raw_reward_magnitude,stim_reward,stepwise_reward_magnitude,paired_with_stopping,quadrant,response,reaction_time,block,num_trial_presentations,which_part,stop_signal_trial_type,left_SSD,right_SSD,accuracy,chosen_bidding_amount,chosen_bidding_level,possible_bid_1,possible_bid_2,possible_bid_3,possible_bid_4,possible_bid_5,possible_bid_6,color_text,shape_text
419.0,8.0,4.0,1.0,3.0,3.0,664.9799952283502,1.0,1.0,part_1,,,,,,,,,,,,,magenta,triangle
190.0,7.0,3.0,1.0,4.0,4.0,524.1371779702604,1.0,1.0,part_1,,,,,,,,,,,,,yellow,hexagon
71.0,5.0,1.0,1.0,3.0,3.0,497.2567618824541,1.0,1.0,part_1,,,,,,,,,,,,,green,I
214.0,3.0,3.0,0.0,2.0,2.0,384.965387172997,1.0,1.0,part_1,,,,,,,,,,,,,cyan,cross
0.0,5.0,0.0,1.0,4.0,4.0,473.7383960746228,1.0,1.0,part_1,,,,,,,,,,,,,green,I
397.0,4.0,4.0,0.0,3.0,3.0,618.51498298347,1.0,1.0,part_1,,,,,,,,,,,,,gray,square
200.0,3.0,3.0,0.0,4.0,4.0,475.1908537000417,1.0,1.0,part_1,,,,,,,,,,,,,cyan,cross
186.0,7.0,3.0,1.0,1.0,1.0,465.7483911141753,1.0,1.0,part_1,,,,,,,,,,,,,yellow,hexagon
410.0,4.0,4.0,0.0,2.0,2.0,414.0128321014344,1.0,1.0,part_1,,,,,,,,,,,,,gray,square
198.0,7.0,3.0,1.0,1.0,1.0,603.9621881209314,1.0,1.0,part_1,,,,,,,,,,,,,yellow,hexagon
0.0,8.0,0.0,1.0,2.0,2.0,493.9228650182485,1.0,1.0,part_1,,,,,,,,,,,,,magenta,triangle
409.0,4.0,4.0,0.0,2.0,2.0,548.5687428154051,1.0,1.0,part_1,,,,,,,,,,,,,gray,square
203.0,7.0,3.0,1.0,1.0,1.0,743.3985201641917,1.0,1.0,part_1,,,,,,,,,,,,,yellow,hexagon
177.0,7.0,3.0,1.0,4.0,4.0,477.7535353787243,1.0,1.0,part_1,,,,,,,,,,,,,yellow,hexagon
0.0,7.0,0.0,1.0,3.0,3.0,515.5611862428486,1.0,1.0,part_1,,,,,,,,,,,,,yellow,hexagon
212.0,3.0,3.0,0.0,1.0,1.0,621.7584609985352,1.0,1.0,part_1,,,,,,,,,,,,,cyan,cross
424.0,4.0,4.0,0.0,3.0,3.0,812.9472527652979,1.0,1.0,part_1,,,,,,,,,,,,,gray,square
74.0,1.0,1.0,0.0,2.0,2.0,394.4806661456823,1.0,1.0,part_1,,,,,,,,,,,,,orange,circle
212.0,3.0,3.0,0.0,2.0,2.0,348.3041119761765,1.0,1.0,part_1,,,,,,,,,,,,,cyan,cross
420.0,4.0,4.0,0.0,3.0,3.0,635.6646274216473,1.0,1.0,part_1,,,,,,,,,,,,,gray,square
392.0,4.0,4.0,0.0,3.0,3.0,461.7995163425803,1.0,1.0,part_1,,,,,,,,,,,,,gray,square
376.0,4.0,4.0,0.0,2.0,2.0,500.4314882680774,1.0,1.0,part_1,,,,,,,,,,,,,gray,square
0.0,4.0,0.0,0.0,2.0,2.0,400.3138826228678,1.0,1.0,part_1,,,,,,,,,,,,,gray,square
120.0,2.0,2.0,0.0,3.0,3.0,475.9202096611261,1.0,1.0,part_1,,,,,,,,,,,,,blue,diamond
0.0,3.0,0.0,0.0,4.0,4.0,359.9407039582729,1.0,1.0,part_1,,,,,,,,,,,,,cyan,cross
0.0,4.0,0.0,0.0,3.0,3.0,452.5172729045152,1.0,1.0,part_1,,,,,,,,,,,,,gray,square
398.0,8.0,4.0,1.0,1.0,1.0,442.8938748314976,1.0,1.0,part_1,,,,,,,,,,,,,magenta,triangle
222.0,7.0,3.0,1.0,2.0,2.0,431.6624468192458,1.0,1.0,part_1,,,,,,,,,,,,,yellow,hexagon
419.0,4.0,4.0,0.0,1.0,1.0,396.4850171469152,1.0,1.0,part_1,,,,,,,,,,,,,gray,square
219.0,3.0,3.0,0.0,2.0,2.0,298.7652998417616,1.0,1.0,part_1,,,,,,,,,,,,,cyan,cross
0.0,4.0,0.0,0.0,4.0,4.0,381.2758321873843,1.0,1.0,part_1,,,,,,,,,,,,,gray,square
77.0,6.0,2.0,1.0,1.0,1.0,473.7912099808454,1.0,1.0,part_1,,,,,,,,,,,,,white,flipped triangle
57.0,1.0,1.0,0.0,1.0,1.0,384.2201973311603,1.0,1.0,part_1,,,,,,,,,,,,,orange,circle
391.0,4.0,4.0,0.0,4.0,4.0,610.7620662078261,1.0,1.0,part_1,,,,,,,,,,,,,gray,square
0.0,3.0,0.0,0.0,4.0,4.0,455.2266630344093,1.0,1.0,part_1,,,,,,,,,,,,,cyan,cross
201.0,7.0,3.0,1.0,3.0,3.0,566.4979959838092,1.0,1.0,part_1,,,,,,,,,,,,,yellow,hexagon
122.0,6.0,2.0,1.0,2.0,2.0,304.0097979828715,1.0,1.0,part_1,,,,,,,,,,,,,white,flipped triangle
93.0,6.0,2.0,1.0,2.0,2.0,373.2292451895773,1.0,1.0,part_1,,,,,,,,,,,,,white,flipped triangle
55.0,1.0,1.0,0.0,2.0,2.0,466.8672252446413,1.0,1.0,part_1,,,,,,,,,,,,,orange,circle
35.0,5.0,1.0,1.0,2.0,2.0,392.0128899626434,1.0,1.0,part_1,,,,,,,,,,,,,green,I
0.0,4.0,0.0,0.0,3.0,3.0,507.60302506387234,1.0,1.0,part_1,,,,,,,,,,,,,gray,square
217.0,3.0,3.0,0.0,3.0,3.0,449.8286913149059,1.0,1.0,part_1,,,,,,,,,,,,,cyan,cross
49.0,5.0,1.0,1.0,4.0,4.0,455.859855748713,1.0,1.0,part_1,,,,,,,,,,,,,green,I
89.0,2.0,2.0,0.0,1.0,1.0,449.0609229542315,1.0,1.0,part_1,,,,,,,,,,,,,blue,diamond
208.0,7.0,3.0,1.0,4.0,4.0,447.3041207529604,1.0,1.0,part_1,,,,,,,,,,,,,yellow,hexagon
64.0,1.0,1.0,0.0,1.0,1.0,340.4327249154448,1.0,1.0,part_1,,,,,,,,,,,,,orange,circle
208.0,3.0,3.0,0.0,1.0,1.0,422.7222609333694,1.0,1.0,part_1,,,,,,,,,,,,,cyan,cross
181.0,3.0,3.0,0.0,1.0,1.0,412.0413181371987,1.0,1.0,part_1,,,,,,,,,,,,,cyan,cross
65.0,1.0,1.0,0.0,3.0,3.0,426.169048063457,1.0,1.0,part_1,,,,,,,,,,,,,orange,circle
392.0,8.0,4.0,1.0,2.0,2.0,391.7501680552959,1.0,1.0,part_1,,,,,,,,,,,,,magenta,triangle
0.0,1.0,0.0,0.0,2.0,2.0,409.4685921445489,1.0,1.0,part_1,,,,,,,,,,,,,orange,circle
122.0,2.0,2.0,0.0,4.0,4.0,382.7289729379117,1.0,1.0,part_1,,,,,,,,,,,,,blue,diamond
94.0,2.0,2.0,0.0,1.0,1.0,588.4287427179515,1.0,1.0,part_1,,,,,,,,,,,,,blue,diamond
203.0,3.0,3.0,0.0,2.0,2.0,488.0148158408701,1.0,1.0,part_1,,,,,,,,,,,,,cyan,cross
47.0,1.0,1.0,0.0,3.0,3.0,533.9254620485008,1.0,1.0,part_1,,,,,,,,,,,,,orange,circle
378.0,4.0,4.0,0.0,3.0,3.0,411.0736651346087,1.0,1.0,part_1,,,,,,,,,,,,,gray,square
192.0,7.0,3.0,1.0,2.0,2.0,391.5887456387281,1.0,1.0,part_1,,,,,,,,,,,,,yellow,hexagon
201.0,7.0,3.0,1.0,3.0,3.0,484.1032368130982,1.0,1.0,part_1,,,,,,,,,,,,,yellow,hexagon
0.0,5.0,0.0,1.0,4.0,4.0,442.8141787648201,1.0,1.0,part_1,,,,,,,,,,,,,green,I
0.0,1.0,0.0,0.0,1.0,1.0,325.5241978913545,1.0,1.0,part_1,,,,,,,,,,,,,orange,circle
0.0,7.0,0.0,1.0,4.0,4.0,440.0891880504787,1.0,1.0,part_1,,,,,,,,,,,,,yellow,hexagon
93.0,2.0,2.0,0.0,4.0,4.0,422.9903169907629,1.0,1.0,part_1,,,,,,,,,,,,,blue,diamond
0.0,2.0,0.0,0.0,1.0,1.0,530.5517027154565,1.0,1.0,part_1,,,,,,,,,,,,,blue,diamond
0.0,4.0,0.0,0.0,4.0,4.0,498.2253168709576,1.0,1.0,part_1,,,,,,,,,,,,,gray,square
0.0,5.0,0.0,1.0,4.0,4.0,548.7618399783969,1.0,1.0,part_1,,,,,,,,,,,,,green,I
183.0,7.0,3.0,1.0,4.0,4.0,361.1645763739943,1.0,1.0,part_1,,,,,,,,,,,,,yellow,hexagon
66.0,5.0,1.0,1.0,4.0,4.0,262.461164034903,1.0,1.0,part_1,,,,,,,,,,,,,green,I
198.0,3.0,3.0,0.0,3.0,3.0,369.0137541852891,1.0,1.0,part_1,,,,,,,,,,,,,cyan,cross
0.0,8.0,0.0,1.0,2.0,2.0,416.4349371567368,1.0,1.0,part_1,,,,,,,,,,,,,magenta,triangle
48.0,1.0,1.0,0.0,3.0,3.0,635.2050662972033,1.0,1.0,part_1,,,,,,,,,,,,,orange,circle
32.0,5.0,1.0,1.0,3.0,3.0,401.770758908242,1.0,1.0,part_1,,,,,,,,,,,,,green,I
64.0,5.0,1.0,1.0,3.0,3.0,300.7133812643587,1.0,1.0,part_1,,,,,,,,,,,,,green,I
376.0,8.0,4.0,1.0,1.0,1.0,563.8670199550688,1.0,1.0,part_1,,,,,,,,,,,,,magenta,triangle
400.0,8.0,4.0,1.0,4.0,4.0,460.9490330331027,1.0,1.0,part_1,,,,,,,,,,,,,magenta,triangle
94.0,2.0,2.0,0.0,2.0,2.0,420.8196219988167,1.0,1.0,part_1,,,,,,,,,,,,,blue,diamond
181.0,7.0,3.0,1.0,2.0,2.0,375.4544188268482,1.0,1.0,part_1,,,,,,,,,,,,,yellow,hexagon
118.0,2.0,2.0,0.0,3.0,3.0,395.2317950315773,1.0,1.0,part_1,,,,,,,,,,,,,blue,diamond
44.0,5.0,1.0,1.0,2.0,2.0,383.4839449264109,1.0,1.0,part_1,,,,,,,,,,,,,green,I
0.0,7.0,0.0,1.0,1.0,1.0,455.2981802262366,1.0,1.0,part_1,,,,,,,,,,,,,yellow,hexagon
51.0,1.0,1.0,0.0,3.0,3.0,621.3760138489306,1.0,1.0,part_1,,,,,,,,,,,,,orange,circle
48.0,5.0,1.0,1.0,1.0,1.0,598.8313709385693,1.0,1.0,part_1,,,,,,,,,,,,,green,I
212.0,7.0,3.0,1.0,1.0,1.0,477.2633537650108,1.0,1.0,part_1,,,,,,,,,,,,,yellow,hexagon
0.0,1.0,0.0,0.0,3.0,3.0,551.4068868942559,1.0,1.0,part_1,,,,,,,,,,,,,orange,circle
56.0,1.0,1.0,0.0,2.0,2.0,486.4749480038881,1.0,1.0,part_1,,,,,,,,,,,,,orange,circle
388.0,8.0,4.0,1.0,4.0,4.0,386.2018380314111,1.0,1.0,part_1,,,,,,,,,,,,,magenta,triangle
32.0,5.0,1.0,1.0,3.0,3.0,405.3909569047391,1.0,1.0,part_1,,,,,,,,,,,,,green,I
177.0,3.0,3.0,0.0,4.0,4.0,586.964612826705,1.0,1.0,part_1,,,,,,,,,,,,,cyan,cross
0.0,2.0,0.0,0.0,1.0,1.0,517.2795047983527,1.0,2.0,part_1,,,,,,,,,,,,,blue,diamond
201.0,3.0,3.0,0.0,4.0,4.0,601.2088498100638,1.0,1.0,part_1,,,,,,,,,,,,,cyan,cross
84.0,2.0,2.0,0.0,1.0,1.0,581.0764851048589,1.0,1.0,part_1,,,,,,,,,,,,,blue,diamond
402.0,8.0,4.0,1.0,1.0,1.0,585.4420829564333,1.0,1.0,part_1,,,,,,,,,,,,,magenta,triangle
118.0,6.0,2.0,1.0,3.0,3.0,487.03733086586,1.0,1.0,part_1,,,,,,,,,,,,,white,flipped triangle
393.0,4.0,4.0,0.0,4.0,4.0,583.1908481195569,1.0,1.0,part_1,,,,,,,,,,,,,gray,square
116.0,2.0,2.0,0.0,4.0,4.0,576.2765510007739,1.0,1.0,part_1,,,,,,,,,,,,,blue,diamond
200.0,7.0,3.0,1.0,3.0,3.0,479.8836312256753,1.0,1.0,part_1,,,,,,,,,,,,,yellow,hexagon
177.0,3.0,3.0,0.0,4.0,4.0,336.9472296908498,1.0,1.0,part_1,,,,,,,,,,,,,cyan,cross
421.0,4.0,4.0,0.0,2.0,2.0,464.8507600650191,1.0,1.0,part_1,,,,,,,,,,,,,gray,square
388.0,8.0,4.0,1.0,4.0,4.0,508.70885280892253,1.0,1.0,part_1,,,,,,,,,,,,,magenta,triangle
63.0,1.0,1.0,0.0,3.0,3.0,375.0582430511713,1.0,1.0,part_1,,,,,,,,,,,,,orange,circle
29.0,1.0,1.0,0.0,3.0,3.0,349.7403217479586,1.0,1.0,part_1,,,,,,,,,,,,,orange,circle
116.0,6.0,2.0,1.0,3.0,3.0,570.941295940429,2.0,1.0,part_1,,,,,,,,,,,,,white,flipped triangle
0.0,7.0,0.0,1.0,2.0,2.0,449.2265000008046,2.0,1.0,part_1,,,,,,,,,,,,,yellow,hexagon
400.0,4.0,4.0,0.0,1.0,1.0,420.1220078393817,2.0,1.0,part_1,,,,,,,,,,,,,gray,square
0.0,2.0,0.0,0.0,2.0,2.0,507.646091748029,2.0,1.0,part_1,,,,,,,,,,,,,blue,diamond
208.0,3.0,3.0,0.0,4.0,4.0,456.4605392515659,2.0,1.0,part_1,,,,,,,,,,,,,cyan,cross
423.0,8.0,4.0,1.0,2.0,2.0,379.8454646021127,2.0,1.0,part_1,,,,,,,,,,,,,magenta,triangle
379.0,8.0,4.0,1.0,1.0,1.0,464.8274169303477,2.0,1.0,part_1,,,,,,,,,,,,,magenta,triangle
0.0,7.0,0.0,1.0,4.0,4.0,461.1294870264828,2.0,1.0,part_1,,,,,,,,,,,,,yellow,hexagon
212.0,3.0,3.0,0.0,1.0,1.0,411.061021964997,2.0,1.0,part_1,,,,,,,,,,,,,cyan,cross
388.0,4.0,4.0,0.0,4.0,4.0,624.1132807917893,2.0,1.0,part_1,,,,,,,,,,,,,gray,square
57.0,1.0,1.0,0.0,4.0,4.0,425.9207569994032,2.0,1.0,part_1,,,,,,,,,,,,,orange,circle
65.0,1.0,1.0,0.0,4.0,4.0,377.1303221583366,2.0,1.0,part_1,,,,,,,,,,,,,orange,circle
0.0,4.0,0.0,0.0,4.0,4.0,391.1614911630749,2.0,1.0,part_1,,,,,,,,,,,,,gray,square
0.0,6.0,0.0,1.0,1.0,1.0,529.8331431113183,2.0,1.0,part_1,,,,,,,,,,,,,white,flipped triangle
105.0,6.0,2.0,1.0,1.0,1.0,342.3992032185197,2.0,1.0,part_1,,,,,,,,,,,,,white,flipped triangle
198.0,3.0,3.0,0.0,4.0,4.0,476.2911600992083,2.0,1.0,part_1,,,,,,,,,,,,,cyan,cross
120.0,6.0,2.0,1.0,4.0,4.0,357.5425539165735,2.0,1.0,part_1,,,,,,,,,,,,,white,flipped triangle
199.0,7.0,3.0,1.0,3.0,3.0,404.8261749558151,2.0,1.0,part_1,,,,,,,,,,,,,yellow,hexagon
409.0,8.0,4.0,1.0,4.0,4.0,415.8978331834078,2.0,1.0,part_1,,,,,,,,,,,,,magenta,triangle
378.0,8.0,4.0,1.0,3.0,3.0,451.8841011449694,2.0,1.0,part_1,,,,,,,,,,,,,magenta,triangle
93.0,2.0,2.0,0.0,3.0,3.0,464.2985188402235,2.0,1.0,part_1,,,,,,,,,,,,,blue,diamond
0.0,7.0,0.0,1.0,4.0,4.0,573.3234006911516,2.0,1.0,part_1,,,,,,,,,,,,,yellow,hexagon
106.0,6.0,2.0,1.0,3.0,3.0,371.5887353755533,2.0,1.0,part_1,,,,,,,,,,,,,white,flipped triangle
0.0,1.0,0.0,0.0,4.0,4.0,447.797984816134,2.0,1.0,part_1,,,,,,,,,,,,,orange,circle
0.0,8.0,0.0,1.0,3.0,3.0,597.0695661380887,2.0,1.0,part_1,,,,,,,,,,,,,magenta,triangle
100.0,6.0,2.0,1.0,3.0,3.0,424.3637700565159,2.0,1.0,part_1,,,,,,,,,,,,,white,flipped triangle
181.0,3.0,3.0,0.0,2.0,2.0,574.6539789251983,2.0,1.0,part_1,,,,,,,,,,,,,cyan,cross
186.0,3.0,3.0,0.0,3.0,3.0,946.1063258349895,2.0,1.0,part_1,,,,,,,,,,,,,cyan,cross
217.0,7.0,3.0,1.0,3.0,3.0,615.7205770723522,2.0,1.0,part_1,,,,,,,,,,,,,yellow,hexagon
27.0,1.0,1.0,0.0,1.0,1.0,458.6796262301504,2.0,1.0,part_1,,,,,,,,,,,,,orange,circle
64.0,1.0,1.0,0.0,4.0,4.0,634.2530907131732,2.0,1.0,part_1,,,,,,,,,,,,,orange,circle
418.0,8.0,4.0,1.0,3.0,3.0,420.3758789226413,2.0,1.0,part_1,,,,,,,,,,,,,magenta,triangle
405.0,4.0,4.0,0.0,1.0,1.0,472.5497271865606,2.0,1.0,part_1,,,,,,,,,,,,,gray,square
27.0,1.0,1.0,0.0,2.0,2.0,396.865151822567,2.0,1.0,part_1,,,,,,,,,,,,,orange,circle
105.0,2.0,2.0,0.0,1.0,1.0,450.593183748424,2.0,1.0,part_1,,,,,,,,,,,,,blue,diamond
208.0,7.0,3.0,1.0,1.0,1.0,449.3765919469297,2.0,1.0,part_1,,,,,,,,,,,,,yellow,hexagon
96.0,6.0,2.0,1.0,4.0,4.0,454.5738236047327,2.0,1.0,part_1,,,,,,,,,,,,,white,flipped triangle
79.0,2.0,2.0,0.0,4.0,4.0,433.5129987448454,2.0,1.0,part_1,,,,,,,,,,,,,blue,diamond
177.0,7.0,3.0,1.0,3.0,3.0,393.7574229203164,2.0,2.0,part_1,,,,,,,,,,,,,yellow,hexagon
57.0,5.0,1.0,1.0,3.0,3.0,454.397345893085,2.0,1.0,part_1,,,,,,,,,,,,,green,I
412.0,4.0,4.0,0.0,3.0,3.0,476.7151949927211,2.0,1.0,part_1,,,,,,,,,,,,,gray,square
93.0,6.0,2.0,1.0,3.0,3.0,427.236404735595,2.0,1.0,part_1,,,,,,,,,,,,,white,flipped triangle
93.0,2.0,2.0,0.0,4.0,4.0,487.3778647743165,2.0,1.0,part_1,,,,,,,,,,,,,blue,diamond
0.0,1.0,0.0,0.0,2.0,2.0,506.3104387372732,2.0,1.0,part_1,,,,,,,,,,,,,orange,circle
0.0,2.0,0.0,0.0,3.0,3.0,573.5762449912727,2.0,1.0,part_1,,,,,,,,,,,,,blue,diamond
185.0,3.0,3.0,0.0,3.0,3.0,468.8388332724571,2.0,1.0,part_1,,,,,,,,,,,,,cyan,cross
399.0,4.0,4.0,0.0,4.0,4.0,531.1115952208638,2.0,1.0,part_1,,,,,,,,,,,,,gray,square
116.0,2.0,2.0,0.0,1.0,1.0,484.8069869913161,2.0,1.0,part_1,,,,,,,,,,,,,blue,diamond
107.0,6.0,2.0,1.0,2.0,2.0,528.7114451639354,2.0,1.0,part_1,,,,,,,,,,,,,white,flipped triangle
0.0,2.0,0.0,0.0,1.0,1.0,423.0447472073138,2.0,1.0,part_1,,,,,,,,,,,,,blue,diamond
388.0,4.0,4.0,0.0,1.0,1.0,538.8226080685854,2.0,1.0,part_1,,,,,,,,,,,,,gray,square
43.0,1.0,1.0,0.0,3.0,3.0,441.5611289441585,2.0,1.0,part_1,,,,,,,,,,,,,orange,circle
111.0,6.0,2.0,1.0,4.0,4.0,485.9344437718391,2.0,1.0,part_1,,,,,,,,,,,,,white,flipped triangle
47.0,5.0,1.0,1.0,2.0,2.0,367.5847300328314,2.0,1.0,part_1,,,,,,,,,,,,,green,I
65.0,5.0,1.0,1.0,1.0,1.0,400.1008691266179,2.0,1.0,part_1,,,,,,,,,,,,,green,I
43.0,1.0,1.0,0.0,3.0,3.0,668.0796733126044,2.0,1.0,part_1,,,,,,,,,,,,,orange,circle
213.0,3.0,3.0,0.0,1.0,1.0,521.9078338705003,2.0,1.0,part_1,,,,,,,,,,,,,cyan,cross
0.0,4.0,0.0,0.0,4.0,4.0,419.7060489095747,2.0,1.0,part_1,,,,,,,,,,,,,gray,square
70.0,5.0,1.0,1.0,1.0,1.0,414.9575838819146,2.0,1.0,part_1,,,,,,,,,,,,,green,I
46.0,1.0,1.0,0.0,4.0,4.0,480.1517138257622,2.0,1.0,part_1,,,,,,,,,,,,,orange,circle
409.0,8.0,4.0,1.0,3.0,3.0,387.7537241205573,2.0,1.0,part_1,,,,,,,,,,,,,magenta,triangle
0.0,2.0,0.0,0.0,4.0,4.0,440.0482983328402,2.0,1.0,part_1,,,,,,,,,,,,,blue,diamond
84.0,2.0,2.0,0.0,2.0,2.0,411.9627648033201,2.0,1.0,part_1,,,,,,,,,,,,,blue,diamond
110.0,2.0,2.0,0.0,2.0,2.0,362.2972308658063,2.0,1.0,part_1,,,,,,,,,,,,,blue,diamond
212.0,7.0,3.0,1.0,2.0,2.0,308.9792472310364,2.0,1.0,part_1,,,,,,,,,,,,,yellow,hexagon
382.0,8.0,4.0,1.0,4.0,4.0,432.9627151601016,2.0,1.0,part_1,,,,,,,,,,,,,magenta,triangle
221.0,3.0,3.0,0.0,3.0,3.0,319.7840838693082,2.0,1.0,part_1,,,,,,,,,,,,,cyan,cross
0.0,4.0,0.0,0.0,4.0,4.0,481.3467347994447,2.0,1.0,part_1,,,,,,,,,,,,,gray,square
120.0,2.0,2.0,0.0,3.0,3.0,295.1882341876626,2.0,1.0,part_1,,,,,,,,,,,,,blue,diamond
0.0,3.0,0.0,0.0,1.0,1.0,550.5998763255775,2.0,1.0,part_1,,,,,,,,,,,,,cyan,cross
0.0,1.0,0.0,0.0,1.0,1.0,545.4169139266014,2.0,1.0,part_1,,,,,,,,,,,,,orange,circle
413.0,8.0,4.0,1.0,4.0,4.0,590.6864400021732,2.0,1.0,part_1,,,,,,,,,,,,,magenta,triangle
0.0,8.0,0.0,1.0,4.0,4.0,609.402883797884,2.0,1.0,part_1,,,,,,,,,,,,,magenta,triangle
49.0,1.0,1.0,0.0,2.0,2.0,430.2351879887283,2.0,1.0,part_1,,,,,,,,,,,,,orange,circle
44.0,5.0,1.0,1.0,4.0,4.0,382.0647997781634,2.0,1.0,part_1,,,,,,,,,,,,,green,I
0.0,6.0,0.0,1.0,1.0,1.0,375.4733423702419,2.0,1.0,part_1,,,,,,,,,,,,,white,flipped triangle
0.0,5.0,0.0,1.0,1.0,1.0,557.2837581858039,2.0,1.0,part_1,,,,,,,,,,,,,green,I
44.0,1.0,1.0,0.0,4.0,4.0,545.052183791995,2.0,1.0,part_1,,,,,,,,,,,,,orange,circle
182.0,3.0,3.0,0.0,1.0,1.0,445.2876090072095,2.0,1.0,part_1,,,,,,,,,,,,,cyan,cross
0.0,6.0,0.0,1.0,4.0,4.0,539.4255332648754,2.0,1.0,part_1,,,,,,,,,,,,,white,flipped triangle
0.0,7.0,0.0,1.0,3.0,3.0,486.795961856842,2.0,1.0,part_1,,,,,,,,,,,,,yellow,hexagon
27.0,5.0,1.0,1.0,4.0,4.0,547.7268388494849,2.0,1.0,part_1,,,,,,,,,,,,,green,I
387.0,4.0,4.0,0.0,1.0,1.0,447.5528681650758,2.0,1.0,part_1,,,,,,,,,,,,,gray,square
36.0,5.0,1.0,1.0,2.0,2.0,594.6552539244294,2.0,2.0,part_1,,,,,,,,,,,,,green,I
118.0,6.0,2.0,1.0,2.0,2.0,366.7890396900475,2.0,1.0,part_1,,,,,,,,,,,,,white,flipped triangle
212.0,3.0,3.0,0.0,1.0,1.0,474.3198757059872,2.0,1.0,part_1,,,,,,,,,,,,,cyan,cross
0.0,5.0,0.0,1.0,4.0,4.0,449.1196218878031,2.0,1.0,part_1,,,,,,,,,,,,,green,I
212.0,7.0,3.0,1.0,4.0,4.0,360.1623130962252,2.0,1.0,part_1,,,,,,,,,,,,,yellow,hexagon
27.0,5.0,1.0,1.0,4.0,4.0,433.0254415981471,2.0,1.0,part_1,,,,,,,,,,,,,green,I
60.0,1.0,1.0,0.0,2.0,2.0,416.9580265879631,2.0,1.0,part_1,,,,,,,,,,,,,orange,circle
110.0,6.0,2.0,1.0,1.0,1.0,449.9475709162652,2.0,1.0,part_1,,,,,,,,,,,,,white,flipped triangle
0.0,3.0,0.0,0.0,1.0,1.0,391.7666543275118,2.0,1.0,part_1,,,,,,,,,,,,,cyan,cross
85.0,2.0,2.0,0.0,1.0,1.0,415.1557902805507,2.0,1.0,part_1,,,,,,,,,,,,,blue,diamond
206.0,7.0,3.0,1.0,1.0,1.0,443.8991858623922,2.0,1.0,part_1,,,,,,,,,,,,,yellow,hexagon
0.0,7.0,0.0,1.0,2.0,2.0,407.9272621311247,2.0,1.0,part_1,,,,,,,,,,,,,yellow,hexagon
93.0,6.0,2.0,1.0,2.0,2.0,336.9867042638361,2.0,1.0,part_1,,,,,,,,,,,,,white,flipped triangle
51.0,5.0,1.0,1.0,1.0,1.0,478.4049680456519,2.0,1.0,part_1,,,,,,,,,,,,,green,I
405.0,4.0,4.0,0.0,4.0,4.0,381.1126137152314,2.0,1.0,part_1,,,,,,,,,,,,,gray,square
176.0,7.0,3.0,1.0,4.0,4.0,415.5233521014452,2.0,1.0,part_1,,,,,,,,,,,,,yellow,hexagon
106.0,2.0,2.0,0.0,4.0,4.0,372.6653829216957,2.0,1.0,part_1,,,,,,,,,,,,,blue,diamond
96.0,2.0,2.0,0.0,2.0,2.0,374.8747482895851,3.0,1.0,part_1,,,,,,,,,,,,,blue,diamond
91.0,2.0,2.0,0.0,2.0,2.0,330.8376376517117,3.0,1.0,part_1,,,,,,,,,,,,,blue,diamond
421.0,8.0,4.0,1.0,3.0,3.0,434.6098159439862,3.0,1.0,part_1,,,,,,,,,,,,,magenta,triangle
417.0,4.0,4.0,0.0,1.0,1.0,286.0203483141958,3.0,1.0,part_1,,,,,,,,,,,,,gray,square
215.0,7.0,3.0,1.0,2.0,2.0,472.4540170282125,3.0,1.0,part_1,,,,,,,,,,,,,yellow,hexagon
206.0,3.0,3.0,0.0,4.0,4.0,376.5743533149361,3.0,1.0,part_1,,,,,,,,,,,,,cyan,cross
57.0,5.0,1.0,1.0,4.0,4.0,427.0660947076976,3.0,1.0,part_1,,,,,,,,,,,,,green,I
191.0,7.0,3.0,1.0,1.0,1.0,448.3000999316573,3.0,1.0,part_1,,,,,,,,,,,,,yellow,hexagon
221.0,7.0,3.0,1.0,2.0,2.0,339.3909516744315,3.0,1.0,part_1,,,,,,,,,,,,,yellow,hexagon
55.0,5.0,1.0,1.0,2.0,2.0,281.413400080055,3.0,1.0,part_1,,,,,,,,,,,,,green,I
116.0,6.0,2.0,1.0,1.0,1.0,334.9442663602531,3.0,1.0,part_1,,,,,,,,,,,,,white,flipped triangle
110.0,2.0,2.0,0.0,4.0,4.0,314.4834861159324,3.0,1.0,part_1,,,,,,,,,,,,,blue,diamond
420.0,8.0,4.0,1.0,1.0,1.0,424.4472240097821,3.0,1.0,part_1,,,,,,,,,,,,,magenta,triangle
382.0,4.0,4.0,0.0,4.0,4.0,427.1769309416413,3.0,1.0,part_1,,,,,,,,,,,,,gray,square
103.0,6.0,2.0,1.0,1.0,1.0,490.5299888923764,3.0,1.0,part_1,,,,,,,,,,,,,white,flipped triangle
118.0,2.0,2.0,0.0,2.0,2.0,352.333040907979,3.0,1.0,part_1,,,,,,,,,,,,,blue,diamond
220.0,7.0,3.0,1.0,4.0,4.0,410.9796588309109,3.0,1.0,part_1,,,,,,,,,,,,,yellow,hexagon
405.0,8.0,4.0,1.0,2.0,2.0,285.272940993309,3.0,1.0,part_1,,,,,,,,,,,,,magenta,triangle
192.0,3.0,3.0,0.0,3.0,3.0,538.4261719882488,3.0,1.0,part_1,,,,,,,,,,,,,cyan,cross
83.0,6.0,2.0,1.0,4.0,4.0,562.3613698408008,3.0,1.0,part_1,,,,,,,,,,,,,white,flipped triangle
423.0,4.0,4.0,0.0,3.0,3.0,654.0791396982968,3.0,1.0,part_1,,,,,,,,,,,,,gray,square
84.0,6.0,2.0,1.0,1.0,1.0,409.5963682048023,3.0,1.0,part_1,,,,,,,,,,,,,white,flipped triangle
65.0,1.0,1.0,0.0,2.0,2.0,390.9710682928562,3.0,1.0,part_1,,,,,,,,,,,,,orange,circle
35.0,1.0,1.0,0.0,3.0,3.0,586.4516347646713,3.0,1.0,part_1,,,,,,,,,,,,,orange,circle
113.0,2.0,2.0,0.0,3.0,3.0,535.2202113717794,3.0,1.0,part_1,,,,,,,,,,,,,blue,diamond
89.0,6.0,2.0,1.0,4.0,4.0,663.5069982148707,3.0,1.0,part_1,,,,,,,,,,,,,white,flipped triangle
29.0,1.0,1.0,0.0,3.0,3.0,544.9646390043199,3.0,1.0,part_1,,,,,,,,,,,,,orange,circle
412.0,8.0,4.0,1.0,3.0,3.0,567.6820711232722,3.0,1.0,part_1,,,,,,,,,,,,,magenta,triangle
71.0,1.0,1.0,0.0,1.0,1.0,604.5585949905217,3.0,1.0,part_1,,,,,,,,,,,,,orange,circle
91.0,6.0,2.0,1.0,1.0,1.0,585.6383196078241,3.0,1.0,part_1,,,,,,,,,,,,,white,flipped triangle
399.0,8.0,4.0,1.0,4.0,4.0,645.50048019737,3.0,1.0,part_1,,,,,,,,,,,,,magenta,triangle
378.0,8.0,4.0,1.0,1.0,1.0,536.2418480217457,3.0,1.0,part_1,,,,,,,,,,,,,magenta,triangle
0.0,8.0,0.0,1.0,3.0,3.0,495.2289122156799,3.0,1.0,part_1,,,,,,,,,,,,,magenta,triangle
78.0,2.0,2.0,0.0,3.0,3.0,419.3453029729426,3.0,1.0,part_1,,,,,,,,,,,,,blue,diamond
418.0,4.0,4.0,0.0,2.0,2.0,382.9267681576311,3.0,1.0,part_1,,,,,,,,,,,,,gray,square
413.0,4.0,4.0,0.0,2.0,2.0,364.3405330367386,3.0,1.0,part_1,,,,,,,,,,,,,gray,square
191.0,3.0,3.0,0.0,2.0,2.0,298.784757964313,3.0,1.0,part_1,,,,,,,,,,,,,cyan,cross
0.0,7.0,0.0,1.0,1.0,1.0,445.007957983762,3.0,1.0,part_1,,,,,,,,,,,,,yellow,hexagon
183.0,7.0,3.0,1.0,1.0,1.0,402.9874633997679,3.0,1.0,part_1,,,,,,,,,,,,,yellow,hexagon
27.0,5.0,1.0,1.0,2.0,2.0,398.770805913955,3.0,1.0,part_1,,,,,,,,,,,,,green,I
32.0,1.0,1.0,0.0,4.0,4.0,460.8128303661942,3.0,1.0,part_1,,,,,,,,,,,,,orange,circle
215.0,3.0,3.0,0.0,4.0,4.0,430.2750048227608,3.0,1.0,part_1,,,,,,,,,,,,,cyan,cross
81.0,2.0,2.0,0.0,2.0,2.0,323.6146261915564,3.0,1.0,part_1,,,,,,,,,,,,,blue,diamond
397.0,8.0,4.0,1.0,1.0,1.0,434.344629291445,3.0,1.0,part_1,,,,,,,,,,,,,magenta,triangle
215.0,3.0,3.0,0.0,3.0,3.0,525.3069489262998,3.0,1.0,part_1,,,,,,,,,,,,,cyan,cross
67.0,1.0,1.0,0.0,1.0,1.0,410.4523900896311,3.0,1.0,part_1,,,,,,,,,,,,,orange,circle
56.0,5.0,1.0,1.0,3.0,3.0,704.8375019803643,3.0,1.0,part_1,,,,,,,,,,,,,green,I
182.0,7.0,3.0,1.0,3.0,3.0,444.594285916537,3.0,1.0,part_1,,,,,,,,,,,,,yellow,hexagon
180.0,3.0,3.0,0.0,4.0,4.0,495.2806159853935,3.0,1.0,part_1,,,,,,,,,,,,,cyan,cross
208.0,3.0,3.0,0.0,3.0,3.0,487.1076662093401,3.0,1.0,part_1,,,,,,,,,,,,,cyan,cross
94.0,6.0,2.0,1.0,2.0,2.0,395.5316948704421,3.0,1.0,part_1,,,,,,,,,,,,,white,flipped triangle
99.0,6.0,2.0,1.0,3.0,3.0,429.7020030207932,3.0,1.0,part_1,,,,,,,,,,,,,white,flipped triangle
393.0,8.0,4.0,1.0,2.0,2.0,362.1674999594688,3.0,1.0,part_1,,,,,,,,,,,,,magenta,triangle
0.0,2.0,0.0,0.0,2.0,2.0,385.1261483505368,3.0,1.0,part_1,,,,,,,,,,,,,blue,diamond
120.0,6.0,2.0,1.0,4.0,4.0,435.4349481873214,3.0,1.0,part_1,,,,,,,,,,,,,white,flipped triangle
421.0,4.0,4.0,0.0,3.0,3.0,327.7194970287382,3.0,1.0,part_1,,,,,,,,,,,,,gray,square
424.0,8.0,4.0,1.0,1.0,1.0,407.7736050821841,3.0,1.0,part_1,,,,,,,,,,,,,magenta,triangle
70.0,1.0,1.0,0.0,1.0,1.0,490.6201269477606,3.0,1.0,part_1,,,,,,,,,,,,,orange,circle
201.0,3.0,3.0,0.0,1.0,1.0,367.6839228719473,3.0,1.0,part_1,,,,,,,,,,,,,cyan,cross
99.0,2.0,2.0,0.0,1.0,1.0,333.873797673732,3.0,1.0,part_1,,,,,,,,,,,,,blue,diamond
0.0,5.0,0.0,1.0,2.0,2.0,354.4406448490917,3.0,1.0,part_1,,,,,,,,,,,,,green,I
0.0,3.0,0.0,0.0,2.0,2.0,379.6938387677073,3.0,1.0,part_1,,,,,,,,,,,,,cyan,cross
65.0,5.0,1.0,1.0,3.0,3.0,457.0513358339667,3.0,1.0,part_1,,,,,,,,,,,,,green,I
391.0,8.0,4.0,1.0,2.0,2.0,353.3552731387317,3.0,1.0,part_1,,,,,,,,,,,,,magenta,triangle
387.0,8.0,4.0,1.0,2.0,2.0,340.7701360993087,3.0,1.0,part_1,,,,,,,,,,,,,magenta,triangle
110.0,6.0,2.0,1.0,3.0,3.0,480.6008175946772,3.0,1.0,part_1,,,,,,,,,,,,,white,flipped triangle
87.0,6.0,2.0,1.0,3.0,3.0,468.8030858524143,3.0,1.0,part_1,,,,,,,,,,,,,white,flipped triangle
78.0,6.0,2.0,1.0,2.0,2.0,336.6479692049324,3.0,1.0,part_1,,,,,,,,,,,,,white,flipped triangle
409.0,4.0,4.0,0.0,2.0,2.0,469.2928600125015,3.0,1.0,part_1,,,,,,,,,,,,,gray,square
39.0,5.0,1.0,1.0,2.0,2.0,329.4818238355219,3.0,1.0,part_1,,,,,,,,,,,,,green,I
0.0,4.0,0.0,0.0,2.0,2.0,279.7351437620818,3.0,1.0,part_1,,,,,,,,,,,,,gray,square
62.0,1.0,1.0,0.0,1.0,1.0,388.4353959001601,3.0,1.0,part_1,,,,,,,,,,,,,orange,circle
0.0,3.0,0.0,0.0,1.0,1.0,385.5041591450572,3.0,1.0,part_1,,,,,,,,,,,,,cyan,cross
0.0,6.0,0.0,1.0,2.0,2.0,292.546572163701,3.0,1.0,part_1,,,,,,,,,,,,,white,flipped triangle
386.0,4.0,4.0,0.0,4.0,4.0,378.9658439345658,3.0,1.0,part_1,,,,,,,,,,,,,gray,square
402.0,4.0,4.0,0.0,1.0,1.0,392.003133893013,3.0,1.0,part_1,,,,,,,,,,,,,gray,square
96.0,6.0,2.0,1.0,1.0,1.0,362.2120730578899,3.0,1.0,part_1,,,,,,,,,,,,,white,flipped triangle
203.0,7.0,3.0,1.0,1.0,1.0,378.2322211191058,3.0,1.0,part_1,,,,,,,,,,,,,yellow,hexagon
195.0,3.0,3.0,0.0,2.0,2.0,316.5990179404616,3.0,1.0,part_1,,,,,,,,,,,,,cyan,cross
0.0,6.0,0.0,1.0,2.0,2.0,320.8599281497299,3.0,1.0,part_1,,,,,,,,,,,,,white,flipped triangle
67.0,5.0,1.0,1.0,1.0,1.0,336.0203988850117,3.0,1.0,part_1,,,,,,,,,,,,,green,I
68.0,5.0,1.0,1.0,2.0,2.0,290.8739638514817,3.0,1.0,part_1,,,,,,,,,,,,,green,I
203.0,3.0,3.0,0.0,2.0,2.0,384.4133052043617,3.0,1.0,part_1,,,,,,,,,,,,,cyan,cross
0.0,6.0,0.0,1.0,4.0,4.0,435.1168158464134,3.0,1.0,part_1,,,,,,,,,,,,,white,flipped triangle
0.0,6.0,0.0,1.0,3.0,3.0,667.7163480781019,3.0,1.0,part_1,,,,,,,,,,,,,white,flipped triangle
48.0,1.0,1.0,0.0,2.0,2.0,374.9681101180613,3.0,1.0,part_1,,,,,,,,,,,,,orange,circle
0.0,8.0,0.0,1.0,3.0,3.0,508.4047722630203,3.0,1.0,part_1,,,,,,,,,,,,,magenta,triangle
32.0,1.0,1.0,0.0,4.0,4.0,615.8010154031217,3.0,1.0,part_1,,,,,,,,,,,,,orange,circle
0.0,8.0,0.0,1.0,3.0,3.0,437.674917280674,3.0,1.0,part_1,,,,,,,,,,,,,magenta,triangle
393.0,4.0,4.0,0.0,2.0,2.0,617.7468788810074,3.0,1.0,part_1,,,,,,,,,,,,,gray,square
393.0,8.0,4.0,1.0,4.0,4.0,581.0189303010702,3.0,1.0,part_1,,,,,,,,,,,,,magenta,triangle
77.0,2.0,2.0,0.0,4.0,4.0,595.4090603627264,3.0,1.0,part_1,,,,,,,,,,,,,blue,diamond
43.0,5.0,1.0,1.0,3.0,3.0,509.2383911833167,3.0,1.0,part_1,,,,,,,,,,,,,green,I
111.0,2.0,2.0,0.0,2.0,2.0,532.0791490375996,3.0,1.0,part_1,,,,,,,,,,,,,blue,diamond
87.0,2.0,2.0,0.0,4.0,4.0,518.8729227520525,3.0,1.0,part_1,,,,,,,,,,,,,blue,diamond
379.0,4.0,4.0,0.0,1.0,1.0,571.5127042494714,3.0,1.0,part_1,,,,,,,,,,,,,gray,square
391.0,8.0,4.0,1.0,4.0,4.0,576.0149676352739,3.0,1.0,part_1,,,,,,,,,,,,,magenta,triangle
376.0,4.0,4.0,0.0,1.0,1.0,573.5191651619971,3.0,1.0,part_1,,,,,,,,,,,,,gray,square
65.0,5.0,1.0,1.0,2.0,2.0,379.8808511346578,3.0,1.0,part_1,,,,,,,,,,,,,green,I
199.0,3.0,3.0,0.0,2.0,2.0,406.2943630851805,3.0,1.0,part_1,,,,,,,,,,,,,cyan,cross
96.0,2.0,2.0,0.0,4.0,4.0,557.7205480076373,4.0,1.0,part_1,,,,,,,,,,,,,blue,diamond
0.0,6.0,0.0,1.0,4.0,4.0,455.8309139683842,4.0,1.0,part_1,,,,,,,,,,,,,white,flipped triangle
64.0,5.0,1.0,1.0,3.0,3.0,382.1738278493285,4.0,1.0,part_1,,,,,,,,,,,,,green,I
181.0,7.0,3.0,1.0,2.0,2.0,472.6921441033482,4.0,1.0,part_1,,,,,,,,,,,,,yellow,hexagon
116.0,6.0,2.0,1.0,4.0,4.0,471.0641610436141,4.0,1.0,part_1,,,,,,,,,,,,,white,flipped triangle
110.0,2.0,2.0,0.0,1.0,1.0,547.6063610985875,4.0,1.0,part_1,,,,,,,,,,,,,blue,diamond
0.0,3.0,0.0,0.0,3.0,3.0,430.4438745602965,4.0,1.0,part_1,,,,,,,,,,,,,cyan,cross
195.0,7.0,3.0,1.0,4.0,4.0,490.9940059296787,4.0,1.0,part_1,,,,,,,,,,,,,yellow,hexagon
32.0,1.0,1.0,0.0,4.0,4.0,385.4708722792566,4.0,1.0,part_1,,,,,,,,,,,,,orange,circle
0.0,5.0,0.0,1.0,1.0,1.0,624.1737403906882,4.0,1.0,part_1,,,,,,,,,,,,,green,I
417.0,8.0,4.0,1.0,3.0,3.0,426.8153621815145,4.0,1.0,part_1,,,,,,,,,,,,,magenta,triangle
81.0,6.0,2.0,1.0,4.0,4.0,478.5531307570636,4.0,1.0,part_1,,,,,,,,,,,,,white,flipped triangle
0.0,1.0,0.0,0.0,3.0,3.0,387.983095832169,4.0,1.0,part_1,,,,,,,,,,,,,orange,circle
212.0,7.0,3.0,1.0,2.0,2.0,466.2999100983143,4.0,1.0,part_1,,,,,,,,,,,,,yellow,hexagon
0.0,8.0,0.0,1.0,4.0,4.0,428.6766396835446,4.0,1.0,part_1,,,,,,,,,,,,,magenta,triangle
83.0,2.0,2.0,0.0,2.0,2.0,375.1066960394382,4.0,1.0,part_1,,,,,,,,,,,,,blue,diamond
103.0,2.0,2.0,0.0,2.0,2.0,440.6467662192881,4.0,1.0,part_1,,,,,,,,,,,,,blue,diamond
220.0,3.0,3.0,0.0,1.0,1.0,427.6071670465171,4.0,1.0,part_1,,,,,,,,,,,,,cyan,cross
59.0,5.0,1.0,1.0,3.0,3.0,352.4279580451548,4.0,1.0,part_1,,,,,,,,,,,,,green,I
32.0,5.0,1.0,1.0,1.0,1.0,859.2696581035852,4.0,1.0,part_1,,,,,,,,,,,,,green,I
89.0,2.0,2.0,0.0,3.0,3.0,472.3998242989182,4.0,2.0,part_1,,,,,,,,,,,,,blue,diamond
110.0,6.0,2.0,1.0,2.0,2.0,435.5923612602055,4.0,1.0,part_1,,,,,,,,,,,,,white,flipped triangle
116.0,2.0,2.0,0.0,1.0,1.0,349.9073372222483,4.0,1.0,part_1,,,,,,,,,,,,,blue,diamond
44.0,1.0,1.0,0.0,2.0,2.0,373.9392580464482,4.0,1.0,part_1,,,,,,,,,,,,,orange,circle
62.0,5.0,1.0,1.0,1.0,1.0,524.376193061471,4.0,2.0,part_1,,,,,,,,,,,,,green,I
46.0,5.0,1.0,1.0,1.0,1.0,508.1265168264508,4.0,1.0,part_1,,,,,,,,,,,,,green,I
0.0,4.0,0.0,0.0,1.0,1.0,480.7085902430117,4.0,1.0,part_1,,,,,,,,,,,,,gray,square
396.0,4.0,4.0,0.0,3.0,3.0,586.7921020835638,4.0,1.0,part_1,,,,,,,,,,,,,gray,square
208.0,7.0,3.0,1.0,4.0,4.0,672.0446171239018,4.0,1.0,part_1,,,,,,,,,,,,,yellow,hexagon
94.0,6.0,2.0,1.0,3.0,3.0,479.6913438476622,4.0,1.0,part_1,,,,,,,,,,,,,white,flipped triangle
391.0,4.0,4.0,0.0,2.0,2.0,369.0665648318827,4.0,1.0,part_1,,,,,,,,,,,,,gray,square
0.0,1.0,0.0,0.0,3.0,3.0,505.2422438748181,4.0,1.0,part_1,,,,,,,,,,,,,orange,circle
59.0,1.0,1.0,0.0,1.0,1.0,500.9692329913378,4.0,1.0,part_1,,,,,,,,,,,,,orange,circle
190.0,3.0,3.0,0.0,3.0,3.0,353.9046016521752,4.0,1.0,part_1,,,,,,,,,,,,,cyan,cross
215.0,7.0,3.0,1.0,2.0,2.0,467.2102998010814,4.0,1.0,part_1,,,,,,,,,,,,,yellow,hexagon
111.0,2.0,2.0,0.0,3.0,3.0,400.7366839796304,4.0,1.0,part_1,,,,,,,,,,,,,blue,diamond
0.0,2.0,0.0,0.0,1.0,1.0,575.9902889840305,4.0,1.0,part_1,,,,,,,,,,,,,blue,diamond
68.0,1.0,1.0,0.0,4.0,4.0,476.8733931705355,4.0,1.0,part_1,,,,,,,,,,,,,orange,circle
0.0,6.0,0.0,1.0,2.0,2.0,615.0485249236226,4.0,1.0,part_1,,,,,,,,,,,,,white,flipped triangle
401.0,8.0,4.0,1.0,2.0,2.0,428.1087918207049,4.0,1.0,part_1,,,,,,,,,,,,,magenta,triangle
388.0,8.0,4.0,1.0,4.0,4.0,439.1523650847375,4.0,1.0,part_1,,,,,,,,,,,,,magenta,triangle
396.0,8.0,4.0,1.0,2.0,2.0,427.990959957242,4.0,1.0,part_1,,,,,,,,,,,,,magenta,triangle
118.0,2.0,2.0,0.0,3.0,3.0,352.6428961195051,4.0,1.0,part_1,,,,,,,,,,,,,blue,diamond
222.0,3.0,3.0,0.0,3.0,3.0,294.8271161876619,4.0,1.0,part_1,,,,,,,,,,,,,cyan,cross
214.0,7.0,3.0,1.0,3.0,3.0,281.9561972282827,4.0,1.0,part_1,,,,,,,,,,,,,yellow,hexagon
107.0,2.0,2.0,0.0,3.0,3.0,376.9816481508314,4.0,1.0,part_1,,,,,,,,,,,,,blue,diamond
66.0,1.0,1.0,0.0,2.0,2.0,484.0295650064945,4.0,1.0,part_1,,,,,,,,,,,,,orange,circle
185.0,7.0,3.0,1.0,4.0,4.0,439.8340270854532,4.0,1.0,part_1,,,,,,,,,,,,,yellow,hexagon
0.0,3.0,0.0,0.0,1.0,1.0,599.3003346957266,4.0,1.0,part_1,,,,,,,,,,,,,cyan,cross
48.0,5.0,1.0,1.0,1.0,1.0,513.5235856287181,4.0,1.0,part_1,,,,,,,,,,,,,green,I
63.0,5.0,1.0,1.0,4.0,4.0,463.6975950561464,4.0,1.0,part_1,,,,,,,,,,,,,green,I
29.0,5.0,1.0,1.0,2.0,2.0,390.7936457544565,4.0,1.0,part_1,,,,,,,,,,,,,green,I
0.0,6.0,0.0,1.0,2.0,2.0,328.3947091549635,4.0,1.0,part_1,,,,,,,,,,,,,white,flipped triangle
0.0,5.0,0.0,1.0,2.0,2.0,324.8841776512563,4.0,1.0,part_1,,,,,,,,,,,,,green,I
406.0,4.0,4.0,0.0,4.0,4.0,492.1039971522987,4.0,1.0,part_1,,,,,,,,,,,,,gray,square
0.0,2.0,0.0,0.0,1.0,1.0,486.3734780810773,4.0,1.0,part_1,,,,,,,,,,,,,blue,diamond
413.0,4.0,4.0,0.0,3.0,3.0,412.1544701047241,4.0,1.0,part_1,,,,,,,,,,,,,gray,square
89.0,6.0,2.0,1.0,2.0,2.0,369.0097341313958,4.0,1.0,part_1,,,,,,,,,,,,,white,flipped triangle
111.0,6.0,2.0,1.0,1.0,1.0,491.555230692029,4.0,1.0,part_1,,,,,,,,,,,,,white,flipped triangle
378.0,4.0,4.0,0.0,1.0,1.0,428.2191484235227,4.0,1.0,part_1,,,,,,,,,,,,,gray,square
0.0,5.0,0.0,1.0,3.0,3.0,607.629057019949,4.0,1.0,part_1,,,,,,,,,,,,,green,I
388.0,4.0,4.0,0.0,2.0,2.0,427.3891602642834,4.0,1.0,part_1,,,,,,,,,,,,,gray,square
0.0,3.0,0.0,0.0,1.0,1.0,392.7552099339664,4.0,1.0,part_1,,,,,,,,,,,,,cyan,cross
74.0,5.0,1.0,1.0,4.0,4.0,340.3885751031339,4.0,1.0,part_1,,,,,,,,,,,,,green,I
413.0,8.0,4.0,1.0,1.0,1.0,393.8078950159251,4.0,1.0,part_1,,,,,,,,,,,,,magenta,triangle
84.0,6.0,2.0,1.0,3.0,3.0,398.3407360501587,4.0,1.0,part_1,,,,,,,,,,,,,white,flipped triangle
410.0,8.0,4.0,1.0,2.0,2.0,323.0228689499199,4.0,1.0,part_1,,,,,,,,,,,,,magenta,triangle
198.0,7.0,3.0,1.0,3.0,3.0,416.7675692588091,4.0,1.0,part_1,,,,,,,,,,,,,yellow,hexagon
405.0,8.0,4.0,1.0,1.0,1.0,419.0390659496188,4.0,1.0,part_1,,,,,,,,,,,,,magenta,triangle
0.0,3.0,0.0,0.0,3.0,3.0,343.7984599731862,4.0,1.0,part_1,,,,,,,,,,,,,cyan,cross
43.0,5.0,1.0,1.0,4.0,4.0,356.5866379067302,4.0,1.0,part_1,,,,,,,,,,,,,green,I
176.0,3.0,3.0,0.0,1.0,1.0,530.2854902110994,4.0,1.0,part_1,,,,,,,,,,,,,cyan,cross
79.0,6.0,2.0,1.0,1.0,1.0,421.0998429916799,4.0,1.0,part_1,,,,,,,,,,,,,white,flipped triangle
60.0,5.0,1.0,1.0,1.0,1.0,409.727293998003,4.0,1.0,part_1,,,,,,,,,,,,,green,I
376.0,8.0,4.0,1.0,3.0,3.0,392.3157840035856,4.0,1.0,part_1,,,,,,,,,,,,,magenta,triangle
386.0,8.0,4.0,1.0,2.0,2.0,450.767139904201,4.0,1.0,part_1,,,,,,,,,,,,,magenta,triangle
0.0,1.0,0.0,0.0,2.0,2.0,688.7558489106596,4.0,1.0,part_1,,,,,,,,,,,,,orange,circle
85.0,6.0,2.0,1.0,4.0,4.0,694.4194491952658,4.0,1.0,part_1,,,,,,,,,,,,,white,flipped triangle
401.0,4.0,4.0,0.0,4.0,4.0,458.9225868694484,4.0,1.0,part_1,,,,,,,,,,,,,gray,square
36.0,1.0,1.0,0.0,1.0,1.0,536.8012120015919,4.0,1.0,part_1,,,,,,,,,,,,,orange,circle
118.0,6.0,2.0,1.0,4.0,4.0,363.67540480569,4.0,1.0,part_1,,,,,,,,,,,,,white,flipped triangle
183.0,3.0,3.0,0.0,2.0,2.0,379.0352609939873,4.0,1.0,part_1,,,,,,,,,,,,,cyan,cross
0.0,5.0,0.0,1.0,3.0,3.0,300.7622202858329,4.0,1.0,part_1,,,,,,,,,,,,,green,I
0.0,2.0,0.0,0.0,2.0,2.0,476.3584188185632,4.0,1.0,part_1,,,,,,,,,,,,,blue,diamond
398.0,4.0,4.0,0.0,4.0,4.0,433.57379036024207,4.0,1.0,part_1,,,,,,,,,,,,,gray,square
0.0,1.0,0.0,0.0,2.0,2.0,451.9740180112421,4.0,1.0,part_1,,,,,,,,,,,,,orange,circle
180.0,7.0,3.0,1.0,2.0,2.0,424.7590042650699,4.0,1.0,part_1,,,,,,,,,,,,,yellow,hexagon
0.0,7.0,0.0,1.0,4.0,4.0,468.1523609906435,4.0,1.0,part_1,,,,,,,,,,,,,yellow,hexagon
0.0,8.0,0.0,1.0,1.0,1.0,576.3475592248142,4.0,1.0,part_1,,,,,,,,,,,,,magenta,triangle
421.0,8.0,4.0,1.0,3.0,3.0,597.6418270729482,4.0,1.0,part_1,,,,,,,,,,,,,magenta,triangle
100.0,2.0,2.0,0.0,1.0,1.0,604.7927769832313,4.0,1.0,part_1,,,,,,,,,,,,,blue,diamond
39.0,1.0,1.0,0.0,1.0,1.0,630.4304199293256,4.0,1.0,part_1,,,,,,,,,,,,,orange,circle
27.0,1.0,1.0,0.0,4.0,4.0,534.2443687841296,4.0,1.0,part_1,,,,,,,,,,,,,orange,circle
219.0,7.0,3.0,1.0,1.0,1.0,616.2353502586484,4.0,1.0,part_1,,,,,,,,,,,,,yellow,hexagon
0.0,8.0,0.0,1.0,3.0,3.0,446.4700268581509,4.0,1.0,part_1,,,,,,,,,,,,,magenta,triangle
406.0,8.0,4.0,1.0,3.0,3.0,452.5348129682243,4.0,1.0,part_1,,,,,,,,,,,,,magenta,triangle
213.0,7.0,3.0,1.0,3.0,3.0,357.6848744414747,4.0,1.0,part_1,,,,,,,,,,,,,yellow,hexagon
183.0,3.0,3.0,0.0,4.0,4.0,443.1559070944786,4.0,1.0,part_1,,,,,,,,,,,,,cyan,cross
29.0,5.0,1.0,1.0,4.0,4.0,439.4728541374206,4.0,1.0,part_1,,,,,,,,,,,,,green,I
113.0,6.0,2.0,1.0,2.0,2.0,595.7741178572178,4.0,1.0,part_1,,,,,,,,,,,,,white,flipped triangle
0.0,1.0,1.0,0.0,6.0,6.0,765.2224800549448,1.0,0.0,part_2,go,250.0,250.0,1.0,,,,,,,,,orange,circle
0.0,1.0,1.0,0.0,5.0,5.0,528.091917745769,1.0,0.0,part_2,go,250.0,250.0,1.0,,,,,,,,,orange,circle
0.0,6.0,2.0,1.0,5.0,0.0,0.0,1.0,0.0,part_2,stop,250.0,250.0,4.0,,,,,,,,,white,flipped triangle
0.0,3.0,3.0,0.0,5.0,5.0,486.1172302626073,1.0,0.0,part_2,go,300.0,250.0,1.0,,,,,,,,,cyan,cross
0.0,2.0,2.0,0.0,6.0,6.0,494.6549362502992,1.0,0.0,part_2,go,300.0,250.0,1.0,,,,,,,,,blue,diamond
0.0,5.0,1.0,1.0,6.0,0.0,0.0,1.0,0.0,part_2,stop,300.0,250.0,4.0,,,,,,,,,green,I
0.0,8.0,4.0,1.0,5.0,5.0,380.4143690504133,1.0,0.0,part_2,stop,300.0,300.0,3.0,,,,,,,,,magenta,triangle
0.0,2.0,2.0,0.0,6.0,6.0,763.1566650234163,1.0,0.0,part_2,go,250.0,300.0,1.0,,,,,,,,,blue,diamond
0.0,1.0,1.0,0.0,5.0,5.0,600.7455140352249,1.0,0.0,part_2,go,250.0,300.0,1.0,,,,,,,,,orange,circle
0.0,1.0,1.0,0.0,6.0,6.0,547.2688656300306,1.0,0.0,part_2,go,250.0,300.0,1.0,,,,,,,,,orange,circle
0.0,4.0,4.0,0.0,5.0,5.0,752.8303051367402,1.0,0.0,part_2,go,250.0,300.0,1.0,,,,,,,,,gray,square
0.0,1.0,1.0,0.0,5.0,5.0,977.2373889572918,1.0,0.0,part_2,go,250.0,300.0,1.0,,,,,,,,,orange,circle
0.0,6.0,2.0,1.0,6.0,6.0,439.2831390723586,1.0,0.0,part_2,stop,250.0,300.0,3.0,,,,,,,,,white,flipped triangle
0.0,2.0,2.0,0.0,5.0,5.0,591.7145679704845,1.0,0.0,part_2,go,250.0,250.0,1.0,,,,,,,,,blue,diamond
0.0,3.0,3.0,0.0,6.0,6.0,661.0497706569731,1.0,0.0,part_2,go,250.0,250.0,1.0,,,,,,,,,cyan,cross
0.0,6.0,2.0,1.0,5.0,0.0,0.0,1.0,0.0,part_2,stop,250.0,250.0,4.0,,,,,,,,,white,flipped triangle
0.0,5.0,1.0,1.0,5.0,5.0,821.2437201291323,1.0,0.0,part_2,go,300.0,250.0,1.0,,,,,,,,,green,I
0.0,8.0,4.0,1.0,6.0,6.0,756.2960898503661,1.0,0.0,part_2,go,300.0,250.0,1.0,,,,,,,,,magenta,triangle
0.0,5.0,1.0,1.0,5.0,0.0,0.0,1.0,0.0,part_2,stop,300.0,250.0,4.0,,,,,,,,,green,I
0.0,1.0,1.0,0.0,5.0,5.0,605.6718323379755,1.0,0.0,part_2,go,350.0,250.0,1.0,,,,,,,,,orange,circle
0.0,6.0,2.0,1.0,5.0,0.0,0.0,1.0,0.0,part_2,stop,350.0,250.0,4.0,,,,,,,,,white,flipped triangle
0.0,8.0,4.0,1.0,5.0,5.0,610.1058190688491,1.0,0.0,part_2,stop,400.0,250.0,3.0,,,,,,,,,magenta,triangle
0.0,2.0,2.0,0.0,6.0,6.0,587.3790998011827,1.0,0.0,part_2,go,350.0,250.0,1.0,,,,,,,,,blue,diamond
0.0,4.0,4.0,0.0,6.0,6.0,738.9764576219022,1.0,0.0,part_2,go,350.0,250.0,1.0,,,,,,,,,gray,square
0.0,6.0,2.0,1.0,5.0,0.0,0.0,1.0,0.0,part_2,stop,350.0,250.0,4.0,,,,,,,,,white,flipped triangle
0.0,6.0,2.0,1.0,5.0,0.0,0.0,1.0,0.0,part_2,stop,400.0,250.0,4.0,,,,,,,,,white,flipped triangle
0.0,3.0,3.0,0.0,6.0,6.0,497.6318418048322,1.0,0.0,part_2,go,450.0,250.0,1.0,,,,,,,,,cyan,cross
0.0,8.0,4.0,1.0,6.0,0.0,0.0,1.0,0.0,part_2,stop,450.0,250.0,4.0,,,,,,,,,magenta,triangle
0.0,8.0,4.0,1.0,6.0,0.0,0.0,1.0,0.0,part_2,stop,450.0,300.0,4.0,,,,,,,,,magenta,triangle
0.0,3.0,3.0,0.0,6.0,6.0,605.4362920112908,1.0,0.0,part_2,go,450.0,350.0,1.0,,,,,,,,,cyan,cross
0.0,1.0,1.0,0.0,6.0,6.0,751.3820771127939,1.0,0.0,part_2,go,450.0,350.0,1.0,,,,,,,,,orange,circle
0.0,5.0,1.0,1.0,6.0,0.0,0.0,1.0,0.0,part_2,stop,450.0,350.0,4.0,,,,,,,,,green,I
0.0,5.0,1.0,1.0,5.0,0.0,0.0,1.0,0.0,part_2,stop,450.0,400.0,4.0,,,,,,,,,green,I
0.0,5.0,1.0,1.0,6.0,0.0,0.0,1.0,0.0,part_2,stop,500.0,400.0,4.0,,,,,,,,,green,I
0.0,4.0,4.0,0.0,6.0,6.0,778.5785552114248,1.0,0.0,part_2,go,500.0,450.0,1.0,,,,,,,,,gray,square
0.0,8.0,4.0,1.0,5.0,5.0,497.6836512796581,1.0,0.0,part_2,go,500.0,450.0,1.0,,,,,,,,,magenta,triangle
0.0,1.0,1.0,0.0,5.0,5.0,467.3172300681472,2.0,0.0,part_2,go,500.0,450.0,1.0,,,,,,,,,orange,circle
0.0,3.0,3.0,0.0,6.0,6.0,468.0034979246557,2.0,0.0,part_2,go,500.0,450.0,1.0,,,,,,,,,cyan,cross
0.0,6.0,2.0,1.0,5.0,5.0,410.0927459076047,2.0,0.0,part_2,stop,500.0,450.0,3.0,,,,,,,,,white,flipped triangle
0.0,3.0,3.0,0.0,5.0,5.0,673.8955271430314,2.0,0.0,part_2,go,450.0,450.0,1.0,,,,,,,,,cyan,cross
0.0,5.0,1.0,1.0,6.0,6.0,545.4076267778873,2.0,0.0,part_2,stop,450.0,450.0,3.0,,,,,,,,,green,I
0.0,7.0,3.0,1.0,5.0,0.0,0.0,2.0,0.0,part_2,stop,450.0,400.0,4.0,,,,,,,,,yellow,hexagon
0.0,6.0,2.0,1.0,6.0,0.0,0.0,2.0,0.0,part_2,stop,500.0,400.0,4.0,,,,,,,,,white,flipped triangle
0.0,7.0,3.0,1.0,6.0,6.0,1111.1074429936707,2.0,0.0,part_2,go,500.0,450.0,1.0,,,,,,,,,yellow,hexagon
0.0,2.0,2.0,0.0,6.0,6.0,1185.9883801080289,2.0,0.0,part_2,go,500.0,450.0,1.0,,,,,,,,,blue,diamond
0.0,4.0,4.0,0.0,5.0,5.0,808.816543314606,2.0,0.0,part_2,go,500.0,450.0,1.0,,,,,,,,,gray,square
0.0,2.0,2.0,0.0,5.0,5.0,536.2121732905507,2.0,0.0,part_2,go,500.0,450.0,1.0,,,,,,,,,blue,diamond
0.0,8.0,4.0,1.0,6.0,6.0,474.9802695587277,2.0,0.0,part_2,stop,500.0,450.0,3.0,,,,,,,,,magenta,triangle
0.0,4.0,4.0,0.0,5.0,5.0,428.4104211255908,2.0,0.0,part_2,go,500.0,400.0,1.0,,,,,,,,,gray,square
0.0,7.0,3.0,1.0,6.0,6.0,365.3635871596634,2.0,0.0,part_2,stop,500.0,400.0,3.0,,,,,,,,,yellow,hexagon
0.0,7.0,3.0,1.0,5.0,0.0,0.0,2.0,0.0,part_2,stop,500.0,350.0,4.0,,,,,,,,,yellow,hexagon
0.0,6.0,2.0,1.0,5.0,0.0,0.0,2.0,0.0,part_2,stop,550.0,350.0,4.0,,,,,,,,,white,flipped triangle
0.0,4.0,4.0,0.0,5.0,5.0,867.4749108031392,2.0,0.0,part_2,go,600.0,350.0,1.0,,,,,,,,,gray,square
0.0,6.0,2.0,1.0,5.0,5.0,1187.7999100834131,2.0,0.0,part_2,go,600.0,350.0,1.0,,,,,,,,,white,flipped triangle
0.0,1.0,1.0,0.0,5.0,5.0,1113.4901018813252,2.0,0.0,part_2,go,600.0,350.0,1.0,,,,,,,,,orange,circle
0.0,2.0,2.0,0.0,5.0,5.0,1048.6635835841298,2.0,0.0,part_2,go,600.0,350.0,1.0,,,,,,,,,blue,diamond
0.0,6.0,2.0,1.0,5.0,0.0,0.0,2.0,0.0,part_2,stop,600.0,350.0,4.0,,,,,,,,,white,flipped triangle
0.0,7.0,3.0,1.0,5.0,0.0,0.0,2.0,0.0,part_2,stop,650.0,350.0,4.0,,,,,,,,,yellow,hexagon
0.0,3.0,3.0,0.0,5.0,5.0,1248.1217519380152,2.0,0.0,part_2,go,700.0,350.0,1.0,,,,,,,,,cyan,cross
0.0,3.0,3.0,0.0,6.0,6.0,1017.8408119827509,2.0,0.0,part_2,go,700.0,350.0,1.0,,,,,,,,,cyan,cross
0.0,8.0,4.0,1.0,5.0,0.0,0.0,2.0,0.0,part_2,stop,700.0,350.0,4.0,,,,,,,,,magenta,triangle
0.0,5.0,1.0,1.0,6.0,6.0,605.1920866593719,2.0,0.0,part_2,go,750.0,350.0,1.0,,,,,,,,,green,I
0.0,8.0,4.0,1.0,6.0,6.0,990.4701691120864,2.0,0.0,part_2,go,750.0,350.0,1.0,,,,,,,,,magenta,triangle
0.0,5.0,1.0,1.0,6.0,6.0,572.5153228268027,2.0,0.0,part_2,stop,750.0,350.0,3.0,,,,,,,,,green,I
0.0,6.0,2.0,1.0,6.0,0.0,0.0,2.0,0.0,part_2,stop,750.0,300.0,4.0,,,,,,,,,white,flipped triangle
0.0,4.0,4.0,0.0,5.0,5.0,610.3221769444644,2.0,0.0,part_2,go,750.0,350.0,1.0,,,,,,,,,gray,square
0.0,2.0,2.0,0.0,6.0,6.0,524.0082973614335,2.0,0.0,part_2,go,750.0,350.0,1.0,,,,,,,,,blue,diamond
0.0,3.0,3.0,0.0,5.0,5.0,469.1141000948846,2.0,0.0,part_2,go,750.0,350.0,1.0,,,,,,,,,cyan,cross
0.0,4.0,4.0,0.0,6.0,6.0,322.6081160828471,2.0,0.0,part_2,go,750.0,350.0,1.0,,,,,,,,,gray,square
0.0,4.0,4.0,0.0,6.0,6.0,363.1112012080848,2.0,0.0,part_2,go,750.0,350.0,1.0,,,,,,,,,gray,square
0.0,6.0,2.0,1.0,6.0,6.0,619.3241328001022,2.0,0.0,part_2,go,750.0,350.0,1.0,,,,,,,,,white,flipped triangle
0.0,3.0,3.0,0.0,5.0,5.0,487.7726580016315,2.0,0.0,part_2,go,750.0,350.0,1.0,,,,,,,,,cyan,cross
0.0,8.0,4.0,1.0,5.0,5.0,924.9184769578278,3.0,0.0,part_2,stop,750.0,350.0,3.0,,,,,,,,,magenta,triangle
0.0,1.0,1.0,0.0,6.0,6.0,350.1089382916689,3.0,0.0,part_2,go,700.0,350.0,1.0,,,,,,,,,orange,circle
0.0,8.0,4.0,1.0,6.0,6.0,388.2058141753077,3.0,0.0,part_2,stop,700.0,350.0,3.0,,,,,,,,,magenta,triangle
0.0,2.0,2.0,0.0,5.0,5.0,381.9247321225703,3.0,0.0,part_2,go,700.0,300.0,1.0,,,,,,,,,blue,diamond
0.0,3.0,3.0,0.0,5.0,5.0,443.1994906626642,3.0,0.0,part_2,go,700.0,300.0,1.0,,,,,,,,,cyan,cross
0.0,5.0,1.0,1.0,6.0,6.0,690.5092629604042,3.0,0.0,part_2,go,700.0,300.0,1.0,,,,,,,,,green,I
0.0,1.0,1.0,0.0,5.0,5.0,506.5393862314522,3.0,0.0,part_2,go,700.0,300.0,1.0,,,,,,,,,orange,circle
0.0,6.0,2.0,1.0,6.0,6.0,683.2691091112792,3.0,0.0,part_2,go,700.0,300.0,1.0,,,,,,,,,white,flipped triangle
0.0,5.0,1.0,1.0,5.0,0.0,0.0,3.0,0.0,part_2,stop,700.0,300.0,4.0,,,,,,,,,green,I
0.0,8.0,4.0,1.0,6.0,0.0,0.0,3.0,0.0,part_2,stop,750.0,300.0,4.0,,,,,,,,,magenta,triangle
0.0,5.0,1.0,1.0,5.0,5.0,464.5701581612229,3.0,0.0,part_2,stop,750.0,350.0,3.0,,,,,,,,,green,I
0.0,1.0,1.0,0.0,5.0,5.0,366.8159702792763,3.0,0.0,part_2,go,700.0,350.0,1.0,,,,,,,,,orange,circle
0.0,7.0,3.0,1.0,5.0,5.0,350.2144878730178,3.0,0.0,part_2,go,700.0,350.0,1.0,,,,,,,,,yellow,hexagon
0.0,5.0,1.0,1.0,6.0,6.0,318.0335173383355,3.0,0.0,part_2,stop,700.0,350.0,3.0,,,,,,,,,green,I
0.0,1.0,1.0,0.0,5.0,5.0,462.085120845586,3.0,0.0,part_2,go,700.0,300.0,1.0,,,,,,,,,orange,circle
0.0,7.0,3.0,1.0,6.0,6.0,638.5044036433101,3.0,0.0,part_2,stop,700.0,300.0,3.0,,,,,,,,,yellow,hexagon
0.0,1.0,1.0,0.0,6.0,6.0,597.6354540325701,3.0,0.0,part_2,go,700.0,250.0,1.0,,,,,,,,,orange,circle
0.0,7.0,3.0,1.0,6.0,0.0,0.0,3.0,0.0,part_2,stop,700.0,250.0,4.0,,,,,,,,,yellow,hexagon
0.0,4.0,4.0,0.0,6.0,6.0,373.8516378216445,3.0,0.0,part_2,go,700.0,300.0,1.0,,,,,,,,,gray,square
0.0,4.0,4.0,0.0,5.0,5.0,276.5110777691006,3.0,0.0,part_2,go,700.0,300.0,1.0,,,,,,,,,gray,square
0.0,7.0,3.0,1.0,5.0,5.0,354.3274598196149,3.0,0.0,part_2,stop,700.0,300.0,3.0,,,,,,,,,yellow,hexagon
0.0,6.0,2.0,1.0,6.0,6.0,419.0056351944804,3.0,0.0,part_2,stop,650.0,300.0,3.0,,,,,,,,,white,flipped triangle
0.0,2.0,2.0,0.0,6.0,6.0,760.6026926077902,3.0,0.0,part_2,go,650.0,250.0,1.0,,,,,,,,,blue,diamond
0.0,3.0,3.0,0.0,6.0,6.0,363.4400456212461,3.0,0.0,part_2,go,650.0,250.0,1.0,,,,,,,,,cyan,cross
0.0,8.0,4.0,1.0,5.0,5.0,288.5074121877551,3.0,0.0,part_2,stop,650.0,250.0,3.0,,,,,,,,,magenta,triangle
0.0,7.0,3.0,1.0,5.0,5.0,384.3632480129599,3.0,0.0,part_2,stop,600.0,250.0,3.0,,,,,,,,,yellow,hexagon
0.0,4.0,4.0,0.0,5.0,5.0,473.3733618631959,3.0,0.0,part_2,go,550.0,250.0,1.0,,,,,,,,,gray,square
0.0,8.0,4.0,1.0,6.0,6.0,275.7868766784668,3.0,0.0,part_2,stop,550.0,250.0,3.0,,,,,,,,,magenta,triangle
0.0,8.0,4.0,1.0,5.0,0.0,0.0,3.0,0.0,part_2,stop,550.0,200.0,4.0,,,,,,,,,magenta,triangle
0.0,4.0,4.0,0.0,6.0,6.0,845.3213167376816,3.0,0.0,part_2,go,600.0,200.0,1.0,,,,,,,,,gray,square
0.0,6.0,2.0,1.0,6.0,0.0,0.0,3.0,0.0,part_2,stop,600.0,200.0,4.0,,,,,,,,,white,flipped triangle
0.0,7.0,3.0,1.0,5.0,5.0,699.500965885818,3.0,0.0,part_2,stop,600.0,250.0,3.0,,,,,,,,,yellow,hexagon
0.0,1.0,1.0,0.0,6.0,6.0,899.9231271445751,3.0,0.0,part_2,go,550.0,250.0,1.0,,,,,,,,,orange,circle
0.0,1.0,1.0,0.0,6.0,6.0,838.0904369987547,3.0,0.0,part_2,go,550.0,250.0,1.0,,,,,,,,,orange,circle
0.0,5.0,1.0,1.0,5.0,0.0,0.0,3.0,0.0,part_2,stop,550.0,250.0,4.0,,,,,,,,,green,I
0.0,3.0,3.0,0.0,5.0,5.0,874.4310117326677,3.0,0.0,part_2,go,600.0,250.0,1.0,,,,,,,,,cyan,cross
0.0,4.0,4.0,0.0,5.0,5.0,475.4383261315524,4.0,0.0,part_2,go,600.0,250.0,1.0,,,,,,,,,gray,square
0.0,4.0,4.0,0.0,6.0,6.0,729.3555508367717,4.0,0.0,part_2,go,600.0,250.0,1.0,,,,,,,,,gray,square
0.0,2.0,2.0,0.0,5.0,5.0,454.2844900861382,4.0,0.0,part_2,go,600.0,250.0,1.0,,,,,,,,,blue,diamond
0.0,7.0,3.0,1.0,6.0,6.0,329.5370070263743,4.0,0.0,part_2,stop,600.0,250.0,3.0,,,,,,,,,yellow,hexagon
0.0,8.0,4.0,1.0,6.0,0.0,0.0,4.0,0.0,part_2,stop,600.0,200.0,4.0,,,,,,,,,magenta,triangle
0.0,8.0,4.0,1.0,6.0,0.0,0.0,4.0,0.0,part_2,stop,600.0,250.0,4.0,,,,,,,,,magenta,triangle
0.0,7.0,3.0,1.0,6.0,6.0,850.4133811220527,4.0,0.0,part_2,go,600.0,300.0,1.0,,,,,,,,,yellow,hexagon
0.0,1.0,1.0,0.0,5.0,5.0,1119.7645300999284,4.0,0.0,part_2,go,600.0,300.0,1.0,,,,,,,,,orange,circle
0.0,8.0,4.0,1.0,6.0,6.0,1215.9196166321635,4.0,0.0,part_2,go,600.0,300.0,1.0,,,,,,,,,magenta,triangle
0.0,3.0,3.0,0.0,5.0,5.0,663.7127171270549,4.0,0.0,part_2,go,600.0,300.0,1.0,,,,,,,,,cyan,cross
0.0,6.0,2.0,1.0,5.0,5.0,494.3045829422772,4.0,0.0,part_2,go,600.0,300.0,1.0,,,,,,,,,white,flipped triangle
0.0,2.0,2.0,0.0,5.0,5.0,341.0466280765831,4.0,0.0,part_2,go,600.0,300.0,1.0,,,,,,,,,blue,diamond
0.0,2.0,2.0,0.0,6.0,6.0,310.4260442778468,4.0,0.0,part_2,go,600.0,300.0,1.0,,,,,,,,,blue,diamond
0.0,5.0,1.0,1.0,5.0,5.0,349.8413958586752,4.0,0.0,part_2,stop,600.0,300.0,3.0,,,,,,,,,green,I
0.0,2.0,2.0,0.0,5.0,5.0,397.7905362844467,4.0,0.0,part_2,go,550.0,300.0,1.0,,,,,,,,,blue,diamond
0.0,8.0,4.0,1.0,6.0,6.0,324.092055670917,4.0,0.0,part_2,stop,550.0,300.0,3.0,,,,,,,,,magenta,triangle
0.0,3.0,3.0,0.0,6.0,6.0,1001.6022119671106,4.0,0.0,part_2,go,550.0,250.0,1.0,,,,,,,,,cyan,cross
0.0,4.0,4.0,0.0,6.0,6.0,984.4374870881438,4.0,0.0,part_2,go,550.0,250.0,1.0,,,,,,,,,gray,square
0.0,7.0,3.0,1.0,5.0,0.0,0.0,4.0,0.0,part_2,stop,550.0,250.0,4.0,,,,,,,,,yellow,hexagon
0.0,5.0,1.0,1.0,5.0,0.0,0.0,4.0,0.0,part_2,stop,600.0,250.0,4.0,,,,,,,,,green,I
0.0,6.0,2.0,1.0,5.0,0.0,0.0,4.0,0.0,part_2,stop,650.0,250.0,4.0,,,,,,,,,white,flipped triangle
0.0,3.0,3.0,0.0,5.0,5.0,1377.04620603472,4.0,0.0,part_2,go,700.0,250.0,1.0,,,,,,,,,cyan,cross
0.0,1.0,1.0,0.0,6.0,6.0,537.8575441427529,4.0,0.0,part_2,go,700.0,250.0,1.0,,,,,,,,,orange,circle
0.0,2.0,2.0,0.0,5.0,5.0,782.1277268230915,4.0,0.0,part_2,go,700.0,250.0,1.0,,,,,,,,,blue,diamond
0.0,6.0,2.0,1.0,5.0,5.0,389.5801813341677,4.0,0.0,part_2,stop,700.0,250.0,3.0,,,,,,,,,white,flipped triangle
0.0,3.0,3.0,0.0,6.0,6.0,869.6131175383925,4.0,0.0,part_2,go,650.0,250.0,1.0,,,,,,,,,cyan,cross
0.0,7.0,3.0,1.0,6.0,6.0,991.6582992300392,4.0,0.0,part_2,stop,650.0,250.0,3.0,,,,,,,,,yellow,hexagon
0.0,3.0,3.0,0.0,6.0,6.0,979.8445641063154,4.0,0.0,part_2,go,650.0,200.0,1.0,,,,,,,,,cyan,cross
0.0,6.0,2.0,1.0,6.0,0.0,0.0,4.0,0.0,part_2,stop,650.0,200.0,4.0,,,,,,,,,white,flipped triangle
0.0,1.0,1.0,0.0,5.0,5.0,762.4778412282467,4.0,0.0,part_2,go,650.0,250.0,1.0,,,,,,,,,orange,circle
0.0,3.0,3.0,0.0,6.0,6.0,945.7587697543204,4.0,0.0,part_2,go,650.0,250.0,1.0,,,,,,,,,cyan,cross
0.0,7.0,3.0,1.0,6.0,6.0,1107.7661020681262,4.0,0.0,part_2,go,650.0,250.0,1.0,,,,,,,,,yellow,hexagon
0.0,3.0,3.0,0.0,6.0,6.0,497.2255383618176,4.0,0.0,part_2,go,650.0,250.0,1.0,,,,,,,,,cyan,cross
0.0,4.0,4.0,0.0,5.0,5.0,584.647442214191,4.0,0.0,part_2,go,650.0,250.0,1.0,,,,,,,,,gray,square
0.0,6.0,2.0,1.0,6.0,6.0,602.370688226074,4.0,0.0,part_2,go,650.0,250.0,1.0,,,,,,,,,white,flipped triangle
0.0,7.0,3.0,1.0,5.0,5.0,618.2249709963799,4.0,0.0,part_2,stop,650.0,250.0,3.0,,,,,,,,,yellow,hexagon
0.0,3.0,3.0,0.0,5.0,5.0,441.7896177619695,5.0,0.0,part_2,go,600.0,250.0,1.0,,,,,,,,,cyan,cross
0.0,3.0,3.0,0.0,6.0,6.0,544.0964959561825,5.0,0.0,part_2,go,600.0,250.0,1.0,,,,,,,,,cyan,cross
0.0,5.0,1.0,1.0,6.0,6.0,903.3328322693706,5.0,0.0,part_2,stop,600.0,250.0,3.0,,,,,,,,,green,I
0.0,6.0,2.0,1.0,6.0,6.0,504.0288590826094,5.0,0.0,part_2,stop,600.0,200.0,3.0,,,,,,,,,white,flipped triangle
0.0,4.0,4.0,0.0,6.0,6.0,357.1631289087236,5.0,0.0,part_2,go,600.0,150.0,1.0,,,,,,,,,gray,square
0.0,6.0,2.0,1.0,6.0,6.0,805.4250585846603,5.0,0.0,part_2,go,600.0,150.0,1.0,,,,,,,,,white,flipped triangle
0.0,4.0,4.0,0.0,5.0,5.0,429.060747846961,5.0,0.0,part_2,go,600.0,150.0,1.0,,,,,,,,,gray,square
0.0,4.0,4.0,0.0,5.0,5.0,602.923973929137,5.0,0.0,part_2,go,600.0,150.0,1.0,,,,,,,,,gray,square
0.0,7.0,3.0,1.0,6.0,0.0,0.0,5.0,0.0,part_2,stop,600.0,150.0,4.0,,,,,,,,,yellow,hexagon
0.0,5.0,1.0,1.0,6.0,6.0,513.1774446927011,5.0,0.0,part_2,go,600.0,200.0,1.0,,,,,,,,,green,I
0.0,3.0,3.0,0.0,5.0,5.0,528.6480830982327,5.0,0.0,part_2,go,600.0,200.0,1.0,,,,,,,,,cyan,cross
0.0,4.0,4.0,0.0,6.0,6.0,496.1579306982457,5.0,0.0,part_2,go,600.0,200.0,1.0,,,,,,,,,gray,square
0.0,2.0,2.0,0.0,6.0,6.0,735.556545201689,5.0,0.0,part_2,go,600.0,200.0,1.0,,,,,,,,,blue,diamond
0.0,7.0,3.0,1.0,6.0,0.0,0.0,5.0,0.0,part_2,stop,600.0,200.0,4.0,,,,,,,,,yellow,hexagon
0.0,2.0,2.0,0.0,6.0,6.0,390.6854707747698,5.0,0.0,part_2,go,600.0,250.0,1.0,,,,,,,,,blue,diamond
0.0,5.0,1.0,1.0,6.0,0.0,0.0,5.0,0.0,part_2,stop,600.0,250.0,4.0,,,,,,,,,green,I
0.0,1.0,1.0,0.0,5.0,5.0,262.3626231215894,5.0,0.0,part_2,go,600.0,300.0,1.0,,,,,,,,,orange,circle
0.0,8.0,4.0,1.0,6.0,0.0,0.0,5.0,0.0,part_2,stop,600.0,300.0,4.0,,,,,,,,,magenta,triangle
0.0,1.0,1.0,0.0,6.0,6.0,323.5037298873067,5.0,0.0,part_2,go,600.0,350.0,1.0,,,,,,,,,orange,circle
0.0,7.0,3.0,1.0,5.0,5.0,710.4716999456286,5.0,0.0,part_2,stop,600.0,350.0,3.0,,,,,,,,,yellow,hexagon
0.0,8.0,4.0,1.0,5.0,5.0,508.62688664346933,5.0,0.0,part_2,go,550.0,350.0,1.0,,,,,,,,,magenta,triangle
0.0,5.0,1.0,1.0,6.0,6.0,290.4508360661566,5.0,0.0,part_2,stop,550.0,350.0,3.0,,,,,,,,,green,I
0.0,2.0,2.0,0.0,5.0,5.0,323.4069808386266,5.0,0.0,part_2,go,550.0,300.0,1.0,,,,,,,,,blue,diamond
0.0,6.0,2.0,1.0,6.0,6.0,416.6614240966737,5.0,0.0,part_2,stop,550.0,300.0,3.0,,,,,,,,,white,flipped triangle
0.0,7.0,3.0,1.0,5.0,5.0,808.3544857800007,5.0,0.0,part_2,stop,550.0,250.0,3.0,,,,,,,,,yellow,hexagon
0.0,7.0,3.0,1.0,6.0,0.0,0.0,5.0,0.0,part_2,stop,500.0,250.0,4.0,,,,,,,,,yellow,hexagon
0.0,2.0,2.0,0.0,5.0,5.0,1313.2721190340817,5.0,0.0,part_2,go,500.0,300.0,1.0,,,,,,,,,blue,diamond
0.0,4.0,4.0,0.0,6.0,6.0,458.9993776753545,5.0,0.0,part_2,go,500.0,300.0,1.0,,,,,,,,,gray,square
0.0,3.0,3.0,0.0,5.0,5.0,410.1359909400344,5.0,0.0,part_2,go,500.0,300.0,1.0,,,,,,,,,cyan,cross
0.0,5.0,1.0,1.0,5.0,5.0,390.718359965831,5.0,0.0,part_2,stop,500.0,300.0,3.0,,,,,,,,,green,I
0.0,2.0,2.0,0.0,5.0,5.0,536.025027744472,5.0,0.0,part_2,go,450.0,300.0,1.0,,,,,,,,,blue,diamond
0.0,5.0,1.0,1.0,5.0,5.0,341.4240577258169,5.0,0.0,part_2,stop,450.0,300.0,3.0,,,,,,,,,green,I
0.0,2.0,2.0,0.0,6.0,6.0,500.33047422766685,5.0,0.0,part_2,go,400.0,300.0,1.0,,,,,,,,,blue,diamond
0.0,3.0,3.0,0.0,5.0,5.0,548.0370749719441,5.0,0.0,part_2,go,400.0,300.0,1.0,,,,,,,,,cyan,cross
0.0,6.0,2.0,1.0,5.0,0.0,0.0,5.0,0.0,part_2,stop,400.0,300.0,4.0,,,,,,,,,white,flipped triangle
0.0,7.0,3.0,1.0,6.0,6.0,570.8631100133061,5.0,0.0,part_2,go,450.0,300.0,1.0,,,,,,,,,yellow,hexagon
0.0,1.0,1.0,0.0,6.0,6.0,496.5941971167922,6.0,0.0,part_2,go,450.0,300.0,1.0,,,,,,,,,orange,circle
0.0,8.0,4.0,1.0,5.0,5.0,921.5091429650784,6.0,0.0,part_2,go,450.0,300.0,1.0,,,,,,,,,magenta,triangle
0.0,7.0,3.0,1.0,6.0,6.0,393.0778447538614,6.0,0.0,part_2,stop,450.0,300.0,3.0,,,,,,,,,yellow,hexagon
0.0,5.0,1.0,1.0,5.0,5.0,554.3075772002339,6.0,0.0,part_2,go,450.0,250.0,1.0,,,,,,,,,green,I
0.0,4.0,4.0,0.0,6.0,6.0,833.0116118304431,6.0,0.0,part_2,go,450.0,250.0,1.0,,,,,,,,,gray,square
0.0,8.0,4.0,1.0,6.0,6.0,383.6757619865238,6.0,0.0,part_2,stop,450.0,250.0,3.0,,,,,,,,,magenta,triangle
0.0,8.0,4.0,1.0,6.0,0.0,0.0,6.0,0.0,part_2,stop,450.0,200.0,4.0,,,,,,,,,magenta,triangle
0.0,1.0,1.0,0.0,5.0,5.0,405.276567209512,6.0,0.0,part_2,go,450.0,250.0,1.0,,,,,,,,,orange,circle
0.0,4.0,4.0,0.0,5.0,5.0,723.6614632420242,6.0,0.0,part_2,go,450.0,250.0,1.0,,,,,,,,,gray,square
0.0,6.0,2.0,1.0,6.0,0.0,0.0,6.0,0.0,part_2,stop,450.0,250.0,4.0,,,,,,,,,white,flipped triangle
0.0,6.0,2.0,1.0,5.0,5.0,866.679925005883,6.0,0.0,part_2,go,450.0,300.0,1.0,,,,,,,,,white,flipped triangle
0.0,8.0,4.0,1.0,6.0,0.0,0.0,6.0,0.0,part_2,stop,450.0,300.0,4.0,,,,,,,,,magenta,triangle
0.0,4.0,4.0,0.0,6.0,6.0,497.6102178916335,6.0,0.0,part_2,go,450.0,350.0,1.0,,,,,,,,,gray,square
0.0,4.0,4.0,0.0,6.0,6.0,1184.9506366997955,6.0,0.0,part_2,go,450.0,350.0,1.0,,,,,,,,,gray,square
0.0,5.0,1.0,1.0,6.0,0.0,0.0,6.0,0.0,part_2,stop,450.0,350.0,4.0,,,,,,,,,green,I
0.0,2.0,2.0,0.0,6.0,6.0,692.153241019696,6.0,0.0,part_2,go,450.0,400.0,1.0,,,,,,,,,blue,diamond
0.0,3.0,3.0,0.0,5.0,5.0,682.6971820555627,6.0,0.0,part_2,go,450.0,400.0,1.0,,,,,,,,,cyan,cross
0.0,6.0,2.0,1.0,5.0,5.0,552.50513413921,6.0,0.0,part_2,stop,450.0,400.0,3.0,,,,,,,,,white,flipped triangle
0.0,7.0,3.0,1.0,5.0,5.0,710.6767077930272,6.0,0.0,part_2,stop,400.0,400.0,3.0,,,,,,,,,yellow,hexagon
0.0,2.0,2.0,0.0,5.0,5.0,865.1785738766193,6.0,0.0,part_2,go,350.0,400.0,1.0,,,,,,,,,blue,diamond
0.0,1.0,1.0,0.0,6.0,6.0,461.1306609585881,6.0,0.0,part_2,go,350.0,400.0,1.0,,,,,,,,,orange,circle
0.0,2.0,2.0,0.0,5.0,5.0,605.6201299652457,6.0,0.0,part_2,go,350.0,400.0,1.0,,,,,,,,,blue,diamond
0.0,7.0,3.0,1.0,6.0,0.0,0.0,6.0,0.0,part_2,stop,350.0,400.0,4.0,,,,,,,,,yellow,hexagon
0.0,2.0,2.0,0.0,5.0,5.0,487.1347877196967,6.0,0.0,part_2,go,350.0,450.0,1.0,,,,,,,,,blue,diamond
0.0,7.0,3.0,1.0,6.0,0.0,0.0,6.0,0.0,part_2,stop,350.0,450.0,4.0,,,,,,,,,yellow,hexagon
0.0,2.0,2.0,0.0,6.0,6.0,707.371907774359,6.0,0.0,part_2,go,350.0,500.0,1.0,,,,,,,,,blue,diamond
0.0,6.0,2.0,1.0,6.0,6.0,465.9359930083155,6.0,0.0,part_2,stop,350.0,500.0,3.0,,,,,,,,,white,flipped triangle
0.0,8.0,4.0,1.0,5.0,0.0,0.0,6.0,0.0,part_2,stop,350.0,450.0,4.0,,,,,,,,,magenta,triangle
0.0,2.0,2.0,0.0,6.0,6.0,584.9610171280801,6.0,0.0,part_2,go,400.0,450.0,1.0,,,,,,,,,blue,diamond
0.0,3.0,3.0,0.0,6.0,6.0,688.2084850221872,6.0,0.0,part_2,go,400.0,450.0,1.0,,,,,,,,,cyan,cross
0.0,1.0,1.0,0.0,6.0,6.0,642.7943296730518,6.0,0.0,part_2,go,400.0,450.0,1.0,,,,,,,,,orange,circle
0.0,2.0,2.0,0.0,6.0,6.0,480.1030908711254,6.0,0.0,part_2,go,400.0,450.0,1.0,,,,,,,,,blue,diamond
0.0,5.0,1.0,1.0,5.0,0.0,0.0,6.0,0.0,part_2,stop,400.0,450.0,4.0,,,,,,,,,green,I
0.0,6.0,2.0,1.0,6.0,6.0,206.4472809433937,6.0,0.0,part_2,stop,450.0,450.0,3.0,,,,,,,,,white,flipped triangle
0.0,7.0,3.0,1.0,5.0,0.0,0.0,6.0,0.0,part_2,stop,450.0,400.0,4.0,,,,,,,,,yellow,hexagon
0.0,3.0,3.0,0.0,5.0,5.0,823.1684118509293,6.0,0.0,part_2,go,500.0,400.0,1.0,,,,,,,,,cyan,cross
0.0,4.0,4.0,0.0,6.0,6.0,397.7646948769688,7.0,0.0,part_2,go,500.0,400.0,1.0,,,,,,,,,gray,square
0.0,5.0,1.0,1.0,6.0,6.0,325.0795416533947,7.0,0.0,part_2,stop,500.0,400.0,3.0,,,,,,,,,green,I
0.0,5.0,1.0,1.0,5.0,5.0,251.8020779825747,7.0,0.0,part_2,stop,500.0,350.0,3.0,,,,,,,,,green,I
0.0,8.0,4.0,1.0,5.0,5.0,474.6550852432847,7.0,0.0,part_2,go,450.0,350.0,1.0,,,,,,,,,magenta,triangle
0.0,3.0,3.0,0.0,5.0,5.0,426.4935939572751,7.0,0.0,part_2,go,450.0,350.0,1.0,,,,,,,,,cyan,cross
0.0,1.0,1.0,0.0,6.0,6.0,736.702439840883,7.0,0.0,part_2,go,450.0,350.0,1.0,,,,,,,,,orange,circle
0.0,7.0,3.0,1.0,6.0,6.0,711.9880169630051,7.0,0.0,part_2,go,450.0,350.0,1.0,,,,,,,,,yellow,hexagon
0.0,7.0,3.0,1.0,5.0,5.0,510.60706470161676,7.0,0.0,part_2,stop,450.0,350.0,3.0,,,,,,,,,yellow,hexagon
0.0,8.0,4.0,1.0,5.0,5.0,334.4500968232751,7.0,0.0,part_2,stop,400.0,350.0,3.0,,,,,,,,,magenta,triangle
0.0,2.0,2.0,0.0,5.0,5.0,585.1908889599144,7.0,0.0,part_2,go,350.0,350.0,1.0,,,,,,,,,blue,diamond
0.0,3.0,3.0,0.0,6.0,6.0,621.7956990003586,7.0,0.0,part_2,go,350.0,350.0,1.0,,,,,,,,,cyan,cross
0.0,8.0,4.0,1.0,6.0,0.0,0.0,7.0,0.0,part_2,stop,350.0,350.0,4.0,,,,,,,,,magenta,triangle
0.0,4.0,4.0,0.0,5.0,5.0,443.8618212006986,7.0,0.0,part_2,go,350.0,400.0,1.0,,,,,,,,,gray,square
0.0,6.0,2.0,1.0,6.0,0.0,0.0,7.0,0.0,part_2,stop,350.0,400.0,4.0,,,,,,,,,white,flipped triangle
0.0,4.0,4.0,0.0,5.0,5.0,372.4956531077623,7.0,0.0,part_2,go,350.0,450.0,1.0,,,,,,,,,gray,square
0.0,6.0,2.0,1.0,5.0,0.0,0.0,7.0,0.0,part_2,stop,350.0,450.0,4.0,,,,,,,,,white,flipped triangle
0.0,4.0,4.0,0.0,5.0,5.0,372.8159847669303,7.0,0.0,part_2,go,400.0,450.0,1.0,,,,,,,,,gray,square
0.0,4.0,4.0,0.0,6.0,6.0,636.316638905555,7.0,0.0,part_2,go,400.0,450.0,1.0,,,,,,,,,gray,square
0.0,1.0,1.0,0.0,5.0,5.0,604.8191380687058,7.0,0.0,part_2,go,400.0,450.0,1.0,,,,,,,,,orange,circle
0.0,2.0,2.0,0.0,5.0,5.0,651.3456157408655,7.0,0.0,part_2,go,400.0,450.0,1.0,,,,,,,,,blue,diamond
0.0,1.0,1.0,0.0,5.0,5.0,512.7326305955648,7.0,0.0,part_2,go,400.0,450.0,1.0,,,,,,,,,orange,circle
0.0,5.0,1.0,1.0,6.0,6.0,747.4303650669754,7.0,0.0,part_2,go,400.0,450.0,1.0,,,,,,,,,green,I
0.0,4.0,4.0,0.0,5.0,5.0,538.8252777047455,7.0,0.0,part_2,go,400.0,450.0,1.0,,,,,,,,,gray,square
0.0,2.0,2.0,0.0,6.0,6.0,551.5506351366639,7.0,0.0,part_2,go,400.0,450.0,1.0,,,,,,,,,blue,diamond
0.0,7.0,3.0,1.0,5.0,5.0,287.4911199323833,7.0,0.0,part_2,go,400.0,450.0,1.0,,,,,,,,,yellow,hexagon
0.0,8.0,4.0,1.0,5.0,5.0,518.5599261894822,7.0,0.0,part_2,stop,400.0,450.0,3.0,,,,,,,,,magenta,triangle
0.0,2.0,2.0,0.0,5.0,5.0,525.2103772945702,7.0,0.0,part_2,go,350.0,450.0,1.0,,,,,,,,,blue,diamond
0.0,4.0,4.0,0.0,5.0,5.0,533.4517611190677,7.0,0.0,part_2,go,350.0,450.0,1.0,,,,,,,,,gray,square
0.0,1.0,1.0,0.0,5.0,5.0,639.4232967868447,7.0,0.0,part_2,go,350.0,450.0,1.0,,,,,,,,,orange,circle
0.0,8.0,4.0,1.0,5.0,5.0,485.1392218843102,7.0,0.0,part_2,stop,350.0,450.0,3.0,,,,,,,,,magenta,triangle
0.0,7.0,3.0,1.0,5.0,5.0,662.2004332020879,7.0,0.0,part_2,go,300.0,450.0,1.0,,,,,,,,,yellow,hexagon
0.0,5.0,1.0,1.0,5.0,0.0,0.0,7.0,0.0,part_2,stop,300.0,450.0,4.0,,,,,,,,,green,I
0.0,3.0,3.0,0.0,5.0,5.0,432.9009121283889,7.0,0.0,part_2,go,350.0,450.0,1.0,,,,,,,,,cyan,cross
0.0,6.0,2.0,1.0,6.0,0.0,0.0,7.0,0.0,part_2,stop,350.0,450.0,4.0,,,,,,,,,white,flipped triangle
0.0,5.0,1.0,1.0,5.0,5.0,259.114840067923,7.0,0.0,part_2,stop,350.0,500.0,3.0,,,,,,,,,green,I
0.0,6.0,2.0,1.0,5.0,5.0,623.1517158448696,7.0,0.0,part_2,go,300.0,500.0,1.0,,,,,,,,,white,flipped triangle
0.0,2.0,2.0,0.0,6.0,6.0,380.701492074877,8.0,0.0,part_2,go,300.0,500.0,1.0,,,,,,,,,blue,diamond
0.0,2.0,2.0,0.0,6.0,6.0,396.3051838800311,8.0,0.0,part_2,go,300.0,500.0,1.0,,,,,,,,,blue,diamond
0.0,3.0,3.0,0.0,5.0,5.0,364.8022511042654,8.0,0.0,part_2,go,300.0,500.0,1.0,,,,,,,,,cyan,cross
0.0,1.0,1.0,0.0,6.0,6.0,389.9535150267184,8.0,0.0,part_2,go,300.0,500.0,1.0,,,,,,,,,orange,circle
0.0,1.0,1.0,0.0,6.0,6.0,337.9516093991697,8.0,0.0,part_2,go,300.0,500.0,1.0,,,,,,,,,orange,circle
0.0,5.0,1.0,1.0,5.0,5.0,585.7207928784192,8.0,0.0,part_2,go,300.0,500.0,1.0,,,,,,,,,green,I
0.0,3.0,3.0,0.0,6.0,6.0,338.4232437238097,8.0,0.0,part_2,go,300.0,500.0,1.0,,,,,,,,,cyan,cross
0.0,7.0,3.0,1.0,6.0,6.0,554.9571961164474,8.0,0.0,part_2,stop,300.0,500.0,3.0,,,,,,,,,yellow,hexagon
0.0,7.0,3.0,1.0,5.0,0.0,0.0,8.0,0.0,part_2,stop,300.0,450.0,4.0,,,,,,,,,yellow,hexagon
0.0,5.0,1.0,1.0,5.0,0.0,0.0,8.0,0.0,part_2,stop,350.0,450.0,4.0,,,,,,,,,green,I
0.0,3.0,3.0,0.0,6.0,6.0,607.3329737409949,8.0,0.0,part_2,go,400.0,450.0,1.0,,,,,,,,,cyan,cross
0.0,8.0,4.0,1.0,6.0,6.0,537.9451592452824,8.0,0.0,part_2,stop,400.0,450.0,3.0,,,,,,,,,magenta,triangle
0.0,4.0,4.0,0.0,6.0,6.0,749.7435421682894,8.0,0.0,part_2,go,400.0,400.0,1.0,,,,,,,,,gray,square
0.0,7.0,3.0,1.0,5.0,5.0,860.6215380132198,8.0,0.0,part_2,go,400.0,400.0,1.0,,,,,,,,,yellow,hexagon
0.0,2.0,2.0,0.0,5.0,5.0,902.1121431142092,8.0,0.0,part_2,go,400.0,400.0,1.0,,,,,,,,,blue,diamond
0.0,8.0,4.0,1.0,5.0,5.0,845.6780947744846,8.0,0.0,part_2,go,400.0,400.0,1.0,,,,,,,,,magenta,triangle
0.0,1.0,1.0,0.0,6.0,6.0,853.673292323947,8.0,0.0,part_2,go,400.0,400.0,1.0,,,,,,,,,orange,circle
0.0,1.0,1.0,0.0,6.0,6.0,1180.429588072002,8.0,0.0,part_2,go,400.0,400.0,1.0,,,,,,,,,orange,circle
0.0,1.0,1.0,0.0,6.0,6.0,828.2467797398567,8.0,0.0,part_2,go,400.0,400.0,1.0,,,,,,,,,orange,circle
0.0,5.0,1.0,1.0,6.0,0.0,0.0,8.0,0.0,part_2,stop,400.0,400.0,4.0,,,,,,,,,green,I
0.0,7.0,3.0,1.0,6.0,0.0,0.0,8.0,0.0,part_2,stop,400.0,450.0,4.0,,,,,,,,,yellow,hexagon
0.0,6.0,2.0,1.0,6.0,6.0,600.1082467846572,8.0,0.0,part_2,stop,400.0,500.0,3.0,,,,,,,,,white,flipped triangle
0.0,4.0,4.0,0.0,6.0,6.0,623.7016213126481,8.0,0.0,part_2,go,400.0,450.0,1.0,,,,,,,,,gray,square
0.0,8.0,4.0,1.0,5.0,5.0,337.1835551224649,8.0,0.0,part_2,stop,400.0,450.0,3.0,,,,,,,,,magenta,triangle
0.0,5.0,1.0,1.0,6.0,6.0,792.3725503496826,8.0,0.0,part_2,go,350.0,450.0,1.0,,,,,,,,,green,I
0.0,3.0,3.0,0.0,6.0,6.0,743.741222191602,8.0,0.0,part_2,go,350.0,450.0,1.0,,,,,,,,,cyan,cross
0.0,5.0,1.0,1.0,5.0,5.0,1119.265072979033,8.0,0.0,part_2,go,350.0,450.0,1.0,,,,,,,,,green,I
0.0,5.0,1.0,1.0,6.0,0.0,0.0,8.0,0.0,part_2,stop,350.0,450.0,4.0,,,,,,,,,green,I
0.0,3.0,3.0,0.0,6.0,6.0,456.7178273573518,8.0,0.0,part_2,go,350.0,500.0,1.0,,,,,,,,,cyan,cross
0.0,1.0,1.0,0.0,5.0,5.0,915.7563759945332,8.0,0.0,part_2,go,350.0,500.0,1.0,,,,,,,,,orange,circle
0.0,8.0,4.0,1.0,5.0,5.0,415.6918837688863,8.0,0.0,part_2,stop,350.0,500.0,3.0,,,,,,,,,magenta,triangle
0.0,6.0,2.0,1.0,5.0,5.0,699.0545089356601,8.0,0.0,part_2,go,300.0,500.0,1.0,,,,,,,,,white,flipped triangle
0.0,4.0,4.0,0.0,5.0,5.0,772.1547898836434,8.0,0.0,part_2,go,300.0,500.0,1.0,,,,,,,,,gray,square
0.0,2.0,2.0,0.0,6.0,6.0,657.6502411626279,8.0,0.0,part_2,go,300.0,500.0,1.0,,,,,,,,,blue,diamond
0.0,8.0,4.0,1.0,5.0,5.0,861.0473112203181,8.0,0.0,part_2,go,300.0,500.0,1.0,,,,,,,,,magenta,triangle
0.0,1.0,1.0,0.0,5.0,5.0,978.6068410612644,8.0,0.0,part_2,go,300.0,500.0,1.0,,,,,,,,,orange,circle
0.0,6.0,2.0,1.0,7.0,3.0,2832.2940482757986,1.0,1.0,part_3,go,0.0,0.0,0.0,324.0,6.0,54.0,216.0,324.0,162.0,108.0,270.0,white,flipped triangle
0.0,2.0,2.0,0.0,7.0,4.0,3032.2579056955874,1.0,1.0,part_3,go,0.0,0.0,0.0,220.0,5.0,44.0,176.0,264.0,220.0,88.0,132.0,blue,diamond
0.0,4.0,4.0,0.0,7.0,5.0,3589.0301195904613,1.0,1.0,part_3,go,0.0,0.0,0.0,324.0,6.0,108.0,54.0,162.0,216.0,324.0,270.0,gray,square
0.0,1.0,1.0,0.0,7.0,2.0,3164.904243312776,1.0,1.0,part_3,go,0.0,0.0,0.0,324.0,6.0,108.0,324.0,216.0,54.0,270.0,162.0,orange,circle
0.0,7.0,3.0,1.0,7.0,4.0,3412.9532519727945,1.0,1.0,part_3,go,0.0,0.0,0.0,136.0,4.0,204.0,102.0,68.0,136.0,170.0,34.0,yellow,hexagon
0.0,4.0,4.0,0.0,7.0,4.0,2529.1987820528448,1.0,1.0,part_3,go,0.0,0.0,0.0,204.0,6.0,68.0,170.0,34.0,204.0,136.0,102.0,gray,square
0.0,6.0,2.0,1.0,7.0,1.0,3080.939610954374,1.0,1.0,part_3,go,0.0,0.0,0.0,294.0,6.0,294.0,245.0,196.0,98.0,147.0,49.0,white,flipped triangle
0.0,6.0,2.0,1.0,7.0,6.0,2515.973093919456,1.0,1.0,part_3,go,0.0,0.0,0.0,204.0,6.0,170.0,102.0,68.0,34.0,136.0,204.0,white,flipped triangle
0.0,1.0,1.0,0.0,7.0,5.0,3138.4051190689206,1.0,1.0,part_3,go,0.0,0.0,0.0,196.0,4.0,98.0,147.0,294.0,49.0,196.0,245.0,orange,circle
0.0,3.0,3.0,0.0,7.0,5.0,1805.7649368420243,1.0,1.0,part_3,go,0.0,0.0,0.0,196.0,4.0,49.0,294.0,147.0,98.0,196.0,245.0,cyan,cross
0.0,6.0,2.0,1.0,7.0,1.0,1941.325674764812,1.0,1.0,part_3,go,0.0,0.0,0.0,78.0,2.0,78.0,117.0,39.0,156.0,195.0,234.0,white,flipped triangle
0.0,5.0,1.0,1.0,7.0,4.0,1815.1377444155512,1.0,1.0,part_3,go,0.0,0.0,0.0,324.0,6.0,108.0,270.0,54.0,324.0,216.0,162.0,green,I
0.0,2.0,2.0,0.0,7.0,3.0,2456.5226552076642,1.0,1.0,part_3,go,0.0,0.0,0.0,204.0,6.0,34.0,170.0,204.0,102.0,136.0,68.0,blue,diamond
0.0,5.0,1.0,1.0,7.0,4.0,2548.6858407966793,1.0,1.0,part_3,go,0.0,0.0,0.0,170.0,5.0,34.0,68.0,102.0,170.0,136.0,204.0,green,I
0.0,8.0,4.0,1.0,7.0,2.0,2084.925370290875,1.0,1.0,part_3,go,0.0,0.0,0.0,195.0,5.0,78.0,195.0,156.0,39.0,234.0,117.0,magenta,triangle
0.0,4.0,4.0,0.0,7.0,1.0,2669.6307049132884,1.0,1.0,part_3,go,0.0,0.0,0.0,162.0,3.0,162.0,270.0,54.0,324.0,216.0,108.0,gray,square
0.0,2.0,2.0,0.0,7.0,3.0,1366.3776693865657,1.0,1.0,part_3,go,0.0,0.0,0.0,39.0,1.0,156.0,117.0,39.0,234.0,195.0,78.0,blue,diamond
0.0,7.0,3.0,1.0,7.0,2.0,1822.8352898731828,1.0,1.0,part_3,go,0.0,0.0,0.0,39.0,1.0,117.0,39.0,195.0,234.0,78.0,156.0,yellow,hexagon
0.0,6.0,2.0,1.0,7.0,4.0,1817.3593408428133,1.0,1.0,part_3,go,0.0,0.0,0.0,264.0,6.0,220.0,176.0,132.0,264.0,88.0,44.0,white,flipped triangle
0.0,7.0,3.0,1.0,7.0,1.0,1664.815014693886,1.0,1.0,part_3,go,0.0,0.0,0.0,220.0,5.0,220.0,176.0,264.0,88.0,44.0,132.0,yellow,hexagon
0.0,4.0,4.0,0.0,7.0,3.0,1126.0551386512816,2.0,1.0,part_3,go,0.0,0.0,0.0,136.0,4.0,170.0,34.0,136.0,68.0,204.0,102.0,gray,square
0.0,7.0,3.0,1.0,7.0,3.0,2150.705453939736,2.0,1.0,part_3,go,0.0,0.0,0.0,245.0,5.0,147.0,98.0,245.0,49.0,196.0,294.0,yellow,hexagon
0.0,4.0,4.0,0.0,7.0,4.0,1139.990954194218,2.0,1.0,part_3,go,0.0,0.0,0.0,98.0,2.0,294.0,196.0,147.0,98.0,245.0,49.0,gray,square
0.0,2.0,2.0,0.0,7.0,2.0,492.5205409526825,2.0,1.0,part_3,go,0.0,0.0,0.0,195.0,5.0,156.0,195.0,117.0,234.0,39.0,78.0,blue,diamond
0.0,3.0,3.0,0.0,7.0,5.0,1349.645740352571,2.0,1.0,part_3,go,0.0,0.0,0.0,324.0,6.0,54.0,108.0,216.0,270.0,324.0,162.0,cyan,cross
0.0,3.0,3.0,0.0,7.0,2.0,759.4707100652158,2.0,1.0,part_3,go,0.0,0.0,0.0,170.0,5.0,102.0,170.0,136.0,204.0,68.0,34.0,cyan,cross
0.0,5.0,1.0,1.0,7.0,5.0,1214.744348078966,2.0,1.0,part_3,go,0.0,0.0,0.0,147.0,3.0,98.0,245.0,49.0,196.0,147.0,294.0,green,I
0.0,5.0,1.0,1.0,7.0,2.0,1497.2238871268928,2.0,1.0,part_3,go,0.0,0.0,0.0,234.0,6.0,195.0,234.0,117.0,78.0,39.0,156.0,green,I
0.0,3.0,3.0,0.0,7.0,5.0,988.1529062986374,2.0,1.0,part_3,go,0.0,0.0,0.0,264.0,6.0,220.0,88.0,44.0,176.0,264.0,132.0,cyan,cross
0.0,8.0,4.0,1.0,7.0,4.0,1569.5959217846394,2.0,1.0,part_3,go,0.0,0.0,0.0,294.0,6.0,49.0,196.0,245.0,294.0,98.0,147.0,magenta,triangle
0.0,5.0,1.0,1.0,7.0,1.0,1491.6193443350494,2.0,1.0,part_3,go,0.0,0.0,0.0,264.0,6.0,264.0,220.0,132.0,88.0,44.0,176.0,green,I
0.0,7.0,3.0,1.0,7.0,4.0,902.0904768258332,2.0,1.0,part_3,go,0.0,0.0,0.0,54.0,1.0,216.0,270.0,108.0,54.0,162.0,324.0,yellow,hexagon
0.0,5.0,1.0,1.0,7.0,2.0,998.4616236761212,2.0,1.0,part_3,go,0.0,0.0,0.0,78.0,2.0,39.0,78.0,234.0,156.0,117.0,195.0,green,I
0.0,1.0,1.0,0.0,7.0,4.0,1030.9380451217294,2.0,1.0,part_3,go,0.0,0.0,0.0,204.0,6.0,136.0,68.0,170.0,204.0,102.0,34.0,orange,circle
0.0,1.0,1.0,0.0,7.0,2.0,827.0642580464482,2.0,1.0,part_3,go,0.0,0.0,0.0,44.0,1.0,88.0,44.0,176.0,132.0,220.0,264.0,orange,circle
0.0,3.0,3.0,0.0,7.0,5.0,916.0111392848194,2.0,1.0,part_3,go,0.0,0.0,0.0,195.0,5.0,117.0,156.0,39.0,234.0,195.0,78.0,cyan,cross
0.0,7.0,3.0,1.0,7.0,4.0,574.8840249143541,2.0,1.0,part_3,go,0.0,0.0,0.0,34.0,1.0,68.0,204.0,102.0,34.0,170.0,136.0,yellow,hexagon
0.0,7.0,3.0,1.0,7.0,5.0,1206.958327908069,2.0,1.0,part_3,go,0.0,0.0,0.0,270.0,5.0,54.0,216.0,162.0,108.0,270.0,324.0,yellow,hexagon
0.0,8.0,4.0,1.0,7.0,3.0,1370.166625827551,2.0,1.0,part_3,go,0.0,0.0,0.0,204.0,6.0,68.0,136.0,204.0,102.0,170.0,34.0,magenta,triangle
0.0,4.0,4.0,0.0,7.0,3.0,1090.169478673488,2.0,1.0,part_3,go,0.0,0.0,0.0,264.0,6.0,88.0,132.0,264.0,220.0,176.0,44.0,gray,square
0.0,3.0,3.0,0.0,7.0,5.0,1031.0140918008983,3.0,1.0,part_3,go,0.0,0.0,0.0,220.0,5.0,176.0,264.0,88.0,132.0,220.0,44.0,cyan,cross
0.0,3.0,3.0,0.0,7.0,1.0,970.1227638870478,3.0,1.0,part_3,go,0.0,0.0,0.0,49.0,1.0,49.0,245.0,196.0,147.0,294.0,98.0,cyan,cross
0.0,2.0,2.0,0.0,7.0,4.0,1204.5709090307355,3.0,1.0,part_3,go,0.0,0.0,0.0,204.0,6.0,34.0,170.0,68.0,204.0,102.0,136.0,blue,diamond
0.0,4.0,4.0,0.0,7.0,5.0,1132.7307070605457,3.0,1.0,part_3,go,0.0,0.0,0.0,294.0,6.0,245.0,147.0,196.0,49.0,294.0,98.0,gray,square
0.0,6.0,2.0,1.0,7.0,2.0,1518.551121931523,3.0,1.0,part_3,go,0.0,0.0,0.0,195.0,5.0,234.0,195.0,39.0,117.0,156.0,78.0,white,flipped triangle
0.0,2.0,2.0,0.0,7.0,5.0,1069.856037851423,3.0,1.0,part_3,go,0.0,0.0,0.0,147.0,3.0,196.0,294.0,49.0,245.0,147.0,98.0,blue,diamond
0.0,3.0,3.0,0.0,7.0,6.0,1243.2316802442074,3.0,1.0,part_3,go,0.0,0.0,0.0,204.0,6.0,102.0,136.0,170.0,34.0,68.0,204.0,cyan,cross
0.0,6.0,2.0,1.0,7.0,4.0,928.1057259067892,3.0,1.0,part_3,go,0.0,0.0,0.0,98.0,2.0,147.0,49.0,245.0,98.0,294.0,196.0,white,flipped triangle
0.0,7.0,3.0,1.0,7.0,4.0,1025.366460904479,3.0,1.0,part_3,go,0.0,0.0,0.0,220.0,5.0,132.0,176.0,44.0,220.0,88.0,264.0,yellow,hexagon
0.0,4.0,4.0,0.0,7.0,5.0,1140.587734058499,3.0,1.0,part_3,go,0.0,0.0,0.0,234.0,6.0,78.0,39.0,156.0,195.0,234.0,117.0,gray,square
0.0,8.0,4.0,1.0,7.0,4.0,533.5140838287771,3.0,1.0,part_3,go,0.0,0.0,0.0,270.0,5.0,162.0,108.0,54.0,270.0,216.0,324.0,magenta,triangle
0.0,8.0,4.0,1.0,7.0,1.0,1168.2581710629163,3.0,1.0,part_3,go,0.0,0.0,0.0,234.0,6.0,234.0,78.0,117.0,39.0,195.0,156.0,magenta,triangle
0.0,7.0,3.0,1.0,7.0,5.0,686.6777027025819,3.0,1.0,part_3,go,0.0,0.0,0.0,245.0,5.0,49.0,294.0,147.0,98.0,245.0,196.0,yellow,hexagon
0.0,6.0,2.0,1.0,7.0,2.0,713.9257062226534,3.0,1.0,part_3,go,0.0,0.0,0.0,324.0,6.0,162.0,324.0,216.0,54.0,270.0,108.0,white,flipped triangle
0.0,3.0,3.0,0.0,7.0,2.0,780.9960418380797,3.0,1.0,part_3,go,0.0,0.0,0.0,234.0,6.0,39.0,234.0,156.0,195.0,117.0,78.0,cyan,cross
0.0,8.0,4.0,1.0,7.0,2.0,861.5740179084241,3.0,1.0,part_3,go,0.0,0.0,0.0,220.0,5.0,176.0,220.0,88.0,132.0,44.0,264.0,magenta,triangle
0.0,4.0,4.0,0.0,7.0,3.0,1316.8705981224775,3.0,1.0,part_3,go,0.0,0.0,0.0,195.0,5.0,234.0,78.0,195.0,156.0,117.0,39.0,gray,square
0.0,8.0,4.0,1.0,7.0,4.0,728.9943411014974,3.0,1.0,part_3,go,0.0,0.0,0.0,204.0,6.0,136.0,102.0,34.0,204.0,170.0,68.0,magenta,triangle
0.0,8.0,4.0,1.0,7.0,4.0,638.8093288987875,3.0,1.0,part_3,go,0.0,0.0,0.0,324.0,6.0,162.0,54.0,108.0,324.0,216.0,270.0,magenta,triangle
0.0,7.0,3.0,1.0,7.0,4.0,497.1842500381171,3.0,1.0,part_3,go,0.0,0.0,0.0,234.0,6.0,117.0,78.0,195.0,234.0,39.0,156.0,yellow,hexagon
0.0,8.0,4.0,1.0,7.0,4.0,1149.8422781005502,4.0,1.0,part_3,go,0.0,0.0,0.0,294.0,6.0,98.0,196.0,147.0,294.0,49.0,245.0,magenta,triangle
0.0,5.0,1.0,1.0,7.0,4.0,1127.842771820724,4.0,1.0,part_3,go,0.0,0.0,0.0,204.0,6.0,102.0,170.0,34.0,204.0,68.0,136.0,green,I
0.0,1.0,1.0,0.0,7.0,5.0,985.9611568972468,4.0,1.0,part_3,go,0.0,0.0,0.0,234.0,6.0,156.0,39.0,195.0,117.0,234.0,78.0,orange,circle
0.0,3.0,3.0,0.0,7.0,4.0,642.4826118163764,4.0,1.0,part_3,go,0.0,0.0,0.0,324.0,6.0,216.0,108.0,54.0,324.0,270.0,162.0,cyan,cross
0.0,1.0,1.0,0.0,7.0,2.0,1027.515531051904,4.0,1.0,part_3,go,0.0,0.0,0.0,39.0,1.0,78.0,39.0,156.0,234.0,195.0,117.0,orange,circle
0.0,1.0,1.0,0.0,7.0,5.0,1123.527705669403,4.0,1.0,part_3,go,0.0,0.0,0.0,324.0,6.0,270.0,162.0,216.0,54.0,324.0,108.0,orange,circle
0.0,5.0,1.0,1.0,7.0,2.0,956.8252940662204,4.0,1.0,part_3,go,0.0,0.0,0.0,54.0,1.0,324.0,54.0,216.0,270.0,162.0,108.0,green,I
0.0,1.0,1.0,0.0,7.0,3.0,1469.847995787859,4.0,1.0,part_3,go,0.0,0.0,0.0,88.0,2.0,44.0,176.0,88.0,264.0,220.0,132.0,orange,circle
0.0,2.0,2.0,0.0,7.0,3.0,743.6750312335789,4.0,1.0,part_3,go,0.0,0.0,0.0,324.0,6.0,54.0,108.0,324.0,162.0,270.0,216.0,blue,diamond
0.0,2.0,2.0,0.0,7.0,5.0,755.4737399332225,4.0,1.0,part_3,go,0.0,0.0,0.0,44.0,1.0,88.0,264.0,176.0,132.0,44.0,220.0,blue,diamond
0.0,5.0,1.0,1.0,7.0,2.0,1106.359550729394,4.0,1.0,part_3,go,0.0,0.0,0.0,49.0,1.0,196.0,49.0,147.0,245.0,98.0,294.0,green,I
0.0,8.0,4.0,1.0,7.0,5.0,909.3922576867044,4.0,1.0,part_3,go,0.0,0.0,0.0,176.0,4.0,264.0,220.0,132.0,44.0,176.0,88.0,magenta,triangle
0.0,5.0,1.0,1.0,7.0,4.0,677.0149930380285,4.0,1.0,part_3,go,0.0,0.0,0.0,220.0,5.0,132.0,88.0,44.0,220.0,264.0,176.0,green,I
0.0,1.0,1.0,0.0,7.0,5.0,696.0206548683345,4.0,1.0,part_3,go,0.0,0.0,0.0,245.0,5.0,147.0,98.0,196.0,49.0,245.0,294.0,orange,circle
0.0,6.0,2.0,1.0,7.0,3.0,1130.22364070639,4.0,1.0,part_3,go,0.0,0.0,0.0,88.0,2.0,44.0,176.0,88.0,264.0,220.0,132.0,white,flipped triangle
0.0,6.0,2.0,1.0,7.0,2.0,977.5612642988564,4.0,1.0,part_3,go,0.0,0.0,0.0,102.0,3.0,68.0,102.0,204.0,136.0,34.0,170.0,white,flipped triangle
0.0,1.0,1.0,0.0,7.0,3.0,1258.4688179194927,4.0,1.0,part_3,go,0.0,0.0,0.0,68.0,2.0,170.0,136.0,68.0,34.0,204.0,102.0,orange,circle
0.0,4.0,4.0,0.0,7.0,6.0,1278.9318119175732,4.0,1.0,part_3,go,0.0,0.0,0.0,220.0,5.0,264.0,176.0,88.0,132.0,44.0,220.0,gray,square
0.0,2.0,2.0,0.0,7.0,4.0,848.0357867665589,4.0,1.0,part_3,go,0.0,0.0,0.0,216.0,4.0,162.0,324.0,54.0,216.0,270.0,108.0,blue,diamond
0.0,2.0,2.0,0.0,7.0,3.0,728.1897589564323,4.0,1.0,part_3,go,0.0,0.0,0.0,245.0,5.0,147.0,49.0,245.0,196.0,98.0,294.0,blue,diamond
