raw_reward_magnitude,stim_reward,stepwise_reward_magnitude,paired_with_stopping,quadrant,response,reaction_time,block,num_trial_presentations,which_part,stop_signal_trial_type,left_SSD,right_SSD,accuracy,chosen_bidding_amount,chosen_bidding_level,possible_bid_1,possible_bid_2,possible_bid_3,possible_bid_4,possible_bid_5,possible_bid_6,color_text,shape_text
27.0,1.0,1.0,0.0,4.0,4.0,496.5119370026514,1.0,1.0,part_1,,,,,,,,,,,,,white,square
211.0,3.0,3.0,0.0,3.0,3.0,460.2706060104538,1.0,1.0,part_1,,,,,,,,,,,,,blue,flipped triangle
192.0,3.0,3.0,0.0,2.0,2.0,550.150682014646,1.0,1.0,part_1,,,,,,,,,,,,,blue,flipped triangle
0.0,2.0,0.0,0.0,3.0,3.0,439.9705140094738,1.0,1.0,part_1,,,,,,,,,,,,,cyan,diamond
0.0,5.0,0.0,1.0,2.0,2.0,509.7118570120074,1.0,1.0,part_1,,,,,,,,,,,,,orange,triangle
177.0,7.0,3.0,1.0,3.0,3.0,452.8435969841666,1.0,1.0,part_1,,,,,,,,,,,,,yellow,I
42.0,5.0,1.0,1.0,2.0,2.0,431.4948579994961,1.0,1.0,part_1,,,,,,,,,,,,,orange,triangle
60.0,5.0,1.0,1.0,1.0,1.0,600.7815980119631,1.0,1.0,part_1,,,,,,,,,,,,,orange,triangle
85.0,6.0,2.0,1.0,3.0,3.0,555.2040129841771,1.0,1.0,part_1,,,,,,,,,,,,,green,circle
424.0,4.0,4.0,0.0,3.0,3.0,523.4589189931285,1.0,1.0,part_1,,,,,,,,,,,,,gray,cross
0.0,3.0,0.0,0.0,3.0,3.0,445.111207984155,1.0,1.0,part_1,,,,,,,,,,,,,blue,flipped triangle
209.0,3.0,3.0,0.0,4.0,4.0,757.3113619873766,1.0,1.0,part_1,,,,,,,,,,,,,blue,flipped triangle
0.0,4.0,0.0,0.0,4.0,4.0,466.3954809948336,1.0,1.0,part_1,,,,,,,,,,,,,gray,cross
210.0,3.0,3.0,0.0,2.0,2.0,457.3470920149702,1.0,1.0,part_1,,,,,,,,,,,,,blue,flipped triangle
387.0,8.0,4.0,1.0,4.0,4.0,446.5875099995173,1.0,1.0,part_1,,,,,,,,,,,,,magenta,hexagon
71.0,1.0,1.0,0.0,1.0,1.0,482.0273339864798,1.0,1.0,part_1,,,,,,,,,,,,,white,square
0.0,1.0,0.0,0.0,2.0,2.0,377.1613930002786,1.0,1.0,part_1,,,,,,,,,,,,,white,square
30.0,5.0,1.0,1.0,2.0,2.0,357.9578000062611,1.0,1.0,part_1,,,,,,,,,,,,,orange,triangle
123.0,6.0,2.0,1.0,3.0,3.0,426.1008659959771,1.0,1.0,part_1,,,,,,,,,,,,,green,circle
410.0,4.0,4.0,0.0,2.0,2.0,382.112163992133,1.0,1.0,part_1,,,,,,,,,,,,,gray,cross
60.0,1.0,1.0,0.0,2.0,2.0,381.5613149781711,1.0,1.0,part_1,,,,,,,,,,,,,white,square
217.0,7.0,3.0,1.0,4.0,4.0,473.295642004814,1.0,1.0,part_1,,,,,,,,,,,,,yellow,I
397.0,8.0,4.0,1.0,2.0,2.0,406.7292630206793,1.0,1.0,part_1,,,,,,,,,,,,,magenta,hexagon
181.0,3.0,3.0,0.0,1.0,1.0,471.3965900009498,1.0,1.0,part_1,,,,,,,,,,,,,blue,flipped triangle
383.0,4.0,4.0,0.0,3.0,3.0,419.6411830198485,1.0,1.0,part_1,,,,,,,,,,,,,gray,cross
407.0,8.0,4.0,1.0,2.0,2.0,395.8107610233128,1.0,1.0,part_1,,,,,,,,,,,,,magenta,hexagon
0.0,4.0,0.0,0.0,4.0,4.0,428.5598600108642,1.0,1.0,part_1,,,,,,,,,,,,,gray,cross
73.0,5.0,1.0,1.0,3.0,3.0,495.9882000111975,1.0,1.0,part_1,,,,,,,,,,,,,orange,triangle
206.0,3.0,3.0,0.0,2.0,2.0,477.3529189988039,1.0,1.0,part_1,,,,,,,,,,,,,blue,flipped triangle
36.0,1.0,1.0,0.0,4.0,4.0,466.7541859962512,1.0,1.0,part_1,,,,,,,,,,,,,white,square
203.0,7.0,3.0,1.0,3.0,3.0,399.4698299793526,1.0,1.0,part_1,,,,,,,,,,,,,yellow,I
383.0,8.0,4.0,1.0,1.0,1.0,602.7440240141004,1.0,1.0,part_1,,,,,,,,,,,,,magenta,hexagon
397.0,4.0,4.0,0.0,1.0,1.0,498.3118469826877,1.0,1.0,part_1,,,,,,,,,,,,,gray,cross
70.0,1.0,1.0,0.0,1.0,1.0,433.7177109846379,1.0,1.0,part_1,,,,,,,,,,,,,white,square
32.0,5.0,1.0,1.0,1.0,1.0,409.4651949999388,1.0,1.0,part_1,,,,,,,,,,,,,orange,triangle
0.0,2.0,0.0,0.0,3.0,3.0,456.1927869799547,1.0,1.0,part_1,,,,,,,,,,,,,cyan,diamond
193.0,7.0,3.0,1.0,1.0,1.0,513.4483749861829,1.0,1.0,part_1,,,,,,,,,,,,,yellow,I
69.0,1.0,1.0,0.0,2.0,2.0,343.7397310044616,1.0,1.0,part_1,,,,,,,,,,,,,white,square
221.0,3.0,3.0,0.0,3.0,3.0,357.434812001884,1.0,1.0,part_1,,,,,,,,,,,,,blue,flipped triangle
182.0,3.0,3.0,0.0,2.0,2.0,536.1652559950016,1.0,1.0,part_1,,,,,,,,,,,,,blue,flipped triangle
109.0,6.0,2.0,1.0,1.0,1.0,527.6846290216781,1.0,1.0,part_1,,,,,,,,,,,,,green,circle
84.0,6.0,2.0,1.0,4.0,4.0,570.9228539781179,1.0,1.0,part_1,,,,,,,,,,,,,green,circle
397.0,8.0,4.0,1.0,2.0,2.0,380.0156619981862,1.0,1.0,part_1,,,,,,,,,,,,,magenta,hexagon
420.0,4.0,4.0,0.0,1.0,1.0,550.8051039942075,1.0,1.0,part_1,,,,,,,,,,,,,gray,cross
27.0,5.0,1.0,1.0,2.0,2.0,493.6832230014261,1.0,1.0,part_1,,,,,,,,,,,,,orange,triangle
56.0,1.0,1.0,0.0,2.0,2.0,396.2518550106324,1.0,1.0,part_1,,,,,,,,,,,,,white,square
0.0,7.0,0.0,1.0,2.0,2.0,442.2971679887268,1.0,1.0,part_1,,,,,,,,,,,,,yellow,I
407.0,8.0,4.0,1.0,1.0,1.0,464.2779870191589,1.0,1.0,part_1,,,,,,,,,,,,,magenta,hexagon
402.0,8.0,4.0,1.0,1.0,1.0,473.4656710061244,1.0,1.0,part_1,,,,,,,,,,,,,magenta,hexagon
384.0,8.0,4.0,1.0,4.0,4.0,452.8061150049325,1.0,1.0,part_1,,,,,,,,,,,,,magenta,hexagon
120.0,2.0,2.0,0.0,3.0,3.0,511.6688440029975,1.0,1.0,part_1,,,,,,,,,,,,,cyan,diamond
79.0,6.0,2.0,1.0,2.0,2.0,399.2540009785443,1.0,1.0,part_1,,,,,,,,,,,,,green,circle
94.0,2.0,2.0,0.0,2.0,2.0,400.1499059959315,1.0,1.0,part_1,,,,,,,,,,,,,cyan,diamond
101.0,6.0,2.0,1.0,1.0,1.0,532.4382079998031,1.0,1.0,part_1,,,,,,,,,,,,,green,circle
0.0,4.0,0.0,0.0,2.0,2.0,377.4634419823997,1.0,1.0,part_1,,,,,,,,,,,,,gray,cross
0.0,7.0,0.0,1.0,2.0,2.0,435.7437340077013,1.0,1.0,part_1,,,,,,,,,,,,,yellow,I
96.0,6.0,2.0,1.0,3.0,3.0,432.3441490123514,1.0,1.0,part_1,,,,,,,,,,,,,green,circle
0.0,3.0,0.0,0.0,2.0,2.0,446.2097710056696,1.0,1.0,part_1,,,,,,,,,,,,,blue,flipped triangle
101.0,2.0,2.0,0.0,3.0,3.0,504.04821601114236,1.0,1.0,part_1,,,,,,,,,,,,,cyan,diamond
27.0,5.0,1.0,1.0,3.0,3.0,436.1853949958458,1.0,1.0,part_1,,,,,,,,,,,,,orange,triangle
46.0,1.0,1.0,0.0,3.0,3.0,446.3658300228417,1.0,1.0,part_1,,,,,,,,,,,,,white,square
390.0,8.0,4.0,1.0,4.0,4.0,480.2558750088792,1.0,1.0,part_1,,,,,,,,,,,,,magenta,hexagon
417.0,4.0,4.0,0.0,3.0,3.0,412.6102059963159,1.0,1.0,part_1,,,,,,,,,,,,,gray,cross
99.0,2.0,2.0,0.0,4.0,4.0,425.5043839802965,1.0,1.0,part_1,,,,,,,,,,,,,cyan,diamond
0.0,8.0,0.0,1.0,4.0,4.0,437.5221719965338,1.0,1.0,part_1,,,,,,,,,,,,,magenta,hexagon
53.0,5.0,1.0,1.0,4.0,4.0,384.6252170042135,1.0,1.0,part_1,,,,,,,,,,,,,orange,triangle
30.0,1.0,1.0,0.0,1.0,1.0,539.424210001016,1.0,1.0,part_1,,,,,,,,,,,,,white,square
115.0,6.0,2.0,1.0,2.0,2.0,438.1091510003898,1.0,1.0,part_1,,,,,,,,,,,,,green,circle
181.0,7.0,3.0,1.0,2.0,2.0,483.1131380051374,1.0,1.0,part_1,,,,,,,,,,,,,yellow,I
42.0,1.0,1.0,0.0,2.0,2.0,397.0644660003017,1.0,1.0,part_1,,,,,,,,,,,,,white,square
33.0,5.0,1.0,1.0,2.0,2.0,476.0865680000279,1.0,1.0,part_1,,,,,,,,,,,,,orange,triangle
107.0,6.0,2.0,1.0,4.0,4.0,455.3511929989327,1.0,1.0,part_1,,,,,,,,,,,,,green,circle
420.0,4.0,4.0,0.0,1.0,1.0,454.3356809881516,1.0,1.0,part_1,,,,,,,,,,,,,gray,cross
416.0,8.0,4.0,1.0,4.0,4.0,420.045625010971,1.0,1.0,part_1,,,,,,,,,,,,,magenta,hexagon
196.0,7.0,3.0,1.0,2.0,2.0,441.9093150063418,1.0,1.0,part_1,,,,,,,,,,,,,yellow,I
176.0,3.0,3.0,0.0,3.0,3.0,397.2794550063554,1.0,1.0,part_1,,,,,,,,,,,,,blue,flipped triangle
375.0,8.0,4.0,1.0,3.0,3.0,399.2648639832623,1.0,1.0,part_1,,,,,,,,,,,,,magenta,hexagon
395.0,4.0,4.0,0.0,4.0,4.0,409.810747980373,1.0,1.0,part_1,,,,,,,,,,,,,gray,cross
0.0,7.0,0.0,1.0,4.0,4.0,421.5850579785183,1.0,1.0,part_1,,,,,,,,,,,,,yellow,I
175.0,7.0,3.0,1.0,2.0,2.0,580.3327079920564,1.0,1.0,part_1,,,,,,,,,,,,,yellow,I
382.0,8.0,4.0,1.0,4.0,4.0,388.7113429955207,1.0,1.0,part_1,,,,,,,,,,,,,magenta,hexagon
88.0,2.0,2.0,0.0,2.0,2.0,391.1841319932136,1.0,1.0,part_1,,,,,,,,,,,,,cyan,diamond
199.0,3.0,3.0,0.0,1.0,1.0,502.8254130156711,1.0,1.0,part_1,,,,,,,,,,,,,blue,flipped triangle
376.0,4.0,4.0,0.0,4.0,4.0,359.3590529926587,1.0,1.0,part_1,,,,,,,,,,,,,gray,cross
210.0,7.0,3.0,1.0,3.0,3.0,516.0395389830228,1.0,1.0,part_1,,,,,,,,,,,,,yellow,I
0.0,8.0,0.0,1.0,4.0,4.0,425.6772499938961,1.0,1.0,part_1,,,,,,,,,,,,,magenta,hexagon
0.0,3.0,0.0,0.0,2.0,2.0,414.6782479947433,1.0,1.0,part_1,,,,,,,,,,,,,blue,flipped triangle
92.0,6.0,2.0,1.0,1.0,1.0,441.3698599964846,1.0,1.0,part_1,,,,,,,,,,,,,green,circle
62.0,5.0,1.0,1.0,4.0,4.0,384.5613149751443,1.0,1.0,part_1,,,,,,,,,,,,,orange,triangle
375.0,4.0,4.0,0.0,2.0,2.0,428.0492879915982,1.0,1.0,part_1,,,,,,,,,,,,,gray,cross
117.0,2.0,2.0,0.0,4.0,4.0,372.4758580210618,1.0,1.0,part_1,,,,,,,,,,,,,cyan,diamond
0.0,1.0,0.0,0.0,1.0,1.0,488.4688739839475,1.0,1.0,part_1,,,,,,,,,,,,,white,square
73.0,1.0,1.0,0.0,4.0,4.0,363.5693739925045,1.0,1.0,part_1,,,,,,,,,,,,,white,square
200.0,7.0,3.0,1.0,1.0,1.0,420.2303510101046,1.0,1.0,part_1,,,,,,,,,,,,,yellow,I
0.0,5.0,0.0,1.0,2.0,2.0,352.4214100034442,1.0,1.0,part_1,,,,,,,,,,,,,orange,triangle
184.0,7.0,3.0,1.0,1.0,1.0,547.149352991255,1.0,1.0,part_1,,,,,,,,,,,,,yellow,I
124.0,2.0,2.0,0.0,1.0,1.0,388.1874899961985,1.0,1.0,part_1,,,,,,,,,,,,,cyan,diamond
395.0,4.0,4.0,0.0,1.0,1.0,386.5194820100441,1.0,1.0,part_1,,,,,,,,,,,,,gray,cross
0.0,8.0,0.0,1.0,3.0,3.0,434.4996720028575,1.0,1.0,part_1,,,,,,,,,,,,,magenta,hexagon
74.0,5.0,1.0,1.0,2.0,2.0,432.5629810045939,1.0,1.0,part_1,,,,,,,,,,,,,orange,triangle
0.0,4.0,0.0,0.0,4.0,4.0,398.4220130078029,2.0,1.0,part_1,,,,,,,,,,,,,gray,cross
385.0,8.0,4.0,1.0,2.0,2.0,355.6558739801403,2.0,1.0,part_1,,,,,,,,,,,,,magenta,hexagon
0.0,5.0,0.0,1.0,4.0,4.0,354.7401289979461,2.0,1.0,part_1,,,,,,,,,,,,,orange,triangle
34.0,1.0,1.0,0.0,1.0,1.0,412.1683789999224,2.0,1.0,part_1,,,,,,,,,,,,,white,square
191.0,3.0,3.0,0.0,4.0,4.0,356.6187230171636,2.0,1.0,part_1,,,,,,,,,,,,,blue,flipped triangle
186.0,3.0,3.0,0.0,1.0,1.0,332.6413489994593,2.0,1.0,part_1,,,,,,,,,,,,,blue,flipped triangle
71.0,1.0,1.0,0.0,3.0,3.0,367.8159819974098,2.0,1.0,part_1,,,,,,,,,,,,,white,square
48.0,5.0,1.0,1.0,2.0,2.0,312.3241320136003,2.0,1.0,part_1,,,,,,,,,,,,,orange,triangle
203.0,3.0,3.0,0.0,1.0,1.0,551.621521008201,2.0,1.0,part_1,,,,,,,,,,,,,blue,flipped triangle
0.0,8.0,0.0,1.0,1.0,1.0,471.2018029822502,2.0,1.0,part_1,,,,,,,,,,,,,magenta,hexagon
87.0,2.0,2.0,0.0,1.0,1.0,436.4391490234993,2.0,1.0,part_1,,,,,,,,,,,,,cyan,diamond
25.0,1.0,1.0,0.0,3.0,3.0,436.8786150007508,2.0,1.0,part_1,,,,,,,,,,,,,white,square
53.0,1.0,1.0,0.0,4.0,4.0,483.6754809948616,2.0,1.0,part_1,,,,,,,,,,,,,white,square
0.0,5.0,0.0,1.0,3.0,3.0,471.838173980359,2.0,1.0,part_1,,,,,,,,,,,,,orange,triangle
89.0,2.0,2.0,0.0,3.0,3.0,483.7229560071137,2.0,1.0,part_1,,,,,,,,,,,,,cyan,diamond
0.0,3.0,0.0,0.0,4.0,4.0,430.366005981341,2.0,1.0,part_1,,,,,,,,,,,,,blue,flipped triangle
113.0,6.0,2.0,1.0,4.0,4.0,474.9661769892555,2.0,1.0,part_1,,,,,,,,,,,,,green,circle
381.0,8.0,4.0,1.0,1.0,1.0,576.3887240027543,2.0,1.0,part_1,,,,,,,,,,,,,magenta,hexagon
60.0,5.0,1.0,1.0,3.0,3.0,432.0271759934257,2.0,1.0,part_1,,,,,,,,,,,,,orange,triangle
195.0,7.0,3.0,1.0,2.0,2.0,364.4284089969005,2.0,1.0,part_1,,,,,,,,,,,,,yellow,I
0.0,8.0,0.0,1.0,4.0,4.0,408.426223002607,2.0,1.0,part_1,,,,,,,,,,,,,magenta,hexagon
119.0,2.0,2.0,0.0,2.0,2.0,399.0701169823296,2.0,1.0,part_1,,,,,,,,,,,,,cyan,diamond
110.0,2.0,2.0,0.0,4.0,4.0,479.9224809976294,2.0,1.0,part_1,,,,,,,,,,,,,cyan,diamond
109.0,2.0,2.0,0.0,4.0,4.0,420.8508119918406,2.0,1.0,part_1,,,,,,,,,,,,,cyan,diamond
382.0,4.0,4.0,0.0,3.0,3.0,412.129589007236,2.0,1.0,part_1,,,,,,,,,,,,,gray,cross
215.0,7.0,3.0,1.0,1.0,1.0,455.2904590091202,2.0,1.0,part_1,,,,,,,,,,,,,yellow,I
66.0,1.0,1.0,0.0,4.0,4.0,412.892683991231,2.0,1.0,part_1,,,,,,,,,,,,,white,square
92.0,2.0,2.0,0.0,1.0,1.0,380.6655230000615,2.0,1.0,part_1,,,,,,,,,,,,,cyan,diamond
56.0,1.0,1.0,0.0,1.0,1.0,483.7013650103472,2.0,1.0,part_1,,,,,,,,,,,,,white,square
407.0,4.0,4.0,0.0,4.0,4.0,468.5109220154118,2.0,1.0,part_1,,,,,,,,,,,,,gray,cross
376.0,8.0,4.0,1.0,1.0,1.0,424.2197989951819,2.0,1.0,part_1,,,,,,,,,,,,,magenta,hexagon
92.0,2.0,2.0,0.0,1.0,1.0,426.4805529965088,2.0,1.0,part_1,,,,,,,,,,,,,cyan,diamond
99.0,6.0,2.0,1.0,4.0,4.0,461.5037199982907,2.0,1.0,part_1,,,,,,,,,,,,,green,circle
417.0,8.0,4.0,1.0,3.0,3.0,419.0492980123963,2.0,1.0,part_1,,,,,,,,,,,,,magenta,hexagon
0.0,2.0,0.0,0.0,1.0,1.0,460.0621010176837,2.0,1.0,part_1,,,,,,,,,,,,,cyan,diamond
111.0,2.0,2.0,0.0,2.0,2.0,372.390557982726,2.0,1.0,part_1,,,,,,,,,,,,,cyan,diamond
214.0,3.0,3.0,0.0,1.0,1.0,475.729495025007,2.0,1.0,part_1,,,,,,,,,,,,,blue,flipped triangle
96.0,6.0,2.0,1.0,1.0,1.0,530.8068319864105,2.0,1.0,part_1,,,,,,,,,,,,,green,circle
94.0,6.0,2.0,1.0,2.0,2.0,363.1349890201818,2.0,1.0,part_1,,,,,,,,,,,,,green,circle
386.0,4.0,4.0,0.0,3.0,3.0,454.385861987248,2.0,1.0,part_1,,,,,,,,,,,,,gray,cross
195.0,7.0,3.0,1.0,4.0,4.0,421.4736229914706,2.0,1.0,part_1,,,,,,,,,,,,,yellow,I
56.0,5.0,1.0,1.0,3.0,3.0,522.1901429758873,2.0,1.0,part_1,,,,,,,,,,,,,orange,triangle
0.0,7.0,0.0,1.0,3.0,3.0,442.2822470078245,2.0,1.0,part_1,,,,,,,,,,,,,yellow,I
95.0,6.0,2.0,1.0,3.0,3.0,409.3328989984002,2.0,1.0,part_1,,,,,,,,,,,,,green,circle
0.0,4.0,0.0,0.0,4.0,4.0,433.3584499836433,2.0,1.0,part_1,,,,,,,,,,,,,gray,cross
111.0,6.0,2.0,1.0,3.0,3.0,387.2414780198596,2.0,1.0,part_1,,,,,,,,,,,,,green,circle
0.0,6.0,0.0,1.0,3.0,3.0,356.8826609989628,2.0,1.0,part_1,,,,,,,,,,,,,green,circle
0.0,5.0,0.0,1.0,1.0,1.0,581.8680460215546,2.0,1.0,part_1,,,,,,,,,,,,,orange,triangle
63.0,5.0,1.0,1.0,3.0,3.0,433.7507780001033,2.0,1.0,part_1,,,,,,,,,,,,,orange,triangle
112.0,2.0,2.0,0.0,4.0,4.0,436.6914689890109,2.0,1.0,part_1,,,,,,,,,,,,,cyan,diamond
87.0,6.0,2.0,1.0,2.0,2.0,415.4886179894674,2.0,1.0,part_1,,,,,,,,,,,,,green,circle
398.0,4.0,4.0,0.0,4.0,4.0,436.422753991792,2.0,1.0,part_1,,,,,,,,,,,,,gray,cross
209.0,3.0,3.0,0.0,2.0,2.0,405.6506399938371,2.0,1.0,part_1,,,,,,,,,,,,,blue,flipped triangle
99.0,6.0,2.0,1.0,2.0,2.0,395.3602490073535,2.0,1.0,part_1,,,,,,,,,,,,,green,circle
110.0,6.0,2.0,1.0,4.0,4.0,416.0789660236332,2.0,1.0,part_1,,,,,,,,,,,,,green,circle
62.0,1.0,1.0,0.0,2.0,2.0,438.4945529745891,2.0,1.0,part_1,,,,,,,,,,,,,white,square
407.0,4.0,4.0,0.0,2.0,2.0,382.3140629974659,2.0,1.0,part_1,,,,,,,,,,,,,gray,cross
79.0,2.0,2.0,0.0,3.0,3.0,417.3204800172243,2.0,1.0,part_1,,,,,,,,,,,,,cyan,diamond
79.0,6.0,2.0,1.0,2.0,2.0,461.5340449963696,2.0,1.0,part_1,,,,,,,,,,,,,green,circle
108.0,2.0,2.0,0.0,2.0,2.0,451.5292270225473,2.0,1.0,part_1,,,,,,,,,,,,,cyan,diamond
224.0,7.0,3.0,1.0,2.0,2.0,375.2228700031992,2.0,1.0,part_1,,,,,,,,,,,,,yellow,I
0.0,7.0,0.0,1.0,4.0,4.0,417.755656002555,2.0,1.0,part_1,,,,,,,,,,,,,yellow,I
0.0,3.0,0.0,0.0,3.0,3.0,317.4486939969938,2.0,1.0,part_1,,,,,,,,,,,,,blue,flipped triangle
40.0,5.0,1.0,1.0,3.0,3.0,352.1601679967716,2.0,1.0,part_1,,,,,,,,,,,,,orange,triangle
410.0,8.0,4.0,1.0,1.0,1.0,476.380150008481,2.0,1.0,part_1,,,,,,,,,,,,,magenta,hexagon
35.0,1.0,1.0,0.0,3.0,3.0,400.4884309833869,2.0,1.0,part_1,,,,,,,,,,,,,white,square
195.0,3.0,3.0,0.0,4.0,4.0,434.8974220047239,2.0,1.0,part_1,,,,,,,,,,,,,blue,flipped triangle
28.0,5.0,1.0,1.0,3.0,3.0,446.3653970160521,2.0,1.0,part_1,,,,,,,,,,,,,orange,triangle
120.0,6.0,2.0,1.0,4.0,4.0,390.0269029836636,2.0,1.0,part_1,,,,,,,,,,,,,green,circle
0.0,1.0,0.0,0.0,4.0,4.0,392.7234400180168,2.0,1.0,part_1,,,,,,,,,,,,,white,square
68.0,5.0,1.0,1.0,1.0,1.0,527.0490589900874,2.0,1.0,part_1,,,,,,,,,,,,,orange,triangle
0.0,3.0,0.0,0.0,3.0,3.0,390.0263690156862,2.0,1.0,part_1,,,,,,,,,,,,,blue,flipped triangle
0.0,6.0,0.0,1.0,4.0,4.0,436.9623929960653,2.0,1.0,part_1,,,,,,,,,,,,,green,circle
217.0,3.0,3.0,0.0,2.0,2.0,540.7760870002676,2.0,1.0,part_1,,,,,,,,,,,,,blue,flipped triangle
0.0,1.0,0.0,0.0,2.0,2.0,428.1388479867019,2.0,1.0,part_1,,,,,,,,,,,,,white,square
94.0,2.0,2.0,0.0,2.0,2.0,369.2580649803858,2.0,1.0,part_1,,,,,,,,,,,,,cyan,diamond
84.0,2.0,2.0,0.0,1.0,1.0,441.0227820044383,2.0,1.0,part_1,,,,,,,,,,,,,cyan,diamond
195.0,3.0,3.0,0.0,3.0,3.0,453.0862259853165,2.0,1.0,part_1,,,,,,,,,,,,,blue,flipped triangle
0.0,7.0,0.0,1.0,1.0,1.0,607.2187079989817,2.0,1.0,part_1,,,,,,,,,,,,,yellow,I
108.0,6.0,2.0,1.0,4.0,4.0,427.8871150163468,2.0,1.0,part_1,,,,,,,,,,,,,green,circle
0.0,1.0,0.0,0.0,1.0,1.0,562.7511649799999,2.0,1.0,part_1,,,,,,,,,,,,,white,square
69.0,5.0,1.0,1.0,4.0,4.0,407.0445910037961,2.0,1.0,part_1,,,,,,,,,,,,,orange,triangle
0.0,6.0,0.0,1.0,4.0,4.0,351.2639210093766,2.0,1.0,part_1,,,,,,,,,,,,,green,circle
381.0,8.0,4.0,1.0,2.0,2.0,452.0709179923869,2.0,1.0,part_1,,,,,,,,,,,,,magenta,hexagon
0.0,8.0,0.0,1.0,1.0,1.0,432.4711700028274,2.0,1.0,part_1,,,,,,,,,,,,,magenta,hexagon
0.0,4.0,0.0,0.0,2.0,2.0,389.74981600767927,2.0,1.0,part_1,,,,,,,,,,,,,gray,cross
81.0,6.0,2.0,1.0,2.0,2.0,422.7812770113814,2.0,1.0,part_1,,,,,,,,,,,,,green,circle
413.0,8.0,4.0,1.0,2.0,2.0,365.4322160000447,2.0,1.0,part_1,,,,,,,,,,,,,magenta,hexagon
421.0,8.0,4.0,1.0,2.0,2.0,342.3458300239872,2.0,1.0,part_1,,,,,,,,,,,,,magenta,hexagon
0.0,8.0,0.0,1.0,1.0,1.0,579.3662270007189,2.0,1.0,part_1,,,,,,,,,,,,,magenta,hexagon
0.0,2.0,0.0,0.0,4.0,4.0,410.6892769923433,2.0,1.0,part_1,,,,,,,,,,,,,cyan,diamond
40.0,5.0,1.0,1.0,2.0,2.0,424.6624099905602,2.0,1.0,part_1,,,,,,,,,,,,,orange,triangle
0.0,5.0,0.0,1.0,3.0,3.0,436.8693139986135,2.0,1.0,part_1,,,,,,,,,,,,,orange,triangle
407.0,4.0,4.0,0.0,2.0,2.0,380.9849329991266,2.0,1.0,part_1,,,,,,,,,,,,,gray,cross
79.0,2.0,2.0,0.0,2.0,2.0,334.5791200117674,2.0,1.0,part_1,,,,,,,,,,,,,cyan,diamond
390.0,4.0,4.0,0.0,1.0,1.0,427.4161979847122,2.0,1.0,part_1,,,,,,,,,,,,,gray,cross
70.0,5.0,1.0,1.0,3.0,3.0,427.6015440118499,2.0,1.0,part_1,,,,,,,,,,,,,orange,triangle
33.0,5.0,1.0,1.0,4.0,4.0,427.4725839786697,2.0,1.0,part_1,,,,,,,,,,,,,orange,triangle
0.0,5.0,0.0,1.0,1.0,1.0,675.0308779883198,2.0,1.0,part_1,,,,,,,,,,,,,orange,triangle
420.0,8.0,4.0,1.0,4.0,4.0,418.8496739952825,2.0,1.0,part_1,,,,,,,,,,,,,magenta,hexagon
407.0,8.0,4.0,1.0,1.0,1.0,381.5764790051617,3.0,1.0,part_1,,,,,,,,,,,,,magenta,hexagon
113.0,2.0,2.0,0.0,4.0,4.0,363.0176869919523,3.0,1.0,part_1,,,,,,,,,,,,,cyan,diamond
0.0,1.0,0.0,0.0,2.0,2.0,293.0869779956992,3.0,1.0,part_1,,,,,,,,,,,,,white,square
0.0,1.0,0.0,0.0,3.0,3.0,349.1424749954603,3.0,1.0,part_1,,,,,,,,,,,,,white,square
115.0,2.0,2.0,0.0,3.0,3.0,395.2751120086759,3.0,1.0,part_1,,,,,,,,,,,,,cyan,diamond
195.0,7.0,3.0,1.0,3.0,3.0,384.4562199956272,3.0,1.0,part_1,,,,,,,,,,,,,yellow,I
379.0,8.0,4.0,1.0,2.0,2.0,364.1416439786553,3.0,1.0,part_1,,,,,,,,,,,,,magenta,hexagon
0.0,8.0,0.0,1.0,2.0,2.0,374.6022620180156,3.0,1.0,part_1,,,,,,,,,,,,,magenta,hexagon
397.0,4.0,4.0,0.0,2.0,2.0,341.5790110011585,3.0,1.0,part_1,,,,,,,,,,,,,gray,cross
407.0,4.0,4.0,0.0,3.0,3.0,420.0015480164438,3.0,1.0,part_1,,,,,,,,,,,,,gray,cross
80.0,6.0,2.0,1.0,1.0,1.0,422.8755130025092,3.0,1.0,part_1,,,,,,,,,,,,,green,circle
63.0,1.0,1.0,0.0,1.0,1.0,400.8045509981457,3.0,1.0,part_1,,,,,,,,,,,,,white,square
124.0,2.0,2.0,0.0,1.0,1.0,354.6366459922865,3.0,1.0,part_1,,,,,,,,,,,,,cyan,diamond
395.0,8.0,4.0,1.0,3.0,3.0,436.2442609854042,3.0,1.0,part_1,,,,,,,,,,,,,magenta,hexagon
107.0,2.0,2.0,0.0,2.0,2.0,379.1177740204148,3.0,1.0,part_1,,,,,,,,,,,,,cyan,diamond
189.0,7.0,3.0,1.0,3.0,3.0,399.8123159981332,3.0,1.0,part_1,,,,,,,,,,,,,yellow,I
219.0,7.0,3.0,1.0,1.0,1.0,380.3639670077245,3.0,1.0,part_1,,,,,,,,,,,,,yellow,I
50.0,5.0,1.0,1.0,2.0,2.0,457.7010890061501,3.0,1.0,part_1,,,,,,,,,,,,,orange,triangle
57.0,5.0,1.0,1.0,4.0,4.0,493.3406669879332,3.0,1.0,part_1,,,,,,,,,,,,,orange,triangle
0.0,7.0,0.0,1.0,2.0,2.0,336.6591810190584,3.0,1.0,part_1,,,,,,,,,,,,,yellow,I
40.0,5.0,1.0,1.0,2.0,2.0,450.5689429934136,3.0,1.0,part_1,,,,,,,,,,,,,orange,triangle
99.0,2.0,2.0,0.0,4.0,4.0,462.6399459957611,3.0,1.0,part_1,,,,,,,,,,,,,cyan,diamond
34.0,5.0,1.0,1.0,4.0,4.0,416.3208870158996,3.0,1.0,part_1,,,,,,,,,,,,,orange,triangle
54.0,1.0,1.0,0.0,2.0,2.0,427.3225700017065,3.0,1.0,part_1,,,,,,,,,,,,,white,square
381.0,4.0,4.0,0.0,1.0,1.0,475.641569995787,3.0,1.0,part_1,,,,,,,,,,,,,gray,cross
64.0,1.0,1.0,0.0,3.0,3.0,372.1271670074202,3.0,1.0,part_1,,,,,,,,,,,,,white,square
98.0,2.0,2.0,0.0,3.0,3.0,510.3185700136237,3.0,1.0,part_1,,,,,,,,,,,,,cyan,diamond
420.0,8.0,4.0,1.0,1.0,1.0,509.0783509949688,3.0,1.0,part_1,,,,,,,,,,,,,magenta,hexagon
196.0,3.0,3.0,0.0,3.0,3.0,384.3949319852981,3.0,1.0,part_1,,,,,,,,,,,,,blue,flipped triangle
56.0,5.0,1.0,1.0,4.0,4.0,429.9254750076215,3.0,1.0,part_1,,,,,,,,,,,,,orange,triangle
420.0,8.0,4.0,1.0,4.0,4.0,432.1106409770436,3.0,1.0,part_1,,,,,,,,,,,,,magenta,hexagon
0.0,6.0,0.0,1.0,3.0,3.0,431.2892179877963,3.0,1.0,part_1,,,,,,,,,,,,,green,circle
387.0,4.0,4.0,0.0,2.0,2.0,364.9454310070723,3.0,1.0,part_1,,,,,,,,,,,,,gray,cross
0.0,5.0,0.0,1.0,2.0,2.0,365.054309979314,3.0,1.0,part_1,,,,,,,,,,,,,orange,triangle
123.0,2.0,2.0,0.0,4.0,4.0,490.9601350082084,3.0,1.0,part_1,,,,,,,,,,,,,cyan,diamond
48.0,1.0,1.0,0.0,2.0,2.0,320.4740599903743,3.0,1.0,part_1,,,,,,,,,,,,,white,square
0.0,2.0,0.0,0.0,4.0,4.0,460.1022910210304,3.0,1.0,part_1,,,,,,,,,,,,,cyan,diamond
0.0,4.0,0.0,0.0,4.0,4.0,388.8708599843085,3.0,1.0,part_1,,,,,,,,,,,,,gray,cross
390.0,4.0,4.0,0.0,3.0,3.0,468.739395000739,3.0,1.0,part_1,,,,,,,,,,,,,gray,cross
0.0,6.0,0.0,1.0,1.0,1.0,493.4610039927065,3.0,1.0,part_1,,,,,,,,,,,,,green,circle
184.0,3.0,3.0,0.0,2.0,2.0,392.3771519912407,3.0,1.0,part_1,,,,,,,,,,,,,blue,flipped triangle
198.0,7.0,3.0,1.0,3.0,3.0,427.5354789861012,3.0,1.0,part_1,,,,,,,,,,,,,yellow,I
201.0,7.0,3.0,1.0,4.0,4.0,370.272335014306,3.0,1.0,part_1,,,,,,,,,,,,,yellow,I
422.0,4.0,4.0,0.0,4.0,4.0,416.1326749890577,3.0,1.0,part_1,,,,,,,,,,,,,gray,cross
419.0,8.0,4.0,1.0,3.0,3.0,404.0491679916158,3.0,1.0,part_1,,,,,,,,,,,,,magenta,hexagon
376.0,4.0,4.0,0.0,2.0,2.0,471.8795850058086,3.0,1.0,part_1,,,,,,,,,,,,,gray,cross
381.0,4.0,4.0,0.0,2.0,2.0,406.985595007427,3.0,1.0,part_1,,,,,,,,,,,,,gray,cross
65.0,5.0,1.0,1.0,2.0,2.0,350.9744759940076,3.0,1.0,part_1,,,,,,,,,,,,,orange,triangle
36.0,5.0,1.0,1.0,3.0,3.0,429.685345996404,3.0,1.0,part_1,,,,,,,,,,,,,orange,triangle
33.0,1.0,1.0,0.0,2.0,2.0,442.9547439794987,3.0,1.0,part_1,,,,,,,,,,,,,white,square
220.0,3.0,3.0,0.0,4.0,4.0,543.8096319849137,3.0,1.0,part_1,,,,,,,,,,,,,blue,flipped triangle
76.0,6.0,2.0,1.0,2.0,2.0,341.5063029970042,3.0,1.0,part_1,,,,,,,,,,,,,green,circle
37.0,5.0,1.0,1.0,1.0,1.0,430.7682320068124,3.0,1.0,part_1,,,,,,,,,,,,,orange,triangle
186.0,7.0,3.0,1.0,1.0,1.0,366.9299329922069,3.0,1.0,part_1,,,,,,,,,,,,,yellow,I
182.0,7.0,3.0,1.0,4.0,4.0,432.1743920154404,3.0,1.0,part_1,,,,,,,,,,,,,yellow,I
60.0,1.0,1.0,0.0,4.0,4.0,391.2866459868382,3.0,1.0,part_1,,,,,,,,,,,,,white,square
40.0,1.0,1.0,0.0,4.0,4.0,410.5330969905481,3.0,1.0,part_1,,,,,,,,,,,,,white,square
66.0,1.0,1.0,0.0,3.0,3.0,399.6029120171442,3.0,1.0,part_1,,,,,,,,,,,,,white,square
64.0,5.0,1.0,1.0,1.0,1.0,388.635807990795,3.0,1.0,part_1,,,,,,,,,,,,,orange,triangle
192.0,7.0,3.0,1.0,3.0,3.0,359.1333880031016,3.0,1.0,part_1,,,,,,,,,,,,,yellow,I
0.0,4.0,0.0,0.0,3.0,3.0,424.7495209856424,3.0,1.0,part_1,,,,,,,,,,,,,gray,cross
411.0,4.0,4.0,0.0,1.0,1.0,483.2482280035037,3.0,1.0,part_1,,,,,,,,,,,,,gray,cross
214.0,7.0,3.0,1.0,2.0,2.0,357.5063400203362,3.0,1.0,part_1,,,,,,,,,,,,,yellow,I
0.0,2.0,0.0,0.0,3.0,3.0,506.50404699263163,3.0,1.0,part_1,,,,,,,,,,,,,cyan,diamond
90.0,2.0,2.0,0.0,3.0,3.0,373.6615129746496,3.0,1.0,part_1,,,,,,,,,,,,,cyan,diamond
191.0,7.0,3.0,1.0,1.0,1.0,428.9115059946198,3.0,1.0,part_1,,,,,,,,,,,,,yellow,I
424.0,8.0,4.0,1.0,3.0,3.0,337.1524960093666,3.0,1.0,part_1,,,,,,,,,,,,,magenta,hexagon
201.0,3.0,3.0,0.0,4.0,4.0,440.7929980079643,3.0,1.0,part_1,,,,,,,,,,,,,blue,flipped triangle
85.0,2.0,2.0,0.0,3.0,3.0,338.5147200024221,3.0,1.0,part_1,,,,,,,,,,,,,cyan,diamond
384.0,4.0,4.0,0.0,3.0,3.0,376.0848280217033,3.0,1.0,part_1,,,,,,,,,,,,,gray,cross
421.0,4.0,4.0,0.0,4.0,4.0,420.2168289921246,3.0,1.0,part_1,,,,,,,,,,,,,gray,cross
201.0,7.0,3.0,1.0,1.0,1.0,476.5366589999757,3.0,1.0,part_1,,,,,,,,,,,,,yellow,I
95.0,2.0,2.0,0.0,1.0,1.0,409.865316003561,3.0,1.0,part_1,,,,,,,,,,,,,cyan,diamond
220.0,7.0,3.0,1.0,4.0,4.0,442.8091779991518,3.0,1.0,part_1,,,,,,,,,,,,,yellow,I
190.0,7.0,3.0,1.0,4.0,4.0,376.133973011747,3.0,1.0,part_1,,,,,,,,,,,,,yellow,I
206.0,7.0,3.0,1.0,2.0,2.0,454.5143140130676,3.0,1.0,part_1,,,,,,,,,,,,,yellow,I
30.0,5.0,1.0,1.0,4.0,4.0,387.1937240182888,3.0,1.0,part_1,,,,,,,,,,,,,orange,triangle
111.0,2.0,2.0,0.0,3.0,3.0,410.8558009902481,3.0,1.0,part_1,,,,,,,,,,,,,cyan,diamond
383.0,4.0,4.0,0.0,2.0,2.0,447.0224029792007,3.0,1.0,part_1,,,,,,,,,,,,,gray,cross
419.0,4.0,4.0,0.0,4.0,4.0,415.3542320127599,3.0,1.0,part_1,,,,,,,,,,,,,gray,cross
40.0,1.0,1.0,0.0,1.0,1.0,480.2560879907105,3.0,1.0,part_1,,,,,,,,,,,,,white,square
111.0,6.0,2.0,1.0,3.0,3.0,378.712848003488,3.0,1.0,part_1,,,,,,,,,,,,,green,circle
54.0,5.0,1.0,1.0,1.0,1.0,446.4555120212026,3.0,1.0,part_1,,,,,,,,,,,,,orange,triangle
178.0,7.0,3.0,1.0,4.0,4.0,392.2543169755954,3.0,1.0,part_1,,,,,,,,,,,,,yellow,I
66.0,5.0,1.0,1.0,1.0,1.0,392.5314700172748,3.0,1.0,part_1,,,,,,,,,,,,,orange,triangle
68.0,1.0,1.0,0.0,3.0,3.0,372.7937590156216,3.0,1.0,part_1,,,,,,,,,,,,,white,square
407.0,4.0,4.0,0.0,4.0,4.0,430.4590399842709,3.0,1.0,part_1,,,,,,,,,,,,,gray,cross
0.0,3.0,0.0,0.0,4.0,4.0,337.2808189888019,3.0,1.0,part_1,,,,,,,,,,,,,blue,flipped triangle
0.0,1.0,0.0,0.0,2.0,2.0,641.5426709863823,3.0,1.0,part_1,,,,,,,,,,,,,white,square
0.0,6.0,0.0,1.0,3.0,3.0,363.1378260033671,3.0,1.0,part_1,,,,,,,,,,,,,green,circle
0.0,8.0,0.0,1.0,2.0,2.0,477.2273119888268,3.0,1.0,part_1,,,,,,,,,,,,,magenta,hexagon
96.0,2.0,2.0,0.0,1.0,1.0,441.1093860107939,3.0,1.0,part_1,,,,,,,,,,,,,cyan,diamond
27.0,1.0,1.0,0.0,3.0,3.0,377.044263004791,3.0,1.0,part_1,,,,,,,,,,,,,white,square
198.0,3.0,3.0,0.0,4.0,4.0,363.1930580013431,3.0,1.0,part_1,,,,,,,,,,,,,blue,flipped triangle
0.0,7.0,0.0,1.0,3.0,3.0,419.9827999982517,3.0,1.0,part_1,,,,,,,,,,,,,yellow,I
0.0,7.0,0.0,1.0,3.0,3.0,377.9219940188341,3.0,1.0,part_1,,,,,,,,,,,,,yellow,I
88.0,6.0,2.0,1.0,1.0,1.0,378.7797090189997,3.0,1.0,part_1,,,,,,,,,,,,,green,circle
205.0,7.0,3.0,1.0,2.0,2.0,455.5532059748657,3.0,1.0,part_1,,,,,,,,,,,,,yellow,I
0.0,2.0,0.0,0.0,3.0,3.0,401.1532299919054,3.0,1.0,part_1,,,,,,,,,,,,,cyan,diamond
420.0,4.0,4.0,0.0,3.0,3.0,524.1306390089449,3.0,1.0,part_1,,,,,,,,,,,,,gray,cross
407.0,8.0,4.0,1.0,4.0,4.0,447.0095360011328,4.0,1.0,part_1,,,,,,,,,,,,,magenta,hexagon
0.0,4.0,0.0,0.0,4.0,4.0,390.5431650055107,4.0,1.0,part_1,,,,,,,,,,,,,gray,cross
0.0,7.0,0.0,1.0,3.0,3.0,372.2008899785578,4.0,1.0,part_1,,,,,,,,,,,,,yellow,I
74.0,1.0,1.0,0.0,4.0,4.0,369.0448790148366,4.0,1.0,part_1,,,,,,,,,,,,,white,square
25.0,5.0,1.0,1.0,4.0,4.0,373.588310991181,4.0,1.0,part_1,,,,,,,,,,,,,orange,triangle
71.0,5.0,1.0,1.0,4.0,4.0,313.5641849949024,4.0,1.0,part_1,,,,,,,,,,,,,orange,triangle
0.0,2.0,0.0,0.0,4.0,4.0,471.9211870105937,4.0,1.0,part_1,,,,,,,,,,,,,cyan,diamond
395.0,8.0,4.0,1.0,2.0,2.0,362.3383789963554,4.0,1.0,part_1,,,,,,,,,,,,,magenta,hexagon
30.0,1.0,1.0,0.0,4.0,4.0,450.626784004271,4.0,1.0,part_1,,,,,,,,,,,,,white,square
211.0,7.0,3.0,1.0,2.0,2.0,361.266666004667,4.0,1.0,part_1,,,,,,,,,,,,,yellow,I
390.0,8.0,4.0,1.0,3.0,3.0,487.6985230075661,4.0,1.0,part_1,,,,,,,,,,,,,magenta,hexagon
96.0,2.0,2.0,0.0,2.0,2.0,440.9045640204567,4.0,1.0,part_1,,,,,,,,,,,,,cyan,diamond
33.0,1.0,1.0,0.0,4.0,4.0,329.4190099986736,4.0,1.0,part_1,,,,,,,,,,,,,white,square
35.0,5.0,1.0,1.0,3.0,3.0,318.0383059952874,4.0,1.0,part_1,,,,,,,,,,,,,orange,triangle
413.0,4.0,4.0,0.0,3.0,3.0,408.8201699778437,4.0,1.0,part_1,,,,,,,,,,,,,gray,cross
193.0,3.0,3.0,0.0,1.0,1.0,454.4733949878718,4.0,1.0,part_1,,,,,,,,,,,,,blue,flipped triangle
199.0,7.0,3.0,1.0,3.0,3.0,333.3663159864954,4.0,1.0,part_1,,,,,,,,,,,,,yellow,I
177.0,3.0,3.0,0.0,4.0,4.0,346.9321860175114,4.0,1.0,part_1,,,,,,,,,,,,,blue,flipped triangle
0.0,3.0,0.0,0.0,3.0,3.0,321.3882219861261,4.0,1.0,part_1,,,,,,,,,,,,,blue,flipped triangle
202.0,7.0,3.0,1.0,4.0,4.0,322.0851789810695,4.0,1.0,part_1,,,,,,,,,,,,,yellow,I
40.0,1.0,1.0,0.0,2.0,2.0,436.1274370166939,4.0,1.0,part_1,,,,,,,,,,,,,white,square
0.0,5.0,0.0,1.0,1.0,1.0,414.7661680181045,4.0,1.0,part_1,,,,,,,,,,,,,orange,triangle
120.0,6.0,2.0,1.0,4.0,4.0,470.7541280076839,4.0,1.0,part_1,,,,,,,,,,,,,green,circle
385.0,4.0,4.0,0.0,2.0,2.0,314.8780470073689,4.0,1.0,part_1,,,,,,,,,,,,,gray,cross
0.0,4.0,0.0,0.0,3.0,3.0,518.0118329881225,4.0,1.0,part_1,,,,,,,,,,,,,gray,cross
221.0,7.0,3.0,1.0,3.0,3.0,313.3900700195227,4.0,1.0,part_1,,,,,,,,,,,,,yellow,I
76.0,2.0,2.0,0.0,3.0,3.0,293.244414991932,4.0,1.0,part_1,,,,,,,,,,,,,cyan,diamond
124.0,6.0,2.0,1.0,1.0,1.0,437.8428510099184,4.0,1.0,part_1,,,,,,,,,,,,,green,circle
80.0,2.0,2.0,0.0,1.0,1.0,404.6537860122043,4.0,1.0,part_1,,,,,,,,,,,,,cyan,diamond
413.0,4.0,4.0,0.0,1.0,1.0,460.9154170029796,4.0,1.0,part_1,,,,,,,,,,,,,gray,cross
92.0,6.0,2.0,1.0,2.0,2.0,330.9844330069609,4.0,1.0,part_1,,,,,,,,,,,,,green,circle
201.0,3.0,3.0,0.0,2.0,2.0,364.8419629898853,4.0,1.0,part_1,,,,,,,,,,,,,blue,flipped triangle
196.0,3.0,3.0,0.0,1.0,1.0,351.7249510041438,4.0,1.0,part_1,,,,,,,,,,,,,blue,flipped triangle
215.0,3.0,3.0,0.0,2.0,2.0,328.7945760239381,4.0,1.0,part_1,,,,,,,,,,,,,blue,flipped triangle
190.0,3.0,3.0,0.0,2.0,2.0,331.8395660025999,4.0,1.0,part_1,,,,,,,,,,,,,blue,flipped triangle
200.0,3.0,3.0,0.0,4.0,4.0,410.9976949985139,4.0,1.0,part_1,,,,,,,,,,,,,blue,flipped triangle
65.0,1.0,1.0,0.0,1.0,1.0,408.9560010179411,4.0,1.0,part_1,,,,,,,,,,,,,white,square
119.0,6.0,2.0,1.0,1.0,1.0,443.4748500061687,4.0,1.0,part_1,,,,,,,,,,,,,green,circle
386.0,8.0,4.0,1.0,3.0,3.0,493.0695260118227,4.0,1.0,part_1,,,,,,,,,,,,,magenta,hexagon
71.0,5.0,1.0,1.0,1.0,1.0,356.1112970055546,4.0,1.0,part_1,,,,,,,,,,,,,orange,triangle
0.0,6.0,0.0,1.0,4.0,4.0,320.5011150275823,4.0,1.0,part_1,,,,,,,,,,,,,green,circle
196.0,7.0,3.0,1.0,1.0,1.0,412.2772850096226,4.0,1.0,part_1,,,,,,,,,,,,,yellow,I
0.0,1.0,0.0,0.0,4.0,4.0,359.9023709830362,4.0,1.0,part_1,,,,,,,,,,,,,white,square
0.0,8.0,0.0,1.0,1.0,1.0,379.56143199699,4.0,1.0,part_1,,,,,,,,,,,,,magenta,hexagon
66.0,5.0,1.0,1.0,1.0,1.0,425.4746939986944,4.0,1.0,part_1,,,,,,,,,,,,,orange,triangle
224.0,3.0,3.0,0.0,3.0,3.0,402.3443289916031,4.0,1.0,part_1,,,,,,,,,,,,,blue,flipped triangle
120.0,2.0,2.0,0.0,4.0,4.0,338.0042469943873,4.0,1.0,part_1,,,,,,,,,,,,,cyan,diamond
89.0,6.0,2.0,1.0,3.0,3.0,429.5191939745564,4.0,1.0,part_1,,,,,,,,,,,,,green,circle
195.0,3.0,3.0,0.0,1.0,1.0,448.4820020152256,4.0,1.0,part_1,,,,,,,,,,,,,blue,flipped triangle
0.0,6.0,0.0,1.0,4.0,4.0,363.2604629965499,4.0,1.0,part_1,,,,,,,,,,,,,green,circle
175.0,3.0,3.0,0.0,4.0,4.0,361.677236011019,4.0,1.0,part_1,,,,,,,,,,,,,blue,flipped triangle
379.0,4.0,4.0,0.0,4.0,4.0,338.43011900899,4.0,1.0,part_1,,,,,,,,,,,,,gray,cross
219.0,3.0,3.0,0.0,3.0,3.0,408.0737170006614,4.0,1.0,part_1,,,,,,,,,,,,,blue,flipped triangle
57.0,1.0,1.0,0.0,3.0,3.0,361.5778860112186,4.0,1.0,part_1,,,,,,,,,,,,,white,square
0.0,1.0,0.0,0.0,2.0,2.0,376.027605991112,4.0,1.0,part_1,,,,,,,,,,,,,white,square
223.0,3.0,3.0,0.0,3.0,3.0,317.6711009873543,4.0,1.0,part_1,,,,,,,,,,,,,blue,flipped triangle
0.0,6.0,0.0,1.0,3.0,3.0,329.6045259921811,4.0,1.0,part_1,,,,,,,,,,,,,green,circle
80.0,6.0,2.0,1.0,4.0,4.0,355.208962020697,4.0,1.0,part_1,,,,,,,,,,,,,green,circle
411.0,8.0,4.0,1.0,2.0,2.0,444.8042910080403,4.0,1.0,part_1,,,,,,,,,,,,,magenta,hexagon
80.0,2.0,2.0,0.0,1.0,1.0,364.8202620097436,4.0,1.0,part_1,,,,,,,,,,,,,cyan,diamond
403.0,4.0,4.0,0.0,4.0,4.0,402.8741410002112,4.0,1.0,part_1,,,,,,,,,,,,,gray,cross
0.0,3.0,0.0,0.0,2.0,2.0,355.2748170041013,4.0,1.0,part_1,,,,,,,,,,,,,blue,flipped triangle
416.0,4.0,4.0,0.0,1.0,1.0,345.086932007689,4.0,1.0,part_1,,,,,,,,,,,,,gray,cross
0.0,2.0,0.0,0.0,4.0,4.0,400.6909049930982,4.0,1.0,part_1,,,,,,,,,,,,,cyan,diamond
0.0,6.0,0.0,1.0,4.0,4.0,356.9635940075386,4.0,1.0,part_1,,,,,,,,,,,,,green,circle
124.0,6.0,2.0,1.0,3.0,3.0,379.0236479835585,4.0,1.0,part_1,,,,,,,,,,,,,green,circle
37.0,1.0,1.0,0.0,2.0,2.0,383.234409004217,4.0,1.0,part_1,,,,,,,,,,,,,white,square
112.0,6.0,2.0,1.0,3.0,3.0,403.8123759964946,4.0,1.0,part_1,,,,,,,,,,,,,green,circle
117.0,6.0,2.0,1.0,2.0,2.0,360.0579589838162,4.0,1.0,part_1,,,,,,,,,,,,,green,circle
81.0,2.0,2.0,0.0,2.0,2.0,361.9727409968618,4.0,1.0,part_1,,,,,,,,,,,,,cyan,diamond
398.0,8.0,4.0,1.0,1.0,1.0,460.3441910003312,4.0,1.0,part_1,,,,,,,,,,,,,magenta,hexagon
223.0,7.0,3.0,1.0,1.0,1.0,382.1216030046344,4.0,1.0,part_1,,,,,,,,,,,,,yellow,I
205.0,3.0,3.0,0.0,1.0,1.0,383.1866279942915,4.0,1.0,part_1,,,,,,,,,,,,,blue,flipped triangle
376.0,8.0,4.0,1.0,3.0,3.0,418.2243889954407,4.0,1.0,part_1,,,,,,,,,,,,,magenta,hexagon
94.0,6.0,2.0,1.0,1.0,1.0,375.0557979801669,4.0,1.0,part_1,,,,,,,,,,,,,green,circle
383.0,8.0,4.0,1.0,4.0,4.0,373.5272850026376,4.0,1.0,part_1,,,,,,,,,,,,,magenta,hexagon
202.0,3.0,3.0,0.0,3.0,3.0,455.3228619915899,4.0,1.0,part_1,,,,,,,,,,,,,blue,flipped triangle
0.0,2.0,0.0,0.0,4.0,4.0,341.0264549893327,4.0,1.0,part_1,,,,,,,,,,,,,cyan,diamond
403.0,8.0,4.0,1.0,3.0,3.0,365.9428850223776,4.0,1.0,part_1,,,,,,,,,,,,,magenta,hexagon
106.0,2.0,2.0,0.0,4.0,4.0,353.1858559872489,4.0,1.0,part_1,,,,,,,,,,,,,cyan,diamond
0.0,3.0,0.0,0.0,4.0,4.0,321.4607810077723,4.0,1.0,part_1,,,,,,,,,,,,,blue,flipped triangle
189.0,3.0,3.0,0.0,3.0,3.0,391.5208950056694,4.0,1.0,part_1,,,,,,,,,,,,,blue,flipped triangle
402.0,4.0,4.0,0.0,1.0,1.0,481.93553899182,4.0,1.0,part_1,,,,,,,,,,,,,gray,cross
0.0,5.0,0.0,1.0,1.0,1.0,356.5207899955567,4.0,1.0,part_1,,,,,,,,,,,,,orange,triangle
214.0,7.0,3.0,1.0,2.0,2.0,369.6196579840034,4.0,1.0,part_1,,,,,,,,,,,,,yellow,I
98.0,6.0,2.0,1.0,4.0,4.0,446.0103070014156,4.0,1.0,part_1,,,,,,,,,,,,,green,circle
422.0,8.0,4.0,1.0,1.0,1.0,390.2226919890381,4.0,1.0,part_1,,,,,,,,,,,,,magenta,hexagon
413.0,8.0,4.0,1.0,3.0,3.0,335.99913699436,4.0,1.0,part_1,,,,,,,,,,,,,magenta,hexagon
407.0,8.0,4.0,1.0,4.0,4.0,362.5125859980471,4.0,2.0,part_1,,,,,,,,,,,,,magenta,hexagon
176.0,7.0,3.0,1.0,4.0,4.0,438.1365750159602,4.0,1.0,part_1,,,,,,,,,,,,,yellow,I
28.0,1.0,1.0,0.0,1.0,1.0,486.3235339871607,4.0,1.0,part_1,,,,,,,,,,,,,white,square
106.0,6.0,2.0,1.0,1.0,1.0,453.479507996235,4.0,1.0,part_1,,,,,,,,,,,,,green,circle
209.0,7.0,3.0,1.0,3.0,3.0,374.8467339901253,4.0,1.0,part_1,,,,,,,,,,,,,yellow,I
90.0,6.0,2.0,1.0,3.0,3.0,419.1717990033794,4.0,1.0,part_1,,,,,,,,,,,,,green,circle
32.0,1.0,1.0,0.0,1.0,1.0,498.9053159952163,4.0,1.0,part_1,,,,,,,,,,,,,white,square
214.0,3.0,3.0,0.0,4.0,4.0,375.1637859968468,4.0,1.0,part_1,,,,,,,,,,,,,blue,flipped triangle
50.0,1.0,1.0,0.0,3.0,3.0,362.4074750114232,4.0,1.0,part_1,,,,,,,,,,,,,white,square
209.0,7.0,3.0,1.0,4.0,4.0,419.5686639868654,4.0,1.0,part_1,,,,,,,,,,,,,yellow,I
46.0,5.0,1.0,1.0,1.0,1.0,467.5954089907463,4.0,1.0,part_1,,,,,,,,,,,,,orange,triangle
178.0,3.0,3.0,0.0,1.0,1.0,420.03185400972137,4.0,1.0,part_1,,,,,,,,,,,,,blue,flipped triangle
0.0,1.0,1.0,0.0,6.0,6.0,429.3835870048497,1.0,0.0,part_2,go,250.0,250.0,1.0,,,,,,,,,white,square
0.0,1.0,1.0,0.0,5.0,5.0,508.20439399103634,1.0,0.0,part_2,go,250.0,250.0,1.0,,,,,,,,,white,square
0.0,6.0,2.0,1.0,5.0,5.0,518.3426230214536,1.0,0.0,part_2,stop,250.0,250.0,3.0,,,,,,,,,green,circle
0.0,3.0,3.0,0.0,5.0,5.0,551.9285600166768,1.0,0.0,part_2,go,200.0,250.0,1.0,,,,,,,,,blue,flipped triangle
0.0,2.0,2.0,0.0,6.0,6.0,847.4008030025288,1.0,0.0,part_2,go,200.0,250.0,1.0,,,,,,,,,cyan,diamond
0.0,5.0,1.0,1.0,6.0,0.0,0.0,1.0,0.0,part_2,stop,200.0,250.0,4.0,,,,,,,,,orange,triangle
0.0,8.0,4.0,1.0,5.0,0.0,0.0,1.0,0.0,part_2,stop,200.0,300.0,4.0,,,,,,,,,magenta,hexagon
0.0,2.0,2.0,0.0,6.0,6.0,724.6477009903174,1.0,0.0,part_2,go,250.0,300.0,1.0,,,,,,,,,cyan,diamond
0.0,1.0,1.0,0.0,5.0,5.0,591.267454001354,1.0,0.0,part_2,go,250.0,300.0,1.0,,,,,,,,,white,square
0.0,1.0,1.0,0.0,6.0,6.0,691.6483219829388,1.0,0.0,part_2,go,250.0,300.0,1.0,,,,,,,,,white,square
0.0,4.0,4.0,0.0,5.0,5.0,526.3125910132658,1.0,0.0,part_2,go,250.0,300.0,1.0,,,,,,,,,gray,cross
0.0,1.0,1.0,0.0,5.0,5.0,715.5136130168103,1.0,0.0,part_2,go,250.0,300.0,1.0,,,,,,,,,white,square
0.0,6.0,2.0,1.0,6.0,0.0,0.0,1.0,0.0,part_2,stop,250.0,300.0,4.0,,,,,,,,,green,circle
0.0,2.0,2.0,0.0,5.0,5.0,685.8905050030444,1.0,0.0,part_2,go,250.0,350.0,1.0,,,,,,,,,cyan,diamond
0.0,3.0,3.0,0.0,6.0,6.0,808.6200209800154,1.0,0.0,part_2,go,250.0,350.0,1.0,,,,,,,,,blue,flipped triangle
0.0,6.0,2.0,1.0,5.0,0.0,0.0,1.0,0.0,part_2,stop,250.0,350.0,4.0,,,,,,,,,green,circle
0.0,5.0,1.0,1.0,5.0,5.0,768.0945970059838,1.0,0.0,part_2,go,300.0,350.0,1.0,,,,,,,,,orange,triangle
0.0,8.0,4.0,1.0,6.0,6.0,608.0951899930369,1.0,0.0,part_2,go,300.0,350.0,1.0,,,,,,,,,magenta,hexagon
0.0,5.0,1.0,1.0,5.0,0.0,0.0,1.0,0.0,part_2,stop,300.0,350.0,4.0,,,,,,,,,orange,triangle
0.0,1.0,1.0,0.0,5.0,5.0,452.0485939865466,1.0,0.0,part_2,go,350.0,350.0,1.0,,,,,,,,,white,square
0.0,6.0,2.0,1.0,5.0,0.0,0.0,1.0,0.0,part_2,stop,350.0,350.0,4.0,,,,,,,,,green,circle
0.0,8.0,4.0,1.0,5.0,0.0,0.0,1.0,0.0,part_2,stop,400.0,350.0,4.0,,,,,,,,,magenta,hexagon
0.0,2.0,2.0,0.0,6.0,6.0,615.8811970090028,1.0,0.0,part_2,go,450.0,350.0,1.0,,,,,,,,,cyan,diamond
0.0,4.0,4.0,0.0,6.0,6.0,725.888198998291,1.0,0.0,part_2,go,450.0,350.0,1.0,,,,,,,,,gray,cross
0.0,6.0,2.0,1.0,5.0,0.0,0.0,1.0,0.0,part_2,stop,450.0,350.0,4.0,,,,,,,,,green,circle
0.0,6.0,2.0,1.0,5.0,0.0,0.0,1.0,0.0,part_2,stop,500.0,350.0,4.0,,,,,,,,,green,circle
0.0,3.0,3.0,0.0,6.0,6.0,740.6717179983389,1.0,0.0,part_2,go,550.0,350.0,1.0,,,,,,,,,blue,flipped triangle
0.0,8.0,4.0,1.0,6.0,0.0,0.0,1.0,0.0,part_2,stop,550.0,350.0,4.0,,,,,,,,,magenta,hexagon
0.0,8.0,4.0,1.0,6.0,0.0,0.0,1.0,0.0,part_2,stop,550.0,400.0,4.0,,,,,,,,,magenta,hexagon
0.0,3.0,3.0,0.0,6.0,6.0,641.5452990040649,1.0,0.0,part_2,go,550.0,450.0,1.0,,,,,,,,,blue,flipped triangle
0.0,1.0,1.0,0.0,6.0,6.0,936.5040240227244,1.0,0.0,part_2,go,550.0,450.0,1.0,,,,,,,,,white,square
0.0,5.0,1.0,1.0,6.0,0.0,0.0,1.0,0.0,part_2,stop,550.0,450.0,4.0,,,,,,,,,orange,triangle
0.0,5.0,1.0,1.0,5.0,0.0,0.0,1.0,0.0,part_2,stop,550.0,500.0,4.0,,,,,,,,,orange,triangle
0.0,5.0,1.0,1.0,6.0,0.0,0.0,1.0,0.0,part_2,stop,600.0,500.0,4.0,,,,,,,,,orange,triangle
0.0,4.0,4.0,0.0,6.0,6.0,771.3160790153779,1.0,0.0,part_2,go,600.0,550.0,1.0,,,,,,,,,gray,cross
0.0,8.0,4.0,1.0,5.0,5.0,770.5254199972842,1.0,0.0,part_2,go,600.0,550.0,1.0,,,,,,,,,magenta,hexagon
0.0,1.0,1.0,0.0,5.0,5.0,485.4027630062774,2.0,0.0,part_2,go,600.0,550.0,1.0,,,,,,,,,white,square
0.0,3.0,3.0,0.0,6.0,6.0,665.7032950024586,2.0,0.0,part_2,go,600.0,550.0,1.0,,,,,,,,,blue,flipped triangle
0.0,6.0,2.0,1.0,5.0,5.0,713.994805002585,2.0,0.0,part_2,stop,600.0,550.0,3.0,,,,,,,,,green,circle
0.0,3.0,3.0,0.0,5.0,5.0,745.5351370153949,2.0,0.0,part_2,go,550.0,550.0,1.0,,,,,,,,,blue,flipped triangle
0.0,5.0,1.0,1.0,6.0,0.0,0.0,2.0,0.0,part_2,stop,550.0,550.0,4.0,,,,,,,,,orange,triangle
0.0,7.0,3.0,1.0,5.0,0.0,0.0,2.0,0.0,part_2,stop,550.0,600.0,4.0,,,,,,,,,yellow,I
0.0,6.0,2.0,1.0,6.0,6.0,863.9494119852316,2.0,0.0,part_2,stop,600.0,600.0,3.0,,,,,,,,,green,circle
0.0,7.0,3.0,1.0,6.0,6.0,841.3605229870882,2.0,0.0,part_2,go,600.0,550.0,1.0,,,,,,,,,yellow,I
0.0,2.0,2.0,0.0,6.0,6.0,851.6522849968169,2.0,0.0,part_2,go,600.0,550.0,1.0,,,,,,,,,cyan,diamond
0.0,4.0,4.0,0.0,5.0,5.0,842.3501600045711,2.0,0.0,part_2,go,600.0,550.0,1.0,,,,,,,,,gray,cross
0.0,2.0,2.0,0.0,5.0,5.0,912.5300119922032,2.0,0.0,part_2,go,600.0,550.0,1.0,,,,,,,,,cyan,diamond
0.0,8.0,4.0,1.0,6.0,6.0,641.5694009920117,2.0,0.0,part_2,stop,600.0,550.0,3.0,,,,,,,,,magenta,hexagon
0.0,4.0,4.0,0.0,5.0,5.0,574.6445289987605,2.0,0.0,part_2,go,600.0,500.0,1.0,,,,,,,,,gray,cross
0.0,7.0,3.0,1.0,6.0,0.0,0.0,2.0,0.0,part_2,stop,600.0,500.0,4.0,,,,,,,,,yellow,I
0.0,7.0,3.0,1.0,5.0,0.0,0.0,2.0,0.0,part_2,stop,600.0,550.0,4.0,,,,,,,,,yellow,I
0.0,6.0,2.0,1.0,5.0,0.0,0.0,2.0,0.0,part_2,stop,650.0,550.0,4.0,,,,,,,,,green,circle
0.0,4.0,4.0,0.0,5.0,5.0,792.4017049954273,2.0,0.0,part_2,go,700.0,550.0,1.0,,,,,,,,,gray,cross
0.0,6.0,2.0,1.0,5.0,5.0,1052.3157679999713,2.0,0.0,part_2,go,700.0,550.0,1.0,,,,,,,,,green,circle
0.0,1.0,1.0,0.0,5.0,5.0,544.3842240201775,2.0,0.0,part_2,go,700.0,550.0,1.0,,,,,,,,,white,square
0.0,2.0,2.0,0.0,5.0,5.0,613.4989580023102,2.0,0.0,part_2,go,700.0,550.0,1.0,,,,,,,,,cyan,diamond
0.0,6.0,2.0,1.0,5.0,5.0,725.0931470189244,2.0,0.0,part_2,stop,700.0,550.0,3.0,,,,,,,,,green,circle
0.0,7.0,3.0,1.0,5.0,0.0,0.0,2.0,0.0,part_2,stop,650.0,550.0,4.0,,,,,,,,,yellow,I
0.0,3.0,3.0,0.0,5.0,5.0,820.6393209984526,2.0,0.0,part_2,go,700.0,550.0,1.0,,,,,,,,,blue,flipped triangle
0.0,3.0,3.0,0.0,6.0,6.0,730.4668610158842,2.0,0.0,part_2,go,700.0,550.0,1.0,,,,,,,,,blue,flipped triangle
0.0,8.0,4.0,1.0,5.0,5.0,725.9134149935562,2.0,0.0,part_2,stop,700.0,550.0,3.0,,,,,,,,,magenta,hexagon
0.0,5.0,1.0,1.0,6.0,6.0,845.0986870157067,2.0,0.0,part_2,go,650.0,550.0,1.0,,,,,,,,,orange,triangle
0.0,8.0,4.0,1.0,6.0,6.0,742.3124600027222,2.0,0.0,part_2,go,650.0,550.0,1.0,,,,,,,,,magenta,hexagon
0.0,5.0,1.0,1.0,6.0,0.0,0.0,2.0,0.0,part_2,stop,650.0,550.0,4.0,,,,,,,,,orange,triangle
0.0,6.0,2.0,1.0,6.0,0.0,0.0,2.0,0.0,part_2,stop,650.0,600.0,4.0,,,,,,,,,green,circle
0.0,4.0,4.0,0.0,5.0,5.0,622.697398008313,2.0,0.0,part_2,go,650.0,650.0,1.0,,,,,,,,,gray,cross
0.0,2.0,2.0,0.0,6.0,6.0,847.6787669933401,2.0,0.0,part_2,go,650.0,650.0,1.0,,,,,,,,,cyan,diamond
0.0,3.0,3.0,0.0,5.0,5.0,544.4848019978963,2.0,0.0,part_2,go,650.0,650.0,1.0,,,,,,,,,blue,flipped triangle
0.0,4.0,4.0,0.0,6.0,6.0,422.1613720001187,2.0,0.0,part_2,go,650.0,650.0,1.0,,,,,,,,,gray,cross
0.0,4.0,4.0,0.0,6.0,6.0,492.6493079983629,2.0,0.0,part_2,go,650.0,650.0,1.0,,,,,,,,,gray,cross
0.0,6.0,2.0,1.0,6.0,6.0,1010.0925649749115,2.0,0.0,part_2,go,650.0,650.0,1.0,,,,,,,,,green,circle
0.0,3.0,3.0,0.0,5.0,5.0,726.8966480041854,2.0,0.0,part_2,go,650.0,650.0,1.0,,,,,,,,,blue,flipped triangle
0.0,8.0,4.0,1.0,5.0,5.0,351.793734007515,3.0,0.0,part_2,stop,650.0,650.0,3.0,,,,,,,,,magenta,hexagon
0.0,1.0,1.0,0.0,6.0,6.0,295.1248649915214,3.0,0.0,part_2,go,600.0,650.0,1.0,,,,,,,,,white,square
0.0,8.0,4.0,1.0,6.0,6.0,352.0958739973139,3.0,0.0,part_2,stop,600.0,650.0,3.0,,,,,,,,,magenta,hexagon
0.0,2.0,2.0,0.0,5.0,5.0,543.8194689922966,3.0,0.0,part_2,go,600.0,600.0,1.0,,,,,,,,,cyan,diamond
0.0,3.0,3.0,0.0,5.0,5.0,443.858223996358,3.0,0.0,part_2,go,600.0,600.0,1.0,,,,,,,,,blue,flipped triangle
0.0,5.0,1.0,1.0,6.0,6.0,262.6575239992235,3.0,0.0,part_2,go,600.0,600.0,1.0,,,,,,,,,orange,triangle
0.0,1.0,1.0,0.0,5.0,5.0,254.3115679873153,3.0,0.0,part_2,go,600.0,600.0,1.0,,,,,,,,,white,square
0.0,6.0,2.0,1.0,6.0,6.0,265.5518089886755,3.0,0.0,part_2,go,600.0,600.0,1.0,,,,,,,,,green,circle
0.0,5.0,1.0,1.0,5.0,5.0,469.604359997902,3.0,0.0,part_2,stop,600.0,600.0,3.0,,,,,,,,,orange,triangle
0.0,8.0,4.0,1.0,6.0,6.0,422.6014260202646,3.0,0.0,part_2,stop,550.0,600.0,3.0,,,,,,,,,magenta,hexagon
0.0,5.0,1.0,1.0,5.0,5.0,617.5775970041286,3.0,0.0,part_2,stop,550.0,550.0,3.0,,,,,,,,,orange,triangle
0.0,1.0,1.0,0.0,5.0,5.0,505.2716229984071,3.0,0.0,part_2,go,500.0,550.0,1.0,,,,,,,,,white,square
0.0,7.0,3.0,1.0,5.0,5.0,472.4779410171322,3.0,0.0,part_2,go,500.0,550.0,1.0,,,,,,,,,yellow,I
0.0,5.0,1.0,1.0,6.0,6.0,384.5529890095349,3.0,0.0,part_2,stop,500.0,550.0,3.0,,,,,,,,,orange,triangle
0.0,1.0,1.0,0.0,5.0,5.0,257.985728996573,3.0,0.0,part_2,go,500.0,500.0,1.0,,,,,,,,,white,square
0.0,7.0,3.0,1.0,6.0,6.0,362.3763629875611,3.0,0.0,part_2,stop,500.0,500.0,3.0,,,,,,,,,yellow,I
0.0,1.0,1.0,0.0,6.0,6.0,351.1393090011552,3.0,0.0,part_2,go,500.0,450.0,1.0,,,,,,,,,white,square
0.0,7.0,3.0,1.0,6.0,6.0,308.8544000056572,3.0,0.0,part_2,stop,500.0,450.0,3.0,,,,,,,,,yellow,I
0.0,4.0,4.0,0.0,6.0,6.0,272.4046049988828,3.0,0.0,part_2,go,500.0,400.0,1.0,,,,,,,,,gray,cross
0.0,4.0,4.0,0.0,5.0,5.0,343.7412650091573,3.0,0.0,part_2,go,500.0,400.0,1.0,,,,,,,,,gray,cross
0.0,7.0,3.0,1.0,5.0,5.0,345.3219750081189,3.0,0.0,part_2,stop,500.0,400.0,3.0,,,,,,,,,yellow,I
0.0,6.0,2.0,1.0,6.0,6.0,357.7494650089647,3.0,0.0,part_2,stop,450.0,400.0,3.0,,,,,,,,,green,circle
0.0,2.0,2.0,0.0,6.0,6.0,346.1684029898606,3.0,0.0,part_2,go,450.0,350.0,1.0,,,,,,,,,cyan,diamond
0.0,3.0,3.0,0.0,6.0,6.0,370.2258959820028,3.0,0.0,part_2,go,450.0,350.0,1.0,,,,,,,,,blue,flipped triangle
0.0,8.0,4.0,1.0,5.0,5.0,493.4378690086305,3.0,0.0,part_2,stop,450.0,350.0,3.0,,,,,,,,,magenta,hexagon
0.0,7.0,3.0,1.0,5.0,5.0,323.547467996832,3.0,0.0,part_2,stop,400.0,350.0,3.0,,,,,,,,,yellow,I
0.0,4.0,4.0,0.0,5.0,5.0,313.7904549948871,3.0,0.0,part_2,go,350.0,350.0,1.0,,,,,,,,,gray,cross
0.0,8.0,4.0,1.0,6.0,6.0,270.1767150138039,3.0,0.0,part_2,stop,350.0,350.0,3.0,,,,,,,,,magenta,hexagon
0.0,8.0,4.0,1.0,5.0,5.0,262.2812519839499,3.0,0.0,part_2,stop,350.0,300.0,3.0,,,,,,,,,magenta,hexagon
0.0,4.0,4.0,0.0,6.0,6.0,306.5227139741182,3.0,0.0,part_2,go,300.0,300.0,1.0,,,,,,,,,gray,cross
0.0,6.0,2.0,1.0,6.0,0.0,0.0,3.0,0.0,part_2,stop,300.0,300.0,4.0,,,,,,,,,green,circle
0.0,7.0,3.0,1.0,5.0,0.0,0.0,3.0,0.0,part_2,stop,300.0,350.0,4.0,,,,,,,,,yellow,I
0.0,1.0,1.0,0.0,6.0,6.0,319.0376310085412,3.0,0.0,part_2,go,350.0,350.0,1.0,,,,,,,,,white,square
0.0,1.0,1.0,0.0,6.0,6.0,331.5089899988379,3.0,0.0,part_2,go,350.0,350.0,1.0,,,,,,,,,white,square
0.0,5.0,1.0,1.0,5.0,5.0,579.0209640108515,3.0,0.0,part_2,stop,350.0,350.0,3.0,,,,,,,,,orange,triangle
0.0,3.0,3.0,0.0,5.0,5.0,379.5236450096126,3.0,0.0,part_2,go,300.0,350.0,1.0,,,,,,,,,blue,flipped triangle
0.0,4.0,4.0,0.0,5.0,5.0,555.9355290024541,4.0,0.0,part_2,go,300.0,350.0,1.0,,,,,,,,,gray,cross
0.0,4.0,4.0,0.0,6.0,6.0,411.4035120001063,4.0,0.0,part_2,go,300.0,350.0,1.0,,,,,,,,,gray,cross
0.0,2.0,2.0,0.0,5.0,5.0,647.5873870076612,4.0,0.0,part_2,go,300.0,350.0,1.0,,,,,,,,,cyan,diamond
0.0,7.0,3.0,1.0,6.0,0.0,0.0,4.0,0.0,part_2,stop,300.0,350.0,4.0,,,,,,,,,yellow,I
0.0,8.0,4.0,1.0,6.0,6.0,513.5383860033471,4.0,0.0,part_2,stop,300.0,400.0,3.0,,,,,,,,,magenta,hexagon
0.0,8.0,4.0,1.0,6.0,0.0,0.0,4.0,0.0,part_2,stop,300.0,350.0,4.0,,,,,,,,,magenta,hexagon
0.0,7.0,3.0,1.0,6.0,6.0,763.1824160052929,4.0,0.0,part_2,go,300.0,400.0,1.0,,,,,,,,,yellow,I
0.0,1.0,1.0,0.0,5.0,5.0,536.6170259949286,4.0,0.0,part_2,go,300.0,400.0,1.0,,,,,,,,,white,square
0.0,8.0,4.0,1.0,6.0,6.0,629.5253519783728,4.0,0.0,part_2,go,300.0,400.0,1.0,,,,,,,,,magenta,hexagon
0.0,3.0,3.0,0.0,5.0,5.0,415.310573996976,4.0,0.0,part_2,go,300.0,400.0,1.0,,,,,,,,,blue,flipped triangle
0.0,6.0,2.0,1.0,5.0,5.0,631.0936709924135,4.0,0.0,part_2,go,300.0,400.0,1.0,,,,,,,,,green,circle
0.0,2.0,2.0,0.0,5.0,5.0,419.124334002845,4.0,0.0,part_2,go,300.0,400.0,1.0,,,,,,,,,cyan,diamond
0.0,2.0,2.0,0.0,6.0,6.0,709.5609540119767,4.0,0.0,part_2,go,300.0,400.0,1.0,,,,,,,,,cyan,diamond
0.0,5.0,1.0,1.0,5.0,5.0,463.7932989862747,4.0,0.0,part_2,stop,300.0,400.0,3.0,,,,,,,,,orange,triangle
0.0,2.0,2.0,0.0,5.0,5.0,565.4140179976821,4.0,0.0,part_2,go,250.0,400.0,1.0,,,,,,,,,cyan,diamond
0.0,8.0,4.0,1.0,6.0,0.0,0.0,4.0,0.0,part_2,stop,250.0,400.0,4.0,,,,,,,,,magenta,hexagon
0.0,3.0,3.0,0.0,6.0,6.0,658.1593540031463,4.0,0.0,part_2,go,250.0,450.0,1.0,,,,,,,,,blue,flipped triangle
0.0,4.0,4.0,0.0,6.0,6.0,512.7903319953475,4.0,0.0,part_2,go,250.0,450.0,1.0,,,,,,,,,gray,cross
0.0,7.0,3.0,1.0,5.0,0.0,0.0,4.0,0.0,part_2,stop,250.0,450.0,4.0,,,,,,,,,yellow,I
0.0,5.0,1.0,1.0,5.0,0.0,0.0,4.0,0.0,part_2,stop,300.0,450.0,4.0,,,,,,,,,orange,triangle
0.0,6.0,2.0,1.0,5.0,0.0,0.0,4.0,0.0,part_2,stop,350.0,450.0,4.0,,,,,,,,,green,circle
0.0,3.0,3.0,0.0,5.0,5.0,583.828058996005,4.0,0.0,part_2,go,400.0,450.0,1.0,,,,,,,,,blue,flipped triangle
0.0,1.0,1.0,0.0,6.0,6.0,446.6782540257554,4.0,0.0,part_2,go,400.0,450.0,1.0,,,,,,,,,white,square
0.0,2.0,2.0,0.0,5.0,5.0,539.0975140035152,4.0,0.0,part_2,go,400.0,450.0,1.0,,,,,,,,,cyan,diamond
0.0,6.0,2.0,1.0,5.0,5.0,598.8226699992083,4.0,0.0,part_2,stop,400.0,450.0,3.0,,,,,,,,,green,circle
0.0,3.0,3.0,0.0,6.0,6.0,709.1452240129001,4.0,0.0,part_2,go,350.0,450.0,1.0,,,,,,,,,blue,flipped triangle
0.0,7.0,3.0,1.0,6.0,0.0,0.0,4.0,0.0,part_2,stop,350.0,450.0,4.0,,,,,,,,,yellow,I
0.0,3.0,3.0,0.0,6.0,6.0,687.063453020528,4.0,0.0,part_2,go,350.0,500.0,1.0,,,,,,,,,blue,flipped triangle
0.0,6.0,2.0,1.0,6.0,0.0,0.0,4.0,0.0,part_2,stop,350.0,500.0,4.0,,,,,,,,,green,circle
0.0,1.0,1.0,0.0,5.0,5.0,577.373804000672,4.0,0.0,part_2,go,350.0,550.0,1.0,,,,,,,,,white,square
0.0,3.0,3.0,0.0,6.0,6.0,678.3430560026318,4.0,0.0,part_2,go,350.0,550.0,1.0,,,,,,,,,blue,flipped triangle
0.0,7.0,3.0,1.0,6.0,6.0,690.000199014321,4.0,0.0,part_2,go,350.0,550.0,1.0,,,,,,,,,yellow,I
0.0,3.0,3.0,0.0,6.0,6.0,514.210474997526,4.0,0.0,part_2,go,350.0,550.0,1.0,,,,,,,,,blue,flipped triangle
0.0,4.0,4.0,0.0,5.0,5.0,536.1827930028085,4.0,0.0,part_2,go,350.0,550.0,1.0,,,,,,,,,gray,cross
0.0,6.0,2.0,1.0,6.0,6.0,818.1866290105972,4.0,0.0,part_2,go,350.0,550.0,1.0,,,,,,,,,green,circle
0.0,7.0,3.0,1.0,5.0,5.0,460.5706440052017,4.0,0.0,part_2,stop,350.0,550.0,3.0,,,,,,,,,yellow,I
0.0,3.0,3.0,0.0,5.0,5.0,454.8508810112253,5.0,0.0,part_2,go,300.0,550.0,1.0,,,,,,,,,blue,flipped triangle
0.0,3.0,3.0,0.0,6.0,6.0,600.8936330035795,5.0,0.0,part_2,go,300.0,550.0,1.0,,,,,,,,,blue,flipped triangle
0.0,5.0,1.0,1.0,6.0,0.0,0.0,5.0,0.0,part_2,stop,300.0,550.0,4.0,,,,,,,,,orange,triangle
0.0,6.0,2.0,1.0,6.0,6.0,803.1723399762996,5.0,0.0,part_2,stop,300.0,600.0,3.0,,,,,,,,,green,circle
0.0,4.0,4.0,0.0,6.0,6.0,567.5138599763159,5.0,0.0,part_2,go,300.0,550.0,1.0,,,,,,,,,gray,cross
0.0,6.0,2.0,1.0,6.0,6.0,874.571365013253,5.0,0.0,part_2,go,300.0,550.0,1.0,,,,,,,,,green,circle
0.0,4.0,4.0,0.0,5.0,5.0,490.3759709850419,5.0,0.0,part_2,go,300.0,550.0,1.0,,,,,,,,,gray,cross
0.0,4.0,4.0,0.0,5.0,5.0,394.1071660083253,5.0,0.0,part_2,go,300.0,550.0,1.0,,,,,,,,,gray,cross
0.0,7.0,3.0,1.0,6.0,6.0,537.7709869935643,5.0,0.0,part_2,stop,300.0,550.0,3.0,,,,,,,,,yellow,I
0.0,5.0,1.0,1.0,6.0,6.0,898.7362300103996,5.0,0.0,part_2,go,300.0,500.0,1.0,,,,,,,,,orange,triangle
0.0,3.0,3.0,0.0,5.0,5.0,509.38462698832154,5.0,0.0,part_2,go,300.0,500.0,1.0,,,,,,,,,blue,flipped triangle
0.0,4.0,4.0,0.0,6.0,6.0,359.9925399757921,5.0,0.0,part_2,go,300.0,500.0,1.0,,,,,,,,,gray,cross
0.0,2.0,2.0,0.0,6.0,6.0,540.1725950068794,5.0,0.0,part_2,go,300.0,500.0,1.0,,,,,,,,,cyan,diamond
0.0,7.0,3.0,1.0,6.0,6.0,396.0651769884862,5.0,0.0,part_2,stop,300.0,500.0,3.0,,,,,,,,,yellow,I
0.0,2.0,2.0,0.0,6.0,6.0,587.3141180200037,5.0,0.0,part_2,go,300.0,450.0,1.0,,,,,,,,,cyan,diamond
0.0,5.0,1.0,1.0,6.0,0.0,0.0,5.0,0.0,part_2,stop,300.0,450.0,4.0,,,,,,,,,orange,triangle
0.0,1.0,1.0,0.0,5.0,5.0,476.7669569991994,5.0,0.0,part_2,go,300.0,500.0,1.0,,,,,,,,,white,square
0.0,8.0,4.0,1.0,6.0,0.0,0.0,5.0,0.0,part_2,stop,300.0,500.0,4.0,,,,,,,,,magenta,hexagon
0.0,1.0,1.0,0.0,6.0,6.0,515.2467549778521,5.0,0.0,part_2,go,300.0,550.0,1.0,,,,,,,,,white,square
0.0,7.0,3.0,1.0,5.0,0.0,0.0,5.0,0.0,part_2,stop,300.0,550.0,4.0,,,,,,,,,yellow,I
0.0,8.0,4.0,1.0,5.0,5.0,885.2443780051544,5.0,0.0,part_2,go,350.0,550.0,1.0,,,,,,,,,magenta,hexagon
0.0,5.0,1.0,1.0,6.0,0.0,0.0,5.0,0.0,part_2,stop,350.0,550.0,4.0,,,,,,,,,orange,triangle
0.0,2.0,2.0,0.0,5.0,5.0,686.540790979052,5.0,0.0,part_2,go,350.0,600.0,1.0,,,,,,,,,cyan,diamond
0.0,6.0,2.0,1.0,6.0,6.0,742.2797120234463,5.0,0.0,part_2,stop,350.0,600.0,3.0,,,,,,,,,green,circle
0.0,7.0,3.0,1.0,5.0,0.0,0.0,5.0,0.0,part_2,stop,350.0,550.0,4.0,,,,,,,,,yellow,I
0.0,7.0,3.0,1.0,6.0,0.0,0.0,5.0,0.0,part_2,stop,400.0,550.0,4.0,,,,,,,,,yellow,I
0.0,2.0,2.0,0.0,5.0,5.0,599.1584180155769,5.0,0.0,part_2,go,400.0,600.0,1.0,,,,,,,,,cyan,diamond
0.0,4.0,4.0,0.0,6.0,6.0,676.3842439977452,5.0,0.0,part_2,go,400.0,600.0,1.0,,,,,,,,,gray,cross
0.0,3.0,3.0,0.0,5.0,5.0,488.2476890052203,5.0,0.0,part_2,go,400.0,600.0,1.0,,,,,,,,,blue,flipped triangle
0.0,5.0,1.0,1.0,5.0,5.0,424.7233229980338,5.0,0.0,part_2,stop,400.0,600.0,3.0,,,,,,,,,orange,triangle
0.0,2.0,2.0,0.0,5.0,5.0,678.6481580056716,5.0,0.0,part_2,go,350.0,600.0,1.0,,,,,,,,,cyan,diamond
0.0,5.0,1.0,1.0,5.0,0.0,0.0,5.0,0.0,part_2,stop,350.0,600.0,4.0,,,,,,,,,orange,triangle
0.0,2.0,2.0,0.0,6.0,6.0,738.8649970234837,5.0,0.0,part_2,go,400.0,600.0,1.0,,,,,,,,,cyan,diamond
0.0,3.0,3.0,0.0,5.0,5.0,636.814071011031,5.0,0.0,part_2,go,400.0,600.0,1.0,,,,,,,,,blue,flipped triangle
0.0,6.0,2.0,1.0,5.0,0.0,0.0,5.0,0.0,part_2,stop,400.0,600.0,4.0,,,,,,,,,green,circle
0.0,7.0,3.0,1.0,6.0,6.0,337.3586849775165,5.0,0.0,part_2,go,450.0,600.0,1.0,,,,,,,,,yellow,I
0.0,1.0,1.0,0.0,6.0,6.0,313.4973970009014,6.0,0.0,part_2,go,450.0,600.0,1.0,,,,,,,,,white,square
0.0,8.0,4.0,1.0,5.0,5.0,369.665922014974,6.0,0.0,part_2,go,450.0,600.0,1.0,,,,,,,,,magenta,hexagon
0.0,7.0,3.0,1.0,6.0,6.0,696.9072280044202,6.0,0.0,part_2,stop,450.0,600.0,3.0,,,,,,,,,yellow,I
0.0,5.0,1.0,1.0,5.0,5.0,866.7898959829472,6.0,0.0,part_2,go,450.0,550.0,1.0,,,,,,,,,orange,triangle
0.0,4.0,4.0,0.0,6.0,6.0,539.6640069957357,6.0,0.0,part_2,go,450.0,550.0,1.0,,,,,,,,,gray,cross
0.0,8.0,4.0,1.0,6.0,6.0,576.2202219921164,6.0,0.0,part_2,stop,450.0,550.0,3.0,,,,,,,,,magenta,hexagon
0.0,8.0,4.0,1.0,6.0,0.0,0.0,6.0,0.0,part_2,stop,450.0,500.0,4.0,,,,,,,,,magenta,hexagon
0.0,1.0,1.0,0.0,5.0,5.0,611.1274310096633,6.0,0.0,part_2,go,450.0,550.0,1.0,,,,,,,,,white,square
0.0,4.0,4.0,0.0,5.0,5.0,667.3909169912804,6.0,0.0,part_2,go,450.0,550.0,1.0,,,,,,,,,gray,cross
0.0,6.0,2.0,1.0,6.0,0.0,0.0,6.0,0.0,part_2,stop,450.0,550.0,4.0,,,,,,,,,green,circle
0.0,6.0,2.0,1.0,5.0,5.0,948.5352899937424,6.0,0.0,part_2,go,450.0,600.0,1.0,,,,,,,,,green,circle
0.0,8.0,4.0,1.0,6.0,0.0,0.0,6.0,0.0,part_2,stop,450.0,600.0,4.0,,,,,,,,,magenta,hexagon
0.0,4.0,4.0,0.0,6.0,6.0,650.7379020040389,6.0,0.0,part_2,go,450.0,650.0,1.0,,,,,,,,,gray,cross
0.0,4.0,4.0,0.0,6.0,6.0,480.0542970187962,6.0,0.0,part_2,go,450.0,650.0,1.0,,,,,,,,,gray,cross
0.0,5.0,1.0,1.0,6.0,0.0,0.0,6.0,0.0,part_2,stop,450.0,650.0,4.0,,,,,,,,,orange,triangle
0.0,2.0,2.0,0.0,6.0,6.0,697.0056690042838,6.0,0.0,part_2,go,450.0,700.0,1.0,,,,,,,,,cyan,diamond
0.0,3.0,3.0,0.0,5.0,5.0,495.3821969975251,6.0,0.0,part_2,go,450.0,700.0,1.0,,,,,,,,,blue,flipped triangle
0.0,6.0,2.0,1.0,5.0,0.0,0.0,6.0,0.0,part_2,stop,450.0,700.0,4.0,,,,,,,,,green,circle
0.0,7.0,3.0,1.0,5.0,0.0,0.0,6.0,0.0,part_2,stop,500.0,700.0,4.0,,,,,,,,,yellow,I
0.0,2.0,2.0,0.0,5.0,5.0,385.4273890028707,6.0,0.0,part_2,go,550.0,700.0,1.0,,,,,,,,,cyan,diamond
0.0,1.0,1.0,0.0,6.0,6.0,474.8716720205266,6.0,0.0,part_2,go,550.0,700.0,1.0,,,,,,,,,white,square
0.0,2.0,2.0,0.0,5.0,5.0,477.6138069864828,6.0,0.0,part_2,go,550.0,700.0,1.0,,,,,,,,,cyan,diamond
0.0,7.0,3.0,1.0,6.0,0.0,0.0,6.0,0.0,part_2,stop,550.0,700.0,4.0,,,,,,,,,yellow,I
0.0,2.0,2.0,0.0,5.0,5.0,711.970520002069,6.0,0.0,part_2,go,550.0,750.0,1.0,,,,,,,,,cyan,diamond
0.0,7.0,3.0,1.0,6.0,0.0,0.0,6.0,0.0,part_2,stop,550.0,750.0,4.0,,,,,,,,,yellow,I
0.0,2.0,2.0,0.0,6.0,6.0,681.5844230004586,6.0,0.0,part_2,go,550.0,800.0,1.0,,,,,,,,,cyan,diamond
0.0,6.0,2.0,1.0,6.0,6.0,985.5956349929328,6.0,0.0,part_2,stop,550.0,800.0,3.0,,,,,,,,,green,circle
0.0,8.0,4.0,1.0,5.0,5.0,445.7630580000113,6.0,0.0,part_2,stop,550.0,750.0,3.0,,,,,,,,,magenta,hexagon
0.0,2.0,2.0,0.0,6.0,6.0,581.2222870008554,6.0,0.0,part_2,go,500.0,750.0,1.0,,,,,,,,,cyan,diamond
0.0,3.0,3.0,0.0,6.0,6.0,797.5955620058812,6.0,0.0,part_2,go,500.0,750.0,1.0,,,,,,,,,blue,flipped triangle
0.0,1.0,1.0,0.0,6.0,6.0,447.2859369998332,6.0,0.0,part_2,go,500.0,750.0,1.0,,,,,,,,,white,square
0.0,2.0,2.0,0.0,6.0,6.0,706.7907020100392,6.0,0.0,part_2,go,500.0,750.0,1.0,,,,,,,,,cyan,diamond
0.0,5.0,1.0,1.0,5.0,0.0,0.0,6.0,0.0,part_2,stop,500.0,750.0,4.0,,,,,,,,,orange,triangle
0.0,6.0,2.0,1.0,6.0,0.0,0.0,6.0,0.0,part_2,stop,550.0,750.0,4.0,,,,,,,,,green,circle
0.0,7.0,3.0,1.0,5.0,0.0,0.0,6.0,0.0,part_2,stop,550.0,800.0,4.0,,,,,,,,,yellow,I
0.0,3.0,3.0,0.0,5.0,5.0,532.5440890155733,6.0,0.0,part_2,go,600.0,800.0,1.0,,,,,,,,,blue,flipped triangle
0.0,4.0,4.0,0.0,6.0,6.0,383.6886569915805,7.0,0.0,part_2,go,600.0,800.0,1.0,,,,,,,,,gray,cross
0.0,5.0,1.0,1.0,6.0,6.0,361.371077975491,7.0,0.0,part_2,stop,600.0,800.0,3.0,,,,,,,,,orange,triangle
0.0,5.0,1.0,1.0,5.0,0.0,0.0,7.0,0.0,part_2,stop,600.0,750.0,4.0,,,,,,,,,orange,triangle
0.0,8.0,4.0,1.0,5.0,5.0,1024.2009760113433,7.0,0.0,part_2,go,650.0,750.0,1.0,,,,,,,,,magenta,hexagon
0.0,3.0,3.0,0.0,5.0,5.0,563.2048340048641,7.0,0.0,part_2,go,650.0,750.0,1.0,,,,,,,,,blue,flipped triangle
0.0,1.0,1.0,0.0,6.0,6.0,575.0566229980905,7.0,0.0,part_2,go,650.0,750.0,1.0,,,,,,,,,white,square
0.0,7.0,3.0,1.0,6.0,6.0,1049.483877024613,7.0,0.0,part_2,go,650.0,750.0,1.0,,,,,,,,,yellow,I
0.0,7.0,3.0,1.0,5.0,0.0,0.0,7.0,0.0,part_2,stop,650.0,750.0,4.0,,,,,,,,,yellow,I
0.0,8.0,4.0,1.0,5.0,5.0,725.5113249993883,7.0,0.0,part_2,stop,700.0,750.0,3.0,,,,,,,,,magenta,hexagon
0.0,2.0,2.0,0.0,5.0,5.0,614.9525929940864,7.0,0.0,part_2,go,650.0,750.0,1.0,,,,,,,,,cyan,diamond
0.0,3.0,3.0,0.0,6.0,6.0,714.8751060012728,7.0,0.0,part_2,go,650.0,750.0,1.0,,,,,,,,,blue,flipped triangle
0.0,8.0,4.0,1.0,6.0,0.0,0.0,7.0,0.0,part_2,stop,650.0,750.0,4.0,,,,,,,,,magenta,hexagon
0.0,4.0,4.0,0.0,5.0,5.0,490.8965099893976,7.0,0.0,part_2,go,650.0,800.0,1.0,,,,,,,,,gray,cross
0.0,6.0,2.0,1.0,6.0,0.0,0.0,7.0,0.0,part_2,stop,650.0,800.0,4.0,,,,,,,,,green,circle
0.0,4.0,4.0,0.0,5.0,5.0,517.699354008073,7.0,0.0,part_2,go,650.0,850.0,1.0,,,,,,,,,gray,cross
0.0,6.0,2.0,1.0,5.0,0.0,0.0,7.0,0.0,part_2,stop,650.0,850.0,4.0,,,,,,,,,green,circle
0.0,4.0,4.0,0.0,5.0,5.0,628.9633039850742,7.0,0.0,part_2,go,700.0,850.0,1.0,,,,,,,,,gray,cross
0.0,4.0,4.0,0.0,6.0,6.0,574.6217270207126,7.0,0.0,part_2,go,700.0,850.0,1.0,,,,,,,,,gray,cross
0.0,1.0,1.0,0.0,5.0,5.0,668.7873720075004,7.0,0.0,part_2,go,700.0,850.0,1.0,,,,,,,,,white,square
0.0,2.0,2.0,0.0,5.0,5.0,736.4968920010142,7.0,0.0,part_2,go,700.0,850.0,1.0,,,,,,,,,cyan,diamond
0.0,1.0,1.0,0.0,5.0,5.0,441.3043159875087,7.0,0.0,part_2,go,700.0,850.0,1.0,,,,,,,,,white,square
0.0,5.0,1.0,1.0,6.0,6.0,1209.7266979981214,7.0,0.0,part_2,go,700.0,850.0,1.0,,,,,,,,,orange,triangle
0.0,4.0,4.0,0.0,5.0,5.0,457.5390669924672,7.0,0.0,part_2,go,700.0,850.0,1.0,,,,,,,,,gray,cross
0.0,2.0,2.0,0.0,6.0,6.0,615.1591670059133,7.0,0.0,part_2,go,700.0,850.0,1.0,,,,,,,,,cyan,diamond
0.0,7.0,3.0,1.0,5.0,5.0,898.7095060001593,7.0,0.0,part_2,go,700.0,850.0,1.0,,,,,,,,,yellow,I
0.0,8.0,4.0,1.0,5.0,0.0,0.0,7.0,0.0,part_2,stop,700.0,850.0,4.0,,,,,,,,,magenta,hexagon
0.0,2.0,2.0,0.0,5.0,5.0,559.136772993952,7.0,0.0,part_2,go,750.0,850.0,1.0,,,,,,,,,cyan,diamond
0.0,4.0,4.0,0.0,5.0,5.0,460.7138030114583,7.0,0.0,part_2,go,750.0,850.0,1.0,,,,,,,,,gray,cross
0.0,1.0,1.0,0.0,5.0,5.0,416.3334009936079,7.0,0.0,part_2,go,750.0,850.0,1.0,,,,,,,,,white,square
0.0,8.0,4.0,1.0,5.0,5.0,866.3232300023083,7.0,0.0,part_2,stop,750.0,850.0,3.0,,,,,,,,,magenta,hexagon
0.0,7.0,3.0,1.0,5.0,5.0,1023.7108990259003,7.0,0.0,part_2,go,700.0,850.0,1.0,,,,,,,,,yellow,I
0.0,5.0,1.0,1.0,5.0,0.0,0.0,7.0,0.0,part_2,stop,700.0,850.0,4.0,,,,,,,,,orange,triangle
0.0,3.0,3.0,0.0,5.0,5.0,600.2195640176069,7.0,0.0,part_2,go,750.0,850.0,1.0,,,,,,,,,blue,flipped triangle
0.0,6.0,2.0,1.0,6.0,0.0,0.0,7.0,0.0,part_2,stop,750.0,850.0,4.0,,,,,,,,,green,circle
0.0,5.0,1.0,1.0,5.0,0.0,0.0,7.0,0.0,part_2,stop,750.0,900.0,4.0,,,,,,,,,orange,triangle
0.0,6.0,2.0,1.0,5.0,5.0,1129.2559700086713,7.0,0.0,part_2,go,800.0,900.0,1.0,,,,,,,,,green,circle
0.0,2.0,2.0,0.0,6.0,6.0,348.1733570224605,8.0,0.0,part_2,go,800.0,900.0,1.0,,,,,,,,,cyan,diamond
0.0,2.0,2.0,0.0,6.0,6.0,373.6635599925648,8.0,0.0,part_2,go,800.0,900.0,1.0,,,,,,,,,cyan,diamond
0.0,3.0,3.0,0.0,5.0,5.0,621.3315929926466,8.0,0.0,part_2,go,800.0,900.0,1.0,,,,,,,,,blue,flipped triangle
0.0,1.0,1.0,0.0,6.0,6.0,577.5774870126043,8.0,0.0,part_2,go,800.0,900.0,1.0,,,,,,,,,white,square
0.0,1.0,1.0,0.0,6.0,6.0,451.6998199978843,8.0,0.0,part_2,go,800.0,900.0,1.0,,,,,,,,,white,square
0.0,5.0,1.0,1.0,5.0,5.0,981.666462001158,8.0,0.0,part_2,go,800.0,900.0,1.0,,,,,,,,,orange,triangle
0.0,3.0,3.0,0.0,6.0,6.0,365.3614880167879,8.0,0.0,part_2,go,800.0,900.0,1.0,,,,,,,,,blue,flipped triangle
0.0,7.0,3.0,1.0,6.0,6.0,973.7290370103436,8.0,0.0,part_2,stop,800.0,900.0,3.0,,,,,,,,,yellow,I
0.0,7.0,3.0,1.0,5.0,0.0,0.0,8.0,0.0,part_2,stop,800.0,850.0,4.0,,,,,,,,,yellow,I
0.0,5.0,1.0,1.0,5.0,0.0,0.0,8.0,0.0,part_2,stop,850.0,850.0,4.0,,,,,,,,,orange,triangle
0.0,3.0,3.0,0.0,6.0,6.0,524.2424960015342,8.0,0.0,part_2,go,900.0,850.0,1.0,,,,,,,,,blue,flipped triangle
0.0,8.0,4.0,1.0,6.0,6.0,875.907894980628,8.0,0.0,part_2,stop,900.0,850.0,3.0,,,,,,,,,magenta,hexagon
0.0,4.0,4.0,0.0,6.0,6.0,561.171409994131,8.0,0.0,part_2,go,900.0,800.0,1.0,,,,,,,,,gray,cross
0.0,7.0,3.0,1.0,5.0,5.0,1025.925752997864,8.0,0.0,part_2,go,900.0,800.0,1.0,,,,,,,,,yellow,I
0.0,2.0,2.0,0.0,5.0,5.0,562.9602279805113,8.0,0.0,part_2,go,900.0,800.0,1.0,,,,,,,,,cyan,diamond
0.0,8.0,4.0,1.0,5.0,5.0,1057.0037249999586,8.0,0.0,part_2,go,900.0,800.0,1.0,,,,,,,,,magenta,hexagon
0.0,1.0,1.0,0.0,6.0,6.0,507.6132999965921,8.0,0.0,part_2,go,900.0,800.0,1.0,,,,,,,,,white,square
0.0,1.0,1.0,0.0,6.0,6.0,408.1922089972067,8.0,0.0,part_2,go,900.0,800.0,1.0,,,,,,,,,white,square
0.0,1.0,1.0,0.0,6.0,6.0,451.8143790191971,8.0,0.0,part_2,go,900.0,800.0,1.0,,,,,,,,,white,square
0.0,5.0,1.0,1.0,6.0,6.0,981.1799529998098,8.0,0.0,part_2,stop,900.0,800.0,3.0,,,,,,,,,orange,triangle
0.0,7.0,3.0,1.0,6.0,0.0,0.0,8.0,0.0,part_2,stop,900.0,750.0,4.0,,,,,,,,,yellow,I
0.0,6.0,2.0,1.0,6.0,0.0,0.0,8.0,0.0,part_2,stop,900.0,800.0,4.0,,,,,,,,,green,circle
0.0,4.0,4.0,0.0,6.0,6.0,469.9218010064214,8.0,0.0,part_2,go,900.0,850.0,1.0,,,,,,,,,gray,cross
0.0,8.0,4.0,1.0,5.0,5.0,972.8727570036426,8.0,0.0,part_2,stop,900.0,850.0,3.0,,,,,,,,,magenta,hexagon
0.0,5.0,1.0,1.0,6.0,6.0,1179.9517759936862,8.0,0.0,part_2,go,850.0,850.0,1.0,,,,,,,,,orange,triangle
0.0,3.0,3.0,0.0,6.0,6.0,548.8385330245364,8.0,0.0,part_2,go,850.0,850.0,1.0,,,,,,,,,blue,flipped triangle
0.0,5.0,1.0,1.0,5.0,5.0,695.4949999926612,8.0,0.0,part_2,go,850.0,850.0,1.0,,,,,,,,,orange,triangle
0.0,5.0,1.0,1.0,6.0,6.0,696.2157169764396,8.0,0.0,part_2,stop,850.0,850.0,3.0,,,,,,,,,orange,triangle
0.0,3.0,3.0,0.0,6.0,6.0,437.1358319767751,8.0,0.0,part_2,go,850.0,800.0,1.0,,,,,,,,,blue,flipped triangle
0.0,1.0,1.0,0.0,5.0,5.0,497.0313459925819,8.0,0.0,part_2,go,850.0,800.0,1.0,,,,,,,,,white,square
0.0,8.0,4.0,1.0,5.0,5.0,934.8758620035368,8.0,0.0,part_2,stop,850.0,800.0,3.0,,,,,,,,,magenta,hexagon
0.0,6.0,2.0,1.0,5.0,5.0,1218.6258410220034,8.0,0.0,part_2,go,800.0,800.0,1.0,,,,,,,,,green,circle
0.0,4.0,4.0,0.0,5.0,5.0,421.6933790012263,8.0,0.0,part_2,go,800.0,800.0,1.0,,,,,,,,,gray,cross
0.0,2.0,2.0,0.0,6.0,6.0,431.5270420047454,8.0,0.0,part_2,go,800.0,800.0,1.0,,,,,,,,,cyan,diamond
0.0,8.0,4.0,1.0,5.0,5.0,915.4678039776628,8.0,0.0,part_2,go,800.0,800.0,1.0,,,,,,,,,magenta,hexagon
0.0,1.0,1.0,0.0,5.0,5.0,398.4559740056284,8.0,0.0,part_2,go,800.0,800.0,1.0,,,,,,,,,white,square
0.0,6.0,2.0,1.0,7.0,1.0,183.99652701918959,1.0,1.0,part_3,go,0.0,0.0,0.0,245.0,5.0,245.0,294.0,98.0,49.0,196.0,147.0,green,circle
0.0,4.0,4.0,0.0,7.0,3.0,2289.995096012717,1.0,1.0,part_3,go,0.0,0.0,0.0,270.0,5.0,54.0,108.0,270.0,324.0,216.0,162.0,gray,cross
0.0,2.0,2.0,0.0,7.0,5.0,2619.119865994435,1.0,1.0,part_3,go,0.0,0.0,0.0,220.0,5.0,88.0,264.0,44.0,176.0,220.0,132.0,cyan,diamond
0.0,6.0,2.0,1.0,7.0,4.0,1921.7574609792791,1.0,1.0,part_3,go,0.0,0.0,0.0,176.0,4.0,88.0,132.0,264.0,176.0,220.0,44.0,green,circle
0.0,2.0,2.0,0.0,7.0,2.0,2528.7276480230503,1.0,1.0,part_3,go,0.0,0.0,0.0,324.0,6.0,270.0,324.0,216.0,54.0,162.0,108.0,cyan,diamond
0.0,7.0,3.0,1.0,7.0,2.0,3634.10150600248,1.0,1.0,part_3,go,0.0,0.0,0.0,245.0,5.0,196.0,245.0,294.0,147.0,98.0,49.0,yellow,I
0.0,4.0,4.0,0.0,7.0,1.0,3084.400446008658,1.0,1.0,part_3,go,0.0,0.0,0.0,196.0,4.0,196.0,294.0,49.0,245.0,98.0,147.0,gray,cross
0.0,8.0,4.0,1.0,7.0,3.0,4073.8051060179714,1.0,1.0,part_3,go,0.0,0.0,0.0,245.0,5.0,147.0,49.0,245.0,98.0,294.0,196.0,magenta,hexagon
0.0,4.0,4.0,0.0,7.0,5.0,2391.9969870185014,1.0,1.0,part_3,go,0.0,0.0,0.0,204.0,6.0,34.0,170.0,102.0,136.0,204.0,68.0,gray,cross
0.0,2.0,2.0,0.0,7.0,5.0,3021.367162989918,1.0,1.0,part_3,go,0.0,0.0,0.0,170.0,5.0,136.0,68.0,204.0,34.0,170.0,102.0,cyan,diamond
0.0,6.0,2.0,1.0,7.0,1.0,1288.4097789938096,1.0,1.0,part_3,go,0.0,0.0,0.0,68.0,2.0,68.0,170.0,102.0,34.0,136.0,204.0,green,circle
0.0,4.0,4.0,0.0,7.0,5.0,1413.2749649870675,1.0,1.0,part_3,go,0.0,0.0,0.0,264.0,6.0,176.0,88.0,220.0,44.0,264.0,132.0,gray,cross
0.0,5.0,1.0,1.0,7.0,1.0,2395.000267017167,1.0,1.0,part_3,go,0.0,0.0,0.0,132.0,3.0,132.0,176.0,44.0,264.0,88.0,220.0,orange,triangle
0.0,7.0,3.0,1.0,7.0,5.0,3161.071708018426,1.0,1.0,part_3,go,0.0,0.0,0.0,162.0,3.0,108.0,216.0,270.0,54.0,162.0,324.0,yellow,I
0.0,3.0,3.0,0.0,7.0,3.0,1641.0925240197685,1.0,1.0,part_3,go,0.0,0.0,0.0,98.0,2.0,294.0,245.0,98.0,196.0,49.0,147.0,blue,flipped triangle
0.0,1.0,1.0,0.0,7.0,4.0,2690.4824809753336,1.0,1.0,part_3,go,0.0,0.0,0.0,147.0,3.0,294.0,49.0,196.0,147.0,98.0,245.0,white,square
0.0,8.0,4.0,1.0,7.0,3.0,1544.005231000483,1.0,1.0,part_3,go,0.0,0.0,0.0,176.0,4.0,88.0,44.0,176.0,132.0,220.0,264.0,magenta,hexagon
0.0,8.0,4.0,1.0,7.0,6.0,2207.257097004913,1.0,1.0,part_3,go,0.0,0.0,0.0,162.0,3.0,324.0,108.0,270.0,54.0,216.0,162.0,magenta,hexagon
0.0,7.0,3.0,1.0,7.0,3.0,1714.7661089838948,1.0,1.0,part_3,go,0.0,0.0,0.0,195.0,5.0,117.0,234.0,195.0,156.0,78.0,39.0,yellow,I
0.0,8.0,4.0,1.0,7.0,1.0,2955.1774639985524,1.0,1.0,part_3,go,0.0,0.0,0.0,162.0,3.0,162.0,216.0,108.0,270.0,54.0,324.0,magenta,hexagon
0.0,1.0,1.0,0.0,7.0,5.0,1555.9563069837168,2.0,1.0,part_3,go,0.0,0.0,0.0,108.0,2.0,270.0,54.0,324.0,216.0,108.0,162.0,white,square
0.0,4.0,4.0,0.0,7.0,4.0,1355.0704340159427,2.0,1.0,part_3,go,0.0,0.0,0.0,204.0,6.0,68.0,136.0,170.0,204.0,102.0,34.0,gray,cross
0.0,3.0,3.0,0.0,7.0,3.0,1274.8705050034914,2.0,1.0,part_3,go,0.0,0.0,0.0,54.0,1.0,270.0,216.0,54.0,108.0,162.0,324.0,blue,flipped triangle
0.0,8.0,4.0,1.0,7.0,2.0,2241.607820993522,2.0,1.0,part_3,go,0.0,0.0,0.0,234.0,6.0,195.0,234.0,156.0,117.0,78.0,39.0,magenta,hexagon
0.0,3.0,3.0,0.0,7.0,1.0,1940.676681988407,2.0,1.0,part_3,go,0.0,0.0,0.0,88.0,2.0,88.0,44.0,132.0,220.0,176.0,264.0,blue,flipped triangle
0.0,2.0,2.0,0.0,7.0,4.0,1388.8925669889431,2.0,1.0,part_3,go,0.0,0.0,0.0,88.0,2.0,132.0,44.0,176.0,88.0,220.0,264.0,cyan,diamond
0.0,2.0,2.0,0.0,7.0,2.0,1582.1747310110368,2.0,1.0,part_3,go,0.0,0.0,0.0,234.0,6.0,39.0,234.0,156.0,195.0,117.0,78.0,cyan,diamond
0.0,8.0,4.0,1.0,7.0,2.0,1953.7031709915027,2.0,1.0,part_3,go,0.0,0.0,0.0,196.0,4.0,245.0,196.0,147.0,49.0,98.0,294.0,magenta,hexagon
0.0,7.0,3.0,1.0,7.0,3.0,1740.77856700751,2.0,1.0,part_3,go,0.0,0.0,0.0,170.0,5.0,68.0,34.0,170.0,204.0,136.0,102.0,yellow,I
0.0,3.0,3.0,0.0,7.0,3.0,1373.540150001645,2.0,1.0,part_3,go,0.0,0.0,0.0,88.0,2.0,44.0,132.0,88.0,176.0,220.0,264.0,blue,flipped triangle
0.0,7.0,3.0,1.0,7.0,5.0,2465.3461200068705,2.0,1.0,part_3,go,0.0,0.0,0.0,245.0,5.0,196.0,49.0,294.0,98.0,245.0,147.0,yellow,I
0.0,6.0,2.0,1.0,7.0,2.0,1442.1673670003656,2.0,1.0,part_3,go,0.0,0.0,0.0,44.0,1.0,88.0,44.0,132.0,176.0,264.0,220.0,green,circle
0.0,5.0,1.0,1.0,7.0,6.0,1454.8505319980904,2.0,1.0,part_3,go,0.0,0.0,0.0,49.0,1.0,245.0,147.0,196.0,98.0,294.0,49.0,orange,triangle
0.0,1.0,1.0,0.0,7.0,6.0,2413.279745989712,2.0,1.0,part_3,go,0.0,0.0,0.0,78.0,2.0,234.0,117.0,39.0,195.0,156.0,78.0,white,square
0.0,8.0,4.0,1.0,7.0,2.0,2670.149477024097,2.0,1.0,part_3,go,0.0,0.0,0.0,204.0,6.0,68.0,204.0,102.0,170.0,34.0,136.0,magenta,hexagon
0.0,1.0,1.0,0.0,7.0,5.0,2742.170319019351,2.0,1.0,part_3,go,0.0,0.0,0.0,68.0,2.0,34.0,170.0,136.0,204.0,68.0,102.0,white,square
0.0,5.0,1.0,1.0,7.0,2.0,2098.723709990736,2.0,1.0,part_3,go,0.0,0.0,0.0,78.0,2.0,117.0,78.0,156.0,39.0,234.0,195.0,orange,triangle
0.0,2.0,2.0,0.0,7.0,2.0,1919.7046530025543,2.0,1.0,part_3,go,0.0,0.0,0.0,34.0,1.0,204.0,34.0,170.0,68.0,102.0,136.0,cyan,diamond
0.0,5.0,1.0,1.0,7.0,5.0,2125.790201011114,2.0,1.0,part_3,go,0.0,0.0,0.0,156.0,4.0,234.0,78.0,39.0,117.0,156.0,195.0,orange,triangle
0.0,2.0,2.0,0.0,7.0,2.0,2474.737477983581,2.0,1.0,part_3,go,0.0,0.0,0.0,98.0,2.0,196.0,98.0,294.0,49.0,147.0,245.0,cyan,diamond
0.0,7.0,3.0,1.0,7.0,2.0,1746.3585450022947,3.0,1.0,part_3,go,0.0,0.0,0.0,216.0,4.0,270.0,216.0,54.0,162.0,108.0,324.0,yellow,I
0.0,2.0,2.0,0.0,7.0,5.0,1863.10370801948,3.0,1.0,part_3,go,0.0,0.0,0.0,156.0,4.0,78.0,234.0,195.0,39.0,156.0,117.0,cyan,diamond
0.0,7.0,3.0,1.0,7.0,3.0,1568.4262629947625,3.0,1.0,part_3,go,0.0,0.0,0.0,132.0,3.0,44.0,220.0,132.0,176.0,88.0,264.0,yellow,I
0.0,5.0,1.0,1.0,7.0,3.0,1751.2649729906116,3.0,1.0,part_3,go,0.0,0.0,0.0,44.0,1.0,176.0,88.0,44.0,132.0,264.0,220.0,orange,triangle
0.0,6.0,2.0,1.0,7.0,6.0,1356.7074979946483,3.0,1.0,part_3,go,0.0,0.0,0.0,54.0,1.0,216.0,108.0,162.0,324.0,270.0,54.0,green,circle
0.0,8.0,4.0,1.0,7.0,4.0,2089.027342997724,3.0,1.0,part_3,go,0.0,0.0,0.0,195.0,5.0,234.0,78.0,117.0,195.0,39.0,156.0,magenta,hexagon
0.0,3.0,3.0,0.0,7.0,6.0,2711.4873129758053,3.0,1.0,part_3,go,0.0,0.0,0.0,78.0,2.0,39.0,234.0,195.0,156.0,117.0,78.0,blue,flipped triangle
0.0,4.0,4.0,0.0,7.0,4.0,1618.546972022159,3.0,1.0,part_3,go,0.0,0.0,0.0,264.0,6.0,88.0,132.0,220.0,264.0,44.0,176.0,gray,cross
0.0,3.0,3.0,0.0,7.0,4.0,1925.161161023425,3.0,1.0,part_3,go,0.0,0.0,0.0,108.0,2.0,162.0,324.0,270.0,108.0,54.0,216.0,blue,flipped triangle
0.0,3.0,3.0,0.0,7.0,6.0,2183.746158989379,3.0,1.0,part_3,go,0.0,0.0,0.0,98.0,2.0,49.0,294.0,147.0,245.0,196.0,98.0,blue,flipped triangle
0.0,5.0,1.0,1.0,7.0,1.0,1609.995065984549,3.0,1.0,part_3,go,0.0,0.0,0.0,98.0,2.0,98.0,49.0,147.0,196.0,245.0,294.0,orange,triangle
0.0,1.0,1.0,0.0,7.0,3.0,2647.763134998968,3.0,1.0,part_3,go,0.0,0.0,0.0,117.0,3.0,234.0,156.0,117.0,195.0,78.0,39.0,white,square
0.0,2.0,2.0,0.0,7.0,2.0,3783.706803980749,3.0,1.0,part_3,go,0.0,0.0,0.0,147.0,3.0,49.0,147.0,294.0,98.0,196.0,245.0,cyan,diamond
0.0,1.0,1.0,0.0,7.0,4.0,2096.791122981813,3.0,1.0,part_3,go,0.0,0.0,0.0,132.0,3.0,44.0,176.0,88.0,132.0,264.0,220.0,white,square
0.0,8.0,4.0,1.0,7.0,6.0,1470.1959709927903,3.0,1.0,part_3,go,0.0,0.0,0.0,264.0,6.0,176.0,132.0,220.0,88.0,44.0,264.0,magenta,hexagon
0.0,4.0,4.0,0.0,7.0,3.0,1965.9260860062204,3.0,1.0,part_3,go,0.0,0.0,0.0,234.0,6.0,39.0,78.0,234.0,117.0,195.0,156.0,gray,cross
0.0,5.0,1.0,1.0,7.0,2.0,2169.3321429775096,3.0,1.0,part_3,go,0.0,0.0,0.0,68.0,2.0,102.0,68.0,136.0,170.0,204.0,34.0,orange,triangle
0.0,5.0,1.0,1.0,7.0,5.0,1381.215067987796,3.0,1.0,part_3,go,0.0,0.0,0.0,68.0,2.0,204.0,102.0,136.0,170.0,68.0,34.0,orange,triangle
0.0,7.0,3.0,1.0,7.0,5.0,3016.9005049974658,3.0,1.0,part_3,go,0.0,0.0,0.0,264.0,6.0,44.0,88.0,220.0,176.0,264.0,132.0,yellow,I
0.0,1.0,1.0,0.0,7.0,4.0,1487.425204977626,3.0,1.0,part_3,go,0.0,0.0,0.0,88.0,2.0,132.0,44.0,176.0,88.0,264.0,220.0,white,square
0.0,4.0,4.0,0.0,7.0,5.0,1656.0300970159003,4.0,1.0,part_3,go,0.0,0.0,0.0,270.0,5.0,54.0,108.0,162.0,216.0,270.0,324.0,gray,cross
0.0,1.0,1.0,0.0,7.0,1.0,2446.05950199184,4.0,1.0,part_3,go,0.0,0.0,0.0,98.0,2.0,98.0,147.0,49.0,245.0,294.0,196.0,white,square
0.0,3.0,3.0,0.0,7.0,5.0,1454.5307330263313,4.0,1.0,part_3,go,0.0,0.0,0.0,39.0,1.0,78.0,234.0,195.0,117.0,39.0,156.0,blue,flipped triangle
0.0,3.0,3.0,0.0,7.0,6.0,2042.0014139963314,4.0,1.0,part_3,go,0.0,0.0,0.0,68.0,2.0,34.0,102.0,170.0,204.0,136.0,68.0,blue,flipped triangle
0.0,7.0,3.0,1.0,7.0,2.0,2054.4297469896264,4.0,1.0,part_3,go,0.0,0.0,0.0,204.0,6.0,170.0,204.0,102.0,68.0,34.0,136.0,yellow,I
0.0,6.0,2.0,1.0,7.0,1.0,1752.2279290133156,4.0,1.0,part_3,go,0.0,0.0,0.0,54.0,1.0,54.0,108.0,216.0,162.0,270.0,324.0,green,circle
0.0,8.0,4.0,1.0,7.0,5.0,1629.4803530036006,4.0,1.0,part_3,go,0.0,0.0,0.0,204.0,6.0,102.0,34.0,68.0,170.0,204.0,136.0,magenta,hexagon
0.0,4.0,4.0,0.0,7.0,4.0,1742.5037359935232,4.0,1.0,part_3,go,0.0,0.0,0.0,294.0,6.0,49.0,245.0,196.0,294.0,98.0,147.0,gray,cross
0.0,1.0,1.0,0.0,7.0,4.0,1393.4570139972493,4.0,1.0,part_3,go,0.0,0.0,0.0,68.0,2.0,170.0,204.0,136.0,68.0,34.0,102.0,white,square
0.0,3.0,3.0,0.0,7.0,4.0,1394.2255209840368,4.0,1.0,part_3,go,0.0,0.0,0.0,170.0,5.0,34.0,136.0,102.0,170.0,68.0,204.0,blue,flipped triangle
0.0,4.0,4.0,0.0,7.0,5.0,2261.31559399073,4.0,1.0,part_3,go,0.0,0.0,0.0,234.0,6.0,117.0,78.0,156.0,39.0,234.0,195.0,gray,cross
0.0,5.0,1.0,1.0,7.0,2.0,1779.8025740194134,4.0,1.0,part_3,go,0.0,0.0,0.0,54.0,1.0,162.0,54.0,108.0,324.0,270.0,216.0,orange,triangle
0.0,7.0,3.0,1.0,7.0,4.0,1590.3986490156967,4.0,1.0,part_3,go,0.0,0.0,0.0,234.0,6.0,195.0,117.0,39.0,234.0,78.0,156.0,yellow,I
0.0,6.0,2.0,1.0,7.0,5.0,1263.577294012066,4.0,1.0,part_3,go,0.0,0.0,0.0,34.0,1.0,170.0,136.0,102.0,204.0,34.0,68.0,green,circle
0.0,5.0,1.0,1.0,7.0,5.0,2413.7134680058807,4.0,1.0,part_3,go,0.0,0.0,0.0,108.0,2.0,324.0,54.0,216.0,162.0,108.0,270.0,orange,triangle
0.0,1.0,1.0,0.0,7.0,6.0,2526.1711799830664,4.0,1.0,part_3,go,0.0,0.0,0.0,108.0,2.0,162.0,54.0,270.0,216.0,324.0,108.0,white,square
0.0,6.0,2.0,1.0,7.0,6.0,1299.9356359941885,4.0,1.0,part_3,go,0.0,0.0,0.0,49.0,1.0,147.0,245.0,98.0,294.0,196.0,49.0,green,circle
0.0,2.0,2.0,0.0,7.0,1.0,2122.40959200426,4.0,1.0,part_3,go,0.0,0.0,0.0,108.0,2.0,108.0,162.0,216.0,324.0,54.0,270.0,cyan,diamond
0.0,6.0,2.0,1.0,7.0,6.0,1133.8829219748732,4.0,1.0,part_3,go,0.0,0.0,0.0,39.0,1.0,195.0,234.0,117.0,156.0,78.0,39.0,green,circle
0.0,6.0,2.0,1.0,7.0,5.0,1744.0658739942592,4.0,1.0,part_3,go,0.0,0.0,0.0,39.0,1.0,78.0,156.0,234.0,117.0,39.0,195.0,green,circle
