raw_reward_magnitude,stim_reward,stepwise_reward_magnitude,paired_with_stopping,quadrant,response,reaction_time,block,num_trial_presentations,which_part,stop_signal_trial_type,left_SSD,right_SSD,accuracy,chosen_bidding_amount,chosen_bidding_level,possible_bid_1,possible_bid_2,possible_bid_3,possible_bid_4,possible_bid_5,possible_bid_6,color_text,shape_text
90.0,6.0,2.0,1.0,3.0,3.0,400.3079789690673,1.0,1.0,part_1,,,,,,,,,,,,,white,cross
101.0,6.0,2.0,1.0,4.0,4.0,412.1402169112116,1.0,1.0,part_1,,,,,,,,,,,,,white,cross
208.0,7.0,3.0,1.0,2.0,2.0,240.8499009907245,1.0,1.0,part_1,,,,,,,,,,,,,gray,I
0.0,4.0,0.0,0.0,4.0,4.0,301.4802779071033,1.0,1.0,part_1,,,,,,,,,,,,,magenta,triangle
0.0,4.0,0.0,0.0,1.0,1.0,299.6231380384415,1.0,2.0,part_1,,,,,,,,,,,,,magenta,triangle
405.0,4.0,4.0,0.0,4.0,4.0,290.2177330106497,1.0,1.0,part_1,,,,,,,,,,,,,magenta,triangle
404.0,4.0,4.0,0.0,1.0,1.0,278.035847004503,1.0,1.0,part_1,,,,,,,,,,,,,magenta,triangle
60.0,5.0,1.0,1.0,3.0,3.0,267.0534709468484,1.0,1.0,part_1,,,,,,,,,,,,,green,square
385.0,4.0,4.0,0.0,4.0,4.0,255.996597930789,1.0,1.0,part_1,,,,,,,,,,,,,magenta,triangle
41.0,1.0,1.0,0.0,2.0,2.0,224.8369362205267,1.0,1.0,part_1,,,,,,,,,,,,,blue,circle
0.0,1.0,0.0,0.0,4.0,4.0,313.9533139765262,1.0,1.0,part_1,,,,,,,,,,,,,blue,circle
104.0,6.0,2.0,1.0,2.0,2.0,257.1248768363148,1.0,1.0,part_1,,,,,,,,,,,,,white,cross
57.0,5.0,1.0,1.0,4.0,4.0,257.8831480350345,1.0,1.0,part_1,,,,,,,,,,,,,green,square
117.0,6.0,2.0,1.0,3.0,3.0,271.8978570774197,1.0,1.0,part_1,,,,,,,,,,,,,white,cross
197.0,3.0,3.0,0.0,4.0,4.0,304.8025481402874,1.0,1.0,part_1,,,,,,,,,,,,,yellow,diamond
0.0,1.0,0.0,0.0,4.0,4.0,271.8155239708721,1.0,1.0,part_1,,,,,,,,,,,,,blue,circle
208.0,3.0,3.0,0.0,2.0,2.0,240.1365530677139,1.0,1.0,part_1,,,,,,,,,,,,,yellow,diamond
90.0,6.0,2.0,1.0,4.0,4.0,252.42523103952408,1.0,1.0,part_1,,,,,,,,,,,,,white,cross
72.0,1.0,1.0,0.0,4.0,4.0,320.4946119803935,1.0,1.0,part_1,,,,,,,,,,,,,blue,circle
0.0,6.0,0.0,1.0,1.0,1.0,253.2207421027124,1.0,2.0,part_1,,,,,,,,,,,,,white,cross
0.0,7.0,0.0,1.0,2.0,2.0,320.6751949619502,1.0,1.0,part_1,,,,,,,,,,,,,gray,I
419.0,8.0,4.0,1.0,2.0,2.0,264.1008379869163,1.0,1.0,part_1,,,,,,,,,,,,,cyan,hexagon
0.0,1.0,0.0,0.0,4.0,4.0,300.0090420246124,1.0,1.0,part_1,,,,,,,,,,,,,blue,circle
225.0,3.0,3.0,0.0,1.0,1.0,288.7588541489094,1.0,1.0,part_1,,,,,,,,,,,,,yellow,diamond
0.0,7.0,0.0,1.0,3.0,3.0,321.0574199911207,1.0,1.0,part_1,,,,,,,,,,,,,gray,I
104.0,6.0,2.0,1.0,2.0,2.0,267.5079070031643,1.0,1.0,part_1,,,,,,,,,,,,,white,cross
121.0,6.0,2.0,1.0,1.0,1.0,258.6886449716985,1.0,1.0,part_1,,,,,,,,,,,,,white,cross
210.0,7.0,3.0,1.0,2.0,2.0,247.5998068694025,1.0,1.0,part_1,,,,,,,,,,,,,gray,I
0.0,7.0,0.0,1.0,3.0,3.0,279.271885054186,1.0,1.0,part_1,,,,,,,,,,,,,gray,I
89.0,2.0,2.0,0.0,4.0,4.0,336.5909489803016,1.0,1.0,part_1,,,,,,,,,,,,,orange,flipped triangle
188.0,3.0,3.0,0.0,3.0,3.0,327.0483349915594,1.0,1.0,part_1,,,,,,,,,,,,,yellow,diamond
420.0,8.0,4.0,1.0,1.0,1.0,316.9411700218916,1.0,1.0,part_1,,,,,,,,,,,,,cyan,hexagon
46.0,1.0,1.0,0.0,1.0,1.0,348.349462961778,1.0,2.0,part_1,,,,,,,,,,,,,blue,circle
0.0,6.0,0.0,1.0,1.0,1.0,271.5209769085049,1.0,1.0,part_1,,,,,,,,,,,,,white,cross
215.0,7.0,3.0,1.0,2.0,2.0,319.4751450791955,1.0,1.0,part_1,,,,,,,,,,,,,gray,I
400.0,8.0,4.0,1.0,3.0,3.0,305.1885049790144,1.0,1.0,part_1,,,,,,,,,,,,,cyan,hexagon
396.0,8.0,4.0,1.0,1.0,1.0,285.2841881103813,1.0,1.0,part_1,,,,,,,,,,,,,cyan,hexagon
407.0,4.0,4.0,0.0,3.0,3.0,351.3574451208114,1.0,1.0,part_1,,,,,,,,,,,,,magenta,triangle
194.0,3.0,3.0,0.0,1.0,1.0,274.0238010883331,1.0,1.0,part_1,,,,,,,,,,,,,yellow,diamond
119.0,6.0,2.0,1.0,4.0,4.0,286.1575139686465,1.0,1.0,part_1,,,,,,,,,,,,,white,cross
219.0,7.0,3.0,1.0,2.0,2.0,276.824101107195,1.0,1.0,part_1,,,,,,,,,,,,,gray,I
0.0,1.0,0.0,0.0,4.0,4.0,356.8203409668058,1.0,1.0,part_1,,,,,,,,,,,,,blue,circle
188.0,7.0,3.0,1.0,4.0,4.0,332.896884996444,1.0,1.0,part_1,,,,,,,,,,,,,gray,I
87.0,6.0,2.0,1.0,4.0,4.0,309.978952864185,1.0,1.0,part_1,,,,,,,,,,,,,white,cross
0.0,3.0,0.0,0.0,1.0,1.0,298.8975211046636,1.0,1.0,part_1,,,,,,,,,,,,,yellow,diamond
195.0,3.0,3.0,0.0,1.0,1.0,299.959790892899,1.0,2.0,part_1,,,,,,,,,,,,,yellow,diamond
84.0,2.0,2.0,0.0,3.0,3.0,337.7259941771626,1.0,1.0,part_1,,,,,,,,,,,,,orange,flipped triangle
75.0,1.0,1.0,0.0,2.0,2.0,267.2586590051651,1.0,1.0,part_1,,,,,,,,,,,,,blue,circle
113.0,2.0,2.0,0.0,4.0,4.0,326.4628669712692,1.0,1.0,part_1,,,,,,,,,,,,,orange,flipped triangle
106.0,2.0,2.0,0.0,3.0,3.0,292.0994649175554,1.0,2.0,part_1,,,,,,,,,,,,,orange,flipped triangle
30.0,5.0,1.0,1.0,2.0,2.0,282.096236012876,1.0,1.0,part_1,,,,,,,,,,,,,green,square
60.0,1.0,1.0,0.0,3.0,3.0,384.3490709550679,1.0,1.0,part_1,,,,,,,,,,,,,blue,circle
407.0,8.0,4.0,1.0,4.0,4.0,329.9638070166111,1.0,1.0,part_1,,,,,,,,,,,,,cyan,hexagon
104.0,6.0,2.0,1.0,3.0,3.0,340.3021160047501,1.0,1.0,part_1,,,,,,,,,,,,,white,cross
0.0,2.0,0.0,0.0,4.0,4.0,308.6706281173974,1.0,1.0,part_1,,,,,,,,,,,,,orange,flipped triangle
395.0,4.0,4.0,0.0,2.0,2.0,317.0131170190871,1.0,1.0,part_1,,,,,,,,,,,,,magenta,triangle
43.0,1.0,1.0,0.0,3.0,3.0,308.3006609231233,1.0,1.0,part_1,,,,,,,,,,,,,blue,circle
100.0,6.0,2.0,1.0,2.0,2.0,262.9345189779997,1.0,2.0,part_1,,,,,,,,,,,,,white,cross
385.0,8.0,4.0,1.0,2.0,2.0,273.8080050330609,1.0,1.0,part_1,,,,,,,,,,,,,cyan,hexagon
188.0,7.0,3.0,1.0,2.0,2.0,320.9038712084293,1.0,1.0,part_1,,,,,,,,,,,,,gray,I
104.0,2.0,2.0,0.0,3.0,3.0,333.4437650628388,1.0,1.0,part_1,,,,,,,,,,,,,orange,flipped triangle
405.0,8.0,4.0,1.0,3.0,3.0,299.0158977918327,1.0,1.0,part_1,,,,,,,,,,,,,cyan,hexagon
412.0,4.0,4.0,0.0,3.0,3.0,290.7281981315464,1.0,1.0,part_1,,,,,,,,,,,,,magenta,triangle
206.0,3.0,3.0,0.0,1.0,1.0,345.7196061499417,1.0,1.0,part_1,,,,,,,,,,,,,yellow,diamond
187.0,7.0,3.0,1.0,3.0,3.0,401.6976389102638,1.0,1.0,part_1,,,,,,,,,,,,,gray,I
74.0,5.0,1.0,1.0,4.0,4.0,347.431801026687,1.0,1.0,part_1,,,,,,,,,,,,,green,square
111.0,6.0,2.0,1.0,1.0,1.0,379.6634499449283,1.0,1.0,part_1,,,,,,,,,,,,,white,cross
182.0,7.0,3.0,1.0,1.0,1.0,392.3090388998389,1.0,1.0,part_1,,,,,,,,,,,,,gray,I
71.0,1.0,1.0,0.0,1.0,1.0,361.4954340737313,1.0,1.0,part_1,,,,,,,,,,,,,blue,circle
0.0,2.0,0.0,0.0,3.0,3.0,348.2363289222121,1.0,1.0,part_1,,,,,,,,,,,,,orange,flipped triangle
192.0,7.0,3.0,1.0,3.0,3.0,405.865732114762,1.0,1.0,part_1,,,,,,,,,,,,,gray,I
215.0,3.0,3.0,0.0,4.0,4.0,373.3182710129767,1.0,1.0,part_1,,,,,,,,,,,,,yellow,diamond
388.0,8.0,4.0,1.0,4.0,4.0,383.3108898252249,1.0,1.0,part_1,,,,,,,,,,,,,cyan,hexagon
0.0,2.0,0.0,0.0,1.0,1.0,349.737596930936,1.0,1.0,part_1,,,,,,,,,,,,,orange,flipped triangle
210.0,3.0,3.0,0.0,4.0,4.0,297.4829101003706,1.0,1.0,part_1,,,,,,,,,,,,,yellow,diamond
423.0,4.0,4.0,0.0,4.0,4.0,353.5476240795105,1.0,1.0,part_1,,,,,,,,,,,,,magenta,triangle
97.0,2.0,2.0,0.0,4.0,4.0,409.5063789281994,1.0,1.0,part_1,,,,,,,,,,,,,orange,flipped triangle
87.0,6.0,2.0,1.0,4.0,4.0,308.2906899508089,1.0,1.0,part_1,,,,,,,,,,,,,white,cross
75.0,5.0,1.0,1.0,1.0,1.0,388.6671040672809,1.0,1.0,part_1,,,,,,,,,,,,,green,square
421.0,8.0,4.0,1.0,2.0,2.0,332.1906458586454,1.0,1.0,part_1,,,,,,,,,,,,,cyan,hexagon
404.0,4.0,4.0,0.0,2.0,2.0,299.7681249398738,1.0,1.0,part_1,,,,,,,,,,,,,magenta,triangle
383.0,4.0,4.0,0.0,1.0,1.0,353.9762471336871,1.0,1.0,part_1,,,,,,,,,,,,,magenta,triangle
179.0,3.0,3.0,0.0,3.0,3.0,365.7010390888899,1.0,1.0,part_1,,,,,,,,,,,,,yellow,diamond
423.0,8.0,4.0,1.0,2.0,2.0,312.567934859544,1.0,1.0,part_1,,,,,,,,,,,,,cyan,hexagon
386.0,8.0,4.0,1.0,2.0,2.0,309.8829491063952,1.0,1.0,part_1,,,,,,,,,,,,,cyan,hexagon
0.0,1.0,0.0,0.0,4.0,4.0,346.9183810520917,1.0,1.0,part_1,,,,,,,,,,,,,blue,circle
402.0,8.0,4.0,1.0,3.0,3.0,402.3121001664549,1.0,1.0,part_1,,,,,,,,,,,,,cyan,hexagon
223.0,7.0,3.0,1.0,2.0,2.0,359.975848114118,1.0,1.0,part_1,,,,,,,,,,,,,gray,I
0.0,8.0,0.0,1.0,2.0,2.0,301.156016997993,1.0,1.0,part_1,,,,,,,,,,,,,cyan,hexagon
385.0,8.0,4.0,1.0,4.0,4.0,294.0295180305838,1.0,1.0,part_1,,,,,,,,,,,,,cyan,hexagon
32.0,5.0,1.0,1.0,4.0,4.0,349.7375659644604,1.0,1.0,part_1,,,,,,,,,,,,,green,square
204.0,7.0,3.0,1.0,4.0,4.0,361.5108791273087,1.0,1.0,part_1,,,,,,,,,,,,,gray,I
0.0,8.0,0.0,1.0,4.0,4.0,329.8542860429734,1.0,1.0,part_1,,,,,,,,,,,,,cyan,hexagon
193.0,3.0,3.0,0.0,2.0,2.0,360.2061609271914,1.0,1.0,part_1,,,,,,,,,,,,,yellow,diamond
35.0,5.0,1.0,1.0,3.0,3.0,349.9180530197918,1.0,1.0,part_1,,,,,,,,,,,,,green,square
78.0,2.0,2.0,0.0,3.0,3.0,432.3617781046778,1.0,1.0,part_1,,,,,,,,,,,,,orange,flipped triangle
0.0,5.0,0.0,1.0,4.0,4.0,388.5116709861904,1.0,1.0,part_1,,,,,,,,,,,,,green,square
0.0,5.0,0.0,1.0,2.0,2.0,308.1839138176292,1.0,1.0,part_1,,,,,,,,,,,,,green,square
0.0,7.0,0.0,1.0,4.0,4.0,342.0074889436364,1.0,1.0,part_1,,,,,,,,,,,,,gray,I
124.0,6.0,2.0,1.0,4.0,4.0,299.2125020828098,1.0,1.0,part_1,,,,,,,,,,,,,white,cross
76.0,6.0,2.0,1.0,3.0,3.0,340.3918978292495,2.0,1.0,part_1,,,,,,,,,,,,,white,cross
30.0,1.0,1.0,0.0,3.0,3.0,375.0430440995842,2.0,1.0,part_1,,,,,,,,,,,,,blue,circle
0.0,1.0,0.0,0.0,4.0,4.0,319.0925661474466,2.0,1.0,part_1,,,,,,,,,,,,,blue,circle
0.0,5.0,0.0,1.0,3.0,3.0,319.7096150834113,2.0,1.0,part_1,,,,,,,,,,,,,green,square
0.0,7.0,0.0,1.0,3.0,3.0,353.4092400223017,2.0,1.0,part_1,,,,,,,,,,,,,gray,I
41.0,5.0,1.0,1.0,4.0,4.0,309.2637758236378,2.0,1.0,part_1,,,,,,,,,,,,,green,square
206.0,7.0,3.0,1.0,4.0,4.0,344.4462309125811,2.0,1.0,part_1,,,,,,,,,,,,,gray,I
204.0,3.0,3.0,0.0,4.0,4.0,267.957127885893,2.0,1.0,part_1,,,,,,,,,,,,,yellow,diamond
40.0,1.0,1.0,0.0,2.0,2.0,311.42346002161497,2.0,2.0,part_1,,,,,,,,,,,,,blue,circle
90.0,2.0,2.0,0.0,1.0,1.0,336.2284149043262,2.0,1.0,part_1,,,,,,,,,,,,,orange,flipped triangle
0.0,5.0,0.0,1.0,4.0,4.0,370.1508319936692,2.0,1.0,part_1,,,,,,,,,,,,,green,square
32.0,1.0,1.0,0.0,3.0,3.0,514.9746199604124,2.0,1.0,part_1,,,,,,,,,,,,,blue,circle
0.0,4.0,0.0,0.0,2.0,2.0,304.6498610638082,2.0,1.0,part_1,,,,,,,,,,,,,magenta,triangle
67.0,5.0,1.0,1.0,2.0,2.0,358.4516190458089,2.0,1.0,part_1,,,,,,,,,,,,,green,square
81.0,2.0,2.0,0.0,3.0,3.0,328.3511779736727,2.0,1.0,part_1,,,,,,,,,,,,,orange,flipped triangle
414.0,4.0,4.0,0.0,1.0,1.0,293.6251780483871,2.0,1.0,part_1,,,,,,,,,,,,,magenta,triangle
386.0,4.0,4.0,0.0,1.0,1.0,326.7886820249259,2.0,1.0,part_1,,,,,,,,,,,,,magenta,triangle
35.0,5.0,1.0,1.0,2.0,2.0,394.2087991163134,2.0,1.0,part_1,,,,,,,,,,,,,green,square
50.0,1.0,1.0,0.0,3.0,3.0,319.9077199678868,2.0,1.0,part_1,,,,,,,,,,,,,blue,circle
72.0,5.0,1.0,1.0,4.0,4.0,353.9810760412365,2.0,1.0,part_1,,,,,,,,,,,,,green,square
210.0,3.0,3.0,0.0,2.0,2.0,340.2441248763352,2.0,1.0,part_1,,,,,,,,,,,,,yellow,diamond
111.0,2.0,2.0,0.0,3.0,3.0,351.8020799383521,2.0,1.0,part_1,,,,,,,,,,,,,orange,flipped triangle
387.0,8.0,4.0,1.0,1.0,1.0,366.1583720240742,2.0,1.0,part_1,,,,,,,,,,,,,cyan,hexagon
405.0,8.0,4.0,1.0,4.0,4.0,376.3229809701442,2.0,1.0,part_1,,,,,,,,,,,,,cyan,hexagon
49.0,5.0,1.0,1.0,3.0,3.0,398.9015188999474,2.0,1.0,part_1,,,,,,,,,,,,,green,square
66.0,5.0,1.0,1.0,3.0,3.0,342.9662098642438,2.0,1.0,part_1,,,,,,,,,,,,,green,square
101.0,2.0,2.0,0.0,2.0,2.0,309.3908890150487,2.0,1.0,part_1,,,,,,,,,,,,,orange,flipped triangle
210.0,7.0,3.0,1.0,1.0,1.0,458.4450728725642,2.0,1.0,part_1,,,,,,,,,,,,,gray,I
195.0,3.0,3.0,0.0,4.0,4.0,356.3704509288072,2.0,1.0,part_1,,,,,,,,,,,,,yellow,diamond
87.0,2.0,2.0,0.0,2.0,2.0,345.1661050785333,2.0,1.0,part_1,,,,,,,,,,,,,orange,flipped triangle
101.0,6.0,2.0,1.0,1.0,1.0,312.2868079226464,2.0,1.0,part_1,,,,,,,,,,,,,white,cross
50.0,5.0,1.0,1.0,1.0,1.0,304.3880879413336,2.0,1.0,part_1,,,,,,,,,,,,,green,square
191.0,3.0,3.0,0.0,3.0,3.0,381.973581854254,2.0,1.0,part_1,,,,,,,,,,,,,yellow,diamond
222.0,7.0,3.0,1.0,4.0,4.0,327.2723290137946,2.0,1.0,part_1,,,,,,,,,,,,,gray,I
33.0,1.0,1.0,0.0,2.0,2.0,292.7735021803528,2.0,1.0,part_1,,,,,,,,,,,,,blue,circle
29.0,5.0,1.0,1.0,3.0,3.0,350.5004798062145,2.0,1.0,part_1,,,,,,,,,,,,,green,square
0.0,2.0,0.0,0.0,3.0,3.0,361.6514250170439,2.0,1.0,part_1,,,,,,,,,,,,,orange,flipped triangle
115.0,2.0,2.0,0.0,4.0,4.0,416.0723080858588,2.0,1.0,part_1,,,,,,,,,,,,,orange,flipped triangle
112.0,2.0,2.0,0.0,2.0,2.0,316.4842519909143,2.0,1.0,part_1,,,,,,,,,,,,,orange,flipped triangle
62.0,1.0,1.0,0.0,4.0,4.0,297.2119459882378,2.0,1.0,part_1,,,,,,,,,,,,,blue,circle
387.0,4.0,4.0,0.0,4.0,4.0,328.6203288007527,2.0,1.0,part_1,,,,,,,,,,,,,magenta,triangle
92.0,2.0,2.0,0.0,2.0,2.0,329.2958219535649,2.0,1.0,part_1,,,,,,,,,,,,,orange,flipped triangle
61.0,5.0,1.0,1.0,1.0,1.0,388.0189610645175,2.0,1.0,part_1,,,,,,,,,,,,,green,square
74.0,1.0,1.0,0.0,2.0,2.0,284.3933240510523,2.0,1.0,part_1,,,,,,,,,,,,,blue,circle
417.0,4.0,4.0,0.0,3.0,3.0,311.3274399656802,2.0,1.0,part_1,,,,,,,,,,,,,magenta,triangle
206.0,7.0,3.0,1.0,4.0,4.0,320.8062739577144,2.0,1.0,part_1,,,,,,,,,,,,,gray,I
61.0,1.0,1.0,0.0,1.0,1.0,342.5190031994134,2.0,1.0,part_1,,,,,,,,,,,,,blue,circle
0.0,3.0,0.0,0.0,3.0,3.0,287.5142840202898,2.0,1.0,part_1,,,,,,,,,,,,,yellow,diamond
59.0,5.0,1.0,1.0,4.0,4.0,311.8945630267262,2.0,1.0,part_1,,,,,,,,,,,,,green,square
392.0,8.0,4.0,1.0,2.0,2.0,324.5564938988536,2.0,1.0,part_1,,,,,,,,,,,,,cyan,hexagon
36.0,1.0,1.0,0.0,1.0,1.0,367.3958498984575,2.0,1.0,part_1,,,,,,,,,,,,,blue,circle
84.0,6.0,2.0,1.0,4.0,4.0,312.7126640174538,2.0,1.0,part_1,,,,,,,,,,,,,white,cross
28.0,1.0,1.0,0.0,4.0,4.0,390.2157610282302,2.0,1.0,part_1,,,,,,,,,,,,,blue,circle
412.0,8.0,4.0,1.0,1.0,1.0,360.8087310567498,2.0,1.0,part_1,,,,,,,,,,,,,cyan,hexagon
78.0,6.0,2.0,1.0,3.0,3.0,348.7360838335007,2.0,1.0,part_1,,,,,,,,,,,,,white,cross
31.0,5.0,1.0,1.0,2.0,2.0,325.3565730992704,2.0,1.0,part_1,,,,,,,,,,,,,green,square
404.0,8.0,4.0,1.0,1.0,1.0,449.6324160136282,2.0,1.0,part_1,,,,,,,,,,,,,cyan,hexagon
0.0,7.0,0.0,1.0,2.0,2.0,394.1982730757445,2.0,1.0,part_1,,,,,,,,,,,,,gray,I
115.0,2.0,2.0,0.0,4.0,4.0,337.2113672085106,2.0,1.0,part_1,,,,,,,,,,,,,orange,flipped triangle
44.0,1.0,1.0,0.0,4.0,4.0,394.3844379391521,2.0,1.0,part_1,,,,,,,,,,,,,blue,circle
76.0,2.0,2.0,0.0,2.0,2.0,406.8268809933215,2.0,1.0,part_1,,,,,,,,,,,,,orange,flipped triangle
32.0,5.0,1.0,1.0,2.0,2.0,394.8194889817387,2.0,1.0,part_1,,,,,,,,,,,,,green,square
66.0,1.0,1.0,0.0,4.0,4.0,398.358445148915,2.0,1.0,part_1,,,,,,,,,,,,,blue,circle
209.0,7.0,3.0,1.0,4.0,4.0,342.8332170005888,2.0,1.0,part_1,,,,,,,,,,,,,gray,I
59.0,1.0,1.0,0.0,2.0,2.0,318.1858041789382,2.0,1.0,part_1,,,,,,,,,,,,,blue,circle
219.0,3.0,3.0,0.0,1.0,1.0,356.2843108084053,2.0,1.0,part_1,,,,,,,,,,,,,yellow,diamond
422.0,4.0,4.0,0.0,4.0,4.0,345.1542549300939,2.0,1.0,part_1,,,,,,,,,,,,,magenta,triangle
410.0,4.0,4.0,0.0,3.0,3.0,423.197875963524,2.0,1.0,part_1,,,,,,,,,,,,,magenta,triangle
62.0,5.0,1.0,1.0,3.0,3.0,300.1729738898575,2.0,1.0,part_1,,,,,,,,,,,,,green,square
71.0,5.0,1.0,1.0,3.0,3.0,264.7078649606555,2.0,1.0,part_1,,,,,,,,,,,,,green,square
80.0,6.0,2.0,1.0,4.0,4.0,333.4035510197282,2.0,1.0,part_1,,,,,,,,,,,,,white,cross
424.0,4.0,4.0,0.0,1.0,1.0,322.3385631572455,2.0,1.0,part_1,,,,,,,,,,,,,magenta,triangle
0.0,2.0,0.0,0.0,1.0,1.0,302.6966990437358,2.0,1.0,part_1,,,,,,,,,,,,,orange,flipped triangle
0.0,7.0,0.0,1.0,3.0,3.0,357.4727729428559,2.0,1.0,part_1,,,,,,,,,,,,,gray,I
210.0,7.0,3.0,1.0,1.0,1.0,525.6371281575412,2.0,1.0,part_1,,,,,,,,,,,,,gray,I
113.0,6.0,2.0,1.0,4.0,4.0,316.1851719487458,2.0,1.0,part_1,,,,,,,,,,,,,white,cross
0.0,3.0,0.0,0.0,3.0,3.0,303.2254970166832,2.0,1.0,part_1,,,,,,,,,,,,,yellow,diamond
66.0,5.0,1.0,1.0,1.0,1.0,291.3910991046577,2.0,1.0,part_1,,,,,,,,,,,,,green,square
100.0,6.0,2.0,1.0,1.0,1.0,326.2349551077932,2.0,1.0,part_1,,,,,,,,,,,,,white,cross
99.0,6.0,2.0,1.0,2.0,2.0,292.7407019305974,2.0,1.0,part_1,,,,,,,,,,,,,white,cross
78.0,6.0,2.0,1.0,1.0,1.0,307.0324370637536,2.0,1.0,part_1,,,,,,,,,,,,,white,cross
100.0,2.0,2.0,0.0,4.0,4.0,315.9749859478324,2.0,1.0,part_1,,,,,,,,,,,,,orange,flipped triangle
211.0,3.0,3.0,0.0,2.0,2.0,327.250394038856,2.0,1.0,part_1,,,,,,,,,,,,,yellow,diamond
0.0,5.0,0.0,1.0,1.0,1.0,317.0515440870076,2.0,1.0,part_1,,,,,,,,,,,,,green,square
99.0,2.0,2.0,0.0,1.0,1.0,385.0235920399427,2.0,1.0,part_1,,,,,,,,,,,,,orange,flipped triangle
71.0,1.0,1.0,0.0,4.0,4.0,329.3551160022616,2.0,1.0,part_1,,,,,,,,,,,,,blue,circle
188.0,3.0,3.0,0.0,4.0,4.0,319.6272219065577,2.0,1.0,part_1,,,,,,,,,,,,,yellow,diamond
120.0,6.0,2.0,1.0,1.0,1.0,277.7925820555538,2.0,2.0,part_1,,,,,,,,,,,,,white,cross
0.0,4.0,0.0,0.0,4.0,4.0,353.8397110532969,2.0,1.0,part_1,,,,,,,,,,,,,magenta,triangle
0.0,8.0,0.0,1.0,4.0,4.0,344.1659351810813,2.0,1.0,part_1,,,,,,,,,,,,,cyan,hexagon
71.0,5.0,1.0,1.0,4.0,4.0,298.8354458939284,2.0,1.0,part_1,,,,,,,,,,,,,green,square
380.0,4.0,4.0,0.0,1.0,1.0,369.2794111557305,2.0,1.0,part_1,,,,,,,,,,,,,magenta,triangle
396.0,4.0,4.0,0.0,3.0,3.0,358.6258180439472,2.0,1.0,part_1,,,,,,,,,,,,,magenta,triangle
385.0,4.0,4.0,0.0,1.0,1.0,300.5788279697299,2.0,1.0,part_1,,,,,,,,,,,,,magenta,triangle
0.0,3.0,0.0,0.0,1.0,1.0,359.2442271765321,2.0,1.0,part_1,,,,,,,,,,,,,yellow,diamond
40.0,5.0,1.0,1.0,2.0,2.0,370.4000310972333,2.0,1.0,part_1,,,,,,,,,,,,,green,square
377.0,8.0,4.0,1.0,2.0,2.0,314.0955530107021,2.0,1.0,part_1,,,,,,,,,,,,,cyan,hexagon
80.0,2.0,2.0,0.0,1.0,1.0,371.1956080514937,2.0,1.0,part_1,,,,,,,,,,,,,orange,flipped triangle
53.0,1.0,1.0,0.0,3.0,3.0,362.347420072183,2.0,1.0,part_1,,,,,,,,,,,,,blue,circle
70.0,1.0,1.0,0.0,4.0,4.0,374.925245065242,2.0,1.0,part_1,,,,,,,,,,,,,blue,circle
30.0,5.0,1.0,1.0,3.0,3.0,338.7527980376035,3.0,1.0,part_1,,,,,,,,,,,,,green,square
110.0,2.0,2.0,0.0,1.0,1.0,404.9248050432652,3.0,1.0,part_1,,,,,,,,,,,,,orange,flipped triangle
0.0,8.0,0.0,1.0,4.0,4.0,327.8957039583474,3.0,1.0,part_1,,,,,,,,,,,,,cyan,hexagon
0.0,5.0,0.0,1.0,4.0,4.0,294.349123025313,3.0,1.0,part_1,,,,,,,,,,,,,green,square
200.0,7.0,3.0,1.0,3.0,3.0,282.7238510362804,3.0,1.0,part_1,,,,,,,,,,,,,gray,I
223.0,3.0,3.0,0.0,3.0,3.0,318.4137470088899,3.0,1.0,part_1,,,,,,,,,,,,,yellow,diamond
419.0,8.0,4.0,1.0,1.0,1.0,365.0868129916489,3.0,1.0,part_1,,,,,,,,,,,,,cyan,hexagon
0.0,3.0,0.0,0.0,2.0,2.0,328.0306521337479,3.0,1.0,part_1,,,,,,,,,,,,,yellow,diamond
198.0,3.0,3.0,0.0,2.0,2.0,317.8945309482515,3.0,1.0,part_1,,,,,,,,,,,,,yellow,diamond
101.0,2.0,2.0,0.0,1.0,1.0,262.605631025508,3.0,1.0,part_1,,,,,,,,,,,,,orange,flipped triangle
379.0,8.0,4.0,1.0,4.0,4.0,479.644943960011,3.0,1.0,part_1,,,,,,,,,,,,,cyan,hexagon
92.0,6.0,2.0,1.0,2.0,2.0,308.041526004672,3.0,1.0,part_1,,,,,,,,,,,,,white,cross
0.0,8.0,0.0,1.0,4.0,4.0,289.9468149989843,3.0,1.0,part_1,,,,,,,,,,,,,cyan,hexagon
181.0,3.0,3.0,0.0,4.0,4.0,300.7732089608907,3.0,1.0,part_1,,,,,,,,,,,,,yellow,diamond
0.0,8.0,0.0,1.0,4.0,4.0,290.0653770193457,3.0,1.0,part_1,,,,,,,,,,,,,cyan,hexagon
0.0,8.0,0.0,1.0,1.0,1.0,434.8024178761989,3.0,1.0,part_1,,,,,,,,,,,,,cyan,hexagon
31.0,1.0,1.0,0.0,1.0,1.0,314.1101768705994,3.0,1.0,part_1,,,,,,,,,,,,,blue,circle
182.0,3.0,3.0,0.0,2.0,2.0,288.7543339747935,3.0,2.0,part_1,,,,,,,,,,,,,yellow,diamond
120.0,2.0,2.0,0.0,4.0,4.0,349.9964901711792,3.0,1.0,part_1,,,,,,,,,,,,,orange,flipped triangle
49.0,1.0,1.0,0.0,1.0,1.0,292.5569680519402,3.0,1.0,part_1,,,,,,,,,,,,,blue,circle
220.0,7.0,3.0,1.0,3.0,3.0,360.6995700392872,3.0,1.0,part_1,,,,,,,,,,,,,gray,I
0.0,4.0,0.0,0.0,2.0,2.0,325.5350429099053,3.0,1.0,part_1,,,,,,,,,,,,,magenta,triangle
53.0,5.0,1.0,1.0,1.0,1.0,302.8453299775719,3.0,1.0,part_1,,,,,,,,,,,,,green,square
379.0,4.0,4.0,0.0,2.0,2.0,329.4195451308042,3.0,1.0,part_1,,,,,,,,,,,,,magenta,triangle
177.0,7.0,3.0,1.0,2.0,2.0,340.2007247786969,3.0,1.0,part_1,,,,,,,,,,,,,gray,I
417.0,8.0,4.0,1.0,3.0,3.0,329.4406880158931,3.0,1.0,part_1,,,,,,,,,,,,,cyan,hexagon
58.0,5.0,1.0,1.0,4.0,4.0,318.6825320590287,3.0,1.0,part_1,,,,,,,,,,,,,green,square
0.0,1.0,0.0,0.0,3.0,3.0,318.853602046147,3.0,1.0,part_1,,,,,,,,,,,,,blue,circle
393.0,4.0,4.0,0.0,1.0,1.0,352.6049018837511,3.0,1.0,part_1,,,,,,,,,,,,,magenta,triangle
35.0,1.0,1.0,0.0,4.0,4.0,343.9741930924356,3.0,1.0,part_1,,,,,,,,,,,,,blue,circle
388.0,4.0,4.0,0.0,3.0,3.0,333.4106290712952,3.0,1.0,part_1,,,,,,,,,,,,,magenta,triangle
0.0,5.0,0.0,1.0,1.0,1.0,321.003712946549,3.0,1.0,part_1,,,,,,,,,,,,,green,square
90.0,2.0,2.0,0.0,2.0,2.0,490.8561429474503,3.0,1.0,part_1,,,,,,,,,,,,,orange,flipped triangle
392.0,4.0,4.0,0.0,4.0,4.0,300.6891261320561,3.0,1.0,part_1,,,,,,,,,,,,,magenta,triangle
49.0,5.0,1.0,1.0,3.0,3.0,379.6966997906565,3.0,1.0,part_1,,,,,,,,,,,,,green,square
76.0,2.0,2.0,0.0,4.0,4.0,650.0556808896363,3.0,1.0,part_1,,,,,,,,,,,,,orange,flipped triangle
123.0,6.0,2.0,1.0,1.0,1.0,437.0863498188555,3.0,1.0,part_1,,,,,,,,,,,,,white,cross
50.0,1.0,1.0,0.0,2.0,2.0,314.4730869680643,3.0,1.0,part_1,,,,,,,,,,,,,blue,circle
410.0,8.0,4.0,1.0,3.0,3.0,323.3467158861458,3.0,1.0,part_1,,,,,,,,,,,,,cyan,hexagon
0.0,4.0,0.0,0.0,2.0,2.0,334.4159498810768,3.0,1.0,part_1,,,,,,,,,,,,,magenta,triangle
76.0,6.0,2.0,1.0,1.0,1.0,348.4046121593565,3.0,1.0,part_1,,,,,,,,,,,,,white,cross
201.0,3.0,3.0,0.0,1.0,1.0,370.5199740361422,3.0,1.0,part_1,,,,,,,,,,,,,yellow,diamond
28.0,5.0,1.0,1.0,2.0,2.0,291.201728163287,3.0,1.0,part_1,,,,,,,,,,,,,green,square
380.0,4.0,4.0,0.0,2.0,2.0,305.5627681314945,3.0,1.0,part_1,,,,,,,,,,,,,magenta,triangle
0.0,8.0,0.0,1.0,1.0,1.0,373.4396861400455,3.0,1.0,part_1,,,,,,,,,,,,,cyan,hexagon
85.0,2.0,2.0,0.0,2.0,2.0,259.2574490699917,3.0,1.0,part_1,,,,,,,,,,,,,orange,flipped triangle
201.0,7.0,3.0,1.0,3.0,3.0,315.5374499037862,3.0,1.0,part_1,,,,,,,,,,,,,gray,I
0.0,6.0,0.0,1.0,3.0,3.0,320.286360103637,3.0,1.0,part_1,,,,,,,,,,,,,white,cross
78.0,2.0,2.0,0.0,3.0,3.0,409.1153449844569,3.0,1.0,part_1,,,,,,,,,,,,,orange,flipped triangle
208.0,3.0,3.0,0.0,3.0,3.0,306.9387068971991,3.0,1.0,part_1,,,,,,,,,,,,,yellow,diamond
0.0,7.0,0.0,1.0,4.0,4.0,341.2190950475633,3.0,1.0,part_1,,,,,,,,,,,,,gray,I
0.0,6.0,0.0,1.0,1.0,1.0,351.8656468950212,3.0,1.0,part_1,,,,,,,,,,,,,white,cross
421.0,4.0,4.0,0.0,2.0,2.0,285.7592389918864,3.0,1.0,part_1,,,,,,,,,,,,,magenta,triangle
0.0,7.0,0.0,1.0,2.0,2.0,297.2341780550778,3.0,1.0,part_1,,,,,,,,,,,,,gray,I
195.0,7.0,3.0,1.0,1.0,1.0,344.4556021131575,3.0,1.0,part_1,,,,,,,,,,,,,gray,I
419.0,4.0,4.0,0.0,3.0,3.0,538.3462430909276,3.0,1.0,part_1,,,,,,,,,,,,,magenta,triangle
419.0,4.0,4.0,0.0,1.0,1.0,368.6863898765296,3.0,1.0,part_1,,,,,,,,,,,,,magenta,triangle
208.0,7.0,3.0,1.0,4.0,4.0,390.422053867951,3.0,1.0,part_1,,,,,,,,,,,,,gray,I
0.0,8.0,0.0,1.0,1.0,1.0,356.163137126714,3.0,1.0,part_1,,,,,,,,,,,,,cyan,hexagon
89.0,6.0,2.0,1.0,2.0,2.0,337.7077342011034,3.0,1.0,part_1,,,,,,,,,,,,,white,cross
49.0,1.0,1.0,0.0,2.0,2.0,300.555856898427,3.0,1.0,part_1,,,,,,,,,,,,,blue,circle
0.0,2.0,0.0,0.0,3.0,3.0,338.4103269781917,3.0,1.0,part_1,,,,,,,,,,,,,orange,flipped triangle
0.0,6.0,0.0,1.0,2.0,2.0,338.8089591171592,3.0,1.0,part_1,,,,,,,,,,,,,white,cross
206.0,3.0,3.0,0.0,3.0,3.0,351.0524230077863,3.0,1.0,part_1,,,,,,,,,,,,,yellow,diamond
386.0,8.0,4.0,1.0,2.0,2.0,325.0151530373841,3.0,1.0,part_1,,,,,,,,,,,,,cyan,hexagon
377.0,8.0,4.0,1.0,3.0,3.0,373.7888589967042,3.0,1.0,part_1,,,,,,,,,,,,,cyan,hexagon
393.0,8.0,4.0,1.0,2.0,2.0,330.5322881788015,3.0,1.0,part_1,,,,,,,,,,,,,cyan,hexagon
402.0,4.0,4.0,0.0,2.0,2.0,273.1298170983791,3.0,1.0,part_1,,,,,,,,,,,,,magenta,triangle
117.0,2.0,2.0,0.0,4.0,4.0,361.7379330098629,3.0,1.0,part_1,,,,,,,,,,,,,orange,flipped triangle
388.0,8.0,4.0,1.0,3.0,3.0,320.5924499779939,3.0,1.0,part_1,,,,,,,,,,,,,cyan,hexagon
81.0,6.0,2.0,1.0,3.0,3.0,283.6991378571838,3.0,1.0,part_1,,,,,,,,,,,,,white,cross
192.0,3.0,3.0,0.0,2.0,2.0,320.9181430283934,3.0,1.0,part_1,,,,,,,,,,,,,yellow,diamond
177.0,3.0,3.0,0.0,1.0,1.0,377.033525146544,3.0,1.0,part_1,,,,,,,,,,,,,yellow,diamond
220.0,3.0,3.0,0.0,3.0,3.0,298.7259270157665,3.0,1.0,part_1,,,,,,,,,,,,,yellow,diamond
0.0,6.0,0.0,1.0,3.0,3.0,287.9434290807694,3.0,1.0,part_1,,,,,,,,,,,,,white,cross
211.0,7.0,3.0,1.0,3.0,3.0,320.8300289697945,3.0,1.0,part_1,,,,,,,,,,,,,gray,I
0.0,6.0,0.0,1.0,2.0,2.0,333.9907310437411,3.0,1.0,part_1,,,,,,,,,,,,,white,cross
112.0,6.0,2.0,1.0,2.0,2.0,320.8043009508401,3.0,1.0,part_1,,,,,,,,,,,,,white,cross
115.0,6.0,2.0,1.0,4.0,4.0,335.8949988614768,3.0,1.0,part_1,,,,,,,,,,,,,white,cross
31.0,5.0,1.0,1.0,4.0,4.0,336.2533638719469,3.0,1.0,part_1,,,,,,,,,,,,,green,square
32.0,1.0,1.0,0.0,3.0,3.0,326.4375748112798,3.0,1.0,part_1,,,,,,,,,,,,,blue,circle
396.0,8.0,4.0,1.0,4.0,4.0,289.8205081000924,3.0,1.0,part_1,,,,,,,,,,,,,cyan,hexagon
106.0,6.0,2.0,1.0,2.0,2.0,280.6624940130859,3.0,1.0,part_1,,,,,,,,,,,,,white,cross
108.0,6.0,2.0,1.0,3.0,3.0,460.099030053243,3.0,1.0,part_1,,,,,,,,,,,,,white,cross
408.0,8.0,4.0,1.0,3.0,3.0,426.6669319476932,3.0,1.0,part_1,,,,,,,,,,,,,cyan,hexagon
30.0,1.0,1.0,0.0,3.0,3.0,292.5059478729963,3.0,1.0,part_1,,,,,,,,,,,,,blue,circle
70.0,5.0,1.0,1.0,2.0,2.0,419.143286999315,3.0,1.0,part_1,,,,,,,,,,,,,green,square
0.0,1.0,0.0,0.0,4.0,4.0,318.9552430994808,3.0,1.0,part_1,,,,,,,,,,,,,blue,circle
383.0,8.0,4.0,1.0,4.0,4.0,387.4664809554815,3.0,1.0,part_1,,,,,,,,,,,,,cyan,hexagon
66.0,1.0,1.0,0.0,2.0,2.0,305.2565809339285,3.0,1.0,part_1,,,,,,,,,,,,,blue,circle
68.0,1.0,1.0,0.0,1.0,1.0,387.0612098835408,3.0,2.0,part_1,,,,,,,,,,,,,blue,circle
179.0,7.0,3.0,1.0,1.0,1.0,365.6534219626337,3.0,1.0,part_1,,,,,,,,,,,,,gray,I
217.0,3.0,3.0,0.0,1.0,1.0,332.7660949435085,3.0,1.0,part_1,,,,,,,,,,,,,yellow,diamond
209.0,3.0,3.0,0.0,1.0,1.0,321.9964699819684,3.0,1.0,part_1,,,,,,,,,,,,,yellow,diamond
52.0,1.0,1.0,0.0,4.0,4.0,490.2885619085282,3.0,1.0,part_1,,,,,,,,,,,,,blue,circle
388.0,4.0,4.0,0.0,2.0,2.0,320.9772759582847,3.0,1.0,part_1,,,,,,,,,,,,,magenta,triangle
68.0,5.0,1.0,1.0,1.0,1.0,389.4366559106856,3.0,1.0,part_1,,,,,,,,,,,,,green,square
0.0,6.0,0.0,1.0,1.0,1.0,446.8568360898644,3.0,1.0,part_1,,,,,,,,,,,,,white,cross
187.0,7.0,3.0,1.0,1.0,1.0,391.6256688535213,3.0,1.0,part_1,,,,,,,,,,,,,gray,I
182.0,3.0,3.0,0.0,2.0,2.0,312.3500088695436,3.0,1.0,part_1,,,,,,,,,,,,,yellow,diamond
380.0,8.0,4.0,1.0,4.0,4.0,328.5140129737556,4.0,1.0,part_1,,,,,,,,,,,,,cyan,hexagon
179.0,7.0,3.0,1.0,2.0,2.0,318.1968489661813,4.0,1.0,part_1,,,,,,,,,,,,,gray,I
0.0,3.0,0.0,0.0,2.0,2.0,283.1805478781461,4.0,1.0,part_1,,,,,,,,,,,,,yellow,diamond
204.0,3.0,3.0,0.0,4.0,4.0,307.2567600756883,4.0,1.0,part_1,,,,,,,,,,,,,yellow,diamond
109.0,2.0,2.0,0.0,2.0,2.0,294.4293690379709,4.0,1.0,part_1,,,,,,,,,,,,,orange,flipped triangle
90.0,6.0,2.0,1.0,1.0,1.0,307.9840689897537,4.0,1.0,part_1,,,,,,,,,,,,,white,cross
58.0,1.0,1.0,0.0,3.0,3.0,419.4196839816868,4.0,1.0,part_1,,,,,,,,,,,,,blue,circle
29.0,1.0,1.0,0.0,3.0,3.0,366.8295219540596,4.0,2.0,part_1,,,,,,,,,,,,,blue,circle
375.0,8.0,4.0,1.0,4.0,4.0,330.5942709557712,4.0,1.0,part_1,,,,,,,,,,,,,cyan,hexagon
404.0,4.0,4.0,0.0,1.0,1.0,343.3533092029392,4.0,1.0,part_1,,,,,,,,,,,,,magenta,triangle
0.0,3.0,0.0,0.0,1.0,1.0,288.6600759811699,4.0,1.0,part_1,,,,,,,,,,,,,yellow,diamond
396.0,4.0,4.0,0.0,4.0,4.0,523.0815440881997,4.0,1.0,part_1,,,,,,,,,,,,,magenta,triangle
408.0,4.0,4.0,0.0,4.0,4.0,310.4490200057626,4.0,1.0,part_1,,,,,,,,,,,,,magenta,triangle
386.0,4.0,4.0,0.0,4.0,4.0,321.8617790844291,4.0,1.0,part_1,,,,,,,,,,,,,magenta,triangle
97.0,6.0,2.0,1.0,2.0,2.0,380.5740938987583,4.0,1.0,part_1,,,,,,,,,,,,,white,cross
52.0,5.0,1.0,1.0,2.0,2.0,345.0045180507004,4.0,1.0,part_1,,,,,,,,,,,,,green,square
405.0,4.0,4.0,0.0,3.0,3.0,447.0250478480011,4.0,1.0,part_1,,,,,,,,,,,,,magenta,triangle
0.0,3.0,0.0,0.0,2.0,2.0,370.2031709253788,4.0,1.0,part_1,,,,,,,,,,,,,yellow,diamond
191.0,7.0,3.0,1.0,1.0,1.0,417.9418561980128,4.0,1.0,part_1,,,,,,,,,,,,,gray,I
67.0,1.0,1.0,0.0,1.0,1.0,316.6143861599266,4.0,1.0,part_1,,,,,,,,,,,,,blue,circle
29.0,5.0,1.0,1.0,1.0,1.0,350.5223330575973,4.0,1.0,part_1,,,,,,,,,,,,,green,square
46.0,5.0,1.0,1.0,1.0,1.0,295.6407549791038,4.0,1.0,part_1,,,,,,,,,,,,,green,square
395.0,8.0,4.0,1.0,1.0,1.0,329.5737081207335,4.0,1.0,part_1,,,,,,,,,,,,,cyan,hexagon
0.0,8.0,0.0,1.0,3.0,3.0,361.4681458566338,4.0,1.0,part_1,,,,,,,,,,,,,cyan,hexagon
0.0,7.0,0.0,1.0,4.0,4.0,417.6894959527999,4.0,1.0,part_1,,,,,,,,,,,,,gray,I
0.0,6.0,0.0,1.0,3.0,3.0,362.9457161296159,4.0,1.0,part_1,,,,,,,,,,,,,white,cross
35.0,1.0,1.0,0.0,4.0,4.0,532.9317399300635,4.0,1.0,part_1,,,,,,,,,,,,,blue,circle
377.0,4.0,4.0,0.0,4.0,4.0,340.5756519641727,4.0,1.0,part_1,,,,,,,,,,,,,magenta,triangle
0.0,2.0,0.0,0.0,2.0,2.0,385.9613270033151,4.0,1.0,part_1,,,,,,,,,,,,,orange,flipped triangle
217.0,7.0,3.0,1.0,3.0,3.0,310.7543729711324,4.0,1.0,part_1,,,,,,,,,,,,,gray,I
0.0,5.0,0.0,1.0,2.0,2.0,344.9733080342412,4.0,1.0,part_1,,,,,,,,,,,,,green,square
179.0,3.0,3.0,0.0,3.0,3.0,331.6736940760165,4.0,1.0,part_1,,,,,,,,,,,,,yellow,diamond
33.0,5.0,1.0,1.0,2.0,2.0,278.0966248828918,4.0,1.0,part_1,,,,,,,,,,,,,green,square
197.0,7.0,3.0,1.0,1.0,1.0,312.1448310557753,4.0,1.0,part_1,,,,,,,,,,,,,gray,I
375.0,4.0,4.0,0.0,2.0,2.0,299.7465808875859,4.0,1.0,part_1,,,,,,,,,,,,,magenta,triangle
31.0,1.0,1.0,0.0,1.0,1.0,412.2634939849376,4.0,1.0,part_1,,,,,,,,,,,,,blue,circle
414.0,8.0,4.0,1.0,2.0,2.0,300.52798287943,4.0,1.0,part_1,,,,,,,,,,,,,cyan,hexagon
222.0,3.0,3.0,0.0,3.0,3.0,359.6779110375792,4.0,1.0,part_1,,,,,,,,,,,,,yellow,diamond
424.0,8.0,4.0,1.0,3.0,3.0,336.137383012101,4.0,1.0,part_1,,,,,,,,,,,,,cyan,hexagon
90.0,2.0,2.0,0.0,2.0,2.0,324.2015591822564,4.0,1.0,part_1,,,,,,,,,,,,,orange,flipped triangle
0.0,2.0,0.0,0.0,4.0,4.0,294.0946808084845,4.0,1.0,part_1,,,,,,,,,,,,,orange,flipped triangle
194.0,7.0,3.0,1.0,1.0,1.0,325.5070059094578,4.0,1.0,part_1,,,,,,,,,,,,,gray,I
225.0,7.0,3.0,1.0,2.0,2.0,359.5678929705173,4.0,1.0,part_1,,,,,,,,,,,,,gray,I
0.0,4.0,0.0,0.0,2.0,2.0,384.9948290735483,4.0,1.0,part_1,,,,,,,,,,,,,magenta,triangle
193.0,7.0,3.0,1.0,2.0,2.0,293.0026529356837,4.0,1.0,part_1,,,,,,,,,,,,,gray,I
0.0,2.0,0.0,0.0,4.0,4.0,305.0924779381603,4.0,1.0,part_1,,,,,,,,,,,,,orange,flipped triangle
418.0,8.0,4.0,1.0,3.0,3.0,341.0940440371632,4.0,1.0,part_1,,,,,,,,,,,,,cyan,hexagon
0.0,3.0,0.0,0.0,1.0,1.0,297.4058759864419,4.0,2.0,part_1,,,,,,,,,,,,,yellow,diamond
181.0,7.0,3.0,1.0,3.0,3.0,352.6162730995565,4.0,1.0,part_1,,,,,,,,,,,,,gray,I
187.0,3.0,3.0,0.0,2.0,2.0,342.312989057973,4.0,1.0,part_1,,,,,,,,,,,,,yellow,diamond
198.0,7.0,3.0,1.0,4.0,4.0,401.1756191030144,4.0,1.0,part_1,,,,,,,,,,,,,gray,I
191.0,7.0,3.0,1.0,4.0,4.0,399.9799771700054,4.0,1.0,part_1,,,,,,,,,,,,,gray,I
0.0,6.0,0.0,1.0,4.0,4.0,301.3016229961067,4.0,1.0,part_1,,,,,,,,,,,,,white,cross
404.0,8.0,4.0,1.0,1.0,1.0,400.1869580242783,4.0,1.0,part_1,,,,,,,,,,,,,cyan,hexagon
422.0,8.0,4.0,1.0,1.0,1.0,325.5423069931566,4.0,1.0,part_1,,,,,,,,,,,,,cyan,hexagon
0.0,3.0,0.0,0.0,2.0,2.0,391.9095168821513,4.0,1.0,part_1,,,,,,,,,,,,,yellow,diamond
210.0,3.0,3.0,0.0,4.0,4.0,301.4869149774313,4.0,1.0,part_1,,,,,,,,,,,,,yellow,diamond
36.0,5.0,1.0,1.0,1.0,1.0,312.7470570616424,4.0,1.0,part_1,,,,,,,,,,,,,green,square
0.0,4.0,0.0,0.0,3.0,3.0,305.1225370727479,4.0,1.0,part_1,,,,,,,,,,,,,magenta,triangle
0.0,4.0,0.0,0.0,2.0,2.0,325.8460448123514,4.0,1.0,part_1,,,,,,,,,,,,,magenta,triangle
121.0,2.0,2.0,0.0,1.0,1.0,564.0387791208923,4.0,1.0,part_1,,,,,,,,,,,,,orange,flipped triangle
377.0,4.0,4.0,0.0,2.0,2.0,282.4955231044441,4.0,1.0,part_1,,,,,,,,,,,,,magenta,triangle
98.0,2.0,2.0,0.0,1.0,1.0,315.2259159833193,4.0,1.0,part_1,,,,,,,,,,,,,orange,flipped triangle
0.0,2.0,0.0,0.0,2.0,2.0,283.512125024572,4.0,1.0,part_1,,,,,,,,,,,,,orange,flipped triangle
123.0,2.0,2.0,0.0,4.0,4.0,308.4670100361109,4.0,1.0,part_1,,,,,,,,,,,,,orange,flipped triangle
191.0,3.0,3.0,0.0,1.0,1.0,295.4571119043976,4.0,1.0,part_1,,,,,,,,,,,,,yellow,diamond
119.0,2.0,2.0,0.0,1.0,1.0,283.0941851716488,4.0,1.0,part_1,,,,,,,,,,,,,orange,flipped triangle
85.0,6.0,2.0,1.0,2.0,2.0,263.4530460927635,4.0,1.0,part_1,,,,,,,,,,,,,white,cross
210.0,7.0,3.0,1.0,4.0,4.0,298.2031509745866,4.0,1.0,part_1,,,,,,,,,,,,,gray,I
110.0,6.0,2.0,1.0,3.0,3.0,299.7296589892357,4.0,2.0,part_1,,,,,,,,,,,,,white,cross
400.0,4.0,4.0,0.0,2.0,2.0,330.7782551273703,4.0,1.0,part_1,,,,,,,,,,,,,magenta,triangle
124.0,2.0,2.0,0.0,3.0,3.0,322.9020428843796,4.0,1.0,part_1,,,,,,,,,,,,,orange,flipped triangle
44.0,5.0,1.0,1.0,4.0,4.0,275.5365611519664,4.0,1.0,part_1,,,,,,,,,,,,,green,square
0.0,5.0,0.0,1.0,4.0,4.0,287.5610538758337,4.0,1.0,part_1,,,,,,,,,,,,,green,square
57.0,1.0,1.0,0.0,1.0,1.0,299.6982079930603,4.0,1.0,part_1,,,,,,,,,,,,,blue,circle
204.0,7.0,3.0,1.0,3.0,3.0,333.4605549462139,4.0,1.0,part_1,,,,,,,,,,,,,gray,I
29.0,1.0,1.0,0.0,2.0,2.0,300.5193108692765,4.0,1.0,part_1,,,,,,,,,,,,,blue,circle
108.0,2.0,2.0,0.0,1.0,1.0,268.5166760347783,4.0,2.0,part_1,,,,,,,,,,,,,orange,flipped triangle
187.0,3.0,3.0,0.0,3.0,3.0,382.7182489912957,4.0,1.0,part_1,,,,,,,,,,,,,yellow,diamond
182.0,7.0,3.0,1.0,3.0,3.0,328.4008521586656,4.0,1.0,part_1,,,,,,,,,,,,,gray,I
0.0,1.0,0.0,0.0,1.0,1.0,336.9649809319526,4.0,1.0,part_1,,,,,,,,,,,,,blue,circle
100.0,2.0,2.0,0.0,2.0,2.0,304.6457748860121,4.0,1.0,part_1,,,,,,,,,,,,,orange,flipped triangle
50.0,5.0,1.0,1.0,1.0,1.0,283.8793040718883,4.0,1.0,part_1,,,,,,,,,,,,,green,square
420.0,4.0,4.0,0.0,3.0,3.0,361.0305138863623,4.0,1.0,part_1,,,,,,,,,,,,,magenta,triangle
210.0,3.0,3.0,0.0,2.0,2.0,285.1231009699404,4.0,1.0,part_1,,,,,,,,,,,,,yellow,diamond
87.0,2.0,2.0,0.0,3.0,3.0,341.438720934093,4.0,1.0,part_1,,,,,,,,,,,,,orange,flipped triangle
115.0,6.0,2.0,1.0,3.0,3.0,308.2306107971817,4.0,1.0,part_1,,,,,,,,,,,,,white,cross
418.0,4.0,4.0,0.0,3.0,3.0,284.8826968111098,4.0,2.0,part_1,,,,,,,,,,,,,magenta,triangle
0.0,1.0,0.0,0.0,1.0,1.0,253.3237938769161,4.0,1.0,part_1,,,,,,,,,,,,,blue,circle
109.0,6.0,2.0,1.0,3.0,3.0,286.0687810461968,4.0,1.0,part_1,,,,,,,,,,,,,white,cross
0.0,4.0,0.0,0.0,3.0,3.0,333.9181609917432,4.0,1.0,part_1,,,,,,,,,,,,,magenta,triangle
104.0,2.0,2.0,0.0,1.0,1.0,334.7106908913702,4.0,1.0,part_1,,,,,,,,,,,,,orange,flipped triangle
104.0,2.0,2.0,0.0,3.0,3.0,287.8722208552062,4.0,1.0,part_1,,,,,,,,,,,,,orange,flipped triangle
0.0,5.0,0.0,1.0,4.0,4.0,583.6466758046299,4.0,2.0,part_1,,,,,,,,,,,,,green,square
98.0,6.0,2.0,1.0,1.0,1.0,435.3060519788414,4.0,1.0,part_1,,,,,,,,,,,,,white,cross
195.0,7.0,3.0,1.0,1.0,1.0,323.8126758951694,4.0,1.0,part_1,,,,,,,,,,,,,gray,I
380.0,8.0,4.0,1.0,1.0,1.0,292.4863200169056,4.0,1.0,part_1,,,,,,,,,,,,,cyan,hexagon
43.0,5.0,1.0,1.0,3.0,3.0,346.5549780521542,4.0,1.0,part_1,,,,,,,,,,,,,green,square
200.0,3.0,3.0,0.0,4.0,4.0,269.1579009406268,4.0,1.0,part_1,,,,,,,,,,,,,yellow,diamond
404.0,8.0,4.0,1.0,4.0,4.0,328.2804321497679,4.0,1.0,part_1,,,,,,,,,,,,,cyan,hexagon
0.0,3.0,3.0,0.0,6.0,6.0,635.7207279652357,1.0,0.0,part_2,go,250.0,250.0,1.0,,,,,,,,,yellow,diamond
0.0,2.0,2.0,0.0,5.0,5.0,410.1587468758225,1.0,0.0,part_2,go,250.0,250.0,1.0,,,,,,,,,orange,flipped triangle
0.0,3.0,3.0,0.0,6.0,6.0,398.11383397318417,1.0,0.0,part_2,go,250.0,250.0,1.0,,,,,,,,,yellow,diamond
0.0,8.0,4.0,1.0,6.0,6.0,399.5177280157804,1.0,0.0,part_2,stop,250.0,250.0,3.0,,,,,,,,,cyan,hexagon
0.0,3.0,3.0,0.0,6.0,6.0,290.4819299001246,1.0,0.0,part_2,go,250.0,200.0,1.0,,,,,,,,,yellow,diamond
0.0,3.0,3.0,0.0,6.0,6.0,280.5687638465315,1.0,0.0,part_2,go,250.0,200.0,1.0,,,,,,,,,yellow,diamond
0.0,2.0,2.0,0.0,5.0,5.0,471.5971599798649,1.0,0.0,part_2,go,250.0,200.0,1.0,,,,,,,,,orange,flipped triangle
0.0,5.0,1.0,1.0,5.0,5.0,346.1504259612411,1.0,0.0,part_2,stop,250.0,200.0,3.0,,,,,,,,,green,square
0.0,1.0,1.0,0.0,6.0,6.0,294.4447749760002,1.0,0.0,part_2,go,200.0,200.0,1.0,,,,,,,,,blue,circle
0.0,1.0,1.0,0.0,6.0,6.0,382.0220280904323,1.0,0.0,part_2,go,200.0,200.0,1.0,,,,,,,,,blue,circle
0.0,6.0,2.0,1.0,5.0,0.0,0.0,1.0,0.0,part_2,stop,200.0,200.0,4.0,,,,,,,,,white,cross
0.0,3.0,3.0,0.0,5.0,5.0,589.138109004125,1.0,0.0,part_2,go,250.0,200.0,1.0,,,,,,,,,yellow,diamond
0.0,3.0,3.0,0.0,6.0,6.0,238.1683648563921,1.0,0.0,part_2,go,250.0,200.0,1.0,,,,,,,,,yellow,diamond
0.0,8.0,4.0,1.0,5.0,5.0,453.1919460278004,1.0,0.0,part_2,go,250.0,200.0,1.0,,,,,,,,,cyan,hexagon
0.0,1.0,1.0,0.0,5.0,5.0,466.8361388612538,1.0,0.0,part_2,go,250.0,200.0,1.0,,,,,,,,,blue,circle
0.0,1.0,1.0,0.0,6.0,6.0,342.2155191656202,1.0,0.0,part_2,go,250.0,200.0,1.0,,,,,,,,,blue,circle
0.0,6.0,2.0,1.0,6.0,6.0,331.0048189014196,1.0,0.0,part_2,go,250.0,200.0,1.0,,,,,,,,,white,cross
0.0,5.0,1.0,1.0,6.0,0.0,0.0,1.0,0.0,part_2,stop,250.0,200.0,4.0,,,,,,,,,green,square
0.0,1.0,1.0,0.0,6.0,6.0,287.7056510187685,1.0,0.0,part_2,go,250.0,250.0,1.0,,,,,,,,,blue,circle
0.0,7.0,3.0,1.0,5.0,0.0,0.0,1.0,0.0,part_2,stop,250.0,250.0,4.0,,,,,,,,,gray,I
0.0,4.0,4.0,0.0,6.0,6.0,368.7398759648204,1.0,0.0,part_2,go,300.0,250.0,1.0,,,,,,,,,magenta,triangle
0.0,2.0,2.0,0.0,6.0,6.0,496.6361599508673,1.0,0.0,part_2,go,300.0,250.0,1.0,,,,,,,,,orange,flipped triangle
0.0,1.0,1.0,0.0,5.0,5.0,383.2731950096786,1.0,0.0,part_2,go,300.0,250.0,1.0,,,,,,,,,blue,circle
0.0,4.0,4.0,0.0,5.0,5.0,732.2660801000893,1.0,0.0,part_2,go,300.0,250.0,1.0,,,,,,,,,magenta,triangle
0.0,8.0,4.0,1.0,6.0,6.0,405.9391759801656,1.0,0.0,part_2,go,300.0,250.0,1.0,,,,,,,,,cyan,hexagon
0.0,4.0,4.0,0.0,6.0,6.0,294.5782409515232,1.0,0.0,part_2,go,300.0,250.0,1.0,,,,,,,,,magenta,triangle
0.0,7.0,3.0,1.0,6.0,6.0,278.7089869379997,1.0,0.0,part_2,stop,300.0,250.0,3.0,,,,,,,,,gray,I
0.0,6.0,2.0,1.0,6.0,0.0,0.0,1.0,0.0,part_2,stop,300.0,200.0,4.0,,,,,,,,,white,cross
0.0,7.0,3.0,1.0,6.0,0.0,0.0,1.0,0.0,part_2,stop,300.0,250.0,4.0,,,,,,,,,gray,I
0.0,1.0,1.0,0.0,6.0,6.0,389.0900379046798,1.0,0.0,part_2,go,300.0,300.0,1.0,,,,,,,,,blue,circle
0.0,2.0,2.0,0.0,5.0,5.0,333.9580660685897,1.0,0.0,part_2,go,300.0,300.0,1.0,,,,,,,,,orange,flipped triangle
0.0,2.0,2.0,0.0,5.0,5.0,388.676106929779,1.0,0.0,part_2,go,300.0,300.0,1.0,,,,,,,,,orange,flipped triangle
0.0,7.0,3.0,1.0,6.0,6.0,401.8676660489291,1.0,0.0,part_2,go,300.0,300.0,1.0,,,,,,,,,gray,I
0.0,1.0,1.0,0.0,6.0,6.0,356.7153650801629,1.0,0.0,part_2,go,300.0,300.0,1.0,,,,,,,,,blue,circle
0.0,6.0,2.0,1.0,5.0,5.0,359.7694470081478,1.0,0.0,part_2,stop,300.0,300.0,3.0,,,,,,,,,white,cross
0.0,5.0,1.0,1.0,5.0,0.0,0.0,1.0,0.0,part_2,stop,250.0,300.0,4.0,,,,,,,,,green,square
0.0,6.0,2.0,1.0,5.0,0.0,0.0,2.0,0.0,part_2,stop,300.0,300.0,4.0,,,,,,,,,white,cross
0.0,2.0,2.0,0.0,6.0,6.0,359.1237731743604,2.0,0.0,part_2,go,350.0,300.0,1.0,,,,,,,,,orange,flipped triangle
0.0,2.0,2.0,0.0,5.0,5.0,394.2817579954862,2.0,0.0,part_2,go,350.0,300.0,1.0,,,,,,,,,orange,flipped triangle
0.0,1.0,1.0,0.0,5.0,5.0,403.7739511113614,2.0,0.0,part_2,go,350.0,300.0,1.0,,,,,,,,,blue,circle
0.0,1.0,1.0,0.0,5.0,5.0,508.10157088562846,2.0,0.0,part_2,go,350.0,300.0,1.0,,,,,,,,,blue,circle
0.0,8.0,4.0,1.0,5.0,5.0,382.1571529842913,2.0,0.0,part_2,stop,350.0,300.0,3.0,,,,,,,,,cyan,hexagon
0.0,4.0,4.0,0.0,5.0,5.0,575.2089011948556,2.0,0.0,part_2,go,300.0,300.0,1.0,,,,,,,,,magenta,triangle
0.0,8.0,4.0,1.0,6.0,6.0,363.0380099639296,2.0,0.0,part_2,go,300.0,300.0,1.0,,,,,,,,,cyan,hexagon
0.0,4.0,4.0,0.0,5.0,5.0,442.6260150503367,2.0,0.0,part_2,go,300.0,300.0,1.0,,,,,,,,,magenta,triangle
0.0,6.0,2.0,1.0,6.0,6.0,388.9233048539608,2.0,0.0,part_2,go,300.0,300.0,1.0,,,,,,,,,white,cross
0.0,4.0,4.0,0.0,5.0,5.0,389.3499430269003,2.0,0.0,part_2,go,300.0,300.0,1.0,,,,,,,,,magenta,triangle
0.0,8.0,4.0,1.0,5.0,5.0,400.5712929647416,2.0,0.0,part_2,stop,300.0,300.0,3.0,,,,,,,,,cyan,hexagon
0.0,5.0,1.0,1.0,5.0,5.0,593.529892154038,2.0,0.0,part_2,go,250.0,300.0,1.0,,,,,,,,,green,square
0.0,3.0,3.0,0.0,5.0,5.0,648.7626149319112,2.0,0.0,part_2,go,250.0,300.0,1.0,,,,,,,,,yellow,diamond
0.0,4.0,4.0,0.0,6.0,6.0,459.8087109625339,2.0,0.0,part_2,go,250.0,300.0,1.0,,,,,,,,,magenta,triangle
0.0,5.0,1.0,1.0,5.0,0.0,0.0,2.0,0.0,part_2,stop,250.0,300.0,4.0,,,,,,,,,green,square
0.0,1.0,1.0,0.0,5.0,5.0,562.0248541235924,2.0,0.0,part_2,go,300.0,300.0,1.0,,,,,,,,,blue,circle
0.0,5.0,1.0,1.0,6.0,6.0,484.755708836019,2.0,0.0,part_2,go,300.0,300.0,1.0,,,,,,,,,green,square
0.0,7.0,3.0,1.0,5.0,0.0,0.0,2.0,0.0,part_2,stop,300.0,300.0,4.0,,,,,,,,,gray,I
0.0,4.0,4.0,0.0,6.0,6.0,306.0705040115863,2.0,0.0,part_2,go,350.0,300.0,1.0,,,,,,,,,magenta,triangle
0.0,7.0,3.0,1.0,6.0,0.0,0.0,2.0,0.0,part_2,stop,350.0,300.0,4.0,,,,,,,,,gray,I
0.0,7.0,3.0,1.0,6.0,0.0,0.0,2.0,0.0,part_2,stop,350.0,350.0,4.0,,,,,,,,,gray,I
0.0,8.0,4.0,1.0,6.0,0.0,0.0,2.0,0.0,part_2,stop,350.0,400.0,4.0,,,,,,,,,cyan,hexagon
0.0,8.0,4.0,1.0,5.0,5.0,632.9786048736423,2.0,0.0,part_2,go,350.0,450.0,1.0,,,,,,,,,cyan,hexagon
0.0,8.0,4.0,1.0,6.0,6.0,444.1640879958868,2.0,0.0,part_2,stop,350.0,450.0,3.0,,,,,,,,,cyan,hexagon
0.0,1.0,1.0,0.0,5.0,5.0,724.6941549237818,2.0,0.0,part_2,go,350.0,400.0,1.0,,,,,,,,,blue,circle
0.0,5.0,1.0,1.0,6.0,6.0,758.6645700503141,2.0,0.0,part_2,go,350.0,400.0,1.0,,,,,,,,,green,square
0.0,8.0,4.0,1.0,5.0,0.0,0.0,2.0,0.0,part_2,stop,350.0,400.0,4.0,,,,,,,,,cyan,hexagon
0.0,1.0,1.0,0.0,6.0,6.0,606.6072611138225,2.0,0.0,part_2,go,400.0,400.0,1.0,,,,,,,,,blue,circle
0.0,3.0,3.0,0.0,5.0,5.0,594.3058121483773,2.0,0.0,part_2,go,400.0,400.0,1.0,,,,,,,,,yellow,diamond
0.0,4.0,4.0,0.0,5.0,5.0,605.1922629121691,2.0,0.0,part_2,go,400.0,400.0,1.0,,,,,,,,,magenta,triangle
0.0,8.0,4.0,1.0,6.0,0.0,0.0,2.0,0.0,part_2,stop,400.0,400.0,4.0,,,,,,,,,cyan,hexagon
0.0,6.0,2.0,1.0,6.0,6.0,639.526167884469,2.0,0.0,part_2,go,400.0,450.0,1.0,,,,,,,,,white,cross
0.0,1.0,1.0,0.0,6.0,6.0,540.0251990649849,2.0,0.0,part_2,go,400.0,450.0,1.0,,,,,,,,,blue,circle
0.0,7.0,3.0,1.0,6.0,0.0,0.0,2.0,0.0,part_2,stop,400.0,450.0,4.0,,,,,,,,,gray,I
0.0,6.0,2.0,1.0,6.0,6.0,642.6595838274807,2.0,0.0,part_2,go,400.0,500.0,1.0,,,,,,,,,white,cross
0.0,2.0,2.0,0.0,6.0,6.0,722.5181150715798,3.0,0.0,part_2,go,400.0,500.0,1.0,,,,,,,,,orange,flipped triangle
0.0,4.0,4.0,0.0,5.0,5.0,530.0401290878654,3.0,0.0,part_2,go,400.0,500.0,1.0,,,,,,,,,magenta,triangle
0.0,5.0,1.0,1.0,5.0,0.0,0.0,3.0,0.0,part_2,stop,400.0,500.0,4.0,,,,,,,,,green,square
0.0,3.0,3.0,0.0,6.0,6.0,511.24407700262964,3.0,0.0,part_2,go,450.0,500.0,1.0,,,,,,,,,yellow,diamond
0.0,8.0,4.0,1.0,6.0,6.0,592.8702671080828,3.0,0.0,part_2,go,450.0,500.0,1.0,,,,,,,,,cyan,hexagon
0.0,4.0,4.0,0.0,6.0,6.0,593.8585728872567,3.0,0.0,part_2,go,450.0,500.0,1.0,,,,,,,,,magenta,triangle
0.0,5.0,1.0,1.0,5.0,5.0,602.409590035677,3.0,0.0,part_2,stop,450.0,500.0,3.0,,,,,,,,,green,square
0.0,5.0,1.0,1.0,6.0,6.0,481.4676980022341,3.0,0.0,part_2,go,400.0,500.0,1.0,,,,,,,,,green,square
0.0,7.0,3.0,1.0,5.0,0.0,0.0,3.0,0.0,part_2,stop,400.0,500.0,4.0,,,,,,,,,gray,I
0.0,8.0,4.0,1.0,6.0,0.0,0.0,3.0,0.0,part_2,stop,450.0,500.0,4.0,,,,,,,,,cyan,hexagon
0.0,7.0,3.0,1.0,6.0,6.0,675.0913658179343,3.0,0.0,part_2,go,450.0,550.0,1.0,,,,,,,,,gray,I
0.0,5.0,1.0,1.0,5.0,0.0,0.0,3.0,0.0,part_2,stop,450.0,550.0,4.0,,,,,,,,,green,square
0.0,3.0,3.0,0.0,6.0,6.0,707.8465949743986,3.0,0.0,part_2,go,500.0,550.0,1.0,,,,,,,,,yellow,diamond
0.0,2.0,2.0,0.0,5.0,5.0,698.1217451393604,3.0,0.0,part_2,go,500.0,550.0,1.0,,,,,,,,,orange,flipped triangle
0.0,3.0,3.0,0.0,6.0,6.0,832.7314499765635,3.0,0.0,part_2,go,500.0,550.0,1.0,,,,,,,,,yellow,diamond
0.0,8.0,4.0,1.0,5.0,0.0,0.0,3.0,0.0,part_2,stop,500.0,550.0,4.0,,,,,,,,,cyan,hexagon
0.0,8.0,4.0,1.0,5.0,0.0,0.0,3.0,0.0,part_2,stop,550.0,550.0,4.0,,,,,,,,,cyan,hexagon
0.0,3.0,3.0,0.0,6.0,6.0,680.9113780036569,3.0,0.0,part_2,go,600.0,550.0,1.0,,,,,,,,,yellow,diamond
0.0,6.0,2.0,1.0,5.0,0.0,0.0,3.0,0.0,part_2,stop,600.0,550.0,4.0,,,,,,,,,white,cross
0.0,2.0,2.0,0.0,6.0,6.0,724.6955609880388,3.0,0.0,part_2,go,650.0,550.0,1.0,,,,,,,,,orange,flipped triangle
0.0,2.0,2.0,0.0,6.0,6.0,649.8039020225406,3.0,0.0,part_2,go,650.0,550.0,1.0,,,,,,,,,orange,flipped triangle
0.0,3.0,3.0,0.0,6.0,6.0,503.5033510066569,3.0,0.0,part_2,go,650.0,550.0,1.0,,,,,,,,,yellow,diamond
0.0,7.0,3.0,1.0,6.0,6.0,591.8149119243026,3.0,0.0,part_2,go,650.0,550.0,1.0,,,,,,,,,gray,I
0.0,5.0,1.0,1.0,5.0,0.0,0.0,3.0,0.0,part_2,stop,650.0,550.0,4.0,,,,,,,,,green,square
0.0,6.0,2.0,1.0,5.0,0.0,0.0,3.0,0.0,part_2,stop,700.0,550.0,4.0,,,,,,,,,white,cross
0.0,5.0,1.0,1.0,5.0,5.0,811.6390500217676,3.0,0.0,part_2,go,750.0,550.0,1.0,,,,,,,,,green,square
0.0,2.0,2.0,0.0,6.0,6.0,755.2099779713899,3.0,0.0,part_2,go,750.0,550.0,1.0,,,,,,,,,orange,flipped triangle
0.0,4.0,4.0,0.0,5.0,5.0,991.0897070076315,3.0,0.0,part_2,go,750.0,550.0,1.0,,,,,,,,,magenta,triangle
0.0,8.0,4.0,1.0,6.0,0.0,0.0,3.0,0.0,part_2,stop,750.0,550.0,4.0,,,,,,,,,cyan,hexagon
0.0,4.0,4.0,0.0,6.0,6.0,904.1350041516124,3.0,0.0,part_2,go,750.0,600.0,1.0,,,,,,,,,magenta,triangle
0.0,7.0,3.0,1.0,5.0,5.0,824.2430849932134,3.0,0.0,part_2,stop,750.0,600.0,3.0,,,,,,,,,gray,I
0.0,7.0,3.0,1.0,5.0,5.0,860.1790978573263,3.0,0.0,part_2,go,700.0,600.0,1.0,,,,,,,,,gray,I
0.0,2.0,2.0,0.0,5.0,5.0,827.6580618694425,3.0,0.0,part_2,go,700.0,600.0,1.0,,,,,,,,,orange,flipped triangle
0.0,3.0,3.0,0.0,5.0,5.0,928.4744469914584,3.0,0.0,part_2,go,700.0,600.0,1.0,,,,,,,,,yellow,diamond
0.0,5.0,1.0,1.0,5.0,5.0,590.5928029678762,3.0,0.0,part_2,stop,700.0,600.0,3.0,,,,,,,,,green,square
0.0,1.0,1.0,0.0,5.0,5.0,558.7434829212725,3.0,0.0,part_2,go,650.0,600.0,1.0,,,,,,,,,blue,circle
0.0,6.0,2.0,1.0,6.0,6.0,529.3991558719426,4.0,0.0,part_2,stop,650.0,600.0,3.0,,,,,,,,,white,cross
0.0,6.0,2.0,1.0,6.0,6.0,585.0015799514949,4.0,0.0,part_2,go,650.0,550.0,1.0,,,,,,,,,white,cross
0.0,7.0,3.0,1.0,5.0,5.0,484.5683530438691,4.0,0.0,part_2,stop,650.0,550.0,3.0,,,,,,,,,gray,I
0.0,8.0,4.0,1.0,6.0,0.0,0.0,4.0,0.0,part_2,stop,600.0,550.0,4.0,,,,,,,,,cyan,hexagon
0.0,6.0,2.0,1.0,6.0,6.0,590.8882501535118,4.0,0.0,part_2,stop,600.0,600.0,3.0,,,,,,,,,white,cross
0.0,3.0,3.0,0.0,5.0,5.0,713.1146588362753,4.0,0.0,part_2,go,600.0,550.0,1.0,,,,,,,,,yellow,diamond
0.0,8.0,4.0,1.0,5.0,5.0,983.701576013118,4.0,0.0,part_2,go,600.0,550.0,1.0,,,,,,,,,cyan,hexagon
0.0,2.0,2.0,0.0,5.0,5.0,342.5098250154406,4.0,0.0,part_2,go,600.0,550.0,1.0,,,,,,,,,orange,flipped triangle
0.0,2.0,2.0,0.0,6.0,6.0,649.4586279150099,4.0,0.0,part_2,go,600.0,550.0,1.0,,,,,,,,,orange,flipped triangle
0.0,2.0,2.0,0.0,6.0,6.0,636.6276140324771,4.0,0.0,part_2,go,600.0,550.0,1.0,,,,,,,,,orange,flipped triangle
0.0,4.0,4.0,0.0,6.0,6.0,581.89910906367,4.0,0.0,part_2,go,600.0,550.0,1.0,,,,,,,,,magenta,triangle
0.0,6.0,2.0,1.0,6.0,6.0,439.0532681718468,4.0,0.0,part_2,go,600.0,550.0,1.0,,,,,,,,,white,cross
0.0,8.0,4.0,1.0,5.0,5.0,573.2459309510887,4.0,0.0,part_2,stop,600.0,550.0,3.0,,,,,,,,,cyan,hexagon
0.0,5.0,1.0,1.0,6.0,0.0,0.0,4.0,0.0,part_2,stop,550.0,550.0,4.0,,,,,,,,,green,square
0.0,2.0,2.0,0.0,6.0,6.0,813.44766006805,4.0,0.0,part_2,go,550.0,600.0,1.0,,,,,,,,,orange,flipped triangle
0.0,3.0,3.0,0.0,5.0,5.0,621.2836490012705,4.0,0.0,part_2,go,550.0,600.0,1.0,,,,,,,,,yellow,diamond
0.0,7.0,3.0,1.0,5.0,5.0,586.4860489964485,4.0,0.0,part_2,stop,550.0,600.0,3.0,,,,,,,,,gray,I
0.0,8.0,4.0,1.0,5.0,0.0,0.0,4.0,0.0,part_2,stop,500.0,600.0,4.0,,,,,,,,,cyan,hexagon
0.0,4.0,4.0,0.0,5.0,5.0,688.8072278816253,4.0,0.0,part_2,go,550.0,600.0,1.0,,,,,,,,,magenta,triangle
0.0,6.0,2.0,1.0,5.0,0.0,0.0,4.0,0.0,part_2,stop,550.0,600.0,4.0,,,,,,,,,white,cross
0.0,1.0,1.0,0.0,6.0,6.0,780.3195770829916,4.0,0.0,part_2,go,600.0,600.0,1.0,,,,,,,,,blue,circle
0.0,3.0,3.0,0.0,5.0,5.0,499.8879060149193,4.0,0.0,part_2,go,600.0,600.0,1.0,,,,,,,,,yellow,diamond
0.0,6.0,2.0,1.0,5.0,5.0,693.1166269350797,4.0,0.0,part_2,stop,600.0,600.0,3.0,,,,,,,,,white,cross
0.0,5.0,1.0,1.0,6.0,6.0,480.9333190787583,4.0,0.0,part_2,stop,550.0,600.0,3.0,,,,,,,,,green,square
0.0,1.0,1.0,0.0,5.0,5.0,852.3499260190874,4.0,0.0,part_2,go,550.0,550.0,1.0,,,,,,,,,blue,circle
0.0,8.0,4.0,1.0,6.0,0.0,0.0,4.0,0.0,part_2,stop,550.0,550.0,4.0,,,,,,,,,cyan,hexagon
0.0,1.0,1.0,0.0,5.0,5.0,943.8083651475608,4.0,0.0,part_2,go,550.0,600.0,1.0,,,,,,,,,blue,circle
0.0,3.0,3.0,0.0,5.0,5.0,843.7651498243213,4.0,0.0,part_2,go,550.0,600.0,1.0,,,,,,,,,yellow,diamond
0.0,3.0,3.0,0.0,6.0,6.0,563.1157879251987,4.0,0.0,part_2,go,550.0,600.0,1.0,,,,,,,,,yellow,diamond
0.0,1.0,1.0,0.0,6.0,6.0,474.4174669031054,4.0,0.0,part_2,go,550.0,600.0,1.0,,,,,,,,,blue,circle
0.0,6.0,2.0,1.0,5.0,5.0,284.0745758730918,4.0,0.0,part_2,stop,550.0,600.0,3.0,,,,,,,,,white,cross
0.0,5.0,1.0,1.0,6.0,6.0,622.1310750115663,4.0,0.0,part_2,stop,500.0,600.0,3.0,,,,,,,,,green,square
0.0,6.0,2.0,1.0,6.0,0.0,0.0,4.0,0.0,part_2,stop,500.0,550.0,4.0,,,,,,,,,white,cross
0.0,2.0,2.0,0.0,6.0,6.0,668.378998991102,4.0,0.0,part_2,go,500.0,600.0,1.0,,,,,,,,,orange,flipped triangle
0.0,5.0,1.0,1.0,5.0,0.0,0.0,4.0,0.0,part_2,stop,500.0,600.0,4.0,,,,,,,,,green,square
0.0,6.0,2.0,1.0,6.0,0.0,0.0,4.0,0.0,part_2,stop,550.0,600.0,4.0,,,,,,,,,white,cross
0.0,7.0,3.0,1.0,6.0,6.0,456.8089172244072,5.0,0.0,part_2,go,550.0,650.0,1.0,,,,,,,,,gray,I
0.0,3.0,3.0,0.0,5.0,5.0,583.0707070417702,5.0,0.0,part_2,go,550.0,650.0,1.0,,,,,,,,,yellow,diamond
0.0,5.0,1.0,1.0,5.0,5.0,367.5405690446496,5.0,0.0,part_2,go,550.0,650.0,1.0,,,,,,,,,green,square
0.0,6.0,2.0,1.0,5.0,5.0,380.0418260507285,5.0,0.0,part_2,stop,550.0,650.0,3.0,,,,,,,,,white,cross
0.0,8.0,4.0,1.0,5.0,5.0,772.7839418221265,5.0,0.0,part_2,stop,500.0,650.0,3.0,,,,,,,,,cyan,hexagon
0.0,6.0,2.0,1.0,5.0,0.0,0.0,5.0,0.0,part_2,stop,450.0,650.0,4.0,,,,,,,,,white,cross
0.0,2.0,2.0,0.0,5.0,5.0,775.3919719252735,5.0,0.0,part_2,go,500.0,650.0,1.0,,,,,,,,,orange,flipped triangle
0.0,4.0,4.0,0.0,6.0,6.0,730.7645690161735,5.0,0.0,part_2,go,500.0,650.0,1.0,,,,,,,,,magenta,triangle
0.0,5.0,1.0,1.0,6.0,6.0,632.3316860944033,5.0,0.0,part_2,go,500.0,650.0,1.0,,,,,,,,,green,square
0.0,8.0,4.0,1.0,5.0,5.0,608.508792007342,5.0,0.0,part_2,stop,500.0,650.0,3.0,,,,,,,,,cyan,hexagon
0.0,5.0,1.0,1.0,5.0,0.0,0.0,5.0,0.0,part_2,stop,450.0,650.0,4.0,,,,,,,,,green,square
0.0,7.0,3.0,1.0,6.0,0.0,0.0,5.0,0.0,part_2,stop,500.0,650.0,4.0,,,,,,,,,gray,I
0.0,3.0,3.0,0.0,6.0,6.0,723.5537120141089,5.0,0.0,part_2,go,500.0,700.0,1.0,,,,,,,,,yellow,diamond
0.0,6.0,2.0,1.0,5.0,0.0,0.0,5.0,0.0,part_2,stop,500.0,700.0,4.0,,,,,,,,,white,cross
0.0,2.0,2.0,0.0,5.0,5.0,748.8147770054638,5.0,0.0,part_2,go,550.0,700.0,1.0,,,,,,,,,orange,flipped triangle
0.0,2.0,2.0,0.0,5.0,5.0,716.5498621761799,5.0,0.0,part_2,go,550.0,700.0,1.0,,,,,,,,,orange,flipped triangle
0.0,1.0,1.0,0.0,6.0,6.0,772.7564738597721,5.0,0.0,part_2,go,550.0,700.0,1.0,,,,,,,,,blue,circle
0.0,4.0,4.0,0.0,6.0,6.0,288.3659400977194,5.0,0.0,part_2,go,550.0,700.0,1.0,,,,,,,,,magenta,triangle
0.0,2.0,2.0,0.0,5.0,5.0,618.9003039617091,5.0,0.0,part_2,go,550.0,700.0,1.0,,,,,,,,,orange,flipped triangle
0.0,1.0,1.0,0.0,5.0,5.0,448.2827640604228,5.0,0.0,part_2,go,550.0,700.0,1.0,,,,,,,,,blue,circle
0.0,4.0,4.0,0.0,6.0,6.0,462.0176029857248,5.0,0.0,part_2,go,550.0,700.0,1.0,,,,,,,,,magenta,triangle
0.0,6.0,2.0,1.0,6.0,6.0,644.3818800617009,5.0,0.0,part_2,stop,550.0,700.0,3.0,,,,,,,,,white,cross
0.0,1.0,1.0,0.0,6.0,6.0,1170.0692689046264,5.0,0.0,part_2,go,550.0,650.0,1.0,,,,,,,,,blue,circle
0.0,8.0,4.0,1.0,6.0,6.0,686.7560020182282,5.0,0.0,part_2,stop,550.0,650.0,3.0,,,,,,,,,cyan,hexagon
0.0,6.0,2.0,1.0,6.0,0.0,0.0,5.0,0.0,part_2,stop,550.0,600.0,4.0,,,,,,,,,white,cross
0.0,1.0,1.0,0.0,6.0,6.0,418.7646759673953,5.0,0.0,part_2,go,550.0,650.0,1.0,,,,,,,,,blue,circle
0.0,1.0,1.0,0.0,5.0,5.0,587.7200439572334,5.0,0.0,part_2,go,550.0,650.0,1.0,,,,,,,,,blue,circle
0.0,6.0,2.0,1.0,6.0,6.0,757.5661579612643,5.0,0.0,part_2,stop,550.0,650.0,3.0,,,,,,,,,white,cross
0.0,5.0,1.0,1.0,6.0,0.0,0.0,5.0,0.0,part_2,stop,550.0,600.0,4.0,,,,,,,,,green,square
0.0,5.0,1.0,1.0,5.0,0.0,0.0,5.0,0.0,part_2,stop,550.0,650.0,4.0,,,,,,,,,green,square
0.0,4.0,4.0,0.0,5.0,5.0,379.2140518780797,5.0,0.0,part_2,go,600.0,650.0,1.0,,,,,,,,,magenta,triangle
0.0,7.0,3.0,1.0,6.0,6.0,569.368297001347,5.0,0.0,part_2,go,600.0,650.0,1.0,,,,,,,,,gray,I
0.0,1.0,1.0,0.0,6.0,6.0,312.6142229884863,5.0,0.0,part_2,go,600.0,650.0,1.0,,,,,,,,,blue,circle
0.0,7.0,3.0,1.0,6.0,6.0,462.7553350292146,5.0,0.0,part_2,stop,600.0,650.0,3.0,,,,,,,,,gray,I
0.0,5.0,1.0,1.0,5.0,0.0,0.0,5.0,0.0,part_2,stop,600.0,600.0,4.0,,,,,,,,,green,square
0.0,8.0,4.0,1.0,5.0,5.0,822.3433548118919,5.0,0.0,part_2,go,650.0,600.0,1.0,,,,,,,,,cyan,hexagon
0.0,3.0,3.0,0.0,5.0,5.0,522.8385359514505,6.0,0.0,part_2,go,650.0,600.0,1.0,,,,,,,,,yellow,diamond
0.0,4.0,4.0,0.0,6.0,6.0,488.9997229911387,6.0,0.0,part_2,go,650.0,600.0,1.0,,,,,,,,,magenta,triangle
0.0,1.0,1.0,0.0,6.0,6.0,366.8043061625212,6.0,0.0,part_2,go,650.0,600.0,1.0,,,,,,,,,blue,circle
0.0,7.0,3.0,1.0,6.0,6.0,435.4680390097201,6.0,0.0,part_2,go,650.0,600.0,1.0,,,,,,,,,gray,I
0.0,2.0,2.0,0.0,5.0,5.0,537.460712948814,6.0,0.0,part_2,go,650.0,600.0,1.0,,,,,,,,,orange,flipped triangle
0.0,1.0,1.0,0.0,5.0,5.0,596.0729711223394,6.0,0.0,part_2,go,650.0,600.0,1.0,,,,,,,,,blue,circle
0.0,7.0,3.0,1.0,5.0,5.0,381.787875900045,6.0,0.0,part_2,stop,650.0,600.0,3.0,,,,,,,,,gray,I
0.0,4.0,4.0,0.0,5.0,5.0,773.9521178882569,6.0,0.0,part_2,go,600.0,600.0,1.0,,,,,,,,,magenta,triangle
0.0,7.0,3.0,1.0,5.0,5.0,754.864483140409,6.0,0.0,part_2,stop,600.0,600.0,3.0,,,,,,,,,gray,I
0.0,2.0,2.0,0.0,5.0,5.0,1058.6477329488844,6.0,0.0,part_2,go,550.0,600.0,1.0,,,,,,,,,orange,flipped triangle
0.0,4.0,4.0,0.0,5.0,5.0,869.6253320667893,6.0,0.0,part_2,go,550.0,600.0,1.0,,,,,,,,,magenta,triangle
0.0,6.0,2.0,1.0,5.0,0.0,0.0,6.0,0.0,part_2,stop,550.0,600.0,4.0,,,,,,,,,white,cross
0.0,1.0,1.0,0.0,5.0,5.0,823.3121640514582,6.0,0.0,part_2,go,600.0,600.0,1.0,,,,,,,,,blue,circle
0.0,7.0,3.0,1.0,5.0,5.0,453.3194359391927,6.0,0.0,part_2,stop,600.0,600.0,3.0,,,,,,,,,gray,I
0.0,3.0,3.0,0.0,6.0,6.0,512.4969850294292,6.0,0.0,part_2,go,550.0,600.0,1.0,,,,,,,,,yellow,diamond
0.0,6.0,2.0,1.0,6.0,6.0,781.1666820198298,6.0,0.0,part_2,go,550.0,600.0,1.0,,,,,,,,,white,cross
0.0,3.0,3.0,0.0,6.0,6.0,928.9274159818888,6.0,0.0,part_2,go,550.0,600.0,1.0,,,,,,,,,yellow,diamond
0.0,4.0,4.0,0.0,6.0,6.0,467.5566470250487,6.0,0.0,part_2,go,550.0,600.0,1.0,,,,,,,,,magenta,triangle
0.0,6.0,2.0,1.0,5.0,0.0,0.0,6.0,0.0,part_2,stop,550.0,600.0,4.0,,,,,,,,,white,cross
0.0,5.0,1.0,1.0,5.0,0.0,0.0,6.0,0.0,part_2,stop,600.0,600.0,4.0,,,,,,,,,green,square
0.0,1.0,1.0,0.0,5.0,5.0,795.8136249799281,6.0,0.0,part_2,go,650.0,600.0,1.0,,,,,,,,,blue,circle
0.0,3.0,3.0,0.0,5.0,5.0,270.1908110175282,6.0,0.0,part_2,go,650.0,600.0,1.0,,,,,,,,,yellow,diamond
0.0,7.0,3.0,1.0,6.0,6.0,371.5921670664102,6.0,0.0,part_2,stop,650.0,600.0,3.0,,,,,,,,,gray,I
0.0,5.0,1.0,1.0,6.0,6.0,720.1323881745338,6.0,0.0,part_2,go,650.0,550.0,1.0,,,,,,,,,green,square
0.0,3.0,3.0,0.0,5.0,5.0,393.9936179667711,6.0,0.0,part_2,go,650.0,550.0,1.0,,,,,,,,,yellow,diamond
0.0,2.0,2.0,0.0,6.0,6.0,654.5359611045569,6.0,0.0,part_2,go,650.0,550.0,1.0,,,,,,,,,orange,flipped triangle
0.0,8.0,4.0,1.0,6.0,0.0,0.0,6.0,0.0,part_2,stop,650.0,550.0,4.0,,,,,,,,,cyan,hexagon
0.0,8.0,4.0,1.0,6.0,6.0,711.3811108283699,6.0,0.0,part_2,stop,650.0,600.0,3.0,,,,,,,,,cyan,hexagon
0.0,6.0,2.0,1.0,5.0,5.0,995.700617088005,6.0,0.0,part_2,go,650.0,550.0,1.0,,,,,,,,,white,cross
0.0,7.0,3.0,1.0,5.0,5.0,592.6142930984497,6.0,0.0,part_2,stop,650.0,550.0,3.0,,,,,,,,,gray,I
0.0,4.0,4.0,0.0,5.0,5.0,1009.2280230019242,6.0,0.0,part_2,go,600.0,550.0,1.0,,,,,,,,,magenta,triangle
0.0,1.0,1.0,0.0,6.0,6.0,909.3286520801483,6.0,0.0,part_2,go,600.0,550.0,1.0,,,,,,,,,blue,circle
0.0,6.0,2.0,1.0,5.0,5.0,332.9393281601369,6.0,0.0,part_2,stop,600.0,550.0,3.0,,,,,,,,,white,cross
0.0,7.0,3.0,1.0,5.0,5.0,662.4617970082909,6.0,0.0,part_2,go,550.0,550.0,1.0,,,,,,,,,gray,I
0.0,1.0,1.0,0.0,5.0,5.0,336.9557601399719,6.0,0.0,part_2,go,550.0,550.0,1.0,,,,,,,,,blue,circle
0.0,3.0,3.0,0.0,5.0,5.0,630.0430060364306,6.0,0.0,part_2,go,550.0,550.0,1.0,,,,,,,,,yellow,diamond
0.0,4.0,4.0,0.0,6.0,6.0,343.1028069462627,7.0,0.0,part_2,go,550.0,550.0,1.0,,,,,,,,,magenta,triangle
0.0,5.0,1.0,1.0,5.0,5.0,321.1497929878533,7.0,0.0,part_2,stop,550.0,550.0,3.0,,,,,,,,,green,square
0.0,2.0,2.0,0.0,6.0,6.0,646.3453241158277,7.0,0.0,part_2,go,500.0,550.0,1.0,,,,,,,,,orange,flipped triangle
0.0,5.0,1.0,1.0,6.0,6.0,659.9971649702638,7.0,0.0,part_2,stop,500.0,550.0,3.0,,,,,,,,,green,square
0.0,6.0,2.0,1.0,5.0,0.0,0.0,7.0,0.0,part_2,stop,500.0,500.0,4.0,,,,,,,,,white,cross
0.0,3.0,3.0,0.0,6.0,6.0,663.3838550187647,7.0,0.0,part_2,go,550.0,500.0,1.0,,,,,,,,,yellow,diamond
0.0,4.0,4.0,0.0,5.0,5.0,663.959302008152,7.0,0.0,part_2,go,550.0,500.0,1.0,,,,,,,,,magenta,triangle
0.0,7.0,3.0,1.0,5.0,5.0,582.8026058152318,7.0,0.0,part_2,stop,550.0,500.0,3.0,,,,,,,,,gray,I
0.0,5.0,1.0,1.0,6.0,6.0,595.2038050163537,7.0,0.0,part_2,stop,500.0,500.0,3.0,,,,,,,,,green,square
0.0,4.0,4.0,0.0,5.0,5.0,813.4568261448294,7.0,0.0,part_2,go,500.0,450.0,1.0,,,,,,,,,magenta,triangle
0.0,6.0,2.0,1.0,5.0,0.0,0.0,7.0,0.0,part_2,stop,500.0,450.0,4.0,,,,,,,,,white,cross
0.0,8.0,4.0,1.0,5.0,0.0,0.0,7.0,0.0,part_2,stop,550.0,450.0,4.0,,,,,,,,,cyan,hexagon
0.0,1.0,1.0,0.0,6.0,6.0,519.065837841481,7.0,0.0,part_2,go,600.0,450.0,1.0,,,,,,,,,blue,circle
0.0,7.0,3.0,1.0,6.0,0.0,0.0,7.0,0.0,part_2,stop,600.0,450.0,4.0,,,,,,,,,gray,I
0.0,3.0,3.0,0.0,5.0,5.0,737.172168912366,7.0,0.0,part_2,go,600.0,500.0,1.0,,,,,,,,,yellow,diamond
0.0,6.0,2.0,1.0,6.0,6.0,366.5419172029942,7.0,0.0,part_2,stop,600.0,500.0,3.0,,,,,,,,,white,cross
0.0,8.0,4.0,1.0,6.0,6.0,794.4779710378498,7.0,0.0,part_2,go,600.0,450.0,1.0,,,,,,,,,cyan,hexagon
0.0,7.0,3.0,1.0,5.0,5.0,358.6349640972912,7.0,0.0,part_2,stop,600.0,450.0,3.0,,,,,,,,,gray,I
0.0,1.0,1.0,0.0,5.0,5.0,773.1422469951212,7.0,0.0,part_2,go,550.0,450.0,1.0,,,,,,,,,blue,circle
0.0,7.0,3.0,1.0,6.0,0.0,0.0,7.0,0.0,part_2,stop,550.0,450.0,4.0,,,,,,,,,gray,I
0.0,7.0,3.0,1.0,6.0,6.0,379.5953611843288,7.0,0.0,part_2,stop,550.0,500.0,3.0,,,,,,,,,gray,I
0.0,8.0,4.0,1.0,5.0,0.0,0.0,7.0,0.0,part_2,stop,550.0,450.0,4.0,,,,,,,,,cyan,hexagon
0.0,4.0,4.0,0.0,6.0,6.0,744.1759600769728,7.0,0.0,part_2,go,600.0,450.0,1.0,,,,,,,,,magenta,triangle
0.0,3.0,3.0,0.0,5.0,5.0,733.3915771450847,7.0,0.0,part_2,go,600.0,450.0,1.0,,,,,,,,,yellow,diamond
0.0,1.0,1.0,0.0,6.0,6.0,630.7395361363888,7.0,0.0,part_2,go,600.0,450.0,1.0,,,,,,,,,blue,circle
0.0,1.0,1.0,0.0,5.0,5.0,690.0363850872964,7.0,0.0,part_2,go,600.0,450.0,1.0,,,,,,,,,blue,circle
0.0,5.0,1.0,1.0,6.0,0.0,0.0,7.0,0.0,part_2,stop,600.0,450.0,4.0,,,,,,,,,green,square
0.0,2.0,2.0,0.0,5.0,5.0,703.7073390092701,7.0,0.0,part_2,go,600.0,500.0,1.0,,,,,,,,,orange,flipped triangle
0.0,4.0,4.0,0.0,5.0,5.0,514.0133090317249,7.0,0.0,part_2,go,600.0,500.0,1.0,,,,,,,,,magenta,triangle
0.0,5.0,1.0,1.0,6.0,0.0,0.0,7.0,0.0,part_2,stop,600.0,500.0,4.0,,,,,,,,,green,square
0.0,8.0,4.0,1.0,6.0,0.0,0.0,7.0,0.0,part_2,stop,600.0,550.0,4.0,,,,,,,,,cyan,hexagon
0.0,4.0,4.0,0.0,6.0,6.0,807.6912460383028,7.0,0.0,part_2,go,600.0,600.0,1.0,,,,,,,,,magenta,triangle
0.0,7.0,3.0,1.0,5.0,5.0,760.9111089259386,7.0,0.0,part_2,stop,600.0,600.0,3.0,,,,,,,,,gray,I
0.0,2.0,2.0,0.0,5.0,5.0,863.2685081101954,7.0,0.0,part_2,go,550.0,600.0,1.0,,,,,,,,,orange,flipped triangle
0.0,5.0,1.0,1.0,5.0,0.0,0.0,7.0,0.0,part_2,stop,550.0,600.0,4.0,,,,,,,,,green,square
0.0,4.0,4.0,0.0,5.0,5.0,978.3799978904426,7.0,0.0,part_2,go,600.0,600.0,1.0,,,,,,,,,magenta,triangle
0.0,7.0,3.0,1.0,5.0,5.0,300.6837589200586,8.0,0.0,part_2,stop,600.0,600.0,3.0,,,,,,,,,gray,I
0.0,3.0,3.0,0.0,5.0,5.0,625.3762429114431,8.0,0.0,part_2,go,550.0,600.0,1.0,,,,,,,,,yellow,diamond
0.0,7.0,3.0,1.0,5.0,0.0,0.0,8.0,0.0,part_2,stop,550.0,600.0,4.0,,,,,,,,,gray,I
0.0,3.0,3.0,0.0,5.0,5.0,699.1286061238497,8.0,0.0,part_2,go,600.0,600.0,1.0,,,,,,,,,yellow,diamond
0.0,4.0,4.0,0.0,5.0,5.0,618.929497897625,8.0,0.0,part_2,go,600.0,600.0,1.0,,,,,,,,,magenta,triangle
0.0,5.0,1.0,1.0,6.0,6.0,696.5027200058103,8.0,0.0,part_2,stop,600.0,600.0,3.0,,,,,,,,,green,square
0.0,6.0,2.0,1.0,6.0,6.0,757.5091139879078,8.0,0.0,part_2,go,600.0,550.0,1.0,,,,,,,,,white,cross
0.0,3.0,3.0,0.0,6.0,6.0,724.1313990671188,8.0,0.0,part_2,go,600.0,550.0,1.0,,,,,,,,,yellow,diamond
0.0,2.0,2.0,0.0,6.0,6.0,734.9864940624684,8.0,0.0,part_2,go,600.0,550.0,1.0,,,,,,,,,orange,flipped triangle
0.0,1.0,1.0,0.0,5.0,5.0,634.2863370664418,8.0,0.0,part_2,go,600.0,550.0,1.0,,,,,,,,,blue,circle
0.0,8.0,4.0,1.0,5.0,5.0,782.3905870318413,8.0,0.0,part_2,go,600.0,550.0,1.0,,,,,,,,,cyan,hexagon
0.0,2.0,2.0,0.0,5.0,5.0,747.9934738948941,8.0,0.0,part_2,go,600.0,550.0,1.0,,,,,,,,,orange,flipped triangle
0.0,4.0,4.0,0.0,6.0,6.0,671.8408970627934,8.0,0.0,part_2,go,600.0,550.0,1.0,,,,,,,,,magenta,triangle
0.0,8.0,4.0,1.0,5.0,5.0,752.2257650271058,8.0,0.0,part_2,stop,600.0,550.0,3.0,,,,,,,,,cyan,hexagon
0.0,3.0,3.0,0.0,5.0,5.0,885.6925070285797,8.0,0.0,part_2,go,550.0,550.0,1.0,,,,,,,,,yellow,diamond
0.0,8.0,4.0,1.0,5.0,0.0,0.0,8.0,0.0,part_2,stop,550.0,550.0,4.0,,,,,,,,,cyan,hexagon
0.0,2.0,2.0,0.0,6.0,6.0,776.0033858940005,8.0,0.0,part_2,go,600.0,550.0,1.0,,,,,,,,,orange,flipped triangle
0.0,2.0,2.0,0.0,6.0,6.0,763.2251498289406,8.0,0.0,part_2,go,600.0,550.0,1.0,,,,,,,,,orange,flipped triangle
0.0,2.0,2.0,0.0,6.0,6.0,943.0133369751276,8.0,0.0,part_2,go,600.0,550.0,1.0,,,,,,,,,orange,flipped triangle
0.0,6.0,2.0,1.0,5.0,0.0,0.0,8.0,0.0,part_2,stop,600.0,550.0,4.0,,,,,,,,,white,cross
0.0,5.0,1.0,1.0,6.0,6.0,633.7608669418842,8.0,0.0,part_2,go,650.0,550.0,1.0,,,,,,,,,green,square
0.0,8.0,4.0,1.0,6.0,6.0,600.9362051263452,8.0,0.0,part_2,stop,650.0,550.0,3.0,,,,,,,,,cyan,hexagon
0.0,2.0,2.0,0.0,6.0,6.0,991.544070886448,8.0,0.0,part_2,go,650.0,500.0,1.0,,,,,,,,,orange,flipped triangle
0.0,3.0,3.0,0.0,6.0,6.0,713.1098529789597,8.0,0.0,part_2,go,650.0,500.0,1.0,,,,,,,,,yellow,diamond
0.0,2.0,2.0,0.0,6.0,6.0,543.1148568168283,8.0,0.0,part_2,go,650.0,500.0,1.0,,,,,,,,,orange,flipped triangle
0.0,7.0,3.0,1.0,6.0,6.0,692.5489869900048,8.0,0.0,part_2,go,650.0,500.0,1.0,,,,,,,,,gray,I
0.0,7.0,3.0,1.0,5.0,5.0,683.0527039710432,8.0,0.0,part_2,stop,650.0,500.0,3.0,,,,,,,,,gray,I
0.0,5.0,1.0,1.0,6.0,0.0,0.0,8.0,0.0,part_2,stop,600.0,500.0,4.0,,,,,,,,,green,square
0.0,2.0,2.0,0.0,5.0,5.0,997.229074127972,8.0,0.0,part_2,go,600.0,550.0,1.0,,,,,,,,,orange,flipped triangle
0.0,4.0,4.0,0.0,6.0,6.0,718.4907998889685,8.0,0.0,part_2,go,600.0,550.0,1.0,,,,,,,,,magenta,triangle
0.0,6.0,2.0,1.0,6.0,6.0,525.2163370605558,8.0,0.0,part_2,stop,600.0,550.0,3.0,,,,,,,,,white,cross
0.0,4.0,4.0,0.0,6.0,6.0,1328.5785061307251,8.0,0.0,part_2,go,600.0,500.0,1.0,,,,,,,,,magenta,triangle
0.0,4.0,4.0,0.0,5.0,5.0,822.2808220889419,8.0,0.0,part_2,go,600.0,500.0,1.0,,,,,,,,,magenta,triangle
0.0,3.0,3.0,0.0,6.0,6.0,426.6207991167903,8.0,0.0,part_2,go,600.0,500.0,1.0,,,,,,,,,yellow,diamond
0.0,5.0,1.0,1.0,6.0,6.0,541.656814981252,8.0,0.0,part_2,stop,600.0,500.0,3.0,,,,,,,,,green,square
0.0,8.0,4.0,1.0,6.0,6.0,585.7137499842793,8.0,0.0,part_2,stop,600.0,450.0,3.0,,,,,,,,,cyan,hexagon
0.0,4.0,4.0,0.0,7.0,3.0,2285.1858511567116,1.0,2.0,part_3,go,0.0,0.0,0.0,204.0,6.0,170.0,102.0,204.0,34.0,136.0,68.0,magenta,triangle
0.0,3.0,3.0,0.0,7.0,3.0,2015.0198570918292,1.0,1.0,part_3,go,0.0,0.0,0.0,245.0,5.0,147.0,294.0,245.0,98.0,196.0,49.0,yellow,diamond
0.0,2.0,2.0,0.0,7.0,5.0,1994.8185568209735,1.0,1.0,part_3,go,0.0,0.0,0.0,44.0,1.0,264.0,176.0,132.0,220.0,44.0,88.0,orange,flipped triangle
0.0,7.0,3.0,1.0,7.0,5.0,2512.2614570427686,1.0,1.0,part_3,go,0.0,0.0,0.0,78.0,2.0,234.0,39.0,156.0,117.0,78.0,195.0,gray,I
0.0,5.0,1.0,1.0,7.0,3.0,2042.5288840197027,1.0,1.0,part_3,go,0.0,0.0,0.0,176.0,4.0,44.0,88.0,176.0,132.0,264.0,220.0,green,square
0.0,8.0,4.0,1.0,7.0,4.0,468.3217699639499,1.0,1.0,part_3,go,0.0,0.0,0.0,270.0,5.0,324.0,54.0,108.0,270.0,162.0,216.0,cyan,hexagon
0.0,1.0,1.0,0.0,7.0,1.0,536.8379568681121,1.0,1.0,part_3,go,0.0,0.0,0.0,132.0,3.0,132.0,44.0,264.0,176.0,220.0,88.0,blue,circle
0.0,6.0,2.0,1.0,7.0,6.0,1009.2435879632831,1.0,1.0,part_3,go,0.0,0.0,0.0,39.0,1.0,117.0,78.0,156.0,195.0,234.0,39.0,white,cross
0.0,1.0,1.0,0.0,7.0,3.0,528.7611400708556,1.0,1.0,part_3,go,0.0,0.0,0.0,34.0,1.0,170.0,136.0,34.0,204.0,68.0,102.0,blue,circle
0.0,7.0,3.0,1.0,7.0,4.0,549.6568169910461,1.0,1.0,part_3,go,0.0,0.0,0.0,162.0,3.0,270.0,324.0,216.0,162.0,54.0,108.0,gray,I
0.0,5.0,1.0,1.0,7.0,2.0,485.4169939644635,1.0,1.0,part_3,go,0.0,0.0,0.0,264.0,6.0,176.0,264.0,88.0,220.0,44.0,132.0,green,square
0.0,8.0,4.0,1.0,7.0,1.0,349.4427860714495,1.0,1.0,part_3,go,0.0,0.0,0.0,170.0,5.0,170.0,136.0,34.0,204.0,102.0,68.0,cyan,hexagon
0.0,1.0,1.0,0.0,7.0,4.0,870.3226870857179,1.0,1.0,part_3,go,0.0,0.0,0.0,245.0,5.0,294.0,49.0,196.0,245.0,147.0,98.0,blue,circle
0.0,8.0,4.0,1.0,7.0,3.0,330.0484151113778,1.0,1.0,part_3,go,0.0,0.0,0.0,196.0,4.0,98.0,245.0,196.0,49.0,147.0,294.0,cyan,hexagon
0.0,6.0,2.0,1.0,7.0,6.0,354.7866269946098,1.0,1.0,part_3,go,0.0,0.0,0.0,108.0,2.0,324.0,270.0,54.0,162.0,216.0,108.0,white,cross
0.0,4.0,4.0,0.0,7.0,5.0,251.96366803720588,1.0,1.0,part_3,go,0.0,0.0,0.0,176.0,4.0,88.0,220.0,132.0,264.0,176.0,44.0,magenta,triangle
0.0,6.0,2.0,1.0,7.0,2.0,334.1772840358317,1.0,1.0,part_3,go,0.0,0.0,0.0,49.0,1.0,147.0,49.0,98.0,196.0,294.0,245.0,white,cross
0.0,3.0,3.0,0.0,7.0,3.0,0.2005321439355,1.0,1.0,part_3,go,0.0,0.0,0.0,34.0,1.0,204.0,170.0,34.0,136.0,68.0,102.0,yellow,diamond
0.0,3.0,3.0,0.0,7.0,1.0,402.0693490747362,1.0,1.0,part_3,go,0.0,0.0,0.0,234.0,6.0,234.0,195.0,78.0,117.0,39.0,156.0,yellow,diamond
0.0,5.0,1.0,1.0,7.0,6.0,302.8567838482559,1.0,1.0,part_3,go,0.0,0.0,0.0,245.0,5.0,49.0,98.0,196.0,147.0,294.0,245.0,green,square
0.0,3.0,3.0,0.0,7.0,3.0,790.3051828034222,2.0,1.0,part_3,go,0.0,0.0,0.0,324.0,6.0,270.0,162.0,324.0,108.0,54.0,216.0,yellow,diamond
0.0,3.0,3.0,0.0,7.0,6.0,271.5479650069028,2.0,1.0,part_3,go,0.0,0.0,0.0,324.0,6.0,108.0,54.0,162.0,270.0,216.0,324.0,yellow,diamond
0.0,2.0,2.0,0.0,7.0,4.0,297.5049989763647,2.0,1.0,part_3,go,0.0,0.0,0.0,156.0,4.0,117.0,39.0,78.0,156.0,195.0,234.0,orange,flipped triangle
0.0,1.0,1.0,0.0,7.0,5.0,307.0486530195921,2.0,1.0,part_3,go,0.0,0.0,0.0,156.0,4.0,39.0,117.0,78.0,234.0,156.0,195.0,blue,circle
0.0,4.0,4.0,0.0,7.0,1.0,332.7967708464712,2.0,1.0,part_3,go,0.0,0.0,0.0,117.0,3.0,117.0,78.0,39.0,195.0,156.0,234.0,magenta,triangle
0.0,3.0,3.0,0.0,7.0,2.0,342.9226600565016,2.0,1.0,part_3,go,0.0,0.0,0.0,44.0,1.0,176.0,44.0,88.0,132.0,220.0,264.0,yellow,diamond
0.0,2.0,2.0,0.0,7.0,3.0,300.7938750088215,2.0,1.0,part_3,go,0.0,0.0,0.0,324.0,6.0,216.0,270.0,324.0,162.0,54.0,108.0,orange,flipped triangle
0.0,1.0,1.0,0.0,7.0,2.0,314.3203461077064,2.0,1.0,part_3,go,0.0,0.0,0.0,54.0,1.0,216.0,54.0,162.0,270.0,108.0,324.0,blue,circle
0.0,7.0,3.0,1.0,7.0,5.0,268.6609800439328,2.0,1.0,part_3,go,0.0,0.0,0.0,196.0,4.0,245.0,49.0,98.0,294.0,196.0,147.0,gray,I
0.0,7.0,3.0,1.0,7.0,4.0,280.6770380120724,2.0,1.0,part_3,go,0.0,0.0,0.0,170.0,5.0,34.0,102.0,68.0,170.0,136.0,204.0,gray,I
0.0,8.0,4.0,1.0,7.0,6.0,305.6001081131398,2.0,1.0,part_3,go,0.0,0.0,0.0,34.0,1.0,102.0,170.0,204.0,136.0,68.0,34.0,cyan,hexagon
0.0,5.0,1.0,1.0,7.0,3.0,394.4284101016819,2.0,1.0,part_3,go,0.0,0.0,0.0,108.0,2.0,324.0,162.0,108.0,216.0,54.0,270.0,green,square
0.0,6.0,2.0,1.0,7.0,1.0,316.9168881140649,2.0,1.0,part_3,go,0.0,0.0,0.0,88.0,2.0,88.0,220.0,132.0,264.0,44.0,176.0,white,cross
0.0,5.0,1.0,1.0,7.0,3.0,239.736805902794,2.0,1.0,part_3,go,0.0,0.0,0.0,170.0,5.0,204.0,68.0,170.0,34.0,136.0,102.0,green,square
0.0,8.0,4.0,1.0,7.0,2.0,4.1570048779249005,2.0,1.0,part_3,go,0.0,0.0,0.0,234.0,6.0,78.0,234.0,195.0,156.0,117.0,39.0,cyan,hexagon
0.0,7.0,3.0,1.0,7.0,4.0,333.6635020095855,2.0,1.0,part_3,go,0.0,0.0,0.0,324.0,6.0,216.0,54.0,162.0,324.0,108.0,270.0,gray,I
0.0,2.0,2.0,0.0,7.0,6.0,310.580100864172,2.0,1.0,part_3,go,0.0,0.0,0.0,156.0,4.0,234.0,39.0,78.0,195.0,117.0,156.0,orange,flipped triangle
0.0,8.0,4.0,1.0,7.0,5.0,268.273975001648,2.0,1.0,part_3,go,0.0,0.0,0.0,264.0,6.0,88.0,220.0,132.0,176.0,264.0,44.0,cyan,hexagon
0.0,1.0,1.0,0.0,7.0,3.0,315.3227088041603,2.0,1.0,part_3,go,0.0,0.0,0.0,39.0,1.0,117.0,234.0,39.0,195.0,78.0,156.0,blue,circle
0.0,4.0,4.0,0.0,7.0,5.0,268.5247049666941,2.0,1.0,part_3,go,0.0,0.0,0.0,245.0,5.0,196.0,49.0,147.0,98.0,245.0,294.0,magenta,triangle
0.0,7.0,3.0,1.0,7.0,2.0,520.2881069853902,3.0,1.0,part_3,go,0.0,0.0,0.0,117.0,3.0,39.0,117.0,78.0,156.0,195.0,234.0,gray,I
0.0,8.0,4.0,1.0,7.0,4.0,297.585432883352,3.0,1.0,part_3,go,0.0,0.0,0.0,132.0,3.0,44.0,220.0,88.0,132.0,176.0,264.0,cyan,hexagon
0.0,1.0,1.0,0.0,7.0,1.0,296.8583840411156,3.0,1.0,part_3,go,0.0,0.0,0.0,132.0,3.0,132.0,220.0,44.0,88.0,264.0,176.0,blue,circle
0.0,2.0,2.0,0.0,7.0,4.0,444.0522040240466,3.0,1.0,part_3,go,0.0,0.0,0.0,88.0,2.0,176.0,44.0,264.0,88.0,220.0,132.0,orange,flipped triangle
0.0,2.0,2.0,0.0,7.0,5.0,332.1583459619432,3.0,1.0,part_3,go,0.0,0.0,0.0,196.0,4.0,294.0,245.0,98.0,147.0,196.0,49.0,orange,flipped triangle
0.0,4.0,4.0,0.0,7.0,3.0,401.9511039368808,3.0,1.0,part_3,go,0.0,0.0,0.0,162.0,3.0,324.0,108.0,162.0,216.0,270.0,54.0,magenta,triangle
0.0,7.0,3.0,1.0,7.0,1.0,416.3789649028331,3.0,1.0,part_3,go,0.0,0.0,0.0,147.0,3.0,147.0,294.0,49.0,98.0,245.0,196.0,gray,I
0.0,1.0,1.0,0.0,7.0,4.0,305.4171749390661,3.0,1.0,part_3,go,0.0,0.0,0.0,196.0,4.0,294.0,147.0,49.0,196.0,98.0,245.0,blue,circle
0.0,6.0,2.0,1.0,7.0,6.0,316.5124251972884,3.0,1.0,part_3,go,0.0,0.0,0.0,220.0,5.0,264.0,132.0,176.0,44.0,88.0,220.0,white,cross
0.0,2.0,2.0,0.0,7.0,5.0,329.908185871318,3.0,1.0,part_3,go,0.0,0.0,0.0,162.0,3.0,108.0,54.0,324.0,270.0,162.0,216.0,orange,flipped triangle
0.0,5.0,1.0,1.0,7.0,6.0,395.8506199996918,3.0,1.0,part_3,go,0.0,0.0,0.0,68.0,2.0,34.0,136.0,170.0,102.0,204.0,68.0,green,square
0.0,4.0,4.0,0.0,7.0,2.0,329.5654430985451,3.0,1.0,part_3,go,0.0,0.0,0.0,220.0,5.0,176.0,220.0,44.0,88.0,132.0,264.0,magenta,triangle
0.0,4.0,4.0,0.0,7.0,1.0,580.836134031415,3.0,1.0,part_3,go,0.0,0.0,0.0,245.0,5.0,245.0,49.0,294.0,196.0,98.0,147.0,magenta,triangle
0.0,1.0,1.0,0.0,7.0,3.0,591.4835380390286,3.0,1.0,part_3,go,0.0,0.0,0.0,204.0,6.0,136.0,68.0,204.0,170.0,34.0,102.0,blue,circle
0.0,6.0,2.0,1.0,7.0,2.0,345.711010042578,3.0,1.0,part_3,go,0.0,0.0,0.0,108.0,2.0,54.0,108.0,216.0,324.0,162.0,270.0,white,cross
0.0,8.0,4.0,1.0,7.0,4.0,492.238723905757,3.0,1.0,part_3,go,0.0,0.0,0.0,108.0,2.0,54.0,216.0,270.0,108.0,324.0,162.0,cyan,hexagon
0.0,8.0,4.0,1.0,7.0,5.0,311.5401589311659,3.0,1.0,part_3,go,0.0,0.0,0.0,234.0,6.0,117.0,156.0,39.0,195.0,234.0,78.0,cyan,hexagon
0.0,7.0,3.0,1.0,7.0,4.0,292.6137109752744,3.0,1.0,part_3,go,0.0,0.0,0.0,68.0,2.0,170.0,102.0,136.0,68.0,204.0,34.0,gray,I
0.0,3.0,3.0,0.0,7.0,3.0,337.6231240108609,3.0,1.0,part_3,go,0.0,0.0,0.0,49.0,1.0,147.0,196.0,49.0,294.0,98.0,245.0,yellow,diamond
0.0,4.0,4.0,0.0,7.0,4.0,417.4962181132287,3.0,1.0,part_3,go,0.0,0.0,0.0,102.0,3.0,170.0,136.0,68.0,102.0,34.0,204.0,magenta,triangle
0.0,5.0,1.0,1.0,7.0,4.0,3405.7444180361927,4.0,1.0,part_3,go,0.0,0.0,0.0,195.0,5.0,78.0,234.0,39.0,195.0,117.0,156.0,green,square
0.0,7.0,3.0,1.0,7.0,6.0,728.9008279331028,4.0,1.0,part_3,go,0.0,0.0,0.0,132.0,3.0,44.0,264.0,220.0,88.0,176.0,132.0,gray,I
0.0,1.0,1.0,0.0,7.0,1.0,301.1003350839019,4.0,1.0,part_3,go,0.0,0.0,0.0,324.0,6.0,324.0,162.0,108.0,216.0,270.0,54.0,blue,circle
0.0,4.0,4.0,0.0,7.0,3.0,323.4333619475364,4.0,1.0,part_3,go,0.0,0.0,0.0,216.0,4.0,324.0,108.0,216.0,54.0,162.0,270.0,magenta,triangle
0.0,6.0,2.0,1.0,7.0,2.0,336.2798928283155,4.0,1.0,part_3,go,0.0,0.0,0.0,170.0,5.0,136.0,170.0,68.0,204.0,34.0,102.0,white,cross
0.0,6.0,2.0,1.0,7.0,5.0,337.7509510610252,4.0,1.0,part_3,go,0.0,0.0,0.0,117.0,3.0,78.0,156.0,39.0,195.0,117.0,234.0,white,cross
0.0,2.0,2.0,0.0,7.0,6.0,328.6479839589447,4.0,1.0,part_3,go,0.0,0.0,0.0,170.0,5.0,34.0,136.0,204.0,102.0,68.0,170.0,orange,flipped triangle
0.0,3.0,3.0,0.0,7.0,3.0,420.0444391462952,4.0,1.0,part_3,go,0.0,0.0,0.0,132.0,3.0,264.0,220.0,132.0,44.0,176.0,88.0,yellow,diamond
0.0,6.0,2.0,1.0,7.0,5.0,465.1245370041579,4.0,1.0,part_3,go,0.0,0.0,0.0,245.0,5.0,196.0,147.0,294.0,98.0,245.0,49.0,white,cross
0.0,5.0,1.0,1.0,7.0,1.0,644.818281987682,4.0,1.0,part_3,go,0.0,0.0,0.0,196.0,4.0,196.0,98.0,245.0,294.0,147.0,49.0,green,square
0.0,5.0,1.0,1.0,7.0,2.0,557.482749922201,4.0,1.0,part_3,go,0.0,0.0,0.0,324.0,6.0,162.0,324.0,54.0,108.0,216.0,270.0,green,square
0.0,7.0,3.0,1.0,7.0,3.0,277.9108660761267,4.0,1.0,part_3,go,0.0,0.0,0.0,88.0,2.0,176.0,132.0,88.0,220.0,44.0,264.0,gray,I
0.0,4.0,4.0,0.0,7.0,4.0,276.007697917521,4.0,1.0,part_3,go,0.0,0.0,0.0,78.0,2.0,156.0,195.0,234.0,78.0,117.0,39.0,magenta,triangle
0.0,5.0,1.0,1.0,7.0,5.0,266.3114320021122,4.0,1.0,part_3,go,0.0,0.0,0.0,156.0,4.0,195.0,78.0,117.0,39.0,156.0,234.0,green,square
0.0,2.0,2.0,0.0,7.0,6.0,270.1914198696613,4.0,1.0,part_3,go,0.0,0.0,0.0,147.0,3.0,196.0,49.0,245.0,294.0,98.0,147.0,orange,flipped triangle
0.0,6.0,2.0,1.0,7.0,4.0,268.9951539505273,4.0,1.0,part_3,go,0.0,0.0,0.0,204.0,6.0,102.0,34.0,136.0,204.0,170.0,68.0,white,cross
0.0,8.0,4.0,1.0,7.0,1.0,362.4191170092672,4.0,1.0,part_3,go,0.0,0.0,0.0,196.0,4.0,196.0,245.0,49.0,294.0,147.0,98.0,cyan,hexagon
0.0,3.0,3.0,0.0,7.0,3.0,518.0803770199418,4.0,1.0,part_3,go,0.0,0.0,0.0,102.0,3.0,136.0,204.0,102.0,34.0,68.0,170.0,yellow,diamond
0.0,2.0,2.0,0.0,7.0,2.0,395.5939768347889,4.0,1.0,part_3,go,0.0,0.0,0.0,204.0,6.0,136.0,204.0,68.0,102.0,170.0,34.0,orange,flipped triangle
0.0,3.0,3.0,0.0,7.0,5.0,1330.0888370722532,4.0,1.0,part_3,go,0.0,0.0,0.0,78.0,2.0,234.0,117.0,195.0,156.0,78.0,39.0,yellow,diamond
