raw_reward_magnitude,stim_reward,stepwise_reward_magnitude,paired_with_stopping,stim_location,response,reaction_time,block,num_trial_presentations,which_phase,stop_signal_trial_type,left_SSD,right_SSD,accuracy,chosen_bidding_amount,chosen_bidding_level,possible_bid_1,possible_bid_2,possible_bid_3,possible_bid_4,possible_bid_5,possible_bid_6,color_text,shape_text
100.0,6.0,2.0,1.0,4.0,4.0,565.9003490000032,1.0,1.0,phase_1,,,,,,,,,,,,,white,diamond
406.0,4.0,4.0,0.0,2.0,2.0,376.6306979998717,1.0,1.0,phase_1,,,,,,,,,,,,,yellow,hexagon
0.0,7.0,0.0,1.0,4.0,4.0,390.7530760000099,1.0,1.0,phase_1,,,,,,,,,,,,,green,circle
382.0,4.0,4.0,0.0,1.0,1.0,274.0497139998297,1.0,1.0,phase_1,,,,,,,,,,,,,yellow,hexagon
211.0,3.0,3.0,0.0,1.0,1.0,381.710824000038,1.0,1.0,phase_1,,,,,,,,,,,,,cyan,I
0.0,8.0,0.0,1.0,2.0,2.0,340.1355230000717,1.0,1.0,phase_1,,,,,,,,,,,,,orange,cross
401.0,8.0,4.0,1.0,2.0,2.0,378.2084740000755,1.0,1.0,phase_1,,,,,,,,,,,,,orange,cross
123.0,2.0,2.0,0.0,2.0,2.0,340.3321920000053,1.0,1.0,phase_1,,,,,,,,,,,,,blue,square
78.0,6.0,2.0,1.0,4.0,4.0,297.2112639999977,1.0,1.0,phase_1,,,,,,,,,,,,,white,diamond
68.0,1.0,1.0,0.0,1.0,1.0,277.7832060000946,1.0,1.0,phase_1,,,,,,,,,,,,,magenta,triangle
390.0,4.0,4.0,0.0,2.0,2.0,257.7086400001462,1.0,1.0,phase_1,,,,,,,,,,,,,yellow,hexagon
120.0,6.0,2.0,1.0,4.0,4.0,415.6338100001449,1.0,1.0,phase_1,,,,,,,,,,,,,white,diamond
401.0,8.0,4.0,1.0,3.0,3.0,388.2485880001241,1.0,1.0,phase_1,,,,,,,,,,,,,orange,cross
94.0,6.0,2.0,1.0,3.0,3.0,467.2457479998684,1.0,1.0,phase_1,,,,,,,,,,,,,white,diamond
118.0,6.0,2.0,1.0,3.0,3.0,359.5902320000732,1.0,1.0,phase_1,,,,,,,,,,,,,white,diamond
424.0,8.0,4.0,1.0,1.0,1.0,362.4252909999086,1.0,1.0,phase_1,,,,,,,,,,,,,orange,cross
177.0,7.0,3.0,1.0,1.0,1.0,327.3212669998884,1.0,1.0,phase_1,,,,,,,,,,,,,green,circle
407.0,8.0,4.0,1.0,4.0,4.0,348.8974130000315,1.0,1.0,phase_1,,,,,,,,,,,,,orange,cross
0.0,1.0,0.0,0.0,1.0,1.0,311.8065200001183,1.0,1.0,phase_1,,,,,,,,,,,,,magenta,triangle
0.0,4.0,0.0,0.0,4.0,4.0,373.057443999869,1.0,1.0,phase_1,,,,,,,,,,,,,yellow,hexagon
101.0,6.0,2.0,1.0,1.0,1.0,450.7493200001136,1.0,1.0,phase_1,,,,,,,,,,,,,white,diamond
399.0,4.0,4.0,0.0,3.0,3.0,349.776398999893,1.0,1.0,phase_1,,,,,,,,,,,,,yellow,hexagon
0.0,7.0,0.0,1.0,3.0,3.0,315.0297459999365,1.0,1.0,phase_1,,,,,,,,,,,,,green,circle
403.0,8.0,4.0,1.0,1.0,1.0,359.1074870000739,1.0,1.0,phase_1,,,,,,,,,,,,,orange,cross
204.0,7.0,3.0,1.0,2.0,2.0,315.3997269998854,1.0,1.0,phase_1,,,,,,,,,,,,,green,circle
214.0,3.0,3.0,0.0,2.0,2.0,283.7657390000458,1.0,1.0,phase_1,,,,,,,,,,,,,cyan,I
211.0,3.0,3.0,0.0,4.0,4.0,333.428663000177,1.0,1.0,phase_1,,,,,,,,,,,,,cyan,I
90.0,2.0,2.0,0.0,3.0,3.0,293.8332859998809,1.0,1.0,phase_1,,,,,,,,,,,,,blue,square
0.0,3.0,0.0,0.0,2.0,2.0,278.6552630000187,1.0,1.0,phase_1,,,,,,,,,,,,,cyan,I
47.0,1.0,1.0,0.0,3.0,3.0,382.6050459999806,1.0,1.0,phase_1,,,,,,,,,,,,,magenta,triangle
411.0,4.0,4.0,0.0,4.0,4.0,391.8458570001348,1.0,1.0,phase_1,,,,,,,,,,,,,yellow,hexagon
380.0,8.0,4.0,1.0,1.0,1.0,293.1945350001115,1.0,1.0,phase_1,,,,,,,,,,,,,orange,cross
110.0,2.0,2.0,0.0,4.0,4.0,361.0006210001302,1.0,2.0,phase_1,,,,,,,,,,,,,blue,square
379.0,8.0,4.0,1.0,4.0,4.0,387.518880000016,1.0,1.0,phase_1,,,,,,,,,,,,,orange,cross
403.0,4.0,4.0,0.0,3.0,3.0,305.4423230000793,1.0,1.0,phase_1,,,,,,,,,,,,,yellow,hexagon
177.0,3.0,3.0,0.0,4.0,4.0,344.1452760000629,1.0,1.0,phase_1,,,,,,,,,,,,,cyan,I
65.0,1.0,1.0,0.0,4.0,4.0,352.9161100000237,1.0,1.0,phase_1,,,,,,,,,,,,,magenta,triangle
113.0,6.0,2.0,1.0,2.0,2.0,405.5163739999443,1.0,1.0,phase_1,,,,,,,,,,,,,white,diamond
99.0,2.0,2.0,0.0,1.0,1.0,354.6960290000243,1.0,1.0,phase_1,,,,,,,,,,,,,blue,square
121.0,2.0,2.0,0.0,3.0,3.0,329.0321029999177,1.0,1.0,phase_1,,,,,,,,,,,,,blue,square
182.0,7.0,3.0,1.0,1.0,1.0,302.3297680001633,1.0,1.0,phase_1,,,,,,,,,,,,,green,circle
408.0,8.0,4.0,1.0,1.0,1.0,321.7875660000118,1.0,1.0,phase_1,,,,,,,,,,,,,orange,cross
125.0,6.0,2.0,1.0,1.0,1.0,280.4421440000624,1.0,1.0,phase_1,,,,,,,,,,,,,white,diamond
181.0,7.0,3.0,1.0,2.0,2.0,367.8324750001138,1.0,2.0,phase_1,,,,,,,,,,,,,green,circle
0.0,1.0,0.0,0.0,2.0,2.0,330.3656250000131,1.0,1.0,phase_1,,,,,,,,,,,,,magenta,triangle
87.0,2.0,2.0,0.0,2.0,2.0,433.4570050000366,1.0,1.0,phase_1,,,,,,,,,,,,,blue,square
191.0,3.0,3.0,0.0,1.0,1.0,355.9169769998789,1.0,1.0,phase_1,,,,,,,,,,,,,cyan,I
0.0,1.0,0.0,0.0,1.0,1.0,322.7411160000883,1.0,1.0,phase_1,,,,,,,,,,,,,magenta,triangle
123.0,6.0,2.0,1.0,2.0,2.0,293.1026769999789,1.0,1.0,phase_1,,,,,,,,,,,,,white,diamond
103.0,6.0,2.0,1.0,1.0,1.0,293.520658000034,1.0,1.0,phase_1,,,,,,,,,,,,,white,diamond
0.0,7.0,0.0,1.0,3.0,3.0,306.9105259999105,1.0,1.0,phase_1,,,,,,,,,,,,,green,circle
0.0,5.0,0.0,1.0,4.0,4.0,389.1177349998997,1.0,1.0,phase_1,,,,,,,,,,,,,gray,flipped triangle
187.0,7.0,3.0,1.0,3.0,3.0,372.335774000021,1.0,1.0,phase_1,,,,,,,,,,,,,green,circle
54.0,1.0,1.0,0.0,3.0,3.0,353.0514710000716,1.0,1.0,phase_1,,,,,,,,,,,,,magenta,triangle
0.0,3.0,0.0,0.0,2.0,2.0,337.287999000182,1.0,1.0,phase_1,,,,,,,,,,,,,cyan,I
382.0,8.0,4.0,1.0,2.0,2.0,286.7984540000634,1.0,1.0,phase_1,,,,,,,,,,,,,orange,cross
398.0,8.0,4.0,1.0,2.0,2.0,292.6234179999483,1.0,1.0,phase_1,,,,,,,,,,,,,orange,cross
0.0,4.0,0.0,0.0,3.0,3.0,322.2465820001616,1.0,1.0,phase_1,,,,,,,,,,,,,yellow,hexagon
64.0,5.0,1.0,1.0,4.0,4.0,432.0948820000012,1.0,1.0,phase_1,,,,,,,,,,,,,gray,flipped triangle
199.0,7.0,3.0,1.0,4.0,4.0,395.6881689998681,1.0,1.0,phase_1,,,,,,,,,,,,,green,circle
57.0,5.0,1.0,1.0,2.0,2.0,326.2984979999146,1.0,1.0,phase_1,,,,,,,,,,,,,gray,flipped triangle
392.0,4.0,4.0,0.0,2.0,2.0,348.9858000000367,1.0,1.0,phase_1,,,,,,,,,,,,,yellow,hexagon
68.0,5.0,1.0,1.0,1.0,1.0,321.4488799999344,1.0,1.0,phase_1,,,,,,,,,,,,,gray,flipped triangle
0.0,5.0,0.0,1.0,3.0,3.0,325.3658849998828,1.0,1.0,phase_1,,,,,,,,,,,,,gray,flipped triangle
199.0,3.0,3.0,0.0,4.0,4.0,320.5940530001498,1.0,1.0,phase_1,,,,,,,,,,,,,cyan,I
210.0,7.0,3.0,1.0,3.0,3.0,365.7827679999172,1.0,1.0,phase_1,,,,,,,,,,,,,green,circle
384.0,4.0,4.0,0.0,2.0,2.0,338.0458870001348,1.0,1.0,phase_1,,,,,,,,,,,,,yellow,hexagon
72.0,5.0,1.0,1.0,2.0,2.0,346.2175579998074,1.0,1.0,phase_1,,,,,,,,,,,,,gray,flipped triangle
103.0,2.0,2.0,0.0,1.0,1.0,358.1899669998165,1.0,1.0,phase_1,,,,,,,,,,,,,blue,square
418.0,4.0,4.0,0.0,2.0,2.0,337.7192170000853,1.0,1.0,phase_1,,,,,,,,,,,,,yellow,hexagon
110.0,6.0,2.0,1.0,1.0,1.0,293.2185740000932,1.0,1.0,phase_1,,,,,,,,,,,,,white,diamond
420.0,4.0,4.0,0.0,3.0,3.0,371.4497159999155,1.0,1.0,phase_1,,,,,,,,,,,,,yellow,hexagon
77.0,6.0,2.0,1.0,2.0,2.0,359.5927039998514,1.0,1.0,phase_1,,,,,,,,,,,,,white,diamond
388.0,4.0,4.0,0.0,2.0,2.0,380.3079900001194,1.0,1.0,phase_1,,,,,,,,,,,,,yellow,hexagon
29.0,1.0,1.0,0.0,3.0,3.0,339.6651209998254,1.0,1.0,phase_1,,,,,,,,,,,,,magenta,triangle
377.0,8.0,4.0,1.0,4.0,4.0,351.004347000071,1.0,1.0,phase_1,,,,,,,,,,,,,orange,cross
0.0,6.0,0.0,1.0,1.0,1.0,321.2100420000752,1.0,1.0,phase_1,,,,,,,,,,,,,white,diamond
181.0,3.0,3.0,0.0,1.0,1.0,376.4638129998729,1.0,1.0,phase_1,,,,,,,,,,,,,cyan,I
0.0,1.0,0.0,0.0,2.0,2.0,346.2069070001234,1.0,1.0,phase_1,,,,,,,,,,,,,magenta,triangle
394.0,8.0,4.0,1.0,4.0,4.0,322.9379279998738,1.0,1.0,phase_1,,,,,,,,,,,,,orange,cross
65.0,5.0,1.0,1.0,3.0,3.0,334.5915039999454,1.0,1.0,phase_1,,,,,,,,,,,,,gray,flipped triangle
27.0,5.0,1.0,1.0,1.0,1.0,355.1595110000107,1.0,1.0,phase_1,,,,,,,,,,,,,gray,flipped triangle
0.0,3.0,0.0,0.0,4.0,4.0,294.0579649998653,1.0,1.0,phase_1,,,,,,,,,,,,,cyan,I
0.0,5.0,0.0,1.0,3.0,3.0,306.5697310000814,1.0,1.0,phase_1,,,,,,,,,,,,,gray,flipped triangle
0.0,8.0,0.0,1.0,1.0,1.0,313.5372179999649,1.0,1.0,phase_1,,,,,,,,,,,,,orange,cross
64.0,1.0,1.0,0.0,3.0,3.0,339.206349000051,1.0,1.0,phase_1,,,,,,,,,,,,,magenta,triangle
0.0,5.0,0.0,1.0,1.0,1.0,313.7745700000778,1.0,1.0,phase_1,,,,,,,,,,,,,gray,flipped triangle
41.0,5.0,1.0,1.0,1.0,1.0,453.8443179999376,1.0,1.0,phase_1,,,,,,,,,,,,,gray,flipped triangle
0.0,3.0,0.0,0.0,2.0,2.0,292.2318710000127,1.0,1.0,phase_1,,,,,,,,,,,,,cyan,I
34.0,5.0,1.0,1.0,1.0,1.0,338.6672990000079,1.0,2.0,phase_1,,,,,,,,,,,,,gray,flipped triangle
93.0,2.0,2.0,0.0,3.0,3.0,362.5351309999587,1.0,1.0,phase_1,,,,,,,,,,,,,blue,square
81.0,6.0,2.0,1.0,1.0,1.0,396.1408080001547,1.0,1.0,phase_1,,,,,,,,,,,,,white,diamond
0.0,6.0,0.0,1.0,1.0,1.0,336.5565199999309,1.0,1.0,phase_1,,,,,,,,,,,,,white,diamond
220.0,7.0,3.0,1.0,2.0,2.0,365.0856989997919,1.0,1.0,phase_1,,,,,,,,,,,,,green,circle
188.0,3.0,3.0,0.0,2.0,2.0,393.8221659998362,1.0,1.0,phase_1,,,,,,,,,,,,,cyan,I
87.0,6.0,2.0,1.0,3.0,3.0,398.4466389999852,1.0,1.0,phase_1,,,,,,,,,,,,,white,diamond
200.0,3.0,3.0,0.0,2.0,2.0,324.0692960000615,1.0,1.0,phase_1,,,,,,,,,,,,,cyan,I
185.0,3.0,3.0,0.0,2.0,2.0,295.4995089999102,1.0,1.0,phase_1,,,,,,,,,,,,,cyan,I
38.0,5.0,1.0,1.0,1.0,1.0,326.5645120000044,1.0,1.0,phase_1,,,,,,,,,,,,,gray,flipped triangle
77.0,2.0,2.0,0.0,1.0,1.0,491.1007819998758,1.0,1.0,phase_1,,,,,,,,,,,,,blue,square
78.0,2.0,2.0,0.0,4.0,4.0,448.404279999977,2.0,1.0,phase_1,,,,,,,,,,,,,blue,square
29.0,5.0,1.0,1.0,3.0,3.0,316.8502500000159,2.0,1.0,phase_1,,,,,,,,,,,,,gray,flipped triangle
78.0,6.0,2.0,1.0,2.0,2.0,284.8907210000106,2.0,1.0,phase_1,,,,,,,,,,,,,white,diamond
121.0,6.0,2.0,1.0,1.0,1.0,343.4541529998114,2.0,1.0,phase_1,,,,,,,,,,,,,white,diamond
210.0,7.0,3.0,1.0,2.0,2.0,318.2812309999008,2.0,1.0,phase_1,,,,,,,,,,,,,green,circle
61.0,1.0,1.0,0.0,2.0,2.0,326.5441199998804,2.0,1.0,phase_1,,,,,,,,,,,,,magenta,triangle
81.0,2.0,2.0,0.0,2.0,2.0,318.1226729998343,2.0,1.0,phase_1,,,,,,,,,,,,,blue,square
78.0,2.0,2.0,0.0,2.0,2.0,264.1626320000796,2.0,1.0,phase_1,,,,,,,,,,,,,blue,square
223.0,7.0,3.0,1.0,1.0,1.0,312.271249999867,2.0,1.0,phase_1,,,,,,,,,,,,,green,circle
51.0,5.0,1.0,1.0,3.0,3.0,378.2287880001149,2.0,1.0,phase_1,,,,,,,,,,,,,gray,flipped triangle
0.0,1.0,0.0,0.0,1.0,1.0,343.2722729999113,2.0,1.0,phase_1,,,,,,,,,,,,,magenta,triangle
192.0,7.0,3.0,1.0,2.0,2.0,268.2482570000957,2.0,1.0,phase_1,,,,,,,,,,,,,green,circle
0.0,2.0,0.0,0.0,3.0,3.0,392.3264669999753,2.0,1.0,phase_1,,,,,,,,,,,,,blue,square
29.0,5.0,1.0,1.0,3.0,3.0,390.2808479999748,2.0,1.0,phase_1,,,,,,,,,,,,,gray,flipped triangle
0.0,2.0,0.0,0.0,4.0,4.0,348.8494769999306,2.0,1.0,phase_1,,,,,,,,,,,,,blue,square
0.0,2.0,0.0,0.0,2.0,2.0,281.2183589999222,2.0,1.0,phase_1,,,,,,,,,,,,,blue,square
395.0,8.0,4.0,1.0,2.0,2.0,396.7215810000652,2.0,1.0,phase_1,,,,,,,,,,,,,orange,cross
403.0,8.0,4.0,1.0,3.0,3.0,347.0839659999001,2.0,1.0,phase_1,,,,,,,,,,,,,orange,cross
189.0,3.0,3.0,0.0,3.0,3.0,421.3909430000058,2.0,1.0,phase_1,,,,,,,,,,,,,cyan,I
107.0,2.0,2.0,0.0,1.0,1.0,272.3549550000825,2.0,1.0,phase_1,,,,,,,,,,,,,blue,square
54.0,1.0,1.0,0.0,4.0,4.0,333.291114000076,2.0,1.0,phase_1,,,,,,,,,,,,,magenta,triangle
177.0,3.0,3.0,0.0,2.0,2.0,277.6169860001118,2.0,1.0,phase_1,,,,,,,,,,,,,cyan,I
225.0,3.0,3.0,0.0,1.0,1.0,392.3149730001114,2.0,1.0,phase_1,,,,,,,,,,,,,cyan,I
379.0,4.0,4.0,0.0,1.0,1.0,363.8729320000493,2.0,1.0,phase_1,,,,,,,,,,,,,yellow,hexagon
61.0,1.0,1.0,0.0,3.0,3.0,330.9575180001047,2.0,1.0,phase_1,,,,,,,,,,,,,magenta,triangle
39.0,5.0,1.0,1.0,3.0,3.0,367.2648890001255,2.0,1.0,phase_1,,,,,,,,,,,,,gray,flipped triangle
184.0,3.0,3.0,0.0,2.0,2.0,316.0650909999276,2.0,1.0,phase_1,,,,,,,,,,,,,cyan,I
384.0,4.0,4.0,0.0,4.0,4.0,335.8574530000169,2.0,1.0,phase_1,,,,,,,,,,,,,yellow,hexagon
0.0,2.0,0.0,0.0,1.0,1.0,306.5646850000121,2.0,1.0,phase_1,,,,,,,,,,,,,blue,square
200.0,7.0,3.0,1.0,2.0,2.0,250.1471990001391,2.0,1.0,phase_1,,,,,,,,,,,,,green,circle
399.0,8.0,4.0,1.0,3.0,3.0,310.7397119999859,2.0,1.0,phase_1,,,,,,,,,,,,,orange,cross
0.0,8.0,0.0,1.0,3.0,3.0,389.2159810000066,2.0,1.0,phase_1,,,,,,,,,,,,,orange,cross
36.0,1.0,1.0,0.0,1.0,1.0,285.6764969999403,2.0,1.0,phase_1,,,,,,,,,,,,,magenta,triangle
27.0,1.0,1.0,0.0,3.0,3.0,396.1432359999435,2.0,1.0,phase_1,,,,,,,,,,,,,magenta,triangle
0.0,2.0,0.0,0.0,4.0,4.0,393.7288490001265,2.0,1.0,phase_1,,,,,,,,,,,,,blue,square
41.0,1.0,1.0,0.0,4.0,4.0,372.5558329999785,2.0,1.0,phase_1,,,,,,,,,,,,,magenta,triangle
0.0,7.0,0.0,1.0,1.0,1.0,323.1214330000966,2.0,1.0,phase_1,,,,,,,,,,,,,green,circle
62.0,5.0,1.0,1.0,4.0,4.0,376.5171359998476,2.0,1.0,phase_1,,,,,,,,,,,,,gray,flipped triangle
51.0,1.0,1.0,0.0,2.0,2.0,345.7569580000381,2.0,1.0,phase_1,,,,,,,,,,,,,magenta,triangle
56.0,5.0,1.0,1.0,4.0,4.0,346.3431640000181,2.0,1.0,phase_1,,,,,,,,,,,,,gray,flipped triangle
0.0,3.0,0.0,0.0,1.0,1.0,341.9476990000021,2.0,1.0,phase_1,,,,,,,,,,,,,cyan,I
384.0,8.0,4.0,1.0,2.0,2.0,426.0244989998227,2.0,1.0,phase_1,,,,,,,,,,,,,orange,cross
31.0,5.0,1.0,1.0,4.0,4.0,397.5037879999945,2.0,1.0,phase_1,,,,,,,,,,,,,gray,flipped triangle
31.0,1.0,1.0,0.0,1.0,1.0,401.0599439998259,2.0,1.0,phase_1,,,,,,,,,,,,,magenta,triangle
67.0,1.0,1.0,0.0,3.0,3.0,385.9511279999879,2.0,1.0,phase_1,,,,,,,,,,,,,magenta,triangle
81.0,6.0,2.0,1.0,4.0,4.0,354.4407619999674,2.0,1.0,phase_1,,,,,,,,,,,,,white,diamond
67.0,5.0,1.0,1.0,2.0,2.0,289.3384690000857,2.0,1.0,phase_1,,,,,,,,,,,,,gray,flipped triangle
0.0,4.0,0.0,0.0,4.0,4.0,376.023780000196,2.0,1.0,phase_1,,,,,,,,,,,,,yellow,hexagon
401.0,4.0,4.0,0.0,4.0,4.0,330.557552000073,2.0,1.0,phase_1,,,,,,,,,,,,,yellow,hexagon
188.0,7.0,3.0,1.0,1.0,1.0,330.2055530000416,2.0,2.0,phase_1,,,,,,,,,,,,,green,circle
51.0,5.0,1.0,1.0,1.0,1.0,321.8641350001689,2.0,1.0,phase_1,,,,,,,,,,,,,gray,flipped triangle
0.0,6.0,0.0,1.0,2.0,2.0,348.2695319999038,2.0,1.0,phase_1,,,,,,,,,,,,,white,diamond
216.0,3.0,3.0,0.0,3.0,3.0,332.2302289998333,2.0,1.0,phase_1,,,,,,,,,,,,,cyan,I
0.0,7.0,0.0,1.0,1.0,1.0,359.995753000021,2.0,1.0,phase_1,,,,,,,,,,,,,green,circle
189.0,7.0,3.0,1.0,3.0,3.0,360.0259869999718,2.0,2.0,phase_1,,,,,,,,,,,,,green,circle
394.0,4.0,4.0,0.0,1.0,1.0,347.4795479999102,2.0,1.0,phase_1,,,,,,,,,,,,,yellow,hexagon
0.0,3.0,0.0,0.0,4.0,4.0,395.1474299999518,2.0,1.0,phase_1,,,,,,,,,,,,,cyan,I
0.0,4.0,0.0,0.0,1.0,1.0,401.3203399999838,2.0,2.0,phase_1,,,,,,,,,,,,,yellow,hexagon
0.0,3.0,0.0,0.0,3.0,3.0,421.7011499999898,2.0,1.0,phase_1,,,,,,,,,,,,,cyan,I
0.0,1.0,0.0,0.0,4.0,4.0,386.5380209999784,2.0,1.0,phase_1,,,,,,,,,,,,,magenta,triangle
220.0,3.0,3.0,0.0,4.0,4.0,417.2465839999404,2.0,1.0,phase_1,,,,,,,,,,,,,cyan,I
0.0,1.0,0.0,0.0,2.0,2.0,428.5402479999902,2.0,1.0,phase_1,,,,,,,,,,,,,magenta,triangle
388.0,8.0,4.0,1.0,4.0,4.0,416.667087000178,2.0,1.0,phase_1,,,,,,,,,,,,,orange,cross
417.0,8.0,4.0,1.0,4.0,4.0,334.4229029999042,2.0,1.0,phase_1,,,,,,,,,,,,,orange,cross
394.0,4.0,4.0,0.0,3.0,3.0,338.408452999829,2.0,1.0,phase_1,,,,,,,,,,,,,yellow,hexagon
70.0,1.0,1.0,0.0,4.0,4.0,438.3299440000883,2.0,1.0,phase_1,,,,,,,,,,,,,magenta,triangle
70.0,5.0,1.0,1.0,2.0,2.0,405.9914439999375,2.0,1.0,phase_1,,,,,,,,,,,,,gray,flipped triangle
54.0,5.0,1.0,1.0,2.0,2.0,407.685137000044,2.0,1.0,phase_1,,,,,,,,,,,,,gray,flipped triangle
0.0,1.0,0.0,0.0,1.0,1.0,351.5391670000554,2.0,1.0,phase_1,,,,,,,,,,,,,magenta,triangle
406.0,8.0,4.0,1.0,1.0,1.0,337.4285630000031,2.0,1.0,phase_1,,,,,,,,,,,,,orange,cross
424.0,4.0,4.0,0.0,3.0,3.0,313.7301879999086,2.0,1.0,phase_1,,,,,,,,,,,,,yellow,hexagon
101.0,2.0,2.0,0.0,2.0,2.0,290.0431569999,2.0,1.0,phase_1,,,,,,,,,,,,,blue,square
70.0,5.0,1.0,1.0,1.0,1.0,442.1569399999043,2.0,1.0,phase_1,,,,,,,,,,,,,gray,flipped triangle
120.0,2.0,2.0,0.0,4.0,4.0,342.9098710000744,2.0,1.0,phase_1,,,,,,,,,,,,,blue,square
29.0,5.0,1.0,1.0,4.0,4.0,379.62973499998037,2.0,1.0,phase_1,,,,,,,,,,,,,gray,flipped triangle
223.0,3.0,3.0,0.0,1.0,1.0,341.1338099999739,2.0,1.0,phase_1,,,,,,,,,,,,,cyan,I
110.0,2.0,2.0,0.0,4.0,4.0,404.1289990000223,2.0,1.0,phase_1,,,,,,,,,,,,,blue,square
51.0,5.0,1.0,1.0,2.0,2.0,272.2919430000274,2.0,1.0,phase_1,,,,,,,,,,,,,gray,flipped triangle
191.0,3.0,3.0,0.0,3.0,3.0,379.2932049998399,2.0,1.0,phase_1,,,,,,,,,,,,,cyan,I
188.0,3.0,3.0,0.0,3.0,3.0,498.5380810001061,2.0,1.0,phase_1,,,,,,,,,,,,,cyan,I
43.0,1.0,1.0,0.0,1.0,1.0,484.737338000059,2.0,1.0,phase_1,,,,,,,,,,,,,magenta,triangle
198.0,3.0,3.0,0.0,4.0,4.0,297.4390560000302,2.0,1.0,phase_1,,,,,,,,,,,,,cyan,I
416.0,8.0,4.0,1.0,2.0,2.0,509.7460910001246,2.0,1.0,phase_1,,,,,,,,,,,,,orange,cross
190.0,7.0,3.0,1.0,1.0,1.0,434.8789429998305,2.0,1.0,phase_1,,,,,,,,,,,,,green,circle
219.0,3.0,3.0,0.0,4.0,4.0,334.2061890000423,2.0,2.0,phase_1,,,,,,,,,,,,,cyan,I
92.0,6.0,2.0,1.0,3.0,3.0,348.7534930000038,2.0,1.0,phase_1,,,,,,,,,,,,,white,diamond
86.0,6.0,2.0,1.0,4.0,4.0,350.9202699999605,2.0,1.0,phase_1,,,,,,,,,,,,,white,diamond
38.0,1.0,1.0,0.0,4.0,4.0,334.315019000087,2.0,1.0,phase_1,,,,,,,,,,,,,magenta,triangle
51.0,1.0,1.0,0.0,4.0,4.0,343.5023170000022,2.0,1.0,phase_1,,,,,,,,,,,,,magenta,triangle
101.0,2.0,2.0,0.0,1.0,1.0,413.6236370000006,2.0,1.0,phase_1,,,,,,,,,,,,,blue,square
58.0,1.0,1.0,0.0,4.0,4.0,363.87361900006,2.0,1.0,phase_1,,,,,,,,,,,,,magenta,triangle
56.0,1.0,1.0,0.0,2.0,2.0,284.8260410000875,2.0,1.0,phase_1,,,,,,,,,,,,,magenta,triangle
0.0,7.0,0.0,1.0,2.0,2.0,385.5820339999809,2.0,1.0,phase_1,,,,,,,,,,,,,green,circle
94.0,2.0,2.0,0.0,2.0,2.0,319.5691359999273,2.0,1.0,phase_1,,,,,,,,,,,,,blue,square
81.0,2.0,2.0,0.0,2.0,2.0,380.5522780000956,2.0,1.0,phase_1,,,,,,,,,,,,,blue,square
61.0,5.0,1.0,1.0,1.0,1.0,377.0718089999718,2.0,1.0,phase_1,,,,,,,,,,,,,gray,flipped triangle
417.0,4.0,4.0,0.0,4.0,4.0,341.7975669999578,2.0,1.0,phase_1,,,,,,,,,,,,,yellow,hexagon
412.0,4.0,4.0,0.0,4.0,4.0,363.4861919999821,2.0,1.0,phase_1,,,,,,,,,,,,,yellow,hexagon
0.0,5.0,0.0,1.0,4.0,4.0,374.2935569998735,2.0,1.0,phase_1,,,,,,,,,,,,,gray,flipped triangle
423.0,8.0,4.0,1.0,1.0,1.0,354.7858919998816,2.0,1.0,phase_1,,,,,,,,,,,,,orange,cross
125.0,2.0,2.0,0.0,4.0,4.0,591.8427849999262,3.0,1.0,phase_1,,,,,,,,,,,,,blue,square
54.0,5.0,1.0,1.0,3.0,3.0,406.7523389999223,3.0,1.0,phase_1,,,,,,,,,,,,,gray,flipped triangle
41.0,1.0,1.0,0.0,4.0,4.0,417.0511180000176,3.0,1.0,phase_1,,,,,,,,,,,,,magenta,triangle
185.0,7.0,3.0,1.0,2.0,2.0,258.2340339999973,3.0,2.0,phase_1,,,,,,,,,,,,,green,circle
0.0,4.0,0.0,0.0,3.0,3.0,351.8685670001105,3.0,1.0,phase_1,,,,,,,,,,,,,yellow,hexagon
0.0,8.0,0.0,1.0,3.0,3.0,334.4465650000074,3.0,1.0,phase_1,,,,,,,,,,,,,orange,cross
198.0,7.0,3.0,1.0,4.0,4.0,412.0567190000201,3.0,1.0,phase_1,,,,,,,,,,,,,green,circle
407.0,4.0,4.0,0.0,2.0,2.0,359.497519000115,3.0,1.0,phase_1,,,,,,,,,,,,,yellow,hexagon
182.0,3.0,3.0,0.0,1.0,1.0,338.8965560000088,3.0,1.0,phase_1,,,,,,,,,,,,,cyan,I
107.0,2.0,2.0,0.0,3.0,3.0,431.0723529999904,3.0,1.0,phase_1,,,,,,,,,,,,,blue,square
392.0,8.0,4.0,1.0,3.0,3.0,390.190192000091,3.0,1.0,phase_1,,,,,,,,,,,,,orange,cross
29.0,1.0,1.0,0.0,2.0,2.0,315.2924800001528,3.0,1.0,phase_1,,,,,,,,,,,,,magenta,triangle
99.0,6.0,2.0,1.0,4.0,4.0,340.0453790000028,3.0,1.0,phase_1,,,,,,,,,,,,,white,diamond
219.0,7.0,3.0,1.0,3.0,3.0,369.3770429999858,3.0,1.0,phase_1,,,,,,,,,,,,,green,circle
176.0,7.0,3.0,1.0,3.0,3.0,392.0532020001701,3.0,1.0,phase_1,,,,,,,,,,,,,green,circle
91.0,2.0,2.0,0.0,3.0,3.0,507.8722690000177,3.0,1.0,phase_1,,,,,,,,,,,,,blue,square
190.0,3.0,3.0,0.0,3.0,3.0,353.6824109999088,3.0,1.0,phase_1,,,,,,,,,,,,,cyan,I
412.0,8.0,4.0,1.0,4.0,4.0,403.1796939998457,3.0,1.0,phase_1,,,,,,,,,,,,,orange,cross
91.0,6.0,2.0,1.0,3.0,3.0,364.0343409999786,3.0,1.0,phase_1,,,,,,,,,,,,,white,diamond
90.0,6.0,2.0,1.0,1.0,1.0,372.916368999995,3.0,1.0,phase_1,,,,,,,,,,,,,white,diamond
0.0,4.0,0.0,0.0,2.0,2.0,420.6068360001609,3.0,1.0,phase_1,,,,,,,,,,,,,yellow,hexagon
83.0,6.0,2.0,1.0,2.0,2.0,408.1808250000449,3.0,1.0,phase_1,,,,,,,,,,,,,white,diamond
118.0,2.0,2.0,0.0,1.0,1.0,426.979072999984,3.0,1.0,phase_1,,,,,,,,,,,,,blue,square
0.0,5.0,0.0,1.0,4.0,4.0,384.4580170000427,3.0,1.0,phase_1,,,,,,,,,,,,,gray,flipped triangle
401.0,4.0,4.0,0.0,1.0,1.0,356.4232700000502,3.0,1.0,phase_1,,,,,,,,,,,,,yellow,hexagon
223.0,7.0,3.0,1.0,3.0,3.0,417.3839339998721,3.0,1.0,phase_1,,,,,,,,,,,,,green,circle
196.0,3.0,3.0,0.0,1.0,1.0,481.5785309999683,3.0,1.0,phase_1,,,,,,,,,,,,,cyan,I
100.0,2.0,2.0,0.0,4.0,4.0,418.3659539999098,3.0,1.0,phase_1,,,,,,,,,,,,,blue,square
204.0,3.0,3.0,0.0,1.0,1.0,402.1080339998661,3.0,1.0,phase_1,,,,,,,,,,,,,cyan,I
210.0,3.0,3.0,0.0,1.0,1.0,318.6519539999608,3.0,1.0,phase_1,,,,,,,,,,,,,cyan,I
403.0,4.0,4.0,0.0,3.0,3.0,363.8792750000448,3.0,1.0,phase_1,,,,,,,,,,,,,yellow,hexagon
0.0,6.0,0.0,1.0,1.0,1.0,312.3568569999406,3.0,1.0,phase_1,,,,,,,,,,,,,white,diamond
225.0,7.0,3.0,1.0,1.0,1.0,403.1198830000448,3.0,1.0,phase_1,,,,,,,,,,,,,green,circle
382.0,8.0,4.0,1.0,1.0,1.0,591.1353849999159,3.0,1.0,phase_1,,,,,,,,,,,,,orange,cross
207.0,3.0,3.0,0.0,2.0,2.0,406.2303220000558,3.0,1.0,phase_1,,,,,,,,,,,,,cyan,I
0.0,8.0,0.0,1.0,4.0,4.0,343.731870000056,3.0,1.0,phase_1,,,,,,,,,,,,,orange,cross
395.0,4.0,4.0,0.0,1.0,1.0,373.6160949999885,3.0,1.0,phase_1,,,,,,,,,,,,,yellow,hexagon
394.0,8.0,4.0,1.0,3.0,3.0,339.0130130001125,3.0,1.0,phase_1,,,,,,,,,,,,,orange,cross
41.0,5.0,1.0,1.0,2.0,2.0,342.0431089998601,3.0,1.0,phase_1,,,,,,,,,,,,,gray,flipped triangle
389.0,4.0,4.0,0.0,3.0,3.0,382.2714969999197,3.0,1.0,phase_1,,,,,,,,,,,,,yellow,hexagon
199.0,3.0,3.0,0.0,4.0,4.0,547.3086560000411,3.0,1.0,phase_1,,,,,,,,,,,,,cyan,I
382.0,4.0,4.0,0.0,3.0,3.0,388.7033700000302,3.0,1.0,phase_1,,,,,,,,,,,,,yellow,hexagon
47.0,5.0,1.0,1.0,2.0,2.0,307.6567699999941,3.0,1.0,phase_1,,,,,,,,,,,,,gray,flipped triangle
223.0,3.0,3.0,0.0,4.0,4.0,610.3914810000788,3.0,1.0,phase_1,,,,,,,,,,,,,cyan,I
0.0,4.0,0.0,0.0,3.0,3.0,459.0239039998778,3.0,1.0,phase_1,,,,,,,,,,,,,yellow,hexagon
424.0,4.0,4.0,0.0,1.0,1.0,266.0157550001258,3.0,1.0,phase_1,,,,,,,,,,,,,yellow,hexagon
200.0,3.0,3.0,0.0,3.0,3.0,335.5377479999788,3.0,1.0,phase_1,,,,,,,,,,,,,cyan,I
390.0,8.0,4.0,1.0,3.0,3.0,353.4304109998629,3.0,1.0,phase_1,,,,,,,,,,,,,orange,cross
31.0,5.0,1.0,1.0,3.0,3.0,328.6816740001086,3.0,1.0,phase_1,,,,,,,,,,,,,gray,flipped triangle
68.0,5.0,1.0,1.0,3.0,3.0,298.5802669998065,3.0,1.0,phase_1,,,,,,,,,,,,,gray,flipped triangle
0.0,7.0,0.0,1.0,2.0,2.0,311.3844260001315,3.0,1.0,phase_1,,,,,,,,,,,,,green,circle
214.0,7.0,3.0,1.0,3.0,3.0,338.8954100000774,3.0,1.0,phase_1,,,,,,,,,,,,,green,circle
424.0,8.0,4.0,1.0,3.0,3.0,384.4806790000348,3.0,1.0,phase_1,,,,,,,,,,,,,orange,cross
419.0,4.0,4.0,0.0,3.0,3.0,334.6831730000303,3.0,1.0,phase_1,,,,,,,,,,,,,yellow,hexagon
0.0,8.0,0.0,1.0,1.0,1.0,337.615211999946,3.0,1.0,phase_1,,,,,,,,,,,,,orange,cross
90.0,6.0,2.0,1.0,1.0,1.0,352.6727549999577,3.0,1.0,phase_1,,,,,,,,,,,,,white,diamond
191.0,7.0,3.0,1.0,3.0,3.0,413.3973189998414,3.0,1.0,phase_1,,,,,,,,,,,,,green,circle
191.0,7.0,3.0,1.0,3.0,3.0,342.9274720001558,3.0,1.0,phase_1,,,,,,,,,,,,,green,circle
214.0,7.0,3.0,1.0,1.0,1.0,347.6966900000207,3.0,1.0,phase_1,,,,,,,,,,,,,green,circle
393.0,4.0,4.0,0.0,1.0,1.0,281.1616669998784,3.0,1.0,phase_1,,,,,,,,,,,,,yellow,hexagon
416.0,4.0,4.0,0.0,1.0,1.0,368.19806099993,3.0,1.0,phase_1,,,,,,,,,,,,,yellow,hexagon
0.0,6.0,0.0,1.0,3.0,3.0,340.2833479999572,3.0,1.0,phase_1,,,,,,,,,,,,,white,diamond
0.0,3.0,0.0,0.0,4.0,4.0,351.1414110000714,3.0,1.0,phase_1,,,,,,,,,,,,,cyan,I
61.0,5.0,1.0,1.0,4.0,4.0,390.4288549999819,3.0,1.0,phase_1,,,,,,,,,,,,,gray,flipped triangle
389.0,8.0,4.0,1.0,4.0,4.0,339.7243509998588,3.0,1.0,phase_1,,,,,,,,,,,,,orange,cross
43.0,5.0,1.0,1.0,4.0,4.0,319.9084420000417,3.0,1.0,phase_1,,,,,,,,,,,,,gray,flipped triangle
184.0,7.0,3.0,1.0,2.0,2.0,321.8704299999899,3.0,1.0,phase_1,,,,,,,,,,,,,green,circle
177.0,7.0,3.0,1.0,4.0,4.0,318.7240590000328,3.0,1.0,phase_1,,,,,,,,,,,,,green,circle
61.0,5.0,1.0,1.0,2.0,2.0,330.6737610000709,3.0,1.0,phase_1,,,,,,,,,,,,,gray,flipped triangle
0.0,6.0,0.0,1.0,2.0,2.0,375.3024349998668,3.0,1.0,phase_1,,,,,,,,,,,,,white,diamond
0.0,8.0,0.0,1.0,2.0,2.0,310.3392589998748,3.0,1.0,phase_1,,,,,,,,,,,,,orange,cross
116.0,6.0,2.0,1.0,3.0,3.0,306.4144580000629,3.0,1.0,phase_1,,,,,,,,,,,,,white,diamond
57.0,1.0,1.0,0.0,1.0,1.0,280.4903050000575,3.0,1.0,phase_1,,,,,,,,,,,,,magenta,triangle
0.0,5.0,0.0,1.0,2.0,2.0,348.6283039999307,3.0,1.0,phase_1,,,,,,,,,,,,,gray,flipped triangle
53.0,5.0,1.0,1.0,1.0,1.0,377.0090119999167,3.0,1.0,phase_1,,,,,,,,,,,,,gray,flipped triangle
393.0,8.0,4.0,1.0,4.0,4.0,291.6866220000429,3.0,1.0,phase_1,,,,,,,,,,,,,orange,cross
0.0,2.0,0.0,0.0,1.0,1.0,362.9532120000931,3.0,1.0,phase_1,,,,,,,,,,,,,blue,square
403.0,4.0,4.0,0.0,4.0,4.0,359.8953690000144,3.0,1.0,phase_1,,,,,,,,,,,,,yellow,hexagon
0.0,7.0,0.0,1.0,3.0,3.0,362.086158000011,3.0,1.0,phase_1,,,,,,,,,,,,,green,circle
204.0,7.0,3.0,1.0,4.0,4.0,377.9013930000019,3.0,1.0,phase_1,,,,,,,,,,,,,green,circle
112.0,6.0,2.0,1.0,4.0,4.0,540.4618000000028,3.0,1.0,phase_1,,,,,,,,,,,,,white,diamond
218.0,3.0,3.0,0.0,2.0,2.0,309.8080120000759,3.0,2.0,phase_1,,,,,,,,,,,,,cyan,I
418.0,8.0,4.0,1.0,2.0,2.0,346.5430460000789,3.0,1.0,phase_1,,,,,,,,,,,,,orange,cross
406.0,8.0,4.0,1.0,1.0,1.0,327.1399580000889,3.0,1.0,phase_1,,,,,,,,,,,,,orange,cross
106.0,2.0,2.0,0.0,1.0,1.0,322.3117620000266,3.0,1.0,phase_1,,,,,,,,,,,,,blue,square
30.0,1.0,1.0,0.0,1.0,1.0,351.546245999998,3.0,1.0,phase_1,,,,,,,,,,,,,magenta,triangle
94.0,2.0,2.0,0.0,1.0,1.0,339.5279779999782,3.0,1.0,phase_1,,,,,,,,,,,,,blue,square
31.0,1.0,1.0,0.0,3.0,3.0,380.1621449999857,3.0,1.0,phase_1,,,,,,,,,,,,,magenta,triangle
199.0,7.0,3.0,1.0,4.0,4.0,439.0304710000237,3.0,1.0,phase_1,,,,,,,,,,,,,green,circle
0.0,2.0,0.0,0.0,3.0,3.0,372.9309370000919,3.0,1.0,phase_1,,,,,,,,,,,,,blue,square
34.0,1.0,1.0,0.0,2.0,2.0,298.0895109999437,3.0,1.0,phase_1,,,,,,,,,,,,,magenta,triangle
209.0,7.0,3.0,1.0,1.0,1.0,339.062351999928,3.0,1.0,phase_1,,,,,,,,,,,,,green,circle
109.0,2.0,2.0,0.0,4.0,4.0,283.0340660000274,3.0,1.0,phase_1,,,,,,,,,,,,,blue,square
0.0,4.0,0.0,0.0,3.0,3.0,367.8418419999616,3.0,1.0,phase_1,,,,,,,,,,,,,yellow,hexagon
0.0,4.0,0.0,0.0,3.0,3.0,393.8632059998781,3.0,2.0,phase_1,,,,,,,,,,,,,yellow,hexagon
93.0,6.0,2.0,1.0,2.0,2.0,315.5609299999469,3.0,1.0,phase_1,,,,,,,,,,,,,white,diamond
68.0,1.0,1.0,0.0,3.0,3.0,343.6281809999855,3.0,1.0,phase_1,,,,,,,,,,,,,magenta,triangle
113.0,2.0,2.0,0.0,3.0,3.0,372.7889519996097,3.0,1.0,phase_1,,,,,,,,,,,,,blue,square
0.0,3.0,0.0,0.0,1.0,1.0,441.33215100009687,3.0,1.0,phase_1,,,,,,,,,,,,,cyan,I
179.0,7.0,3.0,1.0,3.0,3.0,353.3916930000487,3.0,1.0,phase_1,,,,,,,,,,,,,green,circle
0.0,8.0,0.0,1.0,2.0,2.0,649.1328030001569,4.0,1.0,phase_1,,,,,,,,,,,,,orange,cross
218.0,7.0,3.0,1.0,1.0,1.0,407.9146899998704,4.0,1.0,phase_1,,,,,,,,,,,,,green,circle
380.0,4.0,4.0,0.0,1.0,1.0,314.3014279999079,4.0,1.0,phase_1,,,,,,,,,,,,,yellow,hexagon
216.0,7.0,3.0,1.0,4.0,4.0,401.7795660001866,4.0,1.0,phase_1,,,,,,,,,,,,,green,circle
0.0,2.0,0.0,0.0,4.0,4.0,367.3957740002151,4.0,1.0,phase_1,,,,,,,,,,,,,blue,square
51.0,1.0,1.0,0.0,2.0,2.0,280.5231180000191,4.0,1.0,phase_1,,,,,,,,,,,,,magenta,triangle
377.0,4.0,4.0,0.0,4.0,4.0,397.5447370003167,4.0,1.0,phase_1,,,,,,,,,,,,,yellow,hexagon
98.0,6.0,2.0,1.0,3.0,3.0,434.8328699998092,4.0,1.0,phase_1,,,,,,,,,,,,,white,diamond
109.0,6.0,2.0,1.0,2.0,2.0,392.5142479997703,4.0,1.0,phase_1,,,,,,,,,,,,,white,diamond
378.0,4.0,4.0,0.0,1.0,1.0,372.88889499996,4.0,1.0,phase_1,,,,,,,,,,,,,yellow,hexagon
116.0,2.0,2.0,0.0,1.0,1.0,419.7166009998909,4.0,1.0,phase_1,,,,,,,,,,,,,blue,square
214.0,3.0,3.0,0.0,3.0,3.0,381.3079920000746,4.0,1.0,phase_1,,,,,,,,,,,,,cyan,I
403.0,8.0,4.0,1.0,1.0,1.0,369.0233710003667,4.0,1.0,phase_1,,,,,,,,,,,,,orange,cross
53.0,1.0,1.0,0.0,1.0,1.0,360.4399920000105,4.0,1.0,phase_1,,,,,,,,,,,,,magenta,triangle
0.0,6.0,0.0,1.0,4.0,4.0,339.6156969997719,4.0,1.0,phase_1,,,,,,,,,,,,,white,diamond
395.0,8.0,4.0,1.0,2.0,2.0,434.6109870002692,4.0,1.0,phase_1,,,,,,,,,,,,,orange,cross
210.0,3.0,3.0,0.0,3.0,3.0,405.8151489998636,4.0,1.0,phase_1,,,,,,,,,,,,,cyan,I
95.0,2.0,2.0,0.0,3.0,3.0,319.4365209997158,4.0,2.0,phase_1,,,,,,,,,,,,,blue,square
411.0,8.0,4.0,1.0,1.0,1.0,330.4697550001947,4.0,1.0,phase_1,,,,,,,,,,,,,orange,cross
112.0,2.0,2.0,0.0,3.0,3.0,350.9515470000224,4.0,1.0,phase_1,,,,,,,,,,,,,blue,square
113.0,6.0,2.0,1.0,2.0,2.0,350.713627999994,4.0,1.0,phase_1,,,,,,,,,,,,,white,diamond
62.0,1.0,1.0,0.0,2.0,2.0,335.6907200000023,4.0,1.0,phase_1,,,,,,,,,,,,,magenta,triangle
107.0,6.0,2.0,1.0,2.0,2.0,397.1534589995826,4.0,1.0,phase_1,,,,,,,,,,,,,white,diamond
406.0,4.0,4.0,0.0,4.0,4.0,426.8275100002938,4.0,1.0,phase_1,,,,,,,,,,,,,yellow,hexagon
223.0,3.0,3.0,0.0,3.0,3.0,417.2517750002953,4.0,1.0,phase_1,,,,,,,,,,,,,cyan,I
0.0,8.0,0.0,1.0,2.0,2.0,326.5178229999037,4.0,1.0,phase_1,,,,,,,,,,,,,orange,cross
407.0,8.0,4.0,1.0,2.0,2.0,359.0074079997976,4.0,1.0,phase_1,,,,,,,,,,,,,orange,cross
29.0,5.0,1.0,1.0,4.0,4.0,375.0915990003705,4.0,1.0,phase_1,,,,,,,,,,,,,gray,flipped triangle
211.0,7.0,3.0,1.0,4.0,4.0,482.7755559999787,4.0,1.0,phase_1,,,,,,,,,,,,,green,circle
192.0,3.0,3.0,0.0,4.0,4.0,359.3211100001099,4.0,1.0,phase_1,,,,,,,,,,,,,cyan,I
395.0,4.0,4.0,0.0,2.0,2.0,405.3557229999569,4.0,1.0,phase_1,,,,,,,,,,,,,yellow,hexagon
113.0,2.0,2.0,0.0,1.0,1.0,305.3713650001555,4.0,1.0,phase_1,,,,,,,,,,,,,blue,square
188.0,7.0,3.0,1.0,4.0,4.0,350.9732459997394,4.0,1.0,phase_1,,,,,,,,,,,,,green,circle
30.0,5.0,1.0,1.0,1.0,1.0,305.3364249999504,4.0,1.0,phase_1,,,,,,,,,,,,,gray,flipped triangle
98.0,2.0,2.0,0.0,4.0,4.0,382.9691319997437,4.0,1.0,phase_1,,,,,,,,,,,,,blue,square
72.0,1.0,1.0,0.0,3.0,3.0,355.4913919997489,4.0,1.0,phase_1,,,,,,,,,,,,,magenta,triangle
40.0,5.0,1.0,1.0,2.0,2.0,305.6882769997173,4.0,1.0,phase_1,,,,,,,,,,,,,gray,flipped triangle
398.0,4.0,4.0,0.0,2.0,2.0,326.6351259999283,4.0,1.0,phase_1,,,,,,,,,,,,,yellow,hexagon
0.0,4.0,0.0,0.0,1.0,1.0,385.2510749998146,4.0,1.0,phase_1,,,,,,,,,,,,,yellow,hexagon
110.0,6.0,2.0,1.0,3.0,3.0,285.512393999852,4.0,1.0,phase_1,,,,,,,,,,,,,white,diamond
419.0,8.0,4.0,1.0,3.0,3.0,409.739153999908,4.0,1.0,phase_1,,,,,,,,,,,,,orange,cross
0.0,7.0,0.0,1.0,4.0,4.0,462.700231999861,4.0,1.0,phase_1,,,,,,,,,,,,,green,circle
179.0,3.0,3.0,0.0,2.0,2.0,346.9764010001199,4.0,1.0,phase_1,,,,,,,,,,,,,cyan,I
58.0,5.0,1.0,1.0,4.0,4.0,377.1041219997642,4.0,1.0,phase_1,,,,,,,,,,,,,gray,flipped triangle
39.0,1.0,1.0,0.0,4.0,4.0,405.8663499999966,4.0,1.0,phase_1,,,,,,,,,,,,,magenta,triangle
66.0,1.0,1.0,0.0,2.0,2.0,339.4965190000221,4.0,1.0,phase_1,,,,,,,,,,,,,magenta,triangle
402.0,4.0,4.0,0.0,4.0,4.0,392.9897240000173,4.0,1.0,phase_1,,,,,,,,,,,,,yellow,hexagon
106.0,6.0,2.0,1.0,1.0,1.0,388.7696860001597,4.0,1.0,phase_1,,,,,,,,,,,,,white,diamond
101.0,6.0,2.0,1.0,4.0,4.0,358.677051000086,4.0,1.0,phase_1,,,,,,,,,,,,,white,diamond
0.0,1.0,0.0,0.0,1.0,1.0,306.9853389997661,4.0,1.0,phase_1,,,,,,,,,,,,,magenta,triangle
211.0,7.0,3.0,1.0,1.0,1.0,409.2202689998885,4.0,1.0,phase_1,,,,,,,,,,,,,green,circle
223.0,7.0,3.0,1.0,2.0,2.0,566.3311469998007,4.0,1.0,phase_1,,,,,,,,,,,,,green,circle
0.0,7.0,0.0,1.0,4.0,4.0,283.9819600003466,4.0,1.0,phase_1,,,,,,,,,,,,,green,circle
196.0,7.0,3.0,1.0,4.0,4.0,406.0265680000157,4.0,1.0,phase_1,,,,,,,,,,,,,green,circle
94.0,6.0,2.0,1.0,3.0,3.0,435.4101249996347,4.0,1.0,phase_1,,,,,,,,,,,,,white,diamond
92.0,2.0,2.0,0.0,3.0,3.0,330.7828550000522,4.0,1.0,phase_1,,,,,,,,,,,,,blue,square
95.0,6.0,2.0,1.0,3.0,3.0,325.9837810001045,4.0,1.0,phase_1,,,,,,,,,,,,,white,diamond
187.0,3.0,3.0,0.0,1.0,1.0,296.7518689997632,4.0,1.0,phase_1,,,,,,,,,,,,,cyan,I
61.0,1.0,1.0,0.0,1.0,1.0,351.6997609999635,4.0,1.0,phase_1,,,,,,,,,,,,,magenta,triangle
87.0,2.0,2.0,0.0,4.0,4.0,403.1296039997869,4.0,1.0,phase_1,,,,,,,,,,,,,blue,square
402.0,8.0,4.0,1.0,4.0,4.0,367.6139929998498,4.0,1.0,phase_1,,,,,,,,,,,,,orange,cross
70.0,1.0,1.0,0.0,1.0,1.0,335.5818539998836,4.0,1.0,phase_1,,,,,,,,,,,,,magenta,triangle
176.0,3.0,3.0,0.0,4.0,4.0,352.1697290002521,4.0,1.0,phase_1,,,,,,,,,,,,,cyan,I
86.0,2.0,2.0,0.0,3.0,3.0,361.0227190001751,4.0,1.0,phase_1,,,,,,,,,,,,,blue,square
420.0,8.0,4.0,1.0,2.0,2.0,417.7055229997677,4.0,1.0,phase_1,,,,,,,,,,,,,orange,cross
66.0,5.0,1.0,1.0,3.0,3.0,342.9618079999272,4.0,1.0,phase_1,,,,,,,,,,,,,gray,flipped triangle
47.0,5.0,1.0,1.0,4.0,4.0,404.8111749998497,4.0,1.0,phase_1,,,,,,,,,,,,,gray,flipped triangle
36.0,5.0,1.0,1.0,3.0,3.0,394.3434679999882,4.0,1.0,phase_1,,,,,,,,,,,,,gray,flipped triangle
0.0,5.0,0.0,1.0,4.0,4.0,429.6882789999472,4.0,1.0,phase_1,,,,,,,,,,,,,gray,flipped triangle
423.0,4.0,4.0,0.0,3.0,3.0,340.1750590001029,4.0,1.0,phase_1,,,,,,,,,,,,,yellow,hexagon
204.0,3.0,3.0,0.0,2.0,2.0,350.3899620000084,4.0,1.0,phase_1,,,,,,,,,,,,,cyan,I
87.0,6.0,2.0,1.0,1.0,1.0,378.5010269998565,4.0,1.0,phase_1,,,,,,,,,,,,,white,diamond
0.0,8.0,0.0,1.0,3.0,3.0,393.9159249998738,4.0,1.0,phase_1,,,,,,,,,,,,,orange,cross
0.0,1.0,0.0,0.0,2.0,2.0,323.5241900001711,4.0,1.0,phase_1,,,,,,,,,,,,,magenta,triangle
407.0,4.0,4.0,0.0,4.0,4.0,380.6856789997255,4.0,1.0,phase_1,,,,,,,,,,,,,yellow,hexagon
83.0,2.0,2.0,0.0,2.0,2.0,333.8271060001716,4.0,1.0,phase_1,,,,,,,,,,,,,blue,square
0.0,3.0,0.0,0.0,1.0,1.0,330.3631009998753,4.0,1.0,phase_1,,,,,,,,,,,,,cyan,I
0.0,2.0,0.0,0.0,3.0,3.0,347.5541689999772,4.0,1.0,phase_1,,,,,,,,,,,,,blue,square
122.0,6.0,2.0,1.0,4.0,4.0,379.7831439997026,4.0,1.0,phase_1,,,,,,,,,,,,,white,diamond
47.0,1.0,1.0,0.0,2.0,2.0,296.7018979998101,4.0,1.0,phase_1,,,,,,,,,,,,,magenta,triangle
0.0,6.0,0.0,1.0,2.0,2.0,367.1989650001706,4.0,1.0,phase_1,,,,,,,,,,,,,white,diamond
207.0,7.0,3.0,1.0,4.0,4.0,324.9502569997275,4.0,1.0,phase_1,,,,,,,,,,,,,green,circle
0.0,5.0,0.0,1.0,2.0,2.0,321.8584100000043,4.0,1.0,phase_1,,,,,,,,,,,,,gray,flipped triangle
209.0,3.0,3.0,0.0,3.0,3.0,208.1527000000278,4.0,2.0,phase_1,,,,,,,,,,,,,cyan,I
29.0,1.0,1.0,0.0,1.0,1.0,325.2506640001229,4.0,1.0,phase_1,,,,,,,,,,,,,magenta,triangle
98.0,6.0,2.0,1.0,4.0,4.0,364.0132760001506,4.0,1.0,phase_1,,,,,,,,,,,,,white,diamond
0.0,2.0,0.0,0.0,2.0,2.0,309.6853799997916,4.0,1.0,phase_1,,,,,,,,,,,,,blue,square
122.0,2.0,2.0,0.0,4.0,4.0,363.712088000284,4.0,1.0,phase_1,,,,,,,,,,,,,blue,square
0.0,6.0,0.0,1.0,4.0,4.0,478.5971520000203,4.0,1.0,phase_1,,,,,,,,,,,,,white,diamond
90.0,2.0,2.0,0.0,2.0,2.0,363.9706860003571,4.0,1.0,phase_1,,,,,,,,,,,,,blue,square
29.0,1.0,1.0,0.0,2.0,2.0,579.2188159998659,4.0,1.0,phase_1,,,,,,,,,,,,,magenta,triangle
0.0,5.0,0.0,1.0,2.0,2.0,391.1412789998394,4.0,1.0,phase_1,,,,,,,,,,,,,gray,flipped triangle
200.0,7.0,3.0,1.0,2.0,2.0,330.3390959999888,4.0,1.0,phase_1,,,,,,,,,,,,,green,circle
384.0,8.0,4.0,1.0,3.0,3.0,346.8561390000104,4.0,2.0,phase_1,,,,,,,,,,,,,orange,cross
40.0,1.0,1.0,0.0,4.0,4.0,560.0289979997797,4.0,1.0,phase_1,,,,,,,,,,,,,magenta,triangle
98.0,2.0,2.0,0.0,2.0,2.0,309.4719810001152,4.0,1.0,phase_1,,,,,,,,,,,,,blue,square
378.0,8.0,4.0,1.0,3.0,3.0,377.0066530000804,4.0,1.0,phase_1,,,,,,,,,,,,,orange,cross
107.0,6.0,2.0,1.0,2.0,2.0,333.6788579999847,4.0,1.0,phase_1,,,,,,,,,,,,,white,diamond
408.0,4.0,4.0,0.0,2.0,2.0,402.6415469998028,4.0,1.0,phase_1,,,,,,,,,,,,,yellow,hexagon
0.0,6.0,0.0,1.0,1.0,1.0,368.4669240001312,4.0,1.0,phase_1,,,,,,,,,,,,,white,diamond
0.0,3.0,3.0,0.0,5.0,5.0,677.3774160001267,1.0,1.0,phase_2,go,250.0,250.0,1.0,,,,,,,,,cyan,I
0.0,6.0,2.0,1.0,6.0,0.0,0.0,1.0,1.0,phase_2,stop,250.0,250.0,4.0,,,,,,,,,white,diamond
0.0,4.0,4.0,0.0,6.0,6.0,579.8864139997022,1.0,1.0,phase_2,go,250.0,300.0,1.0,,,,,,,,,yellow,hexagon
0.0,5.0,1.0,1.0,6.0,0.0,0.0,1.0,1.0,phase_2,stop,250.0,300.0,4.0,,,,,,,,,gray,flipped triangle
0.0,7.0,3.0,1.0,5.0,5.0,540.399933000117,1.0,1.0,phase_2,go,250.0,350.0,1.0,,,,,,,,,green,circle
0.0,4.0,4.0,0.0,5.0,5.0,669.0310379999573,1.0,1.0,phase_2,go,250.0,350.0,1.0,,,,,,,,,yellow,hexagon
0.0,3.0,3.0,0.0,6.0,6.0,666.9276279999394,1.0,1.0,phase_2,go,250.0,350.0,1.0,,,,,,,,,cyan,I
0.0,8.0,4.0,1.0,5.0,5.0,299.9897859999691,1.0,1.0,phase_2,go,250.0,350.0,1.0,,,,,,,,,orange,cross
0.0,5.0,1.0,1.0,5.0,0.0,0.0,1.0,1.0,phase_2,stop,250.0,350.0,4.0,,,,,,,,,gray,flipped triangle
0.0,7.0,3.0,1.0,6.0,6.0,428.2026819996645,1.0,1.0,phase_2,go,300.0,350.0,1.0,,,,,,,,,green,circle
0.0,2.0,2.0,0.0,5.0,5.0,647.3447410003246,1.0,1.0,phase_2,go,300.0,350.0,1.0,,,,,,,,,blue,square
0.0,6.0,2.0,1.0,5.0,5.0,346.7154639997716,1.0,1.0,phase_2,go,300.0,350.0,1.0,,,,,,,,,white,diamond
0.0,5.0,1.0,1.0,5.0,0.0,0.0,1.0,1.0,phase_2,stop,300.0,350.0,4.0,,,,,,,,,gray,flipped triangle
0.0,1.0,1.0,0.0,5.0,5.0,329.7453759996642,1.0,1.0,phase_2,go,350.0,350.0,1.0,,,,,,,,,magenta,triangle
0.0,5.0,1.0,1.0,5.0,0.0,0.0,1.0,1.0,phase_2,stop,350.0,350.0,4.0,,,,,,,,,gray,flipped triangle
0.0,2.0,2.0,0.0,5.0,5.0,772.2757029996501,1.0,1.0,phase_2,go,400.0,350.0,1.0,,,,,,,,,blue,square
0.0,8.0,4.0,1.0,6.0,6.0,324.779228999887,1.0,1.0,phase_2,stop,400.0,350.0,3.0,,,,,,,,,orange,cross
0.0,3.0,3.0,0.0,5.0,5.0,518.6615269999493,1.0,1.0,phase_2,go,400.0,300.0,1.0,,,,,,,,,cyan,I
0.0,3.0,3.0,0.0,6.0,6.0,373.0223170000499,1.0,1.0,phase_2,go,400.0,300.0,1.0,,,,,,,,,cyan,I
0.0,3.0,3.0,0.0,6.0,6.0,1005.343934999928,1.0,1.0,phase_2,go,400.0,300.0,1.0,,,,,,,,,cyan,I
0.0,2.0,2.0,0.0,5.0,5.0,724.0604899998289,1.0,1.0,phase_2,go,400.0,300.0,1.0,,,,,,,,,blue,square
0.0,6.0,2.0,1.0,5.0,0.0,0.0,1.0,1.0,phase_2,stop,400.0,300.0,4.0,,,,,,,,,white,diamond
0.0,2.0,2.0,0.0,6.0,6.0,378.5204499999963,1.0,1.0,phase_2,go,450.0,300.0,1.0,,,,,,,,,blue,square
0.0,2.0,2.0,0.0,6.0,6.0,468.4891120000429,1.0,1.0,phase_2,go,450.0,300.0,1.0,,,,,,,,,blue,square
0.0,8.0,4.0,1.0,6.0,0.0,0.0,1.0,1.0,phase_2,stop,450.0,300.0,4.0,,,,,,,,,orange,cross
0.0,6.0,2.0,1.0,5.0,0.0,0.0,1.0,1.0,phase_2,stop,450.0,350.0,4.0,,,,,,,,,white,diamond
0.0,3.0,3.0,0.0,6.0,6.0,462.259079999967,1.0,1.0,phase_2,go,500.0,350.0,1.0,,,,,,,,,cyan,I
0.0,8.0,4.0,1.0,6.0,6.0,583.8322760000665,1.0,1.0,phase_2,go,500.0,350.0,1.0,,,,,,,,,orange,cross
0.0,7.0,3.0,1.0,6.0,0.0,0.0,1.0,1.0,phase_2,stop,500.0,350.0,4.0,,,,,,,,,green,circle
0.0,5.0,1.0,1.0,6.0,6.0,655.9734930001468,1.0,1.0,phase_2,go,500.0,400.0,1.0,,,,,,,,,gray,flipped triangle
0.0,7.0,3.0,1.0,6.0,0.0,0.0,1.0,1.0,phase_2,stop,500.0,400.0,4.0,,,,,,,,,green,circle
0.0,6.0,2.0,1.0,5.0,5.0,318.7317970000549,1.0,1.0,phase_2,stop,500.0,450.0,3.0,,,,,,,,,white,diamond
0.0,2.0,2.0,0.0,5.0,5.0,718.9016729998912,1.0,1.0,phase_2,go,450.0,450.0,1.0,,,,,,,,,blue,square
0.0,7.0,3.0,1.0,6.0,6.0,451.2319260002186,1.0,1.0,phase_2,go,450.0,450.0,1.0,,,,,,,,,green,circle
0.0,1.0,1.0,0.0,5.0,5.0,722.8426000001491,1.0,1.0,phase_2,go,450.0,450.0,1.0,,,,,,,,,magenta,triangle
0.0,5.0,1.0,1.0,6.0,6.0,613.4681090002232,1.0,1.0,phase_2,stop,450.0,450.0,3.0,,,,,,,,,gray,flipped triangle
0.0,2.0,2.0,0.0,6.0,0.0,0.0,2.0,1.0,phase_2,go,450.0,400.0,5.0,,,,,,,,,blue,square
0.0,3.0,3.0,0.0,5.0,5.0,976.190969000072,2.0,1.0,phase_2,go,450.0,400.0,1.0,,,,,,,,,cyan,I
0.0,1.0,1.0,0.0,6.0,6.0,267.7213639999536,2.0,1.0,phase_2,go,450.0,400.0,1.0,,,,,,,,,magenta,triangle
0.0,8.0,4.0,1.0,6.0,6.0,314.2448439998588,2.0,1.0,phase_2,stop,450.0,400.0,3.0,,,,,,,,,orange,cross
0.0,7.0,3.0,1.0,6.0,6.0,353.0620749997979,2.0,1.0,phase_2,go,450.0,350.0,1.0,,,,,,,,,green,circle
0.0,3.0,3.0,0.0,6.0,6.0,777.2184310001649,2.0,1.0,phase_2,go,450.0,350.0,1.0,,,,,,,,,cyan,I
0.0,1.0,1.0,0.0,5.0,5.0,535.8082860002469,2.0,1.0,phase_2,go,450.0,350.0,1.0,,,,,,,,,magenta,triangle
0.0,2.0,2.0,0.0,5.0,5.0,639.5289919996685,2.0,1.0,phase_2,go,450.0,350.0,1.0,,,,,,,,,blue,square
0.0,1.0,1.0,0.0,5.0,5.0,726.9734060000701,2.0,1.0,phase_2,go,450.0,350.0,1.0,,,,,,,,,magenta,triangle
0.0,6.0,2.0,1.0,6.0,6.0,459.8588920002839,2.0,1.0,phase_2,stop,450.0,350.0,3.0,,,,,,,,,white,diamond
0.0,5.0,1.0,1.0,5.0,5.0,525.7504789997256,2.0,1.0,phase_2,stop,450.0,300.0,3.0,,,,,,,,,gray,flipped triangle
0.0,5.0,1.0,1.0,6.0,0.0,0.0,2.0,1.0,phase_2,stop,400.0,300.0,4.0,,,,,,,,,gray,flipped triangle
0.0,4.0,4.0,0.0,5.0,5.0,618.8836450000963,2.0,1.0,phase_2,go,400.0,350.0,1.0,,,,,,,,,yellow,hexagon
0.0,7.0,3.0,1.0,5.0,5.0,601.6458640001474,2.0,1.0,phase_2,go,400.0,350.0,1.0,,,,,,,,,green,circle
0.0,1.0,1.0,0.0,6.0,6.0,336.944038999718,2.0,1.0,phase_2,go,400.0,350.0,1.0,,,,,,,,,magenta,triangle
0.0,4.0,4.0,0.0,6.0,6.0,658.0569540001306,2.0,1.0,phase_2,go,400.0,350.0,1.0,,,,,,,,,yellow,hexagon
0.0,8.0,4.0,1.0,5.0,0.0,0.0,2.0,1.0,phase_2,stop,400.0,350.0,4.0,,,,,,,,,orange,cross
0.0,6.0,2.0,1.0,5.0,0.0,0.0,2.0,1.0,phase_2,stop,450.0,350.0,4.0,,,,,,,,,white,diamond
0.0,6.0,2.0,1.0,5.0,5.0,383.421847000136,2.0,1.0,phase_2,stop,500.0,350.0,3.0,,,,,,,,,white,diamond
0.0,3.0,3.0,0.0,5.0,5.0,521.3895530000627,2.0,1.0,phase_2,go,450.0,350.0,1.0,,,,,,,,,cyan,I
0.0,7.0,3.0,1.0,5.0,5.0,600.2280259999679,2.0,1.0,phase_2,stop,450.0,350.0,3.0,,,,,,,,,green,circle
0.0,4.0,4.0,0.0,6.0,6.0,609.059647000322,2.0,1.0,phase_2,go,400.0,350.0,1.0,,,,,,,,,yellow,hexagon
0.0,8.0,4.0,1.0,5.0,0.0,0.0,2.0,1.0,phase_2,stop,400.0,350.0,4.0,,,,,,,,,orange,cross
0.0,7.0,3.0,1.0,6.0,6.0,428.0657300000712,2.0,1.0,phase_2,stop,450.0,350.0,3.0,,,,,,,,,green,circle
0.0,6.0,2.0,1.0,6.0,0.0,0.0,2.0,1.0,phase_2,stop,450.0,300.0,4.0,,,,,,,,,white,diamond
0.0,1.0,1.0,0.0,6.0,6.0,629.377335999834,2.0,1.0,phase_2,go,450.0,350.0,1.0,,,,,,,,,magenta,triangle
0.0,8.0,4.0,1.0,6.0,6.0,427.6334520000091,2.0,1.0,phase_2,stop,450.0,350.0,3.0,,,,,,,,,orange,cross
0.0,3.0,3.0,0.0,6.0,6.0,700.8985699999357,2.0,1.0,phase_2,go,450.0,300.0,1.0,,,,,,,,,cyan,I
0.0,1.0,1.0,0.0,6.0,6.0,676.4377190002051,2.0,1.0,phase_2,go,450.0,300.0,1.0,,,,,,,,,magenta,triangle
0.0,1.0,1.0,0.0,5.0,5.0,716.8515660000594,2.0,1.0,phase_2,go,450.0,300.0,1.0,,,,,,,,,magenta,triangle
0.0,4.0,4.0,0.0,5.0,5.0,407.8648370000337,2.0,1.0,phase_2,go,450.0,300.0,1.0,,,,,,,,,yellow,hexagon
0.0,5.0,1.0,1.0,6.0,0.0,0.0,2.0,1.0,phase_2,stop,450.0,300.0,4.0,,,,,,,,,gray,flipped triangle
0.0,4.0,4.0,0.0,6.0,6.0,730.5400790000931,2.0,1.0,phase_2,go,450.0,350.0,1.0,,,,,,,,,yellow,hexagon
0.0,6.0,2.0,1.0,5.0,5.0,478.4193410000625,2.0,1.0,phase_2,stop,450.0,350.0,3.0,,,,,,,,,white,diamond
0.0,5.0,1.0,1.0,5.0,5.0,797.8075880000688,2.0,1.0,phase_2,go,400.0,350.0,1.0,,,,,,,,,gray,flipped triangle
0.0,7.0,3.0,1.0,5.0,0.0,0.0,2.0,1.0,phase_2,stop,400.0,350.0,4.0,,,,,,,,,green,circle
0.0,4.0,4.0,0.0,6.0,6.0,820.4784979998294,3.0,1.0,phase_2,go,450.0,350.0,1.0,,,,,,,,,yellow,hexagon
0.0,8.0,4.0,1.0,5.0,5.0,328.7074499999107,3.0,1.0,phase_2,stop,450.0,350.0,3.0,,,,,,,,,orange,cross
0.0,2.0,2.0,0.0,6.0,6.0,627.0835140003328,3.0,1.0,phase_2,go,400.0,350.0,1.0,,,,,,,,,blue,square
0.0,5.0,1.0,1.0,5.0,0.0,0.0,3.0,1.0,phase_2,stop,400.0,350.0,4.0,,,,,,,,,gray,flipped triangle
0.0,8.0,4.0,1.0,5.0,5.0,663.6385599999812,3.0,1.0,phase_2,go,450.0,350.0,1.0,,,,,,,,,orange,cross
0.0,4.0,4.0,0.0,6.0,6.0,447.1252389998881,3.0,1.0,phase_2,go,450.0,350.0,1.0,,,,,,,,,yellow,hexagon
0.0,2.0,2.0,0.0,6.0,6.0,662.1017009997558,3.0,1.0,phase_2,go,450.0,350.0,1.0,,,,,,,,,blue,square
0.0,3.0,3.0,0.0,5.0,5.0,551.8572949999907,3.0,1.0,phase_2,go,450.0,350.0,1.0,,,,,,,,,cyan,I
0.0,2.0,2.0,0.0,5.0,5.0,468.709853999826,3.0,1.0,phase_2,go,450.0,350.0,1.0,,,,,,,,,blue,square
0.0,5.0,1.0,1.0,6.0,0.0,0.0,3.0,1.0,phase_2,stop,450.0,350.0,4.0,,,,,,,,,gray,flipped triangle
0.0,1.0,1.0,0.0,5.0,5.0,455.0132310000663,3.0,1.0,phase_2,go,450.0,400.0,1.0,,,,,,,,,magenta,triangle
0.0,7.0,3.0,1.0,5.0,5.0,323.4164949999467,3.0,1.0,phase_2,stop,450.0,400.0,3.0,,,,,,,,,green,circle
0.0,4.0,4.0,0.0,5.0,5.0,490.9850090002692,3.0,1.0,phase_2,go,400.0,400.0,1.0,,,,,,,,,yellow,hexagon
0.0,3.0,3.0,0.0,5.0,5.0,483.7755950002247,3.0,1.0,phase_2,go,400.0,400.0,1.0,,,,,,,,,cyan,I
0.0,6.0,2.0,1.0,5.0,5.0,459.4505350000872,3.0,1.0,phase_2,stop,400.0,400.0,3.0,,,,,,,,,white,diamond
0.0,7.0,3.0,1.0,6.0,6.0,380.5031580000104,3.0,1.0,phase_2,go,350.0,400.0,1.0,,,,,,,,,green,circle
0.0,7.0,3.0,1.0,6.0,0.0,0.0,3.0,1.0,phase_2,stop,350.0,400.0,4.0,,,,,,,,,green,circle
0.0,4.0,4.0,0.0,6.0,6.0,561.3096870001755,3.0,1.0,phase_2,go,350.0,450.0,1.0,,,,,,,,,yellow,hexagon
0.0,8.0,4.0,1.0,6.0,6.0,578.7271880003573,3.0,1.0,phase_2,stop,350.0,450.0,3.0,,,,,,,,,orange,cross
0.0,6.0,2.0,1.0,5.0,5.0,303.2933510003204,3.0,1.0,phase_2,stop,350.0,400.0,3.0,,,,,,,,,white,diamond
0.0,7.0,3.0,1.0,5.0,0.0,0.0,3.0,1.0,phase_2,stop,300.0,400.0,4.0,,,,,,,,,green,circle
0.0,4.0,4.0,0.0,5.0,5.0,686.4806549997411,3.0,1.0,phase_2,go,350.0,400.0,1.0,,,,,,,,,yellow,hexagon
0.0,2.0,2.0,0.0,5.0,5.0,709.95221999965,3.0,1.0,phase_2,go,350.0,400.0,1.0,,,,,,,,,blue,square
0.0,6.0,2.0,1.0,5.0,0.0,0.0,3.0,1.0,phase_2,stop,350.0,400.0,4.0,,,,,,,,,white,diamond
0.0,1.0,1.0,0.0,5.0,5.0,469.9751260000084,3.0,1.0,phase_2,go,400.0,400.0,1.0,,,,,,,,,magenta,triangle
0.0,2.0,2.0,0.0,6.0,6.0,566.4350270003524,3.0,1.0,phase_2,go,400.0,400.0,1.0,,,,,,,,,blue,square
0.0,4.0,4.0,0.0,5.0,5.0,326.1373340001228,3.0,1.0,phase_2,go,400.0,400.0,1.0,,,,,,,,,yellow,hexagon
0.0,3.0,3.0,0.0,6.0,6.0,307.1243419999518,3.0,1.0,phase_2,go,400.0,400.0,1.0,,,,,,,,,cyan,I
0.0,1.0,1.0,0.0,6.0,6.0,301.1842110004181,3.0,1.0,phase_2,go,400.0,400.0,1.0,,,,,,,,,magenta,triangle
0.0,6.0,2.0,1.0,5.0,5.0,371.3865830000031,3.0,1.0,phase_2,go,400.0,400.0,1.0,,,,,,,,,white,diamond
0.0,8.0,4.0,1.0,6.0,6.0,329.6668580001096,3.0,1.0,phase_2,stop,400.0,400.0,3.0,,,,,,,,,orange,cross
0.0,3.0,3.0,0.0,6.0,6.0,571.0189299998092,3.0,1.0,phase_2,go,400.0,350.0,1.0,,,,,,,,,cyan,I
0.0,3.0,3.0,0.0,6.0,6.0,329.2002440002761,3.0,1.0,phase_2,go,400.0,350.0,1.0,,,,,,,,,cyan,I
0.0,6.0,2.0,1.0,6.0,6.0,569.0469559999656,3.0,1.0,phase_2,go,400.0,350.0,1.0,,,,,,,,,white,diamond
0.0,8.0,4.0,1.0,5.0,0.0,0.0,3.0,1.0,phase_2,stop,400.0,350.0,4.0,,,,,,,,,orange,cross
0.0,5.0,1.0,1.0,5.0,5.0,600.1458380001168,3.0,1.0,phase_2,go,450.0,350.0,1.0,,,,,,,,,gray,flipped triangle
0.0,5.0,1.0,1.0,5.0,5.0,808.8133549999839,4.0,1.0,phase_2,go,450.0,350.0,1.0,,,,,,,,,gray,flipped triangle
0.0,1.0,1.0,0.0,6.0,6.0,425.1901540001199,4.0,1.0,phase_2,go,450.0,350.0,1.0,,,,,,,,,magenta,triangle
0.0,5.0,1.0,1.0,5.0,5.0,383.4275539998089,4.0,1.0,phase_2,stop,450.0,350.0,3.0,,,,,,,,,gray,flipped triangle
0.0,4.0,4.0,0.0,5.0,5.0,343.9784550000695,4.0,1.0,phase_2,go,400.0,350.0,1.0,,,,,,,,,yellow,hexagon
0.0,1.0,1.0,0.0,6.0,6.0,510.21709699989515,4.0,1.0,phase_2,go,400.0,350.0,1.0,,,,,,,,,magenta,triangle
0.0,8.0,4.0,1.0,6.0,6.0,455.5339520002235,4.0,1.0,phase_2,go,400.0,350.0,1.0,,,,,,,,,orange,cross
0.0,6.0,2.0,1.0,6.0,0.0,0.0,4.0,1.0,phase_2,stop,400.0,350.0,4.0,,,,,,,,,white,diamond
0.0,3.0,3.0,0.0,5.0,5.0,547.0851430000039,4.0,1.0,phase_2,go,400.0,400.0,1.0,,,,,,,,,cyan,I
0.0,5.0,1.0,1.0,6.0,6.0,435.5508519997784,4.0,1.0,phase_2,stop,400.0,400.0,3.0,,,,,,,,,gray,flipped triangle
0.0,7.0,3.0,1.0,5.0,0.0,0.0,4.0,1.0,phase_2,stop,400.0,350.0,4.0,,,,,,,,,green,circle
0.0,8.0,4.0,1.0,5.0,5.0,325.5815759998768,4.0,1.0,phase_2,go,450.0,350.0,1.0,,,,,,,,,orange,cross
0.0,7.0,3.0,1.0,5.0,5.0,498.0237039999338,4.0,1.0,phase_2,stop,450.0,350.0,3.0,,,,,,,,,green,circle
0.0,7.0,3.0,1.0,5.0,0.0,0.0,4.0,1.0,phase_2,stop,400.0,350.0,4.0,,,,,,,,,green,circle
0.0,2.0,2.0,0.0,5.0,5.0,451.903071000288,4.0,1.0,phase_2,go,450.0,350.0,1.0,,,,,,,,,blue,square
0.0,4.0,4.0,0.0,6.0,6.0,457.5478140000086,4.0,1.0,phase_2,go,450.0,350.0,1.0,,,,,,,,,yellow,hexagon
0.0,1.0,1.0,0.0,6.0,6.0,401.6923389999647,4.0,1.0,phase_2,go,450.0,350.0,1.0,,,,,,,,,magenta,triangle
0.0,4.0,4.0,0.0,5.0,5.0,502.71023300001616,4.0,1.0,phase_2,go,450.0,350.0,1.0,,,,,,,,,yellow,hexagon
0.0,8.0,4.0,1.0,6.0,6.0,429.5344519996433,4.0,1.0,phase_2,stop,450.0,350.0,3.0,,,,,,,,,orange,cross
0.0,2.0,2.0,0.0,6.0,6.0,358.9772360001007,4.0,1.0,phase_2,go,450.0,300.0,1.0,,,,,,,,,blue,square
0.0,5.0,1.0,1.0,6.0,6.0,718.613041000026,4.0,1.0,phase_2,go,450.0,300.0,1.0,,,,,,,,,gray,flipped triangle
0.0,3.0,3.0,0.0,6.0,6.0,629.5405569999275,4.0,1.0,phase_2,go,450.0,300.0,1.0,,,,,,,,,cyan,I
0.0,8.0,4.0,1.0,6.0,6.0,459.3707130002258,4.0,1.0,phase_2,stop,450.0,300.0,3.0,,,,,,,,,orange,cross
0.0,1.0,1.0,0.0,6.0,6.0,715.4035319999821,4.0,1.0,phase_2,go,450.0,250.0,1.0,,,,,,,,,magenta,triangle
0.0,2.0,2.0,0.0,5.0,5.0,699.4556049999119,4.0,1.0,phase_2,go,450.0,250.0,1.0,,,,,,,,,blue,square
0.0,7.0,3.0,1.0,5.0,5.0,699.3682269999226,4.0,1.0,phase_2,go,450.0,250.0,1.0,,,,,,,,,green,circle
0.0,8.0,4.0,1.0,6.0,6.0,522.2266289997606,4.0,1.0,phase_2,go,450.0,250.0,1.0,,,,,,,,,orange,cross
0.0,1.0,1.0,0.0,6.0,6.0,660.1031400000466,4.0,1.0,phase_2,go,450.0,250.0,1.0,,,,,,,,,magenta,triangle
0.0,4.0,4.0,0.0,5.0,5.0,507.1011099998941,4.0,1.0,phase_2,go,450.0,250.0,1.0,,,,,,,,,yellow,hexagon
0.0,8.0,4.0,1.0,6.0,6.0,359.7556340000665,4.0,1.0,phase_2,stop,450.0,250.0,3.0,,,,,,,,,orange,cross
0.0,6.0,2.0,1.0,6.0,0.0,0.0,4.0,1.0,phase_2,stop,450.0,200.0,4.0,,,,,,,,,white,diamond
0.0,1.0,1.0,0.0,5.0,5.0,639.442752999912,4.0,1.0,phase_2,go,450.0,250.0,1.0,,,,,,,,,magenta,triangle
0.0,2.0,2.0,0.0,6.0,6.0,374.5503639997878,4.0,1.0,phase_2,go,450.0,250.0,1.0,,,,,,,,,blue,square
0.0,1.0,1.0,0.0,6.0,6.0,671.1843500002033,4.0,1.0,phase_2,go,450.0,250.0,1.0,,,,,,,,,magenta,triangle
0.0,3.0,3.0,0.0,6.0,6.0,367.7561959998456,4.0,1.0,phase_2,go,450.0,250.0,1.0,,,,,,,,,cyan,I
0.0,1.0,1.0,0.0,6.0,6.0,414.4346139996742,4.0,1.0,phase_2,go,450.0,250.0,1.0,,,,,,,,,magenta,triangle
0.0,3.0,3.0,0.0,6.0,6.0,389.3836300003386,4.0,1.0,phase_2,go,450.0,250.0,1.0,,,,,,,,,cyan,I
0.0,3.0,3.0,0.0,5.0,5.0,506.590048000362,5.0,1.0,phase_2,go,450.0,250.0,1.0,,,,,,,,,cyan,I
0.0,1.0,1.0,0.0,6.0,6.0,286.7864789996019,5.0,1.0,phase_2,go,450.0,250.0,1.0,,,,,,,,,magenta,triangle
0.0,5.0,1.0,1.0,6.0,6.0,318.7321780001184,5.0,1.0,phase_2,stop,450.0,250.0,3.0,,,,,,,,,gray,flipped triangle
0.0,1.0,1.0,0.0,6.0,6.0,716.9180350001625,5.0,1.0,phase_2,go,450.0,200.0,1.0,,,,,,,,,magenta,triangle
0.0,2.0,2.0,0.0,5.0,5.0,509.3285860002652,5.0,1.0,phase_2,go,450.0,200.0,1.0,,,,,,,,,blue,square
0.0,2.0,2.0,0.0,5.0,5.0,632.1287270002358,5.0,1.0,phase_2,go,450.0,200.0,1.0,,,,,,,,,blue,square
0.0,1.0,1.0,0.0,5.0,5.0,411.4562449999539,5.0,1.0,phase_2,go,450.0,200.0,1.0,,,,,,,,,magenta,triangle
0.0,8.0,4.0,1.0,5.0,5.0,395.136846999776,5.0,1.0,phase_2,stop,450.0,200.0,3.0,,,,,,,,,orange,cross
0.0,4.0,4.0,0.0,6.0,6.0,387.9147870002271,5.0,1.0,phase_2,go,400.0,200.0,1.0,,,,,,,,,yellow,hexagon
0.0,6.0,2.0,1.0,5.0,5.0,401.8547369996668,5.0,1.0,phase_2,go,400.0,200.0,1.0,,,,,,,,,white,diamond
0.0,4.0,4.0,0.0,5.0,5.0,317.0565549999082,5.0,1.0,phase_2,go,400.0,200.0,1.0,,,,,,,,,yellow,hexagon
0.0,8.0,4.0,1.0,5.0,5.0,380.5581259998689,5.0,1.0,phase_2,stop,400.0,200.0,3.0,,,,,,,,,orange,cross
0.0,5.0,1.0,1.0,5.0,5.0,373.6588189999565,5.0,1.0,phase_2,stop,350.0,200.0,3.0,,,,,,,,,gray,flipped triangle
0.0,2.0,2.0,0.0,6.0,6.0,703.9639330000682,5.0,1.0,phase_2,go,300.0,200.0,1.0,,,,,,,,,blue,square
0.0,5.0,1.0,1.0,6.0,0.0,0.0,5.0,1.0,phase_2,stop,300.0,200.0,4.0,,,,,,,,,gray,flipped triangle
0.0,4.0,4.0,0.0,5.0,5.0,504.1157589998875,5.0,1.0,phase_2,go,300.0,250.0,1.0,,,,,,,,,yellow,hexagon
0.0,3.0,3.0,0.0,5.0,5.0,408.2548149999638,5.0,1.0,phase_2,go,300.0,250.0,1.0,,,,,,,,,cyan,I
0.0,5.0,1.0,1.0,6.0,0.0,0.0,5.0,1.0,phase_2,stop,300.0,250.0,4.0,,,,,,,,,gray,flipped triangle
0.0,7.0,3.0,1.0,6.0,0.0,0.0,5.0,1.0,phase_2,stop,300.0,300.0,4.0,,,,,,,,,green,circle
0.0,2.0,2.0,0.0,6.0,6.0,774.717182999666,5.0,1.0,phase_2,go,300.0,350.0,1.0,,,,,,,,,blue,square
0.0,4.0,4.0,0.0,5.0,5.0,604.3664359999639,5.0,1.0,phase_2,go,300.0,350.0,1.0,,,,,,,,,yellow,hexagon
0.0,6.0,2.0,1.0,5.0,5.0,659.1900839998743,5.0,1.0,phase_2,go,300.0,350.0,1.0,,,,,,,,,white,diamond
0.0,3.0,3.0,0.0,6.0,6.0,675.387469999805,5.0,1.0,phase_2,go,300.0,350.0,1.0,,,,,,,,,cyan,I
0.0,7.0,3.0,1.0,6.0,0.0,0.0,5.0,1.0,phase_2,stop,300.0,350.0,4.0,,,,,,,,,green,circle
0.0,1.0,1.0,0.0,5.0,5.0,492.0637180002813,5.0,1.0,phase_2,go,300.0,400.0,1.0,,,,,,,,,magenta,triangle
0.0,4.0,4.0,0.0,6.0,6.0,465.768159000163,5.0,1.0,phase_2,go,300.0,400.0,1.0,,,,,,,,,yellow,hexagon
0.0,5.0,1.0,1.0,5.0,0.0,0.0,5.0,1.0,phase_2,stop,300.0,400.0,4.0,,,,,,,,,gray,flipped triangle
0.0,7.0,3.0,1.0,5.0,0.0,0.0,5.0,1.0,phase_2,stop,350.0,400.0,4.0,,,,,,,,,green,circle
0.0,8.0,4.0,1.0,5.0,5.0,422.8272529999231,5.0,1.0,phase_2,stop,400.0,400.0,3.0,,,,,,,,,orange,cross
0.0,7.0,3.0,1.0,5.0,5.0,547.2914059996583,5.0,1.0,phase_2,go,350.0,400.0,1.0,,,,,,,,,green,circle
0.0,5.0,1.0,1.0,6.0,6.0,426.3656309999533,5.0,1.0,phase_2,stop,350.0,400.0,3.0,,,,,,,,,gray,flipped triangle
0.0,2.0,2.0,0.0,6.0,6.0,701.4660280001408,5.0,1.0,phase_2,go,350.0,350.0,1.0,,,,,,,,,blue,square
0.0,5.0,1.0,1.0,6.0,0.0,0.0,5.0,1.0,phase_2,stop,350.0,350.0,4.0,,,,,,,,,gray,flipped triangle
0.0,5.0,1.0,1.0,5.0,5.0,629.3087910003123,5.0,1.0,phase_2,go,350.0,400.0,1.0,,,,,,,,,gray,flipped triangle
0.0,7.0,3.0,1.0,5.0,0.0,0.0,5.0,1.0,phase_2,stop,350.0,400.0,4.0,,,,,,,,,green,circle
0.0,1.0,1.0,0.0,5.0,5.0,615.0259089999963,5.0,1.0,phase_2,go,400.0,400.0,1.0,,,,,,,,,magenta,triangle
0.0,1.0,1.0,0.0,5.0,5.0,731.8427909999627,6.0,1.0,phase_2,go,400.0,400.0,1.0,,,,,,,,,magenta,triangle
0.0,6.0,2.0,1.0,6.0,6.0,355.395475000023,6.0,1.0,phase_2,stop,400.0,400.0,3.0,,,,,,,,,white,diamond
0.0,4.0,4.0,0.0,6.0,6.0,608.6348740000176,6.0,1.0,phase_2,go,400.0,350.0,1.0,,,,,,,,,yellow,hexagon
0.0,7.0,3.0,1.0,6.0,0.0,0.0,6.0,1.0,phase_2,stop,400.0,350.0,4.0,,,,,,,,,green,circle
0.0,7.0,3.0,1.0,5.0,0.0,0.0,6.0,1.0,phase_2,stop,400.0,400.0,4.0,,,,,,,,,green,circle
0.0,8.0,4.0,1.0,6.0,0.0,0.0,6.0,1.0,phase_2,stop,450.0,400.0,4.0,,,,,,,,,orange,cross
0.0,3.0,3.0,0.0,5.0,5.0,559.7138509997421,6.0,1.0,phase_2,go,450.0,450.0,1.0,,,,,,,,,cyan,I
0.0,5.0,1.0,1.0,6.0,0.0,0.0,6.0,1.0,phase_2,stop,450.0,450.0,4.0,,,,,,,,,gray,flipped triangle
0.0,7.0,3.0,1.0,6.0,0.0,0.0,6.0,1.0,phase_2,stop,450.0,500.0,4.0,,,,,,,,,green,circle
0.0,8.0,4.0,1.0,6.0,6.0,659.6592649998456,6.0,1.0,phase_2,stop,450.0,550.0,3.0,,,,,,,,,orange,cross
0.0,7.0,3.0,1.0,6.0,6.0,534.3341249999867,6.0,1.0,phase_2,go,450.0,500.0,1.0,,,,,,,,,green,circle
0.0,4.0,4.0,0.0,6.0,6.0,828.0265149996922,6.0,1.0,phase_2,go,450.0,500.0,1.0,,,,,,,,,yellow,hexagon
0.0,3.0,3.0,0.0,6.0,6.0,748.2637699999941,6.0,1.0,phase_2,go,450.0,500.0,1.0,,,,,,,,,cyan,I
0.0,2.0,2.0,0.0,6.0,6.0,737.4525879999965,6.0,1.0,phase_2,go,450.0,500.0,1.0,,,,,,,,,blue,square
0.0,4.0,4.0,0.0,5.0,5.0,880.250536999938,6.0,1.0,phase_2,go,450.0,500.0,1.0,,,,,,,,,yellow,hexagon
0.0,3.0,3.0,0.0,5.0,5.0,744.6667460003482,6.0,1.0,phase_2,go,450.0,500.0,1.0,,,,,,,,,cyan,I
0.0,8.0,4.0,1.0,6.0,6.0,370.1415609998548,6.0,1.0,phase_2,go,450.0,500.0,1.0,,,,,,,,,orange,cross
0.0,1.0,1.0,0.0,5.0,5.0,697.6337680002871,6.0,1.0,phase_2,go,450.0,500.0,1.0,,,,,,,,,magenta,triangle
0.0,2.0,2.0,0.0,6.0,6.0,357.7008950001072,6.0,1.0,phase_2,go,450.0,500.0,1.0,,,,,,,,,blue,square
0.0,7.0,3.0,1.0,6.0,0.0,0.0,6.0,1.0,phase_2,stop,450.0,500.0,4.0,,,,,,,,,green,circle
0.0,7.0,3.0,1.0,5.0,0.0,0.0,6.0,1.0,phase_2,stop,450.0,550.0,4.0,,,,,,,,,green,circle
0.0,7.0,3.0,1.0,6.0,0.0,0.0,6.0,1.0,phase_2,stop,500.0,550.0,4.0,,,,,,,,,green,circle
0.0,3.0,3.0,0.0,5.0,5.0,563.8317859998097,6.0,1.0,phase_2,go,500.0,600.0,1.0,,,,,,,,,cyan,I
0.0,2.0,2.0,0.0,5.0,5.0,659.3590249999579,6.0,1.0,phase_2,go,500.0,600.0,1.0,,,,,,,,,blue,square
0.0,3.0,3.0,0.0,5.0,5.0,388.5457229998792,6.0,1.0,phase_2,go,500.0,600.0,1.0,,,,,,,,,cyan,I
0.0,3.0,3.0,0.0,5.0,5.0,548.9147180001055,6.0,1.0,phase_2,go,500.0,600.0,1.0,,,,,,,,,cyan,I
0.0,5.0,1.0,1.0,5.0,5.0,588.1535319999784,6.0,1.0,phase_2,stop,500.0,600.0,3.0,,,,,,,,,gray,flipped triangle
0.0,5.0,1.0,1.0,6.0,6.0,697.7869799998189,6.0,1.0,phase_2,stop,450.0,600.0,3.0,,,,,,,,,gray,flipped triangle
0.0,1.0,1.0,0.0,5.0,5.0,643.505981999624,6.0,1.0,phase_2,go,450.0,550.0,1.0,,,,,,,,,magenta,triangle
0.0,2.0,2.0,0.0,5.0,5.0,700.0036539998291,6.0,1.0,phase_2,go,450.0,550.0,1.0,,,,,,,,,blue,square
0.0,6.0,2.0,1.0,6.0,6.0,603.2402190003268,6.0,1.0,phase_2,go,450.0,550.0,1.0,,,,,,,,,white,diamond
0.0,8.0,4.0,1.0,6.0,6.0,617.3360880002292,6.0,1.0,phase_2,go,450.0,550.0,1.0,,,,,,,,,orange,cross
0.0,6.0,2.0,1.0,6.0,6.0,638.0200979997426,6.0,1.0,phase_2,stop,450.0,550.0,3.0,,,,,,,,,white,diamond
0.0,4.0,4.0,0.0,6.0,6.0,837.5425479998739,6.0,1.0,phase_2,go,450.0,500.0,1.0,,,,,,,,,yellow,hexagon
0.0,2.0,2.0,0.0,6.0,6.0,560.2195279998341,6.0,1.0,phase_2,go,450.0,500.0,1.0,,,,,,,,,blue,square
0.0,7.0,3.0,1.0,6.0,0.0,0.0,6.0,1.0,phase_2,stop,450.0,500.0,4.0,,,,,,,,,green,circle
0.0,3.0,3.0,0.0,5.0,5.0,354.8905849997936,7.0,1.0,phase_2,go,450.0,550.0,1.0,,,,,,,,,cyan,I
0.0,6.0,2.0,1.0,6.0,0.0,0.0,7.0,1.0,phase_2,stop,450.0,550.0,4.0,,,,,,,,,white,diamond
0.0,6.0,2.0,1.0,6.0,6.0,809.4684259999667,7.0,1.0,phase_2,go,450.0,600.0,1.0,,,,,,,,,white,diamond
0.0,2.0,2.0,0.0,6.0,6.0,512.5317000001814,7.0,1.0,phase_2,go,450.0,600.0,1.0,,,,,,,,,blue,square
0.0,8.0,4.0,1.0,5.0,0.0,0.0,7.0,1.0,phase_2,stop,450.0,600.0,4.0,,,,,,,,,orange,cross
0.0,7.0,3.0,1.0,6.0,6.0,751.4179810000314,7.0,1.0,phase_2,stop,500.0,600.0,3.0,,,,,,,,,green,circle
0.0,6.0,2.0,1.0,6.0,0.0,0.0,7.0,1.0,phase_2,stop,500.0,550.0,4.0,,,,,,,,,white,diamond
0.0,3.0,3.0,0.0,6.0,6.0,433.4666909999214,7.0,1.0,phase_2,go,500.0,600.0,1.0,,,,,,,,,cyan,I
0.0,8.0,4.0,1.0,6.0,0.0,0.0,7.0,1.0,phase_2,stop,500.0,600.0,4.0,,,,,,,,,orange,cross
0.0,2.0,2.0,0.0,5.0,5.0,870.8132680003473,7.0,1.0,phase_2,go,500.0,650.0,1.0,,,,,,,,,blue,square
0.0,4.0,4.0,0.0,6.0,6.0,896.0473579995778,7.0,1.0,phase_2,go,500.0,650.0,1.0,,,,,,,,,yellow,hexagon
0.0,5.0,1.0,1.0,6.0,0.0,0.0,7.0,1.0,phase_2,stop,500.0,650.0,4.0,,,,,,,,,gray,flipped triangle
0.0,4.0,4.0,0.0,5.0,5.0,948.542838999856,7.0,1.0,phase_2,go,500.0,700.0,1.0,,,,,,,,,yellow,hexagon
0.0,3.0,3.0,0.0,6.0,6.0,876.6900850000638,7.0,1.0,phase_2,go,500.0,700.0,1.0,,,,,,,,,cyan,I
0.0,7.0,3.0,1.0,6.0,6.0,693.7134960003277,7.0,1.0,phase_2,stop,500.0,700.0,3.0,,,,,,,,,green,circle
0.0,8.0,4.0,1.0,5.0,5.0,788.9689759999783,7.0,1.0,phase_2,go,500.0,650.0,1.0,,,,,,,,,orange,cross
0.0,4.0,4.0,0.0,5.0,5.0,1069.2559740000434,7.0,1.0,phase_2,go,500.0,650.0,1.0,,,,,,,,,yellow,hexagon
0.0,3.0,3.0,0.0,5.0,5.0,859.8176009995768,7.0,1.0,phase_2,go,500.0,650.0,1.0,,,,,,,,,cyan,I
0.0,4.0,4.0,0.0,6.0,6.0,545.4492410003695,7.0,1.0,phase_2,go,500.0,650.0,1.0,,,,,,,,,yellow,hexagon
0.0,1.0,1.0,0.0,5.0,5.0,656.673856999987,7.0,1.0,phase_2,go,500.0,650.0,1.0,,,,,,,,,magenta,triangle
0.0,6.0,2.0,1.0,6.0,0.0,0.0,7.0,1.0,phase_2,stop,500.0,650.0,4.0,,,,,,,,,white,diamond
0.0,5.0,1.0,1.0,5.0,5.0,535.9561350001059,7.0,1.0,phase_2,go,500.0,700.0,1.0,,,,,,,,,gray,flipped triangle
0.0,2.0,2.0,0.0,6.0,6.0,510.12239800002135,7.0,1.0,phase_2,go,500.0,700.0,1.0,,,,,,,,,blue,square
0.0,1.0,1.0,0.0,6.0,6.0,382.2434079997947,7.0,1.0,phase_2,go,500.0,700.0,1.0,,,,,,,,,magenta,triangle
0.0,1.0,1.0,0.0,6.0,6.0,486.906848000217,7.0,1.0,phase_2,go,500.0,700.0,1.0,,,,,,,,,magenta,triangle
0.0,7.0,3.0,1.0,5.0,5.0,472.0808980000583,7.0,1.0,phase_2,stop,500.0,700.0,3.0,,,,,,,,,green,circle
0.0,5.0,1.0,1.0,6.0,6.0,782.32424800035,7.0,1.0,phase_2,stop,450.0,700.0,3.0,,,,,,,,,gray,flipped triangle
0.0,1.0,1.0,0.0,5.0,5.0,990.2862070002813,7.0,1.0,phase_2,go,450.0,650.0,1.0,,,,,,,,,magenta,triangle
0.0,8.0,4.0,1.0,5.0,0.0,0.0,7.0,1.0,phase_2,stop,450.0,650.0,4.0,,,,,,,,,orange,cross
0.0,5.0,1.0,1.0,5.0,5.0,627.6684900003602,7.0,1.0,phase_2,go,500.0,650.0,1.0,,,,,,,,,gray,flipped triangle
0.0,6.0,2.0,1.0,6.0,6.0,635.7129839998379,7.0,1.0,phase_2,stop,500.0,650.0,3.0,,,,,,,,,white,diamond
0.0,4.0,4.0,0.0,6.0,6.0,724.0886210001918,7.0,1.0,phase_2,go,500.0,600.0,1.0,,,,,,,,,yellow,hexagon
0.0,5.0,1.0,1.0,6.0,6.0,688.6203879998902,7.0,1.0,phase_2,stop,500.0,600.0,3.0,,,,,,,,,gray,flipped triangle
0.0,5.0,1.0,1.0,5.0,0.0,0.0,7.0,1.0,phase_2,stop,500.0,550.0,4.0,,,,,,,,,gray,flipped triangle
0.0,1.0,1.0,0.0,6.0,6.0,776.0425179999402,7.0,1.0,phase_2,go,550.0,550.0,1.0,,,,,,,,,magenta,triangle
0.0,6.0,2.0,1.0,5.0,0.0,0.0,7.0,1.0,phase_2,stop,550.0,550.0,4.0,,,,,,,,,white,diamond
0.0,2.0,2.0,0.0,5.0,5.0,388.9433409999583,8.0,1.0,phase_2,go,600.0,550.0,1.0,,,,,,,,,blue,square
0.0,3.0,3.0,0.0,6.0,6.0,412.7098569997542,8.0,1.0,phase_2,go,600.0,550.0,1.0,,,,,,,,,cyan,I
0.0,8.0,4.0,1.0,5.0,5.0,378.9325990001089,8.0,1.0,phase_2,stop,600.0,550.0,3.0,,,,,,,,,orange,cross
0.0,3.0,3.0,0.0,6.0,6.0,500.3073050002058,8.0,1.0,phase_2,go,550.0,550.0,1.0,,,,,,,,,cyan,I
0.0,1.0,1.0,0.0,5.0,5.0,716.5317580002011,8.0,1.0,phase_2,go,550.0,550.0,1.0,,,,,,,,,magenta,triangle
0.0,6.0,2.0,1.0,6.0,6.0,354.3224449999798,8.0,1.0,phase_2,stop,550.0,550.0,3.0,,,,,,,,,white,diamond
0.0,8.0,4.0,1.0,5.0,5.0,459.9163960001533,8.0,1.0,phase_2,stop,550.0,500.0,3.0,,,,,,,,,orange,cross
0.0,2.0,2.0,0.0,6.0,6.0,619.5483729998159,8.0,1.0,phase_2,go,500.0,500.0,1.0,,,,,,,,,blue,square
0.0,7.0,3.0,1.0,5.0,0.0,0.0,8.0,1.0,phase_2,stop,500.0,500.0,4.0,,,,,,,,,green,circle
0.0,5.0,1.0,1.0,5.0,0.0,0.0,8.0,1.0,phase_2,stop,550.0,500.0,4.0,,,,,,,,,gray,flipped triangle
0.0,6.0,2.0,1.0,6.0,6.0,358.7485670000205,8.0,1.0,phase_2,stop,600.0,500.0,3.0,,,,,,,,,white,diamond
0.0,1.0,1.0,0.0,6.0,6.0,422.8797539999505,8.0,1.0,phase_2,go,600.0,450.0,1.0,,,,,,,,,magenta,triangle
0.0,5.0,1.0,1.0,5.0,5.0,649.0292159996898,8.0,1.0,phase_2,go,600.0,450.0,1.0,,,,,,,,,gray,flipped triangle
0.0,6.0,2.0,1.0,6.0,6.0,479.8160400000597,8.0,1.0,phase_2,stop,600.0,450.0,3.0,,,,,,,,,white,diamond
0.0,8.0,4.0,1.0,5.0,5.0,232.1003309998559,8.0,1.0,phase_2,stop,600.0,400.0,3.0,,,,,,,,,orange,cross
0.0,6.0,2.0,1.0,5.0,5.0,839.5435279999219,8.0,1.0,phase_2,go,550.0,400.0,1.0,,,,,,,,,white,diamond
0.0,2.0,2.0,0.0,5.0,5.0,789.8616470001798,8.0,1.0,phase_2,go,550.0,400.0,1.0,,,,,,,,,blue,square
0.0,3.0,3.0,0.0,5.0,5.0,693.2192830004169,8.0,1.0,phase_2,go,550.0,400.0,1.0,,,,,,,,,cyan,I
0.0,6.0,2.0,1.0,6.0,6.0,692.3392609996881,8.0,1.0,phase_2,go,550.0,400.0,1.0,,,,,,,,,white,diamond
0.0,6.0,2.0,1.0,5.0,5.0,395.4401129999496,8.0,1.0,phase_2,stop,550.0,400.0,3.0,,,,,,,,,white,diamond
0.0,4.0,4.0,0.0,5.0,5.0,620.1814290002403,8.0,1.0,phase_2,go,500.0,400.0,1.0,,,,,,,,,yellow,hexagon
0.0,2.0,2.0,0.0,5.0,5.0,528.7921120002466,8.0,1.0,phase_2,go,500.0,400.0,1.0,,,,,,,,,blue,square
0.0,4.0,4.0,0.0,6.0,6.0,553.3445689998189,8.0,1.0,phase_2,go,500.0,400.0,1.0,,,,,,,,,yellow,hexagon
0.0,3.0,3.0,0.0,5.0,5.0,512.3563399997693,8.0,1.0,phase_2,go,500.0,400.0,1.0,,,,,,,,,cyan,I
0.0,4.0,4.0,0.0,6.0,6.0,263.63092700012197,8.0,1.0,phase_2,go,500.0,400.0,1.0,,,,,,,,,yellow,hexagon
0.0,8.0,4.0,1.0,5.0,5.0,409.8289979997389,8.0,1.0,phase_2,stop,500.0,400.0,3.0,,,,,,,,,orange,cross
0.0,8.0,4.0,1.0,5.0,5.0,433.0543200003376,8.0,1.0,phase_2,stop,450.0,400.0,3.0,,,,,,,,,orange,cross
0.0,2.0,2.0,0.0,5.0,5.0,501.506464999693,8.0,1.0,phase_2,go,400.0,400.0,1.0,,,,,,,,,blue,square
0.0,8.0,4.0,1.0,6.0,6.0,448.1611690002864,8.0,1.0,phase_2,stop,400.0,400.0,3.0,,,,,,,,,orange,cross
0.0,6.0,2.0,1.0,5.0,0.0,0.0,8.0,1.0,phase_2,stop,400.0,350.0,4.0,,,,,,,,,white,diamond
0.0,1.0,1.0,0.0,5.0,5.0,591.6901790001248,8.0,1.0,phase_2,go,450.0,350.0,1.0,,,,,,,,,magenta,triangle
0.0,2.0,2.0,0.0,6.0,6.0,629.0294519999406,8.0,1.0,phase_2,go,450.0,350.0,1.0,,,,,,,,,blue,square
0.0,4.0,4.0,0.0,5.0,5.0,629.1005500002029,8.0,1.0,phase_2,go,450.0,350.0,1.0,,,,,,,,,yellow,hexagon
0.0,4.0,4.0,0.0,5.0,5.0,666.662673999781,8.0,1.0,phase_2,go,450.0,350.0,1.0,,,,,,,,,yellow,hexagon
0.0,6.0,2.0,1.0,5.0,0.0,0.0,8.0,1.0,phase_2,stop,450.0,350.0,4.0,,,,,,,,,white,diamond
0.0,7.0,3.0,1.0,5.0,0.0,0.0,8.0,1.0,phase_2,stop,500.0,350.0,4.0,,,,,,,,,green,circle
0.0,3.0,3.0,0.0,7.0,3.0,239.4206990002203,1.0,1.0,phase_3,,,,,176.0,4.0,88.0,220.0,176.0,264.0,44.0,132.0,cyan,I
0.0,8.0,4.0,1.0,7.0,4.0,3700.052940000205,1.0,1.0,phase_3,,,,,136.0,4.0,204.0,34.0,170.0,136.0,102.0,68.0,orange,cross
0.0,6.0,2.0,1.0,7.0,2.0,1550.2587299997683,1.0,2.0,phase_3,,,,,264.0,6.0,44.0,264.0,176.0,88.0,220.0,132.0,white,diamond
0.0,5.0,1.0,1.0,7.0,5.0,1232.3239620000097,1.0,1.0,phase_3,,,,,147.0,3.0,49.0,245.0,294.0,196.0,147.0,98.0,gray,flipped triangle
0.0,6.0,2.0,1.0,7.0,5.0,1608.393530000285,1.0,1.0,phase_3,,,,,102.0,3.0,34.0,170.0,204.0,136.0,102.0,68.0,white,diamond
0.0,3.0,3.0,0.0,7.0,3.0,1880.7833159999063,1.0,1.0,phase_3,,,,,98.0,2.0,147.0,294.0,98.0,49.0,196.0,245.0,cyan,I
0.0,7.0,3.0,1.0,7.0,2.0,1002.2757340002499,1.0,1.0,phase_3,,,,,176.0,4.0,220.0,176.0,44.0,88.0,132.0,264.0,green,circle
0.0,8.0,4.0,1.0,7.0,6.0,1851.4933329997805,1.0,1.0,phase_3,,,,,294.0,6.0,196.0,98.0,245.0,147.0,49.0,294.0,orange,cross
0.0,1.0,1.0,0.0,7.0,3.0,3372.225606999564,1.0,1.0,phase_3,,,,,156.0,4.0,117.0,78.0,156.0,39.0,234.0,195.0,magenta,triangle
0.0,5.0,1.0,1.0,7.0,4.0,3167.4129960001665,1.0,1.0,phase_3,,,,,216.0,4.0,54.0,108.0,270.0,216.0,324.0,162.0,gray,flipped triangle
0.0,1.0,1.0,0.0,7.0,2.0,2090.253342000324,1.0,1.0,phase_3,,,,,234.0,6.0,156.0,234.0,39.0,117.0,78.0,195.0,magenta,triangle
0.0,3.0,3.0,0.0,7.0,5.0,1392.1648779996758,1.0,1.0,phase_3,,,,,78.0,2.0,39.0,234.0,156.0,117.0,78.0,195.0,cyan,I
0.0,3.0,3.0,0.0,7.0,5.0,2473.8805980005054,1.0,1.0,phase_3,,,,,245.0,5.0,98.0,49.0,196.0,147.0,245.0,294.0,cyan,I
0.0,1.0,1.0,0.0,7.0,1.0,2880.1565250005297,1.0,1.0,phase_3,,,,,88.0,2.0,88.0,132.0,220.0,44.0,176.0,264.0,magenta,triangle
0.0,4.0,4.0,0.0,7.0,1.0,1662.313532000553,1.0,1.0,phase_3,,,,,44.0,1.0,44.0,264.0,220.0,132.0,176.0,88.0,yellow,hexagon
0.0,1.0,1.0,0.0,7.0,6.0,1719.6851910002806,1.0,1.0,phase_3,,,,,204.0,6.0,102.0,170.0,136.0,34.0,68.0,204.0,magenta,triangle
0.0,2.0,2.0,0.0,7.0,2.0,2312.2916769998483,1.0,1.0,phase_3,,,,,156.0,4.0,234.0,156.0,78.0,195.0,117.0,39.0,blue,square
0.0,5.0,1.0,1.0,7.0,4.0,1507.1632790004514,1.0,1.0,phase_3,,,,,49.0,1.0,196.0,294.0,147.0,49.0,98.0,245.0,gray,flipped triangle
0.0,7.0,3.0,1.0,7.0,2.0,2075.893207000263,1.0,1.0,phase_3,,,,,102.0,3.0,34.0,102.0,204.0,68.0,170.0,136.0,green,circle
0.0,8.0,4.0,1.0,7.0,5.0,1803.6629930002164,1.0,1.0,phase_3,,,,,294.0,6.0,98.0,147.0,196.0,49.0,294.0,245.0,orange,cross
0.0,2.0,2.0,0.0,7.0,4.0,2286.610916000427,2.0,1.0,phase_3,,,,,204.0,6.0,68.0,34.0,170.0,204.0,102.0,136.0,blue,square
0.0,5.0,1.0,1.0,7.0,5.0,2282.9285330008133,2.0,1.0,phase_3,,,,,195.0,5.0,78.0,39.0,117.0,156.0,195.0,234.0,gray,flipped triangle
0.0,1.0,1.0,0.0,7.0,3.0,1604.6722880000743,2.0,1.0,phase_3,,,,,88.0,2.0,264.0,220.0,88.0,176.0,44.0,132.0,magenta,triangle
0.0,8.0,4.0,1.0,7.0,1.0,1604.837852999481,2.0,1.0,phase_3,,,,,195.0,5.0,195.0,78.0,39.0,234.0,156.0,117.0,orange,cross
0.0,7.0,3.0,1.0,7.0,5.0,2403.564264000124,2.0,1.0,phase_3,,,,,108.0,2.0,270.0,162.0,54.0,324.0,108.0,216.0,green,circle
0.0,7.0,3.0,1.0,7.0,2.0,1981.2216560003435,2.0,1.0,phase_3,,,,,88.0,2.0,220.0,88.0,264.0,44.0,132.0,176.0,green,circle
0.0,4.0,4.0,0.0,7.0,2.0,1314.1948289994616,2.0,1.0,phase_3,,,,,245.0,5.0,147.0,245.0,98.0,294.0,196.0,49.0,yellow,hexagon
0.0,1.0,1.0,0.0,7.0,6.0,2023.9493910003148,2.0,1.0,phase_3,,,,,136.0,4.0,170.0,102.0,34.0,68.0,204.0,136.0,magenta,triangle
0.0,6.0,2.0,1.0,7.0,4.0,1538.6560050001208,2.0,1.0,phase_3,,,,,34.0,1.0,170.0,136.0,102.0,34.0,204.0,68.0,white,diamond
0.0,5.0,1.0,1.0,7.0,3.0,2225.853869000275,2.0,1.0,phase_3,,,,,220.0,5.0,132.0,88.0,220.0,176.0,264.0,44.0,gray,flipped triangle
0.0,5.0,1.0,1.0,7.0,3.0,2195.190446000197,2.0,1.0,phase_3,,,,,176.0,4.0,264.0,132.0,176.0,88.0,44.0,220.0,gray,flipped triangle
0.0,1.0,1.0,0.0,7.0,3.0,1916.998575999969,2.0,1.0,phase_3,,,,,49.0,1.0,245.0,147.0,49.0,98.0,196.0,294.0,magenta,triangle
0.0,5.0,1.0,1.0,7.0,6.0,2122.0323170000484,2.0,1.0,phase_3,,,,,234.0,6.0,156.0,117.0,195.0,78.0,39.0,234.0,gray,flipped triangle
0.0,6.0,2.0,1.0,7.0,5.0,2227.7010269999664,2.0,1.0,phase_3,,,,,117.0,3.0,156.0,234.0,195.0,39.0,117.0,78.0,white,diamond
0.0,7.0,3.0,1.0,7.0,1.0,1666.68064499936,2.0,1.0,phase_3,,,,,39.0,1.0,39.0,117.0,234.0,195.0,156.0,78.0,green,circle
0.0,7.0,3.0,1.0,7.0,6.0,1754.9304540007142,2.0,1.0,phase_3,,,,,156.0,4.0,195.0,234.0,78.0,39.0,117.0,156.0,green,circle
0.0,3.0,3.0,0.0,7.0,1.0,2838.710476000415,2.0,1.0,phase_3,,,,,132.0,3.0,132.0,88.0,176.0,44.0,264.0,220.0,cyan,I
0.0,3.0,3.0,0.0,7.0,2.0,1997.7377420000264,2.0,1.0,phase_3,,,,,68.0,2.0,102.0,68.0,136.0,34.0,170.0,204.0,cyan,I
0.0,2.0,2.0,0.0,7.0,3.0,2319.2074160006086,2.0,1.0,phase_3,,,,,220.0,5.0,176.0,132.0,220.0,88.0,264.0,44.0,blue,square
0.0,4.0,4.0,0.0,7.0,6.0,2504.5452449994627,2.0,1.0,phase_3,,,,,88.0,2.0,132.0,220.0,176.0,44.0,264.0,88.0,yellow,hexagon
0.0,4.0,4.0,0.0,7.0,4.0,2354.5251599998664,3.0,1.0,phase_3,,,,,204.0,6.0,170.0,136.0,68.0,204.0,34.0,102.0,yellow,hexagon
0.0,4.0,4.0,0.0,7.0,5.0,2180.4139010000654,3.0,1.0,phase_3,,,,,117.0,3.0,39.0,156.0,78.0,234.0,117.0,195.0,yellow,hexagon
0.0,6.0,2.0,1.0,7.0,5.0,3751.9274270007368,3.0,1.0,phase_3,,,,,44.0,1.0,176.0,264.0,88.0,220.0,44.0,132.0,white,diamond
0.0,3.0,3.0,0.0,7.0,1.0,3066.357804999825,3.0,1.0,phase_3,,,,,102.0,3.0,102.0,136.0,170.0,34.0,68.0,204.0,cyan,I
0.0,3.0,3.0,0.0,7.0,1.0,2407.889907000026,3.0,1.0,phase_3,,,,,108.0,2.0,108.0,324.0,54.0,216.0,270.0,162.0,cyan,I
0.0,3.0,3.0,0.0,7.0,6.0,2834.230677999585,3.0,1.0,phase_3,,,,,117.0,3.0,234.0,78.0,195.0,156.0,39.0,117.0,cyan,I
0.0,7.0,3.0,1.0,7.0,1.0,1949.3670629999544,3.0,1.0,phase_3,,,,,34.0,1.0,34.0,204.0,136.0,170.0,68.0,102.0,green,circle
0.0,7.0,3.0,1.0,7.0,6.0,2293.3156669996606,3.0,1.0,phase_3,,,,,294.0,6.0,196.0,147.0,49.0,98.0,245.0,294.0,green,circle
0.0,4.0,4.0,0.0,7.0,3.0,3189.7703380000166,3.0,1.0,phase_3,,,,,108.0,2.0,216.0,324.0,108.0,270.0,54.0,162.0,yellow,hexagon
0.0,1.0,1.0,0.0,7.0,6.0,2089.422533999823,3.0,1.0,phase_3,,,,,294.0,6.0,147.0,196.0,98.0,49.0,245.0,294.0,magenta,triangle
0.0,6.0,2.0,1.0,7.0,4.0,2449.031719999766,3.0,1.0,phase_3,,,,,294.0,6.0,49.0,98.0,196.0,294.0,245.0,147.0,white,diamond
0.0,8.0,4.0,1.0,7.0,3.0,3341.243783000209,3.0,1.0,phase_3,,,,,39.0,1.0,78.0,156.0,39.0,195.0,117.0,234.0,orange,cross
0.0,2.0,2.0,0.0,7.0,6.0,2390.5666310001834,3.0,1.0,phase_3,,,,,324.0,6.0,270.0,162.0,108.0,216.0,54.0,324.0,blue,square
0.0,5.0,1.0,1.0,7.0,6.0,2629.160743999819,3.0,1.0,phase_3,,,,,68.0,2.0,204.0,136.0,170.0,102.0,34.0,68.0,gray,flipped triangle
0.0,8.0,4.0,1.0,7.0,3.0,2830.295003999709,3.0,1.0,phase_3,,,,,162.0,3.0,270.0,54.0,162.0,324.0,216.0,108.0,orange,cross
0.0,8.0,4.0,1.0,7.0,6.0,2318.6828729994886,3.0,1.0,phase_3,,,,,170.0,5.0,204.0,136.0,34.0,102.0,68.0,170.0,orange,cross
0.0,5.0,1.0,1.0,7.0,4.0,2257.4489489998086,3.0,1.0,phase_3,,,,,162.0,3.0,108.0,270.0,324.0,162.0,216.0,54.0,gray,flipped triangle
0.0,8.0,4.0,1.0,7.0,3.0,1267.4797529998614,3.0,1.0,phase_3,,,,,44.0,1.0,176.0,264.0,44.0,88.0,132.0,220.0,orange,cross
0.0,8.0,4.0,1.0,7.0,1.0,1444.292647999646,3.0,1.0,phase_3,,,,,270.0,5.0,270.0,54.0,216.0,162.0,324.0,108.0,orange,cross
0.0,6.0,2.0,1.0,7.0,2.0,2447.6720450002176,3.0,1.0,phase_3,,,,,162.0,3.0,108.0,162.0,324.0,270.0,54.0,216.0,white,diamond
0.0,6.0,2.0,1.0,7.0,2.0,1401.5921669997624,4.0,1.0,phase_3,,,,,245.0,5.0,196.0,245.0,98.0,294.0,147.0,49.0,white,diamond
0.0,1.0,1.0,0.0,7.0,3.0,3419.872824999402,4.0,1.0,phase_3,,,,,108.0,2.0,270.0,54.0,108.0,162.0,324.0,216.0,magenta,triangle
0.0,4.0,4.0,0.0,7.0,1.0,2184.34520899973,4.0,1.0,phase_3,,,,,39.0,1.0,39.0,78.0,156.0,117.0,234.0,195.0,yellow,hexagon
0.0,6.0,2.0,1.0,7.0,4.0,2518.1845569995858,4.0,1.0,phase_3,,,,,324.0,6.0,162.0,54.0,270.0,324.0,108.0,216.0,white,diamond
0.0,4.0,4.0,0.0,7.0,4.0,1745.5678689993874,4.0,1.0,phase_3,,,,,162.0,3.0,324.0,54.0,108.0,162.0,216.0,270.0,yellow,hexagon
0.0,4.0,4.0,0.0,7.0,2.0,3003.928490999897,4.0,1.0,phase_3,,,,,98.0,2.0,196.0,98.0,49.0,245.0,147.0,294.0,yellow,hexagon
0.0,1.0,1.0,0.0,7.0,5.0,1732.7098339992515,4.0,1.0,phase_3,,,,,270.0,5.0,324.0,162.0,54.0,216.0,270.0,108.0,magenta,triangle
0.0,2.0,2.0,0.0,7.0,6.0,2435.3899230000025,4.0,1.0,phase_3,,,,,196.0,4.0,245.0,147.0,49.0,98.0,294.0,196.0,blue,square
0.0,5.0,1.0,1.0,7.0,4.0,2023.52168500056,4.0,1.0,phase_3,,,,,68.0,2.0,34.0,170.0,204.0,68.0,136.0,102.0,gray,flipped triangle
0.0,2.0,2.0,0.0,7.0,2.0,1830.047447000652,4.0,1.0,phase_3,,,,,117.0,3.0,78.0,117.0,156.0,234.0,39.0,195.0,blue,square
0.0,6.0,2.0,1.0,7.0,1.0,2745.6697990000976,4.0,1.0,phase_3,,,,,195.0,5.0,195.0,156.0,78.0,234.0,117.0,39.0,white,diamond
0.0,4.0,4.0,0.0,7.0,1.0,3009.2310660002117,4.0,1.0,phase_3,,,,,68.0,2.0,68.0,204.0,34.0,170.0,102.0,136.0,yellow,hexagon
0.0,2.0,2.0,0.0,7.0,1.0,2026.564808999865,4.0,1.0,phase_3,,,,,294.0,6.0,294.0,98.0,245.0,196.0,49.0,147.0,blue,square
0.0,3.0,3.0,0.0,7.0,5.0,2068.3846530000665,4.0,1.0,phase_3,,,,,108.0,2.0,324.0,216.0,54.0,270.0,108.0,162.0,cyan,I
0.0,2.0,2.0,0.0,7.0,2.0,1894.8972079997477,4.0,1.0,phase_3,,,,,108.0,2.0,162.0,108.0,216.0,54.0,324.0,270.0,blue,square
0.0,2.0,2.0,0.0,7.0,4.0,1751.279926999814,4.0,1.0,phase_3,,,,,170.0,5.0,34.0,102.0,68.0,170.0,204.0,136.0,blue,square
0.0,2.0,2.0,0.0,7.0,6.0,1002.2576709998248,4.0,1.0,phase_3,,,,,132.0,3.0,176.0,264.0,44.0,220.0,88.0,132.0,blue,square
0.0,7.0,3.0,1.0,7.0,1.0,1412.4221550000584,4.0,1.0,phase_3,,,,,216.0,4.0,216.0,54.0,108.0,324.0,270.0,162.0,green,circle
0.0,8.0,4.0,1.0,7.0,5.0,3036.034806999851,4.0,1.0,phase_3,,,,,132.0,3.0,88.0,176.0,264.0,220.0,132.0,44.0,orange,cross
0.0,7.0,3.0,1.0,7.0,4.0,1829.446796999946,4.0,1.0,phase_3,,,,,49.0,1.0,294.0,245.0,98.0,49.0,196.0,147.0,green,circle
