raw_reward_magnitude,stim_reward,stepwise_reward_magnitude,paired_with_stopping,stim_location,response,reaction_time,block,num_trial_presentations,which_phase,stop_signal_trial_type,left_SSD,right_SSD,accuracy,chosen_bidding_amount,chosen_bidding_level,possible_bid_1,possible_bid_2,possible_bid_3,possible_bid_4,possible_bid_5,possible_bid_6,color_text,shape_text
186.0,7.0,2.0,1.0,4.0,4.0,333.1729799999721,1.0,1.0,phase_1,,,,,,,,,,,,,green,diamond
423.0,4.0,4.0,0.0,1.0,1.0,297.5323799998932,1.0,1.0,phase_1,,,,,,,,,,,,,white,hexagon
206.0,3.0,2.0,0.0,4.0,4.0,343.350848,1.0,1.0,phase_1,,,,,,,,,,,,,yellow,triangle
120.0,2.0,1.0,0.0,2.0,2.0,270.1113020000321,1.0,1.0,phase_1,,,,,,,,,,,,,cyan,square
419.0,4.0,4.0,0.0,4.0,4.0,298.3673019998605,1.0,1.0,phase_1,,,,,,,,,,,,,white,hexagon
406.0,8.0,4.0,1.0,2.0,2.0,302.1367970000028,1.0,1.0,phase_1,,,,,,,,,,,,,orange,flipped triangle
208.0,3.0,2.0,0.0,4.0,4.0,297.348225000178,1.0,1.0,phase_1,,,,,,,,,,,,,yellow,triangle
92.0,6.0,1.0,1.0,2.0,2.0,256.8312569999307,1.0,1.0,phase_1,,,,,,,,,,,,,blue,cross
56.0,1.0,0.5,0.0,4.0,4.0,335.035125999866,1.0,1.0,phase_1,,,,,,,,,,,,,gray,circle
120.0,6.0,1.0,1.0,4.0,4.0,290.0804670000525,1.0,1.0,phase_1,,,,,,,,,,,,,blue,cross
33.0,5.0,0.5,1.0,2.0,2.0,302.7365339999051,1.0,1.0,phase_1,,,,,,,,,,,,,magenta,I
379.0,4.0,4.0,0.0,4.0,4.0,257.7104849999614,1.0,1.0,phase_1,,,,,,,,,,,,,white,hexagon
189.0,7.0,2.0,1.0,4.0,4.0,293.2496160001392,1.0,2.0,phase_1,,,,,,,,,,,,,green,diamond
0.0,8.0,0.0,1.0,1.0,1.0,367.1360420000837,1.0,1.0,phase_1,,,,,,,,,,,,,orange,flipped triangle
0.0,3.0,0.0,0.0,4.0,4.0,335.014744000091,1.0,1.0,phase_1,,,,,,,,,,,,,yellow,triangle
67.0,5.0,0.5,1.0,3.0,3.0,289.1128139999637,1.0,1.0,phase_1,,,,,,,,,,,,,magenta,I
390.0,8.0,4.0,1.0,4.0,4.0,293.0912500000886,1.0,1.0,phase_1,,,,,,,,,,,,,orange,flipped triangle
0.0,6.0,0.0,1.0,3.0,3.0,339.6189639997828,1.0,1.0,phase_1,,,,,,,,,,,,,blue,cross
98.0,2.0,1.0,0.0,2.0,2.0,253.70676900001848,1.0,1.0,phase_1,,,,,,,,,,,,,cyan,square
218.0,3.0,2.0,0.0,4.0,4.0,292.7805269998771,1.0,1.0,phase_1,,,,,,,,,,,,,yellow,triangle
391.0,8.0,4.0,1.0,4.0,4.0,280.888903999994,1.0,1.0,phase_1,,,,,,,,,,,,,orange,flipped triangle
88.0,2.0,1.0,0.0,3.0,3.0,285.6132090000756,1.0,1.0,phase_1,,,,,,,,,,,,,cyan,square
102.0,6.0,1.0,1.0,4.0,4.0,289.9176599999009,1.0,1.0,phase_1,,,,,,,,,,,,,blue,cross
74.0,1.0,0.5,0.0,2.0,2.0,319.2877290000524,1.0,1.0,phase_1,,,,,,,,,,,,,gray,circle
401.0,4.0,4.0,0.0,1.0,1.0,298.5795919998963,1.0,1.0,phase_1,,,,,,,,,,,,,white,hexagon
0.0,6.0,0.0,1.0,3.0,3.0,286.6014749999976,1.0,1.0,phase_1,,,,,,,,,,,,,blue,cross
0.0,2.0,0.0,0.0,1.0,1.0,366.5654310000263,1.0,1.0,phase_1,,,,,,,,,,,,,cyan,square
92.0,6.0,1.0,1.0,4.0,4.0,272.5352510001357,1.0,1.0,phase_1,,,,,,,,,,,,,blue,cross
0.0,1.0,0.0,0.0,1.0,1.0,381.4923620000172,1.0,1.0,phase_1,,,,,,,,,,,,,gray,circle
225.0,3.0,2.0,0.0,1.0,1.0,274.4298570000865,1.0,1.0,phase_1,,,,,,,,,,,,,yellow,triangle
0.0,5.0,0.0,1.0,2.0,2.0,288.8224569999238,1.0,1.0,phase_1,,,,,,,,,,,,,magenta,I
221.0,7.0,2.0,1.0,4.0,4.0,293.3241150001322,1.0,1.0,phase_1,,,,,,,,,,,,,green,diamond
56.0,5.0,0.5,1.0,4.0,4.0,312.1786749998136,1.0,1.0,phase_1,,,,,,,,,,,,,magenta,I
0.0,4.0,0.0,0.0,2.0,2.0,327.4387619999288,1.0,1.0,phase_1,,,,,,,,,,,,,white,hexagon
70.0,1.0,0.5,0.0,4.0,4.0,321.6196860000764,1.0,1.0,phase_1,,,,,,,,,,,,,gray,circle
424.0,8.0,4.0,1.0,4.0,4.0,313.7918420000005,1.0,1.0,phase_1,,,,,,,,,,,,,orange,flipped triangle
0.0,8.0,0.0,1.0,1.0,1.0,326.206910999872,1.0,1.0,phase_1,,,,,,,,,,,,,orange,flipped triangle
403.0,4.0,4.0,0.0,2.0,2.0,329.7530270001516,1.0,1.0,phase_1,,,,,,,,,,,,,white,hexagon
391.0,4.0,4.0,0.0,3.0,3.0,284.9545679998755,1.0,1.0,phase_1,,,,,,,,,,,,,white,hexagon
0.0,2.0,0.0,0.0,1.0,1.0,338.6820299999726,1.0,1.0,phase_1,,,,,,,,,,,,,cyan,square
63.0,5.0,0.5,1.0,4.0,4.0,297.1307840000463,1.0,1.0,phase_1,,,,,,,,,,,,,magenta,I
414.0,4.0,4.0,0.0,4.0,4.0,333.1126539999332,1.0,1.0,phase_1,,,,,,,,,,,,,white,hexagon
56.0,1.0,0.5,0.0,2.0,2.0,272.7002070000708,1.0,1.0,phase_1,,,,,,,,,,,,,gray,circle
0.0,6.0,0.0,1.0,2.0,2.0,342.1321369999077,1.0,1.0,phase_1,,,,,,,,,,,,,blue,cross
104.0,2.0,1.0,0.0,2.0,2.0,296.7030610000165,1.0,1.0,phase_1,,,,,,,,,,,,,cyan,square
377.0,4.0,4.0,0.0,2.0,2.0,276.915506000023,1.0,1.0,phase_1,,,,,,,,,,,,,white,hexagon
186.0,3.0,2.0,0.0,3.0,3.0,296.5153409998038,1.0,2.0,phase_1,,,,,,,,,,,,,yellow,triangle
66.0,1.0,0.5,0.0,2.0,2.0,301.4981589999479,1.0,1.0,phase_1,,,,,,,,,,,,,gray,circle
0.0,5.0,0.0,1.0,1.0,1.0,345.3193350001129,1.0,1.0,phase_1,,,,,,,,,,,,,magenta,I
85.0,6.0,1.0,1.0,1.0,1.0,318.1866539998736,1.0,1.0,phase_1,,,,,,,,,,,,,blue,cross
94.0,2.0,1.0,0.0,3.0,3.0,346.1816989999988,1.0,1.0,phase_1,,,,,,,,,,,,,cyan,square
177.0,7.0,2.0,1.0,4.0,4.0,297.2324260001642,1.0,1.0,phase_1,,,,,,,,,,,,,green,diamond
0.0,3.0,0.0,0.0,1.0,1.0,339.6084589999191,1.0,1.0,phase_1,,,,,,,,,,,,,yellow,triangle
120.0,6.0,1.0,1.0,2.0,2.0,272.5871420000203,1.0,1.0,phase_1,,,,,,,,,,,,,blue,cross
120.0,2.0,1.0,0.0,4.0,4.0,375.6129190001047,1.0,1.0,phase_1,,,,,,,,,,,,,cyan,square
42.0,1.0,0.5,0.0,3.0,3.0,304.2237910001404,1.0,1.0,phase_1,,,,,,,,,,,,,gray,circle
205.0,7.0,2.0,1.0,2.0,2.0,301.3256449999062,1.0,1.0,phase_1,,,,,,,,,,,,,green,diamond
60.0,5.0,0.5,1.0,4.0,4.0,315.3888849999475,1.0,1.0,phase_1,,,,,,,,,,,,,magenta,I
76.0,6.0,1.0,1.0,2.0,2.0,269.9098369998864,1.0,1.0,phase_1,,,,,,,,,,,,,blue,cross
76.0,2.0,1.0,0.0,3.0,3.0,269.4854459998623,1.0,1.0,phase_1,,,,,,,,,,,,,cyan,square
36.0,5.0,0.5,1.0,3.0,3.0,338.1171680000534,1.0,1.0,phase_1,,,,,,,,,,,,,magenta,I
204.0,7.0,2.0,1.0,1.0,1.0,372.37634600001,1.0,1.0,phase_1,,,,,,,,,,,,,green,diamond
0.0,6.0,0.0,1.0,3.0,3.0,289.6974120001232,1.0,1.0,phase_1,,,,,,,,,,,,,blue,cross
105.0,2.0,1.0,0.0,4.0,4.0,286.0200679999707,1.0,1.0,phase_1,,,,,,,,,,,,,cyan,square
0.0,5.0,0.0,1.0,1.0,1.0,326.3332900000932,1.0,1.0,phase_1,,,,,,,,,,,,,magenta,I
0.0,7.0,0.0,1.0,2.0,2.0,341.9382530000803,1.0,2.0,phase_1,,,,,,,,,,,,,green,diamond
0.0,7.0,0.0,1.0,4.0,4.0,305.5300539999734,1.0,1.0,phase_1,,,,,,,,,,,,,green,diamond
48.0,1.0,0.5,0.0,3.0,3.0,301.1953750001339,1.0,1.0,phase_1,,,,,,,,,,,,,gray,circle
59.0,1.0,0.5,0.0,3.0,3.0,297.7614679998623,1.0,1.0,phase_1,,,,,,,,,,,,,gray,circle
388.0,4.0,4.0,0.0,3.0,3.0,313.7557089999063,1.0,1.0,phase_1,,,,,,,,,,,,,white,hexagon
223.0,7.0,2.0,1.0,3.0,3.0,331.414513000027,1.0,1.0,phase_1,,,,,,,,,,,,,green,diamond
397.0,4.0,4.0,0.0,1.0,1.0,536.5415579999535,1.0,1.0,phase_1,,,,,,,,,,,,,white,hexagon
419.0,8.0,4.0,1.0,2.0,2.0,391.5587739998045,1.0,1.0,phase_1,,,,,,,,,,,,,orange,flipped triangle
220.0,3.0,2.0,0.0,2.0,2.0,330.0832380000429,1.0,1.0,phase_1,,,,,,,,,,,,,yellow,triangle
30.0,1.0,0.5,0.0,2.0,2.0,343.8941559998056,1.0,1.0,phase_1,,,,,,,,,,,,,gray,circle
0.0,1.0,0.0,0.0,1.0,1.0,370.6070050000107,1.0,1.0,phase_1,,,,,,,,,,,,,gray,circle
72.0,5.0,0.5,1.0,3.0,3.0,520.4183969999576,1.0,1.0,phase_1,,,,,,,,,,,,,magenta,I
190.0,3.0,2.0,0.0,2.0,2.0,453.2862480000403,1.0,1.0,phase_1,,,,,,,,,,,,,yellow,triangle
402.0,4.0,4.0,0.0,3.0,3.0,344.6170409999922,1.0,1.0,phase_1,,,,,,,,,,,,,white,hexagon
414.0,8.0,4.0,1.0,1.0,1.0,349.3685099999766,1.0,1.0,phase_1,,,,,,,,,,,,,orange,flipped triangle
38.0,1.0,0.5,0.0,3.0,3.0,378.7840210000013,1.0,1.0,phase_1,,,,,,,,,,,,,gray,circle
111.0,6.0,1.0,1.0,1.0,1.0,382.8450820001308,1.0,1.0,phase_1,,,,,,,,,,,,,blue,cross
0.0,7.0,0.0,1.0,2.0,2.0,334.1132830000788,1.0,1.0,phase_1,,,,,,,,,,,,,green,diamond
84.0,6.0,1.0,1.0,4.0,4.0,491.0186899999189,1.0,1.0,phase_1,,,,,,,,,,,,,blue,cross
0.0,2.0,0.0,0.0,1.0,1.0,496.6860800000177,1.0,1.0,phase_1,,,,,,,,,,,,,cyan,square
59.0,1.0,0.5,0.0,4.0,4.0,371.8870289999358,1.0,1.0,phase_1,,,,,,,,,,,,,gray,circle
100.0,2.0,1.0,0.0,3.0,3.0,366.3487989999794,1.0,1.0,phase_1,,,,,,,,,,,,,cyan,square
125.0,6.0,1.0,1.0,2.0,2.0,339.17487300004717,1.0,1.0,phase_1,,,,,,,,,,,,,blue,cross
88.0,6.0,1.0,1.0,1.0,1.0,401.0188590000325,1.0,1.0,phase_1,,,,,,,,,,,,,blue,cross
94.0,6.0,1.0,1.0,3.0,3.0,340.8229620001748,1.0,1.0,phase_1,,,,,,,,,,,,,blue,cross
59.0,5.0,0.5,1.0,1.0,1.0,345.8628639998551,1.0,1.0,phase_1,,,,,,,,,,,,,magenta,I
424.0,4.0,4.0,0.0,1.0,1.0,343.3657000000494,1.0,1.0,phase_1,,,,,,,,,,,,,white,hexagon
211.0,3.0,2.0,0.0,2.0,2.0,322.9284750000261,1.0,1.0,phase_1,,,,,,,,,,,,,yellow,triangle
67.0,1.0,0.5,0.0,1.0,1.0,391.7251619998296,1.0,1.0,phase_1,,,,,,,,,,,,,gray,circle
0.0,7.0,0.0,1.0,3.0,3.0,347.6930619999621,1.0,1.0,phase_1,,,,,,,,,,,,,green,diamond
46.0,5.0,0.5,1.0,1.0,1.0,394.5656769999459,1.0,1.0,phase_1,,,,,,,,,,,,,magenta,I
0.0,7.0,0.0,1.0,3.0,3.0,325.0475049999295,1.0,1.0,phase_1,,,,,,,,,,,,,green,diamond
0.0,4.0,0.0,0.0,1.0,1.0,370.1520719998825,1.0,1.0,phase_1,,,,,,,,,,,,,white,hexagon
419.0,4.0,4.0,0.0,2.0,2.0,313.6009160000412,1.0,1.0,phase_1,,,,,,,,,,,,,white,hexagon
183.0,7.0,2.0,1.0,1.0,1.0,306.8523140000252,1.0,1.0,phase_1,,,,,,,,,,,,,green,diamond
211.0,7.0,2.0,1.0,4.0,4.0,329.2248000000199,2.0,1.0,phase_1,,,,,,,,,,,,,green,diamond
0.0,1.0,0.0,0.0,4.0,4.0,333.1631870000819,2.0,1.0,phase_1,,,,,,,,,,,,,gray,circle
183.0,3.0,2.0,0.0,4.0,4.0,267.0495180000216,2.0,1.0,phase_1,,,,,,,,,,,,,yellow,triangle
0.0,5.0,0.0,1.0,2.0,2.0,318.0225130001872,2.0,1.0,phase_1,,,,,,,,,,,,,magenta,I
0.0,5.0,0.0,1.0,1.0,1.0,365.8269980001023,2.0,1.0,phase_1,,,,,,,,,,,,,magenta,I
407.0,4.0,4.0,0.0,2.0,2.0,329.5298559999082,2.0,1.0,phase_1,,,,,,,,,,,,,white,hexagon
206.0,3.0,2.0,0.0,4.0,4.0,308.056740999973,2.0,1.0,phase_1,,,,,,,,,,,,,yellow,triangle
0.0,1.0,0.0,0.0,1.0,1.0,409.6817899999223,2.0,1.0,phase_1,,,,,,,,,,,,,gray,circle
76.0,6.0,1.0,1.0,2.0,2.0,367.2254470000098,2.0,1.0,phase_1,,,,,,,,,,,,,blue,cross
38.0,1.0,0.5,0.0,4.0,4.0,381.3336440000512,2.0,1.0,phase_1,,,,,,,,,,,,,gray,circle
183.0,7.0,2.0,1.0,2.0,2.0,346.2715910000042,2.0,1.0,phase_1,,,,,,,,,,,,,green,diamond
114.0,2.0,1.0,0.0,1.0,1.0,438.035015999958,2.0,1.0,phase_1,,,,,,,,,,,,,cyan,square
225.0,7.0,2.0,1.0,1.0,1.0,376.9523880000633,2.0,1.0,phase_1,,,,,,,,,,,,,green,diamond
0.0,2.0,0.0,0.0,3.0,3.0,374.8572079998666,2.0,1.0,phase_1,,,,,,,,,,,,,cyan,square
213.0,3.0,2.0,0.0,4.0,4.0,313.5393259999546,2.0,1.0,phase_1,,,,,,,,,,,,,yellow,triangle
181.0,3.0,2.0,0.0,1.0,1.0,328.7622760001341,2.0,1.0,phase_1,,,,,,,,,,,,,yellow,triangle
414.0,4.0,4.0,0.0,2.0,2.0,430.501748999859,2.0,1.0,phase_1,,,,,,,,,,,,,white,hexagon
85.0,2.0,1.0,0.0,1.0,1.0,355.1205899998422,2.0,1.0,phase_1,,,,,,,,,,,,,cyan,square
425.0,8.0,4.0,1.0,2.0,2.0,342.4080380000305,2.0,1.0,phase_1,,,,,,,,,,,,,orange,flipped triangle
383.0,4.0,4.0,0.0,3.0,3.0,387.1934919998239,2.0,1.0,phase_1,,,,,,,,,,,,,white,hexagon
0.0,8.0,0.0,1.0,4.0,4.0,313.5054809999928,2.0,1.0,phase_1,,,,,,,,,,,,,orange,flipped triangle
388.0,8.0,4.0,1.0,1.0,1.0,366.0826029999953,2.0,1.0,phase_1,,,,,,,,,,,,,orange,flipped triangle
112.0,2.0,1.0,0.0,2.0,2.0,361.3661639999463,2.0,1.0,phase_1,,,,,,,,,,,,,cyan,square
65.0,1.0,0.5,0.0,2.0,2.0,435.754907999808,2.0,1.0,phase_1,,,,,,,,,,,,,gray,circle
33.0,1.0,0.5,0.0,3.0,3.0,482.3291949999202,2.0,1.0,phase_1,,,,,,,,,,,,,gray,circle
36.0,1.0,0.5,0.0,4.0,4.0,280.4076570000688,2.0,1.0,phase_1,,,,,,,,,,,,,gray,circle
117.0,6.0,1.0,1.0,2.0,2.0,348.8115550001112,2.0,1.0,phase_1,,,,,,,,,,,,,blue,cross
0.0,7.0,0.0,1.0,3.0,3.0,720.5324870001277,2.0,1.0,phase_1,,,,,,,,,,,,,green,diamond
418.0,8.0,4.0,1.0,3.0,3.0,324.8400850000053,2.0,1.0,phase_1,,,,,,,,,,,,,orange,flipped triangle
0.0,3.0,0.0,0.0,2.0,2.0,385.0722170000153,2.0,1.0,phase_1,,,,,,,,,,,,,yellow,triangle
218.0,3.0,2.0,0.0,1.0,1.0,374.9959220001528,2.0,1.0,phase_1,,,,,,,,,,,,,yellow,triangle
388.0,8.0,4.0,1.0,3.0,3.0,330.6438150000303,2.0,1.0,phase_1,,,,,,,,,,,,,orange,flipped triangle
0.0,2.0,0.0,0.0,2.0,2.0,341.2768859998323,2.0,1.0,phase_1,,,,,,,,,,,,,cyan,square
63.0,1.0,0.5,0.0,1.0,1.0,365.3331010000329,2.0,1.0,phase_1,,,,,,,,,,,,,gray,circle
0.0,3.0,0.0,0.0,3.0,3.0,370.7705580000038,2.0,1.0,phase_1,,,,,,,,,,,,,yellow,triangle
189.0,3.0,2.0,0.0,1.0,1.0,396.0976459998164,2.0,1.0,phase_1,,,,,,,,,,,,,yellow,triangle
0.0,2.0,0.0,0.0,3.0,3.0,338.783813999953,2.0,1.0,phase_1,,,,,,,,,,,,,cyan,square
81.0,2.0,1.0,0.0,3.0,3.0,461.4431560000867,2.0,1.0,phase_1,,,,,,,,,,,,,cyan,square
399.0,8.0,4.0,1.0,4.0,4.0,316.8307640000876,2.0,1.0,phase_1,,,,,,,,,,,,,orange,flipped triangle
197.0,3.0,2.0,0.0,1.0,1.0,377.566287000036,2.0,1.0,phase_1,,,,,,,,,,,,,yellow,triangle
194.0,7.0,2.0,1.0,1.0,1.0,356.2033849998443,2.0,1.0,phase_1,,,,,,,,,,,,,green,diamond
194.0,3.0,2.0,0.0,2.0,2.0,361.9015360000048,2.0,1.0,phase_1,,,,,,,,,,,,,yellow,triangle
401.0,4.0,4.0,0.0,1.0,1.0,374.7859790000802,2.0,1.0,phase_1,,,,,,,,,,,,,white,hexagon
87.0,2.0,1.0,0.0,4.0,4.0,341.6441490001034,2.0,1.0,phase_1,,,,,,,,,,,,,cyan,square
194.0,7.0,2.0,1.0,1.0,1.0,368.0035060001501,2.0,1.0,phase_1,,,,,,,,,,,,,green,diamond
60.0,1.0,0.5,0.0,1.0,1.0,356.9961749999493,2.0,1.0,phase_1,,,,,,,,,,,,,gray,circle
0.0,4.0,0.0,0.0,2.0,2.0,336.0230529999626,2.0,1.0,phase_1,,,,,,,,,,,,,white,hexagon
0.0,1.0,0.0,0.0,3.0,3.0,372.9118210001161,2.0,1.0,phase_1,,,,,,,,,,,,,gray,circle
381.0,4.0,4.0,0.0,1.0,1.0,352.9340790000788,2.0,1.0,phase_1,,,,,,,,,,,,,white,hexagon
411.0,8.0,4.0,1.0,1.0,1.0,384.5138330000281,2.0,1.0,phase_1,,,,,,,,,,,,,orange,flipped triangle
197.0,3.0,2.0,0.0,3.0,3.0,378.0466919999981,2.0,1.0,phase_1,,,,,,,,,,,,,yellow,triangle
0.0,3.0,0.0,0.0,3.0,3.0,351.0266850000789,2.0,1.0,phase_1,,,,,,,,,,,,,yellow,triangle
0.0,4.0,0.0,0.0,3.0,3.0,364.3736039998657,2.0,1.0,phase_1,,,,,,,,,,,,,white,hexagon
118.0,2.0,1.0,0.0,4.0,4.0,320.6275349998577,2.0,1.0,phase_1,,,,,,,,,,,,,cyan,square
43.0,5.0,0.5,1.0,2.0,2.0,397.8614509999261,2.0,1.0,phase_1,,,,,,,,,,,,,magenta,I
391.0,8.0,4.0,1.0,3.0,3.0,337.8751190000457,2.0,1.0,phase_1,,,,,,,,,,,,,orange,flipped triangle
218.0,3.0,2.0,0.0,4.0,4.0,358.0551800000648,2.0,1.0,phase_1,,,,,,,,,,,,,yellow,triangle
223.0,3.0,2.0,0.0,3.0,3.0,357.4865750001663,2.0,1.0,phase_1,,,,,,,,,,,,,yellow,triangle
106.0,2.0,1.0,0.0,1.0,1.0,384.2804280000109,2.0,1.0,phase_1,,,,,,,,,,,,,cyan,square
84.0,2.0,1.0,0.0,1.0,1.0,357.1716910000759,2.0,1.0,phase_1,,,,,,,,,,,,,cyan,square
85.0,6.0,1.0,1.0,4.0,4.0,292.2738999998273,2.0,1.0,phase_1,,,,,,,,,,,,,blue,cross
94.0,2.0,1.0,0.0,2.0,2.0,337.1908080000594,2.0,1.0,phase_1,,,,,,,,,,,,,cyan,square
377.0,8.0,4.0,1.0,4.0,4.0,330.736990999867,2.0,1.0,phase_1,,,,,,,,,,,,,orange,flipped triangle
204.0,3.0,2.0,0.0,1.0,1.0,296.2915040000098,2.0,1.0,phase_1,,,,,,,,,,,,,yellow,triangle
75.0,6.0,1.0,1.0,3.0,3.0,324.3391439998504,2.0,1.0,phase_1,,,,,,,,,,,,,blue,cross
396.0,8.0,4.0,1.0,4.0,4.0,323.9623040001333,2.0,1.0,phase_1,,,,,,,,,,,,,orange,flipped triangle
0.0,6.0,0.0,1.0,3.0,3.0,304.8520410000037,2.0,1.0,phase_1,,,,,,,,,,,,,blue,cross
409.0,4.0,4.0,0.0,1.0,1.0,380.6801880000421,2.0,1.0,phase_1,,,,,,,,,,,,,white,hexagon
43.0,1.0,0.5,0.0,1.0,1.0,361.3804730000538,2.0,1.0,phase_1,,,,,,,,,,,,,gray,circle
29.0,1.0,0.5,0.0,4.0,4.0,349.9495009998554,2.0,1.0,phase_1,,,,,,,,,,,,,gray,circle
207.0,7.0,2.0,1.0,1.0,1.0,369.5862150000266,2.0,1.0,phase_1,,,,,,,,,,,,,green,diamond
397.0,4.0,4.0,0.0,2.0,2.0,397.5023489999785,2.0,1.0,phase_1,,,,,,,,,,,,,white,hexagon
199.0,3.0,2.0,0.0,4.0,4.0,434.36288099997,2.0,1.0,phase_1,,,,,,,,,,,,,yellow,triangle
76.0,2.0,1.0,0.0,3.0,3.0,352.4298699999235,2.0,1.0,phase_1,,,,,,,,,,,,,cyan,square
390.0,4.0,4.0,0.0,3.0,3.0,323.8895849999608,2.0,1.0,phase_1,,,,,,,,,,,,,white,hexagon
98.0,6.0,1.0,1.0,3.0,3.0,344.2081529999541,2.0,1.0,phase_1,,,,,,,,,,,,,blue,cross
85.0,2.0,1.0,0.0,4.0,4.0,333.2967809999445,2.0,1.0,phase_1,,,,,,,,,,,,,cyan,square
389.0,8.0,4.0,1.0,2.0,2.0,354.1609979999975,2.0,1.0,phase_1,,,,,,,,,,,,,orange,flipped triangle
38.0,5.0,0.5,1.0,3.0,3.0,359.1593319999902,2.0,1.0,phase_1,,,,,,,,,,,,,magenta,I
177.0,3.0,2.0,0.0,2.0,2.0,330.1255580001907,2.0,1.0,phase_1,,,,,,,,,,,,,yellow,triangle
221.0,3.0,2.0,0.0,2.0,2.0,322.0691779999924,2.0,1.0,phase_1,,,,,,,,,,,,,yellow,triangle
407.0,8.0,4.0,1.0,1.0,1.0,343.3401610000146,2.0,1.0,phase_1,,,,,,,,,,,,,orange,flipped triangle
0.0,4.0,0.0,0.0,4.0,4.0,328.7021080000158,2.0,1.0,phase_1,,,,,,,,,,,,,white,hexagon
42.0,5.0,0.5,1.0,4.0,4.0,332.6767539999764,2.0,1.0,phase_1,,,,,,,,,,,,,magenta,I
376.0,8.0,4.0,1.0,4.0,4.0,323.1786589999501,2.0,1.0,phase_1,,,,,,,,,,,,,orange,flipped triangle
30.0,5.0,0.5,1.0,4.0,4.0,297.3123290000785,2.0,1.0,phase_1,,,,,,,,,,,,,magenta,I
203.0,3.0,2.0,0.0,3.0,3.0,395.0121039999885,2.0,1.0,phase_1,,,,,,,,,,,,,yellow,triangle
207.0,3.0,2.0,0.0,2.0,2.0,327.7868129998751,2.0,1.0,phase_1,,,,,,,,,,,,,yellow,triangle
0.0,7.0,0.0,1.0,3.0,3.0,351.077006000196,2.0,1.0,phase_1,,,,,,,,,,,,,green,diamond
225.0,7.0,2.0,1.0,4.0,4.0,363.5855689999516,2.0,1.0,phase_1,,,,,,,,,,,,,green,diamond
91.0,6.0,1.0,1.0,4.0,4.0,401.1501640000006,2.0,1.0,phase_1,,,,,,,,,,,,,blue,cross
397.0,8.0,4.0,1.0,3.0,3.0,355.7362950000424,2.0,1.0,phase_1,,,,,,,,,,,,,orange,flipped triangle
38.0,5.0,0.5,1.0,2.0,2.0,375.9844730000168,2.0,1.0,phase_1,,,,,,,,,,,,,magenta,I
43.0,1.0,0.5,0.0,3.0,3.0,391.305488999933,2.0,1.0,phase_1,,,,,,,,,,,,,gray,circle
74.0,5.0,0.5,1.0,2.0,2.0,376.5820319999875,2.0,1.0,phase_1,,,,,,,,,,,,,magenta,I
105.0,6.0,1.0,1.0,2.0,2.0,382.1273920000294,2.0,1.0,phase_1,,,,,,,,,,,,,blue,cross
179.0,7.0,2.0,1.0,2.0,2.0,396.5610319999086,2.0,1.0,phase_1,,,,,,,,,,,,,green,diamond
406.0,4.0,4.0,0.0,1.0,1.0,369.1107600000123,2.0,1.0,phase_1,,,,,,,,,,,,,white,hexagon
189.0,3.0,2.0,0.0,1.0,1.0,381.3982980000219,2.0,1.0,phase_1,,,,,,,,,,,,,yellow,triangle
177.0,3.0,2.0,0.0,2.0,2.0,377.1179739999297,2.0,1.0,phase_1,,,,,,,,,,,,,yellow,triangle
84.0,2.0,1.0,0.0,2.0,2.0,303.7907589998667,3.0,1.0,phase_1,,,,,,,,,,,,,cyan,square
0.0,6.0,0.0,1.0,3.0,3.0,315.9756879999804,3.0,1.0,phase_1,,,,,,,,,,,,,blue,cross
41.0,5.0,0.5,1.0,1.0,1.0,286.6077619999032,3.0,1.0,phase_1,,,,,,,,,,,,,magenta,I
183.0,7.0,2.0,1.0,1.0,1.0,331.8080369999734,3.0,1.0,phase_1,,,,,,,,,,,,,green,diamond
181.0,7.0,2.0,1.0,3.0,3.0,298.0769899997995,3.0,1.0,phase_1,,,,,,,,,,,,,green,diamond
114.0,6.0,1.0,1.0,2.0,2.0,348.513179000065,3.0,1.0,phase_1,,,,,,,,,,,,,blue,cross
397.0,8.0,4.0,1.0,3.0,3.0,323.9887090001048,3.0,1.0,phase_1,,,,,,,,,,,,,orange,flipped triangle
119.0,2.0,1.0,0.0,1.0,1.0,310.323353000058,3.0,1.0,phase_1,,,,,,,,,,,,,cyan,square
381.0,8.0,4.0,1.0,2.0,2.0,341.5213020000465,3.0,1.0,phase_1,,,,,,,,,,,,,orange,flipped triangle
203.0,7.0,2.0,1.0,4.0,4.0,319.2067079999106,3.0,1.0,phase_1,,,,,,,,,,,,,green,diamond
105.0,6.0,1.0,1.0,3.0,3.0,325.8331459999226,3.0,1.0,phase_1,,,,,,,,,,,,,blue,cross
46.0,1.0,0.5,0.0,4.0,4.0,316.3838860000396,3.0,1.0,phase_1,,,,,,,,,,,,,gray,circle
400.0,8.0,4.0,1.0,1.0,1.0,341.1662900000465,3.0,1.0,phase_1,,,,,,,,,,,,,orange,flipped triangle
54.0,1.0,0.5,0.0,3.0,3.0,348.255268999992,3.0,1.0,phase_1,,,,,,,,,,,,,gray,circle
177.0,7.0,2.0,1.0,3.0,3.0,329.8808720001034,3.0,1.0,phase_1,,,,,,,,,,,,,green,diamond
423.0,8.0,4.0,1.0,1.0,1.0,317.0599919999404,3.0,1.0,phase_1,,,,,,,,,,,,,orange,flipped triangle
0.0,2.0,0.0,0.0,3.0,3.0,287.8116560000308,3.0,1.0,phase_1,,,,,,,,,,,,,cyan,square
396.0,4.0,4.0,0.0,1.0,1.0,328.4469320001335,3.0,1.0,phase_1,,,,,,,,,,,,,white,hexagon
183.0,3.0,2.0,0.0,3.0,3.0,333.3869880000293,3.0,1.0,phase_1,,,,,,,,,,,,,yellow,triangle
388.0,4.0,4.0,0.0,3.0,3.0,313.2192800001121,3.0,1.0,phase_1,,,,,,,,,,,,,white,hexagon
199.0,3.0,2.0,0.0,4.0,4.0,251.21566600000727,3.0,1.0,phase_1,,,,,,,,,,,,,yellow,triangle
59.0,5.0,0.5,1.0,3.0,3.0,303.676810999832,3.0,1.0,phase_1,,,,,,,,,,,,,magenta,I
70.0,5.0,0.5,1.0,1.0,1.0,333.0341079999925,3.0,1.0,phase_1,,,,,,,,,,,,,magenta,I
377.0,4.0,4.0,0.0,2.0,2.0,376.432406000049,3.0,1.0,phase_1,,,,,,,,,,,,,white,hexagon
0.0,4.0,0.0,0.0,1.0,1.0,926.5156050000768,3.0,1.0,phase_1,,,,,,,,,,,,,white,hexagon
72.0,1.0,0.5,0.0,2.0,2.0,356.2738139999055,3.0,1.0,phase_1,,,,,,,,,,,,,gray,circle
206.0,7.0,2.0,1.0,2.0,2.0,368.4605529999771,3.0,1.0,phase_1,,,,,,,,,,,,,green,diamond
102.0,2.0,1.0,0.0,1.0,1.0,317.772001999856,3.0,1.0,phase_1,,,,,,,,,,,,,cyan,square
48.0,5.0,0.5,1.0,1.0,1.0,337.5940710000122,3.0,1.0,phase_1,,,,,,,,,,,,,magenta,I
94.0,6.0,1.0,1.0,4.0,4.0,343.4789779998937,3.0,1.0,phase_1,,,,,,,,,,,,,blue,cross
76.0,2.0,1.0,0.0,2.0,2.0,349.4768589998784,3.0,1.0,phase_1,,,,,,,,,,,,,cyan,square
379.0,8.0,4.0,1.0,2.0,2.0,302.286143000174,3.0,1.0,phase_1,,,,,,,,,,,,,orange,flipped triangle
0.0,3.0,0.0,0.0,2.0,2.0,323.5901580001155,3.0,1.0,phase_1,,,,,,,,,,,,,yellow,triangle
203.0,7.0,2.0,1.0,1.0,1.0,271.7928459999257,3.0,1.0,phase_1,,,,,,,,,,,,,green,diamond
48.0,5.0,0.5,1.0,1.0,1.0,335.4093359998842,3.0,1.0,phase_1,,,,,,,,,,,,,magenta,I
204.0,7.0,2.0,1.0,3.0,3.0,313.0836190000536,3.0,1.0,phase_1,,,,,,,,,,,,,green,diamond
0.0,4.0,0.0,0.0,3.0,3.0,367.6610340000934,3.0,1.0,phase_1,,,,,,,,,,,,,white,hexagon
189.0,7.0,2.0,1.0,2.0,2.0,325.2846000000318,3.0,1.0,phase_1,,,,,,,,,,,,,green,diamond
403.0,8.0,4.0,1.0,2.0,2.0,328.825641000094,3.0,1.0,phase_1,,,,,,,,,,,,,orange,flipped triangle
0.0,8.0,0.0,1.0,2.0,2.0,341.3503209999362,3.0,1.0,phase_1,,,,,,,,,,,,,orange,flipped triangle
59.0,5.0,0.5,1.0,4.0,4.0,306.1046140001053,3.0,1.0,phase_1,,,,,,,,,,,,,magenta,I
409.0,8.0,4.0,1.0,4.0,4.0,255.04932100011501,3.0,1.0,phase_1,,,,,,,,,,,,,orange,flipped triangle
409.0,4.0,4.0,0.0,2.0,2.0,299.1833070000211,3.0,1.0,phase_1,,,,,,,,,,,,,white,hexagon
118.0,6.0,1.0,1.0,1.0,1.0,353.3833690000847,3.0,1.0,phase_1,,,,,,,,,,,,,blue,cross
92.0,2.0,1.0,0.0,3.0,3.0,310.23455100012137,3.0,1.0,phase_1,,,,,,,,,,,,,cyan,square
0.0,1.0,0.0,0.0,2.0,2.0,329.2761110001265,3.0,1.0,phase_1,,,,,,,,,,,,,gray,circle
394.0,4.0,4.0,0.0,2.0,2.0,301.2303200000588,3.0,1.0,phase_1,,,,,,,,,,,,,white,hexagon
225.0,3.0,2.0,0.0,3.0,3.0,324.7488929998781,3.0,1.0,phase_1,,,,,,,,,,,,,yellow,triangle
187.0,7.0,2.0,1.0,4.0,4.0,330.256769000016,3.0,1.0,phase_1,,,,,,,,,,,,,green,diamond
71.0,5.0,0.5,1.0,2.0,2.0,316.4780780000455,3.0,1.0,phase_1,,,,,,,,,,,,,magenta,I
48.0,1.0,0.5,0.0,2.0,2.0,322.4979310000435,3.0,1.0,phase_1,,,,,,,,,,,,,gray,circle
418.0,4.0,4.0,0.0,3.0,3.0,340.5427570000938,3.0,1.0,phase_1,,,,,,,,,,,,,white,hexagon
73.0,1.0,0.5,0.0,2.0,2.0,328.749542999958,3.0,1.0,phase_1,,,,,,,,,,,,,gray,circle
60.0,5.0,0.5,1.0,1.0,1.0,382.4802470001032,3.0,1.0,phase_1,,,,,,,,,,,,,magenta,I
104.0,6.0,1.0,1.0,1.0,1.0,324.8072950000278,3.0,1.0,phase_1,,,,,,,,,,,,,blue,cross
53.0,1.0,0.5,0.0,2.0,2.0,327.8537319999941,3.0,1.0,phase_1,,,,,,,,,,,,,gray,circle
41.0,5.0,0.5,1.0,1.0,1.0,301.2270950000584,3.0,1.0,phase_1,,,,,,,,,,,,,magenta,I
32.0,5.0,0.5,1.0,2.0,2.0,279.9086850000094,3.0,1.0,phase_1,,,,,,,,,,,,,magenta,I
401.0,8.0,4.0,1.0,3.0,3.0,348.6631089999719,3.0,1.0,phase_1,,,,,,,,,,,,,orange,flipped triangle
91.0,2.0,1.0,0.0,4.0,4.0,332.389436999847,3.0,1.0,phase_1,,,,,,,,,,,,,cyan,square
0.0,4.0,0.0,0.0,3.0,3.0,321.7238030001681,3.0,1.0,phase_1,,,,,,,,,,,,,white,hexagon
0.0,8.0,0.0,1.0,1.0,1.0,349.2924219999622,3.0,1.0,phase_1,,,,,,,,,,,,,orange,flipped triangle
92.0,2.0,1.0,0.0,1.0,1.0,264.5043159998295,3.0,1.0,phase_1,,,,,,,,,,,,,cyan,square
196.0,7.0,2.0,1.0,2.0,2.0,336.6186640000705,3.0,2.0,phase_1,,,,,,,,,,,,,green,diamond
93.0,2.0,1.0,0.0,4.0,4.0,319.8647490000894,3.0,1.0,phase_1,,,,,,,,,,,,,cyan,square
117.0,2.0,1.0,0.0,1.0,1.0,317.4205109999093,3.0,1.0,phase_1,,,,,,,,,,,,,cyan,square
0.0,1.0,0.0,0.0,3.0,3.0,338.0617350001103,3.0,1.0,phase_1,,,,,,,,,,,,,gray,circle
0.0,2.0,0.0,0.0,4.0,4.0,332.5701320000007,3.0,1.0,phase_1,,,,,,,,,,,,,cyan,square
0.0,3.0,0.0,0.0,3.0,3.0,280.6620730000304,3.0,1.0,phase_1,,,,,,,,,,,,,yellow,triangle
196.0,3.0,2.0,0.0,3.0,3.0,328.2091350001792,3.0,1.0,phase_1,,,,,,,,,,,,,yellow,triangle
29.0,5.0,0.5,1.0,3.0,3.0,316.8058300000211,3.0,1.0,phase_1,,,,,,,,,,,,,magenta,I
206.0,7.0,2.0,1.0,4.0,4.0,304.5404520000829,3.0,1.0,phase_1,,,,,,,,,,,,,green,diamond
205.0,3.0,2.0,0.0,3.0,3.0,300.2410439999039,3.0,1.0,phase_1,,,,,,,,,,,,,yellow,triangle
37.0,5.0,0.5,1.0,4.0,4.0,328.5380709999117,3.0,1.0,phase_1,,,,,,,,,,,,,magenta,I
125.0,2.0,1.0,0.0,4.0,4.0,325.8154630000263,3.0,1.0,phase_1,,,,,,,,,,,,,cyan,square
416.0,4.0,4.0,0.0,3.0,3.0,317.3684380001305,3.0,1.0,phase_1,,,,,,,,,,,,,white,hexagon
87.0,6.0,1.0,1.0,1.0,1.0,326.4667900000404,3.0,1.0,phase_1,,,,,,,,,,,,,blue,cross
111.0,2.0,1.0,0.0,2.0,2.0,293.6350239999683,3.0,1.0,phase_1,,,,,,,,,,,,,cyan,square
112.0,6.0,1.0,1.0,3.0,3.0,264.2347149999295,3.0,1.0,phase_1,,,,,,,,,,,,,blue,cross
65.0,5.0,0.5,1.0,3.0,3.0,343.2659430000058,3.0,1.0,phase_1,,,,,,,,,,,,,magenta,I
41.0,1.0,0.5,0.0,1.0,1.0,353.6685009999019,3.0,1.0,phase_1,,,,,,,,,,,,,gray,circle
0.0,4.0,0.0,0.0,2.0,2.0,296.8023680000442,3.0,1.0,phase_1,,,,,,,,,,,,,white,hexagon
405.0,8.0,4.0,1.0,1.0,1.0,402.4097189999338,3.0,1.0,phase_1,,,,,,,,,,,,,orange,flipped triangle
376.0,8.0,4.0,1.0,2.0,2.0,313.0793790001007,3.0,1.0,phase_1,,,,,,,,,,,,,orange,flipped triangle
29.0,5.0,0.5,1.0,2.0,2.0,374.2878819998623,3.0,1.0,phase_1,,,,,,,,,,,,,magenta,I
411.0,4.0,4.0,0.0,3.0,3.0,336.6291049997016,3.0,1.0,phase_1,,,,,,,,,,,,,white,hexagon
425.0,4.0,4.0,0.0,4.0,4.0,348.8284229997589,3.0,1.0,phase_1,,,,,,,,,,,,,white,hexagon
204.0,3.0,2.0,0.0,3.0,3.0,354.9167639998813,3.0,1.0,phase_1,,,,,,,,,,,,,yellow,triangle
0.0,8.0,0.0,1.0,1.0,1.0,479.2299599998841,3.0,1.0,phase_1,,,,,,,,,,,,,orange,flipped triangle
105.0,2.0,1.0,0.0,4.0,4.0,342.3485839998648,3.0,1.0,phase_1,,,,,,,,,,,,,cyan,square
0.0,8.0,0.0,1.0,4.0,4.0,321.6221129996484,3.0,1.0,phase_1,,,,,,,,,,,,,orange,flipped triangle
84.0,6.0,1.0,1.0,3.0,3.0,333.9919899999586,3.0,1.0,phase_1,,,,,,,,,,,,,blue,cross
41.0,1.0,0.5,0.0,1.0,1.0,345.236388000103,3.0,1.0,phase_1,,,,,,,,,,,,,gray,circle
199.0,7.0,2.0,1.0,3.0,3.0,385.2918190000309,3.0,1.0,phase_1,,,,,,,,,,,,,green,diamond
81.0,6.0,1.0,1.0,1.0,1.0,363.7464010002986,3.0,1.0,phase_1,,,,,,,,,,,,,blue,cross
0.0,7.0,0.0,1.0,1.0,1.0,393.3530260001134,3.0,1.0,phase_1,,,,,,,,,,,,,green,diamond
104.0,2.0,1.0,0.0,1.0,1.0,324.0009289997942,3.0,1.0,phase_1,,,,,,,,,,,,,cyan,square
402.0,8.0,4.0,1.0,2.0,2.0,296.2343280000823,3.0,1.0,phase_1,,,,,,,,,,,,,orange,flipped triangle
110.0,6.0,1.0,1.0,1.0,1.0,317.6121919996149,3.0,1.0,phase_1,,,,,,,,,,,,,blue,cross
208.0,7.0,2.0,1.0,3.0,3.0,338.4128050001891,3.0,1.0,phase_1,,,,,,,,,,,,,green,diamond
376.0,4.0,4.0,0.0,4.0,4.0,304.0401909997854,4.0,1.0,phase_1,,,,,,,,,,,,,white,hexagon
393.0,4.0,4.0,0.0,1.0,1.0,315.7333949998246,4.0,1.0,phase_1,,,,,,,,,,,,,white,hexagon
383.0,8.0,4.0,1.0,3.0,3.0,320.7996629998888,4.0,1.0,phase_1,,,,,,,,,,,,,orange,flipped triangle
35.0,1.0,0.5,0.0,4.0,4.0,277.4645450003845,4.0,1.0,phase_1,,,,,,,,,,,,,gray,circle
0.0,6.0,0.0,1.0,1.0,1.0,311.7001909999999,4.0,1.0,phase_1,,,,,,,,,,,,,blue,cross
72.0,1.0,0.5,0.0,4.0,4.0,349.0809339996303,4.0,1.0,phase_1,,,,,,,,,,,,,gray,circle
122.0,6.0,1.0,1.0,4.0,4.0,325.6280539999352,4.0,1.0,phase_1,,,,,,,,,,,,,blue,cross
124.0,6.0,1.0,1.0,3.0,3.0,336.9439899997815,4.0,1.0,phase_1,,,,,,,,,,,,,blue,cross
197.0,7.0,2.0,1.0,1.0,1.0,316.3610950000475,4.0,1.0,phase_1,,,,,,,,,,,,,green,diamond
190.0,7.0,2.0,1.0,2.0,2.0,376.4721739999004,4.0,1.0,phase_1,,,,,,,,,,,,,green,diamond
0.0,5.0,0.0,1.0,1.0,1.0,452.0231189999322,4.0,1.0,phase_1,,,,,,,,,,,,,magenta,I
218.0,7.0,2.0,1.0,3.0,3.0,338.5204389996943,4.0,1.0,phase_1,,,,,,,,,,,,,green,diamond
199.0,7.0,2.0,1.0,2.0,2.0,312.1432130001267,4.0,1.0,phase_1,,,,,,,,,,,,,green,diamond
0.0,5.0,0.0,1.0,1.0,1.0,309.229540999695,4.0,1.0,phase_1,,,,,,,,,,,,,magenta,I
73.0,5.0,0.5,1.0,3.0,3.0,306.01425799977727,4.0,1.0,phase_1,,,,,,,,,,,,,magenta,I
28.0,5.0,0.5,1.0,4.0,4.0,430.4574679999859,4.0,1.0,phase_1,,,,,,,,,,,,,magenta,I
29.0,1.0,0.5,0.0,1.0,1.0,345.8757150001474,4.0,1.0,phase_1,,,,,,,,,,,,,gray,circle
0.0,2.0,0.0,0.0,2.0,2.0,332.3776869997346,4.0,1.0,phase_1,,,,,,,,,,,,,cyan,square
193.0,3.0,2.0,0.0,2.0,2.0,330.1963839999189,4.0,1.0,phase_1,,,,,,,,,,,,,yellow,triangle
407.0,8.0,4.0,1.0,2.0,2.0,318.2478270000501,4.0,1.0,phase_1,,,,,,,,,,,,,orange,flipped triangle
0.0,6.0,0.0,1.0,1.0,1.0,331.4529100002801,4.0,1.0,phase_1,,,,,,,,,,,,,blue,cross
0.0,1.0,0.0,0.0,2.0,2.0,360.0763949998509,4.0,1.0,phase_1,,,,,,,,,,,,,gray,circle
55.0,1.0,0.5,0.0,2.0,2.0,324.0124200001446,4.0,1.0,phase_1,,,,,,,,,,,,,gray,circle
110.0,2.0,1.0,0.0,2.0,2.0,320.5490390000705,4.0,1.0,phase_1,,,,,,,,,,,,,cyan,square
393.0,8.0,4.0,1.0,1.0,1.0,336.5342199999759,4.0,1.0,phase_1,,,,,,,,,,,,,orange,flipped triangle
93.0,6.0,1.0,1.0,1.0,1.0,323.8278759999957,4.0,1.0,phase_1,,,,,,,,,,,,,blue,cross
119.0,6.0,1.0,1.0,4.0,4.0,321.7180529995858,4.0,1.0,phase_1,,,,,,,,,,,,,blue,cross
187.0,3.0,2.0,0.0,4.0,4.0,341.7803389997971,4.0,1.0,phase_1,,,,,,,,,,,,,yellow,triangle
218.0,7.0,2.0,1.0,4.0,4.0,393.7237019999884,4.0,1.0,phase_1,,,,,,,,,,,,,green,diamond
407.0,4.0,4.0,0.0,4.0,4.0,374.888858000304,4.0,1.0,phase_1,,,,,,,,,,,,,white,hexagon
0.0,8.0,0.0,1.0,1.0,1.0,409.9764689999574,4.0,1.0,phase_1,,,,,,,,,,,,,orange,flipped triangle
419.0,8.0,4.0,1.0,4.0,4.0,359.8177099997883,4.0,1.0,phase_1,,,,,,,,,,,,,orange,flipped triangle
0.0,7.0,0.0,1.0,2.0,2.0,333.1399730000157,4.0,1.0,phase_1,,,,,,,,,,,,,green,diamond
203.0,3.0,2.0,0.0,1.0,1.0,418.7391089999437,4.0,1.0,phase_1,,,,,,,,,,,,,yellow,triangle
376.0,4.0,4.0,0.0,4.0,4.0,324.8828680002589,4.0,1.0,phase_1,,,,,,,,,,,,,white,hexagon
389.0,4.0,4.0,0.0,3.0,3.0,404.7697420000986,4.0,1.0,phase_1,,,,,,,,,,,,,white,hexagon
394.0,8.0,4.0,1.0,1.0,1.0,376.8187979999311,4.0,1.0,phase_1,,,,,,,,,,,,,orange,flipped triangle
71.0,1.0,0.5,0.0,3.0,3.0,354.4441110002481,4.0,1.0,phase_1,,,,,,,,,,,,,gray,circle
400.0,4.0,4.0,0.0,4.0,4.0,307.1096090002356,4.0,1.0,phase_1,,,,,,,,,,,,,white,hexagon
104.0,6.0,1.0,1.0,2.0,2.0,356.5666609997606,4.0,1.0,phase_1,,,,,,,,,,,,,blue,cross
0.0,8.0,0.0,1.0,3.0,3.0,348.9587869999013,4.0,1.0,phase_1,,,,,,,,,,,,,orange,flipped triangle
0.0,1.0,0.0,0.0,3.0,3.0,350.91002199988,4.0,1.0,phase_1,,,,,,,,,,,,,gray,circle
399.0,4.0,4.0,0.0,4.0,4.0,388.8827119999405,4.0,1.0,phase_1,,,,,,,,,,,,,white,hexagon
35.0,5.0,0.5,1.0,3.0,3.0,352.5445380000747,4.0,1.0,phase_1,,,,,,,,,,,,,magenta,I
60.0,1.0,0.5,0.0,1.0,1.0,340.1692759998695,4.0,1.0,phase_1,,,,,,,,,,,,,gray,circle
54.0,5.0,0.5,1.0,1.0,1.0,352.1699889997762,4.0,1.0,phase_1,,,,,,,,,,,,,magenta,I
218.0,7.0,2.0,1.0,3.0,3.0,300.9159359999103,4.0,1.0,phase_1,,,,,,,,,,,,,green,diamond
401.0,8.0,4.0,1.0,1.0,1.0,380.6775340003696,4.0,1.0,phase_1,,,,,,,,,,,,,orange,flipped triangle
213.0,7.0,2.0,1.0,3.0,3.0,362.168025000301,4.0,1.0,phase_1,,,,,,,,,,,,,green,diamond
0.0,6.0,0.0,1.0,1.0,1.0,306.5908570001738,4.0,1.0,phase_1,,,,,,,,,,,,,blue,cross
37.0,1.0,0.5,0.0,3.0,3.0,320.9559249999074,4.0,1.0,phase_1,,,,,,,,,,,,,gray,circle
28.0,1.0,0.5,0.0,3.0,3.0,320.338074999654,4.0,1.0,phase_1,,,,,,,,,,,,,gray,circle
0.0,8.0,0.0,1.0,3.0,3.0,336.7905750001227,4.0,1.0,phase_1,,,,,,,,,,,,,orange,flipped triangle
0.0,1.0,0.0,0.0,3.0,3.0,317.4101909999081,4.0,1.0,phase_1,,,,,,,,,,,,,gray,circle
0.0,6.0,0.0,1.0,3.0,3.0,309.4150160000026,4.0,1.0,phase_1,,,,,,,,,,,,,blue,cross
106.0,6.0,1.0,1.0,3.0,3.0,296.3514880002549,4.0,1.0,phase_1,,,,,,,,,,,,,blue,cross
179.0,3.0,2.0,0.0,1.0,1.0,315.918906999741,4.0,1.0,phase_1,,,,,,,,,,,,,yellow,triangle
0.0,2.0,0.0,0.0,1.0,1.0,280.1599340000393,4.0,1.0,phase_1,,,,,,,,,,,,,cyan,square
204.0,3.0,2.0,0.0,3.0,3.0,333.9720700000725,4.0,1.0,phase_1,,,,,,,,,,,,,yellow,triangle
0.0,3.0,0.0,0.0,4.0,4.0,458.5599129995898,4.0,1.0,phase_1,,,,,,,,,,,,,yellow,triangle
204.0,7.0,2.0,1.0,3.0,3.0,337.8780879997975,4.0,1.0,phase_1,,,,,,,,,,,,,green,diamond
75.0,2.0,1.0,0.0,1.0,1.0,358.1308309999258,4.0,1.0,phase_1,,,,,,,,,,,,,cyan,square
108.0,6.0,1.0,1.0,2.0,2.0,313.7329619999036,4.0,1.0,phase_1,,,,,,,,,,,,,blue,cross
124.0,2.0,1.0,0.0,2.0,2.0,292.4385759997676,4.0,1.0,phase_1,,,,,,,,,,,,,cyan,square
0.0,3.0,0.0,0.0,4.0,4.0,361.3793189997523,4.0,1.0,phase_1,,,,,,,,,,,,,yellow,triangle
183.0,3.0,2.0,0.0,1.0,1.0,350.5266499996651,4.0,1.0,phase_1,,,,,,,,,,,,,yellow,triangle
220.0,7.0,2.0,1.0,2.0,2.0,267.3385929997494,4.0,1.0,phase_1,,,,,,,,,,,,,green,diamond
193.0,7.0,2.0,1.0,1.0,1.0,330.5234409999684,4.0,1.0,phase_1,,,,,,,,,,,,,green,diamond
43.0,5.0,0.5,1.0,4.0,4.0,292.3322349997761,4.0,1.0,phase_1,,,,,,,,,,,,,magenta,I
76.0,6.0,1.0,1.0,4.0,4.0,337.3956269997507,4.0,1.0,phase_1,,,,,,,,,,,,,blue,cross
72.0,5.0,0.5,1.0,2.0,2.0,390.0424829998883,4.0,1.0,phase_1,,,,,,,,,,,,,magenta,I
0.0,3.0,0.0,0.0,1.0,1.0,316.8808760001411,4.0,1.0,phase_1,,,,,,,,,,,,,yellow,triangle
55.0,5.0,0.5,1.0,2.0,2.0,337.7475199999935,4.0,1.0,phase_1,,,,,,,,,,,,,magenta,I
0.0,7.0,0.0,1.0,2.0,2.0,315.4958800000713,4.0,1.0,phase_1,,,,,,,,,,,,,green,diamond
0.0,5.0,0.0,1.0,3.0,3.0,303.8233470001614,4.0,1.0,phase_1,,,,,,,,,,,,,magenta,I
33.0,5.0,0.5,1.0,2.0,2.0,276.2237970000569,4.0,1.0,phase_1,,,,,,,,,,,,,magenta,I
59.0,1.0,0.5,0.0,4.0,4.0,339.6369870001763,4.0,1.0,phase_1,,,,,,,,,,,,,gray,circle
414.0,8.0,4.0,1.0,3.0,3.0,348.443282000062,4.0,2.0,phase_1,,,,,,,,,,,,,orange,flipped triangle
0.0,4.0,0.0,0.0,4.0,4.0,314.3863289997171,4.0,1.0,phase_1,,,,,,,,,,,,,white,hexagon
416.0,8.0,4.0,1.0,3.0,3.0,342.5347519996649,4.0,1.0,phase_1,,,,,,,,,,,,,orange,flipped triangle
405.0,4.0,4.0,0.0,2.0,2.0,378.774863000217,4.0,1.0,phase_1,,,,,,,,,,,,,white,hexagon
56.0,5.0,0.5,1.0,3.0,3.0,357.3869349997949,4.0,1.0,phase_1,,,,,,,,,,,,,magenta,I
108.0,2.0,1.0,0.0,3.0,3.0,341.4995620000809,4.0,1.0,phase_1,,,,,,,,,,,,,cyan,square
96.0,6.0,1.0,1.0,1.0,1.0,354.860670999642,4.0,1.0,phase_1,,,,,,,,,,,,,blue,cross
53.0,5.0,0.5,1.0,4.0,4.0,308.8780510001925,4.0,1.0,phase_1,,,,,,,,,,,,,magenta,I
100.0,6.0,1.0,1.0,3.0,3.0,329.3577429999459,4.0,1.0,phase_1,,,,,,,,,,,,,blue,cross
33.0,1.0,0.5,0.0,1.0,1.0,316.9510700004139,4.0,1.0,phase_1,,,,,,,,,,,,,gray,circle
122.0,2.0,1.0,0.0,4.0,4.0,345.7319040003312,4.0,1.0,phase_1,,,,,,,,,,,,,cyan,square
110.0,6.0,1.0,1.0,3.0,3.0,311.7342279997501,4.0,1.0,phase_1,,,,,,,,,,,,,blue,cross
96.0,2.0,1.0,0.0,3.0,3.0,308.8938359996973,4.0,1.0,phase_1,,,,,,,,,,,,,cyan,square
110.0,2.0,1.0,0.0,3.0,3.0,311.6900369996074,4.0,1.0,phase_1,,,,,,,,,,,,,cyan,square
409.0,8.0,4.0,1.0,4.0,4.0,333.6211970004115,4.0,1.0,phase_1,,,,,,,,,,,,,orange,flipped triangle
194.0,3.0,2.0,0.0,2.0,2.0,513.4455870002057,4.0,1.0,phase_1,,,,,,,,,,,,,yellow,triangle
377.0,8.0,4.0,1.0,3.0,3.0,329.9415379997299,4.0,1.0,phase_1,,,,,,,,,,,,,orange,flipped triangle
32.0,1.0,0.5,0.0,1.0,1.0,349.5012940002198,4.0,1.0,phase_1,,,,,,,,,,,,,gray,circle
391.0,4.0,4.0,0.0,4.0,4.0,330.6438849999722,4.0,1.0,phase_1,,,,,,,,,,,,,white,hexagon
66.0,5.0,0.5,1.0,1.0,1.0,293.6296039997614,4.0,1.0,phase_1,,,,,,,,,,,,,magenta,I
197.0,7.0,2.0,1.0,2.0,2.0,352.7490940000461,4.0,1.0,phase_1,,,,,,,,,,,,,green,diamond
0.0,5.0,0.0,1.0,3.0,3.0,350.2844429999641,4.0,1.0,phase_1,,,,,,,,,,,,,magenta,I
0.0,5.0,0.0,1.0,4.0,4.0,370.4969549999077,4.0,1.0,phase_1,,,,,,,,,,,,,magenta,I
0.0,1.0,0.5,0.0,6.0,6.0,338.8366139997742,1.0,1.0,phase_2,go,250.0,250.0,1.0,,,,,,,,,gray,circle
0.0,5.0,0.5,1.0,6.0,6.0,386.6794939999636,1.0,1.0,phase_2,go,250.0,250.0,1.0,,,,,,,,,magenta,I
0.0,6.0,1.0,1.0,5.0,5.0,425.1338690000921,1.0,1.0,phase_2,go,250.0,250.0,1.0,,,,,,,,,blue,cross
0.0,1.0,0.5,0.0,5.0,5.0,519.8643409999022,1.0,1.0,phase_2,go,250.0,250.0,1.0,,,,,,,,,gray,circle
0.0,5.0,0.5,1.0,6.0,0.0,0.0,1.0,1.0,phase_2,stop,250.0,250.0,4.0,,,,,,,,,magenta,I
0.0,3.0,2.0,0.0,5.0,5.0,279.536139999891,1.0,1.0,phase_2,go,250.0,300.0,1.0,,,,,,,,,yellow,triangle
0.0,8.0,4.0,1.0,5.0,5.0,356.7745660002401,1.0,1.0,phase_2,stop,250.0,300.0,3.0,,,,,,,,,orange,flipped triangle
0.0,4.0,4.0,0.0,6.0,6.0,318.2465240001875,1.0,1.0,phase_2,go,200.0,300.0,1.0,,,,,,,,,white,hexagon
0.0,2.0,1.0,0.0,5.0,5.0,583.5384580000209,1.0,1.0,phase_2,go,200.0,300.0,1.0,,,,,,,,,cyan,square
0.0,1.0,0.5,0.0,5.0,5.0,541.2483750001229,1.0,1.0,phase_2,go,200.0,300.0,1.0,,,,,,,,,gray,circle
0.0,7.0,2.0,1.0,5.0,0.0,0.0,1.0,1.0,phase_2,stop,200.0,300.0,4.0,,,,,,,,,green,diamond
0.0,6.0,1.0,1.0,5.0,5.0,377.8908330000377,1.0,1.0,phase_2,go,250.0,300.0,1.0,,,,,,,,,blue,cross
0.0,2.0,1.0,0.0,5.0,5.0,538.970172000063,1.0,1.0,phase_2,go,250.0,300.0,1.0,,,,,,,,,cyan,square
0.0,8.0,4.0,1.0,5.0,0.0,0.0,1.0,1.0,phase_2,stop,250.0,300.0,4.0,,,,,,,,,orange,flipped triangle
0.0,2.0,1.0,0.0,5.0,5.0,420.3837610002665,1.0,1.0,phase_2,go,300.0,300.0,1.0,,,,,,,,,cyan,square
0.0,1.0,0.5,0.0,5.0,5.0,416.5852969999832,1.0,1.0,phase_2,go,300.0,300.0,1.0,,,,,,,,,gray,circle
0.0,1.0,0.5,0.0,5.0,5.0,507.6359009999578,1.0,1.0,phase_2,go,300.0,300.0,1.0,,,,,,,,,gray,circle
0.0,6.0,1.0,1.0,5.0,5.0,375.674250999964,1.0,1.0,phase_2,stop,300.0,300.0,3.0,,,,,,,,,blue,cross
0.0,8.0,4.0,1.0,5.0,5.0,305.550741999923,1.0,1.0,phase_2,stop,250.0,300.0,3.0,,,,,,,,,orange,flipped triangle
0.0,2.0,1.0,0.0,5.0,5.0,430.4167400000551,1.0,1.0,phase_2,go,200.0,300.0,1.0,,,,,,,,,cyan,square
0.0,5.0,0.5,1.0,5.0,0.0,0.0,1.0,1.0,phase_2,stop,200.0,300.0,4.0,,,,,,,,,magenta,I
0.0,1.0,0.5,0.0,5.0,5.0,388.4785230002308,1.0,1.0,phase_2,go,250.0,300.0,1.0,,,,,,,,,gray,circle
0.0,2.0,1.0,0.0,6.0,6.0,623.1487920003929,1.0,1.0,phase_2,go,250.0,300.0,1.0,,,,,,,,,cyan,square
0.0,5.0,0.5,1.0,6.0,6.0,479.7134310001638,1.0,1.0,phase_2,go,250.0,300.0,1.0,,,,,,,,,magenta,I
0.0,4.0,4.0,0.0,6.0,6.0,430.830034000337,1.0,1.0,phase_2,go,250.0,300.0,1.0,,,,,,,,,white,hexagon
0.0,7.0,2.0,1.0,6.0,0.0,0.0,1.0,1.0,phase_2,stop,250.0,300.0,4.0,,,,,,,,,green,diamond
0.0,6.0,1.0,1.0,6.0,6.0,477.3429580000083,1.0,1.0,phase_2,stop,250.0,350.0,3.0,,,,,,,,,blue,cross
0.0,7.0,2.0,1.0,6.0,0.0,0.0,1.0,1.0,phase_2,stop,250.0,300.0,4.0,,,,,,,,,green,diamond
0.0,2.0,1.0,0.0,6.0,6.0,505.35718800028917,1.0,1.0,phase_2,go,250.0,350.0,1.0,,,,,,,,,cyan,square
0.0,3.0,2.0,0.0,5.0,5.0,632.3930570001721,1.0,1.0,phase_2,go,250.0,350.0,1.0,,,,,,,,,yellow,triangle
0.0,7.0,2.0,1.0,5.0,5.0,568.4227799997643,1.0,1.0,phase_2,go,250.0,350.0,1.0,,,,,,,,,green,diamond
0.0,7.0,2.0,1.0,6.0,0.0,0.0,1.0,1.0,phase_2,stop,250.0,350.0,4.0,,,,,,,,,green,diamond
0.0,5.0,0.5,1.0,6.0,6.0,473.9583300001868,1.0,1.0,phase_2,stop,250.0,400.0,3.0,,,,,,,,,magenta,I
0.0,2.0,1.0,0.0,5.0,5.0,549.9410709999211,1.0,1.0,phase_2,go,250.0,350.0,1.0,,,,,,,,,cyan,square
0.0,5.0,0.5,1.0,6.0,0.0,0.0,1.0,1.0,phase_2,stop,250.0,350.0,4.0,,,,,,,,,magenta,I
0.0,5.0,0.5,1.0,6.0,0.0,0.0,1.0,1.0,phase_2,stop,250.0,400.0,4.0,,,,,,,,,magenta,I
0.0,5.0,0.5,1.0,5.0,0.0,0.0,2.0,1.0,phase_2,stop,250.0,450.0,4.0,,,,,,,,,magenta,I
0.0,4.0,4.0,0.0,6.0,6.0,440.755722999711,2.0,1.0,phase_2,go,300.0,450.0,1.0,,,,,,,,,white,hexagon
0.0,6.0,1.0,1.0,6.0,6.0,496.4458499998727,2.0,1.0,phase_2,stop,300.0,450.0,3.0,,,,,,,,,blue,cross
0.0,8.0,4.0,1.0,5.0,5.0,409.3445600001359,2.0,1.0,phase_2,stop,300.0,400.0,3.0,,,,,,,,,orange,flipped triangle
0.0,8.0,4.0,1.0,6.0,6.0,476.8856890000279,2.0,1.0,phase_2,stop,250.0,400.0,3.0,,,,,,,,,orange,flipped triangle
0.0,1.0,0.5,0.0,6.0,6.0,662.9031390002638,2.0,1.0,phase_2,go,250.0,350.0,1.0,,,,,,,,,gray,circle
0.0,6.0,1.0,1.0,5.0,5.0,623.2775190001121,2.0,1.0,phase_2,go,250.0,350.0,1.0,,,,,,,,,blue,cross
0.0,5.0,0.5,1.0,5.0,0.0,0.0,2.0,1.0,phase_2,stop,250.0,350.0,4.0,,,,,,,,,magenta,I
0.0,8.0,4.0,1.0,6.0,6.0,540.7519470004445,2.0,1.0,phase_2,go,300.0,350.0,1.0,,,,,,,,,orange,flipped triangle
0.0,6.0,1.0,1.0,6.0,6.0,645.0538610001786,2.0,1.0,phase_2,go,300.0,350.0,1.0,,,,,,,,,blue,cross
0.0,5.0,0.5,1.0,5.0,0.0,0.0,2.0,1.0,phase_2,stop,300.0,350.0,4.0,,,,,,,,,magenta,I
0.0,2.0,1.0,0.0,5.0,5.0,642.2068030001356,2.0,1.0,phase_2,go,350.0,350.0,1.0,,,,,,,,,cyan,square
0.0,4.0,4.0,0.0,5.0,5.0,464.5936090000759,2.0,1.0,phase_2,go,350.0,350.0,1.0,,,,,,,,,white,hexagon
0.0,7.0,2.0,1.0,5.0,0.0,0.0,2.0,1.0,phase_2,stop,350.0,350.0,4.0,,,,,,,,,green,diamond
0.0,4.0,4.0,0.0,6.0,6.0,664.8478769998292,2.0,1.0,phase_2,go,400.0,350.0,1.0,,,,,,,,,white,hexagon
0.0,1.0,0.5,0.0,6.0,6.0,744.7348079999756,2.0,1.0,phase_2,go,400.0,350.0,1.0,,,,,,,,,gray,circle
0.0,7.0,2.0,1.0,5.0,0.0,0.0,2.0,1.0,phase_2,stop,400.0,350.0,4.0,,,,,,,,,green,diamond
0.0,4.0,4.0,0.0,6.0,6.0,625.4662480000661,2.0,1.0,phase_2,go,450.0,350.0,1.0,,,,,,,,,white,hexagon
0.0,8.0,4.0,1.0,6.0,0.0,0.0,2.0,1.0,phase_2,stop,450.0,350.0,4.0,,,,,,,,,orange,flipped triangle
0.0,4.0,4.0,0.0,6.0,6.0,679.7381799997311,2.0,1.0,phase_2,go,450.0,400.0,1.0,,,,,,,,,white,hexagon
0.0,5.0,0.5,1.0,5.0,0.0,0.0,2.0,1.0,phase_2,stop,450.0,400.0,4.0,,,,,,,,,magenta,I
0.0,8.0,4.0,1.0,5.0,5.0,643.935011999929,2.0,1.0,phase_2,go,500.0,400.0,1.0,,,,,,,,,orange,flipped triangle
0.0,3.0,2.0,0.0,5.0,5.0,717.1385169999667,2.0,1.0,phase_2,go,500.0,400.0,1.0,,,,,,,,,yellow,triangle
0.0,6.0,1.0,1.0,6.0,0.0,0.0,2.0,1.0,phase_2,stop,500.0,400.0,4.0,,,,,,,,,blue,cross
0.0,5.0,0.5,1.0,5.0,5.0,660.8535559998927,2.0,1.0,phase_2,stop,500.0,450.0,3.0,,,,,,,,,magenta,I
0.0,1.0,0.5,0.0,6.0,6.0,652.9246089999106,2.0,1.0,phase_2,go,450.0,450.0,1.0,,,,,,,,,gray,circle
0.0,6.0,1.0,1.0,6.0,0.0,0.0,2.0,1.0,phase_2,stop,450.0,450.0,4.0,,,,,,,,,blue,cross
0.0,8.0,4.0,1.0,5.0,0.0,0.0,2.0,1.0,phase_2,stop,450.0,500.0,4.0,,,,,,,,,orange,flipped triangle
0.0,7.0,2.0,1.0,6.0,6.0,703.9832890000071,2.0,1.0,phase_2,go,500.0,500.0,1.0,,,,,,,,,green,diamond
0.0,4.0,4.0,0.0,5.0,5.0,857.2327749998294,2.0,1.0,phase_2,go,500.0,500.0,1.0,,,,,,,,,white,hexagon
0.0,6.0,1.0,1.0,6.0,0.0,0.0,2.0,1.0,phase_2,stop,500.0,500.0,4.0,,,,,,,,,blue,cross
0.0,2.0,1.0,0.0,6.0,6.0,632.7381830001286,2.0,1.0,phase_2,go,500.0,550.0,1.0,,,,,,,,,cyan,square
0.0,6.0,1.0,1.0,6.0,0.0,0.0,2.0,1.0,phase_2,stop,500.0,550.0,4.0,,,,,,,,,blue,cross
0.0,8.0,4.0,1.0,6.0,6.0,718.1087270000717,2.0,1.0,phase_2,stop,500.0,600.0,3.0,,,,,,,,,orange,flipped triangle
0.0,8.0,4.0,1.0,6.0,6.0,816.1500599999272,2.0,1.0,phase_2,go,500.0,550.0,1.0,,,,,,,,,orange,flipped triangle
0.0,3.0,2.0,0.0,5.0,5.0,751.8524430001889,2.0,1.0,phase_2,go,500.0,550.0,1.0,,,,,,,,,yellow,triangle
0.0,3.0,2.0,0.0,6.0,6.0,484.1937309997774,3.0,1.0,phase_2,go,500.0,550.0,1.0,,,,,,,,,yellow,triangle
0.0,8.0,4.0,1.0,5.0,5.0,464.4419559999733,3.0,1.0,phase_2,stop,500.0,550.0,3.0,,,,,,,,,orange,flipped triangle
0.0,7.0,2.0,1.0,6.0,6.0,415.1280710002538,3.0,1.0,phase_2,stop,450.0,550.0,3.0,,,,,,,,,green,diamond
0.0,2.0,1.0,0.0,6.0,6.0,473.5547010000118,3.0,1.0,phase_2,go,450.0,500.0,1.0,,,,,,,,,cyan,square
0.0,4.0,4.0,0.0,6.0,6.0,616.2418590001835,3.0,1.0,phase_2,go,450.0,500.0,1.0,,,,,,,,,white,hexagon
0.0,3.0,2.0,0.0,6.0,6.0,517.1881579999535,3.0,1.0,phase_2,go,450.0,500.0,1.0,,,,,,,,,yellow,triangle
0.0,6.0,1.0,1.0,6.0,6.0,637.5268879996838,3.0,1.0,phase_2,go,450.0,500.0,1.0,,,,,,,,,blue,cross
0.0,5.0,0.5,1.0,5.0,5.0,527.9424850000396,3.0,1.0,phase_2,stop,450.0,500.0,3.0,,,,,,,,,magenta,I
0.0,1.0,0.5,0.0,6.0,6.0,550.5237429997578,3.0,1.0,phase_2,go,400.0,500.0,1.0,,,,,,,,,gray,circle
0.0,8.0,4.0,1.0,6.0,6.0,606.0368329999619,3.0,1.0,phase_2,stop,400.0,500.0,3.0,,,,,,,,,orange,flipped triangle
0.0,3.0,2.0,0.0,5.0,5.0,692.2383729997819,3.0,1.0,phase_2,go,400.0,450.0,1.0,,,,,,,,,yellow,triangle
0.0,1.0,0.5,0.0,5.0,5.0,492.1090889997686,3.0,1.0,phase_2,go,400.0,450.0,1.0,,,,,,,,,gray,circle
0.0,3.0,2.0,0.0,5.0,5.0,481.1810890000743,3.0,1.0,phase_2,go,400.0,450.0,1.0,,,,,,,,,yellow,triangle
0.0,4.0,4.0,0.0,6.0,6.0,466.4349300001049,3.0,1.0,phase_2,go,400.0,450.0,1.0,,,,,,,,,white,hexagon
0.0,6.0,1.0,1.0,6.0,0.0,0.0,3.0,1.0,phase_2,stop,400.0,450.0,4.0,,,,,,,,,blue,cross
0.0,7.0,2.0,1.0,5.0,5.0,503.75091900014013,3.0,1.0,phase_2,stop,400.0,500.0,3.0,,,,,,,,,green,diamond
0.0,7.0,2.0,1.0,5.0,0.0,0.0,3.0,1.0,phase_2,stop,350.0,500.0,4.0,,,,,,,,,green,diamond
0.0,3.0,2.0,0.0,5.0,5.0,602.8078210001695,3.0,1.0,phase_2,go,400.0,500.0,1.0,,,,,,,,,yellow,triangle
0.0,7.0,2.0,1.0,6.0,6.0,473.102856999958,3.0,1.0,phase_2,go,400.0,500.0,1.0,,,,,,,,,green,diamond
0.0,2.0,1.0,0.0,5.0,5.0,392.609278999771,3.0,1.0,phase_2,go,400.0,500.0,1.0,,,,,,,,,cyan,square
0.0,8.0,4.0,1.0,6.0,6.0,383.1241030002275,3.0,1.0,phase_2,stop,400.0,500.0,3.0,,,,,,,,,orange,flipped triangle
0.0,1.0,0.5,0.0,6.0,6.0,276.2803939999685,3.0,1.0,phase_2,go,400.0,450.0,1.0,,,,,,,,,gray,circle
0.0,2.0,1.0,0.0,5.0,5.0,318.6833280001337,3.0,1.0,phase_2,go,400.0,450.0,1.0,,,,,,,,,cyan,square
0.0,3.0,2.0,0.0,5.0,5.0,444.5433620003314,3.0,1.0,phase_2,go,400.0,450.0,1.0,,,,,,,,,yellow,triangle
0.0,4.0,4.0,0.0,5.0,5.0,347.741292000137,3.0,1.0,phase_2,go,400.0,450.0,1.0,,,,,,,,,white,hexagon
0.0,2.0,1.0,0.0,6.0,6.0,341.3838720002786,3.0,1.0,phase_2,go,400.0,450.0,1.0,,,,,,,,,cyan,square
0.0,3.0,2.0,0.0,6.0,6.0,649.853751000137,3.0,1.0,phase_2,go,400.0,450.0,1.0,,,,,,,,,yellow,triangle
0.0,7.0,2.0,1.0,6.0,6.0,473.3551909998823,3.0,1.0,phase_2,stop,400.0,450.0,3.0,,,,,,,,,green,diamond
0.0,6.0,1.0,1.0,6.0,6.0,304.6689109996805,3.0,1.0,phase_2,go,400.0,400.0,1.0,,,,,,,,,blue,cross
0.0,1.0,0.5,0.0,6.0,6.0,504.9972669999079,3.0,1.0,phase_2,go,400.0,400.0,1.0,,,,,,,,,gray,circle
0.0,8.0,4.0,1.0,5.0,5.0,480.7419140001912,3.0,1.0,phase_2,stop,400.0,400.0,3.0,,,,,,,,,orange,flipped triangle
0.0,4.0,4.0,0.0,5.0,5.0,433.57136800023,3.0,1.0,phase_2,go,350.0,400.0,1.0,,,,,,,,,white,hexagon
0.0,2.0,1.0,0.0,5.0,5.0,561.8668289998823,3.0,1.0,phase_2,go,350.0,400.0,1.0,,,,,,,,,cyan,square
0.0,7.0,2.0,1.0,5.0,5.0,488.2270680000147,3.0,1.0,phase_2,go,350.0,400.0,1.0,,,,,,,,,green,diamond
0.0,3.0,2.0,0.0,5.0,5.0,295.4653560000224,3.0,1.0,phase_2,go,350.0,400.0,1.0,,,,,,,,,yellow,triangle
0.0,6.0,1.0,1.0,6.0,6.0,461.5447250002944,3.0,1.0,phase_2,stop,350.0,400.0,3.0,,,,,,,,,blue,cross
0.0,5.0,0.5,1.0,6.0,6.0,623.136612000053,4.0,1.0,phase_2,stop,350.0,350.0,3.0,,,,,,,,,magenta,I
0.0,3.0,2.0,0.0,6.0,6.0,430.5890040000122,4.0,1.0,phase_2,go,350.0,300.0,1.0,,,,,,,,,yellow,triangle
0.0,3.0,2.0,0.0,6.0,6.0,359.7022480003033,4.0,1.0,phase_2,go,350.0,300.0,1.0,,,,,,,,,yellow,triangle
0.0,6.0,1.0,1.0,5.0,5.0,288.9734909999788,4.0,1.0,phase_2,stop,350.0,300.0,3.0,,,,,,,,,blue,cross
0.0,4.0,4.0,0.0,6.0,6.0,367.4046239998461,4.0,1.0,phase_2,go,300.0,300.0,1.0,,,,,,,,,white,hexagon
0.0,2.0,1.0,0.0,5.0,5.0,261.5517939998426,4.0,1.0,phase_2,go,300.0,300.0,1.0,,,,,,,,,cyan,square
0.0,7.0,2.0,1.0,6.0,6.0,284.3358180002724,4.0,1.0,phase_2,go,300.0,300.0,1.0,,,,,,,,,green,diamond
0.0,2.0,1.0,0.0,5.0,5.0,283.2380159998138,4.0,1.0,phase_2,go,300.0,300.0,1.0,,,,,,,,,cyan,square
0.0,4.0,4.0,0.0,5.0,5.0,323.3286280001266,4.0,1.0,phase_2,go,300.0,300.0,1.0,,,,,,,,,white,hexagon
0.0,3.0,2.0,0.0,5.0,5.0,395.657354999912,4.0,1.0,phase_2,go,300.0,300.0,1.0,,,,,,,,,yellow,triangle
0.0,5.0,0.5,1.0,5.0,5.0,320.8114449998902,4.0,1.0,phase_2,stop,300.0,300.0,3.0,,,,,,,,,magenta,I
0.0,4.0,4.0,0.0,6.0,6.0,299.1243869996651,4.0,1.0,phase_2,go,250.0,300.0,1.0,,,,,,,,,white,hexagon
0.0,5.0,0.5,1.0,5.0,5.0,321.4793040001495,4.0,1.0,phase_2,go,250.0,300.0,1.0,,,,,,,,,magenta,I
0.0,3.0,2.0,0.0,5.0,5.0,313.0851010000697,4.0,1.0,phase_2,go,250.0,300.0,1.0,,,,,,,,,yellow,triangle
0.0,7.0,2.0,1.0,5.0,5.0,320.7982720000473,4.0,1.0,phase_2,stop,250.0,300.0,3.0,,,,,,,,,green,diamond
0.0,8.0,4.0,1.0,5.0,5.0,303.7145600001167,4.0,1.0,phase_2,stop,200.0,300.0,3.0,,,,,,,,,orange,flipped triangle
0.0,3.0,2.0,0.0,6.0,6.0,400.2596589998575,4.0,1.0,phase_2,go,150.0,300.0,1.0,,,,,,,,,yellow,triangle
0.0,7.0,2.0,1.0,5.0,0.0,0.0,4.0,1.0,phase_2,stop,150.0,300.0,4.0,,,,,,,,,green,diamond
0.0,4.0,4.0,0.0,5.0,5.0,382.4029560000781,4.0,1.0,phase_2,go,200.0,300.0,1.0,,,,,,,,,white,hexagon
0.0,8.0,4.0,1.0,6.0,0.0,0.0,4.0,1.0,phase_2,stop,200.0,300.0,4.0,,,,,,,,,orange,flipped triangle
0.0,3.0,2.0,0.0,6.0,6.0,355.7656349998979,4.0,1.0,phase_2,go,200.0,350.0,1.0,,,,,,,,,yellow,triangle
0.0,2.0,1.0,0.0,6.0,6.0,459.0078659998653,4.0,1.0,phase_2,go,200.0,350.0,1.0,,,,,,,,,cyan,square
0.0,7.0,2.0,1.0,6.0,6.0,333.5894010001539,4.0,1.0,phase_2,go,200.0,350.0,1.0,,,,,,,,,green,diamond
0.0,5.0,0.5,1.0,5.0,0.0,0.0,4.0,1.0,phase_2,stop,200.0,350.0,4.0,,,,,,,,,magenta,I
0.0,3.0,2.0,0.0,6.0,6.0,337.8787540000303,4.0,1.0,phase_2,go,250.0,350.0,1.0,,,,,,,,,yellow,triangle
0.0,7.0,2.0,1.0,6.0,6.0,370.7703600002787,4.0,1.0,phase_2,go,250.0,350.0,1.0,,,,,,,,,green,diamond
0.0,1.0,0.5,0.0,5.0,5.0,417.2204700003021,4.0,1.0,phase_2,go,250.0,350.0,1.0,,,,,,,,,gray,circle
0.0,8.0,4.0,1.0,5.0,5.0,442.0401819998005,4.0,1.0,phase_2,go,250.0,350.0,1.0,,,,,,,,,orange,flipped triangle
0.0,7.0,2.0,1.0,5.0,5.0,312.887185999898,4.0,1.0,phase_2,stop,250.0,350.0,3.0,,,,,,,,,green,diamond
0.0,5.0,0.5,1.0,5.0,5.0,522.3407149997001,4.0,1.0,phase_2,go,200.0,350.0,1.0,,,,,,,,,magenta,I
0.0,8.0,4.0,1.0,6.0,6.0,543.2937819996368,4.0,1.0,phase_2,stop,200.0,350.0,3.0,,,,,,,,,orange,flipped triangle
0.0,6.0,1.0,1.0,5.0,0.0,0.0,4.0,1.0,phase_2,stop,200.0,300.0,4.0,,,,,,,,,blue,cross
0.0,8.0,4.0,1.0,6.0,6.0,430.4800310001155,4.0,1.0,phase_2,stop,250.0,300.0,3.0,,,,,,,,,orange,flipped triangle
0.0,3.0,2.0,0.0,6.0,6.0,524.911627000165,4.0,1.0,phase_2,go,250.0,250.0,1.0,,,,,,,,,yellow,triangle
0.0,5.0,0.5,1.0,6.0,6.0,328.1613120002475,4.0,1.0,phase_2,stop,250.0,250.0,3.0,,,,,,,,,magenta,I
0.0,7.0,2.0,1.0,5.0,5.0,350.5844060000527,4.0,1.0,phase_2,stop,250.0,200.0,3.0,,,,,,,,,green,diamond
0.0,2.0,1.0,0.0,6.0,6.0,536.0744889999296,5.0,1.0,phase_2,go,200.0,200.0,1.0,,,,,,,,,cyan,square
0.0,6.0,1.0,1.0,5.0,0.0,0.0,5.0,1.0,phase_2,stop,200.0,200.0,4.0,,,,,,,,,blue,cross
0.0,8.0,4.0,1.0,5.0,5.0,454.1316569998344,5.0,1.0,phase_2,go,250.0,200.0,1.0,,,,,,,,,orange,flipped triangle
0.0,4.0,4.0,0.0,6.0,6.0,400.210331999915,5.0,1.0,phase_2,go,250.0,200.0,1.0,,,,,,,,,white,hexagon
0.0,4.0,4.0,0.0,5.0,5.0,430.1243789996078,5.0,1.0,phase_2,go,250.0,200.0,1.0,,,,,,,,,white,hexagon
0.0,5.0,0.5,1.0,6.0,0.0,0.0,5.0,1.0,phase_2,stop,250.0,200.0,4.0,,,,,,,,,magenta,I
0.0,8.0,4.0,1.0,5.0,5.0,595.7189149999067,5.0,1.0,phase_2,go,250.0,250.0,1.0,,,,,,,,,orange,flipped triangle
0.0,5.0,0.5,1.0,6.0,6.0,694.2212160001873,5.0,1.0,phase_2,go,250.0,250.0,1.0,,,,,,,,,magenta,I
0.0,1.0,0.5,0.0,6.0,6.0,401.6407839999374,5.0,1.0,phase_2,go,250.0,250.0,1.0,,,,,,,,,gray,circle
0.0,4.0,4.0,0.0,5.0,5.0,465.6249219997335,5.0,1.0,phase_2,go,250.0,250.0,1.0,,,,,,,,,white,hexagon
0.0,8.0,4.0,1.0,5.0,5.0,524.6968810001817,5.0,1.0,phase_2,go,250.0,250.0,1.0,,,,,,,,,orange,flipped triangle
0.0,1.0,0.5,0.0,5.0,5.0,483.7504049996823,5.0,1.0,phase_2,go,250.0,250.0,1.0,,,,,,,,,gray,circle
0.0,2.0,1.0,0.0,6.0,6.0,553.9153800000349,5.0,1.0,phase_2,go,250.0,250.0,1.0,,,,,,,,,cyan,square
0.0,2.0,1.0,0.0,6.0,6.0,579.1327719998662,5.0,1.0,phase_2,go,250.0,250.0,1.0,,,,,,,,,cyan,square
0.0,5.0,0.5,1.0,5.0,0.0,0.0,5.0,1.0,phase_2,stop,250.0,250.0,4.0,,,,,,,,,magenta,I
0.0,7.0,2.0,1.0,5.0,0.0,0.0,5.0,1.0,phase_2,stop,300.0,250.0,4.0,,,,,,,,,green,diamond
0.0,7.0,2.0,1.0,6.0,0.0,0.0,5.0,1.0,phase_2,stop,350.0,250.0,4.0,,,,,,,,,green,diamond
0.0,3.0,2.0,0.0,5.0,5.0,541.5118750001966,5.0,1.0,phase_2,go,350.0,300.0,1.0,,,,,,,,,yellow,triangle
0.0,6.0,1.0,1.0,6.0,0.0,0.0,5.0,1.0,phase_2,stop,350.0,300.0,4.0,,,,,,,,,blue,cross
0.0,6.0,1.0,1.0,5.0,0.0,0.0,5.0,1.0,phase_2,stop,350.0,350.0,4.0,,,,,,,,,blue,cross
0.0,5.0,0.5,1.0,5.0,5.0,518.5839470000246,5.0,1.0,phase_2,go,400.0,350.0,1.0,,,,,,,,,magenta,I
0.0,3.0,2.0,0.0,6.0,6.0,618.5681689999001,5.0,1.0,phase_2,go,400.0,350.0,1.0,,,,,,,,,yellow,triangle
0.0,2.0,1.0,0.0,5.0,5.0,666.9116859998212,5.0,1.0,phase_2,go,400.0,350.0,1.0,,,,,,,,,cyan,square
0.0,7.0,2.0,1.0,5.0,0.0,0.0,5.0,1.0,phase_2,stop,400.0,350.0,4.0,,,,,,,,,green,diamond
0.0,6.0,1.0,1.0,6.0,0.0,0.0,5.0,1.0,phase_2,stop,450.0,350.0,4.0,,,,,,,,,blue,cross
0.0,2.0,1.0,0.0,6.0,6.0,699.205128000358,5.0,1.0,phase_2,go,450.0,400.0,1.0,,,,,,,,,cyan,square
0.0,4.0,4.0,0.0,6.0,6.0,632.4050160001207,5.0,1.0,phase_2,go,450.0,400.0,1.0,,,,,,,,,white,hexagon
0.0,5.0,0.5,1.0,6.0,0.0,0.0,5.0,1.0,phase_2,stop,450.0,400.0,4.0,,,,,,,,,magenta,I
0.0,5.0,0.5,1.0,5.0,0.0,0.0,5.0,1.0,phase_2,stop,450.0,450.0,4.0,,,,,,,,,magenta,I
0.0,7.0,2.0,1.0,5.0,0.0,0.0,5.0,1.0,phase_2,stop,500.0,450.0,4.0,,,,,,,,,green,diamond
0.0,2.0,1.0,0.0,5.0,5.0,741.8435469999167,5.0,1.0,phase_2,go,550.0,450.0,1.0,,,,,,,,,cyan,square
0.0,6.0,1.0,1.0,5.0,5.0,760.7615299998542,5.0,1.0,phase_2,go,550.0,450.0,1.0,,,,,,,,,blue,cross
0.0,6.0,1.0,1.0,5.0,5.0,692.8524480003944,5.0,1.0,phase_2,go,550.0,450.0,1.0,,,,,,,,,blue,cross
0.0,4.0,4.0,0.0,6.0,6.0,654.5646160002434,5.0,1.0,phase_2,go,550.0,450.0,1.0,,,,,,,,,white,hexagon
0.0,3.0,2.0,0.0,5.0,5.0,675.8961929999714,5.0,1.0,phase_2,go,550.0,450.0,1.0,,,,,,,,,yellow,triangle
0.0,2.0,1.0,0.0,6.0,6.0,614.9833810000018,5.0,1.0,phase_2,go,550.0,450.0,1.0,,,,,,,,,cyan,square
0.0,7.0,2.0,1.0,5.0,5.0,471.2218469999243,6.0,1.0,phase_2,stop,550.0,450.0,3.0,,,,,,,,,green,diamond
0.0,2.0,1.0,0.0,6.0,6.0,587.666413000079,6.0,1.0,phase_2,go,500.0,450.0,1.0,,,,,,,,,cyan,square
0.0,3.0,2.0,0.0,6.0,6.0,498.7686109998321,6.0,1.0,phase_2,go,500.0,450.0,1.0,,,,,,,,,yellow,triangle
0.0,3.0,2.0,0.0,6.0,6.0,556.6069760002392,6.0,1.0,phase_2,go,500.0,450.0,1.0,,,,,,,,,yellow,triangle
0.0,1.0,0.5,0.0,5.0,5.0,466.3528109999788,6.0,1.0,phase_2,go,500.0,450.0,1.0,,,,,,,,,gray,circle
0.0,5.0,0.5,1.0,6.0,0.0,0.0,6.0,1.0,phase_2,stop,500.0,450.0,4.0,,,,,,,,,magenta,I
0.0,1.0,0.5,0.0,6.0,6.0,568.9582840000185,6.0,1.0,phase_2,go,500.0,500.0,1.0,,,,,,,,,gray,circle
0.0,1.0,0.5,0.0,6.0,6.0,600.9076880000066,6.0,1.0,phase_2,go,500.0,500.0,1.0,,,,,,,,,gray,circle
0.0,7.0,2.0,1.0,5.0,0.0,0.0,6.0,1.0,phase_2,stop,500.0,500.0,4.0,,,,,,,,,green,diamond
0.0,4.0,4.0,0.0,5.0,5.0,699.6948279997923,6.0,1.0,phase_2,go,550.0,500.0,1.0,,,,,,,,,white,hexagon
0.0,5.0,0.5,1.0,6.0,0.0,0.0,6.0,1.0,phase_2,stop,550.0,500.0,4.0,,,,,,,,,magenta,I
0.0,5.0,0.5,1.0,5.0,0.0,0.0,6.0,1.0,phase_2,stop,550.0,550.0,4.0,,,,,,,,,magenta,I
0.0,8.0,4.0,1.0,6.0,6.0,702.2111849996691,6.0,1.0,phase_2,go,600.0,550.0,1.0,,,,,,,,,orange,flipped triangle
0.0,1.0,0.5,0.0,5.0,5.0,548.5301359999539,6.0,1.0,phase_2,go,600.0,550.0,1.0,,,,,,,,,gray,circle
0.0,8.0,4.0,1.0,6.0,6.0,708.9881329998207,6.0,1.0,phase_2,go,600.0,550.0,1.0,,,,,,,,,orange,flipped triangle
0.0,8.0,4.0,1.0,6.0,0.0,0.0,6.0,1.0,phase_2,stop,600.0,550.0,4.0,,,,,,,,,orange,flipped triangle
0.0,6.0,1.0,1.0,5.0,5.0,715.7974850001665,6.0,1.0,phase_2,stop,600.0,600.0,3.0,,,,,,,,,blue,cross
0.0,1.0,0.5,0.0,5.0,5.0,654.728883000189,6.0,1.0,phase_2,go,550.0,600.0,1.0,,,,,,,,,gray,circle
0.0,7.0,2.0,1.0,6.0,6.0,830.1216099998783,6.0,1.0,phase_2,go,550.0,600.0,1.0,,,,,,,,,green,diamond
0.0,4.0,4.0,0.0,5.0,5.0,682.0038109999587,6.0,1.0,phase_2,go,550.0,600.0,1.0,,,,,,,,,white,hexagon
0.0,1.0,0.5,0.0,5.0,5.0,666.8421250001302,6.0,1.0,phase_2,go,550.0,600.0,1.0,,,,,,,,,gray,circle
0.0,6.0,1.0,1.0,6.0,6.0,752.5737070000105,6.0,1.0,phase_2,stop,550.0,600.0,3.0,,,,,,,,,blue,cross
0.0,5.0,0.5,1.0,5.0,0.0,0.0,6.0,1.0,phase_2,stop,550.0,550.0,4.0,,,,,,,,,magenta,I
0.0,8.0,4.0,1.0,5.0,0.0,0.0,6.0,1.0,phase_2,stop,600.0,550.0,4.0,,,,,,,,,orange,flipped triangle
0.0,2.0,1.0,0.0,5.0,5.0,817.6974109996991,6.0,1.0,phase_2,go,650.0,550.0,1.0,,,,,,,,,cyan,square
0.0,4.0,4.0,0.0,5.0,5.0,840.1452739999513,6.0,1.0,phase_2,go,650.0,550.0,1.0,,,,,,,,,white,hexagon
0.0,8.0,4.0,1.0,5.0,0.0,0.0,6.0,1.0,phase_2,stop,650.0,550.0,4.0,,,,,,,,,orange,flipped triangle
0.0,1.0,0.5,0.0,5.0,5.0,663.629617999959,6.0,1.0,phase_2,go,700.0,550.0,1.0,,,,,,,,,gray,circle
0.0,2.0,1.0,0.0,6.0,6.0,823.3399499999905,6.0,1.0,phase_2,go,700.0,550.0,1.0,,,,,,,,,cyan,square
0.0,1.0,0.5,0.0,6.0,6.0,542.7052509999157,6.0,1.0,phase_2,go,700.0,550.0,1.0,,,,,,,,,gray,circle
0.0,6.0,1.0,1.0,5.0,5.0,853.6357869998028,6.0,1.0,phase_2,stop,700.0,550.0,3.0,,,,,,,,,blue,cross
0.0,6.0,1.0,1.0,6.0,0.0,0.0,6.0,1.0,phase_2,stop,650.0,550.0,4.0,,,,,,,,,blue,cross
0.0,7.0,2.0,1.0,6.0,0.0,0.0,6.0,1.0,phase_2,stop,650.0,600.0,4.0,,,,,,,,,green,diamond
0.0,2.0,1.0,0.0,6.0,6.0,722.0918319999328,6.0,1.0,phase_2,go,650.0,650.0,1.0,,,,,,,,,cyan,square
0.0,3.0,2.0,0.0,5.0,5.0,929.0752740002972,6.0,1.0,phase_2,go,650.0,650.0,1.0,,,,,,,,,yellow,triangle
0.0,6.0,1.0,1.0,5.0,0.0,0.0,6.0,1.0,phase_2,stop,650.0,650.0,4.0,,,,,,,,,blue,cross
0.0,3.0,2.0,0.0,5.0,5.0,600.030998999955,7.0,1.0,phase_2,go,700.0,650.0,1.0,,,,,,,,,yellow,triangle
0.0,7.0,2.0,1.0,6.0,6.0,586.2400599999091,7.0,1.0,phase_2,stop,700.0,650.0,3.0,,,,,,,,,green,diamond
0.0,1.0,0.5,0.0,5.0,5.0,512.3868820001007,7.0,1.0,phase_2,go,700.0,600.0,1.0,,,,,,,,,gray,circle
0.0,3.0,2.0,0.0,5.0,5.0,744.7737689999485,7.0,1.0,phase_2,go,700.0,600.0,1.0,,,,,,,,,yellow,triangle
0.0,7.0,2.0,1.0,6.0,6.0,619.8198960000809,7.0,1.0,phase_2,stop,700.0,600.0,3.0,,,,,,,,,green,diamond
0.0,8.0,4.0,1.0,6.0,0.0,0.0,7.0,1.0,phase_2,stop,700.0,550.0,4.0,,,,,,,,,orange,flipped triangle
0.0,1.0,0.5,0.0,6.0,6.0,620.4982270000983,7.0,1.0,phase_2,go,700.0,600.0,1.0,,,,,,,,,gray,circle
0.0,8.0,4.0,1.0,6.0,6.0,668.126347999987,7.0,1.0,phase_2,stop,700.0,600.0,3.0,,,,,,,,,orange,flipped triangle
0.0,3.0,2.0,0.0,5.0,5.0,575.4308199998377,7.0,1.0,phase_2,go,700.0,550.0,1.0,,,,,,,,,yellow,triangle
0.0,4.0,4.0,0.0,5.0,5.0,602.7496040001097,7.0,1.0,phase_2,go,700.0,550.0,1.0,,,,,,,,,white,hexagon
0.0,6.0,1.0,1.0,5.0,0.0,0.0,7.0,1.0,phase_2,stop,700.0,550.0,4.0,,,,,,,,,blue,cross
0.0,4.0,4.0,0.0,5.0,5.0,708.173412999713,7.0,1.0,phase_2,go,750.0,550.0,1.0,,,,,,,,,white,hexagon
0.0,5.0,0.5,1.0,6.0,6.0,912.9259940000338,7.0,1.0,phase_2,go,750.0,550.0,1.0,,,,,,,,,magenta,I
0.0,8.0,4.0,1.0,5.0,5.0,706.0642689998531,7.0,1.0,phase_2,stop,750.0,550.0,3.0,,,,,,,,,orange,flipped triangle
0.0,1.0,0.5,0.0,6.0,6.0,504.76461799962635,7.0,1.0,phase_2,go,700.0,550.0,1.0,,,,,,,,,gray,circle
0.0,7.0,2.0,1.0,5.0,0.0,0.0,7.0,1.0,phase_2,stop,700.0,550.0,4.0,,,,,,,,,green,diamond
0.0,3.0,2.0,0.0,6.0,6.0,704.3204199999309,7.0,1.0,phase_2,go,750.0,550.0,1.0,,,,,,,,,yellow,triangle
0.0,3.0,2.0,0.0,6.0,6.0,570.1291500004118,7.0,1.0,phase_2,go,750.0,550.0,1.0,,,,,,,,,yellow,triangle
0.0,7.0,2.0,1.0,5.0,5.0,313.3948879999479,7.0,1.0,phase_2,stop,750.0,550.0,3.0,,,,,,,,,green,diamond
0.0,2.0,1.0,0.0,5.0,5.0,485.3352539998923,7.0,1.0,phase_2,go,700.0,550.0,1.0,,,,,,,,,cyan,square
0.0,6.0,1.0,1.0,5.0,5.0,387.9268890000276,7.0,1.0,phase_2,stop,700.0,550.0,3.0,,,,,,,,,blue,cross
0.0,1.0,0.5,0.0,5.0,5.0,590.0779710000279,7.0,1.0,phase_2,go,650.0,550.0,1.0,,,,,,,,,gray,circle
0.0,4.0,4.0,0.0,6.0,6.0,491.3232689996221,7.0,1.0,phase_2,go,650.0,550.0,1.0,,,,,,,,,white,hexagon
0.0,5.0,0.5,1.0,6.0,0.0,0.0,7.0,1.0,phase_2,stop,650.0,550.0,4.0,,,,,,,,,magenta,I
0.0,4.0,4.0,0.0,6.0,6.0,554.470104000302,7.0,1.0,phase_2,go,650.0,600.0,1.0,,,,,,,,,white,hexagon
0.0,5.0,0.5,1.0,6.0,0.0,0.0,7.0,1.0,phase_2,stop,650.0,600.0,4.0,,,,,,,,,magenta,I
0.0,1.0,0.5,0.0,6.0,6.0,497.9377190002196,7.0,1.0,phase_2,go,650.0,650.0,1.0,,,,,,,,,gray,circle
0.0,2.0,1.0,0.0,6.0,6.0,530.8430529998986,7.0,1.0,phase_2,go,650.0,650.0,1.0,,,,,,,,,cyan,square
0.0,6.0,1.0,1.0,6.0,0.0,0.0,7.0,1.0,phase_2,stop,650.0,650.0,4.0,,,,,,,,,blue,cross
0.0,3.0,2.0,0.0,6.0,6.0,727.6708029999099,7.0,1.0,phase_2,go,650.0,700.0,1.0,,,,,,,,,yellow,triangle
0.0,2.0,1.0,0.0,5.0,5.0,641.0115230000883,7.0,1.0,phase_2,go,650.0,700.0,1.0,,,,,,,,,cyan,square
0.0,6.0,1.0,1.0,5.0,0.0,0.0,7.0,1.0,phase_2,stop,650.0,700.0,4.0,,,,,,,,,blue,cross
0.0,8.0,4.0,1.0,6.0,0.0,0.0,7.0,1.0,phase_2,stop,700.0,700.0,4.0,,,,,,,,,orange,flipped triangle
0.0,2.0,1.0,0.0,6.0,6.0,558.4121309998409,7.0,1.0,phase_2,go,700.0,750.0,1.0,,,,,,,,,cyan,square
0.0,6.0,1.0,1.0,6.0,6.0,988.4154920000584,7.0,1.0,phase_2,go,700.0,750.0,1.0,,,,,,,,,blue,cross
0.0,6.0,1.0,1.0,5.0,5.0,487.1401870000227,7.0,1.0,phase_2,stop,700.0,750.0,3.0,,,,,,,,,blue,cross
0.0,2.0,1.0,0.0,6.0,6.0,368.1077889996231,8.0,1.0,phase_2,go,650.0,750.0,1.0,,,,,,,,,cyan,square
0.0,1.0,0.5,0.0,5.0,5.0,431.0000720001881,8.0,1.0,phase_2,go,650.0,750.0,1.0,,,,,,,,,gray,circle
0.0,8.0,4.0,1.0,6.0,6.0,358.701561000089,8.0,1.0,phase_2,stop,650.0,750.0,3.0,,,,,,,,,orange,flipped triangle
0.0,4.0,4.0,0.0,5.0,5.0,247.2677839996322,8.0,1.0,phase_2,go,650.0,700.0,1.0,,,,,,,,,white,hexagon
0.0,7.0,2.0,1.0,6.0,6.0,796.0837730001913,8.0,1.0,phase_2,go,650.0,700.0,1.0,,,,,,,,,green,diamond
0.0,6.0,1.0,1.0,6.0,0.0,0.0,8.0,1.0,phase_2,stop,650.0,700.0,4.0,,,,,,,,,blue,cross
0.0,7.0,2.0,1.0,6.0,6.0,334.1180879997409,8.0,1.0,phase_2,stop,650.0,750.0,3.0,,,,,,,,,green,diamond
0.0,4.0,4.0,0.0,5.0,5.0,421.8422600001759,8.0,1.0,phase_2,go,650.0,700.0,1.0,,,,,,,,,white,hexagon
0.0,1.0,0.5,0.0,5.0,5.0,379.4410900000002,8.0,1.0,phase_2,go,650.0,700.0,1.0,,,,,,,,,gray,circle
0.0,3.0,2.0,0.0,6.0,6.0,372.8992399996969,8.0,1.0,phase_2,go,650.0,700.0,1.0,,,,,,,,,yellow,triangle
0.0,2.0,1.0,0.0,5.0,5.0,328.1788730000698,8.0,1.0,phase_2,go,650.0,700.0,1.0,,,,,,,,,cyan,square
0.0,3.0,2.0,0.0,6.0,6.0,330.8096180003304,8.0,1.0,phase_2,go,650.0,700.0,1.0,,,,,,,,,yellow,triangle
0.0,4.0,4.0,0.0,6.0,6.0,409.2644580000524,8.0,1.0,phase_2,go,650.0,700.0,1.0,,,,,,,,,white,hexagon
0.0,4.0,4.0,0.0,6.0,6.0,326.816004000193,8.0,1.0,phase_2,go,650.0,700.0,1.0,,,,,,,,,white,hexagon
0.0,5.0,0.5,1.0,6.0,6.0,873.0713330000981,8.0,1.0,phase_2,go,650.0,700.0,1.0,,,,,,,,,magenta,I
0.0,6.0,1.0,1.0,5.0,0.0,0.0,8.0,1.0,phase_2,stop,650.0,700.0,4.0,,,,,,,,,blue,cross
0.0,3.0,2.0,0.0,6.0,6.0,480.0212580003062,8.0,1.0,phase_2,go,700.0,700.0,1.0,,,,,,,,,yellow,triangle
0.0,4.0,4.0,0.0,6.0,6.0,437.8373389999979,8.0,1.0,phase_2,go,700.0,700.0,1.0,,,,,,,,,white,hexagon
0.0,1.0,0.5,0.0,6.0,6.0,375.7353969999712,8.0,1.0,phase_2,go,700.0,700.0,1.0,,,,,,,,,gray,circle
0.0,1.0,0.5,0.0,6.0,6.0,310.1611150000281,8.0,1.0,phase_2,go,700.0,700.0,1.0,,,,,,,,,gray,circle
0.0,4.0,4.0,0.0,5.0,5.0,334.8952989999816,8.0,1.0,phase_2,go,700.0,700.0,1.0,,,,,,,,,white,hexagon
0.0,3.0,2.0,0.0,5.0,5.0,533.8080440001249,8.0,1.0,phase_2,go,700.0,700.0,1.0,,,,,,,,,yellow,triangle
0.0,8.0,4.0,1.0,5.0,0.0,0.0,8.0,1.0,phase_2,stop,700.0,700.0,4.0,,,,,,,,,orange,flipped triangle
0.0,5.0,0.5,1.0,6.0,0.0,0.0,8.0,1.0,phase_2,stop,750.0,700.0,4.0,,,,,,,,,magenta,I
0.0,2.0,1.0,0.0,5.0,5.0,490.0060289996872,8.0,1.0,phase_2,go,750.0,750.0,1.0,,,,,,,,,cyan,square
0.0,5.0,0.5,1.0,5.0,5.0,385.908911000115,8.0,1.0,phase_2,go,750.0,750.0,1.0,,,,,,,,,magenta,I
0.0,8.0,4.0,1.0,5.0,0.0,0.0,8.0,1.0,phase_2,stop,750.0,750.0,4.0,,,,,,,,,orange,flipped triangle
0.0,8.0,4.0,1.0,6.0,0.0,0.0,8.0,1.0,phase_2,stop,800.0,750.0,4.0,,,,,,,,,orange,flipped triangle
0.0,1.0,0.5,0.0,6.0,6.0,473.7629699998251,8.0,1.0,phase_2,go,800.0,800.0,1.0,,,,,,,,,gray,circle
0.0,2.0,1.0,0.0,6.0,6.0,359.8796830001447,8.0,1.0,phase_2,go,800.0,800.0,1.0,,,,,,,,,cyan,square
0.0,4.0,4.0,0.0,5.0,5.0,377.2964169997976,8.0,1.0,phase_2,go,800.0,800.0,1.0,,,,,,,,,white,hexagon
0.0,4.0,4.0,0.0,5.0,5.0,336.8160720001469,8.0,1.0,phase_2,go,800.0,800.0,1.0,,,,,,,,,white,hexagon
0.0,7.0,2.0,1.0,6.0,6.0,536.2700800001221,8.0,1.0,phase_2,stop,800.0,800.0,3.0,,,,,,,,,green,diamond
0.0,1.0,0.5,0.0,5.0,5.0,427.9837260000931,8.0,1.0,phase_2,go,800.0,750.0,1.0,,,,,,,,,gray,circle
0.0,5.0,0.5,1.0,5.0,0.0,0.0,8.0,1.0,phase_2,stop,800.0,750.0,4.0,,,,,,,,,magenta,I
0.0,1.0,0.5,0.0,6.0,6.0,426.4422320002268,8.0,1.0,phase_2,go,850.0,750.0,1.0,,,,,,,,,gray,circle
0.0,4.0,4.0,0.0,7.0,3.0,4336.346464000599,1.0,1.0,phase_3,,,,,162.0,3.0,216.0,270.0,162.0,324.0,108.0,54.0,white,hexagon
0.0,6.0,1.0,1.0,7.0,4.0,4405.205064999791,1.0,1.0,phase_3,,,,,147.0,3.0,196.0,294.0,49.0,147.0,245.0,98.0,blue,cross
0.0,6.0,1.0,1.0,7.0,4.0,1386.647497999547,1.0,2.0,phase_3,,,,,147.0,3.0,49.0,294.0,245.0,147.0,98.0,196.0,blue,cross
0.0,3.0,2.0,0.0,7.0,6.0,2729.3200520007304,1.0,1.0,phase_3,,,,,170.0,5.0,34.0,136.0,102.0,204.0,68.0,170.0,yellow,triangle
0.0,4.0,4.0,0.0,7.0,5.0,2429.81519299974,1.0,1.0,phase_3,,,,,234.0,6.0,117.0,39.0,156.0,78.0,234.0,195.0,white,hexagon
0.0,6.0,1.0,1.0,7.0,5.0,2462.458371000139,1.0,1.0,phase_3,,,,,136.0,4.0,204.0,68.0,170.0,34.0,136.0,102.0,blue,cross
0.0,1.0,0.5,0.0,7.0,2.0,2597.604399999909,1.0,1.0,phase_3,,,,,108.0,2.0,324.0,108.0,216.0,54.0,270.0,162.0,gray,circle
0.0,2.0,1.0,0.0,7.0,3.0,2432.827265999549,1.0,1.0,phase_3,,,,,132.0,3.0,176.0,220.0,132.0,88.0,44.0,264.0,cyan,square
0.0,4.0,4.0,0.0,7.0,1.0,3713.609958999768,1.0,1.0,phase_3,,,,,220.0,5.0,220.0,264.0,176.0,44.0,88.0,132.0,white,hexagon
0.0,8.0,4.0,1.0,7.0,4.0,2937.7661759999683,1.0,1.0,phase_3,,,,,234.0,6.0,195.0,39.0,117.0,234.0,78.0,156.0,orange,flipped triangle
0.0,2.0,1.0,0.0,7.0,4.0,3779.5631390008566,1.0,1.0,phase_3,,,,,147.0,3.0,294.0,98.0,245.0,147.0,49.0,196.0,cyan,square
0.0,8.0,4.0,1.0,7.0,3.0,2263.021554000261,1.0,1.0,phase_3,,,,,264.0,6.0,132.0,44.0,264.0,220.0,176.0,88.0,orange,flipped triangle
0.0,7.0,2.0,1.0,7.0,3.0,2949.526094999783,1.0,1.0,phase_3,,,,,156.0,4.0,78.0,234.0,156.0,195.0,117.0,39.0,green,diamond
0.0,1.0,0.5,0.0,7.0,3.0,1960.363035000228,1.0,1.0,phase_3,,,,,88.0,2.0,132.0,220.0,88.0,176.0,44.0,264.0,gray,circle
0.0,5.0,0.5,1.0,7.0,2.0,1673.2315090002885,1.0,1.0,phase_3,,,,,88.0,2.0,44.0,88.0,264.0,176.0,132.0,220.0,magenta,I
0.0,5.0,0.5,1.0,7.0,2.0,1810.606879999796,1.0,1.0,phase_3,,,,,78.0,2.0,39.0,78.0,156.0,117.0,234.0,195.0,magenta,I
0.0,6.0,1.0,1.0,7.0,4.0,2451.078514999608,1.0,1.0,phase_3,,,,,132.0,3.0,88.0,220.0,264.0,132.0,176.0,44.0,blue,cross
0.0,1.0,0.5,0.0,7.0,2.0,2504.9065519997384,1.0,1.0,phase_3,,,,,54.0,1.0,324.0,54.0,216.0,162.0,270.0,108.0,gray,circle
0.0,5.0,0.5,1.0,7.0,5.0,2591.827490000469,1.0,1.0,phase_3,,,,,88.0,2.0,44.0,176.0,264.0,132.0,88.0,220.0,magenta,I
0.0,5.0,0.5,1.0,7.0,3.0,2354.351033000057,1.0,1.0,phase_3,,,,,108.0,2.0,162.0,324.0,108.0,270.0,216.0,54.0,magenta,I
0.0,7.0,2.0,1.0,7.0,2.0,2533.6119300000064,2.0,1.0,phase_3,,,,,162.0,3.0,270.0,162.0,216.0,324.0,108.0,54.0,green,diamond
0.0,6.0,1.0,1.0,7.0,1.0,4294.109069000115,2.0,1.0,phase_3,,,,,117.0,3.0,117.0,39.0,195.0,156.0,78.0,234.0,blue,cross
0.0,8.0,4.0,1.0,7.0,5.0,2839.942345000054,2.0,1.0,phase_3,,,,,324.0,6.0,162.0,108.0,270.0,216.0,324.0,54.0,orange,flipped triangle
0.0,7.0,2.0,1.0,7.0,4.0,3906.546911999612,2.0,1.0,phase_3,,,,,195.0,5.0,39.0,156.0,78.0,195.0,234.0,117.0,green,diamond
0.0,8.0,4.0,1.0,7.0,5.0,1507.6839989997095,2.0,1.0,phase_3,,,,,324.0,6.0,270.0,108.0,162.0,54.0,324.0,216.0,orange,flipped triangle
0.0,3.0,2.0,0.0,7.0,4.0,2301.788484000099,2.0,1.0,phase_3,,,,,220.0,5.0,264.0,176.0,88.0,220.0,44.0,132.0,yellow,triangle
0.0,5.0,0.5,1.0,7.0,2.0,3270.693147000202,2.0,1.0,phase_3,,,,,147.0,3.0,245.0,147.0,98.0,196.0,294.0,49.0,magenta,I
0.0,7.0,2.0,1.0,7.0,4.0,3353.453853999781,2.0,1.0,phase_3,,,,,147.0,3.0,49.0,245.0,294.0,147.0,98.0,196.0,green,diamond
0.0,2.0,1.0,0.0,7.0,4.0,3631.215534000148,2.0,1.0,phase_3,,,,,117.0,3.0,78.0,195.0,156.0,117.0,234.0,39.0,cyan,square
0.0,1.0,0.5,0.0,7.0,1.0,1896.736723999311,2.0,1.0,phase_3,,,,,98.0,2.0,98.0,147.0,49.0,245.0,196.0,294.0,gray,circle
0.0,8.0,4.0,1.0,7.0,6.0,2235.14442800024,2.0,1.0,phase_3,,,,,294.0,6.0,147.0,245.0,98.0,196.0,49.0,294.0,orange,flipped triangle
0.0,8.0,4.0,1.0,7.0,5.0,2591.4872290004496,2.0,1.0,phase_3,,,,,204.0,6.0,68.0,34.0,170.0,102.0,204.0,136.0,orange,flipped triangle
0.0,7.0,2.0,1.0,7.0,4.0,2717.920929999309,2.0,1.0,phase_3,,,,,170.0,5.0,68.0,102.0,136.0,170.0,204.0,34.0,green,diamond
0.0,3.0,2.0,0.0,7.0,4.0,2106.0687040007906,2.0,1.0,phase_3,,,,,132.0,3.0,264.0,44.0,88.0,132.0,220.0,176.0,yellow,triangle
0.0,6.0,1.0,1.0,7.0,3.0,1847.849785000108,2.0,1.0,phase_3,,,,,88.0,2.0,220.0,132.0,88.0,264.0,176.0,44.0,blue,cross
0.0,6.0,1.0,1.0,7.0,5.0,2632.863486999668,2.0,1.0,phase_3,,,,,78.0,2.0,156.0,39.0,195.0,117.0,78.0,234.0,blue,cross
0.0,1.0,0.5,0.0,7.0,1.0,2316.969767000046,2.0,1.0,phase_3,,,,,39.0,1.0,39.0,117.0,156.0,195.0,78.0,234.0,gray,circle
0.0,2.0,1.0,0.0,7.0,4.0,2988.3873489998223,2.0,1.0,phase_3,,,,,147.0,3.0,196.0,245.0,98.0,147.0,49.0,294.0,cyan,square
0.0,1.0,0.5,0.0,7.0,1.0,1816.8122960005348,2.0,1.0,phase_3,,,,,88.0,2.0,88.0,132.0,264.0,176.0,44.0,220.0,gray,circle
0.0,3.0,2.0,0.0,7.0,2.0,2642.1405159999267,2.0,1.0,phase_3,,,,,156.0,4.0,234.0,156.0,78.0,39.0,117.0,195.0,yellow,triangle
0.0,5.0,0.5,1.0,7.0,2.0,1613.3174269998565,3.0,1.0,phase_3,,,,,78.0,2.0,195.0,78.0,39.0,234.0,117.0,156.0,magenta,I
0.0,6.0,1.0,1.0,7.0,4.0,1662.985461000062,3.0,1.0,phase_3,,,,,108.0,2.0,324.0,270.0,162.0,108.0,216.0,54.0,blue,cross
0.0,5.0,0.5,1.0,7.0,4.0,2324.231845000213,3.0,1.0,phase_3,,,,,98.0,2.0,49.0,245.0,294.0,98.0,147.0,196.0,magenta,I
0.0,4.0,4.0,0.0,7.0,6.0,2857.7372250001645,3.0,1.0,phase_3,,,,,196.0,4.0,98.0,245.0,147.0,49.0,294.0,196.0,white,hexagon
0.0,3.0,2.0,0.0,7.0,2.0,1811.3171629993303,3.0,1.0,phase_3,,,,,162.0,3.0,324.0,162.0,270.0,216.0,54.0,108.0,yellow,triangle
0.0,4.0,4.0,0.0,7.0,1.0,3104.301960000157,3.0,1.0,phase_3,,,,,176.0,4.0,176.0,220.0,132.0,88.0,264.0,44.0,white,hexagon
0.0,3.0,2.0,0.0,7.0,6.0,3229.557257000124,3.0,1.0,phase_3,,,,,156.0,4.0,117.0,78.0,234.0,195.0,39.0,156.0,yellow,triangle
0.0,3.0,2.0,0.0,7.0,3.0,3242.524203999892,3.0,1.0,phase_3,,,,,196.0,4.0,294.0,147.0,196.0,49.0,245.0,98.0,yellow,triangle
0.0,3.0,2.0,0.0,7.0,5.0,1904.709133000324,3.0,1.0,phase_3,,,,,170.0,5.0,102.0,34.0,68.0,136.0,170.0,204.0,yellow,triangle
0.0,7.0,2.0,1.0,7.0,4.0,2146.467108000252,3.0,1.0,phase_3,,,,,132.0,3.0,44.0,88.0,176.0,132.0,264.0,220.0,green,diamond
0.0,1.0,0.5,0.0,7.0,2.0,1565.30117300008,3.0,1.0,phase_3,,,,,68.0,2.0,34.0,68.0,102.0,136.0,170.0,204.0,gray,circle
0.0,2.0,1.0,0.0,7.0,6.0,3428.665187000661,3.0,1.0,phase_3,,,,,162.0,3.0,54.0,324.0,108.0,216.0,270.0,162.0,cyan,square
0.0,4.0,4.0,0.0,7.0,1.0,2609.7584179997284,3.0,1.0,phase_3,,,,,195.0,5.0,195.0,234.0,39.0,117.0,156.0,78.0,white,hexagon
0.0,7.0,2.0,1.0,7.0,4.0,1673.1312339998112,3.0,1.0,phase_3,,,,,136.0,4.0,204.0,170.0,68.0,136.0,102.0,34.0,green,diamond
0.0,5.0,0.5,1.0,7.0,1.0,2323.156589000064,3.0,1.0,phase_3,,,,,102.0,3.0,102.0,68.0,170.0,204.0,136.0,34.0,magenta,I
0.0,6.0,1.0,1.0,7.0,4.0,3433.748833000209,3.0,1.0,phase_3,,,,,102.0,3.0,204.0,68.0,170.0,102.0,34.0,136.0,blue,cross
0.0,8.0,4.0,1.0,7.0,2.0,2019.3807630002998,3.0,1.0,phase_3,,,,,204.0,6.0,170.0,204.0,34.0,68.0,102.0,136.0,orange,flipped triangle
0.0,1.0,0.5,0.0,7.0,5.0,2269.6745069997637,3.0,1.0,phase_3,,,,,39.0,1.0,195.0,156.0,234.0,78.0,39.0,117.0,gray,circle
0.0,7.0,2.0,1.0,7.0,3.0,3313.67684199995,3.0,1.0,phase_3,,,,,147.0,3.0,196.0,294.0,147.0,245.0,49.0,98.0,green,diamond
0.0,1.0,0.5,0.0,7.0,6.0,2059.248456000205,3.0,1.0,phase_3,,,,,68.0,2.0,204.0,34.0,136.0,102.0,170.0,68.0,gray,circle
0.0,4.0,4.0,0.0,7.0,6.0,2931.4577519999148,4.0,1.0,phase_3,,,,,294.0,6.0,49.0,98.0,245.0,147.0,196.0,294.0,white,hexagon
0.0,8.0,4.0,1.0,7.0,5.0,1724.4755920000898,4.0,1.0,phase_3,,,,,234.0,6.0,117.0,156.0,195.0,78.0,234.0,39.0,orange,flipped triangle
0.0,4.0,4.0,0.0,7.0,1.0,3261.8000560005385,4.0,1.0,phase_3,,,,,270.0,5.0,270.0,162.0,54.0,216.0,324.0,108.0,white,hexagon
0.0,7.0,2.0,1.0,7.0,2.0,3020.207113000652,4.0,1.0,phase_3,,,,,132.0,3.0,176.0,132.0,88.0,220.0,44.0,264.0,green,diamond
0.0,6.0,1.0,1.0,7.0,5.0,2616.718507999394,4.0,1.0,phase_3,,,,,108.0,2.0,216.0,270.0,324.0,162.0,108.0,54.0,blue,cross
0.0,8.0,4.0,1.0,7.0,3.0,2337.7046789992164,4.0,1.0,phase_3,,,,,294.0,6.0,49.0,98.0,294.0,196.0,245.0,147.0,orange,flipped triangle
0.0,2.0,1.0,0.0,7.0,6.0,4184.116406999237,4.0,1.0,phase_3,,,,,156.0,4.0,117.0,78.0,195.0,39.0,234.0,156.0,cyan,square
0.0,8.0,4.0,1.0,7.0,6.0,2495.6157130000065,4.0,1.0,phase_3,,,,,264.0,6.0,220.0,176.0,88.0,44.0,132.0,264.0,orange,flipped triangle
0.0,4.0,4.0,0.0,7.0,4.0,1904.1053820001248,4.0,1.0,phase_3,,,,,170.0,5.0,34.0,102.0,204.0,170.0,136.0,68.0,white,hexagon
0.0,1.0,0.5,0.0,7.0,4.0,2468.239494000045,4.0,1.0,phase_3,,,,,49.0,1.0,196.0,147.0,294.0,49.0,245.0,98.0,gray,circle
0.0,2.0,1.0,0.0,7.0,3.0,3540.035027000158,4.0,1.0,phase_3,,,,,102.0,3.0,136.0,68.0,102.0,170.0,204.0,34.0,cyan,square
0.0,7.0,2.0,1.0,7.0,4.0,4004.9770629993873,4.0,1.0,phase_3,,,,,108.0,2.0,162.0,54.0,270.0,108.0,216.0,324.0,green,diamond
0.0,3.0,2.0,0.0,7.0,5.0,2901.594213999488,4.0,1.0,phase_3,,,,,162.0,3.0,324.0,216.0,108.0,270.0,162.0,54.0,yellow,triangle
0.0,5.0,0.5,1.0,7.0,2.0,3455.9842560001925,4.0,1.0,phase_3,,,,,108.0,2.0,324.0,108.0,162.0,216.0,54.0,270.0,magenta,I
0.0,3.0,2.0,0.0,7.0,4.0,2655.775327999436,4.0,1.0,phase_3,,,,,147.0,3.0,196.0,49.0,98.0,147.0,294.0,245.0,yellow,triangle
0.0,2.0,1.0,0.0,7.0,5.0,2728.732473000491,4.0,1.0,phase_3,,,,,132.0,3.0,88.0,176.0,264.0,220.0,132.0,44.0,cyan,square
0.0,2.0,1.0,0.0,7.0,1.0,2352.4610850008685,4.0,1.0,phase_3,,,,,136.0,4.0,136.0,170.0,204.0,34.0,68.0,102.0,cyan,square
0.0,2.0,1.0,0.0,7.0,3.0,4003.094419000263,4.0,1.0,phase_3,,,,,108.0,2.0,54.0,270.0,108.0,162.0,324.0,216.0,cyan,square
0.0,4.0,4.0,0.0,7.0,2.0,2026.1999650001599,4.0,1.0,phase_3,,,,,204.0,6.0,170.0,204.0,68.0,102.0,34.0,136.0,white,hexagon
0.0,5.0,0.5,1.0,7.0,3.0,1987.6280729995412,4.0,1.0,phase_3,,,,,204.0,6.0,68.0,34.0,204.0,170.0,136.0,102.0,magenta,I
