raw_reward_magnitude,stim_reward,stepwise_reward_magnitude,paired_with_stopping,stim_location,response,reaction_time,block,num_trial_presentations,which_phase,stop_signal_trial_type,left_SSD,right_SSD,accuracy,chosen_bidding_amount,chosen_bidding_level,possible_bid_1,possible_bid_2,possible_bid_3,possible_bid_4,possible_bid_5,possible_bid_6,color_text,shape_text
81.0,2.0,2.0,0.0,1.0,1.0,296.5504070000406,1.0,1.0,phase_1,,,,,,,,,,,,,green,hexagon
58.0,1.0,1.0,0.0,3.0,3.0,258.0703339999672,1.0,1.0,phase_1,,,,,,,,,,,,,blue,diamond
0.0,6.0,0.0,1.0,4.0,4.0,247.6844740001524,1.0,1.0,phase_1,,,,,,,,,,,,,magenta,circle
111.0,2.0,2.0,0.0,4.0,4.0,284.104065000065,1.0,1.0,phase_1,,,,,,,,,,,,,green,hexagon
220.0,7.0,3.0,1.0,3.0,3.0,273.2934089999617,1.0,1.0,phase_1,,,,,,,,,,,,,orange,square
116.0,6.0,2.0,1.0,3.0,3.0,276.7083630001252,1.0,1.0,phase_1,,,,,,,,,,,,,magenta,circle
0.0,8.0,0.0,1.0,4.0,4.0,274.5672500000182,1.0,1.0,phase_1,,,,,,,,,,,,,white,flipped triangle
78.0,6.0,2.0,1.0,2.0,2.0,311.2151660000108,1.0,1.0,phase_1,,,,,,,,,,,,,magenta,circle
0.0,1.0,0.0,0.0,2.0,2.0,267.7217310001651,1.0,1.0,phase_1,,,,,,,,,,,,,blue,diamond
0.0,5.0,0.0,1.0,1.0,1.0,288.5561660000348,1.0,1.0,phase_1,,,,,,,,,,,,,gray,I
0.0,5.0,0.0,1.0,2.0,2.0,270.5764540000928,1.0,1.0,phase_1,,,,,,,,,,,,,gray,I
60.0,5.0,1.0,1.0,3.0,3.0,275.3555709998636,1.0,1.0,phase_1,,,,,,,,,,,,,gray,I
206.0,3.0,3.0,0.0,4.0,4.0,270.6886299999951,1.0,1.0,phase_1,,,,,,,,,,,,,cyan,cross
220.0,7.0,3.0,1.0,4.0,4.0,342.5657589998536,1.0,1.0,phase_1,,,,,,,,,,,,,orange,square
203.0,7.0,3.0,1.0,4.0,4.0,279.6298159998969,1.0,1.0,phase_1,,,,,,,,,,,,,orange,square
214.0,3.0,3.0,0.0,4.0,4.0,247.0098920000509,1.0,1.0,phase_1,,,,,,,,,,,,,cyan,cross
210.0,7.0,3.0,1.0,2.0,2.0,280.1905530000113,1.0,1.0,phase_1,,,,,,,,,,,,,orange,square
221.0,7.0,3.0,1.0,4.0,4.0,262.0668790000309,1.0,1.0,phase_1,,,,,,,,,,,,,orange,square
0.0,2.0,0.0,0.0,4.0,4.0,317.9740420000598,1.0,1.0,phase_1,,,,,,,,,,,,,green,hexagon
86.0,6.0,2.0,1.0,2.0,2.0,329.3768769999587,1.0,1.0,phase_1,,,,,,,,,,,,,magenta,circle
202.0,7.0,3.0,1.0,2.0,2.0,267.8109080000013,1.0,1.0,phase_1,,,,,,,,,,,,,orange,square
202.0,7.0,3.0,1.0,4.0,4.0,273.0320390000997,1.0,1.0,phase_1,,,,,,,,,,,,,orange,square
87.0,6.0,2.0,1.0,4.0,4.0,263.7227810000695,1.0,1.0,phase_1,,,,,,,,,,,,,magenta,circle
0.0,6.0,0.0,1.0,3.0,3.0,289.4620780000423,1.0,1.0,phase_1,,,,,,,,,,,,,magenta,circle
176.0,7.0,3.0,1.0,3.0,3.0,287.3290890001954,1.0,1.0,phase_1,,,,,,,,,,,,,orange,square
0.0,3.0,0.0,0.0,4.0,4.0,293.5973559999638,1.0,1.0,phase_1,,,,,,,,,,,,,cyan,cross
70.0,1.0,1.0,0.0,3.0,3.0,255.274954000015,1.0,1.0,phase_1,,,,,,,,,,,,,blue,diamond
377.0,4.0,4.0,0.0,4.0,4.0,256.1724099998628,1.0,1.0,phase_1,,,,,,,,,,,,,yellow,triangle
179.0,3.0,3.0,0.0,2.0,2.0,321.1882200000673,1.0,1.0,phase_1,,,,,,,,,,,,,cyan,cross
220.0,3.0,3.0,0.0,3.0,3.0,269.8369780000575,1.0,1.0,phase_1,,,,,,,,,,,,,cyan,cross
119.0,2.0,2.0,0.0,3.0,3.0,266.3206740000987,1.0,1.0,phase_1,,,,,,,,,,,,,green,hexagon
59.0,1.0,1.0,0.0,3.0,3.0,263.0178419999538,1.0,1.0,phase_1,,,,,,,,,,,,,blue,diamond
40.0,5.0,1.0,1.0,2.0,2.0,267.2420579999652,1.0,1.0,phase_1,,,,,,,,,,,,,gray,I
39.0,1.0,1.0,0.0,1.0,1.0,299.5717979999881,1.0,1.0,phase_1,,,,,,,,,,,,,blue,diamond
0.0,5.0,0.0,1.0,2.0,2.0,262.8349930000695,1.0,1.0,phase_1,,,,,,,,,,,,,gray,I
60.0,1.0,1.0,0.0,1.0,1.0,266.5341240001453,1.0,1.0,phase_1,,,,,,,,,,,,,blue,diamond
0.0,8.0,0.0,1.0,1.0,1.0,320.1105429998279,1.0,1.0,phase_1,,,,,,,,,,,,,white,flipped triangle
98.0,2.0,2.0,0.0,4.0,4.0,275.1166550001471,1.0,1.0,phase_1,,,,,,,,,,,,,green,hexagon
91.0,6.0,2.0,1.0,2.0,2.0,258.3408269999836,1.0,1.0,phase_1,,,,,,,,,,,,,magenta,circle
202.0,3.0,3.0,0.0,2.0,2.0,237.6307570000335,1.0,1.0,phase_1,,,,,,,,,,,,,cyan,cross
412.0,4.0,4.0,0.0,3.0,3.0,324.6020179999505,1.0,1.0,phase_1,,,,,,,,,,,,,yellow,triangle
0.0,2.0,0.0,0.0,3.0,3.0,318.5654229998818,1.0,1.0,phase_1,,,,,,,,,,,,,green,hexagon
26.0,1.0,1.0,0.0,3.0,3.0,242.2696629998881,1.0,1.0,phase_1,,,,,,,,,,,,,blue,diamond
220.0,3.0,3.0,0.0,1.0,1.0,279.0598480000881,1.0,1.0,phase_1,,,,,,,,,,,,,cyan,cross
179.0,7.0,3.0,1.0,4.0,4.0,278.7854860000607,1.0,1.0,phase_1,,,,,,,,,,,,,orange,square
383.0,8.0,4.0,1.0,3.0,3.0,250.63331999990618,1.0,1.0,phase_1,,,,,,,,,,,,,white,flipped triangle
105.0,2.0,2.0,0.0,1.0,1.0,311.5069210000456,1.0,1.0,phase_1,,,,,,,,,,,,,green,hexagon
396.0,4.0,4.0,0.0,2.0,2.0,329.4468880001204,1.0,1.0,phase_1,,,,,,,,,,,,,yellow,triangle
71.0,1.0,1.0,0.0,3.0,3.0,287.4135150000256,1.0,1.0,phase_1,,,,,,,,,,,,,blue,diamond
116.0,2.0,2.0,0.0,1.0,1.0,287.0719510001436,1.0,1.0,phase_1,,,,,,,,,,,,,green,hexagon
0.0,4.0,0.0,0.0,2.0,2.0,289.1659790000176,1.0,1.0,phase_1,,,,,,,,,,,,,yellow,triangle
0.0,3.0,0.0,0.0,4.0,4.0,279.6706110000286,1.0,1.0,phase_1,,,,,,,,,,,,,cyan,cross
71.0,5.0,1.0,1.0,4.0,4.0,345.5192040000838,1.0,1.0,phase_1,,,,,,,,,,,,,gray,I
36.0,1.0,1.0,0.0,4.0,4.0,288.0798149999464,1.0,1.0,phase_1,,,,,,,,,,,,,blue,diamond
105.0,6.0,2.0,1.0,3.0,3.0,266.4698219998627,1.0,1.0,phase_1,,,,,,,,,,,,,magenta,circle
34.0,1.0,1.0,0.0,3.0,3.0,249.6090299998741,1.0,1.0,phase_1,,,,,,,,,,,,,blue,diamond
220.0,3.0,3.0,0.0,3.0,3.0,278.4379510001145,1.0,1.0,phase_1,,,,,,,,,,,,,cyan,cross
0.0,4.0,0.0,0.0,3.0,3.0,257.4991399999362,1.0,1.0,phase_1,,,,,,,,,,,,,yellow,triangle
381.0,8.0,4.0,1.0,2.0,2.0,304.2727570000352,1.0,1.0,phase_1,,,,,,,,,,,,,white,flipped triangle
191.0,3.0,3.0,0.0,2.0,2.0,300.4402829999435,1.0,1.0,phase_1,,,,,,,,,,,,,cyan,cross
206.0,7.0,3.0,1.0,4.0,4.0,298.9216710000164,1.0,1.0,phase_1,,,,,,,,,,,,,orange,square
111.0,6.0,2.0,1.0,3.0,3.0,279.3527389999326,1.0,1.0,phase_1,,,,,,,,,,,,,magenta,circle
58.0,5.0,1.0,1.0,1.0,1.0,282.3299260001022,1.0,1.0,phase_1,,,,,,,,,,,,,gray,I
177.0,7.0,3.0,1.0,2.0,2.0,253.59030799995708,1.0,1.0,phase_1,,,,,,,,,,,,,orange,square
122.0,6.0,2.0,1.0,4.0,4.0,266.3066840000283,1.0,1.0,phase_1,,,,,,,,,,,,,magenta,circle
220.0,3.0,3.0,0.0,2.0,2.0,245.6473950001054,1.0,1.0,phase_1,,,,,,,,,,,,,cyan,cross
0.0,3.0,0.0,0.0,4.0,4.0,275.0501839998378,1.0,1.0,phase_1,,,,,,,,,,,,,cyan,cross
0.0,3.0,0.0,0.0,1.0,1.0,275.5423360001714,1.0,1.0,phase_1,,,,,,,,,,,,,cyan,cross
409.0,4.0,4.0,0.0,3.0,3.0,262.8410059999169,1.0,1.0,phase_1,,,,,,,,,,,,,yellow,triangle
192.0,3.0,3.0,0.0,2.0,2.0,259.0414059998238,1.0,1.0,phase_1,,,,,,,,,,,,,cyan,cross
110.0,6.0,2.0,1.0,3.0,3.0,277.7190659999178,1.0,1.0,phase_1,,,,,,,,,,,,,magenta,circle
413.0,8.0,4.0,1.0,2.0,2.0,226.5068649999193,1.0,1.0,phase_1,,,,,,,,,,,,,white,flipped triangle
68.0,1.0,1.0,0.0,1.0,1.0,274.3982930001039,1.0,1.0,phase_1,,,,,,,,,,,,,blue,diamond
210.0,7.0,3.0,1.0,1.0,1.0,333.9814870000737,1.0,1.0,phase_1,,,,,,,,,,,,,orange,square
92.0,2.0,2.0,0.0,1.0,1.0,283.3934580000914,1.0,1.0,phase_1,,,,,,,,,,,,,green,hexagon
397.0,8.0,4.0,1.0,3.0,3.0,296.7725129999508,1.0,1.0,phase_1,,,,,,,,,,,,,white,flipped triangle
0.0,3.0,0.0,0.0,2.0,2.0,316.6963270000451,1.0,1.0,phase_1,,,,,,,,,,,,,cyan,cross
219.0,7.0,3.0,1.0,2.0,2.0,262.237647999882,1.0,1.0,phase_1,,,,,,,,,,,,,orange,square
375.0,8.0,4.0,1.0,4.0,4.0,306.9802210000034,1.0,1.0,phase_1,,,,,,,,,,,,,white,flipped triangle
175.0,7.0,3.0,1.0,2.0,2.0,233.4505199999057,1.0,1.0,phase_1,,,,,,,,,,,,,orange,square
91.0,2.0,2.0,0.0,3.0,3.0,287.3789230000056,1.0,1.0,phase_1,,,,,,,,,,,,,green,hexagon
0.0,6.0,0.0,1.0,1.0,1.0,258.5750200000802,1.0,1.0,phase_1,,,,,,,,,,,,,magenta,circle
114.0,2.0,2.0,0.0,2.0,2.0,261.5759560001152,1.0,1.0,phase_1,,,,,,,,,,,,,green,hexagon
0.0,8.0,0.0,1.0,2.0,2.0,286.6523569998662,1.0,1.0,phase_1,,,,,,,,,,,,,white,flipped triangle
423.0,4.0,4.0,0.0,1.0,1.0,290.5273429998942,1.0,1.0,phase_1,,,,,,,,,,,,,yellow,triangle
194.0,7.0,3.0,1.0,4.0,4.0,316.6909640001449,1.0,1.0,phase_1,,,,,,,,,,,,,orange,square
122.0,2.0,2.0,0.0,1.0,1.0,307.5267859999258,1.0,1.0,phase_1,,,,,,,,,,,,,green,hexagon
0.0,1.0,0.0,0.0,4.0,4.0,323.4094429999459,1.0,2.0,phase_1,,,,,,,,,,,,,blue,diamond
119.0,2.0,2.0,0.0,2.0,2.0,311.0648730000775,1.0,1.0,phase_1,,,,,,,,,,,,,green,hexagon
0.0,4.0,0.0,0.0,1.0,1.0,335.5195879998973,1.0,1.0,phase_1,,,,,,,,,,,,,yellow,triangle
89.0,2.0,2.0,0.0,3.0,3.0,315.0932700000339,1.0,1.0,phase_1,,,,,,,,,,,,,green,hexagon
0.0,8.0,0.0,1.0,4.0,4.0,303.1652180000037,1.0,1.0,phase_1,,,,,,,,,,,,,white,flipped triangle
0.0,1.0,0.0,0.0,3.0,3.0,274.3704960000741,1.0,1.0,phase_1,,,,,,,,,,,,,blue,diamond
114.0,6.0,2.0,1.0,2.0,2.0,286.8952569999692,1.0,1.0,phase_1,,,,,,,,,,,,,magenta,circle
404.0,4.0,4.0,0.0,4.0,4.0,326.4843560000372,1.0,1.0,phase_1,,,,,,,,,,,,,yellow,triangle
220.0,7.0,3.0,1.0,3.0,3.0,250.09242500004802,1.0,1.0,phase_1,,,,,,,,,,,,,orange,square
395.0,4.0,4.0,0.0,1.0,1.0,340.8711639999637,1.0,1.0,phase_1,,,,,,,,,,,,,yellow,triangle
46.0,5.0,1.0,1.0,3.0,3.0,314.4878329999301,1.0,1.0,phase_1,,,,,,,,,,,,,gray,I
417.0,4.0,4.0,0.0,3.0,3.0,336.394878999954,1.0,1.0,phase_1,,,,,,,,,,,,,yellow,triangle
0.0,7.0,0.0,1.0,3.0,3.0,316.2414040000385,1.0,1.0,phase_1,,,,,,,,,,,,,orange,square
397.0,4.0,4.0,0.0,1.0,1.0,377.9972779998388,2.0,1.0,phase_1,,,,,,,,,,,,,yellow,triangle
0.0,5.0,0.0,1.0,2.0,2.0,288.1748459999471,2.0,1.0,phase_1,,,,,,,,,,,,,gray,I
80.0,2.0,2.0,0.0,2.0,2.0,308.9042829999471,2.0,1.0,phase_1,,,,,,,,,,,,,green,hexagon
214.0,7.0,3.0,1.0,3.0,3.0,296.4172110000618,2.0,1.0,phase_1,,,,,,,,,,,,,orange,square
41.0,1.0,1.0,0.0,1.0,1.0,333.2777369998894,2.0,1.0,phase_1,,,,,,,,,,,,,blue,diamond
416.0,4.0,4.0,0.0,4.0,4.0,296.0082380000131,2.0,1.0,phase_1,,,,,,,,,,,,,yellow,triangle
44.0,5.0,1.0,1.0,1.0,1.0,317.506369000057,2.0,1.0,phase_1,,,,,,,,,,,,,gray,I
420.0,8.0,4.0,1.0,4.0,4.0,324.573816000111,2.0,1.0,phase_1,,,,,,,,,,,,,white,flipped triangle
0.0,8.0,0.0,1.0,2.0,2.0,303.9918960000705,2.0,1.0,phase_1,,,,,,,,,,,,,white,flipped triangle
76.0,6.0,2.0,1.0,1.0,1.0,325.3716420001638,2.0,1.0,phase_1,,,,,,,,,,,,,magenta,circle
82.0,6.0,2.0,1.0,4.0,4.0,303.5216559999298,2.0,1.0,phase_1,,,,,,,,,,,,,magenta,circle
45.0,5.0,1.0,1.0,2.0,2.0,270.5713220000234,2.0,1.0,phase_1,,,,,,,,,,,,,gray,I
82.0,2.0,2.0,0.0,1.0,1.0,251.18087700002428,2.0,1.0,phase_1,,,,,,,,,,,,,green,hexagon
75.0,2.0,2.0,0.0,2.0,2.0,262.7786330001527,2.0,1.0,phase_1,,,,,,,,,,,,,green,hexagon
0.0,5.0,0.0,1.0,4.0,4.0,266.8312549999427,2.0,1.0,phase_1,,,,,,,,,,,,,gray,I
175.0,3.0,3.0,0.0,2.0,2.0,407.1566259999599,2.0,1.0,phase_1,,,,,,,,,,,,,cyan,cross
403.0,8.0,4.0,1.0,1.0,1.0,270.5249990001448,2.0,1.0,phase_1,,,,,,,,,,,,,white,flipped triangle
108.0,2.0,2.0,0.0,3.0,3.0,258.406222000076,2.0,1.0,phase_1,,,,,,,,,,,,,green,hexagon
212.0,7.0,3.0,1.0,3.0,3.0,280.4869440001312,2.0,1.0,phase_1,,,,,,,,,,,,,orange,square
0.0,7.0,0.0,1.0,2.0,2.0,259.4814859999133,2.0,1.0,phase_1,,,,,,,,,,,,,orange,square
0.0,7.0,0.0,1.0,4.0,4.0,262.338604000206,2.0,1.0,phase_1,,,,,,,,,,,,,orange,square
111.0,2.0,2.0,0.0,4.0,4.0,308.8098660000469,2.0,1.0,phase_1,,,,,,,,,,,,,green,hexagon
376.0,4.0,4.0,0.0,2.0,2.0,263.5164900000291,2.0,1.0,phase_1,,,,,,,,,,,,,yellow,triangle
221.0,3.0,3.0,0.0,4.0,4.0,278.722843999958,2.0,1.0,phase_1,,,,,,,,,,,,,cyan,cross
0.0,1.0,0.0,0.0,1.0,1.0,284.6380270000281,2.0,1.0,phase_1,,,,,,,,,,,,,blue,diamond
0.0,7.0,0.0,1.0,1.0,1.0,264.0606009999828,2.0,1.0,phase_1,,,,,,,,,,,,,orange,square
123.0,2.0,2.0,0.0,2.0,2.0,283.1959590000679,2.0,1.0,phase_1,,,,,,,,,,,,,green,hexagon
207.0,3.0,3.0,0.0,4.0,4.0,259.1325509999933,2.0,1.0,phase_1,,,,,,,,,,,,,cyan,cross
187.0,3.0,3.0,0.0,1.0,1.0,259.3882940000185,2.0,1.0,phase_1,,,,,,,,,,,,,cyan,cross
181.0,3.0,3.0,0.0,1.0,1.0,242.8250530001605,2.0,1.0,phase_1,,,,,,,,,,,,,cyan,cross
0.0,8.0,0.0,1.0,2.0,2.0,271.98741899997,2.0,1.0,phase_1,,,,,,,,,,,,,white,flipped triangle
60.0,1.0,1.0,0.0,4.0,4.0,317.9653279999002,2.0,1.0,phase_1,,,,,,,,,,,,,blue,diamond
417.0,8.0,4.0,1.0,4.0,4.0,297.1674159998656,2.0,1.0,phase_1,,,,,,,,,,,,,white,flipped triangle
0.0,6.0,0.0,1.0,1.0,1.0,258.8828919999741,2.0,1.0,phase_1,,,,,,,,,,,,,magenta,circle
0.0,5.0,0.0,1.0,3.0,3.0,271.8168320000131,2.0,1.0,phase_1,,,,,,,,,,,,,gray,I
387.0,4.0,4.0,0.0,2.0,2.0,284.556713000029,2.0,1.0,phase_1,,,,,,,,,,,,,yellow,triangle
77.0,2.0,2.0,0.0,2.0,2.0,250.27246699983152,2.0,1.0,phase_1,,,,,,,,,,,,,green,hexagon
86.0,2.0,2.0,0.0,2.0,2.0,255.85409299992529,2.0,1.0,phase_1,,,,,,,,,,,,,green,hexagon
76.0,2.0,2.0,0.0,3.0,3.0,274.6791339998253,2.0,1.0,phase_1,,,,,,,,,,,,,green,hexagon
391.0,8.0,4.0,1.0,2.0,2.0,254.71405299981598,2.0,1.0,phase_1,,,,,,,,,,,,,white,flipped triangle
206.0,3.0,3.0,0.0,4.0,4.0,276.0461930001838,2.0,1.0,phase_1,,,,,,,,,,,,,cyan,cross
52.0,5.0,1.0,1.0,1.0,1.0,296.8626809999932,2.0,1.0,phase_1,,,,,,,,,,,,,gray,I
391.0,4.0,4.0,0.0,3.0,3.0,264.1147050001109,2.0,1.0,phase_1,,,,,,,,,,,,,yellow,triangle
0.0,5.0,0.0,1.0,4.0,4.0,394.8439939999844,2.0,1.0,phase_1,,,,,,,,,,,,,gray,I
53.0,1.0,1.0,0.0,4.0,4.0,336.7005000000063,2.0,1.0,phase_1,,,,,,,,,,,,,blue,diamond
64.0,1.0,1.0,0.0,2.0,2.0,269.5968409998386,2.0,1.0,phase_1,,,,,,,,,,,,,blue,diamond
0.0,2.0,0.0,0.0,3.0,3.0,256.3703460000397,2.0,1.0,phase_1,,,,,,,,,,,,,green,hexagon
87.0,6.0,2.0,1.0,3.0,3.0,287.8726760000063,2.0,1.0,phase_1,,,,,,,,,,,,,magenta,circle
70.0,5.0,1.0,1.0,3.0,3.0,276.1538929999005,2.0,1.0,phase_1,,,,,,,,,,,,,gray,I
390.0,8.0,4.0,1.0,2.0,2.0,312.7672620000794,2.0,1.0,phase_1,,,,,,,,,,,,,white,flipped triangle
42.0,5.0,1.0,1.0,3.0,3.0,323.590865999904,2.0,1.0,phase_1,,,,,,,,,,,,,gray,I
98.0,6.0,2.0,1.0,1.0,1.0,282.598617000076,2.0,1.0,phase_1,,,,,,,,,,,,,magenta,circle
184.0,3.0,3.0,0.0,1.0,1.0,279.2309799999657,2.0,1.0,phase_1,,,,,,,,,,,,,cyan,cross
26.0,5.0,1.0,1.0,1.0,1.0,267.6600699999198,2.0,1.0,phase_1,,,,,,,,,,,,,gray,I
119.0,6.0,2.0,1.0,3.0,3.0,296.2191770000117,2.0,1.0,phase_1,,,,,,,,,,,,,magenta,circle
114.0,2.0,2.0,0.0,4.0,4.0,284.6645590000207,2.0,1.0,phase_1,,,,,,,,,,,,,green,hexagon
387.0,4.0,4.0,0.0,1.0,1.0,250.90124400003327,2.0,1.0,phase_1,,,,,,,,,,,,,yellow,triangle
103.0,6.0,2.0,1.0,2.0,2.0,315.83007800009,2.0,1.0,phase_1,,,,,,,,,,,,,magenta,circle
71.0,1.0,1.0,0.0,2.0,2.0,274.7150220000094,2.0,1.0,phase_1,,,,,,,,,,,,,blue,diamond
97.0,6.0,2.0,1.0,4.0,4.0,295.8990549998361,2.0,1.0,phase_1,,,,,,,,,,,,,magenta,circle
0.0,8.0,0.0,1.0,2.0,2.0,284.633913000107,2.0,1.0,phase_1,,,,,,,,,,,,,white,flipped triangle
0.0,6.0,0.0,1.0,4.0,4.0,288.0869969999367,2.0,1.0,phase_1,,,,,,,,,,,,,magenta,circle
420.0,4.0,4.0,0.0,4.0,4.0,283.969260999811,2.0,1.0,phase_1,,,,,,,,,,,,,yellow,triangle
47.0,5.0,1.0,1.0,4.0,4.0,295.764360000021,2.0,1.0,phase_1,,,,,,,,,,,,,gray,I
0.0,3.0,0.0,0.0,4.0,4.0,275.1310489998104,2.0,2.0,phase_1,,,,,,,,,,,,,cyan,cross
416.0,8.0,4.0,1.0,2.0,2.0,319.8217340000155,2.0,1.0,phase_1,,,,,,,,,,,,,white,flipped triangle
30.0,1.0,1.0,0.0,1.0,1.0,346.1283500000718,2.0,1.0,phase_1,,,,,,,,,,,,,blue,diamond
223.0,3.0,3.0,0.0,1.0,1.0,288.247568000088,2.0,1.0,phase_1,,,,,,,,,,,,,cyan,cross
210.0,3.0,3.0,0.0,1.0,1.0,341.4029990001381,2.0,1.0,phase_1,,,,,,,,,,,,,cyan,cross
422.0,4.0,4.0,0.0,1.0,1.0,306.1677800001234,2.0,1.0,phase_1,,,,,,,,,,,,,yellow,triangle
70.0,1.0,1.0,0.0,2.0,2.0,293.0531550000523,2.0,1.0,phase_1,,,,,,,,,,,,,blue,diamond
71.0,5.0,1.0,1.0,1.0,1.0,314.2452760000651,2.0,1.0,phase_1,,,,,,,,,,,,,gray,I
389.0,4.0,4.0,0.0,4.0,4.0,320.4710070001511,2.0,1.0,phase_1,,,,,,,,,,,,,yellow,triangle
47.0,1.0,1.0,0.0,4.0,4.0,300.0266460001057,2.0,1.0,phase_1,,,,,,,,,,,,,blue,diamond
423.0,8.0,4.0,1.0,3.0,3.0,312.8897859999142,2.0,1.0,phase_1,,,,,,,,,,,,,white,flipped triangle
176.0,3.0,3.0,0.0,1.0,1.0,284.341650999977,2.0,1.0,phase_1,,,,,,,,,,,,,cyan,cross
39.0,5.0,1.0,1.0,1.0,1.0,329.7334520000277,2.0,1.0,phase_1,,,,,,,,,,,,,gray,I
63.0,5.0,1.0,1.0,1.0,1.0,365.8627069999056,2.0,1.0,phase_1,,,,,,,,,,,,,gray,I
0.0,6.0,0.0,1.0,2.0,2.0,284.2100220000247,2.0,1.0,phase_1,,,,,,,,,,,,,magenta,circle
186.0,3.0,3.0,0.0,2.0,2.0,271.8460159999267,2.0,1.0,phase_1,,,,,,,,,,,,,cyan,cross
376.0,8.0,4.0,1.0,2.0,2.0,262.9127320001316,2.0,1.0,phase_1,,,,,,,,,,,,,white,flipped triangle
68.0,5.0,1.0,1.0,3.0,3.0,275.5292809999901,2.0,1.0,phase_1,,,,,,,,,,,,,gray,I
385.0,8.0,4.0,1.0,3.0,3.0,295.0378569998975,2.0,1.0,phase_1,,,,,,,,,,,,,white,flipped triangle
58.0,5.0,1.0,1.0,4.0,4.0,284.3851510001514,2.0,1.0,phase_1,,,,,,,,,,,,,gray,I
72.0,1.0,1.0,0.0,3.0,3.0,255.8208489999742,2.0,1.0,phase_1,,,,,,,,,,,,,blue,diamond
391.0,4.0,4.0,0.0,4.0,4.0,308.5253529998226,2.0,1.0,phase_1,,,,,,,,,,,,,yellow,triangle
0.0,2.0,0.0,0.0,1.0,1.0,291.8912909999562,2.0,1.0,phase_1,,,,,,,,,,,,,green,hexagon
70.0,5.0,1.0,1.0,3.0,3.0,263.8000140000258,2.0,1.0,phase_1,,,,,,,,,,,,,gray,I
34.0,5.0,1.0,1.0,2.0,2.0,305.788585000073,2.0,1.0,phase_1,,,,,,,,,,,,,gray,I
185.0,7.0,3.0,1.0,2.0,2.0,254.16190399982952,2.0,1.0,phase_1,,,,,,,,,,,,,orange,square
386.0,4.0,4.0,0.0,2.0,2.0,317.1259349999218,2.0,1.0,phase_1,,,,,,,,,,,,,yellow,triangle
397.0,4.0,4.0,0.0,4.0,4.0,329.7861470000498,2.0,1.0,phase_1,,,,,,,,,,,,,yellow,triangle
113.0,6.0,2.0,1.0,1.0,1.0,348.4096910001426,2.0,1.0,phase_1,,,,,,,,,,,,,magenta,circle
385.0,4.0,4.0,0.0,3.0,3.0,308.8106849997984,2.0,1.0,phase_1,,,,,,,,,,,,,yellow,triangle
191.0,7.0,3.0,1.0,1.0,1.0,295.500261999905,2.0,1.0,phase_1,,,,,,,,,,,,,orange,square
195.0,3.0,3.0,0.0,3.0,3.0,292.4750490001315,2.0,1.0,phase_1,,,,,,,,,,,,,cyan,cross
383.0,4.0,4.0,0.0,4.0,4.0,337.4444270000367,2.0,1.0,phase_1,,,,,,,,,,,,,yellow,triangle
192.0,7.0,3.0,1.0,1.0,1.0,291.642690999879,2.0,1.0,phase_1,,,,,,,,,,,,,orange,square
197.0,3.0,3.0,0.0,3.0,3.0,344.5279339998706,2.0,1.0,phase_1,,,,,,,,,,,,,cyan,cross
80.0,6.0,2.0,1.0,1.0,1.0,286.2562089999301,2.0,1.0,phase_1,,,,,,,,,,,,,magenta,circle
110.0,2.0,2.0,0.0,1.0,1.0,280.6014669999968,3.0,1.0,phase_1,,,,,,,,,,,,,green,hexagon
389.0,8.0,4.0,1.0,3.0,3.0,281.3855479998892,3.0,1.0,phase_1,,,,,,,,,,,,,white,flipped triangle
52.0,1.0,1.0,0.0,3.0,3.0,291.756924999845,3.0,1.0,phase_1,,,,,,,,,,,,,blue,diamond
106.0,6.0,2.0,1.0,4.0,4.0,295.3734039999744,3.0,1.0,phase_1,,,,,,,,,,,,,magenta,circle
217.0,3.0,3.0,0.0,2.0,2.0,316.0000670000045,3.0,1.0,phase_1,,,,,,,,,,,,,cyan,cross
87.0,2.0,2.0,0.0,3.0,3.0,271.7957049999313,3.0,1.0,phase_1,,,,,,,,,,,,,green,hexagon
189.0,7.0,3.0,1.0,3.0,3.0,296.2058220000472,3.0,1.0,phase_1,,,,,,,,,,,,,orange,square
109.0,6.0,2.0,1.0,2.0,2.0,291.7783269999745,3.0,1.0,phase_1,,,,,,,,,,,,,magenta,circle
0.0,3.0,0.0,0.0,2.0,2.0,304.2670479999287,3.0,1.0,phase_1,,,,,,,,,,,,,cyan,cross
0.0,8.0,0.0,1.0,2.0,2.0,324.6960569999828,3.0,1.0,phase_1,,,,,,,,,,,,,white,flipped triangle
0.0,7.0,0.0,1.0,3.0,3.0,255.2890690001277,3.0,1.0,phase_1,,,,,,,,,,,,,orange,square
391.0,8.0,4.0,1.0,2.0,2.0,267.4684720000186,3.0,1.0,phase_1,,,,,,,,,,,,,white,flipped triangle
223.0,7.0,3.0,1.0,1.0,1.0,328.5263680002117,3.0,1.0,phase_1,,,,,,,,,,,,,orange,square
91.0,6.0,2.0,1.0,2.0,2.0,287.1764879998864,3.0,1.0,phase_1,,,,,,,,,,,,,magenta,circle
28.0,1.0,1.0,0.0,2.0,2.0,292.5167640000836,3.0,1.0,phase_1,,,,,,,,,,,,,blue,diamond
0.0,3.0,0.0,0.0,1.0,1.0,288.7839810000514,3.0,1.0,phase_1,,,,,,,,,,,,,cyan,cross
420.0,8.0,4.0,1.0,1.0,1.0,299.5132690000446,3.0,1.0,phase_1,,,,,,,,,,,,,white,flipped triangle
381.0,4.0,4.0,0.0,1.0,1.0,279.9775270000282,3.0,1.0,phase_1,,,,,,,,,,,,,yellow,triangle
92.0,6.0,2.0,1.0,4.0,4.0,308.7458590000551,3.0,1.0,phase_1,,,,,,,,,,,,,magenta,circle
68.0,5.0,1.0,1.0,2.0,2.0,284.2279789999793,3.0,1.0,phase_1,,,,,,,,,,,,,gray,I
389.0,8.0,4.0,1.0,2.0,2.0,287.686623999889,3.0,1.0,phase_1,,,,,,,,,,,,,white,flipped triangle
47.0,1.0,1.0,0.0,2.0,2.0,299.7534300000097,3.0,1.0,phase_1,,,,,,,,,,,,,blue,diamond
41.0,5.0,1.0,1.0,4.0,4.0,329.9049270001433,3.0,1.0,phase_1,,,,,,,,,,,,,gray,I
180.0,7.0,3.0,1.0,2.0,2.0,279.2728520000764,3.0,1.0,phase_1,,,,,,,,,,,,,orange,square
409.0,8.0,4.0,1.0,1.0,1.0,284.5395150000058,3.0,1.0,phase_1,,,,,,,,,,,,,white,flipped triangle
0.0,7.0,0.0,1.0,2.0,2.0,287.5671490000968,3.0,1.0,phase_1,,,,,,,,,,,,,orange,square
70.0,1.0,1.0,0.0,1.0,1.0,290.8813640001426,3.0,1.0,phase_1,,,,,,,,,,,,,blue,diamond
68.0,1.0,1.0,0.0,2.0,2.0,279.9240540000483,3.0,1.0,phase_1,,,,,,,,,,,,,blue,diamond
121.0,6.0,2.0,1.0,1.0,1.0,275.5108169999403,3.0,1.0,phase_1,,,,,,,,,,,,,magenta,circle
219.0,3.0,3.0,0.0,2.0,2.0,265.5104590000974,3.0,1.0,phase_1,,,,,,,,,,,,,cyan,cross
189.0,3.0,3.0,0.0,4.0,4.0,324.5645810000042,3.0,2.0,phase_1,,,,,,,,,,,,,cyan,cross
97.0,2.0,2.0,0.0,3.0,3.0,304.4637299999522,3.0,1.0,phase_1,,,,,,,,,,,,,green,hexagon
114.0,6.0,2.0,1.0,2.0,2.0,347.944858999881,3.0,1.0,phase_1,,,,,,,,,,,,,magenta,circle
70.0,5.0,1.0,1.0,2.0,2.0,335.893464000037,3.0,1.0,phase_1,,,,,,,,,,,,,gray,I
56.0,1.0,1.0,0.0,4.0,4.0,336.3076199998431,3.0,1.0,phase_1,,,,,,,,,,,,,blue,diamond
0.0,7.0,0.0,1.0,3.0,3.0,274.8089949998302,3.0,1.0,phase_1,,,,,,,,,,,,,orange,square
396.0,8.0,4.0,1.0,4.0,4.0,327.7291770000374,3.0,1.0,phase_1,,,,,,,,,,,,,white,flipped triangle
0.0,1.0,0.0,0.0,3.0,3.0,260.4733719999785,3.0,1.0,phase_1,,,,,,,,,,,,,blue,diamond
103.0,2.0,2.0,0.0,4.0,4.0,287.6928409998527,3.0,1.0,phase_1,,,,,,,,,,,,,green,hexagon
412.0,8.0,4.0,1.0,4.0,4.0,308.5982559998683,3.0,1.0,phase_1,,,,,,,,,,,,,white,flipped triangle
220.0,7.0,3.0,1.0,2.0,2.0,283.69563199998987,3.0,1.0,phase_1,,,,,,,,,,,,,orange,square
80.0,2.0,2.0,0.0,3.0,3.0,280.2903379999861,3.0,1.0,phase_1,,,,,,,,,,,,,green,hexagon
0.0,1.0,0.0,0.0,3.0,3.0,291.8969629999992,3.0,1.0,phase_1,,,,,,,,,,,,,blue,diamond
30.0,5.0,1.0,1.0,3.0,3.0,318.9281770000889,3.0,1.0,phase_1,,,,,,,,,,,,,gray,I
389.0,4.0,4.0,0.0,3.0,3.0,271.022769999945,3.0,1.0,phase_1,,,,,,,,,,,,,yellow,triangle
26.0,1.0,1.0,0.0,4.0,4.0,314.1536230000383,3.0,1.0,phase_1,,,,,,,,,,,,,blue,diamond
45.0,1.0,1.0,0.0,1.0,1.0,308.9092929999424,3.0,1.0,phase_1,,,,,,,,,,,,,blue,diamond
60.0,5.0,1.0,1.0,2.0,2.0,339.7752269997909,3.0,1.0,phase_1,,,,,,,,,,,,,gray,I
403.0,4.0,4.0,0.0,3.0,3.0,328.5883029998331,3.0,1.0,phase_1,,,,,,,,,,,,,yellow,triangle
419.0,8.0,4.0,1.0,4.0,4.0,342.9519789999631,3.0,1.0,phase_1,,,,,,,,,,,,,white,flipped triangle
36.0,5.0,1.0,1.0,3.0,3.0,295.5494220000219,3.0,1.0,phase_1,,,,,,,,,,,,,gray,I
123.0,2.0,2.0,0.0,4.0,4.0,388.8335829999505,3.0,1.0,phase_1,,,,,,,,,,,,,green,hexagon
0.0,6.0,0.0,1.0,3.0,3.0,296.5212740000424,3.0,1.0,phase_1,,,,,,,,,,,,,magenta,circle
109.0,2.0,2.0,0.0,1.0,1.0,321.5581099998417,3.0,1.0,phase_1,,,,,,,,,,,,,green,hexagon
191.0,3.0,3.0,0.0,3.0,3.0,266.6603159998431,3.0,1.0,phase_1,,,,,,,,,,,,,cyan,cross
0.0,4.0,0.0,0.0,1.0,1.0,303.4840899999835,3.0,1.0,phase_1,,,,,,,,,,,,,yellow,triangle
377.0,8.0,4.0,1.0,1.0,1.0,278.969300999961,3.0,1.0,phase_1,,,,,,,,,,,,,white,flipped triangle
0.0,4.0,0.0,0.0,1.0,1.0,283.5989039999731,3.0,1.0,phase_1,,,,,,,,,,,,,yellow,triangle
36.0,5.0,1.0,1.0,2.0,2.0,348.9504049998686,3.0,1.0,phase_1,,,,,,,,,,,,,gray,I
28.0,5.0,1.0,1.0,1.0,1.0,332.1642549999524,3.0,1.0,phase_1,,,,,,,,,,,,,gray,I
0.0,2.0,0.0,0.0,4.0,4.0,348.4371819999978,3.0,2.0,phase_1,,,,,,,,,,,,,green,hexagon
212.0,3.0,3.0,0.0,3.0,3.0,336.5874500000245,3.0,1.0,phase_1,,,,,,,,,,,,,cyan,cross
29.0,1.0,1.0,0.0,2.0,2.0,293.3754139999109,3.0,1.0,phase_1,,,,,,,,,,,,,blue,diamond
413.0,4.0,4.0,0.0,2.0,2.0,324.0015549999953,3.0,1.0,phase_1,,,,,,,,,,,,,yellow,triangle
187.0,7.0,3.0,1.0,3.0,3.0,319.7978099999545,3.0,1.0,phase_1,,,,,,,,,,,,,orange,square
205.0,7.0,3.0,1.0,1.0,1.0,324.6998600000097,3.0,1.0,phase_1,,,,,,,,,,,,,orange,square
92.0,2.0,2.0,0.0,4.0,4.0,309.9155190000147,3.0,2.0,phase_1,,,,,,,,,,,,,green,hexagon
419.0,4.0,4.0,0.0,3.0,3.0,298.7657000001036,3.0,1.0,phase_1,,,,,,,,,,,,,yellow,triangle
47.0,5.0,1.0,1.0,2.0,2.0,359.6154059998753,3.0,1.0,phase_1,,,,,,,,,,,,,gray,I
197.0,7.0,3.0,1.0,2.0,2.0,317.1198640000057,3.0,1.0,phase_1,,,,,,,,,,,,,orange,square
377.0,4.0,4.0,0.0,3.0,3.0,342.5587460001225,3.0,1.0,phase_1,,,,,,,,,,,,,yellow,triangle
0.0,7.0,0.0,1.0,4.0,4.0,325.886674000003,3.0,1.0,phase_1,,,,,,,,,,,,,orange,square
181.0,7.0,3.0,1.0,1.0,1.0,328.6184510000112,3.0,1.0,phase_1,,,,,,,,,,,,,orange,square
207.0,7.0,3.0,1.0,4.0,4.0,324.9697799999467,3.0,1.0,phase_1,,,,,,,,,,,,,orange,square
0.0,8.0,0.0,1.0,2.0,2.0,337.3702219998904,3.0,1.0,phase_1,,,,,,,,,,,,,white,flipped triangle
184.0,7.0,3.0,1.0,4.0,4.0,319.2738299999291,3.0,1.0,phase_1,,,,,,,,,,,,,orange,square
0.0,1.0,0.0,0.0,4.0,4.0,306.6602920000605,3.0,1.0,phase_1,,,,,,,,,,,,,blue,diamond
404.0,8.0,4.0,1.0,1.0,1.0,288.196993000156,3.0,1.0,phase_1,,,,,,,,,,,,,white,flipped triangle
418.0,4.0,4.0,0.0,4.0,4.0,295.8316719998493,3.0,1.0,phase_1,,,,,,,,,,,,,yellow,triangle
420.0,4.0,4.0,0.0,1.0,1.0,308.953486000064,3.0,1.0,phase_1,,,,,,,,,,,,,yellow,triangle
0.0,4.0,0.0,0.0,1.0,1.0,319.1606169998522,3.0,1.0,phase_1,,,,,,,,,,,,,yellow,triangle
217.0,7.0,3.0,1.0,3.0,3.0,299.3309209998642,3.0,1.0,phase_1,,,,,,,,,,,,,orange,square
0.0,2.0,0.0,0.0,1.0,1.0,297.6673069999833,3.0,1.0,phase_1,,,,,,,,,,,,,green,hexagon
59.0,5.0,1.0,1.0,4.0,4.0,299.7745930001656,3.0,1.0,phase_1,,,,,,,,,,,,,gray,I
34.0,1.0,1.0,0.0,2.0,2.0,345.6646520000959,3.0,1.0,phase_1,,,,,,,,,,,,,blue,diamond
0.0,2.0,0.0,0.0,1.0,1.0,303.6098360000778,3.0,1.0,phase_1,,,,,,,,,,,,,green,hexagon
34.0,5.0,1.0,1.0,4.0,4.0,298.63064999995,3.0,1.0,phase_1,,,,,,,,,,,,,gray,I
105.0,6.0,2.0,1.0,4.0,4.0,304.089987999987,3.0,1.0,phase_1,,,,,,,,,,,,,magenta,circle
91.0,2.0,2.0,0.0,3.0,3.0,331.75171400012,3.0,1.0,phase_1,,,,,,,,,,,,,green,hexagon
29.0,5.0,1.0,1.0,2.0,2.0,320.2221320000262,3.0,1.0,phase_1,,,,,,,,,,,,,gray,I
0.0,7.0,0.0,1.0,2.0,2.0,311.5007480000713,3.0,1.0,phase_1,,,,,,,,,,,,,orange,square
195.0,7.0,3.0,1.0,3.0,3.0,304.8335070000121,3.0,1.0,phase_1,,,,,,,,,,,,,orange,square
206.0,7.0,3.0,1.0,4.0,4.0,303.6565150000569,3.0,1.0,phase_1,,,,,,,,,,,,,orange,square
410.0,4.0,4.0,0.0,2.0,2.0,300.3852920001009,3.0,1.0,phase_1,,,,,,,,,,,,,yellow,triangle
0.0,5.0,0.0,1.0,1.0,1.0,281.9719780000014,3.0,1.0,phase_1,,,,,,,,,,,,,gray,I
417.0,8.0,4.0,1.0,3.0,3.0,278.4999919999791,3.0,1.0,phase_1,,,,,,,,,,,,,white,flipped triangle
111.0,6.0,2.0,1.0,2.0,2.0,288.0245230001037,3.0,1.0,phase_1,,,,,,,,,,,,,magenta,circle
177.0,3.0,3.0,0.0,3.0,3.0,325.2609920000395,3.0,1.0,phase_1,,,,,,,,,,,,,cyan,cross
36.0,1.0,1.0,0.0,2.0,2.0,300.8864840001024,3.0,1.0,phase_1,,,,,,,,,,,,,blue,diamond
418.0,8.0,4.0,1.0,1.0,1.0,306.1698989999968,3.0,1.0,phase_1,,,,,,,,,,,,,white,flipped triangle
402.0,4.0,4.0,0.0,2.0,2.0,352.2093429996857,4.0,1.0,phase_1,,,,,,,,,,,,,yellow,triangle
403.0,8.0,4.0,1.0,4.0,4.0,330.9260629998789,4.0,1.0,phase_1,,,,,,,,,,,,,white,flipped triangle
99.0,2.0,2.0,0.0,4.0,4.0,313.2856669999455,4.0,1.0,phase_1,,,,,,,,,,,,,green,hexagon
180.0,3.0,3.0,0.0,3.0,3.0,332.4052259999916,4.0,1.0,phase_1,,,,,,,,,,,,,cyan,cross
375.0,4.0,4.0,0.0,2.0,2.0,321.3754879998305,4.0,1.0,phase_1,,,,,,,,,,,,,yellow,triangle
91.0,6.0,2.0,1.0,1.0,1.0,318.0488949997198,4.0,1.0,phase_1,,,,,,,,,,,,,magenta,circle
0.0,5.0,0.0,1.0,2.0,2.0,317.230519000077,4.0,1.0,phase_1,,,,,,,,,,,,,gray,I
0.0,1.0,0.0,0.0,3.0,3.0,298.5574580002321,4.0,1.0,phase_1,,,,,,,,,,,,,blue,diamond
60.0,5.0,1.0,1.0,1.0,1.0,324.6011679998446,4.0,1.0,phase_1,,,,,,,,,,,,,gray,I
417.0,4.0,4.0,0.0,3.0,3.0,346.0888770000565,4.0,1.0,phase_1,,,,,,,,,,,,,yellow,triangle
99.0,6.0,2.0,1.0,1.0,1.0,325.2963039999486,4.0,1.0,phase_1,,,,,,,,,,,,,magenta,circle
214.0,7.0,3.0,1.0,2.0,2.0,362.1250880000843,4.0,1.0,phase_1,,,,,,,,,,,,,orange,square
63.0,1.0,1.0,0.0,3.0,3.0,304.6633030003249,4.0,1.0,phase_1,,,,,,,,,,,,,blue,diamond
181.0,3.0,3.0,0.0,1.0,1.0,300.0880929998857,4.0,1.0,phase_1,,,,,,,,,,,,,cyan,cross
397.0,8.0,4.0,1.0,1.0,1.0,320.4634619996795,4.0,1.0,phase_1,,,,,,,,,,,,,white,flipped triangle
91.0,2.0,2.0,0.0,4.0,4.0,326.5144460001465,4.0,1.0,phase_1,,,,,,,,,,,,,green,hexagon
81.0,6.0,2.0,1.0,4.0,4.0,316.9901729997946,4.0,1.0,phase_1,,,,,,,,,,,,,magenta,circle
89.0,6.0,2.0,1.0,3.0,3.0,310.3932690000874,4.0,1.0,phase_1,,,,,,,,,,,,,magenta,circle
0.0,2.0,0.0,0.0,1.0,1.0,291.3480689999232,4.0,1.0,phase_1,,,,,,,,,,,,,green,hexagon
44.0,1.0,1.0,0.0,4.0,4.0,314.3274009999004,4.0,1.0,phase_1,,,,,,,,,,,,,blue,diamond
0.0,4.0,0.0,0.0,3.0,3.0,268.3607750000192,4.0,1.0,phase_1,,,,,,,,,,,,,yellow,triangle
387.0,8.0,4.0,1.0,4.0,4.0,313.740792000317,4.0,1.0,phase_1,,,,,,,,,,,,,white,flipped triangle
0.0,4.0,0.0,0.0,1.0,1.0,272.0497130003423,4.0,1.0,phase_1,,,,,,,,,,,,,yellow,triangle
119.0,6.0,2.0,1.0,4.0,4.0,286.0537920000752,4.0,1.0,phase_1,,,,,,,,,,,,,magenta,circle
40.0,1.0,1.0,0.0,1.0,1.0,256.5865050000866,4.0,1.0,phase_1,,,,,,,,,,,,,blue,diamond
119.0,2.0,2.0,0.0,2.0,2.0,299.4602450003185,4.0,1.0,phase_1,,,,,,,,,,,,,green,hexagon
123.0,6.0,2.0,1.0,3.0,3.0,296.9926470000246,4.0,1.0,phase_1,,,,,,,,,,,,,magenta,circle
42.0,1.0,1.0,0.0,1.0,1.0,280.358157000137,4.0,1.0,phase_1,,,,,,,,,,,,,blue,diamond
59.0,5.0,1.0,1.0,4.0,4.0,291.1559819999638,4.0,1.0,phase_1,,,,,,,,,,,,,gray,I
87.0,2.0,2.0,0.0,1.0,1.0,288.980600999821,4.0,1.0,phase_1,,,,,,,,,,,,,green,hexagon
210.0,3.0,3.0,0.0,2.0,2.0,291.0498839996762,4.0,1.0,phase_1,,,,,,,,,,,,,cyan,cross
0.0,5.0,0.0,1.0,1.0,1.0,267.4974950000433,4.0,1.0,phase_1,,,,,,,,,,,,,gray,I
194.0,3.0,3.0,0.0,1.0,1.0,283.7029859997528,4.0,1.0,phase_1,,,,,,,,,,,,,cyan,cross
56.0,5.0,1.0,1.0,1.0,1.0,467.2016299996357,4.0,1.0,phase_1,,,,,,,,,,,,,gray,I
395.0,8.0,4.0,1.0,3.0,3.0,287.8645370001322,4.0,1.0,phase_1,,,,,,,,,,,,,white,flipped triangle
402.0,8.0,4.0,1.0,1.0,1.0,299.379435999981,4.0,1.0,phase_1,,,,,,,,,,,,,white,flipped triangle
206.0,7.0,3.0,1.0,1.0,1.0,303.4267920002094,4.0,1.0,phase_1,,,,,,,,,,,,,orange,square
387.0,8.0,4.0,1.0,2.0,2.0,316.2891880001552,4.0,1.0,phase_1,,,,,,,,,,,,,white,flipped triangle
119.0,6.0,2.0,1.0,1.0,1.0,304.3314820001797,4.0,1.0,phase_1,,,,,,,,,,,,,magenta,circle
105.0,2.0,2.0,0.0,2.0,2.0,308.9849419998245,4.0,1.0,phase_1,,,,,,,,,,,,,green,hexagon
405.0,4.0,4.0,0.0,2.0,2.0,297.31578899964,4.0,1.0,phase_1,,,,,,,,,,,,,yellow,triangle
0.0,7.0,0.0,1.0,3.0,3.0,295.9328000001733,4.0,1.0,phase_1,,,,,,,,,,,,,orange,square
202.0,3.0,3.0,0.0,3.0,3.0,287.0438670001931,4.0,1.0,phase_1,,,,,,,,,,,,,cyan,cross
205.0,3.0,3.0,0.0,4.0,4.0,314.5849210000051,4.0,1.0,phase_1,,,,,,,,,,,,,cyan,cross
123.0,6.0,2.0,1.0,3.0,3.0,268.6099530001229,4.0,1.0,phase_1,,,,,,,,,,,,,magenta,circle
106.0,2.0,2.0,0.0,1.0,1.0,292.2651309995672,4.0,1.0,phase_1,,,,,,,,,,,,,green,hexagon
72.0,5.0,1.0,1.0,4.0,4.0,320.0487809999686,4.0,1.0,phase_1,,,,,,,,,,,,,gray,I
77.0,6.0,2.0,1.0,4.0,4.0,341.2840159999177,4.0,1.0,phase_1,,,,,,,,,,,,,magenta,circle
198.0,3.0,3.0,0.0,4.0,4.0,279.5264950000273,4.0,1.0,phase_1,,,,,,,,,,,,,cyan,cross
64.0,5.0,1.0,1.0,3.0,3.0,284.0456640001321,4.0,1.0,phase_1,,,,,,,,,,,,,gray,I
0.0,8.0,0.0,1.0,3.0,3.0,338.5153439999158,4.0,1.0,phase_1,,,,,,,,,,,,,white,flipped triangle
0.0,4.0,0.0,0.0,3.0,3.0,288.1838980001703,4.0,1.0,phase_1,,,,,,,,,,,,,yellow,triangle
40.0,1.0,1.0,0.0,1.0,1.0,299.8268830001507,4.0,1.0,phase_1,,,,,,,,,,,,,blue,diamond
75.0,6.0,2.0,1.0,1.0,1.0,305.3755329997329,4.0,1.0,phase_1,,,,,,,,,,,,,magenta,circle
415.0,8.0,4.0,1.0,4.0,4.0,373.7809189997279,4.0,1.0,phase_1,,,,,,,,,,,,,white,flipped triangle
191.0,7.0,3.0,1.0,1.0,1.0,337.0062189997043,4.0,1.0,phase_1,,,,,,,,,,,,,orange,square
198.0,7.0,3.0,1.0,1.0,1.0,543.526562000352,4.0,1.0,phase_1,,,,,,,,,,,,,orange,square
108.0,6.0,2.0,1.0,2.0,2.0,275.9755740003129,4.0,1.0,phase_1,,,,,,,,,,,,,magenta,circle
0.0,6.0,0.0,1.0,4.0,4.0,391.7820050000955,4.0,1.0,phase_1,,,,,,,,,,,,,magenta,circle
391.0,8.0,4.0,1.0,4.0,4.0,389.0276629999789,4.0,1.0,phase_1,,,,,,,,,,,,,white,flipped triangle
121.0,2.0,2.0,0.0,2.0,2.0,447.0332109999617,4.0,1.0,phase_1,,,,,,,,,,,,,green,hexagon
0.0,6.0,0.0,1.0,1.0,1.0,252.1497220000128,4.0,1.0,phase_1,,,,,,,,,,,,,magenta,circle
413.0,8.0,4.0,1.0,1.0,1.0,296.5010909997545,4.0,1.0,phase_1,,,,,,,,,,,,,white,flipped triangle
410.0,8.0,4.0,1.0,2.0,2.0,368.1709999996201,4.0,1.0,phase_1,,,,,,,,,,,,,white,flipped triangle
422.0,8.0,4.0,1.0,3.0,3.0,330.0819500000216,4.0,1.0,phase_1,,,,,,,,,,,,,white,flipped triangle
92.0,6.0,2.0,1.0,3.0,3.0,296.1122219999197,4.0,1.0,phase_1,,,,,,,,,,,,,magenta,circle
0.0,3.0,0.0,0.0,1.0,1.0,492.3593129997243,4.0,1.0,phase_1,,,,,,,,,,,,,cyan,cross
391.0,4.0,4.0,0.0,4.0,4.0,347.0418580000114,4.0,1.0,phase_1,,,,,,,,,,,,,yellow,triangle
386.0,8.0,4.0,1.0,3.0,3.0,325.0900630000615,4.0,1.0,phase_1,,,,,,,,,,,,,white,flipped triangle
377.0,8.0,4.0,1.0,1.0,1.0,313.0935389999649,4.0,1.0,phase_1,,,,,,,,,,,,,white,flipped triangle
30.0,1.0,1.0,0.0,4.0,4.0,326.41268999987,4.0,1.0,phase_1,,,,,,,,,,,,,blue,diamond
415.0,4.0,4.0,0.0,1.0,1.0,334.8150470001201,4.0,1.0,phase_1,,,,,,,,,,,,,yellow,triangle
0.0,3.0,0.0,0.0,4.0,4.0,304.5711260001553,4.0,1.0,phase_1,,,,,,,,,,,,,cyan,cross
390.0,4.0,4.0,0.0,2.0,2.0,391.0367550001865,4.0,1.0,phase_1,,,,,,,,,,,,,yellow,triangle
26.0,5.0,1.0,1.0,4.0,4.0,393.0400210001608,4.0,1.0,phase_1,,,,,,,,,,,,,gray,I
113.0,2.0,2.0,0.0,3.0,3.0,287.2075289997156,4.0,1.0,phase_1,,,,,,,,,,,,,green,hexagon
46.0,1.0,1.0,0.0,3.0,3.0,330.03298299991,4.0,1.0,phase_1,,,,,,,,,,,,,blue,diamond
53.0,5.0,1.0,1.0,3.0,3.0,338.2603400000334,4.0,1.0,phase_1,,,,,,,,,,,,,gray,I
59.0,1.0,1.0,0.0,4.0,4.0,302.4782180000329,4.0,1.0,phase_1,,,,,,,,,,,,,blue,diamond
60.0,1.0,1.0,0.0,4.0,4.0,312.776687999758,4.0,1.0,phase_1,,,,,,,,,,,,,blue,diamond
413.0,4.0,4.0,0.0,1.0,1.0,341.8958669999483,4.0,1.0,phase_1,,,,,,,,,,,,,yellow,triangle
30.0,5.0,1.0,1.0,2.0,2.0,337.1347709999099,4.0,1.0,phase_1,,,,,,,,,,,,,gray,I
185.0,3.0,3.0,0.0,4.0,4.0,337.4107089998688,4.0,1.0,phase_1,,,,,,,,,,,,,cyan,cross
206.0,3.0,3.0,0.0,3.0,3.0,270.3482990000339,4.0,1.0,phase_1,,,,,,,,,,,,,cyan,cross
0.0,2.0,0.0,0.0,1.0,1.0,272.2777430003589,4.0,1.0,phase_1,,,,,,,,,,,,,green,hexagon
0.0,1.0,0.0,0.0,1.0,1.0,276.1571450000701,4.0,1.0,phase_1,,,,,,,,,,,,,blue,diamond
403.0,4.0,4.0,0.0,1.0,1.0,779.4757199999367,4.0,1.0,phase_1,,,,,,,,,,,,,yellow,triangle
203.0,3.0,3.0,0.0,4.0,4.0,593.1309729999157,4.0,1.0,phase_1,,,,,,,,,,,,,cyan,cross
181.0,7.0,3.0,1.0,3.0,3.0,691.1669030000667,4.0,1.0,phase_1,,,,,,,,,,,,,orange,square
405.0,8.0,4.0,1.0,3.0,3.0,355.3307890001633,4.0,1.0,phase_1,,,,,,,,,,,,,white,flipped triangle
78.0,2.0,2.0,0.0,4.0,4.0,386.6940370003249,4.0,2.0,phase_1,,,,,,,,,,,,,green,hexagon
186.0,7.0,3.0,1.0,1.0,1.0,359.1228390000651,4.0,1.0,phase_1,,,,,,,,,,,,,orange,square
80.0,6.0,2.0,1.0,1.0,1.0,365.3229020001163,4.0,1.0,phase_1,,,,,,,,,,,,,magenta,circle
58.0,1.0,1.0,0.0,2.0,2.0,717.4597790003645,4.0,2.0,phase_1,,,,,,,,,,,,,blue,diamond
0.0,1.0,0.0,0.0,4.0,4.0,497.0149019995915,4.0,1.0,phase_1,,,,,,,,,,,,,blue,diamond
0.0,6.0,0.0,1.0,1.0,1.0,392.825466999966,4.0,1.0,phase_1,,,,,,,,,,,,,magenta,circle
40.0,5.0,1.0,1.0,4.0,4.0,387.8592720002416,4.0,1.0,phase_1,,,,,,,,,,,,,gray,I
0.0,2.0,0.0,0.0,4.0,4.0,321.8161180002425,4.0,1.0,phase_1,,,,,,,,,,,,,green,hexagon
214.0,3.0,3.0,0.0,1.0,1.0,350.6040100000973,4.0,1.0,phase_1,,,,,,,,,,,,,cyan,cross
0.0,4.0,0.0,0.0,4.0,4.0,347.427499999867,4.0,1.0,phase_1,,,,,,,,,,,,,yellow,triangle
0.0,7.0,3.0,1.0,5.0,0.0,0.0,1.0,1.0,phase_2,stop,250.0,250.0,4.0,,,,,,,,,orange,square
0.0,7.0,3.0,1.0,5.0,5.0,360.8839250000528,1.0,1.0,phase_2,stop,300.0,250.0,3.0,,,,,,,,,orange,square
0.0,3.0,3.0,0.0,5.0,5.0,530.4257230000076,1.0,1.0,phase_2,go,250.0,250.0,1.0,,,,,,,,,cyan,cross
0.0,7.0,3.0,1.0,6.0,6.0,495.1475299999401,1.0,1.0,phase_2,go,250.0,250.0,1.0,,,,,,,,,orange,square
0.0,4.0,4.0,0.0,5.0,5.0,470.3972590000376,1.0,1.0,phase_2,go,250.0,250.0,1.0,,,,,,,,,yellow,triangle
0.0,8.0,4.0,1.0,5.0,0.0,0.0,1.0,1.0,phase_2,stop,250.0,250.0,4.0,,,,,,,,,white,flipped triangle
0.0,2.0,2.0,0.0,5.0,5.0,727.8697130000182,1.0,1.0,phase_2,go,300.0,250.0,1.0,,,,,,,,,green,hexagon
0.0,5.0,1.0,1.0,6.0,0.0,0.0,1.0,1.0,phase_2,stop,300.0,250.0,4.0,,,,,,,,,gray,I
0.0,5.0,1.0,1.0,5.0,0.0,0.0,1.0,1.0,phase_2,stop,300.0,300.0,4.0,,,,,,,,,gray,I
0.0,7.0,3.0,1.0,5.0,5.0,563.3973439998954,1.0,1.0,phase_2,go,350.0,300.0,1.0,,,,,,,,,orange,square
0.0,1.0,1.0,0.0,6.0,6.0,517.2038850000718,1.0,1.0,phase_2,go,350.0,300.0,1.0,,,,,,,,,blue,diamond
0.0,1.0,1.0,0.0,5.0,5.0,677.2004639997249,1.0,1.0,phase_2,go,350.0,300.0,1.0,,,,,,,,,blue,diamond
0.0,3.0,3.0,0.0,6.0,6.0,437.5457189998997,1.0,1.0,phase_2,go,350.0,300.0,1.0,,,,,,,,,cyan,cross
0.0,1.0,1.0,0.0,6.0,6.0,619.859102999726,1.0,1.0,phase_2,go,350.0,300.0,1.0,,,,,,,,,blue,diamond
0.0,8.0,4.0,1.0,5.0,0.0,0.0,1.0,1.0,phase_2,stop,350.0,300.0,4.0,,,,,,,,,white,flipped triangle
0.0,6.0,2.0,1.0,6.0,0.0,0.0,1.0,1.0,phase_2,stop,400.0,300.0,4.0,,,,,,,,,magenta,circle
0.0,1.0,1.0,0.0,6.0,6.0,723.1049030001486,1.0,1.0,phase_2,go,400.0,350.0,1.0,,,,,,,,,blue,diamond
0.0,1.0,1.0,0.0,5.0,5.0,688.0334960001164,1.0,1.0,phase_2,go,400.0,350.0,1.0,,,,,,,,,blue,diamond
0.0,6.0,2.0,1.0,5.0,0.0,0.0,1.0,1.0,phase_2,stop,400.0,350.0,4.0,,,,,,,,,magenta,circle
0.0,8.0,4.0,1.0,5.0,5.0,663.5994930002198,1.0,1.0,phase_2,go,450.0,350.0,1.0,,,,,,,,,white,flipped triangle
0.0,1.0,1.0,0.0,5.0,5.0,613.9825100003691,1.0,1.0,phase_2,go,450.0,350.0,1.0,,,,,,,,,blue,diamond
0.0,8.0,4.0,1.0,5.0,5.0,653.606741999738,1.0,1.0,phase_2,go,450.0,350.0,1.0,,,,,,,,,white,flipped triangle
0.0,8.0,4.0,1.0,6.0,0.0,0.0,1.0,1.0,phase_2,stop,450.0,350.0,4.0,,,,,,,,,white,flipped triangle
0.0,3.0,3.0,0.0,6.0,6.0,739.2899300002682,1.0,1.0,phase_2,go,450.0,400.0,1.0,,,,,,,,,cyan,cross
0.0,1.0,1.0,0.0,6.0,6.0,755.7556429997021,1.0,1.0,phase_2,go,450.0,400.0,1.0,,,,,,,,,blue,diamond
0.0,4.0,4.0,0.0,6.0,6.0,661.6195720002906,1.0,1.0,phase_2,go,450.0,400.0,1.0,,,,,,,,,yellow,triangle
0.0,8.0,4.0,1.0,5.0,0.0,0.0,1.0,1.0,phase_2,stop,450.0,400.0,4.0,,,,,,,,,white,flipped triangle
0.0,2.0,2.0,0.0,6.0,6.0,667.5592500000675,1.0,1.0,phase_2,go,500.0,400.0,1.0,,,,,,,,,green,hexagon
0.0,5.0,1.0,1.0,6.0,0.0,0.0,1.0,1.0,phase_2,stop,500.0,400.0,4.0,,,,,,,,,gray,I
0.0,8.0,4.0,1.0,5.0,5.0,730.9481689999302,1.0,1.0,phase_2,go,500.0,450.0,1.0,,,,,,,,,white,flipped triangle
0.0,3.0,3.0,0.0,5.0,5.0,745.6322490002094,1.0,1.0,phase_2,go,500.0,450.0,1.0,,,,,,,,,cyan,cross
0.0,3.0,3.0,0.0,6.0,6.0,738.3649550001792,1.0,1.0,phase_2,go,500.0,450.0,1.0,,,,,,,,,cyan,cross
0.0,5.0,1.0,1.0,5.0,0.0,0.0,1.0,1.0,phase_2,stop,500.0,450.0,4.0,,,,,,,,,gray,I
0.0,1.0,1.0,0.0,5.0,5.0,714.1584779997174,1.0,1.0,phase_2,go,550.0,450.0,1.0,,,,,,,,,blue,diamond
0.0,5.0,1.0,1.0,5.0,5.0,677.2809940002844,1.0,1.0,phase_2,go,550.0,450.0,1.0,,,,,,,,,gray,I
0.0,4.0,4.0,0.0,6.0,6.0,758.7845179996293,1.0,1.0,phase_2,go,550.0,450.0,1.0,,,,,,,,,yellow,triangle
0.0,4.0,4.0,0.0,5.0,5.0,522.0578240000577,2.0,1.0,phase_2,go,550.0,450.0,1.0,,,,,,,,,yellow,triangle
0.0,6.0,2.0,1.0,5.0,5.0,395.6311090000781,2.0,1.0,phase_2,stop,550.0,450.0,3.0,,,,,,,,,magenta,circle
0.0,3.0,3.0,0.0,6.0,6.0,592.4890599999344,2.0,1.0,phase_2,go,500.0,450.0,1.0,,,,,,,,,cyan,cross
0.0,6.0,2.0,1.0,6.0,0.0,0.0,2.0,1.0,phase_2,stop,500.0,450.0,4.0,,,,,,,,,magenta,circle
0.0,7.0,3.0,1.0,6.0,6.0,695.9181440001885,2.0,1.0,phase_2,go,500.0,500.0,1.0,,,,,,,,,orange,square
0.0,3.0,3.0,0.0,5.0,5.0,627.019121000103,2.0,1.0,phase_2,go,500.0,500.0,1.0,,,,,,,,,cyan,cross
0.0,2.0,2.0,0.0,6.0,6.0,638.7239420000697,2.0,1.0,phase_2,go,500.0,500.0,1.0,,,,,,,,,green,hexagon
0.0,4.0,4.0,0.0,6.0,6.0,710.1750470001207,2.0,1.0,phase_2,go,500.0,500.0,1.0,,,,,,,,,yellow,triangle
0.0,7.0,3.0,1.0,6.0,0.0,0.0,2.0,1.0,phase_2,stop,500.0,500.0,4.0,,,,,,,,,orange,square
0.0,2.0,2.0,0.0,5.0,5.0,566.751817000295,2.0,1.0,phase_2,go,500.0,550.0,1.0,,,,,,,,,green,hexagon
0.0,6.0,2.0,1.0,6.0,6.0,614.9874380002984,2.0,1.0,phase_2,go,500.0,550.0,1.0,,,,,,,,,magenta,circle
0.0,3.0,3.0,0.0,5.0,5.0,683.224237000104,2.0,1.0,phase_2,go,500.0,550.0,1.0,,,,,,,,,cyan,cross
0.0,7.0,3.0,1.0,5.0,5.0,431.0647570000583,2.0,1.0,phase_2,stop,500.0,550.0,3.0,,,,,,,,,orange,square
0.0,5.0,1.0,1.0,6.0,0.0,0.0,2.0,1.0,phase_2,stop,450.0,550.0,4.0,,,,,,,,,gray,I
0.0,5.0,1.0,1.0,6.0,6.0,773.0609329996696,2.0,1.0,phase_2,go,450.0,600.0,1.0,,,,,,,,,gray,I
0.0,6.0,2.0,1.0,5.0,0.0,0.0,2.0,1.0,phase_2,stop,450.0,600.0,4.0,,,,,,,,,magenta,circle
0.0,8.0,4.0,1.0,6.0,6.0,736.8407250000928,2.0,1.0,phase_2,go,500.0,600.0,1.0,,,,,,,,,white,flipped triangle
0.0,7.0,3.0,1.0,6.0,6.0,695.956095999918,2.0,1.0,phase_2,go,500.0,600.0,1.0,,,,,,,,,orange,square
0.0,3.0,3.0,0.0,6.0,6.0,705.873437000264,2.0,1.0,phase_2,go,500.0,600.0,1.0,,,,,,,,,cyan,cross
0.0,8.0,4.0,1.0,5.0,0.0,0.0,2.0,1.0,phase_2,stop,500.0,600.0,4.0,,,,,,,,,white,flipped triangle
0.0,3.0,3.0,0.0,6.0,6.0,737.4275029997079,2.0,1.0,phase_2,go,550.0,600.0,1.0,,,,,,,,,cyan,cross
0.0,1.0,1.0,0.0,6.0,6.0,797.6801350000642,2.0,1.0,phase_2,go,550.0,600.0,1.0,,,,,,,,,blue,diamond
0.0,6.0,2.0,1.0,5.0,0.0,0.0,2.0,1.0,phase_2,stop,550.0,600.0,4.0,,,,,,,,,magenta,circle
0.0,1.0,1.0,0.0,5.0,5.0,695.5400629999531,2.0,1.0,phase_2,go,600.0,600.0,1.0,,,,,,,,,blue,diamond
0.0,5.0,1.0,1.0,5.0,5.0,868.4300840000105,2.0,1.0,phase_2,stop,600.0,600.0,3.0,,,,,,,,,gray,I
0.0,2.0,2.0,0.0,5.0,5.0,685.9722050003256,2.0,1.0,phase_2,go,550.0,600.0,1.0,,,,,,,,,green,hexagon
0.0,3.0,3.0,0.0,5.0,5.0,877.7213019998271,2.0,1.0,phase_2,go,550.0,600.0,1.0,,,,,,,,,cyan,cross
0.0,7.0,3.0,1.0,6.0,0.0,0.0,2.0,1.0,phase_2,stop,550.0,600.0,4.0,,,,,,,,,orange,square
0.0,7.0,3.0,1.0,5.0,5.0,836.5300129999014,2.0,1.0,phase_2,go,550.0,650.0,1.0,,,,,,,,,orange,square
0.0,7.0,3.0,1.0,5.0,0.0,0.0,2.0,1.0,phase_2,stop,550.0,650.0,4.0,,,,,,,,,orange,square
0.0,1.0,1.0,0.0,5.0,5.0,659.4586289998006,2.0,1.0,phase_2,go,600.0,650.0,1.0,,,,,,,,,blue,diamond
0.0,4.0,4.0,0.0,6.0,6.0,794.7185719999652,2.0,1.0,phase_2,go,600.0,650.0,1.0,,,,,,,,,yellow,triangle
0.0,7.0,3.0,1.0,6.0,0.0,0.0,2.0,1.0,phase_2,stop,600.0,650.0,4.0,,,,,,,,,orange,square
0.0,7.0,3.0,1.0,6.0,6.0,722.6304320001873,2.0,1.0,phase_2,stop,600.0,700.0,3.0,,,,,,,,,orange,square
0.0,4.0,4.0,0.0,5.0,5.0,910.5472179999196,2.0,1.0,phase_2,go,600.0,650.0,1.0,,,,,,,,,yellow,triangle
0.0,6.0,2.0,1.0,6.0,0.0,0.0,2.0,1.0,phase_2,stop,600.0,650.0,4.0,,,,,,,,,magenta,circle
0.0,8.0,4.0,1.0,5.0,5.0,565.6917870001053,3.0,1.0,phase_2,stop,600.0,700.0,3.0,,,,,,,,,white,flipped triangle
0.0,5.0,1.0,1.0,6.0,6.0,692.471232999651,3.0,1.0,phase_2,stop,550.0,700.0,3.0,,,,,,,,,gray,I
0.0,1.0,1.0,0.0,6.0,6.0,836.0912589996587,3.0,1.0,phase_2,go,550.0,650.0,1.0,,,,,,,,,blue,diamond
0.0,4.0,4.0,0.0,5.0,5.0,649.7331819996361,3.0,1.0,phase_2,go,550.0,650.0,1.0,,,,,,,,,yellow,triangle
0.0,8.0,4.0,1.0,5.0,0.0,0.0,3.0,1.0,phase_2,stop,550.0,650.0,4.0,,,,,,,,,white,flipped triangle
0.0,7.0,3.0,1.0,6.0,6.0,522.4088330000995,3.0,1.0,phase_2,go,600.0,650.0,1.0,,,,,,,,,orange,square
0.0,4.0,4.0,0.0,6.0,6.0,920.260791000146,3.0,1.0,phase_2,go,600.0,650.0,1.0,,,,,,,,,yellow,triangle
0.0,6.0,2.0,1.0,5.0,5.0,673.1674549996569,3.0,1.0,phase_2,go,600.0,650.0,1.0,,,,,,,,,magenta,circle
0.0,6.0,2.0,1.0,5.0,5.0,710.6076380000559,3.0,1.0,phase_2,stop,600.0,650.0,3.0,,,,,,,,,magenta,circle
0.0,4.0,4.0,0.0,5.0,5.0,817.2237919998224,3.0,1.0,phase_2,go,550.0,650.0,1.0,,,,,,,,,yellow,triangle
0.0,4.0,4.0,0.0,6.0,6.0,765.1160519999394,3.0,1.0,phase_2,go,550.0,650.0,1.0,,,,,,,,,yellow,triangle
0.0,8.0,4.0,1.0,6.0,0.0,0.0,3.0,1.0,phase_2,stop,550.0,650.0,4.0,,,,,,,,,white,flipped triangle
0.0,6.0,2.0,1.0,6.0,6.0,677.1484120004061,3.0,1.0,phase_2,stop,550.0,700.0,3.0,,,,,,,,,magenta,circle
0.0,4.0,4.0,0.0,6.0,6.0,815.6295999997383,3.0,1.0,phase_2,go,550.0,650.0,1.0,,,,,,,,,yellow,triangle
0.0,1.0,1.0,0.0,5.0,5.0,970.9530109998924,3.0,1.0,phase_2,go,550.0,650.0,1.0,,,,,,,,,blue,diamond
0.0,6.0,2.0,1.0,5.0,0.0,0.0,3.0,1.0,phase_2,stop,550.0,650.0,4.0,,,,,,,,,magenta,circle
0.0,5.0,1.0,1.0,6.0,6.0,653.3609319999414,3.0,1.0,phase_2,go,600.0,650.0,1.0,,,,,,,,,gray,I
0.0,2.0,2.0,0.0,5.0,5.0,769.5745790001638,3.0,1.0,phase_2,go,600.0,650.0,1.0,,,,,,,,,green,hexagon
0.0,5.0,1.0,1.0,5.0,0.0,0.0,3.0,1.0,phase_2,stop,600.0,650.0,4.0,,,,,,,,,gray,I
0.0,8.0,4.0,1.0,5.0,5.0,584.3799609997404,3.0,1.0,phase_2,stop,650.0,650.0,3.0,,,,,,,,,white,flipped triangle
0.0,3.0,3.0,0.0,5.0,5.0,834.9243110001225,3.0,1.0,phase_2,go,600.0,650.0,1.0,,,,,,,,,cyan,cross
0.0,3.0,3.0,0.0,6.0,6.0,967.8002410000772,3.0,1.0,phase_2,go,600.0,650.0,1.0,,,,,,,,,cyan,cross
0.0,8.0,4.0,1.0,6.0,0.0,0.0,3.0,1.0,phase_2,stop,600.0,650.0,4.0,,,,,,,,,white,flipped triangle
0.0,5.0,1.0,1.0,5.0,5.0,634.1995640000277,3.0,1.0,phase_2,stop,600.0,700.0,3.0,,,,,,,,,gray,I
0.0,4.0,4.0,0.0,5.0,5.0,805.7614499998635,3.0,1.0,phase_2,go,550.0,700.0,1.0,,,,,,,,,yellow,triangle
0.0,1.0,1.0,0.0,6.0,6.0,951.2064329996974,3.0,1.0,phase_2,go,550.0,700.0,1.0,,,,,,,,,blue,diamond
0.0,2.0,2.0,0.0,5.0,5.0,869.1862929999843,3.0,1.0,phase_2,go,550.0,700.0,1.0,,,,,,,,,green,hexagon
0.0,3.0,3.0,0.0,5.0,5.0,1033.0018650001875,3.0,1.0,phase_2,go,550.0,700.0,1.0,,,,,,,,,cyan,cross
0.0,5.0,1.0,1.0,5.0,5.0,838.6354589997609,3.0,1.0,phase_2,go,550.0,700.0,1.0,,,,,,,,,gray,I
0.0,7.0,3.0,1.0,5.0,0.0,0.0,3.0,1.0,phase_2,stop,550.0,700.0,4.0,,,,,,,,,orange,square
0.0,6.0,2.0,1.0,6.0,6.0,718.4807619996718,3.0,1.0,phase_2,stop,600.0,700.0,3.0,,,,,,,,,magenta,circle
0.0,4.0,4.0,0.0,5.0,5.0,845.2915960001519,3.0,1.0,phase_2,go,600.0,650.0,1.0,,,,,,,,,yellow,triangle
0.0,5.0,1.0,1.0,5.0,0.0,0.0,3.0,1.0,phase_2,stop,600.0,650.0,4.0,,,,,,,,,gray,I
0.0,1.0,1.0,0.0,5.0,5.0,363.4442370002944,3.0,1.0,phase_2,go,650.0,650.0,1.0,,,,,,,,,blue,diamond
0.0,7.0,3.0,1.0,5.0,0.0,0.0,3.0,1.0,phase_2,stop,650.0,650.0,4.0,,,,,,,,,orange,square
0.0,2.0,2.0,0.0,6.0,6.0,786.9831610000801,3.0,1.0,phase_2,go,700.0,650.0,1.0,,,,,,,,,green,hexagon
0.0,3.0,3.0,0.0,5.0,5.0,388.8574000002336,4.0,1.0,phase_2,go,700.0,650.0,1.0,,,,,,,,,cyan,cross
0.0,1.0,1.0,0.0,5.0,5.0,743.742943000143,4.0,1.0,phase_2,go,700.0,650.0,1.0,,,,,,,,,blue,diamond
0.0,6.0,2.0,1.0,5.0,5.0,721.2513829999807,4.0,1.0,phase_2,stop,700.0,650.0,3.0,,,,,,,,,magenta,circle
0.0,8.0,4.0,1.0,6.0,6.0,677.8222549996826,4.0,1.0,phase_2,go,650.0,650.0,1.0,,,,,,,,,white,flipped triangle
0.0,7.0,3.0,1.0,5.0,5.0,732.4255319999793,4.0,1.0,phase_2,stop,650.0,650.0,3.0,,,,,,,,,orange,square
0.0,5.0,1.0,1.0,5.0,0.0,0.0,4.0,1.0,phase_2,stop,600.0,650.0,4.0,,,,,,,,,gray,I
0.0,2.0,2.0,0.0,6.0,6.0,770.0332740000704,4.0,1.0,phase_2,go,650.0,650.0,1.0,,,,,,,,,green,hexagon
0.0,3.0,3.0,0.0,6.0,6.0,993.8439610000388,4.0,1.0,phase_2,go,650.0,650.0,1.0,,,,,,,,,cyan,cross
0.0,8.0,4.0,1.0,5.0,0.0,0.0,4.0,1.0,phase_2,stop,650.0,650.0,4.0,,,,,,,,,white,flipped triangle
0.0,7.0,3.0,1.0,6.0,6.0,555.1309049997144,4.0,1.0,phase_2,go,700.0,650.0,1.0,,,,,,,,,orange,square
0.0,5.0,1.0,1.0,6.0,6.0,784.0318470002785,4.0,1.0,phase_2,go,700.0,650.0,1.0,,,,,,,,,gray,I
0.0,3.0,3.0,0.0,6.0,6.0,881.7136399998162,4.0,1.0,phase_2,go,700.0,650.0,1.0,,,,,,,,,cyan,cross
0.0,7.0,3.0,1.0,5.0,0.0,0.0,4.0,1.0,phase_2,stop,700.0,650.0,4.0,,,,,,,,,orange,square
0.0,7.0,3.0,1.0,6.0,0.0,0.0,4.0,1.0,phase_2,stop,750.0,650.0,4.0,,,,,,,,,orange,square
0.0,3.0,3.0,0.0,5.0,5.0,662.1299600001294,4.0,1.0,phase_2,go,750.0,700.0,1.0,,,,,,,,,cyan,cross
0.0,7.0,3.0,1.0,5.0,0.0,0.0,4.0,1.0,phase_2,stop,750.0,700.0,4.0,,,,,,,,,orange,square
0.0,2.0,2.0,0.0,6.0,6.0,820.5492229999436,4.0,1.0,phase_2,go,800.0,700.0,1.0,,,,,,,,,green,hexagon
0.0,5.0,1.0,1.0,6.0,0.0,0.0,4.0,1.0,phase_2,stop,800.0,700.0,4.0,,,,,,,,,gray,I
0.0,2.0,2.0,0.0,5.0,5.0,474.7123379997902,4.0,1.0,phase_2,go,800.0,750.0,1.0,,,,,,,,,green,hexagon
0.0,6.0,2.0,1.0,6.0,6.0,946.316268999908,4.0,1.0,phase_2,go,800.0,750.0,1.0,,,,,,,,,magenta,circle
0.0,2.0,2.0,0.0,5.0,5.0,939.9769530000412,4.0,1.0,phase_2,go,800.0,750.0,1.0,,,,,,,,,green,hexagon
0.0,8.0,4.0,1.0,6.0,6.0,828.532561999964,4.0,1.0,phase_2,stop,800.0,750.0,3.0,,,,,,,,,white,flipped triangle
0.0,6.0,2.0,1.0,6.0,0.0,0.0,4.0,1.0,phase_2,stop,800.0,700.0,4.0,,,,,,,,,magenta,circle
0.0,4.0,4.0,0.0,5.0,5.0,898.7692559999232,4.0,1.0,phase_2,go,800.0,750.0,1.0,,,,,,,,,yellow,triangle
0.0,4.0,4.0,0.0,6.0,6.0,849.9491419997867,4.0,1.0,phase_2,go,800.0,750.0,1.0,,,,,,,,,yellow,triangle
0.0,4.0,4.0,0.0,6.0,6.0,1007.7925959999448,4.0,1.0,phase_2,go,800.0,750.0,1.0,,,,,,,,,yellow,triangle
0.0,6.0,2.0,1.0,5.0,5.0,897.7368760001809,4.0,1.0,phase_2,stop,800.0,750.0,3.0,,,,,,,,,magenta,circle
0.0,6.0,2.0,1.0,5.0,5.0,826.1008580002454,4.0,1.0,phase_2,go,750.0,750.0,1.0,,,,,,,,,magenta,circle
0.0,4.0,4.0,0.0,6.0,6.0,1023.5849779996895,4.0,1.0,phase_2,go,750.0,750.0,1.0,,,,,,,,,yellow,triangle
0.0,5.0,1.0,1.0,5.0,5.0,816.2613210001837,4.0,1.0,phase_2,go,750.0,750.0,1.0,,,,,,,,,gray,I
0.0,2.0,2.0,0.0,6.0,6.0,943.3984470001632,4.0,1.0,phase_2,go,750.0,750.0,1.0,,,,,,,,,green,hexagon
0.0,1.0,1.0,0.0,6.0,6.0,942.6007809997828,4.0,1.0,phase_2,go,750.0,750.0,1.0,,,,,,,,,blue,diamond
0.0,3.0,3.0,0.0,6.0,6.0,739.4859700002598,4.0,1.0,phase_2,go,750.0,750.0,1.0,,,,,,,,,cyan,cross
0.0,3.0,3.0,0.0,6.0,6.0,717.9979309998998,4.0,1.0,phase_2,go,750.0,750.0,1.0,,,,,,,,,cyan,cross
0.0,5.0,1.0,1.0,6.0,6.0,827.0592040003066,4.0,1.0,phase_2,stop,750.0,750.0,3.0,,,,,,,,,gray,I
0.0,7.0,3.0,1.0,6.0,0.0,0.0,4.0,1.0,phase_2,stop,750.0,700.0,4.0,,,,,,,,,orange,square
0.0,5.0,1.0,1.0,6.0,6.0,434.2788450003354,5.0,1.0,phase_2,stop,750.0,750.0,3.0,,,,,,,,,gray,I
0.0,1.0,1.0,0.0,6.0,6.0,619.4316000000981,5.0,1.0,phase_2,go,750.0,700.0,1.0,,,,,,,,,blue,diamond
0.0,8.0,4.0,1.0,5.0,5.0,339.9688099998457,5.0,1.0,phase_2,stop,750.0,700.0,3.0,,,,,,,,,white,flipped triangle
0.0,4.0,4.0,0.0,5.0,5.0,712.333148000198,5.0,1.0,phase_2,go,700.0,700.0,1.0,,,,,,,,,yellow,triangle
0.0,5.0,1.0,1.0,6.0,6.0,721.8188760002704,5.0,1.0,phase_2,go,700.0,700.0,1.0,,,,,,,,,gray,I
0.0,5.0,1.0,1.0,5.0,5.0,743.1234410000798,5.0,1.0,phase_2,stop,700.0,700.0,3.0,,,,,,,,,gray,I
0.0,1.0,1.0,0.0,5.0,5.0,670.6947789998594,5.0,1.0,phase_2,go,650.0,700.0,1.0,,,,,,,,,blue,diamond
0.0,8.0,4.0,1.0,6.0,6.0,784.2842669997481,5.0,1.0,phase_2,go,650.0,700.0,1.0,,,,,,,,,white,flipped triangle
0.0,2.0,2.0,0.0,6.0,6.0,893.792588999986,5.0,1.0,phase_2,go,650.0,700.0,1.0,,,,,,,,,green,hexagon
0.0,5.0,1.0,1.0,6.0,6.0,821.9807720001882,5.0,1.0,phase_2,stop,650.0,700.0,3.0,,,,,,,,,gray,I
0.0,7.0,3.0,1.0,6.0,0.0,0.0,5.0,1.0,phase_2,stop,650.0,650.0,4.0,,,,,,,,,orange,square
0.0,2.0,2.0,0.0,6.0,6.0,534.5494949997374,5.0,1.0,phase_2,go,650.0,700.0,1.0,,,,,,,,,green,hexagon
0.0,6.0,2.0,1.0,5.0,5.0,883.922528000312,5.0,1.0,phase_2,go,650.0,700.0,1.0,,,,,,,,,magenta,circle
0.0,6.0,2.0,1.0,5.0,0.0,0.0,5.0,1.0,phase_2,stop,650.0,700.0,4.0,,,,,,,,,magenta,circle
0.0,3.0,3.0,0.0,6.0,6.0,834.8809730000539,5.0,1.0,phase_2,go,700.0,700.0,1.0,,,,,,,,,cyan,cross
0.0,8.0,4.0,1.0,5.0,5.0,867.2372789997098,5.0,1.0,phase_2,stop,700.0,700.0,3.0,,,,,,,,,white,flipped triangle
0.0,8.0,4.0,1.0,6.0,0.0,0.0,5.0,1.0,phase_2,stop,650.0,700.0,4.0,,,,,,,,,white,flipped triangle
0.0,1.0,1.0,0.0,5.0,5.0,777.7329839996128,5.0,1.0,phase_2,go,650.0,750.0,1.0,,,,,,,,,blue,diamond
0.0,7.0,3.0,1.0,6.0,0.0,0.0,5.0,1.0,phase_2,stop,650.0,750.0,4.0,,,,,,,,,orange,square
0.0,6.0,2.0,1.0,5.0,5.0,676.3531540000258,5.0,1.0,phase_2,stop,650.0,800.0,3.0,,,,,,,,,magenta,circle
0.0,1.0,1.0,0.0,6.0,6.0,1087.6094929999454,5.0,1.0,phase_2,go,600.0,800.0,1.0,,,,,,,,,blue,diamond
0.0,7.0,3.0,1.0,5.0,5.0,857.2578809998959,5.0,1.0,phase_2,go,600.0,800.0,1.0,,,,,,,,,orange,square
0.0,4.0,4.0,0.0,5.0,5.0,1033.558573999926,5.0,1.0,phase_2,go,600.0,800.0,1.0,,,,,,,,,yellow,triangle
0.0,5.0,1.0,1.0,6.0,0.0,0.0,5.0,1.0,phase_2,stop,600.0,800.0,4.0,,,,,,,,,gray,I
0.0,4.0,4.0,0.0,5.0,5.0,880.7147339998664,5.0,1.0,phase_2,go,600.0,850.0,1.0,,,,,,,,,yellow,triangle
0.0,3.0,3.0,0.0,6.0,6.0,812.3882350000713,5.0,1.0,phase_2,go,600.0,850.0,1.0,,,,,,,,,cyan,cross
0.0,3.0,3.0,0.0,5.0,5.0,804.1594890000852,5.0,1.0,phase_2,go,600.0,850.0,1.0,,,,,,,,,cyan,cross
0.0,3.0,3.0,0.0,6.0,6.0,918.6884030000328,5.0,1.0,phase_2,go,600.0,850.0,1.0,,,,,,,,,cyan,cross
0.0,2.0,2.0,0.0,6.0,6.0,885.4752960000951,5.0,1.0,phase_2,go,600.0,850.0,1.0,,,,,,,,,green,hexagon
0.0,6.0,2.0,1.0,5.0,0.0,0.0,5.0,1.0,phase_2,stop,600.0,850.0,4.0,,,,,,,,,magenta,circle
0.0,8.0,4.0,1.0,6.0,6.0,801.9319019999784,5.0,1.0,phase_2,stop,650.0,850.0,3.0,,,,,,,,,white,flipped triangle
0.0,7.0,3.0,1.0,6.0,0.0,0.0,5.0,1.0,phase_2,stop,650.0,800.0,4.0,,,,,,,,,orange,square
0.0,2.0,2.0,0.0,6.0,6.0,691.2564770000245,5.0,1.0,phase_2,go,650.0,850.0,1.0,,,,,,,,,green,hexagon
0.0,2.0,2.0,0.0,6.0,6.0,975.764743000127,5.0,1.0,phase_2,go,650.0,850.0,1.0,,,,,,,,,green,hexagon
0.0,4.0,4.0,0.0,6.0,6.0,777.2672060000332,5.0,1.0,phase_2,go,650.0,850.0,1.0,,,,,,,,,yellow,triangle
0.0,8.0,4.0,1.0,6.0,6.0,906.074948999958,5.0,1.0,phase_2,stop,650.0,850.0,3.0,,,,,,,,,white,flipped triangle
0.0,2.0,2.0,0.0,6.0,6.0,384.3185109999467,6.0,1.0,phase_2,go,650.0,800.0,1.0,,,,,,,,,green,hexagon
0.0,7.0,3.0,1.0,5.0,5.0,466.1531230003675,6.0,1.0,phase_2,stop,650.0,800.0,3.0,,,,,,,,,orange,square
0.0,7.0,3.0,1.0,6.0,6.0,721.262623000257,6.0,1.0,phase_2,stop,600.0,800.0,3.0,,,,,,,,,orange,square
0.0,3.0,3.0,0.0,6.0,6.0,752.4860859998626,6.0,1.0,phase_2,go,600.0,750.0,1.0,,,,,,,,,cyan,cross
0.0,1.0,1.0,0.0,6.0,6.0,616.9685249997201,6.0,1.0,phase_2,go,600.0,750.0,1.0,,,,,,,,,blue,diamond
0.0,7.0,3.0,1.0,6.0,6.0,999.2001310001796,6.0,1.0,phase_2,stop,600.0,750.0,3.0,,,,,,,,,orange,square
0.0,4.0,4.0,0.0,5.0,5.0,654.9008120000508,6.0,1.0,phase_2,go,600.0,700.0,1.0,,,,,,,,,yellow,triangle
0.0,4.0,4.0,0.0,6.0,6.0,755.6638769997335,6.0,1.0,phase_2,go,600.0,700.0,1.0,,,,,,,,,yellow,triangle
0.0,2.0,2.0,0.0,5.0,5.0,910.924659000102,6.0,1.0,phase_2,go,600.0,700.0,1.0,,,,,,,,,green,hexagon
0.0,5.0,1.0,1.0,6.0,0.0,0.0,6.0,1.0,phase_2,stop,600.0,700.0,4.0,,,,,,,,,gray,I
0.0,2.0,2.0,0.0,5.0,5.0,571.8868389999443,6.0,1.0,phase_2,go,600.0,750.0,1.0,,,,,,,,,green,hexagon
0.0,6.0,2.0,1.0,6.0,0.0,0.0,6.0,1.0,phase_2,stop,600.0,750.0,4.0,,,,,,,,,magenta,circle
0.0,2.0,2.0,0.0,6.0,6.0,940.9860920000028,6.0,1.0,phase_2,go,600.0,800.0,1.0,,,,,,,,,green,hexagon
0.0,4.0,4.0,0.0,6.0,6.0,1092.0958400001837,6.0,1.0,phase_2,go,600.0,800.0,1.0,,,,,,,,,yellow,triangle
0.0,5.0,1.0,1.0,6.0,0.0,0.0,6.0,1.0,phase_2,stop,600.0,800.0,4.0,,,,,,,,,gray,I
0.0,2.0,2.0,0.0,5.0,5.0,826.620267999715,6.0,1.0,phase_2,go,600.0,850.0,1.0,,,,,,,,,green,hexagon
0.0,3.0,3.0,0.0,5.0,5.0,926.7289069998697,6.0,1.0,phase_2,go,600.0,850.0,1.0,,,,,,,,,cyan,cross
0.0,1.0,1.0,0.0,6.0,6.0,1121.5343680000842,6.0,1.0,phase_2,go,600.0,850.0,1.0,,,,,,,,,blue,diamond
0.0,4.0,4.0,0.0,5.0,5.0,870.1369030000023,6.0,1.0,phase_2,go,600.0,850.0,1.0,,,,,,,,,yellow,triangle
0.0,7.0,3.0,1.0,6.0,6.0,846.7374069996367,6.0,1.0,phase_2,stop,600.0,850.0,3.0,,,,,,,,,orange,square
0.0,4.0,4.0,0.0,6.0,6.0,788.6045049999666,6.0,1.0,phase_2,go,600.0,800.0,1.0,,,,,,,,,yellow,triangle
0.0,8.0,4.0,1.0,6.0,6.0,967.9415260002316,6.0,1.0,phase_2,go,600.0,800.0,1.0,,,,,,,,,white,flipped triangle
0.0,4.0,4.0,0.0,5.0,5.0,1078.593961000024,6.0,1.0,phase_2,go,600.0,800.0,1.0,,,,,,,,,yellow,triangle
0.0,6.0,2.0,1.0,6.0,6.0,758.3625510001184,6.0,1.0,phase_2,stop,600.0,800.0,3.0,,,,,,,,,magenta,circle
0.0,1.0,1.0,0.0,6.0,6.0,926.323467000202,6.0,1.0,phase_2,go,600.0,750.0,1.0,,,,,,,,,blue,diamond
0.0,8.0,4.0,1.0,5.0,0.0,0.0,6.0,1.0,phase_2,stop,600.0,750.0,4.0,,,,,,,,,white,flipped triangle
0.0,4.0,4.0,0.0,6.0,6.0,595.1460100000077,6.0,1.0,phase_2,go,650.0,750.0,1.0,,,,,,,,,yellow,triangle
0.0,6.0,2.0,1.0,6.0,0.0,0.0,6.0,1.0,phase_2,stop,650.0,750.0,4.0,,,,,,,,,magenta,circle
0.0,4.0,4.0,0.0,6.0,6.0,738.9178559997163,6.0,1.0,phase_2,go,650.0,800.0,1.0,,,,,,,,,yellow,triangle
0.0,2.0,2.0,0.0,5.0,5.0,879.49985799969,6.0,1.0,phase_2,go,650.0,800.0,1.0,,,,,,,,,green,hexagon
0.0,8.0,4.0,1.0,6.0,6.0,906.1276200000066,6.0,1.0,phase_2,stop,650.0,800.0,3.0,,,,,,,,,white,flipped triangle
0.0,3.0,3.0,0.0,6.0,6.0,962.2595280002316,6.0,1.0,phase_2,go,650.0,750.0,1.0,,,,,,,,,cyan,cross
0.0,4.0,4.0,0.0,6.0,6.0,997.9611750000004,6.0,1.0,phase_2,go,650.0,750.0,1.0,,,,,,,,,yellow,triangle
0.0,8.0,4.0,1.0,6.0,6.0,854.397138999957,6.0,1.0,phase_2,stop,650.0,750.0,3.0,,,,,,,,,white,flipped triangle
0.0,3.0,3.0,0.0,5.0,5.0,857.2528350000539,6.0,1.0,phase_2,go,650.0,700.0,1.0,,,,,,,,,cyan,cross
0.0,5.0,1.0,1.0,5.0,5.0,1006.4602029997332,6.0,1.0,phase_2,go,650.0,700.0,1.0,,,,,,,,,gray,I
0.0,6.0,2.0,1.0,5.0,5.0,372.6512409998577,7.0,1.0,phase_2,go,650.0,700.0,1.0,,,,,,,,,magenta,circle
0.0,4.0,4.0,0.0,5.0,5.0,823.2757600003424,7.0,1.0,phase_2,go,650.0,700.0,1.0,,,,,,,,,yellow,triangle
0.0,1.0,1.0,0.0,6.0,6.0,685.6179769997652,7.0,1.0,phase_2,go,650.0,700.0,1.0,,,,,,,,,blue,diamond
0.0,2.0,2.0,0.0,5.0,5.0,867.1334410000782,7.0,1.0,phase_2,go,650.0,700.0,1.0,,,,,,,,,green,hexagon
0.0,5.0,1.0,1.0,5.0,0.0,0.0,7.0,1.0,phase_2,stop,650.0,700.0,4.0,,,,,,,,,gray,I
0.0,7.0,3.0,1.0,5.0,5.0,548.5908630002996,7.0,1.0,phase_2,stop,700.0,700.0,3.0,,,,,,,,,orange,square
0.0,6.0,2.0,1.0,5.0,5.0,713.5970149997775,7.0,1.0,phase_2,go,650.0,700.0,1.0,,,,,,,,,magenta,circle
0.0,2.0,2.0,0.0,6.0,6.0,593.2932819996495,7.0,1.0,phase_2,go,650.0,700.0,1.0,,,,,,,,,green,hexagon
0.0,6.0,2.0,1.0,6.0,0.0,0.0,7.0,1.0,phase_2,stop,650.0,700.0,4.0,,,,,,,,,magenta,circle
0.0,1.0,1.0,0.0,6.0,6.0,751.6671480002515,7.0,1.0,phase_2,go,650.0,750.0,1.0,,,,,,,,,blue,diamond
0.0,4.0,4.0,0.0,5.0,5.0,688.5320569999749,7.0,1.0,phase_2,go,650.0,750.0,1.0,,,,,,,,,yellow,triangle
0.0,7.0,3.0,1.0,5.0,0.0,0.0,7.0,1.0,phase_2,stop,650.0,750.0,4.0,,,,,,,,,orange,square
0.0,5.0,1.0,1.0,5.0,5.0,782.4375089999194,7.0,1.0,phase_2,stop,700.0,750.0,3.0,,,,,,,,,gray,I
0.0,8.0,4.0,1.0,5.0,5.0,1255.4168610004126,7.0,1.0,phase_2,go,650.0,750.0,1.0,,,,,,,,,white,flipped triangle
0.0,7.0,3.0,1.0,5.0,0.0,0.0,7.0,1.0,phase_2,stop,650.0,750.0,4.0,,,,,,,,,orange,square
0.0,5.0,1.0,1.0,6.0,6.0,1022.6169630000186,7.0,1.0,phase_2,go,700.0,750.0,1.0,,,,,,,,,gray,I
0.0,3.0,3.0,0.0,6.0,6.0,876.2705300000562,7.0,1.0,phase_2,go,700.0,750.0,1.0,,,,,,,,,cyan,cross
0.0,1.0,1.0,0.0,6.0,6.0,915.3646800000388,7.0,1.0,phase_2,go,700.0,750.0,1.0,,,,,,,,,blue,diamond
0.0,2.0,2.0,0.0,6.0,6.0,733.7040879997403,7.0,1.0,phase_2,go,700.0,750.0,1.0,,,,,,,,,green,hexagon
0.0,2.0,2.0,0.0,5.0,5.0,780.5949009998585,7.0,1.0,phase_2,go,700.0,750.0,1.0,,,,,,,,,green,hexagon
0.0,1.0,1.0,0.0,6.0,6.0,811.3370679998297,7.0,1.0,phase_2,go,700.0,750.0,1.0,,,,,,,,,blue,diamond
0.0,6.0,2.0,1.0,6.0,6.0,706.9499760000326,7.0,1.0,phase_2,stop,700.0,750.0,3.0,,,,,,,,,magenta,circle
0.0,5.0,1.0,1.0,5.0,0.0,0.0,7.0,1.0,phase_2,stop,700.0,700.0,4.0,,,,,,,,,gray,I
0.0,3.0,3.0,0.0,5.0,5.0,848.4396019998712,7.0,1.0,phase_2,go,750.0,700.0,1.0,,,,,,,,,cyan,cross
0.0,8.0,4.0,1.0,6.0,6.0,743.0638830001044,7.0,1.0,phase_2,stop,750.0,700.0,3.0,,,,,,,,,white,flipped triangle
0.0,4.0,4.0,0.0,5.0,5.0,778.8812290000351,7.0,1.0,phase_2,go,750.0,650.0,1.0,,,,,,,,,yellow,triangle
0.0,1.0,1.0,0.0,5.0,5.0,769.2384459996902,7.0,1.0,phase_2,go,750.0,650.0,1.0,,,,,,,,,blue,diamond
0.0,2.0,2.0,0.0,5.0,5.0,862.2637690000374,7.0,1.0,phase_2,go,750.0,650.0,1.0,,,,,,,,,green,hexagon
0.0,1.0,1.0,0.0,5.0,5.0,870.0632020004377,7.0,1.0,phase_2,go,750.0,650.0,1.0,,,,,,,,,blue,diamond
0.0,1.0,1.0,0.0,6.0,6.0,909.2429530001028,7.0,1.0,phase_2,go,750.0,650.0,1.0,,,,,,,,,blue,diamond
0.0,5.0,1.0,1.0,6.0,0.0,0.0,7.0,1.0,phase_2,stop,750.0,650.0,4.0,,,,,,,,,gray,I
0.0,4.0,4.0,0.0,5.0,5.0,909.763259999636,7.0,1.0,phase_2,go,750.0,700.0,1.0,,,,,,,,,yellow,triangle
0.0,6.0,2.0,1.0,5.0,5.0,652.9409330000817,7.0,1.0,phase_2,stop,750.0,700.0,3.0,,,,,,,,,magenta,circle
0.0,8.0,4.0,1.0,6.0,6.0,837.0932409998204,7.0,1.0,phase_2,stop,700.0,700.0,3.0,,,,,,,,,white,flipped triangle
0.0,1.0,1.0,0.0,5.0,5.0,836.8567420002364,7.0,1.0,phase_2,go,700.0,650.0,1.0,,,,,,,,,blue,diamond
0.0,2.0,2.0,0.0,6.0,6.0,993.5064370001784,7.0,1.0,phase_2,go,700.0,650.0,1.0,,,,,,,,,green,hexagon
0.0,3.0,3.0,0.0,5.0,5.0,406.9585299998834,8.0,1.0,phase_2,go,700.0,650.0,1.0,,,,,,,,,cyan,cross
0.0,3.0,3.0,0.0,5.0,5.0,343.1101649998709,8.0,1.0,phase_2,go,700.0,650.0,1.0,,,,,,,,,cyan,cross
0.0,8.0,4.0,1.0,6.0,0.0,0.0,8.0,1.0,phase_2,stop,700.0,650.0,4.0,,,,,,,,,white,flipped triangle
0.0,2.0,2.0,0.0,5.0,5.0,644.4362560000627,8.0,1.0,phase_2,go,700.0,700.0,1.0,,,,,,,,,green,hexagon
0.0,2.0,2.0,0.0,5.0,5.0,846.9329099998504,8.0,1.0,phase_2,go,700.0,700.0,1.0,,,,,,,,,green,hexagon
0.0,7.0,3.0,1.0,5.0,5.0,866.9177140000102,8.0,1.0,phase_2,go,700.0,700.0,1.0,,,,,,,,,orange,square
0.0,2.0,2.0,0.0,5.0,5.0,724.7505370000908,8.0,1.0,phase_2,go,700.0,700.0,1.0,,,,,,,,,green,hexagon
0.0,6.0,2.0,1.0,6.0,6.0,852.9379599999629,8.0,1.0,phase_2,stop,700.0,700.0,3.0,,,,,,,,,magenta,circle
0.0,2.0,2.0,0.0,6.0,6.0,667.0178479998867,8.0,1.0,phase_2,go,700.0,650.0,1.0,,,,,,,,,green,hexagon
0.0,8.0,4.0,1.0,5.0,5.0,819.1338609999548,8.0,1.0,phase_2,go,700.0,650.0,1.0,,,,,,,,,white,flipped triangle
0.0,7.0,3.0,1.0,5.0,5.0,720.3353630002312,8.0,1.0,phase_2,stop,700.0,650.0,3.0,,,,,,,,,orange,square
0.0,5.0,1.0,1.0,5.0,5.0,695.9995259999232,8.0,1.0,phase_2,stop,650.0,650.0,3.0,,,,,,,,,gray,I
0.0,1.0,1.0,0.0,5.0,5.0,793.6201299999084,8.0,1.0,phase_2,go,600.0,650.0,1.0,,,,,,,,,blue,diamond
0.0,6.0,2.0,1.0,6.0,0.0,0.0,8.0,1.0,phase_2,stop,600.0,650.0,4.0,,,,,,,,,magenta,circle
0.0,3.0,3.0,0.0,5.0,5.0,744.9992980000388,8.0,1.0,phase_2,go,600.0,700.0,1.0,,,,,,,,,cyan,cross
0.0,6.0,2.0,1.0,5.0,0.0,0.0,8.0,1.0,phase_2,stop,600.0,700.0,4.0,,,,,,,,,magenta,circle
0.0,2.0,2.0,0.0,5.0,5.0,845.4046950000702,8.0,1.0,phase_2,go,650.0,700.0,1.0,,,,,,,,,green,hexagon
0.0,6.0,2.0,1.0,6.0,6.0,966.1690519997136,8.0,1.0,phase_2,go,650.0,700.0,1.0,,,,,,,,,magenta,circle
0.0,8.0,4.0,1.0,6.0,0.0,0.0,8.0,1.0,phase_2,stop,650.0,700.0,4.0,,,,,,,,,white,flipped triangle
0.0,5.0,1.0,1.0,5.0,5.0,672.4263959999917,8.0,1.0,phase_2,stop,650.0,750.0,3.0,,,,,,,,,gray,I
0.0,3.0,3.0,0.0,5.0,5.0,802.8848220001237,8.0,1.0,phase_2,go,600.0,750.0,1.0,,,,,,,,,cyan,cross
0.0,1.0,1.0,0.0,5.0,5.0,828.4672750000937,8.0,1.0,phase_2,go,600.0,750.0,1.0,,,,,,,,,blue,diamond
0.0,6.0,2.0,1.0,6.0,6.0,793.6746479999783,8.0,1.0,phase_2,stop,600.0,750.0,3.0,,,,,,,,,magenta,circle
0.0,3.0,3.0,0.0,5.0,5.0,1162.346591000187,8.0,1.0,phase_2,go,600.0,700.0,1.0,,,,,,,,,cyan,cross
0.0,7.0,3.0,1.0,6.0,6.0,754.5301850000214,8.0,1.0,phase_2,stop,600.0,700.0,3.0,,,,,,,,,orange,square
0.0,1.0,1.0,0.0,5.0,5.0,812.0908400001099,8.0,1.0,phase_2,go,600.0,650.0,1.0,,,,,,,,,blue,diamond
0.0,2.0,2.0,0.0,6.0,6.0,706.5769020000516,8.0,1.0,phase_2,go,600.0,650.0,1.0,,,,,,,,,green,hexagon
0.0,8.0,4.0,1.0,5.0,0.0,0.0,8.0,1.0,phase_2,stop,600.0,650.0,4.0,,,,,,,,,white,flipped triangle
0.0,5.0,1.0,1.0,6.0,6.0,671.0763040000529,8.0,1.0,phase_2,stop,650.0,650.0,3.0,,,,,,,,,gray,I
0.0,3.0,3.0,0.0,6.0,6.0,882.0246260002023,8.0,1.0,phase_2,go,650.0,600.0,1.0,,,,,,,,,cyan,cross
0.0,8.0,4.0,1.0,5.0,5.0,367.3723759998211,8.0,1.0,phase_2,stop,650.0,600.0,3.0,,,,,,,,,white,flipped triangle
0.0,4.0,4.0,0.0,6.0,6.0,1044.705050000175,8.0,1.0,phase_2,go,600.0,600.0,1.0,,,,,,,,,yellow,triangle
0.0,8.0,4.0,1.0,6.0,0.0,0.0,8.0,1.0,phase_2,stop,600.0,600.0,4.0,,,,,,,,,white,flipped triangle
0.0,1.0,1.0,0.0,5.0,5.0,662.2214409999287,8.0,1.0,phase_2,go,600.0,650.0,1.0,,,,,,,,,blue,diamond
0.0,5.0,1.0,1.0,5.0,0.0,0.0,8.0,1.0,phase_2,stop,600.0,650.0,4.0,,,,,,,,,gray,I
0.0,6.0,2.0,1.0,6.0,6.0,515.0874810001369,8.0,1.0,phase_2,go,650.0,650.0,1.0,,,,,,,,,magenta,circle
0.0,3.0,3.0,0.0,7.0,3.0,2471.409472000232,1.0,1.0,phase_3,,,,,108.0,2.0,54.0,162.0,108.0,270.0,216.0,324.0,cyan,cross
0.0,2.0,2.0,0.0,7.0,2.0,2317.606767000143,1.0,1.0,phase_3,,,,,264.0,6.0,88.0,264.0,176.0,132.0,44.0,220.0,green,hexagon
0.0,2.0,2.0,0.0,7.0,2.0,2567.2320499998023,1.0,1.0,phase_3,,,,,195.0,5.0,78.0,195.0,156.0,39.0,117.0,234.0,green,hexagon
0.0,5.0,1.0,1.0,7.0,6.0,3956.676215999323,1.0,1.0,phase_3,,,,,245.0,5.0,147.0,49.0,98.0,294.0,196.0,245.0,gray,I
0.0,8.0,4.0,1.0,7.0,6.0,1935.639690000244,1.0,1.0,phase_3,,,,,270.0,5.0,54.0,324.0,108.0,216.0,162.0,270.0,white,flipped triangle
0.0,7.0,3.0,1.0,7.0,1.0,1654.4162689997393,1.0,1.0,phase_3,,,,,147.0,3.0,147.0,196.0,98.0,294.0,245.0,49.0,orange,square
0.0,2.0,2.0,0.0,7.0,6.0,1193.4211660000074,1.0,1.0,phase_3,,,,,204.0,6.0,34.0,170.0,136.0,68.0,102.0,204.0,green,hexagon
0.0,6.0,2.0,1.0,7.0,5.0,1825.8959530003267,1.0,1.0,phase_3,,,,,39.0,1.0,156.0,117.0,234.0,195.0,39.0,78.0,magenta,circle
0.0,4.0,4.0,0.0,7.0,1.0,1046.5048579999348,1.0,1.0,phase_3,,,,,136.0,4.0,136.0,102.0,204.0,34.0,68.0,170.0,yellow,triangle
0.0,1.0,1.0,0.0,7.0,1.0,1334.918714000196,1.0,1.0,phase_3,,,,,234.0,6.0,234.0,195.0,39.0,117.0,156.0,78.0,blue,diamond
0.0,6.0,2.0,1.0,7.0,4.0,2341.924288999508,1.0,1.0,phase_3,,,,,195.0,5.0,117.0,234.0,39.0,195.0,156.0,78.0,magenta,circle
0.0,1.0,1.0,0.0,7.0,6.0,2344.384042999991,1.0,1.0,phase_3,,,,,132.0,3.0,264.0,220.0,176.0,44.0,88.0,132.0,blue,diamond
0.0,6.0,2.0,1.0,7.0,6.0,1499.2241529998864,1.0,1.0,phase_3,,,,,204.0,6.0,102.0,170.0,68.0,34.0,136.0,204.0,magenta,circle
0.0,4.0,4.0,0.0,7.0,1.0,1809.3812349998188,1.0,1.0,phase_3,,,,,170.0,5.0,170.0,68.0,136.0,102.0,204.0,34.0,yellow,triangle
0.0,7.0,3.0,1.0,7.0,1.0,2013.140517000465,1.0,1.0,phase_3,,,,,147.0,3.0,147.0,196.0,98.0,49.0,245.0,294.0,orange,square
0.0,7.0,3.0,1.0,7.0,6.0,1444.420417999936,1.0,1.0,phase_3,,,,,204.0,6.0,102.0,136.0,170.0,68.0,34.0,204.0,orange,square
0.0,7.0,3.0,1.0,7.0,4.0,2486.3027830006104,1.0,1.0,phase_3,,,,,88.0,2.0,220.0,264.0,132.0,88.0,176.0,44.0,orange,square
0.0,6.0,2.0,1.0,7.0,2.0,1594.2523620005886,1.0,1.0,phase_3,,,,,108.0,2.0,162.0,108.0,324.0,270.0,216.0,54.0,magenta,circle
0.0,4.0,4.0,0.0,7.0,5.0,1624.4559639999352,1.0,1.0,phase_3,,,,,156.0,4.0,117.0,234.0,195.0,39.0,156.0,78.0,yellow,triangle
0.0,3.0,3.0,0.0,7.0,6.0,1525.1370870000756,1.0,1.0,phase_3,,,,,195.0,5.0,78.0,234.0,39.0,117.0,156.0,195.0,cyan,cross
0.0,7.0,3.0,1.0,7.0,2.0,1301.0303179999028,2.0,1.0,phase_3,,,,,220.0,5.0,176.0,220.0,88.0,44.0,132.0,264.0,orange,square
0.0,5.0,1.0,1.0,7.0,4.0,2736.6308660002687,2.0,1.0,phase_3,,,,,68.0,2.0,204.0,136.0,170.0,68.0,102.0,34.0,gray,I
0.0,8.0,4.0,1.0,7.0,6.0,1809.542295999563,2.0,1.0,phase_3,,,,,216.0,4.0,324.0,270.0,162.0,108.0,54.0,216.0,white,flipped triangle
0.0,7.0,3.0,1.0,7.0,2.0,1883.14637700023,2.0,1.0,phase_3,,,,,195.0,5.0,117.0,195.0,234.0,78.0,39.0,156.0,orange,square
0.0,8.0,4.0,1.0,7.0,1.0,1293.6368110003968,2.0,1.0,phase_3,,,,,176.0,4.0,176.0,220.0,264.0,44.0,132.0,88.0,white,flipped triangle
0.0,6.0,2.0,1.0,7.0,6.0,1701.408635000007,2.0,1.0,phase_3,,,,,264.0,6.0,176.0,44.0,132.0,88.0,220.0,264.0,magenta,circle
0.0,3.0,3.0,0.0,7.0,5.0,2054.702207000446,2.0,1.0,phase_3,,,,,220.0,5.0,132.0,176.0,88.0,264.0,220.0,44.0,cyan,cross
0.0,6.0,2.0,1.0,7.0,1.0,1823.71405899994,2.0,1.0,phase_3,,,,,176.0,4.0,176.0,44.0,132.0,88.0,220.0,264.0,magenta,circle
0.0,4.0,4.0,0.0,7.0,6.0,1499.192371999925,2.0,1.0,phase_3,,,,,195.0,5.0,117.0,156.0,234.0,39.0,78.0,195.0,yellow,triangle
0.0,5.0,1.0,1.0,7.0,4.0,1972.7792630001204,2.0,1.0,phase_3,,,,,220.0,5.0,176.0,132.0,44.0,220.0,264.0,88.0,gray,I
0.0,6.0,2.0,1.0,7.0,6.0,1707.713030000377,2.0,1.0,phase_3,,,,,147.0,3.0,98.0,49.0,196.0,245.0,294.0,147.0,magenta,circle
0.0,4.0,4.0,0.0,7.0,5.0,1932.3860989998136,2.0,1.0,phase_3,,,,,108.0,2.0,270.0,216.0,54.0,324.0,108.0,162.0,yellow,triangle
0.0,4.0,4.0,0.0,7.0,2.0,1837.2450169999863,2.0,1.0,phase_3,,,,,196.0,4.0,98.0,196.0,147.0,245.0,294.0,49.0,yellow,triangle
0.0,1.0,1.0,0.0,7.0,1.0,1904.909496000073,2.0,1.0,phase_3,,,,,204.0,6.0,204.0,34.0,136.0,170.0,102.0,68.0,blue,diamond
0.0,1.0,1.0,0.0,7.0,6.0,1447.927029999846,2.0,1.0,phase_3,,,,,245.0,5.0,98.0,147.0,49.0,294.0,196.0,245.0,blue,diamond
0.0,3.0,3.0,0.0,7.0,5.0,1401.872593000007,2.0,1.0,phase_3,,,,,136.0,4.0,34.0,68.0,204.0,170.0,136.0,102.0,cyan,cross
0.0,3.0,3.0,0.0,7.0,1.0,1101.0869829997318,2.0,1.0,phase_3,,,,,162.0,3.0,162.0,54.0,324.0,108.0,216.0,270.0,cyan,cross
0.0,5.0,1.0,1.0,7.0,6.0,1150.4400840003657,2.0,1.0,phase_3,,,,,147.0,3.0,294.0,196.0,49.0,98.0,245.0,147.0,gray,I
0.0,8.0,4.0,1.0,7.0,4.0,1344.4316759996582,2.0,1.0,phase_3,,,,,156.0,4.0,234.0,117.0,195.0,156.0,39.0,78.0,white,flipped triangle
0.0,4.0,4.0,0.0,7.0,6.0,1463.1360359999237,2.0,1.0,phase_3,,,,,270.0,5.0,162.0,216.0,54.0,324.0,108.0,270.0,yellow,triangle
0.0,1.0,1.0,0.0,7.0,4.0,1179.1387069997654,3.0,1.0,phase_3,,,,,102.0,3.0,68.0,34.0,204.0,102.0,136.0,170.0,blue,diamond
0.0,5.0,1.0,1.0,7.0,5.0,1621.29670000013,3.0,1.0,phase_3,,,,,195.0,5.0,234.0,117.0,39.0,78.0,195.0,156.0,gray,I
0.0,3.0,3.0,0.0,7.0,1.0,1983.843846000127,3.0,1.0,phase_3,,,,,195.0,5.0,195.0,234.0,78.0,39.0,117.0,156.0,cyan,cross
0.0,2.0,2.0,0.0,7.0,2.0,1957.9305340002973,3.0,1.0,phase_3,,,,,136.0,4.0,170.0,136.0,102.0,34.0,68.0,204.0,green,hexagon
0.0,7.0,3.0,1.0,7.0,6.0,1395.6947139995464,3.0,1.0,phase_3,,,,,204.0,6.0,136.0,102.0,68.0,34.0,170.0,204.0,orange,square
0.0,1.0,1.0,0.0,7.0,4.0,2011.366955000085,3.0,1.0,phase_3,,,,,245.0,5.0,147.0,196.0,294.0,245.0,98.0,49.0,blue,diamond
0.0,5.0,1.0,1.0,7.0,1.0,1517.5596720000613,3.0,1.0,phase_3,,,,,44.0,1.0,44.0,88.0,132.0,220.0,176.0,264.0,gray,I
0.0,3.0,3.0,0.0,7.0,5.0,2342.0062379991577,3.0,1.0,phase_3,,,,,220.0,5.0,264.0,176.0,132.0,44.0,220.0,88.0,cyan,cross
0.0,1.0,1.0,0.0,7.0,6.0,3097.64670200002,3.0,1.0,phase_3,,,,,54.0,1.0,108.0,324.0,270.0,162.0,216.0,54.0,blue,diamond
0.0,1.0,1.0,0.0,7.0,1.0,1944.511244999376,3.0,1.0,phase_3,,,,,264.0,6.0,264.0,88.0,132.0,220.0,44.0,176.0,blue,diamond
0.0,2.0,2.0,0.0,7.0,6.0,2503.626255999734,3.0,1.0,phase_3,,,,,196.0,4.0,98.0,245.0,147.0,294.0,49.0,196.0,green,hexagon
0.0,2.0,2.0,0.0,7.0,1.0,1848.933637999835,3.0,1.0,phase_3,,,,,39.0,1.0,39.0,234.0,78.0,156.0,117.0,195.0,green,hexagon
0.0,1.0,1.0,0.0,7.0,1.0,2938.5383819999333,3.0,1.0,phase_3,,,,,216.0,4.0,216.0,108.0,324.0,270.0,54.0,162.0,blue,diamond
0.0,3.0,3.0,0.0,7.0,5.0,2222.984537000229,3.0,1.0,phase_3,,,,,294.0,6.0,196.0,49.0,147.0,98.0,294.0,245.0,cyan,cross
0.0,8.0,4.0,1.0,7.0,4.0,1950.417830999868,3.0,1.0,phase_3,,,,,196.0,4.0,49.0,147.0,294.0,196.0,98.0,245.0,white,flipped triangle
0.0,3.0,3.0,0.0,7.0,1.0,2047.183274000417,3.0,1.0,phase_3,,,,,196.0,4.0,196.0,49.0,294.0,245.0,147.0,98.0,cyan,cross
0.0,8.0,4.0,1.0,7.0,1.0,2320.10681400061,3.0,1.0,phase_3,,,,,68.0,2.0,68.0,34.0,204.0,102.0,170.0,136.0,white,flipped triangle
0.0,2.0,2.0,0.0,7.0,2.0,2441.265260000364,3.0,1.0,phase_3,,,,,98.0,2.0,294.0,98.0,147.0,245.0,49.0,196.0,green,hexagon
0.0,5.0,1.0,1.0,7.0,4.0,1738.8363870004468,3.0,1.0,phase_3,,,,,234.0,6.0,78.0,156.0,117.0,234.0,39.0,195.0,gray,I
0.0,6.0,2.0,1.0,7.0,1.0,2126.291552000112,3.0,1.0,phase_3,,,,,68.0,2.0,68.0,34.0,102.0,170.0,136.0,204.0,magenta,circle
0.0,7.0,3.0,1.0,7.0,4.0,1207.9668910000692,4.0,1.0,phase_3,,,,,54.0,1.0,324.0,270.0,216.0,54.0,162.0,108.0,orange,square
0.0,7.0,3.0,1.0,7.0,2.0,2402.1798370004035,4.0,1.0,phase_3,,,,,195.0,5.0,78.0,195.0,234.0,117.0,39.0,156.0,orange,square
0.0,4.0,4.0,0.0,7.0,6.0,1116.0545540005842,4.0,1.0,phase_3,,,,,176.0,4.0,44.0,132.0,88.0,220.0,264.0,176.0,yellow,triangle
0.0,8.0,4.0,1.0,7.0,5.0,1469.8843739997756,4.0,1.0,phase_3,,,,,234.0,6.0,39.0,156.0,117.0,78.0,234.0,195.0,white,flipped triangle
0.0,5.0,1.0,1.0,7.0,6.0,1911.2531179998768,4.0,1.0,phase_3,,,,,270.0,5.0,108.0,216.0,162.0,324.0,54.0,270.0,gray,I
0.0,8.0,4.0,1.0,7.0,4.0,2168.5537759994986,4.0,1.0,phase_3,,,,,170.0,5.0,102.0,204.0,68.0,170.0,136.0,34.0,white,flipped triangle
0.0,4.0,4.0,0.0,7.0,1.0,2466.320032999647,4.0,1.0,phase_3,,,,,264.0,6.0,264.0,176.0,220.0,132.0,88.0,44.0,yellow,triangle
0.0,8.0,4.0,1.0,7.0,1.0,3137.1410479996484,4.0,1.0,phase_3,,,,,132.0,3.0,132.0,220.0,264.0,44.0,88.0,176.0,white,flipped triangle
0.0,4.0,4.0,0.0,7.0,5.0,2586.0077070001357,4.0,1.0,phase_3,,,,,245.0,5.0,98.0,196.0,294.0,147.0,245.0,49.0,yellow,triangle
0.0,6.0,2.0,1.0,7.0,2.0,2411.634804999266,4.0,1.0,phase_3,,,,,147.0,3.0,49.0,147.0,196.0,294.0,245.0,98.0,magenta,circle
0.0,3.0,3.0,0.0,7.0,2.0,2228.7163820001297,4.0,1.0,phase_3,,,,,204.0,6.0,136.0,204.0,68.0,102.0,170.0,34.0,cyan,cross
0.0,5.0,1.0,1.0,7.0,5.0,2182.27694899997,4.0,1.0,phase_3,,,,,270.0,5.0,108.0,162.0,324.0,216.0,270.0,54.0,gray,I
0.0,2.0,2.0,0.0,7.0,4.0,2119.7157530004915,4.0,1.0,phase_3,,,,,324.0,6.0,162.0,270.0,54.0,324.0,108.0,216.0,green,hexagon
0.0,6.0,2.0,1.0,7.0,4.0,3474.172272999567,4.0,1.0,phase_3,,,,,108.0,2.0,324.0,54.0,216.0,108.0,162.0,270.0,magenta,circle
0.0,2.0,2.0,0.0,7.0,3.0,2573.12238600025,4.0,1.0,phase_3,,,,,216.0,4.0,54.0,162.0,216.0,324.0,270.0,108.0,green,hexagon
0.0,2.0,2.0,0.0,7.0,1.0,1822.7808389992788,4.0,1.0,phase_3,,,,,176.0,4.0,176.0,44.0,88.0,220.0,132.0,264.0,green,hexagon
0.0,5.0,1.0,1.0,7.0,3.0,2805.870793999929,4.0,1.0,phase_3,,,,,102.0,3.0,68.0,34.0,102.0,204.0,170.0,136.0,gray,I
0.0,7.0,3.0,1.0,7.0,1.0,1978.193631999602,4.0,1.0,phase_3,,,,,162.0,3.0,162.0,270.0,54.0,324.0,108.0,216.0,orange,square
0.0,8.0,4.0,1.0,7.0,6.0,1368.9622800002326,4.0,1.0,phase_3,,,,,245.0,5.0,294.0,98.0,147.0,196.0,49.0,245.0,white,flipped triangle
0.0,1.0,1.0,0.0,7.0,6.0,1539.445970000088,4.0,1.0,phase_3,,,,,78.0,2.0,156.0,234.0,195.0,117.0,39.0,78.0,blue,diamond
