raw_reward_magnitude,stim_reward,stepwise_reward_magnitude,paired_with_stopping,quadrant,response,reaction_time,block,num_trial_presentations,which_part,stop_signal_trial_type,left_SSD,right_SSD,accuracy,chosen_bidding_amount,chosen_bidding_level,possible_bid_1,possible_bid_2,possible_bid_3,possible_bid_4,possible_bid_5,possible_bid_6,color_text,shape_text
405.0,4.0,4.0,0.0,1.0,1.0,418.6027770047076,1.0,1.0,part_1,,,,,,,,,,,,,cyan,hexagon
0.0,4.0,0.0,0.0,2.0,2.0,307.261620007921,1.0,1.0,part_1,,,,,,,,,,,,,cyan,hexagon
178.0,7.0,3.0,1.0,2.0,2.0,341.5123760059941,1.0,1.0,part_1,,,,,,,,,,,,,white,triangle
122.0,6.0,2.0,1.0,4.0,4.0,345.4286810010671,1.0,1.0,part_1,,,,,,,,,,,,,gray,I
184.0,7.0,3.0,1.0,4.0,4.0,354.4756999763194,1.0,1.0,part_1,,,,,,,,,,,,,white,triangle
112.0,6.0,2.0,1.0,2.0,2.0,315.7889209978748,1.0,1.0,part_1,,,,,,,,,,,,,gray,I
120.0,6.0,2.0,1.0,2.0,2.0,338.9266279991716,1.0,1.0,part_1,,,,,,,,,,,,,gray,I
124.0,2.0,2.0,0.0,2.0,2.0,382.8266139898915,1.0,1.0,part_1,,,,,,,,,,,,,blue,circle
412.0,4.0,4.0,0.0,2.0,2.0,363.9345210103784,1.0,1.0,part_1,,,,,,,,,,,,,cyan,hexagon
179.0,7.0,3.0,1.0,3.0,3.0,382.954286003951,1.0,1.0,part_1,,,,,,,,,,,,,white,triangle
192.0,3.0,3.0,0.0,4.0,4.0,341.9763200217858,1.0,1.0,part_1,,,,,,,,,,,,,orange,diamond
111.0,6.0,2.0,1.0,4.0,4.0,401.2516810034867,1.0,1.0,part_1,,,,,,,,,,,,,gray,I
417.0,8.0,4.0,1.0,3.0,3.0,356.765712989727,1.0,1.0,part_1,,,,,,,,,,,,,green,cross
399.0,4.0,4.0,0.0,4.0,4.0,288.6001040169503,1.0,1.0,part_1,,,,,,,,,,,,,cyan,hexagon
86.0,2.0,2.0,0.0,2.0,2.0,336.6092039796058,1.0,1.0,part_1,,,,,,,,,,,,,blue,circle
0.0,2.0,0.0,0.0,2.0,2.0,299.7007799858693,1.0,1.0,part_1,,,,,,,,,,,,,blue,circle
209.0,3.0,3.0,0.0,4.0,4.0,289.7679790039547,1.0,1.0,part_1,,,,,,,,,,,,,orange,diamond
395.0,4.0,4.0,0.0,2.0,2.0,331.8129219987895,1.0,1.0,part_1,,,,,,,,,,,,,cyan,hexagon
58.0,5.0,1.0,1.0,3.0,3.0,570.3287359792739,1.0,1.0,part_1,,,,,,,,,,,,,magenta,flipped triangle
0.0,1.0,0.0,0.0,2.0,2.0,286.1898779810872,1.0,1.0,part_1,,,,,,,,,,,,,yellow,square
55.0,5.0,1.0,1.0,2.0,2.0,560.6574160046875,1.0,1.0,part_1,,,,,,,,,,,,,magenta,flipped triangle
106.0,2.0,2.0,0.0,4.0,4.0,365.0989389861934,1.0,2.0,part_1,,,,,,,,,,,,,blue,circle
209.0,7.0,3.0,1.0,1.0,1.0,393.5095779888797,1.0,1.0,part_1,,,,,,,,,,,,,white,triangle
0.0,7.0,0.0,1.0,4.0,4.0,356.5332639846019,1.0,1.0,part_1,,,,,,,,,,,,,white,triangle
191.0,3.0,3.0,0.0,4.0,4.0,340.2081319945864,1.0,1.0,part_1,,,,,,,,,,,,,orange,diamond
48.0,5.0,1.0,1.0,2.0,2.0,269.6695449994877,1.0,1.0,part_1,,,,,,,,,,,,,magenta,flipped triangle
0.0,4.0,0.0,0.0,1.0,1.0,282.0124689897056,1.0,1.0,part_1,,,,,,,,,,,,,cyan,hexagon
179.0,3.0,3.0,0.0,3.0,3.0,351.5457790053915,1.0,1.0,part_1,,,,,,,,,,,,,orange,diamond
179.0,3.0,3.0,0.0,2.0,2.0,290.9579199913423,1.0,1.0,part_1,,,,,,,,,,,,,orange,diamond
74.0,5.0,1.0,1.0,1.0,1.0,419.0525560115929,1.0,1.0,part_1,,,,,,,,,,,,,magenta,flipped triangle
0.0,3.0,0.0,0.0,1.0,1.0,340.8834160072729,1.0,1.0,part_1,,,,,,,,,,,,,orange,diamond
0.0,6.0,0.0,1.0,3.0,3.0,340.2383190114051,1.0,1.0,part_1,,,,,,,,,,,,,gray,I
199.0,7.0,3.0,1.0,2.0,2.0,240.1899280084762,1.0,1.0,part_1,,,,,,,,,,,,,white,triangle
420.0,4.0,4.0,0.0,1.0,1.0,340.9008210001047,1.0,1.0,part_1,,,,,,,,,,,,,cyan,hexagon
183.0,7.0,3.0,1.0,3.0,3.0,258.3788119954988,1.0,1.0,part_1,,,,,,,,,,,,,white,triangle
180.0,7.0,3.0,1.0,1.0,1.0,328.2143420074135,1.0,1.0,part_1,,,,,,,,,,,,,white,triangle
43.0,5.0,1.0,1.0,3.0,3.0,331.0358620074112,1.0,1.0,part_1,,,,,,,,,,,,,magenta,flipped triangle
0.0,4.0,0.0,0.0,2.0,2.0,272.8278799913823,1.0,1.0,part_1,,,,,,,,,,,,,cyan,hexagon
76.0,6.0,2.0,1.0,4.0,4.0,340.0752310117241,1.0,1.0,part_1,,,,,,,,,,,,,gray,I
79.0,2.0,2.0,0.0,1.0,1.0,335.2974640147295,1.0,1.0,part_1,,,,,,,,,,,,,blue,circle
80.0,6.0,2.0,1.0,1.0,1.0,382.3221399798058,1.0,1.0,part_1,,,,,,,,,,,,,gray,I
98.0,2.0,2.0,0.0,1.0,1.0,329.0362849947996,1.0,1.0,part_1,,,,,,,,,,,,,blue,circle
59.0,1.0,1.0,0.0,4.0,4.0,361.0241109854541,1.0,1.0,part_1,,,,,,,,,,,,,yellow,square
30.0,5.0,1.0,1.0,1.0,1.0,361.881043005269,1.0,1.0,part_1,,,,,,,,,,,,,magenta,flipped triangle
91.0,6.0,2.0,1.0,1.0,1.0,415.2465449878946,1.0,1.0,part_1,,,,,,,,,,,,,gray,I
379.0,4.0,4.0,0.0,4.0,4.0,423.1849530187901,1.0,1.0,part_1,,,,,,,,,,,,,cyan,hexagon
420.0,8.0,4.0,1.0,2.0,2.0,384.5651620067656,1.0,1.0,part_1,,,,,,,,,,,,,green,cross
188.0,7.0,3.0,1.0,3.0,3.0,343.697966018226,1.0,1.0,part_1,,,,,,,,,,,,,white,triangle
77.0,2.0,2.0,0.0,4.0,4.0,496.9827860186342,1.0,1.0,part_1,,,,,,,,,,,,,blue,circle
405.0,4.0,4.0,0.0,2.0,2.0,480.2686600014567,1.0,1.0,part_1,,,,,,,,,,,,,cyan,hexagon
77.0,6.0,2.0,1.0,1.0,1.0,379.2377229838166,1.0,1.0,part_1,,,,,,,,,,,,,gray,I
393.0,4.0,4.0,0.0,4.0,4.0,346.992450999096,1.0,1.0,part_1,,,,,,,,,,,,,cyan,hexagon
189.0,7.0,3.0,1.0,4.0,4.0,348.5413499874994,1.0,1.0,part_1,,,,,,,,,,,,,white,triangle
70.0,5.0,1.0,1.0,4.0,4.0,307.5431510224007,1.0,1.0,part_1,,,,,,,,,,,,,magenta,flipped triangle
86.0,6.0,2.0,1.0,4.0,4.0,412.8707390045747,1.0,1.0,part_1,,,,,,,,,,,,,gray,I
60.0,5.0,1.0,1.0,3.0,3.0,381.0044779966119,1.0,1.0,part_1,,,,,,,,,,,,,magenta,flipped triangle
0.0,7.0,0.0,1.0,2.0,2.0,289.735219994327,1.0,1.0,part_1,,,,,,,,,,,,,white,triangle
0.0,5.0,0.0,1.0,4.0,4.0,349.6421379968524,1.0,1.0,part_1,,,,,,,,,,,,,magenta,flipped triangle
0.0,5.0,0.0,1.0,4.0,4.0,362.2653910133522,1.0,1.0,part_1,,,,,,,,,,,,,magenta,flipped triangle
0.0,3.0,0.0,0.0,4.0,4.0,316.6906670085154,1.0,1.0,part_1,,,,,,,,,,,,,orange,diamond
37.0,5.0,1.0,1.0,4.0,4.0,306.9367649732157,1.0,1.0,part_1,,,,,,,,,,,,,magenta,flipped triangle
49.0,1.0,1.0,0.0,3.0,3.0,448.5968939843587,1.0,1.0,part_1,,,,,,,,,,,,,yellow,square
0.0,4.0,0.0,0.0,3.0,3.0,338.7941379914991,1.0,1.0,part_1,,,,,,,,,,,,,cyan,hexagon
0.0,4.0,0.0,0.0,2.0,2.0,319.427223992534,1.0,1.0,part_1,,,,,,,,,,,,,cyan,hexagon
0.0,8.0,0.0,1.0,3.0,3.0,276.876864983933,1.0,1.0,part_1,,,,,,,,,,,,,green,cross
76.0,6.0,2.0,1.0,1.0,1.0,443.6471890076063,1.0,1.0,part_1,,,,,,,,,,,,,gray,I
0.0,2.0,0.0,0.0,1.0,1.0,381.1630990239791,1.0,1.0,part_1,,,,,,,,,,,,,blue,circle
175.0,3.0,3.0,0.0,1.0,1.0,364.031770004658,1.0,1.0,part_1,,,,,,,,,,,,,orange,diamond
192.0,7.0,3.0,1.0,1.0,1.0,352.8106239973567,1.0,1.0,part_1,,,,,,,,,,,,,white,triangle
188.0,3.0,3.0,0.0,1.0,1.0,390.2747030078899,1.0,1.0,part_1,,,,,,,,,,,,,orange,diamond
0.0,6.0,0.0,1.0,4.0,4.0,383.8208819797728,1.0,2.0,part_1,,,,,,,,,,,,,gray,I
87.0,6.0,2.0,1.0,2.0,2.0,290.0211010128259,1.0,1.0,part_1,,,,,,,,,,,,,gray,I
51.0,5.0,1.0,1.0,2.0,2.0,352.3390170012135,1.0,1.0,part_1,,,,,,,,,,,,,magenta,flipped triangle
224.0,3.0,3.0,0.0,3.0,3.0,294.6068189921789,1.0,1.0,part_1,,,,,,,,,,,,,orange,diamond
380.0,4.0,4.0,0.0,3.0,3.0,407.3564269929193,1.0,1.0,part_1,,,,,,,,,,,,,cyan,hexagon
0.0,6.0,0.0,1.0,4.0,4.0,303.9292930043302,1.0,1.0,part_1,,,,,,,,,,,,,gray,I
205.0,3.0,3.0,0.0,2.0,2.0,252.0908919977955,1.0,1.0,part_1,,,,,,,,,,,,,orange,diamond
56.0,5.0,1.0,1.0,3.0,3.0,369.0890989964828,1.0,1.0,part_1,,,,,,,,,,,,,magenta,flipped triangle
87.0,2.0,2.0,0.0,4.0,4.0,379.391836002469,1.0,1.0,part_1,,,,,,,,,,,,,blue,circle
112.0,2.0,2.0,0.0,2.0,2.0,414.5457200065721,1.0,1.0,part_1,,,,,,,,,,,,,blue,circle
111.0,6.0,2.0,1.0,2.0,2.0,444.6207660075743,1.0,1.0,part_1,,,,,,,,,,,,,gray,I
187.0,3.0,3.0,0.0,4.0,4.0,384.81176699860947,1.0,1.0,part_1,,,,,,,,,,,,,orange,diamond
406.0,4.0,4.0,0.0,1.0,1.0,302.2350569954142,1.0,1.0,part_1,,,,,,,,,,,,,cyan,hexagon
69.0,5.0,1.0,1.0,4.0,4.0,322.7293440140784,1.0,1.0,part_1,,,,,,,,,,,,,magenta,flipped triangle
0.0,1.0,0.0,0.0,3.0,3.0,353.326956013916,1.0,1.0,part_1,,,,,,,,,,,,,yellow,square
423.0,8.0,4.0,1.0,1.0,1.0,323.9757290284615,1.0,1.0,part_1,,,,,,,,,,,,,green,cross
0.0,4.0,0.0,0.0,3.0,3.0,289.5815079973545,1.0,1.0,part_1,,,,,,,,,,,,,cyan,hexagon
392.0,8.0,4.0,1.0,2.0,2.0,295.004469982814,1.0,1.0,part_1,,,,,,,,,,,,,green,cross
0.0,3.0,0.0,0.0,2.0,2.0,282.5848000065889,1.0,1.0,part_1,,,,,,,,,,,,,orange,diamond
220.0,7.0,3.0,1.0,2.0,2.0,320.8654990012292,1.0,1.0,part_1,,,,,,,,,,,,,white,triangle
0.0,4.0,0.0,0.0,1.0,1.0,269.3796090024989,1.0,1.0,part_1,,,,,,,,,,,,,cyan,hexagon
82.0,2.0,2.0,0.0,1.0,1.0,352.9008149926085,1.0,1.0,part_1,,,,,,,,,,,,,blue,circle
44.0,1.0,1.0,0.0,3.0,3.0,416.8459520151373,1.0,2.0,part_1,,,,,,,,,,,,,yellow,square
29.0,5.0,1.0,1.0,3.0,3.0,326.7999629897531,1.0,1.0,part_1,,,,,,,,,,,,,magenta,flipped triangle
209.0,3.0,3.0,0.0,2.0,2.0,322.6227950071916,1.0,1.0,part_1,,,,,,,,,,,,,orange,diamond
224.0,7.0,3.0,1.0,4.0,4.0,415.7355840143282,1.0,1.0,part_1,,,,,,,,,,,,,white,triangle
28.0,5.0,1.0,1.0,1.0,1.0,445.468352001626,1.0,1.0,part_1,,,,,,,,,,,,,magenta,flipped triangle
28.0,1.0,1.0,0.0,4.0,4.0,360.7841889897827,1.0,1.0,part_1,,,,,,,,,,,,,yellow,square
76.0,2.0,2.0,0.0,1.0,1.0,430.9955849894322,1.0,1.0,part_1,,,,,,,,,,,,,blue,circle
101.0,2.0,2.0,0.0,4.0,4.0,498.8490120158531,1.0,1.0,part_1,,,,,,,,,,,,,blue,circle
199.0,3.0,3.0,0.0,3.0,3.0,455.4648329794872,2.0,1.0,part_1,,,,,,,,,,,,,orange,diamond
388.0,8.0,4.0,1.0,1.0,1.0,371.5706509829033,2.0,1.0,part_1,,,,,,,,,,,,,green,cross
58.0,1.0,1.0,0.0,1.0,1.0,496.8673510011285,2.0,1.0,part_1,,,,,,,,,,,,,yellow,square
190.0,3.0,3.0,0.0,3.0,3.0,381.1925969785079,2.0,1.0,part_1,,,,,,,,,,,,,orange,diamond
0.0,7.0,0.0,1.0,4.0,4.0,373.1126759957988,2.0,1.0,part_1,,,,,,,,,,,,,white,triangle
74.0,1.0,1.0,0.0,3.0,3.0,288.6567569803446,2.0,1.0,part_1,,,,,,,,,,,,,yellow,square
0.0,2.0,0.0,0.0,1.0,1.0,310.4262340057175,2.0,1.0,part_1,,,,,,,,,,,,,blue,circle
192.0,3.0,3.0,0.0,2.0,2.0,282.1820210083388,2.0,1.0,part_1,,,,,,,,,,,,,orange,diamond
39.0,5.0,1.0,1.0,4.0,4.0,301.5589400019962,2.0,1.0,part_1,,,,,,,,,,,,,magenta,flipped triangle
55.0,5.0,1.0,1.0,4.0,4.0,364.2057520046364,2.0,1.0,part_1,,,,,,,,,,,,,magenta,flipped triangle
183.0,3.0,3.0,0.0,1.0,1.0,430.8400459995027,2.0,1.0,part_1,,,,,,,,,,,,,orange,diamond
408.0,8.0,4.0,1.0,1.0,1.0,477.5581650028471,2.0,1.0,part_1,,,,,,,,,,,,,green,cross
30.0,1.0,1.0,0.0,1.0,1.0,367.3627920215949,2.0,1.0,part_1,,,,,,,,,,,,,yellow,square
380.0,8.0,4.0,1.0,4.0,4.0,356.1158020165749,2.0,1.0,part_1,,,,,,,,,,,,,green,cross
62.0,1.0,1.0,0.0,2.0,2.0,377.1357020013965,2.0,1.0,part_1,,,,,,,,,,,,,yellow,square
180.0,3.0,3.0,0.0,4.0,4.0,433.68058401392767,2.0,1.0,part_1,,,,,,,,,,,,,orange,diamond
379.0,8.0,4.0,1.0,4.0,4.0,469.6775559859816,2.0,1.0,part_1,,,,,,,,,,,,,green,cross
393.0,4.0,4.0,0.0,1.0,1.0,406.7737350123934,2.0,1.0,part_1,,,,,,,,,,,,,cyan,hexagon
189.0,7.0,3.0,1.0,4.0,4.0,331.2119400070514,2.0,1.0,part_1,,,,,,,,,,,,,white,triangle
222.0,3.0,3.0,0.0,1.0,1.0,324.271614983445,2.0,1.0,part_1,,,,,,,,,,,,,orange,diamond
192.0,7.0,3.0,1.0,1.0,1.0,364.9851329973899,2.0,1.0,part_1,,,,,,,,,,,,,white,triangle
0.0,7.0,0.0,1.0,2.0,2.0,394.410829001572,2.0,1.0,part_1,,,,,,,,,,,,,white,triangle
103.0,2.0,2.0,0.0,3.0,3.0,345.6519840110559,2.0,1.0,part_1,,,,,,,,,,,,,blue,circle
101.0,2.0,2.0,0.0,1.0,1.0,324.1438780096359,2.0,1.0,part_1,,,,,,,,,,,,,blue,circle
424.0,4.0,4.0,0.0,1.0,1.0,352.1319559949916,2.0,1.0,part_1,,,,,,,,,,,,,cyan,hexagon
82.0,6.0,2.0,1.0,4.0,4.0,320.1190360123291,2.0,1.0,part_1,,,,,,,,,,,,,gray,I
26.0,5.0,1.0,1.0,2.0,2.0,298.0634429841302,2.0,1.0,part_1,,,,,,,,,,,,,magenta,flipped triangle
111.0,2.0,2.0,0.0,4.0,4.0,327.6724439929239,2.0,1.0,part_1,,,,,,,,,,,,,blue,circle
61.0,1.0,1.0,0.0,1.0,1.0,332.7934329863637,2.0,1.0,part_1,,,,,,,,,,,,,yellow,square
424.0,8.0,4.0,1.0,1.0,1.0,351.9469239981845,2.0,1.0,part_1,,,,,,,,,,,,,green,cross
72.0,1.0,1.0,0.0,3.0,3.0,460.4646969819441,2.0,1.0,part_1,,,,,,,,,,,,,yellow,square
106.0,6.0,2.0,1.0,1.0,1.0,368.3618209906854,2.0,1.0,part_1,,,,,,,,,,,,,gray,I
125.0,6.0,2.0,1.0,3.0,3.0,368.7093589978758,2.0,1.0,part_1,,,,,,,,,,,,,gray,I
116.0,2.0,2.0,0.0,2.0,2.0,297.4302550137508,2.0,1.0,part_1,,,,,,,,,,,,,blue,circle
395.0,8.0,4.0,1.0,4.0,4.0,303.2196100102737,2.0,1.0,part_1,,,,,,,,,,,,,green,cross
0.0,8.0,0.0,1.0,3.0,3.0,372.1452849858906,2.0,1.0,part_1,,,,,,,,,,,,,green,cross
418.0,4.0,4.0,0.0,3.0,3.0,343.5370289953425,2.0,1.0,part_1,,,,,,,,,,,,,cyan,hexagon
69.0,5.0,1.0,1.0,3.0,3.0,342.6059370103758,2.0,1.0,part_1,,,,,,,,,,,,,magenta,flipped triangle
214.0,7.0,3.0,1.0,4.0,4.0,443.391351000173,2.0,1.0,part_1,,,,,,,,,,,,,white,triangle
387.0,4.0,4.0,0.0,3.0,3.0,398.6484149936586,2.0,1.0,part_1,,,,,,,,,,,,,cyan,hexagon
0.0,5.0,0.0,1.0,3.0,3.0,402.3853419930674,2.0,1.0,part_1,,,,,,,,,,,,,magenta,flipped triangle
50.0,5.0,1.0,1.0,2.0,2.0,322.7673380170017,2.0,1.0,part_1,,,,,,,,,,,,,magenta,flipped triangle
403.0,8.0,4.0,1.0,1.0,1.0,356.6138200112618,2.0,1.0,part_1,,,,,,,,,,,,,green,cross
79.0,6.0,2.0,1.0,1.0,1.0,331.4016679942142,2.0,1.0,part_1,,,,,,,,,,,,,gray,I
113.0,6.0,2.0,1.0,4.0,4.0,373.2557340117637,2.0,1.0,part_1,,,,,,,,,,,,,gray,I
411.0,8.0,4.0,1.0,3.0,3.0,547.212456993293,2.0,1.0,part_1,,,,,,,,,,,,,green,cross
187.0,7.0,3.0,1.0,2.0,2.0,441.6850999987218,2.0,1.0,part_1,,,,,,,,,,,,,white,triangle
106.0,6.0,2.0,1.0,4.0,4.0,427.175016986439,2.0,1.0,part_1,,,,,,,,,,,,,gray,I
103.0,6.0,2.0,1.0,3.0,3.0,336.1648790014442,2.0,1.0,part_1,,,,,,,,,,,,,gray,I
0.0,6.0,0.0,1.0,3.0,3.0,343.2829180092085,2.0,1.0,part_1,,,,,,,,,,,,,gray,I
422.0,4.0,4.0,0.0,2.0,2.0,323.5579940082971,2.0,1.0,part_1,,,,,,,,,,,,,cyan,hexagon
418.0,8.0,4.0,1.0,2.0,2.0,489.266894001048,2.0,1.0,part_1,,,,,,,,,,,,,green,cross
34.0,5.0,1.0,1.0,1.0,1.0,348.6332980100997,2.0,1.0,part_1,,,,,,,,,,,,,magenta,flipped triangle
387.0,8.0,4.0,1.0,1.0,1.0,400.488637998933,2.0,1.0,part_1,,,,,,,,,,,,,green,cross
88.0,6.0,2.0,1.0,3.0,3.0,428.9027630002238,2.0,1.0,part_1,,,,,,,,,,,,,gray,I
199.0,7.0,3.0,1.0,4.0,4.0,473.66637000232,2.0,1.0,part_1,,,,,,,,,,,,,white,triangle
0.0,8.0,0.0,1.0,2.0,2.0,352.5725119980052,2.0,1.0,part_1,,,,,,,,,,,,,green,cross
109.0,2.0,2.0,0.0,3.0,3.0,491.420261998428,2.0,1.0,part_1,,,,,,,,,,,,,blue,circle
406.0,8.0,4.0,1.0,2.0,2.0,303.5240920144133,2.0,1.0,part_1,,,,,,,,,,,,,green,cross
0.0,2.0,0.0,0.0,3.0,3.0,365.2913460100535,2.0,1.0,part_1,,,,,,,,,,,,,blue,circle
50.0,1.0,1.0,0.0,3.0,3.0,340.3701790084597,2.0,1.0,part_1,,,,,,,,,,,,,yellow,square
0.0,7.0,0.0,1.0,1.0,1.0,336.2029549898579,2.0,1.0,part_1,,,,,,,,,,,,,white,triangle
392.0,8.0,4.0,1.0,4.0,4.0,346.5032780077308,2.0,1.0,part_1,,,,,,,,,,,,,green,cross
48.0,1.0,1.0,0.0,2.0,2.0,282.0806069939863,2.0,1.0,part_1,,,,,,,,,,,,,yellow,square
393.0,8.0,4.0,1.0,1.0,1.0,339.2451250110753,2.0,1.0,part_1,,,,,,,,,,,,,green,cross
0.0,1.0,0.0,0.0,3.0,3.0,367.9600679897703,2.0,1.0,part_1,,,,,,,,,,,,,yellow,square
398.0,8.0,4.0,1.0,4.0,4.0,343.0140010023024,2.0,1.0,part_1,,,,,,,,,,,,,green,cross
223.0,7.0,3.0,1.0,2.0,2.0,268.4772070206236,2.0,1.0,part_1,,,,,,,,,,,,,white,triangle
413.0,4.0,4.0,0.0,4.0,4.0,368.7810999981593,2.0,1.0,part_1,,,,,,,,,,,,,cyan,hexagon
184.0,7.0,3.0,1.0,2.0,2.0,334.7097719961311,2.0,2.0,part_1,,,,,,,,,,,,,white,triangle
125.0,2.0,2.0,0.0,2.0,2.0,268.6628370138351,2.0,1.0,part_1,,,,,,,,,,,,,blue,circle
39.0,1.0,1.0,0.0,2.0,2.0,297.4217390001286,2.0,1.0,part_1,,,,,,,,,,,,,yellow,square
0.0,8.0,0.0,1.0,3.0,3.0,294.9849809810985,2.0,1.0,part_1,,,,,,,,,,,,,green,cross
44.0,5.0,1.0,1.0,1.0,1.0,568.1497970072087,2.0,2.0,part_1,,,,,,,,,,,,,magenta,flipped triangle
0.0,5.0,0.0,1.0,2.0,2.0,339.6170650084968,2.0,1.0,part_1,,,,,,,,,,,,,magenta,flipped triangle
205.0,3.0,3.0,0.0,4.0,4.0,352.0471370138693,2.0,1.0,part_1,,,,,,,,,,,,,orange,diamond
125.0,2.0,2.0,0.0,2.0,2.0,302.7724430139642,2.0,1.0,part_1,,,,,,,,,,,,,blue,circle
115.0,6.0,2.0,1.0,2.0,2.0,348.5892630123999,2.0,1.0,part_1,,,,,,,,,,,,,gray,I
76.0,6.0,2.0,1.0,1.0,1.0,327.4402130045928,2.0,1.0,part_1,,,,,,,,,,,,,gray,I
0.0,7.0,0.0,1.0,3.0,3.0,389.9026020080782,2.0,1.0,part_1,,,,,,,,,,,,,white,triangle
34.0,1.0,1.0,0.0,2.0,2.0,298.8118500215933,2.0,1.0,part_1,,,,,,,,,,,,,yellow,square
116.0,6.0,2.0,1.0,3.0,3.0,373.2418540166691,2.0,1.0,part_1,,,,,,,,,,,,,gray,I
216.0,3.0,3.0,0.0,3.0,3.0,397.7497590240091,2.0,2.0,part_1,,,,,,,,,,,,,orange,diamond
98.0,6.0,2.0,1.0,2.0,2.0,339.2764159943908,2.0,1.0,part_1,,,,,,,,,,,,,gray,I
184.0,3.0,3.0,0.0,1.0,1.0,343.3436620107386,2.0,1.0,part_1,,,,,,,,,,,,,orange,diamond
90.0,6.0,2.0,1.0,3.0,3.0,348.0416879756376,2.0,1.0,part_1,,,,,,,,,,,,,gray,I
124.0,6.0,2.0,1.0,1.0,1.0,354.6674659883138,2.0,1.0,part_1,,,,,,,,,,,,,gray,I
37.0,1.0,1.0,0.0,2.0,2.0,414.93575301137747,2.0,1.0,part_1,,,,,,,,,,,,,yellow,square
0.0,5.0,0.0,1.0,3.0,3.0,349.5464409934357,2.0,1.0,part_1,,,,,,,,,,,,,magenta,flipped triangle
0.0,8.0,0.0,1.0,2.0,2.0,409.4326269987505,2.0,1.0,part_1,,,,,,,,,,,,,green,cross
392.0,4.0,4.0,0.0,1.0,1.0,339.7849430039059,2.0,1.0,part_1,,,,,,,,,,,,,cyan,hexagon
125.0,6.0,2.0,1.0,2.0,2.0,416.124622017378,2.0,1.0,part_1,,,,,,,,,,,,,gray,I
187.0,7.0,3.0,1.0,3.0,3.0,535.4311039845925,2.0,1.0,part_1,,,,,,,,,,,,,white,triangle
101.0,6.0,2.0,1.0,4.0,4.0,353.1199780118186,2.0,1.0,part_1,,,,,,,,,,,,,gray,I
417.0,4.0,4.0,0.0,4.0,4.0,381.8100930075161,2.0,1.0,part_1,,,,,,,,,,,,,cyan,hexagon
43.0,5.0,1.0,1.0,1.0,1.0,338.2965689816046,2.0,1.0,part_1,,,,,,,,,,,,,magenta,flipped triangle
101.0,6.0,2.0,1.0,4.0,4.0,443.2470569736324,2.0,1.0,part_1,,,,,,,,,,,,,gray,I
412.0,4.0,4.0,0.0,2.0,2.0,323.47722601844,2.0,1.0,part_1,,,,,,,,,,,,,cyan,hexagon
377.0,8.0,4.0,1.0,1.0,1.0,418.9184150018263,2.0,1.0,part_1,,,,,,,,,,,,,green,cross
0.0,2.0,0.0,0.0,2.0,2.0,448.4925339929759,2.0,1.0,part_1,,,,,,,,,,,,,blue,circle
0.0,1.0,0.0,0.0,3.0,3.0,522.3395729844924,3.0,1.0,part_1,,,,,,,,,,,,,yellow,square
190.0,3.0,3.0,0.0,2.0,2.0,365.3853439900558,3.0,1.0,part_1,,,,,,,,,,,,,orange,diamond
61.0,5.0,1.0,1.0,2.0,2.0,335.13162197778,3.0,1.0,part_1,,,,,,,,,,,,,magenta,flipped triangle
0.0,3.0,0.0,0.0,3.0,3.0,510.4989739775192,3.0,1.0,part_1,,,,,,,,,,,,,orange,diamond
72.0,5.0,1.0,1.0,3.0,3.0,329.9597940058447,3.0,1.0,part_1,,,,,,,,,,,,,magenta,flipped triangle
55.0,1.0,1.0,0.0,3.0,3.0,310.6756619818043,3.0,1.0,part_1,,,,,,,,,,,,,yellow,square
399.0,4.0,4.0,0.0,1.0,1.0,323.9690310147125,3.0,1.0,part_1,,,,,,,,,,,,,cyan,hexagon
214.0,7.0,3.0,1.0,1.0,1.0,386.3338329829275,3.0,1.0,part_1,,,,,,,,,,,,,white,triangle
404.0,4.0,4.0,0.0,2.0,2.0,331.9032720173709,3.0,2.0,part_1,,,,,,,,,,,,,cyan,hexagon
411.0,4.0,4.0,0.0,3.0,3.0,312.3717429989483,3.0,1.0,part_1,,,,,,,,,,,,,cyan,hexagon
0.0,3.0,0.0,0.0,1.0,1.0,274.0227369940839,3.0,1.0,part_1,,,,,,,,,,,,,orange,diamond
43.0,1.0,1.0,0.0,2.0,2.0,310.0395090004895,3.0,1.0,part_1,,,,,,,,,,,,,yellow,square
377.0,4.0,4.0,0.0,4.0,4.0,489.9015350092668,3.0,2.0,part_1,,,,,,,,,,,,,cyan,hexagon
379.0,4.0,4.0,0.0,4.0,4.0,373.5324270091951,3.0,1.0,part_1,,,,,,,,,,,,,cyan,hexagon
98.0,2.0,2.0,0.0,3.0,3.0,356.5751790010836,3.0,1.0,part_1,,,,,,,,,,,,,blue,circle
190.0,7.0,3.0,1.0,2.0,2.0,294.7442730073817,3.0,1.0,part_1,,,,,,,,,,,,,white,triangle
413.0,8.0,4.0,1.0,3.0,3.0,485.274672973901,3.0,1.0,part_1,,,,,,,,,,,,,green,cross
59.0,5.0,1.0,1.0,4.0,4.0,352.3870939970948,3.0,1.0,part_1,,,,,,,,,,,,,magenta,flipped triangle
0.0,1.0,0.0,0.0,2.0,2.0,311.3656789937522,3.0,1.0,part_1,,,,,,,,,,,,,yellow,square
0.0,2.0,0.0,0.0,3.0,3.0,282.9220139828976,3.0,1.0,part_1,,,,,,,,,,,,,blue,circle
401.0,8.0,4.0,1.0,3.0,3.0,304.2554060230031,3.0,1.0,part_1,,,,,,,,,,,,,green,cross
30.0,1.0,1.0,0.0,1.0,1.0,340.1679700182285,3.0,1.0,part_1,,,,,,,,,,,,,yellow,square
76.0,2.0,2.0,0.0,4.0,4.0,334.9160130019299,3.0,1.0,part_1,,,,,,,,,,,,,blue,circle
32.0,5.0,1.0,1.0,4.0,4.0,397.286110004643,3.0,1.0,part_1,,,,,,,,,,,,,magenta,flipped triangle
0.0,2.0,0.0,0.0,1.0,1.0,354.3068319850135,3.0,1.0,part_1,,,,,,,,,,,,,blue,circle
101.0,2.0,2.0,0.0,4.0,4.0,300.4990110057406,3.0,1.0,part_1,,,,,,,,,,,,,blue,circle
0.0,7.0,0.0,1.0,2.0,2.0,323.5171689884737,3.0,1.0,part_1,,,,,,,,,,,,,white,triangle
0.0,4.0,0.0,0.0,2.0,2.0,344.6993330144323,3.0,1.0,part_1,,,,,,,,,,,,,cyan,hexagon
200.0,3.0,3.0,0.0,3.0,3.0,293.3003570069559,3.0,1.0,part_1,,,,,,,,,,,,,orange,diamond
203.0,3.0,3.0,0.0,1.0,1.0,343.2747579936404,3.0,1.0,part_1,,,,,,,,,,,,,orange,diamond
401.0,4.0,4.0,0.0,4.0,4.0,302.5087139976676,3.0,1.0,part_1,,,,,,,,,,,,,cyan,hexagon
191.0,7.0,3.0,1.0,3.0,3.0,355.1927370135672,3.0,1.0,part_1,,,,,,,,,,,,,white,triangle
379.0,4.0,4.0,0.0,1.0,1.0,384.4140799774322,3.0,1.0,part_1,,,,,,,,,,,,,cyan,hexagon
107.0,6.0,2.0,1.0,3.0,3.0,339.4574999983888,3.0,1.0,part_1,,,,,,,,,,,,,gray,I
0.0,6.0,0.0,1.0,1.0,1.0,401.7791630176361,3.0,1.0,part_1,,,,,,,,,,,,,gray,I
117.0,6.0,2.0,1.0,2.0,2.0,347.5413019768893,3.0,2.0,part_1,,,,,,,,,,,,,gray,I
33.0,1.0,1.0,0.0,4.0,4.0,368.3665989956353,3.0,1.0,part_1,,,,,,,,,,,,,yellow,square
0.0,5.0,0.0,1.0,2.0,2.0,364.3388130003586,3.0,1.0,part_1,,,,,,,,,,,,,magenta,flipped triangle
205.0,7.0,3.0,1.0,4.0,4.0,369.6163720160257,3.0,1.0,part_1,,,,,,,,,,,,,white,triangle
73.0,1.0,1.0,0.0,4.0,4.0,331.4737250038888,3.0,1.0,part_1,,,,,,,,,,,,,yellow,square
56.0,1.0,1.0,0.0,1.0,1.0,291.2507170112803,3.0,1.0,part_1,,,,,,,,,,,,,yellow,square
51.0,1.0,1.0,0.0,3.0,3.0,294.9249060184229,3.0,1.0,part_1,,,,,,,,,,,,,yellow,square
122.0,2.0,2.0,0.0,3.0,3.0,393.8108360162005,3.0,1.0,part_1,,,,,,,,,,,,,blue,circle
198.0,7.0,3.0,1.0,1.0,1.0,365.6125529960263,3.0,1.0,part_1,,,,,,,,,,,,,white,triangle
120.0,2.0,2.0,0.0,3.0,3.0,307.4781440082006,3.0,1.0,part_1,,,,,,,,,,,,,blue,circle
33.0,5.0,1.0,1.0,1.0,1.0,282.9078600043431,3.0,1.0,part_1,,,,,,,,,,,,,magenta,flipped triangle
29.0,1.0,1.0,0.0,4.0,4.0,327.9278519912623,3.0,1.0,part_1,,,,,,,,,,,,,yellow,square
399.0,8.0,4.0,1.0,3.0,3.0,281.5940629807301,3.0,1.0,part_1,,,,,,,,,,,,,green,cross
0.0,5.0,0.0,1.0,4.0,4.0,312.2867030033376,3.0,1.0,part_1,,,,,,,,,,,,,magenta,flipped triangle
203.0,7.0,3.0,1.0,3.0,3.0,282.1821150137111,3.0,1.0,part_1,,,,,,,,,,,,,white,triangle
76.0,2.0,2.0,0.0,3.0,3.0,360.9947880031541,3.0,1.0,part_1,,,,,,,,,,,,,blue,circle
61.0,1.0,1.0,0.0,2.0,2.0,307.8173880057875,3.0,1.0,part_1,,,,,,,,,,,,,yellow,square
221.0,7.0,3.0,1.0,3.0,3.0,426.9118969968986,3.0,1.0,part_1,,,,,,,,,,,,,white,triangle
190.0,7.0,3.0,1.0,1.0,1.0,335.7901129929814,3.0,1.0,part_1,,,,,,,,,,,,,white,triangle
395.0,4.0,4.0,0.0,3.0,3.0,281.5212759887799,3.0,1.0,part_1,,,,,,,,,,,,,cyan,hexagon
48.0,5.0,1.0,1.0,2.0,2.0,327.5747919979039,3.0,1.0,part_1,,,,,,,,,,,,,magenta,flipped triangle
0.0,5.0,0.0,1.0,4.0,4.0,364.8019660031423,3.0,1.0,part_1,,,,,,,,,,,,,magenta,flipped triangle
215.0,7.0,3.0,1.0,2.0,2.0,402.7529440063517,3.0,1.0,part_1,,,,,,,,,,,,,white,triangle
73.0,5.0,1.0,1.0,2.0,2.0,318.8119470141828,3.0,1.0,part_1,,,,,,,,,,,,,magenta,flipped triangle
0.0,3.0,0.0,0.0,4.0,4.0,356.5741410129703,3.0,1.0,part_1,,,,,,,,,,,,,orange,diamond
388.0,4.0,4.0,0.0,3.0,3.0,319.2165840009693,3.0,1.0,part_1,,,,,,,,,,,,,cyan,hexagon
216.0,7.0,3.0,1.0,4.0,4.0,394.6872329979669,3.0,2.0,part_1,,,,,,,,,,,,,white,triangle
70.0,1.0,1.0,0.0,1.0,1.0,357.4207080237102,3.0,1.0,part_1,,,,,,,,,,,,,yellow,square
116.0,6.0,2.0,1.0,1.0,1.0,378.2776980078779,3.0,1.0,part_1,,,,,,,,,,,,,gray,I
86.0,6.0,2.0,1.0,3.0,3.0,473.073511995608,3.0,1.0,part_1,,,,,,,,,,,,,gray,I
69.0,1.0,1.0,0.0,4.0,4.0,475.9924410027452,3.0,1.0,part_1,,,,,,,,,,,,,yellow,square
189.0,3.0,3.0,0.0,4.0,4.0,422.4787069833837,3.0,1.0,part_1,,,,,,,,,,,,,orange,diamond
88.0,2.0,2.0,0.0,2.0,2.0,406.6239059902727,3.0,1.0,part_1,,,,,,,,,,,,,blue,circle
116.0,2.0,2.0,0.0,3.0,3.0,353.8144070189446,3.0,1.0,part_1,,,,,,,,,,,,,blue,circle
0.0,3.0,0.0,0.0,1.0,1.0,365.8886140037793,3.0,1.0,part_1,,,,,,,,,,,,,orange,diamond
0.0,1.0,0.0,0.0,2.0,2.0,442.0294890005607,3.0,1.0,part_1,,,,,,,,,,,,,yellow,square
179.0,7.0,3.0,1.0,3.0,3.0,310.3397020022385,3.0,1.0,part_1,,,,,,,,,,,,,white,triangle
0.0,1.0,0.0,0.0,3.0,3.0,402.2363599797245,3.0,1.0,part_1,,,,,,,,,,,,,yellow,square
220.0,3.0,3.0,0.0,2.0,2.0,306.5992640040349,3.0,1.0,part_1,,,,,,,,,,,,,orange,diamond
223.0,3.0,3.0,0.0,3.0,3.0,324.7006770106964,3.0,1.0,part_1,,,,,,,,,,,,,orange,diamond
73.0,5.0,1.0,1.0,1.0,1.0,364.1346280055586,3.0,1.0,part_1,,,,,,,,,,,,,magenta,flipped triangle
32.0,1.0,1.0,0.0,1.0,1.0,446.2831139971968,3.0,1.0,part_1,,,,,,,,,,,,,yellow,square
200.0,7.0,3.0,1.0,1.0,1.0,355.4060500173364,3.0,1.0,part_1,,,,,,,,,,,,,white,triangle
0.0,7.0,0.0,1.0,3.0,3.0,335.4975320107769,3.0,1.0,part_1,,,,,,,,,,,,,white,triangle
101.0,6.0,2.0,1.0,2.0,2.0,347.3894989874679,3.0,1.0,part_1,,,,,,,,,,,,,gray,I
0.0,3.0,0.0,0.0,2.0,2.0,323.0508590058889,3.0,1.0,part_1,,,,,,,,,,,,,orange,diamond
422.0,8.0,4.0,1.0,3.0,3.0,335.0317050062585,3.0,1.0,part_1,,,,,,,,,,,,,green,cross
0.0,6.0,0.0,1.0,4.0,4.0,418.5601320059504,3.0,1.0,part_1,,,,,,,,,,,,,gray,I
413.0,4.0,4.0,0.0,2.0,2.0,319.4608339981641,3.0,1.0,part_1,,,,,,,,,,,,,cyan,hexagon
0.0,2.0,0.0,0.0,3.0,3.0,412.0050409983378,3.0,1.0,part_1,,,,,,,,,,,,,blue,circle
0.0,5.0,0.0,1.0,4.0,4.0,415.7707940030377,3.0,1.0,part_1,,,,,,,,,,,,,magenta,flipped triangle
28.0,1.0,1.0,0.0,1.0,1.0,270.2764809946529,3.0,1.0,part_1,,,,,,,,,,,,,yellow,square
199.0,3.0,3.0,0.0,1.0,1.0,337.0846760226413,3.0,1.0,part_1,,,,,,,,,,,,,orange,diamond
106.0,2.0,2.0,0.0,2.0,2.0,327.9875020089093,3.0,1.0,part_1,,,,,,,,,,,,,blue,circle
379.0,8.0,4.0,1.0,2.0,2.0,461.0677230230067,3.0,1.0,part_1,,,,,,,,,,,,,green,cross
61.0,5.0,1.0,1.0,1.0,1.0,447.6684030087199,3.0,1.0,part_1,,,,,,,,,,,,,magenta,flipped triangle
184.0,3.0,3.0,0.0,2.0,2.0,382.2886059933807,3.0,1.0,part_1,,,,,,,,,,,,,orange,diamond
0.0,8.0,0.0,1.0,2.0,2.0,319.986307004001,3.0,1.0,part_1,,,,,,,,,,,,,green,cross
379.0,8.0,4.0,1.0,4.0,4.0,380.7709089887794,3.0,1.0,part_1,,,,,,,,,,,,,green,cross
403.0,4.0,4.0,0.0,4.0,4.0,377.538344997447,3.0,1.0,part_1,,,,,,,,,,,,,cyan,hexagon
117.0,2.0,2.0,0.0,4.0,4.0,302.4805900058709,3.0,1.0,part_1,,,,,,,,,,,,,blue,circle
398.0,4.0,4.0,0.0,2.0,2.0,323.0773430259432,3.0,1.0,part_1,,,,,,,,,,,,,cyan,hexagon
90.0,6.0,2.0,1.0,3.0,3.0,344.060522998916,3.0,1.0,part_1,,,,,,,,,,,,,gray,I
408.0,4.0,4.0,0.0,1.0,1.0,343.4814259817358,3.0,1.0,part_1,,,,,,,,,,,,,cyan,hexagon
84.0,2.0,2.0,0.0,1.0,1.0,348.7179219955578,3.0,1.0,part_1,,,,,,,,,,,,,blue,circle
0.0,6.0,0.0,1.0,2.0,2.0,569.6677250089124,4.0,1.0,part_1,,,,,,,,,,,,,gray,I
0.0,8.0,0.0,1.0,3.0,3.0,335.6911970186047,4.0,1.0,part_1,,,,,,,,,,,,,green,cross
217.0,7.0,3.0,1.0,3.0,3.0,339.4271510187536,4.0,1.0,part_1,,,,,,,,,,,,,white,triangle
30.0,5.0,1.0,1.0,2.0,2.0,286.1871790082659,4.0,1.0,part_1,,,,,,,,,,,,,magenta,flipped triangle
398.0,8.0,4.0,1.0,1.0,1.0,331.8696820060722,4.0,1.0,part_1,,,,,,,,,,,,,green,cross
385.0,8.0,4.0,1.0,2.0,2.0,286.7434999789111,4.0,1.0,part_1,,,,,,,,,,,,,green,cross
26.0,1.0,1.0,0.0,2.0,2.0,334.1712639958132,4.0,1.0,part_1,,,,,,,,,,,,,yellow,square
0.0,7.0,0.0,1.0,1.0,1.0,344.6709749987349,4.0,1.0,part_1,,,,,,,,,,,,,white,triangle
54.0,5.0,1.0,1.0,4.0,4.0,381.9167269975878,4.0,1.0,part_1,,,,,,,,,,,,,magenta,flipped triangle
107.0,2.0,2.0,0.0,1.0,1.0,291.2497970100958,4.0,1.0,part_1,,,,,,,,,,,,,blue,circle
212.0,3.0,3.0,0.0,4.0,4.0,462.5470759929158,4.0,1.0,part_1,,,,,,,,,,,,,orange,diamond
178.0,3.0,3.0,0.0,2.0,2.0,332.073488010792,4.0,1.0,part_1,,,,,,,,,,,,,orange,diamond
214.0,3.0,3.0,0.0,4.0,4.0,427.1276670042425,4.0,1.0,part_1,,,,,,,,,,,,,orange,diamond
73.0,1.0,1.0,0.0,4.0,4.0,414.0234719961881,4.0,1.0,part_1,,,,,,,,,,,,,yellow,square
45.0,5.0,1.0,1.0,3.0,3.0,385.1788000029046,4.0,1.0,part_1,,,,,,,,,,,,,magenta,flipped triangle
60.0,5.0,1.0,1.0,4.0,4.0,457.209726999281,4.0,1.0,part_1,,,,,,,,,,,,,magenta,flipped triangle
393.0,8.0,4.0,1.0,4.0,4.0,365.1871049951296,4.0,1.0,part_1,,,,,,,,,,,,,green,cross
381.0,4.0,4.0,0.0,3.0,3.0,343.5256569937337,4.0,1.0,part_1,,,,,,,,,,,,,cyan,hexagon
55.0,1.0,1.0,0.0,3.0,3.0,270.0204210123047,4.0,1.0,part_1,,,,,,,,,,,,,yellow,square
108.0,6.0,2.0,1.0,1.0,1.0,513.4257810132112,4.0,1.0,part_1,,,,,,,,,,,,,gray,I
198.0,3.0,3.0,0.0,2.0,2.0,365.395857981639,4.0,1.0,part_1,,,,,,,,,,,,,orange,diamond
45.0,1.0,1.0,0.0,4.0,4.0,377.7637110033538,4.0,1.0,part_1,,,,,,,,,,,,,yellow,square
0.0,1.0,0.0,0.0,3.0,3.0,286.6860369977075,4.0,1.0,part_1,,,,,,,,,,,,,yellow,square
115.0,2.0,2.0,0.0,2.0,2.0,332.6606659975368,4.0,1.0,part_1,,,,,,,,,,,,,blue,circle
224.0,7.0,3.0,1.0,4.0,4.0,483.7495640094857,4.0,1.0,part_1,,,,,,,,,,,,,white,triangle
405.0,8.0,4.0,1.0,3.0,3.0,357.4451180174947,4.0,1.0,part_1,,,,,,,,,,,,,green,cross
413.0,8.0,4.0,1.0,2.0,2.0,308.4598889981862,4.0,1.0,part_1,,,,,,,,,,,,,green,cross
0.0,1.0,0.0,0.0,2.0,2.0,345.3231029852759,4.0,1.0,part_1,,,,,,,,,,,,,yellow,square
405.0,8.0,4.0,1.0,2.0,2.0,282.6713649847079,4.0,1.0,part_1,,,,,,,,,,,,,green,cross
111.0,2.0,2.0,0.0,1.0,1.0,401.8985140137374,4.0,1.0,part_1,,,,,,,,,,,,,blue,circle
54.0,5.0,1.0,1.0,4.0,4.0,398.7946389825083,4.0,1.0,part_1,,,,,,,,,,,,,magenta,flipped triangle
175.0,7.0,3.0,1.0,3.0,3.0,362.2728969785385,4.0,1.0,part_1,,,,,,,,,,,,,white,triangle
212.0,7.0,3.0,1.0,2.0,2.0,319.300792994909,4.0,1.0,part_1,,,,,,,,,,,,,white,triangle
399.0,8.0,4.0,1.0,1.0,1.0,355.8934470056556,4.0,1.0,part_1,,,,,,,,,,,,,green,cross
424.0,4.0,4.0,0.0,1.0,1.0,337.5089280016254,4.0,1.0,part_1,,,,,,,,,,,,,cyan,hexagon
381.0,8.0,4.0,1.0,3.0,3.0,347.8772589878645,4.0,1.0,part_1,,,,,,,,,,,,,green,cross
0.0,3.0,0.0,0.0,4.0,4.0,435.1670460018795,4.0,1.0,part_1,,,,,,,,,,,,,orange,diamond
60.0,1.0,1.0,0.0,2.0,2.0,356.6401879943441,4.0,1.0,part_1,,,,,,,,,,,,,yellow,square
33.0,1.0,1.0,0.0,1.0,1.0,401.7067000095267,4.0,1.0,part_1,,,,,,,,,,,,,yellow,square
79.0,2.0,2.0,0.0,1.0,1.0,410.139651998179,4.0,1.0,part_1,,,,,,,,,,,,,blue,circle
0.0,1.0,0.0,0.0,4.0,4.0,347.3108769976534,4.0,1.0,part_1,,,,,,,,,,,,,yellow,square
98.0,6.0,2.0,1.0,3.0,3.0,344.5279570005368,4.0,1.0,part_1,,,,,,,,,,,,,gray,I
0.0,3.0,0.0,0.0,3.0,3.0,336.5806549845729,4.0,1.0,part_1,,,,,,,,,,,,,orange,diamond
0.0,5.0,0.0,1.0,1.0,1.0,370.3245870128739,4.0,1.0,part_1,,,,,,,,,,,,,magenta,flipped triangle
108.0,2.0,2.0,0.0,3.0,3.0,382.1717189857736,4.0,1.0,part_1,,,,,,,,,,,,,blue,circle
388.0,8.0,4.0,1.0,4.0,4.0,405.3873780067079,4.0,1.0,part_1,,,,,,,,,,,,,green,cross
205.0,7.0,3.0,1.0,4.0,4.0,447.821133013349,4.0,1.0,part_1,,,,,,,,,,,,,white,triangle
0.0,2.0,0.0,0.0,3.0,3.0,349.1996109951287,4.0,1.0,part_1,,,,,,,,,,,,,blue,circle
215.0,3.0,3.0,0.0,1.0,1.0,420.6360780226532,4.0,1.0,part_1,,,,,,,,,,,,,orange,diamond
423.0,4.0,4.0,0.0,3.0,3.0,320.0657649722416,4.0,1.0,part_1,,,,,,,,,,,,,cyan,hexagon
48.0,1.0,1.0,0.0,2.0,2.0,356.6739299858454,4.0,1.0,part_1,,,,,,,,,,,,,yellow,square
0.0,6.0,0.0,1.0,3.0,3.0,360.7625739823561,4.0,1.0,part_1,,,,,,,,,,,,,gray,I
224.0,7.0,3.0,1.0,2.0,2.0,318.963237979915,4.0,1.0,part_1,,,,,,,,,,,,,white,triangle
189.0,3.0,3.0,0.0,4.0,4.0,448.0935580213554,4.0,1.0,part_1,,,,,,,,,,,,,orange,diamond
86.0,2.0,2.0,0.0,1.0,1.0,517.69702200545,4.0,1.0,part_1,,,,,,,,,,,,,blue,circle
412.0,8.0,4.0,1.0,3.0,3.0,377.3714519920759,4.0,1.0,part_1,,,,,,,,,,,,,green,cross
0.0,4.0,0.0,0.0,2.0,2.0,319.6432490076404,4.0,1.0,part_1,,,,,,,,,,,,,cyan,hexagon
412.0,8.0,4.0,1.0,2.0,2.0,386.7245260044001,4.0,1.0,part_1,,,,,,,,,,,,,green,cross
43.0,1.0,1.0,0.0,3.0,3.0,344.6607129881158,4.0,1.0,part_1,,,,,,,,,,,,,yellow,square
60.0,1.0,1.0,0.0,1.0,1.0,390.4869339894503,4.0,1.0,part_1,,,,,,,,,,,,,yellow,square
113.0,2.0,2.0,0.0,3.0,3.0,362.1131499821786,4.0,1.0,part_1,,,,,,,,,,,,,blue,circle
0.0,2.0,0.0,0.0,3.0,3.0,381.0422259848565,4.0,1.0,part_1,,,,,,,,,,,,,blue,circle
80.0,2.0,2.0,0.0,2.0,2.0,388.6774980055634,4.0,1.0,part_1,,,,,,,,,,,,,blue,circle
0.0,4.0,0.0,0.0,4.0,4.0,352.9032500227913,4.0,1.0,part_1,,,,,,,,,,,,,cyan,hexagon
0.0,8.0,0.0,1.0,4.0,4.0,382.5828019762411,4.0,1.0,part_1,,,,,,,,,,,,,green,cross
49.0,5.0,1.0,1.0,3.0,3.0,339.228770986665,4.0,1.0,part_1,,,,,,,,,,,,,magenta,flipped triangle
90.0,2.0,2.0,0.0,4.0,4.0,352.2685390198603,4.0,1.0,part_1,,,,,,,,,,,,,blue,circle
404.0,8.0,4.0,1.0,4.0,4.0,299.0134680003393,4.0,1.0,part_1,,,,,,,,,,,,,green,cross
398.0,4.0,4.0,0.0,2.0,2.0,373.8854349940084,4.0,1.0,part_1,,,,,,,,,,,,,cyan,hexagon
91.0,2.0,2.0,0.0,4.0,4.0,382.089425023878,4.0,1.0,part_1,,,,,,,,,,,,,blue,circle
224.0,3.0,3.0,0.0,2.0,2.0,344.4453749980312,4.0,1.0,part_1,,,,,,,,,,,,,orange,diamond
217.0,3.0,3.0,0.0,1.0,1.0,453.0626169871539,4.0,1.0,part_1,,,,,,,,,,,,,orange,diamond
54.0,1.0,1.0,0.0,3.0,3.0,282.1035800152458,4.0,1.0,part_1,,,,,,,,,,,,,yellow,square
385.0,4.0,4.0,0.0,4.0,4.0,359.5019539934583,4.0,1.0,part_1,,,,,,,,,,,,,cyan,hexagon
84.0,6.0,2.0,1.0,2.0,2.0,314.4672010093927,4.0,1.0,part_1,,,,,,,,,,,,,gray,I
0.0,6.0,0.0,1.0,4.0,4.0,322.140507021686,4.0,1.0,part_1,,,,,,,,,,,,,gray,I
187.0,3.0,3.0,0.0,1.0,1.0,382.3086349875666,4.0,1.0,part_1,,,,,,,,,,,,,orange,diamond
69.0,1.0,1.0,0.0,4.0,4.0,312.6328979851678,4.0,1.0,part_1,,,,,,,,,,,,,yellow,square
392.0,4.0,4.0,0.0,3.0,3.0,357.0917780161835,4.0,1.0,part_1,,,,,,,,,,,,,cyan,hexagon
214.0,3.0,3.0,0.0,3.0,3.0,315.5953969981055,4.0,1.0,part_1,,,,,,,,,,,,,orange,diamond
0.0,8.0,0.0,1.0,2.0,2.0,616.4733629848342,4.0,1.0,part_1,,,,,,,,,,,,,green,cross
90.0,2.0,2.0,0.0,3.0,3.0,366.4958059962373,4.0,1.0,part_1,,,,,,,,,,,,,blue,circle
0.0,8.0,0.0,1.0,3.0,3.0,514.9309099942911,4.0,1.0,part_1,,,,,,,,,,,,,green,cross
378.0,4.0,4.0,0.0,3.0,3.0,348.482953995699,4.0,1.0,part_1,,,,,,,,,,,,,cyan,hexagon
28.0,5.0,1.0,1.0,1.0,1.0,353.2486599870026,4.0,1.0,part_1,,,,,,,,,,,,,magenta,flipped triangle
109.0,6.0,2.0,1.0,3.0,3.0,478.1035010237247,4.0,1.0,part_1,,,,,,,,,,,,,gray,I
395.0,8.0,4.0,1.0,3.0,3.0,315.7332260161638,4.0,1.0,part_1,,,,,,,,,,,,,green,cross
209.0,7.0,3.0,1.0,1.0,1.0,351.5873239957727,4.0,1.0,part_1,,,,,,,,,,,,,white,triangle
221.0,3.0,3.0,0.0,3.0,3.0,284.3936519930139,4.0,1.0,part_1,,,,,,,,,,,,,orange,diamond
224.0,3.0,3.0,0.0,3.0,3.0,336.678361025406,4.0,1.0,part_1,,,,,,,,,,,,,orange,diamond
79.0,6.0,2.0,1.0,4.0,4.0,352.5238849979359,4.0,1.0,part_1,,,,,,,,,,,,,gray,I
388.0,4.0,4.0,0.0,2.0,2.0,394.0534369903616,4.0,1.0,part_1,,,,,,,,,,,,,cyan,hexagon
33.0,5.0,1.0,1.0,2.0,2.0,422.9484829993453,4.0,1.0,part_1,,,,,,,,,,,,,magenta,flipped triangle
62.0,5.0,1.0,1.0,3.0,3.0,286.6215260000899,4.0,1.0,part_1,,,,,,,,,,,,,magenta,flipped triangle
424.0,8.0,4.0,1.0,2.0,2.0,315.7341810001526,4.0,1.0,part_1,,,,,,,,,,,,,green,cross
54.0,1.0,1.0,0.0,4.0,4.0,334.0470020193606,4.0,1.0,part_1,,,,,,,,,,,,,yellow,square
0.0,6.0,0.0,1.0,3.0,3.0,346.5495650016237,4.0,1.0,part_1,,,,,,,,,,,,,gray,I
222.0,7.0,3.0,1.0,1.0,1.0,390.0934070115909,4.0,1.0,part_1,,,,,,,,,,,,,white,triangle
378.0,8.0,4.0,1.0,4.0,4.0,938.8766369957012,4.0,1.0,part_1,,,,,,,,,,,,,green,cross
0.0,7.0,0.0,1.0,2.0,2.0,401.72617600183,4.0,1.0,part_1,,,,,,,,,,,,,white,triangle
0.0,2.0,2.0,0.0,5.0,5.0,526.0925430047791,1.0,0.0,part_2,go,250.0,250.0,1.0,,,,,,,,,blue,circle
0.0,1.0,1.0,0.0,6.0,6.0,300.3525449894368,1.0,0.0,part_2,go,250.0,250.0,1.0,,,,,,,,,yellow,square
0.0,8.0,4.0,1.0,6.0,0.0,0.0,1.0,0.0,part_2,stop,250.0,250.0,4.0,,,,,,,,,green,cross
0.0,8.0,4.0,1.0,5.0,5.0,325.2145350270439,1.0,0.0,part_2,stop,250.0,300.0,3.0,,,,,,,,,green,cross
0.0,2.0,2.0,0.0,5.0,5.0,293.5750739998184,1.0,0.0,part_2,go,200.0,300.0,1.0,,,,,,,,,blue,circle
0.0,1.0,1.0,0.0,6.0,6.0,226.2661819986533,1.0,0.0,part_2,go,200.0,300.0,1.0,,,,,,,,,yellow,square
0.0,6.0,2.0,1.0,6.0,6.0,324.8433620028663,1.0,0.0,part_2,stop,200.0,300.0,3.0,,,,,,,,,gray,I
0.0,6.0,2.0,1.0,5.0,5.0,364.1144040157087,1.0,0.0,part_2,stop,200.0,250.0,3.0,,,,,,,,,gray,I
0.0,4.0,4.0,0.0,5.0,0.0,0.0,1.0,0.0,part_2,go,150.0,250.0,5.0,,,,,,,,,cyan,hexagon
0.0,6.0,2.0,1.0,5.0,5.0,362.4893850064836,1.0,0.0,part_2,stop,150.0,250.0,3.0,,,,,,,,,gray,I
0.0,4.0,4.0,0.0,6.0,6.0,273.5376280033961,1.0,0.0,part_2,go,100.0,250.0,1.0,,,,,,,,,cyan,hexagon
0.0,8.0,4.0,1.0,6.0,6.0,326.3470539823174,1.0,0.0,part_2,stop,100.0,250.0,3.0,,,,,,,,,green,cross
0.0,4.0,4.0,0.0,6.0,6.0,502.0682349859271,1.0,0.0,part_2,go,100.0,200.0,1.0,,,,,,,,,cyan,hexagon
0.0,3.0,3.0,0.0,6.0,6.0,461.6601220041048,1.0,0.0,part_2,go,100.0,200.0,1.0,,,,,,,,,orange,diamond
0.0,2.0,2.0,0.0,6.0,6.0,492.6100560114719,1.0,0.0,part_2,go,100.0,200.0,1.0,,,,,,,,,blue,circle
0.0,6.0,2.0,1.0,5.0,0.0,0.0,1.0,0.0,part_2,stop,100.0,200.0,4.0,,,,,,,,,gray,I
0.0,7.0,3.0,1.0,6.0,0.0,0.0,1.0,0.0,part_2,stop,150.0,200.0,4.0,,,,,,,,,white,triangle
0.0,7.0,3.0,1.0,5.0,5.0,598.2156149984803,1.0,0.0,part_2,go,150.0,250.0,1.0,,,,,,,,,white,triangle
0.0,2.0,2.0,0.0,5.0,5.0,500.6834290106781,1.0,0.0,part_2,go,150.0,250.0,1.0,,,,,,,,,blue,circle
0.0,8.0,4.0,1.0,5.0,5.0,413.0342320131603,1.0,0.0,part_2,go,150.0,250.0,1.0,,,,,,,,,green,cross
0.0,8.0,4.0,1.0,5.0,5.0,451.4011580031365,1.0,0.0,part_2,stop,150.0,250.0,3.0,,,,,,,,,green,cross
0.0,2.0,2.0,0.0,6.0,6.0,708.2966130110435,1.0,0.0,part_2,go,100.0,250.0,1.0,,,,,,,,,blue,circle
0.0,6.0,2.0,1.0,6.0,6.0,523.9930640091188,1.0,0.0,part_2,go,100.0,250.0,1.0,,,,,,,,,gray,I
0.0,5.0,1.0,1.0,6.0,6.0,442.7421040018089,1.0,0.0,part_2,stop,100.0,250.0,3.0,,,,,,,,,magenta,flipped triangle
0.0,4.0,4.0,0.0,5.0,5.0,514.3325550016016,1.0,0.0,part_2,go,100.0,200.0,1.0,,,,,,,,,cyan,hexagon
0.0,5.0,1.0,1.0,5.0,0.0,0.0,1.0,0.0,part_2,stop,100.0,200.0,4.0,,,,,,,,,magenta,flipped triangle
0.0,6.0,2.0,1.0,5.0,0.0,0.0,1.0,0.0,part_2,stop,150.0,200.0,4.0,,,,,,,,,gray,I
0.0,3.0,3.0,0.0,6.0,6.0,429.0658819954842,1.0,0.0,part_2,go,200.0,200.0,1.0,,,,,,,,,orange,diamond
0.0,5.0,1.0,1.0,5.0,0.0,0.0,1.0,0.0,part_2,stop,200.0,200.0,4.0,,,,,,,,,magenta,flipped triangle
0.0,6.0,2.0,1.0,6.0,6.0,623.3760070172139,1.0,0.0,part_2,go,250.0,200.0,1.0,,,,,,,,,gray,I
0.0,7.0,3.0,1.0,6.0,0.0,0.0,1.0,0.0,part_2,stop,250.0,200.0,4.0,,,,,,,,,white,triangle
0.0,2.0,2.0,0.0,6.0,6.0,492.5313479907345,1.0,0.0,part_2,go,250.0,250.0,1.0,,,,,,,,,blue,circle
0.0,2.0,2.0,0.0,5.0,5.0,692.6613329851534,1.0,0.0,part_2,go,250.0,250.0,1.0,,,,,,,,,blue,circle
0.0,3.0,3.0,0.0,5.0,5.0,682.9409970086999,1.0,0.0,part_2,go,250.0,250.0,1.0,,,,,,,,,orange,diamond
0.0,1.0,1.0,0.0,5.0,5.0,637.2224090155214,1.0,0.0,part_2,go,250.0,250.0,1.0,,,,,,,,,yellow,square
0.0,3.0,3.0,0.0,5.0,5.0,624.9840919917915,1.0,0.0,part_2,go,250.0,250.0,1.0,,,,,,,,,orange,diamond
0.0,5.0,1.0,1.0,5.0,0.0,0.0,2.0,0.0,part_2,stop,250.0,250.0,4.0,,,,,,,,,magenta,flipped triangle
0.0,2.0,2.0,0.0,5.0,5.0,566.4610019885004,2.0,0.0,part_2,go,300.0,250.0,1.0,,,,,,,,,blue,circle
0.0,5.0,1.0,1.0,6.0,0.0,0.0,2.0,0.0,part_2,stop,300.0,250.0,4.0,,,,,,,,,magenta,flipped triangle
0.0,4.0,4.0,0.0,6.0,6.0,694.1321699996479,2.0,0.0,part_2,go,300.0,300.0,1.0,,,,,,,,,cyan,hexagon
0.0,5.0,1.0,1.0,5.0,0.0,0.0,2.0,0.0,part_2,stop,300.0,300.0,4.0,,,,,,,,,magenta,flipped triangle
0.0,6.0,2.0,1.0,5.0,0.0,0.0,2.0,0.0,part_2,stop,350.0,300.0,4.0,,,,,,,,,gray,I
0.0,8.0,4.0,1.0,6.0,0.0,0.0,2.0,0.0,part_2,stop,400.0,300.0,4.0,,,,,,,,,green,cross
0.0,3.0,3.0,0.0,5.0,5.0,627.1575000137091,2.0,0.0,part_2,go,400.0,350.0,1.0,,,,,,,,,orange,diamond
0.0,1.0,1.0,0.0,6.0,6.0,849.0158499917015,2.0,0.0,part_2,go,400.0,350.0,1.0,,,,,,,,,yellow,square
0.0,6.0,2.0,1.0,6.0,6.0,688.5391630057711,2.0,0.0,part_2,go,400.0,350.0,1.0,,,,,,,,,gray,I
0.0,3.0,3.0,0.0,5.0,5.0,722.0269580138847,2.0,0.0,part_2,go,400.0,350.0,1.0,,,,,,,,,orange,diamond
0.0,6.0,2.0,1.0,5.0,0.0,0.0,2.0,0.0,part_2,stop,400.0,350.0,4.0,,,,,,,,,gray,I
0.0,1.0,1.0,0.0,5.0,5.0,534.8085309960879,2.0,0.0,part_2,go,450.0,350.0,1.0,,,,,,,,,yellow,square
0.0,4.0,4.0,0.0,6.0,6.0,559.5444639911875,2.0,0.0,part_2,go,450.0,350.0,1.0,,,,,,,,,cyan,hexagon
0.0,5.0,1.0,1.0,5.0,5.0,511.4927320100833,2.0,0.0,part_2,stop,450.0,350.0,3.0,,,,,,,,,magenta,flipped triangle
0.0,7.0,3.0,1.0,5.0,0.0,0.0,2.0,0.0,part_2,stop,400.0,350.0,4.0,,,,,,,,,white,triangle
0.0,6.0,2.0,1.0,5.0,0.0,0.0,2.0,0.0,part_2,stop,450.0,350.0,4.0,,,,,,,,,gray,I
0.0,1.0,1.0,0.0,5.0,5.0,695.1827149896417,2.0,0.0,part_2,go,500.0,350.0,1.0,,,,,,,,,yellow,square
0.0,1.0,1.0,0.0,5.0,5.0,990.5103170021904,2.0,0.0,part_2,go,500.0,350.0,1.0,,,,,,,,,yellow,square
0.0,7.0,3.0,1.0,5.0,5.0,485.3055449784733,2.0,0.0,part_2,go,500.0,350.0,1.0,,,,,,,,,white,triangle
0.0,1.0,1.0,0.0,5.0,5.0,427.036715002032,2.0,0.0,part_2,go,500.0,350.0,1.0,,,,,,,,,yellow,square
0.0,7.0,3.0,1.0,5.0,5.0,633.5146320052445,2.0,0.0,part_2,stop,500.0,350.0,3.0,,,,,,,,,white,triangle
0.0,1.0,1.0,0.0,6.0,6.0,856.7828090162948,2.0,0.0,part_2,go,450.0,350.0,1.0,,,,,,,,,yellow,square
0.0,1.0,1.0,0.0,5.0,5.0,746.8882389948703,2.0,0.0,part_2,go,450.0,350.0,1.0,,,,,,,,,yellow,square
0.0,8.0,4.0,1.0,5.0,5.0,600.0648310000543,2.0,0.0,part_2,go,450.0,350.0,1.0,,,,,,,,,green,cross
0.0,7.0,3.0,1.0,6.0,6.0,441.3877789920661,2.0,0.0,part_2,stop,450.0,350.0,3.0,,,,,,,,,white,triangle
0.0,3.0,3.0,0.0,5.0,5.0,590.6196179857943,2.0,0.0,part_2,go,450.0,300.0,1.0,,,,,,,,,orange,diamond
0.0,2.0,2.0,0.0,5.0,5.0,566.5580249915365,2.0,0.0,part_2,go,450.0,300.0,1.0,,,,,,,,,blue,circle
0.0,4.0,4.0,0.0,5.0,5.0,799.3190480046906,2.0,0.0,part_2,go,450.0,300.0,1.0,,,,,,,,,cyan,hexagon
0.0,8.0,4.0,1.0,6.0,6.0,654.9372800218407,2.0,0.0,part_2,go,450.0,300.0,1.0,,,,,,,,,green,cross
0.0,7.0,3.0,1.0,6.0,6.0,455.4417830077,2.0,0.0,part_2,go,450.0,300.0,1.0,,,,,,,,,white,triangle
0.0,8.0,4.0,1.0,6.0,6.0,524.5251810119953,2.0,0.0,part_2,go,450.0,300.0,1.0,,,,,,,,,green,cross
0.0,1.0,1.0,0.0,5.0,5.0,502.308080001967,2.0,0.0,part_2,go,450.0,300.0,1.0,,,,,,,,,yellow,square
0.0,3.0,3.0,0.0,6.0,6.0,542.8335789765697,2.0,0.0,part_2,go,450.0,300.0,1.0,,,,,,,,,orange,diamond
0.0,5.0,1.0,1.0,6.0,6.0,477.0608449762221,2.0,0.0,part_2,stop,450.0,300.0,3.0,,,,,,,,,magenta,flipped triangle
0.0,7.0,3.0,1.0,6.0,6.0,637.5906140019652,2.0,0.0,part_2,go,450.0,250.0,1.0,,,,,,,,,white,triangle
0.0,3.0,3.0,0.0,5.0,5.0,728.9783660089597,3.0,0.0,part_2,go,450.0,250.0,1.0,,,,,,,,,orange,diamond
0.0,1.0,1.0,0.0,6.0,6.0,325.9108059864957,3.0,0.0,part_2,go,450.0,250.0,1.0,,,,,,,,,yellow,square
0.0,1.0,1.0,0.0,5.0,5.0,327.177400002256,3.0,0.0,part_2,go,450.0,250.0,1.0,,,,,,,,,yellow,square
0.0,5.0,1.0,1.0,5.0,5.0,364.0266389993485,3.0,0.0,part_2,go,450.0,250.0,1.0,,,,,,,,,magenta,flipped triangle
0.0,1.0,1.0,0.0,6.0,6.0,285.4038410005159,3.0,0.0,part_2,go,450.0,250.0,1.0,,,,,,,,,yellow,square
0.0,7.0,3.0,1.0,5.0,5.0,330.5882510030642,3.0,0.0,part_2,stop,450.0,250.0,3.0,,,,,,,,,white,triangle
0.0,3.0,3.0,0.0,6.0,6.0,301.5352500078734,3.0,0.0,part_2,go,400.0,250.0,1.0,,,,,,,,,orange,diamond
0.0,4.0,4.0,0.0,5.0,5.0,371.9272100133821,3.0,0.0,part_2,go,400.0,250.0,1.0,,,,,,,,,cyan,hexagon
0.0,7.0,3.0,1.0,6.0,6.0,419.6059230016544,3.0,0.0,part_2,stop,400.0,250.0,3.0,,,,,,,,,white,triangle
0.0,4.0,4.0,0.0,5.0,5.0,404.6267610101495,3.0,0.0,part_2,go,400.0,200.0,1.0,,,,,,,,,cyan,hexagon
0.0,2.0,2.0,0.0,6.0,6.0,359.8790619871579,3.0,0.0,part_2,go,400.0,200.0,1.0,,,,,,,,,blue,circle
0.0,4.0,4.0,0.0,6.0,6.0,255.51839100080542,3.0,0.0,part_2,go,400.0,200.0,1.0,,,,,,,,,cyan,hexagon
0.0,6.0,2.0,1.0,6.0,6.0,289.7985140152741,3.0,0.0,part_2,go,400.0,200.0,1.0,,,,,,,,,gray,I
0.0,5.0,1.0,1.0,5.0,5.0,417.5476589880418,3.0,0.0,part_2,go,400.0,200.0,1.0,,,,,,,,,magenta,flipped triangle
0.0,5.0,1.0,1.0,6.0,6.0,302.2376279986929,3.0,0.0,part_2,stop,400.0,200.0,3.0,,,,,,,,,magenta,flipped triangle
0.0,2.0,2.0,0.0,5.0,5.0,448.8746090210043,3.0,0.0,part_2,go,400.0,150.0,1.0,,,,,,,,,blue,circle
0.0,3.0,3.0,0.0,5.0,5.0,439.1962679801509,3.0,0.0,part_2,go,400.0,150.0,1.0,,,,,,,,,orange,diamond
0.0,3.0,3.0,0.0,5.0,5.0,373.2447740039788,3.0,0.0,part_2,go,400.0,150.0,1.0,,,,,,,,,orange,diamond
0.0,1.0,1.0,0.0,6.0,6.0,339.7105709882453,3.0,0.0,part_2,go,400.0,150.0,1.0,,,,,,,,,yellow,square
0.0,3.0,3.0,0.0,6.0,6.0,323.1042970146518,3.0,0.0,part_2,go,400.0,150.0,1.0,,,,,,,,,orange,diamond
0.0,6.0,2.0,1.0,5.0,5.0,435.4165050026495,3.0,0.0,part_2,stop,400.0,150.0,3.0,,,,,,,,,gray,I
0.0,4.0,4.0,0.0,5.0,5.0,340.7700450043194,3.0,0.0,part_2,go,350.0,150.0,1.0,,,,,,,,,cyan,hexagon
0.0,2.0,2.0,0.0,6.0,6.0,420.3198740142397,3.0,0.0,part_2,go,350.0,150.0,1.0,,,,,,,,,blue,circle
0.0,8.0,4.0,1.0,5.0,5.0,376.790639013052,3.0,0.0,part_2,stop,350.0,150.0,3.0,,,,,,,,,green,cross
0.0,4.0,4.0,0.0,5.0,5.0,343.9920610107947,3.0,0.0,part_2,go,300.0,150.0,1.0,,,,,,,,,cyan,hexagon
0.0,4.0,4.0,0.0,6.0,6.0,282.2748159815091,3.0,0.0,part_2,go,300.0,150.0,1.0,,,,,,,,,cyan,hexagon
0.0,8.0,4.0,1.0,5.0,5.0,297.4949690105859,3.0,0.0,part_2,stop,300.0,150.0,3.0,,,,,,,,,green,cross
0.0,5.0,1.0,1.0,6.0,6.0,376.4221660094335,3.0,0.0,part_2,go,250.0,150.0,1.0,,,,,,,,,magenta,flipped triangle
0.0,3.0,3.0,0.0,5.0,5.0,256.6092150227632,3.0,0.0,part_2,go,250.0,150.0,1.0,,,,,,,,,orange,diamond
0.0,5.0,1.0,1.0,5.0,5.0,333.5370319837238,3.0,0.0,part_2,stop,250.0,150.0,3.0,,,,,,,,,magenta,flipped triangle
0.0,3.0,3.0,0.0,5.0,5.0,477.6905890030321,3.0,0.0,part_2,go,200.0,150.0,1.0,,,,,,,,,orange,diamond
0.0,8.0,4.0,1.0,6.0,6.0,248.1700499774888,3.0,0.0,part_2,stop,200.0,150.0,3.0,,,,,,,,,green,cross
0.0,5.0,1.0,1.0,5.0,5.0,291.996879997896,3.0,0.0,part_2,stop,200.0,100.0,3.0,,,,,,,,,magenta,flipped triangle
0.0,5.0,1.0,1.0,6.0,6.0,294.2253359942697,3.0,0.0,part_2,stop,150.0,100.0,3.0,,,,,,,,,magenta,flipped triangle
0.0,3.0,3.0,0.0,6.0,6.0,314.6058529964648,3.0,0.0,part_2,go,150.0,50.0,1.0,,,,,,,,,orange,diamond
0.0,4.0,4.0,0.0,5.0,5.0,278.0505940027069,3.0,0.0,part_2,go,150.0,50.0,1.0,,,,,,,,,cyan,hexagon
0.0,1.0,1.0,0.0,6.0,6.0,578.5485779924784,4.0,0.0,part_2,go,150.0,50.0,1.0,,,,,,,,,yellow,square
0.0,5.0,1.0,1.0,6.0,6.0,330.9741760022007,4.0,0.0,part_2,stop,150.0,50.0,3.0,,,,,,,,,magenta,flipped triangle
0.0,7.0,3.0,1.0,6.0,6.0,740.6858460162766,4.0,0.0,part_2,go,150.0,0.0,1.0,,,,,,,,,white,triangle
0.0,3.0,3.0,0.0,6.0,6.0,703.7503329920582,4.0,0.0,part_2,go,150.0,0.0,1.0,,,,,,,,,orange,diamond
0.0,7.0,3.0,1.0,6.0,0.0,0.0,4.0,0.0,part_2,stop,150.0,0.0,4.0,,,,,,,,,white,triangle
0.0,8.0,4.0,1.0,6.0,0.0,0.0,4.0,0.0,part_2,stop,150.0,50.0,4.0,,,,,,,,,green,cross
0.0,8.0,4.0,1.0,6.0,0.0,0.0,4.0,0.0,part_2,stop,150.0,100.0,4.0,,,,,,,,,green,cross
0.0,5.0,1.0,1.0,6.0,6.0,439.4370530208107,4.0,0.0,part_2,go,150.0,150.0,1.0,,,,,,,,,magenta,flipped triangle
0.0,8.0,4.0,1.0,6.0,0.0,0.0,4.0,0.0,part_2,stop,150.0,150.0,4.0,,,,,,,,,green,cross
0.0,5.0,1.0,1.0,6.0,0.0,0.0,4.0,0.0,part_2,stop,150.0,200.0,4.0,,,,,,,,,magenta,flipped triangle
0.0,5.0,1.0,1.0,5.0,0.0,0.0,4.0,0.0,part_2,stop,150.0,250.0,4.0,,,,,,,,,magenta,flipped triangle
0.0,1.0,1.0,0.0,5.0,5.0,700.5028979911003,4.0,0.0,part_2,go,200.0,250.0,1.0,,,,,,,,,yellow,square
0.0,8.0,4.0,1.0,6.0,6.0,317.7026589983143,4.0,0.0,part_2,stop,200.0,250.0,3.0,,,,,,,,,green,cross
0.0,3.0,3.0,0.0,6.0,6.0,566.2101870111655,4.0,0.0,part_2,go,200.0,200.0,1.0,,,,,,,,,orange,diamond
0.0,1.0,1.0,0.0,6.0,6.0,521.8605329864658,4.0,0.0,part_2,go,200.0,200.0,1.0,,,,,,,,,yellow,square
0.0,3.0,3.0,0.0,6.0,6.0,477.0131960103754,4.0,0.0,part_2,go,200.0,200.0,1.0,,,,,,,,,orange,diamond
0.0,2.0,2.0,0.0,6.0,6.0,400.7895520189777,4.0,0.0,part_2,go,200.0,200.0,1.0,,,,,,,,,blue,circle
0.0,3.0,3.0,0.0,6.0,6.0,665.81570301787,4.0,0.0,part_2,go,200.0,200.0,1.0,,,,,,,,,orange,diamond
0.0,4.0,4.0,0.0,6.0,6.0,480.6180779996793,4.0,0.0,part_2,go,200.0,200.0,1.0,,,,,,,,,cyan,hexagon
0.0,3.0,3.0,0.0,6.0,6.0,337.3746430152096,4.0,0.0,part_2,go,200.0,200.0,1.0,,,,,,,,,orange,diamond
0.0,4.0,4.0,0.0,6.0,6.0,352.4249909969512,4.0,0.0,part_2,go,200.0,200.0,1.0,,,,,,,,,cyan,hexagon
0.0,5.0,1.0,1.0,6.0,0.0,0.0,4.0,0.0,part_2,stop,200.0,200.0,4.0,,,,,,,,,magenta,flipped triangle
0.0,8.0,4.0,1.0,6.0,0.0,0.0,4.0,0.0,part_2,stop,200.0,250.0,4.0,,,,,,,,,green,cross
0.0,7.0,3.0,1.0,5.0,0.0,0.0,4.0,0.0,part_2,stop,200.0,300.0,4.0,,,,,,,,,white,triangle
0.0,4.0,4.0,0.0,6.0,6.0,564.7687249875162,4.0,0.0,part_2,go,250.0,300.0,1.0,,,,,,,,,cyan,hexagon
0.0,5.0,1.0,1.0,6.0,6.0,479.259350016946,4.0,0.0,part_2,stop,250.0,300.0,3.0,,,,,,,,,magenta,flipped triangle
0.0,2.0,2.0,0.0,5.0,5.0,629.4137840159237,4.0,0.0,part_2,go,250.0,250.0,1.0,,,,,,,,,blue,circle
0.0,5.0,1.0,1.0,6.0,0.0,0.0,4.0,0.0,part_2,stop,250.0,250.0,4.0,,,,,,,,,magenta,flipped triangle
0.0,2.0,2.0,0.0,6.0,6.0,693.763493996812,4.0,0.0,part_2,go,250.0,300.0,1.0,,,,,,,,,blue,circle
0.0,8.0,4.0,1.0,6.0,0.0,0.0,4.0,0.0,part_2,stop,250.0,300.0,4.0,,,,,,,,,green,cross
0.0,1.0,1.0,0.0,5.0,5.0,555.9702630271204,4.0,0.0,part_2,go,250.0,350.0,1.0,,,,,,,,,yellow,square
0.0,3.0,3.0,0.0,6.0,6.0,604.9893980089109,4.0,0.0,part_2,go,250.0,350.0,1.0,,,,,,,,,orange,diamond
0.0,6.0,2.0,1.0,5.0,0.0,0.0,4.0,0.0,part_2,stop,250.0,350.0,4.0,,,,,,,,,gray,I
0.0,5.0,1.0,1.0,5.0,0.0,0.0,4.0,0.0,part_2,stop,300.0,350.0,4.0,,,,,,,,,magenta,flipped triangle
0.0,7.0,3.0,1.0,6.0,0.0,0.0,4.0,0.0,part_2,stop,350.0,350.0,4.0,,,,,,,,,white,triangle
0.0,3.0,3.0,0.0,5.0,5.0,562.6587120059412,4.0,0.0,part_2,go,350.0,400.0,1.0,,,,,,,,,orange,diamond
0.0,5.0,1.0,1.0,5.0,0.0,0.0,5.0,0.0,part_2,stop,350.0,400.0,4.0,,,,,,,,,magenta,flipped triangle
0.0,3.0,3.0,0.0,6.0,6.0,755.8625149831641,5.0,0.0,part_2,go,400.0,400.0,1.0,,,,,,,,,orange,diamond
0.0,4.0,4.0,0.0,5.0,5.0,740.8762680133805,5.0,0.0,part_2,go,400.0,400.0,1.0,,,,,,,,,cyan,hexagon
0.0,1.0,1.0,0.0,6.0,6.0,573.6382259929087,5.0,0.0,part_2,go,400.0,400.0,1.0,,,,,,,,,yellow,square
0.0,6.0,2.0,1.0,5.0,0.0,0.0,5.0,0.0,part_2,stop,400.0,400.0,4.0,,,,,,,,,gray,I
0.0,6.0,2.0,1.0,6.0,6.0,473.5119400138501,5.0,0.0,part_2,go,450.0,400.0,1.0,,,,,,,,,gray,I
0.0,6.0,2.0,1.0,5.0,5.0,752.9203509911895,5.0,0.0,part_2,stop,450.0,400.0,3.0,,,,,,,,,gray,I
0.0,7.0,3.0,1.0,6.0,0.0,0.0,5.0,0.0,part_2,stop,400.0,400.0,4.0,,,,,,,,,white,triangle
0.0,2.0,2.0,0.0,5.0,5.0,816.4929430058692,5.0,0.0,part_2,go,400.0,450.0,1.0,,,,,,,,,blue,circle
0.0,8.0,4.0,1.0,5.0,0.0,0.0,5.0,0.0,part_2,stop,400.0,450.0,4.0,,,,,,,,,green,cross
0.0,3.0,3.0,0.0,5.0,5.0,787.3269209812861,5.0,0.0,part_2,go,450.0,450.0,1.0,,,,,,,,,orange,diamond
0.0,7.0,3.0,1.0,6.0,6.0,752.8452090045903,5.0,0.0,part_2,go,450.0,450.0,1.0,,,,,,,,,white,triangle
0.0,5.0,1.0,1.0,5.0,5.0,879.0025979978964,5.0,0.0,part_2,go,450.0,450.0,1.0,,,,,,,,,magenta,flipped triangle
0.0,4.0,4.0,0.0,6.0,6.0,572.957669995958,5.0,0.0,part_2,go,450.0,450.0,1.0,,,,,,,,,cyan,hexagon
0.0,8.0,4.0,1.0,5.0,5.0,621.1716189864092,5.0,0.0,part_2,stop,450.0,450.0,3.0,,,,,,,,,green,cross
0.0,1.0,1.0,0.0,5.0,5.0,774.7801109799184,5.0,0.0,part_2,go,400.0,450.0,1.0,,,,,,,,,yellow,square
0.0,8.0,4.0,1.0,6.0,6.0,782.5855289993342,5.0,0.0,part_2,go,400.0,450.0,1.0,,,,,,,,,green,cross
0.0,6.0,2.0,1.0,6.0,6.0,567.0619839802384,5.0,0.0,part_2,stop,400.0,450.0,3.0,,,,,,,,,gray,I
0.0,1.0,1.0,0.0,6.0,6.0,788.8221589964814,5.0,0.0,part_2,go,400.0,400.0,1.0,,,,,,,,,yellow,square
0.0,1.0,1.0,0.0,6.0,6.0,834.5759020012338,5.0,0.0,part_2,go,400.0,400.0,1.0,,,,,,,,,yellow,square
0.0,4.0,4.0,0.0,5.0,5.0,515.633673989214,5.0,0.0,part_2,go,400.0,400.0,1.0,,,,,,,,,cyan,hexagon
0.0,7.0,3.0,1.0,5.0,0.0,0.0,5.0,0.0,part_2,stop,400.0,400.0,4.0,,,,,,,,,white,triangle
0.0,4.0,4.0,0.0,6.0,6.0,665.6362030189484,5.0,0.0,part_2,go,450.0,400.0,1.0,,,,,,,,,cyan,hexagon
0.0,3.0,3.0,0.0,5.0,5.0,698.9362470048945,5.0,0.0,part_2,go,450.0,400.0,1.0,,,,,,,,,orange,diamond
0.0,3.0,3.0,0.0,5.0,5.0,639.7638580237981,5.0,0.0,part_2,go,450.0,400.0,1.0,,,,,,,,,orange,diamond
0.0,3.0,3.0,0.0,5.0,5.0,590.4240070085507,5.0,0.0,part_2,go,450.0,400.0,1.0,,,,,,,,,orange,diamond
0.0,8.0,4.0,1.0,5.0,0.0,0.0,5.0,0.0,part_2,stop,450.0,400.0,4.0,,,,,,,,,green,cross
0.0,6.0,2.0,1.0,6.0,6.0,838.5410130140372,5.0,0.0,part_2,go,500.0,400.0,1.0,,,,,,,,,gray,I
0.0,6.0,2.0,1.0,6.0,0.0,0.0,5.0,0.0,part_2,stop,500.0,400.0,4.0,,,,,,,,,gray,I
0.0,7.0,3.0,1.0,5.0,5.0,668.5129030083772,5.0,0.0,part_2,go,500.0,450.0,1.0,,,,,,,,,white,triangle
0.0,6.0,2.0,1.0,5.0,0.0,0.0,5.0,0.0,part_2,stop,500.0,450.0,4.0,,,,,,,,,gray,I
0.0,7.0,3.0,1.0,6.0,0.0,0.0,5.0,0.0,part_2,stop,550.0,450.0,4.0,,,,,,,,,white,triangle
0.0,4.0,4.0,0.0,5.0,5.0,691.8509039969649,5.0,0.0,part_2,go,550.0,500.0,1.0,,,,,,,,,cyan,hexagon
0.0,2.0,2.0,0.0,6.0,6.0,700.9176569990814,5.0,0.0,part_2,go,550.0,500.0,1.0,,,,,,,,,blue,circle
0.0,2.0,2.0,0.0,5.0,5.0,578.5331719962414,5.0,0.0,part_2,go,550.0,500.0,1.0,,,,,,,,,blue,circle
0.0,7.0,3.0,1.0,5.0,5.0,568.510487995809,5.0,0.0,part_2,stop,550.0,500.0,3.0,,,,,,,,,white,triangle
0.0,5.0,1.0,1.0,5.0,5.0,541.3539329892956,6.0,0.0,part_2,go,500.0,500.0,1.0,,,,,,,,,magenta,flipped triangle
0.0,2.0,2.0,0.0,6.0,6.0,298.4500339953229,6.0,0.0,part_2,go,500.0,500.0,1.0,,,,,,,,,blue,circle
0.0,8.0,4.0,1.0,5.0,5.0,418.0937669880222,6.0,0.0,part_2,stop,500.0,500.0,3.0,,,,,,,,,green,cross
0.0,8.0,4.0,1.0,6.0,6.0,388.998756010551,6.0,0.0,part_2,stop,450.0,500.0,3.0,,,,,,,,,green,cross
0.0,8.0,4.0,1.0,5.0,5.0,441.874062991701,6.0,0.0,part_2,stop,450.0,450.0,3.0,,,,,,,,,green,cross
0.0,1.0,1.0,0.0,5.0,5.0,323.3342470193747,6.0,0.0,part_2,go,400.0,450.0,1.0,,,,,,,,,yellow,square
0.0,3.0,3.0,0.0,5.0,5.0,538.5390529991128,6.0,0.0,part_2,go,400.0,450.0,1.0,,,,,,,,,orange,diamond
0.0,6.0,2.0,1.0,6.0,6.0,410.4972200002521,6.0,0.0,part_2,stop,400.0,450.0,3.0,,,,,,,,,gray,I
0.0,5.0,1.0,1.0,6.0,6.0,679.2380189872347,6.0,0.0,part_2,go,400.0,400.0,1.0,,,,,,,,,magenta,flipped triangle
0.0,8.0,4.0,1.0,5.0,5.0,530.0889869977254,6.0,0.0,part_2,stop,400.0,400.0,3.0,,,,,,,,,green,cross
0.0,8.0,4.0,1.0,5.0,5.0,565.4611450154334,6.0,0.0,part_2,go,350.0,400.0,1.0,,,,,,,,,green,cross
0.0,1.0,1.0,0.0,5.0,5.0,568.5265000211075,6.0,0.0,part_2,go,350.0,400.0,1.0,,,,,,,,,yellow,square
0.0,6.0,2.0,1.0,5.0,5.0,432.076526019955,6.0,0.0,part_2,stop,350.0,400.0,3.0,,,,,,,,,gray,I
0.0,4.0,4.0,0.0,5.0,5.0,676.6126889851876,6.0,0.0,part_2,go,300.0,400.0,1.0,,,,,,,,,cyan,hexagon
0.0,4.0,4.0,0.0,5.0,5.0,422.1309449931141,6.0,0.0,part_2,go,300.0,400.0,1.0,,,,,,,,,cyan,hexagon
0.0,3.0,3.0,0.0,6.0,6.0,283.6421680112835,6.0,0.0,part_2,go,300.0,400.0,1.0,,,,,,,,,orange,diamond
0.0,2.0,2.0,0.0,6.0,6.0,259.3922200030647,6.0,0.0,part_2,go,300.0,400.0,1.0,,,,,,,,,blue,circle
0.0,2.0,2.0,0.0,5.0,5.0,369.7070759953931,6.0,0.0,part_2,go,300.0,400.0,1.0,,,,,,,,,blue,circle
0.0,4.0,4.0,0.0,6.0,6.0,284.068228007527,6.0,0.0,part_2,go,300.0,400.0,1.0,,,,,,,,,cyan,hexagon
0.0,6.0,2.0,1.0,6.0,6.0,304.689695010893,6.0,0.0,part_2,stop,300.0,400.0,3.0,,,,,,,,,gray,I
0.0,2.0,2.0,0.0,5.0,5.0,560.3926070034504,6.0,0.0,part_2,go,300.0,350.0,1.0,,,,,,,,,blue,circle
0.0,5.0,1.0,1.0,5.0,5.0,455.4042349918745,6.0,0.0,part_2,stop,300.0,350.0,3.0,,,,,,,,,magenta,flipped triangle
0.0,8.0,4.0,1.0,5.0,0.0,0.0,6.0,0.0,part_2,stop,250.0,350.0,4.0,,,,,,,,,green,cross
0.0,4.0,4.0,0.0,6.0,6.0,457.8064130037091,6.0,0.0,part_2,go,300.0,350.0,1.0,,,,,,,,,cyan,hexagon
0.0,4.0,4.0,0.0,5.0,5.0,417.0659289811738,6.0,0.0,part_2,go,300.0,350.0,1.0,,,,,,,,,cyan,hexagon
0.0,8.0,4.0,1.0,5.0,5.0,397.268428991083,6.0,0.0,part_2,stop,300.0,350.0,3.0,,,,,,,,,green,cross
0.0,2.0,2.0,0.0,6.0,6.0,604.4966540066525,6.0,0.0,part_2,go,250.0,350.0,1.0,,,,,,,,,blue,circle
0.0,8.0,4.0,1.0,5.0,5.0,358.8216810021549,6.0,0.0,part_2,stop,250.0,350.0,3.0,,,,,,,,,green,cross
0.0,6.0,2.0,1.0,6.0,6.0,565.8796249772422,6.0,0.0,part_2,go,200.0,350.0,1.0,,,,,,,,,gray,I
0.0,5.0,1.0,1.0,6.0,0.0,0.0,6.0,0.0,part_2,stop,200.0,350.0,4.0,,,,,,,,,magenta,flipped triangle
0.0,6.0,2.0,1.0,6.0,6.0,373.8445210037753,6.0,0.0,part_2,stop,200.0,400.0,3.0,,,,,,,,,gray,I
0.0,7.0,3.0,1.0,5.0,0.0,0.0,6.0,0.0,part_2,stop,200.0,350.0,4.0,,,,,,,,,white,triangle
0.0,1.0,1.0,0.0,6.0,6.0,411.4294240134768,6.0,0.0,part_2,go,250.0,350.0,1.0,,,,,,,,,yellow,square
0.0,3.0,3.0,0.0,6.0,6.0,505.862945021363,6.0,0.0,part_2,go,250.0,350.0,1.0,,,,,,,,,orange,diamond
0.0,7.0,3.0,1.0,5.0,0.0,0.0,6.0,0.0,part_2,stop,250.0,350.0,4.0,,,,,,,,,white,triangle
0.0,8.0,4.0,1.0,6.0,6.0,480.9284369985107,6.0,0.0,part_2,go,300.0,350.0,1.0,,,,,,,,,green,cross
0.0,3.0,3.0,0.0,6.0,6.0,708.981228992343,7.0,0.0,part_2,go,300.0,350.0,1.0,,,,,,,,,orange,diamond
0.0,1.0,1.0,0.0,5.0,5.0,358.2110269926488,7.0,0.0,part_2,go,300.0,350.0,1.0,,,,,,,,,yellow,square
0.0,6.0,2.0,1.0,5.0,5.0,454.2942399857566,7.0,0.0,part_2,stop,300.0,350.0,3.0,,,,,,,,,gray,I
0.0,1.0,1.0,0.0,6.0,6.0,522.4019169982057,7.0,0.0,part_2,go,250.0,350.0,1.0,,,,,,,,,yellow,square
0.0,3.0,3.0,0.0,5.0,5.0,397.8222880105022,7.0,0.0,part_2,go,250.0,350.0,1.0,,,,,,,,,orange,diamond
0.0,1.0,1.0,0.0,5.0,5.0,339.5338550035376,7.0,0.0,part_2,go,250.0,350.0,1.0,,,,,,,,,yellow,square
0.0,2.0,2.0,0.0,5.0,5.0,505.14144598855637,7.0,0.0,part_2,go,250.0,350.0,1.0,,,,,,,,,blue,circle
0.0,6.0,2.0,1.0,6.0,6.0,512.318745983066,7.0,0.0,part_2,go,250.0,350.0,1.0,,,,,,,,,gray,I
0.0,5.0,1.0,1.0,5.0,5.0,346.0000290069729,7.0,0.0,part_2,go,250.0,350.0,1.0,,,,,,,,,magenta,flipped triangle
0.0,1.0,1.0,0.0,6.0,6.0,386.7526209796779,7.0,0.0,part_2,go,250.0,350.0,1.0,,,,,,,,,yellow,square
0.0,3.0,3.0,0.0,6.0,6.0,375.7369020022452,7.0,0.0,part_2,go,250.0,350.0,1.0,,,,,,,,,orange,diamond
0.0,7.0,3.0,1.0,6.0,6.0,401.9378950179089,7.0,0.0,part_2,stop,250.0,350.0,3.0,,,,,,,,,white,triangle
0.0,5.0,1.0,1.0,6.0,6.0,441.1195619904902,7.0,0.0,part_2,stop,250.0,300.0,3.0,,,,,,,,,magenta,flipped triangle
0.0,7.0,3.0,1.0,5.0,5.0,415.6018590147141,7.0,0.0,part_2,go,250.0,250.0,1.0,,,,,,,,,white,triangle
0.0,5.0,1.0,1.0,6.0,0.0,0.0,7.0,0.0,part_2,stop,250.0,250.0,4.0,,,,,,,,,magenta,flipped triangle
0.0,7.0,3.0,1.0,6.0,6.0,527.5857630185783,7.0,0.0,part_2,go,250.0,300.0,1.0,,,,,,,,,white,triangle
0.0,3.0,3.0,0.0,6.0,6.0,526.1167389980983,7.0,0.0,part_2,go,250.0,300.0,1.0,,,,,,,,,orange,diamond
0.0,8.0,4.0,1.0,6.0,0.0,0.0,7.0,0.0,part_2,stop,250.0,300.0,4.0,,,,,,,,,green,cross
0.0,2.0,2.0,0.0,6.0,6.0,571.8946399865672,7.0,0.0,part_2,go,250.0,350.0,1.0,,,,,,,,,blue,circle
0.0,1.0,1.0,0.0,6.0,6.0,532.0761839975603,7.0,0.0,part_2,go,250.0,350.0,1.0,,,,,,,,,yellow,square
0.0,6.0,2.0,1.0,6.0,6.0,459.6233750053216,7.0,0.0,part_2,stop,250.0,350.0,3.0,,,,,,,,,gray,I
0.0,2.0,2.0,0.0,5.0,5.0,512.5282219960354,7.0,0.0,part_2,go,250.0,300.0,1.0,,,,,,,,,blue,circle
0.0,8.0,4.0,1.0,6.0,6.0,490.0363170017954,7.0,0.0,part_2,go,250.0,300.0,1.0,,,,,,,,,green,cross
0.0,1.0,1.0,0.0,5.0,5.0,520.7858449721243,7.0,0.0,part_2,go,250.0,300.0,1.0,,,,,,,,,yellow,square
0.0,2.0,2.0,0.0,6.0,6.0,370.1340149855241,7.0,0.0,part_2,go,250.0,300.0,1.0,,,,,,,,,blue,circle
0.0,4.0,4.0,0.0,6.0,6.0,375.0531639961991,7.0,0.0,part_2,go,250.0,300.0,1.0,,,,,,,,,cyan,hexagon
0.0,7.0,3.0,1.0,5.0,0.0,0.0,7.0,0.0,part_2,stop,250.0,300.0,4.0,,,,,,,,,white,triangle
0.0,6.0,2.0,1.0,6.0,0.0,0.0,7.0,0.0,part_2,stop,300.0,300.0,4.0,,,,,,,,,gray,I
0.0,6.0,2.0,1.0,5.0,0.0,0.0,7.0,0.0,part_2,stop,300.0,350.0,4.0,,,,,,,,,gray,I
0.0,1.0,1.0,0.0,5.0,5.0,580.3659420053009,7.0,0.0,part_2,go,350.0,350.0,1.0,,,,,,,,,yellow,square
0.0,6.0,2.0,1.0,6.0,6.0,470.6843629828654,7.0,0.0,part_2,stop,350.0,350.0,3.0,,,,,,,,,gray,I
0.0,4.0,4.0,0.0,5.0,5.0,725.330771994777,7.0,0.0,part_2,go,350.0,300.0,1.0,,,,,,,,,cyan,hexagon
0.0,4.0,4.0,0.0,6.0,6.0,733.6943029949907,7.0,0.0,part_2,go,350.0,300.0,1.0,,,,,,,,,cyan,hexagon
0.0,7.0,3.0,1.0,5.0,0.0,0.0,7.0,0.0,part_2,stop,350.0,300.0,4.0,,,,,,,,,white,triangle
0.0,7.0,3.0,1.0,5.0,0.0,0.0,7.0,0.0,part_2,stop,400.0,300.0,4.0,,,,,,,,,white,triangle
0.0,2.0,2.0,0.0,5.0,5.0,537.2823179932311,7.0,0.0,part_2,go,450.0,300.0,1.0,,,,,,,,,blue,circle
0.0,2.0,2.0,0.0,6.0,6.0,700.1580969954375,8.0,0.0,part_2,go,450.0,300.0,1.0,,,,,,,,,blue,circle
0.0,8.0,4.0,1.0,5.0,5.0,456.3836930028628,8.0,0.0,part_2,go,450.0,300.0,1.0,,,,,,,,,green,cross
0.0,7.0,3.0,1.0,6.0,6.0,434.2373629915528,8.0,0.0,part_2,stop,450.0,300.0,3.0,,,,,,,,,white,triangle
0.0,4.0,4.0,0.0,5.0,5.0,514.6670809772331,8.0,0.0,part_2,go,450.0,250.0,1.0,,,,,,,,,cyan,hexagon
0.0,5.0,1.0,1.0,5.0,5.0,410.8060619910247,8.0,0.0,part_2,stop,450.0,250.0,3.0,,,,,,,,,magenta,flipped triangle
0.0,7.0,3.0,1.0,6.0,0.0,0.0,8.0,0.0,part_2,stop,400.0,250.0,4.0,,,,,,,,,white,triangle
0.0,4.0,4.0,0.0,5.0,5.0,373.7871659977827,8.0,0.0,part_2,go,400.0,300.0,1.0,,,,,,,,,cyan,hexagon
0.0,7.0,3.0,1.0,5.0,0.0,0.0,8.0,0.0,part_2,stop,400.0,300.0,4.0,,,,,,,,,white,triangle
0.0,7.0,3.0,1.0,5.0,5.0,525.3493300115224,8.0,0.0,part_2,stop,450.0,300.0,3.0,,,,,,,,,white,triangle
0.0,8.0,4.0,1.0,6.0,6.0,326.2973270029761,8.0,0.0,part_2,stop,400.0,300.0,3.0,,,,,,,,,green,cross
0.0,1.0,1.0,0.0,5.0,5.0,446.1467569926753,8.0,0.0,part_2,go,400.0,250.0,1.0,,,,,,,,,yellow,square
0.0,4.0,4.0,0.0,6.0,6.0,254.75112101412378,8.0,0.0,part_2,go,400.0,250.0,1.0,,,,,,,,,cyan,hexagon
0.0,1.0,1.0,0.0,6.0,6.0,293.6336999991908,8.0,0.0,part_2,go,400.0,250.0,1.0,,,,,,,,,yellow,square
0.0,6.0,2.0,1.0,6.0,6.0,364.7163429995999,8.0,0.0,part_2,stop,400.0,250.0,3.0,,,,,,,,,gray,I
0.0,2.0,2.0,0.0,6.0,6.0,572.6823410077486,8.0,0.0,part_2,go,400.0,200.0,1.0,,,,,,,,,blue,circle
0.0,6.0,2.0,1.0,5.0,0.0,0.0,8.0,0.0,part_2,stop,400.0,200.0,4.0,,,,,,,,,gray,I
0.0,7.0,3.0,1.0,6.0,0.0,0.0,8.0,0.0,part_2,stop,450.0,200.0,4.0,,,,,,,,,white,triangle
0.0,5.0,1.0,1.0,6.0,6.0,515.9581390034873,8.0,0.0,part_2,go,450.0,250.0,1.0,,,,,,,,,magenta,flipped triangle
0.0,4.0,4.0,0.0,6.0,6.0,466.5343489905353,8.0,0.0,part_2,go,450.0,250.0,1.0,,,,,,,,,cyan,hexagon
0.0,2.0,2.0,0.0,5.0,5.0,624.7891820094083,8.0,0.0,part_2,go,450.0,250.0,1.0,,,,,,,,,blue,circle
0.0,8.0,4.0,1.0,5.0,0.0,0.0,8.0,0.0,part_2,stop,450.0,250.0,4.0,,,,,,,,,green,cross
0.0,5.0,1.0,1.0,6.0,0.0,0.0,8.0,0.0,part_2,stop,500.0,250.0,4.0,,,,,,,,,magenta,flipped triangle
0.0,7.0,3.0,1.0,6.0,0.0,0.0,8.0,0.0,part_2,stop,500.0,300.0,4.0,,,,,,,,,white,triangle
0.0,6.0,2.0,1.0,5.0,5.0,684.5197509974241,8.0,0.0,part_2,go,500.0,350.0,1.0,,,,,,,,,gray,I
0.0,7.0,3.0,1.0,5.0,0.0,0.0,8.0,0.0,part_2,stop,500.0,350.0,4.0,,,,,,,,,white,triangle
0.0,2.0,2.0,0.0,5.0,5.0,619.2546140227932,8.0,0.0,part_2,go,550.0,350.0,1.0,,,,,,,,,blue,circle
0.0,4.0,4.0,0.0,6.0,6.0,724.9007170030382,8.0,0.0,part_2,go,550.0,350.0,1.0,,,,,,,,,cyan,hexagon
0.0,2.0,2.0,0.0,6.0,6.0,602.1880479820538,8.0,0.0,part_2,go,550.0,350.0,1.0,,,,,,,,,blue,circle
0.0,5.0,1.0,1.0,5.0,5.0,457.7992260165047,8.0,0.0,part_2,stop,550.0,350.0,3.0,,,,,,,,,magenta,flipped triangle
0.0,4.0,4.0,0.0,5.0,5.0,595.9980619954877,8.0,0.0,part_2,go,500.0,350.0,1.0,,,,,,,,,cyan,hexagon
0.0,2.0,2.0,0.0,6.0,6.0,464.3052899918984,8.0,0.0,part_2,go,500.0,350.0,1.0,,,,,,,,,blue,circle
0.0,2.0,2.0,0.0,6.0,6.0,537.2542600089218,8.0,0.0,part_2,go,500.0,350.0,1.0,,,,,,,,,blue,circle
0.0,1.0,1.0,0.0,6.0,6.0,346.9038280018139,8.0,0.0,part_2,go,500.0,350.0,1.0,,,,,,,,,yellow,square
0.0,6.0,2.0,1.0,5.0,5.0,632.7880510070827,8.0,0.0,part_2,stop,500.0,350.0,3.0,,,,,,,,,gray,I
0.0,2.0,2.0,0.0,5.0,5.0,586.3239600148518,8.0,0.0,part_2,go,450.0,350.0,1.0,,,,,,,,,blue,circle
0.0,3.0,3.0,0.0,5.0,5.0,462.7732429944444,8.0,0.0,part_2,go,450.0,350.0,1.0,,,,,,,,,orange,diamond
0.0,8.0,4.0,1.0,7.0,3.0,1448.4132710203994,1.0,2.0,part_3,go,0.0,0.0,0.0,176.0,4.0,264.0,132.0,176.0,220.0,88.0,44.0,green,cross
0.0,5.0,1.0,1.0,7.0,2.0,1568.46050999593,1.0,1.0,part_3,go,0.0,0.0,0.0,170.0,5.0,68.0,170.0,34.0,136.0,102.0,204.0,magenta,flipped triangle
0.0,6.0,2.0,1.0,7.0,1.0,1993.9138239715248,1.0,1.0,part_3,go,0.0,0.0,0.0,176.0,4.0,176.0,44.0,132.0,264.0,220.0,88.0,gray,I
0.0,3.0,3.0,0.0,7.0,5.0,1786.2524240044877,1.0,1.0,part_3,go,0.0,0.0,0.0,170.0,5.0,102.0,204.0,34.0,68.0,170.0,136.0,orange,diamond
0.0,3.0,3.0,0.0,7.0,4.0,1787.4423140019644,1.0,1.0,part_3,go,0.0,0.0,0.0,196.0,4.0,245.0,294.0,49.0,196.0,147.0,98.0,orange,diamond
0.0,8.0,4.0,1.0,7.0,3.0,1150.557259010384,1.0,1.0,part_3,go,0.0,0.0,0.0,196.0,4.0,98.0,49.0,196.0,245.0,294.0,147.0,green,cross
0.0,2.0,2.0,0.0,7.0,5.0,1517.8466830111574,1.0,1.0,part_3,go,0.0,0.0,0.0,196.0,4.0,147.0,245.0,98.0,294.0,196.0,49.0,blue,circle
0.0,2.0,2.0,0.0,7.0,5.0,994.2498719901778,1.0,1.0,part_3,go,0.0,0.0,0.0,195.0,5.0,156.0,117.0,78.0,234.0,195.0,39.0,blue,circle
0.0,2.0,2.0,0.0,7.0,5.0,856.326666980749,1.0,1.0,part_3,go,0.0,0.0,0.0,170.0,5.0,34.0,68.0,136.0,102.0,170.0,204.0,blue,circle
0.0,6.0,2.0,1.0,7.0,4.0,972.1141710178928,1.0,1.0,part_3,go,0.0,0.0,0.0,170.0,5.0,68.0,204.0,102.0,170.0,34.0,136.0,gray,I
0.0,1.0,1.0,0.0,7.0,3.0,1741.8939229974058,1.0,1.0,part_3,go,0.0,0.0,0.0,196.0,4.0,49.0,147.0,196.0,294.0,98.0,245.0,yellow,square
0.0,1.0,1.0,0.0,7.0,2.0,1070.397093979409,1.0,1.0,part_3,go,0.0,0.0,0.0,176.0,4.0,88.0,176.0,132.0,264.0,220.0,44.0,yellow,square
0.0,2.0,2.0,0.0,7.0,5.0,1665.0567059987225,1.0,1.0,part_3,go,0.0,0.0,0.0,196.0,4.0,147.0,294.0,49.0,98.0,196.0,245.0,blue,circle
0.0,1.0,1.0,0.0,7.0,4.0,1184.7229129925836,1.0,1.0,part_3,go,0.0,0.0,0.0,195.0,5.0,117.0,156.0,234.0,195.0,39.0,78.0,yellow,square
0.0,5.0,1.0,1.0,7.0,4.0,2464.978372008773,1.0,1.0,part_3,go,0.0,0.0,0.0,162.0,3.0,324.0,216.0,54.0,162.0,270.0,108.0,magenta,flipped triangle
0.0,2.0,2.0,0.0,7.0,5.0,1883.160046010744,1.0,1.0,part_3,go,0.0,0.0,0.0,195.0,5.0,234.0,117.0,156.0,78.0,195.0,39.0,blue,circle
0.0,6.0,2.0,1.0,7.0,2.0,1722.791310021421,1.0,1.0,part_3,go,0.0,0.0,0.0,195.0,5.0,156.0,195.0,39.0,234.0,78.0,117.0,gray,I
0.0,4.0,4.0,0.0,7.0,3.0,1316.5568659896962,1.0,1.0,part_3,go,0.0,0.0,0.0,170.0,5.0,102.0,204.0,170.0,68.0,34.0,136.0,cyan,hexagon
0.0,4.0,4.0,0.0,7.0,2.0,2485.908231989015,1.0,1.0,part_3,go,0.0,0.0,0.0,162.0,3.0,216.0,162.0,324.0,108.0,270.0,54.0,cyan,hexagon
0.0,6.0,2.0,1.0,7.0,5.0,2611.3412189879455,1.0,1.0,part_3,go,0.0,0.0,0.0,216.0,4.0,324.0,108.0,270.0,54.0,216.0,162.0,gray,I
0.0,8.0,4.0,1.0,7.0,4.0,2018.1834789982531,2.0,1.0,part_3,go,0.0,0.0,0.0,170.0,5.0,34.0,136.0,102.0,170.0,68.0,204.0,green,cross
0.0,6.0,2.0,1.0,7.0,3.0,1989.1108890005853,2.0,1.0,part_3,go,0.0,0.0,0.0,49.0,1.0,245.0,196.0,49.0,147.0,98.0,294.0,gray,I
0.0,8.0,4.0,1.0,7.0,5.0,1771.589251991827,2.0,1.0,part_3,go,0.0,0.0,0.0,196.0,4.0,98.0,245.0,147.0,294.0,196.0,49.0,green,cross
0.0,7.0,3.0,1.0,7.0,4.0,1212.3280180094298,2.0,1.0,part_3,go,0.0,0.0,0.0,176.0,4.0,220.0,44.0,132.0,176.0,88.0,264.0,white,triangle
0.0,6.0,2.0,1.0,7.0,2.0,831.9454060110729,2.0,1.0,part_3,go,0.0,0.0,0.0,196.0,4.0,49.0,196.0,147.0,294.0,98.0,245.0,gray,I
0.0,5.0,1.0,1.0,7.0,2.0,1570.9072070021648,2.0,1.0,part_3,go,0.0,0.0,0.0,176.0,4.0,132.0,176.0,220.0,44.0,88.0,264.0,magenta,flipped triangle
0.0,8.0,4.0,1.0,7.0,1.0,1881.1974030104464,2.0,1.0,part_3,go,0.0,0.0,0.0,195.0,5.0,195.0,78.0,234.0,39.0,156.0,117.0,green,cross
0.0,5.0,1.0,1.0,7.0,2.0,1253.6055450036656,2.0,1.0,part_3,go,0.0,0.0,0.0,196.0,4.0,294.0,196.0,49.0,147.0,245.0,98.0,magenta,flipped triangle
0.0,8.0,4.0,1.0,7.0,2.0,1827.308596984949,2.0,1.0,part_3,go,0.0,0.0,0.0,162.0,3.0,54.0,162.0,324.0,108.0,270.0,216.0,green,cross
0.0,3.0,3.0,0.0,7.0,4.0,1396.3818359770812,2.0,1.0,part_3,go,0.0,0.0,0.0,162.0,3.0,216.0,324.0,54.0,162.0,108.0,270.0,orange,diamond
0.0,3.0,3.0,0.0,7.0,5.0,1671.5727260161657,2.0,1.0,part_3,go,0.0,0.0,0.0,204.0,6.0,34.0,136.0,68.0,102.0,204.0,170.0,orange,diamond
0.0,7.0,3.0,1.0,7.0,1.0,2146.7661450151354,2.0,1.0,part_3,go,0.0,0.0,0.0,204.0,6.0,204.0,170.0,68.0,34.0,136.0,102.0,white,triangle
0.0,3.0,3.0,0.0,7.0,4.0,1792.983330989955,2.0,1.0,part_3,go,0.0,0.0,0.0,196.0,4.0,245.0,147.0,294.0,196.0,49.0,98.0,orange,diamond
0.0,1.0,1.0,0.0,7.0,2.0,1643.6730150016956,2.0,1.0,part_3,go,0.0,0.0,0.0,196.0,4.0,49.0,196.0,98.0,245.0,147.0,294.0,yellow,square
0.0,2.0,2.0,0.0,7.0,4.0,2027.7094090124592,2.0,1.0,part_3,go,0.0,0.0,0.0,176.0,4.0,88.0,132.0,264.0,176.0,44.0,220.0,blue,circle
0.0,5.0,1.0,1.0,7.0,6.0,2103.1222449964844,2.0,1.0,part_3,go,0.0,0.0,0.0,195.0,5.0,39.0,234.0,117.0,78.0,156.0,195.0,magenta,flipped triangle
0.0,4.0,4.0,0.0,7.0,5.0,1094.0343079855666,2.0,1.0,part_3,go,0.0,0.0,0.0,204.0,6.0,68.0,102.0,170.0,136.0,204.0,34.0,cyan,hexagon
0.0,8.0,4.0,1.0,7.0,3.0,1474.2697600158865,2.0,1.0,part_3,go,0.0,0.0,0.0,204.0,6.0,68.0,102.0,204.0,136.0,34.0,170.0,green,cross
0.0,3.0,3.0,0.0,7.0,1.0,1523.709864995908,2.0,1.0,part_3,go,0.0,0.0,0.0,195.0,5.0,195.0,156.0,117.0,78.0,39.0,234.0,orange,diamond
0.0,5.0,1.0,1.0,7.0,2.0,2323.4775619930588,2.0,1.0,part_3,go,0.0,0.0,0.0,204.0,6.0,102.0,204.0,170.0,34.0,68.0,136.0,magenta,flipped triangle
0.0,6.0,2.0,1.0,7.0,2.0,1904.083596018609,3.0,1.0,part_3,go,0.0,0.0,0.0,195.0,5.0,39.0,195.0,156.0,117.0,78.0,234.0,gray,I
0.0,4.0,4.0,0.0,7.0,6.0,1777.1546290023252,3.0,1.0,part_3,go,0.0,0.0,0.0,195.0,5.0,156.0,78.0,234.0,117.0,39.0,195.0,cyan,hexagon
0.0,6.0,2.0,1.0,7.0,3.0,2484.640693000983,3.0,1.0,part_3,go,0.0,0.0,0.0,170.0,5.0,204.0,102.0,170.0,68.0,34.0,136.0,gray,I
0.0,7.0,3.0,1.0,7.0,2.0,2014.7610899875872,3.0,1.0,part_3,go,0.0,0.0,0.0,216.0,4.0,54.0,216.0,270.0,108.0,324.0,162.0,white,triangle
0.0,3.0,3.0,0.0,7.0,1.0,2935.802980005974,3.0,1.0,part_3,go,0.0,0.0,0.0,162.0,3.0,162.0,324.0,54.0,216.0,270.0,108.0,orange,diamond
0.0,5.0,1.0,1.0,7.0,3.0,2142.5696259830147,3.0,1.0,part_3,go,0.0,0.0,0.0,196.0,4.0,147.0,294.0,196.0,49.0,245.0,98.0,magenta,flipped triangle
0.0,1.0,1.0,0.0,7.0,6.0,2304.494781012181,3.0,1.0,part_3,go,0.0,0.0,0.0,216.0,4.0,270.0,54.0,108.0,162.0,324.0,216.0,yellow,square
0.0,1.0,1.0,0.0,7.0,2.0,3082.662922999589,3.0,1.0,part_3,go,0.0,0.0,0.0,204.0,6.0,170.0,204.0,34.0,102.0,68.0,136.0,yellow,square
0.0,6.0,2.0,1.0,7.0,5.0,2148.890893004136,3.0,1.0,part_3,go,0.0,0.0,0.0,176.0,4.0,264.0,88.0,132.0,220.0,176.0,44.0,gray,I
0.0,7.0,3.0,1.0,7.0,1.0,1676.7194800195284,3.0,1.0,part_3,go,0.0,0.0,0.0,195.0,5.0,195.0,156.0,78.0,39.0,117.0,234.0,white,triangle
0.0,4.0,4.0,0.0,7.0,5.0,1249.451506009791,3.0,1.0,part_3,go,0.0,0.0,0.0,196.0,4.0,294.0,98.0,49.0,245.0,196.0,147.0,cyan,hexagon
0.0,4.0,4.0,0.0,7.0,4.0,1502.7731729787774,3.0,1.0,part_3,go,0.0,0.0,0.0,216.0,4.0,270.0,108.0,54.0,216.0,324.0,162.0,cyan,hexagon
0.0,7.0,3.0,1.0,7.0,4.0,1723.456960025942,3.0,1.0,part_3,go,0.0,0.0,0.0,204.0,6.0,170.0,102.0,34.0,204.0,68.0,136.0,white,triangle
0.0,5.0,1.0,1.0,7.0,1.0,2593.181129981531,3.0,1.0,part_3,go,0.0,0.0,0.0,176.0,4.0,176.0,220.0,88.0,264.0,132.0,44.0,magenta,flipped triangle
0.0,1.0,1.0,0.0,7.0,1.0,2173.6323020013515,3.0,1.0,part_3,go,0.0,0.0,0.0,216.0,4.0,216.0,108.0,270.0,324.0,54.0,162.0,yellow,square
0.0,4.0,4.0,0.0,7.0,2.0,1568.16428899765,3.0,1.0,part_3,go,0.0,0.0,0.0,176.0,4.0,132.0,176.0,88.0,264.0,220.0,44.0,cyan,hexagon
0.0,3.0,3.0,0.0,7.0,6.0,2006.7110579984728,3.0,1.0,part_3,go,0.0,0.0,0.0,195.0,5.0,39.0,78.0,117.0,156.0,234.0,195.0,orange,diamond
0.0,1.0,1.0,0.0,7.0,2.0,1830.9290859906469,3.0,1.0,part_3,go,0.0,0.0,0.0,195.0,5.0,234.0,195.0,78.0,156.0,39.0,117.0,yellow,square
0.0,2.0,2.0,0.0,7.0,1.0,1755.8269730070606,3.0,1.0,part_3,go,0.0,0.0,0.0,170.0,5.0,170.0,136.0,68.0,102.0,204.0,34.0,blue,circle
0.0,8.0,4.0,1.0,7.0,1.0,3091.715244023362,3.0,1.0,part_3,go,0.0,0.0,0.0,176.0,4.0,176.0,264.0,44.0,88.0,132.0,220.0,green,cross
0.0,6.0,2.0,1.0,7.0,2.0,2059.710814995924,4.0,1.0,part_3,go,0.0,0.0,0.0,216.0,4.0,162.0,216.0,108.0,54.0,324.0,270.0,gray,I
0.0,1.0,1.0,0.0,7.0,4.0,2026.4904109935742,4.0,1.0,part_3,go,0.0,0.0,0.0,220.0,5.0,132.0,176.0,88.0,220.0,44.0,264.0,yellow,square
0.0,2.0,2.0,0.0,7.0,6.0,1285.4960859986022,4.0,1.0,part_3,go,0.0,0.0,0.0,176.0,4.0,220.0,88.0,264.0,132.0,44.0,176.0,blue,circle
0.0,2.0,2.0,0.0,7.0,2.0,1788.6375100060832,4.0,1.0,part_3,go,0.0,0.0,0.0,216.0,4.0,108.0,216.0,270.0,324.0,162.0,54.0,blue,circle
0.0,7.0,3.0,1.0,7.0,5.0,1529.895748011768,4.0,1.0,part_3,go,0.0,0.0,0.0,196.0,4.0,245.0,294.0,49.0,147.0,196.0,98.0,white,triangle
0.0,5.0,1.0,1.0,7.0,2.0,1615.579687000718,4.0,1.0,part_3,go,0.0,0.0,0.0,216.0,4.0,108.0,216.0,270.0,324.0,54.0,162.0,magenta,flipped triangle
0.0,1.0,1.0,0.0,7.0,4.0,1851.4943110058084,4.0,1.0,part_3,go,0.0,0.0,0.0,204.0,6.0,34.0,102.0,136.0,204.0,170.0,68.0,yellow,square
0.0,8.0,4.0,1.0,7.0,3.0,2244.3521009990945,4.0,1.0,part_3,go,0.0,0.0,0.0,216.0,4.0,270.0,162.0,216.0,108.0,54.0,324.0,green,cross
0.0,2.0,2.0,0.0,7.0,4.0,1043.6030559940264,4.0,1.0,part_3,go,0.0,0.0,0.0,216.0,4.0,162.0,270.0,108.0,216.0,54.0,324.0,blue,circle
0.0,8.0,4.0,1.0,7.0,5.0,1415.3939610114319,4.0,1.0,part_3,go,0.0,0.0,0.0,195.0,5.0,39.0,117.0,156.0,234.0,195.0,78.0,green,cross
0.0,4.0,4.0,0.0,7.0,4.0,1335.0052340247205,4.0,1.0,part_3,go,0.0,0.0,0.0,220.0,5.0,44.0,176.0,264.0,220.0,132.0,88.0,cyan,hexagon
0.0,4.0,4.0,0.0,7.0,4.0,1304.0043479995802,4.0,1.0,part_3,go,0.0,0.0,0.0,195.0,5.0,156.0,117.0,234.0,195.0,39.0,78.0,cyan,hexagon
0.0,7.0,3.0,1.0,7.0,4.0,2475.5053900007624,4.0,1.0,part_3,go,0.0,0.0,0.0,220.0,5.0,132.0,176.0,88.0,220.0,44.0,264.0,white,triangle
0.0,7.0,3.0,1.0,7.0,4.0,1204.3802379921544,4.0,1.0,part_3,go,0.0,0.0,0.0,196.0,4.0,49.0,245.0,98.0,196.0,147.0,294.0,white,triangle
0.0,7.0,3.0,1.0,7.0,4.0,774.6212499914691,4.0,1.0,part_3,go,0.0,0.0,0.0,195.0,5.0,234.0,39.0,117.0,195.0,78.0,156.0,white,triangle
0.0,3.0,3.0,0.0,7.0,3.0,2408.635576022789,4.0,1.0,part_3,go,0.0,0.0,0.0,176.0,4.0,88.0,220.0,176.0,264.0,132.0,44.0,orange,diamond
0.0,5.0,1.0,1.0,7.0,1.0,2097.089732007589,4.0,1.0,part_3,go,0.0,0.0,0.0,195.0,5.0,195.0,156.0,78.0,39.0,234.0,117.0,magenta,flipped triangle
0.0,7.0,3.0,1.0,7.0,2.0,2088.8906710024457,4.0,1.0,part_3,go,0.0,0.0,0.0,216.0,4.0,270.0,216.0,54.0,324.0,162.0,108.0,white,triangle
0.0,4.0,4.0,0.0,7.0,5.0,2634.4860149838496,4.0,1.0,part_3,go,0.0,0.0,0.0,147.0,3.0,49.0,294.0,245.0,98.0,147.0,196.0,cyan,hexagon
0.0,3.0,3.0,0.0,7.0,2.0,1820.4866060114,4.0,1.0,part_3,go,0.0,0.0,0.0,176.0,4.0,132.0,176.0,264.0,88.0,220.0,44.0,orange,diamond
