raw_reward_magnitude,stim_reward,stepwise_reward_magnitude,paired_with_stopping,stim_location,response,reaction_time,block,num_trial_presentations,which_phase,stop_signal_trial_type,left_SSD,right_SSD,accuracy,chosen_bidding_amount,chosen_bidding_level,possible_bid_1,possible_bid_2,possible_bid_3,possible_bid_4,possible_bid_5,possible_bid_6,color_text,shape_text
210.0,3.0,2.0,0.0,2.0,2.0,381.6464509873185,1.0,1.0,phase_1,,,,,,,,,,,,,magenta,triangle
56.0,5.0,0.5,1.0,2.0,2.0,493.6463920166716,1.0,1.0,phase_1,,,,,,,,,,,,,yellow,flipped triangle
219.0,3.0,2.0,0.0,3.0,3.0,361.7038469819817,1.0,1.0,phase_1,,,,,,,,,,,,,magenta,triangle
102.0,6.0,1.0,1.0,1.0,1.0,308.214062009938,1.0,1.0,phase_1,,,,,,,,,,,,,green,hexagon
52.0,5.0,0.5,1.0,1.0,1.0,352.800118009327,1.0,1.0,phase_1,,,,,,,,,,,,,yellow,flipped triangle
404.0,4.0,4.0,0.0,1.0,1.0,479.5033179980237,1.0,1.0,phase_1,,,,,,,,,,,,,white,I
377.0,4.0,4.0,0.0,4.0,4.0,444.3238860112615,1.0,1.0,phase_1,,,,,,,,,,,,,white,I
0.0,6.0,0.0,1.0,1.0,1.0,377.1470120118465,1.0,1.0,phase_1,,,,,,,,,,,,,green,hexagon
397.0,4.0,4.0,0.0,2.0,2.0,438.0515159864444,1.0,1.0,phase_1,,,,,,,,,,,,,white,I
47.0,5.0,0.5,1.0,1.0,1.0,296.4286970091052,1.0,1.0,phase_1,,,,,,,,,,,,,yellow,flipped triangle
53.0,5.0,0.5,1.0,4.0,4.0,373.1281119980849,1.0,1.0,phase_1,,,,,,,,,,,,,yellow,flipped triangle
197.0,7.0,2.0,1.0,1.0,1.0,468.0407919804565,1.0,1.0,phase_1,,,,,,,,,,,,,orange,square
393.0,4.0,4.0,0.0,2.0,2.0,376.2909140205011,1.0,1.0,phase_1,,,,,,,,,,,,,white,I
399.0,4.0,4.0,0.0,4.0,4.0,436.3361459982116,1.0,1.0,phase_1,,,,,,,,,,,,,white,I
414.0,8.0,4.0,1.0,1.0,1.0,320.4326050181407,1.0,1.0,phase_1,,,,,,,,,,,,,blue,cross
122.0,6.0,1.0,1.0,1.0,1.0,292.0097699970938,1.0,1.0,phase_1,,,,,,,,,,,,,green,hexagon
96.0,6.0,1.0,1.0,2.0,2.0,263.9819179894402,1.0,1.0,phase_1,,,,,,,,,,,,,green,hexagon
0.0,5.0,0.0,1.0,2.0,2.0,372.6812039967626,1.0,1.0,phase_1,,,,,,,,,,,,,yellow,flipped triangle
404.0,8.0,4.0,1.0,4.0,4.0,377.8611200104933,1.0,1.0,phase_1,,,,,,,,,,,,,blue,cross
0.0,2.0,0.0,0.0,4.0,4.0,473.078284994699,1.0,1.0,phase_1,,,,,,,,,,,,,gray,circle
417.0,8.0,4.0,1.0,3.0,3.0,463.2759390224237,1.0,1.0,phase_1,,,,,,,,,,,,,blue,cross
64.0,1.0,0.5,0.0,3.0,3.0,385.0752270082012,1.0,1.0,phase_1,,,,,,,,,,,,,cyan,diamond
386.0,4.0,4.0,0.0,1.0,1.0,446.4653939940035,1.0,1.0,phase_1,,,,,,,,,,,,,white,I
195.0,7.0,2.0,1.0,3.0,3.0,403.0416760069784,1.0,1.0,phase_1,,,,,,,,,,,,,orange,square
190.0,7.0,2.0,1.0,3.0,3.0,480.901316012023,1.0,1.0,phase_1,,,,,,,,,,,,,orange,square
83.0,2.0,1.0,0.0,2.0,2.0,466.2853600166272,1.0,1.0,phase_1,,,,,,,,,,,,,gray,circle
214.0,3.0,2.0,0.0,4.0,4.0,479.9343300110195,1.0,1.0,phase_1,,,,,,,,,,,,,magenta,triangle
195.0,3.0,2.0,0.0,1.0,1.0,575.767705013277,1.0,1.0,phase_1,,,,,,,,,,,,,magenta,triangle
404.0,4.0,4.0,0.0,1.0,1.0,395.0231999915559,1.0,1.0,phase_1,,,,,,,,,,,,,white,I
90.0,6.0,1.0,1.0,2.0,2.0,639.0083440055605,1.0,1.0,phase_1,,,,,,,,,,,,,green,hexagon
205.0,3.0,2.0,0.0,1.0,1.0,475.7182270113844,1.0,1.0,phase_1,,,,,,,,,,,,,magenta,triangle
179.0,3.0,2.0,0.0,2.0,2.0,582.9336860042531,1.0,1.0,phase_1,,,,,,,,,,,,,magenta,triangle
109.0,6.0,1.0,1.0,4.0,4.0,405.162803013809,1.0,1.0,phase_1,,,,,,,,,,,,,green,hexagon
421.0,4.0,4.0,0.0,3.0,3.0,424.2516359954607,1.0,1.0,phase_1,,,,,,,,,,,,,white,I
87.0,6.0,1.0,1.0,1.0,1.0,366.0212529939599,1.0,1.0,phase_1,,,,,,,,,,,,,green,hexagon
185.0,3.0,2.0,0.0,1.0,1.0,459.7220099822152,1.0,1.0,phase_1,,,,,,,,,,,,,magenta,triangle
0.0,6.0,0.0,1.0,4.0,4.0,344.1342970181722,1.0,1.0,phase_1,,,,,,,,,,,,,green,hexagon
85.0,2.0,1.0,0.0,1.0,1.0,371.875780983828,1.0,1.0,phase_1,,,,,,,,,,,,,gray,circle
188.0,7.0,2.0,1.0,2.0,2.0,336.1777070094831,1.0,1.0,phase_1,,,,,,,,,,,,,orange,square
38.0,1.0,0.5,0.0,1.0,1.0,352.0961760077625,1.0,1.0,phase_1,,,,,,,,,,,,,cyan,diamond
177.0,3.0,2.0,0.0,2.0,2.0,450.337544985814,1.0,1.0,phase_1,,,,,,,,,,,,,magenta,triangle
90.0,2.0,1.0,0.0,4.0,4.0,551.7385599960107,1.0,1.0,phase_1,,,,,,,,,,,,,gray,circle
98.0,6.0,1.0,1.0,1.0,1.0,356.7841159820091,1.0,1.0,phase_1,,,,,,,,,,,,,green,hexagon
98.0,6.0,1.0,1.0,4.0,4.0,311.1970050085801,1.0,1.0,phase_1,,,,,,,,,,,,,green,hexagon
0.0,1.0,0.0,0.0,1.0,1.0,371.4258530235383,1.0,1.0,phase_1,,,,,,,,,,,,,cyan,diamond
0.0,5.0,0.0,1.0,2.0,2.0,368.1364529766142,1.0,1.0,phase_1,,,,,,,,,,,,,yellow,flipped triangle
220.0,7.0,2.0,1.0,4.0,4.0,369.1890680056531,1.0,1.0,phase_1,,,,,,,,,,,,,orange,square
0.0,7.0,0.0,1.0,3.0,3.0,365.3030379791744,1.0,1.0,phase_1,,,,,,,,,,,,,orange,square
120.0,2.0,1.0,0.0,3.0,3.0,503.0925069877412,1.0,1.0,phase_1,,,,,,,,,,,,,gray,circle
0.0,8.0,0.0,1.0,4.0,4.0,430.2890390099492,1.0,1.0,phase_1,,,,,,,,,,,,,blue,cross
31.0,1.0,0.5,0.0,2.0,2.0,464.734336012043,1.0,1.0,phase_1,,,,,,,,,,,,,cyan,diamond
220.0,3.0,2.0,0.0,4.0,4.0,349.6500909968745,1.0,1.0,phase_1,,,,,,,,,,,,,magenta,triangle
400.0,4.0,4.0,0.0,2.0,2.0,395.6979050126392,1.0,1.0,phase_1,,,,,,,,,,,,,white,I
177.0,7.0,2.0,1.0,3.0,3.0,368.0659699894022,1.0,1.0,phase_1,,,,,,,,,,,,,orange,square
391.0,8.0,4.0,1.0,4.0,4.0,530.9219630144071,1.0,1.0,phase_1,,,,,,,,,,,,,blue,cross
389.0,8.0,4.0,1.0,1.0,1.0,369.1327139968052,1.0,1.0,phase_1,,,,,,,,,,,,,blue,cross
384.0,4.0,4.0,0.0,1.0,1.0,598.9925600006245,1.0,1.0,phase_1,,,,,,,,,,,,,white,I
0.0,6.0,0.0,1.0,4.0,4.0,521.4554559788667,1.0,1.0,phase_1,,,,,,,,,,,,,green,hexagon
422.0,4.0,4.0,0.0,4.0,4.0,463.538541982416,1.0,1.0,phase_1,,,,,,,,,,,,,white,I
222.0,3.0,2.0,0.0,1.0,1.0,466.1483019881416,1.0,1.0,phase_1,,,,,,,,,,,,,magenta,triangle
123.0,6.0,1.0,1.0,2.0,2.0,442.207487009,1.0,1.0,phase_1,,,,,,,,,,,,,green,hexagon
98.0,2.0,1.0,0.0,4.0,4.0,439.0746839926578,1.0,1.0,phase_1,,,,,,,,,,,,,gray,circle
384.0,8.0,4.0,1.0,2.0,2.0,465.607311023632,1.0,1.0,phase_1,,,,,,,,,,,,,blue,cross
0.0,3.0,0.0,0.0,1.0,1.0,453.2710349885747,1.0,1.0,phase_1,,,,,,,,,,,,,magenta,triangle
0.0,3.0,0.0,0.0,1.0,1.0,466.1871090065688,1.0,1.0,phase_1,,,,,,,,,,,,,magenta,triangle
380.0,4.0,4.0,0.0,3.0,3.0,511.99801298207603,1.0,1.0,phase_1,,,,,,,,,,,,,white,I
0.0,2.0,0.0,0.0,3.0,3.0,466.7904050147626,1.0,1.0,phase_1,,,,,,,,,,,,,gray,circle
100.0,2.0,1.0,0.0,3.0,3.0,626.559978001751,1.0,1.0,phase_1,,,,,,,,,,,,,gray,circle
0.0,4.0,0.0,0.0,1.0,1.0,380.5262759851757,1.0,1.0,phase_1,,,,,,,,,,,,,white,I
58.0,1.0,0.5,0.0,3.0,3.0,603.697607992217,1.0,1.0,phase_1,,,,,,,,,,,,,cyan,diamond
0.0,5.0,0.0,1.0,3.0,3.0,463.2447190233506,1.0,1.0,phase_1,,,,,,,,,,,,,yellow,flipped triangle
223.0,3.0,2.0,0.0,3.0,3.0,458.5763470095116,1.0,1.0,phase_1,,,,,,,,,,,,,magenta,triangle
118.0,2.0,1.0,0.0,1.0,1.0,450.8859410125296,1.0,1.0,phase_1,,,,,,,,,,,,,gray,circle
86.0,2.0,1.0,0.0,2.0,2.0,494.7976070106961,1.0,1.0,phase_1,,,,,,,,,,,,,gray,circle
182.0,7.0,2.0,1.0,3.0,3.0,532.0328900124878,1.0,1.0,phase_1,,,,,,,,,,,,,orange,square
0.0,4.0,0.0,0.0,1.0,1.0,413.4581249963958,1.0,1.0,phase_1,,,,,,,,,,,,,white,I
36.0,1.0,0.5,0.0,1.0,1.0,388.5001059970818,1.0,1.0,phase_1,,,,,,,,,,,,,cyan,diamond
33.0,1.0,0.5,0.0,1.0,1.0,384.8832119838334,1.0,1.0,phase_1,,,,,,,,,,,,,cyan,diamond
0.0,7.0,0.0,1.0,4.0,4.0,381.6591289942153,1.0,1.0,phase_1,,,,,,,,,,,,,orange,square
119.0,6.0,1.0,1.0,3.0,3.0,399.9251940113026,1.0,1.0,phase_1,,,,,,,,,,,,,green,hexagon
394.0,4.0,4.0,0.0,1.0,1.0,341.0391159995924,1.0,1.0,phase_1,,,,,,,,,,,,,white,I
0.0,1.0,0.0,0.0,3.0,3.0,339.2470740072895,1.0,1.0,phase_1,,,,,,,,,,,,,cyan,diamond
193.0,3.0,2.0,0.0,2.0,2.0,421.5493169904221,1.0,1.0,phase_1,,,,,,,,,,,,,magenta,triangle
70.0,1.0,0.5,0.0,3.0,3.0,453.0298069876153,1.0,1.0,phase_1,,,,,,,,,,,,,cyan,diamond
223.0,7.0,2.0,1.0,1.0,1.0,385.3489730099682,1.0,1.0,phase_1,,,,,,,,,,,,,orange,square
45.0,5.0,0.5,1.0,4.0,4.0,428.4742170129902,1.0,1.0,phase_1,,,,,,,,,,,,,yellow,flipped triangle
182.0,3.0,2.0,0.0,4.0,4.0,676.1523669993039,1.0,1.0,phase_1,,,,,,,,,,,,,magenta,triangle
0.0,4.0,0.0,0.0,2.0,2.0,520.3604270063806,1.0,1.0,phase_1,,,,,,,,,,,,,white,I
91.0,2.0,1.0,0.0,1.0,1.0,564.9971479724627,1.0,1.0,phase_1,,,,,,,,,,,,,gray,circle
221.0,7.0,2.0,1.0,2.0,2.0,439.1108790005091,1.0,1.0,phase_1,,,,,,,,,,,,,orange,square
0.0,8.0,0.0,1.0,2.0,2.0,420.6164850038476,1.0,1.0,phase_1,,,,,,,,,,,,,blue,cross
43.0,5.0,0.5,1.0,4.0,4.0,762.5411650224123,1.0,1.0,phase_1,,,,,,,,,,,,,yellow,flipped triangle
417.0,4.0,4.0,0.0,4.0,4.0,678.8415839837398,1.0,1.0,phase_1,,,,,,,,,,,,,white,I
192.0,7.0,2.0,1.0,3.0,3.0,641.6302330035251,1.0,1.0,phase_1,,,,,,,,,,,,,orange,square
41.0,5.0,0.5,1.0,1.0,1.0,417.6769309851806,1.0,1.0,phase_1,,,,,,,,,,,,,yellow,flipped triangle
83.0,6.0,1.0,1.0,3.0,3.0,412.7390339854173,1.0,1.0,phase_1,,,,,,,,,,,,,green,hexagon
381.0,4.0,4.0,0.0,4.0,4.0,511.7285489977803,1.0,1.0,phase_1,,,,,,,,,,,,,white,I
69.0,1.0,0.5,0.0,4.0,4.0,438.9452539908234,1.0,1.0,phase_1,,,,,,,,,,,,,cyan,diamond
188.0,3.0,2.0,0.0,3.0,3.0,449.2962709919084,1.0,1.0,phase_1,,,,,,,,,,,,,magenta,triangle
182.0,7.0,2.0,1.0,1.0,1.0,529.3321619974449,1.0,1.0,phase_1,,,,,,,,,,,,,orange,square
184.0,7.0,2.0,1.0,2.0,2.0,387.7074519987218,2.0,1.0,phase_1,,,,,,,,,,,,,orange,square
75.0,6.0,1.0,1.0,3.0,3.0,384.5212490123231,2.0,1.0,phase_1,,,,,,,,,,,,,green,hexagon
192.0,7.0,2.0,1.0,3.0,3.0,412.9789129947312,2.0,1.0,phase_1,,,,,,,,,,,,,orange,square
424.0,4.0,4.0,0.0,4.0,4.0,531.1664210166782,2.0,1.0,phase_1,,,,,,,,,,,,,white,I
0.0,1.0,0.0,0.0,1.0,1.0,478.3793420065194,2.0,1.0,phase_1,,,,,,,,,,,,,cyan,diamond
0.0,6.0,0.0,1.0,4.0,4.0,428.7789709924254,2.0,1.0,phase_1,,,,,,,,,,,,,green,hexagon
0.0,2.0,0.0,0.0,1.0,1.0,408.6582079762593,2.0,1.0,phase_1,,,,,,,,,,,,,gray,circle
182.0,3.0,2.0,0.0,3.0,3.0,622.4621660076082,2.0,1.0,phase_1,,,,,,,,,,,,,magenta,triangle
385.0,4.0,4.0,0.0,3.0,3.0,445.5111319839488,2.0,1.0,phase_1,,,,,,,,,,,,,white,I
0.0,4.0,0.0,0.0,4.0,4.0,493.9313679933548,2.0,1.0,phase_1,,,,,,,,,,,,,white,I
33.0,5.0,0.5,1.0,4.0,4.0,491.5485349774826,2.0,2.0,phase_1,,,,,,,,,,,,,yellow,flipped triangle
122.0,2.0,1.0,0.0,1.0,1.0,494.6243389858864,2.0,1.0,phase_1,,,,,,,,,,,,,gray,circle
0.0,2.0,0.0,0.0,4.0,4.0,492.3771939938888,2.0,1.0,phase_1,,,,,,,,,,,,,gray,circle
55.0,1.0,0.5,0.0,1.0,1.0,437.6331869862042,2.0,1.0,phase_1,,,,,,,,,,,,,cyan,diamond
214.0,7.0,2.0,1.0,4.0,4.0,597.3342130018864,2.0,1.0,phase_1,,,,,,,,,,,,,orange,square
0.0,5.0,0.0,1.0,2.0,2.0,433.7093080102931,2.0,1.0,phase_1,,,,,,,,,,,,,yellow,flipped triangle
200.0,3.0,2.0,0.0,3.0,3.0,539.6624480199534,2.0,1.0,phase_1,,,,,,,,,,,,,magenta,triangle
0.0,1.0,0.0,0.0,1.0,1.0,482.1984540030826,2.0,1.0,phase_1,,,,,,,,,,,,,cyan,diamond
397.0,8.0,4.0,1.0,2.0,2.0,380.5737700022291,2.0,1.0,phase_1,,,,,,,,,,,,,blue,cross
400.0,8.0,4.0,1.0,2.0,2.0,557.0301219995599,2.0,1.0,phase_1,,,,,,,,,,,,,blue,cross
73.0,1.0,0.5,0.0,1.0,1.0,478.8612559786998,2.0,1.0,phase_1,,,,,,,,,,,,,cyan,diamond
0.0,4.0,0.0,0.0,3.0,3.0,581.2283190025482,2.0,1.0,phase_1,,,,,,,,,,,,,white,I
0.0,6.0,0.0,1.0,2.0,2.0,473.0394820217043,2.0,1.0,phase_1,,,,,,,,,,,,,green,hexagon
420.0,8.0,4.0,1.0,2.0,2.0,388.9397680177353,2.0,1.0,phase_1,,,,,,,,,,,,,blue,cross
69.0,5.0,0.5,1.0,3.0,3.0,397.2244930046145,2.0,1.0,phase_1,,,,,,,,,,,,,yellow,flipped triangle
122.0,2.0,1.0,0.0,3.0,3.0,989.412998984335,2.0,1.0,phase_1,,,,,,,,,,,,,gray,circle
113.0,6.0,1.0,1.0,2.0,2.0,453.4152749984059,2.0,1.0,phase_1,,,,,,,,,,,,,green,hexagon
407.0,4.0,4.0,0.0,3.0,3.0,495.7008739875164,2.0,1.0,phase_1,,,,,,,,,,,,,white,I
200.0,7.0,2.0,1.0,4.0,4.0,531.6987190162763,2.0,1.0,phase_1,,,,,,,,,,,,,orange,square
123.0,2.0,1.0,0.0,2.0,2.0,480.9286520176101,2.0,1.0,phase_1,,,,,,,,,,,,,gray,circle
100.0,6.0,1.0,1.0,1.0,1.0,405.7240560068749,2.0,1.0,phase_1,,,,,,,,,,,,,green,hexagon
421.0,8.0,4.0,1.0,4.0,4.0,633.71608700254,2.0,1.0,phase_1,,,,,,,,,,,,,blue,cross
55.0,1.0,0.5,0.0,3.0,3.0,479.5898199954536,2.0,1.0,phase_1,,,,,,,,,,,,,cyan,diamond
198.0,3.0,2.0,0.0,1.0,1.0,427.4464850022923,2.0,1.0,phase_1,,,,,,,,,,,,,magenta,triangle
0.0,4.0,0.0,0.0,2.0,2.0,464.4219340116251,2.0,1.0,phase_1,,,,,,,,,,,,,white,I
208.0,3.0,2.0,0.0,4.0,4.0,655.4598389775492,2.0,1.0,phase_1,,,,,,,,,,,,,magenta,triangle
70.0,5.0,0.5,1.0,3.0,3.0,409.6143720089458,2.0,1.0,phase_1,,,,,,,,,,,,,yellow,flipped triangle
0.0,7.0,0.0,1.0,4.0,4.0,408.8130140153225,2.0,1.0,phase_1,,,,,,,,,,,,,orange,square
187.0,3.0,2.0,0.0,2.0,2.0,450.1062610070221,2.0,1.0,phase_1,,,,,,,,,,,,,magenta,triangle
221.0,3.0,2.0,0.0,4.0,4.0,499.132691998966,2.0,1.0,phase_1,,,,,,,,,,,,,magenta,triangle
0.0,2.0,0.0,0.0,1.0,1.0,516.5665950044058,2.0,1.0,phase_1,,,,,,,,,,,,,gray,circle
111.0,6.0,1.0,1.0,3.0,3.0,761.0391449998133,2.0,1.0,phase_1,,,,,,,,,,,,,green,hexagon
122.0,6.0,1.0,1.0,4.0,4.0,470.0821680016815,2.0,1.0,phase_1,,,,,,,,,,,,,green,hexagon
0.0,5.0,0.0,1.0,2.0,2.0,602.007573004812,2.0,1.0,phase_1,,,,,,,,,,,,,yellow,flipped triangle
111.0,2.0,1.0,0.0,2.0,2.0,649.582720012404,2.0,1.0,phase_1,,,,,,,,,,,,,gray,circle
94.0,2.0,1.0,0.0,3.0,3.0,463.6365820188075,2.0,1.0,phase_1,,,,,,,,,,,,,gray,circle
386.0,8.0,4.0,1.0,1.0,1.0,345.5275029991753,2.0,1.0,phase_1,,,,,,,,,,,,,blue,cross
399.0,8.0,4.0,1.0,1.0,1.0,614.9715509964153,2.0,1.0,phase_1,,,,,,,,,,,,,blue,cross
214.0,7.0,2.0,1.0,3.0,3.0,617.975038010627,2.0,1.0,phase_1,,,,,,,,,,,,,orange,square
108.0,2.0,1.0,0.0,4.0,4.0,848.113607004052,2.0,1.0,phase_1,,,,,,,,,,,,,gray,circle
0.0,6.0,0.0,1.0,1.0,1.0,446.6787360142916,2.0,1.0,phase_1,,,,,,,,,,,,,green,hexagon
0.0,1.0,0.0,0.0,4.0,4.0,535.6974790047389,2.0,1.0,phase_1,,,,,,,,,,,,,cyan,diamond
43.0,1.0,0.5,0.0,1.0,1.0,516.3921900093555,2.0,1.0,phase_1,,,,,,,,,,,,,cyan,diamond
222.0,7.0,2.0,1.0,4.0,4.0,448.6396040010731,2.0,1.0,phase_1,,,,,,,,,,,,,orange,square
198.0,7.0,2.0,1.0,2.0,2.0,472.0435829949565,2.0,1.0,phase_1,,,,,,,,,,,,,orange,square
32.0,1.0,0.5,0.0,2.0,2.0,638.1382330146153,2.0,1.0,phase_1,,,,,,,,,,,,,cyan,diamond
118.0,6.0,1.0,1.0,2.0,2.0,473.4070859849453,2.0,1.0,phase_1,,,,,,,,,,,,,green,hexagon
385.0,8.0,4.0,1.0,4.0,4.0,495.6197059946134,2.0,1.0,phase_1,,,,,,,,,,,,,blue,cross
191.0,3.0,2.0,0.0,4.0,4.0,521.1739760125056,2.0,1.0,phase_1,,,,,,,,,,,,,magenta,triangle
0.0,6.0,0.0,1.0,2.0,2.0,588.9344080060255,2.0,1.0,phase_1,,,,,,,,,,,,,green,hexagon
210.0,3.0,2.0,0.0,1.0,1.0,357.5477300037164,2.0,1.0,phase_1,,,,,,,,,,,,,magenta,triangle
375.0,4.0,4.0,0.0,2.0,2.0,489.2120309814345,2.0,1.0,phase_1,,,,,,,,,,,,,white,I
0.0,8.0,0.0,1.0,4.0,4.0,547.9179609974381,2.0,1.0,phase_1,,,,,,,,,,,,,blue,cross
103.0,2.0,1.0,0.0,3.0,3.0,751.6249030013569,2.0,1.0,phase_1,,,,,,,,,,,,,gray,circle
0.0,8.0,0.0,1.0,2.0,2.0,566.2016040005255,2.0,1.0,phase_1,,,,,,,,,,,,,blue,cross
0.0,1.0,0.0,0.0,2.0,2.0,539.7934500069823,2.0,1.0,phase_1,,,,,,,,,,,,,cyan,diamond
90.0,6.0,1.0,1.0,3.0,3.0,421.9498099992051,2.0,1.0,phase_1,,,,,,,,,,,,,green,hexagon
0.0,2.0,0.0,0.0,3.0,3.0,490.6257499824278,2.0,1.0,phase_1,,,,,,,,,,,,,gray,circle
59.0,1.0,0.5,0.0,1.0,1.0,368.9826549962163,2.0,1.0,phase_1,,,,,,,,,,,,,cyan,diamond
83.0,6.0,1.0,1.0,3.0,3.0,430.2208449807949,2.0,1.0,phase_1,,,,,,,,,,,,,green,hexagon
393.0,8.0,4.0,1.0,1.0,1.0,520.3839510213584,2.0,1.0,phase_1,,,,,,,,,,,,,blue,cross
90.0,6.0,1.0,1.0,2.0,2.0,630.2971550030634,2.0,1.0,phase_1,,,,,,,,,,,,,green,hexagon
0.0,7.0,0.0,1.0,2.0,2.0,873.7214849970769,2.0,1.0,phase_1,,,,,,,,,,,,,orange,square
0.0,4.0,0.0,0.0,2.0,2.0,446.5554250054993,2.0,2.0,phase_1,,,,,,,,,,,,,white,I
0.0,1.0,0.0,0.0,1.0,1.0,465.8376610022969,2.0,1.0,phase_1,,,,,,,,,,,,,cyan,diamond
219.0,3.0,2.0,0.0,1.0,1.0,421.5077239787206,2.0,1.0,phase_1,,,,,,,,,,,,,magenta,triangle
210.0,7.0,2.0,1.0,2.0,2.0,435.35551300738,2.0,1.0,phase_1,,,,,,,,,,,,,orange,square
110.0,6.0,1.0,1.0,3.0,3.0,408.2250230130739,2.0,1.0,phase_1,,,,,,,,,,,,,green,hexagon
110.0,2.0,1.0,0.0,2.0,2.0,462.4550299777183,2.0,1.0,phase_1,,,,,,,,,,,,,gray,circle
0.0,1.0,0.0,0.0,2.0,2.0,527.3141720099375,2.0,1.0,phase_1,,,,,,,,,,,,,cyan,diamond
75.0,2.0,1.0,0.0,4.0,4.0,464.6849449782166,2.0,1.0,phase_1,,,,,,,,,,,,,gray,circle
187.0,7.0,2.0,1.0,2.0,2.0,515.9875190001912,2.0,1.0,phase_1,,,,,,,,,,,,,orange,square
36.0,1.0,0.5,0.0,2.0,2.0,606.6745529824402,2.0,1.0,phase_1,,,,,,,,,,,,,cyan,diamond
0.0,8.0,0.0,1.0,1.0,1.0,450.3347029967699,2.0,1.0,phase_1,,,,,,,,,,,,,blue,cross
393.0,4.0,4.0,0.0,4.0,4.0,426.5155519824475,2.0,1.0,phase_1,,,,,,,,,,,,,white,I
209.0,3.0,2.0,0.0,4.0,4.0,491.4692410093266,2.0,1.0,phase_1,,,,,,,,,,,,,magenta,triangle
0.0,3.0,0.0,0.0,4.0,4.0,450.5605080048553,2.0,1.0,phase_1,,,,,,,,,,,,,magenta,triangle
67.0,5.0,0.5,1.0,2.0,2.0,471.6522469825577,2.0,1.0,phase_1,,,,,,,,,,,,,yellow,flipped triangle
56.0,1.0,0.5,0.0,4.0,4.0,427.2500110091641,2.0,1.0,phase_1,,,,,,,,,,,,,cyan,diamond
36.0,5.0,0.5,1.0,3.0,3.0,422.1082039875909,2.0,1.0,phase_1,,,,,,,,,,,,,yellow,flipped triangle
393.0,8.0,4.0,1.0,3.0,3.0,427.4525750079192,2.0,1.0,phase_1,,,,,,,,,,,,,blue,cross
67.0,1.0,0.5,0.0,1.0,1.0,490.7026540022343,2.0,1.0,phase_1,,,,,,,,,,,,,cyan,diamond
0.0,2.0,0.0,0.0,3.0,3.0,577.2726580034941,2.0,2.0,phase_1,,,,,,,,,,,,,gray,circle
411.0,8.0,4.0,1.0,3.0,3.0,425.9725930169225,2.0,1.0,phase_1,,,,,,,,,,,,,blue,cross
102.0,2.0,1.0,0.0,1.0,1.0,486.4036170183681,2.0,1.0,phase_1,,,,,,,,,,,,,gray,circle
119.0,6.0,1.0,1.0,4.0,4.0,447.038454003632,2.0,1.0,phase_1,,,,,,,,,,,,,green,hexagon
201.0,7.0,2.0,1.0,3.0,3.0,427.6927059981972,2.0,1.0,phase_1,,,,,,,,,,,,,orange,square
31.0,5.0,0.5,1.0,2.0,2.0,650.7674310123548,2.0,1.0,phase_1,,,,,,,,,,,,,yellow,flipped triangle
59.0,5.0,0.5,1.0,1.0,1.0,462.9864830058068,2.0,1.0,phase_1,,,,,,,,,,,,,yellow,flipped triangle
85.0,6.0,1.0,1.0,2.0,2.0,436.4779150055256,2.0,1.0,phase_1,,,,,,,,,,,,,green,hexagon
0.0,1.0,0.0,0.0,4.0,4.0,471.9915400200989,3.0,1.0,phase_1,,,,,,,,,,,,,cyan,diamond
404.0,4.0,4.0,0.0,1.0,1.0,355.4830839857459,3.0,1.0,phase_1,,,,,,,,,,,,,white,I
192.0,3.0,2.0,0.0,1.0,1.0,414.2002680164296,3.0,1.0,phase_1,,,,,,,,,,,,,magenta,triangle
50.0,1.0,0.5,0.0,4.0,4.0,420.3252909937873,3.0,1.0,phase_1,,,,,,,,,,,,,cyan,diamond
0.0,5.0,0.0,1.0,1.0,1.0,440.8908970071934,3.0,1.0,phase_1,,,,,,,,,,,,,yellow,flipped triangle
102.0,2.0,1.0,0.0,2.0,2.0,355.7360190025065,3.0,1.0,phase_1,,,,,,,,,,,,,gray,circle
79.0,6.0,1.0,1.0,4.0,4.0,385.4853929951787,3.0,1.0,phase_1,,,,,,,,,,,,,green,hexagon
407.0,4.0,4.0,0.0,2.0,2.0,376.5974839916453,3.0,1.0,phase_1,,,,,,,,,,,,,white,I
45.0,1.0,0.5,0.0,4.0,4.0,532.4125250044744,3.0,1.0,phase_1,,,,,,,,,,,,,cyan,diamond
389.0,4.0,4.0,0.0,2.0,2.0,434.3697720032651,3.0,1.0,phase_1,,,,,,,,,,,,,white,I
70.0,1.0,0.5,0.0,4.0,4.0,590.7552299904637,3.0,1.0,phase_1,,,,,,,,,,,,,cyan,diamond
90.0,2.0,1.0,0.0,2.0,2.0,546.8992030073423,3.0,1.0,phase_1,,,,,,,,,,,,,gray,circle
0.0,5.0,0.0,1.0,1.0,1.0,469.1924560174811,3.0,1.0,phase_1,,,,,,,,,,,,,yellow,flipped triangle
188.0,7.0,2.0,1.0,2.0,2.0,450.6555119878612,3.0,1.0,phase_1,,,,,,,,,,,,,orange,square
65.0,1.0,0.5,0.0,4.0,4.0,678.25515702134,3.0,1.0,phase_1,,,,,,,,,,,,,cyan,diamond
0.0,4.0,0.0,0.0,1.0,1.0,437.4098569969646,3.0,1.0,phase_1,,,,,,,,,,,,,white,I
59.0,1.0,0.5,0.0,3.0,3.0,448.4434089972637,3.0,1.0,phase_1,,,,,,,,,,,,,cyan,diamond
28.0,1.0,0.5,0.0,4.0,4.0,589.4666609819978,3.0,1.0,phase_1,,,,,,,,,,,,,cyan,diamond
421.0,4.0,4.0,0.0,3.0,3.0,444.0292979998048,3.0,1.0,phase_1,,,,,,,,,,,,,white,I
53.0,1.0,0.5,0.0,3.0,3.0,493.84780600667,3.0,1.0,phase_1,,,,,,,,,,,,,cyan,diamond
0.0,2.0,0.0,0.0,1.0,1.0,411.8584730022121,3.0,1.0,phase_1,,,,,,,,,,,,,gray,circle
209.0,7.0,2.0,1.0,3.0,3.0,503.22364299790934,3.0,1.0,phase_1,,,,,,,,,,,,,orange,square
47.0,5.0,0.5,1.0,3.0,3.0,446.6751590080093,3.0,1.0,phase_1,,,,,,,,,,,,,yellow,flipped triangle
0.0,8.0,0.0,1.0,1.0,1.0,409.9680740037001,3.0,1.0,phase_1,,,,,,,,,,,,,blue,cross
193.0,7.0,2.0,1.0,1.0,1.0,463.6409470112994,3.0,1.0,phase_1,,,,,,,,,,,,,orange,square
0.0,3.0,0.0,0.0,1.0,1.0,355.1666169951204,3.0,1.0,phase_1,,,,,,,,,,,,,magenta,triangle
205.0,7.0,2.0,1.0,1.0,1.0,401.5958399977535,3.0,1.0,phase_1,,,,,,,,,,,,,orange,square
47.0,1.0,0.5,0.0,2.0,2.0,446.9736259779893,3.0,1.0,phase_1,,,,,,,,,,,,,cyan,diamond
0.0,5.0,0.0,1.0,4.0,4.0,593.616780010052,3.0,1.0,phase_1,,,,,,,,,,,,,yellow,flipped triangle
86.0,6.0,1.0,1.0,1.0,1.0,406.5967929782346,3.0,1.0,phase_1,,,,,,,,,,,,,green,hexagon
184.0,3.0,2.0,0.0,2.0,2.0,413.13048399752,3.0,1.0,phase_1,,,,,,,,,,,,,magenta,triangle
375.0,4.0,4.0,0.0,3.0,3.0,470.544237003196,3.0,1.0,phase_1,,,,,,,,,,,,,white,I
38.0,5.0,0.5,1.0,4.0,4.0,556.384978001006,3.0,1.0,phase_1,,,,,,,,,,,,,yellow,flipped triangle
188.0,3.0,2.0,0.0,3.0,3.0,736.7134340165649,3.0,1.0,phase_1,,,,,,,,,,,,,magenta,triangle
420.0,4.0,4.0,0.0,1.0,1.0,518.9994749962352,3.0,1.0,phase_1,,,,,,,,,,,,,white,I
192.0,3.0,2.0,0.0,4.0,4.0,499.2763930058572,3.0,1.0,phase_1,,,,,,,,,,,,,magenta,triangle
118.0,6.0,1.0,1.0,3.0,3.0,447.2122779989149,3.0,1.0,phase_1,,,,,,,,,,,,,green,hexagon
421.0,8.0,4.0,1.0,3.0,3.0,489.9680300150066,3.0,1.0,phase_1,,,,,,,,,,,,,blue,cross
204.0,7.0,2.0,1.0,1.0,1.0,409.3986059888266,3.0,1.0,phase_1,,,,,,,,,,,,,orange,square
0.0,8.0,0.0,1.0,2.0,2.0,326.7028930131346,3.0,1.0,phase_1,,,,,,,,,,,,,blue,cross
214.0,3.0,2.0,0.0,2.0,2.0,472.0339839986991,3.0,1.0,phase_1,,,,,,,,,,,,,magenta,triangle
380.0,8.0,4.0,1.0,4.0,4.0,503.50856001023203,3.0,1.0,phase_1,,,,,,,,,,,,,blue,cross
36.0,5.0,0.5,1.0,2.0,2.0,547.3946020065341,3.0,1.0,phase_1,,,,,,,,,,,,,yellow,flipped triangle
82.0,6.0,1.0,1.0,4.0,4.0,397.2844879899639,3.0,2.0,phase_1,,,,,,,,,,,,,green,hexagon
83.0,2.0,1.0,0.0,4.0,4.0,434.8924759833608,3.0,1.0,phase_1,,,,,,,,,,,,,gray,circle
70.0,5.0,0.5,1.0,1.0,1.0,536.0813909792341,3.0,1.0,phase_1,,,,,,,,,,,,,yellow,flipped triangle
386.0,8.0,4.0,1.0,1.0,1.0,401.4767899934668,3.0,1.0,phase_1,,,,,,,,,,,,,blue,cross
0.0,3.0,0.0,0.0,3.0,3.0,505.23209798848256,3.0,1.0,phase_1,,,,,,,,,,,,,magenta,triangle
30.0,5.0,0.5,1.0,3.0,3.0,498.7207209924236,3.0,1.0,phase_1,,,,,,,,,,,,,yellow,flipped triangle
0.0,5.0,0.0,1.0,4.0,4.0,512.4742240004707,3.0,1.0,phase_1,,,,,,,,,,,,,yellow,flipped triangle
409.0,4.0,4.0,0.0,2.0,2.0,787.7305040019564,3.0,1.0,phase_1,,,,,,,,,,,,,white,I
201.0,3.0,2.0,0.0,1.0,1.0,418.2924699853174,3.0,1.0,phase_1,,,,,,,,,,,,,magenta,triangle
96.0,2.0,1.0,0.0,3.0,3.0,384.7049019823316,3.0,1.0,phase_1,,,,,,,,,,,,,gray,circle
0.0,7.0,0.0,1.0,4.0,4.0,327.8876689728349,3.0,2.0,phase_1,,,,,,,,,,,,,orange,square
400.0,4.0,4.0,0.0,3.0,3.0,421.6553219885099,3.0,1.0,phase_1,,,,,,,,,,,,,white,I
0.0,8.0,0.0,1.0,4.0,4.0,450.3565859922673,3.0,1.0,phase_1,,,,,,,,,,,,,blue,cross
416.0,4.0,4.0,0.0,1.0,1.0,422.4470619810745,3.0,1.0,phase_1,,,,,,,,,,,,,white,I
375.0,8.0,4.0,1.0,3.0,3.0,442.3405279812868,3.0,1.0,phase_1,,,,,,,,,,,,,blue,cross
70.0,5.0,0.5,1.0,2.0,2.0,504.35295500210486,3.0,1.0,phase_1,,,,,,,,,,,,,yellow,flipped triangle
0.0,1.0,0.0,0.0,2.0,2.0,571.3812790054362,3.0,1.0,phase_1,,,,,,,,,,,,,cyan,diamond
90.0,2.0,1.0,0.0,2.0,2.0,450.2838129992597,3.0,1.0,phase_1,,,,,,,,,,,,,gray,circle
214.0,7.0,2.0,1.0,1.0,1.0,620.0247200031299,3.0,1.0,phase_1,,,,,,,,,,,,,orange,square
196.0,7.0,2.0,1.0,1.0,1.0,442.6073960203212,3.0,1.0,phase_1,,,,,,,,,,,,,orange,square
396.0,4.0,4.0,0.0,3.0,3.0,446.9457319937646,3.0,1.0,phase_1,,,,,,,,,,,,,white,I
400.0,8.0,4.0,1.0,1.0,1.0,396.9302169862203,3.0,1.0,phase_1,,,,,,,,,,,,,blue,cross
214.0,3.0,2.0,0.0,3.0,3.0,398.7135739880614,3.0,1.0,phase_1,,,,,,,,,,,,,magenta,triangle
29.0,1.0,0.5,0.0,2.0,2.0,450.9045019804034,3.0,1.0,phase_1,,,,,,,,,,,,,cyan,diamond
375.0,8.0,4.0,1.0,4.0,4.0,426.1080529831815,3.0,1.0,phase_1,,,,,,,,,,,,,blue,cross
0.0,4.0,0.0,0.0,3.0,3.0,384.0913529857062,3.0,1.0,phase_1,,,,,,,,,,,,,white,I
32.0,5.0,0.5,1.0,1.0,1.0,323.6185470013879,3.0,1.0,phase_1,,,,,,,,,,,,,yellow,flipped triangle
94.0,6.0,1.0,1.0,2.0,2.0,454.3196829908993,3.0,1.0,phase_1,,,,,,,,,,,,,green,hexagon
50.0,5.0,0.5,1.0,2.0,2.0,891.74853899749,3.0,1.0,phase_1,,,,,,,,,,,,,yellow,flipped triangle
105.0,2.0,1.0,0.0,4.0,4.0,919.919170992216,3.0,2.0,phase_1,,,,,,,,,,,,,gray,circle
52.0,1.0,0.5,0.0,4.0,4.0,452.2168340045027,3.0,1.0,phase_1,,,,,,,,,,,,,cyan,diamond
119.0,2.0,1.0,0.0,1.0,1.0,663.9316689979751,3.0,1.0,phase_1,,,,,,,,,,,,,gray,circle
87.0,2.0,1.0,0.0,1.0,1.0,620.3248929814436,3.0,1.0,phase_1,,,,,,,,,,,,,gray,circle
0.0,7.0,0.0,1.0,1.0,1.0,606.8855009798426,3.0,1.0,phase_1,,,,,,,,,,,,,orange,square
407.0,8.0,4.0,1.0,4.0,4.0,787.3681650089566,3.0,1.0,phase_1,,,,,,,,,,,,,blue,cross
188.0,3.0,2.0,0.0,3.0,3.0,488.4796910046134,3.0,1.0,phase_1,,,,,,,,,,,,,magenta,triangle
204.0,3.0,2.0,0.0,2.0,2.0,372.6618379878346,3.0,1.0,phase_1,,,,,,,,,,,,,magenta,triangle
218.0,3.0,2.0,0.0,1.0,1.0,379.1163060232065,3.0,1.0,phase_1,,,,,,,,,,,,,magenta,triangle
0.0,3.0,0.0,0.0,4.0,4.0,394.38073799829,3.0,1.0,phase_1,,,,,,,,,,,,,magenta,triangle
190.0,3.0,2.0,0.0,4.0,4.0,405.0486820051446,3.0,1.0,phase_1,,,,,,,,,,,,,magenta,triangle
394.0,8.0,4.0,1.0,2.0,2.0,385.7264980033505,3.0,1.0,phase_1,,,,,,,,,,,,,blue,cross
414.0,4.0,4.0,0.0,3.0,3.0,398.5894030192867,3.0,1.0,phase_1,,,,,,,,,,,,,white,I
0.0,7.0,0.0,1.0,3.0,3.0,361.2139110045973,3.0,1.0,phase_1,,,,,,,,,,,,,orange,square
55.0,5.0,0.5,1.0,2.0,2.0,430.0520379911177,3.0,1.0,phase_1,,,,,,,,,,,,,yellow,flipped triangle
81.0,2.0,1.0,0.0,4.0,4.0,434.6385970129631,3.0,1.0,phase_1,,,,,,,,,,,,,gray,circle
375.0,8.0,4.0,1.0,3.0,3.0,519.9923169857357,3.0,1.0,phase_1,,,,,,,,,,,,,blue,cross
37.0,1.0,0.5,0.0,1.0,1.0,381.0129160119686,3.0,1.0,phase_1,,,,,,,,,,,,,cyan,diamond
28.0,5.0,0.5,1.0,1.0,1.0,402.104259992484,3.0,1.0,phase_1,,,,,,,,,,,,,yellow,flipped triangle
402.0,4.0,4.0,0.0,1.0,1.0,414.9740060092881,3.0,1.0,phase_1,,,,,,,,,,,,,white,I
396.0,8.0,4.0,1.0,4.0,4.0,579.8382320208475,3.0,1.0,phase_1,,,,,,,,,,,,,blue,cross
103.0,2.0,1.0,0.0,4.0,4.0,447.1003009821288,3.0,1.0,phase_1,,,,,,,,,,,,,gray,circle
44.0,1.0,0.5,0.0,2.0,2.0,500.8557339897379,3.0,1.0,phase_1,,,,,,,,,,,,,cyan,diamond
0.0,3.0,0.0,0.0,2.0,2.0,443.270048010163,3.0,1.0,phase_1,,,,,,,,,,,,,magenta,triangle
103.0,6.0,1.0,1.0,2.0,2.0,431.5815530135296,3.0,1.0,phase_1,,,,,,,,,,,,,green,hexagon
78.0,2.0,1.0,0.0,3.0,3.0,834.1550949844532,3.0,1.0,phase_1,,,,,,,,,,,,,gray,circle
44.0,5.0,0.5,1.0,4.0,4.0,457.5472910073586,3.0,1.0,phase_1,,,,,,,,,,,,,yellow,flipped triangle
124.0,2.0,1.0,0.0,4.0,4.0,402.8083609882742,3.0,1.0,phase_1,,,,,,,,,,,,,gray,circle
0.0,5.0,0.0,1.0,2.0,2.0,553.0672649911139,4.0,1.0,phase_1,,,,,,,,,,,,,yellow,flipped triangle
49.0,5.0,0.5,1.0,3.0,3.0,421.7417709878646,4.0,1.0,phase_1,,,,,,,,,,,,,yellow,flipped triangle
58.0,5.0,0.5,1.0,2.0,2.0,395.3561729867942,4.0,1.0,phase_1,,,,,,,,,,,,,yellow,flipped triangle
91.0,6.0,1.0,1.0,2.0,2.0,310.8082349936012,4.0,3.0,phase_1,,,,,,,,,,,,,green,hexagon
0.0,8.0,0.0,1.0,4.0,4.0,597.4594199797139,4.0,1.0,phase_1,,,,,,,,,,,,,blue,cross
30.0,1.0,0.5,0.0,3.0,3.0,418.0139479867648,4.0,1.0,phase_1,,,,,,,,,,,,,cyan,diamond
414.0,4.0,4.0,0.0,4.0,4.0,589.8258009983692,4.0,1.0,phase_1,,,,,,,,,,,,,white,I
381.0,8.0,4.0,1.0,2.0,2.0,553.9734500052873,4.0,1.0,phase_1,,,,,,,,,,,,,blue,cross
59.0,5.0,0.5,1.0,4.0,4.0,512.5103689788375,4.0,1.0,phase_1,,,,,,,,,,,,,yellow,flipped triangle
182.0,7.0,2.0,1.0,2.0,2.0,363.9820530079305,4.0,1.0,phase_1,,,,,,,,,,,,,orange,square
375.0,4.0,4.0,0.0,2.0,2.0,382.2132640052587,4.0,1.0,phase_1,,,,,,,,,,,,,white,I
118.0,2.0,1.0,0.0,4.0,4.0,459.4951549952384,4.0,1.0,phase_1,,,,,,,,,,,,,gray,circle
37.0,5.0,0.5,1.0,3.0,3.0,473.2589810155332,4.0,1.0,phase_1,,,,,,,,,,,,,yellow,flipped triangle
196.0,3.0,2.0,0.0,2.0,2.0,407.6143749989569,4.0,1.0,phase_1,,,,,,,,,,,,,magenta,triangle
0.0,6.0,0.0,1.0,1.0,1.0,347.7153709973208,4.0,1.0,phase_1,,,,,,,,,,,,,green,hexagon
105.0,6.0,1.0,1.0,4.0,4.0,421.8079959973693,4.0,1.0,phase_1,,,,,,,,,,,,,green,hexagon
65.0,1.0,0.5,0.0,3.0,3.0,373.6720419838093,4.0,1.0,phase_1,,,,,,,,,,,,,cyan,diamond
98.0,2.0,1.0,0.0,3.0,3.0,498.5569919808768,4.0,1.0,phase_1,,,,,,,,,,,,,gray,circle
0.0,3.0,0.0,0.0,3.0,3.0,531.9511269917712,4.0,1.0,phase_1,,,,,,,,,,,,,magenta,triangle
0.0,3.0,0.0,0.0,4.0,4.0,432.8122290025931,4.0,1.0,phase_1,,,,,,,,,,,,,magenta,triangle
0.0,3.0,0.0,0.0,3.0,3.0,589.3463430111296,4.0,1.0,phase_1,,,,,,,,,,,,,magenta,triangle
188.0,7.0,2.0,1.0,4.0,4.0,491.1619149788748,4.0,1.0,phase_1,,,,,,,,,,,,,orange,square
396.0,8.0,4.0,1.0,3.0,3.0,520.9741890139412,4.0,1.0,phase_1,,,,,,,,,,,,,blue,cross
47.0,1.0,0.5,0.0,4.0,4.0,453.528804006055,4.0,1.0,phase_1,,,,,,,,,,,,,cyan,diamond
124.0,6.0,1.0,1.0,4.0,4.0,521.9531610200647,4.0,1.0,phase_1,,,,,,,,,,,,,green,hexagon
185.0,7.0,2.0,1.0,4.0,4.0,388.8567910180427,4.0,1.0,phase_1,,,,,,,,,,,,,orange,square
208.0,7.0,2.0,1.0,4.0,4.0,459.8027069878299,4.0,1.0,phase_1,,,,,,,,,,,,,orange,square
408.0,8.0,4.0,1.0,2.0,2.0,511.1851939873304,4.0,1.0,phase_1,,,,,,,,,,,,,blue,cross
210.0,7.0,2.0,1.0,1.0,1.0,667.7361000038218,4.0,1.0,phase_1,,,,,,,,,,,,,orange,square
65.0,5.0,0.5,1.0,3.0,3.0,872.0910580013879,4.0,1.0,phase_1,,,,,,,,,,,,,yellow,flipped triangle
0.0,2.0,0.0,0.0,4.0,4.0,664.4374089955818,4.0,1.0,phase_1,,,,,,,,,,,,,gray,circle
391.0,4.0,4.0,0.0,3.0,3.0,753.8421310018748,4.0,1.0,phase_1,,,,,,,,,,,,,white,I
65.0,5.0,0.5,1.0,4.0,4.0,699.6039880032185,4.0,2.0,phase_1,,,,,,,,,,,,,yellow,flipped triangle
55.0,5.0,0.5,1.0,4.0,4.0,831.2445269839372,4.0,1.0,phase_1,,,,,,,,,,,,,yellow,flipped triangle
185.0,3.0,2.0,0.0,4.0,4.0,422.8215439943596,4.0,1.0,phase_1,,,,,,,,,,,,,magenta,triangle
78.0,6.0,1.0,1.0,1.0,1.0,545.9264059900306,4.0,1.0,phase_1,,,,,,,,,,,,,green,hexagon
0.0,8.0,0.0,1.0,2.0,2.0,462.1228199976031,4.0,1.0,phase_1,,,,,,,,,,,,,blue,cross
108.0,6.0,1.0,1.0,1.0,1.0,485.2867370063904,4.0,1.0,phase_1,,,,,,,,,,,,,green,hexagon
409.0,8.0,4.0,1.0,1.0,1.0,439.555457996903,4.0,1.0,phase_1,,,,,,,,,,,,,blue,cross
414.0,8.0,4.0,1.0,3.0,3.0,539.8807250021491,4.0,1.0,phase_1,,,,,,,,,,,,,blue,cross
63.0,5.0,0.5,1.0,4.0,4.0,560.8492699975614,4.0,1.0,phase_1,,,,,,,,,,,,,yellow,flipped triangle
81.0,6.0,1.0,1.0,1.0,1.0,495.8179980167188,4.0,1.0,phase_1,,,,,,,,,,,,,green,hexagon
182.0,3.0,2.0,0.0,2.0,2.0,457.4996329902205,4.0,1.0,phase_1,,,,,,,,,,,,,magenta,triangle
191.0,7.0,2.0,1.0,4.0,4.0,878.0019569967408,4.0,1.0,phase_1,,,,,,,,,,,,,orange,square
54.0,1.0,0.5,0.0,1.0,1.0,659.1891100106295,4.0,1.0,phase_1,,,,,,,,,,,,,cyan,diamond
197.0,3.0,2.0,0.0,3.0,3.0,889.7863130259793,4.0,1.0,phase_1,,,,,,,,,,,,,magenta,triangle
102.0,6.0,1.0,1.0,3.0,3.0,749.0594579721801,4.0,1.0,phase_1,,,,,,,,,,,,,green,hexagon
199.0,3.0,2.0,0.0,3.0,3.0,400.8268269826658,4.0,1.0,phase_1,,,,,,,,,,,,,magenta,triangle
120.0,6.0,1.0,1.0,4.0,4.0,518.2906229747459,4.0,1.0,phase_1,,,,,,,,,,,,,green,hexagon
418.0,4.0,4.0,0.0,4.0,4.0,715.5839279876091,4.0,1.0,phase_1,,,,,,,,,,,,,white,I
396.0,4.0,4.0,0.0,1.0,1.0,734.9323740054388,4.0,1.0,phase_1,,,,,,,,,,,,,white,I
90.0,6.0,1.0,1.0,1.0,1.0,486.4071799966041,4.0,1.0,phase_1,,,,,,,,,,,,,green,hexagon
82.0,2.0,1.0,0.0,3.0,3.0,535.9297120012343,4.0,1.0,phase_1,,,,,,,,,,,,,gray,circle
199.0,7.0,2.0,1.0,2.0,2.0,461.5855209995061,4.0,1.0,phase_1,,,,,,,,,,,,,orange,square
404.0,8.0,4.0,1.0,3.0,3.0,428.7757040001452,4.0,1.0,phase_1,,,,,,,,,,,,,blue,cross
111.0,2.0,1.0,0.0,3.0,3.0,425.7051160093397,4.0,1.0,phase_1,,,,,,,,,,,,,gray,circle
54.0,5.0,0.5,1.0,1.0,1.0,508.17757699405774,4.0,1.0,phase_1,,,,,,,,,,,,,yellow,flipped triangle
32.0,5.0,0.5,1.0,1.0,1.0,479.5125590171665,4.0,1.0,phase_1,,,,,,,,,,,,,yellow,flipped triangle
218.0,7.0,2.0,1.0,1.0,1.0,325.911341002211,4.0,1.0,phase_1,,,,,,,,,,,,,orange,square
402.0,8.0,4.0,1.0,1.0,1.0,440.7247100025415,4.0,1.0,phase_1,,,,,,,,,,,,,blue,cross
422.0,8.0,4.0,1.0,4.0,4.0,446.0107969935052,4.0,1.0,phase_1,,,,,,,,,,,,,blue,cross
0.0,7.0,0.0,1.0,3.0,3.0,410.4835799953434,4.0,1.0,phase_1,,,,,,,,,,,,,orange,square
48.0,5.0,0.5,1.0,3.0,3.0,450.793967989739,4.0,1.0,phase_1,,,,,,,,,,,,,yellow,flipped triangle
219.0,7.0,2.0,1.0,4.0,4.0,668.1256199954078,4.0,1.0,phase_1,,,,,,,,,,,,,orange,square
418.0,8.0,4.0,1.0,2.0,2.0,552.232660993468,4.0,1.0,phase_1,,,,,,,,,,,,,blue,cross
404.0,8.0,4.0,1.0,4.0,4.0,781.156920013018,4.0,1.0,phase_1,,,,,,,,,,,,,blue,cross
90.0,2.0,1.0,0.0,1.0,1.0,522.023147001164,4.0,1.0,phase_1,,,,,,,,,,,,,gray,circle
424.0,8.0,4.0,1.0,2.0,2.0,408.6153340176679,4.0,1.0,phase_1,,,,,,,,,,,,,blue,cross
0.0,4.0,0.0,0.0,2.0,2.0,530.6972760008648,4.0,1.0,phase_1,,,,,,,,,,,,,white,I
219.0,7.0,2.0,1.0,3.0,3.0,379.6932359982747,4.0,1.0,phase_1,,,,,,,,,,,,,orange,square
119.0,2.0,1.0,0.0,1.0,1.0,500.65156602067873,4.0,1.0,phase_1,,,,,,,,,,,,,gray,circle
58.0,1.0,0.5,0.0,3.0,3.0,410.0204239948652,4.0,1.0,phase_1,,,,,,,,,,,,,cyan,diamond
0.0,2.0,0.0,0.0,1.0,1.0,640.0667550042272,4.0,1.0,phase_1,,,,,,,,,,,,,gray,circle
70.0,1.0,0.5,0.0,2.0,2.0,421.2857289821841,4.0,1.0,phase_1,,,,,,,,,,,,,cyan,diamond
63.0,1.0,0.5,0.0,2.0,2.0,471.0424520017113,4.0,1.0,phase_1,,,,,,,,,,,,,cyan,diamond
113.0,2.0,1.0,0.0,2.0,2.0,532.5690399913583,4.0,1.0,phase_1,,,,,,,,,,,,,gray,circle
179.0,7.0,2.0,1.0,2.0,2.0,442.12498300476,4.0,1.0,phase_1,,,,,,,,,,,,,orange,square
41.0,1.0,0.5,0.0,3.0,3.0,384.622591023799,4.0,1.0,phase_1,,,,,,,,,,,,,cyan,diamond
0.0,6.0,0.0,1.0,1.0,1.0,487.3801259964239,4.0,2.0,phase_1,,,,,,,,,,,,,green,hexagon
58.0,5.0,0.5,1.0,2.0,2.0,500.179583003046,4.0,1.0,phase_1,,,,,,,,,,,,,yellow,flipped triangle
64.0,5.0,0.5,1.0,3.0,3.0,369.252424017759,4.0,1.0,phase_1,,,,,,,,,,,,,yellow,flipped triangle
111.0,6.0,1.0,1.0,4.0,4.0,0.1601419935468,4.0,2.0,phase_1,,,,,,,,,,,,,green,hexagon
48.0,1.0,0.5,0.0,4.0,4.0,470.1557730149943,4.0,1.0,phase_1,,,,,,,,,,,,,cyan,diamond
73.0,5.0,0.5,1.0,2.0,2.0,834.4056839996483,4.0,1.0,phase_1,,,,,,,,,,,,,yellow,flipped triangle
103.0,6.0,1.0,1.0,3.0,3.0,441.5515709843021,4.0,1.0,phase_1,,,,,,,,,,,,,green,hexagon
386.0,4.0,4.0,0.0,2.0,2.0,461.221615987597,4.0,1.0,phase_1,,,,,,,,,,,,,white,I
109.0,2.0,1.0,0.0,1.0,1.0,417.1127940062433,4.0,1.0,phase_1,,,,,,,,,,,,,gray,circle
0.0,6.0,0.0,1.0,4.0,4.0,425.419442995917,4.0,1.0,phase_1,,,,,,,,,,,,,green,hexagon
407.0,8.0,4.0,1.0,3.0,3.0,466.4828559907619,4.0,1.0,phase_1,,,,,,,,,,,,,blue,cross
416.0,8.0,4.0,1.0,1.0,1.0,527.0610589941498,4.0,1.0,phase_1,,,,,,,,,,,,,blue,cross
408.0,4.0,4.0,0.0,2.0,2.0,380.0266720063519,4.0,1.0,phase_1,,,,,,,,,,,,,white,I
79.0,2.0,1.0,0.0,2.0,2.0,433.0664449953474,4.0,1.0,phase_1,,,,,,,,,,,,,gray,circle
411.0,4.0,4.0,0.0,4.0,4.0,453.5901769995689,4.0,1.0,phase_1,,,,,,,,,,,,,white,I
185.0,7.0,2.0,1.0,4.0,4.0,514.8443609941751,4.0,1.0,phase_1,,,,,,,,,,,,,orange,square
32.0,1.0,0.5,0.0,2.0,2.0,433.3339639997575,4.0,1.0,phase_1,,,,,,,,,,,,,cyan,diamond
0.0,7.0,0.0,1.0,1.0,1.0,523.3535190054681,4.0,1.0,phase_1,,,,,,,,,,,,,orange,square
0.0,7.0,0.0,1.0,2.0,2.0,625.9212989825755,4.0,1.0,phase_1,,,,,,,,,,,,,orange,square
29.0,5.0,0.5,1.0,1.0,1.0,389.425277011469,4.0,1.0,phase_1,,,,,,,,,,,,,yellow,flipped triangle
49.0,1.0,0.5,0.0,2.0,2.0,436.8757979827933,4.0,1.0,phase_1,,,,,,,,,,,,,cyan,diamond
377.0,8.0,4.0,1.0,2.0,2.0,449.735270027304,4.0,1.0,phase_1,,,,,,,,,,,,,blue,cross
0.0,7.0,2.0,1.0,6.0,6.0,516.0111589939333,1.0,1.0,phase_2,stop,250.0,250.0,3.0,,,,,,,,,orange,square
0.0,5.0,0.5,1.0,6.0,0.0,0.0,1.0,1.0,phase_2,stop,250.0,200.0,4.0,,,,,,,,,yellow,flipped triangle
0.0,4.0,4.0,0.0,5.0,5.0,550.1614859967958,1.0,1.0,phase_2,go,250.0,250.0,1.0,,,,,,,,,white,I
0.0,1.0,0.5,0.0,5.0,5.0,409.4733439851552,1.0,1.0,phase_2,go,250.0,250.0,1.0,,,,,,,,,cyan,diamond
0.0,7.0,2.0,1.0,6.0,0.0,0.0,1.0,1.0,phase_2,stop,250.0,250.0,4.0,,,,,,,,,orange,square
0.0,2.0,1.0,0.0,6.0,6.0,516.3534509774763,1.0,1.0,phase_2,go,250.0,300.0,1.0,,,,,,,,,gray,circle
0.0,3.0,2.0,0.0,6.0,6.0,570.4291889851447,1.0,1.0,phase_2,go,250.0,300.0,1.0,,,,,,,,,magenta,triangle
0.0,3.0,2.0,0.0,5.0,5.0,370.6701629853342,1.0,1.0,phase_2,go,250.0,300.0,1.0,,,,,,,,,magenta,triangle
0.0,8.0,4.0,1.0,6.0,6.0,418.0265509930905,1.0,1.0,phase_2,go,250.0,300.0,1.0,,,,,,,,,blue,cross
0.0,7.0,2.0,1.0,5.0,0.0,0.0,1.0,1.0,phase_2,stop,250.0,300.0,4.0,,,,,,,,,orange,square
0.0,8.0,4.0,1.0,5.0,0.0,0.0,1.0,1.0,phase_2,stop,300.0,300.0,4.0,,,,,,,,,blue,cross
0.0,3.0,2.0,0.0,6.0,6.0,408.2644850132055,1.0,1.0,phase_2,go,350.0,300.0,1.0,,,,,,,,,magenta,triangle
0.0,6.0,1.0,1.0,6.0,0.0,0.0,1.0,1.0,phase_2,stop,350.0,300.0,4.0,,,,,,,,,green,hexagon
0.0,4.0,4.0,0.0,5.0,5.0,655.2663470210973,1.0,1.0,phase_2,go,350.0,350.0,1.0,,,,,,,,,white,I
0.0,2.0,1.0,0.0,5.0,5.0,558.2232689775992,1.0,1.0,phase_2,go,350.0,350.0,1.0,,,,,,,,,gray,circle
0.0,5.0,0.5,1.0,5.0,5.0,581.6486690018792,1.0,1.0,phase_2,stop,350.0,350.0,3.0,,,,,,,,,yellow,flipped triangle
0.0,5.0,0.5,1.0,6.0,6.0,564.8328370007221,1.0,1.0,phase_2,go,300.0,350.0,1.0,,,,,,,,,yellow,flipped triangle
0.0,8.0,4.0,1.0,6.0,0.0,0.0,1.0,1.0,phase_2,stop,300.0,350.0,4.0,,,,,,,,,blue,cross
0.0,1.0,0.5,0.0,5.0,5.0,755.3898360056337,1.0,1.0,phase_2,go,300.0,400.0,1.0,,,,,,,,,cyan,diamond
0.0,5.0,0.5,1.0,5.0,0.0,0.0,1.0,1.0,phase_2,stop,300.0,400.0,4.0,,,,,,,,,yellow,flipped triangle
0.0,2.0,1.0,0.0,5.0,5.0,632.0723009994254,1.0,1.0,phase_2,go,350.0,400.0,1.0,,,,,,,,,gray,circle
0.0,4.0,4.0,0.0,5.0,5.0,347.111417009728,1.0,1.0,phase_2,go,350.0,400.0,1.0,,,,,,,,,white,I
0.0,6.0,1.0,1.0,5.0,5.0,374.93733598967077,1.0,1.0,phase_2,stop,350.0,400.0,3.0,,,,,,,,,green,hexagon
0.0,7.0,2.0,1.0,6.0,6.0,534.562996996101,1.0,1.0,phase_2,stop,300.0,400.0,3.0,,,,,,,,,orange,square
0.0,1.0,0.5,0.0,6.0,6.0,638.4651550033595,1.0,1.0,phase_2,go,300.0,350.0,1.0,,,,,,,,,cyan,diamond
0.0,2.0,1.0,0.0,6.0,6.0,702.050952007994,1.0,1.0,phase_2,go,300.0,350.0,1.0,,,,,,,,,gray,circle
0.0,1.0,0.5,0.0,5.0,5.0,452.8103150078095,1.0,1.0,phase_2,go,300.0,350.0,1.0,,,,,,,,,cyan,diamond
0.0,4.0,4.0,0.0,6.0,6.0,436.274243023945,1.0,1.0,phase_2,go,300.0,350.0,1.0,,,,,,,,,white,I
0.0,4.0,4.0,0.0,6.0,6.0,388.463376002619,1.0,1.0,phase_2,go,300.0,350.0,1.0,,,,,,,,,white,I
0.0,5.0,0.5,1.0,6.0,6.0,388.0236760014668,1.0,1.0,phase_2,stop,300.0,350.0,3.0,,,,,,,,,yellow,flipped triangle
0.0,5.0,0.5,1.0,6.0,0.0,0.0,1.0,1.0,phase_2,stop,300.0,300.0,4.0,,,,,,,,,yellow,flipped triangle
0.0,4.0,4.0,0.0,6.0,6.0,811.0462129989173,1.0,1.0,phase_2,go,300.0,350.0,1.0,,,,,,,,,white,I
0.0,4.0,4.0,0.0,5.0,5.0,548.9284709910862,1.0,1.0,phase_2,go,300.0,350.0,1.0,,,,,,,,,white,I
0.0,3.0,2.0,0.0,5.0,5.0,787.4010399973486,1.0,1.0,phase_2,go,300.0,350.0,1.0,,,,,,,,,magenta,triangle
0.0,3.0,2.0,0.0,6.0,6.0,588.3957030018792,1.0,1.0,phase_2,go,300.0,350.0,1.0,,,,,,,,,magenta,triangle
0.0,7.0,2.0,1.0,5.0,5.0,345.8189030061476,1.0,1.0,phase_2,stop,300.0,350.0,3.0,,,,,,,,,orange,square
0.0,1.0,0.5,0.0,5.0,1.0,698.3154240006115,2.0,1.0,phase_2,go,250.0,350.0,2.0,,,,,,,,,cyan,diamond
0.0,8.0,4.0,1.0,5.0,1.0,371.6303769906517,2.0,1.0,phase_2,stop,250.0,350.0,3.0,,,,,,,,,blue,cross
0.0,1.0,0.5,0.0,6.0,6.0,468.1267109990585,2.0,1.0,phase_2,go,200.0,350.0,1.0,,,,,,,,,cyan,diamond
0.0,7.0,2.0,1.0,6.0,6.0,458.60069399350317,2.0,1.0,phase_2,stop,200.0,350.0,3.0,,,,,,,,,orange,square
0.0,1.0,0.5,0.0,6.0,6.0,579.5136030064896,2.0,1.0,phase_2,go,200.0,300.0,1.0,,,,,,,,,cyan,diamond
0.0,3.0,2.0,0.0,5.0,1.0,674.4138010253664,2.0,1.0,phase_2,go,200.0,300.0,2.0,,,,,,,,,magenta,triangle
0.0,2.0,1.0,0.0,5.0,1.0,518.9366230042651,2.0,1.0,phase_2,go,200.0,300.0,2.0,,,,,,,,,gray,circle
0.0,8.0,4.0,1.0,5.0,0.0,0.0,2.0,1.0,phase_2,stop,200.0,300.0,4.0,,,,,,,,,blue,cross
0.0,6.0,1.0,1.0,5.0,1.0,575.1911679981276,2.0,1.0,phase_2,go,250.0,300.0,2.0,,,,,,,,,green,hexagon
0.0,4.0,4.0,0.0,5.0,1.0,406.448914000066,2.0,1.0,phase_2,go,250.0,300.0,2.0,,,,,,,,,white,I
0.0,5.0,0.5,1.0,6.0,0.0,0.0,2.0,1.0,phase_2,stop,250.0,300.0,4.0,,,,,,,,,yellow,flipped triangle
0.0,8.0,4.0,1.0,6.0,0.0,0.0,2.0,1.0,phase_2,stop,250.0,350.0,4.0,,,,,,,,,blue,cross
0.0,3.0,2.0,0.0,5.0,1.0,555.3158239927143,2.0,1.0,phase_2,go,250.0,400.0,2.0,,,,,,,,,magenta,triangle
0.0,2.0,1.0,0.0,5.0,1.0,650.2212719933596,2.0,1.0,phase_2,go,250.0,400.0,2.0,,,,,,,,,gray,circle
0.0,1.0,0.5,0.0,5.0,1.0,578.4237000043504,2.0,1.0,phase_2,go,250.0,400.0,2.0,,,,,,,,,cyan,diamond
0.0,4.0,4.0,0.0,5.0,1.0,443.0425830068998,2.0,1.0,phase_2,go,250.0,400.0,2.0,,,,,,,,,white,I
0.0,6.0,1.0,1.0,5.0,0.0,0.0,2.0,1.0,phase_2,stop,250.0,400.0,4.0,,,,,,,,,green,hexagon
0.0,2.0,1.0,0.0,5.0,1.0,1075.59955099714,2.0,1.0,phase_2,go,300.0,400.0,2.0,,,,,,,,,gray,circle
0.0,2.0,1.0,0.0,6.0,6.0,691.5707850130275,2.0,1.0,phase_2,go,300.0,400.0,1.0,,,,,,,,,gray,circle
0.0,2.0,1.0,0.0,6.0,6.0,464.9860269855708,2.0,1.0,phase_2,go,300.0,400.0,1.0,,,,,,,,,gray,circle
0.0,6.0,1.0,1.0,5.0,1.0,415.8185170090291,2.0,1.0,phase_2,stop,300.0,400.0,3.0,,,,,,,,,green,hexagon
0.0,3.0,2.0,0.0,6.0,6.0,601.1309270106722,2.0,1.0,phase_2,go,250.0,400.0,1.0,,,,,,,,,magenta,triangle
0.0,6.0,1.0,1.0,6.0,0.0,0.0,2.0,1.0,phase_2,stop,250.0,400.0,4.0,,,,,,,,,green,hexagon
0.0,6.0,1.0,1.0,6.0,6.0,743.916214996716,2.0,1.0,phase_2,go,250.0,450.0,1.0,,,,,,,,,green,hexagon
0.0,4.0,4.0,0.0,6.0,6.0,736.3199220271781,2.0,1.0,phase_2,go,250.0,450.0,1.0,,,,,,,,,white,I
0.0,2.0,1.0,0.0,6.0,6.0,549.6440760034602,2.0,1.0,phase_2,go,250.0,450.0,1.0,,,,,,,,,gray,circle
0.0,5.0,0.5,1.0,6.0,0.0,0.0,2.0,1.0,phase_2,stop,250.0,450.0,4.0,,,,,,,,,yellow,flipped triangle
0.0,7.0,2.0,1.0,5.0,0.0,0.0,2.0,1.0,phase_2,stop,250.0,500.0,4.0,,,,,,,,,orange,square
0.0,7.0,2.0,1.0,5.0,0.0,0.0,2.0,1.0,phase_2,stop,300.0,500.0,4.0,,,,,,,,,orange,square
0.0,2.0,1.0,0.0,6.0,6.0,469.5978059899062,2.0,1.0,phase_2,go,350.0,500.0,1.0,,,,,,,,,gray,circle
0.0,6.0,1.0,1.0,5.0,0.0,0.0,2.0,1.0,phase_2,go,350.0,500.0,5.0,,,,,,,,,green,hexagon
0.0,8.0,4.0,1.0,6.0,6.0,745.2866800012998,2.0,1.0,phase_2,go,350.0,500.0,1.0,,,,,,,,,blue,cross
0.0,8.0,4.0,1.0,6.0,6.0,329.1575030016247,2.0,1.0,phase_2,go,350.0,500.0,1.0,,,,,,,,,blue,cross
0.0,1.0,0.5,0.0,5.0,1.0,479.5608590065967,2.0,1.0,phase_2,go,350.0,500.0,2.0,,,,,,,,,cyan,diamond
0.0,3.0,2.0,0.0,6.0,6.0,416.7629790026694,2.0,1.0,phase_2,go,350.0,500.0,1.0,,,,,,,,,magenta,triangle
0.0,2.0,1.0,0.0,6.0,6.0,423.16071598907,2.0,1.0,phase_2,go,350.0,500.0,1.0,,,,,,,,,gray,circle
0.0,8.0,4.0,1.0,5.0,1.0,752.9414219898172,3.0,1.0,phase_2,stop,350.0,500.0,3.0,,,,,,,,,blue,cross
0.0,5.0,0.5,1.0,6.0,6.0,412.3819509986788,3.0,1.0,phase_2,stop,300.0,500.0,3.0,,,,,,,,,yellow,flipped triangle
0.0,7.0,2.0,1.0,5.0,0.0,0.0,3.0,1.0,phase_2,stop,300.0,450.0,4.0,,,,,,,,,orange,square
0.0,1.0,0.5,0.0,5.0,1.0,642.9764929926023,3.0,1.0,phase_2,go,350.0,450.0,2.0,,,,,,,,,cyan,diamond
0.0,6.0,1.0,1.0,5.0,1.0,383.3099530020263,3.0,1.0,phase_2,stop,350.0,450.0,3.0,,,,,,,,,green,hexagon
0.0,4.0,4.0,0.0,6.0,6.0,622.0327490009367,3.0,1.0,phase_2,go,300.0,450.0,1.0,,,,,,,,,white,I
0.0,3.0,2.0,0.0,5.0,1.0,457.5069599959533,3.0,1.0,phase_2,go,300.0,450.0,2.0,,,,,,,,,magenta,triangle
0.0,6.0,1.0,1.0,6.0,6.0,743.002795992652,3.0,1.0,phase_2,go,300.0,450.0,1.0,,,,,,,,,green,hexagon
0.0,3.0,2.0,0.0,6.0,6.0,566.6017539915629,3.0,1.0,phase_2,go,300.0,450.0,1.0,,,,,,,,,magenta,triangle
0.0,8.0,4.0,1.0,6.0,0.0,0.0,3.0,1.0,phase_2,stop,300.0,450.0,4.0,,,,,,,,,blue,cross
0.0,7.0,2.0,1.0,5.0,1.0,675.3740060084965,3.0,1.0,phase_2,go,300.0,500.0,2.0,,,,,,,,,orange,square
0.0,7.0,2.0,1.0,6.0,6.0,747.2131369868293,3.0,1.0,phase_2,go,300.0,500.0,1.0,,,,,,,,,orange,square
0.0,1.0,0.5,0.0,6.0,6.0,706.1566380143631,3.0,1.0,phase_2,go,300.0,500.0,1.0,,,,,,,,,cyan,diamond
0.0,4.0,4.0,0.0,5.0,1.0,689.4525820098352,3.0,1.0,phase_2,go,300.0,500.0,2.0,,,,,,,,,white,I
0.0,2.0,1.0,0.0,5.0,1.0,506.78724999306723,3.0,1.0,phase_2,go,300.0,500.0,2.0,,,,,,,,,gray,circle
0.0,4.0,4.0,0.0,6.0,6.0,755.5513320257887,3.0,1.0,phase_2,go,300.0,500.0,1.0,,,,,,,,,white,I
0.0,6.0,1.0,1.0,6.0,0.0,0.0,3.0,1.0,phase_2,stop,300.0,500.0,4.0,,,,,,,,,green,hexagon
0.0,6.0,1.0,1.0,5.0,1.0,522.459820000222,3.0,1.0,phase_2,stop,300.0,550.0,3.0,,,,,,,,,green,hexagon
0.0,2.0,1.0,0.0,5.0,1.0,655.612142989412,3.0,1.0,phase_2,go,250.0,550.0,2.0,,,,,,,,,gray,circle
0.0,5.0,0.5,1.0,5.0,1.0,800.1096060033888,3.0,1.0,phase_2,go,250.0,550.0,2.0,,,,,,,,,yellow,flipped triangle
0.0,8.0,4.0,1.0,5.0,1.0,405.7922900246922,3.0,1.0,phase_2,stop,250.0,550.0,3.0,,,,,,,,,blue,cross
0.0,2.0,1.0,0.0,5.0,1.0,606.1008920078166,3.0,1.0,phase_2,go,200.0,550.0,2.0,,,,,,,,,gray,circle
0.0,2.0,1.0,0.0,6.0,6.0,717.2538999875542,3.0,1.0,phase_2,go,200.0,550.0,1.0,,,,,,,,,gray,circle
0.0,5.0,0.5,1.0,5.0,1.0,856.0788879985921,3.0,1.0,phase_2,stop,200.0,550.0,3.0,,,,,,,,,yellow,flipped triangle
0.0,3.0,2.0,0.0,6.0,6.0,653.8696959905792,3.0,1.0,phase_2,go,150.0,550.0,1.0,,,,,,,,,magenta,triangle
0.0,8.0,4.0,1.0,5.0,0.0,0.0,3.0,1.0,phase_2,stop,150.0,550.0,4.0,,,,,,,,,blue,cross
0.0,6.0,1.0,1.0,5.0,1.0,758.090221992461,3.0,1.0,phase_2,go,200.0,550.0,2.0,,,,,,,,,green,hexagon
0.0,4.0,4.0,0.0,5.0,1.0,668.5670199804008,3.0,1.0,phase_2,go,200.0,550.0,2.0,,,,,,,,,white,I
0.0,4.0,4.0,0.0,6.0,6.0,673.5000320186373,3.0,1.0,phase_2,go,200.0,550.0,1.0,,,,,,,,,white,I
0.0,2.0,1.0,0.0,6.0,6.0,585.450985992793,3.0,1.0,phase_2,go,200.0,550.0,1.0,,,,,,,,,gray,circle
0.0,8.0,4.0,1.0,6.0,6.0,776.1826450005174,3.0,1.0,phase_2,stop,200.0,550.0,3.0,,,,,,,,,blue,cross
0.0,7.0,2.0,1.0,6.0,6.0,810.8279439911712,3.0,1.0,phase_2,go,200.0,500.0,1.0,,,,,,,,,orange,square
0.0,5.0,0.5,1.0,5.0,0.0,0.0,3.0,1.0,phase_2,stop,200.0,500.0,4.0,,,,,,,,,yellow,flipped triangle
0.0,4.0,4.0,0.0,5.0,1.0,823.7187299819198,3.0,1.0,phase_2,go,250.0,500.0,2.0,,,,,,,,,white,I
0.0,6.0,1.0,1.0,5.0,1.0,782.2576020262204,3.0,1.0,phase_2,go,250.0,500.0,2.0,,,,,,,,,green,hexagon
0.0,3.0,2.0,0.0,6.0,6.0,725.3547269792762,3.0,1.0,phase_2,go,250.0,500.0,1.0,,,,,,,,,magenta,triangle
0.0,6.0,1.0,1.0,6.0,6.0,569.11077699624,4.0,1.0,phase_2,stop,250.0,500.0,3.0,,,,,,,,,green,hexagon
0.0,1.0,0.5,0.0,6.0,6.0,590.4670580057427,4.0,1.0,phase_2,go,250.0,450.0,1.0,,,,,,,,,cyan,diamond
0.0,1.0,0.5,0.0,5.0,5.0,469.8165359732229,4.0,1.0,phase_2,go,250.0,450.0,1.0,,,,,,,,,cyan,diamond
0.0,2.0,1.0,0.0,5.0,5.0,416.720384004293,4.0,1.0,phase_2,go,250.0,450.0,1.0,,,,,,,,,gray,circle
0.0,7.0,2.0,1.0,6.0,6.0,476.9279159954749,4.0,1.0,phase_2,go,250.0,450.0,1.0,,,,,,,,,orange,square
0.0,1.0,0.5,0.0,5.0,5.0,333.0682819942012,4.0,1.0,phase_2,go,250.0,450.0,1.0,,,,,,,,,cyan,diamond
0.0,4.0,4.0,0.0,6.0,6.0,445.5495260190218,4.0,1.0,phase_2,go,250.0,450.0,1.0,,,,,,,,,white,I
0.0,2.0,1.0,0.0,5.0,5.0,485.2528330229688,4.0,1.0,phase_2,go,250.0,450.0,1.0,,,,,,,,,gray,circle
0.0,3.0,2.0,0.0,5.0,5.0,645.5782359989826,4.0,1.0,phase_2,go,250.0,450.0,1.0,,,,,,,,,magenta,triangle
0.0,3.0,2.0,0.0,5.0,5.0,427.0614529959857,4.0,1.0,phase_2,go,250.0,450.0,1.0,,,,,,,,,magenta,triangle
0.0,6.0,1.0,1.0,6.0,6.0,436.3052270200569,4.0,1.0,phase_2,stop,250.0,450.0,3.0,,,,,,,,,green,hexagon
0.0,4.0,4.0,0.0,5.0,5.0,531.8271860014647,4.0,1.0,phase_2,go,250.0,400.0,1.0,,,,,,,,,white,I
0.0,6.0,1.0,1.0,6.0,6.0,728.7316709989682,4.0,1.0,phase_2,go,250.0,400.0,1.0,,,,,,,,,green,hexagon
0.0,8.0,4.0,1.0,5.0,0.0,0.0,4.0,1.0,phase_2,stop,250.0,400.0,4.0,,,,,,,,,blue,cross
0.0,8.0,4.0,1.0,5.0,5.0,729.5893730188254,4.0,1.0,phase_2,go,300.0,400.0,1.0,,,,,,,,,blue,cross
0.0,2.0,1.0,0.0,6.0,6.0,622.6205360144377,4.0,1.0,phase_2,go,300.0,400.0,1.0,,,,,,,,,gray,circle
0.0,5.0,0.5,1.0,6.0,0.0,0.0,4.0,1.0,phase_2,stop,300.0,400.0,4.0,,,,,,,,,yellow,flipped triangle
0.0,7.0,2.0,1.0,6.0,0.0,0.0,4.0,1.0,phase_2,stop,300.0,450.0,4.0,,,,,,,,,orange,square
0.0,5.0,0.5,1.0,6.0,6.0,624.6138589922339,4.0,1.0,phase_2,stop,300.0,500.0,3.0,,,,,,,,,yellow,flipped triangle
0.0,5.0,0.5,1.0,5.0,5.0,871.521584020229,4.0,1.0,phase_2,go,300.0,450.0,1.0,,,,,,,,,yellow,flipped triangle
0.0,6.0,1.0,1.0,5.0,0.0,0.0,4.0,1.0,phase_2,stop,300.0,450.0,4.0,,,,,,,,,green,hexagon
0.0,7.0,2.0,1.0,5.0,0.0,0.0,4.0,1.0,phase_2,stop,350.0,450.0,4.0,,,,,,,,,orange,square
0.0,1.0,0.5,0.0,6.0,6.0,845.8175730193034,4.0,1.0,phase_2,go,400.0,450.0,1.0,,,,,,,,,cyan,diamond
0.0,1.0,0.5,0.0,5.0,5.0,701.4640709967352,4.0,1.0,phase_2,go,400.0,450.0,1.0,,,,,,,,,cyan,diamond
0.0,6.0,1.0,1.0,5.0,0.0,0.0,4.0,1.0,phase_2,stop,400.0,450.0,4.0,,,,,,,,,green,hexagon
0.0,7.0,2.0,1.0,6.0,0.0,0.0,4.0,1.0,phase_2,stop,450.0,450.0,4.0,,,,,,,,,orange,square
0.0,5.0,0.5,1.0,6.0,0.0,0.0,4.0,1.0,phase_2,stop,450.0,500.0,4.0,,,,,,,,,yellow,flipped triangle
0.0,4.0,4.0,0.0,6.0,6.0,769.0891039965209,4.0,1.0,phase_2,go,450.0,550.0,1.0,,,,,,,,,white,I
0.0,5.0,0.5,1.0,5.0,5.0,474.5977650163695,4.0,1.0,phase_2,stop,450.0,550.0,3.0,,,,,,,,,yellow,flipped triangle
0.0,6.0,1.0,1.0,6.0,6.0,688.2578850199934,4.0,1.0,phase_2,stop,400.0,550.0,3.0,,,,,,,,,green,hexagon
0.0,1.0,0.5,0.0,6.0,6.0,841.4355859858915,4.0,1.0,phase_2,go,400.0,500.0,1.0,,,,,,,,,cyan,diamond
0.0,8.0,4.0,1.0,6.0,6.0,778.0838180042338,4.0,1.0,phase_2,go,400.0,500.0,1.0,,,,,,,,,blue,cross
0.0,1.0,0.5,0.0,5.0,5.0,728.5431539930869,4.0,1.0,phase_2,go,400.0,500.0,1.0,,,,,,,,,cyan,diamond
0.0,6.0,1.0,1.0,6.0,6.0,671.8896120146383,4.0,1.0,phase_2,stop,400.0,500.0,3.0,,,,,,,,,green,hexagon
0.0,3.0,2.0,0.0,5.0,5.0,812.0784950151574,4.0,1.0,phase_2,go,400.0,450.0,1.0,,,,,,,,,magenta,triangle
0.0,3.0,2.0,0.0,6.0,6.0,773.4408100077417,4.0,1.0,phase_2,go,400.0,450.0,1.0,,,,,,,,,magenta,triangle
0.0,8.0,4.0,1.0,6.0,0.0,0.0,5.0,1.0,phase_2,stop,400.0,450.0,4.0,,,,,,,,,blue,cross
0.0,3.0,2.0,0.0,6.0,6.0,752.1351329924073,5.0,1.0,phase_2,go,400.0,500.0,1.0,,,,,,,,,magenta,triangle
0.0,1.0,0.5,0.0,6.0,6.0,609.0678979817312,5.0,1.0,phase_2,go,400.0,500.0,1.0,,,,,,,,,cyan,diamond
0.0,8.0,4.0,1.0,5.0,0.0,0.0,5.0,1.0,phase_2,stop,400.0,500.0,4.0,,,,,,,,,blue,cross
0.0,4.0,4.0,0.0,5.0,5.0,519.1999899980146,5.0,1.0,phase_2,go,450.0,500.0,1.0,,,,,,,,,white,I
0.0,6.0,1.0,1.0,6.0,0.0,0.0,5.0,1.0,phase_2,stop,450.0,500.0,4.0,,,,,,,,,green,hexagon
0.0,6.0,1.0,1.0,5.0,0.0,0.0,5.0,1.0,phase_2,stop,450.0,550.0,4.0,,,,,,,,,green,hexagon
0.0,8.0,4.0,1.0,6.0,6.0,588.5668809933122,5.0,1.0,phase_2,stop,500.0,550.0,3.0,,,,,,,,,blue,cross
0.0,4.0,4.0,0.0,6.0,6.0,707.7281050151214,5.0,1.0,phase_2,go,500.0,500.0,1.0,,,,,,,,,white,I
0.0,5.0,0.5,1.0,5.0,0.0,0.0,5.0,1.0,phase_2,stop,500.0,500.0,4.0,,,,,,,,,yellow,flipped triangle
0.0,1.0,0.5,0.0,6.0,6.0,762.5275540049188,5.0,1.0,phase_2,go,550.0,500.0,1.0,,,,,,,,,cyan,diamond
0.0,3.0,2.0,0.0,6.0,6.0,809.9448049906641,5.0,1.0,phase_2,go,550.0,500.0,1.0,,,,,,,,,magenta,triangle
0.0,7.0,2.0,1.0,5.0,0.0,0.0,5.0,1.0,phase_2,stop,550.0,500.0,4.0,,,,,,,,,orange,square
0.0,7.0,2.0,1.0,6.0,0.0,0.0,5.0,1.0,phase_2,stop,600.0,500.0,4.0,,,,,,,,,orange,square
0.0,7.0,2.0,1.0,5.0,0.0,0.0,5.0,1.0,phase_2,stop,600.0,550.0,4.0,,,,,,,,,orange,square
0.0,2.0,1.0,0.0,5.0,5.0,848.7998489872552,5.0,1.0,phase_2,go,650.0,550.0,1.0,,,,,,,,,gray,circle
0.0,4.0,4.0,0.0,6.0,6.0,704.8610800120514,5.0,1.0,phase_2,go,650.0,550.0,1.0,,,,,,,,,white,I
0.0,5.0,0.5,1.0,5.0,5.0,836.5158929955214,5.0,1.0,phase_2,go,650.0,550.0,1.0,,,,,,,,,yellow,flipped triangle
0.0,2.0,1.0,0.0,6.0,6.0,654.4150830013677,5.0,1.0,phase_2,go,650.0,550.0,1.0,,,,,,,,,gray,circle
0.0,3.0,2.0,0.0,5.0,5.0,783.824796002591,5.0,1.0,phase_2,go,650.0,550.0,1.0,,,,,,,,,magenta,triangle
0.0,7.0,2.0,1.0,6.0,6.0,950.8780860051048,5.0,1.0,phase_2,go,650.0,550.0,1.0,,,,,,,,,orange,square
0.0,6.0,1.0,1.0,5.0,5.0,602.7138640056364,5.0,1.0,phase_2,stop,650.0,550.0,3.0,,,,,,,,,green,hexagon
0.0,5.0,0.5,1.0,6.0,0.0,0.0,5.0,1.0,phase_2,stop,600.0,550.0,4.0,,,,,,,,,yellow,flipped triangle
0.0,4.0,4.0,0.0,6.0,6.0,715.9923449798953,5.0,1.0,phase_2,go,600.0,600.0,1.0,,,,,,,,,white,I
0.0,8.0,4.0,1.0,5.0,5.0,667.5951670040376,5.0,1.0,phase_2,stop,600.0,600.0,3.0,,,,,,,,,blue,cross
0.0,3.0,2.0,0.0,5.0,5.0,928.3858830167446,5.0,1.0,phase_2,go,550.0,600.0,1.0,,,,,,,,,magenta,triangle
0.0,7.0,2.0,1.0,5.0,0.0,0.0,5.0,1.0,phase_2,stop,550.0,600.0,4.0,,,,,,,,,orange,square
0.0,1.0,0.5,0.0,5.0,5.0,914.376758999424,5.0,1.0,phase_2,go,600.0,600.0,1.0,,,,,,,,,cyan,diamond
0.0,8.0,4.0,1.0,5.0,5.0,946.327588026179,5.0,1.0,phase_2,go,600.0,600.0,1.0,,,,,,,,,blue,cross
0.0,4.0,4.0,0.0,5.0,5.0,776.3354069902562,5.0,1.0,phase_2,go,600.0,600.0,1.0,,,,,,,,,white,I
0.0,4.0,4.0,0.0,5.0,5.0,758.0505990190431,5.0,1.0,phase_2,go,600.0,600.0,1.0,,,,,,,,,white,I
0.0,1.0,0.5,0.0,6.0,6.0,836.822849989403,5.0,1.0,phase_2,go,600.0,600.0,1.0,,,,,,,,,cyan,diamond
0.0,4.0,4.0,0.0,6.0,6.0,677.2854820010252,5.0,1.0,phase_2,go,600.0,600.0,1.0,,,,,,,,,white,I
0.0,8.0,4.0,1.0,6.0,6.0,403.7370079895481,5.0,1.0,phase_2,stop,600.0,600.0,3.0,,,,,,,,,blue,cross
0.0,4.0,4.0,0.0,6.0,6.0,694.9088060064241,5.0,1.0,phase_2,go,600.0,550.0,1.0,,,,,,,,,white,I
0.0,5.0,0.5,1.0,5.0,0.0,0.0,5.0,1.0,phase_2,stop,600.0,550.0,4.0,,,,,,,,,yellow,flipped triangle
0.0,3.0,2.0,0.0,6.0,6.0,841.4659239933826,6.0,1.0,phase_2,go,650.0,550.0,1.0,,,,,,,,,magenta,triangle
0.0,8.0,4.0,1.0,6.0,0.0,0.0,6.0,1.0,phase_2,stop,650.0,550.0,4.0,,,,,,,,,blue,cross
0.0,7.0,2.0,1.0,6.0,0.0,0.0,6.0,1.0,phase_2,stop,650.0,600.0,4.0,,,,,,,,,orange,square
0.0,2.0,1.0,0.0,6.0,6.0,596.2977229792159,6.0,1.0,phase_2,go,650.0,650.0,1.0,,,,,,,,,gray,circle
0.0,4.0,4.0,0.0,5.0,5.0,535.9844299964607,6.0,1.0,phase_2,go,650.0,650.0,1.0,,,,,,,,,white,I
0.0,3.0,2.0,0.0,5.0,5.0,611.9438679888844,6.0,1.0,phase_2,go,650.0,650.0,1.0,,,,,,,,,magenta,triangle
0.0,5.0,0.5,1.0,6.0,0.0,0.0,6.0,1.0,phase_2,stop,650.0,650.0,4.0,,,,,,,,,yellow,flipped triangle
0.0,8.0,4.0,1.0,5.0,0.0,0.0,6.0,1.0,phase_2,stop,650.0,700.0,4.0,,,,,,,,,blue,cross
0.0,1.0,0.5,0.0,6.0,6.0,901.1956210015342,6.0,1.0,phase_2,go,700.0,700.0,1.0,,,,,,,,,cyan,diamond
0.0,6.0,1.0,1.0,6.0,6.0,881.8449979880825,6.0,1.0,phase_2,stop,700.0,700.0,3.0,,,,,,,,,green,hexagon
0.0,7.0,2.0,1.0,5.0,0.0,0.0,6.0,1.0,phase_2,stop,700.0,650.0,4.0,,,,,,,,,orange,square
0.0,8.0,4.0,1.0,5.0,0.0,0.0,6.0,1.0,phase_2,stop,750.0,650.0,4.0,,,,,,,,,blue,cross
0.0,4.0,4.0,0.0,5.0,5.0,690.2672160067596,6.0,1.0,phase_2,go,800.0,650.0,1.0,,,,,,,,,white,I
0.0,2.0,1.0,0.0,5.0,5.0,719.2158089892473,6.0,1.0,phase_2,go,800.0,650.0,1.0,,,,,,,,,gray,circle
0.0,1.0,0.5,0.0,6.0,6.0,950.028408988146,6.0,1.0,phase_2,go,800.0,650.0,1.0,,,,,,,,,cyan,diamond
0.0,4.0,4.0,0.0,5.0,5.0,608.5228290176019,6.0,1.0,phase_2,go,800.0,650.0,1.0,,,,,,,,,white,I
0.0,3.0,2.0,0.0,5.0,5.0,967.6296050020028,6.0,1.0,phase_2,go,800.0,650.0,1.0,,,,,,,,,magenta,triangle
0.0,7.0,2.0,1.0,5.0,0.0,0.0,6.0,1.0,phase_2,stop,800.0,650.0,4.0,,,,,,,,,orange,square
0.0,5.0,0.5,1.0,5.0,5.0,1140.536655992037,6.0,1.0,phase_2,go,850.0,650.0,1.0,,,,,,,,,yellow,flipped triangle
0.0,7.0,2.0,1.0,6.0,0.0,0.0,6.0,1.0,phase_2,stop,850.0,650.0,4.0,,,,,,,,,orange,square
0.0,1.0,0.5,0.0,5.0,5.0,989.9669619917404,6.0,1.0,phase_2,go,850.0,700.0,1.0,,,,,,,,,cyan,diamond
0.0,8.0,4.0,1.0,5.0,5.0,851.6258939926047,6.0,1.0,phase_2,go,850.0,700.0,1.0,,,,,,,,,blue,cross
0.0,8.0,4.0,1.0,5.0,5.0,979.8333110229578,6.0,1.0,phase_2,go,850.0,700.0,1.0,,,,,,,,,blue,cross
0.0,2.0,1.0,0.0,5.0,5.0,660.4792560101487,6.0,1.0,phase_2,go,850.0,700.0,1.0,,,,,,,,,gray,circle
0.0,3.0,2.0,0.0,6.0,6.0,587.3572059790604,6.0,1.0,phase_2,go,850.0,700.0,1.0,,,,,,,,,magenta,triangle
0.0,5.0,0.5,1.0,5.0,5.0,760.649696982,6.0,1.0,phase_2,stop,850.0,700.0,3.0,,,,,,,,,yellow,flipped triangle
0.0,2.0,1.0,0.0,5.0,5.0,607.2054989926983,6.0,1.0,phase_2,go,800.0,700.0,1.0,,,,,,,,,gray,circle
0.0,1.0,0.5,0.0,5.0,5.0,943.4593170008156,6.0,1.0,phase_2,go,800.0,700.0,1.0,,,,,,,,,cyan,diamond
0.0,8.0,4.0,1.0,6.0,6.0,590.309982013423,6.0,1.0,phase_2,stop,800.0,700.0,3.0,,,,,,,,,blue,cross
0.0,8.0,4.0,1.0,5.0,5.0,615.4009599995334,6.0,1.0,phase_2,stop,800.0,650.0,3.0,,,,,,,,,blue,cross
0.0,2.0,1.0,0.0,5.0,5.0,710.2114339941181,6.0,1.0,phase_2,go,750.0,650.0,1.0,,,,,,,,,gray,circle
0.0,5.0,0.5,1.0,5.0,0.0,0.0,6.0,1.0,phase_2,stop,750.0,650.0,4.0,,,,,,,,,yellow,flipped triangle
0.0,2.0,1.0,0.0,6.0,6.0,676.4315119944513,6.0,1.0,phase_2,go,800.0,650.0,1.0,,,,,,,,,gray,circle
0.0,4.0,4.0,0.0,6.0,6.0,828.0797449988313,6.0,1.0,phase_2,go,800.0,650.0,1.0,,,,,,,,,white,I
0.0,5.0,0.5,1.0,5.0,0.0,0.0,6.0,1.0,phase_2,stop,800.0,650.0,4.0,,,,,,,,,yellow,flipped triangle
0.0,3.0,2.0,0.0,6.0,6.0,1118.6792259977665,6.0,1.0,phase_2,go,850.0,650.0,1.0,,,,,,,,,magenta,triangle
0.0,5.0,0.5,1.0,6.0,6.0,613.228316011373,7.0,1.0,phase_2,stop,850.0,650.0,3.0,,,,,,,,,yellow,flipped triangle
0.0,8.0,4.0,1.0,5.0,1.0,317.5786309875548,7.0,1.0,phase_2,stop,850.0,600.0,3.0,,,,,,,,,blue,cross
0.0,3.0,2.0,0.0,6.0,6.0,626.1136679968331,7.0,1.0,phase_2,go,800.0,600.0,1.0,,,,,,,,,magenta,triangle
0.0,6.0,1.0,1.0,6.0,6.0,450.2690240042284,7.0,1.0,phase_2,stop,800.0,600.0,3.0,,,,,,,,,green,hexagon
0.0,2.0,1.0,0.0,6.0,6.0,626.2700290244538,7.0,1.0,phase_2,go,800.0,550.0,1.0,,,,,,,,,gray,circle
0.0,3.0,2.0,0.0,5.0,1.0,371.0975159774534,7.0,1.0,phase_2,go,800.0,550.0,2.0,,,,,,,,,magenta,triangle
0.0,2.0,1.0,0.0,5.0,1.0,384.0550380118657,7.0,1.0,phase_2,go,800.0,550.0,2.0,,,,,,,,,gray,circle
0.0,5.0,0.5,1.0,6.0,6.0,457.7536249998957,7.0,1.0,phase_2,stop,800.0,550.0,3.0,,,,,,,,,yellow,flipped triangle
0.0,7.0,2.0,1.0,6.0,6.0,666.8852109869476,7.0,1.0,phase_2,stop,800.0,500.0,3.0,,,,,,,,,orange,square
0.0,3.0,2.0,0.0,6.0,6.0,695.6503710243851,7.0,1.0,phase_2,go,800.0,450.0,1.0,,,,,,,,,magenta,triangle
0.0,6.0,1.0,1.0,5.0,1.0,705.0969040137716,7.0,1.0,phase_2,go,800.0,450.0,2.0,,,,,,,,,green,hexagon
0.0,7.0,2.0,1.0,5.0,1.0,860.7998970255721,7.0,1.0,phase_2,stop,800.0,450.0,3.0,,,,,,,,,orange,square
0.0,1.0,0.5,0.0,6.0,6.0,1172.3206089809537,7.0,1.0,phase_2,go,750.0,450.0,1.0,,,,,,,,,cyan,diamond
0.0,6.0,1.0,1.0,5.0,0.0,0.0,7.0,1.0,phase_2,stop,750.0,450.0,4.0,,,,,,,,,green,hexagon
0.0,7.0,2.0,1.0,5.0,1.0,1195.6237670092378,7.0,1.0,phase_2,go,800.0,450.0,2.0,,,,,,,,,orange,square
0.0,3.0,2.0,0.0,6.0,6.0,978.8260080094916,7.0,1.0,phase_2,go,800.0,450.0,1.0,,,,,,,,,magenta,triangle
0.0,1.0,0.5,0.0,6.0,6.0,620.8278069971129,7.0,1.0,phase_2,go,800.0,450.0,1.0,,,,,,,,,cyan,diamond
0.0,1.0,0.5,0.0,5.0,1.0,813.0826579872519,7.0,1.0,phase_2,go,800.0,450.0,2.0,,,,,,,,,cyan,diamond
0.0,3.0,2.0,0.0,5.0,1.0,690.6862609903328,7.0,1.0,phase_2,go,800.0,450.0,2.0,,,,,,,,,magenta,triangle
0.0,2.0,1.0,0.0,5.0,1.0,392.6512080070097,7.0,1.0,phase_2,go,800.0,450.0,2.0,,,,,,,,,gray,circle
0.0,4.0,4.0,0.0,5.0,1.0,305.9924510016572,7.0,1.0,phase_2,go,800.0,450.0,2.0,,,,,,,,,white,I
0.0,8.0,4.0,1.0,6.0,0.0,0.0,7.0,1.0,phase_2,stop,800.0,450.0,4.0,,,,,,,,,blue,cross
0.0,7.0,2.0,1.0,5.0,1.0,626.6906110104173,7.0,1.0,phase_2,stop,800.0,500.0,3.0,,,,,,,,,orange,square
0.0,5.0,0.5,1.0,5.0,0.0,0.0,7.0,1.0,phase_2,stop,750.0,500.0,4.0,,,,,,,,,yellow,flipped triangle
0.0,3.0,2.0,0.0,5.0,1.0,1023.1999149837063,7.0,1.0,phase_2,go,800.0,500.0,2.0,,,,,,,,,magenta,triangle
0.0,6.0,1.0,1.0,5.0,1.0,853.3921260095667,7.0,1.0,phase_2,stop,800.0,500.0,3.0,,,,,,,,,green,hexagon
0.0,6.0,1.0,1.0,6.0,0.0,0.0,7.0,1.0,phase_2,stop,750.0,500.0,4.0,,,,,,,,,green,hexagon
0.0,2.0,1.0,0.0,6.0,6.0,678.0942319892347,7.0,1.0,phase_2,go,750.0,550.0,1.0,,,,,,,,,gray,circle
0.0,7.0,2.0,1.0,6.0,0.0,0.0,7.0,1.0,phase_2,stop,750.0,550.0,4.0,,,,,,,,,orange,square
0.0,7.0,2.0,1.0,6.0,0.0,0.0,7.0,1.0,phase_2,go,750.0,600.0,5.0,,,,,,,,,orange,square
0.0,6.0,1.0,1.0,6.0,0.0,0.0,7.0,1.0,phase_2,stop,750.0,600.0,4.0,,,,,,,,,green,hexagon
0.0,1.0,0.5,0.0,5.0,1.0,1122.8864529985003,7.0,1.0,phase_2,go,750.0,650.0,2.0,,,,,,,,,cyan,diamond
0.0,1.0,0.5,0.0,6.0,6.0,513.2822129817214,7.0,1.0,phase_2,go,750.0,650.0,1.0,,,,,,,,,cyan,diamond
0.0,7.0,2.0,1.0,6.0,6.0,291.0396520164795,7.0,1.0,phase_2,stop,750.0,650.0,3.0,,,,,,,,,orange,square
0.0,3.0,2.0,0.0,5.0,1.0,346.7112639918923,7.0,1.0,phase_2,go,750.0,600.0,2.0,,,,,,,,,magenta,triangle
0.0,3.0,2.0,0.0,5.0,1.0,640.8881789830048,7.0,1.0,phase_2,go,750.0,600.0,2.0,,,,,,,,,magenta,triangle
0.0,5.0,0.5,1.0,5.0,5.0,429.4068510062061,8.0,1.0,phase_2,go,750.0,600.0,1.0,,,,,,,,,yellow,flipped triangle
0.0,4.0,4.0,0.0,6.0,6.0,684.8319040145725,8.0,1.0,phase_2,go,750.0,600.0,1.0,,,,,,,,,white,I
0.0,5.0,0.5,1.0,5.0,5.0,790.8628309960477,8.0,1.0,phase_2,go,750.0,600.0,1.0,,,,,,,,,yellow,flipped triangle
0.0,7.0,2.0,1.0,5.0,5.0,738.9416359947063,8.0,1.0,phase_2,go,750.0,600.0,1.0,,,,,,,,,orange,square
0.0,8.0,4.0,1.0,6.0,6.0,434.9631970108021,8.0,1.0,phase_2,stop,750.0,600.0,3.0,,,,,,,,,blue,cross
0.0,7.0,2.0,1.0,6.0,6.0,819.8241270147264,8.0,1.0,phase_2,go,750.0,550.0,1.0,,,,,,,,,orange,square
0.0,5.0,0.5,1.0,6.0,0.0,0.0,8.0,1.0,phase_2,stop,750.0,550.0,4.0,,,,,,,,,yellow,flipped triangle
0.0,1.0,0.5,0.0,5.0,5.0,760.9593969827984,8.0,1.0,phase_2,go,750.0,600.0,1.0,,,,,,,,,cyan,diamond
0.0,6.0,1.0,1.0,6.0,6.0,744.0831900166813,8.0,1.0,phase_2,go,750.0,600.0,1.0,,,,,,,,,green,hexagon
0.0,6.0,1.0,1.0,6.0,6.0,529.3721740017645,8.0,1.0,phase_2,stop,750.0,600.0,3.0,,,,,,,,,green,hexagon
0.0,6.0,1.0,1.0,5.0,5.0,447.033945005387,8.0,1.0,phase_2,stop,750.0,550.0,3.0,,,,,,,,,green,hexagon
0.0,3.0,2.0,0.0,5.0,5.0,870.7444679748733,8.0,1.0,phase_2,go,700.0,550.0,1.0,,,,,,,,,magenta,triangle
0.0,2.0,1.0,0.0,6.0,6.0,631.8580659863073,8.0,1.0,phase_2,go,700.0,550.0,1.0,,,,,,,,,gray,circle
0.0,6.0,1.0,1.0,6.0,0.0,0.0,8.0,1.0,phase_2,stop,700.0,550.0,4.0,,,,,,,,,green,hexagon
0.0,5.0,0.5,1.0,6.0,6.0,652.435115975095,8.0,1.0,phase_2,stop,700.0,600.0,3.0,,,,,,,,,yellow,flipped triangle
0.0,8.0,4.0,1.0,5.0,5.0,774.540211976273,8.0,1.0,phase_2,stop,700.0,550.0,3.0,,,,,,,,,blue,cross
0.0,2.0,1.0,0.0,6.0,6.0,610.8197220019065,8.0,1.0,phase_2,go,650.0,550.0,1.0,,,,,,,,,gray,circle
0.0,2.0,1.0,0.0,6.0,6.0,765.2510819898453,8.0,1.0,phase_2,go,650.0,550.0,1.0,,,,,,,,,gray,circle
0.0,8.0,4.0,1.0,6.0,6.0,450.5335100111551,8.0,1.0,phase_2,stop,650.0,550.0,3.0,,,,,,,,,blue,cross
0.0,6.0,1.0,1.0,5.0,5.0,708.1863680214155,8.0,1.0,phase_2,stop,650.0,500.0,3.0,,,,,,,,,green,hexagon
0.0,1.0,0.5,0.0,5.0,5.0,872.855631983839,8.0,1.0,phase_2,go,600.0,500.0,1.0,,,,,,,,,cyan,diamond
0.0,1.0,0.5,0.0,6.0,6.0,817.566269019153,8.0,1.0,phase_2,go,600.0,500.0,1.0,,,,,,,,,cyan,diamond
0.0,4.0,4.0,0.0,6.0,6.0,457.9550180060323,8.0,1.0,phase_2,go,600.0,500.0,1.0,,,,,,,,,white,I
0.0,1.0,0.5,0.0,6.0,6.0,840.040869981749,8.0,1.0,phase_2,go,600.0,500.0,1.0,,,,,,,,,cyan,diamond
0.0,5.0,0.5,1.0,5.0,0.0,0.0,8.0,1.0,phase_2,stop,600.0,500.0,4.0,,,,,,,,,yellow,flipped triangle
0.0,5.0,0.5,1.0,6.0,6.0,1222.1873639791738,8.0,1.0,phase_2,go,650.0,500.0,1.0,,,,,,,,,yellow,flipped triangle
0.0,4.0,4.0,0.0,5.0,5.0,584.9216869974043,8.0,1.0,phase_2,go,650.0,500.0,1.0,,,,,,,,,white,I
0.0,8.0,4.0,1.0,6.0,6.0,576.562186004594,8.0,1.0,phase_2,go,650.0,500.0,1.0,,,,,,,,,blue,cross
0.0,8.0,4.0,1.0,6.0,6.0,1116.28453200683,8.0,1.0,phase_2,stop,650.0,500.0,3.0,,,,,,,,,blue,cross
0.0,5.0,0.5,1.0,6.0,6.0,967.2100929892622,8.0,1.0,phase_2,go,650.0,450.0,1.0,,,,,,,,,yellow,flipped triangle
0.0,7.0,2.0,1.0,5.0,5.0,460.108417988522,8.0,1.0,phase_2,stop,650.0,450.0,3.0,,,,,,,,,orange,square
0.0,7.0,2.0,1.0,5.0,5.0,549.8132909997366,8.0,1.0,phase_2,stop,600.0,450.0,3.0,,,,,,,,,orange,square
0.0,2.0,1.0,0.0,5.0,5.0,523.2503360020928,8.0,1.0,phase_2,go,550.0,450.0,1.0,,,,,,,,,gray,circle
0.0,4.0,4.0,0.0,6.0,6.0,506.9125500158407,8.0,1.0,phase_2,go,550.0,450.0,1.0,,,,,,,,,white,I
0.0,3.0,2.0,0.0,6.0,6.0,920.9570740058552,8.0,1.0,phase_2,go,550.0,450.0,1.0,,,,,,,,,magenta,triangle
0.0,1.0,0.5,0.0,6.0,6.0,483.1288180139381,8.0,1.0,phase_2,go,550.0,450.0,1.0,,,,,,,,,cyan,diamond
0.0,7.0,2.0,1.0,7.0,2.0,4.8104659945238,1.0,1.0,phase_3,,,,,162.0,3.0,54.0,162.0,108.0,270.0,324.0,216.0,orange,square
0.0,3.0,2.0,0.0,7.0,6.0,2367.5414379977155,1.0,1.0,phase_3,,,,,147.0,3.0,294.0,49.0,98.0,245.0,196.0,147.0,magenta,triangle
0.0,4.0,4.0,0.0,7.0,1.0,2952.9834800050594,1.0,1.0,phase_3,,,,,117.0,3.0,117.0,195.0,39.0,156.0,78.0,234.0,white,I
0.0,6.0,1.0,1.0,7.0,4.0,2987.866192997899,1.0,1.0,phase_3,,,,,324.0,6.0,54.0,108.0,216.0,324.0,270.0,162.0,green,hexagon
0.0,6.0,1.0,1.0,7.0,5.0,2813.9264619967435,1.0,1.0,phase_3,,,,,216.0,4.0,270.0,54.0,324.0,162.0,216.0,108.0,green,hexagon
0.0,3.0,2.0,0.0,7.0,2.0,1270.1047319860663,1.0,1.0,phase_3,,,,,156.0,4.0,117.0,156.0,78.0,234.0,195.0,39.0,magenta,triangle
0.0,5.0,0.5,1.0,7.0,5.0,1528.106072015362,1.0,1.0,phase_3,,,,,68.0,2.0,102.0,170.0,136.0,204.0,68.0,34.0,yellow,flipped triangle
0.0,2.0,1.0,0.0,7.0,1.0,2297.2085919755045,1.0,1.0,phase_3,,,,,156.0,4.0,156.0,195.0,234.0,117.0,39.0,78.0,gray,circle
0.0,7.0,2.0,1.0,7.0,5.0,2171.6968110122248,1.0,1.0,phase_3,,,,,44.0,1.0,264.0,176.0,88.0,132.0,44.0,220.0,orange,square
0.0,1.0,0.5,0.0,7.0,6.0,1817.635286017321,1.0,1.0,phase_3,,,,,245.0,5.0,294.0,196.0,98.0,147.0,49.0,245.0,cyan,diamond
0.0,3.0,2.0,0.0,7.0,5.0,1603.9947060053237,1.0,1.0,phase_3,,,,,136.0,4.0,34.0,68.0,170.0,204.0,136.0,102.0,magenta,triangle
0.0,8.0,4.0,1.0,7.0,2.0,1512.298321002163,1.0,1.0,phase_3,,,,,136.0,4.0,102.0,136.0,170.0,68.0,204.0,34.0,blue,cross
0.0,5.0,0.5,1.0,7.0,1.0,1809.7681340004783,1.0,1.0,phase_3,,,,,156.0,4.0,156.0,117.0,78.0,39.0,195.0,234.0,yellow,flipped triangle
0.0,4.0,4.0,0.0,7.0,6.0,1639.9281930061989,1.0,1.0,phase_3,,,,,49.0,1.0,147.0,294.0,98.0,245.0,196.0,49.0,white,I
0.0,5.0,0.5,1.0,7.0,6.0,1720.6188710115384,1.0,1.0,phase_3,,,,,324.0,6.0,270.0,54.0,216.0,162.0,108.0,324.0,yellow,flipped triangle
0.0,8.0,4.0,1.0,7.0,2.0,2194.4329510151874,1.0,1.0,phase_3,,,,,156.0,4.0,117.0,156.0,78.0,39.0,195.0,234.0,blue,cross
0.0,3.0,2.0,0.0,7.0,6.0,2278.753687016433,1.0,1.0,phase_3,,,,,136.0,4.0,204.0,68.0,34.0,102.0,170.0,136.0,magenta,triangle
0.0,1.0,0.5,0.0,7.0,2.0,2277.8524119930808,1.0,1.0,phase_3,,,,,68.0,2.0,102.0,68.0,136.0,170.0,34.0,204.0,cyan,diamond
0.0,8.0,4.0,1.0,7.0,2.0,1495.6321729987394,1.0,1.0,phase_3,,,,,196.0,4.0,294.0,196.0,49.0,147.0,98.0,245.0,blue,cross
0.0,5.0,0.5,1.0,7.0,2.0,2690.1669329963624,1.0,1.0,phase_3,,,,,196.0,4.0,294.0,196.0,147.0,98.0,245.0,49.0,yellow,flipped triangle
0.0,4.0,4.0,0.0,7.0,6.0,2113.1971900176723,2.0,1.0,phase_3,,,,,234.0,6.0,78.0,195.0,156.0,39.0,117.0,234.0,white,I
0.0,2.0,1.0,0.0,7.0,6.0,2071.5787060034927,2.0,1.0,phase_3,,,,,245.0,5.0,49.0,196.0,147.0,294.0,98.0,245.0,gray,circle
0.0,2.0,1.0,0.0,7.0,1.0,1530.1419269817416,2.0,1.0,phase_3,,,,,132.0,3.0,132.0,264.0,220.0,88.0,176.0,44.0,gray,circle
0.0,8.0,4.0,1.0,7.0,6.0,1284.7964510146994,2.0,1.0,phase_3,,,,,270.0,5.0,216.0,54.0,108.0,324.0,162.0,270.0,blue,cross
0.0,1.0,0.5,0.0,7.0,5.0,1972.8305009775795,2.0,1.0,phase_3,,,,,147.0,3.0,294.0,196.0,98.0,49.0,147.0,245.0,cyan,diamond
0.0,7.0,2.0,1.0,7.0,5.0,1221.638631017413,2.0,1.0,phase_3,,,,,49.0,1.0,98.0,196.0,294.0,147.0,49.0,245.0,orange,square
0.0,5.0,0.5,1.0,7.0,6.0,1482.498556986684,2.0,1.0,phase_3,,,,,147.0,3.0,98.0,245.0,196.0,294.0,49.0,147.0,yellow,flipped triangle
0.0,6.0,1.0,1.0,7.0,5.0,1416.68155498337,2.0,1.0,phase_3,,,,,39.0,1.0,156.0,117.0,234.0,78.0,39.0,195.0,green,hexagon
0.0,7.0,2.0,1.0,7.0,6.0,1380.2897300047334,2.0,1.0,phase_3,,,,,136.0,4.0,34.0,170.0,204.0,102.0,68.0,136.0,orange,square
0.0,3.0,2.0,0.0,7.0,6.0,1498.6935710185207,2.0,1.0,phase_3,,,,,195.0,5.0,117.0,39.0,156.0,234.0,78.0,195.0,magenta,triangle
0.0,2.0,1.0,0.0,7.0,2.0,998.6258109856864,2.0,1.0,phase_3,,,,,216.0,4.0,162.0,216.0,270.0,54.0,324.0,108.0,gray,circle
0.0,2.0,1.0,0.0,7.0,6.0,1344.6351120073814,2.0,1.0,phase_3,,,,,204.0,6.0,68.0,136.0,34.0,102.0,170.0,204.0,gray,circle
0.0,2.0,1.0,0.0,7.0,5.0,1807.5419570086524,2.0,1.0,phase_3,,,,,195.0,5.0,78.0,117.0,156.0,39.0,195.0,234.0,gray,circle
0.0,1.0,0.5,0.0,7.0,5.0,1689.003945997683,2.0,1.0,phase_3,,,,,39.0,1.0,195.0,156.0,78.0,234.0,39.0,117.0,cyan,diamond
0.0,4.0,4.0,0.0,7.0,2.0,721.6756530106068,2.0,1.0,phase_3,,,,,220.0,5.0,176.0,220.0,264.0,44.0,132.0,88.0,white,I
0.0,7.0,2.0,1.0,7.0,3.0,1475.9335100243334,2.0,1.0,phase_3,,,,,156.0,4.0,195.0,117.0,156.0,234.0,39.0,78.0,orange,square
0.0,5.0,0.5,1.0,7.0,6.0,1508.1841840001289,2.0,1.0,phase_3,,,,,170.0,5.0,68.0,204.0,136.0,34.0,102.0,170.0,yellow,flipped triangle
0.0,2.0,1.0,0.0,7.0,6.0,2374.184640997555,2.0,1.0,phase_3,,,,,176.0,4.0,44.0,132.0,88.0,220.0,264.0,176.0,gray,circle
0.0,6.0,1.0,1.0,7.0,6.0,1376.5410899941344,2.0,1.0,phase_3,,,,,136.0,4.0,68.0,204.0,170.0,34.0,102.0,136.0,green,hexagon
0.0,5.0,0.5,1.0,7.0,6.0,1354.153766995296,2.0,1.0,phase_3,,,,,220.0,5.0,264.0,88.0,176.0,44.0,132.0,220.0,yellow,flipped triangle
0.0,7.0,2.0,1.0,7.0,6.0,1868.7806280213408,3.0,1.0,phase_3,,,,,196.0,4.0,245.0,49.0,147.0,294.0,98.0,196.0,orange,square
0.0,6.0,1.0,1.0,7.0,5.0,1402.270986000076,3.0,1.0,phase_3,,,,,195.0,5.0,78.0,156.0,234.0,39.0,195.0,117.0,green,hexagon
0.0,3.0,2.0,0.0,7.0,3.0,1363.232217001496,3.0,1.0,phase_3,,,,,216.0,4.0,108.0,162.0,216.0,54.0,270.0,324.0,magenta,triangle
0.0,8.0,4.0,1.0,7.0,2.0,1522.2736099967733,3.0,1.0,phase_3,,,,,270.0,5.0,324.0,270.0,108.0,54.0,216.0,162.0,blue,cross
0.0,1.0,0.5,0.0,7.0,3.0,1243.722632993013,3.0,1.0,phase_3,,,,,162.0,3.0,270.0,324.0,162.0,54.0,108.0,216.0,cyan,diamond
0.0,3.0,2.0,0.0,7.0,6.0,1382.1256939845623,3.0,1.0,phase_3,,,,,176.0,4.0,220.0,132.0,44.0,88.0,264.0,176.0,magenta,triangle
0.0,1.0,0.5,0.0,7.0,4.0,1871.4054220181424,3.0,1.0,phase_3,,,,,88.0,2.0,132.0,220.0,176.0,88.0,44.0,264.0,cyan,diamond
0.0,7.0,2.0,1.0,7.0,2.0,1680.902980006067,3.0,1.0,phase_3,,,,,162.0,3.0,324.0,162.0,216.0,108.0,54.0,270.0,orange,square
0.0,4.0,4.0,0.0,7.0,6.0,1627.4291980080309,3.0,1.0,phase_3,,,,,162.0,3.0,324.0,54.0,108.0,270.0,216.0,162.0,white,I
0.0,8.0,4.0,1.0,7.0,6.0,1177.243574988097,3.0,1.0,phase_3,,,,,132.0,3.0,88.0,44.0,264.0,220.0,176.0,132.0,blue,cross
0.0,4.0,4.0,0.0,7.0,6.0,2541.6945759789087,3.0,1.0,phase_3,,,,,170.0,5.0,34.0,204.0,68.0,102.0,136.0,170.0,white,I
0.0,4.0,4.0,0.0,7.0,3.0,2111.5853170049377,3.0,1.0,phase_3,,,,,132.0,3.0,44.0,88.0,132.0,176.0,220.0,264.0,white,I
0.0,4.0,4.0,0.0,7.0,2.0,951.5037060191388,3.0,1.0,phase_3,,,,,147.0,3.0,245.0,147.0,98.0,49.0,294.0,196.0,white,I
0.0,6.0,1.0,1.0,7.0,6.0,1279.5929350249935,3.0,1.0,phase_3,,,,,132.0,3.0,44.0,220.0,176.0,264.0,88.0,132.0,green,hexagon
0.0,8.0,4.0,1.0,7.0,3.0,1399.9522119993344,3.0,1.0,phase_3,,,,,156.0,4.0,78.0,117.0,156.0,39.0,195.0,234.0,blue,cross
0.0,1.0,0.5,0.0,7.0,3.0,1777.6936930022202,3.0,1.0,phase_3,,,,,102.0,3.0,136.0,204.0,102.0,170.0,34.0,68.0,cyan,diamond
0.0,7.0,2.0,1.0,7.0,4.0,1270.995811006287,3.0,1.0,phase_3,,,,,136.0,4.0,170.0,102.0,68.0,136.0,34.0,204.0,orange,square
0.0,5.0,0.5,1.0,7.0,5.0,1636.1146249982994,3.0,1.0,phase_3,,,,,270.0,5.0,324.0,162.0,54.0,108.0,270.0,216.0,yellow,flipped triangle
0.0,6.0,1.0,1.0,7.0,4.0,1751.5452920051755,3.0,1.0,phase_3,,,,,176.0,4.0,220.0,132.0,264.0,176.0,44.0,88.0,green,hexagon
0.0,7.0,2.0,1.0,7.0,6.0,1320.8958650066052,3.0,1.0,phase_3,,,,,132.0,3.0,220.0,176.0,88.0,264.0,44.0,132.0,orange,square
0.0,4.0,4.0,0.0,7.0,6.0,1490.3812719858252,4.0,1.0,phase_3,,,,,204.0,6.0,68.0,34.0,170.0,102.0,136.0,204.0,white,I
0.0,6.0,1.0,1.0,7.0,1.0,1266.0239870019725,4.0,1.0,phase_3,,,,,170.0,5.0,170.0,34.0,68.0,102.0,204.0,136.0,green,hexagon
0.0,2.0,1.0,0.0,7.0,6.0,1701.581739995163,4.0,1.0,phase_3,,,,,136.0,4.0,102.0,204.0,170.0,34.0,68.0,136.0,gray,circle
0.0,2.0,1.0,0.0,7.0,5.0,1556.350836995989,4.0,1.0,phase_3,,,,,270.0,5.0,108.0,54.0,216.0,162.0,270.0,324.0,gray,circle
0.0,8.0,4.0,1.0,7.0,6.0,1237.6614630047698,4.0,1.0,phase_3,,,,,204.0,6.0,102.0,34.0,170.0,68.0,136.0,204.0,blue,cross
0.0,3.0,2.0,0.0,7.0,6.0,1656.575225002598,4.0,1.0,phase_3,,,,,147.0,3.0,98.0,245.0,49.0,294.0,196.0,147.0,magenta,triangle
0.0,1.0,0.5,0.0,7.0,1.0,1753.2803500071168,4.0,1.0,phase_3,,,,,132.0,3.0,132.0,44.0,176.0,88.0,220.0,264.0,cyan,diamond
0.0,5.0,0.5,1.0,7.0,2.0,1836.7060070158916,4.0,1.0,phase_3,,,,,176.0,4.0,132.0,176.0,88.0,44.0,220.0,264.0,yellow,flipped triangle
0.0,4.0,4.0,0.0,7.0,5.0,509.71328900777735,4.0,1.0,phase_3,,,,,108.0,2.0,324.0,270.0,54.0,162.0,108.0,216.0,white,I
0.0,1.0,0.5,0.0,7.0,5.0,748.7587140058167,4.0,1.0,phase_3,,,,,117.0,3.0,78.0,234.0,156.0,39.0,117.0,195.0,cyan,diamond
0.0,5.0,0.5,1.0,7.0,6.0,1049.280169012491,4.0,1.0,phase_3,,,,,195.0,5.0,117.0,39.0,234.0,156.0,78.0,195.0,yellow,flipped triangle
0.0,8.0,4.0,1.0,7.0,5.0,426.2696000223513,4.0,1.0,phase_3,,,,,147.0,3.0,294.0,49.0,98.0,196.0,147.0,245.0,blue,cross
0.0,6.0,1.0,1.0,7.0,1.0,1395.1788849954028,4.0,1.0,phase_3,,,,,245.0,5.0,245.0,294.0,147.0,98.0,196.0,49.0,green,hexagon
0.0,3.0,2.0,0.0,7.0,6.0,1098.1220740068238,4.0,1.0,phase_3,,,,,264.0,6.0,176.0,132.0,220.0,44.0,88.0,264.0,magenta,triangle
0.0,8.0,4.0,1.0,7.0,2.0,1067.8602760017384,4.0,1.0,phase_3,,,,,176.0,4.0,88.0,176.0,132.0,220.0,264.0,44.0,blue,cross
0.0,6.0,1.0,1.0,7.0,6.0,1781.896175991278,4.0,1.0,phase_3,,,,,245.0,5.0,294.0,49.0,196.0,98.0,147.0,245.0,green,hexagon
0.0,3.0,2.0,0.0,7.0,1.0,1694.2783370031975,4.0,1.0,phase_3,,,,,216.0,4.0,216.0,108.0,324.0,162.0,54.0,270.0,magenta,triangle
0.0,1.0,0.5,0.0,7.0,6.0,1687.4792309827171,4.0,1.0,phase_3,,,,,162.0,3.0,324.0,54.0,270.0,216.0,108.0,162.0,cyan,diamond
0.0,2.0,1.0,0.0,7.0,3.0,1801.4782420068516,4.0,1.0,phase_3,,,,,147.0,3.0,245.0,196.0,147.0,49.0,294.0,98.0,gray,circle
0.0,7.0,2.0,1.0,7.0,6.0,1596.2769059988204,4.0,1.0,phase_3,,,,,195.0,5.0,117.0,39.0,78.0,156.0,234.0,195.0,orange,square
