raw_reward_magnitude,stim_reward,stepwise_reward_magnitude,paired_with_stopping,stim_location,response,reaction_time,block,num_trial_presentations,which_phase,stop_signal_trial_type,left_SSD,right_SSD,accuracy,chosen_bidding_amount,chosen_bidding_level,possible_bid_1,possible_bid_2,possible_bid_3,possible_bid_4,possible_bid_5,possible_bid_6,color_text,shape_text
25.0,1.0,1.0,0.0,4.0,4.0,584.9433079999926,1.0,1.0,phase_1,,,,,,,,,,,,,white,flipped triangle
0.0,1.0,0.0,0.0,3.0,3.0,540.59117099996,1.0,1.0,phase_1,,,,,,,,,,,,,white,flipped triangle
176.0,7.0,3.0,1.0,4.0,4.0,451.8054089999168,1.0,1.0,phase_1,,,,,,,,,,,,,green,triangle
422.0,8.0,4.0,1.0,1.0,1.0,381.0082049999437,1.0,1.0,phase_1,,,,,,,,,,,,,cyan,circle
76.0,6.0,2.0,1.0,3.0,3.0,306.1897599998247,1.0,1.0,phase_1,,,,,,,,,,,,,orange,hexagon
184.0,3.0,3.0,0.0,1.0,1.0,386.5303850000146,1.0,1.0,phase_1,,,,,,,,,,,,,magenta,I
60.0,5.0,1.0,1.0,3.0,3.0,335.1389509998626,1.0,1.0,phase_1,,,,,,,,,,,,,gray,square
78.0,6.0,2.0,1.0,4.0,4.0,281.2461739999889,1.0,1.0,phase_1,,,,,,,,,,,,,orange,hexagon
0.0,5.0,0.0,1.0,3.0,3.0,340.9801810000772,1.0,1.0,phase_1,,,,,,,,,,,,,gray,square
212.0,3.0,3.0,0.0,1.0,1.0,300.7534379999015,1.0,1.0,phase_1,,,,,,,,,,,,,magenta,I
94.0,2.0,2.0,0.0,1.0,1.0,311.6961799998989,1.0,1.0,phase_1,,,,,,,,,,,,,blue,cross
218.0,3.0,3.0,0.0,1.0,1.0,308.0632409998998,1.0,1.0,phase_1,,,,,,,,,,,,,magenta,I
225.0,3.0,3.0,0.0,4.0,4.0,297.2960820000025,1.0,1.0,phase_1,,,,,,,,,,,,,magenta,I
0.0,7.0,0.0,1.0,1.0,1.0,269.711197000106,1.0,1.0,phase_1,,,,,,,,,,,,,green,triangle
0.0,6.0,0.0,1.0,1.0,1.0,312.7125260000412,1.0,1.0,phase_1,,,,,,,,,,,,,orange,hexagon
63.0,5.0,1.0,1.0,3.0,3.0,334.0858980000121,1.0,1.0,phase_1,,,,,,,,,,,,,gray,square
0.0,4.0,0.0,0.0,2.0,2.0,306.0416210000767,1.0,1.0,phase_1,,,,,,,,,,,,,yellow,diamond
413.0,8.0,4.0,1.0,3.0,3.0,313.7536670001282,1.0,1.0,phase_1,,,,,,,,,,,,,cyan,circle
64.0,5.0,1.0,1.0,1.0,1.0,284.3225310000434,1.0,1.0,phase_1,,,,,,,,,,,,,gray,square
63.0,5.0,1.0,1.0,2.0,2.0,282.4943729999631,1.0,1.0,phase_1,,,,,,,,,,,,,gray,square
0.0,7.0,0.0,1.0,2.0,2.0,276.5990399998372,1.0,1.0,phase_1,,,,,,,,,,,,,green,triangle
114.0,6.0,2.0,1.0,4.0,4.0,313.5006720001456,1.0,1.0,phase_1,,,,,,,,,,,,,orange,hexagon
29.0,1.0,1.0,0.0,3.0,3.0,264.1191699999581,1.0,1.0,phase_1,,,,,,,,,,,,,white,flipped triangle
178.0,7.0,3.0,1.0,2.0,2.0,269.6786720000546,1.0,1.0,phase_1,,,,,,,,,,,,,green,triangle
404.0,8.0,4.0,1.0,3.0,3.0,289.8832359999232,1.0,1.0,phase_1,,,,,,,,,,,,,cyan,circle
180.0,7.0,3.0,1.0,3.0,3.0,291.6442810001172,1.0,2.0,phase_1,,,,,,,,,,,,,green,triangle
209.0,7.0,3.0,1.0,2.0,2.0,296.5032659999451,1.0,1.0,phase_1,,,,,,,,,,,,,green,triangle
37.0,5.0,1.0,1.0,3.0,3.0,275.8435319999535,1.0,1.0,phase_1,,,,,,,,,,,,,gray,square
196.0,7.0,3.0,1.0,4.0,4.0,326.6398089999711,1.0,1.0,phase_1,,,,,,,,,,,,,green,triangle
215.0,7.0,3.0,1.0,2.0,2.0,308.5104730000694,1.0,1.0,phase_1,,,,,,,,,,,,,green,triangle
93.0,6.0,2.0,1.0,4.0,4.0,342.5729470000078,1.0,2.0,phase_1,,,,,,,,,,,,,orange,hexagon
176.0,3.0,3.0,0.0,4.0,4.0,321.4731699999902,1.0,1.0,phase_1,,,,,,,,,,,,,magenta,I
224.0,3.0,3.0,0.0,3.0,3.0,320.6751739999163,1.0,1.0,phase_1,,,,,,,,,,,,,magenta,I
73.0,1.0,1.0,0.0,4.0,4.0,308.0950810001468,1.0,1.0,phase_1,,,,,,,,,,,,,white,flipped triangle
79.0,2.0,2.0,0.0,3.0,3.0,344.4736210001338,1.0,1.0,phase_1,,,,,,,,,,,,,blue,cross
397.0,4.0,4.0,0.0,2.0,2.0,405.688611999949,1.0,1.0,phase_1,,,,,,,,,,,,,yellow,diamond
0.0,6.0,0.0,1.0,1.0,1.0,415.8368850000897,1.0,2.0,phase_1,,,,,,,,,,,,,orange,hexagon
52.0,1.0,1.0,0.0,1.0,1.0,523.8498840001284,1.0,1.0,phase_1,,,,,,,,,,,,,white,flipped triangle
117.0,2.0,2.0,0.0,3.0,3.0,321.3426699999218,1.0,1.0,phase_1,,,,,,,,,,,,,blue,cross
419.0,8.0,4.0,1.0,3.0,3.0,309.3965289999687,1.0,1.0,phase_1,,,,,,,,,,,,,cyan,circle
0.0,2.0,0.0,0.0,4.0,4.0,361.3038020000658,1.0,1.0,phase_1,,,,,,,,,,,,,blue,cross
0.0,8.0,0.0,1.0,2.0,2.0,334.0435709999383,1.0,1.0,phase_1,,,,,,,,,,,,,cyan,circle
418.0,8.0,4.0,1.0,4.0,4.0,356.6921029998866,1.0,1.0,phase_1,,,,,,,,,,,,,cyan,circle
405.0,4.0,4.0,0.0,2.0,2.0,312.6572510000187,1.0,1.0,phase_1,,,,,,,,,,,,,yellow,diamond
0.0,3.0,0.0,0.0,3.0,3.0,315.5493819999719,1.0,1.0,phase_1,,,,,,,,,,,,,magenta,I
25.0,5.0,1.0,1.0,2.0,2.0,441.7197570001008,1.0,1.0,phase_1,,,,,,,,,,,,,gray,square
117.0,6.0,2.0,1.0,2.0,2.0,340.1968149998993,1.0,1.0,phase_1,,,,,,,,,,,,,orange,hexagon
111.0,2.0,2.0,0.0,2.0,2.0,300.8491339999182,1.0,1.0,phase_1,,,,,,,,,,,,,blue,cross
410.0,8.0,4.0,1.0,4.0,4.0,409.87123999980207,1.0,1.0,phase_1,,,,,,,,,,,,,cyan,circle
210.0,7.0,3.0,1.0,3.0,3.0,365.4612810000799,1.0,1.0,phase_1,,,,,,,,,,,,,green,triangle
58.0,5.0,1.0,1.0,2.0,2.0,313.4077790000447,1.0,1.0,phase_1,,,,,,,,,,,,,gray,square
221.0,7.0,3.0,1.0,2.0,2.0,276.3497819998974,1.0,1.0,phase_1,,,,,,,,,,,,,green,triangle
46.0,1.0,1.0,0.0,4.0,4.0,353.1945189999987,1.0,1.0,phase_1,,,,,,,,,,,,,white,flipped triangle
177.0,7.0,3.0,1.0,2.0,2.0,248.6601460000201,1.0,1.0,phase_1,,,,,,,,,,,,,green,triangle
188.0,3.0,3.0,0.0,4.0,4.0,332.8245840000363,1.0,1.0,phase_1,,,,,,,,,,,,,magenta,I
0.0,8.0,0.0,1.0,2.0,2.0,247.4683259999892,1.0,1.0,phase_1,,,,,,,,,,,,,cyan,circle
0.0,4.0,0.0,0.0,3.0,3.0,316.3422840000294,1.0,1.0,phase_1,,,,,,,,,,,,,yellow,diamond
46.0,5.0,1.0,1.0,2.0,2.0,344.1458429999784,1.0,1.0,phase_1,,,,,,,,,,,,,gray,square
81.0,2.0,2.0,0.0,1.0,1.0,348.7042289998499,1.0,1.0,phase_1,,,,,,,,,,,,,blue,cross
106.0,2.0,2.0,0.0,4.0,4.0,301.2832990000333,1.0,1.0,phase_1,,,,,,,,,,,,,blue,cross
0.0,5.0,0.0,1.0,3.0,3.0,289.3084989998442,1.0,1.0,phase_1,,,,,,,,,,,,,gray,square
28.0,5.0,1.0,1.0,2.0,2.0,252.42374899994502,1.0,1.0,phase_1,,,,,,,,,,,,,gray,square
64.0,1.0,1.0,0.0,1.0,1.0,274.5942320000267,1.0,1.0,phase_1,,,,,,,,,,,,,white,flipped triangle
413.0,8.0,4.0,1.0,3.0,3.0,284.9163829998815,1.0,1.0,phase_1,,,,,,,,,,,,,cyan,circle
0.0,2.0,0.0,0.0,1.0,1.0,305.2947440000935,1.0,1.0,phase_1,,,,,,,,,,,,,blue,cross
204.0,3.0,3.0,0.0,2.0,2.0,293.7842960000125,1.0,1.0,phase_1,,,,,,,,,,,,,magenta,I
99.0,6.0,2.0,1.0,2.0,2.0,292.7995930001543,1.0,1.0,phase_1,,,,,,,,,,,,,orange,hexagon
120.0,2.0,2.0,0.0,3.0,3.0,281.3861699999052,1.0,1.0,phase_1,,,,,,,,,,,,,blue,cross
381.0,8.0,4.0,1.0,2.0,2.0,284.3519399998513,1.0,1.0,phase_1,,,,,,,,,,,,,cyan,circle
218.0,7.0,3.0,1.0,3.0,3.0,426.7925209999248,1.0,1.0,phase_1,,,,,,,,,,,,,green,triangle
0.0,6.0,0.0,1.0,3.0,3.0,335.0220740001077,1.0,1.0,phase_1,,,,,,,,,,,,,orange,hexagon
60.0,1.0,1.0,0.0,4.0,4.0,332.8253489999042,1.0,1.0,phase_1,,,,,,,,,,,,,white,flipped triangle
0.0,6.0,0.0,1.0,4.0,4.0,382.2890020001068,1.0,1.0,phase_1,,,,,,,,,,,,,orange,hexagon
204.0,7.0,3.0,1.0,3.0,3.0,309.9259809998784,1.0,1.0,phase_1,,,,,,,,,,,,,green,triangle
44.0,1.0,1.0,0.0,3.0,3.0,288.6829280000711,1.0,1.0,phase_1,,,,,,,,,,,,,white,flipped triangle
384.0,8.0,4.0,1.0,1.0,1.0,381.6951419998986,1.0,1.0,phase_1,,,,,,,,,,,,,cyan,circle
184.0,7.0,3.0,1.0,3.0,3.0,305.1933799999915,1.0,1.0,phase_1,,,,,,,,,,,,,green,triangle
41.0,1.0,1.0,0.0,3.0,3.0,306.1445260000255,1.0,1.0,phase_1,,,,,,,,,,,,,white,flipped triangle
0.0,3.0,0.0,0.0,4.0,4.0,301.4901609999469,1.0,1.0,phase_1,,,,,,,,,,,,,magenta,I
86.0,6.0,2.0,1.0,4.0,4.0,289.3563229999927,1.0,1.0,phase_1,,,,,,,,,,,,,orange,hexagon
48.0,1.0,1.0,0.0,1.0,1.0,406.0790610001277,1.0,1.0,phase_1,,,,,,,,,,,,,white,flipped triangle
381.0,4.0,4.0,0.0,1.0,1.0,320.508411999981,1.0,1.0,phase_1,,,,,,,,,,,,,yellow,diamond
390.0,4.0,4.0,0.0,2.0,2.0,293.389156999865,1.0,1.0,phase_1,,,,,,,,,,,,,yellow,diamond
42.0,1.0,1.0,0.0,2.0,2.0,282.2066569999606,1.0,1.0,phase_1,,,,,,,,,,,,,white,flipped triangle
97.0,2.0,2.0,0.0,2.0,2.0,305.8081589999801,1.0,1.0,phase_1,,,,,,,,,,,,,blue,cross
407.0,4.0,4.0,0.0,4.0,4.0,308.3735109998997,1.0,1.0,phase_1,,,,,,,,,,,,,yellow,diamond
61.0,5.0,1.0,1.0,1.0,1.0,274.5955969999158,1.0,1.0,phase_1,,,,,,,,,,,,,gray,square
0.0,1.0,0.0,0.0,2.0,2.0,263.533796000047,1.0,1.0,phase_1,,,,,,,,,,,,,white,flipped triangle
0.0,5.0,0.0,1.0,1.0,1.0,266.2558490001174,1.0,1.0,phase_1,,,,,,,,,,,,,gray,square
0.0,2.0,0.0,0.0,1.0,1.0,278.6402660001386,1.0,1.0,phase_1,,,,,,,,,,,,,blue,cross
120.0,6.0,2.0,1.0,4.0,4.0,309.6890819999771,1.0,1.0,phase_1,,,,,,,,,,,,,orange,hexagon
0.0,3.0,0.0,0.0,2.0,2.0,266.3919869999063,1.0,1.0,phase_1,,,,,,,,,,,,,magenta,I
116.0,2.0,2.0,0.0,2.0,2.0,268.3693139999832,1.0,1.0,phase_1,,,,,,,,,,,,,blue,cross
35.0,5.0,1.0,1.0,4.0,4.0,328.7324959999296,1.0,1.0,phase_1,,,,,,,,,,,,,gray,square
71.0,5.0,1.0,1.0,4.0,4.0,326.2527120000413,1.0,1.0,phase_1,,,,,,,,,,,,,gray,square
389.0,8.0,4.0,1.0,2.0,2.0,298.2038449999891,1.0,1.0,phase_1,,,,,,,,,,,,,cyan,circle
380.0,4.0,4.0,0.0,3.0,3.0,298.764834999929,1.0,1.0,phase_1,,,,,,,,,,,,,yellow,diamond
0.0,1.0,0.0,0.0,1.0,1.0,262.2658560001127,1.0,1.0,phase_1,,,,,,,,,,,,,white,flipped triangle
412.0,8.0,4.0,1.0,2.0,2.0,264.391569000054,1.0,1.0,phase_1,,,,,,,,,,,,,cyan,circle
0.0,6.0,0.0,1.0,2.0,2.0,256.3200939998751,1.0,1.0,phase_1,,,,,,,,,,,,,orange,hexagon
391.0,8.0,4.0,1.0,1.0,1.0,411.1817109999265,2.0,1.0,phase_1,,,,,,,,,,,,,cyan,circle
44.0,5.0,1.0,1.0,1.0,1.0,293.1599119999646,2.0,1.0,phase_1,,,,,,,,,,,,,gray,square
384.0,4.0,4.0,0.0,1.0,1.0,290.6383079998704,2.0,1.0,phase_1,,,,,,,,,,,,,yellow,diamond
94.0,6.0,2.0,1.0,4.0,4.0,319.7011270001439,2.0,1.0,phase_1,,,,,,,,,,,,,orange,hexagon
209.0,3.0,3.0,0.0,4.0,4.0,386.8500640001002,2.0,1.0,phase_1,,,,,,,,,,,,,magenta,I
194.0,3.0,3.0,0.0,1.0,1.0,297.9974570000649,2.0,1.0,phase_1,,,,,,,,,,,,,magenta,I
0.0,3.0,0.0,0.0,2.0,2.0,276.0754359999282,2.0,1.0,phase_1,,,,,,,,,,,,,magenta,I
63.0,1.0,1.0,0.0,2.0,2.0,272.2842069999842,2.0,1.0,phase_1,,,,,,,,,,,,,white,flipped triangle
102.0,6.0,2.0,1.0,3.0,3.0,308.4553539999888,2.0,1.0,phase_1,,,,,,,,,,,,,orange,hexagon
35.0,1.0,1.0,0.0,4.0,4.0,276.3276010000481,2.0,1.0,phase_1,,,,,,,,,,,,,white,flipped triangle
214.0,7.0,3.0,1.0,4.0,4.0,342.0406230000026,2.0,1.0,phase_1,,,,,,,,,,,,,green,triangle
104.0,6.0,2.0,1.0,1.0,1.0,292.9034409999076,2.0,1.0,phase_1,,,,,,,,,,,,,orange,hexagon
0.0,8.0,0.0,1.0,4.0,4.0,352.2300219999579,2.0,1.0,phase_1,,,,,,,,,,,,,cyan,circle
56.0,1.0,1.0,0.0,2.0,2.0,299.698613000146,2.0,1.0,phase_1,,,,,,,,,,,,,white,flipped triangle
376.0,8.0,4.0,1.0,4.0,4.0,321.893406999834,2.0,1.0,phase_1,,,,,,,,,,,,,cyan,circle
55.0,5.0,1.0,1.0,3.0,3.0,313.8021980000758,2.0,1.0,phase_1,,,,,,,,,,,,,gray,square
106.0,2.0,2.0,0.0,4.0,4.0,293.7005530000078,2.0,1.0,phase_1,,,,,,,,,,,,,blue,cross
175.0,7.0,3.0,1.0,3.0,3.0,298.9550199999939,2.0,1.0,phase_1,,,,,,,,,,,,,green,triangle
225.0,7.0,3.0,1.0,1.0,1.0,268.7888159998692,2.0,1.0,phase_1,,,,,,,,,,,,,green,triangle
201.0,7.0,3.0,1.0,2.0,2.0,272.1508919998996,2.0,1.0,phase_1,,,,,,,,,,,,,green,triangle
72.0,1.0,1.0,0.0,2.0,2.0,277.8590769999027,2.0,1.0,phase_1,,,,,,,,,,,,,white,flipped triangle
99.0,2.0,2.0,0.0,1.0,1.0,321.65758799988,2.0,1.0,phase_1,,,,,,,,,,,,,blue,cross
424.0,8.0,4.0,1.0,3.0,3.0,337.5871640000696,2.0,1.0,phase_1,,,,,,,,,,,,,cyan,circle
72.0,5.0,1.0,1.0,4.0,4.0,309.5627000000149,2.0,1.0,phase_1,,,,,,,,,,,,,gray,square
66.0,1.0,1.0,0.0,1.0,1.0,296.3766209998084,2.0,1.0,phase_1,,,,,,,,,,,,,white,flipped triangle
76.0,2.0,2.0,0.0,2.0,2.0,292.1791219998795,2.0,1.0,phase_1,,,,,,,,,,,,,blue,cross
114.0,6.0,2.0,1.0,3.0,3.0,297.9408520000106,2.0,1.0,phase_1,,,,,,,,,,,,,orange,hexagon
395.0,8.0,4.0,1.0,4.0,4.0,301.7062769999938,2.0,1.0,phase_1,,,,,,,,,,,,,cyan,circle
182.0,7.0,3.0,1.0,1.0,1.0,338.1492910000361,2.0,1.0,phase_1,,,,,,,,,,,,,green,triangle
27.0,5.0,1.0,1.0,4.0,4.0,295.9438080001746,2.0,1.0,phase_1,,,,,,,,,,,,,gray,square
205.0,7.0,3.0,1.0,4.0,4.0,279.9457999999504,2.0,1.0,phase_1,,,,,,,,,,,,,green,triangle
33.0,1.0,1.0,0.0,2.0,2.0,304.6001869997781,2.0,1.0,phase_1,,,,,,,,,,,,,white,flipped triangle
194.0,7.0,3.0,1.0,1.0,1.0,293.2219979998081,2.0,1.0,phase_1,,,,,,,,,,,,,green,triangle
103.0,2.0,2.0,0.0,1.0,1.0,291.787812999928,2.0,1.0,phase_1,,,,,,,,,,,,,blue,cross
384.0,8.0,4.0,1.0,2.0,2.0,286.6392450000603,2.0,1.0,phase_1,,,,,,,,,,,,,cyan,circle
106.0,6.0,2.0,1.0,3.0,3.0,318.9856519998102,2.0,1.0,phase_1,,,,,,,,,,,,,orange,hexagon
407.0,4.0,4.0,0.0,4.0,4.0,290.7639109998854,2.0,1.0,phase_1,,,,,,,,,,,,,yellow,diamond
419.0,8.0,4.0,1.0,2.0,2.0,295.0179060001119,2.0,1.0,phase_1,,,,,,,,,,,,,cyan,circle
123.0,2.0,2.0,0.0,2.0,2.0,272.8848669999024,2.0,1.0,phase_1,,,,,,,,,,,,,blue,cross
211.0,7.0,3.0,1.0,4.0,4.0,318.0383030000939,2.0,1.0,phase_1,,,,,,,,,,,,,green,triangle
0.0,4.0,0.0,0.0,3.0,3.0,309.9098209997919,2.0,1.0,phase_1,,,,,,,,,,,,,yellow,diamond
388.0,8.0,4.0,1.0,4.0,4.0,290.8940019999591,2.0,1.0,phase_1,,,,,,,,,,,,,cyan,circle
216.0,7.0,3.0,1.0,4.0,4.0,364.6381109999765,2.0,1.0,phase_1,,,,,,,,,,,,,green,triangle
220.0,7.0,3.0,1.0,4.0,4.0,313.608615000021,2.0,1.0,phase_1,,,,,,,,,,,,,green,triangle
0.0,7.0,0.0,1.0,4.0,4.0,287.3883579998164,2.0,1.0,phase_1,,,,,,,,,,,,,green,triangle
194.0,3.0,3.0,0.0,2.0,2.0,276.6529549999177,2.0,1.0,phase_1,,,,,,,,,,,,,magenta,I
125.0,6.0,2.0,1.0,2.0,2.0,271.0157440001239,2.0,1.0,phase_1,,,,,,,,,,,,,orange,hexagon
216.0,3.0,3.0,0.0,3.0,3.0,316.4097409999158,2.0,1.0,phase_1,,,,,,,,,,,,,magenta,I
66.0,5.0,1.0,1.0,2.0,2.0,257.1004489998358,2.0,1.0,phase_1,,,,,,,,,,,,,gray,square
376.0,4.0,4.0,0.0,4.0,4.0,293.3383590000176,2.0,1.0,phase_1,,,,,,,,,,,,,yellow,diamond
386.0,4.0,4.0,0.0,1.0,1.0,281.2943310000264,2.0,1.0,phase_1,,,,,,,,,,,,,yellow,diamond
0.0,7.0,0.0,1.0,4.0,4.0,280.1819639998939,2.0,1.0,phase_1,,,,,,,,,,,,,green,triangle
0.0,4.0,0.0,0.0,2.0,2.0,253.0468249999558,2.0,1.0,phase_1,,,,,,,,,,,,,yellow,diamond
199.0,7.0,3.0,1.0,3.0,3.0,290.6016619999718,2.0,1.0,phase_1,,,,,,,,,,,,,green,triangle
224.0,7.0,3.0,1.0,1.0,1.0,269.2399530001239,2.0,1.0,phase_1,,,,,,,,,,,,,green,triangle
175.0,3.0,3.0,0.0,1.0,1.0,251.65771199999648,2.0,1.0,phase_1,,,,,,,,,,,,,magenta,I
214.0,3.0,3.0,0.0,1.0,1.0,264.1784610000286,2.0,1.0,phase_1,,,,,,,,,,,,,magenta,I
28.0,1.0,1.0,0.0,4.0,4.0,309.7268469998653,2.0,1.0,phase_1,,,,,,,,,,,,,white,flipped triangle
204.0,7.0,3.0,1.0,1.0,1.0,241.0406090000378,2.0,1.0,phase_1,,,,,,,,,,,,,green,triangle
89.0,6.0,2.0,1.0,4.0,4.0,300.4967619999661,2.0,1.0,phase_1,,,,,,,,,,,,,orange,hexagon
118.0,6.0,2.0,1.0,1.0,1.0,272.2079289999328,2.0,1.0,phase_1,,,,,,,,,,,,,orange,hexagon
0.0,2.0,0.0,0.0,4.0,4.0,296.6169080000327,2.0,1.0,phase_1,,,,,,,,,,,,,blue,cross
204.0,3.0,3.0,0.0,2.0,2.0,285.5573720000848,2.0,1.0,phase_1,,,,,,,,,,,,,magenta,I
79.0,6.0,2.0,1.0,2.0,2.0,273.8923780000277,2.0,1.0,phase_1,,,,,,,,,,,,,orange,hexagon
93.0,2.0,2.0,0.0,3.0,3.0,311.1186989999623,2.0,1.0,phase_1,,,,,,,,,,,,,blue,cross
422.0,4.0,4.0,0.0,2.0,2.0,264.5064459998139,2.0,1.0,phase_1,,,,,,,,,,,,,yellow,diamond
36.0,5.0,1.0,1.0,3.0,3.0,309.5528819999344,2.0,1.0,phase_1,,,,,,,,,,,,,gray,square
51.0,5.0,1.0,1.0,3.0,3.0,307.1825150000222,2.0,1.0,phase_1,,,,,,,,,,,,,gray,square
423.0,8.0,4.0,1.0,4.0,4.0,330.4597100000137,2.0,2.0,phase_1,,,,,,,,,,,,,cyan,circle
51.0,5.0,1.0,1.0,3.0,3.0,338.4265489999052,2.0,1.0,phase_1,,,,,,,,,,,,,gray,square
63.0,1.0,1.0,0.0,4.0,4.0,259.9577070000123,2.0,1.0,phase_1,,,,,,,,,,,,,white,flipped triangle
413.0,4.0,4.0,0.0,3.0,3.0,289.2667700000402,2.0,1.0,phase_1,,,,,,,,,,,,,yellow,diamond
0.0,1.0,0.0,0.0,2.0,2.0,427.48830100003937,2.0,2.0,phase_1,,,,,,,,,,,,,white,flipped triangle
390.0,8.0,4.0,1.0,2.0,2.0,280.6262340000103,2.0,1.0,phase_1,,,,,,,,,,,,,cyan,circle
210.0,7.0,3.0,1.0,2.0,2.0,325.5529450000267,2.0,1.0,phase_1,,,,,,,,,,,,,green,triangle
111.0,6.0,2.0,1.0,1.0,1.0,393.746559000192,2.0,1.0,phase_1,,,,,,,,,,,,,orange,hexagon
65.0,5.0,1.0,1.0,1.0,1.0,374.3240620001415,2.0,1.0,phase_1,,,,,,,,,,,,,gray,square
0.0,5.0,0.0,1.0,1.0,1.0,381.0004100000697,2.0,1.0,phase_1,,,,,,,,,,,,,gray,square
101.0,2.0,2.0,0.0,4.0,4.0,542.9162379998616,2.0,1.0,phase_1,,,,,,,,,,,,,blue,cross
404.0,4.0,4.0,0.0,2.0,2.0,284.175518000211,2.0,1.0,phase_1,,,,,,,,,,,,,yellow,diamond
395.0,4.0,4.0,0.0,2.0,2.0,280.000211000015,2.0,1.0,phase_1,,,,,,,,,,,,,yellow,diamond
193.0,3.0,3.0,0.0,4.0,4.0,444.5274669999435,2.0,1.0,phase_1,,,,,,,,,,,,,magenta,I
37.0,1.0,1.0,0.0,3.0,3.0,346.3494210000135,2.0,1.0,phase_1,,,,,,,,,,,,,white,flipped triangle
375.0,4.0,4.0,0.0,4.0,4.0,319.8137880001468,2.0,1.0,phase_1,,,,,,,,,,,,,yellow,diamond
0.0,6.0,0.0,1.0,2.0,2.0,285.5559770000582,2.0,1.0,phase_1,,,,,,,,,,,,,orange,hexagon
51.0,1.0,1.0,0.0,1.0,1.0,337.1452000001227,2.0,1.0,phase_1,,,,,,,,,,,,,white,flipped triangle
396.0,4.0,4.0,0.0,1.0,1.0,284.6078459999717,2.0,1.0,phase_1,,,,,,,,,,,,,yellow,diamond
389.0,4.0,4.0,0.0,1.0,1.0,297.2335519998523,2.0,1.0,phase_1,,,,,,,,,,,,,yellow,diamond
423.0,4.0,4.0,0.0,4.0,4.0,464.4808030000149,2.0,1.0,phase_1,,,,,,,,,,,,,yellow,diamond
0.0,1.0,0.0,0.0,2.0,2.0,265.3416059999927,2.0,1.0,phase_1,,,,,,,,,,,,,white,flipped triangle
380.0,4.0,4.0,0.0,3.0,3.0,311.3835369999833,2.0,1.0,phase_1,,,,,,,,,,,,,yellow,diamond
419.0,4.0,4.0,0.0,4.0,4.0,364.1068590000031,2.0,1.0,phase_1,,,,,,,,,,,,,yellow,diamond
106.0,2.0,2.0,0.0,2.0,2.0,265.7469230000515,2.0,1.0,phase_1,,,,,,,,,,,,,blue,cross
0.0,8.0,0.0,1.0,1.0,1.0,293.1747090001408,2.0,1.0,phase_1,,,,,,,,,,,,,cyan,circle
207.0,3.0,3.0,0.0,3.0,3.0,289.4625999999789,2.0,1.0,phase_1,,,,,,,,,,,,,magenta,I
81.0,2.0,2.0,0.0,3.0,3.0,334.7714890001043,2.0,1.0,phase_1,,,,,,,,,,,,,blue,cross
0.0,3.0,0.0,0.0,1.0,1.0,300.9247630000118,2.0,1.0,phase_1,,,,,,,,,,,,,magenta,I
405.0,4.0,4.0,0.0,2.0,2.0,264.3814539999312,2.0,1.0,phase_1,,,,,,,,,,,,,yellow,diamond
407.0,8.0,4.0,1.0,3.0,3.0,309.9442099999123,2.0,1.0,phase_1,,,,,,,,,,,,,cyan,circle
0.0,2.0,0.0,0.0,3.0,3.0,296.4571449999766,2.0,1.0,phase_1,,,,,,,,,,,,,blue,cross
48.0,5.0,1.0,1.0,4.0,4.0,336.7800409998835,3.0,1.0,phase_1,,,,,,,,,,,,,gray,square
0.0,5.0,0.0,1.0,3.0,3.0,309.6051569998508,3.0,1.0,phase_1,,,,,,,,,,,,,gray,square
27.0,5.0,1.0,1.0,4.0,4.0,304.8867779998545,3.0,1.0,phase_1,,,,,,,,,,,,,gray,square
0.0,1.0,0.0,0.0,4.0,4.0,333.8186510000014,3.0,1.0,phase_1,,,,,,,,,,,,,white,flipped triangle
123.0,6.0,2.0,1.0,2.0,2.0,353.0299670001113,3.0,1.0,phase_1,,,,,,,,,,,,,orange,hexagon
196.0,3.0,3.0,0.0,1.0,1.0,352.8303549999236,3.0,1.0,phase_1,,,,,,,,,,,,,magenta,I
0.0,7.0,0.0,1.0,1.0,1.0,324.8884219999581,3.0,1.0,phase_1,,,,,,,,,,,,,green,triangle
398.0,8.0,4.0,1.0,4.0,4.0,398.0036030000065,3.0,1.0,phase_1,,,,,,,,,,,,,cyan,circle
0.0,3.0,0.0,0.0,3.0,3.0,330.6976579999627,3.0,1.0,phase_1,,,,,,,,,,,,,magenta,I
184.0,3.0,3.0,0.0,2.0,2.0,312.2206209998239,3.0,1.0,phase_1,,,,,,,,,,,,,magenta,I
417.0,4.0,4.0,0.0,2.0,2.0,293.0441379999138,3.0,1.0,phase_1,,,,,,,,,,,,,yellow,diamond
81.0,6.0,2.0,1.0,1.0,1.0,320.4681700001401,3.0,1.0,phase_1,,,,,,,,,,,,,orange,hexagon
56.0,1.0,1.0,0.0,1.0,1.0,334.0132040000299,3.0,1.0,phase_1,,,,,,,,,,,,,white,flipped triangle
0.0,7.0,0.0,1.0,3.0,3.0,365.1341879999563,3.0,1.0,phase_1,,,,,,,,,,,,,green,triangle
420.0,8.0,4.0,1.0,1.0,1.0,361.7188509999778,3.0,1.0,phase_1,,,,,,,,,,,,,cyan,circle
0.0,2.0,0.0,0.0,1.0,1.0,299.933282999973,3.0,1.0,phase_1,,,,,,,,,,,,,blue,cross
0.0,1.0,0.0,0.0,2.0,2.0,297.769591000133,3.0,1.0,phase_1,,,,,,,,,,,,,white,flipped triangle
110.0,2.0,2.0,0.0,2.0,2.0,318.8382739999724,3.0,1.0,phase_1,,,,,,,,,,,,,blue,cross
100.0,6.0,2.0,1.0,2.0,2.0,281.1831030001031,3.0,1.0,phase_1,,,,,,,,,,,,,orange,hexagon
37.0,5.0,1.0,1.0,2.0,2.0,296.6740419999496,3.0,1.0,phase_1,,,,,,,,,,,,,gray,square
55.0,1.0,1.0,0.0,1.0,1.0,276.7624489999889,3.0,1.0,phase_1,,,,,,,,,,,,,white,flipped triangle
419.0,4.0,4.0,0.0,4.0,4.0,321.7511699999704,3.0,1.0,phase_1,,,,,,,,,,,,,yellow,diamond
61.0,1.0,1.0,0.0,3.0,3.0,359.5058440000684,3.0,1.0,phase_1,,,,,,,,,,,,,white,flipped triangle
71.0,1.0,1.0,0.0,2.0,2.0,289.171720000013,3.0,1.0,phase_1,,,,,,,,,,,,,white,flipped triangle
386.0,8.0,4.0,1.0,4.0,4.0,349.587258999918,3.0,1.0,phase_1,,,,,,,,,,,,,cyan,circle
81.0,2.0,2.0,0.0,4.0,4.0,326.5457279999282,3.0,1.0,phase_1,,,,,,,,,,,,,blue,cross
125.0,2.0,2.0,0.0,1.0,1.0,334.8600249998981,3.0,1.0,phase_1,,,,,,,,,,,,,blue,cross
0.0,3.0,0.0,0.0,2.0,2.0,292.9020100000343,3.0,1.0,phase_1,,,,,,,,,,,,,magenta,I
214.0,7.0,3.0,1.0,1.0,1.0,330.7273819998499,3.0,1.0,phase_1,,,,,,,,,,,,,green,triangle
404.0,4.0,4.0,0.0,4.0,4.0,342.2485340001913,3.0,1.0,phase_1,,,,,,,,,,,,,yellow,diamond
194.0,7.0,3.0,1.0,1.0,1.0,293.5105110000222,3.0,1.0,phase_1,,,,,,,,,,,,,green,triangle
101.0,6.0,2.0,1.0,2.0,2.0,288.700026000015,3.0,1.0,phase_1,,,,,,,,,,,,,orange,hexagon
47.0,5.0,1.0,1.0,1.0,1.0,301.547174999996,3.0,1.0,phase_1,,,,,,,,,,,,,gray,square
41.0,5.0,1.0,1.0,3.0,3.0,362.7691690001029,3.0,1.0,phase_1,,,,,,,,,,,,,gray,square
0.0,1.0,0.0,0.0,4.0,4.0,301.7359430000397,3.0,1.0,phase_1,,,,,,,,,,,,,white,flipped triangle
0.0,7.0,0.0,1.0,3.0,3.0,347.2724279999966,3.0,1.0,phase_1,,,,,,,,,,,,,green,triangle
33.0,5.0,1.0,1.0,2.0,2.0,281.8797029999587,3.0,1.0,phase_1,,,,,,,,,,,,,gray,square
200.0,7.0,3.0,1.0,4.0,4.0,277.8297639999891,3.0,1.0,phase_1,,,,,,,,,,,,,green,triangle
0.0,8.0,0.0,1.0,4.0,4.0,395.1080839999576,3.0,1.0,phase_1,,,,,,,,,,,,,cyan,circle
214.0,3.0,3.0,0.0,3.0,3.0,312.0710719999806,3.0,1.0,phase_1,,,,,,,,,,,,,magenta,I
0.0,4.0,0.0,0.0,3.0,3.0,332.9340279999542,3.0,1.0,phase_1,,,,,,,,,,,,,yellow,diamond
423.0,8.0,4.0,1.0,3.0,3.0,505.72493000004215,3.0,1.0,phase_1,,,,,,,,,,,,,cyan,circle
27.0,1.0,1.0,0.0,1.0,1.0,332.5656469999103,3.0,1.0,phase_1,,,,,,,,,,,,,white,flipped triangle
93.0,6.0,2.0,1.0,1.0,1.0,279.582770999923,3.0,1.0,phase_1,,,,,,,,,,,,,orange,hexagon
106.0,6.0,2.0,1.0,2.0,2.0,276.2677279999934,3.0,1.0,phase_1,,,,,,,,,,,,,orange,hexagon
188.0,7.0,3.0,1.0,4.0,4.0,260.1096900000357,3.0,1.0,phase_1,,,,,,,,,,,,,green,triangle
106.0,6.0,2.0,1.0,4.0,4.0,269.4544460000543,3.0,1.0,phase_1,,,,,,,,,,,,,orange,hexagon
81.0,2.0,2.0,0.0,2.0,2.0,285.5368410000665,3.0,1.0,phase_1,,,,,,,,,,,,,blue,cross
225.0,3.0,3.0,0.0,1.0,1.0,342.2336950000044,3.0,2.0,phase_1,,,,,,,,,,,,,magenta,I
0.0,6.0,0.0,1.0,3.0,3.0,321.0466419998283,3.0,1.0,phase_1,,,,,,,,,,,,,orange,hexagon
0.0,1.0,0.0,0.0,1.0,1.0,292.2346969999125,3.0,1.0,phase_1,,,,,,,,,,,,,white,flipped triangle
0.0,7.0,0.0,1.0,1.0,1.0,297.1953799999483,3.0,1.0,phase_1,,,,,,,,,,,,,green,triangle
424.0,4.0,4.0,0.0,1.0,1.0,289.6580720000656,3.0,1.0,phase_1,,,,,,,,,,,,,yellow,diamond
380.0,8.0,4.0,1.0,2.0,2.0,284.3588030000319,3.0,1.0,phase_1,,,,,,,,,,,,,cyan,circle
89.0,2.0,2.0,0.0,4.0,4.0,304.9138740000217,3.0,1.0,phase_1,,,,,,,,,,,,,blue,cross
194.0,3.0,3.0,0.0,2.0,2.0,285.7613619999029,3.0,1.0,phase_1,,,,,,,,,,,,,magenta,I
0.0,5.0,0.0,1.0,1.0,1.0,297.6438350001444,3.0,1.0,phase_1,,,,,,,,,,,,,gray,square
210.0,3.0,3.0,0.0,4.0,4.0,316.8931919999522,3.0,1.0,phase_1,,,,,,,,,,,,,magenta,I
94.0,6.0,2.0,1.0,2.0,2.0,332.8483820000656,3.0,1.0,phase_1,,,,,,,,,,,,,orange,hexagon
0.0,4.0,0.0,0.0,4.0,4.0,354.0606639999168,3.0,1.0,phase_1,,,,,,,,,,,,,yellow,diamond
405.0,8.0,4.0,1.0,2.0,2.0,291.3146219998452,3.0,1.0,phase_1,,,,,,,,,,,,,cyan,circle
116.0,6.0,2.0,1.0,3.0,3.0,336.5914020000673,3.0,1.0,phase_1,,,,,,,,,,,,,orange,hexagon
215.0,3.0,3.0,0.0,4.0,4.0,341.2131479999516,3.0,1.0,phase_1,,,,,,,,,,,,,magenta,I
400.0,4.0,4.0,0.0,4.0,4.0,317.4610640000992,3.0,1.0,phase_1,,,,,,,,,,,,,yellow,diamond
107.0,6.0,2.0,1.0,3.0,3.0,350.5109789998641,3.0,1.0,phase_1,,,,,,,,,,,,,orange,hexagon
0.0,2.0,0.0,0.0,1.0,1.0,301.2412890000178,3.0,1.0,phase_1,,,,,,,,,,,,,blue,cross
417.0,8.0,4.0,1.0,4.0,4.0,296.1130310000044,3.0,1.0,phase_1,,,,,,,,,,,,,cyan,circle
225.0,7.0,3.0,1.0,1.0,1.0,291.9541380001647,3.0,1.0,phase_1,,,,,,,,,,,,,green,triangle
52.0,5.0,1.0,1.0,4.0,4.0,291.5003519999573,3.0,1.0,phase_1,,,,,,,,,,,,,gray,square
0.0,5.0,0.0,1.0,2.0,2.0,301.19160899994307,3.0,1.0,phase_1,,,,,,,,,,,,,gray,square
56.0,5.0,1.0,1.0,4.0,4.0,300.9060440001576,3.0,1.0,phase_1,,,,,,,,,,,,,gray,square
104.0,2.0,2.0,0.0,2.0,2.0,239.1568170000937,3.0,1.0,phase_1,,,,,,,,,,,,,blue,cross
0.0,3.0,0.0,0.0,1.0,1.0,301.2759650000589,3.0,1.0,phase_1,,,,,,,,,,,,,magenta,I
180.0,3.0,3.0,0.0,2.0,2.0,281.4878220001446,3.0,1.0,phase_1,,,,,,,,,,,,,magenta,I
0.0,5.0,0.0,1.0,3.0,3.0,357.4489090001407,3.0,1.0,phase_1,,,,,,,,,,,,,gray,square
0.0,7.0,0.0,1.0,3.0,3.0,321.8611650002003,3.0,1.0,phase_1,,,,,,,,,,,,,green,triangle
0.0,5.0,0.0,1.0,3.0,3.0,337.0276230000399,3.0,1.0,phase_1,,,,,,,,,,,,,gray,square
114.0,2.0,2.0,0.0,4.0,4.0,277.84177200010157,3.0,1.0,phase_1,,,,,,,,,,,,,blue,cross
106.0,2.0,2.0,0.0,4.0,4.0,318.5517229999277,3.0,2.0,phase_1,,,,,,,,,,,,,blue,cross
402.0,8.0,4.0,1.0,1.0,1.0,313.7119989999064,3.0,1.0,phase_1,,,,,,,,,,,,,cyan,circle
185.0,3.0,3.0,0.0,3.0,3.0,335.658622999972,3.0,1.0,phase_1,,,,,,,,,,,,,magenta,I
61.0,5.0,1.0,1.0,1.0,1.0,306.8141789999572,3.0,1.0,phase_1,,,,,,,,,,,,,gray,square
375.0,8.0,4.0,1.0,3.0,3.0,376.4807029999701,3.0,1.0,phase_1,,,,,,,,,,,,,cyan,circle
205.0,3.0,3.0,0.0,3.0,3.0,342.8059010000197,3.0,1.0,phase_1,,,,,,,,,,,,,magenta,I
81.0,6.0,2.0,1.0,1.0,1.0,323.5592700000325,3.0,1.0,phase_1,,,,,,,,,,,,,orange,hexagon
0.0,3.0,0.0,0.0,2.0,2.0,277.7883049998308,3.0,1.0,phase_1,,,,,,,,,,,,,magenta,I
0.0,8.0,0.0,1.0,1.0,1.0,284.7439580000355,3.0,1.0,phase_1,,,,,,,,,,,,,cyan,circle
412.0,4.0,4.0,0.0,2.0,2.0,319.0562869999667,3.0,1.0,phase_1,,,,,,,,,,,,,yellow,diamond
212.0,7.0,3.0,1.0,1.0,1.0,300.6872299999941,3.0,1.0,phase_1,,,,,,,,,,,,,green,triangle
106.0,6.0,2.0,1.0,1.0,1.0,298.587475999966,3.0,1.0,phase_1,,,,,,,,,,,,,orange,hexagon
177.0,3.0,3.0,0.0,3.0,3.0,333.9183349999075,3.0,1.0,phase_1,,,,,,,,,,,,,magenta,I
33.0,1.0,1.0,0.0,2.0,2.0,305.5293970001003,3.0,1.0,phase_1,,,,,,,,,,,,,white,flipped triangle
401.0,8.0,4.0,1.0,1.0,1.0,272.9202309999436,3.0,1.0,phase_1,,,,,,,,,,,,,cyan,circle
63.0,5.0,1.0,1.0,3.0,3.0,341.5305989999524,3.0,1.0,phase_1,,,,,,,,,,,,,gray,square
0.0,6.0,0.0,1.0,4.0,4.0,314.7759409998798,3.0,1.0,phase_1,,,,,,,,,,,,,orange,hexagon
49.0,5.0,1.0,1.0,2.0,2.0,252.0416820000264,3.0,1.0,phase_1,,,,,,,,,,,,,gray,square
103.0,6.0,2.0,1.0,1.0,1.0,266.1372489999394,3.0,1.0,phase_1,,,,,,,,,,,,,orange,hexagon
106.0,2.0,2.0,0.0,1.0,1.0,317.5606030001745,3.0,1.0,phase_1,,,,,,,,,,,,,blue,cross
420.0,4.0,4.0,0.0,3.0,3.0,314.2411839999113,3.0,1.0,phase_1,,,,,,,,,,,,,yellow,diamond
56.0,1.0,1.0,0.0,3.0,3.0,313.1816489999437,3.0,1.0,phase_1,,,,,,,,,,,,,white,flipped triangle
0.0,3.0,0.0,0.0,1.0,1.0,495.5157260001215,4.0,1.0,phase_1,,,,,,,,,,,,,magenta,I
93.0,2.0,2.0,0.0,3.0,3.0,301.310697999952,4.0,1.0,phase_1,,,,,,,,,,,,,blue,cross
396.0,8.0,4.0,1.0,1.0,1.0,265.1660479998554,4.0,1.0,phase_1,,,,,,,,,,,,,cyan,circle
56.0,5.0,1.0,1.0,4.0,4.0,288.7541759998839,4.0,1.0,phase_1,,,,,,,,,,,,,gray,square
199.0,3.0,3.0,0.0,2.0,2.0,266.9016039999405,4.0,1.0,phase_1,,,,,,,,,,,,,magenta,I
114.0,2.0,2.0,0.0,3.0,3.0,289.0616679999311,4.0,1.0,phase_1,,,,,,,,,,,,,blue,cross
194.0,7.0,3.0,1.0,4.0,4.0,349.3986859998585,4.0,1.0,phase_1,,,,,,,,,,,,,green,triangle
182.0,3.0,3.0,0.0,3.0,3.0,290.1975900001616,4.0,1.0,phase_1,,,,,,,,,,,,,magenta,I
81.0,6.0,2.0,1.0,1.0,1.0,256.5697100001216,4.0,1.0,phase_1,,,,,,,,,,,,,orange,hexagon
37.0,1.0,1.0,0.0,2.0,2.0,229.7106010000789,4.0,1.0,phase_1,,,,,,,,,,,,,white,flipped triangle
0.0,8.0,0.0,1.0,3.0,3.0,298.8004730000284,4.0,1.0,phase_1,,,,,,,,,,,,,cyan,circle
102.0,2.0,2.0,0.0,3.0,3.0,347.3889690001215,4.0,1.0,phase_1,,,,,,,,,,,,,blue,cross
183.0,7.0,3.0,1.0,2.0,2.0,273.9304339997943,4.0,1.0,phase_1,,,,,,,,,,,,,green,triangle
81.0,6.0,2.0,1.0,3.0,3.0,302.0256580000477,4.0,1.0,phase_1,,,,,,,,,,,,,orange,hexagon
58.0,1.0,1.0,0.0,4.0,4.0,268.9728179998383,4.0,1.0,phase_1,,,,,,,,,,,,,white,flipped triangle
376.0,8.0,4.0,1.0,2.0,2.0,272.3860200001127,4.0,1.0,phase_1,,,,,,,,,,,,,cyan,circle
86.0,2.0,2.0,0.0,1.0,1.0,300.7198810000773,4.0,1.0,phase_1,,,,,,,,,,,,,blue,cross
41.0,1.0,1.0,0.0,3.0,3.0,264.9876039999981,4.0,1.0,phase_1,,,,,,,,,,,,,white,flipped triangle
221.0,3.0,3.0,0.0,3.0,3.0,293.0762430000868,4.0,1.0,phase_1,,,,,,,,,,,,,magenta,I
89.0,6.0,2.0,1.0,3.0,3.0,329.3945059999714,4.0,1.0,phase_1,,,,,,,,,,,,,orange,hexagon
0.0,1.0,0.0,0.0,2.0,2.0,264.263364999806,4.0,1.0,phase_1,,,,,,,,,,,,,white,flipped triangle
42.0,5.0,1.0,1.0,2.0,2.0,308.7220540000999,4.0,1.0,phase_1,,,,,,,,,,,,,gray,square
0.0,4.0,0.0,0.0,1.0,1.0,314.4149029999425,4.0,1.0,phase_1,,,,,,,,,,,,,yellow,diamond
207.0,7.0,3.0,1.0,1.0,1.0,299.5104940000601,4.0,1.0,phase_1,,,,,,,,,,,,,green,triangle
413.0,4.0,4.0,0.0,3.0,3.0,304.67838200002,4.0,1.0,phase_1,,,,,,,,,,,,,yellow,diamond
211.0,3.0,3.0,0.0,1.0,1.0,220.8264189998772,4.0,1.0,phase_1,,,,,,,,,,,,,magenta,I
185.0,7.0,3.0,1.0,3.0,3.0,345.6898209997234,4.0,1.0,phase_1,,,,,,,,,,,,,green,triangle
404.0,8.0,4.0,1.0,3.0,3.0,320.4938459998629,4.0,1.0,phase_1,,,,,,,,,,,,,cyan,circle
220.0,3.0,3.0,0.0,3.0,3.0,339.3803869998919,4.0,2.0,phase_1,,,,,,,,,,,,,magenta,I
405.0,8.0,4.0,1.0,2.0,2.0,277.4546460000238,4.0,1.0,phase_1,,,,,,,,,,,,,cyan,circle
51.0,1.0,1.0,0.0,3.0,3.0,273.8487629999326,4.0,1.0,phase_1,,,,,,,,,,,,,white,flipped triangle
178.0,3.0,3.0,0.0,4.0,4.0,302.4605380001048,4.0,1.0,phase_1,,,,,,,,,,,,,magenta,I
47.0,1.0,1.0,0.0,2.0,2.0,269.2861119999179,4.0,1.0,phase_1,,,,,,,,,,,,,white,flipped triangle
104.0,2.0,2.0,0.0,4.0,4.0,330.251465999936,4.0,1.0,phase_1,,,,,,,,,,,,,blue,cross
33.0,5.0,1.0,1.0,1.0,1.0,285.1789720002671,4.0,1.0,phase_1,,,,,,,,,,,,,gray,square
391.0,4.0,4.0,0.0,1.0,1.0,265.1568719998067,4.0,1.0,phase_1,,,,,,,,,,,,,yellow,diamond
89.0,2.0,2.0,0.0,4.0,4.0,326.0424109998894,4.0,1.0,phase_1,,,,,,,,,,,,,blue,cross
375.0,8.0,4.0,1.0,3.0,3.0,310.1853640000627,4.0,1.0,phase_1,,,,,,,,,,,,,cyan,circle
0.0,6.0,0.0,1.0,1.0,1.0,312.4986600000738,4.0,1.0,phase_1,,,,,,,,,,,,,orange,hexagon
423.0,4.0,4.0,0.0,4.0,4.0,293.6801780001588,4.0,1.0,phase_1,,,,,,,,,,,,,yellow,diamond
199.0,3.0,3.0,0.0,4.0,4.0,288.6723450001227,4.0,1.0,phase_1,,,,,,,,,,,,,magenta,I
100.0,2.0,2.0,0.0,1.0,1.0,268.5272379999333,4.0,1.0,phase_1,,,,,,,,,,,,,blue,cross
93.0,6.0,2.0,1.0,2.0,2.0,272.7891190002083,4.0,1.0,phase_1,,,,,,,,,,,,,orange,hexagon
193.0,7.0,3.0,1.0,2.0,2.0,277.9130999997505,4.0,1.0,phase_1,,,,,,,,,,,,,green,triangle
388.0,4.0,4.0,0.0,2.0,2.0,301.2695880001956,4.0,1.0,phase_1,,,,,,,,,,,,,yellow,diamond
0.0,2.0,0.0,0.0,4.0,4.0,359.4162039998991,4.0,1.0,phase_1,,,,,,,,,,,,,blue,cross
0.0,7.0,0.0,1.0,3.0,3.0,374.3140139999923,4.0,1.0,phase_1,,,,,,,,,,,,,green,triangle
0.0,4.0,0.0,0.0,1.0,1.0,248.677440999927,4.0,1.0,phase_1,,,,,,,,,,,,,yellow,diamond
0.0,4.0,0.0,0.0,1.0,1.0,386.9424589997834,4.0,2.0,phase_1,,,,,,,,,,,,,yellow,diamond
375.0,4.0,4.0,0.0,1.0,1.0,313.6495720000312,4.0,1.0,phase_1,,,,,,,,,,,,,yellow,diamond
199.0,7.0,3.0,1.0,3.0,3.0,595.6288490001498,4.0,1.0,phase_1,,,,,,,,,,,,,green,triangle
0.0,2.0,0.0,0.0,3.0,3.0,578.1085129997336,4.0,1.0,phase_1,,,,,,,,,,,,,blue,cross
183.0,3.0,3.0,0.0,2.0,2.0,310.903049999979,4.0,1.0,phase_1,,,,,,,,,,,,,magenta,I
65.0,1.0,1.0,0.0,3.0,3.0,325.6292210003266,4.0,1.0,phase_1,,,,,,,,,,,,,white,flipped triangle
56.0,5.0,1.0,1.0,1.0,1.0,223.8409980000142,4.0,1.0,phase_1,,,,,,,,,,,,,gray,square
93.0,2.0,2.0,0.0,4.0,4.0,285.3574050000134,4.0,1.0,phase_1,,,,,,,,,,,,,blue,cross
0.0,6.0,0.0,1.0,4.0,4.0,331.0325620000185,4.0,1.0,phase_1,,,,,,,,,,,,,orange,hexagon
114.0,6.0,2.0,1.0,3.0,3.0,383.1578620001892,4.0,1.0,phase_1,,,,,,,,,,,,,orange,hexagon
400.0,8.0,4.0,1.0,4.0,4.0,403.9471850001064,4.0,1.0,phase_1,,,,,,,,,,,,,cyan,circle
418.0,4.0,4.0,0.0,3.0,3.0,351.4382430003024,4.0,1.0,phase_1,,,,,,,,,,,,,yellow,diamond
107.0,2.0,2.0,0.0,2.0,2.0,357.2769299998981,4.0,1.0,phase_1,,,,,,,,,,,,,blue,cross
41.0,5.0,1.0,1.0,1.0,1.0,363.3318990000589,4.0,1.0,phase_1,,,,,,,,,,,,,gray,square
184.0,7.0,3.0,1.0,3.0,3.0,366.4988929999708,4.0,1.0,phase_1,,,,,,,,,,,,,green,triangle
175.0,7.0,3.0,1.0,2.0,2.0,300.1023709998662,4.0,1.0,phase_1,,,,,,,,,,,,,green,triangle
73.0,5.0,1.0,1.0,4.0,4.0,272.8542580002795,4.0,1.0,phase_1,,,,,,,,,,,,,gray,square
71.0,5.0,1.0,1.0,3.0,3.0,341.6878509997332,4.0,1.0,phase_1,,,,,,,,,,,,,gray,square
410.0,4.0,4.0,0.0,3.0,3.0,329.1764440000406,4.0,1.0,phase_1,,,,,,,,,,,,,yellow,diamond
0.0,2.0,0.0,0.0,4.0,4.0,333.9890909996938,4.0,1.0,phase_1,,,,,,,,,,,,,blue,cross
407.0,8.0,4.0,1.0,1.0,1.0,297.758579999936,4.0,1.0,phase_1,,,,,,,,,,,,,cyan,circle
376.0,4.0,4.0,0.0,3.0,3.0,303.343914999914,4.0,1.0,phase_1,,,,,,,,,,,,,yellow,diamond
97.0,6.0,2.0,1.0,3.0,3.0,305.630275999647,4.0,1.0,phase_1,,,,,,,,,,,,,orange,hexagon
0.0,5.0,0.0,1.0,1.0,1.0,277.643442000226,4.0,1.0,phase_1,,,,,,,,,,,,,gray,square
36.0,1.0,1.0,0.0,4.0,4.0,294.4593500001247,4.0,1.0,phase_1,,,,,,,,,,,,,white,flipped triangle
210.0,3.0,3.0,0.0,2.0,2.0,305.3079750002325,4.0,1.0,phase_1,,,,,,,,,,,,,magenta,I
384.0,4.0,4.0,0.0,3.0,3.0,404.5197819996247,4.0,1.0,phase_1,,,,,,,,,,,,,yellow,diamond
0.0,4.0,0.0,0.0,1.0,1.0,265.5369869999049,4.0,1.0,phase_1,,,,,,,,,,,,,yellow,diamond
398.0,4.0,4.0,0.0,3.0,3.0,281.4360920001491,4.0,1.0,phase_1,,,,,,,,,,,,,yellow,diamond
401.0,4.0,4.0,0.0,1.0,1.0,268.6993359998268,4.0,1.0,phase_1,,,,,,,,,,,,,yellow,diamond
29.0,5.0,1.0,1.0,1.0,1.0,288.0881959999897,4.0,1.0,phase_1,,,,,,,,,,,,,gray,square
78.0,2.0,2.0,0.0,3.0,3.0,333.3656690001589,4.0,1.0,phase_1,,,,,,,,,,,,,blue,cross
114.0,2.0,2.0,0.0,1.0,1.0,272.8536079998775,4.0,1.0,phase_1,,,,,,,,,,,,,blue,cross
175.0,3.0,3.0,0.0,1.0,1.0,240.3507969997917,4.0,1.0,phase_1,,,,,,,,,,,,,magenta,I
0.0,8.0,0.0,1.0,4.0,4.0,330.1765569999588,4.0,1.0,phase_1,,,,,,,,,,,,,cyan,circle
0.0,8.0,0.0,1.0,4.0,4.0,330.3318879998187,4.0,1.0,phase_1,,,,,,,,,,,,,cyan,circle
118.0,2.0,2.0,0.0,1.0,1.0,285.5047190000732,4.0,1.0,phase_1,,,,,,,,,,,,,blue,cross
397.0,8.0,4.0,1.0,1.0,1.0,314.7068249995755,4.0,1.0,phase_1,,,,,,,,,,,,,cyan,circle
201.0,3.0,3.0,0.0,2.0,2.0,343.8119900001766,4.0,1.0,phase_1,,,,,,,,,,,,,magenta,I
94.0,2.0,2.0,0.0,3.0,3.0,353.7880069998209,4.0,1.0,phase_1,,,,,,,,,,,,,blue,cross
380.0,8.0,4.0,1.0,1.0,1.0,272.4936690001414,4.0,1.0,phase_1,,,,,,,,,,,,,cyan,circle
63.0,1.0,1.0,0.0,3.0,3.0,322.4365940000098,4.0,1.0,phase_1,,,,,,,,,,,,,white,flipped triangle
104.0,6.0,2.0,1.0,4.0,4.0,309.4288789998245,4.0,2.0,phase_1,,,,,,,,,,,,,orange,hexagon
110.0,6.0,2.0,1.0,4.0,4.0,307.675850999658,4.0,1.0,phase_1,,,,,,,,,,,,,orange,hexagon
27.0,1.0,1.0,0.0,1.0,1.0,261.2423730001865,4.0,1.0,phase_1,,,,,,,,,,,,,white,flipped triangle
61.0,1.0,1.0,0.0,2.0,2.0,297.5115979998008,4.0,1.0,phase_1,,,,,,,,,,,,,white,flipped triangle
200.0,3.0,3.0,0.0,4.0,4.0,310.2922430002763,4.0,1.0,phase_1,,,,,,,,,,,,,magenta,I
49.0,1.0,1.0,0.0,4.0,4.0,367.1340360001522,4.0,1.0,phase_1,,,,,,,,,,,,,white,flipped triangle
71.0,1.0,1.0,0.0,1.0,1.0,337.6978530000087,4.0,1.0,phase_1,,,,,,,,,,,,,white,flipped triangle
106.0,6.0,2.0,1.0,1.0,1.0,278.3637840002484,4.0,1.0,phase_1,,,,,,,,,,,,,orange,hexagon
402.0,4.0,4.0,0.0,1.0,1.0,281.3939630000277,4.0,1.0,phase_1,,,,,,,,,,,,,yellow,diamond
0.0,8.0,0.0,1.0,3.0,3.0,528.3141510003588,4.0,1.0,phase_1,,,,,,,,,,,,,cyan,circle
0.0,8.0,4.0,1.0,5.0,5.0,583.8354719999188,1.0,1.0,phase_2,stop,250.0,250.0,3.0,,,,,,,,,cyan,circle
0.0,4.0,4.0,0.0,6.0,6.0,454.9313510001411,1.0,1.0,phase_2,go,200.0,250.0,1.0,,,,,,,,,yellow,diamond
0.0,3.0,3.0,0.0,5.0,5.0,420.9381450000364,1.0,1.0,phase_2,go,200.0,250.0,1.0,,,,,,,,,magenta,I
0.0,6.0,2.0,1.0,5.0,5.0,307.6918890001252,1.0,1.0,phase_2,stop,200.0,250.0,3.0,,,,,,,,,orange,hexagon
0.0,6.0,2.0,1.0,6.0,6.0,309.4380429997727,1.0,1.0,phase_2,stop,150.0,250.0,3.0,,,,,,,,,orange,hexagon
0.0,1.0,1.0,0.0,5.0,5.0,489.4727900000362,1.0,1.0,phase_2,go,150.0,200.0,1.0,,,,,,,,,white,flipped triangle
0.0,5.0,1.0,1.0,6.0,0.0,0.0,1.0,1.0,phase_2,stop,150.0,200.0,4.0,,,,,,,,,gray,square
0.0,1.0,1.0,0.0,5.0,5.0,579.5823330004168,1.0,1.0,phase_2,go,150.0,250.0,1.0,,,,,,,,,white,flipped triangle
0.0,7.0,3.0,1.0,5.0,0.0,0.0,1.0,1.0,phase_2,stop,150.0,250.0,4.0,,,,,,,,,green,triangle
0.0,8.0,4.0,1.0,5.0,5.0,578.3928629998627,1.0,1.0,phase_2,go,200.0,250.0,1.0,,,,,,,,,cyan,circle
0.0,7.0,3.0,1.0,6.0,6.0,664.1709290001927,1.0,1.0,phase_2,go,200.0,250.0,1.0,,,,,,,,,green,triangle
0.0,5.0,1.0,1.0,6.0,0.0,0.0,1.0,1.0,phase_2,stop,200.0,250.0,4.0,,,,,,,,,gray,square
0.0,6.0,2.0,1.0,5.0,0.0,0.0,1.0,1.0,phase_2,stop,200.0,300.0,4.0,,,,,,,,,orange,hexagon
0.0,6.0,2.0,1.0,6.0,6.0,542.5023040002088,1.0,1.0,phase_2,go,250.0,300.0,1.0,,,,,,,,,orange,hexagon
0.0,3.0,3.0,0.0,5.0,5.0,679.8037670000667,1.0,1.0,phase_2,go,250.0,300.0,1.0,,,,,,,,,magenta,I
0.0,2.0,2.0,0.0,5.0,5.0,646.6309409997848,1.0,1.0,phase_2,go,250.0,300.0,1.0,,,,,,,,,blue,cross
0.0,6.0,2.0,1.0,5.0,0.0,0.0,1.0,1.0,phase_2,stop,250.0,300.0,4.0,,,,,,,,,orange,hexagon
0.0,6.0,2.0,1.0,6.0,0.0,0.0,1.0,1.0,phase_2,stop,300.0,300.0,4.0,,,,,,,,,orange,hexagon
0.0,8.0,4.0,1.0,6.0,0.0,0.0,1.0,1.0,phase_2,stop,300.0,350.0,4.0,,,,,,,,,cyan,circle
0.0,6.0,2.0,1.0,5.0,5.0,746.0338999999294,1.0,1.0,phase_2,go,300.0,400.0,1.0,,,,,,,,,orange,hexagon
0.0,7.0,3.0,1.0,6.0,6.0,364.631172999907,1.0,1.0,phase_2,stop,300.0,400.0,3.0,,,,,,,,,green,triangle
0.0,4.0,4.0,0.0,6.0,6.0,801.9061250001869,1.0,1.0,phase_2,go,300.0,350.0,1.0,,,,,,,,,yellow,diamond
0.0,3.0,3.0,0.0,5.0,5.0,812.1872389997407,1.0,1.0,phase_2,go,300.0,350.0,1.0,,,,,,,,,magenta,I
0.0,7.0,3.0,1.0,5.0,0.0,0.0,1.0,1.0,phase_2,stop,300.0,350.0,4.0,,,,,,,,,green,triangle
0.0,6.0,2.0,1.0,5.0,5.0,647.3797369999374,1.0,1.0,phase_2,go,350.0,350.0,1.0,,,,,,,,,orange,hexagon
0.0,1.0,1.0,0.0,6.0,6.0,704.4998369997302,1.0,1.0,phase_2,go,350.0,350.0,1.0,,,,,,,,,white,flipped triangle
0.0,6.0,2.0,1.0,6.0,6.0,656.2945099999524,1.0,1.0,phase_2,go,350.0,350.0,1.0,,,,,,,,,orange,hexagon
0.0,7.0,3.0,1.0,6.0,0.0,0.0,1.0,1.0,phase_2,stop,350.0,350.0,4.0,,,,,,,,,green,triangle
0.0,8.0,4.0,1.0,5.0,5.0,390.948558999753,1.0,1.0,phase_2,stop,350.0,400.0,3.0,,,,,,,,,cyan,circle
0.0,4.0,4.0,0.0,6.0,6.0,804.8876580000979,1.0,1.0,phase_2,go,300.0,400.0,1.0,,,,,,,,,yellow,diamond
0.0,7.0,3.0,1.0,5.0,0.0,0.0,1.0,1.0,phase_2,stop,300.0,400.0,4.0,,,,,,,,,green,triangle
0.0,2.0,2.0,0.0,6.0,6.0,715.7605319998765,1.0,1.0,phase_2,go,350.0,400.0,1.0,,,,,,,,,blue,cross
0.0,3.0,3.0,0.0,6.0,6.0,987.7866990000256,1.0,1.0,phase_2,go,350.0,400.0,1.0,,,,,,,,,magenta,I
0.0,5.0,1.0,1.0,6.0,0.0,0.0,1.0,1.0,phase_2,stop,350.0,400.0,4.0,,,,,,,,,gray,square
0.0,4.0,4.0,0.0,5.0,5.0,779.8676820002584,1.0,1.0,phase_2,go,350.0,450.0,1.0,,,,,,,,,yellow,diamond
0.0,3.0,3.0,0.0,6.0,6.0,852.3643109997465,1.0,1.0,phase_2,go,350.0,450.0,1.0,,,,,,,,,magenta,I
0.0,7.0,3.0,1.0,6.0,6.0,521.3568939998368,2.0,1.0,phase_2,stop,350.0,450.0,3.0,,,,,,,,,green,triangle
0.0,8.0,4.0,1.0,6.0,6.0,427.0583790003002,2.0,1.0,phase_2,stop,350.0,400.0,3.0,,,,,,,,,cyan,circle
0.0,3.0,3.0,0.0,6.0,6.0,656.8968609999501,2.0,1.0,phase_2,go,350.0,350.0,1.0,,,,,,,,,magenta,I
0.0,2.0,2.0,0.0,5.0,5.0,667.0951099999911,2.0,1.0,phase_2,go,350.0,350.0,1.0,,,,,,,,,blue,cross
0.0,7.0,3.0,1.0,5.0,0.0,0.0,2.0,1.0,phase_2,stop,350.0,350.0,4.0,,,,,,,,,green,triangle
0.0,2.0,2.0,0.0,6.0,6.0,718.2988849999674,2.0,1.0,phase_2,go,400.0,350.0,1.0,,,,,,,,,blue,cross
0.0,1.0,1.0,0.0,5.0,5.0,640.727219999917,2.0,1.0,phase_2,go,400.0,350.0,1.0,,,,,,,,,white,flipped triangle
0.0,6.0,2.0,1.0,5.0,0.0,0.0,2.0,1.0,phase_2,stop,400.0,350.0,4.0,,,,,,,,,orange,hexagon
0.0,8.0,4.0,1.0,6.0,6.0,502.3329589998866,2.0,1.0,phase_2,stop,450.0,350.0,3.0,,,,,,,,,cyan,circle
0.0,7.0,3.0,1.0,6.0,6.0,800.2843740000571,2.0,1.0,phase_2,go,450.0,300.0,1.0,,,,,,,,,green,triangle
0.0,5.0,1.0,1.0,6.0,0.0,0.0,2.0,1.0,phase_2,stop,450.0,300.0,4.0,,,,,,,,,gray,square
0.0,6.0,2.0,1.0,6.0,0.0,0.0,2.0,1.0,phase_2,stop,450.0,350.0,4.0,,,,,,,,,orange,hexagon
0.0,5.0,1.0,1.0,5.0,5.0,669.8409019995779,2.0,1.0,phase_2,go,450.0,400.0,1.0,,,,,,,,,gray,square
0.0,8.0,4.0,1.0,6.0,0.0,0.0,2.0,1.0,phase_2,stop,450.0,400.0,4.0,,,,,,,,,cyan,circle
0.0,4.0,4.0,0.0,5.0,5.0,684.5116360000247,2.0,1.0,phase_2,go,450.0,450.0,1.0,,,,,,,,,yellow,diamond
0.0,6.0,2.0,1.0,5.0,0.0,0.0,2.0,1.0,phase_2,stop,450.0,450.0,4.0,,,,,,,,,orange,hexagon
0.0,7.0,3.0,1.0,5.0,0.0,0.0,2.0,1.0,phase_2,stop,500.0,450.0,4.0,,,,,,,,,green,triangle
0.0,8.0,4.0,1.0,6.0,0.0,0.0,2.0,1.0,phase_2,stop,550.0,450.0,4.0,,,,,,,,,cyan,circle
0.0,8.0,4.0,1.0,6.0,6.0,665.1933420002933,2.0,1.0,phase_2,go,550.0,500.0,1.0,,,,,,,,,cyan,circle
0.0,2.0,2.0,0.0,5.0,5.0,1115.239445000043,2.0,1.0,phase_2,go,550.0,500.0,1.0,,,,,,,,,blue,cross
0.0,5.0,1.0,1.0,6.0,0.0,0.0,2.0,1.0,phase_2,stop,550.0,500.0,4.0,,,,,,,,,gray,square
0.0,4.0,4.0,0.0,5.0,5.0,989.4835109998894,2.0,1.0,phase_2,go,550.0,550.0,1.0,,,,,,,,,yellow,diamond
0.0,3.0,3.0,0.0,5.0,5.0,844.9525690002702,2.0,1.0,phase_2,go,550.0,550.0,1.0,,,,,,,,,magenta,I
0.0,1.0,1.0,0.0,6.0,6.0,1024.6064910002133,2.0,1.0,phase_2,go,550.0,550.0,1.0,,,,,,,,,white,flipped triangle
0.0,7.0,3.0,1.0,5.0,0.0,0.0,2.0,1.0,phase_2,stop,550.0,550.0,4.0,,,,,,,,,green,triangle
0.0,4.0,4.0,0.0,6.0,6.0,773.5296579999158,2.0,1.0,phase_2,go,600.0,550.0,1.0,,,,,,,,,yellow,diamond
0.0,3.0,3.0,0.0,5.0,5.0,733.457647999785,2.0,1.0,phase_2,go,600.0,550.0,1.0,,,,,,,,,magenta,I
0.0,6.0,2.0,1.0,5.0,5.0,598.4843050000563,2.0,1.0,phase_2,go,600.0,550.0,1.0,,,,,,,,,orange,hexagon
0.0,3.0,3.0,0.0,5.0,5.0,725.2679970001736,2.0,1.0,phase_2,go,600.0,550.0,1.0,,,,,,,,,magenta,I
0.0,8.0,4.0,1.0,6.0,0.0,0.0,2.0,1.0,phase_2,stop,600.0,550.0,4.0,,,,,,,,,cyan,circle
0.0,8.0,4.0,1.0,5.0,0.0,0.0,2.0,1.0,phase_2,stop,600.0,600.0,4.0,,,,,,,,,cyan,circle
0.0,5.0,1.0,1.0,5.0,5.0,784.2604190000202,2.0,1.0,phase_2,stop,650.0,600.0,3.0,,,,,,,,,gray,square
0.0,4.0,4.0,0.0,5.0,5.0,855.700237000292,2.0,1.0,phase_2,go,600.0,600.0,1.0,,,,,,,,,yellow,diamond
0.0,5.0,1.0,1.0,6.0,6.0,339.2044209999767,2.0,1.0,phase_2,stop,600.0,600.0,3.0,,,,,,,,,gray,square
0.0,7.0,3.0,1.0,5.0,0.0,0.0,2.0,1.0,phase_2,stop,600.0,550.0,4.0,,,,,,,,,green,triangle
0.0,8.0,4.0,1.0,6.0,0.0,0.0,2.0,1.0,phase_2,stop,650.0,550.0,4.0,,,,,,,,,cyan,circle
0.0,4.0,4.0,0.0,6.0,6.0,678.4402610001052,3.0,1.0,phase_2,go,650.0,600.0,1.0,,,,,,,,,yellow,diamond
0.0,8.0,4.0,1.0,6.0,6.0,551.1141689999022,3.0,1.0,phase_2,stop,650.0,600.0,3.0,,,,,,,,,cyan,circle
0.0,4.0,4.0,0.0,6.0,6.0,686.1894479998227,3.0,1.0,phase_2,go,650.0,550.0,1.0,,,,,,,,,yellow,diamond
0.0,8.0,4.0,1.0,5.0,5.0,714.2131520004114,3.0,1.0,phase_2,stop,650.0,550.0,3.0,,,,,,,,,cyan,circle
0.0,8.0,4.0,1.0,6.0,0.0,0.0,3.0,1.0,phase_2,stop,600.0,550.0,4.0,,,,,,,,,cyan,circle
0.0,2.0,2.0,0.0,6.0,6.0,1033.9694710000913,3.0,1.0,phase_2,go,600.0,600.0,1.0,,,,,,,,,blue,cross
0.0,4.0,4.0,0.0,6.0,6.0,928.42261099986,3.0,1.0,phase_2,go,600.0,600.0,1.0,,,,,,,,,yellow,diamond
0.0,6.0,2.0,1.0,5.0,0.0,0.0,3.0,1.0,phase_2,stop,600.0,600.0,4.0,,,,,,,,,orange,hexagon
0.0,8.0,4.0,1.0,5.0,0.0,0.0,3.0,1.0,phase_2,stop,650.0,600.0,4.0,,,,,,,,,cyan,circle
0.0,1.0,1.0,0.0,6.0,6.0,871.1395819996142,3.0,1.0,phase_2,go,700.0,600.0,1.0,,,,,,,,,white,flipped triangle
0.0,6.0,2.0,1.0,6.0,6.0,990.2782379999736,3.0,1.0,phase_2,go,700.0,600.0,1.0,,,,,,,,,orange,hexagon
0.0,1.0,1.0,0.0,6.0,6.0,1041.0875830002624,3.0,1.0,phase_2,go,700.0,600.0,1.0,,,,,,,,,white,flipped triangle
0.0,6.0,2.0,1.0,6.0,0.0,0.0,3.0,1.0,phase_2,stop,700.0,600.0,4.0,,,,,,,,,orange,hexagon
0.0,4.0,4.0,0.0,5.0,5.0,960.9281479997662,3.0,1.0,phase_2,go,700.0,650.0,1.0,,,,,,,,,yellow,diamond
0.0,7.0,3.0,1.0,6.0,6.0,701.1124880000352,3.0,1.0,phase_2,go,700.0,650.0,1.0,,,,,,,,,green,triangle
0.0,1.0,1.0,0.0,5.0,5.0,660.2885430002061,3.0,1.0,phase_2,go,700.0,650.0,1.0,,,,,,,,,white,flipped triangle
0.0,7.0,3.0,1.0,6.0,0.0,0.0,3.0,1.0,phase_2,stop,700.0,650.0,4.0,,,,,,,,,green,triangle
0.0,2.0,2.0,0.0,6.0,6.0,1147.7636839999832,3.0,1.0,phase_2,go,700.0,700.0,1.0,,,,,,,,,blue,cross
0.0,7.0,3.0,1.0,5.0,5.0,737.741621999703,3.0,1.0,phase_2,stop,700.0,700.0,3.0,,,,,,,,,green,triangle
0.0,2.0,2.0,0.0,6.0,6.0,970.2781510000024,3.0,1.0,phase_2,go,650.0,700.0,1.0,,,,,,,,,blue,cross
0.0,4.0,4.0,0.0,6.0,6.0,1017.1325939995768,3.0,1.0,phase_2,go,650.0,700.0,1.0,,,,,,,,,yellow,diamond
0.0,7.0,3.0,1.0,5.0,0.0,0.0,3.0,1.0,phase_2,stop,650.0,700.0,4.0,,,,,,,,,green,triangle
0.0,7.0,3.0,1.0,6.0,0.0,0.0,3.0,1.0,phase_2,stop,700.0,700.0,4.0,,,,,,,,,green,triangle
0.0,4.0,4.0,0.0,6.0,6.0,1047.7724040001704,3.0,1.0,phase_2,go,700.0,750.0,1.0,,,,,,,,,yellow,diamond
0.0,4.0,4.0,0.0,6.0,6.0,984.3122990000666,3.0,1.0,phase_2,go,700.0,750.0,1.0,,,,,,,,,yellow,diamond
0.0,2.0,2.0,0.0,6.0,6.0,1160.184379000384,3.0,1.0,phase_2,go,700.0,750.0,1.0,,,,,,,,,blue,cross
0.0,2.0,2.0,0.0,6.0,6.0,1104.5437460002177,3.0,1.0,phase_2,go,700.0,750.0,1.0,,,,,,,,,blue,cross
0.0,8.0,4.0,1.0,5.0,0.0,0.0,3.0,1.0,phase_2,stop,700.0,750.0,4.0,,,,,,,,,cyan,circle
0.0,5.0,1.0,1.0,5.0,5.0,951.4614869999604,3.0,1.0,phase_2,go,750.0,750.0,1.0,,,,,,,,,gray,square
0.0,4.0,4.0,0.0,6.0,6.0,940.8075340002142,3.0,1.0,phase_2,go,750.0,750.0,1.0,,,,,,,,,yellow,diamond
0.0,5.0,1.0,1.0,5.0,5.0,699.1768859998047,3.0,1.0,phase_2,stop,750.0,750.0,3.0,,,,,,,,,gray,square
0.0,7.0,3.0,1.0,5.0,5.0,867.9160470001079,3.0,1.0,phase_2,stop,700.0,750.0,3.0,,,,,,,,,green,triangle
0.0,6.0,2.0,1.0,6.0,6.0,882.5157569999647,3.0,1.0,phase_2,stop,650.0,750.0,3.0,,,,,,,,,orange,hexagon
0.0,1.0,1.0,0.0,6.0,6.0,1026.8042799998511,3.0,1.0,phase_2,go,650.0,700.0,1.0,,,,,,,,,white,flipped triangle
0.0,7.0,3.0,1.0,6.0,6.0,851.1940479997975,3.0,1.0,phase_2,stop,650.0,700.0,3.0,,,,,,,,,green,triangle
0.0,8.0,4.0,1.0,5.0,0.0,0.0,3.0,1.0,phase_2,stop,650.0,650.0,4.0,,,,,,,,,cyan,circle
0.0,5.0,1.0,1.0,6.0,6.0,899.4212289999268,4.0,1.0,phase_2,stop,700.0,650.0,3.0,,,,,,,,,gray,square
0.0,3.0,3.0,0.0,6.0,6.0,715.6925609997415,4.0,1.0,phase_2,go,700.0,600.0,1.0,,,,,,,,,magenta,I
0.0,5.0,1.0,1.0,5.0,5.0,412.6357439999992,4.0,1.0,phase_2,go,700.0,600.0,1.0,,,,,,,,,gray,square
0.0,5.0,1.0,1.0,6.0,6.0,641.8863200001397,4.0,1.0,phase_2,go,700.0,600.0,1.0,,,,,,,,,gray,square
0.0,8.0,4.0,1.0,6.0,6.0,384.9785060001522,4.0,1.0,phase_2,go,700.0,600.0,1.0,,,,,,,,,cyan,circle
0.0,8.0,4.0,1.0,6.0,6.0,465.4049349996967,4.0,1.0,phase_2,stop,700.0,600.0,3.0,,,,,,,,,cyan,circle
0.0,1.0,1.0,0.0,5.0,5.0,647.4601330000951,4.0,1.0,phase_2,go,700.0,550.0,1.0,,,,,,,,,white,flipped triangle
0.0,4.0,4.0,0.0,6.0,6.0,703.6662230002548,4.0,1.0,phase_2,go,700.0,550.0,1.0,,,,,,,,,yellow,diamond
0.0,2.0,2.0,0.0,5.0,5.0,817.8919770002722,4.0,1.0,phase_2,go,700.0,550.0,1.0,,,,,,,,,blue,cross
0.0,2.0,2.0,0.0,5.0,5.0,658.1819630000609,4.0,1.0,phase_2,go,700.0,550.0,1.0,,,,,,,,,blue,cross
0.0,3.0,3.0,0.0,6.0,6.0,869.5688570001039,4.0,1.0,phase_2,go,700.0,550.0,1.0,,,,,,,,,magenta,I
0.0,7.0,3.0,1.0,5.0,5.0,1079.8972809998304,4.0,1.0,phase_2,go,700.0,550.0,1.0,,,,,,,,,green,triangle
0.0,6.0,2.0,1.0,5.0,5.0,1044.1676720001851,4.0,1.0,phase_2,go,700.0,550.0,1.0,,,,,,,,,orange,hexagon
0.0,3.0,3.0,0.0,5.0,5.0,947.5310640000316,4.0,1.0,phase_2,go,700.0,550.0,1.0,,,,,,,,,magenta,I
0.0,5.0,1.0,1.0,6.0,0.0,0.0,4.0,1.0,phase_2,stop,700.0,550.0,4.0,,,,,,,,,gray,square
0.0,7.0,3.0,1.0,6.0,0.0,0.0,4.0,1.0,phase_2,stop,700.0,600.0,4.0,,,,,,,,,green,triangle
0.0,3.0,3.0,0.0,5.0,5.0,875.0008689999049,4.0,1.0,phase_2,go,700.0,650.0,1.0,,,,,,,,,magenta,I
0.0,5.0,1.0,1.0,6.0,0.0,0.0,4.0,1.0,phase_2,stop,700.0,650.0,4.0,,,,,,,,,gray,square
0.0,4.0,4.0,0.0,5.0,5.0,947.7109150002434,4.0,1.0,phase_2,go,700.0,700.0,1.0,,,,,,,,,yellow,diamond
0.0,5.0,1.0,1.0,6.0,0.0,0.0,4.0,1.0,phase_2,stop,700.0,700.0,4.0,,,,,,,,,gray,square
0.0,7.0,3.0,1.0,5.0,0.0,0.0,4.0,1.0,phase_2,stop,700.0,750.0,4.0,,,,,,,,,green,triangle
0.0,6.0,2.0,1.0,6.0,0.0,0.0,4.0,1.0,phase_2,stop,750.0,750.0,4.0,,,,,,,,,orange,hexagon
0.0,4.0,4.0,0.0,5.0,5.0,1027.1579079999356,4.0,1.0,phase_2,go,750.0,800.0,1.0,,,,,,,,,yellow,diamond
0.0,6.0,2.0,1.0,6.0,0.0,0.0,4.0,1.0,phase_2,stop,750.0,800.0,4.0,,,,,,,,,orange,hexagon
0.0,2.0,2.0,0.0,5.0,5.0,1173.7612380002247,4.0,1.0,phase_2,go,750.0,850.0,1.0,,,,,,,,,blue,cross
0.0,2.0,2.0,0.0,5.0,5.0,1121.1707369998294,4.0,1.0,phase_2,go,750.0,850.0,1.0,,,,,,,,,blue,cross
0.0,8.0,4.0,1.0,6.0,0.0,0.0,4.0,1.0,phase_2,stop,750.0,850.0,4.0,,,,,,,,,cyan,circle
0.0,5.0,1.0,1.0,5.0,5.0,652.6327500000662,4.0,1.0,phase_2,go,750.0,900.0,1.0,,,,,,,,,gray,square
0.0,8.0,4.0,1.0,5.0,5.0,590.0905419998708,4.0,1.0,phase_2,stop,750.0,900.0,3.0,,,,,,,,,cyan,circle
0.0,4.0,4.0,0.0,5.0,5.0,675.3438209998421,4.0,1.0,phase_2,go,700.0,900.0,1.0,,,,,,,,,yellow,diamond
0.0,1.0,1.0,0.0,5.0,5.0,1101.4856580000014,4.0,1.0,phase_2,go,700.0,900.0,1.0,,,,,,,,,white,flipped triangle
0.0,7.0,3.0,1.0,6.0,6.0,1046.040707999964,4.0,1.0,phase_2,go,700.0,900.0,1.0,,,,,,,,,green,triangle
0.0,2.0,2.0,0.0,6.0,6.0,690.2549480000744,4.0,1.0,phase_2,go,700.0,900.0,1.0,,,,,,,,,blue,cross
0.0,8.0,4.0,1.0,5.0,5.0,723.311694000131,4.0,1.0,phase_2,stop,700.0,900.0,3.0,,,,,,,,,cyan,circle
0.0,8.0,4.0,1.0,5.0,5.0,756.173052000122,4.0,1.0,phase_2,stop,650.0,900.0,3.0,,,,,,,,,cyan,circle
0.0,6.0,2.0,1.0,5.0,5.0,714.1238729996076,4.0,1.0,phase_2,go,600.0,900.0,1.0,,,,,,,,,orange,hexagon
0.0,5.0,1.0,1.0,6.0,6.0,361.6685050001251,5.0,1.0,phase_2,stop,600.0,900.0,3.0,,,,,,,,,gray,square
0.0,2.0,2.0,0.0,5.0,5.0,319.6984390001489,5.0,1.0,phase_2,go,600.0,850.0,1.0,,,,,,,,,blue,cross
0.0,8.0,4.0,1.0,5.0,5.0,369.371959000091,5.0,1.0,phase_2,stop,600.0,850.0,3.0,,,,,,,,,cyan,circle
0.0,5.0,1.0,1.0,6.0,6.0,303.4259500000189,5.0,1.0,phase_2,stop,550.0,850.0,3.0,,,,,,,,,gray,square
0.0,5.0,1.0,1.0,5.0,5.0,494.2718890001742,5.0,1.0,phase_2,stop,550.0,800.0,3.0,,,,,,,,,gray,square
0.0,2.0,2.0,0.0,6.0,6.0,472.8333640000528,5.0,1.0,phase_2,go,500.0,800.0,1.0,,,,,,,,,blue,cross
0.0,3.0,3.0,0.0,5.0,5.0,692.3028219998741,5.0,1.0,phase_2,go,500.0,800.0,1.0,,,,,,,,,magenta,I
0.0,6.0,2.0,1.0,5.0,5.0,357.8127509999831,5.0,1.0,phase_2,stop,500.0,800.0,3.0,,,,,,,,,orange,hexagon
0.0,3.0,3.0,0.0,6.0,6.0,788.8946100001704,5.0,1.0,phase_2,go,450.0,800.0,1.0,,,,,,,,,magenta,I
0.0,4.0,4.0,0.0,6.0,6.0,900.1502320002146,5.0,1.0,phase_2,go,450.0,800.0,1.0,,,,,,,,,yellow,diamond
0.0,2.0,2.0,0.0,5.0,5.0,890.2564750001147,5.0,1.0,phase_2,go,450.0,800.0,1.0,,,,,,,,,blue,cross
0.0,2.0,2.0,0.0,6.0,6.0,753.7118979998922,5.0,1.0,phase_2,go,450.0,800.0,1.0,,,,,,,,,blue,cross
0.0,5.0,1.0,1.0,5.0,5.0,704.6081429998594,5.0,1.0,phase_2,go,450.0,800.0,1.0,,,,,,,,,gray,square
0.0,8.0,4.0,1.0,5.0,5.0,824.9478129996533,5.0,1.0,phase_2,go,450.0,800.0,1.0,,,,,,,,,cyan,circle
0.0,7.0,3.0,1.0,5.0,5.0,843.5359989998688,5.0,1.0,phase_2,go,450.0,800.0,1.0,,,,,,,,,green,triangle
0.0,2.0,2.0,0.0,6.0,6.0,799.2781180000748,5.0,1.0,phase_2,go,450.0,800.0,1.0,,,,,,,,,blue,cross
0.0,2.0,2.0,0.0,6.0,6.0,871.4232010001979,5.0,1.0,phase_2,go,450.0,800.0,1.0,,,,,,,,,blue,cross
0.0,5.0,1.0,1.0,6.0,6.0,861.4817640000183,5.0,1.0,phase_2,stop,450.0,800.0,3.0,,,,,,,,,gray,square
0.0,2.0,2.0,0.0,6.0,6.0,789.2481479998423,5.0,1.0,phase_2,go,450.0,750.0,1.0,,,,,,,,,blue,cross
0.0,8.0,4.0,1.0,5.0,0.0,0.0,5.0,1.0,phase_2,stop,450.0,750.0,4.0,,,,,,,,,cyan,circle
0.0,5.0,1.0,1.0,6.0,6.0,843.7636220000968,5.0,1.0,phase_2,stop,500.0,750.0,3.0,,,,,,,,,gray,square
0.0,4.0,4.0,0.0,5.0,5.0,750.9748090001267,5.0,1.0,phase_2,go,500.0,700.0,1.0,,,,,,,,,yellow,diamond
0.0,1.0,1.0,0.0,5.0,5.0,790.1786029997311,5.0,1.0,phase_2,go,500.0,700.0,1.0,,,,,,,,,white,flipped triangle
0.0,1.0,1.0,0.0,5.0,5.0,789.1448599998512,5.0,1.0,phase_2,go,500.0,700.0,1.0,,,,,,,,,white,flipped triangle
0.0,2.0,2.0,0.0,5.0,5.0,541.0970499997347,5.0,1.0,phase_2,go,500.0,700.0,1.0,,,,,,,,,blue,cross
0.0,4.0,4.0,0.0,6.0,6.0,681.4701040002547,5.0,1.0,phase_2,go,500.0,700.0,1.0,,,,,,,,,yellow,diamond
0.0,1.0,1.0,0.0,6.0,6.0,641.0085649999928,5.0,1.0,phase_2,go,500.0,700.0,1.0,,,,,,,,,white,flipped triangle
0.0,7.0,3.0,1.0,6.0,6.0,820.2814530000069,5.0,1.0,phase_2,go,500.0,700.0,1.0,,,,,,,,,green,triangle
0.0,1.0,1.0,0.0,6.0,6.0,679.8828239998329,5.0,1.0,phase_2,go,500.0,700.0,1.0,,,,,,,,,white,flipped triangle
0.0,3.0,3.0,0.0,6.0,6.0,554.6178270001292,5.0,1.0,phase_2,go,500.0,700.0,1.0,,,,,,,,,magenta,I
0.0,6.0,2.0,1.0,6.0,6.0,727.0736450000186,5.0,1.0,phase_2,stop,500.0,700.0,3.0,,,,,,,,,orange,hexagon
0.0,1.0,1.0,0.0,6.0,6.0,982.8469680001036,5.0,1.0,phase_2,go,500.0,650.0,1.0,,,,,,,,,white,flipped triangle
0.0,1.0,1.0,0.0,5.0,5.0,734.1025780001473,5.0,1.0,phase_2,go,500.0,650.0,1.0,,,,,,,,,white,flipped triangle
0.0,5.0,1.0,1.0,5.0,5.0,480.3201120002995,5.0,1.0,phase_2,go,500.0,650.0,1.0,,,,,,,,,gray,square
0.0,4.0,4.0,0.0,5.0,5.0,717.0534120000411,5.0,1.0,phase_2,go,500.0,650.0,1.0,,,,,,,,,yellow,diamond
0.0,2.0,2.0,0.0,5.0,5.0,943.9677229997868,5.0,1.0,phase_2,go,500.0,650.0,1.0,,,,,,,,,blue,cross
0.0,7.0,3.0,1.0,6.0,6.0,469.8989789999359,6.0,1.0,phase_2,stop,500.0,650.0,3.0,,,,,,,,,green,triangle
0.0,3.0,3.0,0.0,6.0,6.0,542.5392239999383,6.0,1.0,phase_2,go,500.0,600.0,1.0,,,,,,,,,magenta,I
0.0,3.0,3.0,0.0,6.0,6.0,642.394516999957,6.0,1.0,phase_2,go,500.0,600.0,1.0,,,,,,,,,magenta,I
0.0,3.0,3.0,0.0,6.0,6.0,748.9796879999631,6.0,1.0,phase_2,go,500.0,600.0,1.0,,,,,,,,,magenta,I
0.0,1.0,1.0,0.0,5.0,5.0,315.0478930001554,6.0,1.0,phase_2,go,500.0,600.0,1.0,,,,,,,,,white,flipped triangle
0.0,5.0,1.0,1.0,6.0,6.0,256.4625800000613,6.0,1.0,phase_2,go,500.0,600.0,1.0,,,,,,,,,gray,square
0.0,1.0,1.0,0.0,6.0,6.0,666.7902730000606,6.0,1.0,phase_2,go,500.0,600.0,1.0,,,,,,,,,white,flipped triangle
0.0,7.0,3.0,1.0,5.0,5.0,274.550764000196,6.0,1.0,phase_2,stop,500.0,600.0,3.0,,,,,,,,,green,triangle
0.0,3.0,3.0,0.0,6.0,6.0,386.5427340001588,6.0,1.0,phase_2,go,450.0,600.0,1.0,,,,,,,,,magenta,I
0.0,6.0,2.0,1.0,5.0,5.0,530.1059250000435,6.0,1.0,phase_2,stop,450.0,600.0,3.0,,,,,,,,,orange,hexagon
0.0,1.0,1.0,0.0,5.0,5.0,816.3970479999989,6.0,1.0,phase_2,go,400.0,600.0,1.0,,,,,,,,,white,flipped triangle
0.0,1.0,1.0,0.0,5.0,5.0,551.4486840002064,6.0,1.0,phase_2,go,400.0,600.0,1.0,,,,,,,,,white,flipped triangle
0.0,1.0,1.0,0.0,5.0,5.0,486.7104439999821,6.0,1.0,phase_2,go,400.0,600.0,1.0,,,,,,,,,white,flipped triangle
0.0,3.0,3.0,0.0,5.0,5.0,388.4412180000254,6.0,1.0,phase_2,go,400.0,600.0,1.0,,,,,,,,,magenta,I
0.0,1.0,1.0,0.0,5.0,5.0,275.5828099998325,6.0,1.0,phase_2,go,400.0,600.0,1.0,,,,,,,,,white,flipped triangle
0.0,7.0,3.0,1.0,6.0,6.0,259.5348959998773,6.0,1.0,phase_2,stop,400.0,600.0,3.0,,,,,,,,,green,triangle
0.0,6.0,2.0,1.0,5.0,5.0,421.8677090002529,6.0,1.0,phase_2,stop,400.0,550.0,3.0,,,,,,,,,orange,hexagon
0.0,2.0,2.0,0.0,6.0,6.0,594.8879120001038,6.0,1.0,phase_2,go,350.0,550.0,1.0,,,,,,,,,blue,cross
0.0,6.0,2.0,1.0,6.0,6.0,530.1765260001048,6.0,1.0,phase_2,stop,350.0,550.0,3.0,,,,,,,,,orange,hexagon
0.0,3.0,3.0,0.0,5.0,5.0,340.2490210000906,6.0,1.0,phase_2,go,350.0,500.0,1.0,,,,,,,,,magenta,I
0.0,3.0,3.0,0.0,5.0,5.0,288.6397409997698,6.0,1.0,phase_2,go,350.0,500.0,1.0,,,,,,,,,magenta,I
0.0,7.0,3.0,1.0,6.0,6.0,619.0616379999483,6.0,1.0,phase_2,go,350.0,500.0,1.0,,,,,,,,,green,triangle
0.0,3.0,3.0,0.0,6.0,6.0,287.7488770000127,6.0,1.0,phase_2,go,350.0,500.0,1.0,,,,,,,,,magenta,I
0.0,8.0,4.0,1.0,6.0,6.0,264.5651270004236,6.0,1.0,phase_2,stop,350.0,500.0,3.0,,,,,,,,,cyan,circle
0.0,6.0,2.0,1.0,6.0,6.0,486.3650199999938,6.0,1.0,phase_2,stop,350.0,450.0,3.0,,,,,,,,,orange,hexagon
0.0,2.0,2.0,0.0,5.0,5.0,278.3582530000785,6.0,1.0,phase_2,go,350.0,400.0,1.0,,,,,,,,,blue,cross
0.0,4.0,4.0,0.0,5.0,5.0,205.7741420003367,6.0,1.0,phase_2,go,350.0,400.0,1.0,,,,,,,,,yellow,diamond
0.0,1.0,1.0,0.0,6.0,6.0,292.8321610002058,6.0,1.0,phase_2,go,350.0,400.0,1.0,,,,,,,,,white,flipped triangle
0.0,6.0,2.0,1.0,6.0,6.0,510.6299989997751,6.0,1.0,phase_2,stop,350.0,400.0,3.0,,,,,,,,,orange,hexagon
0.0,3.0,3.0,0.0,5.0,5.0,566.7544450002424,6.0,1.0,phase_2,go,350.0,350.0,1.0,,,,,,,,,magenta,I
0.0,8.0,4.0,1.0,5.0,5.0,308.3903290003036,6.0,1.0,phase_2,go,350.0,350.0,1.0,,,,,,,,,cyan,circle
0.0,7.0,3.0,1.0,5.0,5.0,554.0136399999938,6.0,1.0,phase_2,go,350.0,350.0,1.0,,,,,,,,,green,triangle
0.0,1.0,1.0,0.0,5.0,5.0,658.0147650001891,6.0,1.0,phase_2,go,350.0,350.0,1.0,,,,,,,,,white,flipped triangle
0.0,1.0,1.0,0.0,6.0,6.0,460.0344979999136,6.0,1.0,phase_2,go,350.0,350.0,1.0,,,,,,,,,white,flipped triangle
0.0,1.0,1.0,0.0,5.0,5.0,474.4887130000279,6.0,1.0,phase_2,go,350.0,350.0,1.0,,,,,,,,,white,flipped triangle
0.0,6.0,2.0,1.0,6.0,6.0,824.823054999797,6.0,1.0,phase_2,go,350.0,350.0,1.0,,,,,,,,,orange,hexagon
0.0,3.0,3.0,0.0,6.0,6.0,287.9822770000828,7.0,1.0,phase_2,go,350.0,350.0,1.0,,,,,,,,,magenta,I
0.0,5.0,1.0,1.0,5.0,5.0,312.8233550000914,7.0,1.0,phase_2,stop,350.0,350.0,3.0,,,,,,,,,gray,square
0.0,5.0,1.0,1.0,5.0,5.0,340.9043159999783,7.0,1.0,phase_2,stop,300.0,350.0,3.0,,,,,,,,,gray,square
0.0,2.0,2.0,0.0,5.0,5.0,556.267948000368,7.0,1.0,phase_2,go,250.0,350.0,1.0,,,,,,,,,blue,cross
0.0,7.0,3.0,1.0,6.0,6.0,435.5360620002102,7.0,1.0,phase_2,stop,250.0,350.0,3.0,,,,,,,,,green,triangle
0.0,8.0,4.0,1.0,6.0,6.0,461.035160999927,7.0,1.0,phase_2,go,250.0,300.0,1.0,,,,,,,,,cyan,circle
0.0,4.0,4.0,0.0,6.0,6.0,434.711225999763,7.0,1.0,phase_2,go,250.0,300.0,1.0,,,,,,,,,yellow,diamond
0.0,7.0,3.0,1.0,5.0,5.0,277.049519999764,7.0,1.0,phase_2,stop,250.0,300.0,3.0,,,,,,,,,green,triangle
0.0,7.0,3.0,1.0,6.0,6.0,243.5030550000192,7.0,1.0,phase_2,stop,200.0,300.0,3.0,,,,,,,,,green,triangle
0.0,2.0,2.0,0.0,6.0,6.0,315.8654679996289,7.0,1.0,phase_2,go,200.0,250.0,1.0,,,,,,,,,blue,cross
0.0,4.0,4.0,0.0,5.0,5.0,211.0501639999711,7.0,1.0,phase_2,go,200.0,250.0,1.0,,,,,,,,,yellow,diamond
0.0,7.0,3.0,1.0,5.0,5.0,255.51506800002238,7.0,1.0,phase_2,stop,200.0,250.0,3.0,,,,,,,,,green,triangle
0.0,2.0,2.0,0.0,6.0,6.0,238.6673199998767,7.0,1.0,phase_2,go,150.0,250.0,1.0,,,,,,,,,blue,cross
0.0,6.0,2.0,1.0,5.0,0.0,0.0,7.0,1.0,phase_2,stop,150.0,250.0,4.0,,,,,,,,,orange,hexagon
0.0,5.0,1.0,1.0,6.0,0.0,0.0,7.0,1.0,phase_2,stop,200.0,250.0,4.0,,,,,,,,,gray,square
0.0,1.0,1.0,0.0,6.0,6.0,484.8928689998502,7.0,1.0,phase_2,go,200.0,300.0,1.0,,,,,,,,,white,flipped triangle
0.0,2.0,2.0,0.0,5.0,5.0,511.3680520003072,7.0,1.0,phase_2,go,200.0,300.0,1.0,,,,,,,,,blue,cross
0.0,5.0,1.0,1.0,5.0,0.0,0.0,7.0,1.0,phase_2,stop,200.0,300.0,4.0,,,,,,,,,gray,square
0.0,4.0,4.0,0.0,5.0,5.0,396.8365730002006,7.0,1.0,phase_2,go,250.0,300.0,1.0,,,,,,,,,yellow,diamond
0.0,5.0,1.0,1.0,5.0,0.0,0.0,7.0,1.0,phase_2,stop,250.0,300.0,4.0,,,,,,,,,gray,square
0.0,1.0,1.0,0.0,6.0,6.0,658.5402450000402,7.0,1.0,phase_2,go,300.0,300.0,1.0,,,,,,,,,white,flipped triangle
0.0,1.0,1.0,0.0,6.0,6.0,611.2832660001004,7.0,1.0,phase_2,go,300.0,300.0,1.0,,,,,,,,,white,flipped triangle
0.0,3.0,3.0,0.0,5.0,5.0,603.0053819999921,7.0,1.0,phase_2,go,300.0,300.0,1.0,,,,,,,,,magenta,I
0.0,2.0,2.0,0.0,6.0,6.0,570.7963479999307,7.0,1.0,phase_2,go,300.0,300.0,1.0,,,,,,,,,blue,cross
0.0,6.0,2.0,1.0,5.0,5.0,296.9206729999314,7.0,1.0,phase_2,stop,300.0,300.0,3.0,,,,,,,,,orange,hexagon
0.0,5.0,1.0,1.0,5.0,0.0,0.0,7.0,1.0,phase_2,stop,250.0,300.0,4.0,,,,,,,,,gray,square
0.0,1.0,1.0,0.0,5.0,5.0,439.2953729998226,7.0,1.0,phase_2,go,300.0,300.0,1.0,,,,,,,,,white,flipped triangle
0.0,6.0,2.0,1.0,6.0,0.0,0.0,7.0,1.0,phase_2,stop,300.0,300.0,4.0,,,,,,,,,orange,hexagon
0.0,4.0,4.0,0.0,5.0,5.0,614.2855849998341,7.0,1.0,phase_2,go,300.0,350.0,1.0,,,,,,,,,yellow,diamond
0.0,3.0,3.0,0.0,6.0,6.0,633.4576929998548,7.0,1.0,phase_2,go,300.0,350.0,1.0,,,,,,,,,magenta,I
0.0,6.0,2.0,1.0,5.0,5.0,448.6623170000712,7.0,1.0,phase_2,stop,300.0,350.0,3.0,,,,,,,,,orange,hexagon
0.0,2.0,2.0,0.0,5.0,5.0,300.6779259999348,7.0,1.0,phase_2,go,250.0,350.0,1.0,,,,,,,,,blue,cross
0.0,2.0,2.0,0.0,5.0,5.0,267.3994310002854,7.0,1.0,phase_2,go,250.0,350.0,1.0,,,,,,,,,blue,cross
0.0,8.0,4.0,1.0,6.0,6.0,412.8798080000706,7.0,1.0,phase_2,stop,250.0,350.0,3.0,,,,,,,,,cyan,circle
0.0,5.0,1.0,1.0,5.0,0.0,0.0,7.0,1.0,phase_2,stop,250.0,300.0,4.0,,,,,,,,,gray,square
0.0,3.0,3.0,0.0,6.0,6.0,259.0227330001653,7.0,1.0,phase_2,go,300.0,300.0,1.0,,,,,,,,,magenta,I
0.0,3.0,3.0,0.0,5.0,5.0,296.6083450000951,8.0,1.0,phase_2,go,300.0,300.0,1.0,,,,,,,,,magenta,I
0.0,5.0,1.0,1.0,5.0,0.0,0.0,8.0,1.0,phase_2,stop,300.0,300.0,4.0,,,,,,,,,gray,square
0.0,4.0,4.0,0.0,6.0,6.0,256.0073229997215,8.0,1.0,phase_2,go,350.0,300.0,1.0,,,,,,,,,yellow,diamond
0.0,4.0,4.0,0.0,5.0,5.0,472.4211399998239,8.0,1.0,phase_2,go,350.0,300.0,1.0,,,,,,,,,yellow,diamond
0.0,3.0,3.0,0.0,6.0,6.0,551.2266949999685,8.0,1.0,phase_2,go,350.0,300.0,1.0,,,,,,,,,magenta,I
0.0,8.0,4.0,1.0,5.0,5.0,422.0330490002197,8.0,1.0,phase_2,stop,350.0,300.0,3.0,,,,,,,,,cyan,circle
0.0,2.0,2.0,0.0,5.0,5.0,431.8624880002062,8.0,1.0,phase_2,go,300.0,300.0,1.0,,,,,,,,,blue,cross
0.0,3.0,3.0,0.0,5.0,5.0,304.1739410000446,8.0,1.0,phase_2,go,300.0,300.0,1.0,,,,,,,,,magenta,I
0.0,3.0,3.0,0.0,6.0,6.0,272.2233469999082,8.0,1.0,phase_2,go,300.0,300.0,1.0,,,,,,,,,magenta,I
0.0,1.0,1.0,0.0,6.0,6.0,267.666588999873,8.0,1.0,phase_2,go,300.0,300.0,1.0,,,,,,,,,white,flipped triangle
0.0,3.0,3.0,0.0,5.0,5.0,214.4884310000634,8.0,1.0,phase_2,go,300.0,300.0,1.0,,,,,,,,,magenta,I
0.0,8.0,4.0,1.0,6.0,6.0,235.34674899974559,8.0,1.0,phase_2,go,300.0,300.0,1.0,,,,,,,,,cyan,circle
0.0,8.0,4.0,1.0,5.0,5.0,242.0394010000564,8.0,1.0,phase_2,go,300.0,300.0,1.0,,,,,,,,,cyan,circle
0.0,5.0,1.0,1.0,5.0,5.0,276.6373240001485,8.0,1.0,phase_2,stop,300.0,300.0,3.0,,,,,,,,,gray,square
0.0,1.0,1.0,0.0,6.0,6.0,435.8612739997625,8.0,1.0,phase_2,go,250.0,300.0,1.0,,,,,,,,,white,flipped triangle
0.0,5.0,1.0,1.0,5.0,5.0,235.2898789999926,8.0,1.0,phase_2,stop,250.0,300.0,3.0,,,,,,,,,gray,square
0.0,6.0,2.0,1.0,5.0,5.0,280.2057120002246,8.0,1.0,phase_2,stop,200.0,300.0,3.0,,,,,,,,,orange,hexagon
0.0,1.0,1.0,0.0,6.0,6.0,407.2842470000068,8.0,1.0,phase_2,go,150.0,300.0,1.0,,,,,,,,,white,flipped triangle
0.0,3.0,3.0,0.0,5.0,5.0,543.563517000166,8.0,1.0,phase_2,go,150.0,300.0,1.0,,,,,,,,,magenta,I
0.0,4.0,4.0,0.0,6.0,6.0,392.5500309997005,8.0,1.0,phase_2,go,150.0,300.0,1.0,,,,,,,,,yellow,diamond
0.0,5.0,1.0,1.0,6.0,6.0,464.7050339999623,8.0,1.0,phase_2,go,150.0,300.0,1.0,,,,,,,,,gray,square
0.0,6.0,2.0,1.0,6.0,6.0,415.7064869996247,8.0,1.0,phase_2,stop,150.0,300.0,3.0,,,,,,,,,orange,hexagon
0.0,1.0,1.0,0.0,5.0,5.0,271.5091939999183,8.0,1.0,phase_2,go,150.0,250.0,1.0,,,,,,,,,white,flipped triangle
0.0,8.0,4.0,1.0,5.0,5.0,301.0774320000564,8.0,1.0,phase_2,go,150.0,250.0,1.0,,,,,,,,,cyan,circle
0.0,7.0,3.0,1.0,6.0,5.0,270.4197560001375,8.0,1.0,phase_2,stop,150.0,250.0,3.0,,,,,,,,,green,triangle
0.0,8.0,4.0,1.0,6.0,5.0,299.1669879997971,8.0,1.0,phase_2,stop,150.0,200.0,3.0,,,,,,,,,cyan,circle
0.0,4.0,4.0,0.0,5.0,5.0,268.1902959998297,8.0,1.0,phase_2,go,150.0,150.0,1.0,,,,,,,,,yellow,diamond
0.0,6.0,2.0,1.0,6.0,0.0,0.0,8.0,1.0,phase_2,stop,150.0,150.0,4.0,,,,,,,,,orange,hexagon
0.0,7.0,3.0,1.0,5.0,0.0,0.0,8.0,1.0,phase_2,stop,150.0,200.0,4.0,,,,,,,,,green,triangle
0.0,1.0,1.0,0.0,6.0,6.0,267.417328999727,8.0,1.0,phase_2,go,200.0,200.0,1.0,,,,,,,,,white,flipped triangle
0.0,4.0,4.0,0.0,5.0,5.0,521.2771830001657,8.0,1.0,phase_2,go,200.0,200.0,1.0,,,,,,,,,yellow,diamond
0.0,2.0,2.0,0.0,5.0,5.0,481.3181320000694,8.0,1.0,phase_2,go,200.0,200.0,1.0,,,,,,,,,blue,cross
0.0,4.0,4.0,0.0,6.0,6.0,288.9637370003584,8.0,1.0,phase_2,go,200.0,200.0,1.0,,,,,,,,,yellow,diamond
0.0,3.0,3.0,0.0,6.0,6.0,426.1787830000685,8.0,1.0,phase_2,go,200.0,200.0,1.0,,,,,,,,,magenta,I
0.0,2.0,2.0,0.0,6.0,6.0,242.1449959997517,8.0,1.0,phase_2,go,200.0,200.0,1.0,,,,,,,,,blue,cross
0.0,4.0,4.0,0.0,5.0,5.0,229.3194990002121,8.0,1.0,phase_2,go,200.0,200.0,1.0,,,,,,,,,yellow,diamond
0.0,4.0,4.0,0.0,7.0,1.0,1737.6981050001632,1.0,2.0,phase_3,,,,,204.0,6.0,204.0,170.0,102.0,34.0,68.0,136.0,yellow,diamond
0.0,4.0,4.0,0.0,7.0,4.0,3166.356577999977,1.0,1.0,phase_3,,,,,204.0,6.0,34.0,102.0,68.0,204.0,136.0,170.0,yellow,diamond
0.0,3.0,3.0,0.0,7.0,2.0,3335.143612000138,1.0,1.0,phase_3,,,,,170.0,5.0,102.0,170.0,34.0,68.0,204.0,136.0,magenta,I
0.0,6.0,2.0,1.0,7.0,3.0,1849.2357190002624,1.0,1.0,phase_3,,,,,108.0,2.0,54.0,270.0,108.0,162.0,324.0,216.0,orange,hexagon
0.0,5.0,1.0,1.0,7.0,2.0,1962.3339270001447,1.0,1.0,phase_3,,,,,54.0,1.0,162.0,54.0,270.0,108.0,216.0,324.0,gray,square
0.0,6.0,2.0,1.0,7.0,5.0,3507.8002640002524,1.0,1.0,phase_3,,,,,98.0,2.0,49.0,245.0,294.0,147.0,98.0,196.0,orange,hexagon
0.0,7.0,3.0,1.0,7.0,4.0,2538.257996000084,1.0,1.0,phase_3,,,,,68.0,2.0,170.0,102.0,34.0,68.0,204.0,136.0,green,triangle
0.0,3.0,3.0,0.0,7.0,6.0,4613.6952810002185,1.0,1.0,phase_3,,,,,102.0,3.0,68.0,34.0,170.0,136.0,204.0,102.0,magenta,I
0.0,4.0,4.0,0.0,7.0,5.0,3570.240747000298,1.0,1.0,phase_3,,,,,264.0,6.0,44.0,132.0,220.0,176.0,264.0,88.0,yellow,diamond
0.0,1.0,1.0,0.0,7.0,5.0,1589.3927470001472,1.0,1.0,phase_3,,,,,49.0,1.0,98.0,196.0,294.0,147.0,49.0,245.0,white,flipped triangle
0.0,7.0,3.0,1.0,7.0,3.0,2334.635561000141,1.0,1.0,phase_3,,,,,44.0,1.0,264.0,220.0,44.0,132.0,176.0,88.0,green,triangle
0.0,8.0,4.0,1.0,7.0,5.0,2070.377009999902,1.0,1.0,phase_3,,,,,204.0,6.0,68.0,34.0,170.0,102.0,204.0,136.0,cyan,circle
0.0,2.0,2.0,0.0,7.0,4.0,3511.3351259997216,1.0,1.0,phase_3,,,,,294.0,6.0,245.0,98.0,147.0,294.0,49.0,196.0,blue,cross
0.0,2.0,2.0,0.0,7.0,1.0,2520.541733999835,1.0,1.0,phase_3,,,,,156.0,4.0,156.0,195.0,117.0,234.0,78.0,39.0,blue,cross
0.0,8.0,4.0,1.0,7.0,3.0,1323.828464000144,1.0,1.0,phase_3,,,,,294.0,6.0,245.0,147.0,294.0,196.0,49.0,98.0,cyan,circle
0.0,6.0,2.0,1.0,7.0,4.0,2445.9152520003045,1.0,1.0,phase_3,,,,,132.0,3.0,176.0,220.0,88.0,132.0,44.0,264.0,orange,hexagon
0.0,2.0,2.0,0.0,7.0,4.0,2127.86867099976,1.0,1.0,phase_3,,,,,196.0,4.0,49.0,294.0,245.0,196.0,147.0,98.0,blue,cross
0.0,5.0,1.0,1.0,7.0,5.0,2528.760926999894,1.0,1.0,phase_3,,,,,44.0,1.0,264.0,220.0,132.0,88.0,44.0,176.0,gray,square
0.0,4.0,4.0,0.0,7.0,4.0,2233.095870999932,1.0,1.0,phase_3,,,,,324.0,6.0,216.0,54.0,162.0,324.0,270.0,108.0,yellow,diamond
0.0,7.0,3.0,1.0,7.0,5.0,3696.850674999951,1.0,1.0,phase_3,,,,,78.0,2.0,195.0,39.0,156.0,234.0,78.0,117.0,green,triangle
0.0,4.0,4.0,0.0,7.0,4.0,1981.7168509998735,2.0,1.0,phase_3,,,,,195.0,5.0,234.0,117.0,78.0,195.0,39.0,156.0,yellow,diamond
0.0,8.0,4.0,1.0,7.0,5.0,2774.2078280002715,2.0,1.0,phase_3,,,,,220.0,5.0,264.0,132.0,44.0,176.0,220.0,88.0,cyan,circle
0.0,8.0,4.0,1.0,7.0,2.0,1673.6667390000548,2.0,1.0,phase_3,,,,,264.0,6.0,88.0,264.0,132.0,176.0,220.0,44.0,cyan,circle
0.0,8.0,4.0,1.0,7.0,6.0,2799.590626000281,2.0,1.0,phase_3,,,,,270.0,5.0,216.0,162.0,54.0,324.0,108.0,270.0,cyan,circle
0.0,5.0,1.0,1.0,7.0,4.0,3290.0502740003503,2.0,1.0,phase_3,,,,,44.0,1.0,176.0,132.0,88.0,44.0,264.0,220.0,gray,square
0.0,7.0,3.0,1.0,7.0,3.0,1796.5988360001577,2.0,1.0,phase_3,,,,,54.0,1.0,162.0,270.0,54.0,216.0,324.0,108.0,green,triangle
0.0,5.0,1.0,1.0,7.0,1.0,2605.9717440002714,2.0,1.0,phase_3,,,,,49.0,1.0,49.0,245.0,196.0,147.0,294.0,98.0,gray,square
0.0,3.0,3.0,0.0,7.0,4.0,2744.114744999933,2.0,1.0,phase_3,,,,,196.0,4.0,147.0,245.0,294.0,196.0,98.0,49.0,magenta,I
0.0,6.0,2.0,1.0,7.0,1.0,1856.757685000048,2.0,1.0,phase_3,,,,,117.0,3.0,117.0,39.0,234.0,195.0,78.0,156.0,orange,hexagon
0.0,1.0,1.0,0.0,7.0,4.0,2280.3483739999137,2.0,1.0,phase_3,,,,,49.0,1.0,294.0,147.0,245.0,49.0,196.0,98.0,white,flipped triangle
0.0,6.0,2.0,1.0,7.0,6.0,2811.6456650000146,2.0,1.0,phase_3,,,,,98.0,2.0,245.0,196.0,49.0,294.0,147.0,98.0,orange,hexagon
0.0,5.0,1.0,1.0,7.0,1.0,2292.7137450001283,2.0,1.0,phase_3,,,,,39.0,1.0,39.0,234.0,195.0,117.0,78.0,156.0,gray,square
0.0,8.0,4.0,1.0,7.0,4.0,1813.642773000538,2.0,1.0,phase_3,,,,,195.0,5.0,117.0,156.0,39.0,195.0,234.0,78.0,cyan,circle
0.0,8.0,4.0,1.0,7.0,5.0,1831.653412000378,2.0,1.0,phase_3,,,,,270.0,5.0,216.0,324.0,108.0,162.0,270.0,54.0,cyan,circle
0.0,5.0,1.0,1.0,7.0,1.0,2434.350612000344,2.0,1.0,phase_3,,,,,54.0,1.0,54.0,108.0,270.0,162.0,324.0,216.0,gray,square
0.0,2.0,2.0,0.0,7.0,2.0,2083.2780330001697,2.0,1.0,phase_3,,,,,216.0,4.0,108.0,216.0,54.0,324.0,270.0,162.0,blue,cross
0.0,2.0,2.0,0.0,7.0,4.0,1099.4529800000237,2.0,1.0,phase_3,,,,,176.0,4.0,220.0,264.0,88.0,176.0,44.0,132.0,blue,cross
0.0,3.0,3.0,0.0,7.0,2.0,1212.2064999994109,2.0,1.0,phase_3,,,,,117.0,3.0,156.0,117.0,234.0,195.0,39.0,78.0,magenta,I
0.0,1.0,1.0,0.0,7.0,1.0,2527.612495999165,2.0,1.0,phase_3,,,,,68.0,2.0,68.0,204.0,102.0,34.0,170.0,136.0,white,flipped triangle
0.0,5.0,1.0,1.0,7.0,5.0,1640.5821559992546,2.0,1.0,phase_3,,,,,34.0,1.0,102.0,170.0,204.0,68.0,34.0,136.0,gray,square
0.0,2.0,2.0,0.0,7.0,5.0,3391.6531009999744,3.0,1.0,phase_3,,,,,195.0,5.0,78.0,39.0,156.0,117.0,195.0,234.0,blue,cross
0.0,4.0,4.0,0.0,7.0,5.0,1649.6561389994897,3.0,1.0,phase_3,,,,,270.0,5.0,162.0,324.0,108.0,216.0,270.0,54.0,yellow,diamond
0.0,3.0,3.0,0.0,7.0,6.0,2547.6462810001976,3.0,1.0,phase_3,,,,,162.0,3.0,324.0,108.0,216.0,54.0,270.0,162.0,magenta,I
0.0,7.0,3.0,1.0,7.0,1.0,3485.937682999974,3.0,1.0,phase_3,,,,,176.0,4.0,176.0,220.0,44.0,132.0,264.0,88.0,green,triangle
0.0,5.0,1.0,1.0,7.0,4.0,1759.0497559995129,3.0,1.0,phase_3,,,,,68.0,2.0,102.0,34.0,136.0,68.0,204.0,170.0,gray,square
0.0,6.0,2.0,1.0,7.0,2.0,2273.752422999678,3.0,1.0,phase_3,,,,,102.0,3.0,170.0,102.0,68.0,136.0,204.0,34.0,orange,hexagon
0.0,7.0,3.0,1.0,7.0,6.0,2441.7591949995767,3.0,1.0,phase_3,,,,,147.0,3.0,245.0,98.0,196.0,294.0,49.0,147.0,green,triangle
0.0,1.0,1.0,0.0,7.0,5.0,2192.4550229996385,3.0,1.0,phase_3,,,,,117.0,3.0,78.0,39.0,156.0,195.0,117.0,234.0,white,flipped triangle
0.0,3.0,3.0,0.0,7.0,1.0,4038.109202000669,3.0,1.0,phase_3,,,,,108.0,2.0,108.0,216.0,270.0,162.0,54.0,324.0,magenta,I
0.0,2.0,2.0,0.0,7.0,5.0,1984.026697000445,3.0,1.0,phase_3,,,,,88.0,2.0,132.0,220.0,44.0,264.0,88.0,176.0,blue,cross
0.0,7.0,3.0,1.0,7.0,3.0,1241.6943039997932,3.0,1.0,phase_3,,,,,147.0,3.0,196.0,294.0,147.0,245.0,49.0,98.0,green,triangle
0.0,1.0,1.0,0.0,7.0,5.0,1235.8054070000437,3.0,1.0,phase_3,,,,,78.0,2.0,39.0,195.0,156.0,234.0,78.0,117.0,white,flipped triangle
0.0,6.0,2.0,1.0,7.0,4.0,1292.1564380003474,3.0,1.0,phase_3,,,,,102.0,3.0,136.0,34.0,204.0,102.0,170.0,68.0,orange,hexagon
0.0,3.0,3.0,0.0,7.0,5.0,1512.6207260000228,3.0,1.0,phase_3,,,,,176.0,4.0,88.0,264.0,132.0,220.0,176.0,44.0,magenta,I
0.0,5.0,1.0,1.0,7.0,1.0,2007.3051899998973,3.0,1.0,phase_3,,,,,39.0,1.0,39.0,78.0,234.0,117.0,195.0,156.0,gray,square
0.0,6.0,2.0,1.0,7.0,5.0,2699.4164729994736,3.0,1.0,phase_3,,,,,132.0,3.0,88.0,264.0,176.0,44.0,132.0,220.0,orange,hexagon
0.0,4.0,4.0,0.0,7.0,4.0,1937.7695370003491,3.0,1.0,phase_3,,,,,195.0,5.0,78.0,156.0,39.0,195.0,117.0,234.0,yellow,diamond
0.0,4.0,4.0,0.0,7.0,1.0,1796.3981670000069,3.0,1.0,phase_3,,,,,220.0,5.0,220.0,88.0,264.0,132.0,44.0,176.0,yellow,diamond
0.0,4.0,4.0,0.0,7.0,5.0,2143.838797000172,3.0,1.0,phase_3,,,,,294.0,6.0,147.0,98.0,245.0,49.0,294.0,196.0,yellow,diamond
0.0,1.0,1.0,0.0,7.0,3.0,1209.1662789998736,3.0,1.0,phase_3,,,,,220.0,5.0,264.0,132.0,220.0,44.0,176.0,88.0,white,flipped triangle
0.0,8.0,4.0,1.0,7.0,4.0,2706.226977999904,4.0,1.0,phase_3,,,,,204.0,6.0,136.0,170.0,102.0,204.0,34.0,68.0,cyan,circle
0.0,3.0,3.0,0.0,7.0,2.0,2992.454015000476,4.0,1.0,phase_3,,,,,245.0,5.0,147.0,245.0,98.0,196.0,294.0,49.0,magenta,I
0.0,6.0,2.0,1.0,7.0,6.0,2633.408674000748,4.0,1.0,phase_3,,,,,108.0,2.0,162.0,216.0,270.0,324.0,54.0,108.0,orange,hexagon
0.0,1.0,1.0,0.0,7.0,2.0,3485.6048100000407,4.0,1.0,phase_3,,,,,54.0,1.0,270.0,54.0,162.0,324.0,108.0,216.0,white,flipped triangle
0.0,2.0,2.0,0.0,7.0,5.0,2955.9198040005867,4.0,1.0,phase_3,,,,,102.0,3.0,34.0,68.0,170.0,204.0,102.0,136.0,blue,cross
0.0,4.0,4.0,0.0,7.0,4.0,1591.7082769992703,4.0,1.0,phase_3,,,,,294.0,6.0,49.0,147.0,245.0,294.0,98.0,196.0,yellow,diamond
0.0,3.0,3.0,0.0,7.0,5.0,2351.079414999731,4.0,1.0,phase_3,,,,,132.0,3.0,44.0,176.0,88.0,264.0,132.0,220.0,magenta,I
0.0,2.0,2.0,0.0,7.0,2.0,2328.3224920005523,4.0,1.0,phase_3,,,,,204.0,6.0,170.0,204.0,68.0,136.0,34.0,102.0,blue,cross
0.0,8.0,4.0,1.0,7.0,5.0,1425.5401940008596,4.0,1.0,phase_3,,,,,294.0,6.0,245.0,147.0,98.0,49.0,294.0,196.0,cyan,circle
0.0,7.0,3.0,1.0,7.0,4.0,2484.8625009999523,4.0,1.0,phase_3,,,,,324.0,6.0,54.0,216.0,108.0,324.0,162.0,270.0,green,triangle
0.0,6.0,2.0,1.0,7.0,6.0,3007.400624000184,4.0,1.0,phase_3,,,,,117.0,3.0,39.0,78.0,195.0,234.0,156.0,117.0,orange,hexagon
0.0,1.0,1.0,0.0,7.0,4.0,2736.679560999619,4.0,1.0,phase_3,,,,,204.0,6.0,68.0,34.0,136.0,204.0,170.0,102.0,white,flipped triangle
0.0,8.0,4.0,1.0,7.0,6.0,2264.5522400007394,4.0,1.0,phase_3,,,,,195.0,5.0,39.0,117.0,78.0,156.0,234.0,195.0,cyan,circle
0.0,1.0,1.0,0.0,7.0,5.0,1692.2524490000797,4.0,1.0,phase_3,,,,,88.0,2.0,264.0,176.0,44.0,220.0,88.0,132.0,white,flipped triangle
0.0,2.0,2.0,0.0,7.0,4.0,2229.8588359999485,4.0,1.0,phase_3,,,,,324.0,6.0,162.0,216.0,54.0,324.0,108.0,270.0,blue,cross
0.0,3.0,3.0,0.0,7.0,2.0,2325.5062789994554,4.0,1.0,phase_3,,,,,78.0,2.0,156.0,78.0,234.0,195.0,39.0,117.0,magenta,I
0.0,1.0,1.0,0.0,7.0,3.0,1583.466199999748,4.0,1.0,phase_3,,,,,108.0,2.0,270.0,216.0,108.0,162.0,54.0,324.0,white,flipped triangle
0.0,5.0,1.0,1.0,7.0,1.0,1909.785785999702,4.0,1.0,phase_3,,,,,49.0,1.0,49.0,196.0,294.0,98.0,245.0,147.0,gray,square
0.0,7.0,3.0,1.0,7.0,2.0,1922.370403000059,4.0,1.0,phase_3,,,,,102.0,3.0,136.0,102.0,68.0,170.0,34.0,204.0,green,triangle
0.0,7.0,3.0,1.0,7.0,4.0,3418.7136959999407,4.0,1.0,phase_3,,,,,234.0,6.0,117.0,78.0,195.0,234.0,156.0,39.0,green,triangle
