raw_reward_magnitude,stim_reward,stepwise_reward_magnitude,paired_with_stopping,stim_location,response,reaction_time,block,num_trial_presentations,which_phase,stop_signal_trial_type,left_SSD,right_SSD,accuracy,chosen_bidding_amount,chosen_bidding_level,possible_bid_1,possible_bid_2,possible_bid_3,possible_bid_4,possible_bid_5,possible_bid_6,color_text,shape_text
214.0,7.0,3.0,1.0,1.0,1.0,300.0957749900408,1.0,1.0,phase_1,,,,,,,,,,,,,magenta,diamond
83.0,2.0,2.0,0.0,4.0,4.0,312.1187600190751,1.0,1.0,phase_1,,,,,,,,,,,,,gray,hexagon
77.0,6.0,2.0,1.0,4.0,4.0,285.8769220183603,1.0,1.0,phase_1,,,,,,,,,,,,,green,flipped triangle
31.0,1.0,1.0,0.0,4.0,4.0,297.8966170339845,1.0,1.0,phase_1,,,,,,,,,,,,,cyan,cross
197.0,3.0,3.0,0.0,3.0,3.0,278.6862360080704,1.0,1.0,phase_1,,,,,,,,,,,,,blue,circle
0.0,8.0,0.0,1.0,4.0,4.0,244.4155180128291,1.0,1.0,phase_1,,,,,,,,,,,,,orange,square
224.0,7.0,3.0,1.0,1.0,1.0,241.1122469929978,1.0,1.0,phase_1,,,,,,,,,,,,,magenta,diamond
48.0,1.0,1.0,0.0,3.0,3.0,253.82511300267652,1.0,1.0,phase_1,,,,,,,,,,,,,cyan,cross
392.0,8.0,4.0,1.0,3.0,3.0,264.7400639834814,1.0,1.0,phase_1,,,,,,,,,,,,,orange,square
104.0,6.0,2.0,1.0,2.0,2.0,261.1311549553647,1.0,1.0,phase_1,,,,,,,,,,,,,green,flipped triangle
210.0,3.0,3.0,0.0,2.0,2.0,277.210900967475,1.0,1.0,phase_1,,,,,,,,,,,,,blue,circle
0.0,8.0,0.0,1.0,2.0,2.0,294.7077790158801,1.0,1.0,phase_1,,,,,,,,,,,,,orange,square
81.0,2.0,2.0,0.0,3.0,3.0,300.3803259925917,1.0,1.0,phase_1,,,,,,,,,,,,,gray,hexagon
402.0,8.0,4.0,1.0,1.0,1.0,273.5628230147995,1.0,1.0,phase_1,,,,,,,,,,,,,orange,square
420.0,4.0,4.0,0.0,4.0,4.0,261.1721760476939,1.0,1.0,phase_1,,,,,,,,,,,,,white,I
0.0,8.0,0.0,1.0,3.0,3.0,284.0009179781191,1.0,1.0,phase_1,,,,,,,,,,,,,orange,square
0.0,7.0,0.0,1.0,3.0,3.0,270.3558829962276,1.0,1.0,phase_1,,,,,,,,,,,,,magenta,diamond
41.0,1.0,1.0,0.0,2.0,2.0,244.9205379816703,1.0,1.0,phase_1,,,,,,,,,,,,,cyan,cross
0.0,5.0,0.0,1.0,3.0,3.0,258.2385370042175,1.0,1.0,phase_1,,,,,,,,,,,,,yellow,triangle
0.0,6.0,0.0,1.0,3.0,3.0,245.3953669755719,1.0,1.0,phase_1,,,,,,,,,,,,,green,flipped triangle
34.0,1.0,1.0,0.0,1.0,1.0,257.4792689993046,1.0,1.0,phase_1,,,,,,,,,,,,,cyan,cross
190.0,3.0,3.0,0.0,3.0,3.0,240.7928149914369,1.0,1.0,phase_1,,,,,,,,,,,,,blue,circle
107.0,6.0,2.0,1.0,1.0,1.0,244.1109380451962,1.0,1.0,phase_1,,,,,,,,,,,,,green,flipped triangle
195.0,7.0,3.0,1.0,2.0,2.0,265.1060390053317,1.0,1.0,phase_1,,,,,,,,,,,,,magenta,diamond
90.0,2.0,2.0,0.0,3.0,3.0,251.92827900173143,1.0,1.0,phase_1,,,,,,,,,,,,,gray,hexagon
177.0,7.0,3.0,1.0,4.0,4.0,257.1308750193566,1.0,1.0,phase_1,,,,,,,,,,,,,magenta,diamond
117.0,2.0,2.0,0.0,3.0,3.0,223.5024850233458,1.0,1.0,phase_1,,,,,,,,,,,,,gray,hexagon
89.0,6.0,2.0,1.0,2.0,2.0,219.956271990668,1.0,1.0,phase_1,,,,,,,,,,,,,green,flipped triangle
0.0,1.0,0.0,0.0,4.0,4.0,297.1556729753501,1.0,1.0,phase_1,,,,,,,,,,,,,cyan,cross
381.0,8.0,4.0,1.0,3.0,3.0,260.0031479960307,1.0,1.0,phase_1,,,,,,,,,,,,,orange,square
45.0,5.0,1.0,1.0,2.0,2.0,273.8924750010483,1.0,1.0,phase_1,,,,,,,,,,,,,yellow,triangle
100.0,6.0,2.0,1.0,4.0,4.0,248.5203350079246,1.0,1.0,phase_1,,,,,,,,,,,,,green,flipped triangle
409.0,4.0,4.0,0.0,3.0,3.0,268.5149270109832,1.0,1.0,phase_1,,,,,,,,,,,,,white,I
196.0,7.0,3.0,1.0,4.0,4.0,333.8022099924274,1.0,1.0,phase_1,,,,,,,,,,,,,magenta,diamond
215.0,3.0,3.0,0.0,4.0,4.0,269.5272470009513,1.0,1.0,phase_1,,,,,,,,,,,,,blue,circle
58.0,5.0,1.0,1.0,1.0,1.0,240.7828760333359,1.0,1.0,phase_1,,,,,,,,,,,,,yellow,triangle
382.0,4.0,4.0,0.0,4.0,4.0,260.9734259895049,1.0,1.0,phase_1,,,,,,,,,,,,,white,I
0.0,4.0,0.0,0.0,2.0,2.0,259.7123750019818,1.0,1.0,phase_1,,,,,,,,,,,,,white,I
0.0,6.0,0.0,1.0,1.0,1.0,261.1916320165619,1.0,1.0,phase_1,,,,,,,,,,,,,green,flipped triangle
116.0,6.0,2.0,1.0,2.0,2.0,285.5324700358324,1.0,1.0,phase_1,,,,,,,,,,,,,green,flipped triangle
64.0,5.0,1.0,1.0,3.0,3.0,256.5134649630636,1.0,1.0,phase_1,,,,,,,,,,,,,yellow,triangle
377.0,4.0,4.0,0.0,3.0,3.0,262.4238959979266,1.0,1.0,phase_1,,,,,,,,,,,,,white,I
48.0,5.0,1.0,1.0,2.0,2.0,274.4882890256122,1.0,1.0,phase_1,,,,,,,,,,,,,yellow,triangle
0.0,8.0,0.0,1.0,3.0,3.0,264.3967230105772,1.0,1.0,phase_1,,,,,,,,,,,,,orange,square
120.0,6.0,2.0,1.0,2.0,2.0,233.4468319895677,1.0,1.0,phase_1,,,,,,,,,,,,,green,flipped triangle
70.0,1.0,1.0,0.0,3.0,3.0,248.5636249766685,1.0,1.0,phase_1,,,,,,,,,,,,,cyan,cross
56.0,1.0,1.0,0.0,4.0,4.0,277.621318004094,1.0,1.0,phase_1,,,,,,,,,,,,,cyan,cross
0.0,7.0,0.0,1.0,2.0,2.0,231.2322630314156,1.0,1.0,phase_1,,,,,,,,,,,,,magenta,diamond
212.0,3.0,3.0,0.0,3.0,3.0,260.6354110175743,1.0,1.0,phase_1,,,,,,,,,,,,,blue,circle
41.0,5.0,1.0,1.0,4.0,4.0,251.5652110450901,1.0,1.0,phase_1,,,,,,,,,,,,,yellow,triangle
395.0,8.0,4.0,1.0,2.0,2.0,255.3236049716361,1.0,1.0,phase_1,,,,,,,,,,,,,orange,square
395.0,8.0,4.0,1.0,3.0,3.0,253.08337400201708,1.0,1.0,phase_1,,,,,,,,,,,,,orange,square
0.0,1.0,0.0,0.0,3.0,3.0,271.8207990401424,1.0,1.0,phase_1,,,,,,,,,,,,,cyan,cross
388.0,8.0,4.0,1.0,4.0,4.0,259.5485809724778,1.0,1.0,phase_1,,,,,,,,,,,,,orange,square
106.0,6.0,2.0,1.0,4.0,4.0,259.4398169894703,1.0,1.0,phase_1,,,,,,,,,,,,,green,flipped triangle
211.0,3.0,3.0,0.0,4.0,4.0,280.830028001219,1.0,1.0,phase_1,,,,,,,,,,,,,blue,circle
39.0,1.0,1.0,0.0,2.0,2.0,243.1623459560796,1.0,1.0,phase_1,,,,,,,,,,,,,cyan,cross
75.0,5.0,1.0,1.0,4.0,4.0,257.3140090098604,1.0,1.0,phase_1,,,,,,,,,,,,,yellow,triangle
116.0,2.0,2.0,0.0,1.0,1.0,238.8113120105117,1.0,1.0,phase_1,,,,,,,,,,,,,gray,hexagon
96.0,6.0,2.0,1.0,1.0,1.0,240.5920280143618,1.0,1.0,phase_1,,,,,,,,,,,,,green,flipped triangle
0.0,6.0,0.0,1.0,1.0,1.0,353.3710099873133,1.0,2.0,phase_1,,,,,,,,,,,,,green,flipped triangle
211.0,7.0,3.0,1.0,3.0,3.0,297.6526680286042,1.0,1.0,phase_1,,,,,,,,,,,,,magenta,diamond
31.0,5.0,1.0,1.0,4.0,4.0,327.7247910154983,1.0,2.0,phase_1,,,,,,,,,,,,,yellow,triangle
179.0,3.0,3.0,0.0,2.0,2.0,316.7803050018847,1.0,1.0,phase_1,,,,,,,,,,,,,blue,circle
0.0,6.0,0.0,1.0,1.0,1.0,346.8008519848808,1.0,1.0,phase_1,,,,,,,,,,,,,green,flipped triangle
0.0,3.0,0.0,0.0,3.0,3.0,280.1031770068221,1.0,1.0,phase_1,,,,,,,,,,,,,blue,circle
0.0,2.0,0.0,0.0,4.0,4.0,300.6884189671837,1.0,1.0,phase_1,,,,,,,,,,,,,gray,hexagon
107.0,2.0,2.0,0.0,4.0,4.0,288.6552329873666,1.0,1.0,phase_1,,,,,,,,,,,,,gray,hexagon
192.0,7.0,3.0,1.0,1.0,1.0,291.7849360383115,1.0,1.0,phase_1,,,,,,,,,,,,,magenta,diamond
111.0,2.0,2.0,0.0,2.0,2.0,288.7150239548646,1.0,1.0,phase_1,,,,,,,,,,,,,gray,hexagon
70.0,5.0,1.0,1.0,3.0,3.0,336.471701040864,1.0,1.0,phase_1,,,,,,,,,,,,,yellow,triangle
77.0,6.0,2.0,1.0,1.0,1.0,321.6642480110749,1.0,1.0,phase_1,,,,,,,,,,,,,green,flipped triangle
221.0,7.0,3.0,1.0,2.0,2.0,301.7868789611384,1.0,1.0,phase_1,,,,,,,,,,,,,magenta,diamond
75.0,1.0,1.0,0.0,1.0,1.0,291.7165369726717,1.0,1.0,phase_1,,,,,,,,,,,,,cyan,cross
0.0,4.0,0.0,0.0,1.0,1.0,306.1227910220623,1.0,1.0,phase_1,,,,,,,,,,,,,white,I
111.0,2.0,2.0,0.0,2.0,2.0,275.7241529761813,1.0,1.0,phase_1,,,,,,,,,,,,,gray,hexagon
100.0,2.0,2.0,0.0,2.0,2.0,337.9994750139303,1.0,1.0,phase_1,,,,,,,,,,,,,gray,hexagon
191.0,3.0,3.0,0.0,3.0,3.0,350.7651750114746,1.0,1.0,phase_1,,,,,,,,,,,,,blue,circle
0.0,8.0,0.0,1.0,4.0,4.0,334.0848289662972,1.0,1.0,phase_1,,,,,,,,,,,,,orange,square
0.0,2.0,0.0,0.0,3.0,3.0,274.8683500103652,1.0,1.0,phase_1,,,,,,,,,,,,,gray,hexagon
0.0,7.0,0.0,1.0,4.0,4.0,294.8109229910187,1.0,1.0,phase_1,,,,,,,,,,,,,magenta,diamond
213.0,7.0,3.0,1.0,4.0,4.0,288.9758810051717,1.0,1.0,phase_1,,,,,,,,,,,,,magenta,diamond
411.0,4.0,4.0,0.0,2.0,2.0,296.8999750446528,1.0,1.0,phase_1,,,,,,,,,,,,,white,I
0.0,2.0,0.0,0.0,2.0,2.0,290.4658000334166,1.0,1.0,phase_1,,,,,,,,,,,,,gray,hexagon
0.0,6.0,0.0,1.0,3.0,3.0,263.034063973464,1.0,1.0,phase_1,,,,,,,,,,,,,green,flipped triangle
384.0,4.0,4.0,0.0,2.0,2.0,267.87561899982387,1.0,1.0,phase_1,,,,,,,,,,,,,white,I
202.0,7.0,3.0,1.0,2.0,2.0,280.3434089873917,1.0,1.0,phase_1,,,,,,,,,,,,,magenta,diamond
0.0,6.0,0.0,1.0,3.0,3.0,260.5895029846579,1.0,1.0,phase_1,,,,,,,,,,,,,green,flipped triangle
75.0,5.0,1.0,1.0,3.0,3.0,284.57405499648297,1.0,1.0,phase_1,,,,,,,,,,,,,yellow,triangle
191.0,3.0,3.0,0.0,4.0,4.0,312.7881109830923,1.0,1.0,phase_1,,,,,,,,,,,,,blue,circle
0.0,3.0,0.0,0.0,2.0,2.0,283.2550560124218,1.0,1.0,phase_1,,,,,,,,,,,,,blue,circle
0.0,7.0,0.0,1.0,3.0,3.0,280.3831519559026,1.0,1.0,phase_1,,,,,,,,,,,,,magenta,diamond
51.0,1.0,1.0,0.0,2.0,2.0,292.0966329984367,1.0,1.0,phase_1,,,,,,,,,,,,,cyan,cross
57.0,5.0,1.0,1.0,2.0,2.0,280.1917209872044,1.0,1.0,phase_1,,,,,,,,,,,,,yellow,triangle
402.0,4.0,4.0,0.0,3.0,3.0,262.1537810191512,1.0,1.0,phase_1,,,,,,,,,,,,,white,I
31.0,5.0,1.0,1.0,1.0,1.0,316.9016260071657,1.0,1.0,phase_1,,,,,,,,,,,,,yellow,triangle
111.0,6.0,2.0,1.0,1.0,1.0,247.00143898371599,1.0,1.0,phase_1,,,,,,,,,,,,,green,flipped triangle
412.0,4.0,4.0,0.0,2.0,2.0,270.3991919988766,1.0,1.0,phase_1,,,,,,,,,,,,,white,I
0.0,2.0,0.0,0.0,4.0,4.0,306.4803619636222,1.0,1.0,phase_1,,,,,,,,,,,,,gray,hexagon
107.0,2.0,2.0,0.0,1.0,1.0,303.2365010003559,1.0,1.0,phase_1,,,,,,,,,,,,,gray,hexagon
105.0,2.0,2.0,0.0,1.0,1.0,272.5947399740107,2.0,1.0,phase_1,,,,,,,,,,,,,gray,hexagon
104.0,2.0,2.0,0.0,2.0,2.0,283.6469180183485,2.0,1.0,phase_1,,,,,,,,,,,,,gray,hexagon
0.0,5.0,0.0,1.0,3.0,3.0,263.6649690102786,2.0,1.0,phase_1,,,,,,,,,,,,,yellow,triangle
185.0,7.0,3.0,1.0,4.0,4.0,294.4884980097413,2.0,1.0,phase_1,,,,,,,,,,,,,magenta,diamond
217.0,3.0,3.0,0.0,2.0,2.0,255.7512639905326,2.0,1.0,phase_1,,,,,,,,,,,,,blue,circle
423.0,8.0,4.0,1.0,2.0,2.0,264.8014819715172,2.0,1.0,phase_1,,,,,,,,,,,,,orange,square
122.0,6.0,2.0,1.0,1.0,1.0,269.627247005701,2.0,1.0,phase_1,,,,,,,,,,,,,green,flipped triangle
386.0,4.0,4.0,0.0,2.0,2.0,312.7112569636665,2.0,1.0,phase_1,,,,,,,,,,,,,white,I
0.0,1.0,0.0,0.0,1.0,1.0,302.5026979739778,2.0,1.0,phase_1,,,,,,,,,,,,,cyan,cross
83.0,6.0,2.0,1.0,3.0,3.0,240.2308580349199,2.0,1.0,phase_1,,,,,,,,,,,,,green,flipped triangle
0.0,4.0,0.0,0.0,4.0,4.0,263.1774069741368,2.0,1.0,phase_1,,,,,,,,,,,,,white,I
63.0,1.0,1.0,0.0,4.0,4.0,275.8890819968655,2.0,1.0,phase_1,,,,,,,,,,,,,cyan,cross
107.0,2.0,2.0,0.0,2.0,2.0,255.2135320147499,2.0,1.0,phase_1,,,,,,,,,,,,,gray,hexagon
31.0,1.0,1.0,0.0,1.0,1.0,250.86002296302468,2.0,1.0,phase_1,,,,,,,,,,,,,cyan,cross
0.0,8.0,0.0,1.0,1.0,1.0,247.300069022458,2.0,1.0,phase_1,,,,,,,,,,,,,orange,square
57.0,1.0,1.0,0.0,2.0,2.0,291.8707269709557,2.0,1.0,phase_1,,,,,,,,,,,,,cyan,cross
208.0,3.0,3.0,0.0,2.0,2.0,274.265210959129,2.0,1.0,phase_1,,,,,,,,,,,,,blue,circle
117.0,6.0,2.0,1.0,3.0,3.0,321.2065569823608,2.0,1.0,phase_1,,,,,,,,,,,,,green,flipped triangle
66.0,1.0,1.0,0.0,3.0,3.0,291.9216289883479,2.0,1.0,phase_1,,,,,,,,,,,,,cyan,cross
0.0,6.0,0.0,1.0,3.0,3.0,296.6300099506043,2.0,1.0,phase_1,,,,,,,,,,,,,green,flipped triangle
0.0,3.0,0.0,0.0,4.0,4.0,263.1606790237129,2.0,1.0,phase_1,,,,,,,,,,,,,blue,circle
26.0,5.0,1.0,1.0,1.0,1.0,275.002429028973,2.0,1.0,phase_1,,,,,,,,,,,,,yellow,triangle
214.0,3.0,3.0,0.0,4.0,4.0,277.172121044714,2.0,1.0,phase_1,,,,,,,,,,,,,blue,circle
79.0,6.0,2.0,1.0,4.0,4.0,338.2034849491901,2.0,1.0,phase_1,,,,,,,,,,,,,green,flipped triangle
49.0,1.0,1.0,0.0,3.0,3.0,294.1023299936205,2.0,1.0,phase_1,,,,,,,,,,,,,cyan,cross
379.0,8.0,4.0,1.0,3.0,3.0,251.12381699727848,2.0,1.0,phase_1,,,,,,,,,,,,,orange,square
64.0,1.0,1.0,0.0,2.0,2.0,303.2353880116716,2.0,1.0,phase_1,,,,,,,,,,,,,cyan,cross
117.0,6.0,2.0,1.0,3.0,3.0,270.227272005286,2.0,1.0,phase_1,,,,,,,,,,,,,green,flipped triangle
122.0,2.0,2.0,0.0,2.0,2.0,248.3958579832688,2.0,1.0,phase_1,,,,,,,,,,,,,gray,hexagon
0.0,4.0,0.0,0.0,4.0,4.0,272.3532969830557,2.0,1.0,phase_1,,,,,,,,,,,,,white,I
75.0,1.0,1.0,0.0,2.0,2.0,267.845315975137,2.0,1.0,phase_1,,,,,,,,,,,,,cyan,cross
188.0,3.0,3.0,0.0,1.0,1.0,231.8054880015552,2.0,1.0,phase_1,,,,,,,,,,,,,blue,circle
94.0,2.0,2.0,0.0,3.0,3.0,270.8464859751984,2.0,1.0,phase_1,,,,,,,,,,,,,gray,hexagon
0.0,3.0,0.0,0.0,1.0,1.0,247.7600940037518,2.0,1.0,phase_1,,,,,,,,,,,,,blue,circle
395.0,4.0,4.0,0.0,1.0,1.0,280.5312490090728,2.0,1.0,phase_1,,,,,,,,,,,,,white,I
41.0,5.0,1.0,1.0,4.0,4.0,250.7433569990098,2.0,1.0,phase_1,,,,,,,,,,,,,yellow,triangle
0.0,8.0,0.0,1.0,3.0,3.0,271.9831590075046,2.0,1.0,phase_1,,,,,,,,,,,,,orange,square
213.0,3.0,3.0,0.0,1.0,1.0,276.6522970050573,2.0,1.0,phase_1,,,,,,,,,,,,,blue,circle
199.0,3.0,3.0,0.0,3.0,3.0,290.5869350070134,2.0,1.0,phase_1,,,,,,,,,,,,,blue,circle
0.0,3.0,0.0,0.0,2.0,2.0,247.8391280164942,2.0,1.0,phase_1,,,,,,,,,,,,,blue,circle
0.0,8.0,0.0,1.0,4.0,4.0,329.6907699550502,2.0,2.0,phase_1,,,,,,,,,,,,,orange,square
86.0,2.0,2.0,0.0,3.0,3.0,301.8954540020786,2.0,1.0,phase_1,,,,,,,,,,,,,gray,hexagon
179.0,3.0,3.0,0.0,1.0,1.0,319.5818730164319,2.0,1.0,phase_1,,,,,,,,,,,,,blue,circle
76.0,2.0,2.0,0.0,2.0,2.0,291.339464019984,2.0,1.0,phase_1,,,,,,,,,,,,,gray,hexagon
0.0,2.0,0.0,0.0,2.0,2.0,344.7811569785699,2.0,1.0,phase_1,,,,,,,,,,,,,gray,hexagon
415.0,8.0,4.0,1.0,2.0,2.0,326.20973396115,2.0,1.0,phase_1,,,,,,,,,,,,,orange,square
409.0,8.0,4.0,1.0,4.0,4.0,300.4328800016083,2.0,1.0,phase_1,,,,,,,,,,,,,orange,square
208.0,3.0,3.0,0.0,1.0,1.0,320.2689890167676,2.0,1.0,phase_1,,,,,,,,,,,,,blue,circle
89.0,2.0,2.0,0.0,3.0,3.0,308.1053919740952,2.0,1.0,phase_1,,,,,,,,,,,,,gray,hexagon
400.0,4.0,4.0,0.0,1.0,1.0,289.456547005102,2.0,1.0,phase_1,,,,,,,,,,,,,white,I
377.0,8.0,4.0,1.0,4.0,4.0,382.1684070280753,2.0,1.0,phase_1,,,,,,,,,,,,,orange,square
387.0,8.0,4.0,1.0,1.0,1.0,299.8144230223261,2.0,1.0,phase_1,,,,,,,,,,,,,orange,square
90.0,6.0,2.0,1.0,3.0,3.0,288.9580019982531,2.0,1.0,phase_1,,,,,,,,,,,,,green,flipped triangle
195.0,3.0,3.0,0.0,3.0,3.0,277.2056620451621,2.0,1.0,phase_1,,,,,,,,,,,,,blue,circle
54.0,5.0,1.0,1.0,1.0,1.0,297.2503369674086,2.0,1.0,phase_1,,,,,,,,,,,,,yellow,triangle
406.0,4.0,4.0,0.0,4.0,4.0,262.80125498306,2.0,1.0,phase_1,,,,,,,,,,,,,white,I
202.0,7.0,3.0,1.0,4.0,4.0,272.8519840165972,2.0,1.0,phase_1,,,,,,,,,,,,,magenta,diamond
379.0,8.0,4.0,1.0,4.0,4.0,313.5542839881964,2.0,1.0,phase_1,,,,,,,,,,,,,orange,square
412.0,8.0,4.0,1.0,1.0,1.0,253.18434200016782,2.0,1.0,phase_1,,,,,,,,,,,,,orange,square
87.0,6.0,2.0,1.0,1.0,1.0,320.1041109859943,2.0,1.0,phase_1,,,,,,,,,,,,,green,flipped triangle
0.0,3.0,0.0,0.0,2.0,2.0,292.2112880041823,2.0,1.0,phase_1,,,,,,,,,,,,,blue,circle
86.0,6.0,2.0,1.0,3.0,3.0,280.2656919811852,2.0,1.0,phase_1,,,,,,,,,,,,,green,flipped triangle
100.0,6.0,2.0,1.0,3.0,3.0,287.7817110274918,2.0,1.0,phase_1,,,,,,,,,,,,,green,flipped triangle
210.0,7.0,3.0,1.0,3.0,3.0,283.4910239907913,2.0,1.0,phase_1,,,,,,,,,,,,,magenta,diamond
122.0,6.0,2.0,1.0,1.0,1.0,280.2618810092099,2.0,1.0,phase_1,,,,,,,,,,,,,green,flipped triangle
47.0,1.0,1.0,0.0,2.0,2.0,290.7750260201283,2.0,1.0,phase_1,,,,,,,,,,,,,cyan,cross
415.0,8.0,4.0,1.0,1.0,1.0,266.6778289712965,2.0,1.0,phase_1,,,,,,,,,,,,,orange,square
0.0,5.0,0.0,1.0,1.0,1.0,307.9625330283306,2.0,1.0,phase_1,,,,,,,,,,,,,yellow,triangle
0.0,5.0,0.0,1.0,2.0,2.0,276.2426509871147,2.0,1.0,phase_1,,,,,,,,,,,,,yellow,triangle
409.0,4.0,4.0,0.0,4.0,4.0,334.2606949736364,2.0,1.0,phase_1,,,,,,,,,,,,,white,I
193.0,7.0,3.0,1.0,4.0,4.0,317.4160029739141,2.0,1.0,phase_1,,,,,,,,,,,,,magenta,diamond
94.0,6.0,2.0,1.0,1.0,1.0,311.9665250414982,2.0,1.0,phase_1,,,,,,,,,,,,,green,flipped triangle
85.0,6.0,2.0,1.0,2.0,2.0,271.5211130562238,2.0,1.0,phase_1,,,,,,,,,,,,,green,flipped triangle
0.0,1.0,0.0,0.0,3.0,3.0,265.5127460020594,2.0,1.0,phase_1,,,,,,,,,,,,,cyan,cross
64.0,5.0,1.0,1.0,4.0,4.0,272.0095859840512,2.0,1.0,phase_1,,,,,,,,,,,,,yellow,triangle
120.0,2.0,2.0,0.0,1.0,1.0,283.4912239923142,2.0,1.0,phase_1,,,,,,,,,,,,,gray,hexagon
422.0,8.0,4.0,1.0,4.0,4.0,255.1030939794145,2.0,1.0,phase_1,,,,,,,,,,,,,orange,square
399.0,8.0,4.0,1.0,1.0,1.0,275.7846839958802,2.0,1.0,phase_1,,,,,,,,,,,,,orange,square
386.0,8.0,4.0,1.0,2.0,2.0,272.4369540228508,2.0,1.0,phase_1,,,,,,,,,,,,,orange,square
400.0,8.0,4.0,1.0,1.0,1.0,272.0016639796085,2.0,1.0,phase_1,,,,,,,,,,,,,orange,square
114.0,6.0,2.0,1.0,2.0,2.0,324.820518027991,2.0,1.0,phase_1,,,,,,,,,,,,,green,flipped triangle
199.0,7.0,3.0,1.0,1.0,1.0,254.43825300317258,2.0,1.0,phase_1,,,,,,,,,,,,,magenta,diamond
385.0,8.0,4.0,1.0,2.0,2.0,307.1138570085168,2.0,1.0,phase_1,,,,,,,,,,,,,orange,square
400.0,4.0,4.0,0.0,4.0,4.0,311.0112769645639,2.0,1.0,phase_1,,,,,,,,,,,,,white,I
0.0,1.0,0.0,0.0,3.0,3.0,283.9215690037235,2.0,1.0,phase_1,,,,,,,,,,,,,cyan,cross
120.0,6.0,2.0,1.0,3.0,3.0,284.1441259952262,2.0,1.0,phase_1,,,,,,,,,,,,,green,flipped triangle
26.0,1.0,1.0,0.0,3.0,3.0,264.4254770129919,2.0,1.0,phase_1,,,,,,,,,,,,,cyan,cross
106.0,6.0,2.0,1.0,3.0,3.0,299.4813700206578,2.0,1.0,phase_1,,,,,,,,,,,,,green,flipped triangle
73.0,5.0,1.0,1.0,3.0,3.0,262.7807660028338,2.0,1.0,phase_1,,,,,,,,,,,,,yellow,triangle
104.0,6.0,2.0,1.0,1.0,1.0,243.2101159938611,2.0,1.0,phase_1,,,,,,,,,,,,,green,flipped triangle
187.0,3.0,3.0,0.0,4.0,4.0,283.0346130067482,2.0,1.0,phase_1,,,,,,,,,,,,,blue,circle
177.0,3.0,3.0,0.0,1.0,1.0,270.4868650180287,2.0,1.0,phase_1,,,,,,,,,,,,,blue,circle
399.0,4.0,4.0,0.0,2.0,2.0,234.2396359890699,2.0,1.0,phase_1,,,,,,,,,,,,,white,I
34.0,5.0,1.0,1.0,3.0,3.0,247.0638160011731,2.0,1.0,phase_1,,,,,,,,,,,,,yellow,triangle
0.0,2.0,0.0,0.0,3.0,3.0,291.8052740278654,2.0,1.0,phase_1,,,,,,,,,,,,,gray,hexagon
0.0,8.0,0.0,1.0,3.0,3.0,295.9578550071455,2.0,1.0,phase_1,,,,,,,,,,,,,orange,square
0.0,4.0,0.0,0.0,1.0,1.0,308.2472099922597,2.0,1.0,phase_1,,,,,,,,,,,,,white,I
415.0,4.0,4.0,0.0,4.0,4.0,332.9957280075177,2.0,1.0,phase_1,,,,,,,,,,,,,white,I
196.0,3.0,3.0,0.0,3.0,3.0,256.4946140046231,2.0,1.0,phase_1,,,,,,,,,,,,,blue,circle
36.0,1.0,1.0,0.0,4.0,4.0,250.33719599014148,2.0,1.0,phase_1,,,,,,,,,,,,,cyan,cross
221.0,3.0,3.0,0.0,2.0,2.0,291.8001840007491,3.0,1.0,phase_1,,,,,,,,,,,,,blue,circle
107.0,6.0,2.0,1.0,4.0,4.0,267.6134420325979,3.0,1.0,phase_1,,,,,,,,,,,,,green,flipped triangle
0.0,1.0,0.0,0.0,3.0,3.0,264.126383990515,3.0,1.0,phase_1,,,,,,,,,,,,,cyan,cross
379.0,4.0,4.0,0.0,4.0,4.0,261.8842140072956,3.0,1.0,phase_1,,,,,,,,,,,,,white,I
106.0,2.0,2.0,0.0,2.0,2.0,294.2849120008759,3.0,1.0,phase_1,,,,,,,,,,,,,gray,hexagon
221.0,7.0,3.0,1.0,3.0,3.0,260.7251860317774,3.0,1.0,phase_1,,,,,,,,,,,,,magenta,diamond
0.0,3.0,0.0,0.0,1.0,1.0,264.4849509815685,3.0,1.0,phase_1,,,,,,,,,,,,,blue,circle
193.0,3.0,3.0,0.0,1.0,1.0,239.0973020228557,3.0,1.0,phase_1,,,,,,,,,,,,,blue,circle
120.0,2.0,2.0,0.0,4.0,4.0,271.5456039877608,3.0,2.0,phase_1,,,,,,,,,,,,,gray,hexagon
391.0,8.0,4.0,1.0,2.0,2.0,300.7702549803071,3.0,1.0,phase_1,,,,,,,,,,,,,orange,square
63.0,5.0,1.0,1.0,3.0,3.0,290.9608850022778,3.0,1.0,phase_1,,,,,,,,,,,,,yellow,triangle
409.0,8.0,4.0,1.0,2.0,2.0,295.2459790394641,3.0,1.0,phase_1,,,,,,,,,,,,,orange,square
384.0,8.0,4.0,1.0,4.0,4.0,306.4504310023039,3.0,1.0,phase_1,,,,,,,,,,,,,orange,square
177.0,7.0,3.0,1.0,3.0,3.0,308.4481279947795,3.0,2.0,phase_1,,,,,,,,,,,,,magenta,diamond
41.0,1.0,1.0,0.0,1.0,1.0,353.9768600021489,3.0,1.0,phase_1,,,,,,,,,,,,,cyan,cross
224.0,7.0,3.0,1.0,4.0,4.0,342.0525109977461,3.0,1.0,phase_1,,,,,,,,,,,,,magenta,diamond
385.0,4.0,4.0,0.0,2.0,2.0,336.9258940219879,3.0,1.0,phase_1,,,,,,,,,,,,,white,I
36.0,5.0,1.0,1.0,2.0,2.0,350.9551589959301,3.0,1.0,phase_1,,,,,,,,,,,,,yellow,triangle
422.0,4.0,4.0,0.0,1.0,1.0,381.555667030625,3.0,1.0,phase_1,,,,,,,,,,,,,white,I
0.0,7.0,0.0,1.0,4.0,4.0,328.4760109963827,3.0,1.0,phase_1,,,,,,,,,,,,,magenta,diamond
117.0,2.0,2.0,0.0,3.0,3.0,315.3833849937655,3.0,1.0,phase_1,,,,,,,,,,,,,gray,hexagon
47.0,5.0,1.0,1.0,4.0,4.0,312.4504060251638,3.0,1.0,phase_1,,,,,,,,,,,,,yellow,triangle
208.0,7.0,3.0,1.0,2.0,2.0,350.7063059951179,3.0,1.0,phase_1,,,,,,,,,,,,,magenta,diamond
195.0,3.0,3.0,0.0,2.0,2.0,336.9655559654347,3.0,1.0,phase_1,,,,,,,,,,,,,blue,circle
0.0,5.0,0.0,1.0,2.0,2.0,328.5639480454847,3.0,1.0,phase_1,,,,,,,,,,,,,yellow,triangle
104.0,2.0,2.0,0.0,4.0,4.0,339.3442360102199,3.0,1.0,phase_1,,,,,,,,,,,,,gray,hexagon
191.0,7.0,3.0,1.0,4.0,4.0,297.1471279743127,3.0,1.0,phase_1,,,,,,,,,,,,,magenta,diamond
208.0,7.0,3.0,1.0,3.0,3.0,318.3883760357275,3.0,1.0,phase_1,,,,,,,,,,,,,magenta,diamond
73.0,5.0,1.0,1.0,3.0,3.0,315.6202150275931,3.0,1.0,phase_1,,,,,,,,,,,,,yellow,triangle
409.0,4.0,4.0,0.0,4.0,4.0,278.3741879975423,3.0,1.0,phase_1,,,,,,,,,,,,,white,I
31.0,5.0,1.0,1.0,1.0,1.0,274.9622839619405,3.0,1.0,phase_1,,,,,,,,,,,,,yellow,triangle
188.0,7.0,3.0,1.0,2.0,2.0,319.2236110335216,3.0,1.0,phase_1,,,,,,,,,,,,,magenta,diamond
79.0,2.0,2.0,0.0,3.0,3.0,275.9271240211092,3.0,1.0,phase_1,,,,,,,,,,,,,gray,hexagon
85.0,2.0,2.0,0.0,3.0,3.0,275.700455007609,3.0,1.0,phase_1,,,,,,,,,,,,,gray,hexagon
77.0,2.0,2.0,0.0,1.0,1.0,352.6709930156357,3.0,1.0,phase_1,,,,,,,,,,,,,gray,hexagon
0.0,3.0,0.0,0.0,1.0,1.0,301.1467879987322,3.0,1.0,phase_1,,,,,,,,,,,,,blue,circle
91.0,2.0,2.0,0.0,4.0,4.0,312.2008190257475,3.0,1.0,phase_1,,,,,,,,,,,,,gray,hexagon
45.0,1.0,1.0,0.0,2.0,2.0,300.5467370385304,3.0,1.0,phase_1,,,,,,,,,,,,,cyan,cross
52.0,1.0,1.0,0.0,3.0,3.0,298.9655419951305,3.0,1.0,phase_1,,,,,,,,,,,,,cyan,cross
200.0,7.0,3.0,1.0,2.0,2.0,291.9521579751745,3.0,1.0,phase_1,,,,,,,,,,,,,magenta,diamond
224.0,3.0,3.0,0.0,3.0,3.0,289.5849240012467,3.0,1.0,phase_1,,,,,,,,,,,,,blue,circle
0.0,1.0,0.0,0.0,1.0,1.0,303.9322560071014,3.0,1.0,phase_1,,,,,,,,,,,,,cyan,cross
402.0,4.0,4.0,0.0,2.0,2.0,284.6865989849902,3.0,1.0,phase_1,,,,,,,,,,,,,white,I
379.0,4.0,4.0,0.0,2.0,2.0,336.6576539701782,3.0,1.0,phase_1,,,,,,,,,,,,,white,I
0.0,7.0,0.0,1.0,4.0,4.0,307.8006629948504,3.0,1.0,phase_1,,,,,,,,,,,,,magenta,diamond
402.0,8.0,4.0,1.0,1.0,1.0,327.9782680328935,3.0,1.0,phase_1,,,,,,,,,,,,,orange,square
185.0,3.0,3.0,0.0,4.0,4.0,304.0328840143047,3.0,1.0,phase_1,,,,,,,,,,,,,blue,circle
29.0,5.0,1.0,1.0,1.0,1.0,283.8904279633425,3.0,1.0,phase_1,,,,,,,,,,,,,yellow,triangle
69.0,5.0,1.0,1.0,2.0,2.0,263.726137985941,3.0,1.0,phase_1,,,,,,,,,,,,,yellow,triangle
423.0,4.0,4.0,0.0,1.0,1.0,285.8630619593896,3.0,1.0,phase_1,,,,,,,,,,,,,white,I
202.0,3.0,3.0,0.0,4.0,4.0,400.5982739618048,3.0,1.0,phase_1,,,,,,,,,,,,,blue,circle
392.0,4.0,4.0,0.0,2.0,2.0,303.4216370433569,3.0,1.0,phase_1,,,,,,,,,,,,,white,I
403.0,8.0,4.0,1.0,4.0,4.0,336.8923019734211,3.0,1.0,phase_1,,,,,,,,,,,,,orange,square
38.0,1.0,1.0,0.0,4.0,4.0,321.0177160217426,3.0,1.0,phase_1,,,,,,,,,,,,,cyan,cross
195.0,7.0,3.0,1.0,4.0,4.0,293.7686069635674,3.0,1.0,phase_1,,,,,,,,,,,,,magenta,diamond
80.0,6.0,2.0,1.0,1.0,1.0,328.7817349773831,3.0,1.0,phase_1,,,,,,,,,,,,,green,flipped triangle
188.0,7.0,3.0,1.0,1.0,1.0,309.4436409883201,3.0,1.0,phase_1,,,,,,,,,,,,,magenta,diamond
0.0,6.0,0.0,1.0,1.0,1.0,312.7031089970842,3.0,1.0,phase_1,,,,,,,,,,,,,green,flipped triangle
0.0,5.0,0.0,1.0,1.0,1.0,279.2654630029574,3.0,1.0,phase_1,,,,,,,,,,,,,yellow,triangle
176.0,3.0,3.0,0.0,4.0,4.0,306.7401280277408,3.0,1.0,phase_1,,,,,,,,,,,,,blue,circle
49.0,5.0,1.0,1.0,4.0,4.0,288.512711005751,3.0,1.0,phase_1,,,,,,,,,,,,,yellow,triangle
51.0,5.0,1.0,1.0,2.0,2.0,284.7315580002032,3.0,1.0,phase_1,,,,,,,,,,,,,yellow,triangle
387.0,4.0,4.0,0.0,3.0,3.0,304.214978008531,3.0,1.0,phase_1,,,,,,,,,,,,,white,I
221.0,3.0,3.0,0.0,1.0,1.0,288.4738019783981,3.0,1.0,phase_1,,,,,,,,,,,,,blue,circle
402.0,8.0,4.0,1.0,3.0,3.0,268.0991369998082,3.0,1.0,phase_1,,,,,,,,,,,,,orange,square
29.0,1.0,1.0,0.0,3.0,3.0,280.4345530457794,3.0,1.0,phase_1,,,,,,,,,,,,,cyan,cross
100.0,2.0,2.0,0.0,4.0,4.0,302.2396939923055,3.0,1.0,phase_1,,,,,,,,,,,,,gray,hexagon
76.0,6.0,2.0,1.0,3.0,3.0,305.6689059594646,3.0,1.0,phase_1,,,,,,,,,,,,,green,flipped triangle
0.0,7.0,0.0,1.0,4.0,4.0,287.2461609658785,3.0,1.0,phase_1,,,,,,,,,,,,,magenta,diamond
191.0,7.0,3.0,1.0,3.0,3.0,281.84932697331527,3.0,1.0,phase_1,,,,,,,,,,,,,magenta,diamond
190.0,7.0,3.0,1.0,2.0,2.0,302.4026909843087,3.0,1.0,phase_1,,,,,,,,,,,,,magenta,diamond
0.0,7.0,0.0,1.0,3.0,3.0,244.4695500307716,3.0,1.0,phase_1,,,,,,,,,,,,,magenta,diamond
0.0,4.0,0.0,0.0,2.0,2.0,295.2981079579331,3.0,1.0,phase_1,,,,,,,,,,,,,white,I
382.0,8.0,4.0,1.0,2.0,2.0,291.7969099944457,3.0,1.0,phase_1,,,,,,,,,,,,,orange,square
202.0,3.0,3.0,0.0,2.0,2.0,304.7869920264929,3.0,1.0,phase_1,,,,,,,,,,,,,blue,circle
63.0,5.0,1.0,1.0,1.0,1.0,284.5068219467066,3.0,1.0,phase_1,,,,,,,,,,,,,yellow,triangle
119.0,6.0,2.0,1.0,2.0,2.0,290.4170359834097,3.0,1.0,phase_1,,,,,,,,,,,,,green,flipped triangle
421.0,4.0,4.0,0.0,3.0,3.0,313.4299739613198,3.0,1.0,phase_1,,,,,,,,,,,,,white,I
0.0,6.0,0.0,1.0,2.0,2.0,307.5718740001321,3.0,1.0,phase_1,,,,,,,,,,,,,green,flipped triangle
38.0,5.0,1.0,1.0,2.0,2.0,311.9818959967233,3.0,1.0,phase_1,,,,,,,,,,,,,yellow,triangle
58.0,1.0,1.0,0.0,1.0,1.0,319.4283409975469,3.0,1.0,phase_1,,,,,,,,,,,,,cyan,cross
106.0,2.0,2.0,0.0,1.0,1.0,296.668827009853,3.0,1.0,phase_1,,,,,,,,,,,,,gray,hexagon
0.0,1.0,0.0,0.0,2.0,2.0,303.9371680351905,3.0,1.0,phase_1,,,,,,,,,,,,,cyan,cross
49.0,1.0,1.0,0.0,4.0,4.0,325.2680929726921,3.0,1.0,phase_1,,,,,,,,,,,,,cyan,cross
41.0,1.0,1.0,0.0,3.0,3.0,304.0529720019549,3.0,1.0,phase_1,,,,,,,,,,,,,cyan,cross
25.0,5.0,1.0,1.0,2.0,2.0,291.5327029768377,3.0,1.0,phase_1,,,,,,,,,,,,,yellow,triangle
25.0,1.0,1.0,0.0,4.0,4.0,316.491468984168,3.0,1.0,phase_1,,,,,,,,,,,,,cyan,cross
91.0,6.0,2.0,1.0,2.0,2.0,293.0458660121076,3.0,1.0,phase_1,,,,,,,,,,,,,green,flipped triangle
381.0,4.0,4.0,0.0,3.0,3.0,292.5373039906844,3.0,1.0,phase_1,,,,,,,,,,,,,white,I
384.0,8.0,4.0,1.0,4.0,4.0,297.5100009934976,3.0,1.0,phase_1,,,,,,,,,,,,,orange,square
111.0,6.0,2.0,1.0,2.0,2.0,291.834922041744,3.0,1.0,phase_1,,,,,,,,,,,,,green,flipped triangle
176.0,7.0,3.0,1.0,1.0,1.0,337.1753210085444,3.0,1.0,phase_1,,,,,,,,,,,,,magenta,diamond
0.0,3.0,0.0,0.0,1.0,1.0,316.2891159881837,3.0,1.0,phase_1,,,,,,,,,,,,,blue,circle
0.0,7.0,0.0,1.0,1.0,1.0,308.4999599959701,3.0,1.0,phase_1,,,,,,,,,,,,,magenta,diamond
114.0,2.0,2.0,0.0,4.0,4.0,256.051372969523,3.0,1.0,phase_1,,,,,,,,,,,,,gray,hexagon
63.0,1.0,1.0,0.0,4.0,4.0,282.938982010819,3.0,1.0,phase_1,,,,,,,,,,,,,cyan,cross
39.0,5.0,1.0,1.0,2.0,2.0,287.4173800228163,3.0,1.0,phase_1,,,,,,,,,,,,,yellow,triangle
184.0,7.0,3.0,1.0,1.0,1.0,283.7168319965713,3.0,1.0,phase_1,,,,,,,,,,,,,magenta,diamond
209.0,3.0,3.0,0.0,2.0,2.0,312.8058990114368,3.0,1.0,phase_1,,,,,,,,,,,,,blue,circle
81.0,6.0,2.0,1.0,4.0,4.0,279.1850270004943,3.0,1.0,phase_1,,,,,,,,,,,,,green,flipped triangle
416.0,4.0,4.0,0.0,1.0,1.0,313.1563770002685,4.0,1.0,phase_1,,,,,,,,,,,,,white,I
217.0,3.0,3.0,0.0,1.0,1.0,292.8053149953484,4.0,1.0,phase_1,,,,,,,,,,,,,blue,circle
0.0,4.0,0.0,0.0,4.0,4.0,299.9991909600794,4.0,1.0,phase_1,,,,,,,,,,,,,white,I
119.0,2.0,2.0,0.0,1.0,1.0,293.0635910015553,4.0,1.0,phase_1,,,,,,,,,,,,,gray,hexagon
48.0,5.0,1.0,1.0,3.0,3.0,274.608199018985,4.0,1.0,phase_1,,,,,,,,,,,,,yellow,triangle
403.0,4.0,4.0,0.0,1.0,1.0,255.45313296606759,4.0,1.0,phase_1,,,,,,,,,,,,,white,I
384.0,4.0,4.0,0.0,1.0,1.0,295.0735929771326,4.0,1.0,phase_1,,,,,,,,,,,,,white,I
0.0,7.0,0.0,1.0,3.0,3.0,312.5827290350571,4.0,1.0,phase_1,,,,,,,,,,,,,magenta,diamond
415.0,4.0,4.0,0.0,2.0,2.0,292.8704340010881,4.0,1.0,phase_1,,,,,,,,,,,,,white,I
400.0,8.0,4.0,1.0,3.0,3.0,259.1653729905374,4.0,1.0,phase_1,,,,,,,,,,,,,orange,square
187.0,7.0,3.0,1.0,3.0,3.0,271.1433629738167,4.0,1.0,phase_1,,,,,,,,,,,,,magenta,diamond
388.0,4.0,4.0,0.0,4.0,4.0,291.4605319965631,4.0,1.0,phase_1,,,,,,,,,,,,,white,I
64.0,1.0,1.0,0.0,2.0,2.0,290.6073909834958,4.0,1.0,phase_1,,,,,,,,,,,,,cyan,cross
395.0,8.0,4.0,1.0,1.0,1.0,271.665189997293,4.0,1.0,phase_1,,,,,,,,,,,,,orange,square
209.0,7.0,3.0,1.0,2.0,2.0,273.0012320098467,4.0,1.0,phase_1,,,,,,,,,,,,,magenta,diamond
215.0,7.0,3.0,1.0,2.0,2.0,312.4862660188228,4.0,1.0,phase_1,,,,,,,,,,,,,magenta,diamond
416.0,8.0,4.0,1.0,3.0,3.0,234.5350199611857,4.0,1.0,phase_1,,,,,,,,,,,,,orange,square
0.0,5.0,0.0,1.0,3.0,3.0,303.7551310262643,4.0,1.0,phase_1,,,,,,,,,,,,,yellow,triangle
191.0,7.0,3.0,1.0,4.0,4.0,299.5815160102211,4.0,1.0,phase_1,,,,,,,,,,,,,magenta,diamond
224.0,3.0,3.0,0.0,4.0,4.0,273.7903409870341,4.0,1.0,phase_1,,,,,,,,,,,,,blue,circle
48.0,1.0,1.0,0.0,1.0,1.0,312.3359699966386,4.0,1.0,phase_1,,,,,,,,,,,,,cyan,cross
417.0,4.0,4.0,0.0,3.0,3.0,309.3288820236921,4.0,1.0,phase_1,,,,,,,,,,,,,white,I
86.0,2.0,2.0,0.0,1.0,1.0,289.6387259825133,4.0,1.0,phase_1,,,,,,,,,,,,,gray,hexagon
217.0,7.0,3.0,1.0,1.0,1.0,274.9587039579637,4.0,1.0,phase_1,,,,,,,,,,,,,magenta,diamond
406.0,8.0,4.0,1.0,3.0,3.0,281.5960649750195,4.0,1.0,phase_1,,,,,,,,,,,,,orange,square
107.0,6.0,2.0,1.0,4.0,4.0,309.2209059977904,4.0,1.0,phase_1,,,,,,,,,,,,,green,flipped triangle
0.0,4.0,0.0,0.0,3.0,3.0,292.131605965551,4.0,1.0,phase_1,,,,,,,,,,,,,white,I
395.0,4.0,4.0,0.0,3.0,3.0,304.9243779969401,4.0,1.0,phase_1,,,,,,,,,,,,,white,I
0.0,1.0,0.0,0.0,3.0,3.0,277.1298480220139,4.0,1.0,phase_1,,,,,,,,,,,,,cyan,cross
28.0,5.0,1.0,1.0,1.0,1.0,271.922176994849,4.0,1.0,phase_1,,,,,,,,,,,,,yellow,triangle
0.0,3.0,0.0,0.0,1.0,1.0,287.9121209844015,4.0,1.0,phase_1,,,,,,,,,,,,,blue,circle
122.0,2.0,2.0,0.0,2.0,2.0,304.8247849801555,4.0,1.0,phase_1,,,,,,,,,,,,,gray,hexagon
66.0,5.0,1.0,1.0,1.0,1.0,288.3438569842838,4.0,1.0,phase_1,,,,,,,,,,,,,yellow,triangle
69.0,1.0,1.0,0.0,2.0,2.0,282.2513750288635,4.0,1.0,phase_1,,,,,,,,,,,,,cyan,cross
41.0,5.0,1.0,1.0,3.0,3.0,264.9442820111289,4.0,1.0,phase_1,,,,,,,,,,,,,yellow,triangle
384.0,4.0,4.0,0.0,1.0,1.0,259.6827910165302,4.0,1.0,phase_1,,,,,,,,,,,,,white,I
34.0,1.0,1.0,0.0,4.0,4.0,296.077498991508,4.0,1.0,phase_1,,,,,,,,,,,,,cyan,cross
217.0,7.0,3.0,1.0,2.0,2.0,263.8845149776898,4.0,1.0,phase_1,,,,,,,,,,,,,magenta,diamond
188.0,3.0,3.0,0.0,4.0,4.0,260.8810039819218,4.0,1.0,phase_1,,,,,,,,,,,,,blue,circle
83.0,6.0,2.0,1.0,3.0,3.0,255.86504896637052,4.0,1.0,phase_1,,,,,,,,,,,,,green,flipped triangle
0.0,4.0,0.0,0.0,2.0,2.0,275.9438340435736,4.0,1.0,phase_1,,,,,,,,,,,,,white,I
87.0,2.0,2.0,0.0,3.0,3.0,267.7282420336269,4.0,1.0,phase_1,,,,,,,,,,,,,gray,hexagon
179.0,7.0,3.0,1.0,3.0,3.0,284.3994550057687,4.0,1.0,phase_1,,,,,,,,,,,,,magenta,diamond
0.0,5.0,0.0,1.0,3.0,3.0,298.0093010119162,4.0,1.0,phase_1,,,,,,,,,,,,,yellow,triangle
384.0,8.0,4.0,1.0,1.0,1.0,286.354971001856,4.0,1.0,phase_1,,,,,,,,,,,,,orange,square
0.0,5.0,0.0,1.0,2.0,2.0,268.6748689739033,4.0,1.0,phase_1,,,,,,,,,,,,,yellow,triangle
391.0,4.0,4.0,0.0,4.0,4.0,247.9868329828605,4.0,1.0,phase_1,,,,,,,,,,,,,white,I
105.0,6.0,2.0,1.0,4.0,4.0,251.39011401915923,4.0,1.0,phase_1,,,,,,,,,,,,,green,flipped triangle
417.0,8.0,4.0,1.0,2.0,2.0,266.4275680435821,4.0,1.0,phase_1,,,,,,,,,,,,,orange,square
395.0,4.0,4.0,0.0,3.0,3.0,255.8297939831391,4.0,1.0,phase_1,,,,,,,,,,,,,white,I
80.0,2.0,2.0,0.0,1.0,1.0,243.4986450243741,4.0,1.0,phase_1,,,,,,,,,,,,,gray,hexagon
73.0,1.0,1.0,0.0,3.0,3.0,264.2593550262972,4.0,1.0,phase_1,,,,,,,,,,,,,cyan,cross
411.0,8.0,4.0,1.0,4.0,4.0,269.1774449776858,4.0,1.0,phase_1,,,,,,,,,,,,,orange,square
219.0,7.0,3.0,1.0,1.0,1.0,296.6079019824974,4.0,1.0,phase_1,,,,,,,,,,,,,magenta,diamond
31.0,1.0,1.0,0.0,4.0,4.0,276.6295349574648,4.0,1.0,phase_1,,,,,,,,,,,,,cyan,cross
421.0,8.0,4.0,1.0,3.0,3.0,267.3328809905797,4.0,1.0,phase_1,,,,,,,,,,,,,orange,square
121.0,2.0,2.0,0.0,4.0,4.0,247.5696280016563,4.0,1.0,phase_1,,,,,,,,,,,,,gray,hexagon
77.0,2.0,2.0,0.0,2.0,2.0,299.412131018471,4.0,1.0,phase_1,,,,,,,,,,,,,gray,hexagon
412.0,8.0,4.0,1.0,1.0,1.0,301.153285021428,4.0,2.0,phase_1,,,,,,,,,,,,,orange,square
52.0,5.0,1.0,1.0,2.0,2.0,368.4922700049355,4.0,1.0,phase_1,,,,,,,,,,,,,yellow,triangle
86.0,6.0,2.0,1.0,4.0,4.0,289.1998199629597,4.0,1.0,phase_1,,,,,,,,,,,,,green,flipped triangle
59.0,1.0,1.0,0.0,1.0,1.0,267.959768010769,4.0,1.0,phase_1,,,,,,,,,,,,,cyan,cross
83.0,2.0,2.0,0.0,1.0,1.0,312.6730030053295,4.0,1.0,phase_1,,,,,,,,,,,,,gray,hexagon
47.0,1.0,1.0,0.0,1.0,1.0,302.5643450091593,4.0,1.0,phase_1,,,,,,,,,,,,,cyan,cross
47.0,5.0,1.0,1.0,1.0,1.0,273.5481719719246,4.0,1.0,phase_1,,,,,,,,,,,,,yellow,triangle
219.0,3.0,3.0,0.0,2.0,2.0,303.9185980451293,4.0,1.0,phase_1,,,,,,,,,,,,,blue,circle
409.0,8.0,4.0,1.0,4.0,4.0,291.8867879780009,4.0,1.0,phase_1,,,,,,,,,,,,,orange,square
59.0,5.0,1.0,1.0,4.0,4.0,320.7035710220225,4.0,1.0,phase_1,,,,,,,,,,,,,yellow,triangle
73.0,1.0,1.0,0.0,3.0,3.0,260.7798869721591,4.0,1.0,phase_1,,,,,,,,,,,,,cyan,cross
96.0,2.0,2.0,0.0,4.0,4.0,305.0018419744447,4.0,1.0,phase_1,,,,,,,,,,,,,gray,hexagon
34.0,5.0,1.0,1.0,4.0,4.0,292.8354800096713,4.0,1.0,phase_1,,,,,,,,,,,,,yellow,triangle
179.0,7.0,3.0,1.0,3.0,3.0,274.7445380082354,4.0,1.0,phase_1,,,,,,,,,,,,,magenta,diamond
121.0,6.0,2.0,1.0,2.0,2.0,294.3539670086466,4.0,1.0,phase_1,,,,,,,,,,,,,green,flipped triangle
0.0,5.0,0.0,1.0,2.0,2.0,290.3888649889268,4.0,1.0,phase_1,,,,,,,,,,,,,yellow,triangle
0.0,2.0,0.0,0.0,4.0,4.0,271.6348239919171,4.0,1.0,phase_1,,,,,,,,,,,,,gray,hexagon
0.0,2.0,0.0,0.0,2.0,2.0,291.9713400187902,4.0,1.0,phase_1,,,,,,,,,,,,,gray,hexagon
0.0,2.0,0.0,0.0,2.0,2.0,280.1693019573577,4.0,1.0,phase_1,,,,,,,,,,,,,gray,hexagon
49.0,5.0,1.0,1.0,3.0,3.0,279.8305139876902,4.0,1.0,phase_1,,,,,,,,,,,,,yellow,triangle
192.0,3.0,3.0,0.0,3.0,3.0,292.6173039595596,4.0,1.0,phase_1,,,,,,,,,,,,,blue,circle
191.0,3.0,3.0,0.0,1.0,1.0,311.5920880227349,4.0,1.0,phase_1,,,,,,,,,,,,,blue,circle
0.0,6.0,0.0,1.0,4.0,4.0,283.8898649788461,4.0,1.0,phase_1,,,,,,,,,,,,,green,flipped triangle
416.0,4.0,4.0,0.0,1.0,1.0,303.9183549699373,4.0,1.0,phase_1,,,,,,,,,,,,,white,I
0.0,2.0,0.0,0.0,3.0,3.0,284.869407012593,4.0,1.0,phase_1,,,,,,,,,,,,,gray,hexagon
402.0,4.0,4.0,0.0,3.0,3.0,273.2759920181706,4.0,1.0,phase_1,,,,,,,,,,,,,white,I
197.0,7.0,3.0,1.0,1.0,1.0,342.486364999786,4.0,1.0,phase_1,,,,,,,,,,,,,magenta,diamond
416.0,8.0,4.0,1.0,3.0,3.0,293.6095959739759,4.0,1.0,phase_1,,,,,,,,,,,,,orange,square
200.0,3.0,3.0,0.0,1.0,1.0,295.3417919925414,4.0,1.0,phase_1,,,,,,,,,,,,,blue,circle
177.0,3.0,3.0,0.0,2.0,2.0,316.3684530300088,4.0,1.0,phase_1,,,,,,,,,,,,,blue,circle
0.0,1.0,0.0,0.0,3.0,3.0,268.8478660420514,4.0,1.0,phase_1,,,,,,,,,,,,,cyan,cross
184.0,3.0,3.0,0.0,3.0,3.0,288.161628996022,4.0,1.0,phase_1,,,,,,,,,,,,,blue,circle
56.0,5.0,1.0,1.0,4.0,4.0,267.4771629972383,4.0,1.0,phase_1,,,,,,,,,,,,,yellow,triangle
0.0,4.0,0.0,0.0,2.0,2.0,266.0693569923751,4.0,1.0,phase_1,,,,,,,,,,,,,white,I
91.0,2.0,2.0,0.0,4.0,4.0,308.4313300205394,4.0,1.0,phase_1,,,,,,,,,,,,,gray,hexagon
91.0,6.0,2.0,1.0,4.0,4.0,283.2427609828301,4.0,1.0,phase_1,,,,,,,,,,,,,green,flipped triangle
420.0,8.0,4.0,1.0,2.0,2.0,292.4612990464084,4.0,1.0,phase_1,,,,,,,,,,,,,orange,square
28.0,1.0,1.0,0.0,1.0,1.0,261.3661579671316,4.0,1.0,phase_1,,,,,,,,,,,,,cyan,cross
412.0,4.0,4.0,0.0,1.0,1.0,297.3853329895064,4.0,1.0,phase_1,,,,,,,,,,,,,white,I
0.0,8.0,0.0,1.0,1.0,1.0,284.1845090151764,4.0,1.0,phase_1,,,,,,,,,,,,,orange,square
212.0,7.0,3.0,1.0,3.0,3.0,274.3907929980196,4.0,1.0,phase_1,,,,,,,,,,,,,magenta,diamond
54.0,1.0,1.0,0.0,1.0,1.0,277.042364992667,4.0,1.0,phase_1,,,,,,,,,,,,,cyan,cross
0.0,8.0,4.0,1.0,5.0,0.0,0.0,1.0,1.0,phase_2,stop,250.0,250.0,4.0,,,,,,,,,orange,square
0.0,4.0,4.0,0.0,6.0,6.0,294.6806150139309,1.0,1.0,phase_2,go,300.0,250.0,1.0,,,,,,,,,white,I
0.0,5.0,1.0,1.0,5.0,5.0,357.8837460372597,1.0,1.0,phase_2,stop,300.0,250.0,3.0,,,,,,,,,yellow,triangle
0.0,5.0,1.0,1.0,5.0,5.0,236.6803439799696,1.0,1.0,phase_2,stop,250.0,250.0,3.0,,,,,,,,,yellow,triangle
0.0,6.0,2.0,1.0,5.0,5.0,283.4002790041268,1.0,1.0,phase_2,stop,200.0,250.0,3.0,,,,,,,,,green,flipped triangle
0.0,7.0,3.0,1.0,6.0,6.0,261.6282069939188,1.0,1.0,phase_2,go,150.0,250.0,1.0,,,,,,,,,magenta,diamond
0.0,1.0,1.0,0.0,6.0,6.0,321.9952500076033,1.0,1.0,phase_2,go,150.0,250.0,1.0,,,,,,,,,cyan,cross
0.0,2.0,2.0,0.0,6.0,6.0,283.2178549724631,1.0,1.0,phase_2,go,150.0,250.0,1.0,,,,,,,,,gray,hexagon
0.0,2.0,2.0,0.0,6.0,6.0,441.6864039958454,1.0,1.0,phase_2,go,150.0,250.0,1.0,,,,,,,,,gray,hexagon
0.0,4.0,4.0,0.0,6.0,6.0,251.02996896021068,1.0,1.0,phase_2,go,150.0,250.0,1.0,,,,,,,,,white,I
0.0,3.0,3.0,0.0,5.0,5.0,227.1313090459443,1.0,1.0,phase_2,go,150.0,250.0,1.0,,,,,,,,,blue,circle
0.0,8.0,4.0,1.0,5.0,5.0,230.7165110250935,1.0,1.0,phase_2,stop,150.0,250.0,3.0,,,,,,,,,orange,square
0.0,1.0,1.0,0.0,5.0,5.0,273.1040390208363,1.0,1.0,phase_2,go,100.0,250.0,1.0,,,,,,,,,cyan,cross
0.0,2.0,2.0,0.0,5.0,5.0,253.4228060394525,1.0,1.0,phase_2,go,100.0,250.0,1.0,,,,,,,,,gray,hexagon
0.0,2.0,2.0,0.0,5.0,5.0,390.1442530332133,1.0,1.0,phase_2,go,100.0,250.0,1.0,,,,,,,,,gray,hexagon
0.0,7.0,3.0,1.0,5.0,0.0,0.0,1.0,1.0,phase_2,stop,100.0,250.0,4.0,,,,,,,,,magenta,diamond
0.0,3.0,3.0,0.0,6.0,6.0,278.8048079819418,1.0,1.0,phase_2,go,150.0,250.0,1.0,,,,,,,,,blue,circle
0.0,1.0,1.0,0.0,5.0,5.0,270.5545839853585,1.0,1.0,phase_2,go,150.0,250.0,1.0,,,,,,,,,cyan,cross
0.0,6.0,2.0,1.0,5.0,0.0,0.0,1.0,1.0,phase_2,stop,150.0,250.0,4.0,,,,,,,,,green,flipped triangle
0.0,2.0,2.0,0.0,5.0,5.0,274.5773600181564,1.0,1.0,phase_2,go,200.0,250.0,1.0,,,,,,,,,gray,hexagon
0.0,7.0,3.0,1.0,6.0,6.0,261.3262790255248,1.0,1.0,phase_2,go,200.0,250.0,1.0,,,,,,,,,magenta,diamond
0.0,5.0,1.0,1.0,6.0,6.0,268.2832919526845,1.0,1.0,phase_2,go,200.0,250.0,1.0,,,,,,,,,yellow,triangle
0.0,8.0,4.0,1.0,6.0,6.0,396.033424010966,1.0,1.0,phase_2,go,200.0,250.0,1.0,,,,,,,,,orange,square
0.0,6.0,2.0,1.0,6.0,6.0,291.6521019651554,1.0,1.0,phase_2,stop,200.0,250.0,3.0,,,,,,,,,green,flipped triangle
0.0,2.0,2.0,0.0,5.0,5.0,266.4545229636132,1.0,1.0,phase_2,go,200.0,200.0,1.0,,,,,,,,,gray,hexagon
0.0,8.0,4.0,1.0,6.0,6.0,222.5968419807031,1.0,1.0,phase_2,stop,200.0,200.0,3.0,,,,,,,,,orange,square
0.0,4.0,4.0,0.0,5.0,5.0,375.1590959727764,1.0,1.0,phase_2,go,200.0,150.0,1.0,,,,,,,,,white,I
0.0,1.0,1.0,0.0,5.0,5.0,286.5566060063429,1.0,1.0,phase_2,go,200.0,150.0,1.0,,,,,,,,,cyan,cross
0.0,8.0,4.0,1.0,5.0,5.0,281.1554449726827,1.0,1.0,phase_2,stop,200.0,150.0,3.0,,,,,,,,,orange,square
0.0,6.0,2.0,1.0,5.0,0.0,0.0,1.0,1.0,phase_2,stop,150.0,150.0,4.0,,,,,,,,,green,flipped triangle
0.0,1.0,1.0,0.0,6.0,6.0,260.4837249964475,1.0,1.0,phase_2,go,200.0,150.0,1.0,,,,,,,,,cyan,cross
0.0,6.0,2.0,1.0,6.0,6.0,262.6203779946081,1.0,1.0,phase_2,go,200.0,150.0,1.0,,,,,,,,,green,flipped triangle
0.0,4.0,4.0,0.0,6.0,6.0,254.1399950277991,1.0,1.0,phase_2,go,200.0,150.0,1.0,,,,,,,,,white,I
0.0,1.0,1.0,0.0,5.0,5.0,252.46008695103228,1.0,1.0,phase_2,go,200.0,150.0,1.0,,,,,,,,,cyan,cross
0.0,7.0,3.0,1.0,5.0,5.0,241.9376419857144,1.0,1.0,phase_2,stop,200.0,150.0,3.0,,,,,,,,,magenta,diamond
0.0,8.0,4.0,1.0,6.0,6.0,249.946448020637,1.0,1.0,phase_2,go,150.0,150.0,1.0,,,,,,,,,orange,square
0.0,7.0,3.0,1.0,5.0,5.0,549.0298239747062,2.0,1.0,phase_2,go,150.0,150.0,1.0,,,,,,,,,magenta,diamond
0.0,3.0,3.0,0.0,5.0,5.0,443.9187020179815,2.0,1.0,phase_2,go,150.0,150.0,1.0,,,,,,,,,blue,circle
0.0,4.0,4.0,0.0,5.0,5.0,412.8899909555912,2.0,1.0,phase_2,go,150.0,150.0,1.0,,,,,,,,,white,I
0.0,8.0,4.0,1.0,6.0,6.0,444.65353700798,2.0,1.0,phase_2,go,150.0,150.0,1.0,,,,,,,,,orange,square
0.0,1.0,1.0,0.0,6.0,6.0,395.4261220060289,2.0,1.0,phase_2,go,150.0,150.0,1.0,,,,,,,,,cyan,cross
0.0,7.0,3.0,1.0,5.0,0.0,0.0,2.0,1.0,phase_2,stop,150.0,150.0,4.0,,,,,,,,,magenta,diamond
0.0,4.0,4.0,0.0,6.0,6.0,280.4249199689366,2.0,1.0,phase_2,go,200.0,150.0,1.0,,,,,,,,,white,I
0.0,2.0,2.0,0.0,5.0,5.0,392.7920910064131,2.0,1.0,phase_2,go,200.0,150.0,1.0,,,,,,,,,gray,hexagon
0.0,4.0,4.0,0.0,6.0,6.0,384.1510430211201,2.0,1.0,phase_2,go,200.0,150.0,1.0,,,,,,,,,white,I
0.0,2.0,2.0,0.0,6.0,6.0,487.5349180074408,2.0,1.0,phase_2,go,200.0,150.0,1.0,,,,,,,,,gray,hexagon
0.0,3.0,3.0,0.0,5.0,5.0,373.7830609898083,2.0,1.0,phase_2,go,200.0,150.0,1.0,,,,,,,,,blue,circle
0.0,3.0,3.0,0.0,6.0,6.0,524.4654910056852,2.0,1.0,phase_2,go,200.0,150.0,1.0,,,,,,,,,blue,circle
0.0,2.0,2.0,0.0,6.0,6.0,310.475236037746,2.0,1.0,phase_2,go,200.0,150.0,1.0,,,,,,,,,gray,hexagon
0.0,5.0,1.0,1.0,6.0,0.0,0.0,2.0,1.0,phase_2,stop,200.0,150.0,4.0,,,,,,,,,yellow,triangle
0.0,8.0,4.0,1.0,6.0,0.0,0.0,2.0,1.0,phase_2,stop,200.0,200.0,4.0,,,,,,,,,orange,square
0.0,6.0,2.0,1.0,6.0,6.0,451.4876499888487,2.0,1.0,phase_2,go,200.0,250.0,1.0,,,,,,,,,green,flipped triangle
0.0,2.0,2.0,0.0,6.0,6.0,413.8866620487533,2.0,1.0,phase_2,go,200.0,250.0,1.0,,,,,,,,,gray,hexagon
0.0,3.0,3.0,0.0,5.0,5.0,529.6564140007831,2.0,1.0,phase_2,go,200.0,250.0,1.0,,,,,,,,,blue,circle
0.0,1.0,1.0,0.0,5.0,5.0,563.001623027958,2.0,1.0,phase_2,go,200.0,250.0,1.0,,,,,,,,,cyan,cross
0.0,2.0,2.0,0.0,5.0,5.0,546.2588719674386,2.0,1.0,phase_2,go,200.0,250.0,1.0,,,,,,,,,gray,hexagon
0.0,5.0,1.0,1.0,6.0,0.0,0.0,2.0,1.0,phase_2,stop,200.0,250.0,4.0,,,,,,,,,yellow,triangle
0.0,5.0,1.0,1.0,5.0,0.0,0.0,2.0,1.0,phase_2,stop,200.0,300.0,4.0,,,,,,,,,yellow,triangle
0.0,1.0,1.0,0.0,5.0,5.0,511.4854429848492,2.0,1.0,phase_2,go,250.0,300.0,1.0,,,,,,,,,cyan,cross
0.0,6.0,2.0,1.0,5.0,5.0,481.8593019735999,2.0,1.0,phase_2,go,250.0,300.0,1.0,,,,,,,,,green,flipped triangle
0.0,6.0,2.0,1.0,5.0,0.0,0.0,2.0,1.0,phase_2,stop,250.0,300.0,4.0,,,,,,,,,green,flipped triangle
0.0,5.0,1.0,1.0,5.0,0.0,0.0,2.0,1.0,phase_2,stop,300.0,300.0,4.0,,,,,,,,,yellow,triangle
0.0,4.0,4.0,0.0,5.0,5.0,412.7020579762757,2.0,1.0,phase_2,go,350.0,300.0,1.0,,,,,,,,,white,I
0.0,5.0,1.0,1.0,5.0,0.0,0.0,2.0,1.0,phase_2,stop,350.0,300.0,4.0,,,,,,,,,yellow,triangle
0.0,8.0,4.0,1.0,6.0,6.0,438.891728001181,2.0,1.0,phase_2,go,400.0,300.0,1.0,,,,,,,,,orange,square
0.0,3.0,3.0,0.0,6.0,6.0,638.5411910014227,2.0,1.0,phase_2,go,400.0,300.0,1.0,,,,,,,,,blue,circle
0.0,4.0,4.0,0.0,6.0,6.0,566.1997860297561,2.0,1.0,phase_2,go,400.0,300.0,1.0,,,,,,,,,white,I
0.0,4.0,4.0,0.0,6.0,6.0,411.5825750050135,2.0,1.0,phase_2,go,400.0,300.0,1.0,,,,,,,,,white,I
0.0,5.0,1.0,1.0,6.0,0.0,0.0,2.0,1.0,phase_2,stop,400.0,300.0,4.0,,,,,,,,,yellow,triangle
0.0,2.0,2.0,0.0,5.0,5.0,456.7061819834634,2.0,1.0,phase_2,go,400.0,350.0,1.0,,,,,,,,,gray,hexagon
0.0,5.0,1.0,1.0,5.0,5.0,425.3414520062506,2.0,1.0,phase_2,go,400.0,350.0,1.0,,,,,,,,,yellow,triangle
0.0,7.0,3.0,1.0,5.0,5.0,369.6941930102184,2.0,1.0,phase_2,go,400.0,350.0,1.0,,,,,,,,,magenta,diamond
0.0,2.0,2.0,0.0,5.0,5.0,391.9449289678596,3.0,1.0,phase_2,go,400.0,350.0,1.0,,,,,,,,,gray,hexagon
0.0,2.0,2.0,0.0,5.0,5.0,368.3702310081571,3.0,1.0,phase_2,go,400.0,350.0,1.0,,,,,,,,,gray,hexagon
0.0,3.0,3.0,0.0,6.0,6.0,428.1073489692062,3.0,1.0,phase_2,go,400.0,350.0,1.0,,,,,,,,,blue,circle
0.0,5.0,1.0,1.0,5.0,5.0,420.8730059908703,3.0,1.0,phase_2,stop,400.0,350.0,3.0,,,,,,,,,yellow,triangle
0.0,4.0,4.0,0.0,5.0,5.0,435.5113809579052,3.0,1.0,phase_2,go,350.0,350.0,1.0,,,,,,,,,white,I
0.0,1.0,1.0,0.0,6.0,6.0,444.8103629983961,3.0,1.0,phase_2,go,350.0,350.0,1.0,,,,,,,,,cyan,cross
0.0,7.0,3.0,1.0,5.0,0.0,0.0,3.0,1.0,phase_2,stop,350.0,350.0,4.0,,,,,,,,,magenta,diamond
0.0,2.0,2.0,0.0,6.0,6.0,413.7249549967237,3.0,1.0,phase_2,go,400.0,350.0,1.0,,,,,,,,,gray,hexagon
0.0,2.0,2.0,0.0,5.0,5.0,444.1947750165127,3.0,1.0,phase_2,go,400.0,350.0,1.0,,,,,,,,,gray,hexagon
0.0,5.0,1.0,1.0,6.0,6.0,635.5472939903848,3.0,1.0,phase_2,go,400.0,350.0,1.0,,,,,,,,,yellow,triangle
0.0,4.0,4.0,0.0,6.0,6.0,547.8574390290305,3.0,1.0,phase_2,go,400.0,350.0,1.0,,,,,,,,,white,I
0.0,4.0,4.0,0.0,6.0,6.0,433.5478560533374,3.0,1.0,phase_2,go,400.0,350.0,1.0,,,,,,,,,white,I
0.0,7.0,3.0,1.0,6.0,0.0,0.0,3.0,1.0,phase_2,stop,400.0,350.0,4.0,,,,,,,,,magenta,diamond
0.0,3.0,3.0,0.0,6.0,6.0,481.3039599684998,3.0,1.0,phase_2,go,400.0,400.0,1.0,,,,,,,,,blue,circle
0.0,7.0,3.0,1.0,6.0,0.0,0.0,3.0,1.0,phase_2,stop,400.0,400.0,4.0,,,,,,,,,magenta,diamond
0.0,8.0,4.0,1.0,5.0,0.0,0.0,3.0,1.0,phase_2,stop,400.0,450.0,4.0,,,,,,,,,orange,square
0.0,5.0,1.0,1.0,6.0,6.0,415.7383849960752,3.0,1.0,phase_2,stop,450.0,450.0,3.0,,,,,,,,,yellow,triangle
0.0,4.0,4.0,0.0,5.0,5.0,764.5170920295641,3.0,1.0,phase_2,go,450.0,400.0,1.0,,,,,,,,,white,I
0.0,1.0,1.0,0.0,5.0,5.0,775.6639049621299,3.0,1.0,phase_2,go,450.0,400.0,1.0,,,,,,,,,cyan,cross
0.0,8.0,4.0,1.0,6.0,6.0,606.9989199750125,3.0,1.0,phase_2,go,450.0,400.0,1.0,,,,,,,,,orange,square
0.0,7.0,3.0,1.0,6.0,6.0,619.6359499590471,3.0,1.0,phase_2,go,450.0,400.0,1.0,,,,,,,,,magenta,diamond
0.0,7.0,3.0,1.0,5.0,0.0,0.0,3.0,1.0,phase_2,stop,450.0,400.0,4.0,,,,,,,,,magenta,diamond
0.0,7.0,3.0,1.0,6.0,0.0,0.0,3.0,1.0,phase_2,stop,500.0,400.0,4.0,,,,,,,,,magenta,diamond
0.0,4.0,4.0,0.0,5.0,5.0,481.544998998288,3.0,1.0,phase_2,go,500.0,450.0,1.0,,,,,,,,,white,I
0.0,1.0,1.0,0.0,6.0,6.0,738.5349280084483,3.0,1.0,phase_2,go,500.0,450.0,1.0,,,,,,,,,cyan,cross
0.0,6.0,2.0,1.0,6.0,0.0,0.0,3.0,1.0,phase_2,stop,500.0,450.0,4.0,,,,,,,,,green,flipped triangle
0.0,3.0,3.0,0.0,6.0,6.0,647.3146809730679,3.0,1.0,phase_2,go,500.0,500.0,1.0,,,,,,,,,blue,circle
0.0,4.0,4.0,0.0,6.0,6.0,687.4780440120958,3.0,1.0,phase_2,go,500.0,500.0,1.0,,,,,,,,,white,I
0.0,5.0,1.0,1.0,6.0,0.0,0.0,3.0,1.0,phase_2,stop,500.0,500.0,4.0,,,,,,,,,yellow,triangle
0.0,2.0,2.0,0.0,6.0,6.0,638.3841410279274,3.0,1.0,phase_2,go,500.0,550.0,1.0,,,,,,,,,gray,hexagon
0.0,5.0,1.0,1.0,6.0,0.0,0.0,3.0,1.0,phase_2,stop,500.0,550.0,4.0,,,,,,,,,yellow,triangle
0.0,8.0,4.0,1.0,5.0,0.0,0.0,3.0,1.0,phase_2,stop,500.0,600.0,4.0,,,,,,,,,orange,square
0.0,4.0,4.0,0.0,5.0,5.0,551.892566960305,3.0,1.0,phase_2,go,550.0,600.0,1.0,,,,,,,,,white,I
0.0,2.0,2.0,0.0,5.0,5.0,647.3584430059418,3.0,1.0,phase_2,go,550.0,600.0,1.0,,,,,,,,,gray,hexagon
0.0,1.0,1.0,0.0,5.0,5.0,635.8543490059674,3.0,1.0,phase_2,go,550.0,600.0,1.0,,,,,,,,,cyan,cross
0.0,5.0,1.0,1.0,5.0,0.0,0.0,3.0,1.0,phase_2,stop,550.0,600.0,4.0,,,,,,,,,yellow,triangle
0.0,6.0,2.0,1.0,5.0,5.0,576.1456139734946,4.0,1.0,phase_2,stop,600.0,600.0,3.0,,,,,,,,,green,flipped triangle
0.0,1.0,1.0,0.0,6.0,6.0,523.6902949982323,4.0,1.0,phase_2,go,550.0,600.0,1.0,,,,,,,,,cyan,cross
0.0,8.0,4.0,1.0,6.0,6.0,674.3067170027643,4.0,1.0,phase_2,stop,550.0,600.0,3.0,,,,,,,,,orange,square
0.0,1.0,1.0,0.0,6.0,6.0,647.5376409944147,4.0,1.0,phase_2,go,550.0,550.0,1.0,,,,,,,,,cyan,cross
0.0,7.0,3.0,1.0,5.0,0.0,0.0,4.0,1.0,phase_2,stop,550.0,550.0,4.0,,,,,,,,,magenta,diamond
0.0,5.0,1.0,1.0,5.0,0.0,0.0,4.0,1.0,phase_2,stop,600.0,550.0,4.0,,,,,,,,,yellow,triangle
0.0,3.0,3.0,0.0,5.0,5.0,741.1001680302434,4.0,1.0,phase_2,go,650.0,550.0,1.0,,,,,,,,,blue,circle
0.0,5.0,1.0,1.0,5.0,5.0,950.613175984472,4.0,1.0,phase_2,go,650.0,550.0,1.0,,,,,,,,,yellow,triangle
0.0,5.0,1.0,1.0,6.0,0.0,0.0,4.0,1.0,phase_2,stop,650.0,550.0,4.0,,,,,,,,,yellow,triangle
0.0,8.0,4.0,1.0,6.0,0.0,0.0,4.0,1.0,phase_2,stop,650.0,600.0,4.0,,,,,,,,,orange,square
0.0,5.0,1.0,1.0,5.0,0.0,0.0,4.0,1.0,phase_2,stop,650.0,650.0,4.0,,,,,,,,,yellow,triangle
0.0,4.0,4.0,0.0,5.0,5.0,971.3408050010912,4.0,1.0,phase_2,go,700.0,650.0,1.0,,,,,,,,,white,I
0.0,8.0,4.0,1.0,5.0,0.0,0.0,4.0,1.0,phase_2,stop,700.0,650.0,4.0,,,,,,,,,orange,square
0.0,1.0,1.0,0.0,5.0,5.0,906.1827179975808,4.0,1.0,phase_2,go,750.0,650.0,1.0,,,,,,,,,cyan,cross
0.0,3.0,3.0,0.0,5.0,5.0,825.309575011488,4.0,1.0,phase_2,go,750.0,650.0,1.0,,,,,,,,,blue,circle
0.0,1.0,1.0,0.0,5.0,5.0,1098.410665988922,4.0,1.0,phase_2,go,750.0,650.0,1.0,,,,,,,,,cyan,cross
0.0,7.0,3.0,1.0,5.0,5.0,791.4742760476656,4.0,1.0,phase_2,stop,750.0,650.0,3.0,,,,,,,,,magenta,diamond
0.0,4.0,4.0,0.0,5.0,5.0,1062.7730950363912,4.0,1.0,phase_2,go,700.0,650.0,1.0,,,,,,,,,white,I
0.0,7.0,3.0,1.0,6.0,0.0,0.0,4.0,1.0,phase_2,stop,700.0,650.0,4.0,,,,,,,,,magenta,diamond
0.0,1.0,1.0,0.0,5.0,5.0,1064.2517399974167,4.0,1.0,phase_2,go,700.0,700.0,1.0,,,,,,,,,cyan,cross
0.0,6.0,2.0,1.0,6.0,0.0,0.0,4.0,1.0,phase_2,stop,700.0,700.0,4.0,,,,,,,,,green,flipped triangle
0.0,1.0,1.0,0.0,6.0,6.0,968.2883640052752,4.0,1.0,phase_2,go,700.0,750.0,1.0,,,,,,,,,cyan,cross
0.0,2.0,2.0,0.0,6.0,6.0,944.1076510120184,4.0,1.0,phase_2,go,700.0,750.0,1.0,,,,,,,,,gray,hexagon
0.0,1.0,1.0,0.0,6.0,6.0,1124.6469399775378,4.0,1.0,phase_2,go,700.0,750.0,1.0,,,,,,,,,cyan,cross
0.0,6.0,2.0,1.0,6.0,6.0,891.6632260079496,4.0,1.0,phase_2,go,700.0,750.0,1.0,,,,,,,,,green,flipped triangle
0.0,2.0,2.0,0.0,6.0,6.0,1012.5394179485738,4.0,1.0,phase_2,go,700.0,750.0,1.0,,,,,,,,,gray,hexagon
0.0,7.0,3.0,1.0,5.0,5.0,810.6560169835575,4.0,1.0,phase_2,go,700.0,750.0,1.0,,,,,,,,,magenta,diamond
0.0,4.0,4.0,0.0,6.0,6.0,387.5142020406201,4.0,1.0,phase_2,go,700.0,750.0,1.0,,,,,,,,,white,I
0.0,2.0,2.0,0.0,5.0,5.0,514.9703639908694,4.0,1.0,phase_2,go,700.0,750.0,1.0,,,,,,,,,gray,hexagon
0.0,7.0,3.0,1.0,6.0,6.0,633.208550978452,4.0,1.0,phase_2,stop,700.0,750.0,3.0,,,,,,,,,magenta,diamond
0.0,2.0,2.0,0.0,6.0,6.0,792.5727479741909,4.0,1.0,phase_2,go,700.0,700.0,1.0,,,,,,,,,gray,hexagon
0.0,8.0,4.0,1.0,5.0,0.0,0.0,4.0,1.0,phase_2,stop,700.0,700.0,4.0,,,,,,,,,orange,square
0.0,8.0,4.0,1.0,5.0,0.0,0.0,4.0,1.0,phase_2,stop,750.0,700.0,4.0,,,,,,,,,orange,square
0.0,1.0,1.0,0.0,6.0,6.0,1161.797558015678,4.0,1.0,phase_2,go,800.0,700.0,1.0,,,,,,,,,cyan,cross
0.0,8.0,4.0,1.0,6.0,0.0,0.0,4.0,1.0,phase_2,stop,800.0,700.0,4.0,,,,,,,,,orange,square
0.0,3.0,3.0,0.0,5.0,5.0,896.8120799981989,4.0,1.0,phase_2,go,800.0,750.0,1.0,,,,,,,,,blue,circle
0.0,6.0,2.0,1.0,6.0,6.0,641.2879709969275,5.0,1.0,phase_2,stop,800.0,750.0,3.0,,,,,,,,,green,flipped triangle
0.0,3.0,3.0,0.0,5.0,5.0,557.4526889831759,5.0,1.0,phase_2,go,800.0,700.0,1.0,,,,,,,,,blue,circle
0.0,3.0,3.0,0.0,6.0,6.0,309.3229090445675,5.0,1.0,phase_2,go,800.0,700.0,1.0,,,,,,,,,blue,circle
0.0,2.0,2.0,0.0,6.0,6.0,582.2163170087151,5.0,1.0,phase_2,go,800.0,700.0,1.0,,,,,,,,,gray,hexagon
0.0,6.0,2.0,1.0,5.0,5.0,556.6905739833601,5.0,1.0,phase_2,go,800.0,700.0,1.0,,,,,,,,,green,flipped triangle
0.0,6.0,2.0,1.0,5.0,5.0,476.3662740006111,5.0,1.0,phase_2,stop,800.0,700.0,3.0,,,,,,,,,green,flipped triangle
0.0,4.0,4.0,0.0,6.0,6.0,467.0517779886722,5.0,1.0,phase_2,go,750.0,700.0,1.0,,,,,,,,,white,I
0.0,3.0,3.0,0.0,5.0,5.0,596.6933949966915,5.0,1.0,phase_2,go,750.0,700.0,1.0,,,,,,,,,blue,circle
0.0,1.0,1.0,0.0,5.0,5.0,301.0870449943468,5.0,1.0,phase_2,go,750.0,700.0,1.0,,,,,,,,,cyan,cross
0.0,4.0,4.0,0.0,6.0,6.0,545.5760990153067,5.0,1.0,phase_2,go,750.0,700.0,1.0,,,,,,,,,white,I
0.0,5.0,1.0,1.0,6.0,6.0,547.3460590001196,5.0,1.0,phase_2,stop,750.0,700.0,3.0,,,,,,,,,yellow,triangle
0.0,2.0,2.0,0.0,6.0,6.0,712.0476490235887,5.0,1.0,phase_2,go,750.0,650.0,1.0,,,,,,,,,gray,hexagon
0.0,7.0,3.0,1.0,5.0,5.0,699.3640660075471,5.0,1.0,phase_2,stop,750.0,650.0,3.0,,,,,,,,,magenta,diamond
0.0,1.0,1.0,0.0,6.0,6.0,455.6045979843475,5.0,1.0,phase_2,go,700.0,650.0,1.0,,,,,,,,,cyan,cross
0.0,6.0,2.0,1.0,6.0,6.0,598.5742940101773,5.0,1.0,phase_2,stop,700.0,650.0,3.0,,,,,,,,,green,flipped triangle
0.0,7.0,3.0,1.0,6.0,0.0,0.0,5.0,1.0,phase_2,stop,700.0,600.0,4.0,,,,,,,,,magenta,diamond
0.0,7.0,3.0,1.0,5.0,5.0,759.0338800218888,5.0,1.0,phase_2,stop,700.0,650.0,3.0,,,,,,,,,magenta,diamond
0.0,2.0,2.0,0.0,6.0,6.0,638.0428079864942,5.0,1.0,phase_2,go,650.0,650.0,1.0,,,,,,,,,gray,hexagon
0.0,1.0,1.0,0.0,6.0,6.0,622.1086180303246,5.0,1.0,phase_2,go,650.0,650.0,1.0,,,,,,,,,cyan,cross
0.0,4.0,4.0,0.0,6.0,6.0,669.8779209982604,5.0,1.0,phase_2,go,650.0,650.0,1.0,,,,,,,,,white,I
0.0,2.0,2.0,0.0,6.0,6.0,523.0757009703666,5.0,1.0,phase_2,go,650.0,650.0,1.0,,,,,,,,,gray,hexagon
0.0,6.0,2.0,1.0,6.0,0.0,0.0,5.0,1.0,phase_2,stop,650.0,650.0,4.0,,,,,,,,,green,flipped triangle
0.0,7.0,3.0,1.0,6.0,6.0,778.2713110209443,5.0,1.0,phase_2,stop,650.0,700.0,3.0,,,,,,,,,magenta,diamond
0.0,1.0,1.0,0.0,5.0,5.0,481.896256969776,5.0,1.0,phase_2,go,650.0,650.0,1.0,,,,,,,,,cyan,cross
0.0,6.0,2.0,1.0,6.0,0.0,0.0,5.0,1.0,phase_2,stop,650.0,650.0,4.0,,,,,,,,,green,flipped triangle
0.0,7.0,3.0,1.0,6.0,0.0,0.0,5.0,1.0,phase_2,stop,650.0,700.0,4.0,,,,,,,,,magenta,diamond
0.0,3.0,3.0,0.0,5.0,5.0,672.335543029476,5.0,1.0,phase_2,go,650.0,750.0,1.0,,,,,,,,,blue,circle
0.0,8.0,4.0,1.0,6.0,6.0,567.5355949788354,5.0,1.0,phase_2,stop,650.0,750.0,3.0,,,,,,,,,orange,square
0.0,4.0,4.0,0.0,6.0,6.0,535.3748999768868,5.0,1.0,phase_2,go,650.0,700.0,1.0,,,,,,,,,white,I
0.0,8.0,4.0,1.0,5.0,0.0,0.0,5.0,1.0,phase_2,stop,650.0,700.0,4.0,,,,,,,,,orange,square
0.0,5.0,1.0,1.0,6.0,0.0,0.0,5.0,1.0,phase_2,stop,700.0,700.0,4.0,,,,,,,,,yellow,triangle
0.0,4.0,4.0,0.0,5.0,5.0,598.7032739794813,5.0,1.0,phase_2,go,700.0,750.0,1.0,,,,,,,,,white,I
0.0,4.0,4.0,0.0,5.0,5.0,438.1969749811105,5.0,1.0,phase_2,go,700.0,750.0,1.0,,,,,,,,,white,I
0.0,1.0,1.0,0.0,6.0,6.0,587.8905710414983,5.0,1.0,phase_2,go,700.0,750.0,1.0,,,,,,,,,cyan,cross
0.0,4.0,4.0,0.0,5.0,5.0,486.0172839835286,5.0,1.0,phase_2,go,700.0,750.0,1.0,,,,,,,,,white,I
0.0,8.0,4.0,1.0,5.0,0.0,0.0,5.0,1.0,phase_2,stop,700.0,750.0,4.0,,,,,,,,,orange,square
0.0,1.0,1.0,0.0,5.0,5.0,497.3768949857913,6.0,1.0,phase_2,go,750.0,750.0,1.0,,,,,,,,,cyan,cross
0.0,5.0,1.0,1.0,6.0,0.0,0.0,6.0,1.0,phase_2,stop,750.0,750.0,4.0,,,,,,,,,yellow,triangle
0.0,3.0,3.0,0.0,6.0,6.0,493.7145809526555,6.0,1.0,phase_2,go,750.0,800.0,1.0,,,,,,,,,blue,circle
0.0,8.0,4.0,1.0,5.0,5.0,1149.2634350433946,6.0,1.0,phase_2,go,750.0,800.0,1.0,,,,,,,,,orange,square
0.0,7.0,3.0,1.0,6.0,0.0,0.0,6.0,1.0,phase_2,stop,750.0,800.0,4.0,,,,,,,,,magenta,diamond
0.0,6.0,2.0,1.0,6.0,6.0,1078.1616640160792,6.0,1.0,phase_2,go,750.0,850.0,1.0,,,,,,,,,green,flipped triangle
0.0,2.0,2.0,0.0,6.0,6.0,469.636257039383,6.0,1.0,phase_2,go,750.0,850.0,1.0,,,,,,,,,gray,hexagon
0.0,8.0,4.0,1.0,6.0,6.0,869.2415310069919,6.0,1.0,phase_2,stop,750.0,850.0,3.0,,,,,,,,,orange,square
0.0,1.0,1.0,0.0,5.0,5.0,468.1079629808664,6.0,1.0,phase_2,go,750.0,800.0,1.0,,,,,,,,,cyan,cross
0.0,2.0,2.0,0.0,6.0,6.0,546.0234360070899,6.0,1.0,phase_2,go,750.0,800.0,1.0,,,,,,,,,gray,hexagon
0.0,6.0,2.0,1.0,5.0,0.0,0.0,6.0,1.0,phase_2,stop,750.0,800.0,4.0,,,,,,,,,green,flipped triangle
0.0,5.0,1.0,1.0,5.0,0.0,0.0,6.0,1.0,phase_2,stop,800.0,800.0,4.0,,,,,,,,,yellow,triangle
0.0,1.0,1.0,0.0,6.0,6.0,484.5461740042083,6.0,1.0,phase_2,go,850.0,800.0,1.0,,,,,,,,,cyan,cross
0.0,3.0,3.0,0.0,5.0,5.0,547.4637819570489,6.0,1.0,phase_2,go,850.0,800.0,1.0,,,,,,,,,blue,circle
0.0,3.0,3.0,0.0,5.0,5.0,546.6838969732635,6.0,1.0,phase_2,go,850.0,800.0,1.0,,,,,,,,,blue,circle
0.0,3.0,3.0,0.0,5.0,5.0,369.1137130372226,6.0,1.0,phase_2,go,850.0,800.0,1.0,,,,,,,,,blue,circle
0.0,5.0,1.0,1.0,5.0,0.0,0.0,6.0,1.0,phase_2,stop,850.0,800.0,4.0,,,,,,,,,yellow,triangle
0.0,2.0,2.0,0.0,5.0,5.0,535.0112750311382,6.0,1.0,phase_2,go,900.0,800.0,1.0,,,,,,,,,gray,hexagon
0.0,6.0,2.0,1.0,6.0,0.0,0.0,6.0,1.0,phase_2,stop,900.0,800.0,4.0,,,,,,,,,green,flipped triangle
0.0,7.0,3.0,1.0,6.0,0.0,0.0,6.0,1.0,phase_2,stop,900.0,850.0,4.0,,,,,,,,,magenta,diamond
0.0,3.0,3.0,0.0,6.0,6.0,487.1961419703439,6.0,1.0,phase_2,go,900.0,900.0,1.0,,,,,,,,,blue,circle
0.0,7.0,3.0,1.0,6.0,0.0,0.0,6.0,1.0,phase_2,stop,900.0,900.0,4.0,,,,,,,,,magenta,diamond
0.0,8.0,4.0,1.0,5.0,0.0,0.0,6.0,1.0,phase_2,stop,900.0,950.0,4.0,,,,,,,,,orange,square
0.0,3.0,3.0,0.0,6.0,6.0,470.4909589490853,6.0,1.0,phase_2,go,950.0,950.0,1.0,,,,,,,,,blue,circle
0.0,5.0,1.0,1.0,5.0,5.0,1348.840382997878,6.0,1.0,phase_2,go,950.0,950.0,1.0,,,,,,,,,yellow,triangle
0.0,3.0,3.0,0.0,5.0,5.0,434.1156250447966,6.0,1.0,phase_2,go,950.0,950.0,1.0,,,,,,,,,blue,circle
0.0,1.0,1.0,0.0,5.0,5.0,480.6662379996851,6.0,1.0,phase_2,go,950.0,950.0,1.0,,,,,,,,,cyan,cross
0.0,5.0,1.0,1.0,6.0,6.0,927.8754779952578,6.0,1.0,phase_2,go,950.0,950.0,1.0,,,,,,,,,yellow,triangle
0.0,8.0,4.0,1.0,5.0,5.0,746.7274249647744,6.0,1.0,phase_2,stop,950.0,950.0,3.0,,,,,,,,,orange,square
0.0,7.0,3.0,1.0,6.0,6.0,1033.6734819575213,6.0,1.0,phase_2,stop,900.0,950.0,3.0,,,,,,,,,magenta,diamond
0.0,4.0,4.0,0.0,6.0,6.0,480.0307779805735,6.0,1.0,phase_2,go,900.0,900.0,1.0,,,,,,,,,white,I
0.0,2.0,2.0,0.0,5.0,5.0,505.52728096954525,6.0,1.0,phase_2,go,900.0,900.0,1.0,,,,,,,,,gray,hexagon
0.0,6.0,2.0,1.0,5.0,0.0,0.0,6.0,1.0,phase_2,stop,900.0,900.0,4.0,,,,,,,,,green,flipped triangle
0.0,7.0,3.0,1.0,6.0,0.0,0.0,6.0,1.0,phase_2,stop,950.0,900.0,4.0,,,,,,,,,magenta,diamond
0.0,6.0,2.0,1.0,5.0,0.0,0.0,6.0,1.0,phase_2,stop,950.0,950.0,4.0,,,,,,,,,green,flipped triangle
0.0,3.0,3.0,0.0,5.0,5.0,479.1362200048752,6.0,1.0,phase_2,go,1000.0,950.0,1.0,,,,,,,,,blue,circle
0.0,6.0,2.0,1.0,6.0,6.0,1076.855129969772,7.0,1.0,phase_2,go,1000.0,950.0,1.0,,,,,,,,,green,flipped triangle
0.0,4.0,4.0,0.0,5.0,5.0,423.8142159883864,7.0,1.0,phase_2,go,1000.0,950.0,1.0,,,,,,,,,white,I
0.0,8.0,4.0,1.0,6.0,6.0,891.4805559907109,7.0,1.0,phase_2,stop,1000.0,950.0,3.0,,,,,,,,,orange,square
0.0,1.0,1.0,0.0,6.0,6.0,524.1288290126249,7.0,1.0,phase_2,go,1000.0,900.0,1.0,,,,,,,,,cyan,cross
0.0,8.0,4.0,1.0,6.0,0.0,0.0,7.0,1.0,phase_2,stop,1000.0,900.0,4.0,,,,,,,,,orange,square
0.0,2.0,2.0,0.0,5.0,5.0,507.52822001231834,7.0,1.0,phase_2,go,1000.0,950.0,1.0,,,,,,,,,gray,hexagon
0.0,3.0,3.0,0.0,5.0,5.0,467.3952050507068,7.0,1.0,phase_2,go,1000.0,950.0,1.0,,,,,,,,,blue,circle
0.0,5.0,1.0,1.0,6.0,0.0,0.0,7.0,1.0,phase_2,stop,1000.0,950.0,4.0,,,,,,,,,yellow,triangle
0.0,2.0,2.0,0.0,6.0,6.0,577.4528339970857,7.0,1.0,phase_2,go,1000.0,1000.0,1.0,,,,,,,,,gray,hexagon
0.0,2.0,2.0,0.0,5.0,5.0,528.6166610312648,7.0,1.0,phase_2,go,1000.0,1000.0,1.0,,,,,,,,,gray,hexagon
0.0,7.0,3.0,1.0,5.0,0.0,0.0,7.0,1.0,phase_2,stop,1000.0,1000.0,4.0,,,,,,,,,magenta,diamond
0.0,6.0,2.0,1.0,5.0,0.0,0.0,7.0,1.0,phase_2,stop,1050.0,1000.0,4.0,,,,,,,,,green,flipped triangle
0.0,3.0,3.0,0.0,6.0,6.0,510.05200698273256,7.0,1.0,phase_2,go,1100.0,1000.0,1.0,,,,,,,,,blue,circle
0.0,6.0,2.0,1.0,6.0,0.0,0.0,7.0,1.0,phase_2,go,1100.0,1000.0,5.0,,,,,,,,,green,flipped triangle
0.0,5.0,1.0,1.0,5.0,5.0,1055.9738330193795,7.0,1.0,phase_2,go,1100.0,1000.0,1.0,,,,,,,,,yellow,triangle
0.0,6.0,2.0,1.0,5.0,5.0,1006.1833140207457,7.0,1.0,phase_2,stop,1100.0,1000.0,3.0,,,,,,,,,green,flipped triangle
0.0,8.0,4.0,1.0,5.0,5.0,1141.1416810005903,7.0,1.0,phase_2,go,1050.0,1000.0,1.0,,,,,,,,,orange,square
0.0,4.0,4.0,0.0,5.0,5.0,437.7145949983969,7.0,1.0,phase_2,go,1050.0,1000.0,1.0,,,,,,,,,white,I
0.0,6.0,2.0,1.0,6.0,6.0,997.7684540208428,7.0,1.0,phase_2,stop,1050.0,1000.0,3.0,,,,,,,,,green,flipped triangle
0.0,1.0,1.0,0.0,5.0,5.0,499.4657610077411,7.0,1.0,phase_2,go,1050.0,950.0,1.0,,,,,,,,,cyan,cross
0.0,6.0,2.0,1.0,5.0,5.0,955.981171980966,7.0,1.0,phase_2,stop,1050.0,950.0,3.0,,,,,,,,,green,flipped triangle
0.0,7.0,3.0,1.0,6.0,0.0,0.0,7.0,1.0,phase_2,stop,1000.0,950.0,4.0,,,,,,,,,magenta,diamond
0.0,5.0,1.0,1.0,5.0,5.0,988.1733549991624,7.0,1.0,phase_2,stop,1000.0,1000.0,3.0,,,,,,,,,yellow,triangle
0.0,1.0,1.0,0.0,6.0,6.0,496.2428479921072,7.0,1.0,phase_2,go,950.0,1000.0,1.0,,,,,,,,,cyan,cross
0.0,6.0,2.0,1.0,5.0,0.0,0.0,7.0,1.0,phase_2,stop,950.0,1000.0,4.0,,,,,,,,,green,flipped triangle
0.0,6.0,2.0,1.0,5.0,0.0,0.0,7.0,1.0,phase_2,stop,1000.0,1000.0,4.0,,,,,,,,,green,flipped triangle
0.0,6.0,2.0,1.0,5.0,5.0,1222.6630850345828,7.0,1.0,phase_2,go,1050.0,1000.0,1.0,,,,,,,,,green,flipped triangle
0.0,8.0,4.0,1.0,6.0,6.0,1262.012417020742,7.0,1.0,phase_2,go,1050.0,1000.0,1.0,,,,,,,,,orange,square
0.0,3.0,3.0,0.0,6.0,6.0,494.5974400034174,7.0,1.0,phase_2,go,1050.0,1000.0,1.0,,,,,,,,,blue,circle
0.0,3.0,3.0,0.0,6.0,6.0,422.8844210156239,7.0,1.0,phase_2,go,1050.0,1000.0,1.0,,,,,,,,,blue,circle
0.0,6.0,2.0,1.0,6.0,6.0,1136.050033965148,7.0,1.0,phase_2,stop,1050.0,1000.0,3.0,,,,,,,,,green,flipped triangle
0.0,3.0,3.0,0.0,5.0,5.0,515.4278990230523,7.0,1.0,phase_2,go,1050.0,950.0,1.0,,,,,,,,,blue,circle
0.0,4.0,4.0,0.0,5.0,5.0,539.5398270338774,7.0,1.0,phase_2,go,1050.0,950.0,1.0,,,,,,,,,white,I
0.0,8.0,4.0,1.0,5.0,5.0,1186.9959920295514,7.0,1.0,phase_2,stop,1050.0,950.0,3.0,,,,,,,,,orange,square
0.0,5.0,1.0,1.0,6.0,0.0,0.0,7.0,1.0,phase_2,stop,1000.0,950.0,4.0,,,,,,,,,yellow,triangle
0.0,2.0,2.0,0.0,5.0,5.0,573.0903439689428,7.0,1.0,phase_2,go,1000.0,1000.0,1.0,,,,,,,,,gray,hexagon
0.0,1.0,1.0,0.0,6.0,6.0,453.1498250435106,8.0,1.0,phase_2,go,1000.0,1000.0,1.0,,,,,,,,,cyan,cross
0.0,8.0,4.0,1.0,5.0,5.0,366.714724979829,8.0,1.0,phase_2,stop,1000.0,1000.0,3.0,,,,,,,,,orange,square
0.0,7.0,3.0,1.0,5.0,5.0,762.888636032585,8.0,1.0,phase_2,stop,950.0,1000.0,3.0,,,,,,,,,magenta,diamond
0.0,3.0,3.0,0.0,6.0,6.0,388.1192819681018,8.0,1.0,phase_2,go,900.0,1000.0,1.0,,,,,,,,,blue,circle
0.0,5.0,1.0,1.0,5.0,5.0,1057.1041890070774,8.0,1.0,phase_2,go,900.0,1000.0,1.0,,,,,,,,,yellow,triangle
0.0,4.0,4.0,0.0,6.0,6.0,395.9653099882416,8.0,1.0,phase_2,go,900.0,1000.0,1.0,,,,,,,,,white,I
0.0,6.0,2.0,1.0,5.0,5.0,917.4628009786828,8.0,1.0,phase_2,stop,900.0,1000.0,3.0,,,,,,,,,green,flipped triangle
0.0,3.0,3.0,0.0,6.0,6.0,371.1809610249474,8.0,1.0,phase_2,go,850.0,1000.0,1.0,,,,,,,,,blue,circle
0.0,8.0,4.0,1.0,6.0,0.0,0.0,8.0,1.0,phase_2,stop,850.0,1000.0,4.0,,,,,,,,,orange,square
0.0,5.0,1.0,1.0,6.0,6.0,546.0227630101144,8.0,1.0,phase_2,stop,850.0,1050.0,3.0,,,,,,,,,yellow,triangle
0.0,8.0,4.0,1.0,6.0,6.0,1022.6503150188364,8.0,1.0,phase_2,stop,850.0,1000.0,3.0,,,,,,,,,orange,square
0.0,1.0,1.0,0.0,6.0,6.0,456.7494170041755,8.0,1.0,phase_2,go,850.0,950.0,1.0,,,,,,,,,cyan,cross
0.0,8.0,4.0,1.0,5.0,5.0,968.5250699985772,8.0,1.0,phase_2,stop,850.0,950.0,3.0,,,,,,,,,orange,square
0.0,4.0,4.0,0.0,6.0,6.0,516.6479410254396,8.0,1.0,phase_2,go,800.0,950.0,1.0,,,,,,,,,white,I
0.0,8.0,4.0,1.0,6.0,6.0,949.9748719972558,8.0,1.0,phase_2,stop,800.0,950.0,3.0,,,,,,,,,orange,square
0.0,4.0,4.0,0.0,5.0,5.0,386.973324988503,8.0,1.0,phase_2,go,800.0,900.0,1.0,,,,,,,,,white,I
0.0,5.0,1.0,1.0,6.0,6.0,404.9143320298753,8.0,1.0,phase_2,stop,800.0,900.0,3.0,,,,,,,,,yellow,triangle
0.0,6.0,2.0,1.0,6.0,0.0,0.0,8.0,1.0,phase_2,stop,800.0,850.0,4.0,,,,,,,,,green,flipped triangle
0.0,7.0,3.0,1.0,6.0,6.0,1315.2041449793614,8.0,1.0,phase_2,go,800.0,900.0,1.0,,,,,,,,,magenta,diamond
0.0,4.0,4.0,0.0,5.0,5.0,656.2802250264212,8.0,1.0,phase_2,go,800.0,900.0,1.0,,,,,,,,,white,I
0.0,7.0,3.0,1.0,5.0,0.0,0.0,8.0,1.0,phase_2,go,800.0,900.0,5.0,,,,,,,,,magenta,diamond
0.0,7.0,3.0,1.0,5.0,5.0,507.42928602267057,8.0,1.0,phase_2,stop,800.0,900.0,3.0,,,,,,,,,magenta,diamond
0.0,3.0,3.0,0.0,6.0,6.0,465.8335569547489,8.0,1.0,phase_2,go,750.0,900.0,1.0,,,,,,,,,blue,circle
0.0,5.0,1.0,1.0,5.0,5.0,696.3221760233864,8.0,1.0,phase_2,go,750.0,900.0,1.0,,,,,,,,,yellow,triangle
0.0,7.0,3.0,1.0,5.0,5.0,733.7581319734454,8.0,1.0,phase_2,go,750.0,900.0,1.0,,,,,,,,,magenta,diamond
0.0,4.0,4.0,0.0,5.0,5.0,352.6179540203884,8.0,1.0,phase_2,go,750.0,900.0,1.0,,,,,,,,,white,I
0.0,6.0,2.0,1.0,6.0,6.0,543.7660330208018,8.0,1.0,phase_2,stop,750.0,900.0,3.0,,,,,,,,,green,flipped triangle
0.0,7.0,3.0,1.0,5.0,5.0,324.0675790002569,8.0,1.0,phase_2,stop,750.0,850.0,3.0,,,,,,,,,magenta,diamond
0.0,1.0,1.0,0.0,5.0,5.0,293.0766690406017,8.0,1.0,phase_2,go,700.0,850.0,1.0,,,,,,,,,cyan,cross
0.0,3.0,3.0,0.0,6.0,6.0,332.7460410073399,8.0,1.0,phase_2,go,700.0,850.0,1.0,,,,,,,,,blue,circle
0.0,5.0,1.0,1.0,6.0,5.0,301.6192850191146,8.0,1.0,phase_2,stop,700.0,850.0,3.0,,,,,,,,,yellow,triangle
0.0,3.0,3.0,0.0,5.0,5.0,370.1740230317227,8.0,1.0,phase_2,go,700.0,800.0,1.0,,,,,,,,,blue,circle
0.0,3.0,3.0,0.0,6.0,6.0,403.2564439694397,8.0,1.0,phase_2,go,700.0,800.0,1.0,,,,,,,,,blue,circle
0.0,2.0,2.0,0.0,6.0,6.0,385.8058309997432,8.0,1.0,phase_2,go,700.0,800.0,1.0,,,,,,,,,gray,hexagon
0.0,8.0,4.0,1.0,5.0,5.0,499.0731650032103,8.0,1.0,phase_2,go,700.0,800.0,1.0,,,,,,,,,orange,square
0.0,2.0,2.0,0.0,5.0,5.0,443.1694350205362,8.0,1.0,phase_2,go,700.0,800.0,1.0,,,,,,,,,gray,hexagon
0.0,6.0,2.0,1.0,7.0,5.0,4947.880515013821,1.0,1.0,phase_3,,,,,196.0,4.0,98.0,294.0,147.0,49.0,196.0,245.0,green,flipped triangle
0.0,5.0,1.0,1.0,7.0,2.0,1964.4264740054496,1.0,1.0,phase_3,,,,,132.0,3.0,264.0,132.0,88.0,220.0,44.0,176.0,yellow,triangle
0.0,5.0,1.0,1.0,7.0,3.0,3138.2279209792614,1.0,1.0,phase_3,,,,,156.0,4.0,195.0,78.0,156.0,117.0,39.0,234.0,yellow,triangle
0.0,7.0,3.0,1.0,7.0,1.0,4971.183023997583,1.0,1.0,phase_3,,,,,117.0,3.0,117.0,78.0,234.0,195.0,39.0,156.0,magenta,diamond
0.0,4.0,4.0,0.0,7.0,6.0,1291.024478035979,1.0,1.0,phase_3,,,,,204.0,6.0,170.0,136.0,102.0,34.0,68.0,204.0,white,I
0.0,1.0,1.0,0.0,7.0,4.0,1611.9264810113236,1.0,1.0,phase_3,,,,,44.0,1.0,88.0,220.0,176.0,44.0,264.0,132.0,cyan,cross
0.0,3.0,3.0,0.0,7.0,3.0,2560.970518970862,1.0,1.0,phase_3,,,,,54.0,1.0,216.0,162.0,54.0,270.0,324.0,108.0,blue,circle
0.0,1.0,1.0,0.0,7.0,5.0,3319.301712035667,1.0,1.0,phase_3,,,,,136.0,4.0,68.0,34.0,204.0,102.0,136.0,170.0,cyan,cross
0.0,5.0,1.0,1.0,7.0,4.0,1880.6728550116527,1.0,1.0,phase_3,,,,,108.0,2.0,162.0,324.0,216.0,108.0,270.0,54.0,yellow,triangle
0.0,3.0,3.0,0.0,7.0,3.0,1849.5358700165525,1.0,1.0,phase_3,,,,,49.0,1.0,147.0,245.0,49.0,196.0,294.0,98.0,blue,circle
0.0,3.0,3.0,0.0,7.0,6.0,1354.8408889910206,1.0,1.0,phase_3,,,,,44.0,1.0,220.0,264.0,176.0,132.0,88.0,44.0,blue,circle
0.0,7.0,3.0,1.0,7.0,1.0,3212.122928991448,1.0,1.0,phase_3,,,,,204.0,6.0,204.0,34.0,68.0,170.0,136.0,102.0,magenta,diamond
0.0,5.0,1.0,1.0,7.0,1.0,3871.892526978627,1.0,1.0,phase_3,,,,,176.0,4.0,176.0,88.0,44.0,132.0,220.0,264.0,yellow,triangle
0.0,4.0,4.0,0.0,7.0,6.0,3070.7977700512856,1.0,1.0,phase_3,,,,,270.0,5.0,216.0,54.0,162.0,108.0,324.0,270.0,white,I
0.0,3.0,3.0,0.0,7.0,5.0,2690.2173070120625,1.0,1.0,phase_3,,,,,68.0,2.0,34.0,136.0,170.0,102.0,68.0,204.0,blue,circle
0.0,8.0,4.0,1.0,7.0,5.0,2093.564580020029,1.0,1.0,phase_3,,,,,204.0,6.0,102.0,68.0,136.0,170.0,204.0,34.0,orange,square
0.0,7.0,3.0,1.0,7.0,2.0,2946.6925040469505,1.0,1.0,phase_3,,,,,147.0,3.0,294.0,147.0,245.0,196.0,98.0,49.0,magenta,diamond
0.0,3.0,3.0,0.0,7.0,4.0,2988.5931530152448,1.0,1.0,phase_3,,,,,49.0,1.0,245.0,294.0,98.0,49.0,196.0,147.0,blue,circle
0.0,3.0,3.0,0.0,7.0,3.0,1543.2955989963375,1.0,1.0,phase_3,,,,,39.0,1.0,117.0,156.0,39.0,78.0,195.0,234.0,blue,circle
0.0,5.0,1.0,1.0,7.0,4.0,4383.377127989661,1.0,1.0,phase_3,,,,,147.0,3.0,196.0,245.0,294.0,147.0,98.0,49.0,yellow,triangle
0.0,7.0,3.0,1.0,7.0,3.0,2421.705987013411,2.0,1.0,phase_3,,,,,156.0,4.0,117.0,195.0,156.0,39.0,78.0,234.0,magenta,diamond
0.0,4.0,4.0,0.0,7.0,1.0,2374.454292992596,2.0,1.0,phase_3,,,,,156.0,4.0,156.0,234.0,39.0,117.0,195.0,78.0,white,I
0.0,8.0,4.0,1.0,7.0,2.0,1997.304956021253,2.0,1.0,phase_3,,,,,270.0,5.0,324.0,270.0,54.0,108.0,162.0,216.0,orange,square
0.0,4.0,4.0,0.0,7.0,3.0,2590.9205289790407,2.0,1.0,phase_3,,,,,220.0,5.0,88.0,44.0,220.0,132.0,176.0,264.0,white,I
0.0,4.0,4.0,0.0,7.0,6.0,2152.9348919866607,2.0,1.0,phase_3,,,,,245.0,5.0,98.0,294.0,49.0,196.0,147.0,245.0,white,I
0.0,6.0,2.0,1.0,7.0,2.0,2427.662261994556,2.0,1.0,phase_3,,,,,98.0,2.0,147.0,98.0,245.0,196.0,49.0,294.0,green,flipped triangle
0.0,6.0,2.0,1.0,7.0,1.0,3546.9212609459646,2.0,1.0,phase_3,,,,,108.0,2.0,108.0,270.0,162.0,216.0,324.0,54.0,green,flipped triangle
0.0,6.0,2.0,1.0,7.0,6.0,2564.6085430053063,2.0,1.0,phase_3,,,,,88.0,2.0,132.0,176.0,220.0,44.0,264.0,88.0,green,flipped triangle
0.0,3.0,3.0,0.0,7.0,2.0,1613.8916570344009,2.0,1.0,phase_3,,,,,34.0,1.0,102.0,34.0,68.0,204.0,136.0,170.0,blue,circle
0.0,2.0,2.0,0.0,7.0,1.0,4209.752747032326,2.0,1.0,phase_3,,,,,98.0,2.0,98.0,147.0,294.0,196.0,49.0,245.0,gray,hexagon
0.0,1.0,1.0,0.0,7.0,1.0,3469.539290992543,2.0,1.0,phase_3,,,,,117.0,3.0,117.0,39.0,195.0,234.0,78.0,156.0,cyan,cross
0.0,2.0,2.0,0.0,7.0,3.0,4104.691640997771,2.0,1.0,phase_3,,,,,78.0,2.0,117.0,234.0,78.0,195.0,156.0,39.0,gray,hexagon
0.0,5.0,1.0,1.0,7.0,2.0,2948.648424993735,2.0,1.0,phase_3,,,,,147.0,3.0,98.0,147.0,196.0,245.0,294.0,49.0,yellow,triangle
0.0,7.0,3.0,1.0,7.0,6.0,1731.2943169963546,2.0,1.0,phase_3,,,,,220.0,5.0,132.0,44.0,264.0,176.0,88.0,220.0,magenta,diamond
0.0,6.0,2.0,1.0,7.0,5.0,2144.3947210209444,2.0,1.0,phase_3,,,,,136.0,4.0,204.0,102.0,34.0,170.0,136.0,68.0,green,flipped triangle
0.0,5.0,1.0,1.0,7.0,2.0,2119.5911269751377,2.0,1.0,phase_3,,,,,162.0,3.0,216.0,162.0,270.0,324.0,108.0,54.0,yellow,triangle
0.0,6.0,2.0,1.0,7.0,1.0,3217.767194029875,2.0,1.0,phase_3,,,,,117.0,3.0,117.0,234.0,195.0,156.0,39.0,78.0,green,flipped triangle
0.0,4.0,4.0,0.0,7.0,4.0,2368.1813959847204,2.0,1.0,phase_3,,,,,170.0,5.0,68.0,204.0,34.0,170.0,102.0,136.0,white,I
0.0,8.0,4.0,1.0,7.0,6.0,1626.4284829958342,2.0,1.0,phase_3,,,,,264.0,6.0,220.0,132.0,44.0,88.0,176.0,264.0,orange,square
0.0,2.0,2.0,0.0,7.0,3.0,2691.285031964071,2.0,1.0,phase_3,,,,,156.0,4.0,39.0,234.0,156.0,78.0,195.0,117.0,gray,hexagon
0.0,6.0,2.0,1.0,7.0,3.0,2366.5281249559484,3.0,1.0,phase_3,,,,,78.0,2.0,195.0,117.0,78.0,234.0,156.0,39.0,green,flipped triangle
0.0,2.0,2.0,0.0,7.0,3.0,3374.252269975841,3.0,1.0,phase_3,,,,,162.0,3.0,54.0,216.0,162.0,324.0,108.0,270.0,gray,hexagon
0.0,5.0,1.0,1.0,7.0,2.0,2521.4650699635968,3.0,1.0,phase_3,,,,,102.0,3.0,34.0,102.0,170.0,136.0,204.0,68.0,yellow,triangle
0.0,8.0,4.0,1.0,7.0,5.0,2004.9999539623968,3.0,1.0,phase_3,,,,,234.0,6.0,39.0,117.0,78.0,195.0,234.0,156.0,orange,square
0.0,4.0,4.0,0.0,7.0,1.0,2284.6184439840727,3.0,1.0,phase_3,,,,,245.0,5.0,245.0,147.0,196.0,294.0,49.0,98.0,white,I
0.0,6.0,2.0,1.0,7.0,1.0,3094.08412699122,3.0,1.0,phase_3,,,,,68.0,2.0,68.0,170.0,136.0,34.0,204.0,102.0,green,flipped triangle
0.0,8.0,4.0,1.0,7.0,6.0,1933.399721980095,3.0,1.0,phase_3,,,,,264.0,6.0,176.0,220.0,88.0,132.0,44.0,264.0,orange,square
0.0,7.0,3.0,1.0,7.0,6.0,3185.570400033612,3.0,1.0,phase_3,,,,,196.0,4.0,147.0,49.0,294.0,245.0,98.0,196.0,magenta,diamond
0.0,4.0,4.0,0.0,7.0,5.0,3027.883640024811,3.0,1.0,phase_3,,,,,156.0,4.0,195.0,39.0,117.0,234.0,156.0,78.0,white,I
0.0,7.0,3.0,1.0,7.0,1.0,3210.3690660442226,3.0,1.0,phase_3,,,,,176.0,4.0,176.0,88.0,132.0,44.0,220.0,264.0,magenta,diamond
0.0,5.0,1.0,1.0,7.0,4.0,3990.289587993175,3.0,1.0,phase_3,,,,,170.0,5.0,34.0,204.0,102.0,170.0,68.0,136.0,yellow,triangle
0.0,1.0,1.0,0.0,7.0,1.0,4244.710200990085,3.0,1.0,phase_3,,,,,132.0,3.0,132.0,220.0,44.0,176.0,264.0,88.0,cyan,cross
0.0,7.0,3.0,1.0,7.0,3.0,2841.8689189711586,3.0,1.0,phase_3,,,,,216.0,4.0,108.0,324.0,216.0,162.0,270.0,54.0,magenta,diamond
0.0,1.0,1.0,0.0,7.0,1.0,3785.3352170204735,3.0,1.0,phase_3,,,,,216.0,4.0,216.0,270.0,162.0,108.0,324.0,54.0,cyan,cross
0.0,5.0,1.0,1.0,7.0,4.0,3010.982838983182,3.0,1.0,phase_3,,,,,78.0,2.0,234.0,156.0,39.0,78.0,195.0,117.0,yellow,triangle
0.0,6.0,2.0,1.0,7.0,3.0,3043.853784969542,3.0,1.0,phase_3,,,,,54.0,1.0,162.0,108.0,54.0,324.0,216.0,270.0,green,flipped triangle
0.0,8.0,4.0,1.0,7.0,2.0,3456.592124013696,3.0,1.0,phase_3,,,,,234.0,6.0,117.0,234.0,156.0,195.0,78.0,39.0,orange,square
0.0,2.0,2.0,0.0,7.0,1.0,3206.114389002323,3.0,1.0,phase_3,,,,,170.0,5.0,170.0,34.0,204.0,102.0,136.0,68.0,gray,hexagon
0.0,1.0,1.0,0.0,7.0,2.0,3074.005941976793,3.0,1.0,phase_3,,,,,147.0,3.0,98.0,147.0,294.0,245.0,49.0,196.0,cyan,cross
0.0,1.0,1.0,0.0,7.0,6.0,2145.0849060202017,3.0,1.0,phase_3,,,,,117.0,3.0,39.0,156.0,234.0,195.0,78.0,117.0,cyan,cross
0.0,2.0,2.0,0.0,7.0,6.0,2108.6091660545208,4.0,1.0,phase_3,,,,,147.0,3.0,49.0,294.0,196.0,98.0,245.0,147.0,gray,hexagon
0.0,7.0,3.0,1.0,7.0,1.0,3787.1908870292823,4.0,1.0,phase_3,,,,,170.0,5.0,170.0,34.0,68.0,204.0,136.0,102.0,magenta,diamond
0.0,1.0,1.0,0.0,7.0,5.0,2286.4432739443146,4.0,1.0,phase_3,,,,,136.0,4.0,204.0,68.0,170.0,102.0,136.0,34.0,cyan,cross
0.0,6.0,2.0,1.0,7.0,2.0,3503.43702203827,4.0,1.0,phase_3,,,,,88.0,2.0,264.0,88.0,132.0,176.0,220.0,44.0,green,flipped triangle
0.0,2.0,2.0,0.0,7.0,4.0,3193.459474015981,4.0,1.0,phase_3,,,,,162.0,3.0,108.0,324.0,54.0,162.0,216.0,270.0,gray,hexagon
0.0,2.0,2.0,0.0,7.0,3.0,1187.7447399892844,4.0,1.0,phase_3,,,,,176.0,4.0,88.0,44.0,176.0,220.0,132.0,264.0,gray,hexagon
0.0,2.0,2.0,0.0,7.0,1.0,3217.4140500137582,4.0,1.0,phase_3,,,,,176.0,4.0,176.0,132.0,88.0,44.0,264.0,220.0,gray,hexagon
0.0,2.0,2.0,0.0,7.0,3.0,2871.225315029733,4.0,1.0,phase_3,,,,,102.0,3.0,68.0,34.0,102.0,170.0,204.0,136.0,gray,hexagon
0.0,1.0,1.0,0.0,7.0,4.0,3156.4736199798062,4.0,1.0,phase_3,,,,,196.0,4.0,294.0,147.0,245.0,196.0,98.0,49.0,cyan,cross
0.0,3.0,3.0,0.0,7.0,2.0,2790.427486004773,4.0,1.0,phase_3,,,,,108.0,2.0,324.0,108.0,54.0,162.0,216.0,270.0,blue,circle
0.0,8.0,4.0,1.0,7.0,1.0,2569.459146005101,4.0,1.0,phase_3,,,,,204.0,6.0,204.0,34.0,136.0,68.0,170.0,102.0,orange,square
0.0,7.0,3.0,1.0,7.0,6.0,2168.479959014803,4.0,1.0,phase_3,,,,,216.0,4.0,162.0,324.0,108.0,270.0,54.0,216.0,magenta,diamond
0.0,4.0,4.0,0.0,7.0,3.0,3115.5523019842803,4.0,1.0,phase_3,,,,,270.0,5.0,162.0,216.0,270.0,324.0,108.0,54.0,white,I
0.0,8.0,4.0,1.0,7.0,2.0,3228.921703994274,4.0,1.0,phase_3,,,,,270.0,5.0,216.0,270.0,54.0,324.0,108.0,162.0,orange,square
0.0,8.0,4.0,1.0,7.0,5.0,2359.687569027301,4.0,1.0,phase_3,,,,,245.0,5.0,98.0,49.0,196.0,294.0,245.0,147.0,orange,square
0.0,3.0,3.0,0.0,7.0,2.0,3942.678914987482,4.0,1.0,phase_3,,,,,78.0,2.0,234.0,78.0,117.0,39.0,156.0,195.0,blue,circle
0.0,4.0,4.0,0.0,7.0,5.0,1897.6480300189,4.0,1.0,phase_3,,,,,176.0,4.0,132.0,264.0,88.0,44.0,176.0,220.0,white,I
0.0,3.0,3.0,0.0,7.0,2.0,1592.5619889749214,4.0,1.0,phase_3,,,,,88.0,2.0,220.0,88.0,264.0,176.0,44.0,132.0,blue,circle
0.0,1.0,1.0,0.0,7.0,4.0,1917.8525820025245,4.0,1.0,phase_3,,,,,162.0,3.0,324.0,270.0,216.0,162.0,54.0,108.0,cyan,cross
0.0,8.0,4.0,1.0,7.0,2.0,2900.718708988279,4.0,1.0,phase_3,,,,,196.0,4.0,98.0,196.0,49.0,294.0,245.0,147.0,orange,square
