raw_reward_magnitude,stim_reward,stepwise_reward_magnitude,paired_with_stopping,stim_location,response,reaction_time,block,num_trial_presentations,which_phase,stop_signal_trial_type,left_SSD,right_SSD,accuracy,chosen_bidding_amount,chosen_bidding_level,possible_bid_1,possible_bid_2,possible_bid_3,possible_bid_4,possible_bid_5,possible_bid_6,color_text,shape_text
105.0,6.0,2.0,1.0,4.0,4.0,456.2206380069256,1.0,1.0,phase_1,,,,,,,,,,,,,green,diamond
0.0,2.0,0.0,0.0,2.0,2.0,530.1984879770316,1.0,1.0,phase_1,,,,,,,,,,,,,blue,cross
377.0,4.0,4.0,0.0,2.0,2.0,535.7411110308021,1.0,1.0,phase_1,,,,,,,,,,,,,cyan,triangle
398.0,8.0,4.0,1.0,1.0,1.0,454.237887985073,1.0,1.0,phase_1,,,,,,,,,,,,,white,I
42.0,5.0,1.0,1.0,4.0,4.0,431.123778980691,1.0,1.0,phase_1,,,,,,,,,,,,,orange,square
0.0,1.0,0.0,0.0,3.0,3.0,464.8413749528117,1.0,1.0,phase_1,,,,,,,,,,,,,gray,hexagon
105.0,2.0,2.0,0.0,2.0,2.0,315.9234140184708,1.0,1.0,phase_1,,,,,,,,,,,,,blue,cross
225.0,3.0,3.0,0.0,1.0,1.0,335.1461500278674,1.0,1.0,phase_1,,,,,,,,,,,,,yellow,flipped triangle
110.0,6.0,2.0,1.0,2.0,2.0,436.249487043824,1.0,1.0,phase_1,,,,,,,,,,,,,green,diamond
176.0,7.0,3.0,1.0,3.0,3.0,451.6074970015324,1.0,2.0,phase_1,,,,,,,,,,,,,magenta,circle
0.0,5.0,0.0,1.0,3.0,3.0,376.5963739715516,1.0,1.0,phase_1,,,,,,,,,,,,,orange,square
0.0,7.0,0.0,1.0,1.0,1.0,296.6799259884283,1.0,1.0,phase_1,,,,,,,,,,,,,magenta,circle
181.0,3.0,3.0,0.0,4.0,4.0,290.1334859780036,1.0,1.0,phase_1,,,,,,,,,,,,,yellow,flipped triangle
0.0,1.0,0.0,0.0,1.0,1.0,430.3530969773419,1.0,1.0,phase_1,,,,,,,,,,,,,gray,hexagon
383.0,4.0,4.0,0.0,2.0,2.0,453.8010410033166,1.0,1.0,phase_1,,,,,,,,,,,,,cyan,triangle
405.0,4.0,4.0,0.0,1.0,1.0,523.1218539993279,1.0,1.0,phase_1,,,,,,,,,,,,,cyan,triangle
391.0,8.0,4.0,1.0,4.0,4.0,400.5622430122457,1.0,1.0,phase_1,,,,,,,,,,,,,white,I
218.0,7.0,3.0,1.0,1.0,1.0,404.8318020068109,1.0,1.0,phase_1,,,,,,,,,,,,,magenta,circle
0.0,3.0,0.0,0.0,3.0,3.0,457.0029019960202,1.0,1.0,phase_1,,,,,,,,,,,,,yellow,flipped triangle
214.0,3.0,3.0,0.0,3.0,3.0,436.6246259887703,1.0,1.0,phase_1,,,,,,,,,,,,,yellow,flipped triangle
70.0,5.0,1.0,1.0,3.0,3.0,474.3899910245091,1.0,1.0,phase_1,,,,,,,,,,,,,orange,square
401.0,8.0,4.0,1.0,3.0,3.0,524.8370839981362,1.0,1.0,phase_1,,,,,,,,,,,,,white,I
204.0,3.0,3.0,0.0,1.0,1.0,402.5619109743275,1.0,1.0,phase_1,,,,,,,,,,,,,yellow,flipped triangle
191.0,3.0,3.0,0.0,3.0,3.0,367.2561779967509,1.0,1.0,phase_1,,,,,,,,,,,,,yellow,flipped triangle
206.0,3.0,3.0,0.0,4.0,4.0,380.1274449797347,1.0,1.0,phase_1,,,,,,,,,,,,,yellow,flipped triangle
48.0,5.0,1.0,1.0,1.0,1.0,361.118532018736,1.0,1.0,phase_1,,,,,,,,,,,,,orange,square
197.0,3.0,3.0,0.0,1.0,1.0,420.9159519523382,1.0,1.0,phase_1,,,,,,,,,,,,,yellow,flipped triangle
0.0,7.0,0.0,1.0,2.0,2.0,543.7097750254907,1.0,1.0,phase_1,,,,,,,,,,,,,magenta,circle
83.0,2.0,2.0,0.0,2.0,2.0,486.6305569885298,1.0,1.0,phase_1,,,,,,,,,,,,,blue,cross
0.0,3.0,0.0,0.0,3.0,3.0,404.6958010294474,1.0,1.0,phase_1,,,,,,,,,,,,,yellow,flipped triangle
70.0,1.0,1.0,0.0,3.0,3.0,558.6225829902105,1.0,1.0,phase_1,,,,,,,,,,,,,gray,hexagon
0.0,5.0,0.0,1.0,4.0,4.0,546.7771740513854,1.0,1.0,phase_1,,,,,,,,,,,,,orange,square
202.0,3.0,3.0,0.0,2.0,2.0,480.0725629902445,1.0,1.0,phase_1,,,,,,,,,,,,,yellow,flipped triangle
194.0,7.0,3.0,1.0,1.0,1.0,431.2944510020315,1.0,1.0,phase_1,,,,,,,,,,,,,magenta,circle
94.0,6.0,2.0,1.0,3.0,3.0,409.5243780175224,1.0,1.0,phase_1,,,,,,,,,,,,,green,diamond
125.0,6.0,2.0,1.0,3.0,3.0,600.4186709760688,1.0,1.0,phase_1,,,,,,,,,,,,,green,diamond
84.0,6.0,2.0,1.0,1.0,1.0,433.6555089685134,1.0,1.0,phase_1,,,,,,,,,,,,,green,diamond
0.0,7.0,0.0,1.0,4.0,4.0,432.709768996574,1.0,1.0,phase_1,,,,,,,,,,,,,magenta,circle
57.0,5.0,1.0,1.0,4.0,4.0,461.6734139854088,1.0,1.0,phase_1,,,,,,,,,,,,,orange,square
0.0,4.0,0.0,0.0,2.0,2.0,435.4562030057423,1.0,1.0,phase_1,,,,,,,,,,,,,cyan,triangle
76.0,6.0,2.0,1.0,3.0,3.0,382.83782603684807,1.0,1.0,phase_1,,,,,,,,,,,,,green,diamond
0.0,4.0,0.0,0.0,2.0,2.0,395.0646229786798,1.0,1.0,phase_1,,,,,,,,,,,,,cyan,triangle
102.0,2.0,2.0,0.0,1.0,1.0,366.2351469974965,1.0,1.0,phase_1,,,,,,,,,,,,,blue,cross
382.0,8.0,4.0,1.0,1.0,1.0,437.9887680406682,1.0,1.0,phase_1,,,,,,,,,,,,,white,I
0.0,5.0,0.0,1.0,3.0,3.0,465.3428869787603,1.0,1.0,phase_1,,,,,,,,,,,,,orange,square
422.0,8.0,4.0,1.0,1.0,1.0,356.9686129922047,1.0,1.0,phase_1,,,,,,,,,,,,,white,I
42.0,1.0,1.0,0.0,4.0,4.0,453.0422399984672,1.0,1.0,phase_1,,,,,,,,,,,,,gray,hexagon
176.0,7.0,3.0,1.0,4.0,4.0,427.042236959096,1.0,2.0,phase_1,,,,,,,,,,,,,magenta,circle
203.0,7.0,3.0,1.0,1.0,1.0,599.6841099695303,1.0,1.0,phase_1,,,,,,,,,,,,,magenta,circle
423.0,8.0,4.0,1.0,3.0,3.0,438.9882240211591,1.0,1.0,phase_1,,,,,,,,,,,,,white,I
419.0,8.0,4.0,1.0,2.0,2.0,503.7860960001126,1.0,1.0,phase_1,,,,,,,,,,,,,white,I
0.0,2.0,0.0,0.0,1.0,1.0,517.6766540389508,1.0,1.0,phase_1,,,,,,,,,,,,,blue,cross
0.0,1.0,0.0,0.0,4.0,4.0,404.5331029919907,1.0,1.0,phase_1,,,,,,,,,,,,,gray,hexagon
405.0,8.0,4.0,1.0,3.0,3.0,378.5066640120931,1.0,1.0,phase_1,,,,,,,,,,,,,white,I
31.0,5.0,1.0,1.0,2.0,2.0,413.7846209923737,1.0,1.0,phase_1,,,,,,,,,,,,,orange,square
176.0,3.0,3.0,0.0,4.0,4.0,425.8833170169964,1.0,1.0,phase_1,,,,,,,,,,,,,yellow,flipped triangle
114.0,2.0,2.0,0.0,4.0,4.0,501.4522430137731,1.0,1.0,phase_1,,,,,,,,,,,,,blue,cross
122.0,2.0,2.0,0.0,1.0,1.0,419.9584100279026,1.0,1.0,phase_1,,,,,,,,,,,,,blue,cross
48.0,1.0,1.0,0.0,2.0,2.0,472.8471669950522,1.0,1.0,phase_1,,,,,,,,,,,,,gray,hexagon
0.0,6.0,0.0,1.0,3.0,3.0,469.5435769972391,1.0,1.0,phase_1,,,,,,,,,,,,,green,diamond
0.0,4.0,0.0,0.0,1.0,1.0,496.0056510171853,1.0,1.0,phase_1,,,,,,,,,,,,,cyan,triangle
217.0,7.0,3.0,1.0,3.0,3.0,531.6724050207995,1.0,1.0,phase_1,,,,,,,,,,,,,magenta,circle
0.0,7.0,0.0,1.0,3.0,3.0,400.6407629931345,1.0,1.0,phase_1,,,,,,,,,,,,,magenta,circle
0.0,2.0,0.0,0.0,1.0,1.0,462.6266449922696,1.0,1.0,phase_1,,,,,,,,,,,,,blue,cross
388.0,4.0,4.0,0.0,4.0,4.0,477.204606984742,1.0,1.0,phase_1,,,,,,,,,,,,,cyan,triangle
60.0,5.0,1.0,1.0,3.0,3.0,425.9086440433748,1.0,1.0,phase_1,,,,,,,,,,,,,orange,square
386.0,4.0,4.0,0.0,3.0,3.0,436.9336249656044,1.0,1.0,phase_1,,,,,,,,,,,,,cyan,triangle
55.0,5.0,1.0,1.0,4.0,4.0,403.0017430195585,1.0,1.0,phase_1,,,,,,,,,,,,,orange,square
407.0,4.0,4.0,0.0,2.0,2.0,496.4464259683154,1.0,1.0,phase_1,,,,,,,,,,,,,cyan,triangle
110.0,6.0,2.0,1.0,3.0,3.0,389.1973430290818,1.0,1.0,phase_1,,,,,,,,,,,,,green,diamond
59.0,5.0,1.0,1.0,1.0,1.0,469.8659480200149,1.0,1.0,phase_1,,,,,,,,,,,,,orange,square
0.0,6.0,0.0,1.0,4.0,4.0,324.9550810432993,1.0,1.0,phase_1,,,,,,,,,,,,,green,diamond
85.0,6.0,2.0,1.0,1.0,1.0,439.2499979585409,1.0,1.0,phase_1,,,,,,,,,,,,,green,diamond
208.0,7.0,3.0,1.0,2.0,2.0,364.0916079748422,1.0,1.0,phase_1,,,,,,,,,,,,,magenta,circle
216.0,7.0,3.0,1.0,1.0,1.0,467.7100590197369,1.0,1.0,phase_1,,,,,,,,,,,,,magenta,circle
205.0,7.0,3.0,1.0,3.0,3.0,320.0872089946642,1.0,1.0,phase_1,,,,,,,,,,,,,magenta,circle
376.0,4.0,4.0,0.0,4.0,4.0,340.057439985685,1.0,1.0,phase_1,,,,,,,,,,,,,cyan,triangle
222.0,3.0,3.0,0.0,1.0,1.0,343.6880779918283,1.0,1.0,phase_1,,,,,,,,,,,,,yellow,flipped triangle
76.0,2.0,2.0,0.0,4.0,4.0,396.3658889988437,1.0,1.0,phase_1,,,,,,,,,,,,,blue,cross
209.0,3.0,3.0,0.0,4.0,4.0,458.7073280126787,1.0,1.0,phase_1,,,,,,,,,,,,,yellow,flipped triangle
69.0,1.0,1.0,0.0,2.0,2.0,463.7078099767677,1.0,1.0,phase_1,,,,,,,,,,,,,gray,hexagon
61.0,1.0,1.0,0.0,3.0,3.0,372.3639109521173,1.0,1.0,phase_1,,,,,,,,,,,,,gray,hexagon
0.0,5.0,0.0,1.0,4.0,4.0,398.9725610008463,1.0,1.0,phase_1,,,,,,,,,,,,,orange,square
123.0,6.0,2.0,1.0,4.0,4.0,413.1058449856937,1.0,1.0,phase_1,,,,,,,,,,,,,green,diamond
29.0,5.0,1.0,1.0,2.0,2.0,400.5301169818267,1.0,1.0,phase_1,,,,,,,,,,,,,orange,square
208.0,7.0,3.0,1.0,4.0,4.0,396.5128249838017,1.0,1.0,phase_1,,,,,,,,,,,,,magenta,circle
79.0,6.0,2.0,1.0,1.0,1.0,428.80117299500847,1.0,1.0,phase_1,,,,,,,,,,,,,green,diamond
0.0,4.0,0.0,0.0,4.0,4.0,457.3710160329938,1.0,1.0,phase_1,,,,,,,,,,,,,cyan,triangle
74.0,1.0,1.0,0.0,4.0,4.0,386.5501320105977,1.0,1.0,phase_1,,,,,,,,,,,,,gray,hexagon
102.0,2.0,2.0,0.0,3.0,3.0,577.2402490256354,1.0,1.0,phase_1,,,,,,,,,,,,,blue,cross
212.0,3.0,3.0,0.0,3.0,3.0,404.3040630058385,1.0,1.0,phase_1,,,,,,,,,,,,,yellow,flipped triangle
115.0,6.0,2.0,1.0,1.0,1.0,410.6904029613361,1.0,1.0,phase_1,,,,,,,,,,,,,green,diamond
0.0,3.0,0.0,0.0,3.0,3.0,432.5602360186167,1.0,1.0,phase_1,,,,,,,,,,,,,yellow,flipped triangle
218.0,3.0,3.0,0.0,4.0,4.0,642.2016569995321,1.0,1.0,phase_1,,,,,,,,,,,,,yellow,flipped triangle
216.0,3.0,3.0,0.0,3.0,3.0,441.6391560225747,1.0,1.0,phase_1,,,,,,,,,,,,,yellow,flipped triangle
385.0,8.0,4.0,1.0,1.0,1.0,395.7806599792093,1.0,1.0,phase_1,,,,,,,,,,,,,white,I
205.0,3.0,3.0,0.0,4.0,4.0,459.8887640167959,1.0,1.0,phase_1,,,,,,,,,,,,,yellow,flipped triangle
220.0,7.0,3.0,1.0,1.0,1.0,412.6628059893846,1.0,1.0,phase_1,,,,,,,,,,,,,magenta,circle
95.0,6.0,2.0,1.0,1.0,1.0,620.931706042029,1.0,1.0,phase_1,,,,,,,,,,,,,green,diamond
102.0,2.0,2.0,0.0,4.0,4.0,393.3066370082088,1.0,1.0,phase_1,,,,,,,,,,,,,blue,cross
393.0,4.0,4.0,0.0,2.0,2.0,459.0235489886254,2.0,1.0,phase_1,,,,,,,,,,,,,cyan,triangle
29.0,5.0,1.0,1.0,2.0,2.0,431.2713389517739,2.0,1.0,phase_1,,,,,,,,,,,,,orange,square
75.0,2.0,2.0,0.0,4.0,4.0,538.8719949987717,2.0,1.0,phase_1,,,,,,,,,,,,,blue,cross
107.0,6.0,2.0,1.0,2.0,2.0,472.3962059943005,2.0,1.0,phase_1,,,,,,,,,,,,,green,diamond
204.0,7.0,3.0,1.0,3.0,3.0,484.7375130048021,2.0,1.0,phase_1,,,,,,,,,,,,,magenta,circle
42.0,5.0,1.0,1.0,3.0,3.0,458.2141310092993,2.0,1.0,phase_1,,,,,,,,,,,,,orange,square
84.0,2.0,2.0,0.0,2.0,2.0,444.5924019673839,2.0,1.0,phase_1,,,,,,,,,,,,,blue,cross
69.0,5.0,1.0,1.0,1.0,1.0,496.8225419870578,2.0,1.0,phase_1,,,,,,,,,,,,,orange,square
63.0,5.0,1.0,1.0,2.0,2.0,389.2404799698852,2.0,1.0,phase_1,,,,,,,,,,,,,orange,square
376.0,4.0,4.0,0.0,2.0,2.0,370.8018510369584,2.0,1.0,phase_1,,,,,,,,,,,,,cyan,triangle
414.0,8.0,4.0,1.0,1.0,1.0,479.2956819874234,2.0,1.0,phase_1,,,,,,,,,,,,,white,I
398.0,8.0,4.0,1.0,3.0,3.0,397.144410002511,2.0,1.0,phase_1,,,,,,,,,,,,,white,I
38.0,5.0,1.0,1.0,3.0,3.0,380.2083950140513,2.0,1.0,phase_1,,,,,,,,,,,,,orange,square
423.0,4.0,4.0,0.0,4.0,4.0,301.4354680199176,2.0,1.0,phase_1,,,,,,,,,,,,,cyan,triangle
424.0,8.0,4.0,1.0,2.0,2.0,410.4053840273991,2.0,1.0,phase_1,,,,,,,,,,,,,white,I
188.0,7.0,3.0,1.0,4.0,4.0,397.9156370041892,2.0,2.0,phase_1,,,,,,,,,,,,,magenta,circle
401.0,8.0,4.0,1.0,4.0,4.0,801.3789250398986,2.0,1.0,phase_1,,,,,,,,,,,,,white,I
86.0,6.0,2.0,1.0,2.0,2.0,436.3968389807269,2.0,1.0,phase_1,,,,,,,,,,,,,green,diamond
376.0,8.0,4.0,1.0,2.0,2.0,578.7494339747354,2.0,1.0,phase_1,,,,,,,,,,,,,white,I
208.0,3.0,3.0,0.0,1.0,1.0,575.4194410401396,2.0,1.0,phase_1,,,,,,,,,,,,,yellow,flipped triangle
102.0,6.0,2.0,1.0,1.0,1.0,546.1707130307332,2.0,1.0,phase_1,,,,,,,,,,,,,green,diamond
0.0,4.0,0.0,0.0,4.0,4.0,585.0182180292904,2.0,1.0,phase_1,,,,,,,,,,,,,cyan,triangle
0.0,3.0,0.0,0.0,1.0,1.0,507.4817360145971,2.0,1.0,phase_1,,,,,,,,,,,,,yellow,flipped triangle
38.0,1.0,1.0,0.0,4.0,4.0,497.6665959693491,2.0,1.0,phase_1,,,,,,,,,,,,,gray,hexagon
382.0,8.0,4.0,1.0,3.0,3.0,804.8629449913278,2.0,1.0,phase_1,,,,,,,,,,,,,white,I
0.0,2.0,0.0,0.0,2.0,2.0,409.3783329590224,2.0,1.0,phase_1,,,,,,,,,,,,,blue,cross
209.0,7.0,3.0,1.0,4.0,4.0,391.5809649624862,2.0,1.0,phase_1,,,,,,,,,,,,,magenta,circle
0.0,3.0,0.0,0.0,2.0,2.0,428.8532789796591,2.0,1.0,phase_1,,,,,,,,,,,,,yellow,flipped triangle
220.0,3.0,3.0,0.0,4.0,4.0,379.7733559622429,2.0,1.0,phase_1,,,,,,,,,,,,,yellow,flipped triangle
220.0,7.0,3.0,1.0,1.0,1.0,574.4150059763342,2.0,1.0,phase_1,,,,,,,,,,,,,magenta,circle
186.0,3.0,3.0,0.0,2.0,2.0,529.7862939769402,2.0,1.0,phase_1,,,,,,,,,,,,,yellow,flipped triangle
0.0,2.0,0.0,0.0,1.0,1.0,520.5279689980671,2.0,1.0,phase_1,,,,,,,,,,,,,blue,cross
190.0,3.0,3.0,0.0,2.0,2.0,395.3806709614582,2.0,1.0,phase_1,,,,,,,,,,,,,yellow,flipped triangle
0.0,2.0,0.0,0.0,3.0,3.0,559.061345004011,2.0,1.0,phase_1,,,,,,,,,,,,,blue,cross
33.0,5.0,1.0,1.0,4.0,4.0,375.5269260145724,2.0,1.0,phase_1,,,,,,,,,,,,,orange,square
178.0,3.0,3.0,0.0,4.0,4.0,420.798861014191,2.0,1.0,phase_1,,,,,,,,,,,,,yellow,flipped triangle
44.0,1.0,1.0,0.0,1.0,1.0,368.5817340156063,2.0,1.0,phase_1,,,,,,,,,,,,,gray,hexagon
0.0,4.0,0.0,0.0,3.0,3.0,347.6591250509955,2.0,1.0,phase_1,,,,,,,,,,,,,cyan,triangle
376.0,8.0,4.0,1.0,3.0,3.0,458.6766670108773,2.0,1.0,phase_1,,,,,,,,,,,,,white,I
402.0,4.0,4.0,0.0,3.0,3.0,405.7216789806261,2.0,1.0,phase_1,,,,,,,,,,,,,cyan,triangle
212.0,7.0,3.0,1.0,2.0,2.0,367.4903669743798,2.0,1.0,phase_1,,,,,,,,,,,,,magenta,circle
58.0,5.0,1.0,1.0,3.0,3.0,517.6075699855573,2.0,1.0,phase_1,,,,,,,,,,,,,orange,square
27.0,5.0,1.0,1.0,4.0,4.0,364.2708649858832,2.0,1.0,phase_1,,,,,,,,,,,,,orange,square
0.0,6.0,0.0,1.0,4.0,4.0,390.145689016208,2.0,1.0,phase_1,,,,,,,,,,,,,green,diamond
122.0,2.0,2.0,0.0,1.0,1.0,430.7575469720177,2.0,1.0,phase_1,,,,,,,,,,,,,blue,cross
382.0,8.0,4.0,1.0,2.0,2.0,343.5880260076374,2.0,1.0,phase_1,,,,,,,,,,,,,white,I
401.0,4.0,4.0,0.0,3.0,3.0,359.2989440076053,2.0,1.0,phase_1,,,,,,,,,,,,,cyan,triangle
93.0,6.0,2.0,1.0,4.0,4.0,290.7151370309293,2.0,1.0,phase_1,,,,,,,,,,,,,green,diamond
72.0,5.0,1.0,1.0,4.0,4.0,345.5946019967086,2.0,1.0,phase_1,,,,,,,,,,,,,orange,square
0.0,6.0,0.0,1.0,3.0,3.0,474.7018159832805,2.0,1.0,phase_1,,,,,,,,,,,,,green,diamond
202.0,7.0,3.0,1.0,1.0,1.0,448.7712709815241,2.0,1.0,phase_1,,,,,,,,,,,,,magenta,circle
389.0,4.0,4.0,0.0,4.0,4.0,397.3894229857251,2.0,1.0,phase_1,,,,,,,,,,,,,cyan,triangle
414.0,4.0,4.0,0.0,2.0,2.0,347.3583820159547,2.0,1.0,phase_1,,,,,,,,,,,,,cyan,triangle
0.0,6.0,0.0,1.0,1.0,1.0,478.584291995503,2.0,1.0,phase_1,,,,,,,,,,,,,green,diamond
0.0,2.0,0.0,0.0,4.0,4.0,362.3736180015839,2.0,1.0,phase_1,,,,,,,,,,,,,blue,cross
188.0,7.0,3.0,1.0,2.0,2.0,425.1687980140559,2.0,1.0,phase_1,,,,,,,,,,,,,magenta,circle
0.0,5.0,0.0,1.0,3.0,3.0,515.7587070134468,2.0,1.0,phase_1,,,,,,,,,,,,,orange,square
122.0,6.0,2.0,1.0,4.0,4.0,467.5440299906768,2.0,1.0,phase_1,,,,,,,,,,,,,green,diamond
220.0,3.0,3.0,0.0,2.0,2.0,343.5388790094293,2.0,1.0,phase_1,,,,,,,,,,,,,yellow,flipped triangle
393.0,8.0,4.0,1.0,3.0,3.0,473.2180589926429,2.0,1.0,phase_1,,,,,,,,,,,,,white,I
50.0,5.0,1.0,1.0,3.0,3.0,439.5059230155311,2.0,1.0,phase_1,,,,,,,,,,,,,orange,square
416.0,4.0,4.0,0.0,3.0,3.0,382.338025025092,2.0,1.0,phase_1,,,,,,,,,,,,,cyan,triangle
192.0,3.0,3.0,0.0,2.0,2.0,384.1866930015385,2.0,1.0,phase_1,,,,,,,,,,,,,yellow,flipped triangle
0.0,3.0,0.0,0.0,3.0,3.0,398.49986997433,2.0,1.0,phase_1,,,,,,,,,,,,,yellow,flipped triangle
89.0,6.0,2.0,1.0,4.0,4.0,482.4896450154483,2.0,1.0,phase_1,,,,,,,,,,,,,green,diamond
0.0,6.0,0.0,1.0,1.0,1.0,327.7202559984289,2.0,1.0,phase_1,,,,,,,,,,,,,green,diamond
399.0,4.0,4.0,0.0,1.0,1.0,425.0536619802005,2.0,2.0,phase_1,,,,,,,,,,,,,cyan,triangle
96.0,2.0,2.0,0.0,1.0,1.0,452.333968016319,2.0,1.0,phase_1,,,,,,,,,,,,,blue,cross
0.0,7.0,0.0,1.0,1.0,1.0,432.507439982146,2.0,1.0,phase_1,,,,,,,,,,,,,magenta,circle
29.0,1.0,1.0,0.0,1.0,1.0,461.3326709950343,2.0,1.0,phase_1,,,,,,,,,,,,,gray,hexagon
186.0,7.0,3.0,1.0,2.0,2.0,451.8156799604185,2.0,1.0,phase_1,,,,,,,,,,,,,magenta,circle
34.0,1.0,1.0,0.0,1.0,1.0,477.9372860211879,2.0,1.0,phase_1,,,,,,,,,,,,,gray,hexagon
95.0,2.0,2.0,0.0,1.0,1.0,428.9941610186361,2.0,1.0,phase_1,,,,,,,,,,,,,blue,cross
44.0,1.0,1.0,0.0,1.0,1.0,355.1679429947398,2.0,1.0,phase_1,,,,,,,,,,,,,gray,hexagon
75.0,6.0,2.0,1.0,3.0,3.0,400.2145219710655,2.0,1.0,phase_1,,,,,,,,,,,,,green,diamond
402.0,8.0,4.0,1.0,4.0,4.0,418.9641220145859,2.0,1.0,phase_1,,,,,,,,,,,,,white,I
93.0,2.0,2.0,0.0,3.0,3.0,487.1143019990995,2.0,1.0,phase_1,,,,,,,,,,,,,blue,cross
0.0,8.0,0.0,1.0,1.0,1.0,314.33285598177457,2.0,1.0,phase_1,,,,,,,,,,,,,white,I
120.0,6.0,2.0,1.0,2.0,2.0,366.8973890016787,2.0,1.0,phase_1,,,,,,,,,,,,,green,diamond
53.0,1.0,1.0,0.0,4.0,4.0,422.0588310272433,2.0,1.0,phase_1,,,,,,,,,,,,,gray,hexagon
404.0,4.0,4.0,0.0,1.0,1.0,352.5839460198767,2.0,1.0,phase_1,,,,,,,,,,,,,cyan,triangle
113.0,2.0,2.0,0.0,2.0,2.0,583.8626869954169,2.0,1.0,phase_1,,,,,,,,,,,,,blue,cross
66.0,1.0,1.0,0.0,1.0,1.0,381.5600289963186,2.0,1.0,phase_1,,,,,,,,,,,,,gray,hexagon
0.0,8.0,0.0,1.0,2.0,2.0,344.6156799909659,2.0,1.0,phase_1,,,,,,,,,,,,,white,I
203.0,3.0,3.0,0.0,3.0,3.0,491.0837670322507,2.0,1.0,phase_1,,,,,,,,,,,,,yellow,flipped triangle
388.0,8.0,4.0,1.0,4.0,4.0,514.5971520105377,2.0,1.0,phase_1,,,,,,,,,,,,,white,I
0.0,7.0,0.0,1.0,1.0,1.0,319.2937669809907,2.0,1.0,phase_1,,,,,,,,,,,,,magenta,circle
389.0,8.0,4.0,1.0,2.0,2.0,409.3021000153385,2.0,1.0,phase_1,,,,,,,,,,,,,white,I
84.0,6.0,2.0,1.0,1.0,1.0,359.6791650052182,2.0,1.0,phase_1,,,,,,,,,,,,,green,diamond
30.0,5.0,1.0,1.0,4.0,4.0,542.3910569516011,2.0,1.0,phase_1,,,,,,,,,,,,,orange,square
415.0,4.0,4.0,0.0,1.0,1.0,408.2864470547065,2.0,1.0,phase_1,,,,,,,,,,,,,cyan,triangle
123.0,2.0,2.0,0.0,2.0,2.0,510.2705300087109,2.0,1.0,phase_1,,,,,,,,,,,,,blue,cross
58.0,1.0,1.0,0.0,3.0,3.0,432.9899220028892,2.0,1.0,phase_1,,,,,,,,,,,,,gray,hexagon
50.0,1.0,1.0,0.0,2.0,2.0,510.809870029334,2.0,1.0,phase_1,,,,,,,,,,,,,gray,hexagon
106.0,6.0,2.0,1.0,3.0,3.0,426.1828800081275,2.0,1.0,phase_1,,,,,,,,,,,,,green,diamond
0.0,5.0,0.0,1.0,2.0,2.0,368.2966830092482,2.0,1.0,phase_1,,,,,,,,,,,,,orange,square
207.0,7.0,3.0,1.0,4.0,4.0,571.8044509994797,2.0,1.0,phase_1,,,,,,,,,,,,,magenta,circle
384.0,4.0,4.0,0.0,1.0,1.0,384.1637239675037,2.0,1.0,phase_1,,,,,,,,,,,,,cyan,triangle
55.0,1.0,1.0,0.0,1.0,1.0,421.7946410062723,2.0,1.0,phase_1,,,,,,,,,,,,,gray,hexagon
113.0,6.0,2.0,1.0,4.0,4.0,468.8010170357302,2.0,1.0,phase_1,,,,,,,,,,,,,green,diamond
0.0,8.0,0.0,1.0,3.0,3.0,542.2727119876072,3.0,1.0,phase_1,,,,,,,,,,,,,white,I
221.0,7.0,3.0,1.0,3.0,3.0,589.0965470462106,3.0,1.0,phase_1,,,,,,,,,,,,,magenta,circle
217.0,3.0,3.0,0.0,3.0,3.0,385.5595220229588,3.0,1.0,phase_1,,,,,,,,,,,,,yellow,flipped triangle
57.0,1.0,1.0,0.0,3.0,3.0,332.3773520532995,3.0,1.0,phase_1,,,,,,,,,,,,,gray,hexagon
213.0,3.0,3.0,0.0,1.0,1.0,391.2059129797853,3.0,1.0,phase_1,,,,,,,,,,,,,yellow,flipped triangle
0.0,1.0,0.0,0.0,2.0,2.0,603.8499000133015,3.0,1.0,phase_1,,,,,,,,,,,,,gray,hexagon
0.0,7.0,0.0,1.0,3.0,3.0,427.5196839589625,3.0,1.0,phase_1,,,,,,,,,,,,,magenta,circle
385.0,4.0,4.0,0.0,3.0,3.0,486.7377280024811,3.0,1.0,phase_1,,,,,,,,,,,,,cyan,triangle
0.0,4.0,0.0,0.0,4.0,4.0,507.7420340385288,3.0,1.0,phase_1,,,,,,,,,,,,,cyan,triangle
85.0,2.0,2.0,0.0,3.0,3.0,384.5988700049929,3.0,1.0,phase_1,,,,,,,,,,,,,blue,cross
49.0,5.0,1.0,1.0,1.0,1.0,373.6713789985515,3.0,1.0,phase_1,,,,,,,,,,,,,orange,square
414.0,8.0,4.0,1.0,3.0,3.0,408.5983309778385,3.0,1.0,phase_1,,,,,,,,,,,,,white,I
406.0,8.0,4.0,1.0,2.0,2.0,511.8335779989138,3.0,1.0,phase_1,,,,,,,,,,,,,white,I
72.0,1.0,1.0,0.0,3.0,3.0,388.8356719980947,3.0,1.0,phase_1,,,,,,,,,,,,,gray,hexagon
413.0,4.0,4.0,0.0,4.0,4.0,671.2810919852927,3.0,1.0,phase_1,,,,,,,,,,,,,cyan,triangle
89.0,2.0,2.0,0.0,1.0,1.0,446.405210008379,3.0,1.0,phase_1,,,,,,,,,,,,,blue,cross
32.0,1.0,1.0,0.0,3.0,3.0,591.9917739811353,3.0,1.0,phase_1,,,,,,,,,,,,,gray,hexagon
186.0,7.0,3.0,1.0,3.0,3.0,567.6976579707116,3.0,1.0,phase_1,,,,,,,,,,,,,magenta,circle
0.0,6.0,0.0,1.0,4.0,4.0,384.9871950224042,3.0,1.0,phase_1,,,,,,,,,,,,,green,diamond
175.0,3.0,3.0,0.0,4.0,4.0,415.265862015076,3.0,1.0,phase_1,,,,,,,,,,,,,yellow,flipped triangle
43.0,1.0,1.0,0.0,3.0,3.0,332.7489130315371,3.0,1.0,phase_1,,,,,,,,,,,,,gray,hexagon
0.0,3.0,0.0,0.0,1.0,1.0,400.8107060217298,3.0,1.0,phase_1,,,,,,,,,,,,,yellow,flipped triangle
207.0,3.0,3.0,0.0,2.0,2.0,421.2198450113646,3.0,1.0,phase_1,,,,,,,,,,,,,yellow,flipped triangle
207.0,3.0,3.0,0.0,2.0,2.0,466.7533139581792,3.0,1.0,phase_1,,,,,,,,,,,,,yellow,flipped triangle
44.0,5.0,1.0,1.0,1.0,1.0,349.2700000060722,3.0,1.0,phase_1,,,,,,,,,,,,,orange,square
33.0,1.0,1.0,0.0,2.0,2.0,355.5456429603509,3.0,1.0,phase_1,,,,,,,,,,,,,gray,hexagon
425.0,4.0,4.0,0.0,3.0,3.0,430.2663580165244,3.0,1.0,phase_1,,,,,,,,,,,,,cyan,triangle
43.0,5.0,1.0,1.0,1.0,1.0,454.371967993211,3.0,1.0,phase_1,,,,,,,,,,,,,orange,square
416.0,4.0,4.0,0.0,1.0,1.0,387.4891579616815,3.0,1.0,phase_1,,,,,,,,,,,,,cyan,triangle
118.0,6.0,2.0,1.0,4.0,4.0,463.0328670027666,3.0,1.0,phase_1,,,,,,,,,,,,,green,diamond
181.0,7.0,3.0,1.0,1.0,1.0,408.9784099487588,3.0,1.0,phase_1,,,,,,,,,,,,,magenta,circle
191.0,7.0,3.0,1.0,2.0,2.0,398.1207039905712,3.0,1.0,phase_1,,,,,,,,,,,,,magenta,circle
0.0,4.0,0.0,0.0,1.0,1.0,364.7226790199056,3.0,1.0,phase_1,,,,,,,,,,,,,cyan,triangle
181.0,7.0,3.0,1.0,3.0,3.0,400.7269850117154,3.0,1.0,phase_1,,,,,,,,,,,,,magenta,circle
84.0,6.0,2.0,1.0,1.0,1.0,310.2097639930434,3.0,1.0,phase_1,,,,,,,,,,,,,green,diamond
123.0,2.0,2.0,0.0,2.0,2.0,475.4518250119872,3.0,1.0,phase_1,,,,,,,,,,,,,blue,cross
0.0,8.0,0.0,1.0,4.0,4.0,407.5815779506229,3.0,1.0,phase_1,,,,,,,,,,,,,white,I
86.0,2.0,2.0,0.0,3.0,3.0,410.1785289822146,3.0,1.0,phase_1,,,,,,,,,,,,,blue,cross
180.0,7.0,3.0,1.0,4.0,4.0,486.8201260105707,3.0,1.0,phase_1,,,,,,,,,,,,,magenta,circle
0.0,6.0,0.0,1.0,2.0,2.0,455.0120829953812,3.0,1.0,phase_1,,,,,,,,,,,,,green,diamond
29.0,5.0,1.0,1.0,2.0,2.0,417.8860270185396,3.0,1.0,phase_1,,,,,,,,,,,,,orange,square
102.0,6.0,2.0,1.0,2.0,2.0,318.7572489841841,3.0,1.0,phase_1,,,,,,,,,,,,,green,diamond
65.0,1.0,1.0,0.0,2.0,2.0,427.4141030036844,3.0,1.0,phase_1,,,,,,,,,,,,,gray,hexagon
61.0,5.0,1.0,1.0,3.0,3.0,432.2598410071805,3.0,1.0,phase_1,,,,,,,,,,,,,orange,square
106.0,2.0,2.0,0.0,2.0,2.0,482.3988200514577,3.0,1.0,phase_1,,,,,,,,,,,,,blue,cross
36.0,1.0,1.0,0.0,2.0,2.0,408.5669499472715,3.0,1.0,phase_1,,,,,,,,,,,,,gray,hexagon
0.0,5.0,0.0,1.0,3.0,3.0,364.1752839903347,3.0,1.0,phase_1,,,,,,,,,,,,,orange,square
123.0,6.0,2.0,1.0,2.0,2.0,360.4973049950786,3.0,1.0,phase_1,,,,,,,,,,,,,green,diamond
419.0,4.0,4.0,0.0,3.0,3.0,479.04213599395,3.0,1.0,phase_1,,,,,,,,,,,,,cyan,triangle
0.0,6.0,0.0,1.0,2.0,2.0,522.9265819652937,3.0,1.0,phase_1,,,,,,,,,,,,,green,diamond
114.0,6.0,2.0,1.0,4.0,4.0,585.4742070077918,3.0,1.0,phase_1,,,,,,,,,,,,,green,diamond
120.0,2.0,2.0,0.0,2.0,2.0,491.4262859965674,3.0,1.0,phase_1,,,,,,,,,,,,,blue,cross
77.0,6.0,2.0,1.0,3.0,3.0,482.7053330373019,3.0,1.0,phase_1,,,,,,,,,,,,,green,diamond
102.0,6.0,2.0,1.0,2.0,2.0,492.790755990427,3.0,1.0,phase_1,,,,,,,,,,,,,green,diamond
77.0,2.0,2.0,0.0,4.0,4.0,531.3082990469411,3.0,1.0,phase_1,,,,,,,,,,,,,blue,cross
0.0,1.0,0.0,0.0,3.0,3.0,425.7871059817262,3.0,1.0,phase_1,,,,,,,,,,,,,gray,hexagon
70.0,1.0,1.0,0.0,1.0,1.0,397.2660799627192,3.0,1.0,phase_1,,,,,,,,,,,,,gray,hexagon
60.0,1.0,1.0,0.0,2.0,2.0,490.6070579891093,3.0,1.0,phase_1,,,,,,,,,,,,,gray,hexagon
214.0,7.0,3.0,1.0,2.0,2.0,479.1525260079652,3.0,1.0,phase_1,,,,,,,,,,,,,magenta,circle
125.0,2.0,2.0,0.0,4.0,4.0,482.8451410285197,3.0,1.0,phase_1,,,,,,,,,,,,,blue,cross
415.0,8.0,4.0,1.0,2.0,2.0,503.2298489823006,3.0,1.0,phase_1,,,,,,,,,,,,,white,I
0.0,1.0,0.0,0.0,2.0,2.0,564.0347879962064,3.0,1.0,phase_1,,,,,,,,,,,,,gray,hexagon
107.0,2.0,2.0,0.0,3.0,3.0,391.9882220216095,3.0,1.0,phase_1,,,,,,,,,,,,,blue,cross
188.0,3.0,3.0,0.0,3.0,3.0,483.9410720160231,3.0,1.0,phase_1,,,,,,,,,,,,,yellow,flipped triangle
399.0,8.0,4.0,1.0,2.0,2.0,376.4400789514184,3.0,1.0,phase_1,,,,,,,,,,,,,white,I
114.0,6.0,2.0,1.0,1.0,1.0,437.0387879898771,3.0,1.0,phase_1,,,,,,,,,,,,,green,diamond
0.0,1.0,0.0,0.0,3.0,3.0,465.8698830171488,3.0,1.0,phase_1,,,,,,,,,,,,,gray,hexagon
176.0,3.0,3.0,0.0,2.0,2.0,400.8884510258212,3.0,1.0,phase_1,,,,,,,,,,,,,yellow,flipped triangle
65.0,5.0,1.0,1.0,2.0,2.0,405.2932030172087,3.0,1.0,phase_1,,,,,,,,,,,,,orange,square
57.0,5.0,1.0,1.0,1.0,1.0,376.4690730022266,3.0,1.0,phase_1,,,,,,,,,,,,,orange,square
188.0,3.0,3.0,0.0,1.0,1.0,388.505871000234,3.0,1.0,phase_1,,,,,,,,,,,,,yellow,flipped triangle
221.0,3.0,3.0,0.0,2.0,2.0,625.054812990129,3.0,1.0,phase_1,,,,,,,,,,,,,yellow,flipped triangle
181.0,3.0,3.0,0.0,3.0,3.0,405.7217509835027,3.0,1.0,phase_1,,,,,,,,,,,,,yellow,flipped triangle
382.0,4.0,4.0,0.0,1.0,1.0,466.641268983949,3.0,1.0,phase_1,,,,,,,,,,,,,cyan,triangle
184.0,7.0,3.0,1.0,4.0,4.0,439.090697967913,3.0,1.0,phase_1,,,,,,,,,,,,,magenta,circle
0.0,8.0,0.0,1.0,1.0,1.0,396.9774489523843,3.0,1.0,phase_1,,,,,,,,,,,,,white,I
102.0,2.0,2.0,0.0,3.0,3.0,416.5736729628406,3.0,1.0,phase_1,,,,,,,,,,,,,blue,cross
178.0,7.0,3.0,1.0,4.0,4.0,520.0464280205779,3.0,1.0,phase_1,,,,,,,,,,,,,magenta,circle
0.0,6.0,0.0,1.0,2.0,2.0,418.5693670297041,3.0,1.0,phase_1,,,,,,,,,,,,,green,diamond
30.0,1.0,1.0,0.0,3.0,3.0,480.4824509774335,3.0,1.0,phase_1,,,,,,,,,,,,,gray,hexagon
418.0,4.0,4.0,0.0,2.0,2.0,453.8261740235612,3.0,1.0,phase_1,,,,,,,,,,,,,cyan,triangle
401.0,4.0,4.0,0.0,4.0,4.0,593.0652109673247,3.0,1.0,phase_1,,,,,,,,,,,,,cyan,triangle
110.0,2.0,2.0,0.0,3.0,3.0,550.8412700146437,3.0,1.0,phase_1,,,,,,,,,,,,,blue,cross
102.0,2.0,2.0,0.0,1.0,1.0,465.2195830130949,3.0,1.0,phase_1,,,,,,,,,,,,,blue,cross
181.0,7.0,3.0,1.0,3.0,3.0,417.0729420147836,3.0,1.0,phase_1,,,,,,,,,,,,,magenta,circle
407.0,8.0,4.0,1.0,4.0,4.0,510.9364490490407,3.0,1.0,phase_1,,,,,,,,,,,,,white,I
96.0,6.0,2.0,1.0,4.0,4.0,456.684947013855,3.0,1.0,phase_1,,,,,,,,,,,,,green,diamond
186.0,3.0,3.0,0.0,1.0,1.0,437.93142802314827,3.0,1.0,phase_1,,,,,,,,,,,,,yellow,flipped triangle
77.0,2.0,2.0,0.0,3.0,3.0,394.5568630006164,3.0,1.0,phase_1,,,,,,,,,,,,,blue,cross
181.0,3.0,3.0,0.0,3.0,3.0,430.8427950018085,3.0,1.0,phase_1,,,,,,,,,,,,,yellow,flipped triangle
222.0,7.0,3.0,1.0,4.0,4.0,389.7460089647211,3.0,1.0,phase_1,,,,,,,,,,,,,magenta,circle
378.0,8.0,4.0,1.0,3.0,3.0,351.5930880093947,3.0,1.0,phase_1,,,,,,,,,,,,,white,I
107.0,6.0,2.0,1.0,2.0,2.0,451.5046390006318,3.0,1.0,phase_1,,,,,,,,,,,,,green,diamond
206.0,7.0,3.0,1.0,1.0,1.0,372.0878799795173,3.0,1.0,phase_1,,,,,,,,,,,,,magenta,circle
0.0,8.0,0.0,1.0,2.0,2.0,549.5926339644939,3.0,1.0,phase_1,,,,,,,,,,,,,white,I
49.0,1.0,1.0,0.0,2.0,2.0,412.4186180415563,3.0,1.0,phase_1,,,,,,,,,,,,,gray,hexagon
77.0,6.0,2.0,1.0,3.0,3.0,426.2195659684948,3.0,1.0,phase_1,,,,,,,,,,,,,green,diamond
102.0,6.0,2.0,1.0,3.0,3.0,478.2697099726647,3.0,1.0,phase_1,,,,,,,,,,,,,green,diamond
0.0,5.0,0.0,1.0,1.0,1.0,360.4432370048016,3.0,1.0,phase_1,,,,,,,,,,,,,orange,square
106.0,2.0,2.0,0.0,1.0,1.0,398.1526750139892,3.0,1.0,phase_1,,,,,,,,,,,,,blue,cross
417.0,8.0,4.0,1.0,1.0,1.0,453.6997620016336,4.0,1.0,phase_1,,,,,,,,,,,,,white,I
377.0,8.0,4.0,1.0,4.0,4.0,418.3683239971287,4.0,1.0,phase_1,,,,,,,,,,,,,white,I
0.0,3.0,0.0,0.0,1.0,1.0,417.3300969996489,4.0,1.0,phase_1,,,,,,,,,,,,,yellow,flipped triangle
0.0,5.0,0.0,1.0,1.0,1.0,405.0117200240493,4.0,1.0,phase_1,,,,,,,,,,,,,orange,square
29.0,1.0,1.0,0.0,4.0,4.0,400.276770000346,4.0,1.0,phase_1,,,,,,,,,,,,,gray,hexagon
382.0,4.0,4.0,0.0,1.0,1.0,309.1088839573785,4.0,1.0,phase_1,,,,,,,,,,,,,cyan,triangle
194.0,3.0,3.0,0.0,4.0,4.0,346.8733299523592,4.0,1.0,phase_1,,,,,,,,,,,,,yellow,flipped triangle
34.0,5.0,1.0,1.0,2.0,2.0,473.6093770479783,4.0,1.0,phase_1,,,,,,,,,,,,,orange,square
94.0,2.0,2.0,0.0,2.0,2.0,499.1139600169845,4.0,1.0,phase_1,,,,,,,,,,,,,blue,cross
383.0,8.0,4.0,1.0,1.0,1.0,576.2978619895875,4.0,1.0,phase_1,,,,,,,,,,,,,white,I
425.0,8.0,4.0,1.0,1.0,1.0,374.1738839889876,4.0,1.0,phase_1,,,,,,,,,,,,,white,I
29.0,1.0,1.0,0.0,1.0,1.0,321.7192239826545,4.0,1.0,phase_1,,,,,,,,,,,,,gray,hexagon
0.0,1.0,0.0,0.0,4.0,4.0,545.052298984956,4.0,1.0,phase_1,,,,,,,,,,,,,gray,hexagon
416.0,8.0,4.0,1.0,3.0,3.0,621.741609997116,4.0,1.0,phase_1,,,,,,,,,,,,,white,I
413.0,8.0,4.0,1.0,2.0,2.0,447.5835360353812,4.0,1.0,phase_1,,,,,,,,,,,,,white,I
122.0,6.0,2.0,1.0,2.0,2.0,390.6474649556912,4.0,1.0,phase_1,,,,,,,,,,,,,green,diamond
416.0,8.0,4.0,1.0,4.0,4.0,371.3726819842122,4.0,1.0,phase_1,,,,,,,,,,,,,white,I
79.0,2.0,2.0,0.0,4.0,4.0,476.8569699954241,4.0,1.0,phase_1,,,,,,,,,,,,,blue,cross
106.0,6.0,2.0,1.0,4.0,4.0,363.2360880146734,4.0,1.0,phase_1,,,,,,,,,,,,,green,diamond
422.0,4.0,4.0,0.0,2.0,2.0,478.0512159923091,4.0,1.0,phase_1,,,,,,,,,,,,,cyan,triangle
184.0,3.0,3.0,0.0,1.0,1.0,330.9887019568123,4.0,1.0,phase_1,,,,,,,,,,,,,yellow,flipped triangle
401.0,8.0,4.0,1.0,2.0,2.0,401.4065960072912,4.0,1.0,phase_1,,,,,,,,,,,,,white,I
0.0,7.0,0.0,1.0,4.0,4.0,376.1889149900526,4.0,1.0,phase_1,,,,,,,,,,,,,magenta,circle
0.0,8.0,0.0,1.0,2.0,2.0,355.368354008533,4.0,1.0,phase_1,,,,,,,,,,,,,white,I
51.0,1.0,1.0,0.0,4.0,4.0,327.3342620232142,4.0,1.0,phase_1,,,,,,,,,,,,,gray,hexagon
398.0,4.0,4.0,0.0,1.0,1.0,331.7507519968785,4.0,1.0,phase_1,,,,,,,,,,,,,cyan,triangle
0.0,2.0,0.0,0.0,2.0,2.0,375.4375869757496,4.0,1.0,phase_1,,,,,,,,,,,,,blue,cross
0.0,5.0,0.0,1.0,1.0,1.0,364.1316519933752,4.0,1.0,phase_1,,,,,,,,,,,,,orange,square
378.0,4.0,4.0,0.0,3.0,3.0,449.109714012593,4.0,1.0,phase_1,,,,,,,,,,,,,cyan,triangle
118.0,2.0,2.0,0.0,1.0,1.0,469.2046340205706,4.0,1.0,phase_1,,,,,,,,,,,,,blue,cross
406.0,4.0,4.0,0.0,2.0,2.0,540.6646520132199,4.0,1.0,phase_1,,,,,,,,,,,,,cyan,triangle
64.0,1.0,1.0,0.0,3.0,3.0,399.2270689923316,4.0,1.0,phase_1,,,,,,,,,,,,,gray,hexagon
404.0,8.0,4.0,1.0,4.0,4.0,326.2698799953796,4.0,1.0,phase_1,,,,,,,,,,,,,white,I
208.0,3.0,3.0,0.0,1.0,1.0,304.8995970166288,4.0,1.0,phase_1,,,,,,,,,,,,,yellow,flipped triangle
398.0,4.0,4.0,0.0,4.0,4.0,398.255197040271,4.0,1.0,phase_1,,,,,,,,,,,,,cyan,triangle
42.0,1.0,1.0,0.0,4.0,4.0,372.4389710114337,4.0,1.0,phase_1,,,,,,,,,,,,,gray,hexagon
64.0,5.0,1.0,1.0,4.0,4.0,358.534711995162,4.0,1.0,phase_1,,,,,,,,,,,,,orange,square
386.0,8.0,4.0,1.0,1.0,1.0,364.1785759828053,4.0,1.0,phase_1,,,,,,,,,,,,,white,I
32.0,5.0,1.0,1.0,2.0,2.0,334.7340780310333,4.0,1.0,phase_1,,,,,,,,,,,,,orange,square
192.0,7.0,3.0,1.0,2.0,2.0,372.4658410064876,4.0,1.0,phase_1,,,,,,,,,,,,,magenta,circle
83.0,6.0,2.0,1.0,3.0,3.0,347.0961659913882,4.0,1.0,phase_1,,,,,,,,,,,,,green,diamond
102.0,6.0,2.0,1.0,1.0,1.0,400.2979450160637,4.0,1.0,phase_1,,,,,,,,,,,,,green,diamond
219.0,3.0,3.0,0.0,3.0,3.0,347.1047699567862,4.0,1.0,phase_1,,,,,,,,,,,,,yellow,flipped triangle
0.0,1.0,0.0,0.0,4.0,4.0,450.3097839769907,4.0,1.0,phase_1,,,,,,,,,,,,,gray,hexagon
207.0,7.0,3.0,1.0,2.0,2.0,355.8170819887891,4.0,1.0,phase_1,,,,,,,,,,,,,magenta,circle
114.0,2.0,2.0,0.0,1.0,1.0,330.2996300044469,4.0,1.0,phase_1,,,,,,,,,,,,,blue,cross
84.0,2.0,2.0,0.0,4.0,4.0,326.3356619863771,4.0,1.0,phase_1,,,,,,,,,,,,,blue,cross
0.0,3.0,0.0,0.0,4.0,4.0,442.2494599712081,4.0,1.0,phase_1,,,,,,,,,,,,,yellow,flipped triangle
64.0,1.0,1.0,0.0,2.0,2.0,358.3881070371717,4.0,1.0,phase_1,,,,,,,,,,,,,gray,hexagon
31.0,1.0,1.0,0.0,2.0,2.0,342.0822119805962,4.0,1.0,phase_1,,,,,,,,,,,,,gray,hexagon
0.0,8.0,0.0,1.0,3.0,3.0,377.1598809980787,4.0,1.0,phase_1,,,,,,,,,,,,,white,I
56.0,1.0,1.0,0.0,4.0,4.0,368.0123809608631,4.0,1.0,phase_1,,,,,,,,,,,,,gray,hexagon
414.0,4.0,4.0,0.0,4.0,4.0,425.6786790210753,4.0,1.0,phase_1,,,,,,,,,,,,,cyan,triangle
0.0,1.0,0.0,0.0,4.0,4.0,520.260919991415,4.0,1.0,phase_1,,,,,,,,,,,,,gray,hexagon
197.0,7.0,3.0,1.0,3.0,3.0,629.8224000493065,4.0,1.0,phase_1,,,,,,,,,,,,,magenta,circle
51.0,5.0,1.0,1.0,2.0,2.0,542.4155430519022,4.0,1.0,phase_1,,,,,,,,,,,,,orange,square
417.0,4.0,4.0,0.0,3.0,3.0,444.1789099946618,4.0,1.0,phase_1,,,,,,,,,,,,,cyan,triangle
53.0,5.0,1.0,1.0,4.0,4.0,360.1804330246523,4.0,1.0,phase_1,,,,,,,,,,,,,orange,square
74.0,5.0,1.0,1.0,1.0,1.0,343.7696530018002,4.0,1.0,phase_1,,,,,,,,,,,,,orange,square
180.0,3.0,3.0,0.0,2.0,2.0,389.2509459983557,4.0,1.0,phase_1,,,,,,,,,,,,,yellow,flipped triangle
0.0,8.0,0.0,1.0,1.0,1.0,744.2063699709252,4.0,1.0,phase_1,,,,,,,,,,,,,white,I
190.0,7.0,3.0,1.0,1.0,1.0,405.46437999000767,4.0,1.0,phase_1,,,,,,,,,,,,,magenta,circle
66.0,5.0,1.0,1.0,1.0,1.0,383.7165629956871,4.0,1.0,phase_1,,,,,,,,,,,,,orange,square
393.0,8.0,4.0,1.0,4.0,4.0,413.1744719925336,4.0,1.0,phase_1,,,,,,,,,,,,,white,I
418.0,8.0,4.0,1.0,1.0,1.0,432.811392005533,4.0,1.0,phase_1,,,,,,,,,,,,,white,I
36.0,5.0,1.0,1.0,1.0,1.0,367.5836120382882,4.0,1.0,phase_1,,,,,,,,,,,,,orange,square
401.0,4.0,4.0,0.0,4.0,4.0,547.3264169995673,4.0,1.0,phase_1,,,,,,,,,,,,,cyan,triangle
0.0,2.0,0.0,0.0,2.0,2.0,358.8194649782963,4.0,1.0,phase_1,,,,,,,,,,,,,blue,cross
27.0,1.0,1.0,0.0,1.0,1.0,358.984968974255,4.0,1.0,phase_1,,,,,,,,,,,,,gray,hexagon
56.0,5.0,1.0,1.0,2.0,2.0,408.580646966584,4.0,1.0,phase_1,,,,,,,,,,,,,orange,square
382.0,4.0,4.0,0.0,3.0,3.0,381.2713960069231,4.0,1.0,phase_1,,,,,,,,,,,,,cyan,triangle
115.0,2.0,2.0,0.0,4.0,4.0,405.1374289556406,4.0,1.0,phase_1,,,,,,,,,,,,,blue,cross
219.0,7.0,3.0,1.0,2.0,2.0,552.9064080328681,4.0,1.0,phase_1,,,,,,,,,,,,,magenta,circle
393.0,4.0,4.0,0.0,2.0,2.0,381.4857979887165,4.0,1.0,phase_1,,,,,,,,,,,,,cyan,triangle
213.0,7.0,3.0,1.0,3.0,3.0,674.061092955526,4.0,1.0,phase_1,,,,,,,,,,,,,magenta,circle
0.0,7.0,0.0,1.0,1.0,1.0,372.9502009809948,4.0,1.0,phase_1,,,,,,,,,,,,,magenta,circle
57.0,1.0,1.0,0.0,1.0,1.0,428.08167997282,4.0,1.0,phase_1,,,,,,,,,,,,,gray,hexagon
225.0,7.0,3.0,1.0,2.0,2.0,511.8942870176397,4.0,1.0,phase_1,,,,,,,,,,,,,magenta,circle
384.0,8.0,4.0,1.0,4.0,4.0,730.8043409720995,4.0,2.0,phase_1,,,,,,,,,,,,,white,I
44.0,5.0,1.0,1.0,3.0,3.0,630.5936610442586,4.0,1.0,phase_1,,,,,,,,,,,,,orange,square
84.0,2.0,2.0,0.0,3.0,3.0,684.5450780238025,4.0,1.0,phase_1,,,,,,,,,,,,,blue,cross
107.0,2.0,2.0,0.0,3.0,3.0,453.4954580012709,4.0,1.0,phase_1,,,,,,,,,,,,,blue,cross
391.0,4.0,4.0,0.0,1.0,1.0,433.9816200081259,4.0,1.0,phase_1,,,,,,,,,,,,,cyan,triangle
63.0,1.0,1.0,0.0,4.0,4.0,478.6682029953226,4.0,1.0,phase_1,,,,,,,,,,,,,gray,hexagon
424.0,4.0,4.0,0.0,4.0,4.0,437.4739240156486,4.0,1.0,phase_1,,,,,,,,,,,,,cyan,triangle
0.0,8.0,0.0,1.0,3.0,3.0,480.1070579560473,4.0,1.0,phase_1,,,,,,,,,,,,,white,I
64.0,5.0,1.0,1.0,3.0,3.0,430.5269200121984,4.0,1.0,phase_1,,,,,,,,,,,,,orange,square
29.0,5.0,1.0,1.0,4.0,4.0,594.4008129881695,4.0,1.0,phase_1,,,,,,,,,,,,,orange,square
0.0,4.0,0.0,0.0,1.0,1.0,505.5187739781104,4.0,1.0,phase_1,,,,,,,,,,,,,cyan,triangle
29.0,1.0,1.0,0.0,3.0,3.0,446.1368310148828,4.0,1.0,phase_1,,,,,,,,,,,,,gray,hexagon
59.0,1.0,1.0,0.0,4.0,4.0,391.7603630106896,4.0,1.0,phase_1,,,,,,,,,,,,,gray,hexagon
70.0,5.0,1.0,1.0,3.0,3.0,374.7076439904049,4.0,1.0,phase_1,,,,,,,,,,,,,orange,square
88.0,2.0,2.0,0.0,2.0,2.0,427.9749420238659,4.0,1.0,phase_1,,,,,,,,,,,,,blue,cross
110.0,2.0,2.0,0.0,4.0,4.0,490.5024800100364,4.0,1.0,phase_1,,,,,,,,,,,,,blue,cross
0.0,7.0,0.0,1.0,3.0,3.0,362.5195100321434,4.0,1.0,phase_1,,,,,,,,,,,,,magenta,circle
88.0,6.0,2.0,1.0,2.0,2.0,375.1048359554261,4.0,1.0,phase_1,,,,,,,,,,,,,green,diamond
175.0,7.0,3.0,1.0,4.0,4.0,517.9173079668544,4.0,1.0,phase_1,,,,,,,,,,,,,magenta,circle
0.0,2.0,0.0,0.0,1.0,1.0,417.2523109591566,4.0,1.0,phase_1,,,,,,,,,,,,,blue,cross
0.0,3.0,0.0,0.0,4.0,4.0,550.9912390261889,4.0,1.0,phase_1,,,,,,,,,,,,,yellow,flipped triangle
0.0,4.0,0.0,0.0,4.0,4.0,466.0309500177391,4.0,1.0,phase_1,,,,,,,,,,,,,cyan,triangle
0.0,7.0,3.0,1.0,5.0,0.0,0.0,1.0,1.0,phase_2,stop,250.0,250.0,4.0,,,,,,,,,magenta,circle
0.0,2.0,2.0,0.0,5.0,5.0,572.1542140236124,1.0,1.0,phase_2,go,300.0,250.0,1.0,,,,,,,,,blue,cross
0.0,4.0,4.0,0.0,5.0,5.0,1219.5512150065042,1.0,1.0,phase_2,go,300.0,250.0,1.0,,,,,,,,,cyan,triangle
0.0,5.0,1.0,1.0,5.0,0.0,0.0,1.0,1.0,phase_2,stop,300.0,250.0,4.0,,,,,,,,,orange,square
0.0,4.0,4.0,0.0,6.0,6.0,531.8559859879315,1.0,1.0,phase_2,go,350.0,250.0,1.0,,,,,,,,,cyan,triangle
0.0,8.0,4.0,1.0,5.0,5.0,835.7527009793557,1.0,1.0,phase_2,go,350.0,250.0,1.0,,,,,,,,,white,I
0.0,8.0,4.0,1.0,5.0,0.0,0.0,1.0,1.0,phase_2,stop,350.0,250.0,4.0,,,,,,,,,white,I
0.0,2.0,2.0,0.0,5.0,5.0,642.6359090255573,1.0,1.0,phase_2,go,400.0,250.0,1.0,,,,,,,,,blue,cross
0.0,5.0,1.0,1.0,6.0,6.0,1154.103408975061,1.0,1.0,phase_2,go,400.0,250.0,1.0,,,,,,,,,orange,square
0.0,6.0,2.0,1.0,5.0,5.0,418.2621429790742,1.0,1.0,phase_2,stop,400.0,250.0,3.0,,,,,,,,,green,diamond
0.0,7.0,3.0,1.0,5.0,5.0,826.9685410195962,1.0,1.0,phase_2,go,350.0,250.0,1.0,,,,,,,,,magenta,circle
0.0,1.0,1.0,0.0,6.0,6.0,858.0375200253911,1.0,1.0,phase_2,go,350.0,250.0,1.0,,,,,,,,,gray,hexagon
0.0,2.0,2.0,0.0,5.0,5.0,1215.8697920385748,1.0,1.0,phase_2,go,350.0,250.0,1.0,,,,,,,,,blue,cross
0.0,3.0,3.0,0.0,5.0,5.0,757.4775199755095,1.0,1.0,phase_2,go,350.0,250.0,1.0,,,,,,,,,yellow,flipped triangle
0.0,7.0,3.0,1.0,5.0,0.0,0.0,1.0,1.0,phase_2,stop,350.0,250.0,4.0,,,,,,,,,magenta,circle
0.0,7.0,3.0,1.0,6.0,6.0,352.2541440324858,1.0,1.0,phase_2,go,400.0,250.0,1.0,,,,,,,,,magenta,circle
0.0,1.0,1.0,0.0,6.0,6.0,823.7723470083438,1.0,1.0,phase_2,go,400.0,250.0,1.0,,,,,,,,,gray,hexagon
0.0,3.0,3.0,0.0,6.0,6.0,767.3548309830949,1.0,1.0,phase_2,go,400.0,250.0,1.0,,,,,,,,,yellow,flipped triangle
0.0,8.0,4.0,1.0,5.0,0.0,0.0,1.0,1.0,phase_2,stop,400.0,250.0,4.0,,,,,,,,,white,I
0.0,2.0,2.0,0.0,6.0,6.0,450.7149819983169,1.0,1.0,phase_2,go,450.0,250.0,1.0,,,,,,,,,blue,cross
0.0,3.0,3.0,0.0,6.0,6.0,539.3121059751138,1.0,1.0,phase_2,go,450.0,250.0,1.0,,,,,,,,,yellow,flipped triangle
0.0,4.0,4.0,0.0,6.0,6.0,772.9459009715356,1.0,1.0,phase_2,go,450.0,250.0,1.0,,,,,,,,,cyan,triangle
0.0,8.0,4.0,1.0,5.0,0.0,0.0,1.0,1.0,phase_2,stop,450.0,250.0,4.0,,,,,,,,,white,I
0.0,2.0,2.0,0.0,6.0,6.0,1064.3009949708355,1.0,1.0,phase_2,go,500.0,250.0,1.0,,,,,,,,,blue,cross
0.0,6.0,2.0,1.0,6.0,6.0,943.6204659868964,1.0,1.0,phase_2,go,500.0,250.0,1.0,,,,,,,,,green,diamond
0.0,3.0,3.0,0.0,6.0,6.0,519.0934269921854,1.0,1.0,phase_2,go,500.0,250.0,1.0,,,,,,,,,yellow,flipped triangle
0.0,2.0,2.0,0.0,5.0,5.0,775.4444099846296,1.0,1.0,phase_2,go,500.0,250.0,1.0,,,,,,,,,blue,cross
0.0,6.0,2.0,1.0,6.0,0.0,0.0,1.0,1.0,phase_2,stop,500.0,250.0,4.0,,,,,,,,,green,diamond
0.0,3.0,3.0,0.0,5.0,5.0,422.9829629766755,1.0,1.0,phase_2,go,500.0,300.0,1.0,,,,,,,,,yellow,flipped triangle
0.0,2.0,2.0,0.0,5.0,5.0,500.7874600123614,1.0,1.0,phase_2,go,500.0,300.0,1.0,,,,,,,,,blue,cross
0.0,1.0,1.0,0.0,6.0,6.0,987.9605689784512,1.0,1.0,phase_2,go,500.0,300.0,1.0,,,,,,,,,gray,hexagon
0.0,6.0,2.0,1.0,6.0,6.0,823.5074230469763,1.0,1.0,phase_2,go,500.0,300.0,1.0,,,,,,,,,green,diamond
0.0,4.0,4.0,0.0,5.0,5.0,846.0070449509658,1.0,1.0,phase_2,go,500.0,300.0,1.0,,,,,,,,,cyan,triangle
0.0,7.0,3.0,1.0,5.0,0.0,0.0,1.0,1.0,phase_2,stop,500.0,300.0,4.0,,,,,,,,,magenta,circle
0.0,8.0,4.0,1.0,5.0,0.0,0.0,1.0,1.0,phase_2,stop,550.0,300.0,4.0,,,,,,,,,white,I
0.0,2.0,2.0,0.0,5.0,5.0,905.691049003508,1.0,1.0,phase_2,go,600.0,300.0,1.0,,,,,,,,,blue,cross
0.0,6.0,2.0,1.0,5.0,5.0,438.3278319728561,2.0,1.0,phase_2,stop,600.0,300.0,3.0,,,,,,,,,green,diamond
0.0,7.0,3.0,1.0,5.0,5.0,655.498573963996,2.0,1.0,phase_2,go,550.0,300.0,1.0,,,,,,,,,magenta,circle
0.0,1.0,1.0,0.0,6.0,6.0,309.2984579852782,2.0,1.0,phase_2,go,550.0,300.0,1.0,,,,,,,,,gray,hexagon
0.0,3.0,3.0,0.0,6.0,6.0,389.5953319733962,2.0,1.0,phase_2,go,550.0,300.0,1.0,,,,,,,,,yellow,flipped triangle
0.0,1.0,1.0,0.0,6.0,6.0,428.9707629941404,2.0,1.0,phase_2,go,550.0,300.0,1.0,,,,,,,,,gray,hexagon
0.0,4.0,4.0,0.0,5.0,5.0,652.2271319990978,2.0,1.0,phase_2,go,550.0,300.0,1.0,,,,,,,,,cyan,triangle
0.0,6.0,2.0,1.0,5.0,5.0,437.5574089935981,2.0,1.0,phase_2,stop,550.0,300.0,3.0,,,,,,,,,green,diamond
0.0,6.0,2.0,1.0,5.0,5.0,451.4951849705539,2.0,1.0,phase_2,stop,500.0,300.0,3.0,,,,,,,,,green,diamond
0.0,1.0,1.0,0.0,5.0,5.0,842.2954159905203,2.0,1.0,phase_2,go,450.0,300.0,1.0,,,,,,,,,gray,hexagon
0.0,3.0,3.0,0.0,5.0,5.0,827.1294430014677,2.0,1.0,phase_2,go,450.0,300.0,1.0,,,,,,,,,yellow,flipped triangle
0.0,8.0,4.0,1.0,6.0,6.0,895.9681789856404,2.0,1.0,phase_2,stop,450.0,300.0,3.0,,,,,,,,,white,I
0.0,6.0,2.0,1.0,6.0,0.0,0.0,2.0,1.0,phase_2,stop,450.0,250.0,4.0,,,,,,,,,green,diamond
0.0,5.0,1.0,1.0,5.0,5.0,391.4581540157087,2.0,1.0,phase_2,stop,450.0,300.0,3.0,,,,,,,,,orange,square
0.0,5.0,1.0,1.0,5.0,5.0,910.8421219862066,2.0,1.0,phase_2,go,400.0,300.0,1.0,,,,,,,,,orange,square
0.0,8.0,4.0,1.0,5.0,0.0,0.0,2.0,1.0,phase_2,stop,400.0,300.0,4.0,,,,,,,,,white,I
0.0,8.0,4.0,1.0,6.0,0.0,0.0,2.0,1.0,phase_2,stop,450.0,300.0,4.0,,,,,,,,,white,I
0.0,5.0,1.0,1.0,6.0,6.0,456.2105520162731,2.0,1.0,phase_2,go,450.0,350.0,1.0,,,,,,,,,orange,square
0.0,1.0,1.0,0.0,5.0,5.0,675.5880549899302,2.0,1.0,phase_2,go,450.0,350.0,1.0,,,,,,,,,gray,hexagon
0.0,3.0,3.0,0.0,5.0,5.0,899.0031249704771,2.0,1.0,phase_2,go,450.0,350.0,1.0,,,,,,,,,yellow,flipped triangle
0.0,8.0,4.0,1.0,6.0,0.0,0.0,2.0,1.0,phase_2,stop,450.0,350.0,4.0,,,,,,,,,white,I
0.0,5.0,1.0,1.0,5.0,0.0,0.0,2.0,1.0,phase_2,stop,450.0,400.0,4.0,,,,,,,,,orange,square
0.0,1.0,1.0,0.0,5.0,5.0,898.3917069854215,2.0,1.0,phase_2,go,500.0,400.0,1.0,,,,,,,,,gray,hexagon
0.0,4.0,4.0,0.0,6.0,6.0,484.1921319602988,2.0,1.0,phase_2,go,500.0,400.0,1.0,,,,,,,,,cyan,triangle
0.0,7.0,3.0,1.0,6.0,0.0,0.0,2.0,1.0,phase_2,stop,500.0,400.0,4.0,,,,,,,,,magenta,circle
0.0,5.0,1.0,1.0,5.0,5.0,657.6525769778527,2.0,1.0,phase_2,go,500.0,450.0,1.0,,,,,,,,,orange,square
0.0,3.0,3.0,0.0,6.0,6.0,681.4862210303545,2.0,1.0,phase_2,go,500.0,450.0,1.0,,,,,,,,,yellow,flipped triangle
0.0,6.0,2.0,1.0,6.0,0.0,0.0,2.0,1.0,phase_2,stop,500.0,450.0,4.0,,,,,,,,,green,diamond
0.0,8.0,4.0,1.0,6.0,6.0,615.5998189933598,2.0,1.0,phase_2,go,500.0,500.0,1.0,,,,,,,,,white,I
0.0,5.0,1.0,1.0,6.0,0.0,0.0,2.0,1.0,phase_2,stop,500.0,500.0,4.0,,,,,,,,,orange,square
0.0,4.0,4.0,0.0,5.0,5.0,670.9743720130064,2.0,1.0,phase_2,go,500.0,550.0,1.0,,,,,,,,,cyan,triangle
0.0,4.0,4.0,0.0,5.0,5.0,415.7121159951202,2.0,1.0,phase_2,go,500.0,550.0,1.0,,,,,,,,,cyan,triangle
0.0,2.0,2.0,0.0,6.0,6.0,795.9945549955592,2.0,1.0,phase_2,go,500.0,550.0,1.0,,,,,,,,,blue,cross
0.0,6.0,2.0,1.0,5.0,5.0,766.0115779726766,2.0,1.0,phase_2,go,500.0,550.0,1.0,,,,,,,,,green,diamond
0.0,2.0,2.0,0.0,6.0,6.0,363.2200399879366,2.0,1.0,phase_2,go,500.0,550.0,1.0,,,,,,,,,blue,cross
0.0,5.0,1.0,1.0,5.0,5.0,707.6157429837622,2.0,1.0,phase_2,stop,500.0,550.0,3.0,,,,,,,,,orange,square
0.0,3.0,3.0,0.0,5.0,5.0,964.4313409808092,2.0,1.0,phase_2,go,450.0,550.0,1.0,,,,,,,,,yellow,flipped triangle
0.0,7.0,3.0,1.0,6.0,0.0,0.0,3.0,1.0,phase_2,stop,450.0,550.0,4.0,,,,,,,,,magenta,circle
0.0,5.0,1.0,1.0,5.0,5.0,525.5614139605314,3.0,1.0,phase_2,stop,450.0,600.0,3.0,,,,,,,,,orange,square
0.0,5.0,1.0,1.0,6.0,6.0,571.4580719941296,3.0,1.0,phase_2,stop,400.0,600.0,3.0,,,,,,,,,orange,square
0.0,4.0,4.0,0.0,6.0,6.0,561.0445059719495,3.0,1.0,phase_2,go,400.0,550.0,1.0,,,,,,,,,cyan,triangle
0.0,5.0,1.0,1.0,5.0,5.0,392.218554043211,3.0,1.0,phase_2,stop,400.0,550.0,3.0,,,,,,,,,orange,square
0.0,7.0,3.0,1.0,5.0,5.0,512.2212860151194,3.0,1.0,phase_2,stop,350.0,550.0,3.0,,,,,,,,,magenta,circle
0.0,6.0,2.0,1.0,6.0,0.0,0.0,3.0,1.0,phase_2,stop,300.0,550.0,4.0,,,,,,,,,green,diamond
0.0,2.0,2.0,0.0,5.0,5.0,790.8195100026205,3.0,1.0,phase_2,go,300.0,600.0,1.0,,,,,,,,,blue,cross
0.0,1.0,1.0,0.0,5.0,5.0,928.7700999993832,3.0,1.0,phase_2,go,300.0,600.0,1.0,,,,,,,,,gray,hexagon
0.0,7.0,3.0,1.0,6.0,6.0,1238.2712839753367,3.0,1.0,phase_2,go,300.0,600.0,1.0,,,,,,,,,magenta,circle
0.0,4.0,4.0,0.0,5.0,5.0,861.8890909710899,3.0,1.0,phase_2,go,300.0,600.0,1.0,,,,,,,,,cyan,triangle
0.0,8.0,4.0,1.0,6.0,6.0,376.7033000476658,3.0,1.0,phase_2,stop,300.0,600.0,3.0,,,,,,,,,white,I
0.0,1.0,1.0,0.0,5.0,5.0,543.1205439963378,3.0,1.0,phase_2,go,300.0,550.0,1.0,,,,,,,,,gray,hexagon
0.0,1.0,1.0,0.0,6.0,6.0,396.3590920320712,3.0,1.0,phase_2,go,300.0,550.0,1.0,,,,,,,,,gray,hexagon
0.0,1.0,1.0,0.0,6.0,6.0,557.6994550065137,3.0,1.0,phase_2,go,300.0,550.0,1.0,,,,,,,,,gray,hexagon
0.0,5.0,1.0,1.0,5.0,0.0,0.0,3.0,1.0,phase_2,stop,300.0,550.0,4.0,,,,,,,,,orange,square
0.0,5.0,1.0,1.0,5.0,0.0,0.0,3.0,1.0,phase_2,stop,350.0,550.0,4.0,,,,,,,,,orange,square
0.0,5.0,1.0,1.0,6.0,6.0,345.5497599788941,3.0,1.0,phase_2,stop,400.0,550.0,3.0,,,,,,,,,orange,square
0.0,1.0,1.0,0.0,5.0,5.0,785.0892499554902,3.0,1.0,phase_2,go,400.0,500.0,1.0,,,,,,,,,gray,hexagon
0.0,6.0,2.0,1.0,6.0,0.0,0.0,3.0,1.0,phase_2,stop,400.0,500.0,4.0,,,,,,,,,green,diamond
0.0,3.0,3.0,0.0,5.0,5.0,929.236184048932,3.0,1.0,phase_2,go,400.0,550.0,1.0,,,,,,,,,yellow,flipped triangle
0.0,3.0,3.0,0.0,6.0,6.0,1066.1987609928474,3.0,1.0,phase_2,go,400.0,550.0,1.0,,,,,,,,,yellow,flipped triangle
0.0,2.0,2.0,0.0,5.0,5.0,890.2763460064307,3.0,1.0,phase_2,go,400.0,550.0,1.0,,,,,,,,,blue,cross
0.0,5.0,1.0,1.0,6.0,6.0,928.8215429987758,3.0,1.0,phase_2,go,400.0,550.0,1.0,,,,,,,,,orange,square
0.0,8.0,4.0,1.0,5.0,5.0,749.8422059579752,3.0,1.0,phase_2,go,400.0,550.0,1.0,,,,,,,,,white,I
0.0,6.0,2.0,1.0,5.0,0.0,0.0,3.0,1.0,phase_2,stop,400.0,550.0,4.0,,,,,,,,,green,diamond
0.0,4.0,4.0,0.0,5.0,5.0,575.0880359555595,3.0,1.0,phase_2,go,450.0,550.0,1.0,,,,,,,,,cyan,triangle
0.0,4.0,4.0,0.0,6.0,6.0,551.8640400259756,3.0,1.0,phase_2,go,450.0,550.0,1.0,,,,,,,,,cyan,triangle
0.0,7.0,3.0,1.0,6.0,6.0,883.95321497228,3.0,1.0,phase_2,go,450.0,550.0,1.0,,,,,,,,,magenta,circle
0.0,5.0,1.0,1.0,6.0,6.0,453.0578799895011,3.0,1.0,phase_2,stop,450.0,550.0,3.0,,,,,,,,,orange,square
0.0,1.0,1.0,0.0,6.0,6.0,490.9344129846431,3.0,1.0,phase_2,go,450.0,500.0,1.0,,,,,,,,,gray,hexagon
0.0,7.0,3.0,1.0,5.0,5.0,347.0717819873243,3.0,1.0,phase_2,stop,450.0,500.0,3.0,,,,,,,,,magenta,circle
0.0,3.0,3.0,0.0,5.0,5.0,541.3180390023626,3.0,1.0,phase_2,go,400.0,500.0,1.0,,,,,,,,,yellow,flipped triangle
0.0,6.0,2.0,1.0,5.0,0.0,0.0,3.0,1.0,phase_2,stop,400.0,500.0,4.0,,,,,,,,,green,diamond
0.0,8.0,4.0,1.0,5.0,5.0,328.2137970090844,3.0,1.0,phase_2,go,450.0,500.0,1.0,,,,,,,,,white,I
0.0,8.0,4.0,1.0,6.0,6.0,391.6656189830974,3.0,1.0,phase_2,stop,450.0,500.0,3.0,,,,,,,,,white,I
0.0,2.0,2.0,0.0,6.0,6.0,562.8958549932577,4.0,1.0,phase_2,go,450.0,450.0,1.0,,,,,,,,,blue,cross
0.0,1.0,1.0,0.0,6.0,6.0,475.353020010516,4.0,1.0,phase_2,go,450.0,450.0,1.0,,,,,,,,,gray,hexagon
0.0,6.0,2.0,1.0,5.0,5.0,251.1088410392403,4.0,1.0,phase_2,go,450.0,450.0,1.0,,,,,,,,,green,diamond
0.0,3.0,3.0,0.0,6.0,6.0,323.6797340214252,4.0,1.0,phase_2,go,450.0,450.0,1.0,,,,,,,,,yellow,flipped triangle
0.0,3.0,3.0,0.0,6.0,6.0,324.4536980055272,4.0,1.0,phase_2,go,450.0,450.0,1.0,,,,,,,,,yellow,flipped triangle
0.0,6.0,2.0,1.0,6.0,6.0,515.2524749864824,4.0,1.0,phase_2,stop,450.0,450.0,3.0,,,,,,,,,green,diamond
0.0,1.0,1.0,0.0,6.0,6.0,607.4927260051481,4.0,1.0,phase_2,go,450.0,400.0,1.0,,,,,,,,,gray,hexagon
0.0,7.0,3.0,1.0,5.0,5.0,347.0312639838084,4.0,1.0,phase_2,stop,450.0,400.0,3.0,,,,,,,,,magenta,circle
0.0,4.0,4.0,0.0,6.0,6.0,383.3344799932092,4.0,1.0,phase_2,go,400.0,400.0,1.0,,,,,,,,,cyan,triangle
0.0,8.0,4.0,1.0,6.0,6.0,352.00131702004,4.0,1.0,phase_2,stop,400.0,400.0,3.0,,,,,,,,,white,I
0.0,5.0,1.0,1.0,6.0,0.0,0.0,4.0,1.0,phase_2,stop,400.0,350.0,4.0,,,,,,,,,orange,square
0.0,3.0,3.0,0.0,5.0,5.0,277.7980230166577,4.0,1.0,phase_2,go,400.0,400.0,1.0,,,,,,,,,yellow,flipped triangle
0.0,3.0,3.0,0.0,6.0,6.0,526.5063750557601,4.0,1.0,phase_2,go,400.0,400.0,1.0,,,,,,,,,yellow,flipped triangle
0.0,3.0,3.0,0.0,5.0,5.0,683.9437889866531,4.0,1.0,phase_2,go,400.0,400.0,1.0,,,,,,,,,yellow,flipped triangle
0.0,2.0,2.0,0.0,5.0,5.0,875.6434580427594,4.0,1.0,phase_2,go,400.0,400.0,1.0,,,,,,,,,blue,cross
0.0,8.0,4.0,1.0,6.0,0.0,0.0,4.0,1.0,phase_2,stop,400.0,400.0,4.0,,,,,,,,,white,I
0.0,8.0,4.0,1.0,6.0,0.0,0.0,4.0,1.0,phase_2,stop,400.0,450.0,4.0,,,,,,,,,white,I
0.0,8.0,4.0,1.0,5.0,5.0,492.6414510118775,4.0,1.0,phase_2,stop,400.0,500.0,3.0,,,,,,,,,white,I
0.0,4.0,4.0,0.0,6.0,6.0,897.9233400314115,4.0,1.0,phase_2,go,350.0,500.0,1.0,,,,,,,,,cyan,triangle
0.0,6.0,2.0,1.0,5.0,0.0,0.0,4.0,1.0,phase_2,stop,350.0,500.0,4.0,,,,,,,,,green,diamond
0.0,7.0,3.0,1.0,6.0,6.0,650.2377089927904,4.0,1.0,phase_2,stop,400.0,500.0,3.0,,,,,,,,,magenta,circle
0.0,6.0,2.0,1.0,5.0,0.0,0.0,4.0,1.0,phase_2,stop,400.0,450.0,4.0,,,,,,,,,green,diamond
0.0,5.0,1.0,1.0,5.0,5.0,593.802671006415,4.0,1.0,phase_2,go,450.0,450.0,1.0,,,,,,,,,orange,square
0.0,8.0,4.0,1.0,5.0,0.0,0.0,4.0,1.0,phase_2,stop,450.0,450.0,4.0,,,,,,,,,white,I
0.0,6.0,2.0,1.0,6.0,6.0,558.9704849990085,4.0,1.0,phase_2,go,500.0,450.0,1.0,,,,,,,,,green,diamond
0.0,6.0,2.0,1.0,5.0,0.0,0.0,4.0,1.0,phase_2,stop,500.0,450.0,4.0,,,,,,,,,green,diamond
0.0,4.0,4.0,0.0,5.0,0.0,0.0,4.0,1.0,phase_2,go,550.0,450.0,5.0,,,,,,,,,cyan,triangle
0.0,5.0,1.0,1.0,6.0,0.0,0.0,4.0,1.0,phase_2,stop,550.0,450.0,4.0,,,,,,,,,orange,square
0.0,8.0,4.0,1.0,6.0,6.0,787.8572550253011,4.0,1.0,phase_2,go,550.0,500.0,1.0,,,,,,,,,white,I
0.0,6.0,2.0,1.0,5.0,0.0,0.0,4.0,1.0,phase_2,stop,550.0,500.0,4.0,,,,,,,,,green,diamond
0.0,2.0,2.0,0.0,6.0,6.0,682.3542729835026,4.0,1.0,phase_2,go,600.0,500.0,1.0,,,,,,,,,blue,cross
0.0,2.0,2.0,0.0,6.0,6.0,396.153173991479,4.0,1.0,phase_2,go,600.0,500.0,1.0,,,,,,,,,blue,cross
0.0,1.0,1.0,0.0,5.0,5.0,729.4888160540722,4.0,1.0,phase_2,go,600.0,500.0,1.0,,,,,,,,,gray,hexagon
0.0,7.0,3.0,1.0,5.0,5.0,763.3045799448155,4.0,1.0,phase_2,go,600.0,500.0,1.0,,,,,,,,,magenta,circle
0.0,7.0,3.0,1.0,6.0,6.0,547.1422760165296,4.0,1.0,phase_2,stop,600.0,500.0,3.0,,,,,,,,,magenta,circle
0.0,1.0,1.0,0.0,5.0,5.0,491.224767989479,4.0,1.0,phase_2,go,600.0,450.0,1.0,,,,,,,,,gray,hexagon
0.0,7.0,3.0,1.0,6.0,0.0,0.0,5.0,1.0,phase_2,stop,600.0,450.0,4.0,,,,,,,,,magenta,circle
0.0,4.0,4.0,0.0,5.0,5.0,615.1117520057596,5.0,1.0,phase_2,go,600.0,500.0,1.0,,,,,,,,,cyan,triangle
0.0,4.0,4.0,0.0,6.0,6.0,466.1818250315264,5.0,1.0,phase_2,go,600.0,500.0,1.0,,,,,,,,,cyan,triangle
0.0,1.0,1.0,0.0,6.0,6.0,360.1314519764855,5.0,1.0,phase_2,go,600.0,500.0,1.0,,,,,,,,,gray,hexagon
0.0,4.0,4.0,0.0,5.0,5.0,269.3144719814881,5.0,1.0,phase_2,go,600.0,500.0,1.0,,,,,,,,,cyan,triangle
0.0,4.0,4.0,0.0,6.0,6.0,268.1677410146221,5.0,1.0,phase_2,go,600.0,500.0,1.0,,,,,,,,,cyan,triangle
0.0,6.0,2.0,1.0,6.0,6.0,372.2956390120089,5.0,1.0,phase_2,stop,600.0,500.0,3.0,,,,,,,,,green,diamond
0.0,3.0,3.0,0.0,6.0,6.0,580.1693030516617,5.0,1.0,phase_2,go,600.0,450.0,1.0,,,,,,,,,yellow,flipped triangle
0.0,8.0,4.0,1.0,6.0,6.0,290.9055249765515,5.0,1.0,phase_2,go,600.0,450.0,1.0,,,,,,,,,white,I
0.0,1.0,1.0,0.0,6.0,6.0,452.6516160112805,5.0,1.0,phase_2,go,600.0,450.0,1.0,,,,,,,,,gray,hexagon
0.0,4.0,4.0,0.0,6.0,6.0,881.6884880070575,5.0,1.0,phase_2,go,600.0,450.0,1.0,,,,,,,,,cyan,triangle
0.0,3.0,3.0,0.0,6.0,6.0,577.7101669809781,5.0,1.0,phase_2,go,600.0,450.0,1.0,,,,,,,,,yellow,flipped triangle
0.0,2.0,2.0,0.0,5.0,5.0,664.195988967549,5.0,1.0,phase_2,go,600.0,450.0,1.0,,,,,,,,,blue,cross
0.0,7.0,3.0,1.0,5.0,5.0,337.0604490046389,5.0,1.0,phase_2,stop,600.0,450.0,3.0,,,,,,,,,magenta,circle
0.0,8.0,4.0,1.0,5.0,5.0,399.4264240027405,5.0,1.0,phase_2,go,550.0,450.0,1.0,,,,,,,,,white,I
0.0,2.0,2.0,0.0,6.0,6.0,310.6911479844711,5.0,1.0,phase_2,go,550.0,450.0,1.0,,,,,,,,,blue,cross
0.0,5.0,1.0,1.0,5.0,5.0,305.9789060498588,5.0,1.0,phase_2,stop,550.0,450.0,3.0,,,,,,,,,orange,square
0.0,1.0,1.0,0.0,5.0,5.0,633.3422620082274,5.0,1.0,phase_2,go,500.0,450.0,1.0,,,,,,,,,gray,hexagon
0.0,4.0,4.0,0.0,6.0,6.0,384.3065100372769,5.0,1.0,phase_2,go,500.0,450.0,1.0,,,,,,,,,cyan,triangle
0.0,4.0,4.0,0.0,5.0,5.0,319.8561880271882,5.0,1.0,phase_2,go,500.0,450.0,1.0,,,,,,,,,cyan,triangle
0.0,3.0,3.0,0.0,6.0,6.0,293.5906180064194,5.0,1.0,phase_2,go,500.0,450.0,1.0,,,,,,,,,yellow,flipped triangle
0.0,6.0,2.0,1.0,5.0,5.0,406.0646570287645,5.0,1.0,phase_2,stop,500.0,450.0,3.0,,,,,,,,,green,diamond
0.0,5.0,1.0,1.0,5.0,5.0,346.7836439958773,5.0,1.0,phase_2,stop,450.0,450.0,3.0,,,,,,,,,orange,square
0.0,1.0,1.0,0.0,5.0,5.0,826.6792920185253,5.0,1.0,phase_2,go,400.0,450.0,1.0,,,,,,,,,gray,hexagon
0.0,8.0,4.0,1.0,5.0,0.0,0.0,5.0,1.0,phase_2,stop,400.0,450.0,4.0,,,,,,,,,white,I
0.0,5.0,1.0,1.0,5.0,0.0,0.0,5.0,1.0,phase_2,stop,450.0,450.0,4.0,,,,,,,,,orange,square
0.0,3.0,3.0,0.0,6.0,6.0,457.6781319919973,5.0,1.0,phase_2,go,500.0,450.0,1.0,,,,,,,,,yellow,flipped triangle
0.0,7.0,3.0,1.0,5.0,0.0,0.0,5.0,1.0,phase_2,stop,500.0,450.0,4.0,,,,,,,,,magenta,circle
0.0,5.0,1.0,1.0,6.0,6.0,513.2055549765937,5.0,1.0,phase_2,stop,550.0,450.0,3.0,,,,,,,,,orange,square
0.0,4.0,4.0,0.0,5.0,5.0,272.4232050240971,5.0,1.0,phase_2,go,550.0,400.0,1.0,,,,,,,,,cyan,triangle
0.0,7.0,3.0,1.0,6.0,0.0,0.0,5.0,1.0,phase_2,stop,550.0,400.0,4.0,,,,,,,,,magenta,circle
0.0,8.0,4.0,1.0,6.0,0.0,0.0,5.0,1.0,phase_2,stop,550.0,450.0,4.0,,,,,,,,,white,I
0.0,8.0,4.0,1.0,5.0,5.0,358.1121710012667,5.0,1.0,phase_2,stop,550.0,500.0,3.0,,,,,,,,,white,I
0.0,1.0,1.0,0.0,5.0,5.0,1021.4204509975389,5.0,1.0,phase_2,go,500.0,500.0,1.0,,,,,,,,,gray,hexagon
0.0,4.0,4.0,0.0,6.0,6.0,311.063417000696,5.0,1.0,phase_2,go,500.0,500.0,1.0,,,,,,,,,cyan,triangle
0.0,6.0,2.0,1.0,6.0,6.0,380.2365910378285,5.0,1.0,phase_2,stop,500.0,500.0,3.0,,,,,,,,,green,diamond
0.0,8.0,4.0,1.0,5.0,5.0,591.748546983581,6.0,1.0,phase_2,go,500.0,450.0,1.0,,,,,,,,,white,I
0.0,2.0,2.0,0.0,6.0,6.0,318.7961080111563,6.0,1.0,phase_2,go,500.0,450.0,1.0,,,,,,,,,blue,cross
0.0,8.0,4.0,1.0,6.0,0.0,0.0,6.0,1.0,phase_2,stop,500.0,450.0,4.0,,,,,,,,,white,I
0.0,8.0,4.0,1.0,5.0,0.0,0.0,6.0,1.0,phase_2,stop,500.0,500.0,4.0,,,,,,,,,white,I
0.0,7.0,3.0,1.0,6.0,6.0,329.9927960033528,6.0,1.0,phase_2,stop,550.0,500.0,3.0,,,,,,,,,magenta,circle
0.0,3.0,3.0,0.0,6.0,6.0,293.4123550076037,6.0,1.0,phase_2,go,550.0,450.0,1.0,,,,,,,,,yellow,flipped triangle
0.0,4.0,4.0,0.0,5.0,5.0,252.7450849884189,6.0,1.0,phase_2,go,550.0,450.0,1.0,,,,,,,,,cyan,triangle
0.0,4.0,4.0,0.0,5.0,5.0,456.9881409988738,6.0,1.0,phase_2,go,550.0,450.0,1.0,,,,,,,,,cyan,triangle
0.0,1.0,1.0,0.0,6.0,6.0,560.6910240021534,6.0,1.0,phase_2,go,550.0,450.0,1.0,,,,,,,,,gray,hexagon
0.0,5.0,1.0,1.0,6.0,0.0,0.0,6.0,1.0,phase_2,stop,550.0,450.0,4.0,,,,,,,,,orange,square
0.0,6.0,2.0,1.0,5.0,0.0,0.0,6.0,1.0,phase_2,stop,550.0,500.0,4.0,,,,,,,,,green,diamond
0.0,3.0,3.0,0.0,6.0,6.0,838.7804529629648,6.0,1.0,phase_2,go,600.0,500.0,1.0,,,,,,,,,yellow,flipped triangle
0.0,3.0,3.0,0.0,5.0,5.0,335.0078180083073,6.0,1.0,phase_2,go,600.0,500.0,1.0,,,,,,,,,yellow,flipped triangle
0.0,1.0,1.0,0.0,6.0,6.0,293.5118329478428,6.0,1.0,phase_2,go,600.0,500.0,1.0,,,,,,,,,gray,hexagon
0.0,2.0,2.0,0.0,6.0,6.0,503.57150996569544,6.0,1.0,phase_2,go,600.0,500.0,1.0,,,,,,,,,blue,cross
0.0,4.0,4.0,0.0,6.0,6.0,597.9338000179268,6.0,1.0,phase_2,go,600.0,500.0,1.0,,,,,,,,,cyan,triangle
0.0,3.0,3.0,0.0,5.0,5.0,887.398025020957,6.0,1.0,phase_2,go,600.0,500.0,1.0,,,,,,,,,yellow,flipped triangle
0.0,3.0,3.0,0.0,5.0,5.0,571.0830999887548,6.0,1.0,phase_2,go,600.0,500.0,1.0,,,,,,,,,yellow,flipped triangle
0.0,6.0,2.0,1.0,6.0,6.0,826.144872000441,6.0,1.0,phase_2,go,600.0,500.0,1.0,,,,,,,,,green,diamond
0.0,6.0,2.0,1.0,5.0,0.0,0.0,6.0,1.0,phase_2,stop,600.0,500.0,4.0,,,,,,,,,green,diamond
0.0,5.0,1.0,1.0,6.0,6.0,921.6408610227518,6.0,1.0,phase_2,go,650.0,500.0,1.0,,,,,,,,,orange,square
0.0,3.0,3.0,0.0,5.0,5.0,843.4773400076665,6.0,1.0,phase_2,go,650.0,500.0,1.0,,,,,,,,,yellow,flipped triangle
0.0,5.0,1.0,1.0,5.0,5.0,483.2365540205501,6.0,1.0,phase_2,stop,650.0,500.0,3.0,,,,,,,,,orange,square
0.0,1.0,1.0,0.0,6.0,6.0,667.4480239744298,6.0,1.0,phase_2,go,600.0,500.0,1.0,,,,,,,,,gray,hexagon
0.0,7.0,3.0,1.0,6.0,6.0,374.7302300180308,6.0,1.0,phase_2,stop,600.0,500.0,3.0,,,,,,,,,magenta,circle
0.0,4.0,4.0,0.0,5.0,5.0,384.5012849778868,6.0,1.0,phase_2,go,600.0,450.0,1.0,,,,,,,,,cyan,triangle
0.0,3.0,3.0,0.0,5.0,5.0,439.4289970514364,6.0,1.0,phase_2,go,600.0,450.0,1.0,,,,,,,,,yellow,flipped triangle
0.0,2.0,2.0,0.0,5.0,5.0,576.3107379898429,6.0,1.0,phase_2,go,600.0,450.0,1.0,,,,,,,,,blue,cross
0.0,4.0,4.0,0.0,5.0,5.0,600.9784379857592,6.0,1.0,phase_2,go,600.0,450.0,1.0,,,,,,,,,cyan,triangle
0.0,2.0,2.0,0.0,6.0,6.0,533.8734670076519,6.0,1.0,phase_2,go,600.0,450.0,1.0,,,,,,,,,blue,cross
0.0,8.0,4.0,1.0,5.0,5.0,661.5326040191576,6.0,1.0,phase_2,stop,600.0,450.0,3.0,,,,,,,,,white,I
0.0,7.0,3.0,1.0,6.0,6.0,396.7625739751383,6.0,1.0,phase_2,stop,550.0,450.0,3.0,,,,,,,,,magenta,circle
0.0,2.0,2.0,0.0,6.0,6.0,709.4959539826959,6.0,1.0,phase_2,go,550.0,400.0,1.0,,,,,,,,,blue,cross
0.0,3.0,3.0,0.0,6.0,6.0,525.7000089623034,6.0,1.0,phase_2,go,550.0,400.0,1.0,,,,,,,,,yellow,flipped triangle
0.0,7.0,3.0,1.0,5.0,0.0,0.0,6.0,1.0,phase_2,stop,550.0,400.0,4.0,,,,,,,,,magenta,circle
0.0,2.0,2.0,0.0,5.0,5.0,730.6265720399097,6.0,1.0,phase_2,go,600.0,400.0,1.0,,,,,,,,,blue,cross
0.0,6.0,2.0,1.0,6.0,0.0,0.0,7.0,1.0,phase_2,stop,600.0,400.0,4.0,,,,,,,,,green,diamond
0.0,4.0,4.0,0.0,6.0,6.0,696.3022649870254,7.0,1.0,phase_2,go,600.0,450.0,1.0,,,,,,,,,cyan,triangle
0.0,2.0,2.0,0.0,6.0,6.0,310.1949840201996,7.0,1.0,phase_2,go,600.0,450.0,1.0,,,,,,,,,blue,cross
0.0,1.0,1.0,0.0,5.0,5.0,392.1564489719458,7.0,1.0,phase_2,go,600.0,450.0,1.0,,,,,,,,,gray,hexagon
0.0,2.0,2.0,0.0,6.0,6.0,255.6431150296703,7.0,1.0,phase_2,go,600.0,450.0,1.0,,,,,,,,,blue,cross
0.0,1.0,1.0,0.0,6.0,6.0,491.1709809675812,7.0,1.0,phase_2,go,600.0,450.0,1.0,,,,,,,,,gray,hexagon
0.0,6.0,2.0,1.0,6.0,6.0,373.2486490043811,7.0,1.0,phase_2,stop,600.0,450.0,3.0,,,,,,,,,green,diamond
0.0,7.0,3.0,1.0,6.0,6.0,1114.9017339921556,7.0,1.0,phase_2,go,600.0,400.0,1.0,,,,,,,,,magenta,circle
0.0,5.0,1.0,1.0,6.0,5.0,611.7492209887132,7.0,1.0,phase_2,stop,600.0,400.0,3.0,,,,,,,,,orange,square
0.0,7.0,3.0,1.0,6.0,6.0,436.4755490096286,7.0,1.0,phase_2,stop,600.0,350.0,3.0,,,,,,,,,magenta,circle
0.0,5.0,1.0,1.0,5.0,5.0,424.8112179921008,7.0,1.0,phase_2,stop,600.0,300.0,3.0,,,,,,,,,orange,square
0.0,1.0,1.0,0.0,5.0,5.0,338.8440320268273,7.0,1.0,phase_2,go,550.0,300.0,1.0,,,,,,,,,gray,hexagon
0.0,4.0,4.0,0.0,5.0,5.0,497.4643100285902,7.0,1.0,phase_2,go,550.0,300.0,1.0,,,,,,,,,cyan,triangle
0.0,5.0,1.0,1.0,6.0,6.0,320.992021006532,7.0,1.0,phase_2,stop,550.0,300.0,3.0,,,,,,,,,orange,square
0.0,6.0,2.0,1.0,6.0,0.0,0.0,7.0,1.0,phase_2,stop,550.0,250.0,4.0,,,,,,,,,green,diamond
0.0,7.0,3.0,1.0,5.0,5.0,686.6392549709417,7.0,1.0,phase_2,stop,550.0,300.0,3.0,,,,,,,,,magenta,circle
0.0,6.0,2.0,1.0,6.0,6.0,375.0864330213517,7.0,1.0,phase_2,go,500.0,300.0,1.0,,,,,,,,,green,diamond
0.0,5.0,1.0,1.0,5.0,0.0,0.0,7.0,1.0,phase_2,stop,500.0,300.0,4.0,,,,,,,,,orange,square
0.0,1.0,1.0,0.0,5.0,5.0,1406.7957529914563,7.0,1.0,phase_2,go,550.0,300.0,1.0,,,,,,,,,gray,hexagon
0.0,2.0,2.0,0.0,5.0,5.0,1188.3699329919182,7.0,1.0,phase_2,go,550.0,300.0,1.0,,,,,,,,,blue,cross
0.0,2.0,2.0,0.0,5.0,5.0,371.2907529552467,7.0,1.0,phase_2,go,550.0,300.0,1.0,,,,,,,,,blue,cross
0.0,6.0,2.0,1.0,5.0,5.0,362.5421770266257,7.0,1.0,phase_2,stop,550.0,300.0,3.0,,,,,,,,,green,diamond
0.0,5.0,1.0,1.0,6.0,6.0,331.547498004511,7.0,1.0,phase_2,stop,500.0,300.0,3.0,,,,,,,,,orange,square
0.0,2.0,2.0,0.0,6.0,6.0,731.2855810159817,7.0,1.0,phase_2,go,500.0,250.0,1.0,,,,,,,,,blue,cross
0.0,1.0,1.0,0.0,6.0,6.0,273.006058007013,7.0,1.0,phase_2,go,500.0,250.0,1.0,,,,,,,,,gray,hexagon
0.0,2.0,2.0,0.0,6.0,6.0,642.5643599941395,7.0,1.0,phase_2,go,500.0,250.0,1.0,,,,,,,,,blue,cross
0.0,3.0,3.0,0.0,6.0,6.0,282.5250520254485,7.0,1.0,phase_2,go,500.0,250.0,1.0,,,,,,,,,yellow,flipped triangle
0.0,7.0,3.0,1.0,5.0,5.0,568.1638219975866,7.0,1.0,phase_2,stop,500.0,250.0,3.0,,,,,,,,,magenta,circle
0.0,8.0,4.0,1.0,6.0,0.0,0.0,7.0,1.0,phase_2,stop,450.0,250.0,4.0,,,,,,,,,white,I
0.0,8.0,4.0,1.0,6.0,0.0,0.0,7.0,1.0,phase_2,stop,450.0,300.0,4.0,,,,,,,,,white,I
0.0,2.0,2.0,0.0,6.0,6.0,957.9693150008096,7.0,1.0,phase_2,go,450.0,350.0,1.0,,,,,,,,,blue,cross
0.0,6.0,2.0,1.0,6.0,6.0,1247.9244630085304,7.0,1.0,phase_2,go,450.0,350.0,1.0,,,,,,,,,green,diamond
0.0,4.0,4.0,0.0,6.0,6.0,540.2388809598051,7.0,1.0,phase_2,go,450.0,350.0,1.0,,,,,,,,,cyan,triangle
0.0,7.0,3.0,1.0,5.0,0.0,0.0,7.0,1.0,phase_2,stop,450.0,350.0,4.0,,,,,,,,,magenta,circle
0.0,4.0,4.0,0.0,6.0,6.0,991.4599520270712,7.0,1.0,phase_2,go,500.0,350.0,1.0,,,,,,,,,cyan,triangle
0.0,5.0,1.0,1.0,5.0,0.0,0.0,7.0,1.0,phase_2,stop,500.0,350.0,4.0,,,,,,,,,orange,square
0.0,4.0,4.0,0.0,6.0,6.0,1172.3855460295454,8.0,1.0,phase_2,go,550.0,350.0,1.0,,,,,,,,,cyan,triangle
0.0,1.0,1.0,0.0,5.0,5.0,283.5750130470842,8.0,1.0,phase_2,go,550.0,350.0,1.0,,,,,,,,,gray,hexagon
0.0,1.0,1.0,0.0,6.0,6.0,232.5659430352971,8.0,1.0,phase_2,go,550.0,350.0,1.0,,,,,,,,,gray,hexagon
0.0,3.0,3.0,0.0,6.0,6.0,344.0957089769654,8.0,1.0,phase_2,go,550.0,350.0,1.0,,,,,,,,,yellow,flipped triangle
0.0,7.0,3.0,1.0,6.0,6.0,287.1123939985409,8.0,1.0,phase_2,stop,550.0,350.0,3.0,,,,,,,,,magenta,circle
0.0,7.0,3.0,1.0,5.0,0.0,0.0,8.0,1.0,phase_2,stop,550.0,300.0,4.0,,,,,,,,,magenta,circle
0.0,8.0,4.0,1.0,6.0,0.0,0.0,8.0,1.0,phase_2,stop,600.0,300.0,4.0,,,,,,,,,white,I
0.0,3.0,3.0,0.0,5.0,5.0,201.1263850145042,8.0,1.0,phase_2,go,600.0,350.0,1.0,,,,,,,,,yellow,flipped triangle
0.0,7.0,3.0,1.0,6.0,6.0,685.7232940383255,8.0,1.0,phase_2,go,600.0,350.0,1.0,,,,,,,,,magenta,circle
0.0,7.0,3.0,1.0,6.0,6.0,312.1791050070897,8.0,1.0,phase_2,stop,600.0,350.0,3.0,,,,,,,,,magenta,circle
0.0,7.0,3.0,1.0,5.0,0.0,0.0,8.0,1.0,phase_2,stop,600.0,300.0,4.0,,,,,,,,,magenta,circle
0.0,8.0,4.0,1.0,6.0,6.0,339.2246720031835,8.0,1.0,phase_2,stop,650.0,300.0,3.0,,,,,,,,,white,I
0.0,2.0,2.0,0.0,6.0,6.0,574.5858179870993,8.0,1.0,phase_2,go,650.0,250.0,1.0,,,,,,,,,blue,cross
0.0,4.0,4.0,0.0,6.0,6.0,379.9347449676133,8.0,1.0,phase_2,go,650.0,250.0,1.0,,,,,,,,,cyan,triangle
0.0,8.0,4.0,1.0,5.0,5.0,619.2203790415078,8.0,1.0,phase_2,stop,650.0,250.0,3.0,,,,,,,,,white,I
0.0,5.0,1.0,1.0,6.0,6.0,377.147483988665,8.0,1.0,phase_2,go,600.0,250.0,1.0,,,,,,,,,orange,square
0.0,4.0,4.0,0.0,5.0,5.0,977.465475036297,8.0,1.0,phase_2,go,600.0,250.0,1.0,,,,,,,,,cyan,triangle
0.0,8.0,4.0,1.0,6.0,6.0,291.8299100128934,8.0,1.0,phase_2,go,600.0,250.0,1.0,,,,,,,,,white,I
0.0,7.0,3.0,1.0,6.0,0.0,0.0,8.0,1.0,phase_2,stop,600.0,250.0,4.0,,,,,,,,,magenta,circle
0.0,2.0,2.0,0.0,5.0,5.0,454.7660389798693,8.0,1.0,phase_2,go,600.0,300.0,1.0,,,,,,,,,blue,cross
0.0,1.0,1.0,0.0,5.0,5.0,673.8953099702485,8.0,1.0,phase_2,go,600.0,300.0,1.0,,,,,,,,,gray,hexagon
0.0,5.0,1.0,1.0,6.0,6.0,321.4317620149813,8.0,1.0,phase_2,go,600.0,300.0,1.0,,,,,,,,,orange,square
0.0,5.0,1.0,1.0,6.0,6.0,341.8781890068203,8.0,1.0,phase_2,stop,600.0,300.0,3.0,,,,,,,,,orange,square
0.0,6.0,2.0,1.0,5.0,5.0,468.7454840168357,8.0,1.0,phase_2,stop,600.0,250.0,3.0,,,,,,,,,green,diamond
0.0,1.0,1.0,0.0,5.0,5.0,572.8988550254144,8.0,1.0,phase_2,go,550.0,250.0,1.0,,,,,,,,,gray,hexagon
0.0,2.0,2.0,0.0,5.0,5.0,365.6913600279949,8.0,1.0,phase_2,go,550.0,250.0,1.0,,,,,,,,,blue,cross
0.0,7.0,3.0,1.0,5.0,0.0,0.0,8.0,1.0,phase_2,go,550.0,250.0,5.0,,,,,,,,,magenta,circle
0.0,6.0,2.0,1.0,5.0,5.0,515.5216720304452,8.0,1.0,phase_2,go,550.0,250.0,1.0,,,,,,,,,green,diamond
0.0,2.0,2.0,0.0,5.0,5.0,371.294355019927,8.0,1.0,phase_2,go,550.0,250.0,1.0,,,,,,,,,blue,cross
0.0,1.0,1.0,0.0,5.0,6.0,315.1176930405199,8.0,1.0,phase_2,go,550.0,250.0,2.0,,,,,,,,,gray,hexagon
0.0,3.0,3.0,0.0,5.0,5.0,355.7539109606296,8.0,1.0,phase_2,go,550.0,250.0,1.0,,,,,,,,,yellow,flipped triangle
0.0,6.0,2.0,1.0,6.0,6.0,315.2004530420527,8.0,1.0,phase_2,stop,550.0,250.0,3.0,,,,,,,,,green,diamond
0.0,2.0,2.0,0.0,5.0,5.0,257.8523670090362,8.0,1.0,phase_2,go,550.0,200.0,1.0,,,,,,,,,blue,cross
0.0,3.0,3.0,0.0,5.0,5.0,537.2777409502305,8.0,1.0,phase_2,go,550.0,200.0,1.0,,,,,,,,,yellow,flipped triangle
0.0,8.0,4.0,1.0,5.0,5.0,418.2089950190857,8.0,1.0,phase_2,stop,550.0,200.0,3.0,,,,,,,,,white,I
0.0,3.0,3.0,0.0,5.0,5.0,285.9868729719892,8.0,1.0,phase_2,go,500.0,200.0,1.0,,,,,,,,,yellow,flipped triangle
0.0,7.0,3.0,1.0,7.0,4.0,2575.1154129975475,1.0,2.0,phase_3,,,,,162.0,3.0,270.0,54.0,216.0,162.0,108.0,324.0,magenta,circle
0.0,2.0,2.0,0.0,7.0,2.0,2501.049000013154,1.0,1.0,phase_3,,,,,34.0,1.0,204.0,34.0,170.0,68.0,136.0,102.0,blue,cross
0.0,3.0,3.0,0.0,7.0,6.0,1895.3050060081296,1.0,1.0,phase_3,,,,,162.0,3.0,54.0,324.0,270.0,216.0,108.0,162.0,yellow,flipped triangle
0.0,1.0,1.0,0.0,7.0,3.0,1938.3898089872675,1.0,1.0,phase_3,,,,,156.0,4.0,195.0,234.0,156.0,78.0,117.0,39.0,gray,hexagon
0.0,6.0,2.0,1.0,7.0,3.0,1952.4377579800785,1.0,1.0,phase_3,,,,,162.0,3.0,108.0,54.0,162.0,324.0,216.0,270.0,green,diamond
0.0,7.0,3.0,1.0,7.0,1.0,1444.9247239972465,1.0,1.0,phase_3,,,,,68.0,2.0,68.0,136.0,204.0,34.0,102.0,170.0,magenta,circle
0.0,4.0,4.0,0.0,7.0,1.0,1459.7532079787925,1.0,1.0,phase_3,,,,,39.0,1.0,39.0,78.0,156.0,234.0,117.0,195.0,cyan,triangle
0.0,3.0,3.0,0.0,7.0,5.0,1445.9824800142087,1.0,1.0,phase_3,,,,,102.0,3.0,204.0,170.0,34.0,68.0,102.0,136.0,yellow,flipped triangle
0.0,4.0,4.0,0.0,7.0,3.0,2208.929950953461,1.0,1.0,phase_3,,,,,294.0,6.0,98.0,147.0,294.0,196.0,49.0,245.0,cyan,triangle
0.0,1.0,1.0,0.0,7.0,6.0,2090.486087021418,1.0,1.0,phase_3,,,,,245.0,5.0,196.0,49.0,294.0,98.0,147.0,245.0,gray,hexagon
0.0,5.0,1.0,1.0,7.0,3.0,2906.988549977541,1.0,2.0,phase_3,,,,,264.0,6.0,88.0,44.0,264.0,132.0,220.0,176.0,orange,square
0.0,7.0,3.0,1.0,7.0,5.0,3171.476059011184,1.0,1.0,phase_3,,,,,98.0,2.0,196.0,49.0,294.0,147.0,98.0,245.0,magenta,circle
0.0,3.0,3.0,0.0,7.0,2.0,3317.989244009368,1.0,1.0,phase_3,,,,,117.0,3.0,78.0,117.0,234.0,156.0,195.0,39.0,yellow,flipped triangle
0.0,3.0,3.0,0.0,7.0,6.0,2453.5280150012118,1.0,1.0,phase_3,,,,,324.0,6.0,54.0,216.0,270.0,162.0,108.0,324.0,yellow,flipped triangle
0.0,6.0,2.0,1.0,7.0,6.0,1631.9378850166686,1.0,1.0,phase_3,,,,,234.0,6.0,78.0,39.0,156.0,117.0,195.0,234.0,green,diamond
0.0,8.0,4.0,1.0,7.0,6.0,2499.0095249959268,1.0,1.0,phase_3,,,,,117.0,3.0,234.0,39.0,195.0,78.0,156.0,117.0,white,I
0.0,5.0,1.0,1.0,7.0,2.0,3085.843915992882,1.0,1.0,phase_3,,,,,39.0,1.0,78.0,39.0,234.0,195.0,117.0,156.0,orange,square
0.0,2.0,2.0,0.0,7.0,4.0,1820.8384980098344,1.0,1.0,phase_3,,,,,78.0,2.0,195.0,39.0,234.0,78.0,117.0,156.0,blue,cross
0.0,7.0,3.0,1.0,7.0,1.0,1637.7935910131782,1.0,1.0,phase_3,,,,,54.0,1.0,54.0,162.0,324.0,270.0,216.0,108.0,magenta,circle
0.0,1.0,1.0,0.0,7.0,3.0,1663.428711995948,1.0,1.0,phase_3,,,,,88.0,2.0,44.0,132.0,88.0,264.0,176.0,220.0,gray,hexagon
0.0,8.0,4.0,1.0,7.0,6.0,3264.1607269761157,2.0,1.0,phase_3,,,,,234.0,6.0,39.0,195.0,117.0,156.0,78.0,234.0,white,I
0.0,7.0,3.0,1.0,7.0,3.0,1820.9913640166635,2.0,1.0,phase_3,,,,,156.0,4.0,78.0,195.0,156.0,39.0,117.0,234.0,magenta,circle
0.0,2.0,2.0,0.0,7.0,1.0,2157.74556301767,2.0,1.0,phase_3,,,,,195.0,5.0,195.0,117.0,78.0,39.0,234.0,156.0,blue,cross
0.0,8.0,4.0,1.0,7.0,6.0,2006.638494960498,2.0,1.0,phase_3,,,,,216.0,4.0,270.0,108.0,162.0,54.0,324.0,216.0,white,I
0.0,4.0,4.0,0.0,7.0,1.0,2439.8734989808872,2.0,1.0,phase_3,,,,,176.0,4.0,176.0,220.0,132.0,88.0,264.0,44.0,cyan,triangle
0.0,6.0,2.0,1.0,7.0,1.0,1872.042621020228,2.0,1.0,phase_3,,,,,220.0,5.0,220.0,176.0,264.0,88.0,44.0,132.0,green,diamond
0.0,7.0,3.0,1.0,7.0,1.0,2745.159112964757,2.0,1.0,phase_3,,,,,196.0,4.0,196.0,49.0,294.0,98.0,147.0,245.0,magenta,circle
0.0,4.0,4.0,0.0,7.0,2.0,2948.8985289935954,2.0,1.0,phase_3,,,,,234.0,6.0,78.0,234.0,195.0,156.0,39.0,117.0,cyan,triangle
0.0,2.0,2.0,0.0,7.0,1.0,2479.1683420189656,2.0,1.0,phase_3,,,,,264.0,6.0,264.0,88.0,44.0,132.0,220.0,176.0,blue,cross
0.0,3.0,3.0,0.0,7.0,1.0,3373.218340042513,2.0,1.0,phase_3,,,,,68.0,2.0,68.0,204.0,102.0,136.0,170.0,34.0,yellow,flipped triangle
0.0,3.0,3.0,0.0,7.0,1.0,1677.9441309627146,2.0,1.0,phase_3,,,,,234.0,6.0,234.0,117.0,195.0,156.0,78.0,39.0,yellow,flipped triangle
0.0,1.0,1.0,0.0,7.0,3.0,2090.9020620165397,2.0,1.0,phase_3,,,,,102.0,3.0,34.0,68.0,102.0,136.0,204.0,170.0,gray,hexagon
0.0,8.0,4.0,1.0,7.0,1.0,1896.3318309979516,2.0,1.0,phase_3,,,,,204.0,6.0,204.0,136.0,68.0,34.0,102.0,170.0,white,I
0.0,6.0,2.0,1.0,7.0,4.0,3253.54696897557,2.0,1.0,phase_3,,,,,264.0,6.0,176.0,88.0,44.0,264.0,132.0,220.0,green,diamond
0.0,8.0,4.0,1.0,7.0,4.0,2534.471294027753,2.0,1.0,phase_3,,,,,204.0,6.0,102.0,68.0,34.0,204.0,170.0,136.0,white,I
0.0,1.0,1.0,0.0,7.0,2.0,1870.475265022833,2.0,1.0,phase_3,,,,,108.0,2.0,324.0,108.0,216.0,54.0,162.0,270.0,gray,hexagon
0.0,4.0,4.0,0.0,7.0,5.0,2377.3902950342745,2.0,1.0,phase_3,,,,,170.0,5.0,68.0,204.0,34.0,136.0,170.0,102.0,cyan,triangle
0.0,5.0,1.0,1.0,7.0,1.0,2183.988174016122,2.0,1.0,phase_3,,,,,270.0,5.0,270.0,54.0,324.0,108.0,162.0,216.0,orange,square
0.0,2.0,2.0,0.0,7.0,4.0,3403.3195739611983,2.0,1.0,phase_3,,,,,245.0,5.0,49.0,196.0,294.0,245.0,98.0,147.0,blue,cross
0.0,8.0,4.0,1.0,7.0,1.0,3219.9557629646733,2.0,1.0,phase_3,,,,,270.0,5.0,270.0,54.0,108.0,216.0,324.0,162.0,white,I
0.0,4.0,4.0,0.0,7.0,4.0,2101.639357046224,3.0,1.0,phase_3,,,,,294.0,6.0,49.0,98.0,245.0,294.0,196.0,147.0,cyan,triangle
0.0,2.0,2.0,0.0,7.0,5.0,2951.0069059906527,3.0,1.0,phase_3,,,,,102.0,3.0,136.0,68.0,34.0,170.0,102.0,204.0,blue,cross
0.0,6.0,2.0,1.0,7.0,5.0,2647.669100027997,3.0,1.0,phase_3,,,,,245.0,5.0,49.0,98.0,294.0,147.0,245.0,196.0,green,diamond
0.0,7.0,3.0,1.0,7.0,2.0,2123.2585099642165,3.0,1.0,phase_3,,,,,34.0,1.0,68.0,34.0,136.0,204.0,102.0,170.0,magenta,circle
0.0,8.0,4.0,1.0,7.0,3.0,2915.946536057163,3.0,1.0,phase_3,,,,,220.0,5.0,132.0,176.0,220.0,44.0,88.0,264.0,white,I
0.0,4.0,4.0,0.0,7.0,3.0,2718.65696599707,3.0,1.0,phase_3,,,,,170.0,5.0,204.0,102.0,170.0,34.0,68.0,136.0,cyan,triangle
0.0,6.0,2.0,1.0,7.0,1.0,3663.717017043382,3.0,1.0,phase_3,,,,,195.0,5.0,195.0,39.0,117.0,234.0,78.0,156.0,green,diamond
0.0,3.0,3.0,0.0,7.0,3.0,2574.006028007716,3.0,1.0,phase_3,,,,,176.0,4.0,88.0,264.0,176.0,44.0,220.0,132.0,yellow,flipped triangle
0.0,8.0,4.0,1.0,7.0,5.0,3753.7404249887913,3.0,1.0,phase_3,,,,,176.0,4.0,220.0,44.0,264.0,132.0,176.0,88.0,white,I
0.0,2.0,2.0,0.0,7.0,2.0,668.6001199996099,3.0,2.0,phase_3,,,,,216.0,4.0,162.0,216.0,54.0,108.0,324.0,270.0,blue,cross
0.0,3.0,3.0,0.0,7.0,5.0,2733.091511996463,3.0,1.0,phase_3,,,,,147.0,3.0,98.0,245.0,294.0,196.0,147.0,49.0,yellow,flipped triangle
0.0,2.0,2.0,0.0,7.0,3.0,1854.122560005635,3.0,1.0,phase_3,,,,,294.0,6.0,147.0,245.0,294.0,98.0,49.0,196.0,blue,cross
0.0,2.0,2.0,0.0,7.0,4.0,1569.0525259706192,3.0,1.0,phase_3,,,,,108.0,2.0,54.0,324.0,270.0,108.0,216.0,162.0,blue,cross
0.0,4.0,4.0,0.0,7.0,2.0,2735.037318023388,3.0,1.0,phase_3,,,,,176.0,4.0,88.0,176.0,44.0,132.0,220.0,264.0,cyan,triangle
0.0,2.0,2.0,0.0,7.0,3.0,3491.947665985208,3.0,1.0,phase_3,,,,,88.0,2.0,264.0,220.0,88.0,176.0,132.0,44.0,blue,cross
0.0,7.0,3.0,1.0,7.0,4.0,2073.8791179610416,3.0,1.0,phase_3,,,,,132.0,3.0,220.0,44.0,88.0,132.0,264.0,176.0,magenta,circle
0.0,3.0,3.0,0.0,7.0,5.0,3131.794097018428,3.0,1.0,phase_3,,,,,132.0,3.0,176.0,44.0,88.0,220.0,132.0,264.0,yellow,flipped triangle
0.0,5.0,1.0,1.0,7.0,1.0,1933.2860689610245,3.0,1.0,phase_3,,,,,68.0,2.0,68.0,170.0,136.0,102.0,204.0,34.0,orange,square
0.0,7.0,3.0,1.0,7.0,5.0,2927.7221240336075,3.0,1.0,phase_3,,,,,78.0,2.0,156.0,234.0,117.0,195.0,78.0,39.0,magenta,circle
0.0,1.0,1.0,0.0,7.0,6.0,3386.9531030068174,3.0,1.0,phase_3,,,,,54.0,1.0,324.0,216.0,162.0,108.0,270.0,54.0,gray,hexagon
0.0,1.0,1.0,0.0,7.0,2.0,2159.883081971202,4.0,1.0,phase_3,,,,,44.0,1.0,176.0,44.0,88.0,220.0,132.0,264.0,gray,hexagon
0.0,6.0,2.0,1.0,7.0,2.0,3752.719950978644,4.0,1.0,phase_3,,,,,196.0,4.0,147.0,196.0,294.0,245.0,49.0,98.0,green,diamond
0.0,6.0,2.0,1.0,7.0,2.0,2075.4971019923687,4.0,1.0,phase_3,,,,,170.0,5.0,102.0,170.0,68.0,34.0,136.0,204.0,green,diamond
0.0,7.0,3.0,1.0,7.0,1.0,2050.696417049039,4.0,1.0,phase_3,,,,,132.0,3.0,132.0,44.0,264.0,220.0,176.0,88.0,magenta,circle
0.0,5.0,1.0,1.0,7.0,5.0,2011.325263010804,4.0,1.0,phase_3,,,,,216.0,4.0,108.0,54.0,324.0,162.0,216.0,270.0,orange,square
0.0,8.0,4.0,1.0,7.0,5.0,2046.525156009011,4.0,1.0,phase_3,,,,,245.0,5.0,196.0,98.0,294.0,147.0,245.0,49.0,white,I
0.0,5.0,1.0,1.0,7.0,3.0,1416.3074329844676,4.0,1.0,phase_3,,,,,196.0,4.0,147.0,98.0,196.0,294.0,245.0,49.0,orange,square
0.0,5.0,1.0,1.0,7.0,6.0,3112.645043001976,4.0,1.0,phase_3,,,,,195.0,5.0,156.0,39.0,234.0,78.0,117.0,195.0,orange,square
0.0,4.0,4.0,0.0,7.0,2.0,3106.4194279606454,4.0,1.0,phase_3,,,,,108.0,2.0,216.0,108.0,324.0,54.0,270.0,162.0,cyan,triangle
0.0,1.0,1.0,0.0,7.0,5.0,2202.2039679577574,4.0,1.0,phase_3,,,,,98.0,2.0,147.0,294.0,245.0,49.0,98.0,196.0,gray,hexagon
0.0,5.0,1.0,1.0,7.0,2.0,2229.3264879845083,4.0,1.0,phase_3,,,,,98.0,2.0,294.0,98.0,49.0,196.0,147.0,245.0,orange,square
0.0,5.0,1.0,1.0,7.0,1.0,2592.167691967916,4.0,1.0,phase_3,,,,,102.0,3.0,102.0,136.0,204.0,34.0,170.0,68.0,orange,square
0.0,5.0,1.0,1.0,7.0,5.0,1806.797961005941,4.0,1.0,phase_3,,,,,132.0,3.0,176.0,44.0,264.0,88.0,132.0,220.0,orange,square
0.0,1.0,1.0,0.0,7.0,1.0,1816.631925990805,4.0,1.0,phase_3,,,,,68.0,2.0,68.0,204.0,102.0,34.0,170.0,136.0,gray,hexagon
0.0,4.0,4.0,0.0,7.0,1.0,1810.9904309967533,4.0,1.0,phase_3,,,,,270.0,5.0,270.0,162.0,324.0,216.0,54.0,108.0,cyan,triangle
0.0,6.0,2.0,1.0,7.0,2.0,2213.383812981192,4.0,1.0,phase_3,,,,,324.0,6.0,216.0,324.0,54.0,270.0,162.0,108.0,green,diamond
0.0,1.0,1.0,0.0,7.0,1.0,1957.7891519875263,4.0,1.0,phase_3,,,,,78.0,2.0,78.0,156.0,234.0,117.0,195.0,39.0,gray,hexagon
0.0,8.0,4.0,1.0,7.0,1.0,2294.787182006985,4.0,1.0,phase_3,,,,,196.0,4.0,196.0,147.0,49.0,245.0,294.0,98.0,white,I
0.0,3.0,3.0,0.0,7.0,5.0,2302.6297169853933,4.0,1.0,phase_3,,,,,245.0,5.0,49.0,147.0,294.0,196.0,245.0,98.0,yellow,flipped triangle
0.0,6.0,2.0,1.0,7.0,3.0,2899.201327993069,4.0,1.0,phase_3,,,,,170.0,5.0,34.0,136.0,170.0,68.0,204.0,102.0,green,diamond
