raw_reward_magnitude,stim_reward,stepwise_reward_magnitude,paired_with_stopping,quadrant,response,reaction_time,block,num_trial_presentations,which_part,stop_signal_trial_type,left_SSD,right_SSD,accuracy,chosen_bidding_amount,chosen_bidding_level,possible_bid_1,possible_bid_2,possible_bid_3,possible_bid_4,possible_bid_5,possible_bid_6,color_text,shape_text
196.0,7.0,3.0,1.0,1.0,1.0,409.6477200000663,1.0,1.0,part_1,,,,,,,,,,,,,blue,I
210.0,3.0,3.0,0.0,1.0,1.0,416.2923359999695,1.0,1.0,part_1,,,,,,,,,,,,,cyan,flipped triangle
206.0,7.0,3.0,1.0,2.0,2.0,341.8400249993283,1.0,1.0,part_1,,,,,,,,,,,,,blue,I
81.0,6.0,2.0,1.0,4.0,4.0,376.5829220001251,1.0,1.0,part_1,,,,,,,,,,,,,gray,diamond
220.0,3.0,3.0,0.0,2.0,2.0,324.0125490001446,1.0,1.0,part_1,,,,,,,,,,,,,cyan,flipped triangle
204.0,7.0,3.0,1.0,2.0,2.0,361.0277489997315,1.0,1.0,part_1,,,,,,,,,,,,,blue,I
181.0,3.0,3.0,0.0,2.0,2.0,320.7213159994353,1.0,1.0,part_1,,,,,,,,,,,,,cyan,flipped triangle
405.0,8.0,4.0,1.0,1.0,1.0,405.4481700004544,1.0,1.0,part_1,,,,,,,,,,,,,green,cross
0.0,4.0,0.0,0.0,4.0,4.0,419.0643539996017,1.0,1.0,part_1,,,,,,,,,,,,,magenta,square
49.0,1.0,1.0,0.0,2.0,2.0,286.1047579999649,1.0,1.0,part_1,,,,,,,,,,,,,yellow,triangle
113.0,2.0,2.0,0.0,1.0,1.0,377.0546109999486,1.0,1.0,part_1,,,,,,,,,,,,,orange,circle
424.0,4.0,4.0,0.0,4.0,4.0,393.0611360001421,1.0,1.0,part_1,,,,,,,,,,,,,magenta,square
68.0,1.0,1.0,0.0,4.0,4.0,356.5052419999119,1.0,1.0,part_1,,,,,,,,,,,,,yellow,triangle
376.0,8.0,4.0,1.0,1.0,1.0,310.558774999663,1.0,1.0,part_1,,,,,,,,,,,,,green,cross
117.0,2.0,2.0,0.0,3.0,3.0,347.6108019995081,1.0,1.0,part_1,,,,,,,,,,,,,orange,circle
186.0,7.0,3.0,1.0,1.0,1.0,331.7130830000678,1.0,1.0,part_1,,,,,,,,,,,,,blue,I
117.0,2.0,2.0,0.0,4.0,4.0,318.5341739999785,1.0,1.0,part_1,,,,,,,,,,,,,orange,circle
392.0,4.0,4.0,0.0,4.0,4.0,330.2650289997473,1.0,1.0,part_1,,,,,,,,,,,,,magenta,square
187.0,3.0,3.0,0.0,2.0,2.0,278.3053769999242,1.0,1.0,part_1,,,,,,,,,,,,,cyan,flipped triangle
77.0,6.0,2.0,1.0,4.0,4.0,536.746636999851,1.0,2.0,part_1,,,,,,,,,,,,,gray,diamond
398.0,4.0,4.0,0.0,3.0,3.0,479.8207719995844,1.0,1.0,part_1,,,,,,,,,,,,,magenta,square
0.0,7.0,0.0,1.0,3.0,3.0,394.2065150004055,1.0,1.0,part_1,,,,,,,,,,,,,blue,I
184.0,3.0,3.0,0.0,3.0,3.0,382.9868909997458,1.0,1.0,part_1,,,,,,,,,,,,,cyan,flipped triangle
417.0,8.0,4.0,1.0,1.0,1.0,437.8355310000188,1.0,1.0,part_1,,,,,,,,,,,,,green,cross
96.0,6.0,2.0,1.0,4.0,4.0,482.9677589996208,1.0,1.0,part_1,,,,,,,,,,,,,gray,diamond
0.0,8.0,0.0,1.0,1.0,1.0,397.435564999796,1.0,1.0,part_1,,,,,,,,,,,,,green,cross
62.0,1.0,1.0,0.0,4.0,4.0,393.2699990000401,1.0,1.0,part_1,,,,,,,,,,,,,yellow,triangle
406.0,8.0,4.0,1.0,3.0,3.0,389.9542629997086,1.0,1.0,part_1,,,,,,,,,,,,,green,cross
224.0,7.0,3.0,1.0,2.0,2.0,427.5842709994322,1.0,1.0,part_1,,,,,,,,,,,,,blue,I
0.0,5.0,0.0,1.0,2.0,2.0,422.4426580003637,1.0,1.0,part_1,,,,,,,,,,,,,white,hexagon
379.0,4.0,4.0,0.0,3.0,3.0,428.1033190000016,1.0,1.0,part_1,,,,,,,,,,,,,magenta,square
390.0,8.0,4.0,1.0,4.0,4.0,425.7622039995112,1.0,1.0,part_1,,,,,,,,,,,,,green,cross
0.0,5.0,0.0,1.0,2.0,2.0,452.5446679999731,1.0,1.0,part_1,,,,,,,,,,,,,white,hexagon
397.0,4.0,4.0,0.0,1.0,1.0,332.3566620001656,1.0,1.0,part_1,,,,,,,,,,,,,magenta,square
186.0,7.0,3.0,1.0,4.0,4.0,518.9215669997793,1.0,1.0,part_1,,,,,,,,,,,,,blue,I
219.0,7.0,3.0,1.0,4.0,4.0,380.6966339998325,1.0,1.0,part_1,,,,,,,,,,,,,blue,I
120.0,6.0,2.0,1.0,2.0,2.0,439.7019520001777,1.0,1.0,part_1,,,,,,,,,,,,,gray,diamond
396.0,8.0,4.0,1.0,2.0,2.0,350.9610279998014,1.0,1.0,part_1,,,,,,,,,,,,,green,cross
184.0,7.0,3.0,1.0,3.0,3.0,457.8712869997616,1.0,1.0,part_1,,,,,,,,,,,,,blue,I
41.0,1.0,1.0,0.0,2.0,2.0,462.8066470004341,1.0,1.0,part_1,,,,,,,,,,,,,yellow,triangle
94.0,2.0,2.0,0.0,4.0,4.0,522.3572080003578,1.0,1.0,part_1,,,,,,,,,,,,,orange,circle
93.0,2.0,2.0,0.0,3.0,3.0,398.4364970001479,1.0,1.0,part_1,,,,,,,,,,,,,orange,circle
28.0,1.0,1.0,0.0,3.0,3.0,427.5371510002514,1.0,1.0,part_1,,,,,,,,,,,,,yellow,triangle
93.0,6.0,2.0,1.0,3.0,3.0,400.8231679999881,1.0,1.0,part_1,,,,,,,,,,,,,gray,diamond
178.0,3.0,3.0,0.0,3.0,3.0,389.3190770004366,1.0,1.0,part_1,,,,,,,,,,,,,cyan,flipped triangle
209.0,7.0,3.0,1.0,4.0,4.0,363.1085810002332,1.0,1.0,part_1,,,,,,,,,,,,,blue,I
58.0,1.0,1.0,0.0,1.0,1.0,384.4875609993323,1.0,1.0,part_1,,,,,,,,,,,,,yellow,triangle
387.0,8.0,4.0,1.0,3.0,3.0,364.6301349999703,1.0,1.0,part_1,,,,,,,,,,,,,green,cross
70.0,5.0,1.0,1.0,3.0,3.0,401.0577280005236,1.0,1.0,part_1,,,,,,,,,,,,,white,hexagon
68.0,5.0,1.0,1.0,1.0,1.0,455.0402060003762,1.0,1.0,part_1,,,,,,,,,,,,,white,hexagon
35.0,1.0,1.0,0.0,2.0,2.0,441.8056009999418,1.0,1.0,part_1,,,,,,,,,,,,,yellow,triangle
115.0,2.0,2.0,0.0,2.0,2.0,422.1418369997991,1.0,1.0,part_1,,,,,,,,,,,,,orange,circle
62.0,5.0,1.0,1.0,1.0,1.0,371.4645729996846,1.0,1.0,part_1,,,,,,,,,,,,,white,hexagon
220.0,7.0,3.0,1.0,2.0,2.0,441.8315539996911,1.0,1.0,part_1,,,,,,,,,,,,,blue,I
114.0,6.0,2.0,1.0,1.0,1.0,415.526731000682,1.0,1.0,part_1,,,,,,,,,,,,,gray,diamond
210.0,7.0,3.0,1.0,4.0,4.0,400.8859140003551,1.0,1.0,part_1,,,,,,,,,,,,,blue,I
212.0,7.0,3.0,1.0,1.0,1.0,437.3421749996851,1.0,1.0,part_1,,,,,,,,,,,,,blue,I
115.0,2.0,2.0,0.0,3.0,3.0,362.3221939997165,1.0,1.0,part_1,,,,,,,,,,,,,orange,circle
388.0,4.0,4.0,0.0,3.0,3.0,366.6537549997883,1.0,1.0,part_1,,,,,,,,,,,,,magenta,square
212.0,3.0,3.0,0.0,4.0,4.0,436.398324000038,1.0,1.0,part_1,,,,,,,,,,,,,cyan,flipped triangle
49.0,5.0,1.0,1.0,1.0,1.0,391.7613009998604,1.0,1.0,part_1,,,,,,,,,,,,,white,hexagon
206.0,7.0,3.0,1.0,2.0,2.0,309.6674009993876,1.0,1.0,part_1,,,,,,,,,,,,,blue,I
417.0,4.0,4.0,0.0,1.0,1.0,395.9628339998744,1.0,1.0,part_1,,,,,,,,,,,,,magenta,square
70.0,1.0,1.0,0.0,2.0,2.0,295.060831000228,1.0,1.0,part_1,,,,,,,,,,,,,yellow,triangle
424.0,8.0,4.0,1.0,3.0,3.0,355.053332999887,1.0,1.0,part_1,,,,,,,,,,,,,green,cross
49.0,5.0,1.0,1.0,1.0,1.0,310.7158149996394,1.0,1.0,part_1,,,,,,,,,,,,,white,hexagon
110.0,6.0,2.0,1.0,1.0,1.0,374.9896730005275,1.0,1.0,part_1,,,,,,,,,,,,,gray,diamond
58.0,1.0,1.0,0.0,1.0,1.0,416.3881389995367,1.0,1.0,part_1,,,,,,,,,,,,,yellow,triangle
220.0,7.0,3.0,1.0,2.0,2.0,398.9861769996423,1.0,1.0,part_1,,,,,,,,,,,,,blue,I
412.0,8.0,4.0,1.0,1.0,1.0,361.7673490007291,1.0,1.0,part_1,,,,,,,,,,,,,green,cross
0.0,1.0,0.0,0.0,4.0,4.0,400.5041330001404,1.0,1.0,part_1,,,,,,,,,,,,,yellow,triangle
422.0,8.0,4.0,1.0,2.0,2.0,396.2567870003113,1.0,1.0,part_1,,,,,,,,,,,,,green,cross
84.0,2.0,2.0,0.0,4.0,4.0,409.2300869997416,1.0,1.0,part_1,,,,,,,,,,,,,orange,circle
0.0,8.0,0.0,1.0,1.0,1.0,460.5068310002025,1.0,1.0,part_1,,,,,,,,,,,,,green,cross
390.0,4.0,4.0,0.0,3.0,3.0,420.7619030003116,1.0,1.0,part_1,,,,,,,,,,,,,magenta,square
223.0,7.0,3.0,1.0,4.0,4.0,344.7001920003458,1.0,1.0,part_1,,,,,,,,,,,,,blue,I
182.0,3.0,3.0,0.0,2.0,2.0,458.7445810002464,1.0,1.0,part_1,,,,,,,,,,,,,cyan,flipped triangle
75.0,2.0,2.0,0.0,2.0,2.0,433.1977880001432,1.0,1.0,part_1,,,,,,,,,,,,,orange,circle
203.0,7.0,3.0,1.0,3.0,3.0,384.2128289998072,1.0,1.0,part_1,,,,,,,,,,,,,blue,I
72.0,1.0,1.0,0.0,1.0,1.0,323.8880039998548,1.0,1.0,part_1,,,,,,,,,,,,,yellow,triangle
0.0,1.0,0.0,0.0,1.0,1.0,365.1010149997091,1.0,1.0,part_1,,,,,,,,,,,,,yellow,triangle
35.0,5.0,1.0,1.0,3.0,3.0,516.9412469995223,1.0,1.0,part_1,,,,,,,,,,,,,white,hexagon
68.0,5.0,1.0,1.0,2.0,2.0,377.6526209994699,1.0,1.0,part_1,,,,,,,,,,,,,white,hexagon
28.0,5.0,1.0,1.0,2.0,2.0,423.0891520001023,1.0,1.0,part_1,,,,,,,,,,,,,white,hexagon
96.0,2.0,2.0,0.0,2.0,2.0,491.2317260004784,1.0,1.0,part_1,,,,,,,,,,,,,orange,circle
0.0,1.0,0.0,0.0,4.0,4.0,429.5515969997723,1.0,1.0,part_1,,,,,,,,,,,,,yellow,triangle
99.0,2.0,2.0,0.0,4.0,4.0,451.1606470005063,1.0,1.0,part_1,,,,,,,,,,,,,orange,circle
384.0,4.0,4.0,0.0,1.0,1.0,438.0242770002951,1.0,1.0,part_1,,,,,,,,,,,,,magenta,square
0.0,6.0,0.0,1.0,3.0,3.0,436.746086000312,1.0,1.0,part_1,,,,,,,,,,,,,gray,diamond
84.0,6.0,2.0,1.0,2.0,2.0,335.3750610003772,1.0,1.0,part_1,,,,,,,,,,,,,gray,diamond
105.0,6.0,2.0,1.0,3.0,3.0,452.9343359999984,1.0,1.0,part_1,,,,,,,,,,,,,gray,diamond
66.0,1.0,1.0,0.0,1.0,1.0,386.942357999942,1.0,1.0,part_1,,,,,,,,,,,,,yellow,triangle
30.0,5.0,1.0,1.0,4.0,4.0,335.3870250002728,1.0,1.0,part_1,,,,,,,,,,,,,white,hexagon
206.0,3.0,3.0,0.0,2.0,2.0,331.9341590004114,1.0,1.0,part_1,,,,,,,,,,,,,cyan,flipped triangle
60.0,5.0,1.0,1.0,4.0,4.0,483.1291130003592,1.0,1.0,part_1,,,,,,,,,,,,,white,hexagon
399.0,8.0,4.0,1.0,1.0,1.0,374.5624489993133,1.0,1.0,part_1,,,,,,,,,,,,,green,cross
420.0,4.0,4.0,0.0,4.0,4.0,352.4197149999963,1.0,1.0,part_1,,,,,,,,,,,,,magenta,square
28.0,5.0,1.0,1.0,3.0,3.0,351.8363110006248,1.0,1.0,part_1,,,,,,,,,,,,,white,hexagon
406.0,4.0,4.0,0.0,4.0,4.0,356.1161950001406,1.0,1.0,part_1,,,,,,,,,,,,,magenta,square
0.0,6.0,0.0,1.0,3.0,3.0,378.5535260003598,1.0,1.0,part_1,,,,,,,,,,,,,gray,diamond
399.0,4.0,4.0,0.0,1.0,1.0,438.4626310002204,2.0,1.0,part_1,,,,,,,,,,,,,magenta,square
120.0,2.0,2.0,0.0,4.0,4.0,461.7864749998261,2.0,1.0,part_1,,,,,,,,,,,,,orange,circle
101.0,6.0,2.0,1.0,2.0,2.0,287.3251060000257,2.0,1.0,part_1,,,,,,,,,,,,,gray,diamond
68.0,1.0,1.0,0.0,4.0,4.0,365.5748299997867,2.0,1.0,part_1,,,,,,,,,,,,,yellow,triangle
413.0,4.0,4.0,0.0,1.0,1.0,324.0948849997949,2.0,1.0,part_1,,,,,,,,,,,,,magenta,square
179.0,7.0,3.0,1.0,4.0,4.0,409.0551509998477,2.0,1.0,part_1,,,,,,,,,,,,,blue,I
406.0,4.0,4.0,0.0,3.0,3.0,396.0294179996708,2.0,1.0,part_1,,,,,,,,,,,,,magenta,square
93.0,2.0,2.0,0.0,2.0,2.0,367.1402430009038,2.0,1.0,part_1,,,,,,,,,,,,,orange,circle
184.0,7.0,3.0,1.0,2.0,2.0,395.9082629999102,2.0,1.0,part_1,,,,,,,,,,,,,blue,I
199.0,7.0,3.0,1.0,3.0,3.0,441.7670439997891,2.0,1.0,part_1,,,,,,,,,,,,,blue,I
64.0,1.0,1.0,0.0,3.0,3.0,484.6875639996142,2.0,1.0,part_1,,,,,,,,,,,,,yellow,triangle
197.0,7.0,3.0,1.0,4.0,4.0,403.8431400003901,2.0,1.0,part_1,,,,,,,,,,,,,blue,I
0.0,4.0,0.0,0.0,4.0,4.0,391.1717969995152,2.0,1.0,part_1,,,,,,,,,,,,,magenta,square
384.0,8.0,4.0,1.0,3.0,3.0,390.3600939993339,2.0,1.0,part_1,,,,,,,,,,,,,green,cross
202.0,3.0,3.0,0.0,3.0,3.0,399.76350399956567,2.0,1.0,part_1,,,,,,,,,,,,,cyan,flipped triangle
221.0,3.0,3.0,0.0,1.0,1.0,323.9395399996283,2.0,1.0,part_1,,,,,,,,,,,,,cyan,flipped triangle
380.0,4.0,4.0,0.0,2.0,2.0,250.32293899948849,2.0,1.0,part_1,,,,,,,,,,,,,magenta,square
410.0,4.0,4.0,0.0,1.0,1.0,441.5502339998056,2.0,1.0,part_1,,,,,,,,,,,,,magenta,square
117.0,6.0,2.0,1.0,2.0,2.0,338.735182000164,2.0,1.0,part_1,,,,,,,,,,,,,gray,diamond
186.0,3.0,3.0,0.0,3.0,3.0,343.6192810004286,2.0,1.0,part_1,,,,,,,,,,,,,cyan,flipped triangle
0.0,2.0,0.0,0.0,1.0,1.0,355.8381450002343,2.0,1.0,part_1,,,,,,,,,,,,,orange,circle
86.0,2.0,2.0,0.0,1.0,1.0,474.8932430002242,2.0,1.0,part_1,,,,,,,,,,,,,orange,circle
51.0,5.0,1.0,1.0,3.0,3.0,520.8181849993707,2.0,1.0,part_1,,,,,,,,,,,,,white,hexagon
215.0,7.0,3.0,1.0,4.0,4.0,340.5984740002168,2.0,1.0,part_1,,,,,,,,,,,,,blue,I
121.0,2.0,2.0,0.0,4.0,4.0,377.1054600001662,2.0,1.0,part_1,,,,,,,,,,,,,orange,circle
410.0,8.0,4.0,1.0,4.0,4.0,373.9873960003024,2.0,1.0,part_1,,,,,,,,,,,,,green,cross
199.0,3.0,3.0,0.0,4.0,4.0,323.7872119998428,2.0,1.0,part_1,,,,,,,,,,,,,cyan,flipped triangle
224.0,3.0,3.0,0.0,2.0,2.0,359.5592490000854,2.0,1.0,part_1,,,,,,,,,,,,,cyan,flipped triangle
417.0,4.0,4.0,0.0,2.0,2.0,329.1431659999944,2.0,1.0,part_1,,,,,,,,,,,,,magenta,square
40.0,5.0,1.0,1.0,1.0,1.0,294.19609800061147,2.0,1.0,part_1,,,,,,,,,,,,,white,hexagon
225.0,3.0,3.0,0.0,3.0,3.0,302.4010799999814,2.0,1.0,part_1,,,,,,,,,,,,,cyan,flipped triangle
0.0,6.0,0.0,1.0,3.0,3.0,363.3572620001359,2.0,1.0,part_1,,,,,,,,,,,,,gray,diamond
420.0,4.0,4.0,0.0,3.0,3.0,371.7631780000374,2.0,1.0,part_1,,,,,,,,,,,,,magenta,square
98.0,6.0,2.0,1.0,1.0,1.0,339.7157700001116,2.0,1.0,part_1,,,,,,,,,,,,,gray,diamond
0.0,6.0,0.0,1.0,1.0,1.0,343.58933600015,2.0,1.0,part_1,,,,,,,,,,,,,gray,diamond
202.0,3.0,3.0,0.0,4.0,4.0,338.4752560004926,2.0,1.0,part_1,,,,,,,,,,,,,cyan,flipped triangle
0.0,5.0,0.0,1.0,2.0,2.0,270.8810519998224,2.0,1.0,part_1,,,,,,,,,,,,,white,hexagon
191.0,3.0,3.0,0.0,4.0,4.0,326.2889260004158,2.0,1.0,part_1,,,,,,,,,,,,,cyan,flipped triangle
376.0,4.0,4.0,0.0,1.0,1.0,314.3113549995178,2.0,1.0,part_1,,,,,,,,,,,,,magenta,square
85.0,6.0,2.0,1.0,2.0,2.0,284.8485300000902,2.0,1.0,part_1,,,,,,,,,,,,,gray,diamond
196.0,3.0,3.0,0.0,2.0,2.0,314.3531599998823,2.0,1.0,part_1,,,,,,,,,,,,,cyan,flipped triangle
401.0,4.0,4.0,0.0,1.0,1.0,294.158108999909,2.0,1.0,part_1,,,,,,,,,,,,,magenta,square
62.0,5.0,1.0,1.0,3.0,3.0,363.3688709996931,2.0,1.0,part_1,,,,,,,,,,,,,white,hexagon
60.0,1.0,1.0,0.0,2.0,2.0,329.2112540002563,2.0,1.0,part_1,,,,,,,,,,,,,yellow,triangle
0.0,8.0,0.0,1.0,2.0,2.0,364.8776489999363,2.0,1.0,part_1,,,,,,,,,,,,,green,cross
387.0,4.0,4.0,0.0,2.0,2.0,323.7972759998229,2.0,1.0,part_1,,,,,,,,,,,,,magenta,square
35.0,5.0,1.0,1.0,2.0,2.0,325.0006389998816,2.0,1.0,part_1,,,,,,,,,,,,,white,hexagon
0.0,6.0,0.0,1.0,2.0,2.0,316.8837799994435,2.0,1.0,part_1,,,,,,,,,,,,,gray,diamond
0.0,7.0,0.0,1.0,2.0,2.0,337.9685579993747,2.0,1.0,part_1,,,,,,,,,,,,,blue,I
178.0,7.0,3.0,1.0,3.0,3.0,395.9595579999586,2.0,1.0,part_1,,,,,,,,,,,,,blue,I
102.0,2.0,2.0,0.0,4.0,4.0,353.0919459999495,2.0,1.0,part_1,,,,,,,,,,,,,orange,circle
110.0,2.0,2.0,0.0,1.0,1.0,295.9407270000156,2.0,1.0,part_1,,,,,,,,,,,,,orange,circle
379.0,8.0,4.0,1.0,4.0,4.0,387.1239629997944,2.0,1.0,part_1,,,,,,,,,,,,,green,cross
398.0,8.0,4.0,1.0,2.0,2.0,304.4059859994377,2.0,1.0,part_1,,,,,,,,,,,,,green,cross
41.0,5.0,1.0,1.0,4.0,4.0,443.9798060002431,2.0,1.0,part_1,,,,,,,,,,,,,white,hexagon
0.0,4.0,0.0,0.0,3.0,3.0,394.5729879997088,2.0,1.0,part_1,,,,,,,,,,,,,magenta,square
0.0,2.0,0.0,0.0,3.0,3.0,404.8378560000856,2.0,1.0,part_1,,,,,,,,,,,,,orange,circle
188.0,3.0,3.0,0.0,1.0,1.0,418.7931659998867,2.0,1.0,part_1,,,,,,,,,,,,,cyan,flipped triangle
115.0,6.0,2.0,1.0,4.0,4.0,447.4574910000228,2.0,1.0,part_1,,,,,,,,,,,,,gray,diamond
0.0,4.0,0.0,0.0,3.0,3.0,371.7484120006702,2.0,1.0,part_1,,,,,,,,,,,,,magenta,square
0.0,4.0,0.0,0.0,1.0,1.0,455.6817150005372,2.0,1.0,part_1,,,,,,,,,,,,,magenta,square
75.0,2.0,2.0,0.0,2.0,2.0,333.6057940005048,2.0,1.0,part_1,,,,,,,,,,,,,orange,circle
202.0,7.0,3.0,1.0,3.0,3.0,482.4431589995583,2.0,1.0,part_1,,,,,,,,,,,,,blue,I
0.0,8.0,0.0,1.0,3.0,3.0,369.3661890001749,2.0,1.0,part_1,,,,,,,,,,,,,green,cross
216.0,7.0,3.0,1.0,3.0,3.0,570.1962739994997,2.0,1.0,part_1,,,,,,,,,,,,,blue,I
58.0,5.0,1.0,1.0,4.0,4.0,471.9035299995084,2.0,1.0,part_1,,,,,,,,,,,,,white,hexagon
109.0,6.0,2.0,1.0,1.0,1.0,363.9549789995726,2.0,1.0,part_1,,,,,,,,,,,,,gray,diamond
0.0,6.0,0.0,1.0,1.0,1.0,424.57072399975,2.0,1.0,part_1,,,,,,,,,,,,,gray,diamond
94.0,6.0,2.0,1.0,4.0,4.0,350.8152240001436,2.0,1.0,part_1,,,,,,,,,,,,,gray,diamond
195.0,3.0,3.0,0.0,3.0,3.0,377.2630450002907,2.0,1.0,part_1,,,,,,,,,,,,,cyan,flipped triangle
26.0,1.0,1.0,0.0,1.0,1.0,392.1325410001373,2.0,1.0,part_1,,,,,,,,,,,,,yellow,triangle
122.0,2.0,2.0,0.0,2.0,2.0,331.626397999571,2.0,1.0,part_1,,,,,,,,,,,,,orange,circle
39.0,5.0,1.0,1.0,4.0,4.0,512.8941780003515,2.0,1.0,part_1,,,,,,,,,,,,,white,hexagon
73.0,1.0,1.0,0.0,2.0,2.0,278.3542429997396,2.0,1.0,part_1,,,,,,,,,,,,,yellow,triangle
386.0,8.0,4.0,1.0,1.0,1.0,323.7216930001523,2.0,1.0,part_1,,,,,,,,,,,,,green,cross
40.0,1.0,1.0,0.0,4.0,4.0,336.0695470000792,2.0,1.0,part_1,,,,,,,,,,,,,yellow,triangle
65.0,1.0,1.0,0.0,2.0,2.0,268.5274259993093,2.0,1.0,part_1,,,,,,,,,,,,,yellow,triangle
115.0,6.0,2.0,1.0,4.0,4.0,310.7756750005137,2.0,1.0,part_1,,,,,,,,,,,,,gray,diamond
0.0,4.0,0.0,0.0,3.0,3.0,283.240795999518,2.0,1.0,part_1,,,,,,,,,,,,,magenta,square
41.0,5.0,1.0,1.0,3.0,3.0,339.6694769999158,2.0,1.0,part_1,,,,,,,,,,,,,white,hexagon
114.0,2.0,2.0,0.0,1.0,1.0,357.2038080001221,2.0,1.0,part_1,,,,,,,,,,,,,orange,circle
386.0,8.0,4.0,1.0,1.0,1.0,385.235661000479,2.0,1.0,part_1,,,,,,,,,,,,,green,cross
205.0,7.0,3.0,1.0,1.0,1.0,360.276297999917,2.0,1.0,part_1,,,,,,,,,,,,,blue,I
41.0,1.0,1.0,0.0,1.0,1.0,332.7802300000257,2.0,1.0,part_1,,,,,,,,,,,,,yellow,triangle
122.0,2.0,2.0,0.0,2.0,2.0,335.3692919999957,2.0,1.0,part_1,,,,,,,,,,,,,orange,circle
220.0,3.0,3.0,0.0,1.0,1.0,356.6832100004831,2.0,1.0,part_1,,,,,,,,,,,,,cyan,flipped triangle
35.0,5.0,1.0,1.0,2.0,2.0,289.3841400000383,2.0,1.0,part_1,,,,,,,,,,,,,white,hexagon
110.0,6.0,2.0,1.0,3.0,3.0,367.5291230001676,2.0,1.0,part_1,,,,,,,,,,,,,gray,diamond
424.0,4.0,4.0,0.0,2.0,2.0,314.390855000056,2.0,1.0,part_1,,,,,,,,,,,,,magenta,square
396.0,4.0,4.0,0.0,4.0,4.0,391.6722909998498,2.0,1.0,part_1,,,,,,,,,,,,,magenta,square
390.0,8.0,4.0,1.0,4.0,4.0,403.4194850000858,2.0,1.0,part_1,,,,,,,,,,,,,green,cross
122.0,6.0,2.0,1.0,2.0,2.0,336.0295000002224,2.0,1.0,part_1,,,,,,,,,,,,,gray,diamond
81.0,2.0,2.0,0.0,4.0,4.0,335.1843979999103,2.0,1.0,part_1,,,,,,,,,,,,,orange,circle
51.0,1.0,1.0,0.0,3.0,3.0,331.532065999454,2.0,1.0,part_1,,,,,,,,,,,,,yellow,triangle
396.0,4.0,4.0,0.0,2.0,2.0,278.1615210005839,2.0,1.0,part_1,,,,,,,,,,,,,magenta,square
203.0,3.0,3.0,0.0,1.0,1.0,323.0717830001595,2.0,1.0,part_1,,,,,,,,,,,,,cyan,flipped triangle
91.0,6.0,2.0,1.0,3.0,3.0,330.7901210000636,2.0,1.0,part_1,,,,,,,,,,,,,gray,diamond
41.0,5.0,1.0,1.0,2.0,2.0,368.1872789993576,2.0,1.0,part_1,,,,,,,,,,,,,white,hexagon
0.0,2.0,0.0,0.0,1.0,1.0,298.9528640000571,2.0,1.0,part_1,,,,,,,,,,,,,orange,circle
0.0,1.0,0.0,0.0,4.0,4.0,286.5401190001648,2.0,1.0,part_1,,,,,,,,,,,,,yellow,triangle
178.0,3.0,3.0,0.0,4.0,4.0,393.3660800003054,3.0,1.0,part_1,,,,,,,,,,,,,cyan,flipped triangle
0.0,1.0,0.0,0.0,2.0,2.0,250.09030100045487,3.0,1.0,part_1,,,,,,,,,,,,,yellow,triangle
0.0,4.0,0.0,0.0,1.0,1.0,303.6550150000039,3.0,1.0,part_1,,,,,,,,,,,,,magenta,square
58.0,5.0,1.0,1.0,2.0,2.0,302.7136999999129,3.0,1.0,part_1,,,,,,,,,,,,,white,hexagon
67.0,1.0,1.0,0.0,1.0,1.0,435.3713129994503,3.0,1.0,part_1,,,,,,,,,,,,,yellow,triangle
176.0,3.0,3.0,0.0,1.0,1.0,332.8174210000725,3.0,1.0,part_1,,,,,,,,,,,,,cyan,flipped triangle
68.0,1.0,1.0,0.0,3.0,3.0,290.6903299999612,3.0,1.0,part_1,,,,,,,,,,,,,yellow,triangle
221.0,7.0,3.0,1.0,3.0,3.0,352.3918009996123,3.0,1.0,part_1,,,,,,,,,,,,,blue,I
56.0,1.0,1.0,0.0,4.0,4.0,372.8378460000385,3.0,1.0,part_1,,,,,,,,,,,,,yellow,triangle
84.0,2.0,2.0,0.0,1.0,1.0,307.7035079995767,3.0,1.0,part_1,,,,,,,,,,,,,orange,circle
0.0,4.0,0.0,0.0,4.0,4.0,357.0544029998928,3.0,1.0,part_1,,,,,,,,,,,,,magenta,square
121.0,6.0,2.0,1.0,1.0,1.0,304.9063099997511,3.0,1.0,part_1,,,,,,,,,,,,,gray,diamond
51.0,5.0,1.0,1.0,3.0,3.0,305.0027310000587,3.0,1.0,part_1,,,,,,,,,,,,,white,hexagon
186.0,3.0,3.0,0.0,3.0,3.0,307.2597559994392,3.0,1.0,part_1,,,,,,,,,,,,,cyan,flipped triangle
0.0,3.0,0.0,0.0,2.0,2.0,270.9656979995998,3.0,1.0,part_1,,,,,,,,,,,,,cyan,flipped triangle
0.0,3.0,0.0,0.0,3.0,3.0,381.6655109994826,3.0,1.0,part_1,,,,,,,,,,,,,cyan,flipped triangle
81.0,2.0,2.0,0.0,3.0,3.0,377.0000020003863,3.0,1.0,part_1,,,,,,,,,,,,,orange,circle
179.0,3.0,3.0,0.0,3.0,3.0,312.7842349995262,3.0,1.0,part_1,,,,,,,,,,,,,cyan,flipped triangle
0.0,7.0,0.0,1.0,1.0,1.0,386.0411880004903,3.0,1.0,part_1,,,,,,,,,,,,,blue,I
384.0,4.0,4.0,0.0,3.0,3.0,386.1578440000812,3.0,1.0,part_1,,,,,,,,,,,,,magenta,square
0.0,8.0,0.0,1.0,4.0,4.0,348.7200469999152,3.0,1.0,part_1,,,,,,,,,,,,,green,cross
91.0,2.0,2.0,0.0,3.0,3.0,352.8741629997967,3.0,1.0,part_1,,,,,,,,,,,,,orange,circle
187.0,7.0,3.0,1.0,3.0,3.0,341.1336540002594,3.0,1.0,part_1,,,,,,,,,,,,,blue,I
105.0,2.0,2.0,0.0,1.0,1.0,308.9481039996826,3.0,1.0,part_1,,,,,,,,,,,,,orange,circle
85.0,2.0,2.0,0.0,1.0,1.0,336.9164770001589,3.0,1.0,part_1,,,,,,,,,,,,,orange,circle
405.0,4.0,4.0,0.0,4.0,4.0,323.8482700007807,3.0,1.0,part_1,,,,,,,,,,,,,magenta,square
0.0,1.0,0.0,0.0,1.0,1.0,343.7390290000621,3.0,1.0,part_1,,,,,,,,,,,,,yellow,triangle
64.0,5.0,1.0,1.0,2.0,2.0,294.9091860000408,3.0,1.0,part_1,,,,,,,,,,,,,white,hexagon
225.0,7.0,3.0,1.0,4.0,4.0,530.2702460003275,3.0,1.0,part_1,,,,,,,,,,,,,blue,I
96.0,2.0,2.0,0.0,3.0,3.0,397.3286290001852,3.0,1.0,part_1,,,,,,,,,,,,,orange,circle
401.0,4.0,4.0,0.0,2.0,2.0,306.6540939998958,3.0,1.0,part_1,,,,,,,,,,,,,magenta,square
392.0,8.0,4.0,1.0,3.0,3.0,367.6843679995727,3.0,1.0,part_1,,,,,,,,,,,,,green,cross
27.0,1.0,1.0,0.0,2.0,2.0,364.3399009997665,3.0,1.0,part_1,,,,,,,,,,,,,yellow,triangle
90.0,6.0,2.0,1.0,2.0,2.0,433.9123270001437,3.0,1.0,part_1,,,,,,,,,,,,,gray,diamond
102.0,6.0,2.0,1.0,3.0,3.0,431.6072000001441,3.0,1.0,part_1,,,,,,,,,,,,,gray,diamond
45.0,5.0,1.0,1.0,3.0,3.0,435.1720149998073,3.0,1.0,part_1,,,,,,,,,,,,,white,hexagon
0.0,2.0,0.0,0.0,4.0,4.0,352.2203200000149,3.0,1.0,part_1,,,,,,,,,,,,,orange,circle
406.0,8.0,4.0,1.0,1.0,1.0,309.6389319998707,3.0,1.0,part_1,,,,,,,,,,,,,green,cross
193.0,3.0,3.0,0.0,1.0,1.0,352.5255019994802,3.0,1.0,part_1,,,,,,,,,,,,,cyan,flipped triangle
0.0,8.0,0.0,1.0,4.0,4.0,336.4691289998518,3.0,1.0,part_1,,,,,,,,,,,,,green,cross
209.0,7.0,3.0,1.0,1.0,1.0,370.3678020001462,3.0,1.0,part_1,,,,,,,,,,,,,blue,I
0.0,3.0,0.0,0.0,2.0,2.0,287.6255649998711,3.0,1.0,part_1,,,,,,,,,,,,,cyan,flipped triangle
394.0,8.0,4.0,1.0,2.0,2.0,357.3747620002905,3.0,1.0,part_1,,,,,,,,,,,,,green,cross
68.0,5.0,1.0,1.0,4.0,4.0,303.0763839997235,3.0,1.0,part_1,,,,,,,,,,,,,white,hexagon
0.0,2.0,0.0,0.0,4.0,4.0,406.7851069994503,3.0,1.0,part_1,,,,,,,,,,,,,orange,circle
26.0,5.0,1.0,1.0,3.0,3.0,337.1774879997247,3.0,1.0,part_1,,,,,,,,,,,,,white,hexagon
379.0,8.0,4.0,1.0,2.0,2.0,278.0342820005899,3.0,1.0,part_1,,,,,,,,,,,,,green,cross
380.0,8.0,4.0,1.0,2.0,2.0,346.6062799998326,3.0,1.0,part_1,,,,,,,,,,,,,green,cross
412.0,8.0,4.0,1.0,1.0,1.0,310.9277720004684,3.0,1.0,part_1,,,,,,,,,,,,,green,cross
0.0,6.0,0.0,1.0,1.0,1.0,307.5743489998785,3.0,1.0,part_1,,,,,,,,,,,,,gray,diamond
84.0,6.0,2.0,1.0,2.0,2.0,330.899770000542,3.0,1.0,part_1,,,,,,,,,,,,,gray,diamond
73.0,5.0,1.0,1.0,2.0,2.0,311.4270140004009,3.0,1.0,part_1,,,,,,,,,,,,,white,hexagon
84.0,2.0,2.0,0.0,1.0,1.0,292.0799029998306,3.0,1.0,part_1,,,,,,,,,,,,,orange,circle
0.0,4.0,0.0,0.0,2.0,2.0,309.9764549997417,3.0,1.0,part_1,,,,,,,,,,,,,magenta,square
27.0,5.0,1.0,1.0,4.0,4.0,490.5222150000554,3.0,1.0,part_1,,,,,,,,,,,,,white,hexagon
90.0,2.0,2.0,0.0,3.0,3.0,467.5941649993547,3.0,1.0,part_1,,,,,,,,,,,,,orange,circle
0.0,3.0,0.0,0.0,1.0,1.0,363.7037019998388,3.0,1.0,part_1,,,,,,,,,,,,,cyan,flipped triangle
223.0,3.0,3.0,0.0,1.0,1.0,347.3452209991592,3.0,1.0,part_1,,,,,,,,,,,,,cyan,flipped triangle
182.0,7.0,3.0,1.0,4.0,4.0,278.201615999933,3.0,1.0,part_1,,,,,,,,,,,,,blue,I
0.0,5.0,0.0,1.0,4.0,4.0,306.3858890000119,3.0,1.0,part_1,,,,,,,,,,,,,white,hexagon
181.0,7.0,3.0,1.0,1.0,1.0,327.3751890001222,3.0,1.0,part_1,,,,,,,,,,,,,blue,I
412.0,4.0,4.0,0.0,4.0,4.0,510.10864899944863,3.0,1.0,part_1,,,,,,,,,,,,,magenta,square
99.0,6.0,2.0,1.0,2.0,2.0,327.9271599994899,3.0,1.0,part_1,,,,,,,,,,,,,gray,diamond
420.0,8.0,4.0,1.0,2.0,2.0,366.8290300001899,3.0,1.0,part_1,,,,,,,,,,,,,green,cross
0.0,3.0,0.0,0.0,2.0,2.0,409.6263850005925,3.0,1.0,part_1,,,,,,,,,,,,,cyan,flipped triangle
124.0,6.0,2.0,1.0,3.0,3.0,449.1916710003352,3.0,1.0,part_1,,,,,,,,,,,,,gray,diamond
81.0,6.0,2.0,1.0,1.0,1.0,315.5110349998722,3.0,1.0,part_1,,,,,,,,,,,,,gray,diamond
0.0,6.0,0.0,1.0,1.0,1.0,360.4881640003441,3.0,1.0,part_1,,,,,,,,,,,,,gray,diamond
209.0,3.0,3.0,0.0,1.0,1.0,428.9847789996202,3.0,1.0,part_1,,,,,,,,,,,,,cyan,flipped triangle
113.0,6.0,2.0,1.0,4.0,4.0,417.4013490001016,3.0,1.0,part_1,,,,,,,,,,,,,gray,diamond
394.0,8.0,4.0,1.0,2.0,2.0,359.5432239999354,3.0,1.0,part_1,,,,,,,,,,,,,green,cross
0.0,2.0,0.0,0.0,2.0,2.0,340.0323240002763,3.0,1.0,part_1,,,,,,,,,,,,,orange,circle
0.0,7.0,0.0,1.0,2.0,2.0,342.8196699996988,3.0,1.0,part_1,,,,,,,,,,,,,blue,I
75.0,6.0,2.0,1.0,2.0,2.0,405.5967329995837,3.0,1.0,part_1,,,,,,,,,,,,,gray,diamond
415.0,8.0,4.0,1.0,4.0,4.0,388.2763210003759,3.0,1.0,part_1,,,,,,,,,,,,,green,cross
58.0,1.0,1.0,0.0,3.0,3.0,516.9367089993102,3.0,1.0,part_1,,,,,,,,,,,,,yellow,triangle
70.0,5.0,1.0,1.0,4.0,4.0,393.7458720001814,3.0,1.0,part_1,,,,,,,,,,,,,white,hexagon
379.0,4.0,4.0,0.0,3.0,3.0,370.0078060001033,3.0,1.0,part_1,,,,,,,,,,,,,magenta,square
0.0,7.0,0.0,1.0,2.0,2.0,269.0925389997574,3.0,1.0,part_1,,,,,,,,,,,,,blue,I
219.0,3.0,3.0,0.0,3.0,3.0,343.7089590006508,3.0,1.0,part_1,,,,,,,,,,,,,cyan,flipped triangle
178.0,7.0,3.0,1.0,2.0,2.0,332.1807120000812,3.0,1.0,part_1,,,,,,,,,,,,,blue,I
0.0,2.0,0.0,0.0,4.0,4.0,387.9611470001691,3.0,1.0,part_1,,,,,,,,,,,,,orange,circle
39.0,1.0,1.0,0.0,3.0,3.0,370.1706050005668,3.0,1.0,part_1,,,,,,,,,,,,,yellow,triangle
388.0,8.0,4.0,1.0,4.0,4.0,365.0225869996575,3.0,1.0,part_1,,,,,,,,,,,,,green,cross
0.0,7.0,0.0,1.0,2.0,2.0,266.3987629994153,3.0,1.0,part_1,,,,,,,,,,,,,blue,I
70.0,1.0,1.0,0.0,1.0,1.0,303.6350759994093,3.0,1.0,part_1,,,,,,,,,,,,,yellow,triangle
124.0,2.0,2.0,0.0,1.0,1.0,363.219767999908,3.0,1.0,part_1,,,,,,,,,,,,,orange,circle
0.0,5.0,0.0,1.0,3.0,3.0,334.1205500000797,3.0,1.0,part_1,,,,,,,,,,,,,white,hexagon
0.0,5.0,0.0,1.0,4.0,4.0,347.6616910002121,3.0,1.0,part_1,,,,,,,,,,,,,white,hexagon
51.0,1.0,1.0,0.0,4.0,4.0,353.0702319994816,3.0,1.0,part_1,,,,,,,,,,,,,yellow,triangle
184.0,3.0,3.0,0.0,2.0,2.0,334.4431010000335,3.0,1.0,part_1,,,,,,,,,,,,,cyan,flipped triangle
31.0,1.0,1.0,0.0,4.0,4.0,339.155560999643,3.0,1.0,part_1,,,,,,,,,,,,,yellow,triangle
0.0,7.0,0.0,1.0,1.0,1.0,373.4686030002194,3.0,1.0,part_1,,,,,,,,,,,,,blue,I
30.0,1.0,1.0,0.0,2.0,2.0,284.4991279998794,3.0,1.0,part_1,,,,,,,,,,,,,yellow,triangle
35.0,1.0,1.0,0.0,4.0,4.0,335.6665250003061,3.0,1.0,part_1,,,,,,,,,,,,,yellow,triangle
420.0,8.0,4.0,1.0,4.0,4.0,365.1213350003672,3.0,1.0,part_1,,,,,,,,,,,,,green,cross
193.0,7.0,3.0,1.0,1.0,1.0,335.647943999902,3.0,1.0,part_1,,,,,,,,,,,,,blue,I
0.0,7.0,0.0,1.0,2.0,2.0,308.7800350003817,3.0,1.0,part_1,,,,,,,,,,,,,blue,I
56.0,5.0,1.0,1.0,1.0,1.0,324.4306820006386,3.0,1.0,part_1,,,,,,,,,,,,,white,hexagon
72.0,5.0,1.0,1.0,2.0,2.0,295.908590000181,3.0,1.0,part_1,,,,,,,,,,,,,white,hexagon
0.0,3.0,0.0,0.0,2.0,2.0,339.6605910002108,4.0,1.0,part_1,,,,,,,,,,,,,cyan,flipped triangle
0.0,3.0,0.0,0.0,4.0,4.0,352.7009789995645,4.0,1.0,part_1,,,,,,,,,,,,,cyan,flipped triangle
122.0,2.0,2.0,0.0,1.0,1.0,323.5981509997145,4.0,1.0,part_1,,,,,,,,,,,,,orange,circle
191.0,7.0,3.0,1.0,2.0,2.0,274.0109180003856,4.0,1.0,part_1,,,,,,,,,,,,,blue,I
386.0,4.0,4.0,0.0,2.0,2.0,357.0389819997217,4.0,1.0,part_1,,,,,,,,,,,,,magenta,square
415.0,4.0,4.0,0.0,1.0,1.0,290.8198760005689,4.0,1.0,part_1,,,,,,,,,,,,,magenta,square
0.0,6.0,0.0,1.0,2.0,2.0,262.8766959996937,4.0,1.0,part_1,,,,,,,,,,,,,gray,diamond
28.0,1.0,1.0,0.0,4.0,4.0,365.9653820004678,4.0,1.0,part_1,,,,,,,,,,,,,yellow,triangle
0.0,5.0,0.0,1.0,3.0,3.0,369.1029999999955,4.0,1.0,part_1,,,,,,,,,,,,,white,hexagon
0.0,3.0,0.0,0.0,2.0,2.0,270.4713060002177,4.0,1.0,part_1,,,,,,,,,,,,,cyan,flipped triangle
216.0,3.0,3.0,0.0,4.0,4.0,386.1188380005842,4.0,1.0,part_1,,,,,,,,,,,,,cyan,flipped triangle
113.0,6.0,2.0,1.0,3.0,3.0,535.7777790004548,4.0,1.0,part_1,,,,,,,,,,,,,gray,diamond
412.0,4.0,4.0,0.0,2.0,2.0,282.2072210001352,4.0,1.0,part_1,,,,,,,,,,,,,magenta,square
417.0,8.0,4.0,1.0,3.0,3.0,299.1415209999104,4.0,1.0,part_1,,,,,,,,,,,,,green,cross
422.0,4.0,4.0,0.0,3.0,3.0,335.2533590004896,4.0,1.0,part_1,,,,,,,,,,,,,magenta,square
110.0,2.0,2.0,0.0,3.0,3.0,352.5663599994004,4.0,1.0,part_1,,,,,,,,,,,,,orange,circle
401.0,8.0,4.0,1.0,2.0,2.0,310.3346449997843,4.0,1.0,part_1,,,,,,,,,,,,,green,cross
206.0,3.0,3.0,0.0,4.0,4.0,338.7196150006275,4.0,1.0,part_1,,,,,,,,,,,,,cyan,flipped triangle
399.0,4.0,4.0,0.0,4.0,4.0,470.4481360004138,4.0,1.0,part_1,,,,,,,,,,,,,magenta,square
204.0,3.0,3.0,0.0,2.0,2.0,396.8926900006408,4.0,1.0,part_1,,,,,,,,,,,,,cyan,flipped triangle
401.0,8.0,4.0,1.0,4.0,4.0,432.7699429995846,4.0,1.0,part_1,,,,,,,,,,,,,green,cross
0.0,1.0,0.0,0.0,3.0,3.0,372.8149230000781,4.0,1.0,part_1,,,,,,,,,,,,,yellow,triangle
93.0,6.0,2.0,1.0,4.0,4.0,369.4517100002485,4.0,1.0,part_1,,,,,,,,,,,,,gray,diamond
62.0,1.0,1.0,0.0,3.0,3.0,369.0464900000734,4.0,1.0,part_1,,,,,,,,,,,,,yellow,triangle
102.0,2.0,2.0,0.0,4.0,4.0,356.5334240001903,4.0,1.0,part_1,,,,,,,,,,,,,orange,circle
188.0,7.0,3.0,1.0,1.0,1.0,344.1629809994992,4.0,1.0,part_1,,,,,,,,,,,,,blue,I
197.0,3.0,3.0,0.0,4.0,4.0,388.6208510002689,4.0,1.0,part_1,,,,,,,,,,,,,cyan,flipped triangle
0.0,1.0,0.0,0.0,4.0,4.0,320.5152559994531,4.0,1.0,part_1,,,,,,,,,,,,,yellow,triangle
0.0,3.0,0.0,0.0,4.0,4.0,365.9298610000405,4.0,1.0,part_1,,,,,,,,,,,,,cyan,flipped triangle
424.0,8.0,4.0,1.0,3.0,3.0,482.2123040003134,4.0,1.0,part_1,,,,,,,,,,,,,green,cross
387.0,8.0,4.0,1.0,2.0,2.0,295.0106820007931,4.0,1.0,part_1,,,,,,,,,,,,,green,cross
182.0,3.0,3.0,0.0,3.0,3.0,340.0343550001707,4.0,1.0,part_1,,,,,,,,,,,,,cyan,flipped triangle
70.0,1.0,1.0,0.0,4.0,4.0,356.0558219996892,4.0,1.0,part_1,,,,,,,,,,,,,yellow,triangle
67.0,5.0,1.0,1.0,2.0,2.0,303.7437250004586,4.0,1.0,part_1,,,,,,,,,,,,,white,hexagon
394.0,4.0,4.0,0.0,2.0,2.0,293.5003769998729,4.0,1.0,part_1,,,,,,,,,,,,,magenta,square
0.0,2.0,0.0,0.0,2.0,2.0,310.650591999547,4.0,1.0,part_1,,,,,,,,,,,,,orange,circle
182.0,7.0,3.0,1.0,3.0,3.0,390.800434999619,4.0,1.0,part_1,,,,,,,,,,,,,blue,I
35.0,1.0,1.0,0.0,3.0,3.0,380.4198900006668,4.0,2.0,part_1,,,,,,,,,,,,,yellow,triangle
387.0,4.0,4.0,0.0,4.0,4.0,379.9042219998227,4.0,1.0,part_1,,,,,,,,,,,,,magenta,square
26.0,5.0,1.0,1.0,3.0,3.0,405.9405729994978,4.0,1.0,part_1,,,,,,,,,,,,,white,hexagon
390.0,4.0,4.0,0.0,1.0,1.0,347.9049810002834,4.0,1.0,part_1,,,,,,,,,,,,,magenta,square
0.0,7.0,0.0,1.0,2.0,2.0,334.7431199999846,4.0,1.0,part_1,,,,,,,,,,,,,blue,I
98.0,2.0,2.0,0.0,2.0,2.0,454.6567770003094,4.0,1.0,part_1,,,,,,,,,,,,,orange,circle
109.0,2.0,2.0,0.0,3.0,3.0,720.609197000158,4.0,1.0,part_1,,,,,,,,,,,,,orange,circle
96.0,6.0,2.0,1.0,3.0,3.0,556.8739989994356,4.0,1.0,part_1,,,,,,,,,,,,,gray,diamond
0.0,5.0,0.0,1.0,2.0,2.0,499.4059950004157,4.0,1.0,part_1,,,,,,,,,,,,,white,hexagon
77.0,2.0,2.0,0.0,2.0,2.0,409.5937230003983,4.0,1.0,part_1,,,,,,,,,,,,,orange,circle
83.0,2.0,2.0,0.0,3.0,3.0,507.06463500046084,4.0,1.0,part_1,,,,,,,,,,,,,orange,circle
41.0,1.0,1.0,0.0,3.0,3.0,488.5459260003699,4.0,1.0,part_1,,,,,,,,,,,,,yellow,triangle
0.0,6.0,0.0,1.0,4.0,4.0,588.4070480005903,4.0,1.0,part_1,,,,,,,,,,,,,gray,diamond
0.0,2.0,0.0,0.0,4.0,4.0,409.1571420003674,4.0,1.0,part_1,,,,,,,,,,,,,orange,circle
28.0,1.0,1.0,0.0,3.0,3.0,535.8248149996143,4.0,1.0,part_1,,,,,,,,,,,,,yellow,triangle
84.0,6.0,2.0,1.0,3.0,3.0,436.133664999943,4.0,1.0,part_1,,,,,,,,,,,,,gray,diamond
49.0,1.0,1.0,0.0,1.0,1.0,472.8216610001254,4.0,1.0,part_1,,,,,,,,,,,,,yellow,triangle
406.0,8.0,4.0,1.0,3.0,3.0,487.9318809998949,4.0,1.0,part_1,,,,,,,,,,,,,green,cross
397.0,8.0,4.0,1.0,3.0,3.0,420.4686349994517,4.0,1.0,part_1,,,,,,,,,,,,,green,cross
176.0,7.0,3.0,1.0,1.0,1.0,485.8991099999912,4.0,1.0,part_1,,,,,,,,,,,,,blue,I
399.0,8.0,4.0,1.0,3.0,3.0,419.8150640004314,4.0,1.0,part_1,,,,,,,,,,,,,green,cross
122.0,6.0,2.0,1.0,4.0,4.0,375.3787360001297,4.0,1.0,part_1,,,,,,,,,,,,,gray,diamond
406.0,4.0,4.0,0.0,4.0,4.0,334.2794480004158,4.0,1.0,part_1,,,,,,,,,,,,,magenta,square
195.0,7.0,3.0,1.0,1.0,1.0,408.0403589996422,4.0,1.0,part_1,,,,,,,,,,,,,blue,I
26.0,1.0,1.0,0.0,2.0,2.0,357.5655169997844,4.0,1.0,part_1,,,,,,,,,,,,,yellow,triangle
215.0,3.0,3.0,0.0,4.0,4.0,450.1199149999593,4.0,1.0,part_1,,,,,,,,,,,,,cyan,flipped triangle
102.0,6.0,2.0,1.0,3.0,3.0,366.8881910007258,4.0,1.0,part_1,,,,,,,,,,,,,gray,diamond
386.0,4.0,4.0,0.0,2.0,2.0,402.3710390001724,4.0,1.0,part_1,,,,,,,,,,,,,magenta,square
204.0,3.0,3.0,0.0,1.0,1.0,417.2396240001035,4.0,1.0,part_1,,,,,,,,,,,,,cyan,flipped triangle
394.0,4.0,4.0,0.0,3.0,3.0,471.3983799993002,4.0,1.0,part_1,,,,,,,,,,,,,magenta,square
86.0,6.0,2.0,1.0,1.0,1.0,371.62800999976747,4.0,1.0,part_1,,,,,,,,,,,,,gray,diamond
205.0,3.0,3.0,0.0,4.0,4.0,430.3895119992376,4.0,1.0,part_1,,,,,,,,,,,,,cyan,flipped triangle
0.0,8.0,0.0,1.0,3.0,3.0,461.5393579997544,4.0,1.0,part_1,,,,,,,,,,,,,green,cross
384.0,8.0,4.0,1.0,1.0,1.0,376.8214190004073,4.0,1.0,part_1,,,,,,,,,,,,,green,cross
117.0,6.0,2.0,1.0,1.0,1.0,398.8561939995634,4.0,1.0,part_1,,,,,,,,,,,,,gray,diamond
58.0,5.0,1.0,1.0,1.0,1.0,352.966376999575,4.0,1.0,part_1,,,,,,,,,,,,,white,hexagon
0.0,4.0,0.0,0.0,4.0,4.0,381.7700680001508,4.0,1.0,part_1,,,,,,,,,,,,,magenta,square
204.0,7.0,3.0,1.0,2.0,2.0,315.8262709994233,4.0,1.0,part_1,,,,,,,,,,,,,blue,I
209.0,3.0,3.0,0.0,2.0,2.0,424.5206819996383,4.0,1.0,part_1,,,,,,,,,,,,,cyan,flipped triangle
122.0,6.0,2.0,1.0,1.0,1.0,381.5933199994106,4.0,1.0,part_1,,,,,,,,,,,,,gray,diamond
0.0,1.0,0.0,0.0,4.0,4.0,410.2890359999946,4.0,1.0,part_1,,,,,,,,,,,,,yellow,triangle
70.0,5.0,1.0,1.0,1.0,1.0,311.1392229993726,4.0,1.0,part_1,,,,,,,,,,,,,white,hexagon
0.0,5.0,0.0,1.0,3.0,3.0,395.7835289993454,4.0,1.0,part_1,,,,,,,,,,,,,white,hexagon
0.0,8.0,0.0,1.0,3.0,3.0,409.2801449996841,4.0,1.0,part_1,,,,,,,,,,,,,green,cross
0.0,7.0,0.0,1.0,3.0,3.0,404.7836680001637,4.0,1.0,part_1,,,,,,,,,,,,,blue,I
413.0,8.0,4.0,1.0,4.0,4.0,408.0066209999131,4.0,1.0,part_1,,,,,,,,,,,,,green,cross
0.0,5.0,0.0,1.0,3.0,3.0,348.5536070002126,4.0,1.0,part_1,,,,,,,,,,,,,white,hexagon
113.0,2.0,2.0,0.0,2.0,2.0,299.5644540005742,4.0,1.0,part_1,,,,,,,,,,,,,orange,circle
75.0,6.0,2.0,1.0,4.0,4.0,328.329207999559,4.0,1.0,part_1,,,,,,,,,,,,,gray,diamond
396.0,8.0,4.0,1.0,4.0,4.0,371.9091499997375,4.0,1.0,part_1,,,,,,,,,,,,,green,cross
45.0,1.0,1.0,0.0,1.0,1.0,327.185467000163,4.0,1.0,part_1,,,,,,,,,,,,,yellow,triangle
83.0,6.0,2.0,1.0,1.0,1.0,381.2441500003842,4.0,1.0,part_1,,,,,,,,,,,,,gray,diamond
0.0,8.0,0.0,1.0,1.0,1.0,330.9580200002529,4.0,1.0,part_1,,,,,,,,,,,,,green,cross
0.0,3.0,0.0,0.0,1.0,1.0,310.0848140002199,4.0,1.0,part_1,,,,,,,,,,,,,cyan,flipped triangle
66.0,5.0,1.0,1.0,1.0,1.0,338.4098630003791,4.0,1.0,part_1,,,,,,,,,,,,,white,hexagon
31.0,5.0,1.0,1.0,1.0,1.0,273.9703280003596,4.0,1.0,part_1,,,,,,,,,,,,,white,hexagon
0.0,1.0,0.0,0.0,4.0,4.0,322.8150370005096,4.0,1.0,part_1,,,,,,,,,,,,,yellow,triangle
0.0,8.0,0.0,1.0,3.0,3.0,392.4705460003679,4.0,1.0,part_1,,,,,,,,,,,,,green,cross
202.0,7.0,3.0,1.0,3.0,3.0,527.8084300007322,4.0,1.0,part_1,,,,,,,,,,,,,blue,I
65.0,5.0,1.0,1.0,4.0,4.0,371.7680520003341,4.0,1.0,part_1,,,,,,,,,,,,,white,hexagon
101.0,2.0,2.0,0.0,4.0,4.0,341.8750459995863,4.0,1.0,part_1,,,,,,,,,,,,,orange,circle
0.0,2.0,0.0,0.0,1.0,1.0,347.1620259997507,4.0,1.0,part_1,,,,,,,,,,,,,orange,circle
28.0,5.0,1.0,1.0,4.0,4.0,352.5438529995881,4.0,1.0,part_1,,,,,,,,,,,,,white,hexagon
0.0,1.0,1.0,0.0,6.0,6.0,635.3874559999895,1.0,0.0,part_2,go,250.0,250.0,1.0,,,,,,,,,yellow,triangle
0.0,4.0,4.0,0.0,6.0,6.0,410.7601019995854,1.0,0.0,part_2,go,250.0,250.0,1.0,,,,,,,,,magenta,square
0.0,6.0,2.0,1.0,5.0,5.0,570.023706000029,1.0,0.0,part_2,stop,250.0,250.0,3.0,,,,,,,,,gray,diamond
0.0,3.0,3.0,0.0,6.0,6.0,410.4623840003114,1.0,0.0,part_2,go,200.0,250.0,1.0,,,,,,,,,cyan,flipped triangle
0.0,1.0,1.0,0.0,5.0,5.0,447.8961450004135,1.0,0.0,part_2,go,200.0,250.0,1.0,,,,,,,,,yellow,triangle
0.0,7.0,3.0,1.0,6.0,6.0,406.4326589996199,1.0,0.0,part_2,go,200.0,250.0,1.0,,,,,,,,,blue,I
0.0,6.0,2.0,1.0,6.0,0.0,0.0,1.0,0.0,part_2,stop,200.0,250.0,4.0,,,,,,,,,gray,diamond
0.0,5.0,1.0,1.0,6.0,6.0,311.20268199993,1.0,0.0,part_2,go,200.0,300.0,1.0,,,,,,,,,white,hexagon
0.0,8.0,4.0,1.0,6.0,6.0,326.4394339994396,1.0,0.0,part_2,stop,200.0,300.0,3.0,,,,,,,,,green,cross
0.0,2.0,2.0,0.0,6.0,6.0,720.8996299996215,1.0,0.0,part_2,go,200.0,250.0,1.0,,,,,,,,,orange,circle
0.0,6.0,2.0,1.0,6.0,6.0,307.9090490000453,1.0,0.0,part_2,stop,200.0,250.0,3.0,,,,,,,,,gray,diamond
0.0,4.0,4.0,0.0,5.0,5.0,231.0079409999161,1.0,0.0,part_2,go,200.0,200.0,1.0,,,,,,,,,magenta,square
0.0,6.0,2.0,1.0,5.0,5.0,294.0077900002507,1.0,0.0,part_2,stop,200.0,200.0,3.0,,,,,,,,,gray,diamond
0.0,7.0,3.0,1.0,5.0,5.0,290.3928969999469,1.0,0.0,part_2,go,150.0,200.0,1.0,,,,,,,,,blue,I
0.0,3.0,3.0,0.0,6.0,6.0,325.3882620001604,1.0,0.0,part_2,go,150.0,200.0,1.0,,,,,,,,,cyan,flipped triangle
0.0,5.0,1.0,1.0,6.0,6.0,305.2497420003419,1.0,0.0,part_2,go,150.0,200.0,1.0,,,,,,,,,white,hexagon
0.0,7.0,3.0,1.0,5.0,5.0,235.7162789994618,1.0,0.0,part_2,stop,150.0,200.0,3.0,,,,,,,,,blue,I
0.0,4.0,4.0,0.0,6.0,6.0,251.65607700000692,1.0,0.0,part_2,go,100.0,200.0,1.0,,,,,,,,,magenta,square
0.0,8.0,4.0,1.0,5.0,5.0,258.0479939997531,1.0,0.0,part_2,stop,100.0,200.0,3.0,,,,,,,,,green,cross
0.0,5.0,1.0,1.0,5.0,6.0,239.4511990005412,1.0,0.0,part_2,stop,50.0,200.0,3.0,,,,,,,,,white,hexagon
0.0,4.0,4.0,0.0,5.0,5.0,502.93289099954563,1.0,0.0,part_2,go,0.0,200.0,1.0,,,,,,,,,magenta,square
0.0,2.0,2.0,0.0,5.0,5.0,410.219168000367,1.0,0.0,part_2,go,0.0,200.0,1.0,,,,,,,,,orange,circle
0.0,6.0,2.0,1.0,6.0,6.0,272.3305780000373,1.0,0.0,part_2,stop,0.0,200.0,3.0,,,,,,,,,gray,diamond
0.0,1.0,1.0,0.0,6.0,6.0,278.6424229998374,1.0,0.0,part_2,go,0.0,150.0,1.0,,,,,,,,,yellow,triangle
0.0,1.0,1.0,0.0,5.0,5.0,222.4981420004042,1.0,0.0,part_2,go,0.0,150.0,1.0,,,,,,,,,yellow,triangle
0.0,7.0,3.0,1.0,5.0,0.0,0.0,1.0,0.0,part_2,stop,0.0,150.0,4.0,,,,,,,,,blue,I
0.0,8.0,4.0,1.0,6.0,6.0,316.1234830004105,1.0,0.0,part_2,stop,50.0,150.0,3.0,,,,,,,,,green,cross
0.0,7.0,3.0,1.0,5.0,0.0,0.0,1.0,0.0,part_2,stop,50.0,100.0,4.0,,,,,,,,,blue,I
0.0,3.0,3.0,0.0,5.0,5.0,430.422575999728,1.0,0.0,part_2,go,100.0,100.0,1.0,,,,,,,,,cyan,flipped triangle
0.0,1.0,1.0,0.0,6.0,6.0,330.9139040002264,1.0,0.0,part_2,go,100.0,100.0,1.0,,,,,,,,,yellow,triangle
0.0,6.0,2.0,1.0,5.0,5.0,363.0228399997577,1.0,0.0,part_2,go,100.0,100.0,1.0,,,,,,,,,gray,diamond
0.0,1.0,1.0,0.0,5.0,5.0,604.599657000108,1.0,0.0,part_2,go,100.0,100.0,1.0,,,,,,,,,yellow,triangle
0.0,1.0,1.0,0.0,6.0,6.0,263.9411730006031,1.0,0.0,part_2,go,100.0,100.0,1.0,,,,,,,,,yellow,triangle
0.0,2.0,2.0,0.0,5.0,5.0,219.4461399994907,1.0,0.0,part_2,go,100.0,100.0,1.0,,,,,,,,,orange,circle
0.0,8.0,4.0,1.0,6.0,6.0,218.3975589996407,1.0,0.0,part_2,stop,100.0,100.0,3.0,,,,,,,,,green,cross
0.0,7.0,3.0,1.0,6.0,6.0,224.8526940002193,1.0,0.0,part_2,stop,100.0,50.0,3.0,,,,,,,,,blue,I
0.0,2.0,2.0,0.0,5.0,5.0,623.5664870000619,2.0,0.0,part_2,go,100.0,0.0,1.0,,,,,,,,,orange,circle
0.0,6.0,2.0,1.0,6.0,6.0,279.1099030000623,2.0,0.0,part_2,stop,100.0,0.0,3.0,,,,,,,,,gray,diamond
0.0,8.0,4.0,1.0,6.0,0.0,0.0,2.0,0.0,part_2,stop,100.0,0.0,4.0,,,,,,,,,green,cross
0.0,2.0,2.0,0.0,6.0,6.0,756.3693350002723,2.0,0.0,part_2,go,100.0,50.0,1.0,,,,,,,,,orange,circle
0.0,6.0,2.0,1.0,6.0,6.0,701.0269630000039,2.0,0.0,part_2,go,100.0,50.0,1.0,,,,,,,,,gray,diamond
0.0,2.0,2.0,0.0,6.0,6.0,652.4825129999954,2.0,0.0,part_2,go,100.0,50.0,1.0,,,,,,,,,orange,circle
0.0,2.0,2.0,0.0,6.0,6.0,649.1983770001752,2.0,0.0,part_2,go,100.0,50.0,1.0,,,,,,,,,orange,circle
0.0,3.0,3.0,0.0,5.0,5.0,721.4346529999602,2.0,0.0,part_2,go,100.0,50.0,1.0,,,,,,,,,cyan,flipped triangle
0.0,7.0,3.0,1.0,6.0,6.0,631.9287559999793,2.0,0.0,part_2,go,100.0,50.0,1.0,,,,,,,,,blue,I
0.0,7.0,3.0,1.0,6.0,0.0,0.0,2.0,0.0,part_2,stop,100.0,50.0,4.0,,,,,,,,,blue,I
0.0,8.0,4.0,1.0,6.0,6.0,769.8629400001664,2.0,0.0,part_2,go,100.0,100.0,1.0,,,,,,,,,green,cross
0.0,1.0,1.0,0.0,5.0,5.0,703.2504339995285,2.0,0.0,part_2,go,100.0,100.0,1.0,,,,,,,,,yellow,triangle
0.0,1.0,1.0,0.0,6.0,6.0,552.1929769993221,2.0,0.0,part_2,go,100.0,100.0,1.0,,,,,,,,,yellow,triangle
0.0,2.0,2.0,0.0,5.0,5.0,662.7823650005666,2.0,0.0,part_2,go,100.0,100.0,1.0,,,,,,,,,orange,circle
0.0,3.0,3.0,0.0,6.0,6.0,670.1157580000654,2.0,0.0,part_2,go,100.0,100.0,1.0,,,,,,,,,cyan,flipped triangle
0.0,8.0,4.0,1.0,5.0,0.0,0.0,2.0,0.0,part_2,stop,100.0,100.0,4.0,,,,,,,,,green,cross
0.0,5.0,1.0,1.0,5.0,5.0,996.036424000522,2.0,0.0,part_2,go,150.0,100.0,1.0,,,,,,,,,white,hexagon
0.0,7.0,3.0,1.0,6.0,0.0,0.0,2.0,0.0,part_2,stop,150.0,100.0,4.0,,,,,,,,,blue,I
0.0,4.0,4.0,0.0,6.0,6.0,917.552375000014,2.0,0.0,part_2,go,150.0,150.0,1.0,,,,,,,,,magenta,square
0.0,4.0,4.0,0.0,6.0,6.0,754.6703380003237,2.0,0.0,part_2,go,150.0,150.0,1.0,,,,,,,,,magenta,square
0.0,4.0,4.0,0.0,5.0,5.0,826.2304099998801,2.0,0.0,part_2,go,150.0,150.0,1.0,,,,,,,,,magenta,square
0.0,6.0,2.0,1.0,5.0,0.0,0.0,2.0,0.0,part_2,stop,150.0,150.0,4.0,,,,,,,,,gray,diamond
0.0,4.0,4.0,0.0,5.0,0.0,0.0,2.0,0.0,part_2,go,200.0,150.0,5.0,,,,,,,,,magenta,square
0.0,2.0,2.0,0.0,5.0,5.0,842.8553740004645,2.0,0.0,part_2,go,200.0,150.0,1.0,,,,,,,,,orange,circle
0.0,4.0,4.0,0.0,6.0,6.0,410.2169679999861,2.0,0.0,part_2,go,200.0,150.0,1.0,,,,,,,,,magenta,square
0.0,1.0,1.0,0.0,6.0,6.0,530.6981650001035,2.0,0.0,part_2,go,200.0,150.0,1.0,,,,,,,,,yellow,triangle
0.0,2.0,2.0,0.0,5.0,5.0,567.2839799999565,2.0,0.0,part_2,go,200.0,150.0,1.0,,,,,,,,,orange,circle
0.0,7.0,3.0,1.0,6.0,0.0,0.0,2.0,0.0,part_2,stop,200.0,150.0,4.0,,,,,,,,,blue,I
0.0,6.0,2.0,1.0,5.0,0.0,0.0,2.0,0.0,part_2,stop,200.0,200.0,4.0,,,,,,,,,gray,diamond
0.0,5.0,1.0,1.0,5.0,5.0,768.1586569997307,2.0,0.0,part_2,go,250.0,200.0,1.0,,,,,,,,,white,hexagon
0.0,8.0,4.0,1.0,5.0,0.0,0.0,2.0,0.0,part_2,stop,250.0,200.0,4.0,,,,,,,,,green,cross
0.0,1.0,1.0,0.0,6.0,6.0,678.2412129996374,2.0,0.0,part_2,go,300.0,200.0,1.0,,,,,,,,,yellow,triangle
0.0,4.0,4.0,0.0,5.0,5.0,675.6689650001135,2.0,0.0,part_2,go,300.0,200.0,1.0,,,,,,,,,magenta,square
0.0,4.0,4.0,0.0,5.0,5.0,668.1564900000012,2.0,0.0,part_2,go,300.0,200.0,1.0,,,,,,,,,magenta,square
0.0,7.0,3.0,1.0,6.0,0.0,0.0,2.0,0.0,part_2,stop,300.0,200.0,4.0,,,,,,,,,blue,I
0.0,8.0,4.0,1.0,5.0,0.0,0.0,2.0,0.0,part_2,stop,300.0,250.0,4.0,,,,,,,,,green,cross
0.0,5.0,1.0,1.0,6.0,6.0,418.3224429998518,3.0,0.0,part_2,stop,350.0,250.0,3.0,,,,,,,,,white,hexagon
0.0,8.0,4.0,1.0,5.0,5.0,421.705457999451,3.0,0.0,part_2,go,350.0,200.0,1.0,,,,,,,,,green,cross
0.0,2.0,2.0,0.0,6.0,6.0,373.6597209999672,3.0,0.0,part_2,go,350.0,200.0,1.0,,,,,,,,,orange,circle
0.0,6.0,2.0,1.0,5.0,5.0,381.6353399997751,3.0,0.0,part_2,stop,350.0,200.0,3.0,,,,,,,,,gray,diamond
0.0,4.0,4.0,0.0,6.0,6.0,299.7933169999669,3.0,0.0,part_2,go,300.0,200.0,1.0,,,,,,,,,magenta,square
0.0,6.0,2.0,1.0,6.0,0.0,0.0,3.0,0.0,part_2,stop,300.0,200.0,4.0,,,,,,,,,gray,diamond
0.0,2.0,2.0,0.0,6.0,6.0,493.2955599997513,3.0,0.0,part_2,go,300.0,250.0,1.0,,,,,,,,,orange,circle
0.0,2.0,2.0,0.0,6.0,6.0,541.2800819995027,3.0,0.0,part_2,go,300.0,250.0,1.0,,,,,,,,,orange,circle
0.0,2.0,2.0,0.0,5.0,5.0,526.0942330005491,3.0,0.0,part_2,go,300.0,250.0,1.0,,,,,,,,,orange,circle
0.0,8.0,4.0,1.0,6.0,6.0,395.0451829996382,3.0,0.0,part_2,stop,300.0,250.0,3.0,,,,,,,,,green,cross
0.0,5.0,1.0,1.0,5.0,0.0,0.0,3.0,0.0,part_2,stop,300.0,200.0,4.0,,,,,,,,,white,hexagon
0.0,4.0,4.0,0.0,5.0,5.0,820.2727850002702,3.0,0.0,part_2,go,350.0,200.0,1.0,,,,,,,,,magenta,square
0.0,7.0,3.0,1.0,6.0,6.0,393.1283109996002,3.0,0.0,part_2,go,350.0,200.0,1.0,,,,,,,,,blue,I
0.0,7.0,3.0,1.0,5.0,5.0,471.9250179996379,3.0,0.0,part_2,go,350.0,200.0,1.0,,,,,,,,,blue,I
0.0,2.0,2.0,0.0,5.0,5.0,416.1314499997388,3.0,0.0,part_2,go,350.0,200.0,1.0,,,,,,,,,orange,circle
0.0,5.0,1.0,1.0,6.0,6.0,472.0996389996799,3.0,0.0,part_2,go,350.0,200.0,1.0,,,,,,,,,white,hexagon
0.0,1.0,1.0,0.0,5.0,5.0,560.6783330003964,3.0,0.0,part_2,go,350.0,200.0,1.0,,,,,,,,,yellow,triangle
0.0,3.0,3.0,0.0,5.0,5.0,719.9444600000788,3.0,0.0,part_2,go,350.0,200.0,1.0,,,,,,,,,cyan,flipped triangle
0.0,3.0,3.0,0.0,5.0,5.0,516.843532999701,3.0,0.0,part_2,go,350.0,200.0,1.0,,,,,,,,,cyan,flipped triangle
0.0,7.0,3.0,1.0,5.0,0.0,0.0,3.0,0.0,part_2,stop,350.0,200.0,4.0,,,,,,,,,blue,I
0.0,8.0,4.0,1.0,5.0,5.0,638.2276550002643,3.0,0.0,part_2,go,400.0,200.0,1.0,,,,,,,,,green,cross
0.0,4.0,4.0,0.0,5.0,5.0,604.1476789996523,3.0,0.0,part_2,go,400.0,200.0,1.0,,,,,,,,,magenta,square
0.0,2.0,2.0,0.0,5.0,5.0,603.7509409998165,3.0,0.0,part_2,go,400.0,200.0,1.0,,,,,,,,,orange,circle
0.0,4.0,4.0,0.0,6.0,6.0,548.9052999992055,3.0,0.0,part_2,go,400.0,200.0,1.0,,,,,,,,,magenta,square
0.0,6.0,2.0,1.0,6.0,6.0,708.1067979997897,3.0,0.0,part_2,go,400.0,200.0,1.0,,,,,,,,,gray,diamond
0.0,6.0,2.0,1.0,6.0,6.0,626.5894450007181,3.0,0.0,part_2,go,400.0,200.0,1.0,,,,,,,,,gray,diamond
0.0,8.0,4.0,1.0,5.0,0.0,0.0,3.0,0.0,part_2,stop,400.0,200.0,4.0,,,,,,,,,green,cross
0.0,1.0,1.0,0.0,5.0,5.0,537.9750570000397,3.0,0.0,part_2,go,450.0,200.0,1.0,,,,,,,,,yellow,triangle
0.0,1.0,1.0,0.0,5.0,5.0,544.7797560000254,3.0,0.0,part_2,go,450.0,200.0,1.0,,,,,,,,,yellow,triangle
0.0,3.0,3.0,0.0,5.0,5.0,536.5870599998743,3.0,0.0,part_2,go,450.0,200.0,1.0,,,,,,,,,cyan,flipped triangle
0.0,2.0,2.0,0.0,6.0,6.0,542.5900770005683,3.0,0.0,part_2,go,450.0,200.0,1.0,,,,,,,,,orange,circle
0.0,5.0,1.0,1.0,5.0,5.0,525.368816000082,3.0,0.0,part_2,stop,450.0,200.0,3.0,,,,,,,,,white,hexagon
0.0,6.0,2.0,1.0,5.0,0.0,0.0,3.0,0.0,part_2,stop,400.0,200.0,4.0,,,,,,,,,gray,diamond
0.0,8.0,4.0,1.0,6.0,0.0,0.0,3.0,0.0,part_2,stop,450.0,200.0,4.0,,,,,,,,,green,cross
0.0,2.0,2.0,0.0,5.0,5.0,612.4461290000909,3.0,0.0,part_2,go,450.0,250.0,1.0,,,,,,,,,orange,circle
0.0,7.0,3.0,1.0,6.0,6.0,573.2210109999869,3.0,0.0,part_2,go,450.0,250.0,1.0,,,,,,,,,blue,I
0.0,4.0,4.0,0.0,5.0,5.0,496.2179789999936,4.0,0.0,part_2,go,450.0,250.0,1.0,,,,,,,,,magenta,square
0.0,5.0,1.0,1.0,5.0,5.0,366.5378539999437,4.0,0.0,part_2,stop,450.0,250.0,3.0,,,,,,,,,white,hexagon
0.0,2.0,2.0,0.0,6.0,6.0,385.4292500000156,4.0,0.0,part_2,go,400.0,250.0,1.0,,,,,,,,,orange,circle
0.0,7.0,3.0,1.0,5.0,5.0,624.4303490002494,4.0,0.0,part_2,go,400.0,250.0,1.0,,,,,,,,,blue,I
0.0,8.0,4.0,1.0,5.0,5.0,535.2878399999099,4.0,0.0,part_2,stop,400.0,250.0,3.0,,,,,,,,,green,cross
0.0,4.0,4.0,0.0,6.0,6.0,710.8722800003306,4.0,0.0,part_2,go,350.0,250.0,1.0,,,,,,,,,magenta,square
0.0,4.0,4.0,0.0,5.0,5.0,572.6442619998124,4.0,0.0,part_2,go,350.0,250.0,1.0,,,,,,,,,magenta,square
0.0,1.0,1.0,0.0,6.0,6.0,539.1528059999473,4.0,0.0,part_2,go,350.0,250.0,1.0,,,,,,,,,yellow,triangle
0.0,6.0,2.0,1.0,6.0,6.0,299.7114870004225,4.0,0.0,part_2,go,350.0,250.0,1.0,,,,,,,,,gray,diamond
0.0,2.0,2.0,0.0,6.0,6.0,625.396002999878,4.0,0.0,part_2,go,350.0,250.0,1.0,,,,,,,,,orange,circle
0.0,5.0,1.0,1.0,6.0,0.0,0.0,4.0,0.0,part_2,stop,350.0,250.0,4.0,,,,,,,,,white,hexagon
0.0,5.0,1.0,1.0,6.0,0.0,0.0,4.0,0.0,part_2,stop,350.0,300.0,4.0,,,,,,,,,white,hexagon
0.0,8.0,4.0,1.0,6.0,0.0,0.0,4.0,0.0,part_2,stop,350.0,350.0,4.0,,,,,,,,,green,cross
0.0,3.0,3.0,0.0,5.0,5.0,721.2154460003148,4.0,0.0,part_2,go,350.0,400.0,1.0,,,,,,,,,cyan,flipped triangle
0.0,1.0,1.0,0.0,5.0,5.0,753.9108649998525,4.0,0.0,part_2,go,350.0,400.0,1.0,,,,,,,,,yellow,triangle
0.0,3.0,3.0,0.0,5.0,5.0,566.2533350005106,4.0,0.0,part_2,go,350.0,400.0,1.0,,,,,,,,,cyan,flipped triangle
0.0,4.0,4.0,0.0,6.0,6.0,528.8683829994625,4.0,0.0,part_2,go,350.0,400.0,1.0,,,,,,,,,magenta,square
0.0,6.0,2.0,1.0,5.0,5.0,518.1351470000664,4.0,0.0,part_2,stop,350.0,400.0,3.0,,,,,,,,,gray,diamond
0.0,4.0,4.0,0.0,5.0,5.0,622.5744639996265,4.0,0.0,part_2,go,300.0,400.0,1.0,,,,,,,,,magenta,square
0.0,1.0,1.0,0.0,5.0,5.0,680.1960840002721,4.0,0.0,part_2,go,300.0,400.0,1.0,,,,,,,,,yellow,triangle
0.0,1.0,1.0,0.0,5.0,5.0,579.4949909995921,4.0,0.0,part_2,go,300.0,400.0,1.0,,,,,,,,,yellow,triangle
0.0,2.0,2.0,0.0,5.0,5.0,732.4885100006213,4.0,0.0,part_2,go,300.0,400.0,1.0,,,,,,,,,orange,circle
0.0,8.0,4.0,1.0,6.0,6.0,501.55439999980445,4.0,0.0,part_2,go,300.0,400.0,1.0,,,,,,,,,green,cross
0.0,4.0,4.0,0.0,5.0,5.0,507.5380580001365,4.0,0.0,part_2,go,300.0,400.0,1.0,,,,,,,,,magenta,square
0.0,1.0,1.0,0.0,5.0,5.0,420.113403999494,4.0,0.0,part_2,go,300.0,400.0,1.0,,,,,,,,,yellow,triangle
0.0,3.0,3.0,0.0,5.0,5.0,545.7899920002092,4.0,0.0,part_2,go,300.0,400.0,1.0,,,,,,,,,cyan,flipped triangle
0.0,6.0,2.0,1.0,5.0,0.0,0.0,4.0,0.0,part_2,stop,300.0,400.0,4.0,,,,,,,,,gray,diamond
0.0,6.0,2.0,1.0,6.0,6.0,322.7127380005186,4.0,0.0,part_2,stop,350.0,400.0,3.0,,,,,,,,,gray,diamond
0.0,7.0,3.0,1.0,6.0,6.0,598.9142540001922,4.0,0.0,part_2,go,350.0,350.0,1.0,,,,,,,,,blue,I
0.0,6.0,2.0,1.0,5.0,5.0,537.3032319994309,4.0,0.0,part_2,stop,350.0,350.0,3.0,,,,,,,,,gray,diamond
0.0,3.0,3.0,0.0,6.0,6.0,674.1508680006518,4.0,0.0,part_2,go,300.0,350.0,1.0,,,,,,,,,cyan,flipped triangle
0.0,5.0,1.0,1.0,6.0,0.0,0.0,4.0,0.0,part_2,stop,300.0,350.0,4.0,,,,,,,,,white,hexagon
0.0,7.0,3.0,1.0,6.0,0.0,0.0,4.0,0.0,part_2,stop,300.0,400.0,4.0,,,,,,,,,blue,I
0.0,7.0,3.0,1.0,6.0,0.0,0.0,4.0,0.0,part_2,stop,300.0,450.0,4.0,,,,,,,,,blue,I
0.0,5.0,1.0,1.0,6.0,6.0,622.3029759994461,4.0,0.0,part_2,go,300.0,500.0,1.0,,,,,,,,,white,hexagon
0.0,4.0,4.0,0.0,5.0,5.0,628.1786809995538,4.0,0.0,part_2,go,300.0,500.0,1.0,,,,,,,,,magenta,square
0.0,4.0,4.0,0.0,6.0,6.0,849.6441629995388,5.0,0.0,part_2,go,300.0,500.0,1.0,,,,,,,,,magenta,square
0.0,1.0,1.0,0.0,6.0,6.0,578.0556629997591,5.0,0.0,part_2,go,300.0,500.0,1.0,,,,,,,,,yellow,triangle
0.0,3.0,3.0,0.0,6.0,6.0,562.8469100001894,5.0,0.0,part_2,go,300.0,500.0,1.0,,,,,,,,,cyan,flipped triangle
0.0,1.0,1.0,0.0,6.0,6.0,585.0682700001926,5.0,0.0,part_2,go,300.0,500.0,1.0,,,,,,,,,yellow,triangle
0.0,5.0,1.0,1.0,6.0,6.0,537.4322790003134,5.0,0.0,part_2,stop,300.0,500.0,3.0,,,,,,,,,white,hexagon
0.0,8.0,4.0,1.0,6.0,6.0,361.8940410005962,5.0,0.0,part_2,stop,300.0,450.0,3.0,,,,,,,,,green,cross
0.0,1.0,1.0,0.0,5.0,5.0,717.7136150003207,5.0,0.0,part_2,go,300.0,400.0,1.0,,,,,,,,,yellow,triangle
0.0,6.0,2.0,1.0,6.0,0.0,0.0,5.0,0.0,part_2,stop,300.0,400.0,4.0,,,,,,,,,gray,diamond
0.0,7.0,3.0,1.0,5.0,0.0,0.0,5.0,0.0,part_2,stop,300.0,450.0,4.0,,,,,,,,,blue,I
0.0,2.0,2.0,0.0,6.0,6.0,765.7850509995114,5.0,0.0,part_2,go,350.0,450.0,1.0,,,,,,,,,orange,circle
0.0,3.0,3.0,0.0,5.0,5.0,677.6872580003328,5.0,0.0,part_2,go,350.0,450.0,1.0,,,,,,,,,cyan,flipped triangle
0.0,7.0,3.0,1.0,5.0,0.0,0.0,5.0,0.0,part_2,stop,350.0,450.0,4.0,,,,,,,,,blue,I
0.0,3.0,3.0,0.0,6.0,6.0,509.7637720000421,5.0,0.0,part_2,go,400.0,450.0,1.0,,,,,,,,,cyan,flipped triangle
0.0,6.0,2.0,1.0,6.0,0.0,0.0,5.0,0.0,part_2,stop,400.0,450.0,4.0,,,,,,,,,gray,diamond
0.0,3.0,3.0,0.0,6.0,6.0,641.6442939998888,5.0,0.0,part_2,go,400.0,500.0,1.0,,,,,,,,,cyan,flipped triangle
0.0,7.0,3.0,1.0,5.0,0.0,0.0,5.0,0.0,part_2,stop,400.0,500.0,4.0,,,,,,,,,blue,I
0.0,7.0,3.0,1.0,5.0,0.0,0.0,5.0,0.0,part_2,stop,450.0,500.0,4.0,,,,,,,,,blue,I
0.0,6.0,2.0,1.0,5.0,5.0,627.6421660004416,5.0,0.0,part_2,stop,500.0,500.0,3.0,,,,,,,,,gray,diamond
0.0,3.0,3.0,0.0,6.0,6.0,567.5413849994584,5.0,0.0,part_2,go,450.0,500.0,1.0,,,,,,,,,cyan,flipped triangle
0.0,3.0,3.0,0.0,6.0,6.0,902.910644000258,5.0,0.0,part_2,go,450.0,500.0,1.0,,,,,,,,,cyan,flipped triangle
0.0,6.0,2.0,1.0,6.0,0.0,0.0,5.0,0.0,part_2,stop,450.0,500.0,4.0,,,,,,,,,gray,diamond
0.0,2.0,2.0,0.0,6.0,6.0,609.0326519997689,5.0,0.0,part_2,go,450.0,550.0,1.0,,,,,,,,,orange,circle
0.0,3.0,3.0,0.0,5.0,5.0,597.3077889993874,5.0,0.0,part_2,go,450.0,550.0,1.0,,,,,,,,,cyan,flipped triangle
0.0,2.0,2.0,0.0,6.0,6.0,637.914646000354,5.0,0.0,part_2,go,450.0,550.0,1.0,,,,,,,,,orange,circle
0.0,6.0,2.0,1.0,5.0,0.0,0.0,5.0,0.0,part_2,stop,450.0,550.0,4.0,,,,,,,,,gray,diamond
0.0,5.0,1.0,1.0,5.0,5.0,700.7675999993808,5.0,0.0,part_2,go,500.0,550.0,1.0,,,,,,,,,white,hexagon
0.0,8.0,4.0,1.0,6.0,0.0,0.0,5.0,0.0,part_2,stop,500.0,550.0,4.0,,,,,,,,,green,cross
0.0,3.0,3.0,0.0,5.0,5.0,625.9420910000699,5.0,0.0,part_2,go,500.0,600.0,1.0,,,,,,,,,cyan,flipped triangle
0.0,7.0,3.0,1.0,5.0,0.0,0.0,5.0,0.0,part_2,stop,500.0,600.0,4.0,,,,,,,,,blue,I
0.0,4.0,4.0,0.0,5.0,5.0,736.5962019994186,5.0,0.0,part_2,go,550.0,600.0,1.0,,,,,,,,,magenta,square
0.0,4.0,4.0,0.0,5.0,5.0,803.4687270001086,5.0,0.0,part_2,go,550.0,600.0,1.0,,,,,,,,,magenta,square
0.0,3.0,3.0,0.0,6.0,6.0,721.563700999468,5.0,0.0,part_2,go,550.0,600.0,1.0,,,,,,,,,cyan,flipped triangle
0.0,4.0,4.0,0.0,6.0,6.0,506.31596200037166,5.0,0.0,part_2,go,550.0,600.0,1.0,,,,,,,,,magenta,square
0.0,3.0,3.0,0.0,6.0,6.0,638.3572049999202,5.0,0.0,part_2,go,550.0,600.0,1.0,,,,,,,,,cyan,flipped triangle
0.0,6.0,2.0,1.0,5.0,5.0,538.109868999527,5.0,0.0,part_2,go,550.0,600.0,1.0,,,,,,,,,gray,diamond
0.0,5.0,1.0,1.0,6.0,6.0,526.2964590001502,5.0,0.0,part_2,go,550.0,600.0,1.0,,,,,,,,,white,hexagon
0.0,8.0,4.0,1.0,6.0,6.0,324.4447879997096,6.0,0.0,part_2,stop,550.0,600.0,3.0,,,,,,,,,green,cross
0.0,1.0,1.0,0.0,6.0,6.0,568.776603000515,6.0,0.0,part_2,go,550.0,550.0,1.0,,,,,,,,,yellow,triangle
0.0,7.0,3.0,1.0,6.0,6.0,362.7907589998358,6.0,0.0,part_2,stop,550.0,550.0,3.0,,,,,,,,,blue,I
0.0,3.0,3.0,0.0,5.0,5.0,520.5333020003309,6.0,0.0,part_2,go,550.0,500.0,1.0,,,,,,,,,cyan,flipped triangle
0.0,1.0,1.0,0.0,6.0,6.0,448.0823200001396,6.0,0.0,part_2,go,550.0,500.0,1.0,,,,,,,,,yellow,triangle
0.0,6.0,2.0,1.0,5.0,5.0,456.1456669998733,6.0,0.0,part_2,go,550.0,500.0,1.0,,,,,,,,,gray,diamond
0.0,1.0,1.0,0.0,6.0,6.0,263.6277769997832,6.0,0.0,part_2,go,550.0,500.0,1.0,,,,,,,,,yellow,triangle
0.0,1.0,1.0,0.0,5.0,5.0,270.6304789999194,6.0,0.0,part_2,go,550.0,500.0,1.0,,,,,,,,,yellow,triangle
0.0,2.0,2.0,0.0,6.0,6.0,390.7464280000567,6.0,0.0,part_2,go,550.0,500.0,1.0,,,,,,,,,orange,circle
0.0,5.0,1.0,1.0,6.0,6.0,486.1715429997275,6.0,0.0,part_2,stop,550.0,500.0,3.0,,,,,,,,,white,hexagon
0.0,3.0,3.0,0.0,6.0,6.0,491.4668470000833,6.0,0.0,part_2,go,550.0,450.0,1.0,,,,,,,,,cyan,flipped triangle
0.0,8.0,4.0,1.0,5.0,5.0,543.4688189998269,6.0,0.0,part_2,go,550.0,450.0,1.0,,,,,,,,,green,cross
0.0,7.0,3.0,1.0,5.0,5.0,482.5327720000132,6.0,0.0,part_2,stop,550.0,450.0,3.0,,,,,,,,,blue,I
0.0,2.0,2.0,0.0,6.0,6.0,366.3873209998201,6.0,0.0,part_2,go,500.0,450.0,1.0,,,,,,,,,orange,circle
0.0,8.0,4.0,1.0,5.0,5.0,411.0397459999149,6.0,0.0,part_2,stop,500.0,450.0,3.0,,,,,,,,,green,cross
0.0,4.0,4.0,0.0,6.0,6.0,284.1553670004941,6.0,0.0,part_2,go,450.0,450.0,1.0,,,,,,,,,magenta,square
0.0,2.0,2.0,0.0,5.0,5.0,673.1849890002195,6.0,0.0,part_2,go,450.0,450.0,1.0,,,,,,,,,orange,circle
0.0,4.0,4.0,0.0,6.0,6.0,239.6304069998223,6.0,0.0,part_2,go,450.0,450.0,1.0,,,,,,,,,magenta,square
0.0,6.0,2.0,1.0,5.0,5.0,263.5399829996458,6.0,0.0,part_2,stop,450.0,450.0,3.0,,,,,,,,,gray,diamond
0.0,2.0,2.0,0.0,6.0,6.0,279.3252560004475,6.0,0.0,part_2,go,400.0,450.0,1.0,,,,,,,,,orange,circle
0.0,6.0,2.0,1.0,5.0,5.0,313.7384499996187,6.0,0.0,part_2,stop,400.0,450.0,3.0,,,,,,,,,gray,diamond
0.0,4.0,4.0,0.0,5.0,5.0,462.4510289995669,6.0,0.0,part_2,go,350.0,450.0,1.0,,,,,,,,,magenta,square
0.0,7.0,3.0,1.0,5.0,5.0,485.7707740002297,6.0,0.0,part_2,stop,350.0,450.0,3.0,,,,,,,,,blue,I
0.0,3.0,3.0,0.0,5.0,5.0,516.4640630000576,6.0,0.0,part_2,go,300.0,450.0,1.0,,,,,,,,,cyan,flipped triangle
0.0,4.0,4.0,0.0,6.0,6.0,292.2537559998091,6.0,0.0,part_2,go,300.0,450.0,1.0,,,,,,,,,magenta,square
0.0,1.0,1.0,0.0,5.0,5.0,264.0209830005915,6.0,0.0,part_2,go,300.0,450.0,1.0,,,,,,,,,yellow,triangle
0.0,5.0,1.0,1.0,6.0,6.0,259.4348960001298,6.0,0.0,part_2,stop,300.0,450.0,3.0,,,,,,,,,white,hexagon
0.0,2.0,2.0,0.0,5.0,5.0,586.5684219998002,6.0,0.0,part_2,go,300.0,400.0,1.0,,,,,,,,,orange,circle
0.0,3.0,3.0,0.0,6.0,6.0,250.3983300002801,6.0,0.0,part_2,go,300.0,400.0,1.0,,,,,,,,,cyan,flipped triangle
0.0,5.0,1.0,1.0,5.0,0.0,0.0,6.0,0.0,part_2,stop,300.0,400.0,4.0,,,,,,,,,white,hexagon
0.0,5.0,1.0,1.0,5.0,5.0,371.0969730000215,6.0,0.0,part_2,stop,350.0,400.0,3.0,,,,,,,,,white,hexagon
0.0,7.0,3.0,1.0,6.0,6.0,505.29008699959377,6.0,0.0,part_2,stop,300.0,400.0,3.0,,,,,,,,,blue,I
0.0,2.0,2.0,0.0,5.0,5.0,707.6181359998372,6.0,0.0,part_2,go,300.0,350.0,1.0,,,,,,,,,orange,circle
0.0,5.0,1.0,1.0,6.0,6.0,470.9295299999212,6.0,0.0,part_2,stop,300.0,350.0,3.0,,,,,,,,,white,hexagon
0.0,4.0,4.0,0.0,6.0,6.0,519.8697579999134,6.0,0.0,part_2,go,300.0,300.0,1.0,,,,,,,,,magenta,square
0.0,4.0,4.0,0.0,6.0,6.0,558.9391900002738,6.0,0.0,part_2,go,300.0,300.0,1.0,,,,,,,,,magenta,square
0.0,7.0,3.0,1.0,6.0,6.0,353.4884239998064,7.0,0.0,part_2,stop,300.0,300.0,3.0,,,,,,,,,blue,I
0.0,7.0,3.0,1.0,6.0,0.0,0.0,7.0,0.0,part_2,stop,300.0,250.0,4.0,,,,,,,,,blue,I
0.0,3.0,3.0,0.0,5.0,5.0,430.61199100066,7.0,0.0,part_2,go,300.0,300.0,1.0,,,,,,,,,cyan,flipped triangle
0.0,8.0,4.0,1.0,6.0,0.0,0.0,7.0,0.0,part_2,stop,300.0,300.0,4.0,,,,,,,,,green,cross
0.0,3.0,3.0,0.0,6.0,6.0,566.5869849999581,7.0,0.0,part_2,go,300.0,350.0,1.0,,,,,,,,,cyan,flipped triangle
0.0,4.0,4.0,0.0,5.0,5.0,613.419268999678,7.0,0.0,part_2,go,300.0,350.0,1.0,,,,,,,,,magenta,square
0.0,6.0,2.0,1.0,5.0,5.0,564.5099049997953,7.0,0.0,part_2,go,300.0,350.0,1.0,,,,,,,,,gray,diamond
0.0,6.0,2.0,1.0,6.0,0.0,0.0,7.0,0.0,part_2,stop,300.0,350.0,4.0,,,,,,,,,gray,diamond
0.0,1.0,1.0,0.0,5.0,5.0,622.9917669998031,7.0,0.0,part_2,go,300.0,400.0,1.0,,,,,,,,,yellow,triangle
0.0,5.0,1.0,1.0,5.0,5.0,421.6267339998012,7.0,0.0,part_2,stop,300.0,400.0,3.0,,,,,,,,,white,hexagon
0.0,5.0,1.0,1.0,5.0,0.0,0.0,7.0,0.0,part_2,stop,250.0,400.0,4.0,,,,,,,,,white,hexagon
0.0,1.0,1.0,0.0,6.0,6.0,555.6167640006606,7.0,0.0,part_2,go,300.0,400.0,1.0,,,,,,,,,yellow,triangle
0.0,5.0,1.0,1.0,6.0,6.0,452.8209129994138,7.0,0.0,part_2,stop,300.0,400.0,3.0,,,,,,,,,white,hexagon
0.0,6.0,2.0,1.0,5.0,0.0,0.0,7.0,0.0,part_2,stop,300.0,350.0,4.0,,,,,,,,,gray,diamond
0.0,2.0,2.0,0.0,5.0,5.0,660.0840239998433,7.0,0.0,part_2,go,350.0,350.0,1.0,,,,,,,,,orange,circle
0.0,8.0,4.0,1.0,6.0,0.0,0.0,7.0,0.0,part_2,stop,350.0,350.0,4.0,,,,,,,,,green,cross
0.0,8.0,4.0,1.0,5.0,5.0,577.7305020001222,7.0,0.0,part_2,go,350.0,400.0,1.0,,,,,,,,,green,cross
0.0,6.0,2.0,1.0,6.0,0.0,0.0,7.0,0.0,part_2,stop,350.0,400.0,4.0,,,,,,,,,gray,diamond
0.0,3.0,3.0,0.0,6.0,6.0,629.9323049997838,7.0,0.0,part_2,go,350.0,450.0,1.0,,,,,,,,,cyan,flipped triangle
0.0,2.0,2.0,0.0,6.0,6.0,607.4191890002112,7.0,0.0,part_2,go,350.0,450.0,1.0,,,,,,,,,orange,circle
0.0,8.0,4.0,1.0,6.0,6.0,620.7258689992159,7.0,0.0,part_2,go,350.0,450.0,1.0,,,,,,,,,green,cross
0.0,7.0,3.0,1.0,5.0,0.0,0.0,7.0,0.0,part_2,stop,350.0,450.0,4.0,,,,,,,,,blue,I
0.0,2.0,2.0,0.0,6.0,6.0,604.441866000343,7.0,0.0,part_2,go,400.0,450.0,1.0,,,,,,,,,orange,circle
0.0,8.0,4.0,1.0,6.0,6.0,581.0428180002418,7.0,0.0,part_2,stop,400.0,450.0,3.0,,,,,,,,,green,cross
0.0,8.0,4.0,1.0,5.0,0.0,0.0,7.0,0.0,part_2,stop,400.0,400.0,4.0,,,,,,,,,green,cross
0.0,5.0,1.0,1.0,5.0,0.0,0.0,7.0,0.0,part_2,stop,450.0,400.0,4.0,,,,,,,,,white,hexagon
0.0,3.0,3.0,0.0,5.0,5.0,659.1586439999446,7.0,0.0,part_2,go,500.0,400.0,1.0,,,,,,,,,cyan,flipped triangle
0.0,7.0,3.0,1.0,6.0,0.0,0.0,7.0,0.0,part_2,stop,500.0,400.0,4.0,,,,,,,,,blue,I
0.0,7.0,3.0,1.0,5.0,0.0,0.0,7.0,0.0,part_2,stop,500.0,450.0,4.0,,,,,,,,,blue,I
0.0,4.0,4.0,0.0,5.0,5.0,592.5612720002391,7.0,0.0,part_2,go,550.0,450.0,1.0,,,,,,,,,magenta,square
0.0,5.0,1.0,1.0,6.0,6.0,528.9015069993184,7.0,0.0,part_2,go,550.0,450.0,1.0,,,,,,,,,white,hexagon
0.0,8.0,4.0,1.0,5.0,5.0,503.8198199999897,7.0,0.0,part_2,stop,550.0,450.0,3.0,,,,,,,,,green,cross
0.0,5.0,1.0,1.0,5.0,5.0,527.7793420000307,7.0,0.0,part_2,stop,500.0,450.0,3.0,,,,,,,,,white,hexagon
0.0,1.0,1.0,0.0,6.0,6.0,535.3859479992025,7.0,0.0,part_2,go,450.0,450.0,1.0,,,,,,,,,yellow,triangle
0.0,6.0,2.0,1.0,6.0,0.0,0.0,7.0,0.0,part_2,stop,450.0,450.0,4.0,,,,,,,,,gray,diamond
0.0,1.0,1.0,0.0,5.0,5.0,663.8871929999368,7.0,0.0,part_2,go,450.0,500.0,1.0,,,,,,,,,yellow,triangle
0.0,5.0,1.0,1.0,6.0,6.0,592.8403640000397,8.0,0.0,part_2,stop,450.0,500.0,3.0,,,,,,,,,white,hexagon
0.0,8.0,4.0,1.0,5.0,0.0,0.0,8.0,0.0,part_2,stop,450.0,450.0,4.0,,,,,,,,,green,cross
0.0,5.0,1.0,1.0,6.0,6.0,544.078470000386,8.0,0.0,part_2,stop,500.0,450.0,3.0,,,,,,,,,white,hexagon
0.0,1.0,1.0,0.0,5.0,5.0,574.5471660002295,8.0,0.0,part_2,go,500.0,400.0,1.0,,,,,,,,,yellow,triangle
0.0,5.0,1.0,1.0,5.0,5.0,585.2343090000431,8.0,0.0,part_2,stop,500.0,400.0,3.0,,,,,,,,,white,hexagon
0.0,7.0,3.0,1.0,5.0,5.0,768.2456789998469,8.0,0.0,part_2,go,450.0,400.0,1.0,,,,,,,,,blue,I
0.0,5.0,1.0,1.0,5.0,5.0,533.5283590002291,8.0,0.0,part_2,stop,450.0,400.0,3.0,,,,,,,,,white,hexagon
0.0,8.0,4.0,1.0,6.0,0.0,0.0,8.0,0.0,part_2,stop,400.0,400.0,4.0,,,,,,,,,green,cross
0.0,2.0,2.0,0.0,5.0,5.0,813.7887830007458,8.0,0.0,part_2,go,400.0,450.0,1.0,,,,,,,,,orange,circle
0.0,6.0,2.0,1.0,6.0,6.0,539.4216019994929,8.0,0.0,part_2,go,400.0,450.0,1.0,,,,,,,,,gray,diamond
0.0,4.0,4.0,0.0,6.0,6.0,581.8599620006353,8.0,0.0,part_2,go,400.0,450.0,1.0,,,,,,,,,magenta,square
0.0,2.0,2.0,0.0,5.0,5.0,466.4769740002157,8.0,0.0,part_2,go,400.0,450.0,1.0,,,,,,,,,orange,circle
0.0,8.0,4.0,1.0,5.0,5.0,353.2477310000104,8.0,0.0,part_2,stop,400.0,450.0,3.0,,,,,,,,,green,cross
0.0,7.0,3.0,1.0,6.0,6.0,578.2075960005386,8.0,0.0,part_2,stop,350.0,450.0,3.0,,,,,,,,,blue,I
0.0,5.0,1.0,1.0,5.0,0.0,0.0,8.0,0.0,part_2,stop,350.0,400.0,4.0,,,,,,,,,white,hexagon
0.0,2.0,2.0,0.0,5.0,5.0,641.2231610001982,8.0,0.0,part_2,go,400.0,400.0,1.0,,,,,,,,,orange,circle
0.0,3.0,3.0,0.0,6.0,6.0,353.5096209998301,8.0,0.0,part_2,go,400.0,400.0,1.0,,,,,,,,,cyan,flipped triangle
0.0,1.0,1.0,0.0,5.0,5.0,552.0962039990991,8.0,0.0,part_2,go,400.0,400.0,1.0,,,,,,,,,yellow,triangle
0.0,4.0,4.0,0.0,6.0,6.0,541.5403689994491,8.0,0.0,part_2,go,400.0,400.0,1.0,,,,,,,,,magenta,square
0.0,8.0,4.0,1.0,5.0,5.0,312.3787699996683,8.0,0.0,part_2,go,400.0,400.0,1.0,,,,,,,,,green,cross
0.0,8.0,4.0,1.0,5.0,5.0,381.2526729998353,8.0,0.0,part_2,stop,400.0,400.0,3.0,,,,,,,,,green,cross
0.0,1.0,1.0,0.0,6.0,6.0,621.5717800005223,8.0,0.0,part_2,go,350.0,400.0,1.0,,,,,,,,,yellow,triangle
0.0,3.0,3.0,0.0,6.0,6.0,340.5315169993628,8.0,0.0,part_2,go,350.0,400.0,1.0,,,,,,,,,cyan,flipped triangle
0.0,1.0,1.0,0.0,6.0,6.0,579.4698519994199,8.0,0.0,part_2,go,350.0,400.0,1.0,,,,,,,,,yellow,triangle
0.0,3.0,3.0,0.0,6.0,6.0,581.8999729999632,8.0,0.0,part_2,go,350.0,400.0,1.0,,,,,,,,,cyan,flipped triangle
0.0,5.0,1.0,1.0,5.0,0.0,0.0,8.0,0.0,part_2,stop,350.0,400.0,4.0,,,,,,,,,white,hexagon
0.0,3.0,3.0,0.0,5.0,5.0,649.7791370002233,8.0,0.0,part_2,go,400.0,400.0,1.0,,,,,,,,,cyan,flipped triangle
0.0,1.0,1.0,0.0,6.0,6.0,699.390769999809,8.0,0.0,part_2,go,400.0,400.0,1.0,,,,,,,,,yellow,triangle
0.0,8.0,4.0,1.0,5.0,5.0,555.3226510000968,8.0,0.0,part_2,stop,400.0,400.0,3.0,,,,,,,,,green,cross
0.0,3.0,3.0,0.0,5.0,5.0,721.5263259995481,8.0,0.0,part_2,go,350.0,400.0,1.0,,,,,,,,,cyan,flipped triangle
0.0,8.0,4.0,1.0,6.0,6.0,459.4027389994153,8.0,0.0,part_2,go,350.0,400.0,1.0,,,,,,,,,green,cross
0.0,5.0,1.0,1.0,6.0,6.0,322.0735419999982,8.0,0.0,part_2,stop,350.0,400.0,3.0,,,,,,,,,white,hexagon
0.0,7.0,3.0,1.0,5.0,0.0,0.0,8.0,0.0,part_2,stop,350.0,350.0,4.0,,,,,,,,,blue,I
0.0,3.0,3.0,0.0,5.0,5.0,567.1898689997761,8.0,0.0,part_2,go,400.0,350.0,1.0,,,,,,,,,cyan,flipped triangle
0.0,5.0,1.0,1.0,5.0,0.0,0.0,8.0,0.0,part_2,stop,400.0,350.0,4.0,,,,,,,,,white,hexagon
0.0,6.0,2.0,1.0,6.0,0.0,0.0,8.0,0.0,part_2,stop,450.0,350.0,4.0,,,,,,,,,gray,diamond
0.0,7.0,3.0,1.0,7.0,4.0,1643.8566599990736,1.0,2.0,part_3,go,0.0,0.0,0.0,234.0,6.0,39.0,78.0,195.0,234.0,156.0,117.0,blue,I
0.0,5.0,1.0,1.0,7.0,1.0,1.2658169998758,1.0,1.0,part_3,go,0.0,0.0,0.0,170.0,5.0,170.0,34.0,102.0,204.0,136.0,68.0,white,hexagon
0.0,4.0,4.0,0.0,7.0,5.0,3835.302409001088,1.0,1.0,part_3,go,0.0,0.0,0.0,204.0,6.0,170.0,68.0,34.0,102.0,204.0,136.0,magenta,square
0.0,4.0,4.0,0.0,7.0,5.0,1765.7237829989754,1.0,1.0,part_3,go,0.0,0.0,0.0,324.0,6.0,108.0,54.0,162.0,270.0,324.0,216.0,magenta,square
0.0,5.0,1.0,1.0,7.0,1.0,942.473359998985,1.0,1.0,part_3,go,0.0,0.0,0.0,68.0,2.0,68.0,136.0,34.0,204.0,170.0,102.0,white,hexagon
0.0,5.0,1.0,1.0,7.0,2.0,1098.3142290006072,1.0,1.0,part_3,go,0.0,0.0,0.0,54.0,1.0,108.0,54.0,324.0,162.0,216.0,270.0,white,hexagon
0.0,2.0,2.0,0.0,7.0,3.0,0.21306400049069998,1.0,1.0,part_3,go,0.0,0.0,0.0,294.0,6.0,196.0,98.0,294.0,147.0,49.0,245.0,orange,circle
0.0,3.0,3.0,0.0,7.0,6.0,2964.901679000832,1.0,1.0,part_3,go,0.0,0.0,0.0,196.0,4.0,49.0,294.0,147.0,245.0,98.0,196.0,cyan,flipped triangle
0.0,3.0,3.0,0.0,7.0,6.0,1979.1293929993117,1.0,1.0,part_3,go,0.0,0.0,0.0,170.0,5.0,68.0,204.0,34.0,136.0,102.0,170.0,cyan,flipped triangle
0.0,3.0,3.0,0.0,7.0,5.0,1836.3952950003295,1.0,1.0,part_3,go,0.0,0.0,0.0,147.0,3.0,49.0,245.0,294.0,98.0,147.0,196.0,cyan,flipped triangle
0.0,6.0,2.0,1.0,7.0,5.0,2198.0296689998795,1.0,1.0,part_3,go,0.0,0.0,0.0,39.0,1.0,195.0,234.0,117.0,156.0,39.0,78.0,gray,diamond
0.0,1.0,1.0,0.0,7.0,2.0,2298.4034820001402,1.0,1.0,part_3,go,0.0,0.0,0.0,204.0,6.0,136.0,204.0,68.0,34.0,102.0,170.0,yellow,triangle
0.0,8.0,4.0,1.0,7.0,3.0,1875.442784999905,1.0,1.0,part_3,go,0.0,0.0,0.0,245.0,5.0,49.0,147.0,245.0,196.0,98.0,294.0,green,cross
0.0,2.0,2.0,0.0,7.0,5.0,1554.499556999872,1.0,1.0,part_3,go,0.0,0.0,0.0,162.0,3.0,324.0,54.0,108.0,216.0,162.0,270.0,orange,circle
0.0,7.0,3.0,1.0,7.0,4.0,1019.3482590002532,1.0,1.0,part_3,go,0.0,0.0,0.0,294.0,6.0,196.0,245.0,147.0,294.0,49.0,98.0,blue,I
0.0,3.0,3.0,0.0,7.0,6.0,1078.1248410003172,1.0,1.0,part_3,go,0.0,0.0,0.0,156.0,4.0,234.0,78.0,117.0,195.0,39.0,156.0,cyan,flipped triangle
0.0,5.0,1.0,1.0,7.0,1.0,1609.3109949997595,1.0,1.0,part_3,go,0.0,0.0,0.0,39.0,1.0,39.0,156.0,78.0,234.0,117.0,195.0,white,hexagon
0.0,1.0,1.0,0.0,7.0,3.0,1249.5040890007658,1.0,1.0,part_3,go,0.0,0.0,0.0,117.0,3.0,39.0,156.0,117.0,78.0,234.0,195.0,yellow,triangle
0.0,4.0,4.0,0.0,7.0,4.0,1025.7058539991704,1.0,1.0,part_3,go,0.0,0.0,0.0,204.0,6.0,102.0,136.0,68.0,204.0,34.0,170.0,magenta,square
0.0,3.0,3.0,0.0,7.0,6.0,1429.247787998975,1.0,1.0,part_3,go,0.0,0.0,0.0,176.0,4.0,44.0,220.0,88.0,264.0,132.0,176.0,cyan,flipped triangle
0.0,2.0,2.0,0.0,7.0,4.0,934.474143999978,2.0,1.0,part_3,go,0.0,0.0,0.0,196.0,4.0,147.0,294.0,98.0,196.0,245.0,49.0,orange,circle
0.0,1.0,1.0,0.0,7.0,4.0,1402.5327780000223,2.0,1.0,part_3,go,0.0,0.0,0.0,162.0,3.0,54.0,270.0,324.0,162.0,216.0,108.0,yellow,triangle
0.0,1.0,1.0,0.0,7.0,2.0,1843.7355480000408,2.0,1.0,part_3,go,0.0,0.0,0.0,196.0,4.0,294.0,196.0,147.0,245.0,49.0,98.0,yellow,triangle
0.0,1.0,1.0,0.0,7.0,3.0,1101.1902029986231,2.0,1.0,part_3,go,0.0,0.0,0.0,156.0,4.0,117.0,78.0,156.0,39.0,195.0,234.0,yellow,triangle
0.0,5.0,1.0,1.0,7.0,5.0,923.0721349995292,2.0,1.0,part_3,go,0.0,0.0,0.0,88.0,2.0,220.0,44.0,176.0,264.0,88.0,132.0,white,hexagon
0.0,1.0,1.0,0.0,7.0,6.0,1444.5784900017316,2.0,1.0,part_3,go,0.0,0.0,0.0,196.0,4.0,245.0,147.0,98.0,49.0,294.0,196.0,yellow,triangle
0.0,3.0,3.0,0.0,7.0,2.0,1617.9342060004274,2.0,1.0,part_3,go,0.0,0.0,0.0,324.0,6.0,54.0,324.0,162.0,270.0,108.0,216.0,cyan,flipped triangle
0.0,3.0,3.0,0.0,7.0,2.0,1711.5710719990602,2.0,1.0,part_3,go,0.0,0.0,0.0,204.0,6.0,68.0,204.0,170.0,34.0,102.0,136.0,cyan,flipped triangle
0.0,7.0,3.0,1.0,7.0,3.0,1364.104539001346,2.0,1.0,part_3,go,0.0,0.0,0.0,204.0,6.0,170.0,34.0,204.0,68.0,136.0,102.0,blue,I
0.0,1.0,1.0,0.0,7.0,6.0,938.371714000823,2.0,1.0,part_3,go,0.0,0.0,0.0,176.0,4.0,220.0,132.0,44.0,264.0,88.0,176.0,yellow,triangle
0.0,5.0,1.0,1.0,7.0,4.0,1412.8626010005974,2.0,1.0,part_3,go,0.0,0.0,0.0,54.0,1.0,216.0,270.0,108.0,54.0,324.0,162.0,white,hexagon
0.0,2.0,2.0,0.0,7.0,5.0,1118.8245299999835,2.0,1.0,part_3,go,0.0,0.0,0.0,195.0,5.0,78.0,117.0,234.0,39.0,195.0,156.0,orange,circle
0.0,4.0,4.0,0.0,7.0,3.0,855.0494689989137,2.0,1.0,part_3,go,0.0,0.0,0.0,176.0,4.0,132.0,220.0,176.0,44.0,264.0,88.0,magenta,square
0.0,1.0,1.0,0.0,7.0,2.0,967.5635420007892,2.0,1.0,part_3,go,0.0,0.0,0.0,162.0,3.0,324.0,162.0,270.0,54.0,216.0,108.0,yellow,triangle
0.0,7.0,3.0,1.0,7.0,4.0,929.2475239999476,2.0,1.0,part_3,go,0.0,0.0,0.0,220.0,5.0,132.0,176.0,264.0,220.0,88.0,44.0,blue,I
0.0,8.0,4.0,1.0,7.0,3.0,1171.879841000191,2.0,1.0,part_3,go,0.0,0.0,0.0,216.0,4.0,162.0,54.0,216.0,324.0,108.0,270.0,green,cross
0.0,6.0,2.0,1.0,7.0,2.0,1011.7138830009935,2.0,1.0,part_3,go,0.0,0.0,0.0,78.0,2.0,234.0,78.0,39.0,156.0,117.0,195.0,gray,diamond
0.0,8.0,4.0,1.0,7.0,3.0,1863.533378000284,2.0,1.0,part_3,go,0.0,0.0,0.0,170.0,5.0,204.0,102.0,170.0,34.0,136.0,68.0,green,cross
0.0,8.0,4.0,1.0,7.0,1.0,705.5562639998243,2.0,1.0,part_3,go,0.0,0.0,0.0,216.0,4.0,216.0,270.0,162.0,324.0,108.0,54.0,green,cross
0.0,2.0,2.0,0.0,7.0,5.0,1202.9305590003787,2.0,1.0,part_3,go,0.0,0.0,0.0,162.0,3.0,270.0,54.0,324.0,216.0,162.0,108.0,orange,circle
0.0,4.0,4.0,0.0,7.0,3.0,1045.1101350008685,3.0,1.0,part_3,go,0.0,0.0,0.0,264.0,6.0,176.0,88.0,264.0,132.0,220.0,44.0,magenta,square
0.0,5.0,1.0,1.0,7.0,6.0,1660.036401999605,3.0,1.0,part_3,go,0.0,0.0,0.0,98.0,2.0,147.0,245.0,294.0,196.0,49.0,98.0,white,hexagon
0.0,4.0,4.0,0.0,7.0,4.0,839.3862239990995,3.0,1.0,part_3,go,0.0,0.0,0.0,195.0,5.0,156.0,234.0,117.0,195.0,78.0,39.0,magenta,square
0.0,8.0,4.0,1.0,7.0,6.0,1225.3927370002202,3.0,1.0,part_3,go,0.0,0.0,0.0,176.0,4.0,264.0,132.0,220.0,44.0,88.0,176.0,green,cross
0.0,7.0,3.0,1.0,7.0,4.0,1185.2302600000255,3.0,1.0,part_3,go,0.0,0.0,0.0,170.0,5.0,136.0,34.0,102.0,170.0,204.0,68.0,blue,I
0.0,6.0,2.0,1.0,7.0,6.0,1121.9103830007953,3.0,1.0,part_3,go,0.0,0.0,0.0,264.0,6.0,44.0,220.0,176.0,132.0,88.0,264.0,gray,diamond
0.0,2.0,2.0,0.0,7.0,5.0,1250.3031539999938,3.0,1.0,part_3,go,0.0,0.0,0.0,88.0,2.0,264.0,220.0,132.0,176.0,88.0,44.0,orange,circle
0.0,7.0,3.0,1.0,7.0,5.0,1078.950404998977,3.0,1.0,part_3,go,0.0,0.0,0.0,132.0,3.0,264.0,220.0,88.0,44.0,132.0,176.0,blue,I
0.0,2.0,2.0,0.0,7.0,1.0,1157.9324680005811,3.0,1.0,part_3,go,0.0,0.0,0.0,102.0,3.0,102.0,204.0,34.0,170.0,68.0,136.0,orange,circle
0.0,6.0,2.0,1.0,7.0,6.0,902.3229160011396,3.0,1.0,part_3,go,0.0,0.0,0.0,54.0,1.0,216.0,324.0,162.0,270.0,108.0,54.0,gray,diamond
0.0,3.0,3.0,0.0,7.0,2.0,1679.645824000545,3.0,1.0,part_3,go,0.0,0.0,0.0,117.0,3.0,195.0,117.0,156.0,234.0,39.0,78.0,cyan,flipped triangle
0.0,4.0,4.0,0.0,7.0,5.0,1300.925792000271,3.0,1.0,part_3,go,0.0,0.0,0.0,156.0,4.0,117.0,78.0,234.0,39.0,156.0,195.0,magenta,square
0.0,6.0,2.0,1.0,7.0,1.0,756.6563140007929,3.0,1.0,part_3,go,0.0,0.0,0.0,49.0,1.0,49.0,245.0,196.0,147.0,294.0,98.0,gray,diamond
0.0,7.0,3.0,1.0,7.0,2.0,903.3419570005208,3.0,1.0,part_3,go,0.0,0.0,0.0,98.0,2.0,294.0,98.0,196.0,147.0,245.0,49.0,blue,I
0.0,5.0,1.0,1.0,7.0,5.0,1838.3387649992071,3.0,1.0,part_3,go,0.0,0.0,0.0,49.0,1.0,245.0,98.0,294.0,147.0,49.0,196.0,white,hexagon
0.0,2.0,2.0,0.0,7.0,3.0,1968.4397740002169,3.0,1.0,part_3,go,0.0,0.0,0.0,44.0,1.0,176.0,264.0,44.0,220.0,88.0,132.0,orange,circle
0.0,2.0,2.0,0.0,7.0,6.0,1178.8438149997091,3.0,1.0,part_3,go,0.0,0.0,0.0,204.0,6.0,170.0,68.0,136.0,102.0,34.0,204.0,orange,circle
0.0,4.0,4.0,0.0,7.0,3.0,1290.1075899990246,3.0,1.0,part_3,go,0.0,0.0,0.0,216.0,4.0,270.0,54.0,216.0,108.0,324.0,162.0,magenta,square
0.0,6.0,2.0,1.0,7.0,4.0,946.7406359999586,3.0,1.0,part_3,go,0.0,0.0,0.0,34.0,1.0,136.0,204.0,102.0,34.0,170.0,68.0,gray,diamond
0.0,6.0,2.0,1.0,7.0,5.0,902.8665810001256,3.0,1.0,part_3,go,0.0,0.0,0.0,34.0,1.0,170.0,102.0,204.0,68.0,34.0,136.0,gray,diamond
0.0,6.0,2.0,1.0,7.0,4.0,725.7973680007126,4.0,1.0,part_3,go,0.0,0.0,0.0,44.0,1.0,176.0,220.0,132.0,44.0,88.0,264.0,gray,diamond
0.0,3.0,3.0,0.0,7.0,5.0,808.612554001229,4.0,1.0,part_3,go,0.0,0.0,0.0,132.0,3.0,44.0,264.0,220.0,176.0,132.0,88.0,cyan,flipped triangle
0.0,3.0,3.0,0.0,7.0,4.0,1080.8809900008782,4.0,1.0,part_3,go,0.0,0.0,0.0,216.0,4.0,324.0,108.0,162.0,216.0,270.0,54.0,cyan,flipped triangle
0.0,8.0,4.0,1.0,7.0,4.0,900.2810980000504,4.0,1.0,part_3,go,0.0,0.0,0.0,156.0,4.0,39.0,78.0,234.0,156.0,117.0,195.0,green,cross
0.0,5.0,1.0,1.0,7.0,2.0,1276.8183829994086,4.0,1.0,part_3,go,0.0,0.0,0.0,234.0,6.0,117.0,234.0,78.0,39.0,156.0,195.0,white,hexagon
0.0,7.0,3.0,1.0,7.0,5.0,1404.716619999817,4.0,1.0,part_3,go,0.0,0.0,0.0,324.0,6.0,270.0,216.0,108.0,54.0,324.0,162.0,blue,I
0.0,1.0,1.0,0.0,7.0,4.0,1551.0462210004334,4.0,1.0,part_3,go,0.0,0.0,0.0,176.0,4.0,220.0,132.0,44.0,176.0,264.0,88.0,yellow,triangle
0.0,8.0,4.0,1.0,7.0,5.0,760.9548510008608,4.0,1.0,part_3,go,0.0,0.0,0.0,204.0,6.0,68.0,136.0,34.0,170.0,204.0,102.0,green,cross
0.0,7.0,3.0,1.0,7.0,2.0,2202.405828000338,4.0,1.0,part_3,go,0.0,0.0,0.0,162.0,3.0,216.0,162.0,270.0,108.0,54.0,324.0,blue,I
0.0,4.0,4.0,0.0,7.0,4.0,853.8327480000589,4.0,1.0,part_3,go,0.0,0.0,0.0,147.0,3.0,196.0,294.0,49.0,147.0,98.0,245.0,magenta,square
0.0,6.0,2.0,1.0,7.0,2.0,1756.6433449992471,4.0,1.0,part_3,go,0.0,0.0,0.0,49.0,1.0,196.0,49.0,98.0,147.0,245.0,294.0,gray,diamond
0.0,5.0,1.0,1.0,7.0,3.0,1324.560086000929,4.0,1.0,part_3,go,0.0,0.0,0.0,44.0,1.0,88.0,132.0,44.0,176.0,220.0,264.0,white,hexagon
0.0,4.0,4.0,0.0,7.0,4.0,929.1346150002936,4.0,1.0,part_3,go,0.0,0.0,0.0,294.0,6.0,147.0,49.0,196.0,294.0,98.0,245.0,magenta,square
0.0,6.0,2.0,1.0,7.0,5.0,1056.2265549997392,4.0,1.0,part_3,go,0.0,0.0,0.0,54.0,1.0,162.0,216.0,108.0,324.0,54.0,270.0,gray,diamond
0.0,8.0,4.0,1.0,7.0,4.0,793.6524030010332,4.0,1.0,part_3,go,0.0,0.0,0.0,234.0,6.0,156.0,117.0,195.0,234.0,39.0,78.0,green,cross
0.0,1.0,1.0,0.0,7.0,4.0,730.5884769994009,4.0,1.0,part_3,go,0.0,0.0,0.0,170.0,5.0,102.0,204.0,68.0,170.0,136.0,34.0,yellow,triangle
0.0,7.0,3.0,1.0,7.0,5.0,1011.7759920012761,4.0,1.0,part_3,go,0.0,0.0,0.0,234.0,6.0,156.0,195.0,117.0,78.0,234.0,39.0,blue,I
0.0,2.0,2.0,0.0,7.0,6.0,1551.6999240007865,4.0,1.0,part_3,go,0.0,0.0,0.0,117.0,3.0,78.0,39.0,156.0,234.0,195.0,117.0,orange,circle
0.0,8.0,4.0,1.0,7.0,1.0,1270.5957910002326,4.0,1.0,part_3,go,0.0,0.0,0.0,176.0,4.0,176.0,88.0,220.0,44.0,132.0,264.0,green,cross
0.0,8.0,4.0,1.0,7.0,5.0,1337.4855909987673,4.0,1.0,part_3,go,0.0,0.0,0.0,147.0,3.0,245.0,196.0,49.0,294.0,147.0,98.0,green,cross
