raw_reward_magnitude,stim_reward,stepwise_reward_magnitude,paired_with_stopping,stim_location,response,reaction_time,block,num_trial_presentations,which_phase,stop_signal_trial_type,left_SSD,right_SSD,accuracy,chosen_bidding_amount,chosen_bidding_level,possible_bid_1,possible_bid_2,possible_bid_3,possible_bid_4,possible_bid_5,possible_bid_6,color_text,shape_text
30.0,5.0,1.0,1.0,1.0,1.0,328.34719796665007,1.0,1.0,phase_1,,,,,,,,,,,,,magenta,triangle
392.0,8.0,4.0,1.0,1.0,1.0,345.63745604828,1.0,1.0,phase_1,,,,,,,,,,,,,cyan,hexagon
0.0,6.0,0.0,1.0,3.0,3.0,306.0991580132395,1.0,1.0,phase_1,,,,,,,,,,,,,gray,circle
0.0,8.0,0.0,1.0,1.0,1.0,293.0452011059969,1.0,1.0,phase_1,,,,,,,,,,,,,cyan,hexagon
396.0,4.0,4.0,0.0,2.0,2.0,297.3804189823568,1.0,1.0,phase_1,,,,,,,,,,,,,white,diamond
376.0,4.0,4.0,0.0,1.0,1.0,333.353437948972,1.0,1.0,phase_1,,,,,,,,,,,,,white,diamond
213.0,7.0,3.0,1.0,2.0,2.0,264.6985789760947,1.0,1.0,phase_1,,,,,,,,,,,,,green,cross
120.0,6.0,2.0,1.0,4.0,4.0,321.0285890381783,1.0,1.0,phase_1,,,,,,,,,,,,,gray,circle
89.0,2.0,2.0,0.0,2.0,2.0,356.0799220576882,1.0,1.0,phase_1,,,,,,,,,,,,,orange,I
55.0,1.0,1.0,0.0,4.0,4.0,270.7481039687991,1.0,1.0,phase_1,,,,,,,,,,,,,blue,square
97.0,2.0,2.0,0.0,3.0,3.0,228.6656680516898,1.0,1.0,phase_1,,,,,,,,,,,,,orange,I
89.0,2.0,2.0,0.0,3.0,3.0,279.9631610978395,1.0,1.0,phase_1,,,,,,,,,,,,,orange,I
193.0,3.0,3.0,0.0,2.0,2.0,334.1520510148257,1.0,1.0,phase_1,,,,,,,,,,,,,yellow,flipped triangle
106.0,6.0,2.0,1.0,3.0,3.0,353.3566598780453,1.0,1.0,phase_1,,,,,,,,,,,,,gray,circle
187.0,7.0,3.0,1.0,4.0,4.0,265.297272009775,1.0,1.0,phase_1,,,,,,,,,,,,,green,cross
27.0,1.0,1.0,0.0,2.0,2.0,317.735934164375,1.0,1.0,phase_1,,,,,,,,,,,,,blue,square
215.0,7.0,3.0,1.0,2.0,2.0,303.9892329834401,1.0,1.0,phase_1,,,,,,,,,,,,,green,cross
86.0,6.0,2.0,1.0,2.0,2.0,355.6845551356673,1.0,1.0,phase_1,,,,,,,,,,,,,gray,circle
44.0,1.0,1.0,0.0,1.0,1.0,248.7586569041013,1.0,1.0,phase_1,,,,,,,,,,,,,blue,square
177.0,3.0,3.0,0.0,3.0,3.0,272.3346569109708,1.0,1.0,phase_1,,,,,,,,,,,,,yellow,flipped triangle
412.0,8.0,4.0,1.0,4.0,4.0,244.4076191168278,1.0,1.0,phase_1,,,,,,,,,,,,,cyan,hexagon
114.0,6.0,2.0,1.0,1.0,1.0,304.6408828813582,1.0,1.0,phase_1,,,,,,,,,,,,,gray,circle
419.0,8.0,4.0,1.0,3.0,3.0,301.5314068179577,1.0,1.0,phase_1,,,,,,,,,,,,,cyan,hexagon
0.0,6.0,0.0,1.0,3.0,3.0,312.3796489089727,1.0,1.0,phase_1,,,,,,,,,,,,,gray,circle
177.0,3.0,3.0,0.0,1.0,1.0,341.8753428850323,1.0,1.0,phase_1,,,,,,,,,,,,,yellow,flipped triangle
0.0,3.0,0.0,0.0,3.0,3.0,266.5346090216189,1.0,1.0,phase_1,,,,,,,,,,,,,yellow,flipped triangle
0.0,8.0,0.0,1.0,1.0,1.0,265.4226541053504,1.0,1.0,phase_1,,,,,,,,,,,,,cyan,hexagon
0.0,4.0,0.0,0.0,3.0,3.0,287.0038810651749,1.0,1.0,phase_1,,,,,,,,,,,,,white,diamond
119.0,2.0,2.0,0.0,2.0,2.0,336.3293940201401,1.0,1.0,phase_1,,,,,,,,,,,,,orange,I
102.0,6.0,2.0,1.0,1.0,1.0,308.1809210125357,1.0,1.0,phase_1,,,,,,,,,,,,,gray,circle
202.0,7.0,3.0,1.0,4.0,4.0,282.6870279386639,1.0,1.0,phase_1,,,,,,,,,,,,,green,cross
215.0,3.0,3.0,0.0,2.0,2.0,279.3054259382188,1.0,1.0,phase_1,,,,,,,,,,,,,yellow,flipped triangle
68.0,5.0,1.0,1.0,3.0,3.0,283.4621760994196,1.0,1.0,phase_1,,,,,,,,,,,,,magenta,triangle
180.0,3.0,3.0,0.0,4.0,4.0,319.9330298230052,1.0,1.0,phase_1,,,,,,,,,,,,,yellow,flipped triangle
196.0,7.0,3.0,1.0,2.0,2.0,308.3281980361789,1.0,1.0,phase_1,,,,,,,,,,,,,green,cross
81.0,6.0,2.0,1.0,1.0,1.0,341.3338179234415,1.0,2.0,phase_1,,,,,,,,,,,,,gray,circle
89.0,6.0,2.0,1.0,3.0,3.0,340.6886600423604,1.0,1.0,phase_1,,,,,,,,,,,,,gray,circle
177.0,7.0,3.0,1.0,4.0,4.0,377.6213119272142,1.0,1.0,phase_1,,,,,,,,,,,,,green,cross
31.0,1.0,1.0,0.0,4.0,4.0,333.0677039921283,1.0,1.0,phase_1,,,,,,,,,,,,,blue,square
187.0,3.0,3.0,0.0,4.0,4.0,337.0122760534286,1.0,1.0,phase_1,,,,,,,,,,,,,yellow,flipped triangle
0.0,2.0,0.0,0.0,4.0,4.0,340.6891978811472,1.0,1.0,phase_1,,,,,,,,,,,,,orange,I
39.0,5.0,1.0,1.0,3.0,3.0,305.2798490971327,1.0,1.0,phase_1,,,,,,,,,,,,,magenta,triangle
395.0,4.0,4.0,0.0,3.0,3.0,337.1446118690073,1.0,1.0,phase_1,,,,,,,,,,,,,white,diamond
55.0,1.0,1.0,0.0,1.0,1.0,390.0211350992322,1.0,1.0,phase_1,,,,,,,,,,,,,blue,square
193.0,7.0,3.0,1.0,4.0,4.0,299.1015140432864,1.0,1.0,phase_1,,,,,,,,,,,,,green,cross
382.0,4.0,4.0,0.0,2.0,2.0,356.414285954088,1.0,1.0,phase_1,,,,,,,,,,,,,white,diamond
401.0,8.0,4.0,1.0,1.0,1.0,329.4979811180383,1.0,1.0,phase_1,,,,,,,,,,,,,cyan,hexagon
63.0,1.0,1.0,0.0,3.0,3.0,272.2587799653411,1.0,1.0,phase_1,,,,,,,,,,,,,blue,square
204.0,3.0,3.0,0.0,1.0,1.0,308.8745020795613,1.0,1.0,phase_1,,,,,,,,,,,,,yellow,flipped triangle
71.0,1.0,1.0,0.0,1.0,1.0,393.0808319710195,1.0,1.0,phase_1,,,,,,,,,,,,,blue,square
49.0,5.0,1.0,1.0,2.0,2.0,358.0696729477495,1.0,1.0,phase_1,,,,,,,,,,,,,magenta,triangle
68.0,5.0,1.0,1.0,2.0,2.0,352.6070150546729,1.0,1.0,phase_1,,,,,,,,,,,,,magenta,triangle
180.0,7.0,3.0,1.0,4.0,4.0,341.2247679661959,1.0,1.0,phase_1,,,,,,,,,,,,,green,cross
46.0,1.0,1.0,0.0,3.0,3.0,300.5823940038681,1.0,1.0,phase_1,,,,,,,,,,,,,blue,square
179.0,7.0,3.0,1.0,3.0,3.0,288.3269009180367,1.0,1.0,phase_1,,,,,,,,,,,,,green,cross
84.0,2.0,2.0,0.0,2.0,2.0,338.3987860288471,1.0,1.0,phase_1,,,,,,,,,,,,,orange,I
119.0,2.0,2.0,0.0,1.0,1.0,385.6774428859353,1.0,1.0,phase_1,,,,,,,,,,,,,orange,I
0.0,3.0,0.0,0.0,1.0,1.0,367.3864798620343,1.0,1.0,phase_1,,,,,,,,,,,,,yellow,flipped triangle
54.0,1.0,1.0,0.0,4.0,4.0,314.4026990048587,1.0,1.0,phase_1,,,,,,,,,,,,,blue,square
38.0,1.0,1.0,0.0,2.0,2.0,296.7152590863406,1.0,1.0,phase_1,,,,,,,,,,,,,blue,square
63.0,5.0,1.0,1.0,4.0,4.0,262.4131538905203,1.0,1.0,phase_1,,,,,,,,,,,,,magenta,triangle
74.0,5.0,1.0,1.0,4.0,4.0,337.9824971780181,1.0,1.0,phase_1,,,,,,,,,,,,,magenta,triangle
122.0,2.0,2.0,0.0,3.0,3.0,318.1967518758029,1.0,1.0,phase_1,,,,,,,,,,,,,orange,I
0.0,1.0,0.0,0.0,4.0,4.0,276.5535758808255,1.0,1.0,phase_1,,,,,,,,,,,,,blue,square
47.0,5.0,1.0,1.0,3.0,3.0,265.0219139177352,1.0,1.0,phase_1,,,,,,,,,,,,,magenta,triangle
119.0,6.0,2.0,1.0,1.0,1.0,252.165556885302,1.0,1.0,phase_1,,,,,,,,,,,,,gray,circle
54.0,5.0,1.0,1.0,3.0,3.0,273.6405960749835,1.0,1.0,phase_1,,,,,,,,,,,,,magenta,triangle
0.0,5.0,0.0,1.0,2.0,2.0,285.454454133287,1.0,1.0,phase_1,,,,,,,,,,,,,magenta,triangle
415.0,4.0,4.0,0.0,4.0,4.0,281.5839669201523,1.0,1.0,phase_1,,,,,,,,,,,,,white,diamond
0.0,4.0,0.0,0.0,3.0,3.0,261.2282519694417,1.0,1.0,phase_1,,,,,,,,,,,,,white,diamond
93.0,2.0,2.0,0.0,1.0,1.0,265.3965419158339,1.0,1.0,phase_1,,,,,,,,,,,,,orange,I
0.0,6.0,0.0,1.0,1.0,1.0,365.7641019672155,1.0,1.0,phase_1,,,,,,,,,,,,,gray,circle
194.0,3.0,3.0,0.0,2.0,2.0,322.1352340187877,1.0,1.0,phase_1,,,,,,,,,,,,,yellow,flipped triangle
44.0,1.0,1.0,0.0,1.0,1.0,343.4000450652092,1.0,1.0,phase_1,,,,,,,,,,,,,blue,square
0.0,2.0,0.0,0.0,4.0,4.0,316.658484051004,1.0,1.0,phase_1,,,,,,,,,,,,,orange,I
108.0,6.0,2.0,1.0,4.0,4.0,396.6088390443474,1.0,1.0,phase_1,,,,,,,,,,,,,gray,circle
380.0,4.0,4.0,0.0,1.0,1.0,328.8623448461294,1.0,1.0,phase_1,,,,,,,,,,,,,white,diamond
383.0,4.0,4.0,0.0,3.0,3.0,403.8587401155382,1.0,1.0,phase_1,,,,,,,,,,,,,white,diamond
64.0,1.0,1.0,0.0,2.0,2.0,329.756457125768,1.0,1.0,phase_1,,,,,,,,,,,,,blue,square
68.0,1.0,1.0,0.0,3.0,3.0,332.1341318078339,1.0,1.0,phase_1,,,,,,,,,,,,,blue,square
215.0,7.0,3.0,1.0,1.0,1.0,385.1320880930871,1.0,1.0,phase_1,,,,,,,,,,,,,green,cross
43.0,1.0,1.0,0.0,1.0,1.0,342.6647861488163,1.0,1.0,phase_1,,,,,,,,,,,,,blue,square
184.0,3.0,3.0,0.0,1.0,1.0,347.1737462095916,1.0,1.0,phase_1,,,,,,,,,,,,,yellow,flipped triangle
377.0,8.0,4.0,1.0,2.0,2.0,374.5304848998785,1.0,1.0,phase_1,,,,,,,,,,,,,cyan,hexagon
78.0,6.0,2.0,1.0,4.0,4.0,341.3765968289226,1.0,1.0,phase_1,,,,,,,,,,,,,gray,circle
223.0,7.0,3.0,1.0,3.0,3.0,331.7927580792457,1.0,1.0,phase_1,,,,,,,,,,,,,green,cross
109.0,2.0,2.0,0.0,4.0,4.0,286.4767599385232,1.0,1.0,phase_1,,,,,,,,,,,,,orange,I
103.0,6.0,2.0,1.0,3.0,3.0,355.6628399528563,1.0,1.0,phase_1,,,,,,,,,,,,,gray,circle
421.0,4.0,4.0,0.0,2.0,2.0,309.7246119286865,1.0,1.0,phase_1,,,,,,,,,,,,,white,diamond
52.0,5.0,1.0,1.0,1.0,1.0,350.0527688302099,1.0,1.0,phase_1,,,,,,,,,,,,,magenta,triangle
34.0,5.0,1.0,1.0,4.0,4.0,297.7227829396724,1.0,1.0,phase_1,,,,,,,,,,,,,magenta,triangle
94.0,6.0,2.0,1.0,2.0,2.0,372.5194928701967,1.0,1.0,phase_1,,,,,,,,,,,,,gray,circle
118.0,6.0,2.0,1.0,2.0,2.0,344.4441061001271,1.0,1.0,phase_1,,,,,,,,,,,,,gray,circle
421.0,4.0,4.0,0.0,3.0,3.0,301.3038821518421,1.0,1.0,phase_1,,,,,,,,,,,,,white,diamond
0.0,6.0,0.0,1.0,3.0,3.0,325.4512879066169,1.0,1.0,phase_1,,,,,,,,,,,,,gray,circle
394.0,4.0,4.0,0.0,2.0,2.0,326.3716949149966,1.0,1.0,phase_1,,,,,,,,,,,,,white,diamond
0.0,4.0,0.0,0.0,1.0,1.0,382.9340210650116,1.0,1.0,phase_1,,,,,,,,,,,,,white,diamond
205.0,3.0,3.0,0.0,3.0,3.0,274.811411043629,1.0,1.0,phase_1,,,,,,,,,,,,,yellow,flipped triangle
384.0,8.0,4.0,1.0,2.0,2.0,308.0519631039351,1.0,1.0,phase_1,,,,,,,,,,,,,cyan,hexagon
43.0,1.0,1.0,0.0,2.0,2.0,377.8460370376706,1.0,1.0,phase_1,,,,,,,,,,,,,blue,square
0.0,8.0,0.0,1.0,2.0,2.0,461.9025548454374,2.0,1.0,phase_1,,,,,,,,,,,,,cyan,hexagon
63.0,1.0,1.0,0.0,4.0,4.0,294.7995821014046,2.0,1.0,phase_1,,,,,,,,,,,,,blue,square
210.0,3.0,3.0,0.0,3.0,3.0,307.5370208825916,2.0,1.0,phase_1,,,,,,,,,,,,,yellow,flipped triangle
215.0,7.0,3.0,1.0,2.0,2.0,321.8290980439633,2.0,1.0,phase_1,,,,,,,,,,,,,green,cross
103.0,2.0,2.0,0.0,4.0,4.0,270.658180816099,2.0,1.0,phase_1,,,,,,,,,,,,,orange,I
121.0,6.0,2.0,1.0,3.0,3.0,331.7353460006416,2.0,1.0,phase_1,,,,,,,,,,,,,gray,circle
0.0,3.0,0.0,0.0,2.0,2.0,327.0425149239599,2.0,1.0,phase_1,,,,,,,,,,,,,yellow,flipped triangle
0.0,1.0,0.0,0.0,3.0,3.0,283.4913299884647,2.0,1.0,phase_1,,,,,,,,,,,,,blue,square
112.0,6.0,2.0,1.0,1.0,1.0,295.468325028196,2.0,1.0,phase_1,,,,,,,,,,,,,gray,circle
0.0,6.0,0.0,1.0,2.0,2.0,262.189039029181,2.0,1.0,phase_1,,,,,,,,,,,,,gray,circle
204.0,7.0,3.0,1.0,3.0,3.0,292.4702030140906,2.0,1.0,phase_1,,,,,,,,,,,,,green,cross
0.0,1.0,0.0,0.0,3.0,3.0,317.9164791945368,2.0,1.0,phase_1,,,,,,,,,,,,,blue,square
0.0,7.0,0.0,1.0,4.0,4.0,300.7068480364978,2.0,1.0,phase_1,,,,,,,,,,,,,green,cross
399.0,8.0,4.0,1.0,3.0,3.0,312.1739970520139,2.0,1.0,phase_1,,,,,,,,,,,,,cyan,hexagon
417.0,8.0,4.0,1.0,4.0,4.0,284.0666191186756,2.0,1.0,phase_1,,,,,,,,,,,,,cyan,hexagon
113.0,2.0,2.0,0.0,3.0,3.0,296.5617859736085,2.0,1.0,phase_1,,,,,,,,,,,,,orange,I
89.0,6.0,2.0,1.0,3.0,3.0,345.1274330727756,2.0,1.0,phase_1,,,,,,,,,,,,,gray,circle
0.0,6.0,0.0,1.0,4.0,4.0,333.8875430636108,2.0,1.0,phase_1,,,,,,,,,,,,,gray,circle
421.0,8.0,4.0,1.0,3.0,3.0,314.0452678781003,2.0,1.0,phase_1,,,,,,,,,,,,,cyan,hexagon
223.0,7.0,3.0,1.0,2.0,2.0,291.9479119591415,2.0,1.0,phase_1,,,,,,,,,,,,,green,cross
202.0,3.0,3.0,0.0,2.0,2.0,329.6688389964401,2.0,1.0,phase_1,,,,,,,,,,,,,yellow,flipped triangle
382.0,4.0,4.0,0.0,1.0,1.0,369.1778529901057,2.0,2.0,phase_1,,,,,,,,,,,,,white,diamond
74.0,1.0,1.0,0.0,2.0,2.0,357.5797430239618,2.0,1.0,phase_1,,,,,,,,,,,,,blue,square
205.0,7.0,3.0,1.0,3.0,3.0,283.9309240225702,2.0,1.0,phase_1,,,,,,,,,,,,,green,cross
416.0,4.0,4.0,0.0,2.0,2.0,303.9462750311941,2.0,1.0,phase_1,,,,,,,,,,,,,white,diamond
28.0,1.0,1.0,0.0,3.0,3.0,308.1692981068045,2.0,1.0,phase_1,,,,,,,,,,,,,blue,square
114.0,2.0,2.0,0.0,4.0,4.0,376.4841521624475,2.0,1.0,phase_1,,,,,,,,,,,,,orange,I
0.0,1.0,0.0,0.0,1.0,1.0,391.7176469694823,2.0,1.0,phase_1,,,,,,,,,,,,,blue,square
422.0,4.0,4.0,0.0,1.0,1.0,370.5059750936925,2.0,1.0,phase_1,,,,,,,,,,,,,white,diamond
199.0,7.0,3.0,1.0,3.0,3.0,370.058047119528,2.0,1.0,phase_1,,,,,,,,,,,,,green,cross
45.0,1.0,1.0,0.0,1.0,1.0,384.0656618122011,2.0,1.0,phase_1,,,,,,,,,,,,,blue,square
59.0,1.0,1.0,0.0,3.0,3.0,306.7364890594035,2.0,1.0,phase_1,,,,,,,,,,,,,blue,square
100.0,2.0,2.0,0.0,4.0,4.0,487.953030038625,2.0,1.0,phase_1,,,,,,,,,,,,,orange,I
405.0,4.0,4.0,0.0,4.0,4.0,379.4046118855476,2.0,1.0,phase_1,,,,,,,,,,,,,white,diamond
99.0,2.0,2.0,0.0,2.0,2.0,502.6506430003792,2.0,1.0,phase_1,,,,,,,,,,,,,orange,I
202.0,3.0,3.0,0.0,3.0,3.0,386.7289870977402,2.0,1.0,phase_1,,,,,,,,,,,,,yellow,flipped triangle
0.0,1.0,0.0,0.0,4.0,4.0,359.6634201239794,2.0,1.0,phase_1,,,,,,,,,,,,,blue,square
202.0,7.0,3.0,1.0,1.0,1.0,511.09158783219755,2.0,1.0,phase_1,,,,,,,,,,,,,green,cross
37.0,1.0,1.0,0.0,4.0,4.0,354.6926591079682,2.0,1.0,phase_1,,,,,,,,,,,,,blue,square
213.0,3.0,3.0,0.0,3.0,3.0,335.4409548919648,2.0,1.0,phase_1,,,,,,,,,,,,,yellow,flipped triangle
186.0,3.0,3.0,0.0,1.0,1.0,404.8121587838977,2.0,1.0,phase_1,,,,,,,,,,,,,yellow,flipped triangle
0.0,6.0,0.0,1.0,3.0,3.0,321.0947881452739,2.0,1.0,phase_1,,,,,,,,,,,,,gray,circle
199.0,7.0,3.0,1.0,1.0,1.0,349.0991301368922,2.0,1.0,phase_1,,,,,,,,,,,,,green,cross
55.0,5.0,1.0,1.0,2.0,2.0,377.2813298273831,2.0,1.0,phase_1,,,,,,,,,,,,,magenta,triangle
84.0,6.0,2.0,1.0,3.0,3.0,324.6082679834217,2.0,1.0,phase_1,,,,,,,,,,,,,gray,circle
422.0,8.0,4.0,1.0,4.0,4.0,451.0007461067289,2.0,1.0,phase_1,,,,,,,,,,,,,cyan,hexagon
224.0,7.0,3.0,1.0,2.0,2.0,337.6274269539863,2.0,1.0,phase_1,,,,,,,,,,,,,green,cross
43.0,5.0,1.0,1.0,3.0,3.0,317.7736271172762,2.0,1.0,phase_1,,,,,,,,,,,,,magenta,triangle
0.0,7.0,0.0,1.0,4.0,4.0,312.338822055608,2.0,1.0,phase_1,,,,,,,,,,,,,green,cross
220.0,3.0,3.0,0.0,1.0,1.0,349.9151659198105,2.0,1.0,phase_1,,,,,,,,,,,,,yellow,flipped triangle
383.0,8.0,4.0,1.0,2.0,2.0,369.3968069273978,2.0,1.0,phase_1,,,,,,,,,,,,,cyan,hexagon
0.0,8.0,0.0,1.0,1.0,1.0,400.5067949183285,2.0,1.0,phase_1,,,,,,,,,,,,,cyan,hexagon
416.0,8.0,4.0,1.0,3.0,3.0,309.4287649728358,2.0,1.0,phase_1,,,,,,,,,,,,,cyan,hexagon
399.0,4.0,4.0,0.0,1.0,1.0,401.2630670331418,2.0,1.0,phase_1,,,,,,,,,,,,,white,diamond
97.0,6.0,2.0,1.0,1.0,1.0,453.8626449648291,2.0,1.0,phase_1,,,,,,,,,,,,,gray,circle
0.0,8.0,0.0,1.0,3.0,3.0,395.6296818796545,2.0,1.0,phase_1,,,,,,,,,,,,,cyan,hexagon
407.0,8.0,4.0,1.0,3.0,3.0,320.372317917645,2.0,1.0,phase_1,,,,,,,,,,,,,cyan,hexagon
76.0,2.0,2.0,0.0,4.0,4.0,380.790279014036,2.0,1.0,phase_1,,,,,,,,,,,,,orange,I
80.0,2.0,2.0,0.0,2.0,2.0,441.7717759497463,2.0,1.0,phase_1,,,,,,,,,,,,,orange,I
54.0,1.0,1.0,0.0,1.0,1.0,490.9278040286153,2.0,1.0,phase_1,,,,,,,,,,,,,blue,square
197.0,3.0,3.0,0.0,3.0,3.0,432.3359909467399,2.0,1.0,phase_1,,,,,,,,,,,,,yellow,flipped triangle
402.0,4.0,4.0,0.0,2.0,2.0,335.7184859924018,2.0,1.0,phase_1,,,,,,,,,,,,,white,diamond
93.0,6.0,2.0,1.0,2.0,2.0,345.361408079043,2.0,1.0,phase_1,,,,,,,,,,,,,gray,circle
414.0,8.0,4.0,1.0,2.0,2.0,473.3883950393647,2.0,1.0,phase_1,,,,,,,,,,,,,cyan,hexagon
94.0,2.0,2.0,0.0,1.0,1.0,396.8182269018143,2.0,1.0,phase_1,,,,,,,,,,,,,orange,I
46.0,5.0,1.0,1.0,1.0,1.0,431.5062691457569,2.0,1.0,phase_1,,,,,,,,,,,,,magenta,triangle
38.0,5.0,1.0,1.0,4.0,4.0,590.342327952385,2.0,1.0,phase_1,,,,,,,,,,,,,magenta,triangle
405.0,8.0,4.0,1.0,3.0,3.0,347.5990758743137,2.0,1.0,phase_1,,,,,,,,,,,,,cyan,hexagon
64.0,5.0,1.0,1.0,1.0,1.0,358.1057649571448,2.0,1.0,phase_1,,,,,,,,,,,,,magenta,triangle
205.0,7.0,3.0,1.0,1.0,1.0,643.1755649391562,2.0,1.0,phase_1,,,,,,,,,,,,,green,cross
204.0,7.0,3.0,1.0,1.0,1.0,352.5200760923326,2.0,1.0,phase_1,,,,,,,,,,,,,green,cross
58.0,1.0,1.0,0.0,1.0,1.0,459.2735269106924,2.0,1.0,phase_1,,,,,,,,,,,,,blue,square
102.0,2.0,2.0,0.0,3.0,3.0,304.1286789812147,2.0,1.0,phase_1,,,,,,,,,,,,,orange,I
0.0,8.0,0.0,1.0,2.0,2.0,604.9649370834231,2.0,1.0,phase_1,,,,,,,,,,,,,cyan,hexagon
28.0,5.0,1.0,1.0,3.0,3.0,427.7436749543994,2.0,1.0,phase_1,,,,,,,,,,,,,magenta,triangle
394.0,4.0,4.0,0.0,4.0,4.0,423.0147290509194,2.0,1.0,phase_1,,,,,,,,,,,,,white,diamond
105.0,2.0,2.0,0.0,3.0,3.0,363.5663539171219,2.0,1.0,phase_1,,,,,,,,,,,,,orange,I
0.0,4.0,0.0,0.0,2.0,2.0,328.5913309082389,2.0,1.0,phase_1,,,,,,,,,,,,,white,diamond
31.0,5.0,1.0,1.0,2.0,2.0,380.3117971401661,2.0,1.0,phase_1,,,,,,,,,,,,,magenta,triangle
0.0,1.0,0.0,0.0,1.0,1.0,412.9751517903059,2.0,1.0,phase_1,,,,,,,,,,,,,blue,square
0.0,1.0,0.0,0.0,3.0,3.0,320.3094759956002,2.0,1.0,phase_1,,,,,,,,,,,,,blue,square
86.0,6.0,2.0,1.0,1.0,1.0,413.5655169375241,2.0,1.0,phase_1,,,,,,,,,,,,,gray,circle
0.0,2.0,0.0,0.0,1.0,1.0,368.3139130007475,2.0,1.0,phase_1,,,,,,,,,,,,,orange,I
0.0,5.0,0.0,1.0,3.0,3.0,303.3796460367739,2.0,1.0,phase_1,,,,,,,,,,,,,magenta,triangle
125.0,2.0,2.0,0.0,2.0,2.0,306.8041279911995,2.0,1.0,phase_1,,,,,,,,,,,,,orange,I
89.0,2.0,2.0,0.0,4.0,4.0,327.3982349783182,2.0,1.0,phase_1,,,,,,,,,,,,,orange,I
55.0,5.0,1.0,1.0,4.0,4.0,322.7528929710388,2.0,1.0,phase_1,,,,,,,,,,,,,magenta,triangle
52.0,1.0,1.0,0.0,4.0,4.0,311.0064580105245,2.0,1.0,phase_1,,,,,,,,,,,,,blue,square
113.0,6.0,2.0,1.0,1.0,1.0,291.7847530916333,2.0,1.0,phase_1,,,,,,,,,,,,,gray,circle
0.0,1.0,0.0,0.0,3.0,3.0,314.9222747888416,2.0,1.0,phase_1,,,,,,,,,,,,,blue,square
206.0,3.0,3.0,0.0,4.0,4.0,294.650828000158,2.0,1.0,phase_1,,,,,,,,,,,,,yellow,flipped triangle
382.0,8.0,4.0,1.0,2.0,2.0,323.404359864071,2.0,1.0,phase_1,,,,,,,,,,,,,cyan,hexagon
210.0,7.0,3.0,1.0,2.0,2.0,337.4329709913581,2.0,1.0,phase_1,,,,,,,,,,,,,green,cross
37.0,5.0,1.0,1.0,4.0,4.0,301.3631221838295,2.0,1.0,phase_1,,,,,,,,,,,,,magenta,triangle
396.0,8.0,4.0,1.0,3.0,3.0,297.088687075302,2.0,1.0,phase_1,,,,,,,,,,,,,cyan,hexagon
72.0,1.0,1.0,0.0,4.0,4.0,348.8015460316092,2.0,1.0,phase_1,,,,,,,,,,,,,blue,square
63.0,5.0,1.0,1.0,4.0,4.0,347.8339619468897,2.0,1.0,phase_1,,,,,,,,,,,,,magenta,triangle
88.0,2.0,2.0,0.0,2.0,2.0,405.5903470143676,2.0,1.0,phase_1,,,,,,,,,,,,,orange,I
383.0,8.0,4.0,1.0,1.0,1.0,413.1959578953683,2.0,1.0,phase_1,,,,,,,,,,,,,cyan,hexagon
199.0,3.0,3.0,0.0,3.0,3.0,352.4766669142991,2.0,1.0,phase_1,,,,,,,,,,,,,yellow,flipped triangle
100.0,2.0,2.0,0.0,2.0,2.0,349.1240451112389,3.0,1.0,phase_1,,,,,,,,,,,,,orange,I
0.0,3.0,0.0,0.0,3.0,3.0,363.8578429818153,3.0,1.0,phase_1,,,,,,,,,,,,,yellow,flipped triangle
377.0,8.0,4.0,1.0,4.0,4.0,337.8064550925046,3.0,1.0,phase_1,,,,,,,,,,,,,cyan,hexagon
0.0,6.0,0.0,1.0,2.0,2.0,370.2621269039809,3.0,1.0,phase_1,,,,,,,,,,,,,gray,circle
202.0,3.0,3.0,0.0,3.0,3.0,330.9283209964633,3.0,1.0,phase_1,,,,,,,,,,,,,yellow,flipped triangle
194.0,7.0,3.0,1.0,3.0,3.0,307.7032358851284,3.0,1.0,phase_1,,,,,,,,,,,,,green,cross
45.0,1.0,1.0,0.0,3.0,3.0,312.5262360554188,3.0,1.0,phase_1,,,,,,,,,,,,,blue,square
394.0,8.0,4.0,1.0,1.0,1.0,365.9552468452602,3.0,1.0,phase_1,,,,,,,,,,,,,cyan,hexagon
71.0,5.0,1.0,1.0,2.0,2.0,349.4210881181061,3.0,1.0,phase_1,,,,,,,,,,,,,magenta,triangle
405.0,8.0,4.0,1.0,2.0,2.0,318.4311820659786,3.0,1.0,phase_1,,,,,,,,,,,,,cyan,hexagon
84.0,6.0,2.0,1.0,3.0,3.0,325.2633751835674,3.0,1.0,phase_1,,,,,,,,,,,,,gray,circle
223.0,3.0,3.0,0.0,2.0,2.0,359.5697619020939,3.0,1.0,phase_1,,,,,,,,,,,,,yellow,flipped triangle
105.0,6.0,2.0,1.0,2.0,2.0,375.5894240457564,3.0,1.0,phase_1,,,,,,,,,,,,,gray,circle
86.0,2.0,2.0,0.0,3.0,3.0,330.6154089514166,3.0,1.0,phase_1,,,,,,,,,,,,,orange,I
72.0,5.0,1.0,1.0,3.0,3.0,399.5034098625183,3.0,1.0,phase_1,,,,,,,,,,,,,magenta,triangle
182.0,3.0,3.0,0.0,4.0,4.0,332.7348709572106,3.0,1.0,phase_1,,,,,,,,,,,,,yellow,flipped triangle
27.0,5.0,1.0,1.0,3.0,3.0,337.5114351511001,3.0,1.0,phase_1,,,,,,,,,,,,,magenta,triangle
58.0,5.0,1.0,1.0,1.0,1.0,448.0555241461843,3.0,1.0,phase_1,,,,,,,,,,,,,magenta,triangle
392.0,4.0,4.0,0.0,3.0,3.0,306.1084968503564,3.0,1.0,phase_1,,,,,,,,,,,,,white,diamond
31.0,5.0,1.0,1.0,3.0,3.0,349.3806801270693,3.0,1.0,phase_1,,,,,,,,,,,,,magenta,triangle
79.0,2.0,2.0,0.0,1.0,1.0,394.3369439803064,3.0,1.0,phase_1,,,,,,,,,,,,,orange,I
376.0,8.0,4.0,1.0,4.0,4.0,392.5713449716568,3.0,1.0,phase_1,,,,,,,,,,,,,cyan,hexagon
183.0,7.0,3.0,1.0,4.0,4.0,348.7960048951208,3.0,1.0,phase_1,,,,,,,,,,,,,green,cross
198.0,3.0,3.0,0.0,4.0,4.0,328.1737091019749,3.0,1.0,phase_1,,,,,,,,,,,,,yellow,flipped triangle
394.0,8.0,4.0,1.0,3.0,3.0,309.9695020355284,3.0,1.0,phase_1,,,,,,,,,,,,,cyan,hexagon
50.0,1.0,1.0,0.0,2.0,2.0,465.9651990514248,3.0,1.0,phase_1,,,,,,,,,,,,,blue,square
197.0,7.0,3.0,1.0,1.0,1.0,409.4822390470654,3.0,1.0,phase_1,,,,,,,,,,,,,green,cross
39.0,1.0,1.0,0.0,2.0,2.0,341.1637600511312,3.0,1.0,phase_1,,,,,,,,,,,,,blue,square
30.0,1.0,1.0,0.0,1.0,1.0,354.1016119997948,3.0,1.0,phase_1,,,,,,,,,,,,,blue,square
0.0,6.0,0.0,1.0,3.0,3.0,342.1463298145681,3.0,1.0,phase_1,,,,,,,,,,,,,gray,circle
0.0,8.0,0.0,1.0,3.0,3.0,321.8184339348227,3.0,1.0,phase_1,,,,,,,,,,,,,cyan,hexagon
0.0,5.0,0.0,1.0,3.0,3.0,333.4880480542779,3.0,1.0,phase_1,,,,,,,,,,,,,magenta,triangle
400.0,8.0,4.0,1.0,1.0,1.0,436.326416907832,3.0,1.0,phase_1,,,,,,,,,,,,,cyan,hexagon
58.0,5.0,1.0,1.0,1.0,1.0,455.5689848493784,3.0,1.0,phase_1,,,,,,,,,,,,,magenta,triangle
223.0,3.0,3.0,0.0,1.0,1.0,551.5166360419244,3.0,1.0,phase_1,,,,,,,,,,,,,yellow,flipped triangle
0.0,2.0,0.0,0.0,3.0,3.0,361.476558027789,3.0,1.0,phase_1,,,,,,,,,,,,,orange,I
0.0,3.0,0.0,0.0,1.0,1.0,453.0304339714348,3.0,1.0,phase_1,,,,,,,,,,,,,yellow,flipped triangle
81.0,2.0,2.0,0.0,1.0,1.0,387.0487550739199,3.0,1.0,phase_1,,,,,,,,,,,,,orange,I
0.0,5.0,0.0,1.0,2.0,2.0,393.6222880147397,3.0,1.0,phase_1,,,,,,,,,,,,,magenta,triangle
0.0,4.0,0.0,0.0,3.0,3.0,348.985041026026,3.0,1.0,phase_1,,,,,,,,,,,,,white,diamond
220.0,7.0,3.0,1.0,4.0,4.0,467.0889480039477,3.0,1.0,phase_1,,,,,,,,,,,,,green,cross
0.0,7.0,0.0,1.0,1.0,1.0,358.9172570500523,3.0,1.0,phase_1,,,,,,,,,,,,,green,cross
221.0,3.0,3.0,0.0,3.0,3.0,373.480306006968,3.0,1.0,phase_1,,,,,,,,,,,,,yellow,flipped triangle
0.0,7.0,0.0,1.0,4.0,4.0,401.9413650967181,3.0,1.0,phase_1,,,,,,,,,,,,,green,cross
407.0,4.0,4.0,0.0,4.0,4.0,421.6081090271473,3.0,1.0,phase_1,,,,,,,,,,,,,white,diamond
97.0,2.0,2.0,0.0,1.0,1.0,458.141733892262,3.0,1.0,phase_1,,,,,,,,,,,,,orange,I
224.0,3.0,3.0,0.0,4.0,4.0,499.8630180489272,3.0,1.0,phase_1,,,,,,,,,,,,,yellow,flipped triangle
408.0,4.0,4.0,0.0,3.0,3.0,355.9884140267968,3.0,1.0,phase_1,,,,,,,,,,,,,white,diamond
184.0,3.0,3.0,0.0,4.0,4.0,312.5903839245438,3.0,1.0,phase_1,,,,,,,,,,,,,yellow,flipped triangle
0.0,1.0,0.0,0.0,2.0,2.0,458.8360220659524,3.0,1.0,phase_1,,,,,,,,,,,,,blue,square
109.0,6.0,2.0,1.0,4.0,4.0,416.5670159272849,3.0,1.0,phase_1,,,,,,,,,,,,,gray,circle
38.0,5.0,1.0,1.0,3.0,3.0,387.6544039230793,3.0,1.0,phase_1,,,,,,,,,,,,,magenta,triangle
419.0,4.0,4.0,0.0,1.0,1.0,386.620074044913,3.0,1.0,phase_1,,,,,,,,,,,,,white,diamond
182.0,7.0,3.0,1.0,3.0,3.0,342.5647630356252,3.0,1.0,phase_1,,,,,,,,,,,,,green,cross
206.0,3.0,3.0,0.0,4.0,4.0,401.6933548264205,3.0,1.0,phase_1,,,,,,,,,,,,,yellow,flipped triangle
383.0,4.0,4.0,0.0,3.0,3.0,510.9591521322727,3.0,1.0,phase_1,,,,,,,,,,,,,white,diamond
122.0,6.0,2.0,1.0,2.0,2.0,362.6510149333626,3.0,1.0,phase_1,,,,,,,,,,,,,gray,circle
0.0,5.0,0.0,1.0,3.0,3.0,329.6279138885438,3.0,1.0,phase_1,,,,,,,,,,,,,magenta,triangle
0.0,1.0,0.0,0.0,1.0,1.0,437.2330890037119,3.0,1.0,phase_1,,,,,,,,,,,,,blue,square
198.0,7.0,3.0,1.0,1.0,1.0,353.9648388978094,3.0,1.0,phase_1,,,,,,,,,,,,,green,cross
211.0,3.0,3.0,0.0,2.0,2.0,318.9588340464979,3.0,1.0,phase_1,,,,,,,,,,,,,yellow,flipped triangle
200.0,7.0,3.0,1.0,1.0,1.0,330.9176338370889,3.0,1.0,phase_1,,,,,,,,,,,,,green,cross
188.0,3.0,3.0,0.0,1.0,1.0,322.1731861121952,3.0,1.0,phase_1,,,,,,,,,,,,,yellow,flipped triangle
196.0,3.0,3.0,0.0,1.0,1.0,358.6267728824168,3.0,1.0,phase_1,,,,,,,,,,,,,yellow,flipped triangle
199.0,3.0,3.0,0.0,2.0,2.0,354.0394729934633,3.0,1.0,phase_1,,,,,,,,,,,,,yellow,flipped triangle
397.0,4.0,4.0,0.0,4.0,4.0,293.8094919081777,3.0,1.0,phase_1,,,,,,,,,,,,,white,diamond
120.0,2.0,2.0,0.0,4.0,4.0,389.9675840511918,3.0,1.0,phase_1,,,,,,,,,,,,,orange,I
116.0,2.0,2.0,0.0,3.0,3.0,402.3885270580649,3.0,1.0,phase_1,,,,,,,,,,,,,orange,I
113.0,2.0,2.0,0.0,4.0,4.0,299.8868429567665,3.0,1.0,phase_1,,,,,,,,,,,,,orange,I
102.0,6.0,2.0,1.0,2.0,2.0,435.3256640024483,3.0,1.0,phase_1,,,,,,,,,,,,,gray,circle
387.0,8.0,4.0,1.0,4.0,4.0,361.8764970451593,3.0,1.0,phase_1,,,,,,,,,,,,,cyan,hexagon
395.0,8.0,4.0,1.0,1.0,1.0,356.8946511950344,3.0,1.0,phase_1,,,,,,,,,,,,,cyan,hexagon
183.0,3.0,3.0,0.0,1.0,1.0,385.2628821041435,3.0,1.0,phase_1,,,,,,,,,,,,,yellow,flipped triangle
394.0,8.0,4.0,1.0,1.0,1.0,370.2381260227412,3.0,1.0,phase_1,,,,,,,,,,,,,cyan,hexagon
0.0,7.0,0.0,1.0,1.0,1.0,375.8582170121372,3.0,1.0,phase_1,,,,,,,,,,,,,green,cross
206.0,7.0,3.0,1.0,3.0,3.0,301.9803860224783,3.0,1.0,phase_1,,,,,,,,,,,,,green,cross
42.0,1.0,1.0,0.0,4.0,4.0,352.5340070482343,3.0,1.0,phase_1,,,,,,,,,,,,,blue,square
0.0,7.0,0.0,1.0,3.0,3.0,341.0416559781879,3.0,1.0,phase_1,,,,,,,,,,,,,green,cross
113.0,6.0,2.0,1.0,4.0,4.0,345.8862260449677,3.0,1.0,phase_1,,,,,,,,,,,,,gray,circle
402.0,8.0,4.0,1.0,2.0,2.0,302.5271859951317,3.0,1.0,phase_1,,,,,,,,,,,,,cyan,hexagon
412.0,4.0,4.0,0.0,2.0,2.0,348.2310939580202,3.0,1.0,phase_1,,,,,,,,,,,,,white,diamond
0.0,2.0,0.0,0.0,1.0,1.0,372.4044170230627,3.0,2.0,phase_1,,,,,,,,,,,,,orange,I
55.0,1.0,1.0,0.0,3.0,3.0,331.7699369508773,3.0,1.0,phase_1,,,,,,,,,,,,,blue,square
392.0,4.0,4.0,0.0,4.0,4.0,368.103380780667,3.0,1.0,phase_1,,,,,,,,,,,,,white,diamond
99.0,6.0,2.0,1.0,3.0,3.0,419.1185659728944,3.0,1.0,phase_1,,,,,,,,,,,,,gray,circle
184.0,7.0,3.0,1.0,2.0,2.0,367.3434560187161,3.0,1.0,phase_1,,,,,,,,,,,,,green,cross
415.0,8.0,4.0,1.0,1.0,1.0,500.4400769248605,3.0,1.0,phase_1,,,,,,,,,,,,,cyan,hexagon
0.0,4.0,0.0,0.0,3.0,3.0,585.5448090005666,3.0,1.0,phase_1,,,,,,,,,,,,,white,diamond
401.0,4.0,4.0,0.0,4.0,4.0,389.3817889038473,3.0,1.0,phase_1,,,,,,,,,,,,,white,diamond
415.0,8.0,4.0,1.0,2.0,2.0,482.285858830437,3.0,1.0,phase_1,,,,,,,,,,,,,cyan,hexagon
377.0,4.0,4.0,0.0,2.0,2.0,489.8443981073797,3.0,1.0,phase_1,,,,,,,,,,,,,white,diamond
82.0,6.0,2.0,1.0,4.0,4.0,595.4308630898595,3.0,1.0,phase_1,,,,,,,,,,,,,gray,circle
44.0,5.0,1.0,1.0,2.0,2.0,441.5748359169811,3.0,1.0,phase_1,,,,,,,,,,,,,magenta,triangle
0.0,3.0,0.0,0.0,1.0,1.0,516.662985086441,3.0,1.0,phase_1,,,,,,,,,,,,,yellow,flipped triangle
200.0,3.0,3.0,0.0,4.0,4.0,420.5486348364502,3.0,1.0,phase_1,,,,,,,,,,,,,yellow,flipped triangle
0.0,3.0,0.0,0.0,1.0,1.0,345.5525077879429,3.0,1.0,phase_1,,,,,,,,,,,,,yellow,flipped triangle
377.0,4.0,4.0,0.0,1.0,1.0,339.5410070661455,3.0,1.0,phase_1,,,,,,,,,,,,,white,diamond
0.0,2.0,0.0,0.0,4.0,4.0,479.9103960394859,3.0,1.0,phase_1,,,,,,,,,,,,,orange,I
45.0,5.0,1.0,1.0,4.0,4.0,388.987940037623,3.0,1.0,phase_1,,,,,,,,,,,,,magenta,triangle
394.0,4.0,4.0,0.0,1.0,1.0,409.2920708935708,3.0,1.0,phase_1,,,,,,,,,,,,,white,diamond
0.0,6.0,0.0,1.0,4.0,4.0,366.9903688132763,4.0,1.0,phase_1,,,,,,,,,,,,,gray,circle
0.0,8.0,0.0,1.0,4.0,4.0,355.8092250023037,4.0,1.0,phase_1,,,,,,,,,,,,,cyan,hexagon
55.0,5.0,1.0,1.0,1.0,1.0,296.4237870182842,4.0,1.0,phase_1,,,,,,,,,,,,,magenta,triangle
0.0,5.0,0.0,1.0,3.0,3.0,344.0252200234681,4.0,1.0,phase_1,,,,,,,,,,,,,magenta,triangle
45.0,5.0,1.0,1.0,1.0,1.0,316.2189959548414,4.0,1.0,phase_1,,,,,,,,,,,,,magenta,triangle
186.0,7.0,3.0,1.0,2.0,2.0,367.2043590340763,4.0,1.0,phase_1,,,,,,,,,,,,,green,cross
102.0,2.0,2.0,0.0,1.0,1.0,324.0030030719936,4.0,1.0,phase_1,,,,,,,,,,,,,orange,I
43.0,5.0,1.0,1.0,4.0,4.0,351.6017540823668,4.0,1.0,phase_1,,,,,,,,,,,,,magenta,triangle
415.0,4.0,4.0,0.0,1.0,1.0,341.0571590065956,4.0,1.0,phase_1,,,,,,,,,,,,,white,diamond
0.0,5.0,0.0,1.0,4.0,4.0,425.8107480127364,4.0,1.0,phase_1,,,,,,,,,,,,,magenta,triangle
97.0,6.0,2.0,1.0,4.0,4.0,400.8025750517845,4.0,1.0,phase_1,,,,,,,,,,,,,gray,circle
0.0,5.0,0.0,1.0,3.0,3.0,370.31568097881967,4.0,1.0,phase_1,,,,,,,,,,,,,magenta,triangle
384.0,4.0,4.0,0.0,4.0,4.0,351.8192991614342,4.0,1.0,phase_1,,,,,,,,,,,,,white,diamond
0.0,4.0,0.0,0.0,3.0,3.0,381.7025839816779,4.0,1.0,phase_1,,,,,,,,,,,,,white,diamond
38.0,1.0,1.0,0.0,3.0,3.0,378.9308839477598,4.0,1.0,phase_1,,,,,,,,,,,,,blue,square
42.0,5.0,1.0,1.0,1.0,1.0,420.8769358228892,4.0,1.0,phase_1,,,,,,,,,,,,,magenta,triangle
76.0,6.0,2.0,1.0,4.0,4.0,388.8694939669221,4.0,1.0,phase_1,,,,,,,,,,,,,gray,circle
34.0,1.0,1.0,0.0,3.0,3.0,319.4851111620664,4.0,1.0,phase_1,,,,,,,,,,,,,blue,square
387.0,4.0,4.0,0.0,1.0,1.0,379.4360170140862,4.0,1.0,phase_1,,,,,,,,,,,,,white,diamond
0.0,7.0,0.0,1.0,1.0,1.0,368.5911640059203,4.0,1.0,phase_1,,,,,,,,,,,,,green,cross
66.0,5.0,1.0,1.0,2.0,2.0,503.6732379812747,4.0,1.0,phase_1,,,,,,,,,,,,,magenta,triangle
112.0,2.0,2.0,0.0,1.0,1.0,404.9674910493195,4.0,1.0,phase_1,,,,,,,,,,,,,orange,I
31.0,1.0,1.0,0.0,1.0,1.0,311.4240639843046,4.0,1.0,phase_1,,,,,,,,,,,,,blue,square
179.0,3.0,3.0,0.0,2.0,2.0,452.5864089373499,4.0,1.0,phase_1,,,,,,,,,,,,,yellow,flipped triangle
0.0,3.0,0.0,0.0,4.0,4.0,339.6334529388696,4.0,1.0,phase_1,,,,,,,,,,,,,yellow,flipped triangle
0.0,5.0,0.0,1.0,2.0,2.0,483.6108898743987,4.0,1.0,phase_1,,,,,,,,,,,,,magenta,triangle
44.0,5.0,1.0,1.0,2.0,2.0,409.3795148655772,4.0,1.0,phase_1,,,,,,,,,,,,,magenta,triangle
89.0,6.0,2.0,1.0,1.0,1.0,470.0241980608552,4.0,1.0,phase_1,,,,,,,,,,,,,gray,circle
84.0,2.0,2.0,0.0,1.0,1.0,404.4498419389128,4.0,1.0,phase_1,,,,,,,,,,,,,orange,I
205.0,3.0,3.0,0.0,2.0,2.0,649.4227880612016,4.0,1.0,phase_1,,,,,,,,,,,,,yellow,flipped triangle
0.0,4.0,0.0,0.0,4.0,4.0,357.598460977897,4.0,1.0,phase_1,,,,,,,,,,,,,white,diamond
116.0,6.0,2.0,1.0,2.0,2.0,464.3434439785778,4.0,1.0,phase_1,,,,,,,,,,,,,gray,circle
0.0,3.0,0.0,0.0,3.0,3.0,340.8036329783499,4.0,1.0,phase_1,,,,,,,,,,,,,yellow,flipped triangle
50.0,5.0,1.0,1.0,1.0,1.0,299.627416068688,4.0,1.0,phase_1,,,,,,,,,,,,,magenta,triangle
397.0,8.0,4.0,1.0,2.0,2.0,389.9481541011482,4.0,1.0,phase_1,,,,,,,,,,,,,cyan,hexagon
400.0,4.0,4.0,0.0,2.0,2.0,373.6561390105635,4.0,1.0,phase_1,,,,,,,,,,,,,white,diamond
408.0,8.0,4.0,1.0,3.0,3.0,370.6556709948927,4.0,1.0,phase_1,,,,,,,,,,,,,cyan,hexagon
0.0,8.0,0.0,1.0,2.0,2.0,373.0550738982856,4.0,1.0,phase_1,,,,,,,,,,,,,cyan,hexagon
0.0,3.0,0.0,0.0,4.0,4.0,321.0389958694577,4.0,1.0,phase_1,,,,,,,,,,,,,yellow,flipped triangle
206.0,7.0,3.0,1.0,1.0,1.0,301.727021113038,4.0,1.0,phase_1,,,,,,,,,,,,,green,cross
0.0,7.0,0.0,1.0,1.0,1.0,338.7915310449898,4.0,1.0,phase_1,,,,,,,,,,,,,green,cross
184.0,7.0,3.0,1.0,3.0,3.0,391.5713890455663,4.0,1.0,phase_1,,,,,,,,,,,,,green,cross
204.0,3.0,3.0,0.0,2.0,2.0,357.7360149938613,4.0,1.0,phase_1,,,,,,,,,,,,,yellow,flipped triangle
88.0,6.0,2.0,1.0,4.0,4.0,401.5251360833645,4.0,1.0,phase_1,,,,,,,,,,,,,gray,circle
68.0,1.0,1.0,0.0,2.0,2.0,365.2951188851148,4.0,1.0,phase_1,,,,,,,,,,,,,blue,square
423.0,8.0,4.0,1.0,4.0,4.0,371.7656121589243,4.0,1.0,phase_1,,,,,,,,,,,,,cyan,hexagon
86.0,2.0,2.0,0.0,2.0,2.0,422.7117490954697,4.0,1.0,phase_1,,,,,,,,,,,,,orange,I
66.0,1.0,1.0,0.0,2.0,2.0,413.2777790073305,4.0,1.0,phase_1,,,,,,,,,,,,,blue,square
423.0,4.0,4.0,0.0,3.0,3.0,393.710145028308,4.0,1.0,phase_1,,,,,,,,,,,,,white,diamond
380.0,8.0,4.0,1.0,3.0,3.0,374.4267360307276,4.0,1.0,phase_1,,,,,,,,,,,,,cyan,hexagon
382.0,8.0,4.0,1.0,4.0,4.0,364.8530459031462,4.0,1.0,phase_1,,,,,,,,,,,,,cyan,hexagon
196.0,7.0,3.0,1.0,4.0,4.0,338.1580249406397,4.0,1.0,phase_1,,,,,,,,,,,,,green,cross
54.0,5.0,1.0,1.0,2.0,2.0,506.77178683690727,4.0,1.0,phase_1,,,,,,,,,,,,,magenta,triangle
0.0,2.0,0.0,0.0,2.0,2.0,416.1250018514693,4.0,1.0,phase_1,,,,,,,,,,,,,orange,I
414.0,4.0,4.0,0.0,4.0,4.0,315.8257659524679,4.0,1.0,phase_1,,,,,,,,,,,,,white,diamond
78.0,2.0,2.0,0.0,3.0,3.0,308.291592169553,4.0,1.0,phase_1,,,,,,,,,,,,,orange,I
215.0,3.0,3.0,0.0,1.0,1.0,357.5041810981929,4.0,1.0,phase_1,,,,,,,,,,,,,yellow,flipped triangle
79.0,6.0,2.0,1.0,2.0,2.0,589.7399459499866,4.0,1.0,phase_1,,,,,,,,,,,,,gray,circle
188.0,7.0,3.0,1.0,4.0,4.0,289.097931003198,4.0,1.0,phase_1,,,,,,,,,,,,,green,cross
72.0,1.0,1.0,0.0,4.0,4.0,339.4464370794594,4.0,1.0,phase_1,,,,,,,,,,,,,blue,square
402.0,4.0,4.0,0.0,3.0,3.0,328.7962391041219,4.0,1.0,phase_1,,,,,,,,,,,,,white,diamond
202.0,7.0,3.0,1.0,1.0,1.0,352.5767009705305,4.0,1.0,phase_1,,,,,,,,,,,,,green,cross
0.0,2.0,0.0,0.0,2.0,2.0,363.3939190767705,4.0,1.0,phase_1,,,,,,,,,,,,,orange,I
421.0,8.0,4.0,1.0,1.0,1.0,377.1709830034524,4.0,1.0,phase_1,,,,,,,,,,,,,cyan,hexagon
402.0,8.0,4.0,1.0,2.0,2.0,388.4876009542495,4.0,1.0,phase_1,,,,,,,,,,,,,cyan,hexagon
221.0,7.0,3.0,1.0,3.0,3.0,409.6288660075515,4.0,1.0,phase_1,,,,,,,,,,,,,green,cross
196.0,3.0,3.0,0.0,4.0,4.0,380.4156919941306,4.0,1.0,phase_1,,,,,,,,,,,,,yellow,flipped triangle
417.0,8.0,4.0,1.0,4.0,4.0,368.7870090361684,4.0,1.0,phase_1,,,,,,,,,,,,,cyan,hexagon
412.0,4.0,4.0,0.0,4.0,4.0,337.7421710174531,4.0,1.0,phase_1,,,,,,,,,,,,,white,diamond
417.0,4.0,4.0,0.0,3.0,3.0,365.8631530124694,4.0,1.0,phase_1,,,,,,,,,,,,,white,diamond
392.0,8.0,4.0,1.0,1.0,1.0,395.1735498849302,4.0,1.0,phase_1,,,,,,,,,,,,,cyan,hexagon
417.0,4.0,4.0,0.0,2.0,2.0,307.8048408497125,4.0,1.0,phase_1,,,,,,,,,,,,,white,diamond
59.0,5.0,1.0,1.0,4.0,4.0,323.7922319676727,4.0,1.0,phase_1,,,,,,,,,,,,,magenta,triangle
108.0,2.0,2.0,0.0,4.0,4.0,415.7226199749857,4.0,1.0,phase_1,,,,,,,,,,,,,orange,I
0.0,2.0,0.0,0.0,4.0,4.0,490.6266790349036,4.0,1.0,phase_1,,,,,,,,,,,,,orange,I
47.0,1.0,1.0,0.0,2.0,2.0,319.2474669776857,4.0,1.0,phase_1,,,,,,,,,,,,,blue,square
106.0,2.0,2.0,0.0,3.0,3.0,323.3883799985051,4.0,1.0,phase_1,,,,,,,,,,,,,orange,I
215.0,3.0,3.0,0.0,3.0,3.0,343.9990121405571,4.0,1.0,phase_1,,,,,,,,,,,,,yellow,flipped triangle
177.0,7.0,3.0,1.0,4.0,4.0,318.9364580903202,4.0,1.0,phase_1,,,,,,,,,,,,,green,cross
0.0,5.0,0.0,1.0,4.0,4.0,372.449710033834,4.0,1.0,phase_1,,,,,,,,,,,,,magenta,triangle
82.0,2.0,2.0,0.0,1.0,1.0,632.0058619603515,4.0,1.0,phase_1,,,,,,,,,,,,,orange,I
0.0,4.0,0.0,0.0,2.0,2.0,410.2146001532674,4.0,1.0,phase_1,,,,,,,,,,,,,white,diamond
100.0,6.0,2.0,1.0,1.0,1.0,441.0158549435437,4.0,1.0,phase_1,,,,,,,,,,,,,gray,circle
72.0,5.0,1.0,1.0,2.0,2.0,342.8569328971207,4.0,1.0,phase_1,,,,,,,,,,,,,magenta,triangle
0.0,7.0,0.0,1.0,3.0,3.0,336.59864589571947,4.0,1.0,phase_1,,,,,,,,,,,,,green,cross
49.0,1.0,1.0,0.0,4.0,4.0,341.1656250245869,4.0,1.0,phase_1,,,,,,,,,,,,,blue,square
100.0,6.0,2.0,1.0,2.0,2.0,353.6281660199165,4.0,1.0,phase_1,,,,,,,,,,,,,gray,circle
125.0,6.0,2.0,1.0,4.0,4.0,335.4780857916921,4.0,1.0,phase_1,,,,,,,,,,,,,gray,circle
0.0,4.0,0.0,0.0,4.0,4.0,300.4121710546314,4.0,1.0,phase_1,,,,,,,,,,,,,white,diamond
211.0,7.0,3.0,1.0,2.0,2.0,328.5140991210937,4.0,1.0,phase_1,,,,,,,,,,,,,green,cross
405.0,4.0,4.0,0.0,3.0,3.0,409.0091539546847,4.0,1.0,phase_1,,,,,,,,,,,,,white,diamond
0.0,8.0,0.0,1.0,2.0,2.0,353.5522769670933,4.0,1.0,phase_1,,,,,,,,,,,,,cyan,hexagon
0.0,2.0,0.0,0.0,3.0,3.0,319.2604628857225,4.0,1.0,phase_1,,,,,,,,,,,,,orange,I
121.0,2.0,2.0,0.0,4.0,4.0,330.6672410108149,4.0,1.0,phase_1,,,,,,,,,,,,,orange,I
118.0,2.0,2.0,0.0,2.0,2.0,351.7542378976941,4.0,1.0,phase_1,,,,,,,,,,,,,orange,I
119.0,6.0,2.0,1.0,3.0,3.0,312.1168641373515,4.0,1.0,phase_1,,,,,,,,,,,,,gray,circle
0.0,7.0,0.0,1.0,2.0,2.0,291.6304341051727,4.0,1.0,phase_1,,,,,,,,,,,,,green,cross
58.0,1.0,1.0,0.0,3.0,3.0,334.3614919576794,4.0,1.0,phase_1,,,,,,,,,,,,,blue,square
80.0,6.0,2.0,1.0,3.0,3.0,338.489199988544,4.0,1.0,phase_1,,,,,,,,,,,,,gray,circle
412.0,8.0,4.0,1.0,4.0,4.0,335.1084759924561,4.0,1.0,phase_1,,,,,,,,,,,,,cyan,hexagon
0.0,8.0,4.0,1.0,6.0,0.0,0.0,1.0,1.0,phase_2,stop,250.0,250.0,4.0,,,,,,,,,cyan,hexagon
0.0,5.0,1.0,1.0,5.0,0.0,0.0,1.0,1.0,phase_2,stop,250.0,300.0,4.0,,,,,,,,,magenta,triangle
0.0,7.0,3.0,1.0,6.0,0.0,0.0,1.0,1.0,phase_2,stop,300.0,300.0,4.0,,,,,,,,,green,cross
0.0,8.0,4.0,1.0,5.0,5.0,649.9089000280946,1.0,1.0,phase_2,go,300.0,350.0,1.0,,,,,,,,,cyan,hexagon
0.0,7.0,3.0,1.0,5.0,0.0,0.0,1.0,1.0,phase_2,stop,300.0,350.0,4.0,,,,,,,,,green,cross
0.0,5.0,1.0,1.0,5.0,0.0,0.0,1.0,1.0,phase_2,stop,350.0,350.0,4.0,,,,,,,,,magenta,triangle
0.0,1.0,1.0,0.0,6.0,6.0,713.1548658944666,1.0,1.0,phase_2,go,400.0,350.0,1.0,,,,,,,,,blue,square
0.0,8.0,4.0,1.0,5.0,5.0,767.6296720746905,1.0,1.0,phase_2,go,400.0,350.0,1.0,,,,,,,,,cyan,hexagon
0.0,8.0,4.0,1.0,6.0,6.0,477.1790360100567,1.0,1.0,phase_2,go,400.0,350.0,1.0,,,,,,,,,cyan,hexagon
0.0,6.0,2.0,1.0,6.0,0.0,0.0,1.0,1.0,phase_2,stop,400.0,350.0,4.0,,,,,,,,,gray,circle
0.0,2.0,2.0,0.0,5.0,5.0,595.9685570560396,1.0,1.0,phase_2,go,400.0,400.0,1.0,,,,,,,,,orange,I
0.0,6.0,2.0,1.0,5.0,5.0,771.768577862531,1.0,1.0,phase_2,go,400.0,400.0,1.0,,,,,,,,,gray,circle
0.0,2.0,2.0,0.0,6.0,6.0,331.7600428126752,1.0,1.0,phase_2,go,400.0,400.0,1.0,,,,,,,,,orange,I
0.0,8.0,4.0,1.0,6.0,0.0,0.0,1.0,1.0,phase_2,stop,400.0,400.0,4.0,,,,,,,,,cyan,hexagon
0.0,5.0,1.0,1.0,6.0,0.0,0.0,1.0,1.0,phase_2,stop,400.0,450.0,4.0,,,,,,,,,magenta,triangle
0.0,3.0,3.0,0.0,5.0,5.0,417.6238081417978,1.0,1.0,phase_2,go,400.0,500.0,1.0,,,,,,,,,yellow,flipped triangle
0.0,6.0,2.0,1.0,6.0,0.0,0.0,1.0,1.0,phase_2,stop,400.0,500.0,4.0,,,,,,,,,gray,circle
0.0,1.0,1.0,0.0,5.0,5.0,729.4032978825271,1.0,1.0,phase_2,go,400.0,550.0,1.0,,,,,,,,,blue,square
0.0,7.0,3.0,1.0,5.0,0.0,0.0,1.0,1.0,phase_2,stop,400.0,550.0,4.0,,,,,,,,,green,cross
0.0,1.0,1.0,0.0,5.0,5.0,874.316536122933,1.0,1.0,phase_2,go,450.0,550.0,1.0,,,,,,,,,blue,square
0.0,4.0,4.0,0.0,6.0,6.0,865.0798220187426,1.0,1.0,phase_2,go,450.0,550.0,1.0,,,,,,,,,white,diamond
0.0,4.0,4.0,0.0,5.0,5.0,880.9143919497728,1.0,1.0,phase_2,go,450.0,550.0,1.0,,,,,,,,,white,diamond
0.0,3.0,3.0,0.0,6.0,6.0,720.3666910063475,1.0,1.0,phase_2,go,450.0,550.0,1.0,,,,,,,,,yellow,flipped triangle
0.0,8.0,4.0,1.0,6.0,6.0,736.7964689619839,1.0,1.0,phase_2,go,450.0,550.0,1.0,,,,,,,,,cyan,hexagon
0.0,7.0,3.0,1.0,6.0,6.0,648.4550519380718,1.0,1.0,phase_2,stop,450.0,550.0,3.0,,,,,,,,,green,cross
0.0,7.0,3.0,1.0,6.0,6.0,815.1002209633589,1.0,1.0,phase_2,go,450.0,500.0,1.0,,,,,,,,,green,cross
0.0,2.0,2.0,0.0,5.0,5.0,556.6824749112129,1.0,1.0,phase_2,go,450.0,500.0,1.0,,,,,,,,,orange,I
0.0,1.0,1.0,0.0,6.0,6.0,765.3225250542164,1.0,1.0,phase_2,go,450.0,500.0,1.0,,,,,,,,,blue,square
0.0,4.0,4.0,0.0,5.0,5.0,636.1497899051756,1.0,1.0,phase_2,go,450.0,500.0,1.0,,,,,,,,,white,diamond
0.0,5.0,1.0,1.0,6.0,0.0,0.0,1.0,1.0,phase_2,stop,450.0,500.0,4.0,,,,,,,,,magenta,triangle
0.0,1.0,1.0,0.0,6.0,6.0,660.3019367903471,1.0,1.0,phase_2,go,450.0,550.0,1.0,,,,,,,,,blue,square
0.0,8.0,4.0,1.0,6.0,6.0,672.4620359018445,1.0,1.0,phase_2,stop,450.0,550.0,3.0,,,,,,,,,cyan,hexagon
0.0,7.0,3.0,1.0,6.0,0.0,0.0,1.0,1.0,phase_2,stop,450.0,500.0,4.0,,,,,,,,,green,cross
0.0,1.0,1.0,0.0,6.0,6.0,679.9186919815838,1.0,1.0,phase_2,go,450.0,550.0,1.0,,,,,,,,,blue,square
0.0,6.0,2.0,1.0,5.0,0.0,0.0,1.0,1.0,phase_2,stop,450.0,550.0,4.0,,,,,,,,,gray,circle
0.0,5.0,1.0,1.0,6.0,6.0,1358.9272280223668,1.0,1.0,phase_2,go,500.0,550.0,1.0,,,,,,,,,magenta,triangle
0.0,7.0,3.0,1.0,6.0,6.0,574.1151340771466,2.0,1.0,phase_2,stop,500.0,550.0,3.0,,,,,,,,,green,cross
0.0,7.0,3.0,1.0,5.0,5.0,524.9427438247949,2.0,1.0,phase_2,stop,500.0,500.0,3.0,,,,,,,,,green,cross
0.0,4.0,4.0,0.0,5.0,5.0,572.0097611192614,2.0,1.0,phase_2,go,450.0,500.0,1.0,,,,,,,,,white,diamond
0.0,1.0,1.0,0.0,6.0,6.0,636.2932799383998,2.0,1.0,phase_2,go,450.0,500.0,1.0,,,,,,,,,blue,square
0.0,8.0,4.0,1.0,6.0,6.0,373.3069479931146,2.0,1.0,phase_2,stop,450.0,500.0,3.0,,,,,,,,,cyan,hexagon
0.0,8.0,4.0,1.0,5.0,5.0,260.9240422025323,2.0,1.0,phase_2,stop,450.0,450.0,3.0,,,,,,,,,cyan,hexagon
0.0,3.0,3.0,0.0,5.0,5.0,459.6794340759516,2.0,1.0,phase_2,go,400.0,450.0,1.0,,,,,,,,,yellow,flipped triangle
0.0,2.0,2.0,0.0,6.0,6.0,536.8190789595246,2.0,1.0,phase_2,go,400.0,450.0,1.0,,,,,,,,,orange,I
0.0,3.0,3.0,0.0,5.0,5.0,409.3308218289166,2.0,1.0,phase_2,go,400.0,450.0,1.0,,,,,,,,,yellow,flipped triangle
0.0,3.0,3.0,0.0,6.0,6.0,375.5144458264112,2.0,1.0,phase_2,go,400.0,450.0,1.0,,,,,,,,,yellow,flipped triangle
0.0,8.0,4.0,1.0,6.0,6.0,351.505636004731,2.0,1.0,phase_2,stop,400.0,450.0,3.0,,,,,,,,,cyan,hexagon
0.0,8.0,4.0,1.0,6.0,6.0,301.636470016092,2.0,1.0,phase_2,go,400.0,400.0,1.0,,,,,,,,,cyan,hexagon
0.0,5.0,1.0,1.0,6.0,6.0,289.2276521306485,2.0,1.0,phase_2,stop,400.0,400.0,3.0,,,,,,,,,magenta,triangle
0.0,4.0,4.0,0.0,6.0,6.0,276.2705001514405,2.0,1.0,phase_2,go,400.0,350.0,1.0,,,,,,,,,white,diamond
0.0,3.0,3.0,0.0,6.0,6.0,277.673739939928,2.0,1.0,phase_2,go,400.0,350.0,1.0,,,,,,,,,yellow,flipped triangle
0.0,2.0,2.0,0.0,6.0,6.0,287.5564149580896,2.0,1.0,phase_2,go,400.0,350.0,1.0,,,,,,,,,orange,I
0.0,2.0,2.0,0.0,6.0,6.0,253.84432217106217,2.0,1.0,phase_2,go,400.0,350.0,1.0,,,,,,,,,orange,I
0.0,6.0,2.0,1.0,5.0,5.0,323.7864500842988,2.0,1.0,phase_2,stop,400.0,350.0,3.0,,,,,,,,,gray,circle
0.0,2.0,2.0,0.0,6.0,6.0,322.0821269787848,2.0,1.0,phase_2,go,350.0,350.0,1.0,,,,,,,,,orange,I
0.0,2.0,2.0,0.0,6.0,6.0,338.7827221304178,2.0,1.0,phase_2,go,350.0,350.0,1.0,,,,,,,,,orange,I
0.0,8.0,4.0,1.0,5.0,0.0,0.0,2.0,1.0,phase_2,stop,350.0,350.0,4.0,,,,,,,,,cyan,hexagon
0.0,5.0,1.0,1.0,6.0,6.0,386.8079099338501,2.0,1.0,phase_2,stop,400.0,350.0,3.0,,,,,,,,,magenta,triangle
0.0,4.0,4.0,0.0,6.0,6.0,544.1972450353205,2.0,1.0,phase_2,go,400.0,300.0,1.0,,,,,,,,,white,diamond
0.0,5.0,1.0,1.0,6.0,6.0,359.4315969385206,2.0,1.0,phase_2,go,400.0,300.0,1.0,,,,,,,,,magenta,triangle
0.0,8.0,4.0,1.0,5.0,5.0,432.6299738604575,2.0,1.0,phase_2,stop,400.0,300.0,3.0,,,,,,,,,cyan,hexagon
0.0,3.0,3.0,0.0,6.0,6.0,277.8581588063389,2.0,1.0,phase_2,go,350.0,300.0,1.0,,,,,,,,,yellow,flipped triangle
0.0,5.0,1.0,1.0,5.0,5.0,237.4523209873587,2.0,1.0,phase_2,stop,350.0,300.0,3.0,,,,,,,,,magenta,triangle
0.0,8.0,4.0,1.0,5.0,5.0,279.4872159138322,2.0,1.0,phase_2,stop,300.0,300.0,3.0,,,,,,,,,cyan,hexagon
0.0,6.0,2.0,1.0,6.0,6.0,220.3759329859167,2.0,1.0,phase_2,stop,250.0,300.0,3.0,,,,,,,,,gray,circle
0.0,4.0,4.0,0.0,6.0,6.0,271.6741589829325,2.0,1.0,phase_2,go,250.0,250.0,1.0,,,,,,,,,white,diamond
0.0,5.0,1.0,1.0,6.0,6.0,246.8853201717138,2.0,1.0,phase_2,stop,250.0,250.0,3.0,,,,,,,,,magenta,triangle
0.0,6.0,2.0,1.0,6.0,6.0,276.6366128344089,2.0,1.0,phase_2,stop,250.0,200.0,3.0,,,,,,,,,gray,circle
0.0,3.0,3.0,0.0,6.0,6.0,222.3463600967079,2.0,1.0,phase_2,go,250.0,150.0,1.0,,,,,,,,,yellow,flipped triangle
0.0,3.0,3.0,0.0,6.0,6.0,267.7540949080139,2.0,1.0,phase_2,go,250.0,150.0,1.0,,,,,,,,,yellow,flipped triangle
0.0,6.0,2.0,1.0,5.0,5.0,236.9778421707451,2.0,1.0,phase_2,stop,250.0,150.0,3.0,,,,,,,,,gray,circle
0.0,3.0,3.0,0.0,6.0,6.0,242.7307211328297,2.0,1.0,phase_2,go,200.0,150.0,1.0,,,,,,,,,yellow,flipped triangle
0.0,4.0,4.0,0.0,5.0,5.0,356.8072761408984,3.0,1.0,phase_2,go,200.0,150.0,1.0,,,,,,,,,white,diamond
0.0,4.0,4.0,0.0,5.0,5.0,367.7372829988599,3.0,1.0,phase_2,go,200.0,150.0,1.0,,,,,,,,,white,diamond
0.0,1.0,1.0,0.0,5.0,5.0,573.8433718215674,3.0,1.0,phase_2,go,200.0,150.0,1.0,,,,,,,,,blue,square
0.0,7.0,3.0,1.0,5.0,5.0,438.1980581674725,3.0,1.0,phase_2,stop,200.0,150.0,3.0,,,,,,,,,green,cross
0.0,7.0,3.0,1.0,6.0,0.0,0.0,3.0,1.0,phase_2,stop,150.0,150.0,4.0,,,,,,,,,green,cross
0.0,8.0,4.0,1.0,6.0,6.0,467.2203930094838,3.0,1.0,phase_2,go,150.0,200.0,1.0,,,,,,,,,cyan,hexagon
0.0,3.0,3.0,0.0,5.0,5.0,457.0367948617786,3.0,1.0,phase_2,go,150.0,200.0,1.0,,,,,,,,,yellow,flipped triangle
0.0,7.0,3.0,1.0,6.0,6.0,600.5280599929392,3.0,1.0,phase_2,go,150.0,200.0,1.0,,,,,,,,,green,cross
0.0,2.0,2.0,0.0,6.0,6.0,328.383281128481,3.0,1.0,phase_2,go,150.0,200.0,1.0,,,,,,,,,orange,I
0.0,5.0,1.0,1.0,5.0,5.0,721.021801000461,3.0,1.0,phase_2,go,150.0,200.0,1.0,,,,,,,,,magenta,triangle
0.0,8.0,4.0,1.0,6.0,6.0,566.5449050720781,3.0,1.0,phase_2,go,150.0,200.0,1.0,,,,,,,,,cyan,hexagon
0.0,5.0,1.0,1.0,5.0,0.0,0.0,3.0,1.0,phase_2,stop,150.0,200.0,4.0,,,,,,,,,magenta,triangle
0.0,3.0,3.0,0.0,5.0,5.0,569.6302759461105,3.0,1.0,phase_2,go,200.0,200.0,1.0,,,,,,,,,yellow,flipped triangle
0.0,6.0,2.0,1.0,5.0,0.0,0.0,3.0,1.0,phase_2,stop,200.0,200.0,4.0,,,,,,,,,gray,circle
0.0,4.0,4.0,0.0,5.0,5.0,445.1353710610419,3.0,1.0,phase_2,go,250.0,200.0,1.0,,,,,,,,,white,diamond
0.0,2.0,2.0,0.0,6.0,6.0,630.7298578321934,3.0,1.0,phase_2,go,250.0,200.0,1.0,,,,,,,,,orange,I
0.0,1.0,1.0,0.0,6.0,6.0,621.8407119158655,3.0,1.0,phase_2,go,250.0,200.0,1.0,,,,,,,,,blue,square
0.0,2.0,2.0,0.0,5.0,5.0,659.4331259839237,3.0,1.0,phase_2,go,250.0,200.0,1.0,,,,,,,,,orange,I
0.0,3.0,3.0,0.0,5.0,5.0,406.5050480421632,3.0,1.0,phase_2,go,250.0,200.0,1.0,,,,,,,,,yellow,flipped triangle
0.0,5.0,1.0,1.0,6.0,0.0,0.0,3.0,1.0,phase_2,stop,250.0,200.0,4.0,,,,,,,,,magenta,triangle
0.0,4.0,4.0,0.0,5.0,5.0,468.5613380279392,3.0,1.0,phase_2,go,250.0,250.0,1.0,,,,,,,,,white,diamond
0.0,1.0,1.0,0.0,5.0,5.0,649.4265119545162,3.0,1.0,phase_2,go,250.0,250.0,1.0,,,,,,,,,blue,square
0.0,7.0,3.0,1.0,6.0,0.0,0.0,3.0,1.0,phase_2,stop,250.0,250.0,4.0,,,,,,,,,green,cross
0.0,4.0,4.0,0.0,6.0,6.0,319.7213439270854,3.0,1.0,phase_2,go,250.0,300.0,1.0,,,,,,,,,white,diamond
0.0,4.0,4.0,0.0,6.0,6.0,687.0499469805509,3.0,1.0,phase_2,go,250.0,300.0,1.0,,,,,,,,,white,diamond
0.0,1.0,1.0,0.0,5.0,5.0,287.0655551087111,3.0,1.0,phase_2,go,250.0,300.0,1.0,,,,,,,,,blue,square
0.0,3.0,3.0,0.0,5.0,5.0,441.8447709176689,3.0,1.0,phase_2,go,250.0,300.0,1.0,,,,,,,,,yellow,flipped triangle
0.0,7.0,3.0,1.0,6.0,0.0,0.0,3.0,1.0,phase_2,stop,250.0,300.0,4.0,,,,,,,,,green,cross
0.0,2.0,2.0,0.0,6.0,6.0,412.6294560264796,3.0,1.0,phase_2,go,250.0,350.0,1.0,,,,,,,,,orange,I
0.0,7.0,3.0,1.0,6.0,0.0,0.0,3.0,1.0,phase_2,stop,250.0,350.0,4.0,,,,,,,,,green,cross
0.0,5.0,1.0,1.0,6.0,6.0,491.4988551754504,3.0,1.0,phase_2,go,250.0,400.0,1.0,,,,,,,,,magenta,triangle
0.0,8.0,4.0,1.0,5.0,0.0,0.0,3.0,1.0,phase_2,stop,250.0,400.0,4.0,,,,,,,,,cyan,hexagon
0.0,8.0,4.0,1.0,5.0,0.0,0.0,3.0,1.0,phase_2,stop,300.0,400.0,4.0,,,,,,,,,cyan,hexagon
0.0,3.0,3.0,0.0,5.0,5.0,566.3314980920404,3.0,1.0,phase_2,go,350.0,400.0,1.0,,,,,,,,,yellow,flipped triangle
0.0,7.0,3.0,1.0,5.0,5.0,467.6382658071816,3.0,1.0,phase_2,go,350.0,400.0,1.0,,,,,,,,,green,cross
0.0,3.0,3.0,0.0,6.0,6.0,480.6174768600613,3.0,1.0,phase_2,go,350.0,400.0,1.0,,,,,,,,,yellow,flipped triangle
0.0,1.0,1.0,0.0,6.0,6.0,640.7268801704049,4.0,1.0,phase_2,go,350.0,400.0,1.0,,,,,,,,,blue,square
0.0,3.0,3.0,0.0,5.0,5.0,447.8590078651905,4.0,1.0,phase_2,go,350.0,400.0,1.0,,,,,,,,,yellow,flipped triangle
0.0,2.0,2.0,0.0,6.0,6.0,365.3994069900363,4.0,1.0,phase_2,go,350.0,400.0,1.0,,,,,,,,,orange,I
0.0,8.0,4.0,1.0,6.0,6.0,373.4546559862792,4.0,1.0,phase_2,stop,350.0,400.0,3.0,,,,,,,,,cyan,hexagon
0.0,5.0,1.0,1.0,5.0,0.0,0.0,4.0,1.0,phase_2,stop,350.0,350.0,4.0,,,,,,,,,magenta,triangle
0.0,4.0,4.0,0.0,6.0,6.0,484.5737770665437,4.0,1.0,phase_2,go,400.0,350.0,1.0,,,,,,,,,white,diamond
0.0,5.0,1.0,1.0,6.0,6.0,451.0499730240553,4.0,1.0,phase_2,stop,400.0,350.0,3.0,,,,,,,,,magenta,triangle
0.0,5.0,1.0,1.0,5.0,5.0,507.0196148008108,4.0,1.0,phase_2,stop,400.0,300.0,3.0,,,,,,,,,magenta,triangle
0.0,3.0,3.0,0.0,6.0,6.0,726.0506069287658,4.0,1.0,phase_2,go,350.0,300.0,1.0,,,,,,,,,yellow,flipped triangle
0.0,2.0,2.0,0.0,6.0,6.0,516.3353479001671,4.0,1.0,phase_2,go,350.0,300.0,1.0,,,,,,,,,orange,I
0.0,5.0,1.0,1.0,5.0,5.0,340.6210571993142,4.0,1.0,phase_2,stop,350.0,300.0,3.0,,,,,,,,,magenta,triangle
0.0,1.0,1.0,0.0,6.0,6.0,544.6848177816719,4.0,1.0,phase_2,go,300.0,300.0,1.0,,,,,,,,,blue,square
0.0,2.0,2.0,0.0,5.0,5.0,297.562041087076,4.0,1.0,phase_2,go,300.0,300.0,1.0,,,,,,,,,orange,I
0.0,4.0,4.0,0.0,5.0,5.0,439.5939682144671,4.0,1.0,phase_2,go,300.0,300.0,1.0,,,,,,,,,white,diamond
0.0,7.0,3.0,1.0,5.0,5.0,374.8625409789383,4.0,1.0,phase_2,stop,300.0,300.0,3.0,,,,,,,,,green,cross
0.0,8.0,4.0,1.0,6.0,6.0,322.673775954172,4.0,1.0,phase_2,stop,250.0,300.0,3.0,,,,,,,,,cyan,hexagon
0.0,6.0,2.0,1.0,6.0,0.0,0.0,4.0,1.0,phase_2,stop,250.0,250.0,4.0,,,,,,,,,gray,circle
0.0,4.0,4.0,0.0,5.0,5.0,326.1803661007434,4.0,1.0,phase_2,go,250.0,300.0,1.0,,,,,,,,,white,diamond
0.0,6.0,2.0,1.0,5.0,5.0,469.4014168344438,4.0,1.0,phase_2,go,250.0,300.0,1.0,,,,,,,,,gray,circle
0.0,2.0,2.0,0.0,5.0,5.0,453.3426030538976,4.0,1.0,phase_2,go,250.0,300.0,1.0,,,,,,,,,orange,I
0.0,7.0,3.0,1.0,5.0,0.0,0.0,4.0,1.0,phase_2,stop,250.0,300.0,4.0,,,,,,,,,green,cross
0.0,1.0,1.0,0.0,5.0,5.0,571.9929120969027,4.0,1.0,phase_2,go,300.0,300.0,1.0,,,,,,,,,blue,square
0.0,5.0,1.0,1.0,5.0,0.0,0.0,4.0,1.0,phase_2,stop,300.0,300.0,4.0,,,,,,,,,magenta,triangle
0.0,6.0,2.0,1.0,5.0,0.0,0.0,4.0,1.0,phase_2,stop,350.0,300.0,4.0,,,,,,,,,gray,circle
0.0,4.0,4.0,0.0,5.0,5.0,410.091107012704,4.0,1.0,phase_2,go,400.0,300.0,1.0,,,,,,,,,white,diamond
0.0,6.0,2.0,1.0,6.0,6.0,931.2380470801144,4.0,1.0,phase_2,go,400.0,300.0,1.0,,,,,,,,,gray,circle
0.0,4.0,4.0,0.0,6.0,6.0,354.0459531359374,4.0,1.0,phase_2,go,400.0,300.0,1.0,,,,,,,,,white,diamond
0.0,5.0,1.0,1.0,6.0,6.0,369.3730039522052,4.0,1.0,phase_2,stop,400.0,300.0,3.0,,,,,,,,,magenta,triangle
0.0,1.0,1.0,0.0,5.0,5.0,443.2627600617707,4.0,1.0,phase_2,go,400.0,250.0,1.0,,,,,,,,,blue,square
0.0,1.0,1.0,0.0,5.0,5.0,362.263104878366,4.0,1.0,phase_2,go,400.0,250.0,1.0,,,,,,,,,blue,square
0.0,7.0,3.0,1.0,6.0,6.0,734.3250869307667,4.0,1.0,phase_2,stop,400.0,250.0,3.0,,,,,,,,,green,cross
0.0,3.0,3.0,0.0,6.0,6.0,512.2689341660589,4.0,1.0,phase_2,go,400.0,200.0,1.0,,,,,,,,,yellow,flipped triangle
0.0,4.0,4.0,0.0,6.0,6.0,318.5857359785586,4.0,1.0,phase_2,go,400.0,200.0,1.0,,,,,,,,,white,diamond
0.0,6.0,2.0,1.0,5.0,0.0,0.0,4.0,1.0,phase_2,stop,400.0,200.0,4.0,,,,,,,,,gray,circle
0.0,2.0,2.0,0.0,5.0,5.0,364.1071559395641,4.0,1.0,phase_2,go,450.0,200.0,1.0,,,,,,,,,orange,I
0.0,1.0,1.0,0.0,6.0,6.0,526.7169480212033,4.0,1.0,phase_2,go,450.0,200.0,1.0,,,,,,,,,blue,square
0.0,8.0,4.0,1.0,5.0,5.0,683.7136331014335,5.0,1.0,phase_2,stop,450.0,200.0,3.0,,,,,,,,,cyan,hexagon
0.0,2.0,2.0,0.0,5.0,5.0,565.8853109925985,5.0,1.0,phase_2,go,400.0,200.0,1.0,,,,,,,,,orange,I
0.0,7.0,3.0,1.0,5.0,5.0,427.347051911056,5.0,1.0,phase_2,stop,400.0,200.0,3.0,,,,,,,,,green,cross
0.0,1.0,1.0,0.0,5.0,5.0,557.0704001002014,5.0,1.0,phase_2,go,350.0,200.0,1.0,,,,,,,,,blue,square
0.0,6.0,2.0,1.0,6.0,6.0,277.2144270129502,5.0,1.0,phase_2,go,350.0,200.0,1.0,,,,,,,,,gray,circle
0.0,7.0,3.0,1.0,6.0,6.0,369.6037449408322,5.0,1.0,phase_2,stop,350.0,200.0,3.0,,,,,,,,,green,cross
0.0,8.0,4.0,1.0,5.0,5.0,418.9014669973403,5.0,1.0,phase_2,stop,350.0,150.0,3.0,,,,,,,,,cyan,hexagon
0.0,8.0,4.0,1.0,5.0,0.0,0.0,5.0,1.0,phase_2,stop,300.0,150.0,4.0,,,,,,,,,cyan,hexagon
0.0,2.0,2.0,0.0,5.0,5.0,473.0124920606613,5.0,1.0,phase_2,go,350.0,150.0,1.0,,,,,,,,,orange,I
0.0,2.0,2.0,0.0,5.0,5.0,343.0153599474579,5.0,1.0,phase_2,go,350.0,150.0,1.0,,,,,,,,,orange,I
0.0,6.0,2.0,1.0,5.0,0.0,0.0,5.0,1.0,phase_2,stop,350.0,150.0,4.0,,,,,,,,,gray,circle
0.0,1.0,1.0,0.0,6.0,6.0,422.7012528572231,5.0,1.0,phase_2,go,400.0,150.0,1.0,,,,,,,,,blue,square
0.0,1.0,1.0,0.0,5.0,5.0,606.1212162021548,5.0,1.0,phase_2,go,400.0,150.0,1.0,,,,,,,,,blue,square
0.0,7.0,3.0,1.0,6.0,6.0,341.4885071106255,5.0,1.0,phase_2,go,400.0,150.0,1.0,,,,,,,,,green,cross
0.0,6.0,2.0,1.0,6.0,6.0,308.1793449819088,5.0,1.0,phase_2,stop,400.0,150.0,3.0,,,,,,,,,gray,circle
0.0,8.0,4.0,1.0,6.0,0.0,0.0,5.0,1.0,phase_2,stop,400.0,100.0,4.0,,,,,,,,,cyan,hexagon
0.0,2.0,2.0,0.0,5.0,5.0,517.0332121197134,5.0,1.0,phase_2,go,400.0,150.0,1.0,,,,,,,,,orange,I
0.0,6.0,2.0,1.0,6.0,6.0,532.6612161006778,5.0,1.0,phase_2,go,400.0,150.0,1.0,,,,,,,,,gray,circle
0.0,6.0,2.0,1.0,6.0,6.0,398.1706330087036,5.0,1.0,phase_2,stop,400.0,150.0,3.0,,,,,,,,,gray,circle
0.0,7.0,3.0,1.0,5.0,5.0,347.7357388474047,5.0,1.0,phase_2,stop,400.0,100.0,3.0,,,,,,,,,green,cross
0.0,6.0,2.0,1.0,5.0,5.0,476.6287019010633,5.0,1.0,phase_2,stop,350.0,100.0,3.0,,,,,,,,,gray,circle
0.0,6.0,2.0,1.0,5.0,5.0,698.5348002053797,5.0,1.0,phase_2,go,300.0,100.0,1.0,,,,,,,,,gray,circle
0.0,1.0,1.0,0.0,5.0,5.0,936.5654429420828,5.0,1.0,phase_2,go,300.0,100.0,1.0,,,,,,,,,blue,square
0.0,4.0,4.0,0.0,5.0,5.0,339.0655980911106,5.0,1.0,phase_2,go,300.0,100.0,1.0,,,,,,,,,white,diamond
0.0,7.0,3.0,1.0,5.0,5.0,337.195805972442,5.0,1.0,phase_2,stop,300.0,100.0,3.0,,,,,,,,,green,cross
0.0,2.0,2.0,0.0,6.0,6.0,423.897473141551,5.0,1.0,phase_2,go,250.0,100.0,1.0,,,,,,,,,orange,I
0.0,7.0,3.0,1.0,5.0,5.0,582.5063770171255,5.0,1.0,phase_2,go,250.0,100.0,1.0,,,,,,,,,green,cross
0.0,3.0,3.0,0.0,5.0,5.0,365.916988812387,5.0,1.0,phase_2,go,250.0,100.0,1.0,,,,,,,,,yellow,flipped triangle
0.0,4.0,4.0,0.0,6.0,6.0,294.8366568889469,5.0,1.0,phase_2,go,250.0,100.0,1.0,,,,,,,,,white,diamond
0.0,2.0,2.0,0.0,5.0,5.0,519.3464159965515,5.0,1.0,phase_2,go,250.0,100.0,1.0,,,,,,,,,orange,I
0.0,4.0,4.0,0.0,5.0,5.0,331.3294169493019,5.0,1.0,phase_2,go,250.0,100.0,1.0,,,,,,,,,white,diamond
0.0,6.0,2.0,1.0,6.0,0.0,0.0,5.0,1.0,phase_2,stop,250.0,100.0,4.0,,,,,,,,,gray,circle
0.0,1.0,1.0,0.0,6.0,6.0,380.1626039203256,5.0,1.0,phase_2,go,250.0,150.0,1.0,,,,,,,,,blue,square
0.0,7.0,3.0,1.0,6.0,6.0,341.5463990531862,5.0,1.0,phase_2,go,250.0,150.0,1.0,,,,,,,,,green,cross
0.0,7.0,3.0,1.0,5.0,5.0,845.5196120776236,5.0,1.0,phase_2,stop,250.0,150.0,3.0,,,,,,,,,green,cross
0.0,2.0,2.0,0.0,6.0,6.0,601.2163751292974,5.0,1.0,phase_2,go,200.0,150.0,1.0,,,,,,,,,orange,I
0.0,6.0,2.0,1.0,6.0,0.0,0.0,6.0,1.0,phase_2,stop,200.0,150.0,4.0,,,,,,,,,gray,circle
0.0,3.0,3.0,0.0,6.0,6.0,400.6542759016156,6.0,1.0,phase_2,go,200.0,200.0,1.0,,,,,,,,,yellow,flipped triangle
0.0,4.0,4.0,0.0,6.0,6.0,317.2626718878746,6.0,1.0,phase_2,go,200.0,200.0,1.0,,,,,,,,,white,diamond
0.0,3.0,3.0,0.0,5.0,5.0,401.1639431118965,6.0,1.0,phase_2,go,200.0,200.0,1.0,,,,,,,,,yellow,flipped triangle
0.0,3.0,3.0,0.0,6.0,6.0,360.1525269914418,6.0,1.0,phase_2,go,200.0,200.0,1.0,,,,,,,,,yellow,flipped triangle
0.0,5.0,1.0,1.0,5.0,5.0,318.9875308889895,6.0,1.0,phase_2,go,200.0,200.0,1.0,,,,,,,,,magenta,triangle
0.0,7.0,3.0,1.0,6.0,6.0,319.000578019768,6.0,1.0,phase_2,stop,200.0,200.0,3.0,,,,,,,,,green,cross
0.0,7.0,3.0,1.0,5.0,0.0,0.0,6.0,1.0,phase_2,stop,200.0,150.0,4.0,,,,,,,,,green,cross
0.0,3.0,3.0,0.0,5.0,5.0,477.348790038377,6.0,1.0,phase_2,go,250.0,150.0,1.0,,,,,,,,,yellow,flipped triangle
0.0,1.0,1.0,0.0,6.0,6.0,405.3787440061569,6.0,1.0,phase_2,go,250.0,150.0,1.0,,,,,,,,,blue,square
0.0,4.0,4.0,0.0,5.0,5.0,570.9225109312683,6.0,1.0,phase_2,go,250.0,150.0,1.0,,,,,,,,,white,diamond
0.0,1.0,1.0,0.0,5.0,5.0,328.442808939144,6.0,1.0,phase_2,go,250.0,150.0,1.0,,,,,,,,,blue,square
0.0,5.0,1.0,1.0,5.0,5.0,296.8529681675136,6.0,1.0,phase_2,go,250.0,150.0,1.0,,,,,,,,,magenta,triangle
0.0,7.0,3.0,1.0,5.0,5.0,265.7485909294337,6.0,1.0,phase_2,stop,250.0,150.0,3.0,,,,,,,,,green,cross
0.0,5.0,1.0,1.0,5.0,0.0,0.0,6.0,1.0,phase_2,stop,200.0,150.0,4.0,,,,,,,,,magenta,triangle
0.0,4.0,4.0,0.0,6.0,6.0,562.6213108189404,6.0,1.0,phase_2,go,250.0,150.0,1.0,,,,,,,,,white,diamond
0.0,1.0,1.0,0.0,5.0,5.0,422.6754049304873,6.0,1.0,phase_2,go,250.0,150.0,1.0,,,,,,,,,blue,square
0.0,2.0,2.0,0.0,5.0,5.0,431.1297789681703,6.0,1.0,phase_2,go,250.0,150.0,1.0,,,,,,,,,orange,I
0.0,1.0,1.0,0.0,5.0,5.0,328.2390530221164,6.0,1.0,phase_2,go,250.0,150.0,1.0,,,,,,,,,blue,square
0.0,6.0,2.0,1.0,6.0,0.0,0.0,6.0,1.0,phase_2,stop,250.0,150.0,4.0,,,,,,,,,gray,circle
0.0,2.0,2.0,0.0,6.0,6.0,443.5491538606584,6.0,1.0,phase_2,go,250.0,200.0,1.0,,,,,,,,,orange,I
0.0,2.0,2.0,0.0,5.0,5.0,419.6593628730625,6.0,1.0,phase_2,go,250.0,200.0,1.0,,,,,,,,,orange,I
0.0,8.0,4.0,1.0,5.0,5.0,362.8456210717559,6.0,1.0,phase_2,stop,250.0,200.0,3.0,,,,,,,,,cyan,hexagon
0.0,6.0,2.0,1.0,6.0,0.0,0.0,6.0,1.0,phase_2,stop,200.0,200.0,4.0,,,,,,,,,gray,circle
0.0,8.0,4.0,1.0,5.0,5.0,705.7659500278533,6.0,1.0,phase_2,go,200.0,250.0,1.0,,,,,,,,,cyan,hexagon
0.0,8.0,4.0,1.0,5.0,0.0,0.0,6.0,1.0,phase_2,stop,200.0,250.0,4.0,,,,,,,,,cyan,hexagon
0.0,3.0,3.0,0.0,6.0,6.0,395.5982488114387,6.0,1.0,phase_2,go,250.0,250.0,1.0,,,,,,,,,yellow,flipped triangle
0.0,3.0,3.0,0.0,5.0,5.0,1139.633118873462,6.0,1.0,phase_2,go,250.0,250.0,1.0,,,,,,,,,yellow,flipped triangle
0.0,6.0,2.0,1.0,6.0,6.0,370.3068071044981,6.0,1.0,phase_2,go,250.0,250.0,1.0,,,,,,,,,gray,circle
0.0,7.0,3.0,1.0,6.0,6.0,321.0696449968964,6.0,1.0,phase_2,go,250.0,250.0,1.0,,,,,,,,,green,cross
0.0,2.0,2.0,0.0,5.0,5.0,351.2854040600359,6.0,1.0,phase_2,go,250.0,250.0,1.0,,,,,,,,,orange,I
0.0,1.0,1.0,0.0,6.0,6.0,398.2988239731639,6.0,1.0,phase_2,go,250.0,250.0,1.0,,,,,,,,,blue,square
0.0,1.0,1.0,0.0,6.0,6.0,340.6587999779731,6.0,1.0,phase_2,go,250.0,250.0,1.0,,,,,,,,,blue,square
0.0,8.0,4.0,1.0,6.0,6.0,344.3661399651319,6.0,1.0,phase_2,stop,250.0,250.0,3.0,,,,,,,,,cyan,hexagon
0.0,8.0,4.0,1.0,6.0,0.0,0.0,6.0,1.0,phase_2,stop,250.0,200.0,4.0,,,,,,,,,cyan,hexagon
0.0,4.0,4.0,0.0,6.0,6.0,415.2291540522128,6.0,1.0,phase_2,go,250.0,250.0,1.0,,,,,,,,,white,diamond
0.0,1.0,1.0,0.0,6.0,6.0,423.6032299231738,7.0,1.0,phase_2,go,250.0,250.0,1.0,,,,,,,,,blue,square
0.0,5.0,1.0,1.0,6.0,0.0,0.0,7.0,1.0,phase_2,stop,250.0,250.0,4.0,,,,,,,,,magenta,triangle
0.0,1.0,1.0,0.0,5.0,5.0,344.498666934669,7.0,1.0,phase_2,go,250.0,300.0,1.0,,,,,,,,,blue,square
0.0,7.0,3.0,1.0,5.0,5.0,629.9216111656278,7.0,1.0,phase_2,go,250.0,300.0,1.0,,,,,,,,,green,cross
0.0,5.0,1.0,1.0,5.0,5.0,495.27895799838,7.0,1.0,phase_2,go,250.0,300.0,1.0,,,,,,,,,magenta,triangle
0.0,5.0,1.0,1.0,5.0,5.0,440.8752298913896,7.0,1.0,phase_2,go,250.0,300.0,1.0,,,,,,,,,magenta,triangle
0.0,7.0,3.0,1.0,6.0,0.0,0.0,7.0,1.0,phase_2,stop,250.0,300.0,4.0,,,,,,,,,green,cross
0.0,4.0,4.0,0.0,5.0,5.0,349.2615378927439,7.0,1.0,phase_2,go,250.0,350.0,1.0,,,,,,,,,white,diamond
0.0,3.0,3.0,0.0,6.0,6.0,507.7789989300072,7.0,1.0,phase_2,go,250.0,350.0,1.0,,,,,,,,,yellow,flipped triangle
0.0,5.0,1.0,1.0,6.0,6.0,333.8475830387324,7.0,1.0,phase_2,stop,250.0,350.0,3.0,,,,,,,,,magenta,triangle
0.0,5.0,1.0,1.0,5.0,5.0,329.7468689270317,7.0,1.0,phase_2,stop,250.0,300.0,3.0,,,,,,,,,magenta,triangle
0.0,1.0,1.0,0.0,5.0,5.0,517.6645240280777,7.0,1.0,phase_2,go,200.0,300.0,1.0,,,,,,,,,blue,square
0.0,6.0,2.0,1.0,5.0,0.0,0.0,7.0,1.0,phase_2,stop,200.0,300.0,4.0,,,,,,,,,gray,circle
0.0,6.0,2.0,1.0,6.0,6.0,395.0749179348349,7.0,1.0,phase_2,stop,250.0,300.0,3.0,,,,,,,,,gray,circle
0.0,6.0,2.0,1.0,5.0,0.0,0.0,7.0,1.0,phase_2,stop,250.0,250.0,4.0,,,,,,,,,gray,circle
0.0,2.0,2.0,0.0,6.0,6.0,402.1315909922123,7.0,1.0,phase_2,go,300.0,250.0,1.0,,,,,,,,,orange,I
0.0,3.0,3.0,0.0,5.0,5.0,361.742134205997,7.0,1.0,phase_2,go,300.0,250.0,1.0,,,,,,,,,yellow,flipped triangle
0.0,3.0,3.0,0.0,6.0,6.0,287.2031999286264,7.0,1.0,phase_2,go,300.0,250.0,1.0,,,,,,,,,yellow,flipped triangle
0.0,2.0,2.0,0.0,6.0,6.0,391.2049671635031,7.0,1.0,phase_2,go,300.0,250.0,1.0,,,,,,,,,orange,I
0.0,5.0,1.0,1.0,5.0,5.0,416.0217209719121,7.0,1.0,phase_2,stop,300.0,250.0,3.0,,,,,,,,,magenta,triangle
0.0,7.0,3.0,1.0,5.0,0.0,0.0,7.0,1.0,phase_2,stop,250.0,250.0,4.0,,,,,,,,,green,cross
0.0,1.0,1.0,0.0,5.0,5.0,472.1340979449451,7.0,1.0,phase_2,go,300.0,250.0,1.0,,,,,,,,,blue,square
0.0,6.0,2.0,1.0,5.0,5.0,411.2430640961975,7.0,1.0,phase_2,stop,300.0,250.0,3.0,,,,,,,,,gray,circle
0.0,2.0,2.0,0.0,5.0,5.0,571.1051570251584,7.0,1.0,phase_2,go,250.0,250.0,1.0,,,,,,,,,orange,I
0.0,4.0,4.0,0.0,5.0,5.0,350.7361721713096,7.0,1.0,phase_2,go,250.0,250.0,1.0,,,,,,,,,white,diamond
0.0,4.0,4.0,0.0,6.0,6.0,489.7787179797888,7.0,1.0,phase_2,go,250.0,250.0,1.0,,,,,,,,,white,diamond
0.0,5.0,1.0,1.0,5.0,5.0,307.6452920213341,7.0,1.0,phase_2,stop,250.0,250.0,3.0,,,,,,,,,magenta,triangle
0.0,5.0,1.0,1.0,6.0,0.0,0.0,7.0,1.0,phase_2,stop,200.0,250.0,4.0,,,,,,,,,magenta,triangle
0.0,4.0,4.0,0.0,6.0,6.0,471.9530250877142,7.0,1.0,phase_2,go,200.0,300.0,1.0,,,,,,,,,white,diamond
0.0,1.0,1.0,0.0,6.0,6.0,495.9318940527737,7.0,1.0,phase_2,go,200.0,300.0,1.0,,,,,,,,,blue,square
0.0,4.0,4.0,0.0,6.0,6.0,335.6876049656421,7.0,1.0,phase_2,go,200.0,300.0,1.0,,,,,,,,,white,diamond
0.0,8.0,4.0,1.0,6.0,6.0,326.6568740364164,7.0,1.0,phase_2,stop,200.0,300.0,3.0,,,,,,,,,cyan,hexagon
0.0,3.0,3.0,0.0,5.0,5.0,401.4312189538032,7.0,1.0,phase_2,go,200.0,250.0,1.0,,,,,,,,,yellow,flipped triangle
0.0,6.0,2.0,1.0,5.0,5.0,416.3135201670229,7.0,1.0,phase_2,go,200.0,250.0,1.0,,,,,,,,,gray,circle
0.0,8.0,4.0,1.0,5.0,5.0,324.9628699850291,7.0,1.0,phase_2,go,200.0,250.0,1.0,,,,,,,,,cyan,hexagon
0.0,8.0,4.0,1.0,6.0,0.0,0.0,7.0,1.0,phase_2,stop,200.0,250.0,4.0,,,,,,,,,cyan,hexagon
0.0,8.0,4.0,1.0,5.0,5.0,390.5485412105918,8.0,1.0,phase_2,stop,200.0,300.0,3.0,,,,,,,,,cyan,hexagon
0.0,3.0,3.0,0.0,6.0,6.0,456.2637179624289,8.0,1.0,phase_2,go,150.0,300.0,1.0,,,,,,,,,yellow,flipped triangle
0.0,2.0,2.0,0.0,5.0,5.0,533.4043980110437,8.0,1.0,phase_2,go,150.0,300.0,1.0,,,,,,,,,orange,I
0.0,8.0,4.0,1.0,6.0,0.0,0.0,8.0,1.0,phase_2,stop,150.0,300.0,4.0,,,,,,,,,cyan,hexagon
0.0,5.0,1.0,1.0,6.0,6.0,356.0930560342967,8.0,1.0,phase_2,go,150.0,350.0,1.0,,,,,,,,,magenta,triangle
0.0,5.0,1.0,1.0,5.0,0.0,0.0,8.0,1.0,phase_2,stop,150.0,350.0,4.0,,,,,,,,,magenta,triangle
0.0,7.0,3.0,1.0,5.0,5.0,278.9957630448043,8.0,1.0,phase_2,stop,200.0,350.0,3.0,,,,,,,,,green,cross
0.0,4.0,4.0,0.0,6.0,6.0,292.4883922096342,8.0,1.0,phase_2,go,150.0,350.0,1.0,,,,,,,,,white,diamond
0.0,7.0,3.0,1.0,5.0,5.0,323.9987110719085,8.0,1.0,phase_2,go,150.0,350.0,1.0,,,,,,,,,green,cross
0.0,5.0,1.0,1.0,6.0,6.0,569.2627320531756,8.0,1.0,phase_2,stop,150.0,350.0,3.0,,,,,,,,,magenta,triangle
0.0,6.0,2.0,1.0,5.0,0.0,0.0,8.0,1.0,phase_2,stop,150.0,300.0,4.0,,,,,,,,,gray,circle
0.0,2.0,2.0,0.0,6.0,6.0,448.2147570233792,8.0,1.0,phase_2,go,200.0,300.0,1.0,,,,,,,,,orange,I
0.0,2.0,2.0,0.0,5.0,5.0,344.2419578786939,8.0,1.0,phase_2,go,200.0,300.0,1.0,,,,,,,,,orange,I
0.0,6.0,2.0,1.0,6.0,6.0,514.2744770273566,8.0,1.0,phase_2,go,200.0,300.0,1.0,,,,,,,,,gray,circle
0.0,7.0,3.0,1.0,6.0,0.0,0.0,8.0,1.0,phase_2,stop,200.0,300.0,4.0,,,,,,,,,green,cross
0.0,4.0,4.0,0.0,6.0,6.0,574.1530118975788,8.0,1.0,phase_2,go,200.0,350.0,1.0,,,,,,,,,white,diamond
0.0,1.0,1.0,0.0,6.0,6.0,558.4662959445268,8.0,1.0,phase_2,go,200.0,350.0,1.0,,,,,,,,,blue,square
0.0,8.0,4.0,1.0,5.0,0.0,0.0,8.0,1.0,phase_2,stop,200.0,350.0,4.0,,,,,,,,,cyan,hexagon
0.0,3.0,3.0,0.0,6.0,6.0,557.2188540827483,8.0,1.0,phase_2,go,250.0,350.0,1.0,,,,,,,,,yellow,flipped triangle
0.0,1.0,1.0,0.0,5.0,5.0,534.1983339749277,8.0,1.0,phase_2,go,250.0,350.0,1.0,,,,,,,,,blue,square
0.0,6.0,2.0,1.0,6.0,6.0,423.2436448801309,8.0,1.0,phase_2,stop,250.0,350.0,3.0,,,,,,,,,gray,circle
0.0,6.0,2.0,1.0,5.0,5.0,414.3554461188614,8.0,1.0,phase_2,stop,250.0,300.0,3.0,,,,,,,,,gray,circle
0.0,1.0,1.0,0.0,6.0,6.0,894.454434979707,8.0,1.0,phase_2,go,200.0,300.0,1.0,,,,,,,,,blue,square
0.0,2.0,2.0,0.0,5.0,5.0,427.9098589904606,8.0,1.0,phase_2,go,200.0,300.0,1.0,,,,,,,,,orange,I
0.0,3.0,3.0,0.0,5.0,5.0,660.2666180115193,8.0,1.0,phase_2,go,200.0,300.0,1.0,,,,,,,,,yellow,flipped triangle
0.0,5.0,1.0,1.0,6.0,0.0,0.0,8.0,1.0,phase_2,stop,200.0,300.0,4.0,,,,,,,,,magenta,triangle
0.0,2.0,2.0,0.0,6.0,6.0,546.7081009410322,8.0,1.0,phase_2,go,200.0,350.0,1.0,,,,,,,,,orange,I
0.0,6.0,2.0,1.0,5.0,0.0,0.0,8.0,1.0,phase_2,stop,200.0,350.0,4.0,,,,,,,,,gray,circle
0.0,4.0,4.0,0.0,5.0,5.0,616.5155242197216,8.0,1.0,phase_2,go,250.0,350.0,1.0,,,,,,,,,white,diamond
0.0,3.0,3.0,0.0,5.0,5.0,441.7932128999382,8.0,1.0,phase_2,go,250.0,350.0,1.0,,,,,,,,,yellow,flipped triangle
0.0,3.0,3.0,0.0,6.0,6.0,414.5755309145897,8.0,1.0,phase_2,go,250.0,350.0,1.0,,,,,,,,,yellow,flipped triangle
0.0,3.0,3.0,0.0,5.0,5.0,328.8430548273027,8.0,1.0,phase_2,go,250.0,350.0,1.0,,,,,,,,,yellow,flipped triangle
0.0,4.0,4.0,0.0,5.0,5.0,335.2931158151477,8.0,1.0,phase_2,go,250.0,350.0,1.0,,,,,,,,,white,diamond
0.0,8.0,4.0,1.0,5.0,5.0,325.0598050653934,8.0,1.0,phase_2,stop,250.0,350.0,3.0,,,,,,,,,cyan,hexagon
0.0,5.0,1.0,1.0,6.0,6.0,439.170717028901,8.0,1.0,phase_2,stop,200.0,350.0,3.0,,,,,,,,,magenta,triangle
0.0,4.0,4.0,0.0,5.0,5.0,653.433748986572,8.0,1.0,phase_2,go,200.0,300.0,1.0,,,,,,,,,white,diamond
0.0,8.0,4.0,1.0,7.0,5.0,3173.310137121007,1.0,1.0,phase_3,,,,,147.0,3.0,49.0,294.0,245.0,98.0,147.0,196.0,cyan,hexagon
0.0,8.0,4.0,1.0,7.0,3.0,2114.4023740198463,1.0,1.0,phase_3,,,,,156.0,4.0,39.0,78.0,156.0,195.0,117.0,234.0,cyan,hexagon
0.0,4.0,4.0,0.0,7.0,3.0,1994.794471887872,1.0,1.0,phase_3,,,,,220.0,5.0,132.0,44.0,220.0,264.0,88.0,176.0,white,diamond
0.0,7.0,3.0,1.0,7.0,3.0,3426.511846948415,1.0,1.0,phase_3,,,,,132.0,3.0,44.0,220.0,132.0,88.0,264.0,176.0,green,cross
0.0,2.0,2.0,0.0,7.0,5.0,2367.1024821233004,1.0,1.0,phase_3,,,,,170.0,5.0,34.0,68.0,102.0,204.0,170.0,136.0,orange,I
0.0,4.0,4.0,0.0,7.0,1.0,1421.617909101769,1.0,1.0,phase_3,,,,,234.0,6.0,234.0,117.0,195.0,78.0,39.0,156.0,white,diamond
0.0,4.0,4.0,0.0,7.0,4.0,3566.489830845967,1.0,1.0,phase_3,,,,,270.0,5.0,216.0,324.0,108.0,270.0,162.0,54.0,white,diamond
0.0,3.0,3.0,0.0,7.0,6.0,3194.886500015855,1.0,1.0,phase_3,,,,,170.0,5.0,136.0,102.0,204.0,34.0,68.0,170.0,yellow,flipped triangle
0.0,5.0,1.0,1.0,7.0,4.0,1812.1213961858305,1.0,1.0,phase_3,,,,,170.0,5.0,204.0,136.0,68.0,170.0,102.0,34.0,magenta,triangle
0.0,1.0,1.0,0.0,7.0,4.0,2013.169517973438,1.0,1.0,phase_3,,,,,234.0,6.0,195.0,156.0,39.0,234.0,117.0,78.0,blue,square
0.0,8.0,4.0,1.0,7.0,2.0,3133.100386941805,1.0,1.0,phase_3,,,,,176.0,4.0,88.0,176.0,132.0,220.0,44.0,264.0,cyan,hexagon
0.0,3.0,3.0,0.0,7.0,2.0,1238.8807230163366,1.0,1.0,phase_3,,,,,204.0,6.0,136.0,204.0,102.0,34.0,68.0,170.0,yellow,flipped triangle
0.0,6.0,2.0,1.0,7.0,4.0,1643.53939704597,1.0,1.0,phase_3,,,,,234.0,6.0,156.0,195.0,78.0,234.0,117.0,39.0,gray,circle
0.0,3.0,3.0,0.0,7.0,5.0,2219.942355062813,1.0,1.0,phase_3,,,,,196.0,4.0,147.0,98.0,49.0,245.0,196.0,294.0,yellow,flipped triangle
0.0,1.0,1.0,0.0,7.0,3.0,1988.819110905752,1.0,1.0,phase_3,,,,,34.0,1.0,170.0,102.0,34.0,68.0,204.0,136.0,blue,square
0.0,7.0,3.0,1.0,7.0,1.0,1820.423671975732,1.0,1.0,phase_3,,,,,204.0,6.0,204.0,136.0,170.0,68.0,34.0,102.0,green,cross
0.0,3.0,3.0,0.0,7.0,2.0,2228.8363000843674,1.0,1.0,phase_3,,,,,270.0,5.0,162.0,270.0,216.0,324.0,108.0,54.0,yellow,flipped triangle
0.0,4.0,4.0,0.0,7.0,5.0,1453.8503210060298,1.0,1.0,phase_3,,,,,102.0,3.0,136.0,34.0,68.0,204.0,102.0,170.0,white,diamond
0.0,6.0,2.0,1.0,7.0,4.0,1809.9569438491017,1.0,1.0,phase_3,,,,,195.0,5.0,234.0,39.0,78.0,195.0,156.0,117.0,gray,circle
0.0,5.0,1.0,1.0,7.0,6.0,2026.982996147126,1.0,1.0,phase_3,,,,,220.0,5.0,88.0,264.0,132.0,176.0,44.0,220.0,magenta,triangle
0.0,2.0,2.0,0.0,7.0,3.0,1446.7738850507883,2.0,1.0,phase_3,,,,,204.0,6.0,68.0,170.0,204.0,102.0,34.0,136.0,orange,I
0.0,4.0,4.0,0.0,7.0,1.0,997.3278150428088,2.0,1.0,phase_3,,,,,220.0,5.0,220.0,132.0,264.0,88.0,176.0,44.0,white,diamond
0.0,7.0,3.0,1.0,7.0,5.0,1025.3158130217344,2.0,1.0,phase_3,,,,,162.0,3.0,270.0,324.0,216.0,108.0,162.0,54.0,green,cross
0.0,6.0,2.0,1.0,7.0,2.0,664.4537709653378,2.0,1.0,phase_3,,,,,204.0,6.0,34.0,204.0,102.0,68.0,170.0,136.0,gray,circle
0.0,2.0,2.0,0.0,7.0,4.0,764.7981881164014,2.0,1.0,phase_3,,,,,195.0,5.0,156.0,117.0,78.0,195.0,39.0,234.0,orange,I
0.0,2.0,2.0,0.0,7.0,5.0,522.632498992607,2.0,1.0,phase_3,,,,,196.0,4.0,147.0,98.0,294.0,49.0,196.0,245.0,orange,I
0.0,8.0,4.0,1.0,7.0,4.0,1844.1542200744152,2.0,1.0,phase_3,,,,,245.0,5.0,147.0,196.0,49.0,245.0,294.0,98.0,cyan,hexagon
0.0,1.0,1.0,0.0,7.0,2.0,1519.3086580839008,2.0,1.0,phase_3,,,,,216.0,4.0,324.0,216.0,108.0,162.0,270.0,54.0,blue,square
0.0,1.0,1.0,0.0,7.0,4.0,622.8524190373719,2.0,1.0,phase_3,,,,,34.0,1.0,136.0,170.0,102.0,34.0,68.0,204.0,blue,square
0.0,7.0,3.0,1.0,7.0,6.0,424.37764396891,2.0,1.0,phase_3,,,,,117.0,3.0,234.0,195.0,156.0,78.0,39.0,117.0,green,cross
0.0,5.0,1.0,1.0,7.0,3.0,1515.5683860648423,2.0,1.0,phase_3,,,,,294.0,6.0,49.0,147.0,294.0,245.0,196.0,98.0,magenta,triangle
0.0,6.0,2.0,1.0,7.0,2.0,446.6310299467295,2.0,1.0,phase_3,,,,,136.0,4.0,204.0,136.0,68.0,102.0,170.0,34.0,gray,circle
0.0,8.0,4.0,1.0,7.0,4.0,628.0828870367259,2.0,1.0,phase_3,,,,,324.0,6.0,162.0,54.0,270.0,324.0,216.0,108.0,cyan,hexagon
0.0,6.0,2.0,1.0,7.0,2.0,1912.7911950927228,2.0,1.0,phase_3,,,,,216.0,4.0,324.0,216.0,162.0,54.0,270.0,108.0,gray,circle
0.0,2.0,2.0,0.0,7.0,4.0,601.0816800408065,2.0,1.0,phase_3,,,,,147.0,3.0,245.0,49.0,98.0,147.0,196.0,294.0,orange,I
0.0,3.0,3.0,0.0,7.0,5.0,425.3102869261056,2.0,1.0,phase_3,,,,,234.0,6.0,78.0,195.0,156.0,39.0,234.0,117.0,yellow,flipped triangle
0.0,4.0,4.0,0.0,7.0,6.0,1169.9882689863443,2.0,1.0,phase_3,,,,,34.0,1.0,136.0,204.0,170.0,102.0,68.0,34.0,white,diamond
0.0,2.0,2.0,0.0,7.0,2.0,756.2488098628819,2.0,1.0,phase_3,,,,,195.0,5.0,234.0,195.0,78.0,117.0,156.0,39.0,orange,I
0.0,7.0,3.0,1.0,7.0,4.0,1245.3318978659809,2.0,1.0,phase_3,,,,,49.0,1.0,294.0,98.0,147.0,49.0,245.0,196.0,green,cross
0.0,4.0,4.0,0.0,7.0,5.0,465.0392481125891,2.0,1.0,phase_3,,,,,294.0,6.0,147.0,49.0,98.0,196.0,294.0,245.0,white,diamond
0.0,3.0,3.0,0.0,7.0,5.0,501.6920829657465,3.0,1.0,phase_3,,,,,216.0,4.0,162.0,324.0,270.0,54.0,216.0,108.0,yellow,flipped triangle
0.0,5.0,1.0,1.0,7.0,2.0,362.1778490487486,3.0,1.0,phase_3,,,,,78.0,2.0,156.0,78.0,39.0,117.0,195.0,234.0,magenta,triangle
0.0,8.0,4.0,1.0,7.0,5.0,882.0892120711505,3.0,1.0,phase_3,,,,,102.0,3.0,34.0,204.0,170.0,68.0,102.0,136.0,cyan,hexagon
0.0,1.0,1.0,0.0,7.0,6.0,417.4494419712573,3.0,1.0,phase_3,,,,,176.0,4.0,44.0,264.0,88.0,132.0,220.0,176.0,blue,square
0.0,2.0,2.0,0.0,7.0,1.0,331.3149029854685,3.0,1.0,phase_3,,,,,176.0,4.0,176.0,88.0,132.0,264.0,220.0,44.0,orange,I
0.0,6.0,2.0,1.0,7.0,5.0,344.6175740100443,3.0,1.0,phase_3,,,,,176.0,4.0,44.0,220.0,132.0,88.0,176.0,264.0,gray,circle
0.0,4.0,4.0,0.0,7.0,6.0,361.6090659052133,3.0,1.0,phase_3,,,,,245.0,5.0,49.0,196.0,147.0,98.0,294.0,245.0,white,diamond
0.0,6.0,2.0,1.0,7.0,2.0,530.3039501886815,3.0,1.0,phase_3,,,,,176.0,4.0,264.0,176.0,88.0,44.0,132.0,220.0,gray,circle
0.0,5.0,1.0,1.0,7.0,5.0,594.4722229614854,3.0,1.0,phase_3,,,,,54.0,1.0,216.0,108.0,270.0,324.0,54.0,162.0,magenta,triangle
0.0,3.0,3.0,0.0,7.0,4.0,459.5824850257486,3.0,1.0,phase_3,,,,,132.0,3.0,220.0,264.0,176.0,132.0,88.0,44.0,yellow,flipped triangle
0.0,1.0,1.0,0.0,7.0,5.0,507.4328319169581,3.0,1.0,phase_3,,,,,54.0,1.0,108.0,216.0,162.0,270.0,54.0,324.0,blue,square
0.0,8.0,4.0,1.0,7.0,2.0,677.0572869572788,3.0,1.0,phase_3,,,,,136.0,4.0,34.0,136.0,204.0,102.0,68.0,170.0,cyan,hexagon
0.0,6.0,2.0,1.0,7.0,6.0,781.7583379801363,3.0,1.0,phase_3,,,,,49.0,1.0,245.0,294.0,147.0,98.0,196.0,49.0,gray,circle
0.0,1.0,1.0,0.0,7.0,5.0,759.4183781184256,3.0,1.0,phase_3,,,,,176.0,4.0,220.0,132.0,88.0,44.0,176.0,264.0,blue,square
0.0,5.0,1.0,1.0,7.0,1.0,410.7976860832423,3.0,1.0,phase_3,,,,,294.0,6.0,294.0,147.0,49.0,245.0,196.0,98.0,magenta,triangle
0.0,8.0,4.0,1.0,7.0,5.0,466.3175018504262,3.0,1.0,phase_3,,,,,39.0,1.0,234.0,156.0,117.0,78.0,39.0,195.0,cyan,hexagon
0.0,7.0,3.0,1.0,7.0,1.0,796.8962448649108,3.0,1.0,phase_3,,,,,156.0,4.0,156.0,78.0,39.0,234.0,117.0,195.0,green,cross
0.0,7.0,3.0,1.0,7.0,5.0,1053.0278678052127,3.0,1.0,phase_3,,,,,136.0,4.0,34.0,68.0,170.0,204.0,136.0,102.0,green,cross
0.0,1.0,1.0,0.0,7.0,3.0,1721.1927170865238,3.0,1.0,phase_3,,,,,245.0,5.0,196.0,294.0,245.0,147.0,49.0,98.0,blue,square
0.0,3.0,3.0,0.0,7.0,2.0,1016.8520179577172,3.0,1.0,phase_3,,,,,220.0,5.0,132.0,220.0,264.0,44.0,88.0,176.0,yellow,flipped triangle
0.0,2.0,2.0,0.0,7.0,5.0,956.6133900079876,4.0,1.0,phase_3,,,,,270.0,5.0,216.0,108.0,162.0,324.0,270.0,54.0,orange,I
0.0,6.0,2.0,1.0,7.0,5.0,878.0271001160145,4.0,1.0,phase_3,,,,,196.0,4.0,245.0,147.0,49.0,294.0,196.0,98.0,gray,circle
0.0,5.0,1.0,1.0,7.0,4.0,765.5577990226448,4.0,1.0,phase_3,,,,,234.0,6.0,156.0,195.0,39.0,234.0,117.0,78.0,magenta,triangle
0.0,5.0,1.0,1.0,7.0,1.0,797.5113599095494,4.0,1.0,phase_3,,,,,136.0,4.0,136.0,102.0,204.0,68.0,170.0,34.0,magenta,triangle
0.0,1.0,1.0,0.0,7.0,4.0,608.4123810287565,4.0,1.0,phase_3,,,,,39.0,1.0,78.0,156.0,234.0,39.0,117.0,195.0,blue,square
0.0,2.0,2.0,0.0,7.0,1.0,985.8676481526344,4.0,1.0,phase_3,,,,,216.0,4.0,216.0,108.0,54.0,270.0,162.0,324.0,orange,I
0.0,7.0,3.0,1.0,7.0,4.0,1499.9391809105873,4.0,1.0,phase_3,,,,,264.0,6.0,44.0,220.0,132.0,264.0,88.0,176.0,green,cross
0.0,5.0,1.0,1.0,7.0,2.0,1858.68053114973,4.0,1.0,phase_3,,,,,176.0,4.0,220.0,176.0,44.0,88.0,264.0,132.0,magenta,triangle
0.0,1.0,1.0,0.0,7.0,6.0,1590.0447010062635,4.0,1.0,phase_3,,,,,294.0,6.0,98.0,196.0,147.0,49.0,245.0,294.0,blue,square
0.0,6.0,2.0,1.0,7.0,2.0,789.5470249932259,4.0,1.0,phase_3,,,,,324.0,6.0,162.0,324.0,270.0,108.0,54.0,216.0,gray,circle
0.0,5.0,1.0,1.0,7.0,4.0,383.3883369807154,4.0,1.0,phase_3,,,,,54.0,1.0,162.0,108.0,216.0,54.0,270.0,324.0,magenta,triangle
0.0,7.0,3.0,1.0,7.0,6.0,497.5229669362306,4.0,1.0,phase_3,,,,,324.0,6.0,54.0,270.0,162.0,108.0,216.0,324.0,green,cross
0.0,4.0,4.0,0.0,7.0,3.0,333.1152480095625,4.0,1.0,phase_3,,,,,234.0,6.0,195.0,39.0,234.0,156.0,78.0,117.0,white,diamond
0.0,4.0,4.0,0.0,7.0,5.0,613.2646622136235,4.0,1.0,phase_3,,,,,162.0,3.0,324.0,270.0,108.0,216.0,162.0,54.0,white,diamond
0.0,7.0,3.0,1.0,7.0,2.0,941.001099999994,4.0,1.0,phase_3,,,,,294.0,6.0,147.0,294.0,49.0,98.0,245.0,196.0,green,cross
0.0,3.0,3.0,0.0,7.0,5.0,1081.7597559653225,4.0,1.0,phase_3,,,,,147.0,3.0,294.0,196.0,245.0,98.0,147.0,49.0,yellow,flipped triangle
0.0,8.0,4.0,1.0,7.0,4.0,977.473952807486,4.0,1.0,phase_3,,,,,88.0,2.0,44.0,264.0,132.0,88.0,176.0,220.0,cyan,hexagon
0.0,2.0,2.0,0.0,7.0,5.0,682.4211338534951,4.0,1.0,phase_3,,,,,176.0,4.0,220.0,44.0,88.0,264.0,176.0,132.0,orange,I
0.0,3.0,3.0,0.0,7.0,3.0,1300.5390141624955,4.0,1.0,phase_3,,,,,195.0,5.0,117.0,234.0,195.0,39.0,156.0,78.0,yellow,flipped triangle
0.0,8.0,4.0,1.0,7.0,6.0,1355.898974230513,4.0,1.0,phase_3,,,,,162.0,3.0,108.0,216.0,324.0,270.0,54.0,162.0,cyan,hexagon
