raw_reward_magnitude,stim_reward,stepwise_reward_magnitude,paired_with_stopping,stim_location,response,reaction_time,block,num_trial_presentations,which_phase,stop_signal_trial_type,left_SSD,right_SSD,accuracy,chosen_bidding_amount,chosen_bidding_level,possible_bid_1,possible_bid_2,possible_bid_3,possible_bid_4,possible_bid_5,possible_bid_6,color_text,shape_text
28.0,1.0,0.5,0.0,4.0,4.0,330.8386041317135,1.0,1.0,phase_1,,,,,,,,,,,,,blue,diamond
117.0,6.0,1.0,1.0,1.0,1.0,309.0789669658988,1.0,1.0,phase_1,,,,,,,,,,,,,yellow,triangle
185.0,3.0,2.0,0.0,2.0,2.0,329.4769281055778,1.0,1.0,phase_1,,,,,,,,,,,,,magenta,cross
0.0,7.0,0.0,1.0,1.0,1.0,297.9421380441636,1.0,1.0,phase_1,,,,,,,,,,,,,white,hexagon
0.0,6.0,0.0,1.0,3.0,3.0,343.0231940001249,1.0,1.0,phase_1,,,,,,,,,,,,,yellow,triangle
388.0,4.0,4.0,0.0,3.0,3.0,383.7208431214094,1.0,1.0,phase_1,,,,,,,,,,,,,gray,square
398.0,4.0,4.0,0.0,1.0,1.0,292.3233720939606,1.0,1.0,phase_1,,,,,,,,,,,,,gray,square
74.0,5.0,0.5,1.0,1.0,1.0,346.9653229694813,1.0,1.0,phase_1,,,,,,,,,,,,,green,flipped triangle
0.0,3.0,0.0,0.0,1.0,1.0,358.6915931664407,1.0,1.0,phase_1,,,,,,,,,,,,,magenta,cross
81.0,6.0,1.0,1.0,3.0,3.0,330.0839699804783,1.0,1.0,phase_1,,,,,,,,,,,,,yellow,triangle
0.0,3.0,0.0,0.0,2.0,2.0,391.1750430706888,1.0,1.0,phase_1,,,,,,,,,,,,,magenta,cross
0.0,4.0,0.0,0.0,2.0,2.0,380.1825731061399,1.0,1.0,phase_1,,,,,,,,,,,,,gray,square
398.0,8.0,4.0,1.0,1.0,1.0,372.238177806139,1.0,1.0,phase_1,,,,,,,,,,,,,cyan,I
0.0,8.0,0.0,1.0,1.0,1.0,301.1880109552294,1.0,1.0,phase_1,,,,,,,,,,,,,cyan,I
200.0,3.0,2.0,0.0,1.0,1.0,249.4627840351313,1.0,1.0,phase_1,,,,,,,,,,,,,magenta,cross
0.0,5.0,0.0,1.0,4.0,4.0,368.1000631768256,1.0,1.0,phase_1,,,,,,,,,,,,,green,flipped triangle
410.0,8.0,4.0,1.0,3.0,3.0,355.2063268143683,1.0,1.0,phase_1,,,,,,,,,,,,,cyan,I
56.0,5.0,0.5,1.0,2.0,2.0,484.3517439439893,1.0,2.0,phase_1,,,,,,,,,,,,,green,flipped triangle
202.0,3.0,2.0,0.0,1.0,1.0,379.1549811139703,1.0,1.0,phase_1,,,,,,,,,,,,,magenta,cross
124.0,2.0,1.0,0.0,2.0,2.0,432.439130032435,1.0,1.0,phase_1,,,,,,,,,,,,,orange,circle
418.0,8.0,4.0,1.0,2.0,2.0,347.4184039514512,1.0,1.0,phase_1,,,,,,,,,,,,,cyan,I
384.0,8.0,4.0,1.0,2.0,2.0,298.0596399866044,1.0,1.0,phase_1,,,,,,,,,,,,,cyan,I
105.0,2.0,1.0,0.0,2.0,2.0,372.6743969600647,1.0,1.0,phase_1,,,,,,,,,,,,,orange,circle
211.0,3.0,2.0,0.0,1.0,1.0,379.0358400437981,1.0,1.0,phase_1,,,,,,,,,,,,,magenta,cross
0.0,4.0,0.0,0.0,2.0,2.0,334.0166308917105,1.0,1.0,phase_1,,,,,,,,,,,,,gray,square
53.0,5.0,0.5,1.0,4.0,4.0,316.4543888997286,1.0,1.0,phase_1,,,,,,,,,,,,,green,flipped triangle
49.0,1.0,0.5,0.0,1.0,1.0,384.8959759343415,1.0,1.0,phase_1,,,,,,,,,,,,,blue,diamond
185.0,3.0,2.0,0.0,2.0,2.0,339.0519309323281,1.0,1.0,phase_1,,,,,,,,,,,,,magenta,cross
0.0,6.0,0.0,1.0,4.0,4.0,363.7848570942879,1.0,1.0,phase_1,,,,,,,,,,,,,yellow,triangle
424.0,4.0,4.0,0.0,3.0,3.0,356.6859371494502,1.0,1.0,phase_1,,,,,,,,,,,,,gray,square
209.0,7.0,2.0,1.0,3.0,3.0,331.6190419718623,1.0,1.0,phase_1,,,,,,,,,,,,,white,hexagon
56.0,1.0,0.5,0.0,3.0,3.0,334.4378659967333,1.0,1.0,phase_1,,,,,,,,,,,,,blue,diamond
32.0,1.0,0.5,0.0,1.0,1.0,308.3937850315124,1.0,1.0,phase_1,,,,,,,,,,,,,blue,diamond
175.0,3.0,2.0,0.0,1.0,1.0,338.7553570792079,1.0,1.0,phase_1,,,,,,,,,,,,,magenta,cross
213.0,3.0,2.0,0.0,4.0,4.0,367.4487019889056,1.0,1.0,phase_1,,,,,,,,,,,,,magenta,cross
67.0,1.0,0.5,0.0,2.0,2.0,289.3638079985976,1.0,1.0,phase_1,,,,,,,,,,,,,blue,diamond
41.0,1.0,0.5,0.0,1.0,1.0,254.33648098260159,1.0,1.0,phase_1,,,,,,,,,,,,,blue,diamond
61.0,1.0,0.5,0.0,4.0,4.0,318.3519979938864,1.0,1.0,phase_1,,,,,,,,,,,,,blue,diamond
405.0,8.0,4.0,1.0,1.0,1.0,338.0241359118372,1.0,1.0,phase_1,,,,,,,,,,,,,cyan,I
424.0,8.0,4.0,1.0,3.0,3.0,284.7319717984646,1.0,1.0,phase_1,,,,,,,,,,,,,cyan,I
388.0,4.0,4.0,0.0,3.0,3.0,338.3845330681652,1.0,1.0,phase_1,,,,,,,,,,,,,gray,square
179.0,7.0,2.0,1.0,4.0,4.0,303.7423240020871,1.0,1.0,phase_1,,,,,,,,,,,,,white,hexagon
31.0,5.0,0.5,1.0,2.0,2.0,291.0816739313304,1.0,1.0,phase_1,,,,,,,,,,,,,green,flipped triangle
413.0,8.0,4.0,1.0,1.0,1.0,294.0704729408026,1.0,1.0,phase_1,,,,,,,,,,,,,cyan,I
49.0,5.0,0.5,1.0,1.0,1.0,349.9001399613917,1.0,1.0,phase_1,,,,,,,,,,,,,green,flipped triangle
0.0,2.0,0.0,0.0,4.0,4.0,289.4855551421642,1.0,1.0,phase_1,,,,,,,,,,,,,orange,circle
410.0,4.0,4.0,0.0,3.0,3.0,326.3509240932762,1.0,1.0,phase_1,,,,,,,,,,,,,gray,square
193.0,3.0,2.0,0.0,2.0,2.0,353.2823680434376,1.0,1.0,phase_1,,,,,,,,,,,,,magenta,cross
0.0,1.0,0.0,0.0,4.0,4.0,285.911122104153,1.0,1.0,phase_1,,,,,,,,,,,,,blue,diamond
202.0,7.0,2.0,1.0,3.0,3.0,310.29366212897,1.0,1.0,phase_1,,,,,,,,,,,,,white,hexagon
378.0,8.0,4.0,1.0,3.0,3.0,264.5936878398061,1.0,1.0,phase_1,,,,,,,,,,,,,cyan,I
115.0,6.0,1.0,1.0,2.0,2.0,317.5683899316937,1.0,1.0,phase_1,,,,,,,,,,,,,yellow,triangle
201.0,7.0,2.0,1.0,3.0,3.0,322.3947349470109,1.0,1.0,phase_1,,,,,,,,,,,,,white,hexagon
0.0,4.0,0.0,0.0,3.0,3.0,313.0143429152667,1.0,1.0,phase_1,,,,,,,,,,,,,gray,square
0.0,3.0,0.0,0.0,2.0,2.0,284.8608570639044,1.0,1.0,phase_1,,,,,,,,,,,,,magenta,cross
36.0,5.0,0.5,1.0,4.0,4.0,354.322373168543,1.0,1.0,phase_1,,,,,,,,,,,,,green,flipped triangle
53.0,1.0,0.5,0.0,1.0,1.0,269.6689530275762,1.0,1.0,phase_1,,,,,,,,,,,,,blue,diamond
65.0,1.0,0.5,0.0,2.0,2.0,272.0739590004086,1.0,1.0,phase_1,,,,,,,,,,,,,blue,diamond
98.0,2.0,1.0,0.0,3.0,3.0,300.8487338665873,1.0,1.0,phase_1,,,,,,,,,,,,,orange,circle
36.0,1.0,0.5,0.0,2.0,2.0,268.104868941009,1.0,1.0,phase_1,,,,,,,,,,,,,blue,diamond
225.0,3.0,2.0,0.0,1.0,1.0,288.1821489427238,1.0,1.0,phase_1,,,,,,,,,,,,,magenta,cross
225.0,3.0,2.0,0.0,2.0,2.0,317.7571389824152,1.0,1.0,phase_1,,,,,,,,,,,,,magenta,cross
375.0,8.0,4.0,1.0,1.0,1.0,377.8648029547184,1.0,1.0,phase_1,,,,,,,,,,,,,cyan,I
218.0,7.0,2.0,1.0,4.0,4.0,365.9999070223421,1.0,1.0,phase_1,,,,,,,,,,,,,white,hexagon
418.0,4.0,4.0,0.0,1.0,1.0,251.6375849954784,1.0,1.0,phase_1,,,,,,,,,,,,,gray,square
199.0,7.0,2.0,1.0,4.0,4.0,335.9652641229331,1.0,1.0,phase_1,,,,,,,,,,,,,white,hexagon
0.0,7.0,0.0,1.0,3.0,3.0,366.2358219735324,1.0,1.0,phase_1,,,,,,,,,,,,,white,hexagon
382.0,8.0,4.0,1.0,2.0,2.0,343.095351010561,1.0,1.0,phase_1,,,,,,,,,,,,,cyan,I
192.0,3.0,2.0,0.0,3.0,3.0,291.5197219699621,1.0,1.0,phase_1,,,,,,,,,,,,,magenta,cross
47.0,5.0,0.5,1.0,4.0,4.0,307.3107518721372,1.0,1.0,phase_1,,,,,,,,,,,,,green,flipped triangle
46.0,5.0,0.5,1.0,3.0,3.0,303.6410268396139,1.0,1.0,phase_1,,,,,,,,,,,,,green,flipped triangle
0.0,6.0,0.0,1.0,2.0,2.0,276.8487790599465,1.0,1.0,phase_1,,,,,,,,,,,,,yellow,triangle
0.0,2.0,0.0,0.0,3.0,3.0,311.1177620012313,1.0,1.0,phase_1,,,,,,,,,,,,,orange,circle
413.0,4.0,4.0,0.0,4.0,4.0,367.3075309488922,1.0,1.0,phase_1,,,,,,,,,,,,,gray,square
114.0,6.0,1.0,1.0,3.0,3.0,337.6271629240364,1.0,1.0,phase_1,,,,,,,,,,,,,yellow,triangle
221.0,7.0,2.0,1.0,4.0,4.0,277.096239849925,1.0,1.0,phase_1,,,,,,,,,,,,,white,hexagon
0.0,1.0,0.0,0.0,3.0,3.0,281.0774310491979,1.0,1.0,phase_1,,,,,,,,,,,,,blue,diamond
0.0,8.0,0.0,1.0,1.0,1.0,286.8854000698775,1.0,1.0,phase_1,,,,,,,,,,,,,cyan,I
0.0,7.0,0.0,1.0,3.0,3.0,388.5870990343392,1.0,1.0,phase_1,,,,,,,,,,,,,white,hexagon
404.0,4.0,4.0,0.0,3.0,3.0,272.3768658470362,1.0,1.0,phase_1,,,,,,,,,,,,,gray,square
0.0,2.0,0.0,0.0,3.0,3.0,269.300052896142,1.0,1.0,phase_1,,,,,,,,,,,,,orange,circle
125.0,6.0,1.0,1.0,2.0,2.0,292.3343551810831,1.0,1.0,phase_1,,,,,,,,,,,,,yellow,triangle
52.0,1.0,0.5,0.0,2.0,2.0,296.7711279634386,1.0,1.0,phase_1,,,,,,,,,,,,,blue,diamond
197.0,3.0,2.0,0.0,4.0,4.0,333.5483390837908,1.0,1.0,phase_1,,,,,,,,,,,,,magenta,cross
0.0,8.0,0.0,1.0,4.0,4.0,305.6427170522511,1.0,1.0,phase_1,,,,,,,,,,,,,cyan,I
409.0,8.0,4.0,1.0,1.0,1.0,301.0573689825833,1.0,1.0,phase_1,,,,,,,,,,,,,cyan,I
82.0,6.0,1.0,1.0,3.0,3.0,280.6759420782327,1.0,1.0,phase_1,,,,,,,,,,,,,yellow,triangle
0.0,3.0,0.0,0.0,4.0,4.0,302.6443261187523,1.0,1.0,phase_1,,,,,,,,,,,,,magenta,cross
0.0,2.0,0.0,0.0,3.0,3.0,316.6486949194222,1.0,1.0,phase_1,,,,,,,,,,,,,orange,circle
99.0,2.0,1.0,0.0,4.0,4.0,262.0915020816028,1.0,1.0,phase_1,,,,,,,,,,,,,orange,circle
208.0,7.0,2.0,1.0,1.0,1.0,435.3394419886172,1.0,1.0,phase_1,,,,,,,,,,,,,white,hexagon
397.0,4.0,4.0,0.0,4.0,4.0,306.143487105146,1.0,1.0,phase_1,,,,,,,,,,,,,gray,square
0.0,8.0,0.0,1.0,2.0,2.0,375.5949609912932,1.0,1.0,phase_1,,,,,,,,,,,,,cyan,I
213.0,7.0,2.0,1.0,1.0,1.0,250.74344594031572,1.0,1.0,phase_1,,,,,,,,,,,,,white,hexagon
0.0,1.0,0.0,0.0,1.0,1.0,398.5445690341294,1.0,1.0,phase_1,,,,,,,,,,,,,blue,diamond
190.0,7.0,2.0,1.0,4.0,4.0,322.961991885677,1.0,1.0,phase_1,,,,,,,,,,,,,white,hexagon
423.0,4.0,4.0,0.0,1.0,1.0,318.8105560839176,1.0,1.0,phase_1,,,,,,,,,,,,,gray,square
56.0,1.0,0.5,0.0,2.0,2.0,346.2538460735231,1.0,2.0,phase_1,,,,,,,,,,,,,blue,diamond
76.0,2.0,1.0,0.0,1.0,1.0,359.7880450543016,1.0,1.0,phase_1,,,,,,,,,,,,,orange,circle
101.0,6.0,1.0,1.0,4.0,4.0,290.2066418901086,1.0,1.0,phase_1,,,,,,,,,,,,,yellow,triangle
77.0,2.0,1.0,0.0,4.0,4.0,354.9250580836087,2.0,1.0,phase_1,,,,,,,,,,,,,orange,circle
392.0,8.0,4.0,1.0,2.0,2.0,305.6324878707528,2.0,1.0,phase_1,,,,,,,,,,,,,cyan,I
28.0,5.0,0.5,1.0,4.0,4.0,277.157706907019,2.0,1.0,phase_1,,,,,,,,,,,,,green,flipped triangle
30.0,1.0,0.5,0.0,3.0,3.0,383.7325470522046,2.0,1.0,phase_1,,,,,,,,,,,,,blue,diamond
0.0,1.0,0.0,0.0,1.0,1.0,285.9183130785823,2.0,1.0,phase_1,,,,,,,,,,,,,blue,diamond
62.0,1.0,0.5,0.0,4.0,4.0,312.7765988465398,2.0,1.0,phase_1,,,,,,,,,,,,,blue,diamond
185.0,7.0,2.0,1.0,3.0,3.0,317.8774248808622,2.0,1.0,phase_1,,,,,,,,,,,,,white,hexagon
213.0,7.0,2.0,1.0,3.0,3.0,307.1416888851672,2.0,1.0,phase_1,,,,,,,,,,,,,white,hexagon
104.0,2.0,1.0,0.0,1.0,1.0,342.8063269238919,2.0,2.0,phase_1,,,,,,,,,,,,,orange,circle
0.0,6.0,0.0,1.0,4.0,4.0,384.3176320660859,2.0,1.0,phase_1,,,,,,,,,,,,,yellow,triangle
96.0,2.0,1.0,0.0,1.0,1.0,360.0958758033812,2.0,1.0,phase_1,,,,,,,,,,,,,orange,circle
0.0,8.0,0.0,1.0,4.0,4.0,378.728446085006,2.0,1.0,phase_1,,,,,,,,,,,,,cyan,I
211.0,7.0,2.0,1.0,2.0,2.0,399.9568489380181,2.0,1.0,phase_1,,,,,,,,,,,,,white,hexagon
182.0,7.0,2.0,1.0,1.0,1.0,333.760601002723,2.0,1.0,phase_1,,,,,,,,,,,,,white,hexagon
68.0,5.0,0.5,1.0,3.0,3.0,275.5422729533165,2.0,1.0,phase_1,,,,,,,,,,,,,green,flipped triangle
0.0,1.0,0.0,0.0,4.0,4.0,293.7248549424112,2.0,1.0,phase_1,,,,,,,,,,,,,blue,diamond
392.0,8.0,4.0,1.0,2.0,2.0,353.6708371248096,2.0,1.0,phase_1,,,,,,,,,,,,,cyan,I
92.0,2.0,1.0,0.0,2.0,2.0,358.6909519508481,2.0,1.0,phase_1,,,,,,,,,,,,,orange,circle
0.0,2.0,0.0,0.0,1.0,1.0,290.7306679990142,2.0,1.0,phase_1,,,,,,,,,,,,,orange,circle
392.0,8.0,4.0,1.0,1.0,1.0,385.1573860738426,2.0,1.0,phase_1,,,,,,,,,,,,,cyan,I
47.0,1.0,0.5,0.0,3.0,3.0,363.9653669670224,2.0,1.0,phase_1,,,,,,,,,,,,,blue,diamond
65.0,5.0,0.5,1.0,1.0,1.0,288.975992007181,2.0,1.0,phase_1,,,,,,,,,,,,,green,flipped triangle
73.0,1.0,0.5,0.0,4.0,4.0,273.1935640331357,2.0,1.0,phase_1,,,,,,,,,,,,,blue,diamond
213.0,3.0,2.0,0.0,3.0,3.0,435.8764691278338,2.0,1.0,phase_1,,,,,,,,,,,,,magenta,cross
0.0,7.0,0.0,1.0,3.0,3.0,272.7596871554851,2.0,1.0,phase_1,,,,,,,,,,,,,white,hexagon
0.0,3.0,0.0,0.0,2.0,2.0,300.4581308923661,2.0,1.0,phase_1,,,,,,,,,,,,,magenta,cross
403.0,8.0,4.0,1.0,2.0,2.0,427.1430219523608,2.0,1.0,phase_1,,,,,,,,,,,,,cyan,I
388.0,8.0,4.0,1.0,3.0,3.0,405.48703703098,2.0,1.0,phase_1,,,,,,,,,,,,,cyan,I
388.0,8.0,4.0,1.0,4.0,4.0,337.4129221774637,2.0,1.0,phase_1,,,,,,,,,,,,,cyan,I
100.0,6.0,1.0,1.0,1.0,1.0,350.9360919706523,2.0,1.0,phase_1,,,,,,,,,,,,,yellow,triangle
62.0,1.0,0.5,0.0,3.0,3.0,325.247187865898,2.0,1.0,phase_1,,,,,,,,,,,,,blue,diamond
32.0,5.0,0.5,1.0,1.0,1.0,273.6339140683412,2.0,1.0,phase_1,,,,,,,,,,,,,green,flipped triangle
0.0,5.0,0.0,1.0,4.0,4.0,285.2845119778067,2.0,1.0,phase_1,,,,,,,,,,,,,green,flipped triangle
104.0,6.0,1.0,1.0,2.0,2.0,248.7774700857699,2.0,1.0,phase_1,,,,,,,,,,,,,yellow,triangle
0.0,2.0,0.0,0.0,4.0,4.0,317.8209690377116,2.0,1.0,phase_1,,,,,,,,,,,,,orange,circle
392.0,4.0,4.0,0.0,2.0,2.0,434.2243431601673,2.0,1.0,phase_1,,,,,,,,,,,,,gray,square
116.0,2.0,1.0,0.0,2.0,2.0,391.0977630876004,2.0,1.0,phase_1,,,,,,,,,,,,,orange,circle
91.0,6.0,1.0,1.0,2.0,2.0,318.2536249514669,2.0,1.0,phase_1,,,,,,,,,,,,,yellow,triangle
66.0,1.0,0.5,0.0,4.0,4.0,464.3326289951801,2.0,1.0,phase_1,,,,,,,,,,,,,blue,diamond
393.0,4.0,4.0,0.0,2.0,2.0,423.5143540427089,2.0,1.0,phase_1,,,,,,,,,,,,,gray,square
81.0,2.0,1.0,0.0,4.0,4.0,492.9797518998384,2.0,1.0,phase_1,,,,,,,,,,,,,orange,circle
106.0,6.0,1.0,1.0,3.0,3.0,392.0498071238398,2.0,1.0,phase_1,,,,,,,,,,,,,yellow,triangle
115.0,2.0,1.0,0.0,2.0,2.0,434.7280578222126,2.0,1.0,phase_1,,,,,,,,,,,,,orange,circle
396.0,8.0,4.0,1.0,3.0,3.0,475.3244151361286,2.0,1.0,phase_1,,,,,,,,,,,,,cyan,I
76.0,6.0,1.0,1.0,1.0,1.0,328.0553619842976,2.0,1.0,phase_1,,,,,,,,,,,,,yellow,triangle
225.0,7.0,2.0,1.0,2.0,2.0,304.864794947207,2.0,1.0,phase_1,,,,,,,,,,,,,white,hexagon
61.0,5.0,0.5,1.0,1.0,1.0,333.7897558230907,2.0,1.0,phase_1,,,,,,,,,,,,,green,flipped triangle
375.0,4.0,4.0,0.0,4.0,4.0,562.4805700499564,2.0,1.0,phase_1,,,,,,,,,,,,,gray,square
0.0,7.0,0.0,1.0,1.0,1.0,386.0786641016602,2.0,1.0,phase_1,,,,,,,,,,,,,white,hexagon
407.0,4.0,4.0,0.0,3.0,3.0,316.3504088297486,2.0,1.0,phase_1,,,,,,,,,,,,,gray,square
198.0,7.0,2.0,1.0,3.0,3.0,338.0902800709009,2.0,1.0,phase_1,,,,,,,,,,,,,white,hexagon
378.0,4.0,4.0,0.0,1.0,1.0,317.1796619426459,2.0,1.0,phase_1,,,,,,,,,,,,,gray,square
208.0,3.0,2.0,0.0,1.0,1.0,277.2490060888231,2.0,1.0,phase_1,,,,,,,,,,,,,magenta,cross
92.0,6.0,1.0,1.0,4.0,4.0,439.3398559186607,2.0,1.0,phase_1,,,,,,,,,,,,,yellow,triangle
391.0,8.0,4.0,1.0,1.0,1.0,349.6294200886041,2.0,1.0,phase_1,,,,,,,,,,,,,cyan,I
104.0,2.0,1.0,0.0,2.0,2.0,344.0365709830075,2.0,1.0,phase_1,,,,,,,,,,,,,orange,circle
194.0,3.0,2.0,0.0,1.0,1.0,317.6183549221605,2.0,1.0,phase_1,,,,,,,,,,,,,magenta,cross
105.0,6.0,1.0,1.0,3.0,3.0,339.2068350221962,2.0,1.0,phase_1,,,,,,,,,,,,,yellow,triangle
27.0,1.0,0.5,0.0,4.0,4.0,408.0870139878243,2.0,1.0,phase_1,,,,,,,,,,,,,blue,diamond
81.0,6.0,1.0,1.0,2.0,2.0,298.3589549548924,2.0,1.0,phase_1,,,,,,,,,,,,,yellow,triangle
217.0,7.0,2.0,1.0,1.0,1.0,272.9734531603753,2.0,1.0,phase_1,,,,,,,,,,,,,white,hexagon
0.0,8.0,0.0,1.0,2.0,2.0,374.7953199781477,2.0,1.0,phase_1,,,,,,,,,,,,,cyan,I
123.0,2.0,1.0,0.0,1.0,1.0,289.2066750209778,2.0,1.0,phase_1,,,,,,,,,,,,,orange,circle
407.0,8.0,4.0,1.0,4.0,4.0,374.3398520164192,2.0,1.0,phase_1,,,,,,,,,,,,,cyan,I
0.0,4.0,0.0,0.0,4.0,4.0,310.2655450347811,2.0,1.0,phase_1,,,,,,,,,,,,,gray,square
0.0,6.0,0.0,1.0,3.0,3.0,359.1506711672991,2.0,1.0,phase_1,,,,,,,,,,,,,yellow,triangle
0.0,5.0,0.0,1.0,2.0,2.0,301.4911389909684,2.0,1.0,phase_1,,,,,,,,,,,,,green,flipped triangle
0.0,6.0,0.0,1.0,3.0,3.0,313.6582539882511,2.0,1.0,phase_1,,,,,,,,,,,,,yellow,triangle
181.0,7.0,2.0,1.0,2.0,2.0,268.6391419265419,2.0,1.0,phase_1,,,,,,,,,,,,,white,hexagon
179.0,3.0,2.0,0.0,1.0,1.0,258.4381371270865,2.0,1.0,phase_1,,,,,,,,,,,,,magenta,cross
55.0,5.0,0.5,1.0,2.0,2.0,314.1032429412007,2.0,1.0,phase_1,,,,,,,,,,,,,green,flipped triangle
102.0,6.0,1.0,1.0,1.0,1.0,300.8888021577149,2.0,1.0,phase_1,,,,,,,,,,,,,yellow,triangle
392.0,4.0,4.0,0.0,2.0,2.0,354.1088900528848,2.0,1.0,phase_1,,,,,,,,,,,,,gray,square
41.0,5.0,0.5,1.0,3.0,3.0,332.3096439708024,2.0,1.0,phase_1,,,,,,,,,,,,,green,flipped triangle
413.0,4.0,4.0,0.0,4.0,4.0,413.9744308777153,2.0,2.0,phase_1,,,,,,,,,,,,,gray,square
88.0,2.0,1.0,0.0,3.0,3.0,411.3814518786967,2.0,1.0,phase_1,,,,,,,,,,,,,orange,circle
216.0,7.0,2.0,1.0,2.0,2.0,280.6348609738052,2.0,1.0,phase_1,,,,,,,,,,,,,white,hexagon
88.0,6.0,1.0,1.0,4.0,4.0,372.6317770779133,2.0,1.0,phase_1,,,,,,,,,,,,,yellow,triangle
116.0,6.0,1.0,1.0,4.0,4.0,344.2607850302011,2.0,1.0,phase_1,,,,,,,,,,,,,yellow,triangle
96.0,2.0,1.0,0.0,3.0,3.0,337.1397091541439,2.0,1.0,phase_1,,,,,,,,,,,,,orange,circle
193.0,7.0,2.0,1.0,4.0,4.0,325.9196891449392,2.0,1.0,phase_1,,,,,,,,,,,,,white,hexagon
43.0,1.0,0.5,0.0,3.0,3.0,281.3742849975824,2.0,1.0,phase_1,,,,,,,,,,,,,blue,diamond
36.0,1.0,0.5,0.0,2.0,2.0,275.4437830299139,2.0,1.0,phase_1,,,,,,,,,,,,,blue,diamond
423.0,8.0,4.0,1.0,3.0,3.0,315.1054610498249,2.0,1.0,phase_1,,,,,,,,,,,,,cyan,I
46.0,5.0,0.5,1.0,2.0,2.0,348.6023379955441,2.0,1.0,phase_1,,,,,,,,,,,,,green,flipped triangle
102.0,2.0,1.0,0.0,1.0,1.0,289.9669900070876,2.0,1.0,phase_1,,,,,,,,,,,,,orange,circle
407.0,4.0,4.0,0.0,2.0,2.0,365.8149510156363,2.0,1.0,phase_1,,,,,,,,,,,,,gray,square
192.0,7.0,2.0,1.0,2.0,2.0,301.0913569014519,2.0,1.0,phase_1,,,,,,,,,,,,,white,hexagon
40.0,5.0,0.5,1.0,1.0,1.0,257.993103004992,2.0,1.0,phase_1,,,,,,,,,,,,,green,flipped triangle
398.0,4.0,4.0,0.0,4.0,4.0,326.1759881861508,2.0,1.0,phase_1,,,,,,,,,,,,,gray,square
29.0,1.0,0.5,0.0,2.0,2.0,273.8716411404311,2.0,1.0,phase_1,,,,,,,,,,,,,blue,diamond
0.0,7.0,0.0,1.0,2.0,2.0,303.0442241579294,2.0,1.0,phase_1,,,,,,,,,,,,,white,hexagon
190.0,7.0,2.0,1.0,2.0,2.0,292.7855318412184,2.0,1.0,phase_1,,,,,,,,,,,,,white,hexagon
175.0,3.0,2.0,0.0,4.0,4.0,334.7092440817505,2.0,2.0,phase_1,,,,,,,,,,,,,magenta,cross
122.0,2.0,1.0,0.0,3.0,3.0,480.3314721211791,2.0,1.0,phase_1,,,,,,,,,,,,,orange,circle
100.0,2.0,1.0,0.0,4.0,4.0,407.7349740546196,2.0,1.0,phase_1,,,,,,,,,,,,,orange,circle
42.0,5.0,0.5,1.0,3.0,3.0,354.4141571037471,2.0,1.0,phase_1,,,,,,,,,,,,,green,flipped triangle
0.0,4.0,0.0,0.0,1.0,1.0,414.7545851301402,2.0,1.0,phase_1,,,,,,,,,,,,,gray,square
89.0,6.0,1.0,1.0,4.0,4.0,331.7456599324941,2.0,1.0,phase_1,,,,,,,,,,,,,yellow,triangle
0.0,8.0,0.0,1.0,1.0,1.0,339.1969038639217,2.0,1.0,phase_1,,,,,,,,,,,,,cyan,I
0.0,2.0,0.0,0.0,2.0,2.0,335.406034020707,3.0,1.0,phase_1,,,,,,,,,,,,,orange,circle
424.0,8.0,4.0,1.0,2.0,2.0,331.0673560481518,3.0,1.0,phase_1,,,,,,,,,,,,,cyan,I
209.0,3.0,2.0,0.0,2.0,2.0,314.4718641415238,3.0,1.0,phase_1,,,,,,,,,,,,,magenta,cross
0.0,1.0,0.0,0.0,1.0,1.0,399.2441180162132,3.0,1.0,phase_1,,,,,,,,,,,,,blue,diamond
175.0,7.0,2.0,1.0,1.0,1.0,321.4986848179251,3.0,1.0,phase_1,,,,,,,,,,,,,white,hexagon
43.0,5.0,0.5,1.0,3.0,3.0,320.5538189504295,3.0,1.0,phase_1,,,,,,,,,,,,,green,flipped triangle
0.0,6.0,0.0,1.0,4.0,4.0,411.835215985775,3.0,1.0,phase_1,,,,,,,,,,,,,yellow,triangle
29.0,5.0,0.5,1.0,2.0,2.0,302.9037818778306,3.0,1.0,phase_1,,,,,,,,,,,,,green,flipped triangle
0.0,4.0,0.0,0.0,2.0,2.0,301.5577730257064,3.0,1.0,phase_1,,,,,,,,,,,,,gray,square
91.0,6.0,1.0,1.0,1.0,1.0,323.0272580403834,3.0,1.0,phase_1,,,,,,,,,,,,,yellow,triangle
91.0,2.0,1.0,0.0,3.0,3.0,392.2820801381022,3.0,1.0,phase_1,,,,,,,,,,,,,orange,circle
0.0,8.0,0.0,1.0,4.0,4.0,300.9763660375029,3.0,1.0,phase_1,,,,,,,,,,,,,cyan,I
405.0,4.0,4.0,0.0,2.0,2.0,271.0044952109456,3.0,1.0,phase_1,,,,,,,,,,,,,gray,square
0.0,6.0,0.0,1.0,1.0,1.0,291.9946350157261,3.0,1.0,phase_1,,,,,,,,,,,,,yellow,triangle
0.0,5.0,0.0,1.0,1.0,1.0,304.212920833379,3.0,1.0,phase_1,,,,,,,,,,,,,green,flipped triangle
92.0,6.0,1.0,1.0,2.0,2.0,311.6671540774405,3.0,1.0,phase_1,,,,,,,,,,,,,yellow,triangle
401.0,4.0,4.0,0.0,3.0,3.0,331.5502691548317,3.0,1.0,phase_1,,,,,,,,,,,,,gray,square
395.0,4.0,4.0,0.0,2.0,2.0,288.3076521102339,3.0,1.0,phase_1,,,,,,,,,,,,,gray,square
409.0,4.0,4.0,0.0,1.0,1.0,276.3555678538978,3.0,1.0,phase_1,,,,,,,,,,,,,gray,square
413.0,8.0,4.0,1.0,4.0,4.0,330.0619169604033,3.0,1.0,phase_1,,,,,,,,,,,,,cyan,I
190.0,3.0,2.0,0.0,3.0,3.0,358.2407319918275,3.0,1.0,phase_1,,,,,,,,,,,,,magenta,cross
0.0,6.0,0.0,1.0,4.0,4.0,346.1842690594494,3.0,1.0,phase_1,,,,,,,,,,,,,yellow,triangle
40.0,1.0,0.5,0.0,1.0,1.0,280.6995359715074,3.0,1.0,phase_1,,,,,,,,,,,,,blue,diamond
56.0,5.0,0.5,1.0,2.0,2.0,292.8908560425043,3.0,1.0,phase_1,,,,,,,,,,,,,green,flipped triangle
209.0,7.0,2.0,1.0,3.0,3.0,320.7551850937307,3.0,1.0,phase_1,,,,,,,,,,,,,white,hexagon
204.0,3.0,2.0,0.0,2.0,2.0,287.6785129774362,3.0,1.0,phase_1,,,,,,,,,,,,,magenta,cross
194.0,7.0,2.0,1.0,4.0,4.0,392.2567721456289,3.0,1.0,phase_1,,,,,,,,,,,,,white,hexagon
401.0,8.0,4.0,1.0,3.0,3.0,326.7835951410234,3.0,1.0,phase_1,,,,,,,,,,,,,cyan,I
411.0,8.0,4.0,1.0,2.0,2.0,313.8299430720508,3.0,1.0,phase_1,,,,,,,,,,,,,cyan,I
384.0,4.0,4.0,0.0,4.0,4.0,297.8450630325824,3.0,1.0,phase_1,,,,,,,,,,,,,gray,square
0.0,3.0,0.0,0.0,2.0,2.0,322.9220979847014,3.0,1.0,phase_1,,,,,,,,,,,,,magenta,cross
0.0,5.0,0.0,1.0,3.0,3.0,319.5483221206814,3.0,1.0,phase_1,,,,,,,,,,,,,green,flipped triangle
116.0,2.0,1.0,0.0,2.0,2.0,286.390763008967,3.0,1.0,phase_1,,,,,,,,,,,,,orange,circle
106.0,2.0,1.0,0.0,4.0,4.0,354.0053190663457,3.0,1.0,phase_1,,,,,,,,,,,,,orange,circle
81.0,2.0,1.0,0.0,4.0,4.0,366.6537120006978,3.0,1.0,phase_1,,,,,,,,,,,,,orange,circle
59.0,1.0,0.5,0.0,3.0,3.0,276.6709548886865,3.0,1.0,phase_1,,,,,,,,,,,,,blue,diamond
197.0,7.0,2.0,1.0,1.0,1.0,352.5218411814421,3.0,1.0,phase_1,,,,,,,,,,,,,white,hexagon
42.0,1.0,0.5,0.0,1.0,1.0,372.5079409778118,3.0,1.0,phase_1,,,,,,,,,,,,,blue,diamond
77.0,6.0,1.0,1.0,2.0,2.0,306.6405521240085,3.0,1.0,phase_1,,,,,,,,,,,,,yellow,triangle
35.0,5.0,0.5,1.0,4.0,4.0,311.4542670082301,3.0,1.0,phase_1,,,,,,,,,,,,,green,flipped triangle
393.0,8.0,4.0,1.0,3.0,3.0,306.5526350401342,3.0,1.0,phase_1,,,,,,,,,,,,,cyan,I
396.0,4.0,4.0,0.0,2.0,2.0,297.9298238642514,3.0,1.0,phase_1,,,,,,,,,,,,,gray,square
111.0,2.0,1.0,0.0,1.0,1.0,275.1363380812108,3.0,1.0,phase_1,,,,,,,,,,,,,orange,circle
96.0,6.0,1.0,1.0,1.0,1.0,313.9952309429645,3.0,1.0,phase_1,,,,,,,,,,,,,yellow,triangle
122.0,6.0,1.0,1.0,3.0,3.0,303.0306349974125,3.0,1.0,phase_1,,,,,,,,,,,,,yellow,triangle
423.0,8.0,4.0,1.0,2.0,2.0,266.6042458731681,3.0,1.0,phase_1,,,,,,,,,,,,,cyan,I
0.0,4.0,0.0,0.0,3.0,3.0,321.3795649353415,3.0,1.0,phase_1,,,,,,,,,,,,,gray,square
115.0,2.0,1.0,0.0,1.0,1.0,277.170178014785,3.0,1.0,phase_1,,,,,,,,,,,,,orange,circle
0.0,6.0,0.0,1.0,1.0,1.0,282.0186649914831,3.0,1.0,phase_1,,,,,,,,,,,,,yellow,triangle
182.0,3.0,2.0,0.0,4.0,4.0,355.279300827533,3.0,2.0,phase_1,,,,,,,,,,,,,magenta,cross
0.0,5.0,0.0,1.0,2.0,2.0,295.8148319739848,3.0,1.0,phase_1,,,,,,,,,,,,,green,flipped triangle
0.0,1.0,0.0,0.0,3.0,3.0,354.7682838980108,3.0,1.0,phase_1,,,,,,,,,,,,,blue,diamond
208.0,3.0,2.0,0.0,3.0,3.0,289.3299558199942,3.0,1.0,phase_1,,,,,,,,,,,,,magenta,cross
123.0,6.0,1.0,1.0,2.0,2.0,335.4416331276297,3.0,1.0,phase_1,,,,,,,,,,,,,yellow,triangle
120.0,2.0,1.0,0.0,1.0,1.0,282.2182569652796,3.0,1.0,phase_1,,,,,,,,,,,,,orange,circle
49.0,1.0,0.5,0.0,1.0,1.0,311.576871201396,3.0,1.0,phase_1,,,,,,,,,,,,,blue,diamond
36.0,5.0,0.5,1.0,3.0,3.0,299.842044012621,3.0,1.0,phase_1,,,,,,,,,,,,,green,flipped triangle
225.0,7.0,2.0,1.0,2.0,2.0,310.0582968909293,3.0,1.0,phase_1,,,,,,,,,,,,,white,hexagon
197.0,7.0,2.0,1.0,2.0,2.0,378.0125239863992,3.0,2.0,phase_1,,,,,,,,,,,,,white,hexagon
0.0,3.0,0.0,0.0,1.0,1.0,302.6454509235918,3.0,1.0,phase_1,,,,,,,,,,,,,magenta,cross
98.0,2.0,1.0,0.0,1.0,1.0,299.3725319392979,3.0,1.0,phase_1,,,,,,,,,,,,,orange,circle
404.0,8.0,4.0,1.0,4.0,4.0,421.929445117712,3.0,1.0,phase_1,,,,,,,,,,,,,cyan,I
49.0,5.0,0.5,1.0,1.0,1.0,390.4699450358748,3.0,1.0,phase_1,,,,,,,,,,,,,green,flipped triangle
213.0,3.0,2.0,0.0,3.0,3.0,328.0177048873156,3.0,1.0,phase_1,,,,,,,,,,,,,magenta,cross
407.0,8.0,4.0,1.0,4.0,4.0,470.7707718480378,3.0,1.0,phase_1,,,,,,,,,,,,,cyan,I
0.0,1.0,0.0,0.0,2.0,2.0,400.1462450250983,3.0,1.0,phase_1,,,,,,,,,,,,,blue,diamond
46.0,1.0,0.5,0.0,2.0,2.0,286.1489979550242,3.0,1.0,phase_1,,,,,,,,,,,,,blue,diamond
124.0,6.0,1.0,1.0,1.0,1.0,293.7696040607989,3.0,1.0,phase_1,,,,,,,,,,,,,yellow,triangle
46.0,5.0,0.5,1.0,1.0,1.0,304.7842120286077,3.0,1.0,phase_1,,,,,,,,,,,,,green,flipped triangle
70.0,1.0,0.5,0.0,4.0,4.0,351.6181488521397,3.0,1.0,phase_1,,,,,,,,,,,,,blue,diamond
63.0,5.0,0.5,1.0,3.0,3.0,480.4258828517049,3.0,1.0,phase_1,,,,,,,,,,,,,green,flipped triangle
376.0,4.0,4.0,0.0,1.0,1.0,327.1697170566767,3.0,1.0,phase_1,,,,,,,,,,,,,gray,square
200.0,7.0,2.0,1.0,1.0,1.0,293.2641110382974,3.0,1.0,phase_1,,,,,,,,,,,,,white,hexagon
389.0,4.0,4.0,0.0,4.0,4.0,401.4028089586645,3.0,1.0,phase_1,,,,,,,,,,,,,gray,square
0.0,5.0,0.0,1.0,1.0,1.0,358.1875159870833,3.0,1.0,phase_1,,,,,,,,,,,,,green,flipped triangle
55.0,1.0,0.5,0.0,3.0,3.0,447.7753159590065,3.0,1.0,phase_1,,,,,,,,,,,,,blue,diamond
176.0,7.0,2.0,1.0,4.0,4.0,326.6901250462979,3.0,1.0,phase_1,,,,,,,,,,,,,white,hexagon
42.0,5.0,0.5,1.0,4.0,4.0,332.9924000427127,3.0,1.0,phase_1,,,,,,,,,,,,,green,flipped triangle
52.0,5.0,0.5,1.0,3.0,3.0,320.7780160009861,3.0,1.0,phase_1,,,,,,,,,,,,,green,flipped triangle
176.0,3.0,2.0,0.0,4.0,4.0,285.847902065143,3.0,1.0,phase_1,,,,,,,,,,,,,magenta,cross
395.0,8.0,4.0,1.0,4.0,4.0,306.5081329550594,3.0,1.0,phase_1,,,,,,,,,,,,,cyan,I
120.0,6.0,1.0,1.0,4.0,4.0,334.5188880339265,3.0,1.0,phase_1,,,,,,,,,,,,,yellow,triangle
418.0,8.0,4.0,1.0,1.0,1.0,281.0385748744011,3.0,1.0,phase_1,,,,,,,,,,,,,cyan,I
175.0,7.0,2.0,1.0,2.0,2.0,333.9123181067407,3.0,1.0,phase_1,,,,,,,,,,,,,white,hexagon
221.0,3.0,2.0,0.0,4.0,4.0,297.9579919483512,3.0,1.0,phase_1,,,,,,,,,,,,,magenta,cross
381.0,4.0,4.0,0.0,3.0,3.0,392.1643099747598,3.0,1.0,phase_1,,,,,,,,,,,,,gray,square
403.0,4.0,4.0,0.0,4.0,4.0,373.6490679439157,3.0,1.0,phase_1,,,,,,,,,,,,,gray,square
96.0,6.0,1.0,1.0,3.0,3.0,320.7087789196521,3.0,1.0,phase_1,,,,,,,,,,,,,yellow,triangle
116.0,6.0,1.0,1.0,4.0,4.0,285.1224229671061,3.0,1.0,phase_1,,,,,,,,,,,,,yellow,triangle
115.0,6.0,1.0,1.0,2.0,2.0,322.5184299517423,3.0,1.0,phase_1,,,,,,,,,,,,,yellow,triangle
387.0,8.0,4.0,1.0,4.0,4.0,256.8251979537308,3.0,1.0,phase_1,,,,,,,,,,,,,cyan,I
185.0,7.0,2.0,1.0,2.0,2.0,283.3201009780168,3.0,1.0,phase_1,,,,,,,,,,,,,white,hexagon
98.0,6.0,1.0,1.0,4.0,4.0,271.6011740267277,3.0,1.0,phase_1,,,,,,,,,,,,,yellow,triangle
204.0,7.0,2.0,1.0,3.0,3.0,373.8859789445996,3.0,1.0,phase_1,,,,,,,,,,,,,white,hexagon
180.0,3.0,2.0,0.0,2.0,2.0,322.8239100426435,3.0,1.0,phase_1,,,,,,,,,,,,,magenta,cross
63.0,1.0,0.5,0.0,3.0,3.0,509.34475008398294,3.0,1.0,phase_1,,,,,,,,,,,,,blue,diamond
389.0,8.0,4.0,1.0,2.0,2.0,324.7054619714618,3.0,1.0,phase_1,,,,,,,,,,,,,cyan,I
424.0,4.0,4.0,0.0,1.0,1.0,296.5220659971237,3.0,1.0,phase_1,,,,,,,,,,,,,gray,square
73.0,5.0,0.5,1.0,2.0,2.0,282.9447940457612,3.0,1.0,phase_1,,,,,,,,,,,,,green,flipped triangle
418.0,4.0,4.0,0.0,2.0,2.0,409.1143549885601,3.0,1.0,phase_1,,,,,,,,,,,,,gray,square
89.0,2.0,1.0,0.0,4.0,4.0,369.1722680814564,4.0,1.0,phase_1,,,,,,,,,,,,,orange,circle
0.0,4.0,0.0,0.0,3.0,3.0,438.4048429783433,4.0,1.0,phase_1,,,,,,,,,,,,,gray,square
201.0,3.0,2.0,0.0,2.0,2.0,306.0131890233606,4.0,1.0,phase_1,,,,,,,,,,,,,magenta,cross
31.0,1.0,0.5,0.0,2.0,2.0,337.8679361194372,4.0,1.0,phase_1,,,,,,,,,,,,,blue,diamond
0.0,7.0,0.0,1.0,2.0,2.0,309.877797961235,4.0,1.0,phase_1,,,,,,,,,,,,,white,hexagon
67.0,5.0,0.5,1.0,1.0,1.0,297.5377850234508,4.0,1.0,phase_1,,,,,,,,,,,,,green,flipped triangle
390.0,4.0,4.0,0.0,1.0,1.0,304.6009088866412,4.0,1.0,phase_1,,,,,,,,,,,,,gray,square
61.0,1.0,0.5,0.0,1.0,1.0,243.4101731050759,4.0,1.0,phase_1,,,,,,,,,,,,,blue,diamond
68.0,1.0,0.5,0.0,3.0,3.0,349.8464620206505,4.0,1.0,phase_1,,,,,,,,,,,,,blue,diamond
0.0,2.0,0.0,0.0,1.0,1.0,317.0668359380215,4.0,1.0,phase_1,,,,,,,,,,,,,orange,circle
43.0,1.0,0.5,0.0,3.0,3.0,322.028037160635,4.0,1.0,phase_1,,,,,,,,,,,,,blue,diamond
35.0,1.0,0.5,0.0,2.0,2.0,271.7372879851609,4.0,1.0,phase_1,,,,,,,,,,,,,blue,diamond
0.0,7.0,0.0,1.0,2.0,2.0,288.3199350908398,4.0,1.0,phase_1,,,,,,,,,,,,,white,hexagon
0.0,3.0,0.0,0.0,3.0,3.0,341.8263678904623,4.0,1.0,phase_1,,,,,,,,,,,,,magenta,cross
82.0,2.0,1.0,0.0,2.0,2.0,274.4877631776035,4.0,1.0,phase_1,,,,,,,,,,,,,orange,circle
198.0,3.0,2.0,0.0,4.0,4.0,323.6027399543673,4.0,2.0,phase_1,,,,,,,,,,,,,magenta,cross
0.0,1.0,0.0,0.0,4.0,4.0,280.7425400242209,4.0,1.0,phase_1,,,,,,,,,,,,,blue,diamond
30.0,5.0,0.5,1.0,2.0,2.0,308.6516528856009,4.0,1.0,phase_1,,,,,,,,,,,,,green,flipped triangle
62.0,5.0,0.5,1.0,4.0,4.0,281.7811891436577,4.0,1.0,phase_1,,,,,,,,,,,,,green,flipped triangle
209.0,3.0,2.0,0.0,4.0,4.0,337.3823799192905,4.0,1.0,phase_1,,,,,,,,,,,,,magenta,cross
423.0,4.0,4.0,0.0,1.0,1.0,294.0335760358721,4.0,1.0,phase_1,,,,,,,,,,,,,gray,square
76.0,2.0,1.0,0.0,3.0,3.0,360.5039799585938,4.0,1.0,phase_1,,,,,,,,,,,,,orange,circle
212.0,7.0,2.0,1.0,3.0,3.0,340.5025720130652,4.0,1.0,phase_1,,,,,,,,,,,,,white,hexagon
197.0,3.0,2.0,0.0,1.0,1.0,353.4104730933904,4.0,1.0,phase_1,,,,,,,,,,,,,magenta,cross
0.0,5.0,0.0,1.0,4.0,4.0,302.319617010653,4.0,1.0,phase_1,,,,,,,,,,,,,green,flipped triangle
194.0,3.0,2.0,0.0,4.0,4.0,358.055257005617,4.0,1.0,phase_1,,,,,,,,,,,,,magenta,cross
181.0,3.0,2.0,0.0,3.0,3.0,320.7684489898383,4.0,1.0,phase_1,,,,,,,,,,,,,magenta,cross
376.0,8.0,4.0,1.0,4.0,4.0,347.6189360953867,4.0,1.0,phase_1,,,,,,,,,,,,,cyan,I
398.0,8.0,4.0,1.0,4.0,4.0,321.4941930491477,4.0,1.0,phase_1,,,,,,,,,,,,,cyan,I
217.0,3.0,2.0,0.0,3.0,3.0,316.983844153583,4.0,1.0,phase_1,,,,,,,,,,,,,magenta,cross
180.0,7.0,2.0,1.0,1.0,1.0,315.9901758190244,4.0,1.0,phase_1,,,,,,,,,,,,,white,hexagon
66.0,5.0,0.5,1.0,4.0,4.0,345.556854037568,4.0,1.0,phase_1,,,,,,,,,,,,,green,flipped triangle
0.0,5.0,0.0,1.0,3.0,3.0,357.6165388803929,4.0,1.0,phase_1,,,,,,,,,,,,,green,flipped triangle
0.0,2.0,0.0,0.0,4.0,4.0,330.7089859154075,4.0,1.0,phase_1,,,,,,,,,,,,,orange,circle
46.0,1.0,0.5,0.0,1.0,1.0,349.3984679225832,4.0,1.0,phase_1,,,,,,,,,,,,,blue,diamond
390.0,8.0,4.0,1.0,3.0,3.0,275.8123578969389,4.0,1.0,phase_1,,,,,,,,,,,,,cyan,I
27.0,5.0,0.5,1.0,4.0,4.0,303.8877861108631,4.0,1.0,phase_1,,,,,,,,,,,,,green,flipped triangle
0.0,8.0,0.0,1.0,3.0,3.0,317.7491161040962,4.0,1.0,phase_1,,,,,,,,,,,,,cyan,I
117.0,2.0,1.0,0.0,4.0,4.0,374.1888420190662,4.0,2.0,phase_1,,,,,,,,,,,,,orange,circle
61.0,5.0,0.5,1.0,1.0,1.0,352.6445040479302,4.0,1.0,phase_1,,,,,,,,,,,,,green,flipped triangle
43.0,5.0,0.5,1.0,2.0,2.0,381.9340569898486,4.0,1.0,phase_1,,,,,,,,,,,,,green,flipped triangle
83.0,2.0,1.0,0.0,2.0,2.0,354.0088280569762,4.0,1.0,phase_1,,,,,,,,,,,,,orange,circle
76.0,6.0,1.0,1.0,3.0,3.0,399.3799719028175,4.0,1.0,phase_1,,,,,,,,,,,,,yellow,triangle
46.0,1.0,0.5,0.0,1.0,1.0,300.4980231635272,4.0,1.0,phase_1,,,,,,,,,,,,,blue,diamond
70.0,5.0,0.5,1.0,3.0,3.0,281.0602269601077,4.0,1.0,phase_1,,,,,,,,,,,,,green,flipped triangle
0.0,7.0,0.0,1.0,2.0,2.0,325.4682398401201,4.0,1.0,phase_1,,,,,,,,,,,,,white,hexagon
208.0,7.0,2.0,1.0,4.0,4.0,309.3501711264252,4.0,1.0,phase_1,,,,,,,,,,,,,white,hexagon
391.0,4.0,4.0,0.0,4.0,4.0,345.8206260111183,4.0,1.0,phase_1,,,,,,,,,,,,,gray,square
387.0,4.0,4.0,0.0,1.0,1.0,301.8006689380854,4.0,1.0,phase_1,,,,,,,,,,,,,gray,square
92.0,2.0,1.0,0.0,3.0,3.0,304.3796250130981,4.0,1.0,phase_1,,,,,,,,,,,,,orange,circle
397.0,8.0,4.0,1.0,1.0,1.0,311.5756490733474,4.0,1.0,phase_1,,,,,,,,,,,,,cyan,I
216.0,3.0,2.0,0.0,3.0,3.0,316.7730369605124,4.0,1.0,phase_1,,,,,,,,,,,,,magenta,cross
76.0,6.0,1.0,1.0,4.0,4.0,335.7044088188559,4.0,1.0,phase_1,,,,,,,,,,,,,yellow,triangle
125.0,2.0,1.0,0.0,3.0,3.0,310.0837969686836,4.0,1.0,phase_1,,,,,,,,,,,,,orange,circle
100.0,2.0,1.0,0.0,4.0,4.0,327.9881370253861,4.0,1.0,phase_1,,,,,,,,,,,,,orange,circle
104.0,6.0,1.0,1.0,4.0,4.0,314.1597660724073,4.0,2.0,phase_1,,,,,,,,,,,,,yellow,triangle
198.0,3.0,2.0,0.0,2.0,2.0,324.8105130624026,4.0,2.0,phase_1,,,,,,,,,,,,,magenta,cross
418.0,4.0,4.0,0.0,4.0,4.0,432.5444460846483,4.0,1.0,phase_1,,,,,,,,,,,,,gray,square
382.0,4.0,4.0,0.0,3.0,3.0,374.0202840417623,4.0,1.0,phase_1,,,,,,,,,,,,,gray,square
73.0,1.0,0.5,0.0,4.0,4.0,443.9181380439549,4.0,1.0,phase_1,,,,,,,,,,,,,blue,diamond
198.0,7.0,2.0,1.0,1.0,1.0,384.124421980232,4.0,1.0,phase_1,,,,,,,,,,,,,white,hexagon
190.0,3.0,2.0,0.0,4.0,4.0,361.1529162153601,4.0,1.0,phase_1,,,,,,,,,,,,,magenta,cross
88.0,2.0,1.0,0.0,4.0,4.0,381.6920020617544,4.0,1.0,phase_1,,,,,,,,,,,,,orange,circle
59.0,5.0,0.5,1.0,3.0,3.0,354.6325408387929,4.0,1.0,phase_1,,,,,,,,,,,,,green,flipped triangle
42.0,1.0,0.5,0.0,4.0,4.0,329.0316939819604,4.0,1.0,phase_1,,,,,,,,,,,,,blue,diamond
224.0,7.0,2.0,1.0,4.0,4.0,309.2751330696046,4.0,1.0,phase_1,,,,,,,,,,,,,white,hexagon
418.0,8.0,4.0,1.0,1.0,1.0,328.2732460647821,4.0,1.0,phase_1,,,,,,,,,,,,,cyan,I
403.0,4.0,4.0,0.0,2.0,2.0,336.7072648834437,4.0,1.0,phase_1,,,,,,,,,,,,,gray,square
212.0,3.0,2.0,0.0,1.0,1.0,316.4327209815383,4.0,1.0,phase_1,,,,,,,,,,,,,magenta,cross
83.0,6.0,1.0,1.0,2.0,2.0,337.3427658807486,4.0,1.0,phase_1,,,,,,,,,,,,,yellow,triangle
74.0,1.0,0.5,0.0,4.0,4.0,333.7108618579805,4.0,1.0,phase_1,,,,,,,,,,,,,blue,diamond
0.0,3.0,0.0,0.0,3.0,3.0,344.1518309991807,4.0,1.0,phase_1,,,,,,,,,,,,,magenta,cross
0.0,4.0,0.0,0.0,2.0,2.0,202.0935320761054,4.0,2.0,phase_1,,,,,,,,,,,,,gray,square
98.0,6.0,1.0,1.0,1.0,1.0,330.1637920085341,4.0,1.0,phase_1,,,,,,,,,,,,,yellow,triangle
213.0,7.0,2.0,1.0,1.0,1.0,324.2796491831541,4.0,1.0,phase_1,,,,,,,,,,,,,white,hexagon
73.0,5.0,0.5,1.0,2.0,2.0,346.6777401044965,4.0,1.0,phase_1,,,,,,,,,,,,,green,flipped triangle
111.0,6.0,1.0,1.0,1.0,1.0,333.056358853355,4.0,1.0,phase_1,,,,,,,,,,,,,yellow,triangle
0.0,1.0,0.0,0.0,1.0,1.0,296.6441470198333,4.0,1.0,phase_1,,,,,,,,,,,,,blue,diamond
76.0,2.0,1.0,0.0,1.0,1.0,264.9025148712098,4.0,1.0,phase_1,,,,,,,,,,,,,orange,circle
218.0,3.0,2.0,0.0,2.0,2.0,321.7050938401371,4.0,1.0,phase_1,,,,,,,,,,,,,magenta,cross
381.0,8.0,4.0,1.0,3.0,3.0,455.4236640688032,4.0,1.0,phase_1,,,,,,,,,,,,,cyan,I
101.0,2.0,1.0,0.0,3.0,3.0,366.3162600714713,4.0,1.0,phase_1,,,,,,,,,,,,,orange,circle
0.0,2.0,0.0,0.0,2.0,2.0,354.4523038435727,4.0,1.0,phase_1,,,,,,,,,,,,,orange,circle
100.0,6.0,1.0,1.0,1.0,1.0,276.7553178127855,4.0,1.0,phase_1,,,,,,,,,,,,,yellow,triangle
114.0,2.0,1.0,0.0,2.0,2.0,500.7235130760819,4.0,1.0,phase_1,,,,,,,,,,,,,orange,circle
0.0,3.0,0.0,0.0,2.0,2.0,333.9439588598907,4.0,1.0,phase_1,,,,,,,,,,,,,magenta,cross
0.0,5.0,0.0,1.0,4.0,4.0,443.2303169742226,4.0,1.0,phase_1,,,,,,,,,,,,,green,flipped triangle
392.0,4.0,4.0,0.0,2.0,2.0,370.3075691591948,4.0,1.0,phase_1,,,,,,,,,,,,,gray,square
411.0,4.0,4.0,0.0,3.0,3.0,350.1753029413521,4.0,1.0,phase_1,,,,,,,,,,,,,gray,square
403.0,8.0,4.0,1.0,4.0,4.0,370.8643179852515,4.0,1.0,phase_1,,,,,,,,,,,,,cyan,I
99.0,6.0,1.0,1.0,3.0,3.0,344.7939548641443,4.0,1.0,phase_1,,,,,,,,,,,,,yellow,triangle
88.0,6.0,1.0,1.0,3.0,3.0,342.4762769136578,4.0,1.0,phase_1,,,,,,,,,,,,,yellow,triangle
199.0,3.0,2.0,0.0,3.0,3.0,320.2295859809965,4.0,1.0,phase_1,,,,,,,,,,,,,magenta,cross
0.0,8.0,0.0,1.0,3.0,3.0,283.5999259259552,4.0,1.0,phase_1,,,,,,,,,,,,,cyan,I
0.0,7.0,0.0,1.0,2.0,2.0,321.2650311179459,4.0,1.0,phase_1,,,,,,,,,,,,,white,hexagon
62.0,5.0,0.5,1.0,4.0,4.0,321.1296170484274,4.0,1.0,phase_1,,,,,,,,,,,,,green,flipped triangle
0.0,4.0,0.0,0.0,3.0,3.0,409.7378998994827,4.0,1.0,phase_1,,,,,,,,,,,,,gray,square
194.0,7.0,2.0,1.0,3.0,3.0,314.2431699670851,4.0,1.0,phase_1,,,,,,,,,,,,,white,hexagon
91.0,2.0,1.0,0.0,3.0,3.0,326.0920429602265,4.0,1.0,phase_1,,,,,,,,,,,,,orange,circle
224.0,3.0,2.0,0.0,3.0,3.0,361.6043040528893,4.0,1.0,phase_1,,,,,,,,,,,,,magenta,cross
0.0,7.0,2.0,1.0,6.0,6.0,697.5267429370433,1.0,1.0,phase_2,stop,250.0,250.0,3.0,,,,,,,,,white,hexagon
0.0,2.0,1.0,0.0,6.0,6.0,639.5801368635148,1.0,1.0,phase_2,go,250.0,200.0,1.0,,,,,,,,,orange,circle
0.0,2.0,1.0,0.0,5.0,5.0,544.2715999670327,1.0,1.0,phase_2,go,250.0,200.0,1.0,,,,,,,,,orange,circle
0.0,8.0,4.0,1.0,6.0,0.0,0.0,1.0,1.0,phase_2,stop,250.0,200.0,4.0,,,,,,,,,cyan,I
0.0,5.0,0.5,1.0,5.0,5.0,514.4313699565828,1.0,1.0,phase_2,go,250.0,250.0,1.0,,,,,,,,,green,flipped triangle
0.0,3.0,2.0,0.0,6.0,6.0,559.7004881128669,1.0,1.0,phase_2,go,250.0,250.0,1.0,,,,,,,,,magenta,cross
0.0,7.0,2.0,1.0,6.0,0.0,0.0,1.0,1.0,phase_2,stop,250.0,250.0,4.0,,,,,,,,,white,hexagon
0.0,7.0,2.0,1.0,6.0,6.0,525.0559949781746,1.0,1.0,phase_2,stop,250.0,300.0,3.0,,,,,,,,,white,hexagon
0.0,6.0,1.0,1.0,6.0,0.0,0.0,1.0,1.0,phase_2,stop,250.0,250.0,4.0,,,,,,,,,yellow,triangle
0.0,1.0,0.5,0.0,6.0,6.0,599.173161899671,1.0,1.0,phase_2,go,250.0,300.0,1.0,,,,,,,,,blue,diamond
0.0,6.0,1.0,1.0,5.0,5.0,603.2347548753023,1.0,1.0,phase_2,go,250.0,300.0,1.0,,,,,,,,,yellow,triangle
0.0,2.0,1.0,0.0,5.0,5.0,596.2810621131212,1.0,1.0,phase_2,go,250.0,300.0,1.0,,,,,,,,,orange,circle
0.0,6.0,1.0,1.0,6.0,6.0,554.8313499893993,1.0,1.0,phase_2,go,250.0,300.0,1.0,,,,,,,,,yellow,triangle
0.0,5.0,0.5,1.0,5.0,0.0,0.0,1.0,1.0,phase_2,stop,250.0,300.0,4.0,,,,,,,,,green,flipped triangle
0.0,1.0,0.5,0.0,5.0,5.0,641.1278350278735,1.0,1.0,phase_2,go,300.0,300.0,1.0,,,,,,,,,blue,diamond
0.0,6.0,1.0,1.0,5.0,0.0,0.0,1.0,1.0,phase_2,stop,300.0,300.0,4.0,,,,,,,,,yellow,triangle
0.0,8.0,4.0,1.0,5.0,0.0,0.0,1.0,1.0,phase_2,stop,350.0,300.0,4.0,,,,,,,,,cyan,I
0.0,1.0,0.5,0.0,6.0,6.0,570.1328821014613,1.0,1.0,phase_2,go,400.0,300.0,1.0,,,,,,,,,blue,diamond
0.0,3.0,2.0,0.0,6.0,6.0,590.1433310937136,1.0,1.0,phase_2,go,400.0,300.0,1.0,,,,,,,,,magenta,cross
0.0,3.0,2.0,0.0,5.0,5.0,630.1275780424476,1.0,1.0,phase_2,go,400.0,300.0,1.0,,,,,,,,,magenta,cross
0.0,7.0,2.0,1.0,5.0,5.0,709.4178751576692,1.0,1.0,phase_2,go,400.0,300.0,1.0,,,,,,,,,white,hexagon
0.0,8.0,4.0,1.0,5.0,5.0,656.1584938317537,1.0,1.0,phase_2,go,400.0,300.0,1.0,,,,,,,,,cyan,I
0.0,1.0,0.5,0.0,5.0,5.0,744.3701948504895,1.0,1.0,phase_2,go,400.0,300.0,1.0,,,,,,,,,blue,diamond
0.0,5.0,0.5,1.0,6.0,0.0,0.0,1.0,1.0,phase_2,stop,400.0,300.0,4.0,,,,,,,,,green,flipped triangle
0.0,4.0,4.0,0.0,6.0,6.0,614.1244929749519,1.0,1.0,phase_2,go,400.0,350.0,1.0,,,,,,,,,gray,square
0.0,6.0,1.0,1.0,6.0,0.0,0.0,1.0,1.0,phase_2,stop,400.0,350.0,4.0,,,,,,,,,yellow,triangle
0.0,6.0,1.0,1.0,6.0,0.0,0.0,1.0,1.0,phase_2,stop,400.0,400.0,4.0,,,,,,,,,yellow,triangle
0.0,7.0,2.0,1.0,6.0,6.0,523.558699991554,1.0,1.0,phase_2,stop,400.0,450.0,3.0,,,,,,,,,white,hexagon
0.0,5.0,0.5,1.0,6.0,6.0,776.87002485618,1.0,1.0,phase_2,go,400.0,400.0,1.0,,,,,,,,,green,flipped triangle
0.0,1.0,0.5,0.0,5.0,5.0,754.6178090851754,1.0,1.0,phase_2,go,400.0,400.0,1.0,,,,,,,,,blue,diamond
0.0,3.0,2.0,0.0,6.0,6.0,392.1745971310884,1.0,1.0,phase_2,go,400.0,400.0,1.0,,,,,,,,,magenta,cross
0.0,6.0,1.0,1.0,5.0,0.0,0.0,1.0,1.0,phase_2,stop,400.0,400.0,4.0,,,,,,,,,yellow,triangle
0.0,1.0,0.5,0.0,6.0,6.0,728.9335958193988,1.0,1.0,phase_2,go,450.0,400.0,1.0,,,,,,,,,blue,diamond
0.0,2.0,1.0,0.0,6.0,6.0,1009.3194500077516,1.0,1.0,phase_2,go,450.0,400.0,1.0,,,,,,,,,orange,circle
0.0,8.0,4.0,1.0,5.0,5.0,671.6597818303853,1.0,1.0,phase_2,go,450.0,400.0,1.0,,,,,,,,,cyan,I
0.0,2.0,1.0,0.0,5.0,5.0,496.5965738520026,1.0,1.0,phase_2,go,450.0,400.0,1.0,,,,,,,,,orange,circle
0.0,3.0,2.0,0.0,5.0,5.0,463.9674159698188,2.0,1.0,phase_2,go,450.0,400.0,1.0,,,,,,,,,magenta,cross
0.0,5.0,0.5,1.0,5.0,5.0,808.05758619681,2.0,1.0,phase_2,go,450.0,400.0,1.0,,,,,,,,,green,flipped triangle
0.0,3.0,2.0,0.0,6.0,6.0,351.88541514799,2.0,1.0,phase_2,go,450.0,400.0,1.0,,,,,,,,,magenta,cross
0.0,1.0,0.5,0.0,5.0,5.0,391.82208199054,2.0,1.0,phase_2,go,450.0,400.0,1.0,,,,,,,,,blue,diamond
0.0,8.0,4.0,1.0,5.0,5.0,552.6289860717952,2.0,1.0,phase_2,stop,450.0,400.0,3.0,,,,,,,,,cyan,I
0.0,1.0,0.5,0.0,5.0,5.0,487.7362821716815,2.0,1.0,phase_2,go,400.0,400.0,1.0,,,,,,,,,blue,diamond
0.0,4.0,4.0,0.0,5.0,5.0,348.3056698460132,2.0,1.0,phase_2,go,400.0,400.0,1.0,,,,,,,,,gray,square
0.0,4.0,4.0,0.0,5.0,5.0,430.2533639129251,2.0,1.0,phase_2,go,400.0,400.0,1.0,,,,,,,,,gray,square
0.0,8.0,4.0,1.0,5.0,5.0,307.5397450011223,2.0,1.0,phase_2,go,400.0,400.0,1.0,,,,,,,,,cyan,I
0.0,3.0,2.0,0.0,6.0,6.0,499.5609549805522,2.0,1.0,phase_2,go,400.0,400.0,1.0,,,,,,,,,magenta,cross
0.0,1.0,0.5,0.0,6.0,6.0,324.3397169280797,2.0,1.0,phase_2,go,400.0,400.0,1.0,,,,,,,,,blue,diamond
0.0,2.0,1.0,0.0,5.0,5.0,450.373507104814,2.0,1.0,phase_2,go,400.0,400.0,1.0,,,,,,,,,orange,circle
0.0,3.0,2.0,0.0,6.0,6.0,325.4737940151244,2.0,1.0,phase_2,go,400.0,400.0,1.0,,,,,,,,,magenta,cross
0.0,1.0,0.5,0.0,6.0,6.0,673.0027629528195,2.0,1.0,phase_2,go,400.0,400.0,1.0,,,,,,,,,blue,diamond
0.0,6.0,1.0,1.0,5.0,0.0,0.0,2.0,1.0,phase_2,stop,400.0,400.0,4.0,,,,,,,,,yellow,triangle
0.0,1.0,0.5,0.0,5.0,5.0,520.4046941362321,2.0,1.0,phase_2,go,450.0,400.0,1.0,,,,,,,,,blue,diamond
0.0,4.0,4.0,0.0,6.0,6.0,377.8027950320393,2.0,1.0,phase_2,go,450.0,400.0,1.0,,,,,,,,,gray,square
0.0,4.0,4.0,0.0,6.0,6.0,455.947978189215,2.0,1.0,phase_2,go,450.0,400.0,1.0,,,,,,,,,gray,square
0.0,3.0,2.0,0.0,5.0,5.0,381.8946741521358,2.0,1.0,phase_2,go,450.0,400.0,1.0,,,,,,,,,magenta,cross
0.0,7.0,2.0,1.0,5.0,0.0,0.0,2.0,1.0,phase_2,stop,450.0,400.0,4.0,,,,,,,,,white,hexagon
0.0,1.0,0.5,0.0,6.0,6.0,360.654748044908,2.0,1.0,phase_2,go,500.0,400.0,1.0,,,,,,,,,blue,diamond
0.0,3.0,2.0,0.0,5.0,5.0,525.3015370108187,2.0,1.0,phase_2,go,500.0,400.0,1.0,,,,,,,,,magenta,cross
0.0,5.0,0.5,1.0,6.0,6.0,495.792199857533,2.0,1.0,phase_2,stop,500.0,400.0,3.0,,,,,,,,,green,flipped triangle
0.0,6.0,1.0,1.0,6.0,0.0,0.0,2.0,1.0,phase_2,stop,500.0,350.0,4.0,,,,,,,,,yellow,triangle
0.0,1.0,0.5,0.0,6.0,6.0,610.608889022842,2.0,1.0,phase_2,go,500.0,400.0,1.0,,,,,,,,,blue,diamond
0.0,5.0,0.5,1.0,6.0,6.0,1014.0525519382209,2.0,1.0,phase_2,go,500.0,400.0,1.0,,,,,,,,,green,flipped triangle
0.0,6.0,1.0,1.0,6.0,6.0,978.0998770147562,2.0,1.0,phase_2,go,500.0,400.0,1.0,,,,,,,,,yellow,triangle
0.0,2.0,1.0,0.0,5.0,5.0,547.1646951045841,2.0,1.0,phase_2,go,500.0,400.0,1.0,,,,,,,,,orange,circle
0.0,4.0,4.0,0.0,5.0,5.0,572.3359081894159,2.0,1.0,phase_2,go,500.0,400.0,1.0,,,,,,,,,gray,square
0.0,2.0,1.0,0.0,5.0,5.0,353.1305510550737,2.0,1.0,phase_2,go,500.0,400.0,1.0,,,,,,,,,orange,circle
0.0,8.0,4.0,1.0,5.0,5.0,544.2469788249582,2.0,1.0,phase_2,stop,500.0,400.0,3.0,,,,,,,,,cyan,I
0.0,7.0,2.0,1.0,6.0,6.0,353.5821139812469,2.0,1.0,phase_2,stop,450.0,400.0,3.0,,,,,,,,,white,hexagon
0.0,4.0,4.0,0.0,5.0,5.0,703.0500571709126,2.0,1.0,phase_2,go,450.0,350.0,1.0,,,,,,,,,gray,square
0.0,6.0,1.0,1.0,5.0,0.0,0.0,2.0,1.0,phase_2,stop,450.0,350.0,4.0,,,,,,,,,yellow,triangle
0.0,1.0,0.5,0.0,5.0,5.0,645.6752440426499,2.0,1.0,phase_2,go,500.0,350.0,1.0,,,,,,,,,blue,diamond
0.0,4.0,4.0,0.0,5.0,5.0,652.9833909589797,2.0,1.0,phase_2,go,500.0,350.0,1.0,,,,,,,,,gray,square
0.0,8.0,4.0,1.0,5.0,5.0,537.1484730858356,3.0,1.0,phase_2,stop,500.0,350.0,3.0,,,,,,,,,cyan,I
0.0,1.0,0.5,0.0,5.0,5.0,546.445557847619,3.0,1.0,phase_2,go,450.0,350.0,1.0,,,,,,,,,blue,diamond
0.0,3.0,2.0,0.0,5.0,5.0,338.7800380587578,3.0,1.0,phase_2,go,450.0,350.0,1.0,,,,,,,,,magenta,cross
0.0,2.0,1.0,0.0,5.0,5.0,362.4410948250443,3.0,1.0,phase_2,go,450.0,350.0,1.0,,,,,,,,,orange,circle
0.0,7.0,2.0,1.0,6.0,6.0,534.8377728369087,3.0,1.0,phase_2,go,450.0,350.0,1.0,,,,,,,,,white,hexagon
0.0,2.0,1.0,0.0,6.0,6.0,465.0328988209367,3.0,1.0,phase_2,go,450.0,350.0,1.0,,,,,,,,,orange,circle
0.0,8.0,4.0,1.0,6.0,6.0,376.4819491188973,3.0,1.0,phase_2,stop,450.0,350.0,3.0,,,,,,,,,cyan,I
0.0,8.0,4.0,1.0,5.0,5.0,551.4933119993657,3.0,1.0,phase_2,stop,450.0,300.0,3.0,,,,,,,,,cyan,I
0.0,2.0,1.0,0.0,5.0,5.0,631.9860450457782,3.0,1.0,phase_2,go,400.0,300.0,1.0,,,,,,,,,orange,circle
0.0,5.0,0.5,1.0,5.0,0.0,0.0,3.0,1.0,phase_2,stop,400.0,300.0,4.0,,,,,,,,,green,flipped triangle
0.0,4.0,4.0,0.0,5.0,5.0,525.5536758340895,3.0,1.0,phase_2,go,450.0,300.0,1.0,,,,,,,,,gray,square
0.0,6.0,1.0,1.0,6.0,0.0,0.0,3.0,1.0,phase_2,stop,450.0,300.0,4.0,,,,,,,,,yellow,triangle
0.0,3.0,2.0,0.0,6.0,6.0,556.4972660504282,3.0,1.0,phase_2,go,450.0,350.0,1.0,,,,,,,,,magenta,cross
0.0,2.0,1.0,0.0,5.0,5.0,517.9823010694236,3.0,1.0,phase_2,go,450.0,350.0,1.0,,,,,,,,,orange,circle
0.0,7.0,2.0,1.0,5.0,5.0,353.7187019828707,3.0,1.0,phase_2,go,450.0,350.0,1.0,,,,,,,,,white,hexagon
0.0,7.0,2.0,1.0,5.0,5.0,331.9786470383405,3.0,1.0,phase_2,go,450.0,350.0,1.0,,,,,,,,,white,hexagon
0.0,3.0,2.0,0.0,5.0,5.0,610.1714100223035,3.0,1.0,phase_2,go,450.0,350.0,1.0,,,,,,,,,magenta,cross
0.0,5.0,0.5,1.0,6.0,0.0,0.0,3.0,1.0,phase_2,stop,450.0,350.0,4.0,,,,,,,,,green,flipped triangle
0.0,7.0,2.0,1.0,6.0,6.0,586.2279410939664,3.0,1.0,phase_2,stop,450.0,400.0,3.0,,,,,,,,,white,hexagon
0.0,8.0,4.0,1.0,5.0,5.0,498.3149820473045,3.0,1.0,phase_2,stop,450.0,350.0,3.0,,,,,,,,,cyan,I
0.0,2.0,1.0,0.0,5.0,5.0,535.1730620022863,3.0,1.0,phase_2,go,400.0,350.0,1.0,,,,,,,,,orange,circle
0.0,3.0,2.0,0.0,5.0,5.0,591.1987239960581,3.0,1.0,phase_2,go,400.0,350.0,1.0,,,,,,,,,magenta,cross
0.0,4.0,4.0,0.0,5.0,5.0,694.5591128896922,3.0,1.0,phase_2,go,400.0,350.0,1.0,,,,,,,,,gray,square
0.0,7.0,2.0,1.0,6.0,6.0,471.8006660696119,3.0,1.0,phase_2,stop,400.0,350.0,3.0,,,,,,,,,white,hexagon
0.0,1.0,0.5,0.0,6.0,6.0,558.025678852573,3.0,1.0,phase_2,go,400.0,300.0,1.0,,,,,,,,,blue,diamond
0.0,1.0,0.5,0.0,5.0,5.0,638.2032248657197,3.0,1.0,phase_2,go,400.0,300.0,1.0,,,,,,,,,blue,diamond
0.0,1.0,0.5,0.0,5.0,5.0,331.2798128463328,3.0,1.0,phase_2,go,400.0,300.0,1.0,,,,,,,,,blue,diamond
0.0,5.0,0.5,1.0,6.0,0.0,0.0,3.0,1.0,phase_2,stop,400.0,300.0,4.0,,,,,,,,,green,flipped triangle
0.0,1.0,0.5,0.0,6.0,6.0,652.9016008134931,3.0,1.0,phase_2,go,400.0,350.0,1.0,,,,,,,,,blue,diamond
0.0,6.0,1.0,1.0,5.0,0.0,0.0,3.0,1.0,phase_2,stop,400.0,350.0,4.0,,,,,,,,,yellow,triangle
0.0,5.0,0.5,1.0,5.0,0.0,0.0,3.0,1.0,phase_2,stop,450.0,350.0,4.0,,,,,,,,,green,flipped triangle
0.0,2.0,1.0,0.0,6.0,6.0,521.5004768688232,3.0,1.0,phase_2,go,500.0,350.0,1.0,,,,,,,,,orange,circle
0.0,4.0,4.0,0.0,5.0,5.0,632.0065660402179,3.0,1.0,phase_2,go,500.0,350.0,1.0,,,,,,,,,gray,square
0.0,8.0,4.0,1.0,5.0,5.0,497.9740981943905,3.0,1.0,phase_2,stop,500.0,350.0,3.0,,,,,,,,,cyan,I
0.0,5.0,0.5,1.0,6.0,0.0,0.0,3.0,1.0,phase_2,stop,450.0,350.0,4.0,,,,,,,,,green,flipped triangle
0.0,6.0,1.0,1.0,6.0,0.0,0.0,3.0,1.0,phase_2,stop,450.0,400.0,4.0,,,,,,,,,yellow,triangle
0.0,6.0,1.0,1.0,5.0,5.0,719.8108490556479,4.0,1.0,phase_2,go,450.0,450.0,1.0,,,,,,,,,yellow,triangle
0.0,8.0,4.0,1.0,6.0,6.0,497.6459839381277,4.0,1.0,phase_2,stop,450.0,450.0,3.0,,,,,,,,,cyan,I
0.0,7.0,2.0,1.0,5.0,5.0,527.7341110631824,4.0,1.0,phase_2,stop,450.0,400.0,3.0,,,,,,,,,white,hexagon
0.0,2.0,1.0,0.0,5.0,5.0,497.6898801978677,4.0,1.0,phase_2,go,400.0,400.0,1.0,,,,,,,,,orange,circle
0.0,6.0,1.0,1.0,5.0,0.0,0.0,4.0,1.0,phase_2,stop,400.0,400.0,4.0,,,,,,,,,yellow,triangle
0.0,2.0,1.0,0.0,6.0,6.0,589.2192849423736,4.0,1.0,phase_2,go,450.0,400.0,1.0,,,,,,,,,orange,circle
0.0,4.0,4.0,0.0,5.0,5.0,558.5991041734815,4.0,1.0,phase_2,go,450.0,400.0,1.0,,,,,,,,,gray,square
0.0,7.0,2.0,1.0,6.0,6.0,310.5906180571764,4.0,1.0,phase_2,stop,450.0,400.0,3.0,,,,,,,,,white,hexagon
0.0,3.0,2.0,0.0,6.0,6.0,651.3629441615194,4.0,1.0,phase_2,go,450.0,350.0,1.0,,,,,,,,,magenta,cross
0.0,4.0,4.0,0.0,6.0,6.0,652.7146359439939,4.0,1.0,phase_2,go,450.0,350.0,1.0,,,,,,,,,gray,square
0.0,2.0,1.0,0.0,6.0,6.0,374.1372090298682,4.0,1.0,phase_2,go,450.0,350.0,1.0,,,,,,,,,orange,circle
0.0,5.0,0.5,1.0,5.0,5.0,746.7263890430331,4.0,1.0,phase_2,go,450.0,350.0,1.0,,,,,,,,,green,flipped triangle
0.0,3.0,2.0,0.0,5.0,5.0,340.783542022109,4.0,1.0,phase_2,go,450.0,350.0,1.0,,,,,,,,,magenta,cross
0.0,8.0,4.0,1.0,6.0,6.0,428.5083250142634,4.0,1.0,phase_2,stop,450.0,350.0,3.0,,,,,,,,,cyan,I
0.0,4.0,4.0,0.0,5.0,5.0,546.9146030955017,4.0,1.0,phase_2,go,450.0,300.0,1.0,,,,,,,,,gray,square
0.0,2.0,1.0,0.0,6.0,6.0,536.5321030840278,4.0,1.0,phase_2,go,450.0,300.0,1.0,,,,,,,,,orange,circle
0.0,6.0,1.0,1.0,5.0,0.0,0.0,4.0,1.0,phase_2,stop,450.0,300.0,4.0,,,,,,,,,yellow,triangle
0.0,7.0,2.0,1.0,5.0,5.0,561.4877010229975,4.0,1.0,phase_2,stop,500.0,300.0,3.0,,,,,,,,,white,hexagon
0.0,6.0,1.0,1.0,5.0,0.0,0.0,4.0,1.0,phase_2,stop,450.0,300.0,4.0,,,,,,,,,yellow,triangle
0.0,3.0,2.0,0.0,5.0,5.0,519.8509281035513,4.0,1.0,phase_2,go,500.0,300.0,1.0,,,,,,,,,magenta,cross
0.0,6.0,1.0,1.0,5.0,5.0,798.9603399764746,4.0,1.0,phase_2,go,500.0,300.0,1.0,,,,,,,,,yellow,triangle
0.0,8.0,4.0,1.0,5.0,5.0,726.2308499775827,4.0,1.0,phase_2,go,500.0,300.0,1.0,,,,,,,,,cyan,I
0.0,2.0,1.0,0.0,6.0,6.0,531.6632830072194,4.0,1.0,phase_2,go,500.0,300.0,1.0,,,,,,,,,orange,circle
0.0,5.0,0.5,1.0,5.0,5.0,310.6371809262782,4.0,1.0,phase_2,stop,500.0,300.0,3.0,,,,,,,,,green,flipped triangle
0.0,1.0,0.5,0.0,6.0,6.0,555.3529160097241,4.0,1.0,phase_2,go,450.0,300.0,1.0,,,,,,,,,blue,diamond
0.0,4.0,4.0,0.0,5.0,5.0,474.1979259997606,4.0,1.0,phase_2,go,450.0,300.0,1.0,,,,,,,,,gray,square
0.0,4.0,4.0,0.0,5.0,5.0,306.3653318677097,4.0,1.0,phase_2,go,450.0,300.0,1.0,,,,,,,,,gray,square
0.0,6.0,1.0,1.0,5.0,5.0,331.3596779480576,4.0,1.0,phase_2,stop,450.0,300.0,3.0,,,,,,,,,yellow,triangle
0.0,8.0,4.0,1.0,5.0,0.0,0.0,4.0,1.0,phase_2,stop,400.0,300.0,4.0,,,,,,,,,cyan,I
0.0,5.0,0.5,1.0,6.0,0.0,0.0,4.0,1.0,phase_2,stop,450.0,300.0,4.0,,,,,,,,,green,flipped triangle
0.0,4.0,4.0,0.0,6.0,6.0,464.1897641122341,4.0,1.0,phase_2,go,450.0,350.0,1.0,,,,,,,,,gray,square
0.0,7.0,2.0,1.0,6.0,6.0,494.865233078599,4.0,1.0,phase_2,stop,450.0,350.0,3.0,,,,,,,,,white,hexagon
0.0,7.0,2.0,1.0,6.0,0.0,0.0,4.0,1.0,phase_2,stop,450.0,300.0,4.0,,,,,,,,,white,hexagon
0.0,3.0,2.0,0.0,6.0,6.0,653.8167321123183,4.0,1.0,phase_2,go,450.0,350.0,1.0,,,,,,,,,magenta,cross
0.0,7.0,2.0,1.0,6.0,0.0,0.0,4.0,1.0,phase_2,stop,450.0,350.0,4.0,,,,,,,,,white,hexagon
0.0,2.0,1.0,0.0,6.0,6.0,534.042099956423,4.0,1.0,phase_2,go,450.0,400.0,1.0,,,,,,,,,orange,circle
0.0,8.0,4.0,1.0,5.0,5.0,425.4850160796195,5.0,1.0,phase_2,stop,450.0,400.0,3.0,,,,,,,,,cyan,I
0.0,7.0,2.0,1.0,5.0,0.0,0.0,5.0,1.0,phase_2,stop,400.0,400.0,4.0,,,,,,,,,white,hexagon
0.0,4.0,4.0,0.0,5.0,5.0,709.1089498717338,5.0,1.0,phase_2,go,450.0,400.0,1.0,,,,,,,,,gray,square
0.0,6.0,1.0,1.0,6.0,0.0,0.0,5.0,1.0,phase_2,stop,450.0,400.0,4.0,,,,,,,,,yellow,triangle
0.0,7.0,2.0,1.0,6.0,6.0,566.149635007605,5.0,1.0,phase_2,stop,450.0,450.0,3.0,,,,,,,,,white,hexagon
0.0,2.0,1.0,0.0,6.0,6.0,535.5762538965791,5.0,1.0,phase_2,go,450.0,400.0,1.0,,,,,,,,,orange,circle
0.0,3.0,2.0,0.0,6.0,6.0,530.8756181038916,5.0,1.0,phase_2,go,450.0,400.0,1.0,,,,,,,,,magenta,cross
0.0,8.0,4.0,1.0,6.0,0.0,0.0,5.0,1.0,phase_2,stop,450.0,400.0,4.0,,,,,,,,,cyan,I
0.0,1.0,0.5,0.0,5.0,5.0,629.9240828957409,5.0,1.0,phase_2,go,450.0,450.0,1.0,,,,,,,,,blue,diamond
0.0,4.0,4.0,0.0,5.0,5.0,636.8767409585416,5.0,1.0,phase_2,go,450.0,450.0,1.0,,,,,,,,,gray,square
0.0,3.0,2.0,0.0,5.0,5.0,608.4915769752115,5.0,1.0,phase_2,go,450.0,450.0,1.0,,,,,,,,,magenta,cross
0.0,8.0,4.0,1.0,6.0,6.0,584.4541608821601,5.0,1.0,phase_2,go,450.0,450.0,1.0,,,,,,,,,cyan,I
0.0,8.0,4.0,1.0,5.0,5.0,393.6058850958943,5.0,1.0,phase_2,stop,450.0,450.0,3.0,,,,,,,,,cyan,I
0.0,8.0,4.0,1.0,6.0,0.0,0.0,5.0,1.0,phase_2,stop,400.0,450.0,4.0,,,,,,,,,cyan,I
0.0,7.0,2.0,1.0,6.0,6.0,688.4555649012327,5.0,1.0,phase_2,go,400.0,500.0,1.0,,,,,,,,,white,hexagon
0.0,5.0,0.5,1.0,6.0,6.0,646.4274111203849,5.0,1.0,phase_2,stop,400.0,500.0,3.0,,,,,,,,,green,flipped triangle
0.0,3.0,2.0,0.0,5.0,5.0,609.0817009098828,5.0,1.0,phase_2,go,400.0,450.0,1.0,,,,,,,,,magenta,cross
0.0,4.0,4.0,0.0,6.0,6.0,637.804722879082,5.0,1.0,phase_2,go,400.0,450.0,1.0,,,,,,,,,gray,square
0.0,7.0,2.0,1.0,6.0,0.0,0.0,5.0,1.0,phase_2,stop,400.0,450.0,4.0,,,,,,,,,white,hexagon
0.0,6.0,1.0,1.0,5.0,0.0,0.0,5.0,1.0,phase_2,stop,400.0,500.0,4.0,,,,,,,,,yellow,triangle
0.0,2.0,1.0,0.0,6.0,6.0,476.5736029949039,5.0,1.0,phase_2,go,450.0,500.0,1.0,,,,,,,,,orange,circle
0.0,8.0,4.0,1.0,6.0,0.0,0.0,5.0,1.0,phase_2,stop,450.0,500.0,4.0,,,,,,,,,cyan,I
0.0,1.0,0.5,0.0,5.0,5.0,526.108899852261,5.0,1.0,phase_2,go,450.0,550.0,1.0,,,,,,,,,blue,diamond
0.0,4.0,4.0,0.0,6.0,6.0,772.38559583202,5.0,1.0,phase_2,go,450.0,550.0,1.0,,,,,,,,,gray,square
0.0,4.0,4.0,0.0,6.0,6.0,571.5240798890591,5.0,1.0,phase_2,go,450.0,550.0,1.0,,,,,,,,,gray,square
0.0,7.0,2.0,1.0,5.0,0.0,0.0,5.0,1.0,phase_2,stop,450.0,550.0,4.0,,,,,,,,,white,hexagon
0.0,1.0,0.5,0.0,6.0,6.0,544.0384719986469,5.0,1.0,phase_2,go,500.0,550.0,1.0,,,,,,,,,blue,diamond
0.0,5.0,0.5,1.0,5.0,5.0,665.2632150799036,5.0,1.0,phase_2,go,500.0,550.0,1.0,,,,,,,,,green,flipped triangle
0.0,8.0,4.0,1.0,5.0,5.0,617.0376481022686,5.0,1.0,phase_2,go,500.0,550.0,1.0,,,,,,,,,cyan,I
0.0,5.0,0.5,1.0,6.0,6.0,639.2462470103055,5.0,1.0,phase_2,stop,500.0,550.0,3.0,,,,,,,,,green,flipped triangle
0.0,2.0,1.0,0.0,5.0,5.0,640.7791192177683,5.0,1.0,phase_2,go,500.0,500.0,1.0,,,,,,,,,orange,circle
0.0,5.0,0.5,1.0,5.0,5.0,601.0109470225871,5.0,1.0,phase_2,stop,500.0,500.0,3.0,,,,,,,,,green,flipped triangle
0.0,3.0,2.0,0.0,5.0,5.0,742.6506078336388,5.0,1.0,phase_2,go,450.0,500.0,1.0,,,,,,,,,magenta,cross
0.0,6.0,1.0,1.0,6.0,6.0,686.9747049640864,5.0,1.0,phase_2,go,450.0,500.0,1.0,,,,,,,,,yellow,triangle
0.0,5.0,0.5,1.0,5.0,5.0,525.6885420531034,5.0,1.0,phase_2,stop,450.0,500.0,3.0,,,,,,,,,green,flipped triangle
0.0,8.0,4.0,1.0,6.0,6.0,558.0494250170887,5.0,1.0,phase_2,go,400.0,500.0,1.0,,,,,,,,,cyan,I
0.0,5.0,0.5,1.0,5.0,5.0,552.3132318630815,6.0,1.0,phase_2,go,400.0,500.0,1.0,,,,,,,,,green,flipped triangle
0.0,5.0,0.5,1.0,6.0,6.0,537.8412168938667,6.0,1.0,phase_2,stop,400.0,500.0,3.0,,,,,,,,,green,flipped triangle
0.0,6.0,1.0,1.0,5.0,0.0,0.0,6.0,1.0,phase_2,stop,400.0,450.0,4.0,,,,,,,,,yellow,triangle
0.0,5.0,0.5,1.0,5.0,5.0,600.6246129982173,6.0,1.0,phase_2,stop,450.0,450.0,3.0,,,,,,,,,green,flipped triangle
0.0,4.0,4.0,0.0,6.0,6.0,543.8433811068535,6.0,1.0,phase_2,go,400.0,450.0,1.0,,,,,,,,,gray,square
0.0,6.0,1.0,1.0,6.0,0.0,0.0,6.0,1.0,phase_2,stop,400.0,450.0,4.0,,,,,,,,,yellow,triangle
0.0,5.0,0.5,1.0,6.0,0.0,0.0,6.0,1.0,phase_2,stop,400.0,500.0,4.0,,,,,,,,,green,flipped triangle
0.0,3.0,2.0,0.0,6.0,6.0,643.7404421158135,6.0,1.0,phase_2,go,400.0,550.0,1.0,,,,,,,,,magenta,cross
0.0,6.0,1.0,1.0,5.0,0.0,0.0,6.0,1.0,phase_2,stop,400.0,550.0,4.0,,,,,,,,,yellow,triangle
0.0,2.0,1.0,0.0,6.0,6.0,485.7200649566948,6.0,1.0,phase_2,go,450.0,550.0,1.0,,,,,,,,,orange,circle
0.0,1.0,0.5,0.0,5.0,5.0,629.9365439917892,6.0,1.0,phase_2,go,450.0,550.0,1.0,,,,,,,,,blue,diamond
0.0,8.0,4.0,1.0,5.0,0.0,0.0,6.0,1.0,phase_2,stop,450.0,550.0,4.0,,,,,,,,,cyan,I
0.0,3.0,2.0,0.0,5.0,5.0,401.1605980340391,6.0,1.0,phase_2,go,500.0,550.0,1.0,,,,,,,,,magenta,cross
0.0,4.0,4.0,0.0,6.0,6.0,560.7968969270587,6.0,1.0,phase_2,go,500.0,550.0,1.0,,,,,,,,,gray,square
0.0,2.0,1.0,0.0,5.0,5.0,548.090985044837,6.0,1.0,phase_2,go,500.0,550.0,1.0,,,,,,,,,orange,circle
0.0,2.0,1.0,0.0,5.0,5.0,690.5395481735468,6.0,1.0,phase_2,go,500.0,550.0,1.0,,,,,,,,,orange,circle
0.0,7.0,2.0,1.0,5.0,5.0,737.4768038280308,6.0,1.0,phase_2,go,500.0,550.0,1.0,,,,,,,,,white,hexagon
0.0,2.0,1.0,0.0,5.0,5.0,561.6240359377116,6.0,1.0,phase_2,go,500.0,550.0,1.0,,,,,,,,,orange,circle
0.0,6.0,1.0,1.0,5.0,0.0,0.0,6.0,1.0,phase_2,stop,500.0,550.0,4.0,,,,,,,,,yellow,triangle
0.0,1.0,0.5,0.0,5.0,5.0,541.0452659707516,6.0,1.0,phase_2,go,550.0,550.0,1.0,,,,,,,,,blue,diamond
0.0,8.0,4.0,1.0,6.0,0.0,0.0,6.0,1.0,phase_2,stop,550.0,550.0,4.0,,,,,,,,,cyan,I
0.0,4.0,4.0,0.0,6.0,6.0,636.7281661368906,6.0,1.0,phase_2,go,550.0,600.0,1.0,,,,,,,,,gray,square
0.0,1.0,0.5,0.0,6.0,6.0,829.0662299841642,6.0,1.0,phase_2,go,550.0,600.0,1.0,,,,,,,,,blue,diamond
0.0,3.0,2.0,0.0,6.0,6.0,749.9425420537591,6.0,1.0,phase_2,go,550.0,600.0,1.0,,,,,,,,,magenta,cross
0.0,6.0,1.0,1.0,6.0,6.0,730.2550480235368,6.0,1.0,phase_2,go,550.0,600.0,1.0,,,,,,,,,yellow,triangle
0.0,8.0,4.0,1.0,6.0,0.0,0.0,6.0,1.0,phase_2,stop,550.0,600.0,4.0,,,,,,,,,cyan,I
0.0,3.0,2.0,0.0,5.0,5.0,853.3567900303751,6.0,1.0,phase_2,go,550.0,650.0,1.0,,,,,,,,,magenta,cross
0.0,2.0,1.0,0.0,5.0,5.0,604.025401873514,6.0,1.0,phase_2,go,550.0,650.0,1.0,,,,,,,,,orange,circle
0.0,5.0,0.5,1.0,5.0,0.0,0.0,6.0,1.0,phase_2,stop,550.0,650.0,4.0,,,,,,,,,green,flipped triangle
0.0,4.0,4.0,0.0,6.0,6.0,578.1032280065119,6.0,1.0,phase_2,go,600.0,650.0,1.0,,,,,,,,,gray,square
0.0,5.0,0.5,1.0,6.0,6.0,720.2038189861923,6.0,1.0,phase_2,stop,600.0,650.0,3.0,,,,,,,,,green,flipped triangle
0.0,6.0,1.0,1.0,6.0,0.0,0.0,6.0,1.0,phase_2,stop,600.0,600.0,4.0,,,,,,,,,yellow,triangle
0.0,6.0,1.0,1.0,6.0,6.0,991.656213067472,6.0,1.0,phase_2,go,600.0,650.0,1.0,,,,,,,,,yellow,triangle
0.0,1.0,0.5,0.0,5.0,5.0,848.4715919476002,6.0,1.0,phase_2,go,600.0,650.0,1.0,,,,,,,,,blue,diamond
0.0,2.0,1.0,0.0,6.0,6.0,551.9705261103809,6.0,1.0,phase_2,go,600.0,650.0,1.0,,,,,,,,,orange,circle
0.0,5.0,0.5,1.0,6.0,6.0,781.1512982007116,6.0,1.0,phase_2,go,600.0,650.0,1.0,,,,,,,,,green,flipped triangle
0.0,1.0,0.5,0.0,6.0,6.0,411.5429199300706,7.0,1.0,phase_2,go,600.0,650.0,1.0,,,,,,,,,blue,diamond
0.0,7.0,2.0,1.0,5.0,5.0,418.4895169455558,7.0,1.0,phase_2,stop,600.0,650.0,3.0,,,,,,,,,white,hexagon
0.0,1.0,0.5,0.0,5.0,5.0,537.4722860287875,7.0,1.0,phase_2,go,550.0,650.0,1.0,,,,,,,,,blue,diamond
0.0,2.0,1.0,0.0,5.0,5.0,505.73874707333744,7.0,1.0,phase_2,go,550.0,650.0,1.0,,,,,,,,,orange,circle
0.0,4.0,4.0,0.0,6.0,6.0,282.4886669404804,7.0,1.0,phase_2,go,550.0,650.0,1.0,,,,,,,,,gray,square
0.0,5.0,0.5,1.0,5.0,5.0,576.2669090181589,7.0,1.0,phase_2,stop,550.0,650.0,3.0,,,,,,,,,green,flipped triangle
0.0,5.0,0.5,1.0,5.0,5.0,544.6450519375503,7.0,1.0,phase_2,stop,500.0,650.0,3.0,,,,,,,,,green,flipped triangle
0.0,7.0,2.0,1.0,5.0,5.0,725.6791519466788,7.0,1.0,phase_2,go,450.0,650.0,1.0,,,,,,,,,white,hexagon
0.0,3.0,2.0,0.0,6.0,6.0,543.8900568988174,7.0,1.0,phase_2,go,450.0,650.0,1.0,,,,,,,,,magenta,cross
0.0,5.0,0.5,1.0,6.0,6.0,565.9293332137167,7.0,1.0,phase_2,stop,450.0,650.0,3.0,,,,,,,,,green,flipped triangle
0.0,7.0,2.0,1.0,5.0,5.0,364.2831901088357,7.0,1.0,phase_2,stop,450.0,600.0,3.0,,,,,,,,,white,hexagon
0.0,4.0,4.0,0.0,6.0,6.0,594.8544780258089,7.0,1.0,phase_2,go,400.0,600.0,1.0,,,,,,,,,gray,square
0.0,3.0,2.0,0.0,6.0,6.0,717.8401828277856,7.0,1.0,phase_2,go,400.0,600.0,1.0,,,,,,,,,magenta,cross
0.0,8.0,4.0,1.0,5.0,5.0,365.6295200344175,7.0,1.0,phase_2,go,400.0,600.0,1.0,,,,,,,,,cyan,I
0.0,7.0,2.0,1.0,5.0,0.0,0.0,7.0,1.0,phase_2,stop,400.0,600.0,4.0,,,,,,,,,white,hexagon
0.0,2.0,1.0,0.0,6.0,6.0,419.2597451619804,7.0,1.0,phase_2,go,450.0,600.0,1.0,,,,,,,,,orange,circle
0.0,5.0,0.5,1.0,6.0,6.0,680.5760629940778,7.0,1.0,phase_2,stop,450.0,600.0,3.0,,,,,,,,,green,flipped triangle
0.0,8.0,4.0,1.0,6.0,6.0,603.3373191021383,7.0,1.0,phase_2,go,450.0,550.0,1.0,,,,,,,,,cyan,I
0.0,6.0,1.0,1.0,6.0,0.0,0.0,7.0,1.0,phase_2,stop,450.0,550.0,4.0,,,,,,,,,yellow,triangle
0.0,8.0,4.0,1.0,5.0,5.0,481.364551000297,7.0,1.0,phase_2,stop,450.0,600.0,3.0,,,,,,,,,cyan,I
0.0,6.0,1.0,1.0,6.0,6.0,278.1118198763579,7.0,1.0,phase_2,go,400.0,600.0,1.0,,,,,,,,,yellow,triangle
0.0,4.0,4.0,0.0,6.0,6.0,502.39901593886316,7.0,1.0,phase_2,go,400.0,600.0,1.0,,,,,,,,,gray,square
0.0,3.0,2.0,0.0,5.0,5.0,534.7513989545405,7.0,1.0,phase_2,go,400.0,600.0,1.0,,,,,,,,,magenta,cross
0.0,7.0,2.0,1.0,5.0,0.0,0.0,7.0,1.0,phase_2,stop,400.0,600.0,4.0,,,,,,,,,white,hexagon
0.0,3.0,2.0,0.0,5.0,5.0,733.8211419992149,7.0,1.0,phase_2,go,450.0,600.0,1.0,,,,,,,,,magenta,cross
0.0,7.0,2.0,1.0,6.0,6.0,563.9271200634539,7.0,1.0,phase_2,go,450.0,600.0,1.0,,,,,,,,,white,hexagon
0.0,8.0,4.0,1.0,6.0,6.0,693.5678329318762,7.0,1.0,phase_2,stop,450.0,600.0,3.0,,,,,,,,,cyan,I
0.0,6.0,1.0,1.0,5.0,0.0,0.0,7.0,1.0,phase_2,stop,450.0,550.0,4.0,,,,,,,,,yellow,triangle
0.0,5.0,0.5,1.0,5.0,0.0,0.0,7.0,1.0,phase_2,stop,500.0,550.0,4.0,,,,,,,,,green,flipped triangle
0.0,7.0,2.0,1.0,5.0,5.0,833.7475650478154,7.0,1.0,phase_2,go,550.0,550.0,1.0,,,,,,,,,white,hexagon
0.0,7.0,2.0,1.0,5.0,5.0,520.475191064179,7.0,1.0,phase_2,stop,550.0,550.0,3.0,,,,,,,,,white,hexagon
0.0,4.0,4.0,0.0,5.0,5.0,472.6665450725704,7.0,1.0,phase_2,go,500.0,550.0,1.0,,,,,,,,,gray,square
0.0,7.0,2.0,1.0,5.0,0.0,0.0,7.0,1.0,phase_2,stop,500.0,550.0,4.0,,,,,,,,,white,hexagon
0.0,7.0,2.0,1.0,6.0,0.0,0.0,7.0,1.0,phase_2,stop,550.0,550.0,4.0,,,,,,,,,white,hexagon
0.0,5.0,0.5,1.0,5.0,0.0,0.0,7.0,1.0,phase_2,stop,550.0,600.0,4.0,,,,,,,,,green,flipped triangle
0.0,1.0,0.5,0.0,5.0,5.0,645.377109060064,7.0,1.0,phase_2,go,600.0,600.0,1.0,,,,,,,,,blue,diamond
0.0,7.0,2.0,1.0,5.0,5.0,478.390313917771,8.0,1.0,phase_2,stop,600.0,600.0,3.0,,,,,,,,,white,hexagon
0.0,2.0,1.0,0.0,6.0,6.0,560.7749160844833,8.0,1.0,phase_2,go,550.0,600.0,1.0,,,,,,,,,orange,circle
0.0,4.0,4.0,0.0,6.0,6.0,805.0290229730308,8.0,1.0,phase_2,go,550.0,600.0,1.0,,,,,,,,,gray,square
0.0,3.0,2.0,0.0,5.0,5.0,460.9290529042482,8.0,1.0,phase_2,go,550.0,600.0,1.0,,,,,,,,,magenta,cross
0.0,8.0,4.0,1.0,6.0,6.0,300.844803918153,8.0,1.0,phase_2,stop,550.0,600.0,3.0,,,,,,,,,cyan,I
0.0,8.0,4.0,1.0,6.0,6.0,576.9813291262835,8.0,1.0,phase_2,stop,550.0,550.0,3.0,,,,,,,,,cyan,I
0.0,1.0,0.5,0.0,6.0,6.0,582.9227541107684,8.0,1.0,phase_2,go,550.0,500.0,1.0,,,,,,,,,blue,diamond
0.0,8.0,4.0,1.0,6.0,0.0,0.0,8.0,1.0,phase_2,stop,550.0,500.0,4.0,,,,,,,,,cyan,I
0.0,2.0,1.0,0.0,6.0,6.0,529.4175480958074,8.0,1.0,phase_2,go,550.0,550.0,1.0,,,,,,,,,orange,circle
0.0,6.0,1.0,1.0,6.0,0.0,0.0,8.0,1.0,phase_2,stop,550.0,550.0,4.0,,,,,,,,,yellow,triangle
0.0,6.0,1.0,1.0,5.0,5.0,619.6773450355977,8.0,1.0,phase_2,stop,550.0,600.0,3.0,,,,,,,,,yellow,triangle
0.0,4.0,4.0,0.0,6.0,6.0,816.8086868245155,8.0,1.0,phase_2,go,500.0,600.0,1.0,,,,,,,,,gray,square
0.0,3.0,2.0,0.0,5.0,5.0,559.3298429157585,8.0,1.0,phase_2,go,500.0,600.0,1.0,,,,,,,,,magenta,cross
0.0,5.0,0.5,1.0,5.0,5.0,394.7460169438272,8.0,1.0,phase_2,go,500.0,600.0,1.0,,,,,,,,,green,flipped triangle
0.0,6.0,1.0,1.0,6.0,0.0,0.0,8.0,1.0,phase_2,stop,500.0,600.0,4.0,,,,,,,,,yellow,triangle
0.0,5.0,0.5,1.0,6.0,6.0,710.598377045244,8.0,1.0,phase_2,stop,500.0,650.0,3.0,,,,,,,,,green,flipped triangle
0.0,2.0,1.0,0.0,5.0,5.0,525.581169873476,8.0,1.0,phase_2,go,500.0,600.0,1.0,,,,,,,,,orange,circle
0.0,4.0,4.0,0.0,5.0,5.0,661.4503869786859,8.0,1.0,phase_2,go,500.0,600.0,1.0,,,,,,,,,gray,square
0.0,3.0,2.0,0.0,6.0,6.0,423.9533159416169,8.0,1.0,phase_2,go,500.0,600.0,1.0,,,,,,,,,magenta,cross
0.0,4.0,4.0,0.0,6.0,6.0,703.7619329057634,8.0,1.0,phase_2,go,500.0,600.0,1.0,,,,,,,,,gray,square
0.0,1.0,0.5,0.0,6.0,6.0,654.103163164109,8.0,1.0,phase_2,go,500.0,600.0,1.0,,,,,,,,,blue,diamond
0.0,4.0,4.0,0.0,5.0,5.0,522.3028829786927,8.0,1.0,phase_2,go,500.0,600.0,1.0,,,,,,,,,gray,square
0.0,2.0,1.0,0.0,6.0,6.0,490.8582710195333,8.0,1.0,phase_2,go,500.0,600.0,1.0,,,,,,,,,orange,circle
0.0,3.0,2.0,0.0,6.0,6.0,401.7948601394892,8.0,1.0,phase_2,go,500.0,600.0,1.0,,,,,,,,,magenta,cross
0.0,3.0,2.0,0.0,6.0,6.0,361.1855069175362,8.0,1.0,phase_2,go,500.0,600.0,1.0,,,,,,,,,magenta,cross
0.0,8.0,4.0,1.0,6.0,6.0,361.1529560294002,8.0,1.0,phase_2,stop,500.0,600.0,3.0,,,,,,,,,cyan,I
0.0,2.0,1.0,0.0,6.0,6.0,427.1193400491029,8.0,1.0,phase_2,go,500.0,550.0,1.0,,,,,,,,,orange,circle
0.0,1.0,0.5,0.0,6.0,6.0,471.5130708646029,8.0,1.0,phase_2,go,500.0,550.0,1.0,,,,,,,,,blue,diamond
0.0,1.0,0.5,0.0,5.0,5.0,466.515484964475,8.0,1.0,phase_2,go,500.0,550.0,1.0,,,,,,,,,blue,diamond
0.0,1.0,0.5,0.0,6.0,6.0,382.3089599609375,8.0,1.0,phase_2,go,500.0,550.0,1.0,,,,,,,,,blue,diamond
0.0,5.0,0.5,1.0,6.0,6.0,616.2023989018053,8.0,1.0,phase_2,stop,500.0,550.0,3.0,,,,,,,,,green,flipped triangle
0.0,7.0,2.0,1.0,6.0,6.0,517.6546759903431,8.0,1.0,phase_2,stop,500.0,500.0,3.0,,,,,,,,,white,hexagon
0.0,4.0,4.0,0.0,5.0,5.0,508.5439197719097,8.0,1.0,phase_2,go,500.0,450.0,1.0,,,,,,,,,gray,square
0.0,1.0,0.5,0.0,6.0,6.0,502.4305828846991,8.0,1.0,phase_2,go,500.0,450.0,1.0,,,,,,,,,blue,diamond
0.0,3.0,2.0,0.0,6.0,6.0,356.1521319206804,8.0,1.0,phase_2,go,500.0,450.0,1.0,,,,,,,,,magenta,cross
0.0,8.0,4.0,1.0,6.0,6.0,331.7117257975042,8.0,1.0,phase_2,stop,500.0,450.0,3.0,,,,,,,,,cyan,I
0.0,1.0,0.5,0.0,7.0,5.0,3353.073426987976,1.0,1.0,phase_3,,,,,196.0,4.0,98.0,147.0,49.0,294.0,196.0,245.0,blue,diamond
0.0,4.0,4.0,0.0,7.0,6.0,4061.581887071952,1.0,1.0,phase_3,,,,,245.0,5.0,98.0,196.0,147.0,49.0,294.0,245.0,gray,square
0.0,4.0,4.0,0.0,7.0,4.0,3361.180399078876,1.0,1.0,phase_3,,,,,170.0,5.0,68.0,102.0,204.0,170.0,136.0,34.0,gray,square
0.0,8.0,4.0,1.0,7.0,1.0,4353.55882300064,1.0,1.0,phase_3,,,,,270.0,5.0,270.0,216.0,108.0,162.0,324.0,54.0,cyan,I
0.0,3.0,2.0,0.0,7.0,3.0,2754.8873911146075,1.0,1.0,phase_3,,,,,162.0,3.0,270.0,108.0,162.0,324.0,54.0,216.0,magenta,cross
0.0,4.0,4.0,0.0,7.0,4.0,1850.1676970627161,1.0,1.0,phase_3,,,,,195.0,5.0,234.0,78.0,156.0,195.0,117.0,39.0,gray,square
0.0,2.0,1.0,0.0,7.0,3.0,2094.26427888684,1.0,1.0,phase_3,,,,,68.0,2.0,136.0,170.0,68.0,102.0,204.0,34.0,orange,circle
0.0,2.0,1.0,0.0,7.0,1.0,1550.1813350711018,1.0,1.0,phase_3,,,,,88.0,2.0,88.0,220.0,176.0,264.0,44.0,132.0,orange,circle
0.0,1.0,0.5,0.0,7.0,3.0,2208.7064338847995,1.0,1.0,phase_3,,,,,220.0,5.0,264.0,132.0,220.0,88.0,44.0,176.0,blue,diamond
0.0,2.0,1.0,0.0,7.0,4.0,1514.3802969250828,1.0,1.0,phase_3,,,,,108.0,2.0,324.0,162.0,216.0,108.0,270.0,54.0,orange,circle
0.0,1.0,0.5,0.0,7.0,2.0,1370.2807379886508,1.0,1.0,phase_3,,,,,196.0,4.0,98.0,196.0,49.0,294.0,245.0,147.0,blue,diamond
0.0,4.0,4.0,0.0,7.0,6.0,1918.0675470270216,1.0,1.0,phase_3,,,,,176.0,4.0,88.0,264.0,220.0,132.0,44.0,176.0,gray,square
0.0,7.0,2.0,1.0,7.0,5.0,2068.0295929778367,1.0,1.0,phase_3,,,,,117.0,3.0,156.0,39.0,195.0,234.0,117.0,78.0,white,hexagon
0.0,8.0,4.0,1.0,7.0,1.0,1469.4308589678258,1.0,1.0,phase_3,,,,,117.0,3.0,117.0,156.0,78.0,234.0,39.0,195.0,cyan,I
0.0,3.0,2.0,0.0,7.0,6.0,2048.663616878912,1.0,1.0,phase_3,,,,,68.0,2.0,204.0,102.0,34.0,136.0,170.0,68.0,magenta,cross
0.0,5.0,0.5,1.0,7.0,5.0,2119.818488135934,1.0,1.0,phase_3,,,,,132.0,3.0,264.0,220.0,88.0,44.0,132.0,176.0,green,flipped triangle
0.0,8.0,4.0,1.0,7.0,2.0,1193.0216911714524,1.0,1.0,phase_3,,,,,147.0,3.0,196.0,147.0,98.0,245.0,294.0,49.0,cyan,I
0.0,7.0,2.0,1.0,7.0,5.0,1282.147943042219,1.0,1.0,phase_3,,,,,216.0,4.0,270.0,162.0,324.0,108.0,216.0,54.0,white,hexagon
0.0,4.0,4.0,0.0,7.0,2.0,883.8899929542094,1.0,1.0,phase_3,,,,,176.0,4.0,220.0,176.0,44.0,264.0,132.0,88.0,gray,square
0.0,7.0,2.0,1.0,7.0,4.0,1528.255170909688,1.0,1.0,phase_3,,,,,195.0,5.0,39.0,78.0,156.0,195.0,234.0,117.0,white,hexagon
0.0,2.0,1.0,0.0,7.0,5.0,1164.4301521591842,2.0,1.0,phase_3,,,,,98.0,2.0,196.0,49.0,294.0,147.0,98.0,245.0,orange,circle
0.0,5.0,0.5,1.0,7.0,2.0,798.9262458868325,2.0,1.0,phase_3,,,,,108.0,2.0,54.0,108.0,216.0,270.0,162.0,324.0,green,flipped triangle
0.0,7.0,2.0,1.0,7.0,1.0,1786.0109389293941,2.0,1.0,phase_3,,,,,270.0,5.0,270.0,54.0,162.0,108.0,216.0,324.0,white,hexagon
0.0,7.0,2.0,1.0,7.0,4.0,2099.361168919131,2.0,1.0,phase_3,,,,,204.0,6.0,102.0,170.0,68.0,204.0,136.0,34.0,white,hexagon
0.0,2.0,1.0,0.0,7.0,2.0,2332.280462840572,2.0,1.0,phase_3,,,,,162.0,3.0,54.0,162.0,216.0,270.0,324.0,108.0,orange,circle
0.0,3.0,2.0,0.0,7.0,5.0,2164.869244908914,2.0,1.0,phase_3,,,,,195.0,5.0,117.0,234.0,156.0,39.0,195.0,78.0,magenta,cross
0.0,3.0,2.0,0.0,7.0,1.0,886.0640749335289,2.0,1.0,phase_3,,,,,196.0,4.0,196.0,245.0,294.0,49.0,98.0,147.0,magenta,cross
0.0,5.0,0.5,1.0,7.0,5.0,1076.7428760882467,2.0,1.0,phase_3,,,,,147.0,3.0,245.0,294.0,98.0,196.0,147.0,49.0,green,flipped triangle
0.0,3.0,2.0,0.0,7.0,5.0,2014.818585012108,2.0,1.0,phase_3,,,,,162.0,3.0,270.0,108.0,324.0,216.0,162.0,54.0,magenta,cross
0.0,4.0,4.0,0.0,7.0,3.0,1627.4961580056695,2.0,1.0,phase_3,,,,,245.0,5.0,98.0,147.0,245.0,294.0,49.0,196.0,gray,square
0.0,8.0,4.0,1.0,7.0,4.0,3384.607987012714,2.0,1.0,phase_3,,,,,170.0,5.0,204.0,34.0,102.0,170.0,136.0,68.0,cyan,I
0.0,2.0,1.0,0.0,7.0,2.0,1804.542399942875,2.0,1.0,phase_3,,,,,78.0,2.0,117.0,78.0,39.0,195.0,234.0,156.0,orange,circle
0.0,6.0,1.0,1.0,7.0,5.0,2573.3883818611503,2.0,1.0,phase_3,,,,,88.0,2.0,44.0,264.0,176.0,220.0,88.0,132.0,yellow,triangle
0.0,5.0,0.5,1.0,7.0,2.0,1044.8354890104383,2.0,1.0,phase_3,,,,,108.0,2.0,270.0,108.0,324.0,54.0,216.0,162.0,green,flipped triangle
0.0,1.0,0.5,0.0,7.0,4.0,1113.0502049345523,2.0,1.0,phase_3,,,,,195.0,5.0,156.0,78.0,117.0,195.0,39.0,234.0,blue,diamond
0.0,2.0,1.0,0.0,7.0,4.0,1849.7939659282563,2.0,1.0,phase_3,,,,,196.0,4.0,245.0,294.0,49.0,196.0,98.0,147.0,orange,circle
0.0,4.0,4.0,0.0,7.0,4.0,1885.190814966336,2.0,1.0,phase_3,,,,,136.0,4.0,170.0,68.0,204.0,136.0,102.0,34.0,gray,square
0.0,1.0,0.5,0.0,7.0,1.0,1475.2612439915538,2.0,1.0,phase_3,,,,,117.0,3.0,117.0,195.0,234.0,39.0,78.0,156.0,blue,diamond
0.0,5.0,0.5,1.0,7.0,5.0,1651.9906150642782,2.0,1.0,phase_3,,,,,117.0,3.0,195.0,234.0,156.0,78.0,117.0,39.0,green,flipped triangle
0.0,2.0,1.0,0.0,7.0,2.0,733.2489821128547,2.0,1.0,phase_3,,,,,195.0,5.0,117.0,195.0,156.0,234.0,39.0,78.0,orange,circle
0.0,7.0,2.0,1.0,7.0,5.0,1158.687761053443,3.0,1.0,phase_3,,,,,34.0,1.0,136.0,170.0,68.0,204.0,34.0,102.0,white,hexagon
0.0,6.0,1.0,1.0,7.0,4.0,1059.493743814528,3.0,1.0,phase_3,,,,,162.0,3.0,108.0,270.0,324.0,162.0,54.0,216.0,yellow,triangle
0.0,3.0,2.0,0.0,7.0,3.0,1388.2425168994814,3.0,1.0,phase_3,,,,,176.0,4.0,132.0,44.0,176.0,88.0,264.0,220.0,magenta,cross
0.0,8.0,4.0,1.0,7.0,1.0,1298.3795520849526,3.0,1.0,phase_3,,,,,220.0,5.0,220.0,88.0,176.0,44.0,264.0,132.0,cyan,I
0.0,5.0,0.5,1.0,7.0,3.0,1588.8388950843364,3.0,1.0,phase_3,,,,,98.0,2.0,196.0,294.0,98.0,49.0,245.0,147.0,green,flipped triangle
0.0,7.0,2.0,1.0,7.0,1.0,976.1808449402452,3.0,1.0,phase_3,,,,,176.0,4.0,176.0,132.0,88.0,220.0,44.0,264.0,white,hexagon
0.0,8.0,4.0,1.0,7.0,3.0,1849.0708658937365,3.0,1.0,phase_3,,,,,195.0,5.0,78.0,117.0,195.0,156.0,234.0,39.0,cyan,I
0.0,6.0,1.0,1.0,7.0,5.0,1754.5402648393065,3.0,1.0,phase_3,,,,,234.0,6.0,39.0,117.0,195.0,78.0,234.0,156.0,yellow,triangle
0.0,8.0,4.0,1.0,7.0,4.0,1219.594185007736,3.0,1.0,phase_3,,,,,216.0,4.0,324.0,54.0,270.0,216.0,108.0,162.0,cyan,I
0.0,6.0,1.0,1.0,7.0,4.0,1300.6104708183557,3.0,1.0,phase_3,,,,,195.0,5.0,156.0,117.0,78.0,195.0,234.0,39.0,yellow,triangle
0.0,3.0,2.0,0.0,7.0,5.0,1373.0818289332092,3.0,1.0,phase_3,,,,,156.0,4.0,39.0,195.0,117.0,78.0,156.0,234.0,magenta,cross
0.0,7.0,2.0,1.0,7.0,1.0,1160.219666082412,3.0,1.0,phase_3,,,,,245.0,5.0,245.0,49.0,294.0,196.0,147.0,98.0,white,hexagon
0.0,3.0,2.0,0.0,7.0,2.0,1473.8867150153965,3.0,1.0,phase_3,,,,,196.0,4.0,147.0,196.0,98.0,49.0,245.0,294.0,magenta,cross
0.0,1.0,0.5,0.0,7.0,5.0,1401.3193061109632,3.0,1.0,phase_3,,,,,204.0,6.0,136.0,34.0,102.0,68.0,204.0,170.0,blue,diamond
0.0,6.0,1.0,1.0,7.0,2.0,1244.7410270106047,3.0,1.0,phase_3,,,,,98.0,2.0,196.0,98.0,49.0,294.0,245.0,147.0,yellow,triangle
0.0,2.0,1.0,0.0,7.0,2.0,1302.1657799836248,3.0,1.0,phase_3,,,,,136.0,4.0,68.0,136.0,204.0,170.0,34.0,102.0,orange,circle
0.0,6.0,1.0,1.0,7.0,2.0,1919.8186688590797,3.0,1.0,phase_3,,,,,162.0,3.0,108.0,162.0,324.0,216.0,270.0,54.0,yellow,triangle
0.0,8.0,4.0,1.0,7.0,5.0,1657.5473661068827,3.0,1.0,phase_3,,,,,204.0,6.0,170.0,34.0,68.0,102.0,204.0,136.0,cyan,I
0.0,1.0,0.5,0.0,7.0,2.0,1760.8875851146877,3.0,1.0,phase_3,,,,,324.0,6.0,54.0,324.0,108.0,270.0,216.0,162.0,blue,diamond
0.0,4.0,4.0,0.0,7.0,3.0,3340.433950070292,3.0,1.0,phase_3,,,,,162.0,3.0,324.0,54.0,162.0,270.0,108.0,216.0,gray,square
0.0,6.0,1.0,1.0,7.0,5.0,1961.7365167941896,4.0,1.0,phase_3,,,,,49.0,1.0,196.0,245.0,98.0,147.0,49.0,294.0,yellow,triangle
0.0,1.0,0.5,0.0,7.0,4.0,2259.31910215877,4.0,1.0,phase_3,,,,,162.0,3.0,54.0,270.0,324.0,162.0,216.0,108.0,blue,diamond
0.0,6.0,1.0,1.0,7.0,2.0,1342.02414797619,4.0,1.0,phase_3,,,,,132.0,3.0,176.0,132.0,88.0,44.0,220.0,264.0,yellow,triangle
0.0,6.0,1.0,1.0,7.0,6.0,1485.916490899399,4.0,1.0,phase_3,,,,,136.0,4.0,170.0,68.0,102.0,34.0,204.0,136.0,yellow,triangle
0.0,1.0,0.5,0.0,7.0,6.0,2303.284228080884,4.0,1.0,phase_3,,,,,132.0,3.0,44.0,220.0,176.0,88.0,264.0,132.0,blue,diamond
0.0,6.0,1.0,1.0,7.0,6.0,1489.7996180225164,4.0,1.0,phase_3,,,,,68.0,2.0,34.0,102.0,170.0,136.0,204.0,68.0,yellow,triangle
0.0,5.0,0.5,1.0,7.0,4.0,1835.312447976321,4.0,1.0,phase_3,,,,,102.0,3.0,170.0,136.0,204.0,102.0,68.0,34.0,green,flipped triangle
0.0,5.0,0.5,1.0,7.0,6.0,1731.8636919371784,4.0,1.0,phase_3,,,,,117.0,3.0,78.0,195.0,156.0,39.0,234.0,117.0,green,flipped triangle
0.0,2.0,1.0,0.0,7.0,6.0,2549.647982930765,4.0,1.0,phase_3,,,,,176.0,4.0,264.0,132.0,44.0,88.0,220.0,176.0,orange,circle
0.0,7.0,2.0,1.0,7.0,2.0,1565.1725658681244,4.0,1.0,phase_3,,,,,88.0,2.0,220.0,88.0,44.0,132.0,264.0,176.0,white,hexagon
0.0,7.0,2.0,1.0,7.0,4.0,1494.5463580079377,4.0,1.0,phase_3,,,,,98.0,2.0,147.0,245.0,49.0,98.0,294.0,196.0,white,hexagon
0.0,5.0,0.5,1.0,7.0,5.0,1096.629209117964,4.0,1.0,phase_3,,,,,102.0,3.0,34.0,68.0,136.0,170.0,102.0,204.0,green,flipped triangle
0.0,8.0,4.0,1.0,7.0,6.0,1368.4652079828084,4.0,1.0,phase_3,,,,,245.0,5.0,196.0,98.0,294.0,147.0,49.0,245.0,cyan,I
0.0,4.0,4.0,0.0,7.0,2.0,1305.3408148698509,4.0,1.0,phase_3,,,,,216.0,4.0,162.0,216.0,54.0,324.0,270.0,108.0,gray,square
0.0,3.0,2.0,0.0,7.0,6.0,910.506404004991,4.0,1.0,phase_3,,,,,136.0,4.0,68.0,102.0,170.0,34.0,204.0,136.0,magenta,cross
0.0,8.0,4.0,1.0,7.0,1.0,1143.2461158838123,4.0,1.0,phase_3,,,,,220.0,5.0,220.0,176.0,44.0,88.0,132.0,264.0,cyan,I
0.0,4.0,4.0,0.0,7.0,2.0,853.5051639191806,4.0,1.0,phase_3,,,,,195.0,5.0,78.0,195.0,234.0,156.0,39.0,117.0,gray,square
0.0,5.0,0.5,1.0,7.0,1.0,1151.203775079921,4.0,1.0,phase_3,,,,,264.0,6.0,264.0,88.0,132.0,176.0,44.0,220.0,green,flipped triangle
0.0,3.0,2.0,0.0,7.0,5.0,963.7353860307484,4.0,1.0,phase_3,,,,,44.0,1.0,220.0,176.0,132.0,264.0,44.0,88.0,magenta,cross
0.0,1.0,0.5,0.0,7.0,6.0,1244.860216975212,4.0,1.0,phase_3,,,,,204.0,6.0,136.0,102.0,68.0,170.0,34.0,204.0,blue,diamond
