raw_reward_magnitude,stim_reward,stepwise_reward_magnitude,paired_with_stopping,stim_location,response,reaction_time,block,num_trial_presentations,which_phase,stop_signal_trial_type,left_SSD,right_SSD,accuracy,chosen_bidding_amount,chosen_bidding_level,possible_bid_1,possible_bid_2,possible_bid_3,possible_bid_4,possible_bid_5,possible_bid_6,color_text,shape_text
116.0,2.0,1.0,0.0,3.0,3.0,372.7117399685085,1.0,1.0,phase_1,,,,,,,,,,,,,white,triangle
84.0,2.0,1.0,0.0,1.0,1.0,240.0126969441771,1.0,1.0,phase_1,,,,,,,,,,,,,white,triangle
415.0,4.0,4.0,0.0,4.0,4.0,259.8584508523345,1.0,1.0,phase_1,,,,,,,,,,,,,green,diamond
113.0,6.0,1.0,1.0,1.0,1.0,258.9206760749221,1.0,1.0,phase_1,,,,,,,,,,,,,cyan,hexagon
58.0,5.0,0.5,1.0,1.0,1.0,300.9527109097689,1.0,1.0,phase_1,,,,,,,,,,,,,magenta,flipped triangle
0.0,8.0,0.0,1.0,4.0,4.0,313.0366199184209,1.0,2.0,phase_1,,,,,,,,,,,,,blue,circle
424.0,8.0,4.0,1.0,2.0,2.0,244.6540668606758,1.0,1.0,phase_1,,,,,,,,,,,,,blue,circle
87.0,6.0,1.0,1.0,3.0,3.0,281.2951460946351,1.0,1.0,phase_1,,,,,,,,,,,,,cyan,hexagon
116.0,6.0,1.0,1.0,2.0,2.0,253.63973015919328,1.0,1.0,phase_1,,,,,,,,,,,,,cyan,hexagon
0.0,6.0,0.0,1.0,4.0,4.0,258.292858954519,1.0,1.0,phase_1,,,,,,,,,,,,,cyan,hexagon
114.0,6.0,1.0,1.0,2.0,2.0,246.0493738763034,1.0,1.0,phase_1,,,,,,,,,,,,,cyan,hexagon
206.0,7.0,2.0,1.0,3.0,3.0,265.7587570138275,1.0,1.0,phase_1,,,,,,,,,,,,,orange,square
390.0,8.0,4.0,1.0,4.0,4.0,273.8004738930613,1.0,1.0,phase_1,,,,,,,,,,,,,blue,circle
37.0,1.0,0.5,0.0,1.0,1.0,261.5970422048121,1.0,1.0,phase_1,,,,,,,,,,,,,gray,I
45.0,1.0,0.5,0.0,4.0,4.0,280.6191120762378,1.0,1.0,phase_1,,,,,,,,,,,,,gray,I
105.0,6.0,1.0,1.0,1.0,1.0,269.0548349637538,1.0,1.0,phase_1,,,,,,,,,,,,,cyan,hexagon
0.0,3.0,0.0,0.0,1.0,1.0,260.4340380057692,1.0,1.0,phase_1,,,,,,,,,,,,,yellow,cross
65.0,1.0,0.5,0.0,4.0,4.0,288.8538399711251,1.0,1.0,phase_1,,,,,,,,,,,,,gray,I
74.0,1.0,0.5,0.0,3.0,3.0,276.5009489376098,1.0,1.0,phase_1,,,,,,,,,,,,,gray,I
209.0,3.0,2.0,0.0,2.0,2.0,263.5230699088424,1.0,1.0,phase_1,,,,,,,,,,,,,yellow,cross
394.0,4.0,4.0,0.0,4.0,4.0,271.6279909946024,1.0,1.0,phase_1,,,,,,,,,,,,,green,diamond
124.0,6.0,1.0,1.0,1.0,1.0,328.6224189214408,1.0,1.0,phase_1,,,,,,,,,,,,,cyan,hexagon
105.0,2.0,1.0,0.0,4.0,4.0,273.6951159313321,1.0,1.0,phase_1,,,,,,,,,,,,,white,triangle
57.0,5.0,0.5,1.0,2.0,2.0,234.2453300952911,1.0,1.0,phase_1,,,,,,,,,,,,,magenta,flipped triangle
0.0,1.0,0.0,0.0,2.0,2.0,296.7034000903368,1.0,1.0,phase_1,,,,,,,,,,,,,gray,I
0.0,2.0,0.0,0.0,4.0,4.0,251.4044782146811,1.0,1.0,phase_1,,,,,,,,,,,,,white,triangle
423.0,4.0,4.0,0.0,2.0,2.0,226.1431640945375,1.0,1.0,phase_1,,,,,,,,,,,,,green,diamond
200.0,3.0,2.0,0.0,4.0,4.0,256.2036621384322,1.0,1.0,phase_1,,,,,,,,,,,,,yellow,cross
0.0,1.0,0.0,0.0,4.0,4.0,325.7676439825445,1.0,1.0,phase_1,,,,,,,,,,,,,gray,I
37.0,5.0,0.5,1.0,3.0,3.0,310.2043650578707,1.0,1.0,phase_1,,,,,,,,,,,,,magenta,flipped triangle
98.0,2.0,1.0,0.0,2.0,2.0,309.6581408753991,1.0,1.0,phase_1,,,,,,,,,,,,,white,triangle
98.0,2.0,1.0,0.0,4.0,4.0,289.7855739574879,1.0,1.0,phase_1,,,,,,,,,,,,,white,triangle
114.0,2.0,1.0,0.0,2.0,2.0,239.2826140858233,1.0,1.0,phase_1,,,,,,,,,,,,,white,triangle
77.0,2.0,1.0,0.0,2.0,2.0,260.6169178616255,1.0,1.0,phase_1,,,,,,,,,,,,,white,triangle
383.0,4.0,4.0,0.0,3.0,3.0,280.3575289435684,1.0,1.0,phase_1,,,,,,,,,,,,,green,diamond
87.0,2.0,1.0,0.0,1.0,1.0,316.7596119455993,1.0,1.0,phase_1,,,,,,,,,,,,,white,triangle
0.0,6.0,0.0,1.0,4.0,4.0,279.5742771122604,1.0,1.0,phase_1,,,,,,,,,,,,,cyan,hexagon
0.0,1.0,0.0,0.0,1.0,1.0,270.641254959628,1.0,1.0,phase_1,,,,,,,,,,,,,gray,I
98.0,6.0,1.0,1.0,4.0,4.0,357.1205730549991,1.0,2.0,phase_1,,,,,,,,,,,,,cyan,hexagon
0.0,8.0,0.0,1.0,2.0,2.0,289.5027929916978,1.0,1.0,phase_1,,,,,,,,,,,,,blue,circle
0.0,3.0,0.0,0.0,4.0,4.0,273.1840198393911,1.0,1.0,phase_1,,,,,,,,,,,,,yellow,cross
32.0,5.0,0.5,1.0,4.0,4.0,324.060260085389,1.0,1.0,phase_1,,,,,,,,,,,,,magenta,flipped triangle
32.0,1.0,0.5,0.0,4.0,4.0,296.4550971519202,1.0,1.0,phase_1,,,,,,,,,,,,,gray,I
0.0,2.0,0.0,0.0,1.0,1.0,333.4510319400579,1.0,1.0,phase_1,,,,,,,,,,,,,white,triangle
67.0,5.0,0.5,1.0,2.0,2.0,267.795552033931,1.0,1.0,phase_1,,,,,,,,,,,,,magenta,flipped triangle
405.0,8.0,4.0,1.0,2.0,2.0,277.9146530665457,1.0,1.0,phase_1,,,,,,,,,,,,,blue,circle
0.0,4.0,0.0,0.0,2.0,2.0,310.1345431059599,1.0,1.0,phase_1,,,,,,,,,,,,,green,diamond
0.0,8.0,0.0,1.0,4.0,4.0,287.9113908857107,1.0,1.0,phase_1,,,,,,,,,,,,,blue,circle
176.0,7.0,2.0,1.0,3.0,3.0,294.1992471460253,1.0,1.0,phase_1,,,,,,,,,,,,,orange,square
0.0,7.0,0.0,1.0,4.0,4.0,276.5209458302706,1.0,1.0,phase_1,,,,,,,,,,,,,orange,square
178.0,3.0,2.0,0.0,3.0,3.0,285.3345980402082,1.0,1.0,phase_1,,,,,,,,,,,,,yellow,cross
187.0,7.0,2.0,1.0,3.0,3.0,338.0853270646184,1.0,1.0,phase_1,,,,,,,,,,,,,orange,square
63.0,5.0,0.5,1.0,3.0,3.0,334.5360660459846,1.0,1.0,phase_1,,,,,,,,,,,,,magenta,flipped triangle
393.0,4.0,4.0,0.0,4.0,4.0,356.7736609838903,1.0,1.0,phase_1,,,,,,,,,,,,,green,diamond
195.0,7.0,2.0,1.0,2.0,2.0,312.7992739900946,1.0,1.0,phase_1,,,,,,,,,,,,,orange,square
38.0,1.0,0.5,0.0,2.0,2.0,312.0666199829429,1.0,1.0,phase_1,,,,,,,,,,,,,gray,I
52.0,5.0,0.5,1.0,1.0,1.0,358.238979941234,1.0,1.0,phase_1,,,,,,,,,,,,,magenta,flipped triangle
392.0,4.0,4.0,0.0,3.0,3.0,304.2918359860778,1.0,1.0,phase_1,,,,,,,,,,,,,green,diamond
96.0,6.0,1.0,1.0,2.0,2.0,266.4341127965599,1.0,1.0,phase_1,,,,,,,,,,,,,cyan,hexagon
223.0,3.0,2.0,0.0,3.0,3.0,312.2376089449972,1.0,1.0,phase_1,,,,,,,,,,,,,yellow,cross
210.0,3.0,2.0,0.0,4.0,4.0,293.3731900993734,1.0,1.0,phase_1,,,,,,,,,,,,,yellow,cross
66.0,1.0,0.5,0.0,4.0,4.0,320.7337700296193,1.0,1.0,phase_1,,,,,,,,,,,,,gray,I
0.0,2.0,0.0,0.0,3.0,3.0,374.8242449946701,1.0,1.0,phase_1,,,,,,,,,,,,,white,triangle
419.0,4.0,4.0,0.0,1.0,1.0,315.9165740944445,1.0,1.0,phase_1,,,,,,,,,,,,,green,diamond
115.0,2.0,1.0,0.0,1.0,1.0,279.7458369750529,1.0,1.0,phase_1,,,,,,,,,,,,,white,triangle
105.0,6.0,1.0,1.0,2.0,2.0,293.2590588461607,1.0,1.0,phase_1,,,,,,,,,,,,,cyan,hexagon
47.0,1.0,0.5,0.0,1.0,1.0,296.2220499757677,1.0,1.0,phase_1,,,,,,,,,,,,,gray,I
0.0,6.0,0.0,1.0,2.0,2.0,295.5956731457263,1.0,1.0,phase_1,,,,,,,,,,,,,cyan,hexagon
38.0,5.0,0.5,1.0,3.0,3.0,313.9812429435551,1.0,1.0,phase_1,,,,,,,,,,,,,magenta,flipped triangle
35.0,5.0,0.5,1.0,4.0,4.0,321.6754111927002,1.0,1.0,phase_1,,,,,,,,,,,,,magenta,flipped triangle
183.0,7.0,2.0,1.0,3.0,3.0,285.7853090390563,1.0,1.0,phase_1,,,,,,,,,,,,,orange,square
386.0,4.0,4.0,0.0,1.0,1.0,304.5044669415802,1.0,2.0,phase_1,,,,,,,,,,,,,green,diamond
411.0,4.0,4.0,0.0,2.0,2.0,410.535022849217,1.0,1.0,phase_1,,,,,,,,,,,,,green,diamond
219.0,3.0,2.0,0.0,1.0,1.0,317.6108370535075,1.0,1.0,phase_1,,,,,,,,,,,,,yellow,cross
42.0,1.0,0.5,0.0,1.0,1.0,316.3088839501142,1.0,1.0,phase_1,,,,,,,,,,,,,gray,I
0.0,1.0,0.0,0.0,1.0,1.0,280.8980350382626,1.0,1.0,phase_1,,,,,,,,,,,,,gray,I
210.0,7.0,2.0,1.0,2.0,2.0,275.4543412011117,1.0,1.0,phase_1,,,,,,,,,,,,,orange,square
105.0,2.0,1.0,0.0,3.0,3.0,344.7654610499739,1.0,1.0,phase_1,,,,,,,,,,,,,white,triangle
383.0,8.0,4.0,1.0,3.0,3.0,336.0147401690483,1.0,1.0,phase_1,,,,,,,,,,,,,blue,circle
221.0,7.0,2.0,1.0,4.0,4.0,299.16787520051,1.0,1.0,phase_1,,,,,,,,,,,,,orange,square
116.0,2.0,1.0,0.0,3.0,3.0,303.5532829817384,1.0,1.0,phase_1,,,,,,,,,,,,,white,triangle
182.0,7.0,2.0,1.0,4.0,4.0,334.4056489877403,1.0,1.0,phase_1,,,,,,,,,,,,,orange,square
66.0,5.0,0.5,1.0,4.0,4.0,327.9582199174911,1.0,1.0,phase_1,,,,,,,,,,,,,magenta,flipped triangle
424.0,4.0,4.0,0.0,4.0,4.0,303.6961841862649,1.0,1.0,phase_1,,,,,,,,,,,,,green,diamond
116.0,6.0,1.0,1.0,2.0,2.0,368.9085280057043,1.0,1.0,phase_1,,,,,,,,,,,,,cyan,hexagon
179.0,7.0,2.0,1.0,1.0,1.0,358.240540837869,1.0,1.0,phase_1,,,,,,,,,,,,,orange,square
101.0,2.0,1.0,0.0,4.0,4.0,346.558446995914,1.0,1.0,phase_1,,,,,,,,,,,,,white,triangle
84.0,6.0,1.0,1.0,4.0,4.0,338.2975989952683,1.0,1.0,phase_1,,,,,,,,,,,,,cyan,hexagon
416.0,8.0,4.0,1.0,1.0,1.0,327.4430350866169,1.0,1.0,phase_1,,,,,,,,,,,,,blue,circle
190.0,7.0,2.0,1.0,1.0,1.0,385.4910579975694,1.0,1.0,phase_1,,,,,,,,,,,,,orange,square
0.0,6.0,0.0,1.0,2.0,2.0,343.7545080669224,1.0,1.0,phase_1,,,,,,,,,,,,,cyan,hexagon
29.0,5.0,0.5,1.0,1.0,1.0,333.648675121367,1.0,1.0,phase_1,,,,,,,,,,,,,magenta,flipped triangle
115.0,6.0,1.0,1.0,2.0,2.0,343.6020910739898,1.0,1.0,phase_1,,,,,,,,,,,,,cyan,hexagon
187.0,7.0,2.0,1.0,2.0,2.0,317.627684911713,1.0,1.0,phase_1,,,,,,,,,,,,,orange,square
0.0,8.0,0.0,1.0,4.0,4.0,361.1215020064264,1.0,1.0,phase_1,,,,,,,,,,,,,blue,circle
0.0,1.0,0.0,0.0,2.0,2.0,375.4750099033117,1.0,1.0,phase_1,,,,,,,,,,,,,gray,I
39.0,5.0,0.5,1.0,1.0,1.0,332.70184090361,1.0,1.0,phase_1,,,,,,,,,,,,,magenta,flipped triangle
0.0,3.0,0.0,0.0,1.0,1.0,321.5267520863563,1.0,1.0,phase_1,,,,,,,,,,,,,yellow,cross
87.0,2.0,1.0,0.0,1.0,1.0,319.0777048002928,1.0,1.0,phase_1,,,,,,,,,,,,,white,triangle
419.0,8.0,4.0,1.0,1.0,1.0,297.6007431279868,1.0,1.0,phase_1,,,,,,,,,,,,,blue,circle
0.0,7.0,0.0,1.0,3.0,3.0,395.1749969273805,2.0,1.0,phase_1,,,,,,,,,,,,,orange,square
74.0,5.0,0.5,1.0,4.0,4.0,321.2438651826232,2.0,1.0,phase_1,,,,,,,,,,,,,magenta,flipped triangle
64.0,1.0,0.5,0.0,2.0,2.0,300.8439498953521,2.0,1.0,phase_1,,,,,,,,,,,,,gray,I
80.0,6.0,1.0,1.0,4.0,4.0,529.127337038517,2.0,1.0,phase_1,,,,,,,,,,,,,cyan,hexagon
186.0,7.0,2.0,1.0,2.0,2.0,383.3923269994557,2.0,1.0,phase_1,,,,,,,,,,,,,orange,square
0.0,1.0,0.0,0.0,3.0,3.0,323.2959359884262,2.0,1.0,phase_1,,,,,,,,,,,,,gray,I
0.0,7.0,0.0,1.0,3.0,3.0,312.5908090732991,2.0,1.0,phase_1,,,,,,,,,,,,,orange,square
389.0,4.0,4.0,0.0,1.0,1.0,316.6415828745812,2.0,1.0,phase_1,,,,,,,,,,,,,green,diamond
423.0,8.0,4.0,1.0,1.0,1.0,320.1889039482921,2.0,1.0,phase_1,,,,,,,,,,,,,blue,circle
396.0,4.0,4.0,0.0,1.0,1.0,316.8639361392706,2.0,1.0,phase_1,,,,,,,,,,,,,green,diamond
0.0,5.0,0.0,1.0,2.0,2.0,280.7190618477762,2.0,1.0,phase_1,,,,,,,,,,,,,magenta,flipped triangle
416.0,8.0,4.0,1.0,4.0,4.0,337.3745619319379,2.0,1.0,phase_1,,,,,,,,,,,,,blue,circle
0.0,3.0,0.0,0.0,4.0,4.0,308.6684588342905,2.0,1.0,phase_1,,,,,,,,,,,,,yellow,cross
92.0,2.0,1.0,0.0,2.0,2.0,305.414754897356,2.0,1.0,phase_1,,,,,,,,,,,,,white,triangle
192.0,3.0,2.0,0.0,4.0,4.0,302.3625009227544,2.0,1.0,phase_1,,,,,,,,,,,,,yellow,cross
400.0,8.0,4.0,1.0,1.0,1.0,346.1836820933968,2.0,1.0,phase_1,,,,,,,,,,,,,blue,circle
66.0,5.0,0.5,1.0,3.0,3.0,340.750030009076,2.0,1.0,phase_1,,,,,,,,,,,,,magenta,flipped triangle
187.0,3.0,2.0,0.0,3.0,3.0,324.4915711693465,2.0,1.0,phase_1,,,,,,,,,,,,,yellow,cross
90.0,6.0,1.0,1.0,3.0,3.0,281.7246569320559,2.0,1.0,phase_1,,,,,,,,,,,,,cyan,hexagon
194.0,7.0,2.0,1.0,3.0,3.0,286.4599199965596,2.0,1.0,phase_1,,,,,,,,,,,,,orange,square
219.0,7.0,2.0,1.0,3.0,3.0,289.7183001041412,2.0,1.0,phase_1,,,,,,,,,,,,,orange,square
420.0,4.0,4.0,0.0,1.0,1.0,317.4170618876815,2.0,1.0,phase_1,,,,,,,,,,,,,green,diamond
114.0,6.0,1.0,1.0,3.0,3.0,256.4746020361781,2.0,1.0,phase_1,,,,,,,,,,,,,cyan,hexagon
80.0,2.0,1.0,0.0,1.0,1.0,304.2361210100353,2.0,1.0,phase_1,,,,,,,,,,,,,white,triangle
51.0,1.0,0.5,0.0,1.0,1.0,290.199012029916,2.0,1.0,phase_1,,,,,,,,,,,,,gray,I
87.0,2.0,1.0,0.0,3.0,3.0,224.9977798201143,2.0,1.0,phase_1,,,,,,,,,,,,,white,triangle
97.0,6.0,1.0,1.0,1.0,1.0,254.52290195971727,2.0,1.0,phase_1,,,,,,,,,,,,,cyan,hexagon
74.0,1.0,0.5,0.0,3.0,3.0,296.8702400103211,2.0,1.0,phase_1,,,,,,,,,,,,,gray,I
196.0,7.0,2.0,1.0,2.0,2.0,382.7647848520428,2.0,1.0,phase_1,,,,,,,,,,,,,orange,square
199.0,3.0,2.0,0.0,1.0,1.0,307.8075188677758,2.0,1.0,phase_1,,,,,,,,,,,,,yellow,cross
389.0,8.0,4.0,1.0,4.0,4.0,343.3355859015137,2.0,1.0,phase_1,,,,,,,,,,,,,blue,circle
0.0,5.0,0.0,1.0,2.0,2.0,306.3577529974282,2.0,1.0,phase_1,,,,,,,,,,,,,magenta,flipped triangle
379.0,4.0,4.0,0.0,4.0,4.0,307.7412459533661,2.0,1.0,phase_1,,,,,,,,,,,,,green,diamond
206.0,3.0,2.0,0.0,4.0,4.0,372.4413949530571,2.0,1.0,phase_1,,,,,,,,,,,,,yellow,cross
397.0,8.0,4.0,1.0,1.0,1.0,722.8852128610015,2.0,1.0,phase_1,,,,,,,,,,,,,blue,circle
202.0,7.0,2.0,1.0,4.0,4.0,294.7780301328748,2.0,1.0,phase_1,,,,,,,,,,,,,orange,square
64.0,5.0,0.5,1.0,1.0,1.0,294.0281240735203,2.0,1.0,phase_1,,,,,,,,,,,,,magenta,flipped triangle
0.0,5.0,0.0,1.0,1.0,1.0,305.931017966941,2.0,1.0,phase_1,,,,,,,,,,,,,magenta,flipped triangle
223.0,7.0,2.0,1.0,4.0,4.0,341.3232699967921,2.0,1.0,phase_1,,,,,,,,,,,,,orange,square
44.0,1.0,0.5,0.0,3.0,3.0,370.5574129708111,2.0,1.0,phase_1,,,,,,,,,,,,,gray,I
82.0,6.0,1.0,1.0,4.0,4.0,360.1798410527408,2.0,1.0,phase_1,,,,,,,,,,,,,cyan,hexagon
0.0,4.0,0.0,0.0,2.0,2.0,338.7023289687931,2.0,1.0,phase_1,,,,,,,,,,,,,green,diamond
40.0,1.0,0.5,0.0,2.0,2.0,319.0747778862715,2.0,1.0,phase_1,,,,,,,,,,,,,gray,I
220.0,7.0,2.0,1.0,3.0,3.0,335.0987671874463,2.0,1.0,phase_1,,,,,,,,,,,,,orange,square
395.0,8.0,4.0,1.0,2.0,2.0,363.0276760086417,2.0,1.0,phase_1,,,,,,,,,,,,,blue,circle
57.0,1.0,0.5,0.0,2.0,2.0,375.6257640197873,2.0,1.0,phase_1,,,,,,,,,,,,,gray,I
195.0,3.0,2.0,0.0,1.0,1.0,394.2456929944455,2.0,1.0,phase_1,,,,,,,,,,,,,yellow,cross
59.0,5.0,0.5,1.0,2.0,2.0,297.2089468967169,2.0,1.0,phase_1,,,,,,,,,,,,,magenta,flipped triangle
71.0,5.0,0.5,1.0,2.0,2.0,325.308701954782,2.0,1.0,phase_1,,,,,,,,,,,,,magenta,flipped triangle
122.0,6.0,1.0,1.0,1.0,1.0,378.5406830720603,2.0,1.0,phase_1,,,,,,,,,,,,,cyan,hexagon
0.0,5.0,0.0,1.0,2.0,2.0,294.0935960505157,2.0,1.0,phase_1,,,,,,,,,,,,,magenta,flipped triangle
400.0,8.0,4.0,1.0,3.0,3.0,353.4009270370006,2.0,1.0,phase_1,,,,,,,,,,,,,blue,circle
0.0,8.0,0.0,1.0,1.0,1.0,309.7328809089958,2.0,1.0,phase_1,,,,,,,,,,,,,blue,circle
25.0,5.0,0.5,1.0,4.0,4.0,338.139025028795,2.0,1.0,phase_1,,,,,,,,,,,,,magenta,flipped triangle
52.0,1.0,0.5,0.0,2.0,2.0,336.5522308740765,2.0,1.0,phase_1,,,,,,,,,,,,,gray,I
0.0,3.0,0.0,0.0,1.0,1.0,301.4758590143174,2.0,1.0,phase_1,,,,,,,,,,,,,yellow,cross
77.0,6.0,1.0,1.0,4.0,4.0,505.6922750081867,2.0,1.0,phase_1,,,,,,,,,,,,,cyan,hexagon
187.0,3.0,2.0,0.0,2.0,2.0,341.7332170065492,2.0,1.0,phase_1,,,,,,,,,,,,,yellow,cross
396.0,4.0,4.0,0.0,2.0,2.0,354.3307529762387,2.0,1.0,phase_1,,,,,,,,,,,,,green,diamond
409.0,8.0,4.0,1.0,2.0,2.0,297.9865209199488,2.0,1.0,phase_1,,,,,,,,,,,,,blue,circle
0.0,7.0,0.0,1.0,2.0,2.0,373.7119541037828,2.0,1.0,phase_1,,,,,,,,,,,,,orange,square
383.0,8.0,4.0,1.0,3.0,3.0,426.685529993847,2.0,1.0,phase_1,,,,,,,,,,,,,blue,circle
25.0,1.0,0.5,0.0,4.0,4.0,358.1298200879246,2.0,1.0,phase_1,,,,,,,,,,,,,gray,I
63.0,1.0,0.5,0.0,3.0,3.0,362.5723000150174,2.0,1.0,phase_1,,,,,,,,,,,,,gray,I
220.0,3.0,2.0,0.0,2.0,2.0,271.888768998906,2.0,1.0,phase_1,,,,,,,,,,,,,yellow,cross
190.0,7.0,2.0,1.0,4.0,4.0,307.111820904538,2.0,1.0,phase_1,,,,,,,,,,,,,orange,square
224.0,3.0,2.0,0.0,2.0,2.0,249.0713370498269,2.0,1.0,phase_1,,,,,,,,,,,,,yellow,cross
378.0,8.0,4.0,1.0,1.0,1.0,271.6290359385311,2.0,1.0,phase_1,,,,,,,,,,,,,blue,circle
0.0,5.0,0.0,1.0,4.0,4.0,368.8649090472609,2.0,1.0,phase_1,,,,,,,,,,,,,magenta,flipped triangle
104.0,6.0,1.0,1.0,1.0,1.0,313.0343849770725,2.0,1.0,phase_1,,,,,,,,,,,,,cyan,hexagon
394.0,8.0,4.0,1.0,4.0,4.0,411.6584490984678,2.0,1.0,phase_1,,,,,,,,,,,,,blue,circle
91.0,6.0,1.0,1.0,1.0,1.0,350.5715690553188,2.0,1.0,phase_1,,,,,,,,,,,,,cyan,hexagon
0.0,2.0,0.0,0.0,1.0,1.0,382.7818559948355,2.0,1.0,phase_1,,,,,,,,,,,,,white,triangle
425.0,8.0,4.0,1.0,1.0,1.0,330.7692368980497,2.0,1.0,phase_1,,,,,,,,,,,,,blue,circle
35.0,1.0,0.5,0.0,3.0,3.0,374.6370570734143,2.0,1.0,phase_1,,,,,,,,,,,,,gray,I
383.0,4.0,4.0,0.0,4.0,4.0,395.1396779157221,2.0,1.0,phase_1,,,,,,,,,,,,,green,diamond
30.0,5.0,0.5,1.0,2.0,2.0,278.2572121359408,2.0,1.0,phase_1,,,,,,,,,,,,,magenta,flipped triangle
74.0,5.0,0.5,1.0,2.0,2.0,338.45625212416047,2.0,1.0,phase_1,,,,,,,,,,,,,magenta,flipped triangle
51.0,5.0,0.5,1.0,1.0,1.0,311.341046821326,2.0,1.0,phase_1,,,,,,,,,,,,,magenta,flipped triangle
83.0,6.0,1.0,1.0,4.0,4.0,588.5745128616691,2.0,1.0,phase_1,,,,,,,,,,,,,cyan,hexagon
37.0,5.0,0.5,1.0,3.0,3.0,363.8709539081901,2.0,1.0,phase_1,,,,,,,,,,,,,magenta,flipped triangle
118.0,6.0,1.0,1.0,2.0,2.0,252.6890230365097,2.0,1.0,phase_1,,,,,,,,,,,,,cyan,hexagon
0.0,2.0,0.0,0.0,4.0,4.0,251.48024805821478,2.0,1.0,phase_1,,,,,,,,,,,,,white,triangle
37.0,1.0,0.5,0.0,3.0,3.0,343.3882759418338,2.0,1.0,phase_1,,,,,,,,,,,,,gray,I
60.0,1.0,0.5,0.0,3.0,3.0,351.4493580441922,2.0,1.0,phase_1,,,,,,,,,,,,,gray,I
216.0,7.0,2.0,1.0,4.0,4.0,330.5777651257813,2.0,1.0,phase_1,,,,,,,,,,,,,orange,square
0.0,8.0,0.0,1.0,1.0,1.0,324.7435339726507,2.0,1.0,phase_1,,,,,,,,,,,,,blue,circle
47.0,5.0,0.5,1.0,4.0,4.0,385.7203221414238,2.0,1.0,phase_1,,,,,,,,,,,,,magenta,flipped triangle
224.0,7.0,2.0,1.0,3.0,3.0,369.2780961282551,2.0,1.0,phase_1,,,,,,,,,,,,,orange,square
0.0,2.0,0.0,0.0,4.0,4.0,333.1348360516131,2.0,1.0,phase_1,,,,,,,,,,,,,white,triangle
0.0,2.0,0.0,0.0,3.0,3.0,350.7078581023961,2.0,2.0,phase_1,,,,,,,,,,,,,white,triangle
194.0,7.0,2.0,1.0,1.0,1.0,368.8230300322175,2.0,1.0,phase_1,,,,,,,,,,,,,orange,square
410.0,8.0,4.0,1.0,4.0,4.0,320.5920159816742,2.0,1.0,phase_1,,,,,,,,,,,,,blue,circle
224.0,7.0,2.0,1.0,4.0,4.0,341.0975048318505,2.0,1.0,phase_1,,,,,,,,,,,,,orange,square
104.0,2.0,1.0,0.0,4.0,4.0,311.69395591132337,2.0,1.0,phase_1,,,,,,,,,,,,,white,triangle
101.0,6.0,1.0,1.0,4.0,4.0,339.6299469750374,2.0,1.0,phase_1,,,,,,,,,,,,,cyan,hexagon
91.0,2.0,1.0,0.0,2.0,2.0,322.3863309249282,2.0,1.0,phase_1,,,,,,,,,,,,,white,triangle
0.0,6.0,0.0,1.0,1.0,1.0,303.7396420259028,2.0,1.0,phase_1,,,,,,,,,,,,,cyan,hexagon
0.0,2.0,0.0,0.0,2.0,2.0,308.4050419274717,2.0,1.0,phase_1,,,,,,,,,,,,,white,triangle
379.0,8.0,4.0,1.0,4.0,4.0,352.421608986333,2.0,1.0,phase_1,,,,,,,,,,,,,blue,circle
59.0,1.0,0.5,0.0,1.0,1.0,355.5383929051459,3.0,1.0,phase_1,,,,,,,,,,,,,gray,I
413.0,4.0,4.0,0.0,4.0,4.0,304.9172440078109,3.0,1.0,phase_1,,,,,,,,,,,,,green,diamond
122.0,6.0,1.0,1.0,4.0,4.0,308.6834400892257,3.0,1.0,phase_1,,,,,,,,,,,,,cyan,hexagon
101.0,6.0,1.0,1.0,3.0,3.0,283.7554640136659,3.0,1.0,phase_1,,,,,,,,,,,,,cyan,hexagon
0.0,3.0,0.0,0.0,2.0,2.0,270.7341269124299,3.0,1.0,phase_1,,,,,,,,,,,,,yellow,cross
83.0,2.0,1.0,0.0,3.0,3.0,349.8520711436867,3.0,1.0,phase_1,,,,,,,,,,,,,white,triangle
30.0,1.0,0.5,0.0,2.0,2.0,298.8024740479886,3.0,1.0,phase_1,,,,,,,,,,,,,gray,I
382.0,4.0,4.0,0.0,3.0,3.0,295.4926958773285,3.0,1.0,phase_1,,,,,,,,,,,,,green,diamond
201.0,3.0,2.0,0.0,1.0,1.0,297.372390050441,3.0,1.0,phase_1,,,,,,,,,,,,,yellow,cross
113.0,2.0,1.0,0.0,3.0,3.0,285.6155578047037,3.0,1.0,phase_1,,,,,,,,,,,,,white,triangle
35.0,5.0,0.5,1.0,3.0,3.0,292.8751399740577,3.0,1.0,phase_1,,,,,,,,,,,,,magenta,flipped triangle
57.0,5.0,0.5,1.0,4.0,4.0,297.3175309598446,3.0,1.0,phase_1,,,,,,,,,,,,,magenta,flipped triangle
210.0,7.0,2.0,1.0,2.0,2.0,276.4034459833056,3.0,1.0,phase_1,,,,,,,,,,,,,orange,square
201.0,7.0,2.0,1.0,3.0,3.0,257.8551291953772,3.0,1.0,phase_1,,,,,,,,,,,,,orange,square
75.0,6.0,1.0,1.0,1.0,1.0,348.9936739206314,3.0,1.0,phase_1,,,,,,,,,,,,,cyan,hexagon
61.0,1.0,0.5,0.0,4.0,4.0,243.8681339845061,3.0,1.0,phase_1,,,,,,,,,,,,,gray,I
209.0,7.0,2.0,1.0,2.0,2.0,216.2873339839279,3.0,1.0,phase_1,,,,,,,,,,,,,orange,square
61.0,5.0,0.5,1.0,2.0,2.0,277.6200110092759,3.0,1.0,phase_1,,,,,,,,,,,,,magenta,flipped triangle
114.0,6.0,1.0,1.0,2.0,2.0,386.0687129199505,3.0,1.0,phase_1,,,,,,,,,,,,,cyan,hexagon
0.0,1.0,0.0,0.0,2.0,2.0,316.2511279806494,3.0,1.0,phase_1,,,,,,,,,,,,,gray,I
63.0,1.0,0.5,0.0,4.0,4.0,324.1223029326647,3.0,1.0,phase_1,,,,,,,,,,,,,gray,I
394.0,8.0,4.0,1.0,2.0,2.0,287.5848321709782,3.0,1.0,phase_1,,,,,,,,,,,,,blue,circle
74.0,5.0,0.5,1.0,4.0,4.0,332.8824799973517,3.0,1.0,phase_1,,,,,,,,,,,,,magenta,flipped triangle
0.0,4.0,0.0,0.0,1.0,1.0,331.150870071724,3.0,1.0,phase_1,,,,,,,,,,,,,green,diamond
194.0,3.0,2.0,0.0,3.0,3.0,316.015139920637,3.0,1.0,phase_1,,,,,,,,,,,,,yellow,cross
122.0,2.0,1.0,0.0,3.0,3.0,292.6000391598791,3.0,1.0,phase_1,,,,,,,,,,,,,white,triangle
45.0,5.0,0.5,1.0,1.0,1.0,261.4966609980911,3.0,1.0,phase_1,,,,,,,,,,,,,magenta,flipped triangle
179.0,3.0,2.0,0.0,1.0,1.0,274.0034339949488,3.0,1.0,phase_1,,,,,,,,,,,,,yellow,cross
112.0,2.0,1.0,0.0,1.0,1.0,273.2608900405466,3.0,1.0,phase_1,,,,,,,,,,,,,white,triangle
25.0,1.0,0.5,0.0,4.0,4.0,364.2821030225605,3.0,1.0,phase_1,,,,,,,,,,,,,gray,I
0.0,4.0,0.0,0.0,4.0,4.0,299.0334369242191,3.0,1.0,phase_1,,,,,,,,,,,,,green,diamond
0.0,6.0,0.0,1.0,1.0,1.0,391.912876162678,3.0,1.0,phase_1,,,,,,,,,,,,,cyan,hexagon
425.0,4.0,4.0,0.0,2.0,2.0,257.9701780341565,3.0,1.0,phase_1,,,,,,,,,,,,,green,diamond
91.0,6.0,1.0,1.0,4.0,4.0,302.8542140964418,3.0,1.0,phase_1,,,,,,,,,,,,,cyan,hexagon
0.0,5.0,0.0,1.0,2.0,2.0,323.824335122481,3.0,1.0,phase_1,,,,,,,,,,,,,magenta,flipped triangle
218.0,3.0,2.0,0.0,4.0,4.0,256.9851700682193,3.0,1.0,phase_1,,,,,,,,,,,,,yellow,cross
35.0,1.0,0.5,0.0,2.0,2.0,300.3680410329252,3.0,1.0,phase_1,,,,,,,,,,,,,gray,I
381.0,8.0,4.0,1.0,3.0,3.0,297.1515890676528,3.0,1.0,phase_1,,,,,,,,,,,,,blue,circle
0.0,3.0,0.0,0.0,3.0,3.0,286.1058157868683,3.0,1.0,phase_1,,,,,,,,,,,,,yellow,cross
0.0,5.0,0.0,1.0,4.0,4.0,291.3204471115023,3.0,1.0,phase_1,,,,,,,,,,,,,magenta,flipped triangle
393.0,8.0,4.0,1.0,1.0,1.0,406.995175871998,3.0,1.0,phase_1,,,,,,,,,,,,,blue,circle
397.0,4.0,4.0,0.0,2.0,2.0,301.5270880423486,3.0,1.0,phase_1,,,,,,,,,,,,,green,diamond
0.0,8.0,0.0,1.0,2.0,2.0,276.1609938461333,3.0,1.0,phase_1,,,,,,,,,,,,,blue,circle
195.0,3.0,2.0,0.0,2.0,2.0,280.1334951072931,3.0,1.0,phase_1,,,,,,,,,,,,,yellow,cross
101.0,2.0,1.0,0.0,3.0,3.0,317.4961199983954,3.0,1.0,phase_1,,,,,,,,,,,,,white,triangle
186.0,3.0,2.0,0.0,3.0,3.0,319.0425490029156,3.0,1.0,phase_1,,,,,,,,,,,,,yellow,cross
85.0,2.0,1.0,0.0,2.0,2.0,300.1247788779437,3.0,1.0,phase_1,,,,,,,,,,,,,white,triangle
75.0,2.0,1.0,0.0,2.0,2.0,265.7576310448348,3.0,1.0,phase_1,,,,,,,,,,,,,white,triangle
392.0,8.0,4.0,1.0,3.0,3.0,303.7033181171864,3.0,1.0,phase_1,,,,,,,,,,,,,blue,circle
42.0,5.0,0.5,1.0,3.0,3.0,289.5706291310489,3.0,1.0,phase_1,,,,,,,,,,,,,magenta,flipped triangle
376.0,4.0,4.0,0.0,3.0,3.0,272.107127122581,3.0,1.0,phase_1,,,,,,,,,,,,,green,diamond
57.0,5.0,0.5,1.0,3.0,3.0,292.7477480843663,3.0,1.0,phase_1,,,,,,,,,,,,,magenta,flipped triangle
98.0,6.0,1.0,1.0,1.0,1.0,295.3469138592481,3.0,1.0,phase_1,,,,,,,,,,,,,cyan,hexagon
415.0,8.0,4.0,1.0,4.0,4.0,333.7550000287592,3.0,1.0,phase_1,,,,,,,,,,,,,blue,circle
394.0,4.0,4.0,0.0,2.0,2.0,280.6968169752508,3.0,1.0,phase_1,,,,,,,,,,,,,green,diamond
218.0,7.0,2.0,1.0,4.0,4.0,350.0464458484202,3.0,1.0,phase_1,,,,,,,,,,,,,orange,square
124.0,2.0,1.0,0.0,4.0,4.0,289.9580281227827,3.0,1.0,phase_1,,,,,,,,,,,,,white,triangle
39.0,1.0,0.5,0.0,1.0,1.0,318.6807818710804,3.0,1.0,phase_1,,,,,,,,,,,,,gray,I
60.0,5.0,0.5,1.0,1.0,1.0,317.6245999056846,3.0,1.0,phase_1,,,,,,,,,,,,,magenta,flipped triangle
0.0,6.0,0.0,1.0,4.0,4.0,320.001516956836,3.0,1.0,phase_1,,,,,,,,,,,,,cyan,hexagon
386.0,4.0,4.0,0.0,2.0,2.0,286.1095569096505,3.0,1.0,phase_1,,,,,,,,,,,,,green,diamond
178.0,7.0,2.0,1.0,4.0,4.0,354.0277788415551,3.0,1.0,phase_1,,,,,,,,,,,,,orange,square
411.0,8.0,4.0,1.0,4.0,4.0,302.1093169227242,3.0,1.0,phase_1,,,,,,,,,,,,,blue,circle
90.0,2.0,1.0,0.0,1.0,1.0,322.7677780669182,3.0,1.0,phase_1,,,,,,,,,,,,,white,triangle
0.0,5.0,0.0,1.0,3.0,3.0,287.9300371278077,3.0,1.0,phase_1,,,,,,,,,,,,,magenta,flipped triangle
88.0,2.0,1.0,0.0,4.0,4.0,324.4005229789763,3.0,1.0,phase_1,,,,,,,,,,,,,white,triangle
0.0,7.0,0.0,1.0,3.0,3.0,330.9263410046696,3.0,1.0,phase_1,,,,,,,,,,,,,orange,square
405.0,4.0,4.0,0.0,1.0,1.0,311.323151923716,3.0,1.0,phase_1,,,,,,,,,,,,,green,diamond
96.0,2.0,1.0,0.0,3.0,3.0,330.2407809533179,3.0,1.0,phase_1,,,,,,,,,,,,,white,triangle
25.0,5.0,0.5,1.0,2.0,2.0,304.2993920389563,3.0,1.0,phase_1,,,,,,,,,,,,,magenta,flipped triangle
57.0,1.0,0.5,0.0,3.0,3.0,357.7532288618386,3.0,1.0,phase_1,,,,,,,,,,,,,gray,I
198.0,3.0,2.0,0.0,2.0,2.0,292.0289789326489,3.0,1.0,phase_1,,,,,,,,,,,,,yellow,cross
0.0,4.0,0.0,0.0,3.0,3.0,288.4416349697858,3.0,1.0,phase_1,,,,,,,,,,,,,green,diamond
376.0,8.0,4.0,1.0,3.0,3.0,307.7528439462185,3.0,1.0,phase_1,,,,,,,,,,,,,blue,circle
415.0,8.0,4.0,1.0,1.0,1.0,280.8832169976085,3.0,1.0,phase_1,,,,,,,,,,,,,blue,circle
29.0,1.0,0.5,0.0,4.0,4.0,412.4350380152464,3.0,1.0,phase_1,,,,,,,,,,,,,gray,I
87.0,6.0,1.0,1.0,3.0,3.0,295.7489450927824,3.0,1.0,phase_1,,,,,,,,,,,,,cyan,hexagon
91.0,2.0,1.0,0.0,2.0,2.0,293.0771810933947,3.0,1.0,phase_1,,,,,,,,,,,,,white,triangle
383.0,4.0,4.0,0.0,3.0,3.0,297.9218261316418,3.0,1.0,phase_1,,,,,,,,,,,,,green,diamond
216.0,3.0,2.0,0.0,1.0,1.0,367.6969290245324,3.0,1.0,phase_1,,,,,,,,,,,,,yellow,cross
420.0,8.0,4.0,1.0,2.0,2.0,285.7516692019999,3.0,1.0,phase_1,,,,,,,,,,,,,blue,circle
192.0,7.0,2.0,1.0,1.0,1.0,343.4668469708413,3.0,1.0,phase_1,,,,,,,,,,,,,orange,square
0.0,4.0,0.0,0.0,1.0,1.0,335.7272711582482,3.0,1.0,phase_1,,,,,,,,,,,,,green,diamond
378.0,4.0,4.0,0.0,4.0,4.0,408.6339329369366,3.0,1.0,phase_1,,,,,,,,,,,,,green,diamond
200.0,7.0,2.0,1.0,2.0,2.0,279.1047941427678,3.0,1.0,phase_1,,,,,,,,,,,,,orange,square
30.0,5.0,0.5,1.0,3.0,3.0,411.3708599470556,3.0,1.0,phase_1,,,,,,,,,,,,,magenta,flipped triangle
381.0,4.0,4.0,0.0,2.0,2.0,274.1343551315367,3.0,1.0,phase_1,,,,,,,,,,,,,green,diamond
206.0,3.0,2.0,0.0,4.0,4.0,484.6900878474116,3.0,1.0,phase_1,,,,,,,,,,,,,yellow,cross
0.0,1.0,0.0,0.0,4.0,4.0,313.7886570766568,3.0,1.0,phase_1,,,,,,,,,,,,,gray,I
0.0,8.0,0.0,1.0,3.0,3.0,342.4312218558043,3.0,1.0,phase_1,,,,,,,,,,,,,blue,circle
0.0,6.0,0.0,1.0,4.0,4.0,444.3306929897517,3.0,1.0,phase_1,,,,,,,,,,,,,cyan,hexagon
52.0,5.0,0.5,1.0,2.0,2.0,286.8302399292588,3.0,1.0,phase_1,,,,,,,,,,,,,magenta,flipped triangle
190.0,3.0,2.0,0.0,2.0,2.0,363.3535879198462,3.0,1.0,phase_1,,,,,,,,,,,,,yellow,cross
0.0,3.0,0.0,0.0,3.0,3.0,288.1162171252072,3.0,1.0,phase_1,,,,,,,,,,,,,yellow,cross
0.0,4.0,0.0,0.0,2.0,2.0,270.877277944237,3.0,1.0,phase_1,,,,,,,,,,,,,green,diamond
190.0,3.0,2.0,0.0,2.0,2.0,275.5754450336098,3.0,1.0,phase_1,,,,,,,,,,,,,yellow,cross
0.0,4.0,0.0,0.0,1.0,1.0,316.9533750042319,3.0,2.0,phase_1,,,,,,,,,,,,,green,diamond
0.0,2.0,0.0,0.0,4.0,4.0,408.7557438760996,3.0,1.0,phase_1,,,,,,,,,,,,,white,triangle
419.0,4.0,4.0,0.0,3.0,3.0,403.2632098533213,3.0,1.0,phase_1,,,,,,,,,,,,,green,diamond
217.0,7.0,2.0,1.0,1.0,1.0,337.2297729365527,3.0,1.0,phase_1,,,,,,,,,,,,,orange,square
122.0,2.0,1.0,0.0,3.0,3.0,381.7058999557048,4.0,1.0,phase_1,,,,,,,,,,,,,white,triangle
382.0,8.0,4.0,1.0,3.0,3.0,289.1673981212079,4.0,1.0,phase_1,,,,,,,,,,,,,blue,circle
395.0,4.0,4.0,0.0,1.0,1.0,285.4917559307068,4.0,2.0,phase_1,,,,,,,,,,,,,green,diamond
0.0,3.0,0.0,0.0,1.0,1.0,318.981431890279,4.0,1.0,phase_1,,,,,,,,,,,,,yellow,cross
49.0,1.0,0.5,0.0,2.0,2.0,291.3171150721609,4.0,1.0,phase_1,,,,,,,,,,,,,gray,I
114.0,2.0,1.0,0.0,4.0,4.0,291.2108518648892,4.0,1.0,phase_1,,,,,,,,,,,,,white,triangle
194.0,3.0,2.0,0.0,1.0,1.0,279.5673671644181,4.0,1.0,phase_1,,,,,,,,,,,,,yellow,cross
88.0,6.0,1.0,1.0,4.0,4.0,338.1896410137415,4.0,1.0,phase_1,,,,,,,,,,,,,cyan,hexagon
205.0,7.0,2.0,1.0,1.0,1.0,281.1230840161443,4.0,1.0,phase_1,,,,,,,,,,,,,orange,square
409.0,8.0,4.0,1.0,1.0,1.0,322.6047160569578,4.0,1.0,phase_1,,,,,,,,,,,,,blue,circle
71.0,1.0,0.5,0.0,1.0,1.0,287.5857169274241,4.0,1.0,phase_1,,,,,,,,,,,,,gray,I
119.0,6.0,1.0,1.0,3.0,3.0,316.9911089353263,4.0,1.0,phase_1,,,,,,,,,,,,,cyan,hexagon
396.0,8.0,4.0,1.0,2.0,2.0,280.4451060947031,4.0,1.0,phase_1,,,,,,,,,,,,,blue,circle
409.0,4.0,4.0,0.0,1.0,1.0,261.8304227944463,4.0,1.0,phase_1,,,,,,,,,,,,,green,diamond
114.0,2.0,1.0,0.0,2.0,2.0,292.6478169392794,4.0,1.0,phase_1,,,,,,,,,,,,,white,triangle
0.0,7.0,0.0,1.0,3.0,3.0,320.3577240929007,4.0,1.0,phase_1,,,,,,,,,,,,,orange,square
176.0,3.0,2.0,0.0,1.0,1.0,284.135052934289,4.0,1.0,phase_1,,,,,,,,,,,,,yellow,cross
0.0,6.0,0.0,1.0,3.0,3.0,312.5435758847743,4.0,1.0,phase_1,,,,,,,,,,,,,cyan,hexagon
49.0,5.0,0.5,1.0,1.0,1.0,268.8805400393903,4.0,1.0,phase_1,,,,,,,,,,,,,magenta,flipped triangle
85.0,6.0,1.0,1.0,2.0,2.0,276.1704102158546,4.0,1.0,phase_1,,,,,,,,,,,,,cyan,hexagon
177.0,3.0,2.0,0.0,2.0,2.0,272.2013641614467,4.0,1.0,phase_1,,,,,,,,,,,,,yellow,cross
57.0,1.0,0.5,0.0,2.0,2.0,299.5782420039177,4.0,1.0,phase_1,,,,,,,,,,,,,gray,I
63.0,5.0,0.5,1.0,4.0,4.0,384.6575398929417,4.0,1.0,phase_1,,,,,,,,,,,,,magenta,flipped triangle
221.0,3.0,2.0,0.0,1.0,1.0,318.071671994403,4.0,1.0,phase_1,,,,,,,,,,,,,yellow,cross
112.0,6.0,1.0,1.0,1.0,1.0,289.8287600837648,4.0,1.0,phase_1,,,,,,,,,,,,,cyan,hexagon
206.0,7.0,2.0,1.0,3.0,3.0,273.4671959187835,4.0,1.0,phase_1,,,,,,,,,,,,,orange,square
0.0,7.0,0.0,1.0,2.0,2.0,301.1304028332233,4.0,1.0,phase_1,,,,,,,,,,,,,orange,square
388.0,8.0,4.0,1.0,3.0,3.0,304.1545320302248,4.0,1.0,phase_1,,,,,,,,,,,,,blue,circle
65.0,5.0,0.5,1.0,1.0,1.0,275.4971589893102,4.0,1.0,phase_1,,,,,,,,,,,,,magenta,flipped triangle
83.0,2.0,1.0,0.0,4.0,4.0,308.4722880739718,4.0,1.0,phase_1,,,,,,,,,,,,,white,triangle
390.0,4.0,4.0,0.0,1.0,1.0,318.8018340151757,4.0,1.0,phase_1,,,,,,,,,,,,,green,diamond
0.0,7.0,0.0,1.0,4.0,4.0,322.4949799478054,4.0,1.0,phase_1,,,,,,,,,,,,,orange,square
97.0,6.0,1.0,1.0,2.0,2.0,281.2329500447958,4.0,1.0,phase_1,,,,,,,,,,,,,cyan,hexagon
0.0,6.0,0.0,1.0,2.0,2.0,323.7588508054614,4.0,1.0,phase_1,,,,,,,,,,,,,cyan,hexagon
44.0,5.0,0.5,1.0,2.0,2.0,287.2202331200242,4.0,1.0,phase_1,,,,,,,,,,,,,magenta,flipped triangle
40.0,5.0,0.5,1.0,3.0,3.0,309.2061120551079,4.0,1.0,phase_1,,,,,,,,,,,,,magenta,flipped triangle
48.0,1.0,0.5,0.0,4.0,4.0,278.0827090609818,4.0,1.0,phase_1,,,,,,,,,,,,,gray,I
48.0,5.0,0.5,1.0,4.0,4.0,333.6917059496045,4.0,1.0,phase_1,,,,,,,,,,,,,magenta,flipped triangle
0.0,5.0,0.0,1.0,2.0,2.0,467.5356450024992,4.0,1.0,phase_1,,,,,,,,,,,,,magenta,flipped triangle
383.0,8.0,4.0,1.0,3.0,3.0,521.0403299424797,4.0,1.0,phase_1,,,,,,,,,,,,,blue,circle
185.0,7.0,2.0,1.0,1.0,1.0,303.9275151677429,4.0,1.0,phase_1,,,,,,,,,,,,,orange,square
0.0,8.0,0.0,1.0,3.0,3.0,320.5954148434102,4.0,1.0,phase_1,,,,,,,,,,,,,blue,circle
67.0,1.0,0.5,0.0,2.0,2.0,288.045619148761,4.0,1.0,phase_1,,,,,,,,,,,,,gray,I
388.0,4.0,4.0,0.0,2.0,2.0,395.9100688807666,4.0,1.0,phase_1,,,,,,,,,,,,,green,diamond
0.0,1.0,0.0,0.0,4.0,4.0,438.5304930619895,4.0,1.0,phase_1,,,,,,,,,,,,,gray,I
412.0,4.0,4.0,0.0,1.0,1.0,315.720901126042,4.0,1.0,phase_1,,,,,,,,,,,,,green,diamond
87.0,6.0,1.0,1.0,3.0,3.0,347.4373130593449,4.0,1.0,phase_1,,,,,,,,,,,,,cyan,hexagon
0.0,7.0,0.0,1.0,3.0,3.0,295.1320258434862,4.0,1.0,phase_1,,,,,,,,,,,,,orange,square
386.0,8.0,4.0,1.0,3.0,3.0,281.5014370717108,4.0,1.0,phase_1,,,,,,,,,,,,,blue,circle
97.0,2.0,1.0,0.0,1.0,1.0,278.2843820750713,4.0,1.0,phase_1,,,,,,,,,,,,,white,triangle
415.0,4.0,4.0,0.0,3.0,3.0,285.3040460031479,4.0,1.0,phase_1,,,,,,,,,,,,,green,diamond
412.0,8.0,4.0,1.0,2.0,2.0,298.4236739575863,4.0,1.0,phase_1,,,,,,,,,,,,,blue,circle
396.0,8.0,4.0,1.0,2.0,2.0,310.8852040022611,4.0,1.0,phase_1,,,,,,,,,,,,,blue,circle
185.0,7.0,2.0,1.0,1.0,1.0,256.7850290797651,4.0,1.0,phase_1,,,,,,,,,,,,,orange,square
185.0,3.0,2.0,0.0,1.0,1.0,288.5715758893639,4.0,1.0,phase_1,,,,,,,,,,,,,yellow,cross
196.0,3.0,2.0,0.0,2.0,2.0,245.4511329997331,4.0,1.0,phase_1,,,,,,,,,,,,,yellow,cross
0.0,4.0,0.0,0.0,2.0,2.0,273.7764168996364,4.0,1.0,phase_1,,,,,,,,,,,,,green,diamond
386.0,8.0,4.0,1.0,2.0,2.0,268.3266999665648,4.0,1.0,phase_1,,,,,,,,,,,,,blue,circle
198.0,7.0,2.0,1.0,1.0,1.0,275.2733470406383,4.0,1.0,phase_1,,,,,,,,,,,,,orange,square
416.0,4.0,4.0,0.0,4.0,4.0,366.4062980096787,4.0,1.0,phase_1,,,,,,,,,,,,,green,diamond
58.0,1.0,0.5,0.0,1.0,1.0,305.9809789992869,4.0,1.0,phase_1,,,,,,,,,,,,,gray,I
199.0,7.0,2.0,1.0,2.0,2.0,304.4516150839627,4.0,1.0,phase_1,,,,,,,,,,,,,orange,square
0.0,3.0,0.0,0.0,3.0,3.0,382.4765118770301,4.0,1.0,phase_1,,,,,,,,,,,,,yellow,cross
400.0,4.0,4.0,0.0,4.0,4.0,387.7581059932709,4.0,1.0,phase_1,,,,,,,,,,,,,green,diamond
92.0,6.0,1.0,1.0,3.0,3.0,311.2179401796311,4.0,1.0,phase_1,,,,,,,,,,,,,cyan,hexagon
409.0,4.0,4.0,0.0,3.0,3.0,317.10289395414287,4.0,1.0,phase_1,,,,,,,,,,,,,green,diamond
66.0,1.0,0.5,0.0,3.0,3.0,344.7735179215669,4.0,1.0,phase_1,,,,,,,,,,,,,gray,I
185.0,3.0,2.0,0.0,3.0,3.0,317.1257099602371,4.0,1.0,phase_1,,,,,,,,,,,,,yellow,cross
195.0,7.0,2.0,1.0,1.0,1.0,287.4535929877311,4.0,1.0,phase_1,,,,,,,,,,,,,orange,square
0.0,8.0,0.0,1.0,2.0,2.0,252.8280450496822,4.0,1.0,phase_1,,,,,,,,,,,,,blue,circle
217.0,3.0,2.0,0.0,3.0,3.0,292.0745359733701,4.0,1.0,phase_1,,,,,,,,,,,,,yellow,cross
52.0,1.0,0.5,0.0,1.0,1.0,338.1218200083822,4.0,1.0,phase_1,,,,,,,,,,,,,gray,I
210.0,3.0,2.0,0.0,3.0,3.0,314.6710111759603,4.0,1.0,phase_1,,,,,,,,,,,,,yellow,cross
97.0,2.0,1.0,0.0,2.0,2.0,287.1642829850316,4.0,1.0,phase_1,,,,,,,,,,,,,white,triangle
0.0,4.0,0.0,0.0,4.0,4.0,331.8587080575526,4.0,1.0,phase_1,,,,,,,,,,,,,green,diamond
177.0,7.0,2.0,1.0,2.0,2.0,315.1574730873108,4.0,1.0,phase_1,,,,,,,,,,,,,orange,square
119.0,2.0,1.0,0.0,4.0,4.0,344.328158069402,4.0,1.0,phase_1,,,,,,,,,,,,,white,triangle
416.0,4.0,4.0,0.0,3.0,3.0,275.7329968735575,4.0,1.0,phase_1,,,,,,,,,,,,,green,diamond
215.0,3.0,2.0,0.0,4.0,4.0,288.5340419597924,4.0,1.0,phase_1,,,,,,,,,,,,,yellow,cross
410.0,4.0,4.0,0.0,2.0,2.0,418.1567658670246,4.0,1.0,phase_1,,,,,,,,,,,,,green,diamond
0.0,1.0,0.0,0.0,1.0,1.0,315.2368757873773,4.0,1.0,phase_1,,,,,,,,,,,,,gray,I
400.0,4.0,4.0,0.0,3.0,3.0,278.9605231955647,4.0,1.0,phase_1,,,,,,,,,,,,,green,diamond
419.0,8.0,4.0,1.0,4.0,4.0,340.8854268491268,4.0,1.0,phase_1,,,,,,,,,,,,,blue,circle
83.0,6.0,1.0,1.0,3.0,3.0,286.4785981364548,4.0,1.0,phase_1,,,,,,,,,,,,,cyan,hexagon
205.0,3.0,2.0,0.0,3.0,3.0,372.3828641232103,4.0,1.0,phase_1,,,,,,,,,,,,,yellow,cross
109.0,6.0,1.0,1.0,3.0,3.0,273.9276038482785,4.0,1.0,phase_1,,,,,,,,,,,,,cyan,hexagon
215.0,7.0,2.0,1.0,4.0,4.0,343.3933199848979,4.0,1.0,phase_1,,,,,,,,,,,,,orange,square
82.0,2.0,1.0,0.0,1.0,1.0,328.1512050889432,4.0,1.0,phase_1,,,,,,,,,,,,,white,triangle
0.0,7.0,0.0,1.0,2.0,2.0,262.8153518307954,4.0,1.0,phase_1,,,,,,,,,,,,,orange,square
109.0,2.0,1.0,0.0,1.0,1.0,281.7165730521083,4.0,1.0,phase_1,,,,,,,,,,,,,white,triangle
30.0,1.0,0.5,0.0,3.0,3.0,310.7484290376305,4.0,1.0,phase_1,,,,,,,,,,,,,gray,I
224.0,3.0,2.0,0.0,4.0,4.0,347.9579500854015,4.0,1.0,phase_1,,,,,,,,,,,,,yellow,cross
182.0,3.0,2.0,0.0,3.0,3.0,290.4623700305819,4.0,1.0,phase_1,,,,,,,,,,,,,yellow,cross
183.0,3.0,2.0,0.0,4.0,4.0,284.3525540083647,4.0,1.0,phase_1,,,,,,,,,,,,,yellow,cross
0.0,5.0,0.0,1.0,1.0,1.0,354.4772970490157,4.0,1.0,phase_1,,,,,,,,,,,,,magenta,flipped triangle
74.0,1.0,0.5,0.0,1.0,1.0,313.4240510407835,4.0,1.0,phase_1,,,,,,,,,,,,,gray,I
413.0,8.0,4.0,1.0,4.0,4.0,227.3314711637795,4.0,1.0,phase_1,,,,,,,,,,,,,blue,circle
202.0,3.0,2.0,0.0,4.0,4.0,383.4172990173101,4.0,1.0,phase_1,,,,,,,,,,,,,yellow,cross
118.0,2.0,1.0,0.0,4.0,4.0,340.4043870978057,4.0,1.0,phase_1,,,,,,,,,,,,,white,triangle
0.0,2.0,0.0,0.0,4.0,4.0,321.012555854395,4.0,1.0,phase_1,,,,,,,,,,,,,white,triangle
0.0,1.0,0.5,0.0,5.0,5.0,449.4434439111501,1.0,1.0,phase_2,go,250.0,250.0,1.0,,,,,,,,,gray,I
0.0,4.0,4.0,0.0,5.0,5.0,392.501609865576,1.0,1.0,phase_2,go,250.0,250.0,1.0,,,,,,,,,green,diamond
0.0,5.0,0.5,1.0,6.0,0.0,0.0,1.0,1.0,phase_2,stop,250.0,250.0,4.0,,,,,,,,,magenta,flipped triangle
0.0,7.0,2.0,1.0,5.0,5.0,478.3061100170016,1.0,1.0,phase_2,go,250.0,300.0,1.0,,,,,,,,,orange,square
0.0,5.0,0.5,1.0,5.0,0.0,0.0,1.0,1.0,phase_2,stop,250.0,300.0,4.0,,,,,,,,,magenta,flipped triangle
0.0,7.0,2.0,1.0,5.0,5.0,501.10327708534896,1.0,1.0,phase_2,go,300.0,300.0,1.0,,,,,,,,,orange,square
0.0,2.0,1.0,0.0,5.0,5.0,493.0453030392527,1.0,1.0,phase_2,go,300.0,300.0,1.0,,,,,,,,,white,triangle
0.0,8.0,4.0,1.0,5.0,0.0,0.0,1.0,1.0,phase_2,stop,300.0,300.0,4.0,,,,,,,,,blue,circle
0.0,3.0,2.0,0.0,5.0,5.0,572.3145969677716,1.0,1.0,phase_2,go,350.0,300.0,1.0,,,,,,,,,yellow,cross
0.0,8.0,4.0,1.0,5.0,0.0,0.0,1.0,1.0,phase_2,stop,350.0,300.0,4.0,,,,,,,,,blue,circle
0.0,7.0,2.0,1.0,5.0,0.0,0.0,1.0,1.0,phase_2,stop,400.0,300.0,4.0,,,,,,,,,orange,square
0.0,1.0,0.5,0.0,6.0,6.0,499.2915580514818,1.0,1.0,phase_2,go,450.0,300.0,1.0,,,,,,,,,gray,I
0.0,8.0,4.0,1.0,6.0,0.0,0.0,1.0,1.0,phase_2,stop,450.0,300.0,4.0,,,,,,,,,blue,circle
0.0,8.0,4.0,1.0,6.0,0.0,0.0,1.0,1.0,phase_2,stop,450.0,350.0,4.0,,,,,,,,,blue,circle
0.0,1.0,0.5,0.0,6.0,6.0,575.2792949788272,1.0,1.0,phase_2,go,450.0,400.0,1.0,,,,,,,,,gray,I
0.0,5.0,0.5,1.0,6.0,0.0,0.0,1.0,1.0,phase_2,stop,450.0,400.0,4.0,,,,,,,,,magenta,flipped triangle
0.0,1.0,0.5,0.0,5.0,5.0,655.3053660318255,1.0,1.0,phase_2,go,450.0,450.0,1.0,,,,,,,,,gray,I
0.0,1.0,0.5,0.0,6.0,6.0,592.0027960091829,1.0,1.0,phase_2,go,450.0,450.0,1.0,,,,,,,,,gray,I
0.0,1.0,0.5,0.0,5.0,5.0,648.2219810131937,1.0,1.0,phase_2,go,450.0,450.0,1.0,,,,,,,,,gray,I
0.0,3.0,2.0,0.0,5.0,5.0,552.6598158758134,1.0,1.0,phase_2,go,450.0,450.0,1.0,,,,,,,,,yellow,cross
0.0,5.0,0.5,1.0,6.0,6.0,270.7297098822891,1.0,1.0,phase_2,stop,450.0,450.0,3.0,,,,,,,,,magenta,flipped triangle
0.0,4.0,4.0,0.0,5.0,5.0,318.0543461348861,1.0,1.0,phase_2,go,450.0,400.0,1.0,,,,,,,,,green,diamond
0.0,1.0,0.5,0.0,5.0,5.0,515.2258849702775,1.0,1.0,phase_2,go,450.0,400.0,1.0,,,,,,,,,gray,I
0.0,4.0,4.0,0.0,5.0,5.0,822.4680980201811,1.0,1.0,phase_2,go,450.0,400.0,1.0,,,,,,,,,green,diamond
0.0,7.0,2.0,1.0,6.0,6.0,546.369536081329,1.0,1.0,phase_2,stop,450.0,400.0,3.0,,,,,,,,,orange,square
0.0,7.0,2.0,1.0,5.0,0.0,0.0,1.0,1.0,phase_2,stop,450.0,350.0,4.0,,,,,,,,,orange,square
0.0,2.0,1.0,0.0,6.0,6.0,561.086457921192,1.0,1.0,phase_2,go,500.0,350.0,1.0,,,,,,,,,white,triangle
0.0,5.0,0.5,1.0,5.0,0.0,0.0,1.0,1.0,phase_2,stop,500.0,350.0,4.0,,,,,,,,,magenta,flipped triangle
0.0,8.0,4.0,1.0,6.0,0.0,0.0,1.0,1.0,phase_2,stop,550.0,350.0,4.0,,,,,,,,,blue,circle
0.0,1.0,0.5,0.0,5.0,5.0,411.4133240655064,1.0,1.0,phase_2,go,550.0,400.0,1.0,,,,,,,,,gray,I
0.0,2.0,1.0,0.0,6.0,6.0,671.570226084441,1.0,1.0,phase_2,go,550.0,400.0,1.0,,,,,,,,,white,triangle
0.0,3.0,2.0,0.0,6.0,6.0,552.3038059473038,1.0,1.0,phase_2,go,550.0,400.0,1.0,,,,,,,,,yellow,cross
0.0,6.0,1.0,1.0,5.0,5.0,640.7420330215245,1.0,1.0,phase_2,stop,550.0,400.0,3.0,,,,,,,,,cyan,hexagon
0.0,4.0,4.0,0.0,5.0,5.0,591.4716960396618,1.0,1.0,phase_2,go,500.0,400.0,1.0,,,,,,,,,green,diamond
0.0,5.0,0.5,1.0,5.0,5.0,767.79968990013,1.0,1.0,phase_2,go,500.0,400.0,1.0,,,,,,,,,magenta,flipped triangle
0.0,8.0,4.0,1.0,5.0,0.0,0.0,1.0,1.0,phase_2,stop,500.0,400.0,4.0,,,,,,,,,blue,circle
0.0,1.0,0.5,0.0,5.0,5.0,350.4137059208005,2.0,1.0,phase_2,go,550.0,400.0,1.0,,,,,,,,,gray,I
0.0,6.0,1.0,1.0,5.0,5.0,574.8483629431576,2.0,1.0,phase_2,stop,550.0,400.0,3.0,,,,,,,,,cyan,hexagon
0.0,8.0,4.0,1.0,5.0,5.0,596.2522919289768,2.0,1.0,phase_2,stop,500.0,400.0,3.0,,,,,,,,,blue,circle
0.0,1.0,0.5,0.0,6.0,6.0,370.905881980434,2.0,1.0,phase_2,go,450.0,400.0,1.0,,,,,,,,,gray,I
0.0,6.0,1.0,1.0,5.0,5.0,652.3079918697476,2.0,1.0,phase_2,go,450.0,400.0,1.0,,,,,,,,,cyan,hexagon
0.0,6.0,1.0,1.0,6.0,0.0,0.0,2.0,1.0,phase_2,stop,450.0,400.0,4.0,,,,,,,,,cyan,hexagon
0.0,8.0,4.0,1.0,5.0,0.0,0.0,2.0,1.0,phase_2,stop,450.0,450.0,4.0,,,,,,,,,blue,circle
0.0,8.0,4.0,1.0,6.0,0.0,0.0,2.0,1.0,phase_2,stop,500.0,450.0,4.0,,,,,,,,,blue,circle
0.0,8.0,4.0,1.0,6.0,6.0,539.0515690669417,2.0,1.0,phase_2,go,500.0,500.0,1.0,,,,,,,,,blue,circle
0.0,2.0,1.0,0.0,6.0,6.0,603.5567438229918,2.0,1.0,phase_2,go,500.0,500.0,1.0,,,,,,,,,white,triangle
0.0,7.0,2.0,1.0,5.0,0.0,0.0,2.0,1.0,phase_2,stop,500.0,500.0,4.0,,,,,,,,,orange,square
0.0,3.0,2.0,0.0,5.0,5.0,616.425191052258,2.0,1.0,phase_2,go,550.0,500.0,1.0,,,,,,,,,yellow,cross
0.0,4.0,4.0,0.0,6.0,6.0,686.7161430418491,2.0,1.0,phase_2,go,550.0,500.0,1.0,,,,,,,,,green,diamond
0.0,3.0,2.0,0.0,6.0,6.0,589.6374529693276,2.0,1.0,phase_2,go,550.0,500.0,1.0,,,,,,,,,yellow,cross
0.0,7.0,2.0,1.0,6.0,6.0,405.9820498805493,2.0,1.0,phase_2,stop,550.0,500.0,3.0,,,,,,,,,orange,square
0.0,1.0,0.5,0.0,6.0,6.0,567.0943919103593,2.0,1.0,phase_2,go,550.0,450.0,1.0,,,,,,,,,gray,I
0.0,6.0,1.0,1.0,5.0,5.0,718.441491946578,2.0,1.0,phase_2,go,550.0,450.0,1.0,,,,,,,,,cyan,hexagon
0.0,2.0,1.0,0.0,6.0,6.0,867.1411459799856,2.0,1.0,phase_2,go,550.0,450.0,1.0,,,,,,,,,white,triangle
0.0,5.0,0.5,1.0,5.0,5.0,714.7323109675199,2.0,1.0,phase_2,stop,550.0,450.0,3.0,,,,,,,,,magenta,flipped triangle
0.0,5.0,0.5,1.0,5.0,5.0,660.4378479532897,2.0,1.0,phase_2,go,500.0,450.0,1.0,,,,,,,,,magenta,flipped triangle
0.0,3.0,2.0,0.0,6.0,6.0,763.4648729581386,2.0,1.0,phase_2,go,500.0,450.0,1.0,,,,,,,,,yellow,cross
0.0,4.0,4.0,0.0,6.0,6.0,788.9819159172475,2.0,1.0,phase_2,go,500.0,450.0,1.0,,,,,,,,,green,diamond
0.0,4.0,4.0,0.0,6.0,6.0,826.852910919115,2.0,1.0,phase_2,go,500.0,450.0,1.0,,,,,,,,,green,diamond
0.0,7.0,2.0,1.0,5.0,0.0,0.0,2.0,1.0,phase_2,stop,500.0,450.0,4.0,,,,,,,,,orange,square
0.0,4.0,4.0,0.0,5.0,5.0,712.7776790875942,2.0,1.0,phase_2,go,550.0,450.0,1.0,,,,,,,,,green,diamond
0.0,6.0,1.0,1.0,6.0,6.0,698.0507399421185,2.0,1.0,phase_2,go,550.0,450.0,1.0,,,,,,,,,cyan,hexagon
0.0,1.0,0.5,0.0,5.0,5.0,792.1854991000146,2.0,1.0,phase_2,go,550.0,450.0,1.0,,,,,,,,,gray,I
0.0,1.0,0.5,0.0,6.0,6.0,871.5859679505229,2.0,1.0,phase_2,go,550.0,450.0,1.0,,,,,,,,,gray,I
0.0,8.0,4.0,1.0,6.0,0.0,0.0,2.0,1.0,phase_2,stop,550.0,450.0,4.0,,,,,,,,,blue,circle
0.0,3.0,2.0,0.0,5.0,5.0,582.0916700176895,2.0,1.0,phase_2,go,550.0,500.0,1.0,,,,,,,,,yellow,cross
0.0,4.0,4.0,0.0,6.0,6.0,620.1520089525729,2.0,1.0,phase_2,go,550.0,500.0,1.0,,,,,,,,,green,diamond
0.0,6.0,1.0,1.0,5.0,0.0,0.0,2.0,1.0,phase_2,stop,550.0,500.0,4.0,,,,,,,,,cyan,hexagon
0.0,5.0,0.5,1.0,6.0,6.0,579.3030348140746,2.0,1.0,phase_2,stop,600.0,500.0,3.0,,,,,,,,,magenta,flipped triangle
0.0,3.0,2.0,0.0,5.0,5.0,746.8449817970395,2.0,1.0,phase_2,go,600.0,450.0,1.0,,,,,,,,,yellow,cross
0.0,8.0,4.0,1.0,5.0,5.0,708.6776250507683,2.0,1.0,phase_2,go,600.0,450.0,1.0,,,,,,,,,blue,circle
0.0,1.0,0.5,0.0,6.0,6.0,563.2635150104761,2.0,1.0,phase_2,go,600.0,450.0,1.0,,,,,,,,,gray,I
0.0,8.0,4.0,1.0,6.0,6.0,369.1844979766756,3.0,1.0,phase_2,go,600.0,450.0,1.0,,,,,,,,,blue,circle
0.0,8.0,4.0,1.0,6.0,6.0,267.64941890724,3.0,1.0,phase_2,go,600.0,450.0,1.0,,,,,,,,,blue,circle
0.0,8.0,4.0,1.0,5.0,5.0,395.1143741142005,3.0,1.0,phase_2,stop,600.0,450.0,3.0,,,,,,,,,blue,circle
0.0,2.0,1.0,0.0,5.0,5.0,585.1016649976373,3.0,1.0,phase_2,go,550.0,450.0,1.0,,,,,,,,,white,triangle
0.0,5.0,0.5,1.0,5.0,5.0,398.8603870384395,3.0,1.0,phase_2,stop,550.0,450.0,3.0,,,,,,,,,magenta,flipped triangle
0.0,7.0,2.0,1.0,6.0,6.0,552.9556481633335,3.0,1.0,phase_2,stop,500.0,450.0,3.0,,,,,,,,,orange,square
0.0,6.0,1.0,1.0,6.0,0.0,0.0,3.0,1.0,phase_2,stop,500.0,400.0,4.0,,,,,,,,,cyan,hexagon
0.0,5.0,0.5,1.0,6.0,6.0,716.9958960730582,3.0,1.0,phase_2,go,500.0,450.0,1.0,,,,,,,,,magenta,flipped triangle
0.0,1.0,0.5,0.0,5.0,5.0,687.9729160573334,3.0,1.0,phase_2,go,500.0,450.0,1.0,,,,,,,,,gray,I
0.0,3.0,2.0,0.0,6.0,6.0,598.2051559258252,3.0,1.0,phase_2,go,500.0,450.0,1.0,,,,,,,,,yellow,cross
0.0,3.0,2.0,0.0,6.0,6.0,499.3861839175224,3.0,1.0,phase_2,go,500.0,450.0,1.0,,,,,,,,,yellow,cross
0.0,6.0,1.0,1.0,6.0,6.0,630.6227759923786,3.0,1.0,phase_2,go,500.0,450.0,1.0,,,,,,,,,cyan,hexagon
0.0,5.0,0.5,1.0,6.0,0.0,0.0,3.0,1.0,phase_2,stop,500.0,450.0,4.0,,,,,,,,,magenta,flipped triangle
0.0,6.0,1.0,1.0,5.0,0.0,0.0,3.0,1.0,phase_2,stop,500.0,500.0,4.0,,,,,,,,,cyan,hexagon
0.0,7.0,2.0,1.0,6.0,6.0,584.8706411197782,3.0,1.0,phase_2,stop,550.0,500.0,3.0,,,,,,,,,orange,square
0.0,3.0,2.0,0.0,5.0,5.0,642.2674770001322,3.0,1.0,phase_2,go,550.0,450.0,1.0,,,,,,,,,yellow,cross
0.0,4.0,4.0,0.0,6.0,6.0,761.4724969025701,3.0,1.0,phase_2,go,550.0,450.0,1.0,,,,,,,,,green,diamond
0.0,7.0,2.0,1.0,5.0,5.0,623.893371084705,3.0,1.0,phase_2,go,550.0,450.0,1.0,,,,,,,,,orange,square
0.0,8.0,4.0,1.0,5.0,5.0,704.680509865284,3.0,1.0,phase_2,go,550.0,450.0,1.0,,,,,,,,,blue,circle
0.0,6.0,1.0,1.0,6.0,6.0,631.7350079771131,3.0,1.0,phase_2,go,550.0,450.0,1.0,,,,,,,,,cyan,hexagon
0.0,8.0,4.0,1.0,6.0,0.0,0.0,3.0,1.0,phase_2,stop,550.0,450.0,4.0,,,,,,,,,blue,circle
0.0,6.0,1.0,1.0,5.0,5.0,680.2594640757889,3.0,1.0,phase_2,stop,550.0,500.0,3.0,,,,,,,,,cyan,hexagon
0.0,5.0,0.5,1.0,6.0,6.0,855.5102220270783,3.0,1.0,phase_2,go,500.0,500.0,1.0,,,,,,,,,magenta,flipped triangle
0.0,7.0,2.0,1.0,6.0,0.0,0.0,3.0,1.0,phase_2,stop,500.0,500.0,4.0,,,,,,,,,orange,square
0.0,2.0,1.0,0.0,5.0,5.0,853.9344558957964,3.0,1.0,phase_2,go,500.0,550.0,1.0,,,,,,,,,white,triangle
0.0,5.0,0.5,1.0,6.0,6.0,645.0063339434564,3.0,1.0,phase_2,go,500.0,550.0,1.0,,,,,,,,,magenta,flipped triangle
0.0,8.0,4.0,1.0,5.0,5.0,570.4273940064013,3.0,1.0,phase_2,stop,500.0,550.0,3.0,,,,,,,,,blue,circle
0.0,3.0,2.0,0.0,6.0,6.0,779.28013401106,3.0,1.0,phase_2,go,450.0,550.0,1.0,,,,,,,,,yellow,cross
0.0,5.0,0.5,1.0,6.0,0.0,0.0,3.0,1.0,phase_2,stop,450.0,550.0,4.0,,,,,,,,,magenta,flipped triangle
0.0,6.0,1.0,1.0,6.0,0.0,0.0,3.0,1.0,phase_2,stop,450.0,600.0,4.0,,,,,,,,,cyan,hexagon
0.0,8.0,4.0,1.0,5.0,0.0,0.0,3.0,1.0,phase_2,stop,450.0,650.0,4.0,,,,,,,,,blue,circle
0.0,3.0,2.0,0.0,6.0,6.0,783.9868778828532,3.0,1.0,phase_2,go,500.0,650.0,1.0,,,,,,,,,yellow,cross
0.0,6.0,1.0,1.0,6.0,6.0,770.1410260051489,3.0,1.0,phase_2,stop,500.0,650.0,3.0,,,,,,,,,cyan,hexagon
0.0,4.0,4.0,0.0,5.0,5.0,879.2021640110761,3.0,1.0,phase_2,go,500.0,600.0,1.0,,,,,,,,,green,diamond
0.0,5.0,0.5,1.0,5.0,0.0,0.0,3.0,1.0,phase_2,stop,500.0,600.0,4.0,,,,,,,,,magenta,flipped triangle
0.0,7.0,2.0,1.0,5.0,0.0,0.0,3.0,1.0,phase_2,stop,550.0,600.0,4.0,,,,,,,,,orange,square
0.0,2.0,1.0,0.0,5.0,5.0,319.0424961503595,4.0,1.0,phase_2,go,600.0,600.0,1.0,,,,,,,,,white,triangle
0.0,8.0,4.0,1.0,6.0,6.0,264.7659529466182,4.0,1.0,phase_2,stop,600.0,600.0,3.0,,,,,,,,,blue,circle
0.0,5.0,0.5,1.0,5.0,5.0,272.0024201553315,4.0,1.0,phase_2,stop,600.0,550.0,3.0,,,,,,,,,magenta,flipped triangle
0.0,2.0,1.0,0.0,5.0,5.0,437.7653489354998,4.0,1.0,phase_2,go,550.0,550.0,1.0,,,,,,,,,white,triangle
0.0,7.0,2.0,1.0,6.0,6.0,292.6994820591062,4.0,1.0,phase_2,stop,550.0,550.0,3.0,,,,,,,,,orange,square
0.0,6.0,1.0,1.0,6.0,6.0,518.7046099454165,4.0,1.0,phase_2,stop,550.0,500.0,3.0,,,,,,,,,cyan,hexagon
0.0,5.0,0.5,1.0,5.0,5.0,547.3402789793909,4.0,1.0,phase_2,stop,550.0,450.0,3.0,,,,,,,,,magenta,flipped triangle
0.0,7.0,2.0,1.0,6.0,6.0,243.9632329624146,4.0,1.0,phase_2,go,500.0,450.0,1.0,,,,,,,,,orange,square
0.0,8.0,4.0,1.0,6.0,6.0,557.6458098366857,4.0,1.0,phase_2,go,500.0,450.0,1.0,,,,,,,,,blue,circle
0.0,4.0,4.0,0.0,5.0,5.0,342.1097539830953,4.0,1.0,phase_2,go,500.0,450.0,1.0,,,,,,,,,green,diamond
0.0,7.0,2.0,1.0,6.0,6.0,201.9355699885636,4.0,1.0,phase_2,stop,500.0,450.0,3.0,,,,,,,,,orange,square
0.0,8.0,4.0,1.0,6.0,6.0,516.0112108569592,4.0,1.0,phase_2,stop,500.0,400.0,3.0,,,,,,,,,blue,circle
0.0,1.0,0.5,0.0,6.0,6.0,427.6679728645831,4.0,1.0,phase_2,go,500.0,350.0,1.0,,,,,,,,,gray,I
0.0,1.0,0.5,0.0,6.0,6.0,535.619119880721,4.0,1.0,phase_2,go,500.0,350.0,1.0,,,,,,,,,gray,I
0.0,6.0,1.0,1.0,6.0,0.0,0.0,4.0,1.0,phase_2,stop,500.0,350.0,4.0,,,,,,,,,cyan,hexagon
0.0,4.0,4.0,0.0,6.0,6.0,607.5687231495976,4.0,1.0,phase_2,go,500.0,400.0,1.0,,,,,,,,,green,diamond
0.0,2.0,1.0,0.0,5.0,5.0,214.4049671478569,4.0,1.0,phase_2,go,500.0,400.0,1.0,,,,,,,,,white,triangle
0.0,2.0,1.0,0.0,5.0,5.0,391.7888249270618,4.0,1.0,phase_2,go,500.0,400.0,1.0,,,,,,,,,white,triangle
0.0,6.0,1.0,1.0,5.0,5.0,518.197834957391,4.0,1.0,phase_2,stop,500.0,400.0,3.0,,,,,,,,,cyan,hexagon
0.0,2.0,1.0,0.0,5.0,5.0,519.026649184525,4.0,1.0,phase_2,go,450.0,400.0,1.0,,,,,,,,,white,triangle
0.0,6.0,1.0,1.0,5.0,5.0,405.8550628833473,4.0,1.0,phase_2,go,450.0,400.0,1.0,,,,,,,,,cyan,hexagon
0.0,7.0,2.0,1.0,5.0,5.0,255.46770100481808,4.0,1.0,phase_2,stop,450.0,400.0,3.0,,,,,,,,,orange,square
0.0,3.0,2.0,0.0,5.0,5.0,699.4538849685341,4.0,1.0,phase_2,go,400.0,400.0,1.0,,,,,,,,,yellow,cross
0.0,8.0,4.0,1.0,6.0,6.0,275.344941066578,4.0,1.0,phase_2,stop,400.0,400.0,3.0,,,,,,,,,blue,circle
0.0,4.0,4.0,0.0,5.0,5.0,428.084374172613,4.0,1.0,phase_2,go,400.0,350.0,1.0,,,,,,,,,green,diamond
0.0,5.0,0.5,1.0,6.0,6.0,371.4210090693086,4.0,1.0,phase_2,stop,400.0,350.0,3.0,,,,,,,,,magenta,flipped triangle
0.0,6.0,1.0,1.0,6.0,6.0,348.4400471206754,4.0,1.0,phase_2,stop,400.0,300.0,3.0,,,,,,,,,cyan,hexagon
0.0,2.0,1.0,0.0,5.0,5.0,631.7268849816173,4.0,1.0,phase_2,go,400.0,250.0,1.0,,,,,,,,,white,triangle
0.0,7.0,2.0,1.0,6.0,0.0,0.0,4.0,1.0,phase_2,stop,400.0,250.0,4.0,,,,,,,,,orange,square
0.0,3.0,2.0,0.0,6.0,6.0,551.3453788589686,4.0,1.0,phase_2,go,400.0,300.0,1.0,,,,,,,,,yellow,cross
0.0,1.0,0.5,0.0,6.0,6.0,391.6575210168957,4.0,1.0,phase_2,go,400.0,300.0,1.0,,,,,,,,,gray,I
0.0,2.0,1.0,0.0,6.0,6.0,272.9311201255768,4.0,1.0,phase_2,go,400.0,300.0,1.0,,,,,,,,,white,triangle
0.0,5.0,0.5,1.0,5.0,0.0,0.0,4.0,1.0,phase_2,stop,400.0,300.0,4.0,,,,,,,,,magenta,flipped triangle
0.0,3.0,2.0,0.0,6.0,6.0,471.7814929317683,4.0,1.0,phase_2,go,450.0,300.0,1.0,,,,,,,,,yellow,cross
0.0,2.0,1.0,0.0,6.0,6.0,375.5756979808211,4.0,1.0,phase_2,go,450.0,300.0,1.0,,,,,,,,,white,triangle
0.0,3.0,2.0,0.0,6.0,6.0,485.8121769502759,4.0,1.0,phase_2,go,450.0,300.0,1.0,,,,,,,,,yellow,cross
0.0,4.0,4.0,0.0,6.0,6.0,289.2735309433192,5.0,1.0,phase_2,go,450.0,300.0,1.0,,,,,,,,,green,diamond
0.0,2.0,1.0,0.0,6.0,6.0,304.7331869602203,5.0,1.0,phase_2,go,450.0,300.0,1.0,,,,,,,,,white,triangle
0.0,2.0,1.0,0.0,6.0,6.0,263.8592470902949,5.0,1.0,phase_2,go,450.0,300.0,1.0,,,,,,,,,white,triangle
0.0,4.0,4.0,0.0,6.0,6.0,214.3070900347083,5.0,1.0,phase_2,go,450.0,300.0,1.0,,,,,,,,,green,diamond
0.0,1.0,0.5,0.0,5.0,5.0,317.8819231688976,5.0,1.0,phase_2,go,450.0,300.0,1.0,,,,,,,,,gray,I
0.0,7.0,2.0,1.0,5.0,5.0,445.8911227993667,5.0,1.0,phase_2,go,450.0,300.0,1.0,,,,,,,,,orange,square
0.0,6.0,1.0,1.0,5.0,0.0,0.0,5.0,1.0,phase_2,stop,450.0,300.0,4.0,,,,,,,,,cyan,hexagon
0.0,3.0,2.0,0.0,5.0,5.0,579.3545551132411,5.0,1.0,phase_2,go,500.0,300.0,1.0,,,,,,,,,yellow,cross
0.0,3.0,2.0,0.0,5.0,5.0,388.849473092705,5.0,1.0,phase_2,go,500.0,300.0,1.0,,,,,,,,,yellow,cross
0.0,3.0,2.0,0.0,5.0,5.0,308.2204579841345,5.0,1.0,phase_2,go,500.0,300.0,1.0,,,,,,,,,yellow,cross
0.0,7.0,2.0,1.0,5.0,5.0,533.3938510157168,5.0,1.0,phase_2,stop,500.0,300.0,3.0,,,,,,,,,orange,square
0.0,7.0,2.0,1.0,6.0,6.0,241.8440498877316,5.0,1.0,phase_2,go,450.0,300.0,1.0,,,,,,,,,orange,square
0.0,5.0,0.5,1.0,5.0,5.0,233.7738599162548,5.0,1.0,phase_2,stop,450.0,300.0,3.0,,,,,,,,,magenta,flipped triangle
0.0,2.0,1.0,0.0,5.0,5.0,588.1031169556081,5.0,1.0,phase_2,go,400.0,300.0,1.0,,,,,,,,,white,triangle
0.0,2.0,1.0,0.0,6.0,6.0,271.4171821717173,5.0,1.0,phase_2,go,400.0,300.0,1.0,,,,,,,,,white,triangle
0.0,3.0,2.0,0.0,5.0,5.0,498.0403059162199,5.0,1.0,phase_2,go,400.0,300.0,1.0,,,,,,,,,yellow,cross
0.0,1.0,0.5,0.0,5.0,5.0,303.4415028523654,5.0,1.0,phase_2,go,400.0,300.0,1.0,,,,,,,,,gray,I
0.0,6.0,1.0,1.0,6.0,0.0,0.0,5.0,1.0,phase_2,stop,400.0,300.0,4.0,,,,,,,,,cyan,hexagon
0.0,8.0,4.0,1.0,6.0,6.0,401.0303749237209,5.0,1.0,phase_2,go,400.0,350.0,1.0,,,,,,,,,blue,circle
0.0,2.0,1.0,0.0,5.0,5.0,380.7858368381858,5.0,1.0,phase_2,go,400.0,350.0,1.0,,,,,,,,,white,triangle
0.0,4.0,4.0,0.0,6.0,6.0,264.3381750676781,5.0,1.0,phase_2,go,400.0,350.0,1.0,,,,,,,,,green,diamond
0.0,7.0,2.0,1.0,5.0,5.0,380.0551521126181,5.0,1.0,phase_2,stop,400.0,350.0,3.0,,,,,,,,,orange,square
0.0,4.0,4.0,0.0,6.0,6.0,243.2208750396967,5.0,1.0,phase_2,go,350.0,350.0,1.0,,,,,,,,,green,diamond
0.0,8.0,4.0,1.0,6.0,0.0,0.0,5.0,1.0,phase_2,stop,350.0,350.0,4.0,,,,,,,,,blue,circle
0.0,3.0,2.0,0.0,6.0,6.0,697.7576450444758,5.0,1.0,phase_2,go,350.0,400.0,1.0,,,,,,,,,yellow,cross
0.0,1.0,0.5,0.0,5.0,5.0,434.9239359144121,5.0,1.0,phase_2,go,350.0,400.0,1.0,,,,,,,,,gray,I
0.0,1.0,0.5,0.0,5.0,5.0,469.1138190682977,5.0,1.0,phase_2,go,350.0,400.0,1.0,,,,,,,,,gray,I
0.0,4.0,4.0,0.0,6.0,6.0,592.4493412021548,5.0,1.0,phase_2,go,350.0,400.0,1.0,,,,,,,,,green,diamond
0.0,6.0,1.0,1.0,5.0,0.0,0.0,5.0,1.0,phase_2,stop,350.0,400.0,4.0,,,,,,,,,cyan,hexagon
0.0,4.0,4.0,0.0,6.0,6.0,512.3960031196475,5.0,1.0,phase_2,go,400.0,400.0,1.0,,,,,,,,,green,diamond
0.0,2.0,1.0,0.0,5.0,5.0,450.8127651643008,5.0,1.0,phase_2,go,400.0,400.0,1.0,,,,,,,,,white,triangle
0.0,5.0,0.5,1.0,6.0,0.0,0.0,5.0,1.0,phase_2,stop,400.0,400.0,4.0,,,,,,,,,magenta,flipped triangle
0.0,4.0,4.0,0.0,5.0,5.0,518.0655859876424,5.0,1.0,phase_2,go,400.0,450.0,1.0,,,,,,,,,green,diamond
0.0,8.0,4.0,1.0,5.0,0.0,0.0,5.0,1.0,phase_2,stop,400.0,450.0,4.0,,,,,,,,,blue,circle
0.0,1.0,0.5,0.0,6.0,6.0,463.7489209417254,5.0,1.0,phase_2,go,450.0,450.0,1.0,,,,,,,,,gray,I
0.0,2.0,1.0,0.0,5.0,5.0,477.6477518025785,5.0,1.0,phase_2,go,450.0,450.0,1.0,,,,,,,,,white,triangle
0.0,3.0,2.0,0.0,6.0,6.0,330.3287969902158,6.0,1.0,phase_2,go,450.0,450.0,1.0,,,,,,,,,yellow,cross
0.0,5.0,0.5,1.0,5.0,5.0,261.516893049702,6.0,1.0,phase_2,stop,450.0,450.0,3.0,,,,,,,,,magenta,flipped triangle
0.0,4.0,4.0,0.0,5.0,5.0,471.9323550816625,6.0,1.0,phase_2,go,400.0,450.0,1.0,,,,,,,,,green,diamond
0.0,2.0,1.0,0.0,5.0,5.0,349.9631241429597,6.0,1.0,phase_2,go,400.0,450.0,1.0,,,,,,,,,white,triangle
0.0,5.0,0.5,1.0,6.0,6.0,614.0656159259379,6.0,1.0,phase_2,go,400.0,450.0,1.0,,,,,,,,,magenta,flipped triangle
0.0,4.0,4.0,0.0,6.0,6.0,406.2866258900612,6.0,1.0,phase_2,go,400.0,450.0,1.0,,,,,,,,,green,diamond
0.0,4.0,4.0,0.0,6.0,6.0,325.3342860843986,6.0,1.0,phase_2,go,400.0,450.0,1.0,,,,,,,,,green,diamond
0.0,3.0,2.0,0.0,5.0,5.0,442.7299220114946,6.0,1.0,phase_2,go,400.0,450.0,1.0,,,,,,,,,yellow,cross
0.0,5.0,0.5,1.0,6.0,5.0,580.4940001107752,6.0,1.0,phase_2,go,400.0,450.0,2.0,,,,,,,,,magenta,flipped triangle
0.0,6.0,1.0,1.0,5.0,0.0,0.0,6.0,1.0,phase_2,stop,400.0,450.0,4.0,,,,,,,,,cyan,hexagon
0.0,5.0,0.5,1.0,6.0,6.0,387.5539030414074,6.0,1.0,phase_2,stop,450.0,450.0,3.0,,,,,,,,,magenta,flipped triangle
0.0,2.0,1.0,0.0,6.0,6.0,623.7875348888338,6.0,1.0,phase_2,go,450.0,400.0,1.0,,,,,,,,,white,triangle
0.0,2.0,1.0,0.0,5.0,5.0,560.7027169317007,6.0,1.0,phase_2,go,450.0,400.0,1.0,,,,,,,,,white,triangle
0.0,8.0,4.0,1.0,5.0,5.0,568.4103008825332,6.0,1.0,phase_2,stop,450.0,400.0,3.0,,,,,,,,,blue,circle
0.0,7.0,2.0,1.0,5.0,0.0,0.0,6.0,1.0,phase_2,stop,400.0,400.0,4.0,,,,,,,,,orange,square
0.0,4.0,4.0,0.0,6.0,6.0,511.2053391057998,6.0,1.0,phase_2,go,450.0,400.0,1.0,,,,,,,,,green,diamond
0.0,1.0,0.5,0.0,6.0,6.0,501.4524939469993,6.0,1.0,phase_2,go,450.0,400.0,1.0,,,,,,,,,gray,I
0.0,6.0,1.0,1.0,5.0,0.0,0.0,6.0,1.0,phase_2,stop,450.0,400.0,4.0,,,,,,,,,cyan,hexagon
0.0,2.0,1.0,0.0,6.0,6.0,468.8965820241719,6.0,1.0,phase_2,go,500.0,400.0,1.0,,,,,,,,,white,triangle
0.0,3.0,2.0,0.0,6.0,6.0,598.9792861510068,6.0,1.0,phase_2,go,500.0,400.0,1.0,,,,,,,,,yellow,cross
0.0,3.0,2.0,0.0,5.0,5.0,598.035624017939,6.0,1.0,phase_2,go,500.0,400.0,1.0,,,,,,,,,yellow,cross
0.0,6.0,1.0,1.0,6.0,6.0,333.7744439486414,6.0,1.0,phase_2,stop,500.0,400.0,3.0,,,,,,,,,cyan,hexagon
0.0,5.0,0.5,1.0,5.0,5.0,299.5371490251273,6.0,1.0,phase_2,stop,500.0,350.0,3.0,,,,,,,,,magenta,flipped triangle
0.0,2.0,1.0,0.0,6.0,6.0,563.327263109386,6.0,1.0,phase_2,go,450.0,350.0,1.0,,,,,,,,,white,triangle
0.0,4.0,4.0,0.0,5.0,5.0,640.8877850044519,6.0,1.0,phase_2,go,450.0,350.0,1.0,,,,,,,,,green,diamond
0.0,8.0,4.0,1.0,5.0,0.0,0.0,6.0,1.0,phase_2,stop,450.0,350.0,4.0,,,,,,,,,blue,circle
0.0,6.0,1.0,1.0,6.0,6.0,721.7607211787254,6.0,1.0,phase_2,go,500.0,350.0,1.0,,,,,,,,,cyan,hexagon
0.0,5.0,0.5,1.0,5.0,0.0,0.0,6.0,1.0,phase_2,stop,500.0,350.0,4.0,,,,,,,,,magenta,flipped triangle
0.0,7.0,2.0,1.0,6.0,0.0,0.0,6.0,1.0,phase_2,stop,550.0,350.0,4.0,,,,,,,,,orange,square
0.0,2.0,1.0,0.0,6.0,6.0,549.8516589868814,6.0,1.0,phase_2,go,550.0,400.0,1.0,,,,,,,,,white,triangle
0.0,2.0,1.0,0.0,6.0,6.0,437.2954920399934,6.0,1.0,phase_2,go,550.0,400.0,1.0,,,,,,,,,white,triangle
0.0,4.0,4.0,0.0,6.0,6.0,518.680325942114,6.0,1.0,phase_2,go,550.0,400.0,1.0,,,,,,,,,green,diamond
0.0,7.0,2.0,1.0,6.0,6.0,556.7660129163414,6.0,1.0,phase_2,stop,550.0,400.0,3.0,,,,,,,,,orange,square
0.0,4.0,4.0,0.0,5.0,5.0,637.183649931103,6.0,1.0,phase_2,go,550.0,350.0,1.0,,,,,,,,,green,diamond
0.0,8.0,4.0,1.0,5.0,5.0,573.7943290732801,6.0,1.0,phase_2,stop,550.0,350.0,3.0,,,,,,,,,blue,circle
0.0,4.0,4.0,0.0,5.0,5.0,356.6270507872104,6.0,1.0,phase_2,go,500.0,350.0,1.0,,,,,,,,,green,diamond
0.0,8.0,4.0,1.0,5.0,5.0,337.9650979768485,7.0,1.0,phase_2,stop,500.0,350.0,3.0,,,,,,,,,blue,circle
0.0,1.0,0.5,0.0,6.0,6.0,466.9276541098952,7.0,1.0,phase_2,go,450.0,350.0,1.0,,,,,,,,,gray,I
0.0,3.0,2.0,0.0,5.0,5.0,328.6873588804155,7.0,1.0,phase_2,go,450.0,350.0,1.0,,,,,,,,,yellow,cross
0.0,1.0,0.5,0.0,5.0,5.0,379.0566199459135,7.0,1.0,phase_2,go,450.0,350.0,1.0,,,,,,,,,gray,I
0.0,6.0,1.0,1.0,5.0,5.0,541.9631821569055,7.0,1.0,phase_2,go,450.0,350.0,1.0,,,,,,,,,cyan,hexagon
0.0,2.0,1.0,0.0,6.0,6.0,407.6571110635996,7.0,1.0,phase_2,go,450.0,350.0,1.0,,,,,,,,,white,triangle
0.0,6.0,1.0,1.0,5.0,0.0,0.0,7.0,1.0,phase_2,stop,450.0,350.0,4.0,,,,,,,,,cyan,hexagon
0.0,4.0,4.0,0.0,5.0,5.0,536.1691999714822,7.0,1.0,phase_2,go,500.0,350.0,1.0,,,,,,,,,green,diamond
0.0,7.0,2.0,1.0,5.0,0.0,0.0,7.0,1.0,phase_2,stop,500.0,350.0,4.0,,,,,,,,,orange,square
0.0,3.0,2.0,0.0,6.0,6.0,539.5084219053388,7.0,1.0,phase_2,go,550.0,350.0,1.0,,,,,,,,,yellow,cross
0.0,5.0,0.5,1.0,6.0,6.0,418.3551981113851,7.0,1.0,phase_2,stop,550.0,350.0,3.0,,,,,,,,,magenta,flipped triangle
0.0,8.0,4.0,1.0,6.0,6.0,323.3552500605583,7.0,1.0,phase_2,stop,550.0,300.0,3.0,,,,,,,,,blue,circle
0.0,4.0,4.0,0.0,6.0,6.0,588.2924019824713,7.0,1.0,phase_2,go,550.0,250.0,1.0,,,,,,,,,green,diamond
0.0,3.0,2.0,0.0,5.0,5.0,508.442894089967,7.0,1.0,phase_2,go,550.0,250.0,1.0,,,,,,,,,yellow,cross
0.0,6.0,1.0,1.0,6.0,0.0,0.0,7.0,1.0,phase_2,stop,550.0,250.0,4.0,,,,,,,,,cyan,hexagon
0.0,5.0,0.5,1.0,6.0,6.0,599.5579350274056,7.0,1.0,phase_2,go,550.0,300.0,1.0,,,,,,,,,magenta,flipped triangle
0.0,5.0,0.5,1.0,5.0,0.0,0.0,7.0,1.0,phase_2,stop,550.0,300.0,4.0,,,,,,,,,magenta,flipped triangle
0.0,6.0,1.0,1.0,5.0,5.0,855.7220590300858,7.0,1.0,phase_2,go,600.0,300.0,1.0,,,,,,,,,cyan,hexagon
0.0,1.0,0.5,0.0,5.0,5.0,446.7983350623399,7.0,1.0,phase_2,go,600.0,300.0,1.0,,,,,,,,,gray,I
0.0,7.0,2.0,1.0,6.0,0.0,0.0,7.0,1.0,phase_2,stop,600.0,300.0,4.0,,,,,,,,,orange,square
0.0,5.0,0.5,1.0,5.0,5.0,636.8937839288265,7.0,1.0,phase_2,go,600.0,350.0,1.0,,,,,,,,,magenta,flipped triangle
0.0,7.0,2.0,1.0,5.0,0.0,0.0,7.0,1.0,phase_2,stop,600.0,350.0,4.0,,,,,,,,,orange,square
0.0,7.0,2.0,1.0,5.0,5.0,667.4614350777119,7.0,1.0,phase_2,go,650.0,350.0,1.0,,,,,,,,,orange,square
0.0,3.0,2.0,0.0,6.0,6.0,779.0453450288624,7.0,1.0,phase_2,go,650.0,350.0,1.0,,,,,,,,,yellow,cross
0.0,8.0,4.0,1.0,5.0,5.0,659.445924917236,7.0,1.0,phase_2,go,650.0,350.0,1.0,,,,,,,,,blue,circle
0.0,6.0,1.0,1.0,6.0,0.0,0.0,7.0,1.0,phase_2,stop,650.0,350.0,4.0,,,,,,,,,cyan,hexagon
0.0,6.0,1.0,1.0,6.0,6.0,507.99034093506634,7.0,1.0,phase_2,stop,650.0,400.0,3.0,,,,,,,,,cyan,hexagon
0.0,6.0,1.0,1.0,6.0,0.0,0.0,7.0,1.0,phase_2,stop,650.0,350.0,4.0,,,,,,,,,cyan,hexagon
0.0,3.0,2.0,0.0,6.0,6.0,699.8884850181639,7.0,1.0,phase_2,go,650.0,400.0,1.0,,,,,,,,,yellow,cross
0.0,3.0,2.0,0.0,6.0,6.0,627.4613358546048,7.0,1.0,phase_2,go,650.0,400.0,1.0,,,,,,,,,yellow,cross
0.0,5.0,0.5,1.0,5.0,5.0,641.902461880818,7.0,1.0,phase_2,stop,650.0,400.0,3.0,,,,,,,,,magenta,flipped triangle
0.0,2.0,1.0,0.0,6.0,6.0,544.5750791113824,7.0,1.0,phase_2,go,600.0,400.0,1.0,,,,,,,,,white,triangle
0.0,1.0,0.5,0.0,5.0,5.0,366.647636052221,7.0,1.0,phase_2,go,600.0,400.0,1.0,,,,,,,,,gray,I
0.0,1.0,0.5,0.0,6.0,6.0,358.0417679622769,7.0,1.0,phase_2,go,600.0,400.0,1.0,,,,,,,,,gray,I
0.0,7.0,2.0,1.0,6.0,0.0,0.0,7.0,1.0,phase_2,stop,600.0,400.0,4.0,,,,,,,,,orange,square
0.0,7.0,2.0,1.0,5.0,5.0,625.1854230649769,7.0,1.0,phase_2,stop,600.0,450.0,3.0,,,,,,,,,orange,square
0.0,2.0,1.0,0.0,6.0,6.0,360.2639329619705,8.0,1.0,phase_2,go,550.0,450.0,1.0,,,,,,,,,white,triangle
0.0,1.0,0.5,0.0,5.0,5.0,415.7522411551326,8.0,1.0,phase_2,go,550.0,450.0,1.0,,,,,,,,,gray,I
0.0,5.0,0.5,1.0,5.0,5.0,319.7612059302628,8.0,1.0,phase_2,stop,550.0,450.0,3.0,,,,,,,,,magenta,flipped triangle
0.0,1.0,0.5,0.0,6.0,6.0,542.5383939873427,8.0,1.0,phase_2,go,500.0,450.0,1.0,,,,,,,,,gray,I
0.0,2.0,1.0,0.0,6.0,6.0,536.8110910058022,8.0,1.0,phase_2,go,500.0,450.0,1.0,,,,,,,,,white,triangle
0.0,7.0,2.0,1.0,6.0,0.0,0.0,8.0,1.0,phase_2,stop,500.0,450.0,4.0,,,,,,,,,orange,square
0.0,7.0,2.0,1.0,6.0,6.0,631.710855057463,8.0,1.0,phase_2,go,500.0,500.0,1.0,,,,,,,,,orange,square
0.0,7.0,2.0,1.0,6.0,6.0,539.686867967248,8.0,1.0,phase_2,stop,500.0,500.0,3.0,,,,,,,,,orange,square
0.0,4.0,4.0,0.0,5.0,5.0,508.8061299175024,8.0,1.0,phase_2,go,500.0,450.0,1.0,,,,,,,,,green,diamond
0.0,8.0,4.0,1.0,6.0,6.0,669.2935519386083,8.0,1.0,phase_2,go,500.0,450.0,1.0,,,,,,,,,blue,circle
0.0,1.0,0.5,0.0,6.0,6.0,378.0591171234846,8.0,1.0,phase_2,go,500.0,450.0,1.0,,,,,,,,,gray,I
0.0,3.0,2.0,0.0,5.0,5.0,401.1601977981627,8.0,1.0,phase_2,go,500.0,450.0,1.0,,,,,,,,,yellow,cross
0.0,2.0,1.0,0.0,5.0,5.0,363.2281140889972,8.0,1.0,phase_2,go,500.0,450.0,1.0,,,,,,,,,white,triangle
0.0,4.0,4.0,0.0,6.0,6.0,330.0732281059026,8.0,1.0,phase_2,go,500.0,450.0,1.0,,,,,,,,,green,diamond
0.0,6.0,1.0,1.0,5.0,5.0,576.2174399569631,8.0,1.0,phase_2,stop,500.0,450.0,3.0,,,,,,,,,cyan,hexagon
0.0,2.0,1.0,0.0,5.0,5.0,505.7225429918617,8.0,1.0,phase_2,go,450.0,450.0,1.0,,,,,,,,,white,triangle
0.0,4.0,4.0,0.0,5.0,5.0,358.7739949580282,8.0,1.0,phase_2,go,450.0,450.0,1.0,,,,,,,,,green,diamond
0.0,2.0,1.0,0.0,5.0,5.0,526.4821469318122,8.0,1.0,phase_2,go,450.0,450.0,1.0,,,,,,,,,white,triangle
0.0,1.0,0.5,0.0,5.0,5.0,425.4028839059174,8.0,1.0,phase_2,go,450.0,450.0,1.0,,,,,,,,,gray,I
0.0,7.0,2.0,1.0,6.0,6.0,545.9826199803501,8.0,1.0,phase_2,stop,450.0,450.0,3.0,,,,,,,,,orange,square
0.0,8.0,4.0,1.0,5.0,0.0,0.0,8.0,1.0,phase_2,stop,450.0,400.0,4.0,,,,,,,,,blue,circle
0.0,6.0,1.0,1.0,5.0,0.0,0.0,8.0,1.0,phase_2,stop,500.0,400.0,4.0,,,,,,,,,cyan,hexagon
0.0,3.0,2.0,0.0,5.0,5.0,550.1722008921206,8.0,1.0,phase_2,go,550.0,400.0,1.0,,,,,,,,,yellow,cross
0.0,3.0,2.0,0.0,6.0,6.0,426.537255058065,8.0,1.0,phase_2,go,550.0,400.0,1.0,,,,,,,,,yellow,cross
0.0,4.0,4.0,0.0,5.0,5.0,602.5196241680533,8.0,1.0,phase_2,go,550.0,400.0,1.0,,,,,,,,,green,diamond
0.0,8.0,4.0,1.0,5.0,0.0,0.0,8.0,1.0,phase_2,stop,550.0,400.0,4.0,,,,,,,,,blue,circle
0.0,6.0,1.0,1.0,6.0,6.0,465.762723935768,8.0,1.0,phase_2,stop,600.0,400.0,3.0,,,,,,,,,cyan,hexagon
0.0,4.0,4.0,0.0,5.0,5.0,555.3283831104636,8.0,1.0,phase_2,go,600.0,350.0,1.0,,,,,,,,,green,diamond
0.0,3.0,2.0,0.0,5.0,5.0,424.0402090363204,8.0,1.0,phase_2,go,600.0,350.0,1.0,,,,,,,,,yellow,cross
0.0,5.0,0.5,1.0,6.0,6.0,321.8359670136124,8.0,1.0,phase_2,stop,600.0,350.0,3.0,,,,,,,,,magenta,flipped triangle
0.0,1.0,0.5,0.0,6.0,6.0,345.366186928004,8.0,1.0,phase_2,go,600.0,300.0,1.0,,,,,,,,,gray,I
0.0,7.0,2.0,1.0,5.0,5.0,895.1280368492007,8.0,1.0,phase_2,go,600.0,300.0,1.0,,,,,,,,,orange,square
0.0,1.0,0.5,0.0,6.0,6.0,343.635335098952,8.0,1.0,phase_2,go,600.0,300.0,1.0,,,,,,,,,gray,I
0.0,5.0,0.5,1.0,6.0,6.0,341.3274679332971,8.0,1.0,phase_2,stop,600.0,300.0,3.0,,,,,,,,,magenta,flipped triangle
0.0,8.0,4.0,1.0,6.0,0.0,0.0,8.0,1.0,phase_2,stop,600.0,250.0,4.0,,,,,,,,,blue,circle
0.0,1.0,0.5,0.0,5.0,5.0,396.7798911035061,8.0,1.0,phase_2,go,600.0,300.0,1.0,,,,,,,,,gray,I
0.0,7.0,2.0,1.0,7.0,1.0,3020.1750970445573,1.0,1.0,phase_3,,,,,98.0,2.0,98.0,196.0,245.0,49.0,294.0,147.0,orange,square
0.0,3.0,2.0,0.0,7.0,1.0,1918.2347860187288,1.0,1.0,phase_3,,,,,78.0,2.0,78.0,39.0,234.0,156.0,117.0,195.0,yellow,cross
0.0,1.0,0.5,0.0,7.0,6.0,1830.942671047524,1.0,1.0,phase_3,,,,,49.0,1.0,196.0,245.0,147.0,294.0,98.0,49.0,gray,I
0.0,4.0,4.0,0.0,7.0,3.0,1923.4571850392967,1.0,1.0,phase_3,,,,,324.0,6.0,54.0,216.0,324.0,162.0,108.0,270.0,green,diamond
0.0,7.0,2.0,1.0,7.0,4.0,2489.4603369757533,1.0,1.0,phase_3,,,,,156.0,4.0,234.0,78.0,195.0,156.0,117.0,39.0,orange,square
0.0,7.0,2.0,1.0,7.0,5.0,1806.524680927396,1.0,1.0,phase_3,,,,,176.0,4.0,44.0,88.0,220.0,264.0,176.0,132.0,orange,square
0.0,8.0,4.0,1.0,7.0,2.0,2381.278479006141,1.0,1.0,phase_3,,,,,294.0,6.0,147.0,294.0,49.0,196.0,98.0,245.0,blue,circle
0.0,2.0,1.0,0.0,7.0,4.0,1710.5280910618603,1.0,1.0,phase_3,,,,,44.0,1.0,132.0,176.0,264.0,44.0,220.0,88.0,white,triangle
0.0,1.0,0.5,0.0,7.0,6.0,1184.246231103316,1.0,1.0,phase_3,,,,,44.0,1.0,220.0,176.0,132.0,264.0,88.0,44.0,gray,I
0.0,7.0,2.0,1.0,7.0,3.0,3603.497242089361,1.0,1.0,phase_3,,,,,170.0,5.0,136.0,204.0,170.0,102.0,34.0,68.0,orange,square
0.0,4.0,4.0,0.0,7.0,2.0,3054.0234819054604,1.0,1.0,phase_3,,,,,324.0,6.0,216.0,324.0,54.0,162.0,270.0,108.0,green,diamond
0.0,5.0,0.5,1.0,7.0,6.0,3547.9931998997927,1.0,1.0,phase_3,,,,,98.0,2.0,245.0,294.0,196.0,49.0,147.0,98.0,magenta,flipped triangle
0.0,8.0,4.0,1.0,7.0,2.0,1636.6970927920192,1.0,1.0,phase_3,,,,,264.0,6.0,132.0,264.0,176.0,44.0,88.0,220.0,blue,circle
0.0,3.0,2.0,0.0,7.0,3.0,4335.44433186762,1.0,1.0,phase_3,,,,,88.0,2.0,44.0,132.0,88.0,176.0,220.0,264.0,yellow,cross
0.0,4.0,4.0,0.0,7.0,2.0,1599.73327210173,1.0,1.0,phase_3,,,,,294.0,6.0,245.0,294.0,49.0,147.0,196.0,98.0,green,diamond
0.0,5.0,0.5,1.0,7.0,3.0,3371.247506001964,1.0,1.0,phase_3,,,,,68.0,2.0,136.0,170.0,68.0,34.0,102.0,204.0,magenta,flipped triangle
0.0,8.0,4.0,1.0,7.0,6.0,2066.6621709242463,1.0,1.0,phase_3,,,,,264.0,6.0,176.0,132.0,44.0,88.0,220.0,264.0,blue,circle
0.0,3.0,2.0,0.0,7.0,2.0,3363.3614268619567,1.0,1.0,phase_3,,,,,102.0,3.0,136.0,102.0,204.0,34.0,68.0,170.0,yellow,cross
0.0,8.0,4.0,1.0,7.0,3.0,1973.2302338816223,1.0,1.0,phase_3,,,,,324.0,6.0,162.0,270.0,324.0,216.0,54.0,108.0,blue,circle
0.0,4.0,4.0,0.0,7.0,3.0,1649.7627180069685,1.0,1.0,phase_3,,,,,204.0,6.0,170.0,136.0,204.0,102.0,68.0,34.0,green,diamond
0.0,6.0,1.0,1.0,7.0,1.0,2595.585086150095,2.0,1.0,phase_3,,,,,39.0,1.0,39.0,234.0,156.0,117.0,195.0,78.0,cyan,hexagon
0.0,6.0,1.0,1.0,7.0,3.0,2042.8825251292442,2.0,1.0,phase_3,,,,,54.0,1.0,216.0,108.0,54.0,324.0,162.0,270.0,cyan,hexagon
0.0,5.0,0.5,1.0,7.0,1.0,1532.129663042724,2.0,1.0,phase_3,,,,,44.0,1.0,44.0,176.0,264.0,220.0,88.0,132.0,magenta,flipped triangle
0.0,8.0,4.0,1.0,7.0,2.0,3100.7010659668595,2.0,1.0,phase_3,,,,,234.0,6.0,117.0,234.0,78.0,156.0,39.0,195.0,blue,circle
0.0,6.0,1.0,1.0,7.0,6.0,2520.9561709780246,2.0,1.0,phase_3,,,,,102.0,3.0,204.0,136.0,68.0,170.0,34.0,102.0,cyan,hexagon
0.0,3.0,2.0,0.0,7.0,6.0,2899.137801025063,2.0,1.0,phase_3,,,,,88.0,2.0,220.0,176.0,132.0,44.0,264.0,88.0,yellow,cross
0.0,2.0,1.0,0.0,7.0,3.0,3098.685211967677,2.0,1.0,phase_3,,,,,54.0,1.0,162.0,324.0,54.0,108.0,216.0,270.0,white,triangle
0.0,1.0,0.5,0.0,7.0,6.0,1350.004006875679,2.0,1.0,phase_3,,,,,34.0,1.0,204.0,68.0,170.0,102.0,136.0,34.0,gray,I
0.0,3.0,2.0,0.0,7.0,5.0,2500.557899940759,2.0,1.0,phase_3,,,,,98.0,2.0,196.0,245.0,147.0,294.0,98.0,49.0,yellow,cross
0.0,1.0,0.5,0.0,7.0,2.0,1661.7610489483925,2.0,1.0,phase_3,,,,,49.0,1.0,98.0,49.0,294.0,245.0,196.0,147.0,gray,I
0.0,6.0,1.0,1.0,7.0,1.0,3104.563657194376,2.0,1.0,phase_3,,,,,88.0,2.0,88.0,132.0,44.0,264.0,176.0,220.0,cyan,hexagon
0.0,2.0,1.0,0.0,7.0,6.0,1377.0200808066877,2.0,1.0,phase_3,,,,,34.0,1.0,68.0,204.0,136.0,102.0,170.0,34.0,white,triangle
0.0,1.0,0.5,0.0,7.0,5.0,3051.076898118481,2.0,1.0,phase_3,,,,,39.0,1.0,156.0,234.0,78.0,195.0,39.0,117.0,gray,I
0.0,4.0,4.0,0.0,7.0,3.0,4917.911838972941,2.0,1.0,phase_3,,,,,264.0,6.0,220.0,88.0,264.0,44.0,132.0,176.0,green,diamond
0.0,8.0,4.0,1.0,7.0,1.0,2909.69025506638,2.0,1.0,phase_3,,,,,204.0,6.0,204.0,170.0,136.0,34.0,68.0,102.0,blue,circle
0.0,5.0,0.5,1.0,7.0,4.0,3350.2430918160826,2.0,1.0,phase_3,,,,,117.0,3.0,78.0,39.0,156.0,117.0,234.0,195.0,magenta,flipped triangle
0.0,6.0,1.0,1.0,7.0,1.0,2606.8023920524865,2.0,1.0,phase_3,,,,,162.0,3.0,162.0,216.0,108.0,324.0,54.0,270.0,cyan,hexagon
0.0,2.0,1.0,0.0,7.0,1.0,2202.9985110275447,2.0,1.0,phase_3,,,,,54.0,1.0,54.0,162.0,270.0,108.0,324.0,216.0,white,triangle
0.0,2.0,1.0,0.0,7.0,6.0,2865.7395280897617,2.0,1.0,phase_3,,,,,49.0,1.0,196.0,294.0,245.0,147.0,98.0,49.0,white,triangle
0.0,5.0,0.5,1.0,7.0,6.0,1067.6951881032437,2.0,2.0,phase_3,,,,,108.0,2.0,54.0,216.0,162.0,324.0,270.0,108.0,magenta,flipped triangle
0.0,5.0,0.5,1.0,7.0,4.0,2518.9279559999704,3.0,1.0,phase_3,,,,,156.0,4.0,234.0,195.0,117.0,156.0,78.0,39.0,magenta,flipped triangle
0.0,7.0,2.0,1.0,7.0,2.0,2444.790229201317,3.0,1.0,phase_3,,,,,132.0,3.0,264.0,132.0,44.0,88.0,176.0,220.0,orange,square
0.0,2.0,1.0,0.0,7.0,5.0,2065.799226053059,3.0,1.0,phase_3,,,,,39.0,1.0,195.0,234.0,78.0,117.0,39.0,156.0,white,triangle
0.0,3.0,2.0,0.0,7.0,3.0,1546.2841901462523,3.0,1.0,phase_3,,,,,98.0,2.0,294.0,147.0,98.0,245.0,49.0,196.0,yellow,cross
0.0,4.0,4.0,0.0,7.0,4.0,3384.185491129756,3.0,1.0,phase_3,,,,,204.0,6.0,68.0,170.0,34.0,204.0,102.0,136.0,green,diamond
0.0,8.0,4.0,1.0,7.0,6.0,1858.239826047793,3.0,1.0,phase_3,,,,,195.0,5.0,78.0,117.0,39.0,156.0,234.0,195.0,blue,circle
0.0,1.0,0.5,0.0,7.0,2.0,1557.5244950596243,3.0,1.0,phase_3,,,,,34.0,1.0,102.0,34.0,68.0,170.0,136.0,204.0,gray,I
0.0,7.0,2.0,1.0,7.0,6.0,2120.8025400992483,3.0,1.0,phase_3,,,,,136.0,4.0,102.0,34.0,170.0,68.0,204.0,136.0,orange,square
0.0,6.0,1.0,1.0,7.0,5.0,1544.826383003965,3.0,1.0,phase_3,,,,,117.0,3.0,39.0,234.0,78.0,195.0,117.0,156.0,cyan,hexagon
0.0,1.0,0.5,0.0,7.0,3.0,2199.746514903381,3.0,1.0,phase_3,,,,,54.0,1.0,216.0,108.0,54.0,162.0,324.0,270.0,gray,I
0.0,1.0,0.5,0.0,7.0,4.0,979.89059984684,3.0,1.0,phase_3,,,,,54.0,1.0,162.0,270.0,108.0,54.0,324.0,216.0,gray,I
0.0,7.0,2.0,1.0,7.0,2.0,2482.965252129361,3.0,1.0,phase_3,,,,,147.0,3.0,98.0,147.0,196.0,294.0,245.0,49.0,orange,square
0.0,6.0,1.0,1.0,7.0,3.0,2227.0685399416834,3.0,1.0,phase_3,,,,,102.0,3.0,136.0,34.0,102.0,204.0,170.0,68.0,cyan,hexagon
0.0,5.0,0.5,1.0,7.0,2.0,2024.0440438501537,3.0,1.0,phase_3,,,,,102.0,3.0,136.0,102.0,170.0,34.0,204.0,68.0,magenta,flipped triangle
0.0,6.0,1.0,1.0,7.0,4.0,2087.327691959217,3.0,1.0,phase_3,,,,,49.0,1.0,147.0,98.0,196.0,49.0,245.0,294.0,cyan,hexagon
0.0,2.0,1.0,0.0,7.0,4.0,1008.390846895054,3.0,1.0,phase_3,,,,,44.0,1.0,176.0,88.0,132.0,44.0,264.0,220.0,white,triangle
0.0,2.0,1.0,0.0,7.0,6.0,2208.691936917603,3.0,1.0,phase_3,,,,,34.0,1.0,204.0,170.0,136.0,68.0,102.0,34.0,white,triangle
0.0,4.0,4.0,0.0,7.0,2.0,2004.8216779250652,3.0,1.0,phase_3,,,,,195.0,5.0,39.0,195.0,78.0,234.0,156.0,117.0,green,diamond
0.0,6.0,1.0,1.0,7.0,1.0,2619.8070468381047,3.0,1.0,phase_3,,,,,88.0,2.0,88.0,176.0,220.0,44.0,264.0,132.0,cyan,hexagon
0.0,5.0,0.5,1.0,7.0,1.0,1799.0739361848682,3.0,1.0,phase_3,,,,,108.0,2.0,108.0,216.0,270.0,162.0,54.0,324.0,magenta,flipped triangle
0.0,3.0,2.0,0.0,7.0,2.0,1877.32549989596,4.0,1.0,phase_3,,,,,108.0,2.0,270.0,108.0,324.0,162.0,54.0,216.0,yellow,cross
0.0,6.0,1.0,1.0,7.0,6.0,1825.3870860207824,4.0,1.0,phase_3,,,,,98.0,2.0,294.0,147.0,245.0,196.0,49.0,98.0,cyan,hexagon
0.0,3.0,2.0,0.0,7.0,1.0,2313.229458173737,4.0,1.0,phase_3,,,,,68.0,2.0,68.0,102.0,136.0,204.0,170.0,34.0,yellow,cross
0.0,8.0,4.0,1.0,7.0,4.0,1868.6345091555268,4.0,1.0,phase_3,,,,,170.0,5.0,136.0,68.0,204.0,170.0,34.0,102.0,blue,circle
0.0,8.0,4.0,1.0,7.0,3.0,2388.4110120125115,4.0,1.0,phase_3,,,,,245.0,5.0,196.0,98.0,245.0,49.0,147.0,294.0,blue,circle
0.0,8.0,4.0,1.0,7.0,2.0,3109.320906922221,4.0,1.0,phase_3,,,,,270.0,5.0,324.0,270.0,108.0,54.0,216.0,162.0,blue,circle
0.0,3.0,2.0,0.0,7.0,6.0,2425.1184249296784,4.0,1.0,phase_3,,,,,54.0,1.0,216.0,162.0,324.0,270.0,108.0,54.0,yellow,cross
0.0,2.0,1.0,0.0,7.0,6.0,730.6498230900615,4.0,1.0,phase_3,,,,,49.0,1.0,196.0,147.0,98.0,245.0,294.0,49.0,white,triangle
0.0,4.0,4.0,0.0,7.0,5.0,2160.0519409403205,4.0,1.0,phase_3,,,,,176.0,4.0,264.0,44.0,132.0,88.0,176.0,220.0,green,diamond
0.0,7.0,2.0,1.0,7.0,2.0,1930.4378079250453,4.0,1.0,phase_3,,,,,162.0,3.0,108.0,162.0,324.0,270.0,54.0,216.0,orange,square
0.0,4.0,4.0,0.0,7.0,3.0,3500.863825902343,4.0,1.0,phase_3,,,,,196.0,4.0,49.0,98.0,196.0,245.0,294.0,147.0,green,diamond
0.0,2.0,1.0,0.0,7.0,5.0,1629.3721511028707,4.0,1.0,phase_3,,,,,78.0,2.0,195.0,117.0,156.0,39.0,78.0,234.0,white,triangle
0.0,1.0,0.5,0.0,7.0,3.0,2359.515779884532,4.0,1.0,phase_3,,,,,39.0,1.0,234.0,78.0,39.0,117.0,156.0,195.0,gray,I
0.0,5.0,0.5,1.0,7.0,3.0,1538.0625978577882,4.0,1.0,phase_3,,,,,88.0,2.0,176.0,264.0,88.0,220.0,132.0,44.0,magenta,flipped triangle
0.0,7.0,2.0,1.0,7.0,1.0,1688.7627749238163,4.0,1.0,phase_3,,,,,117.0,3.0,117.0,156.0,78.0,234.0,195.0,39.0,orange,square
0.0,4.0,4.0,0.0,7.0,5.0,2290.974962990731,4.0,1.0,phase_3,,,,,195.0,5.0,156.0,117.0,39.0,78.0,195.0,234.0,green,diamond
0.0,3.0,2.0,0.0,7.0,2.0,2012.9263941198587,4.0,1.0,phase_3,,,,,117.0,3.0,78.0,117.0,195.0,234.0,39.0,156.0,yellow,cross
0.0,5.0,0.5,1.0,7.0,5.0,2212.355271913111,4.0,1.0,phase_3,,,,,49.0,1.0,196.0,98.0,147.0,245.0,49.0,294.0,magenta,flipped triangle
0.0,7.0,2.0,1.0,7.0,2.0,2214.336895849556,4.0,1.0,phase_3,,,,,162.0,3.0,324.0,162.0,270.0,108.0,54.0,216.0,orange,square
0.0,1.0,0.5,0.0,7.0,5.0,1872.7656279224905,4.0,1.0,phase_3,,,,,220.0,5.0,88.0,176.0,44.0,264.0,220.0,132.0,gray,I
