raw_reward_magnitude,stim_reward,stepwise_reward_magnitude,paired_with_stopping,stim_location,response,reaction_time,block,num_trial_presentations,which_phase,stop_signal_trial_type,left_SSD,right_SSD,accuracy,chosen_bidding_amount,chosen_bidding_level,possible_bid_1,possible_bid_2,possible_bid_3,possible_bid_4,possible_bid_5,possible_bid_6,color_text,shape_text
75.0,5.0,1.0,1.0,3.0,3.0,606.5819561481476,1.0,1.0,phase_1,,,,,,,,,,,,,gray,diamond
105.0,2.0,2.0,0.0,3.0,3.0,542.1414501033723,1.0,1.0,phase_1,,,,,,,,,,,,,green,triangle
65.0,5.0,1.0,1.0,1.0,1.0,473.1447931844741,1.0,1.0,phase_1,,,,,,,,,,,,,gray,diamond
215.0,3.0,3.0,0.0,1.0,1.0,428.3479182049632,1.0,1.0,phase_1,,,,,,,,,,,,,orange,flipped triangle
0.0,2.0,0.0,0.0,4.0,4.0,480.4574178997427,1.0,1.0,phase_1,,,,,,,,,,,,,green,triangle
419.0,4.0,4.0,0.0,4.0,4.0,437.4818638898432,1.0,1.0,phase_1,,,,,,,,,,,,,yellow,square
0.0,2.0,0.0,0.0,1.0,1.0,467.5319439265877,1.0,1.0,phase_1,,,,,,,,,,,,,green,triangle
0.0,4.0,0.0,0.0,3.0,3.0,640.3714960906655,1.0,1.0,phase_1,,,,,,,,,,,,,yellow,square
72.0,1.0,1.0,0.0,1.0,1.0,509.0667309705168,1.0,1.0,phase_1,,,,,,,,,,,,,white,cross
412.0,8.0,4.0,1.0,3.0,3.0,593.9499959349632,1.0,1.0,phase_1,,,,,,,,,,,,,blue,hexagon
401.0,4.0,4.0,0.0,1.0,1.0,437.8769560717046,1.0,1.0,phase_1,,,,,,,,,,,,,yellow,square
102.0,2.0,2.0,0.0,4.0,4.0,458.3801839035004,1.0,1.0,phase_1,,,,,,,,,,,,,green,triangle
41.0,5.0,1.0,1.0,2.0,2.0,481.7296550609171,1.0,1.0,phase_1,,,,,,,,,,,,,gray,diamond
183.0,7.0,3.0,1.0,2.0,2.0,669.7471670340747,1.0,1.0,phase_1,,,,,,,,,,,,,cyan,circle
0.0,1.0,0.0,0.0,4.0,4.0,490.2133960276842,1.0,1.0,phase_1,,,,,,,,,,,,,white,cross
120.0,6.0,2.0,1.0,3.0,3.0,503.90309002250433,1.0,1.0,phase_1,,,,,,,,,,,,,magenta,I
404.0,4.0,4.0,0.0,2.0,2.0,491.9079879764467,1.0,1.0,phase_1,,,,,,,,,,,,,yellow,square
0.0,1.0,0.0,0.0,1.0,1.0,448.3788730576634,1.0,1.0,phase_1,,,,,,,,,,,,,white,cross
72.0,5.0,1.0,1.0,4.0,4.0,540.7806339208037,1.0,1.0,phase_1,,,,,,,,,,,,,gray,diamond
385.0,4.0,4.0,0.0,3.0,3.0,470.8155919797718,1.0,1.0,phase_1,,,,,,,,,,,,,yellow,square
406.0,4.0,4.0,0.0,1.0,1.0,523.8183729816228,1.0,1.0,phase_1,,,,,,,,,,,,,yellow,square
58.0,1.0,1.0,0.0,4.0,4.0,623.9682601299137,1.0,1.0,phase_1,,,,,,,,,,,,,white,cross
418.0,8.0,4.0,1.0,1.0,1.0,535.3203089907765,1.0,1.0,phase_1,,,,,,,,,,,,,blue,hexagon
29.0,5.0,1.0,1.0,2.0,2.0,499.6004411950707,1.0,1.0,phase_1,,,,,,,,,,,,,gray,diamond
86.0,6.0,2.0,1.0,2.0,2.0,608.3290569949895,1.0,1.0,phase_1,,,,,,,,,,,,,magenta,I
34.0,1.0,1.0,0.0,4.0,4.0,404.7431820072233,1.0,1.0,phase_1,,,,,,,,,,,,,white,cross
0.0,8.0,0.0,1.0,3.0,3.0,559.709798078984,1.0,1.0,phase_1,,,,,,,,,,,,,blue,hexagon
99.0,2.0,2.0,0.0,2.0,2.0,414.5042020827532,1.0,1.0,phase_1,,,,,,,,,,,,,green,triangle
390.0,4.0,4.0,0.0,2.0,2.0,417.3014438711107,1.0,1.0,phase_1,,,,,,,,,,,,,yellow,square
406.0,8.0,4.0,1.0,4.0,4.0,352.0760328974575,1.0,1.0,phase_1,,,,,,,,,,,,,blue,hexagon
72.0,5.0,1.0,1.0,3.0,3.0,396.9052208121866,1.0,1.0,phase_1,,,,,,,,,,,,,gray,diamond
54.0,1.0,1.0,0.0,1.0,1.0,329.6262351796031,1.0,1.0,phase_1,,,,,,,,,,,,,white,cross
46.0,1.0,1.0,0.0,2.0,2.0,686.9084578938782,1.0,1.0,phase_1,,,,,,,,,,,,,white,cross
0.0,7.0,0.0,1.0,4.0,4.0,449.2355899419635,1.0,1.0,phase_1,,,,,,,,,,,,,cyan,circle
79.0,6.0,2.0,1.0,2.0,2.0,599.0707310847938,1.0,1.0,phase_1,,,,,,,,,,,,,magenta,I
375.0,4.0,4.0,0.0,4.0,4.0,507.60357500985265,1.0,1.0,phase_1,,,,,,,,,,,,,yellow,square
385.0,8.0,4.0,1.0,3.0,3.0,529.9322148784995,1.0,1.0,phase_1,,,,,,,,,,,,,blue,hexagon
61.0,1.0,1.0,0.0,3.0,3.0,356.6136548761278,1.0,1.0,phase_1,,,,,,,,,,,,,white,cross
183.0,3.0,3.0,0.0,2.0,2.0,385.5733110103756,1.0,1.0,phase_1,,,,,,,,,,,,,orange,flipped triangle
224.0,7.0,3.0,1.0,3.0,3.0,388.5380770079791,1.0,1.0,phase_1,,,,,,,,,,,,,cyan,circle
108.0,6.0,2.0,1.0,3.0,3.0,380.8482470922172,1.0,1.0,phase_1,,,,,,,,,,,,,magenta,I
195.0,7.0,3.0,1.0,4.0,4.0,497.051958926022,1.0,1.0,phase_1,,,,,,,,,,,,,cyan,circle
44.0,1.0,1.0,0.0,4.0,4.0,582.2165859863162,1.0,1.0,phase_1,,,,,,,,,,,,,white,cross
0.0,8.0,0.0,1.0,2.0,2.0,504.037206992507,1.0,1.0,phase_1,,,,,,,,,,,,,blue,hexagon
95.0,2.0,2.0,0.0,4.0,4.0,439.6526420023292,1.0,1.0,phase_1,,,,,,,,,,,,,green,triangle
384.0,4.0,4.0,0.0,3.0,3.0,395.2283340040594,1.0,1.0,phase_1,,,,,,,,,,,,,yellow,square
69.0,1.0,1.0,0.0,2.0,2.0,496.4892358984798,1.0,1.0,phase_1,,,,,,,,,,,,,white,cross
125.0,2.0,2.0,0.0,4.0,4.0,466.2152789533138,1.0,1.0,phase_1,,,,,,,,,,,,,green,triangle
176.0,3.0,3.0,0.0,3.0,3.0,710.5276249349117,1.0,1.0,phase_1,,,,,,,,,,,,,orange,flipped triangle
177.0,3.0,3.0,0.0,3.0,3.0,524.451371980831,1.0,1.0,phase_1,,,,,,,,,,,,,orange,flipped triangle
77.0,2.0,2.0,0.0,3.0,3.0,401.7871799878776,1.0,1.0,phase_1,,,,,,,,,,,,,green,triangle
189.0,3.0,3.0,0.0,3.0,3.0,470.9043907932937,1.0,1.0,phase_1,,,,,,,,,,,,,orange,flipped triangle
185.0,3.0,3.0,0.0,4.0,4.0,379.3185588438064,1.0,1.0,phase_1,,,,,,,,,,,,,orange,flipped triangle
122.0,2.0,2.0,0.0,1.0,1.0,441.4749410934746,1.0,1.0,phase_1,,,,,,,,,,,,,green,triangle
213.0,7.0,3.0,1.0,1.0,1.0,638.5027801152319,1.0,1.0,phase_1,,,,,,,,,,,,,cyan,circle
66.0,1.0,1.0,0.0,1.0,1.0,664.4073941279203,1.0,1.0,phase_1,,,,,,,,,,,,,white,cross
177.0,3.0,3.0,0.0,3.0,3.0,358.368338085711,1.0,1.0,phase_1,,,,,,,,,,,,,orange,flipped triangle
376.0,4.0,4.0,0.0,2.0,2.0,387.6488821115345,1.0,1.0,phase_1,,,,,,,,,,,,,yellow,square
424.0,4.0,4.0,0.0,3.0,3.0,357.9280450940132,1.0,1.0,phase_1,,,,,,,,,,,,,yellow,square
0.0,5.0,0.0,1.0,3.0,3.0,382.6771040912717,1.0,1.0,phase_1,,,,,,,,,,,,,gray,diamond
110.0,2.0,2.0,0.0,1.0,1.0,386.0807060264051,1.0,1.0,phase_1,,,,,,,,,,,,,green,triangle
102.0,6.0,2.0,1.0,1.0,1.0,383.6710990872234,1.0,1.0,phase_1,,,,,,,,,,,,,magenta,I
0.0,3.0,0.0,0.0,4.0,4.0,475.6942451931536,1.0,1.0,phase_1,,,,,,,,,,,,,orange,flipped triangle
118.0,6.0,2.0,1.0,2.0,2.0,517.8408350329846,1.0,1.0,phase_1,,,,,,,,,,,,,magenta,I
0.0,2.0,0.0,0.0,2.0,2.0,612.7338709775358,1.0,1.0,phase_1,,,,,,,,,,,,,green,triangle
395.0,8.0,4.0,1.0,3.0,3.0,417.4266499467194,1.0,1.0,phase_1,,,,,,,,,,,,,blue,hexagon
386.0,8.0,4.0,1.0,3.0,3.0,340.1920790784061,1.0,1.0,phase_1,,,,,,,,,,,,,blue,hexagon
205.0,3.0,3.0,0.0,4.0,4.0,328.7212969735265,1.0,1.0,phase_1,,,,,,,,,,,,,orange,flipped triangle
177.0,7.0,3.0,1.0,4.0,4.0,368.7912009190768,1.0,1.0,phase_1,,,,,,,,,,,,,cyan,circle
0.0,4.0,0.0,0.0,4.0,4.0,364.0172320883721,1.0,1.0,phase_1,,,,,,,,,,,,,yellow,square
401.0,8.0,4.0,1.0,2.0,2.0,575.2255069091916,1.0,1.0,phase_1,,,,,,,,,,,,,blue,hexagon
0.0,3.0,0.0,0.0,1.0,1.0,466.6836929973215,1.0,1.0,phase_1,,,,,,,,,,,,,orange,flipped triangle
0.0,2.0,0.0,0.0,3.0,3.0,377.3061819374561,1.0,1.0,phase_1,,,,,,,,,,,,,green,triangle
382.0,4.0,4.0,0.0,2.0,2.0,500.03434205427766,1.0,1.0,phase_1,,,,,,,,,,,,,yellow,square
102.0,6.0,2.0,1.0,3.0,3.0,480.6638029403984,1.0,1.0,phase_1,,,,,,,,,,,,,magenta,I
57.0,5.0,1.0,1.0,1.0,1.0,560.2450259029865,1.0,1.0,phase_1,,,,,,,,,,,,,gray,diamond
46.0,5.0,1.0,1.0,2.0,2.0,819.8164950590581,1.0,1.0,phase_1,,,,,,,,,,,,,gray,diamond
0.0,1.0,0.0,0.0,3.0,3.0,446.8997840303927,1.0,2.0,phase_1,,,,,,,,,,,,,white,cross
0.0,7.0,0.0,1.0,2.0,2.0,378.0633569695055,1.0,1.0,phase_1,,,,,,,,,,,,,cyan,circle
211.0,7.0,3.0,1.0,4.0,4.0,390.7191311009228,1.0,1.0,phase_1,,,,,,,,,,,,,cyan,circle
402.0,4.0,4.0,0.0,1.0,1.0,370.2268211636692,1.0,1.0,phase_1,,,,,,,,,,,,,yellow,square
95.0,6.0,2.0,1.0,1.0,1.0,344.274397008121,1.0,1.0,phase_1,,,,,,,,,,,,,magenta,I
205.0,7.0,3.0,1.0,1.0,1.0,302.0644458010793,1.0,1.0,phase_1,,,,,,,,,,,,,cyan,circle
185.0,7.0,3.0,1.0,3.0,3.0,395.525214029476,1.0,1.0,phase_1,,,,,,,,,,,,,cyan,circle
224.0,3.0,3.0,0.0,4.0,4.0,412.8167130984366,1.0,2.0,phase_1,,,,,,,,,,,,,orange,flipped triangle
196.0,7.0,3.0,1.0,1.0,1.0,421.6631490271538,1.0,1.0,phase_1,,,,,,,,,,,,,cyan,circle
0.0,7.0,0.0,1.0,1.0,1.0,350.1318988855928,1.0,1.0,phase_1,,,,,,,,,,,,,cyan,circle
102.0,2.0,2.0,0.0,1.0,1.0,359.7513530403375,1.0,1.0,phase_1,,,,,,,,,,,,,green,triangle
0.0,1.0,0.0,0.0,2.0,2.0,509.9139560479671,1.0,1.0,phase_1,,,,,,,,,,,,,white,cross
387.0,8.0,4.0,1.0,4.0,4.0,464.4397289957851,1.0,1.0,phase_1,,,,,,,,,,,,,blue,hexagon
53.0,5.0,1.0,1.0,4.0,4.0,400.3133859951049,1.0,1.0,phase_1,,,,,,,,,,,,,gray,diamond
105.0,6.0,2.0,1.0,2.0,2.0,435.9155569691211,1.0,1.0,phase_1,,,,,,,,,,,,,magenta,I
421.0,8.0,4.0,1.0,2.0,2.0,377.9626099858433,1.0,1.0,phase_1,,,,,,,,,,,,,blue,hexagon
122.0,6.0,2.0,1.0,4.0,4.0,380.8785469736904,1.0,1.0,phase_1,,,,,,,,,,,,,magenta,I
102.0,6.0,2.0,1.0,4.0,4.0,489.6795570384711,1.0,1.0,phase_1,,,,,,,,,,,,,magenta,I
43.0,1.0,1.0,0.0,4.0,4.0,460.7213521376252,1.0,1.0,phase_1,,,,,,,,,,,,,white,cross
416.0,4.0,4.0,0.0,3.0,3.0,448.8028581254184,1.0,1.0,phase_1,,,,,,,,,,,,,yellow,square
0.0,5.0,0.0,1.0,1.0,1.0,480.777045013383,1.0,1.0,phase_1,,,,,,,,,,,,,gray,diamond
32.0,5.0,1.0,1.0,1.0,1.0,442.4947970546782,1.0,1.0,phase_1,,,,,,,,,,,,,gray,diamond
203.0,3.0,3.0,0.0,2.0,2.0,458.98486697115,1.0,1.0,phase_1,,,,,,,,,,,,,orange,flipped triangle
189.0,7.0,3.0,1.0,1.0,1.0,526.6995849087834,2.0,1.0,phase_1,,,,,,,,,,,,,cyan,circle
0.0,7.0,0.0,1.0,3.0,3.0,645.3617289662361,2.0,1.0,phase_1,,,,,,,,,,,,,cyan,circle
58.0,5.0,1.0,1.0,3.0,3.0,384.7834470216185,2.0,1.0,phase_1,,,,,,,,,,,,,gray,diamond
0.0,1.0,0.0,0.0,3.0,3.0,389.0199919696897,2.0,1.0,phase_1,,,,,,,,,,,,,white,cross
191.0,3.0,3.0,0.0,1.0,1.0,337.8982138819992,2.0,1.0,phase_1,,,,,,,,,,,,,orange,flipped triangle
375.0,4.0,4.0,0.0,3.0,3.0,558.8720592204481,2.0,1.0,phase_1,,,,,,,,,,,,,yellow,square
93.0,2.0,2.0,0.0,1.0,1.0,325.7530368864536,2.0,1.0,phase_1,,,,,,,,,,,,,green,triangle
0.0,6.0,0.0,1.0,2.0,2.0,426.5048368833959,2.0,1.0,phase_1,,,,,,,,,,,,,magenta,I
0.0,2.0,0.0,0.0,3.0,3.0,324.244363931939,2.0,1.0,phase_1,,,,,,,,,,,,,green,triangle
63.0,1.0,1.0,0.0,3.0,3.0,426.9505860283971,2.0,1.0,phase_1,,,,,,,,,,,,,white,cross
412.0,8.0,4.0,1.0,3.0,3.0,328.4527668729424,2.0,1.0,phase_1,,,,,,,,,,,,,blue,hexagon
0.0,7.0,0.0,1.0,4.0,4.0,374.2267298512161,2.0,1.0,phase_1,,,,,,,,,,,,,cyan,circle
120.0,2.0,2.0,0.0,2.0,2.0,504.0569859556854,2.0,1.0,phase_1,,,,,,,,,,,,,green,triangle
93.0,6.0,2.0,1.0,2.0,2.0,518.7036439310759,2.0,1.0,phase_1,,,,,,,,,,,,,magenta,I
28.0,5.0,1.0,1.0,3.0,3.0,386.7421299219131,2.0,1.0,phase_1,,,,,,,,,,,,,gray,diamond
406.0,4.0,4.0,0.0,2.0,2.0,479.1378271766007,2.0,1.0,phase_1,,,,,,,,,,,,,yellow,square
117.0,2.0,2.0,0.0,1.0,1.0,467.9081188514828,2.0,1.0,phase_1,,,,,,,,,,,,,green,triangle
204.0,7.0,3.0,1.0,2.0,2.0,641.8208649847656,2.0,1.0,phase_1,,,,,,,,,,,,,cyan,circle
0.0,5.0,0.0,1.0,1.0,1.0,365.8677809871733,2.0,1.0,phase_1,,,,,,,,,,,,,gray,diamond
66.0,5.0,1.0,1.0,2.0,2.0,353.9273459464311,2.0,1.0,phase_1,,,,,,,,,,,,,gray,diamond
177.0,7.0,3.0,1.0,3.0,3.0,392.560047795996,2.0,1.0,phase_1,,,,,,,,,,,,,cyan,circle
220.0,3.0,3.0,0.0,3.0,3.0,572.6092329714447,2.0,1.0,phase_1,,,,,,,,,,,,,orange,flipped triangle
106.0,2.0,2.0,0.0,2.0,2.0,471.7389298602938,2.0,1.0,phase_1,,,,,,,,,,,,,green,triangle
48.0,1.0,1.0,0.0,2.0,2.0,564.8494879715145,2.0,1.0,phase_1,,,,,,,,,,,,,white,cross
176.0,7.0,3.0,1.0,2.0,2.0,472.5887989625335,2.0,1.0,phase_1,,,,,,,,,,,,,cyan,circle
425.0,4.0,4.0,0.0,4.0,4.0,445.8646308630705,2.0,1.0,phase_1,,,,,,,,,,,,,yellow,square
88.0,2.0,2.0,0.0,4.0,4.0,392.4488348420709,2.0,1.0,phase_1,,,,,,,,,,,,,green,triangle
204.0,7.0,3.0,1.0,1.0,1.0,398.3510218095034,2.0,1.0,phase_1,,,,,,,,,,,,,cyan,circle
94.0,2.0,2.0,0.0,4.0,4.0,369.9917981866747,2.0,1.0,phase_1,,,,,,,,,,,,,green,triangle
186.0,3.0,3.0,0.0,1.0,1.0,350.537153892219,2.0,1.0,phase_1,,,,,,,,,,,,,orange,flipped triangle
41.0,1.0,1.0,0.0,2.0,2.0,413.7445210944861,2.0,1.0,phase_1,,,,,,,,,,,,,white,cross
105.0,2.0,2.0,0.0,1.0,1.0,378.5819311160594,2.0,1.0,phase_1,,,,,,,,,,,,,green,triangle
0.0,4.0,0.0,0.0,1.0,1.0,391.3538430351764,2.0,1.0,phase_1,,,,,,,,,,,,,yellow,square
0.0,6.0,0.0,1.0,1.0,1.0,346.2811820209026,2.0,1.0,phase_1,,,,,,,,,,,,,magenta,I
52.0,5.0,1.0,1.0,4.0,4.0,385.8344918116927,2.0,1.0,phase_1,,,,,,,,,,,,,gray,diamond
176.0,7.0,3.0,1.0,4.0,4.0,487.0720691978931,2.0,1.0,phase_1,,,,,,,,,,,,,cyan,circle
400.0,4.0,4.0,0.0,3.0,3.0,601.4873289968818,2.0,1.0,phase_1,,,,,,,,,,,,,yellow,square
88.0,6.0,2.0,1.0,2.0,2.0,588.9883758500218,2.0,1.0,phase_1,,,,,,,,,,,,,magenta,I
186.0,7.0,3.0,1.0,3.0,3.0,589.0241989400238,2.0,1.0,phase_1,,,,,,,,,,,,,cyan,circle
191.0,7.0,3.0,1.0,3.0,3.0,551.7204601783305,2.0,1.0,phase_1,,,,,,,,,,,,,cyan,circle
0.0,5.0,0.0,1.0,4.0,4.0,459.2910159844905,2.0,1.0,phase_1,,,,,,,,,,,,,gray,diamond
0.0,5.0,0.0,1.0,1.0,1.0,434.1671890579164,2.0,1.0,phase_1,,,,,,,,,,,,,gray,diamond
107.0,2.0,2.0,0.0,4.0,4.0,374.7136048041284,2.0,1.0,phase_1,,,,,,,,,,,,,green,triangle
102.0,2.0,2.0,0.0,2.0,2.0,512.0995519682765,2.0,1.0,phase_1,,,,,,,,,,,,,green,triangle
76.0,2.0,2.0,0.0,4.0,4.0,461.6089088376611,2.0,1.0,phase_1,,,,,,,,,,,,,green,triangle
0.0,5.0,0.0,1.0,2.0,2.0,401.9747730344534,2.0,1.0,phase_1,,,,,,,,,,,,,gray,diamond
98.0,2.0,2.0,0.0,3.0,3.0,431.0055989772081,2.0,1.0,phase_1,,,,,,,,,,,,,green,triangle
412.0,4.0,4.0,0.0,3.0,3.0,427.3851560428738,2.0,1.0,phase_1,,,,,,,,,,,,,yellow,square
390.0,8.0,4.0,1.0,1.0,1.0,402.9219897929579,2.0,1.0,phase_1,,,,,,,,,,,,,blue,hexagon
399.0,8.0,4.0,1.0,3.0,3.0,623.6557958181947,2.0,1.0,phase_1,,,,,,,,,,,,,blue,hexagon
397.0,8.0,4.0,1.0,4.0,4.0,489.2288050614297,2.0,1.0,phase_1,,,,,,,,,,,,,blue,hexagon
98.0,6.0,2.0,1.0,4.0,4.0,496.8235120177269,2.0,1.0,phase_1,,,,,,,,,,,,,magenta,I
76.0,6.0,2.0,1.0,4.0,4.0,420.463192043826,2.0,1.0,phase_1,,,,,,,,,,,,,magenta,I
397.0,4.0,4.0,0.0,1.0,1.0,415.3275159187615,2.0,1.0,phase_1,,,,,,,,,,,,,yellow,square
69.0,5.0,1.0,1.0,1.0,1.0,406.2330620363354,2.0,1.0,phase_1,,,,,,,,,,,,,gray,diamond
0.0,4.0,0.0,0.0,4.0,4.0,474.4930611923337,2.0,1.0,phase_1,,,,,,,,,,,,,yellow,square
223.0,3.0,3.0,0.0,1.0,1.0,368.5435699298978,2.0,1.0,phase_1,,,,,,,,,,,,,orange,flipped triangle
78.0,2.0,2.0,0.0,2.0,2.0,482.1172340307385,2.0,1.0,phase_1,,,,,,,,,,,,,green,triangle
0.0,1.0,0.0,0.0,3.0,3.0,399.4397618807852,2.0,1.0,phase_1,,,,,,,,,,,,,white,cross
0.0,2.0,0.0,0.0,3.0,3.0,421.4230380021035,2.0,1.0,phase_1,,,,,,,,,,,,,green,triangle
0.0,8.0,0.0,1.0,1.0,1.0,354.8895418643951,2.0,1.0,phase_1,,,,,,,,,,,,,blue,hexagon
63.0,5.0,1.0,1.0,2.0,2.0,431.1669389717281,2.0,1.0,phase_1,,,,,,,,,,,,,gray,diamond
60.0,5.0,1.0,1.0,1.0,1.0,410.388708114624,2.0,1.0,phase_1,,,,,,,,,,,,,gray,diamond
79.0,2.0,2.0,0.0,3.0,3.0,567.0537010300905,2.0,1.0,phase_1,,,,,,,,,,,,,green,triangle
37.0,5.0,1.0,1.0,2.0,2.0,493.8497028779238,2.0,1.0,phase_1,,,,,,,,,,,,,gray,diamond
381.0,4.0,4.0,0.0,1.0,1.0,345.5190549138933,2.0,1.0,phase_1,,,,,,,,,,,,,yellow,square
389.0,8.0,4.0,1.0,2.0,2.0,487.6478998921811,2.0,1.0,phase_1,,,,,,,,,,,,,blue,hexagon
415.0,4.0,4.0,0.0,1.0,1.0,361.574204871431,2.0,1.0,phase_1,,,,,,,,,,,,,yellow,square
0.0,7.0,0.0,1.0,2.0,2.0,407.185603864491,2.0,1.0,phase_1,,,,,,,,,,,,,cyan,circle
77.0,6.0,2.0,1.0,1.0,1.0,348.7923669163137,2.0,1.0,phase_1,,,,,,,,,,,,,magenta,I
0.0,8.0,0.0,1.0,1.0,1.0,392.8482870105654,2.0,1.0,phase_1,,,,,,,,,,,,,blue,hexagon
400.0,8.0,4.0,1.0,2.0,2.0,415.0274549610913,2.0,1.0,phase_1,,,,,,,,,,,,,blue,hexagon
115.0,6.0,2.0,1.0,4.0,4.0,568.403447046876,2.0,1.0,phase_1,,,,,,,,,,,,,magenta,I
392.0,4.0,4.0,0.0,3.0,3.0,375.5099209956825,2.0,1.0,phase_1,,,,,,,,,,,,,yellow,square
82.0,2.0,2.0,0.0,2.0,2.0,434.2458541505039,2.0,1.0,phase_1,,,,,,,,,,,,,green,triangle
116.0,2.0,2.0,0.0,3.0,3.0,426.2140528298914,2.0,1.0,phase_1,,,,,,,,,,,,,green,triangle
0.0,2.0,0.0,0.0,1.0,1.0,317.0447018928826,2.0,1.0,phase_1,,,,,,,,,,,,,green,triangle
204.0,3.0,3.0,0.0,4.0,4.0,464.3962590489536,2.0,1.0,phase_1,,,,,,,,,,,,,orange,flipped triangle
217.0,3.0,3.0,0.0,2.0,2.0,773.1248592026532,2.0,1.0,phase_1,,,,,,,,,,,,,orange,flipped triangle
122.0,2.0,2.0,0.0,3.0,3.0,386.9061211589724,2.0,1.0,phase_1,,,,,,,,,,,,,green,triangle
183.0,7.0,3.0,1.0,4.0,4.0,456.0032850131392,2.0,1.0,phase_1,,,,,,,,,,,,,cyan,circle
421.0,4.0,4.0,0.0,4.0,4.0,435.0643751677125,2.0,1.0,phase_1,,,,,,,,,,,,,yellow,square
419.0,4.0,4.0,0.0,4.0,4.0,534.7851561382413,2.0,1.0,phase_1,,,,,,,,,,,,,yellow,square
394.0,4.0,4.0,0.0,4.0,4.0,311.9050550740212,2.0,1.0,phase_1,,,,,,,,,,,,,yellow,square
198.0,7.0,3.0,1.0,3.0,3.0,457.2655069641769,2.0,1.0,phase_1,,,,,,,,,,,,,cyan,circle
0.0,1.0,0.0,0.0,2.0,2.0,368.003801908344,2.0,1.0,phase_1,,,,,,,,,,,,,white,cross
412.0,4.0,4.0,0.0,4.0,4.0,539.8828478064388,2.0,1.0,phase_1,,,,,,,,,,,,,yellow,square
0.0,7.0,0.0,1.0,2.0,2.0,430.3246941417455,2.0,1.0,phase_1,,,,,,,,,,,,,cyan,circle
0.0,6.0,0.0,1.0,3.0,3.0,645.4137358814478,2.0,1.0,phase_1,,,,,,,,,,,,,magenta,I
198.0,3.0,3.0,0.0,2.0,2.0,599.9621748924255,2.0,1.0,phase_1,,,,,,,,,,,,,orange,flipped triangle
117.0,6.0,2.0,1.0,1.0,1.0,432.699577184394,2.0,1.0,phase_1,,,,,,,,,,,,,magenta,I
211.0,3.0,3.0,0.0,1.0,1.0,354.3302929028868,2.0,1.0,phase_1,,,,,,,,,,,,,orange,flipped triangle
119.0,6.0,2.0,1.0,4.0,4.0,362.3057820368558,2.0,1.0,phase_1,,,,,,,,,,,,,magenta,I
59.0,5.0,1.0,1.0,1.0,1.0,378.3717059995979,2.0,1.0,phase_1,,,,,,,,,,,,,gray,diamond
0.0,4.0,0.0,0.0,1.0,1.0,417.6677609793842,2.0,1.0,phase_1,,,,,,,,,,,,,yellow,square
45.0,1.0,1.0,0.0,4.0,4.0,636.5429190918803,2.0,1.0,phase_1,,,,,,,,,,,,,white,cross
176.0,7.0,3.0,1.0,1.0,1.0,435.8278750441968,2.0,1.0,phase_1,,,,,,,,,,,,,cyan,circle
387.0,4.0,4.0,0.0,1.0,1.0,510.21408988162875,2.0,1.0,phase_1,,,,,,,,,,,,,yellow,square
382.0,8.0,4.0,1.0,1.0,1.0,362.3722770716995,2.0,1.0,phase_1,,,,,,,,,,,,,blue,hexagon
0.0,1.0,0.0,0.0,1.0,1.0,322.5141419097781,2.0,1.0,phase_1,,,,,,,,,,,,,white,cross
48.0,5.0,1.0,1.0,3.0,3.0,578.0140329152346,3.0,1.0,phase_1,,,,,,,,,,,,,gray,diamond
28.0,1.0,1.0,0.0,3.0,3.0,414.8602439090609,3.0,1.0,phase_1,,,,,,,,,,,,,white,cross
107.0,6.0,2.0,1.0,3.0,3.0,382.1008601225912,3.0,1.0,phase_1,,,,,,,,,,,,,magenta,I
0.0,7.0,0.0,1.0,1.0,1.0,438.7507119681686,3.0,1.0,phase_1,,,,,,,,,,,,,cyan,circle
402.0,8.0,4.0,1.0,4.0,4.0,525.3479210659862,3.0,1.0,phase_1,,,,,,,,,,,,,blue,hexagon
0.0,5.0,0.0,1.0,1.0,1.0,456.4510709606111,3.0,1.0,phase_1,,,,,,,,,,,,,gray,diamond
189.0,3.0,3.0,0.0,1.0,1.0,438.5445490479469,3.0,1.0,phase_1,,,,,,,,,,,,,orange,flipped triangle
30.0,1.0,1.0,0.0,3.0,3.0,353.3929740078747,3.0,1.0,phase_1,,,,,,,,,,,,,white,cross
406.0,8.0,4.0,1.0,2.0,2.0,568.7309249769896,3.0,1.0,phase_1,,,,,,,,,,,,,blue,hexagon
211.0,7.0,3.0,1.0,1.0,1.0,366.7358129750937,3.0,1.0,phase_1,,,,,,,,,,,,,cyan,circle
380.0,4.0,4.0,0.0,4.0,4.0,337.4070019926876,3.0,1.0,phase_1,,,,,,,,,,,,,yellow,square
116.0,6.0,2.0,1.0,3.0,3.0,588.3887480013072,3.0,1.0,phase_1,,,,,,,,,,,,,magenta,I
224.0,7.0,3.0,1.0,2.0,2.0,483.6766349617392,3.0,1.0,phase_1,,,,,,,,,,,,,cyan,circle
424.0,4.0,4.0,0.0,4.0,4.0,529.7653379384428,3.0,1.0,phase_1,,,,,,,,,,,,,yellow,square
178.0,3.0,3.0,0.0,3.0,3.0,482.4137401301414,3.0,1.0,phase_1,,,,,,,,,,,,,orange,flipped triangle
80.0,2.0,2.0,0.0,2.0,2.0,390.7403438352048,3.0,1.0,phase_1,,,,,,,,,,,,,green,triangle
0.0,3.0,0.0,0.0,4.0,4.0,355.8765528723597,3.0,1.0,phase_1,,,,,,,,,,,,,orange,flipped triangle
0.0,3.0,0.0,0.0,3.0,3.0,363.8452989980578,3.0,1.0,phase_1,,,,,,,,,,,,,orange,flipped triangle
115.0,2.0,2.0,0.0,4.0,4.0,413.8892139308154,3.0,1.0,phase_1,,,,,,,,,,,,,green,triangle
415.0,8.0,4.0,1.0,4.0,4.0,365.1193610858172,3.0,1.0,phase_1,,,,,,,,,,,,,blue,hexagon
80.0,2.0,2.0,0.0,3.0,3.0,458.4246550220996,3.0,1.0,phase_1,,,,,,,,,,,,,green,triangle
121.0,2.0,2.0,0.0,3.0,3.0,340.8073089085519,3.0,1.0,phase_1,,,,,,,,,,,,,green,triangle
106.0,6.0,2.0,1.0,3.0,3.0,403.1660899054259,3.0,1.0,phase_1,,,,,,,,,,,,,magenta,I
67.0,1.0,1.0,0.0,1.0,1.0,671.5120279695839,3.0,1.0,phase_1,,,,,,,,,,,,,white,cross
53.0,1.0,1.0,0.0,2.0,2.0,763.2857470307499,3.0,1.0,phase_1,,,,,,,,,,,,,white,cross
0.0,7.0,0.0,1.0,2.0,2.0,471.5405208989978,3.0,1.0,phase_1,,,,,,,,,,,,,cyan,circle
424.0,8.0,4.0,1.0,1.0,1.0,434.5542681403458,3.0,1.0,phase_1,,,,,,,,,,,,,blue,hexagon
214.0,7.0,3.0,1.0,2.0,2.0,402.2332490421831,3.0,1.0,phase_1,,,,,,,,,,,,,cyan,circle
183.0,3.0,3.0,0.0,1.0,1.0,356.0452600941062,3.0,1.0,phase_1,,,,,,,,,,,,,orange,flipped triangle
415.0,4.0,4.0,0.0,2.0,2.0,434.7331379540264,3.0,1.0,phase_1,,,,,,,,,,,,,yellow,square
0.0,3.0,0.0,0.0,4.0,4.0,391.4572489447891,3.0,1.0,phase_1,,,,,,,,,,,,,orange,flipped triangle
98.0,2.0,2.0,0.0,2.0,2.0,383.5216190200299,3.0,2.0,phase_1,,,,,,,,,,,,,green,triangle
0.0,5.0,0.0,1.0,4.0,4.0,515.3844349551946,3.0,1.0,phase_1,,,,,,,,,,,,,gray,diamond
74.0,5.0,1.0,1.0,4.0,4.0,409.6735820639878,3.0,1.0,phase_1,,,,,,,,,,,,,gray,diamond
205.0,7.0,3.0,1.0,3.0,3.0,492.7438739687204,3.0,1.0,phase_1,,,,,,,,,,,,,cyan,circle
122.0,6.0,2.0,1.0,3.0,3.0,421.5152659453451,3.0,1.0,phase_1,,,,,,,,,,,,,magenta,I
45.0,5.0,1.0,1.0,2.0,2.0,543.405104894191,3.0,1.0,phase_1,,,,,,,,,,,,,gray,diamond
66.0,1.0,1.0,0.0,2.0,2.0,508.97994986735284,3.0,1.0,phase_1,,,,,,,,,,,,,white,cross
35.0,1.0,1.0,0.0,3.0,3.0,511.8711700197309,3.0,1.0,phase_1,,,,,,,,,,,,,white,cross
57.0,1.0,1.0,0.0,1.0,1.0,389.0400810632854,3.0,1.0,phase_1,,,,,,,,,,,,,white,cross
25.0,1.0,1.0,0.0,1.0,1.0,400.4744349513203,3.0,1.0,phase_1,,,,,,,,,,,,,white,cross
375.0,8.0,4.0,1.0,2.0,2.0,567.6886239089072,3.0,1.0,phase_1,,,,,,,,,,,,,blue,hexagon
404.0,8.0,4.0,1.0,4.0,4.0,770.8815359510481,3.0,1.0,phase_1,,,,,,,,,,,,,blue,hexagon
189.0,7.0,3.0,1.0,3.0,3.0,686.6997620090842,3.0,1.0,phase_1,,,,,,,,,,,,,cyan,circle
73.0,5.0,1.0,1.0,2.0,2.0,435.19419012591237,3.0,1.0,phase_1,,,,,,,,,,,,,gray,diamond
204.0,3.0,3.0,0.0,2.0,2.0,474.913558922708,3.0,1.0,phase_1,,,,,,,,,,,,,orange,flipped triangle
35.0,5.0,1.0,1.0,1.0,1.0,407.4093261733651,3.0,1.0,phase_1,,,,,,,,,,,,,gray,diamond
73.0,1.0,1.0,0.0,4.0,4.0,450.2083759289235,3.0,1.0,phase_1,,,,,,,,,,,,,white,cross
392.0,8.0,4.0,1.0,3.0,3.0,378.4099260810762,3.0,1.0,phase_1,,,,,,,,,,,,,blue,hexagon
54.0,5.0,1.0,1.0,4.0,4.0,651.7307218164206,3.0,1.0,phase_1,,,,,,,,,,,,,gray,diamond
43.0,5.0,1.0,1.0,1.0,1.0,623.5922649502754,3.0,1.0,phase_1,,,,,,,,,,,,,gray,diamond
204.0,3.0,3.0,0.0,2.0,2.0,725.0984590500593,3.0,1.0,phase_1,,,,,,,,,,,,,orange,flipped triangle
0.0,3.0,0.0,0.0,2.0,2.0,504.6010590158403,3.0,1.0,phase_1,,,,,,,,,,,,,orange,flipped triangle
30.0,5.0,1.0,1.0,1.0,1.0,341.41667000949377,3.0,1.0,phase_1,,,,,,,,,,,,,gray,diamond
0.0,5.0,0.0,1.0,4.0,4.0,379.3637680355459,3.0,1.0,phase_1,,,,,,,,,,,,,gray,diamond
0.0,8.0,0.0,1.0,2.0,2.0,544.2062669899315,3.0,1.0,phase_1,,,,,,,,,,,,,blue,hexagon
0.0,8.0,0.0,1.0,1.0,1.0,764.53842013143,3.0,1.0,phase_1,,,,,,,,,,,,,blue,hexagon
203.0,7.0,3.0,1.0,3.0,3.0,401.4714357908815,3.0,1.0,phase_1,,,,,,,,,,,,,cyan,circle
0.0,4.0,0.0,0.0,3.0,3.0,561.2438118550926,3.0,1.0,phase_1,,,,,,,,,,,,,yellow,square
58.0,5.0,1.0,1.0,3.0,3.0,634.6136569045484,3.0,1.0,phase_1,,,,,,,,,,,,,gray,diamond
386.0,4.0,4.0,0.0,2.0,2.0,512.0991319417953,3.0,1.0,phase_1,,,,,,,,,,,,,yellow,square
75.0,6.0,2.0,1.0,1.0,1.0,607.1353110019118,3.0,1.0,phase_1,,,,,,,,,,,,,magenta,I
0.0,4.0,0.0,0.0,4.0,4.0,425.9860599413514,3.0,1.0,phase_1,,,,,,,,,,,,,yellow,square
382.0,4.0,4.0,0.0,1.0,1.0,764.1089470125735,3.0,1.0,phase_1,,,,,,,,,,,,,yellow,square
394.0,8.0,4.0,1.0,2.0,2.0,592.8072140086442,3.0,1.0,phase_1,,,,,,,,,,,,,blue,hexagon
211.0,7.0,3.0,1.0,2.0,2.0,440.4462368693203,3.0,1.0,phase_1,,,,,,,,,,,,,cyan,circle
78.0,6.0,2.0,1.0,1.0,1.0,342.6790649536997,3.0,1.0,phase_1,,,,,,,,,,,,,magenta,I
202.0,3.0,3.0,0.0,4.0,4.0,361.6348281502723,3.0,1.0,phase_1,,,,,,,,,,,,,orange,flipped triangle
178.0,7.0,3.0,1.0,4.0,4.0,472.6854050531983,3.0,2.0,phase_1,,,,,,,,,,,,,cyan,circle
26.0,1.0,1.0,0.0,1.0,1.0,486.3698829431087,3.0,1.0,phase_1,,,,,,,,,,,,,white,cross
98.0,6.0,2.0,1.0,4.0,4.0,642.2767417971045,3.0,2.0,phase_1,,,,,,,,,,,,,magenta,I
223.0,7.0,3.0,1.0,3.0,3.0,452.2568699903786,3.0,1.0,phase_1,,,,,,,,,,,,,cyan,circle
125.0,6.0,2.0,1.0,3.0,3.0,336.823380086571,3.0,1.0,phase_1,,,,,,,,,,,,,magenta,I
0.0,6.0,0.0,1.0,4.0,4.0,405.400319956243,3.0,1.0,phase_1,,,,,,,,,,,,,magenta,I
29.0,5.0,1.0,1.0,4.0,4.0,444.8416959494352,3.0,1.0,phase_1,,,,,,,,,,,,,gray,diamond
58.0,1.0,1.0,0.0,1.0,1.0,368.6211500316858,3.0,1.0,phase_1,,,,,,,,,,,,,white,cross
382.0,8.0,4.0,1.0,3.0,3.0,555.2527010440826,3.0,1.0,phase_1,,,,,,,,,,,,,blue,hexagon
29.0,1.0,1.0,0.0,1.0,1.0,511.297615012154,3.0,1.0,phase_1,,,,,,,,,,,,,white,cross
105.0,6.0,2.0,1.0,2.0,2.0,454.6426380984485,3.0,1.0,phase_1,,,,,,,,,,,,,magenta,I
0.0,6.0,0.0,1.0,3.0,3.0,436.0292369965464,3.0,1.0,phase_1,,,,,,,,,,,,,magenta,I
418.0,4.0,4.0,0.0,1.0,1.0,303.4365049097687,3.0,1.0,phase_1,,,,,,,,,,,,,yellow,square
67.0,5.0,1.0,1.0,3.0,3.0,393.966554896906,3.0,1.0,phase_1,,,,,,,,,,,,,gray,diamond
0.0,6.0,0.0,1.0,3.0,3.0,418.0410320404917,3.0,1.0,phase_1,,,,,,,,,,,,,magenta,I
60.0,1.0,1.0,0.0,3.0,3.0,414.7914270870387,3.0,1.0,phase_1,,,,,,,,,,,,,white,cross
65.0,1.0,1.0,0.0,2.0,2.0,760.4656829498708,3.0,1.0,phase_1,,,,,,,,,,,,,white,cross
389.0,4.0,4.0,0.0,2.0,2.0,397.8102938272059,3.0,1.0,phase_1,,,,,,,,,,,,,yellow,square
215.0,7.0,3.0,1.0,4.0,4.0,361.7546469904482,3.0,1.0,phase_1,,,,,,,,,,,,,cyan,circle
213.0,3.0,3.0,0.0,3.0,3.0,416.343071963638,3.0,1.0,phase_1,,,,,,,,,,,,,orange,flipped triangle
0.0,4.0,0.0,0.0,3.0,3.0,423.0630949605256,3.0,1.0,phase_1,,,,,,,,,,,,,yellow,square
0.0,4.0,0.0,0.0,3.0,3.0,495.7054441329092,3.0,1.0,phase_1,,,,,,,,,,,,,yellow,square
0.0,6.0,0.0,1.0,4.0,4.0,404.9035450443625,3.0,1.0,phase_1,,,,,,,,,,,,,magenta,I
94.0,6.0,2.0,1.0,1.0,1.0,361.8547790683806,3.0,1.0,phase_1,,,,,,,,,,,,,magenta,I
416.0,4.0,4.0,0.0,2.0,2.0,397.419230081141,3.0,1.0,phase_1,,,,,,,,,,,,,yellow,square
0.0,3.0,0.0,0.0,3.0,3.0,370.8557989448309,3.0,1.0,phase_1,,,,,,,,,,,,,orange,flipped triangle
193.0,3.0,3.0,0.0,4.0,4.0,369.9492311570793,3.0,1.0,phase_1,,,,,,,,,,,,,orange,flipped triangle
193.0,7.0,3.0,1.0,4.0,4.0,606.1581680551171,3.0,1.0,phase_1,,,,,,,,,,,,,cyan,circle
191.0,3.0,3.0,0.0,2.0,2.0,560.869765933603,3.0,1.0,phase_1,,,,,,,,,,,,,orange,flipped triangle
57.0,5.0,1.0,1.0,4.0,4.0,502.23707198165357,3.0,1.0,phase_1,,,,,,,,,,,,,gray,diamond
84.0,2.0,2.0,0.0,2.0,2.0,419.9099459219724,3.0,1.0,phase_1,,,,,,,,,,,,,green,triangle
422.0,4.0,4.0,0.0,1.0,1.0,510.59207296930254,3.0,1.0,phase_1,,,,,,,,,,,,,yellow,square
422.0,8.0,4.0,1.0,1.0,1.0,506.82325288653374,4.0,1.0,phase_1,,,,,,,,,,,,,blue,hexagon
204.0,7.0,3.0,1.0,4.0,4.0,399.2542189080268,4.0,1.0,phase_1,,,,,,,,,,,,,cyan,circle
80.0,6.0,2.0,1.0,1.0,1.0,365.3789961244911,4.0,1.0,phase_1,,,,,,,,,,,,,magenta,I
102.0,2.0,2.0,0.0,4.0,4.0,380.8490079827606,4.0,1.0,phase_1,,,,,,,,,,,,,green,triangle
0.0,7.0,0.0,1.0,4.0,4.0,400.213428074494,4.0,1.0,phase_1,,,,,,,,,,,,,cyan,circle
0.0,1.0,0.0,0.0,4.0,4.0,282.9779060557484,4.0,1.0,phase_1,,,,,,,,,,,,,white,cross
377.0,8.0,4.0,1.0,3.0,3.0,438.9038798399269,4.0,1.0,phase_1,,,,,,,,,,,,,blue,hexagon
112.0,2.0,2.0,0.0,1.0,1.0,405.4809019435197,4.0,1.0,phase_1,,,,,,,,,,,,,green,triangle
29.0,1.0,1.0,0.0,4.0,4.0,475.388343911618,4.0,1.0,phase_1,,,,,,,,,,,,,white,cross
205.0,7.0,3.0,1.0,1.0,1.0,381.9214210379869,4.0,1.0,phase_1,,,,,,,,,,,,,cyan,circle
26.0,5.0,1.0,1.0,1.0,1.0,418.0889900308102,4.0,1.0,phase_1,,,,,,,,,,,,,gray,diamond
0.0,2.0,0.0,0.0,2.0,2.0,422.2930979449302,4.0,1.0,phase_1,,,,,,,,,,,,,green,triangle
214.0,3.0,3.0,0.0,4.0,4.0,303.2318509649485,4.0,1.0,phase_1,,,,,,,,,,,,,orange,flipped triangle
44.0,5.0,1.0,1.0,4.0,4.0,377.44782702066,4.0,1.0,phase_1,,,,,,,,,,,,,gray,diamond
57.0,1.0,1.0,0.0,3.0,3.0,406.0071581043303,4.0,1.0,phase_1,,,,,,,,,,,,,white,cross
223.0,3.0,3.0,0.0,3.0,3.0,420.0013049412519,4.0,1.0,phase_1,,,,,,,,,,,,,orange,flipped triangle
36.0,1.0,1.0,0.0,3.0,3.0,504.28424309939146,4.0,1.0,phase_1,,,,,,,,,,,,,white,cross
0.0,6.0,0.0,1.0,4.0,4.0,412.5333770643919,4.0,1.0,phase_1,,,,,,,,,,,,,magenta,I
0.0,3.0,0.0,0.0,3.0,3.0,383.2729258574545,4.0,1.0,phase_1,,,,,,,,,,,,,orange,flipped triangle
110.0,6.0,2.0,1.0,4.0,4.0,364.0115349553525,4.0,1.0,phase_1,,,,,,,,,,,,,magenta,I
0.0,5.0,0.0,1.0,4.0,4.0,345.2866729348898,4.0,1.0,phase_1,,,,,,,,,,,,,gray,diamond
59.0,1.0,1.0,0.0,4.0,4.0,498.4689080156386,4.0,2.0,phase_1,,,,,,,,,,,,,white,cross
220.0,7.0,3.0,1.0,1.0,1.0,487.1951770037412,4.0,1.0,phase_1,,,,,,,,,,,,,cyan,circle
377.0,4.0,4.0,0.0,4.0,4.0,509.5160990022123,4.0,1.0,phase_1,,,,,,,,,,,,,yellow,square
415.0,8.0,4.0,1.0,1.0,1.0,495.9794499445706,4.0,1.0,phase_1,,,,,,,,,,,,,blue,hexagon
191.0,7.0,3.0,1.0,1.0,1.0,372.1707370132208,4.0,1.0,phase_1,,,,,,,,,,,,,cyan,circle
108.0,2.0,2.0,0.0,1.0,1.0,305.0188780762255,4.0,1.0,phase_1,,,,,,,,,,,,,green,triangle
41.0,5.0,1.0,1.0,2.0,2.0,849.3618010543287,4.0,1.0,phase_1,,,,,,,,,,,,,gray,diamond
399.0,4.0,4.0,0.0,2.0,2.0,373.4564899932593,4.0,1.0,phase_1,,,,,,,,,,,,,yellow,square
99.0,6.0,2.0,1.0,2.0,2.0,343.1740067899227,4.0,1.0,phase_1,,,,,,,,,,,,,magenta,I
384.0,8.0,4.0,1.0,4.0,4.0,364.1277740243822,4.0,1.0,phase_1,,,,,,,,,,,,,blue,hexagon
52.0,1.0,1.0,0.0,2.0,2.0,505.9304691385478,4.0,1.0,phase_1,,,,,,,,,,,,,white,cross
419.0,8.0,4.0,1.0,1.0,1.0,384.172182995826,4.0,1.0,phase_1,,,,,,,,,,,,,blue,hexagon
94.0,2.0,2.0,0.0,1.0,1.0,322.9206681717187,4.0,1.0,phase_1,,,,,,,,,,,,,green,triangle
211.0,3.0,3.0,0.0,3.0,3.0,438.5919659398496,4.0,1.0,phase_1,,,,,,,,,,,,,orange,flipped triangle
121.0,6.0,2.0,1.0,4.0,4.0,388.5373179800808,4.0,1.0,phase_1,,,,,,,,,,,,,magenta,I
26.0,1.0,1.0,0.0,4.0,4.0,515.0481809396297,4.0,1.0,phase_1,,,,,,,,,,,,,white,cross
411.0,8.0,4.0,1.0,4.0,4.0,397.6478008553386,4.0,1.0,phase_1,,,,,,,,,,,,,blue,hexagon
395.0,4.0,4.0,0.0,3.0,3.0,604.5955109875649,4.0,1.0,phase_1,,,,,,,,,,,,,yellow,square
74.0,1.0,1.0,0.0,2.0,2.0,597.956283017993,4.0,1.0,phase_1,,,,,,,,,,,,,white,cross
202.0,7.0,3.0,1.0,2.0,2.0,397.832099115476,4.0,1.0,phase_1,,,,,,,,,,,,,cyan,circle
0.0,3.0,0.0,0.0,2.0,2.0,401.2727530207485,4.0,1.0,phase_1,,,,,,,,,,,,,orange,flipped triangle
205.0,3.0,3.0,0.0,2.0,2.0,308.0659098923206,4.0,1.0,phase_1,,,,,,,,,,,,,orange,flipped triangle
94.0,6.0,2.0,1.0,3.0,3.0,816.8767911847681,4.0,1.0,phase_1,,,,,,,,,,,,,magenta,I
61.0,5.0,1.0,1.0,3.0,3.0,453.4738170914352,4.0,1.0,phase_1,,,,,,,,,,,,,gray,diamond
205.0,7.0,3.0,1.0,4.0,4.0,381.1983480118215,4.0,1.0,phase_1,,,,,,,,,,,,,cyan,circle
0.0,2.0,0.0,0.0,4.0,4.0,465.0083971209824,4.0,1.0,phase_1,,,,,,,,,,,,,green,triangle
0.0,8.0,0.0,1.0,2.0,2.0,460.8191209845245,4.0,1.0,phase_1,,,,,,,,,,,,,blue,hexagon
205.0,3.0,3.0,0.0,1.0,1.0,523.1346138752997,4.0,1.0,phase_1,,,,,,,,,,,,,orange,flipped triangle
0.0,2.0,0.0,0.0,3.0,3.0,528.1201470643282,4.0,1.0,phase_1,,,,,,,,,,,,,green,triangle
419.0,8.0,4.0,1.0,1.0,1.0,492.0548771042377,4.0,1.0,phase_1,,,,,,,,,,,,,blue,hexagon
381.0,8.0,4.0,1.0,2.0,2.0,497.478405945003,4.0,1.0,phase_1,,,,,,,,,,,,,blue,hexagon
0.0,8.0,0.0,1.0,1.0,1.0,355.9624028857797,4.0,1.0,phase_1,,,,,,,,,,,,,blue,hexagon
0.0,4.0,0.0,0.0,1.0,1.0,393.0989131331444,4.0,1.0,phase_1,,,,,,,,,,,,,yellow,square
32.0,1.0,1.0,0.0,1.0,1.0,335.4613881092518,4.0,1.0,phase_1,,,,,,,,,,,,,white,cross
75.0,2.0,2.0,0.0,3.0,3.0,505.511409137398,4.0,1.0,phase_1,,,,,,,,,,,,,green,triangle
25.0,5.0,1.0,1.0,3.0,3.0,485.6229440774768,4.0,1.0,phase_1,,,,,,,,,,,,,gray,diamond
424.0,8.0,4.0,1.0,1.0,1.0,387.3620750382542,4.0,1.0,phase_1,,,,,,,,,,,,,blue,hexagon
205.0,3.0,3.0,0.0,2.0,2.0,593.285993905738,4.0,1.0,phase_1,,,,,,,,,,,,,orange,flipped triangle
66.0,5.0,1.0,1.0,4.0,4.0,663.7224638834596,4.0,1.0,phase_1,,,,,,,,,,,,,gray,diamond
0.0,3.0,0.0,0.0,2.0,2.0,369.5328871253878,4.0,1.0,phase_1,,,,,,,,,,,,,orange,flipped triangle
118.0,2.0,2.0,0.0,2.0,2.0,625.0100329052657,4.0,1.0,phase_1,,,,,,,,,,,,,green,triangle
82.0,6.0,2.0,1.0,1.0,1.0,457.7570031397044,4.0,1.0,phase_1,,,,,,,,,,,,,magenta,I
416.0,8.0,4.0,1.0,2.0,2.0,414.2825100570917,4.0,1.0,phase_1,,,,,,,,,,,,,blue,hexagon
211.0,3.0,3.0,0.0,1.0,1.0,468.1298381183296,4.0,1.0,phase_1,,,,,,,,,,,,,orange,flipped triangle
205.0,3.0,3.0,0.0,3.0,3.0,592.3191781621426,4.0,1.0,phase_1,,,,,,,,,,,,,orange,flipped triangle
217.0,7.0,3.0,1.0,2.0,2.0,423.8333231769502,4.0,1.0,phase_1,,,,,,,,,,,,,cyan,circle
176.0,3.0,3.0,0.0,4.0,4.0,617.5110621843487,4.0,1.0,phase_1,,,,,,,,,,,,,orange,flipped triangle
425.0,8.0,4.0,1.0,3.0,3.0,510.2364709600806,4.0,1.0,phase_1,,,,,,,,,,,,,blue,hexagon
84.0,6.0,2.0,1.0,1.0,1.0,406.5873911604285,4.0,1.0,phase_1,,,,,,,,,,,,,magenta,I
224.0,3.0,3.0,0.0,1.0,1.0,386.4720831625163,4.0,1.0,phase_1,,,,,,,,,,,,,orange,flipped triangle
0.0,8.0,0.0,1.0,2.0,2.0,479.1329368017614,4.0,1.0,phase_1,,,,,,,,,,,,,blue,hexagon
0.0,1.0,0.0,0.0,4.0,4.0,467.5790129695087,4.0,1.0,phase_1,,,,,,,,,,,,,white,cross
205.0,7.0,3.0,1.0,2.0,2.0,752.5651741307229,4.0,1.0,phase_1,,,,,,,,,,,,,cyan,circle
105.0,2.0,2.0,0.0,3.0,3.0,491.8596418574452,4.0,1.0,phase_1,,,,,,,,,,,,,green,triangle
86.0,2.0,2.0,0.0,4.0,4.0,384.823853848502,4.0,1.0,phase_1,,,,,,,,,,,,,green,triangle
376.0,8.0,4.0,1.0,1.0,1.0,411.7768220603466,4.0,1.0,phase_1,,,,,,,,,,,,,blue,hexagon
195.0,3.0,3.0,0.0,4.0,4.0,409.4983639661222,4.0,1.0,phase_1,,,,,,,,,,,,,orange,flipped triangle
36.0,5.0,1.0,1.0,2.0,2.0,477.531376061961,4.0,1.0,phase_1,,,,,,,,,,,,,gray,diamond
0.0,6.0,0.0,1.0,2.0,2.0,377.3341039195657,4.0,1.0,phase_1,,,,,,,,,,,,,magenta,I
176.0,3.0,3.0,0.0,4.0,4.0,545.3942131716758,4.0,1.0,phase_1,,,,,,,,,,,,,orange,flipped triangle
102.0,6.0,2.0,1.0,2.0,2.0,558.195001911372,4.0,1.0,phase_1,,,,,,,,,,,,,magenta,I
37.0,1.0,1.0,0.0,2.0,2.0,433.2871572114527,4.0,1.0,phase_1,,,,,,,,,,,,,white,cross
380.0,8.0,4.0,1.0,2.0,2.0,438.466256018728,4.0,1.0,phase_1,,,,,,,,,,,,,blue,hexagon
416.0,8.0,4.0,1.0,4.0,4.0,514.6038788370788,4.0,1.0,phase_1,,,,,,,,,,,,,blue,hexagon
375.0,8.0,4.0,1.0,4.0,4.0,566.3888100534678,4.0,1.0,phase_1,,,,,,,,,,,,,blue,hexagon
75.0,1.0,1.0,0.0,3.0,3.0,468.2918258477002,4.0,1.0,phase_1,,,,,,,,,,,,,white,cross
119.0,2.0,2.0,0.0,1.0,1.0,431.0640839394182,4.0,1.0,phase_1,,,,,,,,,,,,,green,triangle
223.0,7.0,3.0,1.0,2.0,2.0,590.0205760262907,4.0,1.0,phase_1,,,,,,,,,,,,,cyan,circle
80.0,6.0,2.0,1.0,2.0,2.0,379.9933430273086,4.0,1.0,phase_1,,,,,,,,,,,,,magenta,I
105.0,6.0,2.0,1.0,4.0,4.0,357.0116178598255,4.0,1.0,phase_1,,,,,,,,,,,,,magenta,I
0.0,8.0,0.0,1.0,4.0,4.0,426.8855610862374,4.0,1.0,phase_1,,,,,,,,,,,,,blue,hexagon
41.0,1.0,1.0,0.0,3.0,3.0,678.6020849831402,4.0,1.0,phase_1,,,,,,,,,,,,,white,cross
72.0,1.0,1.0,0.0,4.0,4.0,587.3716589994729,4.0,1.0,phase_1,,,,,,,,,,,,,white,cross
411.0,4.0,4.0,0.0,3.0,3.0,431.9870199542492,4.0,1.0,phase_1,,,,,,,,,,,,,yellow,square
34.0,5.0,1.0,1.0,3.0,3.0,536.7213559802622,4.0,1.0,phase_1,,,,,,,,,,,,,gray,diamond
26.0,5.0,1.0,1.0,4.0,4.0,468.2073439471423,4.0,1.0,phase_1,,,,,,,,,,,,,gray,diamond
112.0,6.0,2.0,1.0,3.0,3.0,434.152154950425,4.0,1.0,phase_1,,,,,,,,,,,,,magenta,I
196.0,3.0,3.0,0.0,2.0,2.0,613.8066751882434,4.0,1.0,phase_1,,,,,,,,,,,,,orange,flipped triangle
0.0,6.0,0.0,1.0,1.0,1.0,514.0184538904577,4.0,1.0,phase_1,,,,,,,,,,,,,magenta,I
0.0,5.0,1.0,1.0,5.0,5.0,549.8857400380075,1.0,1.0,phase_2,stop,250.0,250.0,3.0,,,,,,,,,gray,diamond
0.0,5.0,1.0,1.0,6.0,6.0,372.667928924784,1.0,1.0,phase_2,stop,200.0,250.0,3.0,,,,,,,,,gray,diamond
0.0,4.0,4.0,0.0,6.0,6.0,354.3343071360141,1.0,1.0,phase_2,go,200.0,200.0,1.0,,,,,,,,,yellow,square
0.0,6.0,2.0,1.0,5.0,0.0,0.0,1.0,1.0,phase_2,stop,200.0,200.0,4.0,,,,,,,,,magenta,I
0.0,3.0,3.0,0.0,5.0,5.0,820.2634369954467,1.0,1.0,phase_2,go,250.0,200.0,1.0,,,,,,,,,orange,flipped triangle
0.0,5.0,1.0,1.0,6.0,0.0,0.0,1.0,1.0,phase_2,stop,250.0,200.0,4.0,,,,,,,,,gray,diamond
0.0,4.0,4.0,0.0,6.0,6.0,440.7633119262755,1.0,1.0,phase_2,go,250.0,250.0,1.0,,,,,,,,,yellow,square
0.0,6.0,2.0,1.0,5.0,0.0,0.0,1.0,1.0,phase_2,stop,250.0,250.0,4.0,,,,,,,,,magenta,I
0.0,3.0,3.0,0.0,6.0,6.0,503.4651211462915,1.0,1.0,phase_2,go,300.0,250.0,1.0,,,,,,,,,orange,flipped triangle
0.0,2.0,2.0,0.0,5.0,5.0,522.149384021759,1.0,1.0,phase_2,go,300.0,250.0,1.0,,,,,,,,,green,triangle
0.0,8.0,4.0,1.0,5.0,5.0,495.793362846598,1.0,1.0,phase_2,go,300.0,250.0,1.0,,,,,,,,,blue,hexagon
0.0,6.0,2.0,1.0,6.0,0.0,0.0,1.0,1.0,phase_2,stop,300.0,250.0,4.0,,,,,,,,,magenta,I
0.0,6.0,2.0,1.0,5.0,5.0,381.6765719093382,1.0,1.0,phase_2,stop,300.0,300.0,3.0,,,,,,,,,magenta,I
0.0,3.0,3.0,0.0,6.0,6.0,412.5172211788595,1.0,1.0,phase_2,go,250.0,300.0,1.0,,,,,,,,,orange,flipped triangle
0.0,4.0,4.0,0.0,5.0,5.0,637.8792889881879,1.0,1.0,phase_2,go,250.0,300.0,1.0,,,,,,,,,yellow,square
0.0,1.0,1.0,0.0,6.0,6.0,445.2404091134667,1.0,1.0,phase_2,go,250.0,300.0,1.0,,,,,,,,,white,cross
0.0,3.0,3.0,0.0,6.0,6.0,460.3791350964457,1.0,1.0,phase_2,go,250.0,300.0,1.0,,,,,,,,,orange,flipped triangle
0.0,5.0,1.0,1.0,5.0,5.0,379.5542020816356,1.0,1.0,phase_2,go,250.0,300.0,1.0,,,,,,,,,gray,diamond
0.0,2.0,2.0,0.0,5.0,5.0,339.6690059453249,1.0,1.0,phase_2,go,250.0,300.0,1.0,,,,,,,,,green,triangle
0.0,7.0,3.0,1.0,6.0,6.0,412.064281059429,1.0,1.0,phase_2,stop,250.0,300.0,3.0,,,,,,,,,cyan,circle
0.0,5.0,1.0,1.0,5.0,5.0,410.6886161025613,1.0,1.0,phase_2,stop,250.0,250.0,3.0,,,,,,,,,gray,diamond
0.0,6.0,2.0,1.0,5.0,0.0,0.0,1.0,1.0,phase_2,stop,200.0,250.0,4.0,,,,,,,,,magenta,I
0.0,6.0,2.0,1.0,5.0,5.0,586.5364850033075,1.0,1.0,phase_2,go,250.0,250.0,1.0,,,,,,,,,magenta,I
0.0,1.0,1.0,0.0,6.0,6.0,464.7194400895387,1.0,1.0,phase_2,go,250.0,250.0,1.0,,,,,,,,,white,cross
0.0,1.0,1.0,0.0,5.0,5.0,430.3489199373871,1.0,1.0,phase_2,go,250.0,250.0,1.0,,,,,,,,,white,cross
0.0,7.0,3.0,1.0,6.0,6.0,405.8952189516276,1.0,1.0,phase_2,stop,250.0,250.0,3.0,,,,,,,,,cyan,circle
0.0,4.0,4.0,0.0,6.0,6.0,485.8476428780705,1.0,1.0,phase_2,go,250.0,200.0,1.0,,,,,,,,,yellow,square
0.0,4.0,4.0,0.0,5.0,5.0,404.9003510735929,1.0,1.0,phase_2,go,250.0,200.0,1.0,,,,,,,,,yellow,square
0.0,8.0,4.0,1.0,5.0,5.0,640.2645469643176,1.0,1.0,phase_2,go,250.0,200.0,1.0,,,,,,,,,blue,hexagon
0.0,2.0,2.0,0.0,5.0,5.0,468.2822378817945,1.0,1.0,phase_2,go,250.0,200.0,1.0,,,,,,,,,green,triangle
0.0,6.0,2.0,1.0,6.0,6.0,571.0590560920537,1.0,1.0,phase_2,go,250.0,200.0,1.0,,,,,,,,,magenta,I
0.0,2.0,2.0,0.0,6.0,6.0,356.0908809304237,1.0,1.0,phase_2,go,250.0,200.0,1.0,,,,,,,,,green,triangle
0.0,8.0,4.0,1.0,5.0,5.0,346.7964890878647,1.0,1.0,phase_2,stop,250.0,200.0,3.0,,,,,,,,,blue,hexagon
0.0,5.0,1.0,1.0,5.0,5.0,459.5743999816477,1.0,1.0,phase_2,stop,200.0,200.0,3.0,,,,,,,,,gray,diamond
0.0,8.0,4.0,1.0,5.0,5.0,457.8039629850536,1.0,1.0,phase_2,stop,150.0,200.0,3.0,,,,,,,,,blue,hexagon
0.0,5.0,1.0,1.0,6.0,6.0,515.1363089680672,1.0,1.0,phase_2,go,100.0,200.0,1.0,,,,,,,,,gray,diamond
0.0,8.0,4.0,1.0,5.0,0.0,0.0,2.0,1.0,phase_2,stop,100.0,200.0,4.0,,,,,,,,,blue,hexagon
0.0,5.0,1.0,1.0,6.0,6.0,599.0901000332087,2.0,1.0,phase_2,go,150.0,200.0,1.0,,,,,,,,,gray,diamond
0.0,6.0,2.0,1.0,6.0,6.0,444.7573118377477,2.0,1.0,phase_2,stop,150.0,200.0,3.0,,,,,,,,,magenta,I
0.0,2.0,2.0,0.0,6.0,6.0,388.9030469581485,2.0,1.0,phase_2,go,150.0,150.0,1.0,,,,,,,,,green,triangle
0.0,2.0,2.0,0.0,5.0,5.0,445.6426189281046,2.0,1.0,phase_2,go,150.0,150.0,1.0,,,,,,,,,green,triangle
0.0,2.0,2.0,0.0,6.0,6.0,594.7056110017002,2.0,1.0,phase_2,go,150.0,150.0,1.0,,,,,,,,,green,triangle
0.0,6.0,2.0,1.0,6.0,6.0,453.1104420311749,2.0,1.0,phase_2,go,150.0,150.0,1.0,,,,,,,,,magenta,I
0.0,8.0,4.0,1.0,6.0,6.0,427.2127968724817,2.0,1.0,phase_2,stop,150.0,150.0,3.0,,,,,,,,,blue,hexagon
0.0,5.0,1.0,1.0,6.0,0.0,0.0,2.0,1.0,phase_2,stop,150.0,100.0,4.0,,,,,,,,,gray,diamond
0.0,1.0,1.0,0.0,6.0,6.0,562.3679650016129,2.0,1.0,phase_2,go,150.0,150.0,1.0,,,,,,,,,white,cross
0.0,2.0,2.0,0.0,6.0,6.0,393.4440920129418,2.0,1.0,phase_2,go,150.0,150.0,1.0,,,,,,,,,green,triangle
0.0,7.0,3.0,1.0,6.0,6.0,502.4410439655185,2.0,1.0,phase_2,stop,150.0,150.0,3.0,,,,,,,,,cyan,circle
0.0,3.0,3.0,0.0,5.0,5.0,550.2853970974684,2.0,1.0,phase_2,go,150.0,100.0,1.0,,,,,,,,,orange,flipped triangle
0.0,5.0,1.0,1.0,6.0,0.0,0.0,2.0,1.0,phase_2,stop,150.0,100.0,4.0,,,,,,,,,gray,diamond
0.0,2.0,2.0,0.0,5.0,5.0,660.8500778675079,2.0,1.0,phase_2,go,150.0,150.0,1.0,,,,,,,,,green,triangle
0.0,6.0,2.0,1.0,5.0,5.0,580.2710908465087,2.0,1.0,phase_2,stop,150.0,150.0,3.0,,,,,,,,,magenta,I
0.0,3.0,3.0,0.0,5.0,5.0,788.825506111607,2.0,1.0,phase_2,go,100.0,150.0,1.0,,,,,,,,,orange,flipped triangle
0.0,3.0,3.0,0.0,5.0,5.0,524.140136083588,2.0,1.0,phase_2,go,100.0,150.0,1.0,,,,,,,,,orange,flipped triangle
0.0,8.0,4.0,1.0,6.0,0.0,0.0,2.0,1.0,phase_2,stop,100.0,150.0,4.0,,,,,,,,,blue,hexagon
0.0,7.0,3.0,1.0,6.0,6.0,514.6803280804306,2.0,1.0,phase_2,stop,100.0,200.0,3.0,,,,,,,,,cyan,circle
0.0,5.0,1.0,1.0,6.0,0.0,0.0,2.0,1.0,phase_2,stop,100.0,150.0,4.0,,,,,,,,,gray,diamond
0.0,4.0,4.0,0.0,6.0,6.0,675.2700170036405,2.0,1.0,phase_2,go,100.0,200.0,1.0,,,,,,,,,yellow,square
0.0,7.0,3.0,1.0,5.0,0.0,0.0,2.0,1.0,phase_2,stop,100.0,200.0,4.0,,,,,,,,,cyan,circle
0.0,7.0,3.0,1.0,6.0,6.0,572.2413989715278,2.0,1.0,phase_2,go,150.0,200.0,1.0,,,,,,,,,cyan,circle
0.0,3.0,3.0,0.0,6.0,6.0,538.9149540569633,2.0,1.0,phase_2,go,150.0,200.0,1.0,,,,,,,,,orange,flipped triangle
0.0,8.0,4.0,1.0,6.0,6.0,448.9147800486535,2.0,1.0,phase_2,go,150.0,200.0,1.0,,,,,,,,,blue,hexagon
0.0,4.0,4.0,0.0,5.0,5.0,561.7300369776785,2.0,1.0,phase_2,go,150.0,200.0,1.0,,,,,,,,,yellow,square
0.0,3.0,3.0,0.0,5.0,5.0,529.781857971102,2.0,1.0,phase_2,go,150.0,200.0,1.0,,,,,,,,,orange,flipped triangle
0.0,2.0,2.0,0.0,5.0,5.0,446.4255420025438,2.0,1.0,phase_2,go,150.0,200.0,1.0,,,,,,,,,green,triangle
0.0,7.0,3.0,1.0,5.0,5.0,510.8682850841433,2.0,1.0,phase_2,go,150.0,200.0,1.0,,,,,,,,,cyan,circle
0.0,2.0,2.0,0.0,6.0,6.0,375.8959290571511,2.0,1.0,phase_2,go,150.0,200.0,1.0,,,,,,,,,green,triangle
0.0,6.0,2.0,1.0,6.0,6.0,471.1692749988287,2.0,1.0,phase_2,stop,150.0,200.0,3.0,,,,,,,,,magenta,I
0.0,1.0,1.0,0.0,5.0,5.0,549.8083678539842,2.0,1.0,phase_2,go,150.0,150.0,1.0,,,,,,,,,white,cross
0.0,8.0,4.0,1.0,6.0,6.0,588.6360369622707,2.0,1.0,phase_2,go,150.0,150.0,1.0,,,,,,,,,blue,hexagon
0.0,4.0,4.0,0.0,6.0,6.0,609.7765748854727,2.0,1.0,phase_2,go,150.0,150.0,1.0,,,,,,,,,yellow,square
0.0,7.0,3.0,1.0,5.0,5.0,410.7266899663955,2.0,1.0,phase_2,go,150.0,150.0,1.0,,,,,,,,,cyan,circle
0.0,5.0,1.0,1.0,5.0,5.0,572.8477069642395,3.0,1.0,phase_2,stop,150.0,150.0,3.0,,,,,,,,,gray,diamond
0.0,6.0,2.0,1.0,6.0,6.0,675.2481160219759,3.0,1.0,phase_2,stop,100.0,150.0,3.0,,,,,,,,,magenta,I
0.0,1.0,1.0,0.0,5.0,5.0,528.5103849601,3.0,1.0,phase_2,go,100.0,100.0,1.0,,,,,,,,,white,cross
0.0,1.0,1.0,0.0,6.0,6.0,1240.2883030008525,3.0,1.0,phase_2,go,100.0,100.0,1.0,,,,,,,,,white,cross
0.0,6.0,2.0,1.0,6.0,0.0,0.0,3.0,1.0,phase_2,stop,100.0,100.0,4.0,,,,,,,,,magenta,I
0.0,5.0,1.0,1.0,6.0,0.0,0.0,3.0,1.0,phase_2,stop,100.0,150.0,4.0,,,,,,,,,gray,diamond
0.0,5.0,1.0,1.0,5.0,0.0,0.0,3.0,1.0,phase_2,stop,100.0,200.0,4.0,,,,,,,,,gray,diamond
0.0,4.0,4.0,0.0,5.0,5.0,496.1255530361086,3.0,1.0,phase_2,go,150.0,200.0,1.0,,,,,,,,,yellow,square
0.0,5.0,1.0,1.0,6.0,0.0,0.0,3.0,1.0,phase_2,stop,150.0,200.0,4.0,,,,,,,,,gray,diamond
0.0,8.0,4.0,1.0,6.0,6.0,764.6420320961624,3.0,1.0,phase_2,go,150.0,250.0,1.0,,,,,,,,,blue,hexagon
0.0,4.0,4.0,0.0,5.0,5.0,567.4060699529946,3.0,1.0,phase_2,go,150.0,250.0,1.0,,,,,,,,,yellow,square
0.0,5.0,1.0,1.0,5.0,0.0,0.0,3.0,1.0,phase_2,stop,150.0,250.0,4.0,,,,,,,,,gray,diamond
0.0,1.0,1.0,0.0,5.0,5.0,683.0432859715074,3.0,1.0,phase_2,go,200.0,250.0,1.0,,,,,,,,,white,cross
0.0,3.0,3.0,0.0,5.0,5.0,485.5884779244661,3.0,1.0,phase_2,go,200.0,250.0,1.0,,,,,,,,,orange,flipped triangle
0.0,2.0,2.0,0.0,6.0,6.0,561.5992150269449,3.0,1.0,phase_2,go,200.0,250.0,1.0,,,,,,,,,green,triangle
0.0,5.0,1.0,1.0,5.0,5.0,529.2932190932333,3.0,1.0,phase_2,go,200.0,250.0,1.0,,,,,,,,,gray,diamond
0.0,7.0,3.0,1.0,5.0,0.0,0.0,3.0,1.0,phase_2,stop,200.0,250.0,4.0,,,,,,,,,cyan,circle
0.0,7.0,3.0,1.0,6.0,6.0,472.3224858753383,3.0,1.0,phase_2,go,250.0,250.0,1.0,,,,,,,,,cyan,circle
0.0,4.0,4.0,0.0,6.0,6.0,513.6727117933333,3.0,1.0,phase_2,go,250.0,250.0,1.0,,,,,,,,,yellow,square
0.0,3.0,3.0,0.0,5.0,5.0,336.0494941007346,3.0,1.0,phase_2,go,250.0,250.0,1.0,,,,,,,,,orange,flipped triangle
0.0,5.0,1.0,1.0,5.0,0.0,0.0,3.0,1.0,phase_2,stop,250.0,250.0,4.0,,,,,,,,,gray,diamond
0.0,2.0,2.0,0.0,5.0,5.0,688.071747077629,3.0,1.0,phase_2,go,300.0,250.0,1.0,,,,,,,,,green,triangle
0.0,3.0,3.0,0.0,5.0,5.0,541.8395998422056,3.0,1.0,phase_2,go,300.0,250.0,1.0,,,,,,,,,orange,flipped triangle
0.0,2.0,2.0,0.0,6.0,6.0,452.6317459531128,3.0,1.0,phase_2,go,300.0,250.0,1.0,,,,,,,,,green,triangle
0.0,1.0,1.0,0.0,5.0,5.0,854.3712149839848,3.0,1.0,phase_2,go,300.0,250.0,1.0,,,,,,,,,white,cross
0.0,8.0,4.0,1.0,6.0,0.0,0.0,3.0,1.0,phase_2,stop,300.0,250.0,4.0,,,,,,,,,blue,hexagon
0.0,1.0,1.0,0.0,5.0,5.0,708.7262228596956,3.0,1.0,phase_2,go,300.0,300.0,1.0,,,,,,,,,white,cross
0.0,4.0,4.0,0.0,6.0,6.0,862.0275619905442,3.0,1.0,phase_2,go,300.0,300.0,1.0,,,,,,,,,yellow,square
0.0,1.0,1.0,0.0,5.0,0.0,0.0,3.0,1.0,phase_2,go,300.0,300.0,5.0,,,,,,,,,white,cross
0.0,4.0,4.0,0.0,5.0,5.0,472.783386008814,3.0,1.0,phase_2,go,300.0,300.0,1.0,,,,,,,,,yellow,square
0.0,6.0,2.0,1.0,6.0,6.0,395.2040390577167,3.0,1.0,phase_2,go,300.0,300.0,1.0,,,,,,,,,magenta,I
0.0,4.0,4.0,0.0,5.0,5.0,416.4373918902129,3.0,1.0,phase_2,go,300.0,300.0,1.0,,,,,,,,,yellow,square
0.0,8.0,4.0,1.0,5.0,0.0,0.0,3.0,1.0,phase_2,stop,300.0,300.0,4.0,,,,,,,,,blue,hexagon
0.0,3.0,3.0,0.0,6.0,6.0,550.71826511994,3.0,1.0,phase_2,go,350.0,300.0,1.0,,,,,,,,,orange,flipped triangle
0.0,8.0,4.0,1.0,6.0,0.0,0.0,3.0,1.0,phase_2,stop,350.0,300.0,4.0,,,,,,,,,blue,hexagon
0.0,7.0,3.0,1.0,5.0,0.0,0.0,3.0,1.0,phase_2,stop,350.0,350.0,4.0,,,,,,,,,cyan,circle
0.0,1.0,1.0,0.0,5.0,5.0,1013.3099018130451,4.0,1.0,phase_2,go,400.0,350.0,1.0,,,,,,,,,white,cross
0.0,7.0,3.0,1.0,6.0,0.0,0.0,4.0,1.0,phase_2,stop,400.0,350.0,4.0,,,,,,,,,cyan,circle
0.0,3.0,3.0,0.0,5.0,5.0,571.7037059366703,4.0,1.0,phase_2,go,400.0,400.0,1.0,,,,,,,,,orange,flipped triangle
0.0,6.0,2.0,1.0,6.0,6.0,617.5439730286598,4.0,1.0,phase_2,go,400.0,400.0,1.0,,,,,,,,,magenta,I
0.0,3.0,3.0,0.0,6.0,6.0,491.7385410517454,4.0,1.0,phase_2,go,400.0,400.0,1.0,,,,,,,,,orange,flipped triangle
0.0,2.0,2.0,0.0,6.0,6.0,596.3711189106107,4.0,1.0,phase_2,go,400.0,400.0,1.0,,,,,,,,,green,triangle
0.0,2.0,2.0,0.0,5.0,5.0,531.2322177924216,4.0,1.0,phase_2,go,400.0,400.0,1.0,,,,,,,,,green,triangle
0.0,1.0,1.0,0.0,6.0,6.0,639.2455929890275,4.0,1.0,phase_2,go,400.0,400.0,1.0,,,,,,,,,white,cross
0.0,5.0,1.0,1.0,6.0,6.0,465.9814389888197,4.0,1.0,phase_2,go,400.0,400.0,1.0,,,,,,,,,gray,diamond
0.0,5.0,1.0,1.0,6.0,6.0,1056.44067004323,4.0,1.0,phase_2,stop,400.0,400.0,3.0,,,,,,,,,gray,diamond
0.0,2.0,2.0,0.0,5.0,5.0,920.603123959154,4.0,1.0,phase_2,go,400.0,350.0,1.0,,,,,,,,,green,triangle
0.0,7.0,3.0,1.0,6.0,6.0,375.7231789641082,4.0,1.0,phase_2,stop,400.0,350.0,3.0,,,,,,,,,cyan,circle
0.0,5.0,1.0,1.0,5.0,5.0,815.8359760418534,4.0,1.0,phase_2,stop,400.0,300.0,3.0,,,,,,,,,gray,diamond
0.0,1.0,1.0,0.0,5.0,5.0,725.4486628808081,4.0,1.0,phase_2,go,350.0,300.0,1.0,,,,,,,,,white,cross
0.0,2.0,2.0,0.0,6.0,6.0,733.2265230361372,4.0,1.0,phase_2,go,350.0,300.0,1.0,,,,,,,,,green,triangle
0.0,2.0,2.0,0.0,5.0,5.0,596.31527797319,4.0,1.0,phase_2,go,350.0,300.0,1.0,,,,,,,,,green,triangle
0.0,1.0,1.0,0.0,6.0,6.0,781.8770462181419,4.0,1.0,phase_2,go,350.0,300.0,1.0,,,,,,,,,white,cross
0.0,8.0,4.0,1.0,6.0,0.0,0.0,4.0,1.0,phase_2,stop,350.0,300.0,4.0,,,,,,,,,blue,hexagon
0.0,1.0,1.0,0.0,5.0,5.0,769.1150140017271,4.0,1.0,phase_2,go,350.0,350.0,1.0,,,,,,,,,white,cross
0.0,1.0,1.0,0.0,6.0,6.0,554.1569509077817,4.0,1.0,phase_2,go,350.0,350.0,1.0,,,,,,,,,white,cross
0.0,7.0,3.0,1.0,6.0,0.0,0.0,4.0,1.0,phase_2,stop,350.0,350.0,4.0,,,,,,,,,cyan,circle
0.0,2.0,2.0,0.0,5.0,5.0,922.5176689215004,4.0,1.0,phase_2,go,350.0,400.0,1.0,,,,,,,,,green,triangle
0.0,1.0,1.0,0.0,6.0,6.0,759.9118088837713,4.0,1.0,phase_2,go,350.0,400.0,1.0,,,,,,,,,white,cross
0.0,7.0,3.0,1.0,5.0,5.0,543.6592570040375,4.0,1.0,phase_2,stop,350.0,400.0,3.0,,,,,,,,,cyan,circle
0.0,6.0,2.0,1.0,5.0,0.0,0.0,4.0,1.0,phase_2,stop,300.0,400.0,4.0,,,,,,,,,magenta,I
0.0,8.0,4.0,1.0,5.0,5.0,974.692699033767,4.0,1.0,phase_2,go,350.0,400.0,1.0,,,,,,,,,blue,hexagon
0.0,4.0,4.0,0.0,5.0,5.0,591.3294209167361,4.0,1.0,phase_2,go,350.0,400.0,1.0,,,,,,,,,yellow,square
0.0,6.0,2.0,1.0,5.0,0.0,0.0,4.0,1.0,phase_2,stop,350.0,400.0,4.0,,,,,,,,,magenta,I
0.0,4.0,4.0,0.0,6.0,6.0,781.8479959387332,4.0,1.0,phase_2,go,400.0,400.0,1.0,,,,,,,,,yellow,square
0.0,8.0,4.0,1.0,6.0,0.0,0.0,4.0,1.0,phase_2,stop,400.0,400.0,4.0,,,,,,,,,blue,hexagon
0.0,1.0,1.0,0.0,5.0,5.0,683.7449099402875,4.0,1.0,phase_2,go,400.0,450.0,1.0,,,,,,,,,white,cross
0.0,8.0,4.0,1.0,6.0,6.0,1130.7509071193635,4.0,1.0,phase_2,stop,400.0,450.0,3.0,,,,,,,,,blue,hexagon
0.0,1.0,1.0,0.0,6.0,6.0,955.6607350241392,4.0,1.0,phase_2,go,400.0,400.0,1.0,,,,,,,,,white,cross
0.0,2.0,2.0,0.0,5.0,5.0,771.1921809241176,4.0,1.0,phase_2,go,400.0,400.0,1.0,,,,,,,,,green,triangle
0.0,4.0,4.0,0.0,5.0,0.0,0.0,4.0,1.0,phase_2,go,400.0,400.0,5.0,,,,,,,,,yellow,square
0.0,8.0,4.0,1.0,6.0,6.0,441.9685557950288,4.0,1.0,phase_2,go,400.0,400.0,1.0,,,,,,,,,blue,hexagon
0.0,8.0,4.0,1.0,5.0,5.0,650.5068489350379,5.0,1.0,phase_2,stop,400.0,400.0,3.0,,,,,,,,,blue,hexagon
0.0,4.0,4.0,0.0,6.0,6.0,369.1844190470874,5.0,1.0,phase_2,go,350.0,400.0,1.0,,,,,,,,,yellow,square
0.0,7.0,3.0,1.0,6.0,6.0,286.5528480615467,5.0,1.0,phase_2,stop,350.0,400.0,3.0,,,,,,,,,cyan,circle
0.0,7.0,3.0,1.0,5.0,5.0,303.6754550412297,5.0,1.0,phase_2,stop,350.0,350.0,3.0,,,,,,,,,cyan,circle
0.0,7.0,3.0,1.0,5.0,5.0,312.4793849419802,5.0,1.0,phase_2,go,300.0,350.0,1.0,,,,,,,,,cyan,circle
0.0,2.0,2.0,0.0,6.0,6.0,302.0531828515231,5.0,1.0,phase_2,go,300.0,350.0,1.0,,,,,,,,,green,triangle
0.0,3.0,3.0,0.0,5.0,5.0,271.4428580366075,5.0,1.0,phase_2,go,300.0,350.0,1.0,,,,,,,,,orange,flipped triangle
0.0,6.0,2.0,1.0,5.0,5.0,270.4955528024584,5.0,1.0,phase_2,go,300.0,350.0,1.0,,,,,,,,,magenta,I
0.0,5.0,1.0,1.0,5.0,5.0,278.7072111386806,5.0,1.0,phase_2,stop,300.0,350.0,3.0,,,,,,,,,gray,diamond
0.0,1.0,1.0,0.0,5.0,5.0,315.0076889432966,5.0,1.0,phase_2,go,250.0,350.0,1.0,,,,,,,,,white,cross
0.0,7.0,3.0,1.0,6.0,6.0,377.4509478826076,5.0,1.0,phase_2,stop,250.0,350.0,3.0,,,,,,,,,cyan,circle
0.0,6.0,2.0,1.0,6.0,6.0,434.5146308187395,5.0,1.0,phase_2,stop,250.0,300.0,3.0,,,,,,,,,magenta,I
0.0,6.0,2.0,1.0,5.0,5.0,292.9895641282201,5.0,1.0,phase_2,stop,250.0,250.0,3.0,,,,,,,,,magenta,I
0.0,4.0,4.0,0.0,6.0,6.0,331.6009489353746,5.0,1.0,phase_2,go,200.0,250.0,1.0,,,,,,,,,yellow,square
0.0,3.0,3.0,0.0,6.0,6.0,303.9771828334778,5.0,1.0,phase_2,go,200.0,250.0,1.0,,,,,,,,,orange,flipped triangle
0.0,6.0,2.0,1.0,5.0,5.0,339.2251480836421,5.0,1.0,phase_2,stop,200.0,250.0,3.0,,,,,,,,,magenta,I
0.0,7.0,3.0,1.0,6.0,6.0,321.6709399130195,5.0,1.0,phase_2,stop,150.0,250.0,3.0,,,,,,,,,cyan,circle
0.0,1.0,1.0,0.0,6.0,6.0,350.9869729168713,5.0,1.0,phase_2,go,150.0,200.0,1.0,,,,,,,,,white,cross
0.0,5.0,1.0,1.0,6.0,6.0,574.6334600262344,5.0,1.0,phase_2,go,150.0,200.0,1.0,,,,,,,,,gray,diamond
0.0,7.0,3.0,1.0,5.0,5.0,647.8575530927628,5.0,1.0,phase_2,stop,150.0,200.0,3.0,,,,,,,,,cyan,circle
0.0,7.0,3.0,1.0,5.0,5.0,511.4007231313735,5.0,1.0,phase_2,go,100.0,200.0,1.0,,,,,,,,,cyan,circle
0.0,5.0,1.0,1.0,5.0,5.0,356.0610271524638,5.0,1.0,phase_2,stop,100.0,200.0,3.0,,,,,,,,,gray,diamond
0.0,5.0,1.0,1.0,6.0,6.0,397.3983530886471,5.0,1.0,phase_2,stop,50.0,200.0,3.0,,,,,,,,,gray,diamond
0.0,4.0,4.0,0.0,5.0,5.0,307.5424011331051,5.0,1.0,phase_2,go,50.0,150.0,1.0,,,,,,,,,yellow,square
0.0,7.0,3.0,1.0,5.0,5.0,371.4741810690611,5.0,1.0,phase_2,stop,50.0,150.0,3.0,,,,,,,,,cyan,circle
0.0,3.0,3.0,0.0,6.0,6.0,438.2662039715796,5.0,1.0,phase_2,go,0.0,150.0,1.0,,,,,,,,,orange,flipped triangle
0.0,2.0,2.0,0.0,6.0,6.0,330.8425040449947,5.0,1.0,phase_2,go,0.0,150.0,1.0,,,,,,,,,green,triangle
0.0,2.0,2.0,0.0,6.0,6.0,316.3295420818031,5.0,1.0,phase_2,go,0.0,150.0,1.0,,,,,,,,,green,triangle
0.0,6.0,2.0,1.0,5.0,5.0,345.0707499869168,5.0,1.0,phase_2,stop,0.0,150.0,3.0,,,,,,,,,magenta,I
0.0,4.0,4.0,0.0,5.0,5.0,455.760708078742,5.0,1.0,phase_2,go,0.0,150.0,1.0,,,,,,,,,yellow,square
0.0,4.0,4.0,0.0,5.0,5.0,337.5194990076124,5.0,1.0,phase_2,go,0.0,150.0,1.0,,,,,,,,,yellow,square
0.0,1.0,1.0,0.0,6.0,6.0,425.303011899814,5.0,1.0,phase_2,go,0.0,150.0,1.0,,,,,,,,,white,cross
0.0,5.0,1.0,1.0,6.0,6.0,672.5208018906415,5.0,1.0,phase_2,stop,0.0,150.0,3.0,,,,,,,,,gray,diamond
0.0,7.0,3.0,1.0,5.0,5.0,326.4727329369634,5.0,1.0,phase_2,stop,0.0,100.0,3.0,,,,,,,,,cyan,circle
0.0,3.0,3.0,0.0,5.0,5.0,376.7741362098604,5.0,1.0,phase_2,go,0.0,100.0,1.0,,,,,,,,,orange,flipped triangle
0.0,7.0,3.0,1.0,6.0,6.0,301.8177968915552,5.0,1.0,phase_2,go,0.0,100.0,1.0,,,,,,,,,cyan,circle
0.0,5.0,1.0,1.0,5.0,5.0,475.2495060674846,6.0,1.0,phase_2,stop,0.0,100.0,3.0,,,,,,,,,gray,diamond
0.0,1.0,1.0,0.0,6.0,6.0,778.8710459135473,6.0,1.0,phase_2,go,0.0,100.0,1.0,,,,,,,,,white,cross
0.0,8.0,4.0,1.0,5.0,0.0,0.0,6.0,1.0,phase_2,stop,0.0,100.0,4.0,,,,,,,,,blue,hexagon
0.0,2.0,2.0,0.0,5.0,5.0,700.562427053228,6.0,1.0,phase_2,go,50.0,100.0,1.0,,,,,,,,,green,triangle
0.0,7.0,3.0,1.0,5.0,5.0,433.4501561243087,6.0,1.0,phase_2,go,50.0,100.0,1.0,,,,,,,,,cyan,circle
0.0,8.0,4.0,1.0,6.0,6.0,418.5136950109154,6.0,1.0,phase_2,stop,50.0,100.0,3.0,,,,,,,,,blue,hexagon
0.0,7.0,3.0,1.0,5.0,5.0,354.973766952753,6.0,1.0,phase_2,stop,50.0,50.0,3.0,,,,,,,,,cyan,circle
0.0,6.0,2.0,1.0,6.0,0.0,0.0,6.0,1.0,phase_2,stop,0.0,50.0,4.0,,,,,,,,,magenta,I
0.0,4.0,4.0,0.0,5.0,5.0,592.6605151034892,6.0,1.0,phase_2,go,0.0,100.0,1.0,,,,,,,,,yellow,square
0.0,3.0,3.0,0.0,5.0,5.0,487.1934410184622,6.0,1.0,phase_2,go,0.0,100.0,1.0,,,,,,,,,orange,flipped triangle
0.0,6.0,2.0,1.0,6.0,6.0,358.1026010215282,6.0,1.0,phase_2,stop,0.0,100.0,3.0,,,,,,,,,magenta,I
0.0,4.0,4.0,0.0,6.0,6.0,661.3355178851634,6.0,1.0,phase_2,go,0.0,50.0,1.0,,,,,,,,,yellow,square
0.0,1.0,1.0,0.0,6.0,6.0,580.7647609617561,6.0,1.0,phase_2,go,0.0,50.0,1.0,,,,,,,,,white,cross
0.0,8.0,4.0,1.0,6.0,0.0,0.0,6.0,1.0,phase_2,stop,0.0,50.0,4.0,,,,,,,,,blue,hexagon
0.0,6.0,2.0,1.0,5.0,0.0,0.0,6.0,1.0,phase_2,stop,0.0,100.0,4.0,,,,,,,,,magenta,I
0.0,7.0,3.0,1.0,5.0,0.0,0.0,6.0,1.0,phase_2,stop,50.0,100.0,4.0,,,,,,,,,cyan,circle
0.0,4.0,4.0,0.0,6.0,6.0,474.7538149822503,6.0,1.0,phase_2,go,100.0,100.0,1.0,,,,,,,,,yellow,square
0.0,4.0,4.0,0.0,5.0,5.0,539.9883151985705,6.0,1.0,phase_2,go,100.0,100.0,1.0,,,,,,,,,yellow,square
0.0,7.0,3.0,1.0,6.0,0.0,0.0,6.0,1.0,phase_2,stop,100.0,100.0,4.0,,,,,,,,,cyan,circle
0.0,7.0,3.0,1.0,6.0,6.0,610.8439278323203,6.0,1.0,phase_2,stop,100.0,150.0,3.0,,,,,,,,,cyan,circle
0.0,3.0,3.0,0.0,6.0,6.0,1057.9807008616626,6.0,1.0,phase_2,go,100.0,100.0,1.0,,,,,,,,,orange,flipped triangle
0.0,6.0,2.0,1.0,5.0,5.0,322.0857051201164,6.0,1.0,phase_2,stop,100.0,100.0,3.0,,,,,,,,,magenta,I
0.0,5.0,1.0,1.0,6.0,0.0,0.0,6.0,1.0,phase_2,stop,50.0,100.0,4.0,,,,,,,,,gray,diamond
0.0,2.0,2.0,0.0,6.0,5.0,592.4157430417836,6.0,1.0,phase_2,go,50.0,150.0,2.0,,,,,,,,,green,triangle
0.0,2.0,2.0,0.0,5.0,5.0,558.7677180301398,6.0,1.0,phase_2,go,50.0,150.0,1.0,,,,,,,,,green,triangle
0.0,7.0,3.0,1.0,6.0,0.0,0.0,6.0,1.0,phase_2,stop,50.0,150.0,4.0,,,,,,,,,cyan,circle
0.0,8.0,4.0,1.0,6.0,6.0,775.2039048355073,6.0,1.0,phase_2,stop,50.0,200.0,3.0,,,,,,,,,blue,hexagon
0.0,3.0,3.0,0.0,6.0,6.0,524.3999138474464,6.0,1.0,phase_2,go,50.0,150.0,1.0,,,,,,,,,orange,flipped triangle
0.0,4.0,4.0,0.0,6.0,6.0,419.9591148644686,6.0,1.0,phase_2,go,50.0,150.0,1.0,,,,,,,,,yellow,square
0.0,1.0,1.0,0.0,5.0,5.0,475.5636341869831,6.0,1.0,phase_2,go,50.0,150.0,1.0,,,,,,,,,white,cross
0.0,6.0,2.0,1.0,6.0,0.0,0.0,6.0,1.0,phase_2,stop,50.0,150.0,4.0,,,,,,,,,magenta,I
0.0,1.0,1.0,0.0,6.0,6.0,565.3332169167697,6.0,1.0,phase_2,go,50.0,200.0,1.0,,,,,,,,,white,cross
0.0,1.0,1.0,0.0,6.0,6.0,569.5901459548622,6.0,1.0,phase_2,go,50.0,200.0,1.0,,,,,,,,,white,cross
0.0,6.0,2.0,1.0,5.0,0.0,0.0,6.0,1.0,phase_2,stop,50.0,200.0,4.0,,,,,,,,,magenta,I
0.0,4.0,4.0,0.0,6.0,6.0,602.7651380281895,6.0,1.0,phase_2,go,100.0,200.0,1.0,,,,,,,,,yellow,square
0.0,8.0,4.0,1.0,5.0,0.0,0.0,6.0,1.0,phase_2,stop,100.0,200.0,4.0,,,,,,,,,blue,hexagon
0.0,8.0,4.0,1.0,5.0,5.0,581.9417380262166,7.0,1.0,phase_2,stop,150.0,200.0,3.0,,,,,,,,,blue,hexagon
0.0,2.0,2.0,0.0,6.0,6.0,451.2308810371905,7.0,1.0,phase_2,go,100.0,200.0,1.0,,,,,,,,,green,triangle
0.0,8.0,4.0,1.0,5.0,0.0,0.0,7.0,1.0,phase_2,stop,100.0,200.0,4.0,,,,,,,,,blue,hexagon
0.0,2.0,2.0,0.0,5.0,5.0,772.5573370698839,7.0,1.0,phase_2,go,150.0,200.0,1.0,,,,,,,,,green,triangle
0.0,6.0,2.0,1.0,6.0,0.0,0.0,7.0,1.0,phase_2,stop,150.0,200.0,4.0,,,,,,,,,magenta,I
0.0,6.0,2.0,1.0,6.0,6.0,593.8942721113563,7.0,1.0,phase_2,go,150.0,250.0,1.0,,,,,,,,,magenta,I
0.0,5.0,1.0,1.0,5.0,5.0,623.7224470824003,7.0,1.0,phase_2,go,150.0,250.0,1.0,,,,,,,,,gray,diamond
0.0,2.0,2.0,0.0,6.0,6.0,614.9450191296637,7.0,1.0,phase_2,go,150.0,250.0,1.0,,,,,,,,,green,triangle
0.0,6.0,2.0,1.0,5.0,0.0,0.0,7.0,1.0,phase_2,stop,150.0,250.0,4.0,,,,,,,,,magenta,I
0.0,5.0,1.0,1.0,6.0,6.0,612.8667709417641,7.0,1.0,phase_2,stop,200.0,250.0,3.0,,,,,,,,,gray,diamond
0.0,4.0,4.0,0.0,6.0,6.0,477.2993808146566,7.0,1.0,phase_2,go,200.0,200.0,1.0,,,,,,,,,yellow,square
0.0,1.0,1.0,0.0,6.0,6.0,391.70305384323,7.0,1.0,phase_2,go,200.0,200.0,1.0,,,,,,,,,white,cross
0.0,4.0,4.0,0.0,5.0,5.0,373.6864170059562,7.0,1.0,phase_2,go,200.0,200.0,1.0,,,,,,,,,yellow,square
0.0,5.0,1.0,1.0,5.0,5.0,443.1393789127469,7.0,1.0,phase_2,go,200.0,200.0,1.0,,,,,,,,,gray,diamond
0.0,1.0,1.0,0.0,5.0,5.0,452.4333251174539,7.0,1.0,phase_2,go,200.0,200.0,1.0,,,,,,,,,white,cross
0.0,2.0,2.0,0.0,6.0,6.0,386.6376099176705,7.0,1.0,phase_2,go,200.0,200.0,1.0,,,,,,,,,green,triangle
0.0,7.0,3.0,1.0,5.0,0.0,0.0,7.0,1.0,phase_2,stop,200.0,200.0,4.0,,,,,,,,,cyan,circle
0.0,4.0,4.0,0.0,6.0,6.0,443.4217661619186,7.0,1.0,phase_2,go,250.0,200.0,1.0,,,,,,,,,yellow,square
0.0,7.0,3.0,1.0,5.0,0.0,0.0,7.0,1.0,phase_2,stop,250.0,200.0,4.0,,,,,,,,,cyan,circle
0.0,3.0,3.0,0.0,6.0,6.0,360.2871978655457,7.0,1.0,phase_2,go,300.0,200.0,1.0,,,,,,,,,orange,flipped triangle
0.0,2.0,2.0,0.0,5.0,5.0,487.2565851546824,7.0,1.0,phase_2,go,300.0,200.0,1.0,,,,,,,,,green,triangle
0.0,6.0,2.0,1.0,5.0,5.0,402.6794109959155,7.0,1.0,phase_2,stop,300.0,200.0,3.0,,,,,,,,,magenta,I
0.0,8.0,4.0,1.0,5.0,5.0,559.901321073994,7.0,1.0,phase_2,stop,250.0,200.0,3.0,,,,,,,,,blue,hexagon
0.0,3.0,3.0,0.0,5.0,5.0,592.43671502918,7.0,1.0,phase_2,go,200.0,200.0,1.0,,,,,,,,,orange,flipped triangle
0.0,5.0,1.0,1.0,6.0,0.0,0.0,7.0,1.0,phase_2,stop,200.0,200.0,4.0,,,,,,,,,gray,diamond
0.0,5.0,1.0,1.0,5.0,0.0,0.0,7.0,1.0,phase_2,stop,200.0,250.0,4.0,,,,,,,,,gray,diamond
0.0,8.0,4.0,1.0,5.0,0.0,0.0,7.0,1.0,phase_2,stop,250.0,250.0,4.0,,,,,,,,,blue,hexagon
0.0,4.0,4.0,0.0,5.0,5.0,556.0618250165135,7.0,1.0,phase_2,go,300.0,250.0,1.0,,,,,,,,,yellow,square
0.0,8.0,4.0,1.0,5.0,5.0,658.4948059171438,7.0,1.0,phase_2,go,300.0,250.0,1.0,,,,,,,,,blue,hexagon
0.0,2.0,2.0,0.0,5.0,5.0,577.8503969777375,7.0,1.0,phase_2,go,300.0,250.0,1.0,,,,,,,,,green,triangle
0.0,4.0,4.0,0.0,5.0,5.0,465.6066340394318,7.0,1.0,phase_2,go,300.0,250.0,1.0,,,,,,,,,yellow,square
0.0,1.0,1.0,0.0,5.0,5.0,427.0316460169852,7.0,1.0,phase_2,go,300.0,250.0,1.0,,,,,,,,,white,cross
0.0,6.0,2.0,1.0,5.0,0.0,0.0,7.0,1.0,phase_2,stop,300.0,250.0,4.0,,,,,,,,,magenta,I
0.0,7.0,3.0,1.0,5.0,0.0,0.0,7.0,1.0,phase_2,stop,350.0,250.0,4.0,,,,,,,,,cyan,circle
0.0,1.0,1.0,0.0,6.0,6.0,479.4197310693562,7.0,1.0,phase_2,go,400.0,250.0,1.0,,,,,,,,,white,cross
0.0,6.0,2.0,1.0,6.0,6.0,502.5668030139059,7.0,1.0,phase_2,stop,400.0,250.0,3.0,,,,,,,,,magenta,I
0.0,8.0,4.0,1.0,5.0,5.0,482.011852087453,8.0,1.0,phase_2,stop,400.0,200.0,3.0,,,,,,,,,blue,hexagon
0.0,1.0,1.0,0.0,5.0,5.0,361.4925779402256,8.0,1.0,phase_2,go,350.0,200.0,1.0,,,,,,,,,white,cross
0.0,3.0,3.0,0.0,6.0,6.0,464.8997611366212,8.0,1.0,phase_2,go,350.0,200.0,1.0,,,,,,,,,orange,flipped triangle
0.0,3.0,3.0,0.0,5.0,5.0,359.343976015225,8.0,1.0,phase_2,go,350.0,200.0,1.0,,,,,,,,,orange,flipped triangle
0.0,5.0,1.0,1.0,5.0,5.0,453.2724109012633,8.0,1.0,phase_2,stop,350.0,200.0,3.0,,,,,,,,,gray,diamond
0.0,5.0,1.0,1.0,6.0,6.0,660.2641409263015,8.0,1.0,phase_2,go,300.0,200.0,1.0,,,,,,,,,gray,diamond
0.0,3.0,3.0,0.0,6.0,6.0,829.3646310921758,8.0,1.0,phase_2,go,300.0,200.0,1.0,,,,,,,,,orange,flipped triangle
0.0,5.0,1.0,1.0,5.0,0.0,0.0,8.0,1.0,phase_2,stop,300.0,200.0,4.0,,,,,,,,,gray,diamond
0.0,3.0,3.0,0.0,5.0,5.0,613.61318314448,8.0,1.0,phase_2,go,350.0,200.0,1.0,,,,,,,,,orange,flipped triangle
0.0,2.0,2.0,0.0,5.0,5.0,506.7079470027238,8.0,1.0,phase_2,go,350.0,200.0,1.0,,,,,,,,,green,triangle
0.0,1.0,1.0,0.0,5.0,5.0,436.4830679260194,8.0,1.0,phase_2,go,350.0,200.0,1.0,,,,,,,,,white,cross
0.0,2.0,2.0,0.0,6.0,6.0,481.5501680132001,8.0,1.0,phase_2,go,350.0,200.0,1.0,,,,,,,,,green,triangle
0.0,8.0,4.0,1.0,6.0,6.0,354.0732958354056,8.0,1.0,phase_2,stop,350.0,200.0,3.0,,,,,,,,,blue,hexagon
0.0,1.0,1.0,0.0,6.0,6.0,449.5074199512601,8.0,1.0,phase_2,go,350.0,150.0,1.0,,,,,,,,,white,cross
0.0,8.0,4.0,1.0,6.0,6.0,481.6400350537151,8.0,1.0,phase_2,stop,350.0,150.0,3.0,,,,,,,,,blue,hexagon
0.0,4.0,4.0,0.0,6.0,6.0,634.418027009815,8.0,1.0,phase_2,go,350.0,100.0,1.0,,,,,,,,,yellow,square
0.0,2.0,2.0,0.0,6.0,6.0,880.297812866047,8.0,1.0,phase_2,go,350.0,100.0,1.0,,,,,,,,,green,triangle
0.0,6.0,2.0,1.0,6.0,6.0,342.0922299847007,8.0,1.0,phase_2,go,350.0,100.0,1.0,,,,,,,,,magenta,I
0.0,6.0,2.0,1.0,6.0,6.0,520.9118218626827,8.0,1.0,phase_2,go,350.0,100.0,1.0,,,,,,,,,magenta,I
0.0,3.0,3.0,0.0,6.0,6.0,334.6332819201052,8.0,1.0,phase_2,go,350.0,100.0,1.0,,,,,,,,,orange,flipped triangle
0.0,8.0,4.0,1.0,5.0,5.0,383.8783029932529,8.0,1.0,phase_2,stop,350.0,100.0,3.0,,,,,,,,,blue,hexagon
0.0,1.0,1.0,0.0,5.0,5.0,435.5784028302878,8.0,1.0,phase_2,go,300.0,100.0,1.0,,,,,,,,,white,cross
0.0,3.0,3.0,0.0,6.0,6.0,462.7185279969126,8.0,1.0,phase_2,go,300.0,100.0,1.0,,,,,,,,,orange,flipped triangle
0.0,3.0,3.0,0.0,5.0,5.0,410.9685448929667,8.0,1.0,phase_2,go,300.0,100.0,1.0,,,,,,,,,orange,flipped triangle
0.0,8.0,4.0,1.0,5.0,5.0,382.7975550666451,8.0,1.0,phase_2,stop,300.0,100.0,3.0,,,,,,,,,blue,hexagon
0.0,4.0,4.0,0.0,6.0,6.0,396.8500311020762,8.0,1.0,phase_2,go,250.0,100.0,1.0,,,,,,,,,yellow,square
0.0,7.0,3.0,1.0,6.0,6.0,436.4538341760635,8.0,1.0,phase_2,go,250.0,100.0,1.0,,,,,,,,,cyan,circle
0.0,3.0,3.0,0.0,5.0,5.0,384.5102149061858,8.0,1.0,phase_2,go,250.0,100.0,1.0,,,,,,,,,orange,flipped triangle
0.0,3.0,3.0,0.0,6.0,6.0,504.0030980017036,8.0,1.0,phase_2,go,250.0,100.0,1.0,,,,,,,,,orange,flipped triangle
0.0,8.0,4.0,1.0,6.0,6.0,360.813993960619,8.0,1.0,phase_2,go,250.0,100.0,1.0,,,,,,,,,blue,hexagon
0.0,3.0,3.0,0.0,5.0,5.0,450.4028668161481,8.0,1.0,phase_2,go,250.0,100.0,1.0,,,,,,,,,orange,flipped triangle
0.0,8.0,4.0,1.0,6.0,0.0,0.0,8.0,1.0,phase_2,stop,250.0,100.0,4.0,,,,,,,,,blue,hexagon
0.0,3.0,3.0,0.0,6.0,6.0,816.5095720905811,8.0,1.0,phase_2,go,250.0,150.0,1.0,,,,,,,,,orange,flipped triangle
0.0,3.0,3.0,0.0,6.0,6.0,494.397256989032,8.0,1.0,phase_2,go,250.0,150.0,1.0,,,,,,,,,orange,flipped triangle
0.0,7.0,3.0,1.0,6.0,0.0,0.0,8.0,1.0,phase_2,stop,250.0,150.0,4.0,,,,,,,,,cyan,circle
0.0,4.0,4.0,0.0,5.0,5.0,588.4518621023744,8.0,1.0,phase_2,go,250.0,200.0,1.0,,,,,,,,,yellow,square
0.0,5.0,1.0,1.0,7.0,1.0,1862.1076049748808,1.0,1.0,phase_3,,,,,245.0,5.0,245.0,294.0,98.0,49.0,147.0,196.0,gray,diamond
0.0,3.0,3.0,0.0,7.0,1.0,2279.9201149027795,1.0,1.0,phase_3,,,,,270.0,5.0,270.0,108.0,324.0,54.0,162.0,216.0,orange,flipped triangle
0.0,4.0,4.0,0.0,7.0,4.0,1596.5644950047135,1.0,1.0,phase_3,,,,,245.0,5.0,49.0,294.0,147.0,245.0,98.0,196.0,yellow,square
0.0,1.0,1.0,0.0,7.0,4.0,1861.5600559860468,1.0,1.0,phase_3,,,,,196.0,4.0,245.0,49.0,294.0,196.0,98.0,147.0,white,cross
0.0,6.0,2.0,1.0,7.0,5.0,2247.2100688610226,1.0,1.0,phase_3,,,,,196.0,4.0,147.0,49.0,245.0,98.0,196.0,294.0,magenta,I
0.0,5.0,1.0,1.0,7.0,6.0,2015.561879845336,1.0,1.0,phase_3,,,,,216.0,4.0,270.0,108.0,54.0,324.0,162.0,216.0,gray,diamond
0.0,3.0,3.0,0.0,7.0,5.0,1616.7323479894549,1.0,1.0,phase_3,,,,,195.0,5.0,78.0,156.0,234.0,117.0,195.0,39.0,orange,flipped triangle
0.0,7.0,3.0,1.0,7.0,5.0,2129.5057930983603,1.0,1.0,phase_3,,,,,176.0,4.0,264.0,132.0,220.0,88.0,176.0,44.0,cyan,circle
0.0,4.0,4.0,0.0,7.0,5.0,1181.2650880310684,1.0,1.0,phase_3,,,,,170.0,5.0,204.0,68.0,34.0,102.0,170.0,136.0,yellow,square
0.0,1.0,1.0,0.0,7.0,4.0,1591.0584749653935,1.0,1.0,phase_3,,,,,220.0,5.0,132.0,176.0,264.0,220.0,88.0,44.0,white,cross
0.0,2.0,2.0,0.0,7.0,1.0,1958.537579048425,1.0,1.0,phase_3,,,,,176.0,4.0,176.0,44.0,220.0,264.0,132.0,88.0,green,triangle
0.0,7.0,3.0,1.0,7.0,4.0,1654.174645897001,1.0,1.0,phase_3,,,,,216.0,4.0,324.0,54.0,162.0,216.0,108.0,270.0,cyan,circle
0.0,7.0,3.0,1.0,7.0,5.0,1639.141860883683,1.0,1.0,phase_3,,,,,196.0,4.0,147.0,245.0,49.0,98.0,196.0,294.0,cyan,circle
0.0,7.0,3.0,1.0,7.0,6.0,2010.8917369507253,1.0,1.0,phase_3,,,,,216.0,4.0,108.0,270.0,162.0,324.0,54.0,216.0,cyan,circle
0.0,4.0,4.0,0.0,7.0,5.0,1475.085797952488,1.0,1.0,phase_3,,,,,170.0,5.0,102.0,68.0,34.0,204.0,170.0,136.0,yellow,square
0.0,2.0,2.0,0.0,7.0,5.0,1503.6944029852748,1.0,1.0,phase_3,,,,,216.0,4.0,270.0,324.0,162.0,54.0,216.0,108.0,green,triangle
0.0,1.0,1.0,0.0,7.0,3.0,1672.8199378121644,1.0,1.0,phase_3,,,,,195.0,5.0,156.0,39.0,195.0,78.0,117.0,234.0,white,cross
0.0,1.0,1.0,0.0,7.0,5.0,1231.2387321144342,1.0,1.0,phase_3,,,,,68.0,2.0,204.0,34.0,102.0,136.0,68.0,170.0,white,cross
0.0,2.0,2.0,0.0,7.0,3.0,1472.4781198892742,1.0,1.0,phase_3,,,,,195.0,5.0,78.0,156.0,195.0,117.0,234.0,39.0,green,triangle
0.0,6.0,2.0,1.0,7.0,2.0,3081.7690279800445,1.0,1.0,phase_3,,,,,195.0,5.0,156.0,195.0,39.0,78.0,234.0,117.0,magenta,I
0.0,1.0,1.0,0.0,7.0,4.0,1803.976226132363,2.0,1.0,phase_3,,,,,234.0,6.0,39.0,195.0,117.0,234.0,156.0,78.0,white,cross
0.0,6.0,2.0,1.0,7.0,6.0,1680.6447638664397,2.0,1.0,phase_3,,,,,195.0,5.0,117.0,39.0,234.0,156.0,78.0,195.0,magenta,I
0.0,5.0,1.0,1.0,7.0,4.0,2265.228252159432,2.0,1.0,phase_3,,,,,176.0,4.0,88.0,220.0,264.0,176.0,44.0,132.0,gray,diamond
0.0,8.0,4.0,1.0,7.0,2.0,1705.044825095683,2.0,1.0,phase_3,,,,,204.0,6.0,34.0,204.0,170.0,102.0,68.0,136.0,blue,hexagon
0.0,4.0,4.0,0.0,7.0,5.0,1755.338517948985,2.0,1.0,phase_3,,,,,234.0,6.0,195.0,39.0,78.0,156.0,234.0,117.0,yellow,square
0.0,3.0,3.0,0.0,7.0,5.0,1652.8821899555624,2.0,1.0,phase_3,,,,,176.0,4.0,264.0,44.0,132.0,88.0,176.0,220.0,orange,flipped triangle
0.0,3.0,3.0,0.0,7.0,4.0,1376.5632610302418,2.0,1.0,phase_3,,,,,176.0,4.0,88.0,132.0,44.0,176.0,220.0,264.0,orange,flipped triangle
0.0,5.0,1.0,1.0,7.0,3.0,1526.6457910183815,2.0,1.0,phase_3,,,,,216.0,4.0,54.0,324.0,216.0,108.0,162.0,270.0,gray,diamond
0.0,6.0,2.0,1.0,7.0,1.0,2259.1453581117094,2.0,1.0,phase_3,,,,,216.0,4.0,216.0,270.0,108.0,324.0,54.0,162.0,magenta,I
0.0,3.0,3.0,0.0,7.0,4.0,1698.6694070510566,2.0,1.0,phase_3,,,,,216.0,4.0,270.0,108.0,54.0,216.0,162.0,324.0,orange,flipped triangle
0.0,6.0,2.0,1.0,7.0,4.0,1653.866047039628,2.0,1.0,phase_3,,,,,216.0,4.0,162.0,54.0,108.0,216.0,324.0,270.0,magenta,I
0.0,2.0,2.0,0.0,7.0,3.0,1670.4197889193892,2.0,1.0,phase_3,,,,,170.0,5.0,68.0,136.0,170.0,102.0,204.0,34.0,green,triangle
0.0,3.0,3.0,0.0,7.0,1.0,1940.4177810065448,2.0,1.0,phase_3,,,,,204.0,6.0,204.0,68.0,170.0,102.0,34.0,136.0,orange,flipped triangle
0.0,7.0,3.0,1.0,7.0,1.0,2178.111230954528,2.0,1.0,phase_3,,,,,176.0,4.0,176.0,132.0,220.0,264.0,88.0,44.0,cyan,circle
0.0,6.0,2.0,1.0,7.0,4.0,2450.433327117935,2.0,1.0,phase_3,,,,,196.0,4.0,245.0,49.0,294.0,196.0,98.0,147.0,magenta,I
0.0,4.0,4.0,0.0,7.0,1.0,1948.9431348629296,2.0,1.0,phase_3,,,,,176.0,4.0,176.0,220.0,88.0,44.0,132.0,264.0,yellow,square
0.0,6.0,2.0,1.0,7.0,2.0,748.8573649898171,2.0,1.0,phase_3,,,,,220.0,5.0,132.0,220.0,44.0,264.0,176.0,88.0,magenta,I
0.0,8.0,4.0,1.0,7.0,2.0,1517.7026679739356,2.0,1.0,phase_3,,,,,216.0,4.0,162.0,216.0,324.0,270.0,108.0,54.0,blue,hexagon
0.0,4.0,4.0,0.0,7.0,6.0,1670.3851181082428,2.0,1.0,phase_3,,,,,196.0,4.0,245.0,147.0,49.0,294.0,98.0,196.0,yellow,square
0.0,2.0,2.0,0.0,7.0,3.0,1335.0406559184194,2.0,1.0,phase_3,,,,,196.0,4.0,49.0,98.0,196.0,245.0,147.0,294.0,green,triangle
0.0,2.0,2.0,0.0,7.0,5.0,2047.8859110735361,3.0,1.0,phase_3,,,,,195.0,5.0,156.0,39.0,78.0,117.0,195.0,234.0,green,triangle
0.0,2.0,2.0,0.0,7.0,4.0,2588.4700811002403,3.0,1.0,phase_3,,,,,196.0,4.0,49.0,98.0,294.0,196.0,147.0,245.0,green,triangle
0.0,3.0,3.0,0.0,7.0,4.0,2406.3775239046663,3.0,1.0,phase_3,,,,,245.0,5.0,49.0,196.0,294.0,245.0,98.0,147.0,orange,flipped triangle
0.0,7.0,3.0,1.0,7.0,3.0,1268.357755849138,3.0,1.0,phase_3,,,,,204.0,6.0,102.0,136.0,204.0,170.0,68.0,34.0,cyan,circle
0.0,6.0,2.0,1.0,7.0,6.0,1966.0249100998044,3.0,1.0,phase_3,,,,,220.0,5.0,264.0,44.0,88.0,176.0,132.0,220.0,magenta,I
0.0,1.0,1.0,0.0,7.0,3.0,1318.5746469534934,3.0,1.0,phase_3,,,,,216.0,4.0,108.0,324.0,216.0,270.0,162.0,54.0,white,cross
0.0,1.0,1.0,0.0,7.0,6.0,2224.122832063585,3.0,1.0,phase_3,,,,,204.0,6.0,170.0,136.0,68.0,34.0,102.0,204.0,white,cross
0.0,5.0,1.0,1.0,7.0,5.0,1641.08309103176,3.0,1.0,phase_3,,,,,195.0,5.0,234.0,39.0,156.0,78.0,195.0,117.0,gray,diamond
0.0,7.0,3.0,1.0,7.0,2.0,1724.5560779701918,3.0,1.0,phase_3,,,,,196.0,4.0,49.0,196.0,147.0,245.0,98.0,294.0,cyan,circle
0.0,1.0,1.0,0.0,7.0,3.0,1943.8805950339884,3.0,1.0,phase_3,,,,,176.0,4.0,132.0,220.0,176.0,44.0,88.0,264.0,white,cross
0.0,7.0,3.0,1.0,7.0,2.0,2321.2523290421814,3.0,1.0,phase_3,,,,,156.0,4.0,195.0,156.0,234.0,117.0,39.0,78.0,cyan,circle
0.0,8.0,4.0,1.0,7.0,2.0,1366.7782791890204,3.0,1.0,phase_3,,,,,162.0,3.0,108.0,162.0,270.0,216.0,54.0,324.0,blue,hexagon
0.0,8.0,4.0,1.0,7.0,6.0,2376.701033907011,3.0,1.0,phase_3,,,,,245.0,5.0,294.0,147.0,196.0,49.0,98.0,245.0,blue,hexagon
0.0,8.0,4.0,1.0,7.0,6.0,1809.3854610342528,3.0,1.0,phase_3,,,,,204.0,6.0,136.0,34.0,102.0,170.0,68.0,204.0,blue,hexagon
0.0,5.0,1.0,1.0,7.0,4.0,3292.6808591000736,3.0,1.0,phase_3,,,,,176.0,4.0,220.0,44.0,264.0,176.0,88.0,132.0,gray,diamond
0.0,8.0,4.0,1.0,7.0,5.0,1957.0157940033823,3.0,1.0,phase_3,,,,,176.0,4.0,220.0,44.0,132.0,88.0,176.0,264.0,blue,hexagon
0.0,4.0,4.0,0.0,7.0,4.0,2318.3062721509486,3.0,1.0,phase_3,,,,,195.0,5.0,39.0,78.0,156.0,195.0,234.0,117.0,yellow,square
0.0,1.0,1.0,0.0,7.0,1.0,2887.9445460624997,3.0,1.0,phase_3,,,,,196.0,4.0,196.0,245.0,147.0,49.0,294.0,98.0,white,cross
0.0,8.0,4.0,1.0,7.0,6.0,1963.010899024084,3.0,1.0,phase_3,,,,,195.0,5.0,78.0,156.0,234.0,39.0,117.0,195.0,blue,hexagon
0.0,3.0,3.0,0.0,7.0,5.0,1777.8896461240947,3.0,1.0,phase_3,,,,,195.0,5.0,234.0,78.0,39.0,156.0,195.0,117.0,orange,flipped triangle
0.0,2.0,2.0,0.0,7.0,1.0,2404.0829718578607,4.0,1.0,phase_3,,,,,170.0,5.0,170.0,34.0,102.0,136.0,204.0,68.0,green,triangle
0.0,8.0,4.0,1.0,7.0,5.0,1397.5550970062611,4.0,1.0,phase_3,,,,,195.0,5.0,117.0,39.0,78.0,234.0,195.0,156.0,blue,hexagon
0.0,8.0,4.0,1.0,7.0,2.0,1640.3866100590676,4.0,1.0,phase_3,,,,,220.0,5.0,176.0,220.0,264.0,44.0,132.0,88.0,blue,hexagon
0.0,7.0,3.0,1.0,7.0,4.0,1719.828130910173,4.0,1.0,phase_3,,,,,156.0,4.0,234.0,78.0,195.0,156.0,117.0,39.0,cyan,circle
0.0,6.0,2.0,1.0,7.0,3.0,1537.1445671189576,4.0,1.0,phase_3,,,,,204.0,6.0,68.0,170.0,204.0,34.0,102.0,136.0,magenta,I
0.0,4.0,4.0,0.0,7.0,2.0,1788.448358187452,4.0,1.0,phase_3,,,,,176.0,4.0,44.0,176.0,264.0,88.0,220.0,132.0,yellow,square
0.0,4.0,4.0,0.0,7.0,4.0,2819.366183131933,4.0,1.0,phase_3,,,,,216.0,4.0,324.0,270.0,54.0,216.0,108.0,162.0,yellow,square
0.0,5.0,1.0,1.0,7.0,2.0,2335.283763008192,4.0,1.0,phase_3,,,,,170.0,5.0,34.0,170.0,102.0,204.0,68.0,136.0,gray,diamond
0.0,4.0,4.0,0.0,7.0,6.0,1950.783174019307,4.0,1.0,phase_3,,,,,216.0,4.0,162.0,54.0,108.0,324.0,270.0,216.0,yellow,square
0.0,3.0,3.0,0.0,7.0,6.0,1712.3491591773927,4.0,1.0,phase_3,,,,,196.0,4.0,245.0,49.0,98.0,147.0,294.0,196.0,orange,flipped triangle
0.0,8.0,4.0,1.0,7.0,2.0,1620.4278690274805,4.0,1.0,phase_3,,,,,196.0,4.0,49.0,196.0,147.0,294.0,98.0,245.0,blue,hexagon
0.0,2.0,2.0,0.0,7.0,6.0,2372.6377540733665,4.0,1.0,phase_3,,,,,216.0,4.0,270.0,54.0,162.0,108.0,324.0,216.0,green,triangle
0.0,5.0,1.0,1.0,7.0,4.0,1622.7193011436611,4.0,1.0,phase_3,,,,,196.0,4.0,49.0,147.0,294.0,196.0,98.0,245.0,gray,diamond
0.0,3.0,3.0,0.0,7.0,5.0,1775.0197949353606,4.0,1.0,phase_3,,,,,204.0,6.0,68.0,136.0,170.0,102.0,204.0,34.0,orange,flipped triangle
0.0,2.0,2.0,0.0,7.0,3.0,2183.188933879137,4.0,1.0,phase_3,,,,,176.0,4.0,88.0,264.0,176.0,132.0,220.0,44.0,green,triangle
0.0,5.0,1.0,1.0,7.0,6.0,1858.069353969768,4.0,1.0,phase_3,,,,,195.0,5.0,39.0,234.0,78.0,117.0,156.0,195.0,gray,diamond
0.0,6.0,2.0,1.0,7.0,1.0,1812.2499368619171,4.0,1.0,phase_3,,,,,170.0,5.0,170.0,68.0,102.0,34.0,204.0,136.0,magenta,I
0.0,5.0,1.0,1.0,7.0,1.0,2901.5786240343004,4.0,1.0,phase_3,,,,,204.0,6.0,204.0,34.0,170.0,68.0,102.0,136.0,gray,diamond
0.0,7.0,3.0,1.0,7.0,4.0,1303.033672971651,4.0,1.0,phase_3,,,,,204.0,6.0,136.0,102.0,170.0,204.0,34.0,68.0,cyan,circle
0.0,1.0,1.0,0.0,7.0,3.0,1374.089295975864,4.0,1.0,phase_3,,,,,216.0,4.0,270.0,162.0,216.0,54.0,324.0,108.0,white,cross
