raw_reward_magnitude,stim_reward,stepwise_reward_magnitude,paired_with_stopping,quadrant,response,reaction_time,block,num_trial_presentations,which_part,stop_signal_trial_type,left_SSD,right_SSD,accuracy,chosen_bidding_amount,chosen_bidding_level,possible_bid_1,possible_bid_2,possible_bid_3,possible_bid_4,possible_bid_5,possible_bid_6,color_text,shape_text
398.0,8.0,4.0,1.0,4.0,4.0,418.9386032521724,1.0,1.0,part_1,,,,,,,,,,,,,orange,diamond
101.0,2.0,2.0,0.0,2.0,2.0,479.1559344157576,1.0,1.0,part_1,,,,,,,,,,,,,white,I
35.0,1.0,1.0,0.0,4.0,4.0,697.9070659726858,1.0,1.0,part_1,,,,,,,,,,,,,gray,circle
40.0,1.0,1.0,0.0,2.0,2.0,390.4725816100836,1.0,1.0,part_1,,,,,,,,,,,,,gray,circle
0.0,4.0,0.0,0.0,4.0,4.0,282.9867321997881,1.0,1.0,part_1,,,,,,,,,,,,,green,hexagon
60.0,1.0,1.0,0.0,3.0,3.0,435.6996910646558,1.0,1.0,part_1,,,,,,,,,,,,,gray,circle
0.0,5.0,0.0,1.0,1.0,1.0,430.8977974578738,1.0,1.0,part_1,,,,,,,,,,,,,yellow,triangle
214.0,7.0,3.0,1.0,1.0,1.0,324.6522806584835,1.0,1.0,part_1,,,,,,,,,,,,,cyan,flipped triangle
396.0,4.0,4.0,0.0,1.0,1.0,462.3474832624197,1.0,1.0,part_1,,,,,,,,,,,,,green,hexagon
109.0,2.0,2.0,0.0,1.0,1.0,354.8968862742185,1.0,1.0,part_1,,,,,,,,,,,,,white,I
97.0,6.0,2.0,1.0,1.0,1.0,295.575245283544,1.0,1.0,part_1,,,,,,,,,,,,,blue,cross
184.0,3.0,3.0,0.0,2.0,2.0,268.0556653067469,1.0,1.0,part_1,,,,,,,,,,,,,magenta,square
212.0,7.0,3.0,1.0,4.0,4.0,225.2990184351802,1.0,1.0,part_1,,,,,,,,,,,,,cyan,flipped triangle
214.0,7.0,3.0,1.0,1.0,1.0,253.51287703961128,1.0,1.0,part_1,,,,,,,,,,,,,cyan,flipped triangle
0.0,2.0,0.0,0.0,1.0,1.0,291.751941666007,1.0,1.0,part_1,,,,,,,,,,,,,white,I
0.0,5.0,0.0,1.0,2.0,2.0,326.9967269152403,1.0,1.0,part_1,,,,,,,,,,,,,yellow,triangle
0.0,2.0,0.0,0.0,4.0,4.0,332.0358227938413,1.0,1.0,part_1,,,,,,,,,,,,,white,I
0.0,8.0,0.0,1.0,4.0,4.0,354.641473852098,1.0,1.0,part_1,,,,,,,,,,,,,orange,diamond
103.0,6.0,2.0,1.0,3.0,3.0,350.7064031437039,1.0,1.0,part_1,,,,,,,,,,,,,blue,cross
424.0,8.0,4.0,1.0,4.0,4.0,275.1852246001363,1.0,1.0,part_1,,,,,,,,,,,,,orange,diamond
0.0,7.0,0.0,1.0,1.0,1.0,294.1811680793762,1.0,1.0,part_1,,,,,,,,,,,,,cyan,flipped triangle
43.0,5.0,1.0,1.0,3.0,3.0,474.713453091681,1.0,1.0,part_1,,,,,,,,,,,,,yellow,triangle
384.0,4.0,4.0,0.0,4.0,4.0,377.0817695185542,1.0,1.0,part_1,,,,,,,,,,,,,green,hexagon
111.0,2.0,2.0,0.0,4.0,4.0,408.2133136689663,1.0,1.0,part_1,,,,,,,,,,,,,white,I
53.0,5.0,1.0,1.0,4.0,4.0,284.1379595920443,1.0,1.0,part_1,,,,,,,,,,,,,yellow,triangle
199.0,7.0,3.0,1.0,4.0,4.0,309.7254084423184,1.0,1.0,part_1,,,,,,,,,,,,,cyan,flipped triangle
81.0,6.0,2.0,1.0,4.0,4.0,298.7739220261574,1.0,2.0,part_1,,,,,,,,,,,,,blue,cross
60.0,5.0,1.0,1.0,2.0,2.0,428.7123596295714,1.0,1.0,part_1,,,,,,,,,,,,,yellow,triangle
56.0,1.0,1.0,0.0,2.0,2.0,457.9705987125635,1.0,1.0,part_1,,,,,,,,,,,,,gray,circle
124.0,2.0,2.0,0.0,4.0,4.0,368.6646362766623,1.0,1.0,part_1,,,,,,,,,,,,,white,I
396.0,8.0,4.0,1.0,1.0,1.0,437.9089409485459,1.0,1.0,part_1,,,,,,,,,,,,,orange,diamond
391.0,8.0,4.0,1.0,2.0,2.0,385.6121320277452,1.0,1.0,part_1,,,,,,,,,,,,,orange,diamond
389.0,8.0,4.0,1.0,3.0,3.0,347.5405005738139,1.0,1.0,part_1,,,,,,,,,,,,,orange,diamond
76.0,2.0,2.0,0.0,3.0,3.0,439.6829372271895,1.0,1.0,part_1,,,,,,,,,,,,,white,I
0.0,5.0,0.0,1.0,1.0,1.0,319.3803085014224,1.0,1.0,part_1,,,,,,,,,,,,,yellow,triangle
0.0,3.0,0.0,0.0,2.0,2.0,361.0702054575085,1.0,1.0,part_1,,,,,,,,,,,,,magenta,square
185.0,3.0,3.0,0.0,2.0,2.0,336.530583910644,1.0,1.0,part_1,,,,,,,,,,,,,magenta,square
0.0,6.0,0.0,1.0,1.0,1.0,380.9420363977551,1.0,1.0,part_1,,,,,,,,,,,,,blue,cross
121.0,2.0,2.0,0.0,1.0,1.0,346.4667918160558,1.0,1.0,part_1,,,,,,,,,,,,,white,I
424.0,4.0,4.0,0.0,2.0,2.0,339.9364249780774,1.0,1.0,part_1,,,,,,,,,,,,,green,hexagon
380.0,8.0,4.0,1.0,2.0,2.0,403.5606402903795,1.0,1.0,part_1,,,,,,,,,,,,,orange,diamond
111.0,2.0,2.0,0.0,2.0,2.0,388.8608980923891,1.0,1.0,part_1,,,,,,,,,,,,,white,I
0.0,3.0,0.0,0.0,1.0,1.0,314.0914086252451,1.0,1.0,part_1,,,,,,,,,,,,,magenta,square
401.0,8.0,4.0,1.0,1.0,1.0,391.7081272229552,1.0,1.0,part_1,,,,,,,,,,,,,orange,diamond
0.0,1.0,0.0,0.0,2.0,2.0,623.0582483112812,1.0,1.0,part_1,,,,,,,,,,,,,gray,circle
411.0,4.0,4.0,0.0,3.0,3.0,403.1297005712986,1.0,1.0,part_1,,,,,,,,,,,,,green,hexagon
71.0,1.0,1.0,0.0,3.0,3.0,366.783139295876,1.0,1.0,part_1,,,,,,,,,,,,,gray,circle
0.0,7.0,0.0,1.0,4.0,4.0,397.1021631732583,1.0,1.0,part_1,,,,,,,,,,,,,cyan,flipped triangle
416.0,4.0,4.0,0.0,1.0,1.0,390.6991183757782,1.0,1.0,part_1,,,,,,,,,,,,,green,hexagon
71.0,1.0,1.0,0.0,3.0,3.0,693.6940783634782,1.0,1.0,part_1,,,,,,,,,,,,,gray,circle
199.0,3.0,3.0,0.0,4.0,4.0,353.332819417119,1.0,1.0,part_1,,,,,,,,,,,,,magenta,square
32.0,1.0,1.0,0.0,4.0,4.0,374.8774463310838,1.0,1.0,part_1,,,,,,,,,,,,,gray,circle
399.0,4.0,4.0,0.0,1.0,1.0,584.4078119844198,1.0,2.0,part_1,,,,,,,,,,,,,green,hexagon
185.0,7.0,3.0,1.0,3.0,3.0,705.9768345206976,1.0,2.0,part_1,,,,,,,,,,,,,cyan,flipped triangle
208.0,7.0,3.0,1.0,1.0,1.0,302.7395745739341,1.0,1.0,part_1,,,,,,,,,,,,,cyan,flipped triangle
196.0,7.0,3.0,1.0,2.0,2.0,376.5119398012757,1.0,1.0,part_1,,,,,,,,,,,,,cyan,flipped triangle
81.0,6.0,2.0,1.0,3.0,3.0,335.3915745392442,1.0,1.0,part_1,,,,,,,,,,,,,blue,cross
71.0,5.0,1.0,1.0,1.0,1.0,338.7157134711742,1.0,1.0,part_1,,,,,,,,,,,,,yellow,triangle
103.0,2.0,2.0,0.0,4.0,4.0,350.4312140867114,1.0,1.0,part_1,,,,,,,,,,,,,white,I
0.0,6.0,0.0,1.0,1.0,1.0,405.3289350122213,1.0,1.0,part_1,,,,,,,,,,,,,blue,cross
30.0,1.0,1.0,0.0,4.0,4.0,384.1505805030465,1.0,1.0,part_1,,,,,,,,,,,,,gray,circle
208.0,7.0,3.0,1.0,4.0,4.0,381.5303090959787,1.0,1.0,part_1,,,,,,,,,,,,,cyan,flipped triangle
50.0,1.0,1.0,0.0,4.0,4.0,396.8363748863339,1.0,1.0,part_1,,,,,,,,,,,,,gray,circle
407.0,4.0,4.0,0.0,4.0,4.0,334.5038900151849,1.0,1.0,part_1,,,,,,,,,,,,,green,hexagon
194.0,7.0,3.0,1.0,2.0,2.0,458.1923447549343,1.0,1.0,part_1,,,,,,,,,,,,,cyan,flipped triangle
113.0,2.0,2.0,0.0,1.0,1.0,345.0705055147409,1.0,1.0,part_1,,,,,,,,,,,,,white,I
0.0,5.0,0.0,1.0,1.0,1.0,422.9024946689605,1.0,1.0,part_1,,,,,,,,,,,,,yellow,triangle
0.0,4.0,0.0,0.0,3.0,3.0,347.3991826176643,1.0,1.0,part_1,,,,,,,,,,,,,green,hexagon
425.0,4.0,4.0,0.0,1.0,1.0,280.2255172282457,1.0,1.0,part_1,,,,,,,,,,,,,green,hexagon
116.0,2.0,2.0,0.0,3.0,3.0,333.5825884714722,1.0,1.0,part_1,,,,,,,,,,,,,white,I
0.0,8.0,0.0,1.0,4.0,4.0,359.4285845756531,1.0,1.0,part_1,,,,,,,,,,,,,orange,diamond
0.0,7.0,0.0,1.0,1.0,1.0,566.5451399981976,1.0,1.0,part_1,,,,,,,,,,,,,cyan,flipped triangle
420.0,4.0,4.0,0.0,2.0,2.0,586.3072080537677,1.0,1.0,part_1,,,,,,,,,,,,,green,hexagon
46.0,5.0,1.0,1.0,3.0,3.0,382.6818475499749,1.0,1.0,part_1,,,,,,,,,,,,,yellow,triangle
185.0,3.0,3.0,0.0,1.0,1.0,347.939153201878,1.0,1.0,part_1,,,,,,,,,,,,,magenta,square
80.0,6.0,2.0,1.0,4.0,4.0,465.9118382260203,1.0,1.0,part_1,,,,,,,,,,,,,blue,cross
86.0,6.0,2.0,1.0,3.0,3.0,667.7533006295562,1.0,1.0,part_1,,,,,,,,,,,,,blue,cross
180.0,7.0,3.0,1.0,1.0,1.0,866.068797186017,1.0,3.0,part_1,,,,,,,,,,,,,cyan,flipped triangle
83.0,6.0,2.0,1.0,2.0,2.0,658.4796858951449,1.0,2.0,part_1,,,,,,,,,,,,,blue,cross
421.0,4.0,4.0,0.0,2.0,2.0,991.0265672951936,1.0,1.0,part_1,,,,,,,,,,,,,green,hexagon
71.0,5.0,1.0,1.0,4.0,4.0,691.8947780504823,1.0,1.0,part_1,,,,,,,,,,,,,yellow,triangle
66.0,1.0,1.0,0.0,2.0,2.0,722.946367226541,1.0,1.0,part_1,,,,,,,,,,,,,gray,circle
385.0,4.0,4.0,0.0,2.0,2.0,613.039817661047,1.0,1.0,part_1,,,,,,,,,,,,,green,hexagon
217.0,3.0,3.0,0.0,2.0,2.0,594.395493157208,1.0,1.0,part_1,,,,,,,,,,,,,magenta,square
71.0,5.0,1.0,1.0,2.0,2.0,546.0159927606583,1.0,1.0,part_1,,,,,,,,,,,,,yellow,triangle
0.0,7.0,0.0,1.0,2.0,2.0,637.7115659415722,1.0,1.0,part_1,,,,,,,,,,,,,cyan,flipped triangle
210.0,7.0,3.0,1.0,2.0,2.0,297.8273779153824,1.0,1.0,part_1,,,,,,,,,,,,,cyan,flipped triangle
71.0,1.0,1.0,0.0,3.0,3.0,355.3170999512076,1.0,2.0,part_1,,,,,,,,,,,,,gray,circle
422.0,8.0,4.0,1.0,3.0,3.0,299.2624957114458,1.0,1.0,part_1,,,,,,,,,,,,,orange,diamond
95.0,6.0,2.0,1.0,3.0,3.0,339.1937175765633,1.0,1.0,part_1,,,,,,,,,,,,,blue,cross
0.0,4.0,0.0,0.0,4.0,4.0,359.7530638799071,1.0,1.0,part_1,,,,,,,,,,,,,green,hexagon
0.0,4.0,0.0,0.0,3.0,3.0,336.0390570014715,1.0,1.0,part_1,,,,,,,,,,,,,green,hexagon
101.0,2.0,2.0,0.0,2.0,2.0,508.37527867406607,1.0,1.0,part_1,,,,,,,,,,,,,white,I
395.0,4.0,4.0,0.0,4.0,4.0,272.6233750581741,1.0,1.0,part_1,,,,,,,,,,,,,green,hexagon
81.0,2.0,2.0,0.0,2.0,2.0,806.3209066167474,1.0,2.0,part_1,,,,,,,,,,,,,white,I
0.0,6.0,0.0,1.0,2.0,2.0,378.8774190470576,1.0,1.0,part_1,,,,,,,,,,,,,blue,cross
0.0,1.0,0.0,0.0,4.0,4.0,352.2704569622874,1.0,1.0,part_1,,,,,,,,,,,,,gray,circle
394.0,4.0,4.0,0.0,3.0,3.0,391.6957518085837,1.0,1.0,part_1,,,,,,,,,,,,,green,hexagon
0.0,6.0,0.0,1.0,2.0,2.0,386.9042992591858,1.0,1.0,part_1,,,,,,,,,,,,,blue,cross
0.0,3.0,0.0,0.0,1.0,1.0,365.8087328076362,1.0,1.0,part_1,,,,,,,,,,,,,magenta,square
66.0,5.0,1.0,1.0,2.0,2.0,487.3719429597258,2.0,1.0,part_1,,,,,,,,,,,,,yellow,triangle
52.0,5.0,1.0,1.0,3.0,3.0,363.9882998540997,2.0,1.0,part_1,,,,,,,,,,,,,yellow,triangle
422.0,4.0,4.0,0.0,1.0,1.0,759.8077580332756,2.0,1.0,part_1,,,,,,,,,,,,,green,hexagon
40.0,5.0,1.0,1.0,4.0,4.0,372.6195255294442,2.0,1.0,part_1,,,,,,,,,,,,,yellow,triangle
40.0,5.0,1.0,1.0,1.0,1.0,370.224435813725,2.0,1.0,part_1,,,,,,,,,,,,,yellow,triangle
0.0,2.0,0.0,0.0,4.0,4.0,351.236192509532,2.0,1.0,part_1,,,,,,,,,,,,,white,I
118.0,6.0,2.0,1.0,2.0,2.0,470.4674975946545,2.0,1.0,part_1,,,,,,,,,,,,,blue,cross
60.0,5.0,1.0,1.0,1.0,1.0,385.5306152254343,2.0,1.0,part_1,,,,,,,,,,,,,yellow,triangle
208.0,3.0,3.0,0.0,2.0,2.0,477.1339492872357,2.0,1.0,part_1,,,,,,,,,,,,,magenta,square
417.0,8.0,4.0,1.0,4.0,4.0,313.4738598018884,2.0,1.0,part_1,,,,,,,,,,,,,orange,diamond
87.0,2.0,2.0,0.0,2.0,2.0,359.9072759971022,2.0,1.0,part_1,,,,,,,,,,,,,white,I
180.0,7.0,3.0,1.0,4.0,4.0,412.68699336797,2.0,1.0,part_1,,,,,,,,,,,,,cyan,flipped triangle
204.0,7.0,3.0,1.0,2.0,2.0,289.4779527559876,2.0,1.0,part_1,,,,,,,,,,,,,cyan,flipped triangle
375.0,4.0,4.0,0.0,3.0,3.0,365.59515632689,2.0,1.0,part_1,,,,,,,,,,,,,green,hexagon
193.0,3.0,3.0,0.0,1.0,1.0,328.1979141756892,2.0,1.0,part_1,,,,,,,,,,,,,magenta,square
106.0,2.0,2.0,0.0,3.0,3.0,301.1587569490075,2.0,1.0,part_1,,,,,,,,,,,,,white,I
203.0,3.0,3.0,0.0,2.0,2.0,371.0180092602968,2.0,1.0,part_1,,,,,,,,,,,,,magenta,square
391.0,4.0,4.0,0.0,1.0,1.0,401.1324010789394,2.0,1.0,part_1,,,,,,,,,,,,,green,hexagon
393.0,8.0,4.0,1.0,3.0,3.0,326.0208731517195,2.0,1.0,part_1,,,,,,,,,,,,,orange,diamond
28.0,1.0,1.0,0.0,2.0,2.0,352.4846378713846,2.0,1.0,part_1,,,,,,,,,,,,,gray,circle
121.0,6.0,2.0,1.0,1.0,1.0,348.4429661184549,2.0,1.0,part_1,,,,,,,,,,,,,blue,cross
384.0,8.0,4.0,1.0,3.0,3.0,404.3593602254987,2.0,1.0,part_1,,,,,,,,,,,,,orange,diamond
208.0,3.0,3.0,0.0,1.0,1.0,473.5447308048606,2.0,1.0,part_1,,,,,,,,,,,,,magenta,square
30.0,5.0,1.0,1.0,1.0,1.0,341.100450605154,2.0,1.0,part_1,,,,,,,,,,,,,yellow,triangle
50.0,5.0,1.0,1.0,2.0,2.0,386.9620114564895,2.0,1.0,part_1,,,,,,,,,,,,,yellow,triangle
53.0,1.0,1.0,0.0,2.0,2.0,436.8789782747626,2.0,1.0,part_1,,,,,,,,,,,,,gray,circle
215.0,3.0,3.0,0.0,3.0,3.0,360.8364816755056,2.0,1.0,part_1,,,,,,,,,,,,,magenta,square
0.0,5.0,0.0,1.0,2.0,2.0,429.1863851249218,2.0,1.0,part_1,,,,,,,,,,,,,yellow,triangle
45.0,1.0,1.0,0.0,1.0,1.0,388.0734909325838,2.0,1.0,part_1,,,,,,,,,,,,,gray,circle
43.0,5.0,1.0,1.0,1.0,1.0,334.6930770203471,2.0,1.0,part_1,,,,,,,,,,,,,yellow,triangle
86.0,2.0,2.0,0.0,3.0,3.0,342.4263754859566,2.0,1.0,part_1,,,,,,,,,,,,,white,I
111.0,6.0,2.0,1.0,1.0,1.0,474.3188256397843,2.0,1.0,part_1,,,,,,,,,,,,,blue,cross
177.0,7.0,3.0,1.0,3.0,3.0,367.5291128456592,2.0,1.0,part_1,,,,,,,,,,,,,cyan,flipped triangle
0.0,6.0,0.0,1.0,1.0,1.0,369.7006972506642,2.0,1.0,part_1,,,,,,,,,,,,,blue,cross
185.0,7.0,3.0,1.0,1.0,1.0,464.4414307549596,2.0,1.0,part_1,,,,,,,,,,,,,cyan,flipped triangle
78.0,2.0,2.0,0.0,1.0,1.0,443.0057732388377,2.0,1.0,part_1,,,,,,,,,,,,,white,I
0.0,6.0,0.0,1.0,1.0,1.0,672.7193277329206,2.0,1.0,part_1,,,,,,,,,,,,,blue,cross
196.0,3.0,3.0,0.0,4.0,4.0,396.8675713986158,2.0,1.0,part_1,,,,,,,,,,,,,magenta,square
74.0,1.0,1.0,0.0,4.0,4.0,324.9840224161744,2.0,1.0,part_1,,,,,,,,,,,,,gray,circle
26.0,5.0,1.0,1.0,1.0,1.0,293.1201970204711,2.0,1.0,part_1,,,,,,,,,,,,,yellow,triangle
69.0,5.0,1.0,1.0,3.0,3.0,301.6452686861157,2.0,1.0,part_1,,,,,,,,,,,,,yellow,triangle
0.0,8.0,0.0,1.0,3.0,3.0,303.7119098007679,2.0,1.0,part_1,,,,,,,,,,,,,orange,diamond
0.0,6.0,0.0,1.0,4.0,4.0,315.6347181648016,2.0,1.0,part_1,,,,,,,,,,,,,blue,cross
0.0,7.0,0.0,1.0,2.0,2.0,328.367087058723,2.0,1.0,part_1,,,,,,,,,,,,,cyan,flipped triangle
210.0,3.0,3.0,0.0,3.0,3.0,304.0558379143476,2.0,1.0,part_1,,,,,,,,,,,,,magenta,square
115.0,2.0,2.0,0.0,2.0,2.0,417.814027518034,2.0,1.0,part_1,,,,,,,,,,,,,white,I
0.0,3.0,0.0,0.0,2.0,2.0,312.1490310877561,2.0,1.0,part_1,,,,,,,,,,,,,magenta,square
75.0,6.0,2.0,1.0,2.0,2.0,308.6073705926537,2.0,1.0,part_1,,,,,,,,,,,,,blue,cross
108.0,2.0,2.0,0.0,3.0,3.0,295.6382371485233,2.0,1.0,part_1,,,,,,,,,,,,,white,I
56.0,5.0,1.0,1.0,3.0,3.0,316.5058195590973,2.0,1.0,part_1,,,,,,,,,,,,,yellow,triangle
212.0,3.0,3.0,0.0,3.0,3.0,331.2130607664585,2.0,1.0,part_1,,,,,,,,,,,,,magenta,square
198.0,3.0,3.0,0.0,1.0,1.0,375.6184550002217,2.0,1.0,part_1,,,,,,,,,,,,,magenta,square
417.0,8.0,4.0,1.0,2.0,2.0,339.7828508168459,2.0,1.0,part_1,,,,,,,,,,,,,orange,diamond
39.0,5.0,1.0,1.0,2.0,2.0,584.6544029191136,2.0,1.0,part_1,,,,,,,,,,,,,yellow,triangle
101.0,6.0,2.0,1.0,1.0,1.0,395.7557072862983,2.0,2.0,part_1,,,,,,,,,,,,,blue,cross
180.0,3.0,3.0,0.0,3.0,3.0,534.1789918020368,2.0,1.0,part_1,,,,,,,,,,,,,magenta,square
73.0,5.0,1.0,1.0,2.0,2.0,395.7087630406022,2.0,1.0,part_1,,,,,,,,,,,,,yellow,triangle
194.0,7.0,3.0,1.0,3.0,3.0,326.3427913188934,2.0,1.0,part_1,,,,,,,,,,,,,cyan,flipped triangle
222.0,7.0,3.0,1.0,2.0,2.0,294.7521936148405,2.0,1.0,part_1,,,,,,,,,,,,,cyan,flipped triangle
71.0,1.0,1.0,0.0,2.0,2.0,383.5225813090801,2.0,1.0,part_1,,,,,,,,,,,,,gray,circle
394.0,8.0,4.0,1.0,2.0,2.0,709.0688077732921,2.0,1.0,part_1,,,,,,,,,,,,,orange,diamond
40.0,1.0,1.0,0.0,1.0,1.0,525.0489106401801,2.0,1.0,part_1,,,,,,,,,,,,,gray,circle
0.0,4.0,0.0,0.0,3.0,3.0,294.2117126658559,2.0,1.0,part_1,,,,,,,,,,,,,green,hexagon
108.0,2.0,2.0,0.0,2.0,2.0,341.7628752067685,2.0,1.0,part_1,,,,,,,,,,,,,white,I
0.0,8.0,0.0,1.0,2.0,2.0,456.1281111091375,2.0,1.0,part_1,,,,,,,,,,,,,orange,diamond
176.0,3.0,3.0,0.0,3.0,3.0,292.5515240058303,2.0,1.0,part_1,,,,,,,,,,,,,magenta,square
212.0,7.0,3.0,1.0,3.0,3.0,392.6483048126101,2.0,1.0,part_1,,,,,,,,,,,,,cyan,flipped triangle
176.0,7.0,3.0,1.0,3.0,3.0,311.333161778748,2.0,1.0,part_1,,,,,,,,,,,,,cyan,flipped triangle
417.0,4.0,4.0,0.0,2.0,2.0,329.6503396704793,2.0,1.0,part_1,,,,,,,,,,,,,green,hexagon
417.0,8.0,4.0,1.0,3.0,3.0,288.7082695960998,2.0,1.0,part_1,,,,,,,,,,,,,orange,diamond
0.0,1.0,0.0,0.0,3.0,3.0,332.4874304234981,2.0,1.0,part_1,,,,,,,,,,,,,gray,circle
49.0,1.0,1.0,0.0,3.0,3.0,339.3575418740511,2.0,1.0,part_1,,,,,,,,,,,,,gray,circle
49.0,5.0,1.0,1.0,2.0,2.0,316.964709199965,2.0,1.0,part_1,,,,,,,,,,,,,yellow,triangle
0.0,8.0,0.0,1.0,3.0,3.0,276.0445084422827,2.0,1.0,part_1,,,,,,,,,,,,,orange,diamond
95.0,2.0,2.0,0.0,1.0,1.0,327.4981752038002,2.0,1.0,part_1,,,,,,,,,,,,,white,I
0.0,1.0,0.0,0.0,4.0,4.0,555.6046655401587,2.0,1.0,part_1,,,,,,,,,,,,,gray,circle
111.0,6.0,2.0,1.0,3.0,3.0,303.4351486712694,2.0,1.0,part_1,,,,,,,,,,,,,blue,cross
26.0,1.0,1.0,0.0,4.0,4.0,469.885959289968,2.0,1.0,part_1,,,,,,,,,,,,,gray,circle
0.0,5.0,0.0,1.0,1.0,1.0,424.6281525120139,2.0,1.0,part_1,,,,,,,,,,,,,yellow,triangle
35.0,5.0,1.0,1.0,4.0,4.0,423.78322314471,2.0,1.0,part_1,,,,,,,,,,,,,yellow,triangle
45.0,5.0,1.0,1.0,3.0,3.0,293.8537169247865,2.0,1.0,part_1,,,,,,,,,,,,,yellow,triangle
80.0,2.0,2.0,0.0,4.0,4.0,426.1665930971503,2.0,1.0,part_1,,,,,,,,,,,,,white,I
104.0,2.0,2.0,0.0,4.0,4.0,399.5326049625873,2.0,1.0,part_1,,,,,,,,,,,,,white,I
399.0,8.0,4.0,1.0,1.0,1.0,521.027198061347,2.0,1.0,part_1,,,,,,,,,,,,,orange,diamond
108.0,6.0,2.0,1.0,2.0,2.0,518.2173708453774,2.0,1.0,part_1,,,,,,,,,,,,,blue,cross
215.0,7.0,3.0,1.0,2.0,2.0,444.6900086477399,2.0,1.0,part_1,,,,,,,,,,,,,cyan,flipped triangle
104.0,6.0,2.0,1.0,4.0,4.0,392.9334068670869,2.0,1.0,part_1,,,,,,,,,,,,,blue,cross
0.0,1.0,0.0,0.0,3.0,3.0,364.333744160831,2.0,1.0,part_1,,,,,,,,,,,,,gray,circle
39.0,5.0,1.0,1.0,4.0,4.0,386.8427444249391,2.0,1.0,part_1,,,,,,,,,,,,,yellow,triangle
405.0,4.0,4.0,0.0,4.0,4.0,396.5581161901355,2.0,1.0,part_1,,,,,,,,,,,,,green,hexagon
407.0,8.0,4.0,1.0,3.0,3.0,308.1010868772864,2.0,1.0,part_1,,,,,,,,,,,,,orange,diamond
37.0,5.0,1.0,1.0,2.0,2.0,417.101320810616,2.0,1.0,part_1,,,,,,,,,,,,,yellow,triangle
76.0,6.0,2.0,1.0,4.0,4.0,338.485156185925,2.0,1.0,part_1,,,,,,,,,,,,,blue,cross
412.0,8.0,4.0,1.0,1.0,1.0,303.8405040279031,2.0,1.0,part_1,,,,,,,,,,,,,orange,diamond
417.0,4.0,4.0,0.0,2.0,2.0,412.0115023106336,2.0,1.0,part_1,,,,,,,,,,,,,green,hexagon
217.0,7.0,3.0,1.0,4.0,4.0,353.9684545248747,2.0,1.0,part_1,,,,,,,,,,,,,cyan,flipped triangle
0.0,6.0,0.0,1.0,4.0,4.0,368.702226318419,2.0,1.0,part_1,,,,,,,,,,,,,blue,cross
0.0,1.0,0.0,0.0,4.0,4.0,438.1945207715034,2.0,1.0,part_1,,,,,,,,,,,,,gray,circle
0.0,1.0,0.0,0.0,4.0,4.0,360.682307742536,2.0,1.0,part_1,,,,,,,,,,,,,gray,circle
0.0,5.0,0.0,1.0,4.0,4.0,358.6281165480613,2.0,1.0,part_1,,,,,,,,,,,,,yellow,triangle
0.0,1.0,0.0,0.0,1.0,1.0,687.0141932740808,3.0,1.0,part_1,,,,,,,,,,,,,gray,circle
223.0,7.0,3.0,1.0,1.0,1.0,469.9967773631215,3.0,1.0,part_1,,,,,,,,,,,,,cyan,flipped triangle
32.0,5.0,1.0,1.0,4.0,4.0,347.8403137996793,3.0,1.0,part_1,,,,,,,,,,,,,yellow,triangle
403.0,8.0,4.0,1.0,2.0,2.0,311.9767531752586,3.0,1.0,part_1,,,,,,,,,,,,,orange,diamond
389.0,4.0,4.0,0.0,1.0,1.0,322.8822629898786,3.0,1.0,part_1,,,,,,,,,,,,,green,hexagon
0.0,3.0,0.0,0.0,4.0,4.0,383.7973969057202,3.0,1.0,part_1,,,,,,,,,,,,,magenta,square
52.0,5.0,1.0,1.0,3.0,3.0,355.3343592211604,3.0,1.0,part_1,,,,,,,,,,,,,yellow,triangle
209.0,3.0,3.0,0.0,1.0,1.0,360.3660957887769,3.0,1.0,part_1,,,,,,,,,,,,,magenta,square
218.0,3.0,3.0,0.0,2.0,2.0,366.578041575849,3.0,1.0,part_1,,,,,,,,,,,,,magenta,square
380.0,4.0,4.0,0.0,4.0,4.0,308.4799321368336,3.0,1.0,part_1,,,,,,,,,,,,,green,hexagon
0.0,7.0,0.0,1.0,4.0,4.0,353.0603088438511,3.0,1.0,part_1,,,,,,,,,,,,,cyan,flipped triangle
194.0,3.0,3.0,0.0,4.0,4.0,318.0020619183779,3.0,1.0,part_1,,,,,,,,,,,,,magenta,square
397.0,4.0,4.0,0.0,2.0,2.0,360.933743417263,3.0,1.0,part_1,,,,,,,,,,,,,green,hexagon
0.0,2.0,0.0,0.0,1.0,1.0,333.2238374277949,3.0,1.0,part_1,,,,,,,,,,,,,white,I
214.0,3.0,3.0,0.0,3.0,3.0,345.1263820752501,3.0,1.0,part_1,,,,,,,,,,,,,magenta,square
99.0,2.0,2.0,0.0,3.0,3.0,340.6349765136838,3.0,1.0,part_1,,,,,,,,,,,,,white,I
43.0,1.0,1.0,0.0,1.0,1.0,355.6545134633779,3.0,1.0,part_1,,,,,,,,,,,,,gray,circle
178.0,7.0,3.0,1.0,2.0,2.0,391.2505973130464,3.0,1.0,part_1,,,,,,,,,,,,,cyan,flipped triangle
94.0,6.0,2.0,1.0,3.0,3.0,390.6292049214244,3.0,1.0,part_1,,,,,,,,,,,,,blue,cross
408.0,4.0,4.0,0.0,4.0,4.0,355.5518742650747,3.0,1.0,part_1,,,,,,,,,,,,,green,hexagon
97.0,2.0,2.0,0.0,3.0,3.0,709.1802870854735,3.0,1.0,part_1,,,,,,,,,,,,,white,I
90.0,2.0,2.0,0.0,4.0,4.0,385.5235297232866,3.0,1.0,part_1,,,,,,,,,,,,,white,I
0.0,2.0,0.0,0.0,1.0,1.0,389.4514385610819,3.0,1.0,part_1,,,,,,,,,,,,,white,I
28.0,5.0,1.0,1.0,3.0,3.0,374.4245758280158,3.0,1.0,part_1,,,,,,,,,,,,,yellow,triangle
388.0,4.0,4.0,0.0,2.0,2.0,417.3089219257235,3.0,1.0,part_1,,,,,,,,,,,,,green,hexagon
383.0,8.0,4.0,1.0,2.0,2.0,397.6603290066123,3.0,1.0,part_1,,,,,,,,,,,,,orange,diamond
377.0,8.0,4.0,1.0,4.0,4.0,380.1299501210451,3.0,1.0,part_1,,,,,,,,,,,,,orange,diamond
396.0,4.0,4.0,0.0,3.0,3.0,357.0075118914246,3.0,1.0,part_1,,,,,,,,,,,,,green,hexagon
210.0,3.0,3.0,0.0,1.0,1.0,515.5386729165912,3.0,1.0,part_1,,,,,,,,,,,,,magenta,square
111.0,2.0,2.0,0.0,3.0,3.0,503.00564616918564,3.0,1.0,part_1,,,,,,,,,,,,,white,I
177.0,7.0,3.0,1.0,1.0,1.0,452.6632186025381,3.0,1.0,part_1,,,,,,,,,,,,,cyan,flipped triangle
208.0,3.0,3.0,0.0,4.0,4.0,376.1605331674218,3.0,1.0,part_1,,,,,,,,,,,,,magenta,square
60.0,1.0,1.0,0.0,1.0,1.0,357.0212824270129,3.0,1.0,part_1,,,,,,,,,,,,,gray,circle
87.0,6.0,2.0,1.0,4.0,4.0,368.8536379486322,3.0,1.0,part_1,,,,,,,,,,,,,blue,cross
184.0,7.0,3.0,1.0,4.0,4.0,336.8369117379188,3.0,1.0,part_1,,,,,,,,,,,,,cyan,flipped triangle
41.0,5.0,1.0,1.0,1.0,1.0,290.2632849290967,3.0,1.0,part_1,,,,,,,,,,,,,yellow,triangle
397.0,8.0,4.0,1.0,3.0,3.0,280.82434553653,3.0,1.0,part_1,,,,,,,,,,,,,orange,diamond
52.0,1.0,1.0,0.0,4.0,4.0,424.3401009589433,3.0,1.0,part_1,,,,,,,,,,,,,gray,circle
208.0,7.0,3.0,1.0,4.0,4.0,322.4844252690673,3.0,1.0,part_1,,,,,,,,,,,,,cyan,flipped triangle
0.0,3.0,0.0,0.0,4.0,4.0,317.9199248552322,3.0,1.0,part_1,,,,,,,,,,,,,magenta,square
212.0,3.0,3.0,0.0,4.0,4.0,315.4135989025235,3.0,1.0,part_1,,,,,,,,,,,,,magenta,square
194.0,3.0,3.0,0.0,2.0,2.0,442.206279374659,3.0,1.0,part_1,,,,,,,,,,,,,magenta,square
114.0,6.0,2.0,1.0,4.0,4.0,294.8849787935614,3.0,1.0,part_1,,,,,,,,,,,,,blue,cross
214.0,3.0,3.0,0.0,1.0,1.0,539.9869177490473,3.0,1.0,part_1,,,,,,,,,,,,,magenta,square
58.0,5.0,1.0,1.0,1.0,1.0,333.5549682378769,3.0,1.0,part_1,,,,,,,,,,,,,yellow,triangle
94.0,2.0,2.0,0.0,2.0,2.0,457.9971618950367,3.0,1.0,part_1,,,,,,,,,,,,,white,I
0.0,2.0,0.0,0.0,4.0,4.0,310.7093814760446,3.0,1.0,part_1,,,,,,,,,,,,,white,I
398.0,4.0,4.0,0.0,4.0,4.0,363.5333320125937,3.0,1.0,part_1,,,,,,,,,,,,,green,hexagon
180.0,3.0,3.0,0.0,2.0,2.0,489.8926932364702,3.0,1.0,part_1,,,,,,,,,,,,,magenta,square
194.0,7.0,3.0,1.0,2.0,2.0,380.2631152793765,3.0,1.0,part_1,,,,,,,,,,,,,cyan,flipped triangle
56.0,5.0,1.0,1.0,2.0,2.0,339.5526967942714,3.0,1.0,part_1,,,,,,,,,,,,,yellow,triangle
0.0,5.0,0.0,1.0,3.0,3.0,352.6044460013509,3.0,1.0,part_1,,,,,,,,,,,,,yellow,triangle
411.0,8.0,4.0,1.0,3.0,3.0,334.0773023664951,3.0,1.0,part_1,,,,,,,,,,,,,orange,diamond
377.0,4.0,4.0,0.0,3.0,3.0,346.0127655416727,3.0,1.0,part_1,,,,,,,,,,,,,green,hexagon
383.0,4.0,4.0,0.0,3.0,3.0,356.2129838392138,3.0,1.0,part_1,,,,,,,,,,,,,green,hexagon
0.0,4.0,0.0,0.0,3.0,3.0,297.0039052888751,3.0,1.0,part_1,,,,,,,,,,,,,green,hexagon
425.0,8.0,4.0,1.0,4.0,4.0,326.4399683102965,3.0,1.0,part_1,,,,,,,,,,,,,orange,diamond
222.0,3.0,3.0,0.0,1.0,1.0,465.7285818830132,3.0,1.0,part_1,,,,,,,,,,,,,magenta,square
421.0,8.0,4.0,1.0,2.0,2.0,325.9323909878731,3.0,1.0,part_1,,,,,,,,,,,,,orange,diamond
417.0,4.0,4.0,0.0,4.0,4.0,317.6167383790016,3.0,1.0,part_1,,,,,,,,,,,,,green,hexagon
103.0,6.0,2.0,1.0,3.0,3.0,322.1256006509065,3.0,1.0,part_1,,,,,,,,,,,,,blue,cross
94.0,6.0,2.0,1.0,4.0,4.0,871.3387288153172,3.0,1.0,part_1,,,,,,,,,,,,,blue,cross
184.0,7.0,3.0,1.0,4.0,4.0,409.5108211040497,3.0,1.0,part_1,,,,,,,,,,,,,cyan,flipped triangle
417.0,4.0,4.0,0.0,3.0,3.0,294.2072628065943,3.0,1.0,part_1,,,,,,,,,,,,,green,hexagon
83.0,2.0,2.0,0.0,4.0,4.0,322.5600672885775,3.0,1.0,part_1,,,,,,,,,,,,,white,I
45.0,1.0,1.0,0.0,1.0,1.0,599.1687793284655,3.0,1.0,part_1,,,,,,,,,,,,,gray,circle
0.0,6.0,0.0,1.0,3.0,3.0,471.6986641287803,3.0,1.0,part_1,,,,,,,,,,,,,blue,cross
118.0,2.0,2.0,0.0,1.0,1.0,448.1255020946264,3.0,1.0,part_1,,,,,,,,,,,,,white,I
45.0,5.0,1.0,1.0,1.0,1.0,412.98941243439907,3.0,1.0,part_1,,,,,,,,,,,,,yellow,triangle
118.0,2.0,2.0,0.0,2.0,2.0,385.6297070160508,3.0,1.0,part_1,,,,,,,,,,,,,white,I
91.0,2.0,2.0,0.0,1.0,1.0,319.9364384636283,3.0,1.0,part_1,,,,,,,,,,,,,white,I
212.0,3.0,3.0,0.0,4.0,4.0,339.2878323793411,3.0,1.0,part_1,,,,,,,,,,,,,magenta,square
30.0,1.0,1.0,0.0,1.0,1.0,386.9432304054498,3.0,1.0,part_1,,,,,,,,,,,,,gray,circle
116.0,6.0,2.0,1.0,1.0,1.0,420.3400006517768,3.0,1.0,part_1,,,,,,,,,,,,,blue,cross
0.0,7.0,0.0,1.0,3.0,3.0,340.0021959096193,3.0,1.0,part_1,,,,,,,,,,,,,cyan,flipped triangle
210.0,7.0,3.0,1.0,1.0,1.0,304.1107300668955,3.0,1.0,part_1,,,,,,,,,,,,,cyan,flipped triangle
0.0,5.0,0.0,1.0,3.0,3.0,267.5759382545948,3.0,1.0,part_1,,,,,,,,,,,,,yellow,triangle
0.0,8.0,0.0,1.0,3.0,3.0,376.9244011491537,3.0,1.0,part_1,,,,,,,,,,,,,orange,diamond
0.0,8.0,0.0,1.0,4.0,4.0,388.0182215943932,3.0,1.0,part_1,,,,,,,,,,,,,orange,diamond
390.0,4.0,4.0,0.0,1.0,1.0,433.21741931140417,3.0,1.0,part_1,,,,,,,,,,,,,green,hexagon
73.0,1.0,1.0,0.0,3.0,3.0,353.2978603616357,3.0,1.0,part_1,,,,,,,,,,,,,gray,circle
377.0,4.0,4.0,0.0,3.0,3.0,777.7183512225747,3.0,1.0,part_1,,,,,,,,,,,,,green,hexagon
26.0,5.0,1.0,1.0,1.0,1.0,386.7098139598965,3.0,1.0,part_1,,,,,,,,,,,,,yellow,triangle
75.0,2.0,2.0,0.0,4.0,4.0,382.5110821053386,3.0,1.0,part_1,,,,,,,,,,,,,white,I
194.0,3.0,3.0,0.0,2.0,2.0,377.2867163643241,3.0,1.0,part_1,,,,,,,,,,,,,magenta,square
178.0,3.0,3.0,0.0,3.0,3.0,317.4967328086495,3.0,1.0,part_1,,,,,,,,,,,,,magenta,square
390.0,8.0,4.0,1.0,4.0,4.0,372.2462831065058,3.0,1.0,part_1,,,,,,,,,,,,,orange,diamond
97.0,6.0,2.0,1.0,2.0,2.0,298.012644983828,3.0,1.0,part_1,,,,,,,,,,,,,blue,cross
35.0,5.0,1.0,1.0,4.0,4.0,299.7151901945472,3.0,1.0,part_1,,,,,,,,,,,,,yellow,triangle
114.0,2.0,2.0,0.0,2.0,2.0,473.8129079341888,3.0,1.0,part_1,,,,,,,,,,,,,white,I
219.0,3.0,3.0,0.0,3.0,3.0,405.1617924124002,3.0,1.0,part_1,,,,,,,,,,,,,magenta,square
378.0,4.0,4.0,0.0,1.0,1.0,416.6037794202566,3.0,1.0,part_1,,,,,,,,,,,,,green,hexagon
387.0,4.0,4.0,0.0,2.0,2.0,417.5125248730182,3.0,1.0,part_1,,,,,,,,,,,,,green,hexagon
378.0,8.0,4.0,1.0,1.0,1.0,442.0366743579507,3.0,1.0,part_1,,,,,,,,,,,,,orange,diamond
393.0,4.0,4.0,0.0,3.0,3.0,319.7685396298766,3.0,1.0,part_1,,,,,,,,,,,,,green,hexagon
209.0,7.0,3.0,1.0,3.0,3.0,323.7272873520851,3.0,1.0,part_1,,,,,,,,,,,,,cyan,flipped triangle
191.0,3.0,3.0,0.0,4.0,4.0,354.0895655751228,3.0,1.0,part_1,,,,,,,,,,,,,magenta,square
377.0,8.0,4.0,1.0,3.0,3.0,295.0836969539523,3.0,1.0,part_1,,,,,,,,,,,,,orange,diamond
218.0,7.0,3.0,1.0,4.0,4.0,321.8499701470136,3.0,1.0,part_1,,,,,,,,,,,,,cyan,flipped triangle
115.0,6.0,2.0,1.0,2.0,2.0,358.4483060985803,3.0,1.0,part_1,,,,,,,,,,,,,blue,cross
215.0,3.0,3.0,0.0,3.0,3.0,327.5572527199983,4.0,1.0,part_1,,,,,,,,,,,,,magenta,square
109.0,6.0,2.0,1.0,1.0,1.0,331.9604313001036,4.0,1.0,part_1,,,,,,,,,,,,,blue,cross
401.0,8.0,4.0,1.0,2.0,2.0,359.54186972230667,4.0,1.0,part_1,,,,,,,,,,,,,orange,diamond
198.0,7.0,3.0,1.0,1.0,1.0,527.4880090728402,4.0,1.0,part_1,,,,,,,,,,,,,cyan,flipped triangle
35.0,1.0,1.0,0.0,2.0,2.0,418.0936552584171,4.0,1.0,part_1,,,,,,,,,,,,,gray,circle
416.0,8.0,4.0,1.0,1.0,1.0,326.0366236791014,4.0,1.0,part_1,,,,,,,,,,,,,orange,diamond
94.0,2.0,2.0,0.0,3.0,3.0,340.6180096790194,4.0,1.0,part_1,,,,,,,,,,,,,white,I
215.0,7.0,3.0,1.0,2.0,2.0,386.3911814987659,4.0,1.0,part_1,,,,,,,,,,,,,cyan,flipped triangle
388.0,8.0,4.0,1.0,2.0,2.0,339.7644171491265,4.0,1.0,part_1,,,,,,,,,,,,,orange,diamond
375.0,8.0,4.0,1.0,1.0,1.0,377.3932587355375,4.0,1.0,part_1,,,,,,,,,,,,,orange,diamond
123.0,2.0,2.0,0.0,4.0,4.0,473.3135364949703,4.0,1.0,part_1,,,,,,,,,,,,,white,I
401.0,4.0,4.0,0.0,2.0,2.0,385.4586454108357,4.0,1.0,part_1,,,,,,,,,,,,,green,hexagon
123.0,6.0,2.0,1.0,2.0,2.0,361.8707861751318,4.0,1.0,part_1,,,,,,,,,,,,,blue,cross
0.0,1.0,0.0,0.0,1.0,1.0,404.1552217677235,4.0,1.0,part_1,,,,,,,,,,,,,gray,circle
30.0,5.0,1.0,1.0,4.0,4.0,314.23731427639717,4.0,1.0,part_1,,,,,,,,,,,,,yellow,triangle
0.0,2.0,0.0,0.0,1.0,1.0,392.8399970754981,4.0,1.0,part_1,,,,,,,,,,,,,white,I
43.0,1.0,1.0,0.0,4.0,4.0,338.1898077204823,4.0,1.0,part_1,,,,,,,,,,,,,gray,circle
0.0,4.0,0.0,0.0,1.0,1.0,342.6224989816546,4.0,1.0,part_1,,,,,,,,,,,,,green,hexagon
41.0,1.0,1.0,0.0,2.0,2.0,324.8437540605664,4.0,1.0,part_1,,,,,,,,,,,,,gray,circle
58.0,1.0,1.0,0.0,2.0,2.0,351.4096327126026,4.0,1.0,part_1,,,,,,,,,,,,,gray,circle
0.0,1.0,0.0,0.0,4.0,4.0,268.6691358685493,4.0,1.0,part_1,,,,,,,,,,,,,gray,circle
420.0,8.0,4.0,1.0,4.0,4.0,338.7969257310033,4.0,1.0,part_1,,,,,,,,,,,,,orange,diamond
189.0,3.0,3.0,0.0,2.0,2.0,374.3185298517346,4.0,1.0,part_1,,,,,,,,,,,,,magenta,square
76.0,6.0,2.0,1.0,2.0,2.0,354.2876569554209,4.0,1.0,part_1,,,,,,,,,,,,,blue,cross
108.0,6.0,2.0,1.0,2.0,2.0,297.7488040924072,4.0,1.0,part_1,,,,,,,,,,,,,blue,cross
101.0,6.0,2.0,1.0,3.0,3.0,311.0041311010718,4.0,1.0,part_1,,,,,,,,,,,,,blue,cross
0.0,8.0,0.0,1.0,1.0,1.0,336.1094379797578,4.0,1.0,part_1,,,,,,,,,,,,,orange,diamond
0.0,3.0,0.0,0.0,2.0,2.0,303.193018771708,4.0,1.0,part_1,,,,,,,,,,,,,magenta,square
403.0,4.0,4.0,0.0,4.0,4.0,429.4598242267966,4.0,1.0,part_1,,,,,,,,,,,,,green,hexagon
189.0,7.0,3.0,1.0,1.0,1.0,315.2572913095355,4.0,2.0,part_1,,,,,,,,,,,,,cyan,flipped triangle
57.0,1.0,1.0,0.0,1.0,1.0,401.8869493156671,4.0,1.0,part_1,,,,,,,,,,,,,gray,circle
26.0,1.0,1.0,0.0,1.0,1.0,431.6061744466424,4.0,1.0,part_1,,,,,,,,,,,,,gray,circle
0.0,3.0,0.0,0.0,4.0,4.0,353.0408935621381,4.0,1.0,part_1,,,,,,,,,,,,,magenta,square
401.0,4.0,4.0,0.0,4.0,4.0,304.441787302494,4.0,1.0,part_1,,,,,,,,,,,,,green,hexagon
76.0,2.0,2.0,0.0,1.0,1.0,411.0821755602956,4.0,1.0,part_1,,,,,,,,,,,,,white,I
203.0,7.0,3.0,1.0,3.0,3.0,419.2383298650384,4.0,1.0,part_1,,,,,,,,,,,,,cyan,flipped triangle
81.0,2.0,2.0,0.0,1.0,1.0,275.5680726841092,4.0,1.0,part_1,,,,,,,,,,,,,white,I
0.0,8.0,0.0,1.0,1.0,1.0,459.6167141571641,4.0,1.0,part_1,,,,,,,,,,,,,orange,diamond
198.0,7.0,3.0,1.0,3.0,3.0,349.1910342127085,4.0,1.0,part_1,,,,,,,,,,,,,cyan,flipped triangle
405.0,8.0,4.0,1.0,4.0,4.0,357.9262048006058,4.0,1.0,part_1,,,,,,,,,,,,,orange,diamond
104.0,2.0,2.0,0.0,3.0,3.0,378.7901643663645,4.0,1.0,part_1,,,,,,,,,,,,,white,I
37.0,1.0,1.0,0.0,1.0,1.0,357.352695427835,4.0,1.0,part_1,,,,,,,,,,,,,gray,circle
52.0,1.0,1.0,0.0,3.0,3.0,353.7342231720686,4.0,1.0,part_1,,,,,,,,,,,,,gray,circle
0.0,2.0,0.0,0.0,2.0,2.0,373.0859542265534,4.0,1.0,part_1,,,,,,,,,,,,,white,I
72.0,5.0,1.0,1.0,3.0,3.0,315.1827622205019,4.0,1.0,part_1,,,,,,,,,,,,,yellow,triangle
385.0,8.0,4.0,1.0,4.0,4.0,425.652896054089,4.0,1.0,part_1,,,,,,,,,,,,,orange,diamond
39.0,1.0,1.0,0.0,4.0,4.0,397.3406599834561,4.0,1.0,part_1,,,,,,,,,,,,,gray,circle
212.0,7.0,3.0,1.0,3.0,3.0,266.2689173594117,4.0,1.0,part_1,,,,,,,,,,,,,cyan,flipped triangle
193.0,7.0,3.0,1.0,2.0,2.0,350.6937772035599,4.0,1.0,part_1,,,,,,,,,,,,,cyan,flipped triangle
106.0,6.0,2.0,1.0,1.0,1.0,408.5716614499688,4.0,1.0,part_1,,,,,,,,,,,,,blue,cross
417.0,8.0,4.0,1.0,1.0,1.0,409.2905670404434,4.0,1.0,part_1,,,,,,,,,,,,,orange,diamond
103.0,2.0,2.0,0.0,4.0,4.0,366.2452241405844,4.0,1.0,part_1,,,,,,,,,,,,,white,I
46.0,1.0,1.0,0.0,3.0,3.0,400.8433297276497,4.0,1.0,part_1,,,,,,,,,,,,,gray,circle
396.0,8.0,4.0,1.0,1.0,1.0,563.4325221180916,4.0,1.0,part_1,,,,,,,,,,,,,orange,diamond
385.0,8.0,4.0,1.0,2.0,2.0,360.6415316462517,4.0,1.0,part_1,,,,,,,,,,,,,orange,diamond
118.0,6.0,2.0,1.0,3.0,3.0,287.9554601386189,4.0,1.0,part_1,,,,,,,,,,,,,blue,cross
124.0,6.0,2.0,1.0,1.0,1.0,356.7399121820926,4.0,1.0,part_1,,,,,,,,,,,,,blue,cross
191.0,7.0,3.0,1.0,3.0,3.0,438.3808309212327,4.0,1.0,part_1,,,,,,,,,,,,,cyan,flipped triangle
0.0,7.0,0.0,1.0,3.0,3.0,365.8322189003229,4.0,1.0,part_1,,,,,,,,,,,,,cyan,flipped triangle
0.0,4.0,0.0,0.0,3.0,3.0,311.8878370150924,4.0,1.0,part_1,,,,,,,,,,,,,green,hexagon
113.0,6.0,2.0,1.0,4.0,4.0,372.4987367168069,4.0,1.0,part_1,,,,,,,,,,,,,blue,cross
0.0,4.0,0.0,0.0,1.0,1.0,317.2660414129495,4.0,1.0,part_1,,,,,,,,,,,,,green,hexagon
104.0,6.0,2.0,1.0,4.0,4.0,343.4402281418443,4.0,1.0,part_1,,,,,,,,,,,,,blue,cross
0.0,5.0,0.0,1.0,1.0,1.0,339.4175423309207,4.0,1.0,part_1,,,,,,,,,,,,,yellow,triangle
385.0,4.0,4.0,0.0,1.0,1.0,419.2197928205132,4.0,1.0,part_1,,,,,,,,,,,,,green,hexagon
57.0,5.0,1.0,1.0,3.0,3.0,581.8321108818054,4.0,1.0,part_1,,,,,,,,,,,,,yellow,triangle
99.0,6.0,2.0,1.0,1.0,1.0,401.2798042967915,4.0,1.0,part_1,,,,,,,,,,,,,blue,cross
0.0,2.0,0.0,0.0,4.0,4.0,336.1415760591626,4.0,1.0,part_1,,,,,,,,,,,,,white,I
56.0,1.0,1.0,0.0,1.0,1.0,338.6642076075077,4.0,1.0,part_1,,,,,,,,,,,,,gray,circle
177.0,3.0,3.0,0.0,4.0,4.0,310.4104753583669,4.0,1.0,part_1,,,,,,,,,,,,,magenta,square
90.0,6.0,2.0,1.0,2.0,2.0,350.5832506343722,4.0,1.0,part_1,,,,,,,,,,,,,blue,cross
0.0,7.0,0.0,1.0,2.0,2.0,386.8866255506873,4.0,1.0,part_1,,,,,,,,,,,,,cyan,flipped triangle
72.0,1.0,1.0,0.0,4.0,4.0,335.1315455511212,4.0,1.0,part_1,,,,,,,,,,,,,gray,circle
97.0,2.0,2.0,0.0,1.0,1.0,372.8125812485814,4.0,1.0,part_1,,,,,,,,,,,,,white,I
111.0,6.0,2.0,1.0,3.0,3.0,326.5927098691463,4.0,1.0,part_1,,,,,,,,,,,,,blue,cross
177.0,3.0,3.0,0.0,4.0,4.0,365.6259700655937,4.0,1.0,part_1,,,,,,,,,,,,,magenta,square
408.0,8.0,4.0,1.0,1.0,1.0,313.1542038172483,4.0,1.0,part_1,,,,,,,,,,,,,orange,diamond
0.0,6.0,0.0,1.0,1.0,1.0,335.7168138027191,4.0,1.0,part_1,,,,,,,,,,,,,blue,cross
78.0,6.0,2.0,1.0,4.0,4.0,316.6552484035492,4.0,1.0,part_1,,,,,,,,,,,,,blue,cross
0.0,4.0,0.0,0.0,2.0,2.0,304.7027438879013,4.0,1.0,part_1,,,,,,,,,,,,,green,hexagon
60.0,1.0,1.0,0.0,2.0,2.0,482.2973711416125,4.0,1.0,part_1,,,,,,,,,,,,,gray,circle
0.0,3.0,0.0,0.0,3.0,3.0,361.4602014422416,4.0,1.0,part_1,,,,,,,,,,,,,magenta,square
0.0,2.0,0.0,0.0,4.0,4.0,299.3473662063479,4.0,1.0,part_1,,,,,,,,,,,,,white,I
219.0,7.0,3.0,1.0,4.0,4.0,321.1147841066122,4.0,1.0,part_1,,,,,,,,,,,,,cyan,flipped triangle
395.0,8.0,4.0,1.0,3.0,3.0,325.3414807841182,4.0,1.0,part_1,,,,,,,,,,,,,orange,diamond
412.0,4.0,4.0,0.0,3.0,3.0,316.4029587060213,4.0,1.0,part_1,,,,,,,,,,,,,green,hexagon
198.0,3.0,3.0,0.0,1.0,1.0,542.189983651042,4.0,1.0,part_1,,,,,,,,,,,,,magenta,square
74.0,5.0,1.0,1.0,4.0,4.0,315.7933931797743,4.0,1.0,part_1,,,,,,,,,,,,,yellow,triangle
204.0,3.0,3.0,0.0,4.0,4.0,335.5283876881003,4.0,1.0,part_1,,,,,,,,,,,,,magenta,square
69.0,1.0,1.0,0.0,3.0,3.0,270.4538507387042,4.0,1.0,part_1,,,,,,,,,,,,,gray,circle
39.0,1.0,1.0,0.0,3.0,3.0,361.0142646357417,4.0,1.0,part_1,,,,,,,,,,,,,gray,circle
60.0,5.0,1.0,1.0,2.0,2.0,433.6183294653892,4.0,1.0,part_1,,,,,,,,,,,,,yellow,triangle
184.0,3.0,3.0,0.0,3.0,3.0,357.4472684413194,4.0,1.0,part_1,,,,,,,,,,,,,magenta,square
0.0,3.0,0.0,0.0,1.0,1.0,321.5805860236287,4.0,1.0,part_1,,,,,,,,,,,,,magenta,square
387.0,8.0,4.0,1.0,4.0,4.0,311.0458767041564,4.0,1.0,part_1,,,,,,,,,,,,,orange,diamond
0.0,7.0,0.0,1.0,1.0,1.0,348.4357483685016,4.0,1.0,part_1,,,,,,,,,,,,,cyan,flipped triangle
223.0,3.0,3.0,0.0,1.0,1.0,368.1764844805002,4.0,1.0,part_1,,,,,,,,,,,,,magenta,square
71.0,5.0,1.0,1.0,4.0,4.0,346.5484287589788,4.0,1.0,part_1,,,,,,,,,,,,,yellow,triangle
0.0,8.0,0.0,1.0,1.0,1.0,422.8307493031025,4.0,1.0,part_1,,,,,,,,,,,,,orange,diamond
91.0,6.0,2.0,1.0,1.0,1.0,533.6336838081479,4.0,1.0,part_1,,,,,,,,,,,,,blue,cross
0.0,8.0,4.0,1.0,6.0,6.0,506.44087325781584,1.0,0.0,part_2,go,250.0,250.0,1.0,,,,,,,,,orange,diamond
0.0,7.0,3.0,1.0,6.0,0.0,0.0,1.0,0.0,part_2,stop,250.0,250.0,4.0,,,,,,,,,cyan,flipped triangle
0.0,8.0,4.0,1.0,6.0,6.0,617.2197759151459,1.0,0.0,part_2,go,250.0,300.0,1.0,,,,,,,,,orange,diamond
0.0,1.0,1.0,0.0,5.0,5.0,400.9596779942512,1.0,0.0,part_2,go,250.0,300.0,1.0,,,,,,,,,gray,circle
0.0,3.0,3.0,0.0,6.0,6.0,337.8706043586135,1.0,0.0,part_2,go,250.0,300.0,1.0,,,,,,,,,magenta,square
0.0,5.0,1.0,1.0,6.0,6.0,495.472046546638,1.0,0.0,part_2,stop,250.0,300.0,3.0,,,,,,,,,yellow,triangle
0.0,5.0,1.0,1.0,5.0,5.0,553.0292876064777,1.0,0.0,part_2,go,250.0,250.0,1.0,,,,,,,,,yellow,triangle
0.0,3.0,3.0,0.0,6.0,6.0,373.0407413095236,1.0,0.0,part_2,go,250.0,250.0,1.0,,,,,,,,,magenta,square
0.0,4.0,4.0,0.0,6.0,6.0,300.4107624292373,1.0,0.0,part_2,go,250.0,250.0,1.0,,,,,,,,,green,hexagon
0.0,3.0,3.0,0.0,5.0,5.0,390.8691070973873,1.0,0.0,part_2,go,250.0,250.0,1.0,,,,,,,,,magenta,square
0.0,8.0,4.0,1.0,5.0,5.0,516.8870221823454,1.0,0.0,part_2,stop,250.0,250.0,3.0,,,,,,,,,orange,diamond
0.0,5.0,1.0,1.0,6.0,6.0,316.6942112147808,1.0,0.0,part_2,stop,200.0,250.0,3.0,,,,,,,,,yellow,triangle
0.0,7.0,3.0,1.0,6.0,0.0,0.0,1.0,0.0,part_2,stop,200.0,200.0,4.0,,,,,,,,,cyan,flipped triangle
0.0,2.0,2.0,0.0,5.0,5.0,337.9854038357734,1.0,0.0,part_2,go,200.0,250.0,1.0,,,,,,,,,white,I
0.0,8.0,4.0,1.0,6.0,0.0,0.0,1.0,0.0,part_2,stop,200.0,250.0,4.0,,,,,,,,,orange,diamond
0.0,2.0,2.0,0.0,5.0,5.0,588.011515326798,1.0,0.0,part_2,go,200.0,300.0,1.0,,,,,,,,,white,I
0.0,3.0,3.0,0.0,5.0,5.0,448.2926502823829,1.0,0.0,part_2,go,200.0,300.0,1.0,,,,,,,,,magenta,square
0.0,4.0,4.0,0.0,5.0,5.0,406.6455364227295,1.0,0.0,part_2,go,200.0,300.0,1.0,,,,,,,,,green,hexagon
0.0,1.0,1.0,0.0,5.0,5.0,889.371894299984,1.0,0.0,part_2,go,200.0,300.0,1.0,,,,,,,,,gray,circle
0.0,8.0,4.0,1.0,5.0,5.0,584.8289607092738,1.0,0.0,part_2,go,200.0,300.0,1.0,,,,,,,,,orange,diamond
0.0,7.0,3.0,1.0,5.0,0.0,0.0,1.0,0.0,part_2,stop,200.0,300.0,4.0,,,,,,,,,cyan,flipped triangle
0.0,3.0,3.0,0.0,5.0,5.0,1080.8667317032814,1.0,0.0,part_2,go,250.0,300.0,1.0,,,,,,,,,magenta,square
0.0,8.0,4.0,1.0,5.0,0.0,0.0,1.0,0.0,part_2,stop,250.0,300.0,4.0,,,,,,,,,orange,diamond
0.0,2.0,2.0,0.0,5.0,5.0,1254.861823283136,1.0,0.0,part_2,go,300.0,300.0,1.0,,,,,,,,,white,I
0.0,8.0,4.0,1.0,6.0,0.0,0.0,1.0,0.0,part_2,stop,300.0,300.0,4.0,,,,,,,,,orange,diamond
0.0,7.0,3.0,1.0,6.0,0.0,0.0,1.0,0.0,part_2,stop,300.0,350.0,4.0,,,,,,,,,cyan,flipped triangle
0.0,7.0,3.0,1.0,5.0,0.0,0.0,1.0,0.0,part_2,stop,300.0,400.0,4.0,,,,,,,,,cyan,flipped triangle
0.0,6.0,2.0,1.0,6.0,6.0,913.2204977795482,1.0,0.0,part_2,go,350.0,400.0,1.0,,,,,,,,,blue,cross
0.0,1.0,1.0,0.0,5.0,5.0,977.7168342843652,1.0,0.0,part_2,go,350.0,400.0,1.0,,,,,,,,,gray,circle
0.0,2.0,2.0,0.0,6.0,6.0,842.1014603227377,1.0,0.0,part_2,go,350.0,400.0,1.0,,,,,,,,,white,I
0.0,5.0,1.0,1.0,6.0,0.0,0.0,1.0,0.0,part_2,stop,350.0,400.0,4.0,,,,,,,,,yellow,triangle
0.0,2.0,2.0,0.0,6.0,6.0,1362.180572003126,1.0,0.0,part_2,go,350.0,450.0,1.0,,,,,,,,,white,I
0.0,2.0,2.0,0.0,5.0,5.0,1262.6246865838766,1.0,0.0,part_2,go,350.0,450.0,1.0,,,,,,,,,white,I
0.0,5.0,1.0,1.0,5.0,5.0,1141.9091569259765,1.0,0.0,part_2,go,350.0,450.0,1.0,,,,,,,,,yellow,triangle
0.0,4.0,4.0,0.0,6.0,6.0,743.8455456867814,1.0,0.0,part_2,go,350.0,450.0,1.0,,,,,,,,,green,hexagon
0.0,2.0,2.0,0.0,5.0,5.0,839.1001792624593,1.0,0.0,part_2,go,350.0,450.0,1.0,,,,,,,,,white,I
0.0,6.0,2.0,1.0,6.0,6.0,903.6563653498888,2.0,0.0,part_2,stop,350.0,450.0,3.0,,,,,,,,,blue,cross
0.0,1.0,1.0,0.0,5.0,5.0,503.7753563374281,2.0,0.0,part_2,go,350.0,400.0,1.0,,,,,,,,,gray,circle
0.0,8.0,4.0,1.0,5.0,5.0,394.0065121278167,2.0,0.0,part_2,stop,350.0,400.0,3.0,,,,,,,,,orange,diamond
0.0,8.0,4.0,1.0,5.0,0.0,0.0,2.0,0.0,part_2,stop,300.0,400.0,4.0,,,,,,,,,orange,diamond
0.0,1.0,1.0,0.0,6.0,6.0,421.4060548692941,2.0,0.0,part_2,go,350.0,400.0,1.0,,,,,,,,,gray,circle
0.0,2.0,2.0,0.0,5.0,5.0,597.1392504870892,2.0,0.0,part_2,go,350.0,400.0,1.0,,,,,,,,,white,I
0.0,6.0,2.0,1.0,6.0,0.0,0.0,2.0,0.0,part_2,stop,350.0,400.0,4.0,,,,,,,,,blue,cross
0.0,8.0,4.0,1.0,6.0,0.0,0.0,2.0,0.0,part_2,stop,350.0,450.0,4.0,,,,,,,,,orange,diamond
0.0,3.0,3.0,0.0,5.0,5.0,747.3748251795769,2.0,0.0,part_2,go,350.0,500.0,1.0,,,,,,,,,magenta,square
0.0,5.0,1.0,1.0,6.0,6.0,956.0281354933976,2.0,0.0,part_2,go,350.0,500.0,1.0,,,,,,,,,yellow,triangle
0.0,5.0,1.0,1.0,6.0,0.0,0.0,2.0,0.0,part_2,stop,350.0,500.0,4.0,,,,,,,,,yellow,triangle
0.0,5.0,1.0,1.0,6.0,6.0,1220.4760098829863,2.0,0.0,part_2,go,350.0,550.0,1.0,,,,,,,,,yellow,triangle
0.0,6.0,2.0,1.0,5.0,0.0,0.0,2.0,0.0,part_2,stop,350.0,550.0,4.0,,,,,,,,,blue,cross
0.0,7.0,3.0,1.0,5.0,0.0,0.0,2.0,0.0,part_2,stop,400.0,550.0,4.0,,,,,,,,,cyan,flipped triangle
0.0,6.0,2.0,1.0,5.0,0.0,0.0,2.0,0.0,part_2,stop,450.0,550.0,4.0,,,,,,,,,blue,cross
0.0,1.0,1.0,0.0,5.0,5.0,866.34317971766,2.0,0.0,part_2,go,500.0,550.0,1.0,,,,,,,,,gray,circle
0.0,7.0,3.0,1.0,6.0,0.0,0.0,2.0,0.0,part_2,stop,500.0,550.0,4.0,,,,,,,,,cyan,flipped triangle
0.0,1.0,1.0,0.0,6.0,6.0,1001.4834674075246,2.0,0.0,part_2,go,500.0,600.0,1.0,,,,,,,,,gray,circle
0.0,6.0,2.0,1.0,6.0,0.0,0.0,2.0,0.0,part_2,stop,500.0,600.0,4.0,,,,,,,,,blue,cross
0.0,8.0,4.0,1.0,5.0,5.0,1286.4211853593588,2.0,0.0,part_2,go,500.0,650.0,1.0,,,,,,,,,orange,diamond
0.0,1.0,1.0,0.0,5.0,5.0,1255.3061647340655,2.0,0.0,part_2,go,500.0,650.0,1.0,,,,,,,,,gray,circle
0.0,3.0,3.0,0.0,5.0,5.0,1166.2149718031287,2.0,0.0,part_2,go,500.0,650.0,1.0,,,,,,,,,magenta,square
0.0,3.0,3.0,0.0,6.0,0.0,0.0,2.0,0.0,part_2,go,500.0,650.0,5.0,,,,,,,,,magenta,square
0.0,7.0,3.0,1.0,5.0,5.0,598.095347173512,2.0,0.0,part_2,stop,500.0,650.0,3.0,,,,,,,,,cyan,flipped triangle
0.0,6.0,2.0,1.0,6.0,6.0,338.150835596025,2.0,0.0,part_2,stop,450.0,650.0,3.0,,,,,,,,,blue,cross
0.0,5.0,1.0,1.0,5.0,5.0,596.3066546246409,2.0,0.0,part_2,stop,450.0,600.0,3.0,,,,,,,,,yellow,triangle
0.0,8.0,4.0,1.0,6.0,6.0,581.4299499616027,2.0,0.0,part_2,go,400.0,600.0,1.0,,,,,,,,,orange,diamond
0.0,5.0,1.0,1.0,5.0,0.0,0.0,2.0,0.0,part_2,stop,400.0,600.0,4.0,,,,,,,,,yellow,triangle
0.0,4.0,4.0,0.0,5.0,5.0,888.9782894402742,2.0,0.0,part_2,go,450.0,600.0,1.0,,,,,,,,,green,hexagon
0.0,3.0,3.0,0.0,6.0,6.0,1051.0609531775117,2.0,0.0,part_2,go,450.0,600.0,1.0,,,,,,,,,magenta,square
0.0,5.0,1.0,1.0,5.0,0.0,0.0,2.0,0.0,part_2,stop,450.0,600.0,4.0,,,,,,,,,yellow,triangle
0.0,2.0,2.0,0.0,5.0,5.0,1113.3760903030634,2.0,0.0,part_2,go,500.0,600.0,1.0,,,,,,,,,white,I
0.0,6.0,2.0,1.0,5.0,0.0,0.0,2.0,0.0,part_2,stop,500.0,600.0,4.0,,,,,,,,,blue,cross
0.0,7.0,3.0,1.0,6.0,0.0,0.0,2.0,0.0,part_2,stop,550.0,600.0,4.0,,,,,,,,,cyan,flipped triangle
0.0,3.0,3.0,0.0,5.0,5.0,1015.8083913847804,2.0,0.0,part_2,go,550.0,650.0,1.0,,,,,,,,,magenta,square
0.0,3.0,3.0,0.0,6.0,6.0,1052.4654686450958,2.0,0.0,part_2,go,550.0,650.0,1.0,,,,,,,,,magenta,square
0.0,1.0,1.0,0.0,6.0,0.0,0.0,3.0,0.0,part_2,go,550.0,650.0,5.0,,,,,,,,,gray,circle
0.0,3.0,3.0,0.0,5.0,5.0,412.6661140471697,3.0,0.0,part_2,go,550.0,650.0,1.0,,,,,,,,,magenta,square
0.0,6.0,2.0,1.0,6.0,6.0,371.6909997165203,3.0,0.0,part_2,stop,550.0,650.0,3.0,,,,,,,,,blue,cross
0.0,3.0,3.0,0.0,5.0,5.0,726.4649104326963,3.0,0.0,part_2,go,550.0,600.0,1.0,,,,,,,,,magenta,square
0.0,5.0,1.0,1.0,5.0,0.0,0.0,3.0,0.0,part_2,stop,550.0,600.0,4.0,,,,,,,,,yellow,triangle
0.0,2.0,2.0,0.0,6.0,6.0,717.4431616440415,3.0,0.0,part_2,go,600.0,600.0,1.0,,,,,,,,,white,I
0.0,4.0,4.0,0.0,5.0,5.0,780.616239644587,3.0,0.0,part_2,go,600.0,600.0,1.0,,,,,,,,,green,hexagon
0.0,8.0,4.0,1.0,6.0,0.0,0.0,3.0,0.0,part_2,stop,600.0,600.0,4.0,,,,,,,,,orange,diamond
0.0,8.0,4.0,1.0,6.0,6.0,1033.002918586135,3.0,0.0,part_2,go,600.0,650.0,1.0,,,,,,,,,orange,diamond
0.0,3.0,3.0,0.0,5.0,5.0,920.8470480516552,3.0,0.0,part_2,go,600.0,650.0,1.0,,,,,,,,,magenta,square
0.0,2.0,2.0,0.0,6.0,6.0,1058.152699843049,3.0,0.0,part_2,go,600.0,650.0,1.0,,,,,,,,,white,I
0.0,3.0,3.0,0.0,5.0,5.0,927.4494498968124,3.0,0.0,part_2,go,600.0,650.0,1.0,,,,,,,,,magenta,square
0.0,5.0,1.0,1.0,6.0,6.0,1024.9993475154042,3.0,0.0,part_2,go,600.0,650.0,1.0,,,,,,,,,yellow,triangle
0.0,4.0,4.0,0.0,5.0,5.0,785.1845249533653,3.0,0.0,part_2,go,600.0,650.0,1.0,,,,,,,,,green,hexagon
0.0,2.0,2.0,0.0,6.0,6.0,956.6612197086216,3.0,0.0,part_2,go,600.0,650.0,1.0,,,,,,,,,white,I
0.0,2.0,2.0,0.0,5.0,5.0,878.9503397420049,3.0,0.0,part_2,go,600.0,650.0,1.0,,,,,,,,,white,I
0.0,3.0,3.0,0.0,6.0,6.0,999.4434788823128,3.0,0.0,part_2,go,600.0,650.0,1.0,,,,,,,,,magenta,square
0.0,6.0,2.0,1.0,6.0,0.0,0.0,3.0,0.0,part_2,stop,600.0,650.0,4.0,,,,,,,,,blue,cross
0.0,7.0,3.0,1.0,6.0,6.0,1195.1660541817546,3.0,0.0,part_2,go,600.0,700.0,1.0,,,,,,,,,cyan,flipped triangle
0.0,2.0,2.0,0.0,5.0,5.0,835.9689805656672,3.0,0.0,part_2,go,600.0,700.0,1.0,,,,,,,,,white,I
0.0,1.0,1.0,0.0,6.0,6.0,769.432638771832,3.0,0.0,part_2,go,600.0,700.0,1.0,,,,,,,,,gray,circle
0.0,8.0,4.0,1.0,5.0,5.0,889.93417378515,3.0,0.0,part_2,go,600.0,700.0,1.0,,,,,,,,,orange,diamond
0.0,1.0,1.0,0.0,6.0,6.0,763.2878748700023,3.0,0.0,part_2,go,600.0,700.0,1.0,,,,,,,,,gray,circle
0.0,4.0,4.0,0.0,6.0,6.0,891.197307035327,3.0,0.0,part_2,go,600.0,700.0,1.0,,,,,,,,,green,hexagon
0.0,2.0,2.0,0.0,5.0,5.0,747.2402835264802,3.0,0.0,part_2,go,600.0,700.0,1.0,,,,,,,,,white,I
0.0,3.0,3.0,0.0,6.0,6.0,910.8573896810412,3.0,0.0,part_2,go,600.0,700.0,1.0,,,,,,,,,magenta,square
0.0,6.0,2.0,1.0,5.0,0.0,0.0,3.0,0.0,part_2,stop,600.0,700.0,4.0,,,,,,,,,blue,cross
0.0,7.0,3.0,1.0,5.0,5.0,1080.2447171881795,3.0,0.0,part_2,go,650.0,700.0,1.0,,,,,,,,,cyan,flipped triangle
0.0,8.0,4.0,1.0,5.0,0.0,0.0,3.0,0.0,part_2,stop,650.0,700.0,4.0,,,,,,,,,orange,diamond
0.0,7.0,3.0,1.0,5.0,0.0,0.0,3.0,0.0,part_2,stop,700.0,700.0,4.0,,,,,,,,,cyan,flipped triangle
0.0,2.0,2.0,0.0,6.0,6.0,589.9229990318418,3.0,0.0,part_2,go,750.0,700.0,1.0,,,,,,,,,white,I
0.0,4.0,4.0,0.0,6.0,6.0,910.8246332034468,3.0,0.0,part_2,go,750.0,700.0,1.0,,,,,,,,,green,hexagon
0.0,1.0,1.0,0.0,6.0,6.0,779.3833343312144,3.0,0.0,part_2,go,750.0,700.0,1.0,,,,,,,,,gray,circle
0.0,4.0,4.0,0.0,5.0,5.0,1173.0214469134808,3.0,0.0,part_2,go,750.0,700.0,1.0,,,,,,,,,green,hexagon
0.0,6.0,2.0,1.0,6.0,0.0,0.0,3.0,0.0,part_2,stop,750.0,700.0,4.0,,,,,,,,,blue,cross
0.0,1.0,1.0,0.0,5.0,5.0,979.5453147962688,3.0,0.0,part_2,go,750.0,750.0,1.0,,,,,,,,,gray,circle
0.0,8.0,4.0,1.0,5.0,5.0,646.6450337320566,4.0,0.0,part_2,stop,750.0,750.0,3.0,,,,,,,,,orange,diamond
0.0,3.0,3.0,0.0,6.0,6.0,901.2674717232584,4.0,0.0,part_2,go,700.0,750.0,1.0,,,,,,,,,magenta,square
0.0,8.0,4.0,1.0,6.0,6.0,874.6499652042985,4.0,0.0,part_2,stop,700.0,750.0,3.0,,,,,,,,,orange,diamond
0.0,2.0,2.0,0.0,6.0,6.0,1145.6586262211204,4.0,0.0,part_2,go,700.0,700.0,1.0,,,,,,,,,white,I
0.0,6.0,2.0,1.0,5.0,5.0,880.9506446123123,4.0,0.0,part_2,go,700.0,700.0,1.0,,,,,,,,,blue,cross
0.0,3.0,3.0,0.0,5.0,5.0,961.0910583287476,4.0,0.0,part_2,go,700.0,700.0,1.0,,,,,,,,,magenta,square
0.0,7.0,3.0,1.0,5.0,0.0,0.0,4.0,0.0,part_2,stop,700.0,700.0,4.0,,,,,,,,,cyan,flipped triangle
0.0,4.0,4.0,0.0,6.0,6.0,935.2759541943668,4.0,0.0,part_2,go,750.0,700.0,1.0,,,,,,,,,green,hexagon
0.0,6.0,2.0,1.0,5.0,0.0,0.0,4.0,0.0,part_2,stop,750.0,700.0,4.0,,,,,,,,,blue,cross
0.0,5.0,1.0,1.0,6.0,0.0,0.0,4.0,0.0,part_2,stop,800.0,700.0,4.0,,,,,,,,,yellow,triangle
0.0,1.0,1.0,0.0,5.0,5.0,855.9550931677222,4.0,0.0,part_2,go,800.0,750.0,1.0,,,,,,,,,gray,circle
0.0,1.0,1.0,0.0,6.0,6.0,1118.7413493171334,4.0,0.0,part_2,go,800.0,750.0,1.0,,,,,,,,,gray,circle
0.0,7.0,3.0,1.0,6.0,0.0,0.0,4.0,0.0,part_2,stop,800.0,750.0,4.0,,,,,,,,,cyan,flipped triangle
0.0,4.0,4.0,0.0,5.0,5.0,1486.6681536659598,4.0,0.0,part_2,go,800.0,800.0,1.0,,,,,,,,,green,hexagon
0.0,8.0,4.0,1.0,5.0,0.0,0.0,4.0,0.0,part_2,stop,800.0,800.0,4.0,,,,,,,,,orange,diamond
0.0,3.0,3.0,0.0,5.0,5.0,1268.8269056379795,4.0,0.0,part_2,go,850.0,800.0,1.0,,,,,,,,,magenta,square
0.0,1.0,1.0,0.0,5.0,5.0,1092.479433864355,4.0,0.0,part_2,go,850.0,800.0,1.0,,,,,,,,,gray,circle
0.0,2.0,2.0,0.0,6.0,6.0,820.0859352946281,4.0,0.0,part_2,go,850.0,800.0,1.0,,,,,,,,,white,I
0.0,2.0,2.0,0.0,6.0,6.0,877.4529965594411,4.0,0.0,part_2,go,850.0,800.0,1.0,,,,,,,,,white,I
0.0,7.0,3.0,1.0,6.0,0.0,0.0,4.0,0.0,part_2,stop,850.0,800.0,4.0,,,,,,,,,cyan,flipped triangle
0.0,5.0,1.0,1.0,6.0,0.0,0.0,4.0,0.0,part_2,stop,850.0,850.0,4.0,,,,,,,,,yellow,triangle
0.0,6.0,2.0,1.0,5.0,5.0,1015.7286003232002,4.0,0.0,part_2,go,850.0,900.0,1.0,,,,,,,,,blue,cross
0.0,5.0,1.0,1.0,5.0,0.0,0.0,4.0,0.0,part_2,stop,850.0,900.0,4.0,,,,,,,,,yellow,triangle
0.0,4.0,4.0,0.0,5.0,5.0,1169.047316536307,4.0,0.0,part_2,go,900.0,900.0,1.0,,,,,,,,,green,hexagon
0.0,5.0,1.0,1.0,5.0,5.0,1190.3688199818134,4.0,0.0,part_2,go,900.0,900.0,1.0,,,,,,,,,yellow,triangle
0.0,6.0,2.0,1.0,5.0,5.0,1128.126261755824,4.0,0.0,part_2,go,900.0,900.0,1.0,,,,,,,,,blue,cross
0.0,6.0,2.0,1.0,6.0,0.0,0.0,4.0,0.0,part_2,stop,900.0,900.0,4.0,,,,,,,,,blue,cross
0.0,2.0,2.0,0.0,5.0,5.0,1118.7769658863544,4.0,0.0,part_2,go,900.0,950.0,1.0,,,,,,,,,white,I
0.0,1.0,1.0,0.0,5.0,5.0,908.5795106366276,4.0,0.0,part_2,go,900.0,950.0,1.0,,,,,,,,,gray,circle
0.0,1.0,1.0,0.0,5.0,5.0,1043.1093471124768,4.0,0.0,part_2,go,900.0,950.0,1.0,,,,,,,,,gray,circle
0.0,2.0,2.0,0.0,5.0,5.0,1181.5821239724755,4.0,0.0,part_2,go,900.0,950.0,1.0,,,,,,,,,white,I
0.0,2.0,2.0,0.0,6.0,6.0,1004.4591054320335,4.0,0.0,part_2,go,900.0,950.0,1.0,,,,,,,,,white,I
0.0,6.0,2.0,1.0,6.0,6.0,921.3852332904936,4.0,0.0,part_2,stop,900.0,950.0,3.0,,,,,,,,,blue,cross
0.0,4.0,4.0,0.0,5.0,5.0,802.506098523736,4.0,0.0,part_2,go,900.0,900.0,1.0,,,,,,,,,green,hexagon
0.0,2.0,2.0,0.0,5.0,5.0,755.1686419174075,4.0,0.0,part_2,go,900.0,900.0,1.0,,,,,,,,,white,I
0.0,6.0,2.0,1.0,5.0,0.0,0.0,4.0,0.0,part_2,stop,900.0,900.0,4.0,,,,,,,,,blue,cross
0.0,1.0,1.0,0.0,5.0,5.0,1329.1908828541636,5.0,0.0,part_2,go,950.0,900.0,1.0,,,,,,,,,gray,circle
0.0,4.0,4.0,0.0,6.0,6.0,800.3435507416725,5.0,0.0,part_2,go,950.0,900.0,1.0,,,,,,,,,green,hexagon
0.0,5.0,1.0,1.0,5.0,5.0,1009.8684122785926,5.0,0.0,part_2,stop,950.0,900.0,3.0,,,,,,,,,yellow,triangle
0.0,8.0,4.0,1.0,5.0,5.0,848.0929350480437,5.0,0.0,part_2,stop,900.0,900.0,3.0,,,,,,,,,orange,diamond
0.0,7.0,3.0,1.0,6.0,6.0,947.5106094032526,5.0,0.0,part_2,go,850.0,900.0,1.0,,,,,,,,,cyan,flipped triangle
0.0,1.0,1.0,0.0,5.0,5.0,1023.2260972261429,5.0,0.0,part_2,go,850.0,900.0,1.0,,,,,,,,,gray,circle
0.0,8.0,4.0,1.0,5.0,0.0,0.0,5.0,0.0,part_2,stop,850.0,900.0,4.0,,,,,,,,,orange,diamond
0.0,4.0,4.0,0.0,5.0,5.0,1109.493694268167,5.0,0.0,part_2,go,900.0,900.0,1.0,,,,,,,,,green,hexagon
0.0,4.0,4.0,0.0,5.0,5.0,1147.3548719659448,5.0,0.0,part_2,go,900.0,900.0,1.0,,,,,,,,,green,hexagon
0.0,1.0,1.0,0.0,6.0,6.0,921.3392911478876,5.0,0.0,part_2,go,900.0,900.0,1.0,,,,,,,,,gray,circle
0.0,2.0,2.0,0.0,5.0,5.0,442.5455639138818,5.0,0.0,part_2,go,900.0,900.0,1.0,,,,,,,,,white,I
0.0,6.0,2.0,1.0,5.0,5.0,1265.9286158159375,5.0,0.0,part_2,go,900.0,900.0,1.0,,,,,,,,,blue,cross
0.0,3.0,3.0,0.0,5.0,5.0,1135.7744298875332,5.0,0.0,part_2,go,900.0,900.0,1.0,,,,,,,,,magenta,square
0.0,6.0,2.0,1.0,6.0,0.0,0.0,5.0,0.0,part_2,stop,900.0,900.0,4.0,,,,,,,,,blue,cross
0.0,6.0,2.0,1.0,5.0,0.0,0.0,5.0,0.0,part_2,go,900.0,950.0,5.0,,,,,,,,,blue,cross
0.0,4.0,4.0,0.0,5.0,0.0,0.0,5.0,0.0,part_2,go,900.0,950.0,5.0,,,,,,,,,green,hexagon
0.0,6.0,2.0,1.0,5.0,5.0,940.9164888784288,5.0,0.0,part_2,stop,900.0,950.0,3.0,,,,,,,,,blue,cross
0.0,8.0,4.0,1.0,6.0,6.0,979.82728946954,5.0,0.0,part_2,stop,850.0,950.0,3.0,,,,,,,,,orange,diamond
0.0,7.0,3.0,1.0,5.0,5.0,838.7405592948198,5.0,0.0,part_2,stop,850.0,900.0,3.0,,,,,,,,,cyan,flipped triangle
0.0,4.0,4.0,0.0,6.0,6.0,853.9121281355619,5.0,0.0,part_2,go,800.0,900.0,1.0,,,,,,,,,green,hexagon
0.0,7.0,3.0,1.0,5.0,5.0,1018.4978228062391,5.0,0.0,part_2,go,800.0,900.0,1.0,,,,,,,,,cyan,flipped triangle
0.0,8.0,4.0,1.0,6.0,6.0,1053.915691561997,5.0,0.0,part_2,go,800.0,900.0,1.0,,,,,,,,,orange,diamond
0.0,3.0,3.0,0.0,6.0,6.0,777.285878546536,5.0,0.0,part_2,go,800.0,900.0,1.0,,,,,,,,,magenta,square
0.0,4.0,4.0,0.0,6.0,6.0,713.9127496629953,5.0,0.0,part_2,go,800.0,900.0,1.0,,,,,,,,,green,hexagon
0.0,6.0,2.0,1.0,6.0,6.0,723.517389036715,5.0,0.0,part_2,stop,800.0,900.0,3.0,,,,,,,,,blue,cross
0.0,3.0,3.0,0.0,6.0,6.0,1160.2476676926017,5.0,0.0,part_2,go,800.0,850.0,1.0,,,,,,,,,magenta,square
0.0,8.0,4.0,1.0,5.0,5.0,839.8367082700133,5.0,0.0,part_2,stop,800.0,850.0,3.0,,,,,,,,,orange,diamond
0.0,4.0,4.0,0.0,6.0,6.0,1305.1702547818422,5.0,0.0,part_2,go,750.0,850.0,1.0,,,,,,,,,green,hexagon
0.0,7.0,3.0,1.0,6.0,0.0,0.0,5.0,0.0,part_2,stop,750.0,850.0,4.0,,,,,,,,,cyan,flipped triangle
0.0,5.0,1.0,1.0,5.0,5.0,1046.120252460241,5.0,0.0,part_2,go,750.0,900.0,1.0,,,,,,,,,yellow,triangle
0.0,2.0,2.0,0.0,5.0,5.0,1109.816875308752,5.0,0.0,part_2,go,750.0,900.0,1.0,,,,,,,,,white,I
0.0,8.0,4.0,1.0,6.0,6.0,877.0786439999938,5.0,0.0,part_2,stop,750.0,900.0,3.0,,,,,,,,,orange,diamond
0.0,5.0,1.0,1.0,6.0,0.0,0.0,5.0,0.0,part_2,stop,750.0,850.0,4.0,,,,,,,,,yellow,triangle
0.0,1.0,1.0,0.0,6.0,6.0,891.5110444650054,5.0,0.0,part_2,go,750.0,900.0,1.0,,,,,,,,,gray,circle
0.0,3.0,3.0,0.0,5.0,5.0,933.2211120054126,5.0,0.0,part_2,go,750.0,900.0,1.0,,,,,,,,,magenta,square
0.0,5.0,1.0,1.0,6.0,6.0,1147.247327491641,5.0,0.0,part_2,go,750.0,900.0,1.0,,,,,,,,,yellow,triangle
0.0,6.0,2.0,1.0,5.0,5.0,425.3847561776638,6.0,0.0,part_2,stop,750.0,900.0,3.0,,,,,,,,,blue,cross
0.0,8.0,4.0,1.0,5.0,5.0,824.6608106419444,6.0,0.0,part_2,stop,700.0,900.0,3.0,,,,,,,,,orange,diamond
0.0,2.0,2.0,0.0,6.0,6.0,798.8319667056203,6.0,0.0,part_2,go,650.0,900.0,1.0,,,,,,,,,white,I
0.0,6.0,2.0,1.0,6.0,0.0,0.0,6.0,0.0,part_2,stop,650.0,900.0,4.0,,,,,,,,,blue,cross
0.0,5.0,1.0,1.0,6.0,5.0,1141.2020567804575,6.0,0.0,part_2,stop,650.0,950.0,3.0,,,,,,,,,yellow,triangle
0.0,4.0,4.0,0.0,6.0,6.0,1285.0424544885757,6.0,0.0,part_2,go,650.0,900.0,1.0,,,,,,,,,green,hexagon
0.0,8.0,4.0,1.0,5.0,0.0,0.0,6.0,0.0,part_2,stop,650.0,900.0,4.0,,,,,,,,,orange,diamond
0.0,8.0,4.0,1.0,6.0,0.0,0.0,6.0,0.0,part_2,stop,700.0,900.0,4.0,,,,,,,,,orange,diamond
0.0,5.0,1.0,1.0,6.0,0.0,0.0,6.0,0.0,part_2,stop,700.0,950.0,4.0,,,,,,,,,yellow,triangle
0.0,3.0,3.0,0.0,6.0,6.0,1198.3497086912394,6.0,0.0,part_2,go,700.0,1000.0,1.0,,,,,,,,,magenta,square
0.0,5.0,1.0,1.0,5.0,0.0,0.0,6.0,0.0,part_2,stop,700.0,1000.0,4.0,,,,,,,,,yellow,triangle
0.0,7.0,3.0,1.0,5.0,0.0,0.0,6.0,0.0,part_2,stop,750.0,1000.0,4.0,,,,,,,,,cyan,flipped triangle
0.0,8.0,4.0,1.0,6.0,6.0,1160.7653461396694,6.0,0.0,part_2,go,800.0,1000.0,1.0,,,,,,,,,orange,diamond
0.0,2.0,2.0,0.0,6.0,6.0,1202.9246035963297,6.0,0.0,part_2,go,800.0,1000.0,1.0,,,,,,,,,white,I
0.0,2.0,2.0,0.0,6.0,6.0,1050.874538719654,6.0,0.0,part_2,go,800.0,1000.0,1.0,,,,,,,,,white,I
0.0,6.0,2.0,1.0,6.0,6.0,1074.46928601712,6.0,0.0,part_2,go,800.0,1000.0,1.0,,,,,,,,,blue,cross
0.0,4.0,4.0,0.0,6.0,6.0,1113.3715212345123,6.0,0.0,part_2,go,800.0,1000.0,1.0,,,,,,,,,green,hexagon
0.0,7.0,3.0,1.0,5.0,5.0,1014.2660038545728,6.0,0.0,part_2,stop,800.0,1000.0,3.0,,,,,,,,,cyan,flipped triangle
0.0,1.0,1.0,0.0,6.0,6.0,1006.1104334890842,6.0,0.0,part_2,go,750.0,1000.0,1.0,,,,,,,,,gray,circle
0.0,1.0,1.0,0.0,6.0,6.0,1151.6534006223085,6.0,0.0,part_2,go,750.0,1000.0,1.0,,,,,,,,,gray,circle
0.0,5.0,1.0,1.0,5.0,0.0,0.0,6.0,0.0,part_2,stop,750.0,1000.0,4.0,,,,,,,,,yellow,triangle
0.0,5.0,1.0,1.0,5.0,0.0,0.0,6.0,0.0,part_2,stop,800.0,1000.0,4.0,,,,,,,,,yellow,triangle
0.0,4.0,4.0,0.0,5.0,5.0,1262.9261408001184,6.0,0.0,part_2,go,850.0,1000.0,1.0,,,,,,,,,green,hexagon
0.0,1.0,1.0,0.0,5.0,5.0,1301.8230916932223,6.0,0.0,part_2,go,850.0,1000.0,1.0,,,,,,,,,gray,circle
0.0,5.0,1.0,1.0,5.0,0.0,0.0,6.0,0.0,part_2,stop,850.0,1000.0,4.0,,,,,,,,,yellow,triangle
0.0,1.0,1.0,0.0,6.0,6.0,905.720256268978,6.0,0.0,part_2,go,900.0,1000.0,1.0,,,,,,,,,gray,circle
0.0,3.0,3.0,0.0,5.0,5.0,1305.4093914106488,6.0,0.0,part_2,go,900.0,1000.0,1.0,,,,,,,,,magenta,square
0.0,6.0,2.0,1.0,5.0,0.0,0.0,6.0,0.0,part_2,stop,900.0,1000.0,4.0,,,,,,,,,blue,cross
0.0,2.0,2.0,0.0,6.0,6.0,1194.6536591276526,6.0,0.0,part_2,go,950.0,1000.0,1.0,,,,,,,,,white,I
0.0,3.0,3.0,0.0,6.0,6.0,1103.7300880998373,6.0,0.0,part_2,go,950.0,1000.0,1.0,,,,,,,,,magenta,square
0.0,3.0,3.0,0.0,6.0,6.0,1018.2236963883042,6.0,0.0,part_2,go,950.0,1000.0,1.0,,,,,,,,,magenta,square
0.0,4.0,4.0,0.0,6.0,6.0,1072.276153601706,6.0,0.0,part_2,go,950.0,1000.0,1.0,,,,,,,,,green,hexagon
0.0,7.0,3.0,1.0,5.0,5.0,918.6154250055552,6.0,0.0,part_2,stop,950.0,1000.0,3.0,,,,,,,,,cyan,flipped triangle
0.0,1.0,1.0,0.0,6.0,6.0,1031.5407495945692,6.0,0.0,part_2,go,900.0,1000.0,1.0,,,,,,,,,gray,circle
0.0,1.0,1.0,0.0,5.0,5.0,886.6095244884491,6.0,0.0,part_2,go,900.0,1000.0,1.0,,,,,,,,,gray,circle
0.0,4.0,4.0,0.0,6.0,6.0,1048.2044592499733,6.0,0.0,part_2,go,900.0,1000.0,1.0,,,,,,,,,green,hexagon
0.0,4.0,4.0,0.0,6.0,6.0,651.3316109776497,7.0,0.0,part_2,go,900.0,1000.0,1.0,,,,,,,,,green,hexagon
0.0,5.0,1.0,1.0,6.0,6.0,1065.4182462021708,7.0,0.0,part_2,stop,900.0,1000.0,3.0,,,,,,,,,yellow,triangle
0.0,8.0,4.0,1.0,5.0,0.0,0.0,7.0,0.0,part_2,stop,900.0,950.0,4.0,,,,,,,,,orange,diamond
0.0,3.0,3.0,0.0,5.0,5.0,965.8600557595493,7.0,0.0,part_2,go,950.0,950.0,1.0,,,,,,,,,magenta,square
0.0,7.0,3.0,1.0,6.0,6.0,1159.4988694414496,7.0,0.0,part_2,stop,950.0,950.0,3.0,,,,,,,,,cyan,flipped triangle
0.0,2.0,2.0,0.0,5.0,0.0,0.0,7.0,0.0,part_2,go,950.0,900.0,5.0,,,,,,,,,white,I
0.0,4.0,4.0,0.0,5.0,5.0,1399.5232116430998,7.0,0.0,part_2,go,950.0,900.0,1.0,,,,,,,,,green,hexagon
0.0,7.0,3.0,1.0,5.0,5.0,1175.0322710722685,7.0,0.0,part_2,go,950.0,900.0,1.0,,,,,,,,,cyan,flipped triangle
0.0,4.0,4.0,0.0,5.0,5.0,1005.3034657612443,7.0,0.0,part_2,go,950.0,900.0,1.0,,,,,,,,,green,hexagon
0.0,1.0,1.0,0.0,5.0,5.0,819.7165383026004,7.0,0.0,part_2,go,950.0,900.0,1.0,,,,,,,,,gray,circle
0.0,5.0,1.0,1.0,5.0,5.0,1022.072640247643,7.0,0.0,part_2,stop,950.0,900.0,3.0,,,,,,,,,yellow,triangle
0.0,1.0,1.0,0.0,6.0,6.0,1289.9244176223874,7.0,0.0,part_2,go,900.0,900.0,1.0,,,,,,,,,gray,circle
0.0,6.0,2.0,1.0,6.0,0.0,0.0,7.0,0.0,part_2,stop,900.0,900.0,4.0,,,,,,,,,blue,cross
0.0,3.0,3.0,0.0,6.0,6.0,1482.4065752327442,7.0,0.0,part_2,go,900.0,950.0,1.0,,,,,,,,,magenta,square
0.0,6.0,2.0,1.0,5.0,5.0,1162.68761921674,7.0,0.0,part_2,go,900.0,950.0,1.0,,,,,,,,,blue,cross
0.0,8.0,4.0,1.0,5.0,0.0,0.0,7.0,0.0,part_2,stop,900.0,950.0,4.0,,,,,,,,,orange,diamond
0.0,5.0,1.0,1.0,6.0,6.0,1257.8808469697833,7.0,0.0,part_2,go,950.0,950.0,1.0,,,,,,,,,yellow,triangle
0.0,7.0,3.0,1.0,6.0,0.0,0.0,7.0,0.0,part_2,go,950.0,950.0,5.0,,,,,,,,,cyan,flipped triangle
0.0,6.0,2.0,1.0,5.0,0.0,0.0,7.0,0.0,part_2,stop,950.0,950.0,4.0,,,,,,,,,blue,cross
0.0,4.0,4.0,0.0,5.0,5.0,1472.271147184074,7.0,0.0,part_2,go,1000.0,950.0,1.0,,,,,,,,,green,hexagon
0.0,7.0,3.0,1.0,6.0,0.0,0.0,7.0,0.0,part_2,stop,1000.0,950.0,4.0,,,,,,,,,cyan,flipped triangle
0.0,2.0,2.0,0.0,6.0,6.0,1135.7354810461402,7.0,0.0,part_2,go,1000.0,1000.0,1.0,,,,,,,,,white,I
0.0,5.0,1.0,1.0,5.0,0.0,0.0,7.0,0.0,part_2,stop,1000.0,1000.0,4.0,,,,,,,,,yellow,triangle
0.0,1.0,1.0,0.0,6.0,6.0,926.607521250844,7.0,0.0,part_2,go,1050.0,1000.0,1.0,,,,,,,,,gray,circle
0.0,7.0,3.0,1.0,5.0,5.0,1276.3454979285598,7.0,0.0,part_2,stop,1050.0,1000.0,3.0,,,,,,,,,cyan,flipped triangle
0.0,4.0,4.0,0.0,5.0,5.0,1354.128516279161,7.0,0.0,part_2,go,1000.0,1000.0,1.0,,,,,,,,,green,hexagon
0.0,5.0,1.0,1.0,5.0,0.0,0.0,7.0,0.0,part_2,stop,1000.0,1000.0,4.0,,,,,,,,,yellow,triangle
0.0,1.0,1.0,0.0,6.0,6.0,1474.2393493652344,7.0,0.0,part_2,go,1050.0,1000.0,1.0,,,,,,,,,gray,circle
0.0,5.0,1.0,1.0,6.0,0.0,0.0,7.0,0.0,part_2,stop,1050.0,1000.0,4.0,,,,,,,,,yellow,triangle
0.0,7.0,3.0,1.0,6.0,0.0,0.0,7.0,0.0,part_2,go,1050.0,1050.0,5.0,,,,,,,,,cyan,flipped triangle
0.0,7.0,3.0,1.0,5.0,0.0,0.0,7.0,0.0,part_2,stop,1050.0,1050.0,4.0,,,,,,,,,cyan,flipped triangle
0.0,4.0,4.0,0.0,5.0,5.0,1153.115044347942,7.0,0.0,part_2,go,1100.0,1050.0,1.0,,,,,,,,,green,hexagon
0.0,2.0,2.0,0.0,6.0,6.0,1335.1083165034652,7.0,0.0,part_2,go,1100.0,1050.0,1.0,,,,,,,,,white,I
0.0,7.0,3.0,1.0,5.0,0.0,0.0,7.0,0.0,part_2,stop,1100.0,1050.0,4.0,,,,,,,,,cyan,flipped triangle
0.0,8.0,4.0,1.0,6.0,0.0,0.0,7.0,0.0,part_2,stop,1150.0,1050.0,4.0,,,,,,,,,orange,diamond
0.0,4.0,4.0,0.0,6.0,6.0,959.2733699828386,7.0,0.0,part_2,go,1150.0,1100.0,1.0,,,,,,,,,green,hexagon
0.0,6.0,2.0,1.0,5.0,5.0,832.8705597668886,8.0,0.0,part_2,stop,1150.0,1100.0,3.0,,,,,,,,,blue,cross
0.0,2.0,2.0,0.0,5.0,5.0,1409.8820108920336,8.0,0.0,part_2,go,1100.0,1100.0,1.0,,,,,,,,,white,I
0.0,7.0,3.0,1.0,6.0,6.0,1477.1247897297144,8.0,0.0,part_2,go,1100.0,1100.0,1.0,,,,,,,,,cyan,flipped triangle
0.0,7.0,3.0,1.0,6.0,6.0,1230.438076891005,8.0,0.0,part_2,stop,1100.0,1100.0,3.0,,,,,,,,,cyan,flipped triangle
0.0,8.0,4.0,1.0,6.0,0.0,0.0,8.0,0.0,part_2,stop,1100.0,1050.0,4.0,,,,,,,,,orange,diamond
0.0,4.0,4.0,0.0,6.0,0.0,0.0,8.0,0.0,part_2,go,1100.0,1100.0,5.0,,,,,,,,,green,hexagon
0.0,8.0,4.0,1.0,5.0,5.0,1172.7008214220405,8.0,0.0,part_2,stop,1100.0,1100.0,3.0,,,,,,,,,orange,diamond
0.0,7.0,3.0,1.0,6.0,0.0,0.0,8.0,0.0,part_2,go,1050.0,1100.0,5.0,,,,,,,,,cyan,flipped triangle
0.0,2.0,2.0,0.0,6.0,6.0,971.96352109313,8.0,0.0,part_2,go,1050.0,1100.0,1.0,,,,,,,,,white,I
0.0,6.0,2.0,1.0,6.0,6.0,1146.5432289987805,8.0,0.0,part_2,stop,1050.0,1100.0,3.0,,,,,,,,,blue,cross
0.0,8.0,4.0,1.0,6.0,0.0,0.0,8.0,0.0,part_2,stop,1050.0,1050.0,4.0,,,,,,,,,orange,diamond
0.0,3.0,3.0,0.0,6.0,6.0,1049.6607208624482,8.0,0.0,part_2,go,1050.0,1100.0,1.0,,,,,,,,,magenta,square
0.0,5.0,1.0,1.0,6.0,5.0,1266.2692163139582,8.0,0.0,part_2,stop,1050.0,1100.0,3.0,,,,,,,,,yellow,triangle
0.0,5.0,1.0,1.0,6.0,0.0,0.0,8.0,0.0,part_2,stop,1050.0,1050.0,4.0,,,,,,,,,yellow,triangle
0.0,7.0,3.0,1.0,5.0,0.0,0.0,8.0,0.0,part_2,stop,1050.0,1100.0,4.0,,,,,,,,,cyan,flipped triangle
0.0,4.0,4.0,0.0,6.0,6.0,1158.4882270544767,8.0,0.0,part_2,go,1100.0,1100.0,1.0,,,,,,,,,green,hexagon
0.0,3.0,3.0,0.0,6.0,6.0,1288.8304684311152,8.0,0.0,part_2,go,1100.0,1100.0,1.0,,,,,,,,,magenta,square
0.0,1.0,1.0,0.0,5.0,5.0,997.3443560302258,8.0,0.0,part_2,go,1100.0,1100.0,1.0,,,,,,,,,gray,circle
0.0,3.0,3.0,0.0,5.0,5.0,1408.1109138205647,8.0,0.0,part_2,go,1100.0,1100.0,1.0,,,,,,,,,magenta,square
0.0,2.0,2.0,0.0,6.0,6.0,1087.965157814324,8.0,0.0,part_2,go,1100.0,1100.0,1.0,,,,,,,,,white,I
0.0,4.0,4.0,0.0,6.0,6.0,1319.6972282603383,8.0,0.0,part_2,go,1100.0,1100.0,1.0,,,,,,,,,green,hexagon
0.0,3.0,3.0,0.0,5.0,5.0,1419.084212742746,8.0,0.0,part_2,go,1100.0,1100.0,1.0,,,,,,,,,magenta,square
0.0,7.0,3.0,1.0,5.0,0.0,0.0,8.0,0.0,part_2,stop,1100.0,1100.0,4.0,,,,,,,,,cyan,flipped triangle
0.0,4.0,4.0,0.0,5.0,0.0,0.0,8.0,0.0,part_2,go,1150.0,1100.0,5.0,,,,,,,,,green,hexagon
0.0,2.0,2.0,0.0,5.0,5.0,1157.3645621538162,8.0,0.0,part_2,go,1150.0,1100.0,1.0,,,,,,,,,white,I
0.0,8.0,4.0,1.0,6.0,0.0,0.0,8.0,0.0,part_2,stop,1150.0,1100.0,4.0,,,,,,,,,orange,diamond
0.0,1.0,1.0,0.0,5.0,5.0,1418.256619013846,8.0,0.0,part_2,go,1150.0,1150.0,1.0,,,,,,,,,gray,circle
0.0,3.0,3.0,0.0,6.0,0.0,0.0,8.0,0.0,part_2,go,1150.0,1150.0,5.0,,,,,,,,,magenta,square
0.0,7.0,3.0,1.0,6.0,0.0,0.0,8.0,0.0,part_2,stop,1150.0,1150.0,4.0,,,,,,,,,cyan,flipped triangle
0.0,1.0,1.0,0.0,6.0,6.0,1074.0176802501082,8.0,0.0,part_2,go,1150.0,1200.0,1.0,,,,,,,,,gray,circle
0.0,6.0,2.0,1.0,5.0,5.0,1176.6070863232017,8.0,0.0,part_2,go,1150.0,1200.0,1.0,,,,,,,,,blue,cross
0.0,1.0,1.0,0.0,6.0,6.0,909.8870670422912,8.0,0.0,part_2,go,1150.0,1200.0,1.0,,,,,,,,,gray,circle
0.0,3.0,3.0,0.0,6.0,6.0,1176.2210382148623,8.0,0.0,part_2,go,1150.0,1200.0,1.0,,,,,,,,,magenta,square
0.0,5.0,1.0,1.0,5.0,5.0,1230.9119990095496,8.0,0.0,part_2,stop,1150.0,1200.0,3.0,,,,,,,,,yellow,triangle
0.0,6.0,2.0,1.0,6.0,6.0,1365.3887640684843,8.0,0.0,part_2,stop,1100.0,1200.0,3.0,,,,,,,,,blue,cross
0.0,6.0,2.0,1.0,6.0,6.0,1348.3514143154025,8.0,0.0,part_2,stop,1100.0,1150.0,3.0,,,,,,,,,blue,cross
0.0,8.0,4.0,1.0,7.0,5.0,2363.9575662091374,1.0,2.0,part_3,go,0.0,0.0,0.0,49.0,1.0,196.0,98.0,147.0,245.0,49.0,294.0,orange,diamond
0.0,8.0,4.0,1.0,7.0,4.0,1708.8089948520064,1.0,1.0,part_3,go,0.0,0.0,0.0,176.0,4.0,264.0,44.0,220.0,176.0,88.0,132.0,orange,diamond
0.0,7.0,3.0,1.0,7.0,2.0,1806.1295989900827,1.0,1.0,part_3,go,0.0,0.0,0.0,324.0,6.0,270.0,324.0,108.0,216.0,54.0,162.0,cyan,flipped triangle
0.0,3.0,3.0,0.0,7.0,2.0,1441.667476668954,1.0,1.0,part_3,go,0.0,0.0,0.0,88.0,2.0,220.0,88.0,176.0,264.0,44.0,132.0,magenta,square
0.0,6.0,2.0,1.0,7.0,5.0,1672.5804936140776,1.0,1.0,part_3,go,0.0,0.0,0.0,78.0,2.0,117.0,195.0,39.0,234.0,78.0,156.0,blue,cross
0.0,6.0,2.0,1.0,7.0,5.0,1467.4494555220008,1.0,1.0,part_3,go,0.0,0.0,0.0,234.0,6.0,78.0,39.0,195.0,117.0,234.0,156.0,blue,cross
0.0,1.0,1.0,0.0,7.0,2.0,1765.8788179978728,1.0,1.0,part_3,go,0.0,0.0,0.0,136.0,4.0,34.0,136.0,170.0,102.0,204.0,68.0,gray,circle
0.0,2.0,2.0,0.0,7.0,1.0,1654.9225142225623,1.0,1.0,part_3,go,0.0,0.0,0.0,216.0,4.0,216.0,54.0,324.0,108.0,270.0,162.0,white,I
0.0,2.0,2.0,0.0,7.0,4.0,1592.2041703015566,1.0,1.0,part_3,go,0.0,0.0,0.0,78.0,2.0,234.0,117.0,39.0,78.0,195.0,156.0,white,I
0.0,7.0,3.0,1.0,7.0,5.0,1472.2706507891417,1.0,1.0,part_3,go,0.0,0.0,0.0,234.0,6.0,39.0,78.0,195.0,117.0,234.0,156.0,cyan,flipped triangle
0.0,7.0,3.0,1.0,7.0,2.0,1506.0354974120855,1.0,1.0,part_3,go,0.0,0.0,0.0,44.0,1.0,88.0,44.0,132.0,264.0,220.0,176.0,cyan,flipped triangle
0.0,2.0,2.0,0.0,7.0,5.0,1443.378713913262,1.0,1.0,part_3,go,0.0,0.0,0.0,234.0,6.0,117.0,156.0,195.0,39.0,234.0,78.0,white,I
0.0,3.0,3.0,0.0,7.0,1.0,1414.756792597473,1.0,1.0,part_3,go,0.0,0.0,0.0,216.0,4.0,216.0,108.0,162.0,270.0,54.0,324.0,magenta,square
0.0,1.0,1.0,0.0,7.0,4.0,1213.018840178847,1.0,1.0,part_3,go,0.0,0.0,0.0,216.0,4.0,108.0,162.0,54.0,216.0,324.0,270.0,gray,circle
0.0,8.0,4.0,1.0,7.0,2.0,1399.3242299184203,1.0,1.0,part_3,go,0.0,0.0,0.0,324.0,6.0,54.0,324.0,162.0,216.0,108.0,270.0,orange,diamond
0.0,1.0,1.0,0.0,7.0,5.0,1139.0371741726997,1.0,1.0,part_3,go,0.0,0.0,0.0,49.0,1.0,294.0,245.0,196.0,98.0,49.0,147.0,gray,circle
0.0,3.0,3.0,0.0,7.0,5.0,1394.423103891313,1.0,1.0,part_3,go,0.0,0.0,0.0,196.0,4.0,98.0,147.0,294.0,245.0,196.0,49.0,magenta,square
0.0,3.0,3.0,0.0,7.0,6.0,1197.9056866839528,1.0,1.0,part_3,go,0.0,0.0,0.0,270.0,5.0,108.0,324.0,162.0,54.0,216.0,270.0,magenta,square
0.0,8.0,4.0,1.0,7.0,2.0,1590.9765996038914,1.0,1.0,part_3,go,0.0,0.0,0.0,245.0,5.0,49.0,245.0,294.0,196.0,147.0,98.0,orange,diamond
0.0,2.0,2.0,0.0,7.0,2.0,1672.145737335086,1.0,1.0,part_3,go,0.0,0.0,0.0,270.0,5.0,216.0,270.0,324.0,54.0,108.0,162.0,white,I
0.0,5.0,1.0,1.0,7.0,5.0,1587.864387780428,2.0,1.0,part_3,go,0.0,0.0,0.0,195.0,5.0,156.0,39.0,234.0,117.0,195.0,78.0,yellow,triangle
0.0,1.0,1.0,0.0,7.0,6.0,1036.180203780532,2.0,1.0,part_3,go,0.0,0.0,0.0,234.0,6.0,195.0,117.0,156.0,78.0,39.0,234.0,gray,circle
0.0,7.0,3.0,1.0,7.0,2.0,866.4770200848579,2.0,1.0,part_3,go,0.0,0.0,0.0,34.0,1.0,68.0,34.0,170.0,136.0,102.0,204.0,cyan,flipped triangle
0.0,1.0,1.0,0.0,7.0,4.0,1011.5770874544978,2.0,1.0,part_3,go,0.0,0.0,0.0,68.0,2.0,204.0,34.0,136.0,68.0,102.0,170.0,gray,circle
0.0,5.0,1.0,1.0,7.0,5.0,1128.6346400156615,2.0,1.0,part_3,go,0.0,0.0,0.0,88.0,2.0,44.0,264.0,220.0,132.0,88.0,176.0,yellow,triangle
0.0,4.0,4.0,0.0,7.0,6.0,1057.1386152878404,2.0,1.0,part_3,go,0.0,0.0,0.0,108.0,2.0,324.0,270.0,54.0,162.0,216.0,108.0,green,hexagon
0.0,4.0,4.0,0.0,7.0,4.0,1178.2753551378846,2.0,1.0,part_3,go,0.0,0.0,0.0,195.0,5.0,156.0,78.0,117.0,195.0,39.0,234.0,green,hexagon
0.0,7.0,3.0,1.0,7.0,5.0,1227.5640284642575,2.0,1.0,part_3,go,0.0,0.0,0.0,264.0,6.0,132.0,88.0,220.0,176.0,264.0,44.0,cyan,flipped triangle
0.0,8.0,4.0,1.0,7.0,3.0,1125.2340655773878,2.0,1.0,part_3,go,0.0,0.0,0.0,234.0,6.0,195.0,117.0,234.0,39.0,156.0,78.0,orange,diamond
0.0,6.0,2.0,1.0,7.0,5.0,1411.8387289345264,2.0,1.0,part_3,go,0.0,0.0,0.0,170.0,5.0,204.0,68.0,34.0,102.0,170.0,136.0,blue,cross
0.0,1.0,1.0,0.0,7.0,4.0,1103.925791569054,2.0,1.0,part_3,go,0.0,0.0,0.0,54.0,1.0,216.0,324.0,270.0,54.0,108.0,162.0,gray,circle
0.0,7.0,3.0,1.0,7.0,4.0,1049.1643650457263,2.0,1.0,part_3,go,0.0,0.0,0.0,294.0,6.0,196.0,147.0,49.0,294.0,98.0,245.0,cyan,flipped triangle
0.0,5.0,1.0,1.0,7.0,2.0,882.6591251417994,2.0,1.0,part_3,go,0.0,0.0,0.0,176.0,4.0,88.0,176.0,132.0,220.0,44.0,264.0,yellow,triangle
0.0,2.0,2.0,0.0,7.0,5.0,1194.6382829919455,2.0,1.0,part_3,go,0.0,0.0,0.0,132.0,3.0,176.0,88.0,44.0,220.0,132.0,264.0,white,I
0.0,2.0,2.0,0.0,7.0,3.0,1141.371974721551,2.0,1.0,part_3,go,0.0,0.0,0.0,294.0,6.0,98.0,147.0,294.0,245.0,196.0,49.0,white,I
0.0,2.0,2.0,0.0,7.0,6.0,1364.002101123333,2.0,1.0,part_3,go,0.0,0.0,0.0,49.0,1.0,294.0,98.0,196.0,147.0,245.0,49.0,white,I
0.0,6.0,2.0,1.0,7.0,5.0,1374.6457854285836,2.0,1.0,part_3,go,0.0,0.0,0.0,196.0,4.0,294.0,49.0,147.0,245.0,196.0,98.0,blue,cross
0.0,5.0,1.0,1.0,7.0,4.0,1143.8783733174205,2.0,1.0,part_3,go,0.0,0.0,0.0,270.0,5.0,324.0,54.0,216.0,270.0,162.0,108.0,yellow,triangle
0.0,6.0,2.0,1.0,7.0,4.0,1418.414822779596,2.0,1.0,part_3,go,0.0,0.0,0.0,216.0,4.0,270.0,324.0,54.0,216.0,162.0,108.0,blue,cross
0.0,3.0,3.0,0.0,7.0,4.0,1258.1424294039607,2.0,1.0,part_3,go,0.0,0.0,0.0,170.0,5.0,136.0,68.0,204.0,170.0,102.0,34.0,magenta,square
0.0,1.0,1.0,0.0,7.0,5.0,993.4032754972576,3.0,1.0,part_3,go,0.0,0.0,0.0,132.0,3.0,264.0,220.0,44.0,176.0,132.0,88.0,gray,circle
0.0,4.0,4.0,0.0,7.0,3.0,993.2003086432816,3.0,1.0,part_3,go,0.0,0.0,0.0,156.0,4.0,78.0,195.0,156.0,234.0,117.0,39.0,green,hexagon
0.0,2.0,2.0,0.0,7.0,2.0,1114.053446799517,3.0,1.0,part_3,go,0.0,0.0,0.0,170.0,5.0,102.0,170.0,204.0,136.0,34.0,68.0,white,I
0.0,3.0,3.0,0.0,7.0,5.0,870.5961732193828,3.0,1.0,part_3,go,0.0,0.0,0.0,78.0,2.0,156.0,234.0,39.0,117.0,78.0,195.0,magenta,square
0.0,7.0,3.0,1.0,7.0,4.0,894.2570341750979,3.0,1.0,part_3,go,0.0,0.0,0.0,204.0,6.0,102.0,34.0,170.0,204.0,68.0,136.0,cyan,flipped triangle
0.0,3.0,3.0,0.0,7.0,4.0,1095.817861147225,3.0,1.0,part_3,go,0.0,0.0,0.0,196.0,4.0,49.0,98.0,245.0,196.0,294.0,147.0,magenta,square
0.0,8.0,4.0,1.0,7.0,5.0,1026.2013170868158,3.0,1.0,part_3,go,0.0,0.0,0.0,170.0,5.0,204.0,34.0,68.0,136.0,170.0,102.0,orange,diamond
0.0,5.0,1.0,1.0,7.0,4.0,920.478418469429,3.0,1.0,part_3,go,0.0,0.0,0.0,147.0,3.0,196.0,49.0,245.0,147.0,98.0,294.0,yellow,triangle
0.0,4.0,4.0,0.0,7.0,2.0,857.3824847117066,3.0,1.0,part_3,go,0.0,0.0,0.0,136.0,4.0,204.0,136.0,34.0,170.0,102.0,68.0,green,hexagon
0.0,8.0,4.0,1.0,7.0,5.0,1214.364405721426,3.0,1.0,part_3,go,0.0,0.0,0.0,162.0,3.0,108.0,54.0,216.0,270.0,162.0,324.0,orange,diamond
0.0,5.0,1.0,1.0,7.0,2.0,860.2155605331063,3.0,1.0,part_3,go,0.0,0.0,0.0,170.0,5.0,102.0,170.0,68.0,136.0,204.0,34.0,yellow,triangle
0.0,6.0,2.0,1.0,7.0,5.0,929.0956044569612,3.0,1.0,part_3,go,0.0,0.0,0.0,98.0,2.0,49.0,245.0,147.0,294.0,98.0,196.0,blue,cross
0.0,7.0,3.0,1.0,7.0,2.0,935.2864902466536,3.0,1.0,part_3,go,0.0,0.0,0.0,324.0,6.0,216.0,324.0,270.0,54.0,162.0,108.0,cyan,flipped triangle
0.0,6.0,2.0,1.0,7.0,5.0,916.052066721022,3.0,1.0,part_3,go,0.0,0.0,0.0,132.0,3.0,220.0,88.0,176.0,44.0,132.0,264.0,blue,cross
0.0,5.0,1.0,1.0,7.0,6.0,1212.2244341298938,3.0,1.0,part_3,go,0.0,0.0,0.0,170.0,5.0,204.0,136.0,34.0,68.0,102.0,170.0,yellow,triangle
0.0,1.0,1.0,0.0,7.0,5.0,1199.0102035924792,3.0,1.0,part_3,go,0.0,0.0,0.0,294.0,6.0,98.0,147.0,196.0,49.0,294.0,245.0,gray,circle
0.0,3.0,3.0,0.0,7.0,6.0,1244.903045706451,3.0,1.0,part_3,go,0.0,0.0,0.0,220.0,5.0,264.0,132.0,44.0,176.0,88.0,220.0,magenta,square
0.0,3.0,3.0,0.0,7.0,4.0,1149.4737332686782,3.0,1.0,part_3,go,0.0,0.0,0.0,195.0,5.0,234.0,156.0,78.0,195.0,39.0,117.0,magenta,square
0.0,4.0,4.0,0.0,7.0,4.0,1001.7967112362385,3.0,1.0,part_3,go,0.0,0.0,0.0,132.0,3.0,44.0,264.0,176.0,132.0,88.0,220.0,green,hexagon
0.0,8.0,4.0,1.0,7.0,2.0,795.175957493484,3.0,1.0,part_3,go,0.0,0.0,0.0,117.0,3.0,234.0,117.0,156.0,39.0,78.0,195.0,orange,diamond
0.0,3.0,3.0,0.0,7.0,3.0,825.4410559311509,4.0,1.0,part_3,go,0.0,0.0,0.0,170.0,5.0,204.0,136.0,170.0,34.0,68.0,102.0,magenta,square
0.0,4.0,4.0,0.0,7.0,4.0,797.0008691772819,4.0,1.0,part_3,go,0.0,0.0,0.0,204.0,6.0,170.0,136.0,68.0,204.0,34.0,102.0,green,hexagon
0.0,2.0,2.0,0.0,7.0,4.0,965.2866320684552,4.0,1.0,part_3,go,0.0,0.0,0.0,132.0,3.0,88.0,264.0,176.0,132.0,44.0,220.0,white,I
0.0,1.0,1.0,0.0,7.0,5.0,1127.934841439128,4.0,1.0,part_3,go,0.0,0.0,0.0,78.0,2.0,156.0,234.0,195.0,117.0,78.0,39.0,gray,circle
0.0,5.0,1.0,1.0,7.0,1.0,1162.1577460318804,4.0,1.0,part_3,go,0.0,0.0,0.0,245.0,5.0,245.0,294.0,98.0,196.0,49.0,147.0,yellow,triangle
0.0,5.0,1.0,1.0,7.0,4.0,882.8696720302105,4.0,1.0,part_3,go,0.0,0.0,0.0,195.0,5.0,156.0,234.0,78.0,195.0,39.0,117.0,yellow,triangle
0.0,7.0,3.0,1.0,7.0,1.0,1012.2245736420157,4.0,1.0,part_3,go,0.0,0.0,0.0,147.0,3.0,147.0,196.0,98.0,49.0,245.0,294.0,cyan,flipped triangle
0.0,4.0,4.0,0.0,7.0,2.0,1204.3487904593349,4.0,1.0,part_3,go,0.0,0.0,0.0,162.0,3.0,108.0,162.0,270.0,54.0,324.0,216.0,green,hexagon
0.0,6.0,2.0,1.0,7.0,5.0,896.0474394261837,4.0,1.0,part_3,go,0.0,0.0,0.0,108.0,2.0,162.0,270.0,54.0,216.0,108.0,324.0,blue,cross
0.0,6.0,2.0,1.0,7.0,4.0,862.932994030416,4.0,1.0,part_3,go,0.0,0.0,0.0,88.0,2.0,220.0,44.0,176.0,88.0,132.0,264.0,blue,cross
0.0,4.0,4.0,0.0,7.0,4.0,955.1181858405472,4.0,1.0,part_3,go,0.0,0.0,0.0,196.0,4.0,98.0,49.0,147.0,196.0,245.0,294.0,green,hexagon
0.0,8.0,4.0,1.0,7.0,1.0,1221.06665186584,4.0,1.0,part_3,go,0.0,0.0,0.0,176.0,4.0,176.0,44.0,264.0,88.0,132.0,220.0,orange,diamond
0.0,1.0,1.0,0.0,7.0,2.0,1170.4094717279077,4.0,1.0,part_3,go,0.0,0.0,0.0,176.0,4.0,220.0,176.0,132.0,264.0,88.0,44.0,gray,circle
0.0,4.0,4.0,0.0,7.0,5.0,956.654004752636,4.0,1.0,part_3,go,0.0,0.0,0.0,147.0,3.0,49.0,245.0,196.0,294.0,147.0,98.0,green,hexagon
0.0,8.0,4.0,1.0,7.0,2.0,1255.1363063976169,4.0,1.0,part_3,go,0.0,0.0,0.0,170.0,5.0,136.0,170.0,68.0,204.0,34.0,102.0,orange,diamond
0.0,7.0,3.0,1.0,7.0,2.0,1450.5381491035223,4.0,1.0,part_3,go,0.0,0.0,0.0,117.0,3.0,78.0,117.0,195.0,156.0,39.0,234.0,cyan,flipped triangle
0.0,5.0,1.0,1.0,7.0,5.0,1007.9168910160661,4.0,1.0,part_3,go,0.0,0.0,0.0,162.0,3.0,108.0,324.0,54.0,270.0,162.0,216.0,yellow,triangle
0.0,6.0,2.0,1.0,7.0,5.0,1105.4770359769464,4.0,1.0,part_3,go,0.0,0.0,0.0,102.0,3.0,204.0,34.0,68.0,170.0,102.0,136.0,blue,cross
0.0,2.0,2.0,0.0,7.0,5.0,1069.756847806275,4.0,1.0,part_3,go,0.0,0.0,0.0,136.0,4.0,204.0,34.0,102.0,170.0,136.0,68.0,white,I
0.0,4.0,4.0,0.0,7.0,1.0,1036.0506139695644,4.0,1.0,part_3,go,0.0,0.0,0.0,132.0,3.0,132.0,88.0,264.0,220.0,44.0,176.0,green,hexagon
