raw_reward_magnitude,stim_reward,stepwise_reward_magnitude,paired_with_stopping,quadrant,response,reaction_time,block,num_trial_presentations,which_part,stop_signal_trial_type,left_SSD,right_SSD,accuracy,chosen_bidding_amount,chosen_bidding_level,possible_bid_1,possible_bid_2,possible_bid_3,possible_bid_4,possible_bid_5,possible_bid_6,color_text,shape_text
37.0,1.0,1.0,0.0,1.0,1.0,370.1818389818072,1.0,1.0,part_1,,,,,,,,,,,,,white,cross
115.0,6.0,2.0,1.0,2.0,2.0,304.745146073401,1.0,1.0,part_1,,,,,,,,,,,,,yellow,hexagon
204.0,3.0,3.0,0.0,4.0,4.0,290.5853129923343,1.0,1.0,part_1,,,,,,,,,,,,,orange,circle
64.0,1.0,1.0,0.0,4.0,4.0,337.1650353074074,1.0,1.0,part_1,,,,,,,,,,,,,white,cross
73.0,1.0,1.0,0.0,4.0,4.0,349.6981840580702,1.0,1.0,part_1,,,,,,,,,,,,,white,cross
64.0,5.0,1.0,1.0,4.0,4.0,280.3676491603255,1.0,1.0,part_1,,,,,,,,,,,,,green,triangle
0.0,5.0,0.0,1.0,3.0,3.0,364.5854732021689,1.0,1.0,part_1,,,,,,,,,,,,,green,triangle
384.0,8.0,4.0,1.0,4.0,4.0,434.2658007517457,1.0,1.0,part_1,,,,,,,,,,,,,blue,diamond
92.0,6.0,2.0,1.0,2.0,2.0,401.4313342049718,1.0,1.0,part_1,,,,,,,,,,,,,yellow,hexagon
101.0,2.0,2.0,0.0,2.0,2.0,308.986552990973,1.0,1.0,part_1,,,,,,,,,,,,,magenta,flipped triangle
93.0,2.0,2.0,0.0,2.0,2.0,312.4389732256531,1.0,1.0,part_1,,,,,,,,,,,,,magenta,flipped triangle
100.0,6.0,2.0,1.0,3.0,3.0,325.7742766290903,1.0,1.0,part_1,,,,,,,,,,,,,yellow,hexagon
0.0,2.0,0.0,0.0,3.0,3.0,316.8486030772328,1.0,1.0,part_1,,,,,,,,,,,,,magenta,flipped triangle
207.0,3.0,3.0,0.0,4.0,4.0,383.5020679980516,1.0,1.0,part_1,,,,,,,,,,,,,orange,circle
0.0,1.0,0.0,0.0,3.0,3.0,444.2752171307802,1.0,1.0,part_1,,,,,,,,,,,,,white,cross
0.0,1.0,0.0,0.0,4.0,4.0,361.5416260436177,1.0,1.0,part_1,,,,,,,,,,,,,white,cross
51.0,5.0,1.0,1.0,3.0,3.0,358.0363905057311,1.0,1.0,part_1,,,,,,,,,,,,,green,triangle
70.0,1.0,1.0,0.0,4.0,4.0,332.1291673928499,1.0,1.0,part_1,,,,,,,,,,,,,white,cross
192.0,7.0,3.0,1.0,3.0,3.0,392.1715123578906,1.0,1.0,part_1,,,,,,,,,,,,,gray,I
65.0,5.0,1.0,1.0,3.0,3.0,291.499525308609,1.0,1.0,part_1,,,,,,,,,,,,,green,triangle
405.0,4.0,4.0,0.0,1.0,1.0,436.9710385799408,1.0,2.0,part_1,,,,,,,,,,,,,cyan,square
394.0,8.0,4.0,1.0,1.0,1.0,521.4371830224991,1.0,1.0,part_1,,,,,,,,,,,,,blue,diamond
95.0,2.0,2.0,0.0,4.0,4.0,357.1643903851509,1.0,1.0,part_1,,,,,,,,,,,,,magenta,flipped triangle
402.0,8.0,4.0,1.0,3.0,3.0,299.3783829733729,1.0,1.0,part_1,,,,,,,,,,,,,blue,diamond
32.0,1.0,1.0,0.0,3.0,3.0,360.6473235413432,1.0,1.0,part_1,,,,,,,,,,,,,white,cross
83.0,6.0,2.0,1.0,2.0,2.0,380.3161904215812,1.0,1.0,part_1,,,,,,,,,,,,,yellow,hexagon
376.0,8.0,4.0,1.0,4.0,4.0,273.9296238869428,1.0,1.0,part_1,,,,,,,,,,,,,blue,diamond
413.0,4.0,4.0,0.0,2.0,2.0,276.2604430317879,1.0,1.0,part_1,,,,,,,,,,,,,cyan,square
0.0,8.0,0.0,1.0,1.0,1.0,364.7382222115993,1.0,1.0,part_1,,,,,,,,,,,,,blue,diamond
390.0,4.0,4.0,0.0,2.0,2.0,407.2317266836762,1.0,1.0,part_1,,,,,,,,,,,,,cyan,square
0.0,7.0,0.0,1.0,4.0,4.0,300.2756973728537,1.0,1.0,part_1,,,,,,,,,,,,,gray,I
202.0,3.0,3.0,0.0,1.0,1.0,311.7105299606919,1.0,1.0,part_1,,,,,,,,,,,,,orange,circle
0.0,6.0,0.0,1.0,1.0,1.0,356.5290104597807,1.0,1.0,part_1,,,,,,,,,,,,,yellow,hexagon
408.0,8.0,4.0,1.0,3.0,3.0,393.034472130239,1.0,1.0,part_1,,,,,,,,,,,,,blue,diamond
64.0,1.0,1.0,0.0,3.0,3.0,422.7169128134846,1.0,1.0,part_1,,,,,,,,,,,,,white,cross
38.0,1.0,1.0,0.0,1.0,1.0,301.0781379416585,1.0,1.0,part_1,,,,,,,,,,,,,white,cross
0.0,1.0,0.0,0.0,2.0,2.0,255.63570577651262,1.0,1.0,part_1,,,,,,,,,,,,,white,cross
87.0,6.0,2.0,1.0,4.0,4.0,266.9335138052702,1.0,1.0,part_1,,,,,,,,,,,,,yellow,hexagon
76.0,6.0,2.0,1.0,1.0,1.0,303.8374111056328,1.0,1.0,part_1,,,,,,,,,,,,,yellow,hexagon
212.0,3.0,3.0,0.0,1.0,1.0,262.6433987170458,1.0,1.0,part_1,,,,,,,,,,,,,orange,circle
179.0,7.0,3.0,1.0,3.0,3.0,261.0491784289479,1.0,1.0,part_1,,,,,,,,,,,,,gray,I
379.0,4.0,4.0,0.0,1.0,1.0,214.2724180594086,1.0,1.0,part_1,,,,,,,,,,,,,cyan,square
424.0,4.0,4.0,0.0,4.0,4.0,283.9175947010517,1.0,1.0,part_1,,,,,,,,,,,,,cyan,square
196.0,7.0,3.0,1.0,1.0,1.0,296.917057596147,1.0,1.0,part_1,,,,,,,,,,,,,gray,I
391.0,8.0,4.0,1.0,4.0,4.0,317.3319259658456,1.0,1.0,part_1,,,,,,,,,,,,,blue,diamond
75.0,2.0,2.0,0.0,4.0,4.0,320.5377478152513,1.0,1.0,part_1,,,,,,,,,,,,,magenta,flipped triangle
0.0,3.0,0.0,0.0,1.0,1.0,295.3537413850426,1.0,1.0,part_1,,,,,,,,,,,,,orange,circle
187.0,3.0,3.0,0.0,3.0,3.0,484.8730061203241,1.0,1.0,part_1,,,,,,,,,,,,,orange,circle
395.0,8.0,4.0,1.0,3.0,3.0,439.3915459513664,1.0,1.0,part_1,,,,,,,,,,,,,blue,diamond
404.0,8.0,4.0,1.0,1.0,1.0,307.7185461297631,1.0,1.0,part_1,,,,,,,,,,,,,blue,diamond
117.0,2.0,2.0,0.0,4.0,4.0,282.0193748921156,1.0,1.0,part_1,,,,,,,,,,,,,magenta,flipped triangle
32.0,1.0,1.0,0.0,1.0,1.0,269.1059289500117,1.0,1.0,part_1,,,,,,,,,,,,,white,cross
78.0,2.0,2.0,0.0,2.0,2.0,291.6624844074249,1.0,1.0,part_1,,,,,,,,,,,,,magenta,flipped triangle
116.0,2.0,2.0,0.0,1.0,1.0,356.944840401411,1.0,2.0,part_1,,,,,,,,,,,,,magenta,flipped triangle
224.0,7.0,3.0,1.0,3.0,3.0,385.8095752075314,1.0,1.0,part_1,,,,,,,,,,,,,gray,I
67.0,1.0,1.0,0.0,2.0,2.0,311.1770451068878,1.0,1.0,part_1,,,,,,,,,,,,,white,cross
192.0,3.0,3.0,0.0,3.0,3.0,307.4006764218211,1.0,1.0,part_1,,,,,,,,,,,,,orange,circle
394.0,4.0,4.0,0.0,3.0,3.0,360.1852711290121,1.0,1.0,part_1,,,,,,,,,,,,,cyan,square
196.0,7.0,3.0,1.0,2.0,2.0,298.7078269943595,1.0,1.0,part_1,,,,,,,,,,,,,gray,I
52.0,1.0,1.0,0.0,4.0,4.0,334.5265965908766,1.0,1.0,part_1,,,,,,,,,,,,,white,cross
32.0,5.0,1.0,1.0,4.0,4.0,445.5343363806605,1.0,1.0,part_1,,,,,,,,,,,,,green,triangle
416.0,4.0,4.0,0.0,3.0,3.0,312.0145052671432,1.0,1.0,part_1,,,,,,,,,,,,,cyan,square
0.0,4.0,0.0,0.0,2.0,2.0,278.6566410213709,1.0,1.0,part_1,,,,,,,,,,,,,cyan,square
124.0,6.0,2.0,1.0,2.0,2.0,337.9065720364451,1.0,1.0,part_1,,,,,,,,,,,,,yellow,hexagon
196.0,3.0,3.0,0.0,2.0,2.0,320.7376040518284,1.0,1.0,part_1,,,,,,,,,,,,,orange,circle
92.0,2.0,2.0,0.0,3.0,3.0,271.004038862884,1.0,1.0,part_1,,,,,,,,,,,,,magenta,flipped triangle
51.0,1.0,1.0,0.0,2.0,2.0,312.2837655246258,1.0,1.0,part_1,,,,,,,,,,,,,white,cross
184.0,7.0,3.0,1.0,1.0,1.0,382.1410667151212,1.0,1.0,part_1,,,,,,,,,,,,,gray,I
70.0,5.0,1.0,1.0,4.0,4.0,296.6520870104432,1.0,1.0,part_1,,,,,,,,,,,,,green,triangle
184.0,3.0,3.0,0.0,4.0,4.0,336.6113100200891,1.0,1.0,part_1,,,,,,,,,,,,,orange,circle
0.0,2.0,0.0,0.0,3.0,3.0,363.5531375184655,1.0,1.0,part_1,,,,,,,,,,,,,magenta,flipped triangle
401.0,8.0,4.0,1.0,3.0,3.0,350.7504817098379,1.0,1.0,part_1,,,,,,,,,,,,,blue,diamond
110.0,2.0,2.0,0.0,3.0,3.0,381.2696868553757,1.0,1.0,part_1,,,,,,,,,,,,,magenta,flipped triangle
38.0,5.0,1.0,1.0,2.0,2.0,339.9552945047617,1.0,1.0,part_1,,,,,,,,,,,,,green,triangle
0.0,6.0,0.0,1.0,3.0,3.0,564.7126156836748,1.0,1.0,part_1,,,,,,,,,,,,,yellow,hexagon
102.0,2.0,2.0,0.0,1.0,1.0,442.4873106181621,1.0,1.0,part_1,,,,,,,,,,,,,magenta,flipped triangle
83.0,2.0,2.0,0.0,3.0,3.0,303.6580961197614,1.0,1.0,part_1,,,,,,,,,,,,,magenta,flipped triangle
425.0,8.0,4.0,1.0,1.0,1.0,322.9743996635079,1.0,1.0,part_1,,,,,,,,,,,,,blue,diamond
218.0,3.0,3.0,0.0,4.0,4.0,343.8297100365162,1.0,1.0,part_1,,,,,,,,,,,,,orange,circle
53.0,1.0,1.0,0.0,2.0,2.0,270.4077120870352,1.0,1.0,part_1,,,,,,,,,,,,,white,cross
29.0,5.0,1.0,1.0,1.0,1.0,363.6788334697485,1.0,1.0,part_1,,,,,,,,,,,,,green,triangle
62.0,5.0,1.0,1.0,2.0,2.0,326.6877345740795,1.0,1.0,part_1,,,,,,,,,,,,,green,triangle
95.0,6.0,2.0,1.0,3.0,3.0,293.9617987722158,1.0,1.0,part_1,,,,,,,,,,,,,yellow,hexagon
0.0,8.0,0.0,1.0,3.0,3.0,400.6431074813008,1.0,1.0,part_1,,,,,,,,,,,,,blue,diamond
0.0,5.0,0.0,1.0,4.0,4.0,363.9191836118698,1.0,1.0,part_1,,,,,,,,,,,,,green,triangle
71.0,5.0,1.0,1.0,4.0,4.0,346.7038180679083,1.0,1.0,part_1,,,,,,,,,,,,,green,triangle
26.0,1.0,1.0,0.0,3.0,3.0,311.0936246812343,1.0,1.0,part_1,,,,,,,,,,,,,white,cross
116.0,6.0,2.0,1.0,2.0,2.0,340.5175535008311,1.0,1.0,part_1,,,,,,,,,,,,,yellow,hexagon
0.0,4.0,0.0,0.0,2.0,2.0,344.6226082742214,1.0,1.0,part_1,,,,,,,,,,,,,cyan,square
32.0,5.0,1.0,1.0,2.0,2.0,298.7805679440498,1.0,1.0,part_1,,,,,,,,,,,,,green,triangle
424.0,8.0,4.0,1.0,2.0,2.0,315.5041867867112,1.0,1.0,part_1,,,,,,,,,,,,,blue,diamond
413.0,8.0,4.0,1.0,3.0,3.0,336.5261554718017,1.0,1.0,part_1,,,,,,,,,,,,,blue,diamond
45.0,5.0,1.0,1.0,3.0,3.0,298.8360710442066,1.0,1.0,part_1,,,,,,,,,,,,,green,triangle
90.0,6.0,2.0,1.0,3.0,3.0,328.1591478735208,1.0,1.0,part_1,,,,,,,,,,,,,yellow,hexagon
0.0,1.0,0.0,0.0,1.0,1.0,283.3812246099114,1.0,1.0,part_1,,,,,,,,,,,,,white,cross
120.0,6.0,2.0,1.0,4.0,4.0,271.5591974556446,1.0,1.0,part_1,,,,,,,,,,,,,yellow,hexagon
99.0,2.0,2.0,0.0,1.0,1.0,263.1765194237232,1.0,1.0,part_1,,,,,,,,,,,,,magenta,flipped triangle
68.0,5.0,1.0,1.0,3.0,3.0,433.146777562797,1.0,1.0,part_1,,,,,,,,,,,,,green,triangle
409.0,8.0,4.0,1.0,4.0,4.0,400.68434923887247,1.0,1.0,part_1,,,,,,,,,,,,,blue,diamond
203.0,7.0,3.0,1.0,2.0,2.0,269.3211399018764,1.0,1.0,part_1,,,,,,,,,,,,,gray,I
181.0,3.0,3.0,0.0,1.0,1.0,337.3639108613133,2.0,1.0,part_1,,,,,,,,,,,,,orange,circle
219.0,7.0,3.0,1.0,2.0,2.0,293.8174875453114,2.0,1.0,part_1,,,,,,,,,,,,,gray,I
0.0,3.0,0.0,0.0,4.0,4.0,293.957925401628,2.0,1.0,part_1,,,,,,,,,,,,,orange,circle
405.0,8.0,4.0,1.0,4.0,4.0,303.8040902465582,2.0,1.0,part_1,,,,,,,,,,,,,blue,diamond
55.0,1.0,1.0,0.0,2.0,2.0,270.7640016451478,2.0,1.0,part_1,,,,,,,,,,,,,white,cross
414.0,8.0,4.0,1.0,4.0,4.0,314.9312939494848,2.0,1.0,part_1,,,,,,,,,,,,,blue,diamond
216.0,7.0,3.0,1.0,1.0,1.0,388.6325443163514,2.0,1.0,part_1,,,,,,,,,,,,,gray,I
0.0,6.0,0.0,1.0,2.0,2.0,353.0524438247084,2.0,1.0,part_1,,,,,,,,,,,,,yellow,hexagon
0.0,1.0,0.0,0.0,2.0,2.0,352.8476078063249,2.0,1.0,part_1,,,,,,,,,,,,,white,cross
213.0,7.0,3.0,1.0,3.0,3.0,381.465864367783,2.0,1.0,part_1,,,,,,,,,,,,,gray,I
416.0,8.0,4.0,1.0,1.0,1.0,263.4474644437432,2.0,1.0,part_1,,,,,,,,,,,,,blue,diamond
397.0,4.0,4.0,0.0,1.0,1.0,390.3808761388063,2.0,1.0,part_1,,,,,,,,,,,,,cyan,square
0.0,7.0,0.0,1.0,2.0,2.0,353.1777868047356,2.0,1.0,part_1,,,,,,,,,,,,,gray,I
205.0,7.0,3.0,1.0,4.0,4.0,337.1372036635875,2.0,1.0,part_1,,,,,,,,,,,,,gray,I
102.0,6.0,2.0,1.0,2.0,2.0,307.1547709405422,2.0,1.0,part_1,,,,,,,,,,,,,yellow,hexagon
117.0,2.0,2.0,0.0,1.0,1.0,255.4714996367693,2.0,1.0,part_1,,,,,,,,,,,,,magenta,flipped triangle
97.0,2.0,2.0,0.0,2.0,2.0,263.1235225126147,2.0,1.0,part_1,,,,,,,,,,,,,magenta,flipped triangle
216.0,7.0,3.0,1.0,4.0,4.0,324.5883397758007,2.0,1.0,part_1,,,,,,,,,,,,,gray,I
93.0,2.0,2.0,0.0,1.0,1.0,254.3460726737976,2.0,1.0,part_1,,,,,,,,,,,,,magenta,flipped triangle
29.0,1.0,1.0,0.0,4.0,4.0,306.1212301254272,2.0,1.0,part_1,,,,,,,,,,,,,white,cross
0.0,3.0,0.0,0.0,2.0,2.0,233.584152534604,2.0,1.0,part_1,,,,,,,,,,,,,orange,circle
105.0,6.0,2.0,1.0,2.0,2.0,315.3403233736753,2.0,1.0,part_1,,,,,,,,,,,,,yellow,hexagon
0.0,3.0,0.0,0.0,3.0,3.0,640.7025512307882,2.0,1.0,part_1,,,,,,,,,,,,,orange,circle
397.0,4.0,4.0,0.0,2.0,2.0,340.095842257142,2.0,1.0,part_1,,,,,,,,,,,,,cyan,square
202.0,7.0,3.0,1.0,1.0,1.0,265.9550439566374,2.0,1.0,part_1,,,,,,,,,,,,,gray,I
177.0,7.0,3.0,1.0,3.0,3.0,327.9143841937184,2.0,1.0,part_1,,,,,,,,,,,,,gray,I
413.0,4.0,4.0,0.0,3.0,3.0,338.2979445159435,2.0,1.0,part_1,,,,,,,,,,,,,cyan,square
0.0,7.0,0.0,1.0,1.0,1.0,271.1258167400956,2.0,1.0,part_1,,,,,,,,,,,,,gray,I
207.0,7.0,3.0,1.0,4.0,4.0,286.0803063958883,2.0,1.0,part_1,,,,,,,,,,,,,gray,I
0.0,3.0,0.0,0.0,3.0,3.0,345.3049957752228,2.0,1.0,part_1,,,,,,,,,,,,,orange,circle
75.0,6.0,2.0,1.0,4.0,4.0,305.5812213569879,2.0,1.0,part_1,,,,,,,,,,,,,yellow,hexagon
0.0,1.0,0.0,0.0,2.0,2.0,300.6020095199346,2.0,1.0,part_1,,,,,,,,,,,,,white,cross
0.0,3.0,0.0,0.0,4.0,4.0,298.6611453816294,2.0,1.0,part_1,,,,,,,,,,,,,orange,circle
92.0,2.0,2.0,0.0,4.0,4.0,283.5132768377661,2.0,1.0,part_1,,,,,,,,,,,,,magenta,flipped triangle
73.0,5.0,1.0,1.0,4.0,4.0,299.4468137621879,2.0,1.0,part_1,,,,,,,,,,,,,green,triangle
0.0,7.0,0.0,1.0,1.0,1.0,272.5509442389011,2.0,1.0,part_1,,,,,,,,,,,,,gray,I
0.0,3.0,0.0,0.0,1.0,1.0,353.4862529486418,2.0,1.0,part_1,,,,,,,,,,,,,orange,circle
90.0,2.0,2.0,0.0,1.0,1.0,304.6746542677283,2.0,1.0,part_1,,,,,,,,,,,,,magenta,flipped triangle
106.0,2.0,2.0,0.0,4.0,4.0,292.5692228600383,2.0,1.0,part_1,,,,,,,,,,,,,magenta,flipped triangle
406.0,8.0,4.0,1.0,1.0,1.0,328.3595694229007,2.0,1.0,part_1,,,,,,,,,,,,,blue,diamond
107.0,6.0,2.0,1.0,1.0,1.0,294.1120183095336,2.0,1.0,part_1,,,,,,,,,,,,,yellow,hexagon
117.0,6.0,2.0,1.0,3.0,3.0,282.8652262687683,2.0,1.0,part_1,,,,,,,,,,,,,yellow,hexagon
211.0,3.0,3.0,0.0,4.0,4.0,295.2624913305044,2.0,1.0,part_1,,,,,,,,,,,,,orange,circle
93.0,6.0,2.0,1.0,1.0,1.0,275.0020362436771,2.0,1.0,part_1,,,,,,,,,,,,,yellow,hexagon
116.0,6.0,2.0,1.0,1.0,1.0,287.0246544480324,2.0,1.0,part_1,,,,,,,,,,,,,yellow,hexagon
417.0,8.0,4.0,1.0,3.0,3.0,307.8482318669557,2.0,1.0,part_1,,,,,,,,,,,,,blue,diamond
70.0,1.0,1.0,0.0,3.0,3.0,324.6170040220022,2.0,1.0,part_1,,,,,,,,,,,,,white,cross
61.0,5.0,1.0,1.0,1.0,1.0,293.6269491910934,2.0,1.0,part_1,,,,,,,,,,,,,green,triangle
415.0,4.0,4.0,0.0,3.0,3.0,331.9484554231167,2.0,1.0,part_1,,,,,,,,,,,,,cyan,square
406.0,8.0,4.0,1.0,4.0,4.0,287.2408693656325,2.0,1.0,part_1,,,,,,,,,,,,,blue,diamond
90.0,2.0,2.0,0.0,2.0,2.0,277.4567455053329,2.0,1.0,part_1,,,,,,,,,,,,,magenta,flipped triangle
0.0,4.0,0.0,0.0,2.0,2.0,299.6234288439154,2.0,1.0,part_1,,,,,,,,,,,,,cyan,square
408.0,4.0,4.0,0.0,1.0,1.0,398.3801705762744,2.0,1.0,part_1,,,,,,,,,,,,,cyan,square
0.0,6.0,0.0,1.0,1.0,1.0,299.0222815424204,2.0,1.0,part_1,,,,,,,,,,,,,yellow,hexagon
0.0,7.0,0.0,1.0,1.0,1.0,270.330105908215,2.0,1.0,part_1,,,,,,,,,,,,,gray,I
399.0,8.0,4.0,1.0,2.0,2.0,292.5138361752033,2.0,1.0,part_1,,,,,,,,,,,,,blue,diamond
0.0,5.0,0.0,1.0,4.0,4.0,266.1768114194274,2.0,1.0,part_1,,,,,,,,,,,,,green,triangle
406.0,4.0,4.0,0.0,1.0,1.0,286.4365084096789,2.0,1.0,part_1,,,,,,,,,,,,,cyan,square
79.0,2.0,2.0,0.0,3.0,3.0,299.6100801974535,2.0,1.0,part_1,,,,,,,,,,,,,magenta,flipped triangle
0.0,5.0,0.0,1.0,3.0,3.0,344.5022469386458,2.0,1.0,part_1,,,,,,,,,,,,,green,triangle
391.0,8.0,4.0,1.0,1.0,1.0,291.5867455303669,2.0,1.0,part_1,,,,,,,,,,,,,blue,diamond
0.0,2.0,0.0,0.0,3.0,3.0,474.0405883640051,2.0,1.0,part_1,,,,,,,,,,,,,magenta,flipped triangle
0.0,8.0,0.0,1.0,1.0,1.0,347.4379880353808,2.0,1.0,part_1,,,,,,,,,,,,,blue,diamond
50.0,1.0,1.0,0.0,4.0,4.0,335.7924912124872,2.0,1.0,part_1,,,,,,,,,,,,,white,cross
26.0,1.0,1.0,0.0,2.0,2.0,316.8649831786752,2.0,1.0,part_1,,,,,,,,,,,,,white,cross
397.0,8.0,4.0,1.0,2.0,2.0,322.5096026435494,2.0,1.0,part_1,,,,,,,,,,,,,blue,diamond
0.0,5.0,0.0,1.0,4.0,4.0,278.8266027346253,2.0,1.0,part_1,,,,,,,,,,,,,green,triangle
53.0,5.0,1.0,1.0,1.0,1.0,286.6228623315692,2.0,1.0,part_1,,,,,,,,,,,,,green,triangle
35.0,1.0,1.0,0.0,2.0,2.0,328.2640520483255,2.0,1.0,part_1,,,,,,,,,,,,,white,cross
404.0,4.0,4.0,0.0,2.0,2.0,323.834883980453,2.0,1.0,part_1,,,,,,,,,,,,,cyan,square
386.0,8.0,4.0,1.0,4.0,4.0,298.3368253335356,2.0,1.0,part_1,,,,,,,,,,,,,blue,diamond
79.0,6.0,2.0,1.0,3.0,3.0,343.4434495866298,2.0,1.0,part_1,,,,,,,,,,,,,yellow,hexagon
84.0,6.0,2.0,1.0,2.0,2.0,294.149037450552,2.0,1.0,part_1,,,,,,,,,,,,,yellow,hexagon
391.0,4.0,4.0,0.0,4.0,4.0,282.3486002162099,2.0,1.0,part_1,,,,,,,,,,,,,cyan,square
116.0,2.0,2.0,0.0,1.0,1.0,318.7083965167403,2.0,1.0,part_1,,,,,,,,,,,,,magenta,flipped triangle
117.0,6.0,2.0,1.0,1.0,1.0,297.2807800397277,2.0,1.0,part_1,,,,,,,,,,,,,yellow,hexagon
417.0,4.0,4.0,0.0,1.0,1.0,326.7920818179846,2.0,1.0,part_1,,,,,,,,,,,,,cyan,square
43.0,1.0,1.0,0.0,1.0,1.0,297.3566530272364,2.0,1.0,part_1,,,,,,,,,,,,,white,cross
40.0,5.0,1.0,1.0,4.0,4.0,278.485762886703,2.0,1.0,part_1,,,,,,,,,,,,,green,triangle
35.0,5.0,1.0,1.0,3.0,3.0,356.6957386210561,2.0,1.0,part_1,,,,,,,,,,,,,green,triangle
0.0,2.0,0.0,0.0,3.0,3.0,351.345170289278,2.0,2.0,part_1,,,,,,,,,,,,,magenta,flipped triangle
65.0,1.0,1.0,0.0,3.0,3.0,380.6773507967591,2.0,1.0,part_1,,,,,,,,,,,,,white,cross
210.0,3.0,3.0,0.0,1.0,1.0,424.042534083128,2.0,1.0,part_1,,,,,,,,,,,,,orange,circle
196.0,3.0,3.0,0.0,2.0,2.0,362.3142428696155,2.0,1.0,part_1,,,,,,,,,,,,,orange,circle
218.0,7.0,3.0,1.0,4.0,4.0,313.0529066547751,2.0,1.0,part_1,,,,,,,,,,,,,gray,I
0.0,4.0,0.0,0.0,1.0,1.0,414.6433612331748,2.0,1.0,part_1,,,,,,,,,,,,,cyan,square
93.0,6.0,2.0,1.0,1.0,1.0,347.583319991827,2.0,1.0,part_1,,,,,,,,,,,,,yellow,hexagon
107.0,6.0,2.0,1.0,1.0,1.0,336.2483158707618,2.0,1.0,part_1,,,,,,,,,,,,,yellow,hexagon
222.0,3.0,3.0,0.0,3.0,3.0,290.5564615502953,2.0,1.0,part_1,,,,,,,,,,,,,orange,circle
0.0,3.0,0.0,0.0,1.0,1.0,352.6764344424009,2.0,1.0,part_1,,,,,,,,,,,,,orange,circle
84.0,2.0,2.0,0.0,2.0,2.0,307.1489194408059,2.0,1.0,part_1,,,,,,,,,,,,,magenta,flipped triangle
0.0,5.0,0.0,1.0,2.0,2.0,287.8364166244864,2.0,1.0,part_1,,,,,,,,,,,,,green,triangle
78.0,6.0,2.0,1.0,2.0,2.0,303.0845075845718,2.0,1.0,part_1,,,,,,,,,,,,,yellow,hexagon
88.0,2.0,2.0,0.0,2.0,2.0,347.2868483513593,2.0,1.0,part_1,,,,,,,,,,,,,magenta,flipped triangle
393.0,8.0,4.0,1.0,3.0,3.0,345.5638578161597,2.0,1.0,part_1,,,,,,,,,,,,,blue,diamond
0.0,6.0,0.0,1.0,3.0,3.0,316.0965926945209,2.0,1.0,part_1,,,,,,,,,,,,,yellow,hexagon
57.0,5.0,1.0,1.0,1.0,1.0,320.0687868520617,2.0,1.0,part_1,,,,,,,,,,,,,green,triangle
179.0,3.0,3.0,0.0,2.0,2.0,327.2052016109228,2.0,1.0,part_1,,,,,,,,,,,,,orange,circle
216.0,3.0,3.0,0.0,2.0,2.0,306.6084422171116,2.0,1.0,part_1,,,,,,,,,,,,,orange,circle
391.0,4.0,4.0,0.0,3.0,3.0,381.2655108049512,2.0,1.0,part_1,,,,,,,,,,,,,cyan,square
213.0,3.0,3.0,0.0,2.0,2.0,340.8317444846034,3.0,1.0,part_1,,,,,,,,,,,,,orange,circle
383.0,8.0,4.0,1.0,2.0,2.0,299.7677279636264,3.0,1.0,part_1,,,,,,,,,,,,,blue,diamond
0.0,7.0,0.0,1.0,3.0,3.0,336.831989698112,3.0,1.0,part_1,,,,,,,,,,,,,gray,I
381.0,8.0,4.0,1.0,3.0,3.0,307.4924983084202,3.0,1.0,part_1,,,,,,,,,,,,,blue,diamond
0.0,5.0,0.0,1.0,2.0,2.0,291.4757123216986,3.0,1.0,part_1,,,,,,,,,,,,,green,triangle
381.0,4.0,4.0,0.0,4.0,4.0,277.5763645768165,3.0,1.0,part_1,,,,,,,,,,,,,cyan,square
27.0,5.0,1.0,1.0,3.0,3.0,377.5863293558359,3.0,1.0,part_1,,,,,,,,,,,,,green,triangle
64.0,5.0,1.0,1.0,1.0,1.0,270.5027274787426,3.0,1.0,part_1,,,,,,,,,,,,,green,triangle
182.0,3.0,3.0,0.0,1.0,1.0,410.719146952033,3.0,1.0,part_1,,,,,,,,,,,,,orange,circle
409.0,4.0,4.0,0.0,3.0,3.0,299.0385126322508,3.0,1.0,part_1,,,,,,,,,,,,,cyan,square
220.0,7.0,3.0,1.0,2.0,2.0,271.0246620699763,3.0,1.0,part_1,,,,,,,,,,,,,gray,I
0.0,5.0,0.0,1.0,3.0,3.0,329.3622778728604,3.0,1.0,part_1,,,,,,,,,,,,,green,triangle
68.0,1.0,1.0,0.0,1.0,1.0,237.6177404075861,3.0,1.0,part_1,,,,,,,,,,,,,white,cross
0.0,1.0,0.0,0.0,4.0,4.0,282.3808370158076,3.0,1.0,part_1,,,,,,,,,,,,,white,cross
188.0,3.0,3.0,0.0,2.0,2.0,248.3298778533935,3.0,1.0,part_1,,,,,,,,,,,,,orange,circle
193.0,3.0,3.0,0.0,3.0,3.0,389.9309113621712,3.0,1.0,part_1,,,,,,,,,,,,,orange,circle
204.0,7.0,3.0,1.0,2.0,2.0,336.7346683517098,3.0,1.0,part_1,,,,,,,,,,,,,gray,I
399.0,4.0,4.0,0.0,1.0,1.0,286.7993982508778,3.0,1.0,part_1,,,,,,,,,,,,,cyan,square
376.0,4.0,4.0,0.0,1.0,1.0,339.1087418422103,3.0,1.0,part_1,,,,,,,,,,,,,cyan,square
57.0,1.0,1.0,0.0,3.0,3.0,289.2118012532592,3.0,1.0,part_1,,,,,,,,,,,,,white,cross
0.0,5.0,0.0,1.0,1.0,1.0,285.2420881390571,3.0,1.0,part_1,,,,,,,,,,,,,green,triangle
55.0,5.0,1.0,1.0,2.0,2.0,319.8978910222649,3.0,1.0,part_1,,,,,,,,,,,,,green,triangle
379.0,8.0,4.0,1.0,1.0,1.0,334.1373819857836,3.0,1.0,part_1,,,,,,,,,,,,,blue,diamond
0.0,4.0,0.0,0.0,4.0,4.0,323.756830766797,3.0,1.0,part_1,,,,,,,,,,,,,cyan,square
0.0,6.0,0.0,1.0,4.0,4.0,317.6836231723428,3.0,1.0,part_1,,,,,,,,,,,,,yellow,hexagon
29.0,5.0,1.0,1.0,3.0,3.0,733.7136892601848,3.0,1.0,part_1,,,,,,,,,,,,,green,triangle
180.0,7.0,3.0,1.0,3.0,3.0,383.4511572495103,3.0,1.0,part_1,,,,,,,,,,,,,gray,I
87.0,6.0,2.0,1.0,2.0,2.0,303.1062139198184,3.0,1.0,part_1,,,,,,,,,,,,,yellow,hexagon
0.0,8.0,0.0,1.0,3.0,3.0,329.5279145240783,3.0,1.0,part_1,,,,,,,,,,,,,blue,diamond
0.0,2.0,0.0,0.0,2.0,2.0,309.1106181964278,3.0,1.0,part_1,,,,,,,,,,,,,magenta,flipped triangle
214.0,3.0,3.0,0.0,2.0,2.0,325.0663923099637,3.0,1.0,part_1,,,,,,,,,,,,,orange,circle
107.0,2.0,2.0,0.0,1.0,1.0,290.371811017394,3.0,1.0,part_1,,,,,,,,,,,,,magenta,flipped triangle
35.0,5.0,1.0,1.0,3.0,3.0,270.2712127938866,3.0,1.0,part_1,,,,,,,,,,,,,green,triangle
106.0,6.0,2.0,1.0,4.0,4.0,307.0618128404021,3.0,1.0,part_1,,,,,,,,,,,,,yellow,hexagon
191.0,3.0,3.0,0.0,1.0,1.0,292.7501359954476,3.0,1.0,part_1,,,,,,,,,,,,,orange,circle
203.0,3.0,3.0,0.0,1.0,1.0,301.1127831414342,3.0,1.0,part_1,,,,,,,,,,,,,orange,circle
123.0,2.0,2.0,0.0,2.0,2.0,378.5274429246783,3.0,2.0,part_1,,,,,,,,,,,,,magenta,flipped triangle
393.0,4.0,4.0,0.0,2.0,2.0,362.5471098348498,3.0,1.0,part_1,,,,,,,,,,,,,cyan,square
402.0,4.0,4.0,0.0,4.0,4.0,318.4559494256973,3.0,1.0,part_1,,,,,,,,,,,,,cyan,square
0.0,7.0,0.0,1.0,3.0,3.0,272.8419136255979,3.0,1.0,part_1,,,,,,,,,,,,,gray,I
183.0,3.0,3.0,0.0,3.0,3.0,320.6688677892089,3.0,1.0,part_1,,,,,,,,,,,,,orange,circle
0.0,6.0,0.0,1.0,4.0,4.0,341.7573440819978,3.0,1.0,part_1,,,,,,,,,,,,,yellow,hexagon
26.0,5.0,1.0,1.0,4.0,4.0,337.1789660304785,3.0,1.0,part_1,,,,,,,,,,,,,green,triangle
35.0,1.0,1.0,0.0,4.0,4.0,358.080068603158,3.0,1.0,part_1,,,,,,,,,,,,,white,cross
187.0,7.0,3.0,1.0,4.0,4.0,362.8917932510376,3.0,1.0,part_1,,,,,,,,,,,,,gray,I
377.0,4.0,4.0,0.0,1.0,1.0,280.1917362958193,3.0,1.0,part_1,,,,,,,,,,,,,cyan,square
0.0,2.0,0.0,0.0,3.0,3.0,333.7565381079912,3.0,1.0,part_1,,,,,,,,,,,,,magenta,flipped triangle
36.0,1.0,1.0,0.0,1.0,1.0,575.0868953764439,3.0,1.0,part_1,,,,,,,,,,,,,white,cross
205.0,3.0,3.0,0.0,1.0,1.0,491.5687078610062,3.0,1.0,part_1,,,,,,,,,,,,,orange,circle
50.0,5.0,1.0,1.0,3.0,3.0,329.3887563049793,3.0,1.0,part_1,,,,,,,,,,,,,green,triangle
212.0,7.0,3.0,1.0,3.0,3.0,316.9758627191186,3.0,1.0,part_1,,,,,,,,,,,,,gray,I
383.0,4.0,4.0,0.0,4.0,4.0,320.7241808995604,3.0,1.0,part_1,,,,,,,,,,,,,cyan,square
424.0,4.0,4.0,0.0,2.0,2.0,238.3579760789871,3.0,1.0,part_1,,,,,,,,,,,,,cyan,square
184.0,7.0,3.0,1.0,3.0,3.0,316.2990771234035,3.0,1.0,part_1,,,,,,,,,,,,,gray,I
188.0,7.0,3.0,1.0,2.0,2.0,304.4771458953619,3.0,1.0,part_1,,,,,,,,,,,,,gray,I
380.0,8.0,4.0,1.0,1.0,1.0,283.4946233779192,3.0,1.0,part_1,,,,,,,,,,,,,blue,diamond
67.0,5.0,1.0,1.0,1.0,1.0,328.9415957406163,3.0,1.0,part_1,,,,,,,,,,,,,green,triangle
115.0,2.0,2.0,0.0,2.0,2.0,339.9694180116057,3.0,2.0,part_1,,,,,,,,,,,,,magenta,flipped triangle
397.0,8.0,4.0,1.0,3.0,3.0,312.5857170671224,3.0,1.0,part_1,,,,,,,,,,,,,blue,diamond
0.0,6.0,0.0,1.0,1.0,1.0,358.7322365492582,3.0,1.0,part_1,,,,,,,,,,,,,yellow,hexagon
0.0,2.0,0.0,0.0,1.0,1.0,336.3891532644629,3.0,1.0,part_1,,,,,,,,,,,,,magenta,flipped triangle
70.0,5.0,1.0,1.0,4.0,4.0,294.6975715458393,3.0,1.0,part_1,,,,,,,,,,,,,green,triangle
222.0,7.0,3.0,1.0,1.0,1.0,331.5407820045948,3.0,1.0,part_1,,,,,,,,,,,,,gray,I
32.0,1.0,1.0,0.0,3.0,3.0,302.4922627955675,3.0,1.0,part_1,,,,,,,,,,,,,white,cross
208.0,3.0,3.0,0.0,4.0,4.0,333.9567715302109,3.0,1.0,part_1,,,,,,,,,,,,,orange,circle
88.0,6.0,2.0,1.0,4.0,4.0,313.4637484326958,3.0,1.0,part_1,,,,,,,,,,,,,yellow,hexagon
46.0,5.0,1.0,1.0,2.0,2.0,309.5164410769939,3.0,1.0,part_1,,,,,,,,,,,,,green,triangle
107.0,2.0,2.0,0.0,3.0,3.0,322.8326244279742,3.0,1.0,part_1,,,,,,,,,,,,,magenta,flipped triangle
191.0,7.0,3.0,1.0,2.0,2.0,333.8232021778822,3.0,1.0,part_1,,,,,,,,,,,,,gray,I
0.0,8.0,0.0,1.0,4.0,4.0,323.8874487578869,3.0,1.0,part_1,,,,,,,,,,,,,blue,diamond
99.0,6.0,2.0,1.0,3.0,3.0,337.8107436001301,3.0,1.0,part_1,,,,,,,,,,,,,yellow,hexagon
180.0,3.0,3.0,0.0,3.0,3.0,472.7526688948273,3.0,2.0,part_1,,,,,,,,,,,,,orange,circle
58.0,5.0,1.0,1.0,1.0,1.0,364.8973517119884,3.0,1.0,part_1,,,,,,,,,,,,,green,triangle
117.0,2.0,2.0,0.0,3.0,3.0,364.073459059,3.0,1.0,part_1,,,,,,,,,,,,,magenta,flipped triangle
0.0,8.0,0.0,1.0,1.0,1.0,359.9135698750615,3.0,1.0,part_1,,,,,,,,,,,,,blue,diamond
0.0,6.0,0.0,1.0,3.0,3.0,302.9496558010578,3.0,1.0,part_1,,,,,,,,,,,,,yellow,hexagon
37.0,5.0,1.0,1.0,1.0,1.0,346.9396308064461,3.0,1.0,part_1,,,,,,,,,,,,,green,triangle
207.0,7.0,3.0,1.0,1.0,1.0,352.3052334785461,3.0,1.0,part_1,,,,,,,,,,,,,gray,I
120.0,2.0,2.0,0.0,3.0,3.0,457.7004108577966,3.0,1.0,part_1,,,,,,,,,,,,,magenta,flipped triangle
80.0,2.0,2.0,0.0,3.0,3.0,328.6717720329761,3.0,1.0,part_1,,,,,,,,,,,,,magenta,flipped triangle
61.0,5.0,1.0,1.0,2.0,2.0,276.8069207668304,3.0,1.0,part_1,,,,,,,,,,,,,green,triangle
105.0,2.0,2.0,0.0,3.0,3.0,463.3462782949209,3.0,2.0,part_1,,,,,,,,,,,,,magenta,flipped triangle
0.0,1.0,0.0,0.0,2.0,2.0,353.2212395220995,3.0,1.0,part_1,,,,,,,,,,,,,white,cross
377.0,8.0,4.0,1.0,4.0,4.0,320.0830779969692,3.0,1.0,part_1,,,,,,,,,,,,,blue,diamond
0.0,6.0,0.0,1.0,1.0,1.0,316.3541108369827,3.0,1.0,part_1,,,,,,,,,,,,,yellow,hexagon
425.0,4.0,4.0,0.0,3.0,3.0,417.0881537720561,3.0,1.0,part_1,,,,,,,,,,,,,cyan,square
216.0,3.0,3.0,0.0,1.0,1.0,306.8048618733883,3.0,1.0,part_1,,,,,,,,,,,,,orange,circle
419.0,4.0,4.0,0.0,4.0,4.0,352.5148592889309,3.0,1.0,part_1,,,,,,,,,,,,,cyan,square
0.0,2.0,0.0,0.0,4.0,4.0,309.0354865416884,3.0,1.0,part_1,,,,,,,,,,,,,magenta,flipped triangle
394.0,4.0,4.0,0.0,4.0,4.0,316.0491455346346,3.0,1.0,part_1,,,,,,,,,,,,,cyan,square
65.0,5.0,1.0,1.0,3.0,3.0,347.5039768964052,3.0,2.0,part_1,,,,,,,,,,,,,green,triangle
27.0,1.0,1.0,0.0,1.0,1.0,536.1913433298469,3.0,1.0,part_1,,,,,,,,,,,,,white,cross
123.0,6.0,2.0,1.0,1.0,1.0,547.9629468172789,3.0,1.0,part_1,,,,,,,,,,,,,yellow,hexagon
224.0,3.0,3.0,0.0,4.0,4.0,336.6202656179666,3.0,1.0,part_1,,,,,,,,,,,,,orange,circle
26.0,5.0,1.0,1.0,1.0,1.0,336.4695161581039,3.0,1.0,part_1,,,,,,,,,,,,,green,triangle
184.0,3.0,3.0,0.0,2.0,2.0,357.5387764722109,3.0,1.0,part_1,,,,,,,,,,,,,orange,circle
87.0,2.0,2.0,0.0,1.0,1.0,368.7435165047645,3.0,1.0,part_1,,,,,,,,,,,,,magenta,flipped triangle
122.0,2.0,2.0,0.0,1.0,1.0,350.1597549766302,3.0,1.0,part_1,,,,,,,,,,,,,magenta,flipped triangle
0.0,4.0,0.0,0.0,4.0,4.0,353.1369650736451,3.0,1.0,part_1,,,,,,,,,,,,,cyan,square
62.0,1.0,1.0,0.0,3.0,3.0,336.7041954770684,3.0,1.0,part_1,,,,,,,,,,,,,white,cross
193.0,7.0,3.0,1.0,3.0,3.0,400.7489569485187,4.0,1.0,part_1,,,,,,,,,,,,,gray,I
0.0,4.0,0.0,0.0,4.0,4.0,330.4612161591649,4.0,1.0,part_1,,,,,,,,,,,,,cyan,square
67.0,1.0,1.0,0.0,2.0,2.0,295.5398419871926,4.0,1.0,part_1,,,,,,,,,,,,,white,cross
219.0,3.0,3.0,0.0,1.0,1.0,394.8159320279956,4.0,1.0,part_1,,,,,,,,,,,,,orange,circle
183.0,7.0,3.0,1.0,2.0,2.0,367.7333211526274,4.0,1.0,part_1,,,,,,,,,,,,,gray,I
0.0,1.0,0.0,0.0,2.0,2.0,453.4766906872391,4.0,1.0,part_1,,,,,,,,,,,,,white,cross
87.0,2.0,2.0,0.0,3.0,3.0,372.1831422299146,4.0,1.0,part_1,,,,,,,,,,,,,magenta,flipped triangle
75.0,5.0,1.0,1.0,2.0,2.0,304.9878571182489,4.0,1.0,part_1,,,,,,,,,,,,,green,triangle
179.0,7.0,3.0,1.0,4.0,4.0,365.1717621833086,4.0,1.0,part_1,,,,,,,,,,,,,gray,I
36.0,5.0,1.0,1.0,2.0,2.0,337.7437759190798,4.0,1.0,part_1,,,,,,,,,,,,,green,triangle
124.0,2.0,2.0,0.0,4.0,4.0,399.9821078032255,4.0,1.0,part_1,,,,,,,,,,,,,magenta,flipped triangle
214.0,7.0,3.0,1.0,3.0,3.0,560.5973899364471,4.0,1.0,part_1,,,,,,,,,,,,,gray,I
100.0,2.0,2.0,0.0,2.0,2.0,344.2476587370038,4.0,1.0,part_1,,,,,,,,,,,,,magenta,flipped triangle
29.0,1.0,1.0,0.0,4.0,4.0,282.61155821383,4.0,1.0,part_1,,,,,,,,,,,,,white,cross
90.0,6.0,2.0,1.0,1.0,1.0,336.688831448555,4.0,1.0,part_1,,,,,,,,,,,,,yellow,hexagon
419.0,8.0,4.0,1.0,2.0,2.0,317.0746937394142,4.0,1.0,part_1,,,,,,,,,,,,,blue,diamond
107.0,2.0,2.0,0.0,4.0,4.0,312.7473155036568,4.0,1.0,part_1,,,,,,,,,,,,,magenta,flipped triangle
122.0,6.0,2.0,1.0,4.0,4.0,365.3671070933342,4.0,1.0,part_1,,,,,,,,,,,,,yellow,hexagon
181.0,7.0,3.0,1.0,1.0,1.0,315.8086286857724,4.0,1.0,part_1,,,,,,,,,,,,,gray,I
207.0,3.0,3.0,0.0,4.0,4.0,311.9884133338928,4.0,1.0,part_1,,,,,,,,,,,,,orange,circle
222.0,7.0,3.0,1.0,2.0,2.0,284.5730567350983,4.0,1.0,part_1,,,,,,,,,,,,,gray,I
401.0,4.0,4.0,0.0,3.0,3.0,314.0576258301735,4.0,1.0,part_1,,,,,,,,,,,,,cyan,square
390.0,8.0,4.0,1.0,2.0,2.0,340.1269111782312,4.0,1.0,part_1,,,,,,,,,,,,,blue,diamond
80.0,6.0,2.0,1.0,3.0,3.0,385.4948151856661,4.0,1.0,part_1,,,,,,,,,,,,,yellow,hexagon
101.0,6.0,2.0,1.0,3.0,3.0,391.1196338012814,4.0,1.0,part_1,,,,,,,,,,,,,yellow,hexagon
0.0,7.0,0.0,1.0,2.0,2.0,316.4967950433492,4.0,1.0,part_1,,,,,,,,,,,,,gray,I
187.0,7.0,3.0,1.0,4.0,4.0,330.4688334465027,4.0,1.0,part_1,,,,,,,,,,,,,gray,I
424.0,8.0,4.0,1.0,4.0,4.0,300.3906048834324,4.0,1.0,part_1,,,,,,,,,,,,,blue,diamond
179.0,3.0,3.0,0.0,2.0,2.0,298.215489834547,4.0,1.0,part_1,,,,,,,,,,,,,orange,circle
107.0,6.0,2.0,1.0,3.0,3.0,348.9933414384722,4.0,1.0,part_1,,,,,,,,,,,,,yellow,hexagon
415.0,8.0,4.0,1.0,1.0,1.0,298.3001163229346,4.0,1.0,part_1,,,,,,,,,,,,,blue,diamond
0.0,8.0,0.0,1.0,3.0,3.0,382.446707226336,4.0,1.0,part_1,,,,,,,,,,,,,blue,diamond
0.0,3.0,0.0,0.0,4.0,4.0,341.3355425000191,4.0,1.0,part_1,,,,,,,,,,,,,orange,circle
92.0,6.0,2.0,1.0,1.0,1.0,291.3439739495516,4.0,1.0,part_1,,,,,,,,,,,,,yellow,hexagon
45.0,1.0,1.0,0.0,1.0,1.0,295.3760251402855,4.0,1.0,part_1,,,,,,,,,,,,,white,cross
58.0,1.0,1.0,0.0,2.0,2.0,290.5946606770158,4.0,1.0,part_1,,,,,,,,,,,,,white,cross
200.0,3.0,3.0,0.0,3.0,3.0,367.6508599892258,4.0,1.0,part_1,,,,,,,,,,,,,orange,circle
406.0,4.0,4.0,0.0,2.0,2.0,331.9200444966554,4.0,1.0,part_1,,,,,,,,,,,,,cyan,square
222.0,3.0,3.0,0.0,2.0,2.0,351.7742520198226,4.0,1.0,part_1,,,,,,,,,,,,,orange,circle
32.0,5.0,1.0,1.0,1.0,1.0,337.1628364548087,4.0,2.0,part_1,,,,,,,,,,,,,green,triangle
187.0,3.0,3.0,0.0,4.0,4.0,343.7035754323005,4.0,1.0,part_1,,,,,,,,,,,,,orange,circle
377.0,4.0,4.0,0.0,1.0,1.0,401.4599872753024,4.0,1.0,part_1,,,,,,,,,,,,,cyan,square
0.0,2.0,0.0,0.0,3.0,3.0,336.9269063696265,4.0,1.0,part_1,,,,,,,,,,,,,magenta,flipped triangle
413.0,8.0,4.0,1.0,1.0,1.0,308.6898345500231,4.0,1.0,part_1,,,,,,,,,,,,,blue,diamond
0.0,4.0,0.0,0.0,2.0,2.0,327.9405431821942,4.0,1.0,part_1,,,,,,,,,,,,,cyan,square
386.0,4.0,4.0,0.0,4.0,4.0,399.3761232122779,4.0,1.0,part_1,,,,,,,,,,,,,cyan,square
183.0,3.0,3.0,0.0,3.0,3.0,410.9150739386678,4.0,1.0,part_1,,,,,,,,,,,,,orange,circle
380.0,4.0,4.0,0.0,4.0,4.0,433.347831480205,4.0,1.0,part_1,,,,,,,,,,,,,cyan,square
0.0,1.0,0.0,0.0,2.0,2.0,380.6870644912123,4.0,1.0,part_1,,,,,,,,,,,,,white,cross
52.0,5.0,1.0,1.0,4.0,4.0,338.948686607182,4.0,1.0,part_1,,,,,,,,,,,,,green,triangle
0.0,4.0,0.0,0.0,1.0,1.0,308.3630315959453,4.0,1.0,part_1,,,,,,,,,,,,,cyan,square
0.0,8.0,0.0,1.0,3.0,3.0,434.2637928202748,4.0,1.0,part_1,,,,,,,,,,,,,blue,diamond
200.0,7.0,3.0,1.0,4.0,4.0,528.3210426568985,4.0,1.0,part_1,,,,,,,,,,,,,gray,I
100.0,6.0,2.0,1.0,4.0,4.0,468.1176571175456,4.0,1.0,part_1,,,,,,,,,,,,,yellow,hexagon
30.0,1.0,1.0,0.0,2.0,2.0,489.7117596119642,4.0,1.0,part_1,,,,,,,,,,,,,white,cross
208.0,7.0,3.0,1.0,1.0,1.0,500.88926311582327,4.0,1.0,part_1,,,,,,,,,,,,,gray,I
211.0,7.0,3.0,1.0,1.0,1.0,327.9011994600296,4.0,1.0,part_1,,,,,,,,,,,,,gray,I
0.0,2.0,0.0,0.0,1.0,1.0,468.5596721246838,4.0,1.0,part_1,,,,,,,,,,,,,magenta,flipped triangle
40.0,1.0,1.0,0.0,2.0,2.0,794.5984434336424,4.0,1.0,part_1,,,,,,,,,,,,,white,cross
110.0,6.0,2.0,1.0,4.0,4.0,512.7270333468914,4.0,1.0,part_1,,,,,,,,,,,,,yellow,hexagon
65.0,1.0,1.0,0.0,3.0,3.0,382.6199052855372,4.0,1.0,part_1,,,,,,,,,,,,,white,cross
67.0,5.0,1.0,1.0,2.0,2.0,376.031955704093,4.0,1.0,part_1,,,,,,,,,,,,,green,triangle
377.0,8.0,4.0,1.0,2.0,2.0,348.296963609755,4.0,1.0,part_1,,,,,,,,,,,,,blue,diamond
0.0,7.0,0.0,1.0,4.0,4.0,300.6599210202694,4.0,1.0,part_1,,,,,,,,,,,,,gray,I
416.0,8.0,4.0,1.0,2.0,2.0,320.5299386754632,4.0,1.0,part_1,,,,,,,,,,,,,blue,diamond
76.0,2.0,2.0,0.0,4.0,4.0,299.0686595439911,4.0,1.0,part_1,,,,,,,,,,,,,magenta,flipped triangle
71.0,1.0,1.0,0.0,1.0,1.0,311.970111913979,4.0,1.0,part_1,,,,,,,,,,,,,white,cross
413.0,8.0,4.0,1.0,3.0,3.0,283.7168611586094,4.0,1.0,part_1,,,,,,,,,,,,,blue,diamond
61.0,1.0,1.0,0.0,4.0,4.0,352.8130231425166,4.0,1.0,part_1,,,,,,,,,,,,,white,cross
125.0,2.0,2.0,0.0,4.0,4.0,375.421229749918,4.0,1.0,part_1,,,,,,,,,,,,,magenta,flipped triangle
46.0,1.0,1.0,0.0,4.0,4.0,337.484716437757,4.0,1.0,part_1,,,,,,,,,,,,,white,cross
416.0,4.0,4.0,0.0,2.0,2.0,305.0377964973449,4.0,1.0,part_1,,,,,,,,,,,,,cyan,square
182.0,7.0,3.0,1.0,4.0,4.0,292.0654090121388,4.0,1.0,part_1,,,,,,,,,,,,,gray,I
413.0,4.0,4.0,0.0,3.0,3.0,287.5039242208004,4.0,1.0,part_1,,,,,,,,,,,,,cyan,square
0.0,3.0,0.0,0.0,3.0,3.0,358.431882224977,4.0,1.0,part_1,,,,,,,,,,,,,orange,circle
385.0,8.0,4.0,1.0,2.0,2.0,434.9323567003011,4.0,1.0,part_1,,,,,,,,,,,,,blue,diamond
395.0,4.0,4.0,0.0,4.0,4.0,295.2346047386527,4.0,1.0,part_1,,,,,,,,,,,,,cyan,square
0.0,4.0,0.0,0.0,1.0,1.0,449.1795282810926,4.0,2.0,part_1,,,,,,,,,,,,,cyan,square
0.0,5.0,0.0,1.0,2.0,2.0,445.2688610181212,4.0,1.0,part_1,,,,,,,,,,,,,green,triangle
183.0,7.0,3.0,1.0,1.0,1.0,313.1356444209814,4.0,1.0,part_1,,,,,,,,,,,,,gray,I
61.0,1.0,1.0,0.0,1.0,1.0,311.7190292105078,4.0,1.0,part_1,,,,,,,,,,,,,white,cross
414.0,4.0,4.0,0.0,3.0,3.0,332.1031630039215,4.0,1.0,part_1,,,,,,,,,,,,,cyan,square
384.0,4.0,4.0,0.0,2.0,2.0,398.4641637653112,4.0,1.0,part_1,,,,,,,,,,,,,cyan,square
177.0,3.0,3.0,0.0,3.0,3.0,325.0482631847262,4.0,1.0,part_1,,,,,,,,,,,,,orange,circle
0.0,8.0,0.0,1.0,4.0,4.0,329.5483915135264,4.0,1.0,part_1,,,,,,,,,,,,,blue,diamond
30.0,5.0,1.0,1.0,4.0,4.0,455.9666011482477,4.0,1.0,part_1,,,,,,,,,,,,,green,triangle
43.0,5.0,1.0,1.0,2.0,2.0,361.2675387412309,4.0,1.0,part_1,,,,,,,,,,,,,green,triangle
223.0,3.0,3.0,0.0,3.0,3.0,352.5186087936163,4.0,1.0,part_1,,,,,,,,,,,,,orange,circle
210.0,7.0,3.0,1.0,4.0,4.0,485.7553290203213,4.0,1.0,part_1,,,,,,,,,,,,,gray,I
385.0,4.0,4.0,0.0,2.0,2.0,345.6994714215398,4.0,1.0,part_1,,,,,,,,,,,,,cyan,square
125.0,6.0,2.0,1.0,3.0,3.0,496.3005455210805,4.0,1.0,part_1,,,,,,,,,,,,,yellow,hexagon
100.0,2.0,2.0,0.0,4.0,4.0,700.8177442476153,4.0,1.0,part_1,,,,,,,,,,,,,magenta,flipped triangle
394.0,8.0,4.0,1.0,2.0,2.0,397.2817873582244,4.0,1.0,part_1,,,,,,,,,,,,,blue,diamond
75.0,1.0,1.0,0.0,3.0,3.0,323.7464800477028,4.0,1.0,part_1,,,,,,,,,,,,,white,cross
0.0,8.0,0.0,1.0,4.0,4.0,328.8375195115804,4.0,1.0,part_1,,,,,,,,,,,,,blue,diamond
223.0,7.0,3.0,1.0,2.0,2.0,302.7126574888825,4.0,1.0,part_1,,,,,,,,,,,,,gray,I
97.0,6.0,2.0,1.0,4.0,4.0,323.6142946407199,4.0,1.0,part_1,,,,,,,,,,,,,yellow,hexagon
220.0,3.0,3.0,0.0,4.0,4.0,336.096802726388,4.0,1.0,part_1,,,,,,,,,,,,,orange,circle
117.0,6.0,2.0,1.0,4.0,4.0,315.7698819413781,4.0,1.0,part_1,,,,,,,,,,,,,yellow,hexagon
0.0,7.0,0.0,1.0,4.0,4.0,294.9773678556084,4.0,1.0,part_1,,,,,,,,,,,,,gray,I
0.0,3.0,3.0,0.0,5.0,5.0,630.0034429877996,1.0,0.0,part_2,go,250.0,250.0,1.0,,,,,,,,,orange,circle
0.0,4.0,4.0,0.0,6.0,6.0,394.5013778284192,1.0,0.0,part_2,go,250.0,250.0,1.0,,,,,,,,,cyan,square
0.0,7.0,3.0,1.0,5.0,0.0,0.0,1.0,0.0,part_2,stop,250.0,250.0,4.0,,,,,,,,,gray,I
0.0,1.0,1.0,0.0,5.0,5.0,722.4954953417182,1.0,0.0,part_2,go,300.0,250.0,1.0,,,,,,,,,white,cross
0.0,7.0,3.0,1.0,5.0,0.0,0.0,1.0,0.0,part_2,stop,300.0,250.0,4.0,,,,,,,,,gray,I
0.0,4.0,4.0,0.0,6.0,6.0,354.0389230474829,1.0,0.0,part_2,go,350.0,250.0,1.0,,,,,,,,,cyan,square
0.0,2.0,2.0,0.0,6.0,6.0,312.0071412995457,1.0,0.0,part_2,go,350.0,250.0,1.0,,,,,,,,,magenta,flipped triangle
0.0,5.0,1.0,1.0,6.0,6.0,391.705053858459,1.0,0.0,part_2,go,350.0,250.0,1.0,,,,,,,,,green,triangle
0.0,6.0,2.0,1.0,6.0,6.0,343.0557567626238,1.0,0.0,part_2,go,350.0,250.0,1.0,,,,,,,,,yellow,hexagon
0.0,5.0,1.0,1.0,5.0,5.0,565.7347571104765,1.0,0.0,part_2,go,350.0,250.0,1.0,,,,,,,,,green,triangle
0.0,4.0,4.0,0.0,5.0,5.0,321.6778980568051,1.0,0.0,part_2,go,350.0,250.0,1.0,,,,,,,,,cyan,square
0.0,1.0,1.0,0.0,6.0,6.0,277.1277641877532,1.0,0.0,part_2,go,350.0,250.0,1.0,,,,,,,,,white,cross
0.0,3.0,3.0,0.0,6.0,6.0,351.1878745630383,1.0,0.0,part_2,go,350.0,250.0,1.0,,,,,,,,,orange,circle
0.0,8.0,4.0,1.0,5.0,5.0,276.924192905426,1.0,0.0,part_2,stop,350.0,250.0,3.0,,,,,,,,,blue,diamond
0.0,3.0,3.0,0.0,6.0,6.0,581.0789884999394,1.0,0.0,part_2,go,300.0,250.0,1.0,,,,,,,,,orange,circle
0.0,6.0,2.0,1.0,5.0,5.0,244.9161009863019,1.0,0.0,part_2,stop,300.0,250.0,3.0,,,,,,,,,yellow,hexagon
0.0,7.0,3.0,1.0,6.0,0.0,0.0,1.0,0.0,part_2,stop,250.0,250.0,4.0,,,,,,,,,gray,I
0.0,2.0,2.0,0.0,6.0,6.0,540.9739939495921,1.0,0.0,part_2,go,250.0,300.0,1.0,,,,,,,,,magenta,flipped triangle
0.0,6.0,2.0,1.0,6.0,6.0,369.7538608685136,1.0,0.0,part_2,stop,250.0,300.0,3.0,,,,,,,,,yellow,hexagon
0.0,7.0,3.0,1.0,6.0,0.0,0.0,1.0,0.0,part_2,stop,250.0,250.0,4.0,,,,,,,,,gray,I
0.0,5.0,1.0,1.0,5.0,5.0,305.4132172837853,1.0,0.0,part_2,stop,250.0,300.0,3.0,,,,,,,,,green,triangle
0.0,4.0,4.0,0.0,6.0,6.0,487.6324012875557,1.0,0.0,part_2,go,200.0,300.0,1.0,,,,,,,,,cyan,square
0.0,3.0,3.0,0.0,5.0,5.0,482.8993463888764,1.0,0.0,part_2,go,200.0,300.0,1.0,,,,,,,,,orange,circle
0.0,8.0,4.0,1.0,6.0,6.0,418.5320055112242,1.0,0.0,part_2,stop,200.0,300.0,3.0,,,,,,,,,blue,diamond
0.0,6.0,2.0,1.0,6.0,6.0,758.9134769514203,1.0,0.0,part_2,go,200.0,250.0,1.0,,,,,,,,,yellow,hexagon
0.0,1.0,1.0,0.0,5.0,5.0,589.2153130844235,1.0,0.0,part_2,go,200.0,250.0,1.0,,,,,,,,,white,cross
0.0,8.0,4.0,1.0,6.0,6.0,463.8704555109143,1.0,0.0,part_2,stop,200.0,250.0,3.0,,,,,,,,,blue,diamond
0.0,7.0,3.0,1.0,6.0,6.0,485.0988257676363,1.0,0.0,part_2,go,200.0,200.0,1.0,,,,,,,,,gray,I
0.0,5.0,1.0,1.0,5.0,5.0,277.5562172755599,1.0,0.0,part_2,stop,200.0,200.0,3.0,,,,,,,,,green,triangle
0.0,8.0,4.0,1.0,5.0,5.0,339.7864801809191,1.0,0.0,part_2,go,150.0,200.0,1.0,,,,,,,,,blue,diamond
0.0,4.0,4.0,0.0,5.0,5.0,467.9941581562161,1.0,0.0,part_2,go,150.0,200.0,1.0,,,,,,,,,cyan,square
0.0,8.0,4.0,1.0,6.0,6.0,442.8619612008333,1.0,0.0,part_2,go,150.0,200.0,1.0,,,,,,,,,blue,diamond
0.0,7.0,3.0,1.0,5.0,0.0,0.0,1.0,0.0,part_2,stop,150.0,200.0,4.0,,,,,,,,,gray,I
0.0,2.0,2.0,0.0,5.0,5.0,500.6842603906989,1.0,0.0,part_2,go,200.0,200.0,1.0,,,,,,,,,magenta,flipped triangle
0.0,7.0,3.0,1.0,5.0,0.0,0.0,1.0,0.0,part_2,stop,200.0,200.0,4.0,,,,,,,,,gray,I
0.0,1.0,1.0,0.0,5.0,5.0,631.5093860030174,1.0,0.0,part_2,go,250.0,200.0,1.0,,,,,,,,,white,cross
0.0,3.0,3.0,0.0,6.0,6.0,847.389442846179,2.0,0.0,part_2,go,250.0,200.0,1.0,,,,,,,,,orange,circle
0.0,8.0,4.0,1.0,5.0,0.0,0.0,2.0,0.0,part_2,stop,250.0,200.0,4.0,,,,,,,,,blue,diamond
0.0,2.0,2.0,0.0,6.0,6.0,315.739493817091,2.0,0.0,part_2,go,300.0,200.0,1.0,,,,,,,,,magenta,flipped triangle
0.0,8.0,4.0,1.0,5.0,5.0,290.3071632608771,2.0,0.0,part_2,go,300.0,200.0,1.0,,,,,,,,,blue,diamond
0.0,3.0,3.0,0.0,5.0,5.0,412.8638142719865,2.0,0.0,part_2,go,300.0,200.0,1.0,,,,,,,,,orange,circle
0.0,7.0,3.0,1.0,5.0,5.0,338.4398370981216,2.0,0.0,part_2,stop,300.0,200.0,3.0,,,,,,,,,gray,I
0.0,6.0,2.0,1.0,5.0,5.0,482.0618527010083,2.0,0.0,part_2,stop,250.0,200.0,3.0,,,,,,,,,yellow,hexagon
0.0,2.0,2.0,0.0,6.0,6.0,367.6203535869717,2.0,0.0,part_2,go,200.0,200.0,1.0,,,,,,,,,magenta,flipped triangle
0.0,3.0,3.0,0.0,5.0,5.0,364.1696879640221,2.0,0.0,part_2,go,200.0,200.0,1.0,,,,,,,,,orange,circle
0.0,1.0,1.0,0.0,5.0,5.0,450.7308639585972,2.0,0.0,part_2,go,200.0,200.0,1.0,,,,,,,,,white,cross
0.0,8.0,4.0,1.0,5.0,0.0,0.0,2.0,0.0,part_2,stop,200.0,200.0,4.0,,,,,,,,,blue,diamond
0.0,4.0,4.0,0.0,5.0,5.0,461.3826116546988,2.0,0.0,part_2,go,250.0,200.0,1.0,,,,,,,,,cyan,square
0.0,1.0,1.0,0.0,5.0,5.0,318.1007467210293,2.0,0.0,part_2,go,250.0,200.0,1.0,,,,,,,,,white,cross
0.0,8.0,4.0,1.0,5.0,5.0,294.4139009341597,2.0,0.0,part_2,stop,250.0,200.0,3.0,,,,,,,,,blue,diamond
0.0,1.0,1.0,0.0,5.0,5.0,404.4552510604262,2.0,0.0,part_2,go,200.0,200.0,1.0,,,,,,,,,white,cross
0.0,6.0,2.0,1.0,6.0,6.0,342.1826278790831,2.0,0.0,part_2,stop,200.0,200.0,3.0,,,,,,,,,yellow,hexagon
0.0,1.0,1.0,0.0,5.0,5.0,539.6607052534819,2.0,0.0,part_2,go,200.0,150.0,1.0,,,,,,,,,white,cross
0.0,5.0,1.0,1.0,5.0,5.0,460.8020102605223,2.0,0.0,part_2,go,200.0,150.0,1.0,,,,,,,,,green,triangle
0.0,4.0,4.0,0.0,5.0,5.0,379.055617377162,2.0,0.0,part_2,go,200.0,150.0,1.0,,,,,,,,,cyan,square
0.0,4.0,4.0,0.0,6.0,6.0,434.4523670151829,2.0,0.0,part_2,go,200.0,150.0,1.0,,,,,,,,,cyan,square
0.0,2.0,2.0,0.0,6.0,6.0,442.9915249347687,2.0,0.0,part_2,go,200.0,150.0,1.0,,,,,,,,,magenta,flipped triangle
0.0,5.0,1.0,1.0,6.0,0.0,0.0,2.0,0.0,part_2,stop,200.0,150.0,4.0,,,,,,,,,green,triangle
0.0,5.0,1.0,1.0,5.0,5.0,263.7239228934049,2.0,0.0,part_2,stop,200.0,200.0,3.0,,,,,,,,,green,triangle
0.0,8.0,4.0,1.0,5.0,0.0,0.0,2.0,0.0,part_2,stop,150.0,200.0,4.0,,,,,,,,,blue,diamond
0.0,6.0,2.0,1.0,6.0,6.0,591.1383088678122,2.0,0.0,part_2,go,200.0,200.0,1.0,,,,,,,,,yellow,hexagon
0.0,7.0,3.0,1.0,6.0,0.0,0.0,2.0,0.0,part_2,stop,200.0,200.0,4.0,,,,,,,,,gray,I
0.0,8.0,4.0,1.0,6.0,0.0,0.0,2.0,0.0,part_2,stop,200.0,250.0,4.0,,,,,,,,,blue,diamond
0.0,2.0,2.0,0.0,5.0,5.0,431.3414096832275,2.0,0.0,part_2,go,200.0,300.0,1.0,,,,,,,,,magenta,flipped triangle
0.0,4.0,4.0,0.0,5.0,5.0,525.7858373224735,2.0,0.0,part_2,go,200.0,300.0,1.0,,,,,,,,,cyan,square
0.0,2.0,2.0,0.0,6.0,6.0,475.8167583495378,2.0,0.0,part_2,go,200.0,300.0,1.0,,,,,,,,,magenta,flipped triangle
0.0,7.0,3.0,1.0,5.0,0.0,0.0,2.0,0.0,part_2,stop,200.0,300.0,4.0,,,,,,,,,gray,I
0.0,8.0,4.0,1.0,6.0,6.0,411.2251149490475,2.0,0.0,part_2,go,250.0,300.0,1.0,,,,,,,,,blue,diamond
0.0,4.0,4.0,0.0,6.0,6.0,493.1534146890044,2.0,0.0,part_2,go,250.0,300.0,1.0,,,,,,,,,cyan,square
0.0,5.0,1.0,1.0,6.0,0.0,0.0,2.0,0.0,part_2,stop,250.0,300.0,4.0,,,,,,,,,green,triangle
0.0,7.0,3.0,1.0,5.0,5.0,369.0338646993041,2.0,0.0,part_2,stop,250.0,350.0,3.0,,,,,,,,,gray,I
0.0,3.0,3.0,0.0,6.0,6.0,481.185314245522,2.0,0.0,part_2,go,200.0,350.0,1.0,,,,,,,,,orange,circle
0.0,3.0,3.0,0.0,5.0,5.0,992.6287047564985,3.0,0.0,part_2,go,200.0,350.0,1.0,,,,,,,,,orange,circle
0.0,6.0,2.0,1.0,6.0,6.0,371.5337980538606,3.0,0.0,part_2,stop,200.0,350.0,3.0,,,,,,,,,yellow,hexagon
0.0,3.0,3.0,0.0,5.0,5.0,562.154270708561,3.0,0.0,part_2,go,200.0,300.0,1.0,,,,,,,,,orange,circle
0.0,4.0,4.0,0.0,5.0,5.0,530.6607950478792,3.0,0.0,part_2,go,200.0,300.0,1.0,,,,,,,,,cyan,square
0.0,3.0,3.0,0.0,5.0,5.0,406.973666511476,3.0,0.0,part_2,go,200.0,300.0,1.0,,,,,,,,,orange,circle
0.0,2.0,2.0,0.0,6.0,6.0,527.9713533818722,3.0,0.0,part_2,go,200.0,300.0,1.0,,,,,,,,,magenta,flipped triangle
0.0,6.0,2.0,1.0,5.0,0.0,0.0,3.0,0.0,part_2,stop,200.0,300.0,4.0,,,,,,,,,yellow,hexagon
0.0,2.0,2.0,0.0,5.0,5.0,351.2303931638598,3.0,0.0,part_2,go,250.0,300.0,1.0,,,,,,,,,magenta,flipped triangle
0.0,8.0,4.0,1.0,5.0,5.0,332.0744652301073,3.0,0.0,part_2,stop,250.0,300.0,3.0,,,,,,,,,blue,diamond
0.0,7.0,3.0,1.0,6.0,6.0,509.5318127423525,3.0,0.0,part_2,go,200.0,300.0,1.0,,,,,,,,,gray,I
0.0,5.0,1.0,1.0,6.0,6.0,445.1831560581922,3.0,0.0,part_2,stop,200.0,300.0,3.0,,,,,,,,,green,triangle
0.0,8.0,4.0,1.0,6.0,0.0,0.0,3.0,0.0,part_2,stop,200.0,250.0,4.0,,,,,,,,,blue,diamond
0.0,2.0,2.0,0.0,5.0,5.0,523.8253548741341,3.0,0.0,part_2,go,200.0,300.0,1.0,,,,,,,,,magenta,flipped triangle
0.0,8.0,4.0,1.0,5.0,5.0,665.564657188952,3.0,0.0,part_2,go,200.0,300.0,1.0,,,,,,,,,blue,diamond
0.0,7.0,3.0,1.0,6.0,0.0,0.0,3.0,0.0,part_2,stop,200.0,300.0,4.0,,,,,,,,,gray,I
0.0,3.0,3.0,0.0,5.0,5.0,611.4804651588202,3.0,0.0,part_2,go,200.0,350.0,1.0,,,,,,,,,orange,circle
0.0,2.0,2.0,0.0,5.0,5.0,511.4375641569495,3.0,0.0,part_2,go,200.0,350.0,1.0,,,,,,,,,magenta,flipped triangle
0.0,4.0,4.0,0.0,5.0,5.0,375.1137061044574,3.0,0.0,part_2,go,200.0,350.0,1.0,,,,,,,,,cyan,square
0.0,3.0,3.0,0.0,5.0,5.0,358.9201662689447,3.0,0.0,part_2,go,200.0,350.0,1.0,,,,,,,,,orange,circle
0.0,8.0,4.0,1.0,6.0,6.0,318.0466340854764,3.0,0.0,part_2,stop,200.0,350.0,3.0,,,,,,,,,blue,diamond
0.0,5.0,1.0,1.0,5.0,5.0,309.4462500885129,3.0,0.0,part_2,stop,200.0,300.0,3.0,,,,,,,,,green,triangle
0.0,8.0,4.0,1.0,5.0,0.0,0.0,3.0,0.0,part_2,stop,150.0,300.0,4.0,,,,,,,,,blue,diamond
0.0,7.0,3.0,1.0,6.0,6.0,252.4577090516686,3.0,0.0,part_2,go,200.0,300.0,1.0,,,,,,,,,gray,I
0.0,5.0,1.0,1.0,5.0,0.0,0.0,3.0,0.0,part_2,stop,200.0,300.0,4.0,,,,,,,,,green,triangle
0.0,8.0,4.0,1.0,5.0,0.0,0.0,3.0,0.0,part_2,stop,250.0,300.0,4.0,,,,,,,,,blue,diamond
0.0,6.0,2.0,1.0,6.0,6.0,421.7387661337852,3.0,0.0,part_2,stop,300.0,300.0,3.0,,,,,,,,,yellow,hexagon
0.0,1.0,1.0,0.0,6.0,6.0,750.2988521009684,3.0,0.0,part_2,go,300.0,250.0,1.0,,,,,,,,,white,cross
0.0,6.0,2.0,1.0,5.0,5.0,397.7533290162682,3.0,0.0,part_2,go,300.0,250.0,1.0,,,,,,,,,yellow,hexagon
0.0,3.0,3.0,0.0,5.0,5.0,443.8082994893193,3.0,0.0,part_2,go,300.0,250.0,1.0,,,,,,,,,orange,circle
0.0,7.0,3.0,1.0,5.0,5.0,475.5275109782815,3.0,0.0,part_2,go,300.0,250.0,1.0,,,,,,,,,gray,I
0.0,5.0,1.0,1.0,6.0,0.0,0.0,3.0,0.0,part_2,stop,300.0,250.0,4.0,,,,,,,,,green,triangle
0.0,4.0,4.0,0.0,5.0,5.0,354.102548211813,3.0,0.0,part_2,go,300.0,300.0,1.0,,,,,,,,,cyan,square
0.0,6.0,2.0,1.0,5.0,5.0,344.0045965835452,3.0,0.0,part_2,go,300.0,300.0,1.0,,,,,,,,,yellow,hexagon
0.0,5.0,1.0,1.0,6.0,6.0,502.22625955939293,3.0,0.0,part_2,go,300.0,300.0,1.0,,,,,,,,,green,triangle
0.0,4.0,4.0,0.0,6.0,6.0,512.9419919103384,3.0,0.0,part_2,go,300.0,300.0,1.0,,,,,,,,,cyan,square
0.0,7.0,3.0,1.0,6.0,6.0,429.7409923747182,3.0,0.0,part_2,stop,300.0,300.0,3.0,,,,,,,,,gray,I
0.0,4.0,4.0,0.0,5.0,5.0,540.3211005032063,4.0,0.0,part_2,go,300.0,250.0,1.0,,,,,,,,,cyan,square
0.0,8.0,4.0,1.0,5.0,5.0,591.1862393841147,4.0,0.0,part_2,stop,300.0,250.0,3.0,,,,,,,,,blue,diamond
0.0,4.0,4.0,0.0,5.0,5.0,554.8782171681523,4.0,0.0,part_2,go,250.0,250.0,1.0,,,,,,,,,cyan,square
0.0,2.0,2.0,0.0,5.0,5.0,587.3235641047359,4.0,0.0,part_2,go,250.0,250.0,1.0,,,,,,,,,magenta,flipped triangle
0.0,1.0,1.0,0.0,6.0,6.0,430.1553778350353,4.0,0.0,part_2,go,250.0,250.0,1.0,,,,,,,,,white,cross
0.0,3.0,3.0,0.0,5.0,5.0,497.3906204104423,4.0,0.0,part_2,go,250.0,250.0,1.0,,,,,,,,,orange,circle
0.0,8.0,4.0,1.0,6.0,6.0,466.5455454960465,4.0,0.0,part_2,go,250.0,250.0,1.0,,,,,,,,,blue,diamond
0.0,6.0,2.0,1.0,6.0,6.0,409.028522670269,4.0,0.0,part_2,go,250.0,250.0,1.0,,,,,,,,,yellow,hexagon
0.0,3.0,3.0,0.0,6.0,6.0,360.0277062505483,4.0,0.0,part_2,go,250.0,250.0,1.0,,,,,,,,,orange,circle
0.0,6.0,2.0,1.0,5.0,0.0,0.0,4.0,0.0,part_2,stop,250.0,250.0,4.0,,,,,,,,,yellow,hexagon
0.0,5.0,1.0,1.0,6.0,6.0,446.6714905574918,4.0,0.0,part_2,go,300.0,250.0,1.0,,,,,,,,,green,triangle
0.0,6.0,2.0,1.0,5.0,5.0,374.650564044714,4.0,0.0,part_2,stop,300.0,250.0,3.0,,,,,,,,,yellow,hexagon
0.0,1.0,1.0,0.0,5.0,5.0,649.5131831616163,4.0,0.0,part_2,go,250.0,250.0,1.0,,,,,,,,,white,cross
0.0,2.0,2.0,0.0,5.0,5.0,488.9342011883855,4.0,0.0,part_2,go,250.0,250.0,1.0,,,,,,,,,magenta,flipped triangle
0.0,5.0,1.0,1.0,5.0,0.0,0.0,4.0,0.0,part_2,stop,250.0,250.0,4.0,,,,,,,,,green,triangle
0.0,5.0,1.0,1.0,6.0,0.0,0.0,4.0,0.0,part_2,stop,300.0,250.0,4.0,,,,,,,,,green,triangle
0.0,2.0,2.0,0.0,6.0,6.0,579.5024400576949,4.0,0.0,part_2,go,300.0,300.0,1.0,,,,,,,,,magenta,flipped triangle
0.0,5.0,1.0,1.0,5.0,0.0,0.0,4.0,0.0,part_2,stop,300.0,300.0,4.0,,,,,,,,,green,triangle
0.0,2.0,2.0,0.0,6.0,6.0,549.6303495019674,4.0,0.0,part_2,go,350.0,300.0,1.0,,,,,,,,,magenta,flipped triangle
0.0,5.0,1.0,1.0,6.0,6.0,413.8460196554661,4.0,0.0,part_2,stop,350.0,300.0,3.0,,,,,,,,,green,triangle
0.0,7.0,3.0,1.0,5.0,5.0,377.7763620018959,4.0,0.0,part_2,stop,350.0,250.0,3.0,,,,,,,,,gray,I
0.0,8.0,4.0,1.0,6.0,0.0,0.0,4.0,0.0,part_2,stop,300.0,250.0,4.0,,,,,,,,,blue,diamond
0.0,3.0,3.0,0.0,5.0,5.0,330.9249887242913,4.0,0.0,part_2,go,300.0,300.0,1.0,,,,,,,,,orange,circle
0.0,3.0,3.0,0.0,6.0,6.0,583.9196657761931,4.0,0.0,part_2,go,300.0,300.0,1.0,,,,,,,,,orange,circle
0.0,5.0,1.0,1.0,5.0,0.0,0.0,4.0,0.0,part_2,stop,300.0,300.0,4.0,,,,,,,,,green,triangle
0.0,4.0,4.0,0.0,5.0,5.0,670.2644769102335,4.0,0.0,part_2,go,350.0,300.0,1.0,,,,,,,,,cyan,square
0.0,1.0,1.0,0.0,5.0,5.0,584.1498412191868,4.0,0.0,part_2,go,350.0,300.0,1.0,,,,,,,,,white,cross
0.0,2.0,2.0,0.0,6.0,6.0,453.9456395432353,4.0,0.0,part_2,go,350.0,300.0,1.0,,,,,,,,,magenta,flipped triangle
0.0,3.0,3.0,0.0,6.0,6.0,576.5222003683448,4.0,0.0,part_2,go,350.0,300.0,1.0,,,,,,,,,orange,circle
0.0,4.0,4.0,0.0,6.0,6.0,500.3680298104882,4.0,0.0,part_2,go,350.0,300.0,1.0,,,,,,,,,cyan,square
0.0,5.0,1.0,1.0,5.0,0.0,0.0,4.0,0.0,part_2,stop,350.0,300.0,4.0,,,,,,,,,green,triangle
0.0,5.0,1.0,1.0,5.0,5.0,500.2704570069909,4.0,0.0,part_2,stop,400.0,300.0,3.0,,,,,,,,,green,triangle
0.0,2.0,2.0,0.0,5.0,5.0,629.257757216692,4.0,0.0,part_2,go,350.0,300.0,1.0,,,,,,,,,magenta,flipped triangle
0.0,7.0,3.0,1.0,5.0,5.0,604.8372182995081,4.0,0.0,part_2,go,350.0,300.0,1.0,,,,,,,,,gray,I
0.0,8.0,4.0,1.0,6.0,0.0,0.0,4.0,0.0,part_2,stop,350.0,300.0,4.0,,,,,,,,,blue,diamond
0.0,1.0,1.0,0.0,5.0,5.0,640.6564600765705,4.0,0.0,part_2,go,350.0,350.0,1.0,,,,,,,,,white,cross
0.0,6.0,2.0,1.0,5.0,5.0,493.8196623697877,5.0,0.0,part_2,stop,350.0,350.0,3.0,,,,,,,,,yellow,hexagon
0.0,7.0,3.0,1.0,5.0,0.0,0.0,5.0,0.0,part_2,stop,300.0,350.0,4.0,,,,,,,,,gray,I
0.0,3.0,3.0,0.0,5.0,5.0,431.027065962553,5.0,0.0,part_2,go,350.0,350.0,1.0,,,,,,,,,orange,circle
0.0,4.0,4.0,0.0,6.0,6.0,416.5031518787145,5.0,0.0,part_2,go,350.0,350.0,1.0,,,,,,,,,cyan,square
0.0,4.0,4.0,0.0,5.0,5.0,389.183659106493,5.0,0.0,part_2,go,350.0,350.0,1.0,,,,,,,,,cyan,square
0.0,5.0,1.0,1.0,5.0,0.0,0.0,5.0,0.0,part_2,stop,350.0,350.0,4.0,,,,,,,,,green,triangle
0.0,6.0,2.0,1.0,6.0,6.0,459.7630817443132,5.0,0.0,part_2,go,400.0,350.0,1.0,,,,,,,,,yellow,hexagon
0.0,1.0,1.0,0.0,6.0,6.0,394.8194617405534,5.0,0.0,part_2,go,400.0,350.0,1.0,,,,,,,,,white,cross
0.0,1.0,1.0,0.0,5.0,5.0,467.6576154306531,5.0,0.0,part_2,go,400.0,350.0,1.0,,,,,,,,,white,cross
0.0,3.0,3.0,0.0,6.0,6.0,475.3500055521726,5.0,0.0,part_2,go,400.0,350.0,1.0,,,,,,,,,orange,circle
0.0,3.0,3.0,0.0,6.0,6.0,385.84802206605667,5.0,0.0,part_2,go,400.0,350.0,1.0,,,,,,,,,orange,circle
0.0,8.0,4.0,1.0,6.0,6.0,426.7219081521034,5.0,0.0,part_2,go,400.0,350.0,1.0,,,,,,,,,blue,diamond
0.0,7.0,3.0,1.0,5.0,0.0,0.0,5.0,0.0,part_2,stop,400.0,350.0,4.0,,,,,,,,,gray,I
0.0,2.0,2.0,0.0,5.0,5.0,569.6020890027285,5.0,0.0,part_2,go,450.0,350.0,1.0,,,,,,,,,magenta,flipped triangle
0.0,7.0,3.0,1.0,6.0,6.0,462.9145916551351,5.0,0.0,part_2,go,450.0,350.0,1.0,,,,,,,,,gray,I
0.0,3.0,3.0,0.0,6.0,6.0,542.7536144852638,5.0,0.0,part_2,go,450.0,350.0,1.0,,,,,,,,,orange,circle
0.0,3.0,3.0,0.0,5.0,5.0,416.4716508239507,5.0,0.0,part_2,go,450.0,350.0,1.0,,,,,,,,,orange,circle
0.0,4.0,4.0,0.0,5.0,5.0,503.9701471105218,5.0,0.0,part_2,go,450.0,350.0,1.0,,,,,,,,,cyan,square
0.0,5.0,1.0,1.0,5.0,5.0,468.0049801245332,5.0,0.0,part_2,stop,450.0,350.0,3.0,,,,,,,,,green,triangle
0.0,7.0,3.0,1.0,5.0,0.0,0.0,5.0,0.0,part_2,stop,400.0,350.0,4.0,,,,,,,,,gray,I
0.0,5.0,1.0,1.0,5.0,5.0,540.3852267190814,5.0,0.0,part_2,go,450.0,350.0,1.0,,,,,,,,,green,triangle
0.0,7.0,3.0,1.0,6.0,0.0,0.0,5.0,0.0,part_2,stop,450.0,350.0,4.0,,,,,,,,,gray,I
0.0,1.0,1.0,0.0,6.0,6.0,458.080387674272,5.0,0.0,part_2,go,450.0,400.0,1.0,,,,,,,,,white,cross
0.0,5.0,1.0,1.0,5.0,0.0,0.0,5.0,0.0,part_2,stop,450.0,400.0,4.0,,,,,,,,,green,triangle
0.0,5.0,1.0,1.0,6.0,6.0,329.6369463205337,5.0,0.0,part_2,stop,500.0,400.0,3.0,,,,,,,,,green,triangle
0.0,3.0,3.0,0.0,6.0,6.0,369.1140385344624,5.0,0.0,part_2,go,500.0,350.0,1.0,,,,,,,,,orange,circle
0.0,7.0,3.0,1.0,6.0,0.0,0.0,5.0,0.0,part_2,stop,500.0,350.0,4.0,,,,,,,,,gray,I
0.0,1.0,1.0,0.0,5.0,5.0,537.540671415627,5.0,0.0,part_2,go,500.0,400.0,1.0,,,,,,,,,white,cross
0.0,7.0,3.0,1.0,5.0,5.0,559.2997344210744,5.0,0.0,part_2,stop,500.0,400.0,3.0,,,,,,,,,gray,I
0.0,4.0,4.0,0.0,6.0,6.0,688.1245896220207,5.0,0.0,part_2,go,450.0,400.0,1.0,,,,,,,,,cyan,square
0.0,5.0,1.0,1.0,6.0,0.0,0.0,5.0,0.0,part_2,stop,450.0,400.0,4.0,,,,,,,,,green,triangle
0.0,7.0,3.0,1.0,6.0,6.0,605.2637165412307,5.0,0.0,part_2,go,450.0,450.0,1.0,,,,,,,,,gray,I
0.0,8.0,4.0,1.0,6.0,6.0,501.29093416035175,5.0,0.0,part_2,stop,450.0,450.0,3.0,,,,,,,,,blue,diamond
0.0,7.0,3.0,1.0,5.0,0.0,0.0,5.0,0.0,part_2,stop,450.0,400.0,4.0,,,,,,,,,gray,I
0.0,6.0,2.0,1.0,5.0,0.0,0.0,5.0,0.0,part_2,stop,500.0,400.0,4.0,,,,,,,,,yellow,hexagon
0.0,2.0,2.0,0.0,5.0,5.0,718.2352337986231,5.0,0.0,part_2,go,550.0,400.0,1.0,,,,,,,,,magenta,flipped triangle
0.0,6.0,2.0,1.0,5.0,5.0,654.7681046649814,6.0,0.0,part_2,stop,550.0,400.0,3.0,,,,,,,,,yellow,hexagon
0.0,7.0,3.0,1.0,6.0,6.0,450.3825465217232,6.0,0.0,part_2,stop,500.0,400.0,3.0,,,,,,,,,gray,I
0.0,4.0,4.0,0.0,5.0,5.0,514.0144471079111,6.0,0.0,part_2,go,500.0,350.0,1.0,,,,,,,,,cyan,square
0.0,1.0,1.0,0.0,5.0,5.0,653.61297596246,6.0,0.0,part_2,go,500.0,350.0,1.0,,,,,,,,,white,cross
0.0,6.0,2.0,1.0,5.0,5.0,557.4320964515209,6.0,0.0,part_2,go,500.0,350.0,1.0,,,,,,,,,yellow,hexagon
0.0,7.0,3.0,1.0,6.0,0.0,0.0,6.0,0.0,part_2,stop,500.0,350.0,4.0,,,,,,,,,gray,I
0.0,6.0,2.0,1.0,5.0,5.0,483.3358628675341,6.0,0.0,part_2,stop,500.0,400.0,3.0,,,,,,,,,yellow,hexagon
0.0,2.0,2.0,0.0,5.0,5.0,587.8458227962255,6.0,0.0,part_2,go,450.0,400.0,1.0,,,,,,,,,magenta,flipped triangle
0.0,3.0,3.0,0.0,6.0,6.0,763.5059813037515,6.0,0.0,part_2,go,450.0,400.0,1.0,,,,,,,,,orange,circle
0.0,2.0,2.0,0.0,5.0,5.0,643.1127432733774,6.0,0.0,part_2,go,450.0,400.0,1.0,,,,,,,,,magenta,flipped triangle
0.0,3.0,3.0,0.0,5.0,5.0,473.8299818709492,6.0,0.0,part_2,go,450.0,400.0,1.0,,,,,,,,,orange,circle
0.0,7.0,3.0,1.0,6.0,6.0,313.3238218724727,6.0,0.0,part_2,stop,450.0,400.0,3.0,,,,,,,,,gray,I
0.0,8.0,4.0,1.0,5.0,5.0,672.2252238541842,6.0,0.0,part_2,go,450.0,350.0,1.0,,,,,,,,,blue,diamond
0.0,3.0,3.0,0.0,5.0,5.0,649.3332013487816,6.0,0.0,part_2,go,450.0,350.0,1.0,,,,,,,,,orange,circle
0.0,2.0,2.0,0.0,5.0,5.0,359.0429229661822,6.0,0.0,part_2,go,450.0,350.0,1.0,,,,,,,,,magenta,flipped triangle
0.0,8.0,4.0,1.0,5.0,5.0,335.7307380065322,6.0,0.0,part_2,stop,450.0,350.0,3.0,,,,,,,,,blue,diamond
0.0,6.0,2.0,1.0,5.0,0.0,0.0,6.0,0.0,part_2,stop,400.0,350.0,4.0,,,,,,,,,yellow,hexagon
0.0,1.0,1.0,0.0,5.0,5.0,641.7959984391928,6.0,0.0,part_2,go,450.0,350.0,1.0,,,,,,,,,white,cross
0.0,5.0,1.0,1.0,6.0,0.0,0.0,6.0,0.0,part_2,stop,450.0,350.0,4.0,,,,,,,,,green,triangle
0.0,8.0,4.0,1.0,5.0,5.0,375.6758728995919,6.0,0.0,part_2,stop,450.0,400.0,3.0,,,,,,,,,blue,diamond
0.0,8.0,4.0,1.0,6.0,6.0,318.0110668763518,6.0,0.0,part_2,stop,400.0,400.0,3.0,,,,,,,,,blue,diamond
0.0,1.0,1.0,0.0,6.0,6.0,693.9105512574315,6.0,0.0,part_2,go,400.0,350.0,1.0,,,,,,,,,white,cross
0.0,8.0,4.0,1.0,6.0,0.0,0.0,6.0,0.0,part_2,stop,400.0,350.0,4.0,,,,,,,,,blue,diamond
0.0,2.0,2.0,0.0,5.0,5.0,686.720747500658,6.0,0.0,part_2,go,400.0,400.0,1.0,,,,,,,,,magenta,flipped triangle
0.0,7.0,3.0,1.0,5.0,0.0,0.0,6.0,0.0,part_2,stop,400.0,400.0,4.0,,,,,,,,,gray,I
0.0,2.0,2.0,0.0,6.0,6.0,428.2561047002673,6.0,0.0,part_2,go,450.0,400.0,1.0,,,,,,,,,magenta,flipped triangle
0.0,4.0,4.0,0.0,5.0,5.0,512.8684099763632,6.0,0.0,part_2,go,450.0,400.0,1.0,,,,,,,,,cyan,square
0.0,1.0,1.0,0.0,6.0,6.0,552.3771373555064,6.0,0.0,part_2,go,450.0,400.0,1.0,,,,,,,,,white,cross
0.0,5.0,1.0,1.0,6.0,6.0,594.6791656315327,6.0,0.0,part_2,go,450.0,400.0,1.0,,,,,,,,,green,triangle
0.0,6.0,2.0,1.0,6.0,6.0,384.5120118930936,6.0,0.0,part_2,stop,450.0,400.0,3.0,,,,,,,,,yellow,hexagon
0.0,5.0,1.0,1.0,6.0,6.0,497.739034704864,6.0,0.0,part_2,stop,450.0,350.0,3.0,,,,,,,,,green,triangle
0.0,8.0,4.0,1.0,5.0,0.0,0.0,6.0,0.0,part_2,stop,450.0,300.0,4.0,,,,,,,,,blue,diamond
0.0,4.0,4.0,0.0,6.0,6.0,358.3990894258022,6.0,0.0,part_2,go,500.0,300.0,1.0,,,,,,,,,cyan,square
0.0,2.0,2.0,0.0,6.0,6.0,623.7096851691604,6.0,0.0,part_2,go,500.0,300.0,1.0,,,,,,,,,magenta,flipped triangle
0.0,3.0,3.0,0.0,6.0,6.0,452.4745363742113,6.0,0.0,part_2,go,500.0,300.0,1.0,,,,,,,,,orange,circle
0.0,8.0,4.0,1.0,6.0,6.0,468.2970503345132,6.0,0.0,part_2,go,500.0,300.0,1.0,,,,,,,,,blue,diamond
0.0,1.0,1.0,0.0,6.0,6.0,507.48566444963217,7.0,0.0,part_2,go,500.0,300.0,1.0,,,,,,,,,white,cross
0.0,2.0,2.0,0.0,5.0,5.0,404.5550627633929,7.0,0.0,part_2,go,500.0,300.0,1.0,,,,,,,,,magenta,flipped triangle
0.0,8.0,4.0,1.0,6.0,6.0,387.1739590540528,7.0,0.0,part_2,stop,500.0,300.0,3.0,,,,,,,,,blue,diamond
0.0,1.0,1.0,0.0,6.0,6.0,547.4828584119678,7.0,0.0,part_2,go,500.0,250.0,1.0,,,,,,,,,white,cross
0.0,1.0,1.0,0.0,6.0,6.0,579.2605876922607,7.0,0.0,part_2,go,500.0,250.0,1.0,,,,,,,,,white,cross
0.0,3.0,3.0,0.0,6.0,6.0,704.6802695840597,7.0,0.0,part_2,go,500.0,250.0,1.0,,,,,,,,,orange,circle
0.0,4.0,4.0,0.0,6.0,6.0,514.4001934677362,7.0,0.0,part_2,go,500.0,250.0,1.0,,,,,,,,,cyan,square
0.0,5.0,1.0,1.0,6.0,0.0,0.0,7.0,0.0,part_2,stop,500.0,250.0,4.0,,,,,,,,,green,triangle
0.0,3.0,3.0,0.0,6.0,6.0,529.4184498488903,7.0,0.0,part_2,go,500.0,300.0,1.0,,,,,,,,,orange,circle
0.0,5.0,1.0,1.0,5.0,5.0,615.3181036934257,7.0,0.0,part_2,go,500.0,300.0,1.0,,,,,,,,,green,triangle
0.0,6.0,2.0,1.0,5.0,5.0,526.9767576828599,7.0,0.0,part_2,stop,500.0,300.0,3.0,,,,,,,,,yellow,hexagon
0.0,1.0,1.0,0.0,6.0,6.0,719.4682937115431,7.0,0.0,part_2,go,450.0,300.0,1.0,,,,,,,,,white,cross
0.0,1.0,1.0,0.0,5.0,5.0,494.0998032689094,7.0,0.0,part_2,go,450.0,300.0,1.0,,,,,,,,,white,cross
0.0,4.0,4.0,0.0,6.0,6.0,495.517854578793,7.0,0.0,part_2,go,450.0,300.0,1.0,,,,,,,,,cyan,square
0.0,4.0,4.0,0.0,5.0,5.0,438.6283131316304,7.0,0.0,part_2,go,450.0,300.0,1.0,,,,,,,,,cyan,square
0.0,3.0,3.0,0.0,6.0,6.0,475.0653132796287,7.0,0.0,part_2,go,450.0,300.0,1.0,,,,,,,,,orange,circle
0.0,1.0,1.0,0.0,6.0,6.0,380.3382515907287,7.0,0.0,part_2,go,450.0,300.0,1.0,,,,,,,,,white,cross
0.0,7.0,3.0,1.0,5.0,5.0,681.4181115478277,7.0,0.0,part_2,go,450.0,300.0,1.0,,,,,,,,,gray,I
0.0,8.0,4.0,1.0,5.0,0.0,0.0,7.0,0.0,part_2,stop,450.0,300.0,4.0,,,,,,,,,blue,diamond
0.0,4.0,4.0,0.0,6.0,6.0,641.1861134693027,7.0,0.0,part_2,go,500.0,300.0,1.0,,,,,,,,,cyan,square
0.0,2.0,2.0,0.0,6.0,6.0,547.0281327143312,7.0,0.0,part_2,go,500.0,300.0,1.0,,,,,,,,,magenta,flipped triangle
0.0,3.0,3.0,0.0,5.0,5.0,673.6282464116812,7.0,0.0,part_2,go,500.0,300.0,1.0,,,,,,,,,orange,circle
0.0,7.0,3.0,1.0,6.0,0.0,0.0,7.0,0.0,part_2,stop,500.0,300.0,4.0,,,,,,,,,gray,I
0.0,6.0,2.0,1.0,6.0,0.0,0.0,7.0,0.0,part_2,stop,500.0,350.0,4.0,,,,,,,,,yellow,hexagon
0.0,7.0,3.0,1.0,6.0,6.0,376.4383662492037,7.0,0.0,part_2,stop,500.0,400.0,3.0,,,,,,,,,gray,I
0.0,2.0,2.0,0.0,6.0,6.0,484.7940625622868,7.0,0.0,part_2,go,500.0,350.0,1.0,,,,,,,,,magenta,flipped triangle
0.0,1.0,1.0,0.0,6.0,6.0,540.183269418776,7.0,0.0,part_2,go,500.0,350.0,1.0,,,,,,,,,white,cross
0.0,6.0,2.0,1.0,5.0,5.0,573.0199441313744,7.0,0.0,part_2,stop,500.0,350.0,3.0,,,,,,,,,yellow,hexagon
0.0,2.0,2.0,0.0,6.0,6.0,701.4510026201606,7.0,0.0,part_2,go,450.0,350.0,1.0,,,,,,,,,magenta,flipped triangle
0.0,1.0,1.0,0.0,5.0,5.0,604.6870099380612,7.0,0.0,part_2,go,450.0,350.0,1.0,,,,,,,,,white,cross
0.0,8.0,4.0,1.0,6.0,0.0,0.0,7.0,0.0,part_2,stop,450.0,350.0,4.0,,,,,,,,,blue,diamond
0.0,7.0,3.0,1.0,5.0,5.0,706.4086655154824,7.0,0.0,part_2,go,450.0,400.0,1.0,,,,,,,,,gray,I
0.0,4.0,4.0,0.0,6.0,6.0,538.1983136758208,7.0,0.0,part_2,go,450.0,400.0,1.0,,,,,,,,,cyan,square
0.0,2.0,2.0,0.0,6.0,6.0,624.373497441411,7.0,0.0,part_2,go,450.0,400.0,1.0,,,,,,,,,magenta,flipped triangle
0.0,6.0,2.0,1.0,6.0,6.0,424.1024795919657,7.0,0.0,part_2,go,450.0,400.0,1.0,,,,,,,,,yellow,hexagon
0.0,6.0,2.0,1.0,5.0,5.0,511.48053351789713,7.0,0.0,part_2,stop,450.0,400.0,3.0,,,,,,,,,yellow,hexagon
0.0,4.0,4.0,0.0,6.0,6.0,477.3112516850233,8.0,0.0,part_2,go,400.0,400.0,1.0,,,,,,,,,cyan,square
0.0,1.0,1.0,0.0,5.0,5.0,684.3712441623211,8.0,0.0,part_2,go,400.0,400.0,1.0,,,,,,,,,white,cross
0.0,5.0,1.0,1.0,6.0,6.0,387.6580279320478,8.0,0.0,part_2,stop,400.0,400.0,3.0,,,,,,,,,green,triangle
0.0,4.0,4.0,0.0,6.0,6.0,529.4720428064466,8.0,0.0,part_2,go,400.0,350.0,1.0,,,,,,,,,cyan,square
0.0,6.0,2.0,1.0,6.0,0.0,0.0,8.0,0.0,part_2,stop,400.0,350.0,4.0,,,,,,,,,yellow,hexagon
0.0,1.0,1.0,0.0,6.0,6.0,562.9888717085123,8.0,0.0,part_2,go,400.0,400.0,1.0,,,,,,,,,white,cross
0.0,2.0,2.0,0.0,6.0,6.0,386.512141674757,8.0,0.0,part_2,go,400.0,400.0,1.0,,,,,,,,,magenta,flipped triangle
0.0,1.0,1.0,0.0,6.0,6.0,407.3362117633223,8.0,0.0,part_2,go,400.0,400.0,1.0,,,,,,,,,white,cross
0.0,6.0,2.0,1.0,6.0,0.0,0.0,8.0,0.0,part_2,stop,400.0,400.0,4.0,,,,,,,,,yellow,hexagon
0.0,6.0,2.0,1.0,6.0,0.0,0.0,8.0,0.0,part_2,stop,400.0,450.0,4.0,,,,,,,,,yellow,hexagon
0.0,4.0,4.0,0.0,5.0,5.0,311.0492806881666,8.0,0.0,part_2,go,400.0,500.0,1.0,,,,,,,,,cyan,square
0.0,5.0,1.0,1.0,6.0,6.0,462.1886536478996,8.0,0.0,part_2,stop,400.0,500.0,3.0,,,,,,,,,green,triangle
0.0,3.0,3.0,0.0,6.0,6.0,567.6725981757045,8.0,0.0,part_2,go,400.0,450.0,1.0,,,,,,,,,orange,circle
0.0,6.0,2.0,1.0,5.0,5.0,444.2140217870474,8.0,0.0,part_2,stop,400.0,450.0,3.0,,,,,,,,,yellow,hexagon
0.0,8.0,4.0,1.0,6.0,0.0,0.0,8.0,0.0,part_2,stop,350.0,450.0,4.0,,,,,,,,,blue,diamond
0.0,7.0,3.0,1.0,6.0,6.0,531.0066156089306,8.0,0.0,part_2,stop,350.0,500.0,3.0,,,,,,,,,gray,I
0.0,4.0,4.0,0.0,6.0,6.0,833.9949529618025,8.0,0.0,part_2,go,350.0,450.0,1.0,,,,,,,,,cyan,square
0.0,4.0,4.0,0.0,5.0,5.0,541.2261011078954,8.0,0.0,part_2,go,350.0,450.0,1.0,,,,,,,,,cyan,square
0.0,5.0,1.0,1.0,6.0,0.0,0.0,8.0,0.0,part_2,stop,350.0,450.0,4.0,,,,,,,,,green,triangle
0.0,1.0,1.0,0.0,6.0,6.0,472.2046200186014,8.0,0.0,part_2,go,350.0,500.0,1.0,,,,,,,,,white,cross
0.0,1.0,1.0,0.0,6.0,6.0,706.4822250977159,8.0,0.0,part_2,go,350.0,500.0,1.0,,,,,,,,,white,cross
0.0,1.0,1.0,0.0,6.0,6.0,807.554580271244,8.0,0.0,part_2,go,350.0,500.0,1.0,,,,,,,,,white,cross
0.0,4.0,4.0,0.0,6.0,6.0,558.4978014230728,8.0,0.0,part_2,go,350.0,500.0,1.0,,,,,,,,,cyan,square
0.0,6.0,2.0,1.0,6.0,6.0,570.0601246207952,8.0,0.0,part_2,stop,350.0,500.0,3.0,,,,,,,,,yellow,hexagon
0.0,6.0,2.0,1.0,5.0,5.0,344.6055753156543,8.0,0.0,part_2,stop,350.0,450.0,3.0,,,,,,,,,yellow,hexagon
0.0,5.0,1.0,1.0,5.0,5.0,799.2680436000228,8.0,0.0,part_2,go,300.0,450.0,1.0,,,,,,,,,green,triangle
0.0,3.0,3.0,0.0,6.0,6.0,692.2632986679673,8.0,0.0,part_2,go,300.0,450.0,1.0,,,,,,,,,orange,circle
0.0,8.0,4.0,1.0,5.0,0.0,0.0,8.0,0.0,part_2,stop,300.0,450.0,4.0,,,,,,,,,blue,diamond
0.0,3.0,3.0,0.0,5.0,5.0,542.4486538395286,8.0,0.0,part_2,go,350.0,450.0,1.0,,,,,,,,,orange,circle
0.0,1.0,1.0,0.0,5.0,5.0,645.4737717285752,8.0,0.0,part_2,go,350.0,450.0,1.0,,,,,,,,,white,cross
0.0,2.0,2.0,0.0,5.0,5.0,570.2100740745664,8.0,0.0,part_2,go,350.0,450.0,1.0,,,,,,,,,magenta,flipped triangle
0.0,2.0,2.0,0.0,6.0,6.0,564.7499980404973,8.0,0.0,part_2,go,350.0,450.0,1.0,,,,,,,,,magenta,flipped triangle
0.0,6.0,2.0,1.0,6.0,0.0,0.0,8.0,0.0,part_2,stop,350.0,450.0,4.0,,,,,,,,,yellow,hexagon
0.0,2.0,2.0,0.0,5.0,5.0,569.3633761256933,8.0,0.0,part_2,go,350.0,500.0,1.0,,,,,,,,,magenta,flipped triangle
0.0,6.0,2.0,1.0,6.0,6.0,530.3101651370525,8.0,0.0,part_2,stop,350.0,500.0,3.0,,,,,,,,,yellow,hexagon
0.0,2.0,2.0,0.0,5.0,5.0,650.8830040693283,8.0,0.0,part_2,go,350.0,450.0,1.0,,,,,,,,,magenta,flipped triangle
0.0,4.0,4.0,0.0,7.0,3.0,2775.637675076723,1.0,1.0,part_3,go,0.0,0.0,0.0,234.0,6.0,117.0,78.0,234.0,39.0,156.0,195.0,cyan,square
0.0,7.0,3.0,1.0,7.0,5.0,1956.4038645476105,1.0,1.0,part_3,go,0.0,0.0,0.0,294.0,6.0,196.0,147.0,98.0,245.0,294.0,49.0,gray,I
0.0,6.0,2.0,1.0,7.0,3.0,4628.0338717624545,1.0,1.0,part_3,go,0.0,0.0,0.0,117.0,3.0,234.0,39.0,117.0,156.0,78.0,195.0,yellow,hexagon
0.0,1.0,1.0,0.0,7.0,2.0,3243.720115162432,1.0,1.0,part_3,go,0.0,0.0,0.0,324.0,6.0,270.0,324.0,216.0,54.0,108.0,162.0,white,cross
0.0,6.0,2.0,1.0,7.0,4.0,2467.720012180507,1.0,1.0,part_3,go,0.0,0.0,0.0,108.0,2.0,162.0,324.0,270.0,108.0,54.0,216.0,yellow,hexagon
0.0,3.0,3.0,0.0,7.0,2.0,2068.430525250733,1.0,1.0,part_3,go,0.0,0.0,0.0,98.0,2.0,294.0,98.0,49.0,245.0,196.0,147.0,orange,circle
0.0,8.0,4.0,1.0,7.0,3.0,2686.202351935208,1.0,1.0,part_3,go,0.0,0.0,0.0,176.0,4.0,88.0,264.0,176.0,132.0,44.0,220.0,blue,diamond
0.0,5.0,1.0,1.0,7.0,5.0,2959.3863151967525,1.0,1.0,part_3,go,0.0,0.0,0.0,156.0,4.0,39.0,195.0,234.0,78.0,156.0,117.0,green,triangle
0.0,7.0,3.0,1.0,7.0,5.0,1849.5470061898232,1.0,1.0,part_3,go,0.0,0.0,0.0,234.0,6.0,78.0,117.0,156.0,195.0,234.0,39.0,gray,I
0.0,3.0,3.0,0.0,7.0,1.0,3304.7221545130014,1.0,1.0,part_3,go,0.0,0.0,0.0,88.0,2.0,88.0,220.0,132.0,264.0,44.0,176.0,orange,circle
0.0,8.0,4.0,1.0,7.0,6.0,4137.455494143069,1.0,1.0,part_3,go,0.0,0.0,0.0,195.0,5.0,156.0,78.0,234.0,117.0,39.0,195.0,blue,diamond
0.0,8.0,4.0,1.0,7.0,1.0,1660.6849348172543,1.0,1.0,part_3,go,0.0,0.0,0.0,195.0,5.0,195.0,156.0,234.0,78.0,39.0,117.0,blue,diamond
0.0,8.0,4.0,1.0,7.0,4.0,3309.7764253616333,1.0,1.0,part_3,go,0.0,0.0,0.0,196.0,4.0,98.0,245.0,49.0,196.0,294.0,147.0,blue,diamond
0.0,4.0,4.0,0.0,7.0,5.0,3031.0639441013336,1.0,1.0,part_3,go,0.0,0.0,0.0,162.0,3.0,108.0,54.0,270.0,324.0,162.0,216.0,cyan,square
0.0,1.0,1.0,0.0,7.0,3.0,1831.260297447443,1.0,1.0,part_3,go,0.0,0.0,0.0,220.0,5.0,176.0,88.0,220.0,132.0,264.0,44.0,white,cross
0.0,3.0,3.0,0.0,7.0,2.0,3416.138656437397,1.0,1.0,part_3,go,0.0,0.0,0.0,78.0,2.0,39.0,78.0,195.0,117.0,234.0,156.0,orange,circle
0.0,1.0,1.0,0.0,7.0,5.0,1610.2072838693855,1.0,1.0,part_3,go,0.0,0.0,0.0,220.0,5.0,176.0,44.0,264.0,132.0,220.0,88.0,white,cross
0.0,5.0,1.0,1.0,7.0,2.0,1622.0859130844474,1.0,1.0,part_3,go,0.0,0.0,0.0,147.0,3.0,294.0,147.0,245.0,98.0,196.0,49.0,green,triangle
0.0,5.0,1.0,1.0,7.0,5.0,3063.516903668642,1.0,1.0,part_3,go,0.0,0.0,0.0,162.0,3.0,108.0,270.0,324.0,216.0,162.0,54.0,green,triangle
0.0,4.0,4.0,0.0,7.0,2.0,1390.5905084684491,1.0,2.0,part_3,go,0.0,0.0,0.0,196.0,4.0,294.0,196.0,147.0,49.0,98.0,245.0,cyan,square
0.0,6.0,2.0,1.0,7.0,1.0,3423.399689607322,2.0,1.0,part_3,go,0.0,0.0,0.0,147.0,3.0,147.0,196.0,98.0,245.0,294.0,49.0,yellow,hexagon
0.0,1.0,1.0,0.0,7.0,5.0,2140.057820826769,2.0,1.0,part_3,go,0.0,0.0,0.0,195.0,5.0,39.0,234.0,78.0,117.0,195.0,156.0,white,cross
0.0,7.0,3.0,1.0,7.0,3.0,1389.3152913078666,2.0,1.0,part_3,go,0.0,0.0,0.0,220.0,5.0,44.0,88.0,220.0,264.0,132.0,176.0,gray,I
0.0,4.0,4.0,0.0,7.0,4.0,1917.738097719848,2.0,1.0,part_3,go,0.0,0.0,0.0,176.0,4.0,132.0,44.0,220.0,176.0,88.0,264.0,cyan,square
0.0,4.0,4.0,0.0,7.0,4.0,1831.9787122309208,2.0,1.0,part_3,go,0.0,0.0,0.0,132.0,3.0,220.0,44.0,88.0,132.0,176.0,264.0,cyan,square
0.0,2.0,2.0,0.0,7.0,5.0,1821.463592350483,2.0,1.0,part_3,go,0.0,0.0,0.0,195.0,5.0,117.0,39.0,156.0,78.0,195.0,234.0,magenta,flipped triangle
0.0,1.0,1.0,0.0,7.0,6.0,2075.7847195491195,2.0,1.0,part_3,go,0.0,0.0,0.0,204.0,6.0,170.0,136.0,34.0,68.0,102.0,204.0,white,cross
0.0,6.0,2.0,1.0,7.0,6.0,2185.1253546774387,2.0,1.0,part_3,go,0.0,0.0,0.0,204.0,6.0,136.0,102.0,170.0,68.0,34.0,204.0,yellow,hexagon
0.0,2.0,2.0,0.0,7.0,6.0,2425.4500661045313,2.0,1.0,part_3,go,0.0,0.0,0.0,264.0,6.0,220.0,176.0,132.0,44.0,88.0,264.0,magenta,flipped triangle
0.0,7.0,3.0,1.0,7.0,4.0,1613.9977993443608,2.0,1.0,part_3,go,0.0,0.0,0.0,204.0,6.0,136.0,170.0,68.0,204.0,102.0,34.0,gray,I
0.0,3.0,3.0,0.0,7.0,3.0,1413.1388431414962,2.0,1.0,part_3,go,0.0,0.0,0.0,68.0,2.0,204.0,102.0,68.0,34.0,170.0,136.0,orange,circle
0.0,4.0,4.0,0.0,7.0,5.0,1158.4762865677476,2.0,1.0,part_3,go,0.0,0.0,0.0,102.0,3.0,68.0,170.0,204.0,34.0,102.0,136.0,cyan,square
0.0,4.0,4.0,0.0,7.0,3.0,2002.8625512495637,2.0,1.0,part_3,go,0.0,0.0,0.0,162.0,3.0,54.0,216.0,162.0,270.0,108.0,324.0,cyan,square
0.0,2.0,2.0,0.0,7.0,5.0,1410.2222882211208,2.0,1.0,part_3,go,0.0,0.0,0.0,270.0,5.0,54.0,216.0,162.0,108.0,270.0,324.0,magenta,flipped triangle
0.0,8.0,4.0,1.0,7.0,6.0,2178.587735630572,2.0,1.0,part_3,go,0.0,0.0,0.0,270.0,5.0,216.0,162.0,108.0,324.0,54.0,270.0,blue,diamond
0.0,5.0,1.0,1.0,7.0,4.0,2750.411609187722,2.0,1.0,part_3,go,0.0,0.0,0.0,49.0,1.0,147.0,245.0,196.0,49.0,294.0,98.0,green,triangle
0.0,6.0,2.0,1.0,7.0,2.0,1912.108987569809,2.0,1.0,part_3,go,0.0,0.0,0.0,132.0,3.0,220.0,132.0,88.0,44.0,264.0,176.0,yellow,hexagon
0.0,7.0,3.0,1.0,7.0,5.0,2273.2666600495577,2.0,1.0,part_3,go,0.0,0.0,0.0,216.0,4.0,270.0,324.0,54.0,108.0,216.0,162.0,gray,I
0.0,1.0,1.0,0.0,7.0,5.0,2175.5225202068686,2.0,1.0,part_3,go,0.0,0.0,0.0,324.0,6.0,54.0,270.0,108.0,162.0,324.0,216.0,white,cross
0.0,4.0,4.0,0.0,7.0,2.0,2120.6082701683044,2.0,1.0,part_3,go,0.0,0.0,0.0,49.0,1.0,147.0,49.0,196.0,294.0,245.0,98.0,cyan,square
0.0,1.0,1.0,0.0,7.0,3.0,1381.758433766663,3.0,1.0,part_3,go,0.0,0.0,0.0,245.0,5.0,49.0,196.0,245.0,98.0,294.0,147.0,white,cross
0.0,2.0,2.0,0.0,7.0,6.0,1453.9497615769506,3.0,1.0,part_3,go,0.0,0.0,0.0,294.0,6.0,245.0,147.0,98.0,196.0,49.0,294.0,magenta,flipped triangle
0.0,7.0,3.0,1.0,7.0,4.0,2696.354712359607,3.0,1.0,part_3,go,0.0,0.0,0.0,324.0,6.0,216.0,108.0,162.0,324.0,270.0,54.0,gray,I
0.0,6.0,2.0,1.0,7.0,5.0,1486.8916822597384,3.0,1.0,part_3,go,0.0,0.0,0.0,102.0,3.0,34.0,136.0,170.0,68.0,102.0,204.0,yellow,hexagon
0.0,7.0,3.0,1.0,7.0,1.0,2065.0780480355024,3.0,1.0,part_3,go,0.0,0.0,0.0,204.0,6.0,204.0,170.0,102.0,34.0,136.0,68.0,gray,I
0.0,6.0,2.0,1.0,7.0,4.0,1965.332854539156,3.0,1.0,part_3,go,0.0,0.0,0.0,98.0,2.0,49.0,196.0,147.0,98.0,294.0,245.0,yellow,hexagon
0.0,5.0,1.0,1.0,7.0,3.0,2117.105375044048,3.0,1.0,part_3,go,0.0,0.0,0.0,264.0,6.0,176.0,88.0,264.0,132.0,220.0,44.0,green,triangle
0.0,7.0,3.0,1.0,7.0,6.0,2855.077287182212,3.0,1.0,part_3,go,0.0,0.0,0.0,245.0,5.0,147.0,294.0,98.0,196.0,49.0,245.0,gray,I
0.0,8.0,4.0,1.0,7.0,5.0,2070.8840154111385,3.0,1.0,part_3,go,0.0,0.0,0.0,270.0,5.0,162.0,216.0,324.0,54.0,270.0,108.0,blue,diamond
0.0,2.0,2.0,0.0,7.0,6.0,2226.7061192542315,3.0,1.0,part_3,go,0.0,0.0,0.0,245.0,5.0,294.0,49.0,147.0,196.0,98.0,245.0,magenta,flipped triangle
0.0,6.0,2.0,1.0,7.0,3.0,2097.3738180473447,3.0,1.0,part_3,go,0.0,0.0,0.0,132.0,3.0,264.0,44.0,132.0,176.0,88.0,220.0,yellow,hexagon
0.0,6.0,2.0,1.0,7.0,5.0,2228.877067565918,3.0,1.0,part_3,go,0.0,0.0,0.0,156.0,4.0,78.0,234.0,195.0,117.0,156.0,39.0,yellow,hexagon
0.0,1.0,1.0,0.0,7.0,6.0,2067.3801014199853,3.0,1.0,part_3,go,0.0,0.0,0.0,204.0,6.0,68.0,34.0,102.0,170.0,136.0,204.0,white,cross
0.0,5.0,1.0,1.0,7.0,3.0,1524.9652601778507,3.0,1.0,part_3,go,0.0,0.0,0.0,156.0,4.0,117.0,39.0,156.0,78.0,234.0,195.0,green,triangle
0.0,6.0,2.0,1.0,7.0,5.0,1560.1507425308228,3.0,1.0,part_3,go,0.0,0.0,0.0,108.0,2.0,54.0,324.0,270.0,216.0,108.0,162.0,yellow,hexagon
0.0,2.0,2.0,0.0,7.0,5.0,2474.524944089353,3.0,1.0,part_3,go,0.0,0.0,0.0,204.0,6.0,170.0,68.0,136.0,34.0,204.0,102.0,magenta,flipped triangle
0.0,3.0,3.0,0.0,7.0,4.0,2404.833436012268,3.0,1.0,part_3,go,0.0,0.0,0.0,54.0,1.0,324.0,162.0,270.0,54.0,108.0,216.0,orange,circle
0.0,3.0,3.0,0.0,7.0,4.0,1252.52525229007,3.0,1.0,part_3,go,0.0,0.0,0.0,44.0,1.0,132.0,88.0,220.0,44.0,176.0,264.0,orange,circle
0.0,8.0,4.0,1.0,7.0,5.0,2110.679181292653,3.0,1.0,part_3,go,0.0,0.0,0.0,204.0,6.0,136.0,34.0,170.0,102.0,204.0,68.0,blue,diamond
0.0,8.0,4.0,1.0,7.0,5.0,1325.6947556510568,3.0,1.0,part_3,go,0.0,0.0,0.0,204.0,6.0,68.0,170.0,102.0,136.0,204.0,34.0,blue,diamond
0.0,2.0,2.0,0.0,7.0,2.0,1738.28839417547,4.0,1.0,part_3,go,0.0,0.0,0.0,176.0,4.0,220.0,176.0,264.0,44.0,132.0,88.0,magenta,flipped triangle
0.0,3.0,3.0,0.0,7.0,5.0,1402.7212839573622,4.0,1.0,part_3,go,0.0,0.0,0.0,54.0,1.0,108.0,324.0,216.0,162.0,54.0,270.0,orange,circle
0.0,2.0,2.0,0.0,7.0,3.0,1816.7540477588773,4.0,1.0,part_3,go,0.0,0.0,0.0,234.0,6.0,78.0,195.0,234.0,39.0,117.0,156.0,magenta,flipped triangle
0.0,8.0,4.0,1.0,7.0,5.0,2116.664624772966,4.0,1.0,part_3,go,0.0,0.0,0.0,245.0,5.0,49.0,294.0,147.0,196.0,245.0,98.0,blue,diamond
0.0,2.0,2.0,0.0,7.0,3.0,3575.4203340038657,4.0,1.0,part_3,go,0.0,0.0,0.0,204.0,6.0,34.0,68.0,204.0,170.0,136.0,102.0,magenta,flipped triangle
0.0,7.0,3.0,1.0,7.0,1.0,2375.4816707223654,4.0,1.0,part_3,go,0.0,0.0,0.0,195.0,5.0,195.0,234.0,78.0,117.0,39.0,156.0,gray,I
0.0,1.0,1.0,0.0,7.0,5.0,1110.8703333884478,4.0,1.0,part_3,go,0.0,0.0,0.0,147.0,3.0,98.0,245.0,294.0,49.0,147.0,196.0,white,cross
0.0,3.0,3.0,0.0,7.0,3.0,1596.0261495783925,4.0,1.0,part_3,go,0.0,0.0,0.0,49.0,1.0,245.0,98.0,49.0,196.0,294.0,147.0,orange,circle
0.0,3.0,3.0,0.0,7.0,4.0,1402.6848245412111,4.0,1.0,part_3,go,0.0,0.0,0.0,34.0,1.0,170.0,136.0,102.0,34.0,204.0,68.0,orange,circle
0.0,3.0,3.0,0.0,7.0,3.0,1765.3604205697777,4.0,1.0,part_3,go,0.0,0.0,0.0,78.0,2.0,39.0,156.0,78.0,195.0,234.0,117.0,orange,circle
0.0,1.0,1.0,0.0,7.0,6.0,2563.7040259316564,4.0,1.0,part_3,go,0.0,0.0,0.0,234.0,6.0,156.0,117.0,39.0,78.0,195.0,234.0,white,cross
0.0,5.0,1.0,1.0,7.0,3.0,2085.2383002638817,4.0,1.0,part_3,go,0.0,0.0,0.0,162.0,3.0,216.0,324.0,162.0,54.0,270.0,108.0,green,triangle
0.0,5.0,1.0,1.0,7.0,2.0,2375.2012457698584,4.0,1.0,part_3,go,0.0,0.0,0.0,132.0,3.0,264.0,132.0,44.0,176.0,220.0,88.0,green,triangle
0.0,7.0,3.0,1.0,7.0,5.0,1386.7032136768105,4.0,1.0,part_3,go,0.0,0.0,0.0,220.0,5.0,132.0,176.0,44.0,88.0,220.0,264.0,gray,I
0.0,2.0,2.0,0.0,7.0,3.0,1761.7330588400364,4.0,1.0,part_3,go,0.0,0.0,0.0,324.0,6.0,162.0,270.0,324.0,216.0,108.0,54.0,magenta,flipped triangle
0.0,8.0,4.0,1.0,7.0,3.0,2371.4458383619785,4.0,1.0,part_3,go,0.0,0.0,0.0,220.0,5.0,44.0,176.0,220.0,264.0,88.0,132.0,blue,diamond
0.0,5.0,1.0,1.0,7.0,6.0,2008.1921387463808,4.0,1.0,part_3,go,0.0,0.0,0.0,102.0,3.0,136.0,170.0,68.0,34.0,204.0,102.0,green,triangle
0.0,4.0,4.0,0.0,7.0,5.0,2377.758448943496,4.0,1.0,part_3,go,0.0,0.0,0.0,156.0,4.0,117.0,234.0,195.0,78.0,156.0,39.0,cyan,square
0.0,4.0,4.0,0.0,7.0,4.0,2889.0513414517045,4.0,1.0,part_3,go,0.0,0.0,0.0,170.0,5.0,102.0,204.0,68.0,170.0,136.0,34.0,cyan,square
0.0,5.0,1.0,1.0,7.0,2.0,2105.4705483838916,4.0,1.0,part_3,go,0.0,0.0,0.0,170.0,5.0,68.0,170.0,136.0,34.0,102.0,204.0,green,triangle
