raw_reward_magnitude,stim_reward,stepwise_reward_magnitude,paired_with_stopping,quadrant,response,reaction_time,block,num_trial_presentations,which_part,stop_signal_trial_type,left_SSD,right_SSD,accuracy,chosen_bidding_amount,chosen_bidding_level,possible_bid_1,possible_bid_2,possible_bid_3,possible_bid_4,possible_bid_5,possible_bid_6,color_text,shape_text
118.0,2.0,2.0,0.0,3.0,3.0,441.9964849948883,1.0,1.0,part_1,,,,,,,,,,,,,green,I
0.0,7.0,0.0,1.0,2.0,2.0,422.2827348858118,1.0,1.0,part_1,,,,,,,,,,,,,cyan,flipped triangle
33.0,1.0,1.0,0.0,1.0,1.0,503.20921558886766,1.0,1.0,part_1,,,,,,,,,,,,,orange,circle
417.0,4.0,4.0,0.0,3.0,3.0,424.3370685726404,1.0,1.0,part_1,,,,,,,,,,,,,yellow,cross
0.0,5.0,0.0,1.0,2.0,2.0,305.6994583457708,1.0,1.0,part_1,,,,,,,,,,,,,blue,triangle
101.0,2.0,2.0,0.0,1.0,1.0,360.102173872292,1.0,1.0,part_1,,,,,,,,,,,,,green,I
72.0,5.0,1.0,1.0,2.0,2.0,325.4415690898895,1.0,1.0,part_1,,,,,,,,,,,,,blue,triangle
377.0,8.0,4.0,1.0,4.0,4.0,465.2437390759587,1.0,1.0,part_1,,,,,,,,,,,,,gray,square
81.0,6.0,2.0,1.0,2.0,2.0,276.4565590769052,1.0,1.0,part_1,,,,,,,,,,,,,magenta,diamond
39.0,5.0,1.0,1.0,4.0,4.0,353.8043014705181,1.0,1.0,part_1,,,,,,,,,,,,,blue,triangle
33.0,5.0,1.0,1.0,2.0,2.0,279.4970832765102,1.0,1.0,part_1,,,,,,,,,,,,,blue,triangle
53.0,1.0,1.0,0.0,4.0,4.0,338.5124448686838,1.0,1.0,part_1,,,,,,,,,,,,,orange,circle
423.0,4.0,4.0,0.0,1.0,1.0,328.5293616354465,1.0,1.0,part_1,,,,,,,,,,,,,yellow,cross
29.0,1.0,1.0,0.0,2.0,2.0,294.813827611506,1.0,1.0,part_1,,,,,,,,,,,,,orange,circle
399.0,8.0,4.0,1.0,4.0,4.0,336.6210795938968,1.0,1.0,part_1,,,,,,,,,,,,,gray,square
42.0,5.0,1.0,1.0,3.0,3.0,311.7820424959063,1.0,1.0,part_1,,,,,,,,,,,,,blue,triangle
203.0,3.0,3.0,0.0,1.0,1.0,315.8633513376117,1.0,1.0,part_1,,,,,,,,,,,,,white,hexagon
0.0,5.0,0.0,1.0,1.0,1.0,349.8223163187504,1.0,1.0,part_1,,,,,,,,,,,,,blue,triangle
90.0,6.0,2.0,1.0,1.0,1.0,325.7412230595946,1.0,1.0,part_1,,,,,,,,,,,,,magenta,diamond
0.0,7.0,0.0,1.0,4.0,4.0,353.5375660285353,1.0,1.0,part_1,,,,,,,,,,,,,cyan,flipped triangle
86.0,6.0,2.0,1.0,4.0,4.0,340.8115850761533,1.0,1.0,part_1,,,,,,,,,,,,,magenta,diamond
72.0,1.0,1.0,0.0,2.0,2.0,304.2869763448834,1.0,1.0,part_1,,,,,,,,,,,,,orange,circle
29.0,1.0,1.0,0.0,1.0,1.0,358.5910713300109,1.0,1.0,part_1,,,,,,,,,,,,,orange,circle
82.0,2.0,2.0,0.0,3.0,3.0,362.8331171348691,1.0,1.0,part_1,,,,,,,,,,,,,green,I
0.0,2.0,0.0,0.0,4.0,4.0,399.4237072765827,1.0,1.0,part_1,,,,,,,,,,,,,green,I
98.0,6.0,2.0,1.0,4.0,4.0,420.7993755117059,1.0,1.0,part_1,,,,,,,,,,,,,magenta,diamond
183.0,7.0,3.0,1.0,4.0,4.0,433.0312637612223,1.0,1.0,part_1,,,,,,,,,,,,,cyan,flipped triangle
425.0,8.0,4.0,1.0,2.0,2.0,311.7238422855735,1.0,1.0,part_1,,,,,,,,,,,,,gray,square
423.0,8.0,4.0,1.0,1.0,1.0,324.7550567612052,1.0,1.0,part_1,,,,,,,,,,,,,gray,square
382.0,4.0,4.0,0.0,4.0,4.0,423.1327762827277,1.0,1.0,part_1,,,,,,,,,,,,,yellow,cross
213.0,7.0,3.0,1.0,1.0,1.0,354.5782258734107,1.0,1.0,part_1,,,,,,,,,,,,,cyan,flipped triangle
74.0,1.0,1.0,0.0,2.0,2.0,306.1073273420334,1.0,1.0,part_1,,,,,,,,,,,,,orange,circle
381.0,8.0,4.0,1.0,2.0,2.0,366.5454536676407,1.0,1.0,part_1,,,,,,,,,,,,,gray,square
111.0,6.0,2.0,1.0,2.0,2.0,314.8235389962792,1.0,1.0,part_1,,,,,,,,,,,,,magenta,diamond
0.0,6.0,0.0,1.0,1.0,1.0,288.558280095458,1.0,1.0,part_1,,,,,,,,,,,,,magenta,diamond
424.0,4.0,4.0,0.0,3.0,3.0,285.2542446926236,1.0,1.0,part_1,,,,,,,,,,,,,yellow,cross
0.0,3.0,0.0,0.0,3.0,3.0,470.6897959113121,1.0,1.0,part_1,,,,,,,,,,,,,white,hexagon
424.0,8.0,4.0,1.0,2.0,2.0,407.3554780334234,1.0,1.0,part_1,,,,,,,,,,,,,gray,square
419.0,4.0,4.0,0.0,4.0,4.0,296.0687046870589,1.0,1.0,part_1,,,,,,,,,,,,,yellow,cross
86.0,2.0,2.0,0.0,1.0,1.0,382.6318839564919,1.0,1.0,part_1,,,,,,,,,,,,,green,I
65.0,1.0,1.0,0.0,3.0,3.0,346.4514669030905,1.0,1.0,part_1,,,,,,,,,,,,,orange,circle
413.0,8.0,4.0,1.0,4.0,4.0,414.5262455567717,1.0,1.0,part_1,,,,,,,,,,,,,gray,square
0.0,3.0,0.0,0.0,3.0,3.0,333.223751746118,1.0,1.0,part_1,,,,,,,,,,,,,white,hexagon
94.0,6.0,2.0,1.0,1.0,1.0,296.0905330255627,1.0,1.0,part_1,,,,,,,,,,,,,magenta,diamond
120.0,2.0,2.0,0.0,2.0,2.0,324.4114145636558,1.0,1.0,part_1,,,,,,,,,,,,,green,I
377.0,4.0,4.0,0.0,3.0,3.0,346.0111925378442,1.0,1.0,part_1,,,,,,,,,,,,,yellow,cross
52.0,1.0,1.0,0.0,2.0,2.0,344.9693070724606,1.0,1.0,part_1,,,,,,,,,,,,,orange,circle
410.0,8.0,4.0,1.0,3.0,3.0,354.3280148878693,1.0,1.0,part_1,,,,,,,,,,,,,gray,square
52.0,1.0,1.0,0.0,2.0,2.0,344.8495594784617,1.0,1.0,part_1,,,,,,,,,,,,,orange,circle
0.0,8.0,0.0,1.0,2.0,2.0,439.6443367004394,1.0,1.0,part_1,,,,,,,,,,,,,gray,square
0.0,6.0,0.0,1.0,4.0,4.0,472.3356319591403,1.0,1.0,part_1,,,,,,,,,,,,,magenta,diamond
211.0,7.0,3.0,1.0,3.0,3.0,333.1746496260166,1.0,1.0,part_1,,,,,,,,,,,,,cyan,flipped triangle
0.0,2.0,0.0,0.0,3.0,3.0,325.7422801107168,1.0,1.0,part_1,,,,,,,,,,,,,green,I
391.0,4.0,4.0,0.0,2.0,2.0,327.3558309301734,1.0,1.0,part_1,,,,,,,,,,,,,yellow,cross
39.0,1.0,1.0,0.0,1.0,1.0,311.0682601109147,1.0,1.0,part_1,,,,,,,,,,,,,orange,circle
31.0,5.0,1.0,1.0,2.0,2.0,255.8361142873764,1.0,1.0,part_1,,,,,,,,,,,,,blue,triangle
87.0,2.0,2.0,0.0,2.0,2.0,342.6590245217085,1.0,1.0,part_1,,,,,,,,,,,,,green,I
0.0,2.0,0.0,0.0,1.0,1.0,331.8312522023916,1.0,1.0,part_1,,,,,,,,,,,,,green,I
0.0,8.0,0.0,1.0,2.0,2.0,280.1079526543617,1.0,1.0,part_1,,,,,,,,,,,,,gray,square
204.0,7.0,3.0,1.0,2.0,2.0,341.0052238032222,1.0,1.0,part_1,,,,,,,,,,,,,cyan,flipped triangle
90.0,2.0,2.0,0.0,1.0,1.0,322.5512262433767,1.0,1.0,part_1,,,,,,,,,,,,,green,I
0.0,2.0,0.0,0.0,3.0,3.0,333.8220473378896,1.0,1.0,part_1,,,,,,,,,,,,,green,I
0.0,7.0,0.0,1.0,1.0,1.0,369.4653958082199,1.0,1.0,part_1,,,,,,,,,,,,,cyan,flipped triangle
103.0,2.0,2.0,0.0,3.0,3.0,334.1904114931822,1.0,1.0,part_1,,,,,,,,,,,,,green,I
182.0,7.0,3.0,1.0,2.0,2.0,317.0997239649296,1.0,1.0,part_1,,,,,,,,,,,,,cyan,flipped triangle
105.0,6.0,2.0,1.0,4.0,4.0,378.8442565128207,1.0,1.0,part_1,,,,,,,,,,,,,magenta,diamond
0.0,7.0,0.0,1.0,2.0,2.0,278.8158459588885,1.0,1.0,part_1,,,,,,,,,,,,,cyan,flipped triangle
208.0,3.0,3.0,0.0,2.0,2.0,361.0626803711056,1.0,1.0,part_1,,,,,,,,,,,,,white,hexagon
384.0,8.0,4.0,1.0,1.0,1.0,360.7849450781941,1.0,1.0,part_1,,,,,,,,,,,,,gray,square
378.0,4.0,4.0,0.0,3.0,3.0,331.9360055029392,1.0,1.0,part_1,,,,,,,,,,,,,yellow,cross
0.0,6.0,0.0,1.0,1.0,1.0,337.4726325273514,1.0,1.0,part_1,,,,,,,,,,,,,magenta,diamond
0.0,8.0,0.0,1.0,2.0,2.0,323.3842318877578,1.0,1.0,part_1,,,,,,,,,,,,,gray,square
402.0,4.0,4.0,0.0,4.0,4.0,376.630550250411,1.0,1.0,part_1,,,,,,,,,,,,,yellow,cross
69.0,5.0,1.0,1.0,4.0,4.0,404.1620381176471,1.0,1.0,part_1,,,,,,,,,,,,,blue,triangle
110.0,2.0,2.0,0.0,2.0,2.0,299.1853663697839,1.0,1.0,part_1,,,,,,,,,,,,,green,I
102.0,2.0,2.0,0.0,4.0,4.0,481.5106261521578,1.0,1.0,part_1,,,,,,,,,,,,,green,I
65.0,5.0,1.0,1.0,3.0,3.0,414.4999217242002,1.0,1.0,part_1,,,,,,,,,,,,,blue,triangle
117.0,2.0,2.0,0.0,3.0,3.0,378.3043855801224,1.0,1.0,part_1,,,,,,,,,,,,,green,I
0.0,4.0,0.0,0.0,1.0,1.0,365.8063746988773,1.0,1.0,part_1,,,,,,,,,,,,,yellow,cross
409.0,8.0,4.0,1.0,1.0,1.0,370.3196980059147,1.0,1.0,part_1,,,,,,,,,,,,,gray,square
94.0,2.0,2.0,0.0,4.0,4.0,437.9193363711238,1.0,1.0,part_1,,,,,,,,,,,,,green,I
411.0,8.0,4.0,1.0,1.0,1.0,394.3026131018996,1.0,1.0,part_1,,,,,,,,,,,,,gray,square
0.0,4.0,0.0,0.0,2.0,2.0,384.861147031188,1.0,1.0,part_1,,,,,,,,,,,,,yellow,cross
77.0,6.0,2.0,1.0,1.0,1.0,379.5682862401008,1.0,1.0,part_1,,,,,,,,,,,,,magenta,diamond
87.0,6.0,2.0,1.0,4.0,4.0,378.1700069084763,1.0,1.0,part_1,,,,,,,,,,,,,magenta,diamond
213.0,3.0,3.0,0.0,3.0,3.0,366.4861898869276,1.0,1.0,part_1,,,,,,,,,,,,,white,hexagon
204.0,3.0,3.0,0.0,2.0,2.0,325.0893587246537,1.0,1.0,part_1,,,,,,,,,,,,,white,hexagon
192.0,3.0,3.0,0.0,4.0,4.0,353.0259262770414,1.0,1.0,part_1,,,,,,,,,,,,,white,hexagon
36.0,5.0,1.0,1.0,3.0,3.0,315.6373687088489,1.0,1.0,part_1,,,,,,,,,,,,,blue,triangle
179.0,3.0,3.0,0.0,2.0,2.0,287.5050948932767,1.0,1.0,part_1,,,,,,,,,,,,,white,hexagon
187.0,7.0,3.0,1.0,1.0,1.0,299.7741941362619,1.0,1.0,part_1,,,,,,,,,,,,,cyan,flipped triangle
99.0,2.0,2.0,0.0,4.0,4.0,441.4424635469913,1.0,1.0,part_1,,,,,,,,,,,,,green,I
208.0,7.0,3.0,1.0,4.0,4.0,391.0175263881683,1.0,1.0,part_1,,,,,,,,,,,,,cyan,flipped triangle
0.0,1.0,0.0,0.0,2.0,2.0,283.8556701317429,1.0,1.0,part_1,,,,,,,,,,,,,orange,circle
78.0,2.0,2.0,0.0,3.0,3.0,343.5070076957345,1.0,1.0,part_1,,,,,,,,,,,,,green,I
211.0,3.0,3.0,0.0,4.0,4.0,462.8086676821112,1.0,1.0,part_1,,,,,,,,,,,,,white,hexagon
0.0,7.0,0.0,1.0,2.0,2.0,339.3826559185982,1.0,1.0,part_1,,,,,,,,,,,,,cyan,flipped triangle
105.0,2.0,2.0,0.0,4.0,4.0,359.1391323134303,1.0,1.0,part_1,,,,,,,,,,,,,green,I
120.0,6.0,2.0,1.0,2.0,2.0,258.291469886899,1.0,1.0,part_1,,,,,,,,,,,,,magenta,diamond
203.0,7.0,3.0,1.0,1.0,1.0,310.8870843425393,1.0,1.0,part_1,,,,,,,,,,,,,cyan,flipped triangle
0.0,4.0,0.0,0.0,4.0,4.0,384.0103354305029,2.0,1.0,part_1,,,,,,,,,,,,,yellow,cross
0.0,1.0,0.0,0.0,2.0,2.0,346.6227129101753,2.0,1.0,part_1,,,,,,,,,,,,,orange,circle
194.0,7.0,3.0,1.0,4.0,4.0,335.7836296781897,2.0,1.0,part_1,,,,,,,,,,,,,cyan,flipped triangle
180.0,7.0,3.0,1.0,4.0,4.0,364.3137207254767,2.0,1.0,part_1,,,,,,,,,,,,,cyan,flipped triangle
179.0,3.0,3.0,0.0,2.0,2.0,291.5613520890474,2.0,1.0,part_1,,,,,,,,,,,,,white,hexagon
209.0,3.0,3.0,0.0,3.0,3.0,360.7326671481132,2.0,1.0,part_1,,,,,,,,,,,,,white,hexagon
0.0,4.0,0.0,0.0,1.0,1.0,314.7499542683363,2.0,1.0,part_1,,,,,,,,,,,,,yellow,cross
63.0,5.0,1.0,1.0,3.0,3.0,418.019438162446,2.0,1.0,part_1,,,,,,,,,,,,,blue,triangle
197.0,7.0,3.0,1.0,1.0,1.0,381.6841812804341,2.0,1.0,part_1,,,,,,,,,,,,,cyan,flipped triangle
392.0,4.0,4.0,0.0,3.0,3.0,426.4707006514072,2.0,1.0,part_1,,,,,,,,,,,,,yellow,cross
94.0,6.0,2.0,1.0,3.0,3.0,373.6412832513451,2.0,1.0,part_1,,,,,,,,,,,,,magenta,diamond
0.0,1.0,0.0,0.0,3.0,3.0,323.6029762774706,2.0,1.0,part_1,,,,,,,,,,,,,orange,circle
57.0,5.0,1.0,1.0,2.0,2.0,352.3525493219495,2.0,1.0,part_1,,,,,,,,,,,,,blue,triangle
63.0,1.0,1.0,0.0,3.0,3.0,372.7892814204097,2.0,1.0,part_1,,,,,,,,,,,,,orange,circle
391.0,4.0,4.0,0.0,4.0,4.0,386.0528729856014,2.0,1.0,part_1,,,,,,,,,,,,,yellow,cross
42.0,1.0,1.0,0.0,4.0,4.0,367.5915664061904,2.0,1.0,part_1,,,,,,,,,,,,,orange,circle
105.0,6.0,2.0,1.0,1.0,1.0,324.1009935736656,2.0,1.0,part_1,,,,,,,,,,,,,magenta,diamond
424.0,8.0,4.0,1.0,3.0,3.0,336.9646687060594,2.0,1.0,part_1,,,,,,,,,,,,,gray,square
413.0,8.0,4.0,1.0,4.0,4.0,387.4583458527922,2.0,1.0,part_1,,,,,,,,,,,,,gray,square
192.0,3.0,3.0,0.0,3.0,3.0,355.2257679402828,2.0,1.0,part_1,,,,,,,,,,,,,white,hexagon
0.0,5.0,0.0,1.0,2.0,2.0,326.593087054789,2.0,1.0,part_1,,,,,,,,,,,,,blue,triangle
411.0,4.0,4.0,0.0,4.0,4.0,492.7349528297782,2.0,1.0,part_1,,,,,,,,,,,,,yellow,cross
0.0,7.0,0.0,1.0,3.0,3.0,397.9585329070687,2.0,1.0,part_1,,,,,,,,,,,,,cyan,flipped triangle
0.0,6.0,0.0,1.0,4.0,4.0,409.7972130402922,2.0,1.0,part_1,,,,,,,,,,,,,magenta,diamond
0.0,4.0,0.0,0.0,4.0,4.0,407.4666136875748,2.0,1.0,part_1,,,,,,,,,,,,,yellow,cross
121.0,6.0,2.0,1.0,2.0,2.0,323.1532294303179,2.0,1.0,part_1,,,,,,,,,,,,,magenta,diamond
80.0,2.0,2.0,0.0,1.0,1.0,339.6855862811208,2.0,1.0,part_1,,,,,,,,,,,,,green,I
0.0,4.0,0.0,0.0,4.0,4.0,381.7462585866451,2.0,1.0,part_1,,,,,,,,,,,,,yellow,cross
0.0,1.0,0.0,0.0,2.0,2.0,340.3056329116225,2.0,1.0,part_1,,,,,,,,,,,,,orange,circle
51.0,1.0,1.0,0.0,1.0,1.0,366.3362832739949,2.0,1.0,part_1,,,,,,,,,,,,,orange,circle
211.0,3.0,3.0,0.0,2.0,2.0,322.7373929694295,2.0,1.0,part_1,,,,,,,,,,,,,white,hexagon
44.0,5.0,1.0,1.0,4.0,4.0,418.0106278508901,2.0,1.0,part_1,,,,,,,,,,,,,blue,triangle
54.0,5.0,1.0,1.0,1.0,1.0,348.7597489729523,2.0,1.0,part_1,,,,,,,,,,,,,blue,triangle
44.0,1.0,1.0,0.0,1.0,1.0,377.673989161849,2.0,1.0,part_1,,,,,,,,,,,,,orange,circle
0.0,2.0,0.0,0.0,3.0,3.0,421.8269977718591,2.0,1.0,part_1,,,,,,,,,,,,,green,I
29.0,5.0,1.0,1.0,1.0,1.0,322.4661126732826,2.0,1.0,part_1,,,,,,,,,,,,,blue,triangle
28.0,1.0,1.0,0.0,1.0,1.0,359.368103556335,2.0,1.0,part_1,,,,,,,,,,,,,orange,circle
192.0,7.0,3.0,1.0,1.0,1.0,355.6966120377183,2.0,1.0,part_1,,,,,,,,,,,,,cyan,flipped triangle
101.0,6.0,2.0,1.0,3.0,3.0,354.5758621767163,2.0,1.0,part_1,,,,,,,,,,,,,magenta,diamond
410.0,4.0,4.0,0.0,4.0,4.0,462.5911079347133,2.0,1.0,part_1,,,,,,,,,,,,,yellow,cross
57.0,1.0,1.0,0.0,3.0,3.0,333.5533225908875,2.0,1.0,part_1,,,,,,,,,,,,,orange,circle
0.0,8.0,0.0,1.0,3.0,3.0,353.4798296168446,2.0,1.0,part_1,,,,,,,,,,,,,gray,square
419.0,8.0,4.0,1.0,1.0,1.0,339.6899355575442,2.0,1.0,part_1,,,,,,,,,,,,,gray,square
406.0,8.0,4.0,1.0,4.0,4.0,465.4949139803648,2.0,1.0,part_1,,,,,,,,,,,,,gray,square
117.0,6.0,2.0,1.0,1.0,1.0,364.7718532010913,2.0,1.0,part_1,,,,,,,,,,,,,magenta,diamond
46.0,1.0,1.0,0.0,1.0,1.0,398.268623277545,2.0,1.0,part_1,,,,,,,,,,,,,orange,circle
201.0,3.0,3.0,0.0,3.0,3.0,383.5269482806325,2.0,1.0,part_1,,,,,,,,,,,,,white,hexagon
0.0,7.0,0.0,1.0,4.0,4.0,428.672531619668,2.0,1.0,part_1,,,,,,,,,,,,,cyan,flipped triangle
225.0,3.0,3.0,0.0,1.0,1.0,315.1387041434645,2.0,1.0,part_1,,,,,,,,,,,,,white,hexagon
84.0,6.0,2.0,1.0,2.0,2.0,406.8676540628075,2.0,1.0,part_1,,,,,,,,,,,,,magenta,diamond
0.0,7.0,0.0,1.0,3.0,3.0,396.7256899923086,2.0,1.0,part_1,,,,,,,,,,,,,cyan,flipped triangle
115.0,2.0,2.0,0.0,4.0,4.0,424.7676115483045,2.0,1.0,part_1,,,,,,,,,,,,,green,I
53.0,5.0,1.0,1.0,4.0,4.0,378.5504614934325,2.0,1.0,part_1,,,,,,,,,,,,,blue,triangle
407.0,4.0,4.0,0.0,2.0,2.0,278.3890161663294,2.0,1.0,part_1,,,,,,,,,,,,,yellow,cross
53.0,1.0,1.0,0.0,3.0,3.0,347.0867816358804,2.0,1.0,part_1,,,,,,,,,,,,,orange,circle
109.0,2.0,2.0,0.0,2.0,2.0,280.5413296446204,2.0,1.0,part_1,,,,,,,,,,,,,green,I
57.0,1.0,1.0,0.0,2.0,2.0,348.8273452967405,2.0,1.0,part_1,,,,,,,,,,,,,orange,circle
0.0,4.0,0.0,0.0,1.0,1.0,324.9878622591495,2.0,1.0,part_1,,,,,,,,,,,,,yellow,cross
32.0,1.0,1.0,0.0,3.0,3.0,304.5828100293875,2.0,1.0,part_1,,,,,,,,,,,,,orange,circle
179.0,7.0,3.0,1.0,1.0,1.0,302.8575517237186,2.0,1.0,part_1,,,,,,,,,,,,,cyan,flipped triangle
222.0,3.0,3.0,0.0,1.0,1.0,354.2844830080867,2.0,1.0,part_1,,,,,,,,,,,,,white,hexagon
0.0,6.0,0.0,1.0,3.0,3.0,300.5560943856835,2.0,1.0,part_1,,,,,,,,,,,,,magenta,diamond
188.0,7.0,3.0,1.0,2.0,2.0,304.3522117659449,2.0,1.0,part_1,,,,,,,,,,,,,cyan,flipped triangle
0.0,4.0,0.0,0.0,1.0,1.0,288.2713442668319,2.0,1.0,part_1,,,,,,,,,,,,,yellow,cross
80.0,6.0,2.0,1.0,3.0,3.0,414.219057187438,2.0,1.0,part_1,,,,,,,,,,,,,magenta,diamond
218.0,7.0,3.0,1.0,4.0,4.0,313.3399672806263,2.0,1.0,part_1,,,,,,,,,,,,,cyan,flipped triangle
0.0,2.0,0.0,0.0,1.0,1.0,316.1463811993599,2.0,1.0,part_1,,,,,,,,,,,,,green,I
418.0,8.0,4.0,1.0,1.0,1.0,360.9113451093435,2.0,1.0,part_1,,,,,,,,,,,,,gray,square
188.0,3.0,3.0,0.0,3.0,3.0,277.0937634631991,2.0,1.0,part_1,,,,,,,,,,,,,white,hexagon
55.0,1.0,1.0,0.0,4.0,4.0,388.3565720170736,2.0,1.0,part_1,,,,,,,,,,,,,orange,circle
402.0,8.0,4.0,1.0,3.0,3.0,326.309016905725,2.0,1.0,part_1,,,,,,,,,,,,,gray,square
82.0,6.0,2.0,1.0,3.0,3.0,348.9539315924048,2.0,1.0,part_1,,,,,,,,,,,,,magenta,diamond
117.0,2.0,2.0,0.0,3.0,3.0,368.4746855869889,2.0,1.0,part_1,,,,,,,,,,,,,green,I
217.0,3.0,3.0,0.0,3.0,3.0,308.457113802433,2.0,1.0,part_1,,,,,,,,,,,,,white,hexagon
80.0,2.0,2.0,0.0,1.0,1.0,341.1476565524935,2.0,1.0,part_1,,,,,,,,,,,,,green,I
399.0,4.0,4.0,0.0,2.0,2.0,431.8421585485339,2.0,1.0,part_1,,,,,,,,,,,,,yellow,cross
204.0,3.0,3.0,0.0,3.0,3.0,267.1034624800086,2.0,1.0,part_1,,,,,,,,,,,,,white,hexagon
46.0,5.0,1.0,1.0,1.0,1.0,280.4361963644624,2.0,1.0,part_1,,,,,,,,,,,,,blue,triangle
0.0,2.0,0.0,0.0,2.0,2.0,331.5917942672968,2.0,1.0,part_1,,,,,,,,,,,,,green,I
0.0,3.0,0.0,0.0,1.0,1.0,272.6378245279193,2.0,1.0,part_1,,,,,,,,,,,,,white,hexagon
418.0,4.0,4.0,0.0,4.0,4.0,368.2078467682004,2.0,1.0,part_1,,,,,,,,,,,,,yellow,cross
82.0,2.0,2.0,0.0,2.0,2.0,260.1910317316651,2.0,1.0,part_1,,,,,,,,,,,,,green,I
402.0,8.0,4.0,1.0,2.0,2.0,365.5784064903855,2.0,2.0,part_1,,,,,,,,,,,,,gray,square
57.0,5.0,1.0,1.0,2.0,2.0,323.2200853526592,2.0,1.0,part_1,,,,,,,,,,,,,blue,triangle
94.0,6.0,2.0,1.0,4.0,4.0,662.4977812170982,2.0,1.0,part_1,,,,,,,,,,,,,magenta,diamond
384.0,4.0,4.0,0.0,1.0,1.0,388.030651025474,2.0,1.0,part_1,,,,,,,,,,,,,yellow,cross
378.0,8.0,4.0,1.0,3.0,3.0,478.6431156098842,2.0,1.0,part_1,,,,,,,,,,,,,gray,square
0.0,1.0,0.0,0.0,1.0,1.0,541.7496552690864,2.0,1.0,part_1,,,,,,,,,,,,,orange,circle
207.0,7.0,3.0,1.0,2.0,2.0,351.2543402612209,2.0,1.0,part_1,,,,,,,,,,,,,cyan,flipped triangle
111.0,2.0,2.0,0.0,3.0,3.0,398.0693891644478,2.0,1.0,part_1,,,,,,,,,,,,,green,I
0.0,6.0,0.0,1.0,2.0,2.0,456.9847919046879,2.0,1.0,part_1,,,,,,,,,,,,,magenta,diamond
32.0,5.0,1.0,1.0,2.0,2.0,453.4781845286488,2.0,1.0,part_1,,,,,,,,,,,,,blue,triangle
0.0,3.0,0.0,0.0,4.0,4.0,498.6374294385314,2.0,1.0,part_1,,,,,,,,,,,,,white,hexagon
0.0,4.0,0.0,0.0,4.0,4.0,375.4958566278219,2.0,1.0,part_1,,,,,,,,,,,,,yellow,cross
73.0,5.0,1.0,1.0,3.0,3.0,398.705999366939,2.0,1.0,part_1,,,,,,,,,,,,,blue,triangle
418.0,8.0,4.0,1.0,2.0,2.0,331.8491717800498,2.0,1.0,part_1,,,,,,,,,,,,,gray,square
387.0,4.0,4.0,0.0,2.0,2.0,373.2204185798764,2.0,1.0,part_1,,,,,,,,,,,,,yellow,cross
380.0,8.0,4.0,1.0,3.0,3.0,365.7143842428922,2.0,1.0,part_1,,,,,,,,,,,,,gray,square
391.0,8.0,4.0,1.0,3.0,3.0,359.6984250470996,2.0,1.0,part_1,,,,,,,,,,,,,gray,square
42.0,1.0,1.0,0.0,3.0,3.0,348.9563269540667,2.0,1.0,part_1,,,,,,,,,,,,,orange,circle
221.0,3.0,3.0,0.0,1.0,1.0,336.2661935389042,3.0,1.0,part_1,,,,,,,,,,,,,white,hexagon
44.0,5.0,1.0,1.0,2.0,2.0,390.6540917232632,3.0,1.0,part_1,,,,,,,,,,,,,blue,triangle
378.0,4.0,4.0,0.0,2.0,2.0,345.9203345701098,3.0,1.0,part_1,,,,,,,,,,,,,yellow,cross
399.0,4.0,4.0,0.0,1.0,1.0,373.3379943296313,3.0,1.0,part_1,,,,,,,,,,,,,yellow,cross
99.0,6.0,2.0,1.0,3.0,3.0,337.3170904815197,3.0,1.0,part_1,,,,,,,,,,,,,magenta,diamond
214.0,7.0,3.0,1.0,3.0,3.0,374.2387006059289,3.0,1.0,part_1,,,,,,,,,,,,,cyan,flipped triangle
124.0,6.0,2.0,1.0,3.0,3.0,373.679113574326,3.0,1.0,part_1,,,,,,,,,,,,,magenta,diamond
98.0,2.0,2.0,0.0,3.0,3.0,394.0016031265259,3.0,1.0,part_1,,,,,,,,,,,,,green,I
194.0,3.0,3.0,0.0,2.0,2.0,302.4215074256062,3.0,1.0,part_1,,,,,,,,,,,,,white,hexagon
220.0,3.0,3.0,0.0,1.0,1.0,378.4839762374758,3.0,1.0,part_1,,,,,,,,,,,,,white,hexagon
379.0,4.0,4.0,0.0,3.0,3.0,376.7555011436343,3.0,1.0,part_1,,,,,,,,,,,,,yellow,cross
197.0,3.0,3.0,0.0,4.0,4.0,418.5365000739693,3.0,1.0,part_1,,,,,,,,,,,,,white,hexagon
221.0,7.0,3.0,1.0,4.0,4.0,369.9945686385035,3.0,1.0,part_1,,,,,,,,,,,,,cyan,flipped triangle
0.0,1.0,0.0,0.0,2.0,2.0,341.4919367060065,3.0,1.0,part_1,,,,,,,,,,,,,orange,circle
0.0,1.0,0.0,0.0,1.0,1.0,344.7154313325882,3.0,1.0,part_1,,,,,,,,,,,,,orange,circle
0.0,6.0,0.0,1.0,3.0,3.0,431.1930341646075,3.0,1.0,part_1,,,,,,,,,,,,,magenta,diamond
51.0,5.0,1.0,1.0,4.0,4.0,474.7240589931607,3.0,1.0,part_1,,,,,,,,,,,,,blue,triangle
115.0,6.0,2.0,1.0,2.0,2.0,383.4509961307049,3.0,1.0,part_1,,,,,,,,,,,,,magenta,diamond
220.0,7.0,3.0,1.0,2.0,2.0,438.2945252582431,3.0,1.0,part_1,,,,,,,,,,,,,cyan,flipped triangle
102.0,6.0,2.0,1.0,3.0,3.0,322.8589352220297,3.0,1.0,part_1,,,,,,,,,,,,,magenta,diamond
218.0,3.0,3.0,0.0,1.0,1.0,422.3811673000455,3.0,1.0,part_1,,,,,,,,,,,,,white,hexagon
402.0,4.0,4.0,0.0,1.0,1.0,355.9213168919086,3.0,1.0,part_1,,,,,,,,,,,,,yellow,cross
190.0,7.0,3.0,1.0,3.0,3.0,345.6022972241044,3.0,1.0,part_1,,,,,,,,,,,,,cyan,flipped triangle
97.0,6.0,2.0,1.0,4.0,4.0,549.6551431715488,3.0,1.0,part_1,,,,,,,,,,,,,magenta,diamond
0.0,5.0,0.0,1.0,2.0,2.0,474.1897322237491,3.0,1.0,part_1,,,,,,,,,,,,,blue,triangle
0.0,8.0,0.0,1.0,2.0,2.0,422.3717991262674,3.0,1.0,part_1,,,,,,,,,,,,,gray,square
57.0,1.0,1.0,0.0,4.0,4.0,411.3621488213539,3.0,1.0,part_1,,,,,,,,,,,,,orange,circle
31.0,1.0,1.0,0.0,1.0,1.0,389.7705981507897,3.0,1.0,part_1,,,,,,,,,,,,,orange,circle
390.0,8.0,4.0,1.0,3.0,3.0,422.2127050161361,3.0,1.0,part_1,,,,,,,,,,,,,gray,square
402.0,4.0,4.0,0.0,1.0,1.0,360.94805970788,3.0,1.0,part_1,,,,,,,,,,,,,yellow,cross
382.0,8.0,4.0,1.0,4.0,4.0,428.3981490880251,3.0,1.0,part_1,,,,,,,,,,,,,gray,square
0.0,5.0,0.0,1.0,3.0,3.0,394.8504226282239,3.0,1.0,part_1,,,,,,,,,,,,,blue,triangle
0.0,4.0,0.0,0.0,3.0,3.0,316.8910378590226,3.0,1.0,part_1,,,,,,,,,,,,,yellow,cross
55.0,5.0,1.0,1.0,3.0,3.0,347.3457051441073,3.0,1.0,part_1,,,,,,,,,,,,,blue,triangle
44.0,1.0,1.0,0.0,4.0,4.0,462.1466472744941,3.0,1.0,part_1,,,,,,,,,,,,,orange,circle
105.0,2.0,2.0,0.0,4.0,4.0,324.3641909211874,3.0,1.0,part_1,,,,,,,,,,,,,green,I
398.0,4.0,4.0,0.0,1.0,1.0,328.2688921317458,3.0,1.0,part_1,,,,,,,,,,,,,yellow,cross
197.0,7.0,3.0,1.0,1.0,1.0,300.1671703532338,3.0,1.0,part_1,,,,,,,,,,,,,cyan,flipped triangle
190.0,3.0,3.0,0.0,1.0,1.0,323.9727495238185,3.0,1.0,part_1,,,,,,,,,,,,,white,hexagon
106.0,6.0,2.0,1.0,4.0,4.0,399.66303948313,3.0,1.0,part_1,,,,,,,,,,,,,magenta,diamond
0.0,8.0,0.0,1.0,4.0,4.0,347.8697948157787,3.0,1.0,part_1,,,,,,,,,,,,,gray,square
73.0,1.0,1.0,0.0,2.0,2.0,326.995899900794,3.0,1.0,part_1,,,,,,,,,,,,,orange,circle
208.0,7.0,3.0,1.0,2.0,2.0,318.662442266941,3.0,1.0,part_1,,,,,,,,,,,,,cyan,flipped triangle
0.0,1.0,0.0,0.0,1.0,1.0,355.9080846607685,3.0,1.0,part_1,,,,,,,,,,,,,orange,circle
392.0,8.0,4.0,1.0,1.0,1.0,462.9603791981935,3.0,1.0,part_1,,,,,,,,,,,,,gray,square
29.0,5.0,1.0,1.0,4.0,4.0,442.472955211997,3.0,1.0,part_1,,,,,,,,,,,,,blue,triangle
0.0,5.0,0.0,1.0,1.0,1.0,425.6029697135091,3.0,1.0,part_1,,,,,,,,,,,,,blue,triangle
68.0,1.0,1.0,0.0,3.0,3.0,427.8817232698202,3.0,1.0,part_1,,,,,,,,,,,,,orange,circle
113.0,6.0,2.0,1.0,1.0,1.0,354.8282738775015,3.0,1.0,part_1,,,,,,,,,,,,,magenta,diamond
53.0,5.0,1.0,1.0,1.0,1.0,351.887084543705,3.0,1.0,part_1,,,,,,,,,,,,,blue,triangle
117.0,2.0,2.0,0.0,1.0,1.0,372.4764995276928,3.0,1.0,part_1,,,,,,,,,,,,,green,I
222.0,7.0,3.0,1.0,2.0,2.0,376.6729105263948,3.0,1.0,part_1,,,,,,,,,,,,,cyan,flipped triangle
0.0,3.0,0.0,0.0,4.0,4.0,402.3147281259298,3.0,1.0,part_1,,,,,,,,,,,,,white,hexagon
52.0,5.0,1.0,1.0,2.0,2.0,337.5935601070523,3.0,1.0,part_1,,,,,,,,,,,,,blue,triangle
0.0,5.0,0.0,1.0,4.0,4.0,446.5018613263964,3.0,1.0,part_1,,,,,,,,,,,,,blue,triangle
93.0,6.0,2.0,1.0,1.0,1.0,427.9779586941004,3.0,1.0,part_1,,,,,,,,,,,,,magenta,diamond
0.0,3.0,0.0,0.0,2.0,2.0,317.0028524473309,3.0,1.0,part_1,,,,,,,,,,,,,white,hexagon
73.0,5.0,1.0,1.0,3.0,3.0,332.7313009649515,3.0,1.0,part_1,,,,,,,,,,,,,blue,triangle
68.0,5.0,1.0,1.0,1.0,1.0,328.5798337310552,3.0,1.0,part_1,,,,,,,,,,,,,blue,triangle
97.0,2.0,2.0,0.0,1.0,1.0,413.3538817986846,3.0,1.0,part_1,,,,,,,,,,,,,green,I
0.0,8.0,0.0,1.0,4.0,4.0,402.7895368635654,3.0,1.0,part_1,,,,,,,,,,,,,gray,square
180.0,3.0,3.0,0.0,3.0,3.0,373.6462574452162,3.0,1.0,part_1,,,,,,,,,,,,,white,hexagon
211.0,7.0,3.0,1.0,4.0,4.0,435.733855701983,3.0,1.0,part_1,,,,,,,,,,,,,cyan,flipped triangle
222.0,3.0,3.0,0.0,4.0,4.0,399.5671197772026,3.0,1.0,part_1,,,,,,,,,,,,,white,hexagon
0.0,6.0,0.0,1.0,2.0,2.0,380.9254765510559,3.0,1.0,part_1,,,,,,,,,,,,,magenta,diamond
222.0,7.0,3.0,1.0,3.0,3.0,427.1196713671088,3.0,1.0,part_1,,,,,,,,,,,,,cyan,flipped triangle
113.0,2.0,2.0,0.0,2.0,2.0,405.4967369884252,3.0,1.0,part_1,,,,,,,,,,,,,green,I
413.0,4.0,4.0,0.0,1.0,1.0,554.1264340281487,3.0,1.0,part_1,,,,,,,,,,,,,yellow,cross
377.0,8.0,4.0,1.0,4.0,4.0,326.6593664884567,3.0,1.0,part_1,,,,,,,,,,,,,gray,square
217.0,7.0,3.0,1.0,2.0,2.0,388.1911402568221,3.0,1.0,part_1,,,,,,,,,,,,,cyan,flipped triangle
189.0,3.0,3.0,0.0,1.0,1.0,430.8386696502566,3.0,1.0,part_1,,,,,,,,,,,,,white,hexagon
179.0,7.0,3.0,1.0,3.0,3.0,347.6541731506586,3.0,1.0,part_1,,,,,,,,,,,,,cyan,flipped triangle
28.0,1.0,1.0,0.0,1.0,1.0,368.7513256445527,3.0,1.0,part_1,,,,,,,,,,,,,orange,circle
49.0,1.0,1.0,0.0,4.0,4.0,357.096554711461,3.0,1.0,part_1,,,,,,,,,,,,,orange,circle
38.0,1.0,1.0,0.0,3.0,3.0,361.7757726460695,3.0,1.0,part_1,,,,,,,,,,,,,orange,circle
32.0,5.0,1.0,1.0,1.0,1.0,320.2963061630726,3.0,1.0,part_1,,,,,,,,,,,,,blue,triangle
183.0,3.0,3.0,0.0,4.0,4.0,333.861774764955,3.0,1.0,part_1,,,,,,,,,,,,,white,hexagon
178.0,3.0,3.0,0.0,2.0,2.0,311.8282230570912,3.0,1.0,part_1,,,,,,,,,,,,,white,hexagon
117.0,6.0,2.0,1.0,4.0,4.0,408.0300880596041,3.0,1.0,part_1,,,,,,,,,,,,,magenta,diamond
418.0,4.0,4.0,0.0,1.0,1.0,315.1991469785571,3.0,1.0,part_1,,,,,,,,,,,,,yellow,cross
197.0,3.0,3.0,0.0,4.0,4.0,360.7880137860775,3.0,1.0,part_1,,,,,,,,,,,,,white,hexagon
104.0,2.0,2.0,0.0,4.0,4.0,394.5130202919245,3.0,1.0,part_1,,,,,,,,,,,,,green,I
82.0,6.0,2.0,1.0,2.0,2.0,345.5162346363067,3.0,1.0,part_1,,,,,,,,,,,,,magenta,diamond
0.0,3.0,0.0,0.0,1.0,1.0,292.2700103372335,3.0,1.0,part_1,,,,,,,,,,,,,white,hexagon
394.0,4.0,4.0,0.0,4.0,4.0,370.5887505784631,3.0,1.0,part_1,,,,,,,,,,,,,yellow,cross
27.0,1.0,1.0,0.0,1.0,1.0,317.2679813578725,3.0,1.0,part_1,,,,,,,,,,,,,orange,circle
124.0,2.0,2.0,0.0,1.0,1.0,347.6997716352343,3.0,1.0,part_1,,,,,,,,,,,,,green,I
189.0,7.0,3.0,1.0,4.0,4.0,329.4340893626213,3.0,1.0,part_1,,,,,,,,,,,,,cyan,flipped triangle
57.0,5.0,1.0,1.0,3.0,3.0,372.0368146896362,3.0,2.0,part_1,,,,,,,,,,,,,blue,triangle
81.0,2.0,2.0,0.0,4.0,4.0,415.7666712999344,3.0,1.0,part_1,,,,,,,,,,,,,green,I
78.0,6.0,2.0,1.0,4.0,4.0,386.159268207848,3.0,1.0,part_1,,,,,,,,,,,,,magenta,diamond
104.0,6.0,2.0,1.0,3.0,3.0,366.0727441310882,3.0,1.0,part_1,,,,,,,,,,,,,magenta,diamond
28.0,5.0,1.0,1.0,1.0,1.0,356.4850334078073,3.0,1.0,part_1,,,,,,,,,,,,,blue,triangle
27.0,5.0,1.0,1.0,4.0,4.0,441.3509853184223,3.0,1.0,part_1,,,,,,,,,,,,,blue,triangle
198.0,7.0,3.0,1.0,3.0,3.0,479.9124365672469,3.0,1.0,part_1,,,,,,,,,,,,,cyan,flipped triangle
183.0,3.0,3.0,0.0,2.0,2.0,458.799303509295,3.0,1.0,part_1,,,,,,,,,,,,,white,hexagon
77.0,2.0,2.0,0.0,2.0,2.0,405.1502030342817,3.0,1.0,part_1,,,,,,,,,,,,,green,I
392.0,8.0,4.0,1.0,2.0,2.0,437.8655720502138,3.0,1.0,part_1,,,,,,,,,,,,,gray,square
425.0,4.0,4.0,0.0,1.0,1.0,376.9017187878489,3.0,1.0,part_1,,,,,,,,,,,,,yellow,cross
69.0,1.0,1.0,0.0,4.0,4.0,462.751773186028,3.0,1.0,part_1,,,,,,,,,,,,,orange,circle
198.0,3.0,3.0,0.0,4.0,4.0,360.5330809950828,4.0,1.0,part_1,,,,,,,,,,,,,white,hexagon
424.0,4.0,4.0,0.0,3.0,3.0,468.9882853999734,4.0,1.0,part_1,,,,,,,,,,,,,yellow,cross
185.0,7.0,3.0,1.0,3.0,3.0,345.0374901294708,4.0,1.0,part_1,,,,,,,,,,,,,cyan,flipped triangle
204.0,7.0,3.0,1.0,3.0,3.0,295.1747747138142,4.0,1.0,part_1,,,,,,,,,,,,,cyan,flipped triangle
401.0,4.0,4.0,0.0,1.0,1.0,382.2443727403879,4.0,1.0,part_1,,,,,,,,,,,,,yellow,cross
402.0,8.0,4.0,1.0,3.0,3.0,410.3972371667623,4.0,1.0,part_1,,,,,,,,,,,,,gray,square
52.0,5.0,1.0,1.0,4.0,4.0,380.6146290153265,4.0,1.0,part_1,,,,,,,,,,,,,blue,triangle
36.0,1.0,1.0,0.0,4.0,4.0,440.8632768318057,4.0,1.0,part_1,,,,,,,,,,,,,orange,circle
379.0,8.0,4.0,1.0,3.0,3.0,416.304487735033,4.0,1.0,part_1,,,,,,,,,,,,,gray,square
214.0,3.0,3.0,0.0,1.0,1.0,353.9842767640948,4.0,1.0,part_1,,,,,,,,,,,,,white,hexagon
413.0,4.0,4.0,0.0,2.0,2.0,304.6156223863363,4.0,1.0,part_1,,,,,,,,,,,,,yellow,cross
0.0,7.0,0.0,1.0,2.0,2.0,374.2013536393642,4.0,1.0,part_1,,,,,,,,,,,,,cyan,flipped triangle
377.0,4.0,4.0,0.0,3.0,3.0,328.2146155834198,4.0,1.0,part_1,,,,,,,,,,,,,yellow,cross
109.0,6.0,2.0,1.0,3.0,3.0,375.213585793972,4.0,1.0,part_1,,,,,,,,,,,,,magenta,diamond
69.0,5.0,1.0,1.0,2.0,2.0,403.0727045610547,4.0,1.0,part_1,,,,,,,,,,,,,blue,triangle
106.0,6.0,2.0,1.0,2.0,2.0,329.0843348950147,4.0,1.0,part_1,,,,,,,,,,,,,magenta,diamond
377.0,4.0,4.0,0.0,4.0,4.0,469.0004494041204,4.0,1.0,part_1,,,,,,,,,,,,,yellow,cross
189.0,3.0,3.0,0.0,4.0,4.0,626.6467031091452,4.0,1.0,part_1,,,,,,,,,,,,,white,hexagon
106.0,2.0,2.0,0.0,2.0,2.0,327.6083096861839,4.0,1.0,part_1,,,,,,,,,,,,,green,I
77.0,2.0,2.0,0.0,1.0,1.0,418.4057898819446,4.0,1.0,part_1,,,,,,,,,,,,,green,I
94.0,2.0,2.0,0.0,1.0,1.0,357.6047206297517,4.0,1.0,part_1,,,,,,,,,,,,,green,I
394.0,8.0,4.0,1.0,2.0,2.0,600.2246607095003,4.0,2.0,part_1,,,,,,,,,,,,,gray,square
406.0,4.0,4.0,0.0,2.0,2.0,398.6833747476339,4.0,1.0,part_1,,,,,,,,,,,,,yellow,cross
0.0,7.0,0.0,1.0,3.0,3.0,618.6635680496693,4.0,1.0,part_1,,,,,,,,,,,,,cyan,flipped triangle
118.0,6.0,2.0,1.0,1.0,1.0,541.030210442841,4.0,1.0,part_1,,,,,,,,,,,,,magenta,diamond
189.0,7.0,3.0,1.0,1.0,1.0,492.7216088399291,4.0,1.0,part_1,,,,,,,,,,,,,cyan,flipped triangle
381.0,4.0,4.0,0.0,3.0,3.0,481.1023361980915,4.0,1.0,part_1,,,,,,,,,,,,,yellow,cross
42.0,5.0,1.0,1.0,1.0,1.0,506.6781844943762,4.0,1.0,part_1,,,,,,,,,,,,,blue,triangle
54.0,1.0,1.0,0.0,3.0,3.0,474.7709454968571,4.0,1.0,part_1,,,,,,,,,,,,,orange,circle
55.0,1.0,1.0,0.0,2.0,2.0,423.2762716710567,4.0,1.0,part_1,,,,,,,,,,,,,orange,circle
189.0,7.0,3.0,1.0,3.0,3.0,485.1499563083052,4.0,1.0,part_1,,,,,,,,,,,,,cyan,flipped triangle
64.0,5.0,1.0,1.0,2.0,2.0,480.0839526578784,4.0,1.0,part_1,,,,,,,,,,,,,blue,triangle
189.0,3.0,3.0,0.0,4.0,4.0,682.6004972681403,4.0,1.0,part_1,,,,,,,,,,,,,white,hexagon
187.0,3.0,3.0,0.0,2.0,2.0,399.2519294843077,4.0,1.0,part_1,,,,,,,,,,,,,white,hexagon
0.0,5.0,0.0,1.0,2.0,2.0,435.7476411387324,4.0,1.0,part_1,,,,,,,,,,,,,blue,triangle
0.0,2.0,0.0,0.0,3.0,3.0,451.4587121084332,4.0,1.0,part_1,,,,,,,,,,,,,green,I
0.0,1.0,0.0,0.0,4.0,4.0,512.9128340631723,4.0,1.0,part_1,,,,,,,,,,,,,orange,circle
178.0,7.0,3.0,1.0,4.0,4.0,466.4258034899831,4.0,1.0,part_1,,,,,,,,,,,,,cyan,flipped triangle
196.0,7.0,3.0,1.0,2.0,2.0,295.0318967923522,4.0,1.0,part_1,,,,,,,,,,,,,cyan,flipped triangle
183.0,7.0,3.0,1.0,3.0,3.0,324.7872544452548,4.0,1.0,part_1,,,,,,,,,,,,,cyan,flipped triangle
0.0,3.0,0.0,0.0,3.0,3.0,377.56873667240137,4.0,1.0,part_1,,,,,,,,,,,,,white,hexagon
0.0,8.0,0.0,1.0,3.0,3.0,374.932543374598,4.0,1.0,part_1,,,,,,,,,,,,,gray,square
415.0,8.0,4.0,1.0,1.0,1.0,428.3353872597217,4.0,1.0,part_1,,,,,,,,,,,,,gray,square
209.0,7.0,3.0,1.0,1.0,1.0,431.9332838058471,4.0,1.0,part_1,,,,,,,,,,,,,cyan,flipped triangle
94.0,2.0,2.0,0.0,4.0,4.0,444.6012871339917,4.0,1.0,part_1,,,,,,,,,,,,,green,I
377.0,8.0,4.0,1.0,4.0,4.0,419.2143334075808,4.0,1.0,part_1,,,,,,,,,,,,,gray,square
0.0,2.0,0.0,0.0,1.0,1.0,451.9815156236291,4.0,1.0,part_1,,,,,,,,,,,,,green,I
69.0,1.0,1.0,0.0,2.0,2.0,361.6231121122837,4.0,1.0,part_1,,,,,,,,,,,,,orange,circle
378.0,8.0,4.0,1.0,1.0,1.0,446.3231060653925,4.0,1.0,part_1,,,,,,,,,,,,,gray,square
73.0,1.0,1.0,0.0,3.0,3.0,476.3771072030067,4.0,1.0,part_1,,,,,,,,,,,,,orange,circle
84.0,2.0,2.0,0.0,4.0,4.0,410.5088850483298,4.0,1.0,part_1,,,,,,,,,,,,,green,I
201.0,7.0,3.0,1.0,1.0,1.0,446.8610854819417,4.0,1.0,part_1,,,,,,,,,,,,,cyan,flipped triangle
93.0,2.0,2.0,0.0,2.0,2.0,359.7832852974534,4.0,1.0,part_1,,,,,,,,,,,,,green,I
38.0,5.0,1.0,1.0,4.0,4.0,358.202563598752,4.0,1.0,part_1,,,,,,,,,,,,,blue,triangle
121.0,2.0,2.0,0.0,3.0,3.0,377.6943823322654,4.0,1.0,part_1,,,,,,,,,,,,,green,I
182.0,3.0,3.0,0.0,3.0,3.0,423.0724005028605,4.0,1.0,part_1,,,,,,,,,,,,,white,hexagon
390.0,4.0,4.0,0.0,4.0,4.0,554.7291235998273,4.0,1.0,part_1,,,,,,,,,,,,,yellow,cross
0.0,1.0,0.0,0.0,2.0,2.0,330.6824322789907,4.0,1.0,part_1,,,,,,,,,,,,,orange,circle
401.0,8.0,4.0,1.0,2.0,2.0,391.3333164528012,4.0,1.0,part_1,,,,,,,,,,,,,gray,square
49.0,5.0,1.0,1.0,3.0,3.0,427.4205714464187,4.0,1.0,part_1,,,,,,,,,,,,,blue,triangle
399.0,8.0,4.0,1.0,4.0,4.0,534.6195176243782,4.0,1.0,part_1,,,,,,,,,,,,,gray,square
103.0,6.0,2.0,1.0,2.0,2.0,381.5114926546812,4.0,1.0,part_1,,,,,,,,,,,,,magenta,diamond
0.0,6.0,0.0,1.0,1.0,1.0,438.6360459029674,4.0,1.0,part_1,,,,,,,,,,,,,magenta,diamond
68.0,5.0,1.0,1.0,1.0,1.0,454.9141665920615,4.0,1.0,part_1,,,,,,,,,,,,,blue,triangle
398.0,8.0,4.0,1.0,3.0,3.0,394.5749849081039,4.0,1.0,part_1,,,,,,,,,,,,,gray,square
0.0,8.0,0.0,1.0,2.0,2.0,320.1357340440154,4.0,1.0,part_1,,,,,,,,,,,,,gray,square
207.0,3.0,3.0,0.0,1.0,1.0,365.8155864104628,4.0,1.0,part_1,,,,,,,,,,,,,white,hexagon
80.0,6.0,2.0,1.0,2.0,2.0,303.7821874022484,4.0,1.0,part_1,,,,,,,,,,,,,magenta,diamond
106.0,2.0,2.0,0.0,3.0,3.0,413.9015953987837,4.0,1.0,part_1,,,,,,,,,,,,,green,I
192.0,7.0,3.0,1.0,2.0,2.0,353.7686308845877,4.0,1.0,part_1,,,,,,,,,,,,,cyan,flipped triangle
32.0,1.0,1.0,0.0,2.0,2.0,343.3151859790087,4.0,1.0,part_1,,,,,,,,,,,,,orange,circle
185.0,3.0,3.0,0.0,3.0,3.0,444.9112685397267,4.0,1.0,part_1,,,,,,,,,,,,,white,hexagon
74.0,5.0,1.0,1.0,3.0,3.0,406.1967600136995,4.0,1.0,part_1,,,,,,,,,,,,,blue,triangle
0.0,3.0,0.0,0.0,4.0,4.0,403.6748660728335,4.0,1.0,part_1,,,,,,,,,,,,,white,hexagon
0.0,2.0,0.0,0.0,1.0,1.0,353.8589552044868,4.0,1.0,part_1,,,,,,,,,,,,,green,I
417.0,8.0,4.0,1.0,2.0,2.0,359.1735679656267,4.0,1.0,part_1,,,,,,,,,,,,,gray,square
0.0,8.0,0.0,1.0,4.0,4.0,516.3876935839653,4.0,1.0,part_1,,,,,,,,,,,,,gray,square
105.0,2.0,2.0,0.0,2.0,2.0,349.3976686149835,4.0,1.0,part_1,,,,,,,,,,,,,green,I
392.0,4.0,4.0,0.0,2.0,2.0,291.8989565223455,4.0,1.0,part_1,,,,,,,,,,,,,yellow,cross
0.0,5.0,0.0,1.0,2.0,2.0,358.12399815768,4.0,1.0,part_1,,,,,,,,,,,,,blue,triangle
0.0,5.0,0.0,1.0,2.0,2.0,341.7096585035324,4.0,1.0,part_1,,,,,,,,,,,,,blue,triangle
391.0,8.0,4.0,1.0,4.0,4.0,467.0404214411974,4.0,1.0,part_1,,,,,,,,,,,,,gray,square
387.0,8.0,4.0,1.0,1.0,1.0,398.6980328336358,4.0,1.0,part_1,,,,,,,,,,,,,gray,square
225.0,7.0,3.0,1.0,4.0,4.0,458.0829730257392,4.0,1.0,part_1,,,,,,,,,,,,,cyan,flipped triangle
415.0,4.0,4.0,0.0,2.0,2.0,360.3672478348017,4.0,1.0,part_1,,,,,,,,,,,,,yellow,cross
0.0,6.0,0.0,1.0,1.0,1.0,382.3860893025994,4.0,1.0,part_1,,,,,,,,,,,,,magenta,diamond
0.0,3.0,0.0,0.0,4.0,4.0,432.0735344663262,4.0,1.0,part_1,,,,,,,,,,,,,white,hexagon
407.0,8.0,4.0,1.0,2.0,2.0,323.7768970429897,4.0,1.0,part_1,,,,,,,,,,,,,gray,square
55.0,5.0,1.0,1.0,1.0,1.0,370.4261714592576,4.0,1.0,part_1,,,,,,,,,,,,,blue,triangle
409.0,4.0,4.0,0.0,2.0,2.0,325.6907640025019,4.0,1.0,part_1,,,,,,,,,,,,,yellow,cross
196.0,3.0,3.0,0.0,4.0,4.0,517.9205927997828,4.0,1.0,part_1,,,,,,,,,,,,,white,hexagon
68.0,1.0,1.0,0.0,4.0,4.0,416.5370212867856,4.0,1.0,part_1,,,,,,,,,,,,,orange,circle
28.0,5.0,1.0,1.0,4.0,4.0,427.3627242073416,4.0,1.0,part_1,,,,,,,,,,,,,blue,triangle
64.0,1.0,1.0,0.0,4.0,4.0,388.162343762815,4.0,1.0,part_1,,,,,,,,,,,,,orange,circle
105.0,6.0,2.0,1.0,3.0,3.0,416.3528699427843,4.0,1.0,part_1,,,,,,,,,,,,,magenta,diamond
380.0,4.0,4.0,0.0,3.0,3.0,330.5841796100139,4.0,1.0,part_1,,,,,,,,,,,,,yellow,cross
208.0,3.0,3.0,0.0,2.0,2.0,413.9668457210064,4.0,1.0,part_1,,,,,,,,,,,,,white,hexagon
77.0,6.0,2.0,1.0,4.0,4.0,510.1686744019389,4.0,1.0,part_1,,,,,,,,,,,,,magenta,diamond
110.0,6.0,2.0,1.0,1.0,1.0,371.1145306006074,4.0,1.0,part_1,,,,,,,,,,,,,magenta,diamond
117.0,6.0,2.0,1.0,1.0,1.0,471.6142676770687,4.0,1.0,part_1,,,,,,,,,,,,,magenta,diamond
0.0,7.0,3.0,1.0,6.0,6.0,670.6233471632004,1.0,0.0,part_2,stop,250.0,250.0,3.0,,,,,,,,,cyan,flipped triangle
0.0,2.0,2.0,0.0,5.0,5.0,768.1766478344798,1.0,0.0,part_2,go,250.0,200.0,1.0,,,,,,,,,green,I
0.0,3.0,3.0,0.0,5.0,5.0,733.8870260864496,1.0,0.0,part_2,go,250.0,200.0,1.0,,,,,,,,,white,hexagon
0.0,5.0,1.0,1.0,6.0,0.0,0.0,1.0,0.0,part_2,stop,250.0,200.0,4.0,,,,,,,,,blue,triangle
0.0,8.0,4.0,1.0,5.0,5.0,474.77787733078,1.0,0.0,part_2,go,250.0,250.0,1.0,,,,,,,,,gray,square
0.0,6.0,2.0,1.0,5.0,0.0,0.0,1.0,0.0,part_2,stop,250.0,250.0,4.0,,,,,,,,,magenta,diamond
0.0,5.0,1.0,1.0,6.0,0.0,0.0,1.0,0.0,part_2,stop,300.0,250.0,4.0,,,,,,,,,blue,triangle
0.0,3.0,3.0,0.0,5.0,5.0,569.5421593263745,1.0,0.0,part_2,go,300.0,300.0,1.0,,,,,,,,,white,hexagon
0.0,4.0,4.0,0.0,5.0,5.0,681.2004437670112,1.0,0.0,part_2,go,300.0,300.0,1.0,,,,,,,,,yellow,cross
0.0,8.0,4.0,1.0,6.0,6.0,474.2397228255868,1.0,0.0,part_2,stop,300.0,300.0,3.0,,,,,,,,,gray,square
0.0,6.0,2.0,1.0,6.0,0.0,0.0,1.0,0.0,part_2,stop,300.0,250.0,4.0,,,,,,,,,magenta,diamond
0.0,3.0,3.0,0.0,6.0,6.0,562.8636153414845,1.0,0.0,part_2,go,300.0,300.0,1.0,,,,,,,,,white,hexagon
0.0,8.0,4.0,1.0,6.0,0.0,0.0,1.0,0.0,part_2,stop,300.0,300.0,4.0,,,,,,,,,gray,square
0.0,8.0,4.0,1.0,6.0,0.0,0.0,1.0,0.0,part_2,stop,300.0,350.0,4.0,,,,,,,,,gray,square
0.0,7.0,3.0,1.0,6.0,0.0,0.0,1.0,0.0,part_2,stop,300.0,400.0,4.0,,,,,,,,,cyan,flipped triangle
0.0,3.0,3.0,0.0,5.0,5.0,655.6562213227153,1.0,0.0,part_2,go,300.0,450.0,1.0,,,,,,,,,white,hexagon
0.0,6.0,2.0,1.0,5.0,0.0,0.0,1.0,0.0,part_2,stop,300.0,450.0,4.0,,,,,,,,,magenta,diamond
0.0,4.0,4.0,0.0,6.0,6.0,413.662820123136,1.0,0.0,part_2,go,350.0,450.0,1.0,,,,,,,,,yellow,cross
0.0,4.0,4.0,0.0,5.0,5.0,516.3995670154691,1.0,0.0,part_2,go,350.0,450.0,1.0,,,,,,,,,yellow,cross
0.0,6.0,2.0,1.0,5.0,0.0,0.0,1.0,0.0,part_2,stop,350.0,450.0,4.0,,,,,,,,,magenta,diamond
0.0,8.0,4.0,1.0,6.0,6.0,588.1715165451169,1.0,0.0,part_2,go,400.0,450.0,1.0,,,,,,,,,gray,square
0.0,5.0,1.0,1.0,6.0,0.0,0.0,1.0,0.0,part_2,stop,400.0,450.0,4.0,,,,,,,,,blue,triangle
0.0,2.0,2.0,0.0,6.0,6.0,625.2030078321695,1.0,0.0,part_2,go,400.0,500.0,1.0,,,,,,,,,green,I
0.0,7.0,3.0,1.0,5.0,0.0,0.0,1.0,0.0,part_2,stop,400.0,500.0,4.0,,,,,,,,,cyan,flipped triangle
0.0,1.0,1.0,0.0,5.0,5.0,666.7310670018196,1.0,0.0,part_2,go,450.0,500.0,1.0,,,,,,,,,orange,circle
0.0,4.0,4.0,0.0,6.0,6.0,826.5408482402563,1.0,0.0,part_2,go,450.0,500.0,1.0,,,,,,,,,yellow,cross
0.0,6.0,2.0,1.0,5.0,0.0,0.0,1.0,0.0,part_2,stop,450.0,500.0,4.0,,,,,,,,,magenta,diamond
0.0,1.0,1.0,0.0,6.0,6.0,622.1223082393408,1.0,0.0,part_2,go,500.0,500.0,1.0,,,,,,,,,orange,circle
0.0,7.0,3.0,1.0,5.0,0.0,0.0,1.0,0.0,part_2,stop,500.0,500.0,4.0,,,,,,,,,cyan,flipped triangle
0.0,2.0,2.0,0.0,6.0,6.0,790.0930950418115,1.0,0.0,part_2,go,550.0,500.0,1.0,,,,,,,,,green,I
0.0,8.0,4.0,1.0,6.0,0.0,0.0,1.0,0.0,part_2,stop,550.0,500.0,4.0,,,,,,,,,gray,square
0.0,2.0,2.0,0.0,6.0,6.0,671.0768844932318,1.0,0.0,part_2,go,550.0,550.0,1.0,,,,,,,,,green,I
0.0,6.0,2.0,1.0,6.0,0.0,0.0,1.0,0.0,part_2,stop,550.0,550.0,4.0,,,,,,,,,magenta,diamond
0.0,5.0,1.0,1.0,6.0,6.0,594.5854065939784,1.0,0.0,part_2,stop,550.0,600.0,3.0,,,,,,,,,blue,triangle
0.0,6.0,2.0,1.0,5.0,5.0,709.4726040959358,1.0,0.0,part_2,go,550.0,550.0,1.0,,,,,,,,,magenta,diamond
0.0,1.0,1.0,0.0,6.0,6.0,604.6502171084285,1.0,0.0,part_2,go,550.0,550.0,1.0,,,,,,,,,orange,circle
0.0,8.0,4.0,1.0,5.0,5.0,1207.3884597048163,2.0,0.0,part_2,stop,550.0,550.0,3.0,,,,,,,,,gray,square
0.0,2.0,2.0,0.0,5.0,5.0,616.4066465571523,2.0,0.0,part_2,go,500.0,550.0,1.0,,,,,,,,,green,I
0.0,3.0,3.0,0.0,6.0,6.0,397.1161805093288,2.0,0.0,part_2,go,500.0,550.0,1.0,,,,,,,,,white,hexagon
0.0,8.0,4.0,1.0,6.0,6.0,439.0956964343786,2.0,0.0,part_2,go,500.0,550.0,1.0,,,,,,,,,gray,square
0.0,3.0,3.0,0.0,5.0,5.0,582.4577892199159,2.0,0.0,part_2,go,500.0,550.0,1.0,,,,,,,,,white,hexagon
0.0,1.0,1.0,0.0,5.0,5.0,540.527256205678,2.0,0.0,part_2,go,500.0,550.0,1.0,,,,,,,,,orange,circle
0.0,6.0,2.0,1.0,6.0,6.0,434.5810273662209,2.0,0.0,part_2,stop,500.0,550.0,3.0,,,,,,,,,magenta,diamond
0.0,7.0,3.0,1.0,5.0,5.0,541.4246274158359,2.0,0.0,part_2,go,500.0,500.0,1.0,,,,,,,,,cyan,flipped triangle
0.0,7.0,3.0,1.0,6.0,0.0,0.0,2.0,0.0,part_2,stop,500.0,500.0,4.0,,,,,,,,,cyan,flipped triangle
0.0,5.0,1.0,1.0,6.0,6.0,626.5242407098413,2.0,0.0,part_2,go,500.0,550.0,1.0,,,,,,,,,blue,triangle
0.0,1.0,1.0,0.0,6.0,6.0,627.0622462034225,2.0,0.0,part_2,go,500.0,550.0,1.0,,,,,,,,,orange,circle
0.0,6.0,2.0,1.0,6.0,6.0,689.6719029173255,2.0,0.0,part_2,stop,500.0,550.0,3.0,,,,,,,,,magenta,diamond
0.0,7.0,3.0,1.0,6.0,6.0,578.4668363630772,2.0,0.0,part_2,stop,500.0,500.0,3.0,,,,,,,,,cyan,flipped triangle
0.0,5.0,1.0,1.0,5.0,5.0,583.7123431265354,2.0,0.0,part_2,stop,500.0,450.0,3.0,,,,,,,,,blue,triangle
0.0,2.0,2.0,0.0,6.0,6.0,806.730586104095,2.0,0.0,part_2,go,450.0,450.0,1.0,,,,,,,,,green,I
0.0,7.0,3.0,1.0,5.0,5.0,879.9401894211769,2.0,0.0,part_2,go,450.0,450.0,1.0,,,,,,,,,cyan,flipped triangle
0.0,8.0,4.0,1.0,5.0,0.0,0.0,2.0,0.0,part_2,stop,450.0,450.0,4.0,,,,,,,,,gray,square
0.0,3.0,3.0,0.0,6.0,6.0,911.6403060033916,2.0,0.0,part_2,go,500.0,450.0,1.0,,,,,,,,,white,hexagon
0.0,8.0,4.0,1.0,6.0,0.0,0.0,2.0,0.0,part_2,stop,500.0,450.0,4.0,,,,,,,,,gray,square
0.0,2.0,2.0,0.0,5.0,5.0,947.2736120224,2.0,0.0,part_2,go,500.0,500.0,1.0,,,,,,,,,green,I
0.0,7.0,3.0,1.0,5.0,0.0,0.0,2.0,0.0,part_2,stop,500.0,500.0,4.0,,,,,,,,,cyan,flipped triangle
0.0,2.0,2.0,0.0,6.0,6.0,741.0732666030526,2.0,0.0,part_2,go,550.0,500.0,1.0,,,,,,,,,green,I
0.0,8.0,4.0,1.0,5.0,5.0,883.3286752924323,2.0,0.0,part_2,go,550.0,500.0,1.0,,,,,,,,,gray,square
0.0,3.0,3.0,0.0,6.0,6.0,828.0722415074706,2.0,0.0,part_2,go,550.0,500.0,1.0,,,,,,,,,white,hexagon
0.0,5.0,1.0,1.0,5.0,0.0,0.0,2.0,0.0,part_2,stop,550.0,500.0,4.0,,,,,,,,,blue,triangle
0.0,2.0,2.0,0.0,6.0,6.0,834.9679838865995,2.0,0.0,part_2,go,600.0,500.0,1.0,,,,,,,,,green,I
0.0,7.0,3.0,1.0,5.0,0.0,0.0,2.0,0.0,part_2,stop,600.0,500.0,4.0,,,,,,,,,cyan,flipped triangle
0.0,1.0,1.0,0.0,5.0,5.0,1010.482681915164,2.0,0.0,part_2,go,650.0,500.0,1.0,,,,,,,,,orange,circle
0.0,4.0,4.0,0.0,5.0,5.0,774.0610800683498,2.0,0.0,part_2,go,650.0,500.0,1.0,,,,,,,,,yellow,cross
0.0,4.0,4.0,0.0,5.0,5.0,893.2367507368326,2.0,0.0,part_2,go,650.0,500.0,1.0,,,,,,,,,yellow,cross
0.0,4.0,4.0,0.0,6.0,6.0,676.616607233882,2.0,0.0,part_2,go,650.0,500.0,1.0,,,,,,,,,yellow,cross
0.0,7.0,3.0,1.0,6.0,0.0,0.0,2.0,0.0,part_2,stop,650.0,500.0,4.0,,,,,,,,,cyan,flipped triangle
0.0,1.0,1.0,0.0,6.0,6.0,661.3498758524656,2.0,0.0,part_2,go,650.0,550.0,1.0,,,,,,,,,orange,circle
0.0,4.0,4.0,0.0,5.0,5.0,716.342463158071,2.0,0.0,part_2,go,650.0,550.0,1.0,,,,,,,,,yellow,cross
0.0,7.0,3.0,1.0,6.0,6.0,614.2936078831553,2.0,0.0,part_2,stop,650.0,550.0,3.0,,,,,,,,,cyan,flipped triangle
0.0,8.0,4.0,1.0,5.0,0.0,0.0,2.0,0.0,part_2,stop,650.0,500.0,4.0,,,,,,,,,gray,square
0.0,8.0,4.0,1.0,6.0,0.0,0.0,3.0,0.0,part_2,stop,700.0,500.0,4.0,,,,,,,,,gray,square
0.0,2.0,2.0,0.0,6.0,6.0,678.8658546283841,3.0,0.0,part_2,go,700.0,550.0,1.0,,,,,,,,,green,I
0.0,3.0,3.0,0.0,6.0,6.0,767.6139529794455,3.0,0.0,part_2,go,700.0,550.0,1.0,,,,,,,,,white,hexagon
0.0,6.0,2.0,1.0,6.0,0.0,0.0,3.0,0.0,part_2,stop,700.0,550.0,4.0,,,,,,,,,magenta,diamond
0.0,7.0,3.0,1.0,6.0,0.0,0.0,3.0,0.0,part_2,stop,700.0,600.0,4.0,,,,,,,,,cyan,flipped triangle
0.0,5.0,1.0,1.0,6.0,0.0,0.0,3.0,0.0,part_2,stop,700.0,650.0,4.0,,,,,,,,,blue,triangle
0.0,1.0,1.0,0.0,6.0,6.0,675.0730723142624,3.0,0.0,part_2,go,700.0,700.0,1.0,,,,,,,,,orange,circle
0.0,3.0,3.0,0.0,5.0,5.0,796.831464394927,3.0,0.0,part_2,go,700.0,700.0,1.0,,,,,,,,,white,hexagon
0.0,5.0,1.0,1.0,5.0,5.0,785.7742849737406,3.0,0.0,part_2,stop,700.0,700.0,3.0,,,,,,,,,blue,triangle
0.0,6.0,2.0,1.0,5.0,0.0,0.0,3.0,0.0,part_2,stop,650.0,700.0,4.0,,,,,,,,,magenta,diamond
0.0,7.0,3.0,1.0,5.0,0.0,0.0,3.0,0.0,part_2,stop,700.0,700.0,4.0,,,,,,,,,cyan,flipped triangle
0.0,3.0,3.0,0.0,6.0,6.0,976.303176023066,3.0,0.0,part_2,go,750.0,700.0,1.0,,,,,,,,,white,hexagon
0.0,3.0,3.0,0.0,6.0,6.0,815.4775705188513,3.0,0.0,part_2,go,750.0,700.0,1.0,,,,,,,,,white,hexagon
0.0,7.0,3.0,1.0,5.0,5.0,842.4076326191425,3.0,0.0,part_2,go,750.0,700.0,1.0,,,,,,,,,cyan,flipped triangle
0.0,4.0,4.0,0.0,6.0,6.0,694.5174755528569,3.0,0.0,part_2,go,750.0,700.0,1.0,,,,,,,,,yellow,cross
0.0,2.0,2.0,0.0,6.0,6.0,622.3615799099207,3.0,0.0,part_2,go,750.0,700.0,1.0,,,,,,,,,green,I
0.0,2.0,2.0,0.0,6.0,6.0,549.4195595383644,3.0,0.0,part_2,go,750.0,700.0,1.0,,,,,,,,,green,I
0.0,3.0,3.0,0.0,5.0,5.0,781.085979193449,3.0,0.0,part_2,go,750.0,700.0,1.0,,,,,,,,,white,hexagon
0.0,2.0,2.0,0.0,6.0,6.0,790.021101012826,3.0,0.0,part_2,go,750.0,700.0,1.0,,,,,,,,,green,I
0.0,8.0,4.0,1.0,5.0,0.0,0.0,3.0,0.0,part_2,stop,750.0,700.0,4.0,,,,,,,,,gray,square
0.0,8.0,4.0,1.0,5.0,5.0,726.091836579144,3.0,0.0,part_2,stop,800.0,700.0,3.0,,,,,,,,,gray,square
0.0,4.0,4.0,0.0,6.0,6.0,1035.736434161663,3.0,0.0,part_2,go,750.0,700.0,1.0,,,,,,,,,yellow,cross
0.0,8.0,4.0,1.0,5.0,5.0,798.1856260448694,3.0,0.0,part_2,go,750.0,700.0,1.0,,,,,,,,,gray,square
0.0,5.0,1.0,1.0,5.0,5.0,802.4339415132999,3.0,0.0,part_2,stop,750.0,700.0,3.0,,,,,,,,,blue,triangle
0.0,6.0,2.0,1.0,6.0,6.0,844.6934325620532,3.0,0.0,part_2,stop,700.0,700.0,3.0,,,,,,,,,magenta,diamond
0.0,5.0,1.0,1.0,5.0,5.0,978.5318011417984,3.0,0.0,part_2,go,700.0,650.0,1.0,,,,,,,,,blue,triangle
0.0,6.0,2.0,1.0,5.0,5.0,664.2055101692677,3.0,0.0,part_2,go,700.0,650.0,1.0,,,,,,,,,magenta,diamond
0.0,1.0,1.0,0.0,5.0,5.0,928.1923500820994,3.0,0.0,part_2,go,700.0,650.0,1.0,,,,,,,,,orange,circle
0.0,8.0,4.0,1.0,6.0,6.0,750.7619978860021,3.0,0.0,part_2,stop,700.0,650.0,3.0,,,,,,,,,gray,square
0.0,4.0,4.0,0.0,6.0,6.0,878.6807488650084,3.0,0.0,part_2,go,700.0,600.0,1.0,,,,,,,,,yellow,cross
0.0,6.0,2.0,1.0,5.0,5.0,745.9997311234474,3.0,0.0,part_2,stop,700.0,600.0,3.0,,,,,,,,,magenta,diamond
0.0,5.0,1.0,1.0,5.0,5.0,621.3467037305236,3.0,0.0,part_2,stop,650.0,600.0,3.0,,,,,,,,,blue,triangle
0.0,8.0,4.0,1.0,5.0,0.0,0.0,3.0,0.0,part_2,stop,600.0,600.0,4.0,,,,,,,,,gray,square
0.0,3.0,3.0,0.0,5.0,5.0,958.4432393312454,3.0,0.0,part_2,go,650.0,600.0,1.0,,,,,,,,,white,hexagon
0.0,7.0,3.0,1.0,6.0,0.0,0.0,3.0,0.0,part_2,stop,650.0,600.0,4.0,,,,,,,,,cyan,flipped triangle
0.0,8.0,4.0,1.0,6.0,0.0,0.0,3.0,0.0,part_2,stop,650.0,650.0,4.0,,,,,,,,,gray,square
0.0,2.0,2.0,0.0,5.0,5.0,757.8434133902192,4.0,0.0,part_2,go,650.0,700.0,1.0,,,,,,,,,green,I
0.0,6.0,2.0,1.0,6.0,6.0,804.515540599823,4.0,0.0,part_2,go,650.0,700.0,1.0,,,,,,,,,magenta,diamond
0.0,5.0,1.0,1.0,6.0,0.0,0.0,4.0,0.0,part_2,stop,650.0,700.0,4.0,,,,,,,,,blue,triangle
0.0,7.0,3.0,1.0,6.0,6.0,988.405728712678,4.0,0.0,part_2,go,650.0,750.0,1.0,,,,,,,,,cyan,flipped triangle
0.0,3.0,3.0,0.0,5.0,5.0,780.6414915248752,4.0,0.0,part_2,go,650.0,750.0,1.0,,,,,,,,,white,hexagon
0.0,4.0,4.0,0.0,6.0,6.0,983.968016691506,4.0,0.0,part_2,go,650.0,750.0,1.0,,,,,,,,,yellow,cross
0.0,2.0,2.0,0.0,5.0,5.0,946.8618212267756,4.0,0.0,part_2,go,650.0,750.0,1.0,,,,,,,,,green,I
0.0,4.0,4.0,0.0,6.0,6.0,745.6843601539731,4.0,0.0,part_2,go,650.0,750.0,1.0,,,,,,,,,yellow,cross
0.0,1.0,1.0,0.0,6.0,6.0,826.0722104460001,4.0,0.0,part_2,go,650.0,750.0,1.0,,,,,,,,,orange,circle
0.0,8.0,4.0,1.0,5.0,0.0,0.0,4.0,0.0,part_2,stop,650.0,750.0,4.0,,,,,,,,,gray,square
0.0,4.0,4.0,0.0,5.0,5.0,1021.5313779190185,4.0,0.0,part_2,go,700.0,750.0,1.0,,,,,,,,,yellow,cross
0.0,5.0,1.0,1.0,5.0,0.0,0.0,4.0,0.0,part_2,stop,700.0,750.0,4.0,,,,,,,,,blue,triangle
0.0,1.0,1.0,0.0,5.0,5.0,1120.370451360941,4.0,0.0,part_2,go,750.0,750.0,1.0,,,,,,,,,orange,circle
0.0,8.0,4.0,1.0,6.0,6.0,804.3117728084326,4.0,0.0,part_2,stop,750.0,750.0,3.0,,,,,,,,,gray,square
0.0,6.0,2.0,1.0,6.0,0.0,0.0,4.0,0.0,part_2,stop,750.0,700.0,4.0,,,,,,,,,magenta,diamond
0.0,6.0,2.0,1.0,5.0,0.0,0.0,4.0,0.0,part_2,stop,750.0,750.0,4.0,,,,,,,,,magenta,diamond
0.0,6.0,2.0,1.0,6.0,6.0,1009.868017397821,4.0,0.0,part_2,go,800.0,750.0,1.0,,,,,,,,,magenta,diamond
0.0,7.0,3.0,1.0,5.0,5.0,786.3040501251817,4.0,0.0,part_2,stop,800.0,750.0,3.0,,,,,,,,,cyan,flipped triangle
0.0,1.0,1.0,0.0,5.0,5.0,1147.645028308034,4.0,0.0,part_2,go,750.0,750.0,1.0,,,,,,,,,orange,circle
0.0,1.0,1.0,0.0,5.0,5.0,856.7479103803635,4.0,0.0,part_2,go,750.0,750.0,1.0,,,,,,,,,orange,circle
0.0,3.0,3.0,0.0,6.0,6.0,824.6147409081459,4.0,0.0,part_2,go,750.0,750.0,1.0,,,,,,,,,white,hexagon
0.0,6.0,2.0,1.0,6.0,6.0,911.6667853668332,4.0,0.0,part_2,stop,750.0,750.0,3.0,,,,,,,,,magenta,diamond
0.0,8.0,4.0,1.0,6.0,0.0,0.0,4.0,0.0,part_2,stop,750.0,700.0,4.0,,,,,,,,,gray,square
0.0,2.0,2.0,0.0,6.0,6.0,993.212653324008,4.0,0.0,part_2,go,750.0,750.0,1.0,,,,,,,,,green,I
0.0,2.0,2.0,0.0,6.0,6.0,1117.7211329340937,4.0,0.0,part_2,go,750.0,750.0,1.0,,,,,,,,,green,I
0.0,3.0,3.0,0.0,6.0,6.0,944.5328060537576,4.0,0.0,part_2,go,750.0,750.0,1.0,,,,,,,,,white,hexagon
0.0,5.0,1.0,1.0,5.0,5.0,958.7655821815132,4.0,0.0,part_2,stop,750.0,750.0,3.0,,,,,,,,,blue,triangle
0.0,4.0,4.0,0.0,5.0,5.0,1136.4708049222827,4.0,0.0,part_2,go,700.0,750.0,1.0,,,,,,,,,yellow,cross
0.0,8.0,4.0,1.0,6.0,0.0,0.0,4.0,0.0,part_2,stop,700.0,750.0,4.0,,,,,,,,,gray,square
0.0,3.0,3.0,0.0,6.0,6.0,1242.698822170496,4.0,0.0,part_2,go,700.0,800.0,1.0,,,,,,,,,white,hexagon
0.0,6.0,2.0,1.0,5.0,5.0,1090.551256202161,4.0,0.0,part_2,go,700.0,800.0,1.0,,,,,,,,,magenta,diamond
0.0,3.0,3.0,0.0,6.0,6.0,860.0431801751256,4.0,0.0,part_2,go,700.0,800.0,1.0,,,,,,,,,white,hexagon
0.0,6.0,2.0,1.0,5.0,0.0,0.0,4.0,0.0,part_2,stop,700.0,800.0,4.0,,,,,,,,,magenta,diamond
0.0,6.0,2.0,1.0,6.0,6.0,1122.8207917883992,4.0,0.0,part_2,go,750.0,800.0,1.0,,,,,,,,,magenta,diamond
0.0,7.0,3.0,1.0,5.0,5.0,961.9372086599468,4.0,0.0,part_2,stop,750.0,800.0,3.0,,,,,,,,,cyan,flipped triangle
0.0,6.0,2.0,1.0,5.0,0.0,0.0,4.0,0.0,part_2,stop,700.0,800.0,4.0,,,,,,,,,magenta,diamond
0.0,5.0,1.0,1.0,5.0,5.0,777.4960277602077,5.0,0.0,part_2,stop,750.0,800.0,3.0,,,,,,,,,blue,triangle
0.0,1.0,1.0,0.0,6.0,6.0,679.3171744793653,5.0,0.0,part_2,go,700.0,800.0,1.0,,,,,,,,,orange,circle
0.0,7.0,3.0,1.0,5.0,5.0,856.3946066424251,5.0,0.0,part_2,go,700.0,800.0,1.0,,,,,,,,,cyan,flipped triangle
0.0,4.0,4.0,0.0,5.0,5.0,1007.9001951962709,5.0,0.0,part_2,go,700.0,800.0,1.0,,,,,,,,,yellow,cross
0.0,1.0,1.0,0.0,6.0,6.0,741.7224505916238,5.0,0.0,part_2,go,700.0,800.0,1.0,,,,,,,,,orange,circle
0.0,1.0,1.0,0.0,6.0,6.0,799.2333369329572,5.0,0.0,part_2,go,700.0,800.0,1.0,,,,,,,,,orange,circle
0.0,8.0,4.0,1.0,6.0,6.0,902.0942440256476,5.0,0.0,part_2,stop,700.0,800.0,3.0,,,,,,,,,gray,square
0.0,4.0,4.0,0.0,5.0,5.0,1052.8394198045137,5.0,0.0,part_2,go,700.0,750.0,1.0,,,,,,,,,yellow,cross
0.0,7.0,3.0,1.0,6.0,0.0,0.0,5.0,0.0,part_2,stop,700.0,750.0,4.0,,,,,,,,,cyan,flipped triangle
0.0,3.0,3.0,0.0,5.0,5.0,1050.7814027369022,5.0,0.0,part_2,go,700.0,800.0,1.0,,,,,,,,,white,hexagon
0.0,5.0,1.0,1.0,5.0,5.0,1029.630153439939,5.0,0.0,part_2,go,700.0,800.0,1.0,,,,,,,,,blue,triangle
0.0,5.0,1.0,1.0,5.0,5.0,905.465841293335,5.0,0.0,part_2,go,700.0,800.0,1.0,,,,,,,,,blue,triangle
0.0,2.0,2.0,0.0,6.0,6.0,739.9489255622029,5.0,0.0,part_2,go,700.0,800.0,1.0,,,,,,,,,green,I
0.0,5.0,1.0,1.0,6.0,6.0,795.712798833847,5.0,0.0,part_2,stop,700.0,800.0,3.0,,,,,,,,,blue,triangle
0.0,5.0,1.0,1.0,5.0,5.0,864.8321004584432,5.0,0.0,part_2,stop,700.0,750.0,3.0,,,,,,,,,blue,triangle
0.0,1.0,1.0,0.0,5.0,5.0,903.4101013094188,5.0,0.0,part_2,go,650.0,750.0,1.0,,,,,,,,,orange,circle
0.0,2.0,2.0,0.0,5.0,5.0,825.938449241221,5.0,0.0,part_2,go,650.0,750.0,1.0,,,,,,,,,green,I
0.0,4.0,4.0,0.0,5.0,5.0,454.4175434857607,5.0,0.0,part_2,go,650.0,750.0,1.0,,,,,,,,,yellow,cross
0.0,6.0,2.0,1.0,6.0,6.0,894.1923482343554,5.0,0.0,part_2,go,650.0,750.0,1.0,,,,,,,,,magenta,diamond
0.0,5.0,1.0,1.0,6.0,0.0,0.0,5.0,0.0,part_2,stop,650.0,750.0,4.0,,,,,,,,,blue,triangle
0.0,8.0,4.0,1.0,5.0,0.0,0.0,5.0,0.0,part_2,stop,650.0,800.0,4.0,,,,,,,,,gray,square
0.0,6.0,2.0,1.0,5.0,5.0,1022.5624311715364,5.0,0.0,part_2,go,700.0,800.0,1.0,,,,,,,,,magenta,diamond
0.0,1.0,1.0,0.0,5.0,5.0,947.8144366294146,5.0,0.0,part_2,go,700.0,800.0,1.0,,,,,,,,,orange,circle
0.0,1.0,1.0,0.0,5.0,5.0,766.2114081904292,5.0,0.0,part_2,go,700.0,800.0,1.0,,,,,,,,,orange,circle
0.0,3.0,3.0,0.0,5.0,5.0,917.624769732356,5.0,0.0,part_2,go,700.0,800.0,1.0,,,,,,,,,white,hexagon
0.0,3.0,3.0,0.0,5.0,5.0,900.1181153580546,5.0,0.0,part_2,go,700.0,800.0,1.0,,,,,,,,,white,hexagon
0.0,7.0,3.0,1.0,6.0,6.0,636.58631965518,5.0,0.0,part_2,go,700.0,800.0,1.0,,,,,,,,,cyan,flipped triangle
0.0,7.0,3.0,1.0,6.0,6.0,755.008278414607,5.0,0.0,part_2,stop,700.0,800.0,3.0,,,,,,,,,cyan,flipped triangle
0.0,2.0,2.0,0.0,5.0,5.0,991.8965576216578,5.0,0.0,part_2,go,700.0,750.0,1.0,,,,,,,,,green,I
0.0,4.0,4.0,0.0,6.0,6.0,891.0690629854798,5.0,0.0,part_2,go,700.0,750.0,1.0,,,,,,,,,yellow,cross
0.0,7.0,3.0,1.0,6.0,6.0,823.0168996378779,5.0,0.0,part_2,stop,700.0,750.0,3.0,,,,,,,,,cyan,flipped triangle
0.0,2.0,2.0,0.0,5.0,5.0,807.0960771292448,5.0,0.0,part_2,go,700.0,700.0,1.0,,,,,,,,,green,I
0.0,8.0,4.0,1.0,5.0,0.0,0.0,5.0,0.0,part_2,stop,700.0,700.0,4.0,,,,,,,,,gray,square
0.0,3.0,3.0,0.0,5.0,5.0,950.3568317741156,5.0,0.0,part_2,go,750.0,700.0,1.0,,,,,,,,,white,hexagon
0.0,4.0,4.0,0.0,5.0,5.0,871.1545336991549,5.0,0.0,part_2,go,750.0,700.0,1.0,,,,,,,,,yellow,cross
0.0,6.0,2.0,1.0,5.0,0.0,0.0,5.0,0.0,part_2,stop,750.0,700.0,4.0,,,,,,,,,magenta,diamond
0.0,5.0,1.0,1.0,6.0,6.0,651.9368290901184,6.0,0.0,part_2,stop,800.0,700.0,3.0,,,,,,,,,blue,triangle
0.0,8.0,4.0,1.0,5.0,5.0,859.59767177701,6.0,0.0,part_2,stop,800.0,650.0,3.0,,,,,,,,,gray,square
0.0,1.0,1.0,0.0,5.0,5.0,757.4843568727374,6.0,0.0,part_2,go,750.0,650.0,1.0,,,,,,,,,orange,circle
0.0,6.0,2.0,1.0,5.0,5.0,828.7371201440692,6.0,0.0,part_2,stop,750.0,650.0,3.0,,,,,,,,,magenta,diamond
0.0,4.0,4.0,0.0,5.0,5.0,777.9770670458674,6.0,0.0,part_2,go,700.0,650.0,1.0,,,,,,,,,yellow,cross
0.0,7.0,3.0,1.0,5.0,0.0,0.0,6.0,0.0,part_2,stop,700.0,650.0,4.0,,,,,,,,,cyan,flipped triangle
0.0,6.0,2.0,1.0,5.0,5.0,707.117972895503,6.0,0.0,part_2,stop,750.0,650.0,3.0,,,,,,,,,magenta,diamond
0.0,4.0,4.0,0.0,6.0,6.0,963.4242430329324,6.0,0.0,part_2,go,700.0,650.0,1.0,,,,,,,,,yellow,cross
0.0,4.0,4.0,0.0,6.0,6.0,856.7909812554717,6.0,0.0,part_2,go,700.0,650.0,1.0,,,,,,,,,yellow,cross
0.0,2.0,2.0,0.0,6.0,6.0,886.9458362460136,6.0,0.0,part_2,go,700.0,650.0,1.0,,,,,,,,,green,I
0.0,4.0,4.0,0.0,6.0,6.0,782.052231952548,6.0,0.0,part_2,go,700.0,650.0,1.0,,,,,,,,,yellow,cross
0.0,5.0,1.0,1.0,5.0,5.0,741.9365867972374,6.0,0.0,part_2,stop,700.0,650.0,3.0,,,,,,,,,blue,triangle
0.0,3.0,3.0,0.0,6.0,6.0,622.1087416633964,6.0,0.0,part_2,go,650.0,650.0,1.0,,,,,,,,,white,hexagon
0.0,3.0,3.0,0.0,5.0,5.0,940.8499710261822,6.0,0.0,part_2,go,650.0,650.0,1.0,,,,,,,,,white,hexagon
0.0,4.0,4.0,0.0,5.0,5.0,1004.5291921123862,6.0,0.0,part_2,go,650.0,650.0,1.0,,,,,,,,,yellow,cross
0.0,5.0,1.0,1.0,6.0,0.0,0.0,6.0,0.0,part_2,stop,650.0,650.0,4.0,,,,,,,,,blue,triangle
0.0,4.0,4.0,0.0,5.0,5.0,738.3797252550721,6.0,0.0,part_2,go,650.0,700.0,1.0,,,,,,,,,yellow,cross
0.0,1.0,1.0,0.0,5.0,5.0,938.9899848029016,6.0,0.0,part_2,go,650.0,700.0,1.0,,,,,,,,,orange,circle
0.0,6.0,2.0,1.0,6.0,0.0,0.0,6.0,0.0,part_2,stop,650.0,700.0,4.0,,,,,,,,,magenta,diamond
0.0,3.0,3.0,0.0,6.0,6.0,1092.8637934848666,6.0,0.0,part_2,go,650.0,750.0,1.0,,,,,,,,,white,hexagon
0.0,4.0,4.0,0.0,6.0,6.0,1268.4607431292534,6.0,0.0,part_2,go,650.0,750.0,1.0,,,,,,,,,yellow,cross
0.0,7.0,3.0,1.0,6.0,6.0,890.9336561337113,6.0,0.0,part_2,go,650.0,750.0,1.0,,,,,,,,,cyan,flipped triangle
0.0,1.0,1.0,0.0,5.0,5.0,911.6188120096922,6.0,0.0,part_2,go,650.0,750.0,1.0,,,,,,,,,orange,circle
0.0,5.0,1.0,1.0,5.0,5.0,944.7231367230416,6.0,0.0,part_2,go,650.0,750.0,1.0,,,,,,,,,blue,triangle
0.0,6.0,2.0,1.0,6.0,6.0,850.1510908827186,6.0,0.0,part_2,stop,650.0,750.0,3.0,,,,,,,,,magenta,diamond
0.0,5.0,1.0,1.0,5.0,0.0,0.0,6.0,0.0,part_2,stop,650.0,700.0,4.0,,,,,,,,,blue,triangle
0.0,8.0,4.0,1.0,5.0,5.0,880.8892043307424,6.0,0.0,part_2,go,700.0,700.0,1.0,,,,,,,,,gray,square
0.0,2.0,2.0,0.0,5.0,5.0,1152.3530911654234,6.0,0.0,part_2,go,700.0,700.0,1.0,,,,,,,,,green,I
0.0,6.0,2.0,1.0,5.0,0.0,0.0,6.0,0.0,part_2,stop,700.0,700.0,4.0,,,,,,,,,magenta,diamond
0.0,7.0,3.0,1.0,6.0,0.0,0.0,6.0,0.0,part_2,stop,750.0,700.0,4.0,,,,,,,,,cyan,flipped triangle
0.0,5.0,1.0,1.0,5.0,5.0,988.028146326542,6.0,0.0,part_2,go,750.0,750.0,1.0,,,,,,,,,blue,triangle
0.0,1.0,1.0,0.0,6.0,6.0,772.0906045287848,6.0,0.0,part_2,go,750.0,750.0,1.0,,,,,,,,,orange,circle
0.0,2.0,2.0,0.0,5.0,5.0,1017.469278536737,6.0,0.0,part_2,go,750.0,750.0,1.0,,,,,,,,,green,I
0.0,5.0,1.0,1.0,5.0,5.0,482.1913568302989,6.0,0.0,part_2,go,750.0,750.0,1.0,,,,,,,,,blue,triangle
0.0,1.0,1.0,0.0,6.0,6.0,844.586806371808,6.0,0.0,part_2,go,750.0,750.0,1.0,,,,,,,,,orange,circle
0.0,5.0,1.0,1.0,6.0,6.0,1074.555303901434,6.0,0.0,part_2,go,750.0,750.0,1.0,,,,,,,,,blue,triangle
0.0,7.0,3.0,1.0,6.0,6.0,623.9356361329556,7.0,0.0,part_2,stop,750.0,750.0,3.0,,,,,,,,,cyan,flipped triangle
0.0,1.0,1.0,0.0,6.0,6.0,886.789271607995,7.0,0.0,part_2,go,750.0,700.0,1.0,,,,,,,,,orange,circle
0.0,3.0,3.0,0.0,5.0,5.0,758.5474038496614,7.0,0.0,part_2,go,750.0,700.0,1.0,,,,,,,,,white,hexagon
0.0,3.0,3.0,0.0,6.0,6.0,726.3125982135534,7.0,0.0,part_2,go,750.0,700.0,1.0,,,,,,,,,white,hexagon
0.0,7.0,3.0,1.0,6.0,6.0,750.7096091285348,7.0,0.0,part_2,stop,750.0,700.0,3.0,,,,,,,,,cyan,flipped triangle
0.0,3.0,3.0,0.0,6.0,6.0,888.3160194382071,7.0,0.0,part_2,go,750.0,650.0,1.0,,,,,,,,,white,hexagon
0.0,4.0,4.0,0.0,6.0,6.0,886.8833659216762,7.0,0.0,part_2,go,750.0,650.0,1.0,,,,,,,,,yellow,cross
0.0,1.0,1.0,0.0,5.0,5.0,854.8108916729689,7.0,0.0,part_2,go,750.0,650.0,1.0,,,,,,,,,orange,circle
0.0,4.0,4.0,0.0,5.0,5.0,867.6785416901112,7.0,0.0,part_2,go,750.0,650.0,1.0,,,,,,,,,yellow,cross
0.0,2.0,2.0,0.0,5.0,5.0,1029.2244516313076,7.0,0.0,part_2,go,750.0,650.0,1.0,,,,,,,,,green,I
0.0,7.0,3.0,1.0,5.0,5.0,841.7192324995995,7.0,0.0,part_2,stop,750.0,650.0,3.0,,,,,,,,,cyan,flipped triangle
0.0,5.0,1.0,1.0,5.0,0.0,0.0,7.0,0.0,part_2,stop,700.0,650.0,4.0,,,,,,,,,blue,triangle
0.0,1.0,1.0,0.0,6.0,6.0,732.8985333442688,7.0,0.0,part_2,go,750.0,650.0,1.0,,,,,,,,,orange,circle
0.0,2.0,2.0,0.0,5.0,5.0,948.6212506890296,7.0,0.0,part_2,go,750.0,650.0,1.0,,,,,,,,,green,I
0.0,2.0,2.0,0.0,6.0,6.0,938.0849367007612,7.0,0.0,part_2,go,750.0,650.0,1.0,,,,,,,,,green,I
0.0,1.0,1.0,0.0,5.0,5.0,818.3061331510544,7.0,0.0,part_2,go,750.0,650.0,1.0,,,,,,,,,orange,circle
0.0,1.0,1.0,0.0,6.0,6.0,816.3981875404716,7.0,0.0,part_2,go,750.0,650.0,1.0,,,,,,,,,orange,circle
0.0,1.0,1.0,0.0,5.0,5.0,854.0389854460955,7.0,0.0,part_2,go,750.0,650.0,1.0,,,,,,,,,orange,circle
0.0,6.0,2.0,1.0,6.0,0.0,0.0,7.0,0.0,part_2,stop,750.0,650.0,4.0,,,,,,,,,magenta,diamond
0.0,1.0,1.0,0.0,5.0,5.0,1116.7835285887122,7.0,0.0,part_2,go,750.0,700.0,1.0,,,,,,,,,orange,circle
0.0,3.0,3.0,0.0,5.0,5.0,1071.053165011108,7.0,0.0,part_2,go,750.0,700.0,1.0,,,,,,,,,white,hexagon
0.0,7.0,3.0,1.0,5.0,5.0,943.7122382223606,7.0,0.0,part_2,go,750.0,700.0,1.0,,,,,,,,,cyan,flipped triangle
0.0,7.0,3.0,1.0,5.0,0.0,0.0,7.0,0.0,part_2,stop,750.0,700.0,4.0,,,,,,,,,cyan,flipped triangle
0.0,8.0,4.0,1.0,5.0,5.0,930.5630335584284,7.0,0.0,part_2,go,800.0,700.0,1.0,,,,,,,,,gray,square
0.0,4.0,4.0,0.0,6.0,6.0,790.1349626481533,7.0,0.0,part_2,go,800.0,700.0,1.0,,,,,,,,,yellow,cross
0.0,6.0,2.0,1.0,6.0,0.0,0.0,7.0,0.0,part_2,stop,800.0,700.0,4.0,,,,,,,,,magenta,diamond
0.0,1.0,1.0,0.0,5.0,5.0,941.211985424161,7.0,0.0,part_2,go,800.0,750.0,1.0,,,,,,,,,orange,circle
0.0,1.0,1.0,0.0,6.0,6.0,880.719842389226,7.0,0.0,part_2,go,800.0,750.0,1.0,,,,,,,,,orange,circle
0.0,8.0,4.0,1.0,5.0,5.0,876.2958375737071,7.0,0.0,part_2,stop,800.0,750.0,3.0,,,,,,,,,gray,square
0.0,2.0,2.0,0.0,5.0,5.0,1200.3023866564035,7.0,0.0,part_2,go,750.0,750.0,1.0,,,,,,,,,green,I
0.0,1.0,1.0,0.0,6.0,6.0,807.4507610872388,7.0,0.0,part_2,go,750.0,750.0,1.0,,,,,,,,,orange,circle
0.0,8.0,4.0,1.0,6.0,6.0,927.237106487155,7.0,0.0,part_2,go,750.0,750.0,1.0,,,,,,,,,gray,square
0.0,2.0,2.0,0.0,6.0,6.0,904.2064426466824,7.0,0.0,part_2,go,750.0,750.0,1.0,,,,,,,,,green,I
0.0,5.0,1.0,1.0,6.0,0.0,0.0,7.0,0.0,part_2,stop,750.0,750.0,4.0,,,,,,,,,blue,triangle
0.0,3.0,3.0,0.0,6.0,6.0,629.2525958269835,7.0,0.0,part_2,go,750.0,800.0,1.0,,,,,,,,,white,hexagon
0.0,5.0,1.0,1.0,6.0,6.0,1030.0094140693543,7.0,0.0,part_2,go,750.0,800.0,1.0,,,,,,,,,blue,triangle
0.0,2.0,2.0,0.0,5.0,5.0,574.2215747013688,8.0,0.0,part_2,go,750.0,800.0,1.0,,,,,,,,,green,I
0.0,2.0,2.0,0.0,5.0,5.0,679.0448669344187,8.0,0.0,part_2,go,750.0,800.0,1.0,,,,,,,,,green,I
0.0,7.0,3.0,1.0,5.0,5.0,685.2083466947079,8.0,0.0,part_2,stop,750.0,800.0,3.0,,,,,,,,,cyan,flipped triangle
0.0,2.0,2.0,0.0,5.0,5.0,646.286528557539,8.0,0.0,part_2,go,700.0,800.0,1.0,,,,,,,,,green,I
0.0,5.0,1.0,1.0,6.0,6.0,678.4163638949394,8.0,0.0,part_2,stop,700.0,800.0,3.0,,,,,,,,,blue,triangle
0.0,2.0,2.0,0.0,6.0,6.0,642.7185153588653,8.0,0.0,part_2,go,700.0,750.0,1.0,,,,,,,,,green,I
0.0,8.0,4.0,1.0,5.0,5.0,541.466205380857,8.0,0.0,part_2,stop,700.0,750.0,3.0,,,,,,,,,gray,square
0.0,6.0,2.0,1.0,5.0,5.0,738.8303410261869,8.0,0.0,part_2,stop,650.0,750.0,3.0,,,,,,,,,magenta,diamond
0.0,6.0,2.0,1.0,6.0,6.0,816.8930690735579,8.0,0.0,part_2,go,600.0,750.0,1.0,,,,,,,,,magenta,diamond
0.0,5.0,1.0,1.0,6.0,6.0,842.8661888465285,8.0,0.0,part_2,stop,600.0,750.0,3.0,,,,,,,,,blue,triangle
0.0,4.0,4.0,0.0,5.0,5.0,1016.9830694794657,8.0,0.0,part_2,go,600.0,700.0,1.0,,,,,,,,,yellow,cross
0.0,4.0,4.0,0.0,6.0,6.0,960.8408305794,8.0,0.0,part_2,go,600.0,700.0,1.0,,,,,,,,,yellow,cross
0.0,2.0,2.0,0.0,5.0,5.0,840.1727695018053,8.0,0.0,part_2,go,600.0,700.0,1.0,,,,,,,,,green,I
0.0,4.0,4.0,0.0,6.0,6.0,838.3213831111789,8.0,0.0,part_2,go,600.0,700.0,1.0,,,,,,,,,yellow,cross
0.0,8.0,4.0,1.0,5.0,5.0,801.7952907830477,8.0,0.0,part_2,go,600.0,700.0,1.0,,,,,,,,,gray,square
0.0,5.0,1.0,1.0,6.0,6.0,688.1264476105571,8.0,0.0,part_2,stop,600.0,700.0,3.0,,,,,,,,,blue,triangle
0.0,4.0,4.0,0.0,5.0,5.0,876.4953389763832,8.0,0.0,part_2,go,600.0,650.0,1.0,,,,,,,,,yellow,cross
0.0,3.0,3.0,0.0,5.0,5.0,1021.0375683382154,8.0,0.0,part_2,go,600.0,650.0,1.0,,,,,,,,,white,hexagon
0.0,3.0,3.0,0.0,6.0,6.0,878.2101469114423,8.0,0.0,part_2,go,600.0,650.0,1.0,,,,,,,,,white,hexagon
0.0,4.0,4.0,0.0,5.0,5.0,1101.1057738214731,8.0,0.0,part_2,go,600.0,650.0,1.0,,,,,,,,,yellow,cross
0.0,6.0,2.0,1.0,6.0,0.0,0.0,8.0,0.0,part_2,stop,600.0,650.0,4.0,,,,,,,,,magenta,diamond
0.0,3.0,3.0,0.0,5.0,5.0,859.7883572801948,8.0,0.0,part_2,go,600.0,700.0,1.0,,,,,,,,,white,hexagon
0.0,1.0,1.0,0.0,6.0,6.0,777.7235833927989,8.0,0.0,part_2,go,600.0,700.0,1.0,,,,,,,,,orange,circle
0.0,8.0,4.0,1.0,6.0,6.0,721.6928144916892,8.0,0.0,part_2,stop,600.0,700.0,3.0,,,,,,,,,gray,square
0.0,3.0,3.0,0.0,5.0,5.0,849.1502469405532,8.0,0.0,part_2,go,600.0,650.0,1.0,,,,,,,,,white,hexagon
0.0,7.0,3.0,1.0,6.0,0.0,0.0,8.0,0.0,part_2,stop,600.0,650.0,4.0,,,,,,,,,cyan,flipped triangle
0.0,7.0,3.0,1.0,5.0,0.0,0.0,8.0,0.0,part_2,stop,600.0,700.0,4.0,,,,,,,,,cyan,flipped triangle
0.0,1.0,1.0,0.0,6.0,6.0,839.1778180375695,8.0,0.0,part_2,go,650.0,700.0,1.0,,,,,,,,,orange,circle
0.0,8.0,4.0,1.0,6.0,6.0,840.4354928061366,8.0,0.0,part_2,stop,650.0,700.0,3.0,,,,,,,,,gray,square
0.0,2.0,2.0,0.0,5.0,5.0,704.9959013238549,8.0,0.0,part_2,go,650.0,650.0,1.0,,,,,,,,,green,I
0.0,7.0,3.0,1.0,5.0,5.0,887.9264956340194,8.0,0.0,part_2,go,650.0,650.0,1.0,,,,,,,,,cyan,flipped triangle
0.0,4.0,4.0,0.0,6.0,6.0,854.4967910274863,8.0,0.0,part_2,go,650.0,650.0,1.0,,,,,,,,,yellow,cross
0.0,3.0,3.0,0.0,6.0,6.0,955.3094729781152,8.0,0.0,part_2,go,650.0,650.0,1.0,,,,,,,,,white,hexagon
0.0,8.0,4.0,1.0,6.0,0.0,0.0,8.0,0.0,part_2,stop,650.0,650.0,4.0,,,,,,,,,gray,square
0.0,5.0,1.0,1.0,6.0,0.0,0.0,8.0,0.0,part_2,stop,650.0,700.0,4.0,,,,,,,,,blue,triangle
0.0,2.0,2.0,0.0,6.0,6.0,1113.809883594513,8.0,0.0,part_2,go,650.0,750.0,1.0,,,,,,,,,green,I
0.0,3.0,3.0,0.0,7.0,1.0,1844.163676723838,1.0,1.0,part_3,go,0.0,0.0,0.0,196.0,4.0,196.0,147.0,49.0,98.0,245.0,294.0,white,hexagon
0.0,6.0,2.0,1.0,7.0,5.0,898.4288088977337,1.0,1.0,part_3,go,0.0,0.0,0.0,220.0,5.0,88.0,176.0,264.0,132.0,220.0,44.0,magenta,diamond
0.0,4.0,4.0,0.0,7.0,4.0,3126.5999292954803,1.0,1.0,part_3,go,0.0,0.0,0.0,34.0,1.0,204.0,102.0,170.0,34.0,68.0,136.0,yellow,cross
0.0,8.0,4.0,1.0,7.0,6.0,1776.4828754588962,1.0,1.0,part_3,go,0.0,0.0,0.0,117.0,3.0,234.0,78.0,156.0,195.0,39.0,117.0,gray,square
0.0,1.0,1.0,0.0,7.0,6.0,1313.7371558696032,1.0,1.0,part_3,go,0.0,0.0,0.0,204.0,6.0,68.0,34.0,102.0,170.0,136.0,204.0,orange,circle
0.0,5.0,1.0,1.0,7.0,3.0,1752.4498896673322,1.0,1.0,part_3,go,0.0,0.0,0.0,270.0,5.0,108.0,324.0,270.0,216.0,162.0,54.0,blue,triangle
0.0,8.0,4.0,1.0,7.0,2.0,1250.6084069609642,1.0,1.0,part_3,go,0.0,0.0,0.0,324.0,6.0,162.0,324.0,216.0,108.0,54.0,270.0,gray,square
0.0,1.0,1.0,0.0,7.0,5.0,1045.1605478301644,1.0,1.0,part_3,go,0.0,0.0,0.0,195.0,5.0,156.0,234.0,117.0,78.0,195.0,39.0,orange,circle
0.0,7.0,3.0,1.0,7.0,2.0,935.4803236201406,1.0,1.0,part_3,go,0.0,0.0,0.0,195.0,5.0,39.0,195.0,234.0,156.0,117.0,78.0,cyan,flipped triangle
0.0,7.0,3.0,1.0,7.0,5.0,909.578500315547,1.0,1.0,part_3,go,0.0,0.0,0.0,170.0,5.0,68.0,102.0,136.0,204.0,170.0,34.0,cyan,flipped triangle
0.0,1.0,1.0,0.0,7.0,6.0,802.0731089636683,1.0,1.0,part_3,go,0.0,0.0,0.0,162.0,3.0,216.0,324.0,108.0,54.0,270.0,162.0,orange,circle
0.0,3.0,3.0,0.0,7.0,1.0,604.31391838938,1.0,1.0,part_3,go,0.0,0.0,0.0,39.0,1.0,39.0,156.0,234.0,117.0,78.0,195.0,white,hexagon
0.0,3.0,3.0,0.0,7.0,5.0,187.7777660265565,1.0,1.0,part_3,go,0.0,0.0,0.0,204.0,6.0,170.0,102.0,68.0,34.0,204.0,136.0,white,hexagon
0.0,5.0,1.0,1.0,7.0,4.0,492.1738700941205,1.0,1.0,part_3,go,0.0,0.0,0.0,245.0,5.0,49.0,98.0,294.0,245.0,196.0,147.0,blue,triangle
0.0,6.0,2.0,1.0,7.0,1.0,999.8046942055224,1.0,1.0,part_3,go,0.0,0.0,0.0,220.0,5.0,220.0,132.0,88.0,176.0,44.0,264.0,magenta,diamond
0.0,8.0,4.0,1.0,7.0,6.0,581.9031791761518,1.0,1.0,part_3,go,0.0,0.0,0.0,204.0,6.0,68.0,102.0,34.0,136.0,170.0,204.0,gray,square
0.0,8.0,4.0,1.0,7.0,2.0,1041.4592158049345,1.0,1.0,part_3,go,0.0,0.0,0.0,264.0,6.0,132.0,264.0,44.0,176.0,88.0,220.0,gray,square
0.0,4.0,4.0,0.0,7.0,6.0,779.3436935171485,1.0,1.0,part_3,go,0.0,0.0,0.0,216.0,4.0,54.0,324.0,270.0,108.0,162.0,216.0,yellow,cross
0.0,6.0,2.0,1.0,7.0,2.0,708.9463798329234,1.0,1.0,part_3,go,0.0,0.0,0.0,324.0,6.0,162.0,324.0,216.0,270.0,108.0,54.0,magenta,diamond
0.0,2.0,2.0,0.0,7.0,5.0,519.6320982649922,1.0,1.0,part_3,go,0.0,0.0,0.0,270.0,5.0,108.0,216.0,54.0,162.0,270.0,324.0,green,I
0.0,1.0,1.0,0.0,7.0,6.0,614.7191198542714,2.0,1.0,part_3,go,0.0,0.0,0.0,220.0,5.0,132.0,44.0,264.0,88.0,176.0,220.0,orange,circle
0.0,8.0,4.0,1.0,7.0,2.0,951.1095508933068,2.0,1.0,part_3,go,0.0,0.0,0.0,294.0,6.0,98.0,294.0,147.0,245.0,196.0,49.0,gray,square
0.0,4.0,4.0,0.0,7.0,5.0,979.5621931552888,2.0,1.0,part_3,go,0.0,0.0,0.0,176.0,4.0,264.0,88.0,220.0,44.0,176.0,132.0,yellow,cross
0.0,5.0,1.0,1.0,7.0,2.0,1376.7238995060325,2.0,1.0,part_3,go,0.0,0.0,0.0,117.0,3.0,78.0,117.0,39.0,234.0,195.0,156.0,blue,triangle
0.0,6.0,2.0,1.0,7.0,6.0,835.9771631658077,2.0,1.0,part_3,go,0.0,0.0,0.0,156.0,4.0,117.0,234.0,39.0,78.0,195.0,156.0,magenta,diamond
0.0,2.0,2.0,0.0,7.0,6.0,675.5833104252815,2.0,1.0,part_3,go,0.0,0.0,0.0,220.0,5.0,132.0,176.0,264.0,44.0,88.0,220.0,green,I
0.0,6.0,2.0,1.0,7.0,4.0,1005.2395313978195,2.0,1.0,part_3,go,0.0,0.0,0.0,204.0,6.0,170.0,34.0,68.0,204.0,136.0,102.0,magenta,diamond
0.0,6.0,2.0,1.0,7.0,3.0,1064.535679295659,2.0,1.0,part_3,go,0.0,0.0,0.0,270.0,5.0,108.0,54.0,270.0,216.0,324.0,162.0,magenta,diamond
0.0,3.0,3.0,0.0,7.0,3.0,1200.9436506778002,2.0,1.0,part_3,go,0.0,0.0,0.0,216.0,4.0,270.0,162.0,216.0,54.0,108.0,324.0,white,hexagon
0.0,1.0,1.0,0.0,7.0,5.0,882.1529988199472,2.0,1.0,part_3,go,0.0,0.0,0.0,216.0,4.0,162.0,108.0,54.0,324.0,216.0,270.0,orange,circle
0.0,7.0,3.0,1.0,7.0,6.0,1099.3978455662727,2.0,1.0,part_3,go,0.0,0.0,0.0,220.0,5.0,132.0,44.0,88.0,176.0,264.0,220.0,cyan,flipped triangle
0.0,4.0,4.0,0.0,7.0,4.0,837.9788743332028,2.0,1.0,part_3,go,0.0,0.0,0.0,49.0,1.0,98.0,196.0,294.0,49.0,147.0,245.0,yellow,cross
0.0,7.0,3.0,1.0,7.0,2.0,829.8343485221267,2.0,1.0,part_3,go,0.0,0.0,0.0,264.0,6.0,88.0,264.0,220.0,44.0,132.0,176.0,cyan,flipped triangle
0.0,2.0,2.0,0.0,7.0,6.0,864.3892575055361,2.0,1.0,part_3,go,0.0,0.0,0.0,136.0,4.0,170.0,34.0,204.0,102.0,68.0,136.0,green,I
0.0,4.0,4.0,0.0,7.0,2.0,1330.132508650422,2.0,1.0,part_3,go,0.0,0.0,0.0,220.0,5.0,44.0,220.0,176.0,264.0,132.0,88.0,yellow,cross
0.0,7.0,3.0,1.0,7.0,6.0,1556.728757917881,2.0,1.0,part_3,go,0.0,0.0,0.0,108.0,2.0,324.0,270.0,216.0,162.0,54.0,108.0,cyan,flipped triangle
0.0,2.0,2.0,0.0,7.0,2.0,1212.059309706092,2.0,1.0,part_3,go,0.0,0.0,0.0,156.0,4.0,117.0,156.0,78.0,195.0,39.0,234.0,green,I
0.0,7.0,3.0,1.0,7.0,4.0,958.0607060343028,2.0,1.0,part_3,go,0.0,0.0,0.0,216.0,4.0,270.0,108.0,162.0,216.0,54.0,324.0,cyan,flipped triangle
0.0,4.0,4.0,0.0,7.0,6.0,702.5909833610058,2.0,1.0,part_3,go,0.0,0.0,0.0,204.0,6.0,102.0,34.0,68.0,136.0,170.0,204.0,yellow,cross
0.0,2.0,2.0,0.0,7.0,6.0,736.2892255187035,2.0,1.0,part_3,go,0.0,0.0,0.0,294.0,6.0,98.0,196.0,245.0,147.0,49.0,294.0,green,I
0.0,5.0,1.0,1.0,7.0,6.0,642.7571661770344,3.0,1.0,part_3,go,0.0,0.0,0.0,136.0,4.0,170.0,68.0,102.0,34.0,204.0,136.0,blue,triangle
0.0,4.0,4.0,0.0,7.0,2.0,668.4933276847005,3.0,1.0,part_3,go,0.0,0.0,0.0,216.0,4.0,270.0,216.0,324.0,162.0,108.0,54.0,yellow,cross
0.0,8.0,4.0,1.0,7.0,6.0,853.3840449526906,3.0,1.0,part_3,go,0.0,0.0,0.0,270.0,5.0,54.0,108.0,216.0,162.0,324.0,270.0,gray,square
0.0,1.0,1.0,0.0,7.0,5.0,1101.0678317397833,3.0,1.0,part_3,go,0.0,0.0,0.0,204.0,6.0,68.0,34.0,170.0,136.0,204.0,102.0,orange,circle
0.0,3.0,3.0,0.0,7.0,2.0,645.6542704254389,3.0,1.0,part_3,go,0.0,0.0,0.0,196.0,4.0,245.0,196.0,49.0,294.0,147.0,98.0,white,hexagon
0.0,6.0,2.0,1.0,7.0,1.0,1195.0983749702573,3.0,1.0,part_3,go,0.0,0.0,0.0,204.0,6.0,204.0,170.0,34.0,68.0,136.0,102.0,magenta,diamond
0.0,8.0,4.0,1.0,7.0,5.0,1032.4266385287046,3.0,1.0,part_3,go,0.0,0.0,0.0,39.0,1.0,78.0,156.0,234.0,195.0,39.0,117.0,gray,square
0.0,3.0,3.0,0.0,7.0,4.0,628.6424985155463,3.0,1.0,part_3,go,0.0,0.0,0.0,270.0,5.0,108.0,216.0,54.0,270.0,324.0,162.0,white,hexagon
0.0,7.0,3.0,1.0,7.0,3.0,806.1849605292082,3.0,1.0,part_3,go,0.0,0.0,0.0,204.0,6.0,136.0,34.0,204.0,68.0,102.0,170.0,cyan,flipped triangle
0.0,4.0,4.0,0.0,7.0,3.0,758.5942437872291,3.0,1.0,part_3,go,0.0,0.0,0.0,156.0,4.0,78.0,234.0,156.0,39.0,117.0,195.0,yellow,cross
0.0,5.0,1.0,1.0,7.0,6.0,728.1474824994802,3.0,1.0,part_3,go,0.0,0.0,0.0,264.0,6.0,220.0,44.0,132.0,176.0,88.0,264.0,blue,triangle
0.0,7.0,3.0,1.0,7.0,5.0,1099.1674698889256,3.0,1.0,part_3,go,0.0,0.0,0.0,195.0,5.0,234.0,117.0,39.0,78.0,195.0,156.0,cyan,flipped triangle
0.0,3.0,3.0,0.0,7.0,2.0,824.6465194970369,3.0,1.0,part_3,go,0.0,0.0,0.0,264.0,6.0,176.0,264.0,132.0,44.0,88.0,220.0,white,hexagon
0.0,3.0,3.0,0.0,7.0,2.0,949.1460863500834,3.0,1.0,part_3,go,0.0,0.0,0.0,204.0,6.0,34.0,204.0,102.0,136.0,68.0,170.0,white,hexagon
0.0,5.0,1.0,1.0,7.0,4.0,973.624431528151,3.0,1.0,part_3,go,0.0,0.0,0.0,234.0,6.0,195.0,156.0,117.0,234.0,39.0,78.0,blue,triangle
0.0,4.0,4.0,0.0,7.0,1.0,780.6853475049138,3.0,1.0,part_3,go,0.0,0.0,0.0,245.0,5.0,245.0,49.0,147.0,98.0,196.0,294.0,yellow,cross
0.0,2.0,2.0,0.0,7.0,5.0,671.2185302749276,3.0,1.0,part_3,go,0.0,0.0,0.0,108.0,2.0,216.0,162.0,270.0,324.0,108.0,54.0,green,I
0.0,6.0,2.0,1.0,7.0,2.0,771.7648120597005,3.0,1.0,part_3,go,0.0,0.0,0.0,245.0,5.0,98.0,245.0,294.0,49.0,147.0,196.0,magenta,diamond
0.0,3.0,3.0,0.0,7.0,3.0,873.7809499725699,3.0,1.0,part_3,go,0.0,0.0,0.0,220.0,5.0,176.0,132.0,220.0,264.0,44.0,88.0,white,hexagon
0.0,6.0,2.0,1.0,7.0,5.0,732.2294786572456,3.0,1.0,part_3,go,0.0,0.0,0.0,294.0,6.0,196.0,49.0,147.0,245.0,294.0,98.0,magenta,diamond
0.0,5.0,1.0,1.0,7.0,3.0,1035.56555416435,4.0,1.0,part_3,go,0.0,0.0,0.0,245.0,5.0,294.0,196.0,245.0,147.0,98.0,49.0,blue,triangle
0.0,1.0,1.0,0.0,7.0,1.0,903.7266001105309,4.0,1.0,part_3,go,0.0,0.0,0.0,264.0,6.0,264.0,44.0,220.0,176.0,88.0,132.0,orange,circle
0.0,2.0,2.0,0.0,7.0,6.0,786.4515418186784,4.0,1.0,part_3,go,0.0,0.0,0.0,196.0,4.0,147.0,245.0,294.0,98.0,49.0,196.0,green,I
0.0,1.0,1.0,0.0,7.0,1.0,772.0506591722369,4.0,1.0,part_3,go,0.0,0.0,0.0,147.0,3.0,147.0,294.0,49.0,98.0,196.0,245.0,orange,circle
0.0,5.0,1.0,1.0,7.0,3.0,868.1914554908872,4.0,1.0,part_3,go,0.0,0.0,0.0,324.0,6.0,216.0,108.0,324.0,54.0,270.0,162.0,blue,triangle
0.0,8.0,4.0,1.0,7.0,5.0,878.1090974807739,4.0,1.0,part_3,go,0.0,0.0,0.0,264.0,6.0,88.0,132.0,44.0,220.0,264.0,176.0,gray,square
0.0,8.0,4.0,1.0,7.0,3.0,799.1487653926015,4.0,1.0,part_3,go,0.0,0.0,0.0,245.0,5.0,294.0,98.0,245.0,147.0,49.0,196.0,gray,square
0.0,1.0,1.0,0.0,7.0,6.0,752.2755358368158,4.0,1.0,part_3,go,0.0,0.0,0.0,98.0,2.0,294.0,147.0,245.0,49.0,196.0,98.0,orange,circle
0.0,7.0,3.0,1.0,7.0,5.0,1559.3554098159077,4.0,1.0,part_3,go,0.0,0.0,0.0,98.0,2.0,245.0,147.0,49.0,196.0,98.0,294.0,cyan,flipped triangle
0.0,4.0,4.0,0.0,7.0,6.0,1114.5876189693809,4.0,1.0,part_3,go,0.0,0.0,0.0,78.0,2.0,195.0,39.0,117.0,156.0,234.0,78.0,yellow,cross
0.0,5.0,1.0,1.0,7.0,6.0,1219.4923860952258,4.0,1.0,part_3,go,0.0,0.0,0.0,68.0,2.0,102.0,204.0,34.0,170.0,136.0,68.0,blue,triangle
0.0,2.0,2.0,0.0,7.0,1.0,867.1458177268505,4.0,1.0,part_3,go,0.0,0.0,0.0,156.0,4.0,156.0,39.0,78.0,195.0,117.0,234.0,green,I
0.0,5.0,1.0,1.0,7.0,1.0,1430.2241327241063,4.0,1.0,part_3,go,0.0,0.0,0.0,132.0,3.0,132.0,176.0,220.0,88.0,44.0,264.0,blue,triangle
0.0,3.0,3.0,0.0,7.0,2.0,952.309539541602,4.0,1.0,part_3,go,0.0,0.0,0.0,156.0,4.0,234.0,156.0,78.0,195.0,39.0,117.0,white,hexagon
0.0,2.0,2.0,0.0,7.0,1.0,952.5938527658582,4.0,1.0,part_3,go,0.0,0.0,0.0,136.0,4.0,136.0,204.0,170.0,34.0,68.0,102.0,green,I
0.0,8.0,4.0,1.0,7.0,5.0,923.6475490033628,4.0,1.0,part_3,go,0.0,0.0,0.0,136.0,4.0,170.0,102.0,204.0,68.0,136.0,34.0,gray,square
0.0,2.0,2.0,0.0,7.0,5.0,699.6743073686957,4.0,1.0,part_3,go,0.0,0.0,0.0,264.0,6.0,132.0,44.0,176.0,88.0,264.0,220.0,green,I
0.0,1.0,1.0,0.0,7.0,1.0,494.689711369574,4.0,1.0,part_3,go,0.0,0.0,0.0,156.0,4.0,156.0,117.0,78.0,195.0,39.0,234.0,orange,circle
0.0,7.0,3.0,1.0,7.0,6.0,679.7880697995424,4.0,1.0,part_3,go,0.0,0.0,0.0,147.0,3.0,245.0,294.0,196.0,98.0,49.0,147.0,cyan,flipped triangle
0.0,6.0,2.0,1.0,7.0,5.0,797.9119103401899,4.0,1.0,part_3,go,0.0,0.0,0.0,156.0,4.0,78.0,39.0,117.0,195.0,156.0,234.0,magenta,diamond
