raw_reward_magnitude,stim_reward,stepwise_reward_magnitude,paired_with_stopping,stim_location,response,reaction_time,block,num_trial_presentations,which_phase,stop_signal_trial_type,left_SSD,right_SSD,accuracy,chosen_bidding_amount,chosen_bidding_level,possible_bid_1,possible_bid_2,possible_bid_3,possible_bid_4,possible_bid_5,possible_bid_6,color_text,shape_text
27.0,1.0,1.0,0.0,2.0,2.0,426.0149272158742,1.0,1.0,phase_1,,,,,,,,,,,,,blue,cross
124.0,2.0,2.0,0.0,2.0,2.0,534.8408911377192,1.0,1.0,phase_1,,,,,,,,,,,,,magenta,hexagon
0.0,2.0,0.0,0.0,2.0,2.0,304.8139903694391,1.0,1.0,phase_1,,,,,,,,,,,,,magenta,hexagon
218.0,3.0,3.0,0.0,4.0,4.0,382.8915767371654,1.0,1.0,phase_1,,,,,,,,,,,,,gray,circle
189.0,3.0,3.0,0.0,3.0,3.0,275.9014246985316,1.0,1.0,phase_1,,,,,,,,,,,,,gray,circle
404.0,4.0,4.0,0.0,2.0,2.0,406.6202621906996,1.0,1.0,phase_1,,,,,,,,,,,,,green,flipped triangle
175.0,7.0,3.0,1.0,3.0,3.0,283.8802793994546,1.0,1.0,phase_1,,,,,,,,,,,,,white,diamond
419.0,4.0,4.0,0.0,4.0,4.0,312.5542923808098,1.0,1.0,phase_1,,,,,,,,,,,,,green,flipped triangle
124.0,2.0,2.0,0.0,3.0,3.0,324.3039902299642,1.0,1.0,phase_1,,,,,,,,,,,,,magenta,hexagon
183.0,3.0,3.0,0.0,2.0,2.0,313.4780190885067,1.0,1.0,phase_1,,,,,,,,,,,,,gray,circle
0.0,7.0,0.0,1.0,4.0,4.0,279.8950914293527,1.0,1.0,phase_1,,,,,,,,,,,,,white,diamond
220.0,3.0,3.0,0.0,3.0,3.0,323.4788440167904,1.0,1.0,phase_1,,,,,,,,,,,,,gray,circle
411.0,8.0,4.0,1.0,3.0,3.0,271.921549923718,1.0,1.0,phase_1,,,,,,,,,,,,,cyan,square
94.0,6.0,2.0,1.0,3.0,3.0,319.6587050333619,1.0,1.0,phase_1,,,,,,,,,,,,,orange,triangle
81.0,2.0,2.0,0.0,2.0,2.0,312.0686002075672,1.0,2.0,phase_1,,,,,,,,,,,,,magenta,hexagon
191.0,7.0,3.0,1.0,1.0,1.0,345.7315675914287,1.0,1.0,phase_1,,,,,,,,,,,,,white,diamond
36.0,1.0,1.0,0.0,4.0,4.0,329.135013744235,1.0,1.0,phase_1,,,,,,,,,,,,,blue,cross
0.0,6.0,0.0,1.0,3.0,3.0,310.7744734734297,1.0,1.0,phase_1,,,,,,,,,,,,,orange,triangle
77.0,6.0,2.0,1.0,2.0,2.0,307.4089735746383,1.0,1.0,phase_1,,,,,,,,,,,,,orange,triangle
88.0,6.0,2.0,1.0,2.0,2.0,278.9528788998723,1.0,1.0,phase_1,,,,,,,,,,,,,orange,triangle
413.0,4.0,4.0,0.0,2.0,2.0,275.3598131239414,1.0,1.0,phase_1,,,,,,,,,,,,,green,flipped triangle
0.0,1.0,0.0,0.0,2.0,2.0,280.0075151026249,1.0,1.0,phase_1,,,,,,,,,,,,,blue,cross
410.0,8.0,4.0,1.0,4.0,4.0,307.2655200958252,1.0,1.0,phase_1,,,,,,,,,,,,,cyan,square
416.0,8.0,4.0,1.0,1.0,1.0,275.0951843336224,1.0,1.0,phase_1,,,,,,,,,,,,,cyan,square
124.0,6.0,2.0,1.0,3.0,3.0,316.0328110679984,1.0,1.0,phase_1,,,,,,,,,,,,,orange,triangle
60.0,1.0,1.0,0.0,1.0,1.0,241.65999609977,1.0,1.0,phase_1,,,,,,,,,,,,,blue,cross
42.0,5.0,1.0,1.0,3.0,3.0,592.7994968369603,1.0,1.0,phase_1,,,,,,,,,,,,,yellow,I
391.0,8.0,4.0,1.0,2.0,2.0,409.7394663840532,1.0,1.0,phase_1,,,,,,,,,,,,,cyan,square
187.0,3.0,3.0,0.0,4.0,4.0,313.3296528831124,1.0,1.0,phase_1,,,,,,,,,,,,,gray,circle
67.0,1.0,1.0,0.0,4.0,4.0,309.8926851525903,1.0,1.0,phase_1,,,,,,,,,,,,,blue,cross
218.0,3.0,3.0,0.0,1.0,1.0,259.1492477804422,1.0,1.0,phase_1,,,,,,,,,,,,,gray,circle
389.0,8.0,4.0,1.0,3.0,3.0,309.6687514334917,1.0,1.0,phase_1,,,,,,,,,,,,,cyan,square
55.0,5.0,1.0,1.0,3.0,3.0,300.0680236145854,1.0,1.0,phase_1,,,,,,,,,,,,,yellow,I
0.0,2.0,0.0,0.0,2.0,2.0,337.5563537701964,1.0,1.0,phase_1,,,,,,,,,,,,,magenta,hexagon
30.0,1.0,1.0,0.0,2.0,2.0,315.7791951671242,1.0,1.0,phase_1,,,,,,,,,,,,,blue,cross
187.0,3.0,3.0,0.0,2.0,2.0,256.5243132412433,1.0,1.0,phase_1,,,,,,,,,,,,,gray,circle
0.0,5.0,0.0,1.0,3.0,3.0,263.0351213738322,1.0,1.0,phase_1,,,,,,,,,,,,,yellow,I
74.0,1.0,1.0,0.0,3.0,3.0,301.3006392866373,1.0,1.0,phase_1,,,,,,,,,,,,,blue,cross
69.0,5.0,1.0,1.0,3.0,3.0,357.9093674197793,1.0,1.0,phase_1,,,,,,,,,,,,,yellow,I
0.0,4.0,0.0,0.0,4.0,4.0,298.7773520871997,1.0,1.0,phase_1,,,,,,,,,,,,,green,flipped triangle
35.0,1.0,1.0,0.0,1.0,1.0,264.0250893309712,1.0,1.0,phase_1,,,,,,,,,,,,,blue,cross
397.0,4.0,4.0,0.0,3.0,3.0,332.1581101045012,1.0,1.0,phase_1,,,,,,,,,,,,,green,flipped triangle
419.0,4.0,4.0,0.0,1.0,1.0,316.8374337255955,1.0,1.0,phase_1,,,,,,,,,,,,,green,flipped triangle
0.0,3.0,0.0,0.0,2.0,2.0,424.9181440100074,1.0,1.0,phase_1,,,,,,,,,,,,,gray,circle
0.0,8.0,0.0,1.0,2.0,2.0,354.3250886723399,1.0,1.0,phase_1,,,,,,,,,,,,,cyan,square
388.0,8.0,4.0,1.0,4.0,4.0,274.1867266595363,1.0,1.0,phase_1,,,,,,,,,,,,,cyan,square
421.0,4.0,4.0,0.0,4.0,4.0,286.1167397350073,1.0,1.0,phase_1,,,,,,,,,,,,,green,flipped triangle
423.0,4.0,4.0,0.0,1.0,1.0,304.5830084010958,1.0,1.0,phase_1,,,,,,,,,,,,,green,flipped triangle
205.0,3.0,3.0,0.0,3.0,3.0,319.6703335270285,1.0,1.0,phase_1,,,,,,,,,,,,,gray,circle
38.0,5.0,1.0,1.0,3.0,3.0,337.5251404941082,1.0,1.0,phase_1,,,,,,,,,,,,,yellow,I
103.0,6.0,2.0,1.0,3.0,3.0,302.3190069943666,1.0,1.0,phase_1,,,,,,,,,,,,,orange,triangle
58.0,5.0,1.0,1.0,1.0,1.0,278.1192203983664,1.0,1.0,phase_1,,,,,,,,,,,,,yellow,I
0.0,8.0,0.0,1.0,3.0,3.0,299.6996510773897,1.0,1.0,phase_1,,,,,,,,,,,,,cyan,square
0.0,4.0,0.0,0.0,3.0,3.0,278.4209568053484,1.0,1.0,phase_1,,,,,,,,,,,,,green,flipped triangle
405.0,4.0,4.0,0.0,4.0,4.0,290.5191034078598,1.0,1.0,phase_1,,,,,,,,,,,,,green,flipped triangle
60.0,5.0,1.0,1.0,3.0,3.0,269.4309670478105,1.0,1.0,phase_1,,,,,,,,,,,,,yellow,I
61.0,1.0,1.0,0.0,2.0,2.0,277.3395432159304,1.0,1.0,phase_1,,,,,,,,,,,,,blue,cross
0.0,7.0,0.0,1.0,2.0,2.0,318.6148284003138,1.0,1.0,phase_1,,,,,,,,,,,,,white,diamond
45.0,5.0,1.0,1.0,1.0,1.0,283.4627628326416,1.0,1.0,phase_1,,,,,,,,,,,,,yellow,I
76.0,2.0,2.0,0.0,4.0,4.0,351.8886845558882,1.0,1.0,phase_1,,,,,,,,,,,,,magenta,hexagon
81.0,2.0,2.0,0.0,3.0,3.0,344.7132995352149,1.0,1.0,phase_1,,,,,,,,,,,,,magenta,hexagon
88.0,2.0,2.0,0.0,4.0,4.0,345.7623375579715,1.0,1.0,phase_1,,,,,,,,,,,,,magenta,hexagon
410.0,4.0,4.0,0.0,1.0,1.0,272.143161855638,1.0,1.0,phase_1,,,,,,,,,,,,,green,flipped triangle
419.0,8.0,4.0,1.0,4.0,4.0,287.2122507542372,1.0,1.0,phase_1,,,,,,,,,,,,,cyan,square
382.0,4.0,4.0,0.0,4.0,4.0,331.6103154793381,1.0,1.0,phase_1,,,,,,,,,,,,,green,flipped triangle
0.0,1.0,0.0,0.0,1.0,1.0,309.1450147330761,1.0,1.0,phase_1,,,,,,,,,,,,,blue,cross
176.0,7.0,3.0,1.0,1.0,1.0,302.4688744917512,1.0,2.0,phase_1,,,,,,,,,,,,,white,diamond
387.0,8.0,4.0,1.0,1.0,1.0,323.9899333566427,1.0,1.0,phase_1,,,,,,,,,,,,,cyan,square
63.0,1.0,1.0,0.0,3.0,3.0,295.4748757183552,1.0,1.0,phase_1,,,,,,,,,,,,,blue,cross
0.0,2.0,0.0,0.0,1.0,1.0,333.4661517292261,1.0,1.0,phase_1,,,,,,,,,,,,,magenta,hexagon
33.0,5.0,1.0,1.0,4.0,4.0,441.5872516110539,1.0,1.0,phase_1,,,,,,,,,,,,,yellow,I
419.0,8.0,4.0,1.0,3.0,3.0,357.8771194443106,1.0,1.0,phase_1,,,,,,,,,,,,,cyan,square
106.0,6.0,2.0,1.0,3.0,3.0,395.9290077909827,1.0,1.0,phase_1,,,,,,,,,,,,,orange,triangle
48.0,1.0,1.0,0.0,3.0,3.0,296.1784843355417,1.0,1.0,phase_1,,,,,,,,,,,,,blue,cross
0.0,3.0,0.0,0.0,3.0,3.0,308.001285418868,1.0,1.0,phase_1,,,,,,,,,,,,,gray,circle
195.0,3.0,3.0,0.0,2.0,2.0,368.8429901376366,1.0,1.0,phase_1,,,,,,,,,,,,,gray,circle
123.0,6.0,2.0,1.0,4.0,4.0,304.3984407559037,1.0,1.0,phase_1,,,,,,,,,,,,,orange,triangle
178.0,7.0,3.0,1.0,1.0,1.0,265.5305042862892,1.0,1.0,phase_1,,,,,,,,,,,,,white,diamond
33.0,1.0,1.0,0.0,1.0,1.0,286.8619849905371,1.0,1.0,phase_1,,,,,,,,,,,,,blue,cross
0.0,7.0,0.0,1.0,3.0,3.0,314.7216308861971,1.0,1.0,phase_1,,,,,,,,,,,,,white,diamond
97.0,6.0,2.0,1.0,1.0,1.0,289.7797226905823,1.0,1.0,phase_1,,,,,,,,,,,,,orange,triangle
112.0,2.0,2.0,0.0,3.0,3.0,277.600085362792,1.0,1.0,phase_1,,,,,,,,,,,,,magenta,hexagon
175.0,3.0,3.0,0.0,4.0,4.0,306.7076727747917,1.0,1.0,phase_1,,,,,,,,,,,,,gray,circle
221.0,7.0,3.0,1.0,3.0,3.0,327.3816769942641,1.0,1.0,phase_1,,,,,,,,,,,,,white,diamond
65.0,1.0,1.0,0.0,1.0,1.0,290.6935317441821,1.0,1.0,phase_1,,,,,,,,,,,,,blue,cross
396.0,8.0,4.0,1.0,3.0,3.0,286.643479950726,1.0,1.0,phase_1,,,,,,,,,,,,,cyan,square
118.0,6.0,2.0,1.0,4.0,4.0,291.9068150222301,1.0,1.0,phase_1,,,,,,,,,,,,,orange,triangle
0.0,6.0,0.0,1.0,2.0,2.0,336.1018104478717,1.0,1.0,phase_1,,,,,,,,,,,,,orange,triangle
84.0,2.0,2.0,0.0,2.0,2.0,319.2795300856232,1.0,1.0,phase_1,,,,,,,,,,,,,magenta,hexagon
85.0,2.0,2.0,0.0,1.0,1.0,306.5882623195648,1.0,1.0,phase_1,,,,,,,,,,,,,magenta,hexagon
0.0,4.0,0.0,0.0,2.0,2.0,360.924918204546,1.0,1.0,phase_1,,,,,,,,,,,,,green,flipped triangle
28.0,5.0,1.0,1.0,1.0,1.0,355.9345686808228,1.0,1.0,phase_1,,,,,,,,,,,,,yellow,I
119.0,2.0,2.0,0.0,2.0,2.0,311.4367462694645,1.0,1.0,phase_1,,,,,,,,,,,,,magenta,hexagon
119.0,6.0,2.0,1.0,1.0,1.0,388.386856764555,1.0,1.0,phase_1,,,,,,,,,,,,,orange,triangle
0.0,3.0,0.0,0.0,1.0,1.0,307.38983489573,1.0,1.0,phase_1,,,,,,,,,,,,,gray,circle
95.0,2.0,2.0,0.0,4.0,4.0,357.7184453606605,1.0,1.0,phase_1,,,,,,,,,,,,,magenta,hexagon
394.0,4.0,4.0,0.0,2.0,2.0,308.7238697335124,1.0,1.0,phase_1,,,,,,,,,,,,,green,flipped triangle
0.0,4.0,0.0,0.0,4.0,4.0,303.6004919558763,1.0,1.0,phase_1,,,,,,,,,,,,,green,flipped triangle
101.0,2.0,2.0,0.0,4.0,4.0,387.9259135574102,1.0,1.0,phase_1,,,,,,,,,,,,,magenta,hexagon
35.0,5.0,1.0,1.0,1.0,1.0,315.3991056606173,1.0,1.0,phase_1,,,,,,,,,,,,,yellow,I
0.0,8.0,0.0,1.0,3.0,3.0,453.8899343460798,2.0,1.0,phase_1,,,,,,,,,,,,,cyan,square
0.0,8.0,0.0,1.0,3.0,3.0,315.6024273484945,2.0,1.0,phase_1,,,,,,,,,,,,,cyan,square
191.0,3.0,3.0,0.0,1.0,1.0,430.1673797890544,2.0,1.0,phase_1,,,,,,,,,,,,,gray,circle
33.0,1.0,1.0,0.0,1.0,1.0,381.8664168938994,2.0,1.0,phase_1,,,,,,,,,,,,,blue,cross
404.0,4.0,4.0,0.0,1.0,1.0,320.8300657570362,2.0,1.0,phase_1,,,,,,,,,,,,,green,flipped triangle
117.0,2.0,2.0,0.0,2.0,2.0,339.5452182739973,2.0,1.0,phase_1,,,,,,,,,,,,,magenta,hexagon
0.0,4.0,0.0,0.0,2.0,2.0,299.7749038040638,2.0,1.0,phase_1,,,,,,,,,,,,,green,flipped triangle
0.0,7.0,0.0,1.0,3.0,3.0,287.293623201549,2.0,1.0,phase_1,,,,,,,,,,,,,white,diamond
45.0,1.0,1.0,0.0,2.0,2.0,347.71229326725,2.0,1.0,phase_1,,,,,,,,,,,,,blue,cross
221.0,3.0,3.0,0.0,2.0,2.0,309.7501695156097,2.0,1.0,phase_1,,,,,,,,,,,,,gray,circle
221.0,7.0,3.0,1.0,3.0,3.0,325.6637612357735,2.0,1.0,phase_1,,,,,,,,,,,,,white,diamond
187.0,7.0,3.0,1.0,4.0,4.0,369.5677723735571,2.0,1.0,phase_1,,,,,,,,,,,,,white,diamond
82.0,6.0,2.0,1.0,1.0,1.0,373.0422165244818,2.0,1.0,phase_1,,,,,,,,,,,,,orange,triangle
190.0,7.0,3.0,1.0,4.0,4.0,379.230878315866,2.0,1.0,phase_1,,,,,,,,,,,,,white,diamond
0.0,5.0,0.0,1.0,4.0,4.0,349.7277097776532,2.0,1.0,phase_1,,,,,,,,,,,,,yellow,I
43.0,5.0,1.0,1.0,4.0,4.0,282.4775082990527,2.0,1.0,phase_1,,,,,,,,,,,,,yellow,I
0.0,7.0,0.0,1.0,2.0,2.0,345.6425862386822,2.0,1.0,phase_1,,,,,,,,,,,,,white,diamond
72.0,5.0,1.0,1.0,2.0,2.0,278.0423788353801,2.0,1.0,phase_1,,,,,,,,,,,,,yellow,I
124.0,6.0,2.0,1.0,3.0,3.0,360.4062078520655,2.0,1.0,phase_1,,,,,,,,,,,,,orange,triangle
77.0,6.0,2.0,1.0,2.0,2.0,293.7123384326696,2.0,1.0,phase_1,,,,,,,,,,,,,orange,triangle
97.0,2.0,2.0,0.0,2.0,2.0,265.6805878505111,2.0,1.0,phase_1,,,,,,,,,,,,,magenta,hexagon
209.0,7.0,3.0,1.0,2.0,2.0,281.7036677151918,2.0,1.0,phase_1,,,,,,,,,,,,,white,diamond
40.0,5.0,1.0,1.0,2.0,2.0,370.646427385509,2.0,1.0,phase_1,,,,,,,,,,,,,yellow,I
221.0,3.0,3.0,0.0,2.0,2.0,401.7290361225605,2.0,1.0,phase_1,,,,,,,,,,,,,gray,circle
208.0,7.0,3.0,1.0,1.0,1.0,326.1183658614754,2.0,1.0,phase_1,,,,,,,,,,,,,white,diamond
67.0,5.0,1.0,1.0,4.0,4.0,363.7801688164472,2.0,1.0,phase_1,,,,,,,,,,,,,yellow,I
73.0,5.0,1.0,1.0,1.0,1.0,552.2713121026754,2.0,1.0,phase_1,,,,,,,,,,,,,yellow,I
209.0,3.0,3.0,0.0,1.0,1.0,314.6884320303797,2.0,1.0,phase_1,,,,,,,,,,,,,gray,circle
393.0,4.0,4.0,0.0,2.0,2.0,258.3208223804831,2.0,1.0,phase_1,,,,,,,,,,,,,green,flipped triangle
65.0,5.0,1.0,1.0,2.0,2.0,269.2992594093084,2.0,1.0,phase_1,,,,,,,,,,,,,yellow,I
205.0,7.0,3.0,1.0,1.0,1.0,364.0450490638613,2.0,1.0,phase_1,,,,,,,,,,,,,white,diamond
395.0,4.0,4.0,0.0,4.0,4.0,381.4776428043842,2.0,1.0,phase_1,,,,,,,,,,,,,green,flipped triangle
222.0,7.0,3.0,1.0,1.0,1.0,307.6322944834828,2.0,1.0,phase_1,,,,,,,,,,,,,white,diamond
0.0,5.0,0.0,1.0,2.0,2.0,271.3483870029449,2.0,1.0,phase_1,,,,,,,,,,,,,yellow,I
183.0,7.0,3.0,1.0,2.0,2.0,331.1125924810767,2.0,1.0,phase_1,,,,,,,,,,,,,white,diamond
85.0,2.0,2.0,0.0,1.0,1.0,290.0388799607754,2.0,1.0,phase_1,,,,,,,,,,,,,magenta,hexagon
375.0,4.0,4.0,0.0,4.0,4.0,286.2207693979144,2.0,1.0,phase_1,,,,,,,,,,,,,green,flipped triangle
112.0,6.0,2.0,1.0,4.0,4.0,316.3507645949721,2.0,1.0,phase_1,,,,,,,,,,,,,orange,triangle
215.0,7.0,3.0,1.0,1.0,1.0,368.1218139827251,2.0,1.0,phase_1,,,,,,,,,,,,,white,diamond
398.0,4.0,4.0,0.0,4.0,4.0,355.43725546449417,2.0,1.0,phase_1,,,,,,,,,,,,,green,flipped triangle
0.0,6.0,0.0,1.0,2.0,2.0,315.2372008189559,2.0,1.0,phase_1,,,,,,,,,,,,,orange,triangle
0.0,2.0,0.0,0.0,2.0,2.0,267.8411696106195,2.0,1.0,phase_1,,,,,,,,,,,,,magenta,hexagon
0.0,2.0,0.0,0.0,1.0,1.0,314.5971512421965,2.0,1.0,phase_1,,,,,,,,,,,,,magenta,hexagon
0.0,4.0,0.0,0.0,2.0,2.0,311.4720275625586,2.0,1.0,phase_1,,,,,,,,,,,,,green,flipped triangle
196.0,7.0,3.0,1.0,3.0,3.0,388.2166501134634,2.0,1.0,phase_1,,,,,,,,,,,,,white,diamond
47.0,5.0,1.0,1.0,2.0,2.0,281.8944891914725,2.0,1.0,phase_1,,,,,,,,,,,,,yellow,I
178.0,3.0,3.0,0.0,1.0,1.0,308.4043804556131,2.0,1.0,phase_1,,,,,,,,,,,,,gray,circle
62.0,1.0,1.0,0.0,1.0,1.0,312.5512329861521,2.0,1.0,phase_1,,,,,,,,,,,,,blue,cross
95.0,2.0,2.0,0.0,3.0,3.0,317.6917769014835,2.0,1.0,phase_1,,,,,,,,,,,,,magenta,hexagon
34.0,5.0,1.0,1.0,2.0,2.0,322.9886684566736,2.0,1.0,phase_1,,,,,,,,,,,,,yellow,I
40.0,1.0,1.0,0.0,3.0,3.0,314.2485506832599,2.0,1.0,phase_1,,,,,,,,,,,,,blue,cross
193.0,7.0,3.0,1.0,1.0,1.0,318.5088280588388,2.0,1.0,phase_1,,,,,,,,,,,,,white,diamond
0.0,6.0,0.0,1.0,2.0,2.0,298.2216365635395,2.0,1.0,phase_1,,,,,,,,,,,,,orange,triangle
41.0,5.0,1.0,1.0,1.0,1.0,286.1339673399925,2.0,1.0,phase_1,,,,,,,,,,,,,yellow,I
195.0,7.0,3.0,1.0,4.0,4.0,348.1606990098953,2.0,1.0,phase_1,,,,,,,,,,,,,white,diamond
0.0,2.0,0.0,0.0,1.0,1.0,343.5141332447529,2.0,1.0,phase_1,,,,,,,,,,,,,magenta,hexagon
43.0,1.0,1.0,0.0,4.0,4.0,396.9375910237431,2.0,1.0,phase_1,,,,,,,,,,,,,blue,cross
27.0,5.0,1.0,1.0,2.0,2.0,303.4134628251195,2.0,1.0,phase_1,,,,,,,,,,,,,yellow,I
73.0,1.0,1.0,0.0,4.0,4.0,319.0018655732274,2.0,1.0,phase_1,,,,,,,,,,,,,blue,cross
407.0,8.0,4.0,1.0,2.0,2.0,291.4051972329616,2.0,1.0,phase_1,,,,,,,,,,,,,cyan,square
0.0,7.0,0.0,1.0,3.0,3.0,303.7937190383672,2.0,1.0,phase_1,,,,,,,,,,,,,white,diamond
0.0,3.0,0.0,0.0,1.0,1.0,315.7116724178195,2.0,1.0,phase_1,,,,,,,,,,,,,gray,circle
123.0,2.0,2.0,0.0,3.0,3.0,416.6592974215746,2.0,1.0,phase_1,,,,,,,,,,,,,magenta,hexagon
407.0,8.0,4.0,1.0,1.0,1.0,836.5488881245255,2.0,1.0,phase_1,,,,,,,,,,,,,cyan,square
113.0,6.0,2.0,1.0,3.0,3.0,441.9170720502734,2.0,1.0,phase_1,,,,,,,,,,,,,orange,triangle
76.0,6.0,2.0,1.0,3.0,3.0,437.3455075547099,2.0,1.0,phase_1,,,,,,,,,,,,,orange,triangle
421.0,4.0,4.0,0.0,4.0,4.0,585.3722309693694,2.0,1.0,phase_1,,,,,,,,,,,,,green,flipped triangle
69.0,5.0,1.0,1.0,2.0,2.0,343.1292166933417,2.0,1.0,phase_1,,,,,,,,,,,,,yellow,I
199.0,7.0,3.0,1.0,3.0,3.0,270.2342104166746,2.0,1.0,phase_1,,,,,,,,,,,,,white,diamond
193.0,3.0,3.0,0.0,1.0,1.0,279.0286391973495,2.0,1.0,phase_1,,,,,,,,,,,,,gray,circle
0.0,3.0,0.0,0.0,2.0,2.0,332.4147993698716,2.0,1.0,phase_1,,,,,,,,,,,,,gray,circle
199.0,3.0,3.0,0.0,3.0,3.0,299.7337048873305,2.0,1.0,phase_1,,,,,,,,,,,,,gray,circle
213.0,7.0,3.0,1.0,2.0,2.0,277.3842494934797,2.0,1.0,phase_1,,,,,,,,,,,,,white,diamond
221.0,3.0,3.0,0.0,1.0,1.0,269.2361120134592,2.0,1.0,phase_1,,,,,,,,,,,,,gray,circle
64.0,1.0,1.0,0.0,2.0,2.0,288.8509016484022,2.0,1.0,phase_1,,,,,,,,,,,,,blue,cross
109.0,2.0,2.0,0.0,1.0,1.0,254.0211640298366,2.0,1.0,phase_1,,,,,,,,,,,,,magenta,hexagon
413.0,8.0,4.0,1.0,1.0,1.0,306.5713951364159,2.0,1.0,phase_1,,,,,,,,,,,,,cyan,square
404.0,8.0,4.0,1.0,4.0,4.0,318.9023043960333,2.0,1.0,phase_1,,,,,,,,,,,,,cyan,square
76.0,6.0,2.0,1.0,2.0,2.0,315.7218024134636,2.0,1.0,phase_1,,,,,,,,,,,,,orange,triangle
55.0,5.0,1.0,1.0,4.0,4.0,281.6651556640863,2.0,1.0,phase_1,,,,,,,,,,,,,yellow,I
101.0,6.0,2.0,1.0,4.0,4.0,318.8992282375693,2.0,1.0,phase_1,,,,,,,,,,,,,orange,triangle
404.0,8.0,4.0,1.0,2.0,2.0,301.9226538017392,2.0,2.0,phase_1,,,,,,,,,,,,,cyan,square
69.0,1.0,1.0,0.0,3.0,3.0,370.77915109694,2.0,1.0,phase_1,,,,,,,,,,,,,blue,cross
211.0,3.0,3.0,0.0,4.0,4.0,294.5309923961758,2.0,1.0,phase_1,,,,,,,,,,,,,gray,circle
102.0,2.0,2.0,0.0,4.0,4.0,274.4661653414368,2.0,1.0,phase_1,,,,,,,,,,,,,magenta,hexagon
84.0,6.0,2.0,1.0,3.0,3.0,319.0177958458662,2.0,1.0,phase_1,,,,,,,,,,,,,orange,triangle
112.0,6.0,2.0,1.0,2.0,2.0,294.0107183530926,2.0,1.0,phase_1,,,,,,,,,,,,,orange,triangle
413.0,4.0,4.0,0.0,2.0,2.0,283.5588399320841,2.0,1.0,phase_1,,,,,,,,,,,,,green,flipped triangle
389.0,8.0,4.0,1.0,3.0,3.0,318.9010303467512,2.0,1.0,phase_1,,,,,,,,,,,,,cyan,square
35.0,1.0,1.0,0.0,1.0,1.0,283.9043969288468,2.0,1.0,phase_1,,,,,,,,,,,,,blue,cross
193.0,7.0,3.0,1.0,4.0,4.0,287.0642784982919,2.0,1.0,phase_1,,,,,,,,,,,,,white,diamond
95.0,6.0,2.0,1.0,4.0,4.0,278.9749801158905,2.0,1.0,phase_1,,,,,,,,,,,,,orange,triangle
34.0,1.0,1.0,0.0,3.0,3.0,298.5857957974076,2.0,1.0,phase_1,,,,,,,,,,,,,blue,cross
0.0,5.0,0.0,1.0,1.0,1.0,302.3984199389815,2.0,1.0,phase_1,,,,,,,,,,,,,yellow,I
183.0,7.0,3.0,1.0,4.0,4.0,356.2664408236742,2.0,1.0,phase_1,,,,,,,,,,,,,white,diamond
0.0,6.0,0.0,1.0,4.0,4.0,303.6439260467887,2.0,1.0,phase_1,,,,,,,,,,,,,orange,triangle
377.0,4.0,4.0,0.0,4.0,4.0,306.5366707742214,2.0,1.0,phase_1,,,,,,,,,,,,,green,flipped triangle
85.0,6.0,2.0,1.0,4.0,4.0,279.0938271209597,2.0,1.0,phase_1,,,,,,,,,,,,,orange,triangle
410.0,4.0,4.0,0.0,3.0,3.0,318.4160394594073,2.0,1.0,phase_1,,,,,,,,,,,,,green,flipped triangle
213.0,3.0,3.0,0.0,4.0,4.0,273.7602246925235,2.0,1.0,phase_1,,,,,,,,,,,,,gray,circle
180.0,3.0,3.0,0.0,2.0,2.0,294.1227685660124,3.0,1.0,phase_1,,,,,,,,,,,,,gray,circle
387.0,4.0,4.0,0.0,3.0,3.0,256.4657079055905,3.0,1.0,phase_1,,,,,,,,,,,,,green,flipped triangle
382.0,4.0,4.0,0.0,3.0,3.0,263.2222380489111,3.0,1.0,phase_1,,,,,,,,,,,,,green,flipped triangle
0.0,7.0,0.0,1.0,1.0,1.0,265.8303873613477,3.0,1.0,phase_1,,,,,,,,,,,,,white,diamond
388.0,4.0,4.0,0.0,3.0,3.0,274.4434373453259,3.0,1.0,phase_1,,,,,,,,,,,,,green,flipped triangle
0.0,1.0,0.0,0.0,4.0,4.0,262.284298427403,3.0,1.0,phase_1,,,,,,,,,,,,,blue,cross
72.0,1.0,1.0,0.0,2.0,2.0,265.7138677313924,3.0,1.0,phase_1,,,,,,,,,,,,,blue,cross
195.0,3.0,3.0,0.0,1.0,1.0,343.6659974977374,3.0,1.0,phase_1,,,,,,,,,,,,,gray,circle
0.0,8.0,0.0,1.0,3.0,3.0,355.8550290763378,3.0,1.0,phase_1,,,,,,,,,,,,,cyan,square
35.0,1.0,1.0,0.0,4.0,4.0,239.6678924560547,3.0,1.0,phase_1,,,,,,,,,,,,,blue,cross
48.0,5.0,1.0,1.0,1.0,1.0,267.3144349828362,3.0,1.0,phase_1,,,,,,,,,,,,,yellow,I
187.0,7.0,3.0,1.0,2.0,2.0,287.3429041355848,3.0,1.0,phase_1,,,,,,,,,,,,,white,diamond
187.0,3.0,3.0,0.0,3.0,3.0,327.1156223490834,3.0,1.0,phase_1,,,,,,,,,,,,,gray,circle
120.0,2.0,2.0,0.0,1.0,1.0,250.08948985487223,3.0,1.0,phase_1,,,,,,,,,,,,,magenta,hexagon
104.0,6.0,2.0,1.0,2.0,2.0,262.2428620234132,3.0,1.0,phase_1,,,,,,,,,,,,,orange,triangle
215.0,3.0,3.0,0.0,3.0,3.0,273.9145280793309,3.0,1.0,phase_1,,,,,,,,,,,,,gray,circle
74.0,1.0,1.0,0.0,2.0,2.0,258.1057772040367,3.0,1.0,phase_1,,,,,,,,,,,,,blue,cross
0.0,4.0,0.0,0.0,2.0,2.0,286.453265696764,3.0,1.0,phase_1,,,,,,,,,,,,,green,flipped triangle
0.0,4.0,0.0,0.0,4.0,4.0,296.1591463536024,3.0,1.0,phase_1,,,,,,,,,,,,,green,flipped triangle
47.0,1.0,1.0,0.0,1.0,1.0,255.1231710240245,3.0,1.0,phase_1,,,,,,,,,,,,,blue,cross
193.0,3.0,3.0,0.0,3.0,3.0,306.44788406789297,3.0,1.0,phase_1,,,,,,,,,,,,,gray,circle
210.0,3.0,3.0,0.0,2.0,2.0,249.8163543641567,3.0,1.0,phase_1,,,,,,,,,,,,,gray,circle
189.0,7.0,3.0,1.0,4.0,4.0,253.55457235127687,3.0,1.0,phase_1,,,,,,,,,,,,,white,diamond
118.0,2.0,2.0,0.0,2.0,2.0,281.9190826267004,3.0,1.0,phase_1,,,,,,,,,,,,,magenta,hexagon
26.0,5.0,1.0,1.0,3.0,3.0,270.4180600121617,3.0,1.0,phase_1,,,,,,,,,,,,,yellow,I
73.0,5.0,1.0,1.0,2.0,2.0,249.2085127159953,3.0,1.0,phase_1,,,,,,,,,,,,,yellow,I
395.0,8.0,4.0,1.0,1.0,1.0,327.1792475134134,3.0,1.0,phase_1,,,,,,,,,,,,,cyan,square
389.0,4.0,4.0,0.0,2.0,2.0,274.0465942770242,3.0,1.0,phase_1,,,,,,,,,,,,,green,flipped triangle
377.0,4.0,4.0,0.0,2.0,2.0,306.3843110576272,3.0,1.0,phase_1,,,,,,,,,,,,,green,flipped triangle
39.0,1.0,1.0,0.0,4.0,4.0,318.8951928168535,3.0,1.0,phase_1,,,,,,,,,,,,,blue,cross
39.0,5.0,1.0,1.0,2.0,2.0,327.8981177136302,3.0,1.0,phase_1,,,,,,,,,,,,,yellow,I
209.0,3.0,3.0,0.0,2.0,2.0,269.726475700736,3.0,1.0,phase_1,,,,,,,,,,,,,gray,circle
81.0,6.0,2.0,1.0,1.0,1.0,290.2795011177659,3.0,1.0,phase_1,,,,,,,,,,,,,orange,triangle
393.0,8.0,4.0,1.0,3.0,3.0,295.3883670270443,3.0,1.0,phase_1,,,,,,,,,,,,,cyan,square
0.0,5.0,0.0,1.0,2.0,2.0,303.1149562448263,3.0,1.0,phase_1,,,,,,,,,,,,,yellow,I
201.0,3.0,3.0,0.0,3.0,3.0,332.0740833878517,3.0,1.0,phase_1,,,,,,,,,,,,,gray,circle
221.0,7.0,3.0,1.0,1.0,1.0,270.6034472212195,3.0,1.0,phase_1,,,,,,,,,,,,,white,diamond
0.0,5.0,0.0,1.0,1.0,1.0,292.7451003342867,3.0,1.0,phase_1,,,,,,,,,,,,,yellow,I
394.0,8.0,4.0,1.0,3.0,3.0,319.5285182446241,3.0,1.0,phase_1,,,,,,,,,,,,,cyan,square
424.0,4.0,4.0,0.0,3.0,3.0,356.8849749863148,3.0,1.0,phase_1,,,,,,,,,,,,,green,flipped triangle
419.0,4.0,4.0,0.0,1.0,1.0,273.9422554150224,3.0,1.0,phase_1,,,,,,,,,,,,,green,flipped triangle
407.0,4.0,4.0,0.0,3.0,3.0,353.3820519223809,3.0,2.0,phase_1,,,,,,,,,,,,,green,flipped triangle
0.0,6.0,0.0,1.0,4.0,4.0,312.4083233997226,3.0,1.0,phase_1,,,,,,,,,,,,,orange,triangle
208.0,3.0,3.0,0.0,3.0,3.0,300.0269755721092,3.0,1.0,phase_1,,,,,,,,,,,,,gray,circle
382.0,8.0,4.0,1.0,4.0,4.0,266.353934071958,3.0,1.0,phase_1,,,,,,,,,,,,,cyan,square
94.0,2.0,2.0,0.0,3.0,3.0,308.0968922004103,3.0,1.0,phase_1,,,,,,,,,,,,,magenta,hexagon
63.0,5.0,1.0,1.0,1.0,1.0,295.8012158051133,3.0,1.0,phase_1,,,,,,,,,,,,,yellow,I
410.0,8.0,4.0,1.0,1.0,1.0,286.5710407495498,3.0,1.0,phase_1,,,,,,,,,,,,,cyan,square
58.0,1.0,1.0,0.0,1.0,1.0,282.1950390934944,3.0,1.0,phase_1,,,,,,,,,,,,,blue,cross
222.0,3.0,3.0,0.0,1.0,1.0,336.0061245039105,3.0,1.0,phase_1,,,,,,,,,,,,,gray,circle
0.0,5.0,0.0,1.0,2.0,2.0,398.7819543108344,3.0,1.0,phase_1,,,,,,,,,,,,,yellow,I
392.0,8.0,4.0,1.0,2.0,2.0,306.4894648268819,3.0,1.0,phase_1,,,,,,,,,,,,,cyan,square
0.0,6.0,0.0,1.0,1.0,1.0,310.1165993139148,3.0,1.0,phase_1,,,,,,,,,,,,,orange,triangle
53.0,1.0,1.0,0.0,2.0,2.0,348.2047542929649,3.0,1.0,phase_1,,,,,,,,,,,,,blue,cross
35.0,5.0,1.0,1.0,4.0,4.0,485.6645222753286,3.0,1.0,phase_1,,,,,,,,,,,,,yellow,I
387.0,8.0,4.0,1.0,1.0,1.0,314.3383273854852,3.0,1.0,phase_1,,,,,,,,,,,,,cyan,square
0.0,2.0,0.0,0.0,3.0,3.0,311.7460384964943,3.0,1.0,phase_1,,,,,,,,,,,,,magenta,hexagon
49.0,1.0,1.0,0.0,4.0,4.0,356.507477350533,3.0,1.0,phase_1,,,,,,,,,,,,,blue,cross
183.0,3.0,3.0,0.0,1.0,1.0,416.6676523163914,3.0,1.0,phase_1,,,,,,,,,,,,,gray,circle
177.0,7.0,3.0,1.0,2.0,2.0,341.1918496713042,3.0,1.0,phase_1,,,,,,,,,,,,,white,diamond
107.0,6.0,2.0,1.0,4.0,4.0,300.3130825236439,3.0,1.0,phase_1,,,,,,,,,,,,,orange,triangle
212.0,7.0,3.0,1.0,2.0,2.0,287.5082055106759,3.0,1.0,phase_1,,,,,,,,,,,,,white,diamond
382.0,8.0,4.0,1.0,4.0,4.0,340.7653616741299,3.0,1.0,phase_1,,,,,,,,,,,,,cyan,square
106.0,2.0,2.0,0.0,3.0,3.0,425.6452685222029,3.0,1.0,phase_1,,,,,,,,,,,,,magenta,hexagon
191.0,3.0,3.0,0.0,4.0,4.0,328.1617239117622,3.0,1.0,phase_1,,,,,,,,,,,,,gray,circle
103.0,2.0,2.0,0.0,4.0,4.0,307.2555819526315,3.0,1.0,phase_1,,,,,,,,,,,,,magenta,hexagon
77.0,6.0,2.0,1.0,3.0,3.0,397.7282913401723,3.0,1.0,phase_1,,,,,,,,,,,,,orange,triangle
0.0,5.0,0.0,1.0,2.0,2.0,322.7161988615989,3.0,1.0,phase_1,,,,,,,,,,,,,yellow,I
377.0,8.0,4.0,1.0,4.0,4.0,306.6339725628495,3.0,1.0,phase_1,,,,,,,,,,,,,cyan,square
396.0,4.0,4.0,0.0,3.0,3.0,379.8965839669108,3.0,1.0,phase_1,,,,,,,,,,,,,green,flipped triangle
375.0,8.0,4.0,1.0,3.0,3.0,320.8332993090153,3.0,1.0,phase_1,,,,,,,,,,,,,cyan,square
0.0,8.0,0.0,1.0,2.0,2.0,360.6261508539319,3.0,1.0,phase_1,,,,,,,,,,,,,cyan,square
0.0,6.0,0.0,1.0,1.0,1.0,394.0078830346465,3.0,1.0,phase_1,,,,,,,,,,,,,orange,triangle
0.0,3.0,0.0,0.0,4.0,4.0,318.7515651807189,3.0,1.0,phase_1,,,,,,,,,,,,,gray,circle
381.0,8.0,4.0,1.0,3.0,3.0,315.2665058150887,3.0,1.0,phase_1,,,,,,,,,,,,,cyan,square
0.0,3.0,0.0,0.0,4.0,4.0,299.5805675163865,3.0,1.0,phase_1,,,,,,,,,,,,,gray,circle
112.0,2.0,2.0,0.0,1.0,1.0,344.3717062473297,3.0,1.0,phase_1,,,,,,,,,,,,,magenta,hexagon
212.0,3.0,3.0,0.0,4.0,4.0,291.3723876699805,3.0,1.0,phase_1,,,,,,,,,,,,,gray,circle
391.0,8.0,4.0,1.0,3.0,3.0,350.7714392617345,3.0,1.0,phase_1,,,,,,,,,,,,,cyan,square
41.0,1.0,1.0,0.0,4.0,4.0,334.5659263432026,3.0,1.0,phase_1,,,,,,,,,,,,,blue,cross
211.0,7.0,3.0,1.0,4.0,4.0,327.5812957435846,3.0,1.0,phase_1,,,,,,,,,,,,,white,diamond
180.0,7.0,3.0,1.0,2.0,2.0,373.0611307546496,3.0,1.0,phase_1,,,,,,,,,,,,,white,diamond
176.0,3.0,3.0,0.0,4.0,4.0,290.6327834352851,3.0,1.0,phase_1,,,,,,,,,,,,,gray,circle
210.0,7.0,3.0,1.0,3.0,3.0,359.3595642596483,3.0,1.0,phase_1,,,,,,,,,,,,,white,diamond
407.0,4.0,4.0,0.0,4.0,4.0,290.2789488434791,3.0,1.0,phase_1,,,,,,,,,,,,,green,flipped triangle
218.0,7.0,3.0,1.0,3.0,3.0,321.0780406370759,3.0,1.0,phase_1,,,,,,,,,,,,,white,diamond
0.0,1.0,0.0,0.0,2.0,2.0,382.8404024243355,3.0,1.0,phase_1,,,,,,,,,,,,,blue,cross
0.0,1.0,0.0,0.0,3.0,3.0,352.3163059726357,3.0,1.0,phase_1,,,,,,,,,,,,,blue,cross
62.0,5.0,1.0,1.0,1.0,1.0,295.7801586017012,3.0,1.0,phase_1,,,,,,,,,,,,,yellow,I
38.0,1.0,1.0,0.0,4.0,4.0,413.7930767610669,3.0,1.0,phase_1,,,,,,,,,,,,,blue,cross
419.0,8.0,4.0,1.0,1.0,1.0,318.9767245203256,3.0,1.0,phase_1,,,,,,,,,,,,,cyan,square
76.0,2.0,2.0,0.0,1.0,1.0,290.764863602817,3.0,1.0,phase_1,,,,,,,,,,,,,magenta,hexagon
196.0,3.0,3.0,0.0,1.0,1.0,291.2528719753027,3.0,1.0,phase_1,,,,,,,,,,,,,gray,circle
392.0,4.0,4.0,0.0,2.0,2.0,349.3079179897904,3.0,1.0,phase_1,,,,,,,,,,,,,green,flipped triangle
411.0,4.0,4.0,0.0,3.0,3.0,333.1616465002298,3.0,1.0,phase_1,,,,,,,,,,,,,green,flipped triangle
221.0,7.0,3.0,1.0,3.0,3.0,430.5733293294906,3.0,1.0,phase_1,,,,,,,,,,,,,white,diamond
77.0,2.0,2.0,0.0,1.0,1.0,373.2950976118445,3.0,1.0,phase_1,,,,,,,,,,,,,magenta,hexagon
424.0,8.0,4.0,1.0,2.0,2.0,312.8138743340969,3.0,1.0,phase_1,,,,,,,,,,,,,cyan,square
28.0,1.0,1.0,0.0,3.0,3.0,304.0711106732487,3.0,1.0,phase_1,,,,,,,,,,,,,blue,cross
97.0,6.0,2.0,1.0,4.0,4.0,284.0249147266149,3.0,1.0,phase_1,,,,,,,,,,,,,orange,triangle
0.0,5.0,0.0,1.0,1.0,1.0,373.7321747466922,4.0,1.0,phase_1,,,,,,,,,,,,,yellow,I
113.0,2.0,2.0,0.0,4.0,4.0,346.7098884284496,4.0,1.0,phase_1,,,,,,,,,,,,,magenta,hexagon
93.0,2.0,2.0,0.0,4.0,4.0,279.0481047704816,4.0,1.0,phase_1,,,,,,,,,,,,,magenta,hexagon
36.0,5.0,1.0,1.0,3.0,3.0,297.7843163534999,4.0,1.0,phase_1,,,,,,,,,,,,,yellow,I
93.0,6.0,2.0,1.0,2.0,2.0,312.7113990485668,4.0,1.0,phase_1,,,,,,,,,,,,,orange,triangle
195.0,7.0,3.0,1.0,1.0,1.0,270.2452000230551,4.0,1.0,phase_1,,,,,,,,,,,,,white,diamond
391.0,4.0,4.0,0.0,1.0,1.0,297.0720799639821,4.0,1.0,phase_1,,,,,,,,,,,,,green,flipped triangle
0.0,3.0,0.0,0.0,4.0,4.0,311.6277009248733,4.0,1.0,phase_1,,,,,,,,,,,,,gray,circle
213.0,7.0,3.0,1.0,4.0,4.0,314.724518917501,4.0,1.0,phase_1,,,,,,,,,,,,,white,diamond
45.0,5.0,1.0,1.0,3.0,3.0,405.4577397182584,4.0,1.0,phase_1,,,,,,,,,,,,,yellow,I
0.0,7.0,0.0,1.0,3.0,3.0,433.8022079318762,4.0,1.0,phase_1,,,,,,,,,,,,,white,diamond
0.0,1.0,0.0,0.0,3.0,3.0,327.5312697514891,4.0,1.0,phase_1,,,,,,,,,,,,,blue,cross
77.0,2.0,2.0,0.0,2.0,2.0,429.8340873792767,4.0,1.0,phase_1,,,,,,,,,,,,,magenta,hexagon
391.0,4.0,4.0,0.0,1.0,1.0,299.75623916834587,4.0,1.0,phase_1,,,,,,,,,,,,,green,flipped triangle
69.0,1.0,1.0,0.0,3.0,3.0,308.7026039138436,4.0,1.0,phase_1,,,,,,,,,,,,,blue,cross
124.0,6.0,2.0,1.0,2.0,2.0,361.8440227583051,4.0,1.0,phase_1,,,,,,,,,,,,,orange,triangle
378.0,4.0,4.0,0.0,3.0,3.0,321.9881989061832,4.0,1.0,phase_1,,,,,,,,,,,,,green,flipped triangle
0.0,8.0,0.0,1.0,3.0,3.0,357.6297638937831,4.0,1.0,phase_1,,,,,,,,,,,,,cyan,square
0.0,2.0,0.0,0.0,4.0,4.0,337.6744529232383,4.0,1.0,phase_1,,,,,,,,,,,,,magenta,hexagon
118.0,6.0,2.0,1.0,1.0,1.0,317.5494633615017,4.0,1.0,phase_1,,,,,,,,,,,,,orange,triangle
76.0,2.0,2.0,0.0,2.0,2.0,329.4707015156746,4.0,1.0,phase_1,,,,,,,,,,,,,magenta,hexagon
0.0,6.0,0.0,1.0,3.0,3.0,349.3220023810863,4.0,1.0,phase_1,,,,,,,,,,,,,orange,triangle
82.0,2.0,2.0,0.0,1.0,1.0,315.4739858582616,4.0,1.0,phase_1,,,,,,,,,,,,,magenta,hexagon
0.0,8.0,0.0,1.0,3.0,3.0,311.5267977118492,4.0,1.0,phase_1,,,,,,,,,,,,,cyan,square
209.0,7.0,3.0,1.0,3.0,3.0,335.468434728682,4.0,1.0,phase_1,,,,,,,,,,,,,white,diamond
102.0,6.0,2.0,1.0,4.0,4.0,312.9572970792651,4.0,1.0,phase_1,,,,,,,,,,,,,orange,triangle
124.0,2.0,2.0,0.0,2.0,2.0,422.3033180460334,4.0,1.0,phase_1,,,,,,,,,,,,,magenta,hexagon
81.0,6.0,2.0,1.0,1.0,1.0,316.2898691371083,4.0,1.0,phase_1,,,,,,,,,,,,,orange,triangle
416.0,4.0,4.0,0.0,2.0,2.0,352.8901236131787,4.0,1.0,phase_1,,,,,,,,,,,,,green,flipped triangle
177.0,3.0,3.0,0.0,3.0,3.0,340.8358749002218,4.0,1.0,phase_1,,,,,,,,,,,,,gray,circle
0.0,1.0,0.0,0.0,3.0,3.0,327.9952770099044,4.0,1.0,phase_1,,,,,,,,,,,,,blue,cross
397.0,8.0,4.0,1.0,1.0,1.0,303.279978223145,4.0,1.0,phase_1,,,,,,,,,,,,,cyan,square
407.0,8.0,4.0,1.0,2.0,2.0,369.0182752907276,4.0,1.0,phase_1,,,,,,,,,,,,,cyan,square
106.0,6.0,2.0,1.0,1.0,1.0,303.4055233001709,4.0,1.0,phase_1,,,,,,,,,,,,,orange,triangle
0.0,4.0,0.0,0.0,2.0,2.0,315.4379073530435,4.0,1.0,phase_1,,,,,,,,,,,,,green,flipped triangle
64.0,5.0,1.0,1.0,4.0,4.0,361.6345459595322,4.0,1.0,phase_1,,,,,,,,,,,,,yellow,I
0.0,8.0,0.0,1.0,2.0,2.0,349.2745282128453,4.0,1.0,phase_1,,,,,,,,,,,,,cyan,square
74.0,5.0,1.0,1.0,4.0,4.0,344.3645788356662,4.0,1.0,phase_1,,,,,,,,,,,,,yellow,I
0.0,7.0,0.0,1.0,3.0,3.0,369.2473489791155,4.0,1.0,phase_1,,,,,,,,,,,,,white,diamond
421.0,8.0,4.0,1.0,4.0,4.0,347.8434905409813,4.0,1.0,phase_1,,,,,,,,,,,,,cyan,square
221.0,3.0,3.0,0.0,4.0,4.0,321.2308725342154,4.0,1.0,phase_1,,,,,,,,,,,,,gray,circle
74.0,5.0,1.0,1.0,4.0,4.0,286.6812786087394,4.0,1.0,phase_1,,,,,,,,,,,,,yellow,I
190.0,3.0,3.0,0.0,2.0,2.0,386.6898799315095,4.0,1.0,phase_1,,,,,,,,,,,,,gray,circle
61.0,5.0,1.0,1.0,1.0,1.0,366.2920603528619,4.0,1.0,phase_1,,,,,,,,,,,,,yellow,I
387.0,4.0,4.0,0.0,1.0,1.0,314.540596678853,4.0,1.0,phase_1,,,,,,,,,,,,,green,flipped triangle
201.0,7.0,3.0,1.0,2.0,2.0,399.335527792573,4.0,1.0,phase_1,,,,,,,,,,,,,white,diamond
0.0,3.0,0.0,0.0,2.0,2.0,451.5171675011515,4.0,1.0,phase_1,,,,,,,,,,,,,gray,circle
33.0,5.0,1.0,1.0,4.0,4.0,387.2107518836856,4.0,1.0,phase_1,,,,,,,,,,,,,yellow,I
107.0,2.0,2.0,0.0,4.0,4.0,349.2828933522105,4.0,1.0,phase_1,,,,,,,,,,,,,magenta,hexagon
0.0,1.0,0.0,0.0,1.0,1.0,328.6145254969597,4.0,1.0,phase_1,,,,,,,,,,,,,blue,cross
218.0,7.0,3.0,1.0,3.0,3.0,341.4129381999373,4.0,1.0,phase_1,,,,,,,,,,,,,white,diamond
378.0,8.0,4.0,1.0,2.0,2.0,317.590462975204,4.0,1.0,phase_1,,,,,,,,,,,,,cyan,square
49.0,5.0,1.0,1.0,4.0,4.0,313.0428604781627,4.0,1.0,phase_1,,,,,,,,,,,,,yellow,I
97.0,2.0,2.0,0.0,4.0,4.0,316.1461055278778,4.0,1.0,phase_1,,,,,,,,,,,,,magenta,hexagon
55.0,1.0,1.0,0.0,4.0,4.0,328.232497908175,4.0,1.0,phase_1,,,,,,,,,,,,,blue,cross
109.0,6.0,2.0,1.0,3.0,3.0,365.6000019982457,4.0,1.0,phase_1,,,,,,,,,,,,,orange,triangle
413.0,8.0,4.0,1.0,2.0,2.0,402.4751223623752,4.0,1.0,phase_1,,,,,,,,,,,,,cyan,square
421.0,8.0,4.0,1.0,2.0,2.0,334.7804388031363,4.0,1.0,phase_1,,,,,,,,,,,,,cyan,square
76.0,6.0,2.0,1.0,2.0,2.0,339.8704715073108,4.0,1.0,phase_1,,,,,,,,,,,,,orange,triangle
77.0,2.0,2.0,0.0,3.0,3.0,352.0714128389954,4.0,1.0,phase_1,,,,,,,,,,,,,magenta,hexagon
0.0,6.0,0.0,1.0,4.0,4.0,389.15038947016,4.0,1.0,phase_1,,,,,,,,,,,,,orange,triangle
407.0,4.0,4.0,0.0,1.0,1.0,340.7299509271979,4.0,1.0,phase_1,,,,,,,,,,,,,green,flipped triangle
117.0,6.0,2.0,1.0,2.0,2.0,383.1503828987479,4.0,1.0,phase_1,,,,,,,,,,,,,orange,triangle
0.0,8.0,0.0,1.0,3.0,3.0,365.5375307425856,4.0,1.0,phase_1,,,,,,,,,,,,,cyan,square
0.0,7.0,0.0,1.0,2.0,2.0,342.7373617887497,4.0,1.0,phase_1,,,,,,,,,,,,,white,diamond
73.0,1.0,1.0,0.0,3.0,3.0,342.0665748417377,4.0,1.0,phase_1,,,,,,,,,,,,,blue,cross
0.0,2.0,0.0,0.0,4.0,4.0,384.1044409200549,4.0,1.0,phase_1,,,,,,,,,,,,,magenta,hexagon
389.0,4.0,4.0,0.0,1.0,1.0,296.8623153865337,4.0,1.0,phase_1,,,,,,,,,,,,,green,flipped triangle
191.0,7.0,3.0,1.0,4.0,4.0,317.7659008651972,4.0,1.0,phase_1,,,,,,,,,,,,,white,diamond
42.0,1.0,1.0,0.0,2.0,2.0,456.4284738153219,4.0,1.0,phase_1,,,,,,,,,,,,,blue,cross
121.0,6.0,2.0,1.0,1.0,1.0,294.9353149160743,4.0,1.0,phase_1,,,,,,,,,,,,,orange,triangle
0.0,5.0,0.0,1.0,3.0,3.0,274.9771364033222,4.0,1.0,phase_1,,,,,,,,,,,,,yellow,I
120.0,6.0,2.0,1.0,1.0,1.0,308.2554927095771,4.0,1.0,phase_1,,,,,,,,,,,,,orange,triangle
187.0,7.0,3.0,1.0,2.0,2.0,360.5817528441548,4.0,1.0,phase_1,,,,,,,,,,,,,white,diamond
377.0,8.0,4.0,1.0,1.0,1.0,336.3407328724861,4.0,1.0,phase_1,,,,,,,,,,,,,cyan,square
35.0,5.0,1.0,1.0,3.0,3.0,362.5798374414444,4.0,1.0,phase_1,,,,,,,,,,,,,yellow,I
45.0,1.0,1.0,0.0,2.0,2.0,343.1633235886693,4.0,1.0,phase_1,,,,,,,,,,,,,blue,cross
55.0,1.0,1.0,0.0,3.0,3.0,407.0527991279959,4.0,1.0,phase_1,,,,,,,,,,,,,blue,cross
53.0,5.0,1.0,1.0,2.0,2.0,267.2876464203,4.0,1.0,phase_1,,,,,,,,,,,,,yellow,I
30.0,5.0,1.0,1.0,3.0,3.0,288.2371842861175,4.0,1.0,phase_1,,,,,,,,,,,,,yellow,I
220.0,7.0,3.0,1.0,2.0,2.0,308.2927046343684,4.0,1.0,phase_1,,,,,,,,,,,,,white,diamond
398.0,8.0,4.0,1.0,4.0,4.0,337.8263497725129,4.0,1.0,phase_1,,,,,,,,,,,,,cyan,square
118.0,2.0,2.0,0.0,3.0,3.0,299.3294671177864,4.0,1.0,phase_1,,,,,,,,,,,,,magenta,hexagon
192.0,7.0,3.0,1.0,4.0,4.0,328.777227550745,4.0,1.0,phase_1,,,,,,,,,,,,,white,diamond
104.0,2.0,2.0,0.0,1.0,1.0,325.18230099231,4.0,1.0,phase_1,,,,,,,,,,,,,magenta,hexagon
192.0,3.0,3.0,0.0,4.0,4.0,315.80591481179,4.0,1.0,phase_1,,,,,,,,,,,,,gray,circle
405.0,8.0,4.0,1.0,2.0,2.0,320.0593711808324,4.0,1.0,phase_1,,,,,,,,,,,,,cyan,square
381.0,4.0,4.0,0.0,2.0,2.0,379.4543044641614,4.0,1.0,phase_1,,,,,,,,,,,,,green,flipped triangle
213.0,3.0,3.0,0.0,2.0,2.0,344.3998713046312,4.0,1.0,phase_1,,,,,,,,,,,,,gray,circle
0.0,1.0,0.0,0.0,4.0,4.0,333.6064163595438,4.0,1.0,phase_1,,,,,,,,,,,,,blue,cross
95.0,6.0,2.0,1.0,1.0,1.0,299.5965247973799,4.0,1.0,phase_1,,,,,,,,,,,,,orange,triangle
0.0,2.0,0.0,0.0,1.0,1.0,311.4985581487417,4.0,1.0,phase_1,,,,,,,,,,,,,magenta,hexagon
26.0,1.0,1.0,0.0,1.0,1.0,299.0073403343558,4.0,1.0,phase_1,,,,,,,,,,,,,blue,cross
0.0,1.0,0.0,0.0,4.0,4.0,303.6995530128479,4.0,1.0,phase_1,,,,,,,,,,,,,blue,cross
106.0,2.0,2.0,0.0,1.0,1.0,287.0120303705334,4.0,1.0,phase_1,,,,,,,,,,,,,magenta,hexagon
0.0,4.0,0.0,0.0,3.0,3.0,360.5527486652136,4.0,1.0,phase_1,,,,,,,,,,,,,green,flipped triangle
0.0,3.0,0.0,0.0,3.0,3.0,374.5764289051294,4.0,1.0,phase_1,,,,,,,,,,,,,gray,circle
423.0,8.0,4.0,1.0,4.0,4.0,353.4749802201986,4.0,1.0,phase_1,,,,,,,,,,,,,cyan,square
121.0,2.0,2.0,0.0,3.0,3.0,311.1555874347687,4.0,1.0,phase_1,,,,,,,,,,,,,magenta,hexagon
85.0,6.0,2.0,1.0,4.0,4.0,315.4536811634898,4.0,1.0,phase_1,,,,,,,,,,,,,orange,triangle
0.0,6.0,2.0,1.0,6.0,6.0,414.8208796977997,1.0,1.0,phase_2,go,250.0,250.0,1.0,,,,,,,,,orange,triangle
0.0,7.0,3.0,1.0,5.0,5.0,513.7024112045765,1.0,1.0,phase_2,stop,250.0,250.0,3.0,,,,,,,,,white,diamond
0.0,1.0,1.0,0.0,6.0,6.0,383.9304838329553,1.0,1.0,phase_2,go,200.0,250.0,1.0,,,,,,,,,blue,cross
0.0,1.0,1.0,0.0,5.0,5.0,477.6112902909517,1.0,1.0,phase_2,go,200.0,250.0,1.0,,,,,,,,,blue,cross
0.0,8.0,4.0,1.0,6.0,0.0,0.0,1.0,1.0,phase_2,stop,200.0,250.0,4.0,,,,,,,,,cyan,square
0.0,6.0,2.0,1.0,6.0,6.0,366.873238235712,1.0,1.0,phase_2,stop,200.0,300.0,3.0,,,,,,,,,orange,triangle
0.0,5.0,1.0,1.0,5.0,0.0,0.0,1.0,1.0,phase_2,stop,200.0,250.0,4.0,,,,,,,,,yellow,I
0.0,1.0,1.0,0.0,6.0,6.0,467.5693521276116,1.0,1.0,phase_2,go,250.0,250.0,1.0,,,,,,,,,blue,cross
0.0,1.0,1.0,0.0,5.0,5.0,635.1390080526471,1.0,1.0,phase_2,go,250.0,250.0,1.0,,,,,,,,,blue,cross
0.0,6.0,2.0,1.0,5.0,0.0,0.0,1.0,1.0,phase_2,stop,250.0,250.0,4.0,,,,,,,,,orange,triangle
0.0,6.0,2.0,1.0,5.0,5.0,596.3888186961412,1.0,1.0,phase_2,go,300.0,250.0,1.0,,,,,,,,,orange,triangle
0.0,1.0,1.0,0.0,5.0,5.0,611.692545004189,1.0,1.0,phase_2,go,300.0,250.0,1.0,,,,,,,,,blue,cross
0.0,3.0,3.0,0.0,6.0,6.0,560.5441303923726,1.0,1.0,phase_2,go,300.0,250.0,1.0,,,,,,,,,gray,circle
0.0,7.0,3.0,1.0,5.0,5.0,384.2591270804405,1.0,1.0,phase_2,stop,300.0,250.0,3.0,,,,,,,,,white,diamond
0.0,3.0,3.0,0.0,5.0,5.0,302.672041580081,1.0,1.0,phase_2,go,250.0,250.0,1.0,,,,,,,,,gray,circle
0.0,4.0,4.0,0.0,6.0,6.0,550.6591433659196,1.0,1.0,phase_2,go,250.0,250.0,1.0,,,,,,,,,green,flipped triangle
0.0,5.0,1.0,1.0,5.0,0.0,0.0,1.0,1.0,phase_2,stop,250.0,250.0,4.0,,,,,,,,,yellow,I
0.0,3.0,3.0,0.0,5.0,5.0,487.3165749013424,1.0,1.0,phase_2,go,300.0,250.0,1.0,,,,,,,,,gray,circle
0.0,6.0,2.0,1.0,6.0,6.0,319.9694799259305,1.0,1.0,phase_2,stop,300.0,250.0,3.0,,,,,,,,,orange,triangle
0.0,3.0,3.0,0.0,6.0,6.0,604.1286159306765,1.0,1.0,phase_2,go,300.0,200.0,1.0,,,,,,,,,gray,circle
0.0,4.0,4.0,0.0,6.0,6.0,741.5930079296231,1.0,1.0,phase_2,go,300.0,200.0,1.0,,,,,,,,,green,flipped triangle
0.0,3.0,3.0,0.0,6.0,6.0,674.6558649465442,1.0,1.0,phase_2,go,300.0,200.0,1.0,,,,,,,,,gray,circle
0.0,2.0,2.0,0.0,5.0,5.0,709.6574045717716,1.0,1.0,phase_2,go,300.0,200.0,1.0,,,,,,,,,magenta,hexagon
0.0,7.0,3.0,1.0,6.0,0.0,0.0,1.0,1.0,phase_2,stop,300.0,200.0,4.0,,,,,,,,,white,diamond
0.0,3.0,3.0,0.0,5.0,5.0,604.1560517624021,1.0,1.0,phase_2,go,300.0,250.0,1.0,,,,,,,,,gray,circle
0.0,1.0,1.0,0.0,6.0,6.0,596.9800362363458,1.0,1.0,phase_2,go,300.0,250.0,1.0,,,,,,,,,blue,cross
0.0,6.0,2.0,1.0,5.0,0.0,0.0,1.0,1.0,phase_2,stop,300.0,250.0,4.0,,,,,,,,,orange,triangle
0.0,1.0,1.0,0.0,5.0,5.0,559.5682831481099,1.0,1.0,phase_2,go,350.0,250.0,1.0,,,,,,,,,blue,cross
0.0,1.0,1.0,0.0,5.0,5.0,703.7182496860623,1.0,1.0,phase_2,go,350.0,250.0,1.0,,,,,,,,,blue,cross
0.0,5.0,1.0,1.0,5.0,5.0,664.7513024508953,1.0,1.0,phase_2,go,350.0,250.0,1.0,,,,,,,,,yellow,I
0.0,7.0,3.0,1.0,6.0,6.0,705.2626498043537,1.0,1.0,phase_2,go,350.0,250.0,1.0,,,,,,,,,white,diamond
0.0,8.0,4.0,1.0,6.0,0.0,0.0,1.0,1.0,phase_2,stop,350.0,250.0,4.0,,,,,,,,,cyan,square
0.0,1.0,1.0,0.0,5.0,5.0,406.7897982895374,1.0,1.0,phase_2,go,350.0,300.0,1.0,,,,,,,,,blue,cross
0.0,7.0,3.0,1.0,5.0,0.0,0.0,1.0,1.0,phase_2,stop,350.0,300.0,4.0,,,,,,,,,white,diamond
0.0,7.0,3.0,1.0,6.0,6.0,623.2253862544894,1.0,1.0,phase_2,go,400.0,300.0,1.0,,,,,,,,,white,diamond
0.0,2.0,2.0,0.0,6.0,6.0,693.400758318603,1.0,1.0,phase_2,go,400.0,300.0,1.0,,,,,,,,,magenta,hexagon
0.0,5.0,1.0,1.0,5.0,5.0,709.3725549057126,2.0,1.0,phase_2,stop,400.0,300.0,3.0,,,,,,,,,yellow,I
0.0,5.0,1.0,1.0,6.0,0.0,0.0,2.0,1.0,phase_2,stop,350.0,300.0,4.0,,,,,,,,,yellow,I
0.0,2.0,2.0,0.0,5.0,5.0,575.1926144585013,2.0,1.0,phase_2,go,350.0,350.0,1.0,,,,,,,,,magenta,hexagon
0.0,6.0,2.0,1.0,6.0,0.0,0.0,2.0,1.0,phase_2,stop,350.0,350.0,4.0,,,,,,,,,orange,triangle
0.0,5.0,1.0,1.0,5.0,0.0,0.0,2.0,1.0,phase_2,stop,350.0,400.0,4.0,,,,,,,,,yellow,I
0.0,4.0,4.0,0.0,6.0,6.0,517.7932502701879,2.0,1.0,phase_2,go,400.0,400.0,1.0,,,,,,,,,green,flipped triangle
0.0,5.0,1.0,1.0,6.0,0.0,0.0,2.0,1.0,phase_2,stop,400.0,400.0,4.0,,,,,,,,,yellow,I
0.0,1.0,1.0,0.0,6.0,6.0,596.1476964876056,2.0,1.0,phase_2,go,400.0,450.0,1.0,,,,,,,,,blue,cross
0.0,1.0,1.0,0.0,6.0,6.0,608.4350114688277,2.0,1.0,phase_2,go,400.0,450.0,1.0,,,,,,,,,blue,cross
0.0,6.0,2.0,1.0,5.0,0.0,0.0,2.0,1.0,phase_2,stop,400.0,450.0,4.0,,,,,,,,,orange,triangle
0.0,3.0,3.0,0.0,6.0,6.0,689.6042609587312,2.0,1.0,phase_2,go,450.0,450.0,1.0,,,,,,,,,gray,circle
0.0,7.0,3.0,1.0,6.0,0.0,0.0,2.0,1.0,phase_2,stop,450.0,450.0,4.0,,,,,,,,,white,diamond
0.0,7.0,3.0,1.0,6.0,0.0,0.0,2.0,1.0,phase_2,stop,450.0,500.0,4.0,,,,,,,,,white,diamond
0.0,2.0,2.0,0.0,6.0,6.0,598.9295728504658,2.0,1.0,phase_2,go,450.0,550.0,1.0,,,,,,,,,magenta,hexagon
0.0,8.0,4.0,1.0,5.0,0.0,0.0,2.0,1.0,phase_2,stop,450.0,550.0,4.0,,,,,,,,,cyan,square
0.0,3.0,3.0,0.0,5.0,5.0,582.8223014250398,2.0,1.0,phase_2,go,500.0,550.0,1.0,,,,,,,,,gray,circle
0.0,5.0,1.0,1.0,5.0,0.0,0.0,2.0,1.0,phase_2,stop,500.0,550.0,4.0,,,,,,,,,yellow,I
0.0,5.0,1.0,1.0,5.0,5.0,727.024856954813,2.0,1.0,phase_2,go,550.0,550.0,1.0,,,,,,,,,yellow,I
0.0,5.0,1.0,1.0,6.0,6.0,597.1885714679956,2.0,1.0,phase_2,stop,550.0,550.0,3.0,,,,,,,,,yellow,I
0.0,3.0,3.0,0.0,6.0,6.0,853.7674071267247,2.0,1.0,phase_2,go,550.0,500.0,1.0,,,,,,,,,gray,circle
0.0,1.0,1.0,0.0,5.0,5.0,821.2477145716548,2.0,1.0,phase_2,go,550.0,500.0,1.0,,,,,,,,,blue,cross
0.0,8.0,4.0,1.0,6.0,0.0,0.0,2.0,1.0,phase_2,stop,550.0,500.0,4.0,,,,,,,,,cyan,square
0.0,4.0,4.0,0.0,6.0,6.0,777.5812717154622,2.0,1.0,phase_2,go,550.0,550.0,1.0,,,,,,,,,green,flipped triangle
0.0,6.0,2.0,1.0,6.0,0.0,0.0,2.0,1.0,phase_2,stop,550.0,550.0,4.0,,,,,,,,,orange,triangle
0.0,4.0,4.0,0.0,5.0,5.0,719.0448855981231,2.0,1.0,phase_2,go,550.0,600.0,1.0,,,,,,,,,green,flipped triangle
0.0,3.0,3.0,0.0,6.0,6.0,769.8842668905854,2.0,1.0,phase_2,go,550.0,600.0,1.0,,,,,,,,,gray,circle
0.0,4.0,4.0,0.0,6.0,6.0,881.0112830251455,2.0,1.0,phase_2,go,550.0,600.0,1.0,,,,,,,,,green,flipped triangle
0.0,6.0,2.0,1.0,6.0,0.0,0.0,2.0,1.0,phase_2,stop,550.0,600.0,4.0,,,,,,,,,orange,triangle
0.0,7.0,3.0,1.0,6.0,6.0,734.8764501512051,2.0,1.0,phase_2,stop,550.0,650.0,3.0,,,,,,,,,white,diamond
0.0,4.0,4.0,0.0,6.0,6.0,1069.049945101142,2.0,1.0,phase_2,go,550.0,600.0,1.0,,,,,,,,,green,flipped triangle
0.0,7.0,3.0,1.0,5.0,5.0,1052.8558297082782,2.0,1.0,phase_2,go,550.0,600.0,1.0,,,,,,,,,white,diamond
0.0,7.0,3.0,1.0,5.0,0.0,0.0,2.0,1.0,phase_2,stop,550.0,600.0,4.0,,,,,,,,,white,diamond
0.0,2.0,2.0,0.0,5.0,5.0,678.5455513745546,2.0,1.0,phase_2,go,600.0,600.0,1.0,,,,,,,,,magenta,hexagon
0.0,5.0,1.0,1.0,5.0,0.0,0.0,2.0,1.0,phase_2,stop,600.0,600.0,4.0,,,,,,,,,yellow,I
0.0,2.0,2.0,0.0,6.0,6.0,756.2979171052575,2.0,1.0,phase_2,go,650.0,600.0,1.0,,,,,,,,,magenta,hexagon
0.0,1.0,1.0,0.0,5.0,5.0,819.6869269013405,2.0,1.0,phase_2,go,650.0,600.0,1.0,,,,,,,,,blue,cross
0.0,1.0,1.0,0.0,6.0,6.0,708.1447243690491,3.0,1.0,phase_2,go,650.0,600.0,1.0,,,,,,,,,blue,cross
0.0,8.0,4.0,1.0,6.0,0.0,0.0,3.0,1.0,phase_2,stop,650.0,600.0,4.0,,,,,,,,,cyan,square
0.0,7.0,3.0,1.0,6.0,6.0,714.8627731949091,3.0,1.0,phase_2,stop,650.0,650.0,3.0,,,,,,,,,white,diamond
0.0,6.0,2.0,1.0,6.0,6.0,769.284195266664,3.0,1.0,phase_2,go,650.0,600.0,1.0,,,,,,,,,orange,triangle
0.0,4.0,4.0,0.0,6.0,6.0,864.9370735511184,3.0,1.0,phase_2,go,650.0,600.0,1.0,,,,,,,,,green,flipped triangle
0.0,1.0,1.0,0.0,5.0,5.0,784.1535927727818,3.0,1.0,phase_2,go,650.0,600.0,1.0,,,,,,,,,blue,cross
0.0,3.0,3.0,0.0,6.0,6.0,711.6829957813025,3.0,1.0,phase_2,go,650.0,600.0,1.0,,,,,,,,,gray,circle
0.0,2.0,2.0,0.0,6.0,6.0,839.9396147578955,3.0,1.0,phase_2,go,650.0,600.0,1.0,,,,,,,,,magenta,hexagon
0.0,1.0,1.0,0.0,5.0,5.0,505.7200640439987,3.0,1.0,phase_2,go,650.0,600.0,1.0,,,,,,,,,blue,cross
0.0,4.0,4.0,0.0,5.0,5.0,686.5090867504478,3.0,1.0,phase_2,go,650.0,600.0,1.0,,,,,,,,,green,flipped triangle
0.0,8.0,4.0,1.0,6.0,0.0,0.0,3.0,1.0,phase_2,stop,650.0,600.0,4.0,,,,,,,,,cyan,square
0.0,7.0,3.0,1.0,5.0,0.0,0.0,3.0,1.0,phase_2,stop,650.0,650.0,4.0,,,,,,,,,white,diamond
0.0,8.0,4.0,1.0,5.0,5.0,758.5723102092743,3.0,1.0,phase_2,stop,700.0,650.0,3.0,,,,,,,,,cyan,square
0.0,2.0,2.0,0.0,5.0,5.0,885.8253136277199,3.0,1.0,phase_2,go,650.0,650.0,1.0,,,,,,,,,magenta,hexagon
0.0,2.0,2.0,0.0,5.0,5.0,885.6521183624864,3.0,1.0,phase_2,go,650.0,650.0,1.0,,,,,,,,,magenta,hexagon
0.0,8.0,4.0,1.0,6.0,0.0,0.0,3.0,1.0,phase_2,stop,650.0,650.0,4.0,,,,,,,,,cyan,square
0.0,5.0,1.0,1.0,6.0,0.0,0.0,3.0,1.0,phase_2,stop,650.0,700.0,4.0,,,,,,,,,yellow,I
0.0,2.0,2.0,0.0,6.0,6.0,852.7190703898668,3.0,1.0,phase_2,go,650.0,750.0,1.0,,,,,,,,,magenta,hexagon
0.0,4.0,4.0,0.0,6.0,6.0,835.1295674219728,3.0,1.0,phase_2,go,650.0,750.0,1.0,,,,,,,,,green,flipped triangle
0.0,5.0,1.0,1.0,5.0,5.0,1002.8107799589634,3.0,1.0,phase_2,go,650.0,750.0,1.0,,,,,,,,,yellow,I
0.0,4.0,4.0,0.0,6.0,6.0,994.4987194612622,3.0,1.0,phase_2,go,650.0,750.0,1.0,,,,,,,,,green,flipped triangle
0.0,6.0,2.0,1.0,6.0,0.0,0.0,3.0,1.0,phase_2,stop,650.0,750.0,4.0,,,,,,,,,orange,triangle
0.0,5.0,1.0,1.0,6.0,6.0,991.5777826681732,3.0,1.0,phase_2,go,650.0,800.0,1.0,,,,,,,,,yellow,I
0.0,4.0,4.0,0.0,6.0,6.0,1103.1901370733976,3.0,1.0,phase_2,go,650.0,800.0,1.0,,,,,,,,,green,flipped triangle
0.0,6.0,2.0,1.0,5.0,0.0,0.0,3.0,1.0,phase_2,stop,650.0,800.0,4.0,,,,,,,,,orange,triangle
0.0,2.0,2.0,0.0,6.0,6.0,1133.080375380814,3.0,1.0,phase_2,go,700.0,800.0,1.0,,,,,,,,,magenta,hexagon
0.0,2.0,2.0,0.0,5.0,5.0,1075.573327019811,3.0,1.0,phase_2,go,700.0,800.0,1.0,,,,,,,,,magenta,hexagon
0.0,8.0,4.0,1.0,6.0,6.0,860.9361303970218,3.0,1.0,phase_2,go,700.0,800.0,1.0,,,,,,,,,cyan,square
0.0,8.0,4.0,1.0,5.0,0.0,0.0,3.0,1.0,phase_2,stop,700.0,800.0,4.0,,,,,,,,,cyan,square
0.0,2.0,2.0,0.0,5.0,5.0,933.6676206439734,3.0,1.0,phase_2,go,750.0,800.0,1.0,,,,,,,,,magenta,hexagon
0.0,5.0,1.0,1.0,6.0,6.0,881.5682334825397,3.0,1.0,phase_2,go,750.0,800.0,1.0,,,,,,,,,yellow,I
0.0,3.0,3.0,0.0,5.0,5.0,820.6525659188628,3.0,1.0,phase_2,go,750.0,800.0,1.0,,,,,,,,,gray,circle
0.0,3.0,3.0,0.0,6.0,6.0,825.0200506299734,3.0,1.0,phase_2,go,750.0,800.0,1.0,,,,,,,,,gray,circle
0.0,8.0,4.0,1.0,6.0,6.0,888.8729177415371,3.0,1.0,phase_2,stop,750.0,800.0,3.0,,,,,,,,,cyan,square
0.0,4.0,4.0,0.0,5.0,5.0,834.2133248224854,3.0,1.0,phase_2,go,750.0,750.0,1.0,,,,,,,,,green,flipped triangle
0.0,3.0,3.0,0.0,6.0,6.0,775.5514187738299,3.0,1.0,phase_2,go,750.0,750.0,1.0,,,,,,,,,gray,circle
0.0,4.0,4.0,0.0,5.0,5.0,786.7826027795672,4.0,1.0,phase_2,go,750.0,750.0,1.0,,,,,,,,,green,flipped triangle
0.0,8.0,4.0,1.0,6.0,6.0,776.3543883338571,4.0,1.0,phase_2,stop,750.0,750.0,3.0,,,,,,,,,cyan,square
0.0,8.0,4.0,1.0,5.0,5.0,713.328699581325,4.0,1.0,phase_2,go,750.0,700.0,1.0,,,,,,,,,cyan,square
0.0,2.0,2.0,0.0,5.0,5.0,829.8940546810627,4.0,1.0,phase_2,go,750.0,700.0,1.0,,,,,,,,,magenta,hexagon
0.0,5.0,1.0,1.0,6.0,6.0,768.4116726741195,4.0,1.0,phase_2,stop,750.0,700.0,3.0,,,,,,,,,yellow,I
0.0,1.0,1.0,0.0,6.0,6.0,879.2438302189112,4.0,1.0,phase_2,go,750.0,650.0,1.0,,,,,,,,,blue,cross
0.0,6.0,2.0,1.0,5.0,5.0,783.2177467644215,4.0,1.0,phase_2,stop,750.0,650.0,3.0,,,,,,,,,orange,triangle
0.0,4.0,4.0,0.0,6.0,6.0,294.3380307406187,4.0,1.0,phase_2,go,700.0,650.0,1.0,,,,,,,,,green,flipped triangle
0.0,1.0,1.0,0.0,6.0,6.0,843.5524459928274,4.0,1.0,phase_2,go,700.0,650.0,1.0,,,,,,,,,blue,cross
0.0,2.0,2.0,0.0,6.0,6.0,946.714399382472,4.0,1.0,phase_2,go,700.0,650.0,1.0,,,,,,,,,magenta,hexagon
0.0,1.0,1.0,0.0,6.0,6.0,933.031152933836,4.0,1.0,phase_2,go,700.0,650.0,1.0,,,,,,,,,blue,cross
0.0,1.0,1.0,0.0,6.0,6.0,1027.057472616434,4.0,1.0,phase_2,go,700.0,650.0,1.0,,,,,,,,,blue,cross
0.0,6.0,2.0,1.0,6.0,6.0,978.6222279071808,4.0,1.0,phase_2,go,700.0,650.0,1.0,,,,,,,,,orange,triangle
0.0,5.0,1.0,1.0,6.0,6.0,859.4137569889426,4.0,1.0,phase_2,go,700.0,650.0,1.0,,,,,,,,,yellow,I
0.0,3.0,3.0,0.0,6.0,6.0,801.9995866343379,4.0,1.0,phase_2,go,700.0,650.0,1.0,,,,,,,,,gray,circle
0.0,7.0,3.0,1.0,5.0,0.0,0.0,4.0,1.0,phase_2,stop,700.0,650.0,4.0,,,,,,,,,white,diamond
0.0,2.0,2.0,0.0,6.0,6.0,729.4527990743518,4.0,1.0,phase_2,go,750.0,650.0,1.0,,,,,,,,,magenta,hexagon
0.0,5.0,1.0,1.0,6.0,0.0,0.0,4.0,1.0,phase_2,stop,750.0,650.0,4.0,,,,,,,,,yellow,I
0.0,7.0,3.0,1.0,5.0,5.0,951.3402990996838,4.0,1.0,phase_2,go,750.0,700.0,1.0,,,,,,,,,white,diamond
0.0,2.0,2.0,0.0,5.0,5.0,884.6942186355591,4.0,1.0,phase_2,go,750.0,700.0,1.0,,,,,,,,,magenta,hexagon
0.0,6.0,2.0,1.0,5.0,5.0,828.9099559187889,4.0,1.0,phase_2,go,750.0,700.0,1.0,,,,,,,,,orange,triangle
0.0,1.0,1.0,0.0,6.0,6.0,699.4729768484831,4.0,1.0,phase_2,go,750.0,700.0,1.0,,,,,,,,,blue,cross
0.0,3.0,3.0,0.0,6.0,6.0,679.1102550923824,4.0,1.0,phase_2,go,750.0,700.0,1.0,,,,,,,,,gray,circle
0.0,4.0,4.0,0.0,5.0,5.0,819.0939798951149,4.0,1.0,phase_2,go,750.0,700.0,1.0,,,,,,,,,green,flipped triangle
0.0,2.0,2.0,0.0,6.0,6.0,818.4431670233607,4.0,1.0,phase_2,go,750.0,700.0,1.0,,,,,,,,,magenta,hexagon
0.0,3.0,3.0,0.0,5.0,5.0,731.4219428226352,4.0,1.0,phase_2,go,750.0,700.0,1.0,,,,,,,,,gray,circle
0.0,6.0,2.0,1.0,6.0,6.0,777.6268413290381,4.0,1.0,phase_2,stop,750.0,700.0,3.0,,,,,,,,,orange,triangle
0.0,1.0,1.0,0.0,6.0,6.0,817.5669768825173,4.0,1.0,phase_2,go,750.0,650.0,1.0,,,,,,,,,blue,cross
0.0,4.0,4.0,0.0,6.0,6.0,808.4375504404306,4.0,1.0,phase_2,go,750.0,650.0,1.0,,,,,,,,,green,flipped triangle
0.0,7.0,3.0,1.0,6.0,0.0,0.0,4.0,1.0,phase_2,stop,750.0,650.0,4.0,,,,,,,,,white,diamond
0.0,6.0,2.0,1.0,6.0,6.0,720.5210998654366,4.0,1.0,phase_2,stop,750.0,700.0,3.0,,,,,,,,,orange,triangle
0.0,4.0,4.0,0.0,5.0,5.0,790.300028398633,4.0,1.0,phase_2,go,750.0,650.0,1.0,,,,,,,,,green,flipped triangle
0.0,3.0,3.0,0.0,6.0,6.0,854.2731292545795,4.0,1.0,phase_2,go,750.0,650.0,1.0,,,,,,,,,gray,circle
0.0,4.0,4.0,0.0,5.0,5.0,942.8437547758222,4.0,1.0,phase_2,go,750.0,650.0,1.0,,,,,,,,,green,flipped triangle
0.0,6.0,2.0,1.0,5.0,5.0,892.4567075446248,4.0,1.0,phase_2,stop,750.0,650.0,3.0,,,,,,,,,orange,triangle
0.0,5.0,1.0,1.0,6.0,0.0,0.0,4.0,1.0,phase_2,stop,700.0,650.0,4.0,,,,,,,,,yellow,I
0.0,5.0,1.0,1.0,6.0,6.0,590.9318560734391,5.0,1.0,phase_2,stop,700.0,700.0,3.0,,,,,,,,,yellow,I
0.0,1.0,1.0,0.0,6.0,6.0,692.6756175234914,5.0,1.0,phase_2,go,700.0,650.0,1.0,,,,,,,,,blue,cross
0.0,2.0,2.0,0.0,6.0,6.0,765.5874341726303,5.0,1.0,phase_2,go,700.0,650.0,1.0,,,,,,,,,magenta,hexagon
0.0,8.0,4.0,1.0,5.0,5.0,694.3133864551783,5.0,1.0,phase_2,stop,700.0,650.0,3.0,,,,,,,,,cyan,square
0.0,4.0,4.0,0.0,6.0,6.0,886.0090998932719,5.0,1.0,phase_2,go,650.0,650.0,1.0,,,,,,,,,green,flipped triangle
0.0,7.0,3.0,1.0,6.0,6.0,868.5711249709129,5.0,1.0,phase_2,go,650.0,650.0,1.0,,,,,,,,,white,diamond
0.0,1.0,1.0,0.0,6.0,6.0,418.0201021954417,5.0,1.0,phase_2,go,650.0,650.0,1.0,,,,,,,,,blue,cross
0.0,4.0,4.0,0.0,5.0,5.0,737.556966021657,5.0,1.0,phase_2,go,650.0,650.0,1.0,,,,,,,,,green,flipped triangle
0.0,8.0,4.0,1.0,6.0,6.0,437.1813647449016,5.0,1.0,phase_2,go,650.0,650.0,1.0,,,,,,,,,cyan,square
0.0,1.0,1.0,0.0,5.0,5.0,787.7829428762197,5.0,1.0,phase_2,go,650.0,650.0,1.0,,,,,,,,,blue,cross
0.0,8.0,4.0,1.0,5.0,5.0,759.6270954236388,5.0,1.0,phase_2,stop,650.0,650.0,3.0,,,,,,,,,cyan,square
0.0,3.0,3.0,0.0,6.0,6.0,583.0389196053147,5.0,1.0,phase_2,go,600.0,650.0,1.0,,,,,,,,,gray,circle
0.0,2.0,2.0,0.0,6.0,6.0,320.9581840783357,5.0,1.0,phase_2,go,600.0,650.0,1.0,,,,,,,,,magenta,hexagon
0.0,7.0,3.0,1.0,5.0,5.0,776.5810089185834,5.0,1.0,phase_2,go,600.0,650.0,1.0,,,,,,,,,white,diamond
0.0,1.0,1.0,0.0,5.0,5.0,825.7822273299098,5.0,1.0,phase_2,go,600.0,650.0,1.0,,,,,,,,,blue,cross
0.0,8.0,4.0,1.0,6.0,6.0,900.8550206199288,5.0,1.0,phase_2,go,600.0,650.0,1.0,,,,,,,,,cyan,square
0.0,8.0,4.0,1.0,6.0,0.0,0.0,5.0,1.0,phase_2,stop,600.0,650.0,4.0,,,,,,,,,cyan,square
0.0,2.0,2.0,0.0,6.0,6.0,747.914913110435,5.0,1.0,phase_2,go,600.0,700.0,1.0,,,,,,,,,magenta,hexagon
0.0,4.0,4.0,0.0,5.0,5.0,748.2360964640975,5.0,1.0,phase_2,go,600.0,700.0,1.0,,,,,,,,,green,flipped triangle
0.0,2.0,2.0,0.0,5.0,5.0,630.8812154456973,5.0,1.0,phase_2,go,600.0,700.0,1.0,,,,,,,,,magenta,hexagon
0.0,8.0,4.0,1.0,6.0,6.0,686.5672403946519,5.0,1.0,phase_2,go,600.0,700.0,1.0,,,,,,,,,cyan,square
0.0,1.0,1.0,0.0,6.0,6.0,725.7709819823503,5.0,1.0,phase_2,go,600.0,700.0,1.0,,,,,,,,,blue,cross
0.0,8.0,4.0,1.0,5.0,0.0,0.0,5.0,1.0,phase_2,stop,600.0,700.0,4.0,,,,,,,,,cyan,square
0.0,4.0,4.0,0.0,5.0,5.0,778.8880672305822,5.0,1.0,phase_2,go,650.0,700.0,1.0,,,,,,,,,green,flipped triangle
0.0,1.0,1.0,0.0,5.0,5.0,792.1942481771111,5.0,1.0,phase_2,go,650.0,700.0,1.0,,,,,,,,,blue,cross
0.0,1.0,1.0,0.0,6.0,6.0,467.0909568667412,5.0,1.0,phase_2,go,650.0,700.0,1.0,,,,,,,,,blue,cross
0.0,6.0,2.0,1.0,5.0,0.0,0.0,5.0,1.0,phase_2,stop,650.0,700.0,4.0,,,,,,,,,orange,triangle
0.0,6.0,2.0,1.0,6.0,6.0,320.6331375986337,5.0,1.0,phase_2,stop,700.0,700.0,3.0,,,,,,,,,orange,triangle
0.0,5.0,1.0,1.0,5.0,5.0,736.8327053263783,5.0,1.0,phase_2,stop,700.0,650.0,3.0,,,,,,,,,yellow,I
0.0,3.0,3.0,0.0,6.0,6.0,670.5118687823415,5.0,1.0,phase_2,go,650.0,650.0,1.0,,,,,,,,,gray,circle
0.0,7.0,3.0,1.0,5.0,0.0,0.0,5.0,1.0,phase_2,stop,650.0,650.0,4.0,,,,,,,,,white,diamond
0.0,2.0,2.0,0.0,6.0,6.0,864.0079759061337,5.0,1.0,phase_2,go,700.0,650.0,1.0,,,,,,,,,magenta,hexagon
0.0,1.0,1.0,0.0,5.0,5.0,799.5581207796931,5.0,1.0,phase_2,go,700.0,650.0,1.0,,,,,,,,,blue,cross
0.0,6.0,2.0,1.0,5.0,5.0,879.0975110605359,5.0,1.0,phase_2,go,700.0,650.0,1.0,,,,,,,,,orange,triangle
0.0,4.0,4.0,0.0,6.0,6.0,771.2434073910117,5.0,1.0,phase_2,go,700.0,650.0,1.0,,,,,,,,,green,flipped triangle
0.0,7.0,3.0,1.0,6.0,0.0,0.0,5.0,1.0,phase_2,stop,700.0,650.0,4.0,,,,,,,,,white,diamond
0.0,7.0,3.0,1.0,5.0,5.0,450.0103667378425,6.0,1.0,phase_2,stop,700.0,700.0,3.0,,,,,,,,,white,diamond
0.0,2.0,2.0,0.0,5.0,5.0,777.6516638696194,6.0,1.0,phase_2,go,650.0,700.0,1.0,,,,,,,,,magenta,hexagon
0.0,4.0,4.0,0.0,6.0,6.0,543.6206236481667,6.0,1.0,phase_2,go,650.0,700.0,1.0,,,,,,,,,green,flipped triangle
0.0,8.0,4.0,1.0,5.0,5.0,702.9819032177329,6.0,1.0,phase_2,stop,650.0,700.0,3.0,,,,,,,,,cyan,square
0.0,6.0,2.0,1.0,6.0,6.0,318.1652789935469,6.0,1.0,phase_2,stop,600.0,700.0,3.0,,,,,,,,,orange,triangle
0.0,4.0,4.0,0.0,6.0,6.0,534.5407640561461,6.0,1.0,phase_2,go,600.0,650.0,1.0,,,,,,,,,green,flipped triangle
0.0,5.0,1.0,1.0,5.0,0.0,0.0,6.0,1.0,phase_2,stop,600.0,650.0,4.0,,,,,,,,,yellow,I
0.0,7.0,3.0,1.0,6.0,6.0,551.3395238667727,6.0,1.0,phase_2,stop,650.0,650.0,3.0,,,,,,,,,white,diamond
0.0,2.0,2.0,0.0,6.0,6.0,667.7222661674023,6.0,1.0,phase_2,go,650.0,600.0,1.0,,,,,,,,,magenta,hexagon
0.0,8.0,4.0,1.0,5.0,5.0,676.7263524234295,6.0,1.0,phase_2,stop,650.0,600.0,3.0,,,,,,,,,cyan,square
0.0,5.0,1.0,1.0,5.0,0.0,0.0,6.0,1.0,phase_2,stop,600.0,600.0,4.0,,,,,,,,,yellow,I
0.0,4.0,4.0,0.0,6.0,6.0,786.7179149761796,6.0,1.0,phase_2,go,650.0,600.0,1.0,,,,,,,,,green,flipped triangle
0.0,8.0,4.0,1.0,5.0,0.0,0.0,6.0,1.0,phase_2,stop,650.0,600.0,4.0,,,,,,,,,cyan,square
0.0,2.0,2.0,0.0,5.0,5.0,753.0247364193201,6.0,1.0,phase_2,go,700.0,600.0,1.0,,,,,,,,,magenta,hexagon
0.0,1.0,1.0,0.0,5.0,5.0,1017.6633447408676,6.0,1.0,phase_2,go,700.0,600.0,1.0,,,,,,,,,blue,cross
0.0,1.0,1.0,0.0,6.0,6.0,360.9644435346126,6.0,1.0,phase_2,go,700.0,600.0,1.0,,,,,,,,,blue,cross
0.0,1.0,1.0,0.0,5.0,5.0,742.662824690342,6.0,1.0,phase_2,go,700.0,600.0,1.0,,,,,,,,,blue,cross
0.0,5.0,1.0,1.0,5.0,5.0,791.1056727170944,6.0,1.0,phase_2,stop,700.0,600.0,3.0,,,,,,,,,yellow,I
0.0,3.0,3.0,0.0,5.0,5.0,301.4837894588709,6.0,1.0,phase_2,go,650.0,600.0,1.0,,,,,,,,,gray,circle
0.0,5.0,1.0,1.0,6.0,6.0,727.0592804998159,6.0,1.0,phase_2,stop,650.0,600.0,3.0,,,,,,,,,yellow,I
0.0,6.0,2.0,1.0,5.0,0.0,0.0,6.0,1.0,phase_2,stop,650.0,550.0,4.0,,,,,,,,,orange,triangle
0.0,3.0,3.0,0.0,5.0,5.0,439.5694900304079,6.0,1.0,phase_2,go,700.0,550.0,1.0,,,,,,,,,gray,circle
0.0,3.0,3.0,0.0,5.0,5.0,580.2185414358974,6.0,1.0,phase_2,go,700.0,550.0,1.0,,,,,,,,,gray,circle
0.0,7.0,3.0,1.0,6.0,0.0,0.0,6.0,1.0,phase_2,stop,700.0,550.0,4.0,,,,,,,,,white,diamond
0.0,2.0,2.0,0.0,5.0,5.0,509.03828907758,6.0,1.0,phase_2,go,700.0,600.0,1.0,,,,,,,,,magenta,hexagon
0.0,6.0,2.0,1.0,5.0,5.0,977.5621825829148,6.0,1.0,phase_2,go,700.0,600.0,1.0,,,,,,,,,orange,triangle
0.0,8.0,4.0,1.0,5.0,0.0,0.0,6.0,1.0,phase_2,stop,700.0,600.0,4.0,,,,,,,,,cyan,square
0.0,5.0,1.0,1.0,6.0,6.0,560.5632280930877,6.0,1.0,phase_2,stop,750.0,600.0,3.0,,,,,,,,,yellow,I
0.0,3.0,3.0,0.0,5.0,5.0,539.7414164617658,6.0,1.0,phase_2,go,750.0,550.0,1.0,,,,,,,,,gray,circle
0.0,2.0,2.0,0.0,6.0,6.0,751.9785221666098,6.0,1.0,phase_2,go,750.0,550.0,1.0,,,,,,,,,magenta,hexagon
0.0,3.0,3.0,0.0,5.0,5.0,745.0954932719469,6.0,1.0,phase_2,go,750.0,550.0,1.0,,,,,,,,,gray,circle
0.0,6.0,2.0,1.0,5.0,5.0,727.7148216962814,6.0,1.0,phase_2,stop,750.0,550.0,3.0,,,,,,,,,orange,triangle
0.0,5.0,1.0,1.0,5.0,0.0,0.0,6.0,1.0,phase_2,stop,700.0,550.0,4.0,,,,,,,,,yellow,I
0.0,7.0,3.0,1.0,5.0,0.0,0.0,6.0,1.0,phase_2,stop,750.0,550.0,4.0,,,,,,,,,white,diamond
0.0,4.0,4.0,0.0,5.0,5.0,932.954542338848,6.0,1.0,phase_2,go,800.0,550.0,1.0,,,,,,,,,green,flipped triangle
0.0,4.0,4.0,0.0,5.0,5.0,1094.7948964312673,6.0,1.0,phase_2,go,800.0,550.0,1.0,,,,,,,,,green,flipped triangle
0.0,5.0,1.0,1.0,5.0,5.0,580.8470761403441,7.0,1.0,phase_2,go,800.0,550.0,1.0,,,,,,,,,yellow,I
0.0,8.0,4.0,1.0,6.0,6.0,497.4536197260022,7.0,1.0,phase_2,stop,800.0,550.0,3.0,,,,,,,,,cyan,square
0.0,8.0,4.0,1.0,6.0,6.0,273.2162661850452,7.0,1.0,phase_2,stop,800.0,500.0,3.0,,,,,,,,,cyan,square
0.0,7.0,3.0,1.0,6.0,0.0,0.0,7.0,1.0,phase_2,stop,800.0,450.0,4.0,,,,,,,,,white,diamond
0.0,2.0,2.0,0.0,5.0,5.0,335.4723565280437,7.0,1.0,phase_2,go,800.0,500.0,1.0,,,,,,,,,magenta,hexagon
0.0,4.0,4.0,0.0,5.0,5.0,886.7375208064914,7.0,1.0,phase_2,go,800.0,500.0,1.0,,,,,,,,,green,flipped triangle
0.0,7.0,3.0,1.0,6.0,6.0,927.9984720051287,7.0,1.0,phase_2,go,800.0,500.0,1.0,,,,,,,,,white,diamond
0.0,1.0,1.0,0.0,5.0,5.0,862.9159396514297,7.0,1.0,phase_2,go,800.0,500.0,1.0,,,,,,,,,blue,cross
0.0,3.0,3.0,0.0,5.0,5.0,429.4091966003179,7.0,1.0,phase_2,go,800.0,500.0,1.0,,,,,,,,,gray,circle
0.0,8.0,4.0,1.0,6.0,6.0,989.0414755791426,7.0,1.0,phase_2,go,800.0,500.0,1.0,,,,,,,,,cyan,square
0.0,8.0,4.0,1.0,5.0,5.0,783.2303559407592,7.0,1.0,phase_2,go,800.0,500.0,1.0,,,,,,,,,cyan,square
0.0,5.0,1.0,1.0,5.0,5.0,827.6250064373016,7.0,1.0,phase_2,stop,800.0,500.0,3.0,,,,,,,,,yellow,I
0.0,6.0,2.0,1.0,6.0,0.0,0.0,7.0,1.0,phase_2,stop,750.0,500.0,4.0,,,,,,,,,orange,triangle
0.0,7.0,3.0,1.0,6.0,0.0,0.0,7.0,1.0,phase_2,stop,750.0,550.0,4.0,,,,,,,,,white,diamond
0.0,4.0,4.0,0.0,5.0,5.0,908.7574612349272,7.0,1.0,phase_2,go,750.0,600.0,1.0,,,,,,,,,green,flipped triangle
0.0,6.0,2.0,1.0,5.0,0.0,0.0,7.0,1.0,phase_2,stop,750.0,600.0,4.0,,,,,,,,,orange,triangle
0.0,2.0,2.0,0.0,5.0,5.0,696.8542989343405,7.0,1.0,phase_2,go,800.0,600.0,1.0,,,,,,,,,magenta,hexagon
0.0,7.0,3.0,1.0,5.0,0.0,0.0,7.0,1.0,phase_2,stop,800.0,600.0,4.0,,,,,,,,,white,diamond
0.0,6.0,2.0,1.0,6.0,6.0,1187.8673266619444,7.0,1.0,phase_2,go,850.0,600.0,1.0,,,,,,,,,orange,triangle
0.0,4.0,4.0,0.0,5.0,5.0,784.6378888934851,7.0,1.0,phase_2,go,850.0,600.0,1.0,,,,,,,,,green,flipped triangle
0.0,4.0,4.0,0.0,5.0,5.0,494.7552261874079,7.0,1.0,phase_2,go,850.0,600.0,1.0,,,,,,,,,green,flipped triangle
0.0,8.0,4.0,1.0,5.0,5.0,911.4700760692358,7.0,1.0,phase_2,stop,850.0,600.0,3.0,,,,,,,,,cyan,square
0.0,1.0,1.0,0.0,6.0,6.0,800.6735946983099,7.0,1.0,phase_2,go,800.0,600.0,1.0,,,,,,,,,blue,cross
0.0,3.0,3.0,0.0,5.0,5.0,590.3281616047025,7.0,1.0,phase_2,go,800.0,600.0,1.0,,,,,,,,,gray,circle
0.0,8.0,4.0,1.0,6.0,0.0,0.0,7.0,1.0,phase_2,stop,800.0,600.0,4.0,,,,,,,,,cyan,square
0.0,5.0,1.0,1.0,6.0,0.0,0.0,7.0,1.0,phase_2,stop,800.0,650.0,4.0,,,,,,,,,yellow,I
0.0,7.0,3.0,1.0,5.0,0.0,0.0,7.0,1.0,phase_2,stop,800.0,700.0,4.0,,,,,,,,,white,diamond
0.0,5.0,1.0,1.0,5.0,5.0,1460.8393562957644,7.0,1.0,phase_2,go,850.0,700.0,1.0,,,,,,,,,yellow,I
0.0,4.0,4.0,0.0,5.0,5.0,947.2624212503432,7.0,1.0,phase_2,go,850.0,700.0,1.0,,,,,,,,,green,flipped triangle
0.0,7.0,3.0,1.0,6.0,0.0,0.0,7.0,1.0,phase_2,stop,850.0,700.0,4.0,,,,,,,,,white,diamond
0.0,3.0,3.0,0.0,6.0,6.0,756.9783683866262,7.0,1.0,phase_2,go,850.0,750.0,1.0,,,,,,,,,gray,circle
0.0,3.0,3.0,0.0,5.0,5.0,625.5739144980907,7.0,1.0,phase_2,go,850.0,750.0,1.0,,,,,,,,,gray,circle
0.0,6.0,2.0,1.0,6.0,0.0,0.0,7.0,1.0,phase_2,stop,850.0,750.0,4.0,,,,,,,,,orange,triangle
0.0,2.0,2.0,0.0,5.0,5.0,547.3548490554094,7.0,1.0,phase_2,go,850.0,800.0,1.0,,,,,,,,,magenta,hexagon
0.0,5.0,1.0,1.0,6.0,6.0,991.325936280191,7.0,1.0,phase_2,go,850.0,800.0,1.0,,,,,,,,,yellow,I
0.0,7.0,3.0,1.0,6.0,6.0,912.4485589563848,7.0,1.0,phase_2,stop,850.0,800.0,3.0,,,,,,,,,white,diamond
0.0,5.0,1.0,1.0,5.0,5.0,326.7913972958922,8.0,1.0,phase_2,stop,850.0,750.0,3.0,,,,,,,,,yellow,I
0.0,7.0,3.0,1.0,5.0,0.0,0.0,8.0,1.0,phase_2,stop,800.0,750.0,4.0,,,,,,,,,white,diamond
0.0,7.0,3.0,1.0,5.0,5.0,861.747651360929,8.0,1.0,phase_2,go,850.0,750.0,1.0,,,,,,,,,white,diamond
0.0,3.0,3.0,0.0,5.0,5.0,558.4034575149417,8.0,1.0,phase_2,go,850.0,750.0,1.0,,,,,,,,,gray,circle
0.0,2.0,2.0,0.0,5.0,5.0,775.1517230644822,8.0,1.0,phase_2,go,850.0,750.0,1.0,,,,,,,,,magenta,hexagon
0.0,3.0,3.0,0.0,6.0,6.0,614.2575815320015,8.0,1.0,phase_2,go,850.0,750.0,1.0,,,,,,,,,gray,circle
0.0,3.0,3.0,0.0,5.0,5.0,500.00240188091993,8.0,1.0,phase_2,go,850.0,750.0,1.0,,,,,,,,,gray,circle
0.0,8.0,4.0,1.0,5.0,5.0,782.0193404331803,8.0,1.0,phase_2,stop,850.0,750.0,3.0,,,,,,,,,cyan,square
0.0,8.0,4.0,1.0,5.0,5.0,539.43145647645,8.0,1.0,phase_2,stop,800.0,750.0,3.0,,,,,,,,,cyan,square
0.0,1.0,1.0,0.0,5.0,5.0,682.6904797926545,8.0,1.0,phase_2,go,750.0,750.0,1.0,,,,,,,,,blue,cross
0.0,8.0,4.0,1.0,6.0,6.0,897.2552251070738,8.0,1.0,phase_2,go,750.0,750.0,1.0,,,,,,,,,cyan,square
0.0,5.0,1.0,1.0,6.0,6.0,836.0052201896906,8.0,1.0,phase_2,stop,750.0,750.0,3.0,,,,,,,,,yellow,I
0.0,2.0,2.0,0.0,6.0,6.0,811.5429757162929,8.0,1.0,phase_2,go,750.0,700.0,1.0,,,,,,,,,magenta,hexagon
0.0,7.0,3.0,1.0,6.0,0.0,0.0,8.0,1.0,phase_2,stop,750.0,700.0,4.0,,,,,,,,,white,diamond
0.0,7.0,3.0,1.0,5.0,5.0,920.3975843265652,8.0,1.0,phase_2,go,750.0,750.0,1.0,,,,,,,,,white,diamond
0.0,2.0,2.0,0.0,6.0,6.0,615.9331407397985,8.0,1.0,phase_2,go,750.0,750.0,1.0,,,,,,,,,magenta,hexagon
0.0,8.0,4.0,1.0,5.0,0.0,0.0,8.0,1.0,phase_2,stop,750.0,750.0,4.0,,,,,,,,,cyan,square
0.0,5.0,1.0,1.0,6.0,0.0,0.0,8.0,1.0,phase_2,stop,800.0,750.0,4.0,,,,,,,,,yellow,I
0.0,2.0,2.0,0.0,5.0,5.0,585.0711846724153,8.0,1.0,phase_2,go,800.0,800.0,1.0,,,,,,,,,magenta,hexagon
0.0,6.0,2.0,1.0,5.0,5.0,916.8181121349336,8.0,1.0,phase_2,stop,800.0,800.0,3.0,,,,,,,,,orange,triangle
0.0,6.0,2.0,1.0,5.0,0.0,0.0,8.0,1.0,phase_2,stop,750.0,800.0,4.0,,,,,,,,,orange,triangle
0.0,3.0,3.0,0.0,6.0,6.0,591.2814689800143,8.0,1.0,phase_2,go,800.0,800.0,1.0,,,,,,,,,gray,circle
0.0,4.0,4.0,0.0,5.0,5.0,932.6363177970052,8.0,1.0,phase_2,go,800.0,800.0,1.0,,,,,,,,,green,flipped triangle
0.0,8.0,4.0,1.0,5.0,0.0,0.0,8.0,1.0,phase_2,stop,800.0,800.0,4.0,,,,,,,,,cyan,square
0.0,6.0,2.0,1.0,5.0,5.0,653.9821615442634,8.0,1.0,phase_2,stop,850.0,800.0,3.0,,,,,,,,,orange,triangle
0.0,5.0,1.0,1.0,6.0,0.0,0.0,8.0,1.0,phase_2,stop,800.0,800.0,4.0,,,,,,,,,yellow,I
0.0,4.0,4.0,0.0,6.0,6.0,953.154543414712,8.0,1.0,phase_2,go,800.0,850.0,1.0,,,,,,,,,green,flipped triangle
0.0,3.0,3.0,0.0,5.0,5.0,617.2714838758111,8.0,1.0,phase_2,go,800.0,850.0,1.0,,,,,,,,,gray,circle
0.0,6.0,2.0,1.0,6.0,6.0,943.7421336770058,8.0,1.0,phase_2,stop,800.0,850.0,3.0,,,,,,,,,orange,triangle
0.0,2.0,2.0,0.0,6.0,6.0,578.5897243767977,8.0,1.0,phase_2,go,800.0,800.0,1.0,,,,,,,,,magenta,hexagon
0.0,7.0,3.0,1.0,5.0,0.0,0.0,8.0,1.0,phase_2,stop,800.0,800.0,4.0,,,,,,,,,white,diamond
0.0,8.0,4.0,1.0,5.0,5.0,1472.7370766922832,8.0,1.0,phase_2,go,850.0,800.0,1.0,,,,,,,,,cyan,square
0.0,6.0,2.0,1.0,6.0,6.0,993.2973273098468,8.0,1.0,phase_2,go,850.0,800.0,1.0,,,,,,,,,orange,triangle
0.0,3.0,3.0,0.0,6.0,6.0,536.3735975697637,8.0,1.0,phase_2,go,850.0,800.0,1.0,,,,,,,,,gray,circle
0.0,6.0,2.0,1.0,5.0,0.0,0.0,8.0,1.0,phase_2,stop,850.0,800.0,4.0,,,,,,,,,orange,triangle
0.0,3.0,3.0,0.0,5.0,5.0,566.088130697608,8.0,1.0,phase_2,go,900.0,800.0,1.0,,,,,,,,,gray,circle
0.0,5.0,1.0,1.0,7.0,3.0,3966.872749850154,1.0,1.0,phase_3,,,,,117.0,3.0,156.0,39.0,117.0,234.0,78.0,195.0,yellow,I
0.0,4.0,4.0,0.0,7.0,1.0,1778.125625103712,1.0,1.0,phase_3,,,,,195.0,5.0,195.0,78.0,234.0,39.0,156.0,117.0,green,flipped triangle
0.0,8.0,4.0,1.0,7.0,6.0,882.5689945369959,1.0,1.0,phase_3,,,,,117.0,3.0,156.0,39.0,78.0,195.0,234.0,117.0,cyan,square
0.0,8.0,4.0,1.0,7.0,6.0,2092.135921120644,1.0,1.0,phase_3,,,,,68.0,2.0,204.0,102.0,170.0,136.0,34.0,68.0,cyan,square
0.0,2.0,2.0,0.0,7.0,5.0,539.0118034556508,1.0,1.0,phase_3,,,,,264.0,6.0,220.0,88.0,132.0,176.0,264.0,44.0,magenta,hexagon
0.0,2.0,2.0,0.0,7.0,6.0,1287.0873231440785,1.0,1.0,phase_3,,,,,264.0,6.0,176.0,88.0,220.0,132.0,44.0,264.0,magenta,hexagon
0.0,4.0,4.0,0.0,7.0,1.0,2088.086078874767,1.0,1.0,phase_3,,,,,176.0,4.0,176.0,88.0,44.0,220.0,132.0,264.0,green,flipped triangle
0.0,4.0,4.0,0.0,7.0,6.0,906.2216216698288,1.0,1.0,phase_3,,,,,147.0,3.0,245.0,196.0,294.0,49.0,98.0,147.0,green,flipped triangle
0.0,3.0,3.0,0.0,7.0,5.0,944.653930142522,1.0,1.0,phase_3,,,,,176.0,4.0,88.0,132.0,44.0,264.0,176.0,220.0,gray,circle
0.0,3.0,3.0,0.0,7.0,6.0,1827.563521452248,1.0,1.0,phase_3,,,,,294.0,6.0,147.0,98.0,245.0,196.0,49.0,294.0,gray,circle
0.0,5.0,1.0,1.0,7.0,2.0,711.2595271319151,1.0,1.0,phase_3,,,,,88.0,2.0,220.0,88.0,264.0,176.0,44.0,132.0,yellow,I
0.0,7.0,3.0,1.0,7.0,4.0,181.3003169372677,1.0,1.0,phase_3,,,,,44.0,1.0,88.0,220.0,264.0,44.0,132.0,176.0,white,diamond
0.0,8.0,4.0,1.0,7.0,1.0,305.2221937105059,1.0,1.0,phase_3,,,,,176.0,4.0,176.0,220.0,132.0,264.0,88.0,44.0,cyan,square
0.0,3.0,3.0,0.0,7.0,6.0,1255.617693066597,1.0,1.0,phase_3,,,,,176.0,4.0,88.0,220.0,264.0,132.0,44.0,176.0,gray,circle
0.0,5.0,1.0,1.0,7.0,1.0,1338.6574471369386,1.0,1.0,phase_3,,,,,170.0,5.0,170.0,68.0,136.0,102.0,34.0,204.0,yellow,I
0.0,4.0,4.0,0.0,7.0,4.0,1778.5024046897888,1.0,1.0,phase_3,,,,,54.0,1.0,324.0,108.0,270.0,54.0,162.0,216.0,green,flipped triangle
0.0,6.0,2.0,1.0,7.0,1.0,950.6818512454628,1.0,1.0,phase_3,,,,,39.0,1.0,39.0,117.0,195.0,78.0,156.0,234.0,orange,triangle
0.0,5.0,1.0,1.0,7.0,6.0,550.9480321779847,1.0,1.0,phase_3,,,,,117.0,3.0,234.0,78.0,39.0,195.0,156.0,117.0,yellow,I
0.0,4.0,4.0,0.0,7.0,3.0,1680.524400435388,1.0,1.0,phase_3,,,,,170.0,5.0,136.0,68.0,170.0,102.0,204.0,34.0,green,flipped triangle
0.0,1.0,1.0,0.0,7.0,4.0,1291.2154626101255,1.0,1.0,phase_3,,,,,294.0,6.0,147.0,245.0,196.0,294.0,98.0,49.0,blue,cross
0.0,2.0,2.0,0.0,7.0,5.0,2330.644547007978,2.0,1.0,phase_3,,,,,195.0,5.0,39.0,117.0,156.0,234.0,195.0,78.0,magenta,hexagon
0.0,3.0,3.0,0.0,7.0,1.0,1023.0083726346493,2.0,1.0,phase_3,,,,,234.0,6.0,234.0,117.0,39.0,156.0,195.0,78.0,gray,circle
0.0,6.0,2.0,1.0,7.0,6.0,2296.0329465568066,2.0,1.0,phase_3,,,,,162.0,3.0,270.0,108.0,216.0,324.0,54.0,162.0,orange,triangle
0.0,6.0,2.0,1.0,7.0,2.0,1263.1284222006798,2.0,1.0,phase_3,,,,,34.0,1.0,136.0,34.0,102.0,68.0,204.0,170.0,orange,triangle
0.0,6.0,2.0,1.0,7.0,1.0,1202.6823284104466,2.0,1.0,phase_3,,,,,54.0,1.0,54.0,324.0,162.0,108.0,270.0,216.0,orange,triangle
0.0,6.0,2.0,1.0,7.0,6.0,941.363493911922,2.0,1.0,phase_3,,,,,44.0,1.0,132.0,88.0,176.0,264.0,220.0,44.0,orange,triangle
0.0,2.0,2.0,0.0,7.0,2.0,82.3194421827793,2.0,1.0,phase_3,,,,,270.0,5.0,54.0,270.0,324.0,108.0,162.0,216.0,magenta,hexagon
0.0,2.0,2.0,0.0,7.0,5.0,1476.9891276955605,2.0,1.0,phase_3,,,,,216.0,4.0,54.0,108.0,162.0,270.0,216.0,324.0,magenta,hexagon
0.0,7.0,3.0,1.0,7.0,1.0,1392.6748046651485,2.0,1.0,phase_3,,,,,234.0,6.0,234.0,78.0,195.0,39.0,156.0,117.0,white,diamond
0.0,6.0,2.0,1.0,7.0,5.0,1296.7083090916276,2.0,1.0,phase_3,,,,,170.0,5.0,68.0,102.0,136.0,204.0,170.0,34.0,orange,triangle
0.0,2.0,2.0,0.0,7.0,2.0,1448.204131796956,2.0,1.0,phase_3,,,,,294.0,6.0,98.0,294.0,245.0,147.0,196.0,49.0,magenta,hexagon
0.0,6.0,2.0,1.0,7.0,6.0,813.2942169904709,2.0,1.0,phase_3,,,,,294.0,6.0,196.0,49.0,98.0,147.0,245.0,294.0,orange,triangle
0.0,5.0,1.0,1.0,7.0,3.0,875.1030266284943,2.0,1.0,phase_3,,,,,136.0,4.0,68.0,170.0,136.0,34.0,102.0,204.0,yellow,I
0.0,4.0,4.0,0.0,7.0,6.0,1406.6092977300286,2.0,1.0,phase_3,,,,,195.0,5.0,39.0,156.0,117.0,234.0,78.0,195.0,green,flipped triangle
0.0,4.0,4.0,0.0,7.0,4.0,1150.1209428533912,2.0,1.0,phase_3,,,,,204.0,6.0,170.0,68.0,102.0,204.0,34.0,136.0,green,flipped triangle
0.0,6.0,2.0,1.0,7.0,6.0,2856.8646162748337,2.0,1.0,phase_3,,,,,245.0,5.0,98.0,49.0,147.0,196.0,294.0,245.0,orange,triangle
0.0,5.0,1.0,1.0,7.0,3.0,2512.306303717196,2.0,1.0,phase_3,,,,,245.0,5.0,294.0,196.0,245.0,98.0,147.0,49.0,yellow,I
0.0,6.0,2.0,1.0,7.0,5.0,2330.578883178532,2.0,1.0,phase_3,,,,,156.0,4.0,195.0,234.0,117.0,78.0,156.0,39.0,orange,triangle
0.0,4.0,4.0,0.0,7.0,3.0,1030.070480890572,2.0,1.0,phase_3,,,,,108.0,2.0,54.0,162.0,108.0,216.0,270.0,324.0,green,flipped triangle
0.0,3.0,3.0,0.0,7.0,6.0,517.3011776059866,2.0,1.0,phase_3,,,,,136.0,4.0,34.0,204.0,68.0,102.0,170.0,136.0,gray,circle
0.0,1.0,1.0,0.0,7.0,2.0,1814.165704883635,3.0,1.0,phase_3,,,,,136.0,4.0,102.0,136.0,34.0,204.0,68.0,170.0,blue,cross
0.0,8.0,4.0,1.0,7.0,3.0,1218.252586200833,3.0,1.0,phase_3,,,,,294.0,6.0,196.0,98.0,294.0,147.0,245.0,49.0,cyan,square
0.0,2.0,2.0,0.0,7.0,4.0,891.4912259206176,3.0,1.0,phase_3,,,,,245.0,5.0,49.0,147.0,294.0,245.0,98.0,196.0,magenta,hexagon
0.0,8.0,4.0,1.0,7.0,1.0,114.7574642673134,3.0,1.0,phase_3,,,,,196.0,4.0,196.0,294.0,245.0,147.0,49.0,98.0,cyan,square
0.0,5.0,1.0,1.0,7.0,6.0,571.1716273799539,3.0,1.0,phase_3,,,,,270.0,5.0,54.0,108.0,216.0,324.0,162.0,270.0,yellow,I
0.0,7.0,3.0,1.0,7.0,5.0,1252.866622060537,3.0,1.0,phase_3,,,,,136.0,4.0,170.0,34.0,204.0,102.0,136.0,68.0,white,diamond
0.0,1.0,1.0,0.0,7.0,1.0,824.46507550776,3.0,1.0,phase_3,,,,,156.0,4.0,156.0,234.0,117.0,78.0,39.0,195.0,blue,cross
0.0,5.0,1.0,1.0,7.0,2.0,2849.601298570633,3.0,1.0,phase_3,,,,,196.0,4.0,98.0,196.0,294.0,147.0,245.0,49.0,yellow,I
0.0,3.0,3.0,0.0,7.0,2.0,1611.060909926891,3.0,1.0,phase_3,,,,,170.0,5.0,204.0,170.0,136.0,102.0,68.0,34.0,gray,circle
0.0,3.0,3.0,0.0,7.0,5.0,2018.007393926382,3.0,1.0,phase_3,,,,,245.0,5.0,196.0,98.0,49.0,294.0,245.0,147.0,gray,circle
0.0,8.0,4.0,1.0,7.0,6.0,653.3524636179209,3.0,1.0,phase_3,,,,,136.0,4.0,68.0,34.0,102.0,204.0,170.0,136.0,cyan,square
0.0,6.0,2.0,1.0,7.0,5.0,3221.614595502615,3.0,1.0,phase_3,,,,,88.0,2.0,44.0,176.0,220.0,264.0,88.0,132.0,orange,triangle
0.0,8.0,4.0,1.0,7.0,1.0,2024.254615418613,3.0,1.0,phase_3,,,,,39.0,1.0,39.0,78.0,195.0,117.0,156.0,234.0,cyan,square
0.0,7.0,3.0,1.0,7.0,6.0,825.9358154609799,3.0,1.0,phase_3,,,,,270.0,5.0,162.0,54.0,324.0,216.0,108.0,270.0,white,diamond
0.0,8.0,4.0,1.0,7.0,3.0,1682.200157083571,3.0,1.0,phase_3,,,,,324.0,6.0,216.0,54.0,324.0,108.0,162.0,270.0,cyan,square
0.0,1.0,1.0,0.0,7.0,5.0,172.6300437003374,3.0,1.0,phase_3,,,,,270.0,5.0,162.0,54.0,216.0,108.0,270.0,324.0,blue,cross
0.0,2.0,2.0,0.0,7.0,2.0,221.0810640826821,3.0,1.0,phase_3,,,,,39.0,1.0,117.0,39.0,78.0,234.0,195.0,156.0,magenta,hexagon
0.0,7.0,3.0,1.0,7.0,1.0,2471.752763725817,3.0,1.0,phase_3,,,,,196.0,4.0,196.0,245.0,147.0,98.0,49.0,294.0,white,diamond
0.0,8.0,4.0,1.0,7.0,2.0,761.1838225275278,3.0,1.0,phase_3,,,,,44.0,1.0,88.0,44.0,176.0,264.0,220.0,132.0,cyan,square
0.0,3.0,3.0,0.0,7.0,5.0,209.6311254426837,3.0,1.0,phase_3,,,,,39.0,1.0,78.0,234.0,195.0,117.0,39.0,156.0,gray,circle
0.0,1.0,1.0,0.0,7.0,6.0,1953.1120546162128,4.0,1.0,phase_3,,,,,78.0,2.0,117.0,156.0,39.0,195.0,234.0,78.0,blue,cross
0.0,1.0,1.0,0.0,7.0,6.0,1754.6940445899963,4.0,1.0,phase_3,,,,,44.0,1.0,132.0,176.0,220.0,88.0,264.0,44.0,blue,cross
0.0,7.0,3.0,1.0,7.0,5.0,1532.4556659907105,4.0,1.0,phase_3,,,,,147.0,3.0,49.0,245.0,196.0,98.0,147.0,294.0,white,diamond
0.0,3.0,3.0,0.0,7.0,1.0,1333.7937351316214,4.0,1.0,phase_3,,,,,162.0,3.0,162.0,54.0,216.0,270.0,324.0,108.0,gray,circle
0.0,2.0,2.0,0.0,7.0,2.0,4337.713993154466,4.0,1.0,phase_3,,,,,136.0,4.0,68.0,136.0,170.0,34.0,204.0,102.0,magenta,hexagon
0.0,7.0,3.0,1.0,7.0,3.0,2426.516526378691,4.0,1.0,phase_3,,,,,156.0,4.0,39.0,195.0,156.0,117.0,234.0,78.0,white,diamond
0.0,7.0,3.0,1.0,7.0,6.0,1545.1417351141572,4.0,1.0,phase_3,,,,,88.0,2.0,176.0,220.0,264.0,44.0,132.0,88.0,white,diamond
0.0,2.0,2.0,0.0,7.0,5.0,892.08750333637,4.0,1.0,phase_3,,,,,136.0,4.0,68.0,204.0,34.0,170.0,136.0,102.0,magenta,hexagon
0.0,5.0,1.0,1.0,7.0,2.0,1067.8337002173066,4.0,1.0,phase_3,,,,,132.0,3.0,220.0,132.0,264.0,176.0,44.0,88.0,yellow,I
0.0,3.0,3.0,0.0,7.0,6.0,1037.3110016807914,4.0,1.0,phase_3,,,,,162.0,3.0,324.0,216.0,270.0,108.0,54.0,162.0,gray,circle
0.0,1.0,1.0,0.0,7.0,2.0,1103.845726698637,4.0,1.0,phase_3,,,,,68.0,2.0,204.0,68.0,136.0,170.0,102.0,34.0,blue,cross
0.0,4.0,4.0,0.0,7.0,6.0,904.1603235527872,4.0,1.0,phase_3,,,,,220.0,5.0,264.0,88.0,44.0,132.0,176.0,220.0,green,flipped triangle
0.0,4.0,4.0,0.0,7.0,4.0,1769.6276921778915,4.0,1.0,phase_3,,,,,147.0,3.0,245.0,49.0,196.0,147.0,294.0,98.0,green,flipped triangle
0.0,7.0,3.0,1.0,7.0,5.0,2885.8934957534075,4.0,1.0,phase_3,,,,,102.0,3.0,34.0,136.0,68.0,170.0,102.0,204.0,white,diamond
0.0,5.0,1.0,1.0,7.0,6.0,2126.0024113580585,4.0,1.0,phase_3,,,,,54.0,1.0,324.0,270.0,162.0,108.0,216.0,54.0,yellow,I
0.0,1.0,1.0,0.0,7.0,5.0,758.230428211391,4.0,1.0,phase_3,,,,,54.0,1.0,162.0,270.0,216.0,108.0,54.0,324.0,blue,cross
0.0,8.0,4.0,1.0,7.0,2.0,2247.536825016141,4.0,1.0,phase_3,,,,,108.0,2.0,270.0,108.0,162.0,324.0,54.0,216.0,cyan,square
0.0,7.0,3.0,1.0,7.0,6.0,1025.5711283534763,4.0,1.0,phase_3,,,,,216.0,4.0,108.0,324.0,54.0,270.0,162.0,216.0,white,diamond
0.0,1.0,1.0,0.0,7.0,5.0,765.3941744938493,4.0,1.0,phase_3,,,,,49.0,1.0,245.0,294.0,196.0,98.0,49.0,147.0,blue,cross
0.0,1.0,1.0,0.0,7.0,3.0,951.139678247273,4.0,1.0,phase_3,,,,,176.0,4.0,88.0,220.0,176.0,44.0,264.0,132.0,blue,cross
