raw_reward_magnitude,stim_reward,stepwise_reward_magnitude,paired_with_stopping,stim_location,response,reaction_time,block,num_trial_presentations,which_phase,stop_signal_trial_type,left_SSD,right_SSD,accuracy,chosen_bidding_amount,chosen_bidding_level,possible_bid_1,possible_bid_2,possible_bid_3,possible_bid_4,possible_bid_5,possible_bid_6,color_text,shape_text
0.0,2.0,0.0,0.0,3.0,3.0,585.9297616407275,1.0,1.0,phase_1,,,,,,,,,,,,,blue,flipped triangle
407.0,8.0,4.0,1.0,2.0,2.0,530.804293230176,1.0,1.0,phase_1,,,,,,,,,,,,,cyan,cross
202.0,7.0,3.0,1.0,2.0,2.0,615.0034302845597,1.0,1.0,phase_1,,,,,,,,,,,,,yellow,square
78.0,6.0,2.0,1.0,4.0,4.0,575.9589979425073,1.0,1.0,phase_1,,,,,,,,,,,,,gray,diamond
0.0,7.0,0.0,1.0,2.0,2.0,418.6826320365071,1.0,1.0,phase_1,,,,,,,,,,,,,yellow,square
97.0,6.0,2.0,1.0,1.0,1.0,433.112041093409,1.0,1.0,phase_1,,,,,,,,,,,,,gray,diamond
413.0,8.0,4.0,1.0,3.0,3.0,545.9054261445999,1.0,1.0,phase_1,,,,,,,,,,,,,cyan,cross
0.0,2.0,0.0,0.0,1.0,1.0,382.891577668488,1.0,1.0,phase_1,,,,,,,,,,,,,blue,flipped triangle
213.0,7.0,3.0,1.0,2.0,2.0,379.6917209401727,1.0,1.0,phase_1,,,,,,,,,,,,,yellow,square
0.0,4.0,0.0,0.0,2.0,2.0,456.8144651129842,1.0,1.0,phase_1,,,,,,,,,,,,,orange,hexagon
55.0,5.0,1.0,1.0,2.0,2.0,479.3302956968546,1.0,1.0,phase_1,,,,,,,,,,,,,green,I
0.0,7.0,0.0,1.0,4.0,4.0,515.5746899545193,1.0,1.0,phase_1,,,,,,,,,,,,,yellow,square
98.0,6.0,2.0,1.0,1.0,1.0,498.3008056879043,1.0,1.0,phase_1,,,,,,,,,,,,,gray,diamond
180.0,3.0,3.0,0.0,4.0,4.0,598.2146980240941,1.0,1.0,phase_1,,,,,,,,,,,,,magenta,circle
185.0,3.0,3.0,0.0,3.0,3.0,483.3264918997884,1.0,1.0,phase_1,,,,,,,,,,,,,magenta,circle
122.0,2.0,2.0,0.0,3.0,3.0,429.1810253635049,1.0,1.0,phase_1,,,,,,,,,,,,,blue,flipped triangle
205.0,3.0,3.0,0.0,2.0,2.0,362.9615437239408,1.0,1.0,phase_1,,,,,,,,,,,,,magenta,circle
178.0,3.0,3.0,0.0,4.0,4.0,589.7864606231451,1.0,1.0,phase_1,,,,,,,,,,,,,magenta,circle
115.0,6.0,2.0,1.0,4.0,4.0,435.8538817614317,1.0,1.0,phase_1,,,,,,,,,,,,,gray,diamond
0.0,8.0,0.0,1.0,4.0,4.0,367.1159418299794,1.0,1.0,phase_1,,,,,,,,,,,,,cyan,cross
101.0,6.0,2.0,1.0,1.0,1.0,742.8179113194346,1.0,1.0,phase_1,,,,,,,,,,,,,gray,diamond
27.0,1.0,1.0,0.0,3.0,3.0,403.6516575142741,1.0,1.0,phase_1,,,,,,,,,,,,,white,triangle
116.0,2.0,2.0,0.0,4.0,4.0,437.1531819924712,1.0,1.0,phase_1,,,,,,,,,,,,,blue,flipped triangle
387.0,4.0,4.0,0.0,3.0,3.0,378.4855250269174,1.0,1.0,phase_1,,,,,,,,,,,,,orange,hexagon
46.0,1.0,1.0,0.0,2.0,2.0,520.6771474331617,1.0,1.0,phase_1,,,,,,,,,,,,,white,triangle
72.0,5.0,1.0,1.0,4.0,4.0,381.5714130178094,1.0,1.0,phase_1,,,,,,,,,,,,,green,I
202.0,3.0,3.0,0.0,2.0,2.0,505.9866337105632,1.0,1.0,phase_1,,,,,,,,,,,,,magenta,circle
416.0,8.0,4.0,1.0,3.0,3.0,447.6210353896022,1.0,1.0,phase_1,,,,,,,,,,,,,cyan,cross
72.0,1.0,1.0,0.0,1.0,1.0,723.0902537703514,1.0,1.0,phase_1,,,,,,,,,,,,,white,triangle
108.0,2.0,2.0,0.0,1.0,1.0,461.9961064308882,1.0,1.0,phase_1,,,,,,,,,,,,,blue,flipped triangle
0.0,1.0,0.0,0.0,1.0,1.0,338.3653033524751,1.0,1.0,phase_1,,,,,,,,,,,,,white,triangle
0.0,3.0,0.0,0.0,1.0,1.0,519.4131704047322,1.0,1.0,phase_1,,,,,,,,,,,,,magenta,circle
0.0,2.0,0.0,0.0,1.0,1.0,300.2685606479645,1.0,1.0,phase_1,,,,,,,,,,,,,blue,flipped triangle
110.0,2.0,2.0,0.0,1.0,1.0,322.665624320507,1.0,1.0,phase_1,,,,,,,,,,,,,blue,flipped triangle
224.0,3.0,3.0,0.0,3.0,3.0,584.5426553860307,1.0,1.0,phase_1,,,,,,,,,,,,,magenta,circle
0.0,8.0,0.0,1.0,1.0,1.0,613.9131421223283,1.0,1.0,phase_1,,,,,,,,,,,,,cyan,cross
28.0,5.0,1.0,1.0,4.0,4.0,545.2845981344581,1.0,1.0,phase_1,,,,,,,,,,,,,green,I
190.0,3.0,3.0,0.0,1.0,1.0,545.0892178341746,1.0,2.0,phase_1,,,,,,,,,,,,,magenta,circle
208.0,3.0,3.0,0.0,3.0,3.0,741.2990033626556,1.0,1.0,phase_1,,,,,,,,,,,,,magenta,circle
0.0,3.0,0.0,0.0,3.0,3.0,435.087664052844,1.0,1.0,phase_1,,,,,,,,,,,,,magenta,circle
40.0,5.0,1.0,1.0,2.0,2.0,462.83920109272,1.0,1.0,phase_1,,,,,,,,,,,,,green,I
69.0,1.0,1.0,0.0,4.0,4.0,579.1506320238113,1.0,1.0,phase_1,,,,,,,,,,,,,white,triangle
421.0,8.0,4.0,1.0,3.0,3.0,467.1454094350338,1.0,1.0,phase_1,,,,,,,,,,,,,cyan,cross
103.0,6.0,2.0,1.0,3.0,3.0,493.4174967929721,1.0,1.0,phase_1,,,,,,,,,,,,,gray,diamond
87.0,2.0,2.0,0.0,2.0,2.0,756.7248428240418,1.0,1.0,phase_1,,,,,,,,,,,,,blue,flipped triangle
377.0,4.0,4.0,0.0,3.0,3.0,624.8985752463341,1.0,1.0,phase_1,,,,,,,,,,,,,orange,hexagon
0.0,5.0,0.0,1.0,1.0,1.0,597.9454442858696,1.0,1.0,phase_1,,,,,,,,,,,,,green,I
72.0,5.0,1.0,1.0,3.0,3.0,611.1294431611896,1.0,1.0,phase_1,,,,,,,,,,,,,green,I
0.0,4.0,0.0,0.0,3.0,3.0,476.2206925079226,1.0,1.0,phase_1,,,,,,,,,,,,,orange,hexagon
119.0,6.0,2.0,1.0,3.0,3.0,512.5465765595436,1.0,1.0,phase_1,,,,,,,,,,,,,gray,diamond
387.0,8.0,4.0,1.0,3.0,3.0,545.1840609312057,1.0,1.0,phase_1,,,,,,,,,,,,,cyan,cross
422.0,4.0,4.0,0.0,1.0,1.0,756.6772093996406,1.0,1.0,phase_1,,,,,,,,,,,,,orange,hexagon
0.0,3.0,0.0,0.0,2.0,2.0,783.0740995705128,1.0,1.0,phase_1,,,,,,,,,,,,,magenta,circle
416.0,4.0,4.0,0.0,3.0,3.0,516.229429282248,1.0,1.0,phase_1,,,,,,,,,,,,,orange,hexagon
202.0,7.0,3.0,1.0,2.0,2.0,537.9336206242442,1.0,1.0,phase_1,,,,,,,,,,,,,yellow,square
94.0,2.0,2.0,0.0,2.0,2.0,438.8718558475375,1.0,1.0,phase_1,,,,,,,,,,,,,blue,flipped triangle
87.0,6.0,2.0,1.0,3.0,3.0,476.0842146351933,1.0,1.0,phase_1,,,,,,,,,,,,,gray,diamond
58.0,1.0,1.0,0.0,2.0,2.0,522.5140377879143,1.0,1.0,phase_1,,,,,,,,,,,,,white,triangle
89.0,2.0,2.0,0.0,2.0,2.0,338.4562665596604,1.0,1.0,phase_1,,,,,,,,,,,,,blue,flipped triangle
182.0,7.0,3.0,1.0,1.0,1.0,369.1351423040032,1.0,1.0,phase_1,,,,,,,,,,,,,yellow,square
208.0,3.0,3.0,0.0,1.0,1.0,486.4073721691966,1.0,1.0,phase_1,,,,,,,,,,,,,magenta,circle
88.0,6.0,2.0,1.0,4.0,4.0,632.7136633917689,1.0,1.0,phase_1,,,,,,,,,,,,,gray,diamond
53.0,5.0,1.0,1.0,3.0,3.0,525.9745586663485,1.0,1.0,phase_1,,,,,,,,,,,,,green,I
0.0,5.0,0.0,1.0,4.0,4.0,786.6065185517073,1.0,1.0,phase_1,,,,,,,,,,,,,green,I
101.0,2.0,2.0,0.0,2.0,2.0,520.0583096593618,1.0,1.0,phase_1,,,,,,,,,,,,,blue,flipped triangle
0.0,7.0,0.0,1.0,2.0,2.0,563.4420067071915,1.0,1.0,phase_1,,,,,,,,,,,,,yellow,square
0.0,8.0,0.0,1.0,4.0,4.0,704.8067515715957,1.0,1.0,phase_1,,,,,,,,,,,,,cyan,cross
404.0,4.0,4.0,0.0,3.0,3.0,470.8335315808654,1.0,1.0,phase_1,,,,,,,,,,,,,orange,hexagon
377.0,8.0,4.0,1.0,2.0,2.0,500.05870033055544,1.0,1.0,phase_1,,,,,,,,,,,,,cyan,cross
377.0,8.0,4.0,1.0,3.0,3.0,464.9273203685879,1.0,1.0,phase_1,,,,,,,,,,,,,cyan,cross
392.0,8.0,4.0,1.0,1.0,1.0,500.5284119397402,1.0,1.0,phase_1,,,,,,,,,,,,,cyan,cross
0.0,4.0,0.0,0.0,3.0,3.0,473.4294917434454,1.0,1.0,phase_1,,,,,,,,,,,,,orange,hexagon
102.0,2.0,2.0,0.0,3.0,3.0,451.9020486623049,1.0,1.0,phase_1,,,,,,,,,,,,,blue,flipped triangle
0.0,2.0,0.0,0.0,4.0,4.0,481.7142402753234,1.0,1.0,phase_1,,,,,,,,,,,,,blue,flipped triangle
0.0,8.0,0.0,1.0,3.0,3.0,505.65767381340265,1.0,1.0,phase_1,,,,,,,,,,,,,cyan,cross
27.0,5.0,1.0,1.0,1.0,1.0,589.6740090101957,1.0,1.0,phase_1,,,,,,,,,,,,,green,I
0.0,7.0,0.0,1.0,2.0,2.0,614.952883683145,1.0,1.0,phase_1,,,,,,,,,,,,,yellow,square
0.0,8.0,0.0,1.0,1.0,1.0,550.2575049176812,1.0,1.0,phase_1,,,,,,,,,,,,,cyan,cross
45.0,1.0,1.0,0.0,3.0,3.0,603.149670176208,1.0,1.0,phase_1,,,,,,,,,,,,,white,triangle
184.0,7.0,3.0,1.0,1.0,1.0,590.451349504292,1.0,1.0,phase_1,,,,,,,,,,,,,yellow,square
72.0,5.0,1.0,1.0,4.0,4.0,692.9470309987664,1.0,1.0,phase_1,,,,,,,,,,,,,green,I
96.0,6.0,2.0,1.0,2.0,2.0,544.4650379940867,1.0,1.0,phase_1,,,,,,,,,,,,,gray,diamond
195.0,3.0,3.0,0.0,1.0,1.0,509.63457487523556,1.0,1.0,phase_1,,,,,,,,,,,,,magenta,circle
404.0,4.0,4.0,0.0,1.0,1.0,466.9669372960925,1.0,1.0,phase_1,,,,,,,,,,,,,orange,hexagon
393.0,8.0,4.0,1.0,4.0,4.0,663.1143447011709,1.0,1.0,phase_1,,,,,,,,,,,,,cyan,cross
71.0,5.0,1.0,1.0,1.0,1.0,521.1001886054873,1.0,1.0,phase_1,,,,,,,,,,,,,green,I
415.0,4.0,4.0,0.0,4.0,4.0,485.8645619824528,1.0,1.0,phase_1,,,,,,,,,,,,,orange,hexagon
0.0,7.0,0.0,1.0,1.0,1.0,500.972930341959,1.0,1.0,phase_1,,,,,,,,,,,,,yellow,square
422.0,4.0,4.0,0.0,2.0,2.0,657.5703648850322,1.0,1.0,phase_1,,,,,,,,,,,,,orange,hexagon
53.0,1.0,1.0,0.0,3.0,3.0,507.8994119539857,1.0,1.0,phase_1,,,,,,,,,,,,,white,triangle
117.0,2.0,2.0,0.0,3.0,3.0,433.0588327720761,1.0,1.0,phase_1,,,,,,,,,,,,,blue,flipped triangle
199.0,7.0,3.0,1.0,1.0,1.0,644.752380438149,1.0,1.0,phase_1,,,,,,,,,,,,,yellow,square
185.0,3.0,3.0,0.0,1.0,1.0,860.6418250128627,1.0,1.0,phase_1,,,,,,,,,,,,,magenta,circle
50.0,1.0,1.0,0.0,2.0,2.0,575.3494277596474,1.0,1.0,phase_1,,,,,,,,,,,,,white,triangle
205.0,7.0,3.0,1.0,4.0,4.0,595.5946855247021,1.0,1.0,phase_1,,,,,,,,,,,,,yellow,square
0.0,7.0,0.0,1.0,1.0,1.0,603.7131818011403,1.0,1.0,phase_1,,,,,,,,,,,,,yellow,square
178.0,7.0,3.0,1.0,4.0,4.0,608.2216743379831,1.0,1.0,phase_1,,,,,,,,,,,,,yellow,square
195.0,7.0,3.0,1.0,3.0,3.0,521.8378650024533,1.0,1.0,phase_1,,,,,,,,,,,,,yellow,square
35.0,5.0,1.0,1.0,4.0,4.0,626.0586930438876,1.0,1.0,phase_1,,,,,,,,,,,,,green,I
109.0,2.0,2.0,0.0,1.0,1.0,459.1116160154342,1.0,1.0,phase_1,,,,,,,,,,,,,blue,flipped triangle
394.0,8.0,4.0,1.0,4.0,4.0,640.0519860908389,2.0,1.0,phase_1,,,,,,,,,,,,,cyan,cross
403.0,8.0,4.0,1.0,1.0,1.0,374.1158135235309,2.0,1.0,phase_1,,,,,,,,,,,,,cyan,cross
56.0,1.0,1.0,0.0,4.0,4.0,530.1010115072131,2.0,1.0,phase_1,,,,,,,,,,,,,white,triangle
47.0,1.0,1.0,0.0,1.0,1.0,444.76009439677,2.0,1.0,phase_1,,,,,,,,,,,,,white,triangle
55.0,1.0,1.0,0.0,2.0,2.0,546.4828191325068,2.0,1.0,phase_1,,,,,,,,,,,,,white,triangle
210.0,7.0,3.0,1.0,2.0,2.0,502.1391995251179,2.0,1.0,phase_1,,,,,,,,,,,,,yellow,square
0.0,7.0,0.0,1.0,1.0,1.0,590.7343281432986,2.0,1.0,phase_1,,,,,,,,,,,,,yellow,square
63.0,5.0,1.0,1.0,3.0,3.0,659.3267545104027,2.0,1.0,phase_1,,,,,,,,,,,,,green,I
0.0,6.0,0.0,1.0,2.0,2.0,507.5496742501855,2.0,1.0,phase_1,,,,,,,,,,,,,gray,diamond
194.0,3.0,3.0,0.0,3.0,3.0,498.8915622234344,2.0,1.0,phase_1,,,,,,,,,,,,,magenta,circle
0.0,5.0,0.0,1.0,1.0,1.0,543.1918324902654,2.0,1.0,phase_1,,,,,,,,,,,,,green,I
0.0,2.0,0.0,0.0,2.0,2.0,549.2551838979125,2.0,1.0,phase_1,,,,,,,,,,,,,blue,flipped triangle
45.0,5.0,1.0,1.0,2.0,2.0,371.0203738883137,2.0,1.0,phase_1,,,,,,,,,,,,,green,I
45.0,5.0,1.0,1.0,3.0,3.0,508.3035845309496,2.0,1.0,phase_1,,,,,,,,,,,,,green,I
115.0,2.0,2.0,0.0,3.0,3.0,402.6668490841985,2.0,1.0,phase_1,,,,,,,,,,,,,blue,flipped triangle
77.0,2.0,2.0,0.0,2.0,2.0,638.3428424596786,2.0,1.0,phase_1,,,,,,,,,,,,,blue,flipped triangle
0.0,1.0,0.0,0.0,4.0,4.0,692.6191886886954,2.0,1.0,phase_1,,,,,,,,,,,,,white,triangle
0.0,2.0,0.0,0.0,2.0,2.0,601.6082093119621,2.0,1.0,phase_1,,,,,,,,,,,,,blue,flipped triangle
0.0,6.0,0.0,1.0,1.0,1.0,599.1092128679156,2.0,1.0,phase_1,,,,,,,,,,,,,gray,diamond
218.0,3.0,3.0,0.0,3.0,3.0,833.3297008648515,2.0,1.0,phase_1,,,,,,,,,,,,,magenta,circle
210.0,7.0,3.0,1.0,4.0,4.0,548.5855033621192,2.0,1.0,phase_1,,,,,,,,,,,,,yellow,square
32.0,1.0,1.0,0.0,4.0,4.0,436.1955905333161,2.0,1.0,phase_1,,,,,,,,,,,,,white,triangle
376.0,8.0,4.0,1.0,4.0,4.0,525.9805144742131,2.0,1.0,phase_1,,,,,,,,,,,,,cyan,cross
103.0,2.0,2.0,0.0,4.0,4.0,332.6809192076325,2.0,1.0,phase_1,,,,,,,,,,,,,blue,flipped triangle
377.0,4.0,4.0,0.0,2.0,2.0,577.3286186158657,2.0,1.0,phase_1,,,,,,,,,,,,,orange,hexagon
0.0,3.0,0.0,0.0,2.0,2.0,461.5828031674027,2.0,1.0,phase_1,,,,,,,,,,,,,magenta,circle
201.0,7.0,3.0,1.0,1.0,1.0,520.2091680839658,2.0,1.0,phase_1,,,,,,,,,,,,,yellow,square
210.0,3.0,3.0,0.0,4.0,4.0,469.0327839925885,2.0,1.0,phase_1,,,,,,,,,,,,,magenta,circle
64.0,5.0,1.0,1.0,1.0,1.0,475.4444034770131,2.0,1.0,phase_1,,,,,,,,,,,,,green,I
399.0,8.0,4.0,1.0,1.0,1.0,455.4170062765479,2.0,1.0,phase_1,,,,,,,,,,,,,cyan,cross
29.0,5.0,1.0,1.0,1.0,1.0,451.5391485765576,2.0,1.0,phase_1,,,,,,,,,,,,,green,I
391.0,8.0,4.0,1.0,4.0,4.0,520.7240087911487,2.0,1.0,phase_1,,,,,,,,,,,,,cyan,cross
415.0,8.0,4.0,1.0,3.0,3.0,542.9086601361632,2.0,1.0,phase_1,,,,,,,,,,,,,cyan,cross
97.0,2.0,2.0,0.0,2.0,2.0,512.8848729655147,2.0,1.0,phase_1,,,,,,,,,,,,,blue,flipped triangle
117.0,2.0,2.0,0.0,2.0,2.0,527.1728038787842,2.0,1.0,phase_1,,,,,,,,,,,,,blue,flipped triangle
194.0,7.0,3.0,1.0,2.0,2.0,450.3838345408439,2.0,1.0,phase_1,,,,,,,,,,,,,yellow,square
403.0,8.0,4.0,1.0,3.0,3.0,487.4731106683612,2.0,1.0,phase_1,,,,,,,,,,,,,cyan,cross
122.0,6.0,2.0,1.0,2.0,2.0,438.1461925804615,2.0,1.0,phase_1,,,,,,,,,,,,,gray,diamond
208.0,7.0,3.0,1.0,4.0,4.0,466.3799973204732,2.0,1.0,phase_1,,,,,,,,,,,,,yellow,square
0.0,4.0,0.0,0.0,4.0,4.0,423.7951664254069,2.0,1.0,phase_1,,,,,,,,,,,,,orange,hexagon
53.0,5.0,1.0,1.0,1.0,1.0,586.1634416505694,2.0,1.0,phase_1,,,,,,,,,,,,,green,I
185.0,7.0,3.0,1.0,1.0,1.0,514.8907415568829,2.0,1.0,phase_1,,,,,,,,,,,,,yellow,square
399.0,4.0,4.0,0.0,3.0,3.0,571.4205140247941,2.0,1.0,phase_1,,,,,,,,,,,,,orange,hexagon
72.0,1.0,1.0,0.0,4.0,4.0,720.2543532475829,2.0,1.0,phase_1,,,,,,,,,,,,,white,triangle
376.0,4.0,4.0,0.0,2.0,2.0,590.9009203314781,2.0,1.0,phase_1,,,,,,,,,,,,,orange,hexagon
94.0,2.0,2.0,0.0,2.0,2.0,481.6939560696482,2.0,1.0,phase_1,,,,,,,,,,,,,blue,flipped triangle
224.0,3.0,3.0,0.0,4.0,4.0,455.1077345386147,2.0,1.0,phase_1,,,,,,,,,,,,,magenta,circle
0.0,5.0,0.0,1.0,1.0,1.0,549.8300334438682,2.0,1.0,phase_1,,,,,,,,,,,,,green,I
0.0,3.0,0.0,0.0,3.0,3.0,489.4805727526545,2.0,1.0,phase_1,,,,,,,,,,,,,magenta,circle
376.0,8.0,4.0,1.0,1.0,1.0,492.5643922761082,2.0,1.0,phase_1,,,,,,,,,,,,,cyan,cross
59.0,5.0,1.0,1.0,4.0,4.0,484.8604975268245,2.0,1.0,phase_1,,,,,,,,,,,,,green,I
115.0,2.0,2.0,0.0,1.0,1.0,463.1268549710512,2.0,1.0,phase_1,,,,,,,,,,,,,blue,flipped triangle
90.0,6.0,2.0,1.0,1.0,1.0,435.4539643973112,2.0,1.0,phase_1,,,,,,,,,,,,,gray,diamond
0.0,4.0,0.0,0.0,2.0,2.0,602.6062499731779,2.0,1.0,phase_1,,,,,,,,,,,,,orange,hexagon
98.0,2.0,2.0,0.0,4.0,4.0,646.5225359424949,2.0,1.0,phase_1,,,,,,,,,,,,,blue,flipped triangle
74.0,5.0,1.0,1.0,4.0,4.0,547.1318401396275,2.0,1.0,phase_1,,,,,,,,,,,,,green,I
44.0,5.0,1.0,1.0,2.0,2.0,527.9350681230426,2.0,1.0,phase_1,,,,,,,,,,,,,green,I
0.0,2.0,0.0,0.0,1.0,1.0,562.4609254300594,2.0,1.0,phase_1,,,,,,,,,,,,,blue,flipped triangle
376.0,4.0,4.0,0.0,2.0,2.0,542.5905454903841,2.0,1.0,phase_1,,,,,,,,,,,,,orange,hexagon
399.0,8.0,4.0,1.0,3.0,3.0,559.1720910742879,2.0,1.0,phase_1,,,,,,,,,,,,,cyan,cross
109.0,6.0,2.0,1.0,2.0,2.0,617.9342158138752,2.0,1.0,phase_1,,,,,,,,,,,,,gray,diamond
208.0,3.0,3.0,0.0,1.0,1.0,534.3049820512533,2.0,1.0,phase_1,,,,,,,,,,,,,magenta,circle
392.0,4.0,4.0,0.0,2.0,2.0,765.0617649778724,2.0,1.0,phase_1,,,,,,,,,,,,,orange,hexagon
386.0,4.0,4.0,0.0,2.0,2.0,376.8044989556074,2.0,1.0,phase_1,,,,,,,,,,,,,orange,hexagon
0.0,1.0,0.0,0.0,3.0,3.0,524.3013370782137,2.0,1.0,phase_1,,,,,,,,,,,,,white,triangle
182.0,7.0,3.0,1.0,1.0,1.0,698.3897751197219,2.0,1.0,phase_1,,,,,,,,,,,,,yellow,square
379.0,4.0,4.0,0.0,3.0,3.0,667.9288009181619,2.0,1.0,phase_1,,,,,,,,,,,,,orange,hexagon
0.0,3.0,0.0,0.0,2.0,2.0,484.259482473135,2.0,1.0,phase_1,,,,,,,,,,,,,magenta,circle
90.0,2.0,2.0,0.0,4.0,4.0,665.7358156517148,2.0,1.0,phase_1,,,,,,,,,,,,,blue,flipped triangle
45.0,1.0,1.0,0.0,3.0,3.0,540.966747328639,2.0,1.0,phase_1,,,,,,,,,,,,,white,triangle
61.0,1.0,1.0,0.0,1.0,1.0,770.4673046246171,2.0,1.0,phase_1,,,,,,,,,,,,,white,triangle
421.0,8.0,4.0,1.0,2.0,2.0,654.3352091684937,2.0,1.0,phase_1,,,,,,,,,,,,,cyan,cross
101.0,2.0,2.0,0.0,2.0,2.0,417.8515030071139,2.0,1.0,phase_1,,,,,,,,,,,,,blue,flipped triangle
188.0,7.0,3.0,1.0,1.0,1.0,460.5879187583923,2.0,1.0,phase_1,,,,,,,,,,,,,yellow,square
212.0,3.0,3.0,0.0,2.0,2.0,529.4408546760678,2.0,1.0,phase_1,,,,,,,,,,,,,magenta,circle
199.0,3.0,3.0,0.0,4.0,4.0,656.6561758518219,2.0,1.0,phase_1,,,,,,,,,,,,,magenta,circle
392.0,4.0,4.0,0.0,3.0,3.0,579.7642562538385,2.0,1.0,phase_1,,,,,,,,,,,,,orange,hexagon
0.0,4.0,0.0,0.0,4.0,4.0,785.2341728284955,2.0,1.0,phase_1,,,,,,,,,,,,,orange,hexagon
194.0,3.0,3.0,0.0,1.0,1.0,352.8693504631519,2.0,2.0,phase_1,,,,,,,,,,,,,magenta,circle
82.0,6.0,2.0,1.0,4.0,4.0,575.717382133007,2.0,1.0,phase_1,,,,,,,,,,,,,gray,diamond
190.0,3.0,3.0,0.0,4.0,4.0,581.0085060074925,2.0,1.0,phase_1,,,,,,,,,,,,,magenta,circle
389.0,8.0,4.0,1.0,1.0,1.0,464.8512899875641,2.0,1.0,phase_1,,,,,,,,,,,,,cyan,cross
61.0,5.0,1.0,1.0,4.0,4.0,603.5993881523609,2.0,1.0,phase_1,,,,,,,,,,,,,green,I
117.0,6.0,2.0,1.0,2.0,2.0,514.9258924648166,2.0,1.0,phase_1,,,,,,,,,,,,,gray,diamond
0.0,7.0,0.0,1.0,4.0,4.0,423.5876444727182,2.0,1.0,phase_1,,,,,,,,,,,,,yellow,square
81.0,6.0,2.0,1.0,3.0,3.0,541.9946555048227,2.0,1.0,phase_1,,,,,,,,,,,,,gray,diamond
0.0,5.0,0.0,1.0,3.0,3.0,462.2665084898472,2.0,1.0,phase_1,,,,,,,,,,,,,green,I
108.0,6.0,2.0,1.0,2.0,2.0,485.956909134984,2.0,1.0,phase_1,,,,,,,,,,,,,gray,diamond
114.0,2.0,2.0,0.0,4.0,4.0,497.1480732783675,2.0,1.0,phase_1,,,,,,,,,,,,,blue,flipped triangle
210.0,3.0,3.0,0.0,2.0,2.0,468.7625067308545,2.0,1.0,phase_1,,,,,,,,,,,,,magenta,circle
27.0,1.0,1.0,0.0,1.0,1.0,482.116169296205,2.0,1.0,phase_1,,,,,,,,,,,,,white,triangle
98.0,6.0,2.0,1.0,1.0,1.0,472.901513800025,2.0,1.0,phase_1,,,,,,,,,,,,,gray,diamond
99.0,6.0,2.0,1.0,1.0,1.0,446.2135881185531,2.0,1.0,phase_1,,,,,,,,,,,,,gray,diamond
0.0,7.0,0.0,1.0,4.0,4.0,519.9522208422422,2.0,1.0,phase_1,,,,,,,,,,,,,yellow,square
124.0,2.0,2.0,0.0,4.0,4.0,468.5964547097683,2.0,1.0,phase_1,,,,,,,,,,,,,blue,flipped triangle
53.0,1.0,1.0,0.0,4.0,4.0,521.0798913612962,2.0,1.0,phase_1,,,,,,,,,,,,,white,triangle
123.0,2.0,2.0,0.0,3.0,3.0,575.1999467611313,2.0,1.0,phase_1,,,,,,,,,,,,,blue,flipped triangle
380.0,4.0,4.0,0.0,4.0,4.0,634.0300971642137,2.0,1.0,phase_1,,,,,,,,,,,,,orange,hexagon
58.0,5.0,1.0,1.0,3.0,3.0,512.3573150485754,2.0,1.0,phase_1,,,,,,,,,,,,,green,I
410.0,8.0,4.0,1.0,2.0,2.0,541.0218760371208,2.0,1.0,phase_1,,,,,,,,,,,,,cyan,cross
409.0,4.0,4.0,0.0,1.0,1.0,433.2326212897897,3.0,1.0,phase_1,,,,,,,,,,,,,orange,hexagon
26.0,1.0,1.0,0.0,1.0,1.0,423.2851937413215,3.0,1.0,phase_1,,,,,,,,,,,,,white,triangle
74.0,1.0,1.0,0.0,2.0,2.0,460.7566883787513,3.0,1.0,phase_1,,,,,,,,,,,,,white,triangle
422.0,8.0,4.0,1.0,4.0,4.0,383.2851499319076,3.0,1.0,phase_1,,,,,,,,,,,,,cyan,cross
79.0,6.0,2.0,1.0,2.0,2.0,465.9913582727313,3.0,1.0,phase_1,,,,,,,,,,,,,gray,diamond
74.0,1.0,1.0,0.0,4.0,4.0,448.3710322529077,3.0,1.0,phase_1,,,,,,,,,,,,,white,triangle
409.0,8.0,4.0,1.0,2.0,2.0,431.1401499435305,3.0,1.0,phase_1,,,,,,,,,,,,,cyan,cross
44.0,1.0,1.0,0.0,1.0,1.0,536.261391825974,3.0,1.0,phase_1,,,,,,,,,,,,,white,triangle
102.0,6.0,2.0,1.0,2.0,2.0,374.5589340105653,3.0,1.0,phase_1,,,,,,,,,,,,,gray,diamond
0.0,8.0,0.0,1.0,4.0,4.0,633.8501870632172,3.0,1.0,phase_1,,,,,,,,,,,,,cyan,cross
110.0,6.0,2.0,1.0,2.0,2.0,390.9142967313528,3.0,1.0,phase_1,,,,,,,,,,,,,gray,diamond
198.0,7.0,3.0,1.0,3.0,3.0,422.8647230193019,3.0,1.0,phase_1,,,,,,,,,,,,,yellow,square
47.0,5.0,1.0,1.0,4.0,4.0,440.0989981368184,3.0,1.0,phase_1,,,,,,,,,,,,,green,I
224.0,7.0,3.0,1.0,3.0,3.0,428.5413613542914,3.0,1.0,phase_1,,,,,,,,,,,,,yellow,square
76.0,6.0,2.0,1.0,1.0,1.0,387.4108716845512,3.0,1.0,phase_1,,,,,,,,,,,,,gray,diamond
123.0,6.0,2.0,1.0,3.0,3.0,441.1516087129712,3.0,1.0,phase_1,,,,,,,,,,,,,gray,diamond
101.0,6.0,2.0,1.0,3.0,3.0,427.5518152862787,3.0,1.0,phase_1,,,,,,,,,,,,,gray,diamond
0.0,8.0,0.0,1.0,4.0,4.0,415.9517241641879,3.0,1.0,phase_1,,,,,,,,,,,,,cyan,cross
376.0,4.0,4.0,0.0,2.0,2.0,612.7446247264743,3.0,1.0,phase_1,,,,,,,,,,,,,orange,hexagon
399.0,4.0,4.0,0.0,1.0,1.0,475.1281999051571,3.0,1.0,phase_1,,,,,,,,,,,,,orange,hexagon
219.0,3.0,3.0,0.0,2.0,2.0,533.5815642029047,3.0,1.0,phase_1,,,,,,,,,,,,,magenta,circle
208.0,7.0,3.0,1.0,4.0,4.0,636.8269268423319,3.0,1.0,phase_1,,,,,,,,,,,,,yellow,square
59.0,1.0,1.0,0.0,1.0,1.0,482.5319992378354,3.0,1.0,phase_1,,,,,,,,,,,,,white,triangle
0.0,1.0,0.0,0.0,4.0,4.0,430.012684315443,3.0,1.0,phase_1,,,,,,,,,,,,,white,triangle
416.0,8.0,4.0,1.0,2.0,2.0,403.6595895886421,3.0,1.0,phase_1,,,,,,,,,,,,,cyan,cross
224.0,7.0,3.0,1.0,1.0,1.0,476.6278881579637,3.0,1.0,phase_1,,,,,,,,,,,,,yellow,square
183.0,3.0,3.0,0.0,1.0,1.0,620.8711424842477,3.0,1.0,phase_1,,,,,,,,,,,,,magenta,circle
416.0,4.0,4.0,0.0,1.0,1.0,481.6744653508067,3.0,1.0,phase_1,,,,,,,,,,,,,orange,hexagon
108.0,2.0,2.0,0.0,4.0,4.0,562.4513868242502,3.0,1.0,phase_1,,,,,,,,,,,,,blue,flipped triangle
49.0,5.0,1.0,1.0,3.0,3.0,537.1221136301756,3.0,1.0,phase_1,,,,,,,,,,,,,green,I
210.0,7.0,3.0,1.0,4.0,4.0,494.8248425498605,3.0,1.0,phase_1,,,,,,,,,,,,,yellow,square
379.0,8.0,4.0,1.0,4.0,4.0,466.4134662598371,3.0,1.0,phase_1,,,,,,,,,,,,,cyan,cross
380.0,8.0,4.0,1.0,4.0,4.0,453.7443043664098,3.0,1.0,phase_1,,,,,,,,,,,,,cyan,cross
42.0,1.0,1.0,0.0,4.0,4.0,410.4125928133726,3.0,1.0,phase_1,,,,,,,,,,,,,white,triangle
404.0,8.0,4.0,1.0,4.0,4.0,406.692418269813,3.0,1.0,phase_1,,,,,,,,,,,,,cyan,cross
0.0,5.0,0.0,1.0,4.0,4.0,444.6432339027524,3.0,1.0,phase_1,,,,,,,,,,,,,green,I
69.0,5.0,1.0,1.0,2.0,2.0,576.1517444625497,3.0,1.0,phase_1,,,,,,,,,,,,,green,I
0.0,4.0,0.0,0.0,2.0,2.0,732.522645033896,3.0,1.0,phase_1,,,,,,,,,,,,,orange,hexagon
124.0,6.0,2.0,1.0,1.0,1.0,666.8120734393597,3.0,1.0,phase_1,,,,,,,,,,,,,gray,diamond
0.0,3.0,0.0,0.0,2.0,2.0,558.4983453154564,3.0,1.0,phase_1,,,,,,,,,,,,,magenta,circle
0.0,1.0,0.0,0.0,1.0,1.0,538.7042202055454,3.0,1.0,phase_1,,,,,,,,,,,,,white,triangle
212.0,7.0,3.0,1.0,1.0,1.0,359.4689397141337,3.0,1.0,phase_1,,,,,,,,,,,,,yellow,square
105.0,2.0,2.0,0.0,3.0,3.0,453.2576892524957,3.0,1.0,phase_1,,,,,,,,,,,,,blue,flipped triangle
416.0,4.0,4.0,0.0,2.0,2.0,545.8007296547294,3.0,1.0,phase_1,,,,,,,,,,,,,orange,hexagon
392.0,8.0,4.0,1.0,1.0,1.0,423.8947154954076,3.0,1.0,phase_1,,,,,,,,,,,,,cyan,cross
185.0,7.0,3.0,1.0,3.0,3.0,466.7071904987097,3.0,1.0,phase_1,,,,,,,,,,,,,yellow,square
382.0,4.0,4.0,0.0,3.0,3.0,456.1473969370127,3.0,1.0,phase_1,,,,,,,,,,,,,orange,hexagon
50.0,5.0,1.0,1.0,2.0,2.0,543.1066313758492,3.0,1.0,phase_1,,,,,,,,,,,,,green,I
0.0,6.0,0.0,1.0,1.0,1.0,522.6944731548429,3.0,1.0,phase_1,,,,,,,,,,,,,gray,diamond
31.0,5.0,1.0,1.0,3.0,3.0,481.0790149495005,3.0,1.0,phase_1,,,,,,,,,,,,,green,I
36.0,5.0,1.0,1.0,3.0,3.0,371.6813614591956,3.0,1.0,phase_1,,,,,,,,,,,,,green,I
222.0,7.0,3.0,1.0,2.0,2.0,566.3912640884519,3.0,1.0,phase_1,,,,,,,,,,,,,yellow,square
94.0,6.0,2.0,1.0,4.0,4.0,541.7094649747014,3.0,1.0,phase_1,,,,,,,,,,,,,gray,diamond
119.0,2.0,2.0,0.0,2.0,2.0,449.7810825705528,3.0,1.0,phase_1,,,,,,,,,,,,,blue,flipped triangle
53.0,5.0,1.0,1.0,1.0,1.0,462.5364979729056,3.0,1.0,phase_1,,,,,,,,,,,,,green,I
182.0,3.0,3.0,0.0,3.0,3.0,378.1205518171191,3.0,1.0,phase_1,,,,,,,,,,,,,magenta,circle
0.0,5.0,0.0,1.0,4.0,4.0,471.5127125382423,3.0,1.0,phase_1,,,,,,,,,,,,,green,I
72.0,1.0,1.0,0.0,1.0,1.0,514.9196181446314,3.0,1.0,phase_1,,,,,,,,,,,,,white,triangle
29.0,1.0,1.0,0.0,4.0,4.0,481.1972035095095,3.0,1.0,phase_1,,,,,,,,,,,,,white,triangle
99.0,6.0,2.0,1.0,4.0,4.0,444.686965085566,3.0,1.0,phase_1,,,,,,,,,,,,,gray,diamond
393.0,4.0,4.0,0.0,4.0,4.0,436.0335636883974,3.0,1.0,phase_1,,,,,,,,,,,,,orange,hexagon
0.0,3.0,0.0,0.0,2.0,2.0,574.1114625707269,3.0,1.0,phase_1,,,,,,,,,,,,,magenta,circle
0.0,4.0,0.0,0.0,2.0,2.0,451.0456537827849,3.0,1.0,phase_1,,,,,,,,,,,,,orange,hexagon
56.0,5.0,1.0,1.0,2.0,2.0,441.5433881804347,3.0,1.0,phase_1,,,,,,,,,,,,,green,I
399.0,4.0,4.0,0.0,1.0,1.0,486.0891373828053,3.0,1.0,phase_1,,,,,,,,,,,,,orange,hexagon
183.0,7.0,3.0,1.0,1.0,1.0,394.3106485530734,3.0,1.0,phase_1,,,,,,,,,,,,,yellow,square
189.0,3.0,3.0,0.0,2.0,2.0,508.7175341323018,3.0,1.0,phase_1,,,,,,,,,,,,,magenta,circle
0.0,4.0,0.0,0.0,2.0,2.0,403.7900771945715,3.0,1.0,phase_1,,,,,,,,,,,,,orange,hexagon
0.0,2.0,0.0,0.0,3.0,3.0,574.8700452968478,3.0,1.0,phase_1,,,,,,,,,,,,,blue,flipped triangle
202.0,3.0,3.0,0.0,3.0,3.0,446.069193072617,3.0,1.0,phase_1,,,,,,,,,,,,,magenta,circle
116.0,6.0,2.0,1.0,1.0,1.0,674.4105070829391,3.0,1.0,phase_1,,,,,,,,,,,,,gray,diamond
0.0,6.0,0.0,1.0,3.0,3.0,556.375565007329,3.0,1.0,phase_1,,,,,,,,,,,,,gray,diamond
224.0,7.0,3.0,1.0,3.0,3.0,445.1008895412087,3.0,1.0,phase_1,,,,,,,,,,,,,yellow,square
380.0,8.0,4.0,1.0,2.0,2.0,633.4742652252316,3.0,1.0,phase_1,,,,,,,,,,,,,cyan,cross
26.0,5.0,1.0,1.0,4.0,4.0,772.2745565697551,3.0,1.0,phase_1,,,,,,,,,,,,,green,I
32.0,5.0,1.0,1.0,3.0,3.0,609.0066842734814,3.0,1.0,phase_1,,,,,,,,,,,,,green,I
82.0,2.0,2.0,0.0,3.0,3.0,509.95497312396765,3.0,1.0,phase_1,,,,,,,,,,,,,blue,flipped triangle
114.0,6.0,2.0,1.0,4.0,4.0,552.1355913951993,3.0,1.0,phase_1,,,,,,,,,,,,,gray,diamond
0.0,1.0,0.0,0.0,2.0,2.0,669.1649369895458,3.0,1.0,phase_1,,,,,,,,,,,,,white,triangle
0.0,4.0,0.0,0.0,3.0,3.0,586.6309469565749,3.0,1.0,phase_1,,,,,,,,,,,,,orange,hexagon
405.0,4.0,4.0,0.0,4.0,4.0,527.2284066304564,3.0,1.0,phase_1,,,,,,,,,,,,,orange,hexagon
415.0,4.0,4.0,0.0,2.0,2.0,631.9891307502985,3.0,2.0,phase_1,,,,,,,,,,,,,orange,hexagon
190.0,7.0,3.0,1.0,3.0,3.0,510.18716860562563,3.0,1.0,phase_1,,,,,,,,,,,,,yellow,square
178.0,7.0,3.0,1.0,3.0,3.0,457.063858397305,3.0,1.0,phase_1,,,,,,,,,,,,,yellow,square
36.0,1.0,1.0,0.0,3.0,3.0,360.06592027843,3.0,1.0,phase_1,,,,,,,,,,,,,white,triangle
35.0,1.0,1.0,0.0,2.0,2.0,573.3417943120003,3.0,1.0,phase_1,,,,,,,,,,,,,white,triangle
0.0,2.0,0.0,0.0,3.0,3.0,416.1477833986282,3.0,1.0,phase_1,,,,,,,,,,,,,blue,flipped triangle
190.0,7.0,3.0,1.0,2.0,2.0,469.7024831548333,3.0,1.0,phase_1,,,,,,,,,,,,,yellow,square
210.0,3.0,3.0,0.0,1.0,1.0,484.5104292035103,3.0,1.0,phase_1,,,,,,,,,,,,,magenta,circle
201.0,3.0,3.0,0.0,4.0,4.0,391.4987463504076,3.0,1.0,phase_1,,,,,,,,,,,,,magenta,circle
0.0,8.0,0.0,1.0,4.0,4.0,374.3029488250613,3.0,1.0,phase_1,,,,,,,,,,,,,cyan,cross
407.0,4.0,4.0,0.0,1.0,1.0,473.0130489915609,3.0,1.0,phase_1,,,,,,,,,,,,,orange,hexagon
64.0,1.0,1.0,0.0,1.0,1.0,379.1399765759706,3.0,1.0,phase_1,,,,,,,,,,,,,white,triangle
208.0,7.0,3.0,1.0,4.0,4.0,505.83351124078035,3.0,1.0,phase_1,,,,,,,,,,,,,yellow,square
415.0,8.0,4.0,1.0,1.0,1.0,408.1358276307583,3.0,1.0,phase_1,,,,,,,,,,,,,cyan,cross
422.0,8.0,4.0,1.0,2.0,2.0,338.0919359624386,3.0,1.0,phase_1,,,,,,,,,,,,,cyan,cross
188.0,3.0,3.0,0.0,3.0,3.0,575.2154365181923,3.0,1.0,phase_1,,,,,,,,,,,,,magenta,circle
79.0,2.0,2.0,0.0,4.0,4.0,412.7205517143011,3.0,1.0,phase_1,,,,,,,,,,,,,blue,flipped triangle
410.0,4.0,4.0,0.0,4.0,4.0,472.2879603505134,3.0,1.0,phase_1,,,,,,,,,,,,,orange,hexagon
187.0,3.0,3.0,0.0,4.0,4.0,350.4000818356871,3.0,1.0,phase_1,,,,,,,,,,,,,magenta,circle
405.0,8.0,4.0,1.0,4.0,4.0,531.8795097991824,4.0,1.0,phase_1,,,,,,,,,,,,,cyan,cross
28.0,1.0,1.0,0.0,4.0,4.0,423.5057234764099,4.0,1.0,phase_1,,,,,,,,,,,,,white,triangle
222.0,3.0,3.0,0.0,4.0,4.0,378.5082064568996,4.0,1.0,phase_1,,,,,,,,,,,,,magenta,circle
189.0,7.0,3.0,1.0,4.0,4.0,303.794976323843,4.0,1.0,phase_1,,,,,,,,,,,,,yellow,square
105.0,6.0,2.0,1.0,3.0,3.0,555.476538836956,4.0,1.0,phase_1,,,,,,,,,,,,,gray,diamond
403.0,4.0,4.0,0.0,3.0,3.0,410.7582792639732,4.0,1.0,phase_1,,,,,,,,,,,,,orange,hexagon
380.0,4.0,4.0,0.0,1.0,1.0,575.005691498518,4.0,1.0,phase_1,,,,,,,,,,,,,orange,hexagon
207.0,7.0,3.0,1.0,3.0,3.0,397.7088592946529,4.0,1.0,phase_1,,,,,,,,,,,,,yellow,square
78.0,2.0,2.0,0.0,4.0,4.0,465.858694165945,4.0,1.0,phase_1,,,,,,,,,,,,,blue,flipped triangle
42.0,5.0,1.0,1.0,1.0,1.0,468.6860693618655,4.0,1.0,phase_1,,,,,,,,,,,,,green,I
382.0,8.0,4.0,1.0,2.0,2.0,345.4882055521011,4.0,1.0,phase_1,,,,,,,,,,,,,cyan,cross
207.0,3.0,3.0,0.0,3.0,3.0,468.4953466057777,4.0,1.0,phase_1,,,,,,,,,,,,,magenta,circle
416.0,4.0,4.0,0.0,4.0,4.0,650.0571081414819,4.0,1.0,phase_1,,,,,,,,,,,,,orange,hexagon
180.0,7.0,3.0,1.0,2.0,2.0,501.51057448238134,4.0,1.0,phase_1,,,,,,,,,,,,,yellow,square
0.0,6.0,0.0,1.0,3.0,3.0,500.94726122915745,4.0,1.0,phase_1,,,,,,,,,,,,,gray,diamond
53.0,1.0,1.0,0.0,2.0,2.0,465.2348291128874,4.0,1.0,phase_1,,,,,,,,,,,,,white,triangle
0.0,5.0,0.0,1.0,3.0,3.0,494.1727733239531,4.0,1.0,phase_1,,,,,,,,,,,,,green,I
403.0,4.0,4.0,0.0,4.0,4.0,424.4020907208323,4.0,1.0,phase_1,,,,,,,,,,,,,orange,hexagon
0.0,2.0,0.0,0.0,2.0,2.0,485.3237243369221,4.0,1.0,phase_1,,,,,,,,,,,,,blue,flipped triangle
27.0,5.0,1.0,1.0,2.0,2.0,473.5523648560047,4.0,1.0,phase_1,,,,,,,,,,,,,green,I
0.0,7.0,0.0,1.0,1.0,1.0,641.3572803139687,4.0,1.0,phase_1,,,,,,,,,,,,,yellow,square
99.0,2.0,2.0,0.0,1.0,1.0,427.8956139460206,4.0,1.0,phase_1,,,,,,,,,,,,,blue,flipped triangle
69.0,5.0,1.0,1.0,1.0,1.0,391.5461227297783,4.0,1.0,phase_1,,,,,,,,,,,,,green,I
101.0,2.0,2.0,0.0,1.0,1.0,399.5665172114968,4.0,1.0,phase_1,,,,,,,,,,,,,blue,flipped triangle
71.0,1.0,1.0,0.0,2.0,2.0,457.6841471716761,4.0,1.0,phase_1,,,,,,,,,,,,,white,triangle
224.0,3.0,3.0,0.0,1.0,1.0,495.7503117620945,4.0,1.0,phase_1,,,,,,,,,,,,,magenta,circle
394.0,4.0,4.0,0.0,3.0,3.0,571.3355354964733,4.0,1.0,phase_1,,,,,,,,,,,,,orange,hexagon
32.0,5.0,1.0,1.0,4.0,4.0,481.5160790458321,4.0,1.0,phase_1,,,,,,,,,,,,,green,I
46.0,5.0,1.0,1.0,1.0,1.0,646.4318512007594,4.0,1.0,phase_1,,,,,,,,,,,,,green,I
218.0,7.0,3.0,1.0,3.0,3.0,507.01205153018236,4.0,1.0,phase_1,,,,,,,,,,,,,yellow,square
0.0,1.0,0.0,0.0,2.0,2.0,551.2144304811954,4.0,1.0,phase_1,,,,,,,,,,,,,white,triangle
391.0,4.0,4.0,0.0,1.0,1.0,518.1305734440684,4.0,1.0,phase_1,,,,,,,,,,,,,orange,hexagon
0.0,6.0,0.0,1.0,2.0,2.0,553.4295793622732,4.0,1.0,phase_1,,,,,,,,,,,,,gray,diamond
389.0,4.0,4.0,0.0,4.0,4.0,469.7028612717986,4.0,1.0,phase_1,,,,,,,,,,,,,orange,hexagon
64.0,5.0,1.0,1.0,2.0,2.0,472.8303346782923,4.0,1.0,phase_1,,,,,,,,,,,,,green,I
178.0,3.0,3.0,0.0,2.0,2.0,424.2338305339217,4.0,1.0,phase_1,,,,,,,,,,,,,magenta,circle
413.0,4.0,4.0,0.0,4.0,4.0,593.5864457860589,4.0,1.0,phase_1,,,,,,,,,,,,,orange,hexagon
184.0,3.0,3.0,0.0,2.0,2.0,577.0510137081146,4.0,1.0,phase_1,,,,,,,,,,,,,magenta,circle
78.0,2.0,2.0,0.0,3.0,3.0,590.9809907898307,4.0,1.0,phase_1,,,,,,,,,,,,,blue,flipped triangle
421.0,8.0,4.0,1.0,3.0,3.0,391.5809104219079,4.0,1.0,phase_1,,,,,,,,,,,,,cyan,cross
0.0,6.0,0.0,1.0,3.0,3.0,476.2562550604343,4.0,1.0,phase_1,,,,,,,,,,,,,gray,diamond
416.0,8.0,4.0,1.0,2.0,2.0,810.4760684072971,4.0,1.0,phase_1,,,,,,,,,,,,,cyan,cross
77.0,6.0,2.0,1.0,4.0,4.0,766.0732753574848,4.0,1.0,phase_1,,,,,,,,,,,,,gray,diamond
49.0,1.0,1.0,0.0,2.0,2.0,706.4812472090125,4.0,1.0,phase_1,,,,,,,,,,,,,white,triangle
0.0,6.0,0.0,1.0,3.0,3.0,489.7365272045135,4.0,1.0,phase_1,,,,,,,,,,,,,gray,diamond
0.0,8.0,0.0,1.0,2.0,2.0,646.5348470956087,4.0,1.0,phase_1,,,,,,,,,,,,,cyan,cross
0.0,1.0,0.0,0.0,2.0,2.0,415.8686464652419,4.0,1.0,phase_1,,,,,,,,,,,,,white,triangle
63.0,1.0,1.0,0.0,1.0,1.0,560.2234955877066,4.0,1.0,phase_1,,,,,,,,,,,,,white,triangle
213.0,3.0,3.0,0.0,2.0,2.0,469.1643975675106,4.0,1.0,phase_1,,,,,,,,,,,,,magenta,circle
404.0,8.0,4.0,1.0,4.0,4.0,392.2169478610158,4.0,1.0,phase_1,,,,,,,,,,,,,cyan,cross
190.0,3.0,3.0,0.0,4.0,4.0,476.1739503592253,4.0,1.0,phase_1,,,,,,,,,,,,,magenta,circle
76.0,2.0,2.0,0.0,3.0,3.0,575.99360588938,4.0,1.0,phase_1,,,,,,,,,,,,,blue,flipped triangle
0.0,3.0,0.0,0.0,4.0,4.0,372.6800009608269,4.0,1.0,phase_1,,,,,,,,,,,,,magenta,circle
376.0,8.0,4.0,1.0,1.0,1.0,619.9395442381501,4.0,1.0,phase_1,,,,,,,,,,,,,cyan,cross
0.0,5.0,0.0,1.0,2.0,2.0,543.8145995140076,4.0,1.0,phase_1,,,,,,,,,,,,,green,I
41.0,1.0,1.0,0.0,2.0,2.0,517.5860114395618,4.0,1.0,phase_1,,,,,,,,,,,,,white,triangle
108.0,6.0,2.0,1.0,2.0,2.0,329.8784149810672,4.0,1.0,phase_1,,,,,,,,,,,,,gray,diamond
64.0,1.0,1.0,0.0,3.0,3.0,516.8399894610047,4.0,1.0,phase_1,,,,,,,,,,,,,white,triangle
220.0,3.0,3.0,0.0,3.0,3.0,387.781242839992,4.0,1.0,phase_1,,,,,,,,,,,,,magenta,circle
98.0,2.0,2.0,0.0,3.0,3.0,437.0853519067168,4.0,1.0,phase_1,,,,,,,,,,,,,blue,flipped triangle
386.0,8.0,4.0,1.0,3.0,3.0,413.5772697627544,4.0,1.0,phase_1,,,,,,,,,,,,,cyan,cross
88.0,2.0,2.0,0.0,4.0,4.0,534.7416205331683,4.0,1.0,phase_1,,,,,,,,,,,,,blue,flipped triangle
115.0,6.0,2.0,1.0,2.0,2.0,459.4373265281319,4.0,1.0,phase_1,,,,,,,,,,,,,gray,diamond
117.0,6.0,2.0,1.0,4.0,4.0,432.1049032732844,4.0,1.0,phase_1,,,,,,,,,,,,,gray,diamond
78.0,6.0,2.0,1.0,3.0,3.0,436.6459334269166,4.0,1.0,phase_1,,,,,,,,,,,,,gray,diamond
96.0,2.0,2.0,0.0,1.0,1.0,646.0300767794251,4.0,2.0,phase_1,,,,,,,,,,,,,blue,flipped triangle
182.0,3.0,3.0,0.0,1.0,1.0,394.7505690157413,4.0,1.0,phase_1,,,,,,,,,,,,,magenta,circle
92.0,6.0,2.0,1.0,3.0,3.0,779.2861424386501,4.0,1.0,phase_1,,,,,,,,,,,,,gray,diamond
31.0,1.0,1.0,0.0,3.0,3.0,446.9219390302896,4.0,1.0,phase_1,,,,,,,,,,,,,white,triangle
421.0,4.0,4.0,0.0,1.0,1.0,387.2991558164358,4.0,1.0,phase_1,,,,,,,,,,,,,orange,hexagon
35.0,1.0,1.0,0.0,3.0,3.0,487.0517728850245,4.0,1.0,phase_1,,,,,,,,,,,,,white,triangle
92.0,2.0,2.0,0.0,1.0,1.0,589.8388894274831,4.0,1.0,phase_1,,,,,,,,,,,,,blue,flipped triangle
0.0,8.0,0.0,1.0,4.0,4.0,546.0443906486034,4.0,1.0,phase_1,,,,,,,,,,,,,cyan,cross
32.0,1.0,1.0,0.0,3.0,3.0,509.6979849040508,4.0,1.0,phase_1,,,,,,,,,,,,,white,triangle
101.0,6.0,2.0,1.0,3.0,3.0,444.6266870945692,4.0,1.0,phase_1,,,,,,,,,,,,,gray,diamond
99.0,2.0,2.0,0.0,1.0,1.0,592.4611119553447,4.0,1.0,phase_1,,,,,,,,,,,,,blue,flipped triangle
399.0,8.0,4.0,1.0,1.0,1.0,378.5289889201522,4.0,1.0,phase_1,,,,,,,,,,,,,cyan,cross
0.0,6.0,0.0,1.0,4.0,4.0,526.6156401485205,4.0,1.0,phase_1,,,,,,,,,,,,,gray,diamond
35.0,5.0,1.0,1.0,2.0,2.0,547.2210310399532,4.0,1.0,phase_1,,,,,,,,,,,,,green,I
74.0,5.0,1.0,1.0,3.0,3.0,600.443203933537,4.0,1.0,phase_1,,,,,,,,,,,,,green,I
81.0,2.0,2.0,0.0,1.0,1.0,589.0016984194517,4.0,1.0,phase_1,,,,,,,,,,,,,blue,flipped triangle
0.0,5.0,0.0,1.0,2.0,2.0,468.8103767111897,4.0,1.0,phase_1,,,,,,,,,,,,,green,I
219.0,7.0,3.0,1.0,4.0,4.0,381.7639406770468,4.0,1.0,phase_1,,,,,,,,,,,,,yellow,square
220.0,7.0,3.0,1.0,2.0,2.0,612.4553075060248,4.0,1.0,phase_1,,,,,,,,,,,,,yellow,square
421.0,4.0,4.0,0.0,2.0,2.0,391.2833202630281,4.0,1.0,phase_1,,,,,,,,,,,,,orange,hexagon
190.0,7.0,3.0,1.0,2.0,2.0,389.6729908883571,4.0,1.0,phase_1,,,,,,,,,,,,,yellow,square
94.0,6.0,2.0,1.0,4.0,4.0,491.5813514962792,4.0,1.0,phase_1,,,,,,,,,,,,,gray,diamond
421.0,4.0,4.0,0.0,4.0,4.0,422.3479991778731,4.0,1.0,phase_1,,,,,,,,,,,,,orange,hexagon
0.0,3.0,0.0,0.0,3.0,3.0,493.8786309212446,4.0,1.0,phase_1,,,,,,,,,,,,,magenta,circle
416.0,8.0,4.0,1.0,1.0,1.0,670.7430500537157,4.0,1.0,phase_1,,,,,,,,,,,,,cyan,cross
194.0,7.0,3.0,1.0,3.0,3.0,587.5541288405657,4.0,1.0,phase_1,,,,,,,,,,,,,yellow,square
0.0,1.0,0.0,0.0,2.0,2.0,591.9138360768557,4.0,1.0,phase_1,,,,,,,,,,,,,white,triangle
0.0,1.0,0.0,0.0,4.0,4.0,383.719090372324,4.0,1.0,phase_1,,,,,,,,,,,,,white,triangle
89.0,6.0,2.0,1.0,1.0,1.0,389.460570178926,4.0,1.0,phase_1,,,,,,,,,,,,,gray,diamond
198.0,3.0,3.0,0.0,2.0,2.0,373.8976689055562,4.0,1.0,phase_1,,,,,,,,,,,,,magenta,circle
0.0,6.0,0.0,1.0,1.0,1.0,501.6986485570669,4.0,1.0,phase_1,,,,,,,,,,,,,gray,diamond
40.0,1.0,1.0,0.0,3.0,3.0,473.5766090452671,4.0,1.0,phase_1,,,,,,,,,,,,,white,triangle
69.0,1.0,1.0,0.0,4.0,4.0,357.9241884872317,4.0,1.0,phase_1,,,,,,,,,,,,,white,triangle
41.0,5.0,1.0,1.0,1.0,1.0,412.6492561772465,4.0,1.0,phase_1,,,,,,,,,,,,,green,I
187.0,7.0,3.0,1.0,4.0,4.0,663.2426846772432,4.0,1.0,phase_1,,,,,,,,,,,,,yellow,square
0.0,7.0,3.0,1.0,6.0,6.0,631.2779569998384,1.0,1.0,phase_2,stop,250.0,250.0,3.0,,,,,,,,,yellow,square
0.0,4.0,4.0,0.0,6.0,6.0,620.0778065249324,1.0,1.0,phase_2,go,250.0,200.0,1.0,,,,,,,,,orange,hexagon
0.0,1.0,1.0,0.0,6.0,6.0,331.1557518318295,1.0,1.0,phase_2,go,250.0,200.0,1.0,,,,,,,,,white,triangle
0.0,7.0,3.0,1.0,6.0,6.0,323.1526054441929,1.0,1.0,phase_2,stop,250.0,200.0,3.0,,,,,,,,,yellow,square
0.0,2.0,2.0,0.0,5.0,5.0,604.8460816964507,1.0,1.0,phase_2,go,250.0,150.0,1.0,,,,,,,,,blue,flipped triangle
0.0,7.0,3.0,1.0,6.0,0.0,0.0,1.0,1.0,phase_2,stop,250.0,150.0,4.0,,,,,,,,,yellow,square
0.0,6.0,2.0,1.0,5.0,5.0,496.9888944178819,1.0,1.0,phase_2,go,250.0,200.0,1.0,,,,,,,,,gray,diamond
0.0,5.0,1.0,1.0,5.0,5.0,456.0726406052708,1.0,1.0,phase_2,stop,250.0,200.0,3.0,,,,,,,,,green,I
0.0,2.0,2.0,0.0,5.0,5.0,679.8577830195427,1.0,1.0,phase_2,go,200.0,200.0,1.0,,,,,,,,,blue,flipped triangle
0.0,4.0,4.0,0.0,5.0,5.0,695.1334271579981,1.0,1.0,phase_2,go,200.0,200.0,1.0,,,,,,,,,orange,hexagon
0.0,5.0,1.0,1.0,6.0,6.0,353.6186935380101,1.0,1.0,phase_2,stop,200.0,200.0,3.0,,,,,,,,,green,I
0.0,4.0,4.0,0.0,5.0,5.0,625.593900680542,1.0,1.0,phase_2,go,200.0,150.0,1.0,,,,,,,,,orange,hexagon
0.0,8.0,4.0,1.0,6.0,6.0,381.2137572094798,1.0,1.0,phase_2,stop,200.0,150.0,3.0,,,,,,,,,cyan,cross
0.0,5.0,1.0,1.0,5.0,0.0,0.0,1.0,1.0,phase_2,stop,200.0,100.0,4.0,,,,,,,,,green,I
0.0,5.0,1.0,1.0,5.0,0.0,0.0,1.0,1.0,phase_2,stop,250.0,100.0,4.0,,,,,,,,,green,I
0.0,7.0,3.0,1.0,5.0,5.0,518.6029793694615,1.0,1.0,phase_2,go,300.0,100.0,1.0,,,,,,,,,yellow,square
0.0,7.0,3.0,1.0,5.0,5.0,451.2862591072917,1.0,1.0,phase_2,stop,300.0,100.0,3.0,,,,,,,,,yellow,square
0.0,3.0,3.0,0.0,5.0,5.0,1085.8218865469098,1.0,1.0,phase_2,go,250.0,100.0,1.0,,,,,,,,,magenta,circle
0.0,3.0,3.0,0.0,6.0,6.0,690.4840171337128,1.0,1.0,phase_2,go,250.0,100.0,1.0,,,,,,,,,magenta,circle
0.0,4.0,4.0,0.0,5.0,5.0,585.6201779097319,1.0,1.0,phase_2,go,250.0,100.0,1.0,,,,,,,,,orange,hexagon
0.0,2.0,2.0,0.0,6.0,6.0,540.0427021086216,1.0,1.0,phase_2,go,250.0,100.0,1.0,,,,,,,,,blue,flipped triangle
0.0,3.0,3.0,0.0,6.0,6.0,465.0330450385809,1.0,1.0,phase_2,go,250.0,100.0,1.0,,,,,,,,,magenta,circle
0.0,4.0,4.0,0.0,6.0,6.0,456.5426036715507,1.0,1.0,phase_2,go,250.0,100.0,1.0,,,,,,,,,orange,hexagon
0.0,5.0,1.0,1.0,5.0,5.0,394.6295147761702,1.0,1.0,phase_2,stop,250.0,100.0,3.0,,,,,,,,,green,I
0.0,8.0,4.0,1.0,5.0,5.0,553.236591629684,1.0,1.0,phase_2,go,200.0,100.0,1.0,,,,,,,,,cyan,cross
0.0,3.0,3.0,0.0,5.0,5.0,384.9752219393849,1.0,1.0,phase_2,go,200.0,100.0,1.0,,,,,,,,,magenta,circle
0.0,6.0,2.0,1.0,6.0,0.0,0.0,1.0,1.0,phase_2,stop,200.0,100.0,4.0,,,,,,,,,gray,diamond
0.0,1.0,1.0,0.0,5.0,5.0,549.2605566978455,1.0,1.0,phase_2,go,200.0,150.0,1.0,,,,,,,,,white,triangle
0.0,7.0,3.0,1.0,6.0,0.0,0.0,1.0,1.0,phase_2,stop,200.0,150.0,4.0,,,,,,,,,yellow,square
0.0,4.0,4.0,0.0,6.0,6.0,540.3496827930212,1.0,1.0,phase_2,go,200.0,200.0,1.0,,,,,,,,,orange,hexagon
0.0,5.0,1.0,1.0,5.0,5.0,543.733773753047,1.0,1.0,phase_2,go,200.0,200.0,1.0,,,,,,,,,green,I
0.0,4.0,4.0,0.0,6.0,6.0,622.0501968637109,1.0,1.0,phase_2,go,200.0,200.0,1.0,,,,,,,,,orange,hexagon
0.0,7.0,3.0,1.0,6.0,6.0,412.9834631457925,1.0,1.0,phase_2,stop,200.0,200.0,3.0,,,,,,,,,yellow,square
0.0,6.0,2.0,1.0,6.0,0.0,0.0,1.0,1.0,phase_2,stop,200.0,150.0,4.0,,,,,,,,,gray,diamond
0.0,3.0,3.0,0.0,5.0,5.0,449.5644001290202,1.0,1.0,phase_2,go,200.0,200.0,1.0,,,,,,,,,magenta,circle
0.0,2.0,2.0,0.0,5.0,5.0,425.0051379203796,1.0,1.0,phase_2,go,200.0,200.0,1.0,,,,,,,,,blue,flipped triangle
0.0,7.0,3.0,1.0,5.0,0.0,0.0,2.0,1.0,phase_2,stop,200.0,200.0,4.0,,,,,,,,,yellow,square
0.0,4.0,4.0,0.0,6.0,6.0,517.7137581631541,2.0,1.0,phase_2,go,250.0,200.0,1.0,,,,,,,,,orange,hexagon
0.0,3.0,3.0,0.0,6.0,6.0,362.465470097959,2.0,1.0,phase_2,go,250.0,200.0,1.0,,,,,,,,,magenta,circle
0.0,6.0,2.0,1.0,5.0,5.0,340.5587431043386,2.0,1.0,phase_2,stop,250.0,200.0,3.0,,,,,,,,,gray,diamond
0.0,6.0,2.0,1.0,6.0,6.0,345.3786429017782,2.0,1.0,phase_2,stop,200.0,200.0,3.0,,,,,,,,,gray,diamond
0.0,4.0,4.0,0.0,6.0,6.0,491.4418738335371,2.0,1.0,phase_2,go,200.0,150.0,1.0,,,,,,,,,orange,hexagon
0.0,2.0,2.0,0.0,6.0,6.0,346.3760754093528,2.0,1.0,phase_2,go,200.0,150.0,1.0,,,,,,,,,blue,flipped triangle
0.0,4.0,4.0,0.0,6.0,6.0,362.8448350355029,2.0,1.0,phase_2,go,200.0,150.0,1.0,,,,,,,,,orange,hexagon
0.0,2.0,2.0,0.0,6.0,6.0,312.2160425409674,2.0,1.0,phase_2,go,200.0,150.0,1.0,,,,,,,,,blue,flipped triangle
0.0,8.0,4.0,1.0,5.0,5.0,440.634130500257,2.0,1.0,phase_2,stop,200.0,150.0,3.0,,,,,,,,,cyan,cross
0.0,1.0,1.0,0.0,6.0,6.0,408.4689058363437,2.0,1.0,phase_2,go,150.0,150.0,1.0,,,,,,,,,white,triangle
0.0,5.0,1.0,1.0,6.0,0.0,0.0,2.0,1.0,phase_2,stop,150.0,150.0,4.0,,,,,,,,,green,I
0.0,8.0,4.0,1.0,5.0,0.0,0.0,2.0,1.0,phase_2,stop,150.0,200.0,4.0,,,,,,,,,cyan,cross
0.0,8.0,4.0,1.0,6.0,0.0,0.0,2.0,1.0,phase_2,stop,200.0,200.0,4.0,,,,,,,,,cyan,cross
0.0,8.0,4.0,1.0,6.0,6.0,413.4498341009021,2.0,1.0,phase_2,go,200.0,250.0,1.0,,,,,,,,,cyan,cross
0.0,5.0,1.0,1.0,6.0,0.0,0.0,2.0,1.0,phase_2,stop,200.0,250.0,4.0,,,,,,,,,green,I
0.0,2.0,2.0,0.0,5.0,5.0,573.8099599257112,2.0,1.0,phase_2,go,200.0,300.0,1.0,,,,,,,,,blue,flipped triangle
0.0,8.0,4.0,1.0,5.0,0.0,0.0,2.0,1.0,phase_2,stop,200.0,300.0,4.0,,,,,,,,,cyan,cross
0.0,8.0,4.0,1.0,6.0,6.0,586.4203795790672,2.0,1.0,phase_2,go,250.0,300.0,1.0,,,,,,,,,cyan,cross
0.0,3.0,3.0,0.0,5.0,5.0,592.6847504451871,2.0,1.0,phase_2,go,250.0,300.0,1.0,,,,,,,,,magenta,circle
0.0,7.0,3.0,1.0,6.0,0.0,0.0,2.0,1.0,phase_2,stop,250.0,300.0,4.0,,,,,,,,,yellow,square
0.0,5.0,1.0,1.0,5.0,0.0,0.0,2.0,1.0,phase_2,stop,250.0,350.0,4.0,,,,,,,,,green,I
0.0,3.0,3.0,0.0,5.0,5.0,466.0661369562149,2.0,1.0,phase_2,go,300.0,350.0,1.0,,,,,,,,,magenta,circle
0.0,1.0,1.0,0.0,6.0,6.0,399.8747766017914,2.0,1.0,phase_2,go,300.0,350.0,1.0,,,,,,,,,white,triangle
0.0,5.0,1.0,1.0,6.0,6.0,441.1561610177159,2.0,1.0,phase_2,stop,300.0,350.0,3.0,,,,,,,,,green,I
0.0,2.0,2.0,0.0,6.0,6.0,517.4593711271882,2.0,1.0,phase_2,go,300.0,300.0,1.0,,,,,,,,,blue,flipped triangle
0.0,6.0,2.0,1.0,6.0,6.0,376.7172629013657,2.0,1.0,phase_2,go,300.0,300.0,1.0,,,,,,,,,gray,diamond
0.0,1.0,1.0,0.0,5.0,5.0,799.5770610868931,2.0,1.0,phase_2,go,300.0,300.0,1.0,,,,,,,,,white,triangle
0.0,1.0,1.0,0.0,6.0,6.0,0.2028131857514,2.0,1.0,phase_2,go,300.0,300.0,1.0,,,,,,,,,white,triangle
0.0,2.0,2.0,0.0,6.0,6.0,758.3539839833975,2.0,1.0,phase_2,go,300.0,300.0,1.0,,,,,,,,,blue,flipped triangle
0.0,1.0,1.0,0.0,6.0,6.0,551.1274356395006,2.0,1.0,phase_2,go,300.0,300.0,1.0,,,,,,,,,white,triangle
0.0,3.0,3.0,0.0,6.0,6.0,586.801465600729,2.0,1.0,phase_2,go,300.0,300.0,1.0,,,,,,,,,magenta,circle
0.0,7.0,3.0,1.0,6.0,6.0,796.5447008609772,2.0,1.0,phase_2,go,300.0,300.0,1.0,,,,,,,,,yellow,square
0.0,7.0,3.0,1.0,6.0,6.0,332.2991039603948,2.0,1.0,phase_2,stop,300.0,300.0,3.0,,,,,,,,,yellow,square
0.0,3.0,3.0,0.0,5.0,5.0,578.5585334524512,2.0,1.0,phase_2,go,300.0,250.0,1.0,,,,,,,,,magenta,circle
0.0,8.0,4.0,1.0,5.0,5.0,650.2009984105825,2.0,1.0,phase_2,go,300.0,250.0,1.0,,,,,,,,,cyan,cross
0.0,1.0,1.0,0.0,6.0,6.0,713.2368059828877,3.0,1.0,phase_2,go,300.0,250.0,1.0,,,,,,,,,white,triangle
0.0,1.0,1.0,0.0,6.0,6.0,482.47218504548067,3.0,1.0,phase_2,go,300.0,250.0,1.0,,,,,,,,,white,triangle
0.0,6.0,2.0,1.0,5.0,5.0,439.1276463866234,3.0,1.0,phase_2,stop,300.0,250.0,3.0,,,,,,,,,gray,diamond
0.0,4.0,4.0,0.0,5.0,5.0,434.5567747950554,3.0,1.0,phase_2,go,250.0,250.0,1.0,,,,,,,,,orange,hexagon
0.0,6.0,2.0,1.0,5.0,5.0,431.4116137102246,3.0,1.0,phase_2,stop,250.0,250.0,3.0,,,,,,,,,gray,diamond
0.0,3.0,3.0,0.0,6.0,6.0,520.402661524713,3.0,1.0,phase_2,go,200.0,250.0,1.0,,,,,,,,,magenta,circle
0.0,1.0,1.0,0.0,5.0,5.0,358.7482096627354,3.0,1.0,phase_2,go,200.0,250.0,1.0,,,,,,,,,white,triangle
0.0,8.0,4.0,1.0,6.0,6.0,335.3233579546213,3.0,1.0,phase_2,stop,200.0,250.0,3.0,,,,,,,,,cyan,cross
0.0,3.0,3.0,0.0,5.0,5.0,445.6684272736311,3.0,1.0,phase_2,go,200.0,200.0,1.0,,,,,,,,,magenta,circle
0.0,5.0,1.0,1.0,5.0,5.0,355.3780131042003,3.0,1.0,phase_2,go,200.0,200.0,1.0,,,,,,,,,green,I
0.0,8.0,4.0,1.0,6.0,0.0,0.0,3.0,1.0,phase_2,stop,200.0,200.0,4.0,,,,,,,,,cyan,cross
0.0,8.0,4.0,1.0,5.0,0.0,0.0,3.0,1.0,phase_2,stop,200.0,250.0,4.0,,,,,,,,,cyan,cross
0.0,7.0,3.0,1.0,6.0,0.0,0.0,3.0,1.0,phase_2,stop,250.0,250.0,4.0,,,,,,,,,yellow,square
0.0,1.0,1.0,0.0,6.0,6.0,595.1880794018507,3.0,1.0,phase_2,go,250.0,300.0,1.0,,,,,,,,,white,triangle
0.0,6.0,2.0,1.0,5.0,5.0,595.5559480935335,3.0,1.0,phase_2,go,250.0,300.0,1.0,,,,,,,,,gray,diamond
0.0,5.0,1.0,1.0,6.0,6.0,699.2360530421138,3.0,1.0,phase_2,go,250.0,300.0,1.0,,,,,,,,,green,I
0.0,5.0,1.0,1.0,5.0,0.0,0.0,3.0,1.0,phase_2,stop,250.0,300.0,4.0,,,,,,,,,green,I
0.0,7.0,3.0,1.0,5.0,0.0,0.0,3.0,1.0,phase_2,stop,300.0,300.0,4.0,,,,,,,,,yellow,square
0.0,6.0,2.0,1.0,6.0,6.0,586.683226749301,3.0,1.0,phase_2,go,350.0,300.0,1.0,,,,,,,,,gray,diamond
0.0,2.0,2.0,0.0,5.0,5.0,582.6237872242928,3.0,1.0,phase_2,go,350.0,300.0,1.0,,,,,,,,,blue,flipped triangle
0.0,3.0,3.0,0.0,6.0,6.0,488.3832363411784,3.0,1.0,phase_2,go,350.0,300.0,1.0,,,,,,,,,magenta,circle
0.0,8.0,4.0,1.0,5.0,0.0,0.0,3.0,1.0,phase_2,stop,350.0,300.0,4.0,,,,,,,,,cyan,cross
0.0,2.0,2.0,0.0,5.0,5.0,596.4172398671508,3.0,1.0,phase_2,go,400.0,300.0,1.0,,,,,,,,,blue,flipped triangle
0.0,1.0,1.0,0.0,6.0,6.0,589.9616209790111,3.0,1.0,phase_2,go,400.0,300.0,1.0,,,,,,,,,white,triangle
0.0,8.0,4.0,1.0,6.0,6.0,565.1250341907144,3.0,1.0,phase_2,go,400.0,300.0,1.0,,,,,,,,,cyan,cross
0.0,6.0,2.0,1.0,6.0,0.0,0.0,3.0,1.0,phase_2,stop,400.0,300.0,4.0,,,,,,,,,gray,diamond
0.0,5.0,1.0,1.0,6.0,0.0,0.0,3.0,1.0,phase_2,stop,400.0,350.0,4.0,,,,,,,,,green,I
0.0,7.0,3.0,1.0,6.0,6.0,556.6012393683195,3.0,1.0,phase_2,stop,400.0,400.0,3.0,,,,,,,,,yellow,square
0.0,4.0,4.0,0.0,5.0,5.0,499.5248951017856,3.0,1.0,phase_2,go,400.0,350.0,1.0,,,,,,,,,orange,hexagon
0.0,8.0,4.0,1.0,6.0,0.0,0.0,3.0,1.0,phase_2,stop,400.0,350.0,4.0,,,,,,,,,cyan,cross
0.0,3.0,3.0,0.0,6.0,6.0,507.8545780852437,3.0,1.0,phase_2,go,400.0,400.0,1.0,,,,,,,,,magenta,circle
0.0,6.0,2.0,1.0,6.0,0.0,0.0,3.0,1.0,phase_2,stop,400.0,400.0,4.0,,,,,,,,,gray,diamond
0.0,4.0,4.0,0.0,6.0,6.0,704.7165734693408,3.0,1.0,phase_2,go,400.0,450.0,1.0,,,,,,,,,orange,hexagon
0.0,2.0,2.0,0.0,6.0,6.0,566.5667615830898,3.0,1.0,phase_2,go,400.0,450.0,1.0,,,,,,,,,blue,flipped triangle
0.0,1.0,1.0,0.0,6.0,6.0,510.25670301169157,3.0,1.0,phase_2,go,400.0,450.0,1.0,,,,,,,,,white,triangle
0.0,4.0,4.0,0.0,6.0,6.0,726.920947432518,3.0,1.0,phase_2,go,400.0,450.0,1.0,,,,,,,,,orange,hexagon
0.0,6.0,2.0,1.0,6.0,6.0,534.1421477496624,4.0,1.0,phase_2,stop,400.0,450.0,3.0,,,,,,,,,gray,diamond
0.0,5.0,1.0,1.0,6.0,6.0,470.1408240944147,4.0,1.0,phase_2,go,400.0,400.0,1.0,,,,,,,,,green,I
0.0,5.0,1.0,1.0,5.0,5.0,519.2812625318766,4.0,1.0,phase_2,stop,400.0,400.0,3.0,,,,,,,,,green,I
0.0,1.0,1.0,0.0,5.0,5.0,756.217441521585,4.0,1.0,phase_2,go,350.0,400.0,1.0,,,,,,,,,white,triangle
0.0,5.0,1.0,1.0,6.0,6.0,507.87468533962965,4.0,1.0,phase_2,stop,350.0,400.0,3.0,,,,,,,,,green,I
0.0,2.0,2.0,0.0,5.0,5.0,475.474608130753,4.0,1.0,phase_2,go,350.0,350.0,1.0,,,,,,,,,blue,flipped triangle
0.0,2.0,2.0,0.0,5.0,5.0,379.4666565954685,4.0,1.0,phase_2,go,350.0,350.0,1.0,,,,,,,,,blue,flipped triangle
0.0,2.0,2.0,0.0,5.0,5.0,429.5745156705379,4.0,1.0,phase_2,go,350.0,350.0,1.0,,,,,,,,,blue,flipped triangle
0.0,8.0,4.0,1.0,6.0,6.0,541.9934019446373,4.0,1.0,phase_2,stop,350.0,350.0,3.0,,,,,,,,,cyan,cross
0.0,4.0,4.0,0.0,5.0,5.0,595.2105754986405,4.0,1.0,phase_2,go,350.0,300.0,1.0,,,,,,,,,orange,hexagon
0.0,6.0,2.0,1.0,5.0,5.0,457.3082681745291,4.0,1.0,phase_2,stop,350.0,300.0,3.0,,,,,,,,,gray,diamond
0.0,6.0,2.0,1.0,5.0,5.0,546.2495759129524,4.0,1.0,phase_2,stop,300.0,300.0,3.0,,,,,,,,,gray,diamond
0.0,3.0,3.0,0.0,6.0,6.0,567.6023457199335,4.0,1.0,phase_2,go,250.0,300.0,1.0,,,,,,,,,magenta,circle
0.0,5.0,1.0,1.0,6.0,6.0,377.5595296174288,4.0,1.0,phase_2,stop,250.0,300.0,3.0,,,,,,,,,green,I
0.0,6.0,2.0,1.0,5.0,5.0,674.2503121495247,4.0,1.0,phase_2,go,250.0,250.0,1.0,,,,,,,,,gray,diamond
0.0,8.0,4.0,1.0,5.0,0.0,0.0,4.0,1.0,phase_2,stop,250.0,250.0,4.0,,,,,,,,,cyan,cross
0.0,4.0,4.0,0.0,6.0,6.0,541.7152242735028,4.0,1.0,phase_2,go,300.0,250.0,1.0,,,,,,,,,orange,hexagon
0.0,5.0,1.0,1.0,5.0,5.0,638.447567820549,4.0,1.0,phase_2,go,300.0,250.0,1.0,,,,,,,,,green,I
0.0,8.0,4.0,1.0,6.0,0.0,0.0,4.0,1.0,phase_2,stop,300.0,250.0,4.0,,,,,,,,,cyan,cross
0.0,2.0,2.0,0.0,6.0,6.0,580.7432262226939,4.0,1.0,phase_2,go,300.0,300.0,1.0,,,,,,,,,blue,flipped triangle
0.0,8.0,4.0,1.0,5.0,5.0,554.8586109653115,4.0,1.0,phase_2,go,300.0,300.0,1.0,,,,,,,,,cyan,cross
0.0,3.0,3.0,0.0,5.0,5.0,738.964943215251,4.0,1.0,phase_2,go,300.0,300.0,1.0,,,,,,,,,magenta,circle
0.0,1.0,1.0,0.0,5.0,5.0,1075.5267571657896,4.0,1.0,phase_2,go,300.0,300.0,1.0,,,,,,,,,white,triangle
0.0,2.0,2.0,0.0,6.0,6.0,628.4845396876335,4.0,1.0,phase_2,go,300.0,300.0,1.0,,,,,,,,,blue,flipped triangle
0.0,8.0,4.0,1.0,6.0,6.0,353.4354502335191,4.0,1.0,phase_2,stop,300.0,300.0,3.0,,,,,,,,,cyan,cross
0.0,6.0,2.0,1.0,6.0,0.0,0.0,4.0,1.0,phase_2,stop,300.0,250.0,4.0,,,,,,,,,gray,diamond
0.0,1.0,1.0,0.0,5.0,5.0,729.3675905093551,4.0,1.0,phase_2,go,300.0,300.0,1.0,,,,,,,,,white,triangle
0.0,4.0,4.0,0.0,6.0,6.0,586.2256642431021,4.0,1.0,phase_2,go,300.0,300.0,1.0,,,,,,,,,orange,hexagon
0.0,8.0,4.0,1.0,5.0,0.0,0.0,4.0,1.0,phase_2,stop,300.0,300.0,4.0,,,,,,,,,cyan,cross
0.0,2.0,2.0,0.0,5.0,5.0,593.9749712124467,4.0,1.0,phase_2,go,350.0,300.0,1.0,,,,,,,,,blue,flipped triangle
0.0,5.0,1.0,1.0,5.0,0.0,0.0,4.0,1.0,phase_2,stop,350.0,300.0,4.0,,,,,,,,,green,I
0.0,7.0,3.0,1.0,5.0,0.0,0.0,4.0,1.0,phase_2,stop,400.0,300.0,4.0,,,,,,,,,yellow,square
0.0,7.0,3.0,1.0,5.0,5.0,647.2425786778331,4.0,1.0,phase_2,go,450.0,300.0,1.0,,,,,,,,,yellow,square
0.0,1.0,1.0,0.0,6.0,6.0,877.8910292312503,4.0,1.0,phase_2,go,450.0,300.0,1.0,,,,,,,,,white,triangle
0.0,5.0,1.0,1.0,5.0,5.0,595.1056778430939,4.0,1.0,phase_2,go,450.0,300.0,1.0,,,,,,,,,green,I
0.0,7.0,3.0,1.0,5.0,0.0,0.0,4.0,1.0,phase_2,stop,450.0,300.0,4.0,,,,,,,,,yellow,square
0.0,4.0,4.0,0.0,6.0,6.0,631.4089586958289,5.0,1.0,phase_2,go,500.0,300.0,1.0,,,,,,,,,orange,hexagon
0.0,7.0,3.0,1.0,5.0,5.0,612.8493882715702,5.0,1.0,phase_2,go,500.0,300.0,1.0,,,,,,,,,yellow,square
0.0,5.0,1.0,1.0,6.0,0.0,0.0,5.0,1.0,phase_2,stop,500.0,300.0,4.0,,,,,,,,,green,I
0.0,5.0,1.0,1.0,5.0,5.0,675.309638492763,5.0,1.0,phase_2,stop,500.0,350.0,3.0,,,,,,,,,green,I
0.0,8.0,4.0,1.0,6.0,6.0,459.7037462517619,5.0,1.0,phase_2,stop,450.0,350.0,3.0,,,,,,,,,cyan,cross
0.0,1.0,1.0,0.0,5.0,5.0,548.0037676170468,5.0,1.0,phase_2,go,450.0,300.0,1.0,,,,,,,,,white,triangle
0.0,1.0,1.0,0.0,5.0,5.0,411.575966514647,5.0,1.0,phase_2,go,450.0,300.0,1.0,,,,,,,,,white,triangle
0.0,3.0,3.0,0.0,5.0,5.0,660.5825079604983,5.0,1.0,phase_2,go,450.0,300.0,1.0,,,,,,,,,magenta,circle
0.0,4.0,4.0,0.0,6.0,6.0,640.0726120918989,5.0,1.0,phase_2,go,450.0,300.0,1.0,,,,,,,,,orange,hexagon
0.0,5.0,1.0,1.0,6.0,0.0,0.0,5.0,1.0,phase_2,stop,450.0,300.0,4.0,,,,,,,,,green,I
0.0,5.0,1.0,1.0,5.0,5.0,706.3818732276559,5.0,1.0,phase_2,go,450.0,350.0,1.0,,,,,,,,,green,I
0.0,3.0,3.0,0.0,6.0,6.0,681.8210752680898,5.0,1.0,phase_2,go,450.0,350.0,1.0,,,,,,,,,magenta,circle
0.0,4.0,4.0,0.0,5.0,5.0,606.0892641544342,5.0,1.0,phase_2,go,450.0,350.0,1.0,,,,,,,,,orange,hexagon
0.0,7.0,3.0,1.0,5.0,5.0,415.1678467169404,5.0,1.0,phase_2,stop,450.0,350.0,3.0,,,,,,,,,yellow,square
0.0,2.0,2.0,0.0,6.0,6.0,560.3273054584861,5.0,1.0,phase_2,go,400.0,350.0,1.0,,,,,,,,,blue,flipped triangle
0.0,8.0,4.0,1.0,6.0,0.0,0.0,5.0,1.0,phase_2,stop,400.0,350.0,4.0,,,,,,,,,cyan,cross
0.0,3.0,3.0,0.0,5.0,5.0,628.4521846100688,5.0,1.0,phase_2,go,400.0,400.0,1.0,,,,,,,,,magenta,circle
0.0,6.0,2.0,1.0,6.0,6.0,583.4129322320223,5.0,1.0,phase_2,stop,400.0,400.0,3.0,,,,,,,,,gray,diamond
0.0,3.0,3.0,0.0,6.0,6.0,733.3586178719997,5.0,1.0,phase_2,go,400.0,350.0,1.0,,,,,,,,,magenta,circle
0.0,8.0,4.0,1.0,6.0,0.0,0.0,5.0,1.0,phase_2,stop,400.0,350.0,4.0,,,,,,,,,cyan,cross
0.0,4.0,4.0,0.0,5.0,5.0,764.0902418643236,5.0,1.0,phase_2,go,400.0,400.0,1.0,,,,,,,,,orange,hexagon
0.0,1.0,1.0,0.0,5.0,5.0,457.4384577572346,5.0,1.0,phase_2,go,400.0,400.0,1.0,,,,,,,,,white,triangle
0.0,1.0,1.0,0.0,6.0,6.0,553.2842539250851,5.0,1.0,phase_2,go,400.0,400.0,1.0,,,,,,,,,white,triangle
0.0,7.0,3.0,1.0,6.0,6.0,451.2391500174999,5.0,1.0,phase_2,stop,400.0,400.0,3.0,,,,,,,,,yellow,square
0.0,3.0,3.0,0.0,5.0,5.0,505.1253065466881,5.0,1.0,phase_2,go,400.0,350.0,1.0,,,,,,,,,magenta,circle
0.0,1.0,1.0,0.0,5.0,5.0,734.6586743369699,5.0,1.0,phase_2,go,400.0,350.0,1.0,,,,,,,,,white,triangle
0.0,4.0,4.0,0.0,5.0,5.0,678.7005439400673,5.0,1.0,phase_2,go,400.0,350.0,1.0,,,,,,,,,orange,hexagon
0.0,3.0,3.0,0.0,5.0,5.0,742.9706063121557,5.0,1.0,phase_2,go,400.0,350.0,1.0,,,,,,,,,magenta,circle
0.0,7.0,3.0,1.0,5.0,0.0,0.0,5.0,1.0,phase_2,stop,400.0,350.0,4.0,,,,,,,,,yellow,square
0.0,2.0,2.0,0.0,6.0,6.0,535.763431340456,5.0,1.0,phase_2,go,450.0,350.0,1.0,,,,,,,,,blue,flipped triangle
0.0,6.0,2.0,1.0,5.0,5.0,476.6657156869769,5.0,1.0,phase_2,stop,450.0,350.0,3.0,,,,,,,,,gray,diamond
0.0,5.0,1.0,1.0,6.0,0.0,0.0,5.0,1.0,phase_2,stop,400.0,350.0,4.0,,,,,,,,,green,I
0.0,4.0,4.0,0.0,6.0,6.0,732.7041253447533,5.0,1.0,phase_2,go,400.0,400.0,1.0,,,,,,,,,orange,hexagon
0.0,4.0,4.0,0.0,6.0,6.0,470.6839863210916,5.0,1.0,phase_2,go,400.0,400.0,1.0,,,,,,,,,orange,hexagon
0.0,2.0,2.0,0.0,5.0,5.0,610.259709879756,5.0,1.0,phase_2,go,400.0,400.0,1.0,,,,,,,,,blue,flipped triangle
0.0,6.0,2.0,1.0,5.0,5.0,507.1612596511841,5.0,1.0,phase_2,stop,400.0,400.0,3.0,,,,,,,,,gray,diamond
0.0,5.0,1.0,1.0,5.0,5.0,584.7017010673881,6.0,1.0,phase_2,stop,350.0,400.0,3.0,,,,,,,,,green,I
0.0,6.0,2.0,1.0,5.0,5.0,416.3686763495207,6.0,1.0,phase_2,stop,300.0,400.0,3.0,,,,,,,,,gray,diamond
0.0,8.0,4.0,1.0,5.0,5.0,390.8289587125182,6.0,1.0,phase_2,go,250.0,400.0,1.0,,,,,,,,,cyan,cross
0.0,1.0,1.0,0.0,5.0,5.0,326.4036504551768,6.0,1.0,phase_2,go,250.0,400.0,1.0,,,,,,,,,white,triangle
0.0,2.0,2.0,0.0,5.0,5.0,326.4806801453233,6.0,1.0,phase_2,go,250.0,400.0,1.0,,,,,,,,,blue,flipped triangle
0.0,1.0,1.0,0.0,5.0,5.0,444.2955488339066,6.0,1.0,phase_2,go,250.0,400.0,1.0,,,,,,,,,white,triangle
0.0,3.0,3.0,0.0,5.0,5.0,380.825282074511,6.0,1.0,phase_2,go,250.0,400.0,1.0,,,,,,,,,magenta,circle
0.0,4.0,4.0,0.0,5.0,5.0,339.6785873919725,6.0,1.0,phase_2,go,250.0,400.0,1.0,,,,,,,,,orange,hexagon
0.0,4.0,4.0,0.0,5.0,5.0,396.1522905156016,6.0,1.0,phase_2,go,250.0,400.0,1.0,,,,,,,,,orange,hexagon
0.0,6.0,2.0,1.0,5.0,5.0,392.772420309484,6.0,1.0,phase_2,go,250.0,400.0,1.0,,,,,,,,,gray,diamond
0.0,1.0,1.0,0.0,5.0,5.0,331.0442334040999,6.0,1.0,phase_2,go,250.0,400.0,1.0,,,,,,,,,white,triangle
0.0,8.0,4.0,1.0,5.0,5.0,402.4549387395382,6.0,1.0,phase_2,stop,250.0,400.0,3.0,,,,,,,,,cyan,cross
0.0,8.0,4.0,1.0,5.0,5.0,366.8111637234688,6.0,1.0,phase_2,stop,200.0,400.0,3.0,,,,,,,,,cyan,cross
0.0,1.0,1.0,0.0,6.0,6.0,479.57528475672,6.0,1.0,phase_2,go,150.0,400.0,1.0,,,,,,,,,white,triangle
0.0,3.0,3.0,0.0,6.0,6.0,309.9146578460932,6.0,1.0,phase_2,go,150.0,400.0,1.0,,,,,,,,,magenta,circle
0.0,3.0,3.0,0.0,6.0,6.0,295.4658390954137,6.0,1.0,phase_2,go,150.0,400.0,1.0,,,,,,,,,magenta,circle
0.0,2.0,2.0,0.0,6.0,6.0,276.3565797358751,6.0,1.0,phase_2,go,150.0,400.0,1.0,,,,,,,,,blue,flipped triangle
0.0,5.0,1.0,1.0,5.0,5.0,371.0364289581775,6.0,1.0,phase_2,stop,150.0,400.0,3.0,,,,,,,,,green,I
0.0,5.0,1.0,1.0,5.0,5.0,605.7177446782589,6.0,1.0,phase_2,go,100.0,400.0,1.0,,,,,,,,,green,I
0.0,5.0,1.0,1.0,6.0,6.0,619.463475421071,6.0,1.0,phase_2,stop,100.0,400.0,3.0,,,,,,,,,green,I
0.0,2.0,2.0,0.0,6.0,6.0,386.3061238080263,6.0,1.0,phase_2,go,100.0,350.0,1.0,,,,,,,,,blue,flipped triangle
0.0,4.0,4.0,0.0,5.0,5.0,425.3162601962685,6.0,1.0,phase_2,go,100.0,350.0,1.0,,,,,,,,,orange,hexagon
0.0,3.0,3.0,0.0,6.0,6.0,330.3147051483392,6.0,1.0,phase_2,go,100.0,350.0,1.0,,,,,,,,,magenta,circle
0.0,8.0,4.0,1.0,5.0,5.0,323.1885805726051,6.0,1.0,phase_2,stop,100.0,350.0,3.0,,,,,,,,,cyan,cross
0.0,6.0,2.0,1.0,5.0,5.0,546.2055755779147,6.0,1.0,phase_2,go,50.0,350.0,1.0,,,,,,,,,gray,diamond
0.0,8.0,4.0,1.0,5.0,0.0,0.0,6.0,1.0,phase_2,stop,50.0,350.0,4.0,,,,,,,,,cyan,cross
0.0,4.0,4.0,0.0,5.0,5.0,456.0248162597418,6.0,1.0,phase_2,go,100.0,350.0,1.0,,,,,,,,,orange,hexagon
0.0,2.0,2.0,0.0,6.0,6.0,390.7188419252634,6.0,1.0,phase_2,go,100.0,350.0,1.0,,,,,,,,,blue,flipped triangle
0.0,2.0,2.0,0.0,5.0,5.0,381.7419800907373,6.0,1.0,phase_2,go,100.0,350.0,1.0,,,,,,,,,blue,flipped triangle
0.0,6.0,2.0,1.0,6.0,6.0,375.7402477785945,6.0,1.0,phase_2,stop,100.0,350.0,3.0,,,,,,,,,gray,diamond
0.0,6.0,2.0,1.0,6.0,6.0,464.4889887422323,6.0,1.0,phase_2,stop,100.0,300.0,3.0,,,,,,,,,gray,diamond
0.0,4.0,4.0,0.0,5.0,5.0,350.851115770638,6.0,1.0,phase_2,go,100.0,250.0,1.0,,,,,,,,,orange,hexagon
0.0,5.0,1.0,1.0,6.0,6.0,710.7724379748106,6.0,1.0,phase_2,go,100.0,250.0,1.0,,,,,,,,,green,I
0.0,4.0,4.0,0.0,5.0,5.0,507.5435861945152,6.0,1.0,phase_2,go,100.0,250.0,1.0,,,,,,,,,orange,hexagon
0.0,4.0,4.0,0.0,6.0,6.0,467.9909283295274,6.0,1.0,phase_2,go,100.0,250.0,1.0,,,,,,,,,orange,hexagon
0.0,1.0,1.0,0.0,6.0,6.0,370.4899894073605,6.0,1.0,phase_2,go,100.0,250.0,1.0,,,,,,,,,white,triangle
0.0,7.0,3.0,1.0,5.0,5.0,665.5902368947864,7.0,1.0,phase_2,stop,100.0,250.0,3.0,,,,,,,,,yellow,square
0.0,1.0,1.0,0.0,6.0,6.0,438.8408865779638,7.0,1.0,phase_2,go,50.0,250.0,1.0,,,,,,,,,white,triangle
0.0,7.0,3.0,1.0,6.0,6.0,308.2249090075493,7.0,1.0,phase_2,go,50.0,250.0,1.0,,,,,,,,,yellow,square
0.0,2.0,2.0,0.0,6.0,6.0,311.1695507541299,7.0,1.0,phase_2,go,50.0,250.0,1.0,,,,,,,,,blue,flipped triangle
0.0,5.0,1.0,1.0,5.0,5.0,355.872368440032,7.0,1.0,phase_2,stop,50.0,250.0,3.0,,,,,,,,,green,I
0.0,8.0,4.0,1.0,5.0,5.0,396.0485057905316,7.0,1.0,phase_2,go,0.0,250.0,1.0,,,,,,,,,cyan,cross
0.0,7.0,3.0,1.0,5.0,5.0,300.6506497040391,7.0,1.0,phase_2,go,0.0,250.0,1.0,,,,,,,,,yellow,square
0.0,7.0,3.0,1.0,5.0,5.0,292.0682923868298,7.0,1.0,phase_2,stop,0.0,250.0,3.0,,,,,,,,,yellow,square
0.0,1.0,1.0,0.0,6.0,6.0,425.6700100377202,7.0,1.0,phase_2,go,0.0,250.0,1.0,,,,,,,,,white,triangle
0.0,7.0,3.0,1.0,5.0,0.0,0.0,7.0,1.0,phase_2,stop,0.0,250.0,4.0,,,,,,,,,yellow,square
0.0,2.0,2.0,0.0,6.0,6.0,346.7385731637478,7.0,1.0,phase_2,go,50.0,250.0,1.0,,,,,,,,,blue,flipped triangle
0.0,6.0,2.0,1.0,6.0,0.0,0.0,7.0,1.0,phase_2,stop,50.0,250.0,4.0,,,,,,,,,gray,diamond
0.0,4.0,4.0,0.0,6.0,6.0,518.9571063965559,7.0,1.0,phase_2,go,50.0,300.0,1.0,,,,,,,,,orange,hexagon
0.0,3.0,3.0,0.0,6.0,6.0,390.4858855530619,7.0,1.0,phase_2,go,50.0,300.0,1.0,,,,,,,,,magenta,circle
0.0,7.0,3.0,1.0,5.0,0.0,0.0,7.0,1.0,phase_2,stop,50.0,300.0,4.0,,,,,,,,,yellow,square
0.0,7.0,3.0,1.0,5.0,0.0,0.0,7.0,1.0,phase_2,stop,100.0,300.0,4.0,,,,,,,,,yellow,square
0.0,7.0,3.0,1.0,6.0,6.0,383.1551438197493,7.0,1.0,phase_2,stop,150.0,300.0,3.0,,,,,,,,,yellow,square
0.0,3.0,3.0,0.0,6.0,6.0,663.208476267755,7.0,1.0,phase_2,go,150.0,250.0,1.0,,,,,,,,,magenta,circle
0.0,6.0,2.0,1.0,6.0,6.0,1356.0957936570048,7.0,1.0,phase_2,stop,150.0,250.0,3.0,,,,,,,,,gray,diamond
0.0,3.0,3.0,0.0,6.0,6.0,507.71094113588333,7.0,1.0,phase_2,go,150.0,200.0,1.0,,,,,,,,,magenta,circle
0.0,8.0,4.0,1.0,6.0,0.0,0.0,7.0,1.0,phase_2,stop,150.0,200.0,4.0,,,,,,,,,cyan,cross
0.0,3.0,3.0,0.0,5.0,5.0,563.9214338734746,7.0,1.0,phase_2,go,150.0,250.0,1.0,,,,,,,,,magenta,circle
0.0,2.0,2.0,0.0,5.0,5.0,493.2933431118727,7.0,1.0,phase_2,go,150.0,250.0,1.0,,,,,,,,,blue,flipped triangle
0.0,6.0,2.0,1.0,6.0,6.0,448.3581390231848,7.0,1.0,phase_2,stop,150.0,250.0,3.0,,,,,,,,,gray,diamond
0.0,1.0,1.0,0.0,5.0,5.0,672.7430121973157,7.0,1.0,phase_2,go,150.0,200.0,1.0,,,,,,,,,white,triangle
0.0,3.0,3.0,0.0,5.0,5.0,426.1057879775762,7.0,1.0,phase_2,go,150.0,200.0,1.0,,,,,,,,,magenta,circle
0.0,2.0,2.0,0.0,6.0,6.0,679.0987020358443,7.0,1.0,phase_2,go,150.0,200.0,1.0,,,,,,,,,blue,flipped triangle
0.0,2.0,2.0,0.0,5.0,5.0,447.0777614042163,7.0,1.0,phase_2,go,150.0,200.0,1.0,,,,,,,,,blue,flipped triangle
0.0,1.0,1.0,0.0,5.0,5.0,336.1355615779757,7.0,1.0,phase_2,go,150.0,200.0,1.0,,,,,,,,,white,triangle
0.0,8.0,4.0,1.0,6.0,0.0,0.0,7.0,1.0,phase_2,stop,150.0,200.0,4.0,,,,,,,,,cyan,cross
0.0,7.0,3.0,1.0,6.0,6.0,448.2043627649545,7.0,1.0,phase_2,go,150.0,250.0,1.0,,,,,,,,,yellow,square
0.0,3.0,3.0,0.0,5.0,5.0,533.0858938395977,7.0,1.0,phase_2,go,150.0,250.0,1.0,,,,,,,,,magenta,circle
0.0,6.0,2.0,1.0,6.0,0.0,0.0,7.0,1.0,phase_2,stop,150.0,250.0,4.0,,,,,,,,,gray,diamond
0.0,2.0,2.0,0.0,5.0,5.0,429.5867867767811,7.0,1.0,phase_2,go,150.0,300.0,1.0,,,,,,,,,blue,flipped triangle
0.0,6.0,2.0,1.0,5.0,5.0,406.0027161613107,7.0,1.0,phase_2,go,150.0,300.0,1.0,,,,,,,,,gray,diamond
0.0,1.0,1.0,0.0,5.0,5.0,365.2751306071877,7.0,1.0,phase_2,go,150.0,300.0,1.0,,,,,,,,,white,triangle
0.0,1.0,1.0,0.0,6.0,6.0,385.4808285832405,8.0,1.0,phase_2,go,150.0,300.0,1.0,,,,,,,,,white,triangle
0.0,4.0,4.0,0.0,5.0,5.0,362.0913056656718,8.0,1.0,phase_2,go,150.0,300.0,1.0,,,,,,,,,orange,hexagon
0.0,7.0,3.0,1.0,5.0,5.0,335.8271764591336,8.0,1.0,phase_2,stop,150.0,300.0,3.0,,,,,,,,,yellow,square
0.0,2.0,2.0,0.0,6.0,6.0,312.0738817378878,8.0,1.0,phase_2,go,100.0,300.0,1.0,,,,,,,,,blue,flipped triangle
0.0,5.0,1.0,1.0,6.0,6.0,353.9149472489953,8.0,1.0,phase_2,stop,100.0,300.0,3.0,,,,,,,,,green,I
0.0,4.0,4.0,0.0,5.0,5.0,480.8505428954959,8.0,1.0,phase_2,go,100.0,250.0,1.0,,,,,,,,,orange,hexagon
0.0,6.0,2.0,1.0,6.0,6.0,376.4109313488006,8.0,1.0,phase_2,stop,100.0,250.0,3.0,,,,,,,,,gray,diamond
0.0,8.0,4.0,1.0,6.0,0.0,0.0,8.0,1.0,phase_2,stop,100.0,200.0,4.0,,,,,,,,,cyan,cross
0.0,3.0,3.0,0.0,6.0,6.0,548.5000945627689,8.0,1.0,phase_2,go,100.0,250.0,1.0,,,,,,,,,magenta,circle
0.0,1.0,1.0,0.0,6.0,6.0,375.16999989748,8.0,1.0,phase_2,go,100.0,250.0,1.0,,,,,,,,,white,triangle
0.0,3.0,3.0,0.0,5.0,5.0,446.048766374588,8.0,1.0,phase_2,go,100.0,250.0,1.0,,,,,,,,,magenta,circle
0.0,6.0,2.0,1.0,5.0,5.0,326.2507943436503,8.0,1.0,phase_2,stop,100.0,250.0,3.0,,,,,,,,,gray,diamond
0.0,7.0,3.0,1.0,6.0,6.0,493.9491460099816,8.0,1.0,phase_2,stop,50.0,250.0,3.0,,,,,,,,,yellow,square
0.0,5.0,1.0,1.0,6.0,6.0,404.7943511977792,8.0,1.0,phase_2,stop,50.0,200.0,3.0,,,,,,,,,green,I
0.0,1.0,1.0,0.0,5.0,5.0,955.8372059836984,8.0,1.0,phase_2,go,50.0,150.0,1.0,,,,,,,,,white,triangle
0.0,1.0,1.0,0.0,5.0,5.0,448.3664389699697,8.0,1.0,phase_2,go,50.0,150.0,1.0,,,,,,,,,white,triangle
0.0,8.0,4.0,1.0,5.0,0.0,0.0,8.0,1.0,phase_2,stop,50.0,150.0,4.0,,,,,,,,,cyan,cross
0.0,7.0,3.0,1.0,6.0,0.0,0.0,8.0,1.0,phase_2,stop,100.0,150.0,4.0,,,,,,,,,yellow,square
0.0,7.0,3.0,1.0,6.0,6.0,593.5905072838068,8.0,1.0,phase_2,go,100.0,200.0,1.0,,,,,,,,,yellow,square
0.0,5.0,1.0,1.0,6.0,0.0,0.0,8.0,1.0,phase_2,stop,100.0,200.0,4.0,,,,,,,,,green,I
0.0,5.0,1.0,1.0,6.0,0.0,0.0,8.0,1.0,phase_2,stop,100.0,250.0,4.0,,,,,,,,,green,I
0.0,6.0,2.0,1.0,5.0,0.0,0.0,8.0,1.0,phase_2,stop,100.0,300.0,4.0,,,,,,,,,gray,diamond
0.0,8.0,4.0,1.0,5.0,5.0,668.770962394774,8.0,1.0,phase_2,go,150.0,300.0,1.0,,,,,,,,,cyan,cross
0.0,6.0,2.0,1.0,5.0,5.0,423.7206894904375,8.0,1.0,phase_2,go,150.0,300.0,1.0,,,,,,,,,gray,diamond
0.0,3.0,3.0,0.0,5.0,5.0,621.7982806265354,8.0,1.0,phase_2,go,150.0,300.0,1.0,,,,,,,,,magenta,circle
0.0,2.0,2.0,0.0,5.0,5.0,365.5102653428912,8.0,1.0,phase_2,go,150.0,300.0,1.0,,,,,,,,,blue,flipped triangle
0.0,2.0,2.0,0.0,6.0,6.0,412.8590356558561,8.0,1.0,phase_2,go,150.0,300.0,1.0,,,,,,,,,blue,flipped triangle
0.0,3.0,3.0,0.0,6.0,6.0,364.140979014337,8.0,1.0,phase_2,go,150.0,300.0,1.0,,,,,,,,,magenta,circle
0.0,6.0,2.0,1.0,6.0,6.0,324.7947357594967,8.0,1.0,phase_2,stop,150.0,300.0,3.0,,,,,,,,,gray,diamond
0.0,6.0,2.0,1.0,5.0,0.0,0.0,8.0,1.0,phase_2,stop,150.0,250.0,4.0,,,,,,,,,gray,diamond
0.0,7.0,3.0,1.0,6.0,6.0,504.39269188791513,8.0,1.0,phase_2,go,200.0,250.0,1.0,,,,,,,,,yellow,square
0.0,4.0,4.0,0.0,6.0,6.0,410.0572830066085,8.0,1.0,phase_2,go,200.0,250.0,1.0,,,,,,,,,orange,hexagon
0.0,2.0,2.0,0.0,5.0,5.0,529.7294780611992,8.0,1.0,phase_2,go,200.0,250.0,1.0,,,,,,,,,blue,flipped triangle
0.0,4.0,4.0,0.0,5.0,5.0,434.8000399768352,8.0,1.0,phase_2,go,200.0,250.0,1.0,,,,,,,,,orange,hexagon
0.0,7.0,3.0,1.0,5.0,0.0,0.0,8.0,1.0,phase_2,stop,200.0,250.0,4.0,,,,,,,,,yellow,square
0.0,8.0,4.0,1.0,6.0,6.0,509.87681932747364,8.0,1.0,phase_2,stop,250.0,250.0,3.0,,,,,,,,,cyan,cross
0.0,5.0,1.0,1.0,7.0,6.0,2848.532917909324,1.0,1.0,phase_3,,,,,245.0,5.0,98.0,196.0,49.0,294.0,147.0,245.0,green,I
0.0,4.0,4.0,0.0,7.0,4.0,3256.0907769948244,1.0,1.0,phase_3,,,,,49.0,1.0,196.0,147.0,294.0,49.0,98.0,245.0,orange,hexagon
0.0,5.0,1.0,1.0,7.0,2.0,1728.3783461898563,1.0,1.0,phase_3,,,,,324.0,6.0,270.0,324.0,108.0,54.0,216.0,162.0,green,I
0.0,7.0,3.0,1.0,7.0,2.0,1300.1931589096785,1.0,1.0,phase_3,,,,,108.0,2.0,216.0,108.0,324.0,54.0,270.0,162.0,yellow,square
0.0,5.0,1.0,1.0,7.0,1.0,1269.455386325717,1.0,1.0,phase_3,,,,,220.0,5.0,220.0,132.0,88.0,44.0,264.0,176.0,green,I
0.0,5.0,1.0,1.0,7.0,6.0,3596.9304302707314,1.0,2.0,phase_3,,,,,204.0,6.0,68.0,102.0,170.0,34.0,136.0,204.0,green,I
0.0,8.0,4.0,1.0,7.0,3.0,3229.2781826108694,1.0,1.0,phase_3,,,,,49.0,1.0,196.0,294.0,49.0,147.0,245.0,98.0,cyan,cross
0.0,6.0,2.0,1.0,7.0,3.0,1272.8398758918047,1.0,1.0,phase_3,,,,,132.0,3.0,176.0,220.0,132.0,88.0,44.0,264.0,gray,diamond
0.0,4.0,4.0,0.0,7.0,2.0,2235.0345104932785,1.0,1.0,phase_3,,,,,44.0,1.0,264.0,44.0,132.0,176.0,220.0,88.0,orange,hexagon
0.0,4.0,4.0,0.0,7.0,1.0,2770.325212739408,1.0,1.0,phase_3,,,,,220.0,5.0,220.0,44.0,88.0,264.0,132.0,176.0,orange,hexagon
0.0,2.0,2.0,0.0,7.0,5.0,3421.3665444403887,1.0,1.0,phase_3,,,,,196.0,4.0,49.0,98.0,245.0,294.0,196.0,147.0,blue,flipped triangle
0.0,6.0,2.0,1.0,7.0,6.0,3087.3274160549045,1.0,1.0,phase_3,,,,,147.0,3.0,196.0,49.0,98.0,294.0,245.0,147.0,gray,diamond
0.0,1.0,1.0,0.0,7.0,3.0,4017.5963826477528,1.0,1.0,phase_3,,,,,220.0,5.0,44.0,176.0,220.0,88.0,132.0,264.0,white,triangle
0.0,8.0,4.0,1.0,7.0,2.0,3478.1333478167653,1.0,1.0,phase_3,,,,,216.0,4.0,324.0,216.0,54.0,270.0,108.0,162.0,cyan,cross
0.0,7.0,3.0,1.0,7.0,4.0,3317.52996891737,1.0,1.0,phase_3,,,,,220.0,5.0,44.0,176.0,264.0,220.0,88.0,132.0,yellow,square
0.0,8.0,4.0,1.0,7.0,2.0,2599.1516187787056,1.0,1.0,phase_3,,,,,204.0,6.0,102.0,204.0,136.0,170.0,68.0,34.0,cyan,cross
0.0,1.0,1.0,0.0,7.0,5.0,1335.837610065937,1.0,1.0,phase_3,,,,,102.0,3.0,170.0,204.0,136.0,34.0,102.0,68.0,white,triangle
0.0,6.0,2.0,1.0,7.0,6.0,2330.9425935149197,1.0,1.0,phase_3,,,,,136.0,4.0,34.0,102.0,204.0,68.0,170.0,136.0,gray,diamond
0.0,3.0,3.0,0.0,7.0,5.0,3739.141353406012,1.0,1.0,phase_3,,,,,264.0,6.0,220.0,88.0,44.0,176.0,264.0,132.0,magenta,circle
0.0,4.0,4.0,0.0,7.0,4.0,2020.6350181251764,1.0,1.0,phase_3,,,,,34.0,1.0,204.0,68.0,102.0,34.0,170.0,136.0,orange,hexagon
0.0,3.0,3.0,0.0,7.0,3.0,2363.34250215441,2.0,1.0,phase_3,,,,,136.0,4.0,102.0,170.0,136.0,68.0,34.0,204.0,magenta,circle
0.0,3.0,3.0,0.0,7.0,5.0,2805.8975720778108,2.0,1.0,phase_3,,,,,136.0,4.0,34.0,102.0,170.0,68.0,136.0,204.0,magenta,circle
0.0,7.0,3.0,1.0,7.0,4.0,2662.51779999584,2.0,1.0,phase_3,,,,,294.0,6.0,245.0,98.0,196.0,294.0,49.0,147.0,yellow,square
0.0,5.0,1.0,1.0,7.0,3.0,3311.702200211585,2.0,1.0,phase_3,,,,,147.0,3.0,294.0,245.0,147.0,196.0,49.0,98.0,green,I
0.0,8.0,4.0,1.0,7.0,2.0,2754.2825723066926,2.0,1.0,phase_3,,,,,39.0,1.0,117.0,39.0,234.0,195.0,78.0,156.0,cyan,cross
0.0,2.0,2.0,0.0,7.0,6.0,2427.9781244695187,2.0,1.0,phase_3,,,,,324.0,6.0,270.0,108.0,54.0,216.0,162.0,324.0,blue,flipped triangle
0.0,8.0,4.0,1.0,7.0,4.0,3269.724269397557,2.0,1.0,phase_3,,,,,324.0,6.0,270.0,108.0,54.0,324.0,216.0,162.0,cyan,cross
0.0,2.0,2.0,0.0,7.0,3.0,2172.165311872959,2.0,1.0,phase_3,,,,,264.0,6.0,132.0,176.0,264.0,44.0,220.0,88.0,blue,flipped triangle
0.0,8.0,4.0,1.0,7.0,2.0,2701.7140416428447,2.0,1.0,phase_3,,,,,49.0,1.0,245.0,49.0,294.0,98.0,196.0,147.0,cyan,cross
0.0,7.0,3.0,1.0,7.0,5.0,2879.9418872222304,2.0,1.0,phase_3,,,,,195.0,5.0,156.0,117.0,39.0,234.0,195.0,78.0,yellow,square
0.0,1.0,1.0,0.0,7.0,2.0,2410.067073069513,2.0,1.0,phase_3,,,,,88.0,2.0,176.0,88.0,220.0,264.0,132.0,44.0,white,triangle
0.0,2.0,2.0,0.0,7.0,2.0,1307.0263946428895,2.0,1.0,phase_3,,,,,68.0,2.0,204.0,68.0,102.0,170.0,136.0,34.0,blue,flipped triangle
0.0,7.0,3.0,1.0,7.0,1.0,2278.3898152410984,2.0,1.0,phase_3,,,,,136.0,4.0,136.0,204.0,68.0,170.0,34.0,102.0,yellow,square
0.0,6.0,2.0,1.0,7.0,4.0,1389.574758708477,2.0,1.0,phase_3,,,,,54.0,1.0,270.0,162.0,108.0,54.0,216.0,324.0,gray,diamond
0.0,6.0,2.0,1.0,7.0,3.0,1544.1656168550253,2.0,1.0,phase_3,,,,,234.0,6.0,117.0,39.0,234.0,156.0,195.0,78.0,gray,diamond
0.0,2.0,2.0,0.0,7.0,4.0,977.0851926878096,2.0,1.0,phase_3,,,,,270.0,5.0,108.0,216.0,54.0,270.0,324.0,162.0,blue,flipped triangle
0.0,1.0,1.0,0.0,7.0,3.0,1826.5359457582235,2.0,1.0,phase_3,,,,,117.0,3.0,156.0,234.0,117.0,195.0,78.0,39.0,white,triangle
0.0,7.0,3.0,1.0,7.0,2.0,1596.624283120036,2.0,1.0,phase_3,,,,,176.0,4.0,88.0,176.0,44.0,220.0,132.0,264.0,yellow,square
0.0,3.0,3.0,0.0,7.0,4.0,1059.6390878781676,2.0,1.0,phase_3,,,,,49.0,1.0,98.0,196.0,245.0,49.0,147.0,294.0,magenta,circle
0.0,7.0,3.0,1.0,7.0,3.0,1487.7727162092924,2.0,2.0,phase_3,,,,,102.0,3.0,170.0,68.0,102.0,136.0,34.0,204.0,yellow,square
0.0,1.0,1.0,0.0,7.0,3.0,906.4321797341108,3.0,1.0,phase_3,,,,,49.0,1.0,294.0,196.0,49.0,245.0,98.0,147.0,white,triangle
0.0,4.0,4.0,0.0,7.0,4.0,955.4715622216464,3.0,1.0,phase_3,,,,,54.0,1.0,216.0,324.0,108.0,54.0,162.0,270.0,orange,hexagon
0.0,1.0,1.0,0.0,7.0,2.0,1190.1630209758878,3.0,1.0,phase_3,,,,,196.0,4.0,98.0,196.0,245.0,294.0,49.0,147.0,white,triangle
0.0,1.0,1.0,0.0,7.0,6.0,1526.6901552677157,3.0,1.0,phase_3,,,,,204.0,6.0,170.0,68.0,34.0,136.0,102.0,204.0,white,triangle
0.0,6.0,2.0,1.0,7.0,4.0,853.9923951029778,3.0,1.0,phase_3,,,,,44.0,1.0,264.0,220.0,176.0,44.0,88.0,132.0,gray,diamond
0.0,3.0,3.0,0.0,7.0,2.0,1782.7982679009438,3.0,1.0,phase_3,,,,,324.0,6.0,108.0,324.0,54.0,162.0,270.0,216.0,magenta,circle
0.0,3.0,3.0,0.0,7.0,4.0,1620.6496935337782,3.0,1.0,phase_3,,,,,195.0,5.0,234.0,117.0,78.0,195.0,156.0,39.0,magenta,circle
0.0,1.0,1.0,0.0,7.0,2.0,1187.1525440365076,3.0,1.0,phase_3,,,,,270.0,5.0,216.0,270.0,324.0,108.0,162.0,54.0,white,triangle
0.0,8.0,4.0,1.0,7.0,4.0,1706.9179192185402,3.0,1.0,phase_3,,,,,264.0,6.0,220.0,44.0,88.0,264.0,132.0,176.0,cyan,cross
0.0,6.0,2.0,1.0,7.0,3.0,1372.992979362607,3.0,1.0,phase_3,,,,,54.0,1.0,108.0,216.0,54.0,324.0,162.0,270.0,gray,diamond
0.0,2.0,2.0,0.0,7.0,1.0,2254.251522012055,3.0,1.0,phase_3,,,,,132.0,3.0,132.0,88.0,176.0,44.0,264.0,220.0,blue,flipped triangle
0.0,6.0,2.0,1.0,7.0,1.0,1130.1835607737305,3.0,1.0,phase_3,,,,,136.0,4.0,136.0,68.0,102.0,204.0,170.0,34.0,gray,diamond
0.0,8.0,4.0,1.0,7.0,3.0,2242.276842705905,3.0,1.0,phase_3,,,,,220.0,5.0,176.0,264.0,220.0,132.0,44.0,88.0,cyan,cross
0.0,4.0,4.0,0.0,7.0,3.0,1556.0852698981762,3.0,1.0,phase_3,,,,,78.0,2.0,156.0,117.0,78.0,195.0,234.0,39.0,orange,hexagon
0.0,1.0,1.0,0.0,7.0,6.0,3117.717576213181,3.0,1.0,phase_3,,,,,39.0,1.0,195.0,117.0,234.0,78.0,156.0,39.0,white,triangle
0.0,7.0,3.0,1.0,7.0,6.0,2221.092655323446,3.0,1.0,phase_3,,,,,98.0,2.0,196.0,245.0,49.0,294.0,147.0,98.0,yellow,square
0.0,2.0,2.0,0.0,7.0,6.0,1462.632156908512,3.0,1.0,phase_3,,,,,204.0,6.0,68.0,170.0,34.0,102.0,136.0,204.0,blue,flipped triangle
0.0,5.0,1.0,1.0,7.0,4.0,1993.8754383474588,3.0,1.0,phase_3,,,,,195.0,5.0,78.0,39.0,117.0,195.0,234.0,156.0,green,I
0.0,2.0,2.0,0.0,7.0,4.0,2067.4039786681533,3.0,1.0,phase_3,,,,,156.0,4.0,39.0,195.0,117.0,156.0,78.0,234.0,blue,flipped triangle
0.0,8.0,4.0,1.0,7.0,3.0,2363.9684645459056,3.0,1.0,phase_3,,,,,204.0,6.0,68.0,102.0,204.0,136.0,34.0,170.0,cyan,cross
0.0,1.0,1.0,0.0,7.0,4.0,1656.1233941465616,4.0,1.0,phase_3,,,,,270.0,5.0,54.0,216.0,324.0,270.0,162.0,108.0,white,triangle
0.0,7.0,3.0,1.0,7.0,5.0,2210.242934525013,4.0,1.0,phase_3,,,,,234.0,6.0,117.0,195.0,78.0,39.0,234.0,156.0,yellow,square
0.0,3.0,3.0,0.0,7.0,4.0,1669.6741674095392,4.0,1.0,phase_3,,,,,294.0,6.0,245.0,98.0,147.0,294.0,196.0,49.0,magenta,circle
0.0,4.0,4.0,0.0,7.0,3.0,2660.655856132508,4.0,1.0,phase_3,,,,,54.0,1.0,324.0,216.0,54.0,108.0,162.0,270.0,orange,hexagon
0.0,5.0,1.0,1.0,7.0,5.0,1992.483664304018,4.0,1.0,phase_3,,,,,176.0,4.0,132.0,88.0,220.0,264.0,176.0,44.0,green,I
0.0,3.0,3.0,0.0,7.0,2.0,1711.8002185598016,4.0,1.0,phase_3,,,,,195.0,5.0,39.0,195.0,117.0,78.0,156.0,234.0,magenta,circle
0.0,4.0,4.0,0.0,7.0,6.0,1099.7304217889905,4.0,1.0,phase_3,,,,,34.0,1.0,68.0,102.0,204.0,136.0,170.0,34.0,orange,hexagon
0.0,5.0,1.0,1.0,7.0,3.0,2180.0565579906106,4.0,1.0,phase_3,,,,,54.0,1.0,162.0,216.0,54.0,270.0,324.0,108.0,green,I
0.0,5.0,1.0,1.0,7.0,2.0,2037.1680306270719,4.0,1.0,phase_3,,,,,68.0,2.0,102.0,68.0,170.0,34.0,136.0,204.0,green,I
0.0,3.0,3.0,0.0,7.0,4.0,1749.5579048991203,4.0,1.0,phase_3,,,,,264.0,6.0,88.0,44.0,132.0,264.0,220.0,176.0,magenta,circle
0.0,7.0,3.0,1.0,7.0,2.0,2856.194058433175,4.0,1.0,phase_3,,,,,216.0,4.0,324.0,216.0,270.0,54.0,162.0,108.0,yellow,square
0.0,4.0,4.0,0.0,7.0,2.0,1759.713794104755,4.0,1.0,phase_3,,,,,117.0,3.0,39.0,117.0,195.0,78.0,156.0,234.0,orange,hexagon
0.0,5.0,1.0,1.0,7.0,3.0,3209.827482700348,4.0,1.0,phase_3,,,,,78.0,2.0,117.0,234.0,78.0,156.0,39.0,195.0,green,I
0.0,3.0,3.0,0.0,7.0,6.0,2301.103542558849,4.0,1.0,phase_3,,,,,216.0,4.0,54.0,162.0,324.0,108.0,270.0,216.0,magenta,circle
0.0,2.0,2.0,0.0,7.0,4.0,2398.9704502746463,4.0,1.0,phase_3,,,,,245.0,5.0,49.0,196.0,294.0,245.0,147.0,98.0,blue,flipped triangle
0.0,2.0,2.0,0.0,7.0,3.0,3309.1230913996696,4.0,1.0,phase_3,,,,,195.0,5.0,234.0,156.0,195.0,78.0,39.0,117.0,blue,flipped triangle
0.0,6.0,2.0,1.0,7.0,2.0,1569.6863727644086,4.0,1.0,phase_3,,,,,294.0,6.0,49.0,294.0,98.0,147.0,196.0,245.0,gray,diamond
0.0,6.0,2.0,1.0,7.0,2.0,1512.966088950634,4.0,1.0,phase_3,,,,,234.0,6.0,39.0,234.0,195.0,78.0,156.0,117.0,gray,diamond
0.0,8.0,4.0,1.0,7.0,6.0,921.8291863799096,4.0,1.0,phase_3,,,,,117.0,3.0,234.0,156.0,195.0,78.0,39.0,117.0,cyan,cross
0.0,4.0,4.0,0.0,7.0,2.0,2155.1650632172823,4.0,1.0,phase_3,,,,,98.0,2.0,49.0,98.0,245.0,294.0,147.0,196.0,orange,hexagon
