raw_reward_magnitude,stim_reward,stepwise_reward_magnitude,paired_with_stopping,quadrant,response,reaction_time,block,num_trial_presentations,which_part,stop_signal_trial_type,left_SSD,right_SSD,accuracy,chosen_bidding_amount,chosen_bidding_level,possible_bid_1,possible_bid_2,possible_bid_3,possible_bid_4,possible_bid_5,possible_bid_6,color_text,shape_text
91.0,2.0,2.0,0.0,4.0,4.0,333.6543906480074,1.0,1.0,part_1,,,,,,,,,,,,,magenta,I
0.0,7.0,0.0,1.0,1.0,1.0,318.0033760145306,1.0,1.0,part_1,,,,,,,,,,,,,cyan,diamond
122.0,6.0,2.0,1.0,1.0,1.0,412.2007507830858,1.0,1.0,part_1,,,,,,,,,,,,,orange,square
113.0,2.0,2.0,0.0,3.0,3.0,298.6044464632869,1.0,1.0,part_1,,,,,,,,,,,,,magenta,I
424.0,8.0,4.0,1.0,2.0,2.0,277.7198394760489,1.0,1.0,part_1,,,,,,,,,,,,,gray,flipped triangle
118.0,2.0,2.0,0.0,3.0,3.0,322.4736517295241,1.0,1.0,part_1,,,,,,,,,,,,,magenta,I
42.0,1.0,1.0,0.0,4.0,4.0,248.3713030815124,1.0,1.0,part_1,,,,,,,,,,,,,green,cross
407.0,4.0,4.0,0.0,1.0,1.0,355.578301474452,1.0,1.0,part_1,,,,,,,,,,,,,blue,circle
417.0,4.0,4.0,0.0,2.0,2.0,239.1091817989945,1.0,1.0,part_1,,,,,,,,,,,,,blue,circle
58.0,1.0,1.0,0.0,4.0,4.0,263.6311566457152,1.0,1.0,part_1,,,,,,,,,,,,,green,cross
208.0,7.0,3.0,1.0,3.0,3.0,263.952468521893,1.0,1.0,part_1,,,,,,,,,,,,,cyan,diamond
79.0,2.0,2.0,0.0,4.0,4.0,305.2733717486262,1.0,1.0,part_1,,,,,,,,,,,,,magenta,I
182.0,3.0,3.0,0.0,1.0,1.0,321.268149651587,1.0,1.0,part_1,,,,,,,,,,,,,yellow,triangle
399.0,8.0,4.0,1.0,1.0,1.0,393.5041725635528,1.0,1.0,part_1,,,,,,,,,,,,,gray,flipped triangle
417.0,8.0,4.0,1.0,1.0,1.0,293.2519456371665,1.0,1.0,part_1,,,,,,,,,,,,,gray,flipped triangle
0.0,5.0,0.0,1.0,4.0,4.0,267.9396793246269,1.0,1.0,part_1,,,,,,,,,,,,,white,hexagon
57.0,1.0,1.0,0.0,4.0,4.0,255.9705087915063,1.0,1.0,part_1,,,,,,,,,,,,,green,cross
0.0,7.0,0.0,1.0,4.0,4.0,283.1222163513303,1.0,1.0,part_1,,,,,,,,,,,,,cyan,diamond
64.0,5.0,1.0,1.0,4.0,4.0,304.2923714965582,1.0,1.0,part_1,,,,,,,,,,,,,white,hexagon
0.0,4.0,0.0,0.0,1.0,1.0,291.2649903446436,1.0,1.0,part_1,,,,,,,,,,,,,blue,circle
110.0,2.0,2.0,0.0,4.0,4.0,275.1876888796687,1.0,1.0,part_1,,,,,,,,,,,,,magenta,I
48.0,5.0,1.0,1.0,3.0,3.0,284.6383573487401,1.0,1.0,part_1,,,,,,,,,,,,,white,hexagon
216.0,7.0,3.0,1.0,2.0,2.0,314.501722343266,1.0,1.0,part_1,,,,,,,,,,,,,cyan,diamond
92.0,6.0,2.0,1.0,1.0,1.0,387.2644640505314,1.0,2.0,part_1,,,,,,,,,,,,,orange,square
207.0,7.0,3.0,1.0,4.0,4.0,326.4512559399009,1.0,1.0,part_1,,,,,,,,,,,,,cyan,diamond
38.0,1.0,1.0,0.0,3.0,3.0,285.3227900341153,1.0,1.0,part_1,,,,,,,,,,,,,green,cross
0.0,6.0,0.0,1.0,3.0,3.0,331.3266905024647,1.0,1.0,part_1,,,,,,,,,,,,,orange,square
122.0,2.0,2.0,0.0,1.0,1.0,325.6157441064715,1.0,1.0,part_1,,,,,,,,,,,,,magenta,I
391.0,8.0,4.0,1.0,1.0,1.0,466.7025301605463,1.0,1.0,part_1,,,,,,,,,,,,,gray,flipped triangle
216.0,3.0,3.0,0.0,2.0,2.0,360.1489458233118,1.0,1.0,part_1,,,,,,,,,,,,,yellow,triangle
221.0,7.0,3.0,1.0,2.0,2.0,394.817117601633,1.0,1.0,part_1,,,,,,,,,,,,,cyan,diamond
37.0,5.0,1.0,1.0,2.0,2.0,314.338281750679,1.0,1.0,part_1,,,,,,,,,,,,,white,hexagon
90.0,6.0,2.0,1.0,4.0,4.0,302.1293384954333,1.0,1.0,part_1,,,,,,,,,,,,,orange,square
404.0,8.0,4.0,1.0,4.0,4.0,529.6009229496121,1.0,1.0,part_1,,,,,,,,,,,,,gray,flipped triangle
74.0,1.0,1.0,0.0,1.0,1.0,325.8598148822784,1.0,1.0,part_1,,,,,,,,,,,,,green,cross
0.0,6.0,0.0,1.0,4.0,4.0,307.7364666387439,1.0,1.0,part_1,,,,,,,,,,,,,orange,square
101.0,2.0,2.0,0.0,1.0,1.0,326.967217028141,1.0,1.0,part_1,,,,,,,,,,,,,magenta,I
185.0,3.0,3.0,0.0,3.0,3.0,275.642666965723,1.0,1.0,part_1,,,,,,,,,,,,,yellow,triangle
69.0,1.0,1.0,0.0,1.0,1.0,283.5536077618599,1.0,1.0,part_1,,,,,,,,,,,,,green,cross
113.0,6.0,2.0,1.0,4.0,4.0,358.0913143232465,1.0,1.0,part_1,,,,,,,,,,,,,orange,square
413.0,8.0,4.0,1.0,2.0,2.0,385.7500124722719,1.0,1.0,part_1,,,,,,,,,,,,,gray,flipped triangle
25.0,1.0,1.0,0.0,1.0,1.0,255.68390544503927,1.0,1.0,part_1,,,,,,,,,,,,,green,cross
213.0,7.0,3.0,1.0,1.0,1.0,341.3375671952963,1.0,1.0,part_1,,,,,,,,,,,,,cyan,diamond
182.0,3.0,3.0,0.0,2.0,2.0,312.1118266135454,1.0,1.0,part_1,,,,,,,,,,,,,yellow,triangle
81.0,6.0,2.0,1.0,3.0,3.0,296.1705289781093,1.0,1.0,part_1,,,,,,,,,,,,,orange,square
99.0,2.0,2.0,0.0,1.0,1.0,324.5052434504032,1.0,1.0,part_1,,,,,,,,,,,,,magenta,I
397.0,8.0,4.0,1.0,2.0,2.0,406.1461370438337,1.0,1.0,part_1,,,,,,,,,,,,,gray,flipped triangle
197.0,3.0,3.0,0.0,4.0,4.0,236.0254824161529,1.0,1.0,part_1,,,,,,,,,,,,,yellow,triangle
0.0,4.0,0.0,0.0,3.0,3.0,359.0399473905563,1.0,1.0,part_1,,,,,,,,,,,,,blue,circle
398.0,8.0,4.0,1.0,3.0,3.0,341.2315221503377,1.0,1.0,part_1,,,,,,,,,,,,,gray,flipped triangle
205.0,7.0,3.0,1.0,1.0,1.0,203.1129403039813,1.0,1.0,part_1,,,,,,,,,,,,,cyan,diamond
204.0,7.0,3.0,1.0,1.0,1.0,365.9953270107507,1.0,1.0,part_1,,,,,,,,,,,,,cyan,diamond
62.0,1.0,1.0,0.0,4.0,4.0,341.772012412548,1.0,1.0,part_1,,,,,,,,,,,,,green,cross
91.0,6.0,2.0,1.0,1.0,1.0,279.3911378830671,1.0,1.0,part_1,,,,,,,,,,,,,orange,square
221.0,7.0,3.0,1.0,4.0,4.0,303.2393138855696,1.0,1.0,part_1,,,,,,,,,,,,,cyan,diamond
0.0,1.0,0.0,0.0,4.0,4.0,346.4471874758601,1.0,1.0,part_1,,,,,,,,,,,,,green,cross
0.0,4.0,0.0,0.0,1.0,1.0,359.0230261906981,1.0,1.0,part_1,,,,,,,,,,,,,blue,circle
0.0,8.0,0.0,1.0,1.0,1.0,402.0525626838207,1.0,2.0,part_1,,,,,,,,,,,,,gray,flipped triangle
212.0,7.0,3.0,1.0,1.0,1.0,378.6233253777027,1.0,1.0,part_1,,,,,,,,,,,,,cyan,diamond
394.0,8.0,4.0,1.0,4.0,4.0,623.6127270385623,1.0,1.0,part_1,,,,,,,,,,,,,gray,flipped triangle
29.0,5.0,1.0,1.0,3.0,3.0,352.2575693204999,1.0,1.0,part_1,,,,,,,,,,,,,white,hexagon
200.0,7.0,3.0,1.0,2.0,2.0,379.2113605886698,1.0,1.0,part_1,,,,,,,,,,,,,cyan,diamond
179.0,7.0,3.0,1.0,1.0,1.0,520.0188979506493,1.0,1.0,part_1,,,,,,,,,,,,,cyan,diamond
106.0,2.0,2.0,0.0,3.0,3.0,292.3936219885945,1.0,1.0,part_1,,,,,,,,,,,,,magenta,I
0.0,6.0,0.0,1.0,1.0,1.0,378.0955616384744,1.0,1.0,part_1,,,,,,,,,,,,,orange,square
111.0,6.0,2.0,1.0,3.0,3.0,332.9041888937354,1.0,1.0,part_1,,,,,,,,,,,,,orange,square
413.0,4.0,4.0,0.0,1.0,1.0,312.3040664941072,1.0,1.0,part_1,,,,,,,,,,,,,blue,circle
0.0,3.0,0.0,0.0,1.0,1.0,431.1725050210953,1.0,1.0,part_1,,,,,,,,,,,,,yellow,triangle
96.0,2.0,2.0,0.0,1.0,1.0,459.2065997421741,1.0,1.0,part_1,,,,,,,,,,,,,magenta,I
72.0,1.0,1.0,0.0,3.0,3.0,382.6210647821426,1.0,1.0,part_1,,,,,,,,,,,,,green,cross
406.0,4.0,4.0,0.0,1.0,1.0,350.6708713248372,1.0,1.0,part_1,,,,,,,,,,,,,blue,circle
118.0,6.0,2.0,1.0,3.0,3.0,337.9536932334304,1.0,1.0,part_1,,,,,,,,,,,,,orange,square
0.0,2.0,0.0,0.0,2.0,2.0,439.2645880579948,1.0,1.0,part_1,,,,,,,,,,,,,magenta,I
0.0,5.0,0.0,1.0,4.0,4.0,268.8709581270814,1.0,1.0,part_1,,,,,,,,,,,,,white,hexagon
45.0,1.0,1.0,0.0,3.0,3.0,367.4458125606179,1.0,1.0,part_1,,,,,,,,,,,,,green,cross
388.0,8.0,4.0,1.0,4.0,4.0,355.5436059832573,1.0,1.0,part_1,,,,,,,,,,,,,gray,flipped triangle
96.0,6.0,2.0,1.0,1.0,1.0,454.97294142842287,1.0,1.0,part_1,,,,,,,,,,,,,orange,square
221.0,3.0,3.0,0.0,2.0,2.0,629.5578917488456,1.0,1.0,part_1,,,,,,,,,,,,,yellow,triangle
379.0,4.0,4.0,0.0,2.0,2.0,444.0592210739851,1.0,1.0,part_1,,,,,,,,,,,,,blue,circle
110.0,2.0,2.0,0.0,1.0,1.0,382.8658107668161,1.0,1.0,part_1,,,,,,,,,,,,,magenta,I
102.0,2.0,2.0,0.0,1.0,1.0,433.9128397405147,1.0,1.0,part_1,,,,,,,,,,,,,magenta,I
179.0,3.0,3.0,0.0,1.0,1.0,351.6875812783837,1.0,1.0,part_1,,,,,,,,,,,,,yellow,triangle
196.0,7.0,3.0,1.0,2.0,2.0,430.6476721540093,1.0,1.0,part_1,,,,,,,,,,,,,cyan,diamond
422.0,8.0,4.0,1.0,3.0,3.0,354.8864619806409,1.0,1.0,part_1,,,,,,,,,,,,,gray,flipped triangle
219.0,3.0,3.0,0.0,2.0,2.0,316.6587529703975,1.0,1.0,part_1,,,,,,,,,,,,,yellow,triangle
56.0,5.0,1.0,1.0,2.0,2.0,435.6437372043729,1.0,1.0,part_1,,,,,,,,,,,,,white,hexagon
77.0,2.0,2.0,0.0,1.0,1.0,345.1994322240352,1.0,1.0,part_1,,,,,,,,,,,,,magenta,I
0.0,2.0,0.0,0.0,2.0,2.0,596.9695961102843,1.0,1.0,part_1,,,,,,,,,,,,,magenta,I
83.0,6.0,2.0,1.0,2.0,2.0,439.057732000947,1.0,1.0,part_1,,,,,,,,,,,,,orange,square
0.0,1.0,0.0,0.0,4.0,4.0,316.5679490193724,1.0,1.0,part_1,,,,,,,,,,,,,green,cross
206.0,7.0,3.0,1.0,2.0,2.0,458.4353445097804,1.0,1.0,part_1,,,,,,,,,,,,,cyan,diamond
38.0,5.0,1.0,1.0,1.0,1.0,360.0704185664654,1.0,1.0,part_1,,,,,,,,,,,,,white,hexagon
0.0,5.0,0.0,1.0,1.0,1.0,377.9734149575233,1.0,1.0,part_1,,,,,,,,,,,,,white,hexagon
221.0,3.0,3.0,0.0,2.0,2.0,407.8706111758947,1.0,1.0,part_1,,,,,,,,,,,,,yellow,triangle
193.0,3.0,3.0,0.0,4.0,4.0,387.7244582399726,1.0,1.0,part_1,,,,,,,,,,,,,yellow,triangle
224.0,7.0,3.0,1.0,2.0,2.0,379.6467501670122,1.0,1.0,part_1,,,,,,,,,,,,,cyan,diamond
188.0,3.0,3.0,0.0,3.0,3.0,391.6121153160929,1.0,1.0,part_1,,,,,,,,,,,,,yellow,triangle
57.0,5.0,1.0,1.0,3.0,3.0,346.2809361517429,1.0,1.0,part_1,,,,,,,,,,,,,white,hexagon
0.0,7.0,0.0,1.0,2.0,2.0,374.3459330871701,1.0,1.0,part_1,,,,,,,,,,,,,cyan,diamond
58.0,5.0,1.0,1.0,2.0,2.0,350.7650215178728,1.0,1.0,part_1,,,,,,,,,,,,,white,hexagon
0.0,3.0,0.0,0.0,1.0,1.0,391.9518403708935,2.0,1.0,part_1,,,,,,,,,,,,,yellow,triangle
40.0,1.0,1.0,0.0,2.0,2.0,320.3059248626232,2.0,1.0,part_1,,,,,,,,,,,,,green,cross
0.0,3.0,0.0,0.0,1.0,1.0,407.0897670462727,2.0,1.0,part_1,,,,,,,,,,,,,yellow,triangle
102.0,6.0,2.0,1.0,4.0,4.0,386.0405934974551,2.0,1.0,part_1,,,,,,,,,,,,,orange,square
381.0,4.0,4.0,0.0,3.0,3.0,407.4067687615752,2.0,1.0,part_1,,,,,,,,,,,,,blue,circle
77.0,6.0,2.0,1.0,4.0,4.0,406.8447537720203,2.0,1.0,part_1,,,,,,,,,,,,,orange,square
197.0,7.0,3.0,1.0,4.0,4.0,305.8086456730962,2.0,1.0,part_1,,,,,,,,,,,,,cyan,diamond
182.0,7.0,3.0,1.0,4.0,4.0,400.4847723990679,2.0,1.0,part_1,,,,,,,,,,,,,cyan,diamond
176.0,3.0,3.0,0.0,4.0,4.0,322.3851639777422,2.0,1.0,part_1,,,,,,,,,,,,,yellow,triangle
0.0,5.0,0.0,1.0,1.0,1.0,484.0198894962668,2.0,2.0,part_1,,,,,,,,,,,,,white,hexagon
0.0,1.0,0.0,0.0,3.0,3.0,385.9825544059276,2.0,1.0,part_1,,,,,,,,,,,,,green,cross
187.0,7.0,3.0,1.0,3.0,3.0,412.2515888884663,2.0,1.0,part_1,,,,,,,,,,,,,cyan,diamond
101.0,6.0,2.0,1.0,3.0,3.0,379.9846237525344,2.0,1.0,part_1,,,,,,,,,,,,,orange,square
119.0,2.0,2.0,0.0,3.0,3.0,382.2425529360771,2.0,1.0,part_1,,,,,,,,,,,,,magenta,I
0.0,8.0,0.0,1.0,1.0,1.0,683.8540462777019,2.0,1.0,part_1,,,,,,,,,,,,,gray,flipped triangle
40.0,5.0,1.0,1.0,4.0,4.0,512.9215903580189,2.0,1.0,part_1,,,,,,,,,,,,,white,hexagon
197.0,7.0,3.0,1.0,4.0,4.0,379.5681782066822,2.0,1.0,part_1,,,,,,,,,,,,,cyan,diamond
398.0,8.0,4.0,1.0,4.0,4.0,442.1762144193053,2.0,1.0,part_1,,,,,,,,,,,,,gray,flipped triangle
29.0,5.0,1.0,1.0,4.0,4.0,478.6317441612482,2.0,1.0,part_1,,,,,,,,,,,,,white,hexagon
0.0,1.0,0.0,0.0,3.0,3.0,413.4150156751275,2.0,1.0,part_1,,,,,,,,,,,,,green,cross
422.0,4.0,4.0,0.0,3.0,3.0,478.3547380939126,2.0,1.0,part_1,,,,,,,,,,,,,blue,circle
399.0,4.0,4.0,0.0,1.0,1.0,550.7199857383966,2.0,1.0,part_1,,,,,,,,,,,,,blue,circle
381.0,4.0,4.0,0.0,4.0,4.0,378.1890952959656,2.0,1.0,part_1,,,,,,,,,,,,,blue,circle
420.0,8.0,4.0,1.0,1.0,1.0,365.1693407446146,2.0,1.0,part_1,,,,,,,,,,,,,gray,flipped triangle
0.0,7.0,0.0,1.0,2.0,2.0,474.7853754088282,2.0,1.0,part_1,,,,,,,,,,,,,cyan,diamond
0.0,7.0,0.0,1.0,1.0,1.0,391.3688771426677,2.0,1.0,part_1,,,,,,,,,,,,,cyan,diamond
111.0,6.0,2.0,1.0,1.0,1.0,610.6237815693021,2.0,1.0,part_1,,,,,,,,,,,,,orange,square
0.0,6.0,0.0,1.0,4.0,4.0,392.2025365754962,2.0,1.0,part_1,,,,,,,,,,,,,orange,square
62.0,5.0,1.0,1.0,2.0,2.0,647.5533656775951,2.0,1.0,part_1,,,,,,,,,,,,,white,hexagon
99.0,6.0,2.0,1.0,2.0,2.0,511.9565073400736,2.0,1.0,part_1,,,,,,,,,,,,,orange,square
0.0,8.0,0.0,1.0,1.0,1.0,573.2362261041999,2.0,1.0,part_1,,,,,,,,,,,,,gray,flipped triangle
421.0,4.0,4.0,0.0,3.0,3.0,549.0550938993692,2.0,1.0,part_1,,,,,,,,,,,,,blue,circle
111.0,2.0,2.0,0.0,2.0,2.0,495.5277210101485,2.0,1.0,part_1,,,,,,,,,,,,,magenta,I
55.0,5.0,1.0,1.0,1.0,1.0,475.6109016016125,2.0,1.0,part_1,,,,,,,,,,,,,white,hexagon
121.0,6.0,2.0,1.0,4.0,4.0,456.3386030495167,2.0,1.0,part_1,,,,,,,,,,,,,orange,square
107.0,6.0,2.0,1.0,3.0,3.0,455.8847919106483,2.0,1.0,part_1,,,,,,,,,,,,,orange,square
187.0,3.0,3.0,0.0,2.0,2.0,371.3202122598886,2.0,1.0,part_1,,,,,,,,,,,,,yellow,triangle
29.0,1.0,1.0,0.0,2.0,2.0,408.831070177257,2.0,1.0,part_1,,,,,,,,,,,,,green,cross
70.0,5.0,1.0,1.0,1.0,1.0,371.0337541997432,2.0,1.0,part_1,,,,,,,,,,,,,white,hexagon
212.0,3.0,3.0,0.0,4.0,4.0,329.5780755579471,2.0,1.0,part_1,,,,,,,,,,,,,yellow,triangle
105.0,6.0,2.0,1.0,3.0,3.0,350.096495822072,2.0,1.0,part_1,,,,,,,,,,,,,orange,square
92.0,2.0,2.0,0.0,1.0,1.0,553.5786673426628,2.0,1.0,part_1,,,,,,,,,,,,,magenta,I
111.0,2.0,2.0,0.0,2.0,2.0,334.2391876503825,2.0,1.0,part_1,,,,,,,,,,,,,magenta,I
77.0,2.0,2.0,0.0,2.0,2.0,363.1631275638938,2.0,1.0,part_1,,,,,,,,,,,,,magenta,I
48.0,1.0,1.0,0.0,2.0,2.0,351.5801513567567,2.0,1.0,part_1,,,,,,,,,,,,,green,cross
95.0,6.0,2.0,1.0,2.0,2.0,363.3946487680077,2.0,1.0,part_1,,,,,,,,,,,,,orange,square
199.0,3.0,3.0,0.0,1.0,1.0,380.0404854118824,2.0,1.0,part_1,,,,,,,,,,,,,yellow,triangle
93.0,2.0,2.0,0.0,2.0,2.0,384.2118876054883,2.0,1.0,part_1,,,,,,,,,,,,,magenta,I
201.0,7.0,3.0,1.0,1.0,1.0,299.3698278442025,2.0,1.0,part_1,,,,,,,,,,,,,cyan,diamond
375.0,4.0,4.0,0.0,4.0,4.0,359.0924451127648,2.0,1.0,part_1,,,,,,,,,,,,,blue,circle
87.0,2.0,2.0,0.0,4.0,4.0,451.8151804804802,2.0,1.0,part_1,,,,,,,,,,,,,magenta,I
51.0,1.0,1.0,0.0,2.0,2.0,416.165848262608,2.0,1.0,part_1,,,,,,,,,,,,,green,cross
176.0,7.0,3.0,1.0,4.0,4.0,301.1376652866602,2.0,1.0,part_1,,,,,,,,,,,,,cyan,diamond
27.0,1.0,1.0,0.0,4.0,4.0,330.3893180564046,2.0,1.0,part_1,,,,,,,,,,,,,green,cross
83.0,2.0,2.0,0.0,3.0,3.0,375.6513092666864,2.0,1.0,part_1,,,,,,,,,,,,,magenta,I
0.0,2.0,0.0,0.0,4.0,4.0,316.615323536098,2.0,1.0,part_1,,,,,,,,,,,,,magenta,I
69.0,1.0,1.0,0.0,2.0,2.0,367.634754627943,2.0,1.0,part_1,,,,,,,,,,,,,green,cross
203.0,7.0,3.0,1.0,2.0,2.0,349.7607223689556,2.0,1.0,part_1,,,,,,,,,,,,,cyan,diamond
413.0,8.0,4.0,1.0,1.0,1.0,312.8940146416425,2.0,1.0,part_1,,,,,,,,,,,,,gray,flipped triangle
82.0,2.0,2.0,0.0,4.0,4.0,262.9788732156157,2.0,1.0,part_1,,,,,,,,,,,,,magenta,I
379.0,8.0,4.0,1.0,4.0,4.0,242.1507015824318,2.0,1.0,part_1,,,,,,,,,,,,,gray,flipped triangle
0.0,6.0,0.0,1.0,4.0,4.0,239.3237212672829,2.0,1.0,part_1,,,,,,,,,,,,,orange,square
223.0,7.0,3.0,1.0,3.0,3.0,456.1986653134227,2.0,2.0,part_1,,,,,,,,,,,,,cyan,diamond
0.0,2.0,0.0,0.0,3.0,3.0,399.413120932877,2.0,1.0,part_1,,,,,,,,,,,,,magenta,I
0.0,1.0,0.0,0.0,3.0,3.0,380.1371054723859,2.0,1.0,part_1,,,,,,,,,,,,,green,cross
399.0,4.0,4.0,0.0,2.0,2.0,494.0418098121881,2.0,1.0,part_1,,,,,,,,,,,,,blue,circle
0.0,2.0,0.0,0.0,1.0,1.0,643.3579660952091,2.0,1.0,part_1,,,,,,,,,,,,,magenta,I
49.0,1.0,1.0,0.0,1.0,1.0,499.3140771985054,2.0,1.0,part_1,,,,,,,,,,,,,green,cross
111.0,2.0,2.0,0.0,2.0,2.0,597.9180196300149,2.0,1.0,part_1,,,,,,,,,,,,,magenta,I
0.0,3.0,0.0,0.0,2.0,2.0,489.4413268193602,2.0,1.0,part_1,,,,,,,,,,,,,yellow,triangle
205.0,3.0,3.0,0.0,3.0,3.0,557.2178047150373,2.0,1.0,part_1,,,,,,,,,,,,,yellow,triangle
0.0,3.0,0.0,0.0,4.0,4.0,412.8004321828484,2.0,1.0,part_1,,,,,,,,,,,,,yellow,triangle
424.0,4.0,4.0,0.0,4.0,4.0,407.68211055547,2.0,1.0,part_1,,,,,,,,,,,,,blue,circle
185.0,7.0,3.0,1.0,4.0,4.0,413.4763795882463,2.0,1.0,part_1,,,,,,,,,,,,,cyan,diamond
90.0,2.0,2.0,0.0,2.0,2.0,447.9300193488598,2.0,1.0,part_1,,,,,,,,,,,,,magenta,I
0.0,1.0,0.0,0.0,2.0,2.0,415.8611884340644,2.0,1.0,part_1,,,,,,,,,,,,,green,cross
0.0,2.0,0.0,0.0,2.0,2.0,441.4274636656046,2.0,1.0,part_1,,,,,,,,,,,,,magenta,I
196.0,3.0,3.0,0.0,1.0,1.0,567.7305590361357,2.0,1.0,part_1,,,,,,,,,,,,,yellow,triangle
37.0,1.0,1.0,0.0,2.0,2.0,444.8910346254706,2.0,1.0,part_1,,,,,,,,,,,,,green,cross
421.0,8.0,4.0,1.0,4.0,4.0,465.2511030435562,2.0,1.0,part_1,,,,,,,,,,,,,gray,flipped triangle
111.0,6.0,2.0,1.0,1.0,1.0,398.86315446347,2.0,1.0,part_1,,,,,,,,,,,,,orange,square
414.0,4.0,4.0,0.0,3.0,3.0,459.8259506747126,2.0,1.0,part_1,,,,,,,,,,,,,blue,circle
386.0,8.0,4.0,1.0,2.0,2.0,431.3544789329171,2.0,1.0,part_1,,,,,,,,,,,,,gray,flipped triangle
178.0,7.0,3.0,1.0,2.0,2.0,378.5770135000348,2.0,1.0,part_1,,,,,,,,,,,,,cyan,diamond
206.0,3.0,3.0,0.0,3.0,3.0,369.8692414909601,2.0,1.0,part_1,,,,,,,,,,,,,yellow,triangle
196.0,7.0,3.0,1.0,2.0,2.0,383.3641586825251,2.0,1.0,part_1,,,,,,,,,,,,,cyan,diamond
69.0,5.0,1.0,1.0,1.0,1.0,385.5672283098101,2.0,1.0,part_1,,,,,,,,,,,,,white,hexagon
0.0,7.0,0.0,1.0,3.0,3.0,390.8616043627262,2.0,1.0,part_1,,,,,,,,,,,,,cyan,diamond
121.0,2.0,2.0,0.0,2.0,2.0,321.8857692554593,2.0,1.0,part_1,,,,,,,,,,,,,magenta,I
399.0,4.0,4.0,0.0,1.0,1.0,376.7775120213628,2.0,1.0,part_1,,,,,,,,,,,,,blue,circle
51.0,5.0,1.0,1.0,2.0,2.0,461.1593056470155,2.0,1.0,part_1,,,,,,,,,,,,,white,hexagon
94.0,2.0,2.0,0.0,4.0,4.0,376.3594217598438,2.0,1.0,part_1,,,,,,,,,,,,,magenta,I
63.0,1.0,1.0,0.0,3.0,3.0,416.5808064863086,2.0,1.0,part_1,,,,,,,,,,,,,green,cross
55.0,1.0,1.0,0.0,4.0,4.0,436.3322798162699,2.0,1.0,part_1,,,,,,,,,,,,,green,cross
386.0,4.0,4.0,0.0,4.0,4.0,485.6622004881501,2.0,1.0,part_1,,,,,,,,,,,,,blue,circle
410.0,8.0,4.0,1.0,3.0,3.0,490.5696427449584,2.0,1.0,part_1,,,,,,,,,,,,,gray,flipped triangle
388.0,4.0,4.0,0.0,2.0,2.0,415.3549708425998,2.0,1.0,part_1,,,,,,,,,,,,,blue,circle
59.0,5.0,1.0,1.0,1.0,1.0,596.5783726423979,2.0,1.0,part_1,,,,,,,,,,,,,white,hexagon
0.0,7.0,0.0,1.0,4.0,4.0,347.9456482455134,2.0,1.0,part_1,,,,,,,,,,,,,cyan,diamond
0.0,4.0,0.0,0.0,4.0,4.0,429.1539806872606,2.0,1.0,part_1,,,,,,,,,,,,,blue,circle
62.0,1.0,1.0,0.0,2.0,2.0,352.0442154258489,3.0,1.0,part_1,,,,,,,,,,,,,green,cross
68.0,1.0,1.0,0.0,4.0,4.0,363.3434996008873,3.0,1.0,part_1,,,,,,,,,,,,,green,cross
34.0,1.0,1.0,0.0,1.0,1.0,305.579780600965,3.0,1.0,part_1,,,,,,,,,,,,,green,cross
402.0,8.0,4.0,1.0,2.0,2.0,375.5330359563231,3.0,1.0,part_1,,,,,,,,,,,,,gray,flipped triangle
402.0,8.0,4.0,1.0,3.0,3.0,284.9344946444034,3.0,1.0,part_1,,,,,,,,,,,,,gray,flipped triangle
0.0,5.0,0.0,1.0,1.0,1.0,239.1885658726096,3.0,1.0,part_1,,,,,,,,,,,,,white,hexagon
42.0,1.0,1.0,0.0,2.0,2.0,250.5728779360652,3.0,1.0,part_1,,,,,,,,,,,,,green,cross
0.0,5.0,0.0,1.0,4.0,4.0,297.7225193753838,3.0,1.0,part_1,,,,,,,,,,,,,white,hexagon
389.0,4.0,4.0,0.0,2.0,2.0,299.9541806057095,3.0,1.0,part_1,,,,,,,,,,,,,blue,circle
45.0,5.0,1.0,1.0,1.0,1.0,313.0377316847443,3.0,1.0,part_1,,,,,,,,,,,,,white,hexagon
40.0,1.0,1.0,0.0,3.0,3.0,342.6262177526951,3.0,1.0,part_1,,,,,,,,,,,,,green,cross
188.0,7.0,3.0,1.0,3.0,3.0,420.6999242305755,3.0,1.0,part_1,,,,,,,,,,,,,cyan,diamond
0.0,8.0,0.0,1.0,1.0,1.0,367.214354686439,3.0,1.0,part_1,,,,,,,,,,,,,gray,flipped triangle
389.0,8.0,4.0,1.0,4.0,4.0,455.1681177690625,3.0,1.0,part_1,,,,,,,,,,,,,gray,flipped triangle
118.0,2.0,2.0,0.0,1.0,1.0,351.8468188121915,3.0,1.0,part_1,,,,,,,,,,,,,magenta,I
193.0,7.0,3.0,1.0,1.0,1.0,380.5489242076874,3.0,1.0,part_1,,,,,,,,,,,,,cyan,diamond
0.0,2.0,0.0,0.0,3.0,3.0,297.6522045210004,3.0,1.0,part_1,,,,,,,,,,,,,magenta,I
181.0,3.0,3.0,0.0,2.0,2.0,301.5289669856429,3.0,1.0,part_1,,,,,,,,,,,,,yellow,triangle
0.0,2.0,0.0,0.0,3.0,3.0,322.5016454234719,3.0,1.0,part_1,,,,,,,,,,,,,magenta,I
34.0,1.0,1.0,0.0,1.0,1.0,361.9295535609126,3.0,1.0,part_1,,,,,,,,,,,,,green,cross
0.0,6.0,0.0,1.0,1.0,1.0,317.5906045362353,3.0,1.0,part_1,,,,,,,,,,,,,orange,square
0.0,3.0,0.0,0.0,3.0,3.0,360.6905359774828,3.0,1.0,part_1,,,,,,,,,,,,,yellow,triangle
375.0,8.0,4.0,1.0,2.0,2.0,351.5588948503136,3.0,1.0,part_1,,,,,,,,,,,,,gray,flipped triangle
397.0,4.0,4.0,0.0,4.0,4.0,276.8746884539723,3.0,1.0,part_1,,,,,,,,,,,,,blue,circle
115.0,6.0,2.0,1.0,3.0,3.0,334.6923300996423,3.0,1.0,part_1,,,,,,,,,,,,,orange,square
77.0,6.0,2.0,1.0,2.0,2.0,355.245454236865,3.0,1.0,part_1,,,,,,,,,,,,,orange,square
375.0,8.0,4.0,1.0,4.0,4.0,330.3344305604696,3.0,1.0,part_1,,,,,,,,,,,,,gray,flipped triangle
181.0,7.0,3.0,1.0,4.0,4.0,420.6733061000705,3.0,1.0,part_1,,,,,,,,,,,,,cyan,diamond
410.0,4.0,4.0,0.0,4.0,4.0,379.0731607005,3.0,1.0,part_1,,,,,,,,,,,,,blue,circle
85.0,6.0,2.0,1.0,4.0,4.0,335.9783608466387,3.0,1.0,part_1,,,,,,,,,,,,,orange,square
62.0,5.0,1.0,1.0,2.0,2.0,322.5310314446687,3.0,1.0,part_1,,,,,,,,,,,,,white,hexagon
34.0,5.0,1.0,1.0,2.0,2.0,466.0349190235138,3.0,1.0,part_1,,,,,,,,,,,,,white,hexagon
49.0,5.0,1.0,1.0,1.0,1.0,559.8274692893028,3.0,1.0,part_1,,,,,,,,,,,,,white,hexagon
105.0,2.0,2.0,0.0,2.0,2.0,416.862684302032,3.0,1.0,part_1,,,,,,,,,,,,,magenta,I
224.0,3.0,3.0,0.0,2.0,2.0,425.2190580591559,3.0,1.0,part_1,,,,,,,,,,,,,yellow,triangle
225.0,7.0,3.0,1.0,3.0,3.0,379.3888855725527,3.0,1.0,part_1,,,,,,,,,,,,,cyan,diamond
40.0,1.0,1.0,0.0,3.0,3.0,271.221031434834,3.0,1.0,part_1,,,,,,,,,,,,,green,cross
40.0,5.0,1.0,1.0,1.0,1.0,387.3201385140419,3.0,1.0,part_1,,,,,,,,,,,,,white,hexagon
200.0,3.0,3.0,0.0,1.0,1.0,424.4223404675722,3.0,1.0,part_1,,,,,,,,,,,,,yellow,triangle
402.0,4.0,4.0,0.0,2.0,2.0,333.6128126829862,3.0,1.0,part_1,,,,,,,,,,,,,blue,circle
115.0,2.0,2.0,0.0,2.0,2.0,266.3048580288887,3.0,1.0,part_1,,,,,,,,,,,,,magenta,I
0.0,1.0,0.0,0.0,3.0,3.0,472.491767257452,3.0,1.0,part_1,,,,,,,,,,,,,green,cross
199.0,7.0,3.0,1.0,1.0,1.0,301.4819659292698,3.0,1.0,part_1,,,,,,,,,,,,,cyan,diamond
0.0,4.0,0.0,0.0,3.0,3.0,464.5697986707091,3.0,1.0,part_1,,,,,,,,,,,,,blue,circle
118.0,6.0,2.0,1.0,2.0,2.0,373.9722380414605,3.0,1.0,part_1,,,,,,,,,,,,,orange,square
201.0,3.0,3.0,0.0,4.0,4.0,441.4050141349435,3.0,1.0,part_1,,,,,,,,,,,,,yellow,triangle
207.0,3.0,3.0,0.0,4.0,4.0,357.737461104989,3.0,1.0,part_1,,,,,,,,,,,,,yellow,triangle
0.0,3.0,0.0,0.0,2.0,2.0,306.4651051536202,3.0,1.0,part_1,,,,,,,,,,,,,yellow,triangle
399.0,8.0,4.0,1.0,3.0,3.0,466.0221608355641,3.0,1.0,part_1,,,,,,,,,,,,,gray,flipped triangle
119.0,6.0,2.0,1.0,4.0,4.0,367.1656884253025,3.0,1.0,part_1,,,,,,,,,,,,,orange,square
413.0,4.0,4.0,0.0,1.0,1.0,480.3563635796308,3.0,1.0,part_1,,,,,,,,,,,,,blue,circle
54.0,5.0,1.0,1.0,4.0,4.0,407.0256203413009,3.0,1.0,part_1,,,,,,,,,,,,,white,hexagon
0.0,2.0,0.0,0.0,3.0,3.0,460.6855176389217,3.0,1.0,part_1,,,,,,,,,,,,,magenta,I
182.0,3.0,3.0,0.0,2.0,2.0,433.2193909212947,3.0,1.0,part_1,,,,,,,,,,,,,yellow,triangle
122.0,2.0,2.0,0.0,3.0,3.0,413.2579350844025,3.0,1.0,part_1,,,,,,,,,,,,,magenta,I
406.0,8.0,4.0,1.0,2.0,2.0,306.9644281640649,3.0,1.0,part_1,,,,,,,,,,,,,gray,flipped triangle
406.0,4.0,4.0,0.0,3.0,3.0,300.9228836745024,3.0,1.0,part_1,,,,,,,,,,,,,blue,circle
0.0,4.0,0.0,0.0,4.0,4.0,308.6823895573616,3.0,1.0,part_1,,,,,,,,,,,,,blue,circle
381.0,8.0,4.0,1.0,1.0,1.0,376.0671531781554,3.0,1.0,part_1,,,,,,,,,,,,,gray,flipped triangle
40.0,5.0,1.0,1.0,4.0,4.0,404.4668897986412,3.0,1.0,part_1,,,,,,,,,,,,,white,hexagon
201.0,7.0,3.0,1.0,4.0,4.0,352.2063056007027,3.0,1.0,part_1,,,,,,,,,,,,,cyan,diamond
48.0,1.0,1.0,0.0,3.0,3.0,343.8109150156379,3.0,1.0,part_1,,,,,,,,,,,,,green,cross
59.0,1.0,1.0,0.0,3.0,3.0,308.7005857378244,3.0,1.0,part_1,,,,,,,,,,,,,green,cross
54.0,1.0,1.0,0.0,4.0,4.0,305.4645908996463,3.0,1.0,part_1,,,,,,,,,,,,,green,cross
391.0,4.0,4.0,0.0,2.0,2.0,404.5692626386881,3.0,1.0,part_1,,,,,,,,,,,,,blue,circle
70.0,1.0,1.0,0.0,4.0,4.0,400.3743631765246,3.0,1.0,part_1,,,,,,,,,,,,,green,cross
29.0,1.0,1.0,0.0,3.0,3.0,371.5155823156237,3.0,1.0,part_1,,,,,,,,,,,,,green,cross
219.0,7.0,3.0,1.0,3.0,3.0,416.6147951036691,3.0,1.0,part_1,,,,,,,,,,,,,cyan,diamond
0.0,7.0,0.0,1.0,1.0,1.0,429.4371679425239,3.0,1.0,part_1,,,,,,,,,,,,,cyan,diamond
0.0,1.0,0.0,0.0,2.0,2.0,419.7925943881273,3.0,1.0,part_1,,,,,,,,,,,,,green,cross
393.0,4.0,4.0,0.0,3.0,3.0,399.5924023911357,3.0,1.0,part_1,,,,,,,,,,,,,blue,circle
39.0,5.0,1.0,1.0,3.0,3.0,323.5696526244283,3.0,1.0,part_1,,,,,,,,,,,,,white,hexagon
0.0,3.0,0.0,0.0,4.0,4.0,305.9200430288911,3.0,1.0,part_1,,,,,,,,,,,,,yellow,triangle
39.0,5.0,1.0,1.0,2.0,2.0,561.2396607175469,3.0,1.0,part_1,,,,,,,,,,,,,white,hexagon
413.0,8.0,4.0,1.0,2.0,2.0,427.6928957551718,3.0,1.0,part_1,,,,,,,,,,,,,gray,flipped triangle
407.0,8.0,4.0,1.0,3.0,3.0,398.6069029197097,3.0,1.0,part_1,,,,,,,,,,,,,gray,flipped triangle
0.0,5.0,0.0,1.0,2.0,2.0,318.1885695084929,3.0,1.0,part_1,,,,,,,,,,,,,white,hexagon
89.0,6.0,2.0,1.0,1.0,1.0,441.5135150775313,3.0,1.0,part_1,,,,,,,,,,,,,orange,square
62.0,5.0,1.0,1.0,2.0,2.0,397.0808498561382,3.0,1.0,part_1,,,,,,,,,,,,,white,hexagon
81.0,2.0,2.0,0.0,3.0,3.0,426.2128416448831,3.0,1.0,part_1,,,,,,,,,,,,,magenta,I
393.0,8.0,4.0,1.0,1.0,1.0,361.0578691586852,3.0,1.0,part_1,,,,,,,,,,,,,gray,flipped triangle
85.0,2.0,2.0,0.0,3.0,3.0,445.3885871917009,3.0,1.0,part_1,,,,,,,,,,,,,magenta,I
187.0,3.0,3.0,0.0,3.0,3.0,366.6140753775835,3.0,1.0,part_1,,,,,,,,,,,,,yellow,triangle
197.0,3.0,3.0,0.0,4.0,4.0,277.2733261808753,3.0,1.0,part_1,,,,,,,,,,,,,yellow,triangle
58.0,1.0,1.0,0.0,2.0,2.0,345.214020460844,3.0,1.0,part_1,,,,,,,,,,,,,green,cross
82.0,6.0,2.0,1.0,3.0,3.0,318.9447494223714,3.0,1.0,part_1,,,,,,,,,,,,,orange,square
182.0,7.0,3.0,1.0,3.0,3.0,339.4208280369639,3.0,1.0,part_1,,,,,,,,,,,,,cyan,diamond
0.0,7.0,0.0,1.0,4.0,4.0,337.8366036340594,3.0,1.0,part_1,,,,,,,,,,,,,cyan,diamond
381.0,8.0,4.0,1.0,2.0,2.0,428.9760664105415,3.0,1.0,part_1,,,,,,,,,,,,,gray,flipped triangle
0.0,4.0,0.0,0.0,2.0,2.0,415.9628739580512,3.0,1.0,part_1,,,,,,,,,,,,,blue,circle
39.0,1.0,1.0,0.0,4.0,4.0,342.6275178790092,3.0,1.0,part_1,,,,,,,,,,,,,green,cross
225.0,3.0,3.0,0.0,1.0,1.0,427.9302731156349,3.0,1.0,part_1,,,,,,,,,,,,,yellow,triangle
94.0,6.0,2.0,1.0,2.0,2.0,374.3125237524509,3.0,1.0,part_1,,,,,,,,,,,,,orange,square
402.0,8.0,4.0,1.0,4.0,4.0,429.4007988646626,3.0,1.0,part_1,,,,,,,,,,,,,gray,flipped triangle
201.0,3.0,3.0,0.0,4.0,4.0,400.4135932773351,3.0,1.0,part_1,,,,,,,,,,,,,yellow,triangle
85.0,6.0,2.0,1.0,2.0,2.0,315.0159679353237,3.0,1.0,part_1,,,,,,,,,,,,,orange,square
178.0,3.0,3.0,0.0,1.0,1.0,321.6729443520307,3.0,1.0,part_1,,,,,,,,,,,,,yellow,triangle
0.0,7.0,0.0,1.0,2.0,2.0,308.7934209033847,3.0,1.0,part_1,,,,,,,,,,,,,cyan,diamond
196.0,3.0,3.0,0.0,1.0,1.0,324.0418946370482,3.0,1.0,part_1,,,,,,,,,,,,,yellow,triangle
216.0,3.0,3.0,0.0,3.0,3.0,350.778017193079,3.0,1.0,part_1,,,,,,,,,,,,,yellow,triangle
404.0,4.0,4.0,0.0,2.0,2.0,330.1075641065836,4.0,1.0,part_1,,,,,,,,,,,,,blue,circle
0.0,4.0,0.0,0.0,1.0,1.0,309.3096241354942,4.0,1.0,part_1,,,,,,,,,,,,,blue,circle
41.0,1.0,1.0,0.0,2.0,2.0,330.5486254394054,4.0,1.0,part_1,,,,,,,,,,,,,green,cross
212.0,3.0,3.0,0.0,1.0,1.0,280.7300249114632,4.0,1.0,part_1,,,,,,,,,,,,,yellow,triangle
182.0,7.0,3.0,1.0,1.0,1.0,358.6857290938496,4.0,1.0,part_1,,,,,,,,,,,,,cyan,diamond
110.0,6.0,2.0,1.0,3.0,3.0,400.9625315666199,4.0,1.0,part_1,,,,,,,,,,,,,orange,square
398.0,4.0,4.0,0.0,1.0,1.0,359.5957662910223,4.0,1.0,part_1,,,,,,,,,,,,,blue,circle
0.0,1.0,0.0,0.0,3.0,3.0,297.5378297269344,4.0,1.0,part_1,,,,,,,,,,,,,green,cross
0.0,3.0,0.0,0.0,2.0,2.0,351.2496771290898,4.0,1.0,part_1,,,,,,,,,,,,,yellow,triangle
0.0,4.0,0.0,0.0,2.0,2.0,444.1170776262879,4.0,1.0,part_1,,,,,,,,,,,,,blue,circle
396.0,8.0,4.0,1.0,3.0,3.0,375.5882633849978,4.0,1.0,part_1,,,,,,,,,,,,,gray,flipped triangle
0.0,4.0,0.0,0.0,4.0,4.0,269.2250218242407,4.0,1.0,part_1,,,,,,,,,,,,,blue,circle
396.0,4.0,4.0,0.0,3.0,3.0,300.0257825478911,4.0,1.0,part_1,,,,,,,,,,,,,blue,circle
0.0,5.0,0.0,1.0,4.0,4.0,289.6640915423631,4.0,1.0,part_1,,,,,,,,,,,,,white,hexagon
122.0,6.0,2.0,1.0,2.0,2.0,316.9530257582664,4.0,1.0,part_1,,,,,,,,,,,,,orange,square
413.0,4.0,4.0,0.0,1.0,1.0,391.515283845365,4.0,1.0,part_1,,,,,,,,,,,,,blue,circle
196.0,7.0,3.0,1.0,1.0,1.0,397.7003106847405,4.0,1.0,part_1,,,,,,,,,,,,,cyan,diamond
394.0,4.0,4.0,0.0,4.0,4.0,281.8293794989586,4.0,1.0,part_1,,,,,,,,,,,,,blue,circle
223.0,3.0,3.0,0.0,3.0,3.0,333.7826374918222,4.0,1.0,part_1,,,,,,,,,,,,,yellow,triangle
62.0,1.0,1.0,0.0,1.0,1.0,579.8353105783463,4.0,1.0,part_1,,,,,,,,,,,,,green,cross
89.0,2.0,2.0,0.0,1.0,1.0,481.2610270455479,4.0,1.0,part_1,,,,,,,,,,,,,magenta,I
87.0,6.0,2.0,1.0,4.0,4.0,315.6563583761453,4.0,1.0,part_1,,,,,,,,,,,,,orange,square
212.0,7.0,3.0,1.0,3.0,3.0,347.090695053339,4.0,1.0,part_1,,,,,,,,,,,,,cyan,diamond
188.0,7.0,3.0,1.0,3.0,3.0,317.7534639835357,4.0,1.0,part_1,,,,,,,,,,,,,cyan,diamond
389.0,8.0,4.0,1.0,1.0,1.0,533.5124367848039,4.0,1.0,part_1,,,,,,,,,,,,,gray,flipped triangle
58.0,5.0,1.0,1.0,4.0,4.0,313.2067928090691,4.0,1.0,part_1,,,,,,,,,,,,,white,hexagon
0.0,5.0,0.0,1.0,4.0,4.0,390.0464409962296,4.0,1.0,part_1,,,,,,,,,,,,,white,hexagon
49.0,1.0,1.0,0.0,3.0,3.0,434.9325243383646,4.0,1.0,part_1,,,,,,,,,,,,,green,cross
407.0,4.0,4.0,0.0,1.0,1.0,335.0127646699548,4.0,1.0,part_1,,,,,,,,,,,,,blue,circle
203.0,3.0,3.0,0.0,2.0,2.0,458.1726845353842,4.0,1.0,part_1,,,,,,,,,,,,,yellow,triangle
107.0,2.0,2.0,0.0,3.0,3.0,328.5974999889731,4.0,1.0,part_1,,,,,,,,,,,,,magenta,I
85.0,2.0,2.0,0.0,4.0,4.0,378.4458711743355,4.0,1.0,part_1,,,,,,,,,,,,,magenta,I
39.0,1.0,1.0,0.0,1.0,1.0,353.9537172764539,4.0,1.0,part_1,,,,,,,,,,,,,green,cross
184.0,7.0,3.0,1.0,3.0,3.0,332.8677341341972,4.0,1.0,part_1,,,,,,,,,,,,,cyan,diamond
85.0,6.0,2.0,1.0,2.0,2.0,403.1365159898996,4.0,1.0,part_1,,,,,,,,,,,,,orange,square
420.0,4.0,4.0,0.0,3.0,3.0,383.7745590135455,4.0,1.0,part_1,,,,,,,,,,,,,blue,circle
42.0,5.0,1.0,1.0,4.0,4.0,388.2584553211927,4.0,1.0,part_1,,,,,,,,,,,,,white,hexagon
95.0,2.0,2.0,0.0,4.0,4.0,374.9576853588223,4.0,1.0,part_1,,,,,,,,,,,,,magenta,I
196.0,3.0,3.0,0.0,3.0,3.0,350.0608894973993,4.0,1.0,part_1,,,,,,,,,,,,,yellow,triangle
106.0,6.0,2.0,1.0,1.0,1.0,378.8448544219136,4.0,1.0,part_1,,,,,,,,,,,,,orange,square
56.0,1.0,1.0,0.0,1.0,1.0,486.7664510384202,4.0,1.0,part_1,,,,,,,,,,,,,green,cross
0.0,8.0,0.0,1.0,3.0,3.0,440.926450304687,4.0,1.0,part_1,,,,,,,,,,,,,gray,flipped triangle
188.0,3.0,3.0,0.0,3.0,3.0,448.4641216695308,4.0,1.0,part_1,,,,,,,,,,,,,yellow,triangle
384.0,4.0,4.0,0.0,4.0,4.0,379.0424801409244,4.0,1.0,part_1,,,,,,,,,,,,,blue,circle
416.0,4.0,4.0,0.0,1.0,1.0,344.4521827623248,4.0,1.0,part_1,,,,,,,,,,,,,blue,circle
110.0,2.0,2.0,0.0,4.0,4.0,373.3957558870315,4.0,1.0,part_1,,,,,,,,,,,,,magenta,I
79.0,6.0,2.0,1.0,4.0,4.0,377.6619723066687,4.0,1.0,part_1,,,,,,,,,,,,,orange,square
0.0,6.0,0.0,1.0,4.0,4.0,357.8311959281564,4.0,1.0,part_1,,,,,,,,,,,,,orange,square
0.0,8.0,0.0,1.0,1.0,1.0,301.4226974919438,4.0,1.0,part_1,,,,,,,,,,,,,gray,flipped triangle
118.0,6.0,2.0,1.0,1.0,1.0,514.5790297538042,4.0,1.0,part_1,,,,,,,,,,,,,orange,square
64.0,1.0,1.0,0.0,1.0,1.0,446.2534878402948,4.0,1.0,part_1,,,,,,,,,,,,,green,cross
49.0,5.0,1.0,1.0,3.0,3.0,379.5822747051716,4.0,1.0,part_1,,,,,,,,,,,,,white,hexagon
72.0,5.0,1.0,1.0,4.0,4.0,310.2053636685014,4.0,1.0,part_1,,,,,,,,,,,,,white,hexagon
85.0,2.0,2.0,0.0,4.0,4.0,364.1394358128309,4.0,1.0,part_1,,,,,,,,,,,,,magenta,I
0.0,8.0,0.0,1.0,1.0,1.0,413.6795913800597,4.0,1.0,part_1,,,,,,,,,,,,,gray,flipped triangle
27.0,5.0,1.0,1.0,4.0,4.0,338.6688856408,4.0,1.0,part_1,,,,,,,,,,,,,white,hexagon
0.0,8.0,0.0,1.0,3.0,3.0,407.494350336492,4.0,1.0,part_1,,,,,,,,,,,,,gray,flipped triangle
398.0,4.0,4.0,0.0,4.0,4.0,319.1577065736055,4.0,1.0,part_1,,,,,,,,,,,,,blue,circle
381.0,4.0,4.0,0.0,3.0,3.0,322.2618410363793,4.0,1.0,part_1,,,,,,,,,,,,,blue,circle
402.0,4.0,4.0,0.0,4.0,4.0,333.792763762176,4.0,1.0,part_1,,,,,,,,,,,,,blue,circle
25.0,5.0,1.0,1.0,3.0,3.0,404.1418293491006,4.0,1.0,part_1,,,,,,,,,,,,,white,hexagon
381.0,8.0,4.0,1.0,3.0,3.0,424.3667600676417,4.0,1.0,part_1,,,,,,,,,,,,,gray,flipped triangle
110.0,6.0,2.0,1.0,4.0,4.0,358.37013553828,4.0,1.0,part_1,,,,,,,,,,,,,orange,square
204.0,3.0,3.0,0.0,3.0,3.0,299.8103788122535,4.0,1.0,part_1,,,,,,,,,,,,,yellow,triangle
0.0,2.0,0.0,0.0,4.0,4.0,308.9503133669495,4.0,1.0,part_1,,,,,,,,,,,,,magenta,I
216.0,7.0,3.0,1.0,2.0,2.0,395.4401025548577,4.0,1.0,part_1,,,,,,,,,,,,,cyan,diamond
213.0,3.0,3.0,0.0,4.0,4.0,338.1043151021004,4.0,1.0,part_1,,,,,,,,,,,,,yellow,triangle
414.0,8.0,4.0,1.0,3.0,3.0,394.6289122104645,4.0,1.0,part_1,,,,,,,,,,,,,gray,flipped triangle
184.0,3.0,3.0,0.0,1.0,1.0,418.2092677801847,4.0,1.0,part_1,,,,,,,,,,,,,yellow,triangle
68.0,5.0,1.0,1.0,1.0,1.0,524.4900323450565,4.0,1.0,part_1,,,,,,,,,,,,,white,hexagon
0.0,1.0,0.0,0.0,1.0,1.0,484.4248984009027,4.0,1.0,part_1,,,,,,,,,,,,,green,cross
375.0,4.0,4.0,0.0,2.0,2.0,465.086224488914,4.0,1.0,part_1,,,,,,,,,,,,,blue,circle
118.0,2.0,2.0,0.0,2.0,2.0,354.51761167496437,4.0,1.0,part_1,,,,,,,,,,,,,magenta,I
63.0,5.0,1.0,1.0,1.0,1.0,361.9838980957865,4.0,1.0,part_1,,,,,,,,,,,,,white,hexagon
416.0,8.0,4.0,1.0,2.0,2.0,309.8075864836573,4.0,1.0,part_1,,,,,,,,,,,,,gray,flipped triangle
399.0,8.0,4.0,1.0,4.0,4.0,328.7369385361671,4.0,1.0,part_1,,,,,,,,,,,,,gray,flipped triangle
0.0,5.0,0.0,1.0,4.0,4.0,336.514332331717,4.0,1.0,part_1,,,,,,,,,,,,,white,hexagon
407.0,8.0,4.0,1.0,3.0,3.0,354.8237457871437,4.0,1.0,part_1,,,,,,,,,,,,,gray,flipped triangle
34.0,5.0,1.0,1.0,3.0,3.0,328.6343468353152,4.0,1.0,part_1,,,,,,,,,,,,,white,hexagon
0.0,8.0,0.0,1.0,2.0,2.0,427.7552822604775,4.0,1.0,part_1,,,,,,,,,,,,,gray,flipped triangle
93.0,6.0,2.0,1.0,2.0,2.0,320.1270438730716,4.0,1.0,part_1,,,,,,,,,,,,,orange,square
74.0,5.0,1.0,1.0,4.0,4.0,276.8670944496989,4.0,1.0,part_1,,,,,,,,,,,,,white,hexagon
99.0,6.0,2.0,1.0,1.0,1.0,347.1055962145328,4.0,1.0,part_1,,,,,,,,,,,,,orange,square
0.0,8.0,0.0,1.0,4.0,4.0,262.7198025584221,4.0,1.0,part_1,,,,,,,,,,,,,gray,flipped triangle
402.0,4.0,4.0,0.0,3.0,3.0,349.684152752161,4.0,1.0,part_1,,,,,,,,,,,,,blue,circle
41.0,5.0,1.0,1.0,3.0,3.0,411.1670367419719,4.0,1.0,part_1,,,,,,,,,,,,,white,hexagon
0.0,6.0,0.0,1.0,4.0,4.0,421.0888631641865,4.0,1.0,part_1,,,,,,,,,,,,,orange,square
0.0,3.0,0.0,0.0,4.0,4.0,296.3653989136219,4.0,1.0,part_1,,,,,,,,,,,,,yellow,triangle
406.0,8.0,4.0,1.0,1.0,1.0,589.6636331453919,4.0,1.0,part_1,,,,,,,,,,,,,gray,flipped triangle
0.0,6.0,0.0,1.0,3.0,3.0,325.7899256423116,4.0,1.0,part_1,,,,,,,,,,,,,orange,square
187.0,7.0,3.0,1.0,4.0,4.0,465.0168279185891,4.0,1.0,part_1,,,,,,,,,,,,,cyan,diamond
69.0,5.0,1.0,1.0,3.0,3.0,421.8851709738374,4.0,1.0,part_1,,,,,,,,,,,,,white,hexagon
99.0,2.0,2.0,0.0,3.0,3.0,411.0195245593786,4.0,1.0,part_1,,,,,,,,,,,,,magenta,I
110.0,6.0,2.0,1.0,3.0,3.0,381.0472311452031,4.0,1.0,part_1,,,,,,,,,,,,,orange,square
0.0,6.0,0.0,1.0,1.0,1.0,625.6650136783719,4.0,1.0,part_1,,,,,,,,,,,,,orange,square
384.0,8.0,4.0,1.0,1.0,1.0,456.231982447207,4.0,1.0,part_1,,,,,,,,,,,,,gray,flipped triangle
208.0,3.0,3.0,0.0,4.0,4.0,386.803450062871,4.0,1.0,part_1,,,,,,,,,,,,,yellow,triangle
389.0,4.0,4.0,0.0,2.0,2.0,560.1452281698585,4.0,1.0,part_1,,,,,,,,,,,,,blue,circle
42.0,5.0,1.0,1.0,3.0,3.0,359.759408980608,4.0,1.0,part_1,,,,,,,,,,,,,white,hexagon
48.0,5.0,1.0,1.0,2.0,2.0,394.0816596150398,4.0,1.0,part_1,,,,,,,,,,,,,white,hexagon
0.0,3.0,3.0,0.0,5.0,5.0,357.9667946323752,1.0,0.0,part_2,go,250.0,250.0,1.0,,,,,,,,,yellow,triangle
0.0,5.0,1.0,1.0,6.0,6.0,511.0614700242877,1.0,0.0,part_2,stop,250.0,250.0,3.0,,,,,,,,,white,hexagon
0.0,6.0,2.0,1.0,5.0,5.0,284.8103428259492,1.0,0.0,part_2,stop,250.0,200.0,3.0,,,,,,,,,orange,square
0.0,1.0,1.0,0.0,6.0,6.0,299.1981348022818,1.0,0.0,part_2,go,200.0,200.0,1.0,,,,,,,,,green,cross
0.0,7.0,3.0,1.0,5.0,5.0,299.5765469968319,1.0,0.0,part_2,stop,200.0,200.0,3.0,,,,,,,,,cyan,diamond
0.0,8.0,4.0,1.0,5.0,0.0,0.0,1.0,0.0,part_2,stop,150.0,200.0,4.0,,,,,,,,,gray,flipped triangle
0.0,2.0,2.0,0.0,5.0,5.0,499.5100358501076,1.0,0.0,part_2,go,200.0,200.0,1.0,,,,,,,,,magenta,I
0.0,7.0,3.0,1.0,5.0,0.0,0.0,1.0,0.0,part_2,stop,200.0,200.0,4.0,,,,,,,,,cyan,diamond
0.0,8.0,4.0,1.0,6.0,6.0,321.0131442174315,1.0,0.0,part_2,stop,250.0,200.0,3.0,,,,,,,,,gray,flipped triangle
0.0,3.0,3.0,0.0,6.0,6.0,367.4050709232688,1.0,0.0,part_2,go,250.0,150.0,1.0,,,,,,,,,yellow,triangle
0.0,4.0,4.0,0.0,5.0,5.0,297.6951841264963,1.0,0.0,part_2,go,250.0,150.0,1.0,,,,,,,,,blue,circle
0.0,7.0,3.0,1.0,5.0,5.0,312.4265735968947,1.0,0.0,part_2,stop,250.0,150.0,3.0,,,,,,,,,cyan,diamond
0.0,7.0,3.0,1.0,6.0,6.0,358.8782511651516,1.0,0.0,part_2,stop,200.0,150.0,3.0,,,,,,,,,cyan,diamond
0.0,2.0,2.0,0.0,6.0,6.0,372.9818295687437,1.0,0.0,part_2,go,200.0,100.0,1.0,,,,,,,,,magenta,I
0.0,8.0,4.0,1.0,5.0,5.0,336.6566495969891,1.0,0.0,part_2,stop,200.0,100.0,3.0,,,,,,,,,gray,flipped triangle
0.0,5.0,1.0,1.0,6.0,0.0,0.0,1.0,0.0,part_2,stop,150.0,100.0,4.0,,,,,,,,,white,hexagon
0.0,4.0,4.0,0.0,6.0,6.0,484.16343703866,1.0,0.0,part_2,go,150.0,150.0,1.0,,,,,,,,,blue,circle
0.0,5.0,1.0,1.0,6.0,6.0,406.4363520592451,1.0,0.0,part_2,go,150.0,150.0,1.0,,,,,,,,,white,hexagon
0.0,3.0,3.0,0.0,5.0,5.0,348.4325297176838,1.0,0.0,part_2,go,150.0,150.0,1.0,,,,,,,,,yellow,triangle
0.0,1.0,1.0,0.0,6.0,6.0,353.8181213662028,1.0,0.0,part_2,go,150.0,150.0,1.0,,,,,,,,,green,cross
0.0,6.0,2.0,1.0,5.0,0.0,0.0,1.0,0.0,part_2,stop,150.0,150.0,4.0,,,,,,,,,orange,square
0.0,3.0,3.0,0.0,6.0,6.0,369.3071901798248,1.0,0.0,part_2,go,200.0,150.0,1.0,,,,,,,,,yellow,triangle
0.0,7.0,3.0,1.0,5.0,5.0,363.41034155339,1.0,0.0,part_2,stop,200.0,150.0,3.0,,,,,,,,,cyan,diamond
0.0,2.0,2.0,0.0,6.0,6.0,368.6946658417582,1.0,0.0,part_2,go,150.0,150.0,1.0,,,,,,,,,magenta,I
0.0,2.0,2.0,0.0,6.0,6.0,454.9652589485049,1.0,0.0,part_2,go,150.0,150.0,1.0,,,,,,,,,magenta,I
0.0,5.0,1.0,1.0,5.0,5.0,320.0226966291666,1.0,0.0,part_2,stop,150.0,150.0,3.0,,,,,,,,,white,hexagon
0.0,8.0,4.0,1.0,6.0,6.0,383.5926242172718,1.0,0.0,part_2,go,100.0,150.0,1.0,,,,,,,,,gray,flipped triangle
0.0,6.0,2.0,1.0,6.0,0.0,0.0,1.0,0.0,part_2,stop,100.0,150.0,4.0,,,,,,,,,orange,square
0.0,3.0,3.0,0.0,6.0,6.0,576.0183427482843,1.0,0.0,part_2,go,100.0,200.0,1.0,,,,,,,,,yellow,triangle
0.0,2.0,2.0,0.0,6.0,6.0,339.890225790441,1.0,0.0,part_2,go,100.0,200.0,1.0,,,,,,,,,magenta,I
0.0,1.0,1.0,0.0,6.0,6.0,334.9613593891263,1.0,0.0,part_2,go,100.0,200.0,1.0,,,,,,,,,green,cross
0.0,3.0,3.0,0.0,6.0,6.0,300.9970653802156,1.0,0.0,part_2,go,100.0,200.0,1.0,,,,,,,,,yellow,triangle
0.0,2.0,2.0,0.0,6.0,6.0,405.5148512125015,1.0,0.0,part_2,go,100.0,200.0,1.0,,,,,,,,,magenta,I
0.0,3.0,3.0,0.0,5.0,5.0,509.8180714994669,1.0,0.0,part_2,go,100.0,200.0,1.0,,,,,,,,,yellow,triangle
0.0,6.0,2.0,1.0,6.0,6.0,356.7465431988239,1.0,0.0,part_2,stop,100.0,200.0,3.0,,,,,,,,,orange,square
0.0,8.0,4.0,1.0,5.0,0.0,0.0,1.0,0.0,part_2,stop,100.0,150.0,4.0,,,,,,,,,gray,flipped triangle
0.0,8.0,4.0,1.0,6.0,6.0,466.6866566985845,2.0,0.0,part_2,stop,150.0,150.0,3.0,,,,,,,,,gray,flipped triangle
0.0,4.0,4.0,0.0,6.0,6.0,425.9444866329431,2.0,0.0,part_2,go,150.0,100.0,1.0,,,,,,,,,blue,circle
0.0,4.0,4.0,0.0,6.0,6.0,345.5841820687055,2.0,0.0,part_2,go,150.0,100.0,1.0,,,,,,,,,blue,circle
0.0,3.0,3.0,0.0,6.0,6.0,374.0109736099839,2.0,0.0,part_2,go,150.0,100.0,1.0,,,,,,,,,yellow,triangle
0.0,3.0,3.0,0.0,6.0,6.0,351.653185673058,2.0,0.0,part_2,go,150.0,100.0,1.0,,,,,,,,,yellow,triangle
0.0,7.0,3.0,1.0,5.0,5.0,317.8226286545396,2.0,0.0,part_2,go,150.0,100.0,1.0,,,,,,,,,cyan,diamond
0.0,6.0,2.0,1.0,5.0,5.0,350.769892334938,2.0,0.0,part_2,stop,150.0,100.0,3.0,,,,,,,,,orange,square
0.0,4.0,4.0,0.0,5.0,5.0,451.649566181004,2.0,0.0,part_2,go,100.0,100.0,1.0,,,,,,,,,blue,circle
0.0,2.0,2.0,0.0,5.0,5.0,442.6659131422639,2.0,0.0,part_2,go,100.0,100.0,1.0,,,,,,,,,magenta,I
0.0,1.0,1.0,0.0,6.0,6.0,377.6333928108215,2.0,0.0,part_2,go,100.0,100.0,1.0,,,,,,,,,green,cross
0.0,3.0,3.0,0.0,5.0,5.0,329.8796312883496,2.0,0.0,part_2,go,100.0,100.0,1.0,,,,,,,,,yellow,triangle
0.0,5.0,1.0,1.0,5.0,0.0,0.0,2.0,0.0,part_2,stop,100.0,100.0,4.0,,,,,,,,,white,hexagon
0.0,4.0,4.0,0.0,6.0,6.0,392.1315399929881,2.0,0.0,part_2,go,150.0,100.0,1.0,,,,,,,,,blue,circle
0.0,5.0,1.0,1.0,5.0,5.0,313.7317644432187,2.0,0.0,part_2,stop,150.0,100.0,3.0,,,,,,,,,white,hexagon
0.0,7.0,3.0,1.0,6.0,0.0,0.0,2.0,0.0,part_2,stop,100.0,100.0,4.0,,,,,,,,,cyan,diamond
0.0,7.0,3.0,1.0,6.0,6.0,464.3608080223202,2.0,0.0,part_2,go,100.0,150.0,1.0,,,,,,,,,cyan,diamond
0.0,3.0,3.0,0.0,6.0,6.0,280.550368130207,2.0,0.0,part_2,go,100.0,150.0,1.0,,,,,,,,,yellow,triangle
0.0,2.0,2.0,0.0,6.0,6.0,261.5003623068332,2.0,0.0,part_2,go,100.0,150.0,1.0,,,,,,,,,magenta,I
0.0,7.0,3.0,1.0,5.0,0.0,0.0,2.0,0.0,part_2,stop,100.0,150.0,4.0,,,,,,,,,cyan,diamond
0.0,2.0,2.0,0.0,5.0,5.0,437.7205176278949,2.0,0.0,part_2,go,150.0,150.0,1.0,,,,,,,,,magenta,I
0.0,6.0,2.0,1.0,5.0,5.0,223.0843417346477,2.0,0.0,part_2,stop,150.0,150.0,3.0,,,,,,,,,orange,square
0.0,1.0,1.0,0.0,5.0,5.0,381.0468325391412,2.0,0.0,part_2,go,100.0,150.0,1.0,,,,,,,,,green,cross
0.0,1.0,1.0,0.0,6.0,6.0,354.8903223127126,2.0,0.0,part_2,go,100.0,150.0,1.0,,,,,,,,,green,cross
0.0,6.0,2.0,1.0,6.0,6.0,349.678254686296,2.0,0.0,part_2,go,100.0,150.0,1.0,,,,,,,,,orange,square
0.0,4.0,4.0,0.0,6.0,6.0,354.3110797181725,2.0,0.0,part_2,go,100.0,150.0,1.0,,,,,,,,,blue,circle
0.0,1.0,1.0,0.0,6.0,6.0,307.1649745106697,2.0,0.0,part_2,go,100.0,150.0,1.0,,,,,,,,,green,cross
0.0,8.0,4.0,1.0,6.0,6.0,291.5076017379761,2.0,0.0,part_2,stop,100.0,150.0,3.0,,,,,,,,,gray,flipped triangle
0.0,7.0,3.0,1.0,5.0,5.0,303.9546608924866,2.0,0.0,part_2,stop,100.0,100.0,3.0,,,,,,,,,cyan,diamond
0.0,8.0,4.0,1.0,5.0,5.0,384.5210233703255,2.0,0.0,part_2,stop,50.0,100.0,3.0,,,,,,,,,gray,flipped triangle
0.0,1.0,1.0,0.0,5.0,5.0,439.4497768953442,2.0,0.0,part_2,go,0.0,100.0,1.0,,,,,,,,,green,cross
0.0,6.0,2.0,1.0,6.0,6.0,394.3071952089667,2.0,0.0,part_2,stop,0.0,100.0,3.0,,,,,,,,,orange,square
0.0,4.0,4.0,0.0,6.0,6.0,418.0722562596202,2.0,0.0,part_2,go,0.0,50.0,1.0,,,,,,,,,blue,circle
0.0,7.0,3.0,1.0,6.0,6.0,344.5365838706493,2.0,0.0,part_2,go,0.0,50.0,1.0,,,,,,,,,cyan,diamond
0.0,5.0,1.0,1.0,5.0,5.0,332.9443139955401,2.0,0.0,part_2,stop,0.0,50.0,3.0,,,,,,,,,white,hexagon
0.0,4.0,4.0,0.0,5.0,5.0,429.8793422058224,2.0,0.0,part_2,go,0.0,50.0,1.0,,,,,,,,,blue,circle
0.0,1.0,1.0,0.0,5.0,5.0,367.7598182111978,2.0,0.0,part_2,go,0.0,50.0,1.0,,,,,,,,,green,cross
0.0,7.0,3.0,1.0,6.0,6.0,344.6280034258961,3.0,0.0,part_2,go,0.0,50.0,1.0,,,,,,,,,cyan,diamond
0.0,3.0,3.0,0.0,5.0,5.0,305.800586938858,3.0,0.0,part_2,go,0.0,50.0,1.0,,,,,,,,,yellow,triangle
0.0,5.0,1.0,1.0,5.0,5.0,353.6827275529504,3.0,0.0,part_2,go,0.0,50.0,1.0,,,,,,,,,white,hexagon
0.0,5.0,1.0,1.0,6.0,6.0,326.1057808995247,3.0,0.0,part_2,go,0.0,50.0,1.0,,,,,,,,,white,hexagon
0.0,6.0,2.0,1.0,6.0,6.0,437.3775972053408,3.0,0.0,part_2,stop,0.0,50.0,3.0,,,,,,,,,orange,square
0.0,7.0,3.0,1.0,6.0,0.0,0.0,3.0,0.0,part_2,stop,0.0,0.0,4.0,,,,,,,,,cyan,diamond
0.0,6.0,2.0,1.0,5.0,0.0,0.0,3.0,0.0,part_2,stop,0.0,50.0,4.0,,,,,,,,,orange,square
0.0,2.0,2.0,0.0,6.0,6.0,349.7860683128238,3.0,0.0,part_2,go,50.0,50.0,1.0,,,,,,,,,magenta,I
0.0,4.0,4.0,0.0,5.0,5.0,397.5058877840638,3.0,0.0,part_2,go,50.0,50.0,1.0,,,,,,,,,blue,circle
0.0,1.0,1.0,0.0,6.0,6.0,277.2314399480819,3.0,0.0,part_2,go,50.0,50.0,1.0,,,,,,,,,green,cross
0.0,4.0,4.0,0.0,6.0,6.0,363.6434683576226,3.0,0.0,part_2,go,50.0,50.0,1.0,,,,,,,,,blue,circle
0.0,5.0,1.0,1.0,6.0,6.0,337.3058708384633,3.0,0.0,part_2,go,50.0,50.0,1.0,,,,,,,,,white,hexagon
0.0,4.0,4.0,0.0,5.0,5.0,283.7171927094459,3.0,0.0,part_2,go,50.0,50.0,1.0,,,,,,,,,blue,circle
0.0,1.0,1.0,0.0,5.0,5.0,426.4871207997203,3.0,0.0,part_2,go,50.0,50.0,1.0,,,,,,,,,green,cross
0.0,5.0,1.0,1.0,6.0,6.0,363.3425841107964,3.0,0.0,part_2,go,50.0,50.0,1.0,,,,,,,,,white,hexagon
0.0,4.0,4.0,0.0,6.0,6.0,351.9208859652281,3.0,0.0,part_2,go,50.0,50.0,1.0,,,,,,,,,blue,circle
0.0,8.0,4.0,1.0,5.0,5.0,330.1658648997545,3.0,0.0,part_2,stop,50.0,50.0,3.0,,,,,,,,,gray,flipped triangle
0.0,4.0,4.0,0.0,5.0,5.0,383.3129908889532,3.0,0.0,part_2,go,0.0,50.0,1.0,,,,,,,,,blue,circle
0.0,8.0,4.0,1.0,5.0,5.0,374.4429508224129,3.0,0.0,part_2,stop,0.0,50.0,3.0,,,,,,,,,gray,flipped triangle
0.0,8.0,4.0,1.0,5.0,5.0,448.2067432254553,3.0,0.0,part_2,go,0.0,50.0,1.0,,,,,,,,,gray,flipped triangle
0.0,5.0,1.0,1.0,5.0,5.0,326.5518238767981,3.0,0.0,part_2,stop,0.0,50.0,3.0,,,,,,,,,white,hexagon
0.0,2.0,2.0,0.0,5.0,5.0,405.2612939849496,3.0,0.0,part_2,go,0.0,50.0,1.0,,,,,,,,,magenta,I
0.0,3.0,3.0,0.0,5.0,5.0,403.6415265873074,3.0,0.0,part_2,go,0.0,50.0,1.0,,,,,,,,,yellow,triangle
0.0,7.0,3.0,1.0,5.0,5.0,323.4682418406009,3.0,0.0,part_2,stop,0.0,50.0,3.0,,,,,,,,,cyan,diamond
0.0,5.0,1.0,1.0,5.0,5.0,355.205612257123,3.0,0.0,part_2,stop,0.0,50.0,3.0,,,,,,,,,white,hexagon
0.0,6.0,2.0,1.0,5.0,0.0,0.0,3.0,0.0,part_2,stop,0.0,50.0,4.0,,,,,,,,,orange,square
0.0,2.0,2.0,0.0,5.0,5.0,513.4907951578498,3.0,0.0,part_2,go,50.0,50.0,1.0,,,,,,,,,magenta,I
0.0,8.0,4.0,1.0,5.0,5.0,315.9302696585655,3.0,0.0,part_2,stop,50.0,50.0,3.0,,,,,,,,,gray,flipped triangle
0.0,3.0,3.0,0.0,5.0,5.0,402.4130534380674,3.0,0.0,part_2,go,0.0,50.0,1.0,,,,,,,,,yellow,triangle
0.0,4.0,4.0,0.0,6.0,6.0,360.3936415165663,3.0,0.0,part_2,go,0.0,50.0,1.0,,,,,,,,,blue,circle
0.0,1.0,1.0,0.0,6.0,6.0,327.65300013124937,3.0,0.0,part_2,go,0.0,50.0,1.0,,,,,,,,,green,cross
0.0,3.0,3.0,0.0,6.0,6.0,266.3548141717911,3.0,0.0,part_2,go,0.0,50.0,1.0,,,,,,,,,yellow,triangle
0.0,5.0,1.0,1.0,5.0,5.0,325.8485523983836,3.0,0.0,part_2,stop,0.0,50.0,3.0,,,,,,,,,white,hexagon
0.0,8.0,4.0,1.0,6.0,6.0,343.9609073102474,3.0,0.0,part_2,stop,0.0,50.0,3.0,,,,,,,,,gray,flipped triangle
0.0,1.0,1.0,0.0,6.0,6.0,413.160246796906,3.0,0.0,part_2,go,0.0,0.0,1.0,,,,,,,,,green,cross
0.0,7.0,3.0,1.0,5.0,5.0,390.4631286859512,3.0,0.0,part_2,stop,0.0,0.0,3.0,,,,,,,,,cyan,diamond
0.0,7.0,3.0,1.0,5.0,0.0,0.0,4.0,0.0,part_2,stop,0.0,0.0,4.0,,,,,,,,,cyan,diamond
0.0,3.0,3.0,0.0,6.0,6.0,371.6341154649853,4.0,0.0,part_2,go,50.0,0.0,1.0,,,,,,,,,yellow,triangle
0.0,3.0,3.0,0.0,6.0,6.0,364.6297976374626,4.0,0.0,part_2,go,50.0,0.0,1.0,,,,,,,,,yellow,triangle
0.0,7.0,3.0,1.0,6.0,6.0,364.3105076625943,4.0,0.0,part_2,stop,50.0,0.0,3.0,,,,,,,,,cyan,diamond
0.0,5.0,1.0,1.0,6.0,0.0,0.0,4.0,0.0,part_2,stop,50.0,0.0,4.0,,,,,,,,,white,hexagon
0.0,4.0,4.0,0.0,5.0,5.0,362.3928828164935,4.0,0.0,part_2,go,50.0,50.0,1.0,,,,,,,,,blue,circle
0.0,2.0,2.0,0.0,6.0,6.0,403.1739011406898,4.0,0.0,part_2,go,50.0,50.0,1.0,,,,,,,,,magenta,I
0.0,6.0,2.0,1.0,6.0,6.0,393.4237556532025,4.0,0.0,part_2,go,50.0,50.0,1.0,,,,,,,,,orange,square
0.0,2.0,2.0,0.0,6.0,6.0,319.8891710489988,4.0,0.0,part_2,go,50.0,50.0,1.0,,,,,,,,,magenta,I
0.0,5.0,1.0,1.0,5.0,5.0,431.0984397307038,4.0,0.0,part_2,stop,50.0,50.0,3.0,,,,,,,,,white,hexagon
0.0,6.0,2.0,1.0,6.0,6.0,344.5016406476497,4.0,0.0,part_2,stop,0.0,50.0,3.0,,,,,,,,,orange,square
0.0,2.0,2.0,0.0,6.0,6.0,423.9668063819408,4.0,0.0,part_2,go,0.0,0.0,1.0,,,,,,,,,magenta,I
0.0,5.0,1.0,1.0,6.0,0.0,0.0,4.0,0.0,part_2,stop,0.0,0.0,4.0,,,,,,,,,white,hexagon
0.0,7.0,3.0,1.0,5.0,5.0,252.5286925956607,4.0,0.0,part_2,stop,0.0,50.0,3.0,,,,,,,,,cyan,diamond
0.0,3.0,3.0,0.0,5.0,5.0,407.6431114226579,4.0,0.0,part_2,go,0.0,50.0,1.0,,,,,,,,,yellow,triangle
0.0,1.0,1.0,0.0,5.0,5.0,331.4342554658651,4.0,0.0,part_2,go,0.0,50.0,1.0,,,,,,,,,green,cross
0.0,6.0,2.0,1.0,6.0,6.0,354.1731117293238,4.0,0.0,part_2,stop,0.0,50.0,3.0,,,,,,,,,orange,square
0.0,7.0,3.0,1.0,5.0,5.0,321.8908971175551,4.0,0.0,part_2,stop,0.0,0.0,3.0,,,,,,,,,cyan,diamond
0.0,1.0,1.0,0.0,5.0,5.0,349.6068390086293,4.0,0.0,part_2,go,0.0,0.0,1.0,,,,,,,,,green,cross
0.0,1.0,1.0,0.0,6.0,6.0,379.5966170728206,4.0,0.0,part_2,go,0.0,0.0,1.0,,,,,,,,,green,cross
0.0,7.0,3.0,1.0,6.0,0.0,0.0,4.0,0.0,part_2,stop,0.0,0.0,4.0,,,,,,,,,cyan,diamond
0.0,2.0,2.0,0.0,5.0,5.0,386.2372264266014,4.0,0.0,part_2,go,0.0,50.0,1.0,,,,,,,,,magenta,I
0.0,7.0,3.0,1.0,6.0,6.0,313.2920544594526,4.0,0.0,part_2,go,0.0,50.0,1.0,,,,,,,,,cyan,diamond
0.0,6.0,2.0,1.0,5.0,5.0,321.7625673860311,4.0,0.0,part_2,stop,0.0,50.0,3.0,,,,,,,,,orange,square
0.0,2.0,2.0,0.0,6.0,6.0,472.770532593131,4.0,0.0,part_2,go,0.0,50.0,1.0,,,,,,,,,magenta,I
0.0,8.0,4.0,1.0,5.0,0.0,0.0,4.0,0.0,part_2,stop,0.0,50.0,4.0,,,,,,,,,gray,flipped triangle
0.0,4.0,4.0,0.0,5.0,5.0,463.4989649057388,4.0,0.0,part_2,go,50.0,50.0,1.0,,,,,,,,,blue,circle
0.0,1.0,1.0,0.0,5.0,5.0,374.9260185286402,4.0,0.0,part_2,go,50.0,50.0,1.0,,,,,,,,,green,cross
0.0,8.0,4.0,1.0,6.0,0.0,0.0,4.0,0.0,part_2,stop,50.0,50.0,4.0,,,,,,,,,gray,flipped triangle
0.0,8.0,4.0,1.0,5.0,5.0,375.187617726624,4.0,0.0,part_2,stop,50.0,100.0,3.0,,,,,,,,,gray,flipped triangle
0.0,1.0,1.0,0.0,6.0,6.0,434.6386007964611,4.0,0.0,part_2,go,0.0,100.0,1.0,,,,,,,,,green,cross
0.0,4.0,4.0,0.0,5.0,5.0,477.1763188764453,4.0,0.0,part_2,go,0.0,100.0,1.0,,,,,,,,,blue,circle
0.0,6.0,2.0,1.0,5.0,5.0,578.4095712006092,4.0,0.0,part_2,go,0.0,100.0,1.0,,,,,,,,,orange,square
0.0,6.0,2.0,1.0,6.0,0.0,0.0,4.0,0.0,part_2,stop,0.0,100.0,4.0,,,,,,,,,orange,square
0.0,1.0,1.0,0.0,5.0,5.0,464.4648339599371,4.0,0.0,part_2,go,0.0,150.0,1.0,,,,,,,,,green,cross
0.0,7.0,3.0,1.0,6.0,0.0,0.0,4.0,0.0,part_2,stop,0.0,150.0,4.0,,,,,,,,,cyan,diamond
0.0,5.0,1.0,1.0,6.0,6.0,821.9760088250041,5.0,0.0,part_2,go,0.0,200.0,1.0,,,,,,,,,white,hexagon
0.0,7.0,3.0,1.0,5.0,0.0,0.0,5.0,0.0,part_2,stop,0.0,200.0,4.0,,,,,,,,,cyan,diamond
0.0,1.0,1.0,0.0,6.0,6.0,501.60008016973734,5.0,0.0,part_2,go,50.0,200.0,1.0,,,,,,,,,green,cross
0.0,2.0,2.0,0.0,6.0,6.0,365.4328538104892,5.0,0.0,part_2,go,50.0,200.0,1.0,,,,,,,,,magenta,I
0.0,3.0,3.0,0.0,5.0,5.0,322.9023339226842,5.0,0.0,part_2,go,50.0,200.0,1.0,,,,,,,,,yellow,triangle
0.0,4.0,4.0,0.0,5.0,5.0,530.1762847229838,5.0,0.0,part_2,go,50.0,200.0,1.0,,,,,,,,,blue,circle
0.0,2.0,2.0,0.0,5.0,5.0,359.9444916471839,5.0,0.0,part_2,go,50.0,200.0,1.0,,,,,,,,,magenta,I
0.0,5.0,1.0,1.0,6.0,6.0,367.4686271697283,5.0,0.0,part_2,stop,50.0,200.0,3.0,,,,,,,,,white,hexagon
0.0,4.0,4.0,0.0,6.0,6.0,466.6145145893097,5.0,0.0,part_2,go,50.0,150.0,1.0,,,,,,,,,blue,circle
0.0,8.0,4.0,1.0,5.0,5.0,346.0151283070445,5.0,0.0,part_2,go,50.0,150.0,1.0,,,,,,,,,gray,flipped triangle
0.0,7.0,3.0,1.0,5.0,5.0,351.7914908006787,5.0,0.0,part_2,go,50.0,150.0,1.0,,,,,,,,,cyan,diamond
0.0,7.0,3.0,1.0,6.0,6.0,311.4293301478028,5.0,0.0,part_2,go,50.0,150.0,1.0,,,,,,,,,cyan,diamond
0.0,8.0,4.0,1.0,6.0,6.0,343.7667731195688,5.0,0.0,part_2,go,50.0,150.0,1.0,,,,,,,,,gray,flipped triangle
0.0,6.0,2.0,1.0,6.0,0.0,0.0,5.0,0.0,part_2,stop,50.0,150.0,4.0,,,,,,,,,orange,square
0.0,2.0,2.0,0.0,6.0,6.0,500.7756585255265,5.0,0.0,part_2,go,50.0,200.0,1.0,,,,,,,,,magenta,I
0.0,8.0,4.0,1.0,6.0,6.0,381.5014408901334,5.0,0.0,part_2,stop,50.0,200.0,3.0,,,,,,,,,gray,flipped triangle
0.0,2.0,2.0,0.0,5.0,5.0,403.5743093118071,5.0,0.0,part_2,go,50.0,150.0,1.0,,,,,,,,,magenta,I
0.0,4.0,4.0,0.0,6.0,6.0,485.0431038066745,5.0,0.0,part_2,go,50.0,150.0,1.0,,,,,,,,,blue,circle
0.0,4.0,4.0,0.0,5.0,5.0,419.38241943717,5.0,0.0,part_2,go,50.0,150.0,1.0,,,,,,,,,blue,circle
0.0,4.0,4.0,0.0,5.0,5.0,355.8739926666021,5.0,0.0,part_2,go,50.0,150.0,1.0,,,,,,,,,blue,circle
0.0,8.0,4.0,1.0,6.0,6.0,384.8939016461372,5.0,0.0,part_2,go,50.0,150.0,1.0,,,,,,,,,gray,flipped triangle
0.0,1.0,1.0,0.0,5.0,5.0,355.8206828311085,5.0,0.0,part_2,go,50.0,150.0,1.0,,,,,,,,,green,cross
0.0,5.0,1.0,1.0,6.0,0.0,0.0,5.0,0.0,part_2,stop,50.0,150.0,4.0,,,,,,,,,white,hexagon
0.0,2.0,2.0,0.0,6.0,6.0,398.6190939322114,5.0,0.0,part_2,go,50.0,200.0,1.0,,,,,,,,,magenta,I
0.0,2.0,2.0,0.0,5.0,5.0,390.0851840153336,5.0,0.0,part_2,go,50.0,200.0,1.0,,,,,,,,,magenta,I
0.0,8.0,4.0,1.0,5.0,0.0,0.0,5.0,0.0,part_2,stop,50.0,200.0,4.0,,,,,,,,,gray,flipped triangle
0.0,3.0,3.0,0.0,6.0,6.0,568.1317476555705,5.0,0.0,part_2,go,100.0,200.0,1.0,,,,,,,,,yellow,triangle
0.0,6.0,2.0,1.0,5.0,0.0,0.0,5.0,0.0,part_2,stop,100.0,200.0,4.0,,,,,,,,,orange,square
0.0,7.0,3.0,1.0,6.0,0.0,0.0,5.0,0.0,part_2,stop,150.0,200.0,4.0,,,,,,,,,cyan,diamond
0.0,1.0,1.0,0.0,6.0,6.0,349.6864903718233,5.0,0.0,part_2,go,150.0,250.0,1.0,,,,,,,,,green,cross
0.0,8.0,4.0,1.0,5.0,5.0,309.8084330558777,5.0,0.0,part_2,stop,150.0,250.0,3.0,,,,,,,,,gray,flipped triangle
0.0,5.0,1.0,1.0,5.0,5.0,562.1219389140606,5.0,0.0,part_2,go,100.0,250.0,1.0,,,,,,,,,white,hexagon
0.0,3.0,3.0,0.0,5.0,5.0,522.1648383885622,5.0,0.0,part_2,go,100.0,250.0,1.0,,,,,,,,,yellow,triangle
0.0,5.0,1.0,1.0,5.0,0.0,0.0,5.0,0.0,part_2,stop,100.0,250.0,4.0,,,,,,,,,white,hexagon
0.0,1.0,1.0,0.0,5.0,5.0,472.5570287555456,5.0,0.0,part_2,go,150.0,250.0,1.0,,,,,,,,,green,cross
0.0,1.0,1.0,0.0,5.0,5.0,313.2174694910645,5.0,0.0,part_2,go,150.0,250.0,1.0,,,,,,,,,green,cross
0.0,2.0,2.0,0.0,6.0,6.0,393.6807354912162,6.0,0.0,part_2,go,150.0,250.0,1.0,,,,,,,,,magenta,I
0.0,1.0,1.0,0.0,6.0,6.0,547.0492402091622,6.0,0.0,part_2,go,150.0,250.0,1.0,,,,,,,,,green,cross
0.0,5.0,1.0,1.0,6.0,6.0,320.0193867087364,6.0,0.0,part_2,stop,150.0,250.0,3.0,,,,,,,,,white,hexagon
0.0,2.0,2.0,0.0,5.0,5.0,465.3673442080617,6.0,0.0,part_2,go,150.0,200.0,1.0,,,,,,,,,magenta,I
0.0,8.0,4.0,1.0,5.0,0.0,0.0,6.0,0.0,part_2,stop,150.0,200.0,4.0,,,,,,,,,gray,flipped triangle
0.0,4.0,4.0,0.0,6.0,6.0,410.2117223665118,6.0,0.0,part_2,go,200.0,200.0,1.0,,,,,,,,,blue,circle
0.0,3.0,3.0,0.0,6.0,6.0,367.2726331278682,6.0,0.0,part_2,go,200.0,200.0,1.0,,,,,,,,,yellow,triangle
0.0,6.0,2.0,1.0,6.0,0.0,0.0,6.0,0.0,part_2,stop,200.0,200.0,4.0,,,,,,,,,orange,square
0.0,3.0,3.0,0.0,5.0,5.0,492.7122043445706,6.0,0.0,part_2,go,200.0,250.0,1.0,,,,,,,,,yellow,triangle
0.0,4.0,4.0,0.0,5.0,5.0,445.2787451446056,6.0,0.0,part_2,go,200.0,250.0,1.0,,,,,,,,,blue,circle
0.0,5.0,1.0,1.0,5.0,5.0,476.1439161375165,6.0,0.0,part_2,go,200.0,250.0,1.0,,,,,,,,,white,hexagon
0.0,3.0,3.0,0.0,6.0,6.0,518.6063107103109,6.0,0.0,part_2,go,200.0,250.0,1.0,,,,,,,,,yellow,triangle
0.0,2.0,2.0,0.0,5.0,5.0,310.7281187549233,6.0,0.0,part_2,go,200.0,250.0,1.0,,,,,,,,,magenta,I
0.0,8.0,4.0,1.0,5.0,6.0,4.6713380143046,6.0,0.0,part_2,go,200.0,250.0,2.0,,,,,,,,,gray,flipped triangle
0.0,6.0,2.0,1.0,5.0,5.0,505.76372258365154,6.0,0.0,part_2,go,200.0,250.0,1.0,,,,,,,,,orange,square
0.0,6.0,2.0,1.0,6.0,6.0,597.2163826227188,6.0,0.0,part_2,stop,200.0,250.0,3.0,,,,,,,,,orange,square
0.0,6.0,2.0,1.0,5.0,5.0,393.7422493472695,6.0,0.0,part_2,go,200.0,200.0,1.0,,,,,,,,,orange,square
0.0,1.0,1.0,0.0,6.0,6.0,488.7909553945064,6.0,0.0,part_2,go,200.0,200.0,1.0,,,,,,,,,green,cross
0.0,8.0,4.0,1.0,6.0,0.0,0.0,6.0,0.0,part_2,stop,200.0,200.0,4.0,,,,,,,,,gray,flipped triangle
0.0,4.0,4.0,0.0,5.0,5.0,584.5831725746393,6.0,0.0,part_2,go,200.0,250.0,1.0,,,,,,,,,blue,circle
0.0,6.0,2.0,1.0,6.0,0.0,0.0,6.0,0.0,part_2,stop,200.0,250.0,4.0,,,,,,,,,orange,square
0.0,6.0,2.0,1.0,6.0,6.0,509.91423800587654,6.0,0.0,part_2,go,200.0,300.0,1.0,,,,,,,,,orange,square
0.0,1.0,1.0,0.0,5.0,5.0,381.9644208997488,6.0,0.0,part_2,go,200.0,300.0,1.0,,,,,,,,,green,cross
0.0,8.0,4.0,1.0,6.0,6.0,358.7428042665124,6.0,0.0,part_2,stop,200.0,300.0,3.0,,,,,,,,,gray,flipped triangle
0.0,1.0,1.0,0.0,5.0,5.0,339.8803528398275,6.0,0.0,part_2,go,200.0,250.0,1.0,,,,,,,,,green,cross
0.0,7.0,3.0,1.0,5.0,0.0,0.0,6.0,0.0,part_2,stop,200.0,250.0,4.0,,,,,,,,,cyan,diamond
0.0,6.0,2.0,1.0,6.0,0.0,0.0,6.0,0.0,part_2,stop,250.0,250.0,4.0,,,,,,,,,orange,square
0.0,7.0,3.0,1.0,6.0,6.0,428.4274252131581,6.0,0.0,part_2,go,250.0,300.0,1.0,,,,,,,,,cyan,diamond
0.0,1.0,1.0,0.0,5.0,5.0,316.181899048388,6.0,0.0,part_2,go,250.0,300.0,1.0,,,,,,,,,green,cross
0.0,6.0,2.0,1.0,5.0,5.0,372.3419094458222,6.0,0.0,part_2,go,250.0,300.0,1.0,,,,,,,,,orange,square
0.0,5.0,1.0,1.0,6.0,6.0,321.2080560624599,6.0,0.0,part_2,stop,250.0,300.0,3.0,,,,,,,,,white,hexagon
0.0,8.0,4.0,1.0,6.0,0.0,0.0,6.0,0.0,part_2,stop,250.0,250.0,4.0,,,,,,,,,gray,flipped triangle
0.0,3.0,3.0,0.0,6.0,6.0,507.7506843954325,6.0,0.0,part_2,go,250.0,300.0,1.0,,,,,,,,,yellow,triangle
0.0,6.0,2.0,1.0,6.0,6.0,370.7027249038219,6.0,0.0,part_2,stop,250.0,300.0,3.0,,,,,,,,,orange,square
0.0,1.0,1.0,0.0,5.0,5.0,377.0276410505175,6.0,0.0,part_2,go,250.0,250.0,1.0,,,,,,,,,green,cross
0.0,7.0,3.0,1.0,6.0,6.0,318.50032415241,6.0,0.0,part_2,stop,250.0,250.0,3.0,,,,,,,,,cyan,diamond
0.0,6.0,2.0,1.0,5.0,5.0,449.4493249803781,7.0,0.0,part_2,stop,250.0,200.0,3.0,,,,,,,,,orange,square
0.0,4.0,4.0,0.0,6.0,6.0,396.5483261272311,7.0,0.0,part_2,go,200.0,200.0,1.0,,,,,,,,,blue,circle
0.0,8.0,4.0,1.0,6.0,0.0,0.0,7.0,0.0,part_2,stop,200.0,200.0,4.0,,,,,,,,,gray,flipped triangle
0.0,2.0,2.0,0.0,6.0,6.0,552.3554962128401,7.0,0.0,part_2,go,200.0,250.0,1.0,,,,,,,,,magenta,I
0.0,2.0,2.0,0.0,5.0,5.0,439.4202129915356,7.0,0.0,part_2,go,200.0,250.0,1.0,,,,,,,,,magenta,I
0.0,3.0,3.0,0.0,5.0,5.0,423.0165285989642,7.0,0.0,part_2,go,200.0,250.0,1.0,,,,,,,,,yellow,triangle
0.0,2.0,2.0,0.0,5.0,5.0,473.4505815431475,7.0,0.0,part_2,go,200.0,250.0,1.0,,,,,,,,,magenta,I
0.0,5.0,1.0,1.0,6.0,0.0,0.0,7.0,0.0,part_2,stop,200.0,250.0,4.0,,,,,,,,,white,hexagon
0.0,7.0,3.0,1.0,5.0,5.0,421.4915167540312,7.0,0.0,part_2,stop,200.0,300.0,3.0,,,,,,,,,cyan,diamond
0.0,6.0,2.0,1.0,5.0,5.0,672.9072500020266,7.0,0.0,part_2,go,150.0,300.0,1.0,,,,,,,,,orange,square
0.0,3.0,3.0,0.0,5.0,5.0,398.3340766280889,7.0,0.0,part_2,go,150.0,300.0,1.0,,,,,,,,,yellow,triangle
0.0,4.0,4.0,0.0,5.0,5.0,334.6557058393955,7.0,0.0,part_2,go,150.0,300.0,1.0,,,,,,,,,blue,circle
0.0,3.0,3.0,0.0,6.0,6.0,525.0408733263612,7.0,0.0,part_2,go,150.0,300.0,1.0,,,,,,,,,yellow,triangle
0.0,2.0,2.0,0.0,5.0,5.0,356.9544609636068,7.0,0.0,part_2,go,150.0,300.0,1.0,,,,,,,,,magenta,I
0.0,1.0,1.0,0.0,6.0,6.0,397.9701204225421,7.0,0.0,part_2,go,150.0,300.0,1.0,,,,,,,,,green,cross
0.0,8.0,4.0,1.0,6.0,6.0,435.4986371472478,7.0,0.0,part_2,stop,150.0,300.0,3.0,,,,,,,,,gray,flipped triangle
0.0,5.0,1.0,1.0,6.0,0.0,0.0,7.0,0.0,part_2,stop,150.0,250.0,4.0,,,,,,,,,white,hexagon
0.0,4.0,4.0,0.0,5.0,5.0,395.17676923424,7.0,0.0,part_2,go,150.0,300.0,1.0,,,,,,,,,blue,circle
0.0,7.0,3.0,1.0,6.0,6.0,410.7635905966162,7.0,0.0,part_2,stop,150.0,300.0,3.0,,,,,,,,,cyan,diamond
0.0,2.0,2.0,0.0,5.0,5.0,568.1785997003317,7.0,0.0,part_2,go,150.0,250.0,1.0,,,,,,,,,magenta,I
0.0,4.0,4.0,0.0,6.0,6.0,601.9489131867886,7.0,0.0,part_2,go,150.0,250.0,1.0,,,,,,,,,blue,circle
0.0,3.0,3.0,0.0,5.0,5.0,395.1280824840069,7.0,0.0,part_2,go,150.0,250.0,1.0,,,,,,,,,yellow,triangle
0.0,5.0,1.0,1.0,5.0,0.0,0.0,7.0,0.0,part_2,stop,150.0,250.0,4.0,,,,,,,,,white,hexagon
0.0,4.0,4.0,0.0,5.0,5.0,413.4307187050581,7.0,0.0,part_2,go,200.0,250.0,1.0,,,,,,,,,blue,circle
0.0,5.0,1.0,1.0,6.0,0.0,0.0,7.0,0.0,part_2,stop,200.0,250.0,4.0,,,,,,,,,white,hexagon
0.0,8.0,4.0,1.0,6.0,6.0,477.1856693550944,7.0,0.0,part_2,go,200.0,300.0,1.0,,,,,,,,,gray,flipped triangle
0.0,1.0,1.0,0.0,5.0,5.0,379.5220702886581,7.0,0.0,part_2,go,200.0,300.0,1.0,,,,,,,,,green,cross
0.0,2.0,2.0,0.0,6.0,6.0,701.0506726801395,7.0,0.0,part_2,go,200.0,300.0,1.0,,,,,,,,,magenta,I
0.0,1.0,1.0,0.0,6.0,6.0,493.6295067891478,7.0,0.0,part_2,go,200.0,300.0,1.0,,,,,,,,,green,cross
0.0,4.0,4.0,0.0,6.0,6.0,554.6254180371761,7.0,0.0,part_2,go,200.0,300.0,1.0,,,,,,,,,blue,circle
0.0,8.0,4.0,1.0,6.0,6.0,426.9690020009875,7.0,0.0,part_2,go,200.0,300.0,1.0,,,,,,,,,gray,flipped triangle
0.0,5.0,1.0,1.0,5.0,5.0,370.1032102108001,7.0,0.0,part_2,stop,200.0,300.0,3.0,,,,,,,,,white,hexagon
0.0,6.0,2.0,1.0,5.0,0.0,0.0,7.0,0.0,part_2,stop,150.0,300.0,4.0,,,,,,,,,orange,square
0.0,4.0,4.0,0.0,6.0,6.0,392.2947430983186,7.0,0.0,part_2,go,200.0,300.0,1.0,,,,,,,,,blue,circle
0.0,7.0,3.0,1.0,6.0,6.0,297.7185770869255,7.0,0.0,part_2,stop,200.0,300.0,3.0,,,,,,,,,cyan,diamond
0.0,1.0,1.0,0.0,5.0,5.0,600.4008715972304,7.0,0.0,part_2,go,200.0,250.0,1.0,,,,,,,,,green,cross
0.0,2.0,2.0,0.0,5.0,5.0,584.1754293069243,8.0,0.0,part_2,go,200.0,250.0,1.0,,,,,,,,,magenta,I
0.0,5.0,1.0,1.0,6.0,6.0,338.6302320286631,8.0,0.0,part_2,stop,200.0,250.0,3.0,,,,,,,,,white,hexagon
0.0,6.0,2.0,1.0,5.0,5.0,350.9360579773783,8.0,0.0,part_2,stop,200.0,200.0,3.0,,,,,,,,,orange,square
0.0,3.0,3.0,0.0,5.0,5.0,557.4632361531258,8.0,0.0,part_2,go,150.0,200.0,1.0,,,,,,,,,yellow,triangle
0.0,4.0,4.0,0.0,5.0,5.0,446.5386113151908,8.0,0.0,part_2,go,150.0,200.0,1.0,,,,,,,,,blue,circle
0.0,2.0,2.0,0.0,6.0,6.0,405.5444132536649,8.0,0.0,part_2,go,150.0,200.0,1.0,,,,,,,,,magenta,I
0.0,6.0,2.0,1.0,6.0,6.0,565.537566319108,8.0,0.0,part_2,go,150.0,200.0,1.0,,,,,,,,,orange,square
0.0,1.0,1.0,0.0,6.0,6.0,493.3750787749886,8.0,0.0,part_2,go,150.0,200.0,1.0,,,,,,,,,green,cross
0.0,8.0,4.0,1.0,6.0,0.0,0.0,8.0,0.0,part_2,stop,150.0,200.0,4.0,,,,,,,,,gray,flipped triangle
0.0,3.0,3.0,0.0,6.0,6.0,459.4322014600038,8.0,0.0,part_2,go,150.0,250.0,1.0,,,,,,,,,yellow,triangle
0.0,8.0,4.0,1.0,5.0,5.0,348.8894309848547,8.0,0.0,part_2,stop,150.0,250.0,3.0,,,,,,,,,gray,flipped triangle
0.0,3.0,3.0,0.0,5.0,5.0,745.4259479418397,8.0,0.0,part_2,go,100.0,250.0,1.0,,,,,,,,,yellow,triangle
0.0,8.0,4.0,1.0,6.0,0.0,0.0,8.0,0.0,part_2,stop,100.0,250.0,4.0,,,,,,,,,gray,flipped triangle
0.0,2.0,2.0,0.0,5.0,5.0,426.1978017166257,8.0,0.0,part_2,go,100.0,300.0,1.0,,,,,,,,,magenta,I
0.0,7.0,3.0,1.0,6.0,6.0,351.4423333108425,8.0,0.0,part_2,stop,100.0,300.0,3.0,,,,,,,,,cyan,diamond
0.0,8.0,4.0,1.0,5.0,0.0,0.0,8.0,0.0,part_2,stop,100.0,250.0,4.0,,,,,,,,,gray,flipped triangle
0.0,8.0,4.0,1.0,5.0,5.0,399.733055382967,8.0,0.0,part_2,go,150.0,250.0,1.0,,,,,,,,,gray,flipped triangle
0.0,5.0,1.0,1.0,5.0,0.0,0.0,8.0,0.0,part_2,stop,150.0,250.0,4.0,,,,,,,,,white,hexagon
0.0,7.0,3.0,1.0,5.0,0.0,0.0,8.0,0.0,part_2,stop,200.0,250.0,4.0,,,,,,,,,cyan,diamond
0.0,5.0,1.0,1.0,6.0,6.0,405.3146373480558,8.0,0.0,part_2,go,250.0,250.0,1.0,,,,,,,,,white,hexagon
0.0,5.0,1.0,1.0,5.0,0.0,0.0,8.0,0.0,part_2,stop,250.0,250.0,4.0,,,,,,,,,white,hexagon
0.0,2.0,2.0,0.0,5.0,5.0,772.4627889692783,8.0,0.0,part_2,go,300.0,250.0,1.0,,,,,,,,,magenta,I
0.0,6.0,2.0,1.0,5.0,0.0,0.0,8.0,0.0,part_2,stop,300.0,250.0,4.0,,,,,,,,,orange,square
0.0,3.0,3.0,0.0,6.0,6.0,460.350046865642,8.0,0.0,part_2,go,350.0,250.0,1.0,,,,,,,,,yellow,triangle
0.0,3.0,3.0,0.0,5.0,5.0,524.7963173314929,8.0,0.0,part_2,go,350.0,250.0,1.0,,,,,,,,,yellow,triangle
0.0,6.0,2.0,1.0,6.0,6.0,397.3769368603825,8.0,0.0,part_2,stop,350.0,250.0,3.0,,,,,,,,,orange,square
0.0,4.0,4.0,0.0,6.0,6.0,545.7627549767494,8.0,0.0,part_2,go,350.0,200.0,1.0,,,,,,,,,blue,circle
0.0,7.0,3.0,1.0,5.0,5.0,307.5662069022655,8.0,0.0,part_2,stop,350.0,200.0,3.0,,,,,,,,,cyan,diamond
0.0,7.0,3.0,1.0,6.0,6.0,457.8169416636228,8.0,0.0,part_2,go,300.0,200.0,1.0,,,,,,,,,cyan,diamond
0.0,3.0,3.0,0.0,5.0,5.0,482.6907096430659,8.0,0.0,part_2,go,300.0,200.0,1.0,,,,,,,,,yellow,triangle
0.0,5.0,1.0,1.0,5.0,5.0,448.355802334845,8.0,0.0,part_2,stop,300.0,200.0,3.0,,,,,,,,,white,hexagon
0.0,1.0,1.0,0.0,5.0,5.0,494.2912999540567,8.0,0.0,part_2,go,250.0,200.0,1.0,,,,,,,,,green,cross
0.0,4.0,4.0,0.0,6.0,6.0,406.6134206950664,8.0,0.0,part_2,go,250.0,200.0,1.0,,,,,,,,,blue,circle
0.0,6.0,2.0,1.0,5.0,0.0,0.0,8.0,0.0,part_2,stop,250.0,200.0,4.0,,,,,,,,,orange,square
0.0,5.0,1.0,1.0,5.0,0.0,0.0,8.0,0.0,part_2,stop,300.0,200.0,4.0,,,,,,,,,white,hexagon
0.0,3.0,3.0,0.0,6.0,6.0,467.730475589633,8.0,0.0,part_2,go,350.0,200.0,1.0,,,,,,,,,yellow,triangle
0.0,3.0,3.0,0.0,7.0,5.0,2543.824410997331,1.0,1.0,part_3,go,0.0,0.0,0.0,117.0,3.0,195.0,39.0,78.0,156.0,117.0,234.0,yellow,triangle
0.0,1.0,1.0,0.0,7.0,4.0,2153.4233894199133,1.0,1.0,part_3,go,0.0,0.0,0.0,102.0,3.0,34.0,68.0,204.0,102.0,170.0,136.0,green,cross
0.0,6.0,2.0,1.0,7.0,2.0,656.3984770327806,1.0,1.0,part_3,go,0.0,0.0,0.0,117.0,3.0,234.0,117.0,39.0,195.0,78.0,156.0,orange,square
0.0,2.0,2.0,0.0,7.0,1.0,629.6713668853045,1.0,1.0,part_3,go,0.0,0.0,0.0,54.0,1.0,54.0,270.0,324.0,162.0,216.0,108.0,magenta,I
0.0,3.0,3.0,0.0,7.0,4.0,2757.769025862217,1.0,1.0,part_3,go,0.0,0.0,0.0,147.0,3.0,196.0,245.0,98.0,147.0,294.0,49.0,yellow,triangle
0.0,2.0,2.0,0.0,7.0,1.0,1191.475111991167,1.0,1.0,part_3,go,0.0,0.0,0.0,102.0,3.0,102.0,136.0,204.0,34.0,170.0,68.0,magenta,I
0.0,3.0,3.0,0.0,7.0,5.0,1582.3151841759682,1.0,1.0,part_3,go,0.0,0.0,0.0,108.0,2.0,324.0,270.0,54.0,216.0,108.0,162.0,yellow,triangle
0.0,7.0,3.0,1.0,7.0,6.0,608.6077531799674,1.0,1.0,part_3,go,0.0,0.0,0.0,88.0,2.0,264.0,220.0,176.0,132.0,44.0,88.0,cyan,diamond
0.0,5.0,1.0,1.0,7.0,2.0,899.3345368653536,1.0,1.0,part_3,go,0.0,0.0,0.0,170.0,5.0,68.0,170.0,204.0,34.0,136.0,102.0,white,hexagon
0.0,1.0,1.0,0.0,7.0,5.0,1684.0495746582749,1.0,1.0,part_3,go,0.0,0.0,0.0,156.0,4.0,195.0,78.0,117.0,234.0,156.0,39.0,green,cross
0.0,8.0,4.0,1.0,7.0,5.0,1398.2364516705277,1.0,1.0,part_3,go,0.0,0.0,0.0,216.0,4.0,324.0,54.0,270.0,108.0,216.0,162.0,gray,flipped triangle
0.0,4.0,4.0,0.0,7.0,2.0,717.7298506721854,1.0,1.0,part_3,go,0.0,0.0,0.0,34.0,1.0,102.0,34.0,68.0,170.0,204.0,136.0,blue,circle
0.0,3.0,3.0,0.0,7.0,1.0,534.4168087467551,1.0,1.0,part_3,go,0.0,0.0,0.0,117.0,3.0,117.0,156.0,78.0,39.0,195.0,234.0,yellow,triangle
0.0,1.0,1.0,0.0,7.0,5.0,922.396303154528,1.0,1.0,part_3,go,0.0,0.0,0.0,220.0,5.0,132.0,176.0,44.0,88.0,220.0,264.0,green,cross
0.0,3.0,3.0,0.0,7.0,2.0,1056.7987160757184,1.0,1.0,part_3,go,0.0,0.0,0.0,54.0,1.0,324.0,54.0,108.0,270.0,216.0,162.0,yellow,triangle
0.0,6.0,2.0,1.0,7.0,5.0,2028.2472260296345,1.0,1.0,part_3,go,0.0,0.0,0.0,195.0,5.0,117.0,156.0,78.0,39.0,195.0,234.0,orange,square
0.0,7.0,3.0,1.0,7.0,4.0,846.7982020229101,1.0,1.0,part_3,go,0.0,0.0,0.0,220.0,5.0,88.0,264.0,132.0,220.0,176.0,44.0,cyan,diamond
0.0,2.0,2.0,0.0,7.0,1.0,710.1417565718293,1.0,1.0,part_3,go,0.0,0.0,0.0,49.0,1.0,49.0,147.0,245.0,196.0,294.0,98.0,magenta,I
0.0,2.0,2.0,0.0,7.0,1.0,633.1559056416154,1.0,1.0,part_3,go,0.0,0.0,0.0,39.0,1.0,39.0,234.0,117.0,195.0,156.0,78.0,magenta,I
0.0,1.0,1.0,0.0,7.0,5.0,737.1954573318362,1.0,1.0,part_3,go,0.0,0.0,0.0,162.0,3.0,270.0,108.0,324.0,54.0,162.0,216.0,green,cross
0.0,4.0,4.0,0.0,7.0,4.0,1459.7414061427116,2.0,1.0,part_3,go,0.0,0.0,0.0,88.0,2.0,176.0,44.0,264.0,88.0,132.0,220.0,blue,circle
0.0,1.0,1.0,0.0,7.0,2.0,1836.0965084284544,2.0,1.0,part_3,go,0.0,0.0,0.0,68.0,2.0,204.0,68.0,170.0,102.0,136.0,34.0,green,cross
0.0,4.0,4.0,0.0,7.0,2.0,1196.2570194154978,2.0,1.0,part_3,go,0.0,0.0,0.0,98.0,2.0,196.0,98.0,294.0,49.0,147.0,245.0,blue,circle
0.0,7.0,3.0,1.0,7.0,5.0,820.5513451248407,2.0,1.0,part_3,go,0.0,0.0,0.0,245.0,5.0,147.0,294.0,49.0,196.0,245.0,98.0,cyan,diamond
0.0,4.0,4.0,0.0,7.0,2.0,1704.702909104526,2.0,1.0,part_3,go,0.0,0.0,0.0,324.0,6.0,162.0,324.0,270.0,54.0,216.0,108.0,blue,circle
0.0,3.0,3.0,0.0,7.0,2.0,1122.103363275528,2.0,1.0,part_3,go,0.0,0.0,0.0,176.0,4.0,44.0,176.0,264.0,88.0,132.0,220.0,yellow,triangle
0.0,5.0,1.0,1.0,7.0,6.0,609.4746710732579,2.0,1.0,part_3,go,0.0,0.0,0.0,294.0,6.0,49.0,196.0,245.0,147.0,98.0,294.0,white,hexagon
0.0,4.0,4.0,0.0,7.0,2.0,629.7015473246574,2.0,1.0,part_3,go,0.0,0.0,0.0,204.0,6.0,136.0,204.0,68.0,170.0,34.0,102.0,blue,circle
0.0,5.0,1.0,1.0,7.0,1.0,934.2887001112103,2.0,1.0,part_3,go,0.0,0.0,0.0,264.0,6.0,264.0,44.0,88.0,132.0,220.0,176.0,white,hexagon
0.0,4.0,4.0,0.0,7.0,5.0,631.9778012111783,2.0,1.0,part_3,go,0.0,0.0,0.0,234.0,6.0,117.0,195.0,39.0,156.0,234.0,78.0,blue,circle
0.0,6.0,2.0,1.0,7.0,5.0,614.5377932116389,2.0,1.0,part_3,go,0.0,0.0,0.0,264.0,6.0,44.0,176.0,88.0,132.0,264.0,220.0,orange,square
0.0,8.0,4.0,1.0,7.0,5.0,577.5856161490083,2.0,1.0,part_3,go,0.0,0.0,0.0,264.0,6.0,88.0,176.0,220.0,44.0,264.0,132.0,gray,flipped triangle
0.0,2.0,2.0,0.0,7.0,6.0,1177.1152717992663,2.0,1.0,part_3,go,0.0,0.0,0.0,324.0,6.0,54.0,216.0,270.0,108.0,162.0,324.0,magenta,I
0.0,8.0,4.0,1.0,7.0,2.0,564.9355975911021,2.0,1.0,part_3,go,0.0,0.0,0.0,294.0,6.0,147.0,294.0,245.0,98.0,49.0,196.0,gray,flipped triangle
0.0,4.0,4.0,0.0,7.0,1.0,885.699076578021,2.0,1.0,part_3,go,0.0,0.0,0.0,264.0,6.0,264.0,88.0,176.0,220.0,44.0,132.0,blue,circle
0.0,6.0,2.0,1.0,7.0,5.0,1037.7581035718322,2.0,1.0,part_3,go,0.0,0.0,0.0,204.0,6.0,102.0,170.0,68.0,34.0,204.0,136.0,orange,square
0.0,5.0,1.0,1.0,7.0,2.0,993.737930431962,2.0,1.0,part_3,go,0.0,0.0,0.0,68.0,2.0,102.0,68.0,204.0,170.0,136.0,34.0,white,hexagon
0.0,8.0,4.0,1.0,7.0,2.0,707.0030588656664,2.0,1.0,part_3,go,0.0,0.0,0.0,117.0,3.0,195.0,117.0,234.0,78.0,156.0,39.0,gray,flipped triangle
0.0,5.0,1.0,1.0,7.0,3.0,848.9533551037312,2.0,1.0,part_3,go,0.0,0.0,0.0,264.0,6.0,220.0,132.0,264.0,88.0,176.0,44.0,white,hexagon
0.0,1.0,1.0,0.0,7.0,6.0,1051.348297856748,2.0,1.0,part_3,go,0.0,0.0,0.0,294.0,6.0,196.0,49.0,245.0,147.0,98.0,294.0,green,cross
0.0,3.0,3.0,0.0,7.0,1.0,872.4314915016294,3.0,1.0,part_3,go,0.0,0.0,0.0,220.0,5.0,220.0,88.0,176.0,264.0,132.0,44.0,yellow,triangle
0.0,8.0,4.0,1.0,7.0,2.0,952.143156901002,3.0,1.0,part_3,go,0.0,0.0,0.0,294.0,6.0,196.0,294.0,147.0,49.0,98.0,245.0,gray,flipped triangle
0.0,6.0,2.0,1.0,7.0,2.0,1258.6891585960984,3.0,1.0,part_3,go,0.0,0.0,0.0,324.0,6.0,270.0,324.0,108.0,162.0,54.0,216.0,orange,square
0.0,4.0,4.0,0.0,7.0,1.0,2038.3833283558488,3.0,1.0,part_3,go,0.0,0.0,0.0,294.0,6.0,294.0,49.0,245.0,196.0,98.0,147.0,blue,circle
0.0,1.0,1.0,0.0,7.0,2.0,1087.6063350588083,3.0,1.0,part_3,go,0.0,0.0,0.0,54.0,1.0,216.0,54.0,324.0,108.0,270.0,162.0,green,cross
0.0,7.0,3.0,1.0,7.0,2.0,798.1756459921598,3.0,1.0,part_3,go,0.0,0.0,0.0,324.0,6.0,162.0,324.0,108.0,216.0,270.0,54.0,cyan,diamond
0.0,2.0,2.0,0.0,7.0,6.0,1248.923317529261,3.0,1.0,part_3,go,0.0,0.0,0.0,204.0,6.0,34.0,102.0,136.0,170.0,68.0,204.0,magenta,I
0.0,5.0,1.0,1.0,7.0,6.0,1000.2606753259895,3.0,1.0,part_3,go,0.0,0.0,0.0,234.0,6.0,156.0,117.0,39.0,195.0,78.0,234.0,white,hexagon
0.0,1.0,1.0,0.0,7.0,2.0,1020.8305530250072,3.0,1.0,part_3,go,0.0,0.0,0.0,117.0,3.0,195.0,117.0,234.0,78.0,156.0,39.0,green,cross
0.0,4.0,4.0,0.0,7.0,3.0,1774.0092407912016,3.0,1.0,part_3,go,0.0,0.0,0.0,324.0,6.0,216.0,162.0,324.0,270.0,54.0,108.0,blue,circle
0.0,5.0,1.0,1.0,7.0,3.0,1534.0868411585689,3.0,1.0,part_3,go,0.0,0.0,0.0,324.0,6.0,108.0,54.0,324.0,270.0,216.0,162.0,white,hexagon
0.0,6.0,2.0,1.0,7.0,5.0,1473.4377190470695,3.0,1.0,part_3,go,0.0,0.0,0.0,324.0,6.0,162.0,108.0,54.0,216.0,324.0,270.0,orange,square
0.0,1.0,1.0,0.0,7.0,2.0,1202.7335474267602,3.0,1.0,part_3,go,0.0,0.0,0.0,264.0,6.0,176.0,264.0,44.0,132.0,88.0,220.0,green,cross
0.0,5.0,1.0,1.0,7.0,5.0,1497.7377774193883,3.0,1.0,part_3,go,0.0,0.0,0.0,54.0,1.0,324.0,108.0,216.0,270.0,54.0,162.0,white,hexagon
0.0,6.0,2.0,1.0,7.0,2.0,1427.5341546162963,3.0,1.0,part_3,go,0.0,0.0,0.0,294.0,6.0,245.0,294.0,196.0,147.0,49.0,98.0,orange,square
0.0,7.0,3.0,1.0,7.0,6.0,1460.0823763757944,3.0,1.0,part_3,go,0.0,0.0,0.0,234.0,6.0,39.0,195.0,78.0,156.0,117.0,234.0,cyan,diamond
0.0,6.0,2.0,1.0,7.0,6.0,1284.5853073522449,3.0,1.0,part_3,go,0.0,0.0,0.0,204.0,6.0,170.0,102.0,34.0,136.0,68.0,204.0,orange,square
0.0,5.0,1.0,1.0,7.0,4.0,1206.517294049263,3.0,1.0,part_3,go,0.0,0.0,0.0,294.0,6.0,49.0,196.0,245.0,294.0,98.0,147.0,white,hexagon
0.0,2.0,2.0,0.0,7.0,5.0,1615.694154985249,3.0,1.0,part_3,go,0.0,0.0,0.0,264.0,6.0,220.0,132.0,44.0,176.0,264.0,88.0,magenta,I
0.0,8.0,4.0,1.0,7.0,4.0,1364.0747582539916,3.0,1.0,part_3,go,0.0,0.0,0.0,234.0,6.0,195.0,156.0,78.0,234.0,39.0,117.0,gray,flipped triangle
0.0,8.0,4.0,1.0,7.0,5.0,1932.7355371788144,4.0,1.0,part_3,go,0.0,0.0,0.0,68.0,2.0,204.0,170.0,34.0,102.0,68.0,136.0,gray,flipped triangle
0.0,3.0,3.0,0.0,7.0,5.0,911.8966590613128,4.0,1.0,part_3,go,0.0,0.0,0.0,68.0,2.0,170.0,204.0,34.0,102.0,68.0,136.0,yellow,triangle
0.0,7.0,3.0,1.0,7.0,5.0,1613.6433584615588,4.0,1.0,part_3,go,0.0,0.0,0.0,78.0,2.0,117.0,195.0,156.0,234.0,78.0,39.0,cyan,diamond
0.0,6.0,2.0,1.0,7.0,6.0,1872.0591384917495,4.0,1.0,part_3,go,0.0,0.0,0.0,49.0,1.0,98.0,196.0,294.0,245.0,147.0,49.0,orange,square
0.0,5.0,1.0,1.0,7.0,5.0,1211.713969707489,4.0,1.0,part_3,go,0.0,0.0,0.0,78.0,2.0,117.0,156.0,195.0,39.0,78.0,234.0,white,hexagon
0.0,8.0,4.0,1.0,7.0,1.0,2202.003827318549,4.0,1.0,part_3,go,0.0,0.0,0.0,162.0,3.0,162.0,216.0,270.0,324.0,108.0,54.0,gray,flipped triangle
0.0,3.0,3.0,0.0,7.0,6.0,890.8571116626263,4.0,1.0,part_3,go,0.0,0.0,0.0,98.0,2.0,196.0,49.0,245.0,147.0,294.0,98.0,yellow,triangle
0.0,8.0,4.0,1.0,7.0,5.0,861.1443759873509,4.0,1.0,part_3,go,0.0,0.0,0.0,88.0,2.0,44.0,264.0,220.0,176.0,88.0,132.0,gray,flipped triangle
0.0,2.0,2.0,0.0,7.0,5.0,679.5887742191553,4.0,1.0,part_3,go,0.0,0.0,0.0,88.0,2.0,132.0,44.0,176.0,264.0,88.0,220.0,magenta,I
0.0,3.0,3.0,0.0,7.0,2.0,874.4653183966875,4.0,1.0,part_3,go,0.0,0.0,0.0,136.0,4.0,34.0,136.0,170.0,68.0,102.0,204.0,yellow,triangle
0.0,6.0,2.0,1.0,7.0,5.0,712.2023776173592,4.0,1.0,part_3,go,0.0,0.0,0.0,264.0,6.0,176.0,44.0,220.0,88.0,264.0,132.0,orange,square
0.0,8.0,4.0,1.0,7.0,1.0,1620.6188732758164,4.0,1.0,part_3,go,0.0,0.0,0.0,68.0,2.0,68.0,204.0,136.0,170.0,34.0,102.0,gray,flipped triangle
0.0,7.0,3.0,1.0,7.0,2.0,746.612899005413,4.0,1.0,part_3,go,0.0,0.0,0.0,34.0,1.0,136.0,34.0,68.0,102.0,204.0,170.0,cyan,diamond
0.0,2.0,2.0,0.0,7.0,1.0,1453.208147548139,4.0,1.0,part_3,go,0.0,0.0,0.0,98.0,2.0,98.0,245.0,49.0,196.0,147.0,294.0,magenta,I
0.0,2.0,2.0,0.0,7.0,2.0,2208.691962994635,4.0,1.0,part_3,go,0.0,0.0,0.0,78.0,2.0,234.0,78.0,156.0,195.0,117.0,39.0,magenta,I
0.0,7.0,3.0,1.0,7.0,1.0,1378.1797355040908,4.0,1.0,part_3,go,0.0,0.0,0.0,98.0,2.0,98.0,294.0,147.0,49.0,245.0,196.0,cyan,diamond
0.0,4.0,4.0,0.0,7.0,2.0,843.9847836270928,4.0,1.0,part_3,go,0.0,0.0,0.0,234.0,6.0,78.0,234.0,39.0,156.0,195.0,117.0,blue,circle
0.0,1.0,1.0,0.0,7.0,4.0,1178.7245897576213,4.0,1.0,part_3,go,0.0,0.0,0.0,49.0,1.0,196.0,294.0,98.0,49.0,147.0,245.0,green,cross
0.0,7.0,3.0,1.0,7.0,3.0,605.4483754560351,4.0,1.0,part_3,go,0.0,0.0,0.0,68.0,2.0,136.0,170.0,68.0,102.0,204.0,34.0,cyan,diamond
0.0,7.0,3.0,1.0,7.0,3.0,2341.3372337818146,4.0,1.0,part_3,go,0.0,0.0,0.0,54.0,1.0,270.0,108.0,54.0,162.0,324.0,216.0,cyan,diamond
