raw_reward_magnitude,stim_reward,stepwise_reward_magnitude,paired_with_stopping,stim_location,response,reaction_time,block,num_trial_presentations,which_phase,stop_signal_trial_type,left_SSD,right_SSD,accuracy,chosen_bidding_amount,chosen_bidding_level,possible_bid_1,possible_bid_2,possible_bid_3,possible_bid_4,possible_bid_5,possible_bid_6,color_text,shape_text
0.0,2.0,0.0,0.0,2.0,2.0,442.3793833702802,1.0,1.0,phase_1,,,,,,,,,,,,,white,diamond
26.0,1.0,0.5,0.0,4.0,4.0,615.1482034474611,1.0,1.0,phase_1,,,,,,,,,,,,,magenta,cross
0.0,3.0,0.0,0.0,4.0,4.0,561.695059761405,1.0,1.0,phase_1,,,,,,,,,,,,,orange,I
225.0,3.0,2.0,0.0,2.0,2.0,350.047105923295,1.0,1.0,phase_1,,,,,,,,,,,,,orange,I
393.0,8.0,4.0,1.0,4.0,4.0,379.2199678719044,1.0,1.0,phase_1,,,,,,,,,,,,,green,hexagon
403.0,4.0,4.0,0.0,2.0,2.0,350.1949291676283,1.0,1.0,phase_1,,,,,,,,,,,,,blue,triangle
45.0,5.0,0.5,1.0,1.0,1.0,438.7777801603079,1.0,1.0,phase_1,,,,,,,,,,,,,gray,circle
185.0,7.0,2.0,1.0,1.0,1.0,360.8850501477718,1.0,1.0,phase_1,,,,,,,,,,,,,yellow,square
409.0,4.0,4.0,0.0,1.0,1.0,436.0466413199901,1.0,1.0,phase_1,,,,,,,,,,,,,blue,triangle
45.0,5.0,0.5,1.0,4.0,4.0,435.6500282883644,1.0,1.0,phase_1,,,,,,,,,,,,,gray,circle
87.0,6.0,1.0,1.0,4.0,4.0,357.1011759340763,1.0,1.0,phase_1,,,,,,,,,,,,,cyan,flipped triangle
377.0,8.0,4.0,1.0,3.0,3.0,394.9821479618549,1.0,1.0,phase_1,,,,,,,,,,,,,green,hexagon
387.0,4.0,4.0,0.0,2.0,2.0,319.4577544927597,1.0,1.0,phase_1,,,,,,,,,,,,,blue,triangle
396.0,4.0,4.0,0.0,2.0,2.0,319.0891593694687,1.0,1.0,phase_1,,,,,,,,,,,,,blue,triangle
0.0,1.0,0.0,0.0,4.0,4.0,323.2874032109976,1.0,1.0,phase_1,,,,,,,,,,,,,magenta,cross
218.0,3.0,2.0,0.0,3.0,3.0,373.9236779510975,1.0,1.0,phase_1,,,,,,,,,,,,,orange,I
200.0,7.0,2.0,1.0,1.0,1.0,341.088630259037,1.0,1.0,phase_1,,,,,,,,,,,,,yellow,square
117.0,6.0,1.0,1.0,2.0,2.0,271.2143436074257,1.0,1.0,phase_1,,,,,,,,,,,,,cyan,flipped triangle
188.0,3.0,2.0,0.0,4.0,4.0,277.867866680026,1.0,1.0,phase_1,,,,,,,,,,,,,orange,I
187.0,3.0,2.0,0.0,2.0,2.0,344.3043101578951,1.0,1.0,phase_1,,,,,,,,,,,,,orange,I
30.0,5.0,0.5,1.0,3.0,3.0,400.360070168972,1.0,1.0,phase_1,,,,,,,,,,,,,gray,circle
0.0,4.0,0.0,0.0,1.0,1.0,332.6607681810856,1.0,1.0,phase_1,,,,,,,,,,,,,blue,triangle
210.0,3.0,2.0,0.0,2.0,2.0,286.5222003310919,1.0,1.0,phase_1,,,,,,,,,,,,,orange,I
55.0,1.0,0.5,0.0,1.0,1.0,446.8566682189703,1.0,2.0,phase_1,,,,,,,,,,,,,magenta,cross
387.0,8.0,4.0,1.0,3.0,3.0,339.5829685032367,1.0,1.0,phase_1,,,,,,,,,,,,,green,hexagon
88.0,2.0,1.0,0.0,3.0,3.0,360.0808847695589,1.0,2.0,phase_1,,,,,,,,,,,,,white,diamond
102.0,2.0,1.0,0.0,2.0,2.0,354.8815883696079,1.0,1.0,phase_1,,,,,,,,,,,,,white,diamond
217.0,7.0,2.0,1.0,1.0,1.0,473.3844548463821,1.0,1.0,phase_1,,,,,,,,,,,,,yellow,square
0.0,4.0,0.0,0.0,3.0,3.0,331.5133992582559,1.0,1.0,phase_1,,,,,,,,,,,,,blue,triangle
0.0,1.0,0.0,0.0,4.0,4.0,529.5716188848019,1.0,1.0,phase_1,,,,,,,,,,,,,magenta,cross
405.0,8.0,4.0,1.0,1.0,1.0,432.721521705389,1.0,1.0,phase_1,,,,,,,,,,,,,green,hexagon
0.0,4.0,0.0,0.0,1.0,1.0,579.7720514237881,1.0,1.0,phase_1,,,,,,,,,,,,,blue,triangle
83.0,6.0,1.0,1.0,1.0,1.0,584.2769220471382,1.0,1.0,phase_1,,,,,,,,,,,,,cyan,flipped triangle
38.0,5.0,0.5,1.0,4.0,4.0,629.7308541834354,1.0,1.0,phase_1,,,,,,,,,,,,,gray,circle
0.0,7.0,0.0,1.0,3.0,3.0,321.7718116939068,1.0,1.0,phase_1,,,,,,,,,,,,,yellow,square
111.0,6.0,1.0,1.0,4.0,4.0,413.6159420013428,1.0,1.0,phase_1,,,,,,,,,,,,,cyan,flipped triangle
0.0,1.0,0.0,0.0,3.0,3.0,281.5432269126177,1.0,1.0,phase_1,,,,,,,,,,,,,magenta,cross
206.0,3.0,2.0,0.0,1.0,1.0,366.3354478776455,1.0,1.0,phase_1,,,,,,,,,,,,,orange,I
185.0,3.0,2.0,0.0,4.0,4.0,396.249258890748,1.0,1.0,phase_1,,,,,,,,,,,,,orange,I
387.0,4.0,4.0,0.0,3.0,3.0,319.7767119854688,1.0,1.0,phase_1,,,,,,,,,,,,,blue,triangle
105.0,2.0,1.0,0.0,1.0,1.0,438.5536927729845,1.0,1.0,phase_1,,,,,,,,,,,,,white,diamond
100.0,6.0,1.0,1.0,4.0,4.0,569.6334671229124,1.0,1.0,phase_1,,,,,,,,,,,,,cyan,flipped triangle
86.0,6.0,1.0,1.0,1.0,1.0,412.944994866848,1.0,1.0,phase_1,,,,,,,,,,,,,cyan,flipped triangle
204.0,3.0,2.0,0.0,4.0,4.0,341.788712888956,1.0,1.0,phase_1,,,,,,,,,,,,,orange,I
205.0,7.0,2.0,1.0,4.0,4.0,359.2643998563289,1.0,1.0,phase_1,,,,,,,,,,,,,yellow,square
117.0,2.0,1.0,0.0,4.0,4.0,539.5816992968321,1.0,1.0,phase_1,,,,,,,,,,,,,white,diamond
81.0,2.0,1.0,0.0,1.0,1.0,370.1563011854887,1.0,1.0,phase_1,,,,,,,,,,,,,white,diamond
53.0,1.0,0.5,0.0,3.0,3.0,340.537466108799,1.0,1.0,phase_1,,,,,,,,,,,,,magenta,cross
394.0,4.0,4.0,0.0,4.0,4.0,394.748555496335,1.0,1.0,phase_1,,,,,,,,,,,,,blue,triangle
45.0,1.0,0.5,0.0,3.0,3.0,350.3366485238075,1.0,1.0,phase_1,,,,,,,,,,,,,magenta,cross
402.0,8.0,4.0,1.0,2.0,2.0,475.2941075712442,1.0,1.0,phase_1,,,,,,,,,,,,,green,hexagon
204.0,7.0,2.0,1.0,4.0,4.0,318.9501818269491,1.0,1.0,phase_1,,,,,,,,,,,,,yellow,square
424.0,8.0,4.0,1.0,4.0,4.0,439.7726468741894,1.0,1.0,phase_1,,,,,,,,,,,,,green,hexagon
0.0,5.0,0.0,1.0,1.0,1.0,458.3333767950535,1.0,1.0,phase_1,,,,,,,,,,,,,gray,circle
93.0,6.0,1.0,1.0,4.0,4.0,373.1795288622379,1.0,1.0,phase_1,,,,,,,,,,,,,cyan,flipped triangle
414.0,8.0,4.0,1.0,1.0,1.0,387.5391185283661,1.0,1.0,phase_1,,,,,,,,,,,,,green,hexagon
215.0,3.0,2.0,0.0,2.0,2.0,406.3345640897751,1.0,1.0,phase_1,,,,,,,,,,,,,orange,I
99.0,2.0,1.0,0.0,3.0,3.0,358.1240642815828,1.0,1.0,phase_1,,,,,,,,,,,,,white,diamond
387.0,8.0,4.0,1.0,4.0,4.0,419.3453583866358,1.0,1.0,phase_1,,,,,,,,,,,,,green,hexagon
76.0,6.0,1.0,1.0,3.0,3.0,382.4258595705032,1.0,1.0,phase_1,,,,,,,,,,,,,cyan,flipped triangle
0.0,7.0,0.0,1.0,3.0,3.0,379.7322027385235,1.0,1.0,phase_1,,,,,,,,,,,,,yellow,square
67.0,1.0,0.5,0.0,1.0,1.0,454.5320235192776,1.0,1.0,phase_1,,,,,,,,,,,,,magenta,cross
83.0,6.0,1.0,1.0,4.0,4.0,365.0237657129764,1.0,1.0,phase_1,,,,,,,,,,,,,cyan,flipped triangle
119.0,2.0,1.0,0.0,4.0,4.0,434.2679884284735,1.0,1.0,phase_1,,,,,,,,,,,,,white,diamond
88.0,2.0,1.0,0.0,2.0,2.0,326.7486374825239,1.0,1.0,phase_1,,,,,,,,,,,,,white,diamond
30.0,1.0,0.5,0.0,1.0,1.0,363.5912556201219,1.0,1.0,phase_1,,,,,,,,,,,,,magenta,cross
39.0,1.0,0.5,0.0,3.0,3.0,344.3146646022796,1.0,1.0,phase_1,,,,,,,,,,,,,magenta,cross
0.0,1.0,0.0,0.0,3.0,3.0,362.4693136662245,1.0,1.0,phase_1,,,,,,,,,,,,,magenta,cross
0.0,3.0,0.0,0.0,2.0,2.0,334.6978090703487,1.0,1.0,phase_1,,,,,,,,,,,,,orange,I
403.0,4.0,4.0,0.0,1.0,1.0,339.0545397996902,1.0,1.0,phase_1,,,,,,,,,,,,,blue,triangle
0.0,6.0,0.0,1.0,2.0,2.0,297.9903873056173,1.0,1.0,phase_1,,,,,,,,,,,,,cyan,flipped triangle
184.0,7.0,2.0,1.0,1.0,1.0,350.5681250244379,1.0,1.0,phase_1,,,,,,,,,,,,,yellow,square
425.0,4.0,4.0,0.0,2.0,2.0,371.9045668840408,1.0,1.0,phase_1,,,,,,,,,,,,,blue,triangle
382.0,4.0,4.0,0.0,4.0,4.0,329.5221645385027,1.0,1.0,phase_1,,,,,,,,,,,,,blue,triangle
188.0,7.0,2.0,1.0,1.0,1.0,339.277496561408,1.0,1.0,phase_1,,,,,,,,,,,,,yellow,square
58.0,5.0,0.5,1.0,3.0,3.0,312.3873490840196,1.0,1.0,phase_1,,,,,,,,,,,,,gray,circle
29.0,5.0,0.5,1.0,4.0,4.0,341.0889264196157,1.0,1.0,phase_1,,,,,,,,,,,,,gray,circle
215.0,7.0,2.0,1.0,3.0,3.0,312.9613399505615,1.0,1.0,phase_1,,,,,,,,,,,,,yellow,square
0.0,6.0,0.0,1.0,1.0,1.0,317.5223600119352,1.0,1.0,phase_1,,,,,,,,,,,,,cyan,flipped triangle
42.0,5.0,0.5,1.0,1.0,1.0,346.3972713798284,1.0,1.0,phase_1,,,,,,,,,,,,,gray,circle
387.0,4.0,4.0,0.0,1.0,1.0,503.34443151950836,1.0,1.0,phase_1,,,,,,,,,,,,,blue,triangle
108.0,2.0,1.0,0.0,1.0,1.0,379.6841688454151,1.0,1.0,phase_1,,,,,,,,,,,,,white,diamond
189.0,7.0,2.0,1.0,1.0,1.0,297.1907798200845,1.0,1.0,phase_1,,,,,,,,,,,,,yellow,square
105.0,6.0,1.0,1.0,3.0,3.0,286.6436317563057,1.0,1.0,phase_1,,,,,,,,,,,,,cyan,flipped triangle
0.0,8.0,0.0,1.0,3.0,3.0,316.887654364109,1.0,1.0,phase_1,,,,,,,,,,,,,green,hexagon
93.0,2.0,1.0,0.0,1.0,1.0,503.9368886500597,1.0,1.0,phase_1,,,,,,,,,,,,,white,diamond
79.0,2.0,1.0,0.0,1.0,1.0,394.7312831878662,1.0,1.0,phase_1,,,,,,,,,,,,,white,diamond
0.0,5.0,0.0,1.0,1.0,1.0,552.111865952611,1.0,1.0,phase_1,,,,,,,,,,,,,gray,circle
211.0,7.0,2.0,1.0,4.0,4.0,663.2847264409065,1.0,1.0,phase_1,,,,,,,,,,,,,yellow,square
122.0,2.0,1.0,0.0,1.0,1.0,324.5827332139015,1.0,1.0,phase_1,,,,,,,,,,,,,white,diamond
56.0,5.0,0.5,1.0,3.0,3.0,422.7671232074499,1.0,1.0,phase_1,,,,,,,,,,,,,gray,circle
211.0,7.0,2.0,1.0,3.0,3.0,301.0318968445062,1.0,1.0,phase_1,,,,,,,,,,,,,yellow,square
192.0,3.0,2.0,0.0,2.0,2.0,336.1517135053873,1.0,1.0,phase_1,,,,,,,,,,,,,orange,I
409.0,8.0,4.0,1.0,3.0,3.0,326.4705371111631,1.0,1.0,phase_1,,,,,,,,,,,,,green,hexagon
224.0,3.0,2.0,0.0,4.0,4.0,425.9177446365356,1.0,1.0,phase_1,,,,,,,,,,,,,orange,I
48.0,5.0,0.5,1.0,1.0,1.0,328.9305604994297,1.0,1.0,phase_1,,,,,,,,,,,,,gray,circle
88.0,6.0,1.0,1.0,2.0,2.0,466.5140267461538,1.0,1.0,phase_1,,,,,,,,,,,,,cyan,flipped triangle
218.0,7.0,2.0,1.0,4.0,4.0,366.2938475608825,1.0,1.0,phase_1,,,,,,,,,,,,,yellow,square
48.0,1.0,0.5,0.0,3.0,3.0,300.4230335354805,1.0,1.0,phase_1,,,,,,,,,,,,,magenta,cross
0.0,6.0,0.0,1.0,4.0,4.0,328.4076992422342,1.0,1.0,phase_1,,,,,,,,,,,,,cyan,flipped triangle
206.0,3.0,2.0,0.0,1.0,1.0,409.0109262615442,2.0,1.0,phase_1,,,,,,,,,,,,,orange,I
93.0,6.0,1.0,1.0,2.0,2.0,336.4710081368685,2.0,1.0,phase_1,,,,,,,,,,,,,cyan,flipped triangle
415.0,4.0,4.0,0.0,1.0,1.0,458.1215512007475,2.0,1.0,phase_1,,,,,,,,,,,,,blue,triangle
114.0,2.0,1.0,0.0,3.0,3.0,335.78581362962717,2.0,1.0,phase_1,,,,,,,,,,,,,white,diamond
387.0,8.0,4.0,1.0,4.0,4.0,364.7231385111809,2.0,1.0,phase_1,,,,,,,,,,,,,green,hexagon
57.0,1.0,0.5,0.0,2.0,2.0,287.1401477605104,2.0,1.0,phase_1,,,,,,,,,,,,,magenta,cross
93.0,6.0,1.0,1.0,4.0,4.0,324.8504158109426,2.0,1.0,phase_1,,,,,,,,,,,,,cyan,flipped triangle
0.0,8.0,0.0,1.0,3.0,3.0,297.0913499593735,2.0,1.0,phase_1,,,,,,,,,,,,,green,hexagon
0.0,7.0,0.0,1.0,1.0,1.0,352.49830409884447,2.0,1.0,phase_1,,,,,,,,,,,,,yellow,square
0.0,8.0,0.0,1.0,3.0,3.0,266.1775015294552,2.0,1.0,phase_1,,,,,,,,,,,,,green,hexagon
0.0,2.0,0.0,0.0,3.0,3.0,321.4337099343538,2.0,1.0,phase_1,,,,,,,,,,,,,white,diamond
184.0,3.0,2.0,0.0,4.0,4.0,311.8249457329511,2.0,1.0,phase_1,,,,,,,,,,,,,orange,I
25.0,1.0,0.5,0.0,2.0,2.0,354.12223264575,2.0,1.0,phase_1,,,,,,,,,,,,,magenta,cross
393.0,4.0,4.0,0.0,3.0,3.0,328.3572811633348,2.0,1.0,phase_1,,,,,,,,,,,,,blue,triangle
0.0,5.0,0.0,1.0,3.0,3.0,324.6777318418026,2.0,1.0,phase_1,,,,,,,,,,,,,gray,circle
107.0,2.0,1.0,0.0,3.0,3.0,274.5651435106992,2.0,1.0,phase_1,,,,,,,,,,,,,white,diamond
51.0,5.0,0.5,1.0,2.0,2.0,451.2970317155123,2.0,1.0,phase_1,,,,,,,,,,,,,gray,circle
26.0,1.0,0.5,0.0,4.0,4.0,367.5620406866073,2.0,1.0,phase_1,,,,,,,,,,,,,magenta,cross
217.0,3.0,2.0,0.0,2.0,2.0,567.6793120801449,2.0,1.0,phase_1,,,,,,,,,,,,,orange,I
66.0,5.0,0.5,1.0,1.0,1.0,402.3548271507025,2.0,1.0,phase_1,,,,,,,,,,,,,gray,circle
32.0,5.0,0.5,1.0,4.0,4.0,328.0309718102216,2.0,1.0,phase_1,,,,,,,,,,,,,gray,circle
51.0,1.0,0.5,0.0,1.0,1.0,381.1999317258596,2.0,1.0,phase_1,,,,,,,,,,,,,magenta,cross
200.0,3.0,2.0,0.0,3.0,3.0,319.4753210991621,2.0,1.0,phase_1,,,,,,,,,,,,,orange,I
0.0,5.0,0.0,1.0,3.0,3.0,799.9381422996521,2.0,1.0,phase_1,,,,,,,,,,,,,gray,circle
0.0,2.0,0.0,0.0,1.0,1.0,368.50283667445177,2.0,1.0,phase_1,,,,,,,,,,,,,white,diamond
191.0,7.0,2.0,1.0,1.0,1.0,343.2368151843548,2.0,1.0,phase_1,,,,,,,,,,,,,yellow,square
375.0,8.0,4.0,1.0,2.0,2.0,325.1220919191837,2.0,1.0,phase_1,,,,,,,,,,,,,green,hexagon
88.0,6.0,1.0,1.0,2.0,2.0,328.6063857376575,2.0,1.0,phase_1,,,,,,,,,,,,,cyan,flipped triangle
205.0,3.0,2.0,0.0,1.0,1.0,323.9717353135347,2.0,1.0,phase_1,,,,,,,,,,,,,orange,I
215.0,7.0,2.0,1.0,3.0,3.0,328.4747656434774,2.0,1.0,phase_1,,,,,,,,,,,,,yellow,square
425.0,8.0,4.0,1.0,2.0,2.0,359.9891755729913,2.0,1.0,phase_1,,,,,,,,,,,,,green,hexagon
59.0,1.0,0.5,0.0,4.0,4.0,499.6704515069723,2.0,1.0,phase_1,,,,,,,,,,,,,magenta,cross
58.0,1.0,0.5,0.0,2.0,2.0,336.3687917590141,2.0,1.0,phase_1,,,,,,,,,,,,,magenta,cross
107.0,6.0,1.0,1.0,3.0,3.0,278.608663007617,2.0,1.0,phase_1,,,,,,,,,,,,,cyan,flipped triangle
0.0,6.0,0.0,1.0,2.0,2.0,279.3892975896597,2.0,1.0,phase_1,,,,,,,,,,,,,cyan,flipped triangle
201.0,7.0,2.0,1.0,4.0,4.0,366.073640063405,2.0,1.0,phase_1,,,,,,,,,,,,,yellow,square
192.0,7.0,2.0,1.0,4.0,4.0,331.9685347378254,2.0,1.0,phase_1,,,,,,,,,,,,,yellow,square
386.0,8.0,4.0,1.0,1.0,1.0,310.142932459712,2.0,1.0,phase_1,,,,,,,,,,,,,green,hexagon
123.0,2.0,1.0,0.0,1.0,1.0,442.4165207892656,2.0,1.0,phase_1,,,,,,,,,,,,,white,diamond
400.0,8.0,4.0,1.0,4.0,4.0,441.5085576474666,2.0,1.0,phase_1,,,,,,,,,,,,,green,hexagon
0.0,2.0,0.0,0.0,1.0,1.0,395.6464361399412,2.0,1.0,phase_1,,,,,,,,,,,,,white,diamond
71.0,1.0,0.5,0.0,1.0,1.0,976.1200621724128,2.0,1.0,phase_1,,,,,,,,,,,,,magenta,cross
409.0,4.0,4.0,0.0,3.0,3.0,304.6393133699894,2.0,1.0,phase_1,,,,,,,,,,,,,blue,triangle
64.0,1.0,0.5,0.0,3.0,3.0,692.5201546400785,2.0,1.0,phase_1,,,,,,,,,,,,,magenta,cross
105.0,6.0,1.0,1.0,3.0,3.0,361.2502384930849,2.0,1.0,phase_1,,,,,,,,,,,,,cyan,flipped triangle
0.0,6.0,0.0,1.0,3.0,3.0,326.7760425806045,2.0,1.0,phase_1,,,,,,,,,,,,,cyan,flipped triangle
0.0,3.0,0.0,0.0,3.0,3.0,362.1317334473133,2.0,1.0,phase_1,,,,,,,,,,,,,orange,I
0.0,6.0,0.0,1.0,3.0,3.0,302.7492891997099,2.0,1.0,phase_1,,,,,,,,,,,,,cyan,flipped triangle
0.0,3.0,0.0,0.0,1.0,1.0,289.4685044884681,2.0,1.0,phase_1,,,,,,,,,,,,,orange,I
32.0,1.0,0.5,0.0,3.0,3.0,269.8759250342846,2.0,1.0,phase_1,,,,,,,,,,,,,magenta,cross
177.0,3.0,2.0,0.0,1.0,1.0,294.4988459348678,2.0,1.0,phase_1,,,,,,,,,,,,,orange,I
184.0,3.0,2.0,0.0,4.0,4.0,322.9782897979021,2.0,1.0,phase_1,,,,,,,,,,,,,orange,I
0.0,7.0,0.0,1.0,2.0,2.0,259.5141772180795,2.0,1.0,phase_1,,,,,,,,,,,,,yellow,square
95.0,2.0,1.0,0.0,4.0,4.0,282.8231379389763,2.0,1.0,phase_1,,,,,,,,,,,,,white,diamond
193.0,7.0,2.0,1.0,3.0,3.0,303.1178526580333,2.0,1.0,phase_1,,,,,,,,,,,,,yellow,square
378.0,4.0,4.0,0.0,2.0,2.0,315.6529702246189,2.0,1.0,phase_1,,,,,,,,,,,,,blue,triangle
67.0,5.0,0.5,1.0,3.0,3.0,338.1367549300194,2.0,1.0,phase_1,,,,,,,,,,,,,gray,circle
120.0,2.0,1.0,0.0,3.0,3.0,339.3932040780782,2.0,1.0,phase_1,,,,,,,,,,,,,white,diamond
422.0,4.0,4.0,0.0,4.0,4.0,336.0037468373775,2.0,1.0,phase_1,,,,,,,,,,,,,blue,triangle
0.0,2.0,0.0,0.0,3.0,3.0,310.6343857944011,2.0,1.0,phase_1,,,,,,,,,,,,,white,diamond
0.0,2.0,0.0,0.0,4.0,4.0,306.5852951258421,2.0,1.0,phase_1,,,,,,,,,,,,,white,diamond
0.0,8.0,0.0,1.0,3.0,3.0,298.1009911745786,2.0,1.0,phase_1,,,,,,,,,,,,,green,hexagon
0.0,5.0,0.0,1.0,4.0,4.0,325.9457312524318,2.0,1.0,phase_1,,,,,,,,,,,,,gray,circle
381.0,4.0,4.0,0.0,2.0,2.0,314.4194949418306,2.0,1.0,phase_1,,,,,,,,,,,,,blue,triangle
0.0,3.0,0.0,0.0,4.0,4.0,334.6671909093857,2.0,1.0,phase_1,,,,,,,,,,,,,orange,I
62.0,5.0,0.5,1.0,1.0,1.0,330.217095091939,2.0,1.0,phase_1,,,,,,,,,,,,,gray,circle
211.0,3.0,2.0,0.0,2.0,2.0,310.3638608008623,2.0,1.0,phase_1,,,,,,,,,,,,,orange,I
0.0,2.0,0.0,0.0,4.0,4.0,326.118865981698,2.0,1.0,phase_1,,,,,,,,,,,,,white,diamond
38.0,1.0,0.5,0.0,1.0,1.0,542.6821894943714,2.0,1.0,phase_1,,,,,,,,,,,,,magenta,cross
387.0,4.0,4.0,0.0,2.0,2.0,363.4968437254429,2.0,1.0,phase_1,,,,,,,,,,,,,blue,triangle
66.0,1.0,0.5,0.0,2.0,2.0,432.8489359468221,2.0,1.0,phase_1,,,,,,,,,,,,,magenta,cross
0.0,5.0,0.0,1.0,4.0,4.0,335.5144001543522,2.0,1.0,phase_1,,,,,,,,,,,,,gray,circle
107.0,2.0,1.0,0.0,3.0,3.0,313.3709114044904,2.0,1.0,phase_1,,,,,,,,,,,,,white,diamond
0.0,1.0,0.0,0.0,3.0,3.0,505.1737129688263,2.0,1.0,phase_1,,,,,,,,,,,,,magenta,cross
0.0,4.0,0.0,0.0,1.0,1.0,412.8746949136257,2.0,1.0,phase_1,,,,,,,,,,,,,blue,triangle
382.0,4.0,4.0,0.0,4.0,4.0,663.6021733283997,2.0,1.0,phase_1,,,,,,,,,,,,,blue,triangle
419.0,4.0,4.0,0.0,3.0,3.0,333.3769161254167,2.0,1.0,phase_1,,,,,,,,,,,,,blue,triangle
83.0,2.0,1.0,0.0,2.0,2.0,307.5526636093855,2.0,1.0,phase_1,,,,,,,,,,,,,white,diamond
403.0,8.0,4.0,1.0,3.0,3.0,310.5888031423092,2.0,1.0,phase_1,,,,,,,,,,,,,green,hexagon
205.0,3.0,2.0,0.0,2.0,2.0,410.9509959816932,2.0,1.0,phase_1,,,,,,,,,,,,,orange,I
65.0,1.0,0.5,0.0,4.0,4.0,297.9474607855081,2.0,1.0,phase_1,,,,,,,,,,,,,magenta,cross
77.0,6.0,1.0,1.0,2.0,2.0,286.8206407874822,2.0,1.0,phase_1,,,,,,,,,,,,,cyan,flipped triangle
79.0,6.0,1.0,1.0,3.0,3.0,352.6350930333137,2.0,1.0,phase_1,,,,,,,,,,,,,cyan,flipped triangle
177.0,7.0,2.0,1.0,4.0,4.0,598.9527255296707,2.0,1.0,phase_1,,,,,,,,,,,,,yellow,square
215.0,3.0,2.0,0.0,3.0,3.0,314.3166191875934,2.0,1.0,phase_1,,,,,,,,,,,,,orange,I
0.0,4.0,0.0,0.0,4.0,4.0,321.4157465845346,2.0,1.0,phase_1,,,,,,,,,,,,,blue,triangle
86.0,2.0,1.0,0.0,2.0,2.0,310.9777998179197,2.0,1.0,phase_1,,,,,,,,,,,,,white,diamond
422.0,8.0,4.0,1.0,3.0,3.0,323.446961119771,2.0,1.0,phase_1,,,,,,,,,,,,,green,hexagon
0.0,8.0,0.0,1.0,4.0,4.0,287.7269387245178,2.0,1.0,phase_1,,,,,,,,,,,,,green,hexagon
31.0,5.0,0.5,1.0,3.0,3.0,347.8280697017908,2.0,1.0,phase_1,,,,,,,,,,,,,gray,circle
103.0,2.0,1.0,0.0,3.0,3.0,378.1134653836489,2.0,1.0,phase_1,,,,,,,,,,,,,white,diamond
77.0,2.0,1.0,0.0,2.0,2.0,555.4798636585474,2.0,1.0,phase_1,,,,,,,,,,,,,white,diamond
81.0,6.0,1.0,1.0,1.0,1.0,527.795223519206,2.0,1.0,phase_1,,,,,,,,,,,,,cyan,flipped triangle
424.0,4.0,4.0,0.0,4.0,4.0,348.074784502387,2.0,1.0,phase_1,,,,,,,,,,,,,blue,triangle
112.0,2.0,1.0,0.0,4.0,4.0,305.1830045878887,2.0,1.0,phase_1,,,,,,,,,,,,,white,diamond
52.0,5.0,0.5,1.0,1.0,1.0,413.5155063122511,2.0,1.0,phase_1,,,,,,,,,,,,,gray,circle
76.0,2.0,1.0,0.0,4.0,4.0,462.0333723723888,2.0,1.0,phase_1,,,,,,,,,,,,,white,diamond
424.0,4.0,4.0,0.0,2.0,2.0,305.7140130549669,2.0,1.0,phase_1,,,,,,,,,,,,,blue,triangle
393.0,4.0,4.0,0.0,3.0,3.0,310.734037309885,2.0,1.0,phase_1,,,,,,,,,,,,,blue,triangle
30.0,1.0,0.5,0.0,3.0,3.0,405.5713806301355,2.0,2.0,phase_1,,,,,,,,,,,,,magenta,cross
403.0,8.0,4.0,1.0,2.0,2.0,371.0954505950212,3.0,1.0,phase_1,,,,,,,,,,,,,green,hexagon
112.0,6.0,1.0,1.0,3.0,3.0,318.9996108412742,3.0,1.0,phase_1,,,,,,,,,,,,,cyan,flipped triangle
211.0,3.0,2.0,0.0,3.0,3.0,330.286655575037,3.0,1.0,phase_1,,,,,,,,,,,,,orange,I
0.0,7.0,0.0,1.0,4.0,4.0,278.6763403564691,3.0,1.0,phase_1,,,,,,,,,,,,,yellow,square
0.0,1.0,0.0,0.0,3.0,3.0,324.5947100222111,3.0,1.0,phase_1,,,,,,,,,,,,,magenta,cross
381.0,8.0,4.0,1.0,4.0,4.0,320.4668182879686,3.0,1.0,phase_1,,,,,,,,,,,,,green,hexagon
0.0,3.0,0.0,0.0,1.0,1.0,334.6591759473085,3.0,1.0,phase_1,,,,,,,,,,,,,orange,I
0.0,4.0,0.0,0.0,4.0,4.0,356.0480885207653,3.0,1.0,phase_1,,,,,,,,,,,,,blue,triangle
382.0,8.0,4.0,1.0,3.0,3.0,334.6935715526342,3.0,1.0,phase_1,,,,,,,,,,,,,green,hexagon
0.0,4.0,0.0,0.0,3.0,3.0,428.49594168365,3.0,1.0,phase_1,,,,,,,,,,,,,blue,triangle
409.0,4.0,4.0,0.0,2.0,2.0,273.6887782812118,3.0,1.0,phase_1,,,,,,,,,,,,,blue,triangle
99.0,6.0,1.0,1.0,1.0,1.0,310.3324174880981,3.0,1.0,phase_1,,,,,,,,,,,,,cyan,flipped triangle
120.0,6.0,1.0,1.0,1.0,1.0,486.2986970692873,3.0,2.0,phase_1,,,,,,,,,,,,,cyan,flipped triangle
83.0,2.0,1.0,0.0,3.0,3.0,434.4772379845381,3.0,1.0,phase_1,,,,,,,,,,,,,white,diamond
418.0,4.0,4.0,0.0,3.0,3.0,362.3240180313587,3.0,1.0,phase_1,,,,,,,,,,,,,blue,triangle
423.0,8.0,4.0,1.0,3.0,3.0,331.6130395978689,3.0,1.0,phase_1,,,,,,,,,,,,,green,hexagon
56.0,1.0,0.5,0.0,1.0,1.0,379.6602990478277,3.0,1.0,phase_1,,,,,,,,,,,,,magenta,cross
0.0,3.0,0.0,0.0,2.0,2.0,422.7149877697229,3.0,1.0,phase_1,,,,,,,,,,,,,orange,I
204.0,7.0,2.0,1.0,2.0,2.0,299.2574702948332,3.0,1.0,phase_1,,,,,,,,,,,,,yellow,square
211.0,7.0,2.0,1.0,4.0,4.0,433.5165079683065,3.0,1.0,phase_1,,,,,,,,,,,,,yellow,square
86.0,6.0,1.0,1.0,3.0,3.0,315.2937181293964,3.0,1.0,phase_1,,,,,,,,,,,,,cyan,flipped triangle
382.0,8.0,4.0,1.0,1.0,1.0,330.8423906564712,3.0,1.0,phase_1,,,,,,,,,,,,,green,hexagon
26.0,5.0,0.5,1.0,3.0,3.0,268.6695773154497,3.0,1.0,phase_1,,,,,,,,,,,,,gray,circle
189.0,3.0,2.0,0.0,3.0,3.0,349.527882412076,3.0,1.0,phase_1,,,,,,,,,,,,,orange,I
184.0,7.0,2.0,1.0,2.0,2.0,273.291191086173,3.0,1.0,phase_1,,,,,,,,,,,,,yellow,square
381.0,8.0,4.0,1.0,4.0,4.0,451.3108916580677,3.0,1.0,phase_1,,,,,,,,,,,,,green,hexagon
115.0,2.0,1.0,0.0,1.0,1.0,322.6019814610481,3.0,1.0,phase_1,,,,,,,,,,,,,white,diamond
184.0,7.0,2.0,1.0,2.0,2.0,444.4644935429096,3.0,1.0,phase_1,,,,,,,,,,,,,yellow,square
0.0,8.0,0.0,1.0,1.0,1.0,346.9201680272817,3.0,1.0,phase_1,,,,,,,,,,,,,green,hexagon
52.0,1.0,0.5,0.0,4.0,4.0,327.3779526352882,3.0,1.0,phase_1,,,,,,,,,,,,,magenta,cross
0.0,4.0,0.0,0.0,2.0,2.0,282.1130063384771,3.0,1.0,phase_1,,,,,,,,,,,,,blue,triangle
108.0,2.0,1.0,0.0,4.0,4.0,323.0275772511959,3.0,1.0,phase_1,,,,,,,,,,,,,white,diamond
200.0,3.0,2.0,0.0,4.0,4.0,573.3065027743578,3.0,1.0,phase_1,,,,,,,,,,,,,orange,I
225.0,7.0,2.0,1.0,3.0,3.0,408.1427399069071,3.0,1.0,phase_1,,,,,,,,,,,,,yellow,square
0.0,1.0,0.0,0.0,4.0,4.0,367.3521690070629,3.0,1.0,phase_1,,,,,,,,,,,,,magenta,cross
100.0,2.0,1.0,0.0,2.0,2.0,312.9882644861936,3.0,1.0,phase_1,,,,,,,,,,,,,white,diamond
0.0,2.0,0.0,0.0,3.0,3.0,417.7951067686081,3.0,1.0,phase_1,,,,,,,,,,,,,white,diamond
185.0,3.0,2.0,0.0,4.0,4.0,427.371721714735,3.0,1.0,phase_1,,,,,,,,,,,,,orange,I
93.0,2.0,1.0,0.0,2.0,2.0,266.7125705629587,3.0,1.0,phase_1,,,,,,,,,,,,,white,diamond
0.0,4.0,0.0,0.0,4.0,4.0,760.4057434946299,3.0,1.0,phase_1,,,,,,,,,,,,,blue,triangle
396.0,4.0,4.0,0.0,3.0,3.0,410.7237048447132,3.0,1.0,phase_1,,,,,,,,,,,,,blue,triangle
87.0,2.0,1.0,0.0,3.0,3.0,391.7673826217651,3.0,1.0,phase_1,,,,,,,,,,,,,white,diamond
45.0,1.0,0.5,0.0,3.0,3.0,316.442146897316,3.0,1.0,phase_1,,,,,,,,,,,,,magenta,cross
417.0,8.0,4.0,1.0,3.0,3.0,347.1870385110378,3.0,1.0,phase_1,,,,,,,,,,,,,green,hexagon
223.0,3.0,2.0,0.0,3.0,3.0,347.8786218911409,3.0,1.0,phase_1,,,,,,,,,,,,,orange,I
0.0,5.0,0.0,1.0,4.0,4.0,456.5136693418026,3.0,1.0,phase_1,,,,,,,,,,,,,gray,circle
387.0,8.0,4.0,1.0,1.0,1.0,381.3964258879423,3.0,1.0,phase_1,,,,,,,,,,,,,green,hexagon
48.0,5.0,0.5,1.0,1.0,1.0,397.6224325597286,3.0,1.0,phase_1,,,,,,,,,,,,,gray,circle
183.0,3.0,2.0,0.0,3.0,3.0,306.5420836210251,3.0,1.0,phase_1,,,,,,,,,,,,,orange,I
45.0,5.0,0.5,1.0,1.0,1.0,325.8837666362524,3.0,1.0,phase_1,,,,,,,,,,,,,gray,circle
45.0,1.0,0.5,0.0,2.0,2.0,295.6914473325014,3.0,1.0,phase_1,,,,,,,,,,,,,magenta,cross
0.0,5.0,0.0,1.0,3.0,3.0,340.4932208359241,3.0,1.0,phase_1,,,,,,,,,,,,,gray,circle
98.0,6.0,1.0,1.0,1.0,1.0,453.1908854842186,3.0,1.0,phase_1,,,,,,,,,,,,,cyan,flipped triangle
45.0,5.0,0.5,1.0,2.0,2.0,447.3168514668941,3.0,1.0,phase_1,,,,,,,,,,,,,gray,circle
106.0,2.0,1.0,0.0,4.0,4.0,635.0692585110664,3.0,1.0,phase_1,,,,,,,,,,,,,white,diamond
108.0,6.0,1.0,1.0,2.0,2.0,351.4291048049927,3.0,1.0,phase_1,,,,,,,,,,,,,cyan,flipped triangle
185.0,7.0,2.0,1.0,2.0,2.0,340.5429907143116,3.0,1.0,phase_1,,,,,,,,,,,,,yellow,square
384.0,4.0,4.0,0.0,2.0,2.0,356.3923351466656,3.0,1.0,phase_1,,,,,,,,,,,,,blue,triangle
95.0,6.0,1.0,1.0,2.0,2.0,262.0174307376146,3.0,1.0,phase_1,,,,,,,,,,,,,cyan,flipped triangle
0.0,3.0,0.0,0.0,2.0,2.0,378.593685105443,3.0,1.0,phase_1,,,,,,,,,,,,,orange,I
419.0,8.0,4.0,1.0,4.0,4.0,447.5338198244571,3.0,1.0,phase_1,,,,,,,,,,,,,green,hexagon
183.0,7.0,2.0,1.0,2.0,2.0,541.3093380630016,3.0,1.0,phase_1,,,,,,,,,,,,,yellow,square
184.0,3.0,2.0,0.0,4.0,4.0,586.8285652250051,3.0,1.0,phase_1,,,,,,,,,,,,,orange,I
0.0,6.0,0.0,1.0,1.0,1.0,484.9837198853493,3.0,1.0,phase_1,,,,,,,,,,,,,cyan,flipped triangle
195.0,7.0,2.0,1.0,3.0,3.0,389.6860964596271,3.0,1.0,phase_1,,,,,,,,,,,,,yellow,square
29.0,1.0,0.5,0.0,4.0,4.0,494.0797500312328,3.0,1.0,phase_1,,,,,,,,,,,,,magenta,cross
0.0,8.0,0.0,1.0,2.0,2.0,469.0601974725723,3.0,1.0,phase_1,,,,,,,,,,,,,green,hexagon
178.0,7.0,2.0,1.0,2.0,2.0,297.4943835288286,3.0,1.0,phase_1,,,,,,,,,,,,,yellow,square
0.0,7.0,0.0,1.0,3.0,3.0,382.6257362961769,3.0,1.0,phase_1,,,,,,,,,,,,,yellow,square
102.0,6.0,1.0,1.0,2.0,2.0,387.7039793878793,3.0,1.0,phase_1,,,,,,,,,,,,,cyan,flipped triangle
93.0,2.0,1.0,0.0,2.0,2.0,320.8839483559131,3.0,1.0,phase_1,,,,,,,,,,,,,white,diamond
211.0,3.0,2.0,0.0,1.0,1.0,492.6988594233989,3.0,1.0,phase_1,,,,,,,,,,,,,orange,I
206.0,7.0,2.0,1.0,2.0,2.0,321.0808634757995,3.0,1.0,phase_1,,,,,,,,,,,,,yellow,square
122.0,2.0,1.0,0.0,4.0,4.0,404.4776707887649,3.0,1.0,phase_1,,,,,,,,,,,,,white,diamond
86.0,2.0,1.0,0.0,1.0,1.0,427.1550811827183,3.0,1.0,phase_1,,,,,,,,,,,,,white,diamond
193.0,7.0,2.0,1.0,3.0,3.0,432.3602151125669,3.0,1.0,phase_1,,,,,,,,,,,,,yellow,square
43.0,5.0,0.5,1.0,2.0,2.0,955.6645266711712,3.0,1.0,phase_1,,,,,,,,,,,,,gray,circle
204.0,3.0,2.0,0.0,3.0,3.0,542.4686763435602,3.0,1.0,phase_1,,,,,,,,,,,,,orange,I
64.0,5.0,0.5,1.0,1.0,1.0,908.4832221269608,3.0,1.0,phase_1,,,,,,,,,,,,,gray,circle
0.0,7.0,0.0,1.0,1.0,1.0,432.1238789707422,3.0,1.0,phase_1,,,,,,,,,,,,,yellow,square
108.0,6.0,1.0,1.0,1.0,1.0,391.749408096075,3.0,1.0,phase_1,,,,,,,,,,,,,cyan,flipped triangle
218.0,3.0,2.0,0.0,2.0,2.0,268.1796420365572,3.0,1.0,phase_1,,,,,,,,,,,,,orange,I
42.0,5.0,0.5,1.0,4.0,4.0,767.9608389735222,3.0,1.0,phase_1,,,,,,,,,,,,,gray,circle
102.0,6.0,1.0,1.0,4.0,4.0,436.7699678987264,3.0,1.0,phase_1,,,,,,,,,,,,,cyan,flipped triangle
0.0,1.0,0.0,0.0,4.0,4.0,729.1266173124313,3.0,1.0,phase_1,,,,,,,,,,,,,magenta,cross
26.0,5.0,0.5,1.0,4.0,4.0,388.0540560930967,3.0,1.0,phase_1,,,,,,,,,,,,,gray,circle
210.0,7.0,2.0,1.0,4.0,4.0,379.7141183167696,3.0,1.0,phase_1,,,,,,,,,,,,,yellow,square
0.0,8.0,0.0,1.0,3.0,3.0,622.4870625883341,3.0,1.0,phase_1,,,,,,,,,,,,,green,hexagon
394.0,8.0,4.0,1.0,2.0,2.0,419.9234284460544,3.0,1.0,phase_1,,,,,,,,,,,,,green,hexagon
0.0,7.0,0.0,1.0,3.0,3.0,302.6046175509691,3.0,1.0,phase_1,,,,,,,,,,,,,yellow,square
111.0,2.0,1.0,0.0,3.0,3.0,302.446948364377,3.0,1.0,phase_1,,,,,,,,,,,,,white,diamond
0.0,2.0,0.0,0.0,4.0,4.0,618.3270160108805,3.0,1.0,phase_1,,,,,,,,,,,,,white,diamond
39.0,5.0,0.5,1.0,3.0,3.0,399.4952719658613,3.0,1.0,phase_1,,,,,,,,,,,,,gray,circle
112.0,2.0,1.0,0.0,2.0,2.0,265.2616146951914,3.0,1.0,phase_1,,,,,,,,,,,,,white,diamond
423.0,4.0,4.0,0.0,4.0,4.0,376.0497681796551,3.0,1.0,phase_1,,,,,,,,,,,,,blue,triangle
64.0,5.0,0.5,1.0,3.0,3.0,349.643537774682,3.0,1.0,phase_1,,,,,,,,,,,,,gray,circle
55.0,5.0,0.5,1.0,2.0,2.0,432.7501133084297,3.0,1.0,phase_1,,,,,,,,,,,,,gray,circle
107.0,6.0,1.0,1.0,2.0,2.0,310.7771556824446,3.0,1.0,phase_1,,,,,,,,,,,,,cyan,flipped triangle
383.0,4.0,4.0,0.0,3.0,3.0,329.5348212122917,3.0,1.0,phase_1,,,,,,,,,,,,,blue,triangle
187.0,3.0,2.0,0.0,1.0,1.0,527.9889144003391,3.0,1.0,phase_1,,,,,,,,,,,,,orange,I
42.0,1.0,0.5,0.0,2.0,2.0,392.0527417212724,4.0,1.0,phase_1,,,,,,,,,,,,,magenta,cross
0.0,6.0,0.0,1.0,3.0,3.0,302.7447666972875,4.0,1.0,phase_1,,,,,,,,,,,,,cyan,flipped triangle
64.0,1.0,0.5,0.0,1.0,1.0,318.4358533471823,4.0,2.0,phase_1,,,,,,,,,,,,,magenta,cross
0.0,3.0,0.0,0.0,2.0,2.0,370.1258674263954,4.0,1.0,phase_1,,,,,,,,,,,,,orange,I
105.0,2.0,1.0,0.0,4.0,4.0,504.01124358177185,4.0,1.0,phase_1,,,,,,,,,,,,,white,diamond
191.0,3.0,2.0,0.0,2.0,2.0,338.9476835727691,4.0,1.0,phase_1,,,,,,,,,,,,,orange,I
193.0,3.0,2.0,0.0,3.0,3.0,327.1306976675987,4.0,1.0,phase_1,,,,,,,,,,,,,orange,I
59.0,5.0,0.5,1.0,2.0,2.0,294.723205268383,4.0,1.0,phase_1,,,,,,,,,,,,,gray,circle
0.0,8.0,0.0,1.0,3.0,3.0,298.5148560255766,4.0,1.0,phase_1,,,,,,,,,,,,,green,hexagon
407.0,8.0,4.0,1.0,1.0,1.0,485.0042127072811,4.0,1.0,phase_1,,,,,,,,,,,,,green,hexagon
224.0,7.0,2.0,1.0,1.0,1.0,453.7930935621261,4.0,1.0,phase_1,,,,,,,,,,,,,yellow,square
191.0,3.0,2.0,0.0,4.0,4.0,350.6048545241356,4.0,1.0,phase_1,,,,,,,,,,,,,orange,I
381.0,4.0,4.0,0.0,1.0,1.0,387.4216862022877,4.0,1.0,phase_1,,,,,,,,,,,,,blue,triangle
400.0,4.0,4.0,0.0,4.0,4.0,408.6855743080377,4.0,1.0,phase_1,,,,,,,,,,,,,blue,triangle
65.0,5.0,0.5,1.0,2.0,2.0,278.186734765768,4.0,1.0,phase_1,,,,,,,,,,,,,gray,circle
206.0,7.0,2.0,1.0,2.0,2.0,289.7816766053438,4.0,1.0,phase_1,,,,,,,,,,,,,yellow,square
53.0,5.0,0.5,1.0,2.0,2.0,285.7541926205158,4.0,1.0,phase_1,,,,,,,,,,,,,gray,circle
417.0,4.0,4.0,0.0,1.0,1.0,484.7356807440519,4.0,1.0,phase_1,,,,,,,,,,,,,blue,triangle
418.0,8.0,4.0,1.0,1.0,1.0,322.2357276827097,4.0,1.0,phase_1,,,,,,,,,,,,,green,hexagon
201.0,3.0,2.0,0.0,3.0,3.0,284.7209926694631,4.0,1.0,phase_1,,,,,,,,,,,,,orange,I
378.0,8.0,4.0,1.0,2.0,2.0,395.1132073998451,4.0,1.0,phase_1,,,,,,,,,,,,,green,hexagon
193.0,3.0,2.0,0.0,1.0,1.0,343.1191444396972,4.0,1.0,phase_1,,,,,,,,,,,,,orange,I
103.0,6.0,1.0,1.0,3.0,3.0,375.5680434405803,4.0,2.0,phase_1,,,,,,,,,,,,,cyan,flipped triangle
411.0,8.0,4.0,1.0,3.0,3.0,572.2393803298473,4.0,1.0,phase_1,,,,,,,,,,,,,green,hexagon
67.0,5.0,0.5,1.0,4.0,4.0,455.961687490344,4.0,1.0,phase_1,,,,,,,,,,,,,gray,circle
386.0,4.0,4.0,0.0,1.0,1.0,309.2437665909529,4.0,1.0,phase_1,,,,,,,,,,,,,blue,triangle
383.0,8.0,4.0,1.0,4.0,4.0,345.6831239163875,4.0,1.0,phase_1,,,,,,,,,,,,,green,hexagon
0.0,6.0,0.0,1.0,2.0,2.0,374.49936196208,4.0,1.0,phase_1,,,,,,,,,,,,,cyan,flipped triangle
57.0,5.0,0.5,1.0,1.0,1.0,388.919573277235,4.0,1.0,phase_1,,,,,,,,,,,,,gray,circle
112.0,6.0,1.0,1.0,1.0,1.0,351.1787559837103,4.0,1.0,phase_1,,,,,,,,,,,,,cyan,flipped triangle
0.0,2.0,0.0,0.0,2.0,2.0,356.3543297350406,4.0,1.0,phase_1,,,,,,,,,,,,,white,diamond
414.0,4.0,4.0,0.0,4.0,4.0,330.6200448423624,4.0,1.0,phase_1,,,,,,,,,,,,,blue,triangle
67.0,1.0,0.5,0.0,2.0,2.0,334.2608790844679,4.0,1.0,phase_1,,,,,,,,,,,,,magenta,cross
77.0,6.0,1.0,1.0,1.0,1.0,374.1915635764599,4.0,1.0,phase_1,,,,,,,,,,,,,cyan,flipped triangle
375.0,4.0,4.0,0.0,1.0,1.0,391.4756495505571,4.0,1.0,phase_1,,,,,,,,,,,,,blue,triangle
409.0,8.0,4.0,1.0,2.0,2.0,318.3204960078001,4.0,1.0,phase_1,,,,,,,,,,,,,green,hexagon
411.0,4.0,4.0,0.0,4.0,4.0,388.2156480103731,4.0,1.0,phase_1,,,,,,,,,,,,,blue,triangle
53.0,1.0,0.5,0.0,4.0,4.0,359.9134460091591,4.0,1.0,phase_1,,,,,,,,,,,,,magenta,cross
393.0,8.0,4.0,1.0,2.0,2.0,387.3181603848934,4.0,1.0,phase_1,,,,,,,,,,,,,green,hexagon
77.0,2.0,1.0,0.0,4.0,4.0,418.0505666881799,4.0,1.0,phase_1,,,,,,,,,,,,,white,diamond
0.0,5.0,0.0,1.0,1.0,1.0,394.7487529367208,4.0,1.0,phase_1,,,,,,,,,,,,,gray,circle
407.0,4.0,4.0,0.0,1.0,1.0,803.0092157423496,4.0,1.0,phase_1,,,,,,,,,,,,,blue,triangle
402.0,4.0,4.0,0.0,1.0,1.0,484.2036329209804,4.0,1.0,phase_1,,,,,,,,,,,,,blue,triangle
205.0,7.0,2.0,1.0,2.0,2.0,440.6536929309368,4.0,1.0,phase_1,,,,,,,,,,,,,yellow,square
223.0,7.0,2.0,1.0,2.0,2.0,431.9108445197344,4.0,1.0,phase_1,,,,,,,,,,,,,yellow,square
197.0,3.0,2.0,0.0,1.0,1.0,522.5800443440676,4.0,1.0,phase_1,,,,,,,,,,,,,orange,I
62.0,1.0,0.5,0.0,4.0,4.0,583.4633689373732,4.0,1.0,phase_1,,,,,,,,,,,,,magenta,cross
58.0,5.0,0.5,1.0,2.0,2.0,325.5799207836389,4.0,1.0,phase_1,,,,,,,,,,,,,gray,circle
178.0,3.0,2.0,0.0,1.0,1.0,403.6174044013023,4.0,1.0,phase_1,,,,,,,,,,,,,orange,I
409.0,8.0,4.0,1.0,3.0,3.0,641.2859335541725,4.0,1.0,phase_1,,,,,,,,,,,,,green,hexagon
0.0,1.0,0.0,0.0,3.0,3.0,716.5804598480463,4.0,1.0,phase_1,,,,,,,,,,,,,magenta,cross
218.0,7.0,2.0,1.0,3.0,3.0,358.6720749735832,4.0,1.0,phase_1,,,,,,,,,,,,,yellow,square
25.0,5.0,0.5,1.0,4.0,4.0,590.6065870076418,4.0,1.0,phase_1,,,,,,,,,,,,,gray,circle
30.0,5.0,0.5,1.0,4.0,4.0,476.2639515101909,4.0,1.0,phase_1,,,,,,,,,,,,,gray,circle
122.0,6.0,1.0,1.0,4.0,4.0,478.6044768989086,4.0,1.0,phase_1,,,,,,,,,,,,,cyan,flipped triangle
0.0,4.0,0.0,0.0,2.0,2.0,314.1953386366367,4.0,1.0,phase_1,,,,,,,,,,,,,blue,triangle
62.0,1.0,0.5,0.0,1.0,1.0,528.1233806163073,4.0,1.0,phase_1,,,,,,,,,,,,,magenta,cross
197.0,7.0,2.0,1.0,4.0,4.0,419.518556445837,4.0,1.0,phase_1,,,,,,,,,,,,,yellow,square
42.0,1.0,0.5,0.0,3.0,3.0,523.228608071804,4.0,1.0,phase_1,,,,,,,,,,,,,magenta,cross
53.0,5.0,0.5,1.0,3.0,3.0,647.831667214632,4.0,1.0,phase_1,,,,,,,,,,,,,gray,circle
60.0,5.0,0.5,1.0,2.0,2.0,552.5485165417194,4.0,1.0,phase_1,,,,,,,,,,,,,gray,circle
396.0,8.0,4.0,1.0,4.0,4.0,328.7316970527172,4.0,1.0,phase_1,,,,,,,,,,,,,green,hexagon
71.0,5.0,0.5,1.0,3.0,3.0,356.5971199423074,4.0,1.0,phase_1,,,,,,,,,,,,,gray,circle
123.0,6.0,1.0,1.0,3.0,3.0,547.1768360584974,4.0,1.0,phase_1,,,,,,,,,,,,,cyan,flipped triangle
71.0,5.0,0.5,1.0,4.0,4.0,589.7740889340639,4.0,1.0,phase_1,,,,,,,,,,,,,gray,circle
415.0,8.0,4.0,1.0,1.0,1.0,338.4302947670221,4.0,1.0,phase_1,,,,,,,,,,,,,green,hexagon
0.0,1.0,0.0,0.0,4.0,4.0,352.819100022316,4.0,1.0,phase_1,,,,,,,,,,,,,magenta,cross
31.0,1.0,0.5,0.0,2.0,2.0,306.4693938940763,4.0,1.0,phase_1,,,,,,,,,,,,,magenta,cross
71.0,1.0,0.5,0.0,4.0,4.0,449.2223542183637,4.0,1.0,phase_1,,,,,,,,,,,,,magenta,cross
114.0,6.0,1.0,1.0,1.0,1.0,914.6949611604214,4.0,1.0,phase_1,,,,,,,,,,,,,cyan,flipped triangle
48.0,1.0,0.5,0.0,2.0,2.0,386.1076794564724,4.0,1.0,phase_1,,,,,,,,,,,,,magenta,cross
45.0,1.0,0.5,0.0,1.0,1.0,375.2214070409536,4.0,1.0,phase_1,,,,,,,,,,,,,magenta,cross
0.0,6.0,0.0,1.0,1.0,1.0,394.836651161313,4.0,1.0,phase_1,,,,,,,,,,,,,cyan,flipped triangle
62.0,5.0,0.5,1.0,2.0,2.0,447.724724188447,4.0,1.0,phase_1,,,,,,,,,,,,,gray,circle
0.0,7.0,0.0,1.0,1.0,1.0,346.5918414294719,4.0,1.0,phase_1,,,,,,,,,,,,,yellow,square
106.0,6.0,1.0,1.0,4.0,4.0,323.0550792068243,4.0,1.0,phase_1,,,,,,,,,,,,,cyan,flipped triangle
200.0,7.0,2.0,1.0,1.0,1.0,301.8956109881401,4.0,1.0,phase_1,,,,,,,,,,,,,yellow,square
405.0,4.0,4.0,0.0,3.0,3.0,347.4291358143091,4.0,1.0,phase_1,,,,,,,,,,,,,blue,triangle
115.0,6.0,1.0,1.0,3.0,3.0,413.4392756968736,4.0,1.0,phase_1,,,,,,,,,,,,,cyan,flipped triangle
98.0,2.0,1.0,0.0,2.0,2.0,453.5463452339172,4.0,1.0,phase_1,,,,,,,,,,,,,white,diamond
43.0,1.0,0.5,0.0,4.0,4.0,390.7846622169018,4.0,1.0,phase_1,,,,,,,,,,,,,magenta,cross
0.0,7.0,0.0,1.0,1.0,1.0,627.4812389165163,4.0,1.0,phase_1,,,,,,,,,,,,,yellow,square
191.0,7.0,2.0,1.0,3.0,3.0,416.2684753537178,4.0,1.0,phase_1,,,,,,,,,,,,,yellow,square
414.0,4.0,4.0,0.0,4.0,4.0,383.8403448462486,4.0,1.0,phase_1,,,,,,,,,,,,,blue,triangle
187.0,7.0,2.0,1.0,3.0,3.0,396.7818822711706,4.0,1.0,phase_1,,,,,,,,,,,,,yellow,square
0.0,8.0,0.0,1.0,4.0,4.0,432.7892288565635,4.0,1.0,phase_1,,,,,,,,,,,,,green,hexagon
195.0,3.0,2.0,0.0,1.0,1.0,326.611790806055,4.0,1.0,phase_1,,,,,,,,,,,,,orange,I
60.0,1.0,0.5,0.0,2.0,2.0,539.2019394785166,4.0,1.0,phase_1,,,,,,,,,,,,,magenta,cross
187.0,7.0,2.0,1.0,1.0,1.0,333.5629161447286,4.0,1.0,phase_1,,,,,,,,,,,,,yellow,square
414.0,8.0,4.0,1.0,1.0,1.0,364.5059037953615,4.0,1.0,phase_1,,,,,,,,,,,,,green,hexagon
119.0,6.0,1.0,1.0,2.0,2.0,660.9576065093279,4.0,1.0,phase_1,,,,,,,,,,,,,cyan,flipped triangle
396.0,8.0,4.0,1.0,2.0,2.0,330.3518928587436,4.0,1.0,phase_1,,,,,,,,,,,,,green,hexagon
384.0,8.0,4.0,1.0,1.0,1.0,352.0022965967655,4.0,1.0,phase_1,,,,,,,,,,,,,green,hexagon
122.0,6.0,1.0,1.0,4.0,4.0,460.8734156936407,4.0,1.0,phase_1,,,,,,,,,,,,,cyan,flipped triangle
102.0,2.0,1.0,0.0,1.0,1.0,416.6978765279054,4.0,1.0,phase_1,,,,,,,,,,,,,white,diamond
0.0,3.0,0.0,0.0,1.0,1.0,318.5445554554462,4.0,1.0,phase_1,,,,,,,,,,,,,orange,I
424.0,8.0,4.0,1.0,2.0,2.0,289.7535096853971,4.0,1.0,phase_1,,,,,,,,,,,,,green,hexagon
58.0,1.0,0.5,0.0,3.0,3.0,311.3965522497892,4.0,1.0,phase_1,,,,,,,,,,,,,magenta,cross
377.0,4.0,4.0,0.0,3.0,3.0,338.7177921831608,4.0,1.0,phase_1,,,,,,,,,,,,,blue,triangle
0.0,5.0,0.0,1.0,3.0,3.0,521.297873929143,4.0,1.0,phase_1,,,,,,,,,,,,,gray,circle
0.0,4.0,4.0,0.0,6.0,6.0,522.8443890810013,1.0,1.0,phase_2,go,250.0,250.0,1.0,,,,,,,,,blue,triangle
0.0,8.0,4.0,1.0,5.0,5.0,510.6663666665554,1.0,1.0,phase_2,stop,250.0,250.0,3.0,,,,,,,,,green,hexagon
0.0,5.0,0.5,1.0,6.0,6.0,426.0479733347893,1.0,1.0,phase_2,stop,200.0,250.0,3.0,,,,,,,,,gray,circle
0.0,2.0,1.0,0.0,6.0,6.0,583.4441315382719,1.0,1.0,phase_2,go,200.0,200.0,1.0,,,,,,,,,white,diamond
0.0,2.0,1.0,0.0,6.0,6.0,463.4198397397995,1.0,1.0,phase_2,go,200.0,200.0,1.0,,,,,,,,,white,diamond
0.0,8.0,4.0,1.0,5.0,0.0,0.0,1.0,1.0,phase_2,stop,200.0,200.0,4.0,,,,,,,,,green,hexagon
0.0,3.0,2.0,0.0,5.0,5.0,405.6122545152902,1.0,1.0,phase_2,go,250.0,200.0,1.0,,,,,,,,,orange,I
0.0,3.0,2.0,0.0,5.0,5.0,768.820021301508,1.0,1.0,phase_2,go,250.0,200.0,1.0,,,,,,,,,orange,I
0.0,6.0,1.0,1.0,5.0,5.0,823.2335355132818,1.0,1.0,phase_2,go,250.0,200.0,1.0,,,,,,,,,cyan,flipped triangle
0.0,6.0,1.0,1.0,6.0,6.0,407.2211049497127,1.0,1.0,phase_2,stop,250.0,200.0,3.0,,,,,,,,,cyan,flipped triangle
0.0,3.0,2.0,0.0,5.0,5.0,643.5782723128796,1.0,1.0,phase_2,go,250.0,150.0,1.0,,,,,,,,,orange,I
0.0,8.0,4.0,1.0,5.0,5.0,631.0182102024555,1.0,1.0,phase_2,go,250.0,150.0,1.0,,,,,,,,,green,hexagon
0.0,8.0,4.0,1.0,6.0,0.0,0.0,1.0,1.0,phase_2,stop,250.0,150.0,4.0,,,,,,,,,green,hexagon
0.0,1.0,0.5,0.0,5.0,0.0,0.0,1.0,1.0,phase_2,go,250.0,200.0,5.0,,,,,,,,,magenta,cross
0.0,4.0,4.0,0.0,6.0,6.0,737.3304516077042,1.0,1.0,phase_2,go,250.0,200.0,1.0,,,,,,,,,blue,triangle
0.0,5.0,0.5,1.0,5.0,0.0,0.0,1.0,1.0,phase_2,stop,250.0,200.0,4.0,,,,,,,,,gray,circle
0.0,5.0,0.5,1.0,6.0,0.0,0.0,1.0,1.0,phase_2,stop,300.0,200.0,4.0,,,,,,,,,gray,circle
0.0,1.0,0.5,0.0,5.0,5.0,578.5530041903257,1.0,1.0,phase_2,go,300.0,250.0,1.0,,,,,,,,,magenta,cross
0.0,8.0,4.0,1.0,5.0,0.0,0.0,1.0,1.0,phase_2,stop,300.0,250.0,4.0,,,,,,,,,green,hexagon
0.0,6.0,1.0,1.0,6.0,0.0,0.0,1.0,1.0,phase_2,stop,350.0,250.0,4.0,,,,,,,,,cyan,flipped triangle
0.0,2.0,1.0,0.0,5.0,5.0,688.1277449429035,1.0,1.0,phase_2,go,350.0,300.0,1.0,,,,,,,,,white,diamond
0.0,3.0,2.0,0.0,6.0,6.0,711.1997716128826,1.0,1.0,phase_2,go,350.0,300.0,1.0,,,,,,,,,orange,I
0.0,7.0,2.0,1.0,6.0,0.0,0.0,1.0,1.0,phase_2,stop,350.0,300.0,4.0,,,,,,,,,yellow,square
0.0,5.0,0.5,1.0,5.0,0.0,0.0,1.0,1.0,phase_2,stop,350.0,350.0,4.0,,,,,,,,,gray,circle
0.0,3.0,2.0,0.0,6.0,6.0,727.2022720426321,1.0,1.0,phase_2,go,400.0,350.0,1.0,,,,,,,,,orange,I
0.0,7.0,2.0,1.0,5.0,0.0,0.0,1.0,1.0,phase_2,stop,400.0,350.0,4.0,,,,,,,,,yellow,square
0.0,6.0,1.0,1.0,6.0,0.0,0.0,1.0,1.0,phase_2,stop,450.0,350.0,4.0,,,,,,,,,cyan,flipped triangle
0.0,4.0,4.0,0.0,6.0,6.0,586.3456018269062,1.0,1.0,phase_2,go,450.0,400.0,1.0,,,,,,,,,blue,triangle
0.0,5.0,0.5,1.0,5.0,5.0,778.4489300101995,1.0,1.0,phase_2,go,450.0,400.0,1.0,,,,,,,,,gray,circle
0.0,1.0,0.5,0.0,5.0,5.0,756.9186594337225,1.0,1.0,phase_2,go,450.0,400.0,1.0,,,,,,,,,magenta,cross
0.0,5.0,0.5,1.0,5.0,0.0,0.0,1.0,1.0,phase_2,stop,450.0,400.0,4.0,,,,,,,,,gray,circle
0.0,1.0,0.5,0.0,6.0,6.0,579.1655778884888,1.0,1.0,phase_2,go,500.0,400.0,1.0,,,,,,,,,magenta,cross
0.0,3.0,2.0,0.0,5.0,5.0,818.5877334326506,1.0,1.0,phase_2,go,500.0,400.0,1.0,,,,,,,,,orange,I
0.0,5.0,0.5,1.0,6.0,0.0,0.0,1.0,1.0,phase_2,stop,500.0,400.0,4.0,,,,,,,,,gray,circle
0.0,3.0,2.0,0.0,5.0,5.0,1058.3656672388315,1.0,1.0,phase_2,go,500.0,450.0,1.0,,,,,,,,,orange,I
0.0,5.0,0.5,1.0,5.0,0.0,0.0,1.0,1.0,phase_2,stop,500.0,450.0,4.0,,,,,,,,,gray,circle
0.0,8.0,4.0,1.0,5.0,5.0,714.952128008008,2.0,1.0,phase_2,stop,550.0,450.0,3.0,,,,,,,,,green,hexagon
0.0,2.0,1.0,0.0,6.0,6.0,842.5373006612062,2.0,1.0,phase_2,go,500.0,450.0,1.0,,,,,,,,,white,diamond
0.0,2.0,1.0,0.0,6.0,6.0,555.1353357732296,2.0,1.0,phase_2,go,500.0,450.0,1.0,,,,,,,,,white,diamond
0.0,5.0,0.5,1.0,5.0,0.0,0.0,2.0,1.0,phase_2,stop,500.0,450.0,4.0,,,,,,,,,gray,circle
0.0,5.0,0.5,1.0,5.0,5.0,624.2557801306248,2.0,1.0,phase_2,go,550.0,450.0,1.0,,,,,,,,,gray,circle
0.0,7.0,2.0,1.0,6.0,6.0,559.1524206101894,2.0,1.0,phase_2,stop,550.0,450.0,3.0,,,,,,,,,yellow,square
0.0,5.0,0.5,1.0,6.0,0.0,0.0,2.0,1.0,phase_2,stop,550.0,400.0,4.0,,,,,,,,,gray,circle
0.0,8.0,4.0,1.0,6.0,6.0,594.2163411527872,2.0,1.0,phase_2,go,550.0,450.0,1.0,,,,,,,,,green,hexagon
0.0,3.0,2.0,0.0,6.0,6.0,608.1559062004089,2.0,1.0,phase_2,go,550.0,450.0,1.0,,,,,,,,,orange,I
0.0,4.0,4.0,0.0,6.0,6.0,997.5959695875644,2.0,1.0,phase_2,go,550.0,450.0,1.0,,,,,,,,,blue,triangle
0.0,6.0,1.0,1.0,5.0,5.0,599.1584435105324,2.0,1.0,phase_2,stop,550.0,450.0,3.0,,,,,,,,,cyan,flipped triangle
0.0,7.0,2.0,1.0,6.0,0.0,0.0,2.0,1.0,phase_2,stop,500.0,450.0,4.0,,,,,,,,,yellow,square
0.0,4.0,4.0,0.0,5.0,5.0,879.3137352913618,2.0,1.0,phase_2,go,500.0,500.0,1.0,,,,,,,,,blue,triangle
0.0,1.0,0.5,0.0,5.0,5.0,1091.2224072963,2.0,1.0,phase_2,go,500.0,500.0,1.0,,,,,,,,,magenta,cross
0.0,1.0,0.5,0.0,5.0,5.0,587.572518736124,2.0,1.0,phase_2,go,500.0,500.0,1.0,,,,,,,,,magenta,cross
0.0,4.0,4.0,0.0,6.0,6.0,666.482251137495,2.0,1.0,phase_2,go,500.0,500.0,1.0,,,,,,,,,blue,triangle
0.0,8.0,4.0,1.0,6.0,6.0,569.2868959158659,2.0,1.0,phase_2,stop,500.0,500.0,3.0,,,,,,,,,green,hexagon
0.0,7.0,2.0,1.0,5.0,5.0,1233.9821234345436,2.0,1.0,phase_2,go,500.0,450.0,1.0,,,,,,,,,yellow,square
0.0,1.0,0.5,0.0,6.0,6.0,811.6850554943085,2.0,1.0,phase_2,go,500.0,450.0,1.0,,,,,,,,,magenta,cross
0.0,4.0,4.0,0.0,5.0,5.0,939.3106419593096,2.0,1.0,phase_2,go,500.0,450.0,1.0,,,,,,,,,blue,triangle
0.0,4.0,4.0,0.0,6.0,6.0,391.9663447886705,2.0,1.0,phase_2,go,500.0,450.0,1.0,,,,,,,,,blue,triangle
0.0,4.0,4.0,0.0,5.0,5.0,744.3089820444584,2.0,1.0,phase_2,go,500.0,450.0,1.0,,,,,,,,,blue,triangle
0.0,1.0,0.5,0.0,6.0,6.0,590.9961313009262,2.0,1.0,phase_2,go,500.0,450.0,1.0,,,,,,,,,magenta,cross
0.0,3.0,2.0,0.0,5.0,5.0,727.9996518045664,2.0,1.0,phase_2,go,500.0,450.0,1.0,,,,,,,,,orange,I
0.0,7.0,2.0,1.0,5.0,0.0,0.0,2.0,1.0,phase_2,stop,500.0,450.0,4.0,,,,,,,,,yellow,square
0.0,4.0,4.0,0.0,6.0,6.0,615.3398118913174,2.0,1.0,phase_2,go,550.0,450.0,1.0,,,,,,,,,blue,triangle
0.0,1.0,0.5,0.0,6.0,0.0,0.0,2.0,1.0,phase_2,go,550.0,450.0,5.0,,,,,,,,,magenta,cross
0.0,7.0,2.0,1.0,5.0,0.0,0.0,2.0,1.0,phase_2,stop,550.0,450.0,4.0,,,,,,,,,yellow,square
0.0,5.0,0.5,1.0,6.0,6.0,318.1053604930639,2.0,1.0,phase_2,stop,600.0,450.0,3.0,,,,,,,,,gray,circle
0.0,2.0,1.0,0.0,5.0,5.0,604.9546245485544,2.0,1.0,phase_2,go,600.0,400.0,1.0,,,,,,,,,white,diamond
0.0,4.0,4.0,0.0,5.0,5.0,930.5795952677728,2.0,1.0,phase_2,go,600.0,400.0,1.0,,,,,,,,,blue,triangle
0.0,2.0,1.0,0.0,6.0,6.0,772.9734797030687,2.0,1.0,phase_2,go,600.0,400.0,1.0,,,,,,,,,white,diamond
0.0,4.0,4.0,0.0,5.0,5.0,834.9909894168377,2.0,1.0,phase_2,go,600.0,400.0,1.0,,,,,,,,,blue,triangle
0.0,3.0,2.0,0.0,5.0,5.0,584.0221829712391,2.0,1.0,phase_2,go,600.0,400.0,1.0,,,,,,,,,orange,I
0.0,7.0,2.0,1.0,6.0,0.0,0.0,2.0,1.0,phase_2,stop,600.0,400.0,4.0,,,,,,,,,yellow,square
0.0,3.0,2.0,0.0,6.0,6.0,633.2875099033117,2.0,1.0,phase_2,go,600.0,450.0,1.0,,,,,,,,,orange,I
0.0,3.0,2.0,0.0,6.0,0.0,0.0,3.0,1.0,phase_2,go,600.0,450.0,5.0,,,,,,,,,orange,I
0.0,8.0,4.0,1.0,6.0,6.0,426.1413179337978,3.0,1.0,phase_2,stop,600.0,450.0,3.0,,,,,,,,,green,hexagon
0.0,2.0,1.0,0.0,5.0,5.0,487.5928964465856,3.0,1.0,phase_2,go,600.0,400.0,1.0,,,,,,,,,white,diamond
0.0,3.0,2.0,0.0,6.0,6.0,845.5422632396221,3.0,1.0,phase_2,go,600.0,400.0,1.0,,,,,,,,,orange,I
0.0,1.0,0.5,0.0,5.0,5.0,710.2836258709431,3.0,1.0,phase_2,go,600.0,400.0,1.0,,,,,,,,,magenta,cross
0.0,6.0,1.0,1.0,6.0,6.0,479.645611718297,3.0,1.0,phase_2,go,600.0,400.0,1.0,,,,,,,,,cyan,flipped triangle
0.0,7.0,2.0,1.0,5.0,5.0,334.1245390474796,3.0,1.0,phase_2,stop,600.0,400.0,3.0,,,,,,,,,yellow,square
0.0,4.0,4.0,0.0,5.0,5.0,685.7912726700306,3.0,1.0,phase_2,go,550.0,400.0,1.0,,,,,,,,,blue,triangle
0.0,3.0,2.0,0.0,5.0,5.0,524.3164766579866,3.0,1.0,phase_2,go,550.0,400.0,1.0,,,,,,,,,orange,I
0.0,4.0,4.0,0.0,5.0,5.0,323.2499342411756,3.0,1.0,phase_2,go,550.0,400.0,1.0,,,,,,,,,blue,triangle
0.0,1.0,0.5,0.0,5.0,5.0,339.7699799388647,3.0,1.0,phase_2,go,550.0,400.0,1.0,,,,,,,,,magenta,cross
0.0,8.0,4.0,1.0,6.0,6.0,298.1789540499449,3.0,1.0,phase_2,go,550.0,400.0,1.0,,,,,,,,,green,hexagon
0.0,2.0,1.0,0.0,6.0,6.0,306.2425460666418,3.0,1.0,phase_2,go,550.0,400.0,1.0,,,,,,,,,white,diamond
0.0,5.0,0.5,1.0,6.0,6.0,329.4932693243027,3.0,1.0,phase_2,stop,550.0,400.0,3.0,,,,,,,,,gray,circle
0.0,6.0,1.0,1.0,6.0,0.0,0.0,3.0,1.0,phase_2,stop,550.0,350.0,4.0,,,,,,,,,cyan,flipped triangle
0.0,5.0,0.5,1.0,6.0,0.0,0.0,3.0,1.0,phase_2,stop,550.0,400.0,4.0,,,,,,,,,gray,circle
0.0,1.0,0.5,0.0,5.0,5.0,582.0007994771004,3.0,1.0,phase_2,go,550.0,450.0,1.0,,,,,,,,,magenta,cross
0.0,7.0,2.0,1.0,6.0,0.0,0.0,3.0,1.0,phase_2,stop,550.0,450.0,4.0,,,,,,,,,yellow,square
0.0,3.0,2.0,0.0,6.0,6.0,590.9486040472984,3.0,1.0,phase_2,go,550.0,500.0,1.0,,,,,,,,,orange,I
0.0,5.0,0.5,1.0,6.0,6.0,444.9165239930153,3.0,1.0,phase_2,go,550.0,500.0,1.0,,,,,,,,,gray,circle
0.0,3.0,2.0,0.0,5.0,5.0,556.4170330762863,3.0,1.0,phase_2,go,550.0,500.0,1.0,,,,,,,,,orange,I
0.0,5.0,0.5,1.0,6.0,6.0,387.3990215361118,3.0,1.0,phase_2,go,550.0,500.0,1.0,,,,,,,,,gray,circle
0.0,5.0,0.5,1.0,5.0,5.0,595.6560913473368,3.0,1.0,phase_2,stop,550.0,500.0,3.0,,,,,,,,,gray,circle
0.0,6.0,1.0,1.0,5.0,5.0,749.7909795492887,3.0,1.0,phase_2,go,500.0,500.0,1.0,,,,,,,,,cyan,flipped triangle
0.0,5.0,0.5,1.0,6.0,6.0,410.0940003991127,3.0,1.0,phase_2,stop,500.0,500.0,3.0,,,,,,,,,gray,circle
0.0,7.0,2.0,1.0,6.0,6.0,409.5915090292692,3.0,1.0,phase_2,stop,500.0,450.0,3.0,,,,,,,,,yellow,square
0.0,7.0,2.0,1.0,5.0,0.0,0.0,3.0,1.0,phase_2,stop,500.0,400.0,4.0,,,,,,,,,yellow,square
0.0,1.0,0.5,0.0,6.0,6.0,720.0297303497791,3.0,1.0,phase_2,go,550.0,400.0,1.0,,,,,,,,,magenta,cross
0.0,8.0,4.0,1.0,6.0,6.0,447.3427440971136,3.0,1.0,phase_2,stop,550.0,400.0,3.0,,,,,,,,,green,hexagon
0.0,6.0,1.0,1.0,6.0,0.0,0.0,3.0,1.0,phase_2,stop,550.0,350.0,4.0,,,,,,,,,cyan,flipped triangle
0.0,7.0,2.0,1.0,6.0,6.0,434.0739883482456,3.0,1.0,phase_2,stop,550.0,400.0,3.0,,,,,,,,,yellow,square
0.0,4.0,4.0,0.0,5.0,5.0,990.3913661837578,3.0,1.0,phase_2,go,550.0,350.0,1.0,,,,,,,,,blue,triangle
0.0,7.0,2.0,1.0,6.0,0.0,0.0,3.0,1.0,phase_2,stop,550.0,350.0,4.0,,,,,,,,,yellow,square
0.0,2.0,1.0,0.0,5.0,5.0,855.4339688271284,3.0,1.0,phase_2,go,550.0,400.0,1.0,,,,,,,,,white,diamond
0.0,8.0,4.0,1.0,6.0,0.0,0.0,3.0,1.0,phase_2,stop,550.0,400.0,4.0,,,,,,,,,green,hexagon
0.0,4.0,4.0,0.0,5.0,5.0,365.4229585081339,3.0,1.0,phase_2,go,550.0,450.0,1.0,,,,,,,,,blue,triangle
0.0,3.0,2.0,0.0,6.0,6.0,828.9957102388144,4.0,1.0,phase_2,go,550.0,450.0,1.0,,,,,,,,,orange,I
0.0,1.0,0.5,0.0,5.0,5.0,347.459614276886,4.0,1.0,phase_2,go,550.0,450.0,1.0,,,,,,,,,magenta,cross
0.0,4.0,4.0,0.0,5.0,5.0,417.8861770778894,4.0,1.0,phase_2,go,550.0,450.0,1.0,,,,,,,,,blue,triangle
0.0,2.0,1.0,0.0,5.0,5.0,359.2421375215053,4.0,1.0,phase_2,go,550.0,450.0,1.0,,,,,,,,,white,diamond
0.0,1.0,0.5,0.0,6.0,6.0,631.629204377532,4.0,1.0,phase_2,go,550.0,450.0,1.0,,,,,,,,,magenta,cross
0.0,6.0,1.0,1.0,5.0,5.0,614.3167838454247,4.0,1.0,phase_2,stop,550.0,450.0,3.0,,,,,,,,,cyan,flipped triangle
0.0,7.0,2.0,1.0,5.0,5.0,639.8174874484539,4.0,1.0,phase_2,stop,500.0,450.0,3.0,,,,,,,,,yellow,square
0.0,1.0,0.5,0.0,6.0,6.0,552.5994878262281,4.0,1.0,phase_2,go,450.0,450.0,1.0,,,,,,,,,magenta,cross
0.0,3.0,2.0,0.0,6.0,6.0,560.0130092352629,4.0,1.0,phase_2,go,450.0,450.0,1.0,,,,,,,,,orange,I
0.0,5.0,0.5,1.0,6.0,6.0,340.504327788949,4.0,1.0,phase_2,go,450.0,450.0,1.0,,,,,,,,,gray,circle
0.0,6.0,1.0,1.0,5.0,5.0,478.2949574291706,4.0,1.0,phase_2,stop,450.0,450.0,3.0,,,,,,,,,cyan,flipped triangle
0.0,7.0,2.0,1.0,5.0,5.0,691.5371622890234,4.0,1.0,phase_2,go,400.0,450.0,1.0,,,,,,,,,yellow,square
0.0,5.0,0.5,1.0,5.0,5.0,467.6340781152248,4.0,1.0,phase_2,stop,400.0,450.0,3.0,,,,,,,,,gray,circle
0.0,6.0,1.0,1.0,6.0,6.0,313.8687256723642,4.0,1.0,phase_2,go,350.0,450.0,1.0,,,,,,,,,cyan,flipped triangle
0.0,4.0,4.0,0.0,6.0,6.0,497.0539137721061,4.0,1.0,phase_2,go,350.0,450.0,1.0,,,,,,,,,blue,triangle
0.0,6.0,1.0,1.0,5.0,0.0,0.0,4.0,1.0,phase_2,stop,350.0,450.0,4.0,,,,,,,,,cyan,flipped triangle
0.0,7.0,2.0,1.0,6.0,6.0,618.5989957302809,4.0,1.0,phase_2,stop,400.0,450.0,3.0,,,,,,,,,yellow,square
0.0,1.0,0.5,0.0,5.0,5.0,665.1760991662741,4.0,1.0,phase_2,go,400.0,400.0,1.0,,,,,,,,,magenta,cross
0.0,4.0,4.0,0.0,5.0,5.0,545.2972687780857,4.0,1.0,phase_2,go,400.0,400.0,1.0,,,,,,,,,blue,triangle
0.0,8.0,4.0,1.0,6.0,6.0,374.5528738945722,4.0,1.0,phase_2,stop,400.0,400.0,3.0,,,,,,,,,green,hexagon
0.0,8.0,4.0,1.0,5.0,0.0,0.0,4.0,1.0,phase_2,stop,400.0,350.0,4.0,,,,,,,,,green,hexagon
0.0,2.0,1.0,0.0,6.0,6.0,702.4143692106009,4.0,1.0,phase_2,go,450.0,350.0,1.0,,,,,,,,,white,diamond
0.0,4.0,4.0,0.0,6.0,6.0,559.5520064234734,4.0,1.0,phase_2,go,450.0,350.0,1.0,,,,,,,,,blue,triangle
0.0,5.0,0.5,1.0,5.0,0.0,0.0,4.0,1.0,phase_2,stop,450.0,350.0,4.0,,,,,,,,,gray,circle
0.0,3.0,2.0,0.0,6.0,6.0,652.4113602936268,4.0,1.0,phase_2,go,500.0,350.0,1.0,,,,,,,,,orange,I
0.0,5.0,0.5,1.0,5.0,0.0,0.0,4.0,1.0,phase_2,stop,500.0,350.0,4.0,,,,,,,,,gray,circle
0.0,2.0,1.0,0.0,6.0,6.0,626.6127191483974,4.0,1.0,phase_2,go,550.0,350.0,1.0,,,,,,,,,white,diamond
0.0,8.0,4.0,1.0,5.0,0.0,0.0,4.0,1.0,phase_2,stop,550.0,350.0,4.0,,,,,,,,,green,hexagon
0.0,2.0,1.0,0.0,5.0,5.0,921.7497929930688,4.0,1.0,phase_2,go,600.0,350.0,1.0,,,,,,,,,white,diamond
0.0,5.0,0.5,1.0,6.0,6.0,592.7667804062366,4.0,1.0,phase_2,go,600.0,350.0,1.0,,,,,,,,,gray,circle
0.0,2.0,1.0,0.0,6.0,6.0,504.5399609953165,4.0,1.0,phase_2,go,600.0,350.0,1.0,,,,,,,,,white,diamond
0.0,8.0,4.0,1.0,6.0,0.0,0.0,4.0,1.0,phase_2,stop,600.0,350.0,4.0,,,,,,,,,green,hexagon
0.0,5.0,0.5,1.0,5.0,5.0,554.5248426496983,4.0,1.0,phase_2,stop,600.0,400.0,3.0,,,,,,,,,gray,circle
0.0,2.0,1.0,0.0,6.0,6.0,606.795871630311,4.0,1.0,phase_2,go,550.0,400.0,1.0,,,,,,,,,white,diamond
0.0,8.0,4.0,1.0,5.0,0.0,0.0,4.0,1.0,phase_2,stop,550.0,400.0,4.0,,,,,,,,,green,hexagon
0.0,8.0,4.0,1.0,5.0,0.0,0.0,4.0,1.0,phase_2,stop,600.0,400.0,4.0,,,,,,,,,green,hexagon
0.0,7.0,2.0,1.0,5.0,5.0,648.6900467425585,5.0,1.0,phase_2,go,650.0,400.0,1.0,,,,,,,,,yellow,square
0.0,8.0,4.0,1.0,5.0,5.0,400.5747623741627,5.0,1.0,phase_2,stop,650.0,400.0,3.0,,,,,,,,,green,hexagon
0.0,1.0,0.5,0.0,5.0,5.0,553.898524492979,5.0,1.0,phase_2,go,600.0,400.0,1.0,,,,,,,,,magenta,cross
0.0,1.0,0.5,0.0,5.0,5.0,393.8419539481401,5.0,1.0,phase_2,go,600.0,400.0,1.0,,,,,,,,,magenta,cross
0.0,6.0,1.0,1.0,5.0,5.0,360.0797243416309,5.0,1.0,phase_2,go,600.0,400.0,1.0,,,,,,,,,cyan,flipped triangle
0.0,8.0,4.0,1.0,6.0,6.0,302.5412373244762,5.0,1.0,phase_2,go,600.0,400.0,1.0,,,,,,,,,green,hexagon
0.0,7.0,2.0,1.0,5.0,5.0,327.1495085209608,5.0,1.0,phase_2,stop,600.0,400.0,3.0,,,,,,,,,yellow,square
0.0,8.0,4.0,1.0,6.0,6.0,766.4436120539904,5.0,1.0,phase_2,go,550.0,400.0,1.0,,,,,,,,,green,hexagon
0.0,6.0,1.0,1.0,5.0,0.0,0.0,5.0,1.0,phase_2,stop,550.0,400.0,4.0,,,,,,,,,cyan,flipped triangle
0.0,3.0,2.0,0.0,5.0,5.0,454.135101288557,5.0,1.0,phase_2,go,600.0,400.0,1.0,,,,,,,,,orange,I
0.0,3.0,2.0,0.0,6.0,6.0,514.7004388272762,5.0,1.0,phase_2,go,600.0,400.0,1.0,,,,,,,,,orange,I
0.0,4.0,4.0,0.0,6.0,6.0,637.2313126921654,5.0,1.0,phase_2,go,600.0,400.0,1.0,,,,,,,,,blue,triangle
0.0,1.0,0.5,0.0,6.0,6.0,660.8147360384464,5.0,1.0,phase_2,go,600.0,400.0,1.0,,,,,,,,,magenta,cross
0.0,2.0,1.0,0.0,5.0,5.0,690.3361901640892,5.0,1.0,phase_2,go,600.0,400.0,1.0,,,,,,,,,white,diamond
0.0,8.0,4.0,1.0,5.0,5.0,715.5032195150852,5.0,1.0,phase_2,stop,600.0,400.0,3.0,,,,,,,,,green,hexagon
0.0,7.0,2.0,1.0,5.0,5.0,649.3040062487125,5.0,1.0,phase_2,go,550.0,400.0,1.0,,,,,,,,,yellow,square
0.0,6.0,1.0,1.0,6.0,6.0,335.8066566288471,5.0,1.0,phase_2,stop,550.0,400.0,3.0,,,,,,,,,cyan,flipped triangle
0.0,8.0,4.0,1.0,6.0,0.0,0.0,5.0,1.0,phase_2,stop,550.0,350.0,4.0,,,,,,,,,green,hexagon
0.0,2.0,1.0,0.0,6.0,6.0,783.4919635206461,5.0,1.0,phase_2,go,550.0,400.0,1.0,,,,,,,,,white,diamond
0.0,8.0,4.0,1.0,5.0,5.0,885.6213912367821,5.0,1.0,phase_2,go,550.0,400.0,1.0,,,,,,,,,green,hexagon
0.0,7.0,2.0,1.0,5.0,5.0,673.4705921262503,5.0,1.0,phase_2,go,550.0,400.0,1.0,,,,,,,,,yellow,square
0.0,5.0,0.5,1.0,5.0,0.0,0.0,5.0,1.0,phase_2,stop,550.0,400.0,4.0,,,,,,,,,gray,circle
0.0,2.0,1.0,0.0,5.0,5.0,478.1268872320652,5.0,1.0,phase_2,go,600.0,400.0,1.0,,,,,,,,,white,diamond
0.0,2.0,1.0,0.0,6.0,6.0,542.327880859375,5.0,1.0,phase_2,go,600.0,400.0,1.0,,,,,,,,,white,diamond
0.0,2.0,1.0,0.0,5.0,5.0,373.1345105916261,5.0,1.0,phase_2,go,600.0,400.0,1.0,,,,,,,,,white,diamond
0.0,1.0,0.5,0.0,6.0,6.0,277.7125630527735,5.0,1.0,phase_2,go,600.0,400.0,1.0,,,,,,,,,magenta,cross
0.0,1.0,0.5,0.0,5.0,5.0,450.1363020390272,5.0,1.0,phase_2,go,600.0,400.0,1.0,,,,,,,,,magenta,cross
0.0,7.0,2.0,1.0,5.0,5.0,387.6843657344579,5.0,1.0,phase_2,stop,600.0,400.0,3.0,,,,,,,,,yellow,square
0.0,1.0,0.5,0.0,6.0,6.0,355.8652326464653,5.0,1.0,phase_2,go,550.0,400.0,1.0,,,,,,,,,magenta,cross
0.0,1.0,0.5,0.0,5.0,5.0,393.6463855206966,5.0,1.0,phase_2,go,550.0,400.0,1.0,,,,,,,,,magenta,cross
0.0,6.0,1.0,1.0,6.0,6.0,376.1121165007353,5.0,1.0,phase_2,stop,550.0,400.0,3.0,,,,,,,,,cyan,flipped triangle
0.0,5.0,0.5,1.0,5.0,5.0,682.692140340805,5.0,1.0,phase_2,go,550.0,350.0,1.0,,,,,,,,,gray,circle
0.0,7.0,2.0,1.0,6.0,6.0,546.2086014449596,5.0,1.0,phase_2,go,550.0,350.0,1.0,,,,,,,,,yellow,square
0.0,4.0,4.0,0.0,5.0,5.0,768.6982471495867,5.0,1.0,phase_2,go,550.0,350.0,1.0,,,,,,,,,blue,triangle
0.0,4.0,4.0,0.0,5.0,5.0,568.350650370121,5.0,1.0,phase_2,go,550.0,350.0,1.0,,,,,,,,,blue,triangle
0.0,3.0,2.0,0.0,6.0,6.0,373.1548748910427,5.0,1.0,phase_2,go,550.0,350.0,1.0,,,,,,,,,orange,I
0.0,2.0,1.0,0.0,5.0,5.0,402.9976520687341,6.0,1.0,phase_2,go,550.0,350.0,1.0,,,,,,,,,white,diamond
0.0,3.0,2.0,0.0,6.0,6.0,310.2016821503639,6.0,1.0,phase_2,go,550.0,350.0,1.0,,,,,,,,,orange,I
0.0,2.0,1.0,0.0,5.0,5.0,352.2191066294908,6.0,1.0,phase_2,go,550.0,350.0,1.0,,,,,,,,,white,diamond
0.0,8.0,4.0,1.0,5.0,5.0,591.2359151989222,6.0,1.0,phase_2,stop,550.0,350.0,3.0,,,,,,,,,green,hexagon
0.0,3.0,2.0,0.0,5.0,5.0,711.662208661437,6.0,1.0,phase_2,go,500.0,350.0,1.0,,,,,,,,,orange,I
0.0,7.0,2.0,1.0,6.0,0.0,0.0,6.0,1.0,phase_2,stop,500.0,350.0,4.0,,,,,,,,,yellow,square
0.0,6.0,1.0,1.0,5.0,5.0,475.4271917045116,6.0,1.0,phase_2,go,500.0,400.0,1.0,,,,,,,,,cyan,flipped triangle
0.0,4.0,4.0,0.0,5.0,5.0,494.2279774695635,6.0,1.0,phase_2,go,500.0,400.0,1.0,,,,,,,,,blue,triangle
0.0,3.0,2.0,0.0,6.0,6.0,725.6188485771418,6.0,1.0,phase_2,go,500.0,400.0,1.0,,,,,,,,,orange,I
0.0,6.0,1.0,1.0,6.0,6.0,581.5074201673269,6.0,1.0,phase_2,stop,500.0,400.0,3.0,,,,,,,,,cyan,flipped triangle
0.0,3.0,2.0,0.0,5.0,5.0,274.0527112036943,6.0,1.0,phase_2,go,500.0,350.0,1.0,,,,,,,,,orange,I
0.0,4.0,4.0,0.0,6.0,6.0,324.4352173060179,6.0,1.0,phase_2,go,500.0,350.0,1.0,,,,,,,,,blue,triangle
0.0,8.0,4.0,1.0,6.0,6.0,296.915128827095,6.0,1.0,phase_2,go,500.0,350.0,1.0,,,,,,,,,green,hexagon
0.0,4.0,4.0,0.0,6.0,6.0,472.703255712986,6.0,1.0,phase_2,go,500.0,350.0,1.0,,,,,,,,,blue,triangle
0.0,7.0,2.0,1.0,6.0,6.0,303.2649476081133,6.0,1.0,phase_2,stop,500.0,350.0,3.0,,,,,,,,,yellow,square
0.0,6.0,1.0,1.0,6.0,0.0,0.0,6.0,1.0,phase_2,stop,500.0,300.0,4.0,,,,,,,,,cyan,flipped triangle
0.0,7.0,2.0,1.0,6.0,0.0,0.0,6.0,1.0,phase_2,stop,500.0,350.0,4.0,,,,,,,,,yellow,square
0.0,3.0,2.0,0.0,6.0,6.0,824.0027688443661,6.0,1.0,phase_2,go,500.0,400.0,1.0,,,,,,,,,orange,I
0.0,1.0,0.5,0.0,6.0,6.0,380.4404661059379,6.0,1.0,phase_2,go,500.0,400.0,1.0,,,,,,,,,magenta,cross
0.0,3.0,2.0,0.0,6.0,6.0,335.3409431874752,6.0,1.0,phase_2,go,500.0,400.0,1.0,,,,,,,,,orange,I
0.0,1.0,0.5,0.0,5.0,5.0,269.8220442980528,6.0,1.0,phase_2,go,500.0,400.0,1.0,,,,,,,,,magenta,cross
0.0,7.0,2.0,1.0,6.0,6.0,307.5583092868328,6.0,1.0,phase_2,stop,500.0,400.0,3.0,,,,,,,,,yellow,square
0.0,1.0,0.5,0.0,6.0,6.0,653.8301836699247,6.0,1.0,phase_2,go,500.0,350.0,1.0,,,,,,,,,magenta,cross
0.0,6.0,1.0,1.0,6.0,6.0,373.2908125966787,6.0,1.0,phase_2,stop,500.0,350.0,3.0,,,,,,,,,cyan,flipped triangle
0.0,1.0,0.5,0.0,6.0,6.0,684.1355953365564,6.0,1.0,phase_2,go,500.0,300.0,1.0,,,,,,,,,magenta,cross
0.0,7.0,2.0,1.0,5.0,5.0,626.8086992204189,6.0,1.0,phase_2,go,500.0,300.0,1.0,,,,,,,,,yellow,square
0.0,8.0,4.0,1.0,6.0,0.0,0.0,6.0,1.0,phase_2,stop,500.0,300.0,4.0,,,,,,,,,green,hexagon
0.0,4.0,4.0,0.0,6.0,6.0,544.7282493114471,6.0,1.0,phase_2,go,500.0,350.0,1.0,,,,,,,,,blue,triangle
0.0,6.0,1.0,1.0,5.0,5.0,559.8195157945156,6.0,1.0,phase_2,stop,500.0,350.0,3.0,,,,,,,,,cyan,flipped triangle
0.0,7.0,2.0,1.0,6.0,0.0,0.0,6.0,1.0,phase_2,stop,450.0,350.0,4.0,,,,,,,,,yellow,square
0.0,6.0,1.0,1.0,5.0,5.0,608.6354348808527,6.0,1.0,phase_2,go,450.0,400.0,1.0,,,,,,,,,cyan,flipped triangle
0.0,8.0,4.0,1.0,6.0,6.0,566.4497073739767,6.0,1.0,phase_2,go,450.0,400.0,1.0,,,,,,,,,green,hexagon
0.0,2.0,1.0,0.0,5.0,5.0,645.6000618636608,6.0,1.0,phase_2,go,450.0,400.0,1.0,,,,,,,,,white,diamond
0.0,4.0,4.0,0.0,6.0,6.0,535.2071598172188,6.0,1.0,phase_2,go,450.0,400.0,1.0,,,,,,,,,blue,triangle
0.0,2.0,1.0,0.0,5.0,5.0,494.1764213144779,6.0,1.0,phase_2,go,450.0,400.0,1.0,,,,,,,,,white,diamond
0.0,6.0,1.0,1.0,5.0,5.0,333.6113151162863,6.0,1.0,phase_2,stop,450.0,400.0,3.0,,,,,,,,,cyan,flipped triangle
0.0,4.0,4.0,0.0,6.0,6.0,435.4433808475733,7.0,1.0,phase_2,go,400.0,400.0,1.0,,,,,,,,,blue,triangle
0.0,6.0,1.0,1.0,6.0,6.0,299.2801573127508,7.0,1.0,phase_2,go,400.0,400.0,1.0,,,,,,,,,cyan,flipped triangle
0.0,5.0,0.5,1.0,5.0,5.0,298.7563796341419,7.0,1.0,phase_2,stop,400.0,400.0,3.0,,,,,,,,,gray,circle
0.0,3.0,2.0,0.0,6.0,6.0,340.402077883482,7.0,1.0,phase_2,go,350.0,400.0,1.0,,,,,,,,,orange,I
0.0,8.0,4.0,1.0,5.0,5.0,289.9593003094196,7.0,1.0,phase_2,stop,350.0,400.0,3.0,,,,,,,,,green,hexagon
0.0,7.0,2.0,1.0,6.0,6.0,361.0723726451397,7.0,1.0,phase_2,stop,300.0,400.0,3.0,,,,,,,,,yellow,square
0.0,8.0,4.0,1.0,6.0,0.0,0.0,7.0,1.0,phase_2,stop,300.0,350.0,4.0,,,,,,,,,green,hexagon
0.0,3.0,2.0,0.0,6.0,6.0,608.2583293318748,7.0,1.0,phase_2,go,300.0,400.0,1.0,,,,,,,,,orange,I
0.0,4.0,4.0,0.0,5.0,5.0,623.6502528190613,7.0,1.0,phase_2,go,300.0,400.0,1.0,,,,,,,,,blue,triangle
0.0,2.0,1.0,0.0,5.0,5.0,343.4478174895048,7.0,1.0,phase_2,go,300.0,400.0,1.0,,,,,,,,,white,diamond
0.0,8.0,4.0,1.0,5.0,0.0,0.0,7.0,1.0,phase_2,stop,300.0,400.0,4.0,,,,,,,,,green,hexagon
0.0,6.0,1.0,1.0,6.0,6.0,273.4307255595922,7.0,1.0,phase_2,stop,350.0,400.0,3.0,,,,,,,,,cyan,flipped triangle
0.0,2.0,1.0,0.0,6.0,6.0,765.3590552508831,7.0,1.0,phase_2,go,350.0,350.0,1.0,,,,,,,,,white,diamond
0.0,5.0,0.5,1.0,6.0,0.0,0.0,7.0,1.0,phase_2,stop,350.0,350.0,4.0,,,,,,,,,gray,circle
0.0,2.0,1.0,0.0,6.0,6.0,903.5071525722742,7.0,1.0,phase_2,go,350.0,400.0,1.0,,,,,,,,,white,diamond
0.0,6.0,1.0,1.0,5.0,0.0,0.0,7.0,1.0,phase_2,stop,350.0,400.0,4.0,,,,,,,,,cyan,flipped triangle
0.0,4.0,4.0,0.0,5.0,5.0,650.2704601734877,7.0,1.0,phase_2,go,400.0,400.0,1.0,,,,,,,,,blue,triangle
0.0,4.0,4.0,0.0,5.0,5.0,420.3718118369579,7.0,1.0,phase_2,go,400.0,400.0,1.0,,,,,,,,,blue,triangle
0.0,8.0,4.0,1.0,6.0,0.0,0.0,7.0,1.0,phase_2,stop,400.0,400.0,4.0,,,,,,,,,green,hexagon
0.0,4.0,4.0,0.0,5.0,5.0,768.670404329896,7.0,1.0,phase_2,go,400.0,450.0,1.0,,,,,,,,,blue,triangle
0.0,5.0,0.5,1.0,5.0,5.0,794.4806274026632,7.0,1.0,phase_2,go,400.0,450.0,1.0,,,,,,,,,gray,circle
0.0,6.0,1.0,1.0,6.0,6.0,528.501970693469,7.0,1.0,phase_2,stop,400.0,450.0,3.0,,,,,,,,,cyan,flipped triangle
0.0,6.0,1.0,1.0,6.0,6.0,471.3377952575683,7.0,1.0,phase_2,stop,400.0,400.0,3.0,,,,,,,,,cyan,flipped triangle
0.0,1.0,0.5,0.0,6.0,6.0,633.4231253713369,7.0,1.0,phase_2,go,400.0,350.0,1.0,,,,,,,,,magenta,cross
0.0,4.0,4.0,0.0,6.0,6.0,575.0896837562323,7.0,1.0,phase_2,go,400.0,350.0,1.0,,,,,,,,,blue,triangle
0.0,2.0,1.0,0.0,6.0,6.0,461.2777680158615,7.0,1.0,phase_2,go,400.0,350.0,1.0,,,,,,,,,white,diamond
0.0,5.0,0.5,1.0,6.0,6.0,437.475174665451,7.0,1.0,phase_2,stop,400.0,350.0,3.0,,,,,,,,,gray,circle
0.0,1.0,0.5,0.0,6.0,6.0,751.6733724623919,7.0,1.0,phase_2,go,400.0,300.0,1.0,,,,,,,,,magenta,cross
0.0,1.0,0.5,0.0,6.0,6.0,773.7587075680494,7.0,1.0,phase_2,go,400.0,300.0,1.0,,,,,,,,,magenta,cross
0.0,3.0,2.0,0.0,5.0,5.0,509.20372642576694,7.0,1.0,phase_2,go,400.0,300.0,1.0,,,,,,,,,orange,I
0.0,6.0,1.0,1.0,5.0,5.0,418.4689987450838,7.0,1.0,phase_2,stop,400.0,300.0,3.0,,,,,,,,,cyan,flipped triangle
0.0,5.0,0.5,1.0,6.0,0.0,0.0,7.0,1.0,phase_2,stop,350.0,300.0,4.0,,,,,,,,,gray,circle
0.0,1.0,0.5,0.0,6.0,6.0,772.3757121711969,7.0,1.0,phase_2,go,350.0,350.0,1.0,,,,,,,,,magenta,cross
0.0,5.0,0.5,1.0,6.0,6.0,668.2714074850082,7.0,1.0,phase_2,go,350.0,350.0,1.0,,,,,,,,,gray,circle
0.0,6.0,1.0,1.0,5.0,0.0,0.0,7.0,1.0,phase_2,stop,350.0,350.0,4.0,,,,,,,,,cyan,flipped triangle
0.0,8.0,4.0,1.0,6.0,0.0,0.0,7.0,1.0,phase_2,stop,400.0,350.0,4.0,,,,,,,,,green,hexagon
0.0,1.0,0.5,0.0,5.0,5.0,686.2148903310299,8.0,1.0,phase_2,go,400.0,400.0,1.0,,,,,,,,,magenta,cross
0.0,1.0,0.5,0.0,5.0,5.0,340.485418215394,8.0,1.0,phase_2,go,400.0,400.0,1.0,,,,,,,,,magenta,cross
0.0,3.0,2.0,0.0,5.0,5.0,306.3800651580095,8.0,1.0,phase_2,go,400.0,400.0,1.0,,,,,,,,,orange,I
0.0,2.0,1.0,0.0,6.0,6.0,275.7661659270525,8.0,1.0,phase_2,go,400.0,400.0,1.0,,,,,,,,,white,diamond
0.0,8.0,4.0,1.0,5.0,5.0,307.5106479227543,8.0,1.0,phase_2,stop,400.0,400.0,3.0,,,,,,,,,green,hexagon
0.0,2.0,1.0,0.0,5.0,5.0,356.3624955713749,8.0,1.0,phase_2,go,350.0,400.0,1.0,,,,,,,,,white,diamond
0.0,3.0,2.0,0.0,5.0,5.0,327.8224859386682,8.0,1.0,phase_2,go,350.0,400.0,1.0,,,,,,,,,orange,I
0.0,2.0,1.0,0.0,6.0,6.0,456.7704796791076,8.0,1.0,phase_2,go,350.0,400.0,1.0,,,,,,,,,white,diamond
0.0,4.0,4.0,0.0,6.0,6.0,519.12653259933,8.0,1.0,phase_2,go,350.0,400.0,1.0,,,,,,,,,blue,triangle
0.0,1.0,0.5,0.0,5.0,5.0,344.7279557585716,8.0,1.0,phase_2,go,350.0,400.0,1.0,,,,,,,,,magenta,cross
0.0,3.0,2.0,0.0,5.0,5.0,294.1300515085459,8.0,1.0,phase_2,go,350.0,400.0,1.0,,,,,,,,,orange,I
0.0,7.0,2.0,1.0,6.0,6.0,519.4580964744091,8.0,1.0,phase_2,stop,350.0,400.0,3.0,,,,,,,,,yellow,square
0.0,2.0,1.0,0.0,5.0,5.0,516.1130204796791,8.0,1.0,phase_2,go,350.0,350.0,1.0,,,,,,,,,white,diamond
0.0,6.0,1.0,1.0,5.0,0.0,0.0,8.0,1.0,phase_2,stop,350.0,350.0,4.0,,,,,,,,,cyan,flipped triangle
0.0,5.0,0.5,1.0,5.0,6.0,0.1905653625726,8.0,1.0,phase_2,stop,400.0,350.0,3.0,,,,,,,,,gray,circle
0.0,3.0,2.0,0.0,5.0,5.0,579.6932801604271,8.0,1.0,phase_2,go,350.0,350.0,1.0,,,,,,,,,orange,I
0.0,7.0,2.0,1.0,5.0,5.0,422.0858905464411,8.0,1.0,phase_2,stop,350.0,350.0,3.0,,,,,,,,,yellow,square
0.0,6.0,1.0,1.0,5.0,0.0,0.0,8.0,1.0,phase_2,stop,300.0,350.0,4.0,,,,,,,,,cyan,flipped triangle
0.0,8.0,4.0,1.0,5.0,0.0,0.0,8.0,1.0,phase_2,stop,350.0,350.0,4.0,,,,,,,,,green,hexagon
0.0,2.0,1.0,0.0,6.0,6.0,330.9540692716837,8.0,1.0,phase_2,go,400.0,350.0,1.0,,,,,,,,,white,diamond
0.0,6.0,1.0,1.0,6.0,0.0,0.0,8.0,1.0,phase_2,stop,400.0,350.0,4.0,,,,,,,,,cyan,flipped triangle
0.0,3.0,2.0,0.0,5.0,5.0,737.8743179142475,8.0,1.0,phase_2,go,400.0,400.0,1.0,,,,,,,,,orange,I
0.0,7.0,2.0,1.0,6.0,0.0,0.0,8.0,1.0,phase_2,stop,400.0,400.0,4.0,,,,,,,,,yellow,square
0.0,8.0,4.0,1.0,5.0,5.0,527.1720103919506,8.0,1.0,phase_2,go,400.0,450.0,1.0,,,,,,,,,green,hexagon
0.0,7.0,2.0,1.0,5.0,5.0,485.8665131032467,8.0,1.0,phase_2,stop,400.0,450.0,3.0,,,,,,,,,yellow,square
0.0,7.0,2.0,1.0,5.0,5.0,617.465315386653,8.0,1.0,phase_2,go,350.0,450.0,1.0,,,,,,,,,yellow,square
0.0,5.0,0.5,1.0,5.0,5.0,404.6150483191013,8.0,1.0,phase_2,stop,350.0,450.0,3.0,,,,,,,,,gray,circle
0.0,2.0,1.0,0.0,5.0,5.0,732.6460815966129,8.0,1.0,phase_2,go,300.0,450.0,1.0,,,,,,,,,white,diamond
0.0,7.0,2.0,1.0,5.0,5.0,580.4321616888046,8.0,1.0,phase_2,go,300.0,450.0,1.0,,,,,,,,,yellow,square
0.0,6.0,1.0,1.0,5.0,5.0,762.9115078598261,8.0,1.0,phase_2,go,300.0,450.0,1.0,,,,,,,,,cyan,flipped triangle
0.0,5.0,0.5,1.0,6.0,6.0,330.1351685076952,8.0,1.0,phase_2,stop,300.0,450.0,3.0,,,,,,,,,gray,circle
0.0,5.0,0.5,1.0,6.0,0.0,0.0,8.0,1.0,phase_2,stop,300.0,400.0,4.0,,,,,,,,,gray,circle
0.0,2.0,1.0,0.0,5.0,5.0,691.8215416371822,8.0,1.0,phase_2,go,300.0,450.0,1.0,,,,,,,,,white,diamond
0.0,6.0,1.0,1.0,6.0,6.0,428.6942593753338,8.0,1.0,phase_2,stop,300.0,450.0,3.0,,,,,,,,,cyan,flipped triangle
0.0,1.0,0.5,0.0,6.0,6.0,764.4172608852386,8.0,1.0,phase_2,go,300.0,400.0,1.0,,,,,,,,,magenta,cross
0.0,4.0,4.0,0.0,6.0,6.0,664.5323019474745,8.0,1.0,phase_2,go,300.0,400.0,1.0,,,,,,,,,blue,triangle
0.0,2.0,1.0,0.0,7.0,2.0,1376.492727547884,1.0,1.0,phase_3,,,,,245.0,5.0,49.0,245.0,196.0,147.0,294.0,98.0,white,diamond
0.0,8.0,4.0,1.0,7.0,4.0,997.4376074969769,1.0,1.0,phase_3,,,,,170.0,5.0,34.0,68.0,204.0,170.0,102.0,136.0,green,hexagon
0.0,6.0,1.0,1.0,7.0,1.0,803.0154760926962,1.0,1.0,phase_3,,,,,39.0,1.0,39.0,195.0,156.0,234.0,117.0,78.0,cyan,flipped triangle
0.0,7.0,2.0,1.0,7.0,5.0,1158.593125641346,1.0,1.0,phase_3,,,,,176.0,4.0,44.0,132.0,88.0,220.0,176.0,264.0,yellow,square
0.0,5.0,0.5,1.0,7.0,2.0,917.5356775522232,1.0,1.0,phase_3,,,,,294.0,6.0,147.0,294.0,245.0,49.0,98.0,196.0,gray,circle
0.0,3.0,2.0,0.0,7.0,4.0,2123.362272977829,1.0,1.0,phase_3,,,,,68.0,2.0,136.0,170.0,34.0,68.0,204.0,102.0,orange,I
0.0,2.0,1.0,0.0,7.0,5.0,530.924117192626,1.0,1.0,phase_3,,,,,162.0,3.0,54.0,108.0,324.0,216.0,162.0,270.0,white,diamond
0.0,1.0,0.5,0.0,7.0,1.0,426.7827272415161,1.0,1.0,phase_3,,,,,162.0,3.0,162.0,54.0,270.0,216.0,108.0,324.0,magenta,cross
0.0,7.0,2.0,1.0,7.0,2.0,1286.000158637762,1.0,1.0,phase_3,,,,,234.0,6.0,156.0,234.0,195.0,117.0,78.0,39.0,yellow,square
0.0,6.0,1.0,1.0,7.0,3.0,597.9957822710276,1.0,1.0,phase_3,,,,,49.0,1.0,147.0,294.0,49.0,98.0,245.0,196.0,cyan,flipped triangle
0.0,8.0,4.0,1.0,7.0,4.0,431.9922160357237,1.0,1.0,phase_3,,,,,136.0,4.0,170.0,204.0,34.0,136.0,102.0,68.0,green,hexagon
0.0,8.0,4.0,1.0,7.0,5.0,504.0692873299122,1.0,1.0,phase_3,,,,,108.0,2.0,324.0,216.0,270.0,162.0,108.0,54.0,green,hexagon
0.0,1.0,0.5,0.0,7.0,6.0,492.5183001905679,1.0,1.0,phase_3,,,,,117.0,3.0,234.0,39.0,78.0,195.0,156.0,117.0,magenta,cross
0.0,8.0,4.0,1.0,7.0,6.0,486.1058741807937,1.0,1.0,phase_3,,,,,245.0,5.0,98.0,147.0,49.0,196.0,294.0,245.0,green,hexagon
0.0,5.0,0.5,1.0,7.0,5.0,478.2413877546787,1.0,1.0,phase_3,,,,,54.0,1.0,324.0,216.0,162.0,270.0,54.0,108.0,gray,circle
0.0,1.0,0.5,0.0,7.0,4.0,389.5749561488628,1.0,1.0,phase_3,,,,,34.0,1.0,68.0,170.0,102.0,34.0,204.0,136.0,magenta,cross
0.0,4.0,4.0,0.0,7.0,3.0,294.7499360889196,1.0,1.0,phase_3,,,,,98.0,2.0,245.0,147.0,98.0,196.0,49.0,294.0,blue,triangle
0.0,4.0,4.0,0.0,7.0,2.0,695.4784728586674,1.0,1.0,phase_3,,,,,54.0,1.0,216.0,54.0,270.0,162.0,324.0,108.0,blue,triangle
0.0,7.0,2.0,1.0,7.0,1.0,1443.6729662120342,1.0,1.0,phase_3,,,,,270.0,5.0,270.0,108.0,162.0,54.0,216.0,324.0,yellow,square
0.0,1.0,0.5,0.0,7.0,1.0,437.6938492059707,1.0,1.0,phase_3,,,,,88.0,2.0,88.0,44.0,220.0,264.0,132.0,176.0,magenta,cross
0.0,4.0,4.0,0.0,7.0,1.0,718.5112033039331,2.0,1.0,phase_3,,,,,39.0,1.0,39.0,234.0,156.0,78.0,117.0,195.0,blue,triangle
0.0,1.0,0.5,0.0,7.0,2.0,414.5086891949177,2.0,1.0,phase_3,,,,,196.0,4.0,294.0,196.0,98.0,245.0,49.0,147.0,magenta,cross
0.0,3.0,2.0,0.0,7.0,3.0,400.6315022706985,2.0,1.0,phase_3,,,,,294.0,6.0,245.0,196.0,294.0,98.0,147.0,49.0,orange,I
0.0,8.0,4.0,1.0,7.0,4.0,611.2143453210592,2.0,1.0,phase_3,,,,,234.0,6.0,195.0,156.0,39.0,234.0,117.0,78.0,green,hexagon
0.0,2.0,1.0,0.0,7.0,5.0,115.6678814440965,2.0,1.0,phase_3,,,,,39.0,1.0,78.0,156.0,195.0,234.0,39.0,117.0,white,diamond
0.0,1.0,0.5,0.0,7.0,6.0,373.0764240026474,2.0,1.0,phase_3,,,,,176.0,4.0,264.0,44.0,88.0,132.0,220.0,176.0,magenta,cross
0.0,6.0,1.0,1.0,7.0,6.0,438.1743390113115,2.0,1.0,phase_3,,,,,136.0,4.0,170.0,34.0,68.0,102.0,204.0,136.0,cyan,flipped triangle
0.0,5.0,0.5,1.0,7.0,5.0,569.0061673521996,2.0,1.0,phase_3,,,,,132.0,3.0,88.0,176.0,44.0,220.0,132.0,264.0,gray,circle
0.0,6.0,1.0,1.0,7.0,4.0,449.9087817966938,2.0,1.0,phase_3,,,,,54.0,1.0,324.0,108.0,270.0,54.0,162.0,216.0,cyan,flipped triangle
0.0,4.0,4.0,0.0,7.0,3.0,585.3703413158655,2.0,1.0,phase_3,,,,,44.0,1.0,264.0,220.0,44.0,132.0,176.0,88.0,blue,triangle
0.0,7.0,2.0,1.0,7.0,2.0,350.3018170595169,2.0,1.0,phase_3,,,,,49.0,1.0,196.0,49.0,147.0,98.0,294.0,245.0,yellow,square
0.0,4.0,4.0,0.0,7.0,1.0,495.1201304793358,2.0,1.0,phase_3,,,,,170.0,5.0,170.0,34.0,102.0,204.0,68.0,136.0,blue,triangle
0.0,2.0,1.0,0.0,7.0,1.0,336.705069988966,2.0,1.0,phase_3,,,,,196.0,4.0,196.0,147.0,245.0,49.0,98.0,294.0,white,diamond
0.0,3.0,2.0,0.0,7.0,2.0,535.1327192038298,2.0,1.0,phase_3,,,,,245.0,5.0,147.0,245.0,98.0,49.0,294.0,196.0,orange,I
0.0,8.0,4.0,1.0,7.0,3.0,530.7658761739731,2.0,1.0,phase_3,,,,,245.0,5.0,147.0,196.0,245.0,294.0,49.0,98.0,green,hexagon
0.0,3.0,2.0,0.0,7.0,4.0,842.357199639082,2.0,1.0,phase_3,,,,,195.0,5.0,156.0,117.0,78.0,195.0,39.0,234.0,orange,I
0.0,4.0,4.0,0.0,7.0,5.0,870.6425670534372,2.0,1.0,phase_3,,,,,204.0,6.0,68.0,170.0,34.0,102.0,204.0,136.0,blue,triangle
0.0,1.0,0.5,0.0,7.0,6.0,495.9731642156839,2.0,1.0,phase_3,,,,,102.0,3.0,34.0,136.0,170.0,68.0,204.0,102.0,magenta,cross
0.0,5.0,0.5,1.0,7.0,6.0,449.4865499436855,2.0,1.0,phase_3,,,,,170.0,5.0,34.0,68.0,204.0,102.0,136.0,170.0,gray,circle
0.0,3.0,2.0,0.0,7.0,5.0,471.0026178508997,2.0,1.0,phase_3,,,,,54.0,1.0,324.0,270.0,108.0,216.0,54.0,162.0,orange,I
0.0,2.0,1.0,0.0,7.0,1.0,881.1725601553917,3.0,1.0,phase_3,,,,,264.0,6.0,264.0,220.0,132.0,176.0,88.0,44.0,white,diamond
0.0,3.0,2.0,0.0,7.0,2.0,374.6150732040405,3.0,1.0,phase_3,,,,,44.0,1.0,264.0,44.0,132.0,220.0,88.0,176.0,orange,I
0.0,5.0,0.5,1.0,7.0,3.0,619.7312381118536,3.0,1.0,phase_3,,,,,132.0,3.0,176.0,44.0,132.0,264.0,88.0,220.0,gray,circle
0.0,4.0,4.0,0.0,7.0,4.0,430.1040451973676,3.0,1.0,phase_3,,,,,196.0,4.0,98.0,147.0,294.0,196.0,245.0,49.0,blue,triangle
0.0,4.0,4.0,0.0,7.0,5.0,352.3939941078424,3.0,1.0,phase_3,,,,,132.0,3.0,88.0,44.0,176.0,264.0,132.0,220.0,blue,triangle
0.0,6.0,1.0,1.0,7.0,6.0,274.3285242468118,3.0,1.0,phase_3,,,,,44.0,1.0,220.0,264.0,132.0,88.0,176.0,44.0,cyan,flipped triangle
0.0,2.0,1.0,0.0,7.0,6.0,364.3727768212557,3.0,1.0,phase_3,,,,,54.0,1.0,162.0,216.0,324.0,108.0,270.0,54.0,white,diamond
0.0,2.0,1.0,0.0,7.0,5.0,515.0742959231138,3.0,1.0,phase_3,,,,,88.0,2.0,44.0,220.0,176.0,264.0,88.0,132.0,white,diamond
0.0,2.0,1.0,0.0,7.0,4.0,279.3610505759716,3.0,1.0,phase_3,,,,,117.0,3.0,156.0,195.0,234.0,117.0,39.0,78.0,white,diamond
0.0,8.0,4.0,1.0,7.0,3.0,286.0564514994621,3.0,1.0,phase_3,,,,,78.0,2.0,195.0,234.0,78.0,39.0,156.0,117.0,green,hexagon
0.0,1.0,0.5,0.0,7.0,2.0,422.8803534060716,3.0,1.0,phase_3,,,,,78.0,2.0,156.0,78.0,117.0,195.0,234.0,39.0,magenta,cross
0.0,7.0,2.0,1.0,7.0,1.0,297.9378160089254,3.0,1.0,phase_3,,,,,156.0,4.0,156.0,117.0,234.0,195.0,39.0,78.0,yellow,square
0.0,1.0,0.5,0.0,7.0,1.0,348.7588185817003,3.0,1.0,phase_3,,,,,49.0,1.0,49.0,294.0,245.0,98.0,196.0,147.0,magenta,cross
0.0,8.0,4.0,1.0,7.0,2.0,371.7166259884834,3.0,1.0,phase_3,,,,,162.0,3.0,54.0,162.0,270.0,324.0,216.0,108.0,green,hexagon
0.0,4.0,4.0,0.0,7.0,3.0,429.4648673385381,3.0,1.0,phase_3,,,,,324.0,6.0,216.0,54.0,324.0,108.0,270.0,162.0,blue,triangle
0.0,5.0,0.5,1.0,7.0,4.0,585.8128163963556,3.0,1.0,phase_3,,,,,216.0,4.0,324.0,54.0,108.0,216.0,162.0,270.0,gray,circle
0.0,7.0,2.0,1.0,7.0,5.0,490.9461792558431,3.0,1.0,phase_3,,,,,98.0,2.0,147.0,245.0,196.0,294.0,98.0,49.0,yellow,square
0.0,5.0,0.5,1.0,7.0,6.0,332.2498984634876,3.0,1.0,phase_3,,,,,245.0,5.0,294.0,98.0,147.0,49.0,196.0,245.0,gray,circle
0.0,6.0,1.0,1.0,7.0,1.0,1290.8800300210714,3.0,1.0,phase_3,,,,,156.0,4.0,156.0,234.0,78.0,195.0,117.0,39.0,cyan,flipped triangle
0.0,5.0,0.5,1.0,7.0,2.0,604.1665431112051,3.0,1.0,phase_3,,,,,39.0,1.0,156.0,39.0,78.0,195.0,234.0,117.0,gray,circle
0.0,7.0,2.0,1.0,7.0,6.0,740.5604049563408,4.0,1.0,phase_3,,,,,44.0,1.0,88.0,264.0,176.0,220.0,132.0,44.0,yellow,square
0.0,7.0,2.0,1.0,7.0,5.0,742.4237187951803,4.0,1.0,phase_3,,,,,136.0,4.0,204.0,170.0,68.0,102.0,136.0,34.0,yellow,square
0.0,8.0,4.0,1.0,7.0,4.0,339.1562271863222,4.0,1.0,phase_3,,,,,44.0,1.0,264.0,220.0,88.0,44.0,132.0,176.0,green,hexagon
0.0,3.0,2.0,0.0,7.0,3.0,723.4238348901272,4.0,1.0,phase_3,,,,,234.0,6.0,78.0,39.0,234.0,195.0,117.0,156.0,orange,I
0.0,8.0,4.0,1.0,7.0,2.0,770.4126555472612,4.0,1.0,phase_3,,,,,44.0,1.0,132.0,44.0,220.0,176.0,264.0,88.0,green,hexagon
0.0,3.0,2.0,0.0,7.0,1.0,620.329387485981,4.0,1.0,phase_3,,,,,68.0,2.0,68.0,34.0,136.0,102.0,170.0,204.0,orange,I
0.0,1.0,0.5,0.0,7.0,1.0,832.8421339392662,4.0,1.0,phase_3,,,,,108.0,2.0,108.0,324.0,162.0,54.0,270.0,216.0,magenta,cross
0.0,5.0,0.5,1.0,7.0,5.0,751.6478411853313,4.0,1.0,phase_3,,,,,195.0,5.0,39.0,117.0,78.0,156.0,195.0,234.0,gray,circle
0.0,3.0,2.0,0.0,7.0,4.0,609.0468149632215,4.0,1.0,phase_3,,,,,176.0,4.0,220.0,44.0,88.0,176.0,132.0,264.0,orange,I
0.0,6.0,1.0,1.0,7.0,3.0,1285.3099033236504,4.0,1.0,phase_3,,,,,88.0,2.0,44.0,264.0,88.0,132.0,176.0,220.0,cyan,flipped triangle
0.0,2.0,1.0,0.0,7.0,2.0,602.1819412708282,4.0,1.0,phase_3,,,,,68.0,2.0,136.0,68.0,170.0,102.0,204.0,34.0,white,diamond
0.0,5.0,0.5,1.0,7.0,2.0,1503.1829848885536,4.0,1.0,phase_3,,,,,68.0,2.0,34.0,68.0,102.0,136.0,170.0,204.0,gray,circle
0.0,6.0,1.0,1.0,7.0,2.0,608.1365421414375,4.0,1.0,phase_3,,,,,102.0,3.0,136.0,102.0,68.0,34.0,204.0,170.0,cyan,flipped triangle
0.0,7.0,2.0,1.0,7.0,1.0,576.0788731276989,4.0,1.0,phase_3,,,,,324.0,6.0,324.0,162.0,270.0,216.0,54.0,108.0,yellow,square
0.0,4.0,4.0,0.0,7.0,1.0,864.4741363823414,4.0,1.0,phase_3,,,,,39.0,1.0,39.0,195.0,156.0,234.0,78.0,117.0,blue,triangle
0.0,7.0,2.0,1.0,7.0,2.0,516.4740197360516,4.0,1.0,phase_3,,,,,204.0,6.0,102.0,204.0,170.0,68.0,136.0,34.0,yellow,square
0.0,6.0,1.0,1.0,7.0,3.0,339.4307661801576,4.0,1.0,phase_3,,,,,49.0,1.0,98.0,147.0,49.0,245.0,294.0,196.0,cyan,flipped triangle
0.0,6.0,1.0,1.0,7.0,4.0,807.3528166860342,4.0,1.0,phase_3,,,,,108.0,2.0,270.0,216.0,54.0,108.0,324.0,162.0,cyan,flipped triangle
0.0,2.0,1.0,0.0,7.0,5.0,734.0952344238758,4.0,1.0,phase_3,,,,,170.0,5.0,136.0,204.0,102.0,68.0,170.0,34.0,white,diamond
0.0,3.0,2.0,0.0,7.0,6.0,282.2555713355541,4.0,1.0,phase_3,,,,,216.0,4.0,108.0,54.0,324.0,162.0,270.0,216.0,orange,I
