raw_reward_magnitude,stim_reward,stepwise_reward_magnitude,paired_with_stopping,stim_location,response,reaction_time,block,num_trial_presentations,which_phase,stop_signal_trial_type,left_SSD,right_SSD,accuracy,chosen_bidding_amount,chosen_bidding_level,possible_bid_1,possible_bid_2,possible_bid_3,possible_bid_4,possible_bid_5,possible_bid_6,color_text,shape_text
188.0,3.0,3.0,0.0,2.0,2.0,594.4872796535492,1.0,1.0,phase_1,,,,,,,,,,,,,white,hexagon
188.0,3.0,3.0,0.0,2.0,2.0,459.6872460097074,1.0,1.0,phase_1,,,,,,,,,,,,,white,hexagon
105.0,6.0,2.0,1.0,3.0,3.0,578.3869884908199,1.0,1.0,phase_1,,,,,,,,,,,,,green,I
207.0,3.0,3.0,0.0,4.0,4.0,479.6318598091602,1.0,1.0,phase_1,,,,,,,,,,,,,white,hexagon
0.0,4.0,0.0,0.0,4.0,4.0,393.6526756733656,1.0,1.0,phase_1,,,,,,,,,,,,,orange,cross
223.0,3.0,3.0,0.0,2.0,2.0,558.3544913679361,1.0,1.0,phase_1,,,,,,,,,,,,,white,hexagon
223.0,3.0,3.0,0.0,2.0,2.0,397.5873831659555,1.0,1.0,phase_1,,,,,,,,,,,,,white,hexagon
68.0,1.0,1.0,0.0,3.0,3.0,396.1765635758638,1.0,1.0,phase_1,,,,,,,,,,,,,magenta,square
385.0,4.0,4.0,0.0,4.0,4.0,348.5650606453419,1.0,1.0,phase_1,,,,,,,,,,,,,orange,cross
55.0,5.0,1.0,1.0,2.0,2.0,403.514152392745,1.0,1.0,phase_1,,,,,,,,,,,,,yellow,circle
64.0,1.0,1.0,0.0,1.0,1.0,365.6250815838575,1.0,1.0,phase_1,,,,,,,,,,,,,magenta,square
0.0,8.0,0.0,1.0,3.0,3.0,317.7144359797239,1.0,1.0,phase_1,,,,,,,,,,,,,cyan,flipped triangle
99.0,2.0,2.0,0.0,4.0,4.0,361.7392294108867,1.0,1.0,phase_1,,,,,,,,,,,,,gray,diamond
0.0,2.0,0.0,0.0,4.0,4.0,357.381397858262,1.0,1.0,phase_1,,,,,,,,,,,,,gray,diamond
219.0,7.0,3.0,1.0,4.0,4.0,522.3543718457222,1.0,1.0,phase_1,,,,,,,,,,,,,blue,triangle
75.0,2.0,2.0,0.0,3.0,3.0,357.0228479802608,1.0,1.0,phase_1,,,,,,,,,,,,,gray,diamond
395.0,8.0,4.0,1.0,2.0,2.0,370.3521359711885,1.0,1.0,phase_1,,,,,,,,,,,,,cyan,flipped triangle
57.0,5.0,1.0,1.0,1.0,1.0,426.2250885367393,1.0,1.0,phase_1,,,,,,,,,,,,,yellow,circle
87.0,6.0,2.0,1.0,1.0,1.0,357.7808868139982,1.0,1.0,phase_1,,,,,,,,,,,,,green,I
28.0,5.0,1.0,1.0,1.0,1.0,336.6807773709297,1.0,1.0,phase_1,,,,,,,,,,,,,yellow,circle
122.0,2.0,2.0,0.0,2.0,2.0,356.8332958966493,1.0,1.0,phase_1,,,,,,,,,,,,,gray,diamond
0.0,7.0,0.0,1.0,1.0,1.0,401.4343284070492,1.0,1.0,phase_1,,,,,,,,,,,,,blue,triangle
411.0,8.0,4.0,1.0,3.0,3.0,390.0084588676691,1.0,1.0,phase_1,,,,,,,,,,,,,cyan,flipped triangle
43.0,1.0,1.0,0.0,1.0,1.0,380.8523844927549,1.0,1.0,phase_1,,,,,,,,,,,,,magenta,square
103.0,2.0,2.0,0.0,3.0,3.0,391.2259340286255,1.0,1.0,phase_1,,,,,,,,,,,,,gray,diamond
387.0,8.0,4.0,1.0,4.0,4.0,420.9880083799362,1.0,1.0,phase_1,,,,,,,,,,,,,cyan,flipped triangle
0.0,8.0,0.0,1.0,2.0,2.0,492.6715288311243,1.0,1.0,phase_1,,,,,,,,,,,,,cyan,flipped triangle
0.0,4.0,0.0,0.0,4.0,4.0,392.6265519112348,1.0,1.0,phase_1,,,,,,,,,,,,,orange,cross
193.0,3.0,3.0,0.0,3.0,3.0,404.8598725348711,1.0,1.0,phase_1,,,,,,,,,,,,,white,hexagon
183.0,7.0,3.0,1.0,2.0,2.0,399.7180685400963,1.0,1.0,phase_1,,,,,,,,,,,,,blue,triangle
405.0,8.0,4.0,1.0,4.0,4.0,411.7023572325706,1.0,1.0,phase_1,,,,,,,,,,,,,cyan,flipped triangle
385.0,8.0,4.0,1.0,3.0,3.0,346.0657298564911,1.0,1.0,phase_1,,,,,,,,,,,,,cyan,flipped triangle
106.0,2.0,2.0,0.0,2.0,2.0,372.8882074356079,1.0,1.0,phase_1,,,,,,,,,,,,,gray,diamond
87.0,6.0,2.0,1.0,2.0,2.0,369.6541152894497,1.0,1.0,phase_1,,,,,,,,,,,,,green,I
54.0,5.0,1.0,1.0,2.0,2.0,430.134555324912,1.0,1.0,phase_1,,,,,,,,,,,,,yellow,circle
33.0,5.0,1.0,1.0,4.0,4.0,406.7790862172842,1.0,1.0,phase_1,,,,,,,,,,,,,yellow,circle
123.0,6.0,2.0,1.0,2.0,2.0,361.5616448223591,1.0,1.0,phase_1,,,,,,,,,,,,,green,I
102.0,6.0,2.0,1.0,4.0,4.0,367.9914157837629,1.0,1.0,phase_1,,,,,,,,,,,,,green,I
107.0,2.0,2.0,0.0,2.0,2.0,377.4173483252525,1.0,1.0,phase_1,,,,,,,,,,,,,gray,diamond
407.0,8.0,4.0,1.0,3.0,3.0,390.8436615020036,1.0,1.0,phase_1,,,,,,,,,,,,,cyan,flipped triangle
388.0,4.0,4.0,0.0,1.0,1.0,548.1446590274572,1.0,1.0,phase_1,,,,,,,,,,,,,orange,cross
38.0,1.0,1.0,0.0,3.0,3.0,290.5098982155323,1.0,1.0,phase_1,,,,,,,,,,,,,magenta,square
0.0,7.0,0.0,1.0,3.0,3.0,307.8790791332721,1.0,1.0,phase_1,,,,,,,,,,,,,blue,triangle
422.0,8.0,4.0,1.0,1.0,1.0,483.2496158778667,1.0,1.0,phase_1,,,,,,,,,,,,,cyan,flipped triangle
57.0,1.0,1.0,0.0,3.0,3.0,368.5561344027519,1.0,1.0,phase_1,,,,,,,,,,,,,magenta,square
0.0,6.0,0.0,1.0,4.0,4.0,363.0708511918783,1.0,1.0,phase_1,,,,,,,,,,,,,green,I
179.0,3.0,3.0,0.0,2.0,2.0,425.7851261645555,1.0,1.0,phase_1,,,,,,,,,,,,,white,hexagon
0.0,1.0,0.0,0.0,4.0,4.0,349.3605144321918,1.0,1.0,phase_1,,,,,,,,,,,,,magenta,square
54.0,5.0,1.0,1.0,1.0,1.0,400.7787015289068,1.0,1.0,phase_1,,,,,,,,,,,,,yellow,circle
212.0,7.0,3.0,1.0,4.0,4.0,397.6791650056839,1.0,1.0,phase_1,,,,,,,,,,,,,blue,triangle
118.0,2.0,2.0,0.0,2.0,2.0,401.2336246669292,1.0,1.0,phase_1,,,,,,,,,,,,,gray,diamond
0.0,5.0,0.0,1.0,1.0,1.0,407.2242472320795,1.0,1.0,phase_1,,,,,,,,,,,,,yellow,circle
68.0,5.0,1.0,1.0,3.0,3.0,340.9405015408993,1.0,1.0,phase_1,,,,,,,,,,,,,yellow,circle
186.0,3.0,3.0,0.0,2.0,2.0,393.2553846389055,1.0,1.0,phase_1,,,,,,,,,,,,,white,hexagon
111.0,6.0,2.0,1.0,1.0,1.0,612.7342637628317,1.0,1.0,phase_1,,,,,,,,,,,,,green,I
85.0,2.0,2.0,0.0,2.0,2.0,466.6030090302229,1.0,1.0,phase_1,,,,,,,,,,,,,gray,diamond
381.0,8.0,4.0,1.0,2.0,2.0,357.2953026741743,1.0,1.0,phase_1,,,,,,,,,,,,,cyan,flipped triangle
400.0,4.0,4.0,0.0,4.0,4.0,330.3219694644213,1.0,1.0,phase_1,,,,,,,,,,,,,orange,cross
68.0,1.0,1.0,0.0,2.0,2.0,265.7329589128494,1.0,1.0,phase_1,,,,,,,,,,,,,magenta,square
96.0,2.0,2.0,0.0,4.0,4.0,333.8755518198013,1.0,1.0,phase_1,,,,,,,,,,,,,gray,diamond
186.0,7.0,3.0,1.0,4.0,4.0,377.1825693547725,1.0,1.0,phase_1,,,,,,,,,,,,,blue,triangle
0.0,2.0,0.0,0.0,1.0,1.0,438.5101590305567,1.0,1.0,phase_1,,,,,,,,,,,,,gray,diamond
0.0,3.0,0.0,0.0,4.0,4.0,402.5355726480484,1.0,1.0,phase_1,,,,,,,,,,,,,white,hexagon
388.0,8.0,4.0,1.0,4.0,4.0,352.2868547588587,1.0,1.0,phase_1,,,,,,,,,,,,,cyan,flipped triangle
400.0,8.0,4.0,1.0,2.0,2.0,323.5127311199903,1.0,1.0,phase_1,,,,,,,,,,,,,cyan,flipped triangle
200.0,7.0,3.0,1.0,3.0,3.0,368.0805638432503,1.0,1.0,phase_1,,,,,,,,,,,,,blue,triangle
417.0,4.0,4.0,0.0,4.0,4.0,405.1106814295053,1.0,1.0,phase_1,,,,,,,,,,,,,orange,cross
80.0,6.0,2.0,1.0,2.0,2.0,392.6402665674686,1.0,1.0,phase_1,,,,,,,,,,,,,green,I
117.0,6.0,2.0,1.0,1.0,1.0,512.4526172876358,1.0,1.0,phase_1,,,,,,,,,,,,,green,I
0.0,2.0,0.0,0.0,3.0,3.0,364.5759224891662,1.0,1.0,phase_1,,,,,,,,,,,,,gray,diamond
37.0,1.0,1.0,0.0,2.0,2.0,401.7117209732532,1.0,1.0,phase_1,,,,,,,,,,,,,magenta,square
176.0,7.0,3.0,1.0,3.0,3.0,412.5745147466659,1.0,1.0,phase_1,,,,,,,,,,,,,blue,triangle
97.0,6.0,2.0,1.0,1.0,1.0,434.3291632831096,1.0,1.0,phase_1,,,,,,,,,,,,,green,I
77.0,2.0,2.0,0.0,3.0,3.0,367.7830155938864,1.0,1.0,phase_1,,,,,,,,,,,,,gray,diamond
179.0,7.0,3.0,1.0,1.0,1.0,411.7420297116041,1.0,1.0,phase_1,,,,,,,,,,,,,blue,triangle
39.0,1.0,1.0,0.0,4.0,4.0,504.09129820764065,1.0,1.0,phase_1,,,,,,,,,,,,,magenta,square
0.0,1.0,0.0,0.0,2.0,2.0,467.2380518168211,1.0,1.0,phase_1,,,,,,,,,,,,,magenta,square
422.0,4.0,4.0,0.0,2.0,2.0,464.481795206666,1.0,1.0,phase_1,,,,,,,,,,,,,orange,cross
202.0,7.0,3.0,1.0,1.0,1.0,414.4667256623506,1.0,1.0,phase_1,,,,,,,,,,,,,blue,triangle
398.0,4.0,4.0,0.0,4.0,4.0,386.233052238822,1.0,1.0,phase_1,,,,,,,,,,,,,orange,cross
397.0,4.0,4.0,0.0,2.0,2.0,377.5750175118446,1.0,1.0,phase_1,,,,,,,,,,,,,orange,cross
0.0,6.0,0.0,1.0,4.0,4.0,395.6887479871511,1.0,1.0,phase_1,,,,,,,,,,,,,green,I
381.0,4.0,4.0,0.0,3.0,3.0,352.8673406690359,1.0,1.0,phase_1,,,,,,,,,,,,,orange,cross
391.0,4.0,4.0,0.0,3.0,3.0,324.6613591909408,1.0,1.0,phase_1,,,,,,,,,,,,,orange,cross
38.0,5.0,1.0,1.0,4.0,4.0,476.1574994772672,1.0,1.0,phase_1,,,,,,,,,,,,,yellow,circle
383.0,8.0,4.0,1.0,4.0,4.0,455.899653956294,1.0,1.0,phase_1,,,,,,,,,,,,,cyan,flipped triangle
82.0,6.0,2.0,1.0,2.0,2.0,361.5707755088806,1.0,1.0,phase_1,,,,,,,,,,,,,green,I
0.0,1.0,0.0,0.0,4.0,4.0,368.2675510644912,1.0,1.0,phase_1,,,,,,,,,,,,,magenta,square
176.0,3.0,3.0,0.0,1.0,1.0,413.4375900030136,1.0,1.0,phase_1,,,,,,,,,,,,,white,hexagon
384.0,8.0,4.0,1.0,4.0,4.0,419.0744571387768,1.0,1.0,phase_1,,,,,,,,,,,,,cyan,flipped triangle
44.0,5.0,1.0,1.0,3.0,3.0,356.5577324479818,1.0,1.0,phase_1,,,,,,,,,,,,,yellow,circle
0.0,8.0,0.0,1.0,2.0,2.0,468.3055896311998,1.0,1.0,phase_1,,,,,,,,,,,,,cyan,flipped triangle
54.0,1.0,1.0,0.0,3.0,3.0,376.8444526940584,1.0,1.0,phase_1,,,,,,,,,,,,,magenta,square
38.0,1.0,1.0,0.0,4.0,4.0,338.8306405395269,1.0,1.0,phase_1,,,,,,,,,,,,,magenta,square
380.0,4.0,4.0,0.0,1.0,1.0,561.5020748227835,1.0,1.0,phase_1,,,,,,,,,,,,,orange,cross
39.0,5.0,1.0,1.0,1.0,1.0,542.4089431762695,1.0,1.0,phase_1,,,,,,,,,,,,,yellow,circle
41.0,1.0,1.0,0.0,2.0,2.0,377.0248871296644,1.0,1.0,phase_1,,,,,,,,,,,,,magenta,square
28.0,1.0,1.0,0.0,1.0,1.0,391.2518490105867,1.0,1.0,phase_1,,,,,,,,,,,,,magenta,square
200.0,3.0,3.0,0.0,4.0,4.0,347.071984782815,1.0,1.0,phase_1,,,,,,,,,,,,,white,hexagon
210.0,7.0,3.0,1.0,2.0,2.0,442.6969271153211,1.0,1.0,phase_1,,,,,,,,,,,,,blue,triangle
397.0,8.0,4.0,1.0,3.0,3.0,372.1273504197597,2.0,1.0,phase_1,,,,,,,,,,,,,cyan,flipped triangle
118.0,6.0,2.0,1.0,4.0,4.0,357.3241215199232,2.0,1.0,phase_1,,,,,,,,,,,,,green,I
96.0,2.0,2.0,0.0,3.0,3.0,339.5194355398416,2.0,1.0,phase_1,,,,,,,,,,,,,gray,diamond
41.0,5.0,1.0,1.0,2.0,2.0,305.0101716071367,2.0,1.0,phase_1,,,,,,,,,,,,,yellow,circle
203.0,3.0,3.0,0.0,1.0,1.0,373.8552629947662,2.0,1.0,phase_1,,,,,,,,,,,,,white,hexagon
0.0,4.0,0.0,0.0,3.0,3.0,327.7246337383985,2.0,1.0,phase_1,,,,,,,,,,,,,orange,cross
214.0,7.0,3.0,1.0,2.0,2.0,286.8543360382318,2.0,1.0,phase_1,,,,,,,,,,,,,blue,triangle
401.0,8.0,4.0,1.0,4.0,4.0,369.202695786953,2.0,1.0,phase_1,,,,,,,,,,,,,cyan,flipped triangle
0.0,2.0,0.0,0.0,1.0,1.0,429.8754762858152,2.0,1.0,phase_1,,,,,,,,,,,,,gray,diamond
401.0,4.0,4.0,0.0,1.0,1.0,453.5941239446401,2.0,1.0,phase_1,,,,,,,,,,,,,orange,cross
31.0,1.0,1.0,0.0,4.0,4.0,378.7066545337438,2.0,1.0,phase_1,,,,,,,,,,,,,magenta,square
80.0,2.0,2.0,0.0,1.0,1.0,471.3938850909471,2.0,1.0,phase_1,,,,,,,,,,,,,gray,diamond
72.0,5.0,1.0,1.0,1.0,1.0,520.8354070782661,2.0,1.0,phase_1,,,,,,,,,,,,,yellow,circle
200.0,3.0,3.0,0.0,1.0,1.0,368.553539738059,2.0,1.0,phase_1,,,,,,,,,,,,,white,hexagon
64.0,5.0,1.0,1.0,3.0,3.0,380.5824797600508,2.0,1.0,phase_1,,,,,,,,,,,,,yellow,circle
0.0,5.0,0.0,1.0,4.0,4.0,441.6008740663528,2.0,1.0,phase_1,,,,,,,,,,,,,yellow,circle
103.0,6.0,2.0,1.0,2.0,2.0,319.3112444132566,2.0,1.0,phase_1,,,,,,,,,,,,,green,I
0.0,3.0,0.0,0.0,3.0,3.0,322.4229626357555,2.0,1.0,phase_1,,,,,,,,,,,,,white,hexagon
380.0,8.0,4.0,1.0,4.0,4.0,302.7603235095739,2.0,1.0,phase_1,,,,,,,,,,,,,cyan,flipped triangle
418.0,4.0,4.0,0.0,4.0,4.0,381.3098520040512,2.0,1.0,phase_1,,,,,,,,,,,,,orange,cross
0.0,8.0,0.0,1.0,3.0,3.0,349.9557171016931,2.0,1.0,phase_1,,,,,,,,,,,,,cyan,flipped triangle
0.0,4.0,0.0,0.0,2.0,2.0,451.2362368404865,2.0,1.0,phase_1,,,,,,,,,,,,,orange,cross
384.0,4.0,4.0,0.0,3.0,3.0,419.5064548403024,2.0,1.0,phase_1,,,,,,,,,,,,,orange,cross
181.0,3.0,3.0,0.0,2.0,2.0,396.4380957186222,2.0,1.0,phase_1,,,,,,,,,,,,,white,hexagon
390.0,4.0,4.0,0.0,2.0,2.0,353.8118470460176,2.0,1.0,phase_1,,,,,,,,,,,,,orange,cross
223.0,7.0,3.0,1.0,1.0,1.0,405.7375844568014,2.0,1.0,phase_1,,,,,,,,,,,,,blue,triangle
62.0,5.0,1.0,1.0,1.0,1.0,436.7031026631593,2.0,1.0,phase_1,,,,,,,,,,,,,yellow,circle
414.0,8.0,4.0,1.0,1.0,1.0,386.8879657238722,2.0,1.0,phase_1,,,,,,,,,,,,,cyan,flipped triangle
93.0,2.0,2.0,0.0,3.0,3.0,382.9387836158275,2.0,1.0,phase_1,,,,,,,,,,,,,gray,diamond
408.0,8.0,4.0,1.0,2.0,2.0,379.6116877347231,2.0,1.0,phase_1,,,,,,,,,,,,,cyan,flipped triangle
194.0,7.0,3.0,1.0,4.0,4.0,493.2829737663269,2.0,1.0,phase_1,,,,,,,,,,,,,blue,triangle
395.0,4.0,4.0,0.0,2.0,2.0,460.3978134691715,2.0,1.0,phase_1,,,,,,,,,,,,,orange,cross
217.0,3.0,3.0,0.0,3.0,3.0,406.239116564393,2.0,1.0,phase_1,,,,,,,,,,,,,white,hexagon
193.0,3.0,3.0,0.0,1.0,1.0,534.0053010731936,2.0,1.0,phase_1,,,,,,,,,,,,,white,hexagon
0.0,5.0,0.0,1.0,1.0,1.0,415.9556291997432,2.0,1.0,phase_1,,,,,,,,,,,,,yellow,circle
49.0,5.0,1.0,1.0,3.0,3.0,325.770016759634,2.0,1.0,phase_1,,,,,,,,,,,,,yellow,circle
403.0,8.0,4.0,1.0,2.0,2.0,370.3501485288143,2.0,1.0,phase_1,,,,,,,,,,,,,cyan,flipped triangle
72.0,1.0,1.0,0.0,2.0,2.0,357.9077608883381,2.0,1.0,phase_1,,,,,,,,,,,,,magenta,square
422.0,4.0,4.0,0.0,2.0,2.0,370.7961905747652,2.0,1.0,phase_1,,,,,,,,,,,,,orange,cross
103.0,6.0,2.0,1.0,2.0,2.0,383.1752445548773,2.0,1.0,phase_1,,,,,,,,,,,,,green,I
188.0,7.0,3.0,1.0,1.0,1.0,526.9197449088097,2.0,1.0,phase_1,,,,,,,,,,,,,blue,triangle
406.0,4.0,4.0,0.0,1.0,1.0,340.4482267796993,2.0,1.0,phase_1,,,,,,,,,,,,,orange,cross
118.0,2.0,2.0,0.0,2.0,2.0,343.9930975437164,2.0,1.0,phase_1,,,,,,,,,,,,,gray,diamond
383.0,4.0,4.0,0.0,1.0,1.0,365.0607150048017,2.0,1.0,phase_1,,,,,,,,,,,,,orange,cross
0.0,1.0,0.0,0.0,2.0,2.0,374.6054321527481,2.0,1.0,phase_1,,,,,,,,,,,,,magenta,square
183.0,7.0,3.0,1.0,1.0,1.0,357.4499860405922,2.0,1.0,phase_1,,,,,,,,,,,,,blue,triangle
122.0,6.0,2.0,1.0,3.0,3.0,296.9402894377708,2.0,1.0,phase_1,,,,,,,,,,,,,green,I
27.0,1.0,1.0,0.0,3.0,3.0,383.65299813449377,2.0,1.0,phase_1,,,,,,,,,,,,,magenta,square
0.0,3.0,0.0,0.0,1.0,1.0,379.4632256031036,2.0,1.0,phase_1,,,,,,,,,,,,,white,hexagon
414.0,4.0,4.0,0.0,1.0,1.0,410.1168680936098,2.0,1.0,phase_1,,,,,,,,,,,,,orange,cross
391.0,8.0,4.0,1.0,3.0,3.0,523.9817500114441,2.0,1.0,phase_1,,,,,,,,,,,,,cyan,flipped triangle
408.0,4.0,4.0,0.0,3.0,3.0,368.3759868144989,2.0,1.0,phase_1,,,,,,,,,,,,,orange,cross
413.0,4.0,4.0,0.0,3.0,3.0,344.5990700274706,2.0,1.0,phase_1,,,,,,,,,,,,,orange,cross
114.0,6.0,2.0,1.0,2.0,2.0,457.3237393051386,2.0,1.0,phase_1,,,,,,,,,,,,,green,I
183.0,3.0,3.0,0.0,1.0,1.0,414.4005533307791,2.0,1.0,phase_1,,,,,,,,,,,,,white,hexagon
415.0,8.0,4.0,1.0,3.0,3.0,322.72743806242937,2.0,1.0,phase_1,,,,,,,,,,,,,cyan,flipped triangle
412.0,8.0,4.0,1.0,4.0,4.0,383.5854884237051,2.0,1.0,phase_1,,,,,,,,,,,,,cyan,flipped triangle
219.0,3.0,3.0,0.0,2.0,2.0,405.5134505033493,2.0,1.0,phase_1,,,,,,,,,,,,,white,hexagon
223.0,3.0,3.0,0.0,1.0,1.0,360.6058843433857,2.0,1.0,phase_1,,,,,,,,,,,,,white,hexagon
33.0,1.0,1.0,0.0,1.0,1.0,366.9236749410629,2.0,1.0,phase_1,,,,,,,,,,,,,magenta,square
118.0,6.0,2.0,1.0,3.0,3.0,570.3790653496981,2.0,1.0,phase_1,,,,,,,,,,,,,green,I
195.0,3.0,3.0,0.0,3.0,3.0,327.1928709000349,2.0,1.0,phase_1,,,,,,,,,,,,,white,hexagon
405.0,4.0,4.0,0.0,3.0,3.0,302.737757563591,2.0,1.0,phase_1,,,,,,,,,,,,,orange,cross
33.0,1.0,1.0,0.0,4.0,4.0,440.684599801898,2.0,1.0,phase_1,,,,,,,,,,,,,magenta,square
398.0,8.0,4.0,1.0,1.0,1.0,383.6125116795301,2.0,1.0,phase_1,,,,,,,,,,,,,cyan,flipped triangle
55.0,1.0,1.0,0.0,2.0,2.0,361.9955945760011,2.0,1.0,phase_1,,,,,,,,,,,,,magenta,square
97.0,2.0,2.0,0.0,4.0,4.0,350.6656158715486,2.0,1.0,phase_1,,,,,,,,,,,,,gray,diamond
224.0,3.0,3.0,0.0,4.0,4.0,470.78165225684637,2.0,1.0,phase_1,,,,,,,,,,,,,white,hexagon
223.0,7.0,3.0,1.0,1.0,1.0,490.0248739868402,2.0,1.0,phase_1,,,,,,,,,,,,,blue,triangle
201.0,3.0,3.0,0.0,4.0,4.0,367.011709138751,2.0,1.0,phase_1,,,,,,,,,,,,,white,hexagon
115.0,2.0,2.0,0.0,3.0,3.0,352.3721657693386,2.0,1.0,phase_1,,,,,,,,,,,,,gray,diamond
183.0,7.0,3.0,1.0,1.0,1.0,309.5905072987079,2.0,1.0,phase_1,,,,,,,,,,,,,blue,triangle
53.0,5.0,1.0,1.0,1.0,1.0,316.4121191948652,2.0,1.0,phase_1,,,,,,,,,,,,,yellow,circle
0.0,6.0,0.0,1.0,4.0,4.0,326.7587423324585,2.0,1.0,phase_1,,,,,,,,,,,,,green,I
88.0,2.0,2.0,0.0,2.0,2.0,290.9234222024679,2.0,1.0,phase_1,,,,,,,,,,,,,gray,diamond
0.0,7.0,0.0,1.0,4.0,4.0,434.4055522233248,2.0,1.0,phase_1,,,,,,,,,,,,,blue,triangle
193.0,7.0,3.0,1.0,3.0,3.0,324.698643758893,2.0,1.0,phase_1,,,,,,,,,,,,,blue,triangle
198.0,3.0,3.0,0.0,3.0,3.0,266.4186712354421,2.0,1.0,phase_1,,,,,,,,,,,,,white,hexagon
82.0,2.0,2.0,0.0,1.0,1.0,384.9398996680975,2.0,1.0,phase_1,,,,,,,,,,,,,gray,diamond
107.0,2.0,2.0,0.0,4.0,4.0,435.2261368185282,2.0,1.0,phase_1,,,,,,,,,,,,,gray,diamond
418.0,8.0,4.0,1.0,2.0,2.0,378.6989152431488,2.0,1.0,phase_1,,,,,,,,,,,,,cyan,flipped triangle
68.0,5.0,1.0,1.0,4.0,4.0,335.8129523694515,2.0,1.0,phase_1,,,,,,,,,,,,,yellow,circle
64.0,5.0,1.0,1.0,4.0,4.0,363.0225826054811,2.0,1.0,phase_1,,,,,,,,,,,,,yellow,circle
412.0,4.0,4.0,0.0,2.0,2.0,446.6186668723821,2.0,1.0,phase_1,,,,,,,,,,,,,orange,cross
102.0,2.0,2.0,0.0,1.0,1.0,459.02512781322,2.0,1.0,phase_1,,,,,,,,,,,,,gray,diamond
403.0,4.0,4.0,0.0,4.0,4.0,360.3621553629637,2.0,1.0,phase_1,,,,,,,,,,,,,orange,cross
0.0,3.0,0.0,0.0,3.0,3.0,367.7781224250793,2.0,1.0,phase_1,,,,,,,,,,,,,white,hexagon
0.0,1.0,0.0,0.0,3.0,3.0,361.8141692131758,2.0,1.0,phase_1,,,,,,,,,,,,,magenta,square
178.0,7.0,3.0,1.0,3.0,3.0,317.7440371364355,2.0,1.0,phase_1,,,,,,,,,,,,,blue,triangle
0.0,1.0,0.0,0.0,3.0,3.0,330.7209201157093,2.0,1.0,phase_1,,,,,,,,,,,,,magenta,square
63.0,5.0,1.0,1.0,2.0,2.0,407.1498792618513,2.0,1.0,phase_1,,,,,,,,,,,,,yellow,circle
0.0,7.0,0.0,1.0,1.0,1.0,428.8146328181028,2.0,1.0,phase_1,,,,,,,,,,,,,blue,triangle
0.0,7.0,0.0,1.0,2.0,2.0,346.8900639563799,2.0,1.0,phase_1,,,,,,,,,,,,,blue,triangle
224.0,7.0,3.0,1.0,3.0,3.0,358.4349770098924,2.0,1.0,phase_1,,,,,,,,,,,,,blue,triangle
0.0,6.0,0.0,1.0,3.0,3.0,387.7790495753288,2.0,1.0,phase_1,,,,,,,,,,,,,green,I
212.0,3.0,3.0,0.0,3.0,3.0,317.87247955799097,2.0,1.0,phase_1,,,,,,,,,,,,,white,hexagon
0.0,6.0,0.0,1.0,3.0,3.0,330.8641109615564,2.0,1.0,phase_1,,,,,,,,,,,,,green,I
0.0,1.0,0.0,0.0,1.0,1.0,378.9992518723011,2.0,1.0,phase_1,,,,,,,,,,,,,magenta,square
107.0,6.0,2.0,1.0,3.0,3.0,325.7226664572954,2.0,1.0,phase_1,,,,,,,,,,,,,green,I
96.0,6.0,2.0,1.0,3.0,3.0,306.6208809614181,2.0,1.0,phase_1,,,,,,,,,,,,,green,I
98.0,6.0,2.0,1.0,4.0,4.0,355.9098001569509,3.0,1.0,phase_1,,,,,,,,,,,,,green,I
422.0,8.0,4.0,1.0,2.0,2.0,286.7386974394321,3.0,1.0,phase_1,,,,,,,,,,,,,cyan,flipped triangle
42.0,5.0,1.0,1.0,2.0,2.0,381.5588112920522,3.0,1.0,phase_1,,,,,,,,,,,,,yellow,circle
193.0,7.0,3.0,1.0,3.0,3.0,377.0935442298651,3.0,1.0,phase_1,,,,,,,,,,,,,blue,triangle
42.0,1.0,1.0,0.0,3.0,3.0,342.4605522304773,3.0,1.0,phase_1,,,,,,,,,,,,,magenta,square
58.0,1.0,1.0,0.0,1.0,1.0,449.3740312755108,3.0,1.0,phase_1,,,,,,,,,,,,,magenta,square
0.0,8.0,0.0,1.0,4.0,4.0,303.5679832100868,3.0,1.0,phase_1,,,,,,,,,,,,,cyan,flipped triangle
385.0,4.0,4.0,0.0,2.0,2.0,358.3621643483639,3.0,1.0,phase_1,,,,,,,,,,,,,orange,cross
81.0,2.0,2.0,0.0,1.0,1.0,384.10046696662897,3.0,1.0,phase_1,,,,,,,,,,,,,gray,diamond
407.0,4.0,4.0,0.0,3.0,3.0,294.8297634720802,3.0,1.0,phase_1,,,,,,,,,,,,,orange,cross
210.0,3.0,3.0,0.0,4.0,4.0,355.683796107769,3.0,1.0,phase_1,,,,,,,,,,,,,white,hexagon
420.0,8.0,4.0,1.0,2.0,2.0,384.7581148147583,3.0,1.0,phase_1,,,,,,,,,,,,,cyan,flipped triangle
409.0,8.0,4.0,1.0,1.0,1.0,405.8720581233501,3.0,1.0,phase_1,,,,,,,,,,,,,cyan,flipped triangle
98.0,2.0,2.0,0.0,3.0,3.0,327.196417376399,3.0,1.0,phase_1,,,,,,,,,,,,,gray,diamond
185.0,3.0,3.0,0.0,2.0,2.0,276.452450081706,3.0,1.0,phase_1,,,,,,,,,,,,,white,hexagon
61.0,1.0,1.0,0.0,1.0,1.0,363.3481748402118,3.0,1.0,phase_1,,,,,,,,,,,,,magenta,square
0.0,4.0,0.0,0.0,3.0,3.0,341.1305882036686,3.0,1.0,phase_1,,,,,,,,,,,,,orange,cross
41.0,1.0,1.0,0.0,4.0,4.0,330.1363606005907,3.0,1.0,phase_1,,,,,,,,,,,,,magenta,square
0.0,3.0,0.0,0.0,2.0,2.0,305.3783904761076,3.0,1.0,phase_1,,,,,,,,,,,,,white,hexagon
0.0,2.0,0.0,0.0,2.0,2.0,363.3502125740051,3.0,1.0,phase_1,,,,,,,,,,,,,gray,diamond
111.0,2.0,2.0,0.0,3.0,3.0,295.5677323043346,3.0,1.0,phase_1,,,,,,,,,,,,,gray,diamond
420.0,4.0,4.0,0.0,1.0,1.0,317.6161851733923,3.0,1.0,phase_1,,,,,,,,,,,,,orange,cross
124.0,6.0,2.0,1.0,3.0,3.0,299.9809887260198,3.0,1.0,phase_1,,,,,,,,,,,,,green,I
0.0,4.0,0.0,0.0,4.0,4.0,462.4060317873955,3.0,1.0,phase_1,,,,,,,,,,,,,orange,cross
38.0,5.0,1.0,1.0,1.0,1.0,428.2102193683386,3.0,1.0,phase_1,,,,,,,,,,,,,yellow,circle
0.0,8.0,0.0,1.0,2.0,2.0,391.4397861808538,3.0,1.0,phase_1,,,,,,,,,,,,,cyan,flipped triangle
183.0,3.0,3.0,0.0,2.0,2.0,375.5179326981306,3.0,1.0,phase_1,,,,,,,,,,,,,white,hexagon
38.0,1.0,1.0,0.0,2.0,2.0,307.4491806328296,3.0,1.0,phase_1,,,,,,,,,,,,,magenta,square
393.0,4.0,4.0,0.0,4.0,4.0,373.2366412878036,3.0,1.0,phase_1,,,,,,,,,,,,,orange,cross
31.0,5.0,1.0,1.0,4.0,4.0,398.5487520694732,3.0,1.0,phase_1,,,,,,,,,,,,,yellow,circle
417.0,8.0,4.0,1.0,1.0,1.0,560.5671312659979,3.0,1.0,phase_1,,,,,,,,,,,,,cyan,flipped triangle
401.0,8.0,4.0,1.0,1.0,1.0,311.0482878983021,3.0,1.0,phase_1,,,,,,,,,,,,,cyan,flipped triangle
70.0,5.0,1.0,1.0,2.0,2.0,440.473748371005,3.0,1.0,phase_1,,,,,,,,,,,,,yellow,circle
392.0,4.0,4.0,0.0,2.0,2.0,357.4222344905138,3.0,1.0,phase_1,,,,,,,,,,,,,orange,cross
200.0,7.0,3.0,1.0,2.0,2.0,364.9202715605497,3.0,1.0,phase_1,,,,,,,,,,,,,blue,triangle
63.0,1.0,1.0,0.0,4.0,4.0,429.6284597367048,3.0,1.0,phase_1,,,,,,,,,,,,,magenta,square
204.0,3.0,3.0,0.0,1.0,1.0,514.600271359086,3.0,1.0,phase_1,,,,,,,,,,,,,white,hexagon
207.0,7.0,3.0,1.0,2.0,2.0,418.7852200120687,3.0,1.0,phase_1,,,,,,,,,,,,,blue,triangle
188.0,3.0,3.0,0.0,4.0,4.0,427.7928676456213,3.0,1.0,phase_1,,,,,,,,,,,,,white,hexagon
0.0,5.0,0.0,1.0,2.0,2.0,384.9738128483295,3.0,1.0,phase_1,,,,,,,,,,,,,yellow,circle
0.0,6.0,0.0,1.0,3.0,3.0,389.3920108675957,3.0,1.0,phase_1,,,,,,,,,,,,,green,I
0.0,6.0,0.0,1.0,1.0,1.0,547.7619674056768,3.0,1.0,phase_1,,,,,,,,,,,,,green,I
378.0,8.0,4.0,1.0,1.0,1.0,414.5197439938783,3.0,1.0,phase_1,,,,,,,,,,,,,cyan,flipped triangle
204.0,7.0,3.0,1.0,3.0,3.0,364.5325098186731,3.0,1.0,phase_1,,,,,,,,,,,,,blue,triangle
77.0,6.0,2.0,1.0,3.0,3.0,370.8222918212414,3.0,1.0,phase_1,,,,,,,,,,,,,green,I
27.0,1.0,1.0,0.0,2.0,2.0,503.53290140628815,3.0,1.0,phase_1,,,,,,,,,,,,,magenta,square
0.0,4.0,0.0,0.0,2.0,2.0,418.7911935150623,3.0,1.0,phase_1,,,,,,,,,,,,,orange,cross
41.0,5.0,1.0,1.0,2.0,2.0,401.1788945645094,3.0,1.0,phase_1,,,,,,,,,,,,,yellow,circle
33.0,5.0,1.0,1.0,4.0,4.0,426.6753848642111,3.0,1.0,phase_1,,,,,,,,,,,,,yellow,circle
385.0,8.0,4.0,1.0,3.0,3.0,481.8646032363176,3.0,1.0,phase_1,,,,,,,,,,,,,cyan,flipped triangle
202.0,3.0,3.0,0.0,4.0,4.0,583.0862522125244,3.0,1.0,phase_1,,,,,,,,,,,,,white,hexagon
52.0,5.0,1.0,1.0,4.0,4.0,417.3280745744705,3.0,1.0,phase_1,,,,,,,,,,,,,yellow,circle
0.0,3.0,0.0,0.0,1.0,1.0,485.4071754962206,3.0,1.0,phase_1,,,,,,,,,,,,,white,hexagon
0.0,4.0,0.0,0.0,2.0,2.0,396.3794484734535,3.0,1.0,phase_1,,,,,,,,,,,,,orange,cross
0.0,8.0,0.0,1.0,2.0,2.0,455.7202830910682,3.0,1.0,phase_1,,,,,,,,,,,,,cyan,flipped triangle
0.0,1.0,0.0,0.0,2.0,2.0,359.0775579214096,3.0,1.0,phase_1,,,,,,,,,,,,,magenta,square
214.0,3.0,3.0,0.0,4.0,4.0,387.4970488250255,3.0,1.0,phase_1,,,,,,,,,,,,,white,hexagon
109.0,2.0,2.0,0.0,1.0,1.0,495.001669973135,3.0,1.0,phase_1,,,,,,,,,,,,,gray,diamond
58.0,5.0,1.0,1.0,4.0,4.0,436.4811107516289,3.0,1.0,phase_1,,,,,,,,,,,,,yellow,circle
58.0,1.0,1.0,0.0,4.0,4.0,334.3907985836267,3.0,1.0,phase_1,,,,,,,,,,,,,magenta,square
43.0,5.0,1.0,1.0,3.0,3.0,383.0488305538893,3.0,1.0,phase_1,,,,,,,,,,,,,yellow,circle
214.0,7.0,3.0,1.0,4.0,4.0,371.9715569168329,3.0,1.0,phase_1,,,,,,,,,,,,,blue,triangle
47.0,1.0,1.0,0.0,2.0,2.0,390.1219051331281,3.0,1.0,phase_1,,,,,,,,,,,,,magenta,square
49.0,1.0,1.0,0.0,3.0,3.0,345.2420681715011,3.0,1.0,phase_1,,,,,,,,,,,,,magenta,square
195.0,7.0,3.0,1.0,3.0,3.0,385.7303112745285,3.0,1.0,phase_1,,,,,,,,,,,,,blue,triangle
0.0,5.0,0.0,1.0,2.0,2.0,396.7091292142868,3.0,1.0,phase_1,,,,,,,,,,,,,yellow,circle
87.0,2.0,2.0,0.0,3.0,3.0,377.1106842905283,3.0,1.0,phase_1,,,,,,,,,,,,,gray,diamond
62.0,1.0,1.0,0.0,4.0,4.0,415.2218364179134,3.0,1.0,phase_1,,,,,,,,,,,,,magenta,square
217.0,3.0,3.0,0.0,3.0,3.0,338.2376562803983,3.0,1.0,phase_1,,,,,,,,,,,,,white,hexagon
82.0,2.0,2.0,0.0,1.0,1.0,333.3134856075048,3.0,1.0,phase_1,,,,,,,,,,,,,gray,diamond
396.0,8.0,4.0,1.0,3.0,3.0,330.0147000700235,3.0,1.0,phase_1,,,,,,,,,,,,,cyan,flipped triangle
393.0,8.0,4.0,1.0,1.0,1.0,385.5359237641096,3.0,1.0,phase_1,,,,,,,,,,,,,cyan,flipped triangle
409.0,4.0,4.0,0.0,1.0,1.0,381.4445082098245,3.0,1.0,phase_1,,,,,,,,,,,,,orange,cross
117.0,2.0,2.0,0.0,2.0,2.0,415.5554715543985,3.0,1.0,phase_1,,,,,,,,,,,,,gray,diamond
0.0,5.0,0.0,1.0,2.0,2.0,367.6807060837745,3.0,1.0,phase_1,,,,,,,,,,,,,yellow,circle
100.0,2.0,2.0,0.0,3.0,3.0,388.4860817342996,3.0,1.0,phase_1,,,,,,,,,,,,,gray,diamond
398.0,8.0,4.0,1.0,1.0,1.0,361.5628108382225,3.0,1.0,phase_1,,,,,,,,,,,,,cyan,flipped triangle
223.0,7.0,3.0,1.0,3.0,3.0,364.7682927548885,3.0,1.0,phase_1,,,,,,,,,,,,,blue,triangle
392.0,8.0,4.0,1.0,2.0,2.0,448.1549598276615,3.0,1.0,phase_1,,,,,,,,,,,,,cyan,flipped triangle
96.0,6.0,2.0,1.0,4.0,4.0,406.4671844244003,3.0,1.0,phase_1,,,,,,,,,,,,,green,I
85.0,6.0,2.0,1.0,1.0,1.0,386.9974091649055,3.0,1.0,phase_1,,,,,,,,,,,,,green,I
94.0,6.0,2.0,1.0,1.0,1.0,429.0605708956718,3.0,1.0,phase_1,,,,,,,,,,,,,green,I
47.0,5.0,1.0,1.0,1.0,1.0,326.0981403291225,3.0,1.0,phase_1,,,,,,,,,,,,,yellow,circle
0.0,7.0,0.0,1.0,3.0,3.0,314.9639312177896,3.0,1.0,phase_1,,,,,,,,,,,,,blue,triangle
75.0,6.0,2.0,1.0,1.0,1.0,284.3185923993587,3.0,1.0,phase_1,,,,,,,,,,,,,green,I
41.0,5.0,1.0,1.0,3.0,3.0,323.7779885530472,3.0,1.0,phase_1,,,,,,,,,,,,,yellow,circle
68.0,1.0,1.0,0.0,2.0,2.0,463.586563244462,3.0,1.0,phase_1,,,,,,,,,,,,,magenta,square
205.0,3.0,3.0,0.0,1.0,1.0,377.3810099810362,3.0,1.0,phase_1,,,,,,,,,,,,,white,hexagon
181.0,7.0,3.0,1.0,2.0,2.0,313.3142739534378,3.0,1.0,phase_1,,,,,,,,,,,,,blue,triangle
0.0,8.0,0.0,1.0,2.0,2.0,373.8265931606293,3.0,1.0,phase_1,,,,,,,,,,,,,cyan,flipped triangle
413.0,8.0,4.0,1.0,4.0,4.0,331.4100466668606,3.0,1.0,phase_1,,,,,,,,,,,,,cyan,flipped triangle
0.0,2.0,0.0,0.0,2.0,2.0,340.1254080235958,3.0,1.0,phase_1,,,,,,,,,,,,,gray,diamond
390.0,8.0,4.0,1.0,1.0,1.0,307.9093508422375,3.0,1.0,phase_1,,,,,,,,,,,,,cyan,flipped triangle
41.0,1.0,1.0,0.0,3.0,3.0,341.5295444428921,3.0,1.0,phase_1,,,,,,,,,,,,,magenta,square
376.0,4.0,4.0,0.0,2.0,2.0,378.0076708644628,3.0,1.0,phase_1,,,,,,,,,,,,,orange,cross
0.0,1.0,0.0,0.0,4.0,4.0,391.9526636600494,3.0,1.0,phase_1,,,,,,,,,,,,,magenta,square
387.0,4.0,4.0,0.0,1.0,1.0,414.0287451446056,3.0,1.0,phase_1,,,,,,,,,,,,,orange,cross
198.0,7.0,3.0,1.0,2.0,2.0,308.188984170556,3.0,1.0,phase_1,,,,,,,,,,,,,blue,triangle
82.0,2.0,2.0,0.0,4.0,4.0,422.8986129164696,3.0,1.0,phase_1,,,,,,,,,,,,,gray,diamond
27.0,5.0,1.0,1.0,3.0,3.0,339.3215611577034,3.0,1.0,phase_1,,,,,,,,,,,,,yellow,circle
115.0,6.0,2.0,1.0,4.0,4.0,309.9988140165806,4.0,1.0,phase_1,,,,,,,,,,,,,green,I
87.0,2.0,2.0,0.0,1.0,1.0,379.5805852860212,4.0,1.0,phase_1,,,,,,,,,,,,,gray,diamond
38.0,5.0,1.0,1.0,3.0,3.0,342.8368866443634,4.0,1.0,phase_1,,,,,,,,,,,,,yellow,circle
0.0,6.0,0.0,1.0,4.0,4.0,346.7077445238828,4.0,1.0,phase_1,,,,,,,,,,,,,green,I
411.0,4.0,4.0,0.0,3.0,3.0,377.7240682393312,4.0,1.0,phase_1,,,,,,,,,,,,,orange,cross
47.0,5.0,1.0,1.0,4.0,4.0,403.4988898783922,4.0,1.0,phase_1,,,,,,,,,,,,,yellow,circle
47.0,1.0,1.0,0.0,3.0,3.0,370.5781325697899,4.0,1.0,phase_1,,,,,,,,,,,,,magenta,square
0.0,4.0,0.0,0.0,1.0,1.0,359.0402957051992,4.0,1.0,phase_1,,,,,,,,,,,,,orange,cross
107.0,6.0,2.0,1.0,1.0,1.0,345.9879048168659,4.0,1.0,phase_1,,,,,,,,,,,,,green,I
68.0,5.0,1.0,1.0,2.0,2.0,377.1693781018257,4.0,1.0,phase_1,,,,,,,,,,,,,yellow,circle
395.0,4.0,4.0,0.0,4.0,4.0,340.7356850802898,4.0,1.0,phase_1,,,,,,,,,,,,,orange,cross
97.0,2.0,2.0,0.0,4.0,4.0,307.3965515941381,4.0,1.0,phase_1,,,,,,,,,,,,,gray,diamond
398.0,4.0,4.0,0.0,4.0,4.0,316.7251981794834,4.0,1.0,phase_1,,,,,,,,,,,,,orange,cross
183.0,7.0,3.0,1.0,1.0,1.0,371.2329585105181,4.0,1.0,phase_1,,,,,,,,,,,,,blue,triangle
0.0,2.0,0.0,0.0,4.0,4.0,344.8517080396414,4.0,1.0,phase_1,,,,,,,,,,,,,gray,diamond
44.0,1.0,1.0,0.0,4.0,4.0,324.8102087527513,4.0,1.0,phase_1,,,,,,,,,,,,,magenta,square
219.0,7.0,3.0,1.0,1.0,1.0,315.2071125805378,4.0,1.0,phase_1,,,,,,,,,,,,,blue,triangle
82.0,6.0,2.0,1.0,4.0,4.0,309.2667106539011,4.0,1.0,phase_1,,,,,,,,,,,,,green,I
0.0,1.0,0.0,0.0,1.0,1.0,354.9653347581625,4.0,1.0,phase_1,,,,,,,,,,,,,magenta,square
111.0,2.0,2.0,0.0,4.0,4.0,317.3332568258047,4.0,1.0,phase_1,,,,,,,,,,,,,gray,diamond
27.0,5.0,1.0,1.0,3.0,3.0,356.7516580224037,4.0,1.0,phase_1,,,,,,,,,,,,,yellow,circle
376.0,8.0,4.0,1.0,3.0,3.0,362.7163637429476,4.0,1.0,phase_1,,,,,,,,,,,,,cyan,flipped triangle
124.0,2.0,2.0,0.0,2.0,2.0,327.163876965642,4.0,1.0,phase_1,,,,,,,,,,,,,gray,diamond
0.0,2.0,0.0,0.0,4.0,4.0,419.5620901882648,4.0,1.0,phase_1,,,,,,,,,,,,,gray,diamond
178.0,3.0,3.0,0.0,4.0,4.0,382.6811928302049,4.0,1.0,phase_1,,,,,,,,,,,,,white,hexagon
99.0,6.0,2.0,1.0,1.0,1.0,324.237547814846,4.0,1.0,phase_1,,,,,,,,,,,,,green,I
194.0,3.0,3.0,0.0,3.0,3.0,382.3089804500341,4.0,1.0,phase_1,,,,,,,,,,,,,white,hexagon
0.0,8.0,0.0,1.0,3.0,3.0,355.1515713334083,4.0,1.0,phase_1,,,,,,,,,,,,,cyan,flipped triangle
97.0,6.0,2.0,1.0,3.0,3.0,539.5159814506769,4.0,1.0,phase_1,,,,,,,,,,,,,green,I
105.0,2.0,2.0,0.0,2.0,2.0,365.0299794971943,4.0,1.0,phase_1,,,,,,,,,,,,,gray,diamond
47.0,1.0,1.0,0.0,1.0,1.0,283.876396715641,4.0,1.0,phase_1,,,,,,,,,,,,,magenta,square
87.0,2.0,2.0,0.0,1.0,1.0,445.4282466322183,4.0,1.0,phase_1,,,,,,,,,,,,,gray,diamond
401.0,4.0,4.0,0.0,3.0,3.0,329.8292327672243,4.0,1.0,phase_1,,,,,,,,,,,,,orange,cross
115.0,2.0,2.0,0.0,4.0,4.0,494.5894591510296,4.0,1.0,phase_1,,,,,,,,,,,,,gray,diamond
219.0,3.0,3.0,0.0,1.0,1.0,299.3948627263307,4.0,1.0,phase_1,,,,,,,,,,,,,white,hexagon
185.0,7.0,3.0,1.0,4.0,4.0,464.8563712835312,4.0,1.0,phase_1,,,,,,,,,,,,,blue,triangle
183.0,3.0,3.0,0.0,3.0,3.0,327.9343880712986,4.0,1.0,phase_1,,,,,,,,,,,,,white,hexagon
396.0,4.0,4.0,0.0,4.0,4.0,308.6565788835287,4.0,1.0,phase_1,,,,,,,,,,,,,orange,cross
64.0,1.0,1.0,0.0,2.0,2.0,302.19516903162,4.0,1.0,phase_1,,,,,,,,,,,,,magenta,square
0.0,2.0,0.0,0.0,1.0,1.0,283.6547587066889,4.0,1.0,phase_1,,,,,,,,,,,,,gray,diamond
194.0,7.0,3.0,1.0,4.0,4.0,328.8873955607414,4.0,1.0,phase_1,,,,,,,,,,,,,blue,triangle
214.0,3.0,3.0,0.0,4.0,4.0,382.7207926660776,4.0,1.0,phase_1,,,,,,,,,,,,,white,hexagon
0.0,3.0,0.0,0.0,1.0,1.0,288.8277173042297,4.0,1.0,phase_1,,,,,,,,,,,,,white,hexagon
0.0,7.0,0.0,1.0,1.0,1.0,496.6759774833917,4.0,1.0,phase_1,,,,,,,,,,,,,blue,triangle
0.0,3.0,0.0,0.0,1.0,1.0,341.9522326439619,4.0,1.0,phase_1,,,,,,,,,,,,,white,hexagon
415.0,4.0,4.0,0.0,2.0,2.0,369.7345498949289,4.0,1.0,phase_1,,,,,,,,,,,,,orange,cross
194.0,3.0,3.0,0.0,3.0,3.0,325.7951326668262,4.0,1.0,phase_1,,,,,,,,,,,,,white,hexagon
100.0,6.0,2.0,1.0,4.0,4.0,355.2924692630768,4.0,1.0,phase_1,,,,,,,,,,,,,green,I
0.0,7.0,0.0,1.0,2.0,2.0,349.2104765027761,4.0,1.0,phase_1,,,,,,,,,,,,,blue,triangle
106.0,6.0,2.0,1.0,3.0,3.0,356.8655662238598,4.0,1.0,phase_1,,,,,,,,,,,,,green,I
0.0,5.0,0.0,1.0,1.0,1.0,367.9349031299352,4.0,1.0,phase_1,,,,,,,,,,,,,yellow,circle
88.0,6.0,2.0,1.0,2.0,2.0,325.6329502910375,4.0,1.0,phase_1,,,,,,,,,,,,,green,I
115.0,6.0,2.0,1.0,2.0,2.0,304.7281019389629,4.0,1.0,phase_1,,,,,,,,,,,,,green,I
188.0,7.0,3.0,1.0,2.0,2.0,300.1518920063972,4.0,1.0,phase_1,,,,,,,,,,,,,blue,triangle
103.0,2.0,2.0,0.0,4.0,4.0,370.7690276205539,4.0,1.0,phase_1,,,,,,,,,,,,,gray,diamond
94.0,2.0,2.0,0.0,4.0,4.0,369.7573915123939,4.0,1.0,phase_1,,,,,,,,,,,,,gray,diamond
82.0,6.0,2.0,1.0,1.0,1.0,419.1212262958288,4.0,1.0,phase_1,,,,,,,,,,,,,green,I
414.0,4.0,4.0,0.0,3.0,3.0,329.183466732502,4.0,1.0,phase_1,,,,,,,,,,,,,orange,cross
203.0,7.0,3.0,1.0,4.0,4.0,403.9580281823873,4.0,1.0,phase_1,,,,,,,,,,,,,blue,triangle
183.0,3.0,3.0,0.0,3.0,3.0,282.6522942632437,4.0,1.0,phase_1,,,,,,,,,,,,,white,hexagon
0.0,8.0,0.0,1.0,3.0,3.0,320.2003687620163,4.0,1.0,phase_1,,,,,,,,,,,,,cyan,flipped triangle
217.0,7.0,3.0,1.0,2.0,2.0,354.4448371976614,4.0,1.0,phase_1,,,,,,,,,,,,,blue,triangle
68.0,5.0,1.0,1.0,2.0,2.0,495.8735145628452,4.0,1.0,phase_1,,,,,,,,,,,,,yellow,circle
0.0,2.0,0.0,0.0,1.0,1.0,406.5810367465019,4.0,1.0,phase_1,,,,,,,,,,,,,gray,diamond
81.0,6.0,2.0,1.0,2.0,2.0,343.9134079962969,4.0,1.0,phase_1,,,,,,,,,,,,,green,I
0.0,6.0,0.0,1.0,3.0,3.0,413.2288061082363,4.0,1.0,phase_1,,,,,,,,,,,,,green,I
109.0,6.0,2.0,1.0,3.0,3.0,369.5131093263626,4.0,1.0,phase_1,,,,,,,,,,,,,green,I
52.0,1.0,1.0,0.0,1.0,1.0,464.8337215185165,4.0,1.0,phase_1,,,,,,,,,,,,,magenta,square
414.0,8.0,4.0,1.0,2.0,2.0,314.3651094287634,4.0,1.0,phase_1,,,,,,,,,,,,,cyan,flipped triangle
53.0,1.0,1.0,0.0,3.0,3.0,370.1531775295734,4.0,1.0,phase_1,,,,,,,,,,,,,magenta,square
378.0,4.0,4.0,0.0,1.0,1.0,374.0540873259306,4.0,1.0,phase_1,,,,,,,,,,,,,orange,cross
0.0,3.0,0.0,0.0,2.0,2.0,360.5692163109779,4.0,1.0,phase_1,,,,,,,,,,,,,white,hexagon
188.0,7.0,3.0,1.0,1.0,1.0,342.307198792696,4.0,1.0,phase_1,,,,,,,,,,,,,blue,triangle
47.0,5.0,1.0,1.0,4.0,4.0,469.6763791143894,4.0,1.0,phase_1,,,,,,,,,,,,,yellow,circle
70.0,1.0,1.0,0.0,1.0,1.0,376.2693013995886,4.0,1.0,phase_1,,,,,,,,,,,,,magenta,square
114.0,2.0,2.0,0.0,1.0,1.0,323.2420552521944,4.0,1.0,phase_1,,,,,,,,,,,,,gray,diamond
111.0,6.0,2.0,1.0,4.0,4.0,402.5737643241882,4.0,1.0,phase_1,,,,,,,,,,,,,green,I
0.0,6.0,0.0,1.0,1.0,1.0,334.2822194099426,4.0,1.0,phase_1,,,,,,,,,,,,,green,I
0.0,7.0,0.0,1.0,4.0,4.0,324.23817925155157,4.0,1.0,phase_1,,,,,,,,,,,,,blue,triangle
201.0,7.0,3.0,1.0,4.0,4.0,375.7448848336935,4.0,1.0,phase_1,,,,,,,,,,,,,blue,triangle
223.0,7.0,3.0,1.0,2.0,2.0,354.6487875282764,4.0,1.0,phase_1,,,,,,,,,,,,,blue,triangle
205.0,7.0,3.0,1.0,4.0,4.0,315.3293393552303,4.0,1.0,phase_1,,,,,,,,,,,,,blue,triangle
223.0,3.0,3.0,0.0,1.0,1.0,475.632319226861,4.0,1.0,phase_1,,,,,,,,,,,,,white,hexagon
123.0,2.0,2.0,0.0,1.0,1.0,329.6799845993519,4.0,1.0,phase_1,,,,,,,,,,,,,gray,diamond
58.0,5.0,1.0,1.0,2.0,2.0,383.3019584417343,4.0,1.0,phase_1,,,,,,,,,,,,,yellow,circle
87.0,6.0,2.0,1.0,4.0,4.0,437.778115272522,4.0,1.0,phase_1,,,,,,,,,,,,,green,I
0.0,4.0,0.0,0.0,3.0,3.0,414.8789998143911,4.0,1.0,phase_1,,,,,,,,,,,,,orange,cross
406.0,8.0,4.0,1.0,3.0,3.0,365.3247877955436,4.0,1.0,phase_1,,,,,,,,,,,,,cyan,flipped triangle
61.0,5.0,1.0,1.0,1.0,1.0,497.4623061716556,4.0,1.0,phase_1,,,,,,,,,,,,,yellow,circle
54.0,1.0,1.0,0.0,4.0,4.0,445.1957326382398,4.0,1.0,phase_1,,,,,,,,,,,,,magenta,square
0.0,5.0,0.0,1.0,1.0,1.0,427.1255191415548,4.0,1.0,phase_1,,,,,,,,,,,,,yellow,circle
37.0,5.0,1.0,1.0,3.0,3.0,353.5093292593956,4.0,1.0,phase_1,,,,,,,,,,,,,yellow,circle
395.0,8.0,4.0,1.0,4.0,4.0,333.2297466695308,4.0,1.0,phase_1,,,,,,,,,,,,,cyan,flipped triangle
217.0,7.0,3.0,1.0,3.0,3.0,495.5720119178295,4.0,1.0,phase_1,,,,,,,,,,,,,blue,triangle
0.0,5.0,0.0,1.0,4.0,4.0,342.1818409115076,4.0,1.0,phase_1,,,,,,,,,,,,,yellow,circle
0.0,7.0,0.0,1.0,1.0,1.0,328.8208041340112,4.0,1.0,phase_1,,,,,,,,,,,,,blue,triangle
0.0,3.0,0.0,0.0,4.0,4.0,350.2834998071193,4.0,1.0,phase_1,,,,,,,,,,,,,white,hexagon
68.0,1.0,1.0,0.0,1.0,1.0,348.7964421510696,4.0,1.0,phase_1,,,,,,,,,,,,,magenta,square
93.0,6.0,2.0,1.0,4.0,4.0,319.0759643912315,4.0,1.0,phase_1,,,,,,,,,,,,,green,I
0.0,5.0,0.0,1.0,2.0,2.0,383.1412233412266,4.0,1.0,phase_1,,,,,,,,,,,,,yellow,circle
0.0,5.0,1.0,1.0,6.0,0.0,0.0,1.0,1.0,phase_2,stop,250.0,250.0,4.0,,,,,,,,,yellow,circle
0.0,4.0,4.0,0.0,5.0,5.0,264.0260215848684,1.0,1.0,phase_2,go,250.0,300.0,1.0,,,,,,,,,orange,cross
0.0,3.0,3.0,0.0,5.0,5.0,319.5473663508892,1.0,1.0,phase_2,go,250.0,300.0,1.0,,,,,,,,,white,hexagon
0.0,5.0,1.0,1.0,5.0,0.0,0.0,1.0,1.0,phase_2,stop,250.0,300.0,4.0,,,,,,,,,yellow,circle
0.0,3.0,3.0,0.0,6.0,6.0,383.1512164324522,1.0,1.0,phase_2,go,300.0,300.0,1.0,,,,,,,,,white,hexagon
0.0,8.0,4.0,1.0,5.0,0.0,0.0,1.0,1.0,phase_2,stop,300.0,300.0,4.0,,,,,,,,,cyan,flipped triangle
0.0,5.0,1.0,1.0,5.0,5.0,409.2755038291216,1.0,1.0,phase_2,stop,350.0,300.0,3.0,,,,,,,,,yellow,circle
0.0,4.0,4.0,0.0,5.0,5.0,709.181871265173,1.0,1.0,phase_2,go,300.0,300.0,1.0,,,,,,,,,orange,cross
0.0,6.0,2.0,1.0,5.0,5.0,486.5213595330715,1.0,1.0,phase_2,go,300.0,300.0,1.0,,,,,,,,,green,I
0.0,7.0,3.0,1.0,6.0,0.0,0.0,1.0,1.0,phase_2,stop,300.0,300.0,4.0,,,,,,,,,blue,triangle
0.0,5.0,1.0,1.0,5.0,0.0,0.0,1.0,1.0,phase_2,stop,300.0,350.0,4.0,,,,,,,,,yellow,circle
0.0,7.0,3.0,1.0,6.0,6.0,789.0731487423182,1.0,1.0,phase_2,go,350.0,350.0,1.0,,,,,,,,,blue,triangle
0.0,4.0,4.0,0.0,5.0,5.0,805.6431580334902,1.0,1.0,phase_2,go,350.0,350.0,1.0,,,,,,,,,orange,cross
0.0,2.0,2.0,0.0,6.0,6.0,553.9302732795477,1.0,1.0,phase_2,go,350.0,350.0,1.0,,,,,,,,,gray,diamond
0.0,3.0,3.0,0.0,5.0,5.0,289.1749888658523,1.0,1.0,phase_2,go,350.0,350.0,1.0,,,,,,,,,white,hexagon
0.0,7.0,3.0,1.0,5.0,5.0,413.1147749722004,1.0,1.0,phase_2,stop,350.0,350.0,3.0,,,,,,,,,blue,triangle
0.0,8.0,4.0,1.0,6.0,0.0,0.0,1.0,1.0,phase_2,stop,300.0,350.0,4.0,,,,,,,,,cyan,flipped triangle
0.0,3.0,3.0,0.0,5.0,5.0,593.2268425822258,1.0,1.0,phase_2,go,300.0,400.0,1.0,,,,,,,,,white,hexagon
0.0,1.0,1.0,0.0,6.0,6.0,713.3192960172892,1.0,1.0,phase_2,go,300.0,400.0,1.0,,,,,,,,,magenta,square
0.0,6.0,2.0,1.0,5.0,0.0,0.0,1.0,1.0,phase_2,stop,300.0,400.0,4.0,,,,,,,,,green,I
0.0,1.0,1.0,0.0,5.0,5.0,553.3393360674381,1.0,1.0,phase_2,go,350.0,400.0,1.0,,,,,,,,,magenta,square
0.0,4.0,4.0,0.0,6.0,6.0,447.7762803435325,1.0,1.0,phase_2,go,350.0,400.0,1.0,,,,,,,,,orange,cross
0.0,7.0,3.0,1.0,5.0,0.0,0.0,1.0,1.0,phase_2,stop,350.0,400.0,4.0,,,,,,,,,blue,triangle
0.0,6.0,2.0,1.0,6.0,6.0,365.3856534510851,1.0,1.0,phase_2,stop,400.0,400.0,3.0,,,,,,,,,green,I
0.0,6.0,2.0,1.0,5.0,0.0,0.0,1.0,1.0,phase_2,stop,400.0,350.0,4.0,,,,,,,,,green,I
0.0,7.0,3.0,1.0,6.0,6.0,958.2791514694692,1.0,1.0,phase_2,go,450.0,350.0,1.0,,,,,,,,,blue,triangle
0.0,8.0,4.0,1.0,6.0,6.0,414.5484901964664,1.0,1.0,phase_2,go,450.0,350.0,1.0,,,,,,,,,cyan,flipped triangle
0.0,3.0,3.0,0.0,5.0,5.0,573.5872760415077,1.0,1.0,phase_2,go,450.0,350.0,1.0,,,,,,,,,white,hexagon
0.0,6.0,2.0,1.0,6.0,0.0,0.0,1.0,1.0,phase_2,stop,450.0,350.0,4.0,,,,,,,,,green,I
0.0,5.0,1.0,1.0,5.0,5.0,457.0575039833784,1.0,1.0,phase_2,go,450.0,400.0,1.0,,,,,,,,,yellow,circle
0.0,7.0,3.0,1.0,6.0,6.0,474.7499264776706,1.0,1.0,phase_2,go,450.0,400.0,1.0,,,,,,,,,blue,triangle
0.0,1.0,1.0,0.0,5.0,5.0,472.5991450250149,1.0,1.0,phase_2,go,450.0,400.0,1.0,,,,,,,,,magenta,square
0.0,7.0,3.0,1.0,6.0,6.0,395.2449578791857,1.0,1.0,phase_2,stop,450.0,400.0,3.0,,,,,,,,,blue,triangle
0.0,6.0,2.0,1.0,6.0,0.0,0.0,1.0,1.0,phase_2,stop,450.0,350.0,4.0,,,,,,,,,green,I
0.0,5.0,1.0,1.0,5.0,5.0,542.3891022801399,1.0,1.0,phase_2,stop,450.0,400.0,3.0,,,,,,,,,yellow,circle
0.0,1.0,1.0,0.0,6.0,6.0,606.7516207695007,1.0,1.0,phase_2,go,400.0,400.0,1.0,,,,,,,,,magenta,square
0.0,6.0,2.0,1.0,5.0,5.0,395.4639676958322,2.0,1.0,phase_2,stop,400.0,400.0,3.0,,,,,,,,,green,I
0.0,3.0,3.0,0.0,6.0,6.0,509.5038693398237,2.0,1.0,phase_2,go,350.0,400.0,1.0,,,,,,,,,white,hexagon
0.0,4.0,4.0,0.0,6.0,6.0,277.3606739938259,2.0,1.0,phase_2,go,350.0,400.0,1.0,,,,,,,,,orange,cross
0.0,5.0,1.0,1.0,5.0,5.0,428.9641287177801,2.0,1.0,phase_2,stop,350.0,400.0,3.0,,,,,,,,,yellow,circle
0.0,6.0,2.0,1.0,5.0,0.0,0.0,2.0,1.0,phase_2,stop,300.0,400.0,4.0,,,,,,,,,green,I
0.0,7.0,3.0,1.0,5.0,0.0,0.0,2.0,1.0,phase_2,stop,350.0,400.0,4.0,,,,,,,,,blue,triangle
0.0,4.0,4.0,0.0,5.0,5.0,602.480836212635,2.0,1.0,phase_2,go,400.0,400.0,1.0,,,,,,,,,orange,cross
0.0,4.0,4.0,0.0,6.0,6.0,754.5722499489784,2.0,1.0,phase_2,go,400.0,400.0,1.0,,,,,,,,,orange,cross
0.0,8.0,4.0,1.0,6.0,6.0,376.4490131288767,2.0,1.0,phase_2,stop,400.0,400.0,3.0,,,,,,,,,cyan,flipped triangle
0.0,4.0,4.0,0.0,5.0,5.0,774.9662417918444,2.0,1.0,phase_2,go,400.0,350.0,1.0,,,,,,,,,orange,cross
0.0,6.0,2.0,1.0,5.0,5.0,334.7926139831543,2.0,1.0,phase_2,go,400.0,350.0,1.0,,,,,,,,,green,I
0.0,5.0,1.0,1.0,5.0,5.0,391.8493036180734,2.0,1.0,phase_2,stop,400.0,350.0,3.0,,,,,,,,,yellow,circle
0.0,1.0,1.0,0.0,6.0,6.0,804.4359590858221,2.0,1.0,phase_2,go,350.0,350.0,1.0,,,,,,,,,magenta,square
0.0,3.0,3.0,0.0,5.0,5.0,726.5916559845209,2.0,1.0,phase_2,go,350.0,350.0,1.0,,,,,,,,,white,hexagon
0.0,2.0,2.0,0.0,5.0,5.0,494.4720473140478,2.0,1.0,phase_2,go,350.0,350.0,1.0,,,,,,,,,gray,diamond
0.0,4.0,4.0,0.0,5.0,5.0,723.1867555528879,2.0,1.0,phase_2,go,350.0,350.0,1.0,,,,,,,,,orange,cross
0.0,8.0,4.0,1.0,5.0,5.0,734.4010341912508,2.0,1.0,phase_2,go,350.0,350.0,1.0,,,,,,,,,cyan,flipped triangle
0.0,2.0,2.0,0.0,5.0,5.0,617.8778111934662,2.0,1.0,phase_2,go,350.0,350.0,1.0,,,,,,,,,gray,diamond
0.0,4.0,4.0,0.0,6.0,6.0,523.9704139530659,2.0,1.0,phase_2,go,350.0,350.0,1.0,,,,,,,,,orange,cross
0.0,7.0,3.0,1.0,6.0,0.0,0.0,2.0,1.0,phase_2,stop,350.0,350.0,4.0,,,,,,,,,blue,triangle
0.0,8.0,4.0,1.0,6.0,0.0,0.0,2.0,1.0,phase_2,stop,350.0,400.0,4.0,,,,,,,,,cyan,flipped triangle
0.0,2.0,2.0,0.0,5.0,5.0,538.4179502725601,2.0,1.0,phase_2,go,350.0,450.0,1.0,,,,,,,,,gray,diamond
0.0,3.0,3.0,0.0,6.0,6.0,801.2111335992813,2.0,1.0,phase_2,go,350.0,450.0,1.0,,,,,,,,,white,hexagon
0.0,7.0,3.0,1.0,6.0,6.0,536.7261543869972,2.0,1.0,phase_2,stop,350.0,450.0,3.0,,,,,,,,,blue,triangle
0.0,2.0,2.0,0.0,5.0,5.0,705.2989192306995,2.0,1.0,phase_2,go,350.0,400.0,1.0,,,,,,,,,gray,diamond
0.0,2.0,2.0,0.0,5.0,5.0,661.5360155701637,2.0,1.0,phase_2,go,350.0,400.0,1.0,,,,,,,,,gray,diamond
0.0,4.0,4.0,0.0,5.0,5.0,660.6708709150553,2.0,1.0,phase_2,go,350.0,400.0,1.0,,,,,,,,,orange,cross
0.0,5.0,1.0,1.0,5.0,5.0,463.5126385837793,2.0,1.0,phase_2,go,350.0,400.0,1.0,,,,,,,,,yellow,circle
0.0,4.0,4.0,0.0,6.0,6.0,359.7773276269436,2.0,1.0,phase_2,go,350.0,400.0,1.0,,,,,,,,,orange,cross
0.0,7.0,3.0,1.0,5.0,5.0,607.459144666791,2.0,1.0,phase_2,go,350.0,400.0,1.0,,,,,,,,,blue,triangle
0.0,8.0,4.0,1.0,5.0,0.0,0.0,2.0,1.0,phase_2,stop,350.0,400.0,4.0,,,,,,,,,cyan,flipped triangle
0.0,5.0,1.0,1.0,6.0,6.0,438.2961764931679,2.0,1.0,phase_2,stop,400.0,400.0,3.0,,,,,,,,,yellow,circle
0.0,3.0,3.0,0.0,5.0,5.0,746.254401281476,2.0,1.0,phase_2,go,400.0,350.0,1.0,,,,,,,,,white,hexagon
0.0,5.0,1.0,1.0,5.0,5.0,682.5400292873383,2.0,1.0,phase_2,go,400.0,350.0,1.0,,,,,,,,,yellow,circle
0.0,2.0,2.0,0.0,6.0,6.0,794.5910915732384,2.0,1.0,phase_2,go,400.0,350.0,1.0,,,,,,,,,gray,diamond
0.0,5.0,1.0,1.0,6.0,0.0,0.0,2.0,1.0,phase_2,stop,400.0,350.0,4.0,,,,,,,,,yellow,circle
0.0,7.0,3.0,1.0,5.0,0.0,0.0,3.0,1.0,phase_2,stop,400.0,400.0,4.0,,,,,,,,,blue,triangle
0.0,4.0,4.0,0.0,5.0,5.0,399.053044617176,3.0,1.0,phase_2,go,450.0,400.0,1.0,,,,,,,,,orange,cross
0.0,3.0,3.0,0.0,5.0,5.0,408.1060010939836,3.0,1.0,phase_2,go,450.0,400.0,1.0,,,,,,,,,white,hexagon
0.0,6.0,2.0,1.0,6.0,6.0,373.5367823392153,3.0,1.0,phase_2,stop,450.0,400.0,3.0,,,,,,,,,green,I
0.0,8.0,4.0,1.0,6.0,0.0,0.0,3.0,1.0,phase_2,stop,450.0,350.0,4.0,,,,,,,,,cyan,flipped triangle
0.0,1.0,1.0,0.0,6.0,6.0,720.9193222224712,3.0,1.0,phase_2,go,450.0,400.0,1.0,,,,,,,,,magenta,square
0.0,4.0,4.0,0.0,5.0,5.0,684.3721121549606,3.0,1.0,phase_2,go,450.0,400.0,1.0,,,,,,,,,orange,cross
0.0,1.0,1.0,0.0,6.0,6.0,692.4309860914946,3.0,1.0,phase_2,go,450.0,400.0,1.0,,,,,,,,,magenta,square
0.0,8.0,4.0,1.0,6.0,6.0,350.4011128097772,3.0,1.0,phase_2,stop,450.0,400.0,3.0,,,,,,,,,cyan,flipped triangle
0.0,8.0,4.0,1.0,6.0,0.0,0.0,3.0,1.0,phase_2,stop,450.0,350.0,4.0,,,,,,,,,cyan,flipped triangle
0.0,7.0,3.0,1.0,5.0,5.0,481.9780029356479,3.0,1.0,phase_2,go,450.0,400.0,1.0,,,,,,,,,blue,triangle
0.0,1.0,1.0,0.0,6.0,6.0,769.7088681161404,3.0,1.0,phase_2,go,450.0,400.0,1.0,,,,,,,,,magenta,square
0.0,6.0,2.0,1.0,6.0,6.0,415.293026715517,3.0,1.0,phase_2,stop,450.0,400.0,3.0,,,,,,,,,green,I
0.0,3.0,3.0,0.0,5.0,5.0,354.6833414584398,3.0,1.0,phase_2,go,450.0,350.0,1.0,,,,,,,,,white,hexagon
0.0,2.0,2.0,0.0,5.0,5.0,471.7668443918228,3.0,1.0,phase_2,go,450.0,350.0,1.0,,,,,,,,,gray,diamond
0.0,2.0,2.0,0.0,6.0,6.0,424.1141658276319,3.0,1.0,phase_2,go,450.0,350.0,1.0,,,,,,,,,gray,diamond
0.0,7.0,3.0,1.0,5.0,5.0,416.8310724198818,3.0,1.0,phase_2,stop,450.0,350.0,3.0,,,,,,,,,blue,triangle
0.0,8.0,4.0,1.0,5.0,5.0,616.4777297526598,3.0,1.0,phase_2,go,400.0,350.0,1.0,,,,,,,,,cyan,flipped triangle
0.0,2.0,2.0,0.0,6.0,6.0,472.4153783172369,3.0,1.0,phase_2,go,400.0,350.0,1.0,,,,,,,,,gray,diamond
0.0,4.0,4.0,0.0,6.0,6.0,512.8903314471245,3.0,1.0,phase_2,go,400.0,350.0,1.0,,,,,,,,,orange,cross
0.0,3.0,3.0,0.0,6.0,6.0,598.5183641314507,3.0,1.0,phase_2,go,400.0,350.0,1.0,,,,,,,,,white,hexagon
0.0,4.0,4.0,0.0,5.0,5.0,453.8125973194837,3.0,1.0,phase_2,go,400.0,350.0,1.0,,,,,,,,,orange,cross
0.0,1.0,1.0,0.0,6.0,6.0,403.8047343492508,3.0,1.0,phase_2,go,400.0,350.0,1.0,,,,,,,,,magenta,square
0.0,8.0,4.0,1.0,6.0,6.0,338.9317002147436,3.0,1.0,phase_2,stop,400.0,350.0,3.0,,,,,,,,,cyan,flipped triangle
0.0,1.0,1.0,0.0,5.0,5.0,486.6715464740991,3.0,1.0,phase_2,go,400.0,300.0,1.0,,,,,,,,,magenta,square
0.0,1.0,1.0,0.0,5.0,5.0,665.7390035688877,3.0,1.0,phase_2,go,400.0,300.0,1.0,,,,,,,,,magenta,square
0.0,6.0,2.0,1.0,6.0,6.0,323.6063458025455,3.0,1.0,phase_2,stop,400.0,300.0,3.0,,,,,,,,,green,I
0.0,8.0,4.0,1.0,6.0,0.0,0.0,3.0,1.0,phase_2,stop,400.0,250.0,4.0,,,,,,,,,cyan,flipped triangle
0.0,4.0,4.0,0.0,6.0,6.0,455.97917400300497,3.0,1.0,phase_2,go,400.0,300.0,1.0,,,,,,,,,orange,cross
0.0,3.0,3.0,0.0,5.0,5.0,392.921831458807,3.0,1.0,phase_2,go,400.0,300.0,1.0,,,,,,,,,white,hexagon
0.0,4.0,4.0,0.0,6.0,6.0,329.6973258256912,3.0,1.0,phase_2,go,400.0,300.0,1.0,,,,,,,,,orange,cross
0.0,2.0,2.0,0.0,6.0,6.0,721.789164468646,3.0,1.0,phase_2,go,400.0,300.0,1.0,,,,,,,,,gray,diamond
0.0,4.0,4.0,0.0,5.0,5.0,341.8466281145811,3.0,1.0,phase_2,go,400.0,300.0,1.0,,,,,,,,,orange,cross
0.0,5.0,1.0,1.0,5.0,5.0,312.4487455934286,3.0,1.0,phase_2,stop,400.0,300.0,3.0,,,,,,,,,yellow,circle
0.0,7.0,3.0,1.0,6.0,6.0,391.1885526031255,3.0,1.0,phase_2,stop,350.0,300.0,3.0,,,,,,,,,blue,triangle
0.0,1.0,1.0,0.0,6.0,6.0,344.2425448447466,3.0,1.0,phase_2,go,350.0,250.0,1.0,,,,,,,,,magenta,square
0.0,6.0,2.0,1.0,6.0,6.0,567.0979339629412,4.0,1.0,phase_2,go,350.0,250.0,1.0,,,,,,,,,green,I
0.0,7.0,3.0,1.0,6.0,6.0,283.9801888912916,4.0,1.0,phase_2,stop,350.0,250.0,3.0,,,,,,,,,blue,triangle
0.0,8.0,4.0,1.0,5.0,5.0,365.7012358307838,4.0,1.0,phase_2,stop,350.0,200.0,3.0,,,,,,,,,cyan,flipped triangle
0.0,1.0,1.0,0.0,6.0,6.0,266.9037263840437,4.0,1.0,phase_2,go,300.0,200.0,1.0,,,,,,,,,magenta,square
0.0,8.0,4.0,1.0,5.0,0.0,0.0,4.0,1.0,phase_2,stop,300.0,200.0,4.0,,,,,,,,,cyan,flipped triangle
0.0,2.0,2.0,0.0,6.0,6.0,316.409008577466,4.0,1.0,phase_2,go,350.0,200.0,1.0,,,,,,,,,gray,diamond
0.0,8.0,4.0,1.0,6.0,0.0,0.0,4.0,1.0,phase_2,stop,350.0,200.0,4.0,,,,,,,,,cyan,flipped triangle
0.0,6.0,2.0,1.0,6.0,0.0,0.0,4.0,1.0,phase_2,stop,350.0,250.0,4.0,,,,,,,,,green,I
0.0,8.0,4.0,1.0,5.0,5.0,323.7687144428491,4.0,1.0,phase_2,stop,350.0,300.0,3.0,,,,,,,,,cyan,flipped triangle
0.0,3.0,3.0,0.0,5.0,5.0,618.8500877469778,4.0,1.0,phase_2,go,300.0,300.0,1.0,,,,,,,,,white,hexagon
0.0,2.0,2.0,0.0,6.0,6.0,504.7549791634083,4.0,1.0,phase_2,go,300.0,300.0,1.0,,,,,,,,,gray,diamond
0.0,3.0,3.0,0.0,5.0,5.0,417.9691988974809,4.0,1.0,phase_2,go,300.0,300.0,1.0,,,,,,,,,white,hexagon
0.0,7.0,3.0,1.0,5.0,0.0,0.0,4.0,1.0,phase_2,stop,300.0,300.0,4.0,,,,,,,,,blue,triangle
0.0,3.0,3.0,0.0,5.0,5.0,409.0365264564752,4.0,1.0,phase_2,go,350.0,300.0,1.0,,,,,,,,,white,hexagon
0.0,6.0,2.0,1.0,6.0,0.0,0.0,4.0,1.0,phase_2,stop,350.0,300.0,4.0,,,,,,,,,green,I
0.0,1.0,1.0,0.0,5.0,5.0,710.5948608368635,4.0,1.0,phase_2,go,350.0,350.0,1.0,,,,,,,,,magenta,square
0.0,1.0,1.0,0.0,5.0,5.0,580.5588401854038,4.0,1.0,phase_2,go,350.0,350.0,1.0,,,,,,,,,magenta,square
0.0,1.0,1.0,0.0,5.0,5.0,332.2114534676075,4.0,1.0,phase_2,go,350.0,350.0,1.0,,,,,,,,,magenta,square
0.0,2.0,2.0,0.0,6.0,6.0,398.6718393862247,4.0,1.0,phase_2,go,350.0,350.0,1.0,,,,,,,,,gray,diamond
0.0,1.0,1.0,0.0,6.0,6.0,572.2779463976622,4.0,1.0,phase_2,go,350.0,350.0,1.0,,,,,,,,,magenta,square
0.0,2.0,2.0,0.0,6.0,6.0,387.3513024300337,4.0,1.0,phase_2,go,350.0,350.0,1.0,,,,,,,,,gray,diamond
0.0,7.0,3.0,1.0,5.0,6.0,458.9378852397203,4.0,1.0,phase_2,stop,350.0,350.0,3.0,,,,,,,,,blue,triangle
0.0,4.0,4.0,0.0,6.0,6.0,586.086630821228,4.0,1.0,phase_2,go,300.0,350.0,1.0,,,,,,,,,orange,cross
0.0,5.0,1.0,1.0,6.0,6.0,366.4603810757398,4.0,1.0,phase_2,stop,300.0,350.0,3.0,,,,,,,,,yellow,circle
0.0,7.0,3.0,1.0,5.0,5.0,409.0861659497022,4.0,1.0,phase_2,stop,300.0,300.0,3.0,,,,,,,,,blue,triangle
0.0,4.0,4.0,0.0,6.0,6.0,483.4819491952657,4.0,1.0,phase_2,go,250.0,300.0,1.0,,,,,,,,,orange,cross
0.0,1.0,1.0,0.0,6.0,6.0,423.4830234199762,4.0,1.0,phase_2,go,250.0,300.0,1.0,,,,,,,,,magenta,square
0.0,5.0,1.0,1.0,5.0,0.0,0.0,4.0,1.0,phase_2,stop,250.0,300.0,4.0,,,,,,,,,yellow,circle
0.0,6.0,2.0,1.0,6.0,6.0,317.9743904620409,4.0,1.0,phase_2,stop,300.0,300.0,3.0,,,,,,,,,green,I
0.0,3.0,3.0,0.0,6.0,6.0,445.3852232545614,4.0,1.0,phase_2,go,300.0,250.0,1.0,,,,,,,,,white,hexagon
0.0,1.0,1.0,0.0,6.0,6.0,300.4136551171541,4.0,1.0,phase_2,go,300.0,250.0,1.0,,,,,,,,,magenta,square
0.0,6.0,2.0,1.0,6.0,6.0,566.8288003653288,4.0,1.0,phase_2,go,300.0,250.0,1.0,,,,,,,,,green,I
0.0,3.0,3.0,0.0,6.0,6.0,333.0901674926281,4.0,1.0,phase_2,go,300.0,250.0,1.0,,,,,,,,,white,hexagon
0.0,4.0,4.0,0.0,5.0,5.0,493.4282638132572,4.0,1.0,phase_2,go,300.0,250.0,1.0,,,,,,,,,orange,cross
0.0,6.0,2.0,1.0,5.0,5.0,361.8899583816528,4.0,1.0,phase_2,stop,300.0,250.0,3.0,,,,,,,,,green,I
0.0,8.0,4.0,1.0,5.0,0.0,0.0,4.0,1.0,phase_2,stop,250.0,250.0,4.0,,,,,,,,,cyan,flipped triangle
0.0,6.0,2.0,1.0,6.0,6.0,391.1343179643154,5.0,1.0,phase_2,stop,300.0,250.0,3.0,,,,,,,,,green,I
0.0,5.0,1.0,1.0,6.0,6.0,720.0085073709488,5.0,1.0,phase_2,go,300.0,200.0,1.0,,,,,,,,,yellow,circle
0.0,4.0,4.0,0.0,6.0,6.0,479.5808512717485,5.0,1.0,phase_2,go,300.0,200.0,1.0,,,,,,,,,orange,cross
0.0,6.0,2.0,1.0,5.0,0.0,0.0,5.0,1.0,phase_2,stop,300.0,200.0,4.0,,,,,,,,,green,I
0.0,7.0,3.0,1.0,5.0,5.0,492.833511903882,5.0,1.0,phase_2,go,350.0,200.0,1.0,,,,,,,,,blue,triangle
0.0,2.0,2.0,0.0,5.0,5.0,316.7260196059942,5.0,1.0,phase_2,go,350.0,200.0,1.0,,,,,,,,,gray,diamond
0.0,3.0,3.0,0.0,5.0,5.0,340.4626995325088,5.0,1.0,phase_2,go,350.0,200.0,1.0,,,,,,,,,white,hexagon
0.0,8.0,4.0,1.0,5.0,5.0,372.4342100322246,5.0,1.0,phase_2,stop,350.0,200.0,3.0,,,,,,,,,cyan,flipped triangle
0.0,5.0,1.0,1.0,5.0,0.0,0.0,5.0,1.0,phase_2,stop,300.0,200.0,4.0,,,,,,,,,yellow,circle
0.0,7.0,3.0,1.0,6.0,0.0,0.0,5.0,1.0,phase_2,stop,350.0,200.0,4.0,,,,,,,,,blue,triangle
0.0,1.0,1.0,0.0,5.0,5.0,492.6271326839924,5.0,1.0,phase_2,go,350.0,250.0,1.0,,,,,,,,,magenta,square
0.0,5.0,1.0,1.0,6.0,0.0,0.0,5.0,1.0,phase_2,stop,350.0,250.0,4.0,,,,,,,,,yellow,circle
0.0,4.0,4.0,0.0,6.0,6.0,723.1122758239508,5.0,1.0,phase_2,go,350.0,300.0,1.0,,,,,,,,,orange,cross
0.0,8.0,4.0,1.0,5.0,5.0,569.6764253079891,5.0,1.0,phase_2,go,350.0,300.0,1.0,,,,,,,,,cyan,flipped triangle
0.0,7.0,3.0,1.0,5.0,5.0,506.4171701669693,5.0,1.0,phase_2,stop,350.0,300.0,3.0,,,,,,,,,blue,triangle
0.0,3.0,3.0,0.0,5.0,5.0,649.76392313838,5.0,1.0,phase_2,go,300.0,300.0,1.0,,,,,,,,,white,hexagon
0.0,2.0,2.0,0.0,5.0,5.0,520.493196323514,5.0,1.0,phase_2,go,300.0,300.0,1.0,,,,,,,,,gray,diamond
0.0,2.0,2.0,0.0,5.0,5.0,552.7363810688257,5.0,1.0,phase_2,go,300.0,300.0,1.0,,,,,,,,,gray,diamond
0.0,8.0,4.0,1.0,5.0,5.0,445.3768916428089,5.0,1.0,phase_2,go,300.0,300.0,1.0,,,,,,,,,cyan,flipped triangle
0.0,4.0,4.0,0.0,5.0,5.0,448.1393359601497,5.0,1.0,phase_2,go,300.0,300.0,1.0,,,,,,,,,orange,cross
0.0,1.0,1.0,0.0,5.0,5.0,439.9991072714329,5.0,1.0,phase_2,go,300.0,300.0,1.0,,,,,,,,,magenta,square
0.0,7.0,3.0,1.0,5.0,5.0,438.2860492914915,5.0,1.0,phase_2,stop,300.0,300.0,3.0,,,,,,,,,blue,triangle
0.0,3.0,3.0,0.0,6.0,6.0,556.0424253344536,5.0,1.0,phase_2,go,250.0,300.0,1.0,,,,,,,,,white,hexagon
0.0,8.0,4.0,1.0,6.0,0.0,0.0,5.0,1.0,phase_2,stop,250.0,300.0,4.0,,,,,,,,,cyan,flipped triangle
0.0,3.0,3.0,0.0,6.0,6.0,611.6859689354897,5.0,1.0,phase_2,go,250.0,350.0,1.0,,,,,,,,,white,hexagon
0.0,7.0,3.0,1.0,5.0,0.0,0.0,5.0,1.0,phase_2,stop,250.0,350.0,4.0,,,,,,,,,blue,triangle
0.0,1.0,1.0,0.0,6.0,6.0,292.4869377166033,5.0,1.0,phase_2,go,300.0,350.0,1.0,,,,,,,,,magenta,square
0.0,3.0,3.0,0.0,6.0,6.0,512.9921566694975,5.0,1.0,phase_2,go,300.0,350.0,1.0,,,,,,,,,white,hexagon
0.0,7.0,3.0,1.0,6.0,6.0,427.1790459752083,5.0,1.0,phase_2,stop,300.0,350.0,3.0,,,,,,,,,blue,triangle
0.0,3.0,3.0,0.0,6.0,6.0,497.3526503890753,5.0,1.0,phase_2,go,300.0,300.0,1.0,,,,,,,,,white,hexagon
0.0,1.0,1.0,0.0,6.0,6.0,502.5436133146286,5.0,1.0,phase_2,go,300.0,300.0,1.0,,,,,,,,,magenta,square
0.0,6.0,2.0,1.0,5.0,5.0,463.2499106228351,5.0,1.0,phase_2,go,300.0,300.0,1.0,,,,,,,,,green,I
0.0,2.0,2.0,0.0,5.0,5.0,560.4265183210373,5.0,1.0,phase_2,go,300.0,300.0,1.0,,,,,,,,,gray,diamond
0.0,8.0,4.0,1.0,5.0,5.0,463.7459758669138,5.0,1.0,phase_2,go,300.0,300.0,1.0,,,,,,,,,cyan,flipped triangle
0.0,7.0,3.0,1.0,5.0,0.0,0.0,5.0,1.0,phase_2,stop,300.0,300.0,4.0,,,,,,,,,blue,triangle
0.0,6.0,2.0,1.0,5.0,0.0,0.0,5.0,1.0,phase_2,stop,350.0,300.0,4.0,,,,,,,,,green,I
0.0,5.0,1.0,1.0,5.0,5.0,437.359157949686,6.0,1.0,phase_2,stop,400.0,300.0,3.0,,,,,,,,,yellow,circle
0.0,1.0,1.0,0.0,5.0,5.0,476.6304809600115,6.0,1.0,phase_2,go,350.0,300.0,1.0,,,,,,,,,magenta,square
0.0,5.0,1.0,1.0,6.0,0.0,0.0,6.0,1.0,phase_2,stop,350.0,300.0,4.0,,,,,,,,,yellow,circle
0.0,4.0,4.0,0.0,6.0,6.0,491.3894031196832,6.0,1.0,phase_2,go,350.0,350.0,1.0,,,,,,,,,orange,cross
0.0,5.0,1.0,1.0,6.0,6.0,429.8454374074936,6.0,1.0,phase_2,stop,350.0,350.0,3.0,,,,,,,,,yellow,circle
0.0,8.0,4.0,1.0,5.0,0.0,0.0,6.0,1.0,phase_2,stop,350.0,300.0,4.0,,,,,,,,,cyan,flipped triangle
0.0,3.0,3.0,0.0,6.0,6.0,540.5218861997128,6.0,1.0,phase_2,go,400.0,300.0,1.0,,,,,,,,,white,hexagon
0.0,5.0,1.0,1.0,6.0,6.0,537.7137362957001,6.0,1.0,phase_2,go,400.0,300.0,1.0,,,,,,,,,yellow,circle
0.0,5.0,1.0,1.0,6.0,6.0,387.286014854908,6.0,1.0,phase_2,stop,400.0,300.0,3.0,,,,,,,,,yellow,circle
0.0,3.0,3.0,0.0,6.0,6.0,642.8900863975286,6.0,1.0,phase_2,go,400.0,250.0,1.0,,,,,,,,,white,hexagon
0.0,6.0,2.0,1.0,6.0,0.0,0.0,6.0,1.0,phase_2,stop,400.0,250.0,4.0,,,,,,,,,green,I
0.0,8.0,4.0,1.0,6.0,6.0,737.9545848816633,6.0,1.0,phase_2,go,400.0,300.0,1.0,,,,,,,,,cyan,flipped triangle
0.0,3.0,3.0,0.0,6.0,6.0,496.64350412786,6.0,1.0,phase_2,go,400.0,300.0,1.0,,,,,,,,,white,hexagon
0.0,3.0,3.0,0.0,5.0,5.0,575.386879965663,6.0,1.0,phase_2,go,400.0,300.0,1.0,,,,,,,,,white,hexagon
0.0,4.0,4.0,0.0,5.0,5.0,408.0642275512218,6.0,1.0,phase_2,go,400.0,300.0,1.0,,,,,,,,,orange,cross
0.0,8.0,4.0,1.0,5.0,5.0,426.4188297092914,6.0,1.0,phase_2,stop,400.0,300.0,3.0,,,,,,,,,cyan,flipped triangle
0.0,7.0,3.0,1.0,6.0,6.0,372.7466482669115,6.0,1.0,phase_2,stop,350.0,300.0,3.0,,,,,,,,,blue,triangle
0.0,5.0,1.0,1.0,5.0,0.0,0.0,6.0,1.0,phase_2,stop,350.0,250.0,4.0,,,,,,,,,yellow,circle
0.0,8.0,4.0,1.0,5.0,5.0,418.3216486126184,6.0,1.0,phase_2,go,400.0,250.0,1.0,,,,,,,,,cyan,flipped triangle
0.0,6.0,2.0,1.0,5.0,0.0,0.0,6.0,1.0,phase_2,stop,400.0,250.0,4.0,,,,,,,,,green,I
0.0,4.0,4.0,0.0,5.0,5.0,555.686155334115,6.0,1.0,phase_2,go,450.0,250.0,1.0,,,,,,,,,orange,cross
0.0,6.0,2.0,1.0,5.0,0.0,0.0,6.0,1.0,phase_2,stop,450.0,250.0,4.0,,,,,,,,,green,I
0.0,1.0,1.0,0.0,6.0,6.0,585.8193933963776,6.0,1.0,phase_2,go,500.0,250.0,1.0,,,,,,,,,magenta,square
0.0,1.0,1.0,0.0,5.0,5.0,593.6766285449266,6.0,1.0,phase_2,go,500.0,250.0,1.0,,,,,,,,,magenta,square
0.0,2.0,2.0,0.0,6.0,6.0,704.7653254121542,6.0,1.0,phase_2,go,500.0,250.0,1.0,,,,,,,,,gray,diamond
0.0,8.0,4.0,1.0,6.0,0.0,0.0,6.0,1.0,phase_2,stop,500.0,250.0,4.0,,,,,,,,,cyan,flipped triangle
0.0,1.0,1.0,0.0,5.0,5.0,752.062113955617,6.0,1.0,phase_2,go,500.0,300.0,1.0,,,,,,,,,magenta,square
0.0,5.0,1.0,1.0,5.0,5.0,400.337103754282,6.0,1.0,phase_2,go,500.0,300.0,1.0,,,,,,,,,yellow,circle
0.0,2.0,2.0,0.0,6.0,6.0,460.9956592321396,6.0,1.0,phase_2,go,500.0,300.0,1.0,,,,,,,,,gray,diamond
0.0,2.0,2.0,0.0,5.0,5.0,395.8311881870031,6.0,1.0,phase_2,go,500.0,300.0,1.0,,,,,,,,,gray,diamond
0.0,7.0,3.0,1.0,6.0,6.0,483.3690579980612,6.0,1.0,phase_2,go,500.0,300.0,1.0,,,,,,,,,blue,triangle
0.0,6.0,2.0,1.0,6.0,6.0,485.8150109648704,6.0,1.0,phase_2,go,500.0,300.0,1.0,,,,,,,,,green,I
0.0,3.0,3.0,0.0,6.0,6.0,386.6480998694896,6.0,1.0,phase_2,go,500.0,300.0,1.0,,,,,,,,,white,hexagon
0.0,5.0,1.0,1.0,6.0,6.0,425.6209544837475,6.0,1.0,phase_2,go,500.0,300.0,1.0,,,,,,,,,yellow,circle
0.0,6.0,2.0,1.0,5.0,5.0,412.8244817256927,6.0,1.0,phase_2,stop,500.0,300.0,3.0,,,,,,,,,green,I
0.0,3.0,3.0,0.0,5.0,5.0,531.6179841756821,6.0,1.0,phase_2,go,450.0,300.0,1.0,,,,,,,,,white,hexagon
0.0,2.0,2.0,0.0,6.0,6.0,508.9260432869196,7.0,1.0,phase_2,go,450.0,300.0,1.0,,,,,,,,,gray,diamond
0.0,6.0,2.0,1.0,5.0,5.0,757.0803519338369,7.0,1.0,phase_2,go,450.0,300.0,1.0,,,,,,,,,green,I
0.0,8.0,4.0,1.0,6.0,6.0,322.4970791488886,7.0,1.0,phase_2,stop,450.0,300.0,3.0,,,,,,,,,cyan,flipped triangle
0.0,2.0,2.0,0.0,6.0,6.0,325.2963311970234,7.0,1.0,phase_2,go,450.0,250.0,1.0,,,,,,,,,gray,diamond
0.0,7.0,3.0,1.0,6.0,6.0,330.0040159374475,7.0,1.0,phase_2,go,450.0,250.0,1.0,,,,,,,,,blue,triangle
0.0,7.0,3.0,1.0,6.0,6.0,325.8825372904539,7.0,1.0,phase_2,stop,450.0,250.0,3.0,,,,,,,,,blue,triangle
0.0,5.0,1.0,1.0,5.0,5.0,353.904927149415,7.0,1.0,phase_2,stop,450.0,200.0,3.0,,,,,,,,,yellow,circle
0.0,4.0,4.0,0.0,5.0,5.0,416.6298620402813,7.0,1.0,phase_2,go,400.0,200.0,1.0,,,,,,,,,orange,cross
0.0,1.0,1.0,0.0,5.0,5.0,361.9171157479286,7.0,1.0,phase_2,go,400.0,200.0,1.0,,,,,,,,,magenta,square
0.0,4.0,4.0,0.0,5.0,5.0,395.6318125128746,7.0,1.0,phase_2,go,400.0,200.0,1.0,,,,,,,,,orange,cross
0.0,2.0,2.0,0.0,5.0,5.0,528.0740726739168,7.0,1.0,phase_2,go,400.0,200.0,1.0,,,,,,,,,gray,diamond
0.0,1.0,1.0,0.0,6.0,6.0,465.7516460865736,7.0,1.0,phase_2,go,400.0,200.0,1.0,,,,,,,,,magenta,square
0.0,4.0,4.0,0.0,6.0,6.0,600.3045979887247,7.0,1.0,phase_2,go,400.0,200.0,1.0,,,,,,,,,orange,cross
0.0,1.0,1.0,0.0,5.0,5.0,622.4605403840542,7.0,1.0,phase_2,go,400.0,200.0,1.0,,,,,,,,,magenta,square
0.0,4.0,4.0,0.0,6.0,6.0,431.3356932252645,7.0,1.0,phase_2,go,400.0,200.0,1.0,,,,,,,,,orange,cross
0.0,6.0,2.0,1.0,6.0,0.0,0.0,7.0,1.0,phase_2,stop,400.0,200.0,4.0,,,,,,,,,green,I
0.0,7.0,3.0,1.0,6.0,0.0,0.0,7.0,1.0,phase_2,stop,400.0,250.0,4.0,,,,,,,,,blue,triangle
0.0,2.0,2.0,0.0,5.0,5.0,459.1642916202545,7.0,1.0,phase_2,go,400.0,300.0,1.0,,,,,,,,,gray,diamond
0.0,7.0,3.0,1.0,6.0,0.0,0.0,7.0,1.0,phase_2,stop,400.0,300.0,4.0,,,,,,,,,blue,triangle
0.0,8.0,4.0,1.0,6.0,0.0,0.0,7.0,1.0,phase_2,stop,400.0,350.0,4.0,,,,,,,,,cyan,flipped triangle
0.0,2.0,2.0,0.0,6.0,6.0,571.6111809015274,7.0,1.0,phase_2,go,400.0,400.0,1.0,,,,,,,,,gray,diamond
0.0,8.0,4.0,1.0,6.0,0.0,0.0,7.0,1.0,phase_2,stop,400.0,400.0,4.0,,,,,,,,,cyan,flipped triangle
0.0,1.0,1.0,0.0,5.0,5.0,356.1021089553833,7.0,1.0,phase_2,go,400.0,450.0,1.0,,,,,,,,,magenta,square
0.0,8.0,4.0,1.0,5.0,5.0,384.3823075294494,7.0,1.0,phase_2,stop,400.0,450.0,3.0,,,,,,,,,cyan,flipped triangle
0.0,6.0,2.0,1.0,6.0,6.0,601.134430617094,7.0,1.0,phase_2,stop,350.0,450.0,3.0,,,,,,,,,green,I
0.0,8.0,4.0,1.0,5.0,5.0,439.1195811331272,7.0,1.0,phase_2,go,350.0,400.0,1.0,,,,,,,,,cyan,flipped triangle
0.0,2.0,2.0,0.0,5.0,5.0,319.9304081499576,7.0,1.0,phase_2,go,350.0,400.0,1.0,,,,,,,,,gray,diamond
0.0,3.0,3.0,0.0,5.0,5.0,328.2881136983633,7.0,1.0,phase_2,go,350.0,400.0,1.0,,,,,,,,,white,hexagon
0.0,2.0,2.0,0.0,6.0,6.0,416.1910768598318,7.0,1.0,phase_2,go,350.0,400.0,1.0,,,,,,,,,gray,diamond
0.0,6.0,2.0,1.0,6.0,6.0,396.4880183339119,7.0,1.0,phase_2,stop,350.0,400.0,3.0,,,,,,,,,green,I
0.0,6.0,2.0,1.0,5.0,5.0,436.322083696723,7.0,1.0,phase_2,stop,350.0,350.0,3.0,,,,,,,,,green,I
0.0,2.0,2.0,0.0,5.0,5.0,614.752696827054,7.0,1.0,phase_2,go,300.0,350.0,1.0,,,,,,,,,gray,diamond
0.0,6.0,2.0,1.0,5.0,5.0,371.0152432322502,7.0,1.0,phase_2,stop,300.0,350.0,3.0,,,,,,,,,green,I
0.0,6.0,2.0,1.0,6.0,6.0,585.9490986913443,7.0,1.0,phase_2,go,250.0,350.0,1.0,,,,,,,,,green,I
0.0,1.0,1.0,0.0,5.0,5.0,469.6078989654779,7.0,1.0,phase_2,go,250.0,350.0,1.0,,,,,,,,,magenta,square
0.0,5.0,1.0,1.0,6.0,6.0,371.879393234849,7.0,1.0,phase_2,stop,250.0,350.0,3.0,,,,,,,,,yellow,circle
0.0,7.0,3.0,1.0,5.0,0.0,0.0,8.0,1.0,phase_2,stop,250.0,300.0,4.0,,,,,,,,,blue,triangle
0.0,8.0,4.0,1.0,6.0,6.0,259.9882464855909,8.0,1.0,phase_2,stop,300.0,300.0,3.0,,,,,,,,,cyan,flipped triangle
0.0,7.0,3.0,1.0,5.0,5.0,573.1895007193089,8.0,1.0,phase_2,go,300.0,250.0,1.0,,,,,,,,,blue,triangle
0.0,2.0,2.0,0.0,6.0,6.0,307.7701386064291,8.0,1.0,phase_2,go,300.0,250.0,1.0,,,,,,,,,gray,diamond
0.0,5.0,1.0,1.0,6.0,6.0,314.4473396241665,8.0,1.0,phase_2,stop,300.0,250.0,3.0,,,,,,,,,yellow,circle
0.0,7.0,3.0,1.0,6.0,0.0,0.0,8.0,1.0,phase_2,stop,300.0,200.0,4.0,,,,,,,,,blue,triangle
0.0,5.0,1.0,1.0,5.0,5.0,608.8998895138502,8.0,1.0,phase_2,go,300.0,250.0,1.0,,,,,,,,,yellow,circle
0.0,1.0,1.0,0.0,5.0,5.0,635.6185749173164,8.0,1.0,phase_2,go,300.0,250.0,1.0,,,,,,,,,magenta,square
0.0,2.0,2.0,0.0,5.0,5.0,425.8724637329578,8.0,1.0,phase_2,go,300.0,250.0,1.0,,,,,,,,,gray,diamond
0.0,2.0,2.0,0.0,5.0,5.0,321.6045554727316,8.0,1.0,phase_2,go,300.0,250.0,1.0,,,,,,,,,gray,diamond
0.0,3.0,3.0,0.0,6.0,6.0,378.1460337340832,8.0,1.0,phase_2,go,300.0,250.0,1.0,,,,,,,,,white,hexagon
0.0,4.0,4.0,0.0,5.0,5.0,441.3339700549841,8.0,1.0,phase_2,go,300.0,250.0,1.0,,,,,,,,,orange,cross
0.0,6.0,2.0,1.0,5.0,5.0,383.2259234040975,8.0,1.0,phase_2,stop,300.0,250.0,3.0,,,,,,,,,green,I
0.0,4.0,4.0,0.0,6.0,6.0,406.6435862332582,8.0,1.0,phase_2,go,250.0,250.0,1.0,,,,,,,,,orange,cross
0.0,5.0,1.0,1.0,6.0,0.0,0.0,8.0,1.0,phase_2,stop,250.0,250.0,4.0,,,,,,,,,yellow,circle
0.0,1.0,1.0,0.0,5.0,5.0,407.0067591965198,8.0,1.0,phase_2,go,250.0,300.0,1.0,,,,,,,,,magenta,square
0.0,5.0,1.0,1.0,6.0,0.0,0.0,8.0,1.0,phase_2,stop,250.0,300.0,4.0,,,,,,,,,yellow,circle
0.0,5.0,1.0,1.0,6.0,6.0,390.5652686953544,8.0,1.0,phase_2,stop,250.0,350.0,3.0,,,,,,,,,yellow,circle
0.0,5.0,1.0,1.0,5.0,0.0,0.0,8.0,1.0,phase_2,stop,250.0,300.0,4.0,,,,,,,,,yellow,circle
0.0,4.0,4.0,0.0,6.0,6.0,723.3582157641649,8.0,1.0,phase_2,go,300.0,300.0,1.0,,,,,,,,,orange,cross
0.0,5.0,1.0,1.0,6.0,6.0,339.171415194869,8.0,1.0,phase_2,stop,300.0,300.0,3.0,,,,,,,,,yellow,circle
0.0,2.0,2.0,0.0,6.0,6.0,456.8498246371746,8.0,1.0,phase_2,go,300.0,250.0,1.0,,,,,,,,,gray,diamond
0.0,3.0,3.0,0.0,6.0,6.0,323.1159448623657,8.0,1.0,phase_2,go,300.0,250.0,1.0,,,,,,,,,white,hexagon
0.0,1.0,1.0,0.0,6.0,6.0,368.9347095787525,8.0,1.0,phase_2,go,300.0,250.0,1.0,,,,,,,,,magenta,square
0.0,3.0,3.0,0.0,6.0,6.0,288.3658092468977,8.0,1.0,phase_2,go,300.0,250.0,1.0,,,,,,,,,white,hexagon
0.0,4.0,4.0,0.0,6.0,6.0,399.6652867645025,8.0,1.0,phase_2,go,300.0,250.0,1.0,,,,,,,,,orange,cross
0.0,6.0,2.0,1.0,5.0,5.0,255.6420043110847,8.0,1.0,phase_2,go,300.0,250.0,1.0,,,,,,,,,green,I
0.0,7.0,3.0,1.0,5.0,0.0,0.0,8.0,1.0,phase_2,stop,300.0,250.0,4.0,,,,,,,,,blue,triangle
0.0,3.0,3.0,0.0,6.0,6.0,262.0331346988678,8.0,1.0,phase_2,go,350.0,250.0,1.0,,,,,,,,,white,hexagon
0.0,1.0,1.0,0.0,6.0,6.0,332.8863866627216,8.0,1.0,phase_2,go,350.0,250.0,1.0,,,,,,,,,magenta,square
0.0,8.0,4.0,1.0,5.0,0.0,0.0,8.0,1.0,phase_2,stop,350.0,250.0,4.0,,,,,,,,,cyan,flipped triangle
0.0,8.0,4.0,1.0,6.0,6.0,302.4987932294607,8.0,1.0,phase_2,stop,400.0,250.0,3.0,,,,,,,,,cyan,flipped triangle
0.0,3.0,3.0,0.0,5.0,5.0,478.6980133503675,8.0,1.0,phase_2,go,400.0,200.0,1.0,,,,,,,,,white,hexagon
0.0,5.0,1.0,1.0,6.0,6.0,293.2320665568113,8.0,1.0,phase_2,go,400.0,200.0,1.0,,,,,,,,,yellow,circle
0.0,2.0,2.0,0.0,5.0,5.0,395.5330960452556,8.0,1.0,phase_2,go,400.0,200.0,1.0,,,,,,,,,gray,diamond
0.0,2.0,2.0,0.0,6.0,6.0,281.1422646045685,8.0,1.0,phase_2,go,400.0,200.0,1.0,,,,,,,,,gray,diamond
0.0,5.0,1.0,1.0,7.0,3.0,3095.6411249935627,1.0,1.0,phase_3,,,,,204.0,6.0,170.0,102.0,204.0,34.0,136.0,68.0,yellow,circle
0.0,4.0,4.0,0.0,7.0,4.0,1050.9554892778397,1.0,2.0,phase_3,,,,,98.0,2.0,147.0,49.0,294.0,98.0,245.0,196.0,orange,cross
0.0,1.0,1.0,0.0,7.0,5.0,1069.516396149993,1.0,1.0,phase_3,,,,,220.0,5.0,132.0,88.0,176.0,264.0,220.0,44.0,magenta,square
0.0,5.0,1.0,1.0,7.0,2.0,1901.192143559456,1.0,1.0,phase_3,,,,,294.0,6.0,98.0,294.0,49.0,245.0,196.0,147.0,yellow,circle
0.0,3.0,3.0,0.0,7.0,6.0,1105.4932549595833,1.0,1.0,phase_3,,,,,204.0,6.0,68.0,34.0,102.0,170.0,136.0,204.0,white,hexagon
0.0,8.0,4.0,1.0,7.0,2.0,2520.5186549574137,1.0,1.0,phase_3,,,,,162.0,3.0,108.0,162.0,270.0,54.0,216.0,324.0,cyan,flipped triangle
0.0,1.0,1.0,0.0,7.0,1.0,1571.80979475379,1.0,1.0,phase_3,,,,,147.0,3.0,147.0,245.0,196.0,49.0,98.0,294.0,magenta,square
0.0,5.0,1.0,1.0,7.0,5.0,1507.4907839298248,1.0,1.0,phase_3,,,,,220.0,5.0,44.0,88.0,132.0,264.0,220.0,176.0,yellow,circle
0.0,6.0,2.0,1.0,7.0,4.0,1941.4705578237767,1.0,1.0,phase_3,,,,,234.0,6.0,78.0,39.0,156.0,234.0,195.0,117.0,green,I
0.0,5.0,1.0,1.0,7.0,6.0,1175.3392275422812,1.0,1.0,phase_3,,,,,102.0,3.0,136.0,204.0,68.0,34.0,170.0,102.0,yellow,circle
0.0,1.0,1.0,0.0,7.0,4.0,1734.74901355803,1.0,1.0,phase_3,,,,,294.0,6.0,49.0,245.0,147.0,294.0,196.0,98.0,magenta,square
0.0,7.0,3.0,1.0,7.0,2.0,1002.1652299910784,1.0,1.0,phase_3,,,,,245.0,5.0,147.0,245.0,49.0,196.0,98.0,294.0,blue,triangle
0.0,5.0,1.0,1.0,7.0,3.0,1196.3620204478502,1.0,1.0,phase_3,,,,,44.0,1.0,176.0,220.0,44.0,264.0,88.0,132.0,yellow,circle
0.0,2.0,2.0,0.0,7.0,5.0,1598.016673699021,1.0,1.0,phase_3,,,,,78.0,2.0,156.0,117.0,234.0,195.0,78.0,39.0,gray,diamond
0.0,1.0,1.0,0.0,7.0,1.0,1501.0647457093,1.0,1.0,phase_3,,,,,78.0,2.0,78.0,195.0,156.0,39.0,117.0,234.0,magenta,square
0.0,4.0,4.0,0.0,7.0,6.0,415.0327518582344,1.0,1.0,phase_3,,,,,170.0,5.0,68.0,136.0,102.0,34.0,204.0,170.0,orange,cross
0.0,6.0,2.0,1.0,7.0,4.0,2063.608929514885,1.0,1.0,phase_3,,,,,102.0,3.0,170.0,34.0,68.0,102.0,204.0,136.0,green,I
0.0,7.0,3.0,1.0,7.0,2.0,976.8496379256248,1.0,1.0,phase_3,,,,,176.0,4.0,220.0,176.0,44.0,88.0,132.0,264.0,blue,triangle
0.0,1.0,1.0,0.0,7.0,5.0,723.9657789468765,1.0,1.0,phase_3,,,,,270.0,5.0,108.0,162.0,216.0,324.0,270.0,54.0,magenta,square
0.0,8.0,4.0,1.0,7.0,2.0,974.872712045908,1.0,1.0,phase_3,,,,,102.0,3.0,68.0,102.0,136.0,204.0,34.0,170.0,cyan,flipped triangle
0.0,4.0,4.0,0.0,7.0,4.0,793.6691585928202,2.0,1.0,phase_3,,,,,102.0,3.0,170.0,136.0,68.0,102.0,204.0,34.0,orange,cross
0.0,2.0,2.0,0.0,7.0,5.0,217.1818781644106,2.0,1.0,phase_3,,,,,88.0,2.0,264.0,44.0,176.0,220.0,88.0,132.0,gray,diamond
0.0,2.0,2.0,0.0,7.0,2.0,498.0895072221756,2.0,1.0,phase_3,,,,,220.0,5.0,176.0,220.0,88.0,44.0,264.0,132.0,gray,diamond
0.0,2.0,2.0,0.0,7.0,3.0,1787.947492673993,2.0,1.0,phase_3,,,,,216.0,4.0,162.0,324.0,216.0,270.0,108.0,54.0,gray,diamond
0.0,3.0,3.0,0.0,7.0,4.0,1839.1338493674996,2.0,1.0,phase_3,,,,,204.0,6.0,68.0,102.0,170.0,204.0,34.0,136.0,white,hexagon
0.0,6.0,2.0,1.0,7.0,4.0,1181.4051792025566,2.0,1.0,phase_3,,,,,234.0,6.0,156.0,117.0,78.0,234.0,39.0,195.0,green,I
0.0,7.0,3.0,1.0,7.0,2.0,1238.707261160016,2.0,1.0,phase_3,,,,,220.0,5.0,44.0,220.0,264.0,88.0,132.0,176.0,blue,triangle
0.0,6.0,2.0,1.0,7.0,5.0,234.0922113507986,2.0,1.0,phase_3,,,,,49.0,1.0,147.0,196.0,294.0,98.0,49.0,245.0,green,I
0.0,4.0,4.0,0.0,7.0,4.0,1337.3386226594448,2.0,1.0,phase_3,,,,,39.0,1.0,117.0,234.0,156.0,39.0,195.0,78.0,orange,cross
0.0,8.0,4.0,1.0,7.0,2.0,1698.042934760451,2.0,1.0,phase_3,,,,,216.0,4.0,324.0,216.0,54.0,270.0,162.0,108.0,cyan,flipped triangle
0.0,7.0,3.0,1.0,7.0,2.0,519.0949663519859,2.0,1.0,phase_3,,,,,234.0,6.0,39.0,234.0,117.0,156.0,195.0,78.0,blue,triangle
0.0,1.0,1.0,0.0,7.0,4.0,1628.851294517517,2.0,1.0,phase_3,,,,,170.0,5.0,102.0,136.0,68.0,170.0,34.0,204.0,magenta,square
0.0,7.0,3.0,1.0,7.0,2.0,553.7532791495323,2.0,1.0,phase_3,,,,,34.0,1.0,68.0,34.0,170.0,136.0,102.0,204.0,blue,triangle
0.0,3.0,3.0,0.0,7.0,4.0,1026.33167617023,2.0,1.0,phase_3,,,,,216.0,4.0,54.0,324.0,270.0,216.0,162.0,108.0,white,hexagon
0.0,6.0,2.0,1.0,7.0,6.0,1705.0393857061863,2.0,1.0,phase_3,,,,,294.0,6.0,49.0,147.0,196.0,245.0,98.0,294.0,green,I
0.0,1.0,1.0,0.0,7.0,2.0,1117.502722889185,2.0,1.0,phase_3,,,,,136.0,4.0,34.0,136.0,68.0,204.0,102.0,170.0,magenta,square
0.0,8.0,4.0,1.0,7.0,4.0,999.5396453887224,2.0,1.0,phase_3,,,,,204.0,6.0,170.0,136.0,68.0,204.0,102.0,34.0,cyan,flipped triangle
0.0,2.0,2.0,0.0,7.0,5.0,1437.8838930279016,2.0,1.0,phase_3,,,,,196.0,4.0,294.0,49.0,245.0,147.0,196.0,98.0,gray,diamond
0.0,6.0,2.0,1.0,7.0,5.0,328.5336066037416,2.0,1.0,phase_3,,,,,270.0,5.0,162.0,216.0,324.0,108.0,270.0,54.0,green,I
0.0,4.0,4.0,0.0,7.0,6.0,856.5334230661392,2.0,1.0,phase_3,,,,,44.0,1.0,176.0,132.0,220.0,264.0,88.0,44.0,orange,cross
0.0,5.0,1.0,1.0,7.0,5.0,1603.683413937688,3.0,1.0,phase_3,,,,,54.0,1.0,108.0,324.0,162.0,270.0,54.0,216.0,yellow,circle
0.0,4.0,4.0,0.0,7.0,6.0,969.5617463439704,3.0,1.0,phase_3,,,,,216.0,4.0,108.0,270.0,162.0,54.0,324.0,216.0,orange,cross
0.0,2.0,2.0,0.0,7.0,5.0,755.1994360983372,3.0,1.0,phase_3,,,,,294.0,6.0,98.0,196.0,49.0,245.0,294.0,147.0,gray,diamond
0.0,5.0,1.0,1.0,7.0,6.0,1238.7988548725843,3.0,1.0,phase_3,,,,,108.0,2.0,216.0,162.0,270.0,324.0,54.0,108.0,yellow,circle
0.0,7.0,3.0,1.0,7.0,2.0,1301.4702070504427,3.0,1.0,phase_3,,,,,68.0,2.0,136.0,68.0,170.0,34.0,204.0,102.0,blue,triangle
0.0,8.0,4.0,1.0,7.0,4.0,1167.5271429121494,3.0,1.0,phase_3,,,,,132.0,3.0,176.0,44.0,88.0,132.0,264.0,220.0,cyan,flipped triangle
0.0,2.0,2.0,0.0,7.0,5.0,546.5235728770494,3.0,1.0,phase_3,,,,,204.0,6.0,102.0,136.0,68.0,170.0,204.0,34.0,gray,diamond
0.0,3.0,3.0,0.0,7.0,4.0,412.0936412364244,3.0,1.0,phase_3,,,,,245.0,5.0,294.0,196.0,49.0,245.0,147.0,98.0,white,hexagon
0.0,8.0,4.0,1.0,7.0,4.0,3915.248058736324,3.0,1.0,phase_3,,,,,156.0,4.0,117.0,234.0,195.0,156.0,78.0,39.0,cyan,flipped triangle
0.0,5.0,1.0,1.0,7.0,6.0,949.2033123970032,3.0,1.0,phase_3,,,,,78.0,2.0,156.0,39.0,195.0,117.0,234.0,78.0,yellow,circle
0.0,6.0,2.0,1.0,7.0,5.0,407.9966656863689,3.0,1.0,phase_3,,,,,204.0,6.0,68.0,34.0,136.0,170.0,204.0,102.0,green,I
0.0,6.0,2.0,1.0,7.0,5.0,415.9186724573374,3.0,1.0,phase_3,,,,,270.0,5.0,162.0,54.0,108.0,324.0,270.0,216.0,green,I
0.0,8.0,4.0,1.0,7.0,2.0,724.0763120353222,3.0,1.0,phase_3,,,,,264.0,6.0,132.0,264.0,88.0,220.0,44.0,176.0,cyan,flipped triangle
0.0,3.0,3.0,0.0,7.0,3.0,2027.8101898729801,3.0,1.0,phase_3,,,,,264.0,6.0,132.0,176.0,264.0,220.0,44.0,88.0,white,hexagon
0.0,5.0,1.0,1.0,7.0,3.0,445.5591030418873,3.0,1.0,phase_3,,,,,245.0,5.0,49.0,294.0,245.0,98.0,147.0,196.0,yellow,circle
0.0,7.0,3.0,1.0,7.0,2.0,663.0668397992849,3.0,1.0,phase_3,,,,,78.0,2.0,117.0,78.0,156.0,195.0,39.0,234.0,blue,triangle
0.0,8.0,4.0,1.0,7.0,6.0,806.8009037524462,3.0,1.0,phase_3,,,,,147.0,3.0,196.0,49.0,294.0,98.0,245.0,147.0,cyan,flipped triangle
0.0,3.0,3.0,0.0,7.0,4.0,1770.250827074051,3.0,1.0,phase_3,,,,,264.0,6.0,44.0,176.0,220.0,264.0,88.0,132.0,white,hexagon
0.0,5.0,1.0,1.0,7.0,6.0,306.4944595098495,3.0,1.0,phase_3,,,,,156.0,4.0,195.0,117.0,78.0,39.0,234.0,156.0,yellow,circle
0.0,1.0,1.0,0.0,7.0,4.0,1325.9811345487833,3.0,1.0,phase_3,,,,,176.0,4.0,264.0,220.0,44.0,176.0,88.0,132.0,magenta,square
0.0,4.0,4.0,0.0,7.0,4.0,469.0034873783588,4.0,1.0,phase_3,,,,,216.0,4.0,270.0,324.0,108.0,216.0,162.0,54.0,orange,cross
0.0,1.0,1.0,0.0,7.0,6.0,1461.648754775524,4.0,1.0,phase_3,,,,,156.0,4.0,195.0,234.0,117.0,39.0,78.0,156.0,magenta,square
0.0,8.0,4.0,1.0,7.0,3.0,352.8828267008066,4.0,1.0,phase_3,,,,,195.0,5.0,234.0,156.0,195.0,117.0,78.0,39.0,cyan,flipped triangle
0.0,7.0,3.0,1.0,7.0,4.0,1145.5777566879988,4.0,1.0,phase_3,,,,,270.0,5.0,108.0,324.0,54.0,270.0,216.0,162.0,blue,triangle
0.0,7.0,3.0,1.0,7.0,2.0,931.5806291997432,4.0,1.0,phase_3,,,,,270.0,5.0,54.0,270.0,162.0,108.0,324.0,216.0,blue,triangle
0.0,2.0,2.0,0.0,7.0,2.0,996.0891287773848,4.0,1.0,phase_3,,,,,68.0,2.0,102.0,68.0,204.0,136.0,34.0,170.0,gray,diamond
0.0,3.0,3.0,0.0,7.0,4.0,766.5976323187351,4.0,1.0,phase_3,,,,,234.0,6.0,195.0,117.0,78.0,234.0,156.0,39.0,white,hexagon
0.0,3.0,3.0,0.0,7.0,4.0,721.2880942970514,4.0,1.0,phase_3,,,,,234.0,6.0,39.0,117.0,195.0,234.0,78.0,156.0,white,hexagon
0.0,7.0,3.0,1.0,7.0,2.0,895.1421324163675,4.0,1.0,phase_3,,,,,294.0,6.0,196.0,294.0,245.0,98.0,49.0,147.0,blue,triangle
0.0,4.0,4.0,0.0,7.0,5.0,1162.9395075142384,4.0,1.0,phase_3,,,,,234.0,6.0,117.0,156.0,78.0,195.0,234.0,39.0,orange,cross
0.0,3.0,3.0,0.0,7.0,3.0,1179.7691844403744,4.0,1.0,phase_3,,,,,196.0,4.0,294.0,49.0,196.0,98.0,245.0,147.0,white,hexagon
0.0,6.0,2.0,1.0,7.0,5.0,842.346828430891,4.0,1.0,phase_3,,,,,264.0,6.0,44.0,132.0,88.0,220.0,264.0,176.0,green,I
0.0,4.0,4.0,0.0,7.0,5.0,981.0579847544432,4.0,1.0,phase_3,,,,,220.0,5.0,44.0,264.0,88.0,132.0,220.0,176.0,orange,cross
0.0,1.0,1.0,0.0,7.0,2.0,1719.6656968444586,4.0,1.0,phase_3,,,,,324.0,6.0,216.0,324.0,54.0,108.0,270.0,162.0,magenta,square
0.0,6.0,2.0,1.0,7.0,5.0,487.4120559543371,4.0,1.0,phase_3,,,,,132.0,3.0,264.0,44.0,220.0,176.0,132.0,88.0,green,I
0.0,8.0,4.0,1.0,7.0,2.0,1504.3473690748217,4.0,1.0,phase_3,,,,,98.0,2.0,147.0,98.0,196.0,294.0,245.0,49.0,cyan,flipped triangle
0.0,4.0,4.0,0.0,7.0,2.0,930.11343665421,4.0,1.0,phase_3,,,,,147.0,3.0,196.0,147.0,245.0,98.0,294.0,49.0,orange,cross
0.0,2.0,2.0,0.0,7.0,4.0,1506.5085720270872,4.0,1.0,phase_3,,,,,324.0,6.0,162.0,270.0,108.0,324.0,54.0,216.0,gray,diamond
0.0,3.0,3.0,0.0,7.0,4.0,1326.411571353674,4.0,1.0,phase_3,,,,,216.0,4.0,324.0,162.0,270.0,216.0,108.0,54.0,white,hexagon
0.0,2.0,2.0,0.0,7.0,3.0,1174.963217228651,4.0,1.0,phase_3,,,,,234.0,6.0,156.0,78.0,234.0,117.0,39.0,195.0,gray,diamond
