raw_reward_magnitude,stim_reward,stepwise_reward_magnitude,paired_with_stopping,quadrant,response,reaction_time,block,num_trial_presentations,which_part,stop_signal_trial_type,left_SSD,right_SSD,accuracy,chosen_bidding_amount,chosen_bidding_level,possible_bid_1,possible_bid_2,possible_bid_3,possible_bid_4,possible_bid_5,possible_bid_6,color_text,shape_text
0.0,5.0,0.0,1.0,3.0,3.0,656.3676856458187,1.0,1.0,part_1,,,,,,,,,,,,,orange,circle
197.0,3.0,3.0,0.0,4.0,4.0,350.4064921289682,1.0,1.0,part_1,,,,,,,,,,,,,blue,diamond
182.0,7.0,3.0,1.0,3.0,3.0,400.3064390271902,1.0,1.0,part_1,,,,,,,,,,,,,green,hexagon
33.0,5.0,1.0,1.0,4.0,4.0,351.6949992626905,1.0,1.0,part_1,,,,,,,,,,,,,orange,circle
75.0,5.0,1.0,1.0,3.0,3.0,396.7327531427145,1.0,1.0,part_1,,,,,,,,,,,,,orange,circle
42.0,1.0,1.0,0.0,4.0,4.0,400.5681499838829,1.0,1.0,part_1,,,,,,,,,,,,,cyan,flipped triangle
64.0,1.0,1.0,0.0,1.0,1.0,330.6536637246609,1.0,1.0,part_1,,,,,,,,,,,,,cyan,flipped triangle
120.0,2.0,2.0,0.0,4.0,4.0,290.0129090994596,1.0,1.0,part_1,,,,,,,,,,,,,yellow,cross
422.0,8.0,4.0,1.0,4.0,4.0,332.4865438044071,1.0,1.0,part_1,,,,,,,,,,,,,gray,I
0.0,1.0,0.0,0.0,2.0,2.0,300.1827839761972,1.0,1.0,part_1,,,,,,,,,,,,,cyan,flipped triangle
103.0,2.0,2.0,0.0,1.0,1.0,374.0377556532621,1.0,1.0,part_1,,,,,,,,,,,,,yellow,cross
391.0,4.0,4.0,0.0,2.0,2.0,363.1900921463966,1.0,1.0,part_1,,,,,,,,,,,,,magenta,triangle
68.0,5.0,1.0,1.0,2.0,2.0,290.6539998948574,1.0,1.0,part_1,,,,,,,,,,,,,orange,circle
390.0,4.0,4.0,0.0,1.0,1.0,315.7364837825298,1.0,1.0,part_1,,,,,,,,,,,,,magenta,triangle
58.0,1.0,1.0,0.0,3.0,3.0,331.5883241593838,1.0,1.0,part_1,,,,,,,,,,,,,cyan,flipped triangle
421.0,4.0,4.0,0.0,4.0,4.0,295.0164247304201,1.0,1.0,part_1,,,,,,,,,,,,,magenta,triangle
113.0,2.0,2.0,0.0,1.0,1.0,274.7298087924719,1.0,1.0,part_1,,,,,,,,,,,,,yellow,cross
398.0,8.0,4.0,1.0,4.0,4.0,303.0130565166473,1.0,1.0,part_1,,,,,,,,,,,,,gray,I
221.0,3.0,3.0,0.0,1.0,1.0,403.7903603166342,1.0,1.0,part_1,,,,,,,,,,,,,blue,diamond
401.0,4.0,4.0,0.0,4.0,4.0,296.7146262526512,1.0,1.0,part_1,,,,,,,,,,,,,magenta,triangle
186.0,7.0,3.0,1.0,4.0,4.0,550.4395104944706,1.0,1.0,part_1,,,,,,,,,,,,,green,hexagon
120.0,6.0,2.0,1.0,2.0,2.0,467.4194287508726,1.0,1.0,part_1,,,,,,,,,,,,,white,square
380.0,8.0,4.0,1.0,2.0,2.0,431.715577840805,1.0,1.0,part_1,,,,,,,,,,,,,gray,I
29.0,5.0,1.0,1.0,1.0,1.0,404.8239681869745,1.0,1.0,part_1,,,,,,,,,,,,,orange,circle
180.0,3.0,3.0,0.0,4.0,4.0,383.5060968995094,1.0,1.0,part_1,,,,,,,,,,,,,blue,diamond
53.0,5.0,1.0,1.0,1.0,1.0,420.5458872020244,1.0,1.0,part_1,,,,,,,,,,,,,orange,circle
0.0,6.0,0.0,1.0,1.0,1.0,354.6310476958751,1.0,1.0,part_1,,,,,,,,,,,,,white,square
414.0,8.0,4.0,1.0,2.0,2.0,301.512872800231,1.0,1.0,part_1,,,,,,,,,,,,,gray,I
52.0,5.0,1.0,1.0,2.0,2.0,301.1510614305734,1.0,1.0,part_1,,,,,,,,,,,,,orange,circle
376.0,8.0,4.0,1.0,1.0,1.0,289.1143430024385,1.0,1.0,part_1,,,,,,,,,,,,,gray,I
203.0,3.0,3.0,0.0,4.0,4.0,303.3828157931566,1.0,1.0,part_1,,,,,,,,,,,,,blue,diamond
183.0,7.0,3.0,1.0,1.0,1.0,296.0628923028707,1.0,1.0,part_1,,,,,,,,,,,,,green,hexagon
0.0,1.0,0.0,0.0,3.0,3.0,392.6547598093748,1.0,1.0,part_1,,,,,,,,,,,,,cyan,flipped triangle
91.0,6.0,2.0,1.0,3.0,3.0,380.0681345164776,1.0,1.0,part_1,,,,,,,,,,,,,white,square
0.0,1.0,0.0,0.0,2.0,2.0,592.0545812696218,1.0,1.0,part_1,,,,,,,,,,,,,cyan,flipped triangle
0.0,6.0,0.0,1.0,1.0,1.0,405.0149340182543,1.0,1.0,part_1,,,,,,,,,,,,,white,square
414.0,4.0,4.0,0.0,1.0,1.0,472.2924623638391,1.0,1.0,part_1,,,,,,,,,,,,,magenta,triangle
213.0,7.0,3.0,1.0,2.0,2.0,334.8383884876966,1.0,1.0,part_1,,,,,,,,,,,,,green,hexagon
421.0,8.0,4.0,1.0,3.0,3.0,449.0603078156709,1.0,1.0,part_1,,,,,,,,,,,,,gray,I
91.0,2.0,2.0,0.0,3.0,3.0,360.0499350577593,1.0,1.0,part_1,,,,,,,,,,,,,yellow,cross
32.0,5.0,1.0,1.0,3.0,3.0,548.1758117675781,1.0,1.0,part_1,,,,,,,,,,,,,orange,circle
378.0,4.0,4.0,0.0,1.0,1.0,433.9297469705343,1.0,1.0,part_1,,,,,,,,,,,,,magenta,triangle
0.0,8.0,0.0,1.0,3.0,3.0,372.2354564815759,1.0,1.0,part_1,,,,,,,,,,,,,gray,I
206.0,3.0,3.0,0.0,2.0,2.0,355.2934490144253,1.0,1.0,part_1,,,,,,,,,,,,,blue,diamond
92.0,2.0,2.0,0.0,1.0,1.0,404.8906695097685,1.0,1.0,part_1,,,,,,,,,,,,,yellow,cross
177.0,7.0,3.0,1.0,3.0,3.0,505.4941736161709,1.0,1.0,part_1,,,,,,,,,,,,,green,hexagon
0.0,5.0,0.0,1.0,1.0,1.0,406.2733836472034,1.0,1.0,part_1,,,,,,,,,,,,,orange,circle
201.0,3.0,3.0,0.0,1.0,1.0,398.913836106658,1.0,1.0,part_1,,,,,,,,,,,,,blue,diamond
0.0,3.0,0.0,0.0,2.0,2.0,674.123102799058,1.0,1.0,part_1,,,,,,,,,,,,,blue,diamond
72.0,1.0,1.0,0.0,1.0,1.0,484.6520144492388,1.0,1.0,part_1,,,,,,,,,,,,,cyan,flipped triangle
114.0,2.0,2.0,0.0,4.0,4.0,492.3372510820627,1.0,1.0,part_1,,,,,,,,,,,,,yellow,cross
0.0,5.0,0.0,1.0,3.0,3.0,417.5508990883827,1.0,1.0,part_1,,,,,,,,,,,,,orange,circle
58.0,5.0,1.0,1.0,2.0,2.0,261.5464739501476,1.0,1.0,part_1,,,,,,,,,,,,,orange,circle
215.0,7.0,3.0,1.0,2.0,2.0,303.32126095891,1.0,1.0,part_1,,,,,,,,,,,,,green,hexagon
0.0,4.0,0.0,0.0,3.0,3.0,318.780854344368,1.0,1.0,part_1,,,,,,,,,,,,,magenta,triangle
40.0,1.0,1.0,0.0,4.0,4.0,348.3475111424923,1.0,1.0,part_1,,,,,,,,,,,,,cyan,flipped triangle
0.0,8.0,0.0,1.0,1.0,1.0,269.9663992971182,1.0,1.0,part_1,,,,,,,,,,,,,gray,I
384.0,8.0,4.0,1.0,4.0,4.0,594.7019085288048,1.0,1.0,part_1,,,,,,,,,,,,,gray,I
184.0,3.0,3.0,0.0,1.0,1.0,322.4881831556558,1.0,1.0,part_1,,,,,,,,,,,,,blue,diamond
199.0,3.0,3.0,0.0,1.0,1.0,310.8093775808811,1.0,1.0,part_1,,,,,,,,,,,,,blue,diamond
380.0,4.0,4.0,0.0,4.0,4.0,355.0990670919418,1.0,1.0,part_1,,,,,,,,,,,,,magenta,triangle
107.0,2.0,2.0,0.0,2.0,2.0,359.0640835464,1.0,1.0,part_1,,,,,,,,,,,,,yellow,cross
402.0,8.0,4.0,1.0,3.0,3.0,329.7914545983076,1.0,1.0,part_1,,,,,,,,,,,,,gray,I
0.0,2.0,0.0,0.0,2.0,2.0,302.7556389570236,1.0,1.0,part_1,,,,,,,,,,,,,yellow,cross
0.0,1.0,0.0,0.0,3.0,3.0,346.7361442744732,1.0,1.0,part_1,,,,,,,,,,,,,cyan,flipped triangle
0.0,2.0,0.0,0.0,1.0,1.0,331.5344322472811,1.0,1.0,part_1,,,,,,,,,,,,,yellow,cross
67.0,5.0,1.0,1.0,4.0,4.0,360.0571099668741,1.0,1.0,part_1,,,,,,,,,,,,,orange,circle
190.0,7.0,3.0,1.0,1.0,1.0,321.4881923049688,1.0,1.0,part_1,,,,,,,,,,,,,green,hexagon
409.0,8.0,4.0,1.0,1.0,1.0,544.8162201792002,1.0,1.0,part_1,,,,,,,,,,,,,gray,I
416.0,8.0,4.0,1.0,2.0,2.0,467.3008676618337,1.0,1.0,part_1,,,,,,,,,,,,,gray,I
379.0,8.0,4.0,1.0,1.0,1.0,432.4942268431186,1.0,1.0,part_1,,,,,,,,,,,,,gray,I
408.0,4.0,4.0,0.0,3.0,3.0,303.1263239681721,1.0,1.0,part_1,,,,,,,,,,,,,magenta,triangle
195.0,7.0,3.0,1.0,3.0,3.0,304.8587329685688,1.0,1.0,part_1,,,,,,,,,,,,,green,hexagon
36.0,5.0,1.0,1.0,4.0,4.0,292.7467562258243,1.0,1.0,part_1,,,,,,,,,,,,,orange,circle
202.0,3.0,3.0,0.0,4.0,4.0,324.7011601924896,1.0,1.0,part_1,,,,,,,,,,,,,blue,diamond
422.0,4.0,4.0,0.0,2.0,2.0,269.7323877364397,1.0,1.0,part_1,,,,,,,,,,,,,magenta,triangle
415.0,8.0,4.0,1.0,2.0,2.0,371.2713737040758,1.0,1.0,part_1,,,,,,,,,,,,,gray,I
416.0,8.0,4.0,1.0,2.0,2.0,322.2149237990379,1.0,1.0,part_1,,,,,,,,,,,,,gray,I
101.0,6.0,2.0,1.0,3.0,3.0,326.9177041947841,1.0,1.0,part_1,,,,,,,,,,,,,white,square
0.0,7.0,0.0,1.0,1.0,1.0,314.7033601999283,1.0,1.0,part_1,,,,,,,,,,,,,green,hexagon
206.0,3.0,3.0,0.0,3.0,3.0,374.6130261570215,1.0,1.0,part_1,,,,,,,,,,,,,blue,diamond
199.0,7.0,3.0,1.0,3.0,3.0,445.4344008117914,1.0,1.0,part_1,,,,,,,,,,,,,green,hexagon
0.0,3.0,0.0,0.0,2.0,2.0,282.6764602214098,1.0,1.0,part_1,,,,,,,,,,,,,blue,diamond
0.0,4.0,0.0,0.0,2.0,2.0,309.8319843411445,1.0,1.0,part_1,,,,,,,,,,,,,magenta,triangle
44.0,1.0,1.0,0.0,2.0,2.0,376.2755189090967,1.0,1.0,part_1,,,,,,,,,,,,,cyan,flipped triangle
403.0,8.0,4.0,1.0,2.0,2.0,344.2142195999622,1.0,1.0,part_1,,,,,,,,,,,,,gray,I
398.0,4.0,4.0,0.0,2.0,2.0,321.4884232729673,1.0,1.0,part_1,,,,,,,,,,,,,magenta,triangle
64.0,5.0,1.0,1.0,2.0,2.0,318.356679752469,1.0,1.0,part_1,,,,,,,,,,,,,orange,circle
101.0,2.0,2.0,0.0,1.0,1.0,342.712951824069,1.0,1.0,part_1,,,,,,,,,,,,,yellow,cross
110.0,6.0,2.0,1.0,4.0,4.0,330.7746574282646,1.0,1.0,part_1,,,,,,,,,,,,,white,square
389.0,4.0,4.0,0.0,3.0,3.0,351.2872755527496,1.0,1.0,part_1,,,,,,,,,,,,,magenta,triangle
50.0,5.0,1.0,1.0,1.0,1.0,442.2449078410864,1.0,1.0,part_1,,,,,,,,,,,,,orange,circle
0.0,5.0,0.0,1.0,2.0,2.0,350.7255241274833,1.0,1.0,part_1,,,,,,,,,,,,,orange,circle
86.0,2.0,2.0,0.0,3.0,3.0,445.1548773795366,1.0,1.0,part_1,,,,,,,,,,,,,yellow,cross
379.0,4.0,4.0,0.0,1.0,1.0,322.8029627352953,1.0,1.0,part_1,,,,,,,,,,,,,magenta,triangle
63.0,5.0,1.0,1.0,2.0,2.0,286.0140912234783,1.0,1.0,part_1,,,,,,,,,,,,,orange,circle
32.0,1.0,1.0,0.0,3.0,3.0,316.5589477866888,1.0,1.0,part_1,,,,,,,,,,,,,cyan,flipped triangle
223.0,3.0,3.0,0.0,3.0,3.0,349.5015297085047,1.0,1.0,part_1,,,,,,,,,,,,,blue,diamond
0.0,7.0,0.0,1.0,4.0,4.0,302.2964727133512,1.0,1.0,part_1,,,,,,,,,,,,,green,hexagon
203.0,3.0,3.0,0.0,3.0,3.0,417.0741625130176,1.0,1.0,part_1,,,,,,,,,,,,,blue,diamond
72.0,1.0,1.0,0.0,2.0,2.0,348.9926476031542,2.0,1.0,part_1,,,,,,,,,,,,,cyan,flipped triangle
205.0,7.0,3.0,1.0,1.0,1.0,314.750200137496,2.0,1.0,part_1,,,,,,,,,,,,,green,hexagon
410.0,4.0,4.0,0.0,4.0,4.0,335.5491328984499,2.0,1.0,part_1,,,,,,,,,,,,,magenta,triangle
203.0,7.0,3.0,1.0,1.0,1.0,372.3926655948162,2.0,1.0,part_1,,,,,,,,,,,,,green,hexagon
39.0,5.0,1.0,1.0,3.0,3.0,342.4880672246218,2.0,1.0,part_1,,,,,,,,,,,,,orange,circle
124.0,6.0,2.0,1.0,3.0,3.0,382.1132332086563,2.0,1.0,part_1,,,,,,,,,,,,,white,square
382.0,4.0,4.0,0.0,2.0,2.0,328.1190413981676,2.0,1.0,part_1,,,,,,,,,,,,,magenta,triangle
205.0,3.0,3.0,0.0,2.0,2.0,295.6506162881851,2.0,1.0,part_1,,,,,,,,,,,,,blue,diamond
40.0,5.0,1.0,1.0,2.0,2.0,339.5702484995127,2.0,1.0,part_1,,,,,,,,,,,,,orange,circle
79.0,6.0,2.0,1.0,1.0,1.0,367.2240599989891,2.0,1.0,part_1,,,,,,,,,,,,,white,square
202.0,7.0,3.0,1.0,4.0,4.0,339.780954644084,2.0,1.0,part_1,,,,,,,,,,,,,green,hexagon
221.0,7.0,3.0,1.0,3.0,3.0,297.6131644099951,2.0,1.0,part_1,,,,,,,,,,,,,green,hexagon
32.0,5.0,1.0,1.0,2.0,2.0,236.3876290619373,2.0,1.0,part_1,,,,,,,,,,,,,orange,circle
0.0,2.0,0.0,0.0,2.0,2.0,264.9657763540745,2.0,1.0,part_1,,,,,,,,,,,,,yellow,cross
82.0,6.0,2.0,1.0,4.0,4.0,353.7043202668428,2.0,2.0,part_1,,,,,,,,,,,,,white,square
395.0,4.0,4.0,0.0,2.0,2.0,296.8167141079902,2.0,1.0,part_1,,,,,,,,,,,,,magenta,triangle
417.0,4.0,4.0,0.0,3.0,3.0,427.2633101791143,2.0,1.0,part_1,,,,,,,,,,,,,magenta,triangle
0.0,2.0,0.0,0.0,1.0,1.0,523.334676399827,2.0,1.0,part_1,,,,,,,,,,,,,yellow,cross
0.0,4.0,0.0,0.0,4.0,4.0,517.2281041741371,2.0,1.0,part_1,,,,,,,,,,,,,magenta,triangle
63.0,1.0,1.0,0.0,2.0,2.0,299.191951751709,2.0,1.0,part_1,,,,,,,,,,,,,cyan,flipped triangle
66.0,5.0,1.0,1.0,4.0,4.0,423.4908316284418,2.0,1.0,part_1,,,,,,,,,,,,,orange,circle
390.0,8.0,4.0,1.0,1.0,1.0,353.9491202682256,2.0,1.0,part_1,,,,,,,,,,,,,gray,I
85.0,2.0,2.0,0.0,1.0,1.0,358.6812634021044,2.0,1.0,part_1,,,,,,,,,,,,,yellow,cross
117.0,6.0,2.0,1.0,4.0,4.0,398.7978119403124,2.0,1.0,part_1,,,,,,,,,,,,,white,square
182.0,7.0,3.0,1.0,3.0,3.0,396.3828347623348,2.0,1.0,part_1,,,,,,,,,,,,,green,hexagon
60.0,1.0,1.0,0.0,4.0,4.0,461.8711490184068,2.0,1.0,part_1,,,,,,,,,,,,,cyan,flipped triangle
0.0,5.0,0.0,1.0,2.0,2.0,265.9610733389854,2.0,1.0,part_1,,,,,,,,,,,,,orange,circle
120.0,6.0,2.0,1.0,2.0,2.0,282.1525447070598,2.0,1.0,part_1,,,,,,,,,,,,,white,square
218.0,7.0,3.0,1.0,1.0,1.0,358.6484082043171,2.0,1.0,part_1,,,,,,,,,,,,,green,hexagon
80.0,2.0,2.0,0.0,4.0,4.0,367.5479535013437,2.0,1.0,part_1,,,,,,,,,,,,,yellow,cross
194.0,7.0,3.0,1.0,4.0,4.0,383.6321234703064,2.0,1.0,part_1,,,,,,,,,,,,,green,hexagon
184.0,7.0,3.0,1.0,2.0,2.0,273.7651355564594,2.0,1.0,part_1,,,,,,,,,,,,,green,hexagon
56.0,1.0,1.0,0.0,3.0,3.0,584.5529604703188,2.0,1.0,part_1,,,,,,,,,,,,,cyan,flipped triangle
0.0,8.0,0.0,1.0,2.0,2.0,378.6671310663223,2.0,1.0,part_1,,,,,,,,,,,,,gray,I
103.0,2.0,2.0,0.0,4.0,4.0,378.3351704478264,2.0,1.0,part_1,,,,,,,,,,,,,yellow,cross
58.0,5.0,1.0,1.0,3.0,3.0,469.6213249117136,2.0,1.0,part_1,,,,,,,,,,,,,orange,circle
0.0,8.0,0.0,1.0,2.0,2.0,315.8284556120634,2.0,1.0,part_1,,,,,,,,,,,,,gray,I
101.0,6.0,2.0,1.0,4.0,4.0,365.0925569236278,2.0,1.0,part_1,,,,,,,,,,,,,white,square
77.0,6.0,2.0,1.0,3.0,3.0,404.7767594456672,2.0,1.0,part_1,,,,,,,,,,,,,white,square
414.0,8.0,4.0,1.0,1.0,1.0,326.5070579946041,2.0,1.0,part_1,,,,,,,,,,,,,gray,I
0.0,3.0,0.0,0.0,4.0,4.0,367.5679042935371,2.0,1.0,part_1,,,,,,,,,,,,,blue,diamond
94.0,6.0,2.0,1.0,1.0,1.0,355.8617737144232,2.0,1.0,part_1,,,,,,,,,,,,,white,square
206.0,7.0,3.0,1.0,1.0,1.0,341.5596410632133,2.0,1.0,part_1,,,,,,,,,,,,,green,hexagon
406.0,8.0,4.0,1.0,3.0,3.0,403.2162893563509,2.0,1.0,part_1,,,,,,,,,,,,,gray,I
0.0,5.0,0.0,1.0,1.0,1.0,382.2968490421772,2.0,1.0,part_1,,,,,,,,,,,,,orange,circle
223.0,7.0,3.0,1.0,4.0,4.0,460.0069709122181,2.0,1.0,part_1,,,,,,,,,,,,,green,hexagon
378.0,8.0,4.0,1.0,4.0,4.0,408.3538334816694,2.0,1.0,part_1,,,,,,,,,,,,,gray,I
71.0,5.0,1.0,1.0,4.0,4.0,467.9876435548067,2.0,1.0,part_1,,,,,,,,,,,,,orange,circle
192.0,3.0,3.0,0.0,2.0,2.0,392.3932202160358,2.0,1.0,part_1,,,,,,,,,,,,,blue,diamond
29.0,1.0,1.0,0.0,3.0,3.0,405.2844159305095,2.0,1.0,part_1,,,,,,,,,,,,,cyan,flipped triangle
58.0,1.0,1.0,0.0,2.0,2.0,355.2961107343435,2.0,1.0,part_1,,,,,,,,,,,,,cyan,flipped triangle
95.0,2.0,2.0,0.0,1.0,1.0,466.1183673888445,2.0,1.0,part_1,,,,,,,,,,,,,yellow,cross
224.0,3.0,3.0,0.0,1.0,1.0,325.3893740475178,2.0,1.0,part_1,,,,,,,,,,,,,blue,diamond
96.0,6.0,2.0,1.0,4.0,4.0,392.1359367668628,2.0,1.0,part_1,,,,,,,,,,,,,white,square
53.0,1.0,1.0,0.0,1.0,1.0,326.7719224095344,2.0,1.0,part_1,,,,,,,,,,,,,cyan,flipped triangle
90.0,2.0,2.0,0.0,2.0,2.0,322.8321336209774,2.0,1.0,part_1,,,,,,,,,,,,,yellow,cross
0.0,2.0,0.0,0.0,2.0,2.0,288.1186697632074,2.0,1.0,part_1,,,,,,,,,,,,,yellow,cross
108.0,6.0,2.0,1.0,3.0,3.0,310.8729384839535,2.0,1.0,part_1,,,,,,,,,,,,,white,square
0.0,7.0,0.0,1.0,3.0,3.0,331.0684654861688,2.0,1.0,part_1,,,,,,,,,,,,,green,hexagon
0.0,7.0,0.0,1.0,3.0,3.0,420.3707315027714,2.0,1.0,part_1,,,,,,,,,,,,,green,hexagon
46.0,1.0,1.0,0.0,1.0,1.0,385.0001078099012,2.0,1.0,part_1,,,,,,,,,,,,,cyan,flipped triangle
183.0,3.0,3.0,0.0,2.0,2.0,271.9886228442192,2.0,1.0,part_1,,,,,,,,,,,,,blue,diamond
0.0,1.0,0.0,0.0,1.0,1.0,266.5998879820108,2.0,1.0,part_1,,,,,,,,,,,,,cyan,flipped triangle
75.0,1.0,1.0,0.0,3.0,3.0,314.2982274293899,2.0,1.0,part_1,,,,,,,,,,,,,cyan,flipped triangle
0.0,3.0,0.0,0.0,2.0,2.0,268.7574774026871,2.0,1.0,part_1,,,,,,,,,,,,,blue,diamond
206.0,7.0,3.0,1.0,2.0,2.0,272.3908200860023,2.0,1.0,part_1,,,,,,,,,,,,,green,hexagon
395.0,8.0,4.0,1.0,4.0,4.0,332.9102806746959,2.0,1.0,part_1,,,,,,,,,,,,,gray,I
0.0,1.0,0.0,0.0,2.0,2.0,323.3934435993433,2.0,1.0,part_1,,,,,,,,,,,,,cyan,flipped triangle
206.0,3.0,3.0,0.0,4.0,4.0,329.6109717339277,2.0,1.0,part_1,,,,,,,,,,,,,blue,diamond
0.0,8.0,0.0,1.0,4.0,4.0,358.0939546227455,2.0,1.0,part_1,,,,,,,,,,,,,gray,I
402.0,4.0,4.0,0.0,2.0,2.0,247.8570900857448,2.0,1.0,part_1,,,,,,,,,,,,,magenta,triangle
401.0,8.0,4.0,1.0,3.0,3.0,292.7683815360069,2.0,1.0,part_1,,,,,,,,,,,,,gray,I
29.0,5.0,1.0,1.0,2.0,2.0,268.0507320910692,2.0,1.0,part_1,,,,,,,,,,,,,orange,circle
0.0,2.0,0.0,0.0,3.0,3.0,378.4092999994755,2.0,1.0,part_1,,,,,,,,,,,,,yellow,cross
205.0,7.0,3.0,1.0,1.0,1.0,437.9506185650825,2.0,1.0,part_1,,,,,,,,,,,,,green,hexagon
194.0,7.0,3.0,1.0,4.0,4.0,339.6667800843715,2.0,1.0,part_1,,,,,,,,,,,,,green,hexagon
390.0,4.0,4.0,0.0,4.0,4.0,374.6005874127149,2.0,1.0,part_1,,,,,,,,,,,,,magenta,triangle
38.0,5.0,1.0,1.0,4.0,4.0,354.7035306692123,2.0,1.0,part_1,,,,,,,,,,,,,orange,circle
109.0,2.0,2.0,0.0,2.0,2.0,229.7472506761551,2.0,1.0,part_1,,,,,,,,,,,,,yellow,cross
96.0,2.0,2.0,0.0,3.0,3.0,361.9300406426191,2.0,1.0,part_1,,,,,,,,,,,,,yellow,cross
0.0,4.0,0.0,0.0,4.0,4.0,576.6569077968597,2.0,1.0,part_1,,,,,,,,,,,,,magenta,triangle
40.0,5.0,1.0,1.0,3.0,3.0,389.6568343043327,2.0,1.0,part_1,,,,,,,,,,,,,orange,circle
384.0,4.0,4.0,0.0,4.0,4.0,370.2792394906282,2.0,1.0,part_1,,,,,,,,,,,,,magenta,triangle
42.0,5.0,1.0,1.0,4.0,4.0,325.1151237636804,2.0,1.0,part_1,,,,,,,,,,,,,orange,circle
107.0,6.0,2.0,1.0,1.0,1.0,401.9500240683555,2.0,1.0,part_1,,,,,,,,,,,,,white,square
52.0,1.0,1.0,0.0,4.0,4.0,350.6082370877266,2.0,1.0,part_1,,,,,,,,,,,,,cyan,flipped triangle
211.0,7.0,3.0,1.0,3.0,3.0,399.2188815027475,2.0,1.0,part_1,,,,,,,,,,,,,green,hexagon
416.0,4.0,4.0,0.0,2.0,2.0,272.2515724599361,2.0,1.0,part_1,,,,,,,,,,,,,magenta,triangle
124.0,2.0,2.0,0.0,3.0,3.0,520.5808542668819,2.0,1.0,part_1,,,,,,,,,,,,,yellow,cross
32.0,1.0,1.0,0.0,4.0,4.0,411.9558315724134,2.0,1.0,part_1,,,,,,,,,,,,,cyan,flipped triangle
33.0,1.0,1.0,0.0,2.0,2.0,318.4756357222795,2.0,1.0,part_1,,,,,,,,,,,,,cyan,flipped triangle
40.0,1.0,1.0,0.0,2.0,2.0,355.1987372338772,2.0,1.0,part_1,,,,,,,,,,,,,cyan,flipped triangle
420.0,4.0,4.0,0.0,3.0,3.0,407.1089196950197,2.0,1.0,part_1,,,,,,,,,,,,,magenta,triangle
38.0,1.0,1.0,0.0,1.0,1.0,357.4067112058401,2.0,1.0,part_1,,,,,,,,,,,,,cyan,flipped triangle
205.0,3.0,3.0,0.0,1.0,1.0,442.3713758587837,2.0,1.0,part_1,,,,,,,,,,,,,blue,diamond
0.0,3.0,0.0,0.0,3.0,3.0,358.6704935878515,2.0,1.0,part_1,,,,,,,,,,,,,blue,diamond
218.0,3.0,3.0,0.0,1.0,1.0,402.6803392916918,2.0,1.0,part_1,,,,,,,,,,,,,blue,diamond
382.0,8.0,4.0,1.0,1.0,1.0,382.2715245187282,2.0,1.0,part_1,,,,,,,,,,,,,gray,I
418.0,8.0,4.0,1.0,1.0,1.0,390.5616793781519,2.0,1.0,part_1,,,,,,,,,,,,,gray,I
91.0,6.0,2.0,1.0,2.0,2.0,266.8784409761429,2.0,1.0,part_1,,,,,,,,,,,,,white,square
380.0,8.0,4.0,1.0,2.0,2.0,395.3499849885702,3.0,1.0,part_1,,,,,,,,,,,,,gray,I
389.0,8.0,4.0,1.0,2.0,2.0,279.0274359285831,3.0,1.0,part_1,,,,,,,,,,,,,gray,I
68.0,1.0,1.0,0.0,3.0,3.0,350.0573877245188,3.0,1.0,part_1,,,,,,,,,,,,,cyan,flipped triangle
32.0,1.0,1.0,0.0,4.0,4.0,355.6001223623752,3.0,1.0,part_1,,,,,,,,,,,,,cyan,flipped triangle
0.0,5.0,0.0,1.0,4.0,4.0,365.4834609478712,3.0,1.0,part_1,,,,,,,,,,,,,orange,circle
210.0,7.0,3.0,1.0,2.0,2.0,290.3139609843492,3.0,1.0,part_1,,,,,,,,,,,,,green,hexagon
394.0,8.0,4.0,1.0,3.0,3.0,302.841505035758,3.0,1.0,part_1,,,,,,,,,,,,,gray,I
78.0,2.0,2.0,0.0,4.0,4.0,283.9582208544016,3.0,1.0,part_1,,,,,,,,,,,,,yellow,cross
0.0,8.0,0.0,1.0,2.0,2.0,288.9620196074247,3.0,1.0,part_1,,,,,,,,,,,,,gray,I
39.0,1.0,1.0,0.0,2.0,2.0,286.8100125342607,3.0,1.0,part_1,,,,,,,,,,,,,cyan,flipped triangle
60.0,5.0,1.0,1.0,3.0,3.0,377.4192444980144,3.0,1.0,part_1,,,,,,,,,,,,,orange,circle
48.0,5.0,1.0,1.0,4.0,4.0,350.6477996706962,3.0,1.0,part_1,,,,,,,,,,,,,orange,circle
409.0,4.0,4.0,0.0,4.0,4.0,316.9205747544765,3.0,1.0,part_1,,,,,,,,,,,,,magenta,triangle
52.0,5.0,1.0,1.0,1.0,1.0,379.0307678282261,3.0,1.0,part_1,,,,,,,,,,,,,orange,circle
211.0,3.0,3.0,0.0,3.0,3.0,311.2822156399488,3.0,1.0,part_1,,,,,,,,,,,,,blue,diamond
0.0,1.0,0.0,0.0,2.0,2.0,272.7894596755504,3.0,1.0,part_1,,,,,,,,,,,,,cyan,flipped triangle
387.0,4.0,4.0,0.0,3.0,3.0,368.5848005115986,3.0,1.0,part_1,,,,,,,,,,,,,magenta,triangle
0.0,3.0,0.0,0.0,2.0,2.0,300.4871532320976,3.0,1.0,part_1,,,,,,,,,,,,,blue,diamond
393.0,8.0,4.0,1.0,1.0,1.0,448.8252308219671,3.0,1.0,part_1,,,,,,,,,,,,,gray,I
417.0,8.0,4.0,1.0,3.0,3.0,460.1649772375822,3.0,1.0,part_1,,,,,,,,,,,,,gray,I
0.0,7.0,0.0,1.0,2.0,2.0,378.1734630465507,3.0,1.0,part_1,,,,,,,,,,,,,green,hexagon
178.0,3.0,3.0,0.0,2.0,2.0,324.8583935201168,3.0,1.0,part_1,,,,,,,,,,,,,blue,diamond
110.0,2.0,2.0,0.0,1.0,1.0,353.7464905530214,3.0,1.0,part_1,,,,,,,,,,,,,yellow,cross
382.0,4.0,4.0,0.0,1.0,1.0,488.6546060442924,3.0,1.0,part_1,,,,,,,,,,,,,magenta,triangle
92.0,6.0,2.0,1.0,2.0,2.0,317.8701940923929,3.0,1.0,part_1,,,,,,,,,,,,,white,square
194.0,3.0,3.0,0.0,2.0,2.0,329.8832755535841,3.0,1.0,part_1,,,,,,,,,,,,,blue,diamond
401.0,4.0,4.0,0.0,3.0,3.0,575.9549532085657,3.0,1.0,part_1,,,,,,,,,,,,,magenta,triangle
103.0,6.0,2.0,1.0,2.0,2.0,363.7552130967378,3.0,1.0,part_1,,,,,,,,,,,,,white,square
78.0,6.0,2.0,1.0,4.0,4.0,411.4708490669727,3.0,2.0,part_1,,,,,,,,,,,,,white,square
223.0,7.0,3.0,1.0,3.0,3.0,395.1247315853834,3.0,1.0,part_1,,,,,,,,,,,,,green,hexagon
201.0,7.0,3.0,1.0,4.0,4.0,331.803971901536,3.0,1.0,part_1,,,,,,,,,,,,,green,hexagon
215.0,3.0,3.0,0.0,3.0,3.0,337.2669089585542,3.0,1.0,part_1,,,,,,,,,,,,,blue,diamond
0.0,2.0,0.0,0.0,3.0,3.0,333.7437454611063,3.0,1.0,part_1,,,,,,,,,,,,,yellow,cross
0.0,8.0,0.0,1.0,1.0,1.0,333.5033114999532,3.0,1.0,part_1,,,,,,,,,,,,,gray,I
194.0,3.0,3.0,0.0,2.0,2.0,302.9052745550871,3.0,1.0,part_1,,,,,,,,,,,,,blue,diamond
415.0,4.0,4.0,0.0,1.0,1.0,310.1825416088104,3.0,1.0,part_1,,,,,,,,,,,,,magenta,triangle
416.0,4.0,4.0,0.0,1.0,1.0,328.6005314439535,3.0,1.0,part_1,,,,,,,,,,,,,magenta,triangle
210.0,3.0,3.0,0.0,3.0,3.0,351.719681173563,3.0,1.0,part_1,,,,,,,,,,,,,blue,diamond
205.0,3.0,3.0,0.0,4.0,4.0,316.5770154446363,3.0,1.0,part_1,,,,,,,,,,,,,blue,diamond
186.0,3.0,3.0,0.0,1.0,1.0,286.4448651671409,3.0,1.0,part_1,,,,,,,,,,,,,blue,diamond
0.0,4.0,0.0,0.0,3.0,3.0,334.9299039691686,3.0,1.0,part_1,,,,,,,,,,,,,magenta,triangle
98.0,2.0,2.0,0.0,2.0,2.0,330.1207609474659,3.0,1.0,part_1,,,,,,,,,,,,,yellow,cross
37.0,1.0,1.0,0.0,2.0,2.0,310.748778283596,3.0,1.0,part_1,,,,,,,,,,,,,cyan,flipped triangle
117.0,2.0,2.0,0.0,4.0,4.0,584.5512486994267,3.0,2.0,part_1,,,,,,,,,,,,,yellow,cross
199.0,3.0,3.0,0.0,3.0,3.0,572.6440250873566,3.0,1.0,part_1,,,,,,,,,,,,,blue,diamond
101.0,2.0,2.0,0.0,2.0,2.0,530.4168295115232,3.0,1.0,part_1,,,,,,,,,,,,,yellow,cross
0.0,7.0,0.0,1.0,4.0,4.0,516.0250477492809,3.0,1.0,part_1,,,,,,,,,,,,,green,hexagon
224.0,7.0,3.0,1.0,1.0,1.0,585.6187213212252,3.0,1.0,part_1,,,,,,,,,,,,,green,hexagon
387.0,8.0,4.0,1.0,3.0,3.0,356.6754125058651,3.0,1.0,part_1,,,,,,,,,,,,,gray,I
108.0,6.0,2.0,1.0,3.0,3.0,411.5577880293131,3.0,1.0,part_1,,,,,,,,,,,,,white,square
213.0,3.0,3.0,0.0,2.0,2.0,358.482239767909,3.0,1.0,part_1,,,,,,,,,,,,,blue,diamond
32.0,5.0,1.0,1.0,2.0,2.0,338.9364928007126,3.0,1.0,part_1,,,,,,,,,,,,,orange,circle
120.0,2.0,2.0,0.0,2.0,2.0,384.6517223864794,3.0,1.0,part_1,,,,,,,,,,,,,yellow,cross
401.0,8.0,4.0,1.0,4.0,4.0,493.347767740488,3.0,1.0,part_1,,,,,,,,,,,,,gray,I
93.0,6.0,2.0,1.0,4.0,4.0,330.4172176867723,3.0,1.0,part_1,,,,,,,,,,,,,white,square
108.0,6.0,2.0,1.0,1.0,1.0,344.0325856208801,3.0,1.0,part_1,,,,,,,,,,,,,white,square
114.0,6.0,2.0,1.0,1.0,1.0,380.0370525568723,3.0,1.0,part_1,,,,,,,,,,,,,white,square
118.0,6.0,2.0,1.0,1.0,1.0,394.263532012701,3.0,1.0,part_1,,,,,,,,,,,,,white,square
0.0,5.0,0.0,1.0,3.0,3.0,437.7545788884163,3.0,1.0,part_1,,,,,,,,,,,,,orange,circle
177.0,3.0,3.0,0.0,3.0,3.0,305.6976273655891,3.0,1.0,part_1,,,,,,,,,,,,,blue,diamond
38.0,1.0,1.0,0.0,1.0,1.0,335.6748353689909,3.0,1.0,part_1,,,,,,,,,,,,,cyan,flipped triangle
85.0,6.0,2.0,1.0,2.0,2.0,298.4517160803079,3.0,1.0,part_1,,,,,,,,,,,,,white,square
58.0,5.0,1.0,1.0,4.0,4.0,312.2790306806564,3.0,1.0,part_1,,,,,,,,,,,,,orange,circle
223.0,3.0,3.0,0.0,4.0,4.0,373.0500135570764,3.0,1.0,part_1,,,,,,,,,,,,,blue,diamond
379.0,4.0,4.0,0.0,3.0,3.0,347.4047798663378,3.0,1.0,part_1,,,,,,,,,,,,,magenta,triangle
54.0,5.0,1.0,1.0,3.0,3.0,372.6123962551355,3.0,1.0,part_1,,,,,,,,,,,,,orange,circle
408.0,8.0,4.0,1.0,1.0,1.0,419.3437006324529,3.0,1.0,part_1,,,,,,,,,,,,,gray,I
0.0,7.0,0.0,1.0,4.0,4.0,345.546543598175,3.0,1.0,part_1,,,,,,,,,,,,,green,hexagon
388.0,4.0,4.0,0.0,1.0,1.0,534.076040610671,3.0,1.0,part_1,,,,,,,,,,,,,magenta,triangle
27.0,5.0,1.0,1.0,2.0,2.0,375.4564560949802,3.0,1.0,part_1,,,,,,,,,,,,,orange,circle
0.0,5.0,0.0,1.0,2.0,2.0,527.2801127284765,3.0,1.0,part_1,,,,,,,,,,,,,orange,circle
99.0,2.0,2.0,0.0,4.0,4.0,379.7477670013904,3.0,1.0,part_1,,,,,,,,,,,,,yellow,cross
108.0,2.0,2.0,0.0,3.0,3.0,334.0134155005216,3.0,1.0,part_1,,,,,,,,,,,,,yellow,cross
0.0,4.0,0.0,0.0,4.0,4.0,338.703878223896,3.0,1.0,part_1,,,,,,,,,,,,,magenta,triangle
52.0,5.0,1.0,1.0,1.0,1.0,462.5020772218704,3.0,1.0,part_1,,,,,,,,,,,,,orange,circle
390.0,8.0,4.0,1.0,4.0,4.0,515.5697669833899,3.0,1.0,part_1,,,,,,,,,,,,,gray,I
36.0,1.0,1.0,0.0,4.0,4.0,386.6160828620195,3.0,1.0,part_1,,,,,,,,,,,,,cyan,flipped triangle
0.0,6.0,0.0,1.0,2.0,2.0,335.7659075409174,3.0,1.0,part_1,,,,,,,,,,,,,white,square
87.0,6.0,2.0,1.0,2.0,2.0,298.813384026289,3.0,1.0,part_1,,,,,,,,,,,,,white,square
0.0,4.0,0.0,0.0,1.0,1.0,479.0055360645056,3.0,1.0,part_1,,,,,,,,,,,,,magenta,triangle
181.0,3.0,3.0,0.0,4.0,4.0,526.4359246939421,3.0,1.0,part_1,,,,,,,,,,,,,blue,diamond
0.0,6.0,0.0,1.0,4.0,4.0,337.3520784080028,3.0,1.0,part_1,,,,,,,,,,,,,white,square
0.0,2.0,0.0,0.0,2.0,2.0,262.4973151832819,3.0,1.0,part_1,,,,,,,,,,,,,yellow,cross
95.0,6.0,2.0,1.0,3.0,3.0,376.2175310403108,3.0,2.0,part_1,,,,,,,,,,,,,white,square
108.0,2.0,2.0,0.0,2.0,2.0,290.4295474290848,3.0,1.0,part_1,,,,,,,,,,,,,yellow,cross
0.0,5.0,0.0,1.0,1.0,1.0,664.0249826014042,3.0,1.0,part_1,,,,,,,,,,,,,orange,circle
400.0,8.0,4.0,1.0,4.0,4.0,406.8544991314411,3.0,1.0,part_1,,,,,,,,,,,,,gray,I
195.0,3.0,3.0,0.0,1.0,1.0,634.5234159380198,3.0,1.0,part_1,,,,,,,,,,,,,blue,diamond
0.0,7.0,0.0,1.0,4.0,4.0,374.7644461691379,3.0,1.0,part_1,,,,,,,,,,,,,green,hexagon
0.0,1.0,0.0,0.0,2.0,2.0,428.3754080533981,3.0,1.0,part_1,,,,,,,,,,,,,cyan,flipped triangle
109.0,6.0,2.0,1.0,3.0,3.0,362.3306304216385,3.0,1.0,part_1,,,,,,,,,,,,,white,square
215.0,3.0,3.0,0.0,4.0,4.0,358.6891833692789,3.0,1.0,part_1,,,,,,,,,,,,,blue,diamond
0.0,7.0,0.0,1.0,1.0,1.0,891.7525857686996,3.0,1.0,part_1,,,,,,,,,,,,,green,hexagon
406.0,4.0,4.0,0.0,1.0,1.0,461.3376632332802,3.0,1.0,part_1,,,,,,,,,,,,,magenta,triangle
52.0,1.0,1.0,0.0,1.0,1.0,379.7405753284693,3.0,1.0,part_1,,,,,,,,,,,,,cyan,flipped triangle
124.0,6.0,2.0,1.0,3.0,3.0,367.0272529125213,3.0,1.0,part_1,,,,,,,,,,,,,white,square
182.0,3.0,3.0,0.0,3.0,3.0,362.8364168107509,3.0,1.0,part_1,,,,,,,,,,,,,blue,diamond
98.0,6.0,2.0,1.0,2.0,2.0,298.8582104444504,3.0,1.0,part_1,,,,,,,,,,,,,white,square
0.0,3.0,0.0,0.0,2.0,2.0,435.7046633958816,3.0,1.0,part_1,,,,,,,,,,,,,blue,diamond
206.0,7.0,3.0,1.0,2.0,2.0,363.8763204216957,3.0,1.0,part_1,,,,,,,,,,,,,green,hexagon
0.0,6.0,0.0,1.0,3.0,3.0,350.6306186318397,4.0,1.0,part_1,,,,,,,,,,,,,white,square
108.0,2.0,2.0,0.0,3.0,3.0,355.3876932710409,4.0,1.0,part_1,,,,,,,,,,,,,yellow,cross
215.0,7.0,3.0,1.0,2.0,2.0,391.1965861916542,4.0,1.0,part_1,,,,,,,,,,,,,green,hexagon
27.0,1.0,1.0,0.0,2.0,2.0,325.322775170207,4.0,1.0,part_1,,,,,,,,,,,,,cyan,flipped triangle
414.0,4.0,4.0,0.0,1.0,1.0,392.5468940287828,4.0,1.0,part_1,,,,,,,,,,,,,magenta,triangle
411.0,8.0,4.0,1.0,4.0,4.0,470.2774509787559,4.0,1.0,part_1,,,,,,,,,,,,,gray,I
0.0,3.0,0.0,0.0,2.0,2.0,271.7899810522795,4.0,1.0,part_1,,,,,,,,,,,,,blue,diamond
50.0,1.0,1.0,0.0,2.0,2.0,334.77932959795,4.0,1.0,part_1,,,,,,,,,,,,,cyan,flipped triangle
38.0,5.0,1.0,1.0,1.0,1.0,577.7211673557758,4.0,1.0,part_1,,,,,,,,,,,,,orange,circle
205.0,7.0,3.0,1.0,4.0,4.0,398.9291936159134,4.0,1.0,part_1,,,,,,,,,,,,,green,hexagon
0.0,2.0,0.0,0.0,4.0,4.0,332.4838373810053,4.0,1.0,part_1,,,,,,,,,,,,,yellow,cross
411.0,4.0,4.0,0.0,3.0,3.0,440.9026838839054,4.0,1.0,part_1,,,,,,,,,,,,,magenta,triangle
0.0,6.0,0.0,1.0,2.0,2.0,319.6494616568088,4.0,1.0,part_1,,,,,,,,,,,,,white,square
0.0,8.0,0.0,1.0,3.0,3.0,458.1704419106245,4.0,1.0,part_1,,,,,,,,,,,,,gray,I
99.0,6.0,2.0,1.0,2.0,2.0,295.1935641467571,4.0,1.0,part_1,,,,,,,,,,,,,white,square
180.0,7.0,3.0,1.0,4.0,4.0,330.5305913090706,4.0,1.0,part_1,,,,,,,,,,,,,green,hexagon
52.0,1.0,1.0,0.0,3.0,3.0,390.5809037387371,4.0,1.0,part_1,,,,,,,,,,,,,cyan,flipped triangle
103.0,6.0,2.0,1.0,2.0,2.0,342.836644500494,4.0,1.0,part_1,,,,,,,,,,,,,white,square
197.0,7.0,3.0,1.0,4.0,4.0,384.3176998198032,4.0,1.0,part_1,,,,,,,,,,,,,green,hexagon
86.0,6.0,2.0,1.0,1.0,1.0,421.5594995766878,4.0,1.0,part_1,,,,,,,,,,,,,white,square
79.0,2.0,2.0,0.0,4.0,4.0,389.4876968115568,4.0,1.0,part_1,,,,,,,,,,,,,yellow,cross
199.0,7.0,3.0,1.0,1.0,1.0,345.5254379659891,4.0,1.0,part_1,,,,,,,,,,,,,green,hexagon
0.0,4.0,0.0,0.0,1.0,1.0,394.4833762943744,4.0,1.0,part_1,,,,,,,,,,,,,magenta,triangle
0.0,1.0,0.0,0.0,4.0,4.0,327.7345579117536,4.0,1.0,part_1,,,,,,,,,,,,,cyan,flipped triangle
186.0,7.0,3.0,1.0,3.0,3.0,332.2715237736702,4.0,1.0,part_1,,,,,,,,,,,,,green,hexagon
93.0,2.0,2.0,0.0,1.0,1.0,578.6750167608261,4.0,1.0,part_1,,,,,,,,,,,,,yellow,cross
37.0,5.0,1.0,1.0,1.0,1.0,493.1475277990103,4.0,1.0,part_1,,,,,,,,,,,,,orange,circle
78.0,6.0,2.0,1.0,1.0,1.0,428.8698509335518,4.0,1.0,part_1,,,,,,,,,,,,,white,square
82.0,2.0,2.0,0.0,3.0,3.0,346.4955203235149,4.0,1.0,part_1,,,,,,,,,,,,,yellow,cross
0.0,3.0,0.0,0.0,4.0,4.0,325.8231021463871,4.0,1.0,part_1,,,,,,,,,,,,,blue,diamond
0.0,3.0,0.0,0.0,3.0,3.0,461.128119379282,4.0,2.0,part_1,,,,,,,,,,,,,blue,diamond
421.0,4.0,4.0,0.0,2.0,2.0,318.1969635188579,4.0,2.0,part_1,,,,,,,,,,,,,magenta,triangle
67.0,1.0,1.0,0.0,4.0,4.0,435.4719892144203,4.0,1.0,part_1,,,,,,,,,,,,,cyan,flipped triangle
72.0,5.0,1.0,1.0,3.0,3.0,370.8133157342672,4.0,1.0,part_1,,,,,,,,,,,,,orange,circle
71.0,1.0,1.0,0.0,3.0,3.0,360.361335799098,4.0,1.0,part_1,,,,,,,,,,,,,cyan,flipped triangle
181.0,7.0,3.0,1.0,1.0,1.0,347.0643572509289,4.0,1.0,part_1,,,,,,,,,,,,,green,hexagon
115.0,6.0,2.0,1.0,4.0,4.0,342.3724956810474,4.0,1.0,part_1,,,,,,,,,,,,,white,square
221.0,3.0,3.0,0.0,2.0,2.0,522.4610343575478,4.0,1.0,part_1,,,,,,,,,,,,,blue,diamond
80.0,6.0,2.0,1.0,4.0,4.0,672.1364855766296,4.0,1.0,part_1,,,,,,,,,,,,,white,square
44.0,5.0,1.0,1.0,1.0,1.0,460.6417063623667,4.0,1.0,part_1,,,,,,,,,,,,,orange,circle
58.0,1.0,1.0,0.0,4.0,4.0,338.8255778700113,4.0,1.0,part_1,,,,,,,,,,,,,cyan,flipped triangle
49.0,5.0,1.0,1.0,1.0,1.0,336.8282094597816,4.0,1.0,part_1,,,,,,,,,,,,,orange,circle
56.0,5.0,1.0,1.0,4.0,4.0,331.4704839140177,4.0,1.0,part_1,,,,,,,,,,,,,orange,circle
203.0,7.0,3.0,1.0,3.0,3.0,295.5538593232631,4.0,1.0,part_1,,,,,,,,,,,,,green,hexagon
91.0,2.0,2.0,0.0,3.0,3.0,407.6037462800741,4.0,1.0,part_1,,,,,,,,,,,,,yellow,cross
0.0,7.0,0.0,1.0,3.0,3.0,343.7288086861372,4.0,1.0,part_1,,,,,,,,,,,,,green,hexagon
49.0,1.0,1.0,0.0,3.0,3.0,343.8152577728033,4.0,1.0,part_1,,,,,,,,,,,,,cyan,flipped triangle
420.0,8.0,4.0,1.0,3.0,3.0,525.1279287040234,4.0,1.0,part_1,,,,,,,,,,,,,gray,I
376.0,4.0,4.0,0.0,2.0,2.0,334.5233425498009,4.0,1.0,part_1,,,,,,,,,,,,,magenta,triangle
188.0,3.0,3.0,0.0,1.0,1.0,365.5682206153869,4.0,1.0,part_1,,,,,,,,,,,,,blue,diamond
188.0,7.0,3.0,1.0,4.0,4.0,311.8783514946699,4.0,1.0,part_1,,,,,,,,,,,,,green,hexagon
77.0,2.0,2.0,0.0,2.0,2.0,413.9175768941641,4.0,1.0,part_1,,,,,,,,,,,,,yellow,cross
108.0,2.0,2.0,0.0,3.0,3.0,417.0333314687013,4.0,1.0,part_1,,,,,,,,,,,,,yellow,cross
0.0,8.0,0.0,1.0,3.0,3.0,494.0232466906309,4.0,1.0,part_1,,,,,,,,,,,,,gray,I
78.0,2.0,2.0,0.0,4.0,4.0,420.0607314705848,4.0,1.0,part_1,,,,,,,,,,,,,yellow,cross
72.0,5.0,1.0,1.0,3.0,3.0,448.5001806169748,4.0,1.0,part_1,,,,,,,,,,,,,orange,circle
182.0,3.0,3.0,0.0,2.0,2.0,330.4561879485845,4.0,2.0,part_1,,,,,,,,,,,,,blue,diamond
382.0,8.0,4.0,1.0,2.0,2.0,310.0468553602695,4.0,1.0,part_1,,,,,,,,,,,,,gray,I
380.0,4.0,4.0,0.0,4.0,4.0,347.1282906830311,4.0,1.0,part_1,,,,,,,,,,,,,magenta,triangle
192.0,7.0,3.0,1.0,2.0,2.0,285.794336348772,4.0,1.0,part_1,,,,,,,,,,,,,green,hexagon
388.0,8.0,4.0,1.0,2.0,2.0,293.3202162384987,4.0,1.0,part_1,,,,,,,,,,,,,gray,I
124.0,2.0,2.0,0.0,1.0,1.0,353.8068309426307,4.0,1.0,part_1,,,,,,,,,,,,,yellow,cross
29.0,1.0,1.0,0.0,1.0,1.0,581.1923649162054,4.0,1.0,part_1,,,,,,,,,,,,,cyan,flipped triangle
400.0,4.0,4.0,0.0,4.0,4.0,317.7749272435903,4.0,2.0,part_1,,,,,,,,,,,,,magenta,triangle
52.0,5.0,1.0,1.0,3.0,3.0,381.1950571835041,4.0,1.0,part_1,,,,,,,,,,,,,orange,circle
78.0,6.0,2.0,1.0,4.0,4.0,319.0109543502331,4.0,1.0,part_1,,,,,,,,,,,,,white,square
421.0,8.0,4.0,1.0,1.0,1.0,350.242156535387,4.0,1.0,part_1,,,,,,,,,,,,,gray,I
0.0,1.0,0.0,0.0,2.0,2.0,352.2219490259886,4.0,1.0,part_1,,,,,,,,,,,,,cyan,flipped triangle
118.0,2.0,2.0,0.0,2.0,2.0,304.0558155626058,4.0,1.0,part_1,,,,,,,,,,,,,yellow,cross
221.0,7.0,3.0,1.0,2.0,2.0,269.5709094405174,4.0,1.0,part_1,,,,,,,,,,,,,green,hexagon
78.0,2.0,2.0,0.0,3.0,3.0,310.3587292134762,4.0,1.0,part_1,,,,,,,,,,,,,yellow,cross
394.0,4.0,4.0,0.0,3.0,3.0,685.2242927998304,4.0,1.0,part_1,,,,,,,,,,,,,magenta,triangle
418.0,4.0,4.0,0.0,4.0,4.0,450.4499454051256,4.0,1.0,part_1,,,,,,,,,,,,,magenta,triangle
113.0,6.0,2.0,1.0,1.0,1.0,325.6372716277838,4.0,1.0,part_1,,,,,,,,,,,,,white,square
0.0,4.0,0.0,0.0,1.0,1.0,403.534596785903,4.0,1.0,part_1,,,,,,,,,,,,,magenta,triangle
0.0,6.0,0.0,1.0,4.0,4.0,481.1452999711036,4.0,1.0,part_1,,,,,,,,,,,,,white,square
0.0,6.0,0.0,1.0,3.0,3.0,347.2551591694355,4.0,1.0,part_1,,,,,,,,,,,,,white,square
0.0,6.0,0.0,1.0,2.0,2.0,303.1224608421325,4.0,1.0,part_1,,,,,,,,,,,,,white,square
54.0,1.0,1.0,0.0,3.0,3.0,372.174946591258,4.0,1.0,part_1,,,,,,,,,,,,,cyan,flipped triangle
0.0,6.0,0.0,1.0,2.0,2.0,339.7285714745521,4.0,1.0,part_1,,,,,,,,,,,,,white,square
0.0,8.0,0.0,1.0,4.0,4.0,462.3443931341171,4.0,1.0,part_1,,,,,,,,,,,,,gray,I
379.0,8.0,4.0,1.0,4.0,4.0,460.3950846940279,4.0,1.0,part_1,,,,,,,,,,,,,gray,I
52.0,1.0,1.0,0.0,1.0,1.0,335.4695681482553,4.0,1.0,part_1,,,,,,,,,,,,,cyan,flipped triangle
403.0,4.0,4.0,0.0,3.0,3.0,323.6099649220705,4.0,1.0,part_1,,,,,,,,,,,,,magenta,triangle
48.0,1.0,1.0,0.0,4.0,4.0,314.405957236886,4.0,1.0,part_1,,,,,,,,,,,,,cyan,flipped triangle
115.0,2.0,2.0,0.0,4.0,4.0,278.4821558743715,4.0,1.0,part_1,,,,,,,,,,,,,yellow,cross
90.0,6.0,2.0,1.0,1.0,1.0,298.0080265551805,4.0,1.0,part_1,,,,,,,,,,,,,white,square
190.0,3.0,3.0,0.0,3.0,3.0,302.0250536501407,4.0,1.0,part_1,,,,,,,,,,,,,blue,diamond
393.0,4.0,4.0,0.0,2.0,2.0,274.3489053100347,4.0,1.0,part_1,,,,,,,,,,,,,magenta,triangle
410.0,8.0,4.0,1.0,3.0,3.0,338.9908596873283,4.0,1.0,part_1,,,,,,,,,,,,,gray,I
186.0,3.0,3.0,0.0,4.0,4.0,319.0548103302717,4.0,1.0,part_1,,,,,,,,,,,,,blue,diamond
87.0,2.0,2.0,0.0,2.0,2.0,296.8876156955957,4.0,1.0,part_1,,,,,,,,,,,,,yellow,cross
0.0,4.0,0.0,0.0,4.0,4.0,359.205087646842,4.0,1.0,part_1,,,,,,,,,,,,,magenta,triangle
178.0,7.0,3.0,1.0,2.0,2.0,301.8671441823244,4.0,1.0,part_1,,,,,,,,,,,,,green,hexagon
108.0,6.0,2.0,1.0,3.0,3.0,281.0251265764236,4.0,1.0,part_1,,,,,,,,,,,,,white,square
66.0,1.0,1.0,0.0,1.0,1.0,318.8951294869184,4.0,1.0,part_1,,,,,,,,,,,,,cyan,flipped triangle
0.0,2.0,0.0,0.0,3.0,3.0,307.4028398841619,4.0,1.0,part_1,,,,,,,,,,,,,yellow,cross
391.0,8.0,4.0,1.0,3.0,3.0,382.2435010224581,4.0,1.0,part_1,,,,,,,,,,,,,gray,I
46.0,5.0,1.0,1.0,1.0,1.0,635.8992159366608,4.0,1.0,part_1,,,,,,,,,,,,,orange,circle
94.0,2.0,2.0,0.0,1.0,1.0,343.9964298158884,4.0,1.0,part_1,,,,,,,,,,,,,yellow,cross
0.0,7.0,3.0,1.0,5.0,0.0,0.0,1.0,0.0,part_2,stop,250.0,250.0,4.0,,,,,,,,,green,hexagon
0.0,7.0,3.0,1.0,5.0,0.0,0.0,1.0,0.0,part_2,stop,300.0,250.0,4.0,,,,,,,,,green,hexagon
0.0,7.0,3.0,1.0,5.0,0.0,0.0,1.0,0.0,part_2,stop,350.0,250.0,4.0,,,,,,,,,green,hexagon
0.0,2.0,2.0,0.0,5.0,5.0,720.3500960022211,1.0,0.0,part_2,go,400.0,250.0,1.0,,,,,,,,,yellow,cross
0.0,8.0,4.0,1.0,6.0,0.0,0.0,1.0,0.0,part_2,stop,400.0,250.0,4.0,,,,,,,,,gray,I
0.0,2.0,2.0,0.0,5.0,5.0,873.95890802145,1.0,0.0,part_2,go,400.0,300.0,1.0,,,,,,,,,yellow,cross
0.0,2.0,2.0,0.0,6.0,6.0,743.6371594667435,1.0,0.0,part_2,go,400.0,300.0,1.0,,,,,,,,,yellow,cross
0.0,5.0,1.0,1.0,6.0,0.0,0.0,1.0,0.0,part_2,stop,400.0,300.0,4.0,,,,,,,,,orange,circle
0.0,3.0,3.0,0.0,6.0,6.0,496.6507460922003,1.0,0.0,part_2,go,400.0,350.0,1.0,,,,,,,,,blue,diamond
0.0,2.0,2.0,0.0,5.0,5.0,734.9785640835762,1.0,0.0,part_2,go,400.0,350.0,1.0,,,,,,,,,yellow,cross
0.0,2.0,2.0,0.0,5.0,5.0,414.1932465136051,1.0,0.0,part_2,go,400.0,350.0,1.0,,,,,,,,,yellow,cross
0.0,1.0,1.0,0.0,5.0,5.0,757.0036742836237,1.0,0.0,part_2,go,400.0,350.0,1.0,,,,,,,,,cyan,flipped triangle
0.0,6.0,2.0,1.0,5.0,0.0,0.0,1.0,0.0,part_2,stop,400.0,350.0,4.0,,,,,,,,,white,square
0.0,2.0,2.0,0.0,6.0,6.0,731.2074489891529,1.0,0.0,part_2,go,450.0,350.0,1.0,,,,,,,,,yellow,cross
0.0,6.0,2.0,1.0,6.0,6.0,781.2800854444504,1.0,0.0,part_2,go,450.0,350.0,1.0,,,,,,,,,white,square
0.0,8.0,4.0,1.0,5.0,0.0,0.0,1.0,0.0,part_2,stop,450.0,350.0,4.0,,,,,,,,,gray,I
0.0,3.0,3.0,0.0,6.0,6.0,787.849111482501,1.0,0.0,part_2,go,500.0,350.0,1.0,,,,,,,,,blue,diamond
0.0,6.0,2.0,1.0,6.0,6.0,857.4529644101858,1.0,0.0,part_2,go,500.0,350.0,1.0,,,,,,,,,white,square
0.0,4.0,4.0,0.0,5.0,5.0,602.5641765445471,1.0,0.0,part_2,go,500.0,350.0,1.0,,,,,,,,,magenta,triangle
0.0,4.0,4.0,0.0,6.0,6.0,1176.4439400285482,1.0,0.0,part_2,go,500.0,350.0,1.0,,,,,,,,,magenta,triangle
0.0,6.0,2.0,1.0,5.0,0.0,0.0,1.0,0.0,part_2,stop,500.0,350.0,4.0,,,,,,,,,white,square
0.0,4.0,4.0,0.0,5.0,5.0,1154.14703451097,1.0,0.0,part_2,go,550.0,350.0,1.0,,,,,,,,,magenta,triangle
0.0,3.0,3.0,0.0,5.0,5.0,919.5686616003512,1.0,0.0,part_2,go,550.0,350.0,1.0,,,,,,,,,blue,diamond
0.0,8.0,4.0,1.0,6.0,0.0,0.0,1.0,0.0,part_2,stop,550.0,350.0,4.0,,,,,,,,,gray,I
0.0,5.0,1.0,1.0,6.0,0.0,0.0,1.0,0.0,part_2,stop,550.0,400.0,4.0,,,,,,,,,orange,circle
0.0,2.0,2.0,0.0,5.0,5.0,1039.4673869013786,1.0,0.0,part_2,go,550.0,450.0,1.0,,,,,,,,,yellow,cross
0.0,7.0,3.0,1.0,6.0,6.0,502.3824255913496,1.0,0.0,part_2,stop,550.0,450.0,3.0,,,,,,,,,green,hexagon
0.0,1.0,1.0,0.0,6.0,6.0,628.1278654932976,1.0,0.0,part_2,go,550.0,400.0,1.0,,,,,,,,,cyan,flipped triangle
0.0,8.0,4.0,1.0,5.0,5.0,347.4895320832729,1.0,0.0,part_2,go,550.0,400.0,1.0,,,,,,,,,gray,I
0.0,1.0,1.0,0.0,5.0,5.0,637.6270595937967,1.0,0.0,part_2,go,550.0,400.0,1.0,,,,,,,,,cyan,flipped triangle
0.0,8.0,4.0,1.0,6.0,0.0,0.0,1.0,0.0,part_2,stop,550.0,400.0,4.0,,,,,,,,,gray,I
0.0,7.0,3.0,1.0,5.0,0.0,0.0,1.0,0.0,part_2,stop,550.0,450.0,4.0,,,,,,,,,green,hexagon
0.0,4.0,4.0,0.0,6.0,6.0,715.5142929404974,1.0,0.0,part_2,go,600.0,450.0,1.0,,,,,,,,,magenta,triangle
0.0,7.0,3.0,1.0,6.0,0.0,0.0,1.0,0.0,part_2,stop,600.0,450.0,4.0,,,,,,,,,green,hexagon
0.0,7.0,3.0,1.0,6.0,0.0,0.0,1.0,0.0,part_2,stop,600.0,500.0,4.0,,,,,,,,,green,hexagon
0.0,2.0,2.0,0.0,6.0,6.0,823.0496607720852,1.0,0.0,part_2,go,600.0,550.0,1.0,,,,,,,,,yellow,cross
0.0,7.0,3.0,1.0,5.0,5.0,741.3428798317909,2.0,0.0,part_2,stop,600.0,550.0,3.0,,,,,,,,,green,hexagon
0.0,8.0,4.0,1.0,6.0,6.0,525.5124922841787,2.0,0.0,part_2,stop,550.0,550.0,3.0,,,,,,,,,gray,I
0.0,2.0,2.0,0.0,5.0,5.0,742.5361201167107,2.0,0.0,part_2,go,550.0,500.0,1.0,,,,,,,,,yellow,cross
0.0,3.0,3.0,0.0,5.0,5.0,620.1602257788181,2.0,0.0,part_2,go,550.0,500.0,1.0,,,,,,,,,blue,diamond
0.0,1.0,1.0,0.0,6.0,6.0,518.2745438069105,2.0,0.0,part_2,go,550.0,500.0,1.0,,,,,,,,,cyan,flipped triangle
0.0,5.0,1.0,1.0,5.0,0.0,0.0,2.0,0.0,part_2,stop,550.0,500.0,4.0,,,,,,,,,orange,circle
0.0,6.0,2.0,1.0,5.0,0.0,0.0,2.0,0.0,part_2,stop,600.0,500.0,4.0,,,,,,,,,white,square
0.0,1.0,1.0,0.0,6.0,6.0,628.4677386283875,2.0,0.0,part_2,go,650.0,500.0,1.0,,,,,,,,,cyan,flipped triangle
0.0,5.0,1.0,1.0,5.0,0.0,0.0,2.0,0.0,part_2,stop,650.0,500.0,4.0,,,,,,,,,orange,circle
0.0,4.0,4.0,0.0,5.0,5.0,859.7070928663015,2.0,0.0,part_2,go,700.0,500.0,1.0,,,,,,,,,magenta,triangle
0.0,4.0,4.0,0.0,6.0,6.0,615.9533970057964,2.0,0.0,part_2,go,700.0,500.0,1.0,,,,,,,,,magenta,triangle
0.0,5.0,1.0,1.0,6.0,0.0,0.0,2.0,0.0,part_2,stop,700.0,500.0,4.0,,,,,,,,,orange,circle
0.0,2.0,2.0,0.0,6.0,6.0,695.8764512091875,2.0,0.0,part_2,go,700.0,550.0,1.0,,,,,,,,,yellow,cross
0.0,1.0,1.0,0.0,5.0,5.0,808.8799398392439,2.0,0.0,part_2,go,700.0,550.0,1.0,,,,,,,,,cyan,flipped triangle
0.0,3.0,3.0,0.0,6.0,6.0,968.2913385331632,2.0,0.0,part_2,go,700.0,550.0,1.0,,,,,,,,,blue,diamond
0.0,3.0,3.0,0.0,6.0,6.0,972.971074283123,2.0,0.0,part_2,go,700.0,550.0,1.0,,,,,,,,,blue,diamond
0.0,6.0,2.0,1.0,6.0,6.0,632.6764822006226,2.0,0.0,part_2,stop,700.0,550.0,3.0,,,,,,,,,white,square
0.0,5.0,1.0,1.0,5.0,5.0,653.4923128783703,2.0,0.0,part_2,go,700.0,500.0,1.0,,,,,,,,,orange,circle
0.0,6.0,2.0,1.0,6.0,6.0,782.3489233851433,2.0,0.0,part_2,go,700.0,500.0,1.0,,,,,,,,,white,square
0.0,4.0,4.0,0.0,5.0,5.0,650.6870314478874,2.0,0.0,part_2,go,700.0,500.0,1.0,,,,,,,,,magenta,triangle
0.0,6.0,2.0,1.0,5.0,5.0,779.5052509754896,2.0,0.0,part_2,stop,700.0,500.0,3.0,,,,,,,,,white,square
0.0,1.0,1.0,0.0,5.0,5.0,637.2642982751131,2.0,0.0,part_2,go,650.0,500.0,1.0,,,,,,,,,cyan,flipped triangle
0.0,4.0,4.0,0.0,6.0,6.0,489.5059056580066,2.0,0.0,part_2,go,650.0,500.0,1.0,,,,,,,,,magenta,triangle
0.0,7.0,3.0,1.0,5.0,5.0,769.9865680187941,2.0,0.0,part_2,stop,650.0,500.0,3.0,,,,,,,,,green,hexagon
0.0,1.0,1.0,0.0,5.0,5.0,722.3092708736658,2.0,0.0,part_2,go,600.0,500.0,1.0,,,,,,,,,cyan,flipped triangle
0.0,7.0,3.0,1.0,5.0,5.0,719.6321282535791,2.0,0.0,part_2,go,600.0,500.0,1.0,,,,,,,,,green,hexagon
0.0,4.0,4.0,0.0,5.0,5.0,854.814600199461,2.0,0.0,part_2,go,600.0,500.0,1.0,,,,,,,,,magenta,triangle
0.0,3.0,3.0,0.0,5.0,5.0,777.0978026092052,2.0,0.0,part_2,go,600.0,500.0,1.0,,,,,,,,,blue,diamond
0.0,7.0,3.0,1.0,6.0,0.0,0.0,2.0,0.0,part_2,stop,600.0,500.0,4.0,,,,,,,,,green,hexagon
0.0,1.0,1.0,0.0,6.0,6.0,798.0124447494745,2.0,0.0,part_2,go,600.0,550.0,1.0,,,,,,,,,cyan,flipped triangle
0.0,6.0,2.0,1.0,5.0,0.0,0.0,2.0,0.0,part_2,stop,600.0,550.0,4.0,,,,,,,,,white,square
0.0,1.0,1.0,0.0,5.0,5.0,733.7619848549366,2.0,0.0,part_2,go,650.0,550.0,1.0,,,,,,,,,cyan,flipped triangle
0.0,5.0,1.0,1.0,5.0,5.0,428.2844271510839,2.0,0.0,part_2,stop,650.0,550.0,3.0,,,,,,,,,orange,circle
0.0,6.0,2.0,1.0,6.0,0.0,0.0,2.0,0.0,part_2,stop,600.0,550.0,4.0,,,,,,,,,white,square
0.0,2.0,2.0,0.0,6.0,6.0,837.6418855041265,2.0,0.0,part_2,go,600.0,600.0,1.0,,,,,,,,,yellow,cross
0.0,6.0,2.0,1.0,6.0,6.0,661.2903475761414,2.0,0.0,part_2,stop,600.0,600.0,3.0,,,,,,,,,white,square
0.0,8.0,4.0,1.0,5.0,5.0,621.9659969210625,3.0,0.0,part_2,stop,600.0,550.0,3.0,,,,,,,,,gray,I
0.0,3.0,3.0,0.0,6.0,6.0,631.2721949070692,3.0,0.0,part_2,go,550.0,550.0,1.0,,,,,,,,,blue,diamond
0.0,5.0,1.0,1.0,6.0,6.0,620.769664645195,3.0,0.0,part_2,stop,550.0,550.0,3.0,,,,,,,,,orange,circle
0.0,4.0,4.0,0.0,5.0,5.0,700.5299367010593,3.0,0.0,part_2,go,550.0,500.0,1.0,,,,,,,,,magenta,triangle
0.0,6.0,2.0,1.0,5.0,5.0,481.6325586289167,3.0,0.0,part_2,stop,550.0,500.0,3.0,,,,,,,,,white,square
0.0,7.0,3.0,1.0,6.0,6.0,565.3490945696831,3.0,0.0,part_2,stop,500.0,500.0,3.0,,,,,,,,,green,hexagon
0.0,4.0,4.0,0.0,6.0,6.0,794.6612015366554,3.0,0.0,part_2,go,500.0,450.0,1.0,,,,,,,,,magenta,triangle
0.0,4.0,4.0,0.0,5.0,5.0,571.2008010596037,3.0,0.0,part_2,go,500.0,450.0,1.0,,,,,,,,,magenta,triangle
0.0,2.0,2.0,0.0,6.0,6.0,626.8168445676565,3.0,0.0,part_2,go,500.0,450.0,1.0,,,,,,,,,yellow,cross
0.0,8.0,4.0,1.0,6.0,0.0,0.0,3.0,0.0,part_2,stop,500.0,450.0,4.0,,,,,,,,,gray,I
0.0,1.0,1.0,0.0,5.0,5.0,616.3356564939022,3.0,0.0,part_2,go,500.0,500.0,1.0,,,,,,,,,cyan,flipped triangle
0.0,7.0,3.0,1.0,5.0,5.0,1256.0460772365332,3.0,0.0,part_2,go,500.0,500.0,1.0,,,,,,,,,green,hexagon
0.0,1.0,1.0,0.0,6.0,6.0,481.4921841025352,3.0,0.0,part_2,go,500.0,500.0,1.0,,,,,,,,,cyan,flipped triangle
0.0,8.0,4.0,1.0,5.0,5.0,247.9246482253074,3.0,0.0,part_2,stop,500.0,500.0,3.0,,,,,,,,,gray,I
0.0,7.0,3.0,1.0,6.0,6.0,454.7549206763506,3.0,0.0,part_2,stop,450.0,500.0,3.0,,,,,,,,,green,hexagon
0.0,7.0,3.0,1.0,6.0,6.0,317.9585020989179,3.0,0.0,part_2,stop,450.0,450.0,3.0,,,,,,,,,green,hexagon
0.0,3.0,3.0,0.0,6.0,6.0,307.7526800334453,3.0,0.0,part_2,go,450.0,400.0,1.0,,,,,,,,,blue,diamond
0.0,3.0,3.0,0.0,5.0,5.0,654.3306894600391,3.0,0.0,part_2,go,450.0,400.0,1.0,,,,,,,,,blue,diamond
0.0,6.0,2.0,1.0,5.0,0.0,0.0,3.0,0.0,part_2,stop,450.0,400.0,4.0,,,,,,,,,white,square
0.0,4.0,4.0,0.0,5.0,5.0,693.1031085550785,3.0,0.0,part_2,go,500.0,400.0,1.0,,,,,,,,,magenta,triangle
0.0,8.0,4.0,1.0,5.0,5.0,675.6555754691362,3.0,0.0,part_2,go,500.0,400.0,1.0,,,,,,,,,gray,I
0.0,8.0,4.0,1.0,6.0,0.0,0.0,3.0,0.0,part_2,stop,500.0,400.0,4.0,,,,,,,,,gray,I
0.0,3.0,3.0,0.0,5.0,5.0,546.9974726438522,3.0,0.0,part_2,go,500.0,450.0,1.0,,,,,,,,,blue,diamond
0.0,6.0,2.0,1.0,6.0,6.0,719.7429202497005,3.0,0.0,part_2,go,500.0,450.0,1.0,,,,,,,,,white,square
0.0,6.0,2.0,1.0,6.0,0.0,0.0,3.0,0.0,part_2,stop,500.0,450.0,4.0,,,,,,,,,white,square
0.0,8.0,4.0,1.0,5.0,0.0,0.0,3.0,0.0,part_2,stop,500.0,500.0,4.0,,,,,,,,,gray,I
0.0,6.0,2.0,1.0,6.0,6.0,607.9511996358633,3.0,0.0,part_2,go,550.0,500.0,1.0,,,,,,,,,white,square
0.0,1.0,1.0,0.0,6.0,6.0,721.3125620037317,3.0,0.0,part_2,go,550.0,500.0,1.0,,,,,,,,,cyan,flipped triangle
0.0,7.0,3.0,1.0,6.0,0.0,0.0,3.0,0.0,part_2,stop,550.0,500.0,4.0,,,,,,,,,green,hexagon
0.0,1.0,1.0,0.0,5.0,5.0,619.8746878653765,3.0,0.0,part_2,go,550.0,550.0,1.0,,,,,,,,,cyan,flipped triangle
0.0,2.0,2.0,0.0,5.0,5.0,755.228141322732,3.0,0.0,part_2,go,550.0,550.0,1.0,,,,,,,,,yellow,cross
0.0,8.0,4.0,1.0,5.0,0.0,0.0,3.0,0.0,part_2,stop,550.0,550.0,4.0,,,,,,,,,gray,I
0.0,6.0,2.0,1.0,6.0,6.0,467.573668807745,3.0,0.0,part_2,stop,600.0,550.0,3.0,,,,,,,,,white,square
0.0,6.0,2.0,1.0,5.0,5.0,579.2129766196012,3.0,0.0,part_2,stop,600.0,500.0,3.0,,,,,,,,,white,square
0.0,2.0,2.0,0.0,5.0,5.0,785.8648598194122,3.0,0.0,part_2,go,550.0,500.0,1.0,,,,,,,,,yellow,cross
0.0,5.0,1.0,1.0,5.0,5.0,659.8917003720999,3.0,0.0,part_2,stop,550.0,500.0,3.0,,,,,,,,,orange,circle
0.0,7.0,3.0,1.0,5.0,0.0,0.0,4.0,0.0,part_2,stop,500.0,500.0,4.0,,,,,,,,,green,hexagon
0.0,5.0,1.0,1.0,6.0,6.0,561.8635807186365,4.0,0.0,part_2,stop,550.0,500.0,3.0,,,,,,,,,orange,circle
0.0,2.0,2.0,0.0,6.0,6.0,631.8484097719193,4.0,0.0,part_2,go,550.0,450.0,1.0,,,,,,,,,yellow,cross
0.0,4.0,4.0,0.0,6.0,6.0,422.1386685967445,4.0,0.0,part_2,go,550.0,450.0,1.0,,,,,,,,,magenta,triangle
0.0,1.0,1.0,0.0,6.0,6.0,661.3441128283739,4.0,0.0,part_2,go,550.0,450.0,1.0,,,,,,,,,cyan,flipped triangle
0.0,3.0,3.0,0.0,5.0,5.0,758.1359688192606,4.0,0.0,part_2,go,550.0,450.0,1.0,,,,,,,,,blue,diamond
0.0,4.0,4.0,0.0,6.0,6.0,516.7032852768898,4.0,0.0,part_2,go,550.0,450.0,1.0,,,,,,,,,magenta,triangle
0.0,4.0,4.0,0.0,6.0,6.0,710.7068933546543,4.0,0.0,part_2,go,550.0,450.0,1.0,,,,,,,,,magenta,triangle
0.0,3.0,3.0,0.0,6.0,6.0,605.1421202719212,4.0,0.0,part_2,go,550.0,450.0,1.0,,,,,,,,,blue,diamond
0.0,7.0,3.0,1.0,6.0,6.0,537.5476628541946,4.0,0.0,part_2,stop,550.0,450.0,3.0,,,,,,,,,green,hexagon
0.0,3.0,3.0,0.0,5.0,5.0,485.1918257772922,4.0,0.0,part_2,go,550.0,400.0,1.0,,,,,,,,,blue,diamond
0.0,8.0,4.0,1.0,5.0,5.0,563.4293239563704,4.0,0.0,part_2,go,550.0,400.0,1.0,,,,,,,,,gray,I
0.0,4.0,4.0,0.0,6.0,6.0,563.1758570671082,4.0,0.0,part_2,go,550.0,400.0,1.0,,,,,,,,,magenta,triangle
0.0,2.0,2.0,0.0,5.0,5.0,735.8156181871891,4.0,0.0,part_2,go,550.0,400.0,1.0,,,,,,,,,yellow,cross
0.0,7.0,3.0,1.0,6.0,0.0,0.0,4.0,0.0,part_2,stop,550.0,400.0,4.0,,,,,,,,,green,hexagon
0.0,2.0,2.0,0.0,6.0,6.0,578.4159507602453,4.0,0.0,part_2,go,550.0,450.0,1.0,,,,,,,,,yellow,cross
0.0,4.0,4.0,0.0,5.0,5.0,542.8069327026606,4.0,0.0,part_2,go,550.0,450.0,1.0,,,,,,,,,magenta,triangle
0.0,2.0,2.0,0.0,5.0,5.0,583.344578742981,4.0,0.0,part_2,go,550.0,450.0,1.0,,,,,,,,,yellow,cross
0.0,3.0,3.0,0.0,5.0,5.0,648.0365190654993,4.0,0.0,part_2,go,550.0,450.0,1.0,,,,,,,,,blue,diamond
0.0,1.0,1.0,0.0,6.0,6.0,390.3501071035862,4.0,0.0,part_2,go,550.0,450.0,1.0,,,,,,,,,cyan,flipped triangle
0.0,6.0,2.0,1.0,6.0,6.0,543.6068754643202,4.0,0.0,part_2,stop,550.0,450.0,3.0,,,,,,,,,white,square
0.0,5.0,1.0,1.0,5.0,5.0,534.1099500656128,4.0,0.0,part_2,stop,550.0,400.0,3.0,,,,,,,,,orange,circle
0.0,7.0,3.0,1.0,5.0,0.0,0.0,4.0,0.0,part_2,stop,500.0,400.0,4.0,,,,,,,,,green,hexagon
0.0,2.0,2.0,0.0,6.0,6.0,586.769187822938,4.0,0.0,part_2,go,550.0,400.0,1.0,,,,,,,,,yellow,cross
0.0,1.0,1.0,0.0,6.0,6.0,1067.5826948136091,4.0,0.0,part_2,go,550.0,400.0,1.0,,,,,,,,,cyan,flipped triangle
0.0,6.0,2.0,1.0,5.0,5.0,897.839492186904,4.0,0.0,part_2,go,550.0,400.0,1.0,,,,,,,,,white,square
0.0,1.0,1.0,0.0,5.0,5.0,360.3062573820352,4.0,0.0,part_2,go,550.0,400.0,1.0,,,,,,,,,cyan,flipped triangle
0.0,3.0,3.0,0.0,5.0,5.0,643.3821339160204,4.0,0.0,part_2,go,550.0,400.0,1.0,,,,,,,,,blue,diamond
0.0,1.0,1.0,0.0,6.0,6.0,527.4519566446543,4.0,0.0,part_2,go,550.0,400.0,1.0,,,,,,,,,cyan,flipped triangle
0.0,5.0,1.0,1.0,6.0,0.0,0.0,4.0,0.0,part_2,stop,550.0,400.0,4.0,,,,,,,,,orange,circle
0.0,5.0,1.0,1.0,6.0,0.0,0.0,4.0,0.0,part_2,stop,550.0,450.0,4.0,,,,,,,,,orange,circle
0.0,7.0,3.0,1.0,6.0,6.0,521.1711917072535,4.0,0.0,part_2,go,550.0,500.0,1.0,,,,,,,,,green,hexagon
0.0,4.0,4.0,0.0,5.0,5.0,472.5897796452045,4.0,0.0,part_2,go,550.0,500.0,1.0,,,,,,,,,magenta,triangle
0.0,4.0,4.0,0.0,5.0,5.0,687.6503340899944,4.0,0.0,part_2,go,550.0,500.0,1.0,,,,,,,,,magenta,triangle
0.0,2.0,2.0,0.0,6.0,6.0,627.7914438396692,4.0,0.0,part_2,go,550.0,500.0,1.0,,,,,,,,,yellow,cross
0.0,3.0,3.0,0.0,5.0,5.0,406.424805521965,4.0,0.0,part_2,go,550.0,500.0,1.0,,,,,,,,,blue,diamond
0.0,5.0,1.0,1.0,5.0,5.0,650.6573688238859,5.0,0.0,part_2,go,550.0,500.0,1.0,,,,,,,,,orange,circle
0.0,3.0,3.0,0.0,6.0,6.0,437.2475389391184,5.0,0.0,part_2,go,550.0,500.0,1.0,,,,,,,,,blue,diamond
0.0,5.0,1.0,1.0,5.0,5.0,523.0688583105803,5.0,0.0,part_2,go,550.0,500.0,1.0,,,,,,,,,orange,circle
0.0,2.0,2.0,0.0,5.0,5.0,331.9746125489473,5.0,0.0,part_2,go,550.0,500.0,1.0,,,,,,,,,yellow,cross
0.0,7.0,3.0,1.0,5.0,5.0,283.2699175924063,5.0,0.0,part_2,stop,550.0,500.0,3.0,,,,,,,,,green,hexagon
0.0,5.0,1.0,1.0,6.0,6.0,449.5055750012398,5.0,0.0,part_2,stop,500.0,500.0,3.0,,,,,,,,,orange,circle
0.0,6.0,2.0,1.0,5.0,5.0,432.0738855749368,5.0,0.0,part_2,stop,500.0,450.0,3.0,,,,,,,,,white,square
0.0,1.0,1.0,0.0,6.0,6.0,518.2914063334465,5.0,0.0,part_2,go,450.0,450.0,1.0,,,,,,,,,cyan,flipped triangle
0.0,7.0,3.0,1.0,6.0,6.0,416.7943354696035,5.0,0.0,part_2,go,450.0,450.0,1.0,,,,,,,,,green,hexagon
0.0,2.0,2.0,0.0,6.0,6.0,520.3717947006226,5.0,0.0,part_2,go,450.0,450.0,1.0,,,,,,,,,yellow,cross
0.0,1.0,1.0,0.0,6.0,6.0,566.0998970270157,5.0,0.0,part_2,go,450.0,450.0,1.0,,,,,,,,,cyan,flipped triangle
0.0,7.0,3.0,1.0,5.0,5.0,389.0232741832733,5.0,0.0,part_2,go,450.0,450.0,1.0,,,,,,,,,green,hexagon
0.0,8.0,4.0,1.0,5.0,0.0,0.0,5.0,0.0,part_2,stop,450.0,450.0,4.0,,,,,,,,,gray,I
0.0,5.0,1.0,1.0,6.0,6.0,502.35819071531296,5.0,0.0,part_2,stop,500.0,450.0,3.0,,,,,,,,,orange,circle
0.0,2.0,2.0,0.0,6.0,6.0,606.1347369104624,5.0,0.0,part_2,go,500.0,400.0,1.0,,,,,,,,,yellow,cross
0.0,3.0,3.0,0.0,5.0,5.0,547.9099005460739,5.0,0.0,part_2,go,500.0,400.0,1.0,,,,,,,,,blue,diamond
0.0,4.0,4.0,0.0,5.0,5.0,547.0434036105871,5.0,0.0,part_2,go,500.0,400.0,1.0,,,,,,,,,magenta,triangle
0.0,3.0,3.0,0.0,6.0,6.0,505.55596500635147,5.0,0.0,part_2,go,500.0,400.0,1.0,,,,,,,,,blue,diamond
0.0,4.0,4.0,0.0,5.0,5.0,521.203251555562,5.0,0.0,part_2,go,500.0,400.0,1.0,,,,,,,,,magenta,triangle
0.0,5.0,1.0,1.0,5.0,5.0,739.8833315819502,5.0,0.0,part_2,stop,500.0,400.0,3.0,,,,,,,,,orange,circle
0.0,4.0,4.0,0.0,6.0,6.0,346.1301811039448,5.0,0.0,part_2,go,450.0,400.0,1.0,,,,,,,,,magenta,triangle
0.0,7.0,3.0,1.0,6.0,6.0,263.9861982315779,5.0,0.0,part_2,go,450.0,400.0,1.0,,,,,,,,,green,hexagon
0.0,5.0,1.0,1.0,6.0,6.0,504.2483750730753,5.0,0.0,part_2,stop,450.0,400.0,3.0,,,,,,,,,orange,circle
0.0,6.0,2.0,1.0,5.0,5.0,476.4852486550808,5.0,0.0,part_2,stop,450.0,350.0,3.0,,,,,,,,,white,square
0.0,8.0,4.0,1.0,6.0,0.0,0.0,5.0,0.0,part_2,stop,400.0,350.0,4.0,,,,,,,,,gray,I
0.0,1.0,1.0,0.0,6.0,6.0,589.1064796596766,5.0,0.0,part_2,go,400.0,400.0,1.0,,,,,,,,,cyan,flipped triangle
0.0,1.0,1.0,0.0,5.0,5.0,780.1795806735754,5.0,0.0,part_2,go,400.0,400.0,1.0,,,,,,,,,cyan,flipped triangle
0.0,1.0,1.0,0.0,5.0,5.0,503.5446025431156,5.0,0.0,part_2,go,400.0,400.0,1.0,,,,,,,,,cyan,flipped triangle
0.0,7.0,3.0,1.0,5.0,5.0,416.343929246068,5.0,0.0,part_2,stop,400.0,400.0,3.0,,,,,,,,,green,hexagon
0.0,3.0,3.0,0.0,5.0,5.0,597.9107357561588,5.0,0.0,part_2,go,350.0,400.0,1.0,,,,,,,,,blue,diamond
0.0,1.0,1.0,0.0,6.0,6.0,452.5757450610399,5.0,0.0,part_2,go,350.0,400.0,1.0,,,,,,,,,cyan,flipped triangle
0.0,3.0,3.0,0.0,6.0,6.0,378.2024197280407,5.0,0.0,part_2,go,350.0,400.0,1.0,,,,,,,,,blue,diamond
0.0,5.0,1.0,1.0,6.0,6.0,441.2529859691858,5.0,0.0,part_2,go,350.0,400.0,1.0,,,,,,,,,orange,circle
0.0,6.0,2.0,1.0,5.0,5.0,379.5849308371544,5.0,0.0,part_2,stop,350.0,400.0,3.0,,,,,,,,,white,square
0.0,3.0,3.0,0.0,5.0,5.0,408.413965255022,5.0,0.0,part_2,go,300.0,400.0,1.0,,,,,,,,,blue,diamond
0.0,8.0,4.0,1.0,6.0,6.0,326.7229255288839,5.0,0.0,part_2,stop,300.0,400.0,3.0,,,,,,,,,gray,I
0.0,1.0,1.0,0.0,6.0,6.0,727.8853040188551,6.0,0.0,part_2,go,300.0,350.0,1.0,,,,,,,,,cyan,flipped triangle
0.0,8.0,4.0,1.0,6.0,0.0,0.0,6.0,0.0,part_2,stop,300.0,350.0,4.0,,,,,,,,,gray,I
0.0,3.0,3.0,0.0,6.0,6.0,582.7805530279875,6.0,0.0,part_2,go,300.0,400.0,1.0,,,,,,,,,blue,diamond
0.0,5.0,1.0,1.0,5.0,5.0,591.6479825973511,6.0,0.0,part_2,go,300.0,400.0,1.0,,,,,,,,,orange,circle
0.0,6.0,2.0,1.0,5.0,5.0,406.4781852066517,6.0,0.0,part_2,stop,300.0,400.0,3.0,,,,,,,,,white,square
0.0,2.0,2.0,0.0,5.0,5.0,564.7653229534626,6.0,0.0,part_2,go,250.0,400.0,1.0,,,,,,,,,yellow,cross
0.0,2.0,2.0,0.0,6.0,6.0,485.5708442628383,6.0,0.0,part_2,go,250.0,400.0,1.0,,,,,,,,,yellow,cross
0.0,6.0,2.0,1.0,6.0,6.0,391.8100781738758,6.0,0.0,part_2,go,250.0,400.0,1.0,,,,,,,,,white,square
0.0,1.0,1.0,0.0,6.0,6.0,391.4931137114763,6.0,0.0,part_2,go,250.0,400.0,1.0,,,,,,,,,cyan,flipped triangle
0.0,6.0,2.0,1.0,6.0,6.0,340.8035468310117,6.0,0.0,part_2,stop,250.0,400.0,3.0,,,,,,,,,white,square
0.0,7.0,3.0,1.0,5.0,0.0,0.0,6.0,0.0,part_2,stop,250.0,350.0,4.0,,,,,,,,,green,hexagon
0.0,8.0,4.0,1.0,5.0,0.0,0.0,6.0,0.0,part_2,stop,300.0,350.0,4.0,,,,,,,,,gray,I
0.0,3.0,3.0,0.0,6.0,6.0,420.0618807226419,6.0,0.0,part_2,go,350.0,350.0,1.0,,,,,,,,,blue,diamond
0.0,5.0,1.0,1.0,5.0,5.0,499.0277048200369,6.0,0.0,part_2,go,350.0,350.0,1.0,,,,,,,,,orange,circle
0.0,8.0,4.0,1.0,6.0,6.0,370.3766446560621,6.0,0.0,part_2,stop,350.0,350.0,3.0,,,,,,,,,gray,I
0.0,8.0,4.0,1.0,5.0,0.0,0.0,6.0,0.0,part_2,stop,350.0,300.0,4.0,,,,,,,,,gray,I
0.0,3.0,3.0,0.0,5.0,5.0,489.7506386041641,6.0,0.0,part_2,go,400.0,300.0,1.0,,,,,,,,,blue,diamond
0.0,8.0,4.0,1.0,6.0,0.0,0.0,6.0,0.0,part_2,stop,400.0,300.0,4.0,,,,,,,,,gray,I
0.0,4.0,4.0,0.0,6.0,6.0,456.8317215889692,6.0,0.0,part_2,go,400.0,350.0,1.0,,,,,,,,,magenta,triangle
0.0,7.0,3.0,1.0,6.0,0.0,0.0,6.0,0.0,part_2,stop,400.0,350.0,4.0,,,,,,,,,green,hexagon
0.0,8.0,4.0,1.0,6.0,6.0,327.1029982715845,6.0,0.0,part_2,go,400.0,400.0,1.0,,,,,,,,,gray,I
0.0,8.0,4.0,1.0,5.0,5.0,495.5526497215032,6.0,0.0,part_2,stop,400.0,400.0,3.0,,,,,,,,,gray,I
0.0,3.0,3.0,0.0,5.0,5.0,622.6949524134398,6.0,0.0,part_2,go,350.0,400.0,1.0,,,,,,,,,blue,diamond
0.0,1.0,1.0,0.0,5.0,5.0,484.0650390833616,6.0,0.0,part_2,go,350.0,400.0,1.0,,,,,,,,,cyan,flipped triangle
0.0,5.0,1.0,1.0,5.0,0.0,0.0,6.0,0.0,part_2,stop,350.0,400.0,4.0,,,,,,,,,orange,circle
0.0,6.0,2.0,1.0,6.0,6.0,499.8409636318683,6.0,0.0,part_2,stop,400.0,400.0,3.0,,,,,,,,,white,square
0.0,4.0,4.0,0.0,6.0,6.0,541.6407324373722,6.0,0.0,part_2,go,400.0,350.0,1.0,,,,,,,,,magenta,triangle
0.0,8.0,4.0,1.0,5.0,5.0,291.6556168347597,6.0,0.0,part_2,stop,400.0,350.0,3.0,,,,,,,,,gray,I
0.0,5.0,1.0,1.0,6.0,6.0,282.4718300253153,6.0,0.0,part_2,go,350.0,350.0,1.0,,,,,,,,,orange,circle
0.0,6.0,2.0,1.0,5.0,0.0,0.0,6.0,0.0,part_2,stop,350.0,350.0,4.0,,,,,,,,,white,square
0.0,8.0,4.0,1.0,6.0,6.0,531.0086496174335,6.0,0.0,part_2,go,400.0,350.0,1.0,,,,,,,,,gray,I
0.0,4.0,4.0,0.0,5.0,5.0,320.980379357934,6.0,0.0,part_2,go,400.0,350.0,1.0,,,,,,,,,magenta,triangle
0.0,2.0,2.0,0.0,6.0,6.0,288.7206580489874,6.0,0.0,part_2,go,400.0,350.0,1.0,,,,,,,,,yellow,cross
0.0,2.0,2.0,0.0,6.0,6.0,304.1267748922109,6.0,0.0,part_2,go,400.0,350.0,1.0,,,,,,,,,yellow,cross
0.0,5.0,1.0,1.0,6.0,6.0,287.7331078052521,6.0,0.0,part_2,stop,400.0,350.0,3.0,,,,,,,,,orange,circle
0.0,3.0,3.0,0.0,6.0,6.0,614.4338641315699,6.0,0.0,part_2,go,400.0,300.0,1.0,,,,,,,,,blue,diamond
0.0,3.0,3.0,0.0,6.0,6.0,676.7938155680895,7.0,0.0,part_2,go,400.0,300.0,1.0,,,,,,,,,blue,diamond
0.0,6.0,2.0,1.0,5.0,5.0,507.18975998461246,7.0,0.0,part_2,stop,400.0,300.0,3.0,,,,,,,,,white,square
0.0,4.0,4.0,0.0,6.0,6.0,467.5525557249784,7.0,0.0,part_2,go,350.0,300.0,1.0,,,,,,,,,magenta,triangle
0.0,1.0,1.0,0.0,5.0,5.0,699.8549476265907,7.0,0.0,part_2,go,350.0,300.0,1.0,,,,,,,,,cyan,flipped triangle
0.0,4.0,4.0,0.0,6.0,6.0,531.763780862093,7.0,0.0,part_2,go,350.0,300.0,1.0,,,,,,,,,magenta,triangle
0.0,2.0,2.0,0.0,6.0,6.0,576.4118731021881,7.0,0.0,part_2,go,350.0,300.0,1.0,,,,,,,,,yellow,cross
0.0,1.0,1.0,0.0,6.0,6.0,521.4295908808708,7.0,0.0,part_2,go,350.0,300.0,1.0,,,,,,,,,cyan,flipped triangle
0.0,7.0,3.0,1.0,5.0,5.0,303.3836670219898,7.0,0.0,part_2,stop,350.0,300.0,3.0,,,,,,,,,green,hexagon
0.0,4.0,4.0,0.0,6.0,6.0,569.4025531411171,7.0,0.0,part_2,go,300.0,300.0,1.0,,,,,,,,,magenta,triangle
0.0,3.0,3.0,0.0,6.0,6.0,631.7574642598629,7.0,0.0,part_2,go,300.0,300.0,1.0,,,,,,,,,blue,diamond
0.0,8.0,4.0,1.0,6.0,6.0,317.0481529086828,7.0,0.0,part_2,go,300.0,300.0,1.0,,,,,,,,,gray,I
0.0,8.0,4.0,1.0,5.0,5.0,349.0950260311365,7.0,0.0,part_2,stop,300.0,300.0,3.0,,,,,,,,,gray,I
0.0,3.0,3.0,0.0,6.0,6.0,311.2697880715132,7.0,0.0,part_2,go,250.0,300.0,1.0,,,,,,,,,blue,diamond
0.0,6.0,2.0,1.0,6.0,6.0,326.6958892345428,7.0,0.0,part_2,stop,250.0,300.0,3.0,,,,,,,,,white,square
0.0,5.0,1.0,1.0,5.0,5.0,282.7045563608408,7.0,0.0,part_2,go,250.0,250.0,1.0,,,,,,,,,orange,circle
0.0,7.0,3.0,1.0,6.0,6.0,371.2089918553829,7.0,0.0,part_2,go,250.0,250.0,1.0,,,,,,,,,green,hexagon
0.0,6.0,2.0,1.0,6.0,6.0,267.4576118588447,7.0,0.0,part_2,go,250.0,250.0,1.0,,,,,,,,,white,square
0.0,1.0,1.0,0.0,5.0,5.0,393.3872226625681,7.0,0.0,part_2,go,250.0,250.0,1.0,,,,,,,,,cyan,flipped triangle
0.0,5.0,1.0,1.0,5.0,0.0,0.0,7.0,0.0,part_2,stop,250.0,250.0,4.0,,,,,,,,,orange,circle
0.0,5.0,1.0,1.0,6.0,0.0,0.0,7.0,0.0,part_2,stop,300.0,250.0,4.0,,,,,,,,,orange,circle
0.0,5.0,1.0,1.0,6.0,0.0,0.0,7.0,0.0,part_2,stop,300.0,300.0,4.0,,,,,,,,,orange,circle
0.0,1.0,1.0,0.0,6.0,6.0,470.8207231014967,7.0,0.0,part_2,go,300.0,350.0,1.0,,,,,,,,,cyan,flipped triangle
0.0,7.0,3.0,1.0,6.0,6.0,648.6363019794226,7.0,0.0,part_2,go,300.0,350.0,1.0,,,,,,,,,green,hexagon
0.0,5.0,1.0,1.0,5.0,0.0,0.0,7.0,0.0,part_2,stop,300.0,350.0,4.0,,,,,,,,,orange,circle
0.0,7.0,3.0,1.0,5.0,5.0,517.1379297971725,7.0,0.0,part_2,go,350.0,350.0,1.0,,,,,,,,,green,hexagon
0.0,1.0,1.0,0.0,5.0,5.0,328.0024547129869,7.0,0.0,part_2,go,350.0,350.0,1.0,,,,,,,,,cyan,flipped triangle
0.0,2.0,2.0,0.0,5.0,5.0,286.7034338414669,7.0,0.0,part_2,go,350.0,350.0,1.0,,,,,,,,,yellow,cross
0.0,7.0,3.0,1.0,5.0,0.0,0.0,7.0,0.0,part_2,stop,350.0,350.0,4.0,,,,,,,,,green,hexagon
0.0,5.0,1.0,1.0,5.0,5.0,348.9551469683647,7.0,0.0,part_2,stop,400.0,350.0,3.0,,,,,,,,,orange,circle
0.0,3.0,3.0,0.0,5.0,5.0,411.157451570034,7.0,0.0,part_2,go,350.0,350.0,1.0,,,,,,,,,blue,diamond
0.0,6.0,2.0,1.0,6.0,6.0,418.0760681629181,7.0,0.0,part_2,stop,350.0,350.0,3.0,,,,,,,,,white,square
0.0,6.0,2.0,1.0,5.0,5.0,403.5908095538616,7.0,0.0,part_2,stop,350.0,300.0,3.0,,,,,,,,,white,square
0.0,4.0,4.0,0.0,5.0,5.0,546.6675516217947,7.0,0.0,part_2,go,300.0,300.0,1.0,,,,,,,,,magenta,triangle
0.0,4.0,4.0,0.0,6.0,6.0,443.583870306611,7.0,0.0,part_2,go,300.0,300.0,1.0,,,,,,,,,magenta,triangle
0.0,5.0,1.0,1.0,5.0,5.0,464.2051700502634,7.0,0.0,part_2,go,300.0,300.0,1.0,,,,,,,,,orange,circle
0.0,8.0,4.0,1.0,6.0,6.0,391.2485279142856,7.0,0.0,part_2,go,300.0,300.0,1.0,,,,,,,,,gray,I
0.0,2.0,2.0,0.0,6.0,6.0,330.1741033792496,8.0,0.0,part_2,go,300.0,300.0,1.0,,,,,,,,,yellow,cross
0.0,1.0,1.0,0.0,5.0,5.0,537.4504439532757,8.0,0.0,part_2,go,300.0,300.0,1.0,,,,,,,,,cyan,flipped triangle
0.0,2.0,2.0,0.0,5.0,5.0,638.8024445623159,8.0,0.0,part_2,go,300.0,300.0,1.0,,,,,,,,,yellow,cross
0.0,8.0,4.0,1.0,6.0,6.0,474.1486925631761,8.0,0.0,part_2,go,300.0,300.0,1.0,,,,,,,,,gray,I
0.0,6.0,2.0,1.0,5.0,0.0,0.0,8.0,0.0,part_2,stop,300.0,300.0,4.0,,,,,,,,,white,square
0.0,8.0,4.0,1.0,5.0,0.0,0.0,8.0,0.0,part_2,stop,350.0,300.0,4.0,,,,,,,,,gray,I
0.0,8.0,4.0,1.0,5.0,5.0,517.2937046736479,8.0,0.0,part_2,go,400.0,300.0,1.0,,,,,,,,,gray,I
0.0,7.0,3.0,1.0,5.0,5.0,501.9588675349951,8.0,0.0,part_2,stop,400.0,300.0,3.0,,,,,,,,,green,hexagon
0.0,3.0,3.0,0.0,6.0,6.0,550.4811555147171,8.0,0.0,part_2,go,350.0,300.0,1.0,,,,,,,,,blue,diamond
0.0,8.0,4.0,1.0,5.0,5.0,324.7810285538435,8.0,0.0,part_2,stop,350.0,300.0,3.0,,,,,,,,,gray,I
0.0,5.0,1.0,1.0,6.0,6.0,315.04144705832,8.0,0.0,part_2,stop,300.0,300.0,3.0,,,,,,,,,orange,circle
0.0,4.0,4.0,0.0,5.0,5.0,508.49571637809277,8.0,0.0,part_2,go,300.0,250.0,1.0,,,,,,,,,magenta,triangle
0.0,3.0,3.0,0.0,6.0,6.0,459.9638190120458,8.0,0.0,part_2,go,300.0,250.0,1.0,,,,,,,,,blue,diamond
0.0,7.0,3.0,1.0,6.0,0.0,0.0,8.0,0.0,part_2,stop,300.0,250.0,4.0,,,,,,,,,green,hexagon
0.0,5.0,1.0,1.0,5.0,5.0,368.4422355145216,8.0,0.0,part_2,stop,300.0,300.0,3.0,,,,,,,,,orange,circle
0.0,4.0,4.0,0.0,5.0,5.0,562.1822513639927,8.0,0.0,part_2,go,250.0,300.0,1.0,,,,,,,,,magenta,triangle
0.0,6.0,2.0,1.0,5.0,0.0,0.0,8.0,0.0,part_2,stop,250.0,300.0,4.0,,,,,,,,,white,square
0.0,3.0,3.0,0.0,5.0,5.0,466.1241453140974,8.0,0.0,part_2,go,300.0,300.0,1.0,,,,,,,,,blue,diamond
0.0,1.0,1.0,0.0,5.0,5.0,439.0682764351368,8.0,0.0,part_2,go,300.0,300.0,1.0,,,,,,,,,cyan,flipped triangle
0.0,2.0,2.0,0.0,5.0,5.0,569.6155466139317,8.0,0.0,part_2,go,300.0,300.0,1.0,,,,,,,,,yellow,cross
0.0,8.0,4.0,1.0,5.0,0.0,0.0,8.0,0.0,part_2,stop,300.0,300.0,4.0,,,,,,,,,gray,I
0.0,2.0,2.0,0.0,5.0,5.0,468.6257857829332,8.0,0.0,part_2,go,350.0,300.0,1.0,,,,,,,,,yellow,cross
0.0,7.0,3.0,1.0,6.0,0.0,0.0,8.0,0.0,part_2,stop,350.0,300.0,4.0,,,,,,,,,green,hexagon
0.0,2.0,2.0,0.0,5.0,5.0,511.38172298669815,8.0,0.0,part_2,go,350.0,350.0,1.0,,,,,,,,,yellow,cross
0.0,6.0,2.0,1.0,6.0,6.0,692.6291398704052,8.0,0.0,part_2,go,350.0,350.0,1.0,,,,,,,,,white,square
0.0,4.0,4.0,0.0,6.0,6.0,561.8463531136513,8.0,0.0,part_2,go,350.0,350.0,1.0,,,,,,,,,magenta,triangle
0.0,4.0,4.0,0.0,6.0,6.0,315.6983107328415,8.0,0.0,part_2,go,350.0,350.0,1.0,,,,,,,,,magenta,triangle
0.0,2.0,2.0,0.0,6.0,6.0,523.0850521475077,8.0,0.0,part_2,go,350.0,350.0,1.0,,,,,,,,,yellow,cross
0.0,3.0,3.0,0.0,5.0,5.0,385.2581121027469,8.0,0.0,part_2,go,350.0,350.0,1.0,,,,,,,,,blue,diamond
0.0,4.0,4.0,0.0,5.0,5.0,464.2048105597496,8.0,0.0,part_2,go,350.0,350.0,1.0,,,,,,,,,magenta,triangle
0.0,5.0,1.0,1.0,6.0,6.0,466.4611648768186,8.0,0.0,part_2,stop,350.0,350.0,3.0,,,,,,,,,orange,circle
0.0,8.0,4.0,1.0,6.0,6.0,439.4855462014675,8.0,0.0,part_2,stop,350.0,300.0,3.0,,,,,,,,,gray,I
0.0,1.0,1.0,0.0,5.0,5.0,502.09844298660755,8.0,0.0,part_2,go,350.0,250.0,1.0,,,,,,,,,cyan,flipped triangle
0.0,8.0,4.0,1.0,6.0,0.0,0.0,8.0,0.0,part_2,stop,350.0,250.0,4.0,,,,,,,,,gray,I
0.0,2.0,2.0,0.0,5.0,5.0,583.7298538535833,8.0,0.0,part_2,go,350.0,300.0,1.0,,,,,,,,,yellow,cross
0.0,5.0,1.0,1.0,6.0,6.0,431.1570860445499,8.0,0.0,part_2,stop,350.0,300.0,3.0,,,,,,,,,orange,circle
0.0,8.0,4.0,1.0,7.0,3.0,3802.931278944015,1.0,2.0,part_3,go,0.0,0.0,0.0,195.0,5.0,117.0,234.0,195.0,78.0,156.0,39.0,gray,I
0.0,4.0,4.0,0.0,7.0,3.0,2243.716409429908,1.0,1.0,part_3,go,0.0,0.0,0.0,220.0,5.0,132.0,264.0,220.0,176.0,88.0,44.0,magenta,triangle
0.0,4.0,4.0,0.0,7.0,2.0,1373.2356801629066,1.0,1.0,part_3,go,0.0,0.0,0.0,204.0,6.0,34.0,204.0,136.0,170.0,102.0,68.0,magenta,triangle
0.0,4.0,4.0,0.0,7.0,6.0,2893.3632411062717,1.0,1.0,part_3,go,0.0,0.0,0.0,196.0,4.0,98.0,147.0,245.0,49.0,294.0,196.0,magenta,triangle
0.0,4.0,4.0,0.0,7.0,4.0,1878.509296104312,1.0,1.0,part_3,go,0.0,0.0,0.0,216.0,4.0,324.0,270.0,54.0,216.0,108.0,162.0,magenta,triangle
0.0,2.0,2.0,0.0,7.0,4.0,1153.976533561945,1.0,1.0,part_3,go,0.0,0.0,0.0,195.0,5.0,39.0,234.0,78.0,195.0,117.0,156.0,yellow,cross
0.0,3.0,3.0,0.0,7.0,6.0,1553.138805553317,1.0,1.0,part_3,go,0.0,0.0,0.0,176.0,4.0,220.0,44.0,264.0,132.0,88.0,176.0,blue,diamond
0.0,5.0,1.0,1.0,7.0,6.0,1019.7626445442438,1.0,1.0,part_3,go,0.0,0.0,0.0,156.0,4.0,78.0,234.0,195.0,117.0,39.0,156.0,orange,circle
0.0,8.0,4.0,1.0,7.0,3.0,1103.0121855437756,1.0,1.0,part_3,go,0.0,0.0,0.0,98.0,2.0,245.0,294.0,98.0,196.0,49.0,147.0,gray,I
0.0,7.0,3.0,1.0,7.0,4.0,865.2997240424156,1.0,1.0,part_3,go,0.0,0.0,0.0,204.0,6.0,136.0,68.0,102.0,204.0,34.0,170.0,green,hexagon
0.0,8.0,4.0,1.0,7.0,5.0,656.5672531723976,1.0,1.0,part_3,go,0.0,0.0,0.0,264.0,6.0,220.0,88.0,132.0,44.0,264.0,176.0,gray,I
0.0,6.0,2.0,1.0,7.0,2.0,808.0743197351694,1.0,1.0,part_3,go,0.0,0.0,0.0,294.0,6.0,245.0,294.0,98.0,147.0,196.0,49.0,white,square
0.0,1.0,1.0,0.0,7.0,4.0,643.3305870741606,1.0,1.0,part_3,go,0.0,0.0,0.0,216.0,4.0,270.0,108.0,54.0,216.0,162.0,324.0,cyan,flipped triangle
0.0,6.0,2.0,1.0,7.0,1.0,988.7738768011332,1.0,1.0,part_3,go,0.0,0.0,0.0,270.0,5.0,270.0,108.0,162.0,54.0,324.0,216.0,white,square
0.0,5.0,1.0,1.0,7.0,5.0,726.6146633774042,1.0,1.0,part_3,go,0.0,0.0,0.0,147.0,3.0,49.0,245.0,196.0,294.0,147.0,98.0,orange,circle
0.0,7.0,3.0,1.0,7.0,4.0,761.0511817038059,1.0,1.0,part_3,go,0.0,0.0,0.0,234.0,6.0,195.0,78.0,39.0,234.0,156.0,117.0,green,hexagon
0.0,7.0,3.0,1.0,7.0,3.0,969.3169128149748,1.0,1.0,part_3,go,0.0,0.0,0.0,216.0,4.0,324.0,270.0,216.0,54.0,108.0,162.0,green,hexagon
0.0,5.0,1.0,1.0,7.0,6.0,785.9208267182112,1.0,1.0,part_3,go,0.0,0.0,0.0,204.0,6.0,34.0,170.0,136.0,102.0,68.0,204.0,orange,circle
0.0,4.0,4.0,0.0,7.0,4.0,1955.9387750923631,1.0,1.0,part_3,go,0.0,0.0,0.0,324.0,6.0,270.0,108.0,54.0,324.0,216.0,162.0,magenta,triangle
0.0,8.0,4.0,1.0,7.0,5.0,1013.909138739109,1.0,1.0,part_3,go,0.0,0.0,0.0,245.0,5.0,196.0,147.0,98.0,49.0,245.0,294.0,gray,I
0.0,5.0,1.0,1.0,7.0,5.0,1276.588248088956,2.0,1.0,part_3,go,0.0,0.0,0.0,136.0,4.0,170.0,204.0,34.0,68.0,136.0,102.0,orange,circle
0.0,1.0,1.0,0.0,7.0,2.0,1323.811275884509,2.0,1.0,part_3,go,0.0,0.0,0.0,220.0,5.0,88.0,220.0,44.0,176.0,264.0,132.0,cyan,flipped triangle
0.0,2.0,2.0,0.0,7.0,3.0,1573.865631595254,2.0,1.0,part_3,go,0.0,0.0,0.0,204.0,6.0,170.0,102.0,204.0,34.0,68.0,136.0,yellow,cross
0.0,5.0,1.0,1.0,7.0,2.0,913.1796583533288,2.0,1.0,part_3,go,0.0,0.0,0.0,196.0,4.0,147.0,196.0,98.0,245.0,49.0,294.0,orange,circle
0.0,1.0,1.0,0.0,7.0,6.0,1088.2017761468887,2.0,1.0,part_3,go,0.0,0.0,0.0,170.0,5.0,204.0,136.0,68.0,34.0,102.0,170.0,cyan,flipped triangle
0.0,6.0,2.0,1.0,7.0,2.0,1154.5476578176022,2.0,1.0,part_3,go,0.0,0.0,0.0,170.0,5.0,102.0,170.0,136.0,34.0,68.0,204.0,white,square
0.0,7.0,3.0,1.0,7.0,2.0,1181.8986106663942,2.0,1.0,part_3,go,0.0,0.0,0.0,195.0,5.0,234.0,195.0,156.0,39.0,117.0,78.0,green,hexagon
0.0,7.0,3.0,1.0,7.0,2.0,638.1315067410469,2.0,1.0,part_3,go,0.0,0.0,0.0,204.0,6.0,34.0,204.0,68.0,102.0,170.0,136.0,green,hexagon
0.0,1.0,1.0,0.0,7.0,2.0,975.3523878753184,2.0,1.0,part_3,go,0.0,0.0,0.0,204.0,6.0,34.0,204.0,170.0,136.0,68.0,102.0,cyan,flipped triangle
0.0,8.0,4.0,1.0,7.0,4.0,1030.4154716432097,2.0,1.0,part_3,go,0.0,0.0,0.0,136.0,4.0,170.0,204.0,68.0,136.0,34.0,102.0,gray,I
0.0,6.0,2.0,1.0,7.0,4.0,1184.6779938787222,2.0,1.0,part_3,go,0.0,0.0,0.0,176.0,4.0,264.0,44.0,220.0,176.0,88.0,132.0,white,square
0.0,4.0,4.0,0.0,7.0,4.0,1036.948898807168,2.0,1.0,part_3,go,0.0,0.0,0.0,195.0,5.0,234.0,78.0,117.0,195.0,39.0,156.0,magenta,triangle
0.0,8.0,4.0,1.0,7.0,5.0,1612.9986215382814,2.0,1.0,part_3,go,0.0,0.0,0.0,176.0,4.0,132.0,88.0,264.0,44.0,176.0,220.0,gray,I
0.0,3.0,3.0,0.0,7.0,5.0,1220.884004607797,2.0,1.0,part_3,go,0.0,0.0,0.0,162.0,3.0,108.0,54.0,270.0,324.0,162.0,216.0,blue,diamond
0.0,1.0,1.0,0.0,7.0,6.0,582.6647039502859,2.0,1.0,part_3,go,0.0,0.0,0.0,216.0,4.0,108.0,54.0,270.0,324.0,162.0,216.0,cyan,flipped triangle
0.0,2.0,2.0,0.0,7.0,5.0,1343.437734991312,2.0,1.0,part_3,go,0.0,0.0,0.0,162.0,3.0,324.0,54.0,108.0,270.0,162.0,216.0,yellow,cross
0.0,1.0,1.0,0.0,7.0,4.0,898.9350218325853,2.0,1.0,part_3,go,0.0,0.0,0.0,196.0,4.0,294.0,98.0,49.0,196.0,245.0,147.0,cyan,flipped triangle
0.0,7.0,3.0,1.0,7.0,6.0,1290.87089933455,2.0,1.0,part_3,go,0.0,0.0,0.0,245.0,5.0,196.0,98.0,294.0,49.0,147.0,245.0,green,hexagon
0.0,5.0,1.0,1.0,7.0,4.0,1133.3022229373455,2.0,1.0,part_3,go,0.0,0.0,0.0,132.0,3.0,220.0,44.0,264.0,132.0,88.0,176.0,orange,circle
0.0,1.0,1.0,0.0,7.0,6.0,1333.1808112561705,2.0,1.0,part_3,go,0.0,0.0,0.0,245.0,5.0,196.0,98.0,294.0,147.0,49.0,245.0,cyan,flipped triangle
0.0,3.0,3.0,0.0,7.0,3.0,1935.596987605095,3.0,1.0,part_3,go,0.0,0.0,0.0,196.0,4.0,147.0,98.0,196.0,245.0,49.0,294.0,blue,diamond
0.0,2.0,2.0,0.0,7.0,4.0,888.1454654037952,3.0,1.0,part_3,go,0.0,0.0,0.0,195.0,5.0,78.0,117.0,234.0,195.0,39.0,156.0,yellow,cross
0.0,3.0,3.0,0.0,7.0,3.0,1138.615556061268,3.0,1.0,part_3,go,0.0,0.0,0.0,170.0,5.0,136.0,204.0,170.0,68.0,102.0,34.0,blue,diamond
0.0,2.0,2.0,0.0,7.0,2.0,1826.8808834254744,3.0,1.0,part_3,go,0.0,0.0,0.0,220.0,5.0,176.0,220.0,264.0,88.0,132.0,44.0,yellow,cross
0.0,4.0,4.0,0.0,7.0,5.0,1259.633667767048,3.0,1.0,part_3,go,0.0,0.0,0.0,204.0,6.0,102.0,68.0,136.0,170.0,204.0,34.0,magenta,triangle
0.0,5.0,1.0,1.0,7.0,3.0,1023.6262567341328,3.0,1.0,part_3,go,0.0,0.0,0.0,162.0,3.0,324.0,108.0,162.0,54.0,216.0,270.0,orange,circle
0.0,6.0,2.0,1.0,7.0,3.0,1166.840247809887,3.0,1.0,part_3,go,0.0,0.0,0.0,170.0,5.0,204.0,34.0,170.0,102.0,136.0,68.0,white,square
0.0,1.0,1.0,0.0,7.0,2.0,1161.528404802084,3.0,1.0,part_3,go,0.0,0.0,0.0,195.0,5.0,234.0,195.0,78.0,117.0,39.0,156.0,cyan,flipped triangle
0.0,7.0,3.0,1.0,7.0,5.0,874.1542845964432,3.0,1.0,part_3,go,0.0,0.0,0.0,196.0,4.0,245.0,294.0,49.0,98.0,196.0,147.0,green,hexagon
0.0,8.0,4.0,1.0,7.0,5.0,908.6945094168186,3.0,1.0,part_3,go,0.0,0.0,0.0,162.0,3.0,108.0,54.0,270.0,216.0,162.0,324.0,gray,I
0.0,2.0,2.0,0.0,7.0,2.0,1435.9240885823965,3.0,1.0,part_3,go,0.0,0.0,0.0,44.0,1.0,264.0,44.0,88.0,132.0,176.0,220.0,yellow,cross
0.0,7.0,3.0,1.0,7.0,2.0,1335.133271291852,3.0,1.0,part_3,go,0.0,0.0,0.0,220.0,5.0,176.0,220.0,264.0,88.0,132.0,44.0,green,hexagon
0.0,1.0,1.0,0.0,7.0,3.0,1054.6332355588677,3.0,1.0,part_3,go,0.0,0.0,0.0,234.0,6.0,39.0,78.0,234.0,117.0,156.0,195.0,cyan,flipped triangle
0.0,3.0,3.0,0.0,7.0,5.0,721.8885831534863,3.0,1.0,part_3,go,0.0,0.0,0.0,195.0,5.0,156.0,39.0,117.0,234.0,195.0,78.0,blue,diamond
0.0,3.0,3.0,0.0,7.0,1.0,1756.6238678991797,3.0,1.0,part_3,go,0.0,0.0,0.0,234.0,6.0,234.0,156.0,39.0,117.0,195.0,78.0,blue,diamond
0.0,3.0,3.0,0.0,7.0,3.0,2094.461428001523,3.0,1.0,part_3,go,0.0,0.0,0.0,264.0,6.0,44.0,88.0,264.0,132.0,176.0,220.0,blue,diamond
0.0,4.0,4.0,0.0,7.0,1.0,1956.5100502222776,3.0,1.0,part_3,go,0.0,0.0,0.0,196.0,4.0,196.0,294.0,245.0,49.0,147.0,98.0,magenta,triangle
0.0,2.0,2.0,0.0,7.0,5.0,945.031087845564,3.0,1.0,part_3,go,0.0,0.0,0.0,245.0,5.0,98.0,147.0,196.0,49.0,245.0,294.0,yellow,cross
0.0,8.0,4.0,1.0,7.0,1.0,1602.7385666966438,3.0,1.0,part_3,go,0.0,0.0,0.0,108.0,2.0,108.0,270.0,162.0,54.0,324.0,216.0,gray,I
0.0,3.0,3.0,0.0,7.0,3.0,1464.8265857249498,3.0,1.0,part_3,go,0.0,0.0,0.0,162.0,3.0,54.0,216.0,162.0,108.0,324.0,270.0,blue,diamond
0.0,6.0,2.0,1.0,7.0,4.0,1185.5389680713415,4.0,1.0,part_3,go,0.0,0.0,0.0,176.0,4.0,220.0,132.0,88.0,176.0,264.0,44.0,white,square
0.0,6.0,2.0,1.0,7.0,5.0,754.7155506908894,4.0,1.0,part_3,go,0.0,0.0,0.0,196.0,4.0,294.0,147.0,245.0,49.0,196.0,98.0,white,square
0.0,7.0,3.0,1.0,7.0,1.0,999.7784551233052,4.0,1.0,part_3,go,0.0,0.0,0.0,220.0,5.0,220.0,176.0,132.0,44.0,264.0,88.0,green,hexagon
0.0,4.0,4.0,0.0,7.0,2.0,927.591722458601,4.0,1.0,part_3,go,0.0,0.0,0.0,176.0,4.0,132.0,176.0,44.0,220.0,88.0,264.0,magenta,triangle
0.0,5.0,1.0,1.0,7.0,2.0,887.0112132281065,4.0,1.0,part_3,go,0.0,0.0,0.0,195.0,5.0,117.0,195.0,156.0,39.0,78.0,234.0,orange,circle
0.0,2.0,2.0,0.0,7.0,3.0,1232.3578782379627,4.0,1.0,part_3,go,0.0,0.0,0.0,196.0,4.0,294.0,49.0,196.0,98.0,147.0,245.0,yellow,cross
0.0,6.0,2.0,1.0,7.0,3.0,1002.7967244386673,4.0,1.0,part_3,go,0.0,0.0,0.0,195.0,5.0,117.0,78.0,195.0,39.0,156.0,234.0,white,square
0.0,6.0,2.0,1.0,7.0,3.0,539.0797425061464,4.0,1.0,part_3,go,0.0,0.0,0.0,195.0,5.0,39.0,78.0,195.0,156.0,234.0,117.0,white,square
0.0,5.0,1.0,1.0,7.0,1.0,1071.2672621011734,4.0,1.0,part_3,go,0.0,0.0,0.0,162.0,3.0,162.0,108.0,324.0,216.0,54.0,270.0,orange,circle
0.0,5.0,1.0,1.0,7.0,3.0,1549.700003117323,4.0,1.0,part_3,go,0.0,0.0,0.0,264.0,6.0,44.0,220.0,264.0,88.0,176.0,132.0,orange,circle
0.0,8.0,4.0,1.0,7.0,1.0,1120.6553932279348,4.0,1.0,part_3,go,0.0,0.0,0.0,136.0,4.0,136.0,170.0,68.0,204.0,102.0,34.0,gray,I
0.0,2.0,2.0,0.0,7.0,3.0,1080.6617252528667,4.0,1.0,part_3,go,0.0,0.0,0.0,170.0,5.0,34.0,102.0,170.0,204.0,136.0,68.0,yellow,cross
0.0,8.0,4.0,1.0,7.0,2.0,1213.8481866568327,4.0,1.0,part_3,go,0.0,0.0,0.0,156.0,4.0,195.0,156.0,117.0,234.0,78.0,39.0,gray,I
0.0,6.0,2.0,1.0,7.0,1.0,755.9767216444016,4.0,1.0,part_3,go,0.0,0.0,0.0,216.0,4.0,216.0,324.0,270.0,162.0,108.0,54.0,white,square
0.0,7.0,3.0,1.0,7.0,4.0,1295.7442831248045,4.0,1.0,part_3,go,0.0,0.0,0.0,162.0,3.0,324.0,270.0,54.0,162.0,108.0,216.0,green,hexagon
0.0,4.0,4.0,0.0,7.0,4.0,993.4006258845328,4.0,1.0,part_3,go,0.0,0.0,0.0,195.0,5.0,234.0,156.0,117.0,195.0,78.0,39.0,magenta,triangle
0.0,3.0,3.0,0.0,7.0,2.0,1072.6209003478289,4.0,1.0,part_3,go,0.0,0.0,0.0,204.0,6.0,68.0,204.0,102.0,136.0,34.0,170.0,blue,diamond
0.0,3.0,3.0,0.0,7.0,4.0,1061.1733086407185,4.0,1.0,part_3,go,0.0,0.0,0.0,196.0,4.0,147.0,245.0,98.0,196.0,294.0,49.0,blue,diamond
0.0,2.0,2.0,0.0,7.0,5.0,1118.1831937283278,4.0,1.0,part_3,go,0.0,0.0,0.0,216.0,4.0,270.0,54.0,324.0,108.0,216.0,162.0,yellow,cross
0.0,1.0,1.0,0.0,7.0,4.0,981.6893599927424,4.0,1.0,part_3,go,0.0,0.0,0.0,176.0,4.0,264.0,132.0,88.0,176.0,44.0,220.0,cyan,flipped triangle
