raw_reward_magnitude,stim_reward,stepwise_reward_magnitude,paired_with_stopping,stim_location,response,reaction_time,block,num_trial_presentations,which_phase,stop_signal_trial_type,left_SSD,right_SSD,accuracy,chosen_bidding_amount,chosen_bidding_level,possible_bid_1,possible_bid_2,possible_bid_3,possible_bid_4,possible_bid_5,possible_bid_6,color_text,shape_text
107.0,6.0,1.0,1.0,4.0,4.0,500.00982359051704,1.0,1.0,phase_1,,,,,,,,,,,,,orange,flipped triangle
204.0,7.0,2.0,1.0,2.0,2.0,296.8646697700023,1.0,1.0,phase_1,,,,,,,,,,,,,green,diamond
410.0,8.0,4.0,1.0,4.0,4.0,399.1351258009672,1.0,1.0,phase_1,,,,,,,,,,,,,gray,hexagon
69.0,5.0,0.5,1.0,3.0,3.0,329.1399274021387,1.0,1.0,phase_1,,,,,,,,,,,,,white,triangle
212.0,3.0,2.0,0.0,3.0,3.0,336.1896723508835,1.0,1.0,phase_1,,,,,,,,,,,,,cyan,cross
93.0,6.0,1.0,1.0,4.0,4.0,386.8991248309612,1.0,1.0,phase_1,,,,,,,,,,,,,orange,flipped triangle
35.0,5.0,0.5,1.0,1.0,1.0,321.4997835457325,1.0,1.0,phase_1,,,,,,,,,,,,,white,triangle
190.0,3.0,2.0,0.0,1.0,1.0,333.9203502982855,1.0,1.0,phase_1,,,,,,,,,,,,,cyan,cross
407.0,4.0,4.0,0.0,2.0,2.0,329.0275540202856,1.0,1.0,phase_1,,,,,,,,,,,,,magenta,circle
99.0,2.0,1.0,0.0,1.0,1.0,358.3943415433168,1.0,1.0,phase_1,,,,,,,,,,,,,yellow,I
41.0,1.0,0.5,0.0,4.0,4.0,381.9167893379926,1.0,1.0,phase_1,,,,,,,,,,,,,blue,square
53.0,5.0,0.5,1.0,4.0,4.0,353.0197367072105,1.0,1.0,phase_1,,,,,,,,,,,,,white,triangle
0.0,6.0,0.0,1.0,4.0,4.0,671.9745229929686,1.0,1.0,phase_1,,,,,,,,,,,,,orange,flipped triangle
102.0,2.0,1.0,0.0,2.0,2.0,427.6721104979515,1.0,1.0,phase_1,,,,,,,,,,,,,yellow,I
69.0,1.0,0.5,0.0,4.0,4.0,455.3449247032404,1.0,1.0,phase_1,,,,,,,,,,,,,blue,square
78.0,2.0,1.0,0.0,3.0,3.0,403.3833723515272,1.0,1.0,phase_1,,,,,,,,,,,,,yellow,I
187.0,3.0,2.0,0.0,1.0,1.0,313.2195081561804,1.0,1.0,phase_1,,,,,,,,,,,,,cyan,cross
383.0,4.0,4.0,0.0,3.0,3.0,365.1364855468273,1.0,1.0,phase_1,,,,,,,,,,,,,magenta,circle
0.0,3.0,0.0,0.0,4.0,4.0,282.9503677785396,1.0,1.0,phase_1,,,,,,,,,,,,,cyan,cross
75.0,1.0,0.5,0.0,1.0,1.0,574.5129752904177,1.0,1.0,phase_1,,,,,,,,,,,,,blue,square
408.0,4.0,4.0,0.0,3.0,3.0,625.5684811621904,1.0,1.0,phase_1,,,,,,,,,,,,,magenta,circle
40.0,5.0,0.5,1.0,3.0,3.0,471.4260883629322,1.0,1.0,phase_1,,,,,,,,,,,,,white,triangle
46.0,1.0,0.5,0.0,2.0,2.0,323.2990317046642,1.0,1.0,phase_1,,,,,,,,,,,,,blue,square
189.0,7.0,2.0,1.0,3.0,3.0,344.8452614247799,1.0,1.0,phase_1,,,,,,,,,,,,,green,diamond
0.0,7.0,0.0,1.0,3.0,3.0,430.8148454874754,1.0,1.0,phase_1,,,,,,,,,,,,,green,diamond
0.0,2.0,0.0,0.0,3.0,3.0,304.5409359037876,1.0,1.0,phase_1,,,,,,,,,,,,,yellow,I
219.0,3.0,2.0,0.0,3.0,3.0,341.3943964987993,1.0,1.0,phase_1,,,,,,,,,,,,,cyan,cross
192.0,7.0,2.0,1.0,2.0,2.0,313.5676141828298,1.0,1.0,phase_1,,,,,,,,,,,,,green,diamond
124.0,6.0,1.0,1.0,3.0,3.0,369.1695928573608,1.0,1.0,phase_1,,,,,,,,,,,,,orange,flipped triangle
404.0,8.0,4.0,1.0,2.0,2.0,395.4128623008728,1.0,1.0,phase_1,,,,,,,,,,,,,gray,hexagon
0.0,1.0,0.0,0.0,2.0,2.0,383.495619520545,1.0,1.0,phase_1,,,,,,,,,,,,,blue,square
53.0,1.0,0.5,0.0,2.0,2.0,333.093861117959,1.0,1.0,phase_1,,,,,,,,,,,,,blue,square
31.0,1.0,0.5,0.0,3.0,3.0,537.1086653321981,1.0,1.0,phase_1,,,,,,,,,,,,,blue,square
206.0,3.0,2.0,0.0,2.0,2.0,352.8159838169813,1.0,1.0,phase_1,,,,,,,,,,,,,cyan,cross
405.0,4.0,4.0,0.0,1.0,1.0,293.1583598256111,1.0,1.0,phase_1,,,,,,,,,,,,,magenta,circle
124.0,2.0,1.0,0.0,1.0,1.0,362.3405154794454,1.0,1.0,phase_1,,,,,,,,,,,,,yellow,I
63.0,1.0,0.5,0.0,1.0,1.0,341.4254691451788,1.0,1.0,phase_1,,,,,,,,,,,,,blue,square
200.0,7.0,2.0,1.0,2.0,2.0,292.0377291738987,1.0,1.0,phase_1,,,,,,,,,,,,,green,diamond
54.0,1.0,0.5,0.0,4.0,4.0,335.6644250452518,1.0,1.0,phase_1,,,,,,,,,,,,,blue,square
0.0,1.0,0.0,0.0,3.0,3.0,364.066980779171,1.0,1.0,phase_1,,,,,,,,,,,,,blue,square
410.0,4.0,4.0,0.0,2.0,2.0,360.7273921370506,1.0,1.0,phase_1,,,,,,,,,,,,,magenta,circle
82.0,6.0,1.0,1.0,1.0,1.0,275.3974460065365,1.0,1.0,phase_1,,,,,,,,,,,,,orange,flipped triangle
117.0,6.0,1.0,1.0,1.0,1.0,274.260988458991,1.0,1.0,phase_1,,,,,,,,,,,,,orange,flipped triangle
192.0,3.0,2.0,0.0,3.0,3.0,476.8859483301639,1.0,1.0,phase_1,,,,,,,,,,,,,cyan,cross
215.0,7.0,2.0,1.0,4.0,4.0,511.044979095459,1.0,2.0,phase_1,,,,,,,,,,,,,green,diamond
200.0,3.0,2.0,0.0,3.0,3.0,339.8682568222284,1.0,1.0,phase_1,,,,,,,,,,,,,cyan,cross
0.0,6.0,0.0,1.0,2.0,2.0,671.676266938448,1.0,1.0,phase_1,,,,,,,,,,,,,orange,flipped triangle
50.0,5.0,0.5,1.0,2.0,2.0,692.3673339188099,1.0,1.0,phase_1,,,,,,,,,,,,,white,triangle
87.0,2.0,1.0,0.0,3.0,3.0,361.8296347558498,1.0,1.0,phase_1,,,,,,,,,,,,,yellow,I
0.0,8.0,0.0,1.0,3.0,3.0,438.5023117065429,1.0,1.0,phase_1,,,,,,,,,,,,,gray,hexagon
386.0,8.0,4.0,1.0,3.0,3.0,316.3111060857773,1.0,1.0,phase_1,,,,,,,,,,,,,gray,hexagon
63.0,5.0,0.5,1.0,4.0,4.0,318.9892992377281,1.0,1.0,phase_1,,,,,,,,,,,,,white,triangle
0.0,8.0,0.0,1.0,2.0,2.0,316.6730180382728,1.0,1.0,phase_1,,,,,,,,,,,,,gray,hexagon
80.0,6.0,1.0,1.0,2.0,2.0,464.7947605699301,1.0,1.0,phase_1,,,,,,,,,,,,,orange,flipped triangle
397.0,8.0,4.0,1.0,1.0,1.0,492.9715283215046,1.0,1.0,phase_1,,,,,,,,,,,,,gray,hexagon
99.0,6.0,1.0,1.0,3.0,3.0,426.7077632248401,1.0,1.0,phase_1,,,,,,,,,,,,,orange,flipped triangle
0.0,6.0,0.0,1.0,4.0,4.0,384.9588111042976,1.0,1.0,phase_1,,,,,,,,,,,,,orange,flipped triangle
58.0,1.0,0.5,0.0,4.0,4.0,331.5672427415848,1.0,1.0,phase_1,,,,,,,,,,,,,blue,square
0.0,1.0,0.0,0.0,4.0,4.0,464.5942784845829,1.0,1.0,phase_1,,,,,,,,,,,,,blue,square
33.0,5.0,0.5,1.0,1.0,1.0,448.1975100934505,1.0,1.0,phase_1,,,,,,,,,,,,,white,triangle
113.0,6.0,1.0,1.0,4.0,4.0,427.8950206935406,1.0,1.0,phase_1,,,,,,,,,,,,,orange,flipped triangle
0.0,7.0,0.0,1.0,3.0,3.0,358.0614551901817,1.0,1.0,phase_1,,,,,,,,,,,,,green,diamond
0.0,8.0,0.0,1.0,3.0,3.0,347.6166557520628,1.0,1.0,phase_1,,,,,,,,,,,,,gray,hexagon
100.0,6.0,1.0,1.0,1.0,1.0,370.1779507100582,1.0,1.0,phase_1,,,,,,,,,,,,,orange,flipped triangle
410.0,4.0,4.0,0.0,3.0,3.0,316.6626933962106,1.0,1.0,phase_1,,,,,,,,,,,,,magenta,circle
383.0,4.0,4.0,0.0,2.0,2.0,274.572990834713,1.0,1.0,phase_1,,,,,,,,,,,,,magenta,circle
175.0,7.0,2.0,1.0,1.0,1.0,287.1986534446478,1.0,1.0,phase_1,,,,,,,,,,,,,green,diamond
59.0,5.0,0.5,1.0,2.0,2.0,306.4105343073606,1.0,1.0,phase_1,,,,,,,,,,,,,white,triangle
207.0,3.0,2.0,0.0,4.0,4.0,312.84276954829687,1.0,1.0,phase_1,,,,,,,,,,,,,cyan,cross
98.0,2.0,1.0,0.0,1.0,1.0,382.6386276632547,1.0,1.0,phase_1,,,,,,,,,,,,,yellow,I
111.0,2.0,1.0,0.0,4.0,4.0,353.5764161497354,1.0,1.0,phase_1,,,,,,,,,,,,,yellow,I
116.0,2.0,1.0,0.0,3.0,3.0,335.68227104842657,1.0,1.0,phase_1,,,,,,,,,,,,,yellow,I
102.0,6.0,1.0,1.0,2.0,2.0,299.9221086502075,1.0,1.0,phase_1,,,,,,,,,,,,,orange,flipped triangle
401.0,4.0,4.0,0.0,3.0,3.0,319.9073858559131,1.0,1.0,phase_1,,,,,,,,,,,,,magenta,circle
205.0,3.0,2.0,0.0,4.0,4.0,331.8576570600271,1.0,1.0,phase_1,,,,,,,,,,,,,cyan,cross
0.0,7.0,0.0,1.0,2.0,2.0,338.0300067365169,1.0,1.0,phase_1,,,,,,,,,,,,,green,diamond
223.0,3.0,2.0,0.0,2.0,2.0,332.4855677783489,1.0,1.0,phase_1,,,,,,,,,,,,,cyan,cross
0.0,7.0,0.0,1.0,4.0,4.0,331.7637927830219,1.0,1.0,phase_1,,,,,,,,,,,,,green,diamond
0.0,3.0,0.0,0.0,1.0,1.0,397.4321223795414,1.0,1.0,phase_1,,,,,,,,,,,,,cyan,cross
113.0,2.0,1.0,0.0,2.0,2.0,325.1150660216808,1.0,1.0,phase_1,,,,,,,,,,,,,yellow,I
50.0,5.0,0.5,1.0,4.0,4.0,425.6106466054916,1.0,1.0,phase_1,,,,,,,,,,,,,white,triangle
222.0,3.0,2.0,0.0,2.0,2.0,310.8369763940573,1.0,1.0,phase_1,,,,,,,,,,,,,cyan,cross
73.0,1.0,0.5,0.0,3.0,3.0,344.5899803191423,1.0,1.0,phase_1,,,,,,,,,,,,,blue,square
217.0,3.0,2.0,0.0,2.0,2.0,399.635823443532,1.0,1.0,phase_1,,,,,,,,,,,,,cyan,cross
0.0,3.0,0.0,0.0,4.0,4.0,324.9762933701277,1.0,1.0,phase_1,,,,,,,,,,,,,cyan,cross
38.0,1.0,0.5,0.0,3.0,3.0,326.4128062874079,1.0,1.0,phase_1,,,,,,,,,,,,,blue,square
211.0,7.0,2.0,1.0,3.0,3.0,303.3669274300337,1.0,1.0,phase_1,,,,,,,,,,,,,green,diamond
60.0,5.0,0.5,1.0,3.0,3.0,307.8137096017599,1.0,1.0,phase_1,,,,,,,,,,,,,white,triangle
0.0,6.0,0.0,1.0,3.0,3.0,316.5270239114761,1.0,1.0,phase_1,,,,,,,,,,,,,orange,flipped triangle
54.0,5.0,0.5,1.0,3.0,3.0,291.2555206567049,1.0,1.0,phase_1,,,,,,,,,,,,,white,triangle
56.0,5.0,0.5,1.0,4.0,4.0,295.9700878709554,1.0,1.0,phase_1,,,,,,,,,,,,,white,triangle
219.0,7.0,2.0,1.0,3.0,3.0,267.9214067757129,1.0,1.0,phase_1,,,,,,,,,,,,,green,diamond
383.0,8.0,4.0,1.0,2.0,2.0,393.9661085605621,1.0,1.0,phase_1,,,,,,,,,,,,,gray,hexagon
190.0,7.0,2.0,1.0,3.0,3.0,324.873998761177,1.0,1.0,phase_1,,,,,,,,,,,,,green,diamond
120.0,2.0,1.0,0.0,4.0,4.0,440.8232755959034,1.0,1.0,phase_1,,,,,,,,,,,,,yellow,I
413.0,4.0,4.0,0.0,1.0,1.0,352.9376033693552,1.0,1.0,phase_1,,,,,,,,,,,,,magenta,circle
95.0,6.0,1.0,1.0,3.0,3.0,365.6371869146824,1.0,1.0,phase_1,,,,,,,,,,,,,orange,flipped triangle
177.0,7.0,2.0,1.0,3.0,3.0,305.2408080548048,1.0,1.0,phase_1,,,,,,,,,,,,,green,diamond
394.0,4.0,4.0,0.0,3.0,3.0,303.5522513091564,1.0,1.0,phase_1,,,,,,,,,,,,,magenta,circle
76.0,2.0,1.0,0.0,4.0,4.0,322.9459319263696,1.0,1.0,phase_1,,,,,,,,,,,,,yellow,I
0.0,2.0,0.0,0.0,3.0,3.0,461.1673951148987,2.0,1.0,phase_1,,,,,,,,,,,,,yellow,I
114.0,6.0,1.0,1.0,1.0,1.0,410.2716017514467,2.0,1.0,phase_1,,,,,,,,,,,,,orange,flipped triangle
0.0,7.0,0.0,1.0,2.0,2.0,335.7580304145813,2.0,1.0,phase_1,,,,,,,,,,,,,green,diamond
60.0,1.0,0.5,0.0,1.0,1.0,413.2556356489658,2.0,1.0,phase_1,,,,,,,,,,,,,blue,square
0.0,3.0,0.0,0.0,2.0,2.0,327.1753843873739,2.0,1.0,phase_1,,,,,,,,,,,,,cyan,cross
390.0,4.0,4.0,0.0,3.0,3.0,331.8501096218824,2.0,1.0,phase_1,,,,,,,,,,,,,magenta,circle
56.0,1.0,0.5,0.0,4.0,4.0,296.3923774659633,2.0,1.0,phase_1,,,,,,,,,,,,,blue,square
189.0,3.0,2.0,0.0,2.0,2.0,284.9306277930736,2.0,1.0,phase_1,,,,,,,,,,,,,cyan,cross
0.0,6.0,0.0,1.0,4.0,4.0,385.6736328452825,2.0,1.0,phase_1,,,,,,,,,,,,,orange,flipped triangle
415.0,4.0,4.0,0.0,3.0,3.0,295.6027071923017,2.0,1.0,phase_1,,,,,,,,,,,,,magenta,circle
0.0,4.0,0.0,0.0,3.0,3.0,324.0404538810253,2.0,1.0,phase_1,,,,,,,,,,,,,magenta,circle
0.0,5.0,0.0,1.0,4.0,4.0,327.9364872723818,2.0,1.0,phase_1,,,,,,,,,,,,,white,triangle
48.0,1.0,0.5,0.0,1.0,1.0,343.5347098857164,2.0,1.0,phase_1,,,,,,,,,,,,,blue,square
87.0,6.0,1.0,1.0,1.0,1.0,385.9293516725302,2.0,1.0,phase_1,,,,,,,,,,,,,orange,flipped triangle
117.0,2.0,1.0,0.0,1.0,1.0,356.5763849765062,2.0,2.0,phase_1,,,,,,,,,,,,,yellow,I
117.0,6.0,1.0,1.0,1.0,1.0,337.4193497002125,2.0,1.0,phase_1,,,,,,,,,,,,,orange,flipped triangle
206.0,7.0,2.0,1.0,2.0,2.0,263.1436865776777,2.0,1.0,phase_1,,,,,,,,,,,,,green,diamond
187.0,7.0,2.0,1.0,1.0,1.0,344.7908610105514,2.0,1.0,phase_1,,,,,,,,,,,,,green,diamond
178.0,7.0,2.0,1.0,4.0,4.0,285.9376743435859,2.0,1.0,phase_1,,,,,,,,,,,,,green,diamond
0.0,2.0,0.0,0.0,4.0,4.0,314.9629440158605,2.0,1.0,phase_1,,,,,,,,,,,,,yellow,I
375.0,8.0,4.0,1.0,4.0,4.0,312.0470028370619,2.0,1.0,phase_1,,,,,,,,,,,,,gray,hexagon
194.0,3.0,2.0,0.0,1.0,1.0,307.5892142951488,2.0,1.0,phase_1,,,,,,,,,,,,,cyan,cross
0.0,4.0,0.0,0.0,1.0,1.0,336.9062151759863,2.0,1.0,phase_1,,,,,,,,,,,,,magenta,circle
383.0,8.0,4.0,1.0,2.0,2.0,344.7054494172334,2.0,1.0,phase_1,,,,,,,,,,,,,gray,hexagon
415.0,8.0,4.0,1.0,2.0,2.0,387.8616392612457,2.0,1.0,phase_1,,,,,,,,,,,,,gray,hexagon
177.0,3.0,2.0,0.0,4.0,4.0,295.0931694358587,2.0,1.0,phase_1,,,,,,,,,,,,,cyan,cross
0.0,1.0,0.0,0.0,1.0,1.0,326.9300051033497,2.0,1.0,phase_1,,,,,,,,,,,,,blue,square
215.0,3.0,2.0,0.0,2.0,2.0,303.3680543303489,2.0,1.0,phase_1,,,,,,,,,,,,,cyan,cross
41.0,5.0,0.5,1.0,1.0,1.0,319.5745404809713,2.0,1.0,phase_1,,,,,,,,,,,,,white,triangle
33.0,5.0,0.5,1.0,1.0,1.0,305.5779598653316,2.0,1.0,phase_1,,,,,,,,,,,,,white,triangle
0.0,2.0,0.0,0.0,2.0,2.0,254.53591719269753,2.0,1.0,phase_1,,,,,,,,,,,,,yellow,I
0.0,7.0,0.0,1.0,4.0,4.0,274.5849676430225,2.0,1.0,phase_1,,,,,,,,,,,,,green,diamond
46.0,5.0,0.5,1.0,3.0,3.0,319.2248307168484,2.0,1.0,phase_1,,,,,,,,,,,,,white,triangle
105.0,2.0,1.0,0.0,2.0,2.0,287.5493466854095,2.0,1.0,phase_1,,,,,,,,,,,,,yellow,I
0.0,5.0,0.0,1.0,1.0,1.0,284.6082840114832,2.0,1.0,phase_1,,,,,,,,,,,,,white,triangle
59.0,5.0,0.5,1.0,2.0,2.0,544.476879760623,2.0,1.0,phase_1,,,,,,,,,,,,,white,triangle
206.0,3.0,2.0,0.0,4.0,4.0,332.5506374239921,2.0,1.0,phase_1,,,,,,,,,,,,,cyan,cross
396.0,8.0,4.0,1.0,4.0,4.0,354.000374674797,2.0,1.0,phase_1,,,,,,,,,,,,,gray,hexagon
82.0,2.0,1.0,0.0,4.0,4.0,340.4151536524296,2.0,1.0,phase_1,,,,,,,,,,,,,yellow,I
56.0,5.0,0.5,1.0,3.0,3.0,386.8570942431688,2.0,1.0,phase_1,,,,,,,,,,,,,white,triangle
0.0,5.0,0.0,1.0,3.0,3.0,308.5034154355526,2.0,1.0,phase_1,,,,,,,,,,,,,white,triangle
194.0,7.0,2.0,1.0,4.0,4.0,301.0467234998941,2.0,1.0,phase_1,,,,,,,,,,,,,green,diamond
50.0,1.0,0.5,0.0,2.0,2.0,303.482498973608,2.0,1.0,phase_1,,,,,,,,,,,,,blue,square
0.0,8.0,0.0,1.0,1.0,1.0,397.2167503088712,2.0,1.0,phase_1,,,,,,,,,,,,,gray,hexagon
76.0,6.0,1.0,1.0,1.0,1.0,359.7210291773081,2.0,1.0,phase_1,,,,,,,,,,,,,orange,flipped triangle
0.0,4.0,0.0,0.0,3.0,3.0,316.3671437650919,2.0,1.0,phase_1,,,,,,,,,,,,,magenta,circle
393.0,8.0,4.0,1.0,2.0,2.0,291.9944114983082,2.0,1.0,phase_1,,,,,,,,,,,,,gray,hexagon
391.0,8.0,4.0,1.0,2.0,2.0,345.0887352228164,2.0,1.0,phase_1,,,,,,,,,,,,,gray,hexagon
212.0,7.0,2.0,1.0,1.0,1.0,283.8862463831901,2.0,1.0,phase_1,,,,,,,,,,,,,green,diamond
27.0,5.0,0.5,1.0,2.0,2.0,377.7989260852337,2.0,1.0,phase_1,,,,,,,,,,,,,white,triangle
119.0,6.0,1.0,1.0,3.0,3.0,374.2895536124706,2.0,1.0,phase_1,,,,,,,,,,,,,orange,flipped triangle
98.0,6.0,1.0,1.0,2.0,2.0,376.4741756021976,2.0,1.0,phase_1,,,,,,,,,,,,,orange,flipped triangle
377.0,4.0,4.0,0.0,4.0,4.0,388.9998625963926,2.0,1.0,phase_1,,,,,,,,,,,,,magenta,circle
397.0,4.0,4.0,0.0,4.0,4.0,389.5844146609306,2.0,1.0,phase_1,,,,,,,,,,,,,magenta,circle
0.0,7.0,0.0,1.0,1.0,1.0,326.7501275986433,2.0,1.0,phase_1,,,,,,,,,,,,,green,diamond
80.0,2.0,1.0,0.0,4.0,4.0,298.6940294504165,2.0,1.0,phase_1,,,,,,,,,,,,,yellow,I
0.0,4.0,0.0,0.0,1.0,1.0,319.4863945245743,2.0,1.0,phase_1,,,,,,,,,,,,,magenta,circle
421.0,4.0,4.0,0.0,1.0,1.0,303.1556326895952,2.0,1.0,phase_1,,,,,,,,,,,,,magenta,circle
89.0,2.0,1.0,0.0,2.0,2.0,315.681766718626,2.0,1.0,phase_1,,,,,,,,,,,,,yellow,I
117.0,2.0,1.0,0.0,4.0,4.0,286.3358184695244,2.0,1.0,phase_1,,,,,,,,,,,,,yellow,I
0.0,4.0,0.0,0.0,1.0,1.0,348.7356975674629,2.0,1.0,phase_1,,,,,,,,,,,,,magenta,circle
379.0,8.0,4.0,1.0,3.0,3.0,304.2762298136949,2.0,1.0,phase_1,,,,,,,,,,,,,gray,hexagon
380.0,8.0,4.0,1.0,1.0,1.0,365.1383444666862,2.0,1.0,phase_1,,,,,,,,,,,,,gray,hexagon
0.0,1.0,0.0,0.0,3.0,3.0,339.9518448859453,2.0,1.0,phase_1,,,,,,,,,,,,,blue,square
114.0,6.0,1.0,1.0,4.0,4.0,303.9341662079096,2.0,1.0,phase_1,,,,,,,,,,,,,orange,flipped triangle
119.0,2.0,1.0,0.0,4.0,4.0,349.0706998854875,2.0,1.0,phase_1,,,,,,,,,,,,,yellow,I
425.0,8.0,4.0,1.0,3.0,3.0,417.8427252918482,2.0,1.0,phase_1,,,,,,,,,,,,,gray,hexagon
182.0,3.0,2.0,0.0,3.0,3.0,407.1324951946735,2.0,1.0,phase_1,,,,,,,,,,,,,cyan,cross
386.0,4.0,4.0,0.0,2.0,2.0,299.6401600539684,2.0,1.0,phase_1,,,,,,,,,,,,,magenta,circle
217.0,7.0,2.0,1.0,2.0,2.0,340.843653306365,2.0,1.0,phase_1,,,,,,,,,,,,,green,diamond
28.0,1.0,0.5,0.0,1.0,1.0,385.0416466593742,2.0,1.0,phase_1,,,,,,,,,,,,,blue,square
222.0,7.0,2.0,1.0,3.0,3.0,336.9071520864963,2.0,1.0,phase_1,,,,,,,,,,,,,green,diamond
96.0,6.0,1.0,1.0,2.0,2.0,348.5992662608623,2.0,1.0,phase_1,,,,,,,,,,,,,orange,flipped triangle
0.0,6.0,0.0,1.0,2.0,2.0,336.2653013318777,2.0,1.0,phase_1,,,,,,,,,,,,,orange,flipped triangle
68.0,1.0,0.5,0.0,4.0,4.0,380.8222431689501,2.0,1.0,phase_1,,,,,,,,,,,,,blue,square
0.0,1.0,0.0,0.0,1.0,1.0,352.9976829886436,2.0,1.0,phase_1,,,,,,,,,,,,,blue,square
402.0,4.0,4.0,0.0,3.0,3.0,296.161675825715,2.0,1.0,phase_1,,,,,,,,,,,,,magenta,circle
59.0,1.0,0.5,0.0,4.0,4.0,340.6719826161861,2.0,1.0,phase_1,,,,,,,,,,,,,blue,square
87.0,6.0,1.0,1.0,2.0,2.0,279.315173625946,2.0,1.0,phase_1,,,,,,,,,,,,,orange,flipped triangle
178.0,3.0,2.0,0.0,1.0,1.0,492.973580956459,2.0,1.0,phase_1,,,,,,,,,,,,,cyan,cross
400.0,8.0,4.0,1.0,1.0,1.0,344.2321345210075,2.0,1.0,phase_1,,,,,,,,,,,,,gray,hexagon
87.0,2.0,1.0,0.0,3.0,3.0,347.8810545057058,2.0,2.0,phase_1,,,,,,,,,,,,,yellow,I
107.0,6.0,1.0,1.0,1.0,1.0,402.2943135350942,2.0,1.0,phase_1,,,,,,,,,,,,,orange,flipped triangle
222.0,3.0,2.0,0.0,2.0,2.0,315.5477158725261,2.0,1.0,phase_1,,,,,,,,,,,,,cyan,cross
107.0,2.0,1.0,0.0,2.0,2.0,343.7902480363846,2.0,1.0,phase_1,,,,,,,,,,,,,yellow,I
33.0,1.0,0.5,0.0,4.0,4.0,287.2164975851774,2.0,1.0,phase_1,,,,,,,,,,,,,blue,square
32.0,1.0,0.5,0.0,2.0,2.0,307.2151280939579,2.0,1.0,phase_1,,,,,,,,,,,,,blue,square
177.0,3.0,2.0,0.0,4.0,4.0,328.7332076579332,2.0,1.0,phase_1,,,,,,,,,,,,,cyan,cross
183.0,3.0,2.0,0.0,3.0,3.0,419.6911845356226,2.0,1.0,phase_1,,,,,,,,,,,,,cyan,cross
423.0,8.0,4.0,1.0,2.0,2.0,311.0929131507873,2.0,1.0,phase_1,,,,,,,,,,,,,gray,hexagon
215.0,3.0,2.0,0.0,3.0,3.0,348.3353368937969,2.0,1.0,phase_1,,,,,,,,,,,,,cyan,cross
177.0,7.0,2.0,1.0,2.0,2.0,321.5073551982641,2.0,1.0,phase_1,,,,,,,,,,,,,green,diamond
80.0,2.0,1.0,0.0,1.0,1.0,311.9086511433124,2.0,1.0,phase_1,,,,,,,,,,,,,yellow,I
0.0,1.0,0.0,0.0,3.0,3.0,396.6673035174608,2.0,1.0,phase_1,,,,,,,,,,,,,blue,square
0.0,8.0,0.0,1.0,4.0,4.0,337.259953841567,2.0,1.0,phase_1,,,,,,,,,,,,,gray,hexagon
419.0,8.0,4.0,1.0,3.0,3.0,299.5489239692688,2.0,1.0,phase_1,,,,,,,,,,,,,gray,hexagon
400.0,4.0,4.0,0.0,4.0,4.0,329.2987234890461,2.0,1.0,phase_1,,,,,,,,,,,,,magenta,circle
193.0,3.0,2.0,0.0,2.0,2.0,327.3893892765045,2.0,1.0,phase_1,,,,,,,,,,,,,cyan,cross
78.0,6.0,1.0,1.0,4.0,4.0,349.268089979887,2.0,1.0,phase_1,,,,,,,,,,,,,orange,flipped triangle
207.0,7.0,2.0,1.0,4.0,4.0,310.5554264038801,2.0,1.0,phase_1,,,,,,,,,,,,,green,diamond
183.0,7.0,2.0,1.0,2.0,2.0,419.5222072303295,3.0,1.0,phase_1,,,,,,,,,,,,,green,diamond
83.0,2.0,1.0,0.0,2.0,2.0,338.7321289628744,3.0,1.0,phase_1,,,,,,,,,,,,,yellow,I
0.0,5.0,0.0,1.0,3.0,3.0,373.019739985466,3.0,1.0,phase_1,,,,,,,,,,,,,white,triangle
182.0,7.0,2.0,1.0,1.0,1.0,340.5799008905887,3.0,1.0,phase_1,,,,,,,,,,,,,green,diamond
77.0,6.0,1.0,1.0,2.0,2.0,310.9676633030176,3.0,1.0,phase_1,,,,,,,,,,,,,orange,flipped triangle
422.0,8.0,4.0,1.0,4.0,4.0,331.4707521349191,3.0,1.0,phase_1,,,,,,,,,,,,,gray,hexagon
215.0,7.0,2.0,1.0,4.0,4.0,391.7137812823057,3.0,1.0,phase_1,,,,,,,,,,,,,green,diamond
0.0,2.0,0.0,0.0,3.0,3.0,335.6407769024372,3.0,1.0,phase_1,,,,,,,,,,,,,yellow,I
391.0,4.0,4.0,0.0,1.0,1.0,306.8799432367086,3.0,1.0,phase_1,,,,,,,,,,,,,magenta,circle
202.0,3.0,2.0,0.0,1.0,1.0,345.3453630208969,3.0,1.0,phase_1,,,,,,,,,,,,,cyan,cross
29.0,1.0,0.5,0.0,1.0,1.0,354.7888323664665,3.0,1.0,phase_1,,,,,,,,,,,,,blue,square
379.0,4.0,4.0,0.0,1.0,1.0,338.4323045611381,3.0,1.0,phase_1,,,,,,,,,,,,,magenta,circle
183.0,7.0,2.0,1.0,4.0,4.0,278.468644246459,3.0,1.0,phase_1,,,,,,,,,,,,,green,diamond
389.0,4.0,4.0,0.0,3.0,3.0,313.5699387639761,3.0,1.0,phase_1,,,,,,,,,,,,,magenta,circle
410.0,8.0,4.0,1.0,1.0,1.0,334.1670706868171,3.0,1.0,phase_1,,,,,,,,,,,,,gray,hexagon
32.0,5.0,0.5,1.0,4.0,4.0,314.0755742788315,3.0,1.0,phase_1,,,,,,,,,,,,,white,triangle
35.0,5.0,0.5,1.0,1.0,1.0,334.517041221261,3.0,1.0,phase_1,,,,,,,,,,,,,white,triangle
59.0,1.0,0.5,0.0,3.0,3.0,318.1605748832226,3.0,1.0,phase_1,,,,,,,,,,,,,blue,square
87.0,2.0,1.0,0.0,1.0,1.0,257.6572950929403,3.0,1.0,phase_1,,,,,,,,,,,,,yellow,I
394.0,8.0,4.0,1.0,1.0,1.0,327.1226212382316,3.0,1.0,phase_1,,,,,,,,,,,,,gray,hexagon
177.0,7.0,2.0,1.0,4.0,4.0,269.8255702853203,3.0,1.0,phase_1,,,,,,,,,,,,,green,diamond
76.0,2.0,1.0,0.0,4.0,4.0,302.4746552109718,3.0,1.0,phase_1,,,,,,,,,,,,,yellow,I
40.0,1.0,0.5,0.0,1.0,1.0,331.3410766422748,3.0,1.0,phase_1,,,,,,,,,,,,,blue,square
203.0,3.0,2.0,0.0,1.0,1.0,347.2296148538589,3.0,1.0,phase_1,,,,,,,,,,,,,cyan,cross
0.0,8.0,0.0,1.0,3.0,3.0,323.1217097491026,3.0,2.0,phase_1,,,,,,,,,,,,,gray,hexagon
41.0,1.0,0.5,0.0,2.0,2.0,375.5240775644779,3.0,1.0,phase_1,,,,,,,,,,,,,blue,square
417.0,4.0,4.0,0.0,4.0,4.0,413.8760324567556,3.0,1.0,phase_1,,,,,,,,,,,,,magenta,circle
38.0,5.0,0.5,1.0,4.0,4.0,343.26274134218687,3.0,1.0,phase_1,,,,,,,,,,,,,white,triangle
50.0,1.0,0.5,0.0,4.0,4.0,327.3399341851473,3.0,1.0,phase_1,,,,,,,,,,,,,blue,square
422.0,4.0,4.0,0.0,1.0,1.0,344.7436150163412,3.0,1.0,phase_1,,,,,,,,,,,,,magenta,circle
210.0,7.0,2.0,1.0,2.0,2.0,365.5970133841038,3.0,1.0,phase_1,,,,,,,,,,,,,green,diamond
377.0,8.0,4.0,1.0,4.0,4.0,348.8417398184538,3.0,1.0,phase_1,,,,,,,,,,,,,gray,hexagon
0.0,3.0,0.0,0.0,2.0,2.0,361.1305505037308,3.0,1.0,phase_1,,,,,,,,,,,,,cyan,cross
27.0,1.0,0.5,0.0,2.0,2.0,339.9836160242557,3.0,1.0,phase_1,,,,,,,,,,,,,blue,square
203.0,3.0,2.0,0.0,2.0,2.0,344.1938105970621,3.0,1.0,phase_1,,,,,,,,,,,,,cyan,cross
0.0,3.0,0.0,0.0,2.0,2.0,381.1921980232,3.0,1.0,phase_1,,,,,,,,,,,,,cyan,cross
114.0,2.0,1.0,0.0,3.0,3.0,339.5441174507141,3.0,1.0,phase_1,,,,,,,,,,,,,yellow,I
0.0,5.0,0.0,1.0,1.0,1.0,510.0369155406952,3.0,1.0,phase_1,,,,,,,,,,,,,white,triangle
396.0,4.0,4.0,0.0,2.0,2.0,371.5862352401018,3.0,1.0,phase_1,,,,,,,,,,,,,magenta,circle
0.0,4.0,0.0,0.0,4.0,4.0,344.3820066750049,3.0,1.0,phase_1,,,,,,,,,,,,,magenta,circle
97.0,2.0,1.0,0.0,3.0,3.0,301.7169162631035,3.0,1.0,phase_1,,,,,,,,,,,,,yellow,I
80.0,6.0,1.0,1.0,4.0,4.0,346.7903397977352,3.0,1.0,phase_1,,,,,,,,,,,,,orange,flipped triangle
397.0,8.0,4.0,1.0,4.0,4.0,342.3512410372495,3.0,1.0,phase_1,,,,,,,,,,,,,gray,hexagon
67.0,5.0,0.5,1.0,2.0,2.0,347.7844148874283,3.0,1.0,phase_1,,,,,,,,,,,,,white,triangle
0.0,8.0,0.0,1.0,2.0,2.0,318.939434364438,3.0,1.0,phase_1,,,,,,,,,,,,,gray,hexagon
116.0,2.0,1.0,0.0,3.0,3.0,339.745070785284,3.0,1.0,phase_1,,,,,,,,,,,,,yellow,I
44.0,1.0,0.5,0.0,2.0,2.0,504.61211055517197,3.0,1.0,phase_1,,,,,,,,,,,,,blue,square
111.0,2.0,1.0,0.0,4.0,4.0,372.677968814969,3.0,1.0,phase_1,,,,,,,,,,,,,yellow,I
0.0,6.0,0.0,1.0,4.0,4.0,371.464217081666,3.0,1.0,phase_1,,,,,,,,,,,,,orange,flipped triangle
0.0,2.0,0.0,0.0,3.0,3.0,335.2116011083126,3.0,1.0,phase_1,,,,,,,,,,,,,yellow,I
400.0,8.0,4.0,1.0,1.0,1.0,418.9314339309931,3.0,1.0,phase_1,,,,,,,,,,,,,gray,hexagon
413.0,8.0,4.0,1.0,2.0,2.0,359.6890978515148,3.0,1.0,phase_1,,,,,,,,,,,,,gray,hexagon
0.0,3.0,0.0,0.0,4.0,4.0,352.5368589907884,3.0,1.0,phase_1,,,,,,,,,,,,,cyan,cross
183.0,3.0,2.0,0.0,1.0,1.0,322.8009790182113,3.0,1.0,phase_1,,,,,,,,,,,,,cyan,cross
0.0,3.0,0.0,0.0,3.0,3.0,335.2645691484213,3.0,1.0,phase_1,,,,,,,,,,,,,cyan,cross
177.0,7.0,2.0,1.0,2.0,2.0,388.8185955584049,3.0,1.0,phase_1,,,,,,,,,,,,,green,diamond
0.0,4.0,0.0,0.0,4.0,4.0,327.230779454112,3.0,1.0,phase_1,,,,,,,,,,,,,magenta,circle
382.0,8.0,4.0,1.0,1.0,1.0,294.5767007768154,3.0,1.0,phase_1,,,,,,,,,,,,,gray,hexagon
61.0,5.0,0.5,1.0,3.0,3.0,372.5230973213911,3.0,1.0,phase_1,,,,,,,,,,,,,white,triangle
197.0,7.0,2.0,1.0,3.0,3.0,406.3552320003509,3.0,1.0,phase_1,,,,,,,,,,,,,green,diamond
175.0,3.0,2.0,0.0,4.0,4.0,356.7004557698965,3.0,1.0,phase_1,,,,,,,,,,,,,cyan,cross
401.0,8.0,4.0,1.0,1.0,1.0,311.4462271332741,3.0,1.0,phase_1,,,,,,,,,,,,,gray,hexagon
111.0,6.0,1.0,1.0,4.0,4.0,294.5518139749765,3.0,1.0,phase_1,,,,,,,,,,,,,orange,flipped triangle
0.0,1.0,0.0,0.0,1.0,1.0,327.7590535581112,3.0,1.0,phase_1,,,,,,,,,,,,,blue,square
100.0,2.0,1.0,0.0,1.0,1.0,348.6374896019697,3.0,1.0,phase_1,,,,,,,,,,,,,yellow,I
389.0,8.0,4.0,1.0,3.0,3.0,355.6813709437847,3.0,1.0,phase_1,,,,,,,,,,,,,gray,hexagon
72.0,1.0,0.5,0.0,1.0,1.0,295.8215810358524,3.0,1.0,phase_1,,,,,,,,,,,,,blue,square
0.0,2.0,0.0,0.0,3.0,3.0,322.3407063633203,3.0,1.0,phase_1,,,,,,,,,,,,,yellow,I
410.0,8.0,4.0,1.0,2.0,2.0,451.1069636791944,3.0,1.0,phase_1,,,,,,,,,,,,,gray,hexagon
383.0,8.0,4.0,1.0,1.0,1.0,308.5537645965814,3.0,1.0,phase_1,,,,,,,,,,,,,gray,hexagon
205.0,7.0,2.0,1.0,4.0,4.0,324.2607228457927,3.0,1.0,phase_1,,,,,,,,,,,,,green,diamond
119.0,2.0,1.0,0.0,2.0,2.0,311.355521902442,3.0,1.0,phase_1,,,,,,,,,,,,,yellow,I
409.0,4.0,4.0,0.0,4.0,4.0,340.2398079633713,3.0,1.0,phase_1,,,,,,,,,,,,,magenta,circle
223.0,7.0,2.0,1.0,3.0,3.0,318.5641691088676,3.0,1.0,phase_1,,,,,,,,,,,,,green,diamond
413.0,8.0,4.0,1.0,3.0,3.0,403.2724648714065,3.0,1.0,phase_1,,,,,,,,,,,,,gray,hexagon
75.0,5.0,0.5,1.0,3.0,3.0,347.5988488644361,3.0,1.0,phase_1,,,,,,,,,,,,,white,triangle
177.0,3.0,2.0,0.0,3.0,3.0,325.3540154546499,3.0,1.0,phase_1,,,,,,,,,,,,,cyan,cross
197.0,3.0,2.0,0.0,3.0,3.0,330.3215485066175,3.0,1.0,phase_1,,,,,,,,,,,,,cyan,cross
61.0,1.0,0.5,0.0,2.0,2.0,334.975104779005,3.0,1.0,phase_1,,,,,,,,,,,,,blue,square
53.0,1.0,0.5,0.0,2.0,2.0,322.7245360612869,3.0,1.0,phase_1,,,,,,,,,,,,,blue,square
195.0,7.0,2.0,1.0,2.0,2.0,322.5288428366184,3.0,1.0,phase_1,,,,,,,,,,,,,green,diamond
0.0,5.0,0.0,1.0,2.0,2.0,301.1887036263942,3.0,1.0,phase_1,,,,,,,,,,,,,white,triangle
220.0,3.0,2.0,0.0,4.0,4.0,346.6563988476991,3.0,1.0,phase_1,,,,,,,,,,,,,cyan,cross
89.0,6.0,1.0,1.0,4.0,4.0,336.9258902966976,3.0,1.0,phase_1,,,,,,,,,,,,,orange,flipped triangle
0.0,6.0,0.0,1.0,1.0,1.0,347.3105169832706,3.0,1.0,phase_1,,,,,,,,,,,,,orange,flipped triangle
73.0,5.0,0.5,1.0,3.0,3.0,319.8946788907051,3.0,1.0,phase_1,,,,,,,,,,,,,white,triangle
35.0,1.0,0.5,0.0,3.0,3.0,343.5615077614784,3.0,1.0,phase_1,,,,,,,,,,,,,blue,square
77.0,2.0,1.0,0.0,2.0,2.0,364.0870116651058,3.0,1.0,phase_1,,,,,,,,,,,,,yellow,I
68.0,5.0,0.5,1.0,2.0,2.0,352.1326147019863,3.0,1.0,phase_1,,,,,,,,,,,,,white,triangle
0.0,4.0,0.0,0.0,2.0,2.0,306.1441741883755,3.0,1.0,phase_1,,,,,,,,,,,,,magenta,circle
380.0,4.0,4.0,0.0,1.0,1.0,343.1092109531164,3.0,1.0,phase_1,,,,,,,,,,,,,magenta,circle
29.0,5.0,0.5,1.0,2.0,2.0,339.7912289947271,3.0,1.0,phase_1,,,,,,,,,,,,,white,triangle
205.0,3.0,2.0,0.0,4.0,4.0,284.17005203664297,3.0,1.0,phase_1,,,,,,,,,,,,,cyan,cross
107.0,2.0,1.0,0.0,3.0,3.0,352.51927934587,3.0,1.0,phase_1,,,,,,,,,,,,,yellow,I
400.0,8.0,4.0,1.0,4.0,4.0,372.1318375319242,3.0,1.0,phase_1,,,,,,,,,,,,,gray,hexagon
193.0,7.0,2.0,1.0,1.0,1.0,384.7394492477178,3.0,1.0,phase_1,,,,,,,,,,,,,green,diamond
203.0,7.0,2.0,1.0,1.0,1.0,338.7871850281954,3.0,1.0,phase_1,,,,,,,,,,,,,green,diamond
65.0,1.0,0.5,0.0,3.0,3.0,328.1734399497509,3.0,1.0,phase_1,,,,,,,,,,,,,blue,square
58.0,5.0,0.5,1.0,1.0,1.0,303.0333835631609,3.0,1.0,phase_1,,,,,,,,,,,,,white,triangle
0.0,5.0,0.0,1.0,2.0,2.0,364.4144311547279,3.0,1.0,phase_1,,,,,,,,,,,,,white,triangle
413.0,4.0,4.0,0.0,4.0,4.0,401.3633225113153,4.0,1.0,phase_1,,,,,,,,,,,,,magenta,circle
393.0,4.0,4.0,0.0,2.0,2.0,299.9739032238722,4.0,1.0,phase_1,,,,,,,,,,,,,magenta,circle
83.0,6.0,1.0,1.0,3.0,3.0,287.64408826828,4.0,1.0,phase_1,,,,,,,,,,,,,orange,flipped triangle
100.0,6.0,1.0,1.0,3.0,3.0,387.6323346048593,4.0,1.0,phase_1,,,,,,,,,,,,,orange,flipped triangle
375.0,4.0,4.0,0.0,2.0,2.0,258.5715316236019,4.0,1.0,phase_1,,,,,,,,,,,,,magenta,circle
63.0,1.0,0.5,0.0,3.0,3.0,269.6965094655752,4.0,1.0,phase_1,,,,,,,,,,,,,blue,square
210.0,3.0,2.0,0.0,1.0,1.0,259.3080122023821,4.0,1.0,phase_1,,,,,,,,,,,,,cyan,cross
195.0,3.0,2.0,0.0,1.0,1.0,296.1642183363437,4.0,1.0,phase_1,,,,,,,,,,,,,cyan,cross
206.0,7.0,2.0,1.0,3.0,3.0,302.8692994266748,4.0,1.0,phase_1,,,,,,,,,,,,,green,diamond
211.0,3.0,2.0,0.0,4.0,4.0,354.396728798747,4.0,1.0,phase_1,,,,,,,,,,,,,cyan,cross
220.0,3.0,2.0,0.0,2.0,2.0,261.6402599960565,4.0,1.0,phase_1,,,,,,,,,,,,,cyan,cross
114.0,2.0,1.0,0.0,3.0,3.0,292.9220888763666,4.0,1.0,phase_1,,,,,,,,,,,,,yellow,I
222.0,7.0,2.0,1.0,3.0,3.0,305.6673165410757,4.0,1.0,phase_1,,,,,,,,,,,,,green,diamond
56.0,5.0,0.5,1.0,4.0,4.0,310.2236725389957,4.0,1.0,phase_1,,,,,,,,,,,,,white,triangle
383.0,4.0,4.0,0.0,1.0,1.0,303.6195691674948,4.0,1.0,phase_1,,,,,,,,,,,,,magenta,circle
99.0,2.0,1.0,0.0,1.0,1.0,319.0015237778425,4.0,1.0,phase_1,,,,,,,,,,,,,yellow,I
119.0,6.0,1.0,1.0,2.0,2.0,282.3036853224039,4.0,1.0,phase_1,,,,,,,,,,,,,orange,flipped triangle
0.0,1.0,0.0,0.0,3.0,3.0,279.9660116434097,4.0,1.0,phase_1,,,,,,,,,,,,,blue,square
0.0,3.0,0.0,0.0,3.0,3.0,348.8266561180353,4.0,1.0,phase_1,,,,,,,,,,,,,cyan,cross
204.0,3.0,2.0,0.0,4.0,4.0,399.0833144634962,4.0,1.0,phase_1,,,,,,,,,,,,,cyan,cross
0.0,8.0,0.0,1.0,3.0,3.0,324.2694362998009,4.0,1.0,phase_1,,,,,,,,,,,,,gray,hexagon
120.0,6.0,1.0,1.0,3.0,3.0,291.4347946643829,4.0,1.0,phase_1,,,,,,,,,,,,,orange,flipped triangle
0.0,5.0,0.0,1.0,3.0,3.0,336.3620694726705,4.0,1.0,phase_1,,,,,,,,,,,,,white,triangle
53.0,5.0,0.5,1.0,4.0,4.0,412.2214671224355,4.0,1.0,phase_1,,,,,,,,,,,,,white,triangle
99.0,6.0,1.0,1.0,3.0,3.0,286.0862873494625,4.0,1.0,phase_1,,,,,,,,,,,,,orange,flipped triangle
397.0,4.0,4.0,0.0,4.0,4.0,311.3859035074711,4.0,2.0,phase_1,,,,,,,,,,,,,magenta,circle
202.0,7.0,2.0,1.0,1.0,1.0,295.2340710908174,4.0,1.0,phase_1,,,,,,,,,,,,,green,diamond
44.0,5.0,0.5,1.0,1.0,1.0,340.09448252618307,4.0,1.0,phase_1,,,,,,,,,,,,,white,triangle
95.0,2.0,1.0,0.0,2.0,2.0,295.4255398362875,4.0,1.0,phase_1,,,,,,,,,,,,,yellow,I
390.0,8.0,4.0,1.0,4.0,4.0,348.6955519765615,4.0,1.0,phase_1,,,,,,,,,,,,,gray,hexagon
87.0,6.0,1.0,1.0,4.0,4.0,337.9200156778097,4.0,1.0,phase_1,,,,,,,,,,,,,orange,flipped triangle
410.0,4.0,4.0,0.0,4.0,4.0,332.4682638049125,4.0,1.0,phase_1,,,,,,,,,,,,,magenta,circle
0.0,5.0,0.0,1.0,3.0,3.0,320.6805009394884,4.0,1.0,phase_1,,,,,,,,,,,,,white,triangle
400.0,4.0,4.0,0.0,3.0,3.0,341.0906586796045,4.0,1.0,phase_1,,,,,,,,,,,,,magenta,circle
0.0,2.0,0.0,0.0,4.0,4.0,365.0552444159984,4.0,1.0,phase_1,,,,,,,,,,,,,yellow,I
382.0,4.0,4.0,0.0,2.0,2.0,294.667188078165,4.0,1.0,phase_1,,,,,,,,,,,,,magenta,circle
56.0,1.0,0.5,0.0,2.0,2.0,446.4830551296472,4.0,1.0,phase_1,,,,,,,,,,,,,blue,square
421.0,8.0,4.0,1.0,4.0,4.0,323.6774113029241,4.0,1.0,phase_1,,,,,,,,,,,,,gray,hexagon
0.0,2.0,0.0,0.0,2.0,2.0,311.3165833055973,4.0,1.0,phase_1,,,,,,,,,,,,,yellow,I
0.0,8.0,0.0,1.0,1.0,1.0,284.7169283777475,4.0,1.0,phase_1,,,,,,,,,,,,,gray,hexagon
31.0,5.0,0.5,1.0,1.0,1.0,345.1087716966867,4.0,1.0,phase_1,,,,,,,,,,,,,white,triangle
190.0,7.0,2.0,1.0,4.0,4.0,347.7692268788814,4.0,1.0,phase_1,,,,,,,,,,,,,green,diamond
408.0,8.0,4.0,1.0,3.0,3.0,326.7683293670416,4.0,1.0,phase_1,,,,,,,,,,,,,gray,hexagon
67.0,1.0,0.5,0.0,3.0,3.0,364.0758004039526,4.0,1.0,phase_1,,,,,,,,,,,,,blue,square
220.0,7.0,2.0,1.0,1.0,1.0,315.3962176293134,4.0,1.0,phase_1,,,,,,,,,,,,,green,diamond
100.0,2.0,1.0,0.0,1.0,1.0,319.5340726524591,4.0,1.0,phase_1,,,,,,,,,,,,,yellow,I
177.0,3.0,2.0,0.0,1.0,1.0,282.3164295405149,4.0,1.0,phase_1,,,,,,,,,,,,,cyan,cross
409.0,8.0,4.0,1.0,3.0,3.0,310.3543072938919,4.0,1.0,phase_1,,,,,,,,,,,,,gray,hexagon
63.0,5.0,0.5,1.0,1.0,1.0,322.9143321514129,4.0,1.0,phase_1,,,,,,,,,,,,,white,triangle
48.0,5.0,0.5,1.0,1.0,1.0,311.5622345358133,4.0,1.0,phase_1,,,,,,,,,,,,,white,triangle
0.0,6.0,0.0,1.0,2.0,2.0,310.7904326170683,4.0,1.0,phase_1,,,,,,,,,,,,,orange,flipped triangle
65.0,5.0,0.5,1.0,4.0,4.0,291.0869717597961,4.0,1.0,phase_1,,,,,,,,,,,,,white,triangle
405.0,8.0,4.0,1.0,2.0,2.0,311.5648366510868,4.0,1.0,phase_1,,,,,,,,,,,,,gray,hexagon
383.0,8.0,4.0,1.0,3.0,3.0,437.2778087854385,4.0,1.0,phase_1,,,,,,,,,,,,,gray,hexagon
100.0,2.0,1.0,0.0,4.0,4.0,312.1094070374965,4.0,1.0,phase_1,,,,,,,,,,,,,yellow,I
116.0,6.0,1.0,1.0,2.0,2.0,307.8608307987451,4.0,1.0,phase_1,,,,,,,,,,,,,orange,flipped triangle
383.0,4.0,4.0,0.0,4.0,4.0,283.0103784799576,4.0,1.0,phase_1,,,,,,,,,,,,,magenta,circle
419.0,4.0,4.0,0.0,2.0,2.0,343.3139845728874,4.0,1.0,phase_1,,,,,,,,,,,,,magenta,circle
0.0,3.0,0.0,0.0,4.0,4.0,308.8612034916878,4.0,1.0,phase_1,,,,,,,,,,,,,cyan,cross
0.0,7.0,0.0,1.0,1.0,1.0,279.3065533041954,4.0,1.0,phase_1,,,,,,,,,,,,,green,diamond
0.0,4.0,0.0,0.0,3.0,3.0,287.1047388762235,4.0,1.0,phase_1,,,,,,,,,,,,,magenta,circle
54.0,1.0,0.5,0.0,3.0,3.0,336.3821487873792,4.0,1.0,phase_1,,,,,,,,,,,,,blue,square
425.0,4.0,4.0,0.0,4.0,4.0,372.6370949298143,4.0,1.0,phase_1,,,,,,,,,,,,,magenta,circle
72.0,5.0,0.5,1.0,2.0,2.0,297.0625534653663,4.0,2.0,phase_1,,,,,,,,,,,,,white,triangle
0.0,7.0,0.0,1.0,2.0,2.0,325.0215444713831,4.0,1.0,phase_1,,,,,,,,,,,,,green,diamond
90.0,6.0,1.0,1.0,1.0,1.0,311.2269788980484,4.0,1.0,phase_1,,,,,,,,,,,,,orange,flipped triangle
220.0,7.0,2.0,1.0,1.0,1.0,270.1798360794782,4.0,1.0,phase_1,,,,,,,,,,,,,green,diamond
28.0,5.0,0.5,1.0,3.0,3.0,384.6767283976078,4.0,1.0,phase_1,,,,,,,,,,,,,white,triangle
56.0,1.0,0.5,0.0,4.0,4.0,345.446515828371,4.0,1.0,phase_1,,,,,,,,,,,,,blue,square
417.0,8.0,4.0,1.0,1.0,1.0,283.1093333661556,4.0,1.0,phase_1,,,,,,,,,,,,,gray,hexagon
38.0,5.0,0.5,1.0,4.0,4.0,319.9191838502884,4.0,1.0,phase_1,,,,,,,,,,,,,white,triangle
97.0,6.0,1.0,1.0,2.0,2.0,356.5598223358392,4.0,1.0,phase_1,,,,,,,,,,,,,orange,flipped triangle
0.0,4.0,0.0,0.0,3.0,3.0,297.8713680058718,4.0,1.0,phase_1,,,,,,,,,,,,,magenta,circle
402.0,8.0,4.0,1.0,3.0,3.0,336.5993108600378,4.0,1.0,phase_1,,,,,,,,,,,,,gray,hexagon
100.0,6.0,1.0,1.0,4.0,4.0,308.1144224852323,4.0,1.0,phase_1,,,,,,,,,,,,,orange,flipped triangle
38.0,1.0,0.5,0.0,3.0,3.0,287.9853677004576,4.0,1.0,phase_1,,,,,,,,,,,,,blue,square
190.0,3.0,2.0,0.0,3.0,3.0,316.1245435476303,4.0,1.0,phase_1,,,,,,,,,,,,,cyan,cross
0.0,6.0,0.0,1.0,2.0,2.0,370.3752383589744,4.0,1.0,phase_1,,,,,,,,,,,,,orange,flipped triangle
33.0,1.0,0.5,0.0,1.0,1.0,295.5918367952108,4.0,1.0,phase_1,,,,,,,,,,,,,blue,square
96.0,2.0,1.0,0.0,1.0,1.0,353.081090375781,4.0,1.0,phase_1,,,,,,,,,,,,,yellow,I
0.0,1.0,0.0,0.0,1.0,1.0,320.069395005703,4.0,1.0,phase_1,,,,,,,,,,,,,blue,square
203.0,7.0,2.0,1.0,4.0,4.0,340.1325922459364,4.0,1.0,phase_1,,,,,,,,,,,,,green,diamond
54.0,5.0,0.5,1.0,2.0,2.0,358.7390482425689,4.0,1.0,phase_1,,,,,,,,,,,,,white,triangle
93.0,2.0,1.0,0.0,3.0,3.0,332.6189834624529,4.0,1.0,phase_1,,,,,,,,,,,,,yellow,I
404.0,4.0,4.0,0.0,2.0,2.0,307.7221885323524,4.0,1.0,phase_1,,,,,,,,,,,,,magenta,circle
105.0,6.0,1.0,1.0,3.0,3.0,327.1084316074848,4.0,1.0,phase_1,,,,,,,,,,,,,orange,flipped triangle
400.0,4.0,4.0,0.0,1.0,1.0,340.8055212348699,4.0,1.0,phase_1,,,,,,,,,,,,,magenta,circle
111.0,6.0,1.0,1.0,2.0,2.0,321.0038989782333,4.0,1.0,phase_1,,,,,,,,,,,,,orange,flipped triangle
407.0,8.0,4.0,1.0,4.0,4.0,315.8975597470999,4.0,2.0,phase_1,,,,,,,,,,,,,gray,hexagon
423.0,4.0,4.0,0.0,1.0,1.0,301.2438546866178,4.0,1.0,phase_1,,,,,,,,,,,,,magenta,circle
0.0,2.0,0.0,0.0,1.0,1.0,369.79790776968,4.0,1.0,phase_1,,,,,,,,,,,,,yellow,I
90.0,2.0,1.0,0.0,2.0,2.0,351.5550717711448,4.0,1.0,phase_1,,,,,,,,,,,,,yellow,I
35.0,1.0,0.5,0.0,1.0,1.0,364.2429951578378,4.0,1.0,phase_1,,,,,,,,,,,,,blue,square
0.0,5.0,0.0,1.0,1.0,1.0,391.2585191428661,4.0,1.0,phase_1,,,,,,,,,,,,,white,triangle
116.0,6.0,1.0,1.0,3.0,3.0,332.0891074836254,4.0,1.0,phase_1,,,,,,,,,,,,,orange,flipped triangle
205.0,7.0,2.0,1.0,1.0,1.0,400.5702920258045,4.0,1.0,phase_1,,,,,,,,,,,,,green,diamond
76.0,6.0,1.0,1.0,1.0,1.0,373.355133458972,4.0,1.0,phase_1,,,,,,,,,,,,,orange,flipped triangle
41.0,5.0,0.5,1.0,2.0,2.0,314.751086756587,4.0,1.0,phase_1,,,,,,,,,,,,,white,triangle
0.0,8.0,0.0,1.0,3.0,3.0,360.9648030251264,4.0,1.0,phase_1,,,,,,,,,,,,,gray,hexagon
0.0,7.0,0.0,1.0,1.0,1.0,339.5000081509352,4.0,1.0,phase_1,,,,,,,,,,,,,green,diamond
0.0,5.0,0.5,1.0,5.0,5.0,586.4909924566746,1.0,1.0,phase_2,stop,250.0,250.0,3.0,,,,,,,,,white,triangle
0.0,2.0,1.0,0.0,5.0,5.0,412.5444814562797,1.0,1.0,phase_2,go,200.0,250.0,1.0,,,,,,,,,yellow,I
0.0,7.0,2.0,1.0,6.0,6.0,388.2747367024421,1.0,1.0,phase_2,go,200.0,250.0,1.0,,,,,,,,,green,diamond
0.0,8.0,4.0,1.0,5.0,0.0,0.0,1.0,1.0,phase_2,stop,200.0,250.0,4.0,,,,,,,,,gray,hexagon
0.0,1.0,0.5,0.0,5.0,5.0,537.2650306671858,1.0,1.0,phase_2,go,250.0,250.0,1.0,,,,,,,,,blue,square
0.0,3.0,2.0,0.0,6.0,6.0,809.9389020353556,1.0,1.0,phase_2,go,250.0,250.0,1.0,,,,,,,,,cyan,cross
0.0,5.0,0.5,1.0,6.0,0.0,0.0,1.0,1.0,phase_2,stop,250.0,250.0,4.0,,,,,,,,,white,triangle
0.0,5.0,0.5,1.0,5.0,0.0,0.0,1.0,1.0,phase_2,stop,250.0,300.0,4.0,,,,,,,,,white,triangle
0.0,1.0,0.5,0.0,6.0,6.0,478.758567944169,1.0,1.0,phase_2,go,300.0,300.0,1.0,,,,,,,,,blue,square
0.0,8.0,4.0,1.0,6.0,0.0,0.0,1.0,1.0,phase_2,stop,300.0,300.0,4.0,,,,,,,,,gray,hexagon
0.0,3.0,2.0,0.0,5.0,5.0,663.5694224387407,1.0,1.0,phase_2,go,300.0,350.0,1.0,,,,,,,,,cyan,cross
0.0,6.0,1.0,1.0,6.0,0.0,0.0,1.0,1.0,phase_2,stop,300.0,350.0,4.0,,,,,,,,,orange,flipped triangle
0.0,2.0,1.0,0.0,6.0,6.0,723.8909918814898,1.0,1.0,phase_2,go,300.0,400.0,1.0,,,,,,,,,yellow,I
0.0,1.0,0.5,0.0,6.0,6.0,523.2818089425564,1.0,1.0,phase_2,go,300.0,400.0,1.0,,,,,,,,,blue,square
0.0,8.0,4.0,1.0,5.0,5.0,597.2760729491711,1.0,1.0,phase_2,go,300.0,400.0,1.0,,,,,,,,,gray,hexagon
0.0,6.0,1.0,1.0,5.0,0.0,0.0,1.0,1.0,phase_2,stop,300.0,400.0,4.0,,,,,,,,,orange,flipped triangle
0.0,5.0,0.5,1.0,5.0,5.0,482.7927723526954,1.0,1.0,phase_2,stop,350.0,400.0,3.0,,,,,,,,,white,triangle
0.0,7.0,2.0,1.0,5.0,0.0,0.0,1.0,1.0,phase_2,stop,300.0,400.0,4.0,,,,,,,,,green,diamond
0.0,4.0,4.0,0.0,5.0,5.0,816.6442736983299,1.0,1.0,phase_2,go,350.0,400.0,1.0,,,,,,,,,magenta,circle
0.0,3.0,2.0,0.0,5.0,5.0,888.5208256542683,1.0,1.0,phase_2,go,350.0,400.0,1.0,,,,,,,,,cyan,cross
0.0,3.0,2.0,0.0,5.0,5.0,963.1114080548286,1.0,1.0,phase_2,go,350.0,400.0,1.0,,,,,,,,,cyan,cross
0.0,1.0,0.5,0.0,5.0,5.0,743.7905017286539,1.0,1.0,phase_2,go,350.0,400.0,1.0,,,,,,,,,blue,square
0.0,7.0,2.0,1.0,6.0,0.0,0.0,1.0,1.0,phase_2,stop,350.0,400.0,4.0,,,,,,,,,green,diamond
0.0,3.0,2.0,0.0,6.0,6.0,902.3509714752436,1.0,1.0,phase_2,go,350.0,450.0,1.0,,,,,,,,,cyan,cross
0.0,6.0,1.0,1.0,5.0,0.0,0.0,1.0,1.0,phase_2,stop,350.0,450.0,4.0,,,,,,,,,orange,flipped triangle
0.0,1.0,0.5,0.0,6.0,6.0,719.3594072014093,1.0,1.0,phase_2,go,400.0,450.0,1.0,,,,,,,,,blue,square
0.0,2.0,1.0,0.0,5.0,5.0,687.119334936142,1.0,1.0,phase_2,go,400.0,450.0,1.0,,,,,,,,,yellow,I
0.0,3.0,2.0,0.0,6.0,6.0,523.448258638382,1.0,1.0,phase_2,go,400.0,450.0,1.0,,,,,,,,,cyan,cross
0.0,8.0,4.0,1.0,6.0,6.0,693.2112518697977,1.0,1.0,phase_2,go,400.0,450.0,1.0,,,,,,,,,gray,hexagon
0.0,7.0,2.0,1.0,6.0,6.0,565.4346030205488,1.0,1.0,phase_2,stop,400.0,450.0,3.0,,,,,,,,,green,diamond
0.0,8.0,4.0,1.0,5.0,5.0,626.7596371471882,1.0,1.0,phase_2,go,400.0,400.0,1.0,,,,,,,,,gray,hexagon
0.0,7.0,2.0,1.0,5.0,0.0,0.0,1.0,1.0,phase_2,stop,400.0,400.0,4.0,,,,,,,,,green,diamond
0.0,4.0,4.0,0.0,5.0,5.0,752.7477070689201,1.0,1.0,phase_2,go,450.0,400.0,1.0,,,,,,,,,magenta,circle
0.0,8.0,4.0,1.0,5.0,0.0,0.0,1.0,1.0,phase_2,stop,450.0,400.0,4.0,,,,,,,,,gray,hexagon
0.0,3.0,2.0,0.0,5.0,5.0,816.2796422839165,1.0,1.0,phase_2,go,500.0,400.0,1.0,,,,,,,,,cyan,cross
0.0,8.0,4.0,1.0,6.0,6.0,1032.789532095194,1.0,1.0,phase_2,go,500.0,400.0,1.0,,,,,,,,,gray,hexagon
0.0,4.0,4.0,0.0,5.0,0.0,0.0,2.0,1.0,phase_2,go,500.0,400.0,5.0,,,,,,,,,magenta,circle
0.0,8.0,4.0,1.0,6.0,6.0,1449.9919153749945,2.0,1.0,phase_2,stop,500.0,400.0,3.0,,,,,,,,,gray,hexagon
0.0,3.0,2.0,0.0,5.0,5.0,529.4935908168554,2.0,1.0,phase_2,go,500.0,350.0,1.0,,,,,,,,,cyan,cross
0.0,7.0,2.0,1.0,6.0,6.0,312.8387201577425,2.0,1.0,phase_2,stop,500.0,350.0,3.0,,,,,,,,,green,diamond
0.0,2.0,1.0,0.0,5.0,5.0,769.7011642158031,2.0,1.0,phase_2,go,500.0,300.0,1.0,,,,,,,,,yellow,I
0.0,1.0,0.5,0.0,6.0,6.0,543.2177446782589,2.0,1.0,phase_2,go,500.0,300.0,1.0,,,,,,,,,blue,square
0.0,5.0,0.5,1.0,5.0,5.0,464.0203360468149,2.0,1.0,phase_2,go,500.0,300.0,1.0,,,,,,,,,white,triangle
0.0,1.0,0.5,0.0,5.0,5.0,646.0730563849211,2.0,1.0,phase_2,go,500.0,300.0,1.0,,,,,,,,,blue,square
0.0,7.0,2.0,1.0,5.0,0.0,0.0,2.0,1.0,phase_2,stop,500.0,300.0,4.0,,,,,,,,,green,diamond
0.0,6.0,1.0,1.0,6.0,6.0,686.8391130119562,2.0,1.0,phase_2,go,550.0,300.0,1.0,,,,,,,,,orange,flipped triangle
0.0,6.0,1.0,1.0,6.0,0.0,0.0,2.0,1.0,phase_2,stop,550.0,300.0,4.0,,,,,,,,,orange,flipped triangle
0.0,7.0,2.0,1.0,5.0,0.0,0.0,2.0,1.0,phase_2,stop,550.0,350.0,4.0,,,,,,,,,green,diamond
0.0,7.0,2.0,1.0,6.0,0.0,0.0,2.0,1.0,phase_2,stop,600.0,350.0,4.0,,,,,,,,,green,diamond
0.0,4.0,4.0,0.0,5.0,5.0,700.8610107004642,2.0,1.0,phase_2,go,600.0,400.0,1.0,,,,,,,,,magenta,circle
0.0,3.0,2.0,0.0,6.0,6.0,764.8222465068102,2.0,1.0,phase_2,go,600.0,400.0,1.0,,,,,,,,,cyan,cross
0.0,5.0,0.5,1.0,6.0,0.0,0.0,2.0,1.0,phase_2,stop,600.0,400.0,4.0,,,,,,,,,white,triangle
0.0,1.0,0.5,0.0,6.0,6.0,746.8398325145245,2.0,1.0,phase_2,go,600.0,450.0,1.0,,,,,,,,,blue,square
0.0,6.0,1.0,1.0,6.0,6.0,851.8305122852325,2.0,1.0,phase_2,go,600.0,450.0,1.0,,,,,,,,,orange,flipped triangle
0.0,2.0,1.0,0.0,6.0,6.0,554.4314924627542,2.0,1.0,phase_2,go,600.0,450.0,1.0,,,,,,,,,yellow,I
0.0,4.0,4.0,0.0,5.0,5.0,671.4902520179749,2.0,1.0,phase_2,go,600.0,450.0,1.0,,,,,,,,,magenta,circle
0.0,4.0,4.0,0.0,5.0,5.0,663.980407640338,2.0,1.0,phase_2,go,600.0,450.0,1.0,,,,,,,,,magenta,circle
0.0,1.0,0.5,0.0,6.0,6.0,742.5533030182123,2.0,1.0,phase_2,go,600.0,450.0,1.0,,,,,,,,,blue,square
0.0,8.0,4.0,1.0,6.0,0.0,0.0,2.0,1.0,phase_2,stop,600.0,450.0,4.0,,,,,,,,,gray,hexagon
0.0,5.0,0.5,1.0,6.0,0.0,0.0,2.0,1.0,phase_2,stop,600.0,500.0,4.0,,,,,,,,,white,triangle
0.0,5.0,0.5,1.0,6.0,0.0,0.0,2.0,1.0,phase_2,stop,600.0,550.0,4.0,,,,,,,,,white,triangle
0.0,3.0,2.0,0.0,5.0,5.0,759.1682802885771,2.0,1.0,phase_2,go,600.0,600.0,1.0,,,,,,,,,cyan,cross
0.0,8.0,4.0,1.0,6.0,6.0,862.7014048397541,2.0,1.0,phase_2,go,600.0,600.0,1.0,,,,,,,,,gray,hexagon
0.0,8.0,4.0,1.0,6.0,0.0,0.0,2.0,1.0,phase_2,stop,600.0,600.0,4.0,,,,,,,,,gray,hexagon
0.0,8.0,4.0,1.0,5.0,0.0,0.0,2.0,1.0,phase_2,stop,600.0,650.0,4.0,,,,,,,,,gray,hexagon
0.0,1.0,0.5,0.0,5.0,5.0,1073.6010484397411,2.0,1.0,phase_2,go,650.0,650.0,1.0,,,,,,,,,blue,square
0.0,7.0,2.0,1.0,5.0,5.0,761.8303578346968,2.0,1.0,phase_2,stop,650.0,650.0,3.0,,,,,,,,,green,diamond
0.0,4.0,4.0,0.0,6.0,6.0,904.7171603888272,2.0,1.0,phase_2,go,600.0,650.0,1.0,,,,,,,,,magenta,circle
0.0,6.0,1.0,1.0,6.0,6.0,952.9723450541496,2.0,1.0,phase_2,go,600.0,650.0,1.0,,,,,,,,,orange,flipped triangle
0.0,6.0,1.0,1.0,5.0,0.0,0.0,2.0,1.0,phase_2,stop,600.0,650.0,4.0,,,,,,,,,orange,flipped triangle
0.0,5.0,0.5,1.0,5.0,0.0,0.0,2.0,1.0,phase_2,stop,650.0,650.0,4.0,,,,,,,,,white,triangle
0.0,2.0,1.0,0.0,6.0,6.0,1104.2066272348166,2.0,1.0,phase_2,go,700.0,650.0,1.0,,,,,,,,,yellow,I
0.0,7.0,2.0,1.0,5.0,5.0,1114.9980798363686,3.0,1.0,phase_2,go,700.0,650.0,1.0,,,,,,,,,green,diamond
0.0,6.0,1.0,1.0,6.0,6.0,739.0770819038153,3.0,1.0,phase_2,go,700.0,650.0,1.0,,,,,,,,,orange,flipped triangle
0.0,1.0,0.5,0.0,5.0,5.0,664.2476357519627,3.0,1.0,phase_2,go,700.0,650.0,1.0,,,,,,,,,blue,square
0.0,4.0,4.0,0.0,6.0,6.0,561.3898206502199,3.0,1.0,phase_2,go,700.0,650.0,1.0,,,,,,,,,magenta,circle
0.0,4.0,4.0,0.0,5.0,5.0,549.1738896816969,3.0,1.0,phase_2,go,700.0,650.0,1.0,,,,,,,,,magenta,circle
0.0,2.0,1.0,0.0,5.0,5.0,582.0591878145933,3.0,1.0,phase_2,go,700.0,650.0,1.0,,,,,,,,,yellow,I
0.0,1.0,0.5,0.0,6.0,6.0,349.3001107126474,3.0,1.0,phase_2,go,700.0,650.0,1.0,,,,,,,,,blue,square
0.0,1.0,0.5,0.0,5.0,5.0,406.5959621220827,3.0,1.0,phase_2,go,700.0,650.0,1.0,,,,,,,,,blue,square
0.0,8.0,4.0,1.0,5.0,5.0,386.7706228047609,3.0,1.0,phase_2,stop,700.0,650.0,3.0,,,,,,,,,gray,hexagon
0.0,6.0,1.0,1.0,6.0,6.0,658.5862804204226,3.0,1.0,phase_2,go,650.0,650.0,1.0,,,,,,,,,orange,flipped triangle
0.0,1.0,0.5,0.0,6.0,6.0,588.8345092535019,3.0,1.0,phase_2,go,650.0,650.0,1.0,,,,,,,,,blue,square
0.0,3.0,2.0,0.0,5.0,5.0,949.4046326726676,3.0,1.0,phase_2,go,650.0,650.0,1.0,,,,,,,,,cyan,cross
0.0,8.0,4.0,1.0,6.0,6.0,736.8354052305222,3.0,1.0,phase_2,stop,650.0,650.0,3.0,,,,,,,,,gray,hexagon
0.0,3.0,2.0,0.0,5.0,5.0,707.4255011975765,3.0,1.0,phase_2,go,650.0,600.0,1.0,,,,,,,,,cyan,cross
0.0,4.0,4.0,0.0,6.0,6.0,1088.5608680546284,3.0,1.0,phase_2,go,650.0,600.0,1.0,,,,,,,,,magenta,circle
0.0,6.0,1.0,1.0,5.0,5.0,751.1716205626726,3.0,1.0,phase_2,go,650.0,600.0,1.0,,,,,,,,,orange,flipped triangle
0.0,5.0,0.5,1.0,5.0,5.0,598.4562840312719,3.0,1.0,phase_2,go,650.0,600.0,1.0,,,,,,,,,white,triangle
0.0,1.0,0.5,0.0,5.0,5.0,770.2889014035463,3.0,1.0,phase_2,go,650.0,600.0,1.0,,,,,,,,,blue,square
0.0,8.0,4.0,1.0,5.0,0.0,0.0,3.0,1.0,phase_2,stop,650.0,600.0,4.0,,,,,,,,,gray,hexagon
0.0,4.0,4.0,0.0,6.0,6.0,727.078827098012,3.0,1.0,phase_2,go,700.0,600.0,1.0,,,,,,,,,magenta,circle
0.0,4.0,4.0,0.0,6.0,6.0,934.8794128745794,3.0,1.0,phase_2,go,700.0,600.0,1.0,,,,,,,,,magenta,circle
0.0,2.0,1.0,0.0,5.0,5.0,806.9003559648991,3.0,1.0,phase_2,go,700.0,600.0,1.0,,,,,,,,,yellow,I
0.0,2.0,1.0,0.0,6.0,6.0,671.4472211897373,3.0,1.0,phase_2,go,700.0,600.0,1.0,,,,,,,,,yellow,I
0.0,3.0,2.0,0.0,5.0,5.0,803.0488397926092,3.0,1.0,phase_2,go,700.0,600.0,1.0,,,,,,,,,cyan,cross
0.0,8.0,4.0,1.0,6.0,6.0,340.5255451798439,3.0,1.0,phase_2,stop,700.0,600.0,3.0,,,,,,,,,gray,hexagon
0.0,7.0,2.0,1.0,5.0,0.0,0.0,3.0,1.0,phase_2,stop,700.0,550.0,4.0,,,,,,,,,green,diamond
0.0,3.0,2.0,0.0,6.0,6.0,989.1118630766867,3.0,1.0,phase_2,go,750.0,550.0,1.0,,,,,,,,,cyan,cross
0.0,7.0,2.0,1.0,6.0,0.0,0.0,3.0,1.0,phase_2,stop,750.0,550.0,4.0,,,,,,,,,green,diamond
0.0,8.0,4.0,1.0,6.0,6.0,1140.0227788835764,3.0,1.0,phase_2,go,750.0,600.0,1.0,,,,,,,,,gray,hexagon
0.0,5.0,0.5,1.0,6.0,0.0,0.0,3.0,1.0,phase_2,stop,750.0,600.0,4.0,,,,,,,,,white,triangle
0.0,6.0,1.0,1.0,5.0,5.0,863.0768321454525,3.0,1.0,phase_2,stop,750.0,650.0,3.0,,,,,,,,,orange,flipped triangle
0.0,8.0,4.0,1.0,6.0,0.0,0.0,3.0,1.0,phase_2,stop,700.0,650.0,4.0,,,,,,,,,gray,hexagon
0.0,3.0,2.0,0.0,6.0,6.0,993.1325744837524,3.0,1.0,phase_2,go,700.0,700.0,1.0,,,,,,,,,cyan,cross
0.0,6.0,1.0,1.0,5.0,0.0,0.0,3.0,1.0,phase_2,stop,700.0,700.0,4.0,,,,,,,,,orange,flipped triangle
0.0,5.0,0.5,1.0,6.0,0.0,0.0,3.0,1.0,phase_2,stop,750.0,700.0,4.0,,,,,,,,,white,triangle
0.0,7.0,2.0,1.0,6.0,6.0,1014.5196598023176,3.0,1.0,phase_2,go,750.0,750.0,1.0,,,,,,,,,green,diamond
0.0,3.0,2.0,0.0,5.0,5.0,754.1487142443657,4.0,1.0,phase_2,go,750.0,750.0,1.0,,,,,,,,,cyan,cross
0.0,7.0,2.0,1.0,5.0,5.0,777.4054482579231,4.0,1.0,phase_2,stop,750.0,750.0,3.0,,,,,,,,,green,diamond
0.0,8.0,4.0,1.0,5.0,0.0,0.0,4.0,1.0,phase_2,stop,700.0,750.0,4.0,,,,,,,,,gray,hexagon
0.0,7.0,2.0,1.0,5.0,5.0,808.2542438060045,4.0,1.0,phase_2,stop,750.0,750.0,3.0,,,,,,,,,green,diamond
0.0,2.0,1.0,0.0,5.0,5.0,1394.1104840487242,4.0,1.0,phase_2,go,700.0,750.0,1.0,,,,,,,,,yellow,I
0.0,6.0,1.0,1.0,5.0,0.0,0.0,4.0,1.0,phase_2,stop,700.0,750.0,4.0,,,,,,,,,orange,flipped triangle
0.0,5.0,0.5,1.0,5.0,5.0,808.5696287453175,4.0,1.0,phase_2,go,750.0,750.0,1.0,,,,,,,,,white,triangle
0.0,1.0,0.5,0.0,6.0,6.0,773.6991494894028,4.0,1.0,phase_2,go,750.0,750.0,1.0,,,,,,,,,blue,square
0.0,2.0,1.0,0.0,5.0,5.0,695.8428546786308,4.0,1.0,phase_2,go,750.0,750.0,1.0,,,,,,,,,yellow,I
0.0,7.0,2.0,1.0,5.0,5.0,589.4824266433716,4.0,1.0,phase_2,stop,750.0,750.0,3.0,,,,,,,,,green,diamond
0.0,4.0,4.0,0.0,5.0,5.0,664.2930321395397,4.0,1.0,phase_2,go,700.0,750.0,1.0,,,,,,,,,magenta,circle
0.0,6.0,1.0,1.0,6.0,0.0,0.0,4.0,1.0,phase_2,stop,700.0,750.0,4.0,,,,,,,,,orange,flipped triangle
0.0,8.0,4.0,1.0,5.0,5.0,835.45196428895,4.0,1.0,phase_2,stop,700.0,800.0,3.0,,,,,,,,,gray,hexagon
0.0,2.0,1.0,0.0,6.0,6.0,1210.7261642813685,4.0,1.0,phase_2,go,650.0,800.0,1.0,,,,,,,,,yellow,I
0.0,1.0,0.5,0.0,5.0,5.0,844.2085776478052,4.0,1.0,phase_2,go,650.0,800.0,1.0,,,,,,,,,blue,square
0.0,5.0,0.5,1.0,5.0,5.0,1361.99139803648,4.0,1.0,phase_2,go,650.0,800.0,1.0,,,,,,,,,white,triangle
0.0,6.0,1.0,1.0,6.0,0.0,0.0,4.0,1.0,phase_2,stop,650.0,800.0,4.0,,,,,,,,,orange,flipped triangle
0.0,3.0,2.0,0.0,5.0,5.0,891.4072476327419,4.0,1.0,phase_2,go,650.0,850.0,1.0,,,,,,,,,cyan,cross
0.0,6.0,1.0,1.0,6.0,6.0,906.9755710661412,4.0,1.0,phase_2,stop,650.0,850.0,3.0,,,,,,,,,orange,flipped triangle
0.0,8.0,4.0,1.0,6.0,0.0,0.0,4.0,1.0,phase_2,stop,650.0,800.0,4.0,,,,,,,,,gray,hexagon
0.0,2.0,1.0,0.0,5.0,5.0,887.5149544328451,4.0,1.0,phase_2,go,650.0,850.0,1.0,,,,,,,,,yellow,I
0.0,5.0,0.5,1.0,6.0,0.0,0.0,4.0,1.0,phase_2,stop,650.0,850.0,4.0,,,,,,,,,white,triangle
0.0,3.0,2.0,0.0,5.0,5.0,1045.4912520945072,4.0,1.0,phase_2,go,650.0,900.0,1.0,,,,,,,,,cyan,cross
0.0,6.0,1.0,1.0,6.0,0.0,0.0,4.0,1.0,phase_2,stop,650.0,900.0,4.0,,,,,,,,,orange,flipped triangle
0.0,5.0,0.5,1.0,5.0,5.0,927.2660613059998,4.0,1.0,phase_2,go,650.0,950.0,1.0,,,,,,,,,white,triangle
0.0,1.0,0.5,0.0,6.0,6.0,884.692108258605,4.0,1.0,phase_2,go,650.0,950.0,1.0,,,,,,,,,blue,square
0.0,2.0,1.0,0.0,6.0,6.0,942.4345884472132,4.0,1.0,phase_2,go,650.0,950.0,1.0,,,,,,,,,yellow,I
0.0,6.0,1.0,1.0,5.0,5.0,930.758262053132,4.0,1.0,phase_2,go,650.0,950.0,1.0,,,,,,,,,orange,flipped triangle
0.0,7.0,2.0,1.0,6.0,6.0,923.3106710016727,4.0,1.0,phase_2,stop,650.0,950.0,3.0,,,,,,,,,green,diamond
0.0,7.0,2.0,1.0,6.0,6.0,707.6705228537321,4.0,1.0,phase_2,stop,650.0,900.0,3.0,,,,,,,,,green,diamond
0.0,3.0,2.0,0.0,6.0,6.0,1468.1329000741243,4.0,1.0,phase_2,go,650.0,850.0,1.0,,,,,,,,,cyan,cross
0.0,7.0,2.0,1.0,6.0,6.0,906.50718472898,4.0,1.0,phase_2,go,650.0,850.0,1.0,,,,,,,,,green,diamond
0.0,1.0,0.5,0.0,5.0,5.0,816.7205341160297,4.0,1.0,phase_2,go,650.0,850.0,1.0,,,,,,,,,blue,square
0.0,6.0,1.0,1.0,6.0,6.0,848.2212871313095,4.0,1.0,phase_2,stop,650.0,850.0,3.0,,,,,,,,,orange,flipped triangle
0.0,8.0,4.0,1.0,5.0,5.0,1104.002874344587,4.0,1.0,phase_2,go,650.0,800.0,1.0,,,,,,,,,gray,hexagon
0.0,7.0,2.0,1.0,5.0,5.0,594.6104377508163,4.0,1.0,phase_2,stop,650.0,800.0,3.0,,,,,,,,,green,diamond
0.0,3.0,2.0,0.0,6.0,6.0,609.008276835084,5.0,1.0,phase_2,go,600.0,800.0,1.0,,,,,,,,,cyan,cross
0.0,8.0,4.0,1.0,5.0,5.0,586.7454297840595,5.0,1.0,phase_2,stop,600.0,800.0,3.0,,,,,,,,,gray,hexagon
0.0,5.0,0.5,1.0,6.0,6.0,534.8939169198275,5.0,1.0,phase_2,go,550.0,800.0,1.0,,,,,,,,,white,triangle
0.0,4.0,4.0,0.0,5.0,5.0,975.2289243042468,5.0,1.0,phase_2,go,550.0,800.0,1.0,,,,,,,,,magenta,circle
0.0,6.0,1.0,1.0,5.0,0.0,0.0,5.0,1.0,phase_2,stop,550.0,800.0,4.0,,,,,,,,,orange,flipped triangle
0.0,7.0,2.0,1.0,6.0,0.0,0.0,5.0,1.0,phase_2,go,600.0,800.0,5.0,,,,,,,,,green,diamond
0.0,1.0,0.5,0.0,6.0,6.0,607.8347228467464,5.0,1.0,phase_2,go,600.0,800.0,1.0,,,,,,,,,blue,square
0.0,3.0,2.0,0.0,6.0,6.0,782.3156490921974,5.0,1.0,phase_2,go,600.0,800.0,1.0,,,,,,,,,cyan,cross
0.0,1.0,0.5,0.0,5.0,5.0,580.187389627099,5.0,1.0,phase_2,go,600.0,800.0,1.0,,,,,,,,,blue,square
0.0,6.0,1.0,1.0,5.0,5.0,525.0898469239473,5.0,1.0,phase_2,stop,600.0,800.0,3.0,,,,,,,,,orange,flipped triangle
0.0,2.0,1.0,0.0,6.0,6.0,755.826648324728,5.0,1.0,phase_2,go,550.0,800.0,1.0,,,,,,,,,yellow,I
0.0,4.0,4.0,0.0,6.0,6.0,779.4264107942581,5.0,1.0,phase_2,go,550.0,800.0,1.0,,,,,,,,,magenta,circle
0.0,4.0,4.0,0.0,5.0,5.0,779.2844604700804,5.0,1.0,phase_2,go,550.0,800.0,1.0,,,,,,,,,magenta,circle
0.0,7.0,2.0,1.0,6.0,6.0,604.080943390727,5.0,1.0,phase_2,stop,550.0,800.0,3.0,,,,,,,,,green,diamond
0.0,8.0,4.0,1.0,6.0,6.0,922.8770192712544,5.0,1.0,phase_2,go,550.0,750.0,1.0,,,,,,,,,gray,hexagon
0.0,2.0,1.0,0.0,5.0,5.0,1078.9289623498917,5.0,1.0,phase_2,go,550.0,750.0,1.0,,,,,,,,,yellow,I
0.0,3.0,2.0,0.0,6.0,6.0,689.164912328124,5.0,1.0,phase_2,go,550.0,750.0,1.0,,,,,,,,,cyan,cross
0.0,7.0,2.0,1.0,5.0,5.0,407.7262803912163,5.0,1.0,phase_2,go,550.0,750.0,1.0,,,,,,,,,green,diamond
0.0,5.0,0.5,1.0,5.0,5.0,391.8950669467449,5.0,1.0,phase_2,stop,550.0,750.0,3.0,,,,,,,,,white,triangle
0.0,1.0,0.5,0.0,6.0,6.0,461.3671731203794,5.0,1.0,phase_2,go,500.0,750.0,1.0,,,,,,,,,blue,square
0.0,4.0,4.0,0.0,6.0,6.0,508.9033283293247,5.0,1.0,phase_2,go,500.0,750.0,1.0,,,,,,,,,magenta,circle
0.0,2.0,1.0,0.0,6.0,6.0,807.4940238147974,5.0,1.0,phase_2,go,500.0,750.0,1.0,,,,,,,,,yellow,I
0.0,3.0,2.0,0.0,6.0,6.0,787.2546687722206,5.0,1.0,phase_2,go,500.0,750.0,1.0,,,,,,,,,cyan,cross
0.0,5.0,0.5,1.0,5.0,0.0,0.0,5.0,1.0,phase_2,stop,500.0,750.0,4.0,,,,,,,,,white,triangle
0.0,6.0,1.0,1.0,6.0,6.0,873.9735949784517,5.0,1.0,phase_2,stop,550.0,750.0,3.0,,,,,,,,,orange,flipped triangle
0.0,5.0,0.5,1.0,5.0,0.0,0.0,5.0,1.0,phase_2,stop,550.0,700.0,4.0,,,,,,,,,white,triangle
0.0,3.0,2.0,0.0,6.0,6.0,1156.2082562595606,5.0,1.0,phase_2,go,600.0,700.0,1.0,,,,,,,,,cyan,cross
0.0,1.0,0.5,0.0,5.0,5.0,728.743240237236,5.0,1.0,phase_2,go,600.0,700.0,1.0,,,,,,,,,blue,square
0.0,5.0,0.5,1.0,5.0,0.0,0.0,5.0,1.0,phase_2,stop,600.0,700.0,4.0,,,,,,,,,white,triangle
0.0,2.0,1.0,0.0,6.0,6.0,962.1972516179084,5.0,1.0,phase_2,go,650.0,700.0,1.0,,,,,,,,,yellow,I
0.0,1.0,0.5,0.0,6.0,6.0,734.66139100492,5.0,1.0,phase_2,go,650.0,700.0,1.0,,,,,,,,,blue,square
0.0,7.0,2.0,1.0,6.0,6.0,638.9390230178833,5.0,1.0,phase_2,stop,650.0,700.0,3.0,,,,,,,,,green,diamond
0.0,8.0,4.0,1.0,6.0,6.0,1173.4294146299362,5.0,1.0,phase_2,go,650.0,650.0,1.0,,,,,,,,,gray,hexagon
0.0,8.0,4.0,1.0,5.0,0.0,0.0,5.0,1.0,phase_2,stop,650.0,650.0,4.0,,,,,,,,,gray,hexagon
0.0,1.0,0.5,0.0,5.0,5.0,911.61585226655,5.0,1.0,phase_2,go,700.0,650.0,1.0,,,,,,,,,blue,square
0.0,4.0,4.0,0.0,5.0,5.0,847.2035992890596,5.0,1.0,phase_2,go,700.0,650.0,1.0,,,,,,,,,magenta,circle
0.0,3.0,2.0,0.0,5.0,5.0,595.8768837153912,6.0,1.0,phase_2,go,700.0,650.0,1.0,,,,,,,,,cyan,cross
0.0,4.0,4.0,0.0,6.0,6.0,684.4052337110043,6.0,1.0,phase_2,go,700.0,650.0,1.0,,,,,,,,,magenta,circle
0.0,2.0,1.0,0.0,5.0,5.0,548.5554561018944,6.0,1.0,phase_2,go,700.0,650.0,1.0,,,,,,,,,yellow,I
0.0,4.0,4.0,0.0,6.0,6.0,386.7891505360603,6.0,1.0,phase_2,go,700.0,650.0,1.0,,,,,,,,,magenta,circle
0.0,2.0,1.0,0.0,6.0,6.0,473.9248361438513,6.0,1.0,phase_2,go,700.0,650.0,1.0,,,,,,,,,yellow,I
0.0,8.0,4.0,1.0,6.0,6.0,528.805511072278,6.0,1.0,phase_2,stop,700.0,650.0,3.0,,,,,,,,,gray,hexagon
0.0,5.0,0.5,1.0,6.0,0.0,0.0,6.0,1.0,phase_2,stop,700.0,600.0,4.0,,,,,,,,,white,triangle
0.0,1.0,0.5,0.0,5.0,5.0,858.3625927567482,6.0,1.0,phase_2,go,700.0,650.0,1.0,,,,,,,,,blue,square
0.0,2.0,1.0,0.0,5.0,5.0,1059.2338051646948,6.0,1.0,phase_2,go,700.0,650.0,1.0,,,,,,,,,yellow,I
0.0,3.0,2.0,0.0,5.0,5.0,815.7651517540216,6.0,1.0,phase_2,go,700.0,650.0,1.0,,,,,,,,,cyan,cross
0.0,4.0,4.0,0.0,5.0,5.0,801.6770277172327,6.0,1.0,phase_2,go,700.0,650.0,1.0,,,,,,,,,magenta,circle
0.0,5.0,0.5,1.0,5.0,0.0,0.0,6.0,1.0,phase_2,stop,700.0,650.0,4.0,,,,,,,,,white,triangle
0.0,1.0,0.5,0.0,6.0,6.0,822.2957439720631,6.0,1.0,phase_2,go,750.0,650.0,1.0,,,,,,,,,blue,square
0.0,3.0,2.0,0.0,5.0,5.0,654.8502668738365,6.0,1.0,phase_2,go,750.0,650.0,1.0,,,,,,,,,cyan,cross
0.0,8.0,4.0,1.0,5.0,5.0,568.5308445245028,6.0,1.0,phase_2,stop,750.0,650.0,3.0,,,,,,,,,gray,hexagon
0.0,2.0,1.0,0.0,5.0,5.0,731.4917799085379,6.0,1.0,phase_2,go,700.0,650.0,1.0,,,,,,,,,yellow,I
0.0,2.0,1.0,0.0,6.0,6.0,646.7163357883692,6.0,1.0,phase_2,go,700.0,650.0,1.0,,,,,,,,,yellow,I
0.0,5.0,0.5,1.0,6.0,6.0,764.5444106310606,6.0,1.0,phase_2,go,700.0,650.0,1.0,,,,,,,,,white,triangle
0.0,4.0,4.0,0.0,6.0,6.0,514.0296090394258,6.0,1.0,phase_2,go,700.0,650.0,1.0,,,,,,,,,magenta,circle
0.0,1.0,0.5,0.0,6.0,6.0,347.7974217385053,6.0,1.0,phase_2,go,700.0,650.0,1.0,,,,,,,,,blue,square
0.0,3.0,2.0,0.0,6.0,6.0,371.954046189785,6.0,1.0,phase_2,go,700.0,650.0,1.0,,,,,,,,,cyan,cross
0.0,4.0,4.0,0.0,6.0,6.0,688.9186687767506,6.0,1.0,phase_2,go,700.0,650.0,1.0,,,,,,,,,magenta,circle
0.0,1.0,0.5,0.0,6.0,6.0,473.5882636159658,6.0,1.0,phase_2,go,700.0,650.0,1.0,,,,,,,,,blue,square
0.0,6.0,1.0,1.0,6.0,0.0,0.0,6.0,1.0,phase_2,stop,700.0,650.0,4.0,,,,,,,,,orange,flipped triangle
0.0,7.0,2.0,1.0,6.0,0.0,0.0,6.0,1.0,phase_2,stop,700.0,700.0,4.0,,,,,,,,,green,diamond
0.0,2.0,1.0,0.0,5.0,5.0,928.1899090856314,6.0,1.0,phase_2,go,700.0,750.0,1.0,,,,,,,,,yellow,I
0.0,3.0,2.0,0.0,6.0,6.0,759.9143795669079,6.0,1.0,phase_2,go,700.0,750.0,1.0,,,,,,,,,cyan,cross
0.0,5.0,0.5,1.0,5.0,5.0,664.3454674631357,6.0,1.0,phase_2,stop,700.0,750.0,3.0,,,,,,,,,white,triangle
0.0,2.0,1.0,0.0,5.0,5.0,748.448571190238,6.0,1.0,phase_2,go,650.0,750.0,1.0,,,,,,,,,yellow,I
0.0,5.0,0.5,1.0,6.0,6.0,587.6074321568012,6.0,1.0,phase_2,stop,650.0,750.0,3.0,,,,,,,,,white,triangle
0.0,1.0,0.5,0.0,5.0,5.0,996.076064184308,6.0,1.0,phase_2,go,650.0,700.0,1.0,,,,,,,,,blue,square
0.0,3.0,2.0,0.0,6.0,6.0,1399.0163877606392,6.0,1.0,phase_2,go,650.0,700.0,1.0,,,,,,,,,cyan,cross
0.0,6.0,1.0,1.0,6.0,6.0,844.5911500602961,6.0,1.0,phase_2,stop,650.0,700.0,3.0,,,,,,,,,orange,flipped triangle
0.0,2.0,1.0,0.0,6.0,6.0,587.931539863348,6.0,1.0,phase_2,go,650.0,650.0,1.0,,,,,,,,,yellow,I
0.0,5.0,0.5,1.0,5.0,5.0,721.4117143303156,6.0,1.0,phase_2,stop,650.0,650.0,3.0,,,,,,,,,white,triangle
0.0,2.0,1.0,0.0,6.0,6.0,420.4837474972009,6.0,1.0,phase_2,go,600.0,650.0,1.0,,,,,,,,,yellow,I
0.0,6.0,1.0,1.0,5.0,5.0,523.1783371418715,7.0,1.0,phase_2,stop,600.0,650.0,3.0,,,,,,,,,orange,flipped triangle
0.0,2.0,1.0,0.0,6.0,6.0,315.2667097747326,7.0,1.0,phase_2,go,550.0,650.0,1.0,,,,,,,,,yellow,I
0.0,4.0,4.0,0.0,5.0,5.0,495.9799069911241,7.0,1.0,phase_2,go,550.0,650.0,1.0,,,,,,,,,magenta,circle
0.0,4.0,4.0,0.0,5.0,5.0,400.0293314456939,7.0,1.0,phase_2,go,550.0,650.0,1.0,,,,,,,,,magenta,circle
0.0,4.0,4.0,0.0,5.0,5.0,289.6708231419325,7.0,1.0,phase_2,go,550.0,650.0,1.0,,,,,,,,,magenta,circle
0.0,6.0,1.0,1.0,5.0,5.0,398.2063811272383,7.0,1.0,phase_2,stop,550.0,650.0,3.0,,,,,,,,,orange,flipped triangle
0.0,4.0,4.0,0.0,6.0,6.0,441.8803080916405,7.0,1.0,phase_2,go,500.0,650.0,1.0,,,,,,,,,magenta,circle
0.0,4.0,4.0,0.0,5.0,5.0,293.9575333148241,7.0,1.0,phase_2,go,500.0,650.0,1.0,,,,,,,,,magenta,circle
0.0,5.0,0.5,1.0,6.0,6.0,295.861342921853,7.0,1.0,phase_2,go,500.0,650.0,1.0,,,,,,,,,white,triangle
0.0,5.0,0.5,1.0,6.0,6.0,744.0687362104654,7.0,1.0,phase_2,stop,500.0,650.0,3.0,,,,,,,,,white,triangle
0.0,8.0,4.0,1.0,6.0,6.0,379.5354124158621,7.0,1.0,phase_2,stop,500.0,600.0,3.0,,,,,,,,,gray,hexagon
0.0,2.0,1.0,0.0,5.0,5.0,523.4780963510275,7.0,1.0,phase_2,go,500.0,550.0,1.0,,,,,,,,,yellow,I
0.0,5.0,0.5,1.0,6.0,0.0,0.0,7.0,1.0,phase_2,stop,500.0,550.0,4.0,,,,,,,,,white,triangle
0.0,4.0,4.0,0.0,5.0,5.0,388.3382808417082,7.0,1.0,phase_2,go,500.0,600.0,1.0,,,,,,,,,magenta,circle
0.0,2.0,1.0,0.0,5.0,5.0,388.4396608918905,7.0,1.0,phase_2,go,500.0,600.0,1.0,,,,,,,,,yellow,I
0.0,5.0,0.5,1.0,6.0,6.0,508.22667218744755,7.0,1.0,phase_2,stop,500.0,600.0,3.0,,,,,,,,,white,triangle
0.0,2.0,1.0,0.0,6.0,6.0,680.7016022503376,7.0,1.0,phase_2,go,500.0,550.0,1.0,,,,,,,,,yellow,I
0.0,8.0,4.0,1.0,5.0,0.0,0.0,7.0,1.0,phase_2,stop,500.0,550.0,4.0,,,,,,,,,gray,hexagon
0.0,7.0,2.0,1.0,6.0,0.0,0.0,7.0,1.0,phase_2,stop,550.0,550.0,4.0,,,,,,,,,green,diamond
0.0,5.0,0.5,1.0,6.0,6.0,627.00548581779,7.0,1.0,phase_2,stop,550.0,600.0,3.0,,,,,,,,,white,triangle
0.0,2.0,1.0,0.0,5.0,5.0,777.5784861296415,7.0,1.0,phase_2,go,550.0,550.0,1.0,,,,,,,,,yellow,I
0.0,1.0,0.5,0.0,6.0,6.0,704.4796273112297,7.0,1.0,phase_2,go,550.0,550.0,1.0,,,,,,,,,blue,square
0.0,8.0,4.0,1.0,5.0,5.0,317.1231374144554,7.0,1.0,phase_2,stop,550.0,550.0,3.0,,,,,,,,,gray,hexagon
0.0,4.0,4.0,0.0,6.0,6.0,664.4692253321409,7.0,1.0,phase_2,go,500.0,550.0,1.0,,,,,,,,,magenta,circle
0.0,5.0,0.5,1.0,5.0,5.0,520.5203238874674,7.0,1.0,phase_2,stop,500.0,550.0,3.0,,,,,,,,,white,triangle
0.0,2.0,1.0,0.0,6.0,6.0,487.2502572834492,7.0,1.0,phase_2,go,450.0,550.0,1.0,,,,,,,,,yellow,I
0.0,7.0,2.0,1.0,5.0,5.0,724.8865943402052,7.0,1.0,phase_2,go,450.0,550.0,1.0,,,,,,,,,green,diamond
0.0,2.0,1.0,0.0,6.0,6.0,706.9482449442148,7.0,1.0,phase_2,go,450.0,550.0,1.0,,,,,,,,,yellow,I
0.0,4.0,4.0,0.0,6.0,6.0,700.3930825740099,7.0,1.0,phase_2,go,450.0,550.0,1.0,,,,,,,,,magenta,circle
0.0,7.0,2.0,1.0,5.0,5.0,411.3675560802221,7.0,1.0,phase_2,go,450.0,550.0,1.0,,,,,,,,,green,diamond
0.0,3.0,2.0,0.0,6.0,6.0,457.6324466615915,7.0,1.0,phase_2,go,450.0,550.0,1.0,,,,,,,,,cyan,cross
0.0,2.0,1.0,0.0,5.0,5.0,396.5037800371647,7.0,1.0,phase_2,go,450.0,550.0,1.0,,,,,,,,,yellow,I
0.0,5.0,0.5,1.0,6.0,6.0,535.6057267636061,7.0,1.0,phase_2,go,450.0,550.0,1.0,,,,,,,,,white,triangle
0.0,6.0,1.0,1.0,5.0,0.0,0.0,7.0,1.0,phase_2,stop,450.0,550.0,4.0,,,,,,,,,orange,flipped triangle
0.0,4.0,4.0,0.0,5.0,5.0,761.6916634142399,7.0,1.0,phase_2,go,500.0,550.0,1.0,,,,,,,,,magenta,circle
0.0,7.0,2.0,1.0,5.0,5.0,521.3002804666758,7.0,1.0,phase_2,go,500.0,550.0,1.0,,,,,,,,,green,diamond
0.0,7.0,2.0,1.0,5.0,5.0,653.2526183873415,8.0,1.0,phase_2,stop,500.0,550.0,3.0,,,,,,,,,green,diamond
0.0,7.0,2.0,1.0,6.0,6.0,659.9866729229689,8.0,1.0,phase_2,stop,450.0,550.0,3.0,,,,,,,,,green,diamond
0.0,6.0,1.0,1.0,6.0,0.0,0.0,8.0,1.0,phase_2,stop,450.0,500.0,4.0,,,,,,,,,orange,flipped triangle
0.0,1.0,0.5,0.0,5.0,5.0,445.2771134674549,8.0,1.0,phase_2,go,450.0,550.0,1.0,,,,,,,,,blue,square
0.0,6.0,1.0,1.0,6.0,6.0,525.7120989263058,8.0,1.0,phase_2,stop,450.0,550.0,3.0,,,,,,,,,orange,flipped triangle
0.0,3.0,2.0,0.0,5.0,5.0,363.5430857539177,8.0,1.0,phase_2,go,450.0,500.0,1.0,,,,,,,,,cyan,cross
0.0,8.0,4.0,1.0,6.0,6.0,304.9695547670126,8.0,1.0,phase_2,stop,450.0,500.0,3.0,,,,,,,,,gray,hexagon
0.0,6.0,1.0,1.0,5.0,5.0,338.8457205146551,8.0,1.0,phase_2,stop,450.0,450.0,3.0,,,,,,,,,orange,flipped triangle
0.0,3.0,2.0,0.0,6.0,6.0,667.8832359611988,8.0,1.0,phase_2,go,400.0,450.0,1.0,,,,,,,,,cyan,cross
0.0,2.0,1.0,0.0,6.0,6.0,775.7351268082857,8.0,1.0,phase_2,go,400.0,450.0,1.0,,,,,,,,,yellow,I
0.0,6.0,1.0,1.0,5.0,0.0,0.0,8.0,1.0,phase_2,stop,400.0,450.0,4.0,,,,,,,,,orange,flipped triangle
0.0,8.0,4.0,1.0,5.0,0.0,0.0,8.0,1.0,phase_2,stop,450.0,450.0,4.0,,,,,,,,,gray,hexagon
0.0,7.0,2.0,1.0,5.0,0.0,0.0,8.0,1.0,phase_2,stop,500.0,450.0,4.0,,,,,,,,,green,diamond
0.0,3.0,2.0,0.0,6.0,6.0,829.3356355279684,8.0,1.0,phase_2,go,550.0,450.0,1.0,,,,,,,,,cyan,cross
0.0,1.0,0.5,0.0,5.0,5.0,904.2855855077504,8.0,1.0,phase_2,go,550.0,450.0,1.0,,,,,,,,,blue,square
0.0,6.0,1.0,1.0,5.0,5.0,639.656525105238,8.0,1.0,phase_2,go,550.0,450.0,1.0,,,,,,,,,orange,flipped triangle
0.0,4.0,4.0,0.0,6.0,6.0,325.3173716366291,8.0,1.0,phase_2,go,550.0,450.0,1.0,,,,,,,,,magenta,circle
0.0,4.0,4.0,0.0,6.0,6.0,315.9544505178928,8.0,1.0,phase_2,go,550.0,450.0,1.0,,,,,,,,,magenta,circle
0.0,5.0,0.5,1.0,5.0,5.0,610.4863248765469,8.0,1.0,phase_2,stop,550.0,450.0,3.0,,,,,,,,,white,triangle
0.0,7.0,2.0,1.0,6.0,6.0,549.2467191070318,8.0,1.0,phase_2,stop,500.0,450.0,3.0,,,,,,,,,green,diamond
0.0,1.0,0.5,0.0,5.0,5.0,841.2398435175419,8.0,1.0,phase_2,go,500.0,400.0,1.0,,,,,,,,,blue,square
0.0,7.0,2.0,1.0,5.0,0.0,0.0,8.0,1.0,phase_2,stop,500.0,400.0,4.0,,,,,,,,,green,diamond
0.0,6.0,1.0,1.0,5.0,0.0,0.0,8.0,1.0,phase_2,stop,550.0,400.0,4.0,,,,,,,,,orange,flipped triangle
0.0,1.0,0.5,0.0,5.0,5.0,847.5666604936123,8.0,1.0,phase_2,go,600.0,400.0,1.0,,,,,,,,,blue,square
0.0,4.0,4.0,0.0,6.0,6.0,367.1991974115371,8.0,1.0,phase_2,go,600.0,400.0,1.0,,,,,,,,,magenta,circle
0.0,8.0,4.0,1.0,5.0,5.0,640.6670343130827,8.0,1.0,phase_2,stop,600.0,400.0,3.0,,,,,,,,,gray,hexagon
0.0,5.0,0.5,1.0,6.0,0.0,0.0,8.0,1.0,phase_2,stop,550.0,400.0,4.0,,,,,,,,,white,triangle
0.0,8.0,4.0,1.0,6.0,0.0,0.0,8.0,1.0,phase_2,stop,550.0,450.0,4.0,,,,,,,,,gray,hexagon
0.0,3.0,2.0,0.0,5.0,5.0,575.7046323269606,8.0,1.0,phase_2,go,550.0,500.0,1.0,,,,,,,,,cyan,cross
0.0,7.0,2.0,1.0,6.0,6.0,573.046712204814,8.0,1.0,phase_2,stop,550.0,500.0,3.0,,,,,,,,,green,diamond
0.0,6.0,1.0,1.0,5.0,5.0,511.86064444482327,8.0,1.0,phase_2,go,550.0,450.0,1.0,,,,,,,,,orange,flipped triangle
0.0,3.0,2.0,0.0,5.0,5.0,678.977208212018,8.0,1.0,phase_2,go,550.0,450.0,1.0,,,,,,,,,cyan,cross
0.0,8.0,4.0,1.0,5.0,5.0,586.7007747292519,8.0,1.0,phase_2,stop,550.0,450.0,3.0,,,,,,,,,gray,hexagon
0.0,4.0,4.0,0.0,6.0,6.0,508.3463564515114,8.0,1.0,phase_2,go,500.0,450.0,1.0,,,,,,,,,magenta,circle
0.0,6.0,1.0,1.0,6.0,6.0,604.168388992548,8.0,1.0,phase_2,stop,500.0,450.0,3.0,,,,,,,,,orange,flipped triangle
0.0,1.0,0.5,0.0,6.0,6.0,969.2816939204932,8.0,1.0,phase_2,go,500.0,400.0,1.0,,,,,,,,,blue,square
0.0,3.0,2.0,0.0,7.0,2.0,1930.0328884273767,1.0,2.0,phase_3,,,,,264.0,6.0,220.0,264.0,88.0,132.0,44.0,176.0,cyan,cross
0.0,6.0,1.0,1.0,7.0,2.0,2033.8882207870483,1.0,1.0,phase_3,,,,,204.0,6.0,68.0,204.0,34.0,170.0,136.0,102.0,orange,flipped triangle
0.0,1.0,0.5,0.0,7.0,6.0,1565.6987242400646,1.0,1.0,phase_3,,,,,216.0,4.0,54.0,270.0,324.0,108.0,162.0,216.0,blue,square
0.0,2.0,1.0,0.0,7.0,3.0,2022.1291035413742,1.0,1.0,phase_3,,,,,44.0,1.0,132.0,220.0,44.0,176.0,264.0,88.0,yellow,I
0.0,7.0,2.0,1.0,7.0,1.0,1279.3212924152613,1.0,1.0,phase_3,,,,,39.0,1.0,39.0,195.0,78.0,234.0,156.0,117.0,green,diamond
0.0,3.0,2.0,0.0,7.0,5.0,1536.1633636057377,1.0,1.0,phase_3,,,,,147.0,3.0,196.0,98.0,49.0,245.0,147.0,294.0,cyan,cross
0.0,4.0,4.0,0.0,7.0,5.0,1903.2869972288609,1.0,1.0,phase_3,,,,,98.0,2.0,245.0,49.0,147.0,294.0,98.0,196.0,magenta,circle
0.0,2.0,1.0,0.0,7.0,4.0,1771.6810051351786,1.0,1.0,phase_3,,,,,34.0,1.0,136.0,102.0,68.0,34.0,204.0,170.0,yellow,I
0.0,6.0,1.0,1.0,7.0,1.0,1669.447485357523,1.0,1.0,phase_3,,,,,245.0,5.0,245.0,49.0,196.0,294.0,98.0,147.0,orange,flipped triangle
0.0,2.0,1.0,0.0,7.0,6.0,1443.5887560248375,1.0,1.0,phase_3,,,,,34.0,1.0,204.0,136.0,68.0,170.0,102.0,34.0,yellow,I
0.0,6.0,1.0,1.0,7.0,5.0,2088.7375622987747,1.0,1.0,phase_3,,,,,136.0,4.0,204.0,170.0,34.0,68.0,136.0,102.0,orange,flipped triangle
0.0,7.0,2.0,1.0,7.0,5.0,1369.3031445145607,1.0,1.0,phase_3,,,,,170.0,5.0,102.0,34.0,136.0,68.0,170.0,204.0,green,diamond
0.0,7.0,2.0,1.0,7.0,6.0,1383.8995434343817,1.0,1.0,phase_3,,,,,264.0,6.0,220.0,132.0,44.0,176.0,88.0,264.0,green,diamond
0.0,2.0,1.0,0.0,7.0,1.0,1292.171927168965,1.0,1.0,phase_3,,,,,39.0,1.0,39.0,156.0,234.0,78.0,195.0,117.0,yellow,I
0.0,8.0,4.0,1.0,7.0,2.0,2404.643524438143,1.0,1.0,phase_3,,,,,245.0,5.0,147.0,245.0,98.0,49.0,294.0,196.0,gray,hexagon
0.0,7.0,2.0,1.0,7.0,4.0,1228.4600604325533,1.0,1.0,phase_3,,,,,245.0,5.0,196.0,147.0,98.0,245.0,49.0,294.0,green,diamond
0.0,1.0,0.5,0.0,7.0,2.0,2281.353149563074,1.0,1.0,phase_3,,,,,195.0,5.0,234.0,195.0,39.0,117.0,156.0,78.0,blue,square
0.0,5.0,0.5,1.0,7.0,6.0,1310.750501230359,1.0,1.0,phase_3,,,,,204.0,6.0,170.0,34.0,68.0,136.0,102.0,204.0,white,triangle
0.0,8.0,4.0,1.0,7.0,4.0,1842.6765389740467,1.0,1.0,phase_3,,,,,170.0,5.0,102.0,68.0,34.0,170.0,136.0,204.0,gray,hexagon
0.0,8.0,4.0,1.0,7.0,4.0,2442.2819074243307,1.0,1.0,phase_3,,,,,216.0,4.0,108.0,54.0,270.0,216.0,324.0,162.0,gray,hexagon
0.0,4.0,4.0,0.0,7.0,5.0,1642.1370785683391,2.0,1.0,phase_3,,,,,102.0,3.0,170.0,68.0,34.0,204.0,102.0,136.0,magenta,circle
0.0,4.0,4.0,0.0,7.0,2.0,1003.7383530288937,2.0,1.0,phase_3,,,,,270.0,5.0,54.0,270.0,216.0,324.0,108.0,162.0,magenta,circle
0.0,4.0,4.0,0.0,7.0,4.0,1672.0495279878378,2.0,1.0,phase_3,,,,,234.0,6.0,156.0,117.0,195.0,234.0,78.0,39.0,magenta,circle
0.0,2.0,1.0,0.0,7.0,6.0,1089.8733418434858,2.0,1.0,phase_3,,,,,54.0,1.0,162.0,324.0,216.0,270.0,108.0,54.0,yellow,I
0.0,4.0,4.0,0.0,7.0,4.0,1193.615823984146,2.0,1.0,phase_3,,,,,162.0,3.0,324.0,270.0,216.0,162.0,54.0,108.0,magenta,circle
0.0,2.0,1.0,0.0,7.0,5.0,1420.2979858964682,2.0,1.0,phase_3,,,,,49.0,1.0,196.0,245.0,294.0,147.0,49.0,98.0,yellow,I
0.0,5.0,0.5,1.0,7.0,5.0,2037.3366232961416,2.0,1.0,phase_3,,,,,196.0,4.0,98.0,294.0,147.0,245.0,196.0,49.0,white,triangle
0.0,7.0,2.0,1.0,7.0,6.0,1964.770471677184,2.0,1.0,phase_3,,,,,245.0,5.0,49.0,196.0,294.0,98.0,147.0,245.0,green,diamond
0.0,7.0,2.0,1.0,7.0,5.0,1245.3790046274662,2.0,1.0,phase_3,,,,,54.0,1.0,108.0,324.0,270.0,216.0,54.0,162.0,green,diamond
0.0,5.0,0.5,1.0,7.0,4.0,1206.548012793064,2.0,1.0,phase_3,,,,,102.0,3.0,170.0,204.0,34.0,102.0,136.0,68.0,white,triangle
0.0,8.0,4.0,1.0,7.0,3.0,2680.157274007797,2.0,1.0,phase_3,,,,,294.0,6.0,98.0,245.0,294.0,147.0,49.0,196.0,gray,hexagon
0.0,8.0,4.0,1.0,7.0,2.0,1561.024526134133,2.0,1.0,phase_3,,,,,270.0,5.0,324.0,270.0,162.0,108.0,216.0,54.0,gray,hexagon
0.0,5.0,0.5,1.0,7.0,2.0,2197.7462768554688,2.0,1.0,phase_3,,,,,162.0,3.0,324.0,162.0,108.0,54.0,216.0,270.0,white,triangle
0.0,1.0,0.5,0.0,7.0,6.0,2318.009801208973,2.0,1.0,phase_3,,,,,216.0,4.0,270.0,162.0,54.0,324.0,108.0,216.0,blue,square
0.0,2.0,1.0,0.0,7.0,5.0,789.875527843833,2.0,1.0,phase_3,,,,,39.0,1.0,156.0,117.0,195.0,78.0,39.0,234.0,yellow,I
0.0,4.0,4.0,0.0,7.0,4.0,902.5130327790976,2.0,1.0,phase_3,,,,,220.0,5.0,176.0,88.0,264.0,220.0,44.0,132.0,magenta,circle
0.0,4.0,4.0,0.0,7.0,6.0,1776.1147674173117,2.0,1.0,phase_3,,,,,204.0,6.0,170.0,136.0,34.0,102.0,68.0,204.0,magenta,circle
0.0,3.0,2.0,0.0,7.0,1.0,2011.353919282556,2.0,1.0,phase_3,,,,,78.0,2.0,78.0,195.0,234.0,39.0,156.0,117.0,cyan,cross
0.0,1.0,0.5,0.0,7.0,5.0,1933.809578418732,2.0,1.0,phase_3,,,,,220.0,5.0,264.0,176.0,44.0,132.0,220.0,88.0,blue,square
0.0,6.0,1.0,1.0,7.0,6.0,2469.039721414447,2.0,1.0,phase_3,,,,,195.0,5.0,39.0,156.0,78.0,234.0,117.0,195.0,orange,flipped triangle
0.0,8.0,4.0,1.0,7.0,3.0,494.3590834736824,3.0,1.0,phase_3,,,,,220.0,5.0,264.0,132.0,220.0,176.0,88.0,44.0,gray,hexagon
0.0,8.0,4.0,1.0,7.0,5.0,1527.5011137127876,3.0,1.0,phase_3,,,,,68.0,2.0,170.0,136.0,34.0,204.0,68.0,102.0,gray,hexagon
0.0,1.0,0.5,0.0,7.0,6.0,1515.0560457259417,3.0,1.0,phase_3,,,,,220.0,5.0,44.0,264.0,88.0,132.0,176.0,220.0,blue,square
0.0,5.0,0.5,1.0,7.0,1.0,2390.3029151260853,3.0,1.0,phase_3,,,,,39.0,1.0,39.0,195.0,234.0,117.0,78.0,156.0,white,triangle
0.0,7.0,2.0,1.0,7.0,2.0,2035.980312153697,3.0,1.0,phase_3,,,,,234.0,6.0,195.0,234.0,39.0,156.0,78.0,117.0,green,diamond
0.0,6.0,1.0,1.0,7.0,2.0,2445.072451606393,3.0,1.0,phase_3,,,,,156.0,4.0,78.0,156.0,39.0,117.0,234.0,195.0,orange,flipped triangle
0.0,3.0,2.0,0.0,7.0,5.0,2199.513290077448,3.0,1.0,phase_3,,,,,102.0,3.0,34.0,136.0,170.0,204.0,102.0,68.0,cyan,cross
0.0,1.0,0.5,0.0,7.0,6.0,1962.737200781703,3.0,1.0,phase_3,,,,,196.0,4.0,245.0,147.0,49.0,294.0,98.0,196.0,blue,square
0.0,6.0,1.0,1.0,7.0,5.0,1451.828934252262,3.0,1.0,phase_3,,,,,294.0,6.0,49.0,196.0,245.0,147.0,294.0,98.0,orange,flipped triangle
0.0,8.0,4.0,1.0,7.0,2.0,2043.27692091465,3.0,1.0,phase_3,,,,,44.0,1.0,220.0,44.0,88.0,132.0,264.0,176.0,gray,hexagon
0.0,5.0,0.5,1.0,7.0,4.0,1820.8017125725744,3.0,1.0,phase_3,,,,,156.0,4.0,78.0,195.0,39.0,156.0,117.0,234.0,white,triangle
0.0,3.0,2.0,0.0,7.0,2.0,1975.6292942911384,3.0,1.0,phase_3,,,,,234.0,6.0,156.0,234.0,78.0,195.0,117.0,39.0,cyan,cross
0.0,3.0,2.0,0.0,7.0,1.0,2697.834502905607,3.0,1.0,phase_3,,,,,216.0,4.0,216.0,54.0,270.0,162.0,108.0,324.0,cyan,cross
0.0,2.0,1.0,0.0,7.0,1.0,2867.2193735837936,3.0,1.0,phase_3,,,,,220.0,5.0,220.0,44.0,88.0,176.0,264.0,132.0,yellow,I
0.0,3.0,2.0,0.0,7.0,5.0,1475.7043030112982,3.0,1.0,phase_3,,,,,196.0,4.0,147.0,49.0,294.0,245.0,196.0,98.0,cyan,cross
0.0,5.0,0.5,1.0,7.0,5.0,2661.1729096621275,3.0,1.0,phase_3,,,,,264.0,6.0,44.0,176.0,220.0,132.0,264.0,88.0,white,triangle
0.0,1.0,0.5,0.0,7.0,4.0,1661.4532247185707,3.0,1.0,phase_3,,,,,294.0,6.0,196.0,98.0,49.0,294.0,245.0,147.0,blue,square
0.0,1.0,0.5,0.0,7.0,3.0,2381.9148279726505,3.0,1.0,phase_3,,,,,195.0,5.0,156.0,39.0,195.0,117.0,78.0,234.0,blue,square
0.0,2.0,1.0,0.0,7.0,5.0,1968.985667452216,3.0,1.0,phase_3,,,,,54.0,1.0,108.0,216.0,162.0,324.0,54.0,270.0,yellow,I
0.0,3.0,2.0,0.0,7.0,6.0,2090.282505378127,3.0,1.0,phase_3,,,,,162.0,3.0,270.0,324.0,108.0,216.0,54.0,162.0,cyan,cross
0.0,5.0,0.5,1.0,7.0,2.0,2074.679248034954,4.0,1.0,phase_3,,,,,49.0,1.0,98.0,49.0,147.0,196.0,245.0,294.0,white,triangle
0.0,4.0,4.0,0.0,7.0,4.0,1707.604389637709,4.0,1.0,phase_3,,,,,264.0,6.0,176.0,88.0,132.0,264.0,220.0,44.0,magenta,circle
0.0,8.0,4.0,1.0,7.0,4.0,1300.6242606788874,4.0,1.0,phase_3,,,,,78.0,2.0,117.0,195.0,156.0,78.0,234.0,39.0,gray,hexagon
0.0,6.0,1.0,1.0,7.0,3.0,2288.1004754453897,4.0,1.0,phase_3,,,,,270.0,5.0,216.0,54.0,270.0,108.0,324.0,162.0,orange,flipped triangle
0.0,2.0,1.0,0.0,7.0,5.0,1177.4248499423263,4.0,1.0,phase_3,,,,,294.0,6.0,245.0,49.0,147.0,98.0,294.0,196.0,yellow,I
0.0,3.0,2.0,0.0,7.0,5.0,2548.036625608802,4.0,1.0,phase_3,,,,,204.0,6.0,68.0,170.0,102.0,34.0,204.0,136.0,cyan,cross
0.0,6.0,1.0,1.0,7.0,1.0,2515.2700394392014,4.0,1.0,phase_3,,,,,44.0,1.0,44.0,88.0,132.0,264.0,220.0,176.0,orange,flipped triangle
0.0,4.0,4.0,0.0,7.0,2.0,1349.8066123574972,4.0,1.0,phase_3,,,,,147.0,3.0,294.0,147.0,49.0,245.0,98.0,196.0,magenta,circle
0.0,4.0,4.0,0.0,7.0,5.0,1688.897494226694,4.0,1.0,phase_3,,,,,117.0,3.0,78.0,156.0,39.0,234.0,117.0,195.0,magenta,circle
0.0,7.0,2.0,1.0,7.0,2.0,1984.457703307271,4.0,1.0,phase_3,,,,,264.0,6.0,132.0,264.0,220.0,44.0,88.0,176.0,green,diamond
0.0,7.0,2.0,1.0,7.0,5.0,2353.8171388208866,4.0,1.0,phase_3,,,,,216.0,4.0,108.0,324.0,162.0,54.0,216.0,270.0,green,diamond
0.0,8.0,4.0,1.0,7.0,6.0,2028.0078686773777,4.0,1.0,phase_3,,,,,117.0,3.0,39.0,78.0,234.0,156.0,195.0,117.0,gray,hexagon
0.0,1.0,0.5,0.0,7.0,5.0,2092.85300783813,4.0,1.0,phase_3,,,,,204.0,6.0,102.0,136.0,170.0,34.0,204.0,68.0,blue,square
0.0,6.0,1.0,1.0,7.0,2.0,955.9367690235376,4.0,1.0,phase_3,,,,,324.0,6.0,270.0,324.0,216.0,108.0,54.0,162.0,orange,flipped triangle
0.0,1.0,0.5,0.0,7.0,3.0,2477.826474234462,4.0,1.0,phase_3,,,,,204.0,6.0,68.0,34.0,204.0,170.0,102.0,136.0,blue,square
0.0,3.0,2.0,0.0,7.0,6.0,1945.6553347408767,4.0,1.0,phase_3,,,,,220.0,5.0,132.0,44.0,264.0,176.0,88.0,220.0,cyan,cross
0.0,5.0,0.5,1.0,7.0,3.0,1218.9683485776186,4.0,1.0,phase_3,,,,,324.0,6.0,108.0,162.0,324.0,270.0,216.0,54.0,white,triangle
0.0,7.0,2.0,1.0,7.0,4.0,2100.563522428274,4.0,1.0,phase_3,,,,,136.0,4.0,34.0,170.0,68.0,136.0,102.0,204.0,green,diamond
0.0,6.0,1.0,1.0,7.0,1.0,1394.7730846703053,4.0,1.0,phase_3,,,,,264.0,6.0,264.0,132.0,44.0,88.0,176.0,220.0,orange,flipped triangle
0.0,5.0,0.5,1.0,7.0,4.0,1603.7854440510273,4.0,1.0,phase_3,,,,,132.0,3.0,88.0,176.0,44.0,132.0,264.0,220.0,white,triangle
