raw_reward_magnitude,stim_reward,stepwise_reward_magnitude,paired_with_stopping,stim_location,response,reaction_time,block,num_trial_presentations,which_phase,stop_signal_trial_type,left_SSD,right_SSD,accuracy,chosen_bidding_amount,chosen_bidding_level,possible_bid_1,possible_bid_2,possible_bid_3,possible_bid_4,possible_bid_5,possible_bid_6,color_text,shape_text
217.0,7.0,3.0,1.0,1.0,1.0,335.7185460627079,1.0,1.0,phase_1,,,,,,,,,,,,,orange,diamond
181.0,3.0,3.0,0.0,4.0,4.0,299.6896374970674,1.0,1.0,phase_1,,,,,,,,,,,,,white,triangle
89.0,6.0,2.0,1.0,3.0,3.0,470.4628456383943,1.0,1.0,phase_1,,,,,,,,,,,,,green,square
26.0,1.0,1.0,0.0,1.0,1.0,333.22257921099657,1.0,1.0,phase_1,,,,,,,,,,,,,cyan,circle
0.0,1.0,0.0,0.0,1.0,1.0,337.1184263378382,1.0,1.0,phase_1,,,,,,,,,,,,,cyan,circle
183.0,7.0,3.0,1.0,3.0,3.0,379.9120914191007,1.0,1.0,phase_1,,,,,,,,,,,,,orange,diamond
400.0,4.0,4.0,0.0,3.0,3.0,324.6767949312925,1.0,1.0,phase_1,,,,,,,,,,,,,gray,flipped triangle
77.0,6.0,2.0,1.0,2.0,2.0,350.1147460192442,1.0,1.0,phase_1,,,,,,,,,,,,,green,square
0.0,5.0,0.0,1.0,1.0,1.0,519.2143898457289,1.0,2.0,phase_1,,,,,,,,,,,,,yellow,I
98.0,6.0,2.0,1.0,1.0,1.0,571.5590883046389,1.0,1.0,phase_1,,,,,,,,,,,,,green,square
0.0,3.0,0.0,0.0,1.0,1.0,434.6311632543802,1.0,1.0,phase_1,,,,,,,,,,,,,white,triangle
176.0,3.0,3.0,0.0,4.0,4.0,621.3144883513451,1.0,1.0,phase_1,,,,,,,,,,,,,white,triangle
206.0,7.0,3.0,1.0,2.0,2.0,436.5946650505066,1.0,1.0,phase_1,,,,,,,,,,,,,orange,diamond
192.0,7.0,3.0,1.0,1.0,1.0,326.5134710818529,1.0,1.0,phase_1,,,,,,,,,,,,,orange,diamond
103.0,6.0,2.0,1.0,1.0,1.0,314.3063839524984,1.0,1.0,phase_1,,,,,,,,,,,,,green,square
84.0,2.0,2.0,0.0,1.0,1.0,344.5786070078611,1.0,1.0,phase_1,,,,,,,,,,,,,magenta,cross
67.0,5.0,1.0,1.0,3.0,3.0,332.0105858147144,1.0,1.0,phase_1,,,,,,,,,,,,,yellow,I
213.0,3.0,3.0,0.0,4.0,4.0,484.2181429266929,1.0,1.0,phase_1,,,,,,,,,,,,,white,triangle
66.0,5.0,1.0,1.0,3.0,3.0,344.1670313477516,1.0,1.0,phase_1,,,,,,,,,,,,,yellow,I
0.0,3.0,0.0,0.0,2.0,2.0,380.7925581932068,1.0,1.0,phase_1,,,,,,,,,,,,,white,triangle
113.0,2.0,2.0,0.0,2.0,2.0,568.7296092510223,1.0,1.0,phase_1,,,,,,,,,,,,,magenta,cross
67.0,1.0,1.0,0.0,4.0,4.0,357.9035606235266,1.0,1.0,phase_1,,,,,,,,,,,,,cyan,circle
0.0,6.0,0.0,1.0,4.0,4.0,380.1877852529287,1.0,1.0,phase_1,,,,,,,,,,,,,green,square
0.0,2.0,0.0,0.0,2.0,2.0,480.6567132472992,1.0,1.0,phase_1,,,,,,,,,,,,,magenta,cross
402.0,8.0,4.0,1.0,3.0,3.0,372.5346028804779,1.0,1.0,phase_1,,,,,,,,,,,,,blue,hexagon
204.0,7.0,3.0,1.0,2.0,2.0,527.8297495096922,1.0,1.0,phase_1,,,,,,,,,,,,,orange,diamond
0.0,8.0,0.0,1.0,4.0,4.0,365.8936433494091,1.0,1.0,phase_1,,,,,,,,,,,,,blue,hexagon
55.0,5.0,1.0,1.0,2.0,2.0,393.2093176990747,1.0,1.0,phase_1,,,,,,,,,,,,,yellow,I
48.0,1.0,1.0,0.0,4.0,4.0,327.7163505554199,1.0,1.0,phase_1,,,,,,,,,,,,,cyan,circle
95.0,2.0,2.0,0.0,4.0,4.0,417.3897095024586,1.0,1.0,phase_1,,,,,,,,,,,,,magenta,cross
415.0,4.0,4.0,0.0,4.0,4.0,400.436082854867,1.0,1.0,phase_1,,,,,,,,,,,,,gray,flipped triangle
411.0,8.0,4.0,1.0,2.0,2.0,380.4854452610016,1.0,1.0,phase_1,,,,,,,,,,,,,blue,hexagon
92.0,6.0,2.0,1.0,2.0,2.0,392.878919839859,1.0,1.0,phase_1,,,,,,,,,,,,,green,square
67.0,5.0,1.0,1.0,3.0,3.0,461.8890304118395,1.0,1.0,phase_1,,,,,,,,,,,,,yellow,I
176.0,3.0,3.0,0.0,1.0,1.0,450.2284061163664,1.0,1.0,phase_1,,,,,,,,,,,,,white,triangle
403.0,4.0,4.0,0.0,1.0,1.0,446.4321155101061,1.0,1.0,phase_1,,,,,,,,,,,,,gray,flipped triangle
50.0,1.0,1.0,0.0,4.0,4.0,509.50397178530693,1.0,1.0,phase_1,,,,,,,,,,,,,cyan,circle
204.0,3.0,3.0,0.0,2.0,2.0,609.5934696495533,1.0,1.0,phase_1,,,,,,,,,,,,,white,triangle
420.0,8.0,4.0,1.0,1.0,1.0,483.4197387099266,1.0,1.0,phase_1,,,,,,,,,,,,,blue,hexagon
55.0,5.0,1.0,1.0,3.0,3.0,339.9587366729975,1.0,1.0,phase_1,,,,,,,,,,,,,yellow,I
84.0,6.0,2.0,1.0,2.0,2.0,622.5905064493418,1.0,1.0,phase_1,,,,,,,,,,,,,green,square
217.0,3.0,3.0,0.0,2.0,2.0,529.0262997150421,1.0,1.0,phase_1,,,,,,,,,,,,,white,triangle
389.0,4.0,4.0,0.0,2.0,2.0,461.5957327187061,1.0,1.0,phase_1,,,,,,,,,,,,,gray,flipped triangle
114.0,2.0,2.0,0.0,3.0,3.0,340.2192741632461,1.0,1.0,phase_1,,,,,,,,,,,,,magenta,cross
86.0,2.0,2.0,0.0,3.0,3.0,392.9603174328804,1.0,1.0,phase_1,,,,,,,,,,,,,magenta,cross
392.0,4.0,4.0,0.0,4.0,4.0,430.3946364670992,1.0,1.0,phase_1,,,,,,,,,,,,,gray,flipped triangle
206.0,3.0,3.0,0.0,4.0,4.0,420.7229427993297,1.0,1.0,phase_1,,,,,,,,,,,,,white,triangle
212.0,7.0,3.0,1.0,4.0,4.0,336.674066260457,1.0,1.0,phase_1,,,,,,,,,,,,,orange,diamond
31.0,1.0,1.0,0.0,1.0,1.0,441.8042358011007,1.0,1.0,phase_1,,,,,,,,,,,,,cyan,circle
55.0,5.0,1.0,1.0,2.0,2.0,431.6839780658483,1.0,1.0,phase_1,,,,,,,,,,,,,yellow,I
392.0,8.0,4.0,1.0,4.0,4.0,382.4984841048717,1.0,1.0,phase_1,,,,,,,,,,,,,blue,hexagon
204.0,3.0,3.0,0.0,1.0,1.0,442.935885861516,1.0,1.0,phase_1,,,,,,,,,,,,,white,triangle
44.0,1.0,1.0,0.0,3.0,3.0,415.3221026062965,1.0,1.0,phase_1,,,,,,,,,,,,,cyan,circle
0.0,4.0,0.0,0.0,4.0,4.0,340.9370929002762,1.0,1.0,phase_1,,,,,,,,,,,,,gray,flipped triangle
36.0,1.0,1.0,0.0,4.0,4.0,366.5118217468261,1.0,1.0,phase_1,,,,,,,,,,,,,cyan,circle
212.0,3.0,3.0,0.0,3.0,3.0,357.3759086430073,1.0,1.0,phase_1,,,,,,,,,,,,,white,triangle
66.0,1.0,1.0,0.0,2.0,2.0,471.8080665916204,1.0,1.0,phase_1,,,,,,,,,,,,,cyan,circle
188.0,7.0,3.0,1.0,2.0,2.0,459.7921296954155,1.0,1.0,phase_1,,,,,,,,,,,,,orange,diamond
86.0,2.0,2.0,0.0,2.0,2.0,352.6827339082956,1.0,1.0,phase_1,,,,,,,,,,,,,magenta,cross
48.0,5.0,1.0,1.0,4.0,4.0,311.4013075828552,1.0,1.0,phase_1,,,,,,,,,,,,,yellow,I
72.0,1.0,1.0,0.0,3.0,3.0,345.9756504744291,1.0,1.0,phase_1,,,,,,,,,,,,,cyan,circle
213.0,7.0,3.0,1.0,4.0,4.0,585.2930918335915,1.0,1.0,phase_1,,,,,,,,,,,,,orange,diamond
377.0,8.0,4.0,1.0,4.0,4.0,510.61137579381466,1.0,1.0,phase_1,,,,,,,,,,,,,blue,hexagon
385.0,4.0,4.0,0.0,2.0,2.0,440.3998609632253,1.0,1.0,phase_1,,,,,,,,,,,,,gray,flipped triangle
382.0,4.0,4.0,0.0,3.0,3.0,421.2681762874126,1.0,1.0,phase_1,,,,,,,,,,,,,gray,flipped triangle
38.0,1.0,1.0,0.0,4.0,4.0,281.9886766374111,1.0,1.0,phase_1,,,,,,,,,,,,,cyan,circle
0.0,2.0,0.0,0.0,2.0,2.0,394.3422492593527,1.0,1.0,phase_1,,,,,,,,,,,,,magenta,cross
400.0,8.0,4.0,1.0,2.0,2.0,389.0586923807859,1.0,1.0,phase_1,,,,,,,,,,,,,blue,hexagon
212.0,7.0,3.0,1.0,3.0,3.0,375.6883703172207,1.0,1.0,phase_1,,,,,,,,,,,,,orange,diamond
92.0,2.0,2.0,0.0,1.0,1.0,390.4761709272861,1.0,1.0,phase_1,,,,,,,,,,,,,magenta,cross
204.0,7.0,3.0,1.0,3.0,3.0,379.5580938458442,1.0,1.0,phase_1,,,,,,,,,,,,,orange,diamond
86.0,6.0,2.0,1.0,1.0,1.0,400.929607450962,1.0,1.0,phase_1,,,,,,,,,,,,,green,square
0.0,3.0,0.0,0.0,4.0,4.0,307.2634320706129,1.0,1.0,phase_1,,,,,,,,,,,,,white,triangle
123.0,6.0,2.0,1.0,3.0,3.0,336.8917573243379,1.0,1.0,phase_1,,,,,,,,,,,,,green,square
207.0,7.0,3.0,1.0,4.0,4.0,294.9698157608509,1.0,1.0,phase_1,,,,,,,,,,,,,orange,diamond
0.0,3.0,0.0,0.0,1.0,1.0,384.6487011760473,1.0,1.0,phase_1,,,,,,,,,,,,,white,triangle
0.0,5.0,0.0,1.0,4.0,4.0,321.2095331400633,1.0,1.0,phase_1,,,,,,,,,,,,,yellow,I
419.0,4.0,4.0,0.0,1.0,1.0,413.8140901923179,1.0,1.0,phase_1,,,,,,,,,,,,,gray,flipped triangle
115.0,2.0,2.0,0.0,3.0,3.0,319.1842902451753,1.0,1.0,phase_1,,,,,,,,,,,,,magenta,cross
44.0,1.0,1.0,0.0,2.0,2.0,323.4229329973459,1.0,1.0,phase_1,,,,,,,,,,,,,cyan,circle
390.0,8.0,4.0,1.0,1.0,1.0,488.0901295691728,1.0,1.0,phase_1,,,,,,,,,,,,,blue,hexagon
0.0,2.0,0.0,0.0,3.0,3.0,328.7008851766586,1.0,1.0,phase_1,,,,,,,,,,,,,magenta,cross
0.0,1.0,0.0,0.0,4.0,4.0,411.0509138554334,1.0,1.0,phase_1,,,,,,,,,,,,,cyan,circle
405.0,4.0,4.0,0.0,4.0,4.0,471.0953198373317,1.0,1.0,phase_1,,,,,,,,,,,,,gray,flipped triangle
191.0,3.0,3.0,0.0,1.0,1.0,413.7536976486444,1.0,1.0,phase_1,,,,,,,,,,,,,white,triangle
0.0,8.0,0.0,1.0,4.0,4.0,434.7041789442301,1.0,1.0,phase_1,,,,,,,,,,,,,blue,hexagon
397.0,4.0,4.0,0.0,2.0,2.0,557.9590834677219,1.0,1.0,phase_1,,,,,,,,,,,,,gray,flipped triangle
190.0,7.0,3.0,1.0,2.0,2.0,531.074520200491,1.0,1.0,phase_1,,,,,,,,,,,,,orange,diamond
210.0,3.0,3.0,0.0,3.0,3.0,384.2353392392397,1.0,1.0,phase_1,,,,,,,,,,,,,white,triangle
57.0,5.0,1.0,1.0,4.0,4.0,429.6101834625005,1.0,1.0,phase_1,,,,,,,,,,,,,yellow,I
204.0,7.0,3.0,1.0,3.0,3.0,410.1376757025718,1.0,1.0,phase_1,,,,,,,,,,,,,orange,diamond
37.0,5.0,1.0,1.0,3.0,3.0,389.9243827909231,1.0,1.0,phase_1,,,,,,,,,,,,,yellow,I
111.0,2.0,2.0,0.0,2.0,2.0,515.4354982078075,1.0,1.0,phase_1,,,,,,,,,,,,,magenta,cross
93.0,2.0,2.0,0.0,4.0,4.0,413.7764014303684,1.0,1.0,phase_1,,,,,,,,,,,,,magenta,cross
0.0,2.0,0.0,0.0,1.0,1.0,467.1874064952135,1.0,1.0,phase_1,,,,,,,,,,,,,magenta,cross
0.0,8.0,0.0,1.0,3.0,3.0,457.4434235692024,1.0,1.0,phase_1,,,,,,,,,,,,,blue,hexagon
188.0,7.0,3.0,1.0,1.0,1.0,364.757027477026,1.0,1.0,phase_1,,,,,,,,,,,,,orange,diamond
52.0,1.0,1.0,0.0,3.0,3.0,495.9868006408214,1.0,1.0,phase_1,,,,,,,,,,,,,cyan,circle
79.0,2.0,2.0,0.0,1.0,1.0,397.7981675416231,1.0,1.0,phase_1,,,,,,,,,,,,,magenta,cross
403.0,4.0,4.0,0.0,4.0,4.0,370.7315847277641,1.0,1.0,phase_1,,,,,,,,,,,,,gray,flipped triangle
60.0,5.0,1.0,1.0,2.0,2.0,449.4586512446403,2.0,1.0,phase_1,,,,,,,,,,,,,yellow,I
0.0,1.0,0.0,0.0,4.0,4.0,413.1358712911606,2.0,1.0,phase_1,,,,,,,,,,,,,cyan,circle
0.0,8.0,0.0,1.0,3.0,3.0,389.0845719724893,2.0,1.0,phase_1,,,,,,,,,,,,,blue,hexagon
0.0,6.0,0.0,1.0,4.0,4.0,511.2891402095556,2.0,1.0,phase_1,,,,,,,,,,,,,green,square
95.0,6.0,2.0,1.0,4.0,4.0,363.8961594551801,2.0,1.0,phase_1,,,,,,,,,,,,,green,square
206.0,3.0,3.0,0.0,3.0,3.0,465.9357722848654,2.0,1.0,phase_1,,,,,,,,,,,,,white,triangle
113.0,6.0,2.0,1.0,3.0,3.0,439.9016015231609,2.0,1.0,phase_1,,,,,,,,,,,,,green,square
222.0,3.0,3.0,0.0,2.0,2.0,433.0962039530277,2.0,1.0,phase_1,,,,,,,,,,,,,white,triangle
93.0,6.0,2.0,1.0,1.0,1.0,383.9511536061764,2.0,1.0,phase_1,,,,,,,,,,,,,green,square
0.0,8.0,0.0,1.0,1.0,1.0,437.1229950338602,2.0,1.0,phase_1,,,,,,,,,,,,,blue,hexagon
0.0,6.0,0.0,1.0,4.0,4.0,539.7361926734447,2.0,1.0,phase_1,,,,,,,,,,,,,green,square
0.0,5.0,0.0,1.0,2.0,2.0,446.9073433429003,2.0,1.0,phase_1,,,,,,,,,,,,,yellow,I
220.0,3.0,3.0,0.0,4.0,4.0,436.9456078857183,2.0,1.0,phase_1,,,,,,,,,,,,,white,triangle
70.0,1.0,1.0,0.0,3.0,3.0,462.0503894984722,2.0,1.0,phase_1,,,,,,,,,,,,,cyan,circle
31.0,5.0,1.0,1.0,4.0,4.0,572.3020080476999,2.0,1.0,phase_1,,,,,,,,,,,,,yellow,I
382.0,8.0,4.0,1.0,2.0,2.0,457.7607344835996,2.0,1.0,phase_1,,,,,,,,,,,,,blue,hexagon
183.0,3.0,3.0,0.0,3.0,3.0,371.9208315014839,2.0,1.0,phase_1,,,,,,,,,,,,,white,triangle
198.0,7.0,3.0,1.0,4.0,4.0,410.1149830967188,2.0,1.0,phase_1,,,,,,,,,,,,,orange,diamond
113.0,6.0,2.0,1.0,3.0,3.0,751.0854713618755,2.0,1.0,phase_1,,,,,,,,,,,,,green,square
76.0,2.0,2.0,0.0,3.0,3.0,387.7941220998764,2.0,1.0,phase_1,,,,,,,,,,,,,magenta,cross
0.0,1.0,0.0,0.0,1.0,1.0,400.9103737771511,2.0,1.0,phase_1,,,,,,,,,,,,,cyan,circle
28.0,1.0,1.0,0.0,2.0,2.0,331.7510690540075,2.0,1.0,phase_1,,,,,,,,,,,,,cyan,circle
211.0,7.0,3.0,1.0,2.0,2.0,441.3895513862371,2.0,1.0,phase_1,,,,,,,,,,,,,orange,diamond
40.0,1.0,1.0,0.0,1.0,1.0,367.0746050775051,2.0,1.0,phase_1,,,,,,,,,,,,,cyan,circle
98.0,2.0,2.0,0.0,2.0,2.0,248.8500103354454,2.0,1.0,phase_1,,,,,,,,,,,,,magenta,cross
28.0,5.0,1.0,1.0,4.0,4.0,326.5088424086571,2.0,1.0,phase_1,,,,,,,,,,,,,yellow,I
111.0,6.0,2.0,1.0,4.0,4.0,357.3270477354526,2.0,1.0,phase_1,,,,,,,,,,,,,green,square
189.0,7.0,3.0,1.0,4.0,4.0,303.2868448644876,2.0,1.0,phase_1,,,,,,,,,,,,,orange,diamond
105.0,6.0,2.0,1.0,1.0,1.0,326.2418638914823,2.0,1.0,phase_1,,,,,,,,,,,,,green,square
210.0,3.0,3.0,0.0,2.0,2.0,292.1456340700388,2.0,1.0,phase_1,,,,,,,,,,,,,white,triangle
204.0,3.0,3.0,0.0,2.0,2.0,309.5052428543567,2.0,1.0,phase_1,,,,,,,,,,,,,white,triangle
0.0,4.0,0.0,0.0,1.0,1.0,362.4807298183441,2.0,1.0,phase_1,,,,,,,,,,,,,gray,flipped triangle
188.0,3.0,3.0,0.0,3.0,3.0,352.5817859917879,2.0,1.0,phase_1,,,,,,,,,,,,,white,triangle
26.0,5.0,1.0,1.0,3.0,3.0,350.2583876252174,2.0,1.0,phase_1,,,,,,,,,,,,,yellow,I
54.0,5.0,1.0,1.0,2.0,2.0,367.9922353476286,2.0,1.0,phase_1,,,,,,,,,,,,,yellow,I
66.0,5.0,1.0,1.0,3.0,3.0,428.4472092986107,2.0,1.0,phase_1,,,,,,,,,,,,,yellow,I
119.0,2.0,2.0,0.0,3.0,3.0,421.4067682623863,2.0,1.0,phase_1,,,,,,,,,,,,,magenta,cross
178.0,3.0,3.0,0.0,2.0,2.0,451.7759922891855,2.0,2.0,phase_1,,,,,,,,,,,,,white,triangle
382.0,8.0,4.0,1.0,2.0,2.0,441.1807470023632,2.0,1.0,phase_1,,,,,,,,,,,,,blue,hexagon
408.0,8.0,4.0,1.0,2.0,2.0,382.8632570803165,2.0,1.0,phase_1,,,,,,,,,,,,,blue,hexagon
188.0,3.0,3.0,0.0,4.0,4.0,339.2034638673067,2.0,1.0,phase_1,,,,,,,,,,,,,white,triangle
0.0,7.0,0.0,1.0,4.0,4.0,646.132480353117,2.0,1.0,phase_1,,,,,,,,,,,,,orange,diamond
210.0,3.0,3.0,0.0,2.0,2.0,452.8326876461506,2.0,1.0,phase_1,,,,,,,,,,,,,white,triangle
105.0,2.0,2.0,0.0,3.0,3.0,408.4572214633226,2.0,1.0,phase_1,,,,,,,,,,,,,magenta,cross
222.0,7.0,3.0,1.0,1.0,1.0,324.0509387105703,2.0,1.0,phase_1,,,,,,,,,,,,,orange,diamond
55.0,1.0,1.0,0.0,2.0,2.0,443.2416930794716,2.0,1.0,phase_1,,,,,,,,,,,,,cyan,circle
404.0,4.0,4.0,0.0,2.0,2.0,414.7341251373291,2.0,1.0,phase_1,,,,,,,,,,,,,gray,flipped triangle
44.0,5.0,1.0,1.0,1.0,1.0,410.417715087533,2.0,1.0,phase_1,,,,,,,,,,,,,yellow,I
67.0,1.0,1.0,0.0,4.0,4.0,840.3381165117025,2.0,1.0,phase_1,,,,,,,,,,,,,cyan,circle
60.0,5.0,1.0,1.0,1.0,1.0,411.1354239284992,2.0,1.0,phase_1,,,,,,,,,,,,,yellow,I
50.0,5.0,1.0,1.0,1.0,1.0,384.0694334357977,2.0,1.0,phase_1,,,,,,,,,,,,,yellow,I
0.0,6.0,0.0,1.0,3.0,3.0,516.2231307476759,2.0,1.0,phase_1,,,,,,,,,,,,,green,square
86.0,6.0,2.0,1.0,4.0,4.0,389.3136419355869,2.0,1.0,phase_1,,,,,,,,,,,,,green,square
70.0,5.0,1.0,1.0,3.0,3.0,376.2407526373863,2.0,1.0,phase_1,,,,,,,,,,,,,yellow,I
0.0,4.0,0.0,0.0,3.0,3.0,666.6362322866917,2.0,1.0,phase_1,,,,,,,,,,,,,gray,flipped triangle
212.0,3.0,3.0,0.0,3.0,3.0,322.6253092288971,2.0,1.0,phase_1,,,,,,,,,,,,,white,triangle
0.0,7.0,0.0,1.0,1.0,1.0,395.969932898879,2.0,1.0,phase_1,,,,,,,,,,,,,orange,diamond
0.0,5.0,0.0,1.0,1.0,1.0,321.5815331786871,2.0,1.0,phase_1,,,,,,,,,,,,,yellow,I
0.0,3.0,0.0,0.0,1.0,1.0,359.3331892043352,2.0,1.0,phase_1,,,,,,,,,,,,,white,triangle
84.0,6.0,2.0,1.0,4.0,4.0,437.9747919738292,2.0,1.0,phase_1,,,,,,,,,,,,,green,square
405.0,4.0,4.0,0.0,3.0,3.0,368.3663718402385,2.0,1.0,phase_1,,,,,,,,,,,,,gray,flipped triangle
211.0,3.0,3.0,0.0,1.0,1.0,455.9141639620065,2.0,2.0,phase_1,,,,,,,,,,,,,white,triangle
224.0,7.0,3.0,1.0,3.0,3.0,407.9794809222221,2.0,1.0,phase_1,,,,,,,,,,,,,orange,diamond
409.0,4.0,4.0,0.0,3.0,3.0,363.7250531464815,2.0,1.0,phase_1,,,,,,,,,,,,,gray,flipped triangle
0.0,3.0,0.0,0.0,4.0,4.0,334.9815383553505,2.0,1.0,phase_1,,,,,,,,,,,,,white,triangle
0.0,4.0,0.0,0.0,1.0,1.0,306.5004460513592,2.0,1.0,phase_1,,,,,,,,,,,,,gray,flipped triangle
0.0,5.0,0.0,1.0,2.0,2.0,387.2447535395622,2.0,1.0,phase_1,,,,,,,,,,,,,yellow,I
113.0,2.0,2.0,0.0,1.0,1.0,428.1673915684223,2.0,1.0,phase_1,,,,,,,,,,,,,magenta,cross
66.0,1.0,1.0,0.0,1.0,1.0,395.8021234720945,2.0,1.0,phase_1,,,,,,,,,,,,,cyan,circle
191.0,7.0,3.0,1.0,1.0,1.0,567.4949157983065,2.0,1.0,phase_1,,,,,,,,,,,,,orange,diamond
76.0,6.0,2.0,1.0,4.0,4.0,482.2307284921407,2.0,1.0,phase_1,,,,,,,,,,,,,green,square
101.0,2.0,2.0,0.0,1.0,1.0,478.5425420850515,2.0,1.0,phase_1,,,,,,,,,,,,,magenta,cross
189.0,3.0,3.0,0.0,1.0,1.0,395.2874131500721,2.0,1.0,phase_1,,,,,,,,,,,,,white,triangle
384.0,8.0,4.0,1.0,4.0,4.0,404.056066647172,2.0,1.0,phase_1,,,,,,,,,,,,,blue,hexagon
181.0,7.0,3.0,1.0,4.0,4.0,455.9345133602619,2.0,1.0,phase_1,,,,,,,,,,,,,orange,diamond
176.0,7.0,3.0,1.0,1.0,1.0,547.5894082337618,2.0,1.0,phase_1,,,,,,,,,,,,,orange,diamond
77.0,2.0,2.0,0.0,4.0,4.0,440.5932947993278,2.0,1.0,phase_1,,,,,,,,,,,,,magenta,cross
389.0,8.0,4.0,1.0,4.0,4.0,506.66956417262554,2.0,1.0,phase_1,,,,,,,,,,,,,blue,hexagon
115.0,6.0,2.0,1.0,4.0,4.0,319.3953242152929,2.0,1.0,phase_1,,,,,,,,,,,,,green,square
184.0,7.0,3.0,1.0,3.0,3.0,632.494755089283,2.0,1.0,phase_1,,,,,,,,,,,,,orange,diamond
206.0,3.0,3.0,0.0,2.0,2.0,699.5686832815409,2.0,1.0,phase_1,,,,,,,,,,,,,white,triangle
31.0,5.0,1.0,1.0,2.0,2.0,609.2505436390638,2.0,1.0,phase_1,,,,,,,,,,,,,yellow,I
40.0,5.0,1.0,1.0,4.0,4.0,429.2565546929836,2.0,1.0,phase_1,,,,,,,,,,,,,yellow,I
0.0,5.0,0.0,1.0,2.0,2.0,447.0556434243917,2.0,1.0,phase_1,,,,,,,,,,,,,yellow,I
386.0,4.0,4.0,0.0,1.0,1.0,508.5065998136997,2.0,1.0,phase_1,,,,,,,,,,,,,gray,flipped triangle
78.0,2.0,2.0,0.0,3.0,3.0,683.4198459982872,2.0,1.0,phase_1,,,,,,,,,,,,,magenta,cross
417.0,8.0,4.0,1.0,3.0,3.0,401.2309145182371,2.0,1.0,phase_1,,,,,,,,,,,,,blue,hexagon
73.0,5.0,1.0,1.0,1.0,1.0,405.0092212855816,2.0,1.0,phase_1,,,,,,,,,,,,,yellow,I
210.0,7.0,3.0,1.0,3.0,3.0,489.7352289408445,2.0,1.0,phase_1,,,,,,,,,,,,,orange,diamond
55.0,1.0,1.0,0.0,1.0,1.0,397.20631390810007,2.0,1.0,phase_1,,,,,,,,,,,,,cyan,circle
224.0,3.0,3.0,0.0,4.0,4.0,402.3858588188886,2.0,1.0,phase_1,,,,,,,,,,,,,white,triangle
385.0,8.0,4.0,1.0,3.0,3.0,477.8472986072302,2.0,1.0,phase_1,,,,,,,,,,,,,blue,hexagon
28.0,5.0,1.0,1.0,4.0,4.0,769.1294886171818,2.0,2.0,phase_1,,,,,,,,,,,,,yellow,I
69.0,1.0,1.0,0.0,3.0,3.0,957.7923212200404,2.0,1.0,phase_1,,,,,,,,,,,,,cyan,circle
45.0,1.0,1.0,0.0,3.0,3.0,911.2373143434525,2.0,1.0,phase_1,,,,,,,,,,,,,cyan,circle
57.0,1.0,1.0,0.0,1.0,1.0,604.6590358018875,2.0,1.0,phase_1,,,,,,,,,,,,,cyan,circle
390.0,4.0,4.0,0.0,1.0,1.0,705.7920470833778,2.0,1.0,phase_1,,,,,,,,,,,,,gray,flipped triangle
195.0,3.0,3.0,0.0,1.0,1.0,608.3258427679539,2.0,1.0,phase_1,,,,,,,,,,,,,white,triangle
382.0,4.0,4.0,0.0,1.0,1.0,340.604679659009,2.0,1.0,phase_1,,,,,,,,,,,,,gray,flipped triangle
104.0,2.0,2.0,0.0,4.0,4.0,698.826901614666,2.0,1.0,phase_1,,,,,,,,,,,,,magenta,cross
220.0,7.0,3.0,1.0,1.0,1.0,404.6900514513254,3.0,1.0,phase_1,,,,,,,,,,,,,orange,diamond
104.0,6.0,2.0,1.0,3.0,3.0,441.5520150214433,3.0,1.0,phase_1,,,,,,,,,,,,,green,square
49.0,1.0,1.0,0.0,4.0,4.0,429.7368060797453,3.0,1.0,phase_1,,,,,,,,,,,,,cyan,circle
0.0,6.0,0.0,1.0,3.0,3.0,404.4207446277141,3.0,1.0,phase_1,,,,,,,,,,,,,green,square
0.0,1.0,0.0,0.0,3.0,3.0,505.3080637007952,3.0,1.0,phase_1,,,,,,,,,,,,,cyan,circle
92.0,2.0,2.0,0.0,4.0,4.0,555.9407714754343,3.0,1.0,phase_1,,,,,,,,,,,,,magenta,cross
422.0,8.0,4.0,1.0,4.0,4.0,384.547259658575,3.0,1.0,phase_1,,,,,,,,,,,,,blue,hexagon
0.0,2.0,0.0,0.0,2.0,2.0,351.1019628494978,3.0,1.0,phase_1,,,,,,,,,,,,,magenta,cross
121.0,2.0,2.0,0.0,3.0,3.0,674.4554489850998,3.0,1.0,phase_1,,,,,,,,,,,,,magenta,cross
0.0,7.0,0.0,1.0,1.0,1.0,598.3503721654415,3.0,1.0,phase_1,,,,,,,,,,,,,orange,diamond
378.0,8.0,4.0,1.0,4.0,4.0,437.3406898230314,3.0,1.0,phase_1,,,,,,,,,,,,,blue,hexagon
189.0,7.0,3.0,1.0,4.0,4.0,440.421212464571,3.0,1.0,phase_1,,,,,,,,,,,,,orange,diamond
402.0,4.0,4.0,0.0,2.0,2.0,536.0424797981977,3.0,1.0,phase_1,,,,,,,,,,,,,gray,flipped triangle
100.0,6.0,2.0,1.0,1.0,1.0,353.5672910511493,3.0,1.0,phase_1,,,,,,,,,,,,,green,square
0.0,6.0,0.0,1.0,2.0,2.0,936.7933627218008,3.0,1.0,phase_1,,,,,,,,,,,,,green,square
195.0,7.0,3.0,1.0,2.0,2.0,387.1060647070408,3.0,1.0,phase_1,,,,,,,,,,,,,orange,diamond
411.0,4.0,4.0,0.0,3.0,3.0,375.3956370055675,3.0,1.0,phase_1,,,,,,,,,,,,,gray,flipped triangle
178.0,3.0,3.0,0.0,1.0,1.0,351.3789363205433,3.0,1.0,phase_1,,,,,,,,,,,,,white,triangle
423.0,8.0,4.0,1.0,1.0,1.0,408.8949970901012,3.0,1.0,phase_1,,,,,,,,,,,,,blue,hexagon
31.0,1.0,1.0,0.0,2.0,2.0,384.8673552274704,3.0,1.0,phase_1,,,,,,,,,,,,,cyan,circle
39.0,5.0,1.0,1.0,1.0,1.0,835.0156303495169,3.0,1.0,phase_1,,,,,,,,,,,,,yellow,I
72.0,5.0,1.0,1.0,2.0,2.0,457.8825552016496,3.0,1.0,phase_1,,,,,,,,,,,,,yellow,I
0.0,1.0,0.0,0.0,2.0,2.0,363.7387882918119,3.0,1.0,phase_1,,,,,,,,,,,,,cyan,circle
0.0,8.0,0.0,1.0,4.0,4.0,352.2546514868736,3.0,1.0,phase_1,,,,,,,,,,,,,blue,hexagon
81.0,2.0,2.0,0.0,4.0,4.0,382.9237781465053,3.0,1.0,phase_1,,,,,,,,,,,,,magenta,cross
119.0,6.0,2.0,1.0,2.0,2.0,417.5471756607294,3.0,1.0,phase_1,,,,,,,,,,,,,green,square
38.0,5.0,1.0,1.0,4.0,4.0,409.347066655755,3.0,1.0,phase_1,,,,,,,,,,,,,yellow,I
0.0,1.0,0.0,0.0,1.0,1.0,434.7545634955168,3.0,1.0,phase_1,,,,,,,,,,,,,cyan,circle
86.0,6.0,2.0,1.0,2.0,2.0,672.3521985113621,3.0,1.0,phase_1,,,,,,,,,,,,,green,square
63.0,1.0,1.0,0.0,1.0,1.0,436.6956762969494,3.0,1.0,phase_1,,,,,,,,,,,,,cyan,circle
0.0,2.0,0.0,0.0,3.0,3.0,611.670833081007,3.0,1.0,phase_1,,,,,,,,,,,,,magenta,cross
397.0,8.0,4.0,1.0,2.0,2.0,441.0464875400066,3.0,1.0,phase_1,,,,,,,,,,,,,blue,hexagon
0.0,8.0,0.0,1.0,1.0,1.0,356.5547950565815,3.0,1.0,phase_1,,,,,,,,,,,,,blue,hexagon
100.0,2.0,2.0,0.0,1.0,1.0,343.0945910513401,3.0,1.0,phase_1,,,,,,,,,,,,,magenta,cross
415.0,4.0,4.0,0.0,4.0,4.0,334.9149748682976,3.0,1.0,phase_1,,,,,,,,,,,,,gray,flipped triangle
98.0,6.0,2.0,1.0,3.0,3.0,404.2373653501272,3.0,1.0,phase_1,,,,,,,,,,,,,green,square
0.0,6.0,0.0,1.0,2.0,2.0,383.6310710757971,3.0,1.0,phase_1,,,,,,,,,,,,,green,square
79.0,6.0,2.0,1.0,4.0,4.0,388.9325726777315,3.0,1.0,phase_1,,,,,,,,,,,,,green,square
0.0,3.0,0.0,0.0,2.0,2.0,409.1408047825098,3.0,1.0,phase_1,,,,,,,,,,,,,white,triangle
392.0,8.0,4.0,1.0,3.0,3.0,327.2942192852497,3.0,1.0,phase_1,,,,,,,,,,,,,blue,hexagon
90.0,6.0,2.0,1.0,3.0,3.0,362.8968298435211,3.0,1.0,phase_1,,,,,,,,,,,,,green,square
48.0,5.0,1.0,1.0,1.0,1.0,382.798507809639,3.0,1.0,phase_1,,,,,,,,,,,,,yellow,I
0.0,7.0,0.0,1.0,3.0,3.0,386.803476139903,3.0,1.0,phase_1,,,,,,,,,,,,,orange,diamond
398.0,8.0,4.0,1.0,2.0,2.0,432.69176594913,3.0,1.0,phase_1,,,,,,,,,,,,,blue,hexagon
377.0,4.0,4.0,0.0,3.0,3.0,411.4307072013616,3.0,1.0,phase_1,,,,,,,,,,,,,gray,flipped triangle
0.0,4.0,0.0,0.0,4.0,4.0,818.3872699737549,3.0,1.0,phase_1,,,,,,,,,,,,,gray,flipped triangle
423.0,8.0,4.0,1.0,1.0,1.0,342.2807790338993,3.0,1.0,phase_1,,,,,,,,,,,,,blue,hexagon
90.0,2.0,2.0,0.0,1.0,1.0,370.5747202038765,3.0,1.0,phase_1,,,,,,,,,,,,,magenta,cross
216.0,3.0,3.0,0.0,3.0,3.0,493.9775262027979,3.0,1.0,phase_1,,,,,,,,,,,,,white,triangle
0.0,8.0,0.0,1.0,4.0,4.0,548.0784717947245,3.0,1.0,phase_1,,,,,,,,,,,,,blue,hexagon
398.0,4.0,4.0,0.0,1.0,1.0,791.5293760597706,3.0,1.0,phase_1,,,,,,,,,,,,,gray,flipped triangle
86.0,2.0,2.0,0.0,2.0,2.0,430.9718310832977,3.0,1.0,phase_1,,,,,,,,,,,,,magenta,cross
206.0,7.0,3.0,1.0,3.0,3.0,401.1526852846145,3.0,1.0,phase_1,,,,,,,,,,,,,orange,diamond
61.0,5.0,1.0,1.0,1.0,1.0,319.0158419311046,3.0,1.0,phase_1,,,,,,,,,,,,,yellow,I
422.0,4.0,4.0,0.0,3.0,3.0,395.3899946063757,3.0,1.0,phase_1,,,,,,,,,,,,,gray,flipped triangle
386.0,8.0,4.0,1.0,1.0,1.0,465.3915446251631,3.0,1.0,phase_1,,,,,,,,,,,,,blue,hexagon
118.0,6.0,2.0,1.0,2.0,2.0,413.1803456693887,3.0,1.0,phase_1,,,,,,,,,,,,,green,square
0.0,1.0,0.0,0.0,3.0,3.0,360.2221235632896,3.0,1.0,phase_1,,,,,,,,,,,,,cyan,circle
215.0,7.0,3.0,1.0,4.0,4.0,404.7443270683288,3.0,1.0,phase_1,,,,,,,,,,,,,orange,diamond
0.0,4.0,0.0,0.0,2.0,2.0,356.4874324947595,3.0,1.0,phase_1,,,,,,,,,,,,,gray,flipped triangle
192.0,3.0,3.0,0.0,1.0,1.0,331.3138950616121,3.0,2.0,phase_1,,,,,,,,,,,,,white,triangle
109.0,6.0,2.0,1.0,3.0,3.0,439.4158963114023,3.0,1.0,phase_1,,,,,,,,,,,,,green,square
121.0,6.0,2.0,1.0,3.0,3.0,397.3971549421549,3.0,1.0,phase_1,,,,,,,,,,,,,green,square
405.0,8.0,4.0,1.0,3.0,3.0,402.5977291166782,3.0,1.0,phase_1,,,,,,,,,,,,,blue,hexagon
26.0,1.0,1.0,0.0,2.0,2.0,326.9670344889164,3.0,1.0,phase_1,,,,,,,,,,,,,cyan,circle
178.0,7.0,3.0,1.0,3.0,3.0,580.455681309104,3.0,1.0,phase_1,,,,,,,,,,,,,orange,diamond
78.0,6.0,2.0,1.0,2.0,2.0,689.8523401468992,3.0,1.0,phase_1,,,,,,,,,,,,,green,square
35.0,1.0,1.0,0.0,3.0,3.0,427.7404807507992,3.0,1.0,phase_1,,,,,,,,,,,,,cyan,circle
54.0,1.0,1.0,0.0,3.0,3.0,448.7297311425209,3.0,1.0,phase_1,,,,,,,,,,,,,cyan,circle
103.0,6.0,2.0,1.0,1.0,1.0,358.619874343276,3.0,1.0,phase_1,,,,,,,,,,,,,green,square
40.0,1.0,1.0,0.0,3.0,3.0,428.7965949624777,3.0,1.0,phase_1,,,,,,,,,,,,,cyan,circle
405.0,8.0,4.0,1.0,2.0,2.0,462.8907311707735,3.0,1.0,phase_1,,,,,,,,,,,,,blue,hexagon
0.0,3.0,0.0,0.0,4.0,4.0,412.6591179519892,3.0,1.0,phase_1,,,,,,,,,,,,,white,triangle
40.0,5.0,1.0,1.0,1.0,1.0,507.23624788224697,3.0,1.0,phase_1,,,,,,,,,,,,,yellow,I
73.0,1.0,1.0,0.0,2.0,2.0,532.3171149939299,3.0,1.0,phase_1,,,,,,,,,,,,,cyan,circle
97.0,6.0,2.0,1.0,4.0,4.0,377.4464596062898,3.0,1.0,phase_1,,,,,,,,,,,,,green,square
112.0,6.0,2.0,1.0,1.0,1.0,377.5011748075485,3.0,1.0,phase_1,,,,,,,,,,,,,green,square
419.0,8.0,4.0,1.0,1.0,1.0,397.6448439061641,3.0,1.0,phase_1,,,,,,,,,,,,,blue,hexagon
93.0,6.0,2.0,1.0,3.0,3.0,425.2630993723869,3.0,1.0,phase_1,,,,,,,,,,,,,green,square
210.0,7.0,3.0,1.0,1.0,1.0,339.5403902977705,3.0,1.0,phase_1,,,,,,,,,,,,,orange,diamond
44.0,5.0,1.0,1.0,4.0,4.0,363.4534627199173,3.0,1.0,phase_1,,,,,,,,,,,,,yellow,I
408.0,4.0,4.0,0.0,3.0,3.0,503.95042821764946,3.0,1.0,phase_1,,,,,,,,,,,,,gray,flipped triangle
0.0,2.0,0.0,0.0,3.0,3.0,621.5953547507524,3.0,1.0,phase_1,,,,,,,,,,,,,magenta,cross
0.0,7.0,0.0,1.0,1.0,1.0,673.038536682725,3.0,1.0,phase_1,,,,,,,,,,,,,orange,diamond
191.0,7.0,3.0,1.0,1.0,1.0,350.2868823707104,3.0,1.0,phase_1,,,,,,,,,,,,,orange,diamond
0.0,7.0,0.0,1.0,2.0,2.0,448.6358277499676,3.0,1.0,phase_1,,,,,,,,,,,,,orange,diamond
384.0,8.0,4.0,1.0,3.0,3.0,388.5089606046676,3.0,1.0,phase_1,,,,,,,,,,,,,blue,hexagon
121.0,6.0,2.0,1.0,1.0,1.0,380.8390460908413,3.0,1.0,phase_1,,,,,,,,,,,,,green,square
52.0,5.0,1.0,1.0,2.0,2.0,421.5163346379995,3.0,1.0,phase_1,,,,,,,,,,,,,yellow,I
403.0,8.0,4.0,1.0,1.0,1.0,460.5401158332824,3.0,1.0,phase_1,,,,,,,,,,,,,blue,hexagon
188.0,3.0,3.0,0.0,1.0,1.0,614.9194780737162,3.0,1.0,phase_1,,,,,,,,,,,,,white,triangle
206.0,7.0,3.0,1.0,2.0,2.0,460.5310242623091,3.0,1.0,phase_1,,,,,,,,,,,,,orange,diamond
0.0,4.0,0.0,0.0,2.0,2.0,404.003906995058,3.0,1.0,phase_1,,,,,,,,,,,,,gray,flipped triangle
44.0,5.0,1.0,1.0,3.0,3.0,415.6013652682304,3.0,1.0,phase_1,,,,,,,,,,,,,yellow,I
98.0,2.0,2.0,0.0,2.0,2.0,404.4016152620315,3.0,1.0,phase_1,,,,,,,,,,,,,magenta,cross
0.0,2.0,0.0,0.0,3.0,3.0,504.76100109517574,3.0,1.0,phase_1,,,,,,,,,,,,,magenta,cross
387.0,4.0,4.0,0.0,2.0,2.0,379.7085173428058,3.0,1.0,phase_1,,,,,,,,,,,,,gray,flipped triangle
423.0,4.0,4.0,0.0,3.0,3.0,359.7036842256784,3.0,1.0,phase_1,,,,,,,,,,,,,gray,flipped triangle
123.0,2.0,2.0,0.0,2.0,2.0,368.3164473623037,3.0,1.0,phase_1,,,,,,,,,,,,,magenta,cross
114.0,6.0,2.0,1.0,4.0,4.0,507.5465999543667,3.0,1.0,phase_1,,,,,,,,,,,,,green,square
60.0,1.0,1.0,0.0,2.0,2.0,572.6404376327991,4.0,1.0,phase_1,,,,,,,,,,,,,cyan,circle
216.0,7.0,3.0,1.0,2.0,2.0,410.049395635724,4.0,1.0,phase_1,,,,,,,,,,,,,orange,diamond
0.0,4.0,0.0,0.0,2.0,2.0,429.5423161238432,4.0,1.0,phase_1,,,,,,,,,,,,,gray,flipped triangle
63.0,5.0,1.0,1.0,2.0,2.0,393.3041580021381,4.0,1.0,phase_1,,,,,,,,,,,,,yellow,I
392.0,4.0,4.0,0.0,2.0,2.0,358.3359774202108,4.0,1.0,phase_1,,,,,,,,,,,,,gray,flipped triangle
110.0,6.0,2.0,1.0,2.0,2.0,290.3602160513401,4.0,1.0,phase_1,,,,,,,,,,,,,green,square
114.0,2.0,2.0,0.0,2.0,2.0,358.9448723942041,4.0,1.0,phase_1,,,,,,,,,,,,,magenta,cross
75.0,5.0,1.0,1.0,2.0,2.0,294.7832271456718,4.0,1.0,phase_1,,,,,,,,,,,,,yellow,I
0.0,8.0,0.0,1.0,4.0,4.0,478.5194601863622,4.0,2.0,phase_1,,,,,,,,,,,,,blue,hexagon
179.0,3.0,3.0,0.0,4.0,4.0,362.5619672238827,4.0,1.0,phase_1,,,,,,,,,,,,,white,triangle
219.0,3.0,3.0,0.0,2.0,2.0,498.5168483108282,4.0,1.0,phase_1,,,,,,,,,,,,,white,triangle
114.0,6.0,2.0,1.0,2.0,2.0,444.0186936408281,4.0,1.0,phase_1,,,,,,,,,,,,,green,square
103.0,2.0,2.0,0.0,1.0,1.0,601.6683019697666,4.0,1.0,phase_1,,,,,,,,,,,,,magenta,cross
188.0,7.0,3.0,1.0,4.0,4.0,726.4645863324404,4.0,1.0,phase_1,,,,,,,,,,,,,orange,diamond
0.0,6.0,0.0,1.0,2.0,2.0,547.1518151462078,4.0,1.0,phase_1,,,,,,,,,,,,,green,square
410.0,4.0,4.0,0.0,1.0,1.0,486.8271090090275,4.0,1.0,phase_1,,,,,,,,,,,,,gray,flipped triangle
184.0,3.0,3.0,0.0,4.0,4.0,526.2783728539944,4.0,1.0,phase_1,,,,,,,,,,,,,white,triangle
121.0,2.0,2.0,0.0,4.0,4.0,864.4092492759228,4.0,1.0,phase_1,,,,,,,,,,,,,magenta,cross
423.0,4.0,4.0,0.0,4.0,4.0,631.4193475991488,4.0,1.0,phase_1,,,,,,,,,,,,,gray,flipped triangle
392.0,8.0,4.0,1.0,2.0,2.0,561.4745039492846,4.0,1.0,phase_1,,,,,,,,,,,,,blue,hexagon
69.0,5.0,1.0,1.0,1.0,1.0,456.5853346139192,4.0,1.0,phase_1,,,,,,,,,,,,,yellow,I
388.0,4.0,4.0,0.0,4.0,4.0,530.1066003739834,4.0,1.0,phase_1,,,,,,,,,,,,,gray,flipped triangle
48.0,1.0,1.0,0.0,1.0,1.0,514.0111111104488,4.0,1.0,phase_1,,,,,,,,,,,,,cyan,circle
377.0,4.0,4.0,0.0,3.0,3.0,519.7474677115679,4.0,1.0,phase_1,,,,,,,,,,,,,gray,flipped triangle
420.0,4.0,4.0,0.0,1.0,1.0,385.1348012685776,4.0,1.0,phase_1,,,,,,,,,,,,,gray,flipped triangle
0.0,8.0,0.0,1.0,2.0,2.0,477.1390911191702,4.0,1.0,phase_1,,,,,,,,,,,,,blue,hexagon
388.0,8.0,4.0,1.0,4.0,4.0,650.2027064561844,4.0,1.0,phase_1,,,,,,,,,,,,,blue,hexagon
0.0,7.0,0.0,1.0,1.0,1.0,360.5182040482759,4.0,1.0,phase_1,,,,,,,,,,,,,orange,diamond
384.0,4.0,4.0,0.0,4.0,4.0,477.0514611154794,4.0,1.0,phase_1,,,,,,,,,,,,,gray,flipped triangle
112.0,2.0,2.0,0.0,1.0,1.0,359.5101349055767,4.0,1.0,phase_1,,,,,,,,,,,,,magenta,cross
0.0,3.0,0.0,0.0,3.0,3.0,527.12582051754,4.0,1.0,phase_1,,,,,,,,,,,,,white,triangle
0.0,1.0,0.0,0.0,2.0,2.0,626.7370004206896,4.0,1.0,phase_1,,,,,,,,,,,,,cyan,circle
35.0,5.0,1.0,1.0,2.0,2.0,462.9364293068647,4.0,1.0,phase_1,,,,,,,,,,,,,yellow,I
45.0,5.0,1.0,1.0,3.0,3.0,483.7402254343033,4.0,1.0,phase_1,,,,,,,,,,,,,yellow,I
219.0,7.0,3.0,1.0,2.0,2.0,479.9177665263414,4.0,1.0,phase_1,,,,,,,,,,,,,orange,diamond
179.0,7.0,3.0,1.0,2.0,2.0,559.7262121737003,4.0,1.0,phase_1,,,,,,,,,,,,,orange,diamond
210.0,7.0,3.0,1.0,4.0,4.0,427.2917490452528,4.0,1.0,phase_1,,,,,,,,,,,,,orange,diamond
0.0,5.0,0.0,1.0,3.0,3.0,575.6170526146889,4.0,1.0,phase_1,,,,,,,,,,,,,yellow,I
103.0,2.0,2.0,0.0,3.0,3.0,458.0041784793138,4.0,1.0,phase_1,,,,,,,,,,,,,magenta,cross
118.0,2.0,2.0,0.0,3.0,3.0,433.9195266366005,4.0,1.0,phase_1,,,,,,,,,,,,,magenta,cross
0.0,6.0,0.0,1.0,2.0,2.0,396.0556723177433,4.0,1.0,phase_1,,,,,,,,,,,,,green,square
92.0,6.0,2.0,1.0,2.0,2.0,384.7564440220594,4.0,1.0,phase_1,,,,,,,,,,,,,green,square
26.0,5.0,1.0,1.0,1.0,1.0,328.5394478589296,4.0,1.0,phase_1,,,,,,,,,,,,,yellow,I
392.0,4.0,4.0,0.0,2.0,2.0,484.9366806447506,4.0,1.0,phase_1,,,,,,,,,,,,,gray,flipped triangle
191.0,3.0,3.0,0.0,2.0,2.0,600.2238281071186,4.0,1.0,phase_1,,,,,,,,,,,,,white,triangle
61.0,1.0,1.0,0.0,1.0,1.0,483.6117383092642,4.0,1.0,phase_1,,,,,,,,,,,,,cyan,circle
378.0,4.0,4.0,0.0,4.0,4.0,399.1685826331377,4.0,1.0,phase_1,,,,,,,,,,,,,gray,flipped triangle
377.0,8.0,4.0,1.0,1.0,1.0,380.1133036613464,4.0,1.0,phase_1,,,,,,,,,,,,,blue,hexagon
55.0,1.0,1.0,0.0,1.0,1.0,553.2640777528286,4.0,1.0,phase_1,,,,,,,,,,,,,cyan,circle
84.0,2.0,2.0,0.0,4.0,4.0,487.6803178340196,4.0,1.0,phase_1,,,,,,,,,,,,,magenta,cross
409.0,8.0,4.0,1.0,3.0,3.0,442.3165451735258,4.0,1.0,phase_1,,,,,,,,,,,,,blue,hexagon
0.0,5.0,0.0,1.0,1.0,1.0,335.1560477167368,4.0,1.0,phase_1,,,,,,,,,,,,,yellow,I
415.0,8.0,4.0,1.0,4.0,4.0,510.55552437901497,4.0,1.0,phase_1,,,,,,,,,,,,,blue,hexagon
403.0,4.0,4.0,0.0,2.0,2.0,433.2042504101991,4.0,1.0,phase_1,,,,,,,,,,,,,gray,flipped triangle
394.0,8.0,4.0,1.0,3.0,3.0,404.9546718597412,4.0,1.0,phase_1,,,,,,,,,,,,,blue,hexagon
60.0,1.0,1.0,0.0,4.0,4.0,314.2976686358452,4.0,1.0,phase_1,,,,,,,,,,,,,cyan,circle
49.0,5.0,1.0,1.0,4.0,4.0,441.3830935955047,4.0,1.0,phase_1,,,,,,,,,,,,,yellow,I
207.0,3.0,3.0,0.0,3.0,3.0,241.8802753090858,4.0,2.0,phase_1,,,,,,,,,,,,,white,triangle
403.0,8.0,4.0,1.0,4.0,4.0,428.7870991975069,4.0,1.0,phase_1,,,,,,,,,,,,,blue,hexagon
0.0,2.0,0.0,0.0,3.0,3.0,416.9147741049528,4.0,1.0,phase_1,,,,,,,,,,,,,magenta,cross
93.0,2.0,2.0,0.0,2.0,2.0,518.4984505176544,4.0,1.0,phase_1,,,,,,,,,,,,,magenta,cross
0.0,2.0,0.0,0.0,2.0,2.0,458.4268108010292,4.0,1.0,phase_1,,,,,,,,,,,,,magenta,cross
190.0,3.0,3.0,0.0,1.0,1.0,458.2143053412437,4.0,1.0,phase_1,,,,,,,,,,,,,white,triangle
0.0,6.0,0.0,1.0,2.0,2.0,444.6520656347275,4.0,1.0,phase_1,,,,,,,,,,,,,green,square
0.0,5.0,0.0,1.0,4.0,4.0,748.560942709446,4.0,1.0,phase_1,,,,,,,,,,,,,yellow,I
0.0,7.0,0.0,1.0,2.0,2.0,549.3370667099953,4.0,1.0,phase_1,,,,,,,,,,,,,orange,diamond
417.0,4.0,4.0,0.0,1.0,1.0,396.7225924134254,4.0,1.0,phase_1,,,,,,,,,,,,,gray,flipped triangle
410.0,8.0,4.0,1.0,2.0,2.0,449.6743343770504,4.0,1.0,phase_1,,,,,,,,,,,,,blue,hexagon
384.0,4.0,4.0,0.0,1.0,1.0,427.3750949651003,4.0,1.0,phase_1,,,,,,,,,,,,,gray,flipped triangle
37.0,1.0,1.0,0.0,4.0,4.0,245.6309832632541,4.0,2.0,phase_1,,,,,,,,,,,,,cyan,circle
387.0,8.0,4.0,1.0,1.0,1.0,468.0351261049509,4.0,1.0,phase_1,,,,,,,,,,,,,blue,hexagon
28.0,1.0,1.0,0.0,3.0,3.0,470.1892752200365,4.0,1.0,phase_1,,,,,,,,,,,,,cyan,circle
101.0,6.0,2.0,1.0,1.0,1.0,491.8093681335449,4.0,1.0,phase_1,,,,,,,,,,,,,green,square
415.0,8.0,4.0,1.0,1.0,1.0,383.9182015508413,4.0,1.0,phase_1,,,,,,,,,,,,,blue,hexagon
39.0,1.0,1.0,0.0,2.0,2.0,566.3187243044376,4.0,1.0,phase_1,,,,,,,,,,,,,cyan,circle
0.0,4.0,0.0,0.0,1.0,1.0,547.4058091640472,4.0,1.0,phase_1,,,,,,,,,,,,,gray,flipped triangle
44.0,1.0,1.0,0.0,2.0,2.0,390.0222685188055,4.0,1.0,phase_1,,,,,,,,,,,,,cyan,circle
411.0,4.0,4.0,0.0,4.0,4.0,506.3596908003092,4.0,1.0,phase_1,,,,,,,,,,,,,gray,flipped triangle
403.0,8.0,4.0,1.0,3.0,3.0,546.9671152532101,4.0,1.0,phase_1,,,,,,,,,,,,,blue,hexagon
176.0,7.0,3.0,1.0,1.0,1.0,325.5448974668979,4.0,1.0,phase_1,,,,,,,,,,,,,orange,diamond
0.0,4.0,0.0,0.0,3.0,3.0,521.001048386097,4.0,1.0,phase_1,,,,,,,,,,,,,gray,flipped triangle
0.0,7.0,0.0,1.0,2.0,2.0,352.4016719311476,4.0,1.0,phase_1,,,,,,,,,,,,,orange,diamond
110.0,2.0,2.0,0.0,1.0,1.0,371.035972610116,4.0,1.0,phase_1,,,,,,,,,,,,,magenta,cross
97.0,2.0,2.0,0.0,4.0,4.0,592.4299024045467,4.0,1.0,phase_1,,,,,,,,,,,,,magenta,cross
198.0,3.0,3.0,0.0,3.0,3.0,597.52107411623,4.0,1.0,phase_1,,,,,,,,,,,,,white,triangle
89.0,2.0,2.0,0.0,2.0,2.0,396.5047765523195,4.0,3.0,phase_1,,,,,,,,,,,,,magenta,cross
75.0,1.0,1.0,0.0,4.0,4.0,725.5920432507992,4.0,1.0,phase_1,,,,,,,,,,,,,cyan,circle
0.0,1.0,0.0,0.0,2.0,2.0,531.3877984881401,4.0,1.0,phase_1,,,,,,,,,,,,,cyan,circle
215.0,3.0,3.0,0.0,3.0,3.0,577.3891936987638,4.0,1.0,phase_1,,,,,,,,,,,,,white,triangle
178.0,7.0,3.0,1.0,3.0,3.0,398.981774225831,4.0,1.0,phase_1,,,,,,,,,,,,,orange,diamond
0.0,5.0,0.0,1.0,3.0,3.0,356.3863486051559,4.0,1.0,phase_1,,,,,,,,,,,,,yellow,I
0.0,7.0,0.0,1.0,1.0,1.0,399.07963387668127,4.0,1.0,phase_1,,,,,,,,,,,,,orange,diamond
109.0,2.0,2.0,0.0,4.0,4.0,578.0392959713936,4.0,1.0,phase_1,,,,,,,,,,,,,magenta,cross
81.0,6.0,2.0,1.0,4.0,4.0,416.2033442407846,4.0,1.0,phase_1,,,,,,,,,,,,,green,square
0.0,3.0,0.0,0.0,1.0,1.0,404.058251529932,4.0,1.0,phase_1,,,,,,,,,,,,,white,triangle
394.0,4.0,4.0,0.0,2.0,2.0,687.4495055526495,4.0,1.0,phase_1,,,,,,,,,,,,,gray,flipped triangle
36.0,5.0,1.0,1.0,4.0,4.0,381.5066199749708,4.0,1.0,phase_1,,,,,,,,,,,,,yellow,I
189.0,3.0,3.0,0.0,4.0,4.0,404.335543513298,4.0,1.0,phase_1,,,,,,,,,,,,,white,triangle
404.0,8.0,4.0,1.0,4.0,4.0,345.45964375138277,4.0,1.0,phase_1,,,,,,,,,,,,,blue,hexagon
411.0,8.0,4.0,1.0,3.0,3.0,525.5091246217489,4.0,1.0,phase_1,,,,,,,,,,,,,blue,hexagon
0.0,3.0,3.0,0.0,6.0,6.0,617.1507053077221,1.0,1.0,phase_2,go,250.0,250.0,1.0,,,,,,,,,white,triangle
0.0,1.0,1.0,0.0,5.0,5.0,472.652992233634,1.0,1.0,phase_2,go,250.0,250.0,1.0,,,,,,,,,cyan,circle
0.0,1.0,1.0,0.0,5.0,5.0,446.7176478356123,1.0,1.0,phase_2,go,250.0,250.0,1.0,,,,,,,,,cyan,circle
0.0,8.0,4.0,1.0,6.0,6.0,512.3844891786575,1.0,1.0,phase_2,stop,250.0,250.0,3.0,,,,,,,,,blue,hexagon
0.0,2.0,2.0,0.0,5.0,5.0,422.3488122224808,1.0,1.0,phase_2,go,250.0,200.0,1.0,,,,,,,,,magenta,cross
0.0,7.0,3.0,1.0,6.0,0.0,0.0,1.0,1.0,phase_2,stop,250.0,200.0,4.0,,,,,,,,,orange,diamond
0.0,8.0,4.0,1.0,6.0,0.0,0.0,1.0,1.0,phase_2,stop,250.0,250.0,4.0,,,,,,,,,blue,hexagon
0.0,6.0,2.0,1.0,6.0,6.0,513.3593901991844,1.0,1.0,phase_2,go,250.0,300.0,1.0,,,,,,,,,green,square
0.0,2.0,2.0,0.0,5.0,5.0,436.0487982630729,1.0,1.0,phase_2,go,250.0,300.0,1.0,,,,,,,,,magenta,cross
0.0,6.0,2.0,1.0,5.0,5.0,354.6868208795786,1.0,1.0,phase_2,stop,250.0,300.0,3.0,,,,,,,,,green,square
0.0,5.0,1.0,1.0,5.0,0.0,0.0,1.0,1.0,phase_2,stop,200.0,300.0,4.0,,,,,,,,,yellow,I
0.0,1.0,1.0,0.0,6.0,6.0,378.3269990235567,1.0,1.0,phase_2,go,250.0,300.0,1.0,,,,,,,,,cyan,circle
0.0,2.0,2.0,0.0,5.0,5.0,353.1310278922319,1.0,1.0,phase_2,go,250.0,300.0,1.0,,,,,,,,,magenta,cross
0.0,7.0,3.0,1.0,6.0,6.0,288.5376121848821,1.0,1.0,phase_2,stop,250.0,300.0,3.0,,,,,,,,,orange,diamond
0.0,3.0,3.0,0.0,5.0,5.0,416.2532240152359,1.0,1.0,phase_2,go,250.0,250.0,1.0,,,,,,,,,white,triangle
0.0,6.0,2.0,1.0,6.0,0.0,0.0,1.0,1.0,phase_2,stop,250.0,250.0,4.0,,,,,,,,,green,square
0.0,7.0,3.0,1.0,6.0,0.0,0.0,1.0,1.0,phase_2,stop,250.0,300.0,4.0,,,,,,,,,orange,diamond
0.0,6.0,2.0,1.0,5.0,5.0,392.2958187758922,1.0,1.0,phase_2,stop,250.0,350.0,3.0,,,,,,,,,green,square
0.0,2.0,2.0,0.0,6.0,6.0,583.346601575613,1.0,1.0,phase_2,go,200.0,350.0,1.0,,,,,,,,,magenta,cross
0.0,8.0,4.0,1.0,5.0,5.0,524.7243475168943,1.0,1.0,phase_2,go,200.0,350.0,1.0,,,,,,,,,blue,hexagon
0.0,2.0,2.0,0.0,6.0,6.0,317.6079373806715,1.0,1.0,phase_2,go,200.0,350.0,1.0,,,,,,,,,magenta,cross
0.0,5.0,1.0,1.0,6.0,6.0,348.3440782874822,1.0,1.0,phase_2,go,200.0,350.0,1.0,,,,,,,,,yellow,I
0.0,8.0,4.0,1.0,6.0,6.0,428.0703887343406,1.0,1.0,phase_2,go,200.0,350.0,1.0,,,,,,,,,blue,hexagon
0.0,6.0,2.0,1.0,5.0,5.0,428.4577965736389,1.0,1.0,phase_2,stop,200.0,350.0,3.0,,,,,,,,,green,square
0.0,3.0,3.0,0.0,5.0,5.0,626.5839152038097,1.0,1.0,phase_2,go,150.0,350.0,1.0,,,,,,,,,white,triangle
0.0,3.0,3.0,0.0,6.0,6.0,322.4024008959532,1.0,1.0,phase_2,go,150.0,350.0,1.0,,,,,,,,,white,triangle
0.0,6.0,2.0,1.0,6.0,6.0,344.3921934813261,1.0,1.0,phase_2,go,150.0,350.0,1.0,,,,,,,,,green,square
0.0,6.0,2.0,1.0,6.0,6.0,305.4321855306625,1.0,1.0,phase_2,stop,150.0,350.0,3.0,,,,,,,,,green,square
0.0,5.0,1.0,1.0,5.0,0.0,0.0,1.0,1.0,phase_2,stop,150.0,300.0,4.0,,,,,,,,,yellow,I
0.0,6.0,2.0,1.0,5.0,5.0,409.0466201305389,1.0,1.0,phase_2,go,200.0,300.0,1.0,,,,,,,,,green,square
0.0,3.0,3.0,0.0,5.0,5.0,397.6922035217285,1.0,1.0,phase_2,go,200.0,300.0,1.0,,,,,,,,,white,triangle
0.0,5.0,1.0,1.0,5.0,5.0,403.9644636213779,1.0,1.0,phase_2,stop,200.0,300.0,3.0,,,,,,,,,yellow,I
0.0,4.0,4.0,0.0,5.0,5.0,387.4304387718439,1.0,1.0,phase_2,go,150.0,300.0,1.0,,,,,,,,,gray,flipped triangle
0.0,4.0,4.0,0.0,6.0,6.0,509.3225687742233,1.0,1.0,phase_2,go,150.0,300.0,1.0,,,,,,,,,gray,flipped triangle
0.0,6.0,2.0,1.0,5.0,0.0,0.0,1.0,1.0,phase_2,stop,150.0,300.0,4.0,,,,,,,,,green,square
0.0,8.0,4.0,1.0,5.0,0.0,0.0,1.0,1.0,phase_2,stop,200.0,300.0,4.0,,,,,,,,,blue,hexagon
0.0,4.0,4.0,0.0,6.0,6.0,771.7812899500132,2.0,1.0,phase_2,go,250.0,300.0,1.0,,,,,,,,,gray,flipped triangle
0.0,7.0,3.0,1.0,5.0,5.0,440.6523983925581,2.0,1.0,phase_2,go,250.0,300.0,1.0,,,,,,,,,orange,diamond
0.0,3.0,3.0,0.0,6.0,6.0,400.1192934811115,2.0,1.0,phase_2,go,250.0,300.0,1.0,,,,,,,,,white,triangle
0.0,4.0,4.0,0.0,5.0,5.0,378.300467506051,2.0,1.0,phase_2,go,250.0,300.0,1.0,,,,,,,,,gray,flipped triangle
0.0,2.0,2.0,0.0,6.0,6.0,391.6846420615911,2.0,1.0,phase_2,go,250.0,300.0,1.0,,,,,,,,,magenta,cross
0.0,5.0,1.0,1.0,5.0,0.0,0.0,2.0,1.0,phase_2,stop,250.0,300.0,4.0,,,,,,,,,yellow,I
0.0,5.0,1.0,1.0,6.0,6.0,362.5573497265577,2.0,1.0,phase_2,stop,300.0,300.0,3.0,,,,,,,,,yellow,I
0.0,4.0,4.0,0.0,6.0,6.0,910.4642681777476,2.0,1.0,phase_2,go,300.0,250.0,1.0,,,,,,,,,gray,flipped triangle
0.0,7.0,3.0,1.0,5.0,0.0,0.0,2.0,1.0,phase_2,stop,300.0,250.0,4.0,,,,,,,,,orange,diamond
0.0,1.0,1.0,0.0,5.0,5.0,484.6782274544239,2.0,1.0,phase_2,go,350.0,250.0,1.0,,,,,,,,,cyan,circle
0.0,7.0,3.0,1.0,6.0,6.0,391.0748027265072,2.0,1.0,phase_2,stop,350.0,250.0,3.0,,,,,,,,,orange,diamond
0.0,6.0,2.0,1.0,6.0,0.0,0.0,2.0,1.0,phase_2,stop,350.0,200.0,4.0,,,,,,,,,green,square
0.0,6.0,2.0,1.0,5.0,0.0,0.0,2.0,1.0,phase_2,stop,350.0,250.0,4.0,,,,,,,,,green,square
0.0,6.0,2.0,1.0,5.0,5.0,469.8569476604461,2.0,1.0,phase_2,go,400.0,250.0,1.0,,,,,,,,,green,square
0.0,4.0,4.0,0.0,6.0,6.0,337.7963602542877,2.0,1.0,phase_2,go,400.0,250.0,1.0,,,,,,,,,gray,flipped triangle
0.0,5.0,1.0,1.0,5.0,5.0,415.4335651546716,2.0,1.0,phase_2,stop,400.0,250.0,3.0,,,,,,,,,yellow,I
0.0,8.0,4.0,1.0,6.0,6.0,539.6323092281818,2.0,1.0,phase_2,go,350.0,250.0,1.0,,,,,,,,,blue,hexagon
0.0,2.0,2.0,0.0,5.0,5.0,480.0353199243545,2.0,1.0,phase_2,go,350.0,250.0,1.0,,,,,,,,,magenta,cross
0.0,5.0,1.0,1.0,5.0,5.0,346.5412314981222,2.0,1.0,phase_2,stop,350.0,250.0,3.0,,,,,,,,,yellow,I
0.0,7.0,3.0,1.0,6.0,0.0,0.0,2.0,1.0,phase_2,stop,300.0,250.0,4.0,,,,,,,,,orange,diamond
0.0,4.0,4.0,0.0,6.0,6.0,450.5523983389139,2.0,1.0,phase_2,go,300.0,300.0,1.0,,,,,,,,,gray,flipped triangle
0.0,8.0,4.0,1.0,5.0,5.0,333.7460178881883,2.0,1.0,phase_2,stop,300.0,300.0,3.0,,,,,,,,,blue,hexagon
0.0,3.0,3.0,0.0,6.0,6.0,502.1023079752922,2.0,1.0,phase_2,go,250.0,300.0,1.0,,,,,,,,,white,triangle
0.0,2.0,2.0,0.0,5.0,5.0,420.8615161478519,2.0,1.0,phase_2,go,250.0,300.0,1.0,,,,,,,,,magenta,cross
0.0,4.0,4.0,0.0,6.0,6.0,275.8887317031622,2.0,1.0,phase_2,go,250.0,300.0,1.0,,,,,,,,,gray,flipped triangle
0.0,8.0,4.0,1.0,6.0,6.0,414.0556678175926,2.0,1.0,phase_2,stop,250.0,300.0,3.0,,,,,,,,,blue,hexagon
0.0,8.0,4.0,1.0,6.0,0.0,0.0,2.0,1.0,phase_2,stop,250.0,250.0,4.0,,,,,,,,,blue,hexagon
0.0,4.0,4.0,0.0,6.0,6.0,661.989089101553,2.0,1.0,phase_2,go,250.0,300.0,1.0,,,,,,,,,gray,flipped triangle
0.0,6.0,2.0,1.0,5.0,5.0,898.8513257354498,2.0,1.0,phase_2,go,250.0,300.0,1.0,,,,,,,,,green,square
0.0,1.0,1.0,0.0,5.0,5.0,497.9575145989656,2.0,1.0,phase_2,go,250.0,300.0,1.0,,,,,,,,,cyan,circle
0.0,6.0,2.0,1.0,5.0,0.0,0.0,2.0,1.0,phase_2,stop,250.0,300.0,4.0,,,,,,,,,green,square
0.0,3.0,3.0,0.0,5.0,5.0,456.6578678786754,2.0,1.0,phase_2,go,300.0,300.0,1.0,,,,,,,,,white,triangle
0.0,5.0,1.0,1.0,6.0,6.0,451.3212721794843,2.0,1.0,phase_2,stop,300.0,300.0,3.0,,,,,,,,,yellow,I
0.0,3.0,3.0,0.0,6.0,6.0,546.3926326483488,2.0,1.0,phase_2,go,300.0,250.0,1.0,,,,,,,,,white,triangle
0.0,4.0,4.0,0.0,6.0,6.0,462.8739487379789,2.0,1.0,phase_2,go,300.0,250.0,1.0,,,,,,,,,gray,flipped triangle
0.0,5.0,1.0,1.0,6.0,0.0,0.0,2.0,1.0,phase_2,stop,300.0,250.0,4.0,,,,,,,,,yellow,I
0.0,4.0,4.0,0.0,6.0,6.0,610.9608914703131,3.0,1.0,phase_2,go,300.0,300.0,1.0,,,,,,,,,gray,flipped triangle
0.0,7.0,3.0,1.0,6.0,6.0,454.8651296645403,3.0,1.0,phase_2,stop,300.0,300.0,3.0,,,,,,,,,orange,diamond
0.0,7.0,3.0,1.0,5.0,5.0,438.2787924259901,3.0,1.0,phase_2,stop,300.0,250.0,3.0,,,,,,,,,orange,diamond
0.0,6.0,2.0,1.0,6.0,0.0,0.0,3.0,1.0,phase_2,stop,250.0,250.0,4.0,,,,,,,,,green,square
0.0,4.0,4.0,0.0,6.0,6.0,463.513009250164,3.0,1.0,phase_2,go,250.0,300.0,1.0,,,,,,,,,gray,flipped triangle
0.0,2.0,2.0,0.0,6.0,6.0,428.3771812915802,3.0,1.0,phase_2,go,250.0,300.0,1.0,,,,,,,,,magenta,cross
0.0,4.0,4.0,0.0,6.0,6.0,463.5452963411808,3.0,1.0,phase_2,go,250.0,300.0,1.0,,,,,,,,,gray,flipped triangle
0.0,2.0,2.0,0.0,6.0,6.0,490.7074924558401,3.0,1.0,phase_2,go,250.0,300.0,1.0,,,,,,,,,magenta,cross
0.0,3.0,3.0,0.0,5.0,5.0,490.0982715189457,3.0,1.0,phase_2,go,250.0,300.0,1.0,,,,,,,,,white,triangle
0.0,5.0,1.0,1.0,5.0,0.0,0.0,3.0,1.0,phase_2,stop,250.0,300.0,4.0,,,,,,,,,yellow,I
0.0,7.0,3.0,1.0,6.0,0.0,0.0,3.0,1.0,phase_2,stop,300.0,300.0,4.0,,,,,,,,,orange,diamond
0.0,6.0,2.0,1.0,5.0,5.0,458.0596182495355,3.0,1.0,phase_2,stop,300.0,350.0,3.0,,,,,,,,,green,square
0.0,1.0,1.0,0.0,6.0,6.0,455.9004250913858,3.0,1.0,phase_2,go,250.0,350.0,1.0,,,,,,,,,cyan,circle
0.0,7.0,3.0,1.0,5.0,0.0,0.0,3.0,1.0,phase_2,stop,250.0,350.0,4.0,,,,,,,,,orange,diamond
0.0,1.0,1.0,0.0,5.0,5.0,505.9638638049364,3.0,1.0,phase_2,go,300.0,350.0,1.0,,,,,,,,,cyan,circle
0.0,1.0,1.0,0.0,5.0,5.0,529.2135085910559,3.0,1.0,phase_2,go,300.0,350.0,1.0,,,,,,,,,cyan,circle
0.0,4.0,4.0,0.0,5.0,5.0,608.6252201348543,3.0,1.0,phase_2,go,300.0,350.0,1.0,,,,,,,,,gray,flipped triangle
0.0,2.0,2.0,0.0,5.0,5.0,509.54946503043175,3.0,1.0,phase_2,go,300.0,350.0,1.0,,,,,,,,,magenta,cross
0.0,1.0,1.0,0.0,6.0,6.0,383.116427809,3.0,1.0,phase_2,go,300.0,350.0,1.0,,,,,,,,,cyan,circle
0.0,8.0,4.0,1.0,5.0,5.0,470.9683265537023,3.0,1.0,phase_2,go,300.0,350.0,1.0,,,,,,,,,blue,hexagon
0.0,4.0,4.0,0.0,6.0,6.0,357.8276932239532,3.0,1.0,phase_2,go,300.0,350.0,1.0,,,,,,,,,gray,flipped triangle
0.0,1.0,1.0,0.0,6.0,6.0,469.2187681794166,3.0,1.0,phase_2,go,300.0,350.0,1.0,,,,,,,,,cyan,circle
0.0,3.0,3.0,0.0,6.0,6.0,373.7722970545292,3.0,1.0,phase_2,go,300.0,350.0,1.0,,,,,,,,,white,triangle
0.0,6.0,2.0,1.0,5.0,5.0,402.5721829384565,3.0,1.0,phase_2,stop,300.0,350.0,3.0,,,,,,,,,green,square
0.0,6.0,2.0,1.0,5.0,5.0,369.695546105504,3.0,1.0,phase_2,stop,250.0,350.0,3.0,,,,,,,,,green,square
0.0,6.0,2.0,1.0,5.0,0.0,0.0,3.0,1.0,phase_2,stop,200.0,350.0,4.0,,,,,,,,,green,square
0.0,8.0,4.0,1.0,6.0,6.0,403.2319281250238,3.0,1.0,phase_2,go,250.0,350.0,1.0,,,,,,,,,blue,hexagon
0.0,1.0,1.0,0.0,5.0,5.0,440.1269741356373,3.0,1.0,phase_2,go,250.0,350.0,1.0,,,,,,,,,cyan,circle
0.0,8.0,4.0,1.0,5.0,0.0,0.0,3.0,1.0,phase_2,stop,250.0,350.0,4.0,,,,,,,,,blue,hexagon
0.0,6.0,2.0,1.0,5.0,0.0,0.0,3.0,1.0,phase_2,stop,300.0,350.0,4.0,,,,,,,,,green,square
0.0,5.0,1.0,1.0,6.0,6.0,449.8133044689894,3.0,1.0,phase_2,stop,350.0,350.0,3.0,,,,,,,,,yellow,I
0.0,1.0,1.0,0.0,5.0,5.0,534.608805552125,3.0,1.0,phase_2,go,350.0,300.0,1.0,,,,,,,,,cyan,circle
0.0,4.0,4.0,0.0,5.0,5.0,544.9139755219221,3.0,1.0,phase_2,go,350.0,300.0,1.0,,,,,,,,,gray,flipped triangle
0.0,6.0,2.0,1.0,6.0,6.0,324.1671603173017,3.0,1.0,phase_2,stop,350.0,300.0,3.0,,,,,,,,,green,square
0.0,6.0,2.0,1.0,6.0,0.0,0.0,3.0,1.0,phase_2,stop,350.0,250.0,4.0,,,,,,,,,green,square
0.0,5.0,1.0,1.0,5.0,0.0,0.0,3.0,1.0,phase_2,stop,350.0,300.0,4.0,,,,,,,,,yellow,I
0.0,2.0,2.0,0.0,5.0,5.0,937.6469012349844,4.0,1.0,phase_2,go,400.0,300.0,1.0,,,,,,,,,magenta,cross
0.0,7.0,3.0,1.0,6.0,6.0,423.8566160202026,4.0,1.0,phase_2,stop,400.0,300.0,3.0,,,,,,,,,orange,diamond
0.0,3.0,3.0,0.0,5.0,5.0,621.3938854634762,4.0,1.0,phase_2,go,400.0,250.0,1.0,,,,,,,,,white,triangle
0.0,2.0,2.0,0.0,6.0,6.0,365.1489559561014,4.0,1.0,phase_2,go,400.0,250.0,1.0,,,,,,,,,magenta,cross
0.0,7.0,3.0,1.0,6.0,6.0,380.1527749747038,4.0,1.0,phase_2,stop,400.0,250.0,3.0,,,,,,,,,orange,diamond
0.0,5.0,1.0,1.0,6.0,6.0,388.3466981351375,4.0,1.0,phase_2,stop,400.0,200.0,3.0,,,,,,,,,yellow,I
0.0,7.0,3.0,1.0,5.0,5.0,485.9837349504232,4.0,1.0,phase_2,go,400.0,150.0,1.0,,,,,,,,,orange,diamond
0.0,3.0,3.0,0.0,5.0,5.0,403.1314495950937,4.0,1.0,phase_2,go,400.0,150.0,1.0,,,,,,,,,white,triangle
0.0,1.0,1.0,0.0,5.0,5.0,419.7577722370624,4.0,1.0,phase_2,go,400.0,150.0,1.0,,,,,,,,,cyan,circle
0.0,7.0,3.0,1.0,6.0,0.0,0.0,4.0,1.0,phase_2,stop,400.0,150.0,4.0,,,,,,,,,orange,diamond
0.0,8.0,4.0,1.0,6.0,0.0,0.0,4.0,1.0,phase_2,stop,400.0,200.0,4.0,,,,,,,,,blue,hexagon
0.0,3.0,3.0,0.0,6.0,6.0,539.6989472210407,4.0,1.0,phase_2,go,400.0,250.0,1.0,,,,,,,,,white,triangle
0.0,5.0,1.0,1.0,6.0,0.0,0.0,4.0,1.0,phase_2,stop,400.0,250.0,4.0,,,,,,,,,yellow,I
0.0,2.0,2.0,0.0,6.0,6.0,687.8149323165417,4.0,1.0,phase_2,go,400.0,300.0,1.0,,,,,,,,,magenta,cross
0.0,3.0,3.0,0.0,6.0,6.0,439.0523694455623,4.0,1.0,phase_2,go,400.0,300.0,1.0,,,,,,,,,white,triangle
0.0,5.0,1.0,1.0,5.0,5.0,462.4098017811775,4.0,1.0,phase_2,go,400.0,300.0,1.0,,,,,,,,,yellow,I
0.0,4.0,4.0,0.0,5.0,5.0,405.4117407649755,4.0,1.0,phase_2,go,400.0,300.0,1.0,,,,,,,,,gray,flipped triangle
0.0,2.0,2.0,0.0,6.0,6.0,453.4690082073211,4.0,1.0,phase_2,go,400.0,300.0,1.0,,,,,,,,,magenta,cross
0.0,2.0,2.0,0.0,5.0,5.0,432.9360648989677,4.0,1.0,phase_2,go,400.0,300.0,1.0,,,,,,,,,magenta,cross
0.0,8.0,4.0,1.0,6.0,6.0,523.5853400081396,4.0,1.0,phase_2,go,400.0,300.0,1.0,,,,,,,,,blue,hexagon
0.0,5.0,1.0,1.0,5.0,5.0,422.7772448211908,4.0,1.0,phase_2,go,400.0,300.0,1.0,,,,,,,,,yellow,I
0.0,8.0,4.0,1.0,6.0,6.0,603.1775306910276,4.0,1.0,phase_2,stop,400.0,300.0,3.0,,,,,,,,,blue,hexagon
0.0,7.0,3.0,1.0,5.0,5.0,995.2346198260784,4.0,1.0,phase_2,stop,400.0,250.0,3.0,,,,,,,,,orange,diamond
0.0,7.0,3.0,1.0,5.0,0.0,0.0,4.0,1.0,phase_2,stop,350.0,250.0,4.0,,,,,,,,,orange,diamond
0.0,4.0,4.0,0.0,5.0,5.0,522.5281622260809,4.0,1.0,phase_2,go,400.0,250.0,1.0,,,,,,,,,gray,flipped triangle
0.0,2.0,2.0,0.0,6.0,6.0,489.1849849373102,4.0,1.0,phase_2,go,400.0,250.0,1.0,,,,,,,,,magenta,cross
0.0,5.0,1.0,1.0,5.0,5.0,514.1189824789762,4.0,1.0,phase_2,stop,400.0,250.0,3.0,,,,,,,,,yellow,I
0.0,4.0,4.0,0.0,6.0,6.0,490.6642362475395,4.0,1.0,phase_2,go,350.0,250.0,1.0,,,,,,,,,gray,flipped triangle
0.0,8.0,4.0,1.0,5.0,0.0,0.0,4.0,1.0,phase_2,stop,350.0,250.0,4.0,,,,,,,,,blue,hexagon
0.0,7.0,3.0,1.0,5.0,0.0,0.0,4.0,1.0,phase_2,stop,400.0,250.0,4.0,,,,,,,,,orange,diamond
0.0,8.0,4.0,1.0,6.0,0.0,0.0,4.0,1.0,phase_2,stop,450.0,250.0,4.0,,,,,,,,,blue,hexagon
0.0,1.0,1.0,0.0,5.0,5.0,598.047936335206,4.0,1.0,phase_2,go,450.0,300.0,1.0,,,,,,,,,cyan,circle
0.0,4.0,4.0,0.0,6.0,6.0,357.0677936077118,4.0,1.0,phase_2,go,450.0,300.0,1.0,,,,,,,,,gray,flipped triangle
0.0,8.0,4.0,1.0,6.0,6.0,480.1359474658966,4.0,1.0,phase_2,stop,450.0,300.0,3.0,,,,,,,,,blue,hexagon
0.0,8.0,4.0,1.0,6.0,0.0,0.0,4.0,1.0,phase_2,stop,450.0,250.0,4.0,,,,,,,,,blue,hexagon
0.0,4.0,4.0,0.0,5.0,5.0,507.3242634534836,4.0,1.0,phase_2,go,450.0,300.0,1.0,,,,,,,,,gray,flipped triangle
0.0,4.0,4.0,0.0,6.0,6.0,651.9815698266029,5.0,1.0,phase_2,go,450.0,300.0,1.0,,,,,,,,,gray,flipped triangle
0.0,5.0,1.0,1.0,6.0,6.0,395.585585385561,5.0,1.0,phase_2,stop,450.0,300.0,3.0,,,,,,,,,yellow,I
0.0,2.0,2.0,0.0,5.0,5.0,581.2502168118954,5.0,1.0,phase_2,go,450.0,250.0,1.0,,,,,,,,,magenta,cross
0.0,6.0,2.0,1.0,6.0,6.0,410.406120121479,5.0,1.0,phase_2,stop,450.0,250.0,3.0,,,,,,,,,green,square
0.0,1.0,1.0,0.0,6.0,6.0,689.2760470509529,5.0,1.0,phase_2,go,450.0,200.0,1.0,,,,,,,,,cyan,circle
0.0,5.0,1.0,1.0,6.0,0.0,0.0,5.0,1.0,phase_2,stop,450.0,200.0,4.0,,,,,,,,,yellow,I
0.0,2.0,2.0,0.0,6.0,6.0,610.8615845441818,5.0,1.0,phase_2,go,450.0,250.0,1.0,,,,,,,,,magenta,cross
0.0,6.0,2.0,1.0,6.0,6.0,465.605178847909,5.0,1.0,phase_2,go,450.0,250.0,1.0,,,,,,,,,green,square
0.0,8.0,4.0,1.0,5.0,5.0,472.625158727169,5.0,1.0,phase_2,stop,450.0,250.0,3.0,,,,,,,,,blue,hexagon
0.0,4.0,4.0,0.0,5.0,5.0,550.694402307272,5.0,1.0,phase_2,go,400.0,250.0,1.0,,,,,,,,,gray,flipped triangle
0.0,1.0,1.0,0.0,6.0,6.0,573.7535990774632,5.0,1.0,phase_2,go,400.0,250.0,1.0,,,,,,,,,cyan,circle
0.0,8.0,4.0,1.0,5.0,5.0,526.7126634716988,5.0,1.0,phase_2,stop,400.0,250.0,3.0,,,,,,,,,blue,hexagon
0.0,2.0,2.0,0.0,6.0,6.0,560.3748746216297,5.0,1.0,phase_2,go,350.0,250.0,1.0,,,,,,,,,magenta,cross
0.0,8.0,4.0,1.0,5.0,0.0,0.0,5.0,1.0,phase_2,stop,350.0,250.0,4.0,,,,,,,,,blue,hexagon
0.0,2.0,2.0,0.0,5.0,5.0,566.6554607450962,5.0,1.0,phase_2,go,400.0,250.0,1.0,,,,,,,,,magenta,cross
0.0,7.0,3.0,1.0,5.0,5.0,733.7327785789967,5.0,1.0,phase_2,stop,400.0,250.0,3.0,,,,,,,,,orange,diamond
0.0,7.0,3.0,1.0,6.0,0.0,0.0,5.0,1.0,phase_2,stop,350.0,250.0,4.0,,,,,,,,,orange,diamond
0.0,5.0,1.0,1.0,6.0,6.0,852.4026107043028,5.0,1.0,phase_2,go,350.0,300.0,1.0,,,,,,,,,yellow,I
0.0,3.0,3.0,0.0,5.0,5.0,481.6444460302591,5.0,1.0,phase_2,go,350.0,300.0,1.0,,,,,,,,,white,triangle
0.0,6.0,2.0,1.0,5.0,0.0,0.0,5.0,1.0,phase_2,stop,350.0,300.0,4.0,,,,,,,,,green,square
0.0,7.0,3.0,1.0,6.0,6.0,555.0068728625774,5.0,1.0,phase_2,go,400.0,300.0,1.0,,,,,,,,,orange,diamond
0.0,3.0,3.0,0.0,6.0,6.0,489.2056994140148,5.0,1.0,phase_2,go,400.0,300.0,1.0,,,,,,,,,white,triangle
0.0,5.0,1.0,1.0,5.0,5.0,531.4349085092545,5.0,1.0,phase_2,go,400.0,300.0,1.0,,,,,,,,,yellow,I
0.0,3.0,3.0,0.0,6.0,6.0,585.2870121598244,5.0,1.0,phase_2,go,400.0,300.0,1.0,,,,,,,,,white,triangle
0.0,6.0,2.0,1.0,5.0,5.0,889.4483540207148,5.0,1.0,phase_2,go,400.0,300.0,1.0,,,,,,,,,green,square
0.0,2.0,2.0,0.0,5.0,5.0,592.1510104089975,5.0,1.0,phase_2,go,400.0,300.0,1.0,,,,,,,,,magenta,cross
0.0,4.0,4.0,0.0,5.0,5.0,505.1323343068361,5.0,1.0,phase_2,go,400.0,300.0,1.0,,,,,,,,,gray,flipped triangle
0.0,5.0,1.0,1.0,6.0,6.0,933.575227856636,5.0,1.0,phase_2,stop,400.0,300.0,3.0,,,,,,,,,yellow,I
0.0,7.0,3.0,1.0,5.0,5.0,437.1578358113765,5.0,1.0,phase_2,go,400.0,250.0,1.0,,,,,,,,,orange,diamond
0.0,4.0,4.0,0.0,6.0,6.0,485.7611898332834,5.0,1.0,phase_2,go,400.0,250.0,1.0,,,,,,,,,gray,flipped triangle
0.0,6.0,2.0,1.0,6.0,0.0,0.0,5.0,1.0,phase_2,stop,400.0,250.0,4.0,,,,,,,,,green,square
0.0,7.0,3.0,1.0,6.0,0.0,0.0,5.0,1.0,phase_2,stop,400.0,300.0,4.0,,,,,,,,,orange,diamond
0.0,6.0,2.0,1.0,6.0,0.0,0.0,5.0,1.0,phase_2,stop,400.0,350.0,4.0,,,,,,,,,green,square
0.0,1.0,1.0,0.0,6.0,6.0,635.6015466153622,5.0,1.0,phase_2,go,400.0,400.0,1.0,,,,,,,,,cyan,circle
0.0,2.0,2.0,0.0,6.0,6.0,568.4716980904341,5.0,1.0,phase_2,go,400.0,400.0,1.0,,,,,,,,,magenta,cross
0.0,4.0,4.0,0.0,5.0,5.0,423.9979516714811,5.0,1.0,phase_2,go,400.0,400.0,1.0,,,,,,,,,gray,flipped triangle
0.0,7.0,3.0,1.0,5.0,0.0,0.0,6.0,1.0,phase_2,stop,400.0,400.0,4.0,,,,,,,,,orange,diamond
0.0,3.0,3.0,0.0,5.0,5.0,459.3150001019239,6.0,1.0,phase_2,go,450.0,400.0,1.0,,,,,,,,,white,triangle
0.0,8.0,4.0,1.0,5.0,5.0,469.5395659655332,6.0,1.0,phase_2,stop,450.0,400.0,3.0,,,,,,,,,blue,hexagon
0.0,3.0,3.0,0.0,5.0,5.0,539.464732632041,6.0,1.0,phase_2,go,400.0,400.0,1.0,,,,,,,,,white,triangle
0.0,4.0,4.0,0.0,6.0,6.0,528.2903127372265,6.0,1.0,phase_2,go,400.0,400.0,1.0,,,,,,,,,gray,flipped triangle
0.0,5.0,1.0,1.0,5.0,0.0,0.0,6.0,1.0,phase_2,stop,400.0,400.0,4.0,,,,,,,,,yellow,I
0.0,1.0,1.0,0.0,5.0,5.0,472.9272183030844,6.0,1.0,phase_2,go,450.0,400.0,1.0,,,,,,,,,cyan,circle
0.0,1.0,1.0,0.0,6.0,6.0,465.0967642664909,6.0,1.0,phase_2,go,450.0,400.0,1.0,,,,,,,,,cyan,circle
0.0,7.0,3.0,1.0,6.0,0.0,0.0,6.0,1.0,phase_2,stop,450.0,400.0,4.0,,,,,,,,,orange,diamond
0.0,2.0,2.0,0.0,5.0,5.0,754.4434890151024,6.0,1.0,phase_2,go,450.0,450.0,1.0,,,,,,,,,magenta,cross
0.0,8.0,4.0,1.0,6.0,6.0,493.9470645040273,6.0,1.0,phase_2,go,450.0,450.0,1.0,,,,,,,,,blue,hexagon
0.0,3.0,3.0,0.0,5.0,5.0,350.5569361150265,6.0,1.0,phase_2,go,450.0,450.0,1.0,,,,,,,,,white,triangle
0.0,8.0,4.0,1.0,6.0,6.0,485.7747107744217,6.0,1.0,phase_2,stop,450.0,450.0,3.0,,,,,,,,,blue,hexagon
0.0,1.0,1.0,0.0,6.0,6.0,477.6984471827745,6.0,1.0,phase_2,go,450.0,400.0,1.0,,,,,,,,,cyan,circle
0.0,8.0,4.0,1.0,5.0,5.0,484.4090230762958,6.0,1.0,phase_2,stop,450.0,400.0,3.0,,,,,,,,,blue,hexagon
0.0,8.0,4.0,1.0,5.0,0.0,0.0,6.0,1.0,phase_2,stop,400.0,400.0,4.0,,,,,,,,,blue,hexagon
0.0,2.0,2.0,0.0,6.0,6.0,701.0539844632149,6.0,1.0,phase_2,go,450.0,400.0,1.0,,,,,,,,,magenta,cross
0.0,6.0,2.0,1.0,6.0,6.0,540.1099752634764,6.0,1.0,phase_2,stop,450.0,400.0,3.0,,,,,,,,,green,square
0.0,2.0,2.0,0.0,6.0,6.0,538.2985305041075,6.0,1.0,phase_2,go,450.0,350.0,1.0,,,,,,,,,magenta,cross
0.0,7.0,3.0,1.0,5.0,5.0,482.5021959841251,6.0,1.0,phase_2,stop,450.0,350.0,3.0,,,,,,,,,orange,diamond
0.0,2.0,2.0,0.0,6.0,6.0,649.8050950467587,6.0,1.0,phase_2,go,400.0,350.0,1.0,,,,,,,,,magenta,cross
0.0,5.0,1.0,1.0,6.0,0.0,0.0,6.0,1.0,phase_2,stop,400.0,350.0,4.0,,,,,,,,,yellow,I
0.0,1.0,1.0,0.0,6.0,6.0,501.93263590335846,6.0,1.0,phase_2,go,400.0,400.0,1.0,,,,,,,,,cyan,circle
0.0,5.0,1.0,1.0,6.0,6.0,606.2823683023453,6.0,1.0,phase_2,go,400.0,400.0,1.0,,,,,,,,,yellow,I
0.0,3.0,3.0,0.0,5.0,5.0,333.0391384661197,6.0,1.0,phase_2,go,400.0,400.0,1.0,,,,,,,,,white,triangle
0.0,6.0,2.0,1.0,6.0,6.0,492.6705323159694,6.0,1.0,phase_2,stop,400.0,400.0,3.0,,,,,,,,,green,square
0.0,6.0,2.0,1.0,6.0,6.0,511.6916671395302,6.0,1.0,phase_2,go,400.0,350.0,1.0,,,,,,,,,green,square
0.0,1.0,1.0,0.0,6.0,6.0,509.9554490298033,6.0,1.0,phase_2,go,400.0,350.0,1.0,,,,,,,,,cyan,circle
0.0,2.0,2.0,0.0,5.0,5.0,365.5629623681307,6.0,1.0,phase_2,go,400.0,350.0,1.0,,,,,,,,,magenta,cross
0.0,2.0,2.0,0.0,5.0,5.0,732.5230985879898,6.0,1.0,phase_2,go,400.0,350.0,1.0,,,,,,,,,magenta,cross
0.0,3.0,3.0,0.0,6.0,6.0,481.532733887434,6.0,1.0,phase_2,go,400.0,350.0,1.0,,,,,,,,,white,triangle
0.0,4.0,4.0,0.0,5.0,5.0,506.1028525233269,6.0,1.0,phase_2,go,400.0,350.0,1.0,,,,,,,,,gray,flipped triangle
0.0,6.0,2.0,1.0,6.0,6.0,513.7662701308727,6.0,1.0,phase_2,stop,400.0,350.0,3.0,,,,,,,,,green,square
0.0,8.0,4.0,1.0,6.0,0.0,0.0,6.0,1.0,phase_2,stop,400.0,300.0,4.0,,,,,,,,,blue,hexagon
0.0,1.0,1.0,0.0,5.0,5.0,464.3769282847643,6.0,1.0,phase_2,go,400.0,350.0,1.0,,,,,,,,,cyan,circle
0.0,3.0,3.0,0.0,6.0,6.0,441.2539228796959,6.0,1.0,phase_2,go,400.0,350.0,1.0,,,,,,,,,white,triangle
0.0,7.0,3.0,1.0,5.0,5.0,951.91552862525,7.0,1.0,phase_2,go,400.0,350.0,1.0,,,,,,,,,orange,diamond
0.0,2.0,2.0,0.0,5.0,5.0,672.215448692441,7.0,1.0,phase_2,go,400.0,350.0,1.0,,,,,,,,,magenta,cross
0.0,1.0,1.0,0.0,6.0,6.0,429.1331563144922,7.0,1.0,phase_2,go,400.0,350.0,1.0,,,,,,,,,cyan,circle
0.0,2.0,2.0,0.0,5.0,5.0,412.8261748701334,7.0,1.0,phase_2,go,400.0,350.0,1.0,,,,,,,,,magenta,cross
0.0,1.0,1.0,0.0,5.0,5.0,478.957612067461,7.0,1.0,phase_2,go,400.0,350.0,1.0,,,,,,,,,cyan,circle
0.0,8.0,4.0,1.0,5.0,5.0,363.6770937591791,7.0,1.0,phase_2,stop,400.0,350.0,3.0,,,,,,,,,blue,hexagon
0.0,1.0,1.0,0.0,6.0,6.0,482.6224073767662,7.0,1.0,phase_2,go,350.0,350.0,1.0,,,,,,,,,cyan,circle
0.0,3.0,3.0,0.0,5.0,5.0,739.6811153739691,7.0,1.0,phase_2,go,350.0,350.0,1.0,,,,,,,,,white,triangle
0.0,1.0,1.0,0.0,5.0,5.0,411.7136672139168,7.0,1.0,phase_2,go,350.0,350.0,1.0,,,,,,,,,cyan,circle
0.0,2.0,2.0,0.0,5.0,5.0,400.8819200098514,7.0,1.0,phase_2,go,350.0,350.0,1.0,,,,,,,,,magenta,cross
0.0,3.0,3.0,0.0,6.0,6.0,337.0007760822773,7.0,1.0,phase_2,go,350.0,350.0,1.0,,,,,,,,,white,triangle
0.0,1.0,1.0,0.0,6.0,6.0,449.7175626456737,7.0,1.0,phase_2,go,350.0,350.0,1.0,,,,,,,,,cyan,circle
0.0,5.0,1.0,1.0,5.0,5.0,391.5183804929256,7.0,1.0,phase_2,stop,350.0,350.0,3.0,,,,,,,,,yellow,I
0.0,1.0,1.0,0.0,6.0,6.0,610.8907833695412,7.0,1.0,phase_2,go,300.0,350.0,1.0,,,,,,,,,cyan,circle
0.0,1.0,1.0,0.0,5.0,5.0,629.9934275448322,7.0,1.0,phase_2,go,300.0,350.0,1.0,,,,,,,,,cyan,circle
0.0,7.0,3.0,1.0,6.0,6.0,518.421484157443,7.0,1.0,phase_2,go,300.0,350.0,1.0,,,,,,,,,orange,diamond
0.0,1.0,1.0,0.0,6.0,6.0,453.1140998005867,7.0,1.0,phase_2,go,300.0,350.0,1.0,,,,,,,,,cyan,circle
0.0,2.0,2.0,0.0,5.0,5.0,495.0753133744001,7.0,1.0,phase_2,go,300.0,350.0,1.0,,,,,,,,,magenta,cross
0.0,4.0,4.0,0.0,6.0,6.0,558.6478598415852,7.0,1.0,phase_2,go,300.0,350.0,1.0,,,,,,,,,gray,flipped triangle
0.0,5.0,1.0,1.0,5.0,5.0,451.4494743198156,7.0,1.0,phase_2,go,300.0,350.0,1.0,,,,,,,,,yellow,I
0.0,5.0,1.0,1.0,6.0,6.0,413.677267730236,7.0,1.0,phase_2,stop,300.0,350.0,3.0,,,,,,,,,yellow,I
0.0,8.0,4.0,1.0,5.0,0.0,0.0,7.0,1.0,phase_2,stop,300.0,300.0,4.0,,,,,,,,,blue,hexagon
0.0,8.0,4.0,1.0,6.0,0.0,0.0,7.0,1.0,phase_2,stop,350.0,300.0,4.0,,,,,,,,,blue,hexagon
0.0,4.0,4.0,0.0,5.0,5.0,801.0122310370207,7.0,1.0,phase_2,go,350.0,350.0,1.0,,,,,,,,,gray,flipped triangle
0.0,4.0,4.0,0.0,5.0,5.0,1297.7164965122938,7.0,1.0,phase_2,go,350.0,350.0,1.0,,,,,,,,,gray,flipped triangle
0.0,5.0,1.0,1.0,5.0,5.0,386.9893234223127,7.0,1.0,phase_2,stop,350.0,350.0,3.0,,,,,,,,,yellow,I
0.0,3.0,3.0,0.0,6.0,6.0,528.9779845625162,7.0,1.0,phase_2,go,300.0,350.0,1.0,,,,,,,,,white,triangle
0.0,7.0,3.0,1.0,6.0,6.0,535.5641450732946,7.0,1.0,phase_2,go,300.0,350.0,1.0,,,,,,,,,orange,diamond
0.0,3.0,3.0,0.0,5.0,5.0,438.3290614932775,7.0,1.0,phase_2,go,300.0,350.0,1.0,,,,,,,,,white,triangle
0.0,7.0,3.0,1.0,5.0,5.0,449.3819810450077,7.0,1.0,phase_2,stop,300.0,350.0,3.0,,,,,,,,,orange,diamond
0.0,4.0,4.0,0.0,5.0,5.0,565.4470361769199,7.0,1.0,phase_2,go,250.0,350.0,1.0,,,,,,,,,gray,flipped triangle
0.0,5.0,1.0,1.0,6.0,6.0,541.2514377385378,7.0,1.0,phase_2,go,250.0,350.0,1.0,,,,,,,,,yellow,I
0.0,3.0,3.0,0.0,5.0,5.0,509.90490056574345,7.0,1.0,phase_2,go,250.0,350.0,1.0,,,,,,,,,white,triangle
0.0,5.0,1.0,1.0,5.0,0.0,0.0,7.0,1.0,phase_2,stop,250.0,350.0,4.0,,,,,,,,,yellow,I
0.0,4.0,4.0,0.0,5.0,5.0,543.0987812578678,7.0,1.0,phase_2,go,300.0,350.0,1.0,,,,,,,,,gray,flipped triangle
0.0,6.0,2.0,1.0,6.0,6.0,430.4553605616092,7.0,1.0,phase_2,go,300.0,350.0,1.0,,,,,,,,,green,square
0.0,5.0,1.0,1.0,6.0,6.0,1108.5468512028456,8.0,1.0,phase_2,go,300.0,350.0,1.0,,,,,,,,,yellow,I
0.0,8.0,4.0,1.0,5.0,5.0,835.3927042335272,8.0,1.0,phase_2,go,300.0,350.0,1.0,,,,,,,,,blue,hexagon
0.0,3.0,3.0,0.0,5.0,5.0,418.656500056386,8.0,1.0,phase_2,go,300.0,350.0,1.0,,,,,,,,,white,triangle
0.0,7.0,3.0,1.0,6.0,6.0,426.8384873867035,8.0,1.0,phase_2,stop,300.0,350.0,3.0,,,,,,,,,orange,diamond
0.0,6.0,2.0,1.0,5.0,5.0,409.5773994922638,8.0,1.0,phase_2,stop,300.0,300.0,3.0,,,,,,,,,green,square
0.0,1.0,1.0,0.0,5.0,5.0,537.0110645890236,8.0,1.0,phase_2,go,250.0,300.0,1.0,,,,,,,,,cyan,circle
0.0,7.0,3.0,1.0,6.0,6.0,442.8916722536087,8.0,1.0,phase_2,stop,250.0,300.0,3.0,,,,,,,,,orange,diamond
0.0,3.0,3.0,0.0,6.0,6.0,336.8622250854969,8.0,1.0,phase_2,go,250.0,250.0,1.0,,,,,,,,,white,triangle
0.0,7.0,3.0,1.0,5.0,5.0,369.4915249943733,8.0,1.0,phase_2,go,250.0,250.0,1.0,,,,,,,,,orange,diamond
0.0,1.0,1.0,0.0,6.0,6.0,506.7965239286423,8.0,1.0,phase_2,go,250.0,250.0,1.0,,,,,,,,,cyan,circle
0.0,8.0,4.0,1.0,6.0,0.0,0.0,8.0,1.0,phase_2,stop,250.0,250.0,4.0,,,,,,,,,blue,hexagon
0.0,7.0,3.0,1.0,5.0,5.0,799.1499397903681,8.0,1.0,phase_2,go,250.0,300.0,1.0,,,,,,,,,orange,diamond
0.0,8.0,4.0,1.0,5.0,0.0,0.0,8.0,1.0,phase_2,stop,250.0,300.0,4.0,,,,,,,,,blue,hexagon
0.0,1.0,1.0,0.0,5.0,5.0,421.6359239071607,8.0,1.0,phase_2,go,300.0,300.0,1.0,,,,,,,,,cyan,circle
0.0,3.0,3.0,0.0,5.0,5.0,843.7477629631758,8.0,1.0,phase_2,go,300.0,300.0,1.0,,,,,,,,,white,triangle
0.0,7.0,3.0,1.0,5.0,0.0,0.0,8.0,1.0,phase_2,stop,300.0,300.0,4.0,,,,,,,,,orange,diamond
0.0,1.0,1.0,0.0,6.0,6.0,639.1047686338425,8.0,1.0,phase_2,go,350.0,300.0,1.0,,,,,,,,,cyan,circle
0.0,3.0,3.0,0.0,6.0,6.0,685.1997543126345,8.0,1.0,phase_2,go,350.0,300.0,1.0,,,,,,,,,white,triangle
0.0,7.0,3.0,1.0,5.0,5.0,548.2031293213367,8.0,1.0,phase_2,stop,350.0,300.0,3.0,,,,,,,,,orange,diamond
0.0,3.0,3.0,0.0,5.0,5.0,595.3093897551298,8.0,1.0,phase_2,go,300.0,300.0,1.0,,,,,,,,,white,triangle
0.0,6.0,2.0,1.0,5.0,0.0,0.0,8.0,1.0,phase_2,stop,300.0,300.0,4.0,,,,,,,,,green,square
0.0,8.0,4.0,1.0,5.0,0.0,0.0,8.0,1.0,phase_2,stop,350.0,300.0,4.0,,,,,,,,,blue,hexagon
0.0,4.0,4.0,0.0,5.0,5.0,664.6161340177059,8.0,1.0,phase_2,go,400.0,300.0,1.0,,,,,,,,,gray,flipped triangle
0.0,2.0,2.0,0.0,6.0,6.0,425.0868409872055,8.0,1.0,phase_2,go,400.0,300.0,1.0,,,,,,,,,magenta,cross
0.0,4.0,4.0,0.0,5.0,5.0,401.4063365757465,8.0,1.0,phase_2,go,400.0,300.0,1.0,,,,,,,,,gray,flipped triangle
0.0,1.0,1.0,0.0,5.0,5.0,416.0267505794763,8.0,1.0,phase_2,go,400.0,300.0,1.0,,,,,,,,,cyan,circle
0.0,5.0,1.0,1.0,5.0,0.0,0.0,8.0,1.0,phase_2,stop,400.0,300.0,4.0,,,,,,,,,yellow,I
0.0,4.0,4.0,0.0,5.0,5.0,460.8373641967773,8.0,1.0,phase_2,go,450.0,300.0,1.0,,,,,,,,,gray,flipped triangle
0.0,3.0,3.0,0.0,6.0,6.0,348.8257471472025,8.0,1.0,phase_2,go,450.0,300.0,1.0,,,,,,,,,white,triangle
0.0,5.0,1.0,1.0,6.0,0.0,0.0,8.0,1.0,phase_2,stop,450.0,300.0,4.0,,,,,,,,,yellow,I
0.0,2.0,2.0,0.0,6.0,6.0,534.7994789481163,8.0,1.0,phase_2,go,450.0,350.0,1.0,,,,,,,,,magenta,cross
0.0,8.0,4.0,1.0,5.0,5.0,642.7359040826559,8.0,1.0,phase_2,go,450.0,350.0,1.0,,,,,,,,,blue,hexagon
0.0,6.0,2.0,1.0,6.0,6.0,321.649320423603,8.0,1.0,phase_2,stop,450.0,350.0,3.0,,,,,,,,,green,square
0.0,2.0,2.0,0.0,6.0,6.0,778.2357968389988,8.0,1.0,phase_2,go,450.0,300.0,1.0,,,,,,,,,magenta,cross
0.0,3.0,3.0,0.0,6.0,6.0,545.278599485755,8.0,1.0,phase_2,go,450.0,300.0,1.0,,,,,,,,,white,triangle
0.0,5.0,1.0,1.0,6.0,6.0,410.1426880806684,8.0,1.0,phase_2,stop,450.0,300.0,3.0,,,,,,,,,yellow,I
0.0,4.0,4.0,0.0,7.0,1.0,1053.56521345675,1.0,1.0,phase_3,,,,,156.0,4.0,156.0,195.0,39.0,117.0,78.0,234.0,gray,flipped triangle
0.0,5.0,1.0,1.0,7.0,4.0,3956.901054829359,1.0,1.0,phase_3,,,,,294.0,6.0,245.0,147.0,49.0,294.0,196.0,98.0,yellow,I
0.0,6.0,2.0,1.0,7.0,6.0,2292.450888082385,1.0,1.0,phase_3,,,,,132.0,3.0,176.0,220.0,264.0,88.0,44.0,132.0,green,square
0.0,7.0,3.0,1.0,7.0,3.0,2600.425446406007,1.0,1.0,phase_3,,,,,220.0,5.0,132.0,176.0,220.0,264.0,88.0,44.0,orange,diamond
0.0,6.0,2.0,1.0,7.0,6.0,2817.7413567900658,1.0,1.0,phase_3,,,,,170.0,5.0,136.0,204.0,34.0,68.0,102.0,170.0,green,square
0.0,4.0,4.0,0.0,7.0,2.0,2495.8399068564177,1.0,1.0,phase_3,,,,,108.0,2.0,54.0,108.0,270.0,216.0,324.0,162.0,gray,flipped triangle
0.0,8.0,4.0,1.0,7.0,4.0,2204.458301886916,1.0,1.0,phase_3,,,,,176.0,4.0,132.0,264.0,88.0,176.0,44.0,220.0,blue,hexagon
0.0,8.0,4.0,1.0,7.0,3.0,2771.0703127086163,1.0,1.0,phase_3,,,,,245.0,5.0,147.0,294.0,245.0,98.0,49.0,196.0,blue,hexagon
0.0,2.0,2.0,0.0,7.0,4.0,2869.4214448332787,1.0,1.0,phase_3,,,,,234.0,6.0,195.0,156.0,39.0,234.0,117.0,78.0,magenta,cross
0.0,1.0,1.0,0.0,7.0,5.0,2957.9453468322754,1.0,1.0,phase_3,,,,,98.0,2.0,196.0,294.0,49.0,147.0,98.0,245.0,cyan,circle
0.0,7.0,3.0,1.0,7.0,1.0,2223.935848101973,1.0,1.0,phase_3,,,,,170.0,5.0,170.0,204.0,34.0,102.0,68.0,136.0,orange,diamond
0.0,3.0,3.0,0.0,7.0,1.0,2288.20757009089,1.0,1.0,phase_3,,,,,136.0,4.0,136.0,204.0,102.0,170.0,34.0,68.0,white,triangle
0.0,1.0,1.0,0.0,7.0,3.0,4253.221072256565,1.0,1.0,phase_3,,,,,156.0,4.0,78.0,39.0,156.0,117.0,234.0,195.0,cyan,circle
0.0,2.0,2.0,0.0,7.0,1.0,1913.0612574517727,1.0,1.0,phase_3,,,,,264.0,6.0,264.0,132.0,176.0,88.0,220.0,44.0,magenta,cross
0.0,5.0,1.0,1.0,7.0,6.0,2000.1745838671923,1.0,1.0,phase_3,,,,,234.0,6.0,39.0,195.0,78.0,156.0,117.0,234.0,yellow,I
0.0,1.0,1.0,0.0,7.0,3.0,1186.7594420909882,1.0,1.0,phase_3,,,,,78.0,2.0,156.0,234.0,78.0,117.0,39.0,195.0,cyan,circle
0.0,3.0,3.0,0.0,7.0,2.0,2811.523959040642,1.0,1.0,phase_3,,,,,108.0,2.0,216.0,108.0,162.0,54.0,270.0,324.0,white,triangle
0.0,3.0,3.0,0.0,7.0,3.0,2988.873576745391,1.0,1.0,phase_3,,,,,108.0,2.0,324.0,216.0,108.0,162.0,54.0,270.0,white,triangle
0.0,8.0,4.0,1.0,7.0,2.0,1823.7069267779589,1.0,1.0,phase_3,,,,,324.0,6.0,54.0,324.0,162.0,270.0,108.0,216.0,blue,hexagon
0.0,7.0,3.0,1.0,7.0,6.0,1480.454871430993,1.0,1.0,phase_3,,,,,176.0,4.0,220.0,44.0,132.0,88.0,264.0,176.0,orange,diamond
0.0,8.0,4.0,1.0,7.0,5.0,2806.718910112977,2.0,1.0,phase_3,,,,,54.0,1.0,324.0,162.0,108.0,270.0,54.0,216.0,blue,hexagon
0.0,2.0,2.0,0.0,7.0,5.0,2231.736745685339,2.0,1.0,phase_3,,,,,204.0,6.0,136.0,34.0,170.0,102.0,204.0,68.0,magenta,cross
0.0,1.0,1.0,0.0,7.0,5.0,2073.577791452408,2.0,1.0,phase_3,,,,,49.0,1.0,98.0,245.0,196.0,147.0,49.0,294.0,cyan,circle
0.0,2.0,2.0,0.0,7.0,5.0,2793.978566303849,2.0,1.0,phase_3,,,,,234.0,6.0,195.0,78.0,39.0,117.0,234.0,156.0,magenta,cross
0.0,4.0,4.0,0.0,7.0,3.0,1781.553065404296,2.0,1.0,phase_3,,,,,34.0,1.0,170.0,204.0,34.0,102.0,68.0,136.0,gray,flipped triangle
0.0,3.0,3.0,0.0,7.0,6.0,2092.498242855072,2.0,1.0,phase_3,,,,,132.0,3.0,176.0,88.0,44.0,264.0,220.0,132.0,white,triangle
0.0,7.0,3.0,1.0,7.0,3.0,3581.8346925079823,2.0,1.0,phase_3,,,,,108.0,2.0,270.0,162.0,108.0,324.0,216.0,54.0,orange,diamond
0.0,2.0,2.0,0.0,7.0,3.0,3401.2468066066504,2.0,1.0,phase_3,,,,,264.0,6.0,88.0,44.0,264.0,176.0,220.0,132.0,magenta,cross
0.0,8.0,4.0,1.0,7.0,5.0,1680.9667404741049,2.0,1.0,phase_3,,,,,170.0,5.0,68.0,136.0,204.0,34.0,170.0,102.0,blue,hexagon
0.0,5.0,1.0,1.0,7.0,5.0,1861.5385964512825,2.0,1.0,phase_3,,,,,170.0,5.0,204.0,68.0,102.0,34.0,170.0,136.0,yellow,I
0.0,4.0,4.0,0.0,7.0,4.0,2173.393033444881,2.0,1.0,phase_3,,,,,270.0,5.0,216.0,162.0,324.0,270.0,54.0,108.0,gray,flipped triangle
0.0,1.0,1.0,0.0,7.0,6.0,871.8755561858416,2.0,1.0,phase_3,,,,,54.0,1.0,216.0,162.0,270.0,324.0,108.0,54.0,cyan,circle
0.0,6.0,2.0,1.0,7.0,4.0,3792.95508377254,2.0,1.0,phase_3,,,,,54.0,1.0,270.0,324.0,108.0,54.0,162.0,216.0,green,square
0.0,2.0,2.0,0.0,7.0,2.0,1232.3151100426912,2.0,1.0,phase_3,,,,,147.0,3.0,98.0,147.0,245.0,49.0,196.0,294.0,magenta,cross
0.0,2.0,2.0,0.0,7.0,2.0,885.1044736802578,2.0,1.0,phase_3,,,,,216.0,4.0,54.0,216.0,108.0,162.0,324.0,270.0,magenta,cross
0.0,8.0,4.0,1.0,7.0,6.0,1386.3301072269678,2.0,1.0,phase_3,,,,,88.0,2.0,264.0,220.0,132.0,176.0,44.0,88.0,blue,hexagon
0.0,7.0,3.0,1.0,7.0,1.0,1596.6156143695116,2.0,1.0,phase_3,,,,,156.0,4.0,156.0,117.0,234.0,195.0,39.0,78.0,orange,diamond
0.0,1.0,1.0,0.0,7.0,6.0,1237.3489625751972,2.0,1.0,phase_3,,,,,44.0,1.0,264.0,88.0,176.0,220.0,132.0,44.0,cyan,circle
0.0,3.0,3.0,0.0,7.0,3.0,1878.3356118947268,2.0,1.0,phase_3,,,,,117.0,3.0,234.0,156.0,117.0,78.0,39.0,195.0,white,triangle
0.0,5.0,1.0,1.0,7.0,5.0,921.3704541325568,2.0,1.0,phase_3,,,,,324.0,6.0,108.0,54.0,162.0,216.0,324.0,270.0,yellow,I
0.0,8.0,4.0,1.0,7.0,5.0,1660.1726729422808,3.0,1.0,phase_3,,,,,117.0,3.0,78.0,195.0,39.0,156.0,117.0,234.0,blue,hexagon
0.0,7.0,3.0,1.0,7.0,4.0,2095.223555341363,3.0,1.0,phase_3,,,,,162.0,3.0,54.0,216.0,324.0,162.0,108.0,270.0,orange,diamond
0.0,7.0,3.0,1.0,7.0,3.0,3625.499377027154,3.0,1.0,phase_3,,,,,170.0,5.0,204.0,136.0,170.0,68.0,34.0,102.0,orange,diamond
0.0,5.0,1.0,1.0,7.0,5.0,1116.3752488791945,3.0,1.0,phase_3,,,,,294.0,6.0,196.0,49.0,147.0,245.0,294.0,98.0,yellow,I
0.0,1.0,1.0,0.0,7.0,4.0,1945.2014192938805,3.0,1.0,phase_3,,,,,68.0,2.0,136.0,204.0,170.0,68.0,102.0,34.0,cyan,circle
0.0,4.0,4.0,0.0,7.0,4.0,1458.6983881890774,3.0,1.0,phase_3,,,,,78.0,2.0,234.0,39.0,195.0,78.0,156.0,117.0,gray,flipped triangle
0.0,5.0,1.0,1.0,7.0,2.0,1589.1416743397713,3.0,1.0,phase_3,,,,,324.0,6.0,108.0,324.0,54.0,216.0,162.0,270.0,yellow,I
0.0,4.0,4.0,0.0,7.0,4.0,1481.5525487065315,3.0,1.0,phase_3,,,,,88.0,2.0,220.0,44.0,132.0,88.0,176.0,264.0,gray,flipped triangle
0.0,5.0,1.0,1.0,7.0,2.0,1440.7418128103018,3.0,1.0,phase_3,,,,,264.0,6.0,176.0,264.0,44.0,88.0,132.0,220.0,yellow,I
0.0,6.0,2.0,1.0,7.0,1.0,1872.5674003362656,3.0,1.0,phase_3,,,,,117.0,3.0,117.0,39.0,78.0,156.0,234.0,195.0,green,square
0.0,6.0,2.0,1.0,7.0,6.0,1252.3160558193922,3.0,1.0,phase_3,,,,,162.0,3.0,216.0,54.0,270.0,324.0,108.0,162.0,green,square
0.0,4.0,4.0,0.0,7.0,1.0,1539.6159049123526,3.0,1.0,phase_3,,,,,88.0,2.0,88.0,44.0,176.0,220.0,132.0,264.0,gray,flipped triangle
0.0,6.0,2.0,1.0,7.0,3.0,3380.4743736982346,3.0,1.0,phase_3,,,,,136.0,4.0,34.0,102.0,136.0,170.0,204.0,68.0,green,square
0.0,2.0,2.0,0.0,7.0,2.0,1110.0253723561764,3.0,1.0,phase_3,,,,,294.0,6.0,147.0,294.0,49.0,98.0,245.0,196.0,magenta,cross
0.0,4.0,4.0,0.0,7.0,1.0,3224.292039871216,3.0,1.0,phase_3,,,,,147.0,3.0,147.0,49.0,245.0,294.0,98.0,196.0,gray,flipped triangle
0.0,8.0,4.0,1.0,7.0,3.0,3523.0505634099245,3.0,1.0,phase_3,,,,,170.0,5.0,102.0,68.0,170.0,204.0,136.0,34.0,blue,hexagon
0.0,3.0,3.0,0.0,7.0,2.0,1733.8503245264292,3.0,1.0,phase_3,,,,,147.0,3.0,294.0,147.0,49.0,98.0,245.0,196.0,white,triangle
0.0,5.0,1.0,1.0,7.0,6.0,2783.5049014538527,3.0,1.0,phase_3,,,,,117.0,3.0,234.0,39.0,195.0,156.0,78.0,117.0,yellow,I
0.0,3.0,3.0,0.0,7.0,5.0,3254.63543459773,3.0,1.0,phase_3,,,,,102.0,3.0,136.0,204.0,170.0,68.0,102.0,34.0,white,triangle
0.0,3.0,3.0,0.0,7.0,4.0,2121.028110384941,3.0,1.0,phase_3,,,,,117.0,3.0,195.0,156.0,234.0,117.0,78.0,39.0,white,triangle
0.0,1.0,1.0,0.0,7.0,1.0,4118.169341236353,4.0,1.0,phase_3,,,,,68.0,2.0,68.0,170.0,34.0,136.0,204.0,102.0,cyan,circle
0.0,3.0,3.0,0.0,7.0,2.0,3658.070895820856,4.0,1.0,phase_3,,,,,98.0,2.0,147.0,98.0,245.0,49.0,294.0,196.0,white,triangle
0.0,1.0,1.0,0.0,7.0,4.0,1260.9265465289354,4.0,1.0,phase_3,,,,,264.0,6.0,44.0,220.0,88.0,264.0,132.0,176.0,cyan,circle
0.0,2.0,2.0,0.0,7.0,3.0,2077.44955457747,4.0,1.0,phase_3,,,,,136.0,4.0,102.0,68.0,136.0,34.0,170.0,204.0,magenta,cross
0.0,6.0,2.0,1.0,7.0,5.0,2333.1088479608297,4.0,1.0,phase_3,,,,,196.0,4.0,245.0,98.0,147.0,49.0,196.0,294.0,green,square
0.0,4.0,4.0,0.0,7.0,5.0,1910.9255131334064,4.0,1.0,phase_3,,,,,34.0,1.0,204.0,68.0,136.0,102.0,34.0,170.0,gray,flipped triangle
0.0,3.0,3.0,0.0,7.0,3.0,1896.789425984025,4.0,1.0,phase_3,,,,,132.0,3.0,44.0,176.0,132.0,264.0,220.0,88.0,white,triangle
0.0,6.0,2.0,1.0,7.0,3.0,2034.914243966341,4.0,1.0,phase_3,,,,,196.0,4.0,98.0,49.0,196.0,245.0,147.0,294.0,green,square
0.0,5.0,1.0,1.0,7.0,3.0,2169.570418074727,4.0,1.0,phase_3,,,,,204.0,6.0,68.0,136.0,204.0,34.0,170.0,102.0,yellow,I
0.0,7.0,3.0,1.0,7.0,5.0,4283.581703901291,4.0,1.0,phase_3,,,,,147.0,3.0,49.0,245.0,196.0,98.0,147.0,294.0,orange,diamond
0.0,8.0,4.0,1.0,7.0,3.0,3935.272790491581,4.0,1.0,phase_3,,,,,234.0,6.0,78.0,117.0,234.0,195.0,39.0,156.0,blue,hexagon
0.0,2.0,2.0,0.0,7.0,5.0,3056.667149066925,4.0,1.0,phase_3,,,,,108.0,2.0,270.0,54.0,216.0,324.0,108.0,162.0,magenta,cross
0.0,1.0,1.0,0.0,7.0,3.0,1265.6075283885002,4.0,1.0,phase_3,,,,,108.0,2.0,270.0,54.0,108.0,162.0,216.0,324.0,cyan,circle
0.0,6.0,2.0,1.0,7.0,3.0,2740.453388541937,4.0,1.0,phase_3,,,,,176.0,4.0,264.0,88.0,176.0,220.0,44.0,132.0,green,square
0.0,5.0,1.0,1.0,7.0,3.0,2315.5118115246296,4.0,1.0,phase_3,,,,,220.0,5.0,88.0,132.0,220.0,44.0,176.0,264.0,yellow,I
0.0,6.0,2.0,1.0,7.0,2.0,1541.1239881068468,4.0,1.0,phase_3,,,,,156.0,4.0,78.0,156.0,117.0,39.0,195.0,234.0,green,square
0.0,7.0,3.0,1.0,7.0,3.0,1256.5777320414782,4.0,1.0,phase_3,,,,,147.0,3.0,196.0,98.0,147.0,294.0,49.0,245.0,orange,diamond
0.0,7.0,3.0,1.0,7.0,1.0,4072.9462169110775,4.0,1.0,phase_3,,,,,117.0,3.0,117.0,156.0,78.0,195.0,234.0,39.0,orange,diamond
0.0,8.0,4.0,1.0,7.0,6.0,3348.2485208660364,4.0,1.0,phase_3,,,,,196.0,4.0,98.0,294.0,245.0,147.0,49.0,196.0,blue,hexagon
0.0,4.0,4.0,0.0,7.0,1.0,2085.37632599473,4.0,1.0,phase_3,,,,,245.0,5.0,245.0,196.0,294.0,98.0,49.0,147.0,gray,flipped triangle
