raw_reward_magnitude,stim_reward,stepwise_reward_magnitude,paired_with_stopping,quadrant,response,reaction_time,block,num_trial_presentations,which_part,stop_signal_trial_type,left_SSD,right_SSD,accuracy,chosen_bidding_amount,chosen_bidding_level,possible_bid_1,possible_bid_2,possible_bid_3,possible_bid_4,possible_bid_5,possible_bid_6,color_text,shape_text
192.0,7.0,3.0,1.0,3.0,3.0,465.0412201881408,1.0,1.0,part_1,,,,,,,,,,,,,yellow,square
87.0,6.0,2.0,1.0,4.0,4.0,342.6692616194486,1.0,1.0,part_1,,,,,,,,,,,,,blue,diamond
196.0,7.0,3.0,1.0,1.0,1.0,387.5961434096098,1.0,1.0,part_1,,,,,,,,,,,,,yellow,square
50.0,1.0,1.0,0.0,2.0,2.0,417.8036358207464,1.0,1.0,part_1,,,,,,,,,,,,,white,flipped triangle
415.0,4.0,4.0,0.0,4.0,4.0,335.1108450442552,1.0,1.0,part_1,,,,,,,,,,,,,gray,hexagon
33.0,1.0,1.0,0.0,2.0,2.0,328.5732045769691,1.0,1.0,part_1,,,,,,,,,,,,,white,flipped triangle
409.0,4.0,4.0,0.0,2.0,2.0,311.1381027847528,1.0,1.0,part_1,,,,,,,,,,,,,gray,hexagon
200.0,7.0,3.0,1.0,4.0,4.0,442.3644598573446,1.0,1.0,part_1,,,,,,,,,,,,,yellow,square
0.0,7.0,0.0,1.0,3.0,3.0,366.3561251014471,1.0,1.0,part_1,,,,,,,,,,,,,yellow,square
98.0,6.0,2.0,1.0,1.0,1.0,340.9337569028139,1.0,1.0,part_1,,,,,,,,,,,,,blue,diamond
0.0,6.0,0.0,1.0,3.0,3.0,328.711474314332,1.0,1.0,part_1,,,,,,,,,,,,,blue,diamond
95.0,6.0,2.0,1.0,2.0,2.0,284.5897208899259,1.0,1.0,part_1,,,,,,,,,,,,,blue,diamond
395.0,8.0,4.0,1.0,2.0,2.0,364.3812760710716,1.0,1.0,part_1,,,,,,,,,,,,,green,I
404.0,4.0,4.0,0.0,2.0,2.0,281.1798267066479,1.0,1.0,part_1,,,,,,,,,,,,,gray,hexagon
93.0,2.0,2.0,0.0,4.0,4.0,412.1780600398779,1.0,1.0,part_1,,,,,,,,,,,,,magenta,circle
28.0,1.0,1.0,0.0,2.0,2.0,287.9309058189392,1.0,1.0,part_1,,,,,,,,,,,,,white,flipped triangle
61.0,5.0,1.0,1.0,2.0,2.0,310.9210859984159,1.0,1.0,part_1,,,,,,,,,,,,,orange,cross
197.0,7.0,3.0,1.0,3.0,3.0,289.7143512964248,1.0,1.0,part_1,,,,,,,,,,,,,yellow,square
0.0,7.0,0.0,1.0,2.0,2.0,351.4113239943981,1.0,1.0,part_1,,,,,,,,,,,,,yellow,square
0.0,5.0,0.0,1.0,3.0,3.0,307.0254735648632,1.0,1.0,part_1,,,,,,,,,,,,,orange,cross
31.0,1.0,1.0,0.0,4.0,4.0,375.4979595541954,1.0,1.0,part_1,,,,,,,,,,,,,white,flipped triangle
94.0,6.0,2.0,1.0,2.0,2.0,420.4234667122364,1.0,1.0,part_1,,,,,,,,,,,,,blue,diamond
28.0,5.0,1.0,1.0,3.0,3.0,315.5441582202911,1.0,1.0,part_1,,,,,,,,,,,,,orange,cross
74.0,1.0,1.0,0.0,4.0,4.0,335.1950086653232,1.0,1.0,part_1,,,,,,,,,,,,,white,flipped triangle
176.0,3.0,3.0,0.0,3.0,3.0,355.2472312003374,1.0,1.0,part_1,,,,,,,,,,,,,cyan,triangle
0.0,1.0,0.0,0.0,1.0,1.0,294.4422550499439,1.0,1.0,part_1,,,,,,,,,,,,,white,flipped triangle
0.0,3.0,0.0,0.0,3.0,3.0,282.7947176992893,1.0,1.0,part_1,,,,,,,,,,,,,cyan,triangle
0.0,1.0,0.0,0.0,1.0,1.0,394.5873230695724,1.0,1.0,part_1,,,,,,,,,,,,,white,flipped triangle
113.0,6.0,2.0,1.0,2.0,2.0,284.229664131999,1.0,1.0,part_1,,,,,,,,,,,,,blue,diamond
77.0,2.0,2.0,0.0,4.0,4.0,291.7598877102136,1.0,1.0,part_1,,,,,,,,,,,,,magenta,circle
42.0,5.0,1.0,1.0,3.0,3.0,297.4605318158865,1.0,1.0,part_1,,,,,,,,,,,,,orange,cross
42.0,1.0,1.0,0.0,4.0,4.0,322.8805027902126,1.0,1.0,part_1,,,,,,,,,,,,,white,flipped triangle
423.0,4.0,4.0,0.0,1.0,1.0,358.9104078710079,1.0,1.0,part_1,,,,,,,,,,,,,gray,hexagon
208.0,3.0,3.0,0.0,4.0,4.0,311.8775840848684,1.0,1.0,part_1,,,,,,,,,,,,,cyan,triangle
59.0,1.0,1.0,0.0,4.0,4.0,372.4450580775738,1.0,1.0,part_1,,,,,,,,,,,,,white,flipped triangle
415.0,4.0,4.0,0.0,2.0,2.0,277.2309482097626,1.0,1.0,part_1,,,,,,,,,,,,,gray,hexagon
224.0,3.0,3.0,0.0,4.0,4.0,303.3006656914949,1.0,2.0,part_1,,,,,,,,,,,,,cyan,triangle
201.0,7.0,3.0,1.0,3.0,3.0,363.3618168532848,1.0,1.0,part_1,,,,,,,,,,,,,yellow,square
197.0,3.0,3.0,0.0,1.0,1.0,336.5917839109897,1.0,1.0,part_1,,,,,,,,,,,,,cyan,triangle
0.0,6.0,0.0,1.0,1.0,1.0,390.5190732330084,1.0,1.0,part_1,,,,,,,,,,,,,blue,diamond
203.0,7.0,3.0,1.0,4.0,4.0,300.8878119289875,1.0,1.0,part_1,,,,,,,,,,,,,yellow,square
185.0,3.0,3.0,0.0,4.0,4.0,309.7492028027773,1.0,1.0,part_1,,,,,,,,,,,,,cyan,triangle
49.0,1.0,1.0,0.0,2.0,2.0,274.4823712855577,1.0,1.0,part_1,,,,,,,,,,,,,white,flipped triangle
413.0,4.0,4.0,0.0,2.0,2.0,330.0205767154693,1.0,1.0,part_1,,,,,,,,,,,,,gray,hexagon
94.0,2.0,2.0,0.0,3.0,3.0,292.8529568016529,1.0,1.0,part_1,,,,,,,,,,,,,magenta,circle
411.0,4.0,4.0,0.0,4.0,4.0,305.3545001894235,1.0,1.0,part_1,,,,,,,,,,,,,gray,hexagon
0.0,6.0,0.0,1.0,3.0,3.0,304.009199142456,1.0,1.0,part_1,,,,,,,,,,,,,blue,diamond
89.0,6.0,2.0,1.0,3.0,3.0,339.8810159415006,1.0,1.0,part_1,,,,,,,,,,,,,blue,diamond
63.0,1.0,1.0,0.0,1.0,1.0,369.3960923701525,1.0,1.0,part_1,,,,,,,,,,,,,white,flipped triangle
400.0,4.0,4.0,0.0,4.0,4.0,438.1513949483633,1.0,1.0,part_1,,,,,,,,,,,,,gray,hexagon
87.0,6.0,2.0,1.0,3.0,3.0,319.8631182312965,1.0,1.0,part_1,,,,,,,,,,,,,blue,diamond
33.0,5.0,1.0,1.0,3.0,3.0,341.6604995727539,1.0,1.0,part_1,,,,,,,,,,,,,orange,cross
0.0,2.0,0.0,0.0,3.0,3.0,355.4548565298319,1.0,1.0,part_1,,,,,,,,,,,,,magenta,circle
197.0,3.0,3.0,0.0,3.0,3.0,318.3805160224437,1.0,1.0,part_1,,,,,,,,,,,,,cyan,triangle
30.0,5.0,1.0,1.0,1.0,1.0,350.5761828273535,1.0,1.0,part_1,,,,,,,,,,,,,orange,cross
184.0,7.0,3.0,1.0,3.0,3.0,401.5280995517969,1.0,1.0,part_1,,,,,,,,,,,,,yellow,square
84.0,6.0,2.0,1.0,1.0,1.0,388.2295954972505,1.0,1.0,part_1,,,,,,,,,,,,,blue,diamond
117.0,2.0,2.0,0.0,1.0,1.0,434.5985203981399,1.0,1.0,part_1,,,,,,,,,,,,,magenta,circle
28.0,5.0,1.0,1.0,2.0,2.0,310.5077221989631,1.0,1.0,part_1,,,,,,,,,,,,,orange,cross
0.0,8.0,0.0,1.0,1.0,1.0,387.1578071266413,1.0,1.0,part_1,,,,,,,,,,,,,green,I
191.0,7.0,3.0,1.0,4.0,4.0,310.6747344136238,1.0,1.0,part_1,,,,,,,,,,,,,yellow,square
192.0,3.0,3.0,0.0,3.0,3.0,403.6666620522737,1.0,1.0,part_1,,,,,,,,,,,,,cyan,triangle
99.0,6.0,2.0,1.0,4.0,4.0,323.4673421829939,1.0,1.0,part_1,,,,,,,,,,,,,blue,diamond
0.0,2.0,0.0,0.0,3.0,3.0,367.8515125066042,1.0,1.0,part_1,,,,,,,,,,,,,magenta,circle
408.0,4.0,4.0,0.0,3.0,3.0,354.4694762676954,1.0,1.0,part_1,,,,,,,,,,,,,gray,hexagon
0.0,8.0,0.0,1.0,3.0,3.0,334.288626909256,1.0,1.0,part_1,,,,,,,,,,,,,green,I
50.0,5.0,1.0,1.0,3.0,3.0,301.2076076120138,1.0,1.0,part_1,,,,,,,,,,,,,orange,cross
0.0,7.0,0.0,1.0,2.0,2.0,330.2982598543167,1.0,1.0,part_1,,,,,,,,,,,,,yellow,square
224.0,7.0,3.0,1.0,2.0,2.0,366.9065684080124,1.0,1.0,part_1,,,,,,,,,,,,,yellow,square
55.0,1.0,1.0,0.0,1.0,1.0,400.9794499725103,1.0,1.0,part_1,,,,,,,,,,,,,white,flipped triangle
113.0,2.0,2.0,0.0,3.0,3.0,384.7256544977426,1.0,1.0,part_1,,,,,,,,,,,,,magenta,circle
30.0,1.0,1.0,0.0,3.0,3.0,410.5671197175979,1.0,1.0,part_1,,,,,,,,,,,,,white,flipped triangle
212.0,3.0,3.0,0.0,2.0,2.0,255.7980939745903,1.0,1.0,part_1,,,,,,,,,,,,,cyan,triangle
213.0,3.0,3.0,0.0,3.0,3.0,307.6261226087808,1.0,1.0,part_1,,,,,,,,,,,,,cyan,triangle
203.0,7.0,3.0,1.0,4.0,4.0,340.6439572572708,1.0,1.0,part_1,,,,,,,,,,,,,yellow,square
100.0,6.0,2.0,1.0,4.0,4.0,333.2532122731209,1.0,1.0,part_1,,,,,,,,,,,,,blue,diamond
0.0,2.0,0.0,0.0,4.0,4.0,388.6440210044384,1.0,1.0,part_1,,,,,,,,,,,,,magenta,circle
421.0,4.0,4.0,0.0,1.0,1.0,454.3548319488764,1.0,1.0,part_1,,,,,,,,,,,,,gray,hexagon
386.0,4.0,4.0,0.0,1.0,1.0,354.8607602715492,1.0,1.0,part_1,,,,,,,,,,,,,gray,hexagon
115.0,6.0,2.0,1.0,4.0,4.0,312.7251211553812,1.0,1.0,part_1,,,,,,,,,,,,,blue,diamond
52.0,5.0,1.0,1.0,4.0,4.0,367.185166105628,1.0,1.0,part_1,,,,,,,,,,,,,orange,cross
0.0,3.0,0.0,0.0,2.0,2.0,299.77404512465,1.0,1.0,part_1,,,,,,,,,,,,,cyan,triangle
180.0,3.0,3.0,0.0,3.0,3.0,311.8897415697574,1.0,1.0,part_1,,,,,,,,,,,,,cyan,triangle
36.0,1.0,1.0,0.0,3.0,3.0,339.3146246671676,1.0,1.0,part_1,,,,,,,,,,,,,white,flipped triangle
76.0,2.0,2.0,0.0,4.0,4.0,335.2976441383362,1.0,1.0,part_1,,,,,,,,,,,,,magenta,circle
0.0,8.0,0.0,1.0,4.0,4.0,343.3754369616508,1.0,1.0,part_1,,,,,,,,,,,,,green,I
187.0,3.0,3.0,0.0,1.0,1.0,314.7897161543369,1.0,1.0,part_1,,,,,,,,,,,,,cyan,triangle
0.0,2.0,0.0,0.0,1.0,1.0,438.2668100297451,1.0,1.0,part_1,,,,,,,,,,,,,magenta,circle
112.0,6.0,2.0,1.0,1.0,1.0,453.8662452250719,1.0,1.0,part_1,,,,,,,,,,,,,blue,diamond
197.0,7.0,3.0,1.0,1.0,1.0,326.5790715813637,1.0,1.0,part_1,,,,,,,,,,,,,yellow,square
67.0,5.0,1.0,1.0,3.0,3.0,471.2084233760834,1.0,1.0,part_1,,,,,,,,,,,,,orange,cross
198.0,7.0,3.0,1.0,4.0,4.0,367.9750859737396,1.0,1.0,part_1,,,,,,,,,,,,,yellow,square
0.0,5.0,0.0,1.0,2.0,2.0,320.5312676727772,1.0,1.0,part_1,,,,,,,,,,,,,orange,cross
0.0,4.0,0.0,0.0,2.0,2.0,356.4888592809438,1.0,1.0,part_1,,,,,,,,,,,,,gray,hexagon
183.0,7.0,3.0,1.0,3.0,3.0,360.2419756352901,1.0,1.0,part_1,,,,,,,,,,,,,yellow,square
0.0,5.0,0.0,1.0,3.0,3.0,371.0646070539951,1.0,1.0,part_1,,,,,,,,,,,,,orange,cross
39.0,5.0,1.0,1.0,1.0,1.0,319.5992428809404,1.0,1.0,part_1,,,,,,,,,,,,,orange,cross
31.0,1.0,1.0,0.0,1.0,1.0,381.0483161360025,1.0,1.0,part_1,,,,,,,,,,,,,white,flipped triangle
0.0,3.0,0.0,0.0,2.0,2.0,500.06831251084805,1.0,1.0,part_1,,,,,,,,,,,,,cyan,triangle
399.0,4.0,4.0,0.0,2.0,2.0,551.9188549369574,1.0,1.0,part_1,,,,,,,,,,,,,gray,hexagon
411.0,4.0,4.0,0.0,3.0,3.0,394.6339413523674,2.0,1.0,part_1,,,,,,,,,,,,,gray,hexagon
216.0,7.0,3.0,1.0,3.0,3.0,317.7809175103903,2.0,1.0,part_1,,,,,,,,,,,,,yellow,square
410.0,8.0,4.0,1.0,2.0,2.0,329.0827460587024,2.0,1.0,part_1,,,,,,,,,,,,,green,I
81.0,6.0,2.0,1.0,1.0,1.0,405.4872151464224,2.0,1.0,part_1,,,,,,,,,,,,,blue,diamond
380.0,8.0,4.0,1.0,4.0,4.0,381.4306929707527,2.0,1.0,part_1,,,,,,,,,,,,,green,I
411.0,8.0,4.0,1.0,4.0,4.0,367.2789093106985,2.0,1.0,part_1,,,,,,,,,,,,,green,I
0.0,3.0,0.0,0.0,4.0,4.0,325.3527116030454,2.0,1.0,part_1,,,,,,,,,,,,,cyan,triangle
52.0,1.0,1.0,0.0,1.0,1.0,329.4037561863661,2.0,1.0,part_1,,,,,,,,,,,,,white,flipped triangle
88.0,6.0,2.0,1.0,2.0,2.0,303.1934201717376,2.0,1.0,part_1,,,,,,,,,,,,,blue,diamond
46.0,5.0,1.0,1.0,4.0,4.0,330.5685464292764,2.0,1.0,part_1,,,,,,,,,,,,,orange,cross
180.0,7.0,3.0,1.0,1.0,1.0,360.5115711688995,2.0,1.0,part_1,,,,,,,,,,,,,yellow,square
0.0,8.0,0.0,1.0,2.0,2.0,306.9503251463175,2.0,1.0,part_1,,,,,,,,,,,,,green,I
213.0,7.0,3.0,1.0,4.0,4.0,274.0658745169639,2.0,1.0,part_1,,,,,,,,,,,,,yellow,square
0.0,6.0,0.0,1.0,2.0,2.0,396.22938819229597,2.0,1.0,part_1,,,,,,,,,,,,,blue,diamond
60.0,1.0,1.0,0.0,1.0,1.0,293.1113727390766,2.0,1.0,part_1,,,,,,,,,,,,,white,flipped triangle
74.0,5.0,1.0,1.0,1.0,1.0,318.2629365473985,2.0,1.0,part_1,,,,,,,,,,,,,orange,cross
63.0,5.0,1.0,1.0,3.0,3.0,435.3447444736957,2.0,1.0,part_1,,,,,,,,,,,,,orange,cross
35.0,5.0,1.0,1.0,1.0,1.0,424.5733506977558,2.0,1.0,part_1,,,,,,,,,,,,,orange,cross
0.0,7.0,0.0,1.0,2.0,2.0,318.3869235217571,2.0,1.0,part_1,,,,,,,,,,,,,yellow,square
54.0,5.0,1.0,1.0,4.0,4.0,530.8166649192572,2.0,1.0,part_1,,,,,,,,,,,,,orange,cross
0.0,8.0,0.0,1.0,1.0,1.0,366.0008739680052,2.0,1.0,part_1,,,,,,,,,,,,,green,I
46.0,1.0,1.0,0.0,4.0,4.0,340.9480135887861,2.0,1.0,part_1,,,,,,,,,,,,,white,flipped triangle
93.0,2.0,2.0,0.0,2.0,2.0,430.9804998338222,2.0,1.0,part_1,,,,,,,,,,,,,magenta,circle
405.0,4.0,4.0,0.0,1.0,1.0,324.3893068283796,2.0,1.0,part_1,,,,,,,,,,,,,gray,hexagon
185.0,7.0,3.0,1.0,2.0,2.0,287.5886391848326,2.0,1.0,part_1,,,,,,,,,,,,,yellow,square
223.0,3.0,3.0,0.0,2.0,2.0,343.8304457813501,2.0,1.0,part_1,,,,,,,,,,,,,cyan,triangle
381.0,4.0,4.0,0.0,3.0,3.0,332.2723899036646,2.0,1.0,part_1,,,,,,,,,,,,,gray,hexagon
100.0,2.0,2.0,0.0,4.0,4.0,385.3383213281631,2.0,1.0,part_1,,,,,,,,,,,,,magenta,circle
216.0,3.0,3.0,0.0,3.0,3.0,331.361286342144,2.0,1.0,part_1,,,,,,,,,,,,,cyan,triangle
393.0,4.0,4.0,0.0,2.0,2.0,335.3649154305458,2.0,1.0,part_1,,,,,,,,,,,,,gray,hexagon
392.0,4.0,4.0,0.0,1.0,1.0,398.1322403997183,2.0,1.0,part_1,,,,,,,,,,,,,gray,hexagon
199.0,3.0,3.0,0.0,3.0,3.0,384.7470507025718,2.0,1.0,part_1,,,,,,,,,,,,,cyan,triangle
83.0,6.0,2.0,1.0,1.0,1.0,349.8849533498287,2.0,1.0,part_1,,,,,,,,,,,,,blue,diamond
0.0,7.0,0.0,1.0,2.0,2.0,291.3840170949697,2.0,1.0,part_1,,,,,,,,,,,,,yellow,square
76.0,6.0,2.0,1.0,3.0,3.0,327.7931045740843,2.0,1.0,part_1,,,,,,,,,,,,,blue,diamond
393.0,4.0,4.0,0.0,3.0,3.0,348.8047532737255,2.0,1.0,part_1,,,,,,,,,,,,,gray,hexagon
115.0,2.0,2.0,0.0,3.0,3.0,336.8205707520246,2.0,1.0,part_1,,,,,,,,,,,,,magenta,circle
100.0,6.0,2.0,1.0,3.0,3.0,327.2861652076244,2.0,1.0,part_1,,,,,,,,,,,,,blue,diamond
0.0,2.0,0.0,0.0,3.0,3.0,363.970223814249,2.0,1.0,part_1,,,,,,,,,,,,,magenta,circle
424.0,8.0,4.0,1.0,4.0,4.0,328.0556034296751,2.0,1.0,part_1,,,,,,,,,,,,,green,I
194.0,7.0,3.0,1.0,4.0,4.0,358.2945615053177,2.0,1.0,part_1,,,,,,,,,,,,,yellow,square
387.0,4.0,4.0,0.0,3.0,3.0,347.8887565433979,2.0,1.0,part_1,,,,,,,,,,,,,gray,hexagon
0.0,2.0,0.0,0.0,1.0,1.0,367.5268050283193,2.0,1.0,part_1,,,,,,,,,,,,,magenta,circle
46.0,5.0,1.0,1.0,3.0,3.0,321.3759139180183,2.0,1.0,part_1,,,,,,,,,,,,,orange,cross
183.0,3.0,3.0,0.0,1.0,1.0,407.6588433235883,2.0,1.0,part_1,,,,,,,,,,,,,cyan,triangle
0.0,7.0,0.0,1.0,3.0,3.0,413.6299565434456,2.0,1.0,part_1,,,,,,,,,,,,,yellow,square
121.0,2.0,2.0,0.0,2.0,2.0,304.1370064020157,2.0,1.0,part_1,,,,,,,,,,,,,magenta,circle
107.0,6.0,2.0,1.0,4.0,4.0,351.5966814011335,2.0,1.0,part_1,,,,,,,,,,,,,blue,diamond
206.0,7.0,3.0,1.0,2.0,2.0,360.1738642901182,2.0,1.0,part_1,,,,,,,,,,,,,yellow,square
94.0,6.0,2.0,1.0,1.0,1.0,415.5255723744631,2.0,1.0,part_1,,,,,,,,,,,,,blue,diamond
213.0,7.0,3.0,1.0,4.0,4.0,333.424624055624,2.0,1.0,part_1,,,,,,,,,,,,,yellow,square
0.0,7.0,0.0,1.0,1.0,1.0,375.6203651428222,2.0,1.0,part_1,,,,,,,,,,,,,yellow,square
195.0,3.0,3.0,0.0,2.0,2.0,398.1123492121696,2.0,1.0,part_1,,,,,,,,,,,,,cyan,triangle
113.0,2.0,2.0,0.0,1.0,1.0,441.7726714164018,2.0,1.0,part_1,,,,,,,,,,,,,magenta,circle
181.0,7.0,3.0,1.0,2.0,2.0,295.8955001085996,2.0,1.0,part_1,,,,,,,,,,,,,yellow,square
383.0,8.0,4.0,1.0,3.0,3.0,316.4806589484215,2.0,1.0,part_1,,,,,,,,,,,,,green,I
0.0,3.0,0.0,0.0,1.0,1.0,390.0302052497864,2.0,1.0,part_1,,,,,,,,,,,,,cyan,triangle
84.0,6.0,2.0,1.0,2.0,2.0,380.7769864797592,2.0,1.0,part_1,,,,,,,,,,,,,blue,diamond
382.0,4.0,4.0,0.0,2.0,2.0,327.8601579368114,2.0,1.0,part_1,,,,,,,,,,,,,gray,hexagon
63.0,5.0,1.0,1.0,2.0,2.0,342.4310386180877,2.0,1.0,part_1,,,,,,,,,,,,,orange,cross
195.0,7.0,3.0,1.0,1.0,1.0,498.6997339874506,2.0,1.0,part_1,,,,,,,,,,,,,yellow,square
415.0,8.0,4.0,1.0,3.0,3.0,319.3771410733461,2.0,1.0,part_1,,,,,,,,,,,,,green,I
90.0,6.0,2.0,1.0,1.0,1.0,365.0971483439207,2.0,1.0,part_1,,,,,,,,,,,,,blue,diamond
200.0,7.0,3.0,1.0,3.0,3.0,351.7625126987695,2.0,1.0,part_1,,,,,,,,,,,,,yellow,square
387.0,8.0,4.0,1.0,4.0,4.0,379.7673434019089,2.0,1.0,part_1,,,,,,,,,,,,,green,I
50.0,1.0,1.0,0.0,3.0,3.0,346.2664522230625,2.0,1.0,part_1,,,,,,,,,,,,,white,flipped triangle
195.0,3.0,3.0,0.0,3.0,3.0,414.4611600786447,2.0,1.0,part_1,,,,,,,,,,,,,cyan,triangle
117.0,2.0,2.0,0.0,1.0,1.0,555.0966318696737,2.0,1.0,part_1,,,,,,,,,,,,,magenta,circle
0.0,5.0,0.0,1.0,2.0,2.0,336.9063083082437,2.0,1.0,part_1,,,,,,,,,,,,,orange,cross
64.0,5.0,1.0,1.0,2.0,2.0,349.9220572412014,2.0,1.0,part_1,,,,,,,,,,,,,orange,cross
67.0,5.0,1.0,1.0,4.0,4.0,305.6909926235676,2.0,1.0,part_1,,,,,,,,,,,,,orange,cross
418.0,8.0,4.0,1.0,3.0,3.0,295.5056317150593,2.0,1.0,part_1,,,,,,,,,,,,,green,I
0.0,8.0,0.0,1.0,4.0,4.0,325.1825701445341,2.0,1.0,part_1,,,,,,,,,,,,,green,I
0.0,5.0,0.0,1.0,2.0,2.0,326.0646983981132,2.0,1.0,part_1,,,,,,,,,,,,,orange,cross
208.0,7.0,3.0,1.0,3.0,3.0,394.5362251251936,2.0,1.0,part_1,,,,,,,,,,,,,yellow,square
217.0,7.0,3.0,1.0,1.0,1.0,373.6066669225693,2.0,2.0,part_1,,,,,,,,,,,,,yellow,square
0.0,1.0,0.0,0.0,4.0,4.0,344.5024788379669,2.0,1.0,part_1,,,,,,,,,,,,,white,flipped triangle
402.0,4.0,4.0,0.0,1.0,1.0,389.7093627601862,2.0,1.0,part_1,,,,,,,,,,,,,gray,hexagon
93.0,6.0,2.0,1.0,3.0,3.0,372.9961793869734,2.0,1.0,part_1,,,,,,,,,,,,,blue,diamond
43.0,5.0,1.0,1.0,2.0,2.0,310.44447608292097,2.0,1.0,part_1,,,,,,,,,,,,,orange,cross
36.0,5.0,1.0,1.0,2.0,2.0,331.3000686466694,2.0,1.0,part_1,,,,,,,,,,,,,orange,cross
121.0,6.0,2.0,1.0,2.0,2.0,323.9017240703106,2.0,1.0,part_1,,,,,,,,,,,,,blue,diamond
392.0,8.0,4.0,1.0,3.0,3.0,384.7053106874227,2.0,1.0,part_1,,,,,,,,,,,,,green,I
37.0,1.0,1.0,0.0,1.0,1.0,417.8631752729416,2.0,1.0,part_1,,,,,,,,,,,,,white,flipped triangle
187.0,7.0,3.0,1.0,3.0,3.0,353.2522469758987,2.0,1.0,part_1,,,,,,,,,,,,,yellow,square
36.0,5.0,1.0,1.0,1.0,1.0,307.8659772872925,2.0,1.0,part_1,,,,,,,,,,,,,orange,cross
422.0,4.0,4.0,0.0,4.0,4.0,417.2474034130573,2.0,1.0,part_1,,,,,,,,,,,,,gray,hexagon
200.0,3.0,3.0,0.0,1.0,1.0,384.1842003166675,2.0,1.0,part_1,,,,,,,,,,,,,cyan,triangle
393.0,8.0,4.0,1.0,2.0,2.0,377.5200434029102,2.0,1.0,part_1,,,,,,,,,,,,,green,I
394.0,4.0,4.0,0.0,2.0,2.0,493.8352070748806,2.0,1.0,part_1,,,,,,,,,,,,,gray,hexagon
0.0,7.0,0.0,1.0,1.0,1.0,362.8948833793401,2.0,1.0,part_1,,,,,,,,,,,,,yellow,square
69.0,5.0,1.0,1.0,4.0,4.0,337.9042036831379,2.0,1.0,part_1,,,,,,,,,,,,,orange,cross
194.0,3.0,3.0,0.0,2.0,2.0,390.8356018364429,2.0,1.0,part_1,,,,,,,,,,,,,cyan,triangle
0.0,6.0,0.0,1.0,4.0,4.0,425.1949824392795,2.0,1.0,part_1,,,,,,,,,,,,,blue,diamond
382.0,8.0,4.0,1.0,2.0,2.0,392.1259082853794,2.0,1.0,part_1,,,,,,,,,,,,,green,I
190.0,3.0,3.0,0.0,3.0,3.0,508.74495692551136,2.0,1.0,part_1,,,,,,,,,,,,,cyan,triangle
124.0,2.0,2.0,0.0,2.0,2.0,352.0667366683483,2.0,1.0,part_1,,,,,,,,,,,,,magenta,circle
87.0,2.0,2.0,0.0,4.0,4.0,420.1228003948927,2.0,1.0,part_1,,,,,,,,,,,,,magenta,circle
81.0,6.0,2.0,1.0,4.0,4.0,375.5839541554451,2.0,1.0,part_1,,,,,,,,,,,,,blue,diamond
67.0,1.0,1.0,0.0,4.0,4.0,430.2431549876928,2.0,1.0,part_1,,,,,,,,,,,,,white,flipped triangle
124.0,2.0,2.0,0.0,4.0,4.0,343.3267995715141,3.0,1.0,part_1,,,,,,,,,,,,,magenta,circle
423.0,8.0,4.0,1.0,3.0,3.0,310.4375638067722,3.0,1.0,part_1,,,,,,,,,,,,,green,I
213.0,3.0,3.0,0.0,1.0,1.0,344.882246106863,3.0,1.0,part_1,,,,,,,,,,,,,cyan,triangle
387.0,4.0,4.0,0.0,1.0,1.0,360.2367043495178,3.0,1.0,part_1,,,,,,,,,,,,,gray,hexagon
54.0,1.0,1.0,0.0,3.0,3.0,308.6548000574112,3.0,1.0,part_1,,,,,,,,,,,,,white,flipped triangle
29.0,1.0,1.0,0.0,1.0,1.0,350.6493400782347,3.0,1.0,part_1,,,,,,,,,,,,,white,flipped triangle
114.0,2.0,2.0,0.0,2.0,2.0,318.4845559298992,3.0,1.0,part_1,,,,,,,,,,,,,magenta,circle
86.0,6.0,2.0,1.0,4.0,4.0,345.3579526394605,3.0,1.0,part_1,,,,,,,,,,,,,blue,diamond
49.0,5.0,1.0,1.0,3.0,3.0,334.9522836506367,3.0,1.0,part_1,,,,,,,,,,,,,orange,cross
410.0,4.0,4.0,0.0,4.0,4.0,364.3125761300325,3.0,1.0,part_1,,,,,,,,,,,,,gray,hexagon
117.0,6.0,2.0,1.0,3.0,3.0,327.2127192467451,3.0,1.0,part_1,,,,,,,,,,,,,blue,diamond
88.0,2.0,2.0,0.0,1.0,1.0,274.4173835963011,3.0,1.0,part_1,,,,,,,,,,,,,magenta,circle
44.0,1.0,1.0,0.0,3.0,3.0,338.4960889816284,3.0,1.0,part_1,,,,,,,,,,,,,white,flipped triangle
181.0,3.0,3.0,0.0,1.0,1.0,350.7356010377407,3.0,1.0,part_1,,,,,,,,,,,,,cyan,triangle
380.0,4.0,4.0,0.0,3.0,3.0,410.6087293475866,3.0,1.0,part_1,,,,,,,,,,,,,gray,hexagon
0.0,3.0,0.0,0.0,2.0,2.0,320.4880282282829,3.0,1.0,part_1,,,,,,,,,,,,,cyan,triangle
61.0,1.0,1.0,0.0,2.0,2.0,292.4239374697208,3.0,1.0,part_1,,,,,,,,,,,,,white,flipped triangle
391.0,8.0,4.0,1.0,3.0,3.0,287.3355187475681,3.0,1.0,part_1,,,,,,,,,,,,,green,I
406.0,4.0,4.0,0.0,1.0,1.0,323.1782391667366,3.0,1.0,part_1,,,,,,,,,,,,,gray,hexagon
381.0,8.0,4.0,1.0,1.0,1.0,346.39504365623,3.0,1.0,part_1,,,,,,,,,,,,,green,I
386.0,8.0,4.0,1.0,2.0,2.0,293.9630318433046,3.0,1.0,part_1,,,,,,,,,,,,,green,I
0.0,4.0,0.0,0.0,1.0,1.0,332.8128010034561,3.0,1.0,part_1,,,,,,,,,,,,,gray,hexagon
0.0,3.0,0.0,0.0,2.0,2.0,319.7464346885681,3.0,1.0,part_1,,,,,,,,,,,,,cyan,triangle
36.0,1.0,1.0,0.0,3.0,3.0,298.7691815942526,3.0,1.0,part_1,,,,,,,,,,,,,white,flipped triangle
199.0,7.0,3.0,1.0,2.0,2.0,279.7306068241596,3.0,1.0,part_1,,,,,,,,,,,,,yellow,square
221.0,3.0,3.0,0.0,1.0,1.0,326.912347227335,3.0,1.0,part_1,,,,,,,,,,,,,cyan,triangle
0.0,1.0,0.0,0.0,2.0,2.0,420.8361543715,3.0,1.0,part_1,,,,,,,,,,,,,white,flipped triangle
43.0,1.0,1.0,0.0,3.0,3.0,335.4508187621832,3.0,1.0,part_1,,,,,,,,,,,,,white,flipped triangle
177.0,3.0,3.0,0.0,4.0,4.0,318.0446587502956,3.0,1.0,part_1,,,,,,,,,,,,,cyan,triangle
192.0,3.0,3.0,0.0,3.0,3.0,364.539073780179,3.0,2.0,part_1,,,,,,,,,,,,,cyan,triangle
195.0,7.0,3.0,1.0,1.0,1.0,394.8881104588508,3.0,1.0,part_1,,,,,,,,,,,,,yellow,square
213.0,7.0,3.0,1.0,4.0,4.0,305.3155690431595,3.0,1.0,part_1,,,,,,,,,,,,,yellow,square
77.0,6.0,2.0,1.0,2.0,2.0,307.156266644597,3.0,1.0,part_1,,,,,,,,,,,,,blue,diamond
83.0,2.0,2.0,0.0,4.0,4.0,361.9384355843067,3.0,1.0,part_1,,,,,,,,,,,,,magenta,circle
55.0,5.0,1.0,1.0,4.0,4.0,414.4144114106893,3.0,1.0,part_1,,,,,,,,,,,,,orange,cross
400.0,8.0,4.0,1.0,1.0,1.0,336.5687038749456,3.0,1.0,part_1,,,,,,,,,,,,,green,I
0.0,8.0,0.0,1.0,3.0,3.0,406.5573085099458,3.0,1.0,part_1,,,,,,,,,,,,,green,I
104.0,6.0,2.0,1.0,2.0,2.0,292.8702868521213,3.0,1.0,part_1,,,,,,,,,,,,,blue,diamond
0.0,1.0,0.0,0.0,2.0,2.0,319.7561204433441,3.0,1.0,part_1,,,,,,,,,,,,,white,flipped triangle
201.0,3.0,3.0,0.0,2.0,2.0,298.3696423470974,3.0,1.0,part_1,,,,,,,,,,,,,cyan,triangle
387.0,8.0,4.0,1.0,2.0,2.0,303.9854187518358,3.0,1.0,part_1,,,,,,,,,,,,,green,I
113.0,6.0,2.0,1.0,1.0,1.0,334.876349195838,3.0,1.0,part_1,,,,,,,,,,,,,blue,diamond
114.0,2.0,2.0,0.0,4.0,4.0,338.6880382895469,3.0,1.0,part_1,,,,,,,,,,,,,magenta,circle
63.0,1.0,1.0,0.0,3.0,3.0,327.0946107804775,3.0,1.0,part_1,,,,,,,,,,,,,white,flipped triangle
418.0,4.0,4.0,0.0,3.0,3.0,347.7770127356052,3.0,1.0,part_1,,,,,,,,,,,,,gray,hexagon
114.0,6.0,2.0,1.0,1.0,1.0,319.6205198764801,3.0,1.0,part_1,,,,,,,,,,,,,blue,diamond
395.0,4.0,4.0,0.0,3.0,3.0,366.6579890996218,3.0,1.0,part_1,,,,,,,,,,,,,gray,hexagon
0.0,2.0,0.0,0.0,2.0,2.0,306.85506016016,3.0,1.0,part_1,,,,,,,,,,,,,magenta,circle
395.0,8.0,4.0,1.0,4.0,4.0,332.7301740646362,3.0,1.0,part_1,,,,,,,,,,,,,green,I
0.0,5.0,0.0,1.0,2.0,2.0,299.5054963976145,3.0,1.0,part_1,,,,,,,,,,,,,orange,cross
0.0,8.0,0.0,1.0,4.0,4.0,537.1339935809374,3.0,1.0,part_1,,,,,,,,,,,,,green,I
203.0,3.0,3.0,0.0,1.0,1.0,302.5836087763309,3.0,1.0,part_1,,,,,,,,,,,,,cyan,triangle
422.0,8.0,4.0,1.0,3.0,3.0,375.5387235432863,3.0,1.0,part_1,,,,,,,,,,,,,green,I
109.0,6.0,2.0,1.0,1.0,1.0,414.9824976921081,3.0,1.0,part_1,,,,,,,,,,,,,blue,diamond
190.0,7.0,3.0,1.0,2.0,2.0,291.4978079497814,3.0,1.0,part_1,,,,,,,,,,,,,yellow,square
114.0,6.0,2.0,1.0,2.0,2.0,389.4782438874244,3.0,1.0,part_1,,,,,,,,,,,,,blue,diamond
0.0,1.0,0.0,0.0,3.0,3.0,323.0469282716512,3.0,1.0,part_1,,,,,,,,,,,,,white,flipped triangle
0.0,3.0,0.0,0.0,2.0,2.0,347.3472185432911,3.0,1.0,part_1,,,,,,,,,,,,,cyan,triangle
58.0,5.0,1.0,1.0,1.0,1.0,412.4537874013185,3.0,1.0,part_1,,,,,,,,,,,,,orange,cross
223.0,7.0,3.0,1.0,2.0,2.0,289.646103978157,3.0,1.0,part_1,,,,,,,,,,,,,yellow,square
77.0,6.0,2.0,1.0,3.0,3.0,375.2947058528662,3.0,1.0,part_1,,,,,,,,,,,,,blue,diamond
31.0,5.0,1.0,1.0,2.0,2.0,348.0046447366476,3.0,1.0,part_1,,,,,,,,,,,,,orange,cross
200.0,3.0,3.0,0.0,2.0,2.0,338.3057415485382,3.0,1.0,part_1,,,,,,,,,,,,,cyan,triangle
84.0,2.0,2.0,0.0,4.0,4.0,359.051851555705,3.0,1.0,part_1,,,,,,,,,,,,,magenta,circle
0.0,8.0,0.0,1.0,2.0,2.0,330.1928006112575,3.0,1.0,part_1,,,,,,,,,,,,,green,I
69.0,5.0,1.0,1.0,4.0,4.0,398.4350264072418,3.0,1.0,part_1,,,,,,,,,,,,,orange,cross
84.0,2.0,2.0,0.0,2.0,2.0,301.1780548840761,3.0,1.0,part_1,,,,,,,,,,,,,magenta,circle
117.0,6.0,2.0,1.0,4.0,4.0,321.3354870676994,3.0,1.0,part_1,,,,,,,,,,,,,blue,diamond
0.0,6.0,0.0,1.0,4.0,4.0,394.4103848189115,3.0,1.0,part_1,,,,,,,,,,,,,blue,diamond
50.0,5.0,1.0,1.0,4.0,4.0,303.0106052756309,3.0,1.0,part_1,,,,,,,,,,,,,orange,cross
31.0,5.0,1.0,1.0,1.0,1.0,334.664111956954,3.0,1.0,part_1,,,,,,,,,,,,,orange,cross
107.0,6.0,2.0,1.0,3.0,3.0,306.4487054944038,3.0,1.0,part_1,,,,,,,,,,,,,blue,diamond
0.0,4.0,0.0,0.0,3.0,3.0,366.5143828839063,3.0,1.0,part_1,,,,,,,,,,,,,gray,hexagon
77.0,2.0,2.0,0.0,3.0,3.0,316.3988161832094,3.0,1.0,part_1,,,,,,,,,,,,,magenta,circle
81.0,2.0,2.0,0.0,1.0,1.0,358.7141092866659,3.0,1.0,part_1,,,,,,,,,,,,,magenta,circle
124.0,6.0,2.0,1.0,4.0,4.0,307.4918240308761,3.0,1.0,part_1,,,,,,,,,,,,,blue,diamond
60.0,5.0,1.0,1.0,2.0,2.0,314.1618091613054,3.0,1.0,part_1,,,,,,,,,,,,,orange,cross
100.0,2.0,2.0,0.0,2.0,2.0,452.3465037345886,3.0,1.0,part_1,,,,,,,,,,,,,magenta,circle
95.0,2.0,2.0,0.0,3.0,3.0,369.340531527996,3.0,1.0,part_1,,,,,,,,,,,,,magenta,circle
189.0,3.0,3.0,0.0,2.0,2.0,358.0720499157905,3.0,1.0,part_1,,,,,,,,,,,,,cyan,triangle
0.0,4.0,0.0,0.0,1.0,1.0,395.6286050379276,3.0,1.0,part_1,,,,,,,,,,,,,gray,hexagon
393.0,8.0,4.0,1.0,4.0,4.0,296.5130135416984,3.0,1.0,part_1,,,,,,,,,,,,,green,I
59.0,5.0,1.0,1.0,1.0,1.0,301.7555046826601,3.0,1.0,part_1,,,,,,,,,,,,,orange,cross
213.0,7.0,3.0,1.0,4.0,4.0,401.8114544451237,3.0,1.0,part_1,,,,,,,,,,,,,yellow,square
402.0,8.0,4.0,1.0,3.0,3.0,648.0300147086382,3.0,1.0,part_1,,,,,,,,,,,,,green,I
0.0,6.0,0.0,1.0,1.0,1.0,330.7907320559025,3.0,1.0,part_1,,,,,,,,,,,,,blue,diamond
114.0,2.0,2.0,0.0,3.0,3.0,441.710764542222,3.0,1.0,part_1,,,,,,,,,,,,,magenta,circle
207.0,3.0,3.0,0.0,1.0,1.0,414.6589022129774,3.0,1.0,part_1,,,,,,,,,,,,,cyan,triangle
0.0,3.0,0.0,0.0,3.0,3.0,434.0959247201681,3.0,1.0,part_1,,,,,,,,,,,,,cyan,triangle
46.0,1.0,1.0,0.0,4.0,4.0,357.3713209480047,3.0,1.0,part_1,,,,,,,,,,,,,white,flipped triangle
114.0,6.0,2.0,1.0,3.0,3.0,491.7519371956587,3.0,1.0,part_1,,,,,,,,,,,,,blue,diamond
125.0,6.0,2.0,1.0,3.0,3.0,385.4489326477051,3.0,1.0,part_1,,,,,,,,,,,,,blue,diamond
394.0,8.0,4.0,1.0,1.0,1.0,349.3128847330808,3.0,1.0,part_1,,,,,,,,,,,,,green,I
415.0,8.0,4.0,1.0,1.0,1.0,352.2857036441564,3.0,1.0,part_1,,,,,,,,,,,,,green,I
0.0,5.0,0.0,1.0,3.0,3.0,460.7909191399812,3.0,1.0,part_1,,,,,,,,,,,,,orange,cross
28.0,1.0,1.0,0.0,4.0,4.0,355.2102334797382,3.0,1.0,part_1,,,,,,,,,,,,,white,flipped triangle
217.0,3.0,3.0,0.0,4.0,4.0,311.5089666098356,3.0,1.0,part_1,,,,,,,,,,,,,cyan,triangle
411.0,8.0,4.0,1.0,1.0,1.0,340.6233713030815,3.0,1.0,part_1,,,,,,,,,,,,,green,I
399.0,8.0,4.0,1.0,2.0,2.0,299.0684360265732,3.0,1.0,part_1,,,,,,,,,,,,,green,I
217.0,3.0,3.0,0.0,2.0,2.0,308.4826301783323,3.0,1.0,part_1,,,,,,,,,,,,,cyan,triangle
413.0,8.0,4.0,1.0,4.0,4.0,316.9946949928999,4.0,1.0,part_1,,,,,,,,,,,,,green,I
89.0,2.0,2.0,0.0,1.0,1.0,281.8362656980753,4.0,1.0,part_1,,,,,,,,,,,,,magenta,circle
125.0,2.0,2.0,0.0,2.0,2.0,268.9827792346477,4.0,1.0,part_1,,,,,,,,,,,,,magenta,circle
189.0,7.0,3.0,1.0,2.0,2.0,274.5210137218237,4.0,1.0,part_1,,,,,,,,,,,,,yellow,square
0.0,4.0,0.0,0.0,3.0,3.0,318.7665697187185,4.0,1.0,part_1,,,,,,,,,,,,,gray,hexagon
124.0,6.0,2.0,1.0,2.0,2.0,307.2432335466146,4.0,1.0,part_1,,,,,,,,,,,,,blue,diamond
203.0,3.0,3.0,0.0,4.0,4.0,331.891031935811,4.0,1.0,part_1,,,,,,,,,,,,,cyan,triangle
206.0,3.0,3.0,0.0,1.0,1.0,326.8268667161464,4.0,1.0,part_1,,,,,,,,,,,,,cyan,triangle
0.0,1.0,0.0,0.0,4.0,4.0,313.695315271616,4.0,1.0,part_1,,,,,,,,,,,,,white,flipped triangle
176.0,7.0,3.0,1.0,2.0,2.0,320.4511944204569,4.0,1.0,part_1,,,,,,,,,,,,,yellow,square
81.0,2.0,2.0,0.0,1.0,1.0,363.3890692144632,4.0,1.0,part_1,,,,,,,,,,,,,magenta,circle
54.0,1.0,1.0,0.0,3.0,3.0,336.4996649324894,4.0,1.0,part_1,,,,,,,,,,,,,white,flipped triangle
383.0,4.0,4.0,0.0,2.0,2.0,340.4345531016588,4.0,1.0,part_1,,,,,,,,,,,,,gray,hexagon
213.0,3.0,3.0,0.0,4.0,4.0,257.2875414043665,4.0,1.0,part_1,,,,,,,,,,,,,cyan,triangle
217.0,7.0,3.0,1.0,1.0,1.0,278.4957773983478,4.0,1.0,part_1,,,,,,,,,,,,,yellow,square
198.0,3.0,3.0,0.0,4.0,4.0,347.1410032361746,4.0,1.0,part_1,,,,,,,,,,,,,cyan,triangle
0.0,2.0,0.0,0.0,4.0,4.0,358.8911388069391,4.0,1.0,part_1,,,,,,,,,,,,,magenta,circle
0.0,7.0,0.0,1.0,3.0,3.0,357.6125614345073,4.0,1.0,part_1,,,,,,,,,,,,,yellow,square
42.0,1.0,1.0,0.0,4.0,4.0,347.5971464067697,4.0,1.0,part_1,,,,,,,,,,,,,white,flipped triangle
99.0,2.0,2.0,0.0,1.0,1.0,292.8719222545624,4.0,1.0,part_1,,,,,,,,,,,,,magenta,circle
69.0,1.0,1.0,0.0,2.0,2.0,337.6857489347458,4.0,1.0,part_1,,,,,,,,,,,,,white,flipped triangle
393.0,8.0,4.0,1.0,3.0,3.0,296.6128215193748,4.0,1.0,part_1,,,,,,,,,,,,,green,I
54.0,5.0,1.0,1.0,3.0,3.0,358.0425009131431,4.0,1.0,part_1,,,,,,,,,,,,,orange,cross
58.0,1.0,1.0,0.0,1.0,1.0,360.7976716011762,4.0,1.0,part_1,,,,,,,,,,,,,white,flipped triangle
395.0,4.0,4.0,0.0,4.0,4.0,326.5566118061542,4.0,1.0,part_1,,,,,,,,,,,,,gray,hexagon
69.0,1.0,1.0,0.0,2.0,2.0,299.2588244378567,4.0,1.0,part_1,,,,,,,,,,,,,white,flipped triangle
0.0,4.0,0.0,0.0,3.0,3.0,377.6976335793733,4.0,1.0,part_1,,,,,,,,,,,,,gray,hexagon
109.0,2.0,2.0,0.0,1.0,1.0,390.4897961765528,4.0,1.0,part_1,,,,,,,,,,,,,magenta,circle
29.0,5.0,1.0,1.0,2.0,2.0,299.0558221936226,4.0,1.0,part_1,,,,,,,,,,,,,orange,cross
406.0,8.0,4.0,1.0,4.0,4.0,302.7224726974964,4.0,1.0,part_1,,,,,,,,,,,,,green,I
0.0,4.0,0.0,0.0,2.0,2.0,384.7392294555902,4.0,1.0,part_1,,,,,,,,,,,,,gray,hexagon
393.0,4.0,4.0,0.0,1.0,1.0,334.242919459939,4.0,1.0,part_1,,,,,,,,,,,,,gray,hexagon
0.0,8.0,0.0,1.0,1.0,1.0,316.6939038783312,4.0,1.0,part_1,,,,,,,,,,,,,green,I
44.0,5.0,1.0,1.0,4.0,4.0,298.7704444676637,4.0,1.0,part_1,,,,,,,,,,,,,orange,cross
410.0,8.0,4.0,1.0,1.0,1.0,315.6022150069475,4.0,1.0,part_1,,,,,,,,,,,,,green,I
191.0,3.0,3.0,0.0,4.0,4.0,320.8355829119682,4.0,1.0,part_1,,,,,,,,,,,,,cyan,triangle
0.0,2.0,0.0,0.0,3.0,3.0,436.8022792041302,4.0,1.0,part_1,,,,,,,,,,,,,magenta,circle
411.0,8.0,4.0,1.0,3.0,3.0,348.8008137792349,4.0,1.0,part_1,,,,,,,,,,,,,green,I
0.0,5.0,0.0,1.0,4.0,4.0,361.0158395022154,4.0,1.0,part_1,,,,,,,,,,,,,orange,cross
405.0,8.0,4.0,1.0,4.0,4.0,323.8419666886329,4.0,1.0,part_1,,,,,,,,,,,,,green,I
87.0,2.0,2.0,0.0,4.0,4.0,344.4245774298906,4.0,1.0,part_1,,,,,,,,,,,,,magenta,circle
383.0,8.0,4.0,1.0,2.0,2.0,316.7265523225069,4.0,1.0,part_1,,,,,,,,,,,,,green,I
64.0,1.0,1.0,0.0,4.0,4.0,317.3000682145357,4.0,1.0,part_1,,,,,,,,,,,,,white,flipped triangle
0.0,5.0,0.0,1.0,1.0,1.0,288.5864824056625,4.0,1.0,part_1,,,,,,,,,,,,,orange,cross
74.0,5.0,1.0,1.0,2.0,2.0,330.2210066467523,4.0,1.0,part_1,,,,,,,,,,,,,orange,cross
0.0,1.0,0.0,0.0,3.0,3.0,318.8223727047443,4.0,1.0,part_1,,,,,,,,,,,,,white,flipped triangle
107.0,2.0,2.0,0.0,2.0,2.0,342.979472130537,4.0,1.0,part_1,,,,,,,,,,,,,magenta,circle
0.0,6.0,0.0,1.0,4.0,4.0,307.041423395276,4.0,1.0,part_1,,,,,,,,,,,,,blue,diamond
0.0,1.0,0.0,0.0,3.0,3.0,345.2135846018791,4.0,1.0,part_1,,,,,,,,,,,,,white,flipped triangle
221.0,7.0,3.0,1.0,2.0,2.0,297.5315302610397,4.0,1.0,part_1,,,,,,,,,,,,,yellow,square
61.0,1.0,1.0,0.0,2.0,2.0,345.623854547739,4.0,1.0,part_1,,,,,,,,,,,,,white,flipped triangle
93.0,6.0,2.0,1.0,4.0,4.0,315.5163843184709,4.0,1.0,part_1,,,,,,,,,,,,,blue,diamond
35.0,1.0,1.0,0.0,2.0,2.0,319.6179717779159,4.0,1.0,part_1,,,,,,,,,,,,,white,flipped triangle
421.0,8.0,4.0,1.0,1.0,1.0,405.2194841206074,4.0,1.0,part_1,,,,,,,,,,,,,green,I
58.0,1.0,1.0,0.0,3.0,3.0,297.8785242885351,4.0,1.0,part_1,,,,,,,,,,,,,white,flipped triangle
391.0,4.0,4.0,0.0,3.0,3.0,396.2497897446155,4.0,2.0,part_1,,,,,,,,,,,,,gray,hexagon
39.0,1.0,1.0,0.0,2.0,2.0,314.995463937521,4.0,1.0,part_1,,,,,,,,,,,,,white,flipped triangle
408.0,8.0,4.0,1.0,1.0,1.0,406.4984712749719,4.0,1.0,part_1,,,,,,,,,,,,,green,I
0.0,1.0,0.0,0.0,2.0,2.0,355.3143553435802,4.0,1.0,part_1,,,,,,,,,,,,,white,flipped triangle
0.0,4.0,0.0,0.0,4.0,4.0,289.4730716943741,4.0,1.0,part_1,,,,,,,,,,,,,gray,hexagon
94.0,2.0,2.0,0.0,1.0,1.0,341.0173635929823,4.0,1.0,part_1,,,,,,,,,,,,,magenta,circle
410.0,4.0,4.0,0.0,4.0,4.0,311.1022040247917,4.0,1.0,part_1,,,,,,,,,,,,,gray,hexagon
409.0,8.0,4.0,1.0,2.0,2.0,339.6375067532062,4.0,1.0,part_1,,,,,,,,,,,,,green,I
378.0,4.0,4.0,0.0,4.0,4.0,288.2539071142673,4.0,1.0,part_1,,,,,,,,,,,,,gray,hexagon
0.0,4.0,0.0,0.0,1.0,1.0,332.9106066375971,4.0,1.0,part_1,,,,,,,,,,,,,gray,hexagon
0.0,6.0,0.0,1.0,4.0,4.0,323.4546165913343,4.0,1.0,part_1,,,,,,,,,,,,,blue,diamond
0.0,7.0,0.0,1.0,3.0,3.0,393.8958458602428,4.0,1.0,part_1,,,,,,,,,,,,,yellow,square
0.0,6.0,0.0,1.0,1.0,1.0,333.5753101855516,4.0,1.0,part_1,,,,,,,,,,,,,blue,diamond
378.0,8.0,4.0,1.0,4.0,4.0,314.290352165699,4.0,1.0,part_1,,,,,,,,,,,,,green,I
213.0,3.0,3.0,0.0,2.0,2.0,359.5623187720775,4.0,1.0,part_1,,,,,,,,,,,,,cyan,triangle
112.0,2.0,2.0,0.0,2.0,2.0,328.5968378186226,4.0,1.0,part_1,,,,,,,,,,,,,magenta,circle
424.0,4.0,4.0,0.0,1.0,1.0,318.9673367887735,4.0,1.0,part_1,,,,,,,,,,,,,gray,hexagon
0.0,5.0,0.0,1.0,3.0,3.0,461.8735928088426,4.0,1.0,part_1,,,,,,,,,,,,,orange,cross
98.0,2.0,2.0,0.0,3.0,3.0,352.7453392744064,4.0,1.0,part_1,,,,,,,,,,,,,magenta,circle
184.0,3.0,3.0,0.0,2.0,2.0,493.6971720308065,4.0,1.0,part_1,,,,,,,,,,,,,cyan,triangle
385.0,4.0,4.0,0.0,2.0,2.0,312.4249074608087,4.0,1.0,part_1,,,,,,,,,,,,,gray,hexagon
0.0,4.0,0.0,0.0,2.0,2.0,336.07682026922697,4.0,1.0,part_1,,,,,,,,,,,,,gray,hexagon
74.0,1.0,1.0,0.0,1.0,1.0,316.1834310740232,4.0,1.0,part_1,,,,,,,,,,,,,white,flipped triangle
104.0,2.0,2.0,0.0,3.0,3.0,463.5302815586328,4.0,1.0,part_1,,,,,,,,,,,,,magenta,circle
212.0,7.0,3.0,1.0,1.0,1.0,391.0425044596195,4.0,1.0,part_1,,,,,,,,,,,,,yellow,square
0.0,3.0,0.0,0.0,4.0,4.0,314.546350389719,4.0,1.0,part_1,,,,,,,,,,,,,cyan,triangle
67.0,1.0,1.0,0.0,1.0,1.0,276.6333185136318,4.0,1.0,part_1,,,,,,,,,,,,,white,flipped triangle
411.0,4.0,4.0,0.0,4.0,4.0,309.2544563114643,4.0,1.0,part_1,,,,,,,,,,,,,gray,hexagon
404.0,8.0,4.0,1.0,1.0,1.0,287.8370396792888,4.0,1.0,part_1,,,,,,,,,,,,,green,I
58.0,5.0,1.0,1.0,3.0,3.0,331.5700832754373,4.0,1.0,part_1,,,,,,,,,,,,,orange,cross
177.0,7.0,3.0,1.0,3.0,3.0,401.026839390397,4.0,1.0,part_1,,,,,,,,,,,,,yellow,square
196.0,3.0,3.0,0.0,4.0,4.0,326.8174827098846,4.0,1.0,part_1,,,,,,,,,,,,,cyan,triangle
42.0,5.0,1.0,1.0,4.0,4.0,377.4957042187452,4.0,1.0,part_1,,,,,,,,,,,,,orange,cross
37.0,5.0,1.0,1.0,1.0,1.0,310.653256252408,4.0,1.0,part_1,,,,,,,,,,,,,orange,cross
383.0,4.0,4.0,0.0,3.0,3.0,333.0619856715202,4.0,1.0,part_1,,,,,,,,,,,,,gray,hexagon
399.0,8.0,4.0,1.0,1.0,1.0,401.1317249387502,4.0,1.0,part_1,,,,,,,,,,,,,green,I
90.0,2.0,2.0,0.0,3.0,3.0,475.2895142883062,4.0,1.0,part_1,,,,,,,,,,,,,magenta,circle
192.0,7.0,3.0,1.0,1.0,1.0,344.2953769117594,4.0,1.0,part_1,,,,,,,,,,,,,yellow,square
207.0,7.0,3.0,1.0,1.0,1.0,369.5914801210165,4.0,2.0,part_1,,,,,,,,,,,,,yellow,square
385.0,8.0,4.0,1.0,2.0,2.0,344.0329376608133,4.0,1.0,part_1,,,,,,,,,,,,,green,I
0.0,2.0,0.0,0.0,4.0,4.0,332.6081819832325,4.0,1.0,part_1,,,,,,,,,,,,,magenta,circle
86.0,2.0,2.0,0.0,2.0,2.0,449.9956984072923,4.0,1.0,part_1,,,,,,,,,,,,,magenta,circle
107.0,2.0,2.0,0.0,3.0,3.0,340.7566882669925,4.0,1.0,part_1,,,,,,,,,,,,,magenta,circle
399.0,4.0,4.0,0.0,4.0,4.0,339.5085427910089,4.0,1.0,part_1,,,,,,,,,,,,,gray,hexagon
61.0,5.0,1.0,1.0,1.0,1.0,327.232114970684,4.0,1.0,part_1,,,,,,,,,,,,,orange,cross
0.0,3.0,3.0,0.0,6.0,6.0,372.8099428117275,1.0,0.0,part_2,go,250.0,250.0,1.0,,,,,,,,,cyan,triangle
0.0,4.0,4.0,0.0,5.0,5.0,283.4402956068516,1.0,0.0,part_2,go,250.0,250.0,1.0,,,,,,,,,gray,hexagon
0.0,7.0,3.0,1.0,6.0,6.0,290.4355600476265,1.0,0.0,part_2,go,250.0,250.0,1.0,,,,,,,,,yellow,square
0.0,4.0,4.0,0.0,6.0,6.0,306.3568416982889,1.0,0.0,part_2,go,250.0,250.0,1.0,,,,,,,,,gray,hexagon
0.0,5.0,1.0,1.0,5.0,5.0,512.399448081851,1.0,0.0,part_2,stop,250.0,250.0,3.0,,,,,,,,,orange,cross
0.0,4.0,4.0,0.0,5.0,5.0,361.0833454877138,1.0,0.0,part_2,go,200.0,250.0,1.0,,,,,,,,,gray,hexagon
0.0,4.0,4.0,0.0,6.0,6.0,313.2109362632036,1.0,0.0,part_2,go,200.0,250.0,1.0,,,,,,,,,gray,hexagon
0.0,4.0,4.0,0.0,6.0,6.0,328.0018083751201,1.0,0.0,part_2,go,200.0,250.0,1.0,,,,,,,,,gray,hexagon
0.0,5.0,1.0,1.0,5.0,5.0,317.4663726240396,1.0,0.0,part_2,stop,200.0,250.0,3.0,,,,,,,,,orange,cross
0.0,6.0,2.0,1.0,5.0,5.0,360.1822219789028,1.0,0.0,part_2,go,150.0,250.0,1.0,,,,,,,,,blue,diamond
0.0,2.0,2.0,0.0,5.0,5.0,390.5529323965311,1.0,0.0,part_2,go,150.0,250.0,1.0,,,,,,,,,magenta,circle
0.0,1.0,1.0,0.0,5.0,5.0,950.4264798015356,1.0,0.0,part_2,go,150.0,250.0,1.0,,,,,,,,,white,flipped triangle
0.0,7.0,3.0,1.0,6.0,6.0,507.0892423391342,1.0,0.0,part_2,go,150.0,250.0,1.0,,,,,,,,,yellow,square
0.0,5.0,1.0,1.0,6.0,0.0,0.0,1.0,0.0,part_2,stop,150.0,250.0,4.0,,,,,,,,,orange,cross
0.0,5.0,1.0,1.0,6.0,0.0,0.0,1.0,0.0,part_2,stop,150.0,300.0,4.0,,,,,,,,,orange,cross
0.0,8.0,4.0,1.0,5.0,0.0,0.0,1.0,0.0,part_2,stop,150.0,350.0,4.0,,,,,,,,,green,I
0.0,3.0,3.0,0.0,6.0,6.0,907.3228873312472,1.0,0.0,part_2,go,200.0,350.0,1.0,,,,,,,,,cyan,triangle
0.0,8.0,4.0,1.0,6.0,0.0,0.0,1.0,0.0,part_2,stop,200.0,350.0,4.0,,,,,,,,,green,I
0.0,2.0,2.0,0.0,5.0,5.0,650.6665237247944,1.0,0.0,part_2,go,200.0,400.0,1.0,,,,,,,,,magenta,circle
0.0,2.0,2.0,0.0,6.0,6.0,546.448202803731,1.0,0.0,part_2,go,200.0,400.0,1.0,,,,,,,,,magenta,circle
0.0,4.0,4.0,0.0,5.0,5.0,726.4413125813007,1.0,0.0,part_2,go,200.0,400.0,1.0,,,,,,,,,gray,hexagon
0.0,4.0,4.0,0.0,6.0,6.0,456.9655228406191,1.0,0.0,part_2,go,200.0,400.0,1.0,,,,,,,,,gray,hexagon
0.0,2.0,2.0,0.0,6.0,6.0,509.4804856926203,1.0,0.0,part_2,go,200.0,400.0,1.0,,,,,,,,,magenta,circle
0.0,5.0,1.0,1.0,5.0,0.0,0.0,1.0,0.0,part_2,stop,200.0,400.0,4.0,,,,,,,,,orange,cross
0.0,2.0,2.0,0.0,5.0,5.0,462.6057408750057,1.0,0.0,part_2,go,250.0,400.0,1.0,,,,,,,,,magenta,circle
0.0,1.0,1.0,0.0,6.0,6.0,319.5578679442405,1.0,0.0,part_2,go,250.0,400.0,1.0,,,,,,,,,white,flipped triangle
0.0,4.0,4.0,0.0,5.0,5.0,342.8562711924314,1.0,0.0,part_2,go,250.0,400.0,1.0,,,,,,,,,gray,hexagon
0.0,2.0,2.0,0.0,5.0,5.0,382.4605867266655,1.0,0.0,part_2,go,250.0,400.0,1.0,,,,,,,,,magenta,circle
0.0,7.0,3.0,1.0,6.0,6.0,531.9196730852127,1.0,0.0,part_2,stop,250.0,400.0,3.0,,,,,,,,,yellow,square
0.0,1.0,1.0,0.0,6.0,6.0,777.7849826961756,1.0,0.0,part_2,go,250.0,350.0,1.0,,,,,,,,,white,flipped triangle
0.0,1.0,1.0,0.0,6.0,6.0,696.2676551192999,1.0,0.0,part_2,go,250.0,350.0,1.0,,,,,,,,,white,flipped triangle
0.0,1.0,1.0,0.0,5.0,5.0,571.500189602375,1.0,0.0,part_2,go,250.0,350.0,1.0,,,,,,,,,white,flipped triangle
0.0,2.0,2.0,0.0,5.0,5.0,465.4142893850803,1.0,0.0,part_2,go,250.0,350.0,1.0,,,,,,,,,magenta,circle
0.0,4.0,4.0,0.0,5.0,5.0,414.8286804556846,1.0,0.0,part_2,go,250.0,350.0,1.0,,,,,,,,,gray,hexagon
0.0,7.0,3.0,1.0,6.0,0.0,0.0,1.0,0.0,part_2,stop,250.0,350.0,4.0,,,,,,,,,yellow,square
0.0,6.0,2.0,1.0,6.0,6.0,753.0532553792,1.0,0.0,part_2,go,250.0,400.0,1.0,,,,,,,,,blue,diamond
0.0,8.0,4.0,1.0,5.0,0.0,0.0,2.0,0.0,part_2,stop,250.0,400.0,4.0,,,,,,,,,green,I
0.0,2.0,2.0,0.0,5.0,5.0,625.5056969821453,2.0,0.0,part_2,go,300.0,400.0,1.0,,,,,,,,,magenta,circle
0.0,5.0,1.0,1.0,5.0,5.0,354.6925242990255,2.0,0.0,part_2,go,300.0,400.0,1.0,,,,,,,,,orange,cross
0.0,7.0,3.0,1.0,5.0,5.0,368.2730365544557,2.0,0.0,part_2,go,300.0,400.0,1.0,,,,,,,,,yellow,square
0.0,7.0,3.0,1.0,6.0,0.0,0.0,2.0,0.0,part_2,stop,300.0,400.0,4.0,,,,,,,,,yellow,square
0.0,1.0,1.0,0.0,5.0,5.0,655.7970065623522,2.0,0.0,part_2,go,300.0,450.0,1.0,,,,,,,,,white,flipped triangle
0.0,8.0,4.0,1.0,5.0,5.0,327.1623086184263,2.0,0.0,part_2,stop,300.0,450.0,3.0,,,,,,,,,green,I
0.0,2.0,2.0,0.0,6.0,6.0,788.035374134779,2.0,0.0,part_2,go,250.0,450.0,1.0,,,,,,,,,magenta,circle
0.0,6.0,2.0,1.0,6.0,0.0,0.0,2.0,0.0,part_2,stop,250.0,450.0,4.0,,,,,,,,,blue,diamond
0.0,6.0,2.0,1.0,5.0,0.0,0.0,2.0,0.0,part_2,stop,250.0,500.0,4.0,,,,,,,,,blue,diamond
0.0,8.0,4.0,1.0,5.0,0.0,0.0,2.0,0.0,part_2,stop,300.0,500.0,4.0,,,,,,,,,green,I
0.0,1.0,1.0,0.0,5.0,5.0,689.8638270795345,2.0,0.0,part_2,go,350.0,500.0,1.0,,,,,,,,,white,flipped triangle
0.0,8.0,4.0,1.0,5.0,0.0,0.0,2.0,0.0,part_2,stop,350.0,500.0,4.0,,,,,,,,,green,I
0.0,3.0,3.0,0.0,6.0,6.0,649.4200062006712,2.0,0.0,part_2,go,400.0,500.0,1.0,,,,,,,,,cyan,triangle
0.0,3.0,3.0,0.0,6.0,6.0,748.2890188694,2.0,0.0,part_2,go,400.0,500.0,1.0,,,,,,,,,cyan,triangle
0.0,5.0,1.0,1.0,6.0,0.0,0.0,2.0,0.0,part_2,stop,400.0,500.0,4.0,,,,,,,,,orange,cross
0.0,3.0,3.0,0.0,6.0,6.0,698.8218482583761,2.0,0.0,part_2,go,400.0,550.0,1.0,,,,,,,,,cyan,triangle
0.0,6.0,2.0,1.0,5.0,0.0,0.0,2.0,0.0,part_2,stop,400.0,550.0,4.0,,,,,,,,,blue,diamond
0.0,2.0,2.0,0.0,5.0,5.0,746.1229749023914,2.0,0.0,part_2,go,450.0,550.0,1.0,,,,,,,,,magenta,circle
0.0,3.0,3.0,0.0,6.0,6.0,397.5811768323183,2.0,0.0,part_2,go,450.0,550.0,1.0,,,,,,,,,cyan,triangle
0.0,8.0,4.0,1.0,6.0,0.0,0.0,2.0,0.0,part_2,stop,450.0,550.0,4.0,,,,,,,,,green,I
0.0,8.0,4.0,1.0,5.0,0.0,0.0,2.0,0.0,part_2,stop,450.0,600.0,4.0,,,,,,,,,green,I
0.0,1.0,1.0,0.0,6.0,0.0,0.0,2.0,0.0,part_2,go,500.0,600.0,5.0,,,,,,,,,white,flipped triangle
0.0,3.0,3.0,0.0,5.0,5.0,638.4703125804663,2.0,0.0,part_2,go,500.0,600.0,1.0,,,,,,,,,cyan,triangle
0.0,3.0,3.0,0.0,5.0,5.0,422.0478739589453,2.0,0.0,part_2,go,500.0,600.0,1.0,,,,,,,,,cyan,triangle
0.0,1.0,1.0,0.0,5.0,5.0,333.1822678446769,2.0,0.0,part_2,go,500.0,600.0,1.0,,,,,,,,,white,flipped triangle
0.0,8.0,4.0,1.0,5.0,5.0,725.6593853235245,2.0,0.0,part_2,go,500.0,600.0,1.0,,,,,,,,,green,I
0.0,7.0,3.0,1.0,6.0,6.0,435.9904564917087,2.0,0.0,part_2,stop,500.0,600.0,3.0,,,,,,,,,yellow,square
0.0,6.0,2.0,1.0,6.0,0.0,0.0,2.0,0.0,part_2,stop,500.0,550.0,4.0,,,,,,,,,blue,diamond
0.0,2.0,2.0,0.0,6.0,6.0,721.9490110874176,2.0,0.0,part_2,go,500.0,600.0,1.0,,,,,,,,,magenta,circle
0.0,7.0,3.0,1.0,6.0,6.0,591.7585715651512,2.0,0.0,part_2,stop,500.0,600.0,3.0,,,,,,,,,yellow,square
0.0,3.0,3.0,0.0,5.0,5.0,529.7253411263227,2.0,0.0,part_2,go,500.0,550.0,1.0,,,,,,,,,cyan,triangle
0.0,7.0,3.0,1.0,5.0,0.0,0.0,2.0,0.0,part_2,stop,500.0,550.0,4.0,,,,,,,,,yellow,square
0.0,6.0,2.0,1.0,6.0,0.0,0.0,2.0,0.0,part_2,stop,550.0,550.0,4.0,,,,,,,,,blue,diamond
0.0,2.0,2.0,0.0,5.0,5.0,641.4246596395969,2.0,0.0,part_2,go,550.0,600.0,1.0,,,,,,,,,magenta,circle
0.0,6.0,2.0,1.0,6.0,6.0,736.3270279020071,2.0,0.0,part_2,go,550.0,600.0,1.0,,,,,,,,,blue,diamond
0.0,2.0,2.0,0.0,6.0,6.0,513.6545524001122,3.0,0.0,part_2,go,550.0,600.0,1.0,,,,,,,,,magenta,circle
0.0,1.0,1.0,0.0,6.0,6.0,886.8787195533514,3.0,0.0,part_2,go,550.0,600.0,1.0,,,,,,,,,white,flipped triangle
0.0,5.0,1.0,1.0,6.0,6.0,342.2516975551843,3.0,0.0,part_2,stop,550.0,600.0,3.0,,,,,,,,,orange,cross
0.0,7.0,3.0,1.0,6.0,0.0,0.0,3.0,0.0,part_2,stop,550.0,550.0,4.0,,,,,,,,,yellow,square
0.0,8.0,4.0,1.0,6.0,6.0,799.9157756567001,3.0,0.0,part_2,go,550.0,600.0,1.0,,,,,,,,,green,I
0.0,5.0,1.0,1.0,6.0,0.0,0.0,3.0,0.0,part_2,stop,550.0,600.0,4.0,,,,,,,,,orange,cross
0.0,6.0,2.0,1.0,6.0,0.0,0.0,3.0,0.0,part_2,stop,550.0,650.0,4.0,,,,,,,,,blue,diamond
0.0,3.0,3.0,0.0,5.0,5.0,668.0247150361538,3.0,0.0,part_2,go,550.0,700.0,1.0,,,,,,,,,cyan,triangle
0.0,6.0,2.0,1.0,6.0,6.0,803.9493374526501,3.0,0.0,part_2,stop,550.0,700.0,3.0,,,,,,,,,blue,diamond
0.0,6.0,2.0,1.0,6.0,6.0,945.6934686750174,3.0,0.0,part_2,go,550.0,650.0,1.0,,,,,,,,,blue,diamond
0.0,5.0,1.0,1.0,6.0,0.0,0.0,3.0,0.0,part_2,stop,550.0,650.0,4.0,,,,,,,,,orange,cross
0.0,1.0,1.0,0.0,5.0,5.0,876.1477321386337,3.0,0.0,part_2,go,550.0,700.0,1.0,,,,,,,,,white,flipped triangle
0.0,6.0,2.0,1.0,5.0,0.0,0.0,3.0,0.0,part_2,stop,550.0,700.0,4.0,,,,,,,,,blue,diamond
0.0,4.0,4.0,0.0,6.0,6.0,840.8000040799379,3.0,0.0,part_2,go,600.0,700.0,1.0,,,,,,,,,gray,hexagon
0.0,2.0,2.0,0.0,6.0,6.0,671.223808079958,3.0,0.0,part_2,go,600.0,700.0,1.0,,,,,,,,,magenta,circle
0.0,7.0,3.0,1.0,5.0,5.0,632.2206500917673,3.0,0.0,part_2,go,600.0,700.0,1.0,,,,,,,,,yellow,square
0.0,3.0,3.0,0.0,6.0,6.0,542.2226097434759,3.0,0.0,part_2,go,600.0,700.0,1.0,,,,,,,,,cyan,triangle
0.0,4.0,4.0,0.0,5.0,5.0,294.202409684658,3.0,0.0,part_2,go,600.0,700.0,1.0,,,,,,,,,gray,hexagon
0.0,4.0,4.0,0.0,6.0,6.0,847.1897281706333,3.0,0.0,part_2,go,600.0,700.0,1.0,,,,,,,,,gray,hexagon
0.0,7.0,3.0,1.0,6.0,6.0,932.7800907194614,3.0,0.0,part_2,go,600.0,700.0,1.0,,,,,,,,,yellow,square
0.0,2.0,2.0,0.0,5.0,5.0,708.1409618258476,3.0,0.0,part_2,go,600.0,700.0,1.0,,,,,,,,,magenta,circle
0.0,8.0,4.0,1.0,5.0,0.0,0.0,3.0,0.0,part_2,stop,600.0,700.0,4.0,,,,,,,,,green,I
0.0,8.0,4.0,1.0,5.0,0.0,0.0,3.0,0.0,part_2,stop,650.0,700.0,4.0,,,,,,,,,green,I
0.0,5.0,1.0,1.0,5.0,5.0,926.0943084955215,3.0,0.0,part_2,go,700.0,700.0,1.0,,,,,,,,,orange,cross
0.0,5.0,1.0,1.0,6.0,0.0,0.0,3.0,0.0,part_2,stop,700.0,700.0,4.0,,,,,,,,,orange,cross
0.0,1.0,1.0,0.0,6.0,6.0,1044.2314483225346,3.0,0.0,part_2,go,700.0,750.0,1.0,,,,,,,,,white,flipped triangle
0.0,6.0,2.0,1.0,6.0,0.0,0.0,3.0,0.0,part_2,stop,700.0,750.0,4.0,,,,,,,,,blue,diamond
0.0,7.0,3.0,1.0,6.0,6.0,944.1994857043028,3.0,0.0,part_2,stop,700.0,800.0,3.0,,,,,,,,,yellow,square
0.0,6.0,2.0,1.0,5.0,0.0,0.0,3.0,0.0,part_2,stop,700.0,750.0,4.0,,,,,,,,,blue,diamond
0.0,8.0,4.0,1.0,6.0,6.0,807.169059291482,3.0,0.0,part_2,go,750.0,750.0,1.0,,,,,,,,,green,I
0.0,8.0,4.0,1.0,5.0,0.0,0.0,3.0,0.0,part_2,stop,750.0,750.0,4.0,,,,,,,,,green,I
0.0,8.0,4.0,1.0,6.0,6.0,877.9384586960077,3.0,0.0,part_2,stop,800.0,750.0,3.0,,,,,,,,,green,I
0.0,4.0,4.0,0.0,6.0,6.0,1197.12308421731,3.0,0.0,part_2,go,800.0,700.0,1.0,,,,,,,,,gray,hexagon
0.0,7.0,3.0,1.0,5.0,0.0,0.0,3.0,0.0,part_2,stop,800.0,700.0,4.0,,,,,,,,,yellow,square
0.0,4.0,4.0,0.0,5.0,5.0,694.4241262972355,3.0,0.0,part_2,go,850.0,700.0,1.0,,,,,,,,,gray,hexagon
0.0,6.0,2.0,1.0,6.0,6.0,1013.4580284357071,3.0,0.0,part_2,go,850.0,700.0,1.0,,,,,,,,,blue,diamond
0.0,1.0,1.0,0.0,5.0,5.0,370.3061901032924,4.0,0.0,part_2,go,850.0,700.0,1.0,,,,,,,,,white,flipped triangle
0.0,4.0,4.0,0.0,6.0,6.0,287.9199497401714,4.0,0.0,part_2,go,850.0,700.0,1.0,,,,,,,,,gray,hexagon
0.0,8.0,4.0,1.0,5.0,5.0,511.18782348930836,4.0,0.0,part_2,stop,850.0,700.0,3.0,,,,,,,,,green,I
0.0,3.0,3.0,0.0,5.0,5.0,541.8116133660078,4.0,0.0,part_2,go,800.0,700.0,1.0,,,,,,,,,cyan,triangle
0.0,4.0,4.0,0.0,5.0,5.0,590.6468871980906,4.0,0.0,part_2,go,800.0,700.0,1.0,,,,,,,,,gray,hexagon
0.0,3.0,3.0,0.0,5.0,5.0,726.1726353317499,4.0,0.0,part_2,go,800.0,700.0,1.0,,,,,,,,,cyan,triangle
0.0,4.0,4.0,0.0,5.0,5.0,556.1239216476679,4.0,0.0,part_2,go,800.0,700.0,1.0,,,,,,,,,gray,hexagon
0.0,2.0,2.0,0.0,6.0,6.0,610.0590880960226,4.0,0.0,part_2,go,800.0,700.0,1.0,,,,,,,,,magenta,circle
0.0,7.0,3.0,1.0,6.0,6.0,621.3510688394308,4.0,0.0,part_2,go,800.0,700.0,1.0,,,,,,,,,yellow,square
0.0,5.0,1.0,1.0,5.0,5.0,484.3542464077472,4.0,0.0,part_2,stop,800.0,700.0,3.0,,,,,,,,,orange,cross
0.0,8.0,4.0,1.0,6.0,6.0,722.0826279371977,4.0,0.0,part_2,stop,750.0,700.0,3.0,,,,,,,,,green,I
0.0,2.0,2.0,0.0,5.0,5.0,1146.7444524168968,4.0,0.0,part_2,go,750.0,650.0,1.0,,,,,,,,,magenta,circle
0.0,4.0,4.0,0.0,6.0,6.0,944.638516753912,4.0,0.0,part_2,go,750.0,650.0,1.0,,,,,,,,,gray,hexagon
0.0,6.0,2.0,1.0,5.0,5.0,970.8923008292912,4.0,0.0,part_2,go,750.0,650.0,1.0,,,,,,,,,blue,diamond
0.0,5.0,1.0,1.0,5.0,5.0,846.7855993658304,4.0,0.0,part_2,stop,750.0,650.0,3.0,,,,,,,,,orange,cross
0.0,4.0,4.0,0.0,6.0,6.0,1038.2102355360985,4.0,0.0,part_2,go,700.0,650.0,1.0,,,,,,,,,gray,hexagon
0.0,3.0,3.0,0.0,5.0,5.0,853.9563212543726,4.0,0.0,part_2,go,700.0,650.0,1.0,,,,,,,,,cyan,triangle
0.0,1.0,1.0,0.0,5.0,5.0,863.025700673461,4.0,0.0,part_2,go,700.0,650.0,1.0,,,,,,,,,white,flipped triangle
0.0,4.0,4.0,0.0,6.0,6.0,526.6341809183359,4.0,0.0,part_2,go,700.0,650.0,1.0,,,,,,,,,gray,hexagon
0.0,1.0,1.0,0.0,6.0,6.0,974.783156067133,4.0,0.0,part_2,go,700.0,650.0,1.0,,,,,,,,,white,flipped triangle
0.0,1.0,1.0,0.0,6.0,6.0,790.1144120842218,4.0,0.0,part_2,go,700.0,650.0,1.0,,,,,,,,,white,flipped triangle
0.0,2.0,2.0,0.0,6.0,6.0,962.961733341217,4.0,0.0,part_2,go,700.0,650.0,1.0,,,,,,,,,magenta,circle
0.0,4.0,4.0,0.0,5.0,5.0,724.9726690351963,4.0,0.0,part_2,go,700.0,650.0,1.0,,,,,,,,,gray,hexagon
0.0,8.0,4.0,1.0,5.0,5.0,787.994097918272,4.0,0.0,part_2,stop,700.0,650.0,3.0,,,,,,,,,green,I
0.0,5.0,1.0,1.0,5.0,0.0,0.0,4.0,0.0,part_2,stop,650.0,650.0,4.0,,,,,,,,,orange,cross
0.0,2.0,2.0,0.0,5.0,5.0,1339.0587083995342,4.0,0.0,part_2,go,700.0,650.0,1.0,,,,,,,,,magenta,circle
0.0,6.0,2.0,1.0,6.0,6.0,567.7652712911367,4.0,0.0,part_2,stop,700.0,650.0,3.0,,,,,,,,,blue,diamond
0.0,6.0,2.0,1.0,5.0,0.0,0.0,4.0,0.0,part_2,stop,700.0,600.0,4.0,,,,,,,,,blue,diamond
0.0,2.0,2.0,0.0,6.0,6.0,847.6779889315367,4.0,0.0,part_2,go,750.0,600.0,1.0,,,,,,,,,magenta,circle
0.0,5.0,1.0,1.0,5.0,5.0,398.2211407274008,4.0,0.0,part_2,stop,750.0,600.0,3.0,,,,,,,,,orange,cross
0.0,1.0,1.0,0.0,5.0,5.0,886.3133527338505,4.0,0.0,part_2,go,700.0,600.0,1.0,,,,,,,,,white,flipped triangle
0.0,2.0,2.0,0.0,6.0,6.0,863.2036652415991,4.0,0.0,part_2,go,700.0,600.0,1.0,,,,,,,,,magenta,circle
0.0,5.0,1.0,1.0,5.0,0.0,0.0,4.0,0.0,part_2,stop,700.0,600.0,4.0,,,,,,,,,orange,cross
0.0,1.0,1.0,0.0,5.0,5.0,916.704922914505,4.0,0.0,part_2,go,750.0,600.0,1.0,,,,,,,,,white,flipped triangle
0.0,8.0,4.0,1.0,6.0,0.0,0.0,4.0,0.0,part_2,stop,750.0,600.0,4.0,,,,,,,,,green,I
0.0,8.0,4.0,1.0,5.0,0.0,0.0,4.0,0.0,part_2,stop,750.0,650.0,4.0,,,,,,,,,green,I
0.0,2.0,2.0,0.0,6.0,6.0,484.4297226518392,5.0,0.0,part_2,go,800.0,650.0,1.0,,,,,,,,,magenta,circle
0.0,5.0,1.0,1.0,6.0,6.0,299.7302655130625,5.0,0.0,part_2,stop,800.0,650.0,3.0,,,,,,,,,orange,cross
0.0,1.0,1.0,0.0,5.0,5.0,284.6889123320579,5.0,0.0,part_2,go,800.0,600.0,1.0,,,,,,,,,white,flipped triangle
0.0,3.0,3.0,0.0,6.0,6.0,244.0284248441457,5.0,0.0,part_2,go,800.0,600.0,1.0,,,,,,,,,cyan,triangle
0.0,6.0,2.0,1.0,5.0,5.0,381.8723931908607,5.0,0.0,part_2,stop,800.0,600.0,3.0,,,,,,,,,blue,diamond
0.0,6.0,2.0,1.0,5.0,5.0,1093.0026769638062,5.0,0.0,part_2,go,750.0,600.0,1.0,,,,,,,,,blue,diamond
0.0,2.0,2.0,0.0,5.0,5.0,464.9299364537,5.0,0.0,part_2,go,750.0,600.0,1.0,,,,,,,,,magenta,circle
0.0,3.0,3.0,0.0,6.0,6.0,451.0547388345003,5.0,0.0,part_2,go,750.0,600.0,1.0,,,,,,,,,cyan,triangle
0.0,4.0,4.0,0.0,5.0,5.0,401.589710265398,5.0,0.0,part_2,go,750.0,600.0,1.0,,,,,,,,,gray,hexagon
0.0,7.0,3.0,1.0,5.0,5.0,481.0992553830147,5.0,0.0,part_2,stop,750.0,600.0,3.0,,,,,,,,,yellow,square
0.0,3.0,3.0,0.0,6.0,6.0,264.8961339145899,5.0,0.0,part_2,go,700.0,600.0,1.0,,,,,,,,,cyan,triangle
0.0,3.0,3.0,0.0,6.0,6.0,326.7418090254068,5.0,0.0,part_2,go,700.0,600.0,1.0,,,,,,,,,cyan,triangle
0.0,3.0,3.0,0.0,5.0,5.0,446.3199488818645,5.0,0.0,part_2,go,700.0,600.0,1.0,,,,,,,,,cyan,triangle
0.0,4.0,4.0,0.0,5.0,5.0,404.6566840261221,5.0,0.0,part_2,go,700.0,600.0,1.0,,,,,,,,,gray,hexagon
0.0,6.0,2.0,1.0,5.0,5.0,292.6248572766781,5.0,0.0,part_2,stop,700.0,600.0,3.0,,,,,,,,,blue,diamond
0.0,7.0,3.0,1.0,6.0,6.0,285.7015710324049,5.0,0.0,part_2,stop,650.0,600.0,3.0,,,,,,,,,yellow,square
0.0,2.0,2.0,0.0,6.0,6.0,354.8972196877002,5.0,0.0,part_2,go,650.0,550.0,1.0,,,,,,,,,magenta,circle
0.0,7.0,3.0,1.0,5.0,5.0,293.8453927636146,5.0,0.0,part_2,stop,650.0,550.0,3.0,,,,,,,,,yellow,square
0.0,3.0,3.0,0.0,6.0,6.0,675.171509385109,5.0,0.0,part_2,go,600.0,550.0,1.0,,,,,,,,,cyan,triangle
0.0,7.0,3.0,1.0,6.0,0.0,0.0,5.0,0.0,part_2,stop,600.0,550.0,4.0,,,,,,,,,yellow,square
0.0,1.0,1.0,0.0,6.0,6.0,714.5718522369862,5.0,0.0,part_2,go,600.0,600.0,1.0,,,,,,,,,white,flipped triangle
0.0,2.0,2.0,0.0,6.0,6.0,947.439918294549,5.0,0.0,part_2,go,600.0,600.0,1.0,,,,,,,,,magenta,circle
0.0,1.0,1.0,0.0,5.0,5.0,552.9763251543045,5.0,0.0,part_2,go,600.0,600.0,1.0,,,,,,,,,white,flipped triangle
0.0,4.0,4.0,0.0,6.0,6.0,650.0915549695492,5.0,0.0,part_2,go,600.0,600.0,1.0,,,,,,,,,gray,hexagon
0.0,2.0,2.0,0.0,5.0,5.0,367.3102725297212,5.0,0.0,part_2,go,600.0,600.0,1.0,,,,,,,,,magenta,circle
0.0,1.0,1.0,0.0,6.0,6.0,321.8042459338903,5.0,0.0,part_2,go,600.0,600.0,1.0,,,,,,,,,white,flipped triangle
0.0,3.0,3.0,0.0,5.0,5.0,304.456427693367,5.0,0.0,part_2,go,600.0,600.0,1.0,,,,,,,,,cyan,triangle
0.0,7.0,3.0,1.0,6.0,0.0,0.0,5.0,0.0,part_2,stop,600.0,600.0,4.0,,,,,,,,,yellow,square
0.0,7.0,3.0,1.0,5.0,0.0,0.0,5.0,0.0,part_2,stop,600.0,650.0,4.0,,,,,,,,,yellow,square
0.0,6.0,2.0,1.0,6.0,6.0,940.506586804986,5.0,0.0,part_2,go,650.0,650.0,1.0,,,,,,,,,blue,diamond
0.0,3.0,3.0,0.0,5.0,5.0,692.5249472260475,5.0,0.0,part_2,go,650.0,650.0,1.0,,,,,,,,,cyan,triangle
0.0,8.0,4.0,1.0,6.0,6.0,571.0921213030815,5.0,0.0,part_2,stop,650.0,650.0,3.0,,,,,,,,,green,I
0.0,2.0,2.0,0.0,6.0,6.0,397.366750985384,5.0,0.0,part_2,go,650.0,600.0,1.0,,,,,,,,,magenta,circle
0.0,7.0,3.0,1.0,5.0,5.0,277.4323597550392,5.0,0.0,part_2,stop,650.0,600.0,3.0,,,,,,,,,yellow,square
0.0,8.0,4.0,1.0,6.0,0.0,0.0,5.0,0.0,part_2,stop,600.0,600.0,4.0,,,,,,,,,green,I
0.0,7.0,3.0,1.0,6.0,6.0,826.9826211035252,5.0,0.0,part_2,go,600.0,650.0,1.0,,,,,,,,,yellow,square
0.0,6.0,2.0,1.0,6.0,6.0,292.5207875669002,6.0,0.0,part_2,stop,600.0,650.0,3.0,,,,,,,,,blue,diamond
0.0,3.0,3.0,0.0,6.0,6.0,259.3932375311851,6.0,0.0,part_2,go,600.0,600.0,1.0,,,,,,,,,cyan,triangle
0.0,1.0,1.0,0.0,5.0,5.0,311.8567485362291,6.0,0.0,part_2,go,600.0,600.0,1.0,,,,,,,,,white,flipped triangle
0.0,3.0,3.0,0.0,6.0,6.0,247.1838984638452,6.0,0.0,part_2,go,600.0,600.0,1.0,,,,,,,,,cyan,triangle
0.0,7.0,3.0,1.0,5.0,5.0,238.117353990674,6.0,0.0,part_2,stop,600.0,600.0,3.0,,,,,,,,,yellow,square
0.0,7.0,3.0,1.0,5.0,0.0,0.0,6.0,0.0,part_2,stop,550.0,600.0,4.0,,,,,,,,,yellow,square
0.0,4.0,4.0,0.0,5.0,5.0,717.5477687269449,6.0,0.0,part_2,go,600.0,600.0,1.0,,,,,,,,,gray,hexagon
0.0,8.0,4.0,1.0,6.0,6.0,198.1388162821531,6.0,0.0,part_2,go,600.0,600.0,1.0,,,,,,,,,green,I
0.0,5.0,1.0,1.0,6.0,6.0,344.2096598446369,6.0,0.0,part_2,stop,600.0,600.0,3.0,,,,,,,,,orange,cross
0.0,3.0,3.0,0.0,5.0,5.0,772.063672542572,6.0,0.0,part_2,go,600.0,550.0,1.0,,,,,,,,,cyan,triangle
0.0,7.0,3.0,1.0,5.0,5.0,324.7830718755722,6.0,0.0,part_2,stop,600.0,550.0,3.0,,,,,,,,,yellow,square
0.0,7.0,3.0,1.0,5.0,5.0,773.7359218299389,6.0,0.0,part_2,go,550.0,550.0,1.0,,,,,,,,,yellow,square
0.0,8.0,4.0,1.0,6.0,0.0,0.0,6.0,0.0,part_2,stop,550.0,550.0,4.0,,,,,,,,,green,I
0.0,3.0,3.0,0.0,5.0,5.0,620.4186603426933,6.0,0.0,part_2,go,550.0,600.0,1.0,,,,,,,,,cyan,triangle
0.0,5.0,1.0,1.0,6.0,6.0,641.714783385396,6.0,0.0,part_2,stop,550.0,600.0,3.0,,,,,,,,,orange,cross
0.0,5.0,1.0,1.0,5.0,5.0,914.9528983980416,6.0,0.0,part_2,go,550.0,550.0,1.0,,,,,,,,,orange,cross
0.0,4.0,4.0,0.0,5.0,5.0,482.2023957967758,6.0,0.0,part_2,go,550.0,550.0,1.0,,,,,,,,,gray,hexagon
0.0,3.0,3.0,0.0,5.0,5.0,360.1308949291706,6.0,0.0,part_2,go,550.0,550.0,1.0,,,,,,,,,cyan,triangle
0.0,1.0,1.0,0.0,6.0,6.0,250.2526231110096,6.0,0.0,part_2,go,550.0,550.0,1.0,,,,,,,,,white,flipped triangle
0.0,6.0,2.0,1.0,6.0,6.0,572.7269742637873,6.0,0.0,part_2,stop,550.0,550.0,3.0,,,,,,,,,blue,diamond
0.0,8.0,4.0,1.0,5.0,0.0,0.0,6.0,0.0,part_2,stop,550.0,500.0,4.0,,,,,,,,,green,I
0.0,5.0,1.0,1.0,6.0,6.0,607.4408758431673,6.0,0.0,part_2,go,600.0,500.0,1.0,,,,,,,,,orange,cross
0.0,6.0,2.0,1.0,5.0,5.0,325.7924877107143,6.0,0.0,part_2,stop,600.0,500.0,3.0,,,,,,,,,blue,diamond
0.0,1.0,1.0,0.0,5.0,5.0,343.5320146381855,6.0,0.0,part_2,go,550.0,500.0,1.0,,,,,,,,,white,flipped triangle
0.0,5.0,1.0,1.0,6.0,0.0,0.0,6.0,0.0,part_2,stop,550.0,500.0,4.0,,,,,,,,,orange,cross
0.0,3.0,3.0,0.0,5.0,5.0,611.3624423742294,6.0,0.0,part_2,go,550.0,550.0,1.0,,,,,,,,,cyan,triangle
0.0,1.0,1.0,0.0,6.0,6.0,717.1983774751425,6.0,0.0,part_2,go,550.0,550.0,1.0,,,,,,,,,white,flipped triangle
0.0,7.0,3.0,1.0,5.0,5.0,637.2915338724852,6.0,0.0,part_2,stop,550.0,550.0,3.0,,,,,,,,,yellow,square
0.0,8.0,4.0,1.0,6.0,6.0,811.4012759178877,6.0,0.0,part_2,go,500.0,550.0,1.0,,,,,,,,,green,I
0.0,4.0,4.0,0.0,5.0,5.0,634.7670685499907,6.0,0.0,part_2,go,500.0,550.0,1.0,,,,,,,,,gray,hexagon
0.0,3.0,3.0,0.0,5.0,5.0,370.4498931765556,6.0,0.0,part_2,go,500.0,550.0,1.0,,,,,,,,,cyan,triangle
0.0,4.0,4.0,0.0,6.0,6.0,248.6435882747173,6.0,0.0,part_2,go,500.0,550.0,1.0,,,,,,,,,gray,hexagon
0.0,1.0,1.0,0.0,6.0,6.0,359.0254690498113,6.0,0.0,part_2,go,500.0,550.0,1.0,,,,,,,,,white,flipped triangle
0.0,7.0,3.0,1.0,5.0,0.0,0.0,6.0,0.0,part_2,stop,500.0,550.0,4.0,,,,,,,,,yellow,square
0.0,8.0,4.0,1.0,6.0,6.0,616.5943909436464,6.0,0.0,part_2,stop,550.0,550.0,3.0,,,,,,,,,green,I
0.0,5.0,1.0,1.0,5.0,5.0,902.1420814096928,6.0,0.0,part_2,go,550.0,500.0,1.0,,,,,,,,,orange,cross
0.0,4.0,4.0,0.0,5.0,5.0,473.755108192563,7.0,0.0,part_2,go,550.0,500.0,1.0,,,,,,,,,gray,hexagon
0.0,6.0,2.0,1.0,5.0,5.0,268.4867288917303,7.0,0.0,part_2,stop,550.0,500.0,3.0,,,,,,,,,blue,diamond
0.0,5.0,1.0,1.0,5.0,5.0,303.7338107824325,7.0,0.0,part_2,go,500.0,500.0,1.0,,,,,,,,,orange,cross
0.0,1.0,1.0,0.0,6.0,6.0,250.0474844127893,7.0,0.0,part_2,go,500.0,500.0,1.0,,,,,,,,,white,flipped triangle
0.0,1.0,1.0,0.0,5.0,5.0,312.8460366278887,7.0,0.0,part_2,go,500.0,500.0,1.0,,,,,,,,,white,flipped triangle
0.0,5.0,1.0,1.0,6.0,0.0,0.0,7.0,0.0,part_2,stop,500.0,500.0,4.0,,,,,,,,,orange,cross
0.0,6.0,2.0,1.0,5.0,5.0,326.1344004422426,7.0,0.0,part_2,stop,500.0,550.0,3.0,,,,,,,,,blue,diamond
0.0,3.0,3.0,0.0,6.0,6.0,591.5919672697783,7.0,0.0,part_2,go,450.0,550.0,1.0,,,,,,,,,cyan,triangle
0.0,6.0,2.0,1.0,5.0,5.0,472.5926369428634,7.0,0.0,part_2,stop,450.0,550.0,3.0,,,,,,,,,blue,diamond
0.0,1.0,1.0,0.0,6.0,6.0,647.0771599560976,7.0,0.0,part_2,go,400.0,550.0,1.0,,,,,,,,,white,flipped triangle
0.0,2.0,2.0,0.0,5.0,5.0,676.2452684342861,7.0,0.0,part_2,go,400.0,550.0,1.0,,,,,,,,,magenta,circle
0.0,6.0,2.0,1.0,6.0,6.0,614.1581498086452,7.0,0.0,part_2,stop,400.0,550.0,3.0,,,,,,,,,blue,diamond
0.0,4.0,4.0,0.0,6.0,6.0,659.1139640659094,7.0,0.0,part_2,go,400.0,500.0,1.0,,,,,,,,,gray,hexagon
0.0,7.0,3.0,1.0,5.0,0.0,0.0,7.0,0.0,part_2,stop,400.0,500.0,4.0,,,,,,,,,yellow,square
0.0,8.0,4.0,1.0,5.0,5.0,620.3483752906322,7.0,0.0,part_2,go,450.0,500.0,1.0,,,,,,,,,green,I
0.0,5.0,1.0,1.0,5.0,0.0,0.0,7.0,0.0,part_2,stop,450.0,500.0,4.0,,,,,,,,,orange,cross
0.0,3.0,3.0,0.0,6.0,6.0,603.9077043533325,7.0,0.0,part_2,go,500.0,500.0,1.0,,,,,,,,,cyan,triangle
0.0,2.0,2.0,0.0,6.0,6.0,671.5878192335367,7.0,0.0,part_2,go,500.0,500.0,1.0,,,,,,,,,magenta,circle
0.0,8.0,4.0,1.0,6.0,6.0,873.8073632121086,7.0,0.0,part_2,go,500.0,500.0,1.0,,,,,,,,,green,I
0.0,1.0,1.0,0.0,6.0,6.0,294.7354186326265,7.0,0.0,part_2,go,500.0,500.0,1.0,,,,,,,,,white,flipped triangle
0.0,2.0,2.0,0.0,6.0,6.0,345.3145269304514,7.0,0.0,part_2,go,500.0,500.0,1.0,,,,,,,,,magenta,circle
0.0,8.0,4.0,1.0,6.0,6.0,350.1358814537525,7.0,0.0,part_2,stop,500.0,500.0,3.0,,,,,,,,,green,I
0.0,5.0,1.0,1.0,5.0,5.0,560.9012451022863,7.0,0.0,part_2,stop,500.0,450.0,3.0,,,,,,,,,orange,cross
0.0,3.0,3.0,0.0,6.0,6.0,575.2987526357174,7.0,0.0,part_2,go,450.0,450.0,1.0,,,,,,,,,cyan,triangle
0.0,6.0,2.0,1.0,5.0,5.0,557.9454638063908,7.0,0.0,part_2,go,450.0,450.0,1.0,,,,,,,,,blue,diamond
0.0,8.0,4.0,1.0,5.0,0.0,0.0,7.0,0.0,part_2,stop,450.0,450.0,4.0,,,,,,,,,green,I
0.0,6.0,2.0,1.0,5.0,5.0,579.3307609856129,7.0,0.0,part_2,stop,500.0,450.0,3.0,,,,,,,,,blue,diamond
0.0,2.0,2.0,0.0,5.0,5.0,786.5126989781857,7.0,0.0,part_2,go,450.0,450.0,1.0,,,,,,,,,magenta,circle
0.0,5.0,1.0,1.0,6.0,6.0,316.5000695735216,7.0,0.0,part_2,stop,450.0,450.0,3.0,,,,,,,,,orange,cross
0.0,4.0,4.0,0.0,5.0,5.0,488.9876190572977,7.0,0.0,part_2,go,450.0,400.0,1.0,,,,,,,,,gray,hexagon
0.0,1.0,1.0,0.0,6.0,6.0,600.6030030548573,7.0,0.0,part_2,go,450.0,400.0,1.0,,,,,,,,,white,flipped triangle
0.0,4.0,4.0,0.0,6.0,6.0,616.6677363216877,7.0,0.0,part_2,go,450.0,400.0,1.0,,,,,,,,,gray,hexagon
0.0,5.0,1.0,1.0,6.0,6.0,768.1295331567526,7.0,0.0,part_2,go,450.0,400.0,1.0,,,,,,,,,orange,cross
0.0,3.0,3.0,0.0,6.0,6.0,402.9666744172573,7.0,0.0,part_2,go,450.0,400.0,1.0,,,,,,,,,cyan,triangle
0.0,8.0,4.0,1.0,6.0,6.0,480.2579190582037,7.0,0.0,part_2,go,450.0,400.0,1.0,,,,,,,,,green,I
0.0,7.0,3.0,1.0,6.0,0.0,0.0,7.0,0.0,part_2,stop,450.0,400.0,4.0,,,,,,,,,yellow,square
0.0,5.0,1.0,1.0,6.0,6.0,370.6133402884006,8.0,0.0,part_2,stop,450.0,450.0,3.0,,,,,,,,,orange,cross
0.0,6.0,2.0,1.0,6.0,0.0,0.0,8.0,0.0,part_2,stop,450.0,400.0,4.0,,,,,,,,,blue,diamond
0.0,5.0,1.0,1.0,5.0,5.0,558.9480921626091,8.0,0.0,part_2,go,450.0,450.0,1.0,,,,,,,,,orange,cross
0.0,6.0,2.0,1.0,6.0,6.0,552.723353728652,8.0,0.0,part_2,stop,450.0,450.0,3.0,,,,,,,,,blue,diamond
0.0,8.0,4.0,1.0,5.0,5.0,565.1613343507051,8.0,0.0,part_2,stop,450.0,400.0,3.0,,,,,,,,,green,I
0.0,3.0,3.0,0.0,5.0,5.0,470.8057921379804,8.0,0.0,part_2,go,400.0,400.0,1.0,,,,,,,,,cyan,triangle
0.0,2.0,2.0,0.0,5.0,5.0,669.5460919290781,8.0,0.0,part_2,go,400.0,400.0,1.0,,,,,,,,,magenta,circle
0.0,2.0,2.0,0.0,6.0,6.0,203.3769246190786,8.0,0.0,part_2,go,400.0,400.0,1.0,,,,,,,,,magenta,circle
0.0,4.0,4.0,0.0,6.0,6.0,460.8501456677913,8.0,0.0,part_2,go,400.0,400.0,1.0,,,,,,,,,gray,hexagon
0.0,6.0,2.0,1.0,5.0,5.0,291.4300113916397,8.0,0.0,part_2,stop,400.0,400.0,3.0,,,,,,,,,blue,diamond
0.0,7.0,3.0,1.0,5.0,5.0,729.6766769140959,8.0,0.0,part_2,go,350.0,400.0,1.0,,,,,,,,,yellow,square
0.0,8.0,4.0,1.0,6.0,6.0,652.7950167655945,8.0,0.0,part_2,go,350.0,400.0,1.0,,,,,,,,,green,I
0.0,5.0,1.0,1.0,6.0,6.0,480.9425752609968,8.0,0.0,part_2,stop,350.0,400.0,3.0,,,,,,,,,orange,cross
0.0,1.0,1.0,0.0,6.0,6.0,657.5711164623499,8.0,0.0,part_2,go,350.0,350.0,1.0,,,,,,,,,white,flipped triangle
0.0,8.0,4.0,1.0,6.0,0.0,0.0,8.0,0.0,part_2,stop,350.0,350.0,4.0,,,,,,,,,green,I
0.0,7.0,3.0,1.0,6.0,0.0,0.0,8.0,0.0,part_2,stop,350.0,400.0,4.0,,,,,,,,,yellow,square
0.0,5.0,1.0,1.0,5.0,0.0,0.0,8.0,0.0,part_2,stop,350.0,450.0,4.0,,,,,,,,,orange,cross
0.0,2.0,2.0,0.0,5.0,5.0,505.0193481147289,8.0,0.0,part_2,go,400.0,450.0,1.0,,,,,,,,,magenta,circle
0.0,5.0,1.0,1.0,5.0,0.0,0.0,8.0,0.0,part_2,stop,400.0,450.0,4.0,,,,,,,,,orange,cross
0.0,7.0,3.0,1.0,5.0,0.0,0.0,8.0,0.0,part_2,stop,450.0,450.0,4.0,,,,,,,,,yellow,square
0.0,1.0,1.0,0.0,5.0,5.0,508.44323821365833,8.0,0.0,part_2,go,500.0,450.0,1.0,,,,,,,,,white,flipped triangle
0.0,8.0,4.0,1.0,5.0,5.0,307.9621773213148,8.0,0.0,part_2,stop,500.0,450.0,3.0,,,,,,,,,green,I
0.0,3.0,3.0,0.0,5.0,5.0,627.907196059823,8.0,0.0,part_2,go,450.0,450.0,1.0,,,,,,,,,cyan,triangle
0.0,4.0,4.0,0.0,6.0,6.0,515.4258329421282,8.0,0.0,part_2,go,450.0,450.0,1.0,,,,,,,,,gray,hexagon
0.0,5.0,1.0,1.0,6.0,6.0,746.0043542087078,8.0,0.0,part_2,go,450.0,450.0,1.0,,,,,,,,,orange,cross
0.0,3.0,3.0,0.0,5.0,5.0,338.2213376462459,8.0,0.0,part_2,go,450.0,450.0,1.0,,,,,,,,,cyan,triangle
0.0,4.0,4.0,0.0,5.0,5.0,521.4228983968496,8.0,0.0,part_2,go,450.0,450.0,1.0,,,,,,,,,gray,hexagon
0.0,2.0,2.0,0.0,5.0,5.0,316.3820337504148,8.0,0.0,part_2,go,450.0,450.0,1.0,,,,,,,,,magenta,circle
0.0,1.0,1.0,0.0,5.0,5.0,569.9464604258537,8.0,0.0,part_2,go,450.0,450.0,1.0,,,,,,,,,white,flipped triangle
0.0,6.0,2.0,1.0,6.0,6.0,296.2739430367946,8.0,0.0,part_2,stop,450.0,450.0,3.0,,,,,,,,,blue,diamond
0.0,7.0,3.0,1.0,5.0,5.0,393.4449590742588,8.0,0.0,part_2,stop,450.0,400.0,3.0,,,,,,,,,yellow,square
0.0,2.0,2.0,0.0,6.0,6.0,834.2173155397177,8.0,0.0,part_2,go,400.0,400.0,1.0,,,,,,,,,magenta,circle
0.0,4.0,4.0,0.0,6.0,6.0,646.5888861566782,8.0,0.0,part_2,go,400.0,400.0,1.0,,,,,,,,,gray,hexagon
0.0,6.0,2.0,1.0,5.0,5.0,333.6867690086365,8.0,0.0,part_2,stop,400.0,400.0,3.0,,,,,,,,,blue,diamond
0.0,1.0,1.0,0.0,5.0,5.0,863.7608755379915,8.0,0.0,part_2,go,350.0,400.0,1.0,,,,,,,,,white,flipped triangle
0.0,7.0,3.0,1.0,6.0,0.0,0.0,8.0,0.0,part_2,stop,350.0,400.0,4.0,,,,,,,,,yellow,square
0.0,1.0,1.0,0.0,7.0,5.0,0.42484141886230004,1.0,1.0,part_3,go,0.0,0.0,0.0,156.0,4.0,78.0,195.0,39.0,117.0,156.0,234.0,white,flipped triangle
0.0,7.0,3.0,1.0,7.0,2.0,1759.0888291597366,1.0,1.0,part_3,go,0.0,0.0,0.0,195.0,5.0,234.0,195.0,117.0,156.0,39.0,78.0,yellow,square
0.0,2.0,2.0,0.0,7.0,3.0,1287.8735028207302,1.0,1.0,part_3,go,0.0,0.0,0.0,245.0,5.0,98.0,49.0,245.0,196.0,147.0,294.0,magenta,circle
0.0,2.0,2.0,0.0,7.0,5.0,1505.688767880201,1.0,1.0,part_3,go,0.0,0.0,0.0,216.0,4.0,162.0,270.0,324.0,108.0,216.0,54.0,magenta,circle
0.0,7.0,3.0,1.0,7.0,3.0,2105.0368417054415,1.0,1.0,part_3,go,0.0,0.0,0.0,162.0,3.0,54.0,216.0,162.0,270.0,324.0,108.0,yellow,square
0.0,4.0,4.0,0.0,7.0,3.0,2414.251433685422,1.0,1.0,part_3,go,0.0,0.0,0.0,170.0,5.0,204.0,136.0,170.0,102.0,34.0,68.0,gray,hexagon
0.0,7.0,3.0,1.0,7.0,1.0,1460.1602591574192,1.0,1.0,part_3,go,0.0,0.0,0.0,176.0,4.0,176.0,132.0,44.0,264.0,220.0,88.0,yellow,square
0.0,1.0,1.0,0.0,7.0,3.0,1615.6122796237469,1.0,1.0,part_3,go,0.0,0.0,0.0,196.0,4.0,245.0,49.0,196.0,294.0,147.0,98.0,white,flipped triangle
0.0,6.0,2.0,1.0,7.0,4.0,1528.3942352980375,1.0,1.0,part_3,go,0.0,0.0,0.0,204.0,6.0,136.0,34.0,68.0,204.0,102.0,170.0,blue,diamond
0.0,4.0,4.0,0.0,7.0,4.0,1721.5804811567068,1.0,1.0,part_3,go,0.0,0.0,0.0,176.0,4.0,88.0,44.0,220.0,176.0,132.0,264.0,gray,hexagon
0.0,4.0,4.0,0.0,7.0,4.0,1393.0345885455608,1.0,1.0,part_3,go,0.0,0.0,0.0,234.0,6.0,195.0,78.0,117.0,234.0,39.0,156.0,gray,hexagon
0.0,2.0,2.0,0.0,7.0,5.0,1556.7942317575216,1.0,1.0,part_3,go,0.0,0.0,0.0,136.0,4.0,170.0,68.0,204.0,34.0,136.0,102.0,magenta,circle
0.0,3.0,3.0,0.0,7.0,4.0,1895.029520615935,1.0,1.0,part_3,go,0.0,0.0,0.0,196.0,4.0,294.0,98.0,245.0,196.0,147.0,49.0,cyan,triangle
0.0,5.0,1.0,1.0,7.0,6.0,1501.1583138257265,1.0,1.0,part_3,go,0.0,0.0,0.0,147.0,3.0,49.0,98.0,245.0,294.0,196.0,147.0,orange,cross
0.0,8.0,4.0,1.0,7.0,2.0,2184.5326591283083,1.0,1.0,part_3,go,0.0,0.0,0.0,147.0,3.0,294.0,147.0,98.0,49.0,245.0,196.0,green,I
0.0,1.0,1.0,0.0,7.0,4.0,1583.9327201247215,1.0,1.0,part_3,go,0.0,0.0,0.0,195.0,5.0,39.0,117.0,78.0,195.0,234.0,156.0,white,flipped triangle
0.0,6.0,2.0,1.0,7.0,2.0,1924.4277365505695,1.0,1.0,part_3,go,0.0,0.0,0.0,195.0,5.0,156.0,195.0,117.0,39.0,234.0,78.0,blue,diamond
0.0,6.0,2.0,1.0,7.0,3.0,1859.4929799437525,1.0,1.0,part_3,go,0.0,0.0,0.0,216.0,4.0,270.0,162.0,216.0,108.0,324.0,54.0,blue,diamond
0.0,4.0,4.0,0.0,7.0,4.0,1910.978114232421,1.0,1.0,part_3,go,0.0,0.0,0.0,49.0,1.0,294.0,196.0,98.0,49.0,245.0,147.0,gray,hexagon
0.0,6.0,2.0,1.0,7.0,5.0,1734.4586718827486,1.0,1.0,part_3,go,0.0,0.0,0.0,147.0,3.0,196.0,245.0,294.0,98.0,147.0,49.0,blue,diamond
0.0,3.0,3.0,0.0,7.0,2.0,2148.877976462245,2.0,1.0,part_3,go,0.0,0.0,0.0,170.0,5.0,34.0,170.0,136.0,68.0,102.0,204.0,cyan,triangle
0.0,4.0,4.0,0.0,7.0,2.0,2654.718453064561,2.0,1.0,part_3,go,0.0,0.0,0.0,132.0,3.0,44.0,132.0,176.0,264.0,220.0,88.0,gray,hexagon
0.0,3.0,3.0,0.0,7.0,1.0,2495.6091344356537,2.0,1.0,part_3,go,0.0,0.0,0.0,216.0,4.0,216.0,54.0,324.0,162.0,108.0,270.0,cyan,triangle
0.0,5.0,1.0,1.0,7.0,3.0,2471.5803395956755,2.0,1.0,part_3,go,0.0,0.0,0.0,170.0,5.0,102.0,34.0,170.0,136.0,68.0,204.0,orange,cross
0.0,6.0,2.0,1.0,7.0,1.0,592.2127272933722,2.0,1.0,part_3,go,0.0,0.0,0.0,117.0,3.0,117.0,195.0,39.0,156.0,78.0,234.0,blue,diamond
0.0,4.0,4.0,0.0,7.0,3.0,1978.989141061902,2.0,1.0,part_3,go,0.0,0.0,0.0,170.0,5.0,136.0,102.0,170.0,204.0,68.0,34.0,gray,hexagon
0.0,4.0,4.0,0.0,7.0,6.0,2532.264579087496,2.0,1.0,part_3,go,0.0,0.0,0.0,216.0,4.0,324.0,162.0,108.0,270.0,54.0,216.0,gray,hexagon
0.0,6.0,2.0,1.0,7.0,4.0,2918.356731534004,2.0,1.0,part_3,go,0.0,0.0,0.0,136.0,4.0,204.0,34.0,68.0,136.0,102.0,170.0,blue,diamond
0.0,1.0,1.0,0.0,7.0,3.0,1401.2401644140482,2.0,1.0,part_3,go,0.0,0.0,0.0,216.0,4.0,324.0,162.0,216.0,270.0,54.0,108.0,white,flipped triangle
0.0,5.0,1.0,1.0,7.0,2.0,1000.5078259855509,2.0,1.0,part_3,go,0.0,0.0,0.0,162.0,3.0,108.0,162.0,54.0,270.0,324.0,216.0,orange,cross
0.0,2.0,2.0,0.0,7.0,2.0,3592.878445982933,2.0,1.0,part_3,go,0.0,0.0,0.0,195.0,5.0,156.0,195.0,78.0,39.0,117.0,234.0,magenta,circle
0.0,1.0,1.0,0.0,7.0,5.0,1705.5024560540917,2.0,1.0,part_3,go,0.0,0.0,0.0,196.0,4.0,98.0,147.0,245.0,49.0,196.0,294.0,white,flipped triangle
0.0,5.0,1.0,1.0,7.0,1.0,3117.0785147696733,2.0,1.0,part_3,go,0.0,0.0,0.0,176.0,4.0,176.0,264.0,132.0,44.0,220.0,88.0,orange,cross
0.0,7.0,3.0,1.0,7.0,6.0,3398.7909834831953,2.0,1.0,part_3,go,0.0,0.0,0.0,170.0,5.0,102.0,204.0,68.0,136.0,34.0,170.0,yellow,square
0.0,7.0,3.0,1.0,7.0,4.0,2238.505005836487,2.0,1.0,part_3,go,0.0,0.0,0.0,195.0,5.0,39.0,156.0,234.0,195.0,78.0,117.0,yellow,square
0.0,8.0,4.0,1.0,7.0,2.0,2264.0427239239216,2.0,1.0,part_3,go,0.0,0.0,0.0,170.0,5.0,102.0,170.0,204.0,136.0,34.0,68.0,green,I
0.0,4.0,4.0,0.0,7.0,6.0,2576.0833248496056,2.0,1.0,part_3,go,0.0,0.0,0.0,156.0,4.0,117.0,39.0,78.0,234.0,195.0,156.0,gray,hexagon
0.0,7.0,3.0,1.0,7.0,5.0,1675.7551450282335,2.0,1.0,part_3,go,0.0,0.0,0.0,147.0,3.0,49.0,98.0,294.0,196.0,147.0,245.0,yellow,square
0.0,7.0,3.0,1.0,7.0,5.0,917.0327838510276,2.0,1.0,part_3,go,0.0,0.0,0.0,264.0,6.0,44.0,220.0,88.0,176.0,264.0,132.0,yellow,square
0.0,6.0,2.0,1.0,7.0,2.0,2872.2230568528175,2.0,1.0,part_3,go,0.0,0.0,0.0,216.0,4.0,162.0,216.0,324.0,54.0,270.0,108.0,blue,diamond
0.0,6.0,2.0,1.0,7.0,1.0,1390.511866658926,3.0,1.0,part_3,go,0.0,0.0,0.0,88.0,2.0,88.0,132.0,176.0,264.0,44.0,220.0,blue,diamond
0.0,3.0,3.0,0.0,7.0,2.0,3942.7407681941986,3.0,1.0,part_3,go,0.0,0.0,0.0,132.0,3.0,88.0,132.0,220.0,176.0,264.0,44.0,cyan,triangle
0.0,8.0,4.0,1.0,7.0,4.0,3808.235928416252,3.0,1.0,part_3,go,0.0,0.0,0.0,195.0,5.0,117.0,156.0,234.0,195.0,39.0,78.0,green,I
0.0,3.0,3.0,0.0,7.0,5.0,2577.5939784944057,3.0,1.0,part_3,go,0.0,0.0,0.0,88.0,2.0,44.0,264.0,176.0,132.0,88.0,220.0,cyan,triangle
0.0,6.0,2.0,1.0,7.0,2.0,2033.453593030572,3.0,1.0,part_3,go,0.0,0.0,0.0,196.0,4.0,294.0,196.0,147.0,98.0,49.0,245.0,blue,diamond
0.0,3.0,3.0,0.0,7.0,6.0,3796.759909018874,3.0,1.0,part_3,go,0.0,0.0,0.0,196.0,4.0,98.0,294.0,245.0,147.0,49.0,196.0,cyan,triangle
0.0,5.0,1.0,1.0,7.0,6.0,1767.7890826016665,3.0,1.0,part_3,go,0.0,0.0,0.0,176.0,4.0,44.0,88.0,264.0,220.0,132.0,176.0,orange,cross
0.0,4.0,4.0,0.0,7.0,2.0,3764.83391225338,3.0,1.0,part_3,go,0.0,0.0,0.0,270.0,5.0,54.0,270.0,108.0,324.0,216.0,162.0,gray,hexagon
0.0,8.0,4.0,1.0,7.0,5.0,1176.098208874464,3.0,2.0,part_3,go,0.0,0.0,0.0,170.0,5.0,102.0,34.0,136.0,204.0,170.0,68.0,green,I
0.0,3.0,3.0,0.0,7.0,4.0,2044.0310053527355,3.0,1.0,part_3,go,0.0,0.0,0.0,195.0,5.0,78.0,39.0,156.0,195.0,234.0,117.0,cyan,triangle
0.0,1.0,1.0,0.0,7.0,4.0,1618.6855286359787,3.0,1.0,part_3,go,0.0,0.0,0.0,220.0,5.0,176.0,264.0,88.0,220.0,132.0,44.0,white,flipped triangle
0.0,1.0,1.0,0.0,7.0,6.0,1477.4031080305576,3.0,1.0,part_3,go,0.0,0.0,0.0,176.0,4.0,44.0,220.0,88.0,264.0,132.0,176.0,white,flipped triangle
0.0,5.0,1.0,1.0,7.0,5.0,1480.4792758077383,3.0,1.0,part_3,go,0.0,0.0,0.0,170.0,5.0,34.0,136.0,204.0,102.0,170.0,68.0,orange,cross
0.0,2.0,2.0,0.0,7.0,5.0,2110.0344359874725,3.0,1.0,part_3,go,0.0,0.0,0.0,270.0,5.0,216.0,324.0,108.0,162.0,270.0,54.0,magenta,circle
0.0,5.0,1.0,1.0,7.0,4.0,2776.5702102333307,3.0,1.0,part_3,go,0.0,0.0,0.0,195.0,5.0,39.0,117.0,78.0,195.0,156.0,234.0,orange,cross
0.0,3.0,3.0,0.0,7.0,5.0,1867.3323728144169,3.0,1.0,part_3,go,0.0,0.0,0.0,170.0,5.0,34.0,68.0,204.0,136.0,170.0,102.0,cyan,triangle
0.0,5.0,1.0,1.0,7.0,3.0,2868.258895352483,3.0,1.0,part_3,go,0.0,0.0,0.0,245.0,5.0,98.0,294.0,245.0,147.0,196.0,49.0,orange,cross
0.0,2.0,2.0,0.0,7.0,5.0,1748.3628001064062,3.0,1.0,part_3,go,0.0,0.0,0.0,195.0,5.0,117.0,78.0,234.0,156.0,195.0,39.0,magenta,circle
0.0,8.0,4.0,1.0,7.0,4.0,2230.920435860753,3.0,1.0,part_3,go,0.0,0.0,0.0,98.0,2.0,245.0,49.0,196.0,98.0,294.0,147.0,green,I
0.0,2.0,2.0,0.0,7.0,4.0,2314.4685477018356,3.0,1.0,part_3,go,0.0,0.0,0.0,136.0,4.0,204.0,34.0,170.0,136.0,102.0,68.0,magenta,circle
0.0,8.0,4.0,1.0,7.0,5.0,1664.1143560409546,4.0,1.0,part_3,go,0.0,0.0,0.0,220.0,5.0,264.0,44.0,132.0,88.0,220.0,176.0,green,I
0.0,7.0,3.0,1.0,7.0,4.0,1737.2614443302157,4.0,1.0,part_3,go,0.0,0.0,0.0,147.0,3.0,196.0,49.0,245.0,147.0,98.0,294.0,yellow,square
0.0,4.0,4.0,0.0,7.0,6.0,1735.991507768631,4.0,1.0,part_3,go,0.0,0.0,0.0,196.0,4.0,294.0,98.0,147.0,49.0,245.0,196.0,gray,hexagon
0.0,8.0,4.0,1.0,7.0,4.0,2404.553620144725,4.0,1.0,part_3,go,0.0,0.0,0.0,162.0,3.0,324.0,216.0,108.0,162.0,54.0,270.0,green,I
0.0,8.0,4.0,1.0,7.0,1.0,2342.2884196043015,4.0,1.0,part_3,go,0.0,0.0,0.0,156.0,4.0,156.0,234.0,78.0,39.0,117.0,195.0,green,I
0.0,8.0,4.0,1.0,7.0,6.0,2164.3857061862946,4.0,1.0,part_3,go,0.0,0.0,0.0,162.0,3.0,54.0,270.0,324.0,108.0,216.0,162.0,green,I
0.0,2.0,2.0,0.0,7.0,3.0,2999.337499961257,4.0,1.0,part_3,go,0.0,0.0,0.0,147.0,3.0,49.0,294.0,147.0,98.0,245.0,196.0,magenta,circle
0.0,7.0,3.0,1.0,7.0,2.0,2011.0966693609953,4.0,1.0,part_3,go,0.0,0.0,0.0,102.0,3.0,170.0,102.0,136.0,68.0,34.0,204.0,yellow,square
0.0,6.0,2.0,1.0,7.0,5.0,1708.2671206444502,4.0,1.0,part_3,go,0.0,0.0,0.0,176.0,4.0,44.0,264.0,132.0,88.0,176.0,220.0,blue,diamond
0.0,1.0,1.0,0.0,7.0,2.0,2548.526694998145,4.0,1.0,part_3,go,0.0,0.0,0.0,136.0,4.0,34.0,136.0,204.0,170.0,102.0,68.0,white,flipped triangle
0.0,7.0,3.0,1.0,7.0,5.0,1910.3917628526688,4.0,1.0,part_3,go,0.0,0.0,0.0,270.0,5.0,54.0,162.0,324.0,216.0,270.0,108.0,yellow,square
0.0,1.0,1.0,0.0,7.0,6.0,1894.852250814438,4.0,1.0,part_3,go,0.0,0.0,0.0,170.0,5.0,68.0,102.0,204.0,34.0,136.0,170.0,white,flipped triangle
0.0,2.0,2.0,0.0,7.0,3.0,1816.8540317565205,4.0,1.0,part_3,go,0.0,0.0,0.0,176.0,4.0,44.0,132.0,176.0,88.0,220.0,264.0,magenta,circle
0.0,3.0,3.0,0.0,7.0,1.0,2593.7048848718405,4.0,1.0,part_3,go,0.0,0.0,0.0,162.0,3.0,162.0,108.0,324.0,216.0,54.0,270.0,cyan,triangle
0.0,5.0,1.0,1.0,7.0,3.0,2552.880773320794,4.0,1.0,part_3,go,0.0,0.0,0.0,216.0,4.0,108.0,270.0,216.0,324.0,54.0,162.0,orange,cross
0.0,8.0,4.0,1.0,7.0,5.0,1413.603724911809,4.0,1.0,part_3,go,0.0,0.0,0.0,176.0,4.0,44.0,220.0,88.0,264.0,176.0,132.0,green,I
0.0,5.0,1.0,1.0,7.0,6.0,2069.70545835793,4.0,1.0,part_3,go,0.0,0.0,0.0,195.0,5.0,117.0,78.0,234.0,156.0,39.0,195.0,orange,cross
0.0,2.0,2.0,0.0,7.0,4.0,2638.569660484791,4.0,1.0,part_3,go,0.0,0.0,0.0,220.0,5.0,132.0,44.0,88.0,220.0,176.0,264.0,magenta,circle
0.0,3.0,3.0,0.0,7.0,6.0,1574.8091023415327,4.0,1.0,part_3,go,0.0,0.0,0.0,195.0,5.0,39.0,117.0,234.0,78.0,156.0,195.0,cyan,triangle
0.0,1.0,1.0,0.0,7.0,6.0,1879.621647298336,4.0,1.0,part_3,go,0.0,0.0,0.0,270.0,5.0,324.0,162.0,54.0,108.0,216.0,270.0,white,flipped triangle
