raw_reward_magnitude,stim_reward,stepwise_reward_magnitude,paired_with_stopping,stim_location,response,reaction_time,block,num_trial_presentations,which_phase,stop_signal_trial_type,left_SSD,right_SSD,accuracy,chosen_bidding_amount,chosen_bidding_level,possible_bid_1,possible_bid_2,possible_bid_3,possible_bid_4,possible_bid_5,possible_bid_6,color_text,shape_text
52.0,1.0,0.5,0.0,2.0,2.0,604.5044213533401,1.0,1.0,phase_1,,,,,,,,,,,,,gray,flipped triangle
182.0,3.0,2.0,0.0,1.0,1.0,378.6576557904482,1.0,1.0,phase_1,,,,,,,,,,,,,magenta,circle
382.0,8.0,4.0,1.0,3.0,3.0,364.7525422275066,1.0,1.0,phase_1,,,,,,,,,,,,,yellow,diamond
420.0,8.0,4.0,1.0,3.0,3.0,336.5135695785284,1.0,1.0,phase_1,,,,,,,,,,,,,yellow,diamond
116.0,2.0,1.0,0.0,2.0,2.0,438.2353331893682,1.0,1.0,phase_1,,,,,,,,,,,,,white,I
33.0,5.0,0.5,1.0,3.0,3.0,365.5978217720985,1.0,1.0,phase_1,,,,,,,,,,,,,green,triangle
30.0,5.0,0.5,1.0,3.0,3.0,336.2010549753904,1.0,1.0,phase_1,,,,,,,,,,,,,green,triangle
0.0,3.0,0.0,0.0,4.0,4.0,259.1202370822429,1.0,1.0,phase_1,,,,,,,,,,,,,magenta,circle
43.0,5.0,0.5,1.0,2.0,2.0,336.4316429942846,1.0,1.0,phase_1,,,,,,,,,,,,,green,triangle
106.0,6.0,1.0,1.0,4.0,4.0,372.8808220475912,1.0,1.0,phase_1,,,,,,,,,,,,,cyan,hexagon
415.0,8.0,4.0,1.0,2.0,2.0,313.0351398140192,1.0,1.0,phase_1,,,,,,,,,,,,,yellow,diamond
26.0,1.0,0.5,0.0,4.0,4.0,303.5398963838815,1.0,1.0,phase_1,,,,,,,,,,,,,gray,flipped triangle
0.0,5.0,0.0,1.0,2.0,2.0,339.45532143116,1.0,1.0,phase_1,,,,,,,,,,,,,green,triangle
60.0,5.0,0.5,1.0,2.0,2.0,407.3744267225265,1.0,1.0,phase_1,,,,,,,,,,,,,green,triangle
36.0,1.0,0.5,0.0,2.0,2.0,358.790636062622,1.0,1.0,phase_1,,,,,,,,,,,,,gray,flipped triangle
33.0,1.0,0.5,0.0,3.0,3.0,330.92164993286127,1.0,1.0,phase_1,,,,,,,,,,,,,gray,flipped triangle
76.0,2.0,1.0,0.0,3.0,3.0,495.4523462802171,1.0,1.0,phase_1,,,,,,,,,,,,,white,I
218.0,7.0,2.0,1.0,1.0,1.0,563.837856054306,1.0,1.0,phase_1,,,,,,,,,,,,,blue,square
0.0,7.0,0.0,1.0,2.0,2.0,374.1167765110731,1.0,1.0,phase_1,,,,,,,,,,,,,blue,square
32.0,5.0,0.5,1.0,3.0,3.0,282.9907573759556,1.0,1.0,phase_1,,,,,,,,,,,,,green,triangle
0.0,5.0,0.0,1.0,2.0,2.0,303.5547621548176,1.0,1.0,phase_1,,,,,,,,,,,,,green,triangle
0.0,8.0,0.0,1.0,2.0,2.0,365.0959134101867,1.0,1.0,phase_1,,,,,,,,,,,,,yellow,diamond
193.0,3.0,2.0,0.0,2.0,2.0,345.049113035202,1.0,1.0,phase_1,,,,,,,,,,,,,magenta,circle
212.0,3.0,2.0,0.0,1.0,1.0,352.1036766469478,1.0,1.0,phase_1,,,,,,,,,,,,,magenta,circle
0.0,5.0,0.0,1.0,2.0,2.0,308.9871499687433,1.0,1.0,phase_1,,,,,,,,,,,,,green,triangle
214.0,3.0,2.0,0.0,2.0,2.0,322.0187146216631,1.0,1.0,phase_1,,,,,,,,,,,,,magenta,circle
194.0,7.0,2.0,1.0,1.0,1.0,341.6372891515493,1.0,1.0,phase_1,,,,,,,,,,,,,blue,square
399.0,8.0,4.0,1.0,3.0,3.0,410.590898245573,1.0,1.0,phase_1,,,,,,,,,,,,,yellow,diamond
223.0,3.0,2.0,0.0,4.0,4.0,302.0983077585697,1.0,1.0,phase_1,,,,,,,,,,,,,magenta,circle
101.0,2.0,1.0,0.0,4.0,4.0,316.6690152138471,1.0,1.0,phase_1,,,,,,,,,,,,,white,I
78.0,6.0,1.0,1.0,4.0,4.0,358.6656078696251,1.0,1.0,phase_1,,,,,,,,,,,,,cyan,hexagon
215.0,7.0,2.0,1.0,3.0,3.0,365.445002913475,1.0,1.0,phase_1,,,,,,,,,,,,,blue,square
0.0,3.0,0.0,0.0,3.0,3.0,306.7347221076488,1.0,1.0,phase_1,,,,,,,,,,,,,magenta,circle
0.0,8.0,0.0,1.0,3.0,3.0,404.685540124774,1.0,2.0,phase_1,,,,,,,,,,,,,yellow,diamond
376.0,4.0,4.0,0.0,4.0,4.0,359.8712105304003,1.0,1.0,phase_1,,,,,,,,,,,,,orange,cross
0.0,8.0,0.0,1.0,1.0,1.0,371.4526947587728,1.0,1.0,phase_1,,,,,,,,,,,,,yellow,diamond
73.0,1.0,0.5,0.0,1.0,1.0,465.8674485981464,1.0,1.0,phase_1,,,,,,,,,,,,,gray,flipped triangle
207.0,3.0,2.0,0.0,2.0,2.0,356.1806753277778,1.0,1.0,phase_1,,,,,,,,,,,,,magenta,circle
404.0,8.0,4.0,1.0,1.0,1.0,420.0112838298082,1.0,1.0,phase_1,,,,,,,,,,,,,yellow,diamond
0.0,5.0,0.0,1.0,4.0,4.0,366.2158064544201,1.0,1.0,phase_1,,,,,,,,,,,,,green,triangle
51.0,5.0,0.5,1.0,1.0,1.0,554.1169978678226,1.0,1.0,phase_1,,,,,,,,,,,,,green,triangle
41.0,5.0,0.5,1.0,3.0,3.0,335.707738995552,1.0,1.0,phase_1,,,,,,,,,,,,,green,triangle
193.0,7.0,2.0,1.0,2.0,2.0,339.4885808229446,1.0,1.0,phase_1,,,,,,,,,,,,,blue,square
177.0,3.0,2.0,0.0,2.0,2.0,409.1891758143902,1.0,1.0,phase_1,,,,,,,,,,,,,magenta,circle
48.0,5.0,0.5,1.0,2.0,2.0,424.8983226716518,1.0,1.0,phase_1,,,,,,,,,,,,,green,triangle
0.0,6.0,0.0,1.0,1.0,1.0,396.765124052763,1.0,1.0,phase_1,,,,,,,,,,,,,cyan,hexagon
56.0,5.0,0.5,1.0,4.0,4.0,327.3122571408748,1.0,1.0,phase_1,,,,,,,,,,,,,green,triangle
80.0,2.0,1.0,0.0,3.0,3.0,328.0443288385868,1.0,2.0,phase_1,,,,,,,,,,,,,white,I
0.0,6.0,0.0,1.0,2.0,2.0,488.2647637277841,1.0,1.0,phase_1,,,,,,,,,,,,,cyan,hexagon
80.0,6.0,1.0,1.0,4.0,4.0,356.9080960005522,1.0,1.0,phase_1,,,,,,,,,,,,,cyan,hexagon
176.0,7.0,2.0,1.0,1.0,1.0,350.4082392901182,1.0,1.0,phase_1,,,,,,,,,,,,,blue,square
48.0,1.0,0.5,0.0,1.0,1.0,371.4546952396631,1.0,1.0,phase_1,,,,,,,,,,,,,gray,flipped triangle
38.0,1.0,0.5,0.0,1.0,1.0,359.8071951419115,1.0,1.0,phase_1,,,,,,,,,,,,,gray,flipped triangle
96.0,6.0,1.0,1.0,2.0,2.0,420.3382637351751,1.0,1.0,phase_1,,,,,,,,,,,,,cyan,hexagon
0.0,6.0,0.0,1.0,1.0,1.0,377.2973287850618,1.0,1.0,phase_1,,,,,,,,,,,,,cyan,hexagon
412.0,4.0,4.0,0.0,3.0,3.0,319.4926213473081,1.0,1.0,phase_1,,,,,,,,,,,,,orange,cross
387.0,8.0,4.0,1.0,2.0,2.0,339.6269716322422,1.0,1.0,phase_1,,,,,,,,,,,,,yellow,diamond
122.0,2.0,1.0,0.0,3.0,3.0,343.2646673172712,1.0,1.0,phase_1,,,,,,,,,,,,,white,I
36.0,1.0,0.5,0.0,3.0,3.0,311.5603439509868,1.0,1.0,phase_1,,,,,,,,,,,,,gray,flipped triangle
0.0,2.0,0.0,0.0,4.0,4.0,348.1874112039804,1.0,1.0,phase_1,,,,,,,,,,,,,white,I
0.0,4.0,0.0,0.0,3.0,3.0,351.513484492898,1.0,1.0,phase_1,,,,,,,,,,,,,orange,cross
194.0,7.0,2.0,1.0,2.0,2.0,364.261656999588,1.0,1.0,phase_1,,,,,,,,,,,,,blue,square
211.0,3.0,2.0,0.0,3.0,3.0,392.8544297814369,1.0,1.0,phase_1,,,,,,,,,,,,,magenta,circle
393.0,4.0,4.0,0.0,1.0,1.0,322.94094003736967,1.0,1.0,phase_1,,,,,,,,,,,,,orange,cross
0.0,1.0,0.0,0.0,1.0,1.0,547.1843555569649,1.0,1.0,phase_1,,,,,,,,,,,,,gray,flipped triangle
416.0,4.0,4.0,0.0,4.0,4.0,436.2965803593397,1.0,1.0,phase_1,,,,,,,,,,,,,orange,cross
180.0,3.0,2.0,0.0,1.0,1.0,569.8824599385262,1.0,1.0,phase_1,,,,,,,,,,,,,magenta,circle
58.0,1.0,0.5,0.0,2.0,2.0,400.4641622304916,1.0,1.0,phase_1,,,,,,,,,,,,,gray,flipped triangle
114.0,6.0,1.0,1.0,1.0,1.0,380.9237666428089,1.0,1.0,phase_1,,,,,,,,,,,,,cyan,hexagon
0.0,2.0,0.0,0.0,3.0,3.0,352.6052720844745,1.0,1.0,phase_1,,,,,,,,,,,,,white,I
102.0,6.0,1.0,1.0,1.0,1.0,340.4449634253979,1.0,1.0,phase_1,,,,,,,,,,,,,cyan,hexagon
398.0,4.0,4.0,0.0,2.0,2.0,464.4157234579324,1.0,1.0,phase_1,,,,,,,,,,,,,orange,cross
196.0,3.0,2.0,0.0,1.0,1.0,517.6616236567497,1.0,1.0,phase_1,,,,,,,,,,,,,magenta,circle
0.0,8.0,0.0,1.0,1.0,1.0,354.4907215982675,1.0,1.0,phase_1,,,,,,,,,,,,,yellow,diamond
72.0,5.0,0.5,1.0,1.0,1.0,369.5314321666956,1.0,1.0,phase_1,,,,,,,,,,,,,green,triangle
118.0,2.0,1.0,0.0,3.0,3.0,365.4943872243166,1.0,1.0,phase_1,,,,,,,,,,,,,white,I
0.0,7.0,0.0,1.0,4.0,4.0,615.5586615204811,1.0,1.0,phase_1,,,,,,,,,,,,,blue,square
197.0,3.0,2.0,0.0,3.0,3.0,372.8807438164949,1.0,1.0,phase_1,,,,,,,,,,,,,magenta,circle
43.0,1.0,0.5,0.0,4.0,4.0,352.8449106961489,1.0,1.0,phase_1,,,,,,,,,,,,,gray,flipped triangle
71.0,5.0,0.5,1.0,4.0,4.0,351.7041243612766,1.0,1.0,phase_1,,,,,,,,,,,,,green,triangle
71.0,1.0,0.5,0.0,3.0,3.0,291.3029342889786,1.0,1.0,phase_1,,,,,,,,,,,,,gray,flipped triangle
176.0,3.0,2.0,0.0,3.0,3.0,313.3814670145511,1.0,1.0,phase_1,,,,,,,,,,,,,magenta,circle
66.0,1.0,0.5,0.0,4.0,4.0,415.1317775249481,1.0,1.0,phase_1,,,,,,,,,,,,,gray,flipped triangle
80.0,2.0,1.0,0.0,1.0,1.0,360.3954631835222,1.0,1.0,phase_1,,,,,,,,,,,,,white,I
112.0,6.0,1.0,1.0,2.0,2.0,397.1059955656528,1.0,1.0,phase_1,,,,,,,,,,,,,cyan,hexagon
180.0,7.0,2.0,1.0,1.0,1.0,452.6816084980964,1.0,1.0,phase_1,,,,,,,,,,,,,blue,square
88.0,2.0,1.0,0.0,1.0,1.0,368.5998562723398,1.0,1.0,phase_1,,,,,,,,,,,,,white,I
219.0,3.0,2.0,0.0,3.0,3.0,398.2718084007501,1.0,1.0,phase_1,,,,,,,,,,,,,magenta,circle
36.0,5.0,0.5,1.0,1.0,1.0,368.4736397117376,1.0,1.0,phase_1,,,,,,,,,,,,,green,triangle
27.0,1.0,0.5,0.0,2.0,2.0,340.3162453323602,1.0,1.0,phase_1,,,,,,,,,,,,,gray,flipped triangle
385.0,4.0,4.0,0.0,3.0,3.0,372.5781515240669,1.0,1.0,phase_1,,,,,,,,,,,,,orange,cross
55.0,1.0,0.5,0.0,1.0,1.0,429.7956209629774,1.0,1.0,phase_1,,,,,,,,,,,,,gray,flipped triangle
176.0,7.0,2.0,1.0,1.0,1.0,357.7256370335817,1.0,1.0,phase_1,,,,,,,,,,,,,blue,square
101.0,2.0,1.0,0.0,2.0,2.0,321.2992213666439,1.0,1.0,phase_1,,,,,,,,,,,,,white,I
183.0,7.0,2.0,1.0,2.0,2.0,542.2992408275604,1.0,1.0,phase_1,,,,,,,,,,,,,blue,square
380.0,4.0,4.0,0.0,3.0,3.0,564.8517087101936,1.0,1.0,phase_1,,,,,,,,,,,,,orange,cross
55.0,5.0,0.5,1.0,3.0,3.0,488.6642042547464,1.0,1.0,phase_1,,,,,,,,,,,,,green,triangle
0.0,4.0,0.0,0.0,2.0,2.0,393.8246201723814,1.0,1.0,phase_1,,,,,,,,,,,,,orange,cross
97.0,6.0,1.0,1.0,1.0,1.0,454.5689951628446,1.0,1.0,phase_1,,,,,,,,,,,,,cyan,hexagon
118.0,6.0,1.0,1.0,2.0,2.0,390.9777551889419,1.0,1.0,phase_1,,,,,,,,,,,,,cyan,hexagon
215.0,3.0,2.0,0.0,4.0,4.0,511.2112034112215,2.0,1.0,phase_1,,,,,,,,,,,,,magenta,circle
382.0,8.0,4.0,1.0,4.0,4.0,371.56324647367,2.0,1.0,phase_1,,,,,,,,,,,,,yellow,diamond
72.0,1.0,0.5,0.0,4.0,4.0,366.6710294783115,2.0,1.0,phase_1,,,,,,,,,,,,,gray,flipped triangle
112.0,2.0,1.0,0.0,1.0,1.0,337.397513911128,2.0,1.0,phase_1,,,,,,,,,,,,,white,I
389.0,4.0,4.0,0.0,3.0,3.0,502.31638737022877,2.0,1.0,phase_1,,,,,,,,,,,,,orange,cross
379.0,4.0,4.0,0.0,4.0,4.0,308.8278472423553,2.0,1.0,phase_1,,,,,,,,,,,,,orange,cross
406.0,8.0,4.0,1.0,4.0,4.0,465.276749804616,2.0,1.0,phase_1,,,,,,,,,,,,,yellow,diamond
212.0,3.0,2.0,0.0,4.0,4.0,333.744777366519,2.0,1.0,phase_1,,,,,,,,,,,,,magenta,circle
195.0,3.0,2.0,0.0,2.0,2.0,411.5277826786041,2.0,1.0,phase_1,,,,,,,,,,,,,magenta,circle
398.0,8.0,4.0,1.0,3.0,3.0,333.5289992392063,2.0,1.0,phase_1,,,,,,,,,,,,,yellow,diamond
0.0,1.0,0.0,0.0,3.0,3.0,372.7927077561617,2.0,1.0,phase_1,,,,,,,,,,,,,gray,flipped triangle
0.0,2.0,0.0,0.0,3.0,3.0,336.764644831419,2.0,1.0,phase_1,,,,,,,,,,,,,white,I
406.0,4.0,4.0,0.0,4.0,4.0,383.0619715154171,2.0,1.0,phase_1,,,,,,,,,,,,,orange,cross
413.0,4.0,4.0,0.0,3.0,3.0,640.6224016100168,2.0,1.0,phase_1,,,,,,,,,,,,,orange,cross
60.0,1.0,0.5,0.0,4.0,4.0,332.9719137400388,2.0,1.0,phase_1,,,,,,,,,,,,,gray,flipped triangle
377.0,8.0,4.0,1.0,4.0,4.0,321.5006459504366,2.0,1.0,phase_1,,,,,,,,,,,,,yellow,diamond
393.0,8.0,4.0,1.0,4.0,4.0,434.283459559083,2.0,1.0,phase_1,,,,,,,,,,,,,yellow,diamond
218.0,3.0,2.0,0.0,4.0,4.0,421.8966700136661,2.0,1.0,phase_1,,,,,,,,,,,,,magenta,circle
396.0,4.0,4.0,0.0,2.0,2.0,442.0166108757257,2.0,1.0,phase_1,,,,,,,,,,,,,orange,cross
388.0,4.0,4.0,0.0,1.0,1.0,390.3308548033237,2.0,1.0,phase_1,,,,,,,,,,,,,orange,cross
99.0,6.0,1.0,1.0,2.0,2.0,368.7861319631338,2.0,1.0,phase_1,,,,,,,,,,,,,cyan,hexagon
45.0,1.0,0.5,0.0,1.0,1.0,392.5113957375288,2.0,1.0,phase_1,,,,,,,,,,,,,gray,flipped triangle
70.0,5.0,0.5,1.0,4.0,4.0,386.4984363317489,2.0,1.0,phase_1,,,,,,,,,,,,,green,triangle
73.0,5.0,0.5,1.0,3.0,3.0,312.9150792956352,2.0,1.0,phase_1,,,,,,,,,,,,,green,triangle
198.0,3.0,2.0,0.0,1.0,1.0,828.6541197448969,2.0,1.0,phase_1,,,,,,,,,,,,,magenta,circle
41.0,1.0,0.5,0.0,2.0,2.0,394.8510587215423,2.0,1.0,phase_1,,,,,,,,,,,,,gray,flipped triangle
193.0,3.0,2.0,0.0,2.0,2.0,375.9066704660654,2.0,1.0,phase_1,,,,,,,,,,,,,magenta,circle
187.0,3.0,2.0,0.0,2.0,2.0,434.8746594041586,2.0,1.0,phase_1,,,,,,,,,,,,,magenta,circle
414.0,4.0,4.0,0.0,4.0,4.0,343.4560932219028,2.0,1.0,phase_1,,,,,,,,,,,,,orange,cross
76.0,6.0,1.0,1.0,4.0,4.0,345.5192912369966,2.0,2.0,phase_1,,,,,,,,,,,,,cyan,hexagon
0.0,1.0,0.0,0.0,2.0,2.0,344.0798502415418,2.0,1.0,phase_1,,,,,,,,,,,,,gray,flipped triangle
187.0,7.0,2.0,1.0,1.0,1.0,371.1499869823456,2.0,1.0,phase_1,,,,,,,,,,,,,blue,square
210.0,7.0,2.0,1.0,3.0,3.0,353.0747015029192,2.0,1.0,phase_1,,,,,,,,,,,,,blue,square
0.0,6.0,0.0,1.0,4.0,4.0,292.5912830978632,2.0,1.0,phase_1,,,,,,,,,,,,,cyan,hexagon
0.0,2.0,0.0,0.0,3.0,3.0,527.7684163302183,2.0,1.0,phase_1,,,,,,,,,,,,,white,I
108.0,2.0,1.0,0.0,3.0,3.0,364.513099193573,2.0,1.0,phase_1,,,,,,,,,,,,,white,I
0.0,1.0,0.0,0.0,2.0,2.0,408.7415877729654,2.0,1.0,phase_1,,,,,,,,,,,,,gray,flipped triangle
90.0,6.0,1.0,1.0,1.0,1.0,466.4964210242033,2.0,2.0,phase_1,,,,,,,,,,,,,cyan,hexagon
416.0,4.0,4.0,0.0,1.0,1.0,392.5399109721184,2.0,1.0,phase_1,,,,,,,,,,,,,orange,cross
116.0,2.0,1.0,0.0,2.0,2.0,428.4157287329435,2.0,1.0,phase_1,,,,,,,,,,,,,white,I
29.0,5.0,0.5,1.0,4.0,4.0,416.1628428846597,2.0,1.0,phase_1,,,,,,,,,,,,,green,triangle
67.0,5.0,0.5,1.0,2.0,2.0,335.1443912833929,2.0,1.0,phase_1,,,,,,,,,,,,,green,triangle
0.0,4.0,0.0,0.0,2.0,2.0,355.9069093316793,2.0,1.0,phase_1,,,,,,,,,,,,,orange,cross
200.0,7.0,2.0,1.0,1.0,1.0,409.4287063926458,2.0,1.0,phase_1,,,,,,,,,,,,,blue,square
56.0,1.0,0.5,0.0,2.0,2.0,348.5287632793188,2.0,1.0,phase_1,,,,,,,,,,,,,gray,flipped triangle
198.0,7.0,2.0,1.0,4.0,4.0,432.2059284895658,2.0,1.0,phase_1,,,,,,,,,,,,,blue,square
70.0,1.0,0.5,0.0,1.0,1.0,606.944328173995,2.0,1.0,phase_1,,,,,,,,,,,,,gray,flipped triangle
0.0,3.0,0.0,0.0,2.0,2.0,347.4583532661199,2.0,1.0,phase_1,,,,,,,,,,,,,magenta,circle
399.0,4.0,4.0,0.0,3.0,3.0,517.6281295716763,2.0,1.0,phase_1,,,,,,,,,,,,,orange,cross
0.0,7.0,0.0,1.0,4.0,4.0,388.9501560479402,2.0,1.0,phase_1,,,,,,,,,,,,,blue,square
194.0,7.0,2.0,1.0,3.0,3.0,400.8665587753057,2.0,1.0,phase_1,,,,,,,,,,,,,blue,square
0.0,3.0,0.0,0.0,1.0,1.0,436.3778233528137,2.0,1.0,phase_1,,,,,,,,,,,,,magenta,circle
0.0,4.0,0.0,0.0,2.0,2.0,411.353837698698,2.0,1.0,phase_1,,,,,,,,,,,,,orange,cross
0.0,3.0,0.0,0.0,2.0,2.0,349.1368982940912,2.0,1.0,phase_1,,,,,,,,,,,,,magenta,circle
89.0,6.0,1.0,1.0,3.0,3.0,308.7049704045057,2.0,1.0,phase_1,,,,,,,,,,,,,cyan,hexagon
0.0,8.0,0.0,1.0,2.0,2.0,330.1911279559135,2.0,1.0,phase_1,,,,,,,,,,,,,yellow,diamond
420.0,8.0,4.0,1.0,4.0,4.0,262.9294171929359,2.0,1.0,phase_1,,,,,,,,,,,,,yellow,diamond
0.0,5.0,0.0,1.0,3.0,3.0,377.5135669857263,2.0,1.0,phase_1,,,,,,,,,,,,,green,triangle
194.0,3.0,2.0,0.0,4.0,4.0,348.4802022576332,2.0,1.0,phase_1,,,,,,,,,,,,,magenta,circle
0.0,1.0,0.0,0.0,2.0,2.0,364.760223776102,2.0,1.0,phase_1,,,,,,,,,,,,,gray,flipped triangle
65.0,1.0,0.5,0.0,4.0,4.0,481.7179199308157,2.0,1.0,phase_1,,,,,,,,,,,,,gray,flipped triangle
217.0,3.0,2.0,0.0,3.0,3.0,410.4991052299738,2.0,1.0,phase_1,,,,,,,,,,,,,magenta,circle
102.0,2.0,1.0,0.0,4.0,4.0,457.1924209594726,2.0,1.0,phase_1,,,,,,,,,,,,,white,I
65.0,5.0,0.5,1.0,3.0,3.0,331.6932022571563,2.0,1.0,phase_1,,,,,,,,,,,,,green,triangle
389.0,8.0,4.0,1.0,4.0,4.0,344.6771837770939,2.0,1.0,phase_1,,,,,,,,,,,,,yellow,diamond
121.0,6.0,1.0,1.0,3.0,3.0,365.6903132796287,2.0,1.0,phase_1,,,,,,,,,,,,,cyan,hexagon
412.0,8.0,4.0,1.0,1.0,1.0,451.5132382512092,2.0,1.0,phase_1,,,,,,,,,,,,,yellow,diamond
121.0,2.0,1.0,0.0,2.0,2.0,546.2342463433743,2.0,1.0,phase_1,,,,,,,,,,,,,white,I
380.0,8.0,4.0,1.0,3.0,3.0,571.0905939340591,2.0,1.0,phase_1,,,,,,,,,,,,,yellow,diamond
122.0,2.0,1.0,0.0,4.0,4.0,474.1161558777094,2.0,1.0,phase_1,,,,,,,,,,,,,white,I
94.0,2.0,1.0,0.0,4.0,4.0,437.5787917524576,2.0,1.0,phase_1,,,,,,,,,,,,,white,I
422.0,4.0,4.0,0.0,2.0,2.0,332.5059488415718,2.0,1.0,phase_1,,,,,,,,,,,,,orange,cross
225.0,3.0,2.0,0.0,3.0,3.0,344.0318889915943,2.0,1.0,phase_1,,,,,,,,,,,,,magenta,circle
194.0,3.0,2.0,0.0,1.0,1.0,460.8103353530168,2.0,1.0,phase_1,,,,,,,,,,,,,magenta,circle
29.0,1.0,0.5,0.0,3.0,3.0,401.6572795808315,2.0,1.0,phase_1,,,,,,,,,,,,,gray,flipped triangle
105.0,6.0,1.0,1.0,1.0,1.0,518.4324290603399,2.0,1.0,phase_1,,,,,,,,,,,,,cyan,hexagon
0.0,7.0,0.0,1.0,3.0,3.0,516.5714006870985,2.0,1.0,phase_1,,,,,,,,,,,,,blue,square
207.0,7.0,2.0,1.0,4.0,4.0,432.2886541485786,2.0,1.0,phase_1,,,,,,,,,,,,,blue,square
76.0,2.0,1.0,0.0,2.0,2.0,492.5417397171259,2.0,1.0,phase_1,,,,,,,,,,,,,white,I
96.0,2.0,1.0,0.0,3.0,3.0,423.586031422019,2.0,1.0,phase_1,,,,,,,,,,,,,white,I
0.0,4.0,0.0,0.0,3.0,3.0,380.0168726593256,2.0,1.0,phase_1,,,,,,,,,,,,,orange,cross
94.0,2.0,1.0,0.0,3.0,3.0,336.3129906356334,2.0,1.0,phase_1,,,,,,,,,,,,,white,I
97.0,2.0,1.0,0.0,3.0,3.0,445.6944521516561,2.0,1.0,phase_1,,,,,,,,,,,,,white,I
0.0,2.0,0.0,0.0,1.0,1.0,458.9606765657663,2.0,1.0,phase_1,,,,,,,,,,,,,white,I
380.0,8.0,4.0,1.0,1.0,1.0,478.0041966587305,2.0,1.0,phase_1,,,,,,,,,,,,,yellow,diamond
194.0,3.0,2.0,0.0,2.0,2.0,344.1321775317192,2.0,2.0,phase_1,,,,,,,,,,,,,magenta,circle
376.0,8.0,4.0,1.0,3.0,3.0,408.2623962312937,2.0,1.0,phase_1,,,,,,,,,,,,,yellow,diamond
422.0,8.0,4.0,1.0,1.0,1.0,389.834351837635,2.0,2.0,phase_1,,,,,,,,,,,,,yellow,diamond
415.0,4.0,4.0,0.0,1.0,1.0,443.4155952185392,2.0,1.0,phase_1,,,,,,,,,,,,,orange,cross
0.0,8.0,0.0,1.0,3.0,3.0,433.8300414383411,2.0,1.0,phase_1,,,,,,,,,,,,,yellow,diamond
102.0,6.0,1.0,1.0,4.0,4.0,556.8739753216505,2.0,1.0,phase_1,,,,,,,,,,,,,cyan,hexagon
31.0,5.0,0.5,1.0,1.0,1.0,580.3835969418287,2.0,1.0,phase_1,,,,,,,,,,,,,green,triangle
394.0,4.0,4.0,0.0,1.0,1.0,520.9853909909725,2.0,1.0,phase_1,,,,,,,,,,,,,orange,cross
114.0,2.0,1.0,0.0,2.0,2.0,481.4386218786239,2.0,1.0,phase_1,,,,,,,,,,,,,white,I
101.0,6.0,1.0,1.0,3.0,3.0,505.5704824626446,2.0,1.0,phase_1,,,,,,,,,,,,,cyan,hexagon
47.0,5.0,0.5,1.0,4.0,4.0,653.7362970411777,2.0,1.0,phase_1,,,,,,,,,,,,,green,triangle
38.0,5.0,0.5,1.0,1.0,1.0,481.9216690957546,2.0,1.0,phase_1,,,,,,,,,,,,,green,triangle
385.0,8.0,4.0,1.0,3.0,3.0,407.916210591793,2.0,1.0,phase_1,,,,,,,,,,,,,yellow,diamond
0.0,8.0,0.0,1.0,4.0,4.0,563.55288811028,2.0,1.0,phase_1,,,,,,,,,,,,,yellow,diamond
0.0,8.0,0.0,1.0,1.0,1.0,425.9220007807016,2.0,1.0,phase_1,,,,,,,,,,,,,yellow,diamond
0.0,1.0,0.0,0.0,4.0,4.0,465.9070670604706,3.0,1.0,phase_1,,,,,,,,,,,,,gray,flipped triangle
76.0,6.0,1.0,1.0,3.0,3.0,352.5485210120678,3.0,1.0,phase_1,,,,,,,,,,,,,cyan,hexagon
87.0,6.0,1.0,1.0,1.0,1.0,538.1710175424814,3.0,1.0,phase_1,,,,,,,,,,,,,cyan,hexagon
419.0,4.0,4.0,0.0,1.0,1.0,376.8023196607828,3.0,1.0,phase_1,,,,,,,,,,,,,orange,cross
382.0,4.0,4.0,0.0,4.0,4.0,347.4513962864876,3.0,1.0,phase_1,,,,,,,,,,,,,orange,cross
0.0,8.0,0.0,1.0,3.0,3.0,394.2208960652351,3.0,1.0,phase_1,,,,,,,,,,,,,yellow,diamond
383.0,8.0,4.0,1.0,2.0,2.0,397.4755834788084,3.0,1.0,phase_1,,,,,,,,,,,,,yellow,diamond
55.0,5.0,0.5,1.0,2.0,2.0,408.6461570113897,3.0,1.0,phase_1,,,,,,,,,,,,,green,triangle
423.0,8.0,4.0,1.0,1.0,1.0,439.9845916777849,3.0,1.0,phase_1,,,,,,,,,,,,,yellow,diamond
195.0,7.0,2.0,1.0,4.0,4.0,451.1303566396236,3.0,1.0,phase_1,,,,,,,,,,,,,blue,square
47.0,1.0,0.5,0.0,3.0,3.0,401.0732267051935,3.0,1.0,phase_1,,,,,,,,,,,,,gray,flipped triangle
376.0,4.0,4.0,0.0,4.0,4.0,374.2206320166588,3.0,1.0,phase_1,,,,,,,,,,,,,orange,cross
416.0,8.0,4.0,1.0,4.0,4.0,433.1924226135015,3.0,1.0,phase_1,,,,,,,,,,,,,yellow,diamond
380.0,4.0,4.0,0.0,3.0,3.0,429.5245036482811,3.0,1.0,phase_1,,,,,,,,,,,,,orange,cross
0.0,4.0,0.0,0.0,2.0,2.0,323.5053326934576,3.0,1.0,phase_1,,,,,,,,,,,,,orange,cross
0.0,7.0,0.0,1.0,2.0,2.0,393.6315439641475,3.0,1.0,phase_1,,,,,,,,,,,,,blue,square
0.0,3.0,0.0,0.0,4.0,4.0,490.8766392618418,3.0,1.0,phase_1,,,,,,,,,,,,,magenta,circle
223.0,3.0,2.0,0.0,3.0,3.0,586.8165642023087,3.0,1.0,phase_1,,,,,,,,,,,,,magenta,circle
221.0,3.0,2.0,0.0,1.0,1.0,456.0230560600757,3.0,1.0,phase_1,,,,,,,,,,,,,magenta,circle
420.0,4.0,4.0,0.0,2.0,2.0,736.8713933974504,3.0,1.0,phase_1,,,,,,,,,,,,,orange,cross
115.0,6.0,1.0,1.0,2.0,2.0,446.9753801822662,3.0,1.0,phase_1,,,,,,,,,,,,,cyan,hexagon
51.0,1.0,0.5,0.0,2.0,2.0,412.34858520329,3.0,1.0,phase_1,,,,,,,,,,,,,gray,flipped triangle
33.0,1.0,0.5,0.0,1.0,1.0,526.640247553587,3.0,1.0,phase_1,,,,,,,,,,,,,gray,flipped triangle
105.0,2.0,1.0,0.0,4.0,4.0,372.5219443440437,3.0,1.0,phase_1,,,,,,,,,,,,,white,I
218.0,3.0,2.0,0.0,3.0,3.0,418.293721973896,3.0,1.0,phase_1,,,,,,,,,,,,,magenta,circle
118.0,6.0,1.0,1.0,1.0,1.0,583.7944783270359,3.0,1.0,phase_1,,,,,,,,,,,,,cyan,hexagon
27.0,5.0,0.5,1.0,4.0,4.0,425.5308136343956,3.0,1.0,phase_1,,,,,,,,,,,,,green,triangle
106.0,2.0,1.0,0.0,4.0,4.0,494.4785535335541,3.0,1.0,phase_1,,,,,,,,,,,,,white,I
187.0,7.0,2.0,1.0,4.0,4.0,421.4896839112043,3.0,1.0,phase_1,,,,,,,,,,,,,blue,square
0.0,3.0,0.0,0.0,3.0,3.0,377.297256141901,3.0,1.0,phase_1,,,,,,,,,,,,,magenta,circle
41.0,5.0,0.5,1.0,3.0,3.0,452.4188227951526,3.0,1.0,phase_1,,,,,,,,,,,,,green,triangle
177.0,7.0,2.0,1.0,3.0,3.0,874.7525289654732,3.0,1.0,phase_1,,,,,,,,,,,,,blue,square
387.0,4.0,4.0,0.0,1.0,1.0,496.697798371315,3.0,1.0,phase_1,,,,,,,,,,,,,orange,cross
402.0,4.0,4.0,0.0,4.0,4.0,381.7202821373939,3.0,1.0,phase_1,,,,,,,,,,,,,orange,cross
92.0,6.0,1.0,1.0,1.0,1.0,513.1832957267761,3.0,1.0,phase_1,,,,,,,,,,,,,cyan,hexagon
407.0,8.0,4.0,1.0,1.0,1.0,806.0793932527304,3.0,1.0,phase_1,,,,,,,,,,,,,yellow,diamond
62.0,1.0,0.5,0.0,1.0,1.0,427.4599757045507,3.0,1.0,phase_1,,,,,,,,,,,,,gray,flipped triangle
87.0,2.0,1.0,0.0,1.0,1.0,670.2379416674376,3.0,1.0,phase_1,,,,,,,,,,,,,white,I
78.0,2.0,1.0,0.0,4.0,4.0,422.0363143831491,3.0,1.0,phase_1,,,,,,,,,,,,,white,I
86.0,6.0,1.0,1.0,3.0,3.0,496.0087444633245,3.0,1.0,phase_1,,,,,,,,,,,,,cyan,hexagon
376.0,8.0,4.0,1.0,1.0,1.0,436.0116720199585,3.0,1.0,phase_1,,,,,,,,,,,,,yellow,diamond
223.0,7.0,2.0,1.0,4.0,4.0,402.4664033204317,3.0,1.0,phase_1,,,,,,,,,,,,,blue,square
423.0,4.0,4.0,0.0,2.0,2.0,420.9255594760179,3.0,1.0,phase_1,,,,,,,,,,,,,orange,cross
387.0,4.0,4.0,0.0,3.0,3.0,371.4758902788162,3.0,1.0,phase_1,,,,,,,,,,,,,orange,cross
415.0,8.0,4.0,1.0,3.0,3.0,437.9858840256929,3.0,1.0,phase_1,,,,,,,,,,,,,yellow,diamond
74.0,5.0,0.5,1.0,2.0,2.0,556.5194729715586,3.0,1.0,phase_1,,,,,,,,,,,,,green,triangle
58.0,5.0,0.5,1.0,4.0,4.0,447.6531017571687,3.0,1.0,phase_1,,,,,,,,,,,,,green,triangle
41.0,1.0,0.5,0.0,4.0,4.0,509.028147906065,3.0,1.0,phase_1,,,,,,,,,,,,,gray,flipped triangle
183.0,3.0,2.0,0.0,4.0,4.0,488.7632764875889,3.0,1.0,phase_1,,,,,,,,,,,,,magenta,circle
183.0,7.0,2.0,1.0,3.0,3.0,393.2303693145513,3.0,1.0,phase_1,,,,,,,,,,,,,blue,square
176.0,7.0,2.0,1.0,2.0,2.0,340.2436710894108,3.0,1.0,phase_1,,,,,,,,,,,,,blue,square
116.0,6.0,1.0,1.0,2.0,2.0,374.9511204659939,3.0,1.0,phase_1,,,,,,,,,,,,,cyan,hexagon
0.0,6.0,0.0,1.0,2.0,2.0,403.7579167634249,3.0,1.0,phase_1,,,,,,,,,,,,,cyan,hexagon
0.0,2.0,0.0,0.0,1.0,1.0,451.312355697155,3.0,1.0,phase_1,,,,,,,,,,,,,white,I
225.0,7.0,2.0,1.0,3.0,3.0,423.9368084818125,3.0,1.0,phase_1,,,,,,,,,,,,,blue,square
196.0,7.0,2.0,1.0,3.0,3.0,425.4343919456005,3.0,1.0,phase_1,,,,,,,,,,,,,blue,square
394.0,8.0,4.0,1.0,2.0,2.0,438.8752039521932,3.0,1.0,phase_1,,,,,,,,,,,,,yellow,diamond
0.0,2.0,0.0,0.0,1.0,1.0,459.1052066534757,3.0,1.0,phase_1,,,,,,,,,,,,,white,I
80.0,6.0,1.0,1.0,3.0,3.0,351.6719155013561,3.0,1.0,phase_1,,,,,,,,,,,,,cyan,hexagon
37.0,1.0,0.5,0.0,2.0,2.0,573.2722524553537,3.0,1.0,phase_1,,,,,,,,,,,,,gray,flipped triangle
0.0,2.0,0.0,0.0,1.0,1.0,474.7684728354215,3.0,1.0,phase_1,,,,,,,,,,,,,white,I
217.0,7.0,2.0,1.0,2.0,2.0,494.5189673453569,3.0,1.0,phase_1,,,,,,,,,,,,,blue,square
36.0,5.0,0.5,1.0,2.0,2.0,450.3598250448704,3.0,1.0,phase_1,,,,,,,,,,,,,green,triangle
43.0,1.0,0.5,0.0,3.0,3.0,410.2400038391351,3.0,1.0,phase_1,,,,,,,,,,,,,gray,flipped triangle
0.0,4.0,0.0,0.0,1.0,1.0,429.8686403781175,3.0,1.0,phase_1,,,,,,,,,,,,,orange,cross
407.0,4.0,4.0,0.0,1.0,1.0,571.652177721262,3.0,1.0,phase_1,,,,,,,,,,,,,orange,cross
414.0,8.0,4.0,1.0,1.0,1.0,437.1321760118007,3.0,1.0,phase_1,,,,,,,,,,,,,yellow,diamond
32.0,1.0,0.5,0.0,4.0,4.0,433.6200077086687,3.0,1.0,phase_1,,,,,,,,,,,,,gray,flipped triangle
65.0,1.0,0.5,0.0,2.0,2.0,369.0437916666269,3.0,1.0,phase_1,,,,,,,,,,,,,gray,flipped triangle
62.0,5.0,0.5,1.0,3.0,3.0,443.3083925396204,3.0,1.0,phase_1,,,,,,,,,,,,,green,triangle
190.0,3.0,2.0,0.0,4.0,4.0,433.7063301354646,3.0,1.0,phase_1,,,,,,,,,,,,,magenta,circle
185.0,7.0,2.0,1.0,3.0,3.0,415.8170409500599,3.0,1.0,phase_1,,,,,,,,,,,,,blue,square
102.0,2.0,1.0,0.0,3.0,3.0,473.5847245901823,3.0,1.0,phase_1,,,,,,,,,,,,,white,I
65.0,5.0,0.5,1.0,1.0,1.0,430.1856718957424,3.0,1.0,phase_1,,,,,,,,,,,,,green,triangle
99.0,2.0,1.0,0.0,4.0,4.0,396.8760352581739,3.0,1.0,phase_1,,,,,,,,,,,,,white,I
116.0,6.0,1.0,1.0,3.0,3.0,369.7138410061598,3.0,1.0,phase_1,,,,,,,,,,,,,cyan,hexagon
102.0,2.0,1.0,0.0,1.0,1.0,509.91268642246723,3.0,1.0,phase_1,,,,,,,,,,,,,white,I
193.0,7.0,2.0,1.0,1.0,1.0,434.6498679369688,3.0,1.0,phase_1,,,,,,,,,,,,,blue,square
90.0,2.0,1.0,0.0,4.0,4.0,559.9976368248463,3.0,1.0,phase_1,,,,,,,,,,,,,white,I
214.0,7.0,2.0,1.0,4.0,4.0,523.1714155524969,3.0,1.0,phase_1,,,,,,,,,,,,,blue,square
33.0,5.0,0.5,1.0,1.0,1.0,783.1414882093668,3.0,1.0,phase_1,,,,,,,,,,,,,green,triangle
100.0,6.0,1.0,1.0,3.0,3.0,508.3874370902777,3.0,1.0,phase_1,,,,,,,,,,,,,cyan,hexagon
402.0,8.0,4.0,1.0,3.0,3.0,368.091968819499,3.0,1.0,phase_1,,,,,,,,,,,,,yellow,diamond
189.0,7.0,2.0,1.0,4.0,4.0,398.3270563185215,3.0,1.0,phase_1,,,,,,,,,,,,,blue,square
101.0,6.0,1.0,1.0,2.0,2.0,428.5949394106865,3.0,1.0,phase_1,,,,,,,,,,,,,cyan,hexagon
30.0,1.0,0.5,0.0,3.0,3.0,543.3990526944399,3.0,1.0,phase_1,,,,,,,,,,,,,gray,flipped triangle
0.0,1.0,0.0,0.0,1.0,1.0,566.8068006634712,3.0,1.0,phase_1,,,,,,,,,,,,,gray,flipped triangle
197.0,7.0,2.0,1.0,1.0,1.0,579.403331503272,3.0,1.0,phase_1,,,,,,,,,,,,,blue,square
212.0,7.0,2.0,1.0,4.0,4.0,588.945934548974,3.0,1.0,phase_1,,,,,,,,,,,,,blue,square
0.0,2.0,0.0,0.0,1.0,1.0,468.8999671489,3.0,1.0,phase_1,,,,,,,,,,,,,white,I
52.0,5.0,0.5,1.0,4.0,4.0,487.5931162387132,3.0,1.0,phase_1,,,,,,,,,,,,,green,triangle
211.0,7.0,2.0,1.0,3.0,3.0,410.4823917150497,3.0,1.0,phase_1,,,,,,,,,,,,,blue,square
56.0,5.0,0.5,1.0,3.0,3.0,450.0360060483217,3.0,1.0,phase_1,,,,,,,,,,,,,green,triangle
31.0,1.0,0.5,0.0,3.0,3.0,388.3032463490963,3.0,1.0,phase_1,,,,,,,,,,,,,gray,flipped triangle
0.0,1.0,0.0,0.0,2.0,2.0,401.09976939857,3.0,1.0,phase_1,,,,,,,,,,,,,gray,flipped triangle
396.0,8.0,4.0,1.0,2.0,2.0,612.7874441444874,3.0,1.0,phase_1,,,,,,,,,,,,,yellow,diamond
410.0,4.0,4.0,0.0,2.0,2.0,458.7560966610908,3.0,1.0,phase_1,,,,,,,,,,,,,orange,cross
212.0,7.0,2.0,1.0,2.0,2.0,422.3995544016361,3.0,1.0,phase_1,,,,,,,,,,,,,blue,square
68.0,1.0,0.5,0.0,1.0,1.0,541.6646525263786,3.0,1.0,phase_1,,,,,,,,,,,,,gray,flipped triangle
86.0,2.0,1.0,0.0,3.0,3.0,400.2748690545559,3.0,1.0,phase_1,,,,,,,,,,,,,white,I
398.0,4.0,4.0,0.0,2.0,2.0,412.0434075593948,4.0,1.0,phase_1,,,,,,,,,,,,,orange,cross
221.0,3.0,2.0,0.0,2.0,2.0,425.6824068725109,4.0,1.0,phase_1,,,,,,,,,,,,,magenta,circle
110.0,2.0,1.0,0.0,1.0,1.0,461.6955332458019,4.0,1.0,phase_1,,,,,,,,,,,,,white,I
122.0,6.0,1.0,1.0,3.0,3.0,562.6871716231108,4.0,1.0,phase_1,,,,,,,,,,,,,cyan,hexagon
0.0,5.0,0.0,1.0,4.0,4.0,396.1583767086267,4.0,1.0,phase_1,,,,,,,,,,,,,green,triangle
102.0,6.0,1.0,1.0,2.0,2.0,363.9357220381498,4.0,1.0,phase_1,,,,,,,,,,,,,cyan,hexagon
210.0,3.0,2.0,0.0,4.0,4.0,543.924255296588,4.0,1.0,phase_1,,,,,,,,,,,,,magenta,circle
377.0,4.0,4.0,0.0,2.0,2.0,377.7594193816185,4.0,1.0,phase_1,,,,,,,,,,,,,orange,cross
0.0,1.0,0.0,0.0,4.0,4.0,402.2349342703819,4.0,1.0,phase_1,,,,,,,,,,,,,gray,flipped triangle
68.0,5.0,0.5,1.0,2.0,2.0,348.9798568189144,4.0,1.0,phase_1,,,,,,,,,,,,,green,triangle
387.0,8.0,4.0,1.0,2.0,2.0,409.6149727702141,4.0,1.0,phase_1,,,,,,,,,,,,,yellow,diamond
0.0,1.0,0.0,0.0,2.0,2.0,381.0739014297724,4.0,1.0,phase_1,,,,,,,,,,,,,gray,flipped triangle
221.0,7.0,2.0,1.0,4.0,4.0,537.4283120036125,4.0,1.0,phase_1,,,,,,,,,,,,,blue,square
176.0,3.0,2.0,0.0,3.0,3.0,615.8466953784227,4.0,1.0,phase_1,,,,,,,,,,,,,magenta,circle
176.0,3.0,2.0,0.0,1.0,1.0,434.3437477946281,4.0,1.0,phase_1,,,,,,,,,,,,,magenta,circle
94.0,6.0,1.0,1.0,4.0,4.0,474.361477419734,4.0,1.0,phase_1,,,,,,,,,,,,,cyan,hexagon
37.0,5.0,0.5,1.0,4.0,4.0,388.6036425828933,4.0,1.0,phase_1,,,,,,,,,,,,,green,triangle
221.0,7.0,2.0,1.0,3.0,3.0,384.6144080162048,4.0,1.0,phase_1,,,,,,,,,,,,,blue,square
0.0,5.0,0.0,1.0,2.0,2.0,359.9455058574676,4.0,1.0,phase_1,,,,,,,,,,,,,green,triangle
0.0,5.0,0.0,1.0,4.0,4.0,340.9454468637705,4.0,1.0,phase_1,,,,,,,,,,,,,green,triangle
185.0,3.0,2.0,0.0,1.0,1.0,470.4189822077751,4.0,1.0,phase_1,,,,,,,,,,,,,magenta,circle
388.0,8.0,4.0,1.0,3.0,3.0,397.4014353007078,4.0,1.0,phase_1,,,,,,,,,,,,,yellow,diamond
92.0,2.0,1.0,0.0,1.0,1.0,498.6837599426508,4.0,1.0,phase_1,,,,,,,,,,,,,white,I
0.0,7.0,0.0,1.0,3.0,3.0,477.3397110402584,4.0,1.0,phase_1,,,,,,,,,,,,,blue,square
66.0,5.0,0.5,1.0,2.0,2.0,389.0611808747053,4.0,1.0,phase_1,,,,,,,,,,,,,green,triangle
110.0,6.0,1.0,1.0,1.0,1.0,536.4820994436741,4.0,1.0,phase_1,,,,,,,,,,,,,cyan,hexagon
0.0,7.0,0.0,1.0,4.0,4.0,452.3701686412096,4.0,1.0,phase_1,,,,,,,,,,,,,blue,square
410.0,8.0,4.0,1.0,2.0,2.0,393.5025241225958,4.0,1.0,phase_1,,,,,,,,,,,,,yellow,diamond
97.0,2.0,1.0,0.0,2.0,2.0,373.6431710422039,4.0,1.0,phase_1,,,,,,,,,,,,,white,I
99.0,2.0,1.0,0.0,1.0,1.0,572.5091099739075,4.0,1.0,phase_1,,,,,,,,,,,,,white,I
0.0,5.0,0.0,1.0,1.0,1.0,438.2824655622244,4.0,1.0,phase_1,,,,,,,,,,,,,green,triangle
0.0,7.0,0.0,1.0,2.0,2.0,426.3836666941643,4.0,1.0,phase_1,,,,,,,,,,,,,blue,square
94.0,6.0,1.0,1.0,4.0,4.0,418.0883839726448,4.0,1.0,phase_1,,,,,,,,,,,,,cyan,hexagon
219.0,7.0,2.0,1.0,2.0,2.0,381.1935186386108,4.0,1.0,phase_1,,,,,,,,,,,,,blue,square
99.0,6.0,1.0,1.0,4.0,4.0,460.0279722362757,4.0,1.0,phase_1,,,,,,,,,,,,,cyan,hexagon
82.0,2.0,1.0,0.0,1.0,1.0,431.1199076473713,4.0,1.0,phase_1,,,,,,,,,,,,,white,I
43.0,5.0,0.5,1.0,1.0,1.0,475.5426663905382,4.0,1.0,phase_1,,,,,,,,,,,,,green,triangle
0.0,7.0,0.0,1.0,1.0,1.0,553.428515791893,4.0,1.0,phase_1,,,,,,,,,,,,,blue,square
208.0,3.0,2.0,0.0,3.0,3.0,486.3740410655737,4.0,1.0,phase_1,,,,,,,,,,,,,magenta,circle
404.0,4.0,4.0,0.0,2.0,2.0,650.6707351654768,4.0,1.0,phase_1,,,,,,,,,,,,,orange,cross
122.0,6.0,1.0,1.0,4.0,4.0,463.1923511624336,4.0,1.0,phase_1,,,,,,,,,,,,,cyan,hexagon
88.0,6.0,1.0,1.0,4.0,4.0,579.0051314979792,4.0,1.0,phase_1,,,,,,,,,,,,,cyan,hexagon
37.0,1.0,0.5,0.0,4.0,4.0,424.7915837913751,4.0,1.0,phase_1,,,,,,,,,,,,,gray,flipped triangle
383.0,4.0,4.0,0.0,1.0,1.0,573.6342091113329,4.0,1.0,phase_1,,,,,,,,,,,,,orange,cross
200.0,3.0,2.0,0.0,4.0,4.0,479.1825320571661,4.0,1.0,phase_1,,,,,,,,,,,,,magenta,circle
0.0,5.0,0.0,1.0,3.0,3.0,421.1637359112501,4.0,1.0,phase_1,,,,,,,,,,,,,green,triangle
410.0,4.0,4.0,0.0,4.0,4.0,480.7684794068336,4.0,1.0,phase_1,,,,,,,,,,,,,orange,cross
0.0,2.0,0.0,0.0,2.0,2.0,375.0093337148428,4.0,1.0,phase_1,,,,,,,,,,,,,white,I
208.0,7.0,2.0,1.0,2.0,2.0,523.7871240824461,4.0,1.0,phase_1,,,,,,,,,,,,,blue,square
189.0,3.0,2.0,0.0,2.0,2.0,606.8044658750296,4.0,1.0,phase_1,,,,,,,,,,,,,magenta,circle
418.0,8.0,4.0,1.0,1.0,1.0,574.99841414392,4.0,1.0,phase_1,,,,,,,,,,,,,yellow,diamond
0.0,4.0,0.0,0.0,3.0,3.0,368.8640240579843,4.0,1.0,phase_1,,,,,,,,,,,,,orange,cross
413.0,8.0,4.0,1.0,4.0,4.0,636.9516272097826,4.0,1.0,phase_1,,,,,,,,,,,,,yellow,diamond
114.0,2.0,1.0,0.0,2.0,2.0,500.37756003439426,4.0,1.0,phase_1,,,,,,,,,,,,,white,I
419.0,8.0,4.0,1.0,1.0,1.0,518.728032708168,4.0,1.0,phase_1,,,,,,,,,,,,,yellow,diamond
108.0,6.0,1.0,1.0,2.0,2.0,458.4835059940815,4.0,1.0,phase_1,,,,,,,,,,,,,cyan,hexagon
415.0,4.0,4.0,0.0,2.0,2.0,417.5453912466764,4.0,1.0,phase_1,,,,,,,,,,,,,orange,cross
0.0,4.0,0.0,0.0,4.0,4.0,604.819443076849,4.0,1.0,phase_1,,,,,,,,,,,,,orange,cross
56.0,1.0,0.5,0.0,2.0,2.0,466.7840246111154,4.0,1.0,phase_1,,,,,,,,,,,,,gray,flipped triangle
382.0,4.0,4.0,0.0,3.0,3.0,424.1657648235559,4.0,1.0,phase_1,,,,,,,,,,,,,orange,cross
416.0,8.0,4.0,1.0,2.0,2.0,437.916187569499,4.0,1.0,phase_1,,,,,,,,,,,,,yellow,diamond
118.0,2.0,1.0,0.0,1.0,1.0,463.8427030295133,4.0,1.0,phase_1,,,,,,,,,,,,,white,I
0.0,6.0,0.0,1.0,3.0,3.0,462.1678628027439,4.0,1.0,phase_1,,,,,,,,,,,,,cyan,hexagon
74.0,1.0,0.5,0.0,3.0,3.0,464.5723234862089,4.0,1.0,phase_1,,,,,,,,,,,,,gray,flipped triangle
0.0,8.0,0.0,1.0,2.0,2.0,454.6775408089161,4.0,1.0,phase_1,,,,,,,,,,,,,yellow,diamond
182.0,7.0,2.0,1.0,2.0,2.0,459.7369078546762,4.0,1.0,phase_1,,,,,,,,,,,,,blue,square
114.0,6.0,1.0,1.0,3.0,3.0,407.6808542013168,4.0,1.0,phase_1,,,,,,,,,,,,,cyan,hexagon
0.0,6.0,0.0,1.0,1.0,1.0,527.155039831996,4.0,1.0,phase_1,,,,,,,,,,,,,cyan,hexagon
0.0,3.0,0.0,0.0,1.0,1.0,483.3197984844446,4.0,1.0,phase_1,,,,,,,,,,,,,magenta,circle
0.0,4.0,0.0,0.0,2.0,2.0,326.4104779809713,4.0,1.0,phase_1,,,,,,,,,,,,,orange,cross
379.0,8.0,4.0,1.0,2.0,2.0,443.5314629226923,4.0,1.0,phase_1,,,,,,,,,,,,,yellow,diamond
55.0,1.0,0.5,0.0,4.0,4.0,390.2226407080889,4.0,1.0,phase_1,,,,,,,,,,,,,gray,flipped triangle
26.0,5.0,0.5,1.0,1.0,1.0,397.1555754542351,4.0,1.0,phase_1,,,,,,,,,,,,,green,triangle
218.0,7.0,2.0,1.0,4.0,4.0,449.9934501945972,4.0,1.0,phase_1,,,,,,,,,,,,,blue,square
403.0,4.0,4.0,0.0,4.0,4.0,415.2433406561613,4.0,1.0,phase_1,,,,,,,,,,,,,orange,cross
410.0,8.0,4.0,1.0,4.0,4.0,512.4403480440378,4.0,1.0,phase_1,,,,,,,,,,,,,yellow,diamond
115.0,2.0,1.0,0.0,2.0,2.0,421.6592498123646,4.0,1.0,phase_1,,,,,,,,,,,,,white,I
403.0,8.0,4.0,1.0,4.0,4.0,491.7573202401399,4.0,1.0,phase_1,,,,,,,,,,,,,yellow,diamond
0.0,3.0,0.0,0.0,3.0,3.0,550.6779793649912,4.0,1.0,phase_1,,,,,,,,,,,,,magenta,circle
65.0,1.0,0.5,0.0,3.0,3.0,451.1690139770508,4.0,1.0,phase_1,,,,,,,,,,,,,gray,flipped triangle
82.0,6.0,1.0,1.0,1.0,1.0,490.0931194424629,4.0,1.0,phase_1,,,,,,,,,,,,,cyan,hexagon
89.0,2.0,1.0,0.0,2.0,2.0,470.5774169415235,4.0,1.0,phase_1,,,,,,,,,,,,,white,I
65.0,5.0,0.5,1.0,4.0,4.0,325.6455492228269,4.0,1.0,phase_1,,,,,,,,,,,,,green,triangle
0.0,7.0,0.0,1.0,2.0,2.0,409.3883968889713,4.0,1.0,phase_1,,,,,,,,,,,,,blue,square
0.0,6.0,0.0,1.0,4.0,4.0,357.6841000467539,4.0,1.0,phase_1,,,,,,,,,,,,,cyan,hexagon
67.0,1.0,0.5,0.0,1.0,1.0,633.7285209447145,4.0,1.0,phase_1,,,,,,,,,,,,,gray,flipped triangle
0.0,3.0,0.0,0.0,1.0,1.0,422.1178013831377,4.0,1.0,phase_1,,,,,,,,,,,,,magenta,circle
100.0,2.0,1.0,0.0,4.0,4.0,401.1131953448057,4.0,1.0,phase_1,,,,,,,,,,,,,white,I
190.0,7.0,2.0,1.0,1.0,1.0,365.5539974570274,4.0,1.0,phase_1,,,,,,,,,,,,,blue,square
398.0,8.0,4.0,1.0,2.0,2.0,409.6519201993942,4.0,1.0,phase_1,,,,,,,,,,,,,yellow,diamond
0.0,6.0,0.0,1.0,1.0,1.0,398.8331686705351,4.0,1.0,phase_1,,,,,,,,,,,,,cyan,hexagon
187.0,3.0,2.0,0.0,1.0,1.0,422.4636107683182,4.0,1.0,phase_1,,,,,,,,,,,,,magenta,circle
223.0,7.0,2.0,1.0,2.0,2.0,386.8131525814533,4.0,1.0,phase_1,,,,,,,,,,,,,blue,square
45.0,5.0,0.5,1.0,2.0,2.0,397.8782314807176,4.0,1.0,phase_1,,,,,,,,,,,,,green,triangle
183.0,3.0,2.0,0.0,4.0,4.0,433.8221158832311,4.0,1.0,phase_1,,,,,,,,,,,,,magenta,circle
97.0,6.0,1.0,1.0,2.0,2.0,478.018956258893,4.0,1.0,phase_1,,,,,,,,,,,,,cyan,hexagon
37.0,5.0,0.5,1.0,1.0,1.0,663.016164675355,4.0,1.0,phase_1,,,,,,,,,,,,,green,triangle
418.0,4.0,4.0,0.0,3.0,3.0,382.2855353355407,4.0,2.0,phase_1,,,,,,,,,,,,,orange,cross
0.0,6.0,0.0,1.0,4.0,4.0,466.9434279203415,4.0,1.0,phase_1,,,,,,,,,,,,,cyan,hexagon
420.0,4.0,4.0,0.0,1.0,1.0,799.9309822916985,4.0,1.0,phase_1,,,,,,,,,,,,,orange,cross
0.0,8.0,4.0,1.0,6.0,0.0,0.0,1.0,1.0,phase_2,stop,250.0,250.0,4.0,,,,,,,,,yellow,diamond
0.0,2.0,1.0,0.0,6.0,6.0,837.8763534128666,1.0,1.0,phase_2,go,250.0,300.0,1.0,,,,,,,,,white,I
0.0,5.0,0.5,1.0,6.0,6.0,687.5739544630051,1.0,1.0,phase_2,go,250.0,300.0,1.0,,,,,,,,,green,triangle
0.0,8.0,4.0,1.0,5.0,0.0,0.0,1.0,1.0,phase_2,stop,250.0,300.0,4.0,,,,,,,,,yellow,diamond
0.0,2.0,1.0,0.0,6.0,6.0,707.464536651969,1.0,1.0,phase_2,go,300.0,300.0,1.0,,,,,,,,,white,I
0.0,6.0,1.0,1.0,5.0,0.0,0.0,1.0,1.0,phase_2,stop,300.0,300.0,4.0,,,,,,,,,cyan,hexagon
0.0,1.0,0.5,0.0,6.0,6.0,595.1945204287767,1.0,1.0,phase_2,go,350.0,300.0,1.0,,,,,,,,,gray,flipped triangle
0.0,6.0,1.0,1.0,5.0,0.0,0.0,1.0,1.0,phase_2,stop,350.0,300.0,4.0,,,,,,,,,cyan,hexagon
0.0,2.0,1.0,0.0,6.0,6.0,569.7806533426046,1.0,1.0,phase_2,go,400.0,300.0,1.0,,,,,,,,,white,I
0.0,2.0,1.0,0.0,6.0,6.0,616.4700724184513,1.0,1.0,phase_2,go,400.0,300.0,1.0,,,,,,,,,white,I
0.0,8.0,4.0,1.0,6.0,0.0,0.0,1.0,1.0,phase_2,stop,400.0,300.0,4.0,,,,,,,,,yellow,diamond
0.0,4.0,4.0,0.0,5.0,5.0,675.9059373289347,1.0,1.0,phase_2,go,400.0,350.0,1.0,,,,,,,,,orange,cross
0.0,8.0,4.0,1.0,5.0,0.0,0.0,1.0,1.0,phase_2,stop,400.0,350.0,4.0,,,,,,,,,yellow,diamond
0.0,3.0,2.0,0.0,6.0,6.0,655.4566211998463,1.0,1.0,phase_2,go,450.0,350.0,1.0,,,,,,,,,magenta,circle
0.0,3.0,2.0,0.0,5.0,5.0,791.4205957204103,1.0,1.0,phase_2,go,450.0,350.0,1.0,,,,,,,,,magenta,circle
0.0,6.0,1.0,1.0,5.0,0.0,0.0,1.0,1.0,phase_2,stop,450.0,350.0,4.0,,,,,,,,,cyan,hexagon
0.0,4.0,4.0,0.0,5.0,5.0,1039.916006848216,1.0,1.0,phase_2,go,500.0,350.0,1.0,,,,,,,,,orange,cross
0.0,8.0,4.0,1.0,5.0,0.0,0.0,1.0,1.0,phase_2,stop,500.0,350.0,4.0,,,,,,,,,yellow,diamond
0.0,4.0,4.0,0.0,6.0,6.0,549.7007686644793,1.0,1.0,phase_2,go,550.0,350.0,1.0,,,,,,,,,orange,cross
0.0,6.0,1.0,1.0,6.0,0.0,0.0,1.0,1.0,phase_2,stop,550.0,350.0,4.0,,,,,,,,,cyan,hexagon
0.0,2.0,1.0,0.0,5.0,5.0,741.3446810096502,1.0,1.0,phase_2,go,550.0,400.0,1.0,,,,,,,,,white,I
0.0,2.0,1.0,0.0,6.0,6.0,730.0108913332224,1.0,1.0,phase_2,go,550.0,400.0,1.0,,,,,,,,,white,I
0.0,6.0,1.0,1.0,5.0,0.0,0.0,1.0,1.0,phase_2,stop,550.0,400.0,4.0,,,,,,,,,cyan,hexagon
0.0,1.0,0.5,0.0,6.0,6.0,568.9687691628933,1.0,1.0,phase_2,go,600.0,400.0,1.0,,,,,,,,,gray,flipped triangle
0.0,7.0,2.0,1.0,6.0,0.0,0.0,1.0,1.0,phase_2,stop,600.0,400.0,4.0,,,,,,,,,blue,square
0.0,1.0,0.5,0.0,6.0,6.0,583.6488399654627,1.0,1.0,phase_2,go,600.0,450.0,1.0,,,,,,,,,gray,flipped triangle
0.0,7.0,2.0,1.0,6.0,6.0,472.0436763018369,1.0,1.0,phase_2,stop,600.0,450.0,3.0,,,,,,,,,blue,square
0.0,5.0,0.5,1.0,6.0,0.0,0.0,1.0,1.0,phase_2,stop,600.0,400.0,4.0,,,,,,,,,green,triangle
0.0,6.0,1.0,1.0,6.0,6.0,625.0377129763365,1.0,1.0,phase_2,go,600.0,450.0,1.0,,,,,,,,,cyan,hexagon
0.0,1.0,0.5,0.0,6.0,6.0,801.3278059661388,1.0,1.0,phase_2,go,600.0,450.0,1.0,,,,,,,,,gray,flipped triangle
0.0,7.0,2.0,1.0,5.0,5.0,685.2875836193562,1.0,1.0,phase_2,stop,600.0,450.0,3.0,,,,,,,,,blue,square
0.0,7.0,2.0,1.0,5.0,5.0,628.6375224590302,1.0,1.0,phase_2,go,550.0,450.0,1.0,,,,,,,,,blue,square
0.0,3.0,2.0,0.0,5.0,5.0,812.393669039011,1.0,1.0,phase_2,go,550.0,450.0,1.0,,,,,,,,,magenta,circle
0.0,3.0,2.0,0.0,5.0,5.0,758.7934322655201,1.0,1.0,phase_2,go,550.0,450.0,1.0,,,,,,,,,magenta,circle
0.0,6.0,1.0,1.0,6.0,0.0,0.0,1.0,1.0,phase_2,stop,550.0,450.0,4.0,,,,,,,,,cyan,hexagon
0.0,7.0,2.0,1.0,5.0,5.0,638.1374970078468,1.0,1.0,phase_2,go,550.0,500.0,1.0,,,,,,,,,blue,square
0.0,3.0,2.0,0.0,6.0,0.0,0.0,2.0,1.0,phase_2,go,550.0,500.0,5.0,,,,,,,,,magenta,circle
0.0,1.0,0.5,0.0,5.0,5.0,529.7815203666687,2.0,1.0,phase_2,go,550.0,500.0,1.0,,,,,,,,,gray,flipped triangle
0.0,2.0,1.0,0.0,5.0,5.0,714.2317518591881,2.0,1.0,phase_2,go,550.0,500.0,1.0,,,,,,,,,white,I
0.0,1.0,0.5,0.0,6.0,6.0,986.2015917897224,2.0,1.0,phase_2,go,550.0,500.0,1.0,,,,,,,,,gray,flipped triangle
0.0,2.0,1.0,0.0,5.0,5.0,597.834374755621,2.0,1.0,phase_2,go,550.0,500.0,1.0,,,,,,,,,white,I
0.0,3.0,2.0,0.0,5.0,5.0,553.2309431582689,2.0,1.0,phase_2,go,550.0,500.0,1.0,,,,,,,,,magenta,circle
0.0,6.0,1.0,1.0,6.0,6.0,463.6408481746912,2.0,1.0,phase_2,stop,550.0,500.0,3.0,,,,,,,,,cyan,hexagon
0.0,7.0,2.0,1.0,5.0,5.0,574.6885351836681,2.0,1.0,phase_2,stop,550.0,450.0,3.0,,,,,,,,,blue,square
0.0,1.0,0.5,0.0,6.0,6.0,1157.7516067773104,2.0,1.0,phase_2,go,500.0,450.0,1.0,,,,,,,,,gray,flipped triangle
0.0,5.0,0.5,1.0,5.0,0.0,0.0,2.0,1.0,phase_2,stop,500.0,450.0,4.0,,,,,,,,,green,triangle
0.0,7.0,2.0,1.0,5.0,5.0,717.021644115448,2.0,1.0,phase_2,stop,550.0,450.0,3.0,,,,,,,,,blue,square
0.0,3.0,2.0,0.0,5.0,5.0,762.2042000293732,2.0,1.0,phase_2,go,500.0,450.0,1.0,,,,,,,,,magenta,circle
0.0,7.0,2.0,1.0,6.0,6.0,529.3814092874527,2.0,1.0,phase_2,stop,500.0,450.0,3.0,,,,,,,,,blue,square
0.0,7.0,2.0,1.0,5.0,0.0,0.0,2.0,1.0,phase_2,stop,500.0,400.0,4.0,,,,,,,,,blue,square
0.0,5.0,0.5,1.0,6.0,0.0,0.0,2.0,1.0,phase_2,stop,550.0,400.0,4.0,,,,,,,,,green,triangle
0.0,4.0,4.0,0.0,6.0,6.0,743.7946498394012,2.0,1.0,phase_2,go,550.0,450.0,1.0,,,,,,,,,orange,cross
0.0,3.0,2.0,0.0,5.0,5.0,1081.8869732320309,2.0,1.0,phase_2,go,550.0,450.0,1.0,,,,,,,,,magenta,circle
0.0,3.0,2.0,0.0,6.0,6.0,978.1548399478196,2.0,1.0,phase_2,go,550.0,450.0,1.0,,,,,,,,,magenta,circle
0.0,6.0,1.0,1.0,5.0,0.0,0.0,2.0,1.0,phase_2,stop,550.0,450.0,4.0,,,,,,,,,cyan,hexagon
0.0,7.0,2.0,1.0,5.0,5.0,937.1746256947516,2.0,1.0,phase_2,go,600.0,450.0,1.0,,,,,,,,,blue,square
0.0,4.0,4.0,0.0,6.0,6.0,752.8782803565264,2.0,1.0,phase_2,go,600.0,450.0,1.0,,,,,,,,,orange,cross
0.0,3.0,2.0,0.0,6.0,6.0,716.4943646639585,2.0,1.0,phase_2,go,600.0,450.0,1.0,,,,,,,,,magenta,circle
0.0,1.0,0.5,0.0,5.0,5.0,860.4289889335632,2.0,1.0,phase_2,go,600.0,450.0,1.0,,,,,,,,,gray,flipped triangle
0.0,3.0,2.0,0.0,6.0,6.0,516.0971377044916,2.0,1.0,phase_2,go,600.0,450.0,1.0,,,,,,,,,magenta,circle
0.0,7.0,2.0,1.0,6.0,6.0,531.7519530653954,2.0,1.0,phase_2,stop,600.0,450.0,3.0,,,,,,,,,blue,square
0.0,3.0,2.0,0.0,5.0,5.0,642.2514393925667,2.0,1.0,phase_2,go,600.0,400.0,1.0,,,,,,,,,magenta,circle
0.0,5.0,0.5,1.0,5.0,0.0,0.0,2.0,1.0,phase_2,stop,600.0,400.0,4.0,,,,,,,,,green,triangle
0.0,3.0,2.0,0.0,6.0,6.0,873.8194908946753,2.0,1.0,phase_2,go,650.0,400.0,1.0,,,,,,,,,magenta,circle
0.0,4.0,4.0,0.0,6.0,6.0,744.3000078201294,2.0,1.0,phase_2,go,650.0,400.0,1.0,,,,,,,,,orange,cross
0.0,6.0,1.0,1.0,6.0,0.0,0.0,2.0,1.0,phase_2,stop,650.0,400.0,4.0,,,,,,,,,cyan,hexagon
0.0,5.0,0.5,1.0,5.0,5.0,674.4524296373129,2.0,1.0,phase_2,stop,650.0,450.0,3.0,,,,,,,,,green,triangle
0.0,4.0,4.0,0.0,5.0,5.0,841.7530581355095,2.0,1.0,phase_2,go,600.0,450.0,1.0,,,,,,,,,orange,cross
0.0,1.0,0.5,0.0,6.0,6.0,840.9330043941736,2.0,1.0,phase_2,go,600.0,450.0,1.0,,,,,,,,,gray,flipped triangle
0.0,3.0,2.0,0.0,5.0,5.0,765.6913865357637,2.0,1.0,phase_2,go,600.0,450.0,1.0,,,,,,,,,magenta,circle
0.0,5.0,0.5,1.0,6.0,6.0,664.5813006907701,2.0,1.0,phase_2,go,600.0,450.0,1.0,,,,,,,,,green,triangle
0.0,4.0,4.0,0.0,5.0,5.0,711.6992641240358,2.0,1.0,phase_2,go,600.0,450.0,1.0,,,,,,,,,orange,cross
0.0,7.0,2.0,1.0,6.0,0.0,0.0,3.0,1.0,phase_2,stop,600.0,450.0,4.0,,,,,,,,,blue,square
0.0,6.0,1.0,1.0,5.0,5.0,599.6442083269358,3.0,1.0,phase_2,stop,600.0,500.0,3.0,,,,,,,,,cyan,hexagon
0.0,4.0,4.0,0.0,6.0,6.0,820.4689379781485,3.0,1.0,phase_2,go,550.0,500.0,1.0,,,,,,,,,orange,cross
0.0,3.0,2.0,0.0,5.0,5.0,500.29936619102955,3.0,1.0,phase_2,go,550.0,500.0,1.0,,,,,,,,,magenta,circle
0.0,5.0,0.5,1.0,5.0,0.0,0.0,3.0,1.0,phase_2,stop,550.0,500.0,4.0,,,,,,,,,green,triangle
0.0,6.0,1.0,1.0,6.0,6.0,435.3280607610941,3.0,1.0,phase_2,stop,600.0,500.0,3.0,,,,,,,,,cyan,hexagon
0.0,8.0,4.0,1.0,5.0,5.0,690.7489560544491,3.0,1.0,phase_2,stop,600.0,450.0,3.0,,,,,,,,,yellow,diamond
0.0,1.0,0.5,0.0,5.0,0.0,0.0,3.0,1.0,phase_2,go,550.0,450.0,5.0,,,,,,,,,gray,flipped triangle
0.0,6.0,1.0,1.0,5.0,5.0,881.2091890722513,3.0,1.0,phase_2,go,550.0,450.0,1.0,,,,,,,,,cyan,hexagon
0.0,4.0,4.0,0.0,6.0,6.0,704.0852755308151,3.0,1.0,phase_2,go,550.0,450.0,1.0,,,,,,,,,orange,cross
0.0,1.0,0.5,0.0,6.0,6.0,618.4315141290426,3.0,1.0,phase_2,go,550.0,450.0,1.0,,,,,,,,,gray,flipped triangle
0.0,3.0,2.0,0.0,6.0,6.0,457.3189914226532,3.0,1.0,phase_2,go,550.0,450.0,1.0,,,,,,,,,magenta,circle
0.0,8.0,4.0,1.0,6.0,6.0,522.6328279823065,3.0,1.0,phase_2,stop,550.0,450.0,3.0,,,,,,,,,yellow,diamond
0.0,6.0,1.0,1.0,6.0,0.0,0.0,3.0,1.0,phase_2,stop,550.0,400.0,4.0,,,,,,,,,cyan,hexagon
0.0,3.0,2.0,0.0,5.0,5.0,638.159841299057,3.0,1.0,phase_2,go,550.0,450.0,1.0,,,,,,,,,magenta,circle
0.0,4.0,4.0,0.0,5.0,5.0,757.89007358253,3.0,1.0,phase_2,go,550.0,450.0,1.0,,,,,,,,,orange,cross
0.0,4.0,4.0,0.0,5.0,5.0,1093.8859675079584,3.0,1.0,phase_2,go,550.0,450.0,1.0,,,,,,,,,orange,cross
0.0,7.0,2.0,1.0,5.0,0.0,0.0,3.0,1.0,phase_2,stop,550.0,450.0,4.0,,,,,,,,,blue,square
0.0,2.0,1.0,0.0,6.0,6.0,835.8910791575909,3.0,1.0,phase_2,go,600.0,450.0,1.0,,,,,,,,,white,I
0.0,3.0,2.0,0.0,6.0,6.0,709.0480774641037,3.0,1.0,phase_2,go,600.0,450.0,1.0,,,,,,,,,magenta,circle
0.0,1.0,0.5,0.0,5.0,5.0,642.6126640290022,3.0,1.0,phase_2,go,600.0,450.0,1.0,,,,,,,,,gray,flipped triangle
0.0,2.0,1.0,0.0,6.0,6.0,481.7036129534244,3.0,1.0,phase_2,go,600.0,450.0,1.0,,,,,,,,,white,I
0.0,5.0,0.5,1.0,6.0,6.0,529.9372617155313,3.0,1.0,phase_2,stop,600.0,450.0,3.0,,,,,,,,,green,triangle
0.0,1.0,0.5,0.0,6.0,6.0,827.3391928523779,3.0,1.0,phase_2,go,600.0,400.0,1.0,,,,,,,,,gray,flipped triangle
0.0,5.0,0.5,1.0,5.0,5.0,593.5957189649343,3.0,1.0,phase_2,stop,600.0,400.0,3.0,,,,,,,,,green,triangle
0.0,7.0,2.0,1.0,6.0,6.0,312.1581450104713,3.0,1.0,phase_2,go,550.0,400.0,1.0,,,,,,,,,blue,square
0.0,7.0,2.0,1.0,5.0,0.0,0.0,3.0,1.0,phase_2,stop,550.0,400.0,4.0,,,,,,,,,blue,square
0.0,4.0,4.0,0.0,6.0,6.0,553.5809360444546,3.0,1.0,phase_2,go,600.0,400.0,1.0,,,,,,,,,orange,cross
0.0,8.0,4.0,1.0,6.0,0.0,0.0,3.0,1.0,phase_2,stop,600.0,400.0,4.0,,,,,,,,,yellow,diamond
0.0,1.0,0.5,0.0,5.0,5.0,584.8456509411335,3.0,1.0,phase_2,go,600.0,450.0,1.0,,,,,,,,,gray,flipped triangle
0.0,2.0,1.0,0.0,5.0,5.0,800.2796117216349,3.0,1.0,phase_2,go,600.0,450.0,1.0,,,,,,,,,white,I
0.0,1.0,0.5,0.0,6.0,6.0,920.3709233552216,3.0,1.0,phase_2,go,600.0,450.0,1.0,,,,,,,,,gray,flipped triangle
0.0,3.0,2.0,0.0,6.0,6.0,580.0209380686283,3.0,1.0,phase_2,go,600.0,450.0,1.0,,,,,,,,,magenta,circle
0.0,2.0,1.0,0.0,6.0,6.0,541.106691583991,3.0,1.0,phase_2,go,600.0,450.0,1.0,,,,,,,,,white,I
0.0,8.0,4.0,1.0,5.0,5.0,428.5914767533541,3.0,1.0,phase_2,stop,600.0,450.0,3.0,,,,,,,,,yellow,diamond
0.0,2.0,1.0,0.0,5.0,5.0,820.0614508241415,3.0,1.0,phase_2,go,550.0,450.0,1.0,,,,,,,,,white,I
0.0,1.0,0.5,0.0,5.0,0.0,0.0,4.0,1.0,phase_2,go,550.0,450.0,5.0,,,,,,,,,gray,flipped triangle
0.0,3.0,2.0,0.0,6.0,6.0,467.1733099967241,4.0,1.0,phase_2,go,550.0,450.0,1.0,,,,,,,,,magenta,circle
0.0,1.0,0.5,0.0,5.0,5.0,427.6683311909437,4.0,1.0,phase_2,go,550.0,450.0,1.0,,,,,,,,,gray,flipped triangle
0.0,1.0,0.5,0.0,5.0,5.0,466.2565886974334,4.0,1.0,phase_2,go,550.0,450.0,1.0,,,,,,,,,gray,flipped triangle
0.0,7.0,2.0,1.0,6.0,6.0,354.9370598047972,4.0,1.0,phase_2,go,550.0,450.0,1.0,,,,,,,,,blue,square
0.0,5.0,0.5,1.0,5.0,5.0,691.9365059584379,4.0,1.0,phase_2,go,550.0,450.0,1.0,,,,,,,,,green,triangle
0.0,2.0,1.0,0.0,5.0,5.0,555.1146194338799,4.0,1.0,phase_2,go,550.0,450.0,1.0,,,,,,,,,white,I
0.0,1.0,0.5,0.0,5.0,5.0,487.9664052277803,4.0,1.0,phase_2,go,550.0,450.0,1.0,,,,,,,,,gray,flipped triangle
0.0,8.0,4.0,1.0,5.0,5.0,498.7738952040672,4.0,1.0,phase_2,stop,550.0,450.0,3.0,,,,,,,,,yellow,diamond
0.0,4.0,4.0,0.0,6.0,6.0,618.4970829635859,4.0,1.0,phase_2,go,500.0,450.0,1.0,,,,,,,,,orange,cross
0.0,1.0,0.5,0.0,5.0,5.0,646.3288925588131,4.0,1.0,phase_2,go,500.0,450.0,1.0,,,,,,,,,gray,flipped triangle
0.0,6.0,1.0,1.0,5.0,0.0,0.0,4.0,1.0,phase_2,stop,500.0,450.0,4.0,,,,,,,,,cyan,hexagon
0.0,1.0,0.5,0.0,6.0,6.0,488.0111645907163,4.0,1.0,phase_2,go,550.0,450.0,1.0,,,,,,,,,gray,flipped triangle
0.0,5.0,0.5,1.0,5.0,5.0,604.6529468148947,4.0,1.0,phase_2,stop,550.0,450.0,3.0,,,,,,,,,green,triangle
0.0,3.0,2.0,0.0,5.0,5.0,708.0257758498192,4.0,1.0,phase_2,go,500.0,450.0,1.0,,,,,,,,,magenta,circle
0.0,6.0,1.0,1.0,6.0,6.0,463.1176963448524,4.0,1.0,phase_2,go,500.0,450.0,1.0,,,,,,,,,cyan,hexagon
0.0,7.0,2.0,1.0,5.0,0.0,0.0,4.0,1.0,phase_2,stop,500.0,450.0,4.0,,,,,,,,,blue,square
0.0,3.0,2.0,0.0,5.0,5.0,676.7658200114965,4.0,1.0,phase_2,go,550.0,450.0,1.0,,,,,,,,,magenta,circle
0.0,4.0,4.0,0.0,6.0,6.0,684.5632120966911,4.0,1.0,phase_2,go,550.0,450.0,1.0,,,,,,,,,orange,cross
0.0,6.0,1.0,1.0,5.0,5.0,652.5078248232603,4.0,1.0,phase_2,stop,550.0,450.0,3.0,,,,,,,,,cyan,hexagon
0.0,6.0,1.0,1.0,6.0,6.0,681.3422366976738,4.0,1.0,phase_2,go,500.0,450.0,1.0,,,,,,,,,cyan,hexagon
0.0,1.0,0.5,0.0,5.0,5.0,691.4533786475658,4.0,1.0,phase_2,go,500.0,450.0,1.0,,,,,,,,,gray,flipped triangle
0.0,1.0,0.5,0.0,6.0,6.0,599.4459316134453,4.0,1.0,phase_2,go,500.0,450.0,1.0,,,,,,,,,gray,flipped triangle
0.0,8.0,4.0,1.0,5.0,5.0,711.0088486224413,4.0,1.0,phase_2,go,500.0,450.0,1.0,,,,,,,,,yellow,diamond
0.0,2.0,1.0,0.0,6.0,6.0,719.8062855750322,4.0,1.0,phase_2,go,500.0,450.0,1.0,,,,,,,,,white,I
0.0,2.0,1.0,0.0,5.0,5.0,557.7574223279953,4.0,1.0,phase_2,go,500.0,450.0,1.0,,,,,,,,,white,I
0.0,4.0,4.0,0.0,5.0,5.0,592.7657391875982,4.0,1.0,phase_2,go,500.0,450.0,1.0,,,,,,,,,orange,cross
0.0,8.0,4.0,1.0,6.0,6.0,444.8105059564113,4.0,1.0,phase_2,go,500.0,450.0,1.0,,,,,,,,,yellow,diamond
0.0,6.0,1.0,1.0,6.0,0.0,0.0,4.0,1.0,phase_2,stop,500.0,450.0,4.0,,,,,,,,,cyan,hexagon
0.0,5.0,0.5,1.0,6.0,6.0,622.7339338511229,4.0,1.0,phase_2,stop,500.0,500.0,3.0,,,,,,,,,green,triangle
0.0,4.0,4.0,0.0,6.0,6.0,822.1986647695303,4.0,1.0,phase_2,go,500.0,450.0,1.0,,,,,,,,,orange,cross
0.0,8.0,4.0,1.0,5.0,0.0,0.0,4.0,1.0,phase_2,stop,500.0,450.0,4.0,,,,,,,,,yellow,diamond
0.0,8.0,4.0,1.0,5.0,0.0,0.0,4.0,1.0,phase_2,stop,550.0,450.0,4.0,,,,,,,,,yellow,diamond
0.0,3.0,2.0,0.0,5.0,5.0,1252.835227176547,4.0,1.0,phase_2,go,600.0,450.0,1.0,,,,,,,,,magenta,circle
0.0,5.0,0.5,1.0,6.0,6.0,761.6645880043507,4.0,1.0,phase_2,go,600.0,450.0,1.0,,,,,,,,,green,triangle
0.0,6.0,1.0,1.0,6.0,0.0,0.0,4.0,1.0,phase_2,stop,600.0,450.0,4.0,,,,,,,,,cyan,hexagon
0.0,8.0,4.0,1.0,5.0,0.0,0.0,5.0,1.0,phase_2,stop,600.0,500.0,4.0,,,,,,,,,yellow,diamond
0.0,2.0,1.0,0.0,6.0,6.0,591.0728853195906,5.0,1.0,phase_2,go,650.0,500.0,1.0,,,,,,,,,white,I
0.0,8.0,4.0,1.0,6.0,6.0,778.5833179950714,5.0,1.0,phase_2,go,650.0,500.0,1.0,,,,,,,,,yellow,diamond
0.0,5.0,0.5,1.0,6.0,6.0,566.8755378574133,5.0,1.0,phase_2,stop,650.0,500.0,3.0,,,,,,,,,green,triangle
0.0,6.0,1.0,1.0,5.0,5.0,591.431139037013,5.0,1.0,phase_2,stop,650.0,450.0,3.0,,,,,,,,,cyan,hexagon
0.0,6.0,1.0,1.0,6.0,0.0,0.0,5.0,1.0,phase_2,stop,600.0,450.0,4.0,,,,,,,,,cyan,hexagon
0.0,3.0,2.0,0.0,6.0,6.0,662.0916724205017,5.0,1.0,phase_2,go,600.0,500.0,1.0,,,,,,,,,magenta,circle
0.0,7.0,2.0,1.0,5.0,5.0,716.9191464781761,5.0,1.0,phase_2,stop,600.0,500.0,3.0,,,,,,,,,blue,square
0.0,1.0,0.5,0.0,5.0,5.0,870.0025714933872,5.0,1.0,phase_2,go,550.0,500.0,1.0,,,,,,,,,gray,flipped triangle
0.0,7.0,2.0,1.0,6.0,0.0,0.0,5.0,1.0,phase_2,stop,550.0,500.0,4.0,,,,,,,,,blue,square
0.0,4.0,4.0,0.0,6.0,6.0,805.2574228495359,5.0,1.0,phase_2,go,550.0,550.0,1.0,,,,,,,,,orange,cross
0.0,2.0,1.0,0.0,5.0,5.0,860.7727196067572,5.0,1.0,phase_2,go,550.0,550.0,1.0,,,,,,,,,white,I
0.0,6.0,1.0,1.0,6.0,0.0,0.0,5.0,1.0,phase_2,stop,550.0,550.0,4.0,,,,,,,,,cyan,hexagon
0.0,3.0,2.0,0.0,6.0,6.0,668.0150181055069,5.0,1.0,phase_2,go,550.0,600.0,1.0,,,,,,,,,magenta,circle
0.0,5.0,0.5,1.0,6.0,0.0,0.0,5.0,1.0,phase_2,stop,550.0,600.0,4.0,,,,,,,,,green,triangle
0.0,8.0,4.0,1.0,6.0,6.0,720.3948739916086,5.0,1.0,phase_2,stop,550.0,650.0,3.0,,,,,,,,,yellow,diamond
0.0,7.0,2.0,1.0,6.0,0.0,0.0,5.0,1.0,phase_2,stop,550.0,600.0,4.0,,,,,,,,,blue,square
0.0,2.0,1.0,0.0,6.0,6.0,854.3075975030661,5.0,1.0,phase_2,go,550.0,650.0,1.0,,,,,,,,,white,I
0.0,1.0,0.5,0.0,5.0,5.0,736.3784164190292,5.0,1.0,phase_2,go,550.0,650.0,1.0,,,,,,,,,gray,flipped triangle
0.0,3.0,2.0,0.0,6.0,6.0,677.4710956960917,5.0,1.0,phase_2,go,550.0,650.0,1.0,,,,,,,,,magenta,circle
0.0,5.0,0.5,1.0,6.0,6.0,765.3937060385942,5.0,1.0,phase_2,go,550.0,650.0,1.0,,,,,,,,,green,triangle
0.0,4.0,4.0,0.0,5.0,5.0,519.9696775525808,5.0,1.0,phase_2,go,550.0,650.0,1.0,,,,,,,,,orange,cross
0.0,4.0,4.0,0.0,5.0,5.0,492.0602645725012,5.0,1.0,phase_2,go,550.0,650.0,1.0,,,,,,,,,orange,cross
0.0,5.0,0.5,1.0,5.0,5.0,654.2028523981571,5.0,1.0,phase_2,stop,550.0,650.0,3.0,,,,,,,,,green,triangle
0.0,8.0,4.0,1.0,5.0,0.0,0.0,5.0,1.0,phase_2,stop,500.0,650.0,4.0,,,,,,,,,yellow,diamond
0.0,7.0,2.0,1.0,5.0,0.0,0.0,5.0,1.0,phase_2,stop,550.0,650.0,4.0,,,,,,,,,blue,square
0.0,1.0,0.5,0.0,6.0,6.0,866.0076465457678,5.0,1.0,phase_2,go,600.0,650.0,1.0,,,,,,,,,gray,flipped triangle
0.0,5.0,0.5,1.0,6.0,6.0,780.9490412473679,5.0,1.0,phase_2,stop,600.0,650.0,3.0,,,,,,,,,green,triangle
0.0,7.0,2.0,1.0,6.0,0.0,0.0,5.0,1.0,phase_2,stop,600.0,600.0,4.0,,,,,,,,,blue,square
0.0,2.0,1.0,0.0,5.0,5.0,787.3845100402832,5.0,1.0,phase_2,go,600.0,650.0,1.0,,,,,,,,,white,I
0.0,3.0,2.0,0.0,5.0,5.0,971.2102934718132,5.0,1.0,phase_2,go,600.0,650.0,1.0,,,,,,,,,magenta,circle
0.0,2.0,1.0,0.0,5.0,5.0,672.7079935371876,5.0,1.0,phase_2,go,600.0,650.0,1.0,,,,,,,,,white,I
0.0,1.0,0.5,0.0,5.0,5.0,631.9270525127649,5.0,1.0,phase_2,go,600.0,650.0,1.0,,,,,,,,,gray,flipped triangle
0.0,4.0,4.0,0.0,6.0,6.0,781.6059589385986,5.0,1.0,phase_2,go,600.0,650.0,1.0,,,,,,,,,orange,cross
0.0,4.0,4.0,0.0,5.0,5.0,632.7389348298311,5.0,1.0,phase_2,go,600.0,650.0,1.0,,,,,,,,,orange,cross
0.0,8.0,4.0,1.0,5.0,5.0,512.2616477310658,5.0,1.0,phase_2,stop,600.0,650.0,3.0,,,,,,,,,yellow,diamond
0.0,2.0,1.0,0.0,6.0,6.0,569.5852935314178,6.0,1.0,phase_2,go,550.0,650.0,1.0,,,,,,,,,white,I
0.0,3.0,2.0,0.0,5.0,5.0,566.0627521574497,6.0,1.0,phase_2,go,550.0,650.0,1.0,,,,,,,,,magenta,circle
0.0,3.0,2.0,0.0,5.0,5.0,525.3039430826902,6.0,1.0,phase_2,go,550.0,650.0,1.0,,,,,,,,,magenta,circle
0.0,4.0,4.0,0.0,5.0,5.0,469.0454918891191,6.0,1.0,phase_2,go,550.0,650.0,1.0,,,,,,,,,orange,cross
0.0,5.0,0.5,1.0,6.0,6.0,357.5535584241152,6.0,1.0,phase_2,stop,550.0,650.0,3.0,,,,,,,,,green,triangle
0.0,7.0,2.0,1.0,6.0,6.0,678.7824854254723,6.0,1.0,phase_2,stop,550.0,600.0,3.0,,,,,,,,,blue,square
0.0,6.0,1.0,1.0,5.0,5.0,653.545530512929,6.0,1.0,phase_2,stop,550.0,550.0,3.0,,,,,,,,,cyan,hexagon
0.0,7.0,2.0,1.0,6.0,6.0,739.2428368330002,6.0,1.0,phase_2,go,500.0,550.0,1.0,,,,,,,,,blue,square
0.0,2.0,1.0,0.0,6.0,6.0,741.2896249443293,6.0,1.0,phase_2,go,500.0,550.0,1.0,,,,,,,,,white,I
0.0,8.0,4.0,1.0,5.0,0.0,0.0,6.0,1.0,phase_2,stop,500.0,550.0,4.0,,,,,,,,,yellow,diamond
0.0,1.0,0.5,0.0,6.0,6.0,640.8713757991791,6.0,1.0,phase_2,go,550.0,550.0,1.0,,,,,,,,,gray,flipped triangle
0.0,5.0,0.5,1.0,5.0,5.0,684.5414992421865,6.0,1.0,phase_2,go,550.0,550.0,1.0,,,,,,,,,green,triangle
0.0,8.0,4.0,1.0,5.0,5.0,747.059840708971,6.0,1.0,phase_2,go,550.0,550.0,1.0,,,,,,,,,yellow,diamond
0.0,1.0,0.5,0.0,5.0,5.0,688.1177593022585,6.0,1.0,phase_2,go,550.0,550.0,1.0,,,,,,,,,gray,flipped triangle
0.0,4.0,4.0,0.0,6.0,6.0,607.5393557548523,6.0,1.0,phase_2,go,550.0,550.0,1.0,,,,,,,,,orange,cross
0.0,8.0,4.0,1.0,6.0,6.0,536.3498795777559,6.0,1.0,phase_2,stop,550.0,550.0,3.0,,,,,,,,,yellow,diamond
0.0,2.0,1.0,0.0,6.0,6.0,568.3264080435038,6.0,1.0,phase_2,go,550.0,500.0,1.0,,,,,,,,,white,I
0.0,1.0,0.5,0.0,5.0,5.0,614.3655627965927,6.0,1.0,phase_2,go,550.0,500.0,1.0,,,,,,,,,gray,flipped triangle
0.0,6.0,1.0,1.0,5.0,5.0,637.0029468089342,6.0,1.0,phase_2,stop,550.0,500.0,3.0,,,,,,,,,cyan,hexagon
0.0,8.0,4.0,1.0,5.0,5.0,676.1590335518122,6.0,1.0,phase_2,go,500.0,500.0,1.0,,,,,,,,,yellow,diamond
0.0,5.0,0.5,1.0,5.0,0.0,0.0,6.0,1.0,phase_2,stop,500.0,500.0,4.0,,,,,,,,,green,triangle
0.0,6.0,1.0,1.0,5.0,0.0,0.0,6.0,1.0,phase_2,stop,550.0,500.0,4.0,,,,,,,,,cyan,hexagon
0.0,7.0,2.0,1.0,5.0,5.0,617.7157387137413,6.0,1.0,phase_2,stop,600.0,500.0,3.0,,,,,,,,,blue,square
0.0,4.0,4.0,0.0,5.0,5.0,763.4742073714733,6.0,1.0,phase_2,go,550.0,500.0,1.0,,,,,,,,,orange,cross
0.0,2.0,1.0,0.0,5.0,5.0,788.5665688663721,6.0,1.0,phase_2,go,550.0,500.0,1.0,,,,,,,,,white,I
0.0,4.0,4.0,0.0,6.0,6.0,712.7909883856773,6.0,1.0,phase_2,go,550.0,500.0,1.0,,,,,,,,,orange,cross
0.0,7.0,2.0,1.0,5.0,5.0,600.6135195493698,6.0,1.0,phase_2,stop,550.0,500.0,3.0,,,,,,,,,blue,square
0.0,5.0,0.5,1.0,6.0,0.0,0.0,6.0,1.0,phase_2,stop,500.0,500.0,4.0,,,,,,,,,green,triangle
0.0,6.0,1.0,1.0,5.0,5.0,802.6002272963524,6.0,1.0,phase_2,go,500.0,550.0,1.0,,,,,,,,,cyan,hexagon
0.0,5.0,0.5,1.0,5.0,5.0,847.7671947330236,6.0,1.0,phase_2,go,500.0,550.0,1.0,,,,,,,,,green,triangle
0.0,1.0,0.5,0.0,5.0,5.0,928.1859993934632,6.0,1.0,phase_2,go,500.0,550.0,1.0,,,,,,,,,gray,flipped triangle
0.0,2.0,1.0,0.0,5.0,5.0,849.1043671965599,6.0,1.0,phase_2,go,500.0,550.0,1.0,,,,,,,,,white,I
0.0,7.0,2.0,1.0,5.0,0.0,0.0,6.0,1.0,phase_2,stop,500.0,550.0,4.0,,,,,,,,,blue,square
0.0,6.0,1.0,1.0,6.0,6.0,693.97197291255,6.0,1.0,phase_2,go,550.0,550.0,1.0,,,,,,,,,cyan,hexagon
0.0,4.0,4.0,0.0,6.0,6.0,1107.8655943274498,6.0,1.0,phase_2,go,550.0,550.0,1.0,,,,,,,,,orange,cross
0.0,5.0,0.5,1.0,5.0,0.0,0.0,6.0,1.0,phase_2,stop,550.0,550.0,4.0,,,,,,,,,green,triangle
0.0,1.0,0.5,0.0,6.0,6.0,440.1321318000555,7.0,1.0,phase_2,go,600.0,550.0,1.0,,,,,,,,,gray,flipped triangle
0.0,8.0,4.0,1.0,6.0,6.0,511.38007268309593,7.0,1.0,phase_2,go,600.0,550.0,1.0,,,,,,,,,yellow,diamond
0.0,8.0,4.0,1.0,6.0,6.0,527.6759956032038,7.0,1.0,phase_2,stop,600.0,550.0,3.0,,,,,,,,,yellow,diamond
0.0,5.0,0.5,1.0,6.0,6.0,600.0913958996534,7.0,1.0,phase_2,go,600.0,500.0,1.0,,,,,,,,,green,triangle
0.0,6.0,1.0,1.0,5.0,5.0,439.4601881504059,7.0,1.0,phase_2,stop,600.0,500.0,3.0,,,,,,,,,cyan,hexagon
0.0,1.0,0.5,0.0,5.0,5.0,717.0293871313334,7.0,1.0,phase_2,go,550.0,500.0,1.0,,,,,,,,,gray,flipped triangle
0.0,8.0,4.0,1.0,6.0,0.0,0.0,7.0,1.0,phase_2,stop,550.0,500.0,4.0,,,,,,,,,yellow,diamond
0.0,5.0,0.5,1.0,6.0,6.0,708.8348176330328,7.0,1.0,phase_2,stop,550.0,550.0,3.0,,,,,,,,,green,triangle
0.0,4.0,4.0,0.0,5.0,5.0,692.5565488636494,7.0,1.0,phase_2,go,550.0,500.0,1.0,,,,,,,,,orange,cross
0.0,6.0,1.0,1.0,6.0,6.0,700.8125148713589,7.0,1.0,phase_2,go,550.0,500.0,1.0,,,,,,,,,cyan,hexagon
0.0,6.0,1.0,1.0,6.0,6.0,780.1726944744587,7.0,1.0,phase_2,go,550.0,500.0,1.0,,,,,,,,,cyan,hexagon
0.0,7.0,2.0,1.0,6.0,6.0,653.144009411335,7.0,1.0,phase_2,go,550.0,500.0,1.0,,,,,,,,,blue,square
0.0,5.0,0.5,1.0,5.0,5.0,701.4900129288435,7.0,1.0,phase_2,stop,550.0,500.0,3.0,,,,,,,,,green,triangle
0.0,8.0,4.0,1.0,6.0,6.0,561.3363198935986,7.0,1.0,phase_2,stop,500.0,500.0,3.0,,,,,,,,,yellow,diamond
0.0,2.0,1.0,0.0,6.0,6.0,724.3533805012703,7.0,1.0,phase_2,go,500.0,450.0,1.0,,,,,,,,,white,I
0.0,7.0,2.0,1.0,6.0,6.0,751.9235834479332,7.0,1.0,phase_2,go,500.0,450.0,1.0,,,,,,,,,blue,square
0.0,5.0,0.5,1.0,5.0,5.0,528.3003356307745,7.0,1.0,phase_2,stop,500.0,450.0,3.0,,,,,,,,,green,triangle
0.0,8.0,4.0,1.0,6.0,6.0,602.7147807180882,7.0,1.0,phase_2,go,450.0,450.0,1.0,,,,,,,,,yellow,diamond
0.0,4.0,4.0,0.0,5.0,5.0,770.4949956387281,7.0,1.0,phase_2,go,450.0,450.0,1.0,,,,,,,,,orange,cross
0.0,7.0,2.0,1.0,6.0,0.0,0.0,7.0,1.0,phase_2,stop,450.0,450.0,4.0,,,,,,,,,blue,square
0.0,4.0,4.0,0.0,5.0,5.0,836.7140106856823,7.0,1.0,phase_2,go,450.0,500.0,1.0,,,,,,,,,orange,cross
0.0,4.0,4.0,0.0,6.0,6.0,591.8215196579695,7.0,1.0,phase_2,go,450.0,500.0,1.0,,,,,,,,,orange,cross
0.0,7.0,2.0,1.0,6.0,6.0,763.9105245471001,7.0,1.0,phase_2,go,450.0,500.0,1.0,,,,,,,,,blue,square
0.0,1.0,0.5,0.0,6.0,6.0,451.777258887887,7.0,1.0,phase_2,go,450.0,500.0,1.0,,,,,,,,,gray,flipped triangle
0.0,6.0,1.0,1.0,6.0,6.0,574.524849653244,7.0,1.0,phase_2,stop,450.0,500.0,3.0,,,,,,,,,cyan,hexagon
0.0,4.0,4.0,0.0,6.0,6.0,589.1229305416346,7.0,1.0,phase_2,go,450.0,450.0,1.0,,,,,,,,,orange,cross
0.0,4.0,4.0,0.0,5.0,5.0,666.792269796133,7.0,1.0,phase_2,go,450.0,450.0,1.0,,,,,,,,,orange,cross
0.0,5.0,0.5,1.0,6.0,0.0,0.0,7.0,1.0,phase_2,stop,450.0,450.0,4.0,,,,,,,,,green,triangle
0.0,8.0,4.0,1.0,6.0,6.0,708.6810115724802,7.0,1.0,phase_2,go,450.0,500.0,1.0,,,,,,,,,yellow,diamond
0.0,2.0,1.0,0.0,6.0,6.0,609.87089574337,7.0,1.0,phase_2,go,450.0,500.0,1.0,,,,,,,,,white,I
0.0,2.0,1.0,0.0,6.0,6.0,384.8197404295206,7.0,1.0,phase_2,go,450.0,500.0,1.0,,,,,,,,,white,I
0.0,5.0,0.5,1.0,6.0,6.0,650.6362594664097,7.0,1.0,phase_2,stop,450.0,500.0,3.0,,,,,,,,,green,triangle
0.0,6.0,1.0,1.0,5.0,0.0,0.0,7.0,1.0,phase_2,stop,450.0,450.0,4.0,,,,,,,,,cyan,hexagon
0.0,2.0,1.0,0.0,5.0,5.0,741.9414799660444,7.0,1.0,phase_2,go,500.0,450.0,1.0,,,,,,,,,white,I
0.0,8.0,4.0,1.0,6.0,0.0,0.0,7.0,1.0,phase_2,stop,500.0,450.0,4.0,,,,,,,,,yellow,diamond
0.0,8.0,4.0,1.0,6.0,0.0,0.0,7.0,1.0,phase_2,stop,500.0,500.0,4.0,,,,,,,,,yellow,diamond
0.0,7.0,2.0,1.0,5.0,1.0,1072.6219173520803,8.0,1.0,phase_2,stop,500.0,550.0,3.0,,,,,,,,,blue,square
0.0,2.0,1.0,0.0,5.0,5.0,680.1523882895708,8.0,1.0,phase_2,go,450.0,550.0,1.0,,,,,,,,,white,I
0.0,6.0,1.0,1.0,5.0,0.0,0.0,8.0,1.0,phase_2,stop,450.0,550.0,4.0,,,,,,,,,cyan,hexagon
0.0,3.0,2.0,0.0,6.0,6.0,791.857311502099,8.0,1.0,phase_2,go,500.0,550.0,1.0,,,,,,,,,magenta,circle
0.0,6.0,1.0,1.0,6.0,6.0,669.3046130239964,8.0,1.0,phase_2,go,500.0,550.0,1.0,,,,,,,,,cyan,hexagon
0.0,7.0,2.0,1.0,5.0,0.0,0.0,8.0,1.0,phase_2,stop,500.0,550.0,4.0,,,,,,,,,blue,square
0.0,2.0,1.0,0.0,6.0,6.0,756.5652765333652,8.0,1.0,phase_2,go,550.0,550.0,1.0,,,,,,,,,white,I
0.0,2.0,1.0,0.0,5.0,5.0,778.5726431757212,8.0,1.0,phase_2,go,550.0,550.0,1.0,,,,,,,,,white,I
0.0,8.0,4.0,1.0,5.0,0.0,0.0,8.0,1.0,phase_2,stop,550.0,550.0,4.0,,,,,,,,,yellow,diamond
0.0,8.0,4.0,1.0,5.0,0.0,0.0,8.0,1.0,phase_2,stop,600.0,550.0,4.0,,,,,,,,,yellow,diamond
0.0,8.0,4.0,1.0,6.0,6.0,675.2440556883812,8.0,1.0,phase_2,stop,650.0,550.0,3.0,,,,,,,,,yellow,diamond
0.0,2.0,1.0,0.0,5.0,5.0,873.5858164727688,8.0,1.0,phase_2,go,650.0,500.0,1.0,,,,,,,,,white,I
0.0,5.0,0.5,1.0,5.0,5.0,831.6098544746637,8.0,1.0,phase_2,go,650.0,500.0,1.0,,,,,,,,,green,triangle
0.0,3.0,2.0,0.0,6.0,6.0,785.7273556292057,8.0,1.0,phase_2,go,650.0,500.0,1.0,,,,,,,,,magenta,circle
0.0,2.0,1.0,0.0,5.0,5.0,697.1989963203669,8.0,1.0,phase_2,go,650.0,500.0,1.0,,,,,,,,,white,I
0.0,5.0,0.5,1.0,5.0,5.0,599.5128192007542,8.0,1.0,phase_2,stop,650.0,500.0,3.0,,,,,,,,,green,triangle
0.0,4.0,4.0,0.0,5.0,5.0,638.8451252132654,8.0,1.0,phase_2,go,600.0,500.0,1.0,,,,,,,,,orange,cross
0.0,6.0,1.0,1.0,5.0,0.0,0.0,8.0,1.0,phase_2,stop,600.0,500.0,4.0,,,,,,,,,cyan,hexagon
0.0,5.0,0.5,1.0,6.0,0.0,0.0,8.0,1.0,phase_2,stop,650.0,500.0,4.0,,,,,,,,,green,triangle
0.0,3.0,2.0,0.0,6.0,6.0,620.4971428960562,8.0,1.0,phase_2,go,650.0,550.0,1.0,,,,,,,,,magenta,circle
0.0,3.0,2.0,0.0,5.0,5.0,676.5029300004244,8.0,1.0,phase_2,go,650.0,550.0,1.0,,,,,,,,,magenta,circle
0.0,1.0,0.5,0.0,6.0,6.0,613.1933853030205,8.0,1.0,phase_2,go,650.0,550.0,1.0,,,,,,,,,gray,flipped triangle
0.0,5.0,0.5,1.0,5.0,5.0,618.7730245292187,8.0,1.0,phase_2,stop,650.0,550.0,3.0,,,,,,,,,green,triangle
0.0,3.0,2.0,0.0,6.0,6.0,469.2594204097986,8.0,1.0,phase_2,go,600.0,550.0,1.0,,,,,,,,,magenta,circle
0.0,4.0,4.0,0.0,5.0,5.0,762.9891447722912,8.0,1.0,phase_2,go,600.0,550.0,1.0,,,,,,,,,orange,cross
0.0,8.0,4.0,1.0,5.0,5.0,671.7936377972364,8.0,1.0,phase_2,go,600.0,550.0,1.0,,,,,,,,,yellow,diamond
0.0,4.0,4.0,0.0,6.0,6.0,681.3716925680637,8.0,1.0,phase_2,go,600.0,550.0,1.0,,,,,,,,,orange,cross
0.0,1.0,0.5,0.0,6.0,6.0,518.9180243760347,8.0,1.0,phase_2,go,600.0,550.0,1.0,,,,,,,,,gray,flipped triangle
0.0,2.0,1.0,0.0,5.0,5.0,550.9739201515913,8.0,1.0,phase_2,go,600.0,550.0,1.0,,,,,,,,,white,I
0.0,3.0,2.0,0.0,5.0,5.0,559.0346399694681,8.0,1.0,phase_2,go,600.0,550.0,1.0,,,,,,,,,magenta,circle
0.0,7.0,2.0,1.0,6.0,6.0,620.7073424011469,8.0,1.0,phase_2,stop,600.0,550.0,3.0,,,,,,,,,blue,square
0.0,5.0,0.5,1.0,5.0,5.0,733.4379479289055,8.0,1.0,phase_2,stop,600.0,500.0,3.0,,,,,,,,,green,triangle
0.0,8.0,4.0,1.0,6.0,6.0,572.7635603398085,8.0,1.0,phase_2,stop,550.0,500.0,3.0,,,,,,,,,yellow,diamond
0.0,3.0,2.0,0.0,6.0,6.0,759.1370139271021,8.0,1.0,phase_2,go,550.0,450.0,1.0,,,,,,,,,magenta,circle
0.0,7.0,2.0,1.0,6.0,0.0,0.0,8.0,1.0,phase_2,stop,550.0,450.0,4.0,,,,,,,,,blue,square
0.0,7.0,2.0,1.0,5.0,0.0,0.0,8.0,1.0,phase_2,stop,550.0,500.0,4.0,,,,,,,,,blue,square
0.0,4.0,4.0,0.0,7.0,5.0,1624.708630144596,1.0,2.0,phase_3,,,,,195.0,5.0,156.0,39.0,234.0,117.0,195.0,78.0,orange,cross
0.0,6.0,1.0,1.0,7.0,1.0,835.4988228529692,1.0,1.0,phase_3,,,,,245.0,5.0,245.0,196.0,49.0,98.0,147.0,294.0,cyan,hexagon
0.0,5.0,0.5,1.0,7.0,2.0,1253.9563402533531,1.0,1.0,phase_3,,,,,102.0,3.0,204.0,102.0,170.0,68.0,34.0,136.0,green,triangle
0.0,2.0,1.0,0.0,7.0,6.0,1231.033643707633,1.0,1.0,phase_3,,,,,176.0,4.0,88.0,220.0,132.0,264.0,44.0,176.0,white,I
0.0,8.0,4.0,1.0,7.0,3.0,1759.9659599363804,1.0,1.0,phase_3,,,,,264.0,6.0,44.0,132.0,264.0,220.0,88.0,176.0,yellow,diamond
0.0,3.0,2.0,0.0,7.0,2.0,1538.3560713380575,1.0,1.0,phase_3,,,,,196.0,4.0,245.0,196.0,98.0,147.0,49.0,294.0,magenta,circle
0.0,7.0,2.0,1.0,7.0,1.0,1452.5145273655653,1.0,1.0,phase_3,,,,,270.0,5.0,270.0,162.0,108.0,324.0,216.0,54.0,blue,square
0.0,8.0,4.0,1.0,7.0,3.0,1963.6227767914531,1.0,1.0,phase_3,,,,,204.0,6.0,68.0,136.0,204.0,102.0,170.0,34.0,yellow,diamond
0.0,7.0,2.0,1.0,7.0,6.0,994.4925680756568,1.0,1.0,phase_3,,,,,234.0,6.0,156.0,195.0,117.0,39.0,78.0,234.0,blue,square
0.0,5.0,0.5,1.0,7.0,2.0,988.5957930237056,1.0,1.0,phase_3,,,,,156.0,4.0,39.0,156.0,234.0,78.0,117.0,195.0,green,triangle
0.0,2.0,1.0,0.0,7.0,5.0,1293.2033203542233,1.0,1.0,phase_3,,,,,49.0,1.0,196.0,147.0,98.0,245.0,49.0,294.0,white,I
0.0,4.0,4.0,0.0,7.0,2.0,1839.3029142171144,1.0,1.0,phase_3,,,,,132.0,3.0,44.0,132.0,88.0,220.0,264.0,176.0,orange,cross
0.0,6.0,1.0,1.0,7.0,4.0,1419.7996705770493,1.0,1.0,phase_3,,,,,216.0,4.0,54.0,270.0,324.0,216.0,162.0,108.0,cyan,hexagon
0.0,4.0,4.0,0.0,7.0,6.0,1596.7772472649813,1.0,1.0,phase_3,,,,,245.0,5.0,147.0,49.0,196.0,294.0,98.0,245.0,orange,cross
0.0,5.0,0.5,1.0,7.0,1.0,1378.6226399242878,1.0,1.0,phase_3,,,,,162.0,3.0,162.0,324.0,54.0,216.0,270.0,108.0,green,triangle
0.0,5.0,0.5,1.0,7.0,6.0,1133.2400888204577,1.0,1.0,phase_3,,,,,108.0,2.0,270.0,162.0,216.0,54.0,324.0,108.0,green,triangle
0.0,5.0,0.5,1.0,7.0,1.0,1065.6435675919056,1.0,1.0,phase_3,,,,,220.0,5.0,220.0,176.0,44.0,264.0,132.0,88.0,green,triangle
0.0,8.0,4.0,1.0,7.0,2.0,865.9436926245689,1.0,1.0,phase_3,,,,,98.0,2.0,196.0,98.0,49.0,294.0,245.0,147.0,yellow,diamond
0.0,3.0,2.0,0.0,7.0,6.0,1972.273053601384,1.0,1.0,phase_3,,,,,234.0,6.0,39.0,78.0,156.0,117.0,195.0,234.0,magenta,circle
0.0,4.0,4.0,0.0,7.0,3.0,1484.37887057662,1.0,1.0,phase_3,,,,,324.0,6.0,216.0,162.0,324.0,270.0,54.0,108.0,orange,cross
0.0,4.0,4.0,0.0,7.0,5.0,1084.8210230469704,2.0,1.0,phase_3,,,,,324.0,6.0,54.0,270.0,162.0,216.0,324.0,108.0,orange,cross
0.0,7.0,2.0,1.0,7.0,4.0,1483.1460490822792,2.0,1.0,phase_3,,,,,147.0,3.0,49.0,196.0,245.0,147.0,294.0,98.0,blue,square
0.0,1.0,0.5,0.0,7.0,3.0,1236.087691038847,2.0,1.0,phase_3,,,,,54.0,1.0,324.0,162.0,54.0,270.0,216.0,108.0,gray,flipped triangle
0.0,1.0,0.5,0.0,7.0,1.0,1624.7340589761734,2.0,1.0,phase_3,,,,,98.0,2.0,98.0,147.0,245.0,49.0,294.0,196.0,gray,flipped triangle
0.0,1.0,0.5,0.0,7.0,2.0,1286.9465444236994,2.0,1.0,phase_3,,,,,44.0,1.0,88.0,44.0,132.0,220.0,264.0,176.0,gray,flipped triangle
0.0,6.0,1.0,1.0,7.0,3.0,1476.4401968568563,2.0,1.0,phase_3,,,,,216.0,4.0,324.0,54.0,216.0,108.0,270.0,162.0,cyan,hexagon
0.0,7.0,2.0,1.0,7.0,5.0,1089.651383459568,2.0,1.0,phase_3,,,,,68.0,2.0,170.0,102.0,34.0,136.0,68.0,204.0,blue,square
0.0,4.0,4.0,0.0,7.0,1.0,1309.8946865648031,2.0,1.0,phase_3,,,,,204.0,6.0,204.0,136.0,102.0,170.0,68.0,34.0,orange,cross
0.0,8.0,4.0,1.0,7.0,2.0,941.178847104311,2.0,1.0,phase_3,,,,,245.0,5.0,294.0,245.0,196.0,49.0,147.0,98.0,yellow,diamond
0.0,5.0,0.5,1.0,7.0,6.0,871.4582975953817,2.0,1.0,phase_3,,,,,136.0,4.0,204.0,170.0,34.0,68.0,102.0,136.0,green,triangle
0.0,5.0,0.5,1.0,7.0,6.0,1962.3091220855715,2.0,1.0,phase_3,,,,,147.0,3.0,98.0,245.0,294.0,196.0,49.0,147.0,green,triangle
0.0,5.0,0.5,1.0,7.0,2.0,858.515053987503,2.0,1.0,phase_3,,,,,196.0,4.0,294.0,196.0,49.0,98.0,245.0,147.0,green,triangle
0.0,2.0,1.0,0.0,7.0,5.0,1460.9772097319365,2.0,1.0,phase_3,,,,,270.0,5.0,108.0,216.0,324.0,162.0,270.0,54.0,white,I
0.0,7.0,2.0,1.0,7.0,2.0,1323.6382193863392,2.0,1.0,phase_3,,,,,176.0,4.0,88.0,176.0,132.0,264.0,44.0,220.0,blue,square
0.0,4.0,4.0,0.0,7.0,4.0,1085.843252018094,2.0,1.0,phase_3,,,,,245.0,5.0,49.0,98.0,147.0,245.0,196.0,294.0,orange,cross
0.0,8.0,4.0,1.0,7.0,2.0,1217.068700119853,2.0,1.0,phase_3,,,,,234.0,6.0,195.0,234.0,117.0,156.0,39.0,78.0,yellow,diamond
0.0,1.0,0.5,0.0,7.0,2.0,1007.2668194770813,2.0,1.0,phase_3,,,,,234.0,6.0,117.0,234.0,39.0,78.0,156.0,195.0,gray,flipped triangle
0.0,8.0,4.0,1.0,7.0,4.0,1466.8491017073393,2.0,1.0,phase_3,,,,,204.0,6.0,136.0,170.0,102.0,204.0,34.0,68.0,yellow,diamond
0.0,1.0,0.5,0.0,7.0,2.0,1275.379791855812,2.0,1.0,phase_3,,,,,102.0,3.0,204.0,102.0,34.0,68.0,170.0,136.0,gray,flipped triangle
0.0,2.0,1.0,0.0,7.0,1.0,1470.796691253781,2.0,1.0,phase_3,,,,,39.0,1.0,39.0,195.0,234.0,78.0,117.0,156.0,white,I
0.0,6.0,1.0,1.0,7.0,1.0,1032.6421726495028,3.0,1.0,phase_3,,,,,102.0,3.0,102.0,34.0,68.0,204.0,170.0,136.0,cyan,hexagon
0.0,8.0,4.0,1.0,7.0,5.0,1479.848086833954,3.0,1.0,phase_3,,,,,270.0,5.0,162.0,108.0,54.0,216.0,270.0,324.0,yellow,diamond
0.0,7.0,2.0,1.0,7.0,4.0,1468.5182999819515,3.0,1.0,phase_3,,,,,220.0,5.0,88.0,44.0,176.0,220.0,132.0,264.0,blue,square
0.0,2.0,1.0,0.0,7.0,3.0,1242.6787819713354,3.0,1.0,phase_3,,,,,196.0,4.0,147.0,98.0,196.0,294.0,49.0,245.0,white,I
0.0,3.0,2.0,0.0,7.0,4.0,1316.0666916519403,3.0,1.0,phase_3,,,,,34.0,1.0,204.0,136.0,170.0,34.0,102.0,68.0,magenta,circle
0.0,3.0,2.0,0.0,7.0,1.0,1807.2502333670852,3.0,1.0,phase_3,,,,,98.0,2.0,98.0,147.0,196.0,294.0,245.0,49.0,magenta,circle
0.0,1.0,0.5,0.0,7.0,2.0,1559.4585426151752,3.0,1.0,phase_3,,,,,49.0,1.0,294.0,49.0,196.0,245.0,147.0,98.0,gray,flipped triangle
0.0,3.0,2.0,0.0,7.0,3.0,1563.3617118000984,3.0,1.0,phase_3,,,,,195.0,5.0,39.0,78.0,195.0,234.0,117.0,156.0,magenta,circle
0.0,2.0,1.0,0.0,7.0,1.0,892.7721083164215,3.0,1.0,phase_3,,,,,68.0,2.0,68.0,170.0,136.0,34.0,204.0,102.0,white,I
0.0,8.0,4.0,1.0,7.0,6.0,1381.1790607869625,3.0,1.0,phase_3,,,,,234.0,6.0,39.0,195.0,78.0,156.0,117.0,234.0,yellow,diamond
0.0,8.0,4.0,1.0,7.0,3.0,1167.284270748496,3.0,1.0,phase_3,,,,,176.0,4.0,44.0,264.0,176.0,220.0,88.0,132.0,yellow,diamond
0.0,3.0,2.0,0.0,7.0,6.0,2134.2891436070204,3.0,1.0,phase_3,,,,,132.0,3.0,176.0,220.0,44.0,88.0,264.0,132.0,magenta,circle
0.0,2.0,1.0,0.0,7.0,3.0,1849.5904598385096,3.0,1.0,phase_3,,,,,44.0,1.0,176.0,264.0,44.0,132.0,88.0,220.0,white,I
0.0,5.0,0.5,1.0,7.0,1.0,1356.07635602355,3.0,1.0,phase_3,,,,,195.0,5.0,195.0,39.0,78.0,117.0,156.0,234.0,green,triangle
0.0,1.0,0.5,0.0,7.0,1.0,2123.993104323745,3.0,1.0,phase_3,,,,,88.0,2.0,88.0,264.0,132.0,176.0,44.0,220.0,gray,flipped triangle
0.0,1.0,0.5,0.0,7.0,6.0,891.1388292908669,3.0,1.0,phase_3,,,,,54.0,1.0,324.0,270.0,162.0,216.0,108.0,54.0,gray,flipped triangle
0.0,3.0,2.0,0.0,7.0,5.0,1236.605303362012,3.0,1.0,phase_3,,,,,162.0,3.0,270.0,324.0,54.0,108.0,162.0,216.0,magenta,circle
0.0,6.0,1.0,1.0,7.0,2.0,941.8860245496036,3.0,1.0,phase_3,,,,,245.0,5.0,98.0,245.0,49.0,294.0,147.0,196.0,cyan,hexagon
0.0,7.0,2.0,1.0,7.0,4.0,1359.8871435970068,3.0,1.0,phase_3,,,,,170.0,5.0,136.0,102.0,204.0,170.0,34.0,68.0,blue,square
0.0,6.0,1.0,1.0,7.0,2.0,914.741400629282,3.0,1.0,phase_3,,,,,176.0,4.0,44.0,176.0,220.0,264.0,88.0,132.0,cyan,hexagon
0.0,8.0,4.0,1.0,7.0,4.0,826.8700260668993,4.0,1.0,phase_3,,,,,270.0,5.0,162.0,216.0,324.0,270.0,108.0,54.0,yellow,diamond
0.0,1.0,0.5,0.0,7.0,6.0,1100.3054305911064,4.0,1.0,phase_3,,,,,156.0,4.0,117.0,39.0,234.0,78.0,195.0,156.0,gray,flipped triangle
0.0,2.0,1.0,0.0,7.0,2.0,754.9022287130356,4.0,1.0,phase_3,,,,,78.0,2.0,117.0,78.0,39.0,234.0,195.0,156.0,white,I
0.0,4.0,4.0,0.0,7.0,3.0,1109.0123318135738,4.0,1.0,phase_3,,,,,204.0,6.0,136.0,68.0,204.0,102.0,170.0,34.0,orange,cross
0.0,3.0,2.0,0.0,7.0,6.0,822.4107455462217,4.0,1.0,phase_3,,,,,176.0,4.0,220.0,88.0,132.0,264.0,44.0,176.0,magenta,circle
0.0,5.0,0.5,1.0,7.0,1.0,991.9062852859496,4.0,1.0,phase_3,,,,,132.0,3.0,132.0,264.0,44.0,88.0,220.0,176.0,green,triangle
0.0,6.0,1.0,1.0,7.0,3.0,937.20768019557,4.0,1.0,phase_3,,,,,220.0,5.0,44.0,176.0,220.0,132.0,264.0,88.0,cyan,hexagon
0.0,3.0,2.0,0.0,7.0,2.0,883.5869412869215,4.0,1.0,phase_3,,,,,204.0,6.0,136.0,204.0,68.0,34.0,102.0,170.0,magenta,circle
0.0,4.0,4.0,0.0,7.0,5.0,1109.733046963811,4.0,1.0,phase_3,,,,,264.0,6.0,220.0,44.0,132.0,176.0,264.0,88.0,orange,cross
0.0,6.0,1.0,1.0,7.0,1.0,1413.1860565394163,4.0,1.0,phase_3,,,,,102.0,3.0,102.0,136.0,68.0,204.0,170.0,34.0,cyan,hexagon
0.0,7.0,2.0,1.0,7.0,6.0,1738.1796669214964,4.0,1.0,phase_3,,,,,196.0,4.0,98.0,294.0,245.0,49.0,147.0,196.0,blue,square
0.0,3.0,2.0,0.0,7.0,5.0,2487.8275841474533,4.0,1.0,phase_3,,,,,270.0,5.0,162.0,54.0,216.0,324.0,270.0,108.0,magenta,circle
0.0,7.0,2.0,1.0,7.0,1.0,1258.921941742301,4.0,1.0,phase_3,,,,,156.0,4.0,156.0,39.0,195.0,234.0,78.0,117.0,blue,square
0.0,1.0,0.5,0.0,7.0,5.0,1597.3001588135958,4.0,1.0,phase_3,,,,,68.0,2.0,170.0,102.0,204.0,136.0,68.0,34.0,gray,flipped triangle
0.0,2.0,1.0,0.0,7.0,5.0,1787.509372457862,4.0,1.0,phase_3,,,,,34.0,1.0,170.0,204.0,102.0,68.0,34.0,136.0,white,I
0.0,4.0,4.0,0.0,7.0,3.0,1094.3495761603117,4.0,1.0,phase_3,,,,,156.0,4.0,117.0,78.0,156.0,234.0,195.0,39.0,orange,cross
0.0,6.0,1.0,1.0,7.0,1.0,1074.12519864738,4.0,1.0,phase_3,,,,,156.0,4.0,156.0,195.0,234.0,117.0,39.0,78.0,cyan,hexagon
0.0,2.0,1.0,0.0,7.0,4.0,1123.58782812953,4.0,1.0,phase_3,,,,,54.0,1.0,324.0,216.0,108.0,54.0,270.0,162.0,white,I
0.0,6.0,1.0,1.0,7.0,2.0,1289.489632472396,4.0,1.0,phase_3,,,,,195.0,5.0,156.0,195.0,39.0,117.0,234.0,78.0,cyan,hexagon
0.0,7.0,2.0,1.0,7.0,5.0,1082.515241578221,4.0,1.0,phase_3,,,,,270.0,5.0,216.0,324.0,54.0,108.0,270.0,162.0,blue,square
