raw_reward_magnitude,stim_reward,stepwise_reward_magnitude,paired_with_stopping,stim_location,response,reaction_time,block,num_trial_presentations,which_phase,stop_signal_trial_type,left_SSD,right_SSD,accuracy,chosen_bidding_amount,chosen_bidding_level,possible_bid_1,possible_bid_2,possible_bid_3,possible_bid_4,possible_bid_5,possible_bid_6,color_text,shape_text
199.0,7.0,3.0,1.0,1.0,1.0,381.9496054202318,1.0,1.0,phase_1,,,,,,,,,,,,,green,hexagon
0.0,5.0,0.0,1.0,2.0,2.0,394.7537280619144,1.0,1.0,phase_1,,,,,,,,,,,,,white,circle
184.0,7.0,3.0,1.0,4.0,4.0,439.4153356552124,1.0,1.0,phase_1,,,,,,,,,,,,,green,hexagon
124.0,2.0,2.0,0.0,4.0,4.0,438.0163755267858,1.0,1.0,phase_1,,,,,,,,,,,,,orange,triangle
0.0,6.0,0.0,1.0,3.0,3.0,392.8549103438854,1.0,1.0,phase_1,,,,,,,,,,,,,magenta,I
400.0,8.0,4.0,1.0,4.0,4.0,445.2469758689403,1.0,1.0,phase_1,,,,,,,,,,,,,yellow,cross
0.0,3.0,0.0,0.0,4.0,4.0,467.3095196485519,1.0,1.0,phase_1,,,,,,,,,,,,,cyan,flipped triangle
30.0,5.0,1.0,1.0,2.0,2.0,390.1154529303312,1.0,1.0,phase_1,,,,,,,,,,,,,white,circle
408.0,8.0,4.0,1.0,2.0,2.0,333.7851371616125,1.0,1.0,phase_1,,,,,,,,,,,,,yellow,cross
118.0,2.0,2.0,0.0,2.0,2.0,440.2139876037836,1.0,1.0,phase_1,,,,,,,,,,,,,orange,triangle
223.0,3.0,3.0,0.0,3.0,3.0,452.3331131786108,1.0,1.0,phase_1,,,,,,,,,,,,,cyan,flipped triangle
0.0,1.0,0.0,0.0,1.0,1.0,434.6214476972818,1.0,1.0,phase_1,,,,,,,,,,,,,blue,diamond
0.0,7.0,0.0,1.0,1.0,1.0,422.4608670920133,1.0,1.0,phase_1,,,,,,,,,,,,,green,hexagon
182.0,7.0,3.0,1.0,4.0,4.0,397.5936081260443,1.0,1.0,phase_1,,,,,,,,,,,,,green,hexagon
0.0,3.0,0.0,0.0,1.0,1.0,417.1590320765972,1.0,1.0,phase_1,,,,,,,,,,,,,cyan,flipped triangle
197.0,7.0,3.0,1.0,4.0,4.0,423.7945601344108,1.0,1.0,phase_1,,,,,,,,,,,,,green,hexagon
177.0,7.0,3.0,1.0,3.0,3.0,395.4516444355249,1.0,1.0,phase_1,,,,,,,,,,,,,green,hexagon
0.0,7.0,0.0,1.0,2.0,2.0,351.9162759184837,1.0,1.0,phase_1,,,,,,,,,,,,,green,hexagon
26.0,5.0,1.0,1.0,1.0,1.0,362.4092601239681,1.0,1.0,phase_1,,,,,,,,,,,,,white,circle
93.0,6.0,2.0,1.0,1.0,1.0,431.5507709980011,1.0,1.0,phase_1,,,,,,,,,,,,,magenta,I
0.0,7.0,0.0,1.0,1.0,1.0,412.2843854129314,1.0,1.0,phase_1,,,,,,,,,,,,,green,hexagon
399.0,4.0,4.0,0.0,2.0,2.0,506.69953040778637,1.0,1.0,phase_1,,,,,,,,,,,,,gray,square
107.0,6.0,2.0,1.0,1.0,1.0,366.7405471205711,1.0,1.0,phase_1,,,,,,,,,,,,,magenta,I
183.0,3.0,3.0,0.0,1.0,1.0,355.5153589695692,1.0,1.0,phase_1,,,,,,,,,,,,,cyan,flipped triangle
0.0,5.0,0.0,1.0,2.0,2.0,382.5004603713751,1.0,1.0,phase_1,,,,,,,,,,,,,white,circle
400.0,4.0,4.0,0.0,1.0,1.0,342.5741828978061,1.0,1.0,phase_1,,,,,,,,,,,,,gray,square
52.0,1.0,1.0,0.0,4.0,4.0,538.3895207196474,1.0,1.0,phase_1,,,,,,,,,,,,,blue,diamond
0.0,2.0,0.0,0.0,2.0,2.0,372.2720649093389,1.0,1.0,phase_1,,,,,,,,,,,,,orange,triangle
0.0,3.0,0.0,0.0,4.0,4.0,468.9612463116646,1.0,1.0,phase_1,,,,,,,,,,,,,cyan,flipped triangle
0.0,6.0,0.0,1.0,4.0,4.0,425.4204854369163,1.0,1.0,phase_1,,,,,,,,,,,,,magenta,I
90.0,6.0,2.0,1.0,4.0,4.0,331.8471740931272,1.0,1.0,phase_1,,,,,,,,,,,,,magenta,I
28.0,5.0,1.0,1.0,2.0,2.0,390.7806817442179,1.0,1.0,phase_1,,,,,,,,,,,,,white,circle
40.0,5.0,1.0,1.0,1.0,1.0,430.5489975959062,1.0,1.0,phase_1,,,,,,,,,,,,,white,circle
219.0,7.0,3.0,1.0,2.0,2.0,441.2759840488434,1.0,1.0,phase_1,,,,,,,,,,,,,green,hexagon
32.0,1.0,1.0,0.0,1.0,1.0,461.6737179458141,1.0,1.0,phase_1,,,,,,,,,,,,,blue,diamond
79.0,2.0,2.0,0.0,2.0,2.0,371.8187250196934,1.0,1.0,phase_1,,,,,,,,,,,,,orange,triangle
64.0,1.0,1.0,0.0,3.0,3.0,368.8947595655918,1.0,1.0,phase_1,,,,,,,,,,,,,blue,diamond
195.0,7.0,3.0,1.0,2.0,2.0,357.6689083129167,1.0,1.0,phase_1,,,,,,,,,,,,,green,hexagon
209.0,3.0,3.0,0.0,4.0,4.0,416.3068030029535,1.0,1.0,phase_1,,,,,,,,,,,,,cyan,flipped triangle
61.0,1.0,1.0,0.0,4.0,4.0,398.6759167164564,1.0,1.0,phase_1,,,,,,,,,,,,,blue,diamond
390.0,4.0,4.0,0.0,1.0,1.0,376.8893405795097,1.0,1.0,phase_1,,,,,,,,,,,,,gray,square
73.0,5.0,1.0,1.0,2.0,2.0,326.4614921063185,1.0,1.0,phase_1,,,,,,,,,,,,,white,circle
117.0,2.0,2.0,0.0,4.0,4.0,372.8337362408638,1.0,1.0,phase_1,,,,,,,,,,,,,orange,triangle
207.0,3.0,3.0,0.0,3.0,3.0,384.3709882348776,1.0,1.0,phase_1,,,,,,,,,,,,,cyan,flipped triangle
185.0,3.0,3.0,0.0,1.0,1.0,323.6195780336857,1.0,1.0,phase_1,,,,,,,,,,,,,cyan,flipped triangle
204.0,7.0,3.0,1.0,1.0,1.0,385.2689992636442,1.0,1.0,phase_1,,,,,,,,,,,,,green,hexagon
72.0,5.0,1.0,1.0,2.0,2.0,367.8929060697555,1.0,1.0,phase_1,,,,,,,,,,,,,white,circle
0.0,8.0,0.0,1.0,1.0,1.0,381.0506202280521,1.0,1.0,phase_1,,,,,,,,,,,,,yellow,cross
44.0,5.0,1.0,1.0,1.0,1.0,351.4768797904253,1.0,1.0,phase_1,,,,,,,,,,,,,white,circle
0.0,4.0,0.0,0.0,3.0,3.0,372.0177020877599,1.0,1.0,phase_1,,,,,,,,,,,,,gray,square
185.0,7.0,3.0,1.0,2.0,2.0,306.8952467292547,1.0,1.0,phase_1,,,,,,,,,,,,,green,hexagon
59.0,1.0,1.0,0.0,2.0,2.0,332.4344772845506,1.0,1.0,phase_1,,,,,,,,,,,,,blue,diamond
411.0,8.0,4.0,1.0,1.0,1.0,409.0584330260753,1.0,1.0,phase_1,,,,,,,,,,,,,yellow,cross
96.0,6.0,2.0,1.0,4.0,4.0,382.09711574018,1.0,1.0,phase_1,,,,,,,,,,,,,magenta,I
201.0,7.0,3.0,1.0,3.0,3.0,333.5601836442947,1.0,1.0,phase_1,,,,,,,,,,,,,green,hexagon
60.0,1.0,1.0,0.0,3.0,3.0,408.9849237352609,1.0,1.0,phase_1,,,,,,,,,,,,,blue,diamond
178.0,3.0,3.0,0.0,1.0,1.0,359.9120639264583,1.0,1.0,phase_1,,,,,,,,,,,,,cyan,flipped triangle
29.0,1.0,1.0,0.0,2.0,2.0,299.7418362647295,1.0,1.0,phase_1,,,,,,,,,,,,,blue,diamond
0.0,5.0,0.0,1.0,3.0,3.0,381.3305608928203,1.0,1.0,phase_1,,,,,,,,,,,,,white,circle
202.0,7.0,3.0,1.0,4.0,4.0,340.1924129575491,1.0,1.0,phase_1,,,,,,,,,,,,,green,hexagon
0.0,7.0,0.0,1.0,3.0,3.0,343.4558976441622,1.0,1.0,phase_1,,,,,,,,,,,,,green,hexagon
117.0,6.0,2.0,1.0,3.0,3.0,396.2628468871116,1.0,1.0,phase_1,,,,,,,,,,,,,magenta,I
215.0,7.0,3.0,1.0,4.0,4.0,411.9407515972852,1.0,1.0,phase_1,,,,,,,,,,,,,green,hexagon
78.0,2.0,2.0,0.0,1.0,1.0,340.5515160411596,1.0,1.0,phase_1,,,,,,,,,,,,,orange,triangle
74.0,1.0,1.0,0.0,1.0,1.0,434.9376894533634,1.0,1.0,phase_1,,,,,,,,,,,,,blue,diamond
0.0,4.0,0.0,0.0,4.0,4.0,409.1380629688501,1.0,1.0,phase_1,,,,,,,,,,,,,gray,square
79.0,6.0,2.0,1.0,2.0,2.0,356.4354628324508,1.0,1.0,phase_1,,,,,,,,,,,,,magenta,I
193.0,7.0,3.0,1.0,2.0,2.0,331.4995653927326,1.0,1.0,phase_1,,,,,,,,,,,,,green,hexagon
94.0,6.0,2.0,1.0,3.0,3.0,404.6863876283169,1.0,1.0,phase_1,,,,,,,,,,,,,magenta,I
72.0,1.0,1.0,0.0,1.0,1.0,404.1279517114162,1.0,1.0,phase_1,,,,,,,,,,,,,blue,diamond
425.0,4.0,4.0,0.0,2.0,2.0,518.329344689846,1.0,1.0,phase_1,,,,,,,,,,,,,gray,square
195.0,3.0,3.0,0.0,3.0,3.0,454.5349050313234,1.0,1.0,phase_1,,,,,,,,,,,,,cyan,flipped triangle
384.0,4.0,4.0,0.0,2.0,2.0,344.8463566601276,1.0,1.0,phase_1,,,,,,,,,,,,,gray,square
74.0,5.0,1.0,1.0,2.0,2.0,390.6418047845363,1.0,1.0,phase_1,,,,,,,,,,,,,white,circle
224.0,7.0,3.0,1.0,1.0,1.0,348.2371922582388,1.0,1.0,phase_1,,,,,,,,,,,,,green,hexagon
410.0,4.0,4.0,0.0,3.0,3.0,428.8788698613643,1.0,1.0,phase_1,,,,,,,,,,,,,gray,square
420.0,4.0,4.0,0.0,1.0,1.0,389.4008155912161,1.0,1.0,phase_1,,,,,,,,,,,,,gray,square
38.0,1.0,1.0,0.0,1.0,1.0,319.2421849817037,1.0,1.0,phase_1,,,,,,,,,,,,,blue,diamond
381.0,8.0,4.0,1.0,4.0,4.0,437.6534316688776,1.0,1.0,phase_1,,,,,,,,,,,,,yellow,cross
86.0,2.0,2.0,0.0,2.0,2.0,424.6425032615661,1.0,1.0,phase_1,,,,,,,,,,,,,orange,triangle
213.0,3.0,3.0,0.0,1.0,1.0,372.3278567194938,1.0,1.0,phase_1,,,,,,,,,,,,,cyan,flipped triangle
397.0,8.0,4.0,1.0,4.0,4.0,396.3974993675947,1.0,1.0,phase_1,,,,,,,,,,,,,yellow,cross
80.0,6.0,2.0,1.0,3.0,3.0,414.0396639704704,1.0,1.0,phase_1,,,,,,,,,,,,,magenta,I
207.0,7.0,3.0,1.0,2.0,2.0,450.0868618488312,1.0,1.0,phase_1,,,,,,,,,,,,,green,hexagon
210.0,7.0,3.0,1.0,4.0,4.0,415.1552878320217,1.0,1.0,phase_1,,,,,,,,,,,,,green,hexagon
201.0,7.0,3.0,1.0,2.0,2.0,335.8461316674948,1.0,1.0,phase_1,,,,,,,,,,,,,green,hexagon
0.0,8.0,0.0,1.0,2.0,2.0,337.6312386244535,1.0,1.0,phase_1,,,,,,,,,,,,,yellow,cross
0.0,5.0,0.0,1.0,2.0,2.0,325.5002684891224,1.0,1.0,phase_1,,,,,,,,,,,,,white,circle
46.0,1.0,1.0,0.0,3.0,3.0,403.5177398473024,1.0,1.0,phase_1,,,,,,,,,,,,,blue,diamond
70.0,1.0,1.0,0.0,2.0,2.0,393.3226335793733,1.0,1.0,phase_1,,,,,,,,,,,,,blue,diamond
93.0,2.0,2.0,0.0,1.0,1.0,365.9526966512203,1.0,1.0,phase_1,,,,,,,,,,,,,orange,triangle
34.0,1.0,1.0,0.0,2.0,2.0,367.7913192659616,1.0,1.0,phase_1,,,,,,,,,,,,,blue,diamond
0.0,2.0,0.0,0.0,2.0,2.0,342.5829131156206,1.0,1.0,phase_1,,,,,,,,,,,,,orange,triangle
31.0,5.0,1.0,1.0,3.0,3.0,420.7317177206278,1.0,1.0,phase_1,,,,,,,,,,,,,white,circle
82.0,2.0,2.0,0.0,2.0,2.0,304.6240489929914,1.0,1.0,phase_1,,,,,,,,,,,,,orange,triangle
48.0,1.0,1.0,0.0,3.0,3.0,366.9546823948622,1.0,1.0,phase_1,,,,,,,,,,,,,blue,diamond
123.0,6.0,2.0,1.0,1.0,1.0,319.9844397604465,1.0,1.0,phase_1,,,,,,,,,,,,,magenta,I
31.0,1.0,1.0,0.0,3.0,3.0,455.3099311888218,1.0,1.0,phase_1,,,,,,,,,,,,,blue,diamond
115.0,2.0,2.0,0.0,4.0,4.0,395.2064011245966,1.0,1.0,phase_1,,,,,,,,,,,,,orange,triangle
0.0,5.0,0.0,1.0,1.0,1.0,359.7658164799213,1.0,1.0,phase_1,,,,,,,,,,,,,white,circle
0.0,7.0,0.0,1.0,4.0,4.0,479.579946026206,2.0,1.0,phase_1,,,,,,,,,,,,,green,hexagon
109.0,2.0,2.0,0.0,1.0,1.0,426.3018649071455,2.0,1.0,phase_1,,,,,,,,,,,,,orange,triangle
381.0,4.0,4.0,0.0,3.0,3.0,360.2011315524578,2.0,1.0,phase_1,,,,,,,,,,,,,gray,square
35.0,1.0,1.0,0.0,2.0,2.0,295.1864060014486,2.0,1.0,phase_1,,,,,,,,,,,,,blue,diamond
204.0,7.0,3.0,1.0,2.0,2.0,355.47268204391,2.0,1.0,phase_1,,,,,,,,,,,,,green,hexagon
81.0,6.0,2.0,1.0,2.0,2.0,413.0505807697773,2.0,1.0,phase_1,,,,,,,,,,,,,magenta,I
392.0,8.0,4.0,1.0,1.0,1.0,445.4716295003891,2.0,1.0,phase_1,,,,,,,,,,,,,yellow,cross
185.0,7.0,3.0,1.0,4.0,4.0,367.1293426305055,2.0,1.0,phase_1,,,,,,,,,,,,,green,hexagon
27.0,5.0,1.0,1.0,3.0,3.0,430.5427297949791,2.0,1.0,phase_1,,,,,,,,,,,,,white,circle
27.0,1.0,1.0,0.0,4.0,4.0,752.213716506958,2.0,1.0,phase_1,,,,,,,,,,,,,blue,diamond
59.0,5.0,1.0,1.0,3.0,3.0,396.9462476670742,2.0,1.0,phase_1,,,,,,,,,,,,,white,circle
189.0,3.0,3.0,0.0,4.0,4.0,441.384669393301,2.0,1.0,phase_1,,,,,,,,,,,,,cyan,flipped triangle
0.0,8.0,0.0,1.0,1.0,1.0,311.6186782717705,2.0,1.0,phase_1,,,,,,,,,,,,,yellow,cross
0.0,1.0,0.0,0.0,4.0,4.0,470.8574805408716,2.0,1.0,phase_1,,,,,,,,,,,,,blue,diamond
59.0,1.0,1.0,0.0,4.0,4.0,464.3090739846229,2.0,1.0,phase_1,,,,,,,,,,,,,blue,diamond
101.0,6.0,2.0,1.0,4.0,4.0,364.0100117772817,2.0,1.0,phase_1,,,,,,,,,,,,,magenta,I
0.0,4.0,0.0,0.0,3.0,3.0,376.7941128462553,2.0,1.0,phase_1,,,,,,,,,,,,,gray,square
37.0,1.0,1.0,0.0,1.0,1.0,384.4912014901638,2.0,1.0,phase_1,,,,,,,,,,,,,blue,diamond
54.0,1.0,1.0,0.0,4.0,4.0,394.0647188574075,2.0,1.0,phase_1,,,,,,,,,,,,,blue,diamond
101.0,6.0,2.0,1.0,3.0,3.0,359.9189650267362,2.0,1.0,phase_1,,,,,,,,,,,,,magenta,I
422.0,4.0,4.0,0.0,4.0,4.0,461.4138286560774,2.0,1.0,phase_1,,,,,,,,,,,,,gray,square
0.0,1.0,0.0,0.0,3.0,3.0,424.489788711071,2.0,1.0,phase_1,,,,,,,,,,,,,blue,diamond
110.0,2.0,2.0,0.0,1.0,1.0,396.6679479926824,2.0,1.0,phase_1,,,,,,,,,,,,,orange,triangle
0.0,8.0,0.0,1.0,3.0,3.0,378.3934284001589,2.0,1.0,phase_1,,,,,,,,,,,,,yellow,cross
98.0,2.0,2.0,0.0,3.0,3.0,440.3688367456198,2.0,1.0,phase_1,,,,,,,,,,,,,orange,triangle
100.0,2.0,2.0,0.0,1.0,1.0,502.6140306144953,2.0,1.0,phase_1,,,,,,,,,,,,,orange,triangle
54.0,5.0,1.0,1.0,3.0,3.0,449.3797812610864,2.0,1.0,phase_1,,,,,,,,,,,,,white,circle
62.0,5.0,1.0,1.0,1.0,1.0,796.5211570262909,2.0,1.0,phase_1,,,,,,,,,,,,,white,circle
49.0,1.0,1.0,0.0,2.0,2.0,354.1551679372787,2.0,1.0,phase_1,,,,,,,,,,,,,blue,diamond
98.0,6.0,2.0,1.0,1.0,1.0,422.3037138581276,2.0,1.0,phase_1,,,,,,,,,,,,,magenta,I
420.0,4.0,4.0,0.0,3.0,3.0,459.4519324600696,2.0,1.0,phase_1,,,,,,,,,,,,,gray,square
109.0,6.0,2.0,1.0,1.0,1.0,415.9646779298782,2.0,1.0,phase_1,,,,,,,,,,,,,magenta,I
0.0,8.0,0.0,1.0,2.0,2.0,343.0496901273727,2.0,1.0,phase_1,,,,,,,,,,,,,yellow,cross
48.0,5.0,1.0,1.0,1.0,1.0,392.6303684711456,2.0,1.0,phase_1,,,,,,,,,,,,,white,circle
30.0,5.0,1.0,1.0,4.0,4.0,544.3765707314014,2.0,1.0,phase_1,,,,,,,,,,,,,white,circle
209.0,7.0,3.0,1.0,3.0,3.0,377.9464773833751,2.0,1.0,phase_1,,,,,,,,,,,,,green,hexagon
98.0,2.0,2.0,0.0,1.0,1.0,369.6306329220533,2.0,1.0,phase_1,,,,,,,,,,,,,orange,triangle
0.0,3.0,0.0,0.0,2.0,2.0,325.334083288908,2.0,1.0,phase_1,,,,,,,,,,,,,cyan,flipped triangle
219.0,3.0,3.0,0.0,3.0,3.0,321.8157310038805,2.0,1.0,phase_1,,,,,,,,,,,,,cyan,flipped triangle
53.0,5.0,1.0,1.0,1.0,1.0,404.3788034468889,2.0,1.0,phase_1,,,,,,,,,,,,,white,circle
101.0,2.0,2.0,0.0,1.0,1.0,427.1814748644829,2.0,1.0,phase_1,,,,,,,,,,,,,orange,triangle
410.0,8.0,4.0,1.0,2.0,2.0,424.1999145597219,2.0,1.0,phase_1,,,,,,,,,,,,,yellow,cross
0.0,7.0,0.0,1.0,3.0,3.0,451.1180389672518,2.0,1.0,phase_1,,,,,,,,,,,,,green,hexagon
391.0,4.0,4.0,0.0,4.0,4.0,488.2240667939186,2.0,1.0,phase_1,,,,,,,,,,,,,gray,square
224.0,3.0,3.0,0.0,4.0,4.0,479.0655747056007,2.0,1.0,phase_1,,,,,,,,,,,,,cyan,flipped triangle
199.0,3.0,3.0,0.0,2.0,2.0,408.9845605194568,2.0,1.0,phase_1,,,,,,,,,,,,,cyan,flipped triangle
425.0,8.0,4.0,1.0,3.0,3.0,488.3398786187172,2.0,1.0,phase_1,,,,,,,,,,,,,yellow,cross
105.0,6.0,2.0,1.0,4.0,4.0,498.3024895191192,2.0,1.0,phase_1,,,,,,,,,,,,,magenta,I
87.0,6.0,2.0,1.0,2.0,2.0,327.4640422314405,2.0,1.0,phase_1,,,,,,,,,,,,,magenta,I
61.0,5.0,1.0,1.0,2.0,2.0,390.3983831405639,2.0,1.0,phase_1,,,,,,,,,,,,,white,circle
418.0,8.0,4.0,1.0,2.0,2.0,403.70281226933,2.0,1.0,phase_1,,,,,,,,,,,,,yellow,cross
384.0,8.0,4.0,1.0,4.0,4.0,606.0184743255377,2.0,1.0,phase_1,,,,,,,,,,,,,yellow,cross
185.0,3.0,3.0,0.0,1.0,1.0,373.1408920139074,2.0,1.0,phase_1,,,,,,,,,,,,,cyan,flipped triangle
119.0,2.0,2.0,0.0,3.0,3.0,344.2229107022285,2.0,1.0,phase_1,,,,,,,,,,,,,orange,triangle
397.0,4.0,4.0,0.0,4.0,4.0,383.18339176476,2.0,1.0,phase_1,,,,,,,,,,,,,gray,square
0.0,4.0,0.0,0.0,2.0,2.0,314.9059172719717,2.0,1.0,phase_1,,,,,,,,,,,,,gray,square
390.0,4.0,4.0,0.0,2.0,2.0,358.4600407630205,2.0,1.0,phase_1,,,,,,,,,,,,,gray,square
53.0,1.0,1.0,0.0,3.0,3.0,396.0785027593374,2.0,1.0,phase_1,,,,,,,,,,,,,blue,diamond
181.0,3.0,3.0,0.0,4.0,4.0,494.4202490150928,2.0,1.0,phase_1,,,,,,,,,,,,,cyan,flipped triangle
111.0,6.0,2.0,1.0,2.0,2.0,523.0102557688951,2.0,1.0,phase_1,,,,,,,,,,,,,magenta,I
0.0,1.0,0.0,0.0,3.0,3.0,401.1041559278965,2.0,1.0,phase_1,,,,,,,,,,,,,blue,diamond
82.0,6.0,2.0,1.0,1.0,1.0,428.4449592232704,2.0,1.0,phase_1,,,,,,,,,,,,,magenta,I
0.0,3.0,0.0,0.0,4.0,4.0,456.3484285026788,2.0,1.0,phase_1,,,,,,,,,,,,,cyan,flipped triangle
404.0,4.0,4.0,0.0,2.0,2.0,340.8162165433168,2.0,1.0,phase_1,,,,,,,,,,,,,gray,square
407.0,4.0,4.0,0.0,2.0,2.0,362.312339246273,2.0,1.0,phase_1,,,,,,,,,,,,,gray,square
189.0,3.0,3.0,0.0,3.0,3.0,447.2064319998026,2.0,1.0,phase_1,,,,,,,,,,,,,cyan,flipped triangle
0.0,8.0,0.0,1.0,4.0,4.0,371.3219184428453,2.0,1.0,phase_1,,,,,,,,,,,,,yellow,cross
69.0,1.0,1.0,0.0,2.0,2.0,338.8005718588829,2.0,1.0,phase_1,,,,,,,,,,,,,blue,diamond
64.0,1.0,1.0,0.0,4.0,4.0,629.5615024864674,2.0,1.0,phase_1,,,,,,,,,,,,,blue,diamond
100.0,6.0,2.0,1.0,2.0,2.0,490.8357821404934,2.0,1.0,phase_1,,,,,,,,,,,,,magenta,I
105.0,2.0,2.0,0.0,2.0,2.0,397.7210093289614,2.0,1.0,phase_1,,,,,,,,,,,,,orange,triangle
407.0,8.0,4.0,1.0,3.0,3.0,418.6827465891838,2.0,1.0,phase_1,,,,,,,,,,,,,yellow,cross
53.0,1.0,1.0,0.0,1.0,1.0,403.3710286021232,2.0,1.0,phase_1,,,,,,,,,,,,,blue,diamond
115.0,6.0,2.0,1.0,1.0,1.0,389.2513606697321,2.0,1.0,phase_1,,,,,,,,,,,,,magenta,I
98.0,2.0,2.0,0.0,2.0,2.0,416.3697846233845,2.0,1.0,phase_1,,,,,,,,,,,,,orange,triangle
210.0,3.0,3.0,0.0,2.0,2.0,400.5342908203602,2.0,1.0,phase_1,,,,,,,,,,,,,cyan,flipped triangle
205.0,7.0,3.0,1.0,3.0,3.0,444.5803686976433,2.0,1.0,phase_1,,,,,,,,,,,,,green,hexagon
418.0,4.0,4.0,0.0,3.0,3.0,457.4241712689399,2.0,1.0,phase_1,,,,,,,,,,,,,gray,square
0.0,6.0,0.0,1.0,3.0,3.0,357.8013442456722,2.0,1.0,phase_1,,,,,,,,,,,,,magenta,I
383.0,4.0,4.0,0.0,2.0,2.0,450.5678303539753,2.0,1.0,phase_1,,,,,,,,,,,,,gray,square
215.0,3.0,3.0,0.0,2.0,2.0,453.4004591405391,2.0,1.0,phase_1,,,,,,,,,,,,,cyan,flipped triangle
0.0,5.0,0.0,1.0,1.0,1.0,490.1672396808862,2.0,1.0,phase_1,,,,,,,,,,,,,white,circle
181.0,7.0,3.0,1.0,3.0,3.0,406.2222260981798,2.0,1.0,phase_1,,,,,,,,,,,,,green,hexagon
407.0,4.0,4.0,0.0,1.0,1.0,445.2117159962654,2.0,1.0,phase_1,,,,,,,,,,,,,gray,square
30.0,1.0,1.0,0.0,4.0,4.0,554.9794528633356,2.0,1.0,phase_1,,,,,,,,,,,,,blue,diamond
0.0,7.0,0.0,1.0,2.0,2.0,326.9136529415846,2.0,1.0,phase_1,,,,,,,,,,,,,green,hexagon
223.0,7.0,3.0,1.0,3.0,3.0,412.4132730066776,2.0,1.0,phase_1,,,,,,,,,,,,,green,hexagon
0.0,7.0,0.0,1.0,3.0,3.0,384.5479264855385,2.0,1.0,phase_1,,,,,,,,,,,,,green,hexagon
0.0,6.0,0.0,1.0,4.0,4.0,362.4899964779615,2.0,1.0,phase_1,,,,,,,,,,,,,magenta,I
0.0,2.0,0.0,0.0,1.0,1.0,522.161103785038,2.0,1.0,phase_1,,,,,,,,,,,,,orange,triangle
204.0,3.0,3.0,0.0,2.0,2.0,315.8117365092039,2.0,1.0,phase_1,,,,,,,,,,,,,cyan,flipped triangle
54.0,5.0,1.0,1.0,4.0,4.0,571.3620483875275,2.0,1.0,phase_1,,,,,,,,,,,,,white,circle
210.0,7.0,3.0,1.0,1.0,1.0,366.967249661684,2.0,1.0,phase_1,,,,,,,,,,,,,green,hexagon
49.0,5.0,1.0,1.0,3.0,3.0,554.6485222876072,2.0,1.0,phase_1,,,,,,,,,,,,,white,circle
197.0,3.0,3.0,0.0,3.0,3.0,433.1370964646339,2.0,1.0,phase_1,,,,,,,,,,,,,cyan,flipped triangle
59.0,5.0,1.0,1.0,2.0,2.0,340.7552149146795,2.0,1.0,phase_1,,,,,,,,,,,,,white,circle
215.0,7.0,3.0,1.0,1.0,1.0,403.4487195312977,2.0,1.0,phase_1,,,,,,,,,,,,,green,hexagon
209.0,3.0,3.0,0.0,2.0,2.0,406.4628630876541,2.0,1.0,phase_1,,,,,,,,,,,,,cyan,flipped triangle
192.0,3.0,3.0,0.0,1.0,1.0,505.46723045408726,2.0,1.0,phase_1,,,,,,,,,,,,,cyan,flipped triangle
54.0,1.0,1.0,0.0,4.0,4.0,360.715389251709,2.0,1.0,phase_1,,,,,,,,,,,,,blue,diamond
0.0,1.0,0.0,0.0,1.0,1.0,366.4369564503431,3.0,1.0,phase_1,,,,,,,,,,,,,blue,diamond
375.0,8.0,4.0,1.0,3.0,3.0,418.4037484228611,3.0,1.0,phase_1,,,,,,,,,,,,,yellow,cross
32.0,5.0,1.0,1.0,4.0,4.0,417.1450920403003,3.0,1.0,phase_1,,,,,,,,,,,,,white,circle
402.0,8.0,4.0,1.0,2.0,2.0,270.7712836563587,3.0,1.0,phase_1,,,,,,,,,,,,,yellow,cross
73.0,1.0,1.0,0.0,2.0,2.0,356.2416117638349,3.0,1.0,phase_1,,,,,,,,,,,,,blue,diamond
69.0,5.0,1.0,1.0,2.0,2.0,343.7291532754898,3.0,1.0,phase_1,,,,,,,,,,,,,white,circle
88.0,2.0,2.0,0.0,4.0,4.0,353.7108562886715,3.0,1.0,phase_1,,,,,,,,,,,,,orange,triangle
82.0,6.0,2.0,1.0,1.0,1.0,343.126518651843,3.0,1.0,phase_1,,,,,,,,,,,,,magenta,I
215.0,3.0,3.0,0.0,1.0,1.0,421.5683862566948,3.0,1.0,phase_1,,,,,,,,,,,,,cyan,flipped triangle
420.0,8.0,4.0,1.0,3.0,3.0,314.867090433836,3.0,1.0,phase_1,,,,,,,,,,,,,yellow,cross
121.0,6.0,2.0,1.0,2.0,2.0,284.1888107359409,3.0,1.0,phase_1,,,,,,,,,,,,,magenta,I
38.0,5.0,1.0,1.0,3.0,3.0,404.2385593056679,3.0,1.0,phase_1,,,,,,,,,,,,,white,circle
191.0,7.0,3.0,1.0,2.0,2.0,309.8057489842176,3.0,1.0,phase_1,,,,,,,,,,,,,green,hexagon
407.0,8.0,4.0,1.0,3.0,3.0,428.5577815026045,3.0,1.0,phase_1,,,,,,,,,,,,,yellow,cross
83.0,2.0,2.0,0.0,3.0,3.0,383.0133248120546,3.0,1.0,phase_1,,,,,,,,,,,,,orange,triangle
112.0,6.0,2.0,1.0,2.0,2.0,380.1163397729397,3.0,1.0,phase_1,,,,,,,,,,,,,magenta,I
403.0,8.0,4.0,1.0,4.0,4.0,504.7547798603773,3.0,2.0,phase_1,,,,,,,,,,,,,yellow,cross
0.0,8.0,0.0,1.0,3.0,3.0,500.82163512706757,3.0,1.0,phase_1,,,,,,,,,,,,,yellow,cross
118.0,6.0,2.0,1.0,3.0,3.0,439.5118411630392,3.0,1.0,phase_1,,,,,,,,,,,,,magenta,I
101.0,2.0,2.0,0.0,4.0,4.0,551.5618063509464,3.0,1.0,phase_1,,,,,,,,,,,,,orange,triangle
111.0,2.0,2.0,0.0,4.0,4.0,443.0260807275772,3.0,1.0,phase_1,,,,,,,,,,,,,orange,triangle
184.0,3.0,3.0,0.0,2.0,2.0,431.6072445362806,3.0,1.0,phase_1,,,,,,,,,,,,,cyan,flipped triangle
213.0,7.0,3.0,1.0,1.0,1.0,513.5300178080797,3.0,1.0,phase_1,,,,,,,,,,,,,green,hexagon
0.0,3.0,0.0,0.0,2.0,2.0,465.1238042861223,3.0,1.0,phase_1,,,,,,,,,,,,,cyan,flipped triangle
223.0,7.0,3.0,1.0,3.0,3.0,350.7852926850319,3.0,1.0,phase_1,,,,,,,,,,,,,green,hexagon
0.0,5.0,0.0,1.0,4.0,4.0,423.8462541252374,3.0,1.0,phase_1,,,,,,,,,,,,,white,circle
70.0,5.0,1.0,1.0,4.0,4.0,416.0096775740385,3.0,1.0,phase_1,,,,,,,,,,,,,white,circle
0.0,4.0,0.0,0.0,2.0,2.0,360.5947084724903,3.0,1.0,phase_1,,,,,,,,,,,,,gray,square
390.0,4.0,4.0,0.0,3.0,3.0,338.4707756340503,3.0,1.0,phase_1,,,,,,,,,,,,,gray,square
375.0,4.0,4.0,0.0,1.0,1.0,515.211209654808,3.0,1.0,phase_1,,,,,,,,,,,,,gray,square
49.0,5.0,1.0,1.0,4.0,4.0,450.286254286766,3.0,1.0,phase_1,,,,,,,,,,,,,white,circle
386.0,8.0,4.0,1.0,2.0,2.0,308.7298441678285,3.0,1.0,phase_1,,,,,,,,,,,,,yellow,cross
204.0,7.0,3.0,1.0,2.0,2.0,391.8687254190445,3.0,1.0,phase_1,,,,,,,,,,,,,green,hexagon
111.0,2.0,2.0,0.0,2.0,2.0,535.7322860509157,3.0,1.0,phase_1,,,,,,,,,,,,,orange,triangle
0.0,6.0,0.0,1.0,4.0,4.0,482.8612897545099,3.0,1.0,phase_1,,,,,,,,,,,,,magenta,I
48.0,1.0,1.0,0.0,3.0,3.0,601.3563685119152,3.0,1.0,phase_1,,,,,,,,,,,,,blue,diamond
189.0,7.0,3.0,1.0,1.0,1.0,590.5828773975372,3.0,1.0,phase_1,,,,,,,,,,,,,green,hexagon
191.0,3.0,3.0,0.0,2.0,2.0,305.6020066142082,3.0,1.0,phase_1,,,,,,,,,,,,,cyan,flipped triangle
201.0,3.0,3.0,0.0,3.0,3.0,352.3369710892439,3.0,1.0,phase_1,,,,,,,,,,,,,cyan,flipped triangle
94.0,2.0,2.0,0.0,4.0,4.0,395.0121961534023,3.0,1.0,phase_1,,,,,,,,,,,,,orange,triangle
110.0,6.0,2.0,1.0,3.0,3.0,438.2288847118616,3.0,1.0,phase_1,,,,,,,,,,,,,magenta,I
392.0,4.0,4.0,0.0,3.0,3.0,443.004073575139,3.0,1.0,phase_1,,,,,,,,,,,,,gray,square
0.0,2.0,0.0,0.0,4.0,4.0,399.2847204208374,3.0,1.0,phase_1,,,,,,,,,,,,,orange,triangle
88.0,6.0,2.0,1.0,4.0,4.0,379.6887267380953,3.0,1.0,phase_1,,,,,,,,,,,,,magenta,I
62.0,1.0,1.0,0.0,1.0,1.0,442.78852827847,3.0,1.0,phase_1,,,,,,,,,,,,,blue,diamond
64.0,5.0,1.0,1.0,3.0,3.0,384.4536766409874,3.0,1.0,phase_1,,,,,,,,,,,,,white,circle
177.0,7.0,3.0,1.0,1.0,1.0,371.3949639350176,3.0,1.0,phase_1,,,,,,,,,,,,,green,hexagon
209.0,7.0,3.0,1.0,2.0,2.0,366.4209712296724,3.0,1.0,phase_1,,,,,,,,,,,,,green,hexagon
202.0,3.0,3.0,0.0,3.0,3.0,358.2477755844593,3.0,1.0,phase_1,,,,,,,,,,,,,cyan,flipped triangle
0.0,3.0,0.0,0.0,4.0,4.0,370.0516577810049,3.0,1.0,phase_1,,,,,,,,,,,,,cyan,flipped triangle
68.0,1.0,1.0,0.0,4.0,4.0,413.4343881160021,3.0,1.0,phase_1,,,,,,,,,,,,,blue,diamond
177.0,3.0,3.0,0.0,4.0,4.0,445.3209284693002,3.0,1.0,phase_1,,,,,,,,,,,,,cyan,flipped triangle
385.0,8.0,4.0,1.0,1.0,1.0,360.1709064096212,3.0,1.0,phase_1,,,,,,,,,,,,,yellow,cross
29.0,5.0,1.0,1.0,4.0,4.0,431.0730658471584,3.0,1.0,phase_1,,,,,,,,,,,,,white,circle
80.0,2.0,2.0,0.0,3.0,3.0,368.615472689271,3.0,1.0,phase_1,,,,,,,,,,,,,orange,triangle
59.0,1.0,1.0,0.0,3.0,3.0,413.4803954511881,3.0,1.0,phase_1,,,,,,,,,,,,,blue,diamond
98.0,6.0,2.0,1.0,2.0,2.0,348.3610413968563,3.0,1.0,phase_1,,,,,,,,,,,,,magenta,I
0.0,2.0,0.0,0.0,1.0,1.0,317.511485889554,3.0,1.0,phase_1,,,,,,,,,,,,,orange,triangle
30.0,1.0,1.0,0.0,4.0,4.0,403.2894633710384,3.0,1.0,phase_1,,,,,,,,,,,,,blue,diamond
411.0,4.0,4.0,0.0,3.0,3.0,367.9582607001066,3.0,1.0,phase_1,,,,,,,,,,,,,gray,square
183.0,7.0,3.0,1.0,4.0,4.0,446.8325264751911,3.0,1.0,phase_1,,,,,,,,,,,,,green,hexagon
377.0,8.0,4.0,1.0,4.0,4.0,512.7882994711399,3.0,1.0,phase_1,,,,,,,,,,,,,yellow,cross
60.0,5.0,1.0,1.0,4.0,4.0,357.8172195702791,3.0,1.0,phase_1,,,,,,,,,,,,,white,circle
205.0,3.0,3.0,0.0,1.0,1.0,537.5254116952419,3.0,1.0,phase_1,,,,,,,,,,,,,cyan,flipped triangle
0.0,3.0,0.0,0.0,3.0,3.0,529.2856451123953,3.0,1.0,phase_1,,,,,,,,,,,,,cyan,flipped triangle
0.0,3.0,0.0,0.0,2.0,2.0,354.6208348125219,3.0,1.0,phase_1,,,,,,,,,,,,,cyan,flipped triangle
411.0,8.0,4.0,1.0,3.0,3.0,519.559720531106,3.0,1.0,phase_1,,,,,,,,,,,,,yellow,cross
0.0,5.0,0.0,1.0,1.0,1.0,364.0642818063497,3.0,1.0,phase_1,,,,,,,,,,,,,white,circle
26.0,1.0,1.0,0.0,1.0,1.0,466.8095652014017,3.0,1.0,phase_1,,,,,,,,,,,,,blue,diamond
108.0,2.0,2.0,0.0,4.0,4.0,382.2546284645796,3.0,1.0,phase_1,,,,,,,,,,,,,orange,triangle
407.0,4.0,4.0,0.0,1.0,1.0,492.6402345299721,3.0,1.0,phase_1,,,,,,,,,,,,,gray,square
383.0,4.0,4.0,0.0,2.0,2.0,338.1090611219406,3.0,1.0,phase_1,,,,,,,,,,,,,gray,square
90.0,2.0,2.0,0.0,2.0,2.0,371.3314980268478,3.0,1.0,phase_1,,,,,,,,,,,,,orange,triangle
383.0,8.0,4.0,1.0,2.0,2.0,337.1634036302566,3.0,1.0,phase_1,,,,,,,,,,,,,yellow,cross
88.0,2.0,2.0,0.0,1.0,1.0,367.9406642913818,3.0,1.0,phase_1,,,,,,,,,,,,,orange,triangle
0.0,2.0,0.0,0.0,2.0,2.0,378.5559721291065,3.0,1.0,phase_1,,,,,,,,,,,,,orange,triangle
0.0,2.0,0.0,0.0,1.0,1.0,479.263624176383,3.0,1.0,phase_1,,,,,,,,,,,,,orange,triangle
0.0,4.0,0.0,0.0,1.0,1.0,438.3834172040224,3.0,1.0,phase_1,,,,,,,,,,,,,gray,square
123.0,2.0,2.0,0.0,3.0,3.0,403.2880067825317,3.0,1.0,phase_1,,,,,,,,,,,,,orange,triangle
83.0,6.0,2.0,1.0,3.0,3.0,493.1857492774725,3.0,1.0,phase_1,,,,,,,,,,,,,magenta,I
0.0,1.0,0.0,0.0,2.0,2.0,371.7531207948923,3.0,1.0,phase_1,,,,,,,,,,,,,blue,diamond
420.0,8.0,4.0,1.0,1.0,1.0,414.6573711186647,3.0,1.0,phase_1,,,,,,,,,,,,,yellow,cross
0.0,7.0,0.0,1.0,4.0,4.0,389.8946233093738,3.0,1.0,phase_1,,,,,,,,,,,,,green,hexagon
408.0,4.0,4.0,0.0,3.0,3.0,411.4463347941637,3.0,1.0,phase_1,,,,,,,,,,,,,gray,square
0.0,7.0,0.0,1.0,1.0,1.0,423.9907246083021,3.0,1.0,phase_1,,,,,,,,,,,,,green,hexagon
189.0,7.0,3.0,1.0,3.0,3.0,402.7934242039919,3.0,1.0,phase_1,,,,,,,,,,,,,green,hexagon
419.0,8.0,4.0,1.0,1.0,1.0,392.0410890132189,3.0,1.0,phase_1,,,,,,,,,,,,,yellow,cross
115.0,6.0,2.0,1.0,2.0,2.0,394.3923525512218,3.0,1.0,phase_1,,,,,,,,,,,,,magenta,I
185.0,3.0,3.0,0.0,4.0,4.0,427.0427878946066,3.0,1.0,phase_1,,,,,,,,,,,,,cyan,flipped triangle
178.0,7.0,3.0,1.0,3.0,3.0,387.2718773782253,3.0,1.0,phase_1,,,,,,,,,,,,,green,hexagon
0.0,6.0,0.0,1.0,3.0,3.0,402.2192116826772,3.0,1.0,phase_1,,,,,,,,,,,,,magenta,I
74.0,5.0,1.0,1.0,1.0,1.0,608.0310679972172,3.0,1.0,phase_1,,,,,,,,,,,,,white,circle
119.0,6.0,2.0,1.0,3.0,3.0,458.28603580594057,3.0,1.0,phase_1,,,,,,,,,,,,,magenta,I
28.0,1.0,1.0,0.0,1.0,1.0,511.0228471457958,3.0,1.0,phase_1,,,,,,,,,,,,,blue,diamond
0.0,8.0,0.0,1.0,1.0,1.0,410.71517765522,3.0,1.0,phase_1,,,,,,,,,,,,,yellow,cross
210.0,3.0,3.0,0.0,3.0,3.0,451.7687633633613,3.0,1.0,phase_1,,,,,,,,,,,,,cyan,flipped triangle
44.0,1.0,1.0,0.0,2.0,2.0,351.1862382292747,3.0,1.0,phase_1,,,,,,,,,,,,,blue,diamond
96.0,2.0,2.0,0.0,3.0,3.0,467.3155769705772,3.0,1.0,phase_1,,,,,,,,,,,,,orange,triangle
193.0,3.0,3.0,0.0,4.0,4.0,376.1511128395796,3.0,1.0,phase_1,,,,,,,,,,,,,cyan,flipped triangle
0.0,6.0,0.0,1.0,3.0,3.0,411.1949782818556,3.0,1.0,phase_1,,,,,,,,,,,,,magenta,I
420.0,4.0,4.0,0.0,1.0,1.0,415.4196735471487,4.0,1.0,phase_1,,,,,,,,,,,,,gray,square
81.0,2.0,2.0,0.0,4.0,4.0,435.7825834304094,4.0,1.0,phase_1,,,,,,,,,,,,,orange,triangle
390.0,8.0,4.0,1.0,3.0,3.0,392.2032490372658,4.0,1.0,phase_1,,,,,,,,,,,,,yellow,cross
0.0,4.0,0.0,0.0,3.0,3.0,532.9813230782747,4.0,1.0,phase_1,,,,,,,,,,,,,gray,square
391.0,8.0,4.0,1.0,1.0,1.0,338.712764903903,4.0,1.0,phase_1,,,,,,,,,,,,,yellow,cross
107.0,2.0,2.0,0.0,1.0,1.0,399.0643918514251,4.0,1.0,phase_1,,,,,,,,,,,,,orange,triangle
404.0,8.0,4.0,1.0,1.0,1.0,371.3175486773252,4.0,1.0,phase_1,,,,,,,,,,,,,yellow,cross
0.0,1.0,0.0,0.0,3.0,3.0,584.076039493084,4.0,1.0,phase_1,,,,,,,,,,,,,blue,diamond
412.0,4.0,4.0,0.0,1.0,1.0,314.5157974213362,4.0,1.0,phase_1,,,,,,,,,,,,,gray,square
46.0,5.0,1.0,1.0,4.0,4.0,471.7095717787742,4.0,1.0,phase_1,,,,,,,,,,,,,white,circle
0.0,6.0,0.0,1.0,2.0,2.0,404.1298795491457,4.0,1.0,phase_1,,,,,,,,,,,,,magenta,I
59.0,1.0,1.0,0.0,1.0,1.0,378.9104931056499,4.0,1.0,phase_1,,,,,,,,,,,,,blue,diamond
386.0,4.0,4.0,0.0,4.0,4.0,439.8046229034662,4.0,1.0,phase_1,,,,,,,,,,,,,gray,square
94.0,6.0,2.0,1.0,1.0,1.0,418.7547639012337,4.0,1.0,phase_1,,,,,,,,,,,,,magenta,I
403.0,4.0,4.0,0.0,4.0,4.0,439.5701941102743,4.0,1.0,phase_1,,,,,,,,,,,,,gray,square
124.0,6.0,2.0,1.0,3.0,3.0,518.041567876935,4.0,1.0,phase_1,,,,,,,,,,,,,magenta,I
390.0,8.0,4.0,1.0,3.0,3.0,395.778726786375,4.0,1.0,phase_1,,,,,,,,,,,,,yellow,cross
411.0,4.0,4.0,0.0,4.0,4.0,556.8161681294441,4.0,1.0,phase_1,,,,,,,,,,,,,gray,square
0.0,1.0,0.0,0.0,1.0,1.0,444.4000013172626,4.0,1.0,phase_1,,,,,,,,,,,,,blue,diamond
221.0,3.0,3.0,0.0,1.0,1.0,422.9221548885107,4.0,1.0,phase_1,,,,,,,,,,,,,cyan,flipped triangle
108.0,6.0,2.0,1.0,1.0,1.0,411.3274421542883,4.0,1.0,phase_1,,,,,,,,,,,,,magenta,I
90.0,2.0,2.0,0.0,4.0,4.0,464.2852302640676,4.0,1.0,phase_1,,,,,,,,,,,,,orange,triangle
422.0,8.0,4.0,1.0,4.0,4.0,528.6785457283258,4.0,1.0,phase_1,,,,,,,,,,,,,yellow,cross
390.0,8.0,4.0,1.0,2.0,2.0,435.3272747248411,4.0,1.0,phase_1,,,,,,,,,,,,,yellow,cross
0.0,5.0,0.0,1.0,4.0,4.0,591.7573440819979,4.0,1.0,phase_1,,,,,,,,,,,,,white,circle
411.0,8.0,4.0,1.0,4.0,4.0,622.6959209889174,4.0,1.0,phase_1,,,,,,,,,,,,,yellow,cross
221.0,7.0,3.0,1.0,4.0,4.0,431.50758743286127,4.0,1.0,phase_1,,,,,,,,,,,,,green,hexagon
380.0,4.0,4.0,0.0,4.0,4.0,495.29012106359,4.0,1.0,phase_1,,,,,,,,,,,,,gray,square
121.0,2.0,2.0,0.0,2.0,2.0,523.4632454812527,4.0,1.0,phase_1,,,,,,,,,,,,,orange,triangle
86.0,6.0,2.0,1.0,4.0,4.0,504.7477837651968,4.0,1.0,phase_1,,,,,,,,,,,,,magenta,I
0.0,6.0,0.0,1.0,2.0,2.0,636.616313830018,4.0,1.0,phase_1,,,,,,,,,,,,,magenta,I
0.0,1.0,0.0,0.0,3.0,3.0,554.8607762902975,4.0,1.0,phase_1,,,,,,,,,,,,,blue,diamond
82.0,2.0,2.0,0.0,2.0,2.0,420.0620613992214,4.0,1.0,phase_1,,,,,,,,,,,,,orange,triangle
399.0,8.0,4.0,1.0,1.0,1.0,463.6908546090126,4.0,1.0,phase_1,,,,,,,,,,,,,yellow,cross
0.0,2.0,0.0,0.0,4.0,4.0,540.5641328543425,4.0,1.0,phase_1,,,,,,,,,,,,,orange,triangle
0.0,2.0,0.0,0.0,3.0,3.0,482.9761162400245,4.0,1.0,phase_1,,,,,,,,,,,,,orange,triangle
115.0,2.0,2.0,0.0,3.0,3.0,653.8508087396622,4.0,1.0,phase_1,,,,,,,,,,,,,orange,triangle
91.0,6.0,2.0,1.0,4.0,4.0,533.5111115127802,4.0,1.0,phase_1,,,,,,,,,,,,,magenta,I
383.0,8.0,4.0,1.0,4.0,4.0,432.1431163698435,4.0,1.0,phase_1,,,,,,,,,,,,,yellow,cross
209.0,7.0,3.0,1.0,1.0,1.0,488.1041683256626,4.0,1.0,phase_1,,,,,,,,,,,,,green,hexagon
204.0,3.0,3.0,0.0,2.0,2.0,570.9012728184462,4.0,1.0,phase_1,,,,,,,,,,,,,cyan,flipped triangle
64.0,5.0,1.0,1.0,4.0,4.0,513.7092359364033,4.0,1.0,phase_1,,,,,,,,,,,,,white,circle
419.0,4.0,4.0,0.0,3.0,3.0,602.6626192033291,4.0,1.0,phase_1,,,,,,,,,,,,,gray,square
48.0,5.0,1.0,1.0,2.0,2.0,528.2854288816452,4.0,1.0,phase_1,,,,,,,,,,,,,white,circle
0.0,6.0,0.0,1.0,3.0,3.0,533.6127132177353,4.0,1.0,phase_1,,,,,,,,,,,,,magenta,I
411.0,4.0,4.0,0.0,4.0,4.0,384.134853258729,4.0,1.0,phase_1,,,,,,,,,,,,,gray,square
68.0,5.0,1.0,1.0,2.0,2.0,454.3970953673124,4.0,1.0,phase_1,,,,,,,,,,,,,white,circle
204.0,3.0,3.0,0.0,3.0,3.0,428.4544475376606,4.0,1.0,phase_1,,,,,,,,,,,,,cyan,flipped triangle
35.0,5.0,1.0,1.0,4.0,4.0,399.8934160917997,4.0,1.0,phase_1,,,,,,,,,,,,,white,circle
88.0,6.0,2.0,1.0,4.0,4.0,415.0870200246572,4.0,1.0,phase_1,,,,,,,,,,,,,magenta,I
111.0,6.0,2.0,1.0,3.0,3.0,433.9919351041317,4.0,1.0,phase_1,,,,,,,,,,,,,magenta,I
49.0,1.0,1.0,0.0,2.0,2.0,423.3299735933542,4.0,1.0,phase_1,,,,,,,,,,,,,blue,diamond
192.0,7.0,3.0,1.0,3.0,3.0,379.6855509281158,4.0,1.0,phase_1,,,,,,,,,,,,,green,hexagon
398.0,8.0,4.0,1.0,2.0,2.0,373.2899539172649,4.0,1.0,phase_1,,,,,,,,,,,,,yellow,cross
382.0,4.0,4.0,0.0,3.0,3.0,420.82005366683,4.0,1.0,phase_1,,,,,,,,,,,,,gray,square
192.0,3.0,3.0,0.0,4.0,4.0,395.0502835214138,4.0,1.0,phase_1,,,,,,,,,,,,,cyan,flipped triangle
0.0,5.0,0.0,1.0,3.0,3.0,415.7679658383131,4.0,1.0,phase_1,,,,,,,,,,,,,white,circle
380.0,8.0,4.0,1.0,1.0,1.0,393.3947123587131,4.0,1.0,phase_1,,,,,,,,,,,,,yellow,cross
37.0,5.0,1.0,1.0,3.0,3.0,405.308524146676,4.0,1.0,phase_1,,,,,,,,,,,,,white,circle
209.0,3.0,3.0,0.0,1.0,1.0,386.2038999795913,4.0,1.0,phase_1,,,,,,,,,,,,,cyan,flipped triangle
223.0,3.0,3.0,0.0,2.0,2.0,399.6411245316267,4.0,1.0,phase_1,,,,,,,,,,,,,cyan,flipped triangle
59.0,5.0,1.0,1.0,1.0,1.0,438.9768429100513,4.0,1.0,phase_1,,,,,,,,,,,,,white,circle
382.0,8.0,4.0,1.0,1.0,1.0,396.0081972181797,4.0,1.0,phase_1,,,,,,,,,,,,,yellow,cross
397.0,4.0,4.0,0.0,4.0,4.0,638.3446902036667,4.0,1.0,phase_1,,,,,,,,,,,,,gray,square
0.0,8.0,0.0,1.0,1.0,1.0,427.7078714221716,4.0,1.0,phase_1,,,,,,,,,,,,,yellow,cross
74.0,1.0,1.0,0.0,3.0,3.0,361.008295789361,4.0,1.0,phase_1,,,,,,,,,,,,,blue,diamond
91.0,2.0,2.0,0.0,3.0,3.0,388.4148560464382,4.0,1.0,phase_1,,,,,,,,,,,,,orange,triangle
0.0,4.0,0.0,0.0,1.0,1.0,431.0467038303613,4.0,1.0,phase_1,,,,,,,,,,,,,gray,square
59.0,5.0,1.0,1.0,1.0,1.0,414.7924873977899,4.0,1.0,phase_1,,,,,,,,,,,,,white,circle
185.0,7.0,3.0,1.0,1.0,1.0,380.4552089422941,4.0,1.0,phase_1,,,,,,,,,,,,,green,hexagon
402.0,4.0,4.0,0.0,2.0,2.0,401.226183399558,4.0,1.0,phase_1,,,,,,,,,,,,,gray,square
87.0,2.0,2.0,0.0,3.0,3.0,435.4691337794065,4.0,1.0,phase_1,,,,,,,,,,,,,orange,triangle
78.0,6.0,2.0,1.0,4.0,4.0,418.8544638454914,4.0,1.0,phase_1,,,,,,,,,,,,,magenta,I
0.0,3.0,0.0,0.0,1.0,1.0,326.4848385006189,4.0,1.0,phase_1,,,,,,,,,,,,,cyan,flipped triangle
412.0,8.0,4.0,1.0,3.0,3.0,361.8813566863537,4.0,1.0,phase_1,,,,,,,,,,,,,yellow,cross
385.0,4.0,4.0,0.0,1.0,1.0,444.6316752582788,4.0,1.0,phase_1,,,,,,,,,,,,,gray,square
420.0,8.0,4.0,1.0,3.0,3.0,427.5110475718975,4.0,1.0,phase_1,,,,,,,,,,,,,yellow,cross
398.0,4.0,4.0,0.0,4.0,4.0,489.2394300550222,4.0,1.0,phase_1,,,,,,,,,,,,,gray,square
0.0,8.0,0.0,1.0,2.0,2.0,476.5769746154547,4.0,1.0,phase_1,,,,,,,,,,,,,yellow,cross
94.0,2.0,2.0,0.0,3.0,3.0,360.3166174143553,4.0,1.0,phase_1,,,,,,,,,,,,,orange,triangle
377.0,4.0,4.0,0.0,2.0,2.0,311.1574668437242,4.0,1.0,phase_1,,,,,,,,,,,,,gray,square
412.0,4.0,4.0,0.0,1.0,1.0,362.7765476703644,4.0,1.0,phase_1,,,,,,,,,,,,,gray,square
0.0,2.0,0.0,0.0,3.0,3.0,455.7693358510732,4.0,1.0,phase_1,,,,,,,,,,,,,orange,triangle
412.0,8.0,4.0,1.0,2.0,2.0,362.4913971871137,4.0,1.0,phase_1,,,,,,,,,,,,,yellow,cross
53.0,5.0,1.0,1.0,3.0,3.0,449.0228593349457,4.0,1.0,phase_1,,,,,,,,,,,,,white,circle
0.0,1.0,0.0,0.0,4.0,4.0,469.6910995990038,4.0,1.0,phase_1,,,,,,,,,,,,,blue,diamond
34.0,5.0,1.0,1.0,1.0,1.0,352.8985753655433,4.0,1.0,phase_1,,,,,,,,,,,,,white,circle
90.0,6.0,2.0,1.0,4.0,4.0,457.2861287742853,4.0,1.0,phase_1,,,,,,,,,,,,,magenta,I
98.0,6.0,2.0,1.0,2.0,2.0,356.1885766685009,4.0,1.0,phase_1,,,,,,,,,,,,,magenta,I
52.0,5.0,1.0,1.0,3.0,3.0,401.4965239912271,4.0,1.0,phase_1,,,,,,,,,,,,,white,circle
201.0,3.0,3.0,0.0,4.0,4.0,419.8260232806206,4.0,1.0,phase_1,,,,,,,,,,,,,cyan,flipped triangle
182.0,3.0,3.0,0.0,2.0,2.0,322.825264185667,4.0,1.0,phase_1,,,,,,,,,,,,,cyan,flipped triangle
0.0,4.0,0.0,0.0,4.0,4.0,470.2377412468195,4.0,1.0,phase_1,,,,,,,,,,,,,gray,square
0.0,4.0,0.0,0.0,3.0,3.0,508.2121454179287,4.0,1.0,phase_1,,,,,,,,,,,,,gray,square
192.0,7.0,3.0,1.0,4.0,4.0,510.6773730367422,4.0,1.0,phase_1,,,,,,,,,,,,,green,hexagon
407.0,8.0,4.0,1.0,4.0,4.0,484.5912121236324,4.0,1.0,phase_1,,,,,,,,,,,,,yellow,cross
40.0,1.0,1.0,0.0,3.0,3.0,439.8934058845043,4.0,1.0,phase_1,,,,,,,,,,,,,blue,diamond
397.0,8.0,4.0,1.0,2.0,2.0,397.1834555268287,4.0,1.0,phase_1,,,,,,,,,,,,,yellow,cross
112.0,2.0,2.0,0.0,1.0,1.0,305.2332606166601,4.0,1.0,phase_1,,,,,,,,,,,,,orange,triangle
177.0,3.0,3.0,0.0,4.0,4.0,376.179963350296,4.0,1.0,phase_1,,,,,,,,,,,,,cyan,flipped triangle
0.0,7.0,3.0,1.0,5.0,5.0,516.779350116849,1.0,1.0,phase_2,stop,250.0,250.0,3.0,,,,,,,,,green,hexagon
0.0,7.0,3.0,1.0,6.0,0.0,0.0,1.0,1.0,phase_2,stop,200.0,250.0,4.0,,,,,,,,,green,hexagon
0.0,1.0,1.0,0.0,6.0,6.0,602.5610566139221,1.0,1.0,phase_2,go,200.0,300.0,1.0,,,,,,,,,blue,diamond
0.0,3.0,3.0,0.0,5.0,5.0,539.6667141467333,1.0,1.0,phase_2,go,200.0,300.0,1.0,,,,,,,,,cyan,flipped triangle
0.0,1.0,1.0,0.0,6.0,6.0,713.4802602231503,1.0,1.0,phase_2,go,200.0,300.0,1.0,,,,,,,,,blue,diamond
0.0,1.0,1.0,0.0,6.0,6.0,673.3461488038301,1.0,1.0,phase_2,go,200.0,300.0,1.0,,,,,,,,,blue,diamond
0.0,5.0,1.0,1.0,5.0,5.0,584.7982559353113,1.0,1.0,phase_2,go,200.0,300.0,1.0,,,,,,,,,white,circle
0.0,1.0,1.0,0.0,6.0,6.0,602.1169200539589,1.0,1.0,phase_2,go,200.0,300.0,1.0,,,,,,,,,blue,diamond
0.0,6.0,2.0,1.0,6.0,0.0,0.0,1.0,1.0,phase_2,stop,200.0,300.0,4.0,,,,,,,,,magenta,I
0.0,3.0,3.0,0.0,5.0,5.0,621.9523213803768,1.0,1.0,phase_2,go,200.0,350.0,1.0,,,,,,,,,cyan,flipped triangle
0.0,5.0,1.0,1.0,6.0,6.0,685.3301823139191,1.0,1.0,phase_2,go,200.0,350.0,1.0,,,,,,,,,white,circle
0.0,3.0,3.0,0.0,5.0,5.0,645.8840798586607,1.0,1.0,phase_2,go,200.0,350.0,1.0,,,,,,,,,cyan,flipped triangle
0.0,6.0,2.0,1.0,6.0,0.0,0.0,1.0,1.0,phase_2,stop,200.0,350.0,4.0,,,,,,,,,magenta,I
0.0,1.0,1.0,0.0,5.0,5.0,775.2780951559544,1.0,1.0,phase_2,go,200.0,400.0,1.0,,,,,,,,,blue,diamond
0.0,3.0,3.0,0.0,5.0,5.0,742.2355804592371,1.0,1.0,phase_2,go,200.0,400.0,1.0,,,,,,,,,cyan,flipped triangle
0.0,2.0,2.0,0.0,5.0,5.0,628.8982424885035,1.0,1.0,phase_2,go,200.0,400.0,1.0,,,,,,,,,orange,triangle
0.0,7.0,3.0,1.0,6.0,0.0,0.0,1.0,1.0,phase_2,stop,200.0,400.0,4.0,,,,,,,,,green,hexagon
0.0,6.0,2.0,1.0,6.0,0.0,0.0,1.0,1.0,phase_2,stop,200.0,450.0,4.0,,,,,,,,,magenta,I
0.0,6.0,2.0,1.0,5.0,0.0,0.0,1.0,1.0,phase_2,stop,200.0,500.0,4.0,,,,,,,,,magenta,I
0.0,1.0,1.0,0.0,5.0,5.0,640.5248567461967,1.0,1.0,phase_2,go,250.0,500.0,1.0,,,,,,,,,blue,diamond
0.0,6.0,2.0,1.0,5.0,5.0,579.0589563548565,1.0,1.0,phase_2,go,250.0,500.0,1.0,,,,,,,,,magenta,I
0.0,4.0,4.0,0.0,6.0,6.0,831.6020760685205,1.0,1.0,phase_2,go,250.0,500.0,1.0,,,,,,,,,gray,square
0.0,1.0,1.0,0.0,6.0,6.0,779.3085779994726,1.0,1.0,phase_2,go,250.0,500.0,1.0,,,,,,,,,blue,diamond
0.0,4.0,4.0,0.0,6.0,6.0,609.8510846495628,1.0,1.0,phase_2,go,250.0,500.0,1.0,,,,,,,,,gray,square
0.0,1.0,1.0,0.0,6.0,6.0,593.1032281368971,1.0,1.0,phase_2,go,250.0,500.0,1.0,,,,,,,,,blue,diamond
0.0,8.0,4.0,1.0,6.0,0.0,0.0,1.0,1.0,phase_2,stop,250.0,500.0,4.0,,,,,,,,,yellow,cross
0.0,1.0,1.0,0.0,6.0,6.0,790.0008801370859,1.0,1.0,phase_2,go,250.0,550.0,1.0,,,,,,,,,blue,diamond
0.0,2.0,2.0,0.0,5.0,5.0,548.804784193635,1.0,1.0,phase_2,go,250.0,550.0,1.0,,,,,,,,,orange,triangle
0.0,5.0,1.0,1.0,6.0,0.0,0.0,1.0,1.0,phase_2,stop,250.0,550.0,4.0,,,,,,,,,white,circle
0.0,2.0,2.0,0.0,5.0,5.0,428.9146792143583,1.0,1.0,phase_2,go,250.0,600.0,1.0,,,,,,,,,orange,triangle
0.0,7.0,3.0,1.0,6.0,6.0,682.7940195798874,1.0,1.0,phase_2,stop,250.0,600.0,3.0,,,,,,,,,green,hexagon
0.0,1.0,1.0,0.0,6.0,6.0,860.6200870126486,1.0,1.0,phase_2,go,250.0,550.0,1.0,,,,,,,,,blue,diamond
0.0,3.0,3.0,0.0,6.0,6.0,661.6169083863497,1.0,1.0,phase_2,go,250.0,550.0,1.0,,,,,,,,,cyan,flipped triangle
0.0,5.0,1.0,1.0,6.0,6.0,619.0699692815542,1.0,1.0,phase_2,stop,250.0,550.0,3.0,,,,,,,,,white,circle
0.0,4.0,4.0,0.0,6.0,6.0,754.5040715485811,1.0,1.0,phase_2,go,250.0,500.0,1.0,,,,,,,,,gray,square
0.0,6.0,2.0,1.0,5.0,0.0,0.0,1.0,1.0,phase_2,stop,250.0,500.0,4.0,,,,,,,,,magenta,I
0.0,8.0,4.0,1.0,6.0,6.0,576.4549989253283,2.0,1.0,phase_2,stop,300.0,500.0,3.0,,,,,,,,,yellow,cross
0.0,5.0,1.0,1.0,6.0,6.0,616.0435080528259,2.0,1.0,phase_2,go,300.0,450.0,1.0,,,,,,,,,white,circle
0.0,7.0,3.0,1.0,6.0,6.0,701.0235320776701,2.0,1.0,phase_2,go,300.0,450.0,1.0,,,,,,,,,green,hexagon
0.0,7.0,3.0,1.0,5.0,0.0,0.0,2.0,1.0,phase_2,stop,300.0,450.0,4.0,,,,,,,,,green,hexagon
0.0,6.0,2.0,1.0,5.0,5.0,685.8449894934893,2.0,1.0,phase_2,go,350.0,450.0,1.0,,,,,,,,,magenta,I
0.0,7.0,3.0,1.0,5.0,5.0,412.0684321969747,2.0,1.0,phase_2,go,350.0,450.0,1.0,,,,,,,,,green,hexagon
0.0,4.0,4.0,0.0,5.0,5.0,581.0767374932766,2.0,1.0,phase_2,go,350.0,450.0,1.0,,,,,,,,,gray,square
0.0,2.0,2.0,0.0,5.0,5.0,549.6730841696262,2.0,1.0,phase_2,go,350.0,450.0,1.0,,,,,,,,,orange,triangle
0.0,4.0,4.0,0.0,5.0,5.0,650.1028034836054,2.0,1.0,phase_2,go,350.0,450.0,1.0,,,,,,,,,gray,square
0.0,8.0,4.0,1.0,5.0,0.0,0.0,2.0,1.0,phase_2,stop,350.0,450.0,4.0,,,,,,,,,yellow,cross
0.0,1.0,1.0,0.0,5.0,5.0,780.1381517201662,2.0,1.0,phase_2,go,400.0,450.0,1.0,,,,,,,,,blue,diamond
0.0,3.0,3.0,0.0,5.0,5.0,364.2495367676019,2.0,1.0,phase_2,go,400.0,450.0,1.0,,,,,,,,,cyan,flipped triangle
0.0,6.0,2.0,1.0,6.0,0.0,0.0,2.0,1.0,phase_2,stop,400.0,450.0,4.0,,,,,,,,,magenta,I
0.0,5.0,1.0,1.0,5.0,5.0,471.6552905738354,2.0,1.0,phase_2,stop,400.0,500.0,3.0,,,,,,,,,white,circle
0.0,2.0,2.0,0.0,6.0,6.0,550.7560521364212,2.0,1.0,phase_2,go,350.0,500.0,1.0,,,,,,,,,orange,triangle
0.0,3.0,3.0,0.0,5.0,5.0,553.4203760325909,2.0,1.0,phase_2,go,350.0,500.0,1.0,,,,,,,,,cyan,flipped triangle
0.0,4.0,4.0,0.0,6.0,6.0,389.2819229513407,2.0,1.0,phase_2,go,350.0,500.0,1.0,,,,,,,,,gray,square
0.0,1.0,1.0,0.0,5.0,5.0,655.0393961369991,2.0,1.0,phase_2,go,350.0,500.0,1.0,,,,,,,,,blue,diamond
0.0,4.0,4.0,0.0,6.0,6.0,576.7330750823021,2.0,1.0,phase_2,go,350.0,500.0,1.0,,,,,,,,,gray,square
0.0,7.0,3.0,1.0,6.0,6.0,567.1757590025663,2.0,1.0,phase_2,stop,350.0,500.0,3.0,,,,,,,,,green,hexagon
0.0,6.0,2.0,1.0,5.0,0.0,0.0,2.0,1.0,phase_2,stop,350.0,450.0,4.0,,,,,,,,,magenta,I
0.0,8.0,4.0,1.0,5.0,5.0,621.9885759055614,2.0,1.0,phase_2,go,400.0,450.0,1.0,,,,,,,,,yellow,cross
0.0,6.0,2.0,1.0,5.0,5.0,499.0875478833914,2.0,1.0,phase_2,stop,400.0,450.0,3.0,,,,,,,,,magenta,I
0.0,7.0,3.0,1.0,5.0,0.0,0.0,2.0,1.0,phase_2,stop,350.0,450.0,4.0,,,,,,,,,green,hexagon
0.0,7.0,3.0,1.0,6.0,6.0,634.6558518707752,2.0,1.0,phase_2,go,400.0,450.0,1.0,,,,,,,,,green,hexagon
0.0,7.0,3.0,1.0,5.0,0.0,0.0,2.0,1.0,phase_2,stop,400.0,450.0,4.0,,,,,,,,,green,hexagon
0.0,2.0,2.0,0.0,6.0,6.0,761.0847055912018,2.0,1.0,phase_2,go,450.0,450.0,1.0,,,,,,,,,orange,triangle
0.0,8.0,4.0,1.0,6.0,6.0,650.4251454025507,2.0,1.0,phase_2,go,450.0,450.0,1.0,,,,,,,,,yellow,cross
0.0,7.0,3.0,1.0,5.0,5.0,456.2990199774503,2.0,1.0,phase_2,go,450.0,450.0,1.0,,,,,,,,,green,hexagon
0.0,8.0,4.0,1.0,5.0,5.0,655.0798639655113,2.0,1.0,phase_2,go,450.0,450.0,1.0,,,,,,,,,yellow,cross
0.0,2.0,2.0,0.0,5.0,5.0,425.2331051975488,2.0,1.0,phase_2,go,450.0,450.0,1.0,,,,,,,,,orange,triangle
0.0,1.0,1.0,0.0,5.0,5.0,509.4777215272188,2.0,1.0,phase_2,go,450.0,450.0,1.0,,,,,,,,,blue,diamond
0.0,5.0,1.0,1.0,5.0,5.0,585.0988011807203,2.0,1.0,phase_2,stop,450.0,450.0,3.0,,,,,,,,,white,circle
0.0,5.0,1.0,1.0,6.0,6.0,583.2009520381689,2.0,1.0,phase_2,go,400.0,450.0,1.0,,,,,,,,,white,circle
0.0,8.0,4.0,1.0,6.0,0.0,0.0,2.0,1.0,phase_2,stop,400.0,450.0,4.0,,,,,,,,,yellow,cross
0.0,1.0,1.0,0.0,5.0,5.0,743.152430281043,2.0,1.0,phase_2,go,400.0,500.0,1.0,,,,,,,,,blue,diamond
0.0,6.0,2.0,1.0,6.0,6.0,542.7659247070551,3.0,1.0,phase_2,stop,400.0,500.0,3.0,,,,,,,,,magenta,I
0.0,8.0,4.0,1.0,6.0,6.0,510.0825596600771,3.0,1.0,phase_2,stop,400.0,450.0,3.0,,,,,,,,,yellow,cross
0.0,1.0,1.0,0.0,6.0,6.0,673.008443787694,3.0,1.0,phase_2,go,400.0,400.0,1.0,,,,,,,,,blue,diamond
0.0,1.0,1.0,0.0,6.0,6.0,565.6010210514069,3.0,1.0,phase_2,go,400.0,400.0,1.0,,,,,,,,,blue,diamond
0.0,6.0,2.0,1.0,6.0,0.0,0.0,3.0,1.0,phase_2,stop,400.0,400.0,4.0,,,,,,,,,magenta,I
0.0,1.0,1.0,0.0,5.0,5.0,622.582333162427,3.0,1.0,phase_2,go,400.0,450.0,1.0,,,,,,,,,blue,diamond
0.0,3.0,3.0,0.0,6.0,6.0,676.0664712637663,3.0,1.0,phase_2,go,400.0,450.0,1.0,,,,,,,,,cyan,flipped triangle
0.0,7.0,3.0,1.0,5.0,5.0,381.1789713799953,3.0,1.0,phase_2,stop,400.0,450.0,3.0,,,,,,,,,green,hexagon
0.0,8.0,4.0,1.0,6.0,0.0,0.0,3.0,1.0,phase_2,stop,350.0,450.0,4.0,,,,,,,,,yellow,cross
0.0,7.0,3.0,1.0,6.0,6.0,682.0182539522648,3.0,1.0,phase_2,go,350.0,500.0,1.0,,,,,,,,,green,hexagon
0.0,3.0,3.0,0.0,6.0,6.0,588.0711823701859,3.0,1.0,phase_2,go,350.0,500.0,1.0,,,,,,,,,cyan,flipped triangle
0.0,7.0,3.0,1.0,6.0,6.0,617.7168656140566,3.0,1.0,phase_2,stop,350.0,500.0,3.0,,,,,,,,,green,hexagon
0.0,8.0,4.0,1.0,5.0,0.0,0.0,3.0,1.0,phase_2,stop,350.0,450.0,4.0,,,,,,,,,yellow,cross
0.0,2.0,2.0,0.0,6.0,6.0,784.0649299323559,3.0,1.0,phase_2,go,400.0,450.0,1.0,,,,,,,,,orange,triangle
0.0,3.0,3.0,0.0,5.0,5.0,702.9183357954025,3.0,1.0,phase_2,go,400.0,450.0,1.0,,,,,,,,,cyan,flipped triangle
0.0,4.0,4.0,0.0,6.0,6.0,410.0055396556854,3.0,1.0,phase_2,go,400.0,450.0,1.0,,,,,,,,,gray,square
0.0,7.0,3.0,1.0,5.0,0.0,0.0,3.0,1.0,phase_2,stop,400.0,450.0,4.0,,,,,,,,,green,hexagon
0.0,5.0,1.0,1.0,5.0,5.0,551.1054079979658,3.0,1.0,phase_2,stop,450.0,450.0,3.0,,,,,,,,,white,circle
0.0,1.0,1.0,0.0,6.0,6.0,765.4517237097025,3.0,1.0,phase_2,go,400.0,450.0,1.0,,,,,,,,,blue,diamond
0.0,8.0,4.0,1.0,6.0,0.0,0.0,3.0,1.0,phase_2,stop,400.0,450.0,4.0,,,,,,,,,yellow,cross
0.0,2.0,2.0,0.0,5.0,5.0,566.051272675395,3.0,1.0,phase_2,go,400.0,500.0,1.0,,,,,,,,,orange,triangle
0.0,2.0,2.0,0.0,6.0,6.0,485.0666038691997,3.0,1.0,phase_2,go,400.0,500.0,1.0,,,,,,,,,orange,triangle
0.0,3.0,3.0,0.0,6.0,6.0,650.9019937366247,3.0,1.0,phase_2,go,400.0,500.0,1.0,,,,,,,,,cyan,flipped triangle
0.0,7.0,3.0,1.0,5.0,5.0,589.3794056028128,3.0,1.0,phase_2,stop,400.0,500.0,3.0,,,,,,,,,green,hexagon
0.0,5.0,1.0,1.0,6.0,0.0,0.0,3.0,1.0,phase_2,stop,350.0,500.0,4.0,,,,,,,,,white,circle
0.0,6.0,2.0,1.0,6.0,6.0,570.3354198485613,3.0,1.0,phase_2,stop,350.0,550.0,3.0,,,,,,,,,magenta,I
0.0,6.0,2.0,1.0,5.0,5.0,524.3064146488905,3.0,1.0,phase_2,go,350.0,500.0,1.0,,,,,,,,,magenta,I
0.0,4.0,4.0,0.0,5.0,5.0,776.3992175459862,3.0,1.0,phase_2,go,350.0,500.0,1.0,,,,,,,,,gray,square
0.0,5.0,1.0,1.0,6.0,6.0,719.935953617096,3.0,1.0,phase_2,go,350.0,500.0,1.0,,,,,,,,,white,circle
0.0,3.0,3.0,0.0,5.0,5.0,530.4617006331682,3.0,1.0,phase_2,go,350.0,500.0,1.0,,,,,,,,,cyan,flipped triangle
0.0,2.0,2.0,0.0,6.0,6.0,504.24826331436634,3.0,1.0,phase_2,go,350.0,500.0,1.0,,,,,,,,,orange,triangle
0.0,2.0,2.0,0.0,6.0,6.0,688.2360000163317,3.0,1.0,phase_2,go,350.0,500.0,1.0,,,,,,,,,orange,triangle
0.0,1.0,1.0,0.0,5.0,5.0,750.8143056184053,3.0,1.0,phase_2,go,350.0,500.0,1.0,,,,,,,,,blue,diamond
0.0,1.0,1.0,0.0,5.0,5.0,599.3613339960575,3.0,1.0,phase_2,go,350.0,500.0,1.0,,,,,,,,,blue,diamond
0.0,8.0,4.0,1.0,5.0,0.0,0.0,3.0,1.0,phase_2,stop,350.0,500.0,4.0,,,,,,,,,yellow,cross
0.0,2.0,2.0,0.0,6.0,6.0,524.6533509343863,3.0,1.0,phase_2,go,400.0,500.0,1.0,,,,,,,,,orange,triangle
0.0,1.0,1.0,0.0,5.0,5.0,511.83974742889404,4.0,1.0,phase_2,go,400.0,500.0,1.0,,,,,,,,,blue,diamond
0.0,3.0,3.0,0.0,6.0,6.0,360.0232154130935,4.0,1.0,phase_2,go,400.0,500.0,1.0,,,,,,,,,cyan,flipped triangle
0.0,5.0,1.0,1.0,5.0,5.0,495.4253751784563,4.0,1.0,phase_2,stop,400.0,500.0,3.0,,,,,,,,,white,circle
0.0,5.0,1.0,1.0,5.0,5.0,511.58383674919605,4.0,1.0,phase_2,go,350.0,500.0,1.0,,,,,,,,,white,circle
0.0,1.0,1.0,0.0,5.0,5.0,597.2398910671473,4.0,1.0,phase_2,go,350.0,500.0,1.0,,,,,,,,,blue,diamond
0.0,2.0,2.0,0.0,6.0,6.0,508.86325910687447,4.0,1.0,phase_2,go,350.0,500.0,1.0,,,,,,,,,orange,triangle
0.0,7.0,3.0,1.0,6.0,6.0,456.0256190598011,4.0,1.0,phase_2,stop,350.0,500.0,3.0,,,,,,,,,green,hexagon
0.0,7.0,3.0,1.0,5.0,5.0,548.5618021339178,4.0,1.0,phase_2,go,350.0,450.0,1.0,,,,,,,,,green,hexagon
0.0,5.0,1.0,1.0,5.0,0.0,0.0,4.0,1.0,phase_2,stop,350.0,450.0,4.0,,,,,,,,,white,circle
0.0,6.0,2.0,1.0,6.0,0.0,0.0,4.0,1.0,phase_2,stop,400.0,450.0,4.0,,,,,,,,,magenta,I
0.0,4.0,4.0,0.0,6.0,6.0,669.659286737442,4.0,1.0,phase_2,go,400.0,500.0,1.0,,,,,,,,,gray,square
0.0,6.0,2.0,1.0,5.0,5.0,541.037417948246,4.0,1.0,phase_2,go,400.0,500.0,1.0,,,,,,,,,magenta,I
0.0,2.0,2.0,0.0,5.0,5.0,410.9834041446447,4.0,1.0,phase_2,go,400.0,500.0,1.0,,,,,,,,,orange,triangle
0.0,5.0,1.0,1.0,5.0,0.0,0.0,4.0,1.0,phase_2,stop,400.0,500.0,4.0,,,,,,,,,white,circle
0.0,8.0,4.0,1.0,5.0,0.0,0.0,4.0,1.0,phase_2,stop,450.0,500.0,4.0,,,,,,,,,yellow,cross
0.0,6.0,2.0,1.0,5.0,5.0,511.42693869769573,4.0,1.0,phase_2,go,500.0,500.0,1.0,,,,,,,,,magenta,I
0.0,6.0,2.0,1.0,6.0,6.0,559.6529692411423,4.0,1.0,phase_2,stop,500.0,500.0,3.0,,,,,,,,,magenta,I
0.0,3.0,3.0,0.0,6.0,6.0,478.30750420689577,4.0,1.0,phase_2,go,500.0,450.0,1.0,,,,,,,,,cyan,flipped triangle
0.0,1.0,1.0,0.0,6.0,6.0,593.3201890438795,4.0,1.0,phase_2,go,500.0,450.0,1.0,,,,,,,,,blue,diamond
0.0,5.0,1.0,1.0,6.0,6.0,591.2752076983452,4.0,1.0,phase_2,stop,500.0,450.0,3.0,,,,,,,,,white,circle
0.0,2.0,2.0,0.0,6.0,6.0,630.7629495859146,4.0,1.0,phase_2,go,500.0,400.0,1.0,,,,,,,,,orange,triangle
0.0,6.0,2.0,1.0,5.0,5.0,599.0284178406,4.0,1.0,phase_2,stop,500.0,400.0,3.0,,,,,,,,,magenta,I
0.0,7.0,3.0,1.0,6.0,0.0,0.0,4.0,1.0,phase_2,stop,450.0,400.0,4.0,,,,,,,,,green,hexagon
0.0,4.0,4.0,0.0,6.0,6.0,598.2706099748611,4.0,1.0,phase_2,go,450.0,450.0,1.0,,,,,,,,,gray,square
0.0,8.0,4.0,1.0,5.0,0.0,0.0,4.0,1.0,phase_2,stop,450.0,450.0,4.0,,,,,,,,,yellow,cross
0.0,8.0,4.0,1.0,5.0,5.0,660.2571308612823,4.0,1.0,phase_2,go,500.0,450.0,1.0,,,,,,,,,yellow,cross
0.0,5.0,1.0,1.0,5.0,5.0,555.6578561663628,4.0,1.0,phase_2,stop,500.0,450.0,3.0,,,,,,,,,white,circle
0.0,4.0,4.0,0.0,5.0,5.0,560.5759676545858,4.0,1.0,phase_2,go,450.0,450.0,1.0,,,,,,,,,gray,square
0.0,2.0,2.0,0.0,5.0,5.0,467.1591278165579,4.0,1.0,phase_2,go,450.0,450.0,1.0,,,,,,,,,orange,triangle
0.0,1.0,1.0,0.0,5.0,5.0,608.7608281522989,4.0,1.0,phase_2,go,450.0,450.0,1.0,,,,,,,,,blue,diamond
0.0,5.0,1.0,1.0,5.0,0.0,0.0,4.0,1.0,phase_2,stop,450.0,450.0,4.0,,,,,,,,,white,circle
0.0,5.0,1.0,1.0,5.0,0.0,0.0,4.0,1.0,phase_2,stop,500.0,450.0,4.0,,,,,,,,,white,circle
0.0,4.0,4.0,0.0,5.0,5.0,766.0156674683094,4.0,1.0,phase_2,go,550.0,450.0,1.0,,,,,,,,,gray,square
0.0,7.0,3.0,1.0,5.0,5.0,407.546304166317,4.0,1.0,phase_2,stop,550.0,450.0,3.0,,,,,,,,,green,hexagon
0.0,5.0,1.0,1.0,6.0,0.0,0.0,4.0,1.0,phase_2,stop,500.0,450.0,4.0,,,,,,,,,white,circle
0.0,2.0,2.0,0.0,6.0,6.0,605.9224531054497,4.0,1.0,phase_2,go,500.0,500.0,1.0,,,,,,,,,orange,triangle
0.0,8.0,4.0,1.0,6.0,6.0,722.0743671059608,5.0,1.0,phase_2,go,500.0,500.0,1.0,,,,,,,,,yellow,cross
0.0,3.0,3.0,0.0,5.0,5.0,454.6017237007618,5.0,1.0,phase_2,go,500.0,500.0,1.0,,,,,,,,,cyan,flipped triangle
0.0,8.0,4.0,1.0,5.0,5.0,600.9199675172567,5.0,1.0,phase_2,stop,500.0,500.0,3.0,,,,,,,,,yellow,cross
0.0,3.0,3.0,0.0,6.0,6.0,629.7520063817501,5.0,1.0,phase_2,go,450.0,500.0,1.0,,,,,,,,,cyan,flipped triangle
0.0,4.0,4.0,0.0,5.0,5.0,550.3839310258627,5.0,1.0,phase_2,go,450.0,500.0,1.0,,,,,,,,,gray,square
0.0,8.0,4.0,1.0,6.0,6.0,606.4935401082039,5.0,1.0,phase_2,go,450.0,500.0,1.0,,,,,,,,,yellow,cross
0.0,7.0,3.0,1.0,6.0,6.0,603.088503703475,5.0,1.0,phase_2,stop,450.0,500.0,3.0,,,,,,,,,green,hexagon
0.0,2.0,2.0,0.0,5.0,5.0,541.9214908033609,5.0,1.0,phase_2,go,450.0,450.0,1.0,,,,,,,,,orange,triangle
0.0,3.0,3.0,0.0,6.0,6.0,612.1678780764341,5.0,1.0,phase_2,go,450.0,450.0,1.0,,,,,,,,,cyan,flipped triangle
0.0,7.0,3.0,1.0,5.0,5.0,410.2863408625126,5.0,1.0,phase_2,stop,450.0,450.0,3.0,,,,,,,,,green,hexagon
0.0,8.0,4.0,1.0,6.0,6.0,788.966454565525,5.0,1.0,phase_2,go,400.0,450.0,1.0,,,,,,,,,yellow,cross
0.0,5.0,1.0,1.0,5.0,5.0,531.5137393772602,5.0,1.0,phase_2,stop,400.0,450.0,3.0,,,,,,,,,white,circle
0.0,1.0,1.0,0.0,6.0,6.0,707.5440380722284,5.0,1.0,phase_2,go,350.0,450.0,1.0,,,,,,,,,blue,diamond
0.0,4.0,4.0,0.0,6.0,6.0,614.8149874061346,5.0,1.0,phase_2,go,350.0,450.0,1.0,,,,,,,,,gray,square
0.0,3.0,3.0,0.0,6.0,6.0,458.6929194629192,5.0,1.0,phase_2,go,350.0,450.0,1.0,,,,,,,,,cyan,flipped triangle
0.0,3.0,3.0,0.0,5.0,5.0,639.9689540266991,5.0,1.0,phase_2,go,350.0,450.0,1.0,,,,,,,,,cyan,flipped triangle
0.0,6.0,2.0,1.0,6.0,6.0,534.7100049257278,5.0,1.0,phase_2,stop,350.0,450.0,3.0,,,,,,,,,magenta,I
0.0,4.0,4.0,0.0,5.0,5.0,657.1063548326492,5.0,1.0,phase_2,go,350.0,400.0,1.0,,,,,,,,,gray,square
0.0,6.0,2.0,1.0,5.0,5.0,422.9537080973387,5.0,1.0,phase_2,go,350.0,400.0,1.0,,,,,,,,,magenta,I
0.0,7.0,3.0,1.0,6.0,0.0,0.0,5.0,1.0,phase_2,stop,350.0,400.0,4.0,,,,,,,,,green,hexagon
0.0,7.0,3.0,1.0,5.0,5.0,639.7749595344067,5.0,1.0,phase_2,go,350.0,450.0,1.0,,,,,,,,,green,hexagon
0.0,4.0,4.0,0.0,6.0,6.0,613.3140902966261,5.0,1.0,phase_2,go,350.0,450.0,1.0,,,,,,,,,gray,square
0.0,8.0,4.0,1.0,6.0,0.0,0.0,5.0,1.0,phase_2,stop,350.0,450.0,4.0,,,,,,,,,yellow,cross
0.0,2.0,2.0,0.0,5.0,5.0,532.3679130524397,5.0,1.0,phase_2,go,350.0,500.0,1.0,,,,,,,,,orange,triangle
0.0,7.0,3.0,1.0,6.0,0.0,0.0,5.0,1.0,phase_2,stop,350.0,500.0,4.0,,,,,,,,,green,hexagon
0.0,2.0,2.0,0.0,6.0,6.0,587.8157448023558,5.0,1.0,phase_2,go,350.0,550.0,1.0,,,,,,,,,orange,triangle
0.0,3.0,3.0,0.0,5.0,5.0,699.540950357914,5.0,1.0,phase_2,go,350.0,550.0,1.0,,,,,,,,,cyan,flipped triangle
0.0,3.0,3.0,0.0,6.0,6.0,626.4944039285183,5.0,1.0,phase_2,go,350.0,550.0,1.0,,,,,,,,,cyan,flipped triangle
0.0,8.0,4.0,1.0,6.0,0.0,0.0,5.0,1.0,phase_2,stop,350.0,550.0,4.0,,,,,,,,,yellow,cross
0.0,3.0,3.0,0.0,5.0,5.0,536.6455391049385,5.0,1.0,phase_2,go,350.0,600.0,1.0,,,,,,,,,cyan,flipped triangle
0.0,5.0,1.0,1.0,6.0,6.0,589.4829761236906,5.0,1.0,phase_2,go,350.0,600.0,1.0,,,,,,,,,white,circle
0.0,7.0,3.0,1.0,5.0,0.0,0.0,5.0,1.0,phase_2,stop,350.0,600.0,4.0,,,,,,,,,green,hexagon
0.0,3.0,3.0,0.0,6.0,6.0,582.4135057628155,5.0,1.0,phase_2,go,400.0,600.0,1.0,,,,,,,,,cyan,flipped triangle
0.0,6.0,2.0,1.0,6.0,0.0,0.0,5.0,1.0,phase_2,stop,400.0,600.0,4.0,,,,,,,,,magenta,I
0.0,5.0,1.0,1.0,6.0,6.0,639.4130531698465,5.0,1.0,phase_2,stop,400.0,650.0,3.0,,,,,,,,,white,circle
0.0,5.0,1.0,1.0,5.0,0.0,0.0,5.0,1.0,phase_2,stop,400.0,600.0,4.0,,,,,,,,,white,circle
0.0,4.0,4.0,0.0,5.0,5.0,499.7625816613436,6.0,1.0,phase_2,go,450.0,600.0,1.0,,,,,,,,,gray,square
0.0,1.0,1.0,0.0,6.0,6.0,722.9483127593994,6.0,1.0,phase_2,go,450.0,600.0,1.0,,,,,,,,,blue,diamond
0.0,2.0,2.0,0.0,5.0,5.0,467.757124453783,6.0,1.0,phase_2,go,450.0,600.0,1.0,,,,,,,,,orange,triangle
0.0,2.0,2.0,0.0,6.0,6.0,283.6869284510612,6.0,1.0,phase_2,go,450.0,600.0,1.0,,,,,,,,,orange,triangle
0.0,6.0,2.0,1.0,5.0,5.0,432.336650788784,6.0,1.0,phase_2,stop,450.0,600.0,3.0,,,,,,,,,magenta,I
0.0,1.0,1.0,0.0,6.0,6.0,674.9582998454571,6.0,1.0,phase_2,go,400.0,600.0,1.0,,,,,,,,,blue,diamond
0.0,6.0,2.0,1.0,5.0,5.0,457.1943189948797,6.0,1.0,phase_2,stop,400.0,600.0,3.0,,,,,,,,,magenta,I
0.0,7.0,3.0,1.0,6.0,6.0,552.4193160235882,6.0,1.0,phase_2,stop,350.0,600.0,3.0,,,,,,,,,green,hexagon
0.0,1.0,1.0,0.0,6.0,6.0,990.196792408824,6.0,1.0,phase_2,go,350.0,550.0,1.0,,,,,,,,,blue,diamond
0.0,3.0,3.0,0.0,6.0,6.0,783.0256540328264,6.0,1.0,phase_2,go,350.0,550.0,1.0,,,,,,,,,cyan,flipped triangle
0.0,8.0,4.0,1.0,6.0,6.0,645.3965716063976,6.0,1.0,phase_2,stop,350.0,550.0,3.0,,,,,,,,,yellow,cross
0.0,7.0,3.0,1.0,5.0,5.0,542.8897384554148,6.0,1.0,phase_2,stop,350.0,500.0,3.0,,,,,,,,,green,hexagon
0.0,1.0,1.0,0.0,6.0,6.0,595.5377649515867,6.0,1.0,phase_2,go,300.0,500.0,1.0,,,,,,,,,blue,diamond
0.0,2.0,2.0,0.0,6.0,6.0,636.6002783179283,6.0,1.0,phase_2,go,300.0,500.0,1.0,,,,,,,,,orange,triangle
0.0,4.0,4.0,0.0,6.0,6.0,588.8294223695993,6.0,1.0,phase_2,go,300.0,500.0,1.0,,,,,,,,,gray,square
0.0,5.0,1.0,1.0,5.0,5.0,533.4709119051695,6.0,1.0,phase_2,go,300.0,500.0,1.0,,,,,,,,,white,circle
0.0,8.0,4.0,1.0,5.0,0.0,0.0,6.0,1.0,phase_2,stop,300.0,500.0,4.0,,,,,,,,,yellow,cross
0.0,1.0,1.0,0.0,6.0,6.0,713.3699618279934,6.0,1.0,phase_2,go,350.0,500.0,1.0,,,,,,,,,blue,diamond
0.0,6.0,2.0,1.0,6.0,0.0,0.0,6.0,1.0,phase_2,stop,350.0,500.0,4.0,,,,,,,,,magenta,I
0.0,7.0,3.0,1.0,5.0,0.0,0.0,6.0,1.0,phase_2,stop,350.0,550.0,4.0,,,,,,,,,green,hexagon
0.0,6.0,2.0,1.0,6.0,6.0,691.119784489274,6.0,1.0,phase_2,stop,400.0,550.0,3.0,,,,,,,,,magenta,I
0.0,2.0,2.0,0.0,5.0,5.0,583.047529682517,6.0,1.0,phase_2,go,400.0,500.0,1.0,,,,,,,,,orange,triangle
0.0,3.0,3.0,0.0,5.0,5.0,625.2843011170626,6.0,1.0,phase_2,go,400.0,500.0,1.0,,,,,,,,,cyan,flipped triangle
0.0,8.0,4.0,1.0,5.0,0.0,0.0,6.0,1.0,phase_2,stop,400.0,500.0,4.0,,,,,,,,,yellow,cross
0.0,3.0,3.0,0.0,5.0,5.0,575.9325735270977,6.0,1.0,phase_2,go,450.0,500.0,1.0,,,,,,,,,cyan,flipped triangle
0.0,5.0,1.0,1.0,5.0,0.0,0.0,6.0,1.0,phase_2,stop,450.0,500.0,4.0,,,,,,,,,white,circle
0.0,4.0,4.0,0.0,6.0,6.0,595.8600826561451,6.0,1.0,phase_2,go,500.0,500.0,1.0,,,,,,,,,gray,square
0.0,3.0,3.0,0.0,6.0,6.0,627.274876460433,6.0,1.0,phase_2,go,500.0,500.0,1.0,,,,,,,,,cyan,flipped triangle
0.0,4.0,4.0,0.0,6.0,6.0,466.3084000349045,6.0,1.0,phase_2,go,500.0,500.0,1.0,,,,,,,,,gray,square
0.0,4.0,4.0,0.0,5.0,5.0,420.8256714046001,6.0,1.0,phase_2,go,500.0,500.0,1.0,,,,,,,,,gray,square
0.0,2.0,2.0,0.0,5.0,5.0,572.5475940853357,6.0,1.0,phase_2,go,500.0,500.0,1.0,,,,,,,,,orange,triangle
0.0,2.0,2.0,0.0,5.0,5.0,421.241445466876,6.0,1.0,phase_2,go,500.0,500.0,1.0,,,,,,,,,orange,triangle
0.0,6.0,2.0,1.0,6.0,0.0,0.0,6.0,1.0,phase_2,stop,500.0,500.0,4.0,,,,,,,,,magenta,I
0.0,2.0,2.0,0.0,6.0,6.0,616.7316343635321,6.0,1.0,phase_2,go,500.0,550.0,1.0,,,,,,,,,orange,triangle
0.0,8.0,4.0,1.0,5.0,0.0,0.0,6.0,1.0,phase_2,stop,500.0,550.0,4.0,,,,,,,,,yellow,cross
0.0,1.0,1.0,0.0,5.0,5.0,584.7753938287497,6.0,1.0,phase_2,go,550.0,550.0,1.0,,,,,,,,,blue,diamond
0.0,5.0,1.0,1.0,6.0,6.0,965.0920666754246,7.0,1.0,phase_2,go,550.0,550.0,1.0,,,,,,,,,white,circle
0.0,5.0,1.0,1.0,6.0,6.0,622.8845715522766,7.0,1.0,phase_2,stop,550.0,550.0,3.0,,,,,,,,,white,circle
0.0,2.0,2.0,0.0,6.0,6.0,544.0475288778543,7.0,1.0,phase_2,go,550.0,500.0,1.0,,,,,,,,,orange,triangle
0.0,8.0,4.0,1.0,6.0,0.0,0.0,7.0,1.0,phase_2,stop,550.0,500.0,4.0,,,,,,,,,yellow,cross
0.0,8.0,4.0,1.0,5.0,0.0,0.0,7.0,1.0,phase_2,stop,550.0,550.0,4.0,,,,,,,,,yellow,cross
0.0,4.0,4.0,0.0,6.0,6.0,523.1737680733204,7.0,1.0,phase_2,go,600.0,550.0,1.0,,,,,,,,,gray,square
0.0,4.0,4.0,0.0,5.0,5.0,497.6888746023178,7.0,1.0,phase_2,go,600.0,550.0,1.0,,,,,,,,,gray,square
0.0,4.0,4.0,0.0,5.0,5.0,562.702551484108,7.0,1.0,phase_2,go,600.0,550.0,1.0,,,,,,,,,gray,square
0.0,3.0,3.0,0.0,5.0,5.0,530.7582244277,7.0,1.0,phase_2,go,600.0,550.0,1.0,,,,,,,,,cyan,flipped triangle
0.0,2.0,2.0,0.0,6.0,6.0,564.3049292266369,7.0,1.0,phase_2,go,600.0,550.0,1.0,,,,,,,,,orange,triangle
0.0,5.0,1.0,1.0,5.0,5.0,679.5482058078051,7.0,1.0,phase_2,stop,600.0,550.0,3.0,,,,,,,,,white,circle
0.0,3.0,3.0,0.0,6.0,6.0,507.3010288178921,7.0,1.0,phase_2,go,550.0,550.0,1.0,,,,,,,,,cyan,flipped triangle
0.0,7.0,3.0,1.0,6.0,6.0,647.2652312368155,7.0,1.0,phase_2,stop,550.0,550.0,3.0,,,,,,,,,green,hexagon
0.0,2.0,2.0,0.0,5.0,5.0,518.80993694067,7.0,1.0,phase_2,go,550.0,500.0,1.0,,,,,,,,,orange,triangle
0.0,3.0,3.0,0.0,5.0,5.0,573.7217459827662,7.0,1.0,phase_2,go,550.0,500.0,1.0,,,,,,,,,cyan,flipped triangle
0.0,6.0,2.0,1.0,5.0,0.0,0.0,7.0,1.0,phase_2,stop,550.0,500.0,4.0,,,,,,,,,magenta,I
0.0,6.0,2.0,1.0,6.0,6.0,1228.3826936036348,7.0,1.0,phase_2,go,600.0,500.0,1.0,,,,,,,,,magenta,I
0.0,2.0,2.0,0.0,5.0,5.0,781.9304596632719,7.0,1.0,phase_2,go,600.0,500.0,1.0,,,,,,,,,orange,triangle
0.0,4.0,4.0,0.0,5.0,5.0,533.6948242038488,7.0,1.0,phase_2,go,600.0,500.0,1.0,,,,,,,,,gray,square
0.0,4.0,4.0,0.0,5.0,5.0,564.0747267752886,7.0,1.0,phase_2,go,600.0,500.0,1.0,,,,,,,,,gray,square
0.0,4.0,4.0,0.0,6.0,6.0,486.0159792006016,7.0,1.0,phase_2,go,600.0,500.0,1.0,,,,,,,,,gray,square
0.0,1.0,1.0,0.0,5.0,5.0,494.0313901752233,7.0,1.0,phase_2,go,600.0,500.0,1.0,,,,,,,,,blue,diamond
0.0,6.0,2.0,1.0,5.0,0.0,0.0,7.0,1.0,phase_2,stop,600.0,500.0,4.0,,,,,,,,,magenta,I
0.0,3.0,3.0,0.0,5.0,5.0,553.5146668553352,7.0,1.0,phase_2,go,650.0,500.0,1.0,,,,,,,,,cyan,flipped triangle
0.0,3.0,3.0,0.0,6.0,6.0,458.5771039128303,7.0,1.0,phase_2,go,650.0,500.0,1.0,,,,,,,,,cyan,flipped triangle
0.0,6.0,2.0,1.0,5.0,5.0,1319.7281751781702,7.0,1.0,phase_2,go,650.0,500.0,1.0,,,,,,,,,magenta,I
0.0,1.0,1.0,0.0,5.0,5.0,536.8821565061808,7.0,1.0,phase_2,go,650.0,500.0,1.0,,,,,,,,,blue,diamond
0.0,8.0,4.0,1.0,5.0,0.0,0.0,7.0,1.0,phase_2,stop,650.0,500.0,4.0,,,,,,,,,yellow,cross
0.0,4.0,4.0,0.0,6.0,6.0,536.6599299013615,7.0,1.0,phase_2,go,700.0,500.0,1.0,,,,,,,,,gray,square
0.0,6.0,2.0,1.0,6.0,0.0,0.0,7.0,1.0,phase_2,stop,700.0,500.0,4.0,,,,,,,,,magenta,I
0.0,4.0,4.0,0.0,5.0,5.0,542.3418190330267,7.0,1.0,phase_2,go,700.0,550.0,1.0,,,,,,,,,gray,square
0.0,5.0,1.0,1.0,5.0,5.0,885.5808824300766,7.0,1.0,phase_2,stop,700.0,550.0,3.0,,,,,,,,,white,circle
0.0,6.0,2.0,1.0,6.0,6.0,1124.3924666196108,7.0,1.0,phase_2,go,650.0,550.0,1.0,,,,,,,,,magenta,I
0.0,5.0,1.0,1.0,6.0,0.0,0.0,7.0,1.0,phase_2,stop,650.0,550.0,4.0,,,,,,,,,white,circle
0.0,1.0,1.0,0.0,5.0,5.0,500.3258194774389,7.0,1.0,phase_2,go,650.0,600.0,1.0,,,,,,,,,blue,diamond
0.0,3.0,3.0,0.0,5.0,5.0,556.3537236303091,7.0,1.0,phase_2,go,650.0,600.0,1.0,,,,,,,,,cyan,flipped triangle
0.0,1.0,1.0,0.0,5.0,5.0,670.8535868674517,8.0,1.0,phase_2,go,650.0,600.0,1.0,,,,,,,,,blue,diamond
0.0,8.0,4.0,1.0,6.0,6.0,829.5060731470585,8.0,1.0,phase_2,stop,650.0,600.0,3.0,,,,,,,,,yellow,cross
0.0,8.0,4.0,1.0,6.0,6.0,1053.1805753707886,8.0,1.0,phase_2,go,650.0,550.0,1.0,,,,,,,,,yellow,cross
0.0,4.0,4.0,0.0,6.0,6.0,597.3066128790379,8.0,1.0,phase_2,go,650.0,550.0,1.0,,,,,,,,,gray,square
0.0,3.0,3.0,0.0,6.0,6.0,615.2849234640598,8.0,1.0,phase_2,go,650.0,550.0,1.0,,,,,,,,,cyan,flipped triangle
0.0,5.0,1.0,1.0,6.0,0.0,0.0,8.0,1.0,phase_2,stop,650.0,550.0,4.0,,,,,,,,,white,circle
0.0,5.0,1.0,1.0,6.0,0.0,0.0,8.0,1.0,phase_2,stop,650.0,600.0,4.0,,,,,,,,,white,circle
0.0,4.0,4.0,0.0,5.0,5.0,526.0369703173637,8.0,1.0,phase_2,go,650.0,650.0,1.0,,,,,,,,,gray,square
0.0,6.0,2.0,1.0,6.0,0.0,0.0,8.0,1.0,phase_2,stop,650.0,650.0,4.0,,,,,,,,,magenta,I
0.0,8.0,4.0,1.0,5.0,0.0,0.0,8.0,1.0,phase_2,stop,650.0,700.0,4.0,,,,,,,,,yellow,cross
0.0,1.0,1.0,0.0,5.0,5.0,660.80610640347,8.0,1.0,phase_2,go,700.0,700.0,1.0,,,,,,,,,blue,diamond
0.0,5.0,1.0,1.0,5.0,0.0,0.0,8.0,1.0,phase_2,stop,700.0,700.0,4.0,,,,,,,,,white,circle
0.0,7.0,3.0,1.0,5.0,5.0,602.708250284195,8.0,1.0,phase_2,stop,750.0,700.0,3.0,,,,,,,,,green,hexagon
0.0,2.0,2.0,0.0,5.0,5.0,599.8483058065176,8.0,1.0,phase_2,go,700.0,700.0,1.0,,,,,,,,,orange,triangle
0.0,8.0,4.0,1.0,6.0,0.0,0.0,8.0,1.0,phase_2,stop,700.0,700.0,4.0,,,,,,,,,yellow,cross
0.0,8.0,4.0,1.0,5.0,5.0,1270.253013819456,8.0,1.0,phase_2,go,700.0,750.0,1.0,,,,,,,,,yellow,cross
0.0,3.0,3.0,0.0,6.0,6.0,520.9326483309269,8.0,1.0,phase_2,go,700.0,750.0,1.0,,,,,,,,,cyan,flipped triangle
0.0,4.0,4.0,0.0,5.0,5.0,564.5225774496794,8.0,1.0,phase_2,go,700.0,750.0,1.0,,,,,,,,,gray,square
0.0,6.0,2.0,1.0,5.0,0.0,0.0,8.0,1.0,phase_2,stop,700.0,750.0,4.0,,,,,,,,,magenta,I
0.0,5.0,1.0,1.0,6.0,0.0,0.0,8.0,1.0,phase_2,stop,750.0,750.0,4.0,,,,,,,,,white,circle
0.0,7.0,3.0,1.0,5.0,5.0,1349.5983127504587,8.0,1.0,phase_2,go,750.0,800.0,1.0,,,,,,,,,green,hexagon
0.0,2.0,2.0,0.0,6.0,6.0,589.7132717072964,8.0,1.0,phase_2,go,750.0,800.0,1.0,,,,,,,,,orange,triangle
0.0,3.0,3.0,0.0,6.0,6.0,566.2103872746229,8.0,1.0,phase_2,go,750.0,800.0,1.0,,,,,,,,,cyan,flipped triangle
0.0,7.0,3.0,1.0,6.0,6.0,1185.3411123156548,8.0,1.0,phase_2,go,750.0,800.0,1.0,,,,,,,,,green,hexagon
0.0,7.0,3.0,1.0,6.0,0.0,0.0,8.0,1.0,phase_2,stop,750.0,800.0,4.0,,,,,,,,,green,hexagon
0.0,8.0,4.0,1.0,5.0,0.0,0.0,8.0,1.0,phase_2,stop,750.0,850.0,4.0,,,,,,,,,yellow,cross
0.0,4.0,4.0,0.0,5.0,5.0,585.8384892344475,8.0,1.0,phase_2,go,800.0,850.0,1.0,,,,,,,,,gray,square
0.0,7.0,3.0,1.0,6.0,0.0,0.0,8.0,1.0,phase_2,stop,800.0,850.0,4.0,,,,,,,,,green,hexagon
0.0,2.0,2.0,0.0,5.0,5.0,489.2600048333406,8.0,1.0,phase_2,go,800.0,900.0,1.0,,,,,,,,,orange,triangle
0.0,8.0,4.0,1.0,5.0,0.0,0.0,8.0,1.0,phase_2,stop,800.0,900.0,4.0,,,,,,,,,yellow,cross
0.0,2.0,2.0,0.0,6.0,6.0,525.7620252668858,8.0,1.0,phase_2,go,850.0,900.0,1.0,,,,,,,,,orange,triangle
0.0,5.0,1.0,1.0,6.0,0.0,0.0,8.0,1.0,phase_2,stop,850.0,900.0,4.0,,,,,,,,,white,circle
0.0,4.0,4.0,0.0,6.0,6.0,628.7582479417324,8.0,1.0,phase_2,go,850.0,950.0,1.0,,,,,,,,,gray,square
0.0,6.0,2.0,1.0,5.0,0.0,0.0,8.0,1.0,phase_2,stop,850.0,950.0,4.0,,,,,,,,,magenta,I
0.0,8.0,4.0,1.0,6.0,0.0,0.0,8.0,1.0,phase_2,stop,900.0,950.0,4.0,,,,,,,,,yellow,cross
0.0,4.0,4.0,0.0,5.0,5.0,614.418039098382,8.0,1.0,phase_2,go,900.0,1000.0,1.0,,,,,,,,,gray,square
0.0,8.0,4.0,1.0,7.0,5.0,2437.6856181770563,1.0,1.0,phase_3,,,,,68.0,2.0,136.0,102.0,34.0,204.0,68.0,170.0,yellow,cross
0.0,1.0,1.0,0.0,7.0,3.0,1784.8202399909496,1.0,1.0,phase_3,,,,,156.0,4.0,195.0,78.0,156.0,234.0,39.0,117.0,blue,diamond
0.0,1.0,1.0,0.0,7.0,2.0,1690.3546005487442,1.0,1.0,phase_3,,,,,270.0,5.0,54.0,270.0,324.0,216.0,162.0,108.0,blue,diamond
0.0,2.0,2.0,0.0,7.0,5.0,1517.2252114862204,1.0,1.0,phase_3,,,,,132.0,3.0,176.0,264.0,88.0,220.0,132.0,44.0,orange,triangle
0.0,8.0,4.0,1.0,7.0,5.0,1227.362520992756,1.0,1.0,phase_3,,,,,196.0,4.0,147.0,98.0,49.0,294.0,196.0,245.0,yellow,cross
0.0,5.0,1.0,1.0,7.0,2.0,1117.209067568183,1.0,1.0,phase_3,,,,,44.0,1.0,264.0,44.0,88.0,220.0,132.0,176.0,white,circle
0.0,5.0,1.0,1.0,7.0,6.0,1455.58612793684,1.0,1.0,phase_3,,,,,39.0,1.0,78.0,117.0,195.0,234.0,156.0,39.0,white,circle
0.0,1.0,1.0,0.0,7.0,3.0,1312.0814263820648,1.0,1.0,phase_3,,,,,220.0,5.0,44.0,264.0,220.0,176.0,132.0,88.0,blue,diamond
0.0,7.0,3.0,1.0,7.0,1.0,1611.4432513713837,1.0,1.0,phase_3,,,,,117.0,3.0,117.0,78.0,39.0,234.0,195.0,156.0,green,hexagon
0.0,1.0,1.0,0.0,7.0,6.0,1626.4627631753683,1.0,1.0,phase_3,,,,,264.0,6.0,176.0,44.0,88.0,220.0,132.0,264.0,blue,diamond
0.0,8.0,4.0,1.0,7.0,3.0,1221.6178197413683,1.0,1.0,phase_3,,,,,44.0,1.0,176.0,88.0,44.0,132.0,264.0,220.0,yellow,cross
0.0,3.0,3.0,0.0,7.0,1.0,845.2731929719448,1.0,1.0,phase_3,,,,,220.0,5.0,220.0,44.0,176.0,132.0,88.0,264.0,cyan,flipped triangle
0.0,5.0,1.0,1.0,7.0,6.0,1086.7445524781942,1.0,1.0,phase_3,,,,,34.0,1.0,68.0,136.0,170.0,102.0,204.0,34.0,white,circle
0.0,3.0,3.0,0.0,7.0,1.0,1026.7215427011251,1.0,1.0,phase_3,,,,,147.0,3.0,147.0,245.0,98.0,196.0,49.0,294.0,cyan,flipped triangle
0.0,7.0,3.0,1.0,7.0,6.0,1387.9291284829378,1.0,1.0,phase_3,,,,,132.0,3.0,220.0,88.0,264.0,176.0,44.0,132.0,green,hexagon
0.0,8.0,4.0,1.0,7.0,3.0,1754.112582653761,1.0,1.0,phase_3,,,,,78.0,2.0,195.0,39.0,78.0,117.0,156.0,234.0,yellow,cross
0.0,8.0,4.0,1.0,7.0,5.0,1846.8203153461216,1.0,1.0,phase_3,,,,,270.0,5.0,162.0,108.0,324.0,216.0,270.0,54.0,yellow,cross
0.0,3.0,3.0,0.0,7.0,6.0,1656.995991244912,1.0,1.0,phase_3,,,,,204.0,6.0,102.0,136.0,68.0,34.0,170.0,204.0,cyan,flipped triangle
0.0,3.0,3.0,0.0,7.0,2.0,1590.8532086759806,1.0,1.0,phase_3,,,,,234.0,6.0,195.0,234.0,156.0,78.0,117.0,39.0,cyan,flipped triangle
0.0,1.0,1.0,0.0,7.0,3.0,1256.5276771783829,1.0,1.0,phase_3,,,,,270.0,5.0,324.0,108.0,270.0,162.0,54.0,216.0,blue,diamond
0.0,1.0,1.0,0.0,7.0,3.0,1026.1165592819452,2.0,1.0,phase_3,,,,,147.0,3.0,245.0,49.0,147.0,98.0,196.0,294.0,blue,diamond
0.0,2.0,2.0,0.0,7.0,5.0,1053.5082947462795,2.0,1.0,phase_3,,,,,136.0,4.0,68.0,170.0,102.0,34.0,136.0,204.0,orange,triangle
0.0,1.0,1.0,0.0,7.0,2.0,1303.7106599658728,2.0,1.0,phase_3,,,,,204.0,6.0,170.0,204.0,68.0,102.0,136.0,34.0,blue,diamond
0.0,4.0,4.0,0.0,7.0,6.0,1208.042399957776,2.0,1.0,phase_3,,,,,204.0,6.0,170.0,102.0,136.0,34.0,68.0,204.0,gray,square
0.0,7.0,3.0,1.0,7.0,1.0,1177.534120157361,2.0,1.0,phase_3,,,,,98.0,2.0,98.0,196.0,245.0,294.0,147.0,49.0,green,hexagon
0.0,6.0,2.0,1.0,7.0,4.0,2032.8762736171484,2.0,1.0,phase_3,,,,,196.0,4.0,245.0,147.0,98.0,196.0,49.0,294.0,magenta,I
0.0,5.0,1.0,1.0,7.0,2.0,1252.801101654768,2.0,1.0,phase_3,,,,,117.0,3.0,234.0,117.0,195.0,78.0,39.0,156.0,white,circle
0.0,8.0,4.0,1.0,7.0,5.0,1651.312803849578,2.0,1.0,phase_3,,,,,147.0,3.0,98.0,196.0,49.0,294.0,147.0,245.0,yellow,cross
0.0,8.0,4.0,1.0,7.0,6.0,837.6578185707331,2.0,1.0,phase_3,,,,,102.0,3.0,136.0,68.0,204.0,34.0,170.0,102.0,yellow,cross
0.0,1.0,1.0,0.0,7.0,6.0,1162.0389688760042,2.0,1.0,phase_3,,,,,204.0,6.0,34.0,102.0,170.0,136.0,68.0,204.0,blue,diamond
0.0,4.0,4.0,0.0,7.0,4.0,983.9512668550014,2.0,1.0,phase_3,,,,,176.0,4.0,132.0,88.0,44.0,176.0,220.0,264.0,gray,square
0.0,5.0,1.0,1.0,7.0,3.0,2329.08739335835,2.0,1.0,phase_3,,,,,196.0,4.0,98.0,294.0,196.0,147.0,49.0,245.0,white,circle
0.0,2.0,2.0,0.0,7.0,5.0,1677.7469851076603,2.0,1.0,phase_3,,,,,162.0,3.0,54.0,216.0,270.0,324.0,162.0,108.0,orange,triangle
0.0,4.0,4.0,0.0,7.0,1.0,1174.5301838964224,2.0,1.0,phase_3,,,,,324.0,6.0,324.0,54.0,216.0,162.0,270.0,108.0,gray,square
0.0,7.0,3.0,1.0,7.0,6.0,904.6473242342472,2.0,1.0,phase_3,,,,,102.0,3.0,136.0,68.0,170.0,34.0,204.0,102.0,green,hexagon
0.0,4.0,4.0,0.0,7.0,5.0,960.2249413728714,2.0,1.0,phase_3,,,,,216.0,4.0,270.0,108.0,54.0,162.0,216.0,324.0,gray,square
0.0,8.0,4.0,1.0,7.0,3.0,2570.687387138605,2.0,1.0,phase_3,,,,,132.0,3.0,176.0,44.0,132.0,88.0,220.0,264.0,yellow,cross
0.0,6.0,2.0,1.0,7.0,5.0,2069.170603528619,2.0,1.0,phase_3,,,,,78.0,2.0,234.0,39.0,117.0,156.0,78.0,195.0,magenta,I
0.0,2.0,2.0,0.0,7.0,3.0,1692.6370076835155,2.0,1.0,phase_3,,,,,132.0,3.0,220.0,264.0,132.0,88.0,44.0,176.0,orange,triangle
0.0,6.0,2.0,1.0,7.0,5.0,3005.788888782263,2.0,1.0,phase_3,,,,,54.0,1.0,216.0,162.0,108.0,324.0,54.0,270.0,magenta,I
0.0,6.0,2.0,1.0,7.0,5.0,1686.6077948361635,3.0,1.0,phase_3,,,,,117.0,3.0,39.0,78.0,234.0,156.0,117.0,195.0,magenta,I
0.0,3.0,3.0,0.0,7.0,4.0,1437.4862555414438,3.0,1.0,phase_3,,,,,234.0,6.0,39.0,78.0,117.0,234.0,195.0,156.0,cyan,flipped triangle
0.0,3.0,3.0,0.0,7.0,2.0,2048.600940033793,3.0,1.0,phase_3,,,,,204.0,6.0,102.0,204.0,136.0,34.0,68.0,170.0,cyan,flipped triangle
0.0,4.0,4.0,0.0,7.0,4.0,951.6663588583468,3.0,1.0,phase_3,,,,,294.0,6.0,49.0,245.0,98.0,294.0,147.0,196.0,gray,square
0.0,6.0,2.0,1.0,7.0,5.0,1964.520076289773,3.0,1.0,phase_3,,,,,88.0,2.0,44.0,220.0,176.0,264.0,88.0,132.0,magenta,I
0.0,2.0,2.0,0.0,7.0,5.0,1397.2880877554417,3.0,1.0,phase_3,,,,,117.0,3.0,195.0,156.0,234.0,78.0,117.0,39.0,orange,triangle
0.0,3.0,3.0,0.0,7.0,4.0,1811.2585619091988,3.0,1.0,phase_3,,,,,132.0,3.0,44.0,220.0,88.0,132.0,264.0,176.0,cyan,flipped triangle
0.0,4.0,4.0,0.0,7.0,4.0,974.7688584029676,3.0,1.0,phase_3,,,,,204.0,6.0,68.0,34.0,102.0,204.0,170.0,136.0,gray,square
0.0,3.0,3.0,0.0,7.0,3.0,1128.313472494483,3.0,1.0,phase_3,,,,,270.0,5.0,216.0,162.0,270.0,324.0,54.0,108.0,cyan,flipped triangle
0.0,5.0,1.0,1.0,7.0,6.0,1203.5118602216244,3.0,1.0,phase_3,,,,,132.0,3.0,176.0,264.0,220.0,44.0,88.0,132.0,white,circle
0.0,5.0,1.0,1.0,7.0,1.0,2049.7121829539537,3.0,1.0,phase_3,,,,,98.0,2.0,98.0,147.0,49.0,245.0,294.0,196.0,white,circle
0.0,1.0,1.0,0.0,7.0,2.0,1573.4494626522064,3.0,1.0,phase_3,,,,,294.0,6.0,245.0,294.0,196.0,98.0,49.0,147.0,blue,diamond
0.0,5.0,1.0,1.0,7.0,4.0,1646.5740781277418,3.0,1.0,phase_3,,,,,54.0,1.0,216.0,324.0,108.0,54.0,162.0,270.0,white,circle
0.0,5.0,1.0,1.0,7.0,5.0,1037.3794361948967,3.0,1.0,phase_3,,,,,68.0,2.0,170.0,34.0,204.0,102.0,68.0,136.0,white,circle
0.0,7.0,3.0,1.0,7.0,3.0,1336.5010190755129,3.0,1.0,phase_3,,,,,39.0,1.0,234.0,117.0,39.0,195.0,78.0,156.0,green,hexagon
0.0,7.0,3.0,1.0,7.0,1.0,881.0857478529215,3.0,1.0,phase_3,,,,,34.0,1.0,34.0,102.0,136.0,170.0,204.0,68.0,green,hexagon
0.0,4.0,4.0,0.0,7.0,3.0,1093.074843287468,3.0,1.0,phase_3,,,,,234.0,6.0,156.0,78.0,234.0,39.0,117.0,195.0,gray,square
0.0,7.0,3.0,1.0,7.0,1.0,1019.9969206005337,3.0,1.0,phase_3,,,,,44.0,1.0,44.0,264.0,88.0,220.0,132.0,176.0,green,hexagon
0.0,7.0,3.0,1.0,7.0,4.0,1197.6584922522306,3.0,1.0,phase_3,,,,,196.0,4.0,98.0,49.0,294.0,196.0,147.0,245.0,green,hexagon
0.0,2.0,2.0,0.0,7.0,2.0,1582.1673553436997,3.0,1.0,phase_3,,,,,204.0,6.0,68.0,204.0,102.0,170.0,34.0,136.0,orange,triangle
0.0,6.0,2.0,1.0,7.0,4.0,937.8773253411056,4.0,1.0,phase_3,,,,,68.0,2.0,34.0,204.0,102.0,68.0,170.0,136.0,magenta,I
0.0,1.0,1.0,0.0,7.0,3.0,1108.5308771580458,4.0,1.0,phase_3,,,,,195.0,5.0,39.0,78.0,195.0,117.0,156.0,234.0,blue,diamond
0.0,6.0,2.0,1.0,7.0,5.0,1475.4246044903994,4.0,1.0,phase_3,,,,,49.0,1.0,294.0,147.0,196.0,98.0,49.0,245.0,magenta,I
0.0,6.0,2.0,1.0,7.0,1.0,774.2445766925812,4.0,1.0,phase_3,,,,,88.0,2.0,88.0,264.0,132.0,176.0,220.0,44.0,magenta,I
0.0,3.0,3.0,0.0,7.0,2.0,1766.7857334017754,4.0,1.0,phase_3,,,,,245.0,5.0,49.0,245.0,147.0,98.0,294.0,196.0,cyan,flipped triangle
0.0,2.0,2.0,0.0,7.0,6.0,906.1657842248678,4.0,1.0,phase_3,,,,,196.0,4.0,294.0,245.0,147.0,49.0,98.0,196.0,orange,triangle
0.0,8.0,4.0,1.0,7.0,4.0,809.7429480403662,4.0,1.0,phase_3,,,,,39.0,1.0,117.0,195.0,234.0,39.0,156.0,78.0,yellow,cross
0.0,7.0,3.0,1.0,7.0,2.0,1957.6060380786655,4.0,1.0,phase_3,,,,,54.0,1.0,108.0,54.0,216.0,270.0,324.0,162.0,green,hexagon
0.0,8.0,4.0,1.0,7.0,6.0,1068.4633534401655,4.0,1.0,phase_3,,,,,54.0,1.0,270.0,108.0,324.0,162.0,216.0,54.0,yellow,cross
0.0,4.0,4.0,0.0,7.0,4.0,1159.4088170677423,4.0,1.0,phase_3,,,,,264.0,6.0,220.0,88.0,176.0,264.0,44.0,132.0,gray,square
0.0,4.0,4.0,0.0,7.0,3.0,1111.5909554064274,4.0,1.0,phase_3,,,,,294.0,6.0,245.0,49.0,294.0,98.0,147.0,196.0,gray,square
0.0,3.0,3.0,0.0,7.0,4.0,951.8126361072063,4.0,1.0,phase_3,,,,,324.0,6.0,108.0,162.0,54.0,324.0,270.0,216.0,cyan,flipped triangle
0.0,2.0,2.0,0.0,7.0,5.0,1435.725174844265,4.0,1.0,phase_3,,,,,234.0,6.0,78.0,117.0,156.0,195.0,234.0,39.0,orange,triangle
0.0,4.0,4.0,0.0,7.0,2.0,1332.5123377144337,4.0,1.0,phase_3,,,,,195.0,5.0,117.0,195.0,234.0,78.0,156.0,39.0,gray,square
0.0,6.0,2.0,1.0,7.0,1.0,1180.989956483245,4.0,1.0,phase_3,,,,,68.0,2.0,68.0,34.0,136.0,102.0,170.0,204.0,magenta,I
0.0,5.0,1.0,1.0,7.0,5.0,1631.3614919781685,4.0,1.0,phase_3,,,,,108.0,2.0,270.0,54.0,324.0,216.0,108.0,162.0,white,circle
0.0,6.0,2.0,1.0,7.0,5.0,800.3180976957083,4.0,1.0,phase_3,,,,,54.0,1.0,216.0,270.0,108.0,324.0,54.0,162.0,magenta,I
0.0,2.0,2.0,0.0,7.0,4.0,1056.6086303442717,4.0,1.0,phase_3,,,,,162.0,3.0,324.0,270.0,54.0,162.0,108.0,216.0,orange,triangle
0.0,7.0,3.0,1.0,7.0,2.0,2201.366839930415,4.0,1.0,phase_3,,,,,270.0,5.0,108.0,270.0,324.0,216.0,162.0,54.0,green,hexagon
0.0,2.0,2.0,0.0,7.0,6.0,764.9141680449247,4.0,1.0,phase_3,,,,,98.0,2.0,196.0,147.0,49.0,245.0,294.0,98.0,orange,triangle
