raw_reward_magnitude,stim_reward,stepwise_reward_magnitude,paired_with_stopping,stim_location,response,reaction_time,block,num_trial_presentations,which_phase,stop_signal_trial_type,left_SSD,right_SSD,accuracy,chosen_bidding_amount,chosen_bidding_level,possible_bid_1,possible_bid_2,possible_bid_3,possible_bid_4,possible_bid_5,possible_bid_6,color_text,shape_text
201.0,7.0,3.0,1.0,4.0,4.0,604.0376480668783,1.0,1.0,phase_1,,,,,,,,,,,,,yellow,circle
209.0,3.0,3.0,0.0,1.0,1.0,455.5495511740446,1.0,1.0,phase_1,,,,,,,,,,,,,gray,square
0.0,2.0,0.0,0.0,1.0,1.0,435.4203045368194,1.0,1.0,phase_1,,,,,,,,,,,,,orange,I
398.0,4.0,4.0,0.0,1.0,1.0,514.5788602530956,1.0,1.0,phase_1,,,,,,,,,,,,,cyan,diamond
0.0,6.0,0.0,1.0,3.0,3.0,447.7738067507744,1.0,1.0,phase_1,,,,,,,,,,,,,blue,triangle
412.0,8.0,4.0,1.0,4.0,4.0,868.9508643001318,1.0,1.0,phase_1,,,,,,,,,,,,,green,flipped triangle
418.0,8.0,4.0,1.0,2.0,2.0,511.92803867161274,1.0,1.0,phase_1,,,,,,,,,,,,,green,flipped triangle
389.0,4.0,4.0,0.0,4.0,4.0,379.8249755054712,1.0,1.0,phase_1,,,,,,,,,,,,,cyan,diamond
220.0,7.0,3.0,1.0,4.0,4.0,523.6482545733452,1.0,1.0,phase_1,,,,,,,,,,,,,yellow,circle
386.0,4.0,4.0,0.0,1.0,1.0,566.4912946522236,1.0,1.0,phase_1,,,,,,,,,,,,,cyan,diamond
392.0,4.0,4.0,0.0,1.0,1.0,352.5233939290046,1.0,1.0,phase_1,,,,,,,,,,,,,cyan,diamond
107.0,2.0,2.0,0.0,1.0,1.0,357.1998439729213,1.0,1.0,phase_1,,,,,,,,,,,,,orange,I
216.0,7.0,3.0,1.0,1.0,1.0,386.8673909455538,1.0,1.0,phase_1,,,,,,,,,,,,,yellow,circle
199.0,3.0,3.0,0.0,2.0,2.0,369.4152627140283,1.0,1.0,phase_1,,,,,,,,,,,,,gray,square
86.0,6.0,2.0,1.0,2.0,2.0,340.508246794343,1.0,1.0,phase_1,,,,,,,,,,,,,blue,triangle
100.0,2.0,2.0,0.0,2.0,2.0,457.742229104042,1.0,1.0,phase_1,,,,,,,,,,,,,orange,I
29.0,5.0,1.0,1.0,1.0,1.0,311.6681519895792,1.0,1.0,phase_1,,,,,,,,,,,,,white,hexagon
0.0,1.0,0.0,0.0,1.0,1.0,474.4939710944891,1.0,1.0,phase_1,,,,,,,,,,,,,magenta,cross
190.0,3.0,3.0,0.0,3.0,3.0,376.5482418239116,1.0,1.0,phase_1,,,,,,,,,,,,,gray,square
382.0,8.0,4.0,1.0,3.0,3.0,351.095512509346,1.0,1.0,phase_1,,,,,,,,,,,,,green,flipped triangle
389.0,8.0,4.0,1.0,3.0,3.0,336.4042937755584,1.0,1.0,phase_1,,,,,,,,,,,,,green,flipped triangle
191.0,7.0,3.0,1.0,2.0,2.0,398.6914008855819,1.0,1.0,phase_1,,,,,,,,,,,,,yellow,circle
184.0,3.0,3.0,0.0,1.0,1.0,321.3336318731308,1.0,1.0,phase_1,,,,,,,,,,,,,gray,square
378.0,8.0,4.0,1.0,3.0,3.0,321.7686116695404,1.0,1.0,phase_1,,,,,,,,,,,,,green,flipped triangle
0.0,2.0,0.0,0.0,4.0,4.0,339.7127352654934,1.0,1.0,phase_1,,,,,,,,,,,,,orange,I
181.0,3.0,3.0,0.0,3.0,3.0,351.3306248933077,1.0,1.0,phase_1,,,,,,,,,,,,,gray,square
52.0,5.0,1.0,1.0,3.0,3.0,340.341180562973,1.0,1.0,phase_1,,,,,,,,,,,,,white,hexagon
0.0,3.0,0.0,0.0,1.0,1.0,323.3901504427194,1.0,1.0,phase_1,,,,,,,,,,,,,gray,square
30.0,5.0,1.0,1.0,1.0,1.0,286.6125609725714,1.0,1.0,phase_1,,,,,,,,,,,,,white,hexagon
0.0,4.0,0.0,0.0,2.0,2.0,413.1739269942045,1.0,1.0,phase_1,,,,,,,,,,,,,cyan,diamond
0.0,2.0,0.0,0.0,2.0,2.0,344.5950392633676,1.0,1.0,phase_1,,,,,,,,,,,,,orange,I
64.0,1.0,1.0,0.0,3.0,3.0,310.3891890496015,1.0,1.0,phase_1,,,,,,,,,,,,,magenta,cross
188.0,7.0,3.0,1.0,3.0,3.0,319.8631033301353,1.0,1.0,phase_1,,,,,,,,,,,,,yellow,circle
0.0,1.0,0.0,0.0,2.0,2.0,340.507160872221,1.0,1.0,phase_1,,,,,,,,,,,,,magenta,cross
38.0,5.0,1.0,1.0,4.0,4.0,257.9579874873161,1.0,1.0,phase_1,,,,,,,,,,,,,white,hexagon
180.0,7.0,3.0,1.0,2.0,2.0,312.9585105925798,1.0,1.0,phase_1,,,,,,,,,,,,,yellow,circle
177.0,3.0,3.0,0.0,2.0,2.0,458.3412166684866,1.0,1.0,phase_1,,,,,,,,,,,,,gray,square
95.0,6.0,2.0,1.0,3.0,3.0,416.1954708397388,1.0,1.0,phase_1,,,,,,,,,,,,,blue,triangle
392.0,8.0,4.0,1.0,1.0,1.0,262.728763744235,1.0,1.0,phase_1,,,,,,,,,,,,,green,flipped triangle
72.0,5.0,1.0,1.0,4.0,4.0,315.6828302890062,1.0,1.0,phase_1,,,,,,,,,,,,,white,hexagon
390.0,4.0,4.0,0.0,3.0,3.0,335.4178685694933,1.0,1.0,phase_1,,,,,,,,,,,,,cyan,diamond
395.0,8.0,4.0,1.0,4.0,4.0,323.1704160571098,1.0,1.0,phase_1,,,,,,,,,,,,,green,flipped triangle
401.0,8.0,4.0,1.0,3.0,3.0,327.2356428205967,1.0,1.0,phase_1,,,,,,,,,,,,,green,flipped triangle
0.0,8.0,0.0,1.0,2.0,2.0,405.959976837039,1.0,1.0,phase_1,,,,,,,,,,,,,green,flipped triangle
0.0,5.0,0.0,1.0,4.0,4.0,481.7610289901495,1.0,1.0,phase_1,,,,,,,,,,,,,white,hexagon
208.0,3.0,3.0,0.0,3.0,3.0,364.8111429065466,1.0,1.0,phase_1,,,,,,,,,,,,,gray,square
405.0,8.0,4.0,1.0,4.0,4.0,331.6371142864227,1.0,1.0,phase_1,,,,,,,,,,,,,green,flipped triangle
74.0,5.0,1.0,1.0,4.0,4.0,398.3740080147981,1.0,1.0,phase_1,,,,,,,,,,,,,white,hexagon
0.0,2.0,0.0,0.0,4.0,4.0,371.6633524745703,1.0,1.0,phase_1,,,,,,,,,,,,,orange,I
190.0,3.0,3.0,0.0,1.0,1.0,562.635276466608,1.0,1.0,phase_1,,,,,,,,,,,,,gray,square
405.0,8.0,4.0,1.0,1.0,1.0,348.4109211713075,1.0,1.0,phase_1,,,,,,,,,,,,,green,flipped triangle
92.0,6.0,2.0,1.0,2.0,2.0,619.6222025901079,1.0,1.0,phase_1,,,,,,,,,,,,,blue,triangle
0.0,5.0,0.0,1.0,3.0,3.0,344.5560522377491,1.0,1.0,phase_1,,,,,,,,,,,,,white,hexagon
192.0,3.0,3.0,0.0,4.0,4.0,300.6838094443083,1.0,1.0,phase_1,,,,,,,,,,,,,gray,square
93.0,6.0,2.0,1.0,3.0,3.0,361.6064563393593,1.0,1.0,phase_1,,,,,,,,,,,,,blue,triangle
0.0,5.0,0.0,1.0,1.0,1.0,270.8352394402027,1.0,1.0,phase_1,,,,,,,,,,,,,white,hexagon
0.0,8.0,0.0,1.0,3.0,3.0,266.2463393062353,1.0,1.0,phase_1,,,,,,,,,,,,,green,flipped triangle
56.0,1.0,1.0,0.0,4.0,4.0,286.4336520433426,1.0,1.0,phase_1,,,,,,,,,,,,,magenta,cross
53.0,5.0,1.0,1.0,3.0,3.0,291.4878781884908,1.0,1.0,phase_1,,,,,,,,,,,,,white,hexagon
396.0,8.0,4.0,1.0,2.0,2.0,414.0848685055971,1.0,1.0,phase_1,,,,,,,,,,,,,green,flipped triangle
378.0,8.0,4.0,1.0,1.0,1.0,278.412900865078,1.0,1.0,phase_1,,,,,,,,,,,,,green,flipped triangle
69.0,1.0,1.0,0.0,1.0,1.0,328.5304177552461,1.0,1.0,phase_1,,,,,,,,,,,,,magenta,cross
0.0,6.0,0.0,1.0,1.0,1.0,301.8214013427496,1.0,1.0,phase_1,,,,,,,,,,,,,blue,triangle
27.0,1.0,1.0,0.0,3.0,3.0,276.8310476094484,1.0,1.0,phase_1,,,,,,,,,,,,,magenta,cross
65.0,1.0,1.0,0.0,2.0,2.0,424.0945298224687,1.0,1.0,phase_1,,,,,,,,,,,,,magenta,cross
70.0,5.0,1.0,1.0,4.0,4.0,278.3028725534677,1.0,1.0,phase_1,,,,,,,,,,,,,white,hexagon
405.0,4.0,4.0,0.0,1.0,1.0,279.1346721351146,1.0,1.0,phase_1,,,,,,,,,,,,,cyan,diamond
190.0,7.0,3.0,1.0,4.0,4.0,311.7189146578312,1.0,1.0,phase_1,,,,,,,,,,,,,yellow,circle
120.0,2.0,2.0,0.0,3.0,3.0,330.2192576229572,1.0,1.0,phase_1,,,,,,,,,,,,,orange,I
76.0,6.0,2.0,1.0,2.0,2.0,295.8106249570846,1.0,1.0,phase_1,,,,,,,,,,,,,blue,triangle
45.0,1.0,1.0,0.0,2.0,2.0,331.4593937247991,1.0,1.0,phase_1,,,,,,,,,,,,,magenta,cross
107.0,2.0,2.0,0.0,1.0,1.0,302.84572020173067,1.0,1.0,phase_1,,,,,,,,,,,,,orange,I
33.0,5.0,1.0,1.0,3.0,3.0,260.2815944701433,1.0,1.0,phase_1,,,,,,,,,,,,,white,hexagon
417.0,8.0,4.0,1.0,2.0,2.0,312.3260829597711,1.0,1.0,phase_1,,,,,,,,,,,,,green,flipped triangle
200.0,7.0,3.0,1.0,1.0,1.0,284.5106311142444,1.0,1.0,phase_1,,,,,,,,,,,,,yellow,circle
0.0,7.0,0.0,1.0,3.0,3.0,252.7739312499761,1.0,1.0,phase_1,,,,,,,,,,,,,yellow,circle
188.0,7.0,3.0,1.0,3.0,3.0,336.1203875392675,1.0,1.0,phase_1,,,,,,,,,,,,,yellow,circle
0.0,8.0,0.0,1.0,1.0,1.0,461.8601687252521,1.0,1.0,phase_1,,,,,,,,,,,,,green,flipped triangle
180.0,7.0,3.0,1.0,3.0,3.0,320.180032402277,1.0,1.0,phase_1,,,,,,,,,,,,,yellow,circle
408.0,4.0,4.0,0.0,1.0,1.0,286.2623203545809,1.0,1.0,phase_1,,,,,,,,,,,,,cyan,diamond
421.0,4.0,4.0,0.0,4.0,4.0,292.923055589199,1.0,1.0,phase_1,,,,,,,,,,,,,cyan,diamond
420.0,8.0,4.0,1.0,2.0,2.0,358.4331944584846,1.0,1.0,phase_1,,,,,,,,,,,,,green,flipped triangle
86.0,2.0,2.0,0.0,4.0,4.0,251.96070037782192,1.0,1.0,phase_1,,,,,,,,,,,,,orange,I
386.0,4.0,4.0,0.0,1.0,1.0,326.9443791359663,1.0,1.0,phase_1,,,,,,,,,,,,,cyan,diamond
38.0,1.0,1.0,0.0,4.0,4.0,307.7867198735475,1.0,1.0,phase_1,,,,,,,,,,,,,magenta,cross
75.0,2.0,2.0,0.0,4.0,4.0,322.4683720618486,1.0,1.0,phase_1,,,,,,,,,,,,,orange,I
219.0,7.0,3.0,1.0,2.0,2.0,340.6662736088037,1.0,1.0,phase_1,,,,,,,,,,,,,yellow,circle
398.0,8.0,4.0,1.0,4.0,4.0,283.2592353224754,1.0,1.0,phase_1,,,,,,,,,,,,,green,flipped triangle
221.0,7.0,3.0,1.0,2.0,2.0,278.2497834414243,1.0,1.0,phase_1,,,,,,,,,,,,,yellow,circle
0.0,3.0,0.0,0.0,2.0,2.0,427.8321135789156,1.0,1.0,phase_1,,,,,,,,,,,,,gray,square
123.0,6.0,2.0,1.0,3.0,3.0,336.143784224987,1.0,1.0,phase_1,,,,,,,,,,,,,blue,triangle
412.0,8.0,4.0,1.0,1.0,1.0,260.9934154897928,1.0,1.0,phase_1,,,,,,,,,,,,,green,flipped triangle
114.0,6.0,2.0,1.0,2.0,2.0,348.5543373972177,1.0,1.0,phase_1,,,,,,,,,,,,,blue,triangle
381.0,4.0,4.0,0.0,3.0,3.0,295.6277336925268,1.0,1.0,phase_1,,,,,,,,,,,,,cyan,diamond
194.0,3.0,3.0,0.0,4.0,4.0,283.3555918186903,1.0,1.0,phase_1,,,,,,,,,,,,,gray,square
35.0,5.0,1.0,1.0,2.0,2.0,370.2878411859274,1.0,1.0,phase_1,,,,,,,,,,,,,white,hexagon
31.0,1.0,1.0,0.0,3.0,3.0,374.6974449604749,1.0,1.0,phase_1,,,,,,,,,,,,,magenta,cross
384.0,8.0,4.0,1.0,1.0,1.0,356.6596675664186,1.0,1.0,phase_1,,,,,,,,,,,,,green,flipped triangle
397.0,4.0,4.0,0.0,2.0,2.0,373.7235311418772,1.0,1.0,phase_1,,,,,,,,,,,,,cyan,diamond
413.0,4.0,4.0,0.0,1.0,1.0,428.9182387292385,1.0,1.0,phase_1,,,,,,,,,,,,,cyan,diamond
0.0,1.0,0.0,0.0,3.0,3.0,367.946159094572,2.0,1.0,phase_1,,,,,,,,,,,,,magenta,cross
65.0,5.0,1.0,1.0,3.0,3.0,366.7148444801569,2.0,1.0,phase_1,,,,,,,,,,,,,white,hexagon
0.0,7.0,0.0,1.0,2.0,2.0,443.1973788887262,2.0,1.0,phase_1,,,,,,,,,,,,,yellow,circle
0.0,3.0,0.0,0.0,1.0,1.0,562.0251856744289,2.0,1.0,phase_1,,,,,,,,,,,,,gray,square
0.0,8.0,0.0,1.0,4.0,4.0,302.988888695836,2.0,1.0,phase_1,,,,,,,,,,,,,green,flipped triangle
112.0,2.0,2.0,0.0,3.0,3.0,443.2626031339168,2.0,1.0,phase_1,,,,,,,,,,,,,orange,I
412.0,4.0,4.0,0.0,4.0,4.0,359.2688664793968,2.0,1.0,phase_1,,,,,,,,,,,,,cyan,diamond
0.0,7.0,0.0,1.0,3.0,3.0,396.0583228617906,2.0,1.0,phase_1,,,,,,,,,,,,,yellow,circle
416.0,8.0,4.0,1.0,3.0,3.0,311.6964548826217,2.0,1.0,phase_1,,,,,,,,,,,,,green,flipped triangle
191.0,3.0,3.0,0.0,4.0,4.0,282.7054820954799,2.0,1.0,phase_1,,,,,,,,,,,,,gray,square
120.0,6.0,2.0,1.0,1.0,1.0,270.8431165665388,2.0,1.0,phase_1,,,,,,,,,,,,,blue,triangle
386.0,8.0,4.0,1.0,3.0,3.0,307.451244443655,2.0,1.0,phase_1,,,,,,,,,,,,,green,flipped triangle
0.0,7.0,0.0,1.0,3.0,3.0,290.6866762787103,2.0,1.0,phase_1,,,,,,,,,,,,,yellow,circle
0.0,7.0,0.0,1.0,2.0,2.0,277.6287049055099,2.0,1.0,phase_1,,,,,,,,,,,,,yellow,circle
0.0,4.0,0.0,0.0,3.0,3.0,282.4652679264545,2.0,1.0,phase_1,,,,,,,,,,,,,cyan,diamond
376.0,4.0,4.0,0.0,2.0,2.0,295.0059119611978,2.0,1.0,phase_1,,,,,,,,,,,,,cyan,diamond
205.0,7.0,3.0,1.0,1.0,1.0,275.2967197448015,2.0,1.0,phase_1,,,,,,,,,,,,,yellow,circle
76.0,6.0,2.0,1.0,1.0,1.0,290.7072398811579,2.0,1.0,phase_1,,,,,,,,,,,,,blue,triangle
177.0,7.0,3.0,1.0,3.0,3.0,302.4547751992941,2.0,1.0,phase_1,,,,,,,,,,,,,yellow,circle
123.0,2.0,2.0,0.0,2.0,2.0,305.3823132067919,2.0,1.0,phase_1,,,,,,,,,,,,,orange,I
69.0,5.0,1.0,1.0,2.0,2.0,344.9321519583463,2.0,1.0,phase_1,,,,,,,,,,,,,white,hexagon
70.0,1.0,1.0,0.0,2.0,2.0,314.2467886209488,2.0,1.0,phase_1,,,,,,,,,,,,,magenta,cross
397.0,4.0,4.0,0.0,2.0,2.0,271.0740529000759,2.0,1.0,phase_1,,,,,,,,,,,,,cyan,diamond
183.0,7.0,3.0,1.0,2.0,2.0,302.4786449968815,2.0,1.0,phase_1,,,,,,,,,,,,,yellow,circle
216.0,3.0,3.0,0.0,2.0,2.0,298.8250888884067,2.0,1.0,phase_1,,,,,,,,,,,,,gray,square
42.0,5.0,1.0,1.0,3.0,3.0,296.0484307259321,2.0,1.0,phase_1,,,,,,,,,,,,,white,hexagon
386.0,8.0,4.0,1.0,1.0,1.0,306.9631084799766,2.0,1.0,phase_1,,,,,,,,,,,,,green,flipped triangle
117.0,6.0,2.0,1.0,4.0,4.0,263.3578162640333,2.0,1.0,phase_1,,,,,,,,,,,,,blue,triangle
201.0,3.0,3.0,0.0,4.0,4.0,292.1508271247148,2.0,1.0,phase_1,,,,,,,,,,,,,gray,square
30.0,1.0,1.0,0.0,2.0,2.0,318.0755507200956,2.0,2.0,phase_1,,,,,,,,,,,,,magenta,cross
201.0,3.0,3.0,0.0,4.0,4.0,298.3896154910326,2.0,1.0,phase_1,,,,,,,,,,,,,gray,square
0.0,1.0,0.0,0.0,4.0,4.0,326.9158657640219,2.0,1.0,phase_1,,,,,,,,,,,,,magenta,cross
114.0,2.0,2.0,0.0,3.0,3.0,389.5923364907503,2.0,1.0,phase_1,,,,,,,,,,,,,orange,I
47.0,1.0,1.0,0.0,4.0,4.0,281.6379889845848,2.0,1.0,phase_1,,,,,,,,,,,,,magenta,cross
414.0,4.0,4.0,0.0,1.0,1.0,317.5166510045528,2.0,1.0,phase_1,,,,,,,,,,,,,cyan,diamond
103.0,2.0,2.0,0.0,2.0,2.0,281.4942765980959,2.0,1.0,phase_1,,,,,,,,,,,,,orange,I
87.0,6.0,2.0,1.0,3.0,3.0,302.1772466599941,2.0,1.0,phase_1,,,,,,,,,,,,,blue,triangle
416.0,4.0,4.0,0.0,4.0,4.0,306.4691163599491,2.0,1.0,phase_1,,,,,,,,,,,,,cyan,diamond
408.0,8.0,4.0,1.0,2.0,2.0,282.4866399168968,2.0,1.0,phase_1,,,,,,,,,,,,,green,flipped triangle
52.0,1.0,1.0,0.0,3.0,3.0,294.348731637001,2.0,1.0,phase_1,,,,,,,,,,,,,magenta,cross
180.0,3.0,3.0,0.0,2.0,2.0,410.1272244006395,2.0,1.0,phase_1,,,,,,,,,,,,,gray,square
105.0,6.0,2.0,1.0,1.0,1.0,270.3414373099804,2.0,1.0,phase_1,,,,,,,,,,,,,blue,triangle
83.0,2.0,2.0,0.0,4.0,4.0,273.6660987138748,2.0,1.0,phase_1,,,,,,,,,,,,,orange,I
206.0,7.0,3.0,1.0,4.0,4.0,392.510037869215,2.0,1.0,phase_1,,,,,,,,,,,,,yellow,circle
87.0,2.0,2.0,0.0,3.0,3.0,396.9456572085619,2.0,1.0,phase_1,,,,,,,,,,,,,orange,I
221.0,7.0,3.0,1.0,1.0,1.0,306.7615609616041,2.0,1.0,phase_1,,,,,,,,,,,,,yellow,circle
49.0,5.0,1.0,1.0,1.0,1.0,295.0990181416273,2.0,1.0,phase_1,,,,,,,,,,,,,white,hexagon
0.0,4.0,0.0,0.0,4.0,4.0,321.2389796972275,2.0,1.0,phase_1,,,,,,,,,,,,,cyan,diamond
0.0,1.0,0.0,0.0,1.0,1.0,295.6647090613842,2.0,1.0,phase_1,,,,,,,,,,,,,magenta,cross
103.0,6.0,2.0,1.0,3.0,3.0,330.3180132061243,2.0,1.0,phase_1,,,,,,,,,,,,,blue,triangle
68.0,1.0,1.0,0.0,3.0,3.0,343.1304488331079,2.0,1.0,phase_1,,,,,,,,,,,,,magenta,cross
61.0,1.0,1.0,0.0,1.0,1.0,286.9208194315433,2.0,1.0,phase_1,,,,,,,,,,,,,magenta,cross
61.0,5.0,1.0,1.0,3.0,3.0,273.613316938281,2.0,1.0,phase_1,,,,,,,,,,,,,white,hexagon
211.0,3.0,3.0,0.0,1.0,1.0,286.8006564676761,2.0,1.0,phase_1,,,,,,,,,,,,,gray,square
107.0,6.0,2.0,1.0,1.0,1.0,306.9193474948406,2.0,1.0,phase_1,,,,,,,,,,,,,blue,triangle
0.0,2.0,0.0,0.0,3.0,3.0,262.4699436128139,2.0,1.0,phase_1,,,,,,,,,,,,,orange,I
76.0,2.0,2.0,0.0,4.0,4.0,347.1390455961227,2.0,1.0,phase_1,,,,,,,,,,,,,orange,I
190.0,7.0,3.0,1.0,2.0,2.0,361.8237562477588,2.0,1.0,phase_1,,,,,,,,,,,,,yellow,circle
123.0,2.0,2.0,0.0,2.0,2.0,328.1987402588129,2.0,1.0,phase_1,,,,,,,,,,,,,orange,I
112.0,6.0,2.0,1.0,4.0,4.0,276.2148566544056,2.0,1.0,phase_1,,,,,,,,,,,,,blue,triangle
112.0,2.0,2.0,0.0,3.0,3.0,269.8217630386352,2.0,1.0,phase_1,,,,,,,,,,,,,orange,I
208.0,7.0,3.0,1.0,1.0,1.0,445.9977876394987,2.0,1.0,phase_1,,,,,,,,,,,,,yellow,circle
409.0,4.0,4.0,0.0,1.0,1.0,327.9142994433641,2.0,1.0,phase_1,,,,,,,,,,,,,cyan,diamond
179.0,7.0,3.0,1.0,1.0,1.0,286.2326521426439,2.0,1.0,phase_1,,,,,,,,,,,,,yellow,circle
76.0,2.0,2.0,0.0,2.0,2.0,491.9840525835752,2.0,1.0,phase_1,,,,,,,,,,,,,orange,I
201.0,7.0,3.0,1.0,2.0,2.0,397.0774915069341,2.0,1.0,phase_1,,,,,,,,,,,,,yellow,circle
221.0,3.0,3.0,0.0,1.0,1.0,420.8330530673265,2.0,1.0,phase_1,,,,,,,,,,,,,gray,square
191.0,3.0,3.0,0.0,1.0,1.0,279.3400064110756,2.0,1.0,phase_1,,,,,,,,,,,,,gray,square
386.0,8.0,4.0,1.0,4.0,4.0,310.9349403530359,2.0,1.0,phase_1,,,,,,,,,,,,,green,flipped triangle
0.0,4.0,0.0,0.0,1.0,1.0,297.9753538966179,2.0,1.0,phase_1,,,,,,,,,,,,,cyan,diamond
211.0,3.0,3.0,0.0,3.0,3.0,353.0108723789453,2.0,1.0,phase_1,,,,,,,,,,,,,gray,square
37.0,5.0,1.0,1.0,2.0,2.0,348.0625506490469,2.0,1.0,phase_1,,,,,,,,,,,,,white,hexagon
31.0,5.0,1.0,1.0,3.0,3.0,312.1072128415108,2.0,1.0,phase_1,,,,,,,,,,,,,white,hexagon
417.0,4.0,4.0,0.0,2.0,2.0,467.528348788619,2.0,1.0,phase_1,,,,,,,,,,,,,cyan,diamond
0.0,7.0,0.0,1.0,3.0,3.0,395.537830889225,2.0,1.0,phase_1,,,,,,,,,,,,,yellow,circle
81.0,2.0,2.0,0.0,3.0,3.0,436.2688884139061,2.0,1.0,phase_1,,,,,,,,,,,,,orange,I
0.0,4.0,0.0,0.0,1.0,1.0,306.8673517554998,2.0,1.0,phase_1,,,,,,,,,,,,,cyan,diamond
211.0,7.0,3.0,1.0,4.0,4.0,326.5074081718921,2.0,1.0,phase_1,,,,,,,,,,,,,yellow,circle
87.0,2.0,2.0,0.0,2.0,2.0,341.8849185109138,2.0,1.0,phase_1,,,,,,,,,,,,,orange,I
217.0,3.0,3.0,0.0,1.0,1.0,302.8619233518839,2.0,1.0,phase_1,,,,,,,,,,,,,gray,square
0.0,5.0,0.0,1.0,3.0,3.0,293.46325993537897,2.0,1.0,phase_1,,,,,,,,,,,,,white,hexagon
123.0,6.0,2.0,1.0,3.0,3.0,305.5978659540415,2.0,1.0,phase_1,,,,,,,,,,,,,blue,triangle
42.0,1.0,1.0,0.0,1.0,1.0,263.0317602306604,2.0,1.0,phase_1,,,,,,,,,,,,,magenta,cross
0.0,6.0,0.0,1.0,4.0,4.0,283.0354329198599,2.0,1.0,phase_1,,,,,,,,,,,,,blue,triangle
215.0,3.0,3.0,0.0,4.0,4.0,376.9340943545103,2.0,1.0,phase_1,,,,,,,,,,,,,gray,square
29.0,1.0,1.0,0.0,1.0,1.0,347.403859719634,2.0,1.0,phase_1,,,,,,,,,,,,,magenta,cross
47.0,5.0,1.0,1.0,1.0,1.0,311.9143173098564,2.0,1.0,phase_1,,,,,,,,,,,,,white,hexagon
412.0,4.0,4.0,0.0,4.0,4.0,300.4177492111921,2.0,1.0,phase_1,,,,,,,,,,,,,cyan,diamond
39.0,5.0,1.0,1.0,3.0,3.0,372.8428930044174,2.0,1.0,phase_1,,,,,,,,,,,,,white,hexagon
0.0,7.0,0.0,1.0,4.0,4.0,338.1639216095209,2.0,1.0,phase_1,,,,,,,,,,,,,yellow,circle
124.0,6.0,2.0,1.0,4.0,4.0,308.8064137846231,2.0,1.0,phase_1,,,,,,,,,,,,,blue,triangle
390.0,4.0,4.0,0.0,4.0,4.0,274.6826447546482,2.0,1.0,phase_1,,,,,,,,,,,,,cyan,diamond
177.0,3.0,3.0,0.0,3.0,3.0,351.6697362065315,2.0,1.0,phase_1,,,,,,,,,,,,,gray,square
378.0,4.0,4.0,0.0,3.0,3.0,324.7647099196911,2.0,1.0,phase_1,,,,,,,,,,,,,cyan,diamond
177.0,7.0,3.0,1.0,3.0,3.0,296.4878231287002,2.0,1.0,phase_1,,,,,,,,,,,,,yellow,circle
74.0,1.0,1.0,0.0,2.0,2.0,348.6162517219782,2.0,1.0,phase_1,,,,,,,,,,,,,magenta,cross
62.0,1.0,1.0,0.0,4.0,4.0,298.9060338586569,2.0,1.0,phase_1,,,,,,,,,,,,,magenta,cross
77.0,6.0,2.0,1.0,4.0,4.0,277.9132165014744,2.0,1.0,phase_1,,,,,,,,,,,,,blue,triangle
416.0,8.0,4.0,1.0,4.0,4.0,299.2736715823412,2.0,1.0,phase_1,,,,,,,,,,,,,green,flipped triangle
42.0,1.0,1.0,0.0,2.0,2.0,303.8601651787758,2.0,1.0,phase_1,,,,,,,,,,,,,magenta,cross
192.0,7.0,3.0,1.0,2.0,2.0,368.2348169386387,3.0,1.0,phase_1,,,,,,,,,,,,,yellow,circle
198.0,7.0,3.0,1.0,3.0,3.0,313.1631799042225,3.0,1.0,phase_1,,,,,,,,,,,,,yellow,circle
216.0,3.0,3.0,0.0,4.0,4.0,291.0641878843307,3.0,1.0,phase_1,,,,,,,,,,,,,gray,square
64.0,5.0,1.0,1.0,3.0,3.0,352.937214076519,3.0,1.0,phase_1,,,,,,,,,,,,,white,hexagon
390.0,8.0,4.0,1.0,3.0,3.0,299.072602763772,3.0,1.0,phase_1,,,,,,,,,,,,,green,flipped triangle
0.0,5.0,0.0,1.0,1.0,1.0,340.9187775105238,3.0,2.0,phase_1,,,,,,,,,,,,,white,hexagon
183.0,3.0,3.0,0.0,1.0,1.0,300.7870800793171,3.0,1.0,phase_1,,,,,,,,,,,,,gray,square
70.0,5.0,1.0,1.0,4.0,4.0,320.0553320348263,3.0,1.0,phase_1,,,,,,,,,,,,,white,hexagon
56.0,5.0,1.0,1.0,2.0,2.0,308.2891162484884,3.0,1.0,phase_1,,,,,,,,,,,,,white,hexagon
0.0,8.0,0.0,1.0,1.0,1.0,328.0934896320104,3.0,1.0,phase_1,,,,,,,,,,,,,green,flipped triangle
414.0,8.0,4.0,1.0,1.0,1.0,268.4639971703291,3.0,1.0,phase_1,,,,,,,,,,,,,green,flipped triangle
0.0,6.0,0.0,1.0,4.0,4.0,328.4400999546051,3.0,1.0,phase_1,,,,,,,,,,,,,blue,triangle
0.0,1.0,0.0,0.0,1.0,1.0,296.7199236154556,3.0,1.0,phase_1,,,,,,,,,,,,,magenta,cross
208.0,3.0,3.0,0.0,4.0,4.0,317.323587834835,3.0,1.0,phase_1,,,,,,,,,,,,,gray,square
0.0,4.0,0.0,0.0,2.0,2.0,326.5350349247455,3.0,1.0,phase_1,,,,,,,,,,,,,cyan,diamond
0.0,8.0,0.0,1.0,3.0,3.0,333.3457410335541,3.0,1.0,phase_1,,,,,,,,,,,,,green,flipped triangle
405.0,4.0,4.0,0.0,4.0,4.0,405.6453369557857,3.0,2.0,phase_1,,,,,,,,,,,,,cyan,diamond
106.0,6.0,2.0,1.0,1.0,1.0,340.4522202908993,3.0,1.0,phase_1,,,,,,,,,,,,,blue,triangle
119.0,6.0,2.0,1.0,1.0,1.0,350.4202831536531,3.0,1.0,phase_1,,,,,,,,,,,,,blue,triangle
87.0,2.0,2.0,0.0,1.0,1.0,379.5068804174661,3.0,1.0,phase_1,,,,,,,,,,,,,orange,I
209.0,7.0,3.0,1.0,1.0,1.0,351.3362612575292,3.0,1.0,phase_1,,,,,,,,,,,,,yellow,circle
216.0,7.0,3.0,1.0,2.0,2.0,359.9000349640846,3.0,1.0,phase_1,,,,,,,,,,,,,yellow,circle
404.0,4.0,4.0,0.0,3.0,3.0,393.6075754463672,3.0,1.0,phase_1,,,,,,,,,,,,,cyan,diamond
424.0,4.0,4.0,0.0,4.0,4.0,359.3228384852409,3.0,1.0,phase_1,,,,,,,,,,,,,cyan,diamond
205.0,3.0,3.0,0.0,3.0,3.0,364.7974897176027,3.0,1.0,phase_1,,,,,,,,,,,,,gray,square
93.0,2.0,2.0,0.0,1.0,1.0,314.0908312052488,3.0,1.0,phase_1,,,,,,,,,,,,,orange,I
0.0,2.0,0.0,0.0,4.0,4.0,333.6577992886305,3.0,1.0,phase_1,,,,,,,,,,,,,orange,I
94.0,2.0,2.0,0.0,4.0,4.0,322.9437619447708,3.0,1.0,phase_1,,,,,,,,,,,,,orange,I
38.0,5.0,1.0,1.0,4.0,4.0,319.5225540548563,3.0,1.0,phase_1,,,,,,,,,,,,,white,hexagon
72.0,1.0,1.0,0.0,2.0,2.0,667.3880852758884,3.0,1.0,phase_1,,,,,,,,,,,,,magenta,cross
52.0,5.0,1.0,1.0,1.0,1.0,352.8541121631861,3.0,1.0,phase_1,,,,,,,,,,,,,white,hexagon
216.0,7.0,3.0,1.0,1.0,1.0,428.9752002805471,3.0,1.0,phase_1,,,,,,,,,,,,,yellow,circle
75.0,6.0,2.0,1.0,2.0,2.0,434.7205441445112,3.0,1.0,phase_1,,,,,,,,,,,,,blue,triangle
378.0,8.0,4.0,1.0,4.0,4.0,606.4399871975183,3.0,1.0,phase_1,,,,,,,,,,,,,green,flipped triangle
112.0,6.0,2.0,1.0,2.0,2.0,384.6907671540975,3.0,1.0,phase_1,,,,,,,,,,,,,blue,triangle
200.0,7.0,3.0,1.0,4.0,4.0,287.7281066030264,3.0,1.0,phase_1,,,,,,,,,,,,,yellow,circle
397.0,8.0,4.0,1.0,3.0,3.0,339.258398860693,3.0,1.0,phase_1,,,,,,,,,,,,,green,flipped triangle
49.0,1.0,1.0,0.0,4.0,4.0,352.0601391792297,3.0,1.0,phase_1,,,,,,,,,,,,,magenta,cross
384.0,4.0,4.0,0.0,3.0,3.0,300.6283305585384,3.0,1.0,phase_1,,,,,,,,,,,,,cyan,diamond
424.0,8.0,4.0,1.0,2.0,2.0,384.2543140053749,3.0,1.0,phase_1,,,,,,,,,,,,,green,flipped triangle
191.0,7.0,3.0,1.0,1.0,1.0,368.4612512588501,3.0,1.0,phase_1,,,,,,,,,,,,,yellow,circle
88.0,6.0,2.0,1.0,2.0,2.0,372.5535236299038,3.0,1.0,phase_1,,,,,,,,,,,,,blue,triangle
418.0,4.0,4.0,0.0,2.0,2.0,343.5296211391687,3.0,1.0,phase_1,,,,,,,,,,,,,cyan,diamond
0.0,2.0,0.0,0.0,2.0,2.0,340.7164122909307,3.0,1.0,phase_1,,,,,,,,,,,,,orange,I
117.0,2.0,2.0,0.0,3.0,3.0,337.6055210828781,3.0,1.0,phase_1,,,,,,,,,,,,,orange,I
0.0,8.0,0.0,1.0,4.0,4.0,303.6606274545192,3.0,1.0,phase_1,,,,,,,,,,,,,green,flipped triangle
397.0,8.0,4.0,1.0,1.0,1.0,298.0700191110372,3.0,1.0,phase_1,,,,,,,,,,,,,green,flipped triangle
121.0,6.0,2.0,1.0,3.0,3.0,313.3595157414675,3.0,1.0,phase_1,,,,,,,,,,,,,blue,triangle
101.0,2.0,2.0,0.0,1.0,1.0,266.715295612812,3.0,1.0,phase_1,,,,,,,,,,,,,orange,I
410.0,4.0,4.0,0.0,2.0,2.0,346.0033927112818,3.0,1.0,phase_1,,,,,,,,,,,,,cyan,diamond
200.0,3.0,3.0,0.0,1.0,1.0,316.8138153851032,3.0,1.0,phase_1,,,,,,,,,,,,,gray,square
30.0,5.0,1.0,1.0,2.0,2.0,328.6917507648468,3.0,1.0,phase_1,,,,,,,,,,,,,white,hexagon
69.0,1.0,1.0,0.0,1.0,1.0,271.4798618108034,3.0,1.0,phase_1,,,,,,,,,,,,,magenta,cross
390.0,8.0,4.0,1.0,1.0,1.0,315.2325041592121,3.0,1.0,phase_1,,,,,,,,,,,,,green,flipped triangle
115.0,2.0,2.0,0.0,1.0,1.0,302.8893712908029,3.0,1.0,phase_1,,,,,,,,,,,,,orange,I
420.0,4.0,4.0,0.0,3.0,3.0,307.566124945879,3.0,1.0,phase_1,,,,,,,,,,,,,cyan,diamond
74.0,1.0,1.0,0.0,3.0,3.0,329.8826161772012,3.0,1.0,phase_1,,,,,,,,,,,,,magenta,cross
181.0,7.0,3.0,1.0,3.0,3.0,318.6977040022611,3.0,1.0,phase_1,,,,,,,,,,,,,yellow,circle
101.0,6.0,2.0,1.0,1.0,1.0,284.3802496790886,3.0,1.0,phase_1,,,,,,,,,,,,,blue,triangle
416.0,4.0,4.0,0.0,2.0,2.0,434.2200234532356,3.0,1.0,phase_1,,,,,,,,,,,,,cyan,diamond
93.0,2.0,2.0,0.0,2.0,2.0,316.9426042586565,3.0,1.0,phase_1,,,,,,,,,,,,,orange,I
87.0,6.0,2.0,1.0,1.0,1.0,355.1053889095783,3.0,1.0,phase_1,,,,,,,,,,,,,blue,triangle
101.0,2.0,2.0,0.0,3.0,3.0,390.3519585728645,3.0,1.0,phase_1,,,,,,,,,,,,,orange,I
0.0,6.0,0.0,1.0,4.0,4.0,364.557221531868,3.0,1.0,phase_1,,,,,,,,,,,,,blue,triangle
0.0,4.0,0.0,0.0,2.0,2.0,400.7727839052677,3.0,1.0,phase_1,,,,,,,,,,,,,cyan,diamond
0.0,1.0,0.0,0.0,2.0,2.0,364.1972541809082,3.0,1.0,phase_1,,,,,,,,,,,,,magenta,cross
92.0,2.0,2.0,0.0,3.0,3.0,339.0389233827591,3.0,1.0,phase_1,,,,,,,,,,,,,orange,I
196.0,7.0,3.0,1.0,4.0,4.0,302.4235870689153,3.0,1.0,phase_1,,,,,,,,,,,,,yellow,circle
0.0,6.0,0.0,1.0,4.0,4.0,328.3134829252958,3.0,1.0,phase_1,,,,,,,,,,,,,blue,triangle
392.0,4.0,4.0,0.0,3.0,3.0,352.354010567069,3.0,1.0,phase_1,,,,,,,,,,,,,cyan,diamond
0.0,7.0,0.0,1.0,3.0,3.0,316.7877998203039,3.0,1.0,phase_1,,,,,,,,,,,,,yellow,circle
0.0,8.0,0.0,1.0,1.0,1.0,305.1755018532276,3.0,1.0,phase_1,,,,,,,,,,,,,green,flipped triangle
184.0,7.0,3.0,1.0,3.0,3.0,333.5607815533876,3.0,1.0,phase_1,,,,,,,,,,,,,yellow,circle
0.0,3.0,0.0,0.0,3.0,3.0,473.7238250672817,3.0,1.0,phase_1,,,,,,,,,,,,,gray,square
63.0,1.0,1.0,0.0,3.0,3.0,368.6681520193815,3.0,1.0,phase_1,,,,,,,,,,,,,magenta,cross
52.0,1.0,1.0,0.0,4.0,4.0,289.8508999496698,3.0,1.0,phase_1,,,,,,,,,,,,,magenta,cross
35.0,5.0,1.0,1.0,4.0,4.0,294.1689379513263,3.0,1.0,phase_1,,,,,,,,,,,,,white,hexagon
219.0,3.0,3.0,0.0,2.0,2.0,306.5896183252334,3.0,1.0,phase_1,,,,,,,,,,,,,gray,square
105.0,2.0,2.0,0.0,4.0,4.0,323.584247380495,3.0,1.0,phase_1,,,,,,,,,,,,,orange,I
0.0,8.0,0.0,1.0,1.0,1.0,287.5143140554428,3.0,1.0,phase_1,,,,,,,,,,,,,green,flipped triangle
27.0,5.0,1.0,1.0,4.0,4.0,306.3973821699619,3.0,1.0,phase_1,,,,,,,,,,,,,white,hexagon
35.0,1.0,1.0,0.0,1.0,1.0,286.404050886631,3.0,1.0,phase_1,,,,,,,,,,,,,magenta,cross
200.0,3.0,3.0,0.0,2.0,2.0,282.7423401176929,3.0,1.0,phase_1,,,,,,,,,,,,,gray,square
0.0,6.0,0.0,1.0,3.0,3.0,304.3986149132252,3.0,1.0,phase_1,,,,,,,,,,,,,blue,triangle
94.0,6.0,2.0,1.0,4.0,4.0,260.3688444942236,3.0,1.0,phase_1,,,,,,,,,,,,,blue,triangle
0.0,6.0,0.0,1.0,3.0,3.0,322.666609659791,3.0,1.0,phase_1,,,,,,,,,,,,,blue,triangle
38.0,1.0,1.0,0.0,2.0,2.0,279.7579113394022,3.0,1.0,phase_1,,,,,,,,,,,,,magenta,cross
0.0,1.0,0.0,0.0,3.0,3.0,306.7813571542501,3.0,1.0,phase_1,,,,,,,,,,,,,magenta,cross
49.0,1.0,1.0,0.0,4.0,4.0,286.9026307016611,3.0,1.0,phase_1,,,,,,,,,,,,,magenta,cross
30.0,1.0,1.0,0.0,4.0,4.0,307.2856441140175,3.0,1.0,phase_1,,,,,,,,,,,,,magenta,cross
417.0,4.0,4.0,0.0,3.0,3.0,327.6367411017418,3.0,1.0,phase_1,,,,,,,,,,,,,cyan,diamond
88.0,2.0,2.0,0.0,4.0,4.0,300.9957280009985,3.0,1.0,phase_1,,,,,,,,,,,,,orange,I
45.0,5.0,1.0,1.0,1.0,1.0,330.8614119887352,3.0,1.0,phase_1,,,,,,,,,,,,,white,hexagon
216.0,3.0,3.0,0.0,3.0,3.0,303.6086186766624,3.0,1.0,phase_1,,,,,,,,,,,,,gray,square
0.0,7.0,0.0,1.0,1.0,1.0,364.6418452262878,3.0,1.0,phase_1,,,,,,,,,,,,,yellow,circle
70.0,1.0,1.0,0.0,3.0,3.0,392.9362632334232,3.0,1.0,phase_1,,,,,,,,,,,,,magenta,cross
194.0,7.0,3.0,1.0,2.0,2.0,364.5564671605825,3.0,1.0,phase_1,,,,,,,,,,,,,yellow,circle
110.0,6.0,2.0,1.0,4.0,4.0,280.4994396865368,3.0,1.0,phase_1,,,,,,,,,,,,,blue,triangle
198.0,3.0,3.0,0.0,4.0,4.0,351.8360927700996,3.0,1.0,phase_1,,,,,,,,,,,,,gray,square
409.0,8.0,4.0,1.0,2.0,2.0,331.230504438281,3.0,1.0,phase_1,,,,,,,,,,,,,green,flipped triangle
54.0,5.0,1.0,1.0,2.0,2.0,419.9377316981554,4.0,1.0,phase_1,,,,,,,,,,,,,white,hexagon
121.0,2.0,2.0,0.0,3.0,3.0,377.7473028749227,4.0,1.0,phase_1,,,,,,,,,,,,,orange,I
100.0,6.0,2.0,1.0,1.0,1.0,365.4343858361244,4.0,1.0,phase_1,,,,,,,,,,,,,blue,triangle
39.0,1.0,1.0,0.0,3.0,3.0,314.3889643251896,4.0,1.0,phase_1,,,,,,,,,,,,,magenta,cross
0.0,7.0,0.0,1.0,2.0,2.0,305.4761923849582,4.0,1.0,phase_1,,,,,,,,,,,,,yellow,circle
28.0,1.0,1.0,0.0,3.0,3.0,349.8177323490381,4.0,1.0,phase_1,,,,,,,,,,,,,magenta,cross
54.0,1.0,1.0,0.0,1.0,1.0,280.5854342877865,4.0,1.0,phase_1,,,,,,,,,,,,,magenta,cross
0.0,3.0,0.0,0.0,3.0,3.0,301.1649064719677,4.0,1.0,phase_1,,,,,,,,,,,,,gray,square
53.0,1.0,1.0,0.0,4.0,4.0,350.2450659871101,4.0,2.0,phase_1,,,,,,,,,,,,,magenta,cross
57.0,5.0,1.0,1.0,1.0,1.0,445.5392565578222,4.0,1.0,phase_1,,,,,,,,,,,,,white,hexagon
376.0,8.0,4.0,1.0,1.0,1.0,330.1885295659303,4.0,1.0,phase_1,,,,,,,,,,,,,green,flipped triangle
212.0,3.0,3.0,0.0,2.0,2.0,429.358160123229,4.0,1.0,phase_1,,,,,,,,,,,,,gray,square
0.0,3.0,0.0,0.0,2.0,2.0,386.0709760338068,4.0,1.0,phase_1,,,,,,,,,,,,,gray,square
110.0,2.0,2.0,0.0,2.0,2.0,341.8303951621055,4.0,1.0,phase_1,,,,,,,,,,,,,orange,I
95.0,2.0,2.0,0.0,1.0,1.0,307.8030291944742,4.0,1.0,phase_1,,,,,,,,,,,,,orange,I
0.0,3.0,0.0,0.0,2.0,2.0,312.4773968011141,4.0,1.0,phase_1,,,,,,,,,,,,,gray,square
0.0,2.0,0.0,0.0,3.0,3.0,275.296438485384,4.0,1.0,phase_1,,,,,,,,,,,,,orange,I
69.0,5.0,1.0,1.0,4.0,4.0,353.5548560321331,4.0,1.0,phase_1,,,,,,,,,,,,,white,hexagon
378.0,4.0,4.0,0.0,3.0,3.0,334.3056738376617,4.0,1.0,phase_1,,,,,,,,,,,,,cyan,diamond
0.0,8.0,0.0,1.0,2.0,2.0,337.7873227000236,4.0,1.0,phase_1,,,,,,,,,,,,,green,flipped triangle
220.0,3.0,3.0,0.0,1.0,1.0,304.9751687794924,4.0,1.0,phase_1,,,,,,,,,,,,,gray,square
105.0,6.0,2.0,1.0,3.0,3.0,374.0753605961799,4.0,1.0,phase_1,,,,,,,,,,,,,blue,triangle
0.0,3.0,0.0,0.0,4.0,4.0,304.0122333914041,4.0,1.0,phase_1,,,,,,,,,,,,,gray,square
99.0,2.0,2.0,0.0,1.0,1.0,327.206103131175,4.0,1.0,phase_1,,,,,,,,,,,,,orange,I
119.0,2.0,2.0,0.0,2.0,2.0,475.0753566622734,4.0,1.0,phase_1,,,,,,,,,,,,,orange,I
394.0,4.0,4.0,0.0,2.0,2.0,349.001083523035,4.0,1.0,phase_1,,,,,,,,,,,,,cyan,diamond
396.0,4.0,4.0,0.0,1.0,1.0,292.521309107542,4.0,1.0,phase_1,,,,,,,,,,,,,cyan,diamond
0.0,5.0,0.0,1.0,4.0,4.0,280.6937601417303,4.0,1.0,phase_1,,,,,,,,,,,,,white,hexagon
206.0,3.0,3.0,0.0,4.0,4.0,348.4752718359232,4.0,1.0,phase_1,,,,,,,,,,,,,gray,square
208.0,7.0,3.0,1.0,4.0,4.0,369.2502547055483,4.0,1.0,phase_1,,,,,,,,,,,,,yellow,circle
395.0,4.0,4.0,0.0,3.0,3.0,336.8929158896208,4.0,1.0,phase_1,,,,,,,,,,,,,cyan,diamond
212.0,7.0,3.0,1.0,3.0,3.0,357.2578467428684,4.0,1.0,phase_1,,,,,,,,,,,,,yellow,circle
0.0,4.0,0.0,0.0,1.0,1.0,322.0757786184549,4.0,1.0,phase_1,,,,,,,,,,,,,cyan,diamond
115.0,6.0,2.0,1.0,4.0,4.0,284.2161934822798,4.0,1.0,phase_1,,,,,,,,,,,,,blue,triangle
0.0,1.0,0.0,0.0,1.0,1.0,298.7431716173887,4.0,1.0,phase_1,,,,,,,,,,,,,magenta,cross
0.0,3.0,0.0,0.0,4.0,4.0,307.9673890024423,4.0,1.0,phase_1,,,,,,,,,,,,,gray,square
392.0,8.0,4.0,1.0,4.0,4.0,300.721300765872,4.0,1.0,phase_1,,,,,,,,,,,,,green,flipped triangle
386.0,4.0,4.0,0.0,2.0,2.0,312.4542348086834,4.0,1.0,phase_1,,,,,,,,,,,,,cyan,diamond
0.0,2.0,0.0,0.0,1.0,1.0,300.2980574965477,4.0,1.0,phase_1,,,,,,,,,,,,,orange,I
57.0,1.0,1.0,0.0,1.0,1.0,336.6313986480236,4.0,1.0,phase_1,,,,,,,,,,,,,magenta,cross
0.0,1.0,0.0,0.0,1.0,1.0,317.8496118634939,4.0,1.0,phase_1,,,,,,,,,,,,,magenta,cross
410.0,8.0,4.0,1.0,4.0,4.0,311.308179050684,4.0,2.0,phase_1,,,,,,,,,,,,,green,flipped triangle
196.0,3.0,3.0,0.0,3.0,3.0,339.8850858211517,4.0,1.0,phase_1,,,,,,,,,,,,,gray,square
33.0,1.0,1.0,0.0,1.0,1.0,478.8998086005449,4.0,1.0,phase_1,,,,,,,,,,,,,magenta,cross
0.0,5.0,0.0,1.0,2.0,2.0,468.7818456441164,4.0,1.0,phase_1,,,,,,,,,,,,,white,hexagon
0.0,5.0,0.0,1.0,2.0,2.0,360.8859144151211,4.0,1.0,phase_1,,,,,,,,,,,,,white,hexagon
382.0,4.0,4.0,0.0,2.0,2.0,405.1569290459156,4.0,1.0,phase_1,,,,,,,,,,,,,cyan,diamond
180.0,3.0,3.0,0.0,2.0,2.0,324.9176144599914,4.0,1.0,phase_1,,,,,,,,,,,,,gray,square
76.0,6.0,2.0,1.0,4.0,4.0,321.7706922441721,4.0,1.0,phase_1,,,,,,,,,,,,,blue,triangle
0.0,3.0,0.0,0.0,4.0,4.0,674.6306754648685,4.0,1.0,phase_1,,,,,,,,,,,,,gray,square
33.0,1.0,1.0,0.0,2.0,2.0,439.0520583838224,4.0,1.0,phase_1,,,,,,,,,,,,,magenta,cross
87.0,6.0,2.0,1.0,2.0,2.0,358.6932122707367,4.0,1.0,phase_1,,,,,,,,,,,,,blue,triangle
107.0,6.0,2.0,1.0,1.0,1.0,313.0675237625837,4.0,1.0,phase_1,,,,,,,,,,,,,blue,triangle
0.0,6.0,0.0,1.0,3.0,3.0,337.5792354345321,4.0,1.0,phase_1,,,,,,,,,,,,,blue,triangle
62.0,5.0,1.0,1.0,1.0,1.0,458.2711029797792,4.0,1.0,phase_1,,,,,,,,,,,,,white,hexagon
199.0,7.0,3.0,1.0,4.0,4.0,296.441612765193,4.0,1.0,phase_1,,,,,,,,,,,,,yellow,circle
74.0,5.0,1.0,1.0,2.0,2.0,309.8095562309026,4.0,1.0,phase_1,,,,,,,,,,,,,white,hexagon
421.0,8.0,4.0,1.0,2.0,2.0,391.4703484624624,4.0,1.0,phase_1,,,,,,,,,,,,,green,flipped triangle
33.0,5.0,1.0,1.0,4.0,4.0,296.4001465588808,4.0,1.0,phase_1,,,,,,,,,,,,,white,hexagon
72.0,5.0,1.0,1.0,2.0,2.0,297.6779025048017,4.0,1.0,phase_1,,,,,,,,,,,,,white,hexagon
0.0,4.0,0.0,0.0,3.0,3.0,321.3581796735525,4.0,1.0,phase_1,,,,,,,,,,,,,cyan,diamond
122.0,2.0,2.0,0.0,4.0,4.0,300.6866555660963,4.0,1.0,phase_1,,,,,,,,,,,,,orange,I
394.0,8.0,4.0,1.0,3.0,3.0,336.0256589949131,4.0,1.0,phase_1,,,,,,,,,,,,,green,flipped triangle
124.0,2.0,2.0,0.0,1.0,1.0,316.9919643551111,4.0,1.0,phase_1,,,,,,,,,,,,,orange,I
0.0,4.0,0.0,0.0,4.0,4.0,312.6742523163557,4.0,1.0,phase_1,,,,,,,,,,,,,cyan,diamond
413.0,8.0,4.0,1.0,4.0,4.0,304.2736742645502,4.0,1.0,phase_1,,,,,,,,,,,,,green,flipped triangle
77.0,2.0,2.0,0.0,4.0,4.0,293.9697094261646,4.0,1.0,phase_1,,,,,,,,,,,,,orange,I
404.0,8.0,4.0,1.0,2.0,2.0,442.2270637005567,4.0,1.0,phase_1,,,,,,,,,,,,,green,flipped triangle
0.0,5.0,0.0,1.0,3.0,3.0,301.6559220850467,4.0,1.0,phase_1,,,,,,,,,,,,,white,hexagon
0.0,6.0,0.0,1.0,3.0,3.0,313.6241380125284,4.0,1.0,phase_1,,,,,,,,,,,,,blue,triangle
35.0,1.0,1.0,0.0,1.0,1.0,333.4402926266193,4.0,1.0,phase_1,,,,,,,,,,,,,magenta,cross
215.0,7.0,3.0,1.0,3.0,3.0,317.6362030208111,4.0,1.0,phase_1,,,,,,,,,,,,,yellow,circle
378.0,4.0,4.0,0.0,4.0,4.0,313.5330155491829,4.0,1.0,phase_1,,,,,,,,,,,,,cyan,diamond
76.0,2.0,2.0,0.0,4.0,4.0,318.6254650354385,4.0,1.0,phase_1,,,,,,,,,,,,,orange,I
63.0,5.0,1.0,1.0,1.0,1.0,320.7761142402887,4.0,1.0,phase_1,,,,,,,,,,,,,white,hexagon
105.0,2.0,2.0,0.0,2.0,2.0,303.1923547387123,4.0,1.0,phase_1,,,,,,,,,,,,,orange,I
42.0,5.0,1.0,1.0,1.0,1.0,296.9138119369745,4.0,1.0,phase_1,,,,,,,,,,,,,white,hexagon
188.0,3.0,3.0,0.0,2.0,2.0,287.8940459340811,4.0,1.0,phase_1,,,,,,,,,,,,,gray,square
0.0,5.0,0.0,1.0,3.0,3.0,266.5633577853441,4.0,1.0,phase_1,,,,,,,,,,,,,white,hexagon
106.0,2.0,2.0,0.0,1.0,1.0,247.3890166729688,4.0,1.0,phase_1,,,,,,,,,,,,,orange,I
93.0,6.0,2.0,1.0,4.0,4.0,300.7300905883312,4.0,1.0,phase_1,,,,,,,,,,,,,blue,triangle
68.0,5.0,1.0,1.0,3.0,3.0,273.2496447861194,4.0,1.0,phase_1,,,,,,,,,,,,,white,hexagon
37.0,1.0,1.0,0.0,4.0,4.0,304.7812543809414,4.0,1.0,phase_1,,,,,,,,,,,,,magenta,cross
188.0,3.0,3.0,0.0,2.0,2.0,361.4957984536886,4.0,1.0,phase_1,,,,,,,,,,,,,gray,square
99.0,6.0,2.0,1.0,2.0,2.0,307.7730890363455,4.0,2.0,phase_1,,,,,,,,,,,,,blue,triangle
28.0,5.0,1.0,1.0,2.0,2.0,320.894917473197,4.0,1.0,phase_1,,,,,,,,,,,,,white,hexagon
217.0,7.0,3.0,1.0,4.0,4.0,311.4601355046034,4.0,1.0,phase_1,,,,,,,,,,,,,yellow,circle
49.0,5.0,1.0,1.0,2.0,2.0,617.4882985651493,4.0,1.0,phase_1,,,,,,,,,,,,,white,hexagon
72.0,1.0,1.0,0.0,2.0,2.0,311.5664757788181,4.0,1.0,phase_1,,,,,,,,,,,,,magenta,cross
81.0,6.0,2.0,1.0,3.0,3.0,331.2820419669151,4.0,1.0,phase_1,,,,,,,,,,,,,blue,triangle
221.0,3.0,3.0,0.0,3.0,3.0,314.394136890769,4.0,1.0,phase_1,,,,,,,,,,,,,gray,square
83.0,6.0,2.0,1.0,2.0,2.0,333.4321025758981,4.0,1.0,phase_1,,,,,,,,,,,,,blue,triangle
401.0,4.0,4.0,0.0,4.0,4.0,283.7299946695566,4.0,1.0,phase_1,,,,,,,,,,,,,cyan,diamond
0.0,2.0,0.0,0.0,4.0,4.0,317.9298266768455,4.0,1.0,phase_1,,,,,,,,,,,,,orange,I
381.0,8.0,4.0,1.0,3.0,3.0,300.0814188271761,4.0,1.0,phase_1,,,,,,,,,,,,,green,flipped triangle
101.0,6.0,2.0,1.0,3.0,3.0,418.8515115529299,4.0,1.0,phase_1,,,,,,,,,,,,,blue,triangle
211.0,7.0,3.0,1.0,1.0,1.0,454.51541990041727,4.0,1.0,phase_1,,,,,,,,,,,,,yellow,circle
179.0,3.0,3.0,0.0,3.0,3.0,336.2536579370498,4.0,1.0,phase_1,,,,,,,,,,,,,gray,square
122.0,6.0,2.0,1.0,4.0,4.0,333.0841735005379,4.0,1.0,phase_1,,,,,,,,,,,,,blue,triangle
417.0,8.0,4.0,1.0,2.0,2.0,340.6870886683464,4.0,1.0,phase_1,,,,,,,,,,,,,green,flipped triangle
0.0,2.0,2.0,0.0,5.0,5.0,390.7989151775837,1.0,1.0,phase_2,go,250.0,250.0,1.0,,,,,,,,,orange,I
0.0,8.0,4.0,1.0,5.0,5.0,510.3873983025551,1.0,1.0,phase_2,stop,250.0,250.0,3.0,,,,,,,,,green,flipped triangle
0.0,7.0,3.0,1.0,5.0,0.0,0.0,1.0,1.0,phase_2,stop,200.0,250.0,4.0,,,,,,,,,yellow,circle
0.0,8.0,4.0,1.0,6.0,0.0,0.0,1.0,1.0,phase_2,stop,250.0,250.0,4.0,,,,,,,,,green,flipped triangle
0.0,6.0,2.0,1.0,5.0,5.0,922.0286142081022,1.0,1.0,phase_2,go,250.0,300.0,1.0,,,,,,,,,blue,triangle
0.0,7.0,3.0,1.0,5.0,0.0,0.0,1.0,1.0,phase_2,stop,250.0,300.0,4.0,,,,,,,,,yellow,circle
0.0,1.0,1.0,0.0,5.0,5.0,1035.169307142496,1.0,1.0,phase_2,go,300.0,300.0,1.0,,,,,,,,,magenta,cross
0.0,1.0,1.0,0.0,5.0,5.0,1064.9008136242628,1.0,1.0,phase_2,go,300.0,300.0,1.0,,,,,,,,,magenta,cross
0.0,7.0,3.0,1.0,5.0,0.0,0.0,1.0,1.0,phase_2,stop,300.0,300.0,4.0,,,,,,,,,yellow,circle
0.0,3.0,3.0,0.0,5.0,5.0,920.4954504966736,1.0,1.0,phase_2,go,350.0,300.0,1.0,,,,,,,,,gray,square
0.0,5.0,1.0,1.0,6.0,6.0,945.1317638158798,1.0,1.0,phase_2,go,350.0,300.0,1.0,,,,,,,,,white,hexagon
0.0,6.0,2.0,1.0,5.0,0.0,0.0,1.0,1.0,phase_2,stop,350.0,300.0,4.0,,,,,,,,,blue,triangle
0.0,5.0,1.0,1.0,6.0,0.0,0.0,1.0,1.0,phase_2,stop,400.0,300.0,4.0,,,,,,,,,white,hexagon
0.0,6.0,2.0,1.0,5.0,0.0,0.0,1.0,1.0,phase_2,stop,400.0,350.0,4.0,,,,,,,,,blue,triangle
0.0,2.0,2.0,0.0,5.0,0.0,0.0,1.0,1.0,phase_2,go,450.0,350.0,5.0,,,,,,,,,orange,I
0.0,3.0,3.0,0.0,6.0,6.0,941.553583368659,1.0,1.0,phase_2,go,450.0,350.0,1.0,,,,,,,,,gray,square
0.0,7.0,3.0,1.0,6.0,0.0,0.0,1.0,1.0,phase_2,stop,450.0,350.0,4.0,,,,,,,,,yellow,circle
0.0,1.0,1.0,0.0,6.0,6.0,514.7049985826015,1.0,1.0,phase_2,go,450.0,400.0,1.0,,,,,,,,,magenta,cross
0.0,5.0,1.0,1.0,5.0,5.0,649.8156450688839,1.0,1.0,phase_2,go,450.0,400.0,1.0,,,,,,,,,white,hexagon
0.0,4.0,4.0,0.0,5.0,5.0,637.2564192861319,1.0,1.0,phase_2,go,450.0,400.0,1.0,,,,,,,,,cyan,diamond
0.0,2.0,2.0,0.0,6.0,6.0,704.0840983390808,1.0,1.0,phase_2,go,450.0,400.0,1.0,,,,,,,,,orange,I
0.0,7.0,3.0,1.0,6.0,6.0,706.5127566456795,1.0,1.0,phase_2,go,450.0,400.0,1.0,,,,,,,,,yellow,circle
0.0,2.0,2.0,0.0,6.0,6.0,827.0678389817476,1.0,1.0,phase_2,go,450.0,400.0,1.0,,,,,,,,,orange,I
0.0,3.0,3.0,0.0,6.0,6.0,633.8308602571487,1.0,1.0,phase_2,go,450.0,400.0,1.0,,,,,,,,,gray,square
0.0,8.0,4.0,1.0,5.0,5.0,610.1017706096172,1.0,1.0,phase_2,stop,450.0,400.0,3.0,,,,,,,,,green,flipped triangle
0.0,1.0,1.0,0.0,6.0,6.0,598.526805639267,1.0,1.0,phase_2,go,400.0,400.0,1.0,,,,,,,,,magenta,cross
0.0,2.0,2.0,0.0,5.0,5.0,768.9124178141356,1.0,1.0,phase_2,go,400.0,400.0,1.0,,,,,,,,,orange,I
0.0,7.0,3.0,1.0,5.0,5.0,608.4781736135483,1.0,1.0,phase_2,stop,400.0,400.0,3.0,,,,,,,,,yellow,circle
0.0,2.0,2.0,0.0,5.0,5.0,964.453937485814,1.0,1.0,phase_2,go,350.0,400.0,1.0,,,,,,,,,orange,I
0.0,6.0,2.0,1.0,5.0,5.0,580.0871439278126,1.0,1.0,phase_2,stop,350.0,400.0,3.0,,,,,,,,,blue,triangle
0.0,8.0,4.0,1.0,5.0,5.0,972.3512828350068,1.0,1.0,phase_2,go,300.0,400.0,1.0,,,,,,,,,green,flipped triangle
0.0,2.0,2.0,0.0,5.0,5.0,1021.5471684932709,1.0,1.0,phase_2,go,300.0,400.0,1.0,,,,,,,,,orange,I
0.0,8.0,4.0,1.0,6.0,6.0,667.517339810729,1.0,1.0,phase_2,stop,300.0,400.0,3.0,,,,,,,,,green,flipped triangle
0.0,2.0,2.0,0.0,5.0,5.0,785.8984135091305,1.0,1.0,phase_2,go,300.0,350.0,1.0,,,,,,,,,orange,I
0.0,8.0,4.0,1.0,5.0,0.0,0.0,1.0,1.0,phase_2,stop,300.0,350.0,4.0,,,,,,,,,green,flipped triangle
0.0,4.0,4.0,0.0,6.0,6.0,880.7326797395945,1.0,1.0,phase_2,go,350.0,350.0,1.0,,,,,,,,,cyan,diamond
0.0,6.0,2.0,1.0,5.0,0.0,0.0,2.0,1.0,phase_2,stop,350.0,350.0,4.0,,,,,,,,,blue,triangle
0.0,7.0,3.0,1.0,6.0,0.0,0.0,2.0,1.0,phase_2,stop,400.0,350.0,4.0,,,,,,,,,yellow,circle
0.0,3.0,3.0,0.0,6.0,6.0,652.8268195688725,2.0,1.0,phase_2,go,400.0,400.0,1.0,,,,,,,,,gray,square
0.0,8.0,4.0,1.0,6.0,0.0,0.0,2.0,1.0,phase_2,stop,400.0,400.0,4.0,,,,,,,,,green,flipped triangle
0.0,5.0,1.0,1.0,6.0,0.0,0.0,2.0,1.0,phase_2,stop,400.0,450.0,4.0,,,,,,,,,white,hexagon
0.0,8.0,4.0,1.0,5.0,0.0,0.0,2.0,1.0,phase_2,stop,400.0,500.0,4.0,,,,,,,,,green,flipped triangle
0.0,2.0,2.0,0.0,6.0,6.0,1298.8366931676865,2.0,1.0,phase_2,go,450.0,500.0,1.0,,,,,,,,,orange,I
0.0,2.0,2.0,0.0,5.0,5.0,828.3133506774902,2.0,1.0,phase_2,go,450.0,500.0,1.0,,,,,,,,,orange,I
0.0,2.0,2.0,0.0,5.0,5.0,744.4262001663446,2.0,1.0,phase_2,go,450.0,500.0,1.0,,,,,,,,,orange,I
0.0,5.0,1.0,1.0,6.0,6.0,665.9072786569595,2.0,1.0,phase_2,stop,450.0,500.0,3.0,,,,,,,,,white,hexagon
0.0,5.0,1.0,1.0,5.0,0.0,0.0,2.0,1.0,phase_2,stop,450.0,450.0,4.0,,,,,,,,,white,hexagon
0.0,4.0,4.0,0.0,6.0,6.0,806.1251640319824,2.0,1.0,phase_2,go,500.0,450.0,1.0,,,,,,,,,cyan,diamond
0.0,5.0,1.0,1.0,5.0,0.0,0.0,2.0,1.0,phase_2,stop,500.0,450.0,4.0,,,,,,,,,white,hexagon
0.0,8.0,4.0,1.0,5.0,0.0,0.0,2.0,1.0,phase_2,stop,550.0,450.0,4.0,,,,,,,,,green,flipped triangle
0.0,4.0,4.0,0.0,5.0,5.0,1007.6471660286188,2.0,1.0,phase_2,go,600.0,450.0,1.0,,,,,,,,,cyan,diamond
0.0,7.0,3.0,1.0,6.0,0.0,0.0,2.0,1.0,phase_2,stop,600.0,450.0,4.0,,,,,,,,,yellow,circle
0.0,3.0,3.0,0.0,6.0,6.0,923.9567071199416,2.0,1.0,phase_2,go,600.0,500.0,1.0,,,,,,,,,gray,square
0.0,6.0,2.0,1.0,5.0,0.0,0.0,2.0,1.0,phase_2,stop,600.0,500.0,4.0,,,,,,,,,blue,triangle
0.0,8.0,4.0,1.0,6.0,6.0,1252.3207161575556,2.0,1.0,phase_2,go,650.0,500.0,1.0,,,,,,,,,green,flipped triangle
0.0,3.0,3.0,0.0,6.0,6.0,1179.9359135329723,2.0,1.0,phase_2,go,650.0,500.0,1.0,,,,,,,,,gray,square
0.0,6.0,2.0,1.0,6.0,6.0,634.5412340015173,2.0,1.0,phase_2,go,650.0,500.0,1.0,,,,,,,,,blue,triangle
0.0,7.0,3.0,1.0,6.0,0.0,0.0,2.0,1.0,phase_2,stop,650.0,500.0,4.0,,,,,,,,,yellow,circle
0.0,7.0,3.0,1.0,5.0,5.0,327.8825804591179,2.0,1.0,phase_2,stop,650.0,550.0,3.0,,,,,,,,,yellow,circle
0.0,6.0,2.0,1.0,5.0,0.0,0.0,2.0,1.0,phase_2,stop,600.0,550.0,4.0,,,,,,,,,blue,triangle
0.0,4.0,4.0,0.0,5.0,5.0,935.8053151518106,2.0,1.0,phase_2,go,650.0,550.0,1.0,,,,,,,,,cyan,diamond
0.0,4.0,4.0,0.0,5.0,5.0,1112.3605407774448,2.0,1.0,phase_2,go,650.0,550.0,1.0,,,,,,,,,cyan,diamond
0.0,4.0,4.0,0.0,6.0,6.0,1000.4489105194807,2.0,1.0,phase_2,go,650.0,550.0,1.0,,,,,,,,,cyan,diamond
0.0,1.0,1.0,0.0,5.0,5.0,929.2470328509808,2.0,1.0,phase_2,go,650.0,550.0,1.0,,,,,,,,,magenta,cross
0.0,5.0,1.0,1.0,6.0,6.0,630.3883120417595,2.0,1.0,phase_2,stop,650.0,550.0,3.0,,,,,,,,,white,hexagon
0.0,3.0,3.0,0.0,6.0,6.0,804.4136669486761,2.0,1.0,phase_2,go,650.0,500.0,1.0,,,,,,,,,gray,square
0.0,2.0,2.0,0.0,6.0,6.0,1135.5832759290934,2.0,1.0,phase_2,go,650.0,500.0,1.0,,,,,,,,,orange,I
0.0,7.0,3.0,1.0,5.0,0.0,0.0,2.0,1.0,phase_2,stop,650.0,500.0,4.0,,,,,,,,,yellow,circle
0.0,3.0,3.0,0.0,6.0,6.0,1026.6489945352075,2.0,1.0,phase_2,go,700.0,500.0,1.0,,,,,,,,,gray,square
0.0,6.0,2.0,1.0,6.0,0.0,0.0,2.0,1.0,phase_2,stop,700.0,500.0,4.0,,,,,,,,,blue,triangle
0.0,2.0,2.0,0.0,5.0,5.0,1084.4591725617647,2.0,1.0,phase_2,go,700.0,550.0,1.0,,,,,,,,,orange,I
0.0,7.0,3.0,1.0,6.0,6.0,1090.100459754467,2.0,1.0,phase_2,go,700.0,550.0,1.0,,,,,,,,,yellow,circle
0.0,1.0,1.0,0.0,5.0,5.0,1138.7518122792244,3.0,1.0,phase_2,go,700.0,550.0,1.0,,,,,,,,,magenta,cross
0.0,8.0,4.0,1.0,6.0,0.0,0.0,3.0,1.0,phase_2,stop,700.0,550.0,4.0,,,,,,,,,green,flipped triangle
0.0,3.0,3.0,0.0,5.0,5.0,772.7347128093243,3.0,1.0,phase_2,go,700.0,600.0,1.0,,,,,,,,,gray,square
0.0,7.0,3.0,1.0,5.0,5.0,796.733608469367,3.0,1.0,phase_2,go,700.0,600.0,1.0,,,,,,,,,yellow,circle
0.0,5.0,1.0,1.0,5.0,0.0,0.0,3.0,1.0,phase_2,stop,700.0,600.0,4.0,,,,,,,,,white,hexagon
0.0,6.0,2.0,1.0,6.0,0.0,0.0,3.0,1.0,phase_2,stop,750.0,600.0,4.0,,,,,,,,,blue,triangle
0.0,5.0,1.0,1.0,6.0,0.0,0.0,3.0,1.0,phase_2,stop,750.0,650.0,4.0,,,,,,,,,white,hexagon
0.0,2.0,2.0,0.0,6.0,6.0,838.9752823859453,3.0,1.0,phase_2,go,750.0,700.0,1.0,,,,,,,,,orange,I
0.0,5.0,1.0,1.0,5.0,0.0,0.0,3.0,1.0,phase_2,stop,750.0,700.0,4.0,,,,,,,,,white,hexagon
0.0,6.0,2.0,1.0,6.0,0.0,0.0,3.0,1.0,phase_2,stop,800.0,700.0,4.0,,,,,,,,,blue,triangle
0.0,5.0,1.0,1.0,6.0,0.0,0.0,3.0,1.0,phase_2,stop,800.0,750.0,4.0,,,,,,,,,white,hexagon
0.0,3.0,3.0,0.0,5.0,5.0,1020.5176807940006,3.0,1.0,phase_2,go,800.0,800.0,1.0,,,,,,,,,gray,square
0.0,5.0,1.0,1.0,5.0,5.0,527.4363420903683,3.0,1.0,phase_2,go,800.0,800.0,1.0,,,,,,,,,white,hexagon
0.0,3.0,3.0,0.0,5.0,5.0,708.5235472768545,3.0,1.0,phase_2,go,800.0,800.0,1.0,,,,,,,,,gray,square
0.0,1.0,1.0,0.0,6.0,6.0,644.7126790881157,3.0,1.0,phase_2,go,800.0,800.0,1.0,,,,,,,,,magenta,cross
0.0,2.0,2.0,0.0,6.0,6.0,531.2229208648205,3.0,1.0,phase_2,go,800.0,800.0,1.0,,,,,,,,,orange,I
0.0,7.0,3.0,1.0,5.0,5.0,354.6651508659124,3.0,1.0,phase_2,stop,800.0,800.0,3.0,,,,,,,,,yellow,circle
0.0,6.0,2.0,1.0,5.0,0.0,0.0,3.0,1.0,phase_2,stop,750.0,800.0,4.0,,,,,,,,,blue,triangle
0.0,4.0,4.0,0.0,5.0,5.0,946.3703725486994,3.0,1.0,phase_2,go,800.0,800.0,1.0,,,,,,,,,cyan,diamond
0.0,4.0,4.0,0.0,6.0,6.0,1387.5349648296833,3.0,1.0,phase_2,go,800.0,800.0,1.0,,,,,,,,,cyan,diamond
0.0,5.0,1.0,1.0,6.0,6.0,713.764576241374,3.0,1.0,phase_2,stop,800.0,800.0,3.0,,,,,,,,,white,hexagon
0.0,5.0,1.0,1.0,5.0,5.0,783.2336593419313,3.0,1.0,phase_2,stop,800.0,750.0,3.0,,,,,,,,,white,hexagon
0.0,7.0,3.0,1.0,5.0,0.0,0.0,3.0,1.0,phase_2,stop,750.0,750.0,4.0,,,,,,,,,yellow,circle
0.0,8.0,4.0,1.0,5.0,5.0,1232.2279382497072,3.0,1.0,phase_2,go,800.0,750.0,1.0,,,,,,,,,green,flipped triangle
0.0,1.0,1.0,0.0,5.0,5.0,1167.2490239143372,3.0,1.0,phase_2,go,800.0,750.0,1.0,,,,,,,,,magenta,cross
0.0,6.0,2.0,1.0,5.0,0.0,0.0,3.0,1.0,phase_2,stop,800.0,750.0,4.0,,,,,,,,,blue,triangle
0.0,3.0,3.0,0.0,6.0,6.0,974.5122268795968,3.0,1.0,phase_2,go,850.0,750.0,1.0,,,,,,,,,gray,square
0.0,4.0,4.0,0.0,6.0,6.0,1261.4656500518322,3.0,1.0,phase_2,go,850.0,750.0,1.0,,,,,,,,,cyan,diamond
0.0,2.0,2.0,0.0,5.0,5.0,613.3193150162697,3.0,1.0,phase_2,go,850.0,750.0,1.0,,,,,,,,,orange,I
0.0,2.0,2.0,0.0,6.0,6.0,1210.5413023382423,3.0,1.0,phase_2,go,850.0,750.0,1.0,,,,,,,,,orange,I
0.0,5.0,1.0,1.0,5.0,0.0,0.0,3.0,1.0,phase_2,stop,850.0,750.0,4.0,,,,,,,,,white,hexagon
0.0,1.0,1.0,0.0,5.0,5.0,756.6922511905432,3.0,1.0,phase_2,go,900.0,750.0,1.0,,,,,,,,,magenta,cross
0.0,6.0,2.0,1.0,6.0,0.0,0.0,3.0,1.0,phase_2,stop,900.0,750.0,4.0,,,,,,,,,blue,triangle
0.0,6.0,2.0,1.0,6.0,0.0,0.0,3.0,1.0,phase_2,stop,900.0,800.0,4.0,,,,,,,,,blue,triangle
0.0,1.0,1.0,0.0,6.0,6.0,1178.2807726413012,3.0,1.0,phase_2,go,900.0,850.0,1.0,,,,,,,,,magenta,cross
0.0,8.0,4.0,1.0,5.0,5.0,1401.6063790768385,3.0,1.0,phase_2,go,900.0,850.0,1.0,,,,,,,,,green,flipped triangle
0.0,2.0,2.0,0.0,6.0,6.0,782.6552167534828,4.0,1.0,phase_2,go,900.0,850.0,1.0,,,,,,,,,orange,I
0.0,1.0,1.0,0.0,5.0,5.0,1085.2208770811558,4.0,1.0,phase_2,go,900.0,850.0,1.0,,,,,,,,,magenta,cross
0.0,8.0,4.0,1.0,6.0,0.0,0.0,4.0,1.0,phase_2,stop,900.0,850.0,4.0,,,,,,,,,green,flipped triangle
0.0,6.0,2.0,1.0,5.0,5.0,660.9704792499542,4.0,1.0,phase_2,stop,900.0,900.0,3.0,,,,,,,,,blue,triangle
0.0,3.0,3.0,0.0,6.0,0.0,0.0,4.0,1.0,phase_2,go,850.0,900.0,5.0,,,,,,,,,gray,square
0.0,5.0,1.0,1.0,6.0,6.0,817.5629824399948,4.0,1.0,phase_2,go,850.0,900.0,1.0,,,,,,,,,white,hexagon
0.0,8.0,4.0,1.0,5.0,0.0,0.0,4.0,1.0,phase_2,stop,850.0,900.0,4.0,,,,,,,,,green,flipped triangle
0.0,2.0,2.0,0.0,6.0,6.0,786.8528161197901,4.0,1.0,phase_2,go,900.0,900.0,1.0,,,,,,,,,orange,I
0.0,1.0,1.0,0.0,5.0,5.0,754.6414211392403,4.0,1.0,phase_2,go,900.0,900.0,1.0,,,,,,,,,magenta,cross
0.0,6.0,2.0,1.0,6.0,6.0,641.8432369828224,4.0,1.0,phase_2,go,900.0,900.0,1.0,,,,,,,,,blue,triangle
0.0,4.0,4.0,0.0,6.0,6.0,658.5247963666916,4.0,1.0,phase_2,go,900.0,900.0,1.0,,,,,,,,,cyan,diamond
0.0,5.0,1.0,1.0,6.0,0.0,0.0,4.0,1.0,phase_2,go,900.0,900.0,5.0,,,,,,,,,white,hexagon
0.0,5.0,1.0,1.0,6.0,6.0,776.0384157299995,4.0,1.0,phase_2,stop,900.0,900.0,3.0,,,,,,,,,white,hexagon
0.0,4.0,4.0,0.0,6.0,6.0,887.5801954418421,4.0,1.0,phase_2,go,900.0,850.0,1.0,,,,,,,,,cyan,diamond
0.0,6.0,2.0,1.0,6.0,6.0,1221.0319358855486,4.0,1.0,phase_2,go,900.0,850.0,1.0,,,,,,,,,blue,triangle
0.0,2.0,2.0,0.0,5.0,5.0,1079.3229304254055,4.0,1.0,phase_2,go,900.0,850.0,1.0,,,,,,,,,orange,I
0.0,1.0,1.0,0.0,5.0,5.0,645.8000056445599,4.0,1.0,phase_2,go,900.0,850.0,1.0,,,,,,,,,magenta,cross
0.0,4.0,4.0,0.0,5.0,5.0,1107.1372032165527,4.0,1.0,phase_2,go,900.0,850.0,1.0,,,,,,,,,cyan,diamond
0.0,6.0,2.0,1.0,6.0,0.0,0.0,4.0,1.0,phase_2,stop,900.0,850.0,4.0,,,,,,,,,blue,triangle
0.0,3.0,3.0,0.0,5.0,5.0,901.4157000929116,4.0,1.0,phase_2,go,900.0,900.0,1.0,,,,,,,,,gray,square
0.0,6.0,2.0,1.0,5.0,0.0,0.0,4.0,1.0,phase_2,go,900.0,900.0,5.0,,,,,,,,,blue,triangle
0.0,5.0,1.0,1.0,6.0,6.0,924.0690302103758,4.0,1.0,phase_2,stop,900.0,900.0,3.0,,,,,,,,,white,hexagon
0.0,4.0,4.0,0.0,5.0,5.0,976.6734540462494,4.0,1.0,phase_2,go,900.0,850.0,1.0,,,,,,,,,cyan,diamond
0.0,2.0,2.0,0.0,6.0,6.0,1275.067651644349,4.0,1.0,phase_2,go,900.0,850.0,1.0,,,,,,,,,orange,I
0.0,2.0,2.0,0.0,6.0,6.0,1178.0579574406147,4.0,1.0,phase_2,go,900.0,850.0,1.0,,,,,,,,,orange,I
0.0,3.0,3.0,0.0,5.0,5.0,848.5460001975298,4.0,1.0,phase_2,go,900.0,850.0,1.0,,,,,,,,,gray,square
0.0,7.0,3.0,1.0,5.0,5.0,959.1944348067044,4.0,1.0,phase_2,stop,900.0,850.0,3.0,,,,,,,,,yellow,circle
0.0,8.0,4.0,1.0,5.0,5.0,1157.293288037181,4.0,1.0,phase_2,go,850.0,850.0,1.0,,,,,,,,,green,flipped triangle
0.0,4.0,4.0,0.0,5.0,5.0,639.086676761508,4.0,1.0,phase_2,go,850.0,850.0,1.0,,,,,,,,,cyan,diamond
0.0,2.0,2.0,0.0,5.0,5.0,997.2520675510168,4.0,1.0,phase_2,go,850.0,850.0,1.0,,,,,,,,,orange,I
0.0,7.0,3.0,1.0,5.0,5.0,901.8928408622742,4.0,1.0,phase_2,stop,850.0,850.0,3.0,,,,,,,,,yellow,circle
0.0,2.0,2.0,0.0,5.0,5.0,1053.971104323864,4.0,1.0,phase_2,go,800.0,850.0,1.0,,,,,,,,,orange,I
0.0,4.0,4.0,0.0,6.0,6.0,1236.9970548897982,4.0,1.0,phase_2,go,800.0,850.0,1.0,,,,,,,,,cyan,diamond
0.0,3.0,3.0,0.0,6.0,6.0,834.9924702197313,4.0,1.0,phase_2,go,800.0,850.0,1.0,,,,,,,,,gray,square
0.0,3.0,3.0,0.0,5.0,5.0,970.3964293003082,4.0,1.0,phase_2,go,800.0,850.0,1.0,,,,,,,,,gray,square
0.0,5.0,1.0,1.0,6.0,0.0,0.0,4.0,1.0,phase_2,stop,800.0,850.0,4.0,,,,,,,,,white,hexagon
0.0,5.0,1.0,1.0,6.0,6.0,693.6716232448816,5.0,1.0,phase_2,stop,800.0,900.0,3.0,,,,,,,,,white,hexagon
0.0,4.0,4.0,0.0,5.0,5.0,262.3749170452356,5.0,1.0,phase_2,go,800.0,850.0,1.0,,,,,,,,,cyan,diamond
0.0,6.0,2.0,1.0,6.0,6.0,954.698221758008,5.0,1.0,phase_2,go,800.0,850.0,1.0,,,,,,,,,blue,triangle
0.0,7.0,3.0,1.0,5.0,5.0,836.5813586860895,5.0,1.0,phase_2,stop,800.0,850.0,3.0,,,,,,,,,yellow,circle
0.0,8.0,4.0,1.0,6.0,6.0,580.1068432629108,5.0,1.0,phase_2,stop,750.0,850.0,3.0,,,,,,,,,green,flipped triangle
0.0,2.0,2.0,0.0,5.0,5.0,1026.1395666748283,5.0,1.0,phase_2,go,750.0,800.0,1.0,,,,,,,,,orange,I
0.0,4.0,4.0,0.0,5.0,5.0,1282.79247879982,5.0,1.0,phase_2,go,750.0,800.0,1.0,,,,,,,,,cyan,diamond
0.0,3.0,3.0,0.0,5.0,5.0,971.587285399437,5.0,1.0,phase_2,go,750.0,800.0,1.0,,,,,,,,,gray,square
0.0,8.0,4.0,1.0,6.0,6.0,603.1310744583607,5.0,1.0,phase_2,go,750.0,800.0,1.0,,,,,,,,,green,flipped triangle
0.0,3.0,3.0,0.0,6.0,6.0,927.8619475662708,5.0,1.0,phase_2,go,750.0,800.0,1.0,,,,,,,,,gray,square
0.0,8.0,4.0,1.0,6.0,6.0,993.217496201396,5.0,1.0,phase_2,stop,750.0,800.0,3.0,,,,,,,,,green,flipped triangle
0.0,4.0,4.0,0.0,5.0,5.0,1053.3931590616703,5.0,1.0,phase_2,go,750.0,750.0,1.0,,,,,,,,,cyan,diamond
0.0,3.0,3.0,0.0,6.0,0.0,0.0,5.0,1.0,phase_2,go,750.0,750.0,5.0,,,,,,,,,gray,square
0.0,8.0,4.0,1.0,6.0,0.0,0.0,5.0,1.0,phase_2,stop,750.0,750.0,4.0,,,,,,,,,green,flipped triangle
0.0,5.0,1.0,1.0,5.0,5.0,286.6442799568176,5.0,1.0,phase_2,go,750.0,800.0,1.0,,,,,,,,,white,hexagon
0.0,2.0,2.0,0.0,6.0,6.0,1037.5325474888086,5.0,1.0,phase_2,go,750.0,800.0,1.0,,,,,,,,,orange,I
0.0,4.0,4.0,0.0,6.0,6.0,1268.7126155942678,5.0,1.0,phase_2,go,750.0,800.0,1.0,,,,,,,,,cyan,diamond
0.0,1.0,1.0,0.0,6.0,0.0,0.0,5.0,1.0,phase_2,go,750.0,800.0,5.0,,,,,,,,,magenta,cross
0.0,2.0,2.0,0.0,6.0,6.0,786.0142048448324,5.0,1.0,phase_2,go,750.0,800.0,1.0,,,,,,,,,orange,I
0.0,4.0,4.0,0.0,5.0,5.0,795.3090071678162,5.0,1.0,phase_2,go,750.0,800.0,1.0,,,,,,,,,cyan,diamond
0.0,8.0,4.0,1.0,5.0,5.0,897.5798394531012,5.0,1.0,phase_2,stop,750.0,800.0,3.0,,,,,,,,,green,flipped triangle
0.0,6.0,2.0,1.0,6.0,0.0,0.0,5.0,1.0,phase_2,stop,700.0,800.0,4.0,,,,,,,,,blue,triangle
0.0,8.0,4.0,1.0,5.0,5.0,714.9137631058693,5.0,1.0,phase_2,go,700.0,850.0,1.0,,,,,,,,,green,flipped triangle
0.0,1.0,1.0,0.0,6.0,6.0,1152.2725578397512,5.0,1.0,phase_2,go,700.0,850.0,1.0,,,,,,,,,magenta,cross
0.0,6.0,2.0,1.0,6.0,0.0,0.0,5.0,1.0,phase_2,stop,700.0,850.0,4.0,,,,,,,,,blue,triangle
0.0,5.0,1.0,1.0,6.0,6.0,646.0189707577229,5.0,1.0,phase_2,go,700.0,900.0,1.0,,,,,,,,,white,hexagon
0.0,1.0,1.0,0.0,6.0,6.0,1078.6329712718723,5.0,1.0,phase_2,go,700.0,900.0,1.0,,,,,,,,,magenta,cross
0.0,4.0,4.0,0.0,6.0,0.0,0.0,5.0,1.0,phase_2,go,700.0,900.0,5.0,,,,,,,,,cyan,diamond
0.0,4.0,4.0,0.0,5.0,5.0,528.0804131180048,5.0,1.0,phase_2,go,700.0,900.0,1.0,,,,,,,,,cyan,diamond
0.0,3.0,3.0,0.0,5.0,5.0,431.0962073504925,5.0,1.0,phase_2,go,700.0,900.0,1.0,,,,,,,,,gray,square
0.0,5.0,1.0,1.0,5.0,5.0,603.3808514475822,5.0,1.0,phase_2,stop,700.0,900.0,3.0,,,,,,,,,white,hexagon
0.0,3.0,3.0,0.0,6.0,6.0,604.015389457345,5.0,1.0,phase_2,go,650.0,900.0,1.0,,,,,,,,,gray,square
0.0,7.0,3.0,1.0,6.0,6.0,501.3089347630739,5.0,1.0,phase_2,go,650.0,900.0,1.0,,,,,,,,,yellow,circle
0.0,6.0,2.0,1.0,5.0,5.0,577.5340087711811,5.0,1.0,phase_2,stop,650.0,900.0,3.0,,,,,,,,,blue,triangle
0.0,7.0,3.0,1.0,5.0,0.0,0.0,5.0,1.0,phase_2,stop,600.0,900.0,4.0,,,,,,,,,yellow,circle
0.0,3.0,3.0,0.0,5.0,5.0,969.0518826246262,5.0,1.0,phase_2,go,650.0,900.0,1.0,,,,,,,,,gray,square
0.0,7.0,3.0,1.0,5.0,5.0,786.1504312604666,6.0,1.0,phase_2,stop,650.0,900.0,3.0,,,,,,,,,yellow,circle
0.0,7.0,3.0,1.0,6.0,6.0,1017.5019986927509,6.0,1.0,phase_2,stop,600.0,900.0,3.0,,,,,,,,,yellow,circle
0.0,6.0,2.0,1.0,6.0,0.0,0.0,6.0,1.0,phase_2,stop,600.0,850.0,4.0,,,,,,,,,blue,triangle
0.0,2.0,2.0,0.0,5.0,5.0,767.1490963548422,6.0,1.0,phase_2,go,600.0,900.0,1.0,,,,,,,,,orange,I
0.0,1.0,1.0,0.0,6.0,6.0,1012.3031213879583,6.0,1.0,phase_2,go,600.0,900.0,1.0,,,,,,,,,magenta,cross
0.0,2.0,2.0,0.0,6.0,6.0,534.559540450573,6.0,1.0,phase_2,go,600.0,900.0,1.0,,,,,,,,,orange,I
0.0,4.0,4.0,0.0,6.0,6.0,636.6012990474701,6.0,1.0,phase_2,go,600.0,900.0,1.0,,,,,,,,,cyan,diamond
0.0,7.0,3.0,1.0,6.0,6.0,1117.4388490617275,6.0,1.0,phase_2,go,600.0,900.0,1.0,,,,,,,,,yellow,circle
0.0,1.0,1.0,0.0,5.0,5.0,773.8965842872858,6.0,1.0,phase_2,go,600.0,900.0,1.0,,,,,,,,,magenta,cross
0.0,7.0,3.0,1.0,6.0,0.0,0.0,6.0,1.0,phase_2,stop,600.0,900.0,4.0,,,,,,,,,yellow,circle
0.0,6.0,2.0,1.0,6.0,6.0,955.3144592791796,6.0,1.0,phase_2,go,600.0,950.0,1.0,,,,,,,,,blue,triangle
0.0,3.0,3.0,0.0,6.0,6.0,1075.8593883365393,6.0,1.0,phase_2,go,600.0,950.0,1.0,,,,,,,,,gray,square
0.0,8.0,4.0,1.0,5.0,0.0,0.0,6.0,1.0,phase_2,stop,600.0,950.0,4.0,,,,,,,,,green,flipped triangle
0.0,1.0,1.0,0.0,5.0,5.0,576.4486081898212,6.0,1.0,phase_2,go,650.0,950.0,1.0,,,,,,,,,magenta,cross
0.0,1.0,1.0,0.0,6.0,6.0,1073.70363175869,6.0,1.0,phase_2,go,650.0,950.0,1.0,,,,,,,,,magenta,cross
0.0,7.0,3.0,1.0,5.0,0.0,0.0,6.0,1.0,phase_2,stop,650.0,950.0,4.0,,,,,,,,,yellow,circle
0.0,4.0,4.0,0.0,6.0,6.0,808.7003491818905,6.0,1.0,phase_2,go,700.0,950.0,1.0,,,,,,,,,cyan,diamond
0.0,4.0,4.0,0.0,6.0,6.0,1271.4443933218718,6.0,1.0,phase_2,go,700.0,950.0,1.0,,,,,,,,,cyan,diamond
0.0,2.0,2.0,0.0,5.0,5.0,813.2742661982775,6.0,1.0,phase_2,go,700.0,950.0,1.0,,,,,,,,,orange,I
0.0,6.0,2.0,1.0,5.0,5.0,270.2969908714294,6.0,1.0,phase_2,go,700.0,950.0,1.0,,,,,,,,,blue,triangle
0.0,7.0,3.0,1.0,5.0,0.0,0.0,6.0,1.0,phase_2,stop,700.0,950.0,4.0,,,,,,,,,yellow,circle
0.0,8.0,4.0,1.0,6.0,6.0,757.257416844368,6.0,1.0,phase_2,stop,750.0,950.0,3.0,,,,,,,,,green,flipped triangle
0.0,1.0,1.0,0.0,5.0,5.0,1388.2451802492142,6.0,1.0,phase_2,go,750.0,900.0,1.0,,,,,,,,,magenta,cross
0.0,8.0,4.0,1.0,6.0,0.0,0.0,6.0,1.0,phase_2,stop,750.0,900.0,4.0,,,,,,,,,green,flipped triangle
0.0,3.0,3.0,0.0,6.0,6.0,841.3224834948778,6.0,1.0,phase_2,go,750.0,950.0,1.0,,,,,,,,,gray,square
0.0,5.0,1.0,1.0,5.0,5.0,672.8642359375954,6.0,1.0,phase_2,stop,750.0,950.0,3.0,,,,,,,,,white,hexagon
0.0,6.0,2.0,1.0,5.0,0.0,0.0,6.0,1.0,phase_2,stop,700.0,950.0,4.0,,,,,,,,,blue,triangle
0.0,3.0,3.0,0.0,5.0,5.0,1106.0583721846342,6.0,1.0,phase_2,go,750.0,950.0,1.0,,,,,,,,,gray,square
0.0,7.0,3.0,1.0,6.0,6.0,1071.3658407330513,6.0,1.0,phase_2,stop,750.0,950.0,3.0,,,,,,,,,yellow,circle
0.0,5.0,1.0,1.0,6.0,0.0,0.0,6.0,1.0,phase_2,stop,750.0,900.0,4.0,,,,,,,,,white,hexagon
0.0,5.0,1.0,1.0,5.0,5.0,954.2202055454254,6.0,1.0,phase_2,go,750.0,950.0,1.0,,,,,,,,,white,hexagon
0.0,8.0,4.0,1.0,5.0,0.0,0.0,6.0,1.0,phase_2,stop,750.0,950.0,4.0,,,,,,,,,green,flipped triangle
0.0,4.0,4.0,0.0,5.0,5.0,1056.3725605607033,6.0,1.0,phase_2,go,800.0,950.0,1.0,,,,,,,,,cyan,diamond
0.0,6.0,2.0,1.0,5.0,0.0,0.0,6.0,1.0,phase_2,stop,800.0,950.0,4.0,,,,,,,,,blue,triangle
0.0,8.0,4.0,1.0,6.0,6.0,301.883339881897,6.0,1.0,phase_2,go,850.0,950.0,1.0,,,,,,,,,green,flipped triangle
0.0,1.0,1.0,0.0,6.0,6.0,789.6316200494766,6.0,1.0,phase_2,go,850.0,950.0,1.0,,,,,,,,,magenta,cross
0.0,5.0,1.0,1.0,5.0,0.0,0.0,7.0,1.0,phase_2,stop,850.0,950.0,4.0,,,,,,,,,white,hexagon
0.0,7.0,3.0,1.0,5.0,0.0,0.0,7.0,1.0,phase_2,stop,900.0,950.0,4.0,,,,,,,,,yellow,circle
0.0,6.0,2.0,1.0,5.0,5.0,810.7720576226711,7.0,1.0,phase_2,go,950.0,950.0,1.0,,,,,,,,,blue,triangle
0.0,1.0,1.0,0.0,6.0,6.0,996.1925242096186,7.0,1.0,phase_2,go,950.0,950.0,1.0,,,,,,,,,magenta,cross
0.0,2.0,2.0,0.0,5.0,0.0,0.0,7.0,1.0,phase_2,go,950.0,950.0,5.0,,,,,,,,,orange,I
0.0,7.0,3.0,1.0,6.0,6.0,926.9293211400508,7.0,1.0,phase_2,go,950.0,950.0,1.0,,,,,,,,,yellow,circle
0.0,5.0,1.0,1.0,5.0,5.0,905.912211164832,7.0,1.0,phase_2,go,950.0,950.0,1.0,,,,,,,,,white,hexagon
0.0,8.0,4.0,1.0,6.0,6.0,656.4807537943125,7.0,1.0,phase_2,stop,950.0,950.0,3.0,,,,,,,,,green,flipped triangle
0.0,8.0,4.0,1.0,5.0,5.0,320.0260251760483,7.0,1.0,phase_2,stop,950.0,900.0,3.0,,,,,,,,,green,flipped triangle
0.0,3.0,3.0,0.0,5.0,5.0,838.141793385148,7.0,1.0,phase_2,go,900.0,900.0,1.0,,,,,,,,,gray,square
0.0,8.0,4.0,1.0,5.0,0.0,0.0,7.0,1.0,phase_2,stop,900.0,900.0,4.0,,,,,,,,,green,flipped triangle
0.0,1.0,1.0,0.0,6.0,6.0,766.4848957210779,7.0,1.0,phase_2,go,950.0,900.0,1.0,,,,,,,,,magenta,cross
0.0,7.0,3.0,1.0,6.0,6.0,1317.959938198328,7.0,1.0,phase_2,go,950.0,900.0,1.0,,,,,,,,,yellow,circle
0.0,3.0,3.0,0.0,5.0,5.0,1093.564873561263,7.0,1.0,phase_2,go,950.0,900.0,1.0,,,,,,,,,gray,square
0.0,4.0,4.0,0.0,6.0,6.0,1059.869272634387,7.0,1.0,phase_2,go,950.0,900.0,1.0,,,,,,,,,cyan,diamond
0.0,1.0,1.0,0.0,5.0,5.0,529.3430052697659,7.0,1.0,phase_2,go,950.0,900.0,1.0,,,,,,,,,magenta,cross
0.0,1.0,1.0,0.0,5.0,5.0,954.103944823146,7.0,1.0,phase_2,go,950.0,900.0,1.0,,,,,,,,,magenta,cross
0.0,4.0,4.0,0.0,5.0,5.0,929.1646555066108,7.0,1.0,phase_2,go,950.0,900.0,1.0,,,,,,,,,cyan,diamond
0.0,6.0,2.0,1.0,6.0,6.0,890.8170871436596,7.0,1.0,phase_2,stop,950.0,900.0,3.0,,,,,,,,,blue,triangle
0.0,1.0,1.0,0.0,5.0,5.0,735.3305667638779,7.0,1.0,phase_2,go,950.0,850.0,1.0,,,,,,,,,magenta,cross
0.0,4.0,4.0,0.0,5.0,5.0,1087.683917954564,7.0,1.0,phase_2,go,950.0,850.0,1.0,,,,,,,,,cyan,diamond
0.0,3.0,3.0,0.0,6.0,6.0,1072.485253214836,7.0,1.0,phase_2,go,950.0,850.0,1.0,,,,,,,,,gray,square
0.0,4.0,4.0,0.0,5.0,5.0,984.5251310616732,7.0,1.0,phase_2,go,950.0,850.0,1.0,,,,,,,,,cyan,diamond
0.0,1.0,1.0,0.0,5.0,5.0,781.8828634917736,7.0,1.0,phase_2,go,950.0,850.0,1.0,,,,,,,,,magenta,cross
0.0,6.0,2.0,1.0,6.0,6.0,894.406620413065,7.0,1.0,phase_2,stop,950.0,850.0,3.0,,,,,,,,,blue,triangle
0.0,3.0,3.0,0.0,5.0,5.0,832.2662711143494,7.0,1.0,phase_2,go,950.0,800.0,1.0,,,,,,,,,gray,square
0.0,2.0,2.0,0.0,6.0,6.0,909.4382598996162,7.0,1.0,phase_2,go,950.0,800.0,1.0,,,,,,,,,orange,I
0.0,3.0,3.0,0.0,5.0,5.0,878.0900966376066,7.0,1.0,phase_2,go,950.0,800.0,1.0,,,,,,,,,gray,square
0.0,7.0,3.0,1.0,6.0,6.0,694.445762783289,7.0,1.0,phase_2,stop,950.0,800.0,3.0,,,,,,,,,yellow,circle
0.0,7.0,3.0,1.0,6.0,6.0,803.062392398715,7.0,1.0,phase_2,stop,950.0,750.0,3.0,,,,,,,,,yellow,circle
0.0,4.0,4.0,0.0,6.0,6.0,1065.836686640978,7.0,1.0,phase_2,go,950.0,700.0,1.0,,,,,,,,,cyan,diamond
0.0,3.0,3.0,0.0,6.0,6.0,1067.440751940012,7.0,1.0,phase_2,go,950.0,700.0,1.0,,,,,,,,,gray,square
0.0,2.0,2.0,0.0,5.0,5.0,1208.543248474598,7.0,1.0,phase_2,go,950.0,700.0,1.0,,,,,,,,,orange,I
0.0,5.0,1.0,1.0,5.0,0.0,0.0,7.0,1.0,phase_2,stop,950.0,700.0,4.0,,,,,,,,,white,hexagon
0.0,5.0,1.0,1.0,6.0,0.0,0.0,7.0,1.0,phase_2,stop,1000.0,700.0,4.0,,,,,,,,,white,hexagon
0.0,5.0,1.0,1.0,5.0,5.0,904.8949722200632,7.0,1.0,phase_2,stop,1000.0,750.0,3.0,,,,,,,,,white,hexagon
0.0,1.0,1.0,0.0,6.0,0.0,0.0,8.0,1.0,phase_2,go,950.0,750.0,5.0,,,,,,,,,magenta,cross
0.0,8.0,4.0,1.0,5.0,5.0,531.3187781721354,8.0,1.0,phase_2,stop,950.0,750.0,3.0,,,,,,,,,green,flipped triangle
0.0,1.0,1.0,0.0,5.0,5.0,501.8180273473263,8.0,1.0,phase_2,go,900.0,750.0,1.0,,,,,,,,,magenta,cross
0.0,3.0,3.0,0.0,5.0,5.0,409.449465572834,8.0,1.0,phase_2,go,900.0,750.0,1.0,,,,,,,,,gray,square
0.0,1.0,1.0,0.0,6.0,6.0,800.8013423532248,8.0,1.0,phase_2,go,900.0,750.0,1.0,,,,,,,,,magenta,cross
0.0,6.0,2.0,1.0,6.0,6.0,651.9050877541304,8.0,1.0,phase_2,stop,900.0,750.0,3.0,,,,,,,,,blue,triangle
0.0,7.0,3.0,1.0,6.0,6.0,874.9813195317984,8.0,1.0,phase_2,stop,900.0,700.0,3.0,,,,,,,,,yellow,circle
0.0,1.0,1.0,0.0,6.0,6.0,1095.3149162232876,8.0,1.0,phase_2,go,900.0,650.0,1.0,,,,,,,,,magenta,cross
0.0,7.0,3.0,1.0,6.0,0.0,0.0,8.0,1.0,phase_2,stop,900.0,650.0,4.0,,,,,,,,,yellow,circle
0.0,7.0,3.0,1.0,6.0,6.0,878.2127425074577,8.0,1.0,phase_2,go,900.0,700.0,1.0,,,,,,,,,yellow,circle
0.0,5.0,1.0,1.0,6.0,0.0,0.0,8.0,1.0,phase_2,stop,900.0,700.0,4.0,,,,,,,,,white,hexagon
0.0,3.0,3.0,0.0,6.0,6.0,957.4970565736294,8.0,1.0,phase_2,go,900.0,750.0,1.0,,,,,,,,,gray,square
0.0,4.0,4.0,0.0,6.0,6.0,974.5795857161283,8.0,1.0,phase_2,go,900.0,750.0,1.0,,,,,,,,,cyan,diamond
0.0,7.0,3.0,1.0,5.0,5.0,718.0974166840315,8.0,1.0,phase_2,go,900.0,750.0,1.0,,,,,,,,,yellow,circle
0.0,2.0,2.0,0.0,6.0,6.0,1255.113584920764,8.0,1.0,phase_2,go,900.0,750.0,1.0,,,,,,,,,orange,I
0.0,6.0,2.0,1.0,6.0,6.0,859.4841305166483,8.0,1.0,phase_2,stop,900.0,750.0,3.0,,,,,,,,,blue,triangle
0.0,1.0,1.0,0.0,6.0,6.0,834.2002369463444,8.0,1.0,phase_2,go,900.0,700.0,1.0,,,,,,,,,magenta,cross
0.0,2.0,2.0,0.0,6.0,6.0,1275.2042338252068,8.0,1.0,phase_2,go,900.0,700.0,1.0,,,,,,,,,orange,I
0.0,5.0,1.0,1.0,5.0,5.0,980.3829714655876,8.0,1.0,phase_2,stop,900.0,700.0,3.0,,,,,,,,,white,hexagon
0.0,6.0,2.0,1.0,5.0,5.0,836.9704820215702,8.0,1.0,phase_2,stop,850.0,700.0,3.0,,,,,,,,,blue,triangle
0.0,4.0,4.0,0.0,6.0,6.0,860.3141196072102,8.0,1.0,phase_2,go,800.0,700.0,1.0,,,,,,,,,cyan,diamond
0.0,1.0,1.0,0.0,6.0,6.0,607.455775141716,8.0,1.0,phase_2,go,800.0,700.0,1.0,,,,,,,,,magenta,cross
0.0,8.0,4.0,1.0,5.0,5.0,689.4330680370331,8.0,1.0,phase_2,stop,800.0,700.0,3.0,,,,,,,,,green,flipped triangle
0.0,8.0,4.0,1.0,6.0,0.0,0.0,8.0,1.0,phase_2,stop,750.0,700.0,4.0,,,,,,,,,green,flipped triangle
0.0,1.0,1.0,0.0,5.0,5.0,728.6501303315163,8.0,1.0,phase_2,go,750.0,750.0,1.0,,,,,,,,,magenta,cross
0.0,6.0,2.0,1.0,5.0,0.0,0.0,8.0,1.0,phase_2,stop,750.0,750.0,4.0,,,,,,,,,blue,triangle
0.0,8.0,4.0,1.0,6.0,0.0,0.0,8.0,1.0,phase_2,stop,800.0,750.0,4.0,,,,,,,,,green,flipped triangle
0.0,3.0,3.0,0.0,5.0,5.0,598.612928763032,8.0,1.0,phase_2,go,800.0,800.0,1.0,,,,,,,,,gray,square
0.0,8.0,4.0,1.0,6.0,6.0,1039.078587666154,8.0,1.0,phase_2,go,800.0,800.0,1.0,,,,,,,,,green,flipped triangle
0.0,3.0,3.0,0.0,5.0,5.0,855.0538308918476,8.0,1.0,phase_2,go,800.0,800.0,1.0,,,,,,,,,gray,square
0.0,5.0,1.0,1.0,5.0,5.0,845.2780414372683,8.0,1.0,phase_2,stop,800.0,800.0,3.0,,,,,,,,,white,hexagon
0.0,2.0,2.0,0.0,6.0,6.0,773.5355775803328,8.0,1.0,phase_2,go,750.0,800.0,1.0,,,,,,,,,orange,I
0.0,8.0,4.0,1.0,6.0,6.0,729.8844438046217,8.0,1.0,phase_2,stop,750.0,800.0,3.0,,,,,,,,,green,flipped triangle
0.0,4.0,4.0,0.0,5.0,5.0,978.207079693675,8.0,1.0,phase_2,go,750.0,750.0,1.0,,,,,,,,,cyan,diamond
0.0,4.0,4.0,0.0,6.0,6.0,915.311649441719,8.0,1.0,phase_2,go,750.0,750.0,1.0,,,,,,,,,cyan,diamond
0.0,1.0,1.0,0.0,6.0,6.0,1370.9319215267897,8.0,1.0,phase_2,go,750.0,750.0,1.0,,,,,,,,,magenta,cross
0.0,7.0,3.0,1.0,7.0,3.0,505.09339198470116,1.0,1.0,phase_3,,,,,39.0,1.0,156.0,117.0,39.0,234.0,195.0,78.0,yellow,circle
0.0,3.0,3.0,0.0,7.0,4.0,2200.566243380308,1.0,1.0,phase_3,,,,,54.0,1.0,162.0,324.0,108.0,54.0,270.0,216.0,gray,square
0.0,6.0,2.0,1.0,7.0,5.0,2044.9907295405865,1.0,1.0,phase_3,,,,,49.0,1.0,196.0,294.0,98.0,245.0,49.0,147.0,blue,triangle
0.0,3.0,3.0,0.0,7.0,5.0,1990.218065679073,1.0,1.0,phase_3,,,,,34.0,1.0,170.0,136.0,204.0,102.0,34.0,68.0,gray,square
0.0,6.0,2.0,1.0,7.0,1.0,1804.4937960803509,1.0,1.0,phase_3,,,,,39.0,1.0,39.0,156.0,195.0,234.0,117.0,78.0,blue,triangle
0.0,3.0,3.0,0.0,7.0,1.0,1807.9343121498823,1.0,1.0,phase_3,,,,,39.0,1.0,39.0,234.0,156.0,195.0,78.0,117.0,gray,square
0.0,8.0,4.0,1.0,7.0,2.0,2634.293047711253,1.0,1.0,phase_3,,,,,88.0,2.0,220.0,88.0,44.0,264.0,176.0,132.0,green,flipped triangle
0.0,2.0,2.0,0.0,7.0,1.0,2397.027339786291,1.0,1.0,phase_3,,,,,78.0,2.0,78.0,156.0,234.0,39.0,195.0,117.0,orange,I
0.0,4.0,4.0,0.0,7.0,2.0,3914.434822276234,1.0,1.0,phase_3,,,,,98.0,2.0,49.0,98.0,147.0,245.0,294.0,196.0,cyan,diamond
0.0,2.0,2.0,0.0,7.0,2.0,1742.5517309457064,1.0,1.0,phase_3,,,,,88.0,2.0,220.0,88.0,264.0,132.0,44.0,176.0,orange,I
0.0,1.0,1.0,0.0,7.0,3.0,3933.13267827034,1.0,1.0,phase_3,,,,,108.0,2.0,162.0,216.0,108.0,54.0,324.0,270.0,magenta,cross
0.0,4.0,4.0,0.0,7.0,4.0,2798.364533111453,1.0,1.0,phase_3,,,,,78.0,2.0,117.0,39.0,156.0,78.0,195.0,234.0,cyan,diamond
0.0,3.0,3.0,0.0,7.0,3.0,2795.799843966961,1.0,1.0,phase_3,,,,,88.0,2.0,176.0,44.0,88.0,132.0,220.0,264.0,gray,square
0.0,4.0,4.0,0.0,7.0,1.0,2753.7690233439207,1.0,1.0,phase_3,,,,,68.0,2.0,68.0,170.0,136.0,34.0,204.0,102.0,cyan,diamond
0.0,6.0,2.0,1.0,7.0,5.0,3426.5157263726,1.0,1.0,phase_3,,,,,108.0,2.0,162.0,324.0,54.0,216.0,108.0,270.0,blue,triangle
0.0,6.0,2.0,1.0,7.0,1.0,2343.033043667674,1.0,1.0,phase_3,,,,,78.0,2.0,78.0,195.0,156.0,117.0,234.0,39.0,blue,triangle
0.0,5.0,1.0,1.0,7.0,2.0,2181.1493411660194,1.0,1.0,phase_3,,,,,108.0,2.0,270.0,108.0,162.0,54.0,216.0,324.0,white,hexagon
0.0,3.0,3.0,0.0,7.0,2.0,1721.9468969851732,1.0,1.0,phase_3,,,,,88.0,2.0,176.0,88.0,264.0,132.0,44.0,220.0,gray,square
0.0,3.0,3.0,0.0,7.0,5.0,2659.0711511671543,1.0,1.0,phase_3,,,,,68.0,2.0,136.0,170.0,102.0,34.0,68.0,204.0,gray,square
0.0,2.0,2.0,0.0,7.0,4.0,2316.2841461598878,1.0,1.0,phase_3,,,,,98.0,2.0,147.0,245.0,196.0,98.0,294.0,49.0,orange,I
0.0,4.0,4.0,0.0,7.0,6.0,2131.5402928739786,2.0,1.0,phase_3,,,,,68.0,2.0,34.0,204.0,170.0,136.0,102.0,68.0,cyan,diamond
0.0,3.0,3.0,0.0,7.0,1.0,2585.706202313304,2.0,1.0,phase_3,,,,,98.0,2.0,98.0,294.0,49.0,245.0,196.0,147.0,gray,square
0.0,2.0,2.0,0.0,7.0,3.0,2404.103010892868,2.0,1.0,phase_3,,,,,78.0,2.0,195.0,156.0,78.0,39.0,234.0,117.0,orange,I
0.0,5.0,1.0,1.0,7.0,6.0,2373.8331720232964,2.0,1.0,phase_3,,,,,98.0,2.0,49.0,147.0,294.0,245.0,196.0,98.0,white,hexagon
0.0,3.0,3.0,0.0,7.0,5.0,1669.1033896058798,2.0,1.0,phase_3,,,,,98.0,2.0,147.0,49.0,245.0,196.0,98.0,294.0,gray,square
0.0,5.0,1.0,1.0,7.0,3.0,2966.198703274131,2.0,1.0,phase_3,,,,,108.0,2.0,270.0,162.0,108.0,324.0,216.0,54.0,white,hexagon
0.0,8.0,4.0,1.0,7.0,6.0,1952.426977455616,2.0,1.0,phase_3,,,,,98.0,2.0,147.0,49.0,196.0,245.0,294.0,98.0,green,flipped triangle
0.0,2.0,2.0,0.0,7.0,1.0,1721.2070655077696,2.0,1.0,phase_3,,,,,88.0,2.0,88.0,176.0,44.0,264.0,220.0,132.0,orange,I
0.0,6.0,2.0,1.0,7.0,3.0,1715.2912225574255,2.0,1.0,phase_3,,,,,108.0,2.0,324.0,216.0,108.0,162.0,54.0,270.0,blue,triangle
0.0,3.0,3.0,0.0,7.0,1.0,2652.7445446699858,2.0,1.0,phase_3,,,,,78.0,2.0,78.0,156.0,39.0,234.0,117.0,195.0,gray,square
0.0,7.0,3.0,1.0,7.0,1.0,2389.2396986484528,2.0,1.0,phase_3,,,,,78.0,2.0,78.0,234.0,156.0,117.0,195.0,39.0,yellow,circle
0.0,6.0,2.0,1.0,7.0,3.0,1832.8549452126024,2.0,1.0,phase_3,,,,,68.0,2.0,136.0,204.0,68.0,34.0,102.0,170.0,blue,triangle
0.0,8.0,4.0,1.0,7.0,2.0,2633.7642557919025,2.0,1.0,phase_3,,,,,108.0,2.0,324.0,108.0,216.0,270.0,54.0,162.0,green,flipped triangle
0.0,1.0,1.0,0.0,7.0,3.0,1673.0868518352509,2.0,1.0,phase_3,,,,,88.0,2.0,264.0,44.0,88.0,132.0,176.0,220.0,magenta,cross
0.0,2.0,2.0,0.0,7.0,3.0,2613.0797043442726,2.0,1.0,phase_3,,,,,98.0,2.0,294.0,245.0,98.0,49.0,147.0,196.0,orange,I
0.0,1.0,1.0,0.0,7.0,4.0,1652.2900741547346,2.0,1.0,phase_3,,,,,98.0,2.0,196.0,49.0,294.0,98.0,245.0,147.0,magenta,cross
0.0,1.0,1.0,0.0,7.0,3.0,3616.5751293301582,2.0,1.0,phase_3,,,,,108.0,2.0,324.0,162.0,108.0,270.0,54.0,216.0,magenta,cross
0.0,4.0,4.0,0.0,7.0,3.0,1014.5032443106174,2.0,1.0,phase_3,,,,,108.0,2.0,216.0,324.0,108.0,270.0,162.0,54.0,cyan,diamond
0.0,2.0,2.0,0.0,7.0,5.0,3640.285080298781,2.0,1.0,phase_3,,,,,102.0,3.0,170.0,34.0,68.0,204.0,102.0,136.0,orange,I
0.0,2.0,2.0,0.0,7.0,3.0,2852.435098960996,2.0,1.0,phase_3,,,,,108.0,2.0,270.0,324.0,108.0,54.0,162.0,216.0,orange,I
0.0,1.0,1.0,0.0,7.0,1.0,2818.087654188276,3.0,1.0,phase_3,,,,,44.0,1.0,44.0,220.0,264.0,132.0,176.0,88.0,magenta,cross
0.0,1.0,1.0,0.0,7.0,5.0,2481.5523102879524,3.0,1.0,phase_3,,,,,78.0,2.0,234.0,117.0,156.0,39.0,78.0,195.0,magenta,cross
0.0,5.0,1.0,1.0,7.0,2.0,2146.412007510662,3.0,1.0,phase_3,,,,,78.0,2.0,195.0,78.0,117.0,156.0,234.0,39.0,white,hexagon
0.0,6.0,2.0,1.0,7.0,2.0,1630.1478873938322,3.0,1.0,phase_3,,,,,98.0,2.0,294.0,98.0,147.0,196.0,49.0,245.0,blue,triangle
0.0,1.0,1.0,0.0,7.0,2.0,1917.5352025777104,3.0,1.0,phase_3,,,,,98.0,2.0,196.0,98.0,245.0,147.0,49.0,294.0,magenta,cross
0.0,7.0,3.0,1.0,7.0,1.0,2199.291788041592,3.0,1.0,phase_3,,,,,88.0,2.0,88.0,220.0,132.0,44.0,176.0,264.0,yellow,circle
0.0,6.0,2.0,1.0,7.0,5.0,2912.6427359879017,3.0,1.0,phase_3,,,,,68.0,2.0,170.0,102.0,136.0,34.0,68.0,204.0,blue,triangle
0.0,4.0,4.0,0.0,7.0,1.0,1633.6334012448788,3.0,1.0,phase_3,,,,,98.0,2.0,98.0,49.0,294.0,196.0,245.0,147.0,cyan,diamond
0.0,7.0,3.0,1.0,7.0,6.0,3875.637996941805,3.0,1.0,phase_3,,,,,68.0,2.0,102.0,170.0,136.0,34.0,204.0,68.0,yellow,circle
0.0,3.0,3.0,0.0,7.0,3.0,2894.4269083440304,3.0,1.0,phase_3,,,,,108.0,2.0,162.0,270.0,108.0,54.0,324.0,216.0,gray,square
0.0,8.0,4.0,1.0,7.0,3.0,3007.1141999214888,3.0,1.0,phase_3,,,,,68.0,2.0,136.0,102.0,68.0,170.0,34.0,204.0,green,flipped triangle
0.0,2.0,2.0,0.0,7.0,6.0,2207.6804973185062,3.0,1.0,phase_3,,,,,68.0,2.0,136.0,102.0,204.0,170.0,34.0,68.0,orange,I
0.0,2.0,2.0,0.0,7.0,6.0,2201.1712566018105,3.0,1.0,phase_3,,,,,108.0,2.0,324.0,270.0,216.0,162.0,54.0,108.0,orange,I
0.0,5.0,1.0,1.0,7.0,6.0,1555.5725377053022,3.0,1.0,phase_3,,,,,88.0,2.0,176.0,132.0,44.0,220.0,264.0,88.0,white,hexagon
0.0,7.0,3.0,1.0,7.0,3.0,2275.1850429922342,3.0,1.0,phase_3,,,,,68.0,2.0,170.0,102.0,68.0,204.0,34.0,136.0,yellow,circle
0.0,7.0,3.0,1.0,7.0,3.0,2183.4691260010004,3.0,1.0,phase_3,,,,,98.0,2.0,147.0,196.0,98.0,49.0,294.0,245.0,yellow,circle
0.0,8.0,4.0,1.0,7.0,4.0,1870.7859553396704,3.0,1.0,phase_3,,,,,68.0,2.0,170.0,136.0,34.0,68.0,102.0,204.0,green,flipped triangle
0.0,8.0,4.0,1.0,7.0,6.0,4226.395215839148,3.0,1.0,phase_3,,,,,54.0,1.0,162.0,108.0,216.0,324.0,270.0,54.0,green,flipped triangle
0.0,8.0,4.0,1.0,7.0,3.0,1629.872152581811,3.0,1.0,phase_3,,,,,88.0,2.0,264.0,220.0,88.0,176.0,44.0,132.0,green,flipped triangle
0.0,5.0,1.0,1.0,7.0,2.0,2962.261021137237,3.0,1.0,phase_3,,,,,117.0,3.0,234.0,117.0,78.0,39.0,156.0,195.0,white,hexagon
0.0,4.0,4.0,0.0,7.0,5.0,1967.8836930543184,4.0,1.0,phase_3,,,,,78.0,2.0,234.0,39.0,156.0,195.0,78.0,117.0,cyan,diamond
0.0,5.0,1.0,1.0,7.0,5.0,1739.161379635334,4.0,1.0,phase_3,,,,,68.0,2.0,136.0,34.0,170.0,204.0,68.0,102.0,white,hexagon
0.0,4.0,4.0,0.0,7.0,1.0,1954.6346571296451,4.0,1.0,phase_3,,,,,108.0,2.0,108.0,324.0,162.0,54.0,216.0,270.0,cyan,diamond
0.0,4.0,4.0,0.0,7.0,1.0,1175.6604835391045,4.0,1.0,phase_3,,,,,88.0,2.0,88.0,264.0,176.0,44.0,220.0,132.0,cyan,diamond
0.0,5.0,1.0,1.0,7.0,1.0,1688.20658326149,4.0,1.0,phase_3,,,,,102.0,3.0,102.0,68.0,34.0,136.0,170.0,204.0,white,hexagon
0.0,4.0,4.0,0.0,7.0,2.0,967.479633167386,4.0,1.0,phase_3,,,,,88.0,2.0,176.0,88.0,220.0,132.0,44.0,264.0,cyan,diamond
0.0,8.0,4.0,1.0,7.0,3.0,1762.5957559794188,4.0,1.0,phase_3,,,,,98.0,2.0,196.0,294.0,98.0,147.0,49.0,245.0,green,flipped triangle
0.0,5.0,1.0,1.0,7.0,4.0,1277.0260646939278,4.0,1.0,phase_3,,,,,98.0,2.0,147.0,49.0,294.0,98.0,196.0,245.0,white,hexagon
0.0,1.0,1.0,0.0,7.0,2.0,2317.36009567976,4.0,1.0,phase_3,,,,,68.0,2.0,102.0,68.0,204.0,136.0,170.0,34.0,magenta,cross
0.0,6.0,2.0,1.0,7.0,4.0,1431.550044566393,4.0,1.0,phase_3,,,,,88.0,2.0,176.0,44.0,220.0,88.0,264.0,132.0,blue,triangle
0.0,7.0,3.0,1.0,7.0,2.0,1758.5089206695557,4.0,1.0,phase_3,,,,,108.0,2.0,54.0,108.0,324.0,270.0,162.0,216.0,yellow,circle
0.0,7.0,3.0,1.0,7.0,5.0,1895.458672195673,4.0,1.0,phase_3,,,,,108.0,2.0,270.0,324.0,162.0,54.0,108.0,216.0,yellow,circle
0.0,7.0,3.0,1.0,7.0,3.0,1289.9797037243843,4.0,1.0,phase_3,,,,,88.0,2.0,176.0,264.0,88.0,44.0,132.0,220.0,yellow,circle
0.0,1.0,1.0,0.0,7.0,3.0,1523.3247838914394,4.0,1.0,phase_3,,,,,68.0,2.0,136.0,170.0,68.0,34.0,102.0,204.0,magenta,cross
0.0,8.0,4.0,1.0,7.0,3.0,1404.6069383621216,4.0,1.0,phase_3,,,,,78.0,2.0,234.0,117.0,78.0,156.0,39.0,195.0,green,flipped triangle
0.0,8.0,4.0,1.0,7.0,1.0,1302.8442207723856,4.0,1.0,phase_3,,,,,78.0,2.0,78.0,117.0,39.0,156.0,234.0,195.0,green,flipped triangle
0.0,6.0,2.0,1.0,7.0,2.0,1816.2710908800364,4.0,1.0,phase_3,,,,,132.0,3.0,176.0,132.0,220.0,88.0,264.0,44.0,blue,triangle
0.0,7.0,3.0,1.0,7.0,4.0,1495.1125849038365,4.0,1.0,phase_3,,,,,98.0,2.0,196.0,147.0,294.0,98.0,49.0,245.0,yellow,circle
0.0,5.0,1.0,1.0,7.0,6.0,1938.326217234135,4.0,1.0,phase_3,,,,,88.0,2.0,44.0,132.0,264.0,176.0,220.0,88.0,white,hexagon
0.0,1.0,1.0,0.0,7.0,3.0,3259.254552423954,4.0,1.0,phase_3,,,,,78.0,2.0,39.0,195.0,78.0,234.0,156.0,117.0,magenta,cross
