raw_reward_magnitude,stim_reward,stepwise_reward_magnitude,paired_with_stopping,stim_location,response,reaction_time,block,num_trial_presentations,which_phase,stop_signal_trial_type,left_SSD,right_SSD,accuracy,chosen_bidding_amount,chosen_bidding_level,possible_bid_1,possible_bid_2,possible_bid_3,possible_bid_4,possible_bid_5,possible_bid_6,color_text,shape_text
0.0,4.0,0.0,0.0,4.0,4.0,435.3604204952717,1.0,1.0,phase_1,,,,,,,,,,,,,green,cross
43.0,5.0,1.0,1.0,1.0,1.0,431.0804847627878,1.0,1.0,phase_1,,,,,,,,,,,,,orange,square
95.0,2.0,2.0,0.0,3.0,3.0,364.7940270602703,1.0,1.0,phase_1,,,,,,,,,,,,,white,I
74.0,5.0,1.0,1.0,4.0,4.0,303.4012168645859,1.0,1.0,phase_1,,,,,,,,,,,,,orange,square
221.0,3.0,3.0,0.0,2.0,2.0,404.0306862443685,1.0,1.0,phase_1,,,,,,,,,,,,,yellow,circle
194.0,7.0,3.0,1.0,2.0,2.0,311.8018321692943,1.0,1.0,phase_1,,,,,,,,,,,,,cyan,flipped triangle
52.0,5.0,1.0,1.0,3.0,3.0,276.7075728625059,1.0,1.0,phase_1,,,,,,,,,,,,,orange,square
423.0,4.0,4.0,0.0,4.0,4.0,276.6484413295984,1.0,1.0,phase_1,,,,,,,,,,,,,green,cross
74.0,1.0,1.0,0.0,1.0,1.0,263.1920725107193,1.0,1.0,phase_1,,,,,,,,,,,,,gray,diamond
179.0,7.0,3.0,1.0,3.0,3.0,299.5485831052065,1.0,1.0,phase_1,,,,,,,,,,,,,cyan,flipped triangle
198.0,3.0,3.0,0.0,4.0,4.0,263.3006125688553,1.0,1.0,phase_1,,,,,,,,,,,,,yellow,circle
78.0,6.0,2.0,1.0,4.0,4.0,340.9191351383924,1.0,1.0,phase_1,,,,,,,,,,,,,magenta,triangle
189.0,3.0,3.0,0.0,3.0,3.0,370.8623237907886,1.0,1.0,phase_1,,,,,,,,,,,,,yellow,circle
0.0,6.0,0.0,1.0,2.0,2.0,525.5523081868887,1.0,1.0,phase_1,,,,,,,,,,,,,magenta,triangle
0.0,8.0,0.0,1.0,2.0,2.0,572.9195103049278,1.0,1.0,phase_1,,,,,,,,,,,,,blue,hexagon
0.0,5.0,0.0,1.0,4.0,4.0,320.716006681323,1.0,1.0,phase_1,,,,,,,,,,,,,orange,square
35.0,5.0,1.0,1.0,3.0,3.0,283.7956324219703,1.0,1.0,phase_1,,,,,,,,,,,,,orange,square
65.0,5.0,1.0,1.0,4.0,4.0,259.4745960086584,1.0,1.0,phase_1,,,,,,,,,,,,,orange,square
0.0,2.0,0.0,0.0,1.0,1.0,398.1929514557123,1.0,1.0,phase_1,,,,,,,,,,,,,white,I
396.0,8.0,4.0,1.0,2.0,2.0,434.2174660414457,1.0,1.0,phase_1,,,,,,,,,,,,,blue,hexagon
175.0,7.0,3.0,1.0,4.0,4.0,320.142874494195,1.0,1.0,phase_1,,,,,,,,,,,,,cyan,flipped triangle
64.0,5.0,1.0,1.0,2.0,2.0,345.4435151070356,1.0,2.0,phase_1,,,,,,,,,,,,,orange,square
47.0,5.0,1.0,1.0,2.0,2.0,348.3011964708566,1.0,1.0,phase_1,,,,,,,,,,,,,orange,square
29.0,1.0,1.0,0.0,2.0,2.0,275.0856503844261,1.0,1.0,phase_1,,,,,,,,,,,,,gray,diamond
62.0,5.0,1.0,1.0,3.0,3.0,287.5521518290043,1.0,1.0,phase_1,,,,,,,,,,,,,orange,square
410.0,4.0,4.0,0.0,3.0,3.0,355.1962543278932,1.0,1.0,phase_1,,,,,,,,,,,,,green,cross
199.0,3.0,3.0,0.0,1.0,1.0,344.3361334502697,1.0,1.0,phase_1,,,,,,,,,,,,,yellow,circle
377.0,8.0,4.0,1.0,3.0,3.0,351.755516603589,1.0,1.0,phase_1,,,,,,,,,,,,,blue,hexagon
124.0,2.0,2.0,0.0,1.0,1.0,449.4764842092991,1.0,1.0,phase_1,,,,,,,,,,,,,white,I
403.0,4.0,4.0,0.0,2.0,2.0,381.0237310826778,1.0,1.0,phase_1,,,,,,,,,,,,,green,cross
198.0,7.0,3.0,1.0,1.0,1.0,578.3898644149303,1.0,1.0,phase_1,,,,,,,,,,,,,cyan,flipped triangle
388.0,8.0,4.0,1.0,4.0,4.0,320.8081759512424,1.0,1.0,phase_1,,,,,,,,,,,,,blue,hexagon
0.0,6.0,0.0,1.0,1.0,1.0,355.6006867438555,1.0,1.0,phase_1,,,,,,,,,,,,,magenta,triangle
420.0,4.0,4.0,0.0,2.0,2.0,280.0110001116991,1.0,1.0,phase_1,,,,,,,,,,,,,green,cross
192.0,3.0,3.0,0.0,2.0,2.0,300.7634282112121,1.0,1.0,phase_1,,,,,,,,,,,,,yellow,circle
0.0,1.0,0.0,0.0,3.0,3.0,620.6932812929153,1.0,1.0,phase_1,,,,,,,,,,,,,gray,diamond
415.0,4.0,4.0,0.0,1.0,1.0,337.0982408523559,1.0,1.0,phase_1,,,,,,,,,,,,,green,cross
394.0,8.0,4.0,1.0,1.0,1.0,346.9718303531408,1.0,1.0,phase_1,,,,,,,,,,,,,blue,hexagon
0.0,8.0,0.0,1.0,2.0,2.0,251.04271993041039,1.0,1.0,phase_1,,,,,,,,,,,,,blue,hexagon
0.0,4.0,0.0,0.0,3.0,3.0,383.1730801612139,1.0,1.0,phase_1,,,,,,,,,,,,,green,cross
178.0,7.0,3.0,1.0,1.0,1.0,376.8690675497055,1.0,1.0,phase_1,,,,,,,,,,,,,cyan,flipped triangle
0.0,7.0,0.0,1.0,2.0,2.0,325.3334816545248,1.0,1.0,phase_1,,,,,,,,,,,,,cyan,flipped triangle
98.0,2.0,2.0,0.0,2.0,2.0,394.4272231310606,1.0,1.0,phase_1,,,,,,,,,,,,,white,I
401.0,8.0,4.0,1.0,4.0,4.0,401.9573256373405,1.0,1.0,phase_1,,,,,,,,,,,,,blue,hexagon
420.0,8.0,4.0,1.0,3.0,3.0,430.9339895844459,1.0,1.0,phase_1,,,,,,,,,,,,,blue,hexagon
64.0,1.0,1.0,0.0,1.0,1.0,402.1568596363067,1.0,1.0,phase_1,,,,,,,,,,,,,gray,diamond
178.0,7.0,3.0,1.0,3.0,3.0,349.1905909031629,1.0,1.0,phase_1,,,,,,,,,,,,,cyan,flipped triangle
67.0,5.0,1.0,1.0,2.0,2.0,329.8183567821979,1.0,1.0,phase_1,,,,,,,,,,,,,orange,square
415.0,8.0,4.0,1.0,3.0,3.0,369.8783386498689,1.0,1.0,phase_1,,,,,,,,,,,,,blue,hexagon
0.0,8.0,0.0,1.0,1.0,1.0,308.1754446029663,1.0,1.0,phase_1,,,,,,,,,,,,,blue,hexagon
411.0,4.0,4.0,0.0,1.0,1.0,591.5927421301603,1.0,1.0,phase_1,,,,,,,,,,,,,green,cross
392.0,4.0,4.0,0.0,2.0,2.0,364.5305447280407,1.0,1.0,phase_1,,,,,,,,,,,,,green,cross
417.0,8.0,4.0,1.0,1.0,1.0,396.1316887289285,1.0,1.0,phase_1,,,,,,,,,,,,,blue,hexagon
44.0,5.0,1.0,1.0,1.0,1.0,374.5018448680639,1.0,1.0,phase_1,,,,,,,,,,,,,orange,square
109.0,6.0,2.0,1.0,1.0,1.0,434.246651828289,1.0,1.0,phase_1,,,,,,,,,,,,,magenta,triangle
208.0,3.0,3.0,0.0,2.0,2.0,266.1456167697906,1.0,1.0,phase_1,,,,,,,,,,,,,yellow,circle
29.0,5.0,1.0,1.0,3.0,3.0,335.9214663505554,1.0,1.0,phase_1,,,,,,,,,,,,,orange,square
0.0,7.0,0.0,1.0,1.0,1.0,313.2409360259771,1.0,1.0,phase_1,,,,,,,,,,,,,cyan,flipped triangle
104.0,6.0,2.0,1.0,4.0,4.0,359.7085364162922,1.0,1.0,phase_1,,,,,,,,,,,,,magenta,triangle
398.0,8.0,4.0,1.0,2.0,2.0,251.33155472576618,1.0,1.0,phase_1,,,,,,,,,,,,,blue,hexagon
0.0,1.0,0.0,0.0,2.0,2.0,398.6173681914806,1.0,1.0,phase_1,,,,,,,,,,,,,gray,diamond
385.0,4.0,4.0,0.0,4.0,4.0,446.9059146940708,1.0,1.0,phase_1,,,,,,,,,,,,,green,cross
32.0,5.0,1.0,1.0,4.0,4.0,425.2729900181293,1.0,1.0,phase_1,,,,,,,,,,,,,orange,square
106.0,6.0,2.0,1.0,2.0,2.0,431.4848948270082,1.0,1.0,phase_1,,,,,,,,,,,,,magenta,triangle
48.0,5.0,1.0,1.0,3.0,3.0,603.4871488809586,1.0,1.0,phase_1,,,,,,,,,,,,,orange,square
70.0,5.0,1.0,1.0,4.0,4.0,426.1009935289621,1.0,1.0,phase_1,,,,,,,,,,,,,orange,square
38.0,1.0,1.0,0.0,4.0,4.0,379.2183436453342,1.0,1.0,phase_1,,,,,,,,,,,,,gray,diamond
0.0,3.0,0.0,0.0,4.0,4.0,410.3220775723457,1.0,1.0,phase_1,,,,,,,,,,,,,yellow,circle
379.0,4.0,4.0,0.0,1.0,1.0,379.8128198832273,1.0,1.0,phase_1,,,,,,,,,,,,,green,cross
201.0,3.0,3.0,0.0,4.0,4.0,473.4015427529812,1.0,1.0,phase_1,,,,,,,,,,,,,yellow,circle
389.0,8.0,4.0,1.0,2.0,2.0,493.5103002935648,1.0,1.0,phase_1,,,,,,,,,,,,,blue,hexagon
0.0,3.0,0.0,0.0,4.0,4.0,501.8759425729513,1.0,1.0,phase_1,,,,,,,,,,,,,yellow,circle
0.0,7.0,0.0,1.0,1.0,1.0,458.6819466203451,1.0,1.0,phase_1,,,,,,,,,,,,,cyan,flipped triangle
34.0,1.0,1.0,0.0,4.0,4.0,437.0513334870338,1.0,1.0,phase_1,,,,,,,,,,,,,gray,diamond
412.0,8.0,4.0,1.0,3.0,3.0,432.9854100942611,1.0,1.0,phase_1,,,,,,,,,,,,,blue,hexagon
423.0,4.0,4.0,0.0,3.0,3.0,432.7442795038223,1.0,1.0,phase_1,,,,,,,,,,,,,green,cross
203.0,7.0,3.0,1.0,2.0,2.0,323.3656752854585,1.0,1.0,phase_1,,,,,,,,,,,,,cyan,flipped triangle
109.0,2.0,2.0,0.0,4.0,4.0,344.3134352564811,1.0,1.0,phase_1,,,,,,,,,,,,,white,I
39.0,1.0,1.0,0.0,3.0,3.0,306.8462442606687,1.0,1.0,phase_1,,,,,,,,,,,,,gray,diamond
90.0,6.0,2.0,1.0,3.0,3.0,368.6174321919679,1.0,1.0,phase_1,,,,,,,,,,,,,magenta,triangle
0.0,4.0,0.0,0.0,3.0,3.0,332.555653527379,1.0,1.0,phase_1,,,,,,,,,,,,,green,cross
59.0,1.0,1.0,0.0,4.0,4.0,315.9638307988643,1.0,1.0,phase_1,,,,,,,,,,,,,gray,diamond
109.0,2.0,2.0,0.0,2.0,2.0,360.5455830693245,1.0,1.0,phase_1,,,,,,,,,,,,,white,I
192.0,7.0,3.0,1.0,4.0,4.0,364.9056162685156,1.0,1.0,phase_1,,,,,,,,,,,,,cyan,flipped triangle
182.0,3.0,3.0,0.0,1.0,1.0,416.9383589178324,1.0,1.0,phase_1,,,,,,,,,,,,,yellow,circle
47.0,1.0,1.0,0.0,3.0,3.0,318.8891280442476,1.0,1.0,phase_1,,,,,,,,,,,,,gray,diamond
209.0,3.0,3.0,0.0,1.0,1.0,434.1677241027355,1.0,1.0,phase_1,,,,,,,,,,,,,yellow,circle
222.0,7.0,3.0,1.0,3.0,3.0,429.0586002171039,1.0,1.0,phase_1,,,,,,,,,,,,,cyan,flipped triangle
106.0,2.0,2.0,0.0,2.0,2.0,546.5403497219086,1.0,1.0,phase_1,,,,,,,,,,,,,white,I
396.0,4.0,4.0,0.0,4.0,4.0,413.8138331472873,1.0,2.0,phase_1,,,,,,,,,,,,,green,cross
209.0,7.0,3.0,1.0,1.0,1.0,626.8564108759165,1.0,1.0,phase_1,,,,,,,,,,,,,cyan,flipped triangle
201.0,7.0,3.0,1.0,4.0,4.0,629.7172829508781,1.0,1.0,phase_1,,,,,,,,,,,,,cyan,flipped triangle
0.0,1.0,0.0,0.0,1.0,1.0,498.7729322165251,1.0,1.0,phase_1,,,,,,,,,,,,,gray,diamond
211.0,3.0,3.0,0.0,4.0,4.0,401.850838214159,1.0,1.0,phase_1,,,,,,,,,,,,,yellow,circle
112.0,2.0,2.0,0.0,2.0,2.0,444.8981638997793,1.0,1.0,phase_1,,,,,,,,,,,,,white,I
90.0,2.0,2.0,0.0,1.0,1.0,386.3600343465805,1.0,1.0,phase_1,,,,,,,,,,,,,white,I
76.0,2.0,2.0,0.0,1.0,1.0,476.7439514398575,1.0,1.0,phase_1,,,,,,,,,,,,,white,I
47.0,5.0,1.0,1.0,1.0,1.0,449.3241868913173,1.0,1.0,phase_1,,,,,,,,,,,,,orange,square
52.0,5.0,1.0,1.0,3.0,3.0,365.1506844907999,1.0,1.0,phase_1,,,,,,,,,,,,,orange,square
89.0,2.0,2.0,0.0,2.0,2.0,341.2447199225425,1.0,1.0,phase_1,,,,,,,,,,,,,white,I
210.0,3.0,3.0,0.0,2.0,2.0,631.2946267426014,2.0,1.0,phase_1,,,,,,,,,,,,,yellow,circle
85.0,6.0,2.0,1.0,2.0,2.0,405.1281027495861,2.0,1.0,phase_1,,,,,,,,,,,,,magenta,triangle
422.0,4.0,4.0,0.0,3.0,3.0,283.16855058074,2.0,1.0,phase_1,,,,,,,,,,,,,green,cross
73.0,1.0,1.0,0.0,1.0,1.0,318.57825815677637,2.0,1.0,phase_1,,,,,,,,,,,,,gray,diamond
219.0,3.0,3.0,0.0,4.0,4.0,330.7470325380564,2.0,1.0,phase_1,,,,,,,,,,,,,yellow,circle
189.0,7.0,3.0,1.0,1.0,1.0,353.1569745391607,2.0,1.0,phase_1,,,,,,,,,,,,,cyan,flipped triangle
65.0,1.0,1.0,0.0,1.0,1.0,541.3720663636923,2.0,1.0,phase_1,,,,,,,,,,,,,gray,diamond
0.0,7.0,0.0,1.0,1.0,1.0,499.4825776666403,2.0,1.0,phase_1,,,,,,,,,,,,,cyan,flipped triangle
124.0,6.0,2.0,1.0,2.0,2.0,333.9419402182102,2.0,1.0,phase_1,,,,,,,,,,,,,magenta,triangle
0.0,5.0,0.0,1.0,2.0,2.0,372.5317381322384,2.0,1.0,phase_1,,,,,,,,,,,,,orange,square
0.0,1.0,0.0,0.0,3.0,3.0,650.3376737236977,2.0,1.0,phase_1,,,,,,,,,,,,,gray,diamond
223.0,7.0,3.0,1.0,4.0,4.0,323.1336064636707,2.0,1.0,phase_1,,,,,,,,,,,,,cyan,flipped triangle
83.0,2.0,2.0,0.0,3.0,3.0,539.5663641393185,2.0,1.0,phase_1,,,,,,,,,,,,,white,I
0.0,2.0,0.0,0.0,1.0,1.0,477.7642078697681,2.0,1.0,phase_1,,,,,,,,,,,,,white,I
72.0,5.0,1.0,1.0,2.0,2.0,330.0341088324785,2.0,1.0,phase_1,,,,,,,,,,,,,orange,square
179.0,3.0,3.0,0.0,1.0,1.0,382.9294051975012,2.0,1.0,phase_1,,,,,,,,,,,,,yellow,circle
28.0,1.0,1.0,0.0,4.0,4.0,475.001011043787,2.0,1.0,phase_1,,,,,,,,,,,,,gray,diamond
0.0,8.0,0.0,1.0,2.0,2.0,355.1759328693151,2.0,1.0,phase_1,,,,,,,,,,,,,blue,hexagon
109.0,6.0,2.0,1.0,1.0,1.0,590.8705703914165,2.0,1.0,phase_1,,,,,,,,,,,,,magenta,triangle
95.0,6.0,2.0,1.0,3.0,3.0,324.8214554041624,2.0,1.0,phase_1,,,,,,,,,,,,,magenta,triangle
88.0,6.0,2.0,1.0,1.0,1.0,454.2312640696764,2.0,1.0,phase_1,,,,,,,,,,,,,magenta,triangle
57.0,5.0,1.0,1.0,2.0,2.0,403.6020394414663,2.0,1.0,phase_1,,,,,,,,,,,,,orange,square
61.0,1.0,1.0,0.0,2.0,2.0,353.5564113408327,2.0,1.0,phase_1,,,,,,,,,,,,,gray,diamond
212.0,7.0,3.0,1.0,2.0,2.0,372.3459113389253,2.0,1.0,phase_1,,,,,,,,,,,,,cyan,flipped triangle
401.0,4.0,4.0,0.0,1.0,1.0,385.0602395832538,2.0,1.0,phase_1,,,,,,,,,,,,,green,cross
86.0,2.0,2.0,0.0,2.0,2.0,357.4178926646709,2.0,1.0,phase_1,,,,,,,,,,,,,white,I
114.0,6.0,2.0,1.0,2.0,2.0,348.5958445817232,2.0,1.0,phase_1,,,,,,,,,,,,,magenta,triangle
28.0,5.0,1.0,1.0,4.0,4.0,415.456335991621,2.0,1.0,phase_1,,,,,,,,,,,,,orange,square
41.0,5.0,1.0,1.0,2.0,2.0,420.910008251667,2.0,1.0,phase_1,,,,,,,,,,,,,orange,square
0.0,3.0,0.0,0.0,4.0,4.0,417.6163151860237,2.0,1.0,phase_1,,,,,,,,,,,,,yellow,circle
38.0,5.0,1.0,1.0,1.0,1.0,422.7796886116266,2.0,1.0,phase_1,,,,,,,,,,,,,orange,square
106.0,2.0,2.0,0.0,3.0,3.0,371.5341109782457,2.0,1.0,phase_1,,,,,,,,,,,,,white,I
90.0,6.0,2.0,1.0,3.0,3.0,374.2763455957174,2.0,1.0,phase_1,,,,,,,,,,,,,magenta,triangle
66.0,5.0,1.0,1.0,1.0,1.0,355.5682934820652,2.0,1.0,phase_1,,,,,,,,,,,,,orange,square
41.0,1.0,1.0,0.0,2.0,2.0,409.9268112331629,2.0,1.0,phase_1,,,,,,,,,,,,,gray,diamond
0.0,7.0,0.0,1.0,3.0,3.0,612.692903727293,2.0,1.0,phase_1,,,,,,,,,,,,,cyan,flipped triangle
0.0,6.0,0.0,1.0,1.0,1.0,377.9268786311149,2.0,1.0,phase_1,,,,,,,,,,,,,magenta,triangle
420.0,4.0,4.0,0.0,2.0,2.0,316.9434275478124,2.0,1.0,phase_1,,,,,,,,,,,,,green,cross
109.0,6.0,2.0,1.0,1.0,1.0,522.4224384874105,2.0,1.0,phase_1,,,,,,,,,,,,,magenta,triangle
182.0,7.0,3.0,1.0,4.0,4.0,593.6333760619164,2.0,1.0,phase_1,,,,,,,,,,,,,cyan,flipped triangle
0.0,5.0,0.0,1.0,1.0,1.0,891.8160870671272,2.0,1.0,phase_1,,,,,,,,,,,,,orange,square
0.0,3.0,0.0,0.0,1.0,1.0,519.73638497293,2.0,1.0,phase_1,,,,,,,,,,,,,yellow,circle
72.0,1.0,1.0,0.0,1.0,1.0,637.2969672083855,2.0,1.0,phase_1,,,,,,,,,,,,,gray,diamond
194.0,3.0,3.0,0.0,4.0,4.0,693.0231563746929,2.0,1.0,phase_1,,,,,,,,,,,,,yellow,circle
84.0,6.0,2.0,1.0,4.0,4.0,593.9760692417622,2.0,1.0,phase_1,,,,,,,,,,,,,magenta,triangle
66.0,5.0,1.0,1.0,3.0,3.0,434.5607832074165,2.0,2.0,phase_1,,,,,,,,,,,,,orange,square
0.0,4.0,0.0,0.0,1.0,1.0,347.754281014204,2.0,1.0,phase_1,,,,,,,,,,,,,green,cross
0.0,5.0,0.0,1.0,1.0,1.0,365.3892837464809,2.0,2.0,phase_1,,,,,,,,,,,,,orange,square
423.0,8.0,4.0,1.0,1.0,1.0,347.9500394314527,2.0,1.0,phase_1,,,,,,,,,,,,,blue,hexagon
28.0,1.0,1.0,0.0,4.0,4.0,539.0588250011206,2.0,1.0,phase_1,,,,,,,,,,,,,gray,diamond
409.0,8.0,4.0,1.0,1.0,1.0,300.2133015543222,2.0,1.0,phase_1,,,,,,,,,,,,,blue,hexagon
410.0,8.0,4.0,1.0,4.0,4.0,320.4468488693237,2.0,1.0,phase_1,,,,,,,,,,,,,blue,hexagon
0.0,1.0,0.0,0.0,4.0,4.0,333.7719794362783,2.0,1.0,phase_1,,,,,,,,,,,,,gray,diamond
0.0,1.0,0.0,0.0,2.0,2.0,625.3514681011438,2.0,1.0,phase_1,,,,,,,,,,,,,gray,diamond
62.0,1.0,1.0,0.0,3.0,3.0,360.5176638811826,2.0,1.0,phase_1,,,,,,,,,,,,,gray,diamond
0.0,2.0,0.0,0.0,4.0,4.0,393.5631718486547,2.0,2.0,phase_1,,,,,,,,,,,,,white,I
178.0,3.0,3.0,0.0,3.0,3.0,300.5322217941284,2.0,1.0,phase_1,,,,,,,,,,,,,yellow,circle
0.0,4.0,0.0,0.0,4.0,4.0,345.7039911299944,2.0,1.0,phase_1,,,,,,,,,,,,,green,cross
0.0,8.0,0.0,1.0,1.0,1.0,493.6242885887623,2.0,1.0,phase_1,,,,,,,,,,,,,blue,hexagon
81.0,2.0,2.0,0.0,1.0,1.0,589.8629724979401,2.0,1.0,phase_1,,,,,,,,,,,,,white,I
66.0,1.0,1.0,0.0,4.0,4.0,487.0102051645517,2.0,1.0,phase_1,,,,,,,,,,,,,gray,diamond
0.0,3.0,0.0,0.0,4.0,4.0,648.0323206633329,2.0,1.0,phase_1,,,,,,,,,,,,,yellow,circle
211.0,7.0,3.0,1.0,2.0,2.0,304.3302353471517,2.0,1.0,phase_1,,,,,,,,,,,,,cyan,flipped triangle
0.0,8.0,0.0,1.0,2.0,2.0,340.9213852137327,2.0,1.0,phase_1,,,,,,,,,,,,,blue,hexagon
179.0,3.0,3.0,0.0,3.0,3.0,332.8484781086445,2.0,1.0,phase_1,,,,,,,,,,,,,yellow,circle
109.0,2.0,2.0,0.0,3.0,3.0,478.2779403030872,2.0,1.0,phase_1,,,,,,,,,,,,,white,I
412.0,4.0,4.0,0.0,3.0,3.0,389.847844839096,2.0,1.0,phase_1,,,,,,,,,,,,,green,cross
417.0,4.0,4.0,0.0,2.0,2.0,649.8224083334208,2.0,1.0,phase_1,,,,,,,,,,,,,green,cross
61.0,5.0,1.0,1.0,2.0,2.0,671.6989818960428,2.0,1.0,phase_1,,,,,,,,,,,,,orange,square
423.0,8.0,4.0,1.0,3.0,3.0,673.9237327128649,2.0,1.0,phase_1,,,,,,,,,,,,,blue,hexagon
0.0,6.0,0.0,1.0,1.0,1.0,481.5018512308597,2.0,1.0,phase_1,,,,,,,,,,,,,magenta,triangle
94.0,6.0,2.0,1.0,1.0,1.0,428.5622462630272,2.0,1.0,phase_1,,,,,,,,,,,,,magenta,triangle
98.0,2.0,2.0,0.0,3.0,3.0,386.4518757909536,2.0,1.0,phase_1,,,,,,,,,,,,,white,I
0.0,5.0,0.0,1.0,2.0,2.0,764.7086884826422,2.0,1.0,phase_1,,,,,,,,,,,,,orange,square
49.0,5.0,1.0,1.0,1.0,1.0,403.0997846275568,2.0,1.0,phase_1,,,,,,,,,,,,,orange,square
43.0,1.0,1.0,0.0,2.0,2.0,302.8576914221048,2.0,1.0,phase_1,,,,,,,,,,,,,gray,diamond
209.0,3.0,3.0,0.0,4.0,4.0,309.9899590015411,2.0,1.0,phase_1,,,,,,,,,,,,,yellow,circle
399.0,8.0,4.0,1.0,1.0,1.0,663.1571520119905,2.0,1.0,phase_1,,,,,,,,,,,,,blue,hexagon
214.0,3.0,3.0,0.0,1.0,1.0,524.149352684617,2.0,1.0,phase_1,,,,,,,,,,,,,yellow,circle
94.0,2.0,2.0,0.0,4.0,4.0,667.1199277043343,2.0,1.0,phase_1,,,,,,,,,,,,,white,I
224.0,7.0,3.0,1.0,2.0,2.0,342.9969605058431,2.0,1.0,phase_1,,,,,,,,,,,,,cyan,flipped triangle
119.0,6.0,2.0,1.0,3.0,3.0,370.2191039919853,2.0,1.0,phase_1,,,,,,,,,,,,,magenta,triangle
94.0,2.0,2.0,0.0,4.0,4.0,305.7966828346252,2.0,1.0,phase_1,,,,,,,,,,,,,white,I
379.0,4.0,4.0,0.0,3.0,3.0,492.860134691,2.0,1.0,phase_1,,,,,,,,,,,,,green,cross
121.0,2.0,2.0,0.0,4.0,4.0,339.1778767108917,2.0,1.0,phase_1,,,,,,,,,,,,,white,I
123.0,2.0,2.0,0.0,4.0,4.0,264.2592899501323,2.0,1.0,phase_1,,,,,,,,,,,,,white,I
67.0,1.0,1.0,0.0,4.0,4.0,373.4905868768692,2.0,1.0,phase_1,,,,,,,,,,,,,gray,diamond
410.0,8.0,4.0,1.0,2.0,2.0,589.2269369214773,2.0,1.0,phase_1,,,,,,,,,,,,,blue,hexagon
178.0,3.0,3.0,0.0,2.0,2.0,306.1554152518511,2.0,1.0,phase_1,,,,,,,,,,,,,yellow,circle
211.0,7.0,3.0,1.0,1.0,1.0,386.0153146088123,2.0,1.0,phase_1,,,,,,,,,,,,,cyan,flipped triangle
403.0,8.0,4.0,1.0,3.0,3.0,327.1144889295101,2.0,1.0,phase_1,,,,,,,,,,,,,blue,hexagon
202.0,7.0,3.0,1.0,1.0,1.0,313.1719473749399,2.0,1.0,phase_1,,,,,,,,,,,,,cyan,flipped triangle
400.0,8.0,4.0,1.0,2.0,2.0,319.0526068210602,2.0,1.0,phase_1,,,,,,,,,,,,,blue,hexagon
26.0,1.0,1.0,0.0,2.0,2.0,316.9190157204866,2.0,1.0,phase_1,,,,,,,,,,,,,gray,diamond
216.0,3.0,3.0,0.0,1.0,1.0,383.1874001771211,2.0,1.0,phase_1,,,,,,,,,,,,,yellow,circle
0.0,8.0,0.0,1.0,3.0,3.0,317.5149671733379,2.0,1.0,phase_1,,,,,,,,,,,,,blue,hexagon
84.0,2.0,2.0,0.0,4.0,4.0,320.5102477222681,2.0,1.0,phase_1,,,,,,,,,,,,,white,I
175.0,3.0,3.0,0.0,4.0,4.0,448.0088278651237,2.0,1.0,phase_1,,,,,,,,,,,,,yellow,circle
223.0,3.0,3.0,0.0,3.0,3.0,371.7362154275179,2.0,1.0,phase_1,,,,,,,,,,,,,yellow,circle
385.0,8.0,4.0,1.0,2.0,2.0,469.7981216013431,2.0,1.0,phase_1,,,,,,,,,,,,,blue,hexagon
70.0,1.0,1.0,0.0,2.0,2.0,677.1685928106308,3.0,1.0,phase_1,,,,,,,,,,,,,gray,diamond
0.0,4.0,0.0,0.0,2.0,2.0,382.0635452866554,3.0,1.0,phase_1,,,,,,,,,,,,,green,cross
0.0,2.0,0.0,0.0,1.0,1.0,370.6488739699125,3.0,1.0,phase_1,,,,,,,,,,,,,white,I
224.0,7.0,3.0,1.0,1.0,1.0,458.6006049066782,3.0,1.0,phase_1,,,,,,,,,,,,,cyan,flipped triangle
49.0,1.0,1.0,0.0,1.0,1.0,398.9974893629551,3.0,1.0,phase_1,,,,,,,,,,,,,gray,diamond
403.0,4.0,4.0,0.0,1.0,1.0,442.3890002071857,3.0,1.0,phase_1,,,,,,,,,,,,,green,cross
119.0,2.0,2.0,0.0,4.0,4.0,279.7201424837112,3.0,1.0,phase_1,,,,,,,,,,,,,white,I
47.0,1.0,1.0,0.0,2.0,2.0,283.6711704730987,3.0,1.0,phase_1,,,,,,,,,,,,,gray,diamond
224.0,3.0,3.0,0.0,1.0,1.0,448.4096448868513,3.0,1.0,phase_1,,,,,,,,,,,,,yellow,circle
209.0,7.0,3.0,1.0,4.0,4.0,349.6592454612255,3.0,1.0,phase_1,,,,,,,,,,,,,cyan,flipped triangle
57.0,1.0,1.0,0.0,3.0,3.0,280.9359934180975,3.0,1.0,phase_1,,,,,,,,,,,,,gray,diamond
94.0,6.0,2.0,1.0,4.0,4.0,333.659004420042,3.0,1.0,phase_1,,,,,,,,,,,,,magenta,triangle
67.0,1.0,1.0,0.0,2.0,2.0,506.1251763254404,3.0,1.0,phase_1,,,,,,,,,,,,,gray,diamond
0.0,6.0,0.0,1.0,4.0,4.0,953.7368509918452,3.0,1.0,phase_1,,,,,,,,,,,,,magenta,triangle
115.0,6.0,2.0,1.0,3.0,3.0,371.3369518518448,3.0,1.0,phase_1,,,,,,,,,,,,,magenta,triangle
0.0,2.0,0.0,0.0,2.0,2.0,474.1658717393875,3.0,1.0,phase_1,,,,,,,,,,,,,white,I
188.0,3.0,3.0,0.0,2.0,2.0,395.9151748567819,3.0,1.0,phase_1,,,,,,,,,,,,,yellow,circle
0.0,3.0,0.0,0.0,1.0,1.0,403.8238208740949,3.0,1.0,phase_1,,,,,,,,,,,,,yellow,circle
202.0,3.0,3.0,0.0,3.0,3.0,384.2903058975935,3.0,1.0,phase_1,,,,,,,,,,,,,yellow,circle
52.0,1.0,1.0,0.0,3.0,3.0,451.1628840118646,3.0,1.0,phase_1,,,,,,,,,,,,,gray,diamond
400.0,4.0,4.0,0.0,4.0,4.0,313.0440730601549,3.0,1.0,phase_1,,,,,,,,,,,,,green,cross
0.0,6.0,0.0,1.0,1.0,1.0,517.8135931491852,3.0,1.0,phase_1,,,,,,,,,,,,,magenta,triangle
62.0,5.0,1.0,1.0,1.0,1.0,416.5219124406576,3.0,1.0,phase_1,,,,,,,,,,,,,orange,square
0.0,3.0,0.0,0.0,3.0,3.0,345.3079927712679,3.0,1.0,phase_1,,,,,,,,,,,,,yellow,circle
176.0,3.0,3.0,0.0,3.0,3.0,403.8517009466886,3.0,1.0,phase_1,,,,,,,,,,,,,yellow,circle
121.0,6.0,2.0,1.0,4.0,4.0,481.8509388715029,3.0,1.0,phase_1,,,,,,,,,,,,,magenta,triangle
0.0,3.0,0.0,0.0,4.0,4.0,284.0024959295988,3.0,1.0,phase_1,,,,,,,,,,,,,yellow,circle
388.0,4.0,4.0,0.0,1.0,1.0,552.4170696735382,3.0,1.0,phase_1,,,,,,,,,,,,,green,cross
219.0,7.0,3.0,1.0,3.0,3.0,373.0304073542356,3.0,1.0,phase_1,,,,,,,,,,,,,cyan,flipped triangle
191.0,3.0,3.0,0.0,4.0,4.0,467.7737783640623,3.0,1.0,phase_1,,,,,,,,,,,,,yellow,circle
187.0,7.0,3.0,1.0,1.0,1.0,446.3382959365845,3.0,1.0,phase_1,,,,,,,,,,,,,cyan,flipped triangle
392.0,8.0,4.0,1.0,4.0,4.0,478.6072410643101,3.0,1.0,phase_1,,,,,,,,,,,,,blue,hexagon
417.0,8.0,4.0,1.0,3.0,3.0,279.7519490122795,3.0,1.0,phase_1,,,,,,,,,,,,,blue,hexagon
0.0,2.0,0.0,0.0,3.0,3.0,350.7369030267,3.0,1.0,phase_1,,,,,,,,,,,,,white,I
80.0,6.0,2.0,1.0,1.0,1.0,307.6241929084062,3.0,1.0,phase_1,,,,,,,,,,,,,magenta,triangle
417.0,4.0,4.0,0.0,4.0,4.0,437.797911465168,3.0,1.0,phase_1,,,,,,,,,,,,,green,cross
103.0,6.0,2.0,1.0,4.0,4.0,522.9856912046671,3.0,1.0,phase_1,,,,,,,,,,,,,magenta,triangle
420.0,8.0,4.0,1.0,2.0,2.0,431.2572330236435,3.0,1.0,phase_1,,,,,,,,,,,,,blue,hexagon
0.0,1.0,0.0,0.0,3.0,3.0,397.944925352931,3.0,1.0,phase_1,,,,,,,,,,,,,gray,diamond
114.0,2.0,2.0,0.0,3.0,3.0,410.8370877802372,3.0,1.0,phase_1,,,,,,,,,,,,,white,I
381.0,8.0,4.0,1.0,4.0,4.0,319.8280837386846,3.0,1.0,phase_1,,,,,,,,,,,,,blue,hexagon
199.0,7.0,3.0,1.0,4.0,4.0,314.2197281122207,3.0,1.0,phase_1,,,,,,,,,,,,,cyan,flipped triangle
62.0,1.0,1.0,0.0,3.0,3.0,407.9468585550785,3.0,1.0,phase_1,,,,,,,,,,,,,gray,diamond
104.0,2.0,2.0,0.0,3.0,3.0,340.5178934335708,3.0,1.0,phase_1,,,,,,,,,,,,,white,I
384.0,4.0,4.0,0.0,4.0,4.0,512.2089758515358,3.0,1.0,phase_1,,,,,,,,,,,,,green,cross
73.0,5.0,1.0,1.0,4.0,4.0,558.8613580912352,3.0,1.0,phase_1,,,,,,,,,,,,,orange,square
124.0,2.0,2.0,0.0,4.0,4.0,684.497881680727,3.0,1.0,phase_1,,,,,,,,,,,,,white,I
193.0,3.0,3.0,0.0,3.0,3.0,349.6382310986519,3.0,1.0,phase_1,,,,,,,,,,,,,yellow,circle
193.0,7.0,3.0,1.0,4.0,4.0,907.9062882810832,3.0,1.0,phase_1,,,,,,,,,,,,,cyan,flipped triangle
0.0,7.0,0.0,1.0,3.0,3.0,818.6384774744511,3.0,1.0,phase_1,,,,,,,,,,,,,cyan,flipped triangle
207.0,3.0,3.0,0.0,2.0,2.0,396.3083978742361,3.0,1.0,phase_1,,,,,,,,,,,,,yellow,circle
46.0,1.0,1.0,0.0,2.0,2.0,338.541267439723,3.0,1.0,phase_1,,,,,,,,,,,,,gray,diamond
103.0,2.0,2.0,0.0,1.0,1.0,415.7025776803493,3.0,1.0,phase_1,,,,,,,,,,,,,white,I
0.0,1.0,0.0,0.0,2.0,2.0,460.8261175453663,3.0,1.0,phase_1,,,,,,,,,,,,,gray,diamond
201.0,7.0,3.0,1.0,2.0,2.0,415.1747655123472,3.0,1.0,phase_1,,,,,,,,,,,,,cyan,flipped triangle
106.0,6.0,2.0,1.0,3.0,3.0,374.63503703475,3.0,1.0,phase_1,,,,,,,,,,,,,magenta,triangle
0.0,2.0,0.0,0.0,2.0,2.0,321.0835009813308,3.0,1.0,phase_1,,,,,,,,,,,,,white,I
180.0,7.0,3.0,1.0,3.0,3.0,336.5607112646103,3.0,1.0,phase_1,,,,,,,,,,,,,cyan,flipped triangle
86.0,6.0,2.0,1.0,1.0,1.0,373.664716258645,3.0,2.0,phase_1,,,,,,,,,,,,,magenta,triangle
381.0,4.0,4.0,0.0,1.0,1.0,588.739013299346,3.0,1.0,phase_1,,,,,,,,,,,,,green,cross
417.0,8.0,4.0,1.0,1.0,1.0,575.7700204849243,3.0,1.0,phase_1,,,,,,,,,,,,,blue,hexagon
0.0,5.0,0.0,1.0,4.0,4.0,475.9750179946422,3.0,1.0,phase_1,,,,,,,,,,,,,orange,square
212.0,3.0,3.0,0.0,3.0,3.0,296.9169318675995,3.0,1.0,phase_1,,,,,,,,,,,,,yellow,circle
98.0,6.0,2.0,1.0,2.0,2.0,368.9438104629516,3.0,1.0,phase_1,,,,,,,,,,,,,magenta,triangle
394.0,4.0,4.0,0.0,3.0,3.0,349.7336655855179,3.0,1.0,phase_1,,,,,,,,,,,,,green,cross
182.0,3.0,3.0,0.0,4.0,4.0,552.5172855705023,3.0,1.0,phase_1,,,,,,,,,,,,,yellow,circle
0.0,6.0,0.0,1.0,1.0,1.0,524.0336526185274,3.0,1.0,phase_1,,,,,,,,,,,,,magenta,triangle
201.0,3.0,3.0,0.0,2.0,2.0,309.0508729219436,3.0,2.0,phase_1,,,,,,,,,,,,,yellow,circle
0.0,3.0,0.0,0.0,2.0,2.0,585.2619428187609,3.0,1.0,phase_1,,,,,,,,,,,,,yellow,circle
78.0,2.0,2.0,0.0,4.0,4.0,406.6748525947332,3.0,2.0,phase_1,,,,,,,,,,,,,white,I
52.0,1.0,1.0,0.0,1.0,1.0,448.1973219662905,3.0,1.0,phase_1,,,,,,,,,,,,,gray,diamond
378.0,8.0,4.0,1.0,4.0,4.0,583.0380767583847,3.0,1.0,phase_1,,,,,,,,,,,,,blue,hexagon
72.0,1.0,1.0,0.0,2.0,2.0,450.5772702395916,3.0,1.0,phase_1,,,,,,,,,,,,,gray,diamond
25.0,5.0,1.0,1.0,3.0,3.0,543.9530424773693,3.0,1.0,phase_1,,,,,,,,,,,,,orange,square
399.0,4.0,4.0,0.0,2.0,2.0,706.2414139509201,3.0,1.0,phase_1,,,,,,,,,,,,,green,cross
191.0,7.0,3.0,1.0,2.0,2.0,489.5260836929083,3.0,1.0,phase_1,,,,,,,,,,,,,cyan,flipped triangle
51.0,1.0,1.0,0.0,4.0,4.0,547.4266167730093,3.0,1.0,phase_1,,,,,,,,,,,,,gray,diamond
26.0,5.0,1.0,1.0,3.0,3.0,672.9590184986591,3.0,1.0,phase_1,,,,,,,,,,,,,orange,square
203.0,3.0,3.0,0.0,2.0,2.0,479.6201959252357,3.0,1.0,phase_1,,,,,,,,,,,,,yellow,circle
383.0,4.0,4.0,0.0,4.0,4.0,293.3218255639076,3.0,1.0,phase_1,,,,,,,,,,,,,green,cross
383.0,8.0,4.0,1.0,2.0,2.0,264.3394414335489,3.0,1.0,phase_1,,,,,,,,,,,,,blue,hexagon
0.0,2.0,0.0,0.0,1.0,1.0,389.2940673977136,3.0,1.0,phase_1,,,,,,,,,,,,,white,I
0.0,8.0,0.0,1.0,4.0,4.0,359.5438450574875,3.0,1.0,phase_1,,,,,,,,,,,,,blue,hexagon
208.0,7.0,3.0,1.0,2.0,2.0,396.2257485836744,3.0,1.0,phase_1,,,,,,,,,,,,,cyan,flipped triangle
0.0,4.0,0.0,0.0,3.0,3.0,537.1986106038094,3.0,1.0,phase_1,,,,,,,,,,,,,green,cross
76.0,6.0,2.0,1.0,4.0,4.0,349.6357426047325,3.0,1.0,phase_1,,,,,,,,,,,,,magenta,triangle
88.0,2.0,2.0,0.0,4.0,4.0,285.7346590608358,3.0,1.0,phase_1,,,,,,,,,,,,,white,I
392.0,8.0,4.0,1.0,3.0,3.0,279.3927025049925,3.0,1.0,phase_1,,,,,,,,,,,,,blue,hexagon
388.0,8.0,4.0,1.0,1.0,1.0,670.7900520414114,3.0,1.0,phase_1,,,,,,,,,,,,,blue,hexagon
99.0,6.0,2.0,1.0,1.0,1.0,320.6666968762874,3.0,1.0,phase_1,,,,,,,,,,,,,magenta,triangle
384.0,8.0,4.0,1.0,4.0,4.0,288.7583486735821,3.0,1.0,phase_1,,,,,,,,,,,,,blue,hexagon
93.0,6.0,2.0,1.0,2.0,2.0,513.4549085050821,3.0,1.0,phase_1,,,,,,,,,,,,,magenta,triangle
55.0,5.0,1.0,1.0,1.0,1.0,409.5401670783758,3.0,1.0,phase_1,,,,,,,,,,,,,orange,square
28.0,5.0,1.0,1.0,4.0,4.0,412.0611883699894,3.0,1.0,phase_1,,,,,,,,,,,,,orange,square
193.0,7.0,3.0,1.0,1.0,1.0,394.029526039958,3.0,1.0,phase_1,,,,,,,,,,,,,cyan,flipped triangle
382.0,8.0,4.0,1.0,4.0,4.0,485.4039959609508,3.0,1.0,phase_1,,,,,,,,,,,,,blue,hexagon
48.0,1.0,1.0,0.0,1.0,1.0,393.4528566896915,3.0,1.0,phase_1,,,,,,,,,,,,,gray,diamond
0.0,7.0,0.0,1.0,4.0,4.0,248.7574871629476,3.0,1.0,phase_1,,,,,,,,,,,,,cyan,flipped triangle
98.0,6.0,2.0,1.0,2.0,2.0,276.6876593232155,3.0,1.0,phase_1,,,,,,,,,,,,,magenta,triangle
81.0,6.0,2.0,1.0,4.0,4.0,289.1611885279417,3.0,1.0,phase_1,,,,,,,,,,,,,magenta,triangle
0.0,5.0,0.0,1.0,3.0,3.0,466.6172489523887,4.0,1.0,phase_1,,,,,,,,,,,,,orange,square
112.0,6.0,2.0,1.0,3.0,3.0,320.4858601093292,4.0,1.0,phase_1,,,,,,,,,,,,,magenta,triangle
220.0,3.0,3.0,0.0,3.0,3.0,425.7261659950018,4.0,1.0,phase_1,,,,,,,,,,,,,yellow,circle
93.0,2.0,2.0,0.0,2.0,2.0,432.5237609446049,4.0,1.0,phase_1,,,,,,,,,,,,,white,I
416.0,4.0,4.0,0.0,4.0,4.0,390.5093166977167,4.0,1.0,phase_1,,,,,,,,,,,,,green,cross
224.0,3.0,3.0,0.0,1.0,1.0,401.952838525176,4.0,1.0,phase_1,,,,,,,,,,,,,yellow,circle
123.0,6.0,2.0,1.0,3.0,3.0,342.3539474606514,4.0,1.0,phase_1,,,,,,,,,,,,,magenta,triangle
417.0,4.0,4.0,0.0,3.0,3.0,313.295429572463,4.0,1.0,phase_1,,,,,,,,,,,,,green,cross
0.0,1.0,0.0,0.0,2.0,2.0,439.0977006405592,4.0,1.0,phase_1,,,,,,,,,,,,,gray,diamond
39.0,5.0,1.0,1.0,1.0,1.0,378.4847781062126,4.0,1.0,phase_1,,,,,,,,,,,,,orange,square
103.0,6.0,2.0,1.0,4.0,4.0,432.6701797544956,4.0,1.0,phase_1,,,,,,,,,,,,,magenta,triangle
34.0,5.0,1.0,1.0,2.0,2.0,284.280514344573,4.0,1.0,phase_1,,,,,,,,,,,,,orange,square
394.0,8.0,4.0,1.0,3.0,3.0,264.6818701177835,4.0,1.0,phase_1,,,,,,,,,,,,,blue,hexagon
176.0,7.0,3.0,1.0,4.0,4.0,277.8035961091518,4.0,1.0,phase_1,,,,,,,,,,,,,cyan,flipped triangle
416.0,8.0,4.0,1.0,1.0,1.0,619.7688858956099,4.0,1.0,phase_1,,,,,,,,,,,,,blue,hexagon
214.0,7.0,3.0,1.0,2.0,2.0,393.6101384460926,4.0,1.0,phase_1,,,,,,,,,,,,,cyan,flipped triangle
220.0,7.0,3.0,1.0,3.0,3.0,365.2731012552976,4.0,1.0,phase_1,,,,,,,,,,,,,cyan,flipped triangle
51.0,5.0,1.0,1.0,2.0,2.0,575.6661295890808,4.0,1.0,phase_1,,,,,,,,,,,,,orange,square
188.0,7.0,3.0,1.0,3.0,3.0,448.2488427311182,4.0,1.0,phase_1,,,,,,,,,,,,,cyan,flipped triangle
66.0,1.0,1.0,0.0,3.0,3.0,345.3861735761165,4.0,1.0,phase_1,,,,,,,,,,,,,gray,diamond
59.0,5.0,1.0,1.0,1.0,1.0,589.5799938589334,4.0,1.0,phase_1,,,,,,,,,,,,,orange,square
409.0,4.0,4.0,0.0,1.0,1.0,554.8312813043594,4.0,1.0,phase_1,,,,,,,,,,,,,green,cross
103.0,2.0,2.0,0.0,1.0,1.0,910.8347278088332,4.0,1.0,phase_1,,,,,,,,,,,,,white,I
401.0,4.0,4.0,0.0,1.0,1.0,669.3575270473957,4.0,1.0,phase_1,,,,,,,,,,,,,green,cross
180.0,3.0,3.0,0.0,2.0,2.0,457.5763288885355,4.0,1.0,phase_1,,,,,,,,,,,,,yellow,circle
34.0,5.0,1.0,1.0,4.0,4.0,541.2456505000591,4.0,1.0,phase_1,,,,,,,,,,,,,orange,square
38.0,5.0,1.0,1.0,2.0,2.0,434.0484999120235,4.0,1.0,phase_1,,,,,,,,,,,,,orange,square
182.0,7.0,3.0,1.0,3.0,3.0,679.0907606482506,4.0,2.0,phase_1,,,,,,,,,,,,,cyan,flipped triangle
67.0,5.0,1.0,1.0,3.0,3.0,328.4267242997885,4.0,1.0,phase_1,,,,,,,,,,,,,orange,square
121.0,6.0,2.0,1.0,2.0,2.0,470.3657086938619,4.0,1.0,phase_1,,,,,,,,,,,,,magenta,triangle
377.0,4.0,4.0,0.0,2.0,2.0,348.2061475515365,4.0,1.0,phase_1,,,,,,,,,,,,,green,cross
115.0,2.0,2.0,0.0,1.0,1.0,829.4614553451538,4.0,1.0,phase_1,,,,,,,,,,,,,white,I
90.0,2.0,2.0,0.0,2.0,2.0,389.7644951939583,4.0,1.0,phase_1,,,,,,,,,,,,,white,I
38.0,1.0,1.0,0.0,4.0,4.0,512.7890184521675,4.0,1.0,phase_1,,,,,,,,,,,,,gray,diamond
124.0,6.0,2.0,1.0,2.0,2.0,471.4489839971065,4.0,1.0,phase_1,,,,,,,,,,,,,magenta,triangle
0.0,4.0,0.0,0.0,3.0,3.0,523.2042502611876,4.0,1.0,phase_1,,,,,,,,,,,,,green,cross
411.0,8.0,4.0,1.0,4.0,4.0,446.3238418102264,4.0,1.0,phase_1,,,,,,,,,,,,,blue,hexagon
76.0,6.0,2.0,1.0,3.0,3.0,805.3963463753462,4.0,1.0,phase_1,,,,,,,,,,,,,magenta,triangle
0.0,6.0,0.0,1.0,2.0,2.0,417.2968361526727,4.0,1.0,phase_1,,,,,,,,,,,,,magenta,triangle
0.0,5.0,0.0,1.0,2.0,2.0,405.2898660302162,4.0,1.0,phase_1,,,,,,,,,,,,,orange,square
0.0,5.0,0.0,1.0,1.0,1.0,488.6278044432401,4.0,1.0,phase_1,,,,,,,,,,,,,orange,square
83.0,6.0,2.0,1.0,3.0,3.0,598.8596845418215,4.0,1.0,phase_1,,,,,,,,,,,,,magenta,triangle
121.0,2.0,2.0,0.0,1.0,1.0,370.023600757122,4.0,2.0,phase_1,,,,,,,,,,,,,white,I
0.0,4.0,0.0,0.0,1.0,1.0,396.999042481184,4.0,1.0,phase_1,,,,,,,,,,,,,green,cross
403.0,8.0,4.0,1.0,4.0,4.0,377.6672538369894,4.0,1.0,phase_1,,,,,,,,,,,,,blue,hexagon
211.0,3.0,3.0,0.0,1.0,1.0,423.1050703674555,4.0,1.0,phase_1,,,,,,,,,,,,,yellow,circle
210.0,7.0,3.0,1.0,2.0,2.0,324.1331484168768,4.0,1.0,phase_1,,,,,,,,,,,,,cyan,flipped triangle
0.0,3.0,0.0,0.0,1.0,1.0,450.3613598644733,4.0,2.0,phase_1,,,,,,,,,,,,,yellow,circle
99.0,2.0,2.0,0.0,3.0,3.0,454.6121526509523,4.0,1.0,phase_1,,,,,,,,,,,,,white,I
80.0,2.0,2.0,0.0,2.0,2.0,483.8165417313576,4.0,1.0,phase_1,,,,,,,,,,,,,white,I
389.0,4.0,4.0,0.0,4.0,4.0,435.0208435207605,4.0,1.0,phase_1,,,,,,,,,,,,,green,cross
121.0,6.0,2.0,1.0,4.0,4.0,437.6597348600626,4.0,1.0,phase_1,,,,,,,,,,,,,magenta,triangle
46.0,5.0,1.0,1.0,4.0,4.0,377.6729665696621,4.0,1.0,phase_1,,,,,,,,,,,,,orange,square
379.0,8.0,4.0,1.0,1.0,1.0,369.2114725708961,4.0,1.0,phase_1,,,,,,,,,,,,,blue,hexagon
32.0,1.0,1.0,0.0,1.0,1.0,397.1228916198015,4.0,1.0,phase_1,,,,,,,,,,,,,gray,diamond
221.0,7.0,3.0,1.0,4.0,4.0,544.3138834089041,4.0,1.0,phase_1,,,,,,,,,,,,,cyan,flipped triangle
0.0,8.0,0.0,1.0,1.0,1.0,452.4560514837503,4.0,1.0,phase_1,,,,,,,,,,,,,blue,hexagon
410.0,4.0,4.0,0.0,3.0,3.0,593.6149582266808,4.0,1.0,phase_1,,,,,,,,,,,,,green,cross
72.0,5.0,1.0,1.0,4.0,4.0,422.4812649190426,4.0,1.0,phase_1,,,,,,,,,,,,,orange,square
0.0,5.0,0.0,1.0,2.0,2.0,326.0225150734186,4.0,1.0,phase_1,,,,,,,,,,,,,orange,square
35.0,1.0,1.0,0.0,1.0,1.0,393.2356797158718,4.0,1.0,phase_1,,,,,,,,,,,,,gray,diamond
0.0,7.0,0.0,1.0,2.0,2.0,395.8676494657993,4.0,1.0,phase_1,,,,,,,,,,,,,cyan,flipped triangle
85.0,2.0,2.0,0.0,1.0,1.0,552.5883696973324,4.0,1.0,phase_1,,,,,,,,,,,,,white,I
193.0,3.0,3.0,0.0,4.0,4.0,469.8184300214052,4.0,1.0,phase_1,,,,,,,,,,,,,yellow,circle
401.0,8.0,4.0,1.0,2.0,2.0,397.0397114753723,4.0,1.0,phase_1,,,,,,,,,,,,,blue,hexagon
119.0,2.0,2.0,0.0,3.0,3.0,617.6113355904818,4.0,1.0,phase_1,,,,,,,,,,,,,white,I
76.0,2.0,2.0,0.0,2.0,2.0,363.9601990580559,4.0,1.0,phase_1,,,,,,,,,,,,,white,I
422.0,8.0,4.0,1.0,1.0,1.0,255.776772275567,4.0,1.0,phase_1,,,,,,,,,,,,,blue,hexagon
0.0,4.0,0.0,0.0,1.0,1.0,398.5371887683868,4.0,1.0,phase_1,,,,,,,,,,,,,green,cross
25.0,1.0,1.0,0.0,3.0,3.0,378.837177529931,4.0,1.0,phase_1,,,,,,,,,,,,,gray,diamond
44.0,1.0,1.0,0.0,3.0,3.0,368.823891505599,4.0,1.0,phase_1,,,,,,,,,,,,,gray,diamond
179.0,7.0,3.0,1.0,1.0,1.0,381.7974887788296,4.0,1.0,phase_1,,,,,,,,,,,,,cyan,flipped triangle
76.0,2.0,2.0,0.0,1.0,1.0,394.2481651902199,4.0,1.0,phase_1,,,,,,,,,,,,,white,I
378.0,4.0,4.0,0.0,1.0,1.0,638.455169275403,4.0,1.0,phase_1,,,,,,,,,,,,,green,cross
76.0,6.0,2.0,1.0,2.0,2.0,540.1004161685705,4.0,1.0,phase_1,,,,,,,,,,,,,magenta,triangle
381.0,4.0,4.0,0.0,2.0,2.0,390.2052845805883,4.0,1.0,phase_1,,,,,,,,,,,,,green,cross
379.0,8.0,4.0,1.0,2.0,2.0,434.2304561287164,4.0,1.0,phase_1,,,,,,,,,,,,,blue,hexagon
0.0,6.0,0.0,1.0,4.0,4.0,570.2454186975956,4.0,1.0,phase_1,,,,,,,,,,,,,magenta,triangle
392.0,4.0,4.0,0.0,2.0,2.0,519.079364836216,4.0,1.0,phase_1,,,,,,,,,,,,,green,cross
89.0,6.0,2.0,1.0,1.0,1.0,519.7558961808681,4.0,1.0,phase_1,,,,,,,,,,,,,magenta,triangle
398.0,4.0,4.0,0.0,3.0,3.0,495.1064325869083,4.0,1.0,phase_1,,,,,,,,,,,,,green,cross
381.0,8.0,4.0,1.0,3.0,3.0,307.6754249632358,4.0,1.0,phase_1,,,,,,,,,,,,,blue,hexagon
187.0,3.0,3.0,0.0,1.0,1.0,446.3431090116501,4.0,1.0,phase_1,,,,,,,,,,,,,yellow,circle
207.0,7.0,3.0,1.0,3.0,3.0,363.2274139672518,4.0,1.0,phase_1,,,,,,,,,,,,,cyan,flipped triangle
388.0,4.0,4.0,0.0,4.0,4.0,311.6296473890543,4.0,1.0,phase_1,,,,,,,,,,,,,green,cross
0.0,1.0,0.0,0.0,1.0,1.0,534.2999119311571,4.0,1.0,phase_1,,,,,,,,,,,,,gray,diamond
216.0,7.0,3.0,1.0,3.0,3.0,490.7282050698995,4.0,1.0,phase_1,,,,,,,,,,,,,cyan,flipped triangle
119.0,6.0,2.0,1.0,1.0,1.0,689.1018934547901,4.0,1.0,phase_1,,,,,,,,,,,,,magenta,triangle
0.0,2.0,0.0,0.0,4.0,4.0,659.1071784496307,4.0,1.0,phase_1,,,,,,,,,,,,,white,I
0.0,7.0,0.0,1.0,3.0,3.0,494.9933886528015,4.0,1.0,phase_1,,,,,,,,,,,,,cyan,flipped triangle
0.0,8.0,0.0,1.0,3.0,3.0,630.8115664869547,4.0,1.0,phase_1,,,,,,,,,,,,,blue,hexagon
382.0,4.0,4.0,0.0,3.0,3.0,536.1509788781404,4.0,1.0,phase_1,,,,,,,,,,,,,green,cross
0.0,2.0,0.0,0.0,3.0,3.0,407.9998228698969,4.0,1.0,phase_1,,,,,,,,,,,,,white,I
394.0,4.0,4.0,0.0,2.0,2.0,474.7940450906753,4.0,1.0,phase_1,,,,,,,,,,,,,green,cross
0.0,7.0,0.0,1.0,1.0,1.0,369.5584684610367,4.0,1.0,phase_1,,,,,,,,,,,,,cyan,flipped triangle
34.0,1.0,1.0,0.0,4.0,4.0,330.9665806591511,4.0,1.0,phase_1,,,,,,,,,,,,,gray,diamond
55.0,1.0,1.0,0.0,3.0,3.0,391.6750717908144,4.0,1.0,phase_1,,,,,,,,,,,,,gray,diamond
121.0,2.0,2.0,0.0,3.0,3.0,437.1953587979078,4.0,1.0,phase_1,,,,,,,,,,,,,white,I
222.0,3.0,3.0,0.0,3.0,3.0,629.0635634213686,4.0,1.0,phase_1,,,,,,,,,,,,,yellow,circle
0.0,6.0,0.0,1.0,4.0,4.0,304.8903681337833,4.0,1.0,phase_1,,,,,,,,,,,,,magenta,triangle
0.0,3.0,3.0,0.0,6.0,6.0,415.2577444911003,1.0,1.0,phase_2,go,250.0,250.0,1.0,,,,,,,,,yellow,circle
0.0,2.0,2.0,0.0,5.0,5.0,314.8141857236624,1.0,1.0,phase_2,go,250.0,250.0,1.0,,,,,,,,,white,I
0.0,6.0,2.0,1.0,6.0,6.0,280.6465309113264,1.0,1.0,phase_2,stop,250.0,250.0,3.0,,,,,,,,,magenta,triangle
0.0,3.0,3.0,0.0,6.0,6.0,555.7687599211931,1.0,1.0,phase_2,go,250.0,200.0,1.0,,,,,,,,,yellow,circle
0.0,5.0,1.0,1.0,6.0,6.0,320.8452463150024,1.0,1.0,phase_2,go,250.0,200.0,1.0,,,,,,,,,orange,square
0.0,2.0,2.0,0.0,5.0,5.0,545.5076564103365,1.0,1.0,phase_2,go,250.0,200.0,1.0,,,,,,,,,white,I
0.0,6.0,2.0,1.0,5.0,5.0,424.6904868632555,1.0,1.0,phase_2,stop,250.0,200.0,3.0,,,,,,,,,magenta,triangle
0.0,6.0,2.0,1.0,6.0,6.0,303.281407803297,1.0,1.0,phase_2,stop,200.0,200.0,3.0,,,,,,,,,magenta,triangle
0.0,2.0,2.0,0.0,6.0,6.0,338.9540370553732,1.0,1.0,phase_2,go,200.0,150.0,1.0,,,,,,,,,white,I
0.0,8.0,4.0,1.0,6.0,6.0,287.0088499039411,1.0,1.0,phase_2,stop,200.0,150.0,3.0,,,,,,,,,blue,hexagon
0.0,6.0,2.0,1.0,5.0,5.0,293.622450903058,1.0,1.0,phase_2,go,200.0,100.0,1.0,,,,,,,,,magenta,triangle
0.0,3.0,3.0,0.0,5.0,5.0,311.3320097327232,1.0,1.0,phase_2,go,200.0,100.0,1.0,,,,,,,,,yellow,circle
0.0,3.0,3.0,0.0,6.0,6.0,357.7571678906679,1.0,1.0,phase_2,go,200.0,100.0,1.0,,,,,,,,,yellow,circle
0.0,6.0,2.0,1.0,6.0,6.0,300.1418821513653,1.0,1.0,phase_2,stop,200.0,100.0,3.0,,,,,,,,,magenta,triangle
0.0,8.0,4.0,1.0,6.0,6.0,495.4198189079761,1.0,1.0,phase_2,stop,200.0,50.0,3.0,,,,,,,,,blue,hexagon
0.0,4.0,4.0,0.0,6.0,6.0,315.3750598430633,1.0,1.0,phase_2,go,200.0,0.0,1.0,,,,,,,,,green,cross
0.0,8.0,4.0,1.0,6.0,0.0,0.0,1.0,1.0,phase_2,stop,200.0,0.0,4.0,,,,,,,,,blue,hexagon
0.0,8.0,4.0,1.0,6.0,6.0,258.0682337284088,1.0,1.0,phase_2,stop,200.0,50.0,3.0,,,,,,,,,blue,hexagon
0.0,2.0,2.0,0.0,5.0,5.0,308.6447324603796,1.0,1.0,phase_2,go,200.0,0.0,1.0,,,,,,,,,white,I
0.0,8.0,4.0,1.0,6.0,0.0,0.0,1.0,1.0,phase_2,stop,200.0,0.0,4.0,,,,,,,,,blue,hexagon
0.0,5.0,1.0,1.0,5.0,5.0,345.3597202897072,1.0,1.0,phase_2,go,200.0,50.0,1.0,,,,,,,,,orange,square
0.0,3.0,3.0,0.0,5.0,5.0,442.5076283514499,1.0,1.0,phase_2,go,200.0,50.0,1.0,,,,,,,,,yellow,circle
0.0,1.0,1.0,0.0,5.0,5.0,537.4239683151245,1.0,1.0,phase_2,go,200.0,50.0,1.0,,,,,,,,,gray,diamond
0.0,3.0,3.0,0.0,5.0,5.0,392.5761803984642,1.0,1.0,phase_2,go,200.0,50.0,1.0,,,,,,,,,yellow,circle
0.0,5.0,1.0,1.0,5.0,5.0,326.7812356352806,1.0,1.0,phase_2,stop,200.0,50.0,3.0,,,,,,,,,orange,square
0.0,6.0,2.0,1.0,5.0,0.0,0.0,1.0,1.0,phase_2,stop,150.0,50.0,4.0,,,,,,,,,magenta,triangle
0.0,3.0,3.0,0.0,6.0,6.0,400.242967531085,1.0,1.0,phase_2,go,200.0,50.0,1.0,,,,,,,,,yellow,circle
0.0,8.0,4.0,1.0,6.0,6.0,428.2360505312681,1.0,1.0,phase_2,go,200.0,50.0,1.0,,,,,,,,,blue,hexagon
0.0,7.0,3.0,1.0,6.0,6.0,351.286644116044,1.0,1.0,phase_2,stop,200.0,50.0,3.0,,,,,,,,,cyan,flipped triangle
0.0,3.0,3.0,0.0,6.0,6.0,1038.842536509037,1.0,1.0,phase_2,go,200.0,0.0,1.0,,,,,,,,,yellow,circle
0.0,1.0,1.0,0.0,5.0,5.0,626.8544811755419,1.0,1.0,phase_2,go,200.0,0.0,1.0,,,,,,,,,gray,diamond
0.0,1.0,1.0,0.0,5.0,5.0,395.3361939638853,1.0,1.0,phase_2,go,200.0,0.0,1.0,,,,,,,,,gray,diamond
0.0,8.0,4.0,1.0,5.0,0.0,0.0,1.0,1.0,phase_2,stop,200.0,0.0,4.0,,,,,,,,,blue,hexagon
0.0,2.0,2.0,0.0,5.0,5.0,354.3498963117599,1.0,1.0,phase_2,go,250.0,0.0,1.0,,,,,,,,,white,I
0.0,5.0,1.0,1.0,5.0,5.0,432.8563399612903,1.0,1.0,phase_2,stop,250.0,0.0,3.0,,,,,,,,,orange,square
0.0,7.0,3.0,1.0,5.0,0.0,0.0,1.0,1.0,phase_2,stop,200.0,0.0,4.0,,,,,,,,,cyan,flipped triangle
0.0,3.0,3.0,0.0,6.0,6.0,405.6587722152471,2.0,1.0,phase_2,go,250.0,0.0,1.0,,,,,,,,,yellow,circle
0.0,3.0,3.0,0.0,6.0,6.0,447.9808043688535,2.0,1.0,phase_2,go,250.0,0.0,1.0,,,,,,,,,yellow,circle
0.0,2.0,2.0,0.0,6.0,6.0,270.7135304808616,2.0,1.0,phase_2,go,250.0,0.0,1.0,,,,,,,,,white,I
0.0,7.0,3.0,1.0,5.0,5.0,276.8759895116091,2.0,1.0,phase_2,stop,250.0,0.0,3.0,,,,,,,,,cyan,flipped triangle
0.0,8.0,4.0,1.0,5.0,5.0,380.6829992681741,2.0,1.0,phase_2,stop,200.0,0.0,3.0,,,,,,,,,blue,hexagon
0.0,8.0,4.0,1.0,6.0,0.0,0.0,2.0,1.0,phase_2,stop,150.0,0.0,4.0,,,,,,,,,blue,hexagon
0.0,3.0,3.0,0.0,5.0,5.0,531.0353226959705,2.0,1.0,phase_2,go,150.0,50.0,1.0,,,,,,,,,yellow,circle
0.0,6.0,2.0,1.0,6.0,6.0,281.7890420556068,2.0,1.0,phase_2,stop,150.0,50.0,3.0,,,,,,,,,magenta,triangle
0.0,2.0,2.0,0.0,5.0,5.0,265.3977610170841,2.0,1.0,phase_2,go,150.0,0.0,1.0,,,,,,,,,white,I
0.0,5.0,1.0,1.0,5.0,5.0,283.5132237523794,2.0,1.0,phase_2,go,150.0,0.0,1.0,,,,,,,,,orange,square
0.0,8.0,4.0,1.0,6.0,0.0,0.0,2.0,1.0,phase_2,stop,150.0,0.0,4.0,,,,,,,,,blue,hexagon
0.0,3.0,3.0,0.0,5.0,5.0,568.8272304832935,2.0,1.0,phase_2,go,150.0,50.0,1.0,,,,,,,,,yellow,circle
0.0,4.0,4.0,0.0,5.0,5.0,448.8754738122225,2.0,1.0,phase_2,go,150.0,50.0,1.0,,,,,,,,,green,cross
0.0,5.0,1.0,1.0,6.0,6.0,352.3058295249939,2.0,1.0,phase_2,go,150.0,50.0,1.0,,,,,,,,,orange,square
0.0,5.0,1.0,1.0,6.0,6.0,326.0898068547249,2.0,1.0,phase_2,stop,150.0,50.0,3.0,,,,,,,,,orange,square
0.0,7.0,3.0,1.0,6.0,0.0,0.0,2.0,1.0,phase_2,stop,150.0,0.0,4.0,,,,,,,,,cyan,flipped triangle
0.0,2.0,2.0,0.0,5.0,5.0,559.585714712739,2.0,1.0,phase_2,go,150.0,50.0,1.0,,,,,,,,,white,I
0.0,5.0,1.0,1.0,6.0,6.0,268.1238073855638,2.0,1.0,phase_2,stop,150.0,50.0,3.0,,,,,,,,,orange,square
0.0,5.0,1.0,1.0,6.0,0.0,0.0,2.0,1.0,phase_2,stop,150.0,0.0,4.0,,,,,,,,,orange,square
0.0,4.0,4.0,0.0,6.0,6.0,279.0006902068853,2.0,1.0,phase_2,go,150.0,50.0,1.0,,,,,,,,,green,cross
0.0,1.0,1.0,0.0,5.0,5.0,410.4445986449718,2.0,1.0,phase_2,go,150.0,50.0,1.0,,,,,,,,,gray,diamond
0.0,7.0,3.0,1.0,5.0,5.0,442.0082252472639,2.0,1.0,phase_2,go,150.0,50.0,1.0,,,,,,,,,cyan,flipped triangle
0.0,5.0,1.0,1.0,5.0,5.0,361.196594312787,2.0,1.0,phase_2,go,150.0,50.0,1.0,,,,,,,,,orange,square
0.0,4.0,4.0,0.0,5.0,5.0,316.9423025101423,2.0,1.0,phase_2,go,150.0,50.0,1.0,,,,,,,,,green,cross
0.0,3.0,3.0,0.0,5.0,5.0,435.0004438310861,2.0,1.0,phase_2,go,150.0,50.0,1.0,,,,,,,,,yellow,circle
0.0,2.0,2.0,0.0,6.0,6.0,266.3062587380409,2.0,1.0,phase_2,go,150.0,50.0,1.0,,,,,,,,,white,I
0.0,7.0,3.0,1.0,6.0,6.0,275.2757426351309,2.0,1.0,phase_2,stop,150.0,50.0,3.0,,,,,,,,,cyan,flipped triangle
0.0,1.0,1.0,0.0,5.0,5.0,454.5777440071106,2.0,1.0,phase_2,go,150.0,0.0,1.0,,,,,,,,,gray,diamond
0.0,7.0,3.0,1.0,5.0,5.0,359.7009684890508,2.0,1.0,phase_2,go,150.0,0.0,1.0,,,,,,,,,cyan,flipped triangle
0.0,6.0,2.0,1.0,6.0,6.0,326.3399135321378,2.0,1.0,phase_2,go,150.0,0.0,1.0,,,,,,,,,magenta,triangle
0.0,4.0,4.0,0.0,6.0,6.0,600.7518135011196,2.0,1.0,phase_2,go,150.0,0.0,1.0,,,,,,,,,green,cross
0.0,6.0,2.0,1.0,5.0,5.0,276.9848648458719,2.0,1.0,phase_2,go,150.0,0.0,1.0,,,,,,,,,magenta,triangle
0.0,3.0,3.0,0.0,5.0,5.0,461.3533709198236,2.0,1.0,phase_2,go,150.0,0.0,1.0,,,,,,,,,yellow,circle
0.0,6.0,2.0,1.0,6.0,6.0,269.2852541804313,2.0,1.0,phase_2,stop,150.0,0.0,3.0,,,,,,,,,magenta,triangle
0.0,3.0,3.0,0.0,6.0,6.0,611.7062959820032,2.0,1.0,phase_2,go,150.0,0.0,1.0,,,,,,,,,yellow,circle
0.0,2.0,2.0,0.0,6.0,6.0,310.4482665657997,2.0,1.0,phase_2,go,150.0,0.0,1.0,,,,,,,,,white,I
0.0,4.0,4.0,0.0,6.0,6.0,408.4517266601324,3.0,1.0,phase_2,go,150.0,0.0,1.0,,,,,,,,,green,cross
0.0,8.0,4.0,1.0,6.0,6.0,272.2278367727995,3.0,1.0,phase_2,stop,150.0,0.0,3.0,,,,,,,,,blue,hexagon
0.0,2.0,2.0,0.0,5.0,5.0,297.5473199039697,3.0,1.0,phase_2,go,150.0,0.0,1.0,,,,,,,,,white,I
0.0,6.0,2.0,1.0,5.0,5.0,335.361298173666,3.0,1.0,phase_2,stop,150.0,0.0,3.0,,,,,,,,,magenta,triangle
0.0,3.0,3.0,0.0,6.0,6.0,549.763023853302,3.0,1.0,phase_2,go,100.0,0.0,1.0,,,,,,,,,yellow,circle
0.0,1.0,1.0,0.0,6.0,6.0,439.6066777408123,3.0,1.0,phase_2,go,100.0,0.0,1.0,,,,,,,,,gray,diamond
0.0,8.0,4.0,1.0,6.0,6.0,332.5484059751034,3.0,1.0,phase_2,stop,100.0,0.0,3.0,,,,,,,,,blue,hexagon
0.0,3.0,3.0,0.0,5.0,5.0,573.4683610498905,3.0,1.0,phase_2,go,100.0,0.0,1.0,,,,,,,,,yellow,circle
0.0,4.0,4.0,0.0,6.0,6.0,459.209430962801,3.0,1.0,phase_2,go,100.0,0.0,1.0,,,,,,,,,green,cross
0.0,7.0,3.0,1.0,5.0,5.0,291.3956921547651,3.0,1.0,phase_2,stop,100.0,0.0,3.0,,,,,,,,,cyan,flipped triangle
0.0,1.0,1.0,0.0,6.0,6.0,427.2635634988546,3.0,1.0,phase_2,go,50.0,0.0,1.0,,,,,,,,,gray,diamond
0.0,7.0,3.0,1.0,5.0,5.0,452.0857464522123,3.0,1.0,phase_2,stop,50.0,0.0,3.0,,,,,,,,,cyan,flipped triangle
0.0,2.0,2.0,0.0,6.0,6.0,489.7200521081686,3.0,1.0,phase_2,go,0.0,0.0,1.0,,,,,,,,,white,I
0.0,4.0,4.0,0.0,5.0,5.0,658.6641259491444,3.0,1.0,phase_2,go,0.0,0.0,1.0,,,,,,,,,green,cross
0.0,6.0,2.0,1.0,5.0,5.0,312.1547251939773,3.0,1.0,phase_2,go,0.0,0.0,1.0,,,,,,,,,magenta,triangle
0.0,8.0,4.0,1.0,5.0,5.0,262.4389249831438,3.0,1.0,phase_2,stop,0.0,0.0,3.0,,,,,,,,,blue,hexagon
0.0,2.0,2.0,0.0,5.0,5.0,478.7831399589777,3.0,1.0,phase_2,go,0.0,0.0,1.0,,,,,,,,,white,I
0.0,7.0,3.0,1.0,6.0,6.0,238.4132277220487,3.0,1.0,phase_2,stop,0.0,0.0,3.0,,,,,,,,,cyan,flipped triangle
0.0,2.0,2.0,0.0,5.0,5.0,575.5457617342472,3.0,1.0,phase_2,go,0.0,0.0,1.0,,,,,,,,,white,I
0.0,6.0,2.0,1.0,6.0,6.0,296.378681436181,3.0,1.0,phase_2,stop,0.0,0.0,3.0,,,,,,,,,magenta,triangle
0.0,4.0,4.0,0.0,5.0,5.0,318.3931671082973,3.0,1.0,phase_2,go,0.0,0.0,1.0,,,,,,,,,green,cross
0.0,5.0,1.0,1.0,6.0,6.0,309.586439281702,3.0,1.0,phase_2,stop,0.0,0.0,3.0,,,,,,,,,orange,square
0.0,6.0,2.0,1.0,5.0,0.0,0.0,3.0,1.0,phase_2,stop,0.0,0.0,4.0,,,,,,,,,magenta,triangle
0.0,3.0,3.0,0.0,6.0,6.0,626.3118367642164,3.0,1.0,phase_2,go,50.0,0.0,1.0,,,,,,,,,yellow,circle
0.0,4.0,4.0,0.0,6.0,6.0,364.3973674625158,3.0,1.0,phase_2,go,50.0,0.0,1.0,,,,,,,,,green,cross
0.0,6.0,2.0,1.0,5.0,5.0,483.090428635478,3.0,1.0,phase_2,go,50.0,0.0,1.0,,,,,,,,,magenta,triangle
0.0,7.0,3.0,1.0,6.0,6.0,345.2596981078386,3.0,1.0,phase_2,stop,50.0,0.0,3.0,,,,,,,,,cyan,flipped triangle
0.0,8.0,4.0,1.0,5.0,5.0,424.6103353798389,3.0,1.0,phase_2,stop,50.0,0.0,3.0,,,,,,,,,blue,hexagon
0.0,7.0,3.0,1.0,6.0,0.0,0.0,3.0,1.0,phase_2,stop,0.0,0.0,4.0,,,,,,,,,cyan,flipped triangle
0.0,1.0,1.0,0.0,6.0,0.0,0.0,3.0,1.0,phase_2,go,0.0,50.0,5.0,,,,,,,,,gray,diamond
0.0,7.0,3.0,1.0,5.0,5.0,401.6184285283088,3.0,1.0,phase_2,stop,0.0,50.0,3.0,,,,,,,,,cyan,flipped triangle
0.0,5.0,1.0,1.0,5.0,5.0,389.8815996944904,3.0,1.0,phase_2,stop,0.0,50.0,3.0,,,,,,,,,orange,square
0.0,4.0,4.0,0.0,5.0,5.0,445.9155611693859,3.0,1.0,phase_2,go,0.0,50.0,1.0,,,,,,,,,green,cross
0.0,7.0,3.0,1.0,6.0,6.0,430.7772293686867,3.0,1.0,phase_2,go,0.0,50.0,1.0,,,,,,,,,cyan,flipped triangle
0.0,6.0,2.0,1.0,5.0,5.0,350.1759208738804,3.0,1.0,phase_2,stop,0.0,50.0,3.0,,,,,,,,,magenta,triangle
0.0,5.0,1.0,1.0,5.0,5.0,311.8429109454155,3.0,1.0,phase_2,stop,0.0,50.0,3.0,,,,,,,,,orange,square
0.0,1.0,1.0,0.0,6.0,6.0,466.6217993944883,4.0,1.0,phase_2,go,0.0,50.0,1.0,,,,,,,,,gray,diamond
0.0,5.0,1.0,1.0,6.0,6.0,304.9019165337086,4.0,1.0,phase_2,go,0.0,50.0,1.0,,,,,,,,,orange,square
0.0,2.0,2.0,0.0,6.0,6.0,265.9549433737993,4.0,1.0,phase_2,go,0.0,50.0,1.0,,,,,,,,,white,I
0.0,1.0,1.0,0.0,6.0,6.0,278.0588325113058,4.0,1.0,phase_2,go,0.0,50.0,1.0,,,,,,,,,gray,diamond
0.0,6.0,2.0,1.0,5.0,5.0,326.2010719627142,4.0,1.0,phase_2,stop,0.0,50.0,3.0,,,,,,,,,magenta,triangle
0.0,2.0,2.0,0.0,6.0,6.0,740.5911963433027,4.0,1.0,phase_2,go,0.0,50.0,1.0,,,,,,,,,white,I
0.0,5.0,1.0,1.0,5.0,5.0,215.2603678405285,4.0,1.0,phase_2,stop,0.0,50.0,3.0,,,,,,,,,orange,square
0.0,5.0,1.0,1.0,6.0,6.0,246.2036926299333,4.0,1.0,phase_2,stop,0.0,50.0,3.0,,,,,,,,,orange,square
0.0,6.0,2.0,1.0,5.0,5.0,237.3359277844429,4.0,1.0,phase_2,stop,0.0,0.0,3.0,,,,,,,,,magenta,triangle
0.0,4.0,4.0,0.0,5.0,5.0,443.6972513794899,4.0,1.0,phase_2,go,0.0,0.0,1.0,,,,,,,,,green,cross
0.0,7.0,3.0,1.0,6.0,0.0,0.0,4.0,1.0,phase_2,stop,0.0,0.0,4.0,,,,,,,,,cyan,flipped triangle
0.0,5.0,1.0,1.0,5.0,0.0,0.0,4.0,1.0,phase_2,stop,0.0,50.0,4.0,,,,,,,,,orange,square
0.0,5.0,1.0,1.0,5.0,5.0,315.64505957067007,4.0,1.0,phase_2,go,50.0,50.0,1.0,,,,,,,,,orange,square
0.0,6.0,2.0,1.0,5.0,0.0,0.0,4.0,1.0,phase_2,stop,50.0,50.0,4.0,,,,,,,,,magenta,triangle
0.0,7.0,3.0,1.0,6.0,0.0,0.0,4.0,1.0,phase_2,stop,100.0,50.0,4.0,,,,,,,,,cyan,flipped triangle
0.0,1.0,1.0,0.0,6.0,6.0,250.1755729317665,4.0,1.0,phase_2,go,100.0,100.0,1.0,,,,,,,,,gray,diamond
0.0,8.0,4.0,1.0,5.0,5.0,256.4786747097969,4.0,1.0,phase_2,stop,100.0,100.0,3.0,,,,,,,,,blue,hexagon
0.0,6.0,2.0,1.0,6.0,6.0,270.3800201416015,4.0,1.0,phase_2,stop,50.0,100.0,3.0,,,,,,,,,magenta,triangle
0.0,1.0,1.0,0.0,6.0,6.0,342.5570763647556,4.0,1.0,phase_2,go,50.0,50.0,1.0,,,,,,,,,gray,diamond
0.0,1.0,1.0,0.0,5.0,5.0,309.147834777832,4.0,1.0,phase_2,go,50.0,50.0,1.0,,,,,,,,,gray,diamond
0.0,1.0,1.0,0.0,6.0,6.0,344.0240118652582,4.0,1.0,phase_2,go,50.0,50.0,1.0,,,,,,,,,gray,diamond
0.0,6.0,2.0,1.0,6.0,6.0,220.1928850263357,4.0,1.0,phase_2,stop,50.0,50.0,3.0,,,,,,,,,magenta,triangle
0.0,3.0,3.0,0.0,5.0,5.0,731.6701859235764,4.0,1.0,phase_2,go,50.0,0.0,1.0,,,,,,,,,yellow,circle
0.0,2.0,2.0,0.0,6.0,6.0,414.2535552382469,4.0,1.0,phase_2,go,50.0,0.0,1.0,,,,,,,,,white,I
0.0,3.0,3.0,0.0,6.0,6.0,442.3728547990322,4.0,1.0,phase_2,go,50.0,0.0,1.0,,,,,,,,,yellow,circle
0.0,8.0,4.0,1.0,6.0,6.0,250.3533381968736,4.0,1.0,phase_2,stop,50.0,0.0,3.0,,,,,,,,,blue,hexagon
0.0,6.0,2.0,1.0,6.0,6.0,364.5376451313495,4.0,1.0,phase_2,stop,50.0,0.0,3.0,,,,,,,,,magenta,triangle
0.0,3.0,3.0,0.0,5.0,5.0,340.978492051363,4.0,1.0,phase_2,go,50.0,0.0,1.0,,,,,,,,,yellow,circle
0.0,3.0,3.0,0.0,6.0,6.0,473.3293522149324,4.0,1.0,phase_2,go,50.0,0.0,1.0,,,,,,,,,yellow,circle
0.0,4.0,4.0,0.0,6.0,6.0,426.1428397148847,4.0,1.0,phase_2,go,50.0,0.0,1.0,,,,,,,,,green,cross
0.0,4.0,4.0,0.0,6.0,6.0,346.748324111104,4.0,1.0,phase_2,go,50.0,0.0,1.0,,,,,,,,,green,cross
0.0,8.0,4.0,1.0,5.0,5.0,294.7182767093181,4.0,1.0,phase_2,go,50.0,0.0,1.0,,,,,,,,,blue,hexagon
0.0,1.0,1.0,0.0,6.0,6.0,431.0591332614422,4.0,1.0,phase_2,go,50.0,0.0,1.0,,,,,,,,,gray,diamond
0.0,7.0,3.0,1.0,5.0,5.0,303.6956395953893,4.0,1.0,phase_2,stop,50.0,0.0,3.0,,,,,,,,,cyan,flipped triangle
0.0,7.0,3.0,1.0,5.0,5.0,317.6237288862467,4.0,1.0,phase_2,stop,0.0,0.0,3.0,,,,,,,,,cyan,flipped triangle
0.0,7.0,3.0,1.0,6.0,6.0,372.8576228022575,4.0,1.0,phase_2,stop,0.0,0.0,3.0,,,,,,,,,cyan,flipped triangle
0.0,3.0,3.0,0.0,5.0,5.0,338.8557452708483,5.0,1.0,phase_2,go,0.0,0.0,1.0,,,,,,,,,yellow,circle
0.0,6.0,2.0,1.0,6.0,6.0,207.5771689414978,5.0,1.0,phase_2,stop,0.0,0.0,3.0,,,,,,,,,magenta,triangle
0.0,1.0,1.0,0.0,5.0,5.0,255.49865886569017,5.0,1.0,phase_2,go,0.0,0.0,1.0,,,,,,,,,gray,diamond
0.0,5.0,1.0,1.0,6.0,6.0,224.44280982017509,5.0,1.0,phase_2,stop,0.0,0.0,3.0,,,,,,,,,orange,square
0.0,4.0,4.0,0.0,6.0,6.0,342.5154890865087,5.0,1.0,phase_2,go,0.0,0.0,1.0,,,,,,,,,green,cross
0.0,4.0,4.0,0.0,5.0,5.0,213.19927833974359,5.0,1.0,phase_2,go,0.0,0.0,1.0,,,,,,,,,green,cross
0.0,7.0,3.0,1.0,6.0,0.0,0.0,5.0,1.0,phase_2,stop,0.0,0.0,4.0,,,,,,,,,cyan,flipped triangle
0.0,3.0,3.0,0.0,5.0,5.0,349.6353328227997,5.0,1.0,phase_2,go,0.0,50.0,1.0,,,,,,,,,yellow,circle
0.0,4.0,4.0,0.0,5.0,6.0,476.5254352241754,5.0,1.0,phase_2,go,0.0,50.0,2.0,,,,,,,,,green,cross
0.0,2.0,2.0,0.0,6.0,6.0,341.1502223461866,5.0,1.0,phase_2,go,0.0,50.0,1.0,,,,,,,,,white,I
0.0,4.0,4.0,0.0,5.0,5.0,353.211423382163,5.0,1.0,phase_2,go,0.0,50.0,1.0,,,,,,,,,green,cross
0.0,4.0,4.0,0.0,5.0,5.0,434.7859434783458,5.0,1.0,phase_2,go,0.0,50.0,1.0,,,,,,,,,green,cross
0.0,2.0,2.0,0.0,5.0,5.0,508.1234313547611,5.0,1.0,phase_2,go,0.0,50.0,1.0,,,,,,,,,white,I
0.0,6.0,2.0,1.0,6.0,6.0,355.8096997439861,5.0,1.0,phase_2,stop,0.0,50.0,3.0,,,,,,,,,magenta,triangle
0.0,1.0,1.0,0.0,6.0,6.0,650.2173654735088,5.0,1.0,phase_2,go,0.0,0.0,1.0,,,,,,,,,gray,diamond
0.0,8.0,4.0,1.0,5.0,6.0,369.729183614254,5.0,1.0,phase_2,stop,0.0,0.0,3.0,,,,,,,,,blue,hexagon
0.0,1.0,1.0,0.0,5.0,5.0,431.2209505587816,5.0,1.0,phase_2,go,0.0,0.0,1.0,,,,,,,,,gray,diamond
0.0,8.0,4.0,1.0,5.0,5.0,294.2201718688011,5.0,1.0,phase_2,stop,0.0,0.0,3.0,,,,,,,,,blue,hexagon
0.0,1.0,1.0,0.0,5.0,5.0,773.2132468372583,5.0,1.0,phase_2,go,0.0,0.0,1.0,,,,,,,,,gray,diamond
0.0,1.0,1.0,0.0,5.0,5.0,359.481580555439,5.0,1.0,phase_2,go,0.0,0.0,1.0,,,,,,,,,gray,diamond
0.0,6.0,2.0,1.0,5.0,5.0,275.5888067185879,5.0,1.0,phase_2,stop,0.0,0.0,3.0,,,,,,,,,magenta,triangle
0.0,8.0,4.0,1.0,5.0,5.0,386.9998957961797,5.0,1.0,phase_2,stop,0.0,0.0,3.0,,,,,,,,,blue,hexagon
0.0,3.0,3.0,0.0,6.0,6.0,923.4286360442638,5.0,1.0,phase_2,go,0.0,0.0,1.0,,,,,,,,,yellow,circle
0.0,7.0,3.0,1.0,6.0,6.0,500.91286934912205,5.0,1.0,phase_2,go,0.0,0.0,1.0,,,,,,,,,cyan,flipped triangle
0.0,8.0,4.0,1.0,5.0,5.0,365.899970754981,5.0,1.0,phase_2,stop,0.0,0.0,3.0,,,,,,,,,blue,hexagon
0.0,5.0,1.0,1.0,5.0,5.0,345.9151834249496,5.0,1.0,phase_2,stop,0.0,0.0,3.0,,,,,,,,,orange,square
0.0,3.0,3.0,0.0,5.0,6.0,882.5389035046101,5.0,1.0,phase_2,go,0.0,0.0,2.0,,,,,,,,,yellow,circle
0.0,5.0,1.0,1.0,5.0,5.0,568.4310477226973,5.0,1.0,phase_2,stop,0.0,0.0,3.0,,,,,,,,,orange,square
0.0,7.0,3.0,1.0,5.0,5.0,330.9906292706728,5.0,1.0,phase_2,go,0.0,0.0,1.0,,,,,,,,,cyan,flipped triangle
0.0,8.0,4.0,1.0,6.0,6.0,414.8208498954773,5.0,1.0,phase_2,go,0.0,0.0,1.0,,,,,,,,,blue,hexagon
0.0,3.0,3.0,0.0,6.0,6.0,336.7174435406923,5.0,1.0,phase_2,go,0.0,0.0,1.0,,,,,,,,,yellow,circle
0.0,5.0,1.0,1.0,6.0,6.0,392.7007559686899,5.0,1.0,phase_2,stop,0.0,0.0,3.0,,,,,,,,,orange,square
0.0,8.0,4.0,1.0,5.0,5.0,337.4528158456087,5.0,1.0,phase_2,stop,0.0,0.0,3.0,,,,,,,,,blue,hexagon
0.0,6.0,2.0,1.0,6.0,6.0,252.4353712797165,5.0,1.0,phase_2,stop,0.0,0.0,3.0,,,,,,,,,magenta,triangle
0.0,1.0,1.0,0.0,5.0,5.0,444.9012503027916,5.0,1.0,phase_2,go,0.0,0.0,1.0,,,,,,,,,gray,diamond
0.0,4.0,4.0,0.0,6.0,6.0,452.1470852196216,5.0,1.0,phase_2,go,0.0,0.0,1.0,,,,,,,,,green,cross
0.0,2.0,2.0,0.0,5.0,5.0,279.7511927783489,6.0,1.0,phase_2,go,0.0,0.0,1.0,,,,,,,,,white,I
0.0,5.0,1.0,1.0,5.0,5.0,336.4380169659853,6.0,1.0,phase_2,stop,0.0,0.0,3.0,,,,,,,,,orange,square
0.0,1.0,1.0,0.0,5.0,5.0,470.8617944270372,6.0,1.0,phase_2,go,0.0,0.0,1.0,,,,,,,,,gray,diamond
0.0,4.0,4.0,0.0,6.0,6.0,390.8506873995065,6.0,1.0,phase_2,go,0.0,0.0,1.0,,,,,,,,,green,cross
0.0,4.0,4.0,0.0,5.0,5.0,382.7425446361303,6.0,1.0,phase_2,go,0.0,0.0,1.0,,,,,,,,,green,cross
0.0,7.0,3.0,1.0,6.0,6.0,237.8663420677185,6.0,1.0,phase_2,stop,0.0,0.0,3.0,,,,,,,,,cyan,flipped triangle
0.0,7.0,3.0,1.0,6.0,0.0,0.0,6.0,1.0,phase_2,stop,0.0,0.0,4.0,,,,,,,,,cyan,flipped triangle
0.0,3.0,3.0,0.0,6.0,6.0,566.458273679018,6.0,1.0,phase_2,go,0.0,50.0,1.0,,,,,,,,,yellow,circle
0.0,4.0,4.0,0.0,5.0,5.0,308.9506067335605,6.0,1.0,phase_2,go,0.0,50.0,1.0,,,,,,,,,green,cross
0.0,1.0,1.0,0.0,6.0,6.0,333.8353261351585,6.0,1.0,phase_2,go,0.0,50.0,1.0,,,,,,,,,gray,diamond
0.0,1.0,1.0,0.0,5.0,5.0,442.1175587922334,6.0,1.0,phase_2,go,0.0,50.0,1.0,,,,,,,,,gray,diamond
0.0,6.0,2.0,1.0,6.0,6.0,640.856996178627,6.0,1.0,phase_2,go,0.0,50.0,1.0,,,,,,,,,magenta,triangle
0.0,4.0,4.0,0.0,6.0,6.0,648.8613802939653,6.0,1.0,phase_2,go,0.0,50.0,1.0,,,,,,,,,green,cross
0.0,2.0,2.0,0.0,6.0,6.0,480.0675548613071,6.0,1.0,phase_2,go,0.0,50.0,1.0,,,,,,,,,white,I
0.0,7.0,3.0,1.0,5.0,5.0,319.0206885337829,6.0,1.0,phase_2,stop,0.0,50.0,3.0,,,,,,,,,cyan,flipped triangle
0.0,3.0,3.0,0.0,5.0,5.0,662.5042166560888,6.0,1.0,phase_2,go,0.0,50.0,1.0,,,,,,,,,yellow,circle
0.0,8.0,4.0,1.0,6.0,6.0,416.8811906129122,6.0,1.0,phase_2,go,0.0,50.0,1.0,,,,,,,,,blue,hexagon
0.0,8.0,4.0,1.0,5.0,0.0,0.0,6.0,1.0,phase_2,stop,0.0,50.0,4.0,,,,,,,,,blue,hexagon
0.0,6.0,2.0,1.0,6.0,0.0,0.0,6.0,1.0,phase_2,stop,50.0,50.0,4.0,,,,,,,,,magenta,triangle
0.0,5.0,1.0,1.0,5.0,5.0,572.6798959076405,6.0,1.0,phase_2,go,50.0,100.0,1.0,,,,,,,,,orange,square
0.0,8.0,4.0,1.0,5.0,0.0,0.0,6.0,1.0,phase_2,stop,50.0,100.0,4.0,,,,,,,,,blue,hexagon
0.0,4.0,4.0,0.0,6.0,6.0,627.2348444908857,6.0,1.0,phase_2,go,100.0,100.0,1.0,,,,,,,,,green,cross
0.0,7.0,3.0,1.0,6.0,6.0,335.0362479686737,6.0,1.0,phase_2,stop,100.0,100.0,3.0,,,,,,,,,cyan,flipped triangle
0.0,8.0,4.0,1.0,5.0,5.0,466.683691367507,6.0,1.0,phase_2,go,100.0,50.0,1.0,,,,,,,,,blue,hexagon
0.0,5.0,1.0,1.0,6.0,6.0,1043.7255315482616,6.0,1.0,phase_2,stop,100.0,50.0,3.0,,,,,,,,,orange,square
0.0,2.0,2.0,0.0,6.0,6.0,772.1656393259764,6.0,1.0,phase_2,go,100.0,0.0,1.0,,,,,,,,,white,I
0.0,4.0,4.0,0.0,5.0,5.0,433.668764308095,6.0,1.0,phase_2,go,100.0,0.0,1.0,,,,,,,,,green,cross
0.0,2.0,2.0,0.0,6.0,6.0,306.7408986389637,6.0,1.0,phase_2,go,100.0,0.0,1.0,,,,,,,,,white,I
0.0,1.0,1.0,0.0,5.0,5.0,491.6499741375446,6.0,1.0,phase_2,go,100.0,0.0,1.0,,,,,,,,,gray,diamond
0.0,6.0,2.0,1.0,5.0,5.0,393.2700026780367,6.0,1.0,phase_2,stop,100.0,0.0,3.0,,,,,,,,,magenta,triangle
0.0,7.0,3.0,1.0,6.0,0.0,0.0,6.0,1.0,phase_2,stop,50.0,0.0,4.0,,,,,,,,,cyan,flipped triangle
0.0,3.0,3.0,0.0,5.0,5.0,567.3790108412504,6.0,1.0,phase_2,go,50.0,50.0,1.0,,,,,,,,,yellow,circle
0.0,2.0,2.0,0.0,5.0,5.0,373.2308000326156,6.0,1.0,phase_2,go,50.0,50.0,1.0,,,,,,,,,white,I
0.0,4.0,4.0,0.0,5.0,5.0,420.9153074771166,6.0,1.0,phase_2,go,50.0,50.0,1.0,,,,,,,,,green,cross
0.0,2.0,2.0,0.0,6.0,6.0,367.0302405953407,6.0,1.0,phase_2,go,50.0,50.0,1.0,,,,,,,,,white,I
0.0,2.0,2.0,0.0,6.0,6.0,387.7767566591501,6.0,1.0,phase_2,go,50.0,50.0,1.0,,,,,,,,,white,I
0.0,8.0,4.0,1.0,5.0,5.0,880.3276401013136,7.0,1.0,phase_2,go,50.0,50.0,1.0,,,,,,,,,blue,hexagon
0.0,6.0,2.0,1.0,5.0,5.0,429.4321592897177,7.0,1.0,phase_2,stop,50.0,50.0,3.0,,,,,,,,,magenta,triangle
0.0,1.0,1.0,0.0,5.0,5.0,981.5159533172846,7.0,1.0,phase_2,go,0.0,50.0,1.0,,,,,,,,,gray,diamond
0.0,4.0,4.0,0.0,5.0,5.0,510.2125685662031,7.0,1.0,phase_2,go,0.0,50.0,1.0,,,,,,,,,green,cross
0.0,2.0,2.0,0.0,5.0,5.0,509.805915877223,7.0,1.0,phase_2,go,0.0,50.0,1.0,,,,,,,,,white,I
0.0,6.0,2.0,1.0,5.0,5.0,893.0506892502308,7.0,1.0,phase_2,go,0.0,50.0,1.0,,,,,,,,,magenta,triangle
0.0,5.0,1.0,1.0,5.0,5.0,418.4562917798757,7.0,1.0,phase_2,stop,0.0,50.0,3.0,,,,,,,,,orange,square
0.0,3.0,3.0,0.0,6.0,6.0,675.3576379269361,7.0,1.0,phase_2,go,0.0,50.0,1.0,,,,,,,,,yellow,circle
0.0,5.0,1.0,1.0,5.0,0.0,0.0,7.0,1.0,phase_2,stop,0.0,50.0,4.0,,,,,,,,,orange,square
0.0,4.0,4.0,0.0,6.0,6.0,658.1430844962597,7.0,1.0,phase_2,go,50.0,50.0,1.0,,,,,,,,,green,cross
0.0,1.0,1.0,0.0,6.0,6.0,514.5829189568758,7.0,1.0,phase_2,go,50.0,50.0,1.0,,,,,,,,,gray,diamond
0.0,6.0,2.0,1.0,6.0,6.0,735.1662665605545,7.0,1.0,phase_2,go,50.0,50.0,1.0,,,,,,,,,magenta,triangle
0.0,4.0,4.0,0.0,6.0,6.0,650.5450680851936,7.0,1.0,phase_2,go,50.0,50.0,1.0,,,,,,,,,green,cross
0.0,8.0,4.0,1.0,6.0,6.0,422.4045425653457,7.0,1.0,phase_2,stop,50.0,50.0,3.0,,,,,,,,,blue,hexagon
0.0,4.0,4.0,0.0,5.0,5.0,785.4485269635916,7.0,1.0,phase_2,go,50.0,0.0,1.0,,,,,,,,,green,cross
0.0,8.0,4.0,1.0,6.0,6.0,660.4981943964958,7.0,1.0,phase_2,stop,50.0,0.0,3.0,,,,,,,,,blue,hexagon
0.0,2.0,2.0,0.0,5.0,5.0,654.6543259173632,7.0,1.0,phase_2,go,50.0,0.0,1.0,,,,,,,,,white,I
0.0,3.0,3.0,0.0,6.0,6.0,564.8161973804235,7.0,1.0,phase_2,go,50.0,0.0,1.0,,,,,,,,,yellow,circle
0.0,1.0,1.0,0.0,5.0,5.0,315.1057139039039,7.0,1.0,phase_2,go,50.0,0.0,1.0,,,,,,,,,gray,diamond
0.0,1.0,1.0,0.0,6.0,6.0,258.6712818592787,7.0,1.0,phase_2,go,50.0,0.0,1.0,,,,,,,,,gray,diamond
0.0,2.0,2.0,0.0,6.0,6.0,265.9726310521364,7.0,1.0,phase_2,go,50.0,0.0,1.0,,,,,,,,,white,I
0.0,2.0,2.0,0.0,5.0,5.0,457.8869864344597,7.0,1.0,phase_2,go,50.0,0.0,1.0,,,,,,,,,white,I
0.0,8.0,4.0,1.0,6.0,6.0,274.8373690992594,7.0,1.0,phase_2,stop,50.0,0.0,3.0,,,,,,,,,blue,hexagon
0.0,2.0,2.0,0.0,6.0,6.0,409.959327429533,7.0,1.0,phase_2,go,50.0,0.0,1.0,,,,,,,,,white,I
0.0,8.0,4.0,1.0,6.0,6.0,391.5318436920643,7.0,1.0,phase_2,go,50.0,0.0,1.0,,,,,,,,,blue,hexagon
0.0,4.0,4.0,0.0,5.0,5.0,600.0859886407852,7.0,1.0,phase_2,go,50.0,0.0,1.0,,,,,,,,,green,cross
0.0,7.0,3.0,1.0,5.0,5.0,537.0457861572504,7.0,1.0,phase_2,go,50.0,0.0,1.0,,,,,,,,,cyan,flipped triangle
0.0,6.0,2.0,1.0,6.0,6.0,375.3693271428346,7.0,1.0,phase_2,stop,50.0,0.0,3.0,,,,,,,,,magenta,triangle
0.0,5.0,1.0,1.0,6.0,6.0,469.7525799274444,7.0,1.0,phase_2,stop,50.0,0.0,3.0,,,,,,,,,orange,square
0.0,3.0,3.0,0.0,5.0,5.0,696.8144364655018,7.0,1.0,phase_2,go,50.0,0.0,1.0,,,,,,,,,yellow,circle
0.0,1.0,1.0,0.0,5.0,5.0,692.5724446773529,7.0,1.0,phase_2,go,50.0,0.0,1.0,,,,,,,,,gray,diamond
0.0,7.0,3.0,1.0,6.0,0.0,0.0,7.0,1.0,phase_2,stop,50.0,0.0,4.0,,,,,,,,,cyan,flipped triangle
0.0,7.0,3.0,1.0,5.0,0.0,0.0,7.0,1.0,phase_2,stop,50.0,50.0,4.0,,,,,,,,,cyan,flipped triangle
0.0,2.0,2.0,0.0,5.0,5.0,557.312136515975,7.0,1.0,phase_2,go,100.0,50.0,1.0,,,,,,,,,white,I
0.0,2.0,2.0,0.0,6.0,6.0,610.7649933546782,7.0,1.0,phase_2,go,100.0,50.0,1.0,,,,,,,,,white,I
0.0,4.0,4.0,0.0,6.0,6.0,476.8760688602924,7.0,1.0,phase_2,go,100.0,50.0,1.0,,,,,,,,,green,cross
0.0,6.0,2.0,1.0,5.0,5.0,270.0836360454559,8.0,1.0,phase_2,go,100.0,50.0,1.0,,,,,,,,,magenta,triangle
0.0,6.0,2.0,1.0,6.0,6.0,439.2674081027508,8.0,1.0,phase_2,stop,100.0,50.0,3.0,,,,,,,,,magenta,triangle
0.0,8.0,4.0,1.0,5.0,5.0,450.9468283504247,8.0,1.0,phase_2,go,100.0,0.0,1.0,,,,,,,,,blue,hexagon
0.0,5.0,1.0,1.0,6.0,6.0,405.6348800659179,8.0,1.0,phase_2,go,100.0,0.0,1.0,,,,,,,,,orange,square
0.0,1.0,1.0,0.0,6.0,6.0,596.9222970306873,8.0,1.0,phase_2,go,100.0,0.0,1.0,,,,,,,,,gray,diamond
0.0,5.0,1.0,1.0,5.0,5.0,323.6611355096102,8.0,1.0,phase_2,stop,100.0,0.0,3.0,,,,,,,,,orange,square
0.0,7.0,3.0,1.0,6.0,6.0,641.0254407674074,8.0,1.0,phase_2,go,50.0,0.0,1.0,,,,,,,,,cyan,flipped triangle
0.0,7.0,3.0,1.0,5.0,5.0,458.2443162798881,8.0,1.0,phase_2,stop,50.0,0.0,3.0,,,,,,,,,cyan,flipped triangle
0.0,5.0,1.0,1.0,6.0,0.0,0.0,8.0,1.0,phase_2,stop,0.0,0.0,4.0,,,,,,,,,orange,square
0.0,1.0,1.0,0.0,6.0,6.0,696.9491634517908,8.0,1.0,phase_2,go,0.0,50.0,1.0,,,,,,,,,gray,diamond
0.0,6.0,2.0,1.0,5.0,0.0,0.0,8.0,1.0,phase_2,stop,0.0,50.0,4.0,,,,,,,,,magenta,triangle
0.0,2.0,2.0,0.0,5.0,5.0,542.2849077731371,8.0,1.0,phase_2,go,50.0,50.0,1.0,,,,,,,,,white,I
0.0,4.0,4.0,0.0,5.0,5.0,496.7290759086609,8.0,1.0,phase_2,go,50.0,50.0,1.0,,,,,,,,,green,cross
0.0,1.0,1.0,0.0,6.0,6.0,568.7249917536974,8.0,1.0,phase_2,go,50.0,50.0,1.0,,,,,,,,,gray,diamond
0.0,1.0,1.0,0.0,6.0,6.0,488.0905374884605,8.0,1.0,phase_2,go,50.0,50.0,1.0,,,,,,,,,gray,diamond
0.0,4.0,4.0,0.0,6.0,6.0,485.8671631664037,8.0,1.0,phase_2,go,50.0,50.0,1.0,,,,,,,,,green,cross
0.0,7.0,3.0,1.0,5.0,5.0,253.5915002226829,8.0,1.0,phase_2,go,50.0,50.0,1.0,,,,,,,,,cyan,flipped triangle
0.0,5.0,1.0,1.0,6.0,6.0,325.4370056092739,8.0,1.0,phase_2,stop,50.0,50.0,3.0,,,,,,,,,orange,square
0.0,1.0,1.0,0.0,6.0,6.0,781.0095846652985,8.0,1.0,phase_2,go,50.0,0.0,1.0,,,,,,,,,gray,diamond
0.0,2.0,2.0,0.0,5.0,5.0,484.1802436858415,8.0,1.0,phase_2,go,50.0,0.0,1.0,,,,,,,,,white,I
0.0,3.0,3.0,0.0,5.0,5.0,426.9066080451011,8.0,1.0,phase_2,go,50.0,0.0,1.0,,,,,,,,,yellow,circle
0.0,3.0,3.0,0.0,6.0,6.0,266.4374001324177,8.0,1.0,phase_2,go,50.0,0.0,1.0,,,,,,,,,yellow,circle
0.0,5.0,1.0,1.0,6.0,0.0,0.0,8.0,1.0,phase_2,stop,50.0,0.0,4.0,,,,,,,,,orange,square
0.0,7.0,3.0,1.0,5.0,5.0,626.4748461544514,8.0,1.0,phase_2,go,50.0,50.0,1.0,,,,,,,,,cyan,flipped triangle
0.0,5.0,1.0,1.0,6.0,0.0,0.0,8.0,1.0,phase_2,stop,50.0,50.0,4.0,,,,,,,,,orange,square
0.0,5.0,1.0,1.0,5.0,5.0,489.2515037208795,8.0,1.0,phase_2,stop,50.0,100.0,3.0,,,,,,,,,orange,square
0.0,4.0,4.0,0.0,6.0,6.0,569.7887782007456,8.0,1.0,phase_2,go,0.0,100.0,1.0,,,,,,,,,green,cross
0.0,3.0,3.0,0.0,5.0,5.0,445.739621296525,8.0,1.0,phase_2,go,0.0,100.0,1.0,,,,,,,,,yellow,circle
0.0,5.0,1.0,1.0,6.0,0.0,0.0,8.0,1.0,phase_2,stop,0.0,100.0,4.0,,,,,,,,,orange,square
0.0,7.0,3.0,1.0,5.0,5.0,405.0242453813553,8.0,1.0,phase_2,stop,0.0,150.0,3.0,,,,,,,,,cyan,flipped triangle
0.0,8.0,4.0,1.0,5.0,5.0,446.3157542049885,8.0,1.0,phase_2,go,0.0,150.0,1.0,,,,,,,,,blue,hexagon
0.0,8.0,4.0,1.0,6.0,0.0,0.0,8.0,1.0,phase_2,stop,0.0,150.0,4.0,,,,,,,,,blue,hexagon
0.0,7.0,3.0,1.0,5.0,0.0,0.0,8.0,1.0,phase_2,stop,0.0,200.0,4.0,,,,,,,,,cyan,flipped triangle
0.0,2.0,2.0,0.0,6.0,6.0,621.78148701787,8.0,1.0,phase_2,go,50.0,200.0,1.0,,,,,,,,,white,I
0.0,1.0,1.0,0.0,5.0,5.0,629.6658366918564,8.0,1.0,phase_2,go,50.0,200.0,1.0,,,,,,,,,gray,diamond
0.0,8.0,4.0,1.0,5.0,5.0,453.1556852161884,8.0,1.0,phase_2,stop,50.0,200.0,3.0,,,,,,,,,blue,hexagon
0.0,4.0,4.0,0.0,7.0,2.0,2281.64479136467,1.0,1.0,phase_3,,,,,117.0,3.0,39.0,117.0,78.0,234.0,156.0,195.0,green,cross
0.0,3.0,3.0,0.0,7.0,2.0,2758.007049560547,1.0,1.0,phase_3,,,,,204.0,6.0,34.0,204.0,170.0,68.0,136.0,102.0,yellow,circle
0.0,1.0,1.0,0.0,7.0,5.0,3159.8159298300743,1.0,1.0,phase_3,,,,,102.0,3.0,170.0,204.0,68.0,34.0,102.0,136.0,gray,diamond
0.0,7.0,3.0,1.0,7.0,3.0,1653.224866837263,1.0,1.0,phase_3,,,,,88.0,2.0,44.0,132.0,88.0,176.0,264.0,220.0,cyan,flipped triangle
0.0,8.0,4.0,1.0,7.0,1.0,2265.8680081367493,1.0,1.0,phase_3,,,,,204.0,6.0,204.0,68.0,170.0,136.0,102.0,34.0,blue,hexagon
0.0,3.0,3.0,0.0,7.0,5.0,3051.074404269457,1.0,1.0,phase_3,,,,,176.0,4.0,132.0,264.0,220.0,88.0,176.0,44.0,yellow,circle
0.0,7.0,3.0,1.0,7.0,5.0,1989.494290202856,1.0,1.0,phase_3,,,,,245.0,5.0,147.0,294.0,49.0,98.0,245.0,196.0,cyan,flipped triangle
0.0,6.0,2.0,1.0,7.0,1.0,3173.6729741096497,1.0,1.0,phase_3,,,,,117.0,3.0,117.0,195.0,234.0,39.0,156.0,78.0,magenta,triangle
0.0,7.0,3.0,1.0,7.0,1.0,3812.549775466323,1.0,1.0,phase_3,,,,,156.0,4.0,156.0,234.0,78.0,39.0,195.0,117.0,cyan,flipped triangle
0.0,2.0,2.0,0.0,7.0,5.0,2381.534421816468,1.0,1.0,phase_3,,,,,220.0,5.0,88.0,264.0,176.0,44.0,220.0,132.0,white,I
0.0,7.0,3.0,1.0,7.0,4.0,2438.504857942462,1.0,1.0,phase_3,,,,,156.0,4.0,234.0,195.0,117.0,156.0,78.0,39.0,cyan,flipped triangle
0.0,2.0,2.0,0.0,7.0,3.0,3752.4933498352766,1.0,1.0,phase_3,,,,,216.0,4.0,162.0,54.0,216.0,270.0,108.0,324.0,white,I
0.0,3.0,3.0,0.0,7.0,6.0,2283.4709361195564,1.0,1.0,phase_3,,,,,54.0,1.0,108.0,216.0,162.0,270.0,324.0,54.0,yellow,circle
0.0,8.0,4.0,1.0,7.0,1.0,2691.277783364057,1.0,1.0,phase_3,,,,,270.0,5.0,270.0,54.0,108.0,216.0,324.0,162.0,blue,hexagon
0.0,7.0,3.0,1.0,7.0,1.0,4380.543574690819,1.0,1.0,phase_3,,,,,270.0,5.0,270.0,108.0,216.0,162.0,324.0,54.0,cyan,flipped triangle
0.0,5.0,1.0,1.0,7.0,5.0,1607.6618395745754,1.0,1.0,phase_3,,,,,136.0,4.0,170.0,68.0,102.0,204.0,136.0,34.0,orange,square
0.0,3.0,3.0,0.0,7.0,4.0,2198.4931267797947,1.0,1.0,phase_3,,,,,132.0,3.0,44.0,264.0,176.0,132.0,220.0,88.0,yellow,circle
0.0,1.0,1.0,0.0,7.0,4.0,1522.582620382309,1.0,1.0,phase_3,,,,,34.0,1.0,170.0,102.0,204.0,34.0,68.0,136.0,gray,diamond
0.0,4.0,4.0,0.0,7.0,6.0,3115.4874078929424,1.0,1.0,phase_3,,,,,78.0,2.0,39.0,195.0,117.0,234.0,156.0,78.0,green,cross
0.0,2.0,2.0,0.0,7.0,4.0,3404.1469134390354,1.0,1.0,phase_3,,,,,216.0,4.0,54.0,270.0,162.0,216.0,108.0,324.0,white,I
0.0,5.0,1.0,1.0,7.0,6.0,968.9390566200018,2.0,1.0,phase_3,,,,,132.0,3.0,176.0,44.0,88.0,220.0,264.0,132.0,orange,square
0.0,5.0,1.0,1.0,7.0,4.0,1836.0911011695864,2.0,1.0,phase_3,,,,,117.0,3.0,195.0,156.0,234.0,117.0,39.0,78.0,orange,square
0.0,5.0,1.0,1.0,7.0,4.0,1803.310196846724,2.0,1.0,phase_3,,,,,108.0,2.0,324.0,216.0,270.0,108.0,162.0,54.0,orange,square
0.0,1.0,1.0,0.0,7.0,5.0,1703.0595876276493,2.0,1.0,phase_3,,,,,49.0,1.0,294.0,245.0,98.0,147.0,49.0,196.0,gray,diamond
0.0,3.0,3.0,0.0,7.0,6.0,1359.9078617990017,2.0,1.0,phase_3,,,,,195.0,5.0,234.0,117.0,78.0,156.0,39.0,195.0,yellow,circle
0.0,3.0,3.0,0.0,7.0,5.0,1640.2295976877213,2.0,1.0,phase_3,,,,,102.0,3.0,68.0,136.0,34.0,204.0,102.0,170.0,yellow,circle
0.0,3.0,3.0,0.0,7.0,2.0,1328.5370524972675,2.0,1.0,phase_3,,,,,147.0,3.0,245.0,147.0,49.0,98.0,196.0,294.0,yellow,circle
0.0,1.0,1.0,0.0,7.0,4.0,1490.7187074422836,2.0,1.0,phase_3,,,,,54.0,1.0,108.0,324.0,216.0,54.0,162.0,270.0,gray,diamond
0.0,2.0,2.0,0.0,7.0,4.0,1195.784455165267,2.0,1.0,phase_3,,,,,234.0,6.0,117.0,156.0,195.0,234.0,39.0,78.0,white,I
0.0,6.0,2.0,1.0,7.0,1.0,2126.154437661171,2.0,1.0,phase_3,,,,,156.0,4.0,156.0,195.0,78.0,39.0,234.0,117.0,magenta,triangle
0.0,6.0,2.0,1.0,7.0,2.0,1778.2888431102035,2.0,1.0,phase_3,,,,,176.0,4.0,220.0,176.0,44.0,264.0,88.0,132.0,magenta,triangle
0.0,6.0,2.0,1.0,7.0,6.0,1411.0498800873756,2.0,1.0,phase_3,,,,,170.0,5.0,102.0,68.0,136.0,34.0,204.0,170.0,magenta,triangle
0.0,7.0,3.0,1.0,7.0,2.0,1344.7582442313433,2.0,1.0,phase_3,,,,,176.0,4.0,264.0,176.0,132.0,44.0,88.0,220.0,cyan,flipped triangle
0.0,5.0,1.0,1.0,7.0,5.0,1274.973588064313,2.0,1.0,phase_3,,,,,98.0,2.0,196.0,49.0,245.0,147.0,98.0,294.0,orange,square
0.0,4.0,4.0,0.0,7.0,4.0,1107.6647564768791,2.0,1.0,phase_3,,,,,102.0,3.0,170.0,68.0,34.0,102.0,136.0,204.0,green,cross
0.0,4.0,4.0,0.0,7.0,4.0,1045.4070325940847,2.0,1.0,phase_3,,,,,196.0,4.0,147.0,49.0,98.0,196.0,294.0,245.0,green,cross
0.0,6.0,2.0,1.0,7.0,5.0,1593.2476427406073,2.0,1.0,phase_3,,,,,147.0,3.0,245.0,294.0,98.0,49.0,147.0,196.0,magenta,triangle
0.0,2.0,2.0,0.0,7.0,1.0,1114.8708276450634,2.0,1.0,phase_3,,,,,294.0,6.0,294.0,196.0,98.0,147.0,245.0,49.0,white,I
0.0,7.0,3.0,1.0,7.0,3.0,1796.0465736687183,2.0,1.0,phase_3,,,,,270.0,5.0,54.0,216.0,270.0,162.0,108.0,324.0,cyan,flipped triangle
0.0,4.0,4.0,0.0,7.0,5.0,1171.4863758534193,2.0,1.0,phase_3,,,,,136.0,4.0,34.0,170.0,102.0,204.0,136.0,68.0,green,cross
0.0,4.0,4.0,0.0,7.0,2.0,982.4653007090092,3.0,1.0,phase_3,,,,,162.0,3.0,216.0,162.0,108.0,270.0,324.0,54.0,green,cross
0.0,6.0,2.0,1.0,7.0,5.0,554.0181808173656,3.0,1.0,phase_3,,,,,49.0,1.0,196.0,98.0,147.0,245.0,49.0,294.0,magenta,triangle
0.0,5.0,1.0,1.0,7.0,2.0,777.462275698781,3.0,1.0,phase_3,,,,,132.0,3.0,220.0,132.0,88.0,44.0,264.0,176.0,orange,square
0.0,5.0,1.0,1.0,7.0,6.0,521.4317049831152,3.0,1.0,phase_3,,,,,294.0,6.0,98.0,245.0,196.0,49.0,147.0,294.0,orange,square
0.0,2.0,2.0,0.0,7.0,1.0,1434.3526605516672,3.0,1.0,phase_3,,,,,220.0,5.0,220.0,88.0,44.0,176.0,132.0,264.0,white,I
0.0,1.0,1.0,0.0,7.0,5.0,803.6109730601311,3.0,1.0,phase_3,,,,,49.0,1.0,98.0,294.0,196.0,147.0,49.0,245.0,gray,diamond
0.0,4.0,4.0,0.0,7.0,3.0,1183.5615150630474,3.0,1.0,phase_3,,,,,132.0,3.0,176.0,264.0,132.0,220.0,44.0,88.0,green,cross
0.0,3.0,3.0,0.0,7.0,1.0,1215.19173681736,3.0,1.0,phase_3,,,,,98.0,2.0,98.0,196.0,147.0,49.0,245.0,294.0,yellow,circle
0.0,1.0,1.0,0.0,7.0,1.0,1434.023529291153,3.0,1.0,phase_3,,,,,54.0,1.0,54.0,324.0,108.0,162.0,216.0,270.0,gray,diamond
0.0,4.0,4.0,0.0,7.0,5.0,1475.8964106440544,3.0,1.0,phase_3,,,,,108.0,2.0,270.0,216.0,54.0,324.0,108.0,162.0,green,cross
0.0,4.0,4.0,0.0,7.0,3.0,1236.975634470582,3.0,1.0,phase_3,,,,,88.0,2.0,44.0,264.0,88.0,220.0,132.0,176.0,green,cross
0.0,8.0,4.0,1.0,7.0,4.0,1748.6848644912245,3.0,1.0,phase_3,,,,,132.0,3.0,88.0,176.0,220.0,132.0,264.0,44.0,blue,hexagon
0.0,8.0,4.0,1.0,7.0,2.0,853.1245402991772,3.0,1.0,phase_3,,,,,196.0,4.0,49.0,196.0,294.0,147.0,245.0,98.0,blue,hexagon
0.0,2.0,2.0,0.0,7.0,5.0,1510.8131989836693,3.0,1.0,phase_3,,,,,204.0,6.0,34.0,68.0,170.0,102.0,204.0,136.0,white,I
0.0,4.0,4.0,0.0,7.0,3.0,1242.4217648804188,3.0,1.0,phase_3,,,,,245.0,5.0,294.0,147.0,245.0,98.0,196.0,49.0,green,cross
0.0,1.0,1.0,0.0,7.0,1.0,865.0401905179024,3.0,1.0,phase_3,,,,,44.0,1.0,44.0,264.0,88.0,132.0,220.0,176.0,gray,diamond
0.0,8.0,4.0,1.0,7.0,6.0,750.7325392216444,3.0,1.0,phase_3,,,,,132.0,3.0,264.0,88.0,220.0,44.0,176.0,132.0,blue,hexagon
0.0,3.0,3.0,0.0,7.0,3.0,924.8564802110196,3.0,1.0,phase_3,,,,,54.0,1.0,216.0,270.0,54.0,162.0,108.0,324.0,yellow,circle
0.0,7.0,3.0,1.0,7.0,5.0,1062.4386575073004,3.0,1.0,phase_3,,,,,102.0,3.0,136.0,204.0,170.0,68.0,102.0,34.0,cyan,flipped triangle
0.0,7.0,3.0,1.0,7.0,3.0,1553.542410954833,3.0,1.0,phase_3,,,,,68.0,2.0,204.0,170.0,68.0,102.0,34.0,136.0,cyan,flipped triangle
0.0,7.0,3.0,1.0,7.0,5.0,1130.473343655467,4.0,1.0,phase_3,,,,,49.0,1.0,196.0,294.0,245.0,98.0,49.0,147.0,cyan,flipped triangle
0.0,5.0,1.0,1.0,7.0,3.0,1068.6625447124245,4.0,1.0,phase_3,,,,,39.0,1.0,195.0,117.0,39.0,78.0,156.0,234.0,orange,square
0.0,6.0,2.0,1.0,7.0,3.0,1885.2525111287832,4.0,1.0,phase_3,,,,,170.0,5.0,102.0,34.0,170.0,204.0,68.0,136.0,magenta,triangle
0.0,1.0,1.0,0.0,7.0,4.0,1119.5396203547716,4.0,1.0,phase_3,,,,,39.0,1.0,156.0,195.0,117.0,39.0,78.0,234.0,gray,diamond
0.0,6.0,2.0,1.0,7.0,4.0,1263.626391068101,4.0,1.0,phase_3,,,,,162.0,3.0,54.0,270.0,324.0,162.0,216.0,108.0,magenta,triangle
0.0,5.0,1.0,1.0,7.0,6.0,768.9586263149977,4.0,1.0,phase_3,,,,,170.0,5.0,204.0,136.0,102.0,34.0,68.0,170.0,orange,square
0.0,2.0,2.0,0.0,7.0,1.0,1456.1417140066624,4.0,1.0,phase_3,,,,,234.0,6.0,234.0,39.0,156.0,195.0,78.0,117.0,white,I
0.0,5.0,1.0,1.0,7.0,6.0,922.2169741988182,4.0,1.0,phase_3,,,,,162.0,3.0,108.0,216.0,270.0,324.0,54.0,162.0,orange,square
0.0,6.0,2.0,1.0,7.0,2.0,863.2126599550247,4.0,1.0,phase_3,,,,,88.0,2.0,132.0,88.0,176.0,264.0,220.0,44.0,magenta,triangle
0.0,8.0,4.0,1.0,7.0,5.0,1615.978917106986,4.0,1.0,phase_3,,,,,98.0,2.0,245.0,147.0,49.0,196.0,98.0,294.0,blue,hexagon
0.0,8.0,4.0,1.0,7.0,1.0,1165.9212708473206,4.0,1.0,phase_3,,,,,117.0,3.0,117.0,234.0,78.0,156.0,195.0,39.0,blue,hexagon
0.0,6.0,2.0,1.0,7.0,4.0,1097.7085512131453,4.0,1.0,phase_3,,,,,54.0,1.0,270.0,216.0,324.0,54.0,162.0,108.0,magenta,triangle
0.0,2.0,2.0,0.0,7.0,3.0,1592.2767370939257,4.0,1.0,phase_3,,,,,294.0,6.0,49.0,196.0,294.0,245.0,98.0,147.0,white,I
0.0,1.0,1.0,0.0,7.0,6.0,1221.9240125268698,4.0,1.0,phase_3,,,,,78.0,2.0,156.0,39.0,117.0,195.0,234.0,78.0,gray,diamond
0.0,8.0,4.0,1.0,7.0,1.0,860.7481420040131,4.0,1.0,phase_3,,,,,117.0,3.0,117.0,195.0,78.0,39.0,156.0,234.0,blue,hexagon
0.0,3.0,3.0,0.0,7.0,2.0,1496.5409748256209,4.0,1.0,phase_3,,,,,234.0,6.0,195.0,234.0,78.0,156.0,117.0,39.0,yellow,circle
0.0,8.0,4.0,1.0,7.0,5.0,831.4101342111826,4.0,1.0,phase_3,,,,,108.0,2.0,54.0,216.0,324.0,162.0,108.0,270.0,blue,hexagon
0.0,8.0,4.0,1.0,7.0,4.0,1891.3320507854223,4.0,1.0,phase_3,,,,,102.0,3.0,68.0,34.0,204.0,102.0,170.0,136.0,blue,hexagon
0.0,1.0,1.0,0.0,7.0,3.0,1148.4775338321924,4.0,1.0,phase_3,,,,,44.0,1.0,220.0,264.0,44.0,132.0,176.0,88.0,gray,diamond
0.0,2.0,2.0,0.0,7.0,3.0,1884.4278659671545,4.0,1.0,phase_3,,,,,68.0,2.0,204.0,136.0,68.0,34.0,170.0,102.0,white,I
