raw_reward_magnitude,stim_reward,stepwise_reward_magnitude,paired_with_stopping,stim_location,response,reaction_time,block,num_trial_presentations,which_phase,stop_signal_trial_type,left_SSD,right_SSD,accuracy,chosen_bidding_amount,chosen_bidding_level,possible_bid_1,possible_bid_2,possible_bid_3,possible_bid_4,possible_bid_5,possible_bid_6,color_text,shape_text
196.0,7.0,2.0,1.0,2.0,2.0,394.2145854234695,1.0,1.0,phase_1,,,,,,,,,,,,,yellow,flipped triangle
394.0,8.0,4.0,1.0,3.0,3.0,359.47096534073347,1.0,1.0,phase_1,,,,,,,,,,,,,cyan,triangle
213.0,7.0,2.0,1.0,4.0,4.0,330.9977520257234,1.0,1.0,phase_1,,,,,,,,,,,,,yellow,flipped triangle
91.0,6.0,1.0,1.0,2.0,2.0,285.3124644607305,1.0,1.0,phase_1,,,,,,,,,,,,,magenta,I
207.0,3.0,2.0,0.0,1.0,1.0,260.7737500220537,1.0,1.0,phase_1,,,,,,,,,,,,,green,hexagon
47.0,1.0,0.5,0.0,4.0,4.0,325.9960282593965,1.0,1.0,phase_1,,,,,,,,,,,,,blue,cross
222.0,7.0,2.0,1.0,3.0,3.0,370.4428318887949,1.0,1.0,phase_1,,,,,,,,,,,,,yellow,flipped triangle
63.0,1.0,0.5,0.0,3.0,3.0,492.3117235302925,1.0,2.0,phase_1,,,,,,,,,,,,,blue,cross
0.0,4.0,0.0,0.0,2.0,2.0,420.3162621706724,1.0,1.0,phase_1,,,,,,,,,,,,,gray,circle
420.0,4.0,4.0,0.0,1.0,1.0,416.0556271672249,1.0,1.0,phase_1,,,,,,,,,,,,,gray,circle
207.0,7.0,2.0,1.0,4.0,4.0,402.3016262799501,1.0,1.0,phase_1,,,,,,,,,,,,,yellow,flipped triangle
190.0,3.0,2.0,0.0,4.0,4.0,363.0214426666498,1.0,1.0,phase_1,,,,,,,,,,,,,green,hexagon
178.0,3.0,2.0,0.0,2.0,2.0,375.5634948611259,1.0,1.0,phase_1,,,,,,,,,,,,,green,hexagon
421.0,8.0,4.0,1.0,1.0,1.0,416.5004733949899,1.0,1.0,phase_1,,,,,,,,,,,,,cyan,triangle
412.0,4.0,4.0,0.0,1.0,1.0,350.2820562571287,1.0,1.0,phase_1,,,,,,,,,,,,,gray,circle
117.0,2.0,1.0,0.0,4.0,4.0,401.9632488489151,1.0,1.0,phase_1,,,,,,,,,,,,,orange,diamond
398.0,8.0,4.0,1.0,3.0,3.0,440.726924687624,1.0,1.0,phase_1,,,,,,,,,,,,,cyan,triangle
39.0,1.0,0.5,0.0,3.0,3.0,387.8232818096876,1.0,1.0,phase_1,,,,,,,,,,,,,blue,cross
84.0,2.0,1.0,0.0,2.0,2.0,337.9321172833442,1.0,1.0,phase_1,,,,,,,,,,,,,orange,diamond
381.0,8.0,4.0,1.0,2.0,2.0,397.1096090972423,1.0,1.0,phase_1,,,,,,,,,,,,,cyan,triangle
0.0,3.0,0.0,0.0,1.0,1.0,336.7838319391012,1.0,1.0,phase_1,,,,,,,,,,,,,green,hexagon
50.0,5.0,0.5,1.0,3.0,3.0,279.610276222229,1.0,1.0,phase_1,,,,,,,,,,,,,white,square
62.0,5.0,0.5,1.0,1.0,1.0,381.6855810582638,1.0,1.0,phase_1,,,,,,,,,,,,,white,square
81.0,6.0,1.0,1.0,4.0,4.0,303.9088565856218,1.0,1.0,phase_1,,,,,,,,,,,,,magenta,I
0.0,1.0,0.0,0.0,2.0,2.0,301.5419263392687,1.0,1.0,phase_1,,,,,,,,,,,,,blue,cross
56.0,1.0,0.5,0.0,3.0,3.0,320.9586273878813,1.0,1.0,phase_1,,,,,,,,,,,,,blue,cross
380.0,4.0,4.0,0.0,4.0,4.0,384.3679036945104,1.0,1.0,phase_1,,,,,,,,,,,,,gray,circle
37.0,1.0,0.5,0.0,4.0,4.0,380.6948699057102,1.0,1.0,phase_1,,,,,,,,,,,,,blue,cross
111.0,2.0,1.0,0.0,1.0,1.0,393.5389686375856,1.0,1.0,phase_1,,,,,,,,,,,,,orange,diamond
92.0,6.0,1.0,1.0,2.0,2.0,349.0313403308391,1.0,1.0,phase_1,,,,,,,,,,,,,magenta,I
202.0,3.0,2.0,0.0,1.0,1.0,363.337866961956,1.0,1.0,phase_1,,,,,,,,,,,,,green,hexagon
220.0,3.0,2.0,0.0,4.0,4.0,304.4472094625234,1.0,1.0,phase_1,,,,,,,,,,,,,green,hexagon
196.0,7.0,2.0,1.0,2.0,2.0,396.1486704647541,1.0,1.0,phase_1,,,,,,,,,,,,,yellow,flipped triangle
403.0,8.0,4.0,1.0,4.0,4.0,417.9775826632976,1.0,1.0,phase_1,,,,,,,,,,,,,cyan,triangle
403.0,8.0,4.0,1.0,4.0,4.0,454.9468103796243,1.0,1.0,phase_1,,,,,,,,,,,,,cyan,triangle
111.0,6.0,1.0,1.0,3.0,3.0,503.6071892827749,1.0,1.0,phase_1,,,,,,,,,,,,,magenta,I
116.0,2.0,1.0,0.0,1.0,1.0,379.8800483345985,1.0,1.0,phase_1,,,,,,,,,,,,,orange,diamond
104.0,6.0,1.0,1.0,2.0,2.0,400.9793121367693,1.0,1.0,phase_1,,,,,,,,,,,,,magenta,I
0.0,8.0,0.0,1.0,3.0,3.0,527.3393485695124,1.0,1.0,phase_1,,,,,,,,,,,,,cyan,triangle
57.0,1.0,0.5,0.0,4.0,4.0,354.7214586287737,1.0,1.0,phase_1,,,,,,,,,,,,,blue,cross
192.0,3.0,2.0,0.0,3.0,3.0,496.8866314738989,1.0,1.0,phase_1,,,,,,,,,,,,,green,hexagon
32.0,5.0,0.5,1.0,3.0,3.0,468.2306069880724,1.0,1.0,phase_1,,,,,,,,,,,,,white,square
424.0,4.0,4.0,0.0,4.0,4.0,346.5380445122719,1.0,1.0,phase_1,,,,,,,,,,,,,gray,circle
49.0,5.0,0.5,1.0,3.0,3.0,321.115868166089,1.0,1.0,phase_1,,,,,,,,,,,,,white,square
415.0,8.0,4.0,1.0,4.0,4.0,341.2381503731012,1.0,1.0,phase_1,,,,,,,,,,,,,cyan,triangle
381.0,8.0,4.0,1.0,4.0,4.0,312.1983204036951,1.0,1.0,phase_1,,,,,,,,,,,,,cyan,triangle
0.0,7.0,0.0,1.0,3.0,3.0,333.7412215769291,1.0,1.0,phase_1,,,,,,,,,,,,,yellow,flipped triangle
84.0,2.0,1.0,0.0,4.0,4.0,367.7218090742826,1.0,1.0,phase_1,,,,,,,,,,,,,orange,diamond
96.0,2.0,1.0,0.0,3.0,3.0,380.8031380176544,1.0,1.0,phase_1,,,,,,,,,,,,,orange,diamond
203.0,7.0,2.0,1.0,3.0,3.0,357.1581989526748,1.0,1.0,phase_1,,,,,,,,,,,,,yellow,flipped triangle
197.0,7.0,2.0,1.0,3.0,3.0,357.5062323361635,1.0,1.0,phase_1,,,,,,,,,,,,,yellow,flipped triangle
60.0,5.0,0.5,1.0,2.0,2.0,417.8073238581419,1.0,1.0,phase_1,,,,,,,,,,,,,white,square
71.0,1.0,0.5,0.0,3.0,3.0,383.938804268837,1.0,1.0,phase_1,,,,,,,,,,,,,blue,cross
32.0,5.0,0.5,1.0,2.0,2.0,437.6971963793039,1.0,1.0,phase_1,,,,,,,,,,,,,white,square
64.0,5.0,0.5,1.0,2.0,2.0,329.5944761484861,1.0,1.0,phase_1,,,,,,,,,,,,,white,square
0.0,3.0,0.0,0.0,3.0,3.0,301.4146201312542,1.0,1.0,phase_1,,,,,,,,,,,,,green,hexagon
0.0,7.0,0.0,1.0,4.0,4.0,784.5013793557882,1.0,2.0,phase_1,,,,,,,,,,,,,yellow,flipped triangle
0.0,4.0,0.0,0.0,4.0,4.0,390.0744244456291,1.0,1.0,phase_1,,,,,,,,,,,,,gray,circle
181.0,3.0,2.0,0.0,1.0,1.0,416.1134734749794,1.0,1.0,phase_1,,,,,,,,,,,,,green,hexagon
105.0,6.0,1.0,1.0,3.0,3.0,388.3195798844099,1.0,1.0,phase_1,,,,,,,,,,,,,magenta,I
49.0,1.0,0.5,0.0,1.0,1.0,386.3848187029362,1.0,1.0,phase_1,,,,,,,,,,,,,blue,cross
206.0,3.0,2.0,0.0,3.0,3.0,461.7903586477041,1.0,1.0,phase_1,,,,,,,,,,,,,green,hexagon
43.0,5.0,0.5,1.0,3.0,3.0,435.4399628937244,1.0,1.0,phase_1,,,,,,,,,,,,,white,square
209.0,7.0,2.0,1.0,1.0,1.0,402.5715254247188,1.0,1.0,phase_1,,,,,,,,,,,,,yellow,flipped triangle
389.0,8.0,4.0,1.0,1.0,1.0,381.0536190867424,1.0,1.0,phase_1,,,,,,,,,,,,,cyan,triangle
183.0,7.0,2.0,1.0,4.0,4.0,378.989877179265,1.0,1.0,phase_1,,,,,,,,,,,,,yellow,flipped triangle
0.0,8.0,0.0,1.0,1.0,1.0,429.9783576279878,1.0,1.0,phase_1,,,,,,,,,,,,,cyan,triangle
0.0,5.0,0.0,1.0,4.0,4.0,389.6352928131819,1.0,1.0,phase_1,,,,,,,,,,,,,white,square
0.0,5.0,0.0,1.0,2.0,2.0,423.441456630826,1.0,1.0,phase_1,,,,,,,,,,,,,white,square
44.0,5.0,0.5,1.0,1.0,1.0,380.4339487105608,1.0,1.0,phase_1,,,,,,,,,,,,,white,square
398.0,4.0,4.0,0.0,1.0,1.0,410.3770405054092,1.0,1.0,phase_1,,,,,,,,,,,,,gray,circle
392.0,4.0,4.0,0.0,3.0,3.0,332.7734321355819,1.0,1.0,phase_1,,,,,,,,,,,,,gray,circle
57.0,5.0,0.5,1.0,2.0,2.0,348.8608878105879,1.0,1.0,phase_1,,,,,,,,,,,,,white,square
104.0,6.0,1.0,1.0,3.0,3.0,424.5812594890594,1.0,1.0,phase_1,,,,,,,,,,,,,magenta,I
393.0,4.0,4.0,0.0,4.0,4.0,507.7708065509796,1.0,1.0,phase_1,,,,,,,,,,,,,gray,circle
43.0,1.0,0.5,0.0,1.0,1.0,487.7062477171421,1.0,1.0,phase_1,,,,,,,,,,,,,blue,cross
385.0,4.0,4.0,0.0,2.0,2.0,319.3569611757993,1.0,1.0,phase_1,,,,,,,,,,,,,gray,circle
37.0,5.0,0.5,1.0,4.0,4.0,323.7387705594301,1.0,1.0,phase_1,,,,,,,,,,,,,white,square
48.0,5.0,0.5,1.0,1.0,1.0,325.5378752946853,1.0,1.0,phase_1,,,,,,,,,,,,,white,square
101.0,6.0,1.0,1.0,3.0,3.0,395.1882813125849,1.0,1.0,phase_1,,,,,,,,,,,,,magenta,I
47.0,5.0,0.5,1.0,4.0,4.0,583.8696286082268,1.0,1.0,phase_1,,,,,,,,,,,,,white,square
94.0,2.0,1.0,0.0,3.0,3.0,475.7650047540664,1.0,1.0,phase_1,,,,,,,,,,,,,orange,diamond
402.0,4.0,4.0,0.0,3.0,3.0,458.4816228598356,1.0,1.0,phase_1,,,,,,,,,,,,,gray,circle
376.0,4.0,4.0,0.0,4.0,4.0,557.7845815569162,1.0,1.0,phase_1,,,,,,,,,,,,,gray,circle
0.0,7.0,0.0,1.0,1.0,1.0,427.5164790451526,1.0,1.0,phase_1,,,,,,,,,,,,,yellow,flipped triangle
218.0,7.0,2.0,1.0,2.0,2.0,390.8551372587681,1.0,1.0,phase_1,,,,,,,,,,,,,yellow,flipped triangle
0.0,8.0,0.0,1.0,4.0,4.0,348.5003020614385,1.0,1.0,phase_1,,,,,,,,,,,,,cyan,triangle
407.0,8.0,4.0,1.0,4.0,4.0,455.905981361866,1.0,1.0,phase_1,,,,,,,,,,,,,cyan,triangle
0.0,2.0,0.0,0.0,3.0,3.0,376.14287994802,1.0,1.0,phase_1,,,,,,,,,,,,,orange,diamond
179.0,7.0,2.0,1.0,2.0,2.0,360.7178647071123,1.0,1.0,phase_1,,,,,,,,,,,,,yellow,flipped triangle
407.0,4.0,4.0,0.0,4.0,4.0,385.830519720912,1.0,1.0,phase_1,,,,,,,,,,,,,gray,circle
94.0,6.0,1.0,1.0,3.0,3.0,434.3013428151607,1.0,1.0,phase_1,,,,,,,,,,,,,magenta,I
93.0,2.0,1.0,0.0,3.0,3.0,303.622305393219,1.0,1.0,phase_1,,,,,,,,,,,,,orange,diamond
88.0,6.0,1.0,1.0,1.0,1.0,420.8581335842609,1.0,1.0,phase_1,,,,,,,,,,,,,magenta,I
0.0,8.0,0.0,1.0,1.0,1.0,337.3296726495027,1.0,1.0,phase_1,,,,,,,,,,,,,cyan,triangle
55.0,5.0,0.5,1.0,2.0,2.0,390.3599362820387,1.0,1.0,phase_1,,,,,,,,,,,,,white,square
0.0,5.0,0.0,1.0,3.0,3.0,346.4837595820427,1.0,1.0,phase_1,,,,,,,,,,,,,white,square
0.0,1.0,0.0,0.0,3.0,3.0,462.3469747602939,1.0,1.0,phase_1,,,,,,,,,,,,,blue,cross
395.0,4.0,4.0,0.0,3.0,3.0,315.4223132878542,1.0,1.0,phase_1,,,,,,,,,,,,,gray,circle
106.0,6.0,1.0,1.0,1.0,1.0,394.5860788226127,1.0,1.0,phase_1,,,,,,,,,,,,,magenta,I
194.0,3.0,2.0,0.0,1.0,1.0,463.7144561856985,2.0,2.0,phase_1,,,,,,,,,,,,,green,hexagon
376.0,8.0,4.0,1.0,2.0,2.0,490.6531535089016,2.0,1.0,phase_1,,,,,,,,,,,,,cyan,triangle
119.0,6.0,1.0,1.0,1.0,1.0,313.4513236582279,2.0,1.0,phase_1,,,,,,,,,,,,,magenta,I
48.0,1.0,0.5,0.0,4.0,4.0,303.0440919101238,2.0,1.0,phase_1,,,,,,,,,,,,,blue,cross
395.0,8.0,4.0,1.0,1.0,1.0,331.8758513778448,2.0,1.0,phase_1,,,,,,,,,,,,,cyan,triangle
0.0,2.0,0.0,0.0,4.0,4.0,391.301941126585,2.0,1.0,phase_1,,,,,,,,,,,,,orange,diamond
0.0,6.0,0.0,1.0,3.0,3.0,337.5340905040502,2.0,1.0,phase_1,,,,,,,,,,,,,magenta,I
209.0,3.0,2.0,0.0,3.0,3.0,441.0267174243927,2.0,1.0,phase_1,,,,,,,,,,,,,green,hexagon
381.0,4.0,4.0,0.0,4.0,4.0,363.5246530175209,2.0,1.0,phase_1,,,,,,,,,,,,,gray,circle
217.0,7.0,2.0,1.0,2.0,2.0,527.9592499136925,2.0,1.0,phase_1,,,,,,,,,,,,,yellow,flipped triangle
98.0,6.0,1.0,1.0,1.0,1.0,493.77628415822977,2.0,1.0,phase_1,,,,,,,,,,,,,magenta,I
52.0,5.0,0.5,1.0,4.0,4.0,419.7888728231191,2.0,1.0,phase_1,,,,,,,,,,,,,white,square
116.0,6.0,1.0,1.0,1.0,1.0,400.8067883551121,2.0,1.0,phase_1,,,,,,,,,,,,,magenta,I
106.0,6.0,1.0,1.0,3.0,3.0,299.9738194048404,2.0,1.0,phase_1,,,,,,,,,,,,,magenta,I
393.0,4.0,4.0,0.0,3.0,3.0,407.7162332832813,2.0,1.0,phase_1,,,,,,,,,,,,,gray,circle
122.0,2.0,1.0,0.0,1.0,1.0,334.4566505402326,2.0,1.0,phase_1,,,,,,,,,,,,,orange,diamond
104.0,2.0,1.0,0.0,4.0,4.0,283.9193437248468,2.0,1.0,phase_1,,,,,,,,,,,,,orange,diamond
84.0,6.0,1.0,1.0,1.0,1.0,404.8296976834535,2.0,1.0,phase_1,,,,,,,,,,,,,magenta,I
40.0,1.0,0.5,0.0,1.0,1.0,422.3096705973148,2.0,2.0,phase_1,,,,,,,,,,,,,blue,cross
180.0,7.0,2.0,1.0,1.0,1.0,387.2522544115782,2.0,1.0,phase_1,,,,,,,,,,,,,yellow,flipped triangle
33.0,1.0,0.5,0.0,1.0,1.0,400.8917827159166,2.0,1.0,phase_1,,,,,,,,,,,,,blue,cross
0.0,1.0,0.0,0.0,4.0,4.0,886.7152687162161,2.0,1.0,phase_1,,,,,,,,,,,,,blue,cross
50.0,1.0,0.5,0.0,2.0,2.0,386.8828471750021,2.0,1.0,phase_1,,,,,,,,,,,,,blue,cross
214.0,7.0,2.0,1.0,3.0,3.0,400.3675319254398,2.0,1.0,phase_1,,,,,,,,,,,,,yellow,flipped triangle
185.0,3.0,2.0,0.0,2.0,2.0,372.6753946393728,2.0,1.0,phase_1,,,,,,,,,,,,,green,hexagon
185.0,7.0,2.0,1.0,2.0,2.0,418.7975525856018,2.0,1.0,phase_1,,,,,,,,,,,,,yellow,flipped triangle
71.0,5.0,0.5,1.0,3.0,3.0,507.7436361461878,2.0,1.0,phase_1,,,,,,,,,,,,,white,square
408.0,4.0,4.0,0.0,4.0,4.0,409.9656026810407,2.0,1.0,phase_1,,,,,,,,,,,,,gray,circle
0.0,8.0,0.0,1.0,2.0,2.0,447.3632946610451,2.0,1.0,phase_1,,,,,,,,,,,,,cyan,triangle
41.0,1.0,0.5,0.0,3.0,3.0,451.7209678888321,2.0,1.0,phase_1,,,,,,,,,,,,,blue,cross
196.0,7.0,2.0,1.0,4.0,4.0,384.5591954886913,2.0,1.0,phase_1,,,,,,,,,,,,,yellow,flipped triangle
52.0,1.0,0.5,0.0,3.0,3.0,388.9274206012487,2.0,1.0,phase_1,,,,,,,,,,,,,blue,cross
183.0,3.0,2.0,0.0,4.0,4.0,512.1955275535583,2.0,1.0,phase_1,,,,,,,,,,,,,green,hexagon
48.0,1.0,0.5,0.0,4.0,4.0,343.7842931598425,2.0,1.0,phase_1,,,,,,,,,,,,,blue,cross
33.0,5.0,0.5,1.0,2.0,2.0,330.116830766201,2.0,1.0,phase_1,,,,,,,,,,,,,white,square
0.0,2.0,0.0,0.0,3.0,3.0,383.61388258636,2.0,1.0,phase_1,,,,,,,,,,,,,orange,diamond
196.0,3.0,2.0,0.0,2.0,2.0,342.5417672842741,2.0,1.0,phase_1,,,,,,,,,,,,,green,hexagon
179.0,3.0,2.0,0.0,2.0,2.0,408.8263045996427,2.0,1.0,phase_1,,,,,,,,,,,,,green,hexagon
391.0,8.0,4.0,1.0,2.0,2.0,398.4218202531338,2.0,1.0,phase_1,,,,,,,,,,,,,cyan,triangle
219.0,3.0,2.0,0.0,4.0,4.0,369.9416238814592,2.0,1.0,phase_1,,,,,,,,,,,,,green,hexagon
0.0,1.0,0.0,0.0,1.0,1.0,416.2831790745258,2.0,1.0,phase_1,,,,,,,,,,,,,blue,cross
422.0,8.0,4.0,1.0,4.0,4.0,436.7988612502813,2.0,1.0,phase_1,,,,,,,,,,,,,cyan,triangle
408.0,8.0,4.0,1.0,2.0,2.0,330.2935771644115,2.0,1.0,phase_1,,,,,,,,,,,,,cyan,triangle
32.0,1.0,0.5,0.0,2.0,2.0,358.4954105317592,2.0,1.0,phase_1,,,,,,,,,,,,,blue,cross
224.0,7.0,2.0,1.0,1.0,1.0,456.9357354193926,2.0,1.0,phase_1,,,,,,,,,,,,,yellow,flipped triangle
0.0,3.0,0.0,0.0,3.0,3.0,366.9012896716594,2.0,1.0,phase_1,,,,,,,,,,,,,green,hexagon
39.0,5.0,0.5,1.0,2.0,2.0,337.3496048152447,2.0,1.0,phase_1,,,,,,,,,,,,,white,square
74.0,5.0,0.5,1.0,3.0,3.0,471.1711872369051,2.0,2.0,phase_1,,,,,,,,,,,,,white,square
49.0,1.0,0.5,0.0,2.0,2.0,449.2740966379642,2.0,1.0,phase_1,,,,,,,,,,,,,blue,cross
0.0,4.0,0.0,0.0,4.0,4.0,408.4156714379787,2.0,1.0,phase_1,,,,,,,,,,,,,gray,circle
0.0,5.0,0.0,1.0,1.0,1.0,370.9636330604553,2.0,1.0,phase_1,,,,,,,,,,,,,white,square
397.0,4.0,4.0,0.0,2.0,2.0,313.1566997617483,2.0,1.0,phase_1,,,,,,,,,,,,,gray,circle
52.0,1.0,0.5,0.0,4.0,4.0,850.8945126086473,2.0,2.0,phase_1,,,,,,,,,,,,,blue,cross
0.0,6.0,0.0,1.0,1.0,1.0,804.291820153594,2.0,1.0,phase_1,,,,,,,,,,,,,magenta,I
194.0,7.0,2.0,1.0,2.0,2.0,384.1385263949632,2.0,1.0,phase_1,,,,,,,,,,,,,yellow,flipped triangle
74.0,1.0,0.5,0.0,1.0,1.0,405.7383947074413,2.0,1.0,phase_1,,,,,,,,,,,,,blue,cross
117.0,6.0,1.0,1.0,3.0,3.0,381.2135849148035,2.0,1.0,phase_1,,,,,,,,,,,,,magenta,I
178.0,3.0,2.0,0.0,3.0,3.0,450.2365943044424,2.0,1.0,phase_1,,,,,,,,,,,,,green,hexagon
40.0,5.0,0.5,1.0,1.0,1.0,412.9944611340761,2.0,1.0,phase_1,,,,,,,,,,,,,white,square
0.0,5.0,0.0,1.0,1.0,1.0,384.3418210744858,2.0,1.0,phase_1,,,,,,,,,,,,,white,square
82.0,6.0,1.0,1.0,4.0,4.0,501.3537146151066,2.0,1.0,phase_1,,,,,,,,,,,,,magenta,I
0.0,3.0,0.0,0.0,4.0,4.0,475.1380961388349,2.0,1.0,phase_1,,,,,,,,,,,,,green,hexagon
117.0,2.0,1.0,0.0,2.0,2.0,501.958129927516,2.0,1.0,phase_1,,,,,,,,,,,,,orange,diamond
178.0,7.0,2.0,1.0,1.0,1.0,418.3432199060917,2.0,1.0,phase_1,,,,,,,,,,,,,yellow,flipped triangle
380.0,8.0,4.0,1.0,1.0,1.0,366.9510670006275,2.0,1.0,phase_1,,,,,,,,,,,,,cyan,triangle
0.0,1.0,0.0,0.0,4.0,4.0,430.917339399457,2.0,1.0,phase_1,,,,,,,,,,,,,blue,cross
0.0,1.0,0.0,0.0,1.0,1.0,427.3081477731466,2.0,1.0,phase_1,,,,,,,,,,,,,blue,cross
213.0,3.0,2.0,0.0,1.0,1.0,405.406579375267,2.0,1.0,phase_1,,,,,,,,,,,,,green,hexagon
196.0,3.0,2.0,0.0,4.0,4.0,404.8120733350515,2.0,1.0,phase_1,,,,,,,,,,,,,green,hexagon
394.0,4.0,4.0,0.0,2.0,2.0,433.5619788616895,2.0,1.0,phase_1,,,,,,,,,,,,,gray,circle
57.0,5.0,0.5,1.0,1.0,1.0,382.6921302825212,2.0,1.0,phase_1,,,,,,,,,,,,,white,square
77.0,6.0,1.0,1.0,2.0,2.0,312.0199870318174,2.0,1.0,phase_1,,,,,,,,,,,,,magenta,I
86.0,6.0,1.0,1.0,1.0,1.0,270.9012310951948,2.0,1.0,phase_1,,,,,,,,,,,,,magenta,I
209.0,3.0,2.0,0.0,3.0,3.0,386.1266057938337,2.0,1.0,phase_1,,,,,,,,,,,,,green,hexagon
224.0,3.0,2.0,0.0,4.0,4.0,406.8419504910707,2.0,1.0,phase_1,,,,,,,,,,,,,green,hexagon
415.0,8.0,4.0,1.0,1.0,1.0,429.6415597200393,2.0,1.0,phase_1,,,,,,,,,,,,,cyan,triangle
223.0,7.0,2.0,1.0,4.0,4.0,483.9152637869119,2.0,1.0,phase_1,,,,,,,,,,,,,yellow,flipped triangle
56.0,5.0,0.5,1.0,4.0,4.0,396.7334497720003,2.0,1.0,phase_1,,,,,,,,,,,,,white,square
0.0,7.0,0.0,1.0,4.0,4.0,474.9758131802082,2.0,1.0,phase_1,,,,,,,,,,,,,yellow,flipped triangle
412.0,8.0,4.0,1.0,3.0,3.0,433.4518164396286,2.0,1.0,phase_1,,,,,,,,,,,,,cyan,triangle
33.0,1.0,0.5,0.0,4.0,4.0,390.1365790516138,2.0,1.0,phase_1,,,,,,,,,,,,,blue,cross
31.0,1.0,0.5,0.0,4.0,4.0,352.9459983110428,2.0,1.0,phase_1,,,,,,,,,,,,,blue,cross
71.0,1.0,0.5,0.0,4.0,4.0,300.3639951348305,2.0,1.0,phase_1,,,,,,,,,,,,,blue,cross
0.0,7.0,0.0,1.0,3.0,3.0,489.287706092,2.0,1.0,phase_1,,,,,,,,,,,,,yellow,flipped triangle
378.0,8.0,4.0,1.0,2.0,2.0,495.5625887960195,2.0,1.0,phase_1,,,,,,,,,,,,,cyan,triangle
98.0,2.0,1.0,0.0,2.0,2.0,385.4511696845293,2.0,1.0,phase_1,,,,,,,,,,,,,orange,diamond
0.0,8.0,0.0,1.0,3.0,3.0,434.2642109841108,2.0,1.0,phase_1,,,,,,,,,,,,,cyan,triangle
422.0,4.0,4.0,0.0,2.0,2.0,525.7203318178654,2.0,1.0,phase_1,,,,,,,,,,,,,gray,circle
0.0,6.0,0.0,1.0,4.0,4.0,487.7198934555053,2.0,1.0,phase_1,,,,,,,,,,,,,magenta,I
0.0,4.0,0.0,0.0,4.0,4.0,389.1279492527246,2.0,1.0,phase_1,,,,,,,,,,,,,gray,circle
179.0,7.0,2.0,1.0,3.0,3.0,434.038370847702,2.0,1.0,phase_1,,,,,,,,,,,,,yellow,flipped triangle
117.0,6.0,1.0,1.0,3.0,3.0,390.3156090527773,2.0,1.0,phase_1,,,,,,,,,,,,,magenta,I
48.0,5.0,0.5,1.0,4.0,4.0,469.7588924318552,2.0,1.0,phase_1,,,,,,,,,,,,,white,square
397.0,8.0,4.0,1.0,1.0,1.0,410.1079050451517,2.0,1.0,phase_1,,,,,,,,,,,,,cyan,triangle
119.0,2.0,1.0,0.0,1.0,1.0,420.4822797328233,2.0,1.0,phase_1,,,,,,,,,,,,,orange,diamond
82.0,2.0,1.0,0.0,3.0,3.0,458.78897048532957,2.0,1.0,phase_1,,,,,,,,,,,,,orange,diamond
0.0,4.0,0.0,0.0,2.0,2.0,472.3391011357307,2.0,1.0,phase_1,,,,,,,,,,,,,gray,circle
218.0,3.0,2.0,0.0,1.0,1.0,325.3368288278579,2.0,1.0,phase_1,,,,,,,,,,,,,green,hexagon
60.0,1.0,0.5,0.0,4.0,4.0,511.6323847323656,2.0,1.0,phase_1,,,,,,,,,,,,,blue,cross
123.0,6.0,1.0,1.0,2.0,2.0,398.9504724740982,2.0,1.0,phase_1,,,,,,,,,,,,,magenta,I
66.0,1.0,0.5,0.0,1.0,1.0,501.7624329775572,3.0,1.0,phase_1,,,,,,,,,,,,,blue,cross
398.0,8.0,4.0,1.0,3.0,3.0,427.0007740706205,3.0,1.0,phase_1,,,,,,,,,,,,,cyan,triangle
0.0,5.0,0.0,1.0,1.0,1.0,470.7356914877891,3.0,1.0,phase_1,,,,,,,,,,,,,white,square
120.0,6.0,1.0,1.0,4.0,4.0,489.9453390389681,3.0,1.0,phase_1,,,,,,,,,,,,,magenta,I
106.0,2.0,1.0,0.0,3.0,3.0,398.6112643033266,3.0,1.0,phase_1,,,,,,,,,,,,,orange,diamond
401.0,4.0,4.0,0.0,2.0,2.0,405.1624033600092,3.0,1.0,phase_1,,,,,,,,,,,,,gray,circle
71.0,5.0,0.5,1.0,4.0,4.0,527.8781075030565,3.0,1.0,phase_1,,,,,,,,,,,,,white,square
50.0,1.0,0.5,0.0,2.0,2.0,365.6492084264755,3.0,1.0,phase_1,,,,,,,,,,,,,blue,cross
105.0,2.0,1.0,0.0,4.0,4.0,425.2560790628195,3.0,1.0,phase_1,,,,,,,,,,,,,orange,diamond
222.0,7.0,2.0,1.0,2.0,2.0,742.5504717975855,3.0,1.0,phase_1,,,,,,,,,,,,,yellow,flipped triangle
389.0,4.0,4.0,0.0,1.0,1.0,369.5641830563545,3.0,1.0,phase_1,,,,,,,,,,,,,gray,circle
0.0,7.0,0.0,1.0,2.0,2.0,344.4438185542822,3.0,1.0,phase_1,,,,,,,,,,,,,yellow,flipped triangle
0.0,6.0,0.0,1.0,3.0,3.0,379.2917709797621,3.0,1.0,phase_1,,,,,,,,,,,,,magenta,I
0.0,3.0,0.0,0.0,4.0,4.0,417.7375175058841,3.0,1.0,phase_1,,,,,,,,,,,,,green,hexagon
98.0,6.0,1.0,1.0,4.0,4.0,444.4125536829233,3.0,1.0,phase_1,,,,,,,,,,,,,magenta,I
221.0,7.0,2.0,1.0,4.0,4.0,473.4114427119493,3.0,1.0,phase_1,,,,,,,,,,,,,yellow,flipped triangle
32.0,5.0,0.5,1.0,3.0,3.0,417.3195846378803,3.0,1.0,phase_1,,,,,,,,,,,,,white,square
52.0,5.0,0.5,1.0,1.0,1.0,397.2276803106069,3.0,1.0,phase_1,,,,,,,,,,,,,white,square
0.0,1.0,0.0,0.0,4.0,4.0,367.52470023930067,3.0,1.0,phase_1,,,,,,,,,,,,,blue,cross
190.0,3.0,2.0,0.0,4.0,4.0,365.7450601458549,3.0,1.0,phase_1,,,,,,,,,,,,,green,hexagon
0.0,6.0,0.0,1.0,4.0,4.0,346.67375870049,3.0,1.0,phase_1,,,,,,,,,,,,,magenta,I
423.0,4.0,4.0,0.0,1.0,1.0,414.7042632102966,3.0,1.0,phase_1,,,,,,,,,,,,,gray,circle
0.0,7.0,0.0,1.0,1.0,1.0,413.982056081295,3.0,1.0,phase_1,,,,,,,,,,,,,yellow,flipped triangle
114.0,2.0,1.0,0.0,1.0,1.0,391.2440445274114,3.0,1.0,phase_1,,,,,,,,,,,,,orange,diamond
0.0,6.0,0.0,1.0,4.0,4.0,365.5598517507314,3.0,1.0,phase_1,,,,,,,,,,,,,magenta,I
202.0,7.0,2.0,1.0,1.0,1.0,385.3791914880276,3.0,1.0,phase_1,,,,,,,,,,,,,yellow,flipped triangle
111.0,2.0,1.0,0.0,1.0,1.0,421.5736016631126,3.0,1.0,phase_1,,,,,,,,,,,,,orange,diamond
84.0,6.0,1.0,1.0,1.0,1.0,417.525639757514,3.0,1.0,phase_1,,,,,,,,,,,,,magenta,I
393.0,8.0,4.0,1.0,2.0,2.0,374.9125469475984,3.0,1.0,phase_1,,,,,,,,,,,,,cyan,triangle
0.0,2.0,0.0,0.0,1.0,1.0,435.9181299805641,3.0,1.0,phase_1,,,,,,,,,,,,,orange,diamond
107.0,6.0,1.0,1.0,2.0,2.0,394.3207021802664,3.0,1.0,phase_1,,,,,,,,,,,,,magenta,I
402.0,8.0,4.0,1.0,1.0,1.0,382.5373295694589,3.0,1.0,phase_1,,,,,,,,,,,,,cyan,triangle
86.0,2.0,1.0,0.0,1.0,1.0,371.834872290492,3.0,1.0,phase_1,,,,,,,,,,,,,orange,diamond
123.0,2.0,1.0,0.0,4.0,4.0,406.3576720654964,3.0,1.0,phase_1,,,,,,,,,,,,,orange,diamond
178.0,3.0,2.0,0.0,1.0,1.0,293.1593637913465,3.0,1.0,phase_1,,,,,,,,,,,,,green,hexagon
64.0,1.0,0.5,0.0,1.0,1.0,305.3742032498121,3.0,1.0,phase_1,,,,,,,,,,,,,blue,cross
68.0,5.0,0.5,1.0,3.0,3.0,467.6048289984464,3.0,1.0,phase_1,,,,,,,,,,,,,white,square
377.0,8.0,4.0,1.0,1.0,1.0,288.1581708788872,3.0,1.0,phase_1,,,,,,,,,,,,,cyan,triangle
88.0,2.0,1.0,0.0,2.0,2.0,413.8757195323705,3.0,1.0,phase_1,,,,,,,,,,,,,orange,diamond
98.0,6.0,1.0,1.0,3.0,3.0,425.6235528737306,3.0,1.0,phase_1,,,,,,,,,,,,,magenta,I
59.0,1.0,0.5,0.0,3.0,3.0,454.1729148477316,3.0,1.0,phase_1,,,,,,,,,,,,,blue,cross
98.0,2.0,1.0,0.0,2.0,2.0,467.102937400341,3.0,1.0,phase_1,,,,,,,,,,,,,orange,diamond
107.0,2.0,1.0,0.0,1.0,1.0,353.2475661486387,3.0,1.0,phase_1,,,,,,,,,,,,,orange,diamond
26.0,5.0,0.5,1.0,3.0,3.0,464.2126858234405,3.0,1.0,phase_1,,,,,,,,,,,,,white,square
401.0,8.0,4.0,1.0,4.0,4.0,474.9472718685865,3.0,1.0,phase_1,,,,,,,,,,,,,cyan,triangle
219.0,7.0,2.0,1.0,4.0,4.0,525.9308312088251,3.0,1.0,phase_1,,,,,,,,,,,,,yellow,flipped triangle
393.0,4.0,4.0,0.0,2.0,2.0,565.6644552946091,3.0,1.0,phase_1,,,,,,,,,,,,,gray,circle
408.0,4.0,4.0,0.0,3.0,3.0,506.8237390369177,3.0,1.0,phase_1,,,,,,,,,,,,,gray,circle
392.0,8.0,4.0,1.0,4.0,4.0,447.7262012660503,3.0,1.0,phase_1,,,,,,,,,,,,,cyan,triangle
82.0,2.0,1.0,0.0,3.0,3.0,452.1139543503523,3.0,1.0,phase_1,,,,,,,,,,,,,orange,diamond
59.0,5.0,0.5,1.0,2.0,2.0,412.5623796135187,3.0,1.0,phase_1,,,,,,,,,,,,,white,square
0.0,5.0,0.0,1.0,1.0,1.0,498.458057641983,3.0,1.0,phase_1,,,,,,,,,,,,,white,square
410.0,4.0,4.0,0.0,2.0,2.0,417.5310116261244,3.0,1.0,phase_1,,,,,,,,,,,,,gray,circle
385.0,8.0,4.0,1.0,4.0,4.0,446.290573105216,3.0,1.0,phase_1,,,,,,,,,,,,,cyan,triangle
117.0,6.0,1.0,1.0,1.0,1.0,455.9674672782421,3.0,1.0,phase_1,,,,,,,,,,,,,magenta,I
118.0,6.0,1.0,1.0,2.0,2.0,432.0070315152406,3.0,1.0,phase_1,,,,,,,,,,,,,magenta,I
381.0,4.0,4.0,0.0,3.0,3.0,412.0136518031358,3.0,1.0,phase_1,,,,,,,,,,,,,gray,circle
420.0,8.0,4.0,1.0,3.0,3.0,479.0304023772478,3.0,1.0,phase_1,,,,,,,,,,,,,cyan,triangle
0.0,6.0,0.0,1.0,2.0,2.0,499.0914650261402,3.0,1.0,phase_1,,,,,,,,,,,,,magenta,I
0.0,8.0,0.0,1.0,1.0,1.0,375.4616882652044,3.0,1.0,phase_1,,,,,,,,,,,,,cyan,triangle
92.0,2.0,1.0,0.0,4.0,4.0,435.9449483454227,3.0,1.0,phase_1,,,,,,,,,,,,,orange,diamond
0.0,8.0,0.0,1.0,2.0,2.0,380.064120516181,3.0,1.0,phase_1,,,,,,,,,,,,,cyan,triangle
91.0,2.0,1.0,0.0,4.0,4.0,385.6833837926388,3.0,1.0,phase_1,,,,,,,,,,,,,orange,diamond
0.0,7.0,0.0,1.0,1.0,1.0,315.7272394746542,3.0,1.0,phase_1,,,,,,,,,,,,,yellow,flipped triangle
122.0,6.0,1.0,1.0,4.0,4.0,352.7207970619201,3.0,1.0,phase_1,,,,,,,,,,,,,magenta,I
386.0,4.0,4.0,0.0,3.0,3.0,478.9525829255581,3.0,1.0,phase_1,,,,,,,,,,,,,gray,circle
0.0,2.0,0.0,0.0,2.0,2.0,443.9664091914892,3.0,1.0,phase_1,,,,,,,,,,,,,orange,diamond
52.0,5.0,0.5,1.0,1.0,1.0,332.8300472348928,3.0,1.0,phase_1,,,,,,,,,,,,,white,square
415.0,4.0,4.0,0.0,1.0,1.0,433.7014332413673,3.0,1.0,phase_1,,,,,,,,,,,,,gray,circle
188.0,3.0,2.0,0.0,3.0,3.0,417.7055619657039,3.0,1.0,phase_1,,,,,,,,,,,,,green,hexagon
29.0,1.0,0.5,0.0,2.0,2.0,458.5250318050384,3.0,1.0,phase_1,,,,,,,,,,,,,blue,cross
87.0,2.0,1.0,0.0,2.0,2.0,352.440033107996,3.0,1.0,phase_1,,,,,,,,,,,,,orange,diamond
178.0,7.0,2.0,1.0,3.0,3.0,471.388665959239,3.0,1.0,phase_1,,,,,,,,,,,,,yellow,flipped triangle
29.0,5.0,0.5,1.0,1.0,1.0,355.8453880250454,3.0,1.0,phase_1,,,,,,,,,,,,,white,square
192.0,7.0,2.0,1.0,4.0,4.0,472.4040776491165,3.0,1.0,phase_1,,,,,,,,,,,,,yellow,flipped triangle
418.0,8.0,4.0,1.0,2.0,2.0,362.2595127671957,3.0,1.0,phase_1,,,,,,,,,,,,,cyan,triangle
221.0,3.0,2.0,0.0,4.0,4.0,322.6046022027731,3.0,1.0,phase_1,,,,,,,,,,,,,green,hexagon
87.0,6.0,1.0,1.0,4.0,4.0,492.3394285142421,3.0,1.0,phase_1,,,,,,,,,,,,,magenta,I
0.0,7.0,0.0,1.0,3.0,3.0,379.2275693267584,3.0,1.0,phase_1,,,,,,,,,,,,,yellow,flipped triangle
188.0,7.0,2.0,1.0,1.0,1.0,301.5636876225471,3.0,1.0,phase_1,,,,,,,,,,,,,yellow,flipped triangle
0.0,1.0,0.0,0.0,3.0,3.0,411.1420065164566,3.0,1.0,phase_1,,,,,,,,,,,,,blue,cross
397.0,8.0,4.0,1.0,1.0,1.0,408.3960764110088,3.0,1.0,phase_1,,,,,,,,,,,,,cyan,triangle
421.0,4.0,4.0,0.0,2.0,2.0,411.0082685947418,3.0,1.0,phase_1,,,,,,,,,,,,,gray,circle
44.0,1.0,0.5,0.0,2.0,2.0,472.0301404595375,3.0,1.0,phase_1,,,,,,,,,,,,,blue,cross
0.0,3.0,0.0,0.0,2.0,2.0,488.2330000400543,3.0,1.0,phase_1,,,,,,,,,,,,,green,hexagon
223.0,3.0,2.0,0.0,1.0,1.0,329.2012009769678,3.0,1.0,phase_1,,,,,,,,,,,,,green,hexagon
0.0,2.0,0.0,0.0,3.0,3.0,424.71394687891,3.0,1.0,phase_1,,,,,,,,,,,,,orange,diamond
209.0,7.0,2.0,1.0,1.0,1.0,389.6431233733892,3.0,1.0,phase_1,,,,,,,,,,,,,yellow,flipped triangle
91.0,2.0,1.0,0.0,4.0,4.0,416.0518608987331,3.0,1.0,phase_1,,,,,,,,,,,,,orange,diamond
0.0,3.0,0.0,0.0,1.0,1.0,367.6597867161035,3.0,1.0,phase_1,,,,,,,,,,,,,green,hexagon
378.0,4.0,4.0,0.0,3.0,3.0,451.7656918615103,3.0,1.0,phase_1,,,,,,,,,,,,,gray,circle
0.0,3.0,0.0,0.0,2.0,2.0,423.3909752219915,3.0,1.0,phase_1,,,,,,,,,,,,,green,hexagon
98.0,2.0,1.0,0.0,3.0,3.0,565.9319330006838,3.0,1.0,phase_1,,,,,,,,,,,,,orange,diamond
0.0,3.0,0.0,0.0,3.0,3.0,456.4190208911896,3.0,1.0,phase_1,,,,,,,,,,,,,green,hexagon
0.0,5.0,0.0,1.0,4.0,4.0,587.5894390046597,3.0,1.0,phase_1,,,,,,,,,,,,,white,square
0.0,1.0,0.0,0.0,1.0,1.0,394.0120227634907,3.0,1.0,phase_1,,,,,,,,,,,,,blue,cross
0.0,6.0,0.0,1.0,1.0,1.0,437.9784930497408,3.0,1.0,phase_1,,,,,,,,,,,,,magenta,I
33.0,5.0,0.5,1.0,3.0,3.0,445.404315367341,3.0,1.0,phase_1,,,,,,,,,,,,,white,square
222.0,3.0,2.0,0.0,2.0,2.0,456.3886746764183,3.0,1.0,phase_1,,,,,,,,,,,,,green,hexagon
0.0,2.0,0.0,0.0,2.0,2.0,350.6116513162851,3.0,1.0,phase_1,,,,,,,,,,,,,orange,diamond
415.0,4.0,4.0,0.0,1.0,1.0,541.541276499629,4.0,1.0,phase_1,,,,,,,,,,,,,gray,circle
32.0,1.0,0.5,0.0,1.0,1.0,336.5012481808662,4.0,1.0,phase_1,,,,,,,,,,,,,blue,cross
218.0,3.0,2.0,0.0,3.0,3.0,350.8270252496004,4.0,1.0,phase_1,,,,,,,,,,,,,green,hexagon
220.0,7.0,2.0,1.0,4.0,4.0,354.2897831648588,4.0,1.0,phase_1,,,,,,,,,,,,,yellow,flipped triangle
0.0,4.0,0.0,0.0,2.0,2.0,302.897023037076,4.0,1.0,phase_1,,,,,,,,,,,,,gray,circle
410.0,8.0,4.0,1.0,3.0,3.0,339.6105170249939,4.0,1.0,phase_1,,,,,,,,,,,,,cyan,triangle
391.0,4.0,4.0,0.0,3.0,3.0,432.2182424366474,4.0,1.0,phase_1,,,,,,,,,,,,,gray,circle
418.0,4.0,4.0,0.0,4.0,4.0,429.030243307352,4.0,1.0,phase_1,,,,,,,,,,,,,gray,circle
0.0,2.0,0.0,0.0,3.0,3.0,396.8198858201504,4.0,1.0,phase_1,,,,,,,,,,,,,orange,diamond
206.0,7.0,2.0,1.0,3.0,3.0,421.6767363250255,4.0,1.0,phase_1,,,,,,,,,,,,,yellow,flipped triangle
32.0,1.0,0.5,0.0,2.0,2.0,393.9624316990375,4.0,1.0,phase_1,,,,,,,,,,,,,blue,cross
52.0,1.0,0.5,0.0,2.0,2.0,415.5753180384636,4.0,1.0,phase_1,,,,,,,,,,,,,blue,cross
178.0,7.0,2.0,1.0,2.0,2.0,403.8659073412418,4.0,1.0,phase_1,,,,,,,,,,,,,yellow,flipped triangle
96.0,6.0,1.0,1.0,4.0,4.0,384.7334142774343,4.0,1.0,phase_1,,,,,,,,,,,,,magenta,I
188.0,7.0,2.0,1.0,1.0,1.0,365.7160960137844,4.0,1.0,phase_1,,,,,,,,,,,,,yellow,flipped triangle
93.0,6.0,1.0,1.0,3.0,3.0,354.7672946006059,4.0,1.0,phase_1,,,,,,,,,,,,,magenta,I
0.0,6.0,0.0,1.0,4.0,4.0,551.5466872602701,4.0,1.0,phase_1,,,,,,,,,,,,,magenta,I
180.0,3.0,2.0,0.0,1.0,1.0,478.7602890282869,4.0,1.0,phase_1,,,,,,,,,,,,,green,hexagon
0.0,5.0,0.0,1.0,2.0,2.0,361.7167770862579,4.0,1.0,phase_1,,,,,,,,,,,,,white,square
0.0,5.0,0.0,1.0,1.0,1.0,342.6072690635919,4.0,1.0,phase_1,,,,,,,,,,,,,white,square
397.0,4.0,4.0,0.0,1.0,1.0,450.8060403168201,4.0,1.0,phase_1,,,,,,,,,,,,,gray,circle
114.0,6.0,1.0,1.0,2.0,2.0,541.7970679700375,4.0,1.0,phase_1,,,,,,,,,,,,,magenta,I
391.0,8.0,4.0,1.0,4.0,4.0,427.1417967975139,4.0,1.0,phase_1,,,,,,,,,,,,,cyan,triangle
403.0,4.0,4.0,0.0,2.0,2.0,450.8913792669773,4.0,1.0,phase_1,,,,,,,,,,,,,gray,circle
0.0,3.0,0.0,0.0,3.0,3.0,420.5926638096571,4.0,1.0,phase_1,,,,,,,,,,,,,green,hexagon
184.0,3.0,2.0,0.0,2.0,2.0,441.2361197173595,4.0,1.0,phase_1,,,,,,,,,,,,,green,hexagon
62.0,1.0,0.5,0.0,3.0,3.0,375.2830605953932,4.0,1.0,phase_1,,,,,,,,,,,,,blue,cross
41.0,5.0,0.5,1.0,2.0,2.0,265.7122276723385,4.0,1.0,phase_1,,,,,,,,,,,,,white,square
0.0,4.0,0.0,0.0,3.0,3.0,407.0686250925064,4.0,1.0,phase_1,,,,,,,,,,,,,gray,circle
218.0,7.0,2.0,1.0,1.0,1.0,446.4645255357027,4.0,1.0,phase_1,,,,,,,,,,,,,yellow,flipped triangle
82.0,6.0,1.0,1.0,2.0,2.0,402.8737302869558,4.0,1.0,phase_1,,,,,,,,,,,,,magenta,I
190.0,7.0,2.0,1.0,3.0,3.0,405.3370170295238,4.0,1.0,phase_1,,,,,,,,,,,,,yellow,flipped triangle
78.0,2.0,1.0,0.0,1.0,1.0,427.8335962444544,4.0,1.0,phase_1,,,,,,,,,,,,,orange,diamond
412.0,4.0,4.0,0.0,4.0,4.0,445.8887707442045,4.0,1.0,phase_1,,,,,,,,,,,,,gray,circle
214.0,3.0,2.0,0.0,1.0,1.0,404.5992530882358,4.0,1.0,phase_1,,,,,,,,,,,,,green,hexagon
78.0,6.0,1.0,1.0,1.0,1.0,426.4777805656194,4.0,1.0,phase_1,,,,,,,,,,,,,magenta,I
107.0,2.0,1.0,0.0,2.0,2.0,500.6648078560829,4.0,1.0,phase_1,,,,,,,,,,,,,orange,diamond
111.0,6.0,1.0,1.0,4.0,4.0,412.9416961222887,4.0,1.0,phase_1,,,,,,,,,,,,,magenta,I
393.0,8.0,4.0,1.0,3.0,3.0,373.7527392804622,4.0,1.0,phase_1,,,,,,,,,,,,,cyan,triangle
92.0,6.0,1.0,1.0,4.0,4.0,442.8956918418407,4.0,1.0,phase_1,,,,,,,,,,,,,magenta,I
391.0,4.0,4.0,0.0,1.0,1.0,350.8046753704548,4.0,1.0,phase_1,,,,,,,,,,,,,gray,circle
196.0,3.0,2.0,0.0,2.0,2.0,691.5887370705605,4.0,1.0,phase_1,,,,,,,,,,,,,green,hexagon
49.0,5.0,0.5,1.0,1.0,1.0,472.1105489879846,4.0,1.0,phase_1,,,,,,,,,,,,,white,square
120.0,2.0,1.0,0.0,2.0,2.0,487.7201039344072,4.0,1.0,phase_1,,,,,,,,,,,,,orange,diamond
424.0,8.0,4.0,1.0,1.0,1.0,507.0445165038109,4.0,1.0,phase_1,,,,,,,,,,,,,cyan,triangle
26.0,1.0,0.5,0.0,3.0,3.0,701.9063513725996,4.0,2.0,phase_1,,,,,,,,,,,,,blue,cross
412.0,8.0,4.0,1.0,3.0,3.0,543.9898632466793,4.0,1.0,phase_1,,,,,,,,,,,,,cyan,triangle
224.0,3.0,2.0,0.0,2.0,2.0,432.1523737162351,4.0,1.0,phase_1,,,,,,,,,,,,,green,hexagon
0.0,1.0,0.0,0.0,4.0,4.0,417.2812942415476,4.0,1.0,phase_1,,,,,,,,,,,,,blue,cross
107.0,6.0,1.0,1.0,4.0,4.0,432.4365444481373,4.0,1.0,phase_1,,,,,,,,,,,,,magenta,I
0.0,8.0,0.0,1.0,3.0,3.0,509.11981239914894,4.0,1.0,phase_1,,,,,,,,,,,,,cyan,triangle
0.0,4.0,0.0,0.0,2.0,2.0,426.8249198794365,4.0,1.0,phase_1,,,,,,,,,,,,,gray,circle
81.0,2.0,1.0,0.0,3.0,3.0,365.1571776717901,4.0,1.0,phase_1,,,,,,,,,,,,,orange,diamond
0.0,2.0,0.0,0.0,1.0,1.0,426.6720227897167,4.0,1.0,phase_1,,,,,,,,,,,,,orange,diamond
71.0,5.0,0.5,1.0,4.0,4.0,367.1694435179233,4.0,1.0,phase_1,,,,,,,,,,,,,white,square
403.0,4.0,4.0,0.0,1.0,1.0,501.4610346406698,4.0,1.0,phase_1,,,,,,,,,,,,,gray,circle
398.0,4.0,4.0,0.0,3.0,3.0,488.3296098560095,4.0,1.0,phase_1,,,,,,,,,,,,,gray,circle
0.0,4.0,0.0,0.0,1.0,1.0,445.7361213862896,4.0,1.0,phase_1,,,,,,,,,,,,,gray,circle
106.0,2.0,1.0,0.0,3.0,3.0,370.4933188855648,4.0,1.0,phase_1,,,,,,,,,,,,,orange,diamond
50.0,5.0,0.5,1.0,1.0,1.0,446.5297423303127,4.0,1.0,phase_1,,,,,,,,,,,,,white,square
179.0,3.0,2.0,0.0,3.0,3.0,385.429460555315,4.0,1.0,phase_1,,,,,,,,,,,,,green,hexagon
91.0,6.0,1.0,1.0,2.0,2.0,512.4737229198217,4.0,1.0,phase_1,,,,,,,,,,,,,magenta,I
192.0,3.0,2.0,0.0,2.0,2.0,437.851658090949,4.0,1.0,phase_1,,,,,,,,,,,,,green,hexagon
104.0,2.0,1.0,0.0,2.0,2.0,514.776911586523,4.0,1.0,phase_1,,,,,,,,,,,,,orange,diamond
403.0,8.0,4.0,1.0,3.0,3.0,382.9095233231783,4.0,1.0,phase_1,,,,,,,,,,,,,cyan,triangle
393.0,8.0,4.0,1.0,2.0,2.0,402.8676357120275,4.0,1.0,phase_1,,,,,,,,,,,,,cyan,triangle
55.0,1.0,0.5,0.0,1.0,1.0,582.7913135290146,4.0,1.0,phase_1,,,,,,,,,,,,,blue,cross
57.0,1.0,0.5,0.0,2.0,2.0,410.7485916465521,4.0,1.0,phase_1,,,,,,,,,,,,,blue,cross
408.0,8.0,4.0,1.0,3.0,3.0,391.2751134485006,4.0,1.0,phase_1,,,,,,,,,,,,,cyan,triangle
197.0,3.0,2.0,0.0,3.0,3.0,494.7930406779051,4.0,1.0,phase_1,,,,,,,,,,,,,green,hexagon
77.0,2.0,1.0,0.0,1.0,1.0,459.3097511678934,4.0,1.0,phase_1,,,,,,,,,,,,,orange,diamond
71.0,1.0,0.5,0.0,1.0,1.0,496.4718725532293,4.0,1.0,phase_1,,,,,,,,,,,,,blue,cross
92.0,2.0,1.0,0.0,4.0,4.0,532.4775483459234,4.0,1.0,phase_1,,,,,,,,,,,,,orange,diamond
66.0,5.0,0.5,1.0,4.0,4.0,512.1932942420244,4.0,1.0,phase_1,,,,,,,,,,,,,white,square
188.0,3.0,2.0,0.0,4.0,4.0,430.309159681201,4.0,1.0,phase_1,,,,,,,,,,,,,green,hexagon
386.0,8.0,4.0,1.0,2.0,2.0,434.6744064241647,4.0,1.0,phase_1,,,,,,,,,,,,,cyan,triangle
118.0,2.0,1.0,0.0,2.0,2.0,551.3459295034409,4.0,1.0,phase_1,,,,,,,,,,,,,orange,diamond
0.0,7.0,0.0,1.0,2.0,2.0,393.9676657319069,4.0,1.0,phase_1,,,,,,,,,,,,,yellow,flipped triangle
217.0,3.0,2.0,0.0,4.0,4.0,545.2312082052231,4.0,1.0,phase_1,,,,,,,,,,,,,green,hexagon
377.0,4.0,4.0,0.0,2.0,2.0,395.1535746455192,4.0,1.0,phase_1,,,,,,,,,,,,,gray,circle
31.0,5.0,0.5,1.0,4.0,4.0,418.7364391982555,4.0,1.0,phase_1,,,,,,,,,,,,,white,square
181.0,7.0,2.0,1.0,3.0,3.0,419.5381477475166,4.0,1.0,phase_1,,,,,,,,,,,,,yellow,flipped triangle
117.0,2.0,1.0,0.0,4.0,4.0,490.2839828282594,4.0,1.0,phase_1,,,,,,,,,,,,,orange,diamond
0.0,8.0,0.0,1.0,4.0,4.0,445.3146774321794,4.0,1.0,phase_1,,,,,,,,,,,,,cyan,triangle
0.0,6.0,0.0,1.0,1.0,1.0,452.5755513459444,4.0,1.0,phase_1,,,,,,,,,,,,,magenta,I
63.0,5.0,0.5,1.0,2.0,2.0,375.2141129225492,4.0,1.0,phase_1,,,,,,,,,,,,,white,square
184.0,7.0,2.0,1.0,2.0,2.0,563.659805804491,4.0,1.0,phase_1,,,,,,,,,,,,,yellow,flipped triangle
192.0,7.0,2.0,1.0,3.0,3.0,386.1507587134838,4.0,1.0,phase_1,,,,,,,,,,,,,yellow,flipped triangle
101.0,2.0,1.0,0.0,3.0,3.0,453.034920617938,4.0,1.0,phase_1,,,,,,,,,,,,,orange,diamond
190.0,7.0,2.0,1.0,1.0,1.0,394.9361201375723,4.0,1.0,phase_1,,,,,,,,,,,,,yellow,flipped triangle
224.0,7.0,2.0,1.0,4.0,4.0,528.0036572366953,4.0,1.0,phase_1,,,,,,,,,,,,,yellow,flipped triangle
222.0,3.0,2.0,0.0,2.0,2.0,508.563494309783,4.0,1.0,phase_1,,,,,,,,,,,,,green,hexagon
42.0,5.0,0.5,1.0,4.0,4.0,424.4813323020935,4.0,1.0,phase_1,,,,,,,,,,,,,white,square
403.0,4.0,4.0,0.0,4.0,4.0,693.9138676971197,4.0,1.0,phase_1,,,,,,,,,,,,,gray,circle
0.0,4.0,0.0,0.0,4.0,4.0,699.7590269893408,4.0,1.0,phase_1,,,,,,,,,,,,,gray,circle
42.0,1.0,0.5,0.0,3.0,3.0,501.40383653342724,4.0,1.0,phase_1,,,,,,,,,,,,,blue,cross
423.0,8.0,4.0,1.0,2.0,2.0,443.049281835556,4.0,1.0,phase_1,,,,,,,,,,,,,cyan,triangle
0.0,2.0,0.0,0.0,1.0,1.0,425.5797788500786,4.0,1.0,phase_1,,,,,,,,,,,,,orange,diamond
203.0,3.0,2.0,0.0,3.0,3.0,436.2900666892528,4.0,1.0,phase_1,,,,,,,,,,,,,green,hexagon
68.0,1.0,0.5,0.0,2.0,2.0,377.4377107620239,4.0,1.0,phase_1,,,,,,,,,,,,,blue,cross
0.0,3.0,2.0,0.0,6.0,6.0,501.91361643373966,1.0,1.0,phase_2,go,250.0,250.0,1.0,,,,,,,,,green,hexagon
0.0,5.0,0.5,1.0,5.0,5.0,309.290200471878,1.0,1.0,phase_2,stop,250.0,250.0,3.0,,,,,,,,,white,square
0.0,4.0,4.0,0.0,5.0,5.0,484.384274110198,1.0,1.0,phase_2,go,200.0,250.0,1.0,,,,,,,,,gray,circle
0.0,3.0,2.0,0.0,6.0,6.0,379.3605212122202,1.0,1.0,phase_2,go,200.0,250.0,1.0,,,,,,,,,green,hexagon
0.0,1.0,0.5,0.0,5.0,5.0,494.1726680845022,1.0,1.0,phase_2,go,200.0,250.0,1.0,,,,,,,,,blue,cross
0.0,6.0,1.0,1.0,5.0,0.0,0.0,1.0,1.0,phase_2,stop,200.0,250.0,4.0,,,,,,,,,magenta,I
0.0,3.0,2.0,0.0,6.0,6.0,260.0879427045584,1.0,1.0,phase_2,go,250.0,250.0,1.0,,,,,,,,,green,hexagon
0.0,6.0,1.0,1.0,5.0,5.0,589.356143027544,1.0,1.0,phase_2,go,250.0,250.0,1.0,,,,,,,,,magenta,I
0.0,3.0,2.0,0.0,5.0,5.0,361.230157315731,1.0,1.0,phase_2,go,250.0,250.0,1.0,,,,,,,,,green,hexagon
0.0,4.0,4.0,0.0,6.0,6.0,347.8299882262945,1.0,1.0,phase_2,go,250.0,250.0,1.0,,,,,,,,,gray,circle
0.0,1.0,0.5,0.0,5.0,5.0,424.6538821607828,1.0,1.0,phase_2,go,250.0,250.0,1.0,,,,,,,,,blue,cross
0.0,3.0,2.0,0.0,5.0,5.0,328.0041422694921,1.0,1.0,phase_2,go,250.0,250.0,1.0,,,,,,,,,green,hexagon
0.0,1.0,0.5,0.0,5.0,5.0,401.7940312623977,1.0,1.0,phase_2,go,250.0,250.0,1.0,,,,,,,,,blue,cross
0.0,1.0,0.5,0.0,6.0,6.0,391.008174046874,1.0,1.0,phase_2,go,250.0,250.0,1.0,,,,,,,,,blue,cross
0.0,7.0,2.0,1.0,5.0,5.0,310.9301421791315,1.0,1.0,phase_2,go,250.0,250.0,1.0,,,,,,,,,yellow,flipped triangle
0.0,8.0,4.0,1.0,5.0,5.0,384.2157013714313,1.0,1.0,phase_2,stop,250.0,250.0,3.0,,,,,,,,,cyan,triangle
0.0,7.0,2.0,1.0,6.0,6.0,624.4374848902225,1.0,1.0,phase_2,go,200.0,250.0,1.0,,,,,,,,,yellow,flipped triangle
0.0,7.0,2.0,1.0,5.0,5.0,270.2978122979402,1.0,1.0,phase_2,stop,200.0,250.0,3.0,,,,,,,,,yellow,flipped triangle
0.0,4.0,4.0,0.0,6.0,6.0,571.256285533309,1.0,1.0,phase_2,go,150.0,250.0,1.0,,,,,,,,,gray,circle
0.0,3.0,2.0,0.0,6.0,6.0,644.9489407241344,1.0,1.0,phase_2,go,150.0,250.0,1.0,,,,,,,,,green,hexagon
0.0,5.0,0.5,1.0,5.0,0.0,0.0,1.0,1.0,phase_2,stop,150.0,250.0,4.0,,,,,,,,,white,square
0.0,6.0,1.0,1.0,6.0,6.0,322.2483918070793,1.0,1.0,phase_2,stop,200.0,250.0,3.0,,,,,,,,,magenta,I
0.0,6.0,1.0,1.0,5.0,5.0,689.0630107372999,1.0,1.0,phase_2,go,200.0,200.0,1.0,,,,,,,,,magenta,I
0.0,3.0,2.0,0.0,6.0,6.0,483.9659910649061,1.0,1.0,phase_2,go,200.0,200.0,1.0,,,,,,,,,green,hexagon
0.0,5.0,0.5,1.0,6.0,0.0,0.0,1.0,1.0,phase_2,stop,200.0,200.0,4.0,,,,,,,,,white,square
0.0,8.0,4.0,1.0,6.0,0.0,0.0,1.0,1.0,phase_2,stop,200.0,250.0,4.0,,,,,,,,,cyan,triangle
0.0,1.0,0.5,0.0,5.0,5.0,674.5963599532843,1.0,1.0,phase_2,go,200.0,300.0,1.0,,,,,,,,,blue,cross
0.0,3.0,2.0,0.0,6.0,6.0,665.3800494968891,1.0,1.0,phase_2,go,200.0,300.0,1.0,,,,,,,,,green,hexagon
0.0,5.0,0.5,1.0,6.0,6.0,477.94284299016,1.0,1.0,phase_2,stop,200.0,300.0,3.0,,,,,,,,,white,square
0.0,3.0,2.0,0.0,6.0,6.0,688.0634035915136,1.0,1.0,phase_2,go,200.0,250.0,1.0,,,,,,,,,green,hexagon
0.0,3.0,2.0,0.0,5.0,5.0,656.6309984773397,1.0,1.0,phase_2,go,200.0,250.0,1.0,,,,,,,,,green,hexagon
0.0,5.0,0.5,1.0,6.0,6.0,342.8881913423538,1.0,1.0,phase_2,stop,200.0,250.0,3.0,,,,,,,,,white,square
0.0,7.0,2.0,1.0,6.0,0.0,0.0,1.0,1.0,phase_2,stop,200.0,200.0,4.0,,,,,,,,,yellow,flipped triangle
0.0,4.0,4.0,0.0,6.0,6.0,675.507104024291,1.0,1.0,phase_2,go,200.0,250.0,1.0,,,,,,,,,gray,circle
0.0,1.0,0.5,0.0,6.0,6.0,590.5158817768097,1.0,1.0,phase_2,go,200.0,250.0,1.0,,,,,,,,,blue,cross
0.0,4.0,4.0,0.0,5.0,5.0,517.9674308747053,1.0,1.0,phase_2,go,200.0,250.0,1.0,,,,,,,,,gray,circle
0.0,6.0,1.0,1.0,5.0,0.0,0.0,2.0,1.0,phase_2,stop,200.0,250.0,4.0,,,,,,,,,magenta,I
0.0,7.0,2.0,1.0,5.0,0.0,0.0,2.0,1.0,phase_2,stop,250.0,250.0,4.0,,,,,,,,,yellow,flipped triangle
0.0,1.0,0.5,0.0,6.0,6.0,799.1878315806389,2.0,1.0,phase_2,go,300.0,250.0,1.0,,,,,,,,,blue,cross
0.0,1.0,0.5,0.0,6.0,6.0,743.1437522172928,2.0,1.0,phase_2,go,300.0,250.0,1.0,,,,,,,,,blue,cross
0.0,4.0,4.0,0.0,6.0,6.0,622.7492596954107,2.0,1.0,phase_2,go,300.0,250.0,1.0,,,,,,,,,gray,circle
0.0,2.0,1.0,0.0,5.0,5.0,526.8720351159573,2.0,1.0,phase_2,go,300.0,250.0,1.0,,,,,,,,,orange,diamond
0.0,2.0,1.0,0.0,6.0,6.0,278.9990808814764,2.0,1.0,phase_2,go,300.0,250.0,1.0,,,,,,,,,orange,diamond
0.0,7.0,2.0,1.0,6.0,6.0,363.2951099425554,2.0,1.0,phase_2,stop,300.0,250.0,3.0,,,,,,,,,yellow,flipped triangle
0.0,3.0,2.0,0.0,5.0,5.0,734.1694794595242,2.0,1.0,phase_2,go,300.0,200.0,1.0,,,,,,,,,green,hexagon
0.0,1.0,0.5,0.0,5.0,5.0,466.1900121718645,2.0,1.0,phase_2,go,300.0,200.0,1.0,,,,,,,,,blue,cross
0.0,6.0,1.0,1.0,5.0,0.0,0.0,2.0,1.0,phase_2,stop,300.0,200.0,4.0,,,,,,,,,magenta,I
0.0,6.0,1.0,1.0,6.0,6.0,682.6388444751501,2.0,1.0,phase_2,go,350.0,200.0,1.0,,,,,,,,,magenta,I
0.0,5.0,0.5,1.0,5.0,5.0,451.1190913617611,2.0,1.0,phase_2,stop,350.0,200.0,3.0,,,,,,,,,white,square
0.0,1.0,0.5,0.0,5.0,5.0,575.979819521308,2.0,1.0,phase_2,go,300.0,200.0,1.0,,,,,,,,,blue,cross
0.0,5.0,0.5,1.0,6.0,0.0,0.0,2.0,1.0,phase_2,stop,300.0,200.0,4.0,,,,,,,,,white,square
0.0,2.0,1.0,0.0,5.0,5.0,530.459763482213,2.0,1.0,phase_2,go,300.0,250.0,1.0,,,,,,,,,orange,diamond
0.0,1.0,0.5,0.0,6.0,6.0,696.9487685710192,2.0,1.0,phase_2,go,300.0,250.0,1.0,,,,,,,,,blue,cross
0.0,5.0,0.5,1.0,5.0,0.0,0.0,2.0,1.0,phase_2,stop,300.0,250.0,4.0,,,,,,,,,white,square
0.0,6.0,1.0,1.0,6.0,0.0,0.0,2.0,1.0,phase_2,stop,350.0,250.0,4.0,,,,,,,,,magenta,I
0.0,3.0,2.0,0.0,5.0,5.0,464.0683084726333,2.0,1.0,phase_2,go,350.0,300.0,1.0,,,,,,,,,green,hexagon
0.0,3.0,2.0,0.0,5.0,5.0,372.299836948514,2.0,1.0,phase_2,go,350.0,300.0,1.0,,,,,,,,,green,hexagon
0.0,5.0,0.5,1.0,6.0,0.0,0.0,2.0,1.0,phase_2,stop,350.0,300.0,4.0,,,,,,,,,white,square
0.0,5.0,0.5,1.0,6.0,0.0,0.0,2.0,1.0,phase_2,stop,350.0,350.0,4.0,,,,,,,,,white,square
0.0,4.0,4.0,0.0,5.0,5.0,652.0888935774565,2.0,1.0,phase_2,go,350.0,400.0,1.0,,,,,,,,,gray,circle
0.0,6.0,1.0,1.0,5.0,0.0,0.0,2.0,1.0,phase_2,stop,350.0,400.0,4.0,,,,,,,,,magenta,I
0.0,8.0,4.0,1.0,5.0,5.0,482.9677026718855,2.0,1.0,phase_2,stop,400.0,400.0,3.0,,,,,,,,,cyan,triangle
0.0,5.0,0.5,1.0,6.0,6.0,924.2952316999437,2.0,1.0,phase_2,go,350.0,400.0,1.0,,,,,,,,,white,square
0.0,6.0,1.0,1.0,5.0,5.0,711.7760311812162,2.0,1.0,phase_2,go,350.0,400.0,1.0,,,,,,,,,magenta,I
0.0,8.0,4.0,1.0,5.0,5.0,864.6983243525028,2.0,1.0,phase_2,go,350.0,400.0,1.0,,,,,,,,,cyan,triangle
0.0,4.0,4.0,0.0,6.0,6.0,490.133648738265,2.0,1.0,phase_2,go,350.0,400.0,1.0,,,,,,,,,gray,circle
0.0,3.0,2.0,0.0,6.0,6.0,542.3813387751579,2.0,1.0,phase_2,go,350.0,400.0,1.0,,,,,,,,,green,hexagon
0.0,7.0,2.0,1.0,6.0,0.0,0.0,2.0,1.0,phase_2,stop,350.0,400.0,4.0,,,,,,,,,yellow,flipped triangle
0.0,3.0,2.0,0.0,6.0,6.0,597.0306005328894,2.0,1.0,phase_2,go,350.0,450.0,1.0,,,,,,,,,green,hexagon
0.0,2.0,1.0,0.0,5.0,5.0,292.3838552087545,2.0,1.0,phase_2,go,350.0,450.0,1.0,,,,,,,,,orange,diamond
0.0,7.0,2.0,1.0,6.0,0.0,0.0,2.0,1.0,phase_2,stop,350.0,450.0,4.0,,,,,,,,,yellow,flipped triangle
0.0,1.0,0.5,0.0,5.0,5.0,581.7063823342323,2.0,1.0,phase_2,go,350.0,500.0,1.0,,,,,,,,,blue,cross
0.0,8.0,4.0,1.0,5.0,0.0,0.0,3.0,1.0,phase_2,stop,350.0,500.0,4.0,,,,,,,,,cyan,triangle
0.0,6.0,1.0,1.0,6.0,0.0,0.0,3.0,1.0,phase_2,stop,400.0,500.0,4.0,,,,,,,,,magenta,I
0.0,4.0,4.0,0.0,5.0,5.0,521.6654185205698,3.0,1.0,phase_2,go,400.0,550.0,1.0,,,,,,,,,gray,circle
0.0,8.0,4.0,1.0,6.0,0.0,0.0,3.0,1.0,phase_2,stop,400.0,550.0,4.0,,,,,,,,,cyan,triangle
0.0,3.0,2.0,0.0,5.0,5.0,798.5752653330564,3.0,1.0,phase_2,go,400.0,600.0,1.0,,,,,,,,,green,hexagon
0.0,2.0,1.0,0.0,6.0,6.0,568.9009968191385,3.0,1.0,phase_2,go,400.0,600.0,1.0,,,,,,,,,orange,diamond
0.0,5.0,0.5,1.0,6.0,6.0,421.4737005531788,3.0,1.0,phase_2,stop,400.0,600.0,3.0,,,,,,,,,white,square
0.0,8.0,4.0,1.0,6.0,0.0,0.0,3.0,1.0,phase_2,stop,400.0,550.0,4.0,,,,,,,,,cyan,triangle
0.0,4.0,4.0,0.0,5.0,5.0,800.4942927509546,3.0,1.0,phase_2,go,400.0,600.0,1.0,,,,,,,,,gray,circle
0.0,8.0,4.0,1.0,6.0,0.0,0.0,3.0,1.0,phase_2,stop,400.0,600.0,4.0,,,,,,,,,cyan,triangle
0.0,8.0,4.0,1.0,6.0,0.0,0.0,3.0,1.0,phase_2,stop,400.0,650.0,4.0,,,,,,,,,cyan,triangle
0.0,2.0,1.0,0.0,5.0,5.0,366.4894457906484,3.0,1.0,phase_2,go,400.0,700.0,1.0,,,,,,,,,orange,diamond
0.0,5.0,0.5,1.0,5.0,5.0,1028.3567812293768,3.0,1.0,phase_2,go,400.0,700.0,1.0,,,,,,,,,white,square
0.0,7.0,2.0,1.0,5.0,0.0,0.0,3.0,1.0,phase_2,stop,400.0,700.0,4.0,,,,,,,,,yellow,flipped triangle
0.0,5.0,0.5,1.0,5.0,5.0,810.3640843182802,3.0,1.0,phase_2,go,450.0,700.0,1.0,,,,,,,,,white,square
0.0,6.0,1.0,1.0,6.0,6.0,681.4500149339437,3.0,1.0,phase_2,stop,450.0,700.0,3.0,,,,,,,,,magenta,I
0.0,6.0,1.0,1.0,5.0,0.0,0.0,3.0,1.0,phase_2,stop,450.0,650.0,4.0,,,,,,,,,magenta,I
0.0,4.0,4.0,0.0,5.0,5.0,538.4282656013966,3.0,1.0,phase_2,go,500.0,650.0,1.0,,,,,,,,,gray,circle
0.0,6.0,1.0,1.0,6.0,6.0,746.1091745644808,3.0,1.0,phase_2,go,500.0,650.0,1.0,,,,,,,,,magenta,I
0.0,2.0,1.0,0.0,5.0,5.0,321.3096689432859,3.0,1.0,phase_2,go,500.0,650.0,1.0,,,,,,,,,orange,diamond
0.0,4.0,4.0,0.0,5.0,5.0,384.8928660154342,3.0,1.0,phase_2,go,500.0,650.0,1.0,,,,,,,,,gray,circle
0.0,1.0,0.5,0.0,6.0,6.0,695.438714697957,3.0,1.0,phase_2,go,500.0,650.0,1.0,,,,,,,,,blue,cross
0.0,2.0,1.0,0.0,6.0,6.0,558.3366304636002,3.0,1.0,phase_2,go,500.0,650.0,1.0,,,,,,,,,orange,diamond
0.0,6.0,1.0,1.0,6.0,6.0,356.4565032720566,3.0,1.0,phase_2,go,500.0,650.0,1.0,,,,,,,,,magenta,I
0.0,3.0,2.0,0.0,5.0,5.0,254.494184628129,3.0,1.0,phase_2,go,500.0,650.0,1.0,,,,,,,,,green,hexagon
0.0,8.0,4.0,1.0,5.0,5.0,325.5813047289848,3.0,1.0,phase_2,stop,500.0,650.0,3.0,,,,,,,,,cyan,triangle
0.0,2.0,1.0,0.0,6.0,6.0,707.7332343906164,3.0,1.0,phase_2,go,450.0,650.0,1.0,,,,,,,,,orange,diamond
0.0,5.0,0.5,1.0,5.0,0.0,0.0,3.0,1.0,phase_2,stop,450.0,650.0,4.0,,,,,,,,,white,square
0.0,4.0,4.0,0.0,5.0,5.0,636.3852247595787,3.0,1.0,phase_2,go,500.0,650.0,1.0,,,,,,,,,gray,circle
0.0,4.0,4.0,0.0,5.0,5.0,468.6070829629898,3.0,1.0,phase_2,go,500.0,650.0,1.0,,,,,,,,,gray,circle
0.0,2.0,1.0,0.0,6.0,6.0,747.1069488674402,3.0,1.0,phase_2,go,500.0,650.0,1.0,,,,,,,,,orange,diamond
0.0,4.0,4.0,0.0,5.0,5.0,603.6762427538633,3.0,1.0,phase_2,go,500.0,650.0,1.0,,,,,,,,,gray,circle
0.0,7.0,2.0,1.0,5.0,0.0,0.0,3.0,1.0,phase_2,stop,500.0,650.0,4.0,,,,,,,,,yellow,flipped triangle
0.0,2.0,1.0,0.0,6.0,6.0,799.5315715670586,3.0,1.0,phase_2,go,550.0,650.0,1.0,,,,,,,,,orange,diamond
0.0,2.0,1.0,0.0,5.0,5.0,454.6810239553451,3.0,1.0,phase_2,go,550.0,650.0,1.0,,,,,,,,,orange,diamond
0.0,8.0,4.0,1.0,6.0,6.0,768.7206082046032,3.0,1.0,phase_2,go,550.0,650.0,1.0,,,,,,,,,cyan,triangle
0.0,4.0,4.0,0.0,5.0,5.0,1069.4846604019403,4.0,1.0,phase_2,go,550.0,650.0,1.0,,,,,,,,,gray,circle
0.0,6.0,1.0,1.0,5.0,5.0,441.2633217871189,4.0,1.0,phase_2,stop,550.0,650.0,3.0,,,,,,,,,magenta,I
0.0,5.0,0.5,1.0,5.0,5.0,372.1618596464395,4.0,1.0,phase_2,stop,500.0,650.0,3.0,,,,,,,,,white,square
0.0,2.0,1.0,0.0,6.0,6.0,552.1694477647543,4.0,1.0,phase_2,go,450.0,650.0,1.0,,,,,,,,,orange,diamond
0.0,5.0,0.5,1.0,6.0,6.0,762.6253869384527,4.0,1.0,phase_2,stop,450.0,650.0,3.0,,,,,,,,,white,square
0.0,7.0,2.0,1.0,6.0,0.0,0.0,4.0,1.0,phase_2,stop,450.0,600.0,4.0,,,,,,,,,yellow,flipped triangle
0.0,2.0,1.0,0.0,6.0,6.0,838.0880653858185,4.0,1.0,phase_2,go,450.0,650.0,1.0,,,,,,,,,orange,diamond
0.0,1.0,0.5,0.0,5.0,5.0,735.7470002025366,4.0,1.0,phase_2,go,450.0,650.0,1.0,,,,,,,,,blue,cross
0.0,4.0,4.0,0.0,6.0,6.0,687.5861138105392,4.0,1.0,phase_2,go,450.0,650.0,1.0,,,,,,,,,gray,circle
0.0,6.0,1.0,1.0,6.0,6.0,768.4763018041849,4.0,1.0,phase_2,stop,450.0,650.0,3.0,,,,,,,,,magenta,I
0.0,8.0,4.0,1.0,5.0,0.0,0.0,4.0,1.0,phase_2,stop,450.0,600.0,4.0,,,,,,,,,cyan,triangle
0.0,7.0,2.0,1.0,5.0,0.0,0.0,4.0,1.0,phase_2,stop,500.0,600.0,4.0,,,,,,,,,yellow,flipped triangle
0.0,2.0,1.0,0.0,5.0,5.0,986.7110792547464,4.0,1.0,phase_2,go,550.0,600.0,1.0,,,,,,,,,orange,diamond
0.0,7.0,2.0,1.0,5.0,0.0,0.0,4.0,1.0,phase_2,stop,550.0,600.0,4.0,,,,,,,,,yellow,flipped triangle
0.0,5.0,0.5,1.0,6.0,6.0,1028.374020010233,4.0,1.0,phase_2,go,600.0,600.0,1.0,,,,,,,,,white,square
0.0,1.0,0.5,0.0,6.0,6.0,828.3336646854877,4.0,1.0,phase_2,go,600.0,600.0,1.0,,,,,,,,,blue,cross
0.0,7.0,2.0,1.0,6.0,0.0,0.0,4.0,1.0,phase_2,stop,600.0,600.0,4.0,,,,,,,,,yellow,flipped triangle
0.0,5.0,0.5,1.0,6.0,6.0,810.9259568154812,4.0,1.0,phase_2,stop,600.0,650.0,3.0,,,,,,,,,white,square
0.0,6.0,1.0,1.0,5.0,5.0,721.9802364706993,4.0,1.0,phase_2,stop,600.0,600.0,3.0,,,,,,,,,magenta,I
0.0,1.0,0.5,0.0,6.0,6.0,1186.4922512322664,4.0,1.0,phase_2,go,550.0,600.0,1.0,,,,,,,,,blue,cross
0.0,8.0,4.0,1.0,5.0,0.0,0.0,4.0,1.0,phase_2,stop,550.0,600.0,4.0,,,,,,,,,cyan,triangle
0.0,7.0,2.0,1.0,5.0,0.0,0.0,4.0,1.0,phase_2,stop,600.0,600.0,4.0,,,,,,,,,yellow,flipped triangle
0.0,3.0,2.0,0.0,6.0,6.0,878.0354466289282,4.0,1.0,phase_2,go,650.0,600.0,1.0,,,,,,,,,green,hexagon
0.0,4.0,4.0,0.0,6.0,6.0,524.5405361056328,4.0,1.0,phase_2,go,650.0,600.0,1.0,,,,,,,,,gray,circle
0.0,3.0,2.0,0.0,6.0,6.0,622.5484907627106,4.0,1.0,phase_2,go,650.0,600.0,1.0,,,,,,,,,green,hexagon
0.0,2.0,1.0,0.0,5.0,5.0,861.6369310766459,4.0,1.0,phase_2,go,650.0,600.0,1.0,,,,,,,,,orange,diamond
0.0,2.0,1.0,0.0,6.0,6.0,691.4070583879948,4.0,1.0,phase_2,go,650.0,600.0,1.0,,,,,,,,,orange,diamond
0.0,7.0,2.0,1.0,5.0,5.0,574.223980307579,4.0,1.0,phase_2,stop,650.0,600.0,3.0,,,,,,,,,yellow,flipped triangle
0.0,1.0,0.5,0.0,5.0,0.0,0.0,4.0,1.0,phase_2,go,600.0,600.0,5.0,,,,,,,,,blue,cross
0.0,4.0,4.0,0.0,5.0,5.0,505.4127611219883,4.0,1.0,phase_2,go,600.0,600.0,1.0,,,,,,,,,gray,circle
0.0,4.0,4.0,0.0,6.0,6.0,289.3943917006254,4.0,1.0,phase_2,go,600.0,600.0,1.0,,,,,,,,,gray,circle
0.0,5.0,0.5,1.0,5.0,5.0,512.6892197877169,4.0,1.0,phase_2,go,600.0,600.0,1.0,,,,,,,,,white,square
0.0,5.0,0.5,1.0,6.0,6.0,283.3032999187708,4.0,1.0,phase_2,stop,600.0,600.0,3.0,,,,,,,,,white,square
0.0,5.0,0.5,1.0,5.0,0.0,0.0,4.0,1.0,phase_2,stop,600.0,550.0,4.0,,,,,,,,,white,square
0.0,1.0,0.5,0.0,6.0,6.0,743.6816077679396,4.0,1.0,phase_2,go,650.0,550.0,1.0,,,,,,,,,blue,cross
0.0,8.0,4.0,1.0,6.0,6.0,618.4440646320581,4.0,1.0,phase_2,stop,650.0,550.0,3.0,,,,,,,,,cyan,triangle
0.0,4.0,4.0,0.0,6.0,6.0,555.9841264039278,5.0,1.0,phase_2,go,650.0,500.0,1.0,,,,,,,,,gray,circle
0.0,2.0,1.0,0.0,6.0,6.0,486.7496378719806,5.0,1.0,phase_2,go,650.0,500.0,1.0,,,,,,,,,orange,diamond
0.0,2.0,1.0,0.0,6.0,6.0,356.5655406564474,5.0,1.0,phase_2,go,650.0,500.0,1.0,,,,,,,,,orange,diamond
0.0,8.0,4.0,1.0,6.0,6.0,370.3434709459543,5.0,1.0,phase_2,stop,650.0,500.0,3.0,,,,,,,,,cyan,triangle
0.0,1.0,0.5,0.0,5.0,5.0,521.6626431792974,5.0,1.0,phase_2,go,650.0,450.0,1.0,,,,,,,,,blue,cross
0.0,6.0,1.0,1.0,6.0,6.0,373.0943128466606,5.0,1.0,phase_2,stop,650.0,450.0,3.0,,,,,,,,,magenta,I
0.0,6.0,1.0,1.0,5.0,0.0,0.0,5.0,1.0,phase_2,stop,650.0,400.0,4.0,,,,,,,,,magenta,I
0.0,5.0,0.5,1.0,5.0,5.0,835.6561698019505,5.0,1.0,phase_2,stop,700.0,400.0,3.0,,,,,,,,,white,square
0.0,3.0,2.0,0.0,5.0,5.0,985.634721815586,5.0,1.0,phase_2,go,650.0,400.0,1.0,,,,,,,,,green,hexagon
0.0,2.0,1.0,0.0,5.0,5.0,554.8450443893671,5.0,1.0,phase_2,go,650.0,400.0,1.0,,,,,,,,,orange,diamond
0.0,8.0,4.0,1.0,6.0,6.0,337.5552129000425,5.0,1.0,phase_2,stop,650.0,400.0,3.0,,,,,,,,,cyan,triangle
0.0,1.0,0.5,0.0,5.0,5.0,849.3865355849266,5.0,1.0,phase_2,go,650.0,350.0,1.0,,,,,,,,,blue,cross
0.0,7.0,2.0,1.0,6.0,6.0,545.0281407684088,5.0,1.0,phase_2,go,650.0,350.0,1.0,,,,,,,,,yellow,flipped triangle
0.0,7.0,2.0,1.0,6.0,0.0,0.0,5.0,1.0,phase_2,stop,650.0,350.0,4.0,,,,,,,,,yellow,flipped triangle
0.0,8.0,4.0,1.0,5.0,5.0,371.8804940581321,5.0,1.0,phase_2,stop,650.0,400.0,3.0,,,,,,,,,cyan,triangle
0.0,4.0,4.0,0.0,6.0,6.0,597.5618604570627,5.0,1.0,phase_2,go,600.0,400.0,1.0,,,,,,,,,gray,circle
0.0,6.0,1.0,1.0,5.0,0.0,0.0,5.0,1.0,phase_2,stop,600.0,400.0,4.0,,,,,,,,,magenta,I
0.0,1.0,0.5,0.0,5.0,5.0,901.7190225422382,5.0,1.0,phase_2,go,650.0,400.0,1.0,,,,,,,,,blue,cross
0.0,7.0,2.0,1.0,5.0,0.0,0.0,5.0,1.0,phase_2,stop,650.0,400.0,4.0,,,,,,,,,yellow,flipped triangle
0.0,2.0,1.0,0.0,6.0,6.0,1276.1607691645622,5.0,1.0,phase_2,go,700.0,400.0,1.0,,,,,,,,,orange,diamond
0.0,8.0,4.0,1.0,5.0,5.0,643.4837095439434,5.0,1.0,phase_2,stop,700.0,400.0,3.0,,,,,,,,,cyan,triangle
0.0,8.0,4.0,1.0,5.0,5.0,392.5894051790237,5.0,1.0,phase_2,go,650.0,400.0,1.0,,,,,,,,,cyan,triangle
0.0,3.0,2.0,0.0,5.0,5.0,779.5171458274126,5.0,1.0,phase_2,go,650.0,400.0,1.0,,,,,,,,,green,hexagon
0.0,2.0,1.0,0.0,6.0,6.0,663.7429557740688,5.0,1.0,phase_2,go,650.0,400.0,1.0,,,,,,,,,orange,diamond
0.0,4.0,4.0,0.0,5.0,5.0,673.2974089682102,5.0,1.0,phase_2,go,650.0,400.0,1.0,,,,,,,,,gray,circle
0.0,6.0,1.0,1.0,6.0,6.0,312.5019464641809,5.0,1.0,phase_2,stop,650.0,400.0,3.0,,,,,,,,,magenta,I
0.0,8.0,4.0,1.0,6.0,0.0,0.0,5.0,1.0,phase_2,stop,650.0,350.0,4.0,,,,,,,,,cyan,triangle
0.0,1.0,0.5,0.0,5.0,5.0,773.5757678747177,5.0,1.0,phase_2,go,650.0,400.0,1.0,,,,,,,,,blue,cross
0.0,2.0,1.0,0.0,5.0,5.0,79.5684438198804,5.0,1.0,phase_2,go,650.0,400.0,1.0,,,,,,,,,orange,diamond
0.0,8.0,4.0,1.0,6.0,6.0,724.3690676987171,5.0,1.0,phase_2,go,650.0,400.0,1.0,,,,,,,,,cyan,triangle
0.0,6.0,1.0,1.0,6.0,0.0,0.0,5.0,1.0,phase_2,stop,650.0,400.0,4.0,,,,,,,,,magenta,I
0.0,8.0,4.0,1.0,6.0,0.0,0.0,5.0,1.0,phase_2,stop,650.0,450.0,4.0,,,,,,,,,cyan,triangle
0.0,3.0,2.0,0.0,6.0,6.0,801.9737917929888,5.0,1.0,phase_2,go,650.0,500.0,1.0,,,,,,,,,green,hexagon
0.0,5.0,0.5,1.0,5.0,5.0,595.3095387667418,5.0,1.0,phase_2,stop,650.0,500.0,3.0,,,,,,,,,white,square
0.0,1.0,0.5,0.0,5.0,5.0,1032.970815896988,5.0,1.0,phase_2,go,600.0,500.0,1.0,,,,,,,,,blue,cross
0.0,3.0,2.0,0.0,6.0,6.0,616.5602691471577,5.0,1.0,phase_2,go,600.0,500.0,1.0,,,,,,,,,green,hexagon
0.0,2.0,1.0,0.0,6.0,6.0,462.2915089130401,6.0,1.0,phase_2,go,600.0,500.0,1.0,,,,,,,,,orange,diamond
0.0,7.0,2.0,1.0,6.0,6.0,526.6752280294895,6.0,1.0,phase_2,go,600.0,500.0,1.0,,,,,,,,,yellow,flipped triangle
0.0,4.0,4.0,0.0,6.0,6.0,300.4476334899664,6.0,1.0,phase_2,go,600.0,500.0,1.0,,,,,,,,,gray,circle
0.0,7.0,2.0,1.0,5.0,5.0,385.9651461243629,6.0,1.0,phase_2,go,600.0,500.0,1.0,,,,,,,,,yellow,flipped triangle
0.0,4.0,4.0,0.0,5.0,5.0,307.2623759508133,6.0,1.0,phase_2,go,600.0,500.0,1.0,,,,,,,,,gray,circle
0.0,2.0,1.0,0.0,5.0,5.0,384.4422418624162,6.0,1.0,phase_2,go,600.0,500.0,1.0,,,,,,,,,orange,diamond
0.0,1.0,0.5,0.0,5.0,5.0,296.7854086309671,6.0,1.0,phase_2,go,600.0,500.0,1.0,,,,,,,,,blue,cross
0.0,8.0,4.0,1.0,6.0,6.0,280.1730763167143,6.0,1.0,phase_2,stop,600.0,500.0,3.0,,,,,,,,,cyan,triangle
0.0,6.0,1.0,1.0,6.0,6.0,511.6410590708256,6.0,1.0,phase_2,stop,600.0,450.0,3.0,,,,,,,,,magenta,I
0.0,5.0,0.5,1.0,6.0,6.0,918.8166428357364,6.0,1.0,phase_2,go,600.0,400.0,1.0,,,,,,,,,white,square
0.0,7.0,2.0,1.0,6.0,0.0,0.0,6.0,1.0,phase_2,stop,600.0,400.0,4.0,,,,,,,,,yellow,flipped triangle
0.0,1.0,0.5,0.0,6.0,6.0,493.9552955329418,6.0,1.0,phase_2,go,600.0,450.0,1.0,,,,,,,,,blue,cross
0.0,1.0,0.5,0.0,6.0,6.0,433.0004453659057,6.0,1.0,phase_2,go,600.0,450.0,1.0,,,,,,,,,blue,cross
0.0,4.0,4.0,0.0,5.0,5.0,343.3507084846496,6.0,1.0,phase_2,go,600.0,450.0,1.0,,,,,,,,,gray,circle
0.0,2.0,1.0,0.0,5.0,5.0,398.3370922505855,6.0,1.0,phase_2,go,600.0,450.0,1.0,,,,,,,,,orange,diamond
0.0,6.0,1.0,1.0,5.0,5.0,654.0761534124613,6.0,1.0,phase_2,go,600.0,450.0,1.0,,,,,,,,,magenta,I
0.0,4.0,4.0,0.0,5.0,5.0,323.2589159160852,6.0,1.0,phase_2,go,600.0,450.0,1.0,,,,,,,,,gray,circle
0.0,3.0,2.0,0.0,5.0,5.0,366.3716614246368,6.0,1.0,phase_2,go,600.0,450.0,1.0,,,,,,,,,green,hexagon
0.0,5.0,0.5,1.0,6.0,6.0,545.396352186799,6.0,1.0,phase_2,stop,600.0,450.0,3.0,,,,,,,,,white,square
0.0,4.0,4.0,0.0,6.0,6.0,555.1883615553379,6.0,1.0,phase_2,go,600.0,400.0,1.0,,,,,,,,,gray,circle
0.0,6.0,1.0,1.0,5.0,0.0,0.0,6.0,1.0,phase_2,stop,600.0,400.0,4.0,,,,,,,,,magenta,I
0.0,2.0,1.0,0.0,6.0,6.0,600.7819529622793,6.0,1.0,phase_2,go,650.0,400.0,1.0,,,,,,,,,orange,diamond
0.0,4.0,4.0,0.0,6.0,6.0,513.6542227119207,6.0,1.0,phase_2,go,650.0,400.0,1.0,,,,,,,,,gray,circle
0.0,7.0,2.0,1.0,6.0,6.0,385.4835201054811,6.0,1.0,phase_2,stop,650.0,400.0,3.0,,,,,,,,,yellow,flipped triangle
0.0,7.0,2.0,1.0,5.0,5.0,694.2973639816046,6.0,1.0,phase_2,go,650.0,350.0,1.0,,,,,,,,,yellow,flipped triangle
0.0,7.0,2.0,1.0,5.0,0.0,0.0,6.0,1.0,phase_2,stop,650.0,350.0,4.0,,,,,,,,,yellow,flipped triangle
0.0,5.0,0.5,1.0,6.0,6.0,447.8018991649151,6.0,1.0,phase_2,go,700.0,350.0,1.0,,,,,,,,,white,square
0.0,1.0,0.5,0.0,6.0,6.0,454.6738136559725,6.0,1.0,phase_2,go,700.0,350.0,1.0,,,,,,,,,blue,cross
0.0,3.0,2.0,0.0,6.0,6.0,584.1189865022898,6.0,1.0,phase_2,go,700.0,350.0,1.0,,,,,,,,,green,hexagon
0.0,4.0,4.0,0.0,5.0,5.0,507.9996343702078,6.0,1.0,phase_2,go,700.0,350.0,1.0,,,,,,,,,gray,circle
0.0,3.0,2.0,0.0,5.0,5.0,675.0718075782061,6.0,1.0,phase_2,go,700.0,350.0,1.0,,,,,,,,,green,hexagon
0.0,2.0,1.0,0.0,6.0,6.0,261.6275046020746,6.0,1.0,phase_2,go,700.0,350.0,1.0,,,,,,,,,orange,diamond
0.0,3.0,2.0,0.0,5.0,5.0,382.027031853795,6.0,1.0,phase_2,go,700.0,350.0,1.0,,,,,,,,,green,hexagon
0.0,5.0,0.5,1.0,5.0,5.0,289.4774712622165,6.0,1.0,phase_2,stop,700.0,350.0,3.0,,,,,,,,,white,square
0.0,7.0,2.0,1.0,6.0,6.0,418.2658828794956,6.0,1.0,phase_2,stop,650.0,350.0,3.0,,,,,,,,,yellow,flipped triangle
0.0,2.0,1.0,0.0,5.0,5.0,920.3063081949948,6.0,1.0,phase_2,go,650.0,300.0,1.0,,,,,,,,,orange,diamond
0.0,8.0,4.0,1.0,6.0,0.0,0.0,7.0,1.0,phase_2,stop,650.0,300.0,4.0,,,,,,,,,cyan,triangle
0.0,7.0,2.0,1.0,6.0,0.0,0.0,7.0,1.0,phase_2,stop,650.0,350.0,4.0,,,,,,,,,yellow,flipped triangle
0.0,2.0,1.0,0.0,6.0,6.0,782.6913110911846,7.0,1.0,phase_2,go,650.0,400.0,1.0,,,,,,,,,orange,diamond
0.0,7.0,2.0,1.0,6.0,6.0,354.8070713877678,7.0,1.0,phase_2,go,650.0,400.0,1.0,,,,,,,,,yellow,flipped triangle
0.0,2.0,1.0,0.0,5.0,5.0,364.39701169729227,7.0,1.0,phase_2,go,650.0,400.0,1.0,,,,,,,,,orange,diamond
0.0,5.0,0.5,1.0,6.0,6.0,258.3599872887134,7.0,1.0,phase_2,stop,650.0,400.0,3.0,,,,,,,,,white,square
0.0,5.0,0.5,1.0,5.0,5.0,618.0903073400259,7.0,1.0,phase_2,go,650.0,350.0,1.0,,,,,,,,,white,square
0.0,7.0,2.0,1.0,5.0,5.0,401.6608875244856,7.0,1.0,phase_2,stop,650.0,350.0,3.0,,,,,,,,,yellow,flipped triangle
0.0,1.0,0.5,0.0,6.0,6.0,353.2778527587652,7.0,1.0,phase_2,go,600.0,350.0,1.0,,,,,,,,,blue,cross
0.0,6.0,1.0,1.0,6.0,5.0,233.1950385123491,7.0,1.0,phase_2,stop,600.0,350.0,3.0,,,,,,,,,magenta,I
0.0,2.0,1.0,0.0,6.0,6.0,337.5009968876838,7.0,1.0,phase_2,go,600.0,300.0,1.0,,,,,,,,,orange,diamond
0.0,1.0,0.5,0.0,6.0,6.0,353.2922584563494,7.0,1.0,phase_2,go,600.0,300.0,1.0,,,,,,,,,blue,cross
0.0,8.0,4.0,1.0,5.0,5.0,448.7569481134414,7.0,1.0,phase_2,stop,600.0,300.0,3.0,,,,,,,,,cyan,triangle
0.0,8.0,4.0,1.0,6.0,6.0,485.2679595351219,7.0,1.0,phase_2,stop,550.0,300.0,3.0,,,,,,,,,cyan,triangle
0.0,3.0,2.0,0.0,5.0,5.0,816.3976166397333,7.0,1.0,phase_2,go,550.0,250.0,1.0,,,,,,,,,green,hexagon
0.0,2.0,1.0,0.0,5.0,5.0,574.028555303812,7.0,1.0,phase_2,go,550.0,250.0,1.0,,,,,,,,,orange,diamond
0.0,8.0,4.0,1.0,5.0,5.0,492.4067202955484,7.0,1.0,phase_2,stop,550.0,250.0,3.0,,,,,,,,,cyan,triangle
0.0,4.0,4.0,0.0,6.0,6.0,582.6951134949923,7.0,1.0,phase_2,go,500.0,250.0,1.0,,,,,,,,,gray,circle
0.0,3.0,2.0,0.0,5.0,5.0,739.7864200174809,7.0,1.0,phase_2,go,500.0,250.0,1.0,,,,,,,,,green,hexagon
0.0,6.0,1.0,1.0,5.0,0.0,0.0,7.0,1.0,phase_2,stop,500.0,250.0,4.0,,,,,,,,,magenta,I
0.0,3.0,2.0,0.0,6.0,6.0,770.2719420194626,7.0,1.0,phase_2,go,550.0,250.0,1.0,,,,,,,,,green,hexagon
0.0,1.0,0.5,0.0,6.0,6.0,585.8314633369446,7.0,1.0,phase_2,go,550.0,250.0,1.0,,,,,,,,,blue,cross
0.0,3.0,2.0,0.0,6.0,6.0,554.8841934651136,7.0,1.0,phase_2,go,550.0,250.0,1.0,,,,,,,,,green,hexagon
0.0,1.0,0.5,0.0,5.0,5.0,648.4249960631132,7.0,1.0,phase_2,go,550.0,250.0,1.0,,,,,,,,,blue,cross
0.0,2.0,1.0,0.0,5.0,5.0,511.22669875621796,7.0,1.0,phase_2,go,550.0,250.0,1.0,,,,,,,,,orange,diamond
0.0,4.0,4.0,0.0,6.0,6.0,491.0051040351391,7.0,1.0,phase_2,go,550.0,250.0,1.0,,,,,,,,,gray,circle
0.0,3.0,2.0,0.0,6.0,6.0,327.4210654199123,7.0,1.0,phase_2,go,550.0,250.0,1.0,,,,,,,,,green,hexagon
0.0,6.0,1.0,1.0,6.0,6.0,414.8324523121118,7.0,1.0,phase_2,stop,550.0,250.0,3.0,,,,,,,,,magenta,I
0.0,8.0,4.0,1.0,6.0,6.0,518.6687856912613,7.0,1.0,phase_2,go,550.0,200.0,1.0,,,,,,,,,cyan,triangle
0.0,5.0,0.5,1.0,5.0,5.0,333.6079251021147,7.0,1.0,phase_2,stop,550.0,200.0,3.0,,,,,,,,,white,square
0.0,1.0,0.5,0.0,6.0,6.0,607.1789059787989,7.0,1.0,phase_2,go,500.0,200.0,1.0,,,,,,,,,blue,cross
0.0,5.0,0.5,1.0,5.0,5.0,547.7108713239431,7.0,1.0,phase_2,stop,500.0,200.0,3.0,,,,,,,,,white,square
0.0,5.0,0.5,1.0,6.0,0.0,0.0,7.0,1.0,phase_2,stop,450.0,200.0,4.0,,,,,,,,,white,square
0.0,5.0,0.5,1.0,6.0,6.0,821.0891894996166,7.0,1.0,phase_2,go,450.0,250.0,1.0,,,,,,,,,white,square
0.0,1.0,0.5,0.0,6.0,6.0,642.2558985650539,7.0,1.0,phase_2,go,450.0,250.0,1.0,,,,,,,,,blue,cross
0.0,8.0,4.0,1.0,5.0,5.0,653.5281166434288,7.0,1.0,phase_2,go,450.0,250.0,1.0,,,,,,,,,cyan,triangle
0.0,5.0,0.5,1.0,5.0,5.0,395.6050705164671,8.0,1.0,phase_2,stop,450.0,250.0,3.0,,,,,,,,,white,square
0.0,7.0,2.0,1.0,6.0,0.0,0.0,8.0,1.0,phase_2,stop,400.0,250.0,4.0,,,,,,,,,yellow,flipped triangle
0.0,3.0,2.0,0.0,5.0,5.0,636.5213766694069,8.0,1.0,phase_2,go,400.0,300.0,1.0,,,,,,,,,green,hexagon
0.0,6.0,1.0,1.0,5.0,5.0,664.9465709924698,8.0,1.0,phase_2,go,400.0,300.0,1.0,,,,,,,,,magenta,I
0.0,7.0,2.0,1.0,5.0,5.0,319.6441289037466,8.0,1.0,phase_2,stop,400.0,300.0,3.0,,,,,,,,,yellow,flipped triangle
0.0,6.0,1.0,1.0,5.0,0.0,0.0,8.0,1.0,phase_2,stop,350.0,300.0,4.0,,,,,,,,,magenta,I
0.0,8.0,4.0,1.0,5.0,5.0,687.147494405508,8.0,1.0,phase_2,go,400.0,300.0,1.0,,,,,,,,,cyan,triangle
0.0,6.0,1.0,1.0,6.0,6.0,377.0300447940826,8.0,1.0,phase_2,go,400.0,300.0,1.0,,,,,,,,,magenta,I
0.0,8.0,4.0,1.0,6.0,6.0,456.1537317931652,8.0,1.0,phase_2,stop,400.0,300.0,3.0,,,,,,,,,cyan,triangle
0.0,6.0,1.0,1.0,6.0,0.0,0.0,8.0,1.0,phase_2,stop,400.0,250.0,4.0,,,,,,,,,magenta,I
0.0,7.0,2.0,1.0,5.0,0.0,0.0,8.0,1.0,phase_2,stop,400.0,300.0,4.0,,,,,,,,,yellow,flipped triangle
0.0,4.0,4.0,0.0,6.0,6.0,591.7096883058548,8.0,1.0,phase_2,go,450.0,300.0,1.0,,,,,,,,,gray,circle
0.0,2.0,1.0,0.0,5.0,5.0,747.487511485815,8.0,1.0,phase_2,go,450.0,300.0,1.0,,,,,,,,,orange,diamond
0.0,4.0,4.0,0.0,6.0,6.0,646.8206234276295,8.0,1.0,phase_2,go,450.0,300.0,1.0,,,,,,,,,gray,circle
0.0,1.0,0.5,0.0,6.0,6.0,508.53078439831734,8.0,1.0,phase_2,go,450.0,300.0,1.0,,,,,,,,,blue,cross
0.0,1.0,0.5,0.0,5.0,5.0,426.2041300535202,8.0,1.0,phase_2,go,450.0,300.0,1.0,,,,,,,,,blue,cross
0.0,6.0,1.0,1.0,5.0,5.0,385.6370877474546,8.0,1.0,phase_2,stop,450.0,300.0,3.0,,,,,,,,,magenta,I
0.0,6.0,1.0,1.0,6.0,0.0,0.0,8.0,1.0,phase_2,stop,400.0,300.0,4.0,,,,,,,,,magenta,I
0.0,8.0,4.0,1.0,5.0,0.0,0.0,8.0,1.0,phase_2,stop,400.0,350.0,4.0,,,,,,,,,cyan,triangle
0.0,1.0,0.5,0.0,5.0,5.0,818.1533757597208,8.0,1.0,phase_2,go,450.0,350.0,1.0,,,,,,,,,blue,cross
0.0,7.0,2.0,1.0,6.0,6.0,478.6308724433183,8.0,1.0,phase_2,stop,450.0,350.0,3.0,,,,,,,,,yellow,flipped triangle
0.0,7.0,2.0,1.0,5.0,0.0,0.0,8.0,1.0,phase_2,stop,450.0,300.0,4.0,,,,,,,,,yellow,flipped triangle
0.0,4.0,4.0,0.0,5.0,5.0,678.2910656183958,8.0,1.0,phase_2,go,500.0,300.0,1.0,,,,,,,,,gray,circle
0.0,5.0,0.5,1.0,5.0,0.0,0.0,8.0,1.0,phase_2,stop,500.0,300.0,4.0,,,,,,,,,white,square
0.0,6.0,1.0,1.0,6.0,0.0,0.0,8.0,1.0,phase_2,stop,550.0,300.0,4.0,,,,,,,,,magenta,I
0.0,3.0,2.0,0.0,5.0,5.0,814.0208479017019,8.0,1.0,phase_2,go,550.0,350.0,1.0,,,,,,,,,green,hexagon
0.0,7.0,2.0,1.0,6.0,6.0,782.028391957283,8.0,1.0,phase_2,go,550.0,350.0,1.0,,,,,,,,,yellow,flipped triangle
0.0,4.0,4.0,0.0,6.0,6.0,669.5432439446449,8.0,1.0,phase_2,go,550.0,350.0,1.0,,,,,,,,,gray,circle
0.0,7.0,2.0,1.0,5.0,5.0,684.2002980411053,8.0,1.0,phase_2,go,550.0,350.0,1.0,,,,,,,,,yellow,flipped triangle
0.0,8.0,4.0,1.0,5.0,5.0,562.6533906906843,8.0,1.0,phase_2,go,550.0,350.0,1.0,,,,,,,,,cyan,triangle
0.0,2.0,1.0,0.0,5.0,5.0,635.0961048156023,8.0,1.0,phase_2,go,550.0,350.0,1.0,,,,,,,,,orange,diamond
0.0,3.0,2.0,0.0,5.0,5.0,692.853519693017,8.0,1.0,phase_2,go,550.0,350.0,1.0,,,,,,,,,green,hexagon
0.0,3.0,2.0,0.0,6.0,6.0,409.065218642354,8.0,1.0,phase_2,go,550.0,350.0,1.0,,,,,,,,,green,hexagon
0.0,8.0,4.0,1.0,5.0,5.0,593.8357561826706,8.0,1.0,phase_2,stop,550.0,350.0,3.0,,,,,,,,,cyan,triangle
0.0,8.0,4.0,1.0,6.0,0.0,0.0,8.0,1.0,phase_2,stop,500.0,350.0,4.0,,,,,,,,,cyan,triangle
0.0,8.0,4.0,1.0,5.0,5.0,671.6674212366343,8.0,1.0,phase_2,go,500.0,400.0,1.0,,,,,,,,,cyan,triangle
0.0,2.0,1.0,0.0,7.0,2.0,41.729412972927,1.0,1.0,phase_3,,,,,132.0,3.0,176.0,132.0,44.0,220.0,264.0,88.0,orange,diamond
0.0,8.0,4.0,1.0,7.0,5.0,2154.79876101017,1.0,2.0,phase_3,,,,,270.0,5.0,324.0,216.0,162.0,54.0,270.0,108.0,cyan,triangle
0.0,2.0,1.0,0.0,7.0,2.0,3005.364554002881,1.0,1.0,phase_3,,,,,136.0,4.0,102.0,136.0,34.0,204.0,170.0,68.0,orange,diamond
0.0,8.0,4.0,1.0,7.0,6.0,2399.318862706423,1.0,1.0,phase_3,,,,,98.0,2.0,294.0,147.0,245.0,49.0,196.0,98.0,cyan,triangle
0.0,7.0,2.0,1.0,7.0,1.0,2492.89195984602,1.0,1.0,phase_3,,,,,98.0,2.0,98.0,294.0,196.0,147.0,245.0,49.0,yellow,flipped triangle
0.0,1.0,0.5,0.0,7.0,6.0,2536.877367645502,1.0,1.0,phase_3,,,,,176.0,4.0,132.0,88.0,220.0,44.0,264.0,176.0,blue,cross
0.0,8.0,4.0,1.0,7.0,5.0,1562.438240274787,1.0,1.0,phase_3,,,,,176.0,4.0,88.0,132.0,264.0,220.0,176.0,44.0,cyan,triangle
0.0,3.0,2.0,0.0,7.0,1.0,2435.8487091958523,1.0,1.0,phase_3,,,,,49.0,1.0,49.0,196.0,294.0,98.0,147.0,245.0,green,hexagon
0.0,8.0,4.0,1.0,7.0,3.0,1205.2331995218992,1.0,1.0,phase_3,,,,,88.0,2.0,44.0,132.0,88.0,176.0,220.0,264.0,cyan,triangle
0.0,3.0,2.0,0.0,7.0,5.0,2421.5954672545195,1.0,1.0,phase_3,,,,,216.0,4.0,162.0,324.0,108.0,270.0,216.0,54.0,green,hexagon
0.0,2.0,1.0,0.0,7.0,1.0,1054.7973960638046,1.0,1.0,phase_3,,,,,147.0,3.0,147.0,294.0,49.0,98.0,196.0,245.0,orange,diamond
0.0,1.0,0.5,0.0,7.0,4.0,1493.958942592144,1.0,1.0,phase_3,,,,,196.0,4.0,294.0,147.0,98.0,196.0,49.0,245.0,blue,cross
0.0,4.0,4.0,0.0,7.0,3.0,1619.736144319177,1.0,1.0,phase_3,,,,,34.0,1.0,136.0,68.0,34.0,170.0,102.0,204.0,gray,circle
0.0,4.0,4.0,0.0,7.0,3.0,1939.9064648896456,1.0,1.0,phase_3,,,,,44.0,1.0,264.0,132.0,44.0,88.0,220.0,176.0,gray,circle
0.0,5.0,0.5,1.0,7.0,5.0,2578.917669132352,1.0,1.0,phase_3,,,,,170.0,5.0,34.0,136.0,204.0,68.0,170.0,102.0,white,square
0.0,7.0,2.0,1.0,7.0,6.0,1535.0396037101746,1.0,1.0,phase_3,,,,,176.0,4.0,220.0,44.0,264.0,88.0,132.0,176.0,yellow,flipped triangle
0.0,5.0,0.5,1.0,7.0,2.0,1791.101818904281,1.0,1.0,phase_3,,,,,147.0,3.0,98.0,147.0,245.0,294.0,196.0,49.0,white,square
0.0,6.0,1.0,1.0,7.0,4.0,1464.3038548529148,1.0,1.0,phase_3,,,,,234.0,6.0,117.0,78.0,156.0,234.0,195.0,39.0,magenta,I
0.0,2.0,1.0,0.0,7.0,3.0,1689.2692241817713,1.0,1.0,phase_3,,,,,204.0,6.0,34.0,136.0,204.0,102.0,68.0,170.0,orange,diamond
0.0,1.0,0.5,0.0,7.0,5.0,1985.638940706849,1.0,1.0,phase_3,,,,,270.0,5.0,162.0,324.0,108.0,216.0,270.0,54.0,blue,cross
0.0,1.0,0.5,0.0,7.0,3.0,1750.6775707006454,2.0,1.0,phase_3,,,,,216.0,4.0,324.0,54.0,216.0,162.0,108.0,270.0,blue,cross
0.0,5.0,0.5,1.0,7.0,1.0,1232.8784111887217,2.0,1.0,phase_3,,,,,234.0,6.0,234.0,156.0,78.0,39.0,195.0,117.0,white,square
0.0,8.0,4.0,1.0,7.0,2.0,1238.6492546647787,2.0,1.0,phase_3,,,,,156.0,4.0,117.0,156.0,234.0,78.0,39.0,195.0,cyan,triangle
0.0,7.0,2.0,1.0,7.0,4.0,1536.244947463274,2.0,1.0,phase_3,,,,,102.0,3.0,170.0,136.0,68.0,102.0,34.0,204.0,yellow,flipped triangle
0.0,7.0,2.0,1.0,7.0,5.0,1657.889997586608,2.0,1.0,phase_3,,,,,108.0,2.0,54.0,270.0,216.0,162.0,108.0,324.0,yellow,flipped triangle
0.0,2.0,1.0,0.0,7.0,1.0,1143.2029604911804,2.0,1.0,phase_3,,,,,54.0,1.0,54.0,162.0,216.0,108.0,270.0,324.0,orange,diamond
0.0,6.0,1.0,1.0,7.0,3.0,1356.1064917594194,2.0,1.0,phase_3,,,,,204.0,6.0,170.0,102.0,204.0,68.0,136.0,34.0,magenta,I
0.0,3.0,2.0,0.0,7.0,5.0,975.881554186344,2.0,1.0,phase_3,,,,,156.0,4.0,234.0,78.0,117.0,195.0,156.0,39.0,green,hexagon
0.0,5.0,0.5,1.0,7.0,2.0,1047.9024443775415,2.0,1.0,phase_3,,,,,216.0,4.0,54.0,216.0,324.0,162.0,108.0,270.0,white,square
0.0,4.0,4.0,0.0,7.0,1.0,536.6664305329323,2.0,1.0,phase_3,,,,,39.0,1.0,39.0,234.0,78.0,117.0,195.0,156.0,gray,circle
0.0,7.0,2.0,1.0,7.0,5.0,1770.4376634210348,2.0,1.0,phase_3,,,,,54.0,1.0,162.0,324.0,270.0,108.0,54.0,216.0,yellow,flipped triangle
0.0,2.0,1.0,0.0,7.0,2.0,997.8151805698872,2.0,1.0,phase_3,,,,,196.0,4.0,49.0,196.0,245.0,147.0,294.0,98.0,orange,diamond
0.0,6.0,1.0,1.0,7.0,6.0,1191.7583737522364,2.0,1.0,phase_3,,,,,245.0,5.0,294.0,49.0,147.0,98.0,196.0,245.0,magenta,I
0.0,5.0,0.5,1.0,7.0,1.0,1343.0489860475063,2.0,1.0,phase_3,,,,,264.0,6.0,264.0,88.0,220.0,176.0,44.0,132.0,white,square
0.0,3.0,2.0,0.0,7.0,5.0,1058.904979377985,2.0,1.0,phase_3,,,,,68.0,2.0,170.0,136.0,34.0,204.0,68.0,102.0,green,hexagon
0.0,4.0,4.0,0.0,7.0,3.0,1353.2602917402985,2.0,1.0,phase_3,,,,,49.0,1.0,196.0,98.0,49.0,294.0,147.0,245.0,gray,circle
0.0,4.0,4.0,0.0,7.0,2.0,906.279606744647,2.0,1.0,phase_3,,,,,68.0,2.0,136.0,68.0,34.0,102.0,170.0,204.0,gray,circle
0.0,1.0,0.5,0.0,7.0,2.0,811.4744611084461,2.0,1.0,phase_3,,,,,68.0,2.0,136.0,68.0,102.0,204.0,170.0,34.0,blue,cross
0.0,8.0,4.0,1.0,7.0,6.0,992.9866176098584,2.0,1.0,phase_3,,,,,294.0,6.0,196.0,49.0,147.0,98.0,245.0,294.0,cyan,triangle
0.0,5.0,0.5,1.0,7.0,1.0,1160.3930741548538,2.0,1.0,phase_3,,,,,195.0,5.0,195.0,78.0,234.0,117.0,39.0,156.0,white,square
0.0,6.0,1.0,1.0,7.0,3.0,933.333272114396,3.0,1.0,phase_3,,,,,294.0,6.0,98.0,196.0,294.0,147.0,49.0,245.0,magenta,I
0.0,3.0,2.0,0.0,7.0,5.0,1116.3246594369411,3.0,1.0,phase_3,,,,,98.0,2.0,147.0,49.0,245.0,196.0,98.0,294.0,green,hexagon
0.0,3.0,2.0,0.0,7.0,2.0,1191.4713438600302,3.0,1.0,phase_3,,,,,44.0,1.0,220.0,44.0,88.0,264.0,176.0,132.0,green,hexagon
0.0,2.0,1.0,0.0,7.0,5.0,1442.668914794922,3.0,1.0,phase_3,,,,,117.0,3.0,234.0,39.0,195.0,78.0,117.0,156.0,orange,diamond
0.0,4.0,4.0,0.0,7.0,4.0,1218.779256567359,3.0,1.0,phase_3,,,,,49.0,1.0,196.0,245.0,147.0,49.0,294.0,98.0,gray,circle
0.0,6.0,1.0,1.0,7.0,6.0,1757.9121701419351,3.0,1.0,phase_3,,,,,270.0,5.0,162.0,108.0,324.0,216.0,54.0,270.0,magenta,I
0.0,4.0,4.0,0.0,7.0,4.0,1213.674200698733,3.0,1.0,phase_3,,,,,54.0,1.0,216.0,108.0,324.0,54.0,270.0,162.0,gray,circle
0.0,8.0,4.0,1.0,7.0,2.0,749.7673165053129,3.0,1.0,phase_3,,,,,195.0,5.0,234.0,195.0,117.0,156.0,78.0,39.0,cyan,triangle
0.0,7.0,2.0,1.0,7.0,2.0,1133.8308285921812,3.0,1.0,phase_3,,,,,88.0,2.0,176.0,88.0,44.0,220.0,132.0,264.0,yellow,flipped triangle
0.0,5.0,0.5,1.0,7.0,3.0,1313.425762578845,3.0,1.0,phase_3,,,,,220.0,5.0,44.0,88.0,220.0,132.0,176.0,264.0,white,square
0.0,8.0,4.0,1.0,7.0,4.0,1769.0042201429603,3.0,1.0,phase_3,,,,,324.0,6.0,270.0,216.0,54.0,324.0,162.0,108.0,cyan,triangle
0.0,6.0,1.0,1.0,7.0,1.0,1282.0804100483656,3.0,1.0,phase_3,,,,,264.0,6.0,264.0,176.0,132.0,220.0,44.0,88.0,magenta,I
0.0,6.0,1.0,1.0,7.0,4.0,1357.3270048946142,3.0,1.0,phase_3,,,,,220.0,5.0,132.0,44.0,88.0,220.0,264.0,176.0,magenta,I
0.0,4.0,4.0,0.0,7.0,5.0,1360.2705709636211,3.0,1.0,phase_3,,,,,54.0,1.0,162.0,324.0,216.0,108.0,54.0,270.0,gray,circle
0.0,3.0,2.0,0.0,7.0,2.0,1720.2972285449505,3.0,1.0,phase_3,,,,,88.0,2.0,44.0,88.0,220.0,264.0,132.0,176.0,green,hexagon
0.0,5.0,0.5,1.0,7.0,3.0,1128.7153344601393,3.0,1.0,phase_3,,,,,294.0,6.0,196.0,147.0,294.0,49.0,98.0,245.0,white,square
0.0,7.0,2.0,1.0,7.0,1.0,1580.3229939192531,3.0,1.0,phase_3,,,,,117.0,3.0,117.0,156.0,234.0,78.0,195.0,39.0,yellow,flipped triangle
0.0,4.0,4.0,0.0,7.0,3.0,996.1809813976288,3.0,1.0,phase_3,,,,,39.0,1.0,234.0,195.0,39.0,78.0,156.0,117.0,gray,circle
0.0,5.0,0.5,1.0,7.0,3.0,1750.887529924512,3.0,1.0,phase_3,,,,,204.0,6.0,170.0,136.0,204.0,34.0,102.0,68.0,white,square
0.0,2.0,1.0,0.0,7.0,1.0,2112.255223095417,3.0,1.0,phase_3,,,,,108.0,2.0,108.0,216.0,324.0,270.0,54.0,162.0,orange,diamond
0.0,6.0,1.0,1.0,7.0,6.0,1699.6662635356188,4.0,1.0,phase_3,,,,,136.0,4.0,102.0,204.0,34.0,68.0,170.0,136.0,magenta,I
0.0,1.0,0.5,0.0,7.0,3.0,1365.4120974242687,4.0,1.0,phase_3,,,,,117.0,3.0,156.0,234.0,117.0,78.0,195.0,39.0,blue,cross
0.0,3.0,2.0,0.0,7.0,5.0,1346.1744152009487,4.0,1.0,phase_3,,,,,68.0,2.0,204.0,34.0,170.0,102.0,68.0,136.0,green,hexagon
0.0,2.0,1.0,0.0,7.0,1.0,1280.806340277195,4.0,1.0,phase_3,,,,,88.0,2.0,88.0,220.0,132.0,264.0,176.0,44.0,orange,diamond
0.0,3.0,2.0,0.0,7.0,5.0,1196.461092680693,4.0,1.0,phase_3,,,,,108.0,2.0,270.0,324.0,54.0,162.0,108.0,216.0,green,hexagon
0.0,2.0,1.0,0.0,7.0,5.0,1620.4913705587387,4.0,1.0,phase_3,,,,,78.0,2.0,234.0,39.0,156.0,195.0,78.0,117.0,orange,diamond
0.0,8.0,4.0,1.0,7.0,1.0,1939.4992049783468,4.0,1.0,phase_3,,,,,204.0,6.0,204.0,34.0,170.0,68.0,136.0,102.0,cyan,triangle
0.0,4.0,4.0,0.0,7.0,2.0,984.9679917097092,4.0,1.0,phase_3,,,,,44.0,1.0,132.0,44.0,88.0,176.0,220.0,264.0,gray,circle
0.0,8.0,4.0,1.0,7.0,5.0,1078.8799226284027,4.0,1.0,phase_3,,,,,170.0,5.0,68.0,136.0,34.0,204.0,170.0,102.0,cyan,triangle
0.0,7.0,2.0,1.0,7.0,6.0,1530.8605916798117,4.0,1.0,phase_3,,,,,78.0,2.0,234.0,195.0,39.0,117.0,156.0,78.0,yellow,flipped triangle
0.0,1.0,0.5,0.0,7.0,5.0,1802.7346301823852,4.0,1.0,phase_3,,,,,44.0,1.0,132.0,176.0,88.0,264.0,44.0,220.0,blue,cross
0.0,7.0,2.0,1.0,7.0,1.0,1221.5021960437298,4.0,1.0,phase_3,,,,,49.0,1.0,49.0,147.0,98.0,245.0,196.0,294.0,yellow,flipped triangle
0.0,1.0,0.5,0.0,7.0,3.0,1275.591004639864,4.0,1.0,phase_3,,,,,204.0,6.0,102.0,34.0,204.0,68.0,136.0,170.0,blue,cross
0.0,3.0,2.0,0.0,7.0,5.0,1873.478138819337,4.0,1.0,phase_3,,,,,117.0,3.0,234.0,78.0,195.0,39.0,117.0,156.0,green,hexagon
0.0,7.0,2.0,1.0,7.0,2.0,1014.7826783359051,4.0,1.0,phase_3,,,,,102.0,3.0,34.0,102.0,170.0,204.0,136.0,68.0,yellow,flipped triangle
0.0,1.0,0.5,0.0,7.0,5.0,1865.1159405708315,4.0,1.0,phase_3,,,,,147.0,3.0,49.0,245.0,294.0,98.0,147.0,196.0,blue,cross
0.0,6.0,1.0,1.0,7.0,2.0,898.6347634345293,4.0,1.0,phase_3,,,,,324.0,6.0,216.0,324.0,162.0,54.0,108.0,270.0,magenta,I
0.0,5.0,0.5,1.0,7.0,4.0,1052.5957681238651,4.0,1.0,phase_3,,,,,270.0,5.0,108.0,54.0,324.0,270.0,162.0,216.0,white,square
0.0,6.0,1.0,1.0,7.0,1.0,1317.988095805049,4.0,1.0,phase_3,,,,,234.0,6.0,234.0,156.0,39.0,117.0,195.0,78.0,magenta,I
0.0,1.0,0.5,0.0,7.0,1.0,1343.2449754327536,4.0,1.0,phase_3,,,,,234.0,6.0,234.0,195.0,39.0,117.0,156.0,78.0,blue,cross
