raw_reward_magnitude,stim_reward,stepwise_reward_magnitude,paired_with_stopping,stim_location,response,reaction_time,block,num_trial_presentations,which_phase,stop_signal_trial_type,left_SSD,right_SSD,accuracy,chosen_bidding_amount,chosen_bidding_level,possible_bid_1,possible_bid_2,possible_bid_3,possible_bid_4,possible_bid_5,possible_bid_6,color_text,shape_text
0.0,4.0,0.0,0.0,3.0,3.0,551.4470022171736,1.0,1.0,phase_1,,,,,,,,,,,,,blue,square
183.0,7.0,2.0,1.0,3.0,3.0,565.1733670383692,1.0,1.0,phase_1,,,,,,,,,,,,,cyan,circle
36.0,1.0,0.5,0.0,1.0,1.0,512.9705835133791,1.0,1.0,phase_1,,,,,,,,,,,,,magenta,flipped triangle
125.0,2.0,1.0,0.0,2.0,2.0,509.42505709826946,1.0,1.0,phase_1,,,,,,,,,,,,,green,I
89.0,2.0,1.0,0.0,4.0,4.0,405.5689238011837,1.0,1.0,phase_1,,,,,,,,,,,,,green,I
118.0,2.0,1.0,0.0,1.0,1.0,423.4699551016092,1.0,1.0,phase_1,,,,,,,,,,,,,green,I
106.0,6.0,1.0,1.0,2.0,2.0,398.9176601171493,1.0,1.0,phase_1,,,,,,,,,,,,,white,cross
45.0,1.0,0.5,0.0,4.0,4.0,370.6246968358755,1.0,1.0,phase_1,,,,,,,,,,,,,magenta,flipped triangle
414.0,8.0,4.0,1.0,3.0,3.0,380.5009350180626,1.0,1.0,phase_1,,,,,,,,,,,,,gray,diamond
45.0,5.0,0.5,1.0,1.0,1.0,393.5622107237577,1.0,1.0,phase_1,,,,,,,,,,,,,orange,hexagon
382.0,4.0,4.0,0.0,2.0,2.0,344.9916411191225,1.0,1.0,phase_1,,,,,,,,,,,,,blue,square
66.0,1.0,0.5,0.0,1.0,1.0,452.8844207525253,1.0,1.0,phase_1,,,,,,,,,,,,,magenta,flipped triangle
89.0,6.0,1.0,1.0,1.0,1.0,368.0305369198322,1.0,1.0,phase_1,,,,,,,,,,,,,white,cross
206.0,7.0,2.0,1.0,1.0,1.0,349.5682198554277,1.0,1.0,phase_1,,,,,,,,,,,,,cyan,circle
28.0,5.0,0.5,1.0,4.0,4.0,539.4842997193336,1.0,1.0,phase_1,,,,,,,,,,,,,orange,hexagon
222.0,3.0,2.0,0.0,1.0,1.0,398.601533845067,1.0,1.0,phase_1,,,,,,,,,,,,,yellow,triangle
31.0,1.0,0.5,0.0,3.0,3.0,362.9683274775743,1.0,1.0,phase_1,,,,,,,,,,,,,magenta,flipped triangle
38.0,5.0,0.5,1.0,3.0,3.0,359.1474406421184,1.0,1.0,phase_1,,,,,,,,,,,,,orange,hexagon
25.0,1.0,0.5,0.0,4.0,4.0,435.5510659515857,1.0,1.0,phase_1,,,,,,,,,,,,,magenta,flipped triangle
195.0,7.0,2.0,1.0,2.0,2.0,434.2664200812578,1.0,1.0,phase_1,,,,,,,,,,,,,cyan,circle
0.0,4.0,0.0,0.0,1.0,1.0,509.8060090094805,1.0,1.0,phase_1,,,,,,,,,,,,,blue,square
62.0,1.0,0.5,0.0,2.0,2.0,411.8465650826692,1.0,1.0,phase_1,,,,,,,,,,,,,magenta,flipped triangle
383.0,8.0,4.0,1.0,4.0,4.0,330.2712514996528,1.0,1.0,phase_1,,,,,,,,,,,,,gray,diamond
99.0,2.0,1.0,0.0,4.0,4.0,349.4048006832599,1.0,1.0,phase_1,,,,,,,,,,,,,green,I
89.0,6.0,1.0,1.0,4.0,4.0,347.5454077124595,1.0,1.0,phase_1,,,,,,,,,,,,,white,cross
45.0,1.0,0.5,0.0,3.0,3.0,429.1202519088983,1.0,1.0,phase_1,,,,,,,,,,,,,magenta,flipped triangle
223.0,3.0,2.0,0.0,2.0,2.0,464.9731498211622,1.0,1.0,phase_1,,,,,,,,,,,,,yellow,triangle
0.0,1.0,0.0,0.0,3.0,3.0,472.3096936941147,1.0,1.0,phase_1,,,,,,,,,,,,,magenta,flipped triangle
204.0,3.0,2.0,0.0,2.0,2.0,451.2661341577768,1.0,1.0,phase_1,,,,,,,,,,,,,yellow,triangle
211.0,7.0,2.0,1.0,2.0,2.0,407.6068587601185,1.0,1.0,phase_1,,,,,,,,,,,,,cyan,circle
38.0,5.0,0.5,1.0,3.0,3.0,365.828450769186,1.0,1.0,phase_1,,,,,,,,,,,,,orange,hexagon
0.0,4.0,0.0,0.0,4.0,4.0,354.6769004315138,1.0,1.0,phase_1,,,,,,,,,,,,,blue,square
80.0,6.0,1.0,1.0,3.0,3.0,392.7299361675977,1.0,1.0,phase_1,,,,,,,,,,,,,white,cross
198.0,3.0,2.0,0.0,4.0,4.0,371.5747408568859,1.0,1.0,phase_1,,,,,,,,,,,,,yellow,triangle
197.0,3.0,2.0,0.0,1.0,1.0,345.8976354449987,1.0,1.0,phase_1,,,,,,,,,,,,,yellow,triangle
36.0,5.0,0.5,1.0,1.0,1.0,404.1645471006632,1.0,1.0,phase_1,,,,,,,,,,,,,orange,hexagon
71.0,1.0,0.5,0.0,3.0,3.0,487.9046138375997,1.0,1.0,phase_1,,,,,,,,,,,,,magenta,flipped triangle
0.0,7.0,0.0,1.0,3.0,3.0,420.4394817352295,1.0,1.0,phase_1,,,,,,,,,,,,,cyan,circle
0.0,4.0,0.0,0.0,3.0,3.0,497.3329789936542,1.0,1.0,phase_1,,,,,,,,,,,,,blue,square
0.0,8.0,0.0,1.0,1.0,1.0,382.3386635631323,1.0,1.0,phase_1,,,,,,,,,,,,,gray,diamond
124.0,6.0,1.0,1.0,4.0,4.0,339.4515346735716,1.0,1.0,phase_1,,,,,,,,,,,,,white,cross
85.0,2.0,1.0,0.0,3.0,3.0,449.9474987387657,1.0,1.0,phase_1,,,,,,,,,,,,,green,I
80.0,6.0,1.0,1.0,2.0,2.0,550.945233553648,1.0,1.0,phase_1,,,,,,,,,,,,,white,cross
0.0,2.0,0.0,0.0,1.0,1.0,412.2085385024547,1.0,1.0,phase_1,,,,,,,,,,,,,green,I
206.0,3.0,2.0,0.0,3.0,3.0,381.7899171262979,1.0,1.0,phase_1,,,,,,,,,,,,,yellow,triangle
28.0,1.0,0.5,0.0,4.0,4.0,305.9170879423618,1.0,1.0,phase_1,,,,,,,,,,,,,magenta,flipped triangle
0.0,3.0,0.0,0.0,2.0,2.0,408.0635569989681,1.0,1.0,phase_1,,,,,,,,,,,,,yellow,triangle
52.0,5.0,0.5,1.0,3.0,3.0,332.7619805932045,1.0,1.0,phase_1,,,,,,,,,,,,,orange,hexagon
79.0,2.0,1.0,0.0,4.0,4.0,506.5509732812643,1.0,1.0,phase_1,,,,,,,,,,,,,green,I
197.0,7.0,2.0,1.0,4.0,4.0,327.9721159487963,1.0,1.0,phase_1,,,,,,,,,,,,,cyan,circle
112.0,6.0,1.0,1.0,2.0,2.0,419.2912075668573,1.0,1.0,phase_1,,,,,,,,,,,,,white,cross
112.0,2.0,1.0,0.0,3.0,3.0,329.3121811002493,1.0,1.0,phase_1,,,,,,,,,,,,,green,I
414.0,4.0,4.0,0.0,4.0,4.0,293.7577608972788,1.0,1.0,phase_1,,,,,,,,,,,,,blue,square
380.0,8.0,4.0,1.0,3.0,3.0,360.0924853235483,1.0,1.0,phase_1,,,,,,,,,,,,,gray,diamond
198.0,3.0,2.0,0.0,3.0,3.0,278.5781901329756,1.0,1.0,phase_1,,,,,,,,,,,,,yellow,triangle
416.0,4.0,4.0,0.0,1.0,1.0,500.8601192384958,1.0,1.0,phase_1,,,,,,,,,,,,,blue,square
424.0,4.0,4.0,0.0,4.0,4.0,390.8052779734134,1.0,1.0,phase_1,,,,,,,,,,,,,blue,square
407.0,8.0,4.0,1.0,3.0,3.0,353.9964631199837,1.0,1.0,phase_1,,,,,,,,,,,,,gray,diamond
88.0,6.0,1.0,1.0,1.0,1.0,431.493604555726,1.0,1.0,phase_1,,,,,,,,,,,,,white,cross
88.0,2.0,1.0,0.0,3.0,3.0,286.0030420124531,1.0,1.0,phase_1,,,,,,,,,,,,,green,I
0.0,6.0,0.0,1.0,4.0,4.0,330.9976886957884,1.0,1.0,phase_1,,,,,,,,,,,,,white,cross
118.0,2.0,1.0,0.0,3.0,3.0,343.9704086631536,1.0,1.0,phase_1,,,,,,,,,,,,,green,I
405.0,4.0,4.0,0.0,3.0,3.0,314.7914819419384,1.0,1.0,phase_1,,,,,,,,,,,,,blue,square
56.0,5.0,0.5,1.0,1.0,1.0,553.2064791768789,1.0,1.0,phase_1,,,,,,,,,,,,,orange,hexagon
91.0,6.0,1.0,1.0,1.0,1.0,466.6180461645126,1.0,1.0,phase_1,,,,,,,,,,,,,white,cross
400.0,4.0,4.0,0.0,2.0,2.0,345.5434590578079,1.0,1.0,phase_1,,,,,,,,,,,,,blue,square
0.0,6.0,0.0,1.0,3.0,3.0,662.3665187507868,1.0,1.0,phase_1,,,,,,,,,,,,,white,cross
124.0,2.0,1.0,0.0,1.0,1.0,522.442365065217,1.0,1.0,phase_1,,,,,,,,,,,,,green,I
106.0,6.0,1.0,1.0,2.0,2.0,366.4932809770107,1.0,1.0,phase_1,,,,,,,,,,,,,white,cross
0.0,8.0,0.0,1.0,1.0,1.0,395.2866960316896,1.0,1.0,phase_1,,,,,,,,,,,,,gray,diamond
205.0,7.0,2.0,1.0,3.0,3.0,346.71171195805067,1.0,1.0,phase_1,,,,,,,,,,,,,cyan,circle
113.0,6.0,1.0,1.0,4.0,4.0,325.8047476410866,1.0,1.0,phase_1,,,,,,,,,,,,,white,cross
194.0,3.0,2.0,0.0,2.0,2.0,395.4471945762634,1.0,1.0,phase_1,,,,,,,,,,,,,yellow,triangle
409.0,8.0,4.0,1.0,4.0,4.0,368.2121839374304,1.0,1.0,phase_1,,,,,,,,,,,,,gray,diamond
56.0,5.0,0.5,1.0,3.0,3.0,313.971059396863,1.0,1.0,phase_1,,,,,,,,,,,,,orange,hexagon
384.0,4.0,4.0,0.0,3.0,3.0,281.4569938927889,1.0,1.0,phase_1,,,,,,,,,,,,,blue,square
90.0,2.0,1.0,0.0,1.0,1.0,381.853636354208,1.0,1.0,phase_1,,,,,,,,,,,,,green,I
399.0,8.0,4.0,1.0,3.0,3.0,322.237653657794,1.0,1.0,phase_1,,,,,,,,,,,,,gray,diamond
80.0,2.0,1.0,0.0,2.0,2.0,319.639815017581,1.0,1.0,phase_1,,,,,,,,,,,,,green,I
178.0,3.0,2.0,0.0,3.0,3.0,277.3761004209518,1.0,1.0,phase_1,,,,,,,,,,,,,yellow,triangle
182.0,3.0,2.0,0.0,4.0,4.0,358.2927212119102,1.0,1.0,phase_1,,,,,,,,,,,,,yellow,triangle
382.0,8.0,4.0,1.0,4.0,4.0,430.8996088802814,1.0,1.0,phase_1,,,,,,,,,,,,,gray,diamond
118.0,2.0,1.0,0.0,2.0,2.0,336.6915844380855,1.0,1.0,phase_1,,,,,,,,,,,,,green,I
404.0,4.0,4.0,0.0,2.0,2.0,383.888928219676,1.0,1.0,phase_1,,,,,,,,,,,,,blue,square
37.0,5.0,0.5,1.0,4.0,4.0,345.2483788132667,1.0,1.0,phase_1,,,,,,,,,,,,,orange,hexagon
394.0,4.0,4.0,0.0,4.0,4.0,343.902163207531,1.0,1.0,phase_1,,,,,,,,,,,,,blue,square
419.0,8.0,4.0,1.0,2.0,2.0,356.870524585247,1.0,1.0,phase_1,,,,,,,,,,,,,gray,diamond
53.0,5.0,0.5,1.0,1.0,1.0,559.6980024129152,1.0,1.0,phase_1,,,,,,,,,,,,,orange,hexagon
385.0,8.0,4.0,1.0,2.0,2.0,390.7515797764063,1.0,1.0,phase_1,,,,,,,,,,,,,gray,diamond
423.0,8.0,4.0,1.0,3.0,3.0,346.0301291197538,1.0,1.0,phase_1,,,,,,,,,,,,,gray,diamond
30.0,5.0,0.5,1.0,2.0,2.0,439.9824794381857,1.0,1.0,phase_1,,,,,,,,,,,,,orange,hexagon
62.0,5.0,0.5,1.0,2.0,2.0,340.6984433531761,1.0,1.0,phase_1,,,,,,,,,,,,,orange,hexagon
404.0,8.0,4.0,1.0,4.0,4.0,279.1040241718292,1.0,1.0,phase_1,,,,,,,,,,,,,gray,diamond
75.0,2.0,1.0,0.0,3.0,3.0,301.1754285544157,1.0,1.0,phase_1,,,,,,,,,,,,,green,I
38.0,1.0,0.5,0.0,1.0,1.0,385.6321759521961,1.0,1.0,phase_1,,,,,,,,,,,,,magenta,flipped triangle
222.0,7.0,2.0,1.0,3.0,3.0,301.1109493672848,1.0,1.0,phase_1,,,,,,,,,,,,,cyan,circle
0.0,2.0,0.0,0.0,2.0,2.0,336.9080163538456,1.0,1.0,phase_1,,,,,,,,,,,,,green,I
74.0,5.0,0.5,1.0,2.0,2.0,463.5719023644924,1.0,1.0,phase_1,,,,,,,,,,,,,orange,hexagon
399.0,4.0,4.0,0.0,2.0,2.0,470.0037874281406,1.0,1.0,phase_1,,,,,,,,,,,,,blue,square
116.0,2.0,1.0,0.0,2.0,2.0,430.5937401950359,1.0,1.0,phase_1,,,,,,,,,,,,,green,I
205.0,3.0,2.0,0.0,1.0,1.0,521.9324734061956,2.0,1.0,phase_1,,,,,,,,,,,,,yellow,triangle
66.0,5.0,0.5,1.0,3.0,3.0,411.4528745412826,2.0,1.0,phase_1,,,,,,,,,,,,,orange,hexagon
0.0,1.0,0.0,0.0,4.0,4.0,416.4479020982981,2.0,1.0,phase_1,,,,,,,,,,,,,magenta,flipped triangle
30.0,1.0,0.5,0.0,3.0,3.0,456.8902757018804,2.0,1.0,phase_1,,,,,,,,,,,,,magenta,flipped triangle
0.0,1.0,0.0,0.0,1.0,1.0,433.3084560930729,2.0,1.0,phase_1,,,,,,,,,,,,,magenta,flipped triangle
222.0,7.0,2.0,1.0,1.0,1.0,470.4593569040298,2.0,1.0,phase_1,,,,,,,,,,,,,cyan,circle
389.0,4.0,4.0,0.0,2.0,2.0,373.9272765815258,2.0,1.0,phase_1,,,,,,,,,,,,,blue,square
422.0,4.0,4.0,0.0,1.0,1.0,323.562329635024,2.0,1.0,phase_1,,,,,,,,,,,,,blue,square
75.0,6.0,1.0,1.0,4.0,4.0,460.2135680615902,2.0,1.0,phase_1,,,,,,,,,,,,,white,cross
400.0,8.0,4.0,1.0,1.0,1.0,384.8432656377554,2.0,1.0,phase_1,,,,,,,,,,,,,gray,diamond
59.0,5.0,0.5,1.0,4.0,4.0,361.1280620098114,2.0,1.0,phase_1,,,,,,,,,,,,,orange,hexagon
0.0,6.0,0.0,1.0,3.0,3.0,349.2224384099245,2.0,1.0,phase_1,,,,,,,,,,,,,white,cross
178.0,3.0,2.0,0.0,1.0,1.0,390.727050602436,2.0,1.0,phase_1,,,,,,,,,,,,,yellow,triangle
109.0,6.0,1.0,1.0,4.0,4.0,277.6955999433994,2.0,1.0,phase_1,,,,,,,,,,,,,white,cross
70.0,5.0,0.5,1.0,3.0,3.0,330.7590335607528,2.0,1.0,phase_1,,,,,,,,,,,,,orange,hexagon
0.0,7.0,0.0,1.0,1.0,1.0,383.9975371956825,2.0,1.0,phase_1,,,,,,,,,,,,,cyan,circle
0.0,7.0,0.0,1.0,3.0,3.0,443.351823836565,2.0,1.0,phase_1,,,,,,,,,,,,,cyan,circle
175.0,3.0,2.0,0.0,4.0,4.0,416.1599557846784,2.0,1.0,phase_1,,,,,,,,,,,,,yellow,triangle
0.0,6.0,0.0,1.0,1.0,1.0,467.0212678611278,2.0,1.0,phase_1,,,,,,,,,,,,,white,cross
72.0,5.0,0.5,1.0,1.0,1.0,512.5692915171385,2.0,1.0,phase_1,,,,,,,,,,,,,orange,hexagon
37.0,1.0,0.5,0.0,3.0,3.0,447.8552956134081,2.0,1.0,phase_1,,,,,,,,,,,,,magenta,flipped triangle
407.0,4.0,4.0,0.0,1.0,1.0,452.1198607981205,2.0,1.0,phase_1,,,,,,,,,,,,,blue,square
99.0,2.0,1.0,0.0,4.0,4.0,367.5685357302427,2.0,1.0,phase_1,,,,,,,,,,,,,green,I
56.0,1.0,0.5,0.0,1.0,1.0,378.5475436598062,2.0,1.0,phase_1,,,,,,,,,,,,,magenta,flipped triangle
0.0,1.0,0.0,0.0,1.0,1.0,518.9422313123941,2.0,1.0,phase_1,,,,,,,,,,,,,magenta,flipped triangle
49.0,1.0,0.5,0.0,2.0,2.0,380.4047871381044,2.0,1.0,phase_1,,,,,,,,,,,,,magenta,flipped triangle
68.0,1.0,0.5,0.0,3.0,3.0,419.550122693181,2.0,1.0,phase_1,,,,,,,,,,,,,magenta,flipped triangle
187.0,7.0,2.0,1.0,4.0,4.0,343.2892579585314,2.0,1.0,phase_1,,,,,,,,,,,,,cyan,circle
79.0,6.0,1.0,1.0,3.0,3.0,356.9095283746719,2.0,1.0,phase_1,,,,,,,,,,,,,white,cross
412.0,8.0,4.0,1.0,1.0,1.0,450.3507185727358,2.0,1.0,phase_1,,,,,,,,,,,,,gray,diamond
38.0,1.0,0.5,0.0,4.0,4.0,445.7276314496994,2.0,1.0,phase_1,,,,,,,,,,,,,magenta,flipped triangle
121.0,2.0,1.0,0.0,2.0,2.0,411.1580997705459,2.0,1.0,phase_1,,,,,,,,,,,,,green,I
0.0,5.0,0.0,1.0,2.0,2.0,437.7805162221193,2.0,1.0,phase_1,,,,,,,,,,,,,orange,hexagon
88.0,6.0,1.0,1.0,1.0,1.0,531.8447034806013,2.0,1.0,phase_1,,,,,,,,,,,,,white,cross
45.0,1.0,0.5,0.0,4.0,4.0,432.2055876255035,2.0,1.0,phase_1,,,,,,,,,,,,,magenta,flipped triangle
46.0,5.0,0.5,1.0,4.0,4.0,427.7053792029619,2.0,1.0,phase_1,,,,,,,,,,,,,orange,hexagon
0.0,3.0,0.0,0.0,3.0,3.0,378.9492435753345,2.0,1.0,phase_1,,,,,,,,,,,,,yellow,triangle
399.0,4.0,4.0,0.0,2.0,2.0,460.2067824453115,2.0,1.0,phase_1,,,,,,,,,,,,,blue,square
380.0,8.0,4.0,1.0,2.0,2.0,474.87648203969,2.0,1.0,phase_1,,,,,,,,,,,,,gray,diamond
0.0,1.0,0.0,0.0,4.0,4.0,573.4664406627417,2.0,1.0,phase_1,,,,,,,,,,,,,magenta,flipped triangle
196.0,7.0,2.0,1.0,4.0,4.0,474.8374354094267,2.0,1.0,phase_1,,,,,,,,,,,,,cyan,circle
0.0,8.0,0.0,1.0,2.0,2.0,390.3301022946834,2.0,1.0,phase_1,,,,,,,,,,,,,gray,diamond
46.0,1.0,0.5,0.0,4.0,4.0,355.6240927428007,2.0,1.0,phase_1,,,,,,,,,,,,,magenta,flipped triangle
0.0,1.0,0.0,0.0,3.0,3.0,468.2669807225466,2.0,1.0,phase_1,,,,,,,,,,,,,magenta,flipped triangle
82.0,6.0,1.0,1.0,1.0,1.0,519.9606120586395,2.0,1.0,phase_1,,,,,,,,,,,,,white,cross
384.0,8.0,4.0,1.0,4.0,4.0,379.9008578062057,2.0,1.0,phase_1,,,,,,,,,,,,,gray,diamond
0.0,6.0,0.0,1.0,1.0,1.0,399.5257839560509,2.0,1.0,phase_1,,,,,,,,,,,,,white,cross
0.0,7.0,0.0,1.0,1.0,1.0,387.3991761356592,2.0,1.0,phase_1,,,,,,,,,,,,,cyan,circle
377.0,8.0,4.0,1.0,3.0,3.0,335.6869723647833,2.0,1.0,phase_1,,,,,,,,,,,,,gray,diamond
189.0,7.0,2.0,1.0,4.0,4.0,287.494134157896,2.0,1.0,phase_1,,,,,,,,,,,,,cyan,circle
199.0,7.0,2.0,1.0,2.0,2.0,346.4719168841839,2.0,1.0,phase_1,,,,,,,,,,,,,cyan,circle
50.0,1.0,0.5,0.0,2.0,2.0,543.7242444604635,2.0,1.0,phase_1,,,,,,,,,,,,,magenta,flipped triangle
41.0,1.0,0.5,0.0,4.0,4.0,283.205633983016,2.0,1.0,phase_1,,,,,,,,,,,,,magenta,flipped triangle
58.0,1.0,0.5,0.0,2.0,2.0,321.1382366716862,2.0,1.0,phase_1,,,,,,,,,,,,,magenta,flipped triangle
197.0,7.0,2.0,1.0,1.0,1.0,404.3026491999626,2.0,1.0,phase_1,,,,,,,,,,,,,cyan,circle
118.0,6.0,1.0,1.0,3.0,3.0,444.6697439998388,2.0,1.0,phase_1,,,,,,,,,,,,,white,cross
204.0,3.0,2.0,0.0,3.0,3.0,344.9023086577654,2.0,1.0,phase_1,,,,,,,,,,,,,yellow,triangle
409.0,8.0,4.0,1.0,2.0,2.0,393.5814723372459,2.0,1.0,phase_1,,,,,,,,,,,,,gray,diamond
49.0,5.0,0.5,1.0,1.0,1.0,536.5172158926725,2.0,1.0,phase_1,,,,,,,,,,,,,orange,hexagon
191.0,7.0,2.0,1.0,4.0,4.0,349.1997048258781,2.0,1.0,phase_1,,,,,,,,,,,,,cyan,circle
0.0,7.0,0.0,1.0,3.0,3.0,337.3049721121788,2.0,1.0,phase_1,,,,,,,,,,,,,cyan,circle
116.0,6.0,1.0,1.0,4.0,4.0,367.4593139439821,2.0,1.0,phase_1,,,,,,,,,,,,,white,cross
204.0,7.0,2.0,1.0,4.0,4.0,338.0089476704597,2.0,1.0,phase_1,,,,,,,,,,,,,cyan,circle
113.0,2.0,1.0,0.0,3.0,3.0,365.9619223326444,2.0,1.0,phase_1,,,,,,,,,,,,,green,I
41.0,1.0,0.5,0.0,2.0,2.0,507.53071159124374,2.0,1.0,phase_1,,,,,,,,,,,,,magenta,flipped triangle
52.0,1.0,0.5,0.0,2.0,2.0,416.4382964372635,2.0,1.0,phase_1,,,,,,,,,,,,,magenta,flipped triangle
219.0,3.0,2.0,0.0,2.0,2.0,390.933483839035,2.0,1.0,phase_1,,,,,,,,,,,,,yellow,triangle
224.0,7.0,2.0,1.0,3.0,3.0,369.2151717841625,2.0,1.0,phase_1,,,,,,,,,,,,,cyan,circle
59.0,1.0,0.5,0.0,1.0,1.0,463.5001067072153,2.0,1.0,phase_1,,,,,,,,,,,,,magenta,flipped triangle
0.0,2.0,0.0,0.0,1.0,1.0,362.3231686651706,2.0,1.0,phase_1,,,,,,,,,,,,,green,I
210.0,7.0,2.0,1.0,4.0,4.0,345.7460757344961,2.0,1.0,phase_1,,,,,,,,,,,,,cyan,circle
118.0,6.0,1.0,1.0,1.0,1.0,541.7491812258959,2.0,1.0,phase_1,,,,,,,,,,,,,white,cross
389.0,4.0,4.0,0.0,1.0,1.0,520.0217124074697,2.0,1.0,phase_1,,,,,,,,,,,,,blue,square
62.0,5.0,0.5,1.0,2.0,2.0,348.7299475818872,2.0,1.0,phase_1,,,,,,,,,,,,,orange,hexagon
45.0,5.0,0.5,1.0,4.0,4.0,345.248656347394,2.0,1.0,phase_1,,,,,,,,,,,,,orange,hexagon
185.0,3.0,2.0,0.0,2.0,2.0,326.8599156290293,2.0,1.0,phase_1,,,,,,,,,,,,,yellow,triangle
0.0,3.0,0.0,0.0,3.0,3.0,389.8459672927856,2.0,1.0,phase_1,,,,,,,,,,,,,yellow,triangle
0.0,5.0,0.0,1.0,4.0,4.0,362.3523432761431,2.0,1.0,phase_1,,,,,,,,,,,,,orange,hexagon
82.0,2.0,1.0,0.0,1.0,1.0,550.5067054182291,2.0,1.0,phase_1,,,,,,,,,,,,,green,I
0.0,7.0,0.0,1.0,3.0,3.0,336.9918167591095,2.0,1.0,phase_1,,,,,,,,,,,,,cyan,circle
58.0,5.0,0.5,1.0,3.0,3.0,526.4412071555853,2.0,1.0,phase_1,,,,,,,,,,,,,orange,hexagon
191.0,3.0,2.0,0.0,4.0,4.0,474.4354039430618,2.0,1.0,phase_1,,,,,,,,,,,,,yellow,triangle
0.0,2.0,0.0,0.0,1.0,1.0,608.9169420301914,2.0,1.0,phase_1,,,,,,,,,,,,,green,I
409.0,8.0,4.0,1.0,2.0,2.0,453.15799303352827,2.0,1.0,phase_1,,,,,,,,,,,,,gray,diamond
207.0,3.0,2.0,0.0,4.0,4.0,344.6820843964815,2.0,1.0,phase_1,,,,,,,,,,,,,yellow,triangle
94.0,2.0,1.0,0.0,2.0,2.0,357.0108562707901,2.0,1.0,phase_1,,,,,,,,,,,,,green,I
0.0,4.0,0.0,0.0,1.0,1.0,612.9241958260536,2.0,1.0,phase_1,,,,,,,,,,,,,blue,square
66.0,1.0,0.5,0.0,2.0,2.0,551.593815907836,2.0,1.0,phase_1,,,,,,,,,,,,,magenta,flipped triangle
389.0,8.0,4.0,1.0,3.0,3.0,503.18158604204655,2.0,1.0,phase_1,,,,,,,,,,,,,gray,diamond
101.0,6.0,1.0,1.0,3.0,3.0,411.675127223134,2.0,1.0,phase_1,,,,,,,,,,,,,white,cross
0.0,5.0,0.0,1.0,2.0,2.0,414.2878334969282,2.0,1.0,phase_1,,,,,,,,,,,,,orange,hexagon
25.0,5.0,0.5,1.0,2.0,2.0,347.3087027668953,2.0,1.0,phase_1,,,,,,,,,,,,,orange,hexagon
186.0,7.0,2.0,1.0,2.0,2.0,320.3650247305631,2.0,1.0,phase_1,,,,,,,,,,,,,cyan,circle
399.0,8.0,4.0,1.0,1.0,1.0,612.3553831130266,2.0,1.0,phase_1,,,,,,,,,,,,,gray,diamond
0.0,8.0,0.0,1.0,1.0,1.0,616.4211705327034,2.0,1.0,phase_1,,,,,,,,,,,,,gray,diamond
79.0,6.0,1.0,1.0,4.0,4.0,437.5318996608257,2.0,1.0,phase_1,,,,,,,,,,,,,white,cross
0.0,3.0,0.0,0.0,1.0,1.0,481.3208039849996,2.0,1.0,phase_1,,,,,,,,,,,,,yellow,triangle
405.0,8.0,4.0,1.0,1.0,1.0,509.0279933065176,2.0,1.0,phase_1,,,,,,,,,,,,,gray,diamond
46.0,5.0,0.5,1.0,4.0,4.0,518.0370807647705,2.0,1.0,phase_1,,,,,,,,,,,,,orange,hexagon
0.0,5.0,0.0,1.0,3.0,3.0,376.8035322427749,2.0,1.0,phase_1,,,,,,,,,,,,,orange,hexagon
118.0,6.0,1.0,1.0,1.0,1.0,550.4160691052675,3.0,1.0,phase_1,,,,,,,,,,,,,white,cross
377.0,4.0,4.0,0.0,2.0,2.0,556.5066132694483,3.0,1.0,phase_1,,,,,,,,,,,,,blue,square
424.0,8.0,4.0,1.0,1.0,1.0,633.3143096417189,3.0,1.0,phase_1,,,,,,,,,,,,,gray,diamond
399.0,4.0,4.0,0.0,2.0,2.0,644.8497455567122,3.0,1.0,phase_1,,,,,,,,,,,,,blue,square
385.0,4.0,4.0,0.0,4.0,4.0,552.5071322917938,3.0,1.0,phase_1,,,,,,,,,,,,,blue,square
0.0,1.0,0.0,0.0,4.0,4.0,388.8529036194086,3.0,1.0,phase_1,,,,,,,,,,,,,magenta,flipped triangle
80.0,2.0,1.0,0.0,1.0,1.0,435.6841333210468,3.0,1.0,phase_1,,,,,,,,,,,,,green,I
0.0,8.0,0.0,1.0,3.0,3.0,336.3743610680103,3.0,1.0,phase_1,,,,,,,,,,,,,gray,diamond
407.0,8.0,4.0,1.0,1.0,1.0,466.2595726549625,3.0,1.0,phase_1,,,,,,,,,,,,,gray,diamond
79.0,2.0,1.0,0.0,4.0,4.0,305.4908365011215,3.0,1.0,phase_1,,,,,,,,,,,,,green,I
409.0,4.0,4.0,0.0,3.0,3.0,430.2692841738462,3.0,1.0,phase_1,,,,,,,,,,,,,blue,square
0.0,4.0,0.0,0.0,2.0,2.0,345.2042527496815,3.0,1.0,phase_1,,,,,,,,,,,,,blue,square
185.0,7.0,2.0,1.0,3.0,3.0,351.1871472001076,3.0,1.0,phase_1,,,,,,,,,,,,,cyan,circle
50.0,5.0,0.5,1.0,1.0,1.0,458.361629396677,3.0,1.0,phase_1,,,,,,,,,,,,,orange,hexagon
209.0,7.0,2.0,1.0,1.0,1.0,472.1993915736675,3.0,1.0,phase_1,,,,,,,,,,,,,cyan,circle
419.0,8.0,4.0,1.0,4.0,4.0,750.3135595470667,3.0,1.0,phase_1,,,,,,,,,,,,,gray,diamond
194.0,7.0,2.0,1.0,1.0,1.0,443.341638892889,3.0,1.0,phase_1,,,,,,,,,,,,,cyan,circle
411.0,4.0,4.0,0.0,4.0,4.0,430.7322278618812,3.0,1.0,phase_1,,,,,,,,,,,,,blue,square
0.0,1.0,0.0,0.0,4.0,4.0,739.1097359359264,3.0,1.0,phase_1,,,,,,,,,,,,,magenta,flipped triangle
0.0,1.0,0.0,0.0,1.0,1.0,454.5346852391958,3.0,1.0,phase_1,,,,,,,,,,,,,magenta,flipped triangle
407.0,4.0,4.0,0.0,2.0,2.0,378.4448076039552,3.0,1.0,phase_1,,,,,,,,,,,,,blue,square
59.0,5.0,0.5,1.0,4.0,4.0,680.3252641111612,3.0,1.0,phase_1,,,,,,,,,,,,,orange,hexagon
412.0,4.0,4.0,0.0,4.0,4.0,531.8311508744955,3.0,1.0,phase_1,,,,,,,,,,,,,blue,square
88.0,2.0,1.0,0.0,3.0,3.0,321.3222399353981,3.0,1.0,phase_1,,,,,,,,,,,,,green,I
68.0,1.0,0.5,0.0,3.0,3.0,382.0803239941597,3.0,1.0,phase_1,,,,,,,,,,,,,magenta,flipped triangle
0.0,6.0,0.0,1.0,4.0,4.0,361.8182111531496,3.0,1.0,phase_1,,,,,,,,,,,,,white,cross
0.0,8.0,0.0,1.0,4.0,4.0,353.0086558312177,3.0,1.0,phase_1,,,,,,,,,,,,,gray,diamond
81.0,6.0,1.0,1.0,4.0,4.0,340.4788002371788,3.0,1.0,phase_1,,,,,,,,,,,,,white,cross
102.0,2.0,1.0,0.0,1.0,1.0,560.1548478007317,3.0,1.0,phase_1,,,,,,,,,,,,,green,I
0.0,8.0,0.0,1.0,4.0,4.0,429.5338280498981,3.0,1.0,phase_1,,,,,,,,,,,,,gray,diamond
67.0,1.0,0.5,0.0,4.0,4.0,477.3388616740703,3.0,1.0,phase_1,,,,,,,,,,,,,magenta,flipped triangle
424.0,8.0,4.0,1.0,4.0,4.0,446.4873168617487,3.0,1.0,phase_1,,,,,,,,,,,,,gray,diamond
0.0,7.0,0.0,1.0,2.0,2.0,402.7672559022903,3.0,1.0,phase_1,,,,,,,,,,,,,cyan,circle
0.0,5.0,0.0,1.0,2.0,2.0,479.7849468886852,3.0,1.0,phase_1,,,,,,,,,,,,,orange,hexagon
201.0,7.0,2.0,1.0,1.0,1.0,566.6836053133011,3.0,1.0,phase_1,,,,,,,,,,,,,cyan,circle
56.0,1.0,0.5,0.0,1.0,1.0,636.1324116587639,3.0,1.0,phase_1,,,,,,,,,,,,,magenta,flipped triangle
109.0,2.0,1.0,0.0,2.0,2.0,398.1921393424272,3.0,1.0,phase_1,,,,,,,,,,,,,green,I
70.0,1.0,0.5,0.0,4.0,4.0,374.6408764272928,3.0,1.0,phase_1,,,,,,,,,,,,,magenta,flipped triangle
197.0,3.0,2.0,0.0,1.0,1.0,503.2910853624344,3.0,1.0,phase_1,,,,,,,,,,,,,yellow,triangle
67.0,5.0,0.5,1.0,4.0,4.0,629.693316295743,3.0,1.0,phase_1,,,,,,,,,,,,,orange,hexagon
0.0,6.0,0.0,1.0,3.0,3.0,442.387081682682,3.0,1.0,phase_1,,,,,,,,,,,,,white,cross
46.0,1.0,0.5,0.0,1.0,1.0,390.079565346241,3.0,1.0,phase_1,,,,,,,,,,,,,magenta,flipped triangle
107.0,2.0,1.0,0.0,1.0,1.0,587.7672974020243,3.0,1.0,phase_1,,,,,,,,,,,,,green,I
180.0,3.0,2.0,0.0,2.0,2.0,418.2954784482717,3.0,1.0,phase_1,,,,,,,,,,,,,yellow,triangle
423.0,4.0,4.0,0.0,3.0,3.0,306.9731555879116,3.0,1.0,phase_1,,,,,,,,,,,,,blue,square
416.0,8.0,4.0,1.0,1.0,1.0,682.5365964323282,3.0,1.0,phase_1,,,,,,,,,,,,,gray,diamond
0.0,5.0,0.0,1.0,2.0,2.0,340.3991721570492,3.0,1.0,phase_1,,,,,,,,,,,,,orange,hexagon
124.0,6.0,1.0,1.0,3.0,3.0,371.5380188077688,3.0,1.0,phase_1,,,,,,,,,,,,,white,cross
424.0,4.0,4.0,0.0,2.0,2.0,365.3406146913767,3.0,1.0,phase_1,,,,,,,,,,,,,blue,square
380.0,4.0,4.0,0.0,4.0,4.0,458.5143662989139,3.0,1.0,phase_1,,,,,,,,,,,,,blue,square
106.0,2.0,1.0,0.0,3.0,3.0,439.5254235714674,3.0,1.0,phase_1,,,,,,,,,,,,,green,I
0.0,5.0,0.0,1.0,4.0,4.0,317.1922583132982,3.0,1.0,phase_1,,,,,,,,,,,,,orange,hexagon
216.0,3.0,2.0,0.0,3.0,3.0,360.7766851782799,3.0,1.0,phase_1,,,,,,,,,,,,,yellow,triangle
406.0,8.0,4.0,1.0,1.0,1.0,511.02454774081707,3.0,1.0,phase_1,,,,,,,,,,,,,gray,diamond
0.0,4.0,0.0,0.0,2.0,2.0,532.695459201932,3.0,1.0,phase_1,,,,,,,,,,,,,blue,square
183.0,7.0,2.0,1.0,2.0,2.0,374.3078578263521,3.0,1.0,phase_1,,,,,,,,,,,,,cyan,circle
115.0,2.0,1.0,0.0,1.0,1.0,349.907960742712,3.0,1.0,phase_1,,,,,,,,,,,,,green,I
419.0,4.0,4.0,0.0,3.0,3.0,360.791627317667,3.0,1.0,phase_1,,,,,,,,,,,,,blue,square
211.0,3.0,2.0,0.0,4.0,4.0,391.0704348236322,3.0,1.0,phase_1,,,,,,,,,,,,,yellow,triangle
71.0,5.0,0.5,1.0,3.0,3.0,355.4141633212566,3.0,1.0,phase_1,,,,,,,,,,,,,orange,hexagon
115.0,6.0,1.0,1.0,4.0,4.0,462.920892983675,3.0,1.0,phase_1,,,,,,,,,,,,,white,cross
196.0,3.0,2.0,0.0,4.0,4.0,405.8023858815431,3.0,1.0,phase_1,,,,,,,,,,,,,yellow,triangle
391.0,4.0,4.0,0.0,3.0,3.0,410.5942528694868,3.0,1.0,phase_1,,,,,,,,,,,,,blue,square
85.0,6.0,1.0,1.0,3.0,3.0,318.1837163865566,3.0,1.0,phase_1,,,,,,,,,,,,,white,cross
224.0,3.0,2.0,0.0,1.0,1.0,524.1950377821922,3.0,1.0,phase_1,,,,,,,,,,,,,yellow,triangle
0.0,5.0,0.0,1.0,1.0,1.0,526.6086626797915,3.0,1.0,phase_1,,,,,,,,,,,,,orange,hexagon
124.0,2.0,1.0,0.0,2.0,2.0,380.7561844587326,3.0,1.0,phase_1,,,,,,,,,,,,,green,I
411.0,8.0,4.0,1.0,2.0,2.0,368.8302803784609,3.0,1.0,phase_1,,,,,,,,,,,,,gray,diamond
102.0,6.0,1.0,1.0,2.0,2.0,365.3109539300203,3.0,1.0,phase_1,,,,,,,,,,,,,white,cross
101.0,2.0,1.0,0.0,2.0,2.0,338.5370448231697,3.0,1.0,phase_1,,,,,,,,,,,,,green,I
45.0,5.0,0.5,1.0,2.0,2.0,447.0569007098675,3.0,1.0,phase_1,,,,,,,,,,,,,orange,hexagon
0.0,8.0,0.0,1.0,2.0,2.0,385.7479635626077,3.0,1.0,phase_1,,,,,,,,,,,,,gray,diamond
210.0,3.0,2.0,0.0,4.0,4.0,375.0678151845932,3.0,1.0,phase_1,,,,,,,,,,,,,yellow,triangle
89.0,2.0,1.0,0.0,1.0,1.0,645.6617247313261,3.0,1.0,phase_1,,,,,,,,,,,,,green,I
187.0,3.0,2.0,0.0,1.0,1.0,671.5129651129246,3.0,1.0,phase_1,,,,,,,,,,,,,yellow,triangle
106.0,2.0,1.0,0.0,4.0,4.0,344.3631175905466,3.0,1.0,phase_1,,,,,,,,,,,,,green,I
178.0,7.0,2.0,1.0,1.0,1.0,440.7428037375211,3.0,1.0,phase_1,,,,,,,,,,,,,cyan,circle
195.0,3.0,2.0,0.0,3.0,3.0,497.3797872662544,3.0,1.0,phase_1,,,,,,,,,,,,,yellow,triangle
0.0,2.0,0.0,0.0,4.0,4.0,653.4821316599846,3.0,1.0,phase_1,,,,,,,,,,,,,green,I
198.0,7.0,2.0,1.0,2.0,2.0,394.8266804218292,3.0,1.0,phase_1,,,,,,,,,,,,,cyan,circle
0.0,3.0,0.0,0.0,1.0,1.0,494.5359118282795,3.0,1.0,phase_1,,,,,,,,,,,,,yellow,triangle
209.0,3.0,2.0,0.0,4.0,4.0,352.7387753129005,3.0,1.0,phase_1,,,,,,,,,,,,,yellow,triangle
111.0,6.0,1.0,1.0,2.0,2.0,365.9064881503582,3.0,1.0,phase_1,,,,,,,,,,,,,white,cross
216.0,7.0,2.0,1.0,4.0,4.0,369.9983134865761,3.0,1.0,phase_1,,,,,,,,,,,,,cyan,circle
219.0,7.0,2.0,1.0,4.0,4.0,329.4404037296772,3.0,1.0,phase_1,,,,,,,,,,,,,cyan,circle
189.0,3.0,2.0,0.0,3.0,3.0,315.7076518982649,3.0,1.0,phase_1,,,,,,,,,,,,,yellow,triangle
178.0,7.0,2.0,1.0,3.0,3.0,450.5967274308204,3.0,1.0,phase_1,,,,,,,,,,,,,cyan,circle
393.0,8.0,4.0,1.0,4.0,4.0,503.3350996673107,3.0,1.0,phase_1,,,,,,,,,,,,,gray,diamond
125.0,6.0,1.0,1.0,2.0,2.0,421.0057985037565,3.0,1.0,phase_1,,,,,,,,,,,,,white,cross
108.0,2.0,1.0,0.0,4.0,4.0,398.3516320586204,3.0,1.0,phase_1,,,,,,,,,,,,,green,I
41.0,5.0,0.5,1.0,4.0,4.0,564.8823548108339,3.0,1.0,phase_1,,,,,,,,,,,,,orange,hexagon
204.0,7.0,2.0,1.0,4.0,4.0,400.420531630516,3.0,1.0,phase_1,,,,,,,,,,,,,cyan,circle
99.0,6.0,1.0,1.0,3.0,3.0,300.7830567657947,3.0,1.0,phase_1,,,,,,,,,,,,,white,cross
59.0,1.0,0.5,0.0,1.0,1.0,361.4653646945953,3.0,1.0,phase_1,,,,,,,,,,,,,magenta,flipped triangle
0.0,4.0,0.0,0.0,2.0,2.0,318.1605935096741,3.0,1.0,phase_1,,,,,,,,,,,,,blue,square
183.0,3.0,2.0,0.0,3.0,3.0,314.5481552928686,3.0,1.0,phase_1,,,,,,,,,,,,,yellow,triangle
383.0,4.0,4.0,0.0,3.0,3.0,398.9008069038391,3.0,1.0,phase_1,,,,,,,,,,,,,blue,square
204.0,3.0,2.0,0.0,2.0,2.0,380.5380873382091,3.0,1.0,phase_1,,,,,,,,,,,,,yellow,triangle
61.0,1.0,0.5,0.0,2.0,2.0,360.9543517231941,3.0,1.0,phase_1,,,,,,,,,,,,,magenta,flipped triangle
94.0,6.0,1.0,1.0,2.0,2.0,384.0319458395242,3.0,1.0,phase_1,,,,,,,,,,,,,white,cross
180.0,7.0,2.0,1.0,2.0,2.0,411.7429926991462,4.0,1.0,phase_1,,,,,,,,,,,,,cyan,circle
0.0,5.0,0.0,1.0,1.0,1.0,517.4468401819468,4.0,1.0,phase_1,,,,,,,,,,,,,orange,hexagon
25.0,5.0,0.5,1.0,3.0,3.0,355.5177748203277,4.0,1.0,phase_1,,,,,,,,,,,,,orange,hexagon
68.0,5.0,0.5,1.0,4.0,4.0,302.0243197679519,4.0,1.0,phase_1,,,,,,,,,,,,,orange,hexagon
222.0,3.0,2.0,0.0,4.0,4.0,309.648584574461,4.0,1.0,phase_1,,,,,,,,,,,,,yellow,triangle
61.0,5.0,0.5,1.0,3.0,3.0,289.5548678934574,4.0,1.0,phase_1,,,,,,,,,,,,,orange,hexagon
419.0,8.0,4.0,1.0,3.0,3.0,339.9746473878622,4.0,2.0,phase_1,,,,,,,,,,,,,gray,diamond
391.0,8.0,4.0,1.0,4.0,4.0,318.9265970140695,4.0,1.0,phase_1,,,,,,,,,,,,,gray,diamond
81.0,2.0,1.0,0.0,3.0,3.0,348.6972227692604,4.0,1.0,phase_1,,,,,,,,,,,,,green,I
111.0,2.0,1.0,0.0,4.0,4.0,314.6617785096168,4.0,1.0,phase_1,,,,,,,,,,,,,green,I
107.0,6.0,1.0,1.0,1.0,1.0,587.8258720040321,4.0,1.0,phase_1,,,,,,,,,,,,,white,cross
51.0,5.0,0.5,1.0,2.0,2.0,393.974419683218,4.0,1.0,phase_1,,,,,,,,,,,,,orange,hexagon
394.0,4.0,4.0,0.0,1.0,1.0,654.8587158322334,4.0,1.0,phase_1,,,,,,,,,,,,,blue,square
0.0,2.0,0.0,0.0,3.0,3.0,349.8784080147743,4.0,1.0,phase_1,,,,,,,,,,,,,green,I
27.0,5.0,0.5,1.0,1.0,1.0,734.2869378626347,4.0,1.0,phase_1,,,,,,,,,,,,,orange,hexagon
386.0,4.0,4.0,0.0,3.0,3.0,381.7862458527088,4.0,1.0,phase_1,,,,,,,,,,,,,blue,square
386.0,8.0,4.0,1.0,4.0,4.0,321.6912765055895,4.0,1.0,phase_1,,,,,,,,,,,,,gray,diamond
201.0,3.0,2.0,0.0,2.0,2.0,358.3611231297254,4.0,1.0,phase_1,,,,,,,,,,,,,yellow,triangle
66.0,5.0,0.5,1.0,2.0,2.0,361.2445462495088,4.0,1.0,phase_1,,,,,,,,,,,,,orange,hexagon
0.0,2.0,0.0,0.0,2.0,2.0,296.9464845955372,4.0,1.0,phase_1,,,,,,,,,,,,,green,I
380.0,4.0,4.0,0.0,1.0,1.0,349.7632648795843,4.0,1.0,phase_1,,,,,,,,,,,,,blue,square
400.0,8.0,4.0,1.0,1.0,1.0,520.3668344765902,4.0,1.0,phase_1,,,,,,,,,,,,,gray,diamond
222.0,3.0,2.0,0.0,1.0,1.0,316.5954146534204,4.0,1.0,phase_1,,,,,,,,,,,,,yellow,triangle
419.0,4.0,4.0,0.0,4.0,4.0,464.7281989455223,4.0,1.0,phase_1,,,,,,,,,,,,,blue,square
406.0,4.0,4.0,0.0,1.0,1.0,335.688266903162,4.0,1.0,phase_1,,,,,,,,,,,,,blue,square
0.0,7.0,0.0,1.0,4.0,4.0,325.2347037196159,4.0,1.0,phase_1,,,,,,,,,,,,,cyan,circle
377.0,4.0,4.0,0.0,4.0,4.0,378.7054419517517,4.0,1.0,phase_1,,,,,,,,,,,,,blue,square
68.0,5.0,0.5,1.0,1.0,1.0,347.5833553820848,4.0,1.0,phase_1,,,,,,,,,,,,,orange,hexagon
389.0,8.0,4.0,1.0,2.0,2.0,383.7390784174204,4.0,1.0,phase_1,,,,,,,,,,,,,gray,diamond
25.0,1.0,0.5,0.0,4.0,4.0,333.3518635481596,4.0,1.0,phase_1,,,,,,,,,,,,,magenta,flipped triangle
204.0,7.0,2.0,1.0,3.0,3.0,361.4482246339321,4.0,1.0,phase_1,,,,,,,,,,,,,cyan,circle
31.0,5.0,0.5,1.0,1.0,1.0,682.07504786551,4.0,1.0,phase_1,,,,,,,,,,,,,orange,hexagon
399.0,8.0,4.0,1.0,3.0,3.0,404.7756064683199,4.0,1.0,phase_1,,,,,,,,,,,,,gray,diamond
36.0,1.0,0.5,0.0,1.0,1.0,400.1884721219539,4.0,1.0,phase_1,,,,,,,,,,,,,magenta,flipped triangle
377.0,8.0,4.0,1.0,2.0,2.0,309.115843847394,4.0,1.0,phase_1,,,,,,,,,,,,,gray,diamond
99.0,6.0,1.0,1.0,4.0,4.0,531.3809104263783,4.0,1.0,phase_1,,,,,,,,,,,,,white,cross
90.0,6.0,1.0,1.0,3.0,3.0,422.4569518119097,4.0,1.0,phase_1,,,,,,,,,,,,,white,cross
77.0,6.0,1.0,1.0,1.0,1.0,354.6263743191957,4.0,1.0,phase_1,,,,,,,,,,,,,white,cross
36.0,5.0,0.5,1.0,2.0,2.0,329.8810571432113,4.0,1.0,phase_1,,,,,,,,,,,,,orange,hexagon
393.0,4.0,4.0,0.0,3.0,3.0,292.1784054487943,4.0,1.0,phase_1,,,,,,,,,,,,,blue,square
91.0,2.0,1.0,0.0,2.0,2.0,410.2287292480469,4.0,1.0,phase_1,,,,,,,,,,,,,green,I
112.0,2.0,1.0,0.0,4.0,4.0,622.6560026407242,4.0,1.0,phase_1,,,,,,,,,,,,,green,I
175.0,7.0,2.0,1.0,1.0,1.0,356.9159712642431,4.0,1.0,phase_1,,,,,,,,,,,,,cyan,circle
112.0,6.0,1.0,1.0,1.0,1.0,358.2310322672128,4.0,1.0,phase_1,,,,,,,,,,,,,white,cross
400.0,4.0,4.0,0.0,3.0,3.0,325.8169293403625,4.0,1.0,phase_1,,,,,,,,,,,,,blue,square
200.0,3.0,2.0,0.0,3.0,3.0,312.0651505887508,4.0,1.0,phase_1,,,,,,,,,,,,,yellow,triangle
419.0,4.0,4.0,0.0,1.0,1.0,476.0508500039577,4.0,1.0,phase_1,,,,,,,,,,,,,blue,square
0.0,3.0,0.0,0.0,4.0,4.0,314.851064234972,4.0,1.0,phase_1,,,,,,,,,,,,,yellow,triangle
0.0,3.0,0.0,0.0,1.0,1.0,415.2198769152164,4.0,1.0,phase_1,,,,,,,,,,,,,yellow,triangle
210.0,7.0,2.0,1.0,2.0,2.0,275.5074184387922,4.0,1.0,phase_1,,,,,,,,,,,,,cyan,circle
0.0,8.0,0.0,1.0,4.0,4.0,306.7804239690304,4.0,1.0,phase_1,,,,,,,,,,,,,gray,diamond
0.0,2.0,0.0,0.0,2.0,2.0,325.983127579093,4.0,1.0,phase_1,,,,,,,,,,,,,green,I
84.0,2.0,1.0,0.0,4.0,4.0,360.8680292963981,4.0,1.0,phase_1,,,,,,,,,,,,,green,I
0.0,2.0,0.0,0.0,2.0,2.0,397.2474113106727,4.0,1.0,phase_1,,,,,,,,,,,,,green,I
0.0,8.0,0.0,1.0,2.0,2.0,338.0855657160282,4.0,1.0,phase_1,,,,,,,,,,,,,gray,diamond
378.0,4.0,4.0,0.0,1.0,1.0,471.3753126561641,4.0,1.0,phase_1,,,,,,,,,,,,,blue,square
199.0,3.0,2.0,0.0,3.0,3.0,351.0407973080873,4.0,1.0,phase_1,,,,,,,,,,,,,yellow,triangle
53.0,1.0,0.5,0.0,1.0,1.0,504.88691218197346,4.0,1.0,phase_1,,,,,,,,,,,,,magenta,flipped triangle
0.0,6.0,0.0,1.0,3.0,3.0,333.3958964794874,4.0,1.0,phase_1,,,,,,,,,,,,,white,cross
394.0,8.0,4.0,1.0,3.0,3.0,331.5415009856224,4.0,1.0,phase_1,,,,,,,,,,,,,gray,diamond
84.0,6.0,1.0,1.0,2.0,2.0,358.620885759592,4.0,1.0,phase_1,,,,,,,,,,,,,white,cross
0.0,3.0,0.0,0.0,4.0,4.0,349.7756104916334,4.0,1.0,phase_1,,,,,,,,,,,,,yellow,triangle
0.0,5.0,0.0,1.0,1.0,1.0,368.1528009474277,4.0,1.0,phase_1,,,,,,,,,,,,,orange,hexagon
422.0,8.0,4.0,1.0,2.0,2.0,310.0389689207077,4.0,1.0,phase_1,,,,,,,,,,,,,gray,diamond
0.0,7.0,0.0,1.0,2.0,2.0,400.8657652884722,4.0,1.0,phase_1,,,,,,,,,,,,,cyan,circle
0.0,2.0,0.0,0.0,1.0,1.0,369.5902898907661,4.0,1.0,phase_1,,,,,,,,,,,,,green,I
72.0,1.0,0.5,0.0,3.0,3.0,276.5370234847069,4.0,1.0,phase_1,,,,,,,,,,,,,magenta,flipped triangle
198.0,7.0,2.0,1.0,2.0,2.0,329.0046323090791,4.0,1.0,phase_1,,,,,,,,,,,,,cyan,circle
207.0,7.0,2.0,1.0,2.0,2.0,340.3038866817951,4.0,1.0,phase_1,,,,,,,,,,,,,cyan,circle
0.0,4.0,0.0,0.0,2.0,2.0,299.226850271225,4.0,1.0,phase_1,,,,,,,,,,,,,blue,square
378.0,8.0,4.0,1.0,1.0,1.0,317.1256389468908,4.0,1.0,phase_1,,,,,,,,,,,,,gray,diamond
74.0,1.0,0.5,0.0,3.0,3.0,345.7834552973509,4.0,1.0,phase_1,,,,,,,,,,,,,magenta,flipped triangle
210.0,3.0,2.0,0.0,1.0,1.0,320.2234730124473,4.0,1.0,phase_1,,,,,,,,,,,,,yellow,triangle
186.0,3.0,2.0,0.0,1.0,1.0,422.3631452769041,4.0,1.0,phase_1,,,,,,,,,,,,,yellow,triangle
0.0,3.0,0.0,0.0,4.0,4.0,537.6036167144775,4.0,1.0,phase_1,,,,,,,,,,,,,yellow,triangle
108.0,6.0,1.0,1.0,2.0,2.0,310.2686870843172,4.0,1.0,phase_1,,,,,,,,,,,,,white,cross
223.0,7.0,2.0,1.0,3.0,3.0,379.2638927698135,4.0,1.0,phase_1,,,,,,,,,,,,,cyan,circle
409.0,4.0,4.0,0.0,1.0,1.0,470.5497100949287,4.0,1.0,phase_1,,,,,,,,,,,,,blue,square
62.0,1.0,0.5,0.0,3.0,3.0,348.869688808918,4.0,1.0,phase_1,,,,,,,,,,,,,magenta,flipped triangle
182.0,7.0,2.0,1.0,3.0,3.0,322.4012125283479,4.0,1.0,phase_1,,,,,,,,,,,,,cyan,circle
394.0,8.0,4.0,1.0,2.0,2.0,350.8024476468563,4.0,1.0,phase_1,,,,,,,,,,,,,gray,diamond
51.0,1.0,0.5,0.0,2.0,2.0,448.7661328166723,4.0,1.0,phase_1,,,,,,,,,,,,,magenta,flipped triangle
222.0,7.0,2.0,1.0,1.0,1.0,360.3125661611557,4.0,1.0,phase_1,,,,,,,,,,,,,cyan,circle
0.0,7.0,0.0,1.0,1.0,1.0,379.2601991444826,4.0,1.0,phase_1,,,,,,,,,,,,,cyan,circle
77.0,2.0,1.0,0.0,3.0,3.0,374.3524719029665,4.0,1.0,phase_1,,,,,,,,,,,,,green,I
200.0,7.0,2.0,1.0,1.0,1.0,630.3193084895611,4.0,1.0,phase_1,,,,,,,,,,,,,cyan,circle
27.0,1.0,0.5,0.0,2.0,2.0,369.3028762936592,4.0,1.0,phase_1,,,,,,,,,,,,,magenta,flipped triangle
409.0,4.0,4.0,0.0,4.0,4.0,486.2900506705045,4.0,1.0,phase_1,,,,,,,,,,,,,blue,square
214.0,3.0,2.0,0.0,2.0,2.0,347.6136196404695,4.0,1.0,phase_1,,,,,,,,,,,,,yellow,triangle
88.0,6.0,1.0,1.0,3.0,3.0,304.8574477434158,4.0,1.0,phase_1,,,,,,,,,,,,,white,cross
0.0,6.0,0.0,1.0,4.0,4.0,298.4935250133276,4.0,1.0,phase_1,,,,,,,,,,,,,white,cross
0.0,6.0,0.0,1.0,3.0,3.0,488.0086202174425,4.0,1.0,phase_1,,,,,,,,,,,,,white,cross
0.0,3.0,0.0,0.0,3.0,3.0,334.2286329716444,4.0,1.0,phase_1,,,,,,,,,,,,,yellow,triangle
121.0,6.0,1.0,1.0,3.0,3.0,306.6642638295889,4.0,1.0,phase_1,,,,,,,,,,,,,white,cross
0.0,1.0,0.0,0.0,1.0,1.0,415.1397403329611,4.0,1.0,phase_1,,,,,,,,,,,,,magenta,flipped triangle
88.0,2.0,1.0,0.0,1.0,1.0,451.999120414257,4.0,1.0,phase_1,,,,,,,,,,,,,green,I
41.0,5.0,0.5,1.0,2.0,2.0,497.984005138278,4.0,1.0,phase_1,,,,,,,,,,,,,orange,hexagon
183.0,3.0,2.0,0.0,2.0,2.0,373.8868292421102,4.0,1.0,phase_1,,,,,,,,,,,,,yellow,triangle
214.0,7.0,2.0,1.0,3.0,3.0,264.1976550221443,4.0,1.0,phase_1,,,,,,,,,,,,,cyan,circle
0.0,4.0,0.0,0.0,3.0,3.0,478.9633378386497,4.0,1.0,phase_1,,,,,,,,,,,,,blue,square
0.0,4.0,4.0,0.0,5.0,5.0,741.7047768831253,1.0,1.0,phase_2,go,250.0,250.0,1.0,,,,,,,,,blue,square
0.0,2.0,1.0,0.0,6.0,6.0,653.5902619361877,1.0,1.0,phase_2,go,250.0,250.0,1.0,,,,,,,,,green,I
0.0,6.0,1.0,1.0,5.0,5.0,771.8336712568998,1.0,1.0,phase_2,go,250.0,250.0,1.0,,,,,,,,,white,cross
0.0,7.0,2.0,1.0,5.0,0.0,0.0,1.0,1.0,phase_2,stop,250.0,250.0,4.0,,,,,,,,,cyan,circle
0.0,3.0,2.0,0.0,6.0,6.0,829.4686637818813,1.0,1.0,phase_2,go,300.0,250.0,1.0,,,,,,,,,yellow,triangle
0.0,1.0,0.5,0.0,6.0,6.0,937.0284620672464,1.0,1.0,phase_2,go,300.0,250.0,1.0,,,,,,,,,magenta,flipped triangle
0.0,7.0,2.0,1.0,5.0,0.0,0.0,1.0,1.0,phase_2,stop,300.0,250.0,4.0,,,,,,,,,cyan,circle
0.0,1.0,0.5,0.0,6.0,6.0,898.8288138061762,1.0,1.0,phase_2,go,350.0,250.0,1.0,,,,,,,,,magenta,flipped triangle
0.0,6.0,1.0,1.0,6.0,6.0,745.3055344521999,1.0,1.0,phase_2,go,350.0,250.0,1.0,,,,,,,,,white,cross
0.0,1.0,0.5,0.0,5.0,5.0,919.4503873586656,1.0,1.0,phase_2,go,350.0,250.0,1.0,,,,,,,,,magenta,flipped triangle
0.0,8.0,4.0,1.0,6.0,0.0,0.0,1.0,1.0,phase_2,stop,350.0,250.0,4.0,,,,,,,,,gray,diamond
0.0,8.0,4.0,1.0,5.0,5.0,1032.7636823058128,1.0,1.0,phase_2,go,350.0,300.0,1.0,,,,,,,,,gray,diamond
0.0,8.0,4.0,1.0,6.0,6.0,317.8898021578789,1.0,1.0,phase_2,stop,350.0,300.0,3.0,,,,,,,,,gray,diamond
0.0,6.0,1.0,1.0,5.0,5.0,895.2719867229462,1.0,1.0,phase_2,go,350.0,250.0,1.0,,,,,,,,,white,cross
0.0,8.0,4.0,1.0,5.0,0.0,0.0,1.0,1.0,phase_2,stop,350.0,250.0,4.0,,,,,,,,,gray,diamond
0.0,5.0,0.5,1.0,5.0,0.0,0.0,1.0,1.0,phase_2,stop,400.0,250.0,4.0,,,,,,,,,orange,hexagon
0.0,3.0,2.0,0.0,5.0,5.0,805.3671438246965,1.0,1.0,phase_2,go,450.0,250.0,1.0,,,,,,,,,yellow,triangle
0.0,2.0,1.0,0.0,5.0,5.0,1006.0063116252422,1.0,1.0,phase_2,go,450.0,250.0,1.0,,,,,,,,,green,I
0.0,1.0,0.5,0.0,5.0,5.0,731.0660239309072,1.0,1.0,phase_2,go,450.0,250.0,1.0,,,,,,,,,magenta,flipped triangle
0.0,4.0,4.0,0.0,6.0,6.0,819.8186568915844,1.0,1.0,phase_2,go,450.0,250.0,1.0,,,,,,,,,blue,square
0.0,4.0,4.0,0.0,5.0,5.0,770.89655213058,1.0,1.0,phase_2,go,450.0,250.0,1.0,,,,,,,,,blue,square
0.0,2.0,1.0,0.0,5.0,5.0,617.3015236854553,1.0,1.0,phase_2,go,450.0,250.0,1.0,,,,,,,,,green,I
0.0,7.0,2.0,1.0,6.0,0.0,0.0,1.0,1.0,phase_2,stop,450.0,250.0,4.0,,,,,,,,,cyan,circle
0.0,4.0,4.0,0.0,5.0,5.0,808.9745100587606,1.0,1.0,phase_2,go,450.0,300.0,1.0,,,,,,,,,blue,square
0.0,4.0,4.0,0.0,5.0,5.0,848.3526539057493,1.0,1.0,phase_2,go,450.0,300.0,1.0,,,,,,,,,blue,square
0.0,1.0,0.5,0.0,5.0,5.0,727.3283377289772,1.0,1.0,phase_2,go,450.0,300.0,1.0,,,,,,,,,magenta,flipped triangle
0.0,1.0,0.5,0.0,5.0,5.0,894.8861043900251,1.0,1.0,phase_2,go,450.0,300.0,1.0,,,,,,,,,magenta,flipped triangle
0.0,3.0,2.0,0.0,6.0,6.0,757.1867164224386,1.0,1.0,phase_2,go,450.0,300.0,1.0,,,,,,,,,yellow,triangle
0.0,3.0,2.0,0.0,5.0,5.0,725.2078913152218,1.0,1.0,phase_2,go,450.0,300.0,1.0,,,,,,,,,yellow,triangle
0.0,3.0,2.0,0.0,5.0,5.0,637.601001188159,1.0,1.0,phase_2,go,450.0,300.0,1.0,,,,,,,,,yellow,triangle
0.0,6.0,1.0,1.0,6.0,0.0,0.0,1.0,1.0,phase_2,stop,450.0,300.0,4.0,,,,,,,,,white,cross
0.0,1.0,0.5,0.0,6.0,6.0,860.7889749109745,1.0,1.0,phase_2,go,450.0,350.0,1.0,,,,,,,,,magenta,flipped triangle
0.0,5.0,0.5,1.0,6.0,0.0,0.0,1.0,1.0,phase_2,stop,450.0,350.0,4.0,,,,,,,,,orange,hexagon
0.0,5.0,0.5,1.0,6.0,0.0,0.0,1.0,1.0,phase_2,stop,450.0,400.0,4.0,,,,,,,,,orange,hexagon
0.0,4.0,4.0,0.0,6.0,6.0,755.2421502768993,1.0,1.0,phase_2,go,450.0,450.0,1.0,,,,,,,,,blue,square
0.0,6.0,1.0,1.0,6.0,0.0,0.0,1.0,1.0,phase_2,stop,450.0,450.0,4.0,,,,,,,,,white,cross
0.0,8.0,4.0,1.0,6.0,0.0,0.0,2.0,1.0,phase_2,stop,450.0,500.0,4.0,,,,,,,,,gray,diamond
0.0,7.0,2.0,1.0,5.0,0.0,0.0,2.0,1.0,phase_2,stop,450.0,550.0,4.0,,,,,,,,,cyan,circle
0.0,2.0,1.0,0.0,5.0,5.0,909.4622898846864,2.0,1.0,phase_2,go,500.0,550.0,1.0,,,,,,,,,green,I
0.0,8.0,4.0,1.0,6.0,0.0,0.0,2.0,1.0,phase_2,stop,500.0,550.0,4.0,,,,,,,,,gray,diamond
0.0,4.0,4.0,0.0,6.0,6.0,1020.2288664877417,2.0,1.0,phase_2,go,500.0,600.0,1.0,,,,,,,,,blue,square
0.0,5.0,0.5,1.0,6.0,6.0,1324.3330251425505,2.0,1.0,phase_2,go,500.0,600.0,1.0,,,,,,,,,orange,hexagon
0.0,7.0,2.0,1.0,5.0,0.0,0.0,2.0,1.0,phase_2,stop,500.0,600.0,4.0,,,,,,,,,cyan,circle
0.0,6.0,1.0,1.0,5.0,0.0,0.0,2.0,1.0,phase_2,stop,550.0,600.0,4.0,,,,,,,,,white,cross
0.0,6.0,1.0,1.0,6.0,0.0,0.0,2.0,1.0,phase_2,stop,600.0,600.0,4.0,,,,,,,,,white,cross
0.0,5.0,0.5,1.0,5.0,0.0,0.0,2.0,1.0,phase_2,go,600.0,650.0,5.0,,,,,,,,,orange,hexagon
0.0,7.0,2.0,1.0,6.0,0.0,0.0,2.0,1.0,phase_2,stop,600.0,650.0,4.0,,,,,,,,,cyan,circle
0.0,1.0,0.5,0.0,5.0,5.0,752.9389224946499,2.0,1.0,phase_2,go,600.0,700.0,1.0,,,,,,,,,magenta,flipped triangle
0.0,1.0,0.5,0.0,6.0,6.0,434.7517415881157,2.0,1.0,phase_2,go,600.0,700.0,1.0,,,,,,,,,magenta,flipped triangle
0.0,7.0,2.0,1.0,5.0,5.0,442.710630595684,2.0,1.0,phase_2,stop,600.0,700.0,3.0,,,,,,,,,cyan,circle
0.0,4.0,4.0,0.0,5.0,5.0,920.3696474432944,2.0,1.0,phase_2,go,550.0,700.0,1.0,,,,,,,,,blue,square
0.0,6.0,1.0,1.0,6.0,6.0,821.997182443738,2.0,1.0,phase_2,stop,550.0,700.0,3.0,,,,,,,,,white,cross
0.0,8.0,4.0,1.0,6.0,0.0,0.0,2.0,1.0,phase_2,stop,550.0,650.0,4.0,,,,,,,,,gray,diamond
0.0,7.0,2.0,1.0,5.0,5.0,965.8905677497388,2.0,1.0,phase_2,go,550.0,700.0,1.0,,,,,,,,,cyan,circle
0.0,7.0,2.0,1.0,6.0,0.0,0.0,2.0,1.0,phase_2,stop,550.0,700.0,4.0,,,,,,,,,cyan,circle
0.0,1.0,0.5,0.0,6.0,6.0,940.4210727661848,2.0,1.0,phase_2,go,550.0,750.0,1.0,,,,,,,,,magenta,flipped triangle
0.0,8.0,4.0,1.0,5.0,0.0,0.0,2.0,1.0,phase_2,stop,550.0,750.0,4.0,,,,,,,,,gray,diamond
0.0,3.0,2.0,0.0,5.0,5.0,1005.8578364551067,2.0,1.0,phase_2,go,600.0,750.0,1.0,,,,,,,,,yellow,triangle
0.0,3.0,2.0,0.0,5.0,5.0,972.7628752589226,2.0,1.0,phase_2,go,600.0,750.0,1.0,,,,,,,,,yellow,triangle
0.0,5.0,0.5,1.0,6.0,6.0,779.5103453099728,2.0,1.0,phase_2,stop,600.0,750.0,3.0,,,,,,,,,orange,hexagon
0.0,8.0,4.0,1.0,5.0,5.0,929.4638931751252,2.0,1.0,phase_2,go,600.0,700.0,1.0,,,,,,,,,gray,diamond
0.0,1.0,0.5,0.0,6.0,6.0,1136.4031881093981,2.0,1.0,phase_2,go,600.0,700.0,1.0,,,,,,,,,magenta,flipped triangle
0.0,7.0,2.0,1.0,5.0,0.0,0.0,2.0,1.0,phase_2,stop,600.0,700.0,4.0,,,,,,,,,cyan,circle
0.0,2.0,1.0,0.0,5.0,5.0,1010.3665310889482,2.0,1.0,phase_2,go,650.0,700.0,1.0,,,,,,,,,green,I
0.0,2.0,1.0,0.0,5.0,5.0,846.4350532740355,2.0,1.0,phase_2,go,650.0,700.0,1.0,,,,,,,,,green,I
0.0,4.0,4.0,0.0,5.0,5.0,936.6727005690336,2.0,1.0,phase_2,go,650.0,700.0,1.0,,,,,,,,,blue,square
0.0,7.0,2.0,1.0,6.0,0.0,0.0,2.0,1.0,phase_2,stop,650.0,700.0,4.0,,,,,,,,,cyan,circle
0.0,7.0,2.0,1.0,5.0,0.0,0.0,2.0,1.0,phase_2,stop,650.0,750.0,4.0,,,,,,,,,cyan,circle
0.0,3.0,2.0,0.0,6.0,6.0,947.9839652776718,2.0,1.0,phase_2,go,700.0,750.0,1.0,,,,,,,,,yellow,triangle
0.0,8.0,4.0,1.0,5.0,0.0,0.0,2.0,1.0,phase_2,stop,700.0,750.0,4.0,,,,,,,,,gray,diamond
0.0,6.0,1.0,1.0,6.0,0.0,0.0,2.0,1.0,phase_2,stop,750.0,750.0,4.0,,,,,,,,,white,cross
0.0,3.0,2.0,0.0,6.0,6.0,813.924178481102,2.0,1.0,phase_2,go,750.0,800.0,1.0,,,,,,,,,yellow,triangle
0.0,5.0,0.5,1.0,6.0,0.0,0.0,3.0,1.0,phase_2,stop,750.0,800.0,4.0,,,,,,,,,orange,hexagon
0.0,4.0,4.0,0.0,5.0,5.0,365.5757196247577,3.0,1.0,phase_2,go,750.0,850.0,1.0,,,,,,,,,blue,square
0.0,2.0,1.0,0.0,5.0,5.0,851.1604107916355,3.0,1.0,phase_2,go,750.0,850.0,1.0,,,,,,,,,green,I
0.0,6.0,1.0,1.0,5.0,5.0,1018.7223665416241,3.0,1.0,phase_2,go,750.0,850.0,1.0,,,,,,,,,white,cross
0.0,5.0,0.5,1.0,5.0,5.0,1060.5711042881012,3.0,1.0,phase_2,go,750.0,850.0,1.0,,,,,,,,,orange,hexagon
0.0,1.0,0.5,0.0,6.0,6.0,901.2165889143944,3.0,1.0,phase_2,go,750.0,850.0,1.0,,,,,,,,,magenta,flipped triangle
0.0,8.0,4.0,1.0,5.0,5.0,1027.1511655300856,3.0,1.0,phase_2,go,750.0,850.0,1.0,,,,,,,,,gray,diamond
0.0,7.0,2.0,1.0,5.0,5.0,843.307614326477,3.0,1.0,phase_2,go,750.0,850.0,1.0,,,,,,,,,cyan,circle
0.0,8.0,4.0,1.0,5.0,5.0,847.5935459136963,3.0,1.0,phase_2,stop,750.0,850.0,3.0,,,,,,,,,gray,diamond
0.0,2.0,1.0,0.0,5.0,5.0,1266.7734194546938,3.0,1.0,phase_2,go,700.0,850.0,1.0,,,,,,,,,green,I
0.0,7.0,2.0,1.0,5.0,0.0,0.0,3.0,1.0,phase_2,stop,700.0,850.0,4.0,,,,,,,,,cyan,circle
0.0,3.0,2.0,0.0,6.0,6.0,937.4368228018284,3.0,1.0,phase_2,go,750.0,850.0,1.0,,,,,,,,,yellow,triangle
0.0,1.0,0.5,0.0,6.0,6.0,1109.423145651817,3.0,1.0,phase_2,go,750.0,850.0,1.0,,,,,,,,,magenta,flipped triangle
0.0,6.0,1.0,1.0,5.0,0.0,0.0,3.0,1.0,phase_2,stop,750.0,850.0,4.0,,,,,,,,,white,cross
0.0,8.0,4.0,1.0,6.0,6.0,1381.6254381090405,3.0,1.0,phase_2,go,800.0,850.0,1.0,,,,,,,,,gray,diamond
0.0,4.0,4.0,0.0,6.0,6.0,1143.8141018152237,3.0,1.0,phase_2,go,800.0,850.0,1.0,,,,,,,,,blue,square
0.0,3.0,2.0,0.0,6.0,6.0,1036.0046848654747,3.0,1.0,phase_2,go,800.0,850.0,1.0,,,,,,,,,yellow,triangle
0.0,7.0,2.0,1.0,6.0,0.0,0.0,3.0,1.0,phase_2,stop,800.0,850.0,4.0,,,,,,,,,cyan,circle
0.0,7.0,2.0,1.0,5.0,0.0,0.0,3.0,1.0,phase_2,stop,800.0,900.0,4.0,,,,,,,,,cyan,circle
0.0,7.0,2.0,1.0,6.0,6.0,978.5968773066998,3.0,1.0,phase_2,go,850.0,900.0,1.0,,,,,,,,,cyan,circle
0.0,8.0,4.0,1.0,6.0,0.0,0.0,3.0,1.0,phase_2,stop,850.0,900.0,4.0,,,,,,,,,gray,diamond
0.0,8.0,4.0,1.0,6.0,6.0,1339.793449267745,3.0,1.0,phase_2,go,850.0,950.0,1.0,,,,,,,,,gray,diamond
0.0,2.0,1.0,0.0,6.0,6.0,378.4964215010404,3.0,1.0,phase_2,go,850.0,950.0,1.0,,,,,,,,,green,I
0.0,1.0,0.5,0.0,5.0,5.0,354.6295594424009,3.0,1.0,phase_2,go,850.0,950.0,1.0,,,,,,,,,magenta,flipped triangle
0.0,2.0,1.0,0.0,6.0,6.0,1002.1654162555933,3.0,1.0,phase_2,go,850.0,950.0,1.0,,,,,,,,,green,I
0.0,4.0,4.0,0.0,5.0,5.0,894.1851612180471,3.0,1.0,phase_2,go,850.0,950.0,1.0,,,,,,,,,blue,square
0.0,5.0,0.5,1.0,6.0,6.0,888.2059641182423,3.0,1.0,phase_2,stop,850.0,950.0,3.0,,,,,,,,,orange,hexagon
0.0,8.0,4.0,1.0,6.0,6.0,1048.7264972180128,3.0,1.0,phase_2,go,850.0,900.0,1.0,,,,,,,,,gray,diamond
0.0,8.0,4.0,1.0,5.0,0.0,0.0,3.0,1.0,phase_2,stop,850.0,900.0,4.0,,,,,,,,,gray,diamond
0.0,8.0,4.0,1.0,6.0,0.0,0.0,3.0,1.0,phase_2,stop,900.0,900.0,4.0,,,,,,,,,gray,diamond
0.0,2.0,1.0,0.0,6.0,6.0,1203.5532407462597,3.0,1.0,phase_2,go,900.0,950.0,1.0,,,,,,,,,green,I
0.0,5.0,0.5,1.0,5.0,0.0,0.0,3.0,1.0,phase_2,stop,900.0,950.0,4.0,,,,,,,,,orange,hexagon
0.0,4.0,4.0,0.0,5.0,5.0,1486.543171107769,3.0,1.0,phase_2,go,950.0,950.0,1.0,,,,,,,,,blue,square
0.0,4.0,4.0,0.0,5.0,5.0,412.7491675317287,3.0,1.0,phase_2,go,950.0,950.0,1.0,,,,,,,,,blue,square
0.0,3.0,2.0,0.0,6.0,6.0,1037.560522556305,3.0,1.0,phase_2,go,950.0,950.0,1.0,,,,,,,,,yellow,triangle
0.0,7.0,2.0,1.0,6.0,6.0,907.8076034784316,3.0,1.0,phase_2,stop,950.0,950.0,3.0,,,,,,,,,cyan,circle
0.0,8.0,4.0,1.0,6.0,6.0,591.1597274243832,4.0,1.0,phase_2,go,950.0,900.0,1.0,,,,,,,,,gray,diamond
0.0,4.0,4.0,0.0,6.0,6.0,429.3395802378654,4.0,1.0,phase_2,go,950.0,900.0,1.0,,,,,,,,,blue,square
0.0,3.0,2.0,0.0,5.0,5.0,852.6626117527485,4.0,1.0,phase_2,go,950.0,900.0,1.0,,,,,,,,,yellow,triangle
0.0,6.0,1.0,1.0,6.0,6.0,252.4373959749937,4.0,1.0,phase_2,stop,950.0,900.0,3.0,,,,,,,,,white,cross
0.0,1.0,0.5,0.0,5.0,5.0,663.3735112845898,4.0,1.0,phase_2,go,950.0,850.0,1.0,,,,,,,,,magenta,flipped triangle
0.0,3.0,2.0,0.0,6.0,6.0,1143.0863291025162,4.0,1.0,phase_2,go,950.0,850.0,1.0,,,,,,,,,yellow,triangle
0.0,6.0,1.0,1.0,5.0,5.0,723.0650801211596,4.0,1.0,phase_2,stop,950.0,850.0,3.0,,,,,,,,,white,cross
0.0,8.0,4.0,1.0,5.0,0.0,0.0,4.0,1.0,phase_2,stop,900.0,850.0,4.0,,,,,,,,,gray,diamond
0.0,8.0,4.0,1.0,6.0,6.0,730.0791814923286,4.0,1.0,phase_2,stop,950.0,850.0,3.0,,,,,,,,,gray,diamond
0.0,2.0,1.0,0.0,6.0,6.0,1177.3262545466423,4.0,1.0,phase_2,go,950.0,800.0,1.0,,,,,,,,,green,I
0.0,6.0,1.0,1.0,5.0,0.0,0.0,4.0,1.0,phase_2,stop,950.0,800.0,4.0,,,,,,,,,white,cross
0.0,1.0,0.5,0.0,6.0,6.0,1178.5746701061726,4.0,1.0,phase_2,go,1000.0,800.0,1.0,,,,,,,,,magenta,flipped triangle
0.0,8.0,4.0,1.0,6.0,6.0,377.1635163575411,4.0,1.0,phase_2,stop,1000.0,800.0,3.0,,,,,,,,,gray,diamond
0.0,2.0,1.0,0.0,5.0,5.0,1176.5083745121956,4.0,1.0,phase_2,go,1000.0,750.0,1.0,,,,,,,,,green,I
0.0,5.0,0.5,1.0,6.0,6.0,1064.2889756709335,4.0,1.0,phase_2,go,1000.0,750.0,1.0,,,,,,,,,orange,hexagon
0.0,5.0,0.5,1.0,5.0,0.0,0.0,4.0,1.0,phase_2,stop,1000.0,750.0,4.0,,,,,,,,,orange,hexagon
0.0,8.0,4.0,1.0,5.0,0.0,0.0,4.0,1.0,phase_2,stop,1050.0,750.0,4.0,,,,,,,,,gray,diamond
0.0,6.0,1.0,1.0,6.0,0.0,0.0,4.0,1.0,phase_2,stop,1100.0,750.0,4.0,,,,,,,,,white,cross
0.0,2.0,1.0,0.0,5.0,5.0,1158.881589770317,4.0,1.0,phase_2,go,1100.0,800.0,1.0,,,,,,,,,green,I
0.0,8.0,4.0,1.0,5.0,5.0,1235.328810289502,4.0,1.0,phase_2,stop,1100.0,800.0,3.0,,,,,,,,,gray,diamond
0.0,5.0,0.5,1.0,6.0,0.0,0.0,4.0,1.0,phase_2,stop,1050.0,800.0,4.0,,,,,,,,,orange,hexagon
0.0,5.0,0.5,1.0,6.0,0.0,0.0,4.0,1.0,phase_2,stop,1050.0,850.0,4.0,,,,,,,,,orange,hexagon
0.0,1.0,0.5,0.0,5.0,5.0,1228.9402596652508,4.0,1.0,phase_2,go,1050.0,900.0,1.0,,,,,,,,,magenta,flipped triangle
0.0,4.0,4.0,0.0,6.0,6.0,1104.8224568367004,4.0,1.0,phase_2,go,1050.0,900.0,1.0,,,,,,,,,blue,square
0.0,5.0,0.5,1.0,5.0,0.0,0.0,4.0,1.0,phase_2,stop,1050.0,900.0,4.0,,,,,,,,,orange,hexagon
0.0,4.0,4.0,0.0,6.0,6.0,1306.7739680409431,4.0,1.0,phase_2,go,1100.0,900.0,1.0,,,,,,,,,blue,square
0.0,2.0,1.0,0.0,6.0,6.0,1175.5900289863348,4.0,1.0,phase_2,go,1100.0,900.0,1.0,,,,,,,,,green,I
0.0,2.0,1.0,0.0,6.0,6.0,1270.9541842341423,4.0,1.0,phase_2,go,1100.0,900.0,1.0,,,,,,,,,green,I
0.0,2.0,1.0,0.0,6.0,6.0,1182.3468767106533,4.0,1.0,phase_2,go,1100.0,900.0,1.0,,,,,,,,,green,I
0.0,6.0,1.0,1.0,5.0,5.0,1137.0656825602057,4.0,1.0,phase_2,stop,1100.0,900.0,3.0,,,,,,,,,white,cross
0.0,1.0,0.5,0.0,6.0,6.0,1336.6892915219069,4.0,1.0,phase_2,go,1050.0,900.0,1.0,,,,,,,,,magenta,flipped triangle
0.0,5.0,0.5,1.0,5.0,0.0,0.0,4.0,1.0,phase_2,stop,1050.0,900.0,4.0,,,,,,,,,orange,hexagon
0.0,5.0,0.5,1.0,5.0,0.0,0.0,4.0,1.0,phase_2,stop,1100.0,900.0,4.0,,,,,,,,,orange,hexagon
0.0,3.0,2.0,0.0,6.0,6.0,1486.7646601051092,4.0,1.0,phase_2,go,1150.0,900.0,1.0,,,,,,,,,yellow,triangle
0.0,2.0,1.0,0.0,6.0,6.0,653.9717689156532,4.0,1.0,phase_2,go,1150.0,900.0,1.0,,,,,,,,,green,I
0.0,4.0,4.0,0.0,5.0,5.0,1186.551058664918,4.0,1.0,phase_2,go,1150.0,900.0,1.0,,,,,,,,,blue,square
0.0,3.0,2.0,0.0,6.0,6.0,999.4693417102098,5.0,1.0,phase_2,go,1150.0,900.0,1.0,,,,,,,,,yellow,triangle
0.0,4.0,4.0,0.0,5.0,5.0,853.3871062099934,5.0,1.0,phase_2,go,1150.0,900.0,1.0,,,,,,,,,blue,square
0.0,1.0,0.5,0.0,5.0,5.0,478.4242175519466,5.0,1.0,phase_2,go,1150.0,900.0,1.0,,,,,,,,,magenta,flipped triangle
0.0,6.0,1.0,1.0,6.0,0.0,0.0,5.0,1.0,phase_2,stop,1150.0,900.0,4.0,,,,,,,,,white,cross
0.0,5.0,0.5,1.0,6.0,0.0,0.0,5.0,1.0,phase_2,stop,1150.0,950.0,4.0,,,,,,,,,orange,hexagon
0.0,1.0,0.5,0.0,6.0,6.0,1273.9080227911472,5.0,1.0,phase_2,go,1150.0,1000.0,1.0,,,,,,,,,magenta,flipped triangle
0.0,2.0,1.0,0.0,6.0,6.0,1100.5762927234173,5.0,1.0,phase_2,go,1150.0,1000.0,1.0,,,,,,,,,green,I
0.0,2.0,1.0,0.0,5.0,5.0,985.2435924112796,5.0,1.0,phase_2,go,1150.0,1000.0,1.0,,,,,,,,,green,I
0.0,5.0,0.5,1.0,5.0,0.0,0.0,5.0,1.0,phase_2,stop,1150.0,1000.0,4.0,,,,,,,,,orange,hexagon
0.0,3.0,2.0,0.0,6.0,6.0,1401.911269873381,5.0,1.0,phase_2,go,1200.0,1000.0,1.0,,,,,,,,,yellow,triangle
0.0,3.0,2.0,0.0,5.0,5.0,1274.0503456443548,5.0,1.0,phase_2,go,1200.0,1000.0,1.0,,,,,,,,,yellow,triangle
0.0,3.0,2.0,0.0,5.0,5.0,1279.293529689312,5.0,1.0,phase_2,go,1200.0,1000.0,1.0,,,,,,,,,yellow,triangle
0.0,5.0,0.5,1.0,6.0,6.0,328.8864716887474,5.0,1.0,phase_2,stop,1200.0,1000.0,3.0,,,,,,,,,orange,hexagon
0.0,7.0,2.0,1.0,6.0,0.0,0.0,5.0,1.0,phase_2,stop,1200.0,950.0,4.0,,,,,,,,,cyan,circle
0.0,4.0,4.0,0.0,6.0,6.0,1463.7865722179413,5.0,1.0,phase_2,go,1200.0,1000.0,1.0,,,,,,,,,blue,square
0.0,5.0,0.5,1.0,5.0,0.0,0.0,5.0,1.0,phase_2,stop,1200.0,1000.0,4.0,,,,,,,,,orange,hexagon
0.0,6.0,1.0,1.0,5.0,0.0,0.0,5.0,1.0,phase_2,stop,1250.0,1000.0,4.0,,,,,,,,,white,cross
0.0,5.0,0.5,1.0,5.0,5.0,867.3913292586803,5.0,1.0,phase_2,go,1300.0,1000.0,1.0,,,,,,,,,orange,hexagon
0.0,6.0,1.0,1.0,5.0,5.0,1397.521918639541,5.0,1.0,phase_2,go,1300.0,1000.0,1.0,,,,,,,,,white,cross
0.0,1.0,0.5,0.0,6.0,6.0,1076.7041649669409,5.0,1.0,phase_2,go,1300.0,1000.0,1.0,,,,,,,,,magenta,flipped triangle
0.0,2.0,1.0,0.0,5.0,5.0,1426.7550185322762,5.0,1.0,phase_2,go,1300.0,1000.0,1.0,,,,,,,,,green,I
0.0,6.0,1.0,1.0,6.0,0.0,0.0,5.0,1.0,phase_2,stop,1300.0,1000.0,4.0,,,,,,,,,white,cross
0.0,6.0,1.0,1.0,5.0,0.0,0.0,5.0,1.0,phase_2,stop,1300.0,1050.0,4.0,,,,,,,,,white,cross
0.0,3.0,2.0,0.0,5.0,0.0,0.0,5.0,1.0,phase_2,go,1350.0,1050.0,5.0,,,,,,,,,yellow,triangle
0.0,8.0,4.0,1.0,5.0,5.0,1186.7999210953712,5.0,1.0,phase_2,stop,1350.0,1050.0,3.0,,,,,,,,,gray,diamond
0.0,3.0,2.0,0.0,6.0,6.0,1015.4502782970669,5.0,1.0,phase_2,go,1300.0,1050.0,1.0,,,,,,,,,yellow,triangle
0.0,6.0,1.0,1.0,5.0,5.0,870.8748761564493,5.0,1.0,phase_2,stop,1300.0,1050.0,3.0,,,,,,,,,white,cross
0.0,6.0,1.0,1.0,6.0,6.0,806.8831283599138,5.0,1.0,phase_2,stop,1250.0,1050.0,3.0,,,,,,,,,white,cross
0.0,3.0,2.0,0.0,5.0,5.0,1293.216921389103,5.0,1.0,phase_2,go,1250.0,1000.0,1.0,,,,,,,,,yellow,triangle
0.0,5.0,0.5,1.0,6.0,0.0,0.0,5.0,1.0,phase_2,stop,1250.0,1000.0,4.0,,,,,,,,,orange,hexagon
0.0,1.0,0.5,0.0,6.0,6.0,1204.3147254735231,5.0,1.0,phase_2,go,1250.0,1050.0,1.0,,,,,,,,,magenta,flipped triangle
0.0,4.0,4.0,0.0,5.0,5.0,1220.8823915570974,5.0,1.0,phase_2,go,1250.0,1050.0,1.0,,,,,,,,,blue,square
0.0,8.0,4.0,1.0,6.0,6.0,1405.5716954171658,5.0,1.0,phase_2,go,1250.0,1050.0,1.0,,,,,,,,,gray,diamond
0.0,7.0,2.0,1.0,6.0,6.0,1038.581721484661,5.0,1.0,phase_2,stop,1250.0,1050.0,3.0,,,,,,,,,cyan,circle
0.0,6.0,1.0,1.0,5.0,5.0,884.9194385111332,5.0,1.0,phase_2,stop,1250.0,1000.0,3.0,,,,,,,,,white,cross
0.0,4.0,4.0,0.0,5.0,5.0,1099.5498783886433,5.0,1.0,phase_2,go,1200.0,1000.0,1.0,,,,,,,,,blue,square
0.0,1.0,0.5,0.0,5.0,5.0,945.1349172741176,6.0,1.0,phase_2,go,1200.0,1000.0,1.0,,,,,,,,,magenta,flipped triangle
0.0,6.0,1.0,1.0,5.0,5.0,416.1530826240778,6.0,1.0,phase_2,stop,1200.0,1000.0,3.0,,,,,,,,,white,cross
0.0,1.0,0.5,0.0,5.0,5.0,793.024642392993,6.0,1.0,phase_2,go,1150.0,1000.0,1.0,,,,,,,,,magenta,flipped triangle
0.0,2.0,1.0,0.0,5.0,5.0,1151.05358697474,6.0,1.0,phase_2,go,1150.0,1000.0,1.0,,,,,,,,,green,I
0.0,6.0,1.0,1.0,6.0,6.0,1206.342238932848,6.0,1.0,phase_2,go,1150.0,1000.0,1.0,,,,,,,,,white,cross
0.0,7.0,2.0,1.0,5.0,5.0,477.382805198431,6.0,1.0,phase_2,stop,1150.0,1000.0,3.0,,,,,,,,,cyan,circle
0.0,2.0,1.0,0.0,5.0,5.0,1312.7563558518889,6.0,1.0,phase_2,go,1100.0,1000.0,1.0,,,,,,,,,green,I
0.0,6.0,1.0,1.0,6.0,6.0,782.313734292984,6.0,1.0,phase_2,go,1100.0,1000.0,1.0,,,,,,,,,white,cross
0.0,4.0,4.0,0.0,6.0,6.0,1124.8995140194893,6.0,1.0,phase_2,go,1100.0,1000.0,1.0,,,,,,,,,blue,square
0.0,6.0,1.0,1.0,5.0,5.0,1222.7065730839968,6.0,1.0,phase_2,stop,1100.0,1000.0,3.0,,,,,,,,,white,cross
0.0,8.0,4.0,1.0,5.0,0.0,0.0,6.0,1.0,phase_2,stop,1050.0,1000.0,4.0,,,,,,,,,gray,diamond
0.0,2.0,1.0,0.0,6.0,6.0,934.1226238757372,6.0,1.0,phase_2,go,1100.0,1000.0,1.0,,,,,,,,,green,I
0.0,1.0,0.5,0.0,5.0,5.0,1114.8071326315403,6.0,1.0,phase_2,go,1100.0,1000.0,1.0,,,,,,,,,magenta,flipped triangle
0.0,3.0,2.0,0.0,6.0,6.0,1268.775973469019,6.0,1.0,phase_2,go,1100.0,1000.0,1.0,,,,,,,,,yellow,triangle
0.0,4.0,4.0,0.0,6.0,6.0,1361.927168443799,6.0,1.0,phase_2,go,1100.0,1000.0,1.0,,,,,,,,,blue,square
0.0,8.0,4.0,1.0,6.0,6.0,979.8335172235966,6.0,1.0,phase_2,stop,1100.0,1000.0,3.0,,,,,,,,,gray,diamond
0.0,2.0,1.0,0.0,6.0,6.0,1435.3831969201565,6.0,1.0,phase_2,go,1100.0,950.0,1.0,,,,,,,,,green,I
0.0,1.0,0.5,0.0,6.0,6.0,1201.877510175109,6.0,1.0,phase_2,go,1100.0,950.0,1.0,,,,,,,,,magenta,flipped triangle
0.0,7.0,2.0,1.0,5.0,5.0,606.511078774929,6.0,1.0,phase_2,go,1100.0,950.0,1.0,,,,,,,,,cyan,circle
0.0,8.0,4.0,1.0,6.0,0.0,0.0,6.0,1.0,phase_2,stop,1100.0,950.0,4.0,,,,,,,,,gray,diamond
0.0,5.0,0.5,1.0,5.0,0.0,0.0,6.0,1.0,phase_2,stop,1100.0,1000.0,4.0,,,,,,,,,orange,hexagon
0.0,7.0,2.0,1.0,6.0,0.0,0.0,6.0,1.0,phase_2,stop,1150.0,1000.0,4.0,,,,,,,,,cyan,circle
0.0,2.0,1.0,0.0,5.0,5.0,916.8869238346816,6.0,1.0,phase_2,go,1150.0,1050.0,1.0,,,,,,,,,green,I
0.0,6.0,1.0,1.0,5.0,5.0,1182.310601696372,6.0,1.0,phase_2,go,1150.0,1050.0,1.0,,,,,,,,,white,cross
0.0,7.0,2.0,1.0,6.0,6.0,770.8444930613041,6.0,1.0,phase_2,go,1150.0,1050.0,1.0,,,,,,,,,cyan,circle
0.0,2.0,1.0,0.0,6.0,6.0,357.4673198163509,6.0,1.0,phase_2,go,1150.0,1050.0,1.0,,,,,,,,,green,I
0.0,7.0,2.0,1.0,6.0,6.0,589.1873240470886,6.0,1.0,phase_2,stop,1150.0,1050.0,3.0,,,,,,,,,cyan,circle
0.0,4.0,4.0,0.0,6.0,6.0,996.4945074170828,6.0,1.0,phase_2,go,1150.0,1000.0,1.0,,,,,,,,,blue,square
0.0,4.0,4.0,0.0,6.0,6.0,824.9700758606195,6.0,1.0,phase_2,go,1150.0,1000.0,1.0,,,,,,,,,blue,square
0.0,1.0,0.5,0.0,5.0,5.0,521.1800895631313,6.0,1.0,phase_2,go,1150.0,1000.0,1.0,,,,,,,,,magenta,flipped triangle
0.0,5.0,0.5,1.0,6.0,6.0,591.5916562080383,6.0,1.0,phase_2,stop,1150.0,1000.0,3.0,,,,,,,,,orange,hexagon
0.0,4.0,4.0,0.0,6.0,6.0,1192.0943539589643,6.0,1.0,phase_2,go,1150.0,950.0,1.0,,,,,,,,,blue,square
0.0,2.0,1.0,0.0,6.0,6.0,815.5155126005411,6.0,1.0,phase_2,go,1150.0,950.0,1.0,,,,,,,,,green,I
0.0,3.0,2.0,0.0,5.0,5.0,337.2455146163702,6.0,1.0,phase_2,go,1150.0,950.0,1.0,,,,,,,,,yellow,triangle
0.0,7.0,2.0,1.0,6.0,6.0,760.9346900135279,6.0,1.0,phase_2,go,1150.0,950.0,1.0,,,,,,,,,cyan,circle
0.0,8.0,4.0,1.0,5.0,5.0,678.3968638628721,6.0,1.0,phase_2,stop,1150.0,950.0,3.0,,,,,,,,,gray,diamond
0.0,1.0,0.5,0.0,5.0,5.0,881.8969074636698,7.0,1.0,phase_2,go,1100.0,950.0,1.0,,,,,,,,,magenta,flipped triangle
0.0,6.0,1.0,1.0,5.0,5.0,377.5752037763595,7.0,1.0,phase_2,go,1100.0,950.0,1.0,,,,,,,,,white,cross
0.0,8.0,4.0,1.0,5.0,5.0,515.8629640936852,7.0,1.0,phase_2,stop,1100.0,950.0,3.0,,,,,,,,,gray,diamond
0.0,3.0,2.0,0.0,6.0,6.0,424.4062155485153,7.0,1.0,phase_2,go,1050.0,950.0,1.0,,,,,,,,,yellow,triangle
0.0,4.0,4.0,0.0,6.0,6.0,623.9011120051146,7.0,1.0,phase_2,go,1050.0,950.0,1.0,,,,,,,,,blue,square
0.0,1.0,0.5,0.0,6.0,6.0,768.0003959685564,7.0,1.0,phase_2,go,1050.0,950.0,1.0,,,,,,,,,magenta,flipped triangle
0.0,1.0,0.5,0.0,5.0,5.0,589.7943843156099,7.0,1.0,phase_2,go,1050.0,950.0,1.0,,,,,,,,,magenta,flipped triangle
0.0,6.0,1.0,1.0,6.0,6.0,565.5348375439644,7.0,1.0,phase_2,stop,1050.0,950.0,3.0,,,,,,,,,white,cross
0.0,6.0,1.0,1.0,6.0,6.0,1037.7236157655716,7.0,1.0,phase_2,stop,1050.0,900.0,3.0,,,,,,,,,white,cross
0.0,5.0,0.5,1.0,6.0,6.0,790.761012583971,7.0,1.0,phase_2,stop,1050.0,850.0,3.0,,,,,,,,,orange,hexagon
0.0,3.0,2.0,0.0,6.0,6.0,971.7460311949252,7.0,1.0,phase_2,go,1050.0,800.0,1.0,,,,,,,,,yellow,triangle
0.0,8.0,4.0,1.0,6.0,6.0,1214.681904762983,7.0,1.0,phase_2,go,1050.0,800.0,1.0,,,,,,,,,gray,diamond
0.0,7.0,2.0,1.0,6.0,6.0,842.765349894762,7.0,1.0,phase_2,stop,1050.0,800.0,3.0,,,,,,,,,cyan,circle
0.0,5.0,0.5,1.0,6.0,0.0,0.0,7.0,1.0,phase_2,stop,1050.0,750.0,4.0,,,,,,,,,orange,hexagon
0.0,2.0,1.0,0.0,6.0,6.0,1012.5052072107792,7.0,1.0,phase_2,go,1050.0,800.0,1.0,,,,,,,,,green,I
0.0,3.0,2.0,0.0,6.0,6.0,1273.246679455042,7.0,1.0,phase_2,go,1050.0,800.0,1.0,,,,,,,,,yellow,triangle
0.0,7.0,2.0,1.0,6.0,6.0,714.8358915001154,7.0,1.0,phase_2,stop,1050.0,800.0,3.0,,,,,,,,,cyan,circle
0.0,7.0,2.0,1.0,5.0,5.0,1129.0372926741838,7.0,1.0,phase_2,stop,1050.0,750.0,3.0,,,,,,,,,cyan,circle
0.0,5.0,0.5,1.0,5.0,5.0,1087.8092925995588,7.0,1.0,phase_2,stop,1000.0,750.0,3.0,,,,,,,,,orange,hexagon
0.0,4.0,4.0,0.0,6.0,6.0,1103.8593836128712,7.0,1.0,phase_2,go,950.0,750.0,1.0,,,,,,,,,blue,square
0.0,7.0,2.0,1.0,5.0,5.0,1206.6256571561098,7.0,1.0,phase_2,go,950.0,750.0,1.0,,,,,,,,,cyan,circle
0.0,2.0,1.0,0.0,5.0,5.0,935.9425250440836,7.0,1.0,phase_2,go,950.0,750.0,1.0,,,,,,,,,green,I
0.0,3.0,2.0,0.0,6.0,6.0,1160.4139637202024,7.0,1.0,phase_2,go,950.0,750.0,1.0,,,,,,,,,yellow,triangle
0.0,2.0,1.0,0.0,6.0,6.0,1191.0077538341284,7.0,1.0,phase_2,go,950.0,750.0,1.0,,,,,,,,,green,I
0.0,5.0,0.5,1.0,5.0,5.0,1140.7127026468515,7.0,1.0,phase_2,go,950.0,750.0,1.0,,,,,,,,,orange,hexagon
0.0,6.0,1.0,1.0,5.0,0.0,0.0,7.0,1.0,phase_2,stop,950.0,750.0,4.0,,,,,,,,,white,cross
0.0,5.0,0.5,1.0,6.0,0.0,0.0,7.0,1.0,phase_2,go,1000.0,750.0,5.0,,,,,,,,,orange,hexagon
0.0,5.0,0.5,1.0,5.0,0.0,0.0,7.0,1.0,phase_2,stop,1000.0,750.0,4.0,,,,,,,,,orange,hexagon
0.0,6.0,1.0,1.0,6.0,6.0,594.3167563527822,7.0,1.0,phase_2,stop,1050.0,750.0,3.0,,,,,,,,,white,cross
0.0,2.0,1.0,0.0,5.0,5.0,1499.8363554477692,7.0,1.0,phase_2,go,1050.0,700.0,1.0,,,,,,,,,green,I
0.0,8.0,4.0,1.0,5.0,5.0,833.5578050464392,7.0,1.0,phase_2,stop,1050.0,700.0,3.0,,,,,,,,,gray,diamond
0.0,1.0,0.5,0.0,5.0,5.0,1145.1023500412705,7.0,1.0,phase_2,go,1000.0,700.0,1.0,,,,,,,,,magenta,flipped triangle
0.0,2.0,1.0,0.0,6.0,6.0,1379.657143726945,7.0,1.0,phase_2,go,1000.0,700.0,1.0,,,,,,,,,green,I
0.0,6.0,1.0,1.0,6.0,6.0,1407.7907726168633,7.0,1.0,phase_2,stop,1000.0,700.0,3.0,,,,,,,,,white,cross
0.0,3.0,2.0,0.0,5.0,5.0,1042.6735989749432,7.0,1.0,phase_2,go,1000.0,650.0,1.0,,,,,,,,,yellow,triangle
0.0,5.0,0.5,1.0,5.0,0.0,0.0,7.0,1.0,phase_2,stop,1000.0,650.0,4.0,,,,,,,,,orange,hexagon
0.0,8.0,4.0,1.0,6.0,6.0,719.9309077113867,8.0,1.0,phase_2,stop,1050.0,650.0,3.0,,,,,,,,,gray,diamond
0.0,5.0,0.5,1.0,6.0,6.0,1306.1101716011765,8.0,1.0,phase_2,go,1050.0,600.0,1.0,,,,,,,,,orange,hexagon
0.0,4.0,4.0,0.0,6.0,6.0,1041.1014519631865,8.0,1.0,phase_2,go,1050.0,600.0,1.0,,,,,,,,,blue,square
0.0,1.0,0.5,0.0,5.0,5.0,1121.0950557142496,8.0,1.0,phase_2,go,1050.0,600.0,1.0,,,,,,,,,magenta,flipped triangle
0.0,5.0,0.5,1.0,5.0,5.0,1086.748592555523,8.0,1.0,phase_2,stop,1050.0,600.0,3.0,,,,,,,,,orange,hexagon
0.0,4.0,4.0,0.0,5.0,5.0,1085.089152678847,8.0,1.0,phase_2,go,1000.0,600.0,1.0,,,,,,,,,blue,square
0.0,3.0,2.0,0.0,5.0,0.0,0.0,8.0,1.0,phase_2,go,1000.0,600.0,5.0,,,,,,,,,yellow,triangle
0.0,7.0,2.0,1.0,5.0,0.0,0.0,8.0,1.0,phase_2,stop,1000.0,600.0,4.0,,,,,,,,,cyan,circle
0.0,3.0,2.0,0.0,5.0,5.0,923.3927726745604,8.0,1.0,phase_2,go,1050.0,600.0,1.0,,,,,,,,,yellow,triangle
0.0,1.0,0.5,0.0,6.0,6.0,1146.7363368719816,8.0,1.0,phase_2,go,1050.0,600.0,1.0,,,,,,,,,magenta,flipped triangle
0.0,3.0,2.0,0.0,5.0,5.0,1254.487069323659,8.0,1.0,phase_2,go,1050.0,600.0,1.0,,,,,,,,,yellow,triangle
0.0,2.0,1.0,0.0,5.0,5.0,859.5437183976173,8.0,1.0,phase_2,go,1050.0,600.0,1.0,,,,,,,,,green,I
0.0,4.0,4.0,0.0,5.0,5.0,1018.2116366922855,8.0,1.0,phase_2,go,1050.0,600.0,1.0,,,,,,,,,blue,square
0.0,2.0,1.0,0.0,6.0,6.0,1225.501075387001,8.0,1.0,phase_2,go,1050.0,600.0,1.0,,,,,,,,,green,I
0.0,5.0,0.5,1.0,6.0,6.0,1075.6339449435472,8.0,1.0,phase_2,go,1050.0,600.0,1.0,,,,,,,,,orange,hexagon
0.0,4.0,4.0,0.0,6.0,6.0,1160.9020959585905,8.0,1.0,phase_2,go,1050.0,600.0,1.0,,,,,,,,,blue,square
0.0,1.0,0.5,0.0,6.0,6.0,1135.9186172485352,8.0,1.0,phase_2,go,1050.0,600.0,1.0,,,,,,,,,magenta,flipped triangle
0.0,5.0,0.5,1.0,5.0,5.0,1074.2796622216702,8.0,1.0,phase_2,stop,1050.0,600.0,3.0,,,,,,,,,orange,hexagon
0.0,1.0,0.5,0.0,6.0,6.0,1056.3005451112986,8.0,1.0,phase_2,go,1000.0,600.0,1.0,,,,,,,,,magenta,flipped triangle
0.0,7.0,2.0,1.0,5.0,5.0,1001.5075337141752,8.0,1.0,phase_2,go,1000.0,600.0,1.0,,,,,,,,,cyan,circle
0.0,7.0,2.0,1.0,5.0,5.0,887.5927701592445,8.0,1.0,phase_2,stop,1000.0,600.0,3.0,,,,,,,,,cyan,circle
0.0,8.0,4.0,1.0,5.0,0.0,0.0,8.0,1.0,phase_2,stop,950.0,600.0,4.0,,,,,,,,,gray,diamond
0.0,4.0,4.0,0.0,5.0,5.0,1171.91581428051,8.0,1.0,phase_2,go,1000.0,600.0,1.0,,,,,,,,,blue,square
0.0,4.0,4.0,0.0,6.0,6.0,1099.5388105511663,8.0,1.0,phase_2,go,1000.0,600.0,1.0,,,,,,,,,blue,square
0.0,8.0,4.0,1.0,5.0,0.0,0.0,8.0,1.0,phase_2,stop,1000.0,600.0,4.0,,,,,,,,,gray,diamond
0.0,4.0,4.0,0.0,5.0,5.0,1412.204684689641,8.0,1.0,phase_2,go,1050.0,600.0,1.0,,,,,,,,,blue,square
0.0,3.0,2.0,0.0,5.0,5.0,909.7950477153064,8.0,1.0,phase_2,go,1050.0,600.0,1.0,,,,,,,,,yellow,triangle
0.0,3.0,2.0,0.0,6.0,6.0,1036.5217719227076,8.0,1.0,phase_2,go,1050.0,600.0,1.0,,,,,,,,,yellow,triangle
0.0,7.0,2.0,1.0,6.0,6.0,352.7467772364616,8.0,1.0,phase_2,go,1050.0,600.0,1.0,,,,,,,,,cyan,circle
0.0,7.0,2.0,1.0,6.0,0.0,0.0,8.0,1.0,phase_2,stop,1050.0,600.0,4.0,,,,,,,,,cyan,circle
0.0,7.0,2.0,1.0,6.0,0.0,0.0,8.0,1.0,phase_2,stop,1050.0,650.0,4.0,,,,,,,,,cyan,circle
0.0,3.0,2.0,0.0,5.0,5.0,1160.6963519006968,8.0,1.0,phase_2,go,1050.0,700.0,1.0,,,,,,,,,yellow,triangle
0.0,2.0,1.0,0.0,5.0,5.0,1471.5780690312386,8.0,1.0,phase_2,go,1050.0,700.0,1.0,,,,,,,,,green,I
0.0,1.0,0.5,0.0,5.0,5.0,1270.141839981079,8.0,1.0,phase_2,go,1050.0,700.0,1.0,,,,,,,,,magenta,flipped triangle
0.0,6.0,1.0,1.0,6.0,0.0,0.0,8.0,1.0,phase_2,stop,1050.0,700.0,4.0,,,,,,,,,white,cross
0.0,3.0,2.0,0.0,5.0,5.0,1309.4422202557323,8.0,1.0,phase_2,go,1050.0,750.0,1.0,,,,,,,,,yellow,triangle
0.0,3.0,2.0,0.0,7.0,5.0,1944.78989392519,1.0,1.0,phase_3,,,,,98.0,2.0,294.0,245.0,147.0,49.0,98.0,196.0,yellow,triangle
0.0,8.0,4.0,1.0,7.0,4.0,2147.6191710680723,1.0,1.0,phase_3,,,,,147.0,3.0,196.0,245.0,49.0,147.0,294.0,98.0,gray,diamond
0.0,2.0,1.0,0.0,7.0,6.0,1856.677507981658,1.0,1.0,phase_3,,,,,162.0,3.0,54.0,324.0,108.0,270.0,216.0,162.0,green,I
0.0,6.0,1.0,1.0,7.0,5.0,2274.842981249094,1.0,1.0,phase_3,,,,,264.0,6.0,220.0,44.0,176.0,88.0,264.0,132.0,white,cross
0.0,1.0,0.5,0.0,7.0,4.0,1524.420639500022,1.0,1.0,phase_3,,,,,68.0,2.0,102.0,136.0,170.0,68.0,204.0,34.0,magenta,flipped triangle
0.0,8.0,4.0,1.0,7.0,1.0,1720.657467842102,1.0,1.0,phase_3,,,,,98.0,2.0,98.0,294.0,147.0,245.0,49.0,196.0,gray,diamond
0.0,3.0,2.0,0.0,7.0,5.0,1279.0154162794352,1.0,1.0,phase_3,,,,,49.0,1.0,98.0,294.0,245.0,196.0,49.0,147.0,yellow,triangle
0.0,7.0,2.0,1.0,7.0,3.0,1915.3049793094401,1.0,1.0,phase_3,,,,,49.0,1.0,196.0,294.0,49.0,245.0,98.0,147.0,cyan,circle
0.0,4.0,4.0,0.0,7.0,5.0,2378.898987546563,1.0,1.0,phase_3,,,,,220.0,5.0,132.0,44.0,264.0,176.0,220.0,88.0,blue,square
0.0,8.0,4.0,1.0,7.0,5.0,1827.8876282274723,1.0,1.0,phase_3,,,,,68.0,2.0,102.0,34.0,204.0,136.0,68.0,170.0,gray,diamond
0.0,8.0,4.0,1.0,7.0,6.0,2004.0428824722767,1.0,1.0,phase_3,,,,,54.0,1.0,324.0,108.0,216.0,162.0,270.0,54.0,gray,diamond
0.0,6.0,1.0,1.0,7.0,3.0,1704.3607216328382,1.0,1.0,phase_3,,,,,245.0,5.0,98.0,49.0,245.0,147.0,294.0,196.0,white,cross
0.0,1.0,0.5,0.0,7.0,1.0,1607.132351025939,1.0,1.0,phase_3,,,,,195.0,5.0,195.0,156.0,78.0,117.0,234.0,39.0,magenta,flipped triangle
0.0,5.0,0.5,1.0,7.0,2.0,1991.64984934032,1.0,1.0,phase_3,,,,,204.0,6.0,34.0,204.0,68.0,102.0,136.0,170.0,orange,hexagon
0.0,5.0,0.5,1.0,7.0,4.0,2169.0613850951195,1.0,1.0,phase_3,,,,,170.0,5.0,68.0,204.0,102.0,170.0,136.0,34.0,orange,hexagon
0.0,4.0,4.0,0.0,7.0,4.0,2214.642267674208,1.0,1.0,phase_3,,,,,78.0,2.0,39.0,234.0,117.0,78.0,156.0,195.0,blue,square
0.0,1.0,0.5,0.0,7.0,5.0,2222.032986581325,1.0,1.0,phase_3,,,,,78.0,2.0,195.0,156.0,117.0,39.0,78.0,234.0,magenta,flipped triangle
0.0,2.0,1.0,0.0,7.0,1.0,1936.8441607803104,1.0,1.0,phase_3,,,,,102.0,3.0,102.0,204.0,34.0,136.0,68.0,170.0,green,I
0.0,2.0,1.0,0.0,7.0,2.0,2038.5231338441372,1.0,1.0,phase_3,,,,,196.0,4.0,49.0,196.0,294.0,147.0,98.0,245.0,green,I
0.0,3.0,2.0,0.0,7.0,2.0,1387.7929411828518,1.0,1.0,phase_3,,,,,54.0,1.0,108.0,54.0,324.0,216.0,162.0,270.0,yellow,triangle
0.0,3.0,2.0,0.0,7.0,4.0,1768.8374184072018,2.0,1.0,phase_3,,,,,117.0,3.0,156.0,234.0,78.0,117.0,39.0,195.0,yellow,triangle
0.0,1.0,0.5,0.0,7.0,2.0,1537.7858392894268,2.0,1.0,phase_3,,,,,147.0,3.0,98.0,147.0,49.0,294.0,245.0,196.0,magenta,flipped triangle
0.0,5.0,0.5,1.0,7.0,3.0,1695.6160459667444,2.0,1.0,phase_3,,,,,270.0,5.0,324.0,162.0,270.0,108.0,54.0,216.0,orange,hexagon
0.0,3.0,2.0,0.0,7.0,2.0,2520.9474433213472,2.0,1.0,phase_3,,,,,136.0,4.0,102.0,136.0,170.0,68.0,34.0,204.0,yellow,triangle
0.0,7.0,2.0,1.0,7.0,6.0,2307.9429734498262,2.0,1.0,phase_3,,,,,78.0,2.0,39.0,195.0,117.0,156.0,234.0,78.0,cyan,circle
0.0,4.0,4.0,0.0,7.0,3.0,2195.5422572791576,2.0,1.0,phase_3,,,,,132.0,3.0,264.0,88.0,132.0,176.0,220.0,44.0,blue,square
0.0,1.0,0.5,0.0,7.0,5.0,1758.9267119765282,2.0,1.0,phase_3,,,,,170.0,5.0,136.0,34.0,102.0,68.0,170.0,204.0,magenta,flipped triangle
0.0,8.0,4.0,1.0,7.0,1.0,1591.4165508002045,2.0,1.0,phase_3,,,,,44.0,1.0,44.0,264.0,220.0,132.0,88.0,176.0,gray,diamond
0.0,5.0,0.5,1.0,7.0,6.0,1524.0510497242212,2.0,1.0,phase_3,,,,,264.0,6.0,44.0,132.0,176.0,88.0,220.0,264.0,orange,hexagon
0.0,7.0,2.0,1.0,7.0,2.0,2093.0831003934145,2.0,1.0,phase_3,,,,,132.0,3.0,220.0,132.0,176.0,88.0,264.0,44.0,cyan,circle
0.0,7.0,2.0,1.0,7.0,6.0,1646.6779336333277,2.0,1.0,phase_3,,,,,176.0,4.0,132.0,44.0,88.0,220.0,264.0,176.0,cyan,circle
0.0,2.0,1.0,0.0,7.0,6.0,1630.9907287359238,2.0,1.0,phase_3,,,,,196.0,4.0,49.0,98.0,245.0,147.0,294.0,196.0,green,I
0.0,1.0,0.5,0.0,7.0,1.0,1901.2653939425943,2.0,1.0,phase_3,,,,,245.0,5.0,245.0,49.0,98.0,294.0,196.0,147.0,magenta,flipped triangle
0.0,3.0,2.0,0.0,7.0,3.0,1538.5735500603914,2.0,1.0,phase_3,,,,,170.0,5.0,34.0,204.0,170.0,102.0,68.0,136.0,yellow,triangle
0.0,5.0,0.5,1.0,7.0,2.0,1651.296455413103,2.0,1.0,phase_3,,,,,234.0,6.0,78.0,234.0,117.0,195.0,156.0,39.0,orange,hexagon
0.0,4.0,4.0,0.0,7.0,5.0,2148.6048586666584,2.0,1.0,phase_3,,,,,270.0,5.0,108.0,162.0,54.0,216.0,270.0,324.0,blue,square
0.0,5.0,0.5,1.0,7.0,4.0,1958.6977064609528,2.0,1.0,phase_3,,,,,195.0,5.0,156.0,234.0,78.0,195.0,117.0,39.0,orange,hexagon
0.0,6.0,1.0,1.0,7.0,3.0,1712.0402678847313,2.0,1.0,phase_3,,,,,294.0,6.0,98.0,196.0,294.0,147.0,49.0,245.0,white,cross
0.0,8.0,4.0,1.0,7.0,2.0,1854.49861176312,2.0,1.0,phase_3,,,,,78.0,2.0,39.0,78.0,156.0,195.0,117.0,234.0,gray,diamond
0.0,6.0,1.0,1.0,7.0,2.0,1857.1753147989511,2.0,1.0,phase_3,,,,,324.0,6.0,162.0,324.0,270.0,108.0,54.0,216.0,white,cross
0.0,3.0,2.0,0.0,7.0,6.0,1448.8085303455591,3.0,1.0,phase_3,,,,,108.0,2.0,54.0,270.0,162.0,216.0,324.0,108.0,yellow,triangle
0.0,4.0,4.0,0.0,7.0,4.0,2180.873127654195,3.0,1.0,phase_3,,,,,102.0,3.0,170.0,34.0,68.0,102.0,136.0,204.0,blue,square
0.0,8.0,4.0,1.0,7.0,5.0,1174.8358961194754,3.0,1.0,phase_3,,,,,54.0,1.0,270.0,324.0,108.0,162.0,54.0,216.0,gray,diamond
0.0,5.0,0.5,1.0,7.0,5.0,2020.229335874319,3.0,1.0,phase_3,,,,,245.0,5.0,294.0,49.0,196.0,98.0,245.0,147.0,orange,hexagon
0.0,1.0,0.5,0.0,7.0,4.0,1709.5476184040308,3.0,1.0,phase_3,,,,,108.0,2.0,270.0,54.0,162.0,108.0,216.0,324.0,magenta,flipped triangle
0.0,7.0,2.0,1.0,7.0,2.0,2313.0868170410395,3.0,1.0,phase_3,,,,,136.0,4.0,102.0,136.0,204.0,68.0,170.0,34.0,cyan,circle
0.0,3.0,2.0,0.0,7.0,2.0,1978.789558634162,3.0,1.0,phase_3,,,,,78.0,2.0,234.0,78.0,195.0,117.0,156.0,39.0,yellow,triangle
0.0,6.0,1.0,1.0,7.0,5.0,1778.3952970057726,3.0,1.0,phase_3,,,,,204.0,6.0,102.0,136.0,68.0,170.0,204.0,34.0,white,cross
0.0,2.0,1.0,0.0,7.0,1.0,2179.5400362461805,3.0,1.0,phase_3,,,,,195.0,5.0,195.0,234.0,156.0,78.0,39.0,117.0,green,I
0.0,7.0,2.0,1.0,7.0,5.0,2109.482644125819,3.0,1.0,phase_3,,,,,108.0,2.0,270.0,324.0,216.0,162.0,108.0,54.0,cyan,circle
0.0,4.0,4.0,0.0,7.0,4.0,2697.339214384556,3.0,1.0,phase_3,,,,,204.0,6.0,136.0,102.0,34.0,204.0,68.0,170.0,blue,square
0.0,6.0,1.0,1.0,7.0,1.0,2280.870381742716,3.0,1.0,phase_3,,,,,176.0,4.0,176.0,264.0,44.0,132.0,220.0,88.0,white,cross
0.0,7.0,2.0,1.0,7.0,5.0,2347.443552687764,3.0,1.0,phase_3,,,,,78.0,2.0,117.0,156.0,234.0,195.0,78.0,39.0,cyan,circle
0.0,2.0,1.0,0.0,7.0,2.0,1532.59770385921,3.0,1.0,phase_3,,,,,204.0,6.0,102.0,204.0,170.0,34.0,136.0,68.0,green,I
0.0,2.0,1.0,0.0,7.0,4.0,1575.565226376057,3.0,1.0,phase_3,,,,,195.0,5.0,234.0,156.0,39.0,195.0,78.0,117.0,green,I
0.0,4.0,4.0,0.0,7.0,3.0,2564.92699123919,3.0,1.0,phase_3,,,,,117.0,3.0,156.0,234.0,117.0,195.0,39.0,78.0,blue,square
0.0,7.0,2.0,1.0,7.0,2.0,1503.005711361766,3.0,1.0,phase_3,,,,,108.0,2.0,216.0,108.0,270.0,54.0,162.0,324.0,cyan,circle
0.0,1.0,0.5,0.0,7.0,3.0,2258.484160527587,3.0,1.0,phase_3,,,,,132.0,3.0,220.0,44.0,132.0,264.0,88.0,176.0,magenta,flipped triangle
0.0,4.0,4.0,0.0,7.0,6.0,1651.896422728896,3.0,1.0,phase_3,,,,,196.0,4.0,49.0,147.0,98.0,294.0,245.0,196.0,blue,square
0.0,3.0,2.0,0.0,7.0,1.0,1826.5668358653784,3.0,1.0,phase_3,,,,,220.0,5.0,220.0,132.0,44.0,176.0,264.0,88.0,yellow,triangle
0.0,2.0,1.0,0.0,7.0,1.0,1403.6232475191357,4.0,1.0,phase_3,,,,,264.0,6.0,264.0,132.0,220.0,44.0,88.0,176.0,green,I
0.0,5.0,0.5,1.0,7.0,3.0,1621.7392180114985,4.0,1.0,phase_3,,,,,294.0,6.0,196.0,98.0,294.0,49.0,147.0,245.0,orange,hexagon
0.0,6.0,1.0,1.0,7.0,6.0,1249.6686950325966,4.0,1.0,phase_3,,,,,234.0,6.0,78.0,117.0,156.0,195.0,39.0,234.0,white,cross
0.0,2.0,1.0,0.0,7.0,5.0,1626.1858530342581,4.0,1.0,phase_3,,,,,176.0,4.0,44.0,132.0,220.0,264.0,176.0,88.0,green,I
0.0,4.0,4.0,0.0,7.0,3.0,2651.957059279084,4.0,1.0,phase_3,,,,,147.0,3.0,245.0,98.0,147.0,196.0,294.0,49.0,blue,square
0.0,8.0,4.0,1.0,7.0,5.0,1077.438859269023,4.0,1.0,phase_3,,,,,44.0,1.0,88.0,176.0,220.0,264.0,44.0,132.0,gray,diamond
0.0,6.0,1.0,1.0,7.0,3.0,1590.9606497734785,4.0,1.0,phase_3,,,,,170.0,5.0,136.0,102.0,170.0,34.0,68.0,204.0,white,cross
0.0,7.0,2.0,1.0,7.0,1.0,1982.455145567656,4.0,1.0,phase_3,,,,,102.0,3.0,102.0,204.0,34.0,68.0,170.0,136.0,cyan,circle
0.0,8.0,4.0,1.0,7.0,4.0,1566.6684117168188,4.0,1.0,phase_3,,,,,34.0,1.0,204.0,102.0,170.0,34.0,68.0,136.0,gray,diamond
0.0,3.0,2.0,0.0,7.0,5.0,1680.7580515742302,4.0,1.0,phase_3,,,,,132.0,3.0,220.0,176.0,88.0,264.0,132.0,44.0,yellow,triangle
0.0,1.0,0.5,0.0,7.0,6.0,1346.5629648417234,4.0,1.0,phase_3,,,,,176.0,4.0,88.0,220.0,264.0,44.0,132.0,176.0,magenta,flipped triangle
0.0,2.0,1.0,0.0,7.0,2.0,1999.190038070083,4.0,1.0,phase_3,,,,,270.0,5.0,54.0,270.0,162.0,324.0,108.0,216.0,green,I
0.0,5.0,0.5,1.0,7.0,6.0,1862.7108428627253,4.0,1.0,phase_3,,,,,176.0,4.0,132.0,44.0,264.0,220.0,88.0,176.0,orange,hexagon
0.0,6.0,1.0,1.0,7.0,6.0,2477.557379752397,4.0,1.0,phase_3,,,,,234.0,6.0,39.0,117.0,195.0,156.0,78.0,234.0,white,cross
0.0,1.0,0.5,0.0,7.0,4.0,2119.8947355151176,4.0,1.0,phase_3,,,,,216.0,4.0,324.0,54.0,108.0,216.0,270.0,162.0,magenta,flipped triangle
0.0,8.0,4.0,1.0,7.0,1.0,1456.300089135766,4.0,1.0,phase_3,,,,,39.0,1.0,39.0,234.0,195.0,156.0,78.0,117.0,gray,diamond
0.0,5.0,0.5,1.0,7.0,2.0,2425.926309078932,4.0,1.0,phase_3,,,,,216.0,4.0,270.0,216.0,324.0,108.0,162.0,54.0,orange,hexagon
0.0,7.0,2.0,1.0,7.0,4.0,2238.6811766773462,4.0,1.0,phase_3,,,,,196.0,4.0,294.0,49.0,245.0,196.0,98.0,147.0,cyan,circle
0.0,4.0,4.0,0.0,7.0,4.0,1679.1573967784643,4.0,1.0,phase_3,,,,,108.0,2.0,324.0,54.0,162.0,108.0,216.0,270.0,blue,square
0.0,6.0,1.0,1.0,7.0,1.0,1806.2395229935648,4.0,1.0,phase_3,,,,,162.0,3.0,162.0,216.0,108.0,324.0,54.0,270.0,white,cross
