raw_reward_magnitude,stim_reward,stepwise_reward_magnitude,paired_with_stopping,quadrant,response,reaction_time,block,num_trial_presentations,which_part,stop_signal_trial_type,left_SSD,right_SSD,accuracy,chosen_bidding_amount,chosen_bidding_level,possible_bid_1,possible_bid_2,possible_bid_3,possible_bid_4,possible_bid_5,possible_bid_6,color_text,shape_text
0.0,3.0,0.0,0.0,2.0,2.0,995.9197398275136,1.0,1.0,part_1,,,,,,,,,,,,,blue,hexagon
405.0,8.0,4.0,1.0,3.0,3.0,496.1859006434679,1.0,1.0,part_1,,,,,,,,,,,,,yellow,flipped triangle
187.0,3.0,3.0,0.0,3.0,3.0,443.5942899435758,1.0,1.0,part_1,,,,,,,,,,,,,blue,hexagon
68.0,1.0,1.0,0.0,2.0,2.0,519.5991154760122,1.0,1.0,part_1,,,,,,,,,,,,,white,I
119.0,2.0,2.0,0.0,1.0,1.0,276.6584884375334,1.0,1.0,part_1,,,,,,,,,,,,,orange,triangle
105.0,6.0,2.0,1.0,4.0,4.0,343.3437943458557,1.0,1.0,part_1,,,,,,,,,,,,,cyan,cross
205.0,3.0,3.0,0.0,1.0,1.0,293.5630641877651,1.0,1.0,part_1,,,,,,,,,,,,,blue,hexagon
207.0,3.0,3.0,0.0,4.0,4.0,400.2940375357866,1.0,2.0,part_1,,,,,,,,,,,,,blue,hexagon
49.0,5.0,1.0,1.0,1.0,1.0,429.4071439653635,1.0,1.0,part_1,,,,,,,,,,,,,gray,circle
51.0,1.0,1.0,0.0,3.0,3.0,410.0593738257885,1.0,1.0,part_1,,,,,,,,,,,,,white,I
0.0,4.0,0.0,0.0,4.0,4.0,309.7870722413063,1.0,1.0,part_1,,,,,,,,,,,,,magenta,diamond
85.0,2.0,2.0,0.0,1.0,1.0,338.4039010852575,1.0,1.0,part_1,,,,,,,,,,,,,orange,triangle
194.0,7.0,3.0,1.0,4.0,4.0,392.7736151963472,1.0,1.0,part_1,,,,,,,,,,,,,green,square
95.0,6.0,2.0,1.0,1.0,1.0,356.9668866693973,1.0,1.0,part_1,,,,,,,,,,,,,cyan,cross
410.0,4.0,4.0,0.0,2.0,2.0,287.459522485733,1.0,1.0,part_1,,,,,,,,,,,,,magenta,diamond
221.0,7.0,3.0,1.0,1.0,1.0,503.5243835300207,1.0,2.0,part_1,,,,,,,,,,,,,green,square
0.0,3.0,0.0,0.0,2.0,2.0,445.3923478722572,1.0,1.0,part_1,,,,,,,,,,,,,blue,hexagon
383.0,8.0,4.0,1.0,2.0,2.0,379.9612764269113,1.0,1.0,part_1,,,,,,,,,,,,,yellow,flipped triangle
383.0,4.0,4.0,0.0,2.0,2.0,369.5033676922321,1.0,1.0,part_1,,,,,,,,,,,,,magenta,diamond
188.0,3.0,3.0,0.0,3.0,3.0,333.2700971513986,1.0,1.0,part_1,,,,,,,,,,,,,blue,hexagon
395.0,8.0,4.0,1.0,2.0,2.0,321.9647388905287,1.0,1.0,part_1,,,,,,,,,,,,,yellow,flipped triangle
77.0,2.0,2.0,0.0,3.0,3.0,399.910943582654,1.0,1.0,part_1,,,,,,,,,,,,,orange,triangle
0.0,3.0,0.0,0.0,2.0,2.0,432.6596446335315,1.0,1.0,part_1,,,,,,,,,,,,,blue,hexagon
86.0,2.0,2.0,0.0,1.0,1.0,318.9106304198503,1.0,1.0,part_1,,,,,,,,,,,,,orange,triangle
203.0,3.0,3.0,0.0,3.0,3.0,362.1279951184988,1.0,1.0,part_1,,,,,,,,,,,,,blue,hexagon
0.0,2.0,0.0,0.0,3.0,3.0,366.6975013911724,1.0,1.0,part_1,,,,,,,,,,,,,orange,triangle
77.0,6.0,2.0,1.0,1.0,1.0,373.854087665677,1.0,1.0,part_1,,,,,,,,,,,,,cyan,cross
213.0,7.0,3.0,1.0,4.0,4.0,345.8805792033672,1.0,1.0,part_1,,,,,,,,,,,,,green,square
0.0,2.0,0.0,0.0,2.0,2.0,351.4088094234466,1.0,1.0,part_1,,,,,,,,,,,,,orange,triangle
123.0,6.0,2.0,1.0,3.0,3.0,355.3656954318285,1.0,1.0,part_1,,,,,,,,,,,,,cyan,cross
0.0,6.0,0.0,1.0,4.0,4.0,345.7324653863907,1.0,1.0,part_1,,,,,,,,,,,,,cyan,cross
400.0,4.0,4.0,0.0,2.0,2.0,253.6095269024372,1.0,1.0,part_1,,,,,,,,,,,,,magenta,diamond
105.0,2.0,2.0,0.0,3.0,3.0,314.6913032978773,1.0,1.0,part_1,,,,,,,,,,,,,orange,triangle
50.0,1.0,1.0,0.0,1.0,1.0,316.0724937915802,1.0,1.0,part_1,,,,,,,,,,,,,white,I
38.0,5.0,1.0,1.0,1.0,1.0,464.5285252481699,1.0,1.0,part_1,,,,,,,,,,,,,gray,circle
207.0,3.0,3.0,0.0,3.0,3.0,325.3057394176721,1.0,1.0,part_1,,,,,,,,,,,,,blue,hexagon
0.0,8.0,0.0,1.0,3.0,3.0,346.7403724789619,1.0,1.0,part_1,,,,,,,,,,,,,yellow,flipped triangle
63.0,5.0,1.0,1.0,3.0,3.0,472.829420119524,1.0,1.0,part_1,,,,,,,,,,,,,gray,circle
83.0,6.0,2.0,1.0,2.0,2.0,315.3414912521839,1.0,1.0,part_1,,,,,,,,,,,,,cyan,cross
218.0,7.0,3.0,1.0,4.0,4.0,352.9090024530887,1.0,1.0,part_1,,,,,,,,,,,,,green,square
388.0,8.0,4.0,1.0,4.0,4.0,367.0365270227194,1.0,1.0,part_1,,,,,,,,,,,,,yellow,flipped triangle
387.0,8.0,4.0,1.0,4.0,4.0,403.8116652518511,1.0,1.0,part_1,,,,,,,,,,,,,yellow,flipped triangle
31.0,1.0,1.0,0.0,1.0,1.0,417.2357358038425,1.0,1.0,part_1,,,,,,,,,,,,,white,I
0.0,6.0,0.0,1.0,2.0,2.0,293.7930915504694,1.0,1.0,part_1,,,,,,,,,,,,,cyan,cross
0.0,8.0,0.0,1.0,4.0,4.0,266.6816115379333,1.0,1.0,part_1,,,,,,,,,,,,,yellow,flipped triangle
407.0,4.0,4.0,0.0,1.0,1.0,334.6099965274334,1.0,1.0,part_1,,,,,,,,,,,,,magenta,diamond
30.0,5.0,1.0,1.0,4.0,4.0,364.9959694594145,1.0,1.0,part_1,,,,,,,,,,,,,gray,circle
123.0,2.0,2.0,0.0,1.0,1.0,352.7658134698868,1.0,1.0,part_1,,,,,,,,,,,,,orange,triangle
101.0,6.0,2.0,1.0,3.0,3.0,373.1986247003078,1.0,1.0,part_1,,,,,,,,,,,,,cyan,cross
0.0,2.0,0.0,0.0,4.0,4.0,296.1682695895433,1.0,1.0,part_1,,,,,,,,,,,,,orange,triangle
122.0,6.0,2.0,1.0,2.0,2.0,294.9157711118459,1.0,1.0,part_1,,,,,,,,,,,,,cyan,cross
423.0,8.0,4.0,1.0,1.0,1.0,289.3423438072204,1.0,1.0,part_1,,,,,,,,,,,,,yellow,flipped triangle
410.0,4.0,4.0,0.0,3.0,3.0,333.4475681185722,1.0,1.0,part_1,,,,,,,,,,,,,magenta,diamond
413.0,8.0,4.0,1.0,3.0,3.0,404.626827687025,1.0,1.0,part_1,,,,,,,,,,,,,yellow,flipped triangle
52.0,1.0,1.0,0.0,2.0,2.0,342.3456307500601,1.0,1.0,part_1,,,,,,,,,,,,,white,I
37.0,5.0,1.0,1.0,3.0,3.0,382.3352493345737,1.0,1.0,part_1,,,,,,,,,,,,,gray,circle
213.0,3.0,3.0,0.0,2.0,2.0,407.6146297156811,1.0,1.0,part_1,,,,,,,,,,,,,blue,hexagon
180.0,3.0,3.0,0.0,4.0,4.0,303.1907863914966,1.0,1.0,part_1,,,,,,,,,,,,,blue,hexagon
218.0,7.0,3.0,1.0,1.0,1.0,330.6710328906774,1.0,1.0,part_1,,,,,,,,,,,,,green,square
47.0,5.0,1.0,1.0,4.0,4.0,341.993847861886,1.0,1.0,part_1,,,,,,,,,,,,,gray,circle
183.0,7.0,3.0,1.0,3.0,3.0,367.4956709146499,1.0,2.0,part_1,,,,,,,,,,,,,green,square
0.0,8.0,0.0,1.0,3.0,3.0,399.6689431369304,1.0,1.0,part_1,,,,,,,,,,,,,yellow,flipped triangle
27.0,5.0,1.0,1.0,2.0,2.0,371.939854696393,1.0,1.0,part_1,,,,,,,,,,,,,gray,circle
410.0,8.0,4.0,1.0,3.0,3.0,422.1374951303005,1.0,1.0,part_1,,,,,,,,,,,,,yellow,flipped triangle
74.0,1.0,1.0,0.0,4.0,4.0,414.1328651458025,1.0,1.0,part_1,,,,,,,,,,,,,white,I
376.0,8.0,4.0,1.0,1.0,1.0,398.722194135189,1.0,1.0,part_1,,,,,,,,,,,,,yellow,flipped triangle
74.0,5.0,1.0,1.0,2.0,2.0,411.5024004131555,1.0,1.0,part_1,,,,,,,,,,,,,gray,circle
82.0,6.0,2.0,1.0,4.0,4.0,380.4643340408802,1.0,1.0,part_1,,,,,,,,,,,,,cyan,cross
0.0,6.0,0.0,1.0,2.0,2.0,357.5925007462501,1.0,1.0,part_1,,,,,,,,,,,,,cyan,cross
186.0,3.0,3.0,0.0,4.0,4.0,459.9113725125789,1.0,1.0,part_1,,,,,,,,,,,,,blue,hexagon
0.0,5.0,0.0,1.0,4.0,4.0,473.9811718463897,1.0,1.0,part_1,,,,,,,,,,,,,gray,circle
0.0,7.0,0.0,1.0,1.0,1.0,460.8260598033666,1.0,1.0,part_1,,,,,,,,,,,,,green,square
203.0,3.0,3.0,0.0,3.0,3.0,375.9172558784485,1.0,1.0,part_1,,,,,,,,,,,,,blue,hexagon
393.0,4.0,4.0,0.0,3.0,3.0,421.933526173234,1.0,1.0,part_1,,,,,,,,,,,,,magenta,diamond
48.0,1.0,1.0,0.0,4.0,4.0,409.3456920236349,1.0,1.0,part_1,,,,,,,,,,,,,white,I
0.0,4.0,0.0,0.0,4.0,4.0,406.2282238155603,1.0,1.0,part_1,,,,,,,,,,,,,magenta,diamond
213.0,7.0,3.0,1.0,4.0,4.0,405.8039560914039,1.0,1.0,part_1,,,,,,,,,,,,,green,square
213.0,7.0,3.0,1.0,2.0,2.0,480.6360434740782,1.0,1.0,part_1,,,,,,,,,,,,,green,square
0.0,7.0,0.0,1.0,2.0,2.0,407.1464575827122,1.0,1.0,part_1,,,,,,,,,,,,,green,square
210.0,7.0,3.0,1.0,4.0,4.0,369.9453230947256,1.0,1.0,part_1,,,,,,,,,,,,,green,square
0.0,3.0,0.0,0.0,1.0,1.0,501.4104824513197,1.0,1.0,part_1,,,,,,,,,,,,,blue,hexagon
391.0,8.0,4.0,1.0,4.0,4.0,397.4949959665537,1.0,1.0,part_1,,,,,,,,,,,,,yellow,flipped triangle
214.0,3.0,3.0,0.0,1.0,1.0,551.4890663325787,1.0,1.0,part_1,,,,,,,,,,,,,blue,hexagon
110.0,6.0,2.0,1.0,3.0,3.0,350.3278940916061,1.0,1.0,part_1,,,,,,,,,,,,,cyan,cross
387.0,8.0,4.0,1.0,1.0,1.0,410.7520338147878,1.0,1.0,part_1,,,,,,,,,,,,,yellow,flipped triangle
0.0,8.0,0.0,1.0,1.0,1.0,484.6885334700346,1.0,1.0,part_1,,,,,,,,,,,,,yellow,flipped triangle
34.0,1.0,1.0,0.0,3.0,3.0,393.349515274167,1.0,1.0,part_1,,,,,,,,,,,,,white,I
98.0,6.0,2.0,1.0,2.0,2.0,269.8892951011657,1.0,1.0,part_1,,,,,,,,,,,,,cyan,cross
0.0,6.0,0.0,1.0,4.0,4.0,355.1984168589115,1.0,2.0,part_1,,,,,,,,,,,,,cyan,cross
124.0,2.0,2.0,0.0,2.0,2.0,412.4114513397217,1.0,1.0,part_1,,,,,,,,,,,,,orange,triangle
74.0,5.0,1.0,1.0,1.0,1.0,512.5433970242739,1.0,1.0,part_1,,,,,,,,,,,,,gray,circle
414.0,8.0,4.0,1.0,3.0,3.0,334.7869198769331,1.0,1.0,part_1,,,,,,,,,,,,,yellow,flipped triangle
0.0,6.0,0.0,1.0,2.0,2.0,485.679754987359,1.0,1.0,part_1,,,,,,,,,,,,,cyan,cross
199.0,7.0,3.0,1.0,2.0,2.0,350.9550057351589,1.0,1.0,part_1,,,,,,,,,,,,,green,square
407.0,8.0,4.0,1.0,1.0,1.0,335.2245241403579,1.0,1.0,part_1,,,,,,,,,,,,,yellow,flipped triangle
36.0,1.0,1.0,0.0,2.0,2.0,362.077783793211,1.0,1.0,part_1,,,,,,,,,,,,,white,I
205.0,7.0,3.0,1.0,2.0,2.0,414.7068876773119,1.0,1.0,part_1,,,,,,,,,,,,,green,square
388.0,4.0,4.0,0.0,3.0,3.0,321.5011171996593,1.0,1.0,part_1,,,,,,,,,,,,,magenta,diamond
220.0,7.0,3.0,1.0,2.0,2.0,317.6232185214758,1.0,1.0,part_1,,,,,,,,,,,,,green,square
67.0,5.0,1.0,1.0,4.0,4.0,404.0575586259365,1.0,1.0,part_1,,,,,,,,,,,,,gray,circle
117.0,6.0,2.0,1.0,4.0,4.0,596.1954016238451,2.0,1.0,part_1,,,,,,,,,,,,,cyan,cross
120.0,2.0,2.0,0.0,2.0,2.0,373.3530715107918,2.0,1.0,part_1,,,,,,,,,,,,,orange,triangle
0.0,8.0,0.0,1.0,4.0,4.0,449.6886916458606,2.0,1.0,part_1,,,,,,,,,,,,,yellow,flipped triangle
112.0,6.0,2.0,1.0,3.0,3.0,368.3424256742,2.0,1.0,part_1,,,,,,,,,,,,,cyan,cross
52.0,5.0,1.0,1.0,1.0,1.0,339.6579064428806,2.0,1.0,part_1,,,,,,,,,,,,,gray,circle
38.0,1.0,1.0,0.0,2.0,2.0,377.6249643415212,2.0,1.0,part_1,,,,,,,,,,,,,white,I
401.0,4.0,4.0,0.0,1.0,1.0,421.19155637919897,2.0,1.0,part_1,,,,,,,,,,,,,magenta,diamond
89.0,2.0,2.0,0.0,2.0,2.0,339.7259917110204,2.0,1.0,part_1,,,,,,,,,,,,,orange,triangle
68.0,5.0,1.0,1.0,1.0,1.0,398.6209202557802,2.0,1.0,part_1,,,,,,,,,,,,,gray,circle
0.0,5.0,0.0,1.0,4.0,4.0,499.3589837104082,2.0,1.0,part_1,,,,,,,,,,,,,gray,circle
203.0,7.0,3.0,1.0,4.0,4.0,466.410843655467,2.0,1.0,part_1,,,,,,,,,,,,,green,square
0.0,1.0,0.0,0.0,4.0,4.0,455.9246655553579,2.0,1.0,part_1,,,,,,,,,,,,,white,I
58.0,1.0,1.0,0.0,1.0,1.0,369.0074067562818,2.0,1.0,part_1,,,,,,,,,,,,,white,I
0.0,1.0,0.0,0.0,1.0,1.0,447.7434623986482,2.0,1.0,part_1,,,,,,,,,,,,,white,I
95.0,2.0,2.0,0.0,3.0,3.0,447.7478768676519,2.0,2.0,part_1,,,,,,,,,,,,,orange,triangle
63.0,5.0,1.0,1.0,1.0,1.0,406.9749899208545,2.0,1.0,part_1,,,,,,,,,,,,,gray,circle
213.0,3.0,3.0,0.0,4.0,4.0,433.6409531533718,2.0,1.0,part_1,,,,,,,,,,,,,blue,hexagon
185.0,7.0,3.0,1.0,2.0,2.0,407.8384898602962,2.0,1.0,part_1,,,,,,,,,,,,,green,square
217.0,3.0,3.0,0.0,4.0,4.0,411.2225547432899,2.0,1.0,part_1,,,,,,,,,,,,,blue,hexagon
105.0,6.0,2.0,1.0,2.0,2.0,400.9580202400684,2.0,1.0,part_1,,,,,,,,,,,,,cyan,cross
424.0,8.0,4.0,1.0,1.0,1.0,414.5871698856354,2.0,1.0,part_1,,,,,,,,,,,,,yellow,flipped triangle
86.0,6.0,2.0,1.0,2.0,2.0,344.2986942827701,2.0,1.0,part_1,,,,,,,,,,,,,cyan,cross
179.0,3.0,3.0,0.0,1.0,1.0,430.9686068445444,2.0,1.0,part_1,,,,,,,,,,,,,blue,hexagon
0.0,1.0,0.0,0.0,1.0,1.0,401.968739926815,2.0,1.0,part_1,,,,,,,,,,,,,white,I
176.0,7.0,3.0,1.0,4.0,4.0,446.5848300606012,2.0,1.0,part_1,,,,,,,,,,,,,green,square
176.0,3.0,3.0,0.0,4.0,4.0,498.1683567166328,2.0,1.0,part_1,,,,,,,,,,,,,blue,hexagon
379.0,8.0,4.0,1.0,2.0,2.0,392.7940241992473,2.0,1.0,part_1,,,,,,,,,,,,,yellow,flipped triangle
94.0,2.0,2.0,0.0,4.0,4.0,462.1342550963163,2.0,1.0,part_1,,,,,,,,,,,,,orange,triangle
98.0,2.0,2.0,0.0,3.0,3.0,443.3926362544298,2.0,1.0,part_1,,,,,,,,,,,,,orange,triangle
397.0,4.0,4.0,0.0,1.0,1.0,431.813383474946,2.0,1.0,part_1,,,,,,,,,,,,,magenta,diamond
414.0,4.0,4.0,0.0,4.0,4.0,393.6379831284284,2.0,1.0,part_1,,,,,,,,,,,,,magenta,diamond
54.0,1.0,1.0,0.0,3.0,3.0,390.1342786848545,2.0,1.0,part_1,,,,,,,,,,,,,white,I
104.0,2.0,2.0,0.0,2.0,2.0,372.7997094392776,2.0,1.0,part_1,,,,,,,,,,,,,orange,triangle
70.0,1.0,1.0,0.0,3.0,3.0,434.0453520417213,2.0,1.0,part_1,,,,,,,,,,,,,white,I
0.0,2.0,0.0,0.0,1.0,1.0,399.4021750986576,2.0,1.0,part_1,,,,,,,,,,,,,orange,triangle
180.0,7.0,3.0,1.0,1.0,1.0,425.842247903347,2.0,1.0,part_1,,,,,,,,,,,,,green,square
176.0,3.0,3.0,0.0,1.0,1.0,529.2520187795162,2.0,1.0,part_1,,,,,,,,,,,,,blue,hexagon
383.0,4.0,4.0,0.0,4.0,4.0,532.2323739528656,2.0,1.0,part_1,,,,,,,,,,,,,magenta,diamond
0.0,2.0,0.0,0.0,2.0,2.0,530.993489548564,2.0,1.0,part_1,,,,,,,,,,,,,orange,triangle
65.0,5.0,1.0,1.0,2.0,2.0,423.7036295235157,2.0,1.0,part_1,,,,,,,,,,,,,gray,circle
0.0,3.0,0.0,0.0,2.0,2.0,345.534011721611,2.0,1.0,part_1,,,,,,,,,,,,,blue,hexagon
83.0,2.0,2.0,0.0,3.0,3.0,332.96511694788927,2.0,1.0,part_1,,,,,,,,,,,,,orange,triangle
78.0,2.0,2.0,0.0,4.0,4.0,418.1503616273403,2.0,1.0,part_1,,,,,,,,,,,,,orange,triangle
47.0,1.0,1.0,0.0,1.0,1.0,495.1452314853668,2.0,1.0,part_1,,,,,,,,,,,,,white,I
0.0,2.0,0.0,0.0,1.0,1.0,365.4819335788488,2.0,1.0,part_1,,,,,,,,,,,,,orange,triangle
413.0,4.0,4.0,0.0,2.0,2.0,361.729197204113,2.0,1.0,part_1,,,,,,,,,,,,,magenta,diamond
220.0,3.0,3.0,0.0,1.0,1.0,407.9244416207075,2.0,1.0,part_1,,,,,,,,,,,,,blue,hexagon
198.0,7.0,3.0,1.0,1.0,1.0,377.407643944025,2.0,1.0,part_1,,,,,,,,,,,,,green,square
0.0,4.0,0.0,0.0,3.0,3.0,454.0228340774774,2.0,1.0,part_1,,,,,,,,,,,,,magenta,diamond
0.0,4.0,0.0,0.0,2.0,2.0,381.0590673238039,2.0,1.0,part_1,,,,,,,,,,,,,magenta,diamond
0.0,1.0,0.0,0.0,4.0,4.0,488.8311196118593,2.0,1.0,part_1,,,,,,,,,,,,,white,I
34.0,1.0,1.0,0.0,3.0,3.0,421.9974000006914,2.0,1.0,part_1,,,,,,,,,,,,,white,I
0.0,1.0,0.0,0.0,1.0,1.0,320.9055922925472,2.0,1.0,part_1,,,,,,,,,,,,,white,I
418.0,4.0,4.0,0.0,2.0,2.0,349.9516230076551,2.0,1.0,part_1,,,,,,,,,,,,,magenta,diamond
400.0,8.0,4.0,1.0,1.0,1.0,379.0756892412901,2.0,1.0,part_1,,,,,,,,,,,,,yellow,flipped triangle
0.0,5.0,0.0,1.0,4.0,4.0,417.0006662607193,2.0,1.0,part_1,,,,,,,,,,,,,gray,circle
61.0,5.0,1.0,1.0,2.0,2.0,341.7040463536978,2.0,1.0,part_1,,,,,,,,,,,,,gray,circle
0.0,7.0,0.0,1.0,3.0,3.0,364.0171084553003,2.0,1.0,part_1,,,,,,,,,,,,,green,square
203.0,7.0,3.0,1.0,1.0,1.0,308.4827773272991,2.0,1.0,part_1,,,,,,,,,,,,,green,square
48.0,5.0,1.0,1.0,2.0,2.0,316.9197048991918,2.0,1.0,part_1,,,,,,,,,,,,,gray,circle
37.0,1.0,1.0,0.0,4.0,4.0,288.4224820882082,2.0,1.0,part_1,,,,,,,,,,,,,white,I
0.0,6.0,0.0,1.0,3.0,3.0,324.8502723872661,2.0,1.0,part_1,,,,,,,,,,,,,cyan,cross
0.0,2.0,0.0,0.0,2.0,2.0,377.2618714720011,2.0,1.0,part_1,,,,,,,,,,,,,orange,triangle
63.0,1.0,1.0,0.0,2.0,2.0,317.7461121231317,2.0,1.0,part_1,,,,,,,,,,,,,white,I
69.0,1.0,1.0,0.0,4.0,4.0,467.9287318140268,2.0,1.0,part_1,,,,,,,,,,,,,white,I
58.0,5.0,1.0,1.0,2.0,2.0,211.1426368355751,2.0,2.0,part_1,,,,,,,,,,,,,gray,circle
76.0,6.0,2.0,1.0,3.0,3.0,390.8775560557842,2.0,1.0,part_1,,,,,,,,,,,,,cyan,cross
213.0,3.0,3.0,0.0,3.0,3.0,405.5324830114841,2.0,1.0,part_1,,,,,,,,,,,,,blue,hexagon
0.0,1.0,0.0,0.0,1.0,1.0,360.7370518147945,2.0,1.0,part_1,,,,,,,,,,,,,white,I
387.0,4.0,4.0,0.0,1.0,1.0,297.8916969150305,2.0,2.0,part_1,,,,,,,,,,,,,magenta,diamond
105.0,2.0,2.0,0.0,3.0,3.0,418.1499686092138,2.0,1.0,part_1,,,,,,,,,,,,,orange,triangle
74.0,1.0,1.0,0.0,1.0,1.0,363.3748274296522,2.0,1.0,part_1,,,,,,,,,,,,,white,I
47.0,1.0,1.0,0.0,3.0,3.0,362.061358988285,2.0,1.0,part_1,,,,,,,,,,,,,white,I
28.0,1.0,1.0,0.0,3.0,3.0,366.6882682591676,2.0,1.0,part_1,,,,,,,,,,,,,white,I
35.0,1.0,1.0,0.0,2.0,2.0,348.3092878013849,2.0,1.0,part_1,,,,,,,,,,,,,white,I
405.0,4.0,4.0,0.0,1.0,1.0,417.4271430820226,2.0,1.0,part_1,,,,,,,,,,,,,magenta,diamond
0.0,5.0,0.0,1.0,3.0,3.0,403.894405812025,2.0,1.0,part_1,,,,,,,,,,,,,gray,circle
53.0,1.0,1.0,0.0,4.0,4.0,554.7323171049356,2.0,1.0,part_1,,,,,,,,,,,,,white,I
109.0,2.0,2.0,0.0,2.0,2.0,437.3089801520109,2.0,1.0,part_1,,,,,,,,,,,,,orange,triangle
393.0,8.0,4.0,1.0,1.0,1.0,458.825334906578,2.0,1.0,part_1,,,,,,,,,,,,,yellow,flipped triangle
0.0,2.0,0.0,0.0,3.0,3.0,384.6964351832866,2.0,1.0,part_1,,,,,,,,,,,,,orange,triangle
0.0,1.0,0.0,0.0,3.0,3.0,346.330277621746,2.0,1.0,part_1,,,,,,,,,,,,,white,I
0.0,8.0,0.0,1.0,4.0,4.0,382.9325959086418,2.0,1.0,part_1,,,,,,,,,,,,,yellow,flipped triangle
93.0,6.0,2.0,1.0,1.0,1.0,435.2166671305895,2.0,1.0,part_1,,,,,,,,,,,,,cyan,cross
401.0,8.0,4.0,1.0,3.0,3.0,371.0832595825195,2.0,1.0,part_1,,,,,,,,,,,,,yellow,flipped triangle
205.0,3.0,3.0,0.0,2.0,2.0,389.2525602132082,2.0,1.0,part_1,,,,,,,,,,,,,blue,hexagon
214.0,7.0,3.0,1.0,2.0,2.0,377.4711322039366,2.0,1.0,part_1,,,,,,,,,,,,,green,square
0.0,7.0,0.0,1.0,4.0,4.0,382.0538204163313,2.0,1.0,part_1,,,,,,,,,,,,,green,square
185.0,3.0,3.0,0.0,3.0,3.0,396.694915369153,2.0,1.0,part_1,,,,,,,,,,,,,blue,hexagon
180.0,7.0,3.0,1.0,1.0,1.0,359.604312106967,2.0,1.0,part_1,,,,,,,,,,,,,green,square
376.0,4.0,4.0,0.0,4.0,4.0,533.9369028806686,2.0,1.0,part_1,,,,,,,,,,,,,magenta,diamond
394.0,4.0,4.0,0.0,3.0,3.0,385.1378038525581,2.0,1.0,part_1,,,,,,,,,,,,,magenta,diamond
45.0,1.0,1.0,0.0,1.0,1.0,366.5178250521421,2.0,1.0,part_1,,,,,,,,,,,,,white,I
94.0,2.0,2.0,0.0,3.0,3.0,378.4545678645372,2.0,1.0,part_1,,,,,,,,,,,,,orange,triangle
378.0,8.0,4.0,1.0,2.0,2.0,360.8780801296234,2.0,1.0,part_1,,,,,,,,,,,,,yellow,flipped triangle
0.0,4.0,0.0,0.0,2.0,2.0,310.9138160943985,2.0,1.0,part_1,,,,,,,,,,,,,magenta,diamond
184.0,3.0,3.0,0.0,2.0,2.0,386.2173613160848,2.0,1.0,part_1,,,,,,,,,,,,,blue,hexagon
213.0,7.0,3.0,1.0,3.0,3.0,392.9727487266063,2.0,1.0,part_1,,,,,,,,,,,,,green,square
424.0,4.0,4.0,0.0,3.0,3.0,385.552491992712,2.0,1.0,part_1,,,,,,,,,,,,,magenta,diamond
0.0,4.0,0.0,0.0,3.0,3.0,399.1543054580688,2.0,1.0,part_1,,,,,,,,,,,,,magenta,diamond
199.0,7.0,3.0,1.0,1.0,1.0,471.3227190077305,3.0,1.0,part_1,,,,,,,,,,,,,green,square
53.0,5.0,1.0,1.0,3.0,3.0,339.0894848853349,3.0,1.0,part_1,,,,,,,,,,,,,gray,circle
0.0,6.0,0.0,1.0,3.0,3.0,394.8322329670191,3.0,1.0,part_1,,,,,,,,,,,,,cyan,cross
217.0,7.0,3.0,1.0,4.0,4.0,463.9668278396129,3.0,1.0,part_1,,,,,,,,,,,,,green,square
109.0,2.0,2.0,0.0,4.0,4.0,425.1113478094339,3.0,1.0,part_1,,,,,,,,,,,,,orange,triangle
0.0,7.0,0.0,1.0,4.0,4.0,392.6662374287843,3.0,1.0,part_1,,,,,,,,,,,,,green,square
105.0,2.0,2.0,0.0,1.0,1.0,317.726619541645,3.0,1.0,part_1,,,,,,,,,,,,,orange,triangle
74.0,1.0,1.0,0.0,3.0,3.0,295.5214474350214,3.0,1.0,part_1,,,,,,,,,,,,,white,I
387.0,4.0,4.0,0.0,3.0,3.0,458.9702859520912,3.0,2.0,part_1,,,,,,,,,,,,,magenta,diamond
223.0,7.0,3.0,1.0,3.0,3.0,399.2600124329328,3.0,1.0,part_1,,,,,,,,,,,,,green,square
0.0,5.0,0.0,1.0,1.0,1.0,436.655480414629,3.0,1.0,part_1,,,,,,,,,,,,,gray,circle
0.0,7.0,0.0,1.0,4.0,4.0,546.6208010911942,3.0,1.0,part_1,,,,,,,,,,,,,green,square
414.0,4.0,4.0,0.0,2.0,2.0,470.8405584096908,3.0,1.0,part_1,,,,,,,,,,,,,magenta,diamond
29.0,1.0,1.0,0.0,4.0,4.0,345.6717226654291,3.0,1.0,part_1,,,,,,,,,,,,,white,I
406.0,8.0,4.0,1.0,4.0,4.0,478.9976440370083,3.0,1.0,part_1,,,,,,,,,,,,,yellow,flipped triangle
410.0,8.0,4.0,1.0,2.0,2.0,362.2814007103443,3.0,1.0,part_1,,,,,,,,,,,,,yellow,flipped triangle
79.0,6.0,2.0,1.0,4.0,4.0,350.0700686126947,3.0,1.0,part_1,,,,,,,,,,,,,cyan,cross
0.0,1.0,0.0,0.0,2.0,2.0,557.3510881513357,3.0,1.0,part_1,,,,,,,,,,,,,white,I
408.0,8.0,4.0,1.0,4.0,4.0,338.0133621394634,3.0,1.0,part_1,,,,,,,,,,,,,yellow,flipped triangle
86.0,2.0,2.0,0.0,3.0,3.0,293.7756422907114,3.0,1.0,part_1,,,,,,,,,,,,,orange,triangle
51.0,5.0,1.0,1.0,1.0,1.0,268.516581505537,3.0,1.0,part_1,,,,,,,,,,,,,gray,circle
221.0,3.0,3.0,0.0,3.0,3.0,353.9749048650265,3.0,1.0,part_1,,,,,,,,,,,,,blue,hexagon
186.0,7.0,3.0,1.0,4.0,4.0,402.3350030183792,3.0,1.0,part_1,,,,,,,,,,,,,green,square
0.0,3.0,0.0,0.0,3.0,3.0,369.2558668553829,3.0,1.0,part_1,,,,,,,,,,,,,blue,hexagon
120.0,6.0,2.0,1.0,1.0,1.0,373.6819438636303,3.0,1.0,part_1,,,,,,,,,,,,,cyan,cross
0.0,1.0,0.0,0.0,2.0,2.0,352.2729389369488,3.0,1.0,part_1,,,,,,,,,,,,,white,I
393.0,4.0,4.0,0.0,1.0,1.0,454.4262140989303,3.0,1.0,part_1,,,,,,,,,,,,,magenta,diamond
0.0,2.0,0.0,0.0,4.0,4.0,370.3803606331348,3.0,1.0,part_1,,,,,,,,,,,,,orange,triangle
218.0,3.0,3.0,0.0,1.0,1.0,410.0071843713522,3.0,1.0,part_1,,,,,,,,,,,,,blue,hexagon
70.0,5.0,1.0,1.0,3.0,3.0,485.0450102239847,3.0,1.0,part_1,,,,,,,,,,,,,gray,circle
0.0,5.0,0.0,1.0,2.0,2.0,418.3206353336572,3.0,1.0,part_1,,,,,,,,,,,,,gray,circle
0.0,3.0,0.0,0.0,2.0,2.0,398.3270805329084,3.0,1.0,part_1,,,,,,,,,,,,,blue,hexagon
383.0,8.0,4.0,1.0,4.0,4.0,420.6184092909097,3.0,1.0,part_1,,,,,,,,,,,,,yellow,flipped triangle
379.0,4.0,4.0,0.0,1.0,1.0,432.8708760440349,3.0,1.0,part_1,,,,,,,,,,,,,magenta,diamond
0.0,4.0,0.0,0.0,1.0,1.0,434.6499741077423,3.0,1.0,part_1,,,,,,,,,,,,,magenta,diamond
207.0,7.0,3.0,1.0,2.0,2.0,552.0648155361414,3.0,1.0,part_1,,,,,,,,,,,,,green,square
43.0,1.0,1.0,0.0,2.0,2.0,366.741107776761,3.0,1.0,part_1,,,,,,,,,,,,,white,I
30.0,1.0,1.0,0.0,1.0,1.0,419.6044970303774,3.0,1.0,part_1,,,,,,,,,,,,,white,I
38.0,5.0,1.0,1.0,4.0,4.0,447.1999239176512,3.0,1.0,part_1,,,,,,,,,,,,,gray,circle
207.0,7.0,3.0,1.0,3.0,3.0,490.8520244061947,3.0,1.0,part_1,,,,,,,,,,,,,green,square
176.0,7.0,3.0,1.0,3.0,3.0,432.6045792549848,3.0,1.0,part_1,,,,,,,,,,,,,green,square
122.0,2.0,2.0,0.0,1.0,1.0,653.3975023776293,3.0,1.0,part_1,,,,,,,,,,,,,orange,triangle
103.0,2.0,2.0,0.0,1.0,1.0,474.8507719486952,3.0,1.0,part_1,,,,,,,,,,,,,orange,triangle
77.0,2.0,2.0,0.0,3.0,3.0,358.0445162951946,3.0,1.0,part_1,,,,,,,,,,,,,orange,triangle
0.0,5.0,0.0,1.0,2.0,2.0,393.6557620763778,3.0,1.0,part_1,,,,,,,,,,,,,gray,circle
0.0,7.0,0.0,1.0,3.0,3.0,362.5259213149547,3.0,2.0,part_1,,,,,,,,,,,,,green,square
93.0,2.0,2.0,0.0,4.0,4.0,459.601217880845,3.0,1.0,part_1,,,,,,,,,,,,,orange,triangle
35.0,5.0,1.0,1.0,4.0,4.0,511.49010471999645,3.0,1.0,part_1,,,,,,,,,,,,,gray,circle
0.0,5.0,0.0,1.0,2.0,2.0,402.7556758373976,3.0,1.0,part_1,,,,,,,,,,,,,gray,circle
94.0,6.0,2.0,1.0,2.0,2.0,413.7871228158474,3.0,1.0,part_1,,,,,,,,,,,,,cyan,cross
180.0,3.0,3.0,0.0,2.0,2.0,364.0425894409418,3.0,1.0,part_1,,,,,,,,,,,,,blue,hexagon
43.0,5.0,1.0,1.0,4.0,4.0,411.7464739829302,3.0,1.0,part_1,,,,,,,,,,,,,gray,circle
423.0,4.0,4.0,0.0,4.0,4.0,431.6452275961637,3.0,1.0,part_1,,,,,,,,,,,,,magenta,diamond
49.0,1.0,1.0,0.0,1.0,1.0,426.6955517232418,3.0,1.0,part_1,,,,,,,,,,,,,white,I
218.0,3.0,3.0,0.0,3.0,3.0,368.2156093418598,3.0,1.0,part_1,,,,,,,,,,,,,blue,hexagon
119.0,6.0,2.0,1.0,4.0,4.0,323.7621560692787,3.0,1.0,part_1,,,,,,,,,,,,,cyan,cross
401.0,4.0,4.0,0.0,2.0,2.0,384.1640334576368,3.0,1.0,part_1,,,,,,,,,,,,,magenta,diamond
200.0,3.0,3.0,0.0,4.0,4.0,407.0927388966083,3.0,1.0,part_1,,,,,,,,,,,,,blue,hexagon
0.0,8.0,0.0,1.0,2.0,2.0,424.3192002177238,3.0,1.0,part_1,,,,,,,,,,,,,yellow,flipped triangle
0.0,3.0,0.0,0.0,3.0,3.0,360.3153750300407,3.0,1.0,part_1,,,,,,,,,,,,,blue,hexagon
401.0,4.0,4.0,0.0,2.0,2.0,409.9098686128855,3.0,1.0,part_1,,,,,,,,,,,,,magenta,diamond
0.0,6.0,0.0,1.0,4.0,4.0,345.6814121454954,3.0,1.0,part_1,,,,,,,,,,,,,cyan,cross
382.0,8.0,4.0,1.0,4.0,4.0,346.3023118674755,3.0,1.0,part_1,,,,,,,,,,,,,yellow,flipped triangle
29.0,5.0,1.0,1.0,1.0,1.0,447.54275865852827,3.0,1.0,part_1,,,,,,,,,,,,,gray,circle
110.0,2.0,2.0,0.0,4.0,4.0,526.8647149205208,3.0,1.0,part_1,,,,,,,,,,,,,orange,triangle
25.0,1.0,1.0,0.0,1.0,1.0,418.2687252759933,3.0,1.0,part_1,,,,,,,,,,,,,white,I
0.0,3.0,0.0,0.0,3.0,3.0,342.392398044467,3.0,1.0,part_1,,,,,,,,,,,,,blue,hexagon
377.0,4.0,4.0,0.0,4.0,4.0,468.9848981797695,3.0,1.0,part_1,,,,,,,,,,,,,magenta,diamond
0.0,8.0,0.0,1.0,1.0,1.0,359.252093359828,3.0,1.0,part_1,,,,,,,,,,,,,yellow,flipped triangle
0.0,3.0,0.0,0.0,3.0,3.0,301.5829771757126,3.0,1.0,part_1,,,,,,,,,,,,,blue,hexagon
401.0,8.0,4.0,1.0,2.0,2.0,362.9423547536134,3.0,1.0,part_1,,,,,,,,,,,,,yellow,flipped triangle
77.0,6.0,2.0,1.0,3.0,3.0,295.0363364070654,3.0,1.0,part_1,,,,,,,,,,,,,cyan,cross
200.0,3.0,3.0,0.0,2.0,2.0,340.1322644203901,3.0,1.0,part_1,,,,,,,,,,,,,blue,hexagon
380.0,4.0,4.0,0.0,1.0,1.0,369.3180847913027,3.0,1.0,part_1,,,,,,,,,,,,,magenta,diamond
36.0,5.0,1.0,1.0,3.0,3.0,740.9794945269823,3.0,1.0,part_1,,,,,,,,,,,,,gray,circle
0.0,7.0,0.0,1.0,3.0,3.0,402.8602056205272,3.0,1.0,part_1,,,,,,,,,,,,,green,square
401.0,8.0,4.0,1.0,2.0,2.0,372.0242772251367,3.0,1.0,part_1,,,,,,,,,,,,,yellow,flipped triangle
94.0,6.0,2.0,1.0,2.0,2.0,352.5876030325889,3.0,1.0,part_1,,,,,,,,,,,,,cyan,cross
397.0,8.0,4.0,1.0,2.0,2.0,455.3936086595058,3.0,1.0,part_1,,,,,,,,,,,,,yellow,flipped triangle
199.0,3.0,3.0,0.0,2.0,2.0,490.5981812626123,3.0,1.0,part_1,,,,,,,,,,,,,blue,hexagon
412.0,4.0,4.0,0.0,4.0,4.0,417.998606339097,3.0,1.0,part_1,,,,,,,,,,,,,magenta,diamond
415.0,4.0,4.0,0.0,3.0,3.0,299.3505522608757,3.0,1.0,part_1,,,,,,,,,,,,,magenta,diamond
65.0,1.0,1.0,0.0,4.0,4.0,408.1441294401884,3.0,1.0,part_1,,,,,,,,,,,,,white,I
104.0,6.0,2.0,1.0,2.0,2.0,360.4004438966512,3.0,1.0,part_1,,,,,,,,,,,,,cyan,cross
0.0,1.0,0.0,0.0,2.0,2.0,379.477608948946,3.0,1.0,part_1,,,,,,,,,,,,,white,I
0.0,7.0,0.0,1.0,4.0,4.0,330.2546050399542,3.0,1.0,part_1,,,,,,,,,,,,,green,square
63.0,1.0,1.0,0.0,1.0,1.0,365.1179186999798,3.0,1.0,part_1,,,,,,,,,,,,,white,I
0.0,4.0,0.0,0.0,3.0,3.0,354.842759668827,3.0,1.0,part_1,,,,,,,,,,,,,magenta,diamond
109.0,6.0,2.0,1.0,3.0,3.0,348.7401138991117,3.0,1.0,part_1,,,,,,,,,,,,,cyan,cross
200.0,7.0,3.0,1.0,3.0,3.0,371.2110910564661,3.0,1.0,part_1,,,,,,,,,,,,,green,square
61.0,1.0,1.0,0.0,4.0,4.0,360.8056530356407,3.0,1.0,part_1,,,,,,,,,,,,,white,I
49.0,5.0,1.0,1.0,4.0,4.0,438.1008297204971,3.0,1.0,part_1,,,,,,,,,,,,,gray,circle
221.0,3.0,3.0,0.0,4.0,4.0,455.3272146731615,3.0,1.0,part_1,,,,,,,,,,,,,blue,hexagon
205.0,7.0,3.0,1.0,1.0,1.0,329.3428942561149,3.0,2.0,part_1,,,,,,,,,,,,,green,square
379.0,8.0,4.0,1.0,2.0,2.0,349.6180679649114,3.0,1.0,part_1,,,,,,,,,,,,,yellow,flipped triangle
418.0,8.0,4.0,1.0,4.0,4.0,357.9703718423843,3.0,1.0,part_1,,,,,,,,,,,,,yellow,flipped triangle
0.0,4.0,0.0,0.0,2.0,2.0,391.4675284177065,3.0,1.0,part_1,,,,,,,,,,,,,magenta,diamond
0.0,5.0,0.0,1.0,1.0,1.0,390.8968549221754,3.0,1.0,part_1,,,,,,,,,,,,,gray,circle
220.0,3.0,3.0,0.0,1.0,1.0,448.5879763960838,3.0,1.0,part_1,,,,,,,,,,,,,blue,hexagon
49.0,1.0,1.0,0.0,2.0,2.0,437.6426003873348,3.0,1.0,part_1,,,,,,,,,,,,,white,I
421.0,4.0,4.0,0.0,3.0,3.0,540.8336333930492,4.0,1.0,part_1,,,,,,,,,,,,,magenta,diamond
200.0,7.0,3.0,1.0,2.0,2.0,524.0402985364199,4.0,1.0,part_1,,,,,,,,,,,,,green,square
34.0,5.0,1.0,1.0,1.0,1.0,437.6410786062479,4.0,1.0,part_1,,,,,,,,,,,,,gray,circle
67.0,1.0,1.0,0.0,3.0,3.0,338.5074194520712,4.0,1.0,part_1,,,,,,,,,,,,,white,I
54.0,5.0,1.0,1.0,3.0,3.0,360.0396700203419,4.0,1.0,part_1,,,,,,,,,,,,,gray,circle
0.0,7.0,0.0,1.0,3.0,3.0,299.9891992658376,4.0,1.0,part_1,,,,,,,,,,,,,green,square
118.0,2.0,2.0,0.0,3.0,3.0,312.4654442071914,4.0,1.0,part_1,,,,,,,,,,,,,orange,triangle
415.0,4.0,4.0,0.0,2.0,2.0,357.4611004441976,4.0,1.0,part_1,,,,,,,,,,,,,magenta,diamond
25.0,5.0,1.0,1.0,2.0,2.0,481.948709115386,4.0,1.0,part_1,,,,,,,,,,,,,gray,circle
379.0,4.0,4.0,0.0,4.0,4.0,305.2485827356577,4.0,1.0,part_1,,,,,,,,,,,,,magenta,diamond
85.0,6.0,2.0,1.0,4.0,4.0,389.0471067279577,4.0,1.0,part_1,,,,,,,,,,,,,cyan,cross
0.0,8.0,0.0,1.0,4.0,4.0,337.1623419225216,4.0,1.0,part_1,,,,,,,,,,,,,yellow,flipped triangle
117.0,2.0,2.0,0.0,1.0,1.0,415.5420958995819,4.0,1.0,part_1,,,,,,,,,,,,,orange,triangle
55.0,5.0,1.0,1.0,4.0,4.0,394.0605875104666,4.0,1.0,part_1,,,,,,,,,,,,,gray,circle
395.0,4.0,4.0,0.0,4.0,4.0,433.1547766923904,4.0,1.0,part_1,,,,,,,,,,,,,magenta,diamond
0.0,5.0,0.0,1.0,3.0,3.0,357.7196486294269,4.0,1.0,part_1,,,,,,,,,,,,,gray,circle
105.0,6.0,2.0,1.0,1.0,1.0,378.5737995058298,4.0,1.0,part_1,,,,,,,,,,,,,cyan,cross
176.0,3.0,3.0,0.0,2.0,2.0,421.6141197830438,4.0,1.0,part_1,,,,,,,,,,,,,blue,hexagon
118.0,6.0,2.0,1.0,1.0,1.0,336.624663323164,4.0,1.0,part_1,,,,,,,,,,,,,cyan,cross
415.0,8.0,4.0,1.0,3.0,3.0,397.4880054593086,4.0,1.0,part_1,,,,,,,,,,,,,yellow,flipped triangle
198.0,3.0,3.0,0.0,2.0,2.0,386.7741487920284,4.0,1.0,part_1,,,,,,,,,,,,,blue,hexagon
194.0,3.0,3.0,0.0,3.0,3.0,447.4002514034509,4.0,1.0,part_1,,,,,,,,,,,,,blue,hexagon
124.0,6.0,2.0,1.0,3.0,3.0,340.693712234497,4.0,1.0,part_1,,,,,,,,,,,,,cyan,cross
99.0,2.0,2.0,0.0,4.0,4.0,323.7358387559652,4.0,1.0,part_1,,,,,,,,,,,,,orange,triangle
391.0,4.0,4.0,0.0,2.0,2.0,390.2605921030044,4.0,1.0,part_1,,,,,,,,,,,,,magenta,diamond
50.0,5.0,1.0,1.0,2.0,2.0,377.7498267590999,4.0,1.0,part_1,,,,,,,,,,,,,gray,circle
176.0,7.0,3.0,1.0,3.0,3.0,312.9246067255735,4.0,1.0,part_1,,,,,,,,,,,,,green,square
124.0,6.0,2.0,1.0,4.0,4.0,325.6214465945959,4.0,1.0,part_1,,,,,,,,,,,,,cyan,cross
98.0,6.0,2.0,1.0,1.0,1.0,410.783426836133,4.0,1.0,part_1,,,,,,,,,,,,,cyan,cross
101.0,2.0,2.0,0.0,1.0,1.0,518.9596861600876,4.0,1.0,part_1,,,,,,,,,,,,,orange,triangle
203.0,3.0,3.0,0.0,1.0,1.0,380.2111968398094,4.0,1.0,part_1,,,,,,,,,,,,,blue,hexagon
203.0,7.0,3.0,1.0,4.0,4.0,478.6914866417646,4.0,1.0,part_1,,,,,,,,,,,,,green,square
184.0,7.0,3.0,1.0,3.0,3.0,396.6564051806927,4.0,1.0,part_1,,,,,,,,,,,,,green,square
223.0,3.0,3.0,0.0,4.0,4.0,361.6862297058105,4.0,1.0,part_1,,,,,,,,,,,,,blue,hexagon
382.0,4.0,4.0,0.0,4.0,4.0,358.8170185685158,4.0,1.0,part_1,,,,,,,,,,,,,magenta,diamond
179.0,7.0,3.0,1.0,2.0,2.0,420.2351439744234,4.0,1.0,part_1,,,,,,,,,,,,,green,square
117.0,2.0,2.0,0.0,4.0,4.0,353.2738983631134,4.0,1.0,part_1,,,,,,,,,,,,,orange,triangle
61.0,1.0,1.0,0.0,4.0,4.0,372.7389797568321,4.0,1.0,part_1,,,,,,,,,,,,,white,I
28.0,5.0,1.0,1.0,1.0,1.0,696.6514512896538,4.0,1.0,part_1,,,,,,,,,,,,,gray,circle
210.0,3.0,3.0,0.0,1.0,1.0,403.3705368638038,4.0,1.0,part_1,,,,,,,,,,,,,blue,hexagon
55.0,1.0,1.0,0.0,4.0,4.0,409.1380853205919,4.0,1.0,part_1,,,,,,,,,,,,,white,I
38.0,1.0,1.0,0.0,2.0,2.0,446.7980675399303,4.0,1.0,part_1,,,,,,,,,,,,,white,I
410.0,8.0,4.0,1.0,3.0,3.0,338.5741729289293,4.0,1.0,part_1,,,,,,,,,,,,,yellow,flipped triangle
0.0,6.0,0.0,1.0,2.0,2.0,406.8371634930372,4.0,1.0,part_1,,,,,,,,,,,,,cyan,cross
425.0,8.0,4.0,1.0,4.0,4.0,508.60984809696674,4.0,1.0,part_1,,,,,,,,,,,,,yellow,flipped triangle
61.0,5.0,1.0,1.0,3.0,3.0,369.2656047642231,4.0,1.0,part_1,,,,,,,,,,,,,gray,circle
76.0,2.0,2.0,0.0,4.0,4.0,468.057258054614,4.0,1.0,part_1,,,,,,,,,,,,,orange,triangle
56.0,1.0,1.0,0.0,2.0,2.0,427.9446899890899,4.0,1.0,part_1,,,,,,,,,,,,,white,I
117.0,6.0,2.0,1.0,4.0,4.0,336.5373369306326,4.0,1.0,part_1,,,,,,,,,,,,,cyan,cross
188.0,7.0,3.0,1.0,2.0,2.0,401.8758125603199,4.0,1.0,part_1,,,,,,,,,,,,,green,square
86.0,6.0,2.0,1.0,2.0,2.0,425.7518295198679,4.0,1.0,part_1,,,,,,,,,,,,,cyan,cross
78.0,6.0,2.0,1.0,1.0,1.0,669.2994218319654,4.0,1.0,part_1,,,,,,,,,,,,,cyan,cross
111.0,2.0,2.0,0.0,4.0,4.0,824.2566417902708,4.0,1.0,part_1,,,,,,,,,,,,,orange,triangle
124.0,2.0,2.0,0.0,1.0,1.0,558.797774836421,4.0,1.0,part_1,,,,,,,,,,,,,orange,triangle
79.0,2.0,2.0,0.0,2.0,2.0,402.4935998022556,4.0,1.0,part_1,,,,,,,,,,,,,orange,triangle
112.0,2.0,2.0,0.0,2.0,2.0,390.3702665120363,4.0,1.0,part_1,,,,,,,,,,,,,orange,triangle
0.0,8.0,0.0,1.0,4.0,4.0,382.5527299195528,4.0,1.0,part_1,,,,,,,,,,,,,yellow,flipped triangle
34.0,5.0,1.0,1.0,3.0,3.0,379.0434449911117,4.0,1.0,part_1,,,,,,,,,,,,,gray,circle
111.0,6.0,2.0,1.0,2.0,2.0,396.8377038836479,4.0,1.0,part_1,,,,,,,,,,,,,cyan,cross
87.0,6.0,2.0,1.0,4.0,4.0,425.962308421731,4.0,1.0,part_1,,,,,,,,,,,,,cyan,cross
410.0,4.0,4.0,0.0,1.0,1.0,486.6034872829914,4.0,1.0,part_1,,,,,,,,,,,,,magenta,diamond
27.0,1.0,1.0,0.0,3.0,3.0,356.8420968949795,4.0,1.0,part_1,,,,,,,,,,,,,white,I
221.0,7.0,3.0,1.0,1.0,1.0,443.0423025041818,4.0,1.0,part_1,,,,,,,,,,,,,green,square
0.0,2.0,0.0,0.0,3.0,3.0,363.857502117753,4.0,1.0,part_1,,,,,,,,,,,,,orange,triangle
378.0,4.0,4.0,0.0,3.0,3.0,482.9231780022383,4.0,1.0,part_1,,,,,,,,,,,,,magenta,diamond
45.0,5.0,1.0,1.0,2.0,2.0,453.3314760774374,4.0,1.0,part_1,,,,,,,,,,,,,gray,circle
415.0,8.0,4.0,1.0,3.0,3.0,325.7203325629234,4.0,1.0,part_1,,,,,,,,,,,,,yellow,flipped triangle
394.0,8.0,4.0,1.0,1.0,1.0,520.4646456986666,4.0,1.0,part_1,,,,,,,,,,,,,yellow,flipped triangle
380.0,8.0,4.0,1.0,1.0,1.0,507.45975598692894,4.0,1.0,part_1,,,,,,,,,,,,,yellow,flipped triangle
181.0,3.0,3.0,0.0,1.0,1.0,386.858744546771,4.0,1.0,part_1,,,,,,,,,,,,,blue,hexagon
98.0,2.0,2.0,0.0,2.0,2.0,414.8727674037218,4.0,1.0,part_1,,,,,,,,,,,,,orange,triangle
0.0,4.0,0.0,0.0,3.0,3.0,394.5163264870643,4.0,1.0,part_1,,,,,,,,,,,,,magenta,diamond
393.0,8.0,4.0,1.0,4.0,4.0,389.8184671998024,4.0,1.0,part_1,,,,,,,,,,,,,yellow,flipped triangle
220.0,7.0,3.0,1.0,1.0,1.0,387.1405012905597,4.0,1.0,part_1,,,,,,,,,,,,,green,square
31.0,5.0,1.0,1.0,3.0,3.0,503.77628579735756,4.0,1.0,part_1,,,,,,,,,,,,,gray,circle
109.0,6.0,2.0,1.0,4.0,4.0,548.4573114663363,4.0,1.0,part_1,,,,,,,,,,,,,cyan,cross
181.0,7.0,3.0,1.0,3.0,3.0,344.9645359069109,4.0,1.0,part_1,,,,,,,,,,,,,green,square
213.0,3.0,3.0,0.0,2.0,2.0,527.7730952948332,4.0,1.0,part_1,,,,,,,,,,,,,blue,hexagon
103.0,6.0,2.0,1.0,1.0,1.0,396.7484775930643,4.0,1.0,part_1,,,,,,,,,,,,,cyan,cross
78.0,6.0,2.0,1.0,3.0,3.0,377.7210284024477,4.0,1.0,part_1,,,,,,,,,,,,,cyan,cross
421.0,8.0,4.0,1.0,3.0,3.0,436.3641832023859,4.0,1.0,part_1,,,,,,,,,,,,,yellow,flipped triangle
0.0,6.0,0.0,1.0,1.0,1.0,507.1677826344967,4.0,1.0,part_1,,,,,,,,,,,,,cyan,cross
199.0,3.0,3.0,0.0,2.0,2.0,412.8364622592926,4.0,1.0,part_1,,,,,,,,,,,,,blue,hexagon
69.0,5.0,1.0,1.0,3.0,3.0,468.0432379245758,4.0,1.0,part_1,,,,,,,,,,,,,gray,circle
78.0,2.0,2.0,0.0,4.0,4.0,448.689030483365,4.0,1.0,part_1,,,,,,,,,,,,,orange,triangle
87.0,2.0,2.0,0.0,2.0,2.0,386.5435440093279,4.0,1.0,part_1,,,,,,,,,,,,,orange,triangle
47.0,5.0,1.0,1.0,4.0,4.0,419.3031713366508,4.0,1.0,part_1,,,,,,,,,,,,,gray,circle
425.0,4.0,4.0,0.0,1.0,1.0,479.1995007544756,4.0,1.0,part_1,,,,,,,,,,,,,magenta,diamond
377.0,8.0,4.0,1.0,1.0,1.0,440.6603910028934,4.0,1.0,part_1,,,,,,,,,,,,,yellow,flipped triangle
74.0,5.0,1.0,1.0,2.0,2.0,376.8050819635391,4.0,1.0,part_1,,,,,,,,,,,,,gray,circle
56.0,5.0,1.0,1.0,4.0,4.0,434.5961604267359,4.0,1.0,part_1,,,,,,,,,,,,,gray,circle
187.0,7.0,3.0,1.0,3.0,3.0,459.3411572277546,4.0,1.0,part_1,,,,,,,,,,,,,green,square
406.0,4.0,4.0,0.0,3.0,3.0,348.5458958894014,4.0,1.0,part_1,,,,,,,,,,,,,magenta,diamond
183.0,3.0,3.0,0.0,4.0,4.0,451.3664525002241,4.0,1.0,part_1,,,,,,,,,,,,,blue,hexagon
408.0,4.0,4.0,0.0,4.0,4.0,408.0618191510439,4.0,1.0,part_1,,,,,,,,,,,,,magenta,diamond
82.0,2.0,2.0,0.0,2.0,2.0,371.1010906845331,4.0,1.0,part_1,,,,,,,,,,,,,orange,triangle
412.0,8.0,4.0,1.0,3.0,3.0,346.0062090307474,4.0,1.0,part_1,,,,,,,,,,,,,yellow,flipped triangle
99.0,6.0,2.0,1.0,3.0,3.0,340.8445883542299,4.0,1.0,part_1,,,,,,,,,,,,,cyan,cross
414.0,8.0,4.0,1.0,2.0,2.0,431.2975388020277,4.0,1.0,part_1,,,,,,,,,,,,,yellow,flipped triangle
89.0,6.0,2.0,1.0,1.0,1.0,381.2707643955946,4.0,1.0,part_1,,,,,,,,,,,,,cyan,cross
0.0,8.0,4.0,1.0,5.0,5.0,732.2863694280386,1.0,0.0,part_2,stop,250.0,250.0,3.0,,,,,,,,,yellow,flipped triangle
0.0,8.0,4.0,1.0,6.0,6.0,310.67905575037,1.0,0.0,part_2,stop,200.0,250.0,3.0,,,,,,,,,yellow,flipped triangle
0.0,6.0,2.0,1.0,5.0,5.0,294.7508487850427,1.0,0.0,part_2,stop,200.0,200.0,3.0,,,,,,,,,cyan,cross
0.0,2.0,2.0,0.0,5.0,5.0,387.4009884893894,1.0,0.0,part_2,go,150.0,200.0,1.0,,,,,,,,,orange,triangle
0.0,8.0,4.0,1.0,6.0,6.0,347.6900812238455,1.0,0.0,part_2,go,150.0,200.0,1.0,,,,,,,,,yellow,flipped triangle
0.0,4.0,4.0,0.0,5.0,5.0,370.6287685781717,1.0,0.0,part_2,go,150.0,200.0,1.0,,,,,,,,,magenta,diamond
0.0,1.0,1.0,0.0,5.0,5.0,505.61985187232494,1.0,0.0,part_2,go,150.0,200.0,1.0,,,,,,,,,white,I
0.0,2.0,2.0,0.0,6.0,6.0,337.046829983592,1.0,0.0,part_2,go,150.0,200.0,1.0,,,,,,,,,orange,triangle
0.0,6.0,2.0,1.0,6.0,6.0,359.8053175956011,1.0,0.0,part_2,stop,150.0,200.0,3.0,,,,,,,,,cyan,cross
0.0,8.0,4.0,1.0,6.0,0.0,0.0,1.0,0.0,part_2,stop,150.0,150.0,4.0,,,,,,,,,yellow,flipped triangle
0.0,8.0,4.0,1.0,5.0,5.0,287.1557716280222,1.0,0.0,part_2,stop,150.0,200.0,3.0,,,,,,,,,yellow,flipped triangle
0.0,4.0,4.0,0.0,5.0,5.0,344.0941199660301,1.0,0.0,part_2,go,100.0,200.0,1.0,,,,,,,,,magenta,diamond
0.0,3.0,3.0,0.0,5.0,5.0,400.4702996462583,1.0,0.0,part_2,go,100.0,200.0,1.0,,,,,,,,,blue,hexagon
0.0,6.0,2.0,1.0,6.0,6.0,286.3160762935877,1.0,0.0,part_2,stop,100.0,200.0,3.0,,,,,,,,,cyan,cross
0.0,7.0,3.0,1.0,6.0,0.0,0.0,1.0,0.0,part_2,stop,100.0,150.0,4.0,,,,,,,,,green,square
0.0,3.0,3.0,0.0,5.0,5.0,269.0168991684913,1.0,0.0,part_2,go,100.0,200.0,1.0,,,,,,,,,blue,hexagon
0.0,7.0,3.0,1.0,5.0,5.0,317.0566465705633,1.0,0.0,part_2,stop,100.0,200.0,3.0,,,,,,,,,green,square
0.0,8.0,4.0,1.0,6.0,0.0,0.0,1.0,0.0,part_2,stop,50.0,200.0,4.0,,,,,,,,,yellow,flipped triangle
0.0,5.0,1.0,1.0,6.0,6.0,444.1071916371584,1.0,0.0,part_2,go,50.0,250.0,1.0,,,,,,,,,gray,circle
0.0,4.0,4.0,0.0,5.0,5.0,282.8044630587101,1.0,0.0,part_2,go,50.0,250.0,1.0,,,,,,,,,magenta,diamond
0.0,5.0,1.0,1.0,5.0,0.0,0.0,1.0,0.0,part_2,stop,50.0,250.0,4.0,,,,,,,,,gray,circle
0.0,6.0,2.0,1.0,5.0,0.0,0.0,1.0,0.0,part_2,stop,100.0,250.0,4.0,,,,,,,,,cyan,cross
0.0,5.0,1.0,1.0,6.0,6.0,436.5959595888853,1.0,0.0,part_2,stop,150.0,250.0,3.0,,,,,,,,,gray,circle
0.0,2.0,2.0,0.0,6.0,6.0,592.7682965993881,1.0,0.0,part_2,go,150.0,200.0,1.0,,,,,,,,,orange,triangle
0.0,8.0,4.0,1.0,6.0,6.0,737.0431497693062,1.0,0.0,part_2,go,150.0,200.0,1.0,,,,,,,,,yellow,flipped triangle
0.0,4.0,4.0,0.0,6.0,6.0,631.586529314518,1.0,0.0,part_2,go,150.0,200.0,1.0,,,,,,,,,magenta,diamond
0.0,5.0,1.0,1.0,5.0,0.0,0.0,1.0,0.0,part_2,stop,150.0,200.0,4.0,,,,,,,,,gray,circle
0.0,8.0,4.0,1.0,5.0,5.0,664.5369082689285,1.0,0.0,part_2,go,200.0,200.0,1.0,,,,,,,,,yellow,flipped triangle
0.0,4.0,4.0,0.0,5.0,5.0,401.2043345719576,1.0,0.0,part_2,go,200.0,200.0,1.0,,,,,,,,,magenta,diamond
0.0,3.0,3.0,0.0,6.0,6.0,444.1882893443107,1.0,0.0,part_2,go,200.0,200.0,1.0,,,,,,,,,blue,hexagon
0.0,7.0,3.0,1.0,5.0,0.0,0.0,1.0,0.0,part_2,stop,200.0,200.0,4.0,,,,,,,,,green,square
0.0,6.0,2.0,1.0,5.0,5.0,412.3483430594206,1.0,0.0,part_2,stop,250.0,200.0,3.0,,,,,,,,,cyan,cross
0.0,4.0,4.0,0.0,5.0,5.0,500.8725356310606,1.0,0.0,part_2,go,200.0,200.0,1.0,,,,,,,,,magenta,diamond
0.0,6.0,2.0,1.0,5.0,5.0,493.8439503312111,1.0,0.0,part_2,go,200.0,200.0,1.0,,,,,,,,,cyan,cross
0.0,6.0,2.0,1.0,5.0,5.0,393.6552070081234,1.0,0.0,part_2,stop,200.0,200.0,3.0,,,,,,,,,cyan,cross
0.0,6.0,2.0,1.0,6.0,0.0,0.0,1.0,0.0,part_2,stop,150.0,200.0,4.0,,,,,,,,,cyan,cross
0.0,3.0,3.0,0.0,6.0,6.0,554.1804283857346,2.0,0.0,part_2,go,150.0,250.0,1.0,,,,,,,,,blue,hexagon
0.0,3.0,3.0,0.0,6.0,6.0,514.9955842643976,2.0,0.0,part_2,go,150.0,250.0,1.0,,,,,,,,,blue,hexagon
0.0,5.0,1.0,1.0,6.0,6.0,415.0124415755272,2.0,0.0,part_2,stop,150.0,250.0,3.0,,,,,,,,,gray,circle
0.0,3.0,3.0,0.0,6.0,6.0,591.3661066442728,2.0,0.0,part_2,go,150.0,200.0,1.0,,,,,,,,,blue,hexagon
0.0,5.0,1.0,1.0,5.0,5.0,384.1436598449945,2.0,0.0,part_2,go,150.0,200.0,1.0,,,,,,,,,gray,circle
0.0,6.0,2.0,1.0,6.0,6.0,334.2432919889688,2.0,0.0,part_2,stop,150.0,200.0,3.0,,,,,,,,,cyan,cross
0.0,6.0,2.0,1.0,6.0,0.0,0.0,2.0,0.0,part_2,stop,150.0,150.0,4.0,,,,,,,,,cyan,cross
0.0,1.0,1.0,0.0,6.0,6.0,653.9921406656504,2.0,0.0,part_2,go,150.0,200.0,1.0,,,,,,,,,white,I
0.0,4.0,4.0,0.0,5.0,5.0,509.8832119256258,2.0,0.0,part_2,go,150.0,200.0,1.0,,,,,,,,,magenta,diamond
0.0,7.0,3.0,1.0,6.0,0.0,0.0,2.0,0.0,part_2,stop,150.0,200.0,4.0,,,,,,,,,green,square
0.0,2.0,2.0,0.0,5.0,5.0,691.1085117608309,2.0,0.0,part_2,go,150.0,250.0,1.0,,,,,,,,,orange,triangle
0.0,4.0,4.0,0.0,6.0,6.0,473.3290318399668,2.0,0.0,part_2,go,150.0,250.0,1.0,,,,,,,,,magenta,diamond
0.0,7.0,3.0,1.0,5.0,0.0,0.0,2.0,0.0,part_2,stop,150.0,250.0,4.0,,,,,,,,,green,square
0.0,8.0,4.0,1.0,5.0,0.0,0.0,2.0,0.0,part_2,stop,200.0,250.0,4.0,,,,,,,,,yellow,flipped triangle
0.0,1.0,1.0,0.0,6.0,6.0,473.8896861672401,2.0,0.0,part_2,go,250.0,250.0,1.0,,,,,,,,,white,I
0.0,8.0,4.0,1.0,5.0,0.0,0.0,2.0,0.0,part_2,stop,250.0,250.0,4.0,,,,,,,,,yellow,flipped triangle
0.0,5.0,1.0,1.0,5.0,5.0,520.5736849457026,2.0,0.0,part_2,stop,300.0,250.0,3.0,,,,,,,,,gray,circle
0.0,1.0,1.0,0.0,6.0,6.0,440.6104031950235,2.0,0.0,part_2,go,250.0,250.0,1.0,,,,,,,,,white,I
0.0,8.0,4.0,1.0,5.0,0.0,0.0,2.0,0.0,part_2,stop,250.0,250.0,4.0,,,,,,,,,yellow,flipped triangle
0.0,3.0,3.0,0.0,5.0,5.0,766.7113840579987,2.0,0.0,part_2,go,300.0,250.0,1.0,,,,,,,,,blue,hexagon
0.0,2.0,2.0,0.0,6.0,6.0,501.95661187171936,2.0,0.0,part_2,go,300.0,250.0,1.0,,,,,,,,,orange,triangle
0.0,8.0,4.0,1.0,5.0,5.0,511.03268936276436,2.0,0.0,part_2,go,300.0,250.0,1.0,,,,,,,,,yellow,flipped triangle
0.0,3.0,3.0,0.0,5.0,5.0,454.65408079326147,2.0,0.0,part_2,go,300.0,250.0,1.0,,,,,,,,,blue,hexagon
0.0,8.0,4.0,1.0,6.0,6.0,381.37973472476,2.0,0.0,part_2,go,300.0,250.0,1.0,,,,,,,,,yellow,flipped triangle
0.0,4.0,4.0,0.0,5.0,5.0,604.6565696597099,2.0,0.0,part_2,go,300.0,250.0,1.0,,,,,,,,,magenta,diamond
0.0,6.0,2.0,1.0,6.0,6.0,421.49879038333887,2.0,0.0,part_2,stop,300.0,250.0,3.0,,,,,,,,,cyan,cross
0.0,6.0,2.0,1.0,6.0,0.0,0.0,2.0,0.0,part_2,stop,300.0,200.0,4.0,,,,,,,,,cyan,cross
0.0,7.0,3.0,1.0,6.0,0.0,0.0,2.0,0.0,part_2,stop,300.0,250.0,4.0,,,,,,,,,green,square
0.0,2.0,2.0,0.0,5.0,5.0,368.9617868512869,2.0,0.0,part_2,go,300.0,300.0,1.0,,,,,,,,,orange,triangle
0.0,3.0,3.0,0.0,5.0,5.0,600.3657411783934,2.0,0.0,part_2,go,300.0,300.0,1.0,,,,,,,,,blue,hexagon
0.0,4.0,4.0,0.0,5.0,5.0,529.1697457432747,2.0,0.0,part_2,go,300.0,300.0,1.0,,,,,,,,,magenta,diamond
0.0,2.0,2.0,0.0,5.0,5.0,678.9698768407106,2.0,0.0,part_2,go,300.0,300.0,1.0,,,,,,,,,orange,triangle
0.0,5.0,1.0,1.0,6.0,6.0,449.4045041501522,2.0,0.0,part_2,stop,300.0,300.0,3.0,,,,,,,,,gray,circle
0.0,6.0,2.0,1.0,6.0,6.0,432.6005559414625,2.0,0.0,part_2,stop,300.0,250.0,3.0,,,,,,,,,cyan,cross
0.0,7.0,3.0,1.0,5.0,0.0,0.0,2.0,0.0,part_2,stop,300.0,200.0,4.0,,,,,,,,,green,square
0.0,5.0,1.0,1.0,6.0,6.0,1092.9277259856462,2.0,0.0,part_2,go,350.0,200.0,1.0,,,,,,,,,gray,circle
0.0,4.0,4.0,0.0,5.0,5.0,489.5938225090503,3.0,0.0,part_2,go,350.0,200.0,1.0,,,,,,,,,magenta,diamond
0.0,7.0,3.0,1.0,6.0,6.0,699.5416637510061,3.0,0.0,part_2,go,350.0,200.0,1.0,,,,,,,,,green,square
0.0,7.0,3.0,1.0,6.0,0.0,0.0,3.0,0.0,part_2,stop,350.0,200.0,4.0,,,,,,,,,green,square
0.0,3.0,3.0,0.0,5.0,5.0,722.0241967588663,3.0,0.0,part_2,go,350.0,250.0,1.0,,,,,,,,,blue,hexagon
0.0,4.0,4.0,0.0,5.0,5.0,498.312933370471,3.0,0.0,part_2,go,350.0,250.0,1.0,,,,,,,,,magenta,diamond
0.0,1.0,1.0,0.0,6.0,6.0,352.8641238808632,3.0,0.0,part_2,go,350.0,250.0,1.0,,,,,,,,,white,I
0.0,4.0,4.0,0.0,6.0,6.0,495.2160231769085,3.0,0.0,part_2,go,350.0,250.0,1.0,,,,,,,,,magenta,diamond
0.0,7.0,3.0,1.0,5.0,5.0,521.0136324167252,3.0,0.0,part_2,stop,350.0,250.0,3.0,,,,,,,,,green,square
0.0,3.0,3.0,0.0,6.0,6.0,816.4478559046984,3.0,0.0,part_2,go,300.0,250.0,1.0,,,,,,,,,blue,hexagon
0.0,8.0,4.0,1.0,5.0,5.0,383.9329518377781,3.0,0.0,part_2,stop,300.0,250.0,3.0,,,,,,,,,yellow,flipped triangle
0.0,2.0,2.0,0.0,6.0,6.0,621.2193202227354,3.0,0.0,part_2,go,250.0,250.0,1.0,,,,,,,,,orange,triangle
0.0,1.0,1.0,0.0,6.0,6.0,470.7196019589901,3.0,0.0,part_2,go,250.0,250.0,1.0,,,,,,,,,white,I
0.0,1.0,1.0,0.0,5.0,5.0,642.645450308919,3.0,0.0,part_2,go,250.0,250.0,1.0,,,,,,,,,white,I
0.0,8.0,4.0,1.0,5.0,5.0,394.4388069212436,3.0,0.0,part_2,stop,250.0,250.0,3.0,,,,,,,,,yellow,flipped triangle
0.0,7.0,3.0,1.0,6.0,6.0,701.4979422092438,3.0,0.0,part_2,go,200.0,250.0,1.0,,,,,,,,,green,square
0.0,8.0,4.0,1.0,5.0,0.0,0.0,3.0,0.0,part_2,stop,200.0,250.0,4.0,,,,,,,,,yellow,flipped triangle
0.0,4.0,4.0,0.0,6.0,6.0,633.8937859982252,3.0,0.0,part_2,go,250.0,250.0,1.0,,,,,,,,,magenta,diamond
0.0,4.0,4.0,0.0,6.0,6.0,548.3076851814985,3.0,0.0,part_2,go,250.0,250.0,1.0,,,,,,,,,magenta,diamond
0.0,5.0,1.0,1.0,6.0,0.0,0.0,3.0,0.0,part_2,stop,250.0,250.0,4.0,,,,,,,,,gray,circle
0.0,3.0,3.0,0.0,6.0,6.0,760.5049796402454,3.0,0.0,part_2,go,250.0,300.0,1.0,,,,,,,,,blue,hexagon
0.0,4.0,4.0,0.0,6.0,6.0,642.7264474332333,3.0,0.0,part_2,go,250.0,300.0,1.0,,,,,,,,,magenta,diamond
0.0,5.0,1.0,1.0,5.0,0.0,0.0,3.0,0.0,part_2,stop,250.0,300.0,4.0,,,,,,,,,gray,circle
0.0,1.0,1.0,0.0,6.0,6.0,598.2912313193083,3.0,0.0,part_2,go,300.0,300.0,1.0,,,,,,,,,white,I
0.0,6.0,2.0,1.0,5.0,5.0,871.0506949573755,3.0,0.0,part_2,go,300.0,300.0,1.0,,,,,,,,,cyan,cross
0.0,1.0,1.0,0.0,6.0,6.0,376.588623970747,3.0,0.0,part_2,go,300.0,300.0,1.0,,,,,,,,,white,I
0.0,7.0,3.0,1.0,5.0,5.0,477.7973275631666,3.0,0.0,part_2,stop,300.0,300.0,3.0,,,,,,,,,green,square
0.0,2.0,2.0,0.0,5.0,5.0,771.6670874506235,3.0,0.0,part_2,go,250.0,300.0,1.0,,,,,,,,,orange,triangle
0.0,5.0,1.0,1.0,5.0,0.0,0.0,3.0,0.0,part_2,stop,250.0,300.0,4.0,,,,,,,,,gray,circle
0.0,4.0,4.0,0.0,6.0,6.0,732.6993588358164,3.0,0.0,part_2,go,300.0,300.0,1.0,,,,,,,,,magenta,diamond
0.0,3.0,3.0,0.0,6.0,6.0,485.072374343872,3.0,0.0,part_2,go,300.0,300.0,1.0,,,,,,,,,blue,hexagon
0.0,7.0,3.0,1.0,6.0,6.0,616.7536843568087,3.0,0.0,part_2,go,300.0,300.0,1.0,,,,,,,,,green,square
0.0,7.0,3.0,1.0,5.0,5.0,905.3832814097404,3.0,0.0,part_2,go,300.0,300.0,1.0,,,,,,,,,green,square
0.0,7.0,3.0,1.0,6.0,6.0,467.0027941465378,3.0,0.0,part_2,stop,300.0,300.0,3.0,,,,,,,,,green,square
0.0,3.0,3.0,0.0,5.0,5.0,563.1005838513374,3.0,0.0,part_2,go,300.0,250.0,1.0,,,,,,,,,blue,hexagon
0.0,6.0,2.0,1.0,6.0,0.0,0.0,3.0,0.0,part_2,stop,300.0,250.0,4.0,,,,,,,,,cyan,cross
0.0,5.0,1.0,1.0,5.0,5.0,727.3190654814243,3.0,0.0,part_2,go,300.0,300.0,1.0,,,,,,,,,gray,circle
0.0,7.0,3.0,1.0,6.0,0.0,0.0,4.0,0.0,part_2,stop,300.0,300.0,4.0,,,,,,,,,green,square
0.0,2.0,2.0,0.0,5.0,5.0,820.6809908151627,4.0,0.0,part_2,go,300.0,350.0,1.0,,,,,,,,,orange,triangle
0.0,2.0,2.0,0.0,6.0,6.0,379.0990523993969,4.0,0.0,part_2,go,300.0,350.0,1.0,,,,,,,,,orange,triangle
0.0,4.0,4.0,0.0,6.0,6.0,471.3856279850006,4.0,0.0,part_2,go,300.0,350.0,1.0,,,,,,,,,magenta,diamond
0.0,2.0,2.0,0.0,5.0,5.0,385.774452239275,4.0,0.0,part_2,go,300.0,350.0,1.0,,,,,,,,,orange,triangle
0.0,2.0,2.0,0.0,6.0,6.0,520.3678347170353,4.0,0.0,part_2,go,300.0,350.0,1.0,,,,,,,,,orange,triangle
0.0,8.0,4.0,1.0,6.0,6.0,469.9672739952802,4.0,0.0,part_2,stop,300.0,350.0,3.0,,,,,,,,,yellow,flipped triangle
0.0,7.0,3.0,1.0,6.0,0.0,0.0,4.0,0.0,part_2,stop,300.0,300.0,4.0,,,,,,,,,green,square
0.0,3.0,3.0,0.0,6.0,6.0,720.7203265279531,4.0,0.0,part_2,go,300.0,350.0,1.0,,,,,,,,,blue,hexagon
0.0,8.0,4.0,1.0,5.0,0.0,0.0,4.0,0.0,part_2,stop,300.0,350.0,4.0,,,,,,,,,yellow,flipped triangle
0.0,3.0,3.0,0.0,6.0,6.0,798.8039832562208,4.0,0.0,part_2,go,350.0,350.0,1.0,,,,,,,,,blue,hexagon
0.0,7.0,3.0,1.0,5.0,5.0,726.7396803945303,4.0,0.0,part_2,go,350.0,350.0,1.0,,,,,,,,,green,square
0.0,2.0,2.0,0.0,6.0,6.0,578.8246113806963,4.0,0.0,part_2,go,350.0,350.0,1.0,,,,,,,,,orange,triangle
0.0,2.0,2.0,0.0,5.0,5.0,517.3738561570644,4.0,0.0,part_2,go,350.0,350.0,1.0,,,,,,,,,orange,triangle
0.0,1.0,1.0,0.0,5.0,5.0,507.5288601219654,4.0,0.0,part_2,go,350.0,350.0,1.0,,,,,,,,,white,I
0.0,4.0,4.0,0.0,6.0,6.0,468.3669731020927,4.0,0.0,part_2,go,350.0,350.0,1.0,,,,,,,,,magenta,diamond
0.0,4.0,4.0,0.0,5.0,5.0,466.1581683903932,4.0,0.0,part_2,go,350.0,350.0,1.0,,,,,,,,,magenta,diamond
0.0,7.0,3.0,1.0,6.0,6.0,372.1388075500726,4.0,0.0,part_2,stop,350.0,350.0,3.0,,,,,,,,,green,square
0.0,8.0,4.0,1.0,6.0,0.0,0.0,4.0,0.0,part_2,stop,350.0,300.0,4.0,,,,,,,,,yellow,flipped triangle
0.0,1.0,1.0,0.0,5.0,5.0,655.1039796322584,4.0,0.0,part_2,go,350.0,350.0,1.0,,,,,,,,,white,I
0.0,7.0,3.0,1.0,6.0,0.0,0.0,4.0,0.0,part_2,stop,350.0,350.0,4.0,,,,,,,,,green,square
0.0,3.0,3.0,0.0,6.0,6.0,689.7678356617689,4.0,0.0,part_2,go,350.0,400.0,1.0,,,,,,,,,blue,hexagon
0.0,3.0,3.0,0.0,5.0,5.0,804.8829641193151,4.0,0.0,part_2,go,350.0,400.0,1.0,,,,,,,,,blue,hexagon
0.0,4.0,4.0,0.0,6.0,6.0,485.3161443024874,4.0,0.0,part_2,go,350.0,400.0,1.0,,,,,,,,,magenta,diamond
0.0,7.0,3.0,1.0,5.0,5.0,495.3030906617641,4.0,0.0,part_2,stop,350.0,400.0,3.0,,,,,,,,,green,square
0.0,7.0,3.0,1.0,6.0,0.0,0.0,4.0,0.0,part_2,stop,300.0,400.0,4.0,,,,,,,,,green,square
0.0,5.0,1.0,1.0,5.0,0.0,0.0,4.0,0.0,part_2,stop,300.0,450.0,4.0,,,,,,,,,gray,circle
0.0,6.0,2.0,1.0,6.0,6.0,811.149911954999,4.0,0.0,part_2,go,350.0,450.0,1.0,,,,,,,,,cyan,cross
0.0,1.0,1.0,0.0,6.0,6.0,908.6581636220216,4.0,0.0,part_2,go,350.0,450.0,1.0,,,,,,,,,white,I
0.0,8.0,4.0,1.0,5.0,5.0,506.84116408228874,4.0,0.0,part_2,go,350.0,450.0,1.0,,,,,,,,,yellow,flipped triangle
0.0,5.0,1.0,1.0,6.0,6.0,362.0773069560528,4.0,0.0,part_2,go,350.0,450.0,1.0,,,,,,,,,gray,circle
0.0,3.0,3.0,0.0,5.0,5.0,449.3444450199604,4.0,0.0,part_2,go,350.0,450.0,1.0,,,,,,,,,blue,hexagon
0.0,5.0,1.0,1.0,6.0,6.0,815.3257835656404,4.0,0.0,part_2,go,350.0,450.0,1.0,,,,,,,,,gray,circle
0.0,5.0,1.0,1.0,6.0,6.0,401.6129896044731,4.0,0.0,part_2,stop,350.0,450.0,3.0,,,,,,,,,gray,circle
0.0,8.0,4.0,1.0,6.0,0.0,0.0,4.0,0.0,part_2,stop,350.0,400.0,4.0,,,,,,,,,yellow,flipped triangle
0.0,1.0,1.0,0.0,5.0,5.0,687.0899591594934,4.0,0.0,part_2,go,350.0,450.0,1.0,,,,,,,,,white,I
0.0,4.0,4.0,0.0,5.0,5.0,783.6498282849789,5.0,0.0,part_2,go,350.0,450.0,1.0,,,,,,,,,magenta,diamond
0.0,2.0,2.0,0.0,6.0,6.0,540.7473165541887,5.0,0.0,part_2,go,350.0,450.0,1.0,,,,,,,,,orange,triangle
0.0,4.0,4.0,0.0,6.0,6.0,573.6947953701019,5.0,0.0,part_2,go,350.0,450.0,1.0,,,,,,,,,magenta,diamond
0.0,2.0,2.0,0.0,6.0,6.0,646.9922550022602,5.0,0.0,part_2,go,350.0,450.0,1.0,,,,,,,,,orange,triangle
0.0,1.0,1.0,0.0,6.0,6.0,483.7938006967306,5.0,0.0,part_2,go,350.0,450.0,1.0,,,,,,,,,white,I
0.0,1.0,1.0,0.0,5.0,5.0,450.5476057529449,5.0,0.0,part_2,go,350.0,450.0,1.0,,,,,,,,,white,I
0.0,8.0,4.0,1.0,6.0,6.0,515.3305884450674,5.0,0.0,part_2,go,350.0,450.0,1.0,,,,,,,,,yellow,flipped triangle
0.0,7.0,3.0,1.0,5.0,0.0,0.0,5.0,0.0,part_2,stop,350.0,450.0,4.0,,,,,,,,,green,square
0.0,3.0,3.0,0.0,5.0,5.0,635.8635406941175,5.0,0.0,part_2,go,400.0,450.0,1.0,,,,,,,,,blue,hexagon
0.0,2.0,2.0,0.0,6.0,6.0,463.9824088662863,5.0,0.0,part_2,go,400.0,450.0,1.0,,,,,,,,,orange,triangle
0.0,3.0,3.0,0.0,6.0,6.0,479.5783311128616,5.0,0.0,part_2,go,400.0,450.0,1.0,,,,,,,,,blue,hexagon
0.0,2.0,2.0,0.0,6.0,6.0,409.8527673631906,5.0,0.0,part_2,go,400.0,450.0,1.0,,,,,,,,,orange,triangle
0.0,7.0,3.0,1.0,5.0,5.0,528.6781098693609,5.0,0.0,part_2,go,400.0,450.0,1.0,,,,,,,,,green,square
0.0,5.0,1.0,1.0,5.0,5.0,503.7454403936863,5.0,0.0,part_2,stop,400.0,450.0,3.0,,,,,,,,,gray,circle
0.0,7.0,3.0,1.0,5.0,0.0,0.0,5.0,0.0,part_2,stop,350.0,450.0,4.0,,,,,,,,,green,square
0.0,5.0,1.0,1.0,6.0,6.0,671.1502000689507,5.0,0.0,part_2,stop,400.0,450.0,3.0,,,,,,,,,gray,circle
0.0,4.0,4.0,0.0,6.0,6.0,781.2633886933327,5.0,0.0,part_2,go,400.0,400.0,1.0,,,,,,,,,magenta,diamond
0.0,8.0,4.0,1.0,6.0,0.0,0.0,5.0,0.0,part_2,stop,400.0,400.0,4.0,,,,,,,,,yellow,flipped triangle
0.0,2.0,2.0,0.0,5.0,5.0,875.2142246812582,5.0,0.0,part_2,go,400.0,450.0,1.0,,,,,,,,,orange,triangle
0.0,2.0,2.0,0.0,5.0,5.0,524.1933055222034,5.0,0.0,part_2,go,400.0,450.0,1.0,,,,,,,,,orange,triangle
0.0,2.0,2.0,0.0,6.0,6.0,804.8447389155626,5.0,0.0,part_2,go,400.0,450.0,1.0,,,,,,,,,orange,triangle
0.0,8.0,4.0,1.0,6.0,6.0,721.2883476167917,5.0,0.0,part_2,go,400.0,450.0,1.0,,,,,,,,,yellow,flipped triangle
0.0,8.0,4.0,1.0,5.0,5.0,636.3042034208775,5.0,0.0,part_2,go,400.0,450.0,1.0,,,,,,,,,yellow,flipped triangle
0.0,4.0,4.0,0.0,6.0,6.0,416.0440806299448,5.0,0.0,part_2,go,400.0,450.0,1.0,,,,,,,,,magenta,diamond
0.0,5.0,1.0,1.0,5.0,0.0,0.0,5.0,0.0,part_2,stop,400.0,450.0,4.0,,,,,,,,,gray,circle
0.0,6.0,2.0,1.0,6.0,6.0,641.7416147887707,5.0,0.0,part_2,stop,450.0,450.0,3.0,,,,,,,,,cyan,cross
0.0,1.0,1.0,0.0,5.0,5.0,921.4499779045582,5.0,0.0,part_2,go,450.0,400.0,1.0,,,,,,,,,white,I
0.0,8.0,4.0,1.0,5.0,0.0,0.0,5.0,0.0,part_2,stop,450.0,400.0,4.0,,,,,,,,,yellow,flipped triangle
0.0,6.0,2.0,1.0,5.0,5.0,773.9739287644625,5.0,0.0,part_2,go,500.0,400.0,1.0,,,,,,,,,cyan,cross
0.0,1.0,1.0,0.0,5.0,5.0,861.2852729856968,5.0,0.0,part_2,go,500.0,400.0,1.0,,,,,,,,,white,I
0.0,6.0,2.0,1.0,5.0,5.0,636.7404945194721,5.0,0.0,part_2,stop,500.0,400.0,3.0,,,,,,,,,cyan,cross
0.0,7.0,3.0,1.0,6.0,0.0,0.0,5.0,0.0,part_2,stop,450.0,400.0,4.0,,,,,,,,,green,square
0.0,1.0,1.0,0.0,5.0,5.0,918.9794473350048,5.0,0.0,part_2,go,450.0,450.0,1.0,,,,,,,,,white,I
0.0,5.0,1.0,1.0,5.0,0.0,0.0,5.0,0.0,part_2,stop,450.0,450.0,4.0,,,,,,,,,gray,circle
0.0,6.0,2.0,1.0,6.0,0.0,0.0,5.0,0.0,part_2,stop,500.0,450.0,4.0,,,,,,,,,cyan,cross
0.0,4.0,4.0,0.0,6.0,6.0,770.0443677604198,5.0,0.0,part_2,go,500.0,500.0,1.0,,,,,,,,,magenta,diamond
0.0,4.0,4.0,0.0,6.0,6.0,1390.270685777068,6.0,0.0,part_2,go,500.0,500.0,1.0,,,,,,,,,magenta,diamond
0.0,3.0,3.0,0.0,5.0,5.0,452.1349593997001,6.0,0.0,part_2,go,500.0,500.0,1.0,,,,,,,,,blue,hexagon
0.0,4.0,4.0,0.0,5.0,5.0,638.4562626481056,6.0,0.0,part_2,go,500.0,500.0,1.0,,,,,,,,,magenta,diamond
0.0,1.0,1.0,0.0,5.0,5.0,532.5384102761745,6.0,0.0,part_2,go,500.0,500.0,1.0,,,,,,,,,white,I
0.0,7.0,3.0,1.0,6.0,6.0,605.668231844902,6.0,0.0,part_2,stop,500.0,500.0,3.0,,,,,,,,,green,square
0.0,5.0,1.0,1.0,5.0,5.0,865.5155580490828,6.0,0.0,part_2,go,500.0,450.0,1.0,,,,,,,,,gray,circle
0.0,4.0,4.0,0.0,5.0,5.0,524.1609867662191,6.0,0.0,part_2,go,500.0,450.0,1.0,,,,,,,,,magenta,diamond
0.0,5.0,1.0,1.0,6.0,0.0,0.0,6.0,0.0,part_2,stop,500.0,450.0,4.0,,,,,,,,,gray,circle
0.0,1.0,1.0,0.0,6.0,6.0,664.8876611143351,6.0,0.0,part_2,go,500.0,500.0,1.0,,,,,,,,,white,I
0.0,3.0,3.0,0.0,6.0,6.0,666.383907198906,6.0,0.0,part_2,go,500.0,500.0,1.0,,,,,,,,,blue,hexagon
0.0,5.0,1.0,1.0,6.0,0.0,0.0,6.0,0.0,part_2,stop,500.0,500.0,4.0,,,,,,,,,gray,circle
0.0,3.0,3.0,0.0,6.0,6.0,928.9458338171244,6.0,0.0,part_2,go,500.0,550.0,1.0,,,,,,,,,blue,hexagon
0.0,2.0,2.0,0.0,5.0,5.0,800.0714238733053,6.0,0.0,part_2,go,500.0,550.0,1.0,,,,,,,,,orange,triangle
0.0,1.0,1.0,0.0,6.0,6.0,1000.5295276641846,6.0,0.0,part_2,go,500.0,550.0,1.0,,,,,,,,,white,I
0.0,2.0,2.0,0.0,5.0,5.0,758.1944558769464,6.0,0.0,part_2,go,500.0,550.0,1.0,,,,,,,,,orange,triangle
0.0,8.0,4.0,1.0,5.0,5.0,524.5753079652786,6.0,0.0,part_2,stop,500.0,550.0,3.0,,,,,,,,,yellow,flipped triangle
0.0,5.0,1.0,1.0,5.0,0.0,0.0,6.0,0.0,part_2,stop,450.0,550.0,4.0,,,,,,,,,gray,circle
0.0,3.0,3.0,0.0,5.0,5.0,765.3064783662558,6.0,0.0,part_2,go,500.0,550.0,1.0,,,,,,,,,blue,hexagon
0.0,1.0,1.0,0.0,6.0,6.0,691.3060825318098,6.0,0.0,part_2,go,500.0,550.0,1.0,,,,,,,,,white,I
0.0,5.0,1.0,1.0,5.0,0.0,0.0,6.0,0.0,part_2,stop,500.0,550.0,4.0,,,,,,,,,gray,circle
0.0,6.0,2.0,1.0,5.0,0.0,0.0,6.0,0.0,part_2,stop,550.0,550.0,4.0,,,,,,,,,cyan,cross
0.0,6.0,2.0,1.0,5.0,0.0,0.0,6.0,0.0,part_2,stop,600.0,550.0,4.0,,,,,,,,,cyan,cross
0.0,2.0,2.0,0.0,5.0,5.0,954.090790823102,6.0,0.0,part_2,go,650.0,550.0,1.0,,,,,,,,,orange,triangle
0.0,2.0,2.0,0.0,5.0,5.0,842.9039679467678,6.0,0.0,part_2,go,650.0,550.0,1.0,,,,,,,,,orange,triangle
0.0,5.0,1.0,1.0,6.0,0.0,0.0,6.0,0.0,part_2,stop,650.0,550.0,4.0,,,,,,,,,gray,circle
0.0,6.0,2.0,1.0,5.0,0.0,0.0,6.0,0.0,part_2,stop,650.0,600.0,4.0,,,,,,,,,cyan,cross
0.0,3.0,3.0,0.0,5.0,5.0,1049.6960673481226,6.0,0.0,part_2,go,700.0,600.0,1.0,,,,,,,,,blue,hexagon
0.0,3.0,3.0,0.0,6.0,6.0,695.4068187624216,6.0,0.0,part_2,go,700.0,600.0,1.0,,,,,,,,,blue,hexagon
0.0,6.0,2.0,1.0,5.0,0.0,0.0,6.0,0.0,part_2,stop,700.0,600.0,4.0,,,,,,,,,cyan,cross
0.0,7.0,3.0,1.0,6.0,0.0,0.0,6.0,0.0,part_2,stop,750.0,600.0,4.0,,,,,,,,,green,square
0.0,8.0,4.0,1.0,5.0,0.0,0.0,6.0,0.0,part_2,stop,750.0,650.0,4.0,,,,,,,,,yellow,flipped triangle
0.0,2.0,2.0,0.0,6.0,6.0,925.1880124211312,6.0,0.0,part_2,go,800.0,650.0,1.0,,,,,,,,,orange,triangle
0.0,8.0,4.0,1.0,5.0,0.0,0.0,6.0,0.0,part_2,stop,800.0,650.0,4.0,,,,,,,,,yellow,flipped triangle
0.0,6.0,2.0,1.0,6.0,6.0,861.7910835891962,6.0,0.0,part_2,go,850.0,650.0,1.0,,,,,,,,,cyan,cross
0.0,1.0,1.0,0.0,5.0,5.0,1108.896279707551,6.0,0.0,part_2,go,850.0,650.0,1.0,,,,,,,,,white,I
0.0,7.0,3.0,1.0,6.0,6.0,433.0414123833179,6.0,0.0,part_2,go,850.0,650.0,1.0,,,,,,,,,green,square
0.0,3.0,3.0,0.0,5.0,5.0,466.2847202271223,7.0,0.0,part_2,go,850.0,650.0,1.0,,,,,,,,,blue,hexagon
0.0,2.0,2.0,0.0,6.0,6.0,446.7834793031215,7.0,0.0,part_2,go,850.0,650.0,1.0,,,,,,,,,orange,triangle
0.0,2.0,2.0,0.0,5.0,5.0,440.0464054197073,7.0,0.0,part_2,go,850.0,650.0,1.0,,,,,,,,,orange,triangle
0.0,5.0,1.0,1.0,5.0,5.0,567.7963048219681,7.0,0.0,part_2,stop,850.0,650.0,3.0,,,,,,,,,gray,circle
0.0,1.0,1.0,0.0,5.0,5.0,949.0918964147568,7.0,0.0,part_2,go,800.0,650.0,1.0,,,,,,,,,white,I
0.0,1.0,1.0,0.0,6.0,6.0,678.4543320536613,7.0,0.0,part_2,go,800.0,650.0,1.0,,,,,,,,,white,I
0.0,1.0,1.0,0.0,5.0,5.0,862.7347759902477,7.0,0.0,part_2,go,800.0,650.0,1.0,,,,,,,,,white,I
0.0,7.0,3.0,1.0,6.0,6.0,724.0667715668678,7.0,0.0,part_2,stop,800.0,650.0,3.0,,,,,,,,,green,square
0.0,6.0,2.0,1.0,6.0,0.0,0.0,7.0,0.0,part_2,stop,800.0,600.0,4.0,,,,,,,,,cyan,cross
0.0,7.0,3.0,1.0,5.0,0.0,0.0,7.0,0.0,part_2,stop,800.0,650.0,4.0,,,,,,,,,green,square
0.0,6.0,2.0,1.0,6.0,6.0,1041.765458881855,7.0,0.0,part_2,go,850.0,650.0,1.0,,,,,,,,,cyan,cross
0.0,8.0,4.0,1.0,6.0,0.0,0.0,7.0,0.0,part_2,stop,850.0,650.0,4.0,,,,,,,,,yellow,flipped triangle
0.0,1.0,1.0,0.0,5.0,5.0,1011.5738622844219,7.0,0.0,part_2,go,850.0,700.0,1.0,,,,,,,,,white,I
0.0,6.0,2.0,1.0,6.0,0.0,0.0,7.0,0.0,part_2,stop,850.0,700.0,4.0,,,,,,,,,cyan,cross
0.0,7.0,3.0,1.0,5.0,0.0,0.0,7.0,0.0,part_2,stop,850.0,750.0,4.0,,,,,,,,,green,square
0.0,5.0,1.0,1.0,6.0,0.0,0.0,7.0,0.0,part_2,stop,900.0,750.0,4.0,,,,,,,,,gray,circle
0.0,2.0,2.0,0.0,6.0,6.0,1095.8881732076406,7.0,0.0,part_2,go,900.0,800.0,1.0,,,,,,,,,orange,triangle
0.0,5.0,1.0,1.0,5.0,0.0,0.0,7.0,0.0,part_2,stop,900.0,800.0,4.0,,,,,,,,,gray,circle
0.0,6.0,2.0,1.0,6.0,0.0,0.0,7.0,0.0,part_2,stop,950.0,800.0,4.0,,,,,,,,,cyan,cross
0.0,2.0,2.0,0.0,6.0,6.0,1039.8943834006786,7.0,0.0,part_2,go,950.0,850.0,1.0,,,,,,,,,orange,triangle
0.0,6.0,2.0,1.0,6.0,0.0,0.0,7.0,0.0,part_2,stop,950.0,850.0,4.0,,,,,,,,,cyan,cross
0.0,3.0,3.0,0.0,6.0,6.0,1067.3027522861958,7.0,0.0,part_2,go,950.0,900.0,1.0,,,,,,,,,blue,hexagon
0.0,4.0,4.0,0.0,6.0,6.0,1254.2722187936306,7.0,0.0,part_2,go,950.0,900.0,1.0,,,,,,,,,magenta,diamond
0.0,1.0,1.0,0.0,5.0,5.0,1226.1858135461807,7.0,0.0,part_2,go,950.0,900.0,1.0,,,,,,,,,white,I
0.0,1.0,1.0,0.0,6.0,6.0,451.9052542746067,7.0,0.0,part_2,go,950.0,900.0,1.0,,,,,,,,,white,I
0.0,1.0,1.0,0.0,6.0,6.0,1069.013874977827,7.0,0.0,part_2,go,950.0,900.0,1.0,,,,,,,,,white,I
0.0,3.0,3.0,0.0,6.0,6.0,932.3021080344917,7.0,0.0,part_2,go,950.0,900.0,1.0,,,,,,,,,blue,hexagon
0.0,6.0,2.0,1.0,5.0,5.0,932.4488397687674,7.0,0.0,part_2,go,950.0,900.0,1.0,,,,,,,,,cyan,cross
0.0,8.0,4.0,1.0,6.0,6.0,834.7533289343119,7.0,0.0,part_2,stop,950.0,900.0,3.0,,,,,,,,,yellow,flipped triangle
0.0,7.0,3.0,1.0,5.0,0.0,0.0,7.0,0.0,part_2,stop,950.0,850.0,4.0,,,,,,,,,green,square
0.0,7.0,3.0,1.0,5.0,0.0,0.0,7.0,0.0,part_2,stop,1000.0,850.0,4.0,,,,,,,,,green,square
0.0,1.0,1.0,0.0,5.0,5.0,1214.799523353577,7.0,0.0,part_2,go,1050.0,850.0,1.0,,,,,,,,,white,I
0.0,6.0,2.0,1.0,5.0,0.0,0.0,7.0,0.0,part_2,stop,1050.0,850.0,4.0,,,,,,,,,cyan,cross
0.0,2.0,2.0,0.0,5.0,5.0,1302.013948559761,7.0,0.0,part_2,go,1100.0,850.0,1.0,,,,,,,,,orange,triangle
0.0,2.0,2.0,0.0,6.0,6.0,1455.4199874401093,7.0,0.0,part_2,go,1100.0,850.0,1.0,,,,,,,,,orange,triangle
0.0,3.0,3.0,0.0,6.0,6.0,1237.2864969074726,7.0,0.0,part_2,go,1100.0,850.0,1.0,,,,,,,,,blue,hexagon
0.0,8.0,4.0,1.0,6.0,6.0,996.2526857852936,8.0,0.0,part_2,stop,1100.0,850.0,3.0,,,,,,,,,yellow,flipped triangle
0.0,8.0,4.0,1.0,6.0,0.0,0.0,8.0,0.0,part_2,stop,1100.0,800.0,4.0,,,,,,,,,yellow,flipped triangle
0.0,6.0,2.0,1.0,5.0,5.0,1198.556860908866,8.0,0.0,part_2,stop,1100.0,850.0,3.0,,,,,,,,,cyan,cross
0.0,3.0,3.0,0.0,5.0,5.0,1291.100321337581,8.0,0.0,part_2,go,1050.0,850.0,1.0,,,,,,,,,blue,hexagon
0.0,4.0,4.0,0.0,5.0,5.0,1449.7074726969004,8.0,0.0,part_2,go,1050.0,850.0,1.0,,,,,,,,,magenta,diamond
0.0,3.0,3.0,0.0,5.0,5.0,905.3857438266276,8.0,0.0,part_2,go,1050.0,850.0,1.0,,,,,,,,,blue,hexagon
0.0,8.0,4.0,1.0,6.0,0.0,0.0,8.0,0.0,part_2,stop,1050.0,850.0,4.0,,,,,,,,,yellow,flipped triangle
0.0,2.0,2.0,0.0,6.0,6.0,1428.3701274544,8.0,0.0,part_2,go,1050.0,900.0,1.0,,,,,,,,,orange,triangle
0.0,8.0,4.0,1.0,5.0,0.0,0.0,8.0,0.0,part_2,stop,1050.0,900.0,4.0,,,,,,,,,yellow,flipped triangle
0.0,5.0,1.0,1.0,5.0,5.0,1217.5257746130228,8.0,0.0,part_2,stop,1100.0,900.0,3.0,,,,,,,,,gray,circle
0.0,4.0,4.0,0.0,5.0,5.0,1431.386211887002,8.0,0.0,part_2,go,1050.0,900.0,1.0,,,,,,,,,magenta,diamond
0.0,5.0,1.0,1.0,6.0,0.0,0.0,8.0,0.0,part_2,stop,1050.0,900.0,4.0,,,,,,,,,gray,circle
0.0,3.0,3.0,0.0,6.0,0.0,0.0,8.0,0.0,part_2,go,1050.0,950.0,5.0,,,,,,,,,blue,hexagon
0.0,1.0,1.0,0.0,6.0,0.0,0.0,8.0,0.0,part_2,go,1050.0,950.0,5.0,,,,,,,,,white,I
0.0,2.0,2.0,0.0,5.0,5.0,652.689041569829,8.0,0.0,part_2,go,1050.0,950.0,1.0,,,,,,,,,orange,triangle
0.0,7.0,3.0,1.0,5.0,5.0,486.0359821468591,8.0,0.0,part_2,go,1050.0,950.0,1.0,,,,,,,,,green,square
0.0,4.0,4.0,0.0,6.0,6.0,382.3445662856102,8.0,0.0,part_2,go,1050.0,950.0,1.0,,,,,,,,,magenta,diamond
0.0,1.0,1.0,0.0,5.0,5.0,390.9109439700842,8.0,0.0,part_2,go,1050.0,950.0,1.0,,,,,,,,,white,I
0.0,5.0,1.0,1.0,5.0,5.0,370.4704027622938,8.0,0.0,part_2,go,1050.0,950.0,1.0,,,,,,,,,gray,circle
0.0,8.0,4.0,1.0,6.0,6.0,324.0562360733747,8.0,0.0,part_2,stop,1050.0,950.0,3.0,,,,,,,,,yellow,flipped triangle
0.0,1.0,1.0,0.0,6.0,6.0,459.6282746642828,8.0,0.0,part_2,go,1050.0,900.0,1.0,,,,,,,,,white,I
0.0,4.0,4.0,0.0,5.0,5.0,362.5181075185537,8.0,0.0,part_2,go,1050.0,900.0,1.0,,,,,,,,,magenta,diamond
0.0,4.0,4.0,0.0,6.0,6.0,267.2823090106249,8.0,0.0,part_2,go,1050.0,900.0,1.0,,,,,,,,,magenta,diamond
0.0,4.0,4.0,0.0,5.0,5.0,387.4397929757833,8.0,0.0,part_2,go,1050.0,900.0,1.0,,,,,,,,,magenta,diamond
0.0,5.0,1.0,1.0,6.0,6.0,326.893525198102,8.0,0.0,part_2,stop,1050.0,900.0,3.0,,,,,,,,,gray,circle
0.0,6.0,2.0,1.0,5.0,5.0,448.8589707762003,8.0,0.0,part_2,stop,1050.0,850.0,3.0,,,,,,,,,cyan,cross
0.0,5.0,1.0,1.0,6.0,6.0,431.8913724273443,8.0,0.0,part_2,stop,1000.0,850.0,3.0,,,,,,,,,gray,circle
0.0,6.0,2.0,1.0,5.0,5.0,744.2634031176567,8.0,0.0,part_2,go,1000.0,800.0,1.0,,,,,,,,,cyan,cross
0.0,3.0,3.0,0.0,5.0,5.0,405.9644397348165,8.0,0.0,part_2,go,1000.0,800.0,1.0,,,,,,,,,blue,hexagon
0.0,3.0,3.0,0.0,5.0,5.0,406.6113959997892,8.0,0.0,part_2,go,1000.0,800.0,1.0,,,,,,,,,blue,hexagon
0.0,1.0,1.0,0.0,5.0,5.0,358.773784711957,8.0,0.0,part_2,go,1000.0,800.0,1.0,,,,,,,,,white,I
0.0,2.0,2.0,0.0,5.0,5.0,363.5677713900804,8.0,0.0,part_2,go,1000.0,800.0,1.0,,,,,,,,,orange,triangle
0.0,6.0,2.0,1.0,5.0,5.0,339.2335213720798,8.0,0.0,part_2,go,1000.0,800.0,1.0,,,,,,,,,cyan,cross
0.0,1.0,1.0,0.0,6.0,6.0,381.496112793684,8.0,0.0,part_2,go,1000.0,800.0,1.0,,,,,,,,,white,I
0.0,5.0,1.0,1.0,6.0,6.0,417.6847897469997,8.0,0.0,part_2,go,1000.0,800.0,1.0,,,,,,,,,gray,circle
0.0,7.0,3.0,1.0,5.0,5.0,411.6466771811247,8.0,0.0,part_2,go,1000.0,800.0,1.0,,,,,,,,,green,square
0.0,7.0,3.0,1.0,7.0,2.0,1731.5520197153091,1.0,1.0,part_3,go,0.0,0.0,0.0,117.0,3.0,195.0,117.0,234.0,156.0,39.0,78.0,green,square
0.0,6.0,2.0,1.0,7.0,5.0,2220.4330880194902,1.0,1.0,part_3,go,0.0,0.0,0.0,324.0,6.0,270.0,54.0,216.0,108.0,324.0,162.0,cyan,cross
0.0,1.0,1.0,0.0,7.0,1.0,1486.8972599506378,1.0,1.0,part_3,go,0.0,0.0,0.0,220.0,5.0,220.0,88.0,264.0,176.0,132.0,44.0,white,I
0.0,8.0,4.0,1.0,7.0,6.0,1342.6368404179811,1.0,1.0,part_3,go,0.0,0.0,0.0,147.0,3.0,245.0,98.0,294.0,49.0,196.0,147.0,yellow,flipped triangle
0.0,4.0,4.0,0.0,7.0,5.0,1526.4549236744642,1.0,1.0,part_3,go,0.0,0.0,0.0,88.0,2.0,176.0,44.0,264.0,132.0,88.0,220.0,magenta,diamond
0.0,3.0,3.0,0.0,7.0,3.0,1327.4558186531067,1.0,1.0,part_3,go,0.0,0.0,0.0,176.0,4.0,220.0,132.0,176.0,44.0,264.0,88.0,blue,hexagon
0.0,8.0,4.0,1.0,7.0,2.0,41.5223389863967,1.0,1.0,part_3,go,0.0,0.0,0.0,39.0,1.0,195.0,39.0,117.0,234.0,156.0,78.0,yellow,flipped triangle
0.0,5.0,1.0,1.0,7.0,1.0,1739.3132206052542,1.0,1.0,part_3,go,0.0,0.0,0.0,44.0,1.0,44.0,132.0,220.0,88.0,264.0,176.0,gray,circle
0.0,2.0,2.0,0.0,7.0,2.0,756.8795494735241,1.0,1.0,part_3,go,0.0,0.0,0.0,176.0,4.0,220.0,176.0,264.0,88.0,132.0,44.0,orange,triangle
0.0,4.0,4.0,0.0,7.0,5.0,949.8786982148886,1.0,1.0,part_3,go,0.0,0.0,0.0,102.0,3.0,34.0,204.0,170.0,136.0,102.0,68.0,magenta,diamond
0.0,4.0,4.0,0.0,7.0,3.0,94.5224650204181,1.0,1.0,part_3,go,0.0,0.0,0.0,98.0,2.0,196.0,294.0,98.0,49.0,245.0,147.0,magenta,diamond
0.0,1.0,1.0,0.0,7.0,5.0,617.8323831409216,1.0,1.0,part_3,go,0.0,0.0,0.0,88.0,2.0,264.0,44.0,220.0,132.0,88.0,176.0,white,I
0.0,7.0,3.0,1.0,7.0,3.0,1276.0799918323755,1.0,1.0,part_3,go,0.0,0.0,0.0,49.0,1.0,245.0,196.0,49.0,147.0,294.0,98.0,green,square
0.0,1.0,1.0,0.0,7.0,2.0,1469.8727764189243,1.0,1.0,part_3,go,0.0,0.0,0.0,68.0,2.0,102.0,68.0,34.0,170.0,204.0,136.0,white,I
0.0,2.0,2.0,0.0,7.0,3.0,788.3501648902893,1.0,1.0,part_3,go,0.0,0.0,0.0,98.0,2.0,196.0,294.0,98.0,49.0,147.0,245.0,orange,triangle
0.0,5.0,1.0,1.0,7.0,6.0,1142.2161143273115,1.0,1.0,part_3,go,0.0,0.0,0.0,88.0,2.0,264.0,132.0,220.0,44.0,176.0,88.0,gray,circle
0.0,4.0,4.0,0.0,7.0,5.0,1430.9422671794891,1.0,1.0,part_3,go,0.0,0.0,0.0,136.0,4.0,68.0,170.0,102.0,204.0,136.0,34.0,magenta,diamond
0.0,4.0,4.0,0.0,7.0,2.0,1804.055819287896,1.0,1.0,part_3,go,0.0,0.0,0.0,117.0,3.0,78.0,117.0,39.0,234.0,156.0,195.0,magenta,diamond
0.0,7.0,3.0,1.0,7.0,6.0,1380.218468606472,1.0,1.0,part_3,go,0.0,0.0,0.0,270.0,5.0,324.0,162.0,108.0,54.0,216.0,270.0,green,square
0.0,7.0,3.0,1.0,7.0,6.0,733.1812046468258,1.0,1.0,part_3,go,0.0,0.0,0.0,234.0,6.0,156.0,117.0,39.0,78.0,195.0,234.0,green,square
0.0,3.0,3.0,0.0,7.0,4.0,1397.4395524710417,2.0,1.0,part_3,go,0.0,0.0,0.0,234.0,6.0,156.0,195.0,39.0,234.0,117.0,78.0,blue,hexagon
0.0,1.0,1.0,0.0,7.0,2.0,1243.5577660799026,2.0,1.0,part_3,go,0.0,0.0,0.0,162.0,3.0,270.0,162.0,54.0,216.0,108.0,324.0,white,I
0.0,3.0,3.0,0.0,7.0,4.0,1374.6595215052366,2.0,1.0,part_3,go,0.0,0.0,0.0,324.0,6.0,270.0,108.0,216.0,324.0,54.0,162.0,blue,hexagon
0.0,2.0,2.0,0.0,7.0,3.0,1895.8181608468296,2.0,1.0,part_3,go,0.0,0.0,0.0,170.0,5.0,136.0,34.0,170.0,204.0,102.0,68.0,orange,triangle
0.0,7.0,3.0,1.0,7.0,6.0,1022.9665283113718,2.0,1.0,part_3,go,0.0,0.0,0.0,245.0,5.0,147.0,49.0,196.0,98.0,294.0,245.0,green,square
0.0,4.0,4.0,0.0,7.0,4.0,1284.613749012351,2.0,1.0,part_3,go,0.0,0.0,0.0,234.0,6.0,39.0,117.0,156.0,234.0,78.0,195.0,magenta,diamond
0.0,8.0,4.0,1.0,7.0,1.0,811.7772247642279,2.0,1.0,part_3,go,0.0,0.0,0.0,264.0,6.0,264.0,88.0,176.0,44.0,132.0,220.0,yellow,flipped triangle
0.0,2.0,2.0,0.0,7.0,2.0,939.4910018891096,2.0,1.0,part_3,go,0.0,0.0,0.0,270.0,5.0,216.0,270.0,108.0,162.0,54.0,324.0,orange,triangle
0.0,4.0,4.0,0.0,7.0,4.0,1380.4300874471664,2.0,1.0,part_3,go,0.0,0.0,0.0,220.0,5.0,264.0,176.0,44.0,220.0,132.0,88.0,magenta,diamond
0.0,7.0,3.0,1.0,7.0,1.0,725.7695235311985,2.0,1.0,part_3,go,0.0,0.0,0.0,102.0,3.0,102.0,170.0,136.0,68.0,204.0,34.0,green,square
0.0,3.0,3.0,0.0,7.0,6.0,1264.973483979702,2.0,1.0,part_3,go,0.0,0.0,0.0,294.0,6.0,196.0,49.0,245.0,147.0,98.0,294.0,blue,hexagon
0.0,2.0,2.0,0.0,7.0,2.0,1202.5634106248615,2.0,1.0,part_3,go,0.0,0.0,0.0,220.0,5.0,88.0,220.0,264.0,44.0,176.0,132.0,orange,triangle
0.0,7.0,3.0,1.0,7.0,1.0,1621.15927785635,2.0,1.0,part_3,go,0.0,0.0,0.0,264.0,6.0,264.0,44.0,176.0,220.0,132.0,88.0,green,square
0.0,5.0,1.0,1.0,7.0,6.0,1277.408253401518,2.0,1.0,part_3,go,0.0,0.0,0.0,34.0,1.0,204.0,68.0,170.0,102.0,136.0,34.0,gray,circle
0.0,5.0,1.0,1.0,7.0,2.0,1248.5264092683792,2.0,1.0,part_3,go,0.0,0.0,0.0,78.0,2.0,234.0,78.0,156.0,39.0,117.0,195.0,gray,circle
0.0,1.0,1.0,0.0,7.0,1.0,2623.125027865171,2.0,1.0,part_3,go,0.0,0.0,0.0,78.0,2.0,78.0,156.0,234.0,195.0,39.0,117.0,white,I
0.0,6.0,2.0,1.0,7.0,5.0,943.9041782170534,2.0,1.0,part_3,go,0.0,0.0,0.0,324.0,6.0,270.0,216.0,162.0,54.0,324.0,108.0,cyan,cross
0.0,5.0,1.0,1.0,7.0,4.0,1627.4271477013826,2.0,1.0,part_3,go,0.0,0.0,0.0,68.0,2.0,34.0,102.0,204.0,68.0,170.0,136.0,gray,circle
0.0,4.0,4.0,0.0,7.0,3.0,1810.5076774954796,2.0,1.0,part_3,go,0.0,0.0,0.0,294.0,6.0,147.0,196.0,294.0,49.0,245.0,98.0,magenta,diamond
0.0,2.0,2.0,0.0,7.0,5.0,1132.0001482963562,2.0,1.0,part_3,go,0.0,0.0,0.0,270.0,5.0,108.0,324.0,216.0,54.0,270.0,162.0,orange,triangle
0.0,1.0,1.0,0.0,7.0,6.0,858.022740110755,3.0,1.0,part_3,go,0.0,0.0,0.0,68.0,2.0,34.0,170.0,102.0,136.0,204.0,68.0,white,I
0.0,1.0,1.0,0.0,7.0,2.0,1235.440535470843,3.0,1.0,part_3,go,0.0,0.0,0.0,49.0,1.0,147.0,49.0,196.0,98.0,245.0,294.0,white,I
0.0,2.0,2.0,0.0,7.0,5.0,1077.856693416834,3.0,1.0,part_3,go,0.0,0.0,0.0,234.0,6.0,39.0,195.0,78.0,117.0,234.0,156.0,orange,triangle
0.0,4.0,4.0,0.0,7.0,3.0,1279.5029766857624,3.0,1.0,part_3,go,0.0,0.0,0.0,324.0,6.0,162.0,54.0,324.0,270.0,216.0,108.0,magenta,diamond
0.0,6.0,2.0,1.0,7.0,2.0,1208.7152041494846,3.0,1.0,part_3,go,0.0,0.0,0.0,204.0,6.0,34.0,204.0,170.0,68.0,102.0,136.0,cyan,cross
0.0,6.0,2.0,1.0,7.0,5.0,1387.9818562418222,3.0,1.0,part_3,go,0.0,0.0,0.0,204.0,6.0,170.0,102.0,136.0,34.0,204.0,68.0,cyan,cross
0.0,6.0,2.0,1.0,7.0,4.0,1308.4737323224545,3.0,1.0,part_3,go,0.0,0.0,0.0,294.0,6.0,147.0,196.0,245.0,294.0,49.0,98.0,cyan,cross
0.0,3.0,3.0,0.0,7.0,1.0,1140.6864784657955,3.0,1.0,part_3,go,0.0,0.0,0.0,220.0,5.0,220.0,264.0,132.0,176.0,44.0,88.0,blue,hexagon
0.0,3.0,3.0,0.0,7.0,6.0,1340.2089849114418,3.0,1.0,part_3,go,0.0,0.0,0.0,234.0,6.0,78.0,156.0,195.0,39.0,117.0,234.0,blue,hexagon
0.0,6.0,2.0,1.0,7.0,1.0,1385.4286465793848,3.0,1.0,part_3,go,0.0,0.0,0.0,294.0,6.0,294.0,98.0,147.0,49.0,245.0,196.0,cyan,cross
0.0,2.0,2.0,0.0,7.0,4.0,1942.707421258092,3.0,1.0,part_3,go,0.0,0.0,0.0,234.0,6.0,156.0,117.0,195.0,234.0,78.0,39.0,orange,triangle
0.0,6.0,2.0,1.0,7.0,1.0,1307.068981230259,3.0,1.0,part_3,go,0.0,0.0,0.0,195.0,5.0,195.0,117.0,39.0,234.0,78.0,156.0,cyan,cross
0.0,1.0,1.0,0.0,7.0,6.0,2162.382209673524,3.0,1.0,part_3,go,0.0,0.0,0.0,54.0,1.0,216.0,162.0,324.0,270.0,108.0,54.0,white,I
0.0,8.0,4.0,1.0,7.0,1.0,1588.8113994151354,3.0,1.0,part_3,go,0.0,0.0,0.0,195.0,5.0,195.0,234.0,117.0,39.0,78.0,156.0,yellow,flipped triangle
0.0,4.0,4.0,0.0,7.0,3.0,1119.0367620438335,3.0,1.0,part_3,go,0.0,0.0,0.0,270.0,5.0,324.0,54.0,270.0,216.0,162.0,108.0,magenta,diamond
0.0,5.0,1.0,1.0,7.0,5.0,1190.513039007783,3.0,1.0,part_3,go,0.0,0.0,0.0,78.0,2.0,39.0,117.0,234.0,156.0,78.0,195.0,gray,circle
0.0,7.0,3.0,1.0,7.0,2.0,1353.575460612774,3.0,1.0,part_3,go,0.0,0.0,0.0,204.0,6.0,102.0,204.0,68.0,170.0,34.0,136.0,green,square
0.0,5.0,1.0,1.0,7.0,6.0,2242.1999778598547,3.0,1.0,part_3,go,0.0,0.0,0.0,49.0,1.0,98.0,294.0,245.0,147.0,196.0,49.0,gray,circle
0.0,3.0,3.0,0.0,7.0,1.0,1140.4275484383106,3.0,1.0,part_3,go,0.0,0.0,0.0,204.0,6.0,204.0,170.0,102.0,34.0,136.0,68.0,blue,hexagon
0.0,8.0,4.0,1.0,7.0,3.0,807.2760552167892,3.0,1.0,part_3,go,0.0,0.0,0.0,204.0,6.0,170.0,136.0,204.0,34.0,68.0,102.0,yellow,flipped triangle
0.0,7.0,3.0,1.0,7.0,1.0,1178.1840100884438,4.0,1.0,part_3,go,0.0,0.0,0.0,216.0,4.0,216.0,108.0,270.0,162.0,54.0,324.0,green,square
0.0,7.0,3.0,1.0,7.0,3.0,1346.2237697094681,4.0,1.0,part_3,go,0.0,0.0,0.0,220.0,5.0,264.0,132.0,220.0,176.0,88.0,44.0,green,square
0.0,8.0,4.0,1.0,7.0,2.0,1597.8230368345976,4.0,1.0,part_3,go,0.0,0.0,0.0,204.0,6.0,34.0,204.0,68.0,102.0,170.0,136.0,yellow,flipped triangle
0.0,3.0,3.0,0.0,7.0,3.0,1534.3112852424383,4.0,1.0,part_3,go,0.0,0.0,0.0,270.0,5.0,216.0,54.0,270.0,162.0,108.0,324.0,blue,hexagon
0.0,5.0,1.0,1.0,7.0,3.0,2448.651047423482,4.0,1.0,part_3,go,0.0,0.0,0.0,108.0,2.0,162.0,324.0,108.0,216.0,54.0,270.0,gray,circle
0.0,6.0,2.0,1.0,7.0,4.0,1830.868085846305,4.0,1.0,part_3,go,0.0,0.0,0.0,220.0,5.0,44.0,176.0,264.0,220.0,132.0,88.0,cyan,cross
0.0,3.0,3.0,0.0,7.0,5.0,1572.4512860178947,4.0,1.0,part_3,go,0.0,0.0,0.0,49.0,1.0,147.0,196.0,245.0,98.0,49.0,294.0,blue,hexagon
0.0,8.0,4.0,1.0,7.0,2.0,1282.2042517364023,4.0,1.0,part_3,go,0.0,0.0,0.0,44.0,1.0,88.0,44.0,220.0,264.0,132.0,176.0,yellow,flipped triangle
0.0,1.0,1.0,0.0,7.0,5.0,1333.0850657075644,4.0,1.0,part_3,go,0.0,0.0,0.0,78.0,2.0,117.0,156.0,195.0,234.0,78.0,39.0,white,I
0.0,2.0,2.0,0.0,7.0,6.0,1488.3637614548206,4.0,1.0,part_3,go,0.0,0.0,0.0,294.0,6.0,49.0,147.0,245.0,98.0,196.0,294.0,orange,triangle
0.0,6.0,2.0,1.0,7.0,2.0,1128.5714749246836,4.0,1.0,part_3,go,0.0,0.0,0.0,44.0,1.0,176.0,44.0,220.0,132.0,88.0,264.0,cyan,cross
0.0,8.0,4.0,1.0,7.0,2.0,1511.887688189745,4.0,1.0,part_3,go,0.0,0.0,0.0,324.0,6.0,162.0,324.0,54.0,216.0,108.0,270.0,yellow,flipped triangle
0.0,8.0,4.0,1.0,7.0,5.0,1691.3618557155132,4.0,1.0,part_3,go,0.0,0.0,0.0,270.0,5.0,216.0,108.0,162.0,324.0,270.0,54.0,yellow,flipped triangle
0.0,3.0,3.0,0.0,7.0,5.0,1366.1642111837864,4.0,1.0,part_3,go,0.0,0.0,0.0,204.0,6.0,68.0,102.0,34.0,136.0,204.0,170.0,blue,hexagon
0.0,5.0,1.0,1.0,7.0,5.0,1684.0029265731573,4.0,1.0,part_3,go,0.0,0.0,0.0,98.0,2.0,245.0,196.0,147.0,294.0,98.0,49.0,gray,circle
0.0,6.0,2.0,1.0,7.0,2.0,1431.8600315600634,4.0,1.0,part_3,go,0.0,0.0,0.0,117.0,3.0,39.0,117.0,234.0,195.0,156.0,78.0,cyan,cross
0.0,2.0,2.0,0.0,7.0,6.0,1656.0247875750065,4.0,1.0,part_3,go,0.0,0.0,0.0,204.0,6.0,170.0,34.0,68.0,136.0,102.0,204.0,orange,triangle
0.0,5.0,1.0,1.0,7.0,5.0,1354.4499427080154,4.0,1.0,part_3,go,0.0,0.0,0.0,216.0,4.0,270.0,324.0,108.0,54.0,216.0,162.0,gray,circle
0.0,8.0,4.0,1.0,7.0,4.0,2274.8855501413345,4.0,1.0,part_3,go,0.0,0.0,0.0,245.0,5.0,147.0,196.0,49.0,245.0,98.0,294.0,yellow,flipped triangle
0.0,1.0,1.0,0.0,7.0,2.0,1529.8292096704245,4.0,1.0,part_3,go,0.0,0.0,0.0,245.0,5.0,294.0,245.0,196.0,147.0,98.0,49.0,white,I
