raw_reward_magnitude,stim_reward,stepwise_reward_magnitude,paired_with_stopping,quadrant,response,reaction_time,block,num_trial_presentations,which_part,stop_signal_trial_type,left_SSD,right_SSD,accuracy,chosen_bidding_amount,chosen_bidding_level,possible_bid_1,possible_bid_2,possible_bid_3,possible_bid_4,possible_bid_5,possible_bid_6,color_text,shape_text
411.0,4.0,4.0,0.0,1.0,1.0,309.2502243816852,1.0,1.0,part_1,,,,,,,,,,,,,magenta,cross
0.0,8.0,0.0,1.0,3.0,3.0,330.8531362563371,1.0,1.0,part_1,,,,,,,,,,,,,cyan,square
38.0,5.0,1.0,1.0,3.0,3.0,329.0016017854213,1.0,1.0,part_1,,,,,,,,,,,,,white,flipped triangle
30.0,5.0,1.0,1.0,3.0,3.0,354.2889915406704,1.0,1.0,part_1,,,,,,,,,,,,,white,flipped triangle
394.0,8.0,4.0,1.0,3.0,3.0,378.2433792948723,1.0,1.0,part_1,,,,,,,,,,,,,cyan,square
391.0,8.0,4.0,1.0,1.0,1.0,308.0628681927919,1.0,1.0,part_1,,,,,,,,,,,,,cyan,square
196.0,3.0,3.0,0.0,2.0,2.0,328.1759042292833,1.0,1.0,part_1,,,,,,,,,,,,,gray,circle
80.0,6.0,2.0,1.0,1.0,1.0,421.12554050982,1.0,1.0,part_1,,,,,,,,,,,,,blue,triangle
0.0,2.0,0.0,0.0,4.0,4.0,338.8073705136776,1.0,1.0,part_1,,,,,,,,,,,,,yellow,diamond
200.0,7.0,3.0,1.0,3.0,3.0,328.5120595246553,1.0,1.0,part_1,,,,,,,,,,,,,orange,I
114.0,6.0,2.0,1.0,4.0,4.0,332.9447600990534,1.0,1.0,part_1,,,,,,,,,,,,,blue,triangle
400.0,8.0,4.0,1.0,3.0,3.0,286.879425868392,1.0,1.0,part_1,,,,,,,,,,,,,cyan,square
35.0,5.0,1.0,1.0,1.0,1.0,430.9274535626173,1.0,1.0,part_1,,,,,,,,,,,,,white,flipped triangle
28.0,5.0,1.0,1.0,4.0,4.0,385.3772692382335,1.0,1.0,part_1,,,,,,,,,,,,,white,flipped triangle
87.0,2.0,2.0,0.0,4.0,4.0,398.1479350477457,1.0,1.0,part_1,,,,,,,,,,,,,yellow,diamond
202.0,3.0,3.0,0.0,4.0,4.0,298.0297096073627,1.0,1.0,part_1,,,,,,,,,,,,,gray,circle
418.0,8.0,4.0,1.0,1.0,1.0,286.3597758114338,1.0,1.0,part_1,,,,,,,,,,,,,cyan,square
0.0,5.0,0.0,1.0,1.0,1.0,334.180710837245,1.0,1.0,part_1,,,,,,,,,,,,,white,flipped triangle
82.0,2.0,2.0,0.0,2.0,2.0,368.1221194565296,1.0,1.0,part_1,,,,,,,,,,,,,yellow,diamond
122.0,6.0,2.0,1.0,4.0,4.0,312.0276797562837,1.0,1.0,part_1,,,,,,,,,,,,,blue,triangle
205.0,7.0,3.0,1.0,3.0,3.0,361.5733589977026,1.0,1.0,part_1,,,,,,,,,,,,,orange,I
0.0,1.0,0.0,0.0,2.0,2.0,448.6630782485008,1.0,1.0,part_1,,,,,,,,,,,,,green,hexagon
65.0,5.0,1.0,1.0,2.0,2.0,293.6458196491003,1.0,1.0,part_1,,,,,,,,,,,,,white,flipped triangle
219.0,3.0,3.0,0.0,3.0,3.0,298.0157695710659,1.0,1.0,part_1,,,,,,,,,,,,,gray,circle
57.0,1.0,1.0,0.0,2.0,2.0,363.8491239398718,1.0,2.0,part_1,,,,,,,,,,,,,green,hexagon
0.0,7.0,0.0,1.0,2.0,2.0,319.0820813179016,1.0,1.0,part_1,,,,,,,,,,,,,orange,I
0.0,8.0,0.0,1.0,3.0,3.0,358.2447841763496,1.0,1.0,part_1,,,,,,,,,,,,,cyan,square
87.0,6.0,2.0,1.0,4.0,4.0,384.4182845205068,1.0,1.0,part_1,,,,,,,,,,,,,blue,triangle
388.0,8.0,4.0,1.0,4.0,4.0,365.3701934963465,1.0,1.0,part_1,,,,,,,,,,,,,cyan,square
57.0,5.0,1.0,1.0,4.0,4.0,404.0509294718504,1.0,1.0,part_1,,,,,,,,,,,,,white,flipped triangle
221.0,7.0,3.0,1.0,3.0,3.0,407.4736833572387,1.0,1.0,part_1,,,,,,,,,,,,,orange,I
185.0,7.0,3.0,1.0,2.0,2.0,308.5198886692524,1.0,1.0,part_1,,,,,,,,,,,,,orange,I
213.0,3.0,3.0,0.0,3.0,3.0,334.928261116147,1.0,1.0,part_1,,,,,,,,,,,,,gray,circle
0.0,7.0,0.0,1.0,1.0,1.0,351.0101102292537,1.0,1.0,part_1,,,,,,,,,,,,,orange,I
0.0,7.0,0.0,1.0,3.0,3.0,287.4637115746736,1.0,1.0,part_1,,,,,,,,,,,,,orange,I
0.0,2.0,0.0,0.0,3.0,3.0,367.1287707984447,1.0,1.0,part_1,,,,,,,,,,,,,yellow,diamond
29.0,5.0,1.0,1.0,4.0,4.0,338.768258690834,1.0,1.0,part_1,,,,,,,,,,,,,white,flipped triangle
80.0,2.0,2.0,0.0,4.0,4.0,351.4519948512316,1.0,1.0,part_1,,,,,,,,,,,,,yellow,diamond
196.0,7.0,3.0,1.0,4.0,4.0,308.1807531416416,1.0,1.0,part_1,,,,,,,,,,,,,orange,I
406.0,4.0,4.0,0.0,4.0,4.0,466.9716469943523,1.0,1.0,part_1,,,,,,,,,,,,,magenta,cross
76.0,2.0,2.0,0.0,3.0,3.0,390.1614807546139,1.0,1.0,part_1,,,,,,,,,,,,,yellow,diamond
383.0,8.0,4.0,1.0,3.0,3.0,320.4433228820562,1.0,1.0,part_1,,,,,,,,,,,,,cyan,square
404.0,4.0,4.0,0.0,4.0,4.0,300.8530978113413,1.0,1.0,part_1,,,,,,,,,,,,,magenta,cross
44.0,1.0,1.0,0.0,2.0,2.0,418.8364781439304,1.0,1.0,part_1,,,,,,,,,,,,,green,hexagon
217.0,3.0,3.0,0.0,1.0,1.0,457.7735681086778,1.0,1.0,part_1,,,,,,,,,,,,,gray,circle
192.0,7.0,3.0,1.0,3.0,3.0,475.5338076502085,1.0,1.0,part_1,,,,,,,,,,,,,orange,I
111.0,2.0,2.0,0.0,1.0,1.0,291.3196608424186,1.0,1.0,part_1,,,,,,,,,,,,,yellow,diamond
0.0,3.0,0.0,0.0,4.0,4.0,646.8864697962999,1.0,1.0,part_1,,,,,,,,,,,,,gray,circle
214.0,7.0,3.0,1.0,1.0,1.0,449.2974039167166,1.0,1.0,part_1,,,,,,,,,,,,,orange,I
80.0,2.0,2.0,0.0,1.0,1.0,337.0749335736036,1.0,1.0,part_1,,,,,,,,,,,,,yellow,diamond
424.0,4.0,4.0,0.0,3.0,3.0,357.701713219285,1.0,1.0,part_1,,,,,,,,,,,,,magenta,cross
74.0,5.0,1.0,1.0,4.0,4.0,385.133646428585,1.0,1.0,part_1,,,,,,,,,,,,,white,flipped triangle
0.0,2.0,0.0,0.0,4.0,4.0,390.8307272940874,1.0,1.0,part_1,,,,,,,,,,,,,yellow,diamond
0.0,4.0,0.0,0.0,2.0,2.0,425.7021285593509,1.0,1.0,part_1,,,,,,,,,,,,,magenta,cross
124.0,6.0,2.0,1.0,2.0,2.0,359.2453170567751,1.0,1.0,part_1,,,,,,,,,,,,,blue,triangle
111.0,2.0,2.0,0.0,3.0,3.0,466.6704330593347,1.0,1.0,part_1,,,,,,,,,,,,,yellow,diamond
379.0,4.0,4.0,0.0,4.0,4.0,406.595641747117,1.0,1.0,part_1,,,,,,,,,,,,,magenta,cross
417.0,8.0,4.0,1.0,2.0,2.0,387.6536283642053,1.0,1.0,part_1,,,,,,,,,,,,,cyan,square
213.0,7.0,3.0,1.0,2.0,2.0,434.5584586262703,1.0,1.0,part_1,,,,,,,,,,,,,orange,I
0.0,4.0,0.0,0.0,2.0,2.0,445.3548770397901,1.0,1.0,part_1,,,,,,,,,,,,,magenta,cross
0.0,6.0,0.0,1.0,3.0,3.0,347.3543860018253,1.0,1.0,part_1,,,,,,,,,,,,,blue,triangle
407.0,4.0,4.0,0.0,1.0,1.0,362.2028268873691,1.0,1.0,part_1,,,,,,,,,,,,,magenta,cross
44.0,5.0,1.0,1.0,2.0,2.0,316.5133204311132,1.0,1.0,part_1,,,,,,,,,,,,,white,flipped triangle
27.0,5.0,1.0,1.0,1.0,1.0,383.2124508917331,1.0,1.0,part_1,,,,,,,,,,,,,white,flipped triangle
422.0,8.0,4.0,1.0,1.0,1.0,487.3464219272136,1.0,1.0,part_1,,,,,,,,,,,,,cyan,square
46.0,1.0,1.0,0.0,3.0,3.0,376.6575120389461,1.0,1.0,part_1,,,,,,,,,,,,,green,hexagon
32.0,1.0,1.0,0.0,1.0,1.0,341.5625933557749,1.0,1.0,part_1,,,,,,,,,,,,,green,hexagon
0.0,6.0,0.0,1.0,2.0,2.0,356.8741399794817,1.0,1.0,part_1,,,,,,,,,,,,,blue,triangle
193.0,3.0,3.0,0.0,3.0,3.0,393.9310945570469,1.0,1.0,part_1,,,,,,,,,,,,,gray,circle
407.0,8.0,4.0,1.0,2.0,2.0,357.4992660433054,1.0,1.0,part_1,,,,,,,,,,,,,cyan,square
73.0,5.0,1.0,1.0,3.0,3.0,417.8200326859951,1.0,1.0,part_1,,,,,,,,,,,,,white,flipped triangle
77.0,6.0,2.0,1.0,2.0,2.0,293.6236225068569,1.0,1.0,part_1,,,,,,,,,,,,,blue,triangle
59.0,5.0,1.0,1.0,1.0,1.0,394.2663054913282,1.0,1.0,part_1,,,,,,,,,,,,,white,flipped triangle
63.0,1.0,1.0,0.0,2.0,2.0,423.0611026287079,1.0,1.0,part_1,,,,,,,,,,,,,green,hexagon
116.0,2.0,2.0,0.0,1.0,1.0,442.7611660212278,1.0,1.0,part_1,,,,,,,,,,,,,yellow,diamond
59.0,1.0,1.0,0.0,3.0,3.0,369.9539192020893,1.0,1.0,part_1,,,,,,,,,,,,,green,hexagon
101.0,6.0,2.0,1.0,2.0,2.0,342.6958527415991,1.0,1.0,part_1,,,,,,,,,,,,,blue,triangle
0.0,2.0,0.0,0.0,2.0,2.0,469.1179413348436,1.0,1.0,part_1,,,,,,,,,,,,,yellow,diamond
0.0,3.0,0.0,0.0,2.0,2.0,517.4723993986845,1.0,1.0,part_1,,,,,,,,,,,,,gray,circle
0.0,4.0,0.0,0.0,3.0,3.0,397.5922577083111,1.0,1.0,part_1,,,,,,,,,,,,,magenta,cross
203.0,7.0,3.0,1.0,2.0,2.0,383.9842602610588,1.0,1.0,part_1,,,,,,,,,,,,,orange,I
44.0,5.0,1.0,1.0,1.0,1.0,316.0329591482878,1.0,1.0,part_1,,,,,,,,,,,,,white,flipped triangle
0.0,5.0,0.0,1.0,1.0,1.0,353.1340043991804,1.0,1.0,part_1,,,,,,,,,,,,,white,flipped triangle
188.0,7.0,3.0,1.0,1.0,1.0,471.3470470160246,1.0,1.0,part_1,,,,,,,,,,,,,orange,I
0.0,6.0,0.0,1.0,4.0,4.0,434.5972314476967,1.0,1.0,part_1,,,,,,,,,,,,,blue,triangle
111.0,6.0,2.0,1.0,1.0,1.0,311.5073330700397,1.0,1.0,part_1,,,,,,,,,,,,,blue,triangle
0.0,6.0,0.0,1.0,3.0,3.0,487.5938408076763,1.0,1.0,part_1,,,,,,,,,,,,,blue,triangle
0.0,5.0,0.0,1.0,3.0,3.0,340.1588313281536,1.0,1.0,part_1,,,,,,,,,,,,,white,flipped triangle
0.0,7.0,0.0,1.0,2.0,2.0,405.5261816829443,1.0,1.0,part_1,,,,,,,,,,,,,orange,I
0.0,7.0,0.0,1.0,3.0,3.0,388.5067030787468,1.0,1.0,part_1,,,,,,,,,,,,,orange,I
27.0,5.0,1.0,1.0,1.0,1.0,310.8344711363315,1.0,1.0,part_1,,,,,,,,,,,,,white,flipped triangle
420.0,8.0,4.0,1.0,3.0,3.0,397.726833820343,1.0,1.0,part_1,,,,,,,,,,,,,cyan,square
40.0,5.0,1.0,1.0,4.0,4.0,386.9168367236852,1.0,1.0,part_1,,,,,,,,,,,,,white,flipped triangle
407.0,4.0,4.0,0.0,2.0,2.0,438.5566357523203,1.0,1.0,part_1,,,,,,,,,,,,,magenta,cross
409.0,4.0,4.0,0.0,3.0,3.0,434.1649208217859,1.0,1.0,part_1,,,,,,,,,,,,,magenta,cross
32.0,5.0,1.0,1.0,4.0,4.0,455.2533198148012,1.0,1.0,part_1,,,,,,,,,,,,,white,flipped triangle
95.0,2.0,2.0,0.0,1.0,1.0,475.7105242460966,1.0,1.0,part_1,,,,,,,,,,,,,yellow,diamond
180.0,3.0,3.0,0.0,2.0,2.0,327.3765314370394,1.0,1.0,part_1,,,,,,,,,,,,,gray,circle
53.0,1.0,1.0,0.0,1.0,1.0,387.582978233695,1.0,1.0,part_1,,,,,,,,,,,,,green,hexagon
100.0,6.0,2.0,1.0,4.0,4.0,361.526858061552,1.0,1.0,part_1,,,,,,,,,,,,,blue,triangle
385.0,8.0,4.0,1.0,2.0,2.0,328.4628205001354,2.0,1.0,part_1,,,,,,,,,,,,,cyan,square
400.0,8.0,4.0,1.0,3.0,3.0,364.6780364215374,2.0,1.0,part_1,,,,,,,,,,,,,cyan,square
177.0,3.0,3.0,0.0,4.0,4.0,503.44744697213173,2.0,1.0,part_1,,,,,,,,,,,,,gray,circle
119.0,6.0,2.0,1.0,4.0,4.0,324.0260537713766,2.0,1.0,part_1,,,,,,,,,,,,,blue,triangle
387.0,8.0,4.0,1.0,1.0,1.0,335.9977193176746,2.0,1.0,part_1,,,,,,,,,,,,,cyan,square
176.0,3.0,3.0,0.0,4.0,4.0,301.1386841535568,2.0,1.0,part_1,,,,,,,,,,,,,gray,circle
88.0,6.0,2.0,1.0,3.0,3.0,418.3786269277334,2.0,1.0,part_1,,,,,,,,,,,,,blue,triangle
44.0,1.0,1.0,0.0,1.0,1.0,406.2257744371891,2.0,1.0,part_1,,,,,,,,,,,,,green,hexagon
206.0,7.0,3.0,1.0,4.0,4.0,365.8306058496237,2.0,1.0,part_1,,,,,,,,,,,,,orange,I
106.0,2.0,2.0,0.0,2.0,2.0,464.0613757073879,2.0,1.0,part_1,,,,,,,,,,,,,yellow,diamond
186.0,3.0,3.0,0.0,4.0,4.0,350.0041402876377,2.0,1.0,part_1,,,,,,,,,,,,,gray,circle
73.0,1.0,1.0,0.0,4.0,4.0,348.5369849950075,2.0,1.0,part_1,,,,,,,,,,,,,green,hexagon
217.0,7.0,3.0,1.0,1.0,1.0,519.4319672882557,2.0,1.0,part_1,,,,,,,,,,,,,orange,I
418.0,4.0,4.0,0.0,2.0,2.0,389.5049672573805,2.0,1.0,part_1,,,,,,,,,,,,,magenta,cross
407.0,8.0,4.0,1.0,4.0,4.0,311.1500758677721,2.0,1.0,part_1,,,,,,,,,,,,,cyan,square
380.0,8.0,4.0,1.0,4.0,4.0,325.7929161190986,2.0,1.0,part_1,,,,,,,,,,,,,cyan,square
0.0,4.0,0.0,0.0,4.0,4.0,467.3983845859766,2.0,1.0,part_1,,,,,,,,,,,,,magenta,cross
120.0,6.0,2.0,1.0,1.0,1.0,440.8698510378599,2.0,1.0,part_1,,,,,,,,,,,,,blue,triangle
38.0,1.0,1.0,0.0,4.0,4.0,413.7188419699669,2.0,1.0,part_1,,,,,,,,,,,,,green,hexagon
0.0,1.0,0.0,0.0,1.0,1.0,503.2415483146906,2.0,1.0,part_1,,,,,,,,,,,,,green,hexagon
0.0,1.0,0.0,0.0,4.0,4.0,484.7689252346754,2.0,1.0,part_1,,,,,,,,,,,,,green,hexagon
389.0,8.0,4.0,1.0,1.0,1.0,451.1979781091213,2.0,1.0,part_1,,,,,,,,,,,,,cyan,square
87.0,2.0,2.0,0.0,4.0,4.0,324.5774265378713,2.0,1.0,part_1,,,,,,,,,,,,,yellow,diamond
67.0,5.0,1.0,1.0,1.0,1.0,436.2044148147106,2.0,1.0,part_1,,,,,,,,,,,,,white,flipped triangle
100.0,2.0,2.0,0.0,3.0,3.0,365.7857682555914,2.0,1.0,part_1,,,,,,,,,,,,,yellow,diamond
0.0,3.0,0.0,0.0,3.0,3.0,460.1815193891525,2.0,1.0,part_1,,,,,,,,,,,,,gray,circle
54.0,5.0,1.0,1.0,3.0,3.0,347.1669163554907,2.0,1.0,part_1,,,,,,,,,,,,,white,flipped triangle
188.0,3.0,3.0,0.0,1.0,1.0,469.6421213448047,2.0,1.0,part_1,,,,,,,,,,,,,gray,circle
51.0,1.0,1.0,0.0,3.0,3.0,283.3278458565473,2.0,1.0,part_1,,,,,,,,,,,,,green,hexagon
0.0,2.0,0.0,0.0,3.0,3.0,510.93185506761074,2.0,1.0,part_1,,,,,,,,,,,,,yellow,diamond
0.0,8.0,0.0,1.0,4.0,4.0,379.3692030012607,2.0,1.0,part_1,,,,,,,,,,,,,cyan,square
0.0,7.0,0.0,1.0,2.0,2.0,578.2479606568813,2.0,1.0,part_1,,,,,,,,,,,,,orange,I
187.0,7.0,3.0,1.0,2.0,2.0,595.1237939298153,2.0,1.0,part_1,,,,,,,,,,,,,orange,I
49.0,5.0,1.0,1.0,1.0,1.0,377.8926637023687,2.0,1.0,part_1,,,,,,,,,,,,,white,flipped triangle
41.0,5.0,1.0,1.0,4.0,4.0,477.4825684726238,2.0,1.0,part_1,,,,,,,,,,,,,white,flipped triangle
0.0,1.0,0.0,0.0,1.0,1.0,499.8609349131584,2.0,1.0,part_1,,,,,,,,,,,,,green,hexagon
69.0,1.0,1.0,0.0,1.0,1.0,574.7863426804543,2.0,1.0,part_1,,,,,,,,,,,,,green,hexagon
54.0,1.0,1.0,0.0,4.0,4.0,402.688130736351,2.0,1.0,part_1,,,,,,,,,,,,,green,hexagon
68.0,5.0,1.0,1.0,3.0,3.0,441.6054747998714,2.0,1.0,part_1,,,,,,,,,,,,,white,flipped triangle
29.0,1.0,1.0,0.0,2.0,2.0,381.0789510607719,2.0,1.0,part_1,,,,,,,,,,,,,green,hexagon
417.0,4.0,4.0,0.0,4.0,4.0,344.8212724179029,2.0,1.0,part_1,,,,,,,,,,,,,magenta,cross
0.0,7.0,0.0,1.0,3.0,3.0,912.3379644006492,2.0,1.0,part_1,,,,,,,,,,,,,orange,I
96.0,6.0,2.0,1.0,1.0,1.0,442.3214141279459,2.0,1.0,part_1,,,,,,,,,,,,,blue,triangle
32.0,1.0,1.0,0.0,1.0,1.0,463.8658706098795,2.0,1.0,part_1,,,,,,,,,,,,,green,hexagon
38.0,1.0,1.0,0.0,4.0,4.0,468.5848671942949,2.0,1.0,part_1,,,,,,,,,,,,,green,hexagon
91.0,6.0,2.0,1.0,4.0,4.0,368.5889430344105,2.0,1.0,part_1,,,,,,,,,,,,,blue,triangle
57.0,1.0,1.0,0.0,3.0,3.0,552.9197268188,2.0,1.0,part_1,,,,,,,,,,,,,green,hexagon
394.0,4.0,4.0,0.0,3.0,3.0,426.2613579630852,2.0,1.0,part_1,,,,,,,,,,,,,magenta,cross
216.0,7.0,3.0,1.0,2.0,2.0,350.2564746886492,2.0,1.0,part_1,,,,,,,,,,,,,orange,I
0.0,4.0,0.0,0.0,3.0,3.0,414.6932195872068,2.0,1.0,part_1,,,,,,,,,,,,,magenta,cross
74.0,1.0,1.0,0.0,4.0,4.0,328.7626635283232,2.0,1.0,part_1,,,,,,,,,,,,,green,hexagon
82.0,2.0,2.0,0.0,3.0,3.0,452.2497877478599,2.0,1.0,part_1,,,,,,,,,,,,,yellow,diamond
0.0,3.0,0.0,0.0,2.0,2.0,624.500272795558,2.0,1.0,part_1,,,,,,,,,,,,,gray,circle
32.0,5.0,1.0,1.0,4.0,4.0,328.4533713012934,2.0,1.0,part_1,,,,,,,,,,,,,white,flipped triangle
418.0,4.0,4.0,0.0,1.0,1.0,364.7764250636101,2.0,1.0,part_1,,,,,,,,,,,,,magenta,cross
180.0,7.0,3.0,1.0,4.0,4.0,434.1959077864885,2.0,1.0,part_1,,,,,,,,,,,,,orange,I
410.0,4.0,4.0,0.0,3.0,3.0,485.9477244317531,2.0,1.0,part_1,,,,,,,,,,,,,magenta,cross
192.0,7.0,3.0,1.0,4.0,4.0,458.9087646454572,2.0,1.0,part_1,,,,,,,,,,,,,orange,I
119.0,2.0,2.0,0.0,1.0,1.0,400.8535426110029,2.0,1.0,part_1,,,,,,,,,,,,,yellow,diamond
196.0,7.0,3.0,1.0,4.0,4.0,300.2377450466156,2.0,1.0,part_1,,,,,,,,,,,,,orange,I
118.0,2.0,2.0,0.0,2.0,2.0,433.3140831440687,2.0,1.0,part_1,,,,,,,,,,,,,yellow,diamond
68.0,5.0,1.0,1.0,1.0,1.0,514.9852149188519,2.0,1.0,part_1,,,,,,,,,,,,,white,flipped triangle
91.0,2.0,2.0,0.0,2.0,2.0,337.9420284181833,2.0,1.0,part_1,,,,,,,,,,,,,yellow,diamond
101.0,2.0,2.0,0.0,1.0,1.0,464.0248473733663,2.0,1.0,part_1,,,,,,,,,,,,,yellow,diamond
379.0,8.0,4.0,1.0,2.0,2.0,410.1048819720745,2.0,1.0,part_1,,,,,,,,,,,,,cyan,square
203.0,3.0,3.0,0.0,3.0,3.0,512.4884247779846,2.0,1.0,part_1,,,,,,,,,,,,,gray,circle
196.0,3.0,3.0,0.0,4.0,4.0,510.4613956063986,2.0,1.0,part_1,,,,,,,,,,,,,gray,circle
181.0,7.0,3.0,1.0,3.0,3.0,368.8492719084024,2.0,1.0,part_1,,,,,,,,,,,,,orange,I
0.0,4.0,0.0,0.0,4.0,4.0,316.0274066030979,2.0,1.0,part_1,,,,,,,,,,,,,magenta,cross
379.0,4.0,4.0,0.0,1.0,1.0,377.779733389616,2.0,1.0,part_1,,,,,,,,,,,,,magenta,cross
73.0,5.0,1.0,1.0,2.0,2.0,464.2820358276367,2.0,1.0,part_1,,,,,,,,,,,,,white,flipped triangle
30.0,1.0,1.0,0.0,4.0,4.0,308.3536475896835,2.0,1.0,part_1,,,,,,,,,,,,,green,hexagon
0.0,1.0,0.0,0.0,2.0,2.0,417.8943131119013,2.0,1.0,part_1,,,,,,,,,,,,,green,hexagon
49.0,1.0,1.0,0.0,2.0,2.0,380.5569019168615,2.0,1.0,part_1,,,,,,,,,,,,,green,hexagon
76.0,2.0,2.0,0.0,2.0,2.0,328.4333813935518,2.0,1.0,part_1,,,,,,,,,,,,,yellow,diamond
0.0,8.0,0.0,1.0,4.0,4.0,308.9704681187868,2.0,1.0,part_1,,,,,,,,,,,,,cyan,square
73.0,1.0,1.0,0.0,3.0,3.0,331.8790569901466,2.0,1.0,part_1,,,,,,,,,,,,,green,hexagon
87.0,6.0,2.0,1.0,4.0,4.0,777.1649602800608,2.0,1.0,part_1,,,,,,,,,,,,,blue,triangle
106.0,6.0,2.0,1.0,1.0,1.0,339.6317269653082,2.0,1.0,part_1,,,,,,,,,,,,,blue,triangle
409.0,8.0,4.0,1.0,3.0,3.0,328.1640671193599,2.0,1.0,part_1,,,,,,,,,,,,,cyan,square
211.0,3.0,3.0,0.0,2.0,2.0,413.142392411828,2.0,1.0,part_1,,,,,,,,,,,,,gray,circle
398.0,4.0,4.0,0.0,1.0,1.0,354.7031227499246,2.0,1.0,part_1,,,,,,,,,,,,,magenta,cross
206.0,7.0,3.0,1.0,1.0,1.0,333.2672100514173,2.0,1.0,part_1,,,,,,,,,,,,,orange,I
77.0,2.0,2.0,0.0,2.0,2.0,381.5764561295509,2.0,1.0,part_1,,,,,,,,,,,,,yellow,diamond
91.0,2.0,2.0,0.0,4.0,4.0,382.9246908426285,2.0,1.0,part_1,,,,,,,,,,,,,yellow,diamond
0.0,1.0,0.0,0.0,3.0,3.0,455.9557642787695,2.0,1.0,part_1,,,,,,,,,,,,,green,hexagon
179.0,7.0,3.0,1.0,4.0,4.0,458.5314095020294,2.0,1.0,part_1,,,,,,,,,,,,,orange,I
88.0,2.0,2.0,0.0,1.0,1.0,344.3449418991804,2.0,1.0,part_1,,,,,,,,,,,,,yellow,diamond
213.0,3.0,3.0,0.0,1.0,1.0,421.6310530900955,2.0,1.0,part_1,,,,,,,,,,,,,gray,circle
186.0,3.0,3.0,0.0,1.0,1.0,497.8011474013328,2.0,1.0,part_1,,,,,,,,,,,,,gray,circle
124.0,2.0,2.0,0.0,4.0,4.0,509.6037983894348,2.0,1.0,part_1,,,,,,,,,,,,,yellow,diamond
38.0,1.0,1.0,0.0,1.0,1.0,368.3615960180759,2.0,1.0,part_1,,,,,,,,,,,,,green,hexagon
219.0,7.0,3.0,1.0,1.0,1.0,365.2407638728618,2.0,1.0,part_1,,,,,,,,,,,,,orange,I
76.0,6.0,2.0,1.0,3.0,3.0,307.1813266724348,2.0,1.0,part_1,,,,,,,,,,,,,blue,triangle
388.0,4.0,4.0,0.0,4.0,4.0,344.827402383089,2.0,1.0,part_1,,,,,,,,,,,,,magenta,cross
41.0,1.0,1.0,0.0,3.0,3.0,339.5123612135649,2.0,1.0,part_1,,,,,,,,,,,,,green,hexagon
221.0,3.0,3.0,0.0,4.0,4.0,321.1921416223049,2.0,1.0,part_1,,,,,,,,,,,,,gray,circle
209.0,7.0,3.0,1.0,1.0,1.0,324.57145117223257,2.0,1.0,part_1,,,,,,,,,,,,,orange,I
0.0,5.0,0.0,1.0,3.0,3.0,328.7555761635303,2.0,1.0,part_1,,,,,,,,,,,,,white,flipped triangle
120.0,2.0,2.0,0.0,1.0,1.0,389.8921031504869,2.0,1.0,part_1,,,,,,,,,,,,,yellow,diamond
411.0,8.0,4.0,1.0,4.0,4.0,361.1612729728222,3.0,1.0,part_1,,,,,,,,,,,,,cyan,square
386.0,8.0,4.0,1.0,2.0,2.0,373.4032437205314,3.0,1.0,part_1,,,,,,,,,,,,,cyan,square
0.0,4.0,0.0,0.0,4.0,4.0,307.0994392037391,3.0,1.0,part_1,,,,,,,,,,,,,magenta,cross
405.0,4.0,4.0,0.0,3.0,3.0,313.8759955763817,3.0,1.0,part_1,,,,,,,,,,,,,magenta,cross
0.0,6.0,0.0,1.0,1.0,1.0,269.0289039164781,3.0,1.0,part_1,,,,,,,,,,,,,blue,triangle
389.0,4.0,4.0,0.0,2.0,2.0,282.8786764293909,3.0,1.0,part_1,,,,,,,,,,,,,magenta,cross
0.0,1.0,0.0,0.0,2.0,2.0,296.0091922432184,3.0,1.0,part_1,,,,,,,,,,,,,green,hexagon
119.0,6.0,2.0,1.0,2.0,2.0,297.9406137019396,3.0,1.0,part_1,,,,,,,,,,,,,blue,triangle
0.0,4.0,0.0,0.0,3.0,3.0,352.1619606763124,3.0,1.0,part_1,,,,,,,,,,,,,magenta,cross
210.0,7.0,3.0,1.0,2.0,2.0,357.8549325466156,3.0,1.0,part_1,,,,,,,,,,,,,orange,I
94.0,2.0,2.0,0.0,4.0,4.0,303.7426974624395,3.0,1.0,part_1,,,,,,,,,,,,,yellow,diamond
116.0,6.0,2.0,1.0,3.0,3.0,320.1988283544779,3.0,1.0,part_1,,,,,,,,,,,,,blue,triangle
0.0,6.0,0.0,1.0,1.0,1.0,329.1240204125643,3.0,1.0,part_1,,,,,,,,,,,,,blue,triangle
104.0,6.0,2.0,1.0,1.0,1.0,336.0931947827339,3.0,1.0,part_1,,,,,,,,,,,,,blue,triangle
0.0,5.0,0.0,1.0,1.0,1.0,413.5584607720375,3.0,1.0,part_1,,,,,,,,,,,,,white,flipped triangle
0.0,6.0,0.0,1.0,2.0,2.0,430.5740557610988,3.0,1.0,part_1,,,,,,,,,,,,,blue,triangle
202.0,7.0,3.0,1.0,1.0,1.0,413.9370433986187,3.0,1.0,part_1,,,,,,,,,,,,,orange,I
388.0,4.0,4.0,0.0,4.0,4.0,336.3516069948673,3.0,1.0,part_1,,,,,,,,,,,,,magenta,cross
67.0,1.0,1.0,0.0,2.0,2.0,328.1227443367243,3.0,1.0,part_1,,,,,,,,,,,,,green,hexagon
0.0,2.0,0.0,0.0,3.0,3.0,482.553020119667,3.0,1.0,part_1,,,,,,,,,,,,,yellow,diamond
394.0,4.0,4.0,0.0,3.0,3.0,409.0151786804199,3.0,1.0,part_1,,,,,,,,,,,,,magenta,cross
177.0,7.0,3.0,1.0,4.0,4.0,339.1117006540298,3.0,1.0,part_1,,,,,,,,,,,,,orange,I
80.0,6.0,2.0,1.0,1.0,1.0,378.9370413869619,3.0,1.0,part_1,,,,,,,,,,,,,blue,triangle
119.0,6.0,2.0,1.0,2.0,2.0,336.2904153764248,3.0,1.0,part_1,,,,,,,,,,,,,blue,triangle
108.0,2.0,2.0,0.0,4.0,4.0,418.0015455931425,3.0,1.0,part_1,,,,,,,,,,,,,yellow,diamond
387.0,4.0,4.0,0.0,1.0,1.0,382.4259042739868,3.0,1.0,part_1,,,,,,,,,,,,,magenta,cross
53.0,1.0,1.0,0.0,4.0,4.0,316.2335101515054,3.0,1.0,part_1,,,,,,,,,,,,,green,hexagon
0.0,8.0,0.0,1.0,1.0,1.0,319.6313828229904,3.0,1.0,part_1,,,,,,,,,,,,,cyan,square
203.0,3.0,3.0,0.0,3.0,3.0,375.1372974365949,3.0,1.0,part_1,,,,,,,,,,,,,gray,circle
0.0,3.0,0.0,0.0,3.0,3.0,442.2087352722883,3.0,1.0,part_1,,,,,,,,,,,,,gray,circle
124.0,6.0,2.0,1.0,2.0,2.0,365.3126955032348,3.0,1.0,part_1,,,,,,,,,,,,,blue,triangle
57.0,5.0,1.0,1.0,2.0,2.0,292.6483787596226,3.0,1.0,part_1,,,,,,,,,,,,,white,flipped triangle
404.0,4.0,4.0,0.0,3.0,3.0,353.7442032247782,3.0,1.0,part_1,,,,,,,,,,,,,magenta,cross
0.0,3.0,0.0,0.0,2.0,2.0,333.5322961211204,3.0,1.0,part_1,,,,,,,,,,,,,gray,circle
410.0,8.0,4.0,1.0,1.0,1.0,368.9952492713928,3.0,1.0,part_1,,,,,,,,,,,,,cyan,square
0.0,8.0,0.0,1.0,2.0,2.0,303.7650939077139,3.0,1.0,part_1,,,,,,,,,,,,,cyan,square
380.0,4.0,4.0,0.0,4.0,4.0,321.2719745934009,3.0,1.0,part_1,,,,,,,,,,,,,magenta,cross
410.0,8.0,4.0,1.0,4.0,4.0,326.5715055167675,3.0,1.0,part_1,,,,,,,,,,,,,cyan,square
384.0,4.0,4.0,0.0,3.0,3.0,340.8963400870561,3.0,1.0,part_1,,,,,,,,,,,,,magenta,cross
108.0,2.0,2.0,0.0,3.0,3.0,311.3590180873871,3.0,1.0,part_1,,,,,,,,,,,,,yellow,diamond
376.0,8.0,4.0,1.0,2.0,2.0,334.906643256545,3.0,1.0,part_1,,,,,,,,,,,,,cyan,square
94.0,6.0,2.0,1.0,3.0,3.0,313.8750679790973,3.0,1.0,part_1,,,,,,,,,,,,,blue,triangle
95.0,6.0,2.0,1.0,3.0,3.0,325.5992121994495,3.0,1.0,part_1,,,,,,,,,,,,,blue,triangle
187.0,3.0,3.0,0.0,1.0,1.0,379.7848280519247,3.0,1.0,part_1,,,,,,,,,,,,,gray,circle
101.0,6.0,2.0,1.0,1.0,1.0,361.9775846600532,3.0,1.0,part_1,,,,,,,,,,,,,blue,triangle
119.0,2.0,2.0,0.0,1.0,1.0,324.335191398859,3.0,1.0,part_1,,,,,,,,,,,,,yellow,diamond
0.0,3.0,0.0,0.0,4.0,4.0,371.8254510313272,3.0,1.0,part_1,,,,,,,,,,,,,gray,circle
48.0,5.0,1.0,1.0,1.0,1.0,343.339966610074,3.0,1.0,part_1,,,,,,,,,,,,,white,flipped triangle
96.0,2.0,2.0,0.0,3.0,3.0,347.7596938610077,3.0,1.0,part_1,,,,,,,,,,,,,yellow,diamond
73.0,5.0,1.0,1.0,2.0,2.0,326.5676479786634,3.0,1.0,part_1,,,,,,,,,,,,,white,flipped triangle
38.0,5.0,1.0,1.0,4.0,4.0,323.5741127282381,3.0,1.0,part_1,,,,,,,,,,,,,white,flipped triangle
224.0,7.0,3.0,1.0,3.0,3.0,529.7602098435163,3.0,1.0,part_1,,,,,,,,,,,,,orange,I
108.0,6.0,2.0,1.0,1.0,1.0,349.2947425693273,3.0,1.0,part_1,,,,,,,,,,,,,blue,triangle
104.0,2.0,2.0,0.0,3.0,3.0,345.9886647760868,3.0,1.0,part_1,,,,,,,,,,,,,yellow,diamond
48.0,5.0,1.0,1.0,3.0,3.0,349.757706746459,3.0,1.0,part_1,,,,,,,,,,,,,white,flipped triangle
47.0,5.0,1.0,1.0,4.0,4.0,292.4933545291424,3.0,1.0,part_1,,,,,,,,,,,,,white,flipped triangle
186.0,7.0,3.0,1.0,4.0,4.0,336.7706350982189,3.0,1.0,part_1,,,,,,,,,,,,,orange,I
67.0,5.0,1.0,1.0,3.0,3.0,325.847128406167,3.0,1.0,part_1,,,,,,,,,,,,,white,flipped triangle
386.0,4.0,4.0,0.0,4.0,4.0,298.5324244946241,3.0,1.0,part_1,,,,,,,,,,,,,magenta,cross
46.0,5.0,1.0,1.0,2.0,2.0,326.0372877120971,3.0,1.0,part_1,,,,,,,,,,,,,white,flipped triangle
394.0,8.0,4.0,1.0,2.0,2.0,346.2865184992552,3.0,1.0,part_1,,,,,,,,,,,,,cyan,square
176.0,7.0,3.0,1.0,3.0,3.0,480.1274370402097,3.0,1.0,part_1,,,,,,,,,,,,,orange,I
401.0,4.0,4.0,0.0,4.0,4.0,365.4987476766109,3.0,1.0,part_1,,,,,,,,,,,,,magenta,cross
88.0,6.0,2.0,1.0,3.0,3.0,410.0502748042345,3.0,1.0,part_1,,,,,,,,,,,,,blue,triangle
0.0,7.0,0.0,1.0,1.0,1.0,437.333133071661,3.0,1.0,part_1,,,,,,,,,,,,,orange,I
124.0,2.0,2.0,0.0,2.0,2.0,349.8950991779566,3.0,1.0,part_1,,,,,,,,,,,,,yellow,diamond
0.0,1.0,0.0,0.0,2.0,2.0,334.1408837586641,3.0,1.0,part_1,,,,,,,,,,,,,green,hexagon
421.0,8.0,4.0,1.0,3.0,3.0,356.8030744791031,3.0,1.0,part_1,,,,,,,,,,,,,cyan,square
416.0,4.0,4.0,0.0,1.0,1.0,361.2963259220123,3.0,1.0,part_1,,,,,,,,,,,,,magenta,cross
32.0,5.0,1.0,1.0,3.0,3.0,292.5249394029379,3.0,1.0,part_1,,,,,,,,,,,,,white,flipped triangle
186.0,7.0,3.0,1.0,1.0,1.0,402.7754608541727,3.0,1.0,part_1,,,,,,,,,,,,,orange,I
192.0,3.0,3.0,0.0,1.0,1.0,365.123514086008,3.0,1.0,part_1,,,,,,,,,,,,,gray,circle
0.0,8.0,0.0,1.0,2.0,2.0,308.2110527902841,3.0,1.0,part_1,,,,,,,,,,,,,cyan,square
411.0,4.0,4.0,0.0,2.0,2.0,393.8223347067833,3.0,1.0,part_1,,,,,,,,,,,,,magenta,cross
88.0,2.0,2.0,0.0,4.0,4.0,355.9715673327446,3.0,1.0,part_1,,,,,,,,,,,,,yellow,diamond
0.0,4.0,0.0,0.0,3.0,3.0,408.3422441035509,3.0,1.0,part_1,,,,,,,,,,,,,magenta,cross
68.0,1.0,1.0,0.0,1.0,1.0,399.9120406806469,3.0,1.0,part_1,,,,,,,,,,,,,green,hexagon
124.0,2.0,2.0,0.0,2.0,2.0,337.6374337822199,3.0,1.0,part_1,,,,,,,,,,,,,yellow,diamond
48.0,1.0,1.0,0.0,3.0,3.0,362.4493852257728,3.0,1.0,part_1,,,,,,,,,,,,,green,hexagon
213.0,7.0,3.0,1.0,3.0,3.0,452.6703804731369,3.0,1.0,part_1,,,,,,,,,,,,,orange,I
0.0,4.0,0.0,0.0,4.0,4.0,472.311595454812,3.0,1.0,part_1,,,,,,,,,,,,,magenta,cross
51.0,5.0,1.0,1.0,2.0,2.0,291.9472847133875,3.0,1.0,part_1,,,,,,,,,,,,,white,flipped triangle
379.0,8.0,4.0,1.0,4.0,4.0,297.274524345994,3.0,1.0,part_1,,,,,,,,,,,,,cyan,square
0.0,6.0,0.0,1.0,4.0,4.0,350.5223356187343,3.0,1.0,part_1,,,,,,,,,,,,,blue,triangle
179.0,3.0,3.0,0.0,4.0,4.0,314.5700190216303,3.0,1.0,part_1,,,,,,,,,,,,,gray,circle
27.0,1.0,1.0,0.0,1.0,1.0,329.2075116187334,3.0,1.0,part_1,,,,,,,,,,,,,green,hexagon
376.0,4.0,4.0,0.0,2.0,2.0,358.7493561208248,3.0,1.0,part_1,,,,,,,,,,,,,magenta,cross
184.0,7.0,3.0,1.0,1.0,1.0,314.3251091241836,3.0,1.0,part_1,,,,,,,,,,,,,orange,I
384.0,8.0,4.0,1.0,3.0,3.0,589.8515973240137,3.0,1.0,part_1,,,,,,,,,,,,,cyan,square
0.0,8.0,0.0,1.0,4.0,4.0,291.5803324431181,3.0,1.0,part_1,,,,,,,,,,,,,cyan,square
108.0,6.0,2.0,1.0,2.0,2.0,320.4166479408741,3.0,1.0,part_1,,,,,,,,,,,,,blue,triangle
111.0,6.0,2.0,1.0,4.0,4.0,299.0241181105375,3.0,1.0,part_1,,,,,,,,,,,,,blue,triangle
203.0,7.0,3.0,1.0,3.0,3.0,368.540896102786,3.0,1.0,part_1,,,,,,,,,,,,,orange,I
0.0,5.0,0.0,1.0,1.0,1.0,312.511283904314,3.0,1.0,part_1,,,,,,,,,,,,,white,flipped triangle
0.0,1.0,0.0,0.0,2.0,2.0,275.7643479853868,3.0,1.0,part_1,,,,,,,,,,,,,green,hexagon
91.0,6.0,2.0,1.0,4.0,4.0,279.8554077744484,3.0,1.0,part_1,,,,,,,,,,,,,blue,triangle
398.0,8.0,4.0,1.0,4.0,4.0,340.4627442359924,3.0,1.0,part_1,,,,,,,,,,,,,cyan,square
38.0,5.0,1.0,1.0,3.0,3.0,418.9728666096926,3.0,1.0,part_1,,,,,,,,,,,,,white,flipped triangle
192.0,3.0,3.0,0.0,2.0,2.0,511.8859186768532,3.0,1.0,part_1,,,,,,,,,,,,,gray,circle
196.0,3.0,3.0,0.0,2.0,2.0,411.5494918078184,3.0,1.0,part_1,,,,,,,,,,,,,gray,circle
223.0,7.0,3.0,1.0,4.0,4.0,332.1803472936153,4.0,1.0,part_1,,,,,,,,,,,,,orange,I
52.0,1.0,1.0,0.0,4.0,4.0,299.2465756833553,4.0,1.0,part_1,,,,,,,,,,,,,green,hexagon
0.0,2.0,0.0,0.0,2.0,2.0,352.3706905543804,4.0,1.0,part_1,,,,,,,,,,,,,yellow,diamond
0.0,1.0,0.0,0.0,3.0,3.0,339.4623249769211,4.0,1.0,part_1,,,,,,,,,,,,,green,hexagon
196.0,7.0,3.0,1.0,1.0,1.0,320.9712523967027,4.0,1.0,part_1,,,,,,,,,,,,,orange,I
180.0,7.0,3.0,1.0,4.0,4.0,316.5639266371727,4.0,1.0,part_1,,,,,,,,,,,,,orange,I
406.0,8.0,4.0,1.0,4.0,4.0,306.1440475285053,4.0,1.0,part_1,,,,,,,,,,,,,cyan,square
53.0,5.0,1.0,1.0,1.0,1.0,252.4088025093078,4.0,1.0,part_1,,,,,,,,,,,,,white,flipped triangle
52.0,5.0,1.0,1.0,3.0,3.0,376.7860028892755,4.0,1.0,part_1,,,,,,,,,,,,,white,flipped triangle
82.0,6.0,2.0,1.0,2.0,2.0,381.549421697855,4.0,1.0,part_1,,,,,,,,,,,,,blue,triangle
406.0,8.0,4.0,1.0,2.0,2.0,426.467951387167,4.0,1.0,part_1,,,,,,,,,,,,,cyan,square
73.0,1.0,1.0,0.0,4.0,4.0,326.9875552505255,4.0,1.0,part_1,,,,,,,,,,,,,green,hexagon
91.0,2.0,2.0,0.0,4.0,4.0,494.1112268716097,4.0,1.0,part_1,,,,,,,,,,,,,yellow,diamond
193.0,7.0,3.0,1.0,2.0,2.0,403.3167827874422,4.0,1.0,part_1,,,,,,,,,,,,,orange,I
76.0,6.0,2.0,1.0,4.0,4.0,367.0859523117542,4.0,1.0,part_1,,,,,,,,,,,,,blue,triangle
184.0,3.0,3.0,0.0,3.0,3.0,322.4533833563328,4.0,1.0,part_1,,,,,,,,,,,,,gray,circle
185.0,3.0,3.0,0.0,2.0,2.0,328.2581754028797,4.0,1.0,part_1,,,,,,,,,,,,,gray,circle
0.0,6.0,0.0,1.0,4.0,4.0,292.278928682208,4.0,1.0,part_1,,,,,,,,,,,,,blue,triangle
78.0,6.0,2.0,1.0,3.0,3.0,433.9001234620809,4.0,1.0,part_1,,,,,,,,,,,,,blue,triangle
401.0,8.0,4.0,1.0,4.0,4.0,334.3695141375065,4.0,1.0,part_1,,,,,,,,,,,,,cyan,square
388.0,8.0,4.0,1.0,2.0,2.0,337.9005100578069,4.0,1.0,part_1,,,,,,,,,,,,,cyan,square
400.0,4.0,4.0,0.0,1.0,1.0,317.9059233516454,4.0,1.0,part_1,,,,,,,,,,,,,magenta,cross
207.0,3.0,3.0,0.0,1.0,1.0,323.9062689244747,4.0,1.0,part_1,,,,,,,,,,,,,gray,circle
112.0,2.0,2.0,0.0,3.0,3.0,407.9029522836208,4.0,1.0,part_1,,,,,,,,,,,,,yellow,diamond
422.0,4.0,4.0,0.0,2.0,2.0,340.8969324082136,4.0,1.0,part_1,,,,,,,,,,,,,magenta,cross
68.0,1.0,1.0,0.0,1.0,1.0,328.7982884794473,4.0,1.0,part_1,,,,,,,,,,,,,green,hexagon
69.0,5.0,1.0,1.0,2.0,2.0,340.9147169440985,4.0,1.0,part_1,,,,,,,,,,,,,white,flipped triangle
48.0,1.0,1.0,0.0,2.0,2.0,361.636970192194,4.0,1.0,part_1,,,,,,,,,,,,,green,hexagon
27.0,1.0,1.0,0.0,3.0,3.0,335.7961531728506,4.0,1.0,part_1,,,,,,,,,,,,,green,hexagon
416.0,8.0,4.0,1.0,3.0,3.0,357.8446470201015,4.0,1.0,part_1,,,,,,,,,,,,,cyan,square
40.0,1.0,1.0,0.0,1.0,1.0,458.4853816777468,4.0,1.0,part_1,,,,,,,,,,,,,green,hexagon
76.0,2.0,2.0,0.0,1.0,1.0,356.5498441457748,4.0,1.0,part_1,,,,,,,,,,,,,yellow,diamond
76.0,6.0,2.0,1.0,3.0,3.0,533.443184569478,4.0,1.0,part_1,,,,,,,,,,,,,blue,triangle
187.0,7.0,3.0,1.0,2.0,2.0,374.1044402122497,4.0,1.0,part_1,,,,,,,,,,,,,orange,I
82.0,6.0,2.0,1.0,3.0,3.0,381.5145660191774,4.0,1.0,part_1,,,,,,,,,,,,,blue,triangle
224.0,3.0,3.0,0.0,2.0,2.0,378.4683980047703,4.0,1.0,part_1,,,,,,,,,,,,,gray,circle
390.0,8.0,4.0,1.0,1.0,1.0,372.7147094905376,4.0,1.0,part_1,,,,,,,,,,,,,cyan,square
28.0,1.0,1.0,0.0,3.0,3.0,377.2449884563684,4.0,1.0,part_1,,,,,,,,,,,,,green,hexagon
119.0,2.0,2.0,0.0,3.0,3.0,328.4010179340839,4.0,1.0,part_1,,,,,,,,,,,,,yellow,diamond
223.0,3.0,3.0,0.0,1.0,1.0,356.533395126462,4.0,1.0,part_1,,,,,,,,,,,,,gray,circle
0.0,6.0,0.0,1.0,2.0,2.0,328.5381980240345,4.0,1.0,part_1,,,,,,,,,,,,,blue,triangle
385.0,4.0,4.0,0.0,4.0,4.0,443.2913511991501,4.0,1.0,part_1,,,,,,,,,,,,,magenta,cross
0.0,2.0,0.0,0.0,1.0,1.0,288.3358113467693,4.0,1.0,part_1,,,,,,,,,,,,,yellow,diamond
404.0,8.0,4.0,1.0,4.0,4.0,342.5572160631418,4.0,1.0,part_1,,,,,,,,,,,,,cyan,square
206.0,3.0,3.0,0.0,1.0,1.0,313.4266957640648,4.0,1.0,part_1,,,,,,,,,,,,,gray,circle
391.0,4.0,4.0,0.0,2.0,2.0,430.364727973938,4.0,1.0,part_1,,,,,,,,,,,,,magenta,cross
420.0,4.0,4.0,0.0,3.0,3.0,447.0820669084787,4.0,1.0,part_1,,,,,,,,,,,,,magenta,cross
0.0,5.0,0.0,1.0,4.0,4.0,273.5233251005411,4.0,1.0,part_1,,,,,,,,,,,,,white,flipped triangle
207.0,7.0,3.0,1.0,2.0,2.0,303.0391596257686,4.0,1.0,part_1,,,,,,,,,,,,,orange,I
383.0,4.0,4.0,0.0,3.0,3.0,331.9431282579899,4.0,1.0,part_1,,,,,,,,,,,,,magenta,cross
187.0,3.0,3.0,0.0,1.0,1.0,333.7331749498844,4.0,1.0,part_1,,,,,,,,,,,,,gray,circle
32.0,1.0,1.0,0.0,2.0,2.0,315.2816798537969,4.0,1.0,part_1,,,,,,,,,,,,,green,hexagon
114.0,2.0,2.0,0.0,2.0,2.0,289.6874435245991,4.0,1.0,part_1,,,,,,,,,,,,,yellow,diamond
101.0,2.0,2.0,0.0,2.0,2.0,414.3000431358814,4.0,1.0,part_1,,,,,,,,,,,,,yellow,diamond
216.0,3.0,3.0,0.0,3.0,3.0,308.6562175303697,4.0,1.0,part_1,,,,,,,,,,,,,gray,circle
410.0,4.0,4.0,0.0,2.0,2.0,304.5436516404152,4.0,1.0,part_1,,,,,,,,,,,,,magenta,cross
0.0,7.0,0.0,1.0,1.0,1.0,315.7237209379673,4.0,1.0,part_1,,,,,,,,,,,,,orange,I
390.0,4.0,4.0,0.0,1.0,1.0,400.4388339817524,4.0,1.0,part_1,,,,,,,,,,,,,magenta,cross
112.0,6.0,2.0,1.0,3.0,3.0,299.2096412926912,4.0,1.0,part_1,,,,,,,,,,,,,blue,triangle
217.0,7.0,3.0,1.0,3.0,3.0,402.135843411088,4.0,1.0,part_1,,,,,,,,,,,,,orange,I
0.0,8.0,0.0,1.0,4.0,4.0,303.8883749395609,4.0,1.0,part_1,,,,,,,,,,,,,cyan,square
406.0,4.0,4.0,0.0,1.0,1.0,281.3704386353493,4.0,1.0,part_1,,,,,,,,,,,,,magenta,cross
0.0,3.0,0.0,0.0,3.0,3.0,350.5976106971502,4.0,1.0,part_1,,,,,,,,,,,,,gray,circle
124.0,6.0,2.0,1.0,2.0,2.0,277.4634752422571,4.0,1.0,part_1,,,,,,,,,,,,,blue,triangle
63.0,5.0,1.0,1.0,2.0,2.0,328.0212748795748,4.0,1.0,part_1,,,,,,,,,,,,,white,flipped triangle
421.0,4.0,4.0,0.0,2.0,2.0,307.848148047924,4.0,1.0,part_1,,,,,,,,,,,,,magenta,cross
400.0,4.0,4.0,0.0,2.0,2.0,328.7745714187622,4.0,1.0,part_1,,,,,,,,,,,,,magenta,cross
35.0,1.0,1.0,0.0,3.0,3.0,320.620784536004,4.0,1.0,part_1,,,,,,,,,,,,,green,hexagon
411.0,8.0,4.0,1.0,1.0,1.0,323.7771224230528,4.0,1.0,part_1,,,,,,,,,,,,,cyan,square
424.0,8.0,4.0,1.0,1.0,1.0,337.1192440390587,4.0,1.0,part_1,,,,,,,,,,,,,cyan,square
0.0,3.0,0.0,0.0,2.0,2.0,394.9644882231951,4.0,1.0,part_1,,,,,,,,,,,,,gray,circle
206.0,3.0,3.0,0.0,2.0,2.0,488.2144872099161,4.0,1.0,part_1,,,,,,,,,,,,,gray,circle
405.0,8.0,4.0,1.0,2.0,2.0,301.7315678298473,4.0,1.0,part_1,,,,,,,,,,,,,cyan,square
0.0,7.0,0.0,1.0,4.0,4.0,491.3566950708627,4.0,1.0,part_1,,,,,,,,,,,,,orange,I
122.0,2.0,2.0,0.0,4.0,4.0,333.9570835232734,4.0,1.0,part_1,,,,,,,,,,,,,yellow,diamond
78.0,2.0,2.0,0.0,3.0,3.0,314.9846252053976,4.0,1.0,part_1,,,,,,,,,,,,,yellow,diamond
47.0,1.0,1.0,0.0,2.0,2.0,432.437963783741,4.0,1.0,part_1,,,,,,,,,,,,,green,hexagon
0.0,5.0,0.0,1.0,4.0,4.0,416.6631028056144,4.0,1.0,part_1,,,,,,,,,,,,,white,flipped triangle
180.0,3.0,3.0,0.0,2.0,2.0,539.473270997405,4.0,1.0,part_1,,,,,,,,,,,,,gray,circle
200.0,3.0,3.0,0.0,4.0,4.0,353.3924464136362,4.0,1.0,part_1,,,,,,,,,,,,,gray,circle
418.0,8.0,4.0,1.0,3.0,3.0,332.7278178185224,4.0,1.0,part_1,,,,,,,,,,,,,cyan,square
205.0,3.0,3.0,0.0,3.0,3.0,367.1633936464786,4.0,1.0,part_1,,,,,,,,,,,,,gray,circle
53.0,5.0,1.0,1.0,2.0,2.0,387.8956958651542,4.0,1.0,part_1,,,,,,,,,,,,,white,flipped triangle
404.0,8.0,4.0,1.0,1.0,1.0,313.8417396694422,4.0,1.0,part_1,,,,,,,,,,,,,cyan,square
118.0,6.0,2.0,1.0,1.0,1.0,313.0327556282282,4.0,1.0,part_1,,,,,,,,,,,,,blue,triangle
211.0,7.0,3.0,1.0,2.0,2.0,274.1535156965256,4.0,1.0,part_1,,,,,,,,,,,,,orange,I
0.0,2.0,0.0,0.0,1.0,1.0,344.3157281726599,4.0,1.0,part_1,,,,,,,,,,,,,yellow,diamond
0.0,3.0,0.0,0.0,3.0,3.0,373.7676441669464,4.0,1.0,part_1,,,,,,,,,,,,,gray,circle
217.0,3.0,3.0,0.0,3.0,3.0,411.1247770488262,4.0,1.0,part_1,,,,,,,,,,,,,gray,circle
0.0,8.0,0.0,1.0,4.0,4.0,502.2627357393503,4.0,1.0,part_1,,,,,,,,,,,,,cyan,square
181.0,3.0,3.0,0.0,4.0,4.0,565.168134868145,4.0,1.0,part_1,,,,,,,,,,,,,gray,circle
0.0,5.0,0.0,1.0,1.0,1.0,376.6464851796627,4.0,1.0,part_1,,,,,,,,,,,,,white,flipped triangle
0.0,5.0,0.0,1.0,1.0,1.0,282.5531680136919,4.0,1.0,part_1,,,,,,,,,,,,,white,flipped triangle
210.0,3.0,3.0,0.0,3.0,3.0,306.1288800090551,4.0,1.0,part_1,,,,,,,,,,,,,gray,circle
209.0,3.0,3.0,0.0,4.0,4.0,343.0202044546604,4.0,1.0,part_1,,,,,,,,,,,,,gray,circle
67.0,1.0,1.0,0.0,2.0,2.0,291.3627065718174,4.0,1.0,part_1,,,,,,,,,,,,,green,hexagon
214.0,3.0,3.0,0.0,2.0,2.0,365.73794670403,4.0,1.0,part_1,,,,,,,,,,,,,gray,circle
0.0,2.0,0.0,0.0,1.0,1.0,269.9995599687099,4.0,1.0,part_1,,,,,,,,,,,,,yellow,diamond
91.0,6.0,2.0,1.0,2.0,2.0,262.286951765418,4.0,1.0,part_1,,,,,,,,,,,,,blue,triangle
65.0,1.0,1.0,0.0,4.0,4.0,294.0771356225014,4.0,1.0,part_1,,,,,,,,,,,,,green,hexagon
0.0,1.0,1.0,0.0,5.0,5.0,395.0809352099895,1.0,0.0,part_2,go,250.0,250.0,1.0,,,,,,,,,green,hexagon
0.0,2.0,2.0,0.0,6.0,6.0,628.2967925071716,1.0,0.0,part_2,go,250.0,250.0,1.0,,,,,,,,,yellow,diamond
0.0,1.0,1.0,0.0,5.0,5.0,442.6926486194134,1.0,0.0,part_2,go,250.0,250.0,1.0,,,,,,,,,green,hexagon
0.0,8.0,4.0,1.0,5.0,5.0,426.4371022582054,1.0,0.0,part_2,go,250.0,250.0,1.0,,,,,,,,,cyan,square
0.0,1.0,1.0,0.0,6.0,6.0,729.8042047768831,1.0,0.0,part_2,go,250.0,250.0,1.0,,,,,,,,,green,hexagon
0.0,5.0,1.0,1.0,5.0,5.0,1126.3803392648697,1.0,0.0,part_2,go,250.0,250.0,1.0,,,,,,,,,white,flipped triangle
0.0,8.0,4.0,1.0,5.0,0.0,0.0,1.0,0.0,part_2,stop,250.0,250.0,4.0,,,,,,,,,cyan,square
0.0,8.0,4.0,1.0,6.0,0.0,0.0,1.0,0.0,part_2,stop,300.0,250.0,4.0,,,,,,,,,cyan,square
0.0,7.0,3.0,1.0,6.0,0.0,0.0,1.0,0.0,part_2,stop,300.0,300.0,4.0,,,,,,,,,orange,I
0.0,4.0,4.0,0.0,6.0,6.0,342.861957848072,1.0,0.0,part_2,go,300.0,350.0,1.0,,,,,,,,,magenta,cross
0.0,5.0,1.0,1.0,6.0,0.0,0.0,1.0,0.0,part_2,stop,300.0,350.0,4.0,,,,,,,,,white,flipped triangle
0.0,5.0,1.0,1.0,6.0,6.0,284.9082443863153,1.0,0.0,part_2,stop,300.0,400.0,3.0,,,,,,,,,white,flipped triangle
0.0,6.0,2.0,1.0,6.0,6.0,365.4745500534773,1.0,0.0,part_2,stop,300.0,350.0,3.0,,,,,,,,,blue,triangle
0.0,2.0,2.0,0.0,5.0,5.0,357.8429482877254,1.0,0.0,part_2,go,300.0,300.0,1.0,,,,,,,,,yellow,diamond
0.0,2.0,2.0,0.0,6.0,6.0,363.2555827498436,1.0,0.0,part_2,go,300.0,300.0,1.0,,,,,,,,,yellow,diamond
0.0,7.0,3.0,1.0,6.0,6.0,322.5154634565115,1.0,0.0,part_2,stop,300.0,300.0,3.0,,,,,,,,,orange,I
0.0,6.0,2.0,1.0,5.0,5.0,324.3803922086954,1.0,0.0,part_2,go,300.0,250.0,1.0,,,,,,,,,blue,triangle
0.0,2.0,2.0,0.0,6.0,6.0,248.5882453620433,1.0,0.0,part_2,go,300.0,250.0,1.0,,,,,,,,,yellow,diamond
0.0,5.0,1.0,1.0,5.0,5.0,264.1971707344055,1.0,0.0,part_2,stop,300.0,250.0,3.0,,,,,,,,,white,flipped triangle
0.0,3.0,3.0,0.0,5.0,5.0,298.2940599322319,1.0,0.0,part_2,go,250.0,250.0,1.0,,,,,,,,,gray,circle
0.0,8.0,4.0,1.0,6.0,6.0,319.2164525389671,1.0,0.0,part_2,stop,250.0,250.0,3.0,,,,,,,,,cyan,square
0.0,7.0,3.0,1.0,6.0,0.0,0.0,1.0,0.0,part_2,stop,250.0,200.0,4.0,,,,,,,,,orange,I
0.0,2.0,2.0,0.0,6.0,6.0,287.5742353498935,1.0,0.0,part_2,go,250.0,250.0,1.0,,,,,,,,,yellow,diamond
0.0,1.0,1.0,0.0,6.0,6.0,429.2293451726436,1.0,0.0,part_2,go,250.0,250.0,1.0,,,,,,,,,green,hexagon
0.0,6.0,2.0,1.0,6.0,6.0,352.1645255386829,1.0,0.0,part_2,go,250.0,250.0,1.0,,,,,,,,,blue,triangle
0.0,7.0,3.0,1.0,6.0,6.0,451.4579530805349,1.0,0.0,part_2,stop,250.0,250.0,3.0,,,,,,,,,orange,I
0.0,8.0,4.0,1.0,6.0,6.0,380.48080727458,1.0,0.0,part_2,stop,250.0,200.0,3.0,,,,,,,,,cyan,square
0.0,8.0,4.0,1.0,6.0,6.0,634.2162638902664,1.0,0.0,part_2,go,250.0,150.0,1.0,,,,,,,,,cyan,square
0.0,8.0,4.0,1.0,5.0,5.0,275.2510271966457,1.0,0.0,part_2,stop,250.0,150.0,3.0,,,,,,,,,cyan,square
0.0,2.0,2.0,0.0,5.0,5.0,385.7138659805059,1.0,0.0,part_2,go,200.0,150.0,1.0,,,,,,,,,yellow,diamond
0.0,3.0,3.0,0.0,5.0,5.0,299.6637914329767,1.0,0.0,part_2,go,200.0,150.0,1.0,,,,,,,,,gray,circle
0.0,7.0,3.0,1.0,6.0,6.0,280.3933303803205,1.0,0.0,part_2,stop,200.0,150.0,3.0,,,,,,,,,orange,I
0.0,4.0,4.0,0.0,5.0,5.0,249.46577101945869,1.0,0.0,part_2,go,200.0,100.0,1.0,,,,,,,,,magenta,cross
0.0,3.0,3.0,0.0,6.0,6.0,345.0847789645195,1.0,0.0,part_2,go,200.0,100.0,1.0,,,,,,,,,gray,circle
0.0,2.0,2.0,0.0,6.0,6.0,302.4821355938911,1.0,0.0,part_2,go,200.0,100.0,1.0,,,,,,,,,yellow,diamond
0.0,3.0,3.0,0.0,6.0,6.0,397.9965709149837,1.0,0.0,part_2,go,200.0,100.0,1.0,,,,,,,,,gray,circle
0.0,5.0,1.0,1.0,6.0,6.0,817.5311796367168,2.0,0.0,part_2,go,200.0,100.0,1.0,,,,,,,,,white,flipped triangle
0.0,1.0,1.0,0.0,6.0,6.0,318.8310638070106,2.0,0.0,part_2,go,200.0,100.0,1.0,,,,,,,,,green,hexagon
0.0,7.0,3.0,1.0,5.0,5.0,286.3375321030617,2.0,0.0,part_2,stop,200.0,100.0,3.0,,,,,,,,,orange,I
0.0,3.0,3.0,0.0,5.0,5.0,408.6794909089803,2.0,0.0,part_2,go,150.0,100.0,1.0,,,,,,,,,gray,circle
0.0,7.0,3.0,1.0,6.0,0.0,0.0,2.0,0.0,part_2,stop,150.0,100.0,4.0,,,,,,,,,orange,I
0.0,3.0,3.0,0.0,5.0,5.0,316.3404054939747,2.0,0.0,part_2,go,150.0,150.0,1.0,,,,,,,,,gray,circle
0.0,5.0,1.0,1.0,6.0,0.0,0.0,2.0,0.0,part_2,stop,150.0,150.0,4.0,,,,,,,,,white,flipped triangle
0.0,1.0,1.0,0.0,6.0,6.0,335.1312018930912,2.0,0.0,part_2,go,150.0,200.0,1.0,,,,,,,,,green,hexagon
0.0,5.0,1.0,1.0,6.0,6.0,259.5233842730522,2.0,0.0,part_2,stop,150.0,200.0,3.0,,,,,,,,,white,flipped triangle
0.0,2.0,2.0,0.0,6.0,6.0,450.533477589488,2.0,0.0,part_2,go,150.0,150.0,1.0,,,,,,,,,yellow,diamond
0.0,3.0,3.0,0.0,5.0,5.0,230.01396656036368,2.0,0.0,part_2,go,150.0,150.0,1.0,,,,,,,,,gray,circle
0.0,4.0,4.0,0.0,5.0,5.0,284.0182222425937,2.0,0.0,part_2,go,150.0,150.0,1.0,,,,,,,,,magenta,cross
0.0,2.0,2.0,0.0,6.0,6.0,355.3567603230476,2.0,0.0,part_2,go,150.0,150.0,1.0,,,,,,,,,yellow,diamond
0.0,8.0,4.0,1.0,6.0,6.0,264.781154692173,2.0,0.0,part_2,stop,150.0,150.0,3.0,,,,,,,,,cyan,square
0.0,5.0,1.0,1.0,5.0,5.0,275.1594521105289,2.0,0.0,part_2,stop,150.0,100.0,3.0,,,,,,,,,white,flipped triangle
0.0,4.0,4.0,0.0,5.0,5.0,270.8074450492859,2.0,0.0,part_2,go,100.0,100.0,1.0,,,,,,,,,magenta,cross
0.0,7.0,3.0,1.0,5.0,5.0,297.491293400526,2.0,0.0,part_2,stop,100.0,100.0,3.0,,,,,,,,,orange,I
0.0,2.0,2.0,0.0,6.0,6.0,294.0935175865888,2.0,0.0,part_2,go,50.0,100.0,1.0,,,,,,,,,yellow,diamond
0.0,6.0,2.0,1.0,6.0,0.0,0.0,2.0,0.0,part_2,stop,50.0,100.0,4.0,,,,,,,,,blue,triangle
0.0,3.0,3.0,0.0,6.0,6.0,286.8877928704023,2.0,0.0,part_2,go,50.0,150.0,1.0,,,,,,,,,gray,circle
0.0,4.0,4.0,0.0,6.0,6.0,494.6195632219314,2.0,0.0,part_2,go,50.0,150.0,1.0,,,,,,,,,magenta,cross
0.0,8.0,4.0,1.0,5.0,0.0,0.0,2.0,0.0,part_2,stop,50.0,150.0,4.0,,,,,,,,,cyan,square
0.0,6.0,2.0,1.0,6.0,6.0,308.0931454896927,2.0,0.0,part_2,stop,100.0,150.0,3.0,,,,,,,,,blue,triangle
0.0,5.0,1.0,1.0,5.0,0.0,0.0,2.0,0.0,part_2,stop,100.0,100.0,4.0,,,,,,,,,white,flipped triangle
0.0,3.0,3.0,0.0,6.0,6.0,282.1718044579029,2.0,0.0,part_2,go,150.0,100.0,1.0,,,,,,,,,gray,circle
0.0,4.0,4.0,0.0,6.0,6.0,325.5746271461248,2.0,0.0,part_2,go,150.0,100.0,1.0,,,,,,,,,magenta,cross
0.0,8.0,4.0,1.0,6.0,0.0,0.0,2.0,0.0,part_2,stop,150.0,100.0,4.0,,,,,,,,,cyan,square
0.0,5.0,1.0,1.0,6.0,0.0,0.0,2.0,0.0,part_2,stop,150.0,150.0,4.0,,,,,,,,,white,flipped triangle
0.0,1.0,1.0,0.0,5.0,5.0,484.1353129595518,2.0,0.0,part_2,go,150.0,200.0,1.0,,,,,,,,,green,hexagon
0.0,8.0,4.0,1.0,6.0,0.0,0.0,2.0,0.0,part_2,stop,150.0,200.0,4.0,,,,,,,,,cyan,square
0.0,2.0,2.0,0.0,5.0,5.0,368.8264489173889,2.0,0.0,part_2,go,150.0,250.0,1.0,,,,,,,,,yellow,diamond
0.0,6.0,2.0,1.0,6.0,6.0,385.6000360101461,2.0,0.0,part_2,go,150.0,250.0,1.0,,,,,,,,,blue,triangle
0.0,7.0,3.0,1.0,6.0,0.0,0.0,2.0,0.0,part_2,stop,150.0,250.0,4.0,,,,,,,,,orange,I
0.0,4.0,4.0,0.0,6.0,6.0,392.7577249705791,2.0,0.0,part_2,go,150.0,300.0,1.0,,,,,,,,,magenta,cross
0.0,3.0,3.0,0.0,5.0,5.0,356.5841559320688,2.0,0.0,part_2,go,150.0,300.0,1.0,,,,,,,,,gray,circle
0.0,8.0,4.0,1.0,5.0,5.0,380.9381388127804,2.0,0.0,part_2,stop,150.0,300.0,3.0,,,,,,,,,cyan,square
0.0,8.0,4.0,1.0,5.0,5.0,279.0525164455175,3.0,0.0,part_2,stop,100.0,300.0,3.0,,,,,,,,,cyan,square
0.0,1.0,1.0,0.0,6.0,6.0,283.761590719223,3.0,0.0,part_2,go,50.0,300.0,1.0,,,,,,,,,green,hexagon
0.0,8.0,4.0,1.0,6.0,6.0,283.7078720331192,3.0,0.0,part_2,go,50.0,300.0,1.0,,,,,,,,,cyan,square
0.0,6.0,2.0,1.0,6.0,6.0,244.6034234017133,3.0,0.0,part_2,stop,50.0,300.0,3.0,,,,,,,,,blue,triangle
0.0,1.0,1.0,0.0,6.0,6.0,294.1258680075407,3.0,0.0,part_2,go,50.0,250.0,1.0,,,,,,,,,green,hexagon
0.0,8.0,4.0,1.0,5.0,0.0,0.0,3.0,0.0,part_2,stop,50.0,250.0,4.0,,,,,,,,,cyan,square
0.0,5.0,1.0,1.0,6.0,6.0,266.4617877453565,3.0,0.0,part_2,go,100.0,250.0,1.0,,,,,,,,,white,flipped triangle
0.0,7.0,3.0,1.0,5.0,5.0,272.5119069218635,3.0,0.0,part_2,go,100.0,250.0,1.0,,,,,,,,,orange,I
0.0,8.0,4.0,1.0,5.0,5.0,283.8237415999174,3.0,0.0,part_2,go,100.0,250.0,1.0,,,,,,,,,cyan,square
0.0,2.0,2.0,0.0,5.0,5.0,383.5917543619871,3.0,0.0,part_2,go,100.0,250.0,1.0,,,,,,,,,yellow,diamond
0.0,5.0,1.0,1.0,5.0,0.0,0.0,3.0,0.0,part_2,stop,100.0,250.0,4.0,,,,,,,,,white,flipped triangle
0.0,1.0,1.0,0.0,5.0,5.0,265.787947922945,3.0,0.0,part_2,go,150.0,250.0,1.0,,,,,,,,,green,hexagon
0.0,5.0,1.0,1.0,5.0,5.0,274.0905806422233,3.0,0.0,part_2,stop,150.0,250.0,3.0,,,,,,,,,white,flipped triangle
0.0,2.0,2.0,0.0,6.0,6.0,573.7475249916315,3.0,0.0,part_2,go,100.0,250.0,1.0,,,,,,,,,yellow,diamond
0.0,5.0,1.0,1.0,5.0,5.0,368.1492637842893,3.0,0.0,part_2,go,100.0,250.0,1.0,,,,,,,,,white,flipped triangle
0.0,8.0,4.0,1.0,6.0,6.0,332.2241734713316,3.0,0.0,part_2,stop,100.0,250.0,3.0,,,,,,,,,cyan,square
0.0,3.0,3.0,0.0,6.0,6.0,317.3420168459415,3.0,0.0,part_2,go,100.0,200.0,1.0,,,,,,,,,gray,circle
0.0,1.0,1.0,0.0,6.0,6.0,317.9731108248234,3.0,0.0,part_2,go,100.0,200.0,1.0,,,,,,,,,green,hexagon
0.0,3.0,3.0,0.0,6.0,6.0,307.6479565352201,3.0,0.0,part_2,go,100.0,200.0,1.0,,,,,,,,,gray,circle
0.0,4.0,4.0,0.0,5.0,5.0,268.6051558703184,3.0,0.0,part_2,go,100.0,200.0,1.0,,,,,,,,,magenta,cross
0.0,4.0,4.0,0.0,6.0,6.0,273.9369869232178,3.0,0.0,part_2,go,100.0,200.0,1.0,,,,,,,,,magenta,cross
0.0,5.0,1.0,1.0,6.0,6.0,291.4351187646389,3.0,0.0,part_2,go,100.0,200.0,1.0,,,,,,,,,white,flipped triangle
0.0,5.0,1.0,1.0,5.0,5.0,304.9021437764168,3.0,0.0,part_2,go,100.0,200.0,1.0,,,,,,,,,white,flipped triangle
0.0,5.0,1.0,1.0,6.0,6.0,267.0252546668052,3.0,0.0,part_2,stop,100.0,200.0,3.0,,,,,,,,,white,flipped triangle
0.0,2.0,2.0,0.0,5.0,5.0,287.1679551899433,3.0,0.0,part_2,go,100.0,150.0,1.0,,,,,,,,,yellow,diamond
0.0,4.0,4.0,0.0,6.0,6.0,326.3332117348909,3.0,0.0,part_2,go,100.0,150.0,1.0,,,,,,,,,magenta,cross
0.0,2.0,2.0,0.0,5.0,5.0,277.8002638369798,3.0,0.0,part_2,go,100.0,150.0,1.0,,,,,,,,,yellow,diamond
0.0,1.0,1.0,0.0,6.0,6.0,302.0971640944481,3.0,0.0,part_2,go,100.0,150.0,1.0,,,,,,,,,green,hexagon
0.0,2.0,2.0,0.0,5.0,5.0,436.8418231606483,3.0,0.0,part_2,go,100.0,150.0,1.0,,,,,,,,,yellow,diamond
0.0,1.0,1.0,0.0,6.0,6.0,613.7886270880699,3.0,0.0,part_2,go,100.0,150.0,1.0,,,,,,,,,green,hexagon
0.0,7.0,3.0,1.0,6.0,6.0,499.6543377637863,3.0,0.0,part_2,stop,100.0,150.0,3.0,,,,,,,,,orange,I
0.0,2.0,2.0,0.0,5.0,5.0,300.2469949424267,3.0,0.0,part_2,go,100.0,100.0,1.0,,,,,,,,,yellow,diamond
0.0,2.0,2.0,0.0,5.0,5.0,266.6741441935301,3.0,0.0,part_2,go,100.0,100.0,1.0,,,,,,,,,yellow,diamond
0.0,5.0,1.0,1.0,5.0,0.0,0.0,3.0,0.0,part_2,stop,100.0,100.0,4.0,,,,,,,,,white,flipped triangle
0.0,8.0,4.0,1.0,5.0,5.0,283.5050392895937,3.0,0.0,part_2,stop,150.0,100.0,3.0,,,,,,,,,cyan,square
0.0,4.0,4.0,0.0,5.0,5.0,297.7735046297312,3.0,0.0,part_2,go,100.0,100.0,1.0,,,,,,,,,magenta,cross
0.0,7.0,3.0,1.0,6.0,6.0,372.5196756422519,4.0,0.0,part_2,stop,100.0,100.0,3.0,,,,,,,,,orange,I
0.0,6.0,2.0,1.0,5.0,0.0,0.0,4.0,0.0,part_2,stop,100.0,50.0,4.0,,,,,,,,,blue,triangle
0.0,8.0,4.0,1.0,6.0,6.0,413.7784745544195,4.0,0.0,part_2,go,150.0,50.0,1.0,,,,,,,,,cyan,square
0.0,6.0,2.0,1.0,5.0,5.0,286.9145199656486,4.0,0.0,part_2,stop,150.0,50.0,3.0,,,,,,,,,blue,triangle
0.0,6.0,2.0,1.0,5.0,0.0,0.0,4.0,0.0,part_2,stop,100.0,50.0,4.0,,,,,,,,,blue,triangle
0.0,6.0,2.0,1.0,6.0,6.0,290.6115557998419,4.0,0.0,part_2,stop,150.0,50.0,3.0,,,,,,,,,blue,triangle
0.0,2.0,2.0,0.0,5.0,5.0,364.8277428001165,4.0,0.0,part_2,go,150.0,0.0,1.0,,,,,,,,,yellow,diamond
0.0,7.0,3.0,1.0,5.0,5.0,506.4810626208782,4.0,0.0,part_2,go,150.0,0.0,1.0,,,,,,,,,orange,I
0.0,3.0,3.0,0.0,5.0,5.0,504.2014289647341,4.0,0.0,part_2,go,150.0,0.0,1.0,,,,,,,,,gray,circle
0.0,1.0,1.0,0.0,5.0,5.0,290.5765566974878,4.0,0.0,part_2,go,150.0,0.0,1.0,,,,,,,,,green,hexagon
0.0,7.0,3.0,1.0,5.0,5.0,319.9384901672601,4.0,0.0,part_2,stop,150.0,0.0,3.0,,,,,,,,,orange,I
0.0,1.0,1.0,0.0,5.0,5.0,417.10258834064,4.0,0.0,part_2,go,100.0,0.0,1.0,,,,,,,,,green,hexagon
0.0,3.0,3.0,0.0,5.0,5.0,406.6541567444801,4.0,0.0,part_2,go,100.0,0.0,1.0,,,,,,,,,gray,circle
0.0,6.0,2.0,1.0,5.0,0.0,0.0,4.0,0.0,part_2,stop,100.0,0.0,4.0,,,,,,,,,blue,triangle
0.0,1.0,1.0,0.0,6.0,6.0,429.5171722769737,4.0,0.0,part_2,go,150.0,0.0,1.0,,,,,,,,,green,hexagon
0.0,6.0,2.0,1.0,6.0,0.0,0.0,4.0,0.0,part_2,stop,150.0,0.0,4.0,,,,,,,,,blue,triangle
0.0,1.0,1.0,0.0,5.0,5.0,406.0926623642444,4.0,0.0,part_2,go,150.0,50.0,1.0,,,,,,,,,green,hexagon
0.0,4.0,4.0,0.0,5.0,5.0,308.0919347703457,4.0,0.0,part_2,go,150.0,50.0,1.0,,,,,,,,,magenta,cross
0.0,4.0,4.0,0.0,5.0,5.0,349.76274333894247,4.0,0.0,part_2,go,150.0,50.0,1.0,,,,,,,,,magenta,cross
0.0,2.0,2.0,0.0,5.0,5.0,401.8085096031427,4.0,0.0,part_2,go,150.0,50.0,1.0,,,,,,,,,yellow,diamond
0.0,6.0,2.0,1.0,6.0,0.0,0.0,4.0,0.0,part_2,stop,150.0,50.0,4.0,,,,,,,,,blue,triangle
0.0,2.0,2.0,0.0,5.0,5.0,332.4233312159776,4.0,0.0,part_2,go,150.0,100.0,1.0,,,,,,,,,yellow,diamond
0.0,8.0,4.0,1.0,5.0,5.0,768.0908925831318,4.0,0.0,part_2,stop,150.0,100.0,3.0,,,,,,,,,cyan,square
0.0,4.0,4.0,0.0,5.0,5.0,672.6658921688795,4.0,0.0,part_2,go,100.0,100.0,1.0,,,,,,,,,magenta,cross
0.0,8.0,4.0,1.0,6.0,6.0,690.4000528156757,4.0,0.0,part_2,stop,100.0,100.0,3.0,,,,,,,,,cyan,square
0.0,7.0,3.0,1.0,5.0,0.0,0.0,4.0,0.0,part_2,stop,100.0,50.0,4.0,,,,,,,,,orange,I
0.0,7.0,3.0,1.0,6.0,0.0,0.0,4.0,0.0,part_2,go,150.0,50.0,5.0,,,,,,,,,orange,I
0.0,6.0,2.0,1.0,5.0,5.0,398.2449676841497,4.0,0.0,part_2,go,150.0,50.0,1.0,,,,,,,,,blue,triangle
0.0,3.0,3.0,0.0,6.0,6.0,509.1913528740406,4.0,0.0,part_2,go,150.0,50.0,1.0,,,,,,,,,gray,circle
0.0,2.0,2.0,0.0,6.0,6.0,341.4292726665735,4.0,0.0,part_2,go,150.0,50.0,1.0,,,,,,,,,yellow,diamond
0.0,1.0,1.0,0.0,5.0,5.0,348.6720137298107,4.0,0.0,part_2,go,150.0,50.0,1.0,,,,,,,,,green,hexagon
0.0,7.0,3.0,1.0,6.0,0.0,0.0,4.0,0.0,part_2,stop,150.0,50.0,4.0,,,,,,,,,orange,I
0.0,7.0,3.0,1.0,5.0,5.0,484.6971239894628,4.0,0.0,part_2,go,150.0,100.0,1.0,,,,,,,,,orange,I
0.0,6.0,2.0,1.0,6.0,0.0,0.0,4.0,0.0,part_2,stop,150.0,100.0,4.0,,,,,,,,,blue,triangle
0.0,5.0,1.0,1.0,6.0,0.0,0.0,4.0,0.0,part_2,stop,150.0,150.0,4.0,,,,,,,,,white,flipped triangle
0.0,4.0,4.0,0.0,5.0,5.0,392.9620329290628,4.0,0.0,part_2,go,150.0,200.0,1.0,,,,,,,,,magenta,cross
0.0,7.0,3.0,1.0,6.0,6.0,379.6439822763204,5.0,0.0,part_2,stop,150.0,200.0,3.0,,,,,,,,,orange,I
0.0,2.0,2.0,0.0,5.0,5.0,298.5602226108312,5.0,0.0,part_2,go,150.0,150.0,1.0,,,,,,,,,yellow,diamond
0.0,2.0,2.0,0.0,5.0,5.0,297.6152021437883,5.0,0.0,part_2,go,150.0,150.0,1.0,,,,,,,,,yellow,diamond
0.0,1.0,1.0,0.0,6.0,6.0,317.1514384448528,5.0,0.0,part_2,go,150.0,150.0,1.0,,,,,,,,,green,hexagon
0.0,5.0,1.0,1.0,5.0,5.0,832.4913177639246,5.0,0.0,part_2,stop,150.0,150.0,3.0,,,,,,,,,white,flipped triangle
0.0,6.0,2.0,1.0,5.0,0.0,0.0,5.0,0.0,part_2,stop,100.0,150.0,4.0,,,,,,,,,blue,triangle
0.0,1.0,1.0,0.0,6.0,6.0,287.385830655694,5.0,0.0,part_2,go,150.0,150.0,1.0,,,,,,,,,green,hexagon
0.0,4.0,4.0,0.0,6.0,6.0,327.3876439779997,5.0,0.0,part_2,go,150.0,150.0,1.0,,,,,,,,,magenta,cross
0.0,7.0,3.0,1.0,5.0,5.0,737.5678922981024,5.0,0.0,part_2,stop,150.0,150.0,3.0,,,,,,,,,orange,I
0.0,8.0,4.0,1.0,5.0,0.0,0.0,5.0,0.0,part_2,stop,100.0,150.0,4.0,,,,,,,,,cyan,square
0.0,1.0,1.0,0.0,5.0,5.0,381.8289395421743,5.0,0.0,part_2,go,150.0,150.0,1.0,,,,,,,,,green,hexagon
0.0,5.0,1.0,1.0,5.0,0.0,0.0,5.0,0.0,part_2,stop,150.0,150.0,4.0,,,,,,,,,white,flipped triangle
0.0,3.0,3.0,0.0,5.0,5.0,467.7419997751713,5.0,0.0,part_2,go,200.0,150.0,1.0,,,,,,,,,gray,circle
0.0,3.0,3.0,0.0,6.0,6.0,412.6336686313152,5.0,0.0,part_2,go,200.0,150.0,1.0,,,,,,,,,gray,circle
0.0,3.0,3.0,0.0,6.0,6.0,379.5789834111929,5.0,0.0,part_2,go,200.0,150.0,1.0,,,,,,,,,gray,circle
0.0,5.0,1.0,1.0,6.0,0.0,0.0,5.0,0.0,part_2,stop,200.0,150.0,4.0,,,,,,,,,white,flipped triangle
0.0,7.0,3.0,1.0,5.0,5.0,371.0603285580873,5.0,0.0,part_2,stop,200.0,200.0,3.0,,,,,,,,,orange,I
0.0,3.0,3.0,0.0,5.0,5.0,881.6556073725224,5.0,0.0,part_2,go,150.0,200.0,1.0,,,,,,,,,gray,circle
0.0,3.0,3.0,0.0,6.0,6.0,322.912897914648,5.0,0.0,part_2,go,150.0,200.0,1.0,,,,,,,,,gray,circle
0.0,1.0,1.0,0.0,5.0,5.0,368.6575852334499,5.0,0.0,part_2,go,150.0,200.0,1.0,,,,,,,,,green,hexagon
0.0,6.0,2.0,1.0,5.0,0.0,0.0,5.0,0.0,part_2,stop,150.0,200.0,4.0,,,,,,,,,blue,triangle
0.0,1.0,1.0,0.0,6.0,6.0,377.096401527524,5.0,0.0,part_2,go,200.0,200.0,1.0,,,,,,,,,green,hexagon
0.0,4.0,4.0,0.0,6.0,6.0,327.4212218821049,5.0,0.0,part_2,go,200.0,200.0,1.0,,,,,,,,,magenta,cross
0.0,4.0,4.0,0.0,5.0,5.0,326.8511742353439,5.0,0.0,part_2,go,200.0,200.0,1.0,,,,,,,,,magenta,cross
0.0,3.0,3.0,0.0,6.0,6.0,281.0139376670122,5.0,0.0,part_2,go,200.0,200.0,1.0,,,,,,,,,gray,circle
0.0,6.0,2.0,1.0,6.0,6.0,328.4369949251413,5.0,0.0,part_2,stop,200.0,200.0,3.0,,,,,,,,,blue,triangle
0.0,4.0,4.0,0.0,5.0,5.0,356.0032900422811,5.0,0.0,part_2,go,200.0,150.0,1.0,,,,,,,,,magenta,cross
0.0,3.0,3.0,0.0,5.0,5.0,317.4852300435304,5.0,0.0,part_2,go,200.0,150.0,1.0,,,,,,,,,gray,circle
0.0,1.0,1.0,0.0,5.0,5.0,429.5879658311605,5.0,0.0,part_2,go,200.0,150.0,1.0,,,,,,,,,green,hexagon
0.0,8.0,4.0,1.0,5.0,5.0,299.7717093676328,5.0,0.0,part_2,stop,200.0,150.0,3.0,,,,,,,,,cyan,square
0.0,5.0,1.0,1.0,5.0,0.0,0.0,5.0,0.0,part_2,stop,150.0,150.0,4.0,,,,,,,,,white,flipped triangle
0.0,8.0,4.0,1.0,5.0,0.0,0.0,5.0,0.0,part_2,stop,200.0,150.0,4.0,,,,,,,,,cyan,square
0.0,6.0,2.0,1.0,5.0,5.0,490.1882503181696,5.0,0.0,part_2,go,250.0,150.0,1.0,,,,,,,,,blue,triangle
0.0,3.0,3.0,0.0,5.0,5.0,458.4539998322725,5.0,0.0,part_2,go,250.0,150.0,1.0,,,,,,,,,gray,circle
0.0,6.0,2.0,1.0,5.0,5.0,371.2885398417711,5.0,0.0,part_2,go,250.0,150.0,1.0,,,,,,,,,blue,triangle
0.0,7.0,3.0,1.0,5.0,5.0,362.0653953403234,5.0,0.0,part_2,go,250.0,150.0,1.0,,,,,,,,,orange,I
0.0,5.0,1.0,1.0,6.0,6.0,352.2781431674957,6.0,0.0,part_2,go,250.0,150.0,1.0,,,,,,,,,white,flipped triangle
0.0,4.0,4.0,0.0,6.0,6.0,354.8805750906467,6.0,0.0,part_2,go,250.0,150.0,1.0,,,,,,,,,magenta,cross
0.0,5.0,1.0,1.0,6.0,0.0,0.0,6.0,0.0,part_2,stop,250.0,150.0,4.0,,,,,,,,,white,flipped triangle
0.0,2.0,2.0,0.0,5.0,5.0,297.3113972693681,6.0,0.0,part_2,go,250.0,200.0,1.0,,,,,,,,,yellow,diamond
0.0,2.0,2.0,0.0,6.0,6.0,286.8689335882664,6.0,0.0,part_2,go,250.0,200.0,1.0,,,,,,,,,yellow,diamond
0.0,6.0,2.0,1.0,5.0,5.0,295.9452196955681,6.0,0.0,part_2,stop,250.0,200.0,3.0,,,,,,,,,blue,triangle
0.0,3.0,3.0,0.0,6.0,6.0,447.4453926086426,6.0,0.0,part_2,go,200.0,200.0,1.0,,,,,,,,,gray,circle
0.0,7.0,3.0,1.0,6.0,0.0,0.0,6.0,0.0,part_2,stop,200.0,200.0,4.0,,,,,,,,,orange,I
0.0,2.0,2.0,0.0,6.0,6.0,477.9981803148985,6.0,0.0,part_2,go,200.0,250.0,1.0,,,,,,,,,yellow,diamond
0.0,2.0,2.0,0.0,6.0,6.0,356.8219374865293,6.0,0.0,part_2,go,200.0,250.0,1.0,,,,,,,,,yellow,diamond
0.0,6.0,2.0,1.0,5.0,0.0,0.0,6.0,0.0,part_2,stop,200.0,250.0,4.0,,,,,,,,,blue,triangle
0.0,6.0,2.0,1.0,6.0,0.0,0.0,6.0,0.0,part_2,stop,250.0,250.0,4.0,,,,,,,,,blue,triangle
0.0,3.0,3.0,0.0,5.0,5.0,531.6899809986353,6.0,0.0,part_2,go,250.0,300.0,1.0,,,,,,,,,gray,circle
0.0,6.0,2.0,1.0,6.0,0.0,0.0,6.0,0.0,part_2,stop,250.0,300.0,4.0,,,,,,,,,blue,triangle
0.0,4.0,4.0,0.0,5.0,5.0,444.2625232040882,6.0,0.0,part_2,go,250.0,350.0,1.0,,,,,,,,,magenta,cross
0.0,7.0,3.0,1.0,5.0,5.0,433.7325636297464,6.0,0.0,part_2,stop,250.0,350.0,3.0,,,,,,,,,orange,I
0.0,4.0,4.0,0.0,6.0,6.0,259.1316532343626,6.0,0.0,part_2,go,200.0,350.0,1.0,,,,,,,,,magenta,cross
0.0,1.0,1.0,0.0,5.0,5.0,424.998439848423,6.0,0.0,part_2,go,200.0,350.0,1.0,,,,,,,,,green,hexagon
0.0,1.0,1.0,0.0,5.0,5.0,414.1811225563288,6.0,0.0,part_2,go,200.0,350.0,1.0,,,,,,,,,green,hexagon
0.0,6.0,2.0,1.0,6.0,6.0,583.846852183342,6.0,0.0,part_2,stop,200.0,350.0,3.0,,,,,,,,,blue,triangle
0.0,6.0,2.0,1.0,6.0,6.0,880.5288281291723,6.0,0.0,part_2,stop,200.0,300.0,3.0,,,,,,,,,blue,triangle
0.0,3.0,3.0,0.0,5.0,5.0,440.9432169049978,6.0,0.0,part_2,go,200.0,250.0,1.0,,,,,,,,,gray,circle
0.0,5.0,1.0,1.0,5.0,0.0,0.0,6.0,0.0,part_2,stop,200.0,250.0,4.0,,,,,,,,,white,flipped triangle
0.0,8.0,4.0,1.0,6.0,6.0,589.5472671836615,6.0,0.0,part_2,go,250.0,250.0,1.0,,,,,,,,,cyan,square
0.0,6.0,2.0,1.0,6.0,6.0,395.8430085331201,6.0,0.0,part_2,go,250.0,250.0,1.0,,,,,,,,,blue,triangle
0.0,5.0,1.0,1.0,6.0,6.0,410.8520802110433,6.0,0.0,part_2,go,250.0,250.0,1.0,,,,,,,,,white,flipped triangle
0.0,7.0,3.0,1.0,5.0,5.0,389.6169699728489,6.0,0.0,part_2,stop,250.0,250.0,3.0,,,,,,,,,orange,I
0.0,8.0,4.0,1.0,6.0,6.0,417.5803065299988,6.0,0.0,part_2,stop,200.0,250.0,3.0,,,,,,,,,cyan,square
0.0,8.0,4.0,1.0,6.0,6.0,818.3050826191902,6.0,0.0,part_2,stop,200.0,200.0,3.0,,,,,,,,,cyan,square
0.0,3.0,3.0,0.0,5.0,5.0,371.3533487170934,6.0,0.0,part_2,go,200.0,150.0,1.0,,,,,,,,,gray,circle
0.0,4.0,4.0,0.0,5.0,5.0,385.1711116731167,6.0,0.0,part_2,go,200.0,150.0,1.0,,,,,,,,,magenta,cross
0.0,8.0,4.0,1.0,6.0,0.0,0.0,6.0,0.0,part_2,stop,200.0,150.0,4.0,,,,,,,,,cyan,square
0.0,6.0,2.0,1.0,6.0,6.0,527.2451639175415,6.0,0.0,part_2,go,200.0,200.0,1.0,,,,,,,,,blue,triangle
0.0,4.0,4.0,0.0,6.0,6.0,456.2589954584837,6.0,0.0,part_2,go,200.0,200.0,1.0,,,,,,,,,magenta,cross
0.0,2.0,2.0,0.0,6.0,6.0,357.8786198049783,6.0,0.0,part_2,go,200.0,200.0,1.0,,,,,,,,,yellow,diamond
0.0,4.0,4.0,0.0,5.0,5.0,409.2778451740742,6.0,0.0,part_2,go,200.0,200.0,1.0,,,,,,,,,magenta,cross
0.0,1.0,1.0,0.0,5.0,5.0,385.0572519004345,7.0,0.0,part_2,go,200.0,200.0,1.0,,,,,,,,,green,hexagon
0.0,4.0,4.0,0.0,6.0,6.0,416.5162183344364,7.0,0.0,part_2,go,200.0,200.0,1.0,,,,,,,,,magenta,cross
0.0,1.0,1.0,0.0,5.0,5.0,448.2292607426643,7.0,0.0,part_2,go,200.0,200.0,1.0,,,,,,,,,green,hexagon
0.0,2.0,2.0,0.0,5.0,5.0,608.7361071258783,7.0,0.0,part_2,go,200.0,200.0,1.0,,,,,,,,,yellow,diamond
0.0,1.0,1.0,0.0,5.0,5.0,367.3922829329967,7.0,0.0,part_2,go,200.0,200.0,1.0,,,,,,,,,green,hexagon
0.0,5.0,1.0,1.0,6.0,6.0,277.7449991554022,7.0,0.0,part_2,stop,200.0,200.0,3.0,,,,,,,,,white,flipped triangle
0.0,4.0,4.0,0.0,6.0,6.0,421.6844793409109,7.0,0.0,part_2,go,200.0,150.0,1.0,,,,,,,,,magenta,cross
0.0,8.0,4.0,1.0,5.0,5.0,261.2503636628389,7.0,0.0,part_2,go,200.0,150.0,1.0,,,,,,,,,cyan,square
0.0,4.0,4.0,0.0,5.0,5.0,350.5432866513729,7.0,0.0,part_2,go,200.0,150.0,1.0,,,,,,,,,magenta,cross
0.0,5.0,1.0,1.0,6.0,6.0,323.4420493245125,7.0,0.0,part_2,go,200.0,150.0,1.0,,,,,,,,,white,flipped triangle
0.0,7.0,3.0,1.0,5.0,0.0,0.0,7.0,0.0,part_2,stop,200.0,150.0,4.0,,,,,,,,,orange,I
0.0,1.0,1.0,0.0,6.0,6.0,325.8422091603279,7.0,0.0,part_2,go,250.0,150.0,1.0,,,,,,,,,green,hexagon
0.0,6.0,2.0,1.0,5.0,5.0,309.8564445972442,7.0,0.0,part_2,stop,250.0,150.0,3.0,,,,,,,,,blue,triangle
0.0,4.0,4.0,0.0,6.0,6.0,484.9292039871216,7.0,0.0,part_2,go,200.0,150.0,1.0,,,,,,,,,magenta,cross
0.0,8.0,4.0,1.0,5.0,0.0,0.0,7.0,0.0,part_2,stop,200.0,150.0,4.0,,,,,,,,,cyan,square
0.0,5.0,1.0,1.0,5.0,0.0,0.0,7.0,0.0,part_2,stop,250.0,150.0,4.0,,,,,,,,,white,flipped triangle
0.0,1.0,1.0,0.0,6.0,6.0,531.5421354025602,7.0,0.0,part_2,go,300.0,150.0,1.0,,,,,,,,,green,hexagon
0.0,3.0,3.0,0.0,6.0,6.0,650.1189265400171,7.0,0.0,part_2,go,300.0,150.0,1.0,,,,,,,,,gray,circle
0.0,1.0,1.0,0.0,6.0,6.0,351.3622917234897,7.0,0.0,part_2,go,300.0,150.0,1.0,,,,,,,,,green,hexagon
0.0,7.0,3.0,1.0,5.0,5.0,383.5403714329004,7.0,0.0,part_2,stop,300.0,150.0,3.0,,,,,,,,,orange,I
0.0,5.0,1.0,1.0,5.0,0.0,0.0,7.0,0.0,part_2,stop,250.0,150.0,4.0,,,,,,,,,white,flipped triangle
0.0,7.0,3.0,1.0,5.0,5.0,1020.9071431308985,7.0,0.0,part_2,go,300.0,150.0,1.0,,,,,,,,,orange,I
0.0,6.0,2.0,1.0,5.0,5.0,1188.6620596051216,7.0,0.0,part_2,stop,300.0,150.0,3.0,,,,,,,,,blue,triangle
0.0,8.0,4.0,1.0,6.0,6.0,355.5160630494356,7.0,0.0,part_2,go,250.0,150.0,1.0,,,,,,,,,cyan,square
0.0,7.0,3.0,1.0,6.0,6.0,342.0594297349453,7.0,0.0,part_2,go,250.0,150.0,1.0,,,,,,,,,orange,I
0.0,7.0,3.0,1.0,6.0,0.0,0.0,7.0,0.0,part_2,stop,250.0,150.0,4.0,,,,,,,,,orange,I
0.0,2.0,2.0,0.0,5.0,5.0,363.1470799446106,7.0,0.0,part_2,go,250.0,200.0,1.0,,,,,,,,,yellow,diamond
0.0,3.0,3.0,0.0,6.0,6.0,316.3075186312198,7.0,0.0,part_2,go,250.0,200.0,1.0,,,,,,,,,gray,circle
0.0,4.0,4.0,0.0,6.0,6.0,476.4326475560665,7.0,0.0,part_2,go,250.0,200.0,1.0,,,,,,,,,magenta,cross
0.0,7.0,3.0,1.0,6.0,0.0,0.0,7.0,0.0,part_2,stop,250.0,200.0,4.0,,,,,,,,,orange,I
0.0,3.0,3.0,0.0,6.0,5.0,1039.7541504353285,7.0,0.0,part_2,go,250.0,250.0,2.0,,,,,,,,,gray,circle
0.0,6.0,2.0,1.0,6.0,6.0,608.7324414402246,7.0,0.0,part_2,go,250.0,250.0,1.0,,,,,,,,,blue,triangle
0.0,8.0,4.0,1.0,6.0,0.0,0.0,7.0,0.0,part_2,stop,250.0,250.0,4.0,,,,,,,,,cyan,square
0.0,1.0,1.0,0.0,5.0,5.0,497.3240979015827,7.0,0.0,part_2,go,250.0,300.0,1.0,,,,,,,,,green,hexagon
0.0,5.0,1.0,1.0,6.0,0.0,0.0,7.0,0.0,part_2,stop,250.0,300.0,4.0,,,,,,,,,white,flipped triangle
0.0,3.0,3.0,0.0,5.0,5.0,351.4794092625379,7.0,0.0,part_2,go,250.0,350.0,1.0,,,,,,,,,gray,circle
0.0,2.0,2.0,0.0,5.0,5.0,392.8257171064615,8.0,0.0,part_2,go,250.0,350.0,1.0,,,,,,,,,yellow,diamond
0.0,3.0,3.0,0.0,6.0,6.0,343.407392501831,8.0,0.0,part_2,go,250.0,350.0,1.0,,,,,,,,,gray,circle
0.0,6.0,2.0,1.0,5.0,5.0,278.3737145364284,8.0,0.0,part_2,stop,250.0,350.0,3.0,,,,,,,,,blue,triangle
0.0,6.0,2.0,1.0,5.0,0.0,0.0,8.0,0.0,part_2,stop,200.0,350.0,4.0,,,,,,,,,blue,triangle
0.0,3.0,3.0,0.0,5.0,5.0,397.167969495058,8.0,0.0,part_2,go,250.0,350.0,1.0,,,,,,,,,gray,circle
0.0,4.0,4.0,0.0,6.0,6.0,270.5278880894184,8.0,0.0,part_2,go,250.0,350.0,1.0,,,,,,,,,magenta,cross
0.0,4.0,4.0,0.0,5.0,5.0,437.7311412245035,8.0,0.0,part_2,go,250.0,350.0,1.0,,,,,,,,,magenta,cross
0.0,1.0,1.0,0.0,5.0,5.0,348.6776407808065,8.0,0.0,part_2,go,250.0,350.0,1.0,,,,,,,,,green,hexagon
0.0,1.0,1.0,0.0,6.0,6.0,324.532663449645,8.0,0.0,part_2,go,250.0,350.0,1.0,,,,,,,,,green,hexagon
0.0,2.0,2.0,0.0,6.0,6.0,265.0628443807363,8.0,0.0,part_2,go,250.0,350.0,1.0,,,,,,,,,yellow,diamond
0.0,4.0,4.0,0.0,5.0,5.0,530.6785646826029,8.0,0.0,part_2,go,250.0,350.0,1.0,,,,,,,,,magenta,cross
0.0,5.0,1.0,1.0,6.0,6.0,338.9683999121189,8.0,0.0,part_2,stop,250.0,350.0,3.0,,,,,,,,,white,flipped triangle
0.0,2.0,2.0,0.0,6.0,6.0,307.311100885272,8.0,0.0,part_2,go,250.0,300.0,1.0,,,,,,,,,yellow,diamond
0.0,8.0,4.0,1.0,5.0,5.0,279.8820380121469,8.0,0.0,part_2,stop,250.0,300.0,3.0,,,,,,,,,cyan,square
0.0,7.0,3.0,1.0,5.0,0.0,0.0,8.0,0.0,part_2,stop,200.0,300.0,4.0,,,,,,,,,orange,I
0.0,7.0,3.0,1.0,6.0,6.0,361.2339738756418,8.0,0.0,part_2,stop,250.0,300.0,3.0,,,,,,,,,orange,I
0.0,4.0,4.0,0.0,6.0,6.0,405.3897485136986,8.0,0.0,part_2,go,250.0,250.0,1.0,,,,,,,,,magenta,cross
0.0,8.0,4.0,1.0,6.0,6.0,333.8091634213924,8.0,0.0,part_2,stop,250.0,250.0,3.0,,,,,,,,,cyan,square
0.0,7.0,3.0,1.0,6.0,6.0,550.9096868336201,8.0,0.0,part_2,go,250.0,200.0,1.0,,,,,,,,,orange,I
0.0,8.0,4.0,1.0,5.0,0.0,0.0,8.0,0.0,part_2,stop,250.0,200.0,4.0,,,,,,,,,cyan,square
0.0,2.0,2.0,0.0,6.0,6.0,347.9275498539209,8.0,0.0,part_2,go,300.0,200.0,1.0,,,,,,,,,yellow,diamond
0.0,5.0,1.0,1.0,5.0,0.0,0.0,8.0,0.0,part_2,stop,300.0,200.0,4.0,,,,,,,,,white,flipped triangle
0.0,3.0,3.0,0.0,6.0,6.0,381.4271409064531,8.0,0.0,part_2,go,350.0,200.0,1.0,,,,,,,,,gray,circle
0.0,5.0,1.0,1.0,5.0,5.0,282.1990381926298,8.0,0.0,part_2,stop,350.0,200.0,3.0,,,,,,,,,white,flipped triangle
0.0,3.0,3.0,0.0,6.0,6.0,667.1729125082493,8.0,0.0,part_2,go,300.0,200.0,1.0,,,,,,,,,gray,circle
0.0,4.0,4.0,0.0,5.0,5.0,289.4126586616039,8.0,0.0,part_2,go,300.0,200.0,1.0,,,,,,,,,magenta,cross
0.0,2.0,2.0,0.0,6.0,6.0,321.8685854226351,8.0,0.0,part_2,go,300.0,200.0,1.0,,,,,,,,,yellow,diamond
0.0,6.0,2.0,1.0,5.0,5.0,273.1623463332653,8.0,0.0,part_2,stop,300.0,200.0,3.0,,,,,,,,,blue,triangle
0.0,1.0,1.0,0.0,6.0,6.0,273.4868880361318,8.0,0.0,part_2,go,250.0,200.0,1.0,,,,,,,,,green,hexagon
0.0,7.0,3.0,1.0,5.0,5.0,352.5101169943809,8.0,0.0,part_2,stop,250.0,200.0,3.0,,,,,,,,,orange,I
0.0,8.0,4.0,1.0,5.0,5.0,326.7556726932525,8.0,0.0,part_2,go,200.0,200.0,1.0,,,,,,,,,cyan,square
0.0,4.0,4.0,0.0,6.0,6.0,319.194920361042,8.0,0.0,part_2,go,200.0,200.0,1.0,,,,,,,,,magenta,cross
0.0,3.0,3.0,0.0,5.0,5.0,494.4337643682956,8.0,0.0,part_2,go,200.0,200.0,1.0,,,,,,,,,gray,circle
0.0,7.0,3.0,1.0,5.0,5.0,581.8074122071266,8.0,0.0,part_2,go,200.0,200.0,1.0,,,,,,,,,orange,I
0.0,5.0,1.0,1.0,5.0,0.0,0.0,8.0,0.0,part_2,stop,200.0,200.0,4.0,,,,,,,,,white,flipped triangle
0.0,6.0,2.0,1.0,5.0,5.0,342.9159000515938,8.0,0.0,part_2,stop,250.0,200.0,3.0,,,,,,,,,blue,triangle
0.0,4.0,4.0,0.0,7.0,2.0,1832.5568940490484,1.0,2.0,part_3,go,0.0,0.0,0.0,117.0,3.0,234.0,117.0,39.0,78.0,156.0,195.0,magenta,cross
0.0,5.0,1.0,1.0,7.0,5.0,2131.788609549403,1.0,1.0,part_3,go,0.0,0.0,0.0,195.0,5.0,117.0,156.0,78.0,234.0,195.0,39.0,white,flipped triangle
0.0,7.0,3.0,1.0,7.0,2.0,2270.5341279506683,1.0,1.0,part_3,go,0.0,0.0,0.0,170.0,5.0,136.0,170.0,204.0,68.0,34.0,102.0,orange,I
0.0,4.0,4.0,0.0,7.0,4.0,1478.4375969320536,1.0,1.0,part_3,go,0.0,0.0,0.0,34.0,1.0,68.0,204.0,170.0,34.0,136.0,102.0,magenta,cross
0.0,6.0,2.0,1.0,7.0,2.0,1369.022423401475,1.0,1.0,part_3,go,0.0,0.0,0.0,102.0,3.0,34.0,102.0,204.0,136.0,68.0,170.0,blue,triangle
0.0,3.0,3.0,0.0,7.0,1.0,2266.5550224483013,1.0,1.0,part_3,go,0.0,0.0,0.0,108.0,2.0,108.0,270.0,324.0,162.0,54.0,216.0,gray,circle
0.0,3.0,3.0,0.0,7.0,2.0,2473.0512984097004,1.0,1.0,part_3,go,0.0,0.0,0.0,147.0,3.0,196.0,147.0,49.0,294.0,98.0,245.0,gray,circle
0.0,8.0,4.0,1.0,7.0,4.0,2482.0279348641634,1.0,1.0,part_3,go,0.0,0.0,0.0,147.0,3.0,98.0,49.0,245.0,147.0,294.0,196.0,cyan,square
0.0,4.0,4.0,0.0,7.0,5.0,1253.7675742059946,1.0,1.0,part_3,go,0.0,0.0,0.0,220.0,5.0,44.0,264.0,132.0,176.0,220.0,88.0,magenta,cross
0.0,6.0,2.0,1.0,7.0,3.0,2246.9575237482786,1.0,1.0,part_3,go,0.0,0.0,0.0,196.0,4.0,245.0,98.0,196.0,49.0,147.0,294.0,blue,triangle
0.0,4.0,4.0,0.0,7.0,2.0,2325.865937396884,1.0,1.0,part_3,go,0.0,0.0,0.0,196.0,4.0,294.0,196.0,49.0,98.0,147.0,245.0,magenta,cross
0.0,3.0,3.0,0.0,7.0,2.0,2048.920564353466,1.0,1.0,part_3,go,0.0,0.0,0.0,220.0,5.0,132.0,220.0,176.0,88.0,264.0,44.0,gray,circle
0.0,1.0,1.0,0.0,7.0,5.0,2412.941738963127,1.0,1.0,part_3,go,0.0,0.0,0.0,270.0,5.0,324.0,162.0,216.0,54.0,270.0,108.0,green,hexagon
0.0,1.0,1.0,0.0,7.0,3.0,1877.8518792241812,1.0,1.0,part_3,go,0.0,0.0,0.0,204.0,6.0,102.0,170.0,204.0,68.0,34.0,136.0,green,hexagon
0.0,6.0,2.0,1.0,7.0,4.0,2261.3745126873255,1.0,1.0,part_3,go,0.0,0.0,0.0,216.0,4.0,324.0,270.0,108.0,216.0,54.0,162.0,blue,triangle
0.0,1.0,1.0,0.0,7.0,4.0,1894.692497327924,1.0,1.0,part_3,go,0.0,0.0,0.0,195.0,5.0,39.0,78.0,117.0,195.0,156.0,234.0,green,hexagon
0.0,7.0,3.0,1.0,7.0,5.0,1838.602902367711,1.0,1.0,part_3,go,0.0,0.0,0.0,204.0,6.0,102.0,136.0,68.0,34.0,204.0,170.0,orange,I
0.0,5.0,1.0,1.0,7.0,6.0,2171.344682574272,1.0,1.0,part_3,go,0.0,0.0,0.0,176.0,4.0,220.0,132.0,44.0,88.0,264.0,176.0,white,flipped triangle
0.0,5.0,1.0,1.0,7.0,3.0,2882.407693192363,1.0,1.0,part_3,go,0.0,0.0,0.0,132.0,3.0,88.0,264.0,132.0,220.0,176.0,44.0,white,flipped triangle
0.0,2.0,2.0,0.0,7.0,6.0,2588.8840183615685,1.0,1.0,part_3,go,0.0,0.0,0.0,204.0,6.0,170.0,68.0,136.0,102.0,34.0,204.0,yellow,diamond
0.0,5.0,1.0,1.0,7.0,2.0,2124.602360650897,2.0,1.0,part_3,go,0.0,0.0,0.0,245.0,5.0,196.0,245.0,147.0,49.0,294.0,98.0,white,flipped triangle
0.0,8.0,4.0,1.0,7.0,3.0,2118.5803841799498,2.0,1.0,part_3,go,0.0,0.0,0.0,195.0,5.0,78.0,156.0,195.0,234.0,117.0,39.0,cyan,square
0.0,7.0,3.0,1.0,7.0,5.0,1835.1313788443804,2.0,1.0,part_3,go,0.0,0.0,0.0,176.0,4.0,88.0,220.0,132.0,264.0,176.0,44.0,orange,I
0.0,8.0,4.0,1.0,7.0,3.0,761.3953314721584,2.0,1.0,part_3,go,0.0,0.0,0.0,196.0,4.0,98.0,49.0,196.0,245.0,147.0,294.0,cyan,square
0.0,7.0,3.0,1.0,7.0,3.0,2036.3545045256615,2.0,1.0,part_3,go,0.0,0.0,0.0,162.0,3.0,54.0,270.0,162.0,216.0,108.0,324.0,orange,I
0.0,5.0,1.0,1.0,7.0,5.0,1029.7815054655075,2.0,1.0,part_3,go,0.0,0.0,0.0,195.0,5.0,117.0,234.0,78.0,156.0,195.0,39.0,white,flipped triangle
0.0,1.0,1.0,0.0,7.0,1.0,1564.9694744497538,2.0,1.0,part_3,go,0.0,0.0,0.0,195.0,5.0,195.0,234.0,39.0,117.0,156.0,78.0,green,hexagon
0.0,8.0,4.0,1.0,7.0,3.0,1097.2875356674194,2.0,1.0,part_3,go,0.0,0.0,0.0,204.0,6.0,102.0,136.0,204.0,68.0,170.0,34.0,cyan,square
0.0,1.0,1.0,0.0,7.0,4.0,1535.7194393873217,2.0,1.0,part_3,go,0.0,0.0,0.0,170.0,5.0,68.0,34.0,102.0,170.0,136.0,204.0,green,hexagon
0.0,2.0,2.0,0.0,7.0,1.0,2144.700979813934,2.0,1.0,part_3,go,0.0,0.0,0.0,176.0,4.0,176.0,44.0,132.0,88.0,264.0,220.0,yellow,diamond
0.0,2.0,2.0,0.0,7.0,5.0,2515.2058247476816,2.0,1.0,part_3,go,0.0,0.0,0.0,170.0,5.0,68.0,136.0,102.0,34.0,170.0,204.0,yellow,diamond
0.0,1.0,1.0,0.0,7.0,6.0,2222.611891105771,2.0,1.0,part_3,go,0.0,0.0,0.0,196.0,4.0,147.0,294.0,98.0,49.0,245.0,196.0,green,hexagon
0.0,2.0,2.0,0.0,7.0,6.0,1743.2461101561785,2.0,1.0,part_3,go,0.0,0.0,0.0,195.0,5.0,78.0,117.0,39.0,156.0,234.0,195.0,yellow,diamond
0.0,3.0,3.0,0.0,7.0,5.0,2344.6027375757694,2.0,1.0,part_3,go,0.0,0.0,0.0,156.0,4.0,195.0,78.0,117.0,234.0,156.0,39.0,gray,circle
0.0,2.0,2.0,0.0,7.0,1.0,2218.6570055782795,2.0,1.0,part_3,go,0.0,0.0,0.0,195.0,5.0,195.0,78.0,117.0,234.0,39.0,156.0,yellow,diamond
0.0,3.0,3.0,0.0,7.0,4.0,2411.382867023349,2.0,1.0,part_3,go,0.0,0.0,0.0,136.0,4.0,204.0,34.0,68.0,136.0,102.0,170.0,gray,circle
0.0,4.0,4.0,0.0,7.0,4.0,1938.514567911625,2.0,1.0,part_3,go,0.0,0.0,0.0,176.0,4.0,88.0,264.0,220.0,176.0,44.0,132.0,magenta,cross
0.0,2.0,2.0,0.0,7.0,6.0,1654.2488671839235,2.0,1.0,part_3,go,0.0,0.0,0.0,196.0,4.0,294.0,49.0,245.0,147.0,98.0,196.0,yellow,diamond
0.0,7.0,3.0,1.0,7.0,6.0,2784.612676128745,2.0,1.0,part_3,go,0.0,0.0,0.0,216.0,4.0,54.0,162.0,270.0,324.0,108.0,216.0,orange,I
0.0,5.0,1.0,1.0,7.0,2.0,1082.8578677028418,2.0,1.0,part_3,go,0.0,0.0,0.0,204.0,6.0,34.0,204.0,68.0,170.0,102.0,136.0,white,flipped triangle
0.0,1.0,1.0,0.0,7.0,2.0,2229.503368958831,3.0,1.0,part_3,go,0.0,0.0,0.0,216.0,4.0,270.0,216.0,324.0,108.0,54.0,162.0,green,hexagon
0.0,8.0,4.0,1.0,7.0,5.0,2584.2273719608784,3.0,1.0,part_3,go,0.0,0.0,0.0,220.0,5.0,88.0,44.0,264.0,132.0,220.0,176.0,cyan,square
0.0,6.0,2.0,1.0,7.0,3.0,1743.4340976178646,3.0,1.0,part_3,go,0.0,0.0,0.0,195.0,5.0,39.0,156.0,195.0,234.0,78.0,117.0,blue,triangle
0.0,2.0,2.0,0.0,7.0,6.0,1752.407556399703,3.0,1.0,part_3,go,0.0,0.0,0.0,162.0,3.0,108.0,270.0,324.0,216.0,54.0,162.0,yellow,diamond
0.0,1.0,1.0,0.0,7.0,2.0,1890.4085904359815,3.0,1.0,part_3,go,0.0,0.0,0.0,220.0,5.0,132.0,220.0,264.0,176.0,44.0,88.0,green,hexagon
0.0,2.0,2.0,0.0,7.0,3.0,2471.3178910315037,3.0,1.0,part_3,go,0.0,0.0,0.0,216.0,4.0,270.0,54.0,216.0,162.0,108.0,324.0,yellow,diamond
0.0,3.0,3.0,0.0,7.0,4.0,3086.839884519577,3.0,1.0,part_3,go,0.0,0.0,0.0,136.0,4.0,34.0,68.0,204.0,136.0,170.0,102.0,gray,circle
0.0,7.0,3.0,1.0,7.0,5.0,3720.78394331038,3.0,1.0,part_3,go,0.0,0.0,0.0,196.0,4.0,98.0,294.0,147.0,245.0,196.0,49.0,orange,I
0.0,5.0,1.0,1.0,7.0,2.0,3672.417303547263,3.0,1.0,part_3,go,0.0,0.0,0.0,216.0,4.0,324.0,216.0,162.0,54.0,108.0,270.0,white,flipped triangle
0.0,8.0,4.0,1.0,7.0,5.0,1977.5333758443592,3.0,1.0,part_3,go,0.0,0.0,0.0,204.0,6.0,102.0,170.0,136.0,68.0,204.0,34.0,cyan,square
0.0,8.0,4.0,1.0,7.0,1.0,2334.648832678795,3.0,1.0,part_3,go,0.0,0.0,0.0,195.0,5.0,195.0,156.0,39.0,234.0,117.0,78.0,cyan,square
0.0,5.0,1.0,1.0,7.0,5.0,1477.281916886568,3.0,1.0,part_3,go,0.0,0.0,0.0,170.0,5.0,34.0,204.0,102.0,136.0,170.0,68.0,white,flipped triangle
0.0,3.0,3.0,0.0,7.0,6.0,1280.1693845540283,3.0,1.0,part_3,go,0.0,0.0,0.0,108.0,2.0,324.0,54.0,216.0,270.0,162.0,108.0,gray,circle
0.0,2.0,2.0,0.0,7.0,3.0,2312.2781571000814,3.0,1.0,part_3,go,0.0,0.0,0.0,132.0,3.0,176.0,88.0,132.0,220.0,44.0,264.0,yellow,diamond
0.0,4.0,4.0,0.0,7.0,2.0,1785.3172458708286,3.0,1.0,part_3,go,0.0,0.0,0.0,216.0,4.0,162.0,216.0,108.0,54.0,270.0,324.0,magenta,cross
0.0,5.0,1.0,1.0,7.0,5.0,2396.0760552436113,3.0,1.0,part_3,go,0.0,0.0,0.0,196.0,4.0,98.0,245.0,147.0,294.0,196.0,49.0,white,flipped triangle
0.0,3.0,3.0,0.0,7.0,4.0,3308.803640305996,3.0,1.0,part_3,go,0.0,0.0,0.0,176.0,4.0,220.0,264.0,132.0,176.0,44.0,88.0,gray,circle
0.0,7.0,3.0,1.0,7.0,3.0,3485.129212960601,3.0,1.0,part_3,go,0.0,0.0,0.0,156.0,4.0,117.0,195.0,156.0,78.0,39.0,234.0,orange,I
0.0,1.0,1.0,0.0,7.0,2.0,2749.3002749979496,3.0,1.0,part_3,go,0.0,0.0,0.0,220.0,5.0,132.0,220.0,264.0,88.0,44.0,176.0,green,hexagon
0.0,3.0,3.0,0.0,7.0,6.0,1526.458453387022,3.0,1.0,part_3,go,0.0,0.0,0.0,117.0,3.0,78.0,39.0,234.0,156.0,195.0,117.0,gray,circle
0.0,6.0,2.0,1.0,7.0,6.0,2382.639937102794,4.0,1.0,part_3,go,0.0,0.0,0.0,204.0,6.0,34.0,102.0,68.0,136.0,170.0,204.0,blue,triangle
0.0,4.0,4.0,0.0,7.0,4.0,2842.68887527287,4.0,1.0,part_3,go,0.0,0.0,0.0,195.0,5.0,156.0,78.0,39.0,195.0,117.0,234.0,magenta,cross
0.0,4.0,4.0,0.0,7.0,5.0,1713.526338338852,4.0,1.0,part_3,go,0.0,0.0,0.0,196.0,4.0,49.0,245.0,294.0,147.0,196.0,98.0,magenta,cross
0.0,6.0,2.0,1.0,7.0,2.0,2195.3410264104605,4.0,1.0,part_3,go,0.0,0.0,0.0,220.0,5.0,132.0,220.0,264.0,88.0,44.0,176.0,blue,triangle
0.0,2.0,2.0,0.0,7.0,2.0,2253.4103095531464,4.0,1.0,part_3,go,0.0,0.0,0.0,196.0,4.0,49.0,196.0,245.0,147.0,98.0,294.0,yellow,diamond
0.0,5.0,1.0,1.0,7.0,5.0,1151.635780930519,4.0,1.0,part_3,go,0.0,0.0,0.0,162.0,3.0,216.0,270.0,324.0,54.0,162.0,108.0,white,flipped triangle
0.0,4.0,4.0,0.0,7.0,4.0,1822.9130487889051,4.0,1.0,part_3,go,0.0,0.0,0.0,216.0,4.0,270.0,324.0,108.0,216.0,162.0,54.0,magenta,cross
0.0,8.0,4.0,1.0,7.0,4.0,1832.5002621859312,4.0,1.0,part_3,go,0.0,0.0,0.0,220.0,5.0,176.0,264.0,44.0,220.0,132.0,88.0,cyan,square
0.0,6.0,2.0,1.0,7.0,6.0,4337.369412183762,4.0,1.0,part_3,go,0.0,0.0,0.0,196.0,4.0,49.0,294.0,98.0,245.0,147.0,196.0,blue,triangle
0.0,6.0,2.0,1.0,7.0,1.0,2051.830753684044,4.0,1.0,part_3,go,0.0,0.0,0.0,220.0,5.0,220.0,176.0,132.0,88.0,44.0,264.0,blue,triangle
0.0,8.0,4.0,1.0,7.0,4.0,2951.1928241699934,4.0,1.0,part_3,go,0.0,0.0,0.0,216.0,4.0,108.0,162.0,54.0,216.0,270.0,324.0,cyan,square
0.0,7.0,3.0,1.0,7.0,3.0,1680.5855985730886,4.0,1.0,part_3,go,0.0,0.0,0.0,176.0,4.0,220.0,88.0,176.0,44.0,132.0,264.0,orange,I
0.0,6.0,2.0,1.0,7.0,3.0,2119.100920855999,4.0,1.0,part_3,go,0.0,0.0,0.0,195.0,5.0,234.0,156.0,195.0,78.0,39.0,117.0,blue,triangle
0.0,1.0,1.0,0.0,7.0,5.0,3643.502932041883,4.0,1.0,part_3,go,0.0,0.0,0.0,196.0,4.0,49.0,294.0,245.0,147.0,196.0,98.0,green,hexagon
0.0,4.0,4.0,0.0,7.0,4.0,1330.476889386773,4.0,1.0,part_3,go,0.0,0.0,0.0,204.0,6.0,136.0,102.0,170.0,204.0,68.0,34.0,magenta,cross
0.0,3.0,3.0,0.0,7.0,3.0,2054.350506514311,4.0,1.0,part_3,go,0.0,0.0,0.0,147.0,3.0,49.0,294.0,147.0,98.0,196.0,245.0,gray,circle
0.0,6.0,2.0,1.0,7.0,5.0,2267.7719108760357,4.0,1.0,part_3,go,0.0,0.0,0.0,216.0,4.0,324.0,54.0,108.0,162.0,216.0,270.0,blue,triangle
0.0,8.0,4.0,1.0,7.0,1.0,3205.669391900301,4.0,1.0,part_3,go,0.0,0.0,0.0,216.0,4.0,216.0,324.0,108.0,54.0,270.0,162.0,cyan,square
0.0,7.0,3.0,1.0,7.0,4.0,2527.107724919915,4.0,1.0,part_3,go,0.0,0.0,0.0,195.0,5.0,117.0,156.0,78.0,195.0,234.0,39.0,orange,I
0.0,7.0,3.0,1.0,7.0,2.0,2248.354325070977,4.0,1.0,part_3,go,0.0,0.0,0.0,196.0,4.0,245.0,196.0,294.0,147.0,98.0,49.0,orange,I
