raw_reward_magnitude,stim_reward,stepwise_reward_magnitude,paired_with_stopping,quadrant,response,reaction_time,block,num_trial_presentations,which_part,stop_signal_trial_type,left_SSD,right_SSD,accuracy,chosen_bidding_amount,chosen_bidding_level,possible_bid_1,possible_bid_2,possible_bid_3,possible_bid_4,possible_bid_5,possible_bid_6,color_text,shape_text
218.0,3.0,3.0,0.0,4.0,4.0,683.9843243360519,1.0,1.0,part_1,,,,,,,,,,,,,magenta,cross
380.0,4.0,4.0,0.0,1.0,1.0,618.6348516494036,1.0,1.0,part_1,,,,,,,,,,,,,gray,triangle
379.0,8.0,4.0,1.0,2.0,2.0,701.593553647399,1.0,1.0,part_1,,,,,,,,,,,,,orange,I
39.0,1.0,1.0,0.0,3.0,3.0,724.5520651340485,1.0,1.0,part_1,,,,,,,,,,,,,cyan,diamond
0.0,1.0,0.0,0.0,1.0,1.0,665.760325267911,1.0,1.0,part_1,,,,,,,,,,,,,cyan,diamond
379.0,4.0,4.0,0.0,3.0,3.0,723.7784620374441,1.0,1.0,part_1,,,,,,,,,,,,,gray,triangle
415.0,4.0,4.0,0.0,2.0,2.0,529.9910753965378,1.0,1.0,part_1,,,,,,,,,,,,,gray,triangle
418.0,8.0,4.0,1.0,4.0,4.0,519.4694325327873,1.0,1.0,part_1,,,,,,,,,,,,,orange,I
95.0,6.0,2.0,1.0,2.0,2.0,563.1534717977047,1.0,1.0,part_1,,,,,,,,,,,,,blue,flipped triangle
417.0,4.0,4.0,0.0,3.0,3.0,625.8537471294403,1.0,1.0,part_1,,,,,,,,,,,,,gray,triangle
0.0,7.0,0.0,1.0,3.0,3.0,671.057341620326,1.0,1.0,part_1,,,,,,,,,,,,,yellow,hexagon
384.0,4.0,4.0,0.0,4.0,4.0,639.5826488733292,1.0,1.0,part_1,,,,,,,,,,,,,gray,triangle
208.0,7.0,3.0,1.0,1.0,1.0,439.2254780977964,1.0,1.0,part_1,,,,,,,,,,,,,yellow,hexagon
106.0,2.0,2.0,0.0,4.0,4.0,568.8368827104568,1.0,1.0,part_1,,,,,,,,,,,,,white,square
379.0,8.0,4.0,1.0,1.0,1.0,488.4145632386207,1.0,1.0,part_1,,,,,,,,,,,,,orange,I
0.0,5.0,0.0,1.0,2.0,2.0,429.8201762139797,1.0,1.0,part_1,,,,,,,,,,,,,green,circle
95.0,6.0,2.0,1.0,4.0,4.0,471.39696776866907,1.0,1.0,part_1,,,,,,,,,,,,,blue,flipped triangle
33.0,5.0,1.0,1.0,4.0,4.0,517.1716157346964,1.0,1.0,part_1,,,,,,,,,,,,,green,circle
69.0,1.0,1.0,0.0,1.0,1.0,425.8978720754385,1.0,1.0,part_1,,,,,,,,,,,,,cyan,diamond
199.0,7.0,3.0,1.0,1.0,1.0,309.4848785549402,1.0,1.0,part_1,,,,,,,,,,,,,yellow,hexagon
0.0,2.0,0.0,0.0,4.0,4.0,491.9485822319984,1.0,1.0,part_1,,,,,,,,,,,,,white,square
405.0,4.0,4.0,0.0,4.0,4.0,530.769744887948,1.0,1.0,part_1,,,,,,,,,,,,,gray,triangle
87.0,2.0,2.0,0.0,2.0,2.0,403.0275139957666,1.0,1.0,part_1,,,,,,,,,,,,,white,square
118.0,2.0,2.0,0.0,4.0,4.0,512.2272055596113,1.0,1.0,part_1,,,,,,,,,,,,,white,square
119.0,2.0,2.0,0.0,2.0,2.0,590.1682246476412,1.0,1.0,part_1,,,,,,,,,,,,,white,square
192.0,7.0,3.0,1.0,1.0,1.0,625.3312677145004,1.0,1.0,part_1,,,,,,,,,,,,,yellow,hexagon
0.0,3.0,0.0,0.0,1.0,1.0,399.2299232631922,1.0,1.0,part_1,,,,,,,,,,,,,magenta,cross
75.0,5.0,1.0,1.0,1.0,1.0,436.3363031297922,1.0,1.0,part_1,,,,,,,,,,,,,green,circle
37.0,1.0,1.0,0.0,1.0,1.0,366.689333692193,1.0,1.0,part_1,,,,,,,,,,,,,cyan,diamond
0.0,6.0,0.0,1.0,3.0,3.0,631.328996270895,1.0,1.0,part_1,,,,,,,,,,,,,blue,flipped triangle
0.0,2.0,0.0,0.0,3.0,3.0,672.8612128645182,1.0,1.0,part_1,,,,,,,,,,,,,white,square
92.0,2.0,2.0,0.0,1.0,1.0,607.0611216127872,1.0,1.0,part_1,,,,,,,,,,,,,white,square
67.0,5.0,1.0,1.0,1.0,1.0,524.9347183853388,1.0,1.0,part_1,,,,,,,,,,,,,green,circle
80.0,2.0,2.0,0.0,3.0,3.0,576.372791081667,1.0,1.0,part_1,,,,,,,,,,,,,white,square
82.0,2.0,2.0,0.0,4.0,4.0,407.0625323802233,1.0,1.0,part_1,,,,,,,,,,,,,white,square
109.0,6.0,2.0,1.0,2.0,2.0,706.9233264774084,1.0,1.0,part_1,,,,,,,,,,,,,blue,flipped triangle
393.0,4.0,4.0,0.0,3.0,3.0,455.6834828108549,1.0,1.0,part_1,,,,,,,,,,,,,gray,triangle
109.0,2.0,2.0,0.0,4.0,4.0,513.4977456182241,1.0,1.0,part_1,,,,,,,,,,,,,white,square
218.0,3.0,3.0,0.0,2.0,2.0,401.5990868210792,1.0,1.0,part_1,,,,,,,,,,,,,magenta,cross
40.0,1.0,1.0,0.0,1.0,1.0,498.3483571559191,1.0,1.0,part_1,,,,,,,,,,,,,cyan,diamond
0.0,1.0,0.0,0.0,1.0,1.0,425.1186307519674,1.0,1.0,part_1,,,,,,,,,,,,,cyan,diamond
409.0,8.0,4.0,1.0,4.0,4.0,532.1313664317131,1.0,1.0,part_1,,,,,,,,,,,,,orange,I
204.0,3.0,3.0,0.0,4.0,4.0,440.877802670002,1.0,1.0,part_1,,,,,,,,,,,,,magenta,cross
94.0,6.0,2.0,1.0,3.0,3.0,583.7575439363718,1.0,1.0,part_1,,,,,,,,,,,,,blue,flipped triangle
114.0,6.0,2.0,1.0,2.0,2.0,353.7273202091455,1.0,1.0,part_1,,,,,,,,,,,,,blue,flipped triangle
0.0,3.0,0.0,0.0,2.0,2.0,440.698679536581,1.0,1.0,part_1,,,,,,,,,,,,,magenta,cross
0.0,1.0,0.0,0.0,2.0,2.0,430.6200239807367,1.0,1.0,part_1,,,,,,,,,,,,,cyan,diamond
55.0,1.0,1.0,0.0,4.0,4.0,522.3238505423069,1.0,1.0,part_1,,,,,,,,,,,,,cyan,diamond
392.0,8.0,4.0,1.0,2.0,2.0,390.8309526741504,1.0,1.0,part_1,,,,,,,,,,,,,orange,I
88.0,2.0,2.0,0.0,1.0,1.0,386.337986215949,1.0,1.0,part_1,,,,,,,,,,,,,white,square
30.0,1.0,1.0,0.0,3.0,3.0,574.7753027826548,1.0,1.0,part_1,,,,,,,,,,,,,cyan,diamond
102.0,2.0,2.0,0.0,2.0,2.0,459.1709971427917,1.0,1.0,part_1,,,,,,,,,,,,,white,square
200.0,7.0,3.0,1.0,4.0,4.0,512.6651711761951,1.0,1.0,part_1,,,,,,,,,,,,,yellow,hexagon
182.0,3.0,3.0,0.0,1.0,1.0,373.144306242466,1.0,1.0,part_1,,,,,,,,,,,,,magenta,cross
0.0,5.0,0.0,1.0,4.0,4.0,484.4182077795267,1.0,1.0,part_1,,,,,,,,,,,,,green,circle
0.0,6.0,0.0,1.0,4.0,4.0,536.5574583411217,1.0,1.0,part_1,,,,,,,,,,,,,blue,flipped triangle
38.0,1.0,1.0,0.0,2.0,2.0,348.1583055108785,1.0,1.0,part_1,,,,,,,,,,,,,cyan,diamond
109.0,2.0,2.0,0.0,1.0,1.0,368.9926471561193,1.0,1.0,part_1,,,,,,,,,,,,,white,square
70.0,1.0,1.0,0.0,1.0,1.0,372.9636687785387,1.0,1.0,part_1,,,,,,,,,,,,,cyan,diamond
0.0,6.0,0.0,1.0,4.0,4.0,458.6786087602377,1.0,1.0,part_1,,,,,,,,,,,,,blue,flipped triangle
0.0,5.0,0.0,1.0,1.0,1.0,439.950343221426,1.0,1.0,part_1,,,,,,,,,,,,,green,circle
0.0,6.0,0.0,1.0,4.0,4.0,554.4559825211763,1.0,1.0,part_1,,,,,,,,,,,,,blue,flipped triangle
102.0,6.0,2.0,1.0,2.0,2.0,376.0536070913076,1.0,1.0,part_1,,,,,,,,,,,,,blue,flipped triangle
122.0,2.0,2.0,0.0,4.0,4.0,533.547542989254,1.0,1.0,part_1,,,,,,,,,,,,,white,square
0.0,7.0,0.0,1.0,3.0,3.0,519.8806039988995,1.0,1.0,part_1,,,,,,,,,,,,,yellow,hexagon
189.0,3.0,3.0,0.0,3.0,3.0,580.8777846395969,1.0,1.0,part_1,,,,,,,,,,,,,magenta,cross
380.0,4.0,4.0,0.0,1.0,1.0,388.7030687183141,1.0,1.0,part_1,,,,,,,,,,,,,gray,triangle
218.0,7.0,3.0,1.0,3.0,3.0,510.5293542146683,1.0,1.0,part_1,,,,,,,,,,,,,yellow,hexagon
178.0,7.0,3.0,1.0,3.0,3.0,573.8583356142044,1.0,1.0,part_1,,,,,,,,,,,,,yellow,hexagon
215.0,7.0,3.0,1.0,3.0,3.0,553.0843921005726,1.0,1.0,part_1,,,,,,,,,,,,,yellow,hexagon
40.0,5.0,1.0,1.0,3.0,3.0,526.1512864381075,1.0,1.0,part_1,,,,,,,,,,,,,green,circle
64.0,5.0,1.0,1.0,2.0,2.0,353.5309266299009,1.0,1.0,part_1,,,,,,,,,,,,,green,circle
401.0,8.0,4.0,1.0,4.0,4.0,493.6463851481676,1.0,1.0,part_1,,,,,,,,,,,,,orange,I
204.0,7.0,3.0,1.0,2.0,2.0,466.4917252957821,1.0,1.0,part_1,,,,,,,,,,,,,yellow,hexagon
395.0,8.0,4.0,1.0,3.0,3.0,607.0568729192019,1.0,1.0,part_1,,,,,,,,,,,,,orange,I
51.0,5.0,1.0,1.0,2.0,2.0,387.0067168027162,1.0,1.0,part_1,,,,,,,,,,,,,green,circle
61.0,5.0,1.0,1.0,4.0,4.0,433.7631668895483,1.0,1.0,part_1,,,,,,,,,,,,,green,circle
402.0,4.0,4.0,0.0,2.0,2.0,580.5480573326349,1.0,1.0,part_1,,,,,,,,,,,,,gray,triangle
112.0,6.0,2.0,1.0,2.0,2.0,588.6905640363693,1.0,1.0,part_1,,,,,,,,,,,,,blue,flipped triangle
45.0,1.0,1.0,0.0,3.0,3.0,502.12796963751316,1.0,1.0,part_1,,,,,,,,,,,,,cyan,diamond
215.0,3.0,3.0,0.0,1.0,1.0,443.241411820054,1.0,1.0,part_1,,,,,,,,,,,,,magenta,cross
387.0,4.0,4.0,0.0,1.0,1.0,571.0693411529064,1.0,1.0,part_1,,,,,,,,,,,,,gray,triangle
122.0,2.0,2.0,0.0,4.0,4.0,534.9815394729376,1.0,1.0,part_1,,,,,,,,,,,,,white,square
0.0,3.0,0.0,0.0,2.0,2.0,628.2331198453903,1.0,1.0,part_1,,,,,,,,,,,,,magenta,cross
39.0,5.0,1.0,1.0,4.0,4.0,509.58179123699665,1.0,1.0,part_1,,,,,,,,,,,,,green,circle
113.0,6.0,2.0,1.0,3.0,3.0,565.0992747396231,1.0,1.0,part_1,,,,,,,,,,,,,blue,flipped triangle
197.0,7.0,3.0,1.0,2.0,2.0,398.5818140208721,1.0,1.0,part_1,,,,,,,,,,,,,yellow,hexagon
215.0,3.0,3.0,0.0,2.0,2.0,518.9134441316128,1.0,1.0,part_1,,,,,,,,,,,,,magenta,cross
222.0,7.0,3.0,1.0,3.0,3.0,488.9602269977331,1.0,1.0,part_1,,,,,,,,,,,,,yellow,hexagon
0.0,1.0,0.0,0.0,4.0,4.0,469.8676243424415,1.0,1.0,part_1,,,,,,,,,,,,,cyan,diamond
384.0,8.0,4.0,1.0,3.0,3.0,586.3485708832741,1.0,1.0,part_1,,,,,,,,,,,,,orange,I
393.0,4.0,4.0,0.0,2.0,2.0,473.0329625308513,1.0,1.0,part_1,,,,,,,,,,,,,gray,triangle
402.0,8.0,4.0,1.0,4.0,4.0,507.7635571360588,1.0,1.0,part_1,,,,,,,,,,,,,orange,I
43.0,1.0,1.0,0.0,3.0,3.0,535.633772611618,1.0,1.0,part_1,,,,,,,,,,,,,cyan,diamond
0.0,8.0,0.0,1.0,4.0,4.0,628.8977842777967,1.0,1.0,part_1,,,,,,,,,,,,,orange,I
0.0,2.0,0.0,0.0,3.0,3.0,651.928136125207,1.0,1.0,part_1,,,,,,,,,,,,,white,square
99.0,6.0,2.0,1.0,1.0,1.0,381.465008482337,1.0,1.0,part_1,,,,,,,,,,,,,blue,flipped triangle
72.0,5.0,1.0,1.0,1.0,1.0,373.9454634487629,1.0,1.0,part_1,,,,,,,,,,,,,green,circle
188.0,7.0,3.0,1.0,2.0,2.0,399.2088325321674,1.0,1.0,part_1,,,,,,,,,,,,,yellow,hexagon
82.0,6.0,2.0,1.0,3.0,3.0,590.8305030316114,1.0,1.0,part_1,,,,,,,,,,,,,blue,flipped triangle
215.0,7.0,3.0,1.0,3.0,3.0,623.9903084933758,2.0,1.0,part_1,,,,,,,,,,,,,yellow,hexagon
208.0,3.0,3.0,0.0,1.0,1.0,436.1478760838508,2.0,1.0,part_1,,,,,,,,,,,,,magenta,cross
80.0,6.0,2.0,1.0,2.0,2.0,488.5322656482458,2.0,1.0,part_1,,,,,,,,,,,,,blue,flipped triangle
93.0,2.0,2.0,0.0,1.0,1.0,549.5055466890335,2.0,1.0,part_1,,,,,,,,,,,,,white,square
193.0,3.0,3.0,0.0,1.0,1.0,436.6839341819286,2.0,1.0,part_1,,,,,,,,,,,,,magenta,cross
31.0,1.0,1.0,0.0,2.0,2.0,450.1841180026531,2.0,1.0,part_1,,,,,,,,,,,,,cyan,diamond
206.0,7.0,3.0,1.0,1.0,1.0,406.7135397344827,2.0,1.0,part_1,,,,,,,,,,,,,yellow,hexagon
418.0,4.0,4.0,0.0,2.0,2.0,568.4691686183214,2.0,1.0,part_1,,,,,,,,,,,,,gray,triangle
29.0,5.0,1.0,1.0,1.0,1.0,493.0392652750015,2.0,1.0,part_1,,,,,,,,,,,,,green,circle
115.0,6.0,2.0,1.0,1.0,1.0,357.6770611107349,2.0,1.0,part_1,,,,,,,,,,,,,blue,flipped triangle
0.0,8.0,0.0,1.0,3.0,3.0,566.7929761111736,2.0,1.0,part_1,,,,,,,,,,,,,orange,I
411.0,8.0,4.0,1.0,1.0,1.0,523.3574658632278,2.0,1.0,part_1,,,,,,,,,,,,,orange,I
65.0,1.0,1.0,0.0,2.0,2.0,825.5922496318817,2.0,1.0,part_1,,,,,,,,,,,,,cyan,diamond
50.0,5.0,1.0,1.0,4.0,4.0,759.188225492835,2.0,1.0,part_1,,,,,,,,,,,,,green,circle
203.0,7.0,3.0,1.0,3.0,3.0,509.00954380631447,2.0,1.0,part_1,,,,,,,,,,,,,yellow,hexagon
392.0,4.0,4.0,0.0,4.0,4.0,606.6766586154699,2.0,1.0,part_1,,,,,,,,,,,,,gray,triangle
45.0,5.0,1.0,1.0,4.0,4.0,683.5446320474148,2.0,1.0,part_1,,,,,,,,,,,,,green,circle
0.0,8.0,0.0,1.0,1.0,1.0,487.2314054518938,2.0,1.0,part_1,,,,,,,,,,,,,orange,I
0.0,5.0,0.0,1.0,1.0,1.0,623.6952897161245,2.0,1.0,part_1,,,,,,,,,,,,,green,circle
415.0,8.0,4.0,1.0,3.0,3.0,587.3555578291416,2.0,1.0,part_1,,,,,,,,,,,,,orange,I
210.0,7.0,3.0,1.0,4.0,4.0,517.9044008255005,2.0,1.0,part_1,,,,,,,,,,,,,yellow,hexagon
203.0,3.0,3.0,0.0,1.0,1.0,443.4221740812063,2.0,1.0,part_1,,,,,,,,,,,,,magenta,cross
0.0,8.0,0.0,1.0,1.0,1.0,448.2896719127893,2.0,1.0,part_1,,,,,,,,,,,,,orange,I
0.0,3.0,0.0,0.0,1.0,1.0,468.3325923979282,2.0,1.0,part_1,,,,,,,,,,,,,magenta,cross
411.0,4.0,4.0,0.0,1.0,1.0,554.7124668955803,2.0,1.0,part_1,,,,,,,,,,,,,gray,triangle
61.0,1.0,1.0,0.0,3.0,3.0,934.5532655715942,2.0,1.0,part_1,,,,,,,,,,,,,cyan,diamond
101.0,6.0,2.0,1.0,1.0,1.0,612.399335950613,2.0,1.0,part_1,,,,,,,,,,,,,blue,flipped triangle
0.0,6.0,0.0,1.0,2.0,2.0,670.6510130316019,2.0,1.0,part_1,,,,,,,,,,,,,blue,flipped triangle
0.0,7.0,0.0,1.0,4.0,4.0,386.5723758935928,2.0,1.0,part_1,,,,,,,,,,,,,yellow,hexagon
52.0,5.0,1.0,1.0,3.0,3.0,586.2479154020548,2.0,1.0,part_1,,,,,,,,,,,,,green,circle
43.0,1.0,1.0,0.0,2.0,2.0,639.5269110798836,2.0,1.0,part_1,,,,,,,,,,,,,cyan,diamond
200.0,3.0,3.0,0.0,3.0,3.0,674.7328620404005,2.0,1.0,part_1,,,,,,,,,,,,,magenta,cross
423.0,4.0,4.0,0.0,1.0,1.0,440.3769709169864,2.0,1.0,part_1,,,,,,,,,,,,,gray,triangle
399.0,4.0,4.0,0.0,4.0,4.0,658.8982865214348,2.0,1.0,part_1,,,,,,,,,,,,,gray,triangle
0.0,5.0,0.0,1.0,2.0,2.0,679.4097926467657,2.0,1.0,part_1,,,,,,,,,,,,,green,circle
410.0,8.0,4.0,1.0,1.0,1.0,605.3271759301424,2.0,1.0,part_1,,,,,,,,,,,,,orange,I
0.0,6.0,0.0,1.0,1.0,1.0,394.5679720491171,2.0,1.0,part_1,,,,,,,,,,,,,blue,flipped triangle
416.0,4.0,4.0,0.0,3.0,3.0,583.0335766077042,2.0,1.0,part_1,,,,,,,,,,,,,gray,triangle
45.0,5.0,1.0,1.0,2.0,2.0,650.672884657979,2.0,1.0,part_1,,,,,,,,,,,,,green,circle
33.0,1.0,1.0,0.0,2.0,2.0,630.7009067386389,2.0,1.0,part_1,,,,,,,,,,,,,cyan,diamond
88.0,2.0,2.0,0.0,2.0,2.0,587.4452441930771,2.0,1.0,part_1,,,,,,,,,,,,,white,square
0.0,6.0,0.0,1.0,2.0,2.0,528.3463504165411,2.0,1.0,part_1,,,,,,,,,,,,,blue,flipped triangle
381.0,8.0,4.0,1.0,2.0,2.0,551.9984662532806,2.0,1.0,part_1,,,,,,,,,,,,,orange,I
417.0,8.0,4.0,1.0,2.0,2.0,692.3543307930231,2.0,1.0,part_1,,,,,,,,,,,,,orange,I
0.0,6.0,0.0,1.0,2.0,2.0,478.4836396574974,2.0,1.0,part_1,,,,,,,,,,,,,blue,flipped triangle
193.0,7.0,3.0,1.0,2.0,2.0,541.7096577584743,2.0,1.0,part_1,,,,,,,,,,,,,yellow,hexagon
423.0,8.0,4.0,1.0,2.0,2.0,510.8085460960865,2.0,1.0,part_1,,,,,,,,,,,,,orange,I
51.0,1.0,1.0,0.0,4.0,4.0,703.7465237081051,2.0,1.0,part_1,,,,,,,,,,,,,cyan,diamond
197.0,3.0,3.0,0.0,3.0,3.0,658.9026059955359,2.0,1.0,part_1,,,,,,,,,,,,,magenta,cross
82.0,6.0,2.0,1.0,1.0,1.0,349.7601207345724,2.0,1.0,part_1,,,,,,,,,,,,,blue,flipped triangle
71.0,5.0,1.0,1.0,3.0,3.0,573.3651854097843,2.0,1.0,part_1,,,,,,,,,,,,,green,circle
410.0,4.0,4.0,0.0,1.0,1.0,590.1190601289272,2.0,1.0,part_1,,,,,,,,,,,,,gray,triangle
0.0,5.0,0.0,1.0,3.0,3.0,565.8795684576035,2.0,1.0,part_1,,,,,,,,,,,,,green,circle
405.0,8.0,4.0,1.0,3.0,3.0,455.7383470237255,2.0,1.0,part_1,,,,,,,,,,,,,orange,I
379.0,4.0,4.0,0.0,1.0,1.0,565.889885649085,2.0,1.0,part_1,,,,,,,,,,,,,gray,triangle
70.0,5.0,1.0,1.0,1.0,1.0,473.3486473560333,2.0,1.0,part_1,,,,,,,,,,,,,green,circle
70.0,5.0,1.0,1.0,4.0,4.0,504.75457683205605,2.0,1.0,part_1,,,,,,,,,,,,,green,circle
89.0,2.0,2.0,0.0,2.0,2.0,691.3556400686502,2.0,1.0,part_1,,,,,,,,,,,,,white,square
423.0,4.0,4.0,0.0,1.0,1.0,471.8543142080307,2.0,1.0,part_1,,,,,,,,,,,,,gray,triangle
211.0,7.0,3.0,1.0,2.0,2.0,542.6198411732912,2.0,1.0,part_1,,,,,,,,,,,,,yellow,hexagon
0.0,2.0,0.0,0.0,1.0,1.0,488.7815248221159,2.0,1.0,part_1,,,,,,,,,,,,,white,square
375.0,4.0,4.0,0.0,2.0,2.0,709.0323586016893,2.0,1.0,part_1,,,,,,,,,,,,,gray,triangle
202.0,3.0,3.0,0.0,1.0,1.0,571.4942701160908,2.0,1.0,part_1,,,,,,,,,,,,,magenta,cross
198.0,3.0,3.0,0.0,1.0,1.0,504.1816886514425,2.0,1.0,part_1,,,,,,,,,,,,,magenta,cross
379.0,4.0,4.0,0.0,2.0,2.0,622.3673336207867,2.0,1.0,part_1,,,,,,,,,,,,,gray,triangle
122.0,2.0,2.0,0.0,4.0,4.0,585.6710337102413,2.0,1.0,part_1,,,,,,,,,,,,,white,square
206.0,7.0,3.0,1.0,1.0,1.0,447.5939590483904,2.0,1.0,part_1,,,,,,,,,,,,,yellow,hexagon
181.0,7.0,3.0,1.0,4.0,4.0,667.4997806549072,2.0,1.0,part_1,,,,,,,,,,,,,yellow,hexagon
192.0,7.0,3.0,1.0,2.0,2.0,538.0720719695091,2.0,1.0,part_1,,,,,,,,,,,,,yellow,hexagon
387.0,4.0,4.0,0.0,4.0,4.0,613.714374601841,2.0,1.0,part_1,,,,,,,,,,,,,gray,triangle
211.0,7.0,3.0,1.0,3.0,3.0,760.1416483521461,2.0,1.0,part_1,,,,,,,,,,,,,yellow,hexagon
0.0,7.0,0.0,1.0,3.0,3.0,728.2882556319237,2.0,1.0,part_1,,,,,,,,,,,,,yellow,hexagon
421.0,8.0,4.0,1.0,2.0,2.0,844.2088272422552,2.0,1.0,part_1,,,,,,,,,,,,,orange,I
70.0,1.0,1.0,0.0,4.0,4.0,543.3675907552242,2.0,1.0,part_1,,,,,,,,,,,,,cyan,diamond
75.0,5.0,1.0,1.0,3.0,3.0,683.2749545574188,2.0,1.0,part_1,,,,,,,,,,,,,green,circle
414.0,4.0,4.0,0.0,4.0,4.0,874.4480237364769,2.0,1.0,part_1,,,,,,,,,,,,,gray,triangle
122.0,6.0,2.0,1.0,4.0,4.0,500.04679150879383,2.0,1.0,part_1,,,,,,,,,,,,,blue,flipped triangle
109.0,6.0,2.0,1.0,4.0,4.0,849.3474405258894,2.0,1.0,part_1,,,,,,,,,,,,,blue,flipped triangle
76.0,6.0,2.0,1.0,2.0,2.0,605.7331208139658,2.0,1.0,part_1,,,,,,,,,,,,,blue,flipped triangle
0.0,1.0,0.0,0.0,3.0,3.0,530.4823201149702,2.0,1.0,part_1,,,,,,,,,,,,,cyan,diamond
0.0,1.0,0.0,0.0,1.0,1.0,424.0824542939663,2.0,1.0,part_1,,,,,,,,,,,,,cyan,diamond
0.0,2.0,0.0,0.0,4.0,4.0,518.1200988590717,2.0,1.0,part_1,,,,,,,,,,,,,white,square
64.0,1.0,1.0,0.0,1.0,1.0,441.4753541350364,2.0,1.0,part_1,,,,,,,,,,,,,cyan,diamond
192.0,3.0,3.0,0.0,2.0,2.0,500.07396191358566,2.0,1.0,part_1,,,,,,,,,,,,,magenta,cross
0.0,8.0,0.0,1.0,3.0,3.0,538.8667490333319,2.0,1.0,part_1,,,,,,,,,,,,,orange,I
121.0,6.0,2.0,1.0,1.0,1.0,504.823112860322,2.0,1.0,part_1,,,,,,,,,,,,,blue,flipped triangle
423.0,8.0,4.0,1.0,2.0,2.0,484.6606273204088,2.0,1.0,part_1,,,,,,,,,,,,,orange,I
91.0,2.0,2.0,0.0,3.0,3.0,514.3354516476393,2.0,1.0,part_1,,,,,,,,,,,,,white,square
0.0,6.0,0.0,1.0,3.0,3.0,564.8608505725861,2.0,1.0,part_1,,,,,,,,,,,,,blue,flipped triangle
45.0,1.0,1.0,0.0,1.0,1.0,577.3618835955858,2.0,1.0,part_1,,,,,,,,,,,,,cyan,diamond
99.0,2.0,2.0,0.0,3.0,3.0,511.3984625786543,2.0,1.0,part_1,,,,,,,,,,,,,white,square
38.0,5.0,1.0,1.0,4.0,4.0,698.8169029355049,2.0,1.0,part_1,,,,,,,,,,,,,green,circle
375.0,8.0,4.0,1.0,4.0,4.0,878.3618602901697,2.0,1.0,part_1,,,,,,,,,,,,,orange,I
198.0,7.0,3.0,1.0,4.0,4.0,699.5359919965267,2.0,1.0,part_1,,,,,,,,,,,,,yellow,hexagon
0.0,7.0,0.0,1.0,3.0,3.0,691.778164356947,2.0,1.0,part_1,,,,,,,,,,,,,yellow,hexagon
0.0,3.0,0.0,0.0,2.0,2.0,406.1010293662548,2.0,1.0,part_1,,,,,,,,,,,,,magenta,cross
98.0,6.0,2.0,1.0,1.0,1.0,748.0520382523537,2.0,1.0,part_1,,,,,,,,,,,,,blue,flipped triangle
219.0,3.0,3.0,0.0,3.0,3.0,792.5303839147091,2.0,1.0,part_1,,,,,,,,,,,,,magenta,cross
0.0,7.0,0.0,1.0,1.0,1.0,555.2872158586979,2.0,1.0,part_1,,,,,,,,,,,,,yellow,hexagon
0.0,7.0,0.0,1.0,4.0,4.0,633.0000720918179,2.0,1.0,part_1,,,,,,,,,,,,,yellow,hexagon
112.0,2.0,2.0,0.0,4.0,4.0,955.3739205002784,3.0,1.0,part_1,,,,,,,,,,,,,white,square
107.0,6.0,2.0,1.0,4.0,4.0,588.1949197500944,3.0,1.0,part_1,,,,,,,,,,,,,blue,flipped triangle
62.0,1.0,1.0,0.0,2.0,2.0,675.6684761494398,3.0,1.0,part_1,,,,,,,,,,,,,cyan,diamond
0.0,8.0,0.0,1.0,1.0,1.0,581.3670717179775,3.0,1.0,part_1,,,,,,,,,,,,,orange,I
70.0,1.0,1.0,0.0,1.0,1.0,547.355292364955,3.0,1.0,part_1,,,,,,,,,,,,,cyan,diamond
183.0,7.0,3.0,1.0,3.0,3.0,542.496720328927,3.0,1.0,part_1,,,,,,,,,,,,,yellow,hexagon
95.0,2.0,2.0,0.0,2.0,2.0,491.2569243460893,3.0,1.0,part_1,,,,,,,,,,,,,white,square
176.0,3.0,3.0,0.0,2.0,2.0,578.690929338336,3.0,1.0,part_1,,,,,,,,,,,,,magenta,cross
218.0,7.0,3.0,1.0,2.0,2.0,502.92062386870384,3.0,1.0,part_1,,,,,,,,,,,,,yellow,hexagon
92.0,6.0,2.0,1.0,3.0,3.0,556.5232820808887,3.0,1.0,part_1,,,,,,,,,,,,,blue,flipped triangle
44.0,5.0,1.0,1.0,1.0,1.0,384.5555689185858,3.0,1.0,part_1,,,,,,,,,,,,,green,circle
108.0,2.0,2.0,0.0,3.0,3.0,589.9872798472643,3.0,1.0,part_1,,,,,,,,,,,,,white,square
402.0,8.0,4.0,1.0,3.0,3.0,465.9701474010944,3.0,1.0,part_1,,,,,,,,,,,,,orange,I
0.0,2.0,0.0,0.0,4.0,4.0,646.2067048996687,3.0,1.0,part_1,,,,,,,,,,,,,white,square
0.0,5.0,0.0,1.0,4.0,4.0,453.1887751072645,3.0,1.0,part_1,,,,,,,,,,,,,green,circle
45.0,5.0,1.0,1.0,2.0,2.0,637.4711692333221,3.0,1.0,part_1,,,,,,,,,,,,,green,circle
0.0,1.0,0.0,0.0,3.0,3.0,622.5135400891304,3.0,1.0,part_1,,,,,,,,,,,,,cyan,diamond
0.0,5.0,0.0,1.0,4.0,4.0,656.8241994827986,3.0,1.0,part_1,,,,,,,,,,,,,green,circle
206.0,3.0,3.0,0.0,3.0,3.0,575.9481638669968,3.0,1.0,part_1,,,,,,,,,,,,,magenta,cross
33.0,5.0,1.0,1.0,2.0,2.0,940.1850383728744,3.0,1.0,part_1,,,,,,,,,,,,,green,circle
72.0,1.0,1.0,0.0,4.0,4.0,511.06794364750385,3.0,1.0,part_1,,,,,,,,,,,,,cyan,diamond
33.0,1.0,1.0,0.0,4.0,4.0,356.4507719129324,3.0,1.0,part_1,,,,,,,,,,,,,cyan,diamond
385.0,8.0,4.0,1.0,2.0,2.0,745.0868375599384,3.0,1.0,part_1,,,,,,,,,,,,,orange,I
33.0,5.0,1.0,1.0,3.0,3.0,478.1575743108988,3.0,1.0,part_1,,,,,,,,,,,,,green,circle
210.0,3.0,3.0,0.0,1.0,1.0,591.4781074970961,3.0,1.0,part_1,,,,,,,,,,,,,magenta,cross
0.0,5.0,0.0,1.0,1.0,1.0,519.3522926419973,3.0,1.0,part_1,,,,,,,,,,,,,green,circle
53.0,1.0,1.0,0.0,4.0,4.0,668.0250559002161,3.0,1.0,part_1,,,,,,,,,,,,,cyan,diamond
0.0,2.0,0.0,0.0,2.0,2.0,622.4982403218746,3.0,1.0,part_1,,,,,,,,,,,,,white,square
70.0,5.0,1.0,1.0,1.0,1.0,650.9453989565372,3.0,1.0,part_1,,,,,,,,,,,,,green,circle
69.0,5.0,1.0,1.0,3.0,3.0,623.4050989151001,3.0,1.0,part_1,,,,,,,,,,,,,green,circle
392.0,8.0,4.0,1.0,1.0,1.0,500.79997070133686,3.0,1.0,part_1,,,,,,,,,,,,,orange,I
182.0,7.0,3.0,1.0,2.0,2.0,667.7493434399366,3.0,1.0,part_1,,,,,,,,,,,,,yellow,hexagon
0.0,1.0,0.0,0.0,3.0,3.0,680.6388311088085,3.0,1.0,part_1,,,,,,,,,,,,,cyan,diamond
182.0,7.0,3.0,1.0,1.0,1.0,580.9275694191456,3.0,1.0,part_1,,,,,,,,,,,,,yellow,hexagon
0.0,6.0,0.0,1.0,2.0,2.0,713.9411680400372,3.0,1.0,part_1,,,,,,,,,,,,,blue,flipped triangle
75.0,6.0,2.0,1.0,1.0,1.0,619.5814702659845,3.0,1.0,part_1,,,,,,,,,,,,,blue,flipped triangle
0.0,7.0,0.0,1.0,2.0,2.0,706.6891193389893,3.0,1.0,part_1,,,,,,,,,,,,,yellow,hexagon
202.0,7.0,3.0,1.0,1.0,1.0,509.71657037734985,3.0,1.0,part_1,,,,,,,,,,,,,yellow,hexagon
31.0,5.0,1.0,1.0,1.0,1.0,465.0903474539518,3.0,1.0,part_1,,,,,,,,,,,,,green,circle
106.0,6.0,2.0,1.0,3.0,3.0,662.7711001783609,3.0,1.0,part_1,,,,,,,,,,,,,blue,flipped triangle
36.0,5.0,1.0,1.0,3.0,3.0,613.9161959290504,3.0,1.0,part_1,,,,,,,,,,,,,green,circle
114.0,2.0,2.0,0.0,3.0,3.0,531.2922168523073,3.0,1.0,part_1,,,,,,,,,,,,,white,square
220.0,3.0,3.0,0.0,4.0,4.0,429.7312684357166,3.0,1.0,part_1,,,,,,,,,,,,,magenta,cross
190.0,3.0,3.0,0.0,2.0,2.0,488.6633679270744,3.0,2.0,part_1,,,,,,,,,,,,,magenta,cross
43.0,5.0,1.0,1.0,1.0,1.0,396.3080774992704,3.0,1.0,part_1,,,,,,,,,,,,,green,circle
224.0,3.0,3.0,0.0,4.0,4.0,466.0263638943434,3.0,1.0,part_1,,,,,,,,,,,,,magenta,cross
421.0,4.0,4.0,0.0,4.0,4.0,484.1065909713506,3.0,1.0,part_1,,,,,,,,,,,,,gray,triangle
88.0,6.0,2.0,1.0,4.0,4.0,408.4185715764761,3.0,1.0,part_1,,,,,,,,,,,,,blue,flipped triangle
392.0,4.0,4.0,0.0,4.0,4.0,396.7962432652712,3.0,1.0,part_1,,,,,,,,,,,,,gray,triangle
183.0,3.0,3.0,0.0,2.0,2.0,492.6967639476061,3.0,1.0,part_1,,,,,,,,,,,,,magenta,cross
183.0,3.0,3.0,0.0,3.0,3.0,730.3595915436745,3.0,1.0,part_1,,,,,,,,,,,,,magenta,cross
387.0,8.0,4.0,1.0,4.0,4.0,531.4165037125349,3.0,1.0,part_1,,,,,,,,,,,,,orange,I
414.0,8.0,4.0,1.0,1.0,1.0,538.4187661111355,3.0,1.0,part_1,,,,,,,,,,,,,orange,I
199.0,3.0,3.0,0.0,4.0,4.0,525.1825228333473,3.0,1.0,part_1,,,,,,,,,,,,,magenta,cross
118.0,6.0,2.0,1.0,2.0,2.0,641.5084898471832,3.0,1.0,part_1,,,,,,,,,,,,,blue,flipped triangle
0.0,3.0,0.0,0.0,1.0,1.0,598.262058570981,3.0,1.0,part_1,,,,,,,,,,,,,magenta,cross
176.0,7.0,3.0,1.0,1.0,1.0,562.1287561953068,3.0,1.0,part_1,,,,,,,,,,,,,yellow,hexagon
0.0,7.0,0.0,1.0,2.0,2.0,550.7003925740719,3.0,1.0,part_1,,,,,,,,,,,,,yellow,hexagon
65.0,5.0,1.0,1.0,3.0,3.0,412.5083442777395,3.0,1.0,part_1,,,,,,,,,,,,,green,circle
29.0,1.0,1.0,0.0,4.0,4.0,347.5169017910957,3.0,1.0,part_1,,,,,,,,,,,,,cyan,diamond
222.0,3.0,3.0,0.0,3.0,3.0,461.6443365812301,3.0,1.0,part_1,,,,,,,,,,,,,magenta,cross
107.0,2.0,2.0,0.0,3.0,3.0,577.7150578796864,3.0,1.0,part_1,,,,,,,,,,,,,white,square
398.0,8.0,4.0,1.0,4.0,4.0,433.7368514388799,3.0,1.0,part_1,,,,,,,,,,,,,orange,I
0.0,2.0,0.0,0.0,4.0,4.0,533.6545631289482,3.0,1.0,part_1,,,,,,,,,,,,,white,square
0.0,8.0,0.0,1.0,1.0,1.0,643.0815309286118,3.0,1.0,part_1,,,,,,,,,,,,,orange,I
404.0,4.0,4.0,0.0,3.0,3.0,421.6683655977249,3.0,1.0,part_1,,,,,,,,,,,,,gray,triangle
380.0,8.0,4.0,1.0,4.0,4.0,483.4537226706743,3.0,1.0,part_1,,,,,,,,,,,,,orange,I
181.0,3.0,3.0,0.0,4.0,4.0,480.0374284386635,3.0,1.0,part_1,,,,,,,,,,,,,magenta,cross
122.0,6.0,2.0,1.0,3.0,3.0,396.0967417806387,3.0,1.0,part_1,,,,,,,,,,,,,blue,flipped triangle
210.0,7.0,3.0,1.0,2.0,2.0,769.46328766644,3.0,1.0,part_1,,,,,,,,,,,,,yellow,hexagon
71.0,1.0,1.0,0.0,4.0,4.0,444.4195888936519,3.0,1.0,part_1,,,,,,,,,,,,,cyan,diamond
379.0,8.0,4.0,1.0,3.0,3.0,345.494020730257,3.0,1.0,part_1,,,,,,,,,,,,,orange,I
85.0,6.0,2.0,1.0,3.0,3.0,413.2409077137708,3.0,1.0,part_1,,,,,,,,,,,,,blue,flipped triangle
75.0,2.0,2.0,0.0,2.0,2.0,722.2857307642698,3.0,1.0,part_1,,,,,,,,,,,,,white,square
389.0,8.0,4.0,1.0,3.0,3.0,495.5417439341545,3.0,1.0,part_1,,,,,,,,,,,,,orange,I
0.0,4.0,0.0,0.0,3.0,3.0,443.2643968611955,3.0,1.0,part_1,,,,,,,,,,,,,gray,triangle
0.0,5.0,0.0,1.0,2.0,2.0,513.8367470353842,3.0,1.0,part_1,,,,,,,,,,,,,green,circle
75.0,1.0,1.0,0.0,1.0,1.0,758.7196212261915,3.0,1.0,part_1,,,,,,,,,,,,,cyan,diamond
113.0,2.0,2.0,0.0,2.0,2.0,577.6655841618776,3.0,1.0,part_1,,,,,,,,,,,,,white,square
409.0,4.0,4.0,0.0,2.0,2.0,606.1915159225464,3.0,1.0,part_1,,,,,,,,,,,,,gray,triangle
44.0,1.0,1.0,0.0,4.0,4.0,493.8550982624292,3.0,1.0,part_1,,,,,,,,,,,,,cyan,diamond
0.0,4.0,0.0,0.0,4.0,4.0,496.5796694159508,3.0,1.0,part_1,,,,,,,,,,,,,gray,triangle
404.0,8.0,4.0,1.0,1.0,1.0,524.7242879122496,3.0,1.0,part_1,,,,,,,,,,,,,orange,I
192.0,3.0,3.0,0.0,4.0,4.0,601.520387455821,3.0,1.0,part_1,,,,,,,,,,,,,magenta,cross
398.0,4.0,4.0,0.0,2.0,2.0,581.5023556351662,3.0,1.0,part_1,,,,,,,,,,,,,gray,triangle
108.0,6.0,2.0,1.0,4.0,4.0,579.1088510304689,3.0,1.0,part_1,,,,,,,,,,,,,blue,flipped triangle
393.0,8.0,4.0,1.0,3.0,3.0,431.181937456131,3.0,1.0,part_1,,,,,,,,,,,,,orange,I
105.0,6.0,2.0,1.0,4.0,4.0,419.9331328272819,3.0,1.0,part_1,,,,,,,,,,,,,blue,flipped triangle
91.0,6.0,2.0,1.0,4.0,4.0,288.3429862558841,3.0,1.0,part_1,,,,,,,,,,,,,blue,flipped triangle
197.0,7.0,3.0,1.0,4.0,4.0,557.8999351710081,3.0,1.0,part_1,,,,,,,,,,,,,yellow,hexagon
121.0,2.0,2.0,0.0,3.0,3.0,570.8012469112873,3.0,1.0,part_1,,,,,,,,,,,,,white,square
105.0,6.0,2.0,1.0,3.0,3.0,639.1697842627764,3.0,1.0,part_1,,,,,,,,,,,,,blue,flipped triangle
403.0,4.0,4.0,0.0,1.0,1.0,789.316801354289,3.0,1.0,part_1,,,,,,,,,,,,,gray,triangle
224.0,7.0,3.0,1.0,4.0,4.0,649.9248035252094,3.0,1.0,part_1,,,,,,,,,,,,,yellow,hexagon
419.0,8.0,4.0,1.0,4.0,4.0,884.9804624915123,3.0,2.0,part_1,,,,,,,,,,,,,orange,I
0.0,3.0,0.0,0.0,1.0,1.0,808.6858913302422,3.0,1.0,part_1,,,,,,,,,,,,,magenta,cross
402.0,4.0,4.0,0.0,4.0,4.0,602.5813836604357,3.0,1.0,part_1,,,,,,,,,,,,,gray,triangle
105.0,2.0,2.0,0.0,1.0,1.0,607.4260156601667,3.0,1.0,part_1,,,,,,,,,,,,,white,square
45.0,1.0,1.0,0.0,2.0,2.0,447.8849731385708,3.0,1.0,part_1,,,,,,,,,,,,,cyan,diamond
53.0,5.0,1.0,1.0,4.0,4.0,403.2497517764568,3.0,1.0,part_1,,,,,,,,,,,,,green,circle
183.0,7.0,3.0,1.0,2.0,2.0,443.0597852915525,4.0,3.0,part_1,,,,,,,,,,,,,yellow,hexagon
43.0,1.0,1.0,0.0,2.0,2.0,371.797090396285,4.0,1.0,part_1,,,,,,,,,,,,,cyan,diamond
80.0,6.0,2.0,1.0,1.0,1.0,490.0108519941568,4.0,1.0,part_1,,,,,,,,,,,,,blue,flipped triangle
67.0,1.0,1.0,0.0,2.0,2.0,408.857624977827,4.0,1.0,part_1,,,,,,,,,,,,,cyan,diamond
0.0,4.0,0.0,0.0,2.0,2.0,349.9867487698793,4.0,1.0,part_1,,,,,,,,,,,,,gray,triangle
119.0,6.0,2.0,1.0,1.0,1.0,433.9115358889103,4.0,1.0,part_1,,,,,,,,,,,,,blue,flipped triangle
0.0,8.0,0.0,1.0,3.0,3.0,358.8193245232105,4.0,1.0,part_1,,,,,,,,,,,,,orange,I
59.0,1.0,1.0,0.0,1.0,1.0,492.3422019928694,4.0,1.0,part_1,,,,,,,,,,,,,cyan,diamond
113.0,2.0,2.0,0.0,2.0,2.0,470.6175699830055,4.0,1.0,part_1,,,,,,,,,,,,,white,square
85.0,2.0,2.0,0.0,4.0,4.0,385.5474144220352,4.0,1.0,part_1,,,,,,,,,,,,,white,square
87.0,6.0,2.0,1.0,4.0,4.0,329.5090366154909,4.0,1.0,part_1,,,,,,,,,,,,,blue,flipped triangle
36.0,1.0,1.0,0.0,4.0,4.0,412.3812094330787,4.0,1.0,part_1,,,,,,,,,,,,,cyan,diamond
219.0,7.0,3.0,1.0,1.0,1.0,568.2934354990721,4.0,1.0,part_1,,,,,,,,,,,,,yellow,hexagon
180.0,7.0,3.0,1.0,4.0,4.0,536.0019858926535,4.0,1.0,part_1,,,,,,,,,,,,,yellow,hexagon
396.0,4.0,4.0,0.0,3.0,3.0,442.6669087260961,4.0,1.0,part_1,,,,,,,,,,,,,gray,triangle
0.0,8.0,0.0,1.0,2.0,2.0,485.9580211341381,4.0,1.0,part_1,,,,,,,,,,,,,orange,I
93.0,6.0,2.0,1.0,2.0,2.0,442.3382077366113,4.0,1.0,part_1,,,,,,,,,,,,,blue,flipped triangle
190.0,7.0,3.0,1.0,4.0,4.0,441.8202508240938,4.0,1.0,part_1,,,,,,,,,,,,,yellow,hexagon
396.0,8.0,4.0,1.0,2.0,2.0,556.392528116703,4.0,1.0,part_1,,,,,,,,,,,,,orange,I
211.0,3.0,3.0,0.0,1.0,1.0,602.4973671883345,4.0,1.0,part_1,,,,,,,,,,,,,magenta,cross
76.0,2.0,2.0,0.0,3.0,3.0,373.3282014727592,4.0,1.0,part_1,,,,,,,,,,,,,white,square
33.0,1.0,1.0,0.0,3.0,3.0,442.7319876849651,4.0,1.0,part_1,,,,,,,,,,,,,cyan,diamond
206.0,3.0,3.0,0.0,3.0,3.0,352.5384366512298,4.0,1.0,part_1,,,,,,,,,,,,,magenta,cross
403.0,8.0,4.0,1.0,4.0,4.0,579.3598257005215,4.0,1.0,part_1,,,,,,,,,,,,,orange,I
0.0,4.0,0.0,0.0,3.0,3.0,507.29334354400635,4.0,1.0,part_1,,,,,,,,,,,,,gray,triangle
188.0,3.0,3.0,0.0,2.0,2.0,440.6463652849197,4.0,1.0,part_1,,,,,,,,,,,,,magenta,cross
211.0,3.0,3.0,0.0,2.0,2.0,683.6634930223227,4.0,1.0,part_1,,,,,,,,,,,,,magenta,cross
0.0,3.0,0.0,0.0,3.0,3.0,645.9703631699085,4.0,1.0,part_1,,,,,,,,,,,,,magenta,cross
381.0,4.0,4.0,0.0,3.0,3.0,523.5986448824406,4.0,1.0,part_1,,,,,,,,,,,,,gray,triangle
37.0,5.0,1.0,1.0,2.0,2.0,586.5284167230129,4.0,1.0,part_1,,,,,,,,,,,,,green,circle
55.0,5.0,1.0,1.0,2.0,2.0,372.9519452899694,4.0,1.0,part_1,,,,,,,,,,,,,green,circle
416.0,8.0,4.0,1.0,3.0,3.0,395.9190137684345,4.0,1.0,part_1,,,,,,,,,,,,,orange,I
191.0,7.0,3.0,1.0,4.0,4.0,415.901705622673,4.0,1.0,part_1,,,,,,,,,,,,,yellow,hexagon
0.0,3.0,0.0,0.0,3.0,3.0,394.3080268800258,4.0,1.0,part_1,,,,,,,,,,,,,magenta,cross
180.0,3.0,3.0,0.0,2.0,2.0,472.97916002571577,4.0,1.0,part_1,,,,,,,,,,,,,magenta,cross
62.0,5.0,1.0,1.0,2.0,2.0,461.3924957811832,4.0,1.0,part_1,,,,,,,,,,,,,green,circle
178.0,3.0,3.0,0.0,4.0,4.0,475.0851783901453,4.0,1.0,part_1,,,,,,,,,,,,,magenta,cross
101.0,2.0,2.0,0.0,1.0,1.0,598.9523660391569,4.0,1.0,part_1,,,,,,,,,,,,,white,square
0.0,7.0,0.0,1.0,1.0,1.0,541.8046377599239,4.0,1.0,part_1,,,,,,,,,,,,,yellow,hexagon
415.0,8.0,4.0,1.0,2.0,2.0,519.3249080330133,4.0,1.0,part_1,,,,,,,,,,,,,orange,I
88.0,6.0,2.0,1.0,4.0,4.0,374.3680007755756,4.0,1.0,part_1,,,,,,,,,,,,,blue,flipped triangle
420.0,4.0,4.0,0.0,4.0,4.0,371.2748829275369,4.0,1.0,part_1,,,,,,,,,,,,,gray,triangle
43.0,5.0,1.0,1.0,4.0,4.0,364.36353251338,4.0,1.0,part_1,,,,,,,,,,,,,green,circle
0.0,4.0,0.0,0.0,3.0,3.0,378.1624808907509,4.0,1.0,part_1,,,,,,,,,,,,,gray,triangle
0.0,1.0,0.0,0.0,1.0,1.0,585.4170937091112,4.0,1.0,part_1,,,,,,,,,,,,,cyan,diamond
182.0,3.0,3.0,0.0,4.0,4.0,421.2938528507948,4.0,1.0,part_1,,,,,,,,,,,,,magenta,cross
80.0,2.0,2.0,0.0,1.0,1.0,480.2054930478334,4.0,1.0,part_1,,,,,,,,,,,,,white,square
401.0,4.0,4.0,0.0,1.0,1.0,396.636713296175,4.0,1.0,part_1,,,,,,,,,,,,,gray,triangle
399.0,8.0,4.0,1.0,1.0,1.0,386.3425310701132,4.0,1.0,part_1,,,,,,,,,,,,,orange,I
75.0,1.0,1.0,0.0,1.0,1.0,360.2517750114202,4.0,1.0,part_1,,,,,,,,,,,,,cyan,diamond
122.0,6.0,2.0,1.0,3.0,3.0,379.6626105904579,4.0,1.0,part_1,,,,,,,,,,,,,blue,flipped triangle
395.0,4.0,4.0,0.0,2.0,2.0,535.8154717832804,4.0,1.0,part_1,,,,,,,,,,,,,gray,triangle
220.0,7.0,3.0,1.0,1.0,1.0,396.7010267078876,4.0,1.0,part_1,,,,,,,,,,,,,yellow,hexagon
50.0,1.0,1.0,0.0,3.0,3.0,345.983961597085,4.0,1.0,part_1,,,,,,,,,,,,,cyan,diamond
115.0,2.0,2.0,0.0,1.0,1.0,367.690660059452,4.0,1.0,part_1,,,,,,,,,,,,,white,square
94.0,2.0,2.0,0.0,4.0,4.0,389.5341083407402,4.0,1.0,part_1,,,,,,,,,,,,,white,square
207.0,7.0,3.0,1.0,3.0,3.0,392.4738895148039,4.0,1.0,part_1,,,,,,,,,,,,,yellow,hexagon
113.0,6.0,2.0,1.0,1.0,1.0,587.1128365397453,4.0,1.0,part_1,,,,,,,,,,,,,blue,flipped triangle
28.0,5.0,1.0,1.0,3.0,3.0,507.6783914119005,4.0,1.0,part_1,,,,,,,,,,,,,green,circle
0.0,1.0,0.0,0.0,1.0,1.0,485.9852716326713,4.0,1.0,part_1,,,,,,,,,,,,,cyan,diamond
380.0,8.0,4.0,1.0,1.0,1.0,346.0256960242986,4.0,1.0,part_1,,,,,,,,,,,,,orange,I
0.0,4.0,0.0,0.0,2.0,2.0,561.17800809443,4.0,1.0,part_1,,,,,,,,,,,,,gray,triangle
210.0,3.0,3.0,0.0,3.0,3.0,490.3009478002786,4.0,1.0,part_1,,,,,,,,,,,,,magenta,cross
0.0,8.0,0.0,1.0,4.0,4.0,568.6016995459795,4.0,1.0,part_1,,,,,,,,,,,,,orange,I
98.0,2.0,2.0,0.0,3.0,3.0,439.6494384855032,4.0,1.0,part_1,,,,,,,,,,,,,white,square
420.0,8.0,4.0,1.0,1.0,1.0,480.2995678037405,4.0,1.0,part_1,,,,,,,,,,,,,orange,I
26.0,1.0,1.0,0.0,3.0,3.0,360.8173169195652,4.0,1.0,part_1,,,,,,,,,,,,,cyan,diamond
28.0,1.0,1.0,0.0,2.0,2.0,515.7514754682779,4.0,1.0,part_1,,,,,,,,,,,,,cyan,diamond
0.0,4.0,0.0,0.0,3.0,3.0,335.641236975789,4.0,1.0,part_1,,,,,,,,,,,,,gray,triangle
43.0,5.0,1.0,1.0,2.0,2.0,469.9935968965292,4.0,1.0,part_1,,,,,,,,,,,,,green,circle
30.0,5.0,1.0,1.0,3.0,3.0,474.5378252118826,4.0,1.0,part_1,,,,,,,,,,,,,green,circle
45.0,1.0,1.0,0.0,3.0,3.0,350.4632636904716,4.0,1.0,part_1,,,,,,,,,,,,,cyan,diamond
0.0,4.0,0.0,0.0,2.0,2.0,482.9048495739698,4.0,1.0,part_1,,,,,,,,,,,,,gray,triangle
387.0,8.0,4.0,1.0,1.0,1.0,495.4668041318655,4.0,1.0,part_1,,,,,,,,,,,,,orange,I
59.0,5.0,1.0,1.0,1.0,1.0,485.5976849794388,4.0,1.0,part_1,,,,,,,,,,,,,green,circle
389.0,4.0,4.0,0.0,2.0,2.0,618.066780269146,4.0,1.0,part_1,,,,,,,,,,,,,gray,triangle
191.0,3.0,3.0,0.0,3.0,3.0,510.2354362607002,4.0,1.0,part_1,,,,,,,,,,,,,magenta,cross
207.0,3.0,3.0,0.0,1.0,1.0,576.7747350037098,4.0,1.0,part_1,,,,,,,,,,,,,magenta,cross
26.0,5.0,1.0,1.0,2.0,2.0,462.003979831934,4.0,1.0,part_1,,,,,,,,,,,,,green,circle
197.0,3.0,3.0,0.0,2.0,2.0,604.8192698508501,4.0,1.0,part_1,,,,,,,,,,,,,magenta,cross
0.0,2.0,0.0,0.0,4.0,4.0,768.5786876827478,4.0,1.0,part_1,,,,,,,,,,,,,white,square
415.0,4.0,4.0,0.0,3.0,3.0,380.4163038730621,4.0,1.0,part_1,,,,,,,,,,,,,gray,triangle
197.0,7.0,3.0,1.0,3.0,3.0,395.5689873546362,4.0,1.0,part_1,,,,,,,,,,,,,yellow,hexagon
189.0,7.0,3.0,1.0,4.0,4.0,376.48427300155157,4.0,1.0,part_1,,,,,,,,,,,,,yellow,hexagon
89.0,6.0,2.0,1.0,2.0,2.0,473.7282209098339,4.0,1.0,part_1,,,,,,,,,,,,,blue,flipped triangle
419.0,4.0,4.0,0.0,3.0,3.0,369.9898440390825,4.0,1.0,part_1,,,,,,,,,,,,,gray,triangle
82.0,2.0,2.0,0.0,1.0,1.0,469.4626331329345,4.0,1.0,part_1,,,,,,,,,,,,,white,square
82.0,2.0,2.0,0.0,2.0,2.0,510.916393250227,4.0,1.0,part_1,,,,,,,,,,,,,white,square
197.0,3.0,3.0,0.0,4.0,4.0,359.62512716650957,4.0,1.0,part_1,,,,,,,,,,,,,magenta,cross
393.0,8.0,4.0,1.0,3.0,3.0,483.2039605826139,4.0,1.0,part_1,,,,,,,,,,,,,orange,I
0.0,3.0,0.0,0.0,4.0,4.0,345.1904002577066,4.0,1.0,part_1,,,,,,,,,,,,,magenta,cross
45.0,5.0,1.0,1.0,4.0,4.0,330.1922287791967,4.0,1.0,part_1,,,,,,,,,,,,,green,circle
385.0,4.0,4.0,0.0,3.0,3.0,330.86465485394,4.0,1.0,part_1,,,,,,,,,,,,,gray,triangle
105.0,2.0,2.0,0.0,1.0,1.0,404.2780548334121,4.0,1.0,part_1,,,,,,,,,,,,,white,square
82.0,6.0,2.0,1.0,3.0,3.0,387.1394488960504,4.0,1.0,part_1,,,,,,,,,,,,,blue,flipped triangle
0.0,2.0,0.0,0.0,2.0,2.0,632.7228043228388,4.0,1.0,part_1,,,,,,,,,,,,,white,square
52.0,1.0,1.0,0.0,3.0,3.0,465.7943584024906,4.0,1.0,part_1,,,,,,,,,,,,,cyan,diamond
0.0,4.0,0.0,0.0,3.0,3.0,383.8620726019144,4.0,1.0,part_1,,,,,,,,,,,,,gray,triangle
0.0,4.0,0.0,0.0,3.0,3.0,301.6082383692264,4.0,1.0,part_1,,,,,,,,,,,,,gray,triangle
95.0,2.0,2.0,0.0,3.0,3.0,616.8098691850901,4.0,1.0,part_1,,,,,,,,,,,,,white,square
0.0,8.0,4.0,1.0,5.0,5.0,536.114389076829,1.0,0.0,part_2,stop,250.0,250.0,3.0,,,,,,,,,orange,I
0.0,3.0,3.0,0.0,5.0,5.0,804.5093510299921,1.0,0.0,part_2,go,200.0,250.0,1.0,,,,,,,,,magenta,cross
0.0,7.0,3.0,1.0,6.0,0.0,0.0,1.0,0.0,part_2,stop,200.0,250.0,4.0,,,,,,,,,yellow,hexagon
0.0,8.0,4.0,1.0,6.0,0.0,0.0,1.0,0.0,part_2,stop,200.0,300.0,4.0,,,,,,,,,orange,I
0.0,5.0,1.0,1.0,6.0,6.0,794.1604629158974,1.0,0.0,part_2,go,200.0,350.0,1.0,,,,,,,,,green,circle
0.0,2.0,2.0,0.0,5.0,5.0,595.1360817998648,1.0,0.0,part_2,go,200.0,350.0,1.0,,,,,,,,,white,square
0.0,5.0,1.0,1.0,5.0,0.0,0.0,1.0,0.0,part_2,stop,200.0,350.0,4.0,,,,,,,,,green,circle
0.0,1.0,1.0,0.0,6.0,6.0,672.7742608636618,1.0,0.0,part_2,go,250.0,350.0,1.0,,,,,,,,,cyan,diamond
0.0,3.0,3.0,0.0,6.0,6.0,583.860257640481,1.0,0.0,part_2,go,250.0,350.0,1.0,,,,,,,,,magenta,cross
0.0,5.0,1.0,1.0,6.0,6.0,483.0190259963274,1.0,0.0,part_2,go,250.0,350.0,1.0,,,,,,,,,green,circle
0.0,5.0,1.0,1.0,5.0,5.0,359.0270020067692,1.0,0.0,part_2,stop,250.0,350.0,3.0,,,,,,,,,green,circle
0.0,8.0,4.0,1.0,6.0,0.0,0.0,1.0,0.0,part_2,stop,200.0,350.0,4.0,,,,,,,,,orange,I
0.0,2.0,2.0,0.0,6.0,6.0,694.4862399250269,1.0,0.0,part_2,go,200.0,400.0,1.0,,,,,,,,,white,square
0.0,3.0,3.0,0.0,6.0,6.0,480.1362082362175,1.0,0.0,part_2,go,200.0,400.0,1.0,,,,,,,,,magenta,cross
0.0,8.0,4.0,1.0,5.0,0.0,0.0,1.0,0.0,part_2,stop,200.0,400.0,4.0,,,,,,,,,orange,I
0.0,1.0,1.0,0.0,6.0,6.0,356.5051425248384,1.0,0.0,part_2,go,250.0,400.0,1.0,,,,,,,,,cyan,diamond
0.0,3.0,3.0,0.0,5.0,5.0,619.3916480988264,1.0,0.0,part_2,go,250.0,400.0,1.0,,,,,,,,,magenta,cross
0.0,3.0,3.0,0.0,6.0,6.0,550.9713608771563,1.0,0.0,part_2,go,250.0,400.0,1.0,,,,,,,,,magenta,cross
0.0,7.0,3.0,1.0,6.0,6.0,638.2299922406673,1.0,0.0,part_2,stop,250.0,400.0,3.0,,,,,,,,,yellow,hexagon
0.0,7.0,3.0,1.0,6.0,0.0,0.0,1.0,0.0,part_2,stop,250.0,350.0,4.0,,,,,,,,,yellow,hexagon
0.0,4.0,4.0,0.0,5.0,5.0,692.8571071475744,1.0,0.0,part_2,go,250.0,400.0,1.0,,,,,,,,,gray,triangle
0.0,5.0,1.0,1.0,5.0,0.0,0.0,1.0,0.0,part_2,stop,250.0,400.0,4.0,,,,,,,,,green,circle
0.0,7.0,3.0,1.0,5.0,0.0,0.0,1.0,0.0,part_2,stop,300.0,400.0,4.0,,,,,,,,,yellow,hexagon
0.0,2.0,2.0,0.0,6.0,6.0,746.7961311340332,1.0,0.0,part_2,go,350.0,400.0,1.0,,,,,,,,,white,square
0.0,1.0,1.0,0.0,6.0,6.0,807.2325382381678,1.0,0.0,part_2,go,350.0,400.0,1.0,,,,,,,,,cyan,diamond
0.0,8.0,4.0,1.0,5.0,0.0,0.0,1.0,0.0,part_2,stop,350.0,400.0,4.0,,,,,,,,,orange,I
0.0,1.0,1.0,0.0,5.0,5.0,1030.139233916998,1.0,0.0,part_2,go,400.0,400.0,1.0,,,,,,,,,cyan,diamond
0.0,5.0,1.0,1.0,6.0,0.0,0.0,1.0,0.0,part_2,stop,400.0,400.0,4.0,,,,,,,,,green,circle
0.0,1.0,1.0,0.0,6.0,6.0,1333.4231059998274,1.0,0.0,part_2,go,400.0,450.0,1.0,,,,,,,,,cyan,diamond
0.0,6.0,2.0,1.0,6.0,0.0,0.0,1.0,0.0,part_2,stop,400.0,450.0,4.0,,,,,,,,,blue,flipped triangle
0.0,1.0,1.0,0.0,5.0,5.0,604.0554717183113,1.0,0.0,part_2,go,400.0,500.0,1.0,,,,,,,,,cyan,diamond
0.0,2.0,2.0,0.0,6.0,6.0,1338.9884270727634,1.0,0.0,part_2,go,400.0,500.0,1.0,,,,,,,,,white,square
0.0,6.0,2.0,1.0,5.0,0.0,0.0,1.0,0.0,part_2,stop,400.0,500.0,4.0,,,,,,,,,blue,flipped triangle
0.0,6.0,2.0,1.0,6.0,0.0,0.0,1.0,0.0,part_2,stop,450.0,500.0,4.0,,,,,,,,,blue,flipped triangle
0.0,2.0,2.0,0.0,5.0,5.0,1225.6772685796022,1.0,0.0,part_2,go,450.0,550.0,1.0,,,,,,,,,white,square
0.0,4.0,4.0,0.0,6.0,6.0,977.4158839136362,1.0,0.0,part_2,go,450.0,550.0,1.0,,,,,,,,,gray,triangle
0.0,5.0,1.0,1.0,5.0,5.0,606.2468010932207,2.0,0.0,part_2,stop,450.0,550.0,3.0,,,,,,,,,green,circle
0.0,8.0,4.0,1.0,5.0,0.0,0.0,2.0,0.0,part_2,stop,400.0,550.0,4.0,,,,,,,,,orange,I
0.0,2.0,2.0,0.0,6.0,6.0,1437.3253714293242,2.0,0.0,part_2,go,450.0,550.0,1.0,,,,,,,,,white,square
0.0,5.0,1.0,1.0,5.0,0.0,0.0,2.0,0.0,part_2,stop,450.0,550.0,4.0,,,,,,,,,green,circle
0.0,7.0,3.0,1.0,6.0,0.0,0.0,2.0,0.0,part_2,stop,500.0,550.0,4.0,,,,,,,,,yellow,hexagon
0.0,4.0,4.0,0.0,5.0,5.0,637.7572063356638,2.0,0.0,part_2,go,500.0,600.0,1.0,,,,,,,,,gray,triangle
0.0,7.0,3.0,1.0,5.0,0.0,0.0,2.0,0.0,part_2,stop,500.0,600.0,4.0,,,,,,,,,yellow,hexagon
0.0,6.0,2.0,1.0,5.0,5.0,1278.0109662562609,2.0,0.0,part_2,go,550.0,600.0,1.0,,,,,,,,,blue,flipped triangle
0.0,4.0,4.0,0.0,5.0,5.0,1421.391736716032,2.0,0.0,part_2,go,550.0,600.0,1.0,,,,,,,,,gray,triangle
0.0,6.0,2.0,1.0,5.0,0.0,0.0,2.0,0.0,part_2,stop,550.0,600.0,4.0,,,,,,,,,blue,flipped triangle
0.0,5.0,1.0,1.0,5.0,5.0,1113.0538303405046,2.0,0.0,part_2,go,600.0,600.0,1.0,,,,,,,,,green,circle
0.0,3.0,3.0,0.0,5.0,5.0,1040.9704353660345,2.0,0.0,part_2,go,600.0,600.0,1.0,,,,,,,,,magenta,cross
0.0,1.0,1.0,0.0,5.0,5.0,1424.4000762701037,2.0,0.0,part_2,go,600.0,600.0,1.0,,,,,,,,,cyan,diamond
0.0,6.0,2.0,1.0,6.0,0.0,0.0,2.0,0.0,part_2,stop,600.0,600.0,4.0,,,,,,,,,blue,flipped triangle
0.0,8.0,4.0,1.0,6.0,6.0,801.2400269508362,2.0,0.0,part_2,go,600.0,650.0,1.0,,,,,,,,,orange,I
0.0,5.0,1.0,1.0,6.0,0.0,0.0,2.0,0.0,part_2,stop,600.0,650.0,4.0,,,,,,,,,green,circle
0.0,2.0,2.0,0.0,6.0,6.0,1390.511225908995,2.0,0.0,part_2,go,600.0,700.0,1.0,,,,,,,,,white,square
0.0,2.0,2.0,0.0,5.0,5.0,1008.6223296821115,2.0,0.0,part_2,go,600.0,700.0,1.0,,,,,,,,,white,square
0.0,4.0,4.0,0.0,5.0,5.0,1134.7488071769476,2.0,0.0,part_2,go,600.0,700.0,1.0,,,,,,,,,gray,triangle
0.0,7.0,3.0,1.0,6.0,0.0,0.0,2.0,0.0,part_2,stop,600.0,700.0,4.0,,,,,,,,,yellow,hexagon
0.0,7.0,3.0,1.0,6.0,0.0,0.0,2.0,0.0,part_2,stop,600.0,750.0,4.0,,,,,,,,,yellow,hexagon
0.0,2.0,2.0,0.0,5.0,5.0,989.1222808510064,2.0,0.0,part_2,go,600.0,800.0,1.0,,,,,,,,,white,square
0.0,7.0,3.0,1.0,5.0,5.0,1434.1057110577822,2.0,0.0,part_2,go,600.0,800.0,1.0,,,,,,,,,yellow,hexagon
0.0,3.0,3.0,0.0,6.0,6.0,1209.886595606804,2.0,0.0,part_2,go,600.0,800.0,1.0,,,,,,,,,magenta,cross
0.0,2.0,2.0,0.0,5.0,5.0,841.043384745717,2.0,0.0,part_2,go,600.0,800.0,1.0,,,,,,,,,white,square
0.0,4.0,4.0,0.0,6.0,6.0,786.701075732708,2.0,0.0,part_2,go,600.0,800.0,1.0,,,,,,,,,gray,triangle
0.0,8.0,4.0,1.0,5.0,0.0,0.0,2.0,0.0,part_2,stop,600.0,800.0,4.0,,,,,,,,,orange,I
0.0,8.0,4.0,1.0,5.0,0.0,0.0,2.0,0.0,part_2,stop,650.0,800.0,4.0,,,,,,,,,orange,I
0.0,3.0,3.0,0.0,6.0,6.0,703.8251310586929,2.0,0.0,part_2,go,700.0,800.0,1.0,,,,,,,,,magenta,cross
0.0,7.0,3.0,1.0,6.0,0.0,0.0,2.0,0.0,part_2,stop,700.0,800.0,4.0,,,,,,,,,yellow,hexagon
0.0,1.0,1.0,0.0,6.0,6.0,1008.0856140702965,2.0,0.0,part_2,go,700.0,850.0,1.0,,,,,,,,,cyan,diamond
0.0,6.0,2.0,1.0,5.0,5.0,1145.300628617406,2.0,0.0,part_2,go,700.0,850.0,1.0,,,,,,,,,blue,flipped triangle
0.0,4.0,4.0,0.0,5.0,5.0,933.34137275815,2.0,0.0,part_2,go,700.0,850.0,1.0,,,,,,,,,gray,triangle
0.0,8.0,4.0,1.0,6.0,0.0,0.0,2.0,0.0,part_2,stop,700.0,850.0,4.0,,,,,,,,,orange,I
0.0,5.0,1.0,1.0,6.0,6.0,1059.614086523652,2.0,0.0,part_2,stop,700.0,900.0,3.0,,,,,,,,,green,circle
0.0,2.0,2.0,0.0,6.0,6.0,1108.6642537266016,2.0,0.0,part_2,go,700.0,850.0,1.0,,,,,,,,,white,square
0.0,3.0,3.0,0.0,5.0,5.0,1126.7208829522133,3.0,0.0,part_2,go,700.0,850.0,1.0,,,,,,,,,magenta,cross
0.0,4.0,4.0,0.0,5.0,5.0,1019.2831810563805,3.0,0.0,part_2,go,700.0,850.0,1.0,,,,,,,,,gray,triangle
0.0,6.0,2.0,1.0,5.0,5.0,1053.3983241766691,3.0,0.0,part_2,go,700.0,850.0,1.0,,,,,,,,,blue,flipped triangle
0.0,7.0,3.0,1.0,5.0,0.0,0.0,3.0,0.0,part_2,stop,700.0,850.0,4.0,,,,,,,,,yellow,hexagon
0.0,1.0,1.0,0.0,6.0,6.0,1098.3589235693216,3.0,0.0,part_2,go,750.0,850.0,1.0,,,,,,,,,cyan,diamond
0.0,4.0,4.0,0.0,6.0,6.0,905.4475221782924,3.0,0.0,part_2,go,750.0,850.0,1.0,,,,,,,,,gray,triangle
0.0,6.0,2.0,1.0,5.0,0.0,0.0,3.0,0.0,part_2,stop,750.0,850.0,4.0,,,,,,,,,blue,flipped triangle
0.0,3.0,3.0,0.0,6.0,6.0,626.4376640319824,3.0,0.0,part_2,go,800.0,850.0,1.0,,,,,,,,,magenta,cross
0.0,6.0,2.0,1.0,6.0,0.0,0.0,3.0,0.0,part_2,stop,800.0,850.0,4.0,,,,,,,,,blue,flipped triangle
0.0,4.0,4.0,0.0,6.0,0.0,0.0,3.0,0.0,part_2,go,800.0,900.0,5.0,,,,,,,,,gray,triangle
0.0,7.0,3.0,1.0,5.0,5.0,1298.3349282294512,3.0,0.0,part_2,go,800.0,900.0,1.0,,,,,,,,,yellow,hexagon
0.0,7.0,3.0,1.0,6.0,6.0,952.2276259958744,3.0,0.0,part_2,stop,800.0,900.0,3.0,,,,,,,,,yellow,hexagon
0.0,3.0,3.0,0.0,5.0,5.0,1161.404287442565,3.0,0.0,part_2,go,800.0,850.0,1.0,,,,,,,,,magenta,cross
0.0,1.0,1.0,0.0,5.0,5.0,903.5480245947838,3.0,0.0,part_2,go,800.0,850.0,1.0,,,,,,,,,cyan,diamond
0.0,3.0,3.0,0.0,5.0,5.0,1016.2202324718237,3.0,0.0,part_2,go,800.0,850.0,1.0,,,,,,,,,magenta,cross
0.0,6.0,2.0,1.0,5.0,5.0,916.288048028946,3.0,0.0,part_2,stop,800.0,850.0,3.0,,,,,,,,,blue,flipped triangle
0.0,4.0,4.0,0.0,6.0,6.0,1015.0659717619419,3.0,0.0,part_2,go,750.0,850.0,1.0,,,,,,,,,gray,triangle
0.0,2.0,2.0,0.0,6.0,6.0,1238.2731959223747,3.0,0.0,part_2,go,750.0,850.0,1.0,,,,,,,,,white,square
0.0,7.0,3.0,1.0,5.0,0.0,0.0,3.0,0.0,part_2,stop,750.0,850.0,4.0,,,,,,,,,yellow,hexagon
0.0,3.0,3.0,0.0,6.0,6.0,900.2505000680685,3.0,0.0,part_2,go,800.0,850.0,1.0,,,,,,,,,magenta,cross
0.0,5.0,1.0,1.0,5.0,0.0,0.0,3.0,0.0,part_2,stop,800.0,850.0,4.0,,,,,,,,,green,circle
0.0,2.0,2.0,0.0,6.0,6.0,1232.9533696174622,3.0,0.0,part_2,go,850.0,850.0,1.0,,,,,,,,,white,square
0.0,3.0,3.0,0.0,6.0,6.0,1018.6694674193859,3.0,0.0,part_2,go,850.0,850.0,1.0,,,,,,,,,magenta,cross
0.0,2.0,2.0,0.0,6.0,6.0,1008.9909210801125,3.0,0.0,part_2,go,850.0,850.0,1.0,,,,,,,,,white,square
0.0,5.0,1.0,1.0,6.0,6.0,982.3122341185808,3.0,0.0,part_2,stop,850.0,850.0,3.0,,,,,,,,,green,circle
0.0,5.0,1.0,1.0,5.0,5.0,718.3147743344307,3.0,0.0,part_2,stop,850.0,800.0,3.0,,,,,,,,,green,circle
0.0,1.0,1.0,0.0,5.0,5.0,1102.0555924624205,3.0,0.0,part_2,go,800.0,800.0,1.0,,,,,,,,,cyan,diamond
0.0,7.0,3.0,1.0,5.0,5.0,1206.911062821746,3.0,0.0,part_2,go,800.0,800.0,1.0,,,,,,,,,yellow,hexagon
0.0,8.0,4.0,1.0,6.0,0.0,0.0,3.0,0.0,part_2,stop,800.0,800.0,4.0,,,,,,,,,orange,I
0.0,8.0,4.0,1.0,6.0,0.0,0.0,3.0,0.0,part_2,stop,800.0,850.0,4.0,,,,,,,,,orange,I
0.0,8.0,4.0,1.0,6.0,6.0,1125.9155292063951,3.0,0.0,part_2,stop,800.0,900.0,3.0,,,,,,,,,orange,I
0.0,2.0,2.0,0.0,5.0,0.0,0.0,3.0,0.0,part_2,go,800.0,850.0,5.0,,,,,,,,,white,square
0.0,8.0,4.0,1.0,5.0,0.0,0.0,3.0,0.0,part_2,stop,800.0,850.0,4.0,,,,,,,,,orange,I
0.0,8.0,4.0,1.0,6.0,6.0,1090.1472717523577,3.0,0.0,part_2,go,850.0,850.0,1.0,,,,,,,,,orange,I
0.0,2.0,2.0,0.0,5.0,5.0,1034.914968535304,3.0,0.0,part_2,go,850.0,850.0,1.0,,,,,,,,,white,square
0.0,3.0,3.0,0.0,5.0,5.0,1323.515938594937,3.0,0.0,part_2,go,850.0,850.0,1.0,,,,,,,,,magenta,cross
0.0,1.0,1.0,0.0,6.0,6.0,883.7052397429943,4.0,0.0,part_2,go,850.0,850.0,1.0,,,,,,,,,cyan,diamond
0.0,4.0,4.0,0.0,5.0,5.0,1092.8820446133614,4.0,0.0,part_2,go,850.0,850.0,1.0,,,,,,,,,gray,triangle
0.0,2.0,2.0,0.0,5.0,5.0,1014.5458560436964,4.0,0.0,part_2,go,850.0,850.0,1.0,,,,,,,,,white,square
0.0,1.0,1.0,0.0,6.0,6.0,941.5027257055044,4.0,0.0,part_2,go,850.0,850.0,1.0,,,,,,,,,cyan,diamond
0.0,5.0,1.0,1.0,6.0,6.0,905.9098679572344,4.0,0.0,part_2,stop,850.0,850.0,3.0,,,,,,,,,green,circle
0.0,2.0,2.0,0.0,6.0,0.0,0.0,4.0,0.0,part_2,go,850.0,800.0,5.0,,,,,,,,,white,square
0.0,4.0,4.0,0.0,5.0,5.0,810.8478393405676,4.0,0.0,part_2,go,850.0,800.0,1.0,,,,,,,,,gray,triangle
0.0,4.0,4.0,0.0,5.0,5.0,656.0955811291933,4.0,0.0,part_2,go,850.0,800.0,1.0,,,,,,,,,gray,triangle
0.0,3.0,3.0,0.0,6.0,6.0,519.159734249115,4.0,0.0,part_2,go,850.0,800.0,1.0,,,,,,,,,magenta,cross
0.0,5.0,1.0,1.0,5.0,0.0,0.0,4.0,0.0,part_2,stop,850.0,800.0,4.0,,,,,,,,,green,circle
0.0,4.0,4.0,0.0,5.0,5.0,610.5570737272501,4.0,0.0,part_2,go,900.0,800.0,1.0,,,,,,,,,gray,triangle
0.0,8.0,4.0,1.0,6.0,6.0,466.081291437149,4.0,0.0,part_2,go,900.0,800.0,1.0,,,,,,,,,orange,I
0.0,4.0,4.0,0.0,6.0,6.0,686.9401149451733,4.0,0.0,part_2,go,900.0,800.0,1.0,,,,,,,,,gray,triangle
0.0,7.0,3.0,1.0,5.0,5.0,758.10750387609,4.0,0.0,part_2,stop,900.0,800.0,3.0,,,,,,,,,yellow,hexagon
0.0,6.0,2.0,1.0,5.0,0.0,0.0,4.0,0.0,part_2,stop,850.0,800.0,4.0,,,,,,,,,blue,flipped triangle
0.0,1.0,1.0,0.0,5.0,5.0,884.3478038907051,4.0,0.0,part_2,go,900.0,800.0,1.0,,,,,,,,,cyan,diamond
0.0,3.0,3.0,0.0,5.0,5.0,967.2722592949868,4.0,0.0,part_2,go,900.0,800.0,1.0,,,,,,,,,magenta,cross
0.0,2.0,2.0,0.0,5.0,5.0,1132.8572016209364,4.0,0.0,part_2,go,900.0,800.0,1.0,,,,,,,,,white,square
0.0,4.0,4.0,0.0,6.0,6.0,977.8722673654556,4.0,0.0,part_2,go,900.0,800.0,1.0,,,,,,,,,gray,triangle
0.0,8.0,4.0,1.0,5.0,5.0,1059.4219919294121,4.0,0.0,part_2,go,900.0,800.0,1.0,,,,,,,,,orange,I
0.0,6.0,2.0,1.0,6.0,6.0,859.6095629036427,4.0,0.0,part_2,stop,900.0,800.0,3.0,,,,,,,,,blue,flipped triangle
0.0,8.0,4.0,1.0,6.0,0.0,0.0,4.0,0.0,part_2,stop,900.0,750.0,4.0,,,,,,,,,orange,I
0.0,5.0,1.0,1.0,6.0,0.0,0.0,4.0,0.0,part_2,stop,900.0,800.0,4.0,,,,,,,,,green,circle
0.0,6.0,2.0,1.0,5.0,5.0,983.1784311681986,4.0,0.0,part_2,go,900.0,850.0,1.0,,,,,,,,,blue,flipped triangle
0.0,5.0,1.0,1.0,6.0,6.0,897.617157548666,4.0,0.0,part_2,stop,900.0,850.0,3.0,,,,,,,,,green,circle
0.0,7.0,3.0,1.0,5.0,5.0,774.479515850544,4.0,0.0,part_2,go,900.0,800.0,1.0,,,,,,,,,yellow,hexagon
0.0,8.0,4.0,1.0,6.0,0.0,0.0,4.0,0.0,part_2,stop,900.0,800.0,4.0,,,,,,,,,orange,I
0.0,2.0,2.0,0.0,5.0,5.0,968.6104040592908,4.0,0.0,part_2,go,900.0,850.0,1.0,,,,,,,,,white,square
0.0,7.0,3.0,1.0,5.0,0.0,0.0,4.0,0.0,part_2,stop,900.0,850.0,4.0,,,,,,,,,yellow,hexagon
0.0,2.0,2.0,0.0,6.0,6.0,1363.992704078555,4.0,0.0,part_2,go,950.0,850.0,1.0,,,,,,,,,white,square
0.0,4.0,4.0,0.0,6.0,6.0,1099.5304733514786,4.0,0.0,part_2,go,950.0,850.0,1.0,,,,,,,,,gray,triangle
0.0,3.0,3.0,0.0,6.0,6.0,1058.9417200535536,4.0,0.0,part_2,go,950.0,850.0,1.0,,,,,,,,,magenta,cross
0.0,7.0,3.0,1.0,5.0,0.0,0.0,4.0,0.0,part_2,stop,950.0,850.0,4.0,,,,,,,,,yellow,hexagon
0.0,5.0,1.0,1.0,6.0,0.0,0.0,4.0,0.0,part_2,stop,1000.0,850.0,4.0,,,,,,,,,green,circle
0.0,3.0,3.0,0.0,5.0,5.0,977.4939250200988,4.0,0.0,part_2,go,1000.0,900.0,1.0,,,,,,,,,magenta,cross
0.0,8.0,4.0,1.0,5.0,5.0,984.6830368041992,4.0,0.0,part_2,go,1000.0,900.0,1.0,,,,,,,,,orange,I
0.0,7.0,3.0,1.0,6.0,6.0,930.9328272938728,5.0,0.0,part_2,stop,1000.0,900.0,3.0,,,,,,,,,yellow,hexagon
0.0,4.0,4.0,0.0,5.0,5.0,898.2252459973097,5.0,0.0,part_2,go,1000.0,850.0,1.0,,,,,,,,,gray,triangle
0.0,1.0,1.0,0.0,6.0,6.0,721.3906720280647,5.0,0.0,part_2,go,1000.0,850.0,1.0,,,,,,,,,cyan,diamond
0.0,5.0,1.0,1.0,5.0,5.0,1065.0581307709217,5.0,0.0,part_2,go,1000.0,850.0,1.0,,,,,,,,,green,circle
0.0,8.0,4.0,1.0,6.0,6.0,996.4242279529572,5.0,0.0,part_2,stop,1000.0,850.0,3.0,,,,,,,,,orange,I
0.0,5.0,1.0,1.0,5.0,5.0,1243.991682305932,5.0,0.0,part_2,go,1000.0,800.0,1.0,,,,,,,,,green,circle
0.0,5.0,1.0,1.0,6.0,0.0,0.0,5.0,0.0,part_2,stop,1000.0,800.0,4.0,,,,,,,,,green,circle
0.0,6.0,2.0,1.0,6.0,0.0,0.0,5.0,0.0,part_2,stop,1000.0,850.0,4.0,,,,,,,,,blue,flipped triangle
0.0,2.0,2.0,0.0,5.0,5.0,902.7211554348468,5.0,0.0,part_2,go,1000.0,900.0,1.0,,,,,,,,,white,square
0.0,6.0,2.0,1.0,6.0,6.0,1247.1678089350462,5.0,0.0,part_2,go,1000.0,900.0,1.0,,,,,,,,,blue,flipped triangle
0.0,6.0,2.0,1.0,5.0,0.0,0.0,5.0,0.0,part_2,stop,1000.0,900.0,4.0,,,,,,,,,blue,flipped triangle
0.0,8.0,4.0,1.0,5.0,0.0,0.0,5.0,0.0,part_2,stop,1050.0,900.0,4.0,,,,,,,,,orange,I
0.0,8.0,4.0,1.0,5.0,5.0,1204.8553060740232,5.0,0.0,part_2,stop,1100.0,900.0,3.0,,,,,,,,,orange,I
0.0,3.0,3.0,0.0,5.0,5.0,1405.461771413684,5.0,0.0,part_2,go,1050.0,900.0,1.0,,,,,,,,,magenta,cross
0.0,7.0,3.0,1.0,6.0,6.0,1133.9139565825462,5.0,0.0,part_2,go,1050.0,900.0,1.0,,,,,,,,,yellow,hexagon
0.0,5.0,1.0,1.0,5.0,5.0,1079.2045667767525,5.0,0.0,part_2,stop,1050.0,900.0,3.0,,,,,,,,,green,circle
0.0,6.0,2.0,1.0,6.0,0.0,0.0,5.0,0.0,part_2,stop,1000.0,900.0,4.0,,,,,,,,,blue,flipped triangle
0.0,6.0,2.0,1.0,5.0,5.0,1044.8981001973152,5.0,0.0,part_2,stop,1000.0,950.0,3.0,,,,,,,,,blue,flipped triangle
0.0,3.0,3.0,0.0,5.0,5.0,930.9416972100736,5.0,0.0,part_2,go,950.0,950.0,1.0,,,,,,,,,magenta,cross
0.0,5.0,1.0,1.0,5.0,5.0,1168.4255003929138,5.0,0.0,part_2,go,950.0,950.0,1.0,,,,,,,,,green,circle
0.0,3.0,3.0,0.0,6.0,6.0,895.8414513617754,5.0,0.0,part_2,go,950.0,950.0,1.0,,,,,,,,,magenta,cross
0.0,6.0,2.0,1.0,5.0,5.0,1298.3998749405146,5.0,0.0,part_2,go,950.0,950.0,1.0,,,,,,,,,blue,flipped triangle
0.0,3.0,3.0,0.0,5.0,5.0,889.6141164004803,5.0,0.0,part_2,go,950.0,950.0,1.0,,,,,,,,,magenta,cross
0.0,3.0,3.0,0.0,5.0,5.0,721.3986031711102,5.0,0.0,part_2,go,950.0,950.0,1.0,,,,,,,,,magenta,cross
0.0,4.0,4.0,0.0,6.0,6.0,704.5299429446459,5.0,0.0,part_2,go,950.0,950.0,1.0,,,,,,,,,gray,triangle
0.0,1.0,1.0,0.0,6.0,6.0,1222.0019735395908,5.0,0.0,part_2,go,950.0,950.0,1.0,,,,,,,,,cyan,diamond
0.0,1.0,1.0,0.0,6.0,6.0,1301.358776167035,5.0,0.0,part_2,go,950.0,950.0,1.0,,,,,,,,,cyan,diamond
0.0,7.0,3.0,1.0,6.0,0.0,0.0,5.0,0.0,part_2,stop,950.0,950.0,4.0,,,,,,,,,yellow,hexagon
0.0,2.0,2.0,0.0,5.0,5.0,925.5558773875237,5.0,0.0,part_2,go,950.0,1000.0,1.0,,,,,,,,,white,square
0.0,4.0,4.0,0.0,6.0,6.0,973.7870469689368,5.0,0.0,part_2,go,950.0,1000.0,1.0,,,,,,,,,gray,triangle
0.0,4.0,4.0,0.0,5.0,5.0,923.1593385338784,5.0,0.0,part_2,go,950.0,1000.0,1.0,,,,,,,,,gray,triangle
0.0,4.0,4.0,0.0,5.0,5.0,957.154467701912,5.0,0.0,part_2,go,950.0,1000.0,1.0,,,,,,,,,gray,triangle
0.0,8.0,4.0,1.0,5.0,0.0,0.0,5.0,0.0,part_2,stop,950.0,1000.0,4.0,,,,,,,,,orange,I
0.0,2.0,2.0,0.0,5.0,5.0,1108.7798532098532,5.0,0.0,part_2,go,1000.0,1000.0,1.0,,,,,,,,,white,square
0.0,6.0,2.0,1.0,6.0,6.0,874.0425184369087,5.0,0.0,part_2,stop,1000.0,1000.0,3.0,,,,,,,,,blue,flipped triangle
0.0,5.0,1.0,1.0,6.0,6.0,1040.8959183841944,5.0,0.0,part_2,stop,1000.0,950.0,3.0,,,,,,,,,green,circle
0.0,1.0,1.0,0.0,6.0,6.0,829.053919762373,6.0,0.0,part_2,go,1000.0,900.0,1.0,,,,,,,,,cyan,diamond
0.0,4.0,4.0,0.0,6.0,6.0,818.3979243040085,6.0,0.0,part_2,go,1000.0,900.0,1.0,,,,,,,,,gray,triangle
0.0,7.0,3.0,1.0,6.0,0.0,0.0,6.0,0.0,part_2,stop,1000.0,900.0,4.0,,,,,,,,,yellow,hexagon
0.0,5.0,1.0,1.0,6.0,0.0,0.0,6.0,0.0,part_2,stop,1000.0,950.0,4.0,,,,,,,,,green,circle
0.0,4.0,4.0,0.0,6.0,6.0,1176.3947997242212,6.0,0.0,part_2,go,1000.0,1000.0,1.0,,,,,,,,,gray,triangle
0.0,7.0,3.0,1.0,5.0,5.0,951.7600946128368,6.0,0.0,part_2,stop,1000.0,1000.0,3.0,,,,,,,,,yellow,hexagon
0.0,2.0,2.0,0.0,6.0,0.0,0.0,6.0,0.0,part_2,go,950.0,1000.0,5.0,,,,,,,,,white,square
0.0,6.0,2.0,1.0,5.0,0.0,0.0,6.0,0.0,part_2,stop,950.0,1000.0,4.0,,,,,,,,,blue,flipped triangle
0.0,6.0,2.0,1.0,6.0,6.0,973.6224841326476,6.0,0.0,part_2,stop,1000.0,1000.0,3.0,,,,,,,,,blue,flipped triangle
0.0,3.0,3.0,0.0,6.0,6.0,1153.0786994844675,6.0,0.0,part_2,go,1000.0,950.0,1.0,,,,,,,,,magenta,cross
0.0,5.0,1.0,1.0,6.0,0.0,0.0,6.0,0.0,part_2,stop,1000.0,950.0,4.0,,,,,,,,,green,circle
0.0,6.0,2.0,1.0,6.0,6.0,797.4175494164228,6.0,0.0,part_2,stop,1000.0,1000.0,3.0,,,,,,,,,blue,flipped triangle
0.0,7.0,3.0,1.0,5.0,0.0,0.0,6.0,0.0,part_2,stop,1000.0,950.0,4.0,,,,,,,,,yellow,hexagon
0.0,3.0,3.0,0.0,5.0,5.0,1044.7435677051544,6.0,0.0,part_2,go,1050.0,950.0,1.0,,,,,,,,,magenta,cross
0.0,5.0,1.0,1.0,5.0,5.0,1378.971008583903,6.0,0.0,part_2,go,1050.0,950.0,1.0,,,,,,,,,green,circle
0.0,1.0,1.0,0.0,5.0,0.0,0.0,6.0,0.0,part_2,go,1050.0,950.0,5.0,,,,,,,,,cyan,diamond
0.0,5.0,1.0,1.0,6.0,0.0,0.0,6.0,0.0,part_2,stop,1050.0,950.0,4.0,,,,,,,,,green,circle
0.0,7.0,3.0,1.0,5.0,5.0,1209.112212061882,6.0,0.0,part_2,go,1050.0,1000.0,1.0,,,,,,,,,yellow,hexagon
0.0,4.0,4.0,0.0,6.0,6.0,745.0618892908096,6.0,0.0,part_2,go,1050.0,1000.0,1.0,,,,,,,,,gray,triangle
0.0,1.0,1.0,0.0,6.0,6.0,1472.8469662368298,6.0,0.0,part_2,go,1050.0,1000.0,1.0,,,,,,,,,cyan,diamond
0.0,6.0,2.0,1.0,6.0,6.0,967.4737360328436,6.0,0.0,part_2,stop,1050.0,1000.0,3.0,,,,,,,,,blue,flipped triangle
0.0,5.0,1.0,1.0,5.0,0.0,0.0,6.0,0.0,part_2,stop,1050.0,950.0,4.0,,,,,,,,,green,circle
0.0,2.0,2.0,0.0,6.0,6.0,1117.939431220293,6.0,0.0,part_2,go,1100.0,950.0,1.0,,,,,,,,,white,square
0.0,5.0,1.0,1.0,6.0,6.0,1173.3183469623327,6.0,0.0,part_2,go,1100.0,950.0,1.0,,,,,,,,,green,circle
0.0,2.0,2.0,0.0,5.0,5.0,608.554158359766,6.0,0.0,part_2,go,1100.0,950.0,1.0,,,,,,,,,white,square
0.0,2.0,2.0,0.0,5.0,5.0,979.7715824097396,6.0,0.0,part_2,go,1100.0,950.0,1.0,,,,,,,,,white,square
0.0,4.0,4.0,0.0,5.0,5.0,1067.8437743335962,6.0,0.0,part_2,go,1100.0,950.0,1.0,,,,,,,,,gray,triangle
0.0,8.0,4.0,1.0,6.0,0.0,0.0,6.0,0.0,part_2,stop,1100.0,950.0,4.0,,,,,,,,,orange,I
0.0,3.0,3.0,0.0,6.0,6.0,1178.3926412463188,6.0,0.0,part_2,go,1100.0,1000.0,1.0,,,,,,,,,magenta,cross
0.0,1.0,1.0,0.0,5.0,5.0,1205.7312112301588,6.0,0.0,part_2,go,1100.0,1000.0,1.0,,,,,,,,,cyan,diamond
0.0,8.0,4.0,1.0,5.0,5.0,1290.942281484604,6.0,0.0,part_2,go,1100.0,1000.0,1.0,,,,,,,,,orange,I
0.0,6.0,2.0,1.0,6.0,0.0,0.0,6.0,0.0,part_2,stop,1100.0,1000.0,4.0,,,,,,,,,blue,flipped triangle
0.0,3.0,3.0,0.0,6.0,6.0,1059.977237135172,6.0,0.0,part_2,go,1100.0,1050.0,1.0,,,,,,,,,magenta,cross
0.0,3.0,3.0,0.0,5.0,5.0,920.0238585472108,6.0,0.0,part_2,go,1100.0,1050.0,1.0,,,,,,,,,magenta,cross
0.0,5.0,1.0,1.0,6.0,6.0,1083.0893702805042,6.0,0.0,part_2,stop,1100.0,1050.0,3.0,,,,,,,,,green,circle
0.0,6.0,2.0,1.0,5.0,5.0,1167.1284269541502,6.0,0.0,part_2,go,1100.0,1000.0,1.0,,,,,,,,,blue,flipped triangle
0.0,3.0,3.0,0.0,5.0,5.0,799.8895309865475,7.0,0.0,part_2,go,1100.0,1000.0,1.0,,,,,,,,,magenta,cross
0.0,2.0,2.0,0.0,6.0,6.0,688.080370426178,7.0,0.0,part_2,go,1100.0,1000.0,1.0,,,,,,,,,white,square
0.0,7.0,3.0,1.0,6.0,6.0,880.3486451506615,7.0,0.0,part_2,go,1100.0,1000.0,1.0,,,,,,,,,yellow,hexagon
0.0,1.0,1.0,0.0,5.0,5.0,837.9998486489058,7.0,0.0,part_2,go,1100.0,1000.0,1.0,,,,,,,,,cyan,diamond
0.0,8.0,4.0,1.0,5.0,5.0,920.0626891106368,7.0,0.0,part_2,stop,1100.0,1000.0,3.0,,,,,,,,,orange,I
0.0,8.0,4.0,1.0,6.0,0.0,0.0,7.0,0.0,part_2,stop,1050.0,1000.0,4.0,,,,,,,,,orange,I
0.0,1.0,1.0,0.0,6.0,6.0,1053.512265905738,7.0,0.0,part_2,go,1050.0,1050.0,1.0,,,,,,,,,cyan,diamond
0.0,1.0,1.0,0.0,5.0,5.0,1062.2923448681831,7.0,0.0,part_2,go,1050.0,1050.0,1.0,,,,,,,,,cyan,diamond
0.0,8.0,4.0,1.0,6.0,0.0,0.0,7.0,0.0,part_2,go,1050.0,1050.0,5.0,,,,,,,,,orange,I
0.0,8.0,4.0,1.0,5.0,5.0,1221.247984096408,7.0,0.0,part_2,go,1050.0,1050.0,1.0,,,,,,,,,orange,I
0.0,1.0,1.0,0.0,6.0,6.0,1349.4969755411148,7.0,0.0,part_2,go,1050.0,1050.0,1.0,,,,,,,,,cyan,diamond
0.0,6.0,2.0,1.0,6.0,0.0,0.0,7.0,0.0,part_2,stop,1050.0,1050.0,4.0,,,,,,,,,blue,flipped triangle
0.0,4.0,4.0,0.0,5.0,5.0,1397.4655121564863,7.0,0.0,part_2,go,1050.0,1100.0,1.0,,,,,,,,,gray,triangle
0.0,1.0,1.0,0.0,5.0,5.0,764.7395823150873,7.0,0.0,part_2,go,1050.0,1100.0,1.0,,,,,,,,,cyan,diamond
0.0,6.0,2.0,1.0,5.0,5.0,1274.1522453725338,7.0,0.0,part_2,stop,1050.0,1100.0,3.0,,,,,,,,,blue,flipped triangle
0.0,1.0,1.0,0.0,5.0,0.0,0.0,7.0,0.0,part_2,go,1000.0,1100.0,5.0,,,,,,,,,cyan,diamond
0.0,8.0,4.0,1.0,5.0,0.0,0.0,7.0,0.0,part_2,stop,1000.0,1100.0,4.0,,,,,,,,,orange,I
0.0,2.0,2.0,0.0,5.0,5.0,1054.778130725026,7.0,0.0,part_2,go,1050.0,1100.0,1.0,,,,,,,,,white,square
0.0,6.0,2.0,1.0,6.0,0.0,0.0,7.0,0.0,part_2,stop,1050.0,1100.0,4.0,,,,,,,,,blue,flipped triangle
0.0,2.0,2.0,0.0,5.0,5.0,902.2967629134656,7.0,0.0,part_2,go,1050.0,1150.0,1.0,,,,,,,,,white,square
0.0,1.0,1.0,0.0,6.0,6.0,1069.7292555123568,7.0,0.0,part_2,go,1050.0,1150.0,1.0,,,,,,,,,cyan,diamond
0.0,6.0,2.0,1.0,5.0,5.0,952.3036442697048,7.0,0.0,part_2,stop,1050.0,1150.0,3.0,,,,,,,,,blue,flipped triangle
0.0,5.0,1.0,1.0,6.0,6.0,1277.6124998927116,7.0,0.0,part_2,stop,1000.0,1150.0,3.0,,,,,,,,,green,circle
0.0,6.0,2.0,1.0,5.0,5.0,1405.931206420064,7.0,0.0,part_2,go,1000.0,1100.0,1.0,,,,,,,,,blue,flipped triangle
0.0,5.0,1.0,1.0,5.0,5.0,987.6781571656466,7.0,0.0,part_2,stop,1000.0,1100.0,3.0,,,,,,,,,green,circle
0.0,2.0,2.0,0.0,6.0,6.0,572.2066406160593,7.0,0.0,part_2,go,950.0,1100.0,1.0,,,,,,,,,white,square
0.0,7.0,3.0,1.0,6.0,6.0,1169.8951981961727,7.0,0.0,part_2,stop,950.0,1100.0,3.0,,,,,,,,,yellow,hexagon
0.0,4.0,4.0,0.0,6.0,6.0,1076.1509891599417,7.0,0.0,part_2,go,950.0,1050.0,1.0,,,,,,,,,gray,triangle
0.0,3.0,3.0,0.0,6.0,6.0,1497.1012510359287,7.0,0.0,part_2,go,950.0,1050.0,1.0,,,,,,,,,magenta,cross
0.0,7.0,3.0,1.0,6.0,0.0,0.0,7.0,0.0,part_2,stop,950.0,1050.0,4.0,,,,,,,,,yellow,hexagon
0.0,1.0,1.0,0.0,5.0,5.0,930.5130075663328,7.0,0.0,part_2,go,950.0,1100.0,1.0,,,,,,,,,cyan,diamond
0.0,7.0,3.0,1.0,6.0,0.0,0.0,7.0,0.0,part_2,stop,950.0,1100.0,4.0,,,,,,,,,yellow,hexagon
0.0,7.0,3.0,1.0,6.0,0.0,0.0,7.0,0.0,part_2,go,950.0,1150.0,5.0,,,,,,,,,yellow,hexagon
0.0,6.0,2.0,1.0,6.0,6.0,1281.187517568469,7.0,0.0,part_2,go,950.0,1150.0,1.0,,,,,,,,,blue,flipped triangle
0.0,4.0,4.0,0.0,5.0,5.0,981.7139487713577,7.0,0.0,part_2,go,950.0,1150.0,1.0,,,,,,,,,gray,triangle
0.0,8.0,4.0,1.0,5.0,5.0,918.9743120223284,7.0,0.0,part_2,stop,950.0,1150.0,3.0,,,,,,,,,orange,I
0.0,4.0,4.0,0.0,6.0,6.0,834.3327585607767,8.0,0.0,part_2,go,900.0,1150.0,1.0,,,,,,,,,gray,triangle
0.0,4.0,4.0,0.0,5.0,5.0,787.2914299368858,8.0,0.0,part_2,go,900.0,1150.0,1.0,,,,,,,,,gray,triangle
0.0,7.0,3.0,1.0,5.0,0.0,0.0,8.0,0.0,part_2,stop,900.0,1150.0,4.0,,,,,,,,,yellow,hexagon
0.0,7.0,3.0,1.0,5.0,0.0,0.0,8.0,0.0,part_2,stop,950.0,1150.0,4.0,,,,,,,,,yellow,hexagon
0.0,1.0,1.0,0.0,5.0,5.0,963.3431881666183,8.0,0.0,part_2,go,1000.0,1150.0,1.0,,,,,,,,,cyan,diamond
0.0,1.0,1.0,0.0,5.0,5.0,529.1308555752039,8.0,0.0,part_2,go,1000.0,1150.0,1.0,,,,,,,,,cyan,diamond
0.0,2.0,2.0,0.0,6.0,6.0,918.8817851245404,8.0,0.0,part_2,go,1000.0,1150.0,1.0,,,,,,,,,white,square
0.0,8.0,4.0,1.0,6.0,0.0,0.0,8.0,0.0,part_2,go,1000.0,1150.0,5.0,,,,,,,,,orange,I
0.0,6.0,2.0,1.0,6.0,6.0,902.70078741014,8.0,0.0,part_2,stop,1000.0,1150.0,3.0,,,,,,,,,blue,flipped triangle
0.0,2.0,2.0,0.0,6.0,6.0,783.811679109931,8.0,0.0,part_2,go,1000.0,1100.0,1.0,,,,,,,,,white,square
0.0,3.0,3.0,0.0,5.0,5.0,837.7422448247671,8.0,0.0,part_2,go,1000.0,1100.0,1.0,,,,,,,,,magenta,cross
0.0,3.0,3.0,0.0,6.0,6.0,1031.4001943916082,8.0,0.0,part_2,go,1000.0,1100.0,1.0,,,,,,,,,magenta,cross
0.0,2.0,2.0,0.0,5.0,5.0,821.5817678719759,8.0,0.0,part_2,go,1000.0,1100.0,1.0,,,,,,,,,white,square
0.0,6.0,2.0,1.0,5.0,5.0,827.8524037450552,8.0,0.0,part_2,stop,1000.0,1100.0,3.0,,,,,,,,,blue,flipped triangle
0.0,4.0,4.0,0.0,6.0,6.0,1074.6545642614365,8.0,0.0,part_2,go,950.0,1100.0,1.0,,,,,,,,,gray,triangle
0.0,8.0,4.0,1.0,5.0,0.0,0.0,8.0,0.0,part_2,stop,950.0,1100.0,4.0,,,,,,,,,orange,I
0.0,4.0,4.0,0.0,5.0,5.0,732.036491855979,8.0,0.0,part_2,go,1000.0,1100.0,1.0,,,,,,,,,gray,triangle
0.0,3.0,3.0,0.0,5.0,5.0,1043.1772843003273,8.0,0.0,part_2,go,1000.0,1100.0,1.0,,,,,,,,,magenta,cross
0.0,4.0,4.0,0.0,6.0,6.0,823.88736307621,8.0,0.0,part_2,go,1000.0,1100.0,1.0,,,,,,,,,gray,triangle
0.0,5.0,1.0,1.0,5.0,0.0,0.0,8.0,0.0,part_2,go,1000.0,1100.0,5.0,,,,,,,,,green,circle
0.0,6.0,2.0,1.0,6.0,0.0,0.0,8.0,0.0,part_2,stop,1000.0,1100.0,4.0,,,,,,,,,blue,flipped triangle
0.0,3.0,3.0,0.0,6.0,6.0,592.15715713799,8.0,0.0,part_2,go,1000.0,1150.0,1.0,,,,,,,,,magenta,cross
0.0,1.0,1.0,0.0,5.0,5.0,832.6570838689804,8.0,0.0,part_2,go,1000.0,1150.0,1.0,,,,,,,,,cyan,diamond
0.0,5.0,1.0,1.0,5.0,5.0,1144.0498549491167,8.0,0.0,part_2,stop,1000.0,1150.0,3.0,,,,,,,,,green,circle
0.0,4.0,4.0,0.0,6.0,6.0,676.7345443367958,8.0,0.0,part_2,go,950.0,1150.0,1.0,,,,,,,,,gray,triangle
0.0,1.0,1.0,0.0,6.0,6.0,927.4581260979176,8.0,0.0,part_2,go,950.0,1150.0,1.0,,,,,,,,,cyan,diamond
0.0,7.0,3.0,1.0,6.0,0.0,0.0,8.0,0.0,part_2,stop,950.0,1150.0,4.0,,,,,,,,,yellow,hexagon
0.0,3.0,3.0,0.0,6.0,6.0,955.8133631944656,8.0,0.0,part_2,go,950.0,1200.0,1.0,,,,,,,,,magenta,cross
0.0,8.0,4.0,1.0,6.0,0.0,0.0,8.0,0.0,part_2,stop,950.0,1200.0,4.0,,,,,,,,,orange,I
0.0,7.0,3.0,1.0,5.0,0.0,0.0,8.0,0.0,part_2,go,950.0,1250.0,5.0,,,,,,,,,yellow,hexagon
0.0,7.0,3.0,1.0,5.0,5.0,683.8130448013544,8.0,0.0,part_2,stop,950.0,1250.0,3.0,,,,,,,,,yellow,hexagon
0.0,2.0,2.0,0.0,6.0,6.0,628.2467599958181,8.0,0.0,part_2,go,900.0,1250.0,1.0,,,,,,,,,white,square
0.0,1.0,1.0,0.0,5.0,5.0,746.5876694768667,8.0,0.0,part_2,go,900.0,1250.0,1.0,,,,,,,,,cyan,diamond
0.0,8.0,4.0,1.0,6.0,6.0,1123.1080740690231,8.0,0.0,part_2,stop,900.0,1250.0,3.0,,,,,,,,,orange,I
0.0,1.0,1.0,0.0,5.0,5.0,802.328996360302,8.0,0.0,part_2,go,900.0,1200.0,1.0,,,,,,,,,cyan,diamond
0.0,1.0,1.0,0.0,6.0,6.0,1193.872233852744,8.0,0.0,part_2,go,900.0,1200.0,1.0,,,,,,,,,cyan,diamond
0.0,7.0,3.0,1.0,7.0,5.0,2336.416006088257,1.0,1.0,part_3,go,0.0,0.0,0.0,162.0,3.0,108.0,324.0,54.0,270.0,162.0,216.0,yellow,hexagon
0.0,7.0,3.0,1.0,7.0,2.0,2079.328704625368,1.0,1.0,part_3,go,0.0,0.0,0.0,196.0,4.0,245.0,196.0,49.0,294.0,147.0,98.0,yellow,hexagon
0.0,1.0,1.0,0.0,7.0,5.0,1235.796790570021,1.0,1.0,part_3,go,0.0,0.0,0.0,294.0,6.0,147.0,196.0,245.0,98.0,294.0,49.0,cyan,diamond
0.0,7.0,3.0,1.0,7.0,4.0,1860.411625355482,1.0,1.0,part_3,go,0.0,0.0,0.0,136.0,4.0,102.0,204.0,170.0,136.0,34.0,68.0,yellow,hexagon
0.0,5.0,1.0,1.0,7.0,5.0,1476.7148047685623,1.0,1.0,part_3,go,0.0,0.0,0.0,204.0,6.0,102.0,34.0,136.0,68.0,204.0,170.0,green,circle
0.0,6.0,2.0,1.0,7.0,2.0,1229.178098961711,1.0,1.0,part_3,go,0.0,0.0,0.0,78.0,2.0,195.0,78.0,234.0,156.0,117.0,39.0,blue,flipped triangle
0.0,4.0,4.0,0.0,7.0,3.0,1022.2810134291649,1.0,1.0,part_3,go,0.0,0.0,0.0,54.0,1.0,324.0,270.0,54.0,216.0,108.0,162.0,gray,triangle
0.0,4.0,4.0,0.0,7.0,1.0,1225.822739303112,1.0,1.0,part_3,go,0.0,0.0,0.0,88.0,2.0,88.0,176.0,264.0,44.0,132.0,220.0,gray,triangle
0.0,5.0,1.0,1.0,7.0,5.0,904.9701653420924,1.0,1.0,part_3,go,0.0,0.0,0.0,234.0,6.0,78.0,195.0,117.0,156.0,234.0,39.0,green,circle
0.0,3.0,3.0,0.0,7.0,3.0,1442.2907754778862,1.0,1.0,part_3,go,0.0,0.0,0.0,324.0,6.0,108.0,270.0,324.0,216.0,54.0,162.0,magenta,cross
0.0,5.0,1.0,1.0,7.0,2.0,1510.2991219609976,1.0,1.0,part_3,go,0.0,0.0,0.0,54.0,1.0,324.0,54.0,108.0,270.0,216.0,162.0,green,circle
0.0,6.0,2.0,1.0,7.0,5.0,1149.451343342662,1.0,1.0,part_3,go,0.0,0.0,0.0,294.0,6.0,147.0,49.0,196.0,245.0,294.0,98.0,blue,flipped triangle
0.0,1.0,1.0,0.0,7.0,6.0,966.8448083102704,1.0,1.0,part_3,go,0.0,0.0,0.0,270.0,5.0,324.0,216.0,162.0,108.0,54.0,270.0,cyan,diamond
0.0,8.0,4.0,1.0,7.0,6.0,951.7365228384732,1.0,1.0,part_3,go,0.0,0.0,0.0,108.0,2.0,54.0,270.0,162.0,324.0,216.0,108.0,orange,I
0.0,3.0,3.0,0.0,7.0,2.0,1692.4785189330578,1.0,1.0,part_3,go,0.0,0.0,0.0,204.0,6.0,34.0,204.0,102.0,68.0,136.0,170.0,magenta,cross
0.0,6.0,2.0,1.0,7.0,6.0,1428.0161783099174,1.0,1.0,part_3,go,0.0,0.0,0.0,34.0,1.0,102.0,136.0,170.0,68.0,204.0,34.0,blue,flipped triangle
0.0,8.0,4.0,1.0,7.0,2.0,955.4392080754042,1.0,1.0,part_3,go,0.0,0.0,0.0,264.0,6.0,176.0,264.0,220.0,88.0,132.0,44.0,orange,I
0.0,2.0,2.0,0.0,7.0,3.0,1030.2424374967811,1.0,1.0,part_3,go,0.0,0.0,0.0,162.0,3.0,324.0,108.0,162.0,270.0,216.0,54.0,white,square
0.0,2.0,2.0,0.0,7.0,4.0,1280.691284686327,1.0,1.0,part_3,go,0.0,0.0,0.0,170.0,5.0,68.0,34.0,102.0,170.0,204.0,136.0,white,square
0.0,4.0,4.0,0.0,7.0,4.0,1962.7512488514185,1.0,1.0,part_3,go,0.0,0.0,0.0,39.0,1.0,117.0,195.0,156.0,39.0,234.0,78.0,gray,triangle
0.0,8.0,4.0,1.0,7.0,2.0,1766.5587831288576,2.0,1.0,part_3,go,0.0,0.0,0.0,102.0,3.0,136.0,102.0,34.0,204.0,170.0,68.0,orange,I
0.0,5.0,1.0,1.0,7.0,5.0,2065.5613988637924,2.0,1.0,part_3,go,0.0,0.0,0.0,196.0,4.0,147.0,294.0,98.0,49.0,196.0,245.0,green,circle
0.0,6.0,2.0,1.0,7.0,4.0,2427.357232198119,2.0,1.0,part_3,go,0.0,0.0,0.0,176.0,4.0,264.0,44.0,132.0,176.0,220.0,88.0,blue,flipped triangle
0.0,8.0,4.0,1.0,7.0,2.0,1133.8025759905577,2.0,1.0,part_3,go,0.0,0.0,0.0,245.0,5.0,98.0,245.0,147.0,294.0,196.0,49.0,orange,I
0.0,3.0,3.0,0.0,7.0,2.0,1918.7640603631737,2.0,1.0,part_3,go,0.0,0.0,0.0,147.0,3.0,98.0,147.0,49.0,245.0,294.0,196.0,magenta,cross
0.0,8.0,4.0,1.0,7.0,2.0,1598.9786144346,2.0,1.0,part_3,go,0.0,0.0,0.0,68.0,2.0,204.0,68.0,102.0,136.0,170.0,34.0,orange,I
0.0,6.0,2.0,1.0,7.0,6.0,1944.592783227563,2.0,1.0,part_3,go,0.0,0.0,0.0,117.0,3.0,39.0,195.0,234.0,78.0,156.0,117.0,blue,flipped triangle
0.0,2.0,2.0,0.0,7.0,5.0,2034.1889839619398,2.0,1.0,part_3,go,0.0,0.0,0.0,156.0,4.0,78.0,234.0,195.0,117.0,156.0,39.0,white,square
0.0,2.0,2.0,0.0,7.0,5.0,2234.7101271152496,2.0,1.0,part_3,go,0.0,0.0,0.0,49.0,1.0,147.0,294.0,98.0,245.0,49.0,196.0,white,square
0.0,7.0,3.0,1.0,7.0,4.0,1794.248690828681,2.0,1.0,part_3,go,0.0,0.0,0.0,117.0,3.0,39.0,234.0,78.0,117.0,156.0,195.0,yellow,hexagon
0.0,1.0,1.0,0.0,7.0,5.0,2156.31889551878,2.0,1.0,part_3,go,0.0,0.0,0.0,98.0,2.0,49.0,245.0,147.0,294.0,98.0,196.0,cyan,diamond
0.0,8.0,4.0,1.0,7.0,2.0,1949.3549093604088,2.0,1.0,part_3,go,0.0,0.0,0.0,156.0,4.0,117.0,156.0,234.0,78.0,195.0,39.0,orange,I
0.0,5.0,1.0,1.0,7.0,6.0,2305.4558020085096,2.0,1.0,part_3,go,0.0,0.0,0.0,102.0,3.0,204.0,136.0,34.0,68.0,170.0,102.0,green,circle
0.0,3.0,3.0,0.0,7.0,5.0,2495.4392332583666,2.0,1.0,part_3,go,0.0,0.0,0.0,39.0,1.0,234.0,195.0,156.0,78.0,39.0,117.0,magenta,cross
0.0,1.0,1.0,0.0,7.0,4.0,865.6386528164148,2.0,1.0,part_3,go,0.0,0.0,0.0,54.0,1.0,216.0,270.0,162.0,54.0,108.0,324.0,cyan,diamond
0.0,5.0,1.0,1.0,7.0,1.0,2067.3863887786865,2.0,1.0,part_3,go,0.0,0.0,0.0,98.0,2.0,98.0,294.0,196.0,49.0,245.0,147.0,green,circle
0.0,5.0,1.0,1.0,7.0,2.0,1774.61214736104,2.0,1.0,part_3,go,0.0,0.0,0.0,270.0,5.0,108.0,270.0,162.0,216.0,54.0,324.0,green,circle
0.0,1.0,1.0,0.0,7.0,6.0,1389.5482271909714,2.0,1.0,part_3,go,0.0,0.0,0.0,117.0,3.0,78.0,195.0,156.0,39.0,234.0,117.0,cyan,diamond
0.0,3.0,3.0,0.0,7.0,3.0,1055.1819670945406,2.0,1.0,part_3,go,0.0,0.0,0.0,216.0,4.0,324.0,54.0,216.0,108.0,270.0,162.0,magenta,cross
0.0,3.0,3.0,0.0,7.0,2.0,1664.169704541564,2.0,1.0,part_3,go,0.0,0.0,0.0,102.0,3.0,68.0,102.0,204.0,34.0,170.0,136.0,magenta,cross
0.0,7.0,3.0,1.0,7.0,2.0,2083.439441397786,3.0,1.0,part_3,go,0.0,0.0,0.0,102.0,3.0,204.0,102.0,136.0,34.0,68.0,170.0,yellow,hexagon
0.0,1.0,1.0,0.0,7.0,6.0,1133.042151108384,3.0,1.0,part_3,go,0.0,0.0,0.0,220.0,5.0,132.0,264.0,88.0,44.0,176.0,220.0,cyan,diamond
0.0,3.0,3.0,0.0,7.0,1.0,1478.4154873341322,3.0,1.0,part_3,go,0.0,0.0,0.0,88.0,2.0,88.0,176.0,264.0,132.0,44.0,220.0,magenta,cross
0.0,5.0,1.0,1.0,7.0,2.0,1557.456934824586,3.0,1.0,part_3,go,0.0,0.0,0.0,176.0,4.0,132.0,176.0,44.0,220.0,88.0,264.0,green,circle
0.0,3.0,3.0,0.0,7.0,5.0,1439.9036671966314,3.0,1.0,part_3,go,0.0,0.0,0.0,147.0,3.0,294.0,245.0,98.0,196.0,147.0,49.0,magenta,cross
0.0,7.0,3.0,1.0,7.0,1.0,1243.806879967451,3.0,1.0,part_3,go,0.0,0.0,0.0,132.0,3.0,132.0,264.0,44.0,88.0,220.0,176.0,yellow,hexagon
0.0,6.0,2.0,1.0,7.0,6.0,1571.1080469191074,3.0,1.0,part_3,go,0.0,0.0,0.0,108.0,2.0,162.0,270.0,324.0,216.0,54.0,108.0,blue,flipped triangle
0.0,8.0,4.0,1.0,7.0,6.0,1815.2653109282255,3.0,1.0,part_3,go,0.0,0.0,0.0,195.0,5.0,78.0,234.0,117.0,39.0,156.0,195.0,orange,I
0.0,5.0,1.0,1.0,7.0,2.0,2076.4331351965666,3.0,1.0,part_3,go,0.0,0.0,0.0,132.0,3.0,88.0,132.0,44.0,220.0,176.0,264.0,green,circle
0.0,2.0,2.0,0.0,7.0,2.0,2263.902075588703,3.0,1.0,part_3,go,0.0,0.0,0.0,264.0,6.0,44.0,264.0,176.0,132.0,220.0,88.0,white,square
0.0,3.0,3.0,0.0,7.0,3.0,1863.7722227722409,3.0,1.0,part_3,go,0.0,0.0,0.0,176.0,4.0,44.0,88.0,176.0,132.0,264.0,220.0,magenta,cross
0.0,5.0,1.0,1.0,7.0,4.0,1577.269572764635,3.0,1.0,part_3,go,0.0,0.0,0.0,234.0,6.0,78.0,117.0,156.0,234.0,39.0,195.0,green,circle
0.0,6.0,2.0,1.0,7.0,6.0,1278.0589796602726,3.0,1.0,part_3,go,0.0,0.0,0.0,270.0,5.0,108.0,216.0,162.0,324.0,54.0,270.0,blue,flipped triangle
0.0,1.0,1.0,0.0,7.0,2.0,1141.291804611683,3.0,1.0,part_3,go,0.0,0.0,0.0,204.0,6.0,102.0,204.0,170.0,68.0,136.0,34.0,cyan,diamond
0.0,2.0,2.0,0.0,7.0,4.0,2077.64801196754,3.0,1.0,part_3,go,0.0,0.0,0.0,108.0,2.0,162.0,324.0,54.0,108.0,270.0,216.0,white,square
0.0,4.0,4.0,0.0,7.0,1.0,2208.6277343332767,3.0,1.0,part_3,go,0.0,0.0,0.0,216.0,4.0,216.0,108.0,54.0,324.0,162.0,270.0,gray,triangle
0.0,7.0,3.0,1.0,7.0,2.0,2818.612214177847,3.0,1.0,part_3,go,0.0,0.0,0.0,294.0,6.0,147.0,294.0,98.0,245.0,196.0,49.0,yellow,hexagon
0.0,4.0,4.0,0.0,7.0,2.0,2100.3229208290577,3.0,1.0,part_3,go,0.0,0.0,0.0,170.0,5.0,204.0,170.0,136.0,68.0,102.0,34.0,gray,triangle
0.0,6.0,2.0,1.0,7.0,3.0,2116.699196398258,3.0,1.0,part_3,go,0.0,0.0,0.0,132.0,3.0,44.0,176.0,132.0,220.0,88.0,264.0,blue,flipped triangle
0.0,2.0,2.0,0.0,7.0,1.0,1949.335228651762,3.0,1.0,part_3,go,0.0,0.0,0.0,220.0,5.0,220.0,132.0,44.0,88.0,264.0,176.0,white,square
0.0,7.0,3.0,1.0,7.0,3.0,1883.7370350956917,4.0,1.0,part_3,go,0.0,0.0,0.0,176.0,4.0,88.0,44.0,176.0,264.0,132.0,220.0,yellow,hexagon
0.0,7.0,3.0,1.0,7.0,1.0,1741.7918965220451,4.0,1.0,part_3,go,0.0,0.0,0.0,216.0,4.0,216.0,270.0,108.0,162.0,324.0,54.0,yellow,hexagon
0.0,2.0,2.0,0.0,7.0,5.0,1399.9733459204435,4.0,1.0,part_3,go,0.0,0.0,0.0,147.0,3.0,196.0,49.0,294.0,98.0,147.0,245.0,white,square
0.0,4.0,4.0,0.0,7.0,5.0,1176.4250490814447,4.0,1.0,part_3,go,0.0,0.0,0.0,102.0,3.0,68.0,170.0,204.0,136.0,102.0,34.0,gray,triangle
0.0,8.0,4.0,1.0,7.0,1.0,1192.6388777792454,4.0,1.0,part_3,go,0.0,0.0,0.0,147.0,3.0,147.0,245.0,196.0,294.0,49.0,98.0,orange,I
0.0,8.0,4.0,1.0,7.0,3.0,2378.252958878875,4.0,1.0,part_3,go,0.0,0.0,0.0,108.0,2.0,54.0,324.0,108.0,162.0,270.0,216.0,orange,I
0.0,4.0,4.0,0.0,7.0,5.0,1803.5695143043995,4.0,1.0,part_3,go,0.0,0.0,0.0,117.0,3.0,195.0,156.0,39.0,78.0,117.0,234.0,gray,triangle
0.0,6.0,2.0,1.0,7.0,2.0,1711.323719471693,4.0,1.0,part_3,go,0.0,0.0,0.0,102.0,3.0,204.0,102.0,170.0,136.0,68.0,34.0,blue,flipped triangle
0.0,1.0,1.0,0.0,7.0,4.0,2166.545504704118,4.0,1.0,part_3,go,0.0,0.0,0.0,156.0,4.0,39.0,234.0,78.0,156.0,195.0,117.0,cyan,diamond
0.0,2.0,2.0,0.0,7.0,2.0,1369.6890324354172,4.0,1.0,part_3,go,0.0,0.0,0.0,204.0,6.0,102.0,204.0,34.0,136.0,68.0,170.0,white,square
0.0,8.0,4.0,1.0,7.0,6.0,1530.9420861303806,4.0,1.0,part_3,go,0.0,0.0,0.0,88.0,2.0,176.0,264.0,44.0,220.0,132.0,88.0,orange,I
0.0,7.0,3.0,1.0,7.0,5.0,1876.7510801553728,4.0,1.0,part_3,go,0.0,0.0,0.0,78.0,2.0,195.0,156.0,234.0,39.0,78.0,117.0,yellow,hexagon
0.0,3.0,3.0,0.0,7.0,5.0,1823.2641406357288,4.0,1.0,part_3,go,0.0,0.0,0.0,195.0,5.0,78.0,39.0,156.0,117.0,195.0,234.0,magenta,cross
0.0,4.0,4.0,0.0,7.0,1.0,1284.4182271510365,4.0,1.0,part_3,go,0.0,0.0,0.0,196.0,4.0,196.0,147.0,245.0,98.0,294.0,49.0,gray,triangle
0.0,1.0,1.0,0.0,7.0,2.0,1632.880538702011,4.0,1.0,part_3,go,0.0,0.0,0.0,176.0,4.0,132.0,176.0,220.0,264.0,44.0,88.0,cyan,diamond
0.0,4.0,4.0,0.0,7.0,3.0,2376.248609274626,4.0,1.0,part_3,go,0.0,0.0,0.0,88.0,2.0,132.0,44.0,88.0,264.0,176.0,220.0,gray,triangle
0.0,6.0,2.0,1.0,7.0,5.0,1818.6313919723032,4.0,1.0,part_3,go,0.0,0.0,0.0,245.0,5.0,49.0,147.0,196.0,98.0,245.0,294.0,blue,flipped triangle
0.0,4.0,4.0,0.0,7.0,4.0,1827.4405989795923,4.0,1.0,part_3,go,0.0,0.0,0.0,294.0,6.0,147.0,49.0,245.0,294.0,98.0,196.0,gray,triangle
0.0,1.0,1.0,0.0,7.0,2.0,2196.3622868061066,4.0,1.0,part_3,go,0.0,0.0,0.0,136.0,4.0,34.0,136.0,204.0,170.0,102.0,68.0,cyan,diamond
0.0,2.0,2.0,0.0,7.0,5.0,1964.704129844904,4.0,1.0,part_3,go,0.0,0.0,0.0,39.0,1.0,234.0,78.0,156.0,195.0,39.0,117.0,white,square
