raw_reward_magnitude,stim_reward,stepwise_reward_magnitude,paired_with_stopping,stim_location,response,reaction_time,block,num_trial_presentations,which_phase,stop_signal_trial_type,left_SSD,right_SSD,accuracy,chosen_bidding_amount,chosen_bidding_level,possible_bid_1,possible_bid_2,possible_bid_3,possible_bid_4,possible_bid_5,possible_bid_6,color_text,shape_text
40.0,5.0,0.5,1.0,2.0,2.0,413.9296300709247,1.0,1.0,phase_1,,,,,,,,,,,,,magenta,triangle
69.0,1.0,0.5,0.0,4.0,4.0,377.8352681547403,1.0,1.0,phase_1,,,,,,,,,,,,,blue,cross
0.0,5.0,0.0,1.0,4.0,4.0,362.7442345023155,1.0,1.0,phase_1,,,,,,,,,,,,,magenta,triangle
397.0,8.0,4.0,1.0,2.0,2.0,363.4928502142429,1.0,1.0,phase_1,,,,,,,,,,,,,yellow,hexagon
0.0,3.0,0.0,0.0,4.0,4.0,335.9958957880735,1.0,1.0,phase_1,,,,,,,,,,,,,white,diamond
388.0,8.0,4.0,1.0,3.0,3.0,447.6760998368263,1.0,1.0,phase_1,,,,,,,,,,,,,yellow,hexagon
0.0,7.0,0.0,1.0,2.0,2.0,595.1128229498863,1.0,1.0,phase_1,,,,,,,,,,,,,orange,circle
100.0,2.0,1.0,0.0,3.0,3.0,423.2681803405285,1.0,1.0,phase_1,,,,,,,,,,,,,cyan,I
76.0,2.0,1.0,0.0,2.0,2.0,354.4018547981977,1.0,1.0,phase_1,,,,,,,,,,,,,cyan,I
57.0,1.0,0.5,0.0,3.0,3.0,415.8051200211048,1.0,1.0,phase_1,,,,,,,,,,,,,blue,cross
221.0,3.0,2.0,0.0,4.0,4.0,388.6682279407978,1.0,1.0,phase_1,,,,,,,,,,,,,white,diamond
425.0,4.0,4.0,0.0,2.0,2.0,308.4832727909088,1.0,1.0,phase_1,,,,,,,,,,,,,gray,square
109.0,6.0,1.0,1.0,3.0,3.0,373.2749670743942,1.0,1.0,phase_1,,,,,,,,,,,,,green,flipped triangle
0.0,3.0,0.0,0.0,4.0,4.0,301.1269718408584,1.0,1.0,phase_1,,,,,,,,,,,,,white,diamond
0.0,1.0,0.0,0.0,1.0,1.0,313.637999817729,1.0,1.0,phase_1,,,,,,,,,,,,,blue,cross
209.0,3.0,2.0,0.0,4.0,4.0,382.7877882868051,1.0,1.0,phase_1,,,,,,,,,,,,,white,diamond
125.0,2.0,1.0,0.0,1.0,1.0,362.4097555875778,1.0,1.0,phase_1,,,,,,,,,,,,,cyan,I
99.0,6.0,1.0,1.0,2.0,2.0,341.1189783364534,1.0,1.0,phase_1,,,,,,,,,,,,,green,flipped triangle
100.0,2.0,1.0,0.0,2.0,2.0,377.3455433547497,1.0,1.0,phase_1,,,,,,,,,,,,,cyan,I
64.0,5.0,0.5,1.0,2.0,2.0,368.5201555490494,1.0,1.0,phase_1,,,,,,,,,,,,,magenta,triangle
58.0,5.0,0.5,1.0,4.0,4.0,341.5681198239326,1.0,1.0,phase_1,,,,,,,,,,,,,magenta,triangle
80.0,6.0,1.0,1.0,1.0,1.0,296.3190209120512,1.0,1.0,phase_1,,,,,,,,,,,,,green,flipped triangle
212.0,7.0,2.0,1.0,1.0,1.0,407.2827491909265,1.0,1.0,phase_1,,,,,,,,,,,,,orange,circle
0.0,4.0,0.0,0.0,3.0,3.0,393.1324109435081,1.0,1.0,phase_1,,,,,,,,,,,,,gray,square
30.0,1.0,0.5,0.0,2.0,2.0,344.0248090773821,1.0,1.0,phase_1,,,,,,,,,,,,,blue,cross
52.0,1.0,0.5,0.0,4.0,4.0,437.7146624028682,1.0,1.0,phase_1,,,,,,,,,,,,,blue,cross
221.0,7.0,2.0,1.0,1.0,1.0,382.990188896656,1.0,1.0,phase_1,,,,,,,,,,,,,orange,circle
45.0,5.0,0.5,1.0,4.0,4.0,364.5691759884357,1.0,1.0,phase_1,,,,,,,,,,,,,magenta,triangle
36.0,5.0,0.5,1.0,2.0,2.0,329.008687287569,1.0,1.0,phase_1,,,,,,,,,,,,,magenta,triangle
0.0,5.0,0.0,1.0,1.0,1.0,389.3787264823913,1.0,1.0,phase_1,,,,,,,,,,,,,magenta,triangle
395.0,8.0,4.0,1.0,2.0,2.0,347.7295208722353,1.0,1.0,phase_1,,,,,,,,,,,,,yellow,hexagon
48.0,1.0,0.5,0.0,4.0,4.0,409.557469189167,1.0,1.0,phase_1,,,,,,,,,,,,,blue,cross
0.0,5.0,0.0,1.0,1.0,1.0,445.0765736401081,1.0,1.0,phase_1,,,,,,,,,,,,,magenta,triangle
87.0,2.0,1.0,0.0,4.0,4.0,432.1708362549543,1.0,1.0,phase_1,,,,,,,,,,,,,cyan,I
407.0,4.0,4.0,0.0,3.0,3.0,304.4303059577942,1.0,1.0,phase_1,,,,,,,,,,,,,gray,square
81.0,6.0,1.0,1.0,3.0,3.0,453.0952591449022,1.0,1.0,phase_1,,,,,,,,,,,,,green,flipped triangle
0.0,5.0,0.0,1.0,2.0,2.0,360.3211436420679,1.0,1.0,phase_1,,,,,,,,,,,,,magenta,triangle
424.0,8.0,4.0,1.0,2.0,2.0,412.8434620797634,1.0,1.0,phase_1,,,,,,,,,,,,,yellow,hexagon
0.0,6.0,0.0,1.0,1.0,1.0,328.089190647006,1.0,1.0,phase_1,,,,,,,,,,,,,green,flipped triangle
397.0,4.0,4.0,0.0,3.0,3.0,404.5129977166652,1.0,1.0,phase_1,,,,,,,,,,,,,gray,square
64.0,5.0,0.5,1.0,2.0,2.0,377.0519159734249,1.0,1.0,phase_1,,,,,,,,,,,,,magenta,triangle
92.0,6.0,1.0,1.0,4.0,4.0,397.2211815416813,1.0,1.0,phase_1,,,,,,,,,,,,,green,flipped triangle
414.0,4.0,4.0,0.0,2.0,2.0,321.6868322342634,1.0,1.0,phase_1,,,,,,,,,,,,,gray,square
196.0,3.0,2.0,0.0,3.0,3.0,313.7041311711073,1.0,1.0,phase_1,,,,,,,,,,,,,white,diamond
125.0,6.0,1.0,1.0,3.0,3.0,332.0879526436329,1.0,1.0,phase_1,,,,,,,,,,,,,green,flipped triangle
80.0,6.0,1.0,1.0,3.0,3.0,355.4802034050226,1.0,1.0,phase_1,,,,,,,,,,,,,green,flipped triangle
72.0,1.0,0.5,0.0,2.0,2.0,324.3280798196792,1.0,1.0,phase_1,,,,,,,,,,,,,blue,cross
0.0,1.0,0.0,0.0,3.0,3.0,308.1084955483675,1.0,1.0,phase_1,,,,,,,,,,,,,blue,cross
40.0,5.0,0.5,1.0,2.0,2.0,286.7961563169956,1.0,1.0,phase_1,,,,,,,,,,,,,magenta,triangle
32.0,1.0,0.5,0.0,2.0,2.0,354.722423478961,1.0,1.0,phase_1,,,,,,,,,,,,,blue,cross
106.0,6.0,1.0,1.0,2.0,2.0,311.6821981966495,1.0,1.0,phase_1,,,,,,,,,,,,,green,flipped triangle
0.0,6.0,0.0,1.0,1.0,1.0,310.7261303812265,1.0,1.0,phase_1,,,,,,,,,,,,,green,flipped triangle
27.0,1.0,0.5,0.0,4.0,4.0,322.530260309577,1.0,1.0,phase_1,,,,,,,,,,,,,blue,cross
177.0,7.0,2.0,1.0,2.0,2.0,384.5177385956049,1.0,1.0,phase_1,,,,,,,,,,,,,orange,circle
184.0,3.0,2.0,0.0,1.0,1.0,372.4205922335386,1.0,1.0,phase_1,,,,,,,,,,,,,white,diamond
385.0,4.0,4.0,0.0,4.0,4.0,335.8429502695799,1.0,1.0,phase_1,,,,,,,,,,,,,gray,square
376.0,8.0,4.0,1.0,4.0,4.0,303.8015123456716,1.0,1.0,phase_1,,,,,,,,,,,,,yellow,hexagon
404.0,4.0,4.0,0.0,1.0,1.0,280.3701777011156,1.0,1.0,phase_1,,,,,,,,,,,,,gray,square
202.0,3.0,2.0,0.0,3.0,3.0,333.2505710422992,1.0,1.0,phase_1,,,,,,,,,,,,,white,diamond
94.0,6.0,1.0,1.0,1.0,1.0,276.702580973506,1.0,1.0,phase_1,,,,,,,,,,,,,green,flipped triangle
99.0,2.0,1.0,0.0,3.0,3.0,368.8635267317295,1.0,1.0,phase_1,,,,,,,,,,,,,cyan,I
40.0,1.0,0.5,0.0,1.0,1.0,341.6748307645321,1.0,1.0,phase_1,,,,,,,,,,,,,blue,cross
82.0,2.0,1.0,0.0,2.0,2.0,248.4965194016695,1.0,1.0,phase_1,,,,,,,,,,,,,cyan,I
0.0,7.0,0.0,1.0,3.0,3.0,413.3161641657352,1.0,1.0,phase_1,,,,,,,,,,,,,orange,circle
406.0,8.0,4.0,1.0,3.0,3.0,322.30200804769987,1.0,1.0,phase_1,,,,,,,,,,,,,yellow,hexagon
0.0,4.0,0.0,0.0,1.0,1.0,304.44934591650957,1.0,1.0,phase_1,,,,,,,,,,,,,gray,square
78.0,6.0,1.0,1.0,3.0,3.0,308.8506795465946,1.0,1.0,phase_1,,,,,,,,,,,,,green,flipped triangle
197.0,3.0,2.0,0.0,1.0,1.0,311.0428508371115,1.0,1.0,phase_1,,,,,,,,,,,,,white,diamond
425.0,8.0,4.0,1.0,2.0,2.0,348.397197201848,1.0,1.0,phase_1,,,,,,,,,,,,,yellow,hexagon
176.0,7.0,2.0,1.0,4.0,4.0,308.4243386983871,1.0,1.0,phase_1,,,,,,,,,,,,,orange,circle
207.0,7.0,2.0,1.0,4.0,4.0,335.7495851814747,1.0,1.0,phase_1,,,,,,,,,,,,,orange,circle
375.0,4.0,4.0,0.0,4.0,4.0,363.5901771485805,1.0,1.0,phase_1,,,,,,,,,,,,,gray,square
198.0,7.0,2.0,1.0,2.0,2.0,345.769228413701,1.0,1.0,phase_1,,,,,,,,,,,,,orange,circle
377.0,4.0,4.0,0.0,3.0,3.0,390.4584608972072,1.0,1.0,phase_1,,,,,,,,,,,,,gray,square
98.0,6.0,1.0,1.0,1.0,1.0,404.1737169027328,1.0,1.0,phase_1,,,,,,,,,,,,,green,flipped triangle
0.0,8.0,0.0,1.0,1.0,1.0,311.9406122714281,1.0,1.0,phase_1,,,,,,,,,,,,,yellow,hexagon
71.0,1.0,0.5,0.0,1.0,1.0,316.7749475687742,1.0,1.0,phase_1,,,,,,,,,,,,,blue,cross
110.0,2.0,1.0,0.0,1.0,1.0,304.5469243079424,1.0,1.0,phase_1,,,,,,,,,,,,,cyan,I
99.0,6.0,1.0,1.0,2.0,2.0,341.3149937987327,1.0,1.0,phase_1,,,,,,,,,,,,,green,flipped triangle
395.0,8.0,4.0,1.0,1.0,1.0,402.9975570738315,1.0,1.0,phase_1,,,,,,,,,,,,,yellow,hexagon
418.0,8.0,4.0,1.0,3.0,3.0,429.6994507312774,1.0,1.0,phase_1,,,,,,,,,,,,,yellow,hexagon
0.0,2.0,0.0,0.0,1.0,1.0,306.865107268095,1.0,1.0,phase_1,,,,,,,,,,,,,cyan,I
220.0,3.0,2.0,0.0,2.0,2.0,295.9904056042433,1.0,1.0,phase_1,,,,,,,,,,,,,white,diamond
32.0,5.0,0.5,1.0,2.0,2.0,324.5854917913675,1.0,1.0,phase_1,,,,,,,,,,,,,magenta,triangle
411.0,8.0,4.0,1.0,4.0,4.0,345.020167529583,1.0,1.0,phase_1,,,,,,,,,,,,,yellow,hexagon
92.0,2.0,1.0,0.0,3.0,3.0,371.6454617679119,1.0,1.0,phase_1,,,,,,,,,,,,,cyan,I
0.0,8.0,0.0,1.0,4.0,4.0,360.4516983032226,1.0,1.0,phase_1,,,,,,,,,,,,,yellow,hexagon
202.0,7.0,2.0,1.0,2.0,2.0,312.8510303795337,1.0,1.0,phase_1,,,,,,,,,,,,,orange,circle
125.0,6.0,1.0,1.0,4.0,4.0,475.6838381290436,1.0,1.0,phase_1,,,,,,,,,,,,,green,flipped triangle
27.0,5.0,0.5,1.0,4.0,4.0,313.9308858662843,1.0,1.0,phase_1,,,,,,,,,,,,,magenta,triangle
71.0,5.0,0.5,1.0,1.0,1.0,364.822756499052,1.0,1.0,phase_1,,,,,,,,,,,,,magenta,triangle
80.0,2.0,1.0,0.0,4.0,4.0,395.735390484333,1.0,1.0,phase_1,,,,,,,,,,,,,cyan,I
380.0,8.0,4.0,1.0,4.0,4.0,357.2427593171596,1.0,1.0,phase_1,,,,,,,,,,,,,yellow,hexagon
0.0,2.0,0.0,0.0,3.0,3.0,433.4927313029766,1.0,1.0,phase_1,,,,,,,,,,,,,cyan,I
0.0,4.0,0.0,0.0,2.0,2.0,384.717833250761,1.0,1.0,phase_1,,,,,,,,,,,,,gray,square
101.0,2.0,1.0,0.0,1.0,1.0,261.5744415670633,1.0,1.0,phase_1,,,,,,,,,,,,,cyan,I
102.0,2.0,1.0,0.0,2.0,2.0,386.1745353788137,1.0,1.0,phase_1,,,,,,,,,,,,,cyan,I
204.0,7.0,2.0,1.0,3.0,3.0,366.8370489031076,1.0,1.0,phase_1,,,,,,,,,,,,,orange,circle
215.0,7.0,2.0,1.0,1.0,1.0,411.9743965566158,1.0,1.0,phase_1,,,,,,,,,,,,,orange,circle
39.0,5.0,0.5,1.0,3.0,3.0,337.0621129870415,1.0,1.0,phase_1,,,,,,,,,,,,,magenta,triangle
410.0,8.0,4.0,1.0,4.0,4.0,336.7242161184549,2.0,1.0,phase_1,,,,,,,,,,,,,yellow,hexagon
0.0,4.0,0.0,0.0,2.0,2.0,317.6666405051946,2.0,1.0,phase_1,,,,,,,,,,,,,gray,square
394.0,4.0,4.0,0.0,4.0,4.0,311.5942291915416,2.0,1.0,phase_1,,,,,,,,,,,,,gray,square
401.0,8.0,4.0,1.0,3.0,3.0,310.8214680105448,2.0,1.0,phase_1,,,,,,,,,,,,,yellow,hexagon
402.0,4.0,4.0,0.0,4.0,4.0,353.8673110306263,2.0,1.0,phase_1,,,,,,,,,,,,,gray,square
0.0,4.0,0.0,0.0,4.0,4.0,344.0787401050329,2.0,1.0,phase_1,,,,,,,,,,,,,gray,square
0.0,5.0,0.0,1.0,3.0,3.0,372.7616295218467,2.0,1.0,phase_1,,,,,,,,,,,,,magenta,triangle
176.0,3.0,2.0,0.0,1.0,1.0,343.1125693023205,2.0,1.0,phase_1,,,,,,,,,,,,,white,diamond
64.0,1.0,0.5,0.0,2.0,2.0,246.8131110072136,2.0,1.0,phase_1,,,,,,,,,,,,,blue,cross
209.0,7.0,2.0,1.0,3.0,3.0,370.8085399121046,2.0,1.0,phase_1,,,,,,,,,,,,,orange,circle
69.0,5.0,0.5,1.0,4.0,4.0,327.3543026298284,2.0,1.0,phase_1,,,,,,,,,,,,,magenta,triangle
0.0,1.0,0.0,0.0,2.0,2.0,290.2627531439066,2.0,1.0,phase_1,,,,,,,,,,,,,blue,cross
188.0,3.0,2.0,0.0,4.0,4.0,352.5343872606754,2.0,1.0,phase_1,,,,,,,,,,,,,white,diamond
27.0,5.0,0.5,1.0,3.0,3.0,346.7366192489862,2.0,1.0,phase_1,,,,,,,,,,,,,magenta,triangle
376.0,4.0,4.0,0.0,1.0,1.0,306.4641915261745,2.0,1.0,phase_1,,,,,,,,,,,,,gray,square
118.0,2.0,1.0,0.0,2.0,2.0,372.8980328887701,2.0,1.0,phase_1,,,,,,,,,,,,,cyan,I
85.0,6.0,1.0,1.0,2.0,2.0,344.3851806223392,2.0,1.0,phase_1,,,,,,,,,,,,,green,flipped triangle
404.0,8.0,4.0,1.0,2.0,2.0,304.2591586709022,2.0,1.0,phase_1,,,,,,,,,,,,,yellow,hexagon
388.0,4.0,4.0,0.0,3.0,3.0,356.2454804778099,2.0,1.0,phase_1,,,,,,,,,,,,,gray,square
111.0,2.0,1.0,0.0,3.0,3.0,353.5695131868124,2.0,1.0,phase_1,,,,,,,,,,,,,cyan,I
112.0,6.0,1.0,1.0,4.0,4.0,396.2783236056566,2.0,1.0,phase_1,,,,,,,,,,,,,green,flipped triangle
41.0,1.0,0.5,0.0,2.0,2.0,330.9606816619634,2.0,1.0,phase_1,,,,,,,,,,,,,blue,cross
198.0,7.0,2.0,1.0,3.0,3.0,341.8278247117996,2.0,1.0,phase_1,,,,,,,,,,,,,orange,circle
0.0,3.0,0.0,0.0,4.0,4.0,355.1084659993648,2.0,1.0,phase_1,,,,,,,,,,,,,white,diamond
0.0,1.0,0.0,0.0,1.0,1.0,264.9819310754537,2.0,1.0,phase_1,,,,,,,,,,,,,blue,cross
107.0,6.0,1.0,1.0,3.0,3.0,348.5718183219433,2.0,1.0,phase_1,,,,,,,,,,,,,green,flipped triangle
68.0,1.0,0.5,0.0,3.0,3.0,353.4864634275436,2.0,1.0,phase_1,,,,,,,,,,,,,blue,cross
69.0,1.0,0.5,0.0,2.0,2.0,318.6986707150936,2.0,1.0,phase_1,,,,,,,,,,,,,blue,cross
410.0,4.0,4.0,0.0,1.0,1.0,341.1570116877556,2.0,1.0,phase_1,,,,,,,,,,,,,gray,square
384.0,8.0,4.0,1.0,1.0,1.0,328.3429723232984,2.0,1.0,phase_1,,,,,,,,,,,,,yellow,hexagon
46.0,1.0,0.5,0.0,1.0,1.0,332.0870883762836,2.0,1.0,phase_1,,,,,,,,,,,,,blue,cross
416.0,8.0,4.0,1.0,1.0,1.0,272.6826500147581,2.0,1.0,phase_1,,,,,,,,,,,,,yellow,hexagon
0.0,7.0,0.0,1.0,1.0,1.0,299.3579618632793,2.0,1.0,phase_1,,,,,,,,,,,,,orange,circle
212.0,3.0,2.0,0.0,4.0,4.0,396.5037912130356,2.0,1.0,phase_1,,,,,,,,,,,,,white,diamond
0.0,6.0,0.0,1.0,3.0,3.0,344.3837240338325,2.0,1.0,phase_1,,,,,,,,,,,,,green,flipped triangle
0.0,2.0,0.0,0.0,3.0,3.0,346.933152526617,2.0,1.0,phase_1,,,,,,,,,,,,,cyan,I
0.0,1.0,0.0,0.0,4.0,4.0,561.4842753857374,2.0,1.0,phase_1,,,,,,,,,,,,,blue,cross
32.0,1.0,0.5,0.0,3.0,3.0,342.9368287324905,2.0,1.0,phase_1,,,,,,,,,,,,,blue,cross
0.0,4.0,0.0,0.0,2.0,2.0,393.4935331344604,2.0,1.0,phase_1,,,,,,,,,,,,,gray,square
39.0,5.0,0.5,1.0,2.0,2.0,397.4332492798567,2.0,1.0,phase_1,,,,,,,,,,,,,magenta,triangle
0.0,8.0,0.0,1.0,4.0,4.0,325.0254243612289,2.0,1.0,phase_1,,,,,,,,,,,,,yellow,hexagon
418.0,4.0,4.0,0.0,1.0,1.0,327.5893721729517,2.0,1.0,phase_1,,,,,,,,,,,,,gray,square
53.0,1.0,0.5,0.0,1.0,1.0,429.1205015033483,2.0,1.0,phase_1,,,,,,,,,,,,,blue,cross
387.0,8.0,4.0,1.0,4.0,4.0,375.1787599176168,2.0,1.0,phase_1,,,,,,,,,,,,,yellow,hexagon
0.0,3.0,0.0,0.0,1.0,1.0,387.9355322569608,2.0,1.0,phase_1,,,,,,,,,,,,,white,diamond
0.0,8.0,0.0,1.0,4.0,4.0,336.5132119506597,2.0,1.0,phase_1,,,,,,,,,,,,,yellow,hexagon
64.0,1.0,0.5,0.0,2.0,2.0,494.7775937616825,2.0,1.0,phase_1,,,,,,,,,,,,,blue,cross
107.0,2.0,1.0,0.0,3.0,3.0,364.1218151897192,2.0,1.0,phase_1,,,,,,,,,,,,,cyan,I
58.0,5.0,0.5,1.0,1.0,1.0,368.3646358549595,2.0,1.0,phase_1,,,,,,,,,,,,,magenta,triangle
376.0,4.0,4.0,0.0,1.0,1.0,405.8278892189264,2.0,1.0,phase_1,,,,,,,,,,,,,gray,square
202.0,7.0,2.0,1.0,2.0,2.0,323.382131755352,2.0,1.0,phase_1,,,,,,,,,,,,,orange,circle
63.0,1.0,0.5,0.0,2.0,2.0,328.4029569476843,2.0,1.0,phase_1,,,,,,,,,,,,,blue,cross
202.0,3.0,2.0,0.0,2.0,2.0,356.2029954046011,2.0,1.0,phase_1,,,,,,,,,,,,,white,diamond
98.0,2.0,1.0,0.0,4.0,4.0,448.9516224712133,2.0,1.0,phase_1,,,,,,,,,,,,,cyan,I
86.0,6.0,1.0,1.0,4.0,4.0,421.6993674635887,2.0,1.0,phase_1,,,,,,,,,,,,,green,flipped triangle
225.0,7.0,2.0,1.0,3.0,3.0,367.4517050385475,2.0,1.0,phase_1,,,,,,,,,,,,,orange,circle
111.0,2.0,1.0,0.0,4.0,4.0,339.9395048618316,2.0,1.0,phase_1,,,,,,,,,,,,,cyan,I
74.0,1.0,0.5,0.0,3.0,3.0,330.4839376360178,2.0,1.0,phase_1,,,,,,,,,,,,,blue,cross
221.0,3.0,2.0,0.0,4.0,4.0,311.5154486149549,2.0,1.0,phase_1,,,,,,,,,,,,,white,diamond
41.0,5.0,0.5,1.0,1.0,1.0,349.8125802725553,2.0,1.0,phase_1,,,,,,,,,,,,,magenta,triangle
424.0,4.0,4.0,0.0,2.0,2.0,409.2601891607046,2.0,1.0,phase_1,,,,,,,,,,,,,gray,square
406.0,4.0,4.0,0.0,2.0,2.0,387.3992599546909,2.0,1.0,phase_1,,,,,,,,,,,,,gray,square
40.0,1.0,0.5,0.0,4.0,4.0,336.1195120960474,2.0,1.0,phase_1,,,,,,,,,,,,,blue,cross
0.0,1.0,0.0,0.0,2.0,2.0,510.89259795844555,2.0,1.0,phase_1,,,,,,,,,,,,,blue,cross
384.0,4.0,4.0,0.0,3.0,3.0,315.4648710042238,2.0,1.0,phase_1,,,,,,,,,,,,,gray,square
414.0,8.0,4.0,1.0,1.0,1.0,326.2019138783216,2.0,1.0,phase_1,,,,,,,,,,,,,yellow,hexagon
197.0,7.0,2.0,1.0,1.0,1.0,364.780617877841,2.0,1.0,phase_1,,,,,,,,,,,,,orange,circle
0.0,6.0,0.0,1.0,1.0,1.0,319.3172253668308,2.0,1.0,phase_1,,,,,,,,,,,,,green,flipped triangle
224.0,7.0,2.0,1.0,1.0,1.0,372.3264466971159,2.0,1.0,phase_1,,,,,,,,,,,,,orange,circle
0.0,6.0,0.0,1.0,1.0,1.0,266.8423261493444,2.0,1.0,phase_1,,,,,,,,,,,,,green,flipped triangle
0.0,4.0,0.0,0.0,3.0,3.0,374.0721605718136,2.0,1.0,phase_1,,,,,,,,,,,,,gray,square
95.0,2.0,1.0,0.0,1.0,1.0,386.4303324371576,2.0,1.0,phase_1,,,,,,,,,,,,,cyan,I
201.0,7.0,2.0,1.0,4.0,4.0,561.2783096730709,2.0,1.0,phase_1,,,,,,,,,,,,,orange,circle
380.0,8.0,4.0,1.0,4.0,4.0,340.060269460082,2.0,1.0,phase_1,,,,,,,,,,,,,yellow,hexagon
405.0,8.0,4.0,1.0,3.0,3.0,394.7912566363811,2.0,1.0,phase_1,,,,,,,,,,,,,yellow,hexagon
45.0,1.0,0.5,0.0,1.0,1.0,368.010425940156,2.0,1.0,phase_1,,,,,,,,,,,,,blue,cross
68.0,5.0,0.5,1.0,2.0,2.0,379.5921765267849,2.0,1.0,phase_1,,,,,,,,,,,,,magenta,triangle
188.0,7.0,2.0,1.0,2.0,2.0,326.6723155975342,2.0,1.0,phase_1,,,,,,,,,,,,,orange,circle
0.0,1.0,0.0,0.0,4.0,4.0,348.4818805009126,2.0,1.0,phase_1,,,,,,,,,,,,,blue,cross
421.0,8.0,4.0,1.0,1.0,1.0,376.3397950679064,2.0,1.0,phase_1,,,,,,,,,,,,,yellow,hexagon
385.0,8.0,4.0,1.0,2.0,2.0,325.2435140311718,2.0,1.0,phase_1,,,,,,,,,,,,,yellow,hexagon
92.0,6.0,1.0,1.0,1.0,1.0,323.6866109073162,2.0,1.0,phase_1,,,,,,,,,,,,,green,flipped triangle
224.0,3.0,2.0,0.0,3.0,3.0,368.8356894999742,2.0,1.0,phase_1,,,,,,,,,,,,,white,diamond
94.0,6.0,1.0,1.0,1.0,1.0,292.4605663865804,2.0,1.0,phase_1,,,,,,,,,,,,,green,flipped triangle
197.0,3.0,2.0,0.0,3.0,3.0,362.2195906937122,2.0,1.0,phase_1,,,,,,,,,,,,,white,diamond
408.0,8.0,4.0,1.0,1.0,1.0,308.2408010959625,2.0,1.0,phase_1,,,,,,,,,,,,,yellow,hexagon
70.0,5.0,0.5,1.0,3.0,3.0,393.2704199105501,2.0,1.0,phase_1,,,,,,,,,,,,,magenta,triangle
0.0,8.0,0.0,1.0,1.0,1.0,496.1196929216385,2.0,1.0,phase_1,,,,,,,,,,,,,yellow,hexagon
217.0,7.0,2.0,1.0,1.0,1.0,283.544197678566,2.0,1.0,phase_1,,,,,,,,,,,,,orange,circle
68.0,1.0,0.5,0.0,3.0,3.0,361.3601475954056,2.0,1.0,phase_1,,,,,,,,,,,,,blue,cross
399.0,8.0,4.0,1.0,1.0,1.0,325.738500803709,2.0,1.0,phase_1,,,,,,,,,,,,,yellow,hexagon
69.0,5.0,0.5,1.0,1.0,1.0,344.5869479328394,2.0,1.0,phase_1,,,,,,,,,,,,,magenta,triangle
217.0,3.0,2.0,0.0,1.0,1.0,264.3885910511017,2.0,1.0,phase_1,,,,,,,,,,,,,white,diamond
0.0,8.0,0.0,1.0,2.0,2.0,329.4354919344187,2.0,1.0,phase_1,,,,,,,,,,,,,yellow,hexagon
376.0,8.0,4.0,1.0,3.0,3.0,409.2202186584472,2.0,1.0,phase_1,,,,,,,,,,,,,yellow,hexagon
405.0,4.0,4.0,0.0,3.0,3.0,427.8773572295904,2.0,1.0,phase_1,,,,,,,,,,,,,gray,square
46.0,5.0,0.5,1.0,3.0,3.0,361.4651542156935,2.0,1.0,phase_1,,,,,,,,,,,,,magenta,triangle
215.0,3.0,2.0,0.0,2.0,2.0,445.4449657350778,2.0,1.0,phase_1,,,,,,,,,,,,,white,diamond
36.0,1.0,0.5,0.0,1.0,1.0,369.6238826960325,2.0,1.0,phase_1,,,,,,,,,,,,,blue,cross
25.0,5.0,0.5,1.0,1.0,1.0,389.7169549018144,2.0,1.0,phase_1,,,,,,,,,,,,,magenta,triangle
179.0,7.0,2.0,1.0,4.0,4.0,336.2736348062753,3.0,1.0,phase_1,,,,,,,,,,,,,orange,circle
80.0,2.0,1.0,0.0,3.0,3.0,312.8586746752262,3.0,1.0,phase_1,,,,,,,,,,,,,cyan,I
47.0,1.0,0.5,0.0,3.0,3.0,300.5733769387007,3.0,1.0,phase_1,,,,,,,,,,,,,blue,cross
34.0,5.0,0.5,1.0,4.0,4.0,318.8627026975155,3.0,1.0,phase_1,,,,,,,,,,,,,magenta,triangle
403.0,8.0,4.0,1.0,3.0,3.0,302.9944263398647,3.0,1.0,phase_1,,,,,,,,,,,,,yellow,hexagon
403.0,4.0,4.0,0.0,3.0,3.0,351.2956779450178,3.0,1.0,phase_1,,,,,,,,,,,,,gray,square
221.0,7.0,2.0,1.0,3.0,3.0,343.1363757699728,3.0,1.0,phase_1,,,,,,,,,,,,,orange,circle
63.0,5.0,0.5,1.0,3.0,3.0,341.0006407648325,3.0,1.0,phase_1,,,,,,,,,,,,,magenta,triangle
191.0,3.0,2.0,0.0,3.0,3.0,383.6430013179779,3.0,1.0,phase_1,,,,,,,,,,,,,white,diamond
64.0,1.0,0.5,0.0,2.0,2.0,386.5815717726946,3.0,1.0,phase_1,,,,,,,,,,,,,blue,cross
397.0,8.0,4.0,1.0,3.0,3.0,303.0381593853235,3.0,1.0,phase_1,,,,,,,,,,,,,yellow,hexagon
62.0,5.0,0.5,1.0,2.0,2.0,339.7298902273178,3.0,1.0,phase_1,,,,,,,,,,,,,magenta,triangle
39.0,1.0,0.5,0.0,4.0,4.0,312.1385183185339,3.0,1.0,phase_1,,,,,,,,,,,,,blue,cross
410.0,8.0,4.0,1.0,1.0,1.0,367.7109442651272,3.0,1.0,phase_1,,,,,,,,,,,,,yellow,hexagon
387.0,4.0,4.0,0.0,4.0,4.0,396.9133738428354,3.0,1.0,phase_1,,,,,,,,,,,,,gray,square
403.0,8.0,4.0,1.0,2.0,2.0,328.5391684621572,3.0,1.0,phase_1,,,,,,,,,,,,,yellow,hexagon
112.0,6.0,1.0,1.0,3.0,3.0,373.3666110783815,3.0,1.0,phase_1,,,,,,,,,,,,,green,flipped triangle
399.0,4.0,4.0,0.0,3.0,3.0,319.9884686619043,3.0,1.0,phase_1,,,,,,,,,,,,,gray,square
0.0,2.0,0.0,0.0,2.0,2.0,303.4652527421713,3.0,1.0,phase_1,,,,,,,,,,,,,cyan,I
202.0,7.0,2.0,1.0,4.0,4.0,344.9563439935446,3.0,1.0,phase_1,,,,,,,,,,,,,orange,circle
0.0,6.0,0.0,1.0,3.0,3.0,385.5471294373274,3.0,1.0,phase_1,,,,,,,,,,,,,green,flipped triangle
0.0,2.0,0.0,0.0,1.0,1.0,342.3687014728784,3.0,1.0,phase_1,,,,,,,,,,,,,cyan,I
0.0,1.0,0.0,0.0,2.0,2.0,323.0043835937977,3.0,1.0,phase_1,,,,,,,,,,,,,blue,cross
377.0,8.0,4.0,1.0,1.0,1.0,356.9249492138624,3.0,1.0,phase_1,,,,,,,,,,,,,yellow,hexagon
0.0,3.0,0.0,0.0,2.0,2.0,394.5717010647058,3.0,1.0,phase_1,,,,,,,,,,,,,white,diamond
0.0,3.0,0.0,0.0,2.0,2.0,365.350104868412,3.0,1.0,phase_1,,,,,,,,,,,,,white,diamond
118.0,6.0,1.0,1.0,2.0,2.0,297.42763936519617,3.0,1.0,phase_1,,,,,,,,,,,,,green,flipped triangle
0.0,7.0,0.0,1.0,3.0,3.0,351.4232710003853,3.0,1.0,phase_1,,,,,,,,,,,,,orange,circle
40.0,1.0,0.5,0.0,1.0,1.0,349.7948739677667,3.0,1.0,phase_1,,,,,,,,,,,,,blue,cross
0.0,1.0,0.0,0.0,1.0,1.0,537.0322596281767,3.0,1.0,phase_1,,,,,,,,,,,,,blue,cross
208.0,3.0,2.0,0.0,3.0,3.0,336.3193981349468,3.0,1.0,phase_1,,,,,,,,,,,,,white,diamond
0.0,8.0,0.0,1.0,1.0,1.0,329.4603638350963,3.0,1.0,phase_1,,,,,,,,,,,,,yellow,hexagon
191.0,7.0,2.0,1.0,3.0,3.0,326.6996890306473,3.0,1.0,phase_1,,,,,,,,,,,,,orange,circle
387.0,4.0,4.0,0.0,2.0,2.0,316.8712724000215,3.0,1.0,phase_1,,,,,,,,,,,,,gray,square
45.0,1.0,0.5,0.0,3.0,3.0,296.7015355825424,3.0,1.0,phase_1,,,,,,,,,,,,,blue,cross
30.0,5.0,0.5,1.0,4.0,4.0,340.5998833477497,3.0,1.0,phase_1,,,,,,,,,,,,,magenta,triangle
119.0,2.0,1.0,0.0,4.0,4.0,340.642649680376,3.0,1.0,phase_1,,,,,,,,,,,,,cyan,I
101.0,6.0,1.0,1.0,1.0,1.0,287.9486232995987,3.0,1.0,phase_1,,,,,,,,,,,,,green,flipped triangle
402.0,8.0,4.0,1.0,3.0,3.0,324.8903155326843,3.0,1.0,phase_1,,,,,,,,,,,,,yellow,hexagon
213.0,3.0,2.0,0.0,1.0,1.0,386.8187833577394,3.0,1.0,phase_1,,,,,,,,,,,,,white,diamond
410.0,4.0,4.0,0.0,4.0,4.0,315.8029951155185,3.0,1.0,phase_1,,,,,,,,,,,,,gray,square
202.0,3.0,2.0,0.0,3.0,3.0,395.0807526707649,3.0,1.0,phase_1,,,,,,,,,,,,,white,diamond
87.0,6.0,1.0,1.0,1.0,1.0,414.9160794913769,3.0,1.0,phase_1,,,,,,,,,,,,,green,flipped triangle
0.0,3.0,0.0,0.0,2.0,2.0,305.2379097789526,3.0,1.0,phase_1,,,,,,,,,,,,,white,diamond
215.0,7.0,2.0,1.0,1.0,1.0,281.1348289251327,3.0,1.0,phase_1,,,,,,,,,,,,,orange,circle
416.0,4.0,4.0,0.0,4.0,4.0,340.5775539577007,3.0,1.0,phase_1,,,,,,,,,,,,,gray,square
68.0,5.0,0.5,1.0,4.0,4.0,418.3998927474022,3.0,1.0,phase_1,,,,,,,,,,,,,magenta,triangle
92.0,2.0,1.0,0.0,1.0,1.0,438.1551947444677,3.0,1.0,phase_1,,,,,,,,,,,,,cyan,I
183.0,7.0,2.0,1.0,3.0,3.0,459.169752895832,3.0,1.0,phase_1,,,,,,,,,,,,,orange,circle
85.0,2.0,1.0,0.0,3.0,3.0,325.8294444531202,3.0,1.0,phase_1,,,,,,,,,,,,,cyan,I
64.0,5.0,0.5,1.0,2.0,2.0,337.6374449580908,3.0,2.0,phase_1,,,,,,,,,,,,,magenta,triangle
0.0,2.0,0.0,0.0,3.0,3.0,374.4340501725673,3.0,1.0,phase_1,,,,,,,,,,,,,cyan,I
208.0,7.0,2.0,1.0,2.0,2.0,328.1899448484182,3.0,1.0,phase_1,,,,,,,,,,,,,orange,circle
47.0,5.0,0.5,1.0,3.0,3.0,277.0523149520159,3.0,1.0,phase_1,,,,,,,,,,,,,magenta,triangle
397.0,4.0,4.0,0.0,2.0,2.0,301.3486042618751,3.0,1.0,phase_1,,,,,,,,,,,,,gray,square
188.0,7.0,2.0,1.0,4.0,4.0,366.8975364416837,3.0,1.0,phase_1,,,,,,,,,,,,,orange,circle
85.0,2.0,1.0,0.0,3.0,3.0,388.8196032494306,3.0,1.0,phase_1,,,,,,,,,,,,,cyan,I
104.0,2.0,1.0,0.0,4.0,4.0,418.5330253094435,3.0,1.0,phase_1,,,,,,,,,,,,,cyan,I
180.0,3.0,2.0,0.0,2.0,2.0,308.4089029580354,3.0,1.0,phase_1,,,,,,,,,,,,,white,diamond
119.0,6.0,1.0,1.0,3.0,3.0,297.1068192273378,3.0,1.0,phase_1,,,,,,,,,,,,,green,flipped triangle
201.0,3.0,2.0,0.0,4.0,4.0,342.443922534585,3.0,1.0,phase_1,,,,,,,,,,,,,white,diamond
110.0,6.0,1.0,1.0,4.0,4.0,372.6407252252102,3.0,1.0,phase_1,,,,,,,,,,,,,green,flipped triangle
117.0,6.0,1.0,1.0,3.0,3.0,312.2055530548095,3.0,1.0,phase_1,,,,,,,,,,,,,green,flipped triangle
57.0,5.0,0.5,1.0,3.0,3.0,335.82753688097,3.0,1.0,phase_1,,,,,,,,,,,,,magenta,triangle
25.0,1.0,0.5,0.0,1.0,1.0,344.6151558309793,3.0,1.0,phase_1,,,,,,,,,,,,,blue,cross
182.0,7.0,2.0,1.0,2.0,2.0,340.9887701272964,3.0,1.0,phase_1,,,,,,,,,,,,,orange,circle
204.0,3.0,2.0,0.0,3.0,3.0,315.5295681208372,3.0,1.0,phase_1,,,,,,,,,,,,,white,diamond
78.0,2.0,1.0,0.0,4.0,4.0,330.7708464562893,3.0,1.0,phase_1,,,,,,,,,,,,,cyan,I
54.0,1.0,0.5,0.0,4.0,4.0,411.4297814667225,3.0,1.0,phase_1,,,,,,,,,,,,,blue,cross
403.0,4.0,4.0,0.0,1.0,1.0,330.311918631196,3.0,1.0,phase_1,,,,,,,,,,,,,gray,square
384.0,4.0,4.0,0.0,3.0,3.0,334.3776501715183,3.0,1.0,phase_1,,,,,,,,,,,,,gray,square
0.0,2.0,0.0,0.0,4.0,4.0,405.5874738842249,3.0,1.0,phase_1,,,,,,,,,,,,,cyan,I
194.0,3.0,2.0,0.0,2.0,2.0,272.9944605380296,3.0,1.0,phase_1,,,,,,,,,,,,,white,diamond
111.0,6.0,1.0,1.0,2.0,2.0,458.6830697953701,3.0,1.0,phase_1,,,,,,,,,,,,,green,flipped triangle
421.0,4.0,4.0,0.0,2.0,2.0,378.6657899618149,3.0,1.0,phase_1,,,,,,,,,,,,,gray,square
225.0,3.0,2.0,0.0,1.0,1.0,348.7492240965366,3.0,1.0,phase_1,,,,,,,,,,,,,white,diamond
416.0,8.0,4.0,1.0,4.0,4.0,324.0215573459863,3.0,1.0,phase_1,,,,,,,,,,,,,yellow,hexagon
117.0,2.0,1.0,0.0,4.0,4.0,336.8148449808359,3.0,1.0,phase_1,,,,,,,,,,,,,cyan,I
74.0,5.0,0.5,1.0,1.0,1.0,357.8858077526092,3.0,1.0,phase_1,,,,,,,,,,,,,magenta,triangle
83.0,6.0,1.0,1.0,4.0,4.0,314.0024840831756,3.0,1.0,phase_1,,,,,,,,,,,,,green,flipped triangle
58.0,1.0,0.5,0.0,4.0,4.0,403.7969931960106,3.0,1.0,phase_1,,,,,,,,,,,,,blue,cross
72.0,5.0,0.5,1.0,4.0,4.0,296.5440955013037,3.0,1.0,phase_1,,,,,,,,,,,,,magenta,triangle
105.0,6.0,1.0,1.0,3.0,3.0,375.0187270343303,3.0,1.0,phase_1,,,,,,,,,,,,,green,flipped triangle
0.0,4.0,0.0,0.0,4.0,4.0,381.2899012118578,3.0,1.0,phase_1,,,,,,,,,,,,,gray,square
0.0,6.0,0.0,1.0,3.0,3.0,304.5166991651058,3.0,1.0,phase_1,,,,,,,,,,,,,green,flipped triangle
184.0,7.0,2.0,1.0,2.0,2.0,348.8507736474275,3.0,1.0,phase_1,,,,,,,,,,,,,orange,circle
183.0,3.0,2.0,0.0,1.0,1.0,321.756774559617,3.0,1.0,phase_1,,,,,,,,,,,,,white,diamond
52.0,5.0,0.5,1.0,3.0,3.0,384.7302105277776,3.0,1.0,phase_1,,,,,,,,,,,,,magenta,triangle
184.0,7.0,2.0,1.0,1.0,1.0,372.8415407240391,3.0,1.0,phase_1,,,,,,,,,,,,,orange,circle
0.0,8.0,0.0,1.0,3.0,3.0,416.6633225977421,3.0,1.0,phase_1,,,,,,,,,,,,,yellow,hexagon
0.0,7.0,0.0,1.0,4.0,4.0,309.1740794479847,3.0,1.0,phase_1,,,,,,,,,,,,,orange,circle
394.0,8.0,4.0,1.0,2.0,2.0,263.2649093866348,3.0,1.0,phase_1,,,,,,,,,,,,,yellow,hexagon
0.0,6.0,0.0,1.0,2.0,2.0,331.685533747077,3.0,1.0,phase_1,,,,,,,,,,,,,green,flipped triangle
0.0,2.0,0.0,0.0,3.0,3.0,298.8714445382356,3.0,1.0,phase_1,,,,,,,,,,,,,cyan,I
0.0,1.0,0.0,0.0,1.0,1.0,352.3477967828512,3.0,1.0,phase_1,,,,,,,,,,,,,blue,cross
191.0,7.0,2.0,1.0,2.0,2.0,314.0280656516552,3.0,1.0,phase_1,,,,,,,,,,,,,orange,circle
414.0,4.0,4.0,0.0,4.0,4.0,336.3328427076339,3.0,1.0,phase_1,,,,,,,,,,,,,gray,square
106.0,2.0,1.0,0.0,1.0,1.0,339.5185247063637,3.0,1.0,phase_1,,,,,,,,,,,,,cyan,I
125.0,2.0,1.0,0.0,1.0,1.0,386.0332313925028,3.0,1.0,phase_1,,,,,,,,,,,,,cyan,I
416.0,4.0,4.0,0.0,2.0,2.0,365.5284661799669,3.0,1.0,phase_1,,,,,,,,,,,,,gray,square
177.0,3.0,2.0,0.0,2.0,2.0,520.4667765647173,4.0,1.0,phase_1,,,,,,,,,,,,,white,diamond
211.0,7.0,2.0,1.0,3.0,3.0,300.9408432990312,4.0,1.0,phase_1,,,,,,,,,,,,,orange,circle
0.0,5.0,0.0,1.0,4.0,4.0,364.0668615698814,4.0,1.0,phase_1,,,,,,,,,,,,,magenta,triangle
30.0,1.0,0.5,0.0,2.0,2.0,394.3045884370804,4.0,1.0,phase_1,,,,,,,,,,,,,blue,cross
387.0,8.0,4.0,1.0,2.0,2.0,324.2667149752378,4.0,1.0,phase_1,,,,,,,,,,,,,yellow,hexagon
211.0,3.0,2.0,0.0,2.0,2.0,335.7132896780967,4.0,1.0,phase_1,,,,,,,,,,,,,white,diamond
111.0,6.0,1.0,1.0,1.0,1.0,284.4361439347267,4.0,1.0,phase_1,,,,,,,,,,,,,green,flipped triangle
109.0,2.0,1.0,0.0,2.0,2.0,332.7997997403145,4.0,1.0,phase_1,,,,,,,,,,,,,cyan,I
99.0,2.0,1.0,0.0,4.0,4.0,338.1048608571291,4.0,1.0,phase_1,,,,,,,,,,,,,cyan,I
85.0,6.0,1.0,1.0,2.0,2.0,397.2214944660663,4.0,1.0,phase_1,,,,,,,,,,,,,green,flipped triangle
198.0,3.0,2.0,0.0,3.0,3.0,352.3399420082569,4.0,1.0,phase_1,,,,,,,,,,,,,white,diamond
112.0,2.0,1.0,0.0,1.0,1.0,292.5739325582981,4.0,1.0,phase_1,,,,,,,,,,,,,cyan,I
408.0,4.0,4.0,0.0,1.0,1.0,362.0743006467819,4.0,1.0,phase_1,,,,,,,,,,,,,gray,square
0.0,5.0,0.0,1.0,2.0,2.0,262.2075621038675,4.0,1.0,phase_1,,,,,,,,,,,,,magenta,triangle
220.0,7.0,2.0,1.0,4.0,4.0,478.2194811850786,4.0,1.0,phase_1,,,,,,,,,,,,,orange,circle
100.0,6.0,1.0,1.0,4.0,4.0,450.2505660057068,4.0,1.0,phase_1,,,,,,,,,,,,,green,flipped triangle
0.0,3.0,0.0,0.0,4.0,4.0,355.9514544904232,4.0,1.0,phase_1,,,,,,,,,,,,,white,diamond
0.0,3.0,0.0,0.0,3.0,3.0,368.1631758809089,4.0,1.0,phase_1,,,,,,,,,,,,,white,diamond
207.0,3.0,2.0,0.0,2.0,2.0,335.8223885297775,4.0,1.0,phase_1,,,,,,,,,,,,,white,diamond
112.0,2.0,1.0,0.0,2.0,2.0,321.3378805667162,4.0,1.0,phase_1,,,,,,,,,,,,,cyan,I
95.0,6.0,1.0,1.0,1.0,1.0,272.0756139606237,4.0,1.0,phase_1,,,,,,,,,,,,,green,flipped triangle
30.0,5.0,0.5,1.0,1.0,1.0,453.7051413208246,4.0,1.0,phase_1,,,,,,,,,,,,,magenta,triangle
0.0,4.0,0.0,0.0,4.0,4.0,320.7215033471584,4.0,1.0,phase_1,,,,,,,,,,,,,gray,square
0.0,4.0,0.0,0.0,2.0,2.0,275.9238611906767,4.0,1.0,phase_1,,,,,,,,,,,,,gray,square
47.0,1.0,0.5,0.0,1.0,1.0,338.6605605483055,4.0,1.0,phase_1,,,,,,,,,,,,,blue,cross
204.0,7.0,2.0,1.0,3.0,3.0,464.4914958626032,4.0,1.0,phase_1,,,,,,,,,,,,,orange,circle
418.0,8.0,4.0,1.0,4.0,4.0,298.58591966331,4.0,1.0,phase_1,,,,,,,,,,,,,yellow,hexagon
418.0,4.0,4.0,0.0,4.0,4.0,354.2348966002464,4.0,1.0,phase_1,,,,,,,,,,,,,gray,square
384.0,8.0,4.0,1.0,3.0,3.0,468.2615511119365,4.0,1.0,phase_1,,,,,,,,,,,,,yellow,hexagon
115.0,2.0,1.0,0.0,4.0,4.0,338.8575408607721,4.0,1.0,phase_1,,,,,,,,,,,,,cyan,I
105.0,2.0,1.0,0.0,2.0,2.0,326.0743804275989,4.0,1.0,phase_1,,,,,,,,,,,,,cyan,I
411.0,4.0,4.0,0.0,1.0,1.0,313.7840665876865,4.0,1.0,phase_1,,,,,,,,,,,,,gray,square
0.0,2.0,0.0,0.0,1.0,1.0,297.7250758558512,4.0,1.0,phase_1,,,,,,,,,,,,,cyan,I
395.0,4.0,4.0,0.0,4.0,4.0,327.1429110318422,4.0,1.0,phase_1,,,,,,,,,,,,,gray,square
0.0,7.0,0.0,1.0,2.0,2.0,311.2685419619083,4.0,1.0,phase_1,,,,,,,,,,,,,orange,circle
76.0,6.0,1.0,1.0,2.0,2.0,317.5219446420669,4.0,1.0,phase_1,,,,,,,,,,,,,green,flipped triangle
0.0,6.0,0.0,1.0,2.0,2.0,257.2894357144832,4.0,1.0,phase_1,,,,,,,,,,,,,green,flipped triangle
40.0,5.0,0.5,1.0,4.0,4.0,344.8479380458593,4.0,1.0,phase_1,,,,,,,,,,,,,magenta,triangle
86.0,2.0,1.0,0.0,2.0,2.0,340.3041642159223,4.0,1.0,phase_1,,,,,,,,,,,,,cyan,I
0.0,7.0,0.0,1.0,3.0,3.0,368.0816683918237,4.0,1.0,phase_1,,,,,,,,,,,,,orange,circle
204.0,3.0,2.0,0.0,4.0,4.0,339.9954475462436,4.0,1.0,phase_1,,,,,,,,,,,,,white,diamond
100.0,6.0,1.0,1.0,1.0,1.0,306.5436277538538,4.0,1.0,phase_1,,,,,,,,,,,,,green,flipped triangle
407.0,8.0,4.0,1.0,4.0,4.0,304.2834363877773,4.0,1.0,phase_1,,,,,,,,,,,,,yellow,hexagon
194.0,7.0,2.0,1.0,4.0,4.0,450.1459170132875,4.0,1.0,phase_1,,,,,,,,,,,,,orange,circle
211.0,3.0,2.0,0.0,1.0,1.0,366.7858056724071,4.0,1.0,phase_1,,,,,,,,,,,,,white,diamond
94.0,2.0,1.0,0.0,3.0,3.0,395.9453422576189,4.0,1.0,phase_1,,,,,,,,,,,,,cyan,I
182.0,3.0,2.0,0.0,3.0,3.0,356.0011573135853,4.0,1.0,phase_1,,,,,,,,,,,,,white,diamond
32.0,5.0,0.5,1.0,1.0,1.0,356.3661146908998,4.0,1.0,phase_1,,,,,,,,,,,,,magenta,triangle
0.0,5.0,0.0,1.0,4.0,4.0,314.4733533263206,4.0,1.0,phase_1,,,,,,,,,,,,,magenta,triangle
82.0,6.0,1.0,1.0,4.0,4.0,296.8369480222463,4.0,1.0,phase_1,,,,,,,,,,,,,green,flipped triangle
0.0,8.0,0.0,1.0,2.0,2.0,308.6186349391937,4.0,1.0,phase_1,,,,,,,,,,,,,yellow,hexagon
34.0,1.0,0.5,0.0,4.0,4.0,304.3350670486688,4.0,1.0,phase_1,,,,,,,,,,,,,blue,cross
115.0,6.0,1.0,1.0,2.0,2.0,324.9998558312654,4.0,1.0,phase_1,,,,,,,,,,,,,green,flipped triangle
213.0,7.0,2.0,1.0,1.0,1.0,328.8220465183258,4.0,1.0,phase_1,,,,,,,,,,,,,orange,circle
196.0,7.0,2.0,1.0,1.0,1.0,351.417301222682,4.0,1.0,phase_1,,,,,,,,,,,,,orange,circle
0.0,7.0,0.0,1.0,1.0,1.0,354.3544840067625,4.0,1.0,phase_1,,,,,,,,,,,,,orange,circle
0.0,7.0,0.0,1.0,3.0,3.0,400.8008819073438,4.0,1.0,phase_1,,,,,,,,,,,,,orange,circle
198.0,3.0,2.0,0.0,2.0,2.0,318.0754818022251,4.0,1.0,phase_1,,,,,,,,,,,,,white,diamond
124.0,2.0,1.0,0.0,3.0,3.0,362.1816337108612,4.0,1.0,phase_1,,,,,,,,,,,,,cyan,I
0.0,8.0,0.0,1.0,4.0,4.0,297.2356379032135,4.0,1.0,phase_1,,,,,,,,,,,,,yellow,hexagon
39.0,1.0,0.5,0.0,1.0,1.0,308.42025578022,4.0,1.0,phase_1,,,,,,,,,,,,,blue,cross
414.0,8.0,4.0,1.0,1.0,1.0,262.9038747400045,4.0,1.0,phase_1,,,,,,,,,,,,,yellow,hexagon
62.0,1.0,0.5,0.0,3.0,3.0,324.5858047157526,4.0,1.0,phase_1,,,,,,,,,,,,,blue,cross
380.0,4.0,4.0,0.0,2.0,2.0,247.6722840219736,4.0,1.0,phase_1,,,,,,,,,,,,,gray,square
185.0,3.0,2.0,0.0,4.0,4.0,311.7148354649544,4.0,1.0,phase_1,,,,,,,,,,,,,white,diamond
185.0,7.0,2.0,1.0,4.0,4.0,323.7270377576351,4.0,1.0,phase_1,,,,,,,,,,,,,orange,circle
81.0,2.0,1.0,0.0,1.0,1.0,407.5878672301769,4.0,1.0,phase_1,,,,,,,,,,,,,cyan,I
48.0,5.0,0.5,1.0,1.0,1.0,466.9945128262043,4.0,1.0,phase_1,,,,,,,,,,,,,magenta,triangle
375.0,8.0,4.0,1.0,4.0,4.0,440.255556255579,4.0,1.0,phase_1,,,,,,,,,,,,,yellow,hexagon
83.0,2.0,1.0,0.0,1.0,1.0,269.580528140068,4.0,1.0,phase_1,,,,,,,,,,,,,cyan,I
215.0,3.0,2.0,0.0,1.0,1.0,433.2445487380028,4.0,1.0,phase_1,,,,,,,,,,,,,white,diamond
180.0,7.0,2.0,1.0,2.0,2.0,261.2970434129238,4.0,1.0,phase_1,,,,,,,,,,,,,orange,circle
0.0,7.0,0.0,1.0,4.0,4.0,294.2775599658489,4.0,1.0,phase_1,,,,,,,,,,,,,orange,circle
401.0,4.0,4.0,0.0,1.0,1.0,334.3854956328869,4.0,1.0,phase_1,,,,,,,,,,,,,gray,square
27.0,1.0,0.5,0.0,3.0,3.0,308.275943621993,4.0,1.0,phase_1,,,,,,,,,,,,,blue,cross
197.0,7.0,2.0,1.0,3.0,3.0,369.040310382843,4.0,1.0,phase_1,,,,,,,,,,,,,orange,circle
0.0,6.0,0.0,1.0,1.0,1.0,400.3453962504864,4.0,1.0,phase_1,,,,,,,,,,,,,green,flipped triangle
424.0,4.0,4.0,0.0,2.0,2.0,299.4165662676096,4.0,1.0,phase_1,,,,,,,,,,,,,gray,square
380.0,4.0,4.0,0.0,1.0,1.0,320.9853637963533,4.0,1.0,phase_1,,,,,,,,,,,,,gray,square
45.0,5.0,0.5,1.0,3.0,3.0,331.3891049474478,4.0,1.0,phase_1,,,,,,,,,,,,,magenta,triangle
102.0,6.0,1.0,1.0,4.0,4.0,299.0820370614528,4.0,1.0,phase_1,,,,,,,,,,,,,green,flipped triangle
0.0,5.0,0.0,1.0,2.0,2.0,291.6473764926195,4.0,1.0,phase_1,,,,,,,,,,,,,magenta,triangle
94.0,2.0,1.0,0.0,2.0,2.0,328.3014986664057,4.0,1.0,phase_1,,,,,,,,,,,,,cyan,I
70.0,1.0,0.5,0.0,4.0,4.0,496.0988294333219,4.0,1.0,phase_1,,,,,,,,,,,,,blue,cross
0.0,2.0,0.0,0.0,4.0,4.0,348.6022092401981,4.0,1.0,phase_1,,,,,,,,,,,,,cyan,I
0.0,5.0,0.0,1.0,1.0,1.0,290.7202001661062,4.0,1.0,phase_1,,,,,,,,,,,,,magenta,triangle
0.0,3.0,0.0,0.0,1.0,1.0,308.2602135837078,4.0,1.0,phase_1,,,,,,,,,,,,,white,diamond
184.0,3.0,2.0,0.0,1.0,1.0,320.6897787749767,4.0,1.0,phase_1,,,,,,,,,,,,,white,diamond
54.0,5.0,0.5,1.0,4.0,4.0,348.6958127468824,4.0,1.0,phase_1,,,,,,,,,,,,,magenta,triangle
124.0,6.0,1.0,1.0,4.0,4.0,290.447823703289,4.0,1.0,phase_1,,,,,,,,,,,,,green,flipped triangle
58.0,1.0,0.5,0.0,3.0,3.0,343.2301916182041,4.0,1.0,phase_1,,,,,,,,,,,,,blue,cross
179.0,3.0,2.0,0.0,4.0,4.0,282.8415092080831,4.0,1.0,phase_1,,,,,,,,,,,,,white,diamond
211.0,7.0,2.0,1.0,4.0,4.0,423.6981719732284,4.0,1.0,phase_1,,,,,,,,,,,,,orange,circle
424.0,8.0,4.0,1.0,2.0,2.0,492.0046478509903,4.0,1.0,phase_1,,,,,,,,,,,,,yellow,hexagon
188.0,3.0,2.0,0.0,2.0,2.0,379.1747838258743,4.0,1.0,phase_1,,,,,,,,,,,,,white,diamond
191.0,3.0,2.0,0.0,4.0,4.0,286.7188565433025,4.0,1.0,phase_1,,,,,,,,,,,,,white,diamond
53.0,5.0,0.5,1.0,1.0,1.0,402.8975386172533,4.0,1.0,phase_1,,,,,,,,,,,,,magenta,triangle
47.0,5.0,0.5,1.0,3.0,3.0,335.5962838977575,4.0,1.0,phase_1,,,,,,,,,,,,,magenta,triangle
395.0,4.0,4.0,0.0,3.0,3.0,323.6521687358618,4.0,1.0,phase_1,,,,,,,,,,,,,gray,square
104.0,6.0,1.0,1.0,2.0,2.0,316.1063268780708,4.0,1.0,phase_1,,,,,,,,,,,,,green,flipped triangle
0.0,4.0,4.0,0.0,6.0,6.0,408.790934830904,1.0,1.0,phase_2,go,250.0,250.0,1.0,,,,,,,,,gray,square
0.0,3.0,2.0,0.0,5.0,5.0,280.8329910039902,1.0,1.0,phase_2,go,250.0,250.0,1.0,,,,,,,,,white,diamond
0.0,6.0,1.0,1.0,6.0,0.0,0.0,1.0,1.0,phase_2,stop,250.0,250.0,4.0,,,,,,,,,green,flipped triangle
0.0,5.0,0.5,1.0,5.0,5.0,274.2204833775759,1.0,1.0,phase_2,stop,250.0,300.0,3.0,,,,,,,,,magenta,triangle
0.0,4.0,4.0,0.0,5.0,5.0,342.6827993243933,1.0,1.0,phase_2,go,200.0,300.0,1.0,,,,,,,,,gray,square
0.0,1.0,0.5,0.0,6.0,6.0,351.4092080295086,1.0,1.0,phase_2,go,200.0,300.0,1.0,,,,,,,,,blue,cross
0.0,3.0,2.0,0.0,6.0,6.0,401.5939850360155,1.0,1.0,phase_2,go,200.0,300.0,1.0,,,,,,,,,white,diamond
0.0,2.0,1.0,0.0,5.0,5.0,536.8170030415058,1.0,1.0,phase_2,go,200.0,300.0,1.0,,,,,,,,,cyan,I
0.0,7.0,2.0,1.0,5.0,5.0,373.158635571599,1.0,1.0,phase_2,stop,200.0,300.0,3.0,,,,,,,,,orange,circle
0.0,2.0,1.0,0.0,6.0,6.0,389.0532236546278,1.0,1.0,phase_2,go,150.0,300.0,1.0,,,,,,,,,cyan,I
0.0,7.0,2.0,1.0,5.0,5.0,382.7926069498062,1.0,1.0,phase_2,go,150.0,300.0,1.0,,,,,,,,,orange,circle
0.0,3.0,2.0,0.0,5.0,5.0,318.0176541209221,1.0,1.0,phase_2,go,150.0,300.0,1.0,,,,,,,,,white,diamond
0.0,4.0,4.0,0.0,6.0,6.0,461.7310520261526,1.0,1.0,phase_2,go,150.0,300.0,1.0,,,,,,,,,gray,square
0.0,7.0,2.0,1.0,6.0,6.0,357.6303143054247,1.0,1.0,phase_2,stop,150.0,300.0,3.0,,,,,,,,,orange,circle
0.0,2.0,1.0,0.0,5.0,5.0,404.0081053972244,1.0,1.0,phase_2,go,150.0,250.0,1.0,,,,,,,,,cyan,I
0.0,1.0,0.5,0.0,5.0,5.0,365.0746550410986,1.0,1.0,phase_2,go,150.0,250.0,1.0,,,,,,,,,blue,cross
0.0,4.0,4.0,0.0,5.0,5.0,372.6201895624399,1.0,1.0,phase_2,go,150.0,250.0,1.0,,,,,,,,,gray,square
0.0,2.0,1.0,0.0,5.0,5.0,345.2261220663786,1.0,1.0,phase_2,go,150.0,250.0,1.0,,,,,,,,,cyan,I
0.0,3.0,2.0,0.0,5.0,5.0,280.0530586391687,1.0,1.0,phase_2,go,150.0,250.0,1.0,,,,,,,,,white,diamond
0.0,6.0,1.0,1.0,6.0,6.0,710.3540636599064,1.0,1.0,phase_2,stop,150.0,250.0,3.0,,,,,,,,,green,flipped triangle
0.0,8.0,4.0,1.0,5.0,5.0,353.8637738674879,1.0,1.0,phase_2,stop,150.0,200.0,3.0,,,,,,,,,yellow,hexagon
0.0,8.0,4.0,1.0,6.0,6.0,725.2344638109207,1.0,1.0,phase_2,stop,100.0,200.0,3.0,,,,,,,,,yellow,hexagon
0.0,2.0,1.0,0.0,5.0,5.0,454.271474853158,1.0,1.0,phase_2,go,100.0,150.0,1.0,,,,,,,,,cyan,I
0.0,5.0,0.5,1.0,5.0,5.0,336.7300555109977,1.0,1.0,phase_2,go,100.0,150.0,1.0,,,,,,,,,magenta,triangle
0.0,8.0,4.0,1.0,5.0,5.0,604.5628599822521,1.0,1.0,phase_2,stop,100.0,150.0,3.0,,,,,,,,,yellow,hexagon
0.0,2.0,1.0,0.0,6.0,6.0,437.1323492377996,1.0,1.0,phase_2,go,50.0,150.0,1.0,,,,,,,,,cyan,I
0.0,4.0,4.0,0.0,6.0,6.0,540.2992740273476,1.0,1.0,phase_2,go,50.0,150.0,1.0,,,,,,,,,gray,square
0.0,3.0,2.0,0.0,6.0,6.0,373.1724042445421,1.0,1.0,phase_2,go,50.0,150.0,1.0,,,,,,,,,white,diamond
0.0,3.0,2.0,0.0,5.0,5.0,449.6754724532366,1.0,1.0,phase_2,go,50.0,150.0,1.0,,,,,,,,,white,diamond
0.0,1.0,0.5,0.0,5.0,5.0,385.6484368443489,1.0,1.0,phase_2,go,50.0,150.0,1.0,,,,,,,,,blue,cross
0.0,5.0,0.5,1.0,5.0,5.0,648.4229471534491,1.0,1.0,phase_2,stop,50.0,150.0,3.0,,,,,,,,,magenta,triangle
0.0,2.0,1.0,0.0,6.0,6.0,506.7672412842512,1.0,1.0,phase_2,go,0.0,150.0,1.0,,,,,,,,,cyan,I
0.0,6.0,1.0,1.0,5.0,5.0,567.7401591092348,1.0,1.0,phase_2,stop,0.0,150.0,3.0,,,,,,,,,green,flipped triangle
0.0,1.0,0.5,0.0,5.0,5.0,535.6954298913479,1.0,1.0,phase_2,go,0.0,150.0,1.0,,,,,,,,,blue,cross
0.0,8.0,4.0,1.0,5.0,5.0,520.5657966434956,1.0,1.0,phase_2,stop,0.0,150.0,3.0,,,,,,,,,yellow,hexagon
0.0,4.0,4.0,0.0,5.0,5.0,471.8269016593694,1.0,1.0,phase_2,go,0.0,150.0,1.0,,,,,,,,,gray,square
0.0,7.0,2.0,1.0,6.0,6.0,433.56753885746,2.0,1.0,phase_2,stop,0.0,150.0,3.0,,,,,,,,,orange,circle
0.0,4.0,4.0,0.0,5.0,5.0,359.7756307572126,2.0,1.0,phase_2,go,0.0,100.0,1.0,,,,,,,,,gray,square
0.0,1.0,0.5,0.0,5.0,5.0,341.901384294033,2.0,1.0,phase_2,go,0.0,100.0,1.0,,,,,,,,,blue,cross
0.0,6.0,1.0,1.0,5.0,5.0,393.806142732501,2.0,1.0,phase_2,go,0.0,100.0,1.0,,,,,,,,,green,flipped triangle
0.0,2.0,1.0,0.0,6.0,6.0,445.8639305084944,2.0,1.0,phase_2,go,0.0,100.0,1.0,,,,,,,,,cyan,I
0.0,7.0,2.0,1.0,6.0,6.0,567.1745426952839,2.0,1.0,phase_2,stop,0.0,100.0,3.0,,,,,,,,,orange,circle
0.0,8.0,4.0,1.0,6.0,6.0,339.6398462355137,2.0,1.0,phase_2,go,0.0,50.0,1.0,,,,,,,,,yellow,hexagon
0.0,4.0,4.0,0.0,6.0,6.0,355.27921654284,2.0,1.0,phase_2,go,0.0,50.0,1.0,,,,,,,,,gray,square
0.0,4.0,4.0,0.0,6.0,6.0,371.3420554995537,2.0,1.0,phase_2,go,0.0,50.0,1.0,,,,,,,,,gray,square
0.0,7.0,2.0,1.0,5.0,5.0,542.5789915025234,2.0,1.0,phase_2,go,0.0,50.0,1.0,,,,,,,,,orange,circle
0.0,8.0,4.0,1.0,5.0,5.0,509.15611162781715,2.0,1.0,phase_2,stop,0.0,50.0,3.0,,,,,,,,,yellow,hexagon
0.0,5.0,0.5,1.0,6.0,6.0,528.9128553122282,2.0,1.0,phase_2,stop,0.0,50.0,3.0,,,,,,,,,magenta,triangle
0.0,3.0,2.0,0.0,6.0,6.0,388.4673975408077,2.0,1.0,phase_2,go,0.0,0.0,1.0,,,,,,,,,white,diamond
0.0,3.0,2.0,0.0,5.0,5.0,284.3908742070198,2.0,1.0,phase_2,go,0.0,0.0,1.0,,,,,,,,,white,diamond
0.0,5.0,0.5,1.0,6.0,6.0,305.6619688868522,2.0,1.0,phase_2,stop,0.0,0.0,3.0,,,,,,,,,magenta,triangle
0.0,1.0,0.5,0.0,6.0,6.0,361.1055668443441,2.0,1.0,phase_2,go,0.0,0.0,1.0,,,,,,,,,blue,cross
0.0,1.0,0.5,0.0,5.0,5.0,281.502790749073,2.0,1.0,phase_2,go,0.0,0.0,1.0,,,,,,,,,blue,cross
0.0,4.0,4.0,0.0,5.0,5.0,326.6557492315769,2.0,1.0,phase_2,go,0.0,0.0,1.0,,,,,,,,,gray,square
0.0,3.0,2.0,0.0,5.0,5.0,336.0296934843063,2.0,1.0,phase_2,go,0.0,0.0,1.0,,,,,,,,,white,diamond
0.0,5.0,0.5,1.0,6.0,6.0,415.2515325695276,2.0,1.0,phase_2,stop,0.0,0.0,3.0,,,,,,,,,magenta,triangle
0.0,3.0,2.0,0.0,6.0,6.0,397.0119599252939,2.0,1.0,phase_2,go,0.0,0.0,1.0,,,,,,,,,white,diamond
0.0,2.0,1.0,0.0,5.0,5.0,270.5635707825422,2.0,1.0,phase_2,go,0.0,0.0,1.0,,,,,,,,,cyan,I
0.0,2.0,1.0,0.0,6.0,6.0,342.4693122506141,2.0,1.0,phase_2,go,0.0,0.0,1.0,,,,,,,,,cyan,I
0.0,2.0,1.0,0.0,6.0,6.0,323.5151823610067,2.0,1.0,phase_2,go,0.0,0.0,1.0,,,,,,,,,cyan,I
0.0,3.0,2.0,0.0,5.0,5.0,290.7225005328655,2.0,1.0,phase_2,go,0.0,0.0,1.0,,,,,,,,,white,diamond
0.0,1.0,0.5,0.0,5.0,5.0,323.7551189959049,2.0,1.0,phase_2,go,0.0,0.0,1.0,,,,,,,,,blue,cross
0.0,4.0,4.0,0.0,6.0,6.0,322.5036449730396,2.0,1.0,phase_2,go,0.0,0.0,1.0,,,,,,,,,gray,square
0.0,1.0,0.5,0.0,6.0,6.0,290.383456274867,2.0,1.0,phase_2,go,0.0,0.0,1.0,,,,,,,,,blue,cross
0.0,6.0,1.0,1.0,6.0,6.0,291.9531390070915,2.0,1.0,phase_2,stop,0.0,0.0,3.0,,,,,,,,,green,flipped triangle
0.0,4.0,4.0,0.0,5.0,5.0,383.2972943782806,2.0,1.0,phase_2,go,0.0,0.0,1.0,,,,,,,,,gray,square
0.0,8.0,4.0,1.0,6.0,6.0,536.9707234203815,2.0,1.0,phase_2,stop,0.0,0.0,3.0,,,,,,,,,yellow,hexagon
0.0,2.0,1.0,0.0,5.0,5.0,375.9580515325069,2.0,1.0,phase_2,go,0.0,0.0,1.0,,,,,,,,,cyan,I
0.0,6.0,1.0,1.0,6.0,6.0,318.475192412734,2.0,1.0,phase_2,go,0.0,0.0,1.0,,,,,,,,,green,flipped triangle
0.0,3.0,2.0,0.0,5.0,5.0,293.9622476696968,2.0,1.0,phase_2,go,0.0,0.0,1.0,,,,,,,,,white,diamond
0.0,6.0,1.0,1.0,6.0,6.0,294.7449311614036,2.0,1.0,phase_2,go,0.0,0.0,1.0,,,,,,,,,green,flipped triangle
0.0,6.0,1.0,1.0,5.0,5.0,324.7786182910204,2.0,1.0,phase_2,stop,0.0,0.0,3.0,,,,,,,,,green,flipped triangle
0.0,6.0,1.0,1.0,5.0,5.0,307.9461436718702,3.0,1.0,phase_2,stop,0.0,0.0,3.0,,,,,,,,,green,flipped triangle
0.0,1.0,0.5,0.0,6.0,6.0,468.068653717637,3.0,1.0,phase_2,go,0.0,0.0,1.0,,,,,,,,,blue,cross
0.0,8.0,4.0,1.0,5.0,5.0,363.299960270524,3.0,1.0,phase_2,go,0.0,0.0,1.0,,,,,,,,,yellow,hexagon
0.0,3.0,2.0,0.0,5.0,5.0,317.268842831254,3.0,1.0,phase_2,go,0.0,0.0,1.0,,,,,,,,,white,diamond
0.0,7.0,2.0,1.0,5.0,5.0,300.6706368178129,3.0,1.0,phase_2,stop,0.0,0.0,3.0,,,,,,,,,orange,circle
0.0,7.0,2.0,1.0,6.0,6.0,565.1486814022064,3.0,1.0,phase_2,stop,0.0,0.0,3.0,,,,,,,,,orange,circle
0.0,2.0,1.0,0.0,6.0,6.0,379.9203913658857,3.0,1.0,phase_2,go,0.0,0.0,1.0,,,,,,,,,cyan,I
0.0,5.0,0.5,1.0,6.0,6.0,529.7609865665436,3.0,1.0,phase_2,stop,0.0,0.0,3.0,,,,,,,,,magenta,triangle
0.0,5.0,0.5,1.0,5.0,5.0,560.0572396069765,3.0,1.0,phase_2,stop,0.0,0.0,3.0,,,,,,,,,magenta,triangle
0.0,4.0,4.0,0.0,5.0,5.0,360.2693676948547,3.0,1.0,phase_2,go,0.0,0.0,1.0,,,,,,,,,gray,square
0.0,2.0,1.0,0.0,5.0,5.0,344.0986759960651,3.0,1.0,phase_2,go,0.0,0.0,1.0,,,,,,,,,cyan,I
0.0,7.0,2.0,1.0,5.0,5.0,533.8894221931696,3.0,1.0,phase_2,stop,0.0,0.0,3.0,,,,,,,,,orange,circle
0.0,6.0,1.0,1.0,6.0,6.0,575.8021548390388,3.0,1.0,phase_2,stop,0.0,0.0,3.0,,,,,,,,,green,flipped triangle
0.0,1.0,0.5,0.0,5.0,5.0,311.93040125072,3.0,1.0,phase_2,go,0.0,0.0,1.0,,,,,,,,,blue,cross
0.0,5.0,0.5,1.0,6.0,6.0,543.0656168609858,3.0,1.0,phase_2,stop,0.0,0.0,3.0,,,,,,,,,magenta,triangle
0.0,2.0,1.0,0.0,6.0,6.0,390.6716015189886,3.0,1.0,phase_2,go,0.0,0.0,1.0,,,,,,,,,cyan,I
0.0,5.0,0.5,1.0,5.0,5.0,293.6890516430139,3.0,1.0,phase_2,stop,0.0,0.0,3.0,,,,,,,,,magenta,triangle
0.0,1.0,0.5,0.0,5.0,5.0,454.5424114912748,3.0,1.0,phase_2,go,0.0,0.0,1.0,,,,,,,,,blue,cross
0.0,1.0,0.5,0.0,6.0,6.0,340.5192773789167,3.0,1.0,phase_2,go,0.0,0.0,1.0,,,,,,,,,blue,cross
0.0,1.0,0.5,0.0,6.0,6.0,501.18960067629814,3.0,1.0,phase_2,go,0.0,0.0,1.0,,,,,,,,,blue,cross
0.0,3.0,2.0,0.0,6.0,6.0,461.1506517976522,3.0,1.0,phase_2,go,0.0,0.0,1.0,,,,,,,,,white,diamond
0.0,3.0,2.0,0.0,6.0,6.0,323.2447393238544,3.0,1.0,phase_2,go,0.0,0.0,1.0,,,,,,,,,white,diamond
0.0,1.0,0.5,0.0,6.0,6.0,400.4693385213613,3.0,1.0,phase_2,go,0.0,0.0,1.0,,,,,,,,,blue,cross
0.0,5.0,0.5,1.0,6.0,6.0,625.1877062022686,3.0,1.0,phase_2,stop,0.0,0.0,3.0,,,,,,,,,magenta,triangle
0.0,6.0,1.0,1.0,5.0,5.0,478.9875708520412,3.0,1.0,phase_2,go,0.0,0.0,1.0,,,,,,,,,green,flipped triangle
0.0,6.0,1.0,1.0,6.0,6.0,359.3795020133257,3.0,1.0,phase_2,stop,0.0,0.0,3.0,,,,,,,,,green,flipped triangle
0.0,8.0,4.0,1.0,6.0,6.0,622.698737308383,3.0,1.0,phase_2,stop,0.0,0.0,3.0,,,,,,,,,yellow,hexagon
0.0,7.0,2.0,1.0,5.0,5.0,520.0592186301947,3.0,1.0,phase_2,stop,0.0,0.0,3.0,,,,,,,,,orange,circle
0.0,5.0,0.5,1.0,5.0,5.0,320.3819282352924,3.0,1.0,phase_2,go,0.0,0.0,1.0,,,,,,,,,magenta,triangle
0.0,3.0,2.0,0.0,6.0,6.0,412.6530736684799,3.0,1.0,phase_2,go,0.0,0.0,1.0,,,,,,,,,white,diamond
0.0,3.0,2.0,0.0,5.0,5.0,317.1552754938602,3.0,1.0,phase_2,go,0.0,0.0,1.0,,,,,,,,,white,diamond
0.0,8.0,4.0,1.0,5.0,5.0,347.7119170129299,3.0,1.0,phase_2,go,0.0,0.0,1.0,,,,,,,,,yellow,hexagon
0.0,5.0,0.5,1.0,6.0,6.0,466.252189129591,3.0,1.0,phase_2,stop,0.0,0.0,3.0,,,,,,,,,magenta,triangle
0.0,1.0,0.5,0.0,6.0,6.0,323.3840484172106,3.0,1.0,phase_2,go,0.0,0.0,1.0,,,,,,,,,blue,cross
0.0,5.0,0.5,1.0,6.0,6.0,348.1810670346021,3.0,1.0,phase_2,stop,0.0,0.0,3.0,,,,,,,,,magenta,triangle
0.0,6.0,1.0,1.0,5.0,5.0,564.9769175797701,3.0,1.0,phase_2,stop,0.0,0.0,3.0,,,,,,,,,green,flipped triangle
0.0,4.0,4.0,0.0,6.0,6.0,574.8188178986311,4.0,1.0,phase_2,go,0.0,0.0,1.0,,,,,,,,,gray,square
0.0,4.0,4.0,0.0,5.0,5.0,310.3279154747724,4.0,1.0,phase_2,go,0.0,0.0,1.0,,,,,,,,,gray,square
0.0,1.0,0.5,0.0,6.0,6.0,352.4945769459009,4.0,1.0,phase_2,go,0.0,0.0,1.0,,,,,,,,,blue,cross
0.0,6.0,1.0,1.0,6.0,6.0,420.6237141042948,4.0,1.0,phase_2,stop,0.0,0.0,3.0,,,,,,,,,green,flipped triangle
0.0,1.0,0.5,0.0,5.0,5.0,351.5905365347862,4.0,1.0,phase_2,go,0.0,0.0,1.0,,,,,,,,,blue,cross
0.0,8.0,4.0,1.0,5.0,5.0,324.9321822077036,4.0,1.0,phase_2,go,0.0,0.0,1.0,,,,,,,,,yellow,hexagon
0.0,5.0,0.5,1.0,5.0,5.0,330.7934366166591,4.0,1.0,phase_2,stop,0.0,0.0,3.0,,,,,,,,,magenta,triangle
0.0,7.0,2.0,1.0,6.0,6.0,390.5501198023557,4.0,1.0,phase_2,go,0.0,0.0,1.0,,,,,,,,,orange,circle
0.0,8.0,4.0,1.0,5.0,5.0,562.3664036393166,4.0,1.0,phase_2,stop,0.0,0.0,3.0,,,,,,,,,yellow,hexagon
0.0,2.0,1.0,0.0,5.0,5.0,417.4068346619606,4.0,1.0,phase_2,go,0.0,0.0,1.0,,,,,,,,,cyan,I
0.0,8.0,4.0,1.0,5.0,5.0,352.5949716567993,4.0,1.0,phase_2,stop,0.0,0.0,3.0,,,,,,,,,yellow,hexagon
0.0,6.0,1.0,1.0,6.0,6.0,424.2365006357431,4.0,1.0,phase_2,stop,0.0,0.0,3.0,,,,,,,,,green,flipped triangle
0.0,5.0,0.5,1.0,6.0,6.0,738.9061339199543,4.0,1.0,phase_2,stop,0.0,0.0,3.0,,,,,,,,,magenta,triangle
0.0,8.0,4.0,1.0,5.0,5.0,441.0371072590351,4.0,1.0,phase_2,go,0.0,0.0,1.0,,,,,,,,,yellow,hexagon
0.0,8.0,4.0,1.0,6.0,6.0,568.7654949724674,4.0,1.0,phase_2,stop,0.0,0.0,3.0,,,,,,,,,yellow,hexagon
0.0,5.0,0.5,1.0,5.0,5.0,486.0839042812586,4.0,1.0,phase_2,stop,0.0,0.0,3.0,,,,,,,,,magenta,triangle
0.0,6.0,1.0,1.0,6.0,6.0,528.7257134914398,4.0,1.0,phase_2,stop,0.0,0.0,3.0,,,,,,,,,green,flipped triangle
0.0,2.0,1.0,0.0,5.0,5.0,454.8677317798137,4.0,1.0,phase_2,go,0.0,0.0,1.0,,,,,,,,,cyan,I
0.0,7.0,2.0,1.0,6.0,6.0,452.4268079549074,4.0,1.0,phase_2,stop,0.0,0.0,3.0,,,,,,,,,orange,circle
0.0,4.0,4.0,0.0,6.0,6.0,413.8522055000067,4.0,1.0,phase_2,go,0.0,0.0,1.0,,,,,,,,,gray,square
0.0,2.0,1.0,0.0,5.0,5.0,413.1099600344896,4.0,1.0,phase_2,go,0.0,0.0,1.0,,,,,,,,,cyan,I
0.0,1.0,0.5,0.0,5.0,5.0,350.1439336687326,4.0,1.0,phase_2,go,0.0,0.0,1.0,,,,,,,,,blue,cross
0.0,2.0,1.0,0.0,5.0,5.0,331.1734534800052,4.0,1.0,phase_2,go,0.0,0.0,1.0,,,,,,,,,cyan,I
0.0,1.0,0.5,0.0,6.0,6.0,298.3943652361631,4.0,1.0,phase_2,go,0.0,0.0,1.0,,,,,,,,,blue,cross
0.0,4.0,4.0,0.0,5.0,5.0,369.4229125976562,4.0,1.0,phase_2,go,0.0,0.0,1.0,,,,,,,,,gray,square
0.0,2.0,1.0,0.0,6.0,6.0,314.9821441620588,4.0,1.0,phase_2,go,0.0,0.0,1.0,,,,,,,,,cyan,I
0.0,7.0,2.0,1.0,5.0,5.0,535.6055311858654,4.0,1.0,phase_2,go,0.0,0.0,1.0,,,,,,,,,orange,circle
0.0,8.0,4.0,1.0,6.0,6.0,423.4890230000019,4.0,1.0,phase_2,stop,0.0,0.0,3.0,,,,,,,,,yellow,hexagon
0.0,4.0,4.0,0.0,5.0,5.0,458.2687336951494,4.0,1.0,phase_2,go,0.0,0.0,1.0,,,,,,,,,gray,square
0.0,3.0,2.0,0.0,5.0,5.0,294.6936730295419,4.0,1.0,phase_2,go,0.0,0.0,1.0,,,,,,,,,white,diamond
0.0,6.0,1.0,1.0,5.0,5.0,335.7211351394653,4.0,1.0,phase_2,stop,0.0,0.0,3.0,,,,,,,,,green,flipped triangle
0.0,6.0,1.0,1.0,5.0,5.0,342.7878580987453,4.0,1.0,phase_2,stop,0.0,0.0,3.0,,,,,,,,,green,flipped triangle
0.0,4.0,4.0,0.0,6.0,6.0,364.8656848818064,4.0,1.0,phase_2,go,0.0,0.0,1.0,,,,,,,,,gray,square
0.0,1.0,0.5,0.0,6.0,6.0,518.651282414794,4.0,1.0,phase_2,go,0.0,0.0,1.0,,,,,,,,,blue,cross
0.0,8.0,4.0,1.0,5.0,5.0,324.8529229313135,4.0,1.0,phase_2,stop,0.0,0.0,3.0,,,,,,,,,yellow,hexagon
0.0,5.0,0.5,1.0,6.0,6.0,491.7808882892132,4.0,1.0,phase_2,stop,0.0,0.0,3.0,,,,,,,,,magenta,triangle
0.0,5.0,0.5,1.0,6.0,6.0,617.7896559238434,5.0,1.0,phase_2,stop,0.0,0.0,3.0,,,,,,,,,magenta,triangle
0.0,1.0,0.5,0.0,5.0,5.0,387.6777719706297,5.0,1.0,phase_2,go,0.0,0.0,1.0,,,,,,,,,blue,cross
0.0,2.0,1.0,0.0,5.0,5.0,385.797344148159,5.0,1.0,phase_2,go,0.0,0.0,1.0,,,,,,,,,cyan,I
0.0,8.0,4.0,1.0,6.0,6.0,499.991649761796,5.0,1.0,phase_2,stop,0.0,0.0,3.0,,,,,,,,,yellow,hexagon
0.0,5.0,0.5,1.0,5.0,5.0,403.2959248870611,5.0,1.0,phase_2,stop,0.0,0.0,3.0,,,,,,,,,magenta,triangle
0.0,3.0,2.0,0.0,6.0,6.0,304.6915661543607,5.0,1.0,phase_2,go,0.0,0.0,1.0,,,,,,,,,white,diamond
0.0,6.0,1.0,1.0,5.0,5.0,266.8564356863498,5.0,1.0,phase_2,stop,0.0,0.0,3.0,,,,,,,,,green,flipped triangle
0.0,6.0,1.0,1.0,5.0,5.0,518.6552405357361,5.0,1.0,phase_2,stop,0.0,0.0,3.0,,,,,,,,,green,flipped triangle
0.0,8.0,4.0,1.0,5.0,5.0,352.1425407379865,5.0,1.0,phase_2,go,0.0,0.0,1.0,,,,,,,,,yellow,hexagon
0.0,5.0,0.5,1.0,5.0,5.0,477.1001953631639,5.0,1.0,phase_2,stop,0.0,0.0,3.0,,,,,,,,,magenta,triangle
0.0,8.0,4.0,1.0,6.0,6.0,316.717579960823,5.0,1.0,phase_2,stop,0.0,0.0,3.0,,,,,,,,,yellow,hexagon
0.0,3.0,2.0,0.0,5.0,5.0,316.8660588562488,5.0,1.0,phase_2,go,0.0,0.0,1.0,,,,,,,,,white,diamond
0.0,5.0,0.5,1.0,6.0,6.0,340.5529260635376,5.0,1.0,phase_2,go,0.0,0.0,1.0,,,,,,,,,magenta,triangle
0.0,3.0,2.0,0.0,6.0,6.0,334.2313002794981,5.0,1.0,phase_2,go,0.0,0.0,1.0,,,,,,,,,white,diamond
0.0,7.0,2.0,1.0,6.0,6.0,362.1664755046367,5.0,1.0,phase_2,stop,0.0,0.0,3.0,,,,,,,,,orange,circle
0.0,4.0,4.0,0.0,6.0,6.0,425.7476050406694,5.0,1.0,phase_2,go,0.0,0.0,1.0,,,,,,,,,gray,square
0.0,1.0,0.5,0.0,5.0,5.0,363.158531486988,5.0,1.0,phase_2,go,0.0,0.0,1.0,,,,,,,,,blue,cross
0.0,5.0,0.5,1.0,5.0,5.0,289.6190956234932,5.0,1.0,phase_2,go,0.0,0.0,1.0,,,,,,,,,magenta,triangle
0.0,6.0,1.0,1.0,6.0,6.0,346.093587577343,5.0,1.0,phase_2,stop,0.0,0.0,3.0,,,,,,,,,green,flipped triangle
0.0,1.0,0.5,0.0,6.0,6.0,434.2518374323845,5.0,1.0,phase_2,go,0.0,0.0,1.0,,,,,,,,,blue,cross
0.0,8.0,4.0,1.0,5.0,5.0,345.6836882978678,5.0,1.0,phase_2,stop,0.0,0.0,3.0,,,,,,,,,yellow,hexagon
0.0,7.0,2.0,1.0,6.0,6.0,382.4416529387235,5.0,1.0,phase_2,stop,0.0,0.0,3.0,,,,,,,,,orange,circle
0.0,7.0,2.0,1.0,5.0,5.0,463.9669600874185,5.0,1.0,phase_2,stop,0.0,0.0,3.0,,,,,,,,,orange,circle
0.0,1.0,0.5,0.0,6.0,6.0,381.4851697534323,5.0,1.0,phase_2,go,0.0,0.0,1.0,,,,,,,,,blue,cross
0.0,2.0,1.0,0.0,6.0,6.0,327.6891391724348,5.0,1.0,phase_2,go,0.0,0.0,1.0,,,,,,,,,cyan,I
0.0,1.0,0.5,0.0,5.0,5.0,287.3117756098509,5.0,1.0,phase_2,go,0.0,0.0,1.0,,,,,,,,,blue,cross
0.0,8.0,4.0,1.0,6.0,6.0,516.6381802409887,5.0,1.0,phase_2,stop,0.0,0.0,3.0,,,,,,,,,yellow,hexagon
0.0,8.0,4.0,1.0,6.0,6.0,437.1253252029419,5.0,1.0,phase_2,stop,0.0,0.0,3.0,,,,,,,,,yellow,hexagon
0.0,7.0,2.0,1.0,6.0,6.0,354.91076670587057,5.0,1.0,phase_2,stop,0.0,0.0,3.0,,,,,,,,,orange,circle
0.0,4.0,4.0,0.0,5.0,5.0,402.0023271441459,5.0,1.0,phase_2,go,0.0,0.0,1.0,,,,,,,,,gray,square
0.0,8.0,4.0,1.0,5.0,5.0,315.6693689525127,5.0,1.0,phase_2,stop,0.0,0.0,3.0,,,,,,,,,yellow,hexagon
0.0,5.0,0.5,1.0,6.0,6.0,506.1916671693325,5.0,1.0,phase_2,go,0.0,0.0,1.0,,,,,,,,,magenta,triangle
0.0,7.0,2.0,1.0,6.0,6.0,419.4465596228838,5.0,1.0,phase_2,stop,0.0,0.0,3.0,,,,,,,,,orange,circle
0.0,6.0,1.0,1.0,5.0,5.0,376.90588273108,5.0,1.0,phase_2,stop,0.0,0.0,3.0,,,,,,,,,green,flipped triangle
0.0,8.0,4.0,1.0,5.0,5.0,345.9126465022564,5.0,1.0,phase_2,stop,0.0,0.0,3.0,,,,,,,,,yellow,hexagon
0.0,1.0,0.5,0.0,5.0,5.0,311.341417953372,5.0,1.0,phase_2,go,0.0,0.0,1.0,,,,,,,,,blue,cross
0.0,4.0,4.0,0.0,5.0,5.0,414.5237244665622,6.0,1.0,phase_2,go,0.0,0.0,1.0,,,,,,,,,gray,square
0.0,5.0,0.5,1.0,6.0,6.0,494.033956900239,6.0,1.0,phase_2,stop,0.0,0.0,3.0,,,,,,,,,magenta,triangle
0.0,6.0,1.0,1.0,5.0,5.0,364.114923402667,6.0,1.0,phase_2,go,0.0,0.0,1.0,,,,,,,,,green,flipped triangle
0.0,5.0,0.5,1.0,5.0,5.0,346.9237331300974,6.0,1.0,phase_2,stop,0.0,0.0,3.0,,,,,,,,,magenta,triangle
0.0,2.0,1.0,0.0,5.0,5.0,397.5314237177372,6.0,1.0,phase_2,go,0.0,0.0,1.0,,,,,,,,,cyan,I
0.0,4.0,4.0,0.0,6.0,6.0,347.2555987536907,6.0,1.0,phase_2,go,0.0,0.0,1.0,,,,,,,,,gray,square
0.0,3.0,2.0,0.0,6.0,6.0,315.7519642263651,6.0,1.0,phase_2,go,0.0,0.0,1.0,,,,,,,,,white,diamond
0.0,4.0,4.0,0.0,6.0,6.0,394.0923456102609,6.0,1.0,phase_2,go,0.0,0.0,1.0,,,,,,,,,gray,square
0.0,3.0,2.0,0.0,6.0,6.0,274.8825438320637,6.0,1.0,phase_2,go,0.0,0.0,1.0,,,,,,,,,white,diamond
0.0,1.0,0.5,0.0,6.0,6.0,315.2742106467485,6.0,1.0,phase_2,go,0.0,0.0,1.0,,,,,,,,,blue,cross
0.0,5.0,0.5,1.0,5.0,5.0,278.5158138722181,6.0,1.0,phase_2,stop,0.0,0.0,3.0,,,,,,,,,magenta,triangle
0.0,1.0,0.5,0.0,6.0,6.0,465.5035119503736,6.0,1.0,phase_2,go,0.0,0.0,1.0,,,,,,,,,blue,cross
0.0,3.0,2.0,0.0,6.0,6.0,336.6054110229015,6.0,1.0,phase_2,go,0.0,0.0,1.0,,,,,,,,,white,diamond
0.0,7.0,2.0,1.0,6.0,6.0,431.5562061965465,6.0,1.0,phase_2,stop,0.0,0.0,3.0,,,,,,,,,orange,circle
0.0,4.0,4.0,0.0,6.0,6.0,381.2301456928253,6.0,1.0,phase_2,go,0.0,0.0,1.0,,,,,,,,,gray,square
0.0,1.0,0.5,0.0,5.0,5.0,373.8540727645159,6.0,1.0,phase_2,go,0.0,0.0,1.0,,,,,,,,,blue,cross
0.0,7.0,2.0,1.0,5.0,5.0,388.6779099702835,6.0,1.0,phase_2,stop,0.0,0.0,3.0,,,,,,,,,orange,circle
0.0,2.0,1.0,0.0,6.0,6.0,458.8145930320024,6.0,1.0,phase_2,go,0.0,0.0,1.0,,,,,,,,,cyan,I
0.0,8.0,4.0,1.0,5.0,5.0,355.3748279809952,6.0,1.0,phase_2,stop,0.0,0.0,3.0,,,,,,,,,yellow,hexagon
0.0,4.0,4.0,0.0,6.0,6.0,533.6695108562708,6.0,1.0,phase_2,go,0.0,0.0,1.0,,,,,,,,,gray,square
0.0,5.0,0.5,1.0,5.0,5.0,376.8562823534012,6.0,1.0,phase_2,go,0.0,0.0,1.0,,,,,,,,,magenta,triangle
0.0,6.0,1.0,1.0,5.0,5.0,306.8625815212726,6.0,1.0,phase_2,stop,0.0,0.0,3.0,,,,,,,,,green,flipped triangle
0.0,6.0,1.0,1.0,6.0,6.0,473.0011038482189,6.0,1.0,phase_2,stop,0.0,0.0,3.0,,,,,,,,,green,flipped triangle
0.0,6.0,1.0,1.0,6.0,6.0,442.2462880611419,6.0,1.0,phase_2,go,0.0,0.0,1.0,,,,,,,,,green,flipped triangle
0.0,1.0,0.5,0.0,5.0,5.0,488.67017775774,6.0,1.0,phase_2,go,0.0,0.0,1.0,,,,,,,,,blue,cross
0.0,2.0,1.0,0.0,6.0,6.0,513.5835316032171,6.0,1.0,phase_2,go,0.0,0.0,1.0,,,,,,,,,cyan,I
0.0,2.0,1.0,0.0,5.0,5.0,814.2009433358908,6.0,1.0,phase_2,go,0.0,0.0,1.0,,,,,,,,,cyan,I
0.0,3.0,2.0,0.0,6.0,6.0,295.5876812338829,6.0,1.0,phase_2,go,0.0,0.0,1.0,,,,,,,,,white,diamond
0.0,3.0,2.0,0.0,6.0,6.0,302.7162831276655,6.0,1.0,phase_2,go,0.0,0.0,1.0,,,,,,,,,white,diamond
0.0,2.0,1.0,0.0,6.0,6.0,335.8984570950269,6.0,1.0,phase_2,go,0.0,0.0,1.0,,,,,,,,,cyan,I
0.0,7.0,2.0,1.0,5.0,5.0,373.0769213289022,6.0,1.0,phase_2,go,0.0,0.0,1.0,,,,,,,,,orange,circle
0.0,5.0,0.5,1.0,6.0,6.0,381.1314534395933,6.0,1.0,phase_2,stop,0.0,0.0,3.0,,,,,,,,,magenta,triangle
0.0,6.0,1.0,1.0,6.0,6.0,381.8200603127479,6.0,1.0,phase_2,go,0.0,0.0,1.0,,,,,,,,,green,flipped triangle
0.0,7.0,2.0,1.0,6.0,6.0,466.1354850977659,6.0,1.0,phase_2,go,0.0,0.0,1.0,,,,,,,,,orange,circle
0.0,8.0,4.0,1.0,6.0,6.0,441.8244361877441,6.0,1.0,phase_2,stop,0.0,0.0,3.0,,,,,,,,,yellow,hexagon
0.0,1.0,0.5,0.0,6.0,6.0,424.9885212630033,6.0,1.0,phase_2,go,0.0,0.0,1.0,,,,,,,,,blue,cross
0.0,4.0,4.0,0.0,5.0,5.0,406.1837662011385,7.0,1.0,phase_2,go,0.0,0.0,1.0,,,,,,,,,gray,square
0.0,2.0,1.0,0.0,6.0,6.0,242.08198674023149,7.0,1.0,phase_2,go,0.0,0.0,1.0,,,,,,,,,cyan,I
0.0,7.0,2.0,1.0,6.0,6.0,330.5302578955889,7.0,1.0,phase_2,stop,0.0,0.0,3.0,,,,,,,,,orange,circle
0.0,3.0,2.0,0.0,5.0,5.0,377.102268859744,7.0,1.0,phase_2,go,0.0,0.0,1.0,,,,,,,,,white,diamond
0.0,8.0,4.0,1.0,6.0,6.0,345.492148771882,7.0,1.0,phase_2,stop,0.0,0.0,3.0,,,,,,,,,yellow,hexagon
0.0,6.0,1.0,1.0,5.0,5.0,359.8995544016361,7.0,1.0,phase_2,stop,0.0,0.0,3.0,,,,,,,,,green,flipped triangle
0.0,4.0,4.0,0.0,6.0,6.0,442.3732534050941,7.0,1.0,phase_2,go,0.0,0.0,1.0,,,,,,,,,gray,square
0.0,6.0,1.0,1.0,5.0,5.0,262.8728449344635,7.0,1.0,phase_2,stop,0.0,0.0,3.0,,,,,,,,,green,flipped triangle
0.0,8.0,4.0,1.0,6.0,6.0,424.3780914694071,7.0,1.0,phase_2,stop,0.0,0.0,3.0,,,,,,,,,yellow,hexagon
0.0,5.0,0.5,1.0,6.0,6.0,313.8509597629308,7.0,1.0,phase_2,stop,0.0,0.0,3.0,,,,,,,,,magenta,triangle
0.0,2.0,1.0,0.0,5.0,5.0,348.9447180181741,7.0,1.0,phase_2,go,0.0,0.0,1.0,,,,,,,,,cyan,I
0.0,7.0,2.0,1.0,6.0,6.0,285.0320674479007,7.0,1.0,phase_2,stop,0.0,0.0,3.0,,,,,,,,,orange,circle
0.0,8.0,4.0,1.0,6.0,6.0,527.9898196458817,7.0,1.0,phase_2,stop,0.0,0.0,3.0,,,,,,,,,yellow,hexagon
0.0,8.0,4.0,1.0,5.0,5.0,478.8172747939825,7.0,1.0,phase_2,stop,0.0,0.0,3.0,,,,,,,,,yellow,hexagon
0.0,4.0,4.0,0.0,5.0,5.0,412.8328077495098,7.0,1.0,phase_2,go,0.0,0.0,1.0,,,,,,,,,gray,square
0.0,4.0,4.0,0.0,6.0,6.0,266.5826939046383,7.0,1.0,phase_2,go,0.0,0.0,1.0,,,,,,,,,gray,square
0.0,2.0,1.0,0.0,6.0,6.0,442.7365083247423,7.0,1.0,phase_2,go,0.0,0.0,1.0,,,,,,,,,cyan,I
0.0,7.0,2.0,1.0,6.0,6.0,373.1866646558046,7.0,1.0,phase_2,stop,0.0,0.0,3.0,,,,,,,,,orange,circle
0.0,3.0,2.0,0.0,5.0,5.0,483.8784970343113,7.0,1.0,phase_2,go,0.0,0.0,1.0,,,,,,,,,white,diamond
0.0,4.0,4.0,0.0,5.0,5.0,315.2749799191952,7.0,1.0,phase_2,go,0.0,0.0,1.0,,,,,,,,,gray,square
0.0,8.0,4.0,1.0,6.0,6.0,386.3263912498951,7.0,1.0,phase_2,stop,0.0,0.0,3.0,,,,,,,,,yellow,hexagon
0.0,7.0,2.0,1.0,6.0,6.0,313.2981210947037,7.0,1.0,phase_2,stop,0.0,0.0,3.0,,,,,,,,,orange,circle
0.0,8.0,4.0,1.0,6.0,6.0,303.8803283125162,7.0,1.0,phase_2,go,0.0,0.0,1.0,,,,,,,,,yellow,hexagon
0.0,3.0,2.0,0.0,5.0,5.0,286.2236518412828,7.0,1.0,phase_2,go,0.0,0.0,1.0,,,,,,,,,white,diamond
0.0,7.0,2.0,1.0,6.0,6.0,344.665328040719,7.0,1.0,phase_2,stop,0.0,0.0,3.0,,,,,,,,,orange,circle
0.0,3.0,2.0,0.0,6.0,6.0,348.7124592065811,7.0,1.0,phase_2,go,0.0,0.0,1.0,,,,,,,,,white,diamond
0.0,6.0,1.0,1.0,6.0,6.0,292.9657977074384,7.0,1.0,phase_2,go,0.0,0.0,1.0,,,,,,,,,green,flipped triangle
0.0,5.0,0.5,1.0,6.0,6.0,331.5113186836242,7.0,1.0,phase_2,stop,0.0,0.0,3.0,,,,,,,,,magenta,triangle
0.0,6.0,1.0,1.0,5.0,5.0,383.3955768495798,7.0,1.0,phase_2,stop,0.0,0.0,3.0,,,,,,,,,green,flipped triangle
0.0,4.0,4.0,0.0,5.0,5.0,636.694461107254,7.0,1.0,phase_2,go,0.0,0.0,1.0,,,,,,,,,gray,square
0.0,3.0,2.0,0.0,5.0,5.0,397.2631897777319,7.0,1.0,phase_2,go,0.0,0.0,1.0,,,,,,,,,white,diamond
0.0,5.0,0.5,1.0,5.0,5.0,370.4517967998981,7.0,1.0,phase_2,stop,0.0,0.0,3.0,,,,,,,,,magenta,triangle
0.0,3.0,2.0,0.0,6.0,6.0,417.1359948813915,7.0,1.0,phase_2,go,0.0,0.0,1.0,,,,,,,,,white,diamond
0.0,4.0,4.0,0.0,5.0,5.0,304.2325060814619,7.0,1.0,phase_2,go,0.0,0.0,1.0,,,,,,,,,gray,square
0.0,1.0,0.5,0.0,5.0,5.0,353.543421253562,7.0,1.0,phase_2,go,0.0,0.0,1.0,,,,,,,,,blue,cross
0.0,8.0,4.0,1.0,5.0,5.0,409.8612684756517,7.0,1.0,phase_2,go,0.0,0.0,1.0,,,,,,,,,yellow,hexagon
0.0,3.0,2.0,0.0,5.0,5.0,455.0640229135752,8.0,1.0,phase_2,go,0.0,0.0,1.0,,,,,,,,,white,diamond
0.0,8.0,4.0,1.0,6.0,6.0,496.8019425868988,8.0,1.0,phase_2,go,0.0,0.0,1.0,,,,,,,,,yellow,hexagon
0.0,6.0,1.0,1.0,6.0,6.0,368.8306882977485,8.0,1.0,phase_2,stop,0.0,0.0,3.0,,,,,,,,,green,flipped triangle
0.0,7.0,2.0,1.0,5.0,5.0,464.8274686187505,8.0,1.0,phase_2,stop,0.0,0.0,3.0,,,,,,,,,orange,circle
0.0,4.0,4.0,0.0,6.0,6.0,396.9111945480108,8.0,1.0,phase_2,go,0.0,0.0,1.0,,,,,,,,,gray,square
0.0,5.0,0.5,1.0,6.0,6.0,372.5275993347168,8.0,1.0,phase_2,go,0.0,0.0,1.0,,,,,,,,,magenta,triangle
0.0,6.0,1.0,1.0,5.0,5.0,462.948739528656,8.0,1.0,phase_2,stop,0.0,0.0,3.0,,,,,,,,,green,flipped triangle
0.0,5.0,0.5,1.0,5.0,5.0,522.9407548904419,8.0,1.0,phase_2,stop,0.0,0.0,3.0,,,,,,,,,magenta,triangle
0.0,5.0,0.5,1.0,5.0,5.0,419.4786511361599,8.0,1.0,phase_2,go,0.0,0.0,1.0,,,,,,,,,magenta,triangle
0.0,7.0,2.0,1.0,5.0,5.0,317.4376077950001,8.0,1.0,phase_2,stop,0.0,0.0,3.0,,,,,,,,,orange,circle
0.0,7.0,2.0,1.0,5.0,5.0,387.3062636703253,8.0,1.0,phase_2,stop,0.0,0.0,3.0,,,,,,,,,orange,circle
0.0,7.0,2.0,1.0,5.0,5.0,329.7522664070129,8.0,1.0,phase_2,stop,0.0,0.0,3.0,,,,,,,,,orange,circle
0.0,1.0,0.5,0.0,5.0,5.0,409.3953762203455,8.0,1.0,phase_2,go,0.0,0.0,1.0,,,,,,,,,blue,cross
0.0,3.0,2.0,0.0,5.0,5.0,291.4730962365865,8.0,1.0,phase_2,go,0.0,0.0,1.0,,,,,,,,,white,diamond
0.0,2.0,1.0,0.0,6.0,6.0,271.263400092721,8.0,1.0,phase_2,go,0.0,0.0,1.0,,,,,,,,,cyan,I
0.0,2.0,1.0,0.0,5.0,5.0,258.2598496228456,8.0,1.0,phase_2,go,0.0,0.0,1.0,,,,,,,,,cyan,I
0.0,5.0,0.5,1.0,5.0,5.0,312.6141857355833,8.0,1.0,phase_2,go,0.0,0.0,1.0,,,,,,,,,magenta,triangle
0.0,4.0,4.0,0.0,6.0,6.0,320.6334710121155,8.0,1.0,phase_2,go,0.0,0.0,1.0,,,,,,,,,gray,square
0.0,2.0,1.0,0.0,5.0,5.0,247.2390532493591,8.0,1.0,phase_2,go,0.0,0.0,1.0,,,,,,,,,cyan,I
0.0,7.0,2.0,1.0,5.0,5.0,295.2577136456966,8.0,1.0,phase_2,stop,0.0,0.0,3.0,,,,,,,,,orange,circle
0.0,1.0,0.5,0.0,6.0,6.0,299.6758967638016,8.0,1.0,phase_2,go,0.0,0.0,1.0,,,,,,,,,blue,cross
0.0,6.0,1.0,1.0,5.0,5.0,460.8206655830145,8.0,1.0,phase_2,stop,0.0,0.0,3.0,,,,,,,,,green,flipped triangle
0.0,1.0,0.5,0.0,6.0,6.0,417.9915711283684,8.0,1.0,phase_2,go,0.0,0.0,1.0,,,,,,,,,blue,cross
0.0,7.0,2.0,1.0,5.0,5.0,289.9001967161894,8.0,1.0,phase_2,go,0.0,0.0,1.0,,,,,,,,,orange,circle
0.0,4.0,4.0,0.0,5.0,5.0,365.3341811150312,8.0,1.0,phase_2,go,0.0,0.0,1.0,,,,,,,,,gray,square
0.0,3.0,2.0,0.0,6.0,6.0,292.3433035612106,8.0,1.0,phase_2,go,0.0,0.0,1.0,,,,,,,,,white,diamond
0.0,3.0,2.0,0.0,6.0,6.0,312.8821738064289,8.0,1.0,phase_2,go,0.0,0.0,1.0,,,,,,,,,white,diamond
0.0,2.0,1.0,0.0,5.0,5.0,266.5003091096878,8.0,1.0,phase_2,go,0.0,0.0,1.0,,,,,,,,,cyan,I
0.0,6.0,1.0,1.0,6.0,6.0,339.1513396054506,8.0,1.0,phase_2,go,0.0,0.0,1.0,,,,,,,,,green,flipped triangle
0.0,2.0,1.0,0.0,6.0,6.0,423.8194674253464,8.0,1.0,phase_2,go,0.0,0.0,1.0,,,,,,,,,cyan,I
0.0,7.0,2.0,1.0,5.0,5.0,361.7776744067669,8.0,1.0,phase_2,stop,0.0,0.0,3.0,,,,,,,,,orange,circle
0.0,7.0,2.0,1.0,6.0,6.0,391.1824040114879,8.0,1.0,phase_2,go,0.0,0.0,1.0,,,,,,,,,orange,circle
0.0,7.0,2.0,1.0,5.0,5.0,437.1794369071722,8.0,1.0,phase_2,go,0.0,0.0,1.0,,,,,,,,,orange,circle
0.0,6.0,1.0,1.0,6.0,6.0,319.7481799870729,8.0,1.0,phase_2,stop,0.0,0.0,3.0,,,,,,,,,green,flipped triangle
0.0,8.0,4.0,1.0,6.0,6.0,349.6285583823919,8.0,1.0,phase_2,stop,0.0,0.0,3.0,,,,,,,,,yellow,hexagon
0.0,2.0,1.0,0.0,6.0,6.0,299.2272730916738,8.0,1.0,phase_2,go,0.0,0.0,1.0,,,,,,,,,cyan,I
0.0,1.0,0.5,0.0,7.0,3.0,2574.652899056673,1.0,1.0,phase_3,,,,,234.0,6.0,78.0,195.0,234.0,117.0,156.0,39.0,blue,cross
0.0,4.0,4.0,0.0,7.0,2.0,1815.544718876481,1.0,1.0,phase_3,,,,,34.0,1.0,68.0,34.0,136.0,102.0,170.0,204.0,gray,square
0.0,8.0,4.0,1.0,7.0,6.0,2033.7830353528261,1.0,1.0,phase_3,,,,,220.0,5.0,264.0,176.0,44.0,132.0,88.0,220.0,yellow,hexagon
0.0,6.0,1.0,1.0,7.0,1.0,2298.284849151969,1.0,1.0,phase_3,,,,,264.0,6.0,264.0,132.0,220.0,44.0,88.0,176.0,green,flipped triangle
0.0,5.0,0.5,1.0,7.0,3.0,1633.0692917108536,1.0,1.0,phase_3,,,,,170.0,5.0,68.0,204.0,170.0,136.0,34.0,102.0,magenta,triangle
0.0,2.0,1.0,0.0,7.0,4.0,2251.4590490609407,1.0,1.0,phase_3,,,,,147.0,3.0,294.0,196.0,98.0,147.0,49.0,245.0,cyan,I
0.0,2.0,1.0,0.0,7.0,6.0,1766.4119992405176,1.0,1.0,phase_3,,,,,132.0,3.0,176.0,44.0,264.0,220.0,88.0,132.0,cyan,I
0.0,6.0,1.0,1.0,7.0,3.0,1815.129678696394,1.0,1.0,phase_3,,,,,204.0,6.0,102.0,170.0,204.0,136.0,34.0,68.0,green,flipped triangle
0.0,7.0,2.0,1.0,7.0,6.0,1950.3104574978352,1.0,1.0,phase_3,,,,,176.0,4.0,44.0,88.0,220.0,264.0,132.0,176.0,orange,circle
0.0,6.0,1.0,1.0,7.0,2.0,1688.6272113770249,1.0,1.0,phase_3,,,,,294.0,6.0,98.0,294.0,49.0,245.0,196.0,147.0,green,flipped triangle
0.0,8.0,4.0,1.0,7.0,5.0,1651.032006368041,1.0,1.0,phase_3,,,,,216.0,4.0,54.0,162.0,108.0,270.0,216.0,324.0,yellow,hexagon
0.0,8.0,4.0,1.0,7.0,6.0,1605.7067308574915,1.0,1.0,phase_3,,,,,204.0,6.0,170.0,68.0,102.0,136.0,34.0,204.0,yellow,hexagon
0.0,7.0,2.0,1.0,7.0,1.0,1942.5580855458973,1.0,1.0,phase_3,,,,,270.0,5.0,270.0,54.0,162.0,216.0,108.0,324.0,orange,circle
0.0,6.0,1.0,1.0,7.0,5.0,1733.0811601132154,1.0,1.0,phase_3,,,,,156.0,4.0,117.0,195.0,78.0,234.0,156.0,39.0,green,flipped triangle
0.0,5.0,0.5,1.0,7.0,4.0,2135.4018729180098,1.0,1.0,phase_3,,,,,176.0,4.0,264.0,220.0,132.0,176.0,88.0,44.0,magenta,triangle
0.0,4.0,4.0,0.0,7.0,5.0,1824.7534539550545,1.0,1.0,phase_3,,,,,49.0,1.0,245.0,147.0,294.0,196.0,49.0,98.0,gray,square
0.0,1.0,0.5,0.0,7.0,2.0,1953.566471114755,1.0,1.0,phase_3,,,,,108.0,2.0,162.0,108.0,216.0,270.0,324.0,54.0,blue,cross
0.0,8.0,4.0,1.0,7.0,4.0,2325.791656970978,1.0,1.0,phase_3,,,,,234.0,6.0,78.0,195.0,117.0,234.0,156.0,39.0,yellow,hexagon
0.0,5.0,0.5,1.0,7.0,3.0,2405.0654247403145,1.0,1.0,phase_3,,,,,216.0,4.0,324.0,270.0,216.0,162.0,108.0,54.0,magenta,triangle
0.0,6.0,1.0,1.0,7.0,5.0,1567.5903111696243,1.0,1.0,phase_3,,,,,234.0,6.0,195.0,78.0,117.0,156.0,234.0,39.0,green,flipped triangle
0.0,4.0,4.0,0.0,7.0,6.0,1000.5938466638329,2.0,1.0,phase_3,,,,,34.0,1.0,136.0,170.0,204.0,102.0,68.0,34.0,gray,square
0.0,1.0,0.5,0.0,7.0,5.0,1783.6955077946186,2.0,1.0,phase_3,,,,,108.0,2.0,270.0,216.0,162.0,54.0,108.0,324.0,blue,cross
0.0,7.0,2.0,1.0,7.0,3.0,1641.090391203761,2.0,1.0,phase_3,,,,,264.0,6.0,176.0,220.0,264.0,88.0,132.0,44.0,orange,circle
0.0,3.0,2.0,0.0,7.0,5.0,1357.3620580136776,2.0,1.0,phase_3,,,,,78.0,2.0,195.0,39.0,156.0,234.0,78.0,117.0,white,diamond
0.0,4.0,4.0,0.0,7.0,4.0,2084.310347214341,2.0,1.0,phase_3,,,,,39.0,1.0,234.0,78.0,195.0,39.0,117.0,156.0,gray,square
0.0,3.0,2.0,0.0,7.0,5.0,998.5343273729086,2.0,1.0,phase_3,,,,,68.0,2.0,102.0,170.0,204.0,34.0,68.0,136.0,white,diamond
0.0,1.0,0.5,0.0,7.0,4.0,2343.0248983204365,2.0,1.0,phase_3,,,,,176.0,4.0,88.0,220.0,264.0,176.0,44.0,132.0,blue,cross
0.0,5.0,0.5,1.0,7.0,5.0,2295.8734426647425,2.0,1.0,phase_3,,,,,170.0,5.0,34.0,102.0,136.0,68.0,170.0,204.0,magenta,triangle
0.0,7.0,2.0,1.0,7.0,1.0,1580.5580411106348,2.0,1.0,phase_3,,,,,234.0,6.0,234.0,39.0,156.0,78.0,195.0,117.0,orange,circle
0.0,1.0,0.5,0.0,7.0,4.0,1554.7055304050446,2.0,1.0,phase_3,,,,,196.0,4.0,98.0,245.0,294.0,196.0,49.0,147.0,blue,cross
0.0,7.0,2.0,1.0,7.0,1.0,1391.433384269476,2.0,1.0,phase_3,,,,,204.0,6.0,204.0,136.0,34.0,170.0,68.0,102.0,orange,circle
0.0,3.0,2.0,0.0,7.0,5.0,1236.4033870398998,2.0,1.0,phase_3,,,,,108.0,2.0,162.0,270.0,54.0,216.0,108.0,324.0,white,diamond
0.0,4.0,4.0,0.0,7.0,2.0,710.1439703255892,2.0,1.0,phase_3,,,,,39.0,1.0,156.0,39.0,78.0,117.0,195.0,234.0,gray,square
0.0,8.0,4.0,1.0,7.0,3.0,1777.3651480674744,2.0,1.0,phase_3,,,,,204.0,6.0,102.0,68.0,204.0,34.0,136.0,170.0,yellow,hexagon
0.0,7.0,2.0,1.0,7.0,6.0,2416.472410783172,2.0,1.0,phase_3,,,,,204.0,6.0,170.0,34.0,68.0,136.0,102.0,204.0,orange,circle
0.0,6.0,1.0,1.0,7.0,1.0,1316.856062039733,2.0,1.0,phase_3,,,,,132.0,3.0,132.0,264.0,176.0,88.0,220.0,44.0,green,flipped triangle
0.0,2.0,1.0,0.0,7.0,5.0,1685.7991721481085,2.0,1.0,phase_3,,,,,34.0,1.0,170.0,204.0,68.0,102.0,34.0,136.0,cyan,I
0.0,2.0,1.0,0.0,7.0,2.0,2360.866876319051,2.0,1.0,phase_3,,,,,108.0,2.0,324.0,108.0,216.0,270.0,162.0,54.0,cyan,I
0.0,1.0,0.5,0.0,7.0,3.0,1678.2946176826954,2.0,1.0,phase_3,,,,,117.0,3.0,156.0,234.0,117.0,78.0,39.0,195.0,blue,cross
0.0,3.0,2.0,0.0,7.0,5.0,1897.8361580520868,2.0,1.0,phase_3,,,,,132.0,3.0,176.0,264.0,44.0,88.0,132.0,220.0,white,diamond
0.0,2.0,1.0,0.0,7.0,5.0,1808.3504773676395,3.0,1.0,phase_3,,,,,117.0,3.0,156.0,234.0,195.0,78.0,117.0,39.0,cyan,I
0.0,4.0,4.0,0.0,7.0,1.0,829.8060726374388,3.0,1.0,phase_3,,,,,44.0,1.0,44.0,132.0,176.0,220.0,88.0,264.0,gray,square
0.0,4.0,4.0,0.0,7.0,5.0,1285.1689253002403,3.0,1.0,phase_3,,,,,54.0,1.0,324.0,108.0,270.0,162.0,54.0,216.0,gray,square
0.0,3.0,2.0,0.0,7.0,4.0,1358.9822482317686,3.0,1.0,phase_3,,,,,98.0,2.0,49.0,196.0,294.0,98.0,245.0,147.0,white,diamond
0.0,4.0,4.0,0.0,7.0,3.0,1408.3498679101467,3.0,1.0,phase_3,,,,,44.0,1.0,176.0,132.0,44.0,220.0,88.0,264.0,gray,square
0.0,8.0,4.0,1.0,7.0,1.0,1427.529064938426,3.0,1.0,phase_3,,,,,294.0,6.0,294.0,245.0,98.0,196.0,147.0,49.0,yellow,hexagon
0.0,1.0,0.5,0.0,7.0,5.0,1281.3024129718542,3.0,1.0,phase_3,,,,,170.0,5.0,204.0,34.0,102.0,136.0,170.0,68.0,blue,cross
0.0,2.0,1.0,0.0,7.0,3.0,2236.9069643318653,3.0,1.0,phase_3,,,,,162.0,3.0,216.0,324.0,162.0,54.0,270.0,108.0,cyan,I
0.0,8.0,4.0,1.0,7.0,3.0,1308.1939034163952,3.0,1.0,phase_3,,,,,294.0,6.0,147.0,245.0,294.0,196.0,49.0,98.0,yellow,hexagon
0.0,2.0,1.0,0.0,7.0,1.0,2078.86815816164,3.0,1.0,phase_3,,,,,147.0,3.0,147.0,196.0,49.0,245.0,98.0,294.0,cyan,I
0.0,2.0,1.0,0.0,7.0,5.0,1831.768145784736,3.0,1.0,phase_3,,,,,170.0,5.0,102.0,68.0,34.0,136.0,170.0,204.0,cyan,I
0.0,3.0,2.0,0.0,7.0,5.0,1680.2564095705748,3.0,1.0,phase_3,,,,,68.0,2.0,204.0,170.0,136.0,102.0,68.0,34.0,white,diamond
0.0,7.0,2.0,1.0,7.0,4.0,1672.7312114089727,3.0,1.0,phase_3,,,,,294.0,6.0,147.0,245.0,49.0,294.0,98.0,196.0,orange,circle
0.0,5.0,0.5,1.0,7.0,4.0,2274.441050365567,3.0,1.0,phase_3,,,,,216.0,4.0,270.0,162.0,108.0,216.0,324.0,54.0,magenta,triangle
0.0,5.0,0.5,1.0,7.0,3.0,1884.0018454939127,3.0,1.0,phase_3,,,,,195.0,5.0,117.0,39.0,195.0,234.0,78.0,156.0,magenta,triangle
0.0,7.0,2.0,1.0,7.0,1.0,1862.2185811400411,3.0,1.0,phase_3,,,,,234.0,6.0,234.0,78.0,195.0,39.0,117.0,156.0,orange,circle
0.0,5.0,0.5,1.0,7.0,5.0,1921.5821232646704,3.0,1.0,phase_3,,,,,220.0,5.0,176.0,44.0,264.0,132.0,220.0,88.0,magenta,triangle
0.0,5.0,0.5,1.0,7.0,3.0,2743.7535282224417,3.0,1.0,phase_3,,,,,147.0,3.0,196.0,294.0,147.0,98.0,49.0,245.0,magenta,triangle
0.0,7.0,2.0,1.0,7.0,3.0,2044.4505885243416,3.0,1.0,phase_3,,,,,245.0,5.0,147.0,49.0,245.0,294.0,98.0,196.0,orange,circle
0.0,3.0,2.0,0.0,7.0,3.0,1059.924691915512,3.0,1.0,phase_3,,,,,78.0,2.0,156.0,117.0,78.0,39.0,195.0,234.0,white,diamond
0.0,6.0,1.0,1.0,7.0,5.0,1638.5298166424036,4.0,1.0,phase_3,,,,,216.0,4.0,270.0,108.0,54.0,324.0,216.0,162.0,green,flipped triangle
0.0,3.0,2.0,0.0,7.0,1.0,1034.8627679049969,4.0,1.0,phase_3,,,,,88.0,2.0,88.0,264.0,176.0,220.0,132.0,44.0,white,diamond
0.0,6.0,1.0,1.0,7.0,5.0,1772.231878712773,4.0,1.0,phase_3,,,,,170.0,5.0,136.0,68.0,34.0,102.0,170.0,204.0,green,flipped triangle
0.0,6.0,1.0,1.0,7.0,4.0,1467.3341419547796,4.0,1.0,phase_3,,,,,196.0,4.0,49.0,98.0,245.0,196.0,147.0,294.0,green,flipped triangle
0.0,8.0,4.0,1.0,7.0,2.0,1279.758496209979,4.0,1.0,phase_3,,,,,234.0,6.0,39.0,234.0,156.0,195.0,117.0,78.0,yellow,hexagon
0.0,5.0,0.5,1.0,7.0,6.0,1664.7840794175863,4.0,1.0,phase_3,,,,,195.0,5.0,117.0,78.0,39.0,156.0,234.0,195.0,magenta,triangle
0.0,6.0,1.0,1.0,7.0,1.0,1048.0614230036736,4.0,1.0,phase_3,,,,,162.0,3.0,162.0,270.0,108.0,324.0,54.0,216.0,green,flipped triangle
0.0,2.0,1.0,0.0,7.0,5.0,2483.5736639797688,4.0,1.0,phase_3,,,,,117.0,3.0,39.0,234.0,78.0,156.0,117.0,195.0,cyan,I
0.0,1.0,0.5,0.0,7.0,1.0,1985.6670834124088,4.0,1.0,phase_3,,,,,176.0,4.0,176.0,132.0,44.0,264.0,220.0,88.0,blue,cross
0.0,2.0,1.0,0.0,7.0,6.0,1564.1248300671575,4.0,1.0,phase_3,,,,,132.0,3.0,264.0,88.0,220.0,176.0,44.0,132.0,cyan,I
0.0,4.0,4.0,0.0,7.0,6.0,2807.029519230128,4.0,1.0,phase_3,,,,,49.0,1.0,294.0,147.0,196.0,98.0,245.0,49.0,gray,square
0.0,3.0,2.0,0.0,7.0,6.0,1553.6440648138523,4.0,1.0,phase_3,,,,,98.0,2.0,196.0,294.0,245.0,49.0,147.0,98.0,white,diamond
0.0,1.0,0.5,0.0,7.0,1.0,2122.357040643692,4.0,1.0,phase_3,,,,,147.0,3.0,147.0,196.0,245.0,294.0,49.0,98.0,blue,cross
0.0,3.0,2.0,0.0,7.0,4.0,2819.834806025028,4.0,1.0,phase_3,,,,,54.0,1.0,324.0,216.0,270.0,54.0,162.0,108.0,white,diamond
0.0,8.0,4.0,1.0,7.0,4.0,2413.318457081914,4.0,1.0,phase_3,,,,,220.0,5.0,44.0,132.0,88.0,220.0,176.0,264.0,yellow,hexagon
0.0,8.0,4.0,1.0,7.0,2.0,1779.37638387084,4.0,1.0,phase_3,,,,,270.0,5.0,54.0,270.0,324.0,216.0,162.0,108.0,yellow,hexagon
0.0,7.0,2.0,1.0,7.0,5.0,1773.666748777032,4.0,1.0,phase_3,,,,,216.0,4.0,108.0,162.0,270.0,54.0,216.0,324.0,orange,circle
0.0,5.0,0.5,1.0,7.0,5.0,1855.4716426879168,4.0,1.0,phase_3,,,,,245.0,5.0,49.0,294.0,98.0,147.0,245.0,196.0,magenta,triangle
0.0,4.0,4.0,0.0,7.0,4.0,1168.2949401438236,4.0,1.0,phase_3,,,,,54.0,1.0,324.0,162.0,216.0,54.0,108.0,270.0,gray,square
0.0,1.0,0.5,0.0,7.0,2.0,1027.8348997235298,4.0,1.0,phase_3,,,,,34.0,1.0,204.0,34.0,68.0,136.0,102.0,170.0,blue,cross
