raw_reward_magnitude,stim_reward,stepwise_reward_magnitude,paired_with_stopping,stim_location,response,reaction_time,block,num_trial_presentations,which_phase,stop_signal_trial_type,left_SSD,right_SSD,accuracy,chosen_bidding_amount,chosen_bidding_level,possible_bid_1,possible_bid_2,possible_bid_3,possible_bid_4,possible_bid_5,possible_bid_6,color_text,shape_text
392.0,4.0,4.0,0.0,4.0,4.0,557.828038930893,1.0,1.0,phase_1,,,,,,,,,,,,,white,hexagon
199.0,3.0,2.0,0.0,1.0,1.0,581.695357337594,1.0,1.0,phase_1,,,,,,,,,,,,,green,triangle
0.0,6.0,0.0,1.0,4.0,4.0,583.0295458436012,1.0,1.0,phase_1,,,,,,,,,,,,,gray,cross
394.0,8.0,4.0,1.0,2.0,2.0,548.7698689103127,1.0,1.0,phase_1,,,,,,,,,,,,,yellow,circle
219.0,7.0,2.0,1.0,4.0,4.0,456.1169426888227,1.0,1.0,phase_1,,,,,,,,,,,,,cyan,diamond
84.0,2.0,1.0,0.0,3.0,3.0,500.6688479334116,1.0,1.0,phase_1,,,,,,,,,,,,,blue,square
0.0,3.0,0.0,0.0,4.0,4.0,547.4355537444353,1.0,1.0,phase_1,,,,,,,,,,,,,green,triangle
84.0,6.0,1.0,1.0,1.0,1.0,441.1775823682546,1.0,1.0,phase_1,,,,,,,,,,,,,gray,cross
188.0,3.0,2.0,0.0,4.0,4.0,364.6484706550836,1.0,1.0,phase_1,,,,,,,,,,,,,green,triangle
119.0,2.0,1.0,0.0,2.0,2.0,338.878933340311,1.0,1.0,phase_1,,,,,,,,,,,,,blue,square
60.0,5.0,0.5,1.0,2.0,2.0,428.636310622096,1.0,1.0,phase_1,,,,,,,,,,,,,magenta,flipped triangle
94.0,6.0,1.0,1.0,3.0,3.0,400.3644660115242,1.0,1.0,phase_1,,,,,,,,,,,,,gray,cross
36.0,5.0,0.5,1.0,2.0,2.0,390.263007953763,1.0,1.0,phase_1,,,,,,,,,,,,,magenta,flipped triangle
178.0,7.0,2.0,1.0,4.0,4.0,482.2821542620659,1.0,1.0,phase_1,,,,,,,,,,,,,cyan,diamond
57.0,5.0,0.5,1.0,4.0,4.0,465.5908904969692,1.0,1.0,phase_1,,,,,,,,,,,,,magenta,flipped triangle
44.0,5.0,0.5,1.0,3.0,3.0,563.547920435667,1.0,1.0,phase_1,,,,,,,,,,,,,magenta,flipped triangle
35.0,5.0,0.5,1.0,4.0,4.0,503.9712116122246,1.0,1.0,phase_1,,,,,,,,,,,,,magenta,flipped triangle
57.0,1.0,0.5,0.0,1.0,1.0,518.9027320593596,1.0,1.0,phase_1,,,,,,,,,,,,,orange,I
398.0,4.0,4.0,0.0,3.0,3.0,420.7192100584507,1.0,1.0,phase_1,,,,,,,,,,,,,white,hexagon
118.0,6.0,1.0,1.0,1.0,1.0,718.981483951211,1.0,1.0,phase_1,,,,,,,,,,,,,gray,cross
0.0,6.0,0.0,1.0,1.0,1.0,523.4303567558527,1.0,1.0,phase_1,,,,,,,,,,,,,gray,cross
0.0,5.0,0.0,1.0,1.0,1.0,481.2611322849989,1.0,1.0,phase_1,,,,,,,,,,,,,magenta,flipped triangle
69.0,1.0,0.5,0.0,4.0,4.0,486.079728230834,1.0,1.0,phase_1,,,,,,,,,,,,,orange,I
0.0,6.0,0.0,1.0,4.0,4.0,427.7658127248287,1.0,1.0,phase_1,,,,,,,,,,,,,gray,cross
405.0,4.0,4.0,0.0,2.0,2.0,391.3863021880388,1.0,1.0,phase_1,,,,,,,,,,,,,white,hexagon
222.0,3.0,2.0,0.0,2.0,2.0,298.9681959152221,1.0,1.0,phase_1,,,,,,,,,,,,,green,triangle
381.0,4.0,4.0,0.0,3.0,3.0,502.97041423618793,1.0,1.0,phase_1,,,,,,,,,,,,,white,hexagon
90.0,2.0,1.0,0.0,3.0,3.0,501.93437933921814,1.0,1.0,phase_1,,,,,,,,,,,,,blue,square
0.0,8.0,0.0,1.0,3.0,3.0,497.4189717322588,1.0,1.0,phase_1,,,,,,,,,,,,,yellow,circle
0.0,1.0,0.0,0.0,2.0,2.0,422.8109549731016,1.0,1.0,phase_1,,,,,,,,,,,,,orange,I
32.0,1.0,0.5,0.0,3.0,3.0,457.7648844569921,1.0,1.0,phase_1,,,,,,,,,,,,,orange,I
219.0,3.0,2.0,0.0,1.0,1.0,472.7620761841535,1.0,1.0,phase_1,,,,,,,,,,,,,green,triangle
29.0,5.0,0.5,1.0,3.0,3.0,355.2013039588928,1.0,1.0,phase_1,,,,,,,,,,,,,magenta,flipped triangle
88.0,2.0,1.0,0.0,2.0,2.0,538.5848861187696,1.0,1.0,phase_1,,,,,,,,,,,,,blue,square
184.0,7.0,2.0,1.0,4.0,4.0,613.3086197078228,1.0,1.0,phase_1,,,,,,,,,,,,,cyan,diamond
383.0,8.0,4.0,1.0,2.0,2.0,296.9229388982057,1.0,1.0,phase_1,,,,,,,,,,,,,yellow,circle
59.0,1.0,0.5,0.0,2.0,2.0,376.6079973429441,1.0,1.0,phase_1,,,,,,,,,,,,,orange,I
0.0,4.0,0.0,0.0,3.0,3.0,446.8218460679054,1.0,1.0,phase_1,,,,,,,,,,,,,white,hexagon
0.0,7.0,0.0,1.0,4.0,4.0,423.7278923392296,1.0,1.0,phase_1,,,,,,,,,,,,,cyan,diamond
425.0,8.0,4.0,1.0,4.0,4.0,583.9577168226242,1.0,1.0,phase_1,,,,,,,,,,,,,yellow,circle
0.0,2.0,0.0,0.0,1.0,1.0,681.0136362910271,1.0,1.0,phase_1,,,,,,,,,,,,,blue,square
56.0,1.0,0.5,0.0,3.0,3.0,449.6304281055927,1.0,1.0,phase_1,,,,,,,,,,,,,orange,I
385.0,8.0,4.0,1.0,3.0,3.0,438.0523432046175,1.0,1.0,phase_1,,,,,,,,,,,,,yellow,circle
209.0,3.0,2.0,0.0,2.0,2.0,386.0776647925377,1.0,1.0,phase_1,,,,,,,,,,,,,green,triangle
118.0,6.0,1.0,1.0,4.0,4.0,387.1242646127939,1.0,1.0,phase_1,,,,,,,,,,,,,gray,cross
73.0,1.0,0.5,0.0,4.0,4.0,458.2823812961578,1.0,1.0,phase_1,,,,,,,,,,,,,orange,I
92.0,6.0,1.0,1.0,3.0,3.0,446.8846786767244,1.0,1.0,phase_1,,,,,,,,,,,,,gray,cross
408.0,4.0,4.0,0.0,1.0,1.0,418.7484811991453,1.0,1.0,phase_1,,,,,,,,,,,,,white,hexagon
197.0,3.0,2.0,0.0,1.0,1.0,608.981067314744,1.0,1.0,phase_1,,,,,,,,,,,,,green,triangle
89.0,6.0,1.0,1.0,2.0,2.0,341.0737961530685,1.0,1.0,phase_1,,,,,,,,,,,,,gray,cross
30.0,1.0,0.5,0.0,3.0,3.0,503.52577306330204,1.0,1.0,phase_1,,,,,,,,,,,,,orange,I
193.0,3.0,2.0,0.0,1.0,1.0,408.1788770854473,1.0,1.0,phase_1,,,,,,,,,,,,,green,triangle
35.0,1.0,0.5,0.0,2.0,2.0,395.3861277550459,1.0,1.0,phase_1,,,,,,,,,,,,,orange,I
377.0,4.0,4.0,0.0,1.0,1.0,485.9746284782886,1.0,1.0,phase_1,,,,,,,,,,,,,white,hexagon
0.0,4.0,0.0,0.0,1.0,1.0,442.0905970036983,1.0,1.0,phase_1,,,,,,,,,,,,,white,hexagon
32.0,5.0,0.5,1.0,2.0,2.0,400.5144648253917,1.0,1.0,phase_1,,,,,,,,,,,,,magenta,flipped triangle
0.0,1.0,0.0,0.0,4.0,4.0,659.7032155841589,1.0,1.0,phase_1,,,,,,,,,,,,,orange,I
184.0,3.0,2.0,0.0,4.0,4.0,467.3737790435552,1.0,1.0,phase_1,,,,,,,,,,,,,green,triangle
59.0,5.0,0.5,1.0,2.0,2.0,445.2066626399755,1.0,1.0,phase_1,,,,,,,,,,,,,magenta,flipped triangle
425.0,4.0,4.0,0.0,3.0,3.0,420.7293447107076,1.0,1.0,phase_1,,,,,,,,,,,,,white,hexagon
123.0,6.0,1.0,1.0,2.0,2.0,414.0502493828535,1.0,1.0,phase_1,,,,,,,,,,,,,gray,cross
94.0,2.0,1.0,0.0,1.0,1.0,452.4455685168504,1.0,1.0,phase_1,,,,,,,,,,,,,blue,square
380.0,4.0,4.0,0.0,1.0,1.0,402.6781469583511,1.0,1.0,phase_1,,,,,,,,,,,,,white,hexagon
31.0,5.0,0.5,1.0,4.0,4.0,422.5980453193187,1.0,1.0,phase_1,,,,,,,,,,,,,magenta,flipped triangle
0.0,5.0,0.0,1.0,2.0,2.0,354.8564799129963,1.0,1.0,phase_1,,,,,,,,,,,,,magenta,flipped triangle
120.0,6.0,1.0,1.0,3.0,3.0,470.7354977726936,1.0,1.0,phase_1,,,,,,,,,,,,,gray,cross
121.0,6.0,1.0,1.0,3.0,3.0,562.7329405397177,1.0,1.0,phase_1,,,,,,,,,,,,,gray,cross
83.0,6.0,1.0,1.0,2.0,2.0,311.2853076308965,1.0,1.0,phase_1,,,,,,,,,,,,,gray,cross
73.0,1.0,0.5,0.0,1.0,1.0,485.0325435400009,1.0,1.0,phase_1,,,,,,,,,,,,,orange,I
110.0,6.0,1.0,1.0,1.0,1.0,570.5895572900772,1.0,1.0,phase_1,,,,,,,,,,,,,gray,cross
108.0,6.0,1.0,1.0,3.0,3.0,536.1581835895777,1.0,1.0,phase_1,,,,,,,,,,,,,gray,cross
221.0,3.0,2.0,0.0,3.0,3.0,506.23219832777977,1.0,1.0,phase_1,,,,,,,,,,,,,green,triangle
220.0,3.0,2.0,0.0,3.0,3.0,390.371385961771,1.0,1.0,phase_1,,,,,,,,,,,,,green,triangle
94.0,2.0,1.0,0.0,1.0,1.0,478.9275787770748,1.0,1.0,phase_1,,,,,,,,,,,,,blue,square
0.0,6.0,0.0,1.0,4.0,4.0,416.4500124752521,1.0,1.0,phase_1,,,,,,,,,,,,,gray,cross
0.0,1.0,0.0,0.0,4.0,4.0,501.4795660972595,1.0,1.0,phase_1,,,,,,,,,,,,,orange,I
83.0,6.0,1.0,1.0,4.0,4.0,396.9522975385189,1.0,1.0,phase_1,,,,,,,,,,,,,gray,cross
96.0,6.0,1.0,1.0,4.0,4.0,449.8895183205604,1.0,1.0,phase_1,,,,,,,,,,,,,gray,cross
39.0,5.0,0.5,1.0,1.0,1.0,507.50073604285717,1.0,1.0,phase_1,,,,,,,,,,,,,magenta,flipped triangle
194.0,7.0,2.0,1.0,3.0,3.0,665.8054031431675,1.0,1.0,phase_1,,,,,,,,,,,,,cyan,diamond
377.0,4.0,4.0,0.0,2.0,2.0,468.1212324649095,1.0,1.0,phase_1,,,,,,,,,,,,,white,hexagon
215.0,3.0,2.0,0.0,2.0,2.0,378.6940108984709,1.0,1.0,phase_1,,,,,,,,,,,,,green,triangle
422.0,8.0,4.0,1.0,2.0,2.0,457.0032134652138,1.0,1.0,phase_1,,,,,,,,,,,,,yellow,circle
412.0,4.0,4.0,0.0,4.0,4.0,514.8152858018875,1.0,1.0,phase_1,,,,,,,,,,,,,white,hexagon
55.0,5.0,0.5,1.0,2.0,2.0,375.6381925195455,1.0,1.0,phase_1,,,,,,,,,,,,,magenta,flipped triangle
407.0,4.0,4.0,0.0,3.0,3.0,476.5400234609842,1.0,1.0,phase_1,,,,,,,,,,,,,white,hexagon
109.0,6.0,1.0,1.0,3.0,3.0,433.7817560881376,1.0,1.0,phase_1,,,,,,,,,,,,,gray,cross
177.0,3.0,2.0,0.0,3.0,3.0,439.3116142600775,1.0,1.0,phase_1,,,,,,,,,,,,,green,triangle
61.0,1.0,0.5,0.0,4.0,4.0,419.4558523595333,1.0,1.0,phase_1,,,,,,,,,,,,,orange,I
0.0,4.0,0.0,0.0,2.0,2.0,320.2999290078878,1.0,1.0,phase_1,,,,,,,,,,,,,white,hexagon
0.0,4.0,0.0,0.0,2.0,2.0,355.1201000809669,1.0,1.0,phase_1,,,,,,,,,,,,,white,hexagon
218.0,7.0,2.0,1.0,1.0,1.0,456.760048866272,1.0,1.0,phase_1,,,,,,,,,,,,,cyan,diamond
183.0,3.0,2.0,0.0,4.0,4.0,564.315915107727,1.0,1.0,phase_1,,,,,,,,,,,,,green,triangle
205.0,7.0,2.0,1.0,2.0,2.0,331.5929044038057,1.0,1.0,phase_1,,,,,,,,,,,,,cyan,diamond
180.0,7.0,2.0,1.0,4.0,4.0,385.661656036973,1.0,1.0,phase_1,,,,,,,,,,,,,cyan,diamond
43.0,5.0,0.5,1.0,1.0,1.0,356.3369307667017,1.0,1.0,phase_1,,,,,,,,,,,,,magenta,flipped triangle
417.0,8.0,4.0,1.0,4.0,4.0,562.3594243079424,1.0,1.0,phase_1,,,,,,,,,,,,,yellow,circle
389.0,8.0,4.0,1.0,3.0,3.0,396.8581967055797,1.0,1.0,phase_1,,,,,,,,,,,,,yellow,circle
407.0,8.0,4.0,1.0,4.0,4.0,474.9746061861515,1.0,1.0,phase_1,,,,,,,,,,,,,yellow,circle
194.0,3.0,2.0,0.0,1.0,1.0,485.098110511899,1.0,1.0,phase_1,,,,,,,,,,,,,green,triangle
216.0,3.0,2.0,0.0,3.0,3.0,516.3939613848925,2.0,1.0,phase_1,,,,,,,,,,,,,green,triangle
28.0,5.0,0.5,1.0,1.0,1.0,473.7217277288437,2.0,1.0,phase_1,,,,,,,,,,,,,magenta,flipped triangle
185.0,7.0,2.0,1.0,3.0,3.0,367.4806151539087,2.0,1.0,phase_1,,,,,,,,,,,,,cyan,diamond
420.0,8.0,4.0,1.0,4.0,4.0,466.512331739068,2.0,1.0,phase_1,,,,,,,,,,,,,yellow,circle
208.0,7.0,2.0,1.0,3.0,3.0,377.5106240063905,2.0,1.0,phase_1,,,,,,,,,,,,,cyan,diamond
74.0,5.0,0.5,1.0,1.0,1.0,355.3947396576404,2.0,1.0,phase_1,,,,,,,,,,,,,magenta,flipped triangle
0.0,7.0,0.0,1.0,2.0,2.0,411.6222243756056,2.0,1.0,phase_1,,,,,,,,,,,,,cyan,diamond
53.0,1.0,0.5,0.0,1.0,1.0,477.1190639585256,2.0,1.0,phase_1,,,,,,,,,,,,,orange,I
421.0,4.0,4.0,0.0,4.0,4.0,411.7363784462213,2.0,1.0,phase_1,,,,,,,,,,,,,white,hexagon
184.0,3.0,2.0,0.0,3.0,3.0,426.5774693340063,2.0,1.0,phase_1,,,,,,,,,,,,,green,triangle
394.0,8.0,4.0,1.0,1.0,1.0,468.0240359157324,2.0,1.0,phase_1,,,,,,,,,,,,,yellow,circle
207.0,7.0,2.0,1.0,2.0,2.0,433.5662722587585,2.0,1.0,phase_1,,,,,,,,,,,,,cyan,diamond
202.0,7.0,2.0,1.0,2.0,2.0,373.1155935674906,2.0,1.0,phase_1,,,,,,,,,,,,,cyan,diamond
111.0,2.0,1.0,0.0,3.0,3.0,531.0107562690973,2.0,1.0,phase_1,,,,,,,,,,,,,blue,square
0.0,5.0,0.0,1.0,2.0,2.0,576.9778303802013,2.0,1.0,phase_1,,,,,,,,,,,,,magenta,flipped triangle
0.0,3.0,0.0,0.0,4.0,4.0,524.3021659553051,2.0,1.0,phase_1,,,,,,,,,,,,,green,triangle
221.0,7.0,2.0,1.0,4.0,4.0,521.019296720624,2.0,1.0,phase_1,,,,,,,,,,,,,cyan,diamond
225.0,7.0,2.0,1.0,4.0,4.0,500.4643574357033,2.0,1.0,phase_1,,,,,,,,,,,,,cyan,diamond
68.0,5.0,0.5,1.0,3.0,3.0,427.0038791000843,2.0,1.0,phase_1,,,,,,,,,,,,,magenta,flipped triangle
0.0,2.0,0.0,0.0,1.0,1.0,486.7540523409843,2.0,1.0,phase_1,,,,,,,,,,,,,blue,square
0.0,8.0,0.0,1.0,3.0,3.0,419.9646506458521,2.0,1.0,phase_1,,,,,,,,,,,,,yellow,circle
78.0,6.0,1.0,1.0,3.0,3.0,425.6473015993833,2.0,1.0,phase_1,,,,,,,,,,,,,gray,cross
400.0,8.0,4.0,1.0,2.0,2.0,501.9071605056524,2.0,1.0,phase_1,,,,,,,,,,,,,yellow,circle
45.0,1.0,0.5,0.0,1.0,1.0,491.0662043839693,2.0,1.0,phase_1,,,,,,,,,,,,,orange,I
42.0,5.0,0.5,1.0,1.0,1.0,452.9684372246265,2.0,1.0,phase_1,,,,,,,,,,,,,magenta,flipped triangle
59.0,5.0,0.5,1.0,4.0,4.0,436.8308093398809,2.0,1.0,phase_1,,,,,,,,,,,,,magenta,flipped triangle
0.0,6.0,0.0,1.0,1.0,1.0,509.77588817477226,2.0,1.0,phase_1,,,,,,,,,,,,,gray,cross
36.0,1.0,0.5,0.0,4.0,4.0,451.4658600091934,2.0,1.0,phase_1,,,,,,,,,,,,,orange,I
94.0,2.0,1.0,0.0,4.0,4.0,400.7970280945301,2.0,1.0,phase_1,,,,,,,,,,,,,blue,square
0.0,2.0,0.0,0.0,3.0,3.0,372.3322134464979,2.0,1.0,phase_1,,,,,,,,,,,,,blue,square
0.0,3.0,0.0,0.0,4.0,4.0,442.3349089920521,2.0,1.0,phase_1,,,,,,,,,,,,,green,triangle
0.0,2.0,0.0,0.0,4.0,4.0,414.533706381917,2.0,1.0,phase_1,,,,,,,,,,,,,blue,square
0.0,8.0,0.0,1.0,4.0,4.0,397.1440531313419,2.0,1.0,phase_1,,,,,,,,,,,,,yellow,circle
190.0,3.0,2.0,0.0,1.0,1.0,554.20165322721,2.0,1.0,phase_1,,,,,,,,,,,,,green,triangle
115.0,6.0,1.0,1.0,4.0,4.0,423.2762474566698,2.0,1.0,phase_1,,,,,,,,,,,,,gray,cross
398.0,8.0,4.0,1.0,1.0,1.0,412.3965837061405,2.0,1.0,phase_1,,,,,,,,,,,,,yellow,circle
81.0,6.0,1.0,1.0,1.0,1.0,404.6156425029039,2.0,1.0,phase_1,,,,,,,,,,,,,gray,cross
0.0,7.0,0.0,1.0,3.0,3.0,522.8719115257263,2.0,1.0,phase_1,,,,,,,,,,,,,cyan,diamond
60.0,1.0,0.5,0.0,4.0,4.0,599.9606419354677,2.0,1.0,phase_1,,,,,,,,,,,,,orange,I
202.0,3.0,2.0,0.0,3.0,3.0,362.7845831215381,2.0,1.0,phase_1,,,,,,,,,,,,,green,triangle
121.0,2.0,1.0,0.0,3.0,3.0,401.8642101436853,2.0,1.0,phase_1,,,,,,,,,,,,,blue,square
398.0,4.0,4.0,0.0,3.0,3.0,405.0624314695596,2.0,1.0,phase_1,,,,,,,,,,,,,white,hexagon
204.0,3.0,2.0,0.0,2.0,2.0,594.85949203372,2.0,1.0,phase_1,,,,,,,,,,,,,green,triangle
408.0,8.0,4.0,1.0,1.0,1.0,505.797415971756,2.0,1.0,phase_1,,,,,,,,,,,,,yellow,circle
105.0,6.0,1.0,1.0,2.0,2.0,531.6929910331964,2.0,1.0,phase_1,,,,,,,,,,,,,gray,cross
400.0,4.0,4.0,0.0,3.0,3.0,361.7823198437691,2.0,1.0,phase_1,,,,,,,,,,,,,white,hexagon
220.0,7.0,2.0,1.0,1.0,1.0,789.5839493721724,2.0,1.0,phase_1,,,,,,,,,,,,,cyan,diamond
209.0,7.0,2.0,1.0,4.0,4.0,587.0807897299528,2.0,1.0,phase_1,,,,,,,,,,,,,cyan,diamond
383.0,4.0,4.0,0.0,2.0,2.0,664.9482976645231,2.0,1.0,phase_1,,,,,,,,,,,,,white,hexagon
99.0,6.0,1.0,1.0,3.0,3.0,428.5318125039339,2.0,1.0,phase_1,,,,,,,,,,,,,gray,cross
118.0,2.0,1.0,0.0,1.0,1.0,705.7317271828651,2.0,1.0,phase_1,,,,,,,,,,,,,blue,square
0.0,4.0,0.0,0.0,3.0,3.0,427.5745060294866,2.0,1.0,phase_1,,,,,,,,,,,,,white,hexagon
50.0,5.0,0.5,1.0,3.0,3.0,435.7396960258484,2.0,1.0,phase_1,,,,,,,,,,,,,magenta,flipped triangle
207.0,7.0,2.0,1.0,2.0,2.0,367.4555961042642,2.0,1.0,phase_1,,,,,,,,,,,,,cyan,diamond
98.0,2.0,1.0,0.0,1.0,1.0,665.584335103631,2.0,1.0,phase_1,,,,,,,,,,,,,blue,square
412.0,8.0,4.0,1.0,1.0,1.0,433.8578004390001,2.0,1.0,phase_1,,,,,,,,,,,,,yellow,circle
50.0,1.0,0.5,0.0,4.0,4.0,660.6409475207329,2.0,1.0,phase_1,,,,,,,,,,,,,orange,I
51.0,1.0,0.5,0.0,1.0,1.0,426.4309797435999,2.0,1.0,phase_1,,,,,,,,,,,,,orange,I
389.0,4.0,4.0,0.0,1.0,1.0,387.7574075013399,2.0,1.0,phase_1,,,,,,,,,,,,,white,hexagon
47.0,1.0,0.5,0.0,2.0,2.0,425.4119750112295,2.0,1.0,phase_1,,,,,,,,,,,,,orange,I
390.0,8.0,4.0,1.0,2.0,2.0,425.3208991140127,2.0,1.0,phase_1,,,,,,,,,,,,,yellow,circle
216.0,7.0,2.0,1.0,4.0,4.0,402.216337621212,2.0,1.0,phase_1,,,,,,,,,,,,,cyan,diamond
382.0,8.0,4.0,1.0,3.0,3.0,432.5506128370762,2.0,1.0,phase_1,,,,,,,,,,,,,yellow,circle
191.0,3.0,2.0,0.0,1.0,1.0,867.2968950122595,2.0,1.0,phase_1,,,,,,,,,,,,,green,triangle
225.0,3.0,2.0,0.0,4.0,4.0,730.20956851542,2.0,1.0,phase_1,,,,,,,,,,,,,green,triangle
183.0,7.0,2.0,1.0,1.0,1.0,420.722059905529,2.0,1.0,phase_1,,,,,,,,,,,,,cyan,diamond
193.0,7.0,2.0,1.0,1.0,1.0,433.279238641262,2.0,1.0,phase_1,,,,,,,,,,,,,cyan,diamond
31.0,1.0,0.5,0.0,3.0,3.0,729.1936054825783,2.0,1.0,phase_1,,,,,,,,,,,,,orange,I
401.0,4.0,4.0,0.0,3.0,3.0,483.9091971516609,2.0,1.0,phase_1,,,,,,,,,,,,,white,hexagon
422.0,4.0,4.0,0.0,1.0,1.0,608.1897020339966,2.0,1.0,phase_1,,,,,,,,,,,,,white,hexagon
192.0,7.0,2.0,1.0,1.0,1.0,405.8115277439356,2.0,1.0,phase_1,,,,,,,,,,,,,cyan,diamond
222.0,7.0,2.0,1.0,1.0,1.0,340.2082230895757,2.0,1.0,phase_1,,,,,,,,,,,,,cyan,diamond
0.0,1.0,0.0,0.0,2.0,2.0,465.3554763644933,2.0,1.0,phase_1,,,,,,,,,,,,,orange,I
183.0,7.0,2.0,1.0,2.0,2.0,403.5002328455448,2.0,1.0,phase_1,,,,,,,,,,,,,cyan,diamond
122.0,6.0,1.0,1.0,3.0,3.0,522.1867561340332,2.0,1.0,phase_1,,,,,,,,,,,,,gray,cross
53.0,1.0,0.5,0.0,4.0,4.0,461.8706777691841,2.0,1.0,phase_1,,,,,,,,,,,,,orange,I
0.0,6.0,0.0,1.0,1.0,1.0,384.5247719436884,2.0,1.0,phase_1,,,,,,,,,,,,,gray,cross
50.0,5.0,0.5,1.0,1.0,1.0,583.4456402808428,2.0,1.0,phase_1,,,,,,,,,,,,,magenta,flipped triangle
50.0,1.0,0.5,0.0,1.0,1.0,650.6938934326172,2.0,1.0,phase_1,,,,,,,,,,,,,orange,I
0.0,6.0,0.0,1.0,3.0,3.0,640.4022797942162,2.0,1.0,phase_1,,,,,,,,,,,,,gray,cross
376.0,8.0,4.0,1.0,1.0,1.0,462.7429712563753,2.0,1.0,phase_1,,,,,,,,,,,,,yellow,circle
205.0,3.0,2.0,0.0,3.0,3.0,490.2129955589771,2.0,1.0,phase_1,,,,,,,,,,,,,green,triangle
394.0,4.0,4.0,0.0,2.0,2.0,472.0036536455154,2.0,1.0,phase_1,,,,,,,,,,,,,white,hexagon
176.0,7.0,2.0,1.0,3.0,3.0,450.2975232899189,2.0,1.0,phase_1,,,,,,,,,,,,,cyan,diamond
192.0,3.0,2.0,0.0,3.0,3.0,415.1146616786718,2.0,1.0,phase_1,,,,,,,,,,,,,green,triangle
198.0,7.0,2.0,1.0,2.0,2.0,381.7274700850248,2.0,1.0,phase_1,,,,,,,,,,,,,cyan,diamond
0.0,3.0,0.0,0.0,1.0,1.0,419.0705716609955,2.0,1.0,phase_1,,,,,,,,,,,,,green,triangle
387.0,8.0,4.0,1.0,4.0,4.0,550.136923789978,2.0,1.0,phase_1,,,,,,,,,,,,,yellow,circle
31.0,1.0,0.5,0.0,3.0,3.0,513.4743899106979,2.0,1.0,phase_1,,,,,,,,,,,,,orange,I
70.0,1.0,0.5,0.0,2.0,2.0,312.3686406761408,2.0,1.0,phase_1,,,,,,,,,,,,,orange,I
0.0,4.0,0.0,0.0,4.0,4.0,541.1825776100159,2.0,1.0,phase_1,,,,,,,,,,,,,white,hexagon
47.0,5.0,0.5,1.0,3.0,3.0,505.13532012701035,2.0,1.0,phase_1,,,,,,,,,,,,,magenta,flipped triangle
110.0,2.0,1.0,0.0,2.0,2.0,388.4316030889749,2.0,1.0,phase_1,,,,,,,,,,,,,blue,square
107.0,6.0,1.0,1.0,2.0,2.0,409.0973082929849,2.0,1.0,phase_1,,,,,,,,,,,,,gray,cross
408.0,4.0,4.0,0.0,2.0,2.0,319.527106359601,2.0,1.0,phase_1,,,,,,,,,,,,,white,hexagon
111.0,6.0,1.0,1.0,4.0,4.0,709.4172835350037,2.0,1.0,phase_1,,,,,,,,,,,,,gray,cross
420.0,8.0,4.0,1.0,3.0,3.0,822.379007935524,2.0,1.0,phase_1,,,,,,,,,,,,,yellow,circle
187.0,7.0,2.0,1.0,3.0,3.0,685.4140218347311,2.0,1.0,phase_1,,,,,,,,,,,,,cyan,diamond
397.0,8.0,4.0,1.0,2.0,2.0,457.2863392531872,2.0,1.0,phase_1,,,,,,,,,,,,,yellow,circle
83.0,2.0,1.0,0.0,4.0,4.0,703.2620962709188,2.0,1.0,phase_1,,,,,,,,,,,,,blue,square
85.0,6.0,1.0,1.0,2.0,2.0,464.5330160856247,3.0,1.0,phase_1,,,,,,,,,,,,,gray,cross
108.0,2.0,1.0,0.0,3.0,3.0,472.5853260606527,3.0,1.0,phase_1,,,,,,,,,,,,,blue,square
124.0,2.0,1.0,0.0,2.0,2.0,321.7891100794077,3.0,1.0,phase_1,,,,,,,,,,,,,blue,square
68.0,1.0,0.5,0.0,2.0,2.0,354.114668443799,3.0,1.0,phase_1,,,,,,,,,,,,,orange,I
219.0,3.0,2.0,0.0,1.0,1.0,435.6337524950504,3.0,1.0,phase_1,,,,,,,,,,,,,green,triangle
0.0,2.0,0.0,0.0,3.0,3.0,340.1496428996324,3.0,1.0,phase_1,,,,,,,,,,,,,blue,square
199.0,7.0,2.0,1.0,3.0,3.0,358.6461767554283,3.0,1.0,phase_1,,,,,,,,,,,,,cyan,diamond
420.0,4.0,4.0,0.0,3.0,3.0,354.4124253094196,3.0,1.0,phase_1,,,,,,,,,,,,,white,hexagon
420.0,4.0,4.0,0.0,3.0,3.0,375.2232268452644,3.0,1.0,phase_1,,,,,,,,,,,,,white,hexagon
397.0,4.0,4.0,0.0,1.0,1.0,316.1867540329695,3.0,1.0,phase_1,,,,,,,,,,,,,white,hexagon
77.0,6.0,1.0,1.0,4.0,4.0,554.258095100522,3.0,1.0,phase_1,,,,,,,,,,,,,gray,cross
37.0,5.0,0.5,1.0,3.0,3.0,416.2085466086864,3.0,1.0,phase_1,,,,,,,,,,,,,magenta,flipped triangle
0.0,4.0,0.0,0.0,3.0,3.0,433.5044156759977,3.0,1.0,phase_1,,,,,,,,,,,,,white,hexagon
110.0,2.0,1.0,0.0,3.0,3.0,318.4838183224201,3.0,1.0,phase_1,,,,,,,,,,,,,blue,square
29.0,1.0,0.5,0.0,3.0,3.0,354.6477407217026,3.0,1.0,phase_1,,,,,,,,,,,,,orange,I
118.0,2.0,1.0,0.0,4.0,4.0,503.6996901035309,3.0,1.0,phase_1,,,,,,,,,,,,,blue,square
72.0,5.0,0.5,1.0,2.0,2.0,430.6289479136467,3.0,1.0,phase_1,,,,,,,,,,,,,magenta,flipped triangle
78.0,6.0,1.0,1.0,2.0,2.0,417.1953238546848,3.0,1.0,phase_1,,,,,,,,,,,,,gray,cross
123.0,2.0,1.0,0.0,4.0,4.0,357.3211282491684,3.0,1.0,phase_1,,,,,,,,,,,,,blue,square
73.0,5.0,0.5,1.0,2.0,2.0,386.4349387586117,3.0,1.0,phase_1,,,,,,,,,,,,,magenta,flipped triangle
77.0,2.0,1.0,0.0,1.0,1.0,537.7605576068163,3.0,1.0,phase_1,,,,,,,,,,,,,blue,square
381.0,8.0,4.0,1.0,1.0,1.0,499.2218986153602,3.0,1.0,phase_1,,,,,,,,,,,,,yellow,circle
35.0,5.0,0.5,1.0,1.0,1.0,515.4997278004885,3.0,1.0,phase_1,,,,,,,,,,,,,magenta,flipped triangle
420.0,4.0,4.0,0.0,4.0,4.0,432.7101800590753,3.0,1.0,phase_1,,,,,,,,,,,,,white,hexagon
35.0,1.0,0.5,0.0,1.0,1.0,401.5999790281057,3.0,1.0,phase_1,,,,,,,,,,,,,orange,I
415.0,4.0,4.0,0.0,2.0,2.0,343.9135905355215,3.0,1.0,phase_1,,,,,,,,,,,,,white,hexagon
398.0,8.0,4.0,1.0,2.0,2.0,340.9062251448631,3.0,1.0,phase_1,,,,,,,,,,,,,yellow,circle
421.0,8.0,4.0,1.0,3.0,3.0,451.668232679367,3.0,1.0,phase_1,,,,,,,,,,,,,yellow,circle
30.0,5.0,0.5,1.0,2.0,2.0,525.0185187906027,3.0,1.0,phase_1,,,,,,,,,,,,,magenta,flipped triangle
0.0,8.0,0.0,1.0,1.0,1.0,433.6402248591184,3.0,1.0,phase_1,,,,,,,,,,,,,yellow,circle
215.0,7.0,2.0,1.0,2.0,2.0,469.3599659949541,3.0,1.0,phase_1,,,,,,,,,,,,,cyan,diamond
0.0,8.0,0.0,1.0,2.0,2.0,364.844486117363,3.0,1.0,phase_1,,,,,,,,,,,,,yellow,circle
200.0,7.0,2.0,1.0,3.0,3.0,455.4917942732572,3.0,1.0,phase_1,,,,,,,,,,,,,cyan,diamond
420.0,4.0,4.0,0.0,2.0,2.0,412.1684338897466,3.0,1.0,phase_1,,,,,,,,,,,,,white,hexagon
0.0,3.0,0.0,0.0,1.0,1.0,530.2920117974281,3.0,1.0,phase_1,,,,,,,,,,,,,green,triangle
56.0,5.0,0.5,1.0,3.0,3.0,558.5393812507391,3.0,1.0,phase_1,,,,,,,,,,,,,magenta,flipped triangle
0.0,3.0,0.0,0.0,2.0,2.0,619.4867100566626,3.0,1.0,phase_1,,,,,,,,,,,,,green,triangle
0.0,3.0,0.0,0.0,2.0,2.0,350.1137159764766,3.0,1.0,phase_1,,,,,,,,,,,,,green,triangle
44.0,1.0,0.5,0.0,4.0,4.0,572.7204270660877,3.0,1.0,phase_1,,,,,,,,,,,,,orange,I
84.0,6.0,1.0,1.0,4.0,4.0,409.1587848961353,3.0,1.0,phase_1,,,,,,,,,,,,,gray,cross
122.0,2.0,1.0,0.0,2.0,2.0,293.1773606687784,3.0,1.0,phase_1,,,,,,,,,,,,,blue,square
208.0,3.0,2.0,0.0,2.0,2.0,376.8539912998676,3.0,1.0,phase_1,,,,,,,,,,,,,green,triangle
0.0,7.0,0.0,1.0,4.0,4.0,401.0406509041786,3.0,1.0,phase_1,,,,,,,,,,,,,cyan,diamond
401.0,4.0,4.0,0.0,4.0,4.0,434.9350780248642,3.0,1.0,phase_1,,,,,,,,,,,,,white,hexagon
223.0,3.0,2.0,0.0,4.0,4.0,398.9522755146026,3.0,1.0,phase_1,,,,,,,,,,,,,green,triangle
223.0,7.0,2.0,1.0,3.0,3.0,375.4402752965688,3.0,1.0,phase_1,,,,,,,,,,,,,cyan,diamond
184.0,7.0,2.0,1.0,1.0,1.0,337.4993298202753,3.0,1.0,phase_1,,,,,,,,,,,,,cyan,diamond
31.0,5.0,0.5,1.0,4.0,4.0,590.6955730170012,3.0,1.0,phase_1,,,,,,,,,,,,,magenta,flipped triangle
419.0,4.0,4.0,0.0,3.0,3.0,386.9975041598081,3.0,1.0,phase_1,,,,,,,,,,,,,white,hexagon
408.0,8.0,4.0,1.0,2.0,2.0,360.2930456399917,3.0,1.0,phase_1,,,,,,,,,,,,,yellow,circle
210.0,7.0,2.0,1.0,3.0,3.0,427.6841357350349,3.0,1.0,phase_1,,,,,,,,,,,,,cyan,diamond
65.0,1.0,0.5,0.0,2.0,2.0,355.0086971372366,3.0,1.0,phase_1,,,,,,,,,,,,,orange,I
105.0,2.0,1.0,0.0,2.0,2.0,381.1831101775169,3.0,1.0,phase_1,,,,,,,,,,,,,blue,square
187.0,7.0,2.0,1.0,1.0,1.0,500.3728810697794,3.0,1.0,phase_1,,,,,,,,,,,,,cyan,diamond
65.0,5.0,0.5,1.0,3.0,3.0,488.9237321913242,3.0,1.0,phase_1,,,,,,,,,,,,,magenta,flipped triangle
0.0,7.0,0.0,1.0,3.0,3.0,507.1173124015331,3.0,1.0,phase_1,,,,,,,,,,,,,cyan,diamond
70.0,5.0,0.5,1.0,4.0,4.0,507.4676964432001,3.0,1.0,phase_1,,,,,,,,,,,,,magenta,flipped triangle
110.0,6.0,1.0,1.0,1.0,1.0,548.3932550996542,3.0,1.0,phase_1,,,,,,,,,,,,,gray,cross
120.0,2.0,1.0,0.0,3.0,3.0,456.6226713359356,3.0,1.0,phase_1,,,,,,,,,,,,,blue,square
39.0,1.0,0.5,0.0,3.0,3.0,358.0288030207157,3.0,1.0,phase_1,,,,,,,,,,,,,orange,I
400.0,8.0,4.0,1.0,2.0,2.0,450.056592002511,3.0,1.0,phase_1,,,,,,,,,,,,,yellow,circle
110.0,6.0,1.0,1.0,4.0,4.0,480.5191829800606,3.0,1.0,phase_1,,,,,,,,,,,,,gray,cross
59.0,1.0,0.5,0.0,1.0,1.0,452.0049896091223,3.0,1.0,phase_1,,,,,,,,,,,,,orange,I
79.0,6.0,1.0,1.0,1.0,1.0,506.33867271244526,3.0,1.0,phase_1,,,,,,,,,,,,,gray,cross
407.0,4.0,4.0,0.0,1.0,1.0,684.9691458046436,3.0,1.0,phase_1,,,,,,,,,,,,,white,hexagon
79.0,2.0,1.0,0.0,4.0,4.0,890.0609947741032,3.0,1.0,phase_1,,,,,,,,,,,,,blue,square
67.0,1.0,0.5,0.0,4.0,4.0,593.7426090240479,3.0,1.0,phase_1,,,,,,,,,,,,,orange,I
187.0,3.0,2.0,0.0,4.0,4.0,475.2576369792223,3.0,1.0,phase_1,,,,,,,,,,,,,green,triangle
401.0,8.0,4.0,1.0,1.0,1.0,491.525512188673,3.0,1.0,phase_1,,,,,,,,,,,,,yellow,circle
0.0,5.0,0.0,1.0,4.0,4.0,573.133010417223,3.0,1.0,phase_1,,,,,,,,,,,,,magenta,flipped triangle
420.0,8.0,4.0,1.0,3.0,3.0,385.825477540493,3.0,1.0,phase_1,,,,,,,,,,,,,yellow,circle
397.0,4.0,4.0,0.0,4.0,4.0,401.3809226453304,3.0,1.0,phase_1,,,,,,,,,,,,,white,hexagon
398.0,4.0,4.0,0.0,2.0,2.0,338.3104316890239,3.0,1.0,phase_1,,,,,,,,,,,,,white,hexagon
198.0,3.0,2.0,0.0,2.0,2.0,393.2600729167461,3.0,1.0,phase_1,,,,,,,,,,,,,green,triangle
0.0,1.0,0.0,0.0,1.0,1.0,534.4069954007864,3.0,1.0,phase_1,,,,,,,,,,,,,orange,I
98.0,6.0,1.0,1.0,1.0,1.0,440.9828018397093,3.0,1.0,phase_1,,,,,,,,,,,,,gray,cross
74.0,1.0,0.5,0.0,4.0,4.0,613.1507605314255,3.0,1.0,phase_1,,,,,,,,,,,,,orange,I
380.0,8.0,4.0,1.0,1.0,1.0,452.8771080076694,3.0,1.0,phase_1,,,,,,,,,,,,,yellow,circle
60.0,5.0,0.5,1.0,4.0,4.0,518.4565186500549,3.0,1.0,phase_1,,,,,,,,,,,,,magenta,flipped triangle
99.0,2.0,1.0,0.0,1.0,1.0,542.3651821911335,3.0,1.0,phase_1,,,,,,,,,,,,,blue,square
85.0,2.0,1.0,0.0,4.0,4.0,483.4259562194347,3.0,1.0,phase_1,,,,,,,,,,,,,blue,square
0.0,2.0,0.0,0.0,1.0,1.0,326.9267063587904,3.0,1.0,phase_1,,,,,,,,,,,,,blue,square
109.0,2.0,1.0,0.0,1.0,1.0,395.3966032713651,3.0,1.0,phase_1,,,,,,,,,,,,,blue,square
176.0,3.0,2.0,0.0,4.0,4.0,406.6761117428541,3.0,1.0,phase_1,,,,,,,,,,,,,green,triangle
385.0,4.0,4.0,0.0,1.0,1.0,444.6590431034565,3.0,1.0,phase_1,,,,,,,,,,,,,white,hexagon
94.0,6.0,1.0,1.0,3.0,3.0,343.4011992067098,3.0,1.0,phase_1,,,,,,,,,,,,,gray,cross
28.0,1.0,0.5,0.0,2.0,2.0,342.1949055045843,3.0,1.0,phase_1,,,,,,,,,,,,,orange,I
60.0,1.0,0.5,0.0,3.0,3.0,355.26804625988,3.0,1.0,phase_1,,,,,,,,,,,,,orange,I
0.0,5.0,0.0,1.0,1.0,1.0,437.1028877794742,3.0,1.0,phase_1,,,,,,,,,,,,,magenta,flipped triangle
207.0,3.0,2.0,0.0,4.0,4.0,395.4153880476951,3.0,1.0,phase_1,,,,,,,,,,,,,green,triangle
219.0,7.0,2.0,1.0,2.0,2.0,280.6759662926197,3.0,1.0,phase_1,,,,,,,,,,,,,cyan,diamond
92.0,2.0,1.0,0.0,3.0,3.0,325.2798616886139,3.0,1.0,phase_1,,,,,,,,,,,,,blue,square
0.0,2.0,0.0,0.0,2.0,2.0,344.2708011716604,3.0,1.0,phase_1,,,,,,,,,,,,,blue,square
110.0,6.0,1.0,1.0,4.0,4.0,366.8703623116016,3.0,1.0,phase_1,,,,,,,,,,,,,gray,cross
398.0,8.0,4.0,1.0,3.0,3.0,481.5793875604868,3.0,1.0,phase_1,,,,,,,,,,,,,yellow,circle
83.0,2.0,1.0,0.0,3.0,3.0,346.1291007697582,3.0,1.0,phase_1,,,,,,,,,,,,,blue,square
73.0,5.0,0.5,1.0,3.0,3.0,371.5915866196155,3.0,1.0,phase_1,,,,,,,,,,,,,magenta,flipped triangle
90.0,6.0,1.0,1.0,1.0,1.0,343.5412719845772,3.0,1.0,phase_1,,,,,,,,,,,,,gray,cross
180.0,3.0,2.0,0.0,4.0,4.0,486.8791326880455,3.0,1.0,phase_1,,,,,,,,,,,,,green,triangle
377.0,8.0,4.0,1.0,4.0,4.0,434.6773605793714,3.0,1.0,phase_1,,,,,,,,,,,,,yellow,circle
69.0,5.0,0.5,1.0,4.0,4.0,411.2759046256542,4.0,2.0,phase_1,,,,,,,,,,,,,magenta,flipped triangle
187.0,3.0,2.0,0.0,1.0,1.0,460.5841003358364,4.0,1.0,phase_1,,,,,,,,,,,,,green,triangle
189.0,7.0,2.0,1.0,2.0,2.0,387.4256238341331,4.0,1.0,phase_1,,,,,,,,,,,,,cyan,diamond
382.0,4.0,4.0,0.0,2.0,2.0,376.3863872736692,4.0,1.0,phase_1,,,,,,,,,,,,,white,hexagon
0.0,4.0,0.0,0.0,4.0,4.0,404.7309067100286,4.0,1.0,phase_1,,,,,,,,,,,,,white,hexagon
407.0,8.0,4.0,1.0,2.0,2.0,327.5138325989246,4.0,1.0,phase_1,,,,,,,,,,,,,yellow,circle
204.0,7.0,2.0,1.0,4.0,4.0,491.82388558983797,4.0,1.0,phase_1,,,,,,,,,,,,,cyan,diamond
387.0,4.0,4.0,0.0,2.0,2.0,330.0028443336487,4.0,1.0,phase_1,,,,,,,,,,,,,white,hexagon
0.0,6.0,0.0,1.0,2.0,2.0,477.5994531810283,4.0,1.0,phase_1,,,,,,,,,,,,,gray,cross
0.0,1.0,0.0,0.0,1.0,1.0,489.7645488381386,4.0,1.0,phase_1,,,,,,,,,,,,,orange,I
417.0,4.0,4.0,0.0,4.0,4.0,406.379584223032,4.0,1.0,phase_1,,,,,,,,,,,,,white,hexagon
0.0,3.0,0.0,0.0,2.0,2.0,461.4267908036709,4.0,1.0,phase_1,,,,,,,,,,,,,green,triangle
389.0,4.0,4.0,0.0,1.0,1.0,418.9061839133501,4.0,1.0,phase_1,,,,,,,,,,,,,white,hexagon
177.0,7.0,2.0,1.0,1.0,1.0,364.67106454074377,4.0,1.0,phase_1,,,,,,,,,,,,,cyan,diamond
389.0,8.0,4.0,1.0,4.0,4.0,363.8571444898844,4.0,1.0,phase_1,,,,,,,,,,,,,yellow,circle
188.0,7.0,2.0,1.0,2.0,2.0,303.3936265856027,4.0,1.0,phase_1,,,,,,,,,,,,,cyan,diamond
200.0,3.0,2.0,0.0,2.0,2.0,338.0957134068012,4.0,1.0,phase_1,,,,,,,,,,,,,green,triangle
31.0,1.0,0.5,0.0,3.0,3.0,367.8037319332361,4.0,1.0,phase_1,,,,,,,,,,,,,orange,I
37.0,1.0,0.5,0.0,3.0,3.0,355.8395821601152,4.0,1.0,phase_1,,,,,,,,,,,,,orange,I
415.0,8.0,4.0,1.0,1.0,1.0,338.9305397868156,4.0,1.0,phase_1,,,,,,,,,,,,,yellow,circle
207.0,3.0,2.0,0.0,2.0,2.0,336.4481627941131,4.0,1.0,phase_1,,,,,,,,,,,,,green,triangle
0.0,4.0,0.0,0.0,2.0,2.0,323.8843474537134,4.0,1.0,phase_1,,,,,,,,,,,,,white,hexagon
53.0,5.0,0.5,1.0,4.0,4.0,322.8634428232908,4.0,1.0,phase_1,,,,,,,,,,,,,magenta,flipped triangle
0.0,7.0,0.0,1.0,3.0,3.0,356.866268441081,4.0,1.0,phase_1,,,,,,,,,,,,,cyan,diamond
0.0,8.0,0.0,1.0,2.0,2.0,368.6935305595398,4.0,1.0,phase_1,,,,,,,,,,,,,yellow,circle
78.0,2.0,1.0,0.0,1.0,1.0,526.9641522318125,4.0,1.0,phase_1,,,,,,,,,,,,,blue,square
0.0,7.0,0.0,1.0,4.0,4.0,417.4914266914129,4.0,1.0,phase_1,,,,,,,,,,,,,cyan,diamond
88.0,6.0,1.0,1.0,2.0,2.0,295.9811631590128,4.0,1.0,phase_1,,,,,,,,,,,,,gray,cross
189.0,3.0,2.0,0.0,3.0,3.0,332.359729334712,4.0,1.0,phase_1,,,,,,,,,,,,,green,triangle
78.0,2.0,1.0,0.0,2.0,2.0,544.1412441432476,4.0,1.0,phase_1,,,,,,,,,,,,,blue,square
61.0,5.0,0.5,1.0,4.0,4.0,428.8787916302681,4.0,1.0,phase_1,,,,,,,,,,,,,magenta,flipped triangle
377.0,8.0,4.0,1.0,4.0,4.0,392.6938939839601,4.0,1.0,phase_1,,,,,,,,,,,,,yellow,circle
0.0,2.0,0.0,0.0,2.0,2.0,320.0265672057867,4.0,1.0,phase_1,,,,,,,,,,,,,blue,square
81.0,2.0,1.0,0.0,3.0,3.0,316.2305895239115,4.0,1.0,phase_1,,,,,,,,,,,,,blue,square
0.0,8.0,0.0,1.0,3.0,3.0,434.2660065740347,4.0,1.0,phase_1,,,,,,,,,,,,,yellow,circle
0.0,5.0,0.0,1.0,3.0,3.0,340.1306830346584,4.0,1.0,phase_1,,,,,,,,,,,,,magenta,flipped triangle
83.0,2.0,1.0,0.0,4.0,4.0,464.3210824579,4.0,1.0,phase_1,,,,,,,,,,,,,blue,square
0.0,1.0,0.0,0.0,1.0,1.0,365.608474239707,4.0,1.0,phase_1,,,,,,,,,,,,,orange,I
0.0,8.0,0.0,1.0,2.0,2.0,322.5557040423155,4.0,1.0,phase_1,,,,,,,,,,,,,yellow,circle
44.0,5.0,0.5,1.0,1.0,1.0,521.2350394576788,4.0,1.0,phase_1,,,,,,,,,,,,,magenta,flipped triangle
218.0,3.0,2.0,0.0,2.0,2.0,387.4275423586368,4.0,1.0,phase_1,,,,,,,,,,,,,green,triangle
392.0,8.0,4.0,1.0,1.0,1.0,367.4295507371425,4.0,1.0,phase_1,,,,,,,,,,,,,yellow,circle
0.0,6.0,0.0,1.0,1.0,1.0,412.9351377487182,4.0,1.0,phase_1,,,,,,,,,,,,,gray,cross
44.0,1.0,0.5,0.0,2.0,2.0,392.5811368972063,4.0,1.0,phase_1,,,,,,,,,,,,,orange,I
102.0,2.0,1.0,0.0,1.0,1.0,310.681389644742,4.0,1.0,phase_1,,,,,,,,,,,,,blue,square
0.0,1.0,0.0,0.0,4.0,4.0,413.7141332030296,4.0,1.0,phase_1,,,,,,,,,,,,,orange,I
107.0,2.0,1.0,0.0,2.0,2.0,310.6524590402841,4.0,1.0,phase_1,,,,,,,,,,,,,blue,square
0.0,3.0,0.0,0.0,1.0,1.0,295.5083418637514,4.0,1.0,phase_1,,,,,,,,,,,,,green,triangle
401.0,8.0,4.0,1.0,3.0,3.0,352.9982734471559,4.0,1.0,phase_1,,,,,,,,,,,,,yellow,circle
115.0,2.0,1.0,0.0,2.0,2.0,372.763067483902,4.0,1.0,phase_1,,,,,,,,,,,,,blue,square
0.0,6.0,0.0,1.0,3.0,3.0,340.6538907438516,4.0,1.0,phase_1,,,,,,,,,,,,,gray,cross
0.0,8.0,0.0,1.0,4.0,4.0,422.3714303225279,4.0,1.0,phase_1,,,,,,,,,,,,,yellow,circle
390.0,4.0,4.0,0.0,4.0,4.0,499.6300023049116,4.0,1.0,phase_1,,,,,,,,,,,,,white,hexagon
102.0,6.0,1.0,1.0,1.0,1.0,375.4206094890833,4.0,1.0,phase_1,,,,,,,,,,,,,gray,cross
0.0,8.0,0.0,1.0,1.0,1.0,510.0892558693886,4.0,1.0,phase_1,,,,,,,,,,,,,yellow,circle
55.0,1.0,0.5,0.0,1.0,1.0,457.4413113296032,4.0,1.0,phase_1,,,,,,,,,,,,,orange,I
0.0,7.0,0.0,1.0,3.0,3.0,352.6516854763031,4.0,1.0,phase_1,,,,,,,,,,,,,cyan,diamond
51.0,5.0,0.5,1.0,2.0,2.0,339.472534134984,4.0,1.0,phase_1,,,,,,,,,,,,,magenta,flipped triangle
405.0,8.0,4.0,1.0,3.0,3.0,385.8051728457212,4.0,1.0,phase_1,,,,,,,,,,,,,yellow,circle
183.0,3.0,2.0,0.0,1.0,1.0,351.5710048377514,4.0,1.0,phase_1,,,,,,,,,,,,,green,triangle
419.0,8.0,4.0,1.0,4.0,4.0,515.7075393944979,4.0,1.0,phase_1,,,,,,,,,,,,,yellow,circle
72.0,1.0,0.5,0.0,2.0,2.0,381.8390090018511,4.0,1.0,phase_1,,,,,,,,,,,,,orange,I
0.0,5.0,0.0,1.0,4.0,4.0,403.6902915686369,4.0,1.0,phase_1,,,,,,,,,,,,,magenta,flipped triangle
96.0,2.0,1.0,0.0,1.0,1.0,375.5396138876676,4.0,1.0,phase_1,,,,,,,,,,,,,blue,square
185.0,3.0,2.0,0.0,4.0,4.0,372.2232561558485,4.0,1.0,phase_1,,,,,,,,,,,,,green,triangle
178.0,3.0,2.0,0.0,3.0,3.0,322.427399456501,4.0,1.0,phase_1,,,,,,,,,,,,,green,triangle
124.0,6.0,1.0,1.0,2.0,2.0,311.9065705686807,4.0,1.0,phase_1,,,,,,,,,,,,,gray,cross
394.0,4.0,4.0,0.0,1.0,1.0,538.3009761571884,4.0,1.0,phase_1,,,,,,,,,,,,,white,hexagon
210.0,3.0,2.0,0.0,2.0,2.0,474.7643340378999,4.0,2.0,phase_1,,,,,,,,,,,,,green,triangle
67.0,5.0,0.5,1.0,1.0,1.0,392.3700079321861,4.0,1.0,phase_1,,,,,,,,,,,,,magenta,flipped triangle
45.0,5.0,0.5,1.0,1.0,1.0,511.4314332604408,4.0,1.0,phase_1,,,,,,,,,,,,,magenta,flipped triangle
53.0,5.0,0.5,1.0,3.0,3.0,426.8144126981497,4.0,1.0,phase_1,,,,,,,,,,,,,magenta,flipped triangle
110.0,2.0,1.0,0.0,4.0,4.0,448.1735527515411,4.0,1.0,phase_1,,,,,,,,,,,,,blue,square
420.0,8.0,4.0,1.0,4.0,4.0,396.5497352182865,4.0,1.0,phase_1,,,,,,,,,,,,,yellow,circle
400.0,4.0,4.0,0.0,4.0,4.0,505.727082490921,4.0,1.0,phase_1,,,,,,,,,,,,,white,hexagon
94.0,6.0,1.0,1.0,4.0,4.0,438.5160934180021,4.0,1.0,phase_1,,,,,,,,,,,,,gray,cross
43.0,1.0,0.5,0.0,1.0,1.0,410.526780411601,4.0,1.0,phase_1,,,,,,,,,,,,,orange,I
0.0,5.0,0.0,1.0,3.0,3.0,405.3531307727098,4.0,1.0,phase_1,,,,,,,,,,,,,magenta,flipped triangle
190.0,7.0,2.0,1.0,4.0,4.0,433.9746888726949,4.0,1.0,phase_1,,,,,,,,,,,,,cyan,diamond
0.0,3.0,0.0,0.0,1.0,1.0,447.3073594272136,4.0,1.0,phase_1,,,,,,,,,,,,,green,triangle
0.0,2.0,0.0,0.0,1.0,1.0,421.4238319545984,4.0,1.0,phase_1,,,,,,,,,,,,,blue,square
0.0,5.0,0.0,1.0,3.0,3.0,400.3924913704395,4.0,1.0,phase_1,,,,,,,,,,,,,magenta,flipped triangle
191.0,7.0,2.0,1.0,1.0,1.0,444.0997932106256,4.0,1.0,phase_1,,,,,,,,,,,,,cyan,diamond
0.0,2.0,0.0,0.0,1.0,1.0,450.8648123592138,4.0,1.0,phase_1,,,,,,,,,,,,,blue,square
0.0,7.0,0.0,1.0,1.0,1.0,446.8594398349523,4.0,1.0,phase_1,,,,,,,,,,,,,cyan,diamond
0.0,1.0,0.0,0.0,3.0,3.0,459.2323116958141,4.0,1.0,phase_1,,,,,,,,,,,,,orange,I
84.0,2.0,1.0,0.0,4.0,4.0,679.2019959539175,4.0,1.0,phase_1,,,,,,,,,,,,,blue,square
0.0,7.0,0.0,1.0,2.0,2.0,477.7786415070295,4.0,1.0,phase_1,,,,,,,,,,,,,cyan,diamond
376.0,4.0,4.0,0.0,4.0,4.0,436.6697873920202,4.0,1.0,phase_1,,,,,,,,,,,,,white,hexagon
89.0,2.0,1.0,0.0,2.0,2.0,575.0480964779854,4.0,1.0,phase_1,,,,,,,,,,,,,blue,square
110.0,2.0,1.0,0.0,4.0,4.0,562.0108023285866,4.0,1.0,phase_1,,,,,,,,,,,,,blue,square
83.0,6.0,1.0,1.0,2.0,2.0,378.4388080239296,4.0,1.0,phase_1,,,,,,,,,,,,,gray,cross
119.0,6.0,1.0,1.0,1.0,1.0,476.9639000296592,4.0,1.0,phase_1,,,,,,,,,,,,,gray,cross
42.0,1.0,0.5,0.0,2.0,2.0,383.7376832962036,4.0,1.0,phase_1,,,,,,,,,,,,,orange,I
0.0,5.0,0.0,1.0,3.0,3.0,344.5570841431618,4.0,1.0,phase_1,,,,,,,,,,,,,magenta,flipped triangle
0.0,1.0,0.0,0.0,2.0,2.0,347.852474078536,4.0,1.0,phase_1,,,,,,,,,,,,,orange,I
0.0,4.0,0.0,0.0,3.0,3.0,321.0470471531153,4.0,1.0,phase_1,,,,,,,,,,,,,white,hexagon
197.0,7.0,2.0,1.0,3.0,3.0,446.7667322605848,4.0,1.0,phase_1,,,,,,,,,,,,,cyan,diamond
397.0,8.0,4.0,1.0,3.0,3.0,339.1499929130077,4.0,1.0,phase_1,,,,,,,,,,,,,yellow,circle
31.0,5.0,0.5,1.0,2.0,2.0,390.6953819096088,4.0,1.0,phase_1,,,,,,,,,,,,,magenta,flipped triangle
0.0,7.0,2.0,1.0,5.0,5.0,510.8032803982496,1.0,1.0,phase_2,stop,250.0,250.0,3.0,,,,,,,,,cyan,diamond
0.0,5.0,0.5,1.0,5.0,5.0,707.1014754474163,1.0,1.0,phase_2,go,200.0,250.0,1.0,,,,,,,,,magenta,flipped triangle
0.0,4.0,4.0,0.0,5.0,5.0,687.9712175577879,1.0,1.0,phase_2,go,200.0,250.0,1.0,,,,,,,,,white,hexagon
0.0,3.0,2.0,0.0,5.0,5.0,440.1017557829618,1.0,1.0,phase_2,go,200.0,250.0,1.0,,,,,,,,,green,triangle
0.0,6.0,1.0,1.0,5.0,5.0,353.0991710722446,1.0,1.0,phase_2,stop,200.0,250.0,3.0,,,,,,,,,gray,cross
0.0,4.0,4.0,0.0,5.0,5.0,512.2176315635443,1.0,1.0,phase_2,go,150.0,250.0,1.0,,,,,,,,,white,hexagon
0.0,1.0,0.5,0.0,5.0,5.0,967.8538329899312,1.0,1.0,phase_2,go,150.0,250.0,1.0,,,,,,,,,orange,I
0.0,4.0,4.0,0.0,6.0,6.0,544.8756739497185,1.0,1.0,phase_2,go,150.0,250.0,1.0,,,,,,,,,white,hexagon
0.0,5.0,0.5,1.0,5.0,5.0,536.1090395599604,1.0,1.0,phase_2,go,150.0,250.0,1.0,,,,,,,,,magenta,flipped triangle
0.0,8.0,4.0,1.0,5.0,0.0,0.0,1.0,1.0,phase_2,stop,150.0,250.0,4.0,,,,,,,,,yellow,circle
0.0,5.0,0.5,1.0,6.0,6.0,518.0675610899925,1.0,1.0,phase_2,stop,200.0,250.0,3.0,,,,,,,,,magenta,flipped triangle
0.0,2.0,1.0,0.0,5.0,5.0,498.80030006170267,1.0,1.0,phase_2,go,200.0,200.0,1.0,,,,,,,,,blue,square
0.0,7.0,2.0,1.0,6.0,0.0,0.0,1.0,1.0,phase_2,stop,200.0,200.0,4.0,,,,,,,,,cyan,diamond
0.0,8.0,4.0,1.0,6.0,0.0,0.0,1.0,1.0,phase_2,stop,200.0,250.0,4.0,,,,,,,,,yellow,circle
0.0,1.0,0.5,0.0,5.0,5.0,628.6569442600012,1.0,1.0,phase_2,go,200.0,300.0,1.0,,,,,,,,,orange,I
0.0,4.0,4.0,0.0,6.0,6.0,736.5183494985104,1.0,1.0,phase_2,go,200.0,300.0,1.0,,,,,,,,,white,hexagon
0.0,8.0,4.0,1.0,5.0,0.0,0.0,1.0,1.0,phase_2,stop,200.0,300.0,4.0,,,,,,,,,yellow,circle
0.0,2.0,1.0,0.0,6.0,6.0,770.3143544495106,1.0,1.0,phase_2,go,250.0,300.0,1.0,,,,,,,,,blue,square
0.0,7.0,2.0,1.0,5.0,0.0,0.0,1.0,1.0,phase_2,stop,250.0,300.0,4.0,,,,,,,,,cyan,diamond
0.0,3.0,2.0,0.0,5.0,5.0,734.7631137818098,1.0,1.0,phase_2,go,300.0,300.0,1.0,,,,,,,,,green,triangle
0.0,7.0,2.0,1.0,5.0,0.0,0.0,1.0,1.0,phase_2,stop,300.0,300.0,4.0,,,,,,,,,cyan,diamond
0.0,1.0,0.5,0.0,5.0,5.0,862.0062805712223,1.0,1.0,phase_2,go,350.0,300.0,1.0,,,,,,,,,orange,I
0.0,6.0,1.0,1.0,6.0,0.0,0.0,1.0,1.0,phase_2,stop,350.0,300.0,4.0,,,,,,,,,gray,cross
0.0,4.0,4.0,0.0,6.0,6.0,888.5135278105736,1.0,1.0,phase_2,go,350.0,350.0,1.0,,,,,,,,,white,hexagon
0.0,1.0,0.5,0.0,5.0,5.0,806.8548068404198,1.0,1.0,phase_2,go,350.0,350.0,1.0,,,,,,,,,orange,I
0.0,8.0,4.0,1.0,5.0,0.0,0.0,1.0,1.0,phase_2,stop,350.0,350.0,4.0,,,,,,,,,yellow,circle
0.0,3.0,2.0,0.0,5.0,5.0,805.3952157497406,1.0,1.0,phase_2,go,400.0,350.0,1.0,,,,,,,,,green,triangle
0.0,5.0,0.5,1.0,5.0,0.0,0.0,1.0,1.0,phase_2,stop,400.0,350.0,4.0,,,,,,,,,magenta,flipped triangle
0.0,4.0,4.0,0.0,5.0,5.0,972.0490612089634,1.0,1.0,phase_2,go,450.0,350.0,1.0,,,,,,,,,white,hexagon
0.0,3.0,2.0,0.0,6.0,6.0,1130.304999649525,1.0,1.0,phase_2,go,450.0,350.0,1.0,,,,,,,,,green,triangle
0.0,7.0,2.0,1.0,6.0,0.0,0.0,1.0,1.0,phase_2,stop,450.0,350.0,4.0,,,,,,,,,cyan,diamond
0.0,6.0,1.0,1.0,6.0,0.0,0.0,1.0,1.0,phase_2,stop,450.0,400.0,4.0,,,,,,,,,gray,cross
0.0,3.0,2.0,0.0,5.0,5.0,472.7258756756782,1.0,1.0,phase_2,go,450.0,450.0,1.0,,,,,,,,,green,triangle
0.0,1.0,0.5,0.0,5.0,5.0,458.9059446007013,1.0,1.0,phase_2,go,450.0,450.0,1.0,,,,,,,,,orange,I
0.0,2.0,1.0,0.0,5.0,5.0,554.6791702508926,1.0,1.0,phase_2,go,450.0,450.0,1.0,,,,,,,,,blue,square
0.0,7.0,2.0,1.0,5.0,5.0,401.6045164316892,1.0,1.0,phase_2,go,450.0,450.0,1.0,,,,,,,,,cyan,diamond
0.0,4.0,4.0,0.0,5.0,5.0,720.796924084425,2.0,1.0,phase_2,go,450.0,450.0,1.0,,,,,,,,,white,hexagon
0.0,6.0,1.0,1.0,5.0,5.0,488.0749695003032,2.0,1.0,phase_2,stop,450.0,450.0,3.0,,,,,,,,,gray,cross
0.0,2.0,1.0,0.0,6.0,6.0,695.6663802266121,2.0,1.0,phase_2,go,400.0,450.0,1.0,,,,,,,,,blue,square
0.0,5.0,0.5,1.0,5.0,0.0,0.0,2.0,1.0,phase_2,stop,400.0,450.0,4.0,,,,,,,,,magenta,flipped triangle
0.0,5.0,0.5,1.0,6.0,0.0,0.0,2.0,1.0,phase_2,stop,450.0,450.0,4.0,,,,,,,,,magenta,flipped triangle
0.0,7.0,2.0,1.0,5.0,0.0,0.0,2.0,1.0,phase_2,stop,450.0,500.0,4.0,,,,,,,,,cyan,diamond
0.0,4.0,4.0,0.0,5.0,5.0,909.1132134199142,2.0,1.0,phase_2,go,500.0,500.0,1.0,,,,,,,,,white,hexagon
0.0,1.0,0.5,0.0,6.0,6.0,623.8016579300165,2.0,1.0,phase_2,go,500.0,500.0,1.0,,,,,,,,,orange,I
0.0,4.0,4.0,0.0,6.0,6.0,566.2356559187174,2.0,1.0,phase_2,go,500.0,500.0,1.0,,,,,,,,,white,hexagon
0.0,3.0,2.0,0.0,5.0,5.0,888.0705311894417,2.0,1.0,phase_2,go,500.0,500.0,1.0,,,,,,,,,green,triangle
0.0,6.0,1.0,1.0,6.0,6.0,395.0878214091062,2.0,1.0,phase_2,stop,500.0,500.0,3.0,,,,,,,,,gray,cross
0.0,2.0,1.0,0.0,6.0,6.0,747.467840090394,2.0,1.0,phase_2,go,500.0,450.0,1.0,,,,,,,,,blue,square
0.0,1.0,0.5,0.0,6.0,6.0,409.9913146346807,2.0,1.0,phase_2,go,500.0,450.0,1.0,,,,,,,,,orange,I
0.0,3.0,2.0,0.0,6.0,6.0,641.2093956023455,2.0,1.0,phase_2,go,500.0,450.0,1.0,,,,,,,,,green,triangle
0.0,1.0,0.5,0.0,5.0,5.0,681.2086366117001,2.0,1.0,phase_2,go,500.0,450.0,1.0,,,,,,,,,orange,I
0.0,2.0,1.0,0.0,5.0,5.0,388.2566522806883,2.0,1.0,phase_2,go,500.0,450.0,1.0,,,,,,,,,blue,square
0.0,2.0,1.0,0.0,5.0,5.0,473.8405272364616,2.0,1.0,phase_2,go,500.0,450.0,1.0,,,,,,,,,blue,square
0.0,3.0,2.0,0.0,5.0,5.0,408.2270208746195,2.0,1.0,phase_2,go,500.0,450.0,1.0,,,,,,,,,green,triangle
0.0,2.0,1.0,0.0,6.0,6.0,585.2447412908077,2.0,1.0,phase_2,go,500.0,450.0,1.0,,,,,,,,,blue,square
0.0,6.0,1.0,1.0,5.0,5.0,527.043929323554,2.0,1.0,phase_2,stop,500.0,450.0,3.0,,,,,,,,,gray,cross
0.0,6.0,1.0,1.0,5.0,5.0,535.5386398732662,2.0,1.0,phase_2,stop,450.0,450.0,3.0,,,,,,,,,gray,cross
0.0,8.0,4.0,1.0,6.0,0.0,0.0,2.0,1.0,phase_2,stop,400.0,450.0,4.0,,,,,,,,,yellow,circle
0.0,1.0,0.5,0.0,5.0,5.0,1262.0617430657148,2.0,1.0,phase_2,go,400.0,500.0,1.0,,,,,,,,,orange,I
0.0,1.0,0.5,0.0,6.0,0.0,0.0,2.0,1.0,phase_2,go,400.0,500.0,5.0,,,,,,,,,orange,I
0.0,6.0,1.0,1.0,6.0,6.0,520.9042020142078,2.0,1.0,phase_2,stop,400.0,500.0,3.0,,,,,,,,,gray,cross
0.0,4.0,4.0,0.0,6.0,6.0,508.6263045668602,2.0,1.0,phase_2,go,400.0,450.0,1.0,,,,,,,,,white,hexagon
0.0,5.0,0.5,1.0,6.0,6.0,387.0934173464775,2.0,1.0,phase_2,stop,400.0,450.0,3.0,,,,,,,,,magenta,flipped triangle
0.0,7.0,2.0,1.0,6.0,0.0,0.0,2.0,1.0,phase_2,stop,400.0,400.0,4.0,,,,,,,,,cyan,diamond
0.0,2.0,1.0,0.0,5.0,5.0,674.1269659250975,2.0,1.0,phase_2,go,400.0,450.0,1.0,,,,,,,,,blue,square
0.0,5.0,0.5,1.0,6.0,0.0,0.0,2.0,1.0,phase_2,stop,400.0,450.0,4.0,,,,,,,,,magenta,flipped triangle
0.0,5.0,0.5,1.0,5.0,0.0,0.0,2.0,1.0,phase_2,stop,400.0,500.0,4.0,,,,,,,,,magenta,flipped triangle
0.0,6.0,1.0,1.0,5.0,0.0,0.0,2.0,1.0,phase_2,stop,450.0,500.0,4.0,,,,,,,,,gray,cross
0.0,3.0,2.0,0.0,6.0,6.0,759.1739315539598,2.0,1.0,phase_2,go,500.0,500.0,1.0,,,,,,,,,green,triangle
0.0,5.0,0.5,1.0,6.0,0.0,0.0,2.0,1.0,phase_2,stop,500.0,500.0,4.0,,,,,,,,,magenta,flipped triangle
0.0,6.0,1.0,1.0,6.0,0.0,0.0,2.0,1.0,phase_2,stop,500.0,550.0,4.0,,,,,,,,,gray,cross
0.0,4.0,4.0,0.0,5.0,5.0,824.299518018961,2.0,1.0,phase_2,go,500.0,600.0,1.0,,,,,,,,,white,hexagon
0.0,4.0,4.0,0.0,6.0,6.0,752.6489663869143,3.0,1.0,phase_2,go,500.0,600.0,1.0,,,,,,,,,white,hexagon
0.0,7.0,2.0,1.0,5.0,5.0,480.5893376469612,3.0,1.0,phase_2,stop,500.0,600.0,3.0,,,,,,,,,cyan,diamond
0.0,8.0,4.0,1.0,5.0,5.0,1081.465719267726,3.0,1.0,phase_2,go,450.0,600.0,1.0,,,,,,,,,yellow,circle
0.0,6.0,1.0,1.0,6.0,6.0,455.119214951992,3.0,1.0,phase_2,go,450.0,600.0,1.0,,,,,,,,,gray,cross
0.0,5.0,0.5,1.0,6.0,6.0,542.4499120563269,3.0,1.0,phase_2,go,450.0,600.0,1.0,,,,,,,,,magenta,flipped triangle
0.0,6.0,1.0,1.0,5.0,5.0,552.1396175026894,3.0,1.0,phase_2,go,450.0,600.0,1.0,,,,,,,,,gray,cross
0.0,2.0,1.0,0.0,6.0,6.0,566.6395034641027,3.0,1.0,phase_2,go,450.0,600.0,1.0,,,,,,,,,blue,square
0.0,3.0,2.0,0.0,5.0,5.0,375.359084457159,3.0,1.0,phase_2,go,450.0,600.0,1.0,,,,,,,,,green,triangle
0.0,3.0,2.0,0.0,5.0,5.0,374.3801582604646,3.0,1.0,phase_2,go,450.0,600.0,1.0,,,,,,,,,green,triangle
0.0,4.0,4.0,0.0,6.0,6.0,390.7303847372532,3.0,1.0,phase_2,go,450.0,600.0,1.0,,,,,,,,,white,hexagon
0.0,7.0,2.0,1.0,5.0,5.0,334.4436474144459,3.0,1.0,phase_2,stop,450.0,600.0,3.0,,,,,,,,,cyan,diamond
0.0,1.0,0.5,0.0,5.0,5.0,642.915116623044,3.0,1.0,phase_2,go,400.0,600.0,1.0,,,,,,,,,orange,I
0.0,4.0,4.0,0.0,6.0,6.0,338.3125830441713,3.0,1.0,phase_2,go,400.0,600.0,1.0,,,,,,,,,white,hexagon
0.0,4.0,4.0,0.0,6.0,6.0,812.2964762151241,3.0,1.0,phase_2,go,400.0,600.0,1.0,,,,,,,,,white,hexagon
0.0,5.0,0.5,1.0,6.0,6.0,403.8476329296827,3.0,1.0,phase_2,stop,400.0,600.0,3.0,,,,,,,,,magenta,flipped triangle
0.0,4.0,4.0,0.0,6.0,6.0,416.5079612284899,3.0,1.0,phase_2,go,400.0,550.0,1.0,,,,,,,,,white,hexagon
0.0,5.0,0.5,1.0,5.0,0.0,0.0,3.0,1.0,phase_2,stop,400.0,550.0,4.0,,,,,,,,,magenta,flipped triangle
0.0,6.0,1.0,1.0,6.0,0.0,0.0,3.0,1.0,phase_2,stop,450.0,550.0,4.0,,,,,,,,,gray,cross
0.0,6.0,1.0,1.0,6.0,0.0,0.0,3.0,1.0,phase_2,stop,450.0,600.0,4.0,,,,,,,,,gray,cross
0.0,3.0,2.0,0.0,6.0,6.0,1233.7640598416328,3.0,1.0,phase_2,go,450.0,650.0,1.0,,,,,,,,,green,triangle
0.0,4.0,4.0,0.0,6.0,6.0,390.9300249069929,3.0,1.0,phase_2,go,450.0,650.0,1.0,,,,,,,,,white,hexagon
0.0,4.0,4.0,0.0,6.0,6.0,559.2962261289358,3.0,1.0,phase_2,go,450.0,650.0,1.0,,,,,,,,,white,hexagon
0.0,3.0,2.0,0.0,5.0,5.0,526.8864668905735,3.0,1.0,phase_2,go,450.0,650.0,1.0,,,,,,,,,green,triangle
0.0,1.0,0.5,0.0,6.0,6.0,478.020267561078,3.0,1.0,phase_2,go,450.0,650.0,1.0,,,,,,,,,orange,I
0.0,8.0,4.0,1.0,6.0,6.0,415.5238624662161,3.0,1.0,phase_2,stop,450.0,650.0,3.0,,,,,,,,,yellow,circle
0.0,2.0,1.0,0.0,6.0,6.0,467.1386852860451,3.0,1.0,phase_2,go,450.0,600.0,1.0,,,,,,,,,blue,square
0.0,4.0,4.0,0.0,5.0,5.0,563.6589862406254,3.0,1.0,phase_2,go,450.0,600.0,1.0,,,,,,,,,white,hexagon
0.0,1.0,0.5,0.0,5.0,5.0,602.245170623064,3.0,1.0,phase_2,go,450.0,600.0,1.0,,,,,,,,,orange,I
0.0,4.0,4.0,0.0,6.0,6.0,417.681060731411,3.0,1.0,phase_2,go,450.0,600.0,1.0,,,,,,,,,white,hexagon
0.0,8.0,4.0,1.0,6.0,6.0,417.9833754897117,3.0,1.0,phase_2,go,450.0,600.0,1.0,,,,,,,,,yellow,circle
0.0,2.0,1.0,0.0,6.0,6.0,419.2403052002191,3.0,1.0,phase_2,go,450.0,600.0,1.0,,,,,,,,,blue,square
0.0,3.0,2.0,0.0,5.0,5.0,417.6461398601532,3.0,1.0,phase_2,go,450.0,600.0,1.0,,,,,,,,,green,triangle
0.0,8.0,4.0,1.0,6.0,6.0,311.8026107549667,3.0,1.0,phase_2,stop,450.0,600.0,3.0,,,,,,,,,yellow,circle
0.0,7.0,2.0,1.0,6.0,6.0,434.8810967057943,3.0,1.0,phase_2,stop,450.0,550.0,3.0,,,,,,,,,cyan,diamond
0.0,5.0,0.5,1.0,5.0,0.0,0.0,3.0,1.0,phase_2,stop,450.0,500.0,4.0,,,,,,,,,magenta,flipped triangle
0.0,3.0,2.0,0.0,6.0,6.0,847.8932082653046,3.0,1.0,phase_2,go,500.0,500.0,1.0,,,,,,,,,green,triangle
0.0,4.0,4.0,0.0,5.0,5.0,617.602463811636,4.0,1.0,phase_2,go,500.0,500.0,1.0,,,,,,,,,white,hexagon
0.0,4.0,4.0,0.0,5.0,5.0,473.3812436461448,4.0,1.0,phase_2,go,500.0,500.0,1.0,,,,,,,,,white,hexagon
0.0,8.0,4.0,1.0,6.0,6.0,358.4177047014236,4.0,1.0,phase_2,stop,500.0,500.0,3.0,,,,,,,,,yellow,circle
0.0,1.0,0.5,0.0,5.0,5.0,352.8533782809973,4.0,1.0,phase_2,go,500.0,450.0,1.0,,,,,,,,,orange,I
0.0,2.0,1.0,0.0,6.0,6.0,365.6173255294561,4.0,1.0,phase_2,go,500.0,450.0,1.0,,,,,,,,,blue,square
0.0,2.0,1.0,0.0,6.0,6.0,406.5852388739586,4.0,1.0,phase_2,go,500.0,450.0,1.0,,,,,,,,,blue,square
0.0,4.0,4.0,0.0,5.0,5.0,524.4629755616188,4.0,1.0,phase_2,go,500.0,450.0,1.0,,,,,,,,,white,hexagon
0.0,7.0,2.0,1.0,5.0,5.0,350.2727951854467,4.0,1.0,phase_2,stop,500.0,450.0,3.0,,,,,,,,,cyan,diamond
0.0,7.0,2.0,1.0,5.0,5.0,405.7642612606287,4.0,1.0,phase_2,go,450.0,450.0,1.0,,,,,,,,,cyan,diamond
0.0,2.0,1.0,0.0,6.0,6.0,324.2950048297643,4.0,1.0,phase_2,go,450.0,450.0,1.0,,,,,,,,,blue,square
0.0,3.0,2.0,0.0,6.0,6.0,339.3243197351694,4.0,1.0,phase_2,go,450.0,450.0,1.0,,,,,,,,,green,triangle
0.0,3.0,2.0,0.0,5.0,5.0,276.47415548563,4.0,1.0,phase_2,go,450.0,450.0,1.0,,,,,,,,,green,triangle
0.0,6.0,1.0,1.0,6.0,6.0,379.858024418354,4.0,1.0,phase_2,stop,450.0,450.0,3.0,,,,,,,,,gray,cross
0.0,7.0,2.0,1.0,5.0,5.0,488.3301500231027,4.0,1.0,phase_2,stop,450.0,400.0,3.0,,,,,,,,,cyan,diamond
0.0,2.0,1.0,0.0,5.0,5.0,426.4958556741476,4.0,1.0,phase_2,go,400.0,400.0,1.0,,,,,,,,,blue,square
0.0,6.0,1.0,1.0,6.0,6.0,281.9681651890278,4.0,1.0,phase_2,stop,400.0,400.0,3.0,,,,,,,,,gray,cross
0.0,2.0,1.0,0.0,5.0,5.0,745.0205273926258,4.0,1.0,phase_2,go,400.0,350.0,1.0,,,,,,,,,blue,square
0.0,1.0,0.5,0.0,5.0,5.0,384.6960049122572,4.0,1.0,phase_2,go,400.0,350.0,1.0,,,,,,,,,orange,I
0.0,5.0,0.5,1.0,6.0,6.0,262.7492360770702,4.0,1.0,phase_2,go,400.0,350.0,1.0,,,,,,,,,magenta,flipped triangle
0.0,1.0,0.5,0.0,5.0,5.0,432.2389010339975,4.0,1.0,phase_2,go,400.0,350.0,1.0,,,,,,,,,orange,I
0.0,5.0,0.5,1.0,5.0,5.0,455.1379512995481,4.0,1.0,phase_2,stop,400.0,350.0,3.0,,,,,,,,,magenta,flipped triangle
0.0,2.0,1.0,0.0,6.0,6.0,372.1650969237089,4.0,1.0,phase_2,go,350.0,350.0,1.0,,,,,,,,,blue,square
0.0,8.0,4.0,1.0,5.0,5.0,855.1417235285044,4.0,1.0,phase_2,go,350.0,350.0,1.0,,,,,,,,,yellow,circle
0.0,5.0,0.5,1.0,5.0,0.0,0.0,4.0,1.0,phase_2,stop,350.0,350.0,4.0,,,,,,,,,magenta,flipped triangle
0.0,8.0,4.0,1.0,5.0,0.0,0.0,4.0,1.0,phase_2,stop,400.0,350.0,4.0,,,,,,,,,yellow,circle
0.0,1.0,0.5,0.0,6.0,6.0,491.112245246768,4.0,1.0,phase_2,go,450.0,350.0,1.0,,,,,,,,,orange,I
0.0,7.0,2.0,1.0,6.0,6.0,403.3659994602203,4.0,1.0,phase_2,stop,450.0,350.0,3.0,,,,,,,,,cyan,diamond
0.0,2.0,1.0,0.0,5.0,5.0,760.4533191770315,4.0,1.0,phase_2,go,450.0,300.0,1.0,,,,,,,,,blue,square
0.0,6.0,1.0,1.0,5.0,5.0,361.9645610451698,4.0,1.0,phase_2,stop,450.0,300.0,3.0,,,,,,,,,gray,cross
0.0,4.0,4.0,0.0,6.0,6.0,999.3317127227784,4.0,1.0,phase_2,go,400.0,300.0,1.0,,,,,,,,,white,hexagon
0.0,2.0,1.0,0.0,6.0,6.0,466.9331349432468,4.0,1.0,phase_2,go,400.0,300.0,1.0,,,,,,,,,blue,square
0.0,1.0,0.5,0.0,6.0,6.0,663.9932356774807,4.0,1.0,phase_2,go,400.0,300.0,1.0,,,,,,,,,orange,I
0.0,3.0,2.0,0.0,5.0,5.0,1253.660064190626,4.0,1.0,phase_2,go,400.0,300.0,1.0,,,,,,,,,green,triangle
0.0,5.0,0.5,1.0,5.0,5.0,454.0367629379034,4.0,1.0,phase_2,stop,400.0,300.0,3.0,,,,,,,,,magenta,flipped triangle
0.0,5.0,0.5,1.0,6.0,6.0,325.5791310220957,4.0,1.0,phase_2,stop,350.0,300.0,3.0,,,,,,,,,magenta,flipped triangle
0.0,5.0,0.5,1.0,5.0,0.0,0.0,4.0,1.0,phase_2,stop,350.0,250.0,4.0,,,,,,,,,magenta,flipped triangle
0.0,7.0,2.0,1.0,5.0,5.0,519.7840835899115,5.0,1.0,phase_2,go,400.0,250.0,1.0,,,,,,,,,cyan,diamond
0.0,5.0,0.5,1.0,5.0,5.0,408.5801970213651,5.0,1.0,phase_2,go,400.0,250.0,1.0,,,,,,,,,magenta,flipped triangle
0.0,6.0,1.0,1.0,6.0,6.0,327.2000961005687,5.0,1.0,phase_2,stop,400.0,250.0,3.0,,,,,,,,,gray,cross
0.0,8.0,4.0,1.0,6.0,6.0,739.6814711391926,5.0,1.0,phase_2,go,400.0,200.0,1.0,,,,,,,,,yellow,circle
0.0,4.0,4.0,0.0,5.0,5.0,420.8532124757767,5.0,1.0,phase_2,go,400.0,200.0,1.0,,,,,,,,,white,hexagon
0.0,2.0,1.0,0.0,5.0,5.0,460.6504961848259,5.0,1.0,phase_2,go,400.0,200.0,1.0,,,,,,,,,blue,square
0.0,1.0,0.5,0.0,6.0,6.0,939.4580312073232,5.0,1.0,phase_2,go,400.0,200.0,1.0,,,,,,,,,orange,I
0.0,1.0,0.5,0.0,5.0,5.0,595.8222597837448,5.0,1.0,phase_2,go,400.0,200.0,1.0,,,,,,,,,orange,I
0.0,7.0,2.0,1.0,6.0,0.0,0.0,5.0,1.0,phase_2,stop,400.0,200.0,4.0,,,,,,,,,cyan,diamond
0.0,1.0,0.5,0.0,6.0,6.0,377.4009682238102,5.0,1.0,phase_2,go,400.0,250.0,1.0,,,,,,,,,orange,I
0.0,6.0,1.0,1.0,6.0,6.0,332.076309248805,5.0,1.0,phase_2,go,400.0,250.0,1.0,,,,,,,,,gray,cross
0.0,3.0,2.0,0.0,6.0,6.0,408.8718313723802,5.0,1.0,phase_2,go,400.0,250.0,1.0,,,,,,,,,green,triangle
0.0,1.0,0.5,0.0,5.0,5.0,464.8433234542608,5.0,1.0,phase_2,go,400.0,250.0,1.0,,,,,,,,,orange,I
0.0,1.0,0.5,0.0,6.0,6.0,472.6312682032585,5.0,1.0,phase_2,go,400.0,250.0,1.0,,,,,,,,,orange,I
0.0,7.0,2.0,1.0,6.0,0.0,0.0,5.0,1.0,phase_2,stop,400.0,250.0,4.0,,,,,,,,,cyan,diamond
0.0,6.0,1.0,1.0,5.0,5.0,440.4089972376823,5.0,1.0,phase_2,stop,400.0,300.0,3.0,,,,,,,,,gray,cross
0.0,3.0,2.0,0.0,6.0,6.0,1439.019901677966,5.0,1.0,phase_2,go,350.0,300.0,1.0,,,,,,,,,green,triangle
0.0,8.0,4.0,1.0,5.0,5.0,296.4800633490085,5.0,1.0,phase_2,stop,350.0,300.0,3.0,,,,,,,,,yellow,circle
0.0,7.0,2.0,1.0,5.0,0.0,0.0,5.0,1.0,phase_2,stop,300.0,300.0,4.0,,,,,,,,,cyan,diamond
0.0,4.0,4.0,0.0,5.0,5.0,995.4885207116604,5.0,1.0,phase_2,go,350.0,300.0,1.0,,,,,,,,,white,hexagon
0.0,6.0,1.0,1.0,5.0,5.0,638.0742322653532,5.0,1.0,phase_2,go,350.0,300.0,1.0,,,,,,,,,gray,cross
0.0,7.0,2.0,1.0,6.0,6.0,363.3628655225038,5.0,1.0,phase_2,stop,350.0,300.0,3.0,,,,,,,,,cyan,diamond
0.0,4.0,4.0,0.0,5.0,5.0,1059.905108064413,5.0,1.0,phase_2,go,350.0,250.0,1.0,,,,,,,,,white,hexagon
0.0,5.0,0.5,1.0,6.0,6.0,427.6170860975981,5.0,1.0,phase_2,go,350.0,250.0,1.0,,,,,,,,,magenta,flipped triangle
0.0,5.0,0.5,1.0,6.0,6.0,836.4438954740763,5.0,1.0,phase_2,go,350.0,250.0,1.0,,,,,,,,,magenta,flipped triangle
0.0,3.0,2.0,0.0,6.0,6.0,354.536609724164,5.0,1.0,phase_2,go,350.0,250.0,1.0,,,,,,,,,green,triangle
0.0,1.0,0.5,0.0,5.0,5.0,370.2624104917049,5.0,1.0,phase_2,go,350.0,250.0,1.0,,,,,,,,,orange,I
0.0,6.0,1.0,1.0,5.0,5.0,423.6129038035869,5.0,1.0,phase_2,go,350.0,250.0,1.0,,,,,,,,,gray,cross
0.0,8.0,4.0,1.0,5.0,5.0,446.942638605833,5.0,1.0,phase_2,stop,350.0,250.0,3.0,,,,,,,,,yellow,circle
0.0,1.0,0.5,0.0,5.0,5.0,439.9618897587061,5.0,1.0,phase_2,go,300.0,250.0,1.0,,,,,,,,,orange,I
0.0,3.0,2.0,0.0,5.0,5.0,432.449921965599,5.0,1.0,phase_2,go,300.0,250.0,1.0,,,,,,,,,green,triangle
0.0,2.0,1.0,0.0,5.0,5.0,504.4904127717018,5.0,1.0,phase_2,go,300.0,250.0,1.0,,,,,,,,,blue,square
0.0,1.0,0.5,0.0,6.0,6.0,318.7352642416954,5.0,1.0,phase_2,go,300.0,250.0,1.0,,,,,,,,,orange,I
0.0,8.0,4.0,1.0,6.0,0.0,0.0,5.0,1.0,phase_2,stop,300.0,250.0,4.0,,,,,,,,,yellow,circle
0.0,2.0,1.0,0.0,6.0,6.0,619.196368381381,5.0,1.0,phase_2,go,300.0,300.0,1.0,,,,,,,,,blue,square
0.0,8.0,4.0,1.0,5.0,5.0,460.543530061841,5.0,1.0,phase_2,stop,300.0,300.0,3.0,,,,,,,,,yellow,circle
0.0,5.0,0.5,1.0,6.0,0.0,0.0,6.0,1.0,phase_2,stop,250.0,300.0,4.0,,,,,,,,,magenta,flipped triangle
0.0,7.0,2.0,1.0,6.0,6.0,781.3357729464769,6.0,1.0,phase_2,go,250.0,350.0,1.0,,,,,,,,,cyan,diamond
0.0,3.0,2.0,0.0,5.0,5.0,354.9106940627098,6.0,1.0,phase_2,go,250.0,350.0,1.0,,,,,,,,,green,triangle
0.0,5.0,0.5,1.0,6.0,6.0,517.7282225340605,6.0,1.0,phase_2,stop,250.0,350.0,3.0,,,,,,,,,magenta,flipped triangle
0.0,6.0,1.0,1.0,5.0,5.0,498.5660035163164,6.0,1.0,phase_2,go,250.0,300.0,1.0,,,,,,,,,gray,cross
0.0,8.0,4.0,1.0,5.0,5.0,377.4767983704805,6.0,1.0,phase_2,stop,250.0,300.0,3.0,,,,,,,,,yellow,circle
0.0,2.0,1.0,0.0,5.0,5.0,763.6906560510397,6.0,1.0,phase_2,go,200.0,300.0,1.0,,,,,,,,,blue,square
0.0,4.0,4.0,0.0,6.0,6.0,359.3965638428926,6.0,1.0,phase_2,go,200.0,300.0,1.0,,,,,,,,,white,hexagon
0.0,2.0,1.0,0.0,5.0,5.0,337.2616358101368,6.0,1.0,phase_2,go,200.0,300.0,1.0,,,,,,,,,blue,square
0.0,7.0,2.0,1.0,6.0,6.0,382.6862052083015,6.0,1.0,phase_2,stop,200.0,300.0,3.0,,,,,,,,,cyan,diamond
0.0,8.0,4.0,1.0,6.0,0.0,0.0,6.0,1.0,phase_2,stop,200.0,250.0,4.0,,,,,,,,,yellow,circle
0.0,7.0,2.0,1.0,5.0,0.0,0.0,6.0,1.0,phase_2,stop,200.0,300.0,4.0,,,,,,,,,cyan,diamond
0.0,1.0,0.5,0.0,5.0,5.0,759.8392926156521,6.0,1.0,phase_2,go,250.0,300.0,1.0,,,,,,,,,orange,I
0.0,2.0,1.0,0.0,6.0,6.0,1084.1486658900976,6.0,1.0,phase_2,go,250.0,300.0,1.0,,,,,,,,,blue,square
0.0,4.0,4.0,0.0,5.0,5.0,508.1396233290434,6.0,1.0,phase_2,go,250.0,300.0,1.0,,,,,,,,,white,hexagon
0.0,6.0,1.0,1.0,5.0,5.0,405.0666354596615,6.0,1.0,phase_2,go,250.0,300.0,1.0,,,,,,,,,gray,cross
0.0,4.0,4.0,0.0,6.0,6.0,306.588526815176,6.0,1.0,phase_2,go,250.0,300.0,1.0,,,,,,,,,white,hexagon
0.0,6.0,1.0,1.0,6.0,6.0,338.9374446123838,6.0,1.0,phase_2,stop,250.0,300.0,3.0,,,,,,,,,gray,cross
0.0,2.0,1.0,0.0,5.0,5.0,581.1776798218489,6.0,1.0,phase_2,go,250.0,250.0,1.0,,,,,,,,,blue,square
0.0,8.0,4.0,1.0,5.0,0.0,0.0,6.0,1.0,phase_2,stop,250.0,250.0,4.0,,,,,,,,,yellow,circle
0.0,8.0,4.0,1.0,6.0,0.0,0.0,6.0,1.0,phase_2,stop,300.0,250.0,4.0,,,,,,,,,yellow,circle
0.0,8.0,4.0,1.0,5.0,0.0,0.0,6.0,1.0,phase_2,stop,300.0,300.0,4.0,,,,,,,,,yellow,circle
0.0,3.0,2.0,0.0,6.0,0.0,0.0,6.0,1.0,phase_2,go,350.0,300.0,5.0,,,,,,,,,green,triangle
0.0,5.0,0.5,1.0,5.0,5.0,393.1831121444702,6.0,1.0,phase_2,stop,350.0,300.0,3.0,,,,,,,,,magenta,flipped triangle
0.0,2.0,1.0,0.0,5.0,5.0,734.0629734098911,6.0,1.0,phase_2,go,300.0,300.0,1.0,,,,,,,,,blue,square
0.0,6.0,1.0,1.0,6.0,6.0,381.5302643924951,6.0,1.0,phase_2,stop,300.0,300.0,3.0,,,,,,,,,gray,cross
0.0,3.0,2.0,0.0,6.0,6.0,968.0010545998812,6.0,1.0,phase_2,go,300.0,250.0,1.0,,,,,,,,,green,triangle
0.0,6.0,1.0,1.0,5.0,5.0,790.6646020710468,6.0,1.0,phase_2,go,300.0,250.0,1.0,,,,,,,,,gray,cross
0.0,7.0,2.0,1.0,6.0,0.0,0.0,6.0,1.0,phase_2,stop,300.0,250.0,4.0,,,,,,,,,cyan,diamond
0.0,2.0,1.0,0.0,6.0,6.0,923.6813765019178,6.0,1.0,phase_2,go,300.0,300.0,1.0,,,,,,,,,blue,square
0.0,5.0,0.5,1.0,6.0,6.0,379.8570446670055,6.0,1.0,phase_2,stop,300.0,300.0,3.0,,,,,,,,,magenta,flipped triangle
0.0,5.0,0.5,1.0,5.0,0.0,0.0,6.0,1.0,phase_2,stop,300.0,250.0,4.0,,,,,,,,,magenta,flipped triangle
0.0,1.0,0.5,0.0,6.0,6.0,958.0963831394912,6.0,1.0,phase_2,go,350.0,250.0,1.0,,,,,,,,,orange,I
0.0,1.0,0.5,0.0,6.0,6.0,740.2399964630604,6.0,1.0,phase_2,go,350.0,250.0,1.0,,,,,,,,,orange,I
0.0,8.0,4.0,1.0,6.0,6.0,363.8370521366596,6.0,1.0,phase_2,go,350.0,250.0,1.0,,,,,,,,,yellow,circle
0.0,8.0,4.0,1.0,5.0,5.0,458.0653794109821,6.0,1.0,phase_2,stop,350.0,250.0,3.0,,,,,,,,,yellow,circle
0.0,7.0,2.0,1.0,6.0,0.0,0.0,7.0,1.0,phase_2,stop,300.0,250.0,4.0,,,,,,,,,cyan,diamond
0.0,6.0,1.0,1.0,5.0,0.0,0.0,7.0,1.0,phase_2,stop,300.0,300.0,4.0,,,,,,,,,gray,cross
0.0,7.0,2.0,1.0,6.0,6.0,697.1440948545933,7.0,1.0,phase_2,go,350.0,300.0,1.0,,,,,,,,,cyan,diamond
0.0,3.0,2.0,0.0,6.0,6.0,472.54065051674837,7.0,1.0,phase_2,go,350.0,300.0,1.0,,,,,,,,,green,triangle
0.0,2.0,1.0,0.0,6.0,6.0,658.1734996289015,7.0,1.0,phase_2,go,350.0,300.0,1.0,,,,,,,,,blue,square
0.0,3.0,2.0,0.0,6.0,6.0,329.950762912631,7.0,1.0,phase_2,go,350.0,300.0,1.0,,,,,,,,,green,triangle
0.0,8.0,4.0,1.0,5.0,5.0,426.473468542099,7.0,1.0,phase_2,stop,350.0,300.0,3.0,,,,,,,,,yellow,circle
0.0,3.0,2.0,0.0,6.0,6.0,521.2390664964914,7.0,1.0,phase_2,go,300.0,300.0,1.0,,,,,,,,,green,triangle
0.0,1.0,0.5,0.0,5.0,5.0,511.9866393506527,7.0,1.0,phase_2,go,300.0,300.0,1.0,,,,,,,,,orange,I
0.0,7.0,2.0,1.0,5.0,0.0,0.0,7.0,1.0,phase_2,stop,300.0,300.0,4.0,,,,,,,,,cyan,diamond
0.0,7.0,2.0,1.0,5.0,5.0,973.6917112022638,7.0,1.0,phase_2,go,350.0,300.0,1.0,,,,,,,,,cyan,diamond
0.0,3.0,2.0,0.0,6.0,6.0,413.5202411562204,7.0,1.0,phase_2,go,350.0,300.0,1.0,,,,,,,,,green,triangle
0.0,6.0,1.0,1.0,6.0,6.0,371.7459850013256,7.0,1.0,phase_2,stop,350.0,300.0,3.0,,,,,,,,,gray,cross
0.0,3.0,2.0,0.0,6.0,6.0,735.2872602641582,7.0,1.0,phase_2,go,350.0,250.0,1.0,,,,,,,,,green,triangle
0.0,2.0,1.0,0.0,5.0,5.0,332.7409923076629,7.0,1.0,phase_2,go,350.0,250.0,1.0,,,,,,,,,blue,square
0.0,5.0,0.5,1.0,6.0,6.0,469.8663763701916,7.0,1.0,phase_2,stop,350.0,250.0,3.0,,,,,,,,,magenta,flipped triangle
0.0,2.0,1.0,0.0,5.0,5.0,699.6680181473494,7.0,1.0,phase_2,go,350.0,200.0,1.0,,,,,,,,,blue,square
0.0,8.0,4.0,1.0,6.0,0.0,0.0,7.0,1.0,phase_2,stop,350.0,200.0,4.0,,,,,,,,,yellow,circle
0.0,5.0,0.5,1.0,6.0,0.0,0.0,7.0,1.0,phase_2,stop,350.0,250.0,4.0,,,,,,,,,magenta,flipped triangle
0.0,4.0,4.0,0.0,5.0,0.0,0.0,7.0,1.0,phase_2,go,350.0,300.0,5.0,,,,,,,,,white,hexagon
0.0,7.0,2.0,1.0,6.0,6.0,943.6212331056596,7.0,1.0,phase_2,go,350.0,300.0,1.0,,,,,,,,,cyan,diamond
0.0,6.0,1.0,1.0,6.0,6.0,506.9415923207998,7.0,1.0,phase_2,stop,350.0,300.0,3.0,,,,,,,,,gray,cross
0.0,5.0,0.5,1.0,5.0,0.0,0.0,7.0,1.0,phase_2,stop,350.0,250.0,4.0,,,,,,,,,magenta,flipped triangle
0.0,8.0,4.0,1.0,6.0,6.0,438.2106680423021,7.0,1.0,phase_2,go,400.0,250.0,1.0,,,,,,,,,yellow,circle
0.0,3.0,2.0,0.0,6.0,6.0,927.7243465185164,7.0,1.0,phase_2,go,400.0,250.0,1.0,,,,,,,,,green,triangle
0.0,5.0,0.5,1.0,6.0,0.0,0.0,7.0,1.0,phase_2,stop,400.0,250.0,4.0,,,,,,,,,magenta,flipped triangle
0.0,3.0,2.0,0.0,5.0,5.0,981.839595362544,7.0,1.0,phase_2,go,400.0,300.0,1.0,,,,,,,,,green,triangle
0.0,5.0,0.5,1.0,5.0,0.0,0.0,7.0,1.0,phase_2,stop,400.0,300.0,4.0,,,,,,,,,magenta,flipped triangle
0.0,1.0,0.5,0.0,6.0,6.0,1131.252208724618,7.0,1.0,phase_2,go,450.0,300.0,1.0,,,,,,,,,orange,I
0.0,7.0,2.0,1.0,6.0,6.0,970.1799023896456,7.0,1.0,phase_2,go,450.0,300.0,1.0,,,,,,,,,cyan,diamond
0.0,6.0,1.0,1.0,5.0,0.0,0.0,7.0,1.0,phase_2,stop,450.0,300.0,4.0,,,,,,,,,gray,cross
0.0,6.0,1.0,1.0,5.0,0.0,0.0,7.0,1.0,phase_2,stop,500.0,300.0,4.0,,,,,,,,,gray,cross
0.0,8.0,4.0,1.0,6.0,0.0,0.0,7.0,1.0,phase_2,stop,550.0,300.0,4.0,,,,,,,,,yellow,circle
0.0,4.0,4.0,0.0,5.0,5.0,1073.9162862300873,7.0,1.0,phase_2,go,550.0,350.0,1.0,,,,,,,,,white,hexagon
0.0,1.0,0.5,0.0,6.0,6.0,538.4288132190704,7.0,1.0,phase_2,go,550.0,350.0,1.0,,,,,,,,,orange,I
0.0,4.0,4.0,0.0,6.0,6.0,590.9540615975857,7.0,1.0,phase_2,go,550.0,350.0,1.0,,,,,,,,,white,hexagon
0.0,7.0,2.0,1.0,6.0,6.0,524.335939437151,8.0,1.0,phase_2,stop,550.0,350.0,3.0,,,,,,,,,cyan,diamond
0.0,7.0,2.0,1.0,6.0,6.0,528.8641359657049,8.0,1.0,phase_2,go,550.0,300.0,1.0,,,,,,,,,cyan,diamond
0.0,7.0,2.0,1.0,5.0,5.0,444.1210310906172,8.0,1.0,phase_2,stop,550.0,300.0,3.0,,,,,,,,,cyan,diamond
0.0,8.0,4.0,1.0,5.0,5.0,922.273276373744,8.0,1.0,phase_2,go,500.0,300.0,1.0,,,,,,,,,yellow,circle
0.0,2.0,1.0,0.0,5.0,5.0,863.2873129099607,8.0,1.0,phase_2,go,500.0,300.0,1.0,,,,,,,,,blue,square
0.0,2.0,1.0,0.0,6.0,6.0,360.58764159679407,8.0,1.0,phase_2,go,500.0,300.0,1.0,,,,,,,,,blue,square
0.0,5.0,0.5,1.0,6.0,6.0,629.7098938375711,8.0,1.0,phase_2,go,500.0,300.0,1.0,,,,,,,,,magenta,flipped triangle
0.0,1.0,0.5,0.0,6.0,6.0,591.5746353566647,8.0,1.0,phase_2,go,500.0,300.0,1.0,,,,,,,,,orange,I
0.0,4.0,4.0,0.0,5.0,5.0,839.2759803682566,8.0,1.0,phase_2,go,500.0,300.0,1.0,,,,,,,,,white,hexagon
0.0,3.0,2.0,0.0,5.0,5.0,544.0433472394943,8.0,1.0,phase_2,go,500.0,300.0,1.0,,,,,,,,,green,triangle
0.0,3.0,2.0,0.0,5.0,5.0,420.6901267170906,8.0,1.0,phase_2,go,500.0,300.0,1.0,,,,,,,,,green,triangle
0.0,7.0,2.0,1.0,5.0,5.0,523.2137721031904,8.0,1.0,phase_2,stop,500.0,300.0,3.0,,,,,,,,,cyan,diamond
0.0,5.0,0.5,1.0,5.0,5.0,771.7369478195906,8.0,1.0,phase_2,go,450.0,300.0,1.0,,,,,,,,,magenta,flipped triangle
0.0,8.0,4.0,1.0,6.0,6.0,325.0344507396221,8.0,1.0,phase_2,stop,450.0,300.0,3.0,,,,,,,,,yellow,circle
0.0,6.0,1.0,1.0,5.0,5.0,468.6305392533541,8.0,1.0,phase_2,stop,450.0,250.0,3.0,,,,,,,,,gray,cross
0.0,5.0,0.5,1.0,5.0,0.0,0.0,8.0,1.0,phase_2,stop,400.0,250.0,4.0,,,,,,,,,magenta,flipped triangle
0.0,1.0,0.5,0.0,6.0,6.0,795.3900005668402,8.0,1.0,phase_2,go,450.0,250.0,1.0,,,,,,,,,orange,I
0.0,7.0,2.0,1.0,5.0,5.0,408.6126927286386,8.0,1.0,phase_2,stop,450.0,250.0,3.0,,,,,,,,,cyan,diamond
0.0,4.0,4.0,0.0,5.0,5.0,1321.451069787145,8.0,1.0,phase_2,go,400.0,250.0,1.0,,,,,,,,,white,hexagon
0.0,2.0,1.0,0.0,6.0,6.0,385.5619560927152,8.0,1.0,phase_2,go,400.0,250.0,1.0,,,,,,,,,blue,square
0.0,3.0,2.0,0.0,5.0,5.0,345.5118555575609,8.0,1.0,phase_2,go,400.0,250.0,1.0,,,,,,,,,green,triangle
0.0,8.0,4.0,1.0,5.0,0.0,0.0,8.0,1.0,phase_2,stop,400.0,250.0,4.0,,,,,,,,,yellow,circle
0.0,8.0,4.0,1.0,6.0,0.0,0.0,8.0,1.0,phase_2,stop,450.0,250.0,4.0,,,,,,,,,yellow,circle
0.0,6.0,1.0,1.0,6.0,0.0,0.0,8.0,1.0,phase_2,stop,450.0,300.0,4.0,,,,,,,,,gray,cross
0.0,8.0,4.0,1.0,6.0,6.0,804.1279651224613,8.0,1.0,phase_2,go,450.0,350.0,1.0,,,,,,,,,yellow,circle
0.0,1.0,0.5,0.0,6.0,6.0,908.2425311207772,8.0,1.0,phase_2,go,450.0,350.0,1.0,,,,,,,,,orange,I
0.0,6.0,1.0,1.0,6.0,6.0,390.6305637210607,8.0,1.0,phase_2,stop,450.0,350.0,3.0,,,,,,,,,gray,cross
0.0,8.0,4.0,1.0,5.0,5.0,814.3961634486914,8.0,1.0,phase_2,go,450.0,300.0,1.0,,,,,,,,,yellow,circle
0.0,6.0,1.0,1.0,5.0,5.0,451.8130347132683,8.0,1.0,phase_2,go,450.0,300.0,1.0,,,,,,,,,gray,cross
0.0,8.0,4.0,1.0,5.0,5.0,420.0896881520748,8.0,1.0,phase_2,stop,450.0,300.0,3.0,,,,,,,,,yellow,circle
0.0,3.0,2.0,0.0,6.0,6.0,337.3631201684475,8.0,1.0,phase_2,go,400.0,300.0,1.0,,,,,,,,,green,triangle
0.0,7.0,2.0,1.0,6.0,0.0,0.0,8.0,1.0,phase_2,stop,400.0,300.0,4.0,,,,,,,,,cyan,diamond
0.0,1.0,0.5,0.0,6.0,6.0,856.3311342149973,8.0,1.0,phase_2,go,400.0,350.0,1.0,,,,,,,,,orange,I
0.0,2.0,1.0,0.0,5.0,5.0,783.937081694603,8.0,1.0,phase_2,go,400.0,350.0,1.0,,,,,,,,,blue,square
0.0,4.0,4.0,0.0,6.0,6.0,385.631650686264,8.0,1.0,phase_2,go,400.0,350.0,1.0,,,,,,,,,white,hexagon
0.0,8.0,4.0,1.0,6.0,0.0,0.0,8.0,1.0,phase_2,stop,400.0,350.0,4.0,,,,,,,,,yellow,circle
0.0,1.0,0.5,0.0,7.0,5.0,1693.0503379553556,1.0,1.0,phase_3,,,,,132.0,3.0,176.0,264.0,88.0,220.0,132.0,44.0,orange,I
0.0,6.0,1.0,1.0,7.0,4.0,744.0574914216995,1.0,1.0,phase_3,,,,,44.0,1.0,88.0,264.0,220.0,44.0,176.0,132.0,gray,cross
0.0,1.0,0.5,0.0,7.0,2.0,419.2235469818115,1.0,1.0,phase_3,,,,,49.0,1.0,196.0,49.0,147.0,294.0,98.0,245.0,orange,I
0.0,3.0,2.0,0.0,7.0,6.0,1400.573940947652,1.0,1.0,phase_3,,,,,49.0,1.0,245.0,294.0,147.0,196.0,98.0,49.0,green,triangle
0.0,7.0,2.0,1.0,7.0,1.0,290.7728906720876,1.0,1.0,phase_3,,,,,176.0,4.0,176.0,264.0,220.0,88.0,44.0,132.0,cyan,diamond
0.0,1.0,0.5,0.0,7.0,5.0,1711.508311331272,1.0,1.0,phase_3,,,,,204.0,6.0,170.0,102.0,34.0,68.0,204.0,136.0,orange,I
0.0,3.0,2.0,0.0,7.0,2.0,342.9631665349006,1.0,1.0,phase_3,,,,,136.0,4.0,34.0,136.0,170.0,68.0,102.0,204.0,green,triangle
0.0,5.0,0.5,1.0,7.0,6.0,624.5755590498447,1.0,1.0,phase_3,,,,,68.0,2.0,170.0,136.0,102.0,204.0,34.0,68.0,magenta,flipped triangle
0.0,6.0,1.0,1.0,7.0,1.0,378.5698805004358,1.0,1.0,phase_3,,,,,216.0,4.0,216.0,108.0,270.0,54.0,162.0,324.0,gray,cross
0.0,1.0,0.5,0.0,7.0,5.0,220.8057008683681,1.0,1.0,phase_3,,,,,245.0,5.0,294.0,98.0,196.0,49.0,245.0,147.0,orange,I
0.0,2.0,1.0,0.0,7.0,2.0,245.1136913150549,1.0,1.0,phase_3,,,,,324.0,6.0,54.0,324.0,270.0,162.0,108.0,216.0,blue,square
0.0,8.0,4.0,1.0,7.0,6.0,438.5920166969299,1.0,1.0,phase_3,,,,,220.0,5.0,132.0,264.0,88.0,176.0,44.0,220.0,yellow,circle
0.0,8.0,4.0,1.0,7.0,5.0,296.1827479302883,1.0,1.0,phase_3,,,,,34.0,1.0,102.0,136.0,68.0,170.0,34.0,204.0,yellow,circle
0.0,8.0,4.0,1.0,7.0,1.0,223.134059458971,1.0,1.0,phase_3,,,,,216.0,4.0,216.0,108.0,270.0,54.0,162.0,324.0,yellow,circle
0.0,2.0,1.0,0.0,7.0,2.0,264.7309992462396,1.0,1.0,phase_3,,,,,234.0,6.0,156.0,234.0,195.0,39.0,117.0,78.0,blue,square
0.0,7.0,2.0,1.0,7.0,3.0,251.6373917460441,1.0,1.0,phase_3,,,,,234.0,6.0,39.0,117.0,234.0,78.0,156.0,195.0,cyan,diamond
0.0,4.0,4.0,0.0,7.0,6.0,429.7664798796177,1.0,1.0,phase_3,,,,,216.0,4.0,54.0,108.0,324.0,162.0,270.0,216.0,white,hexagon
0.0,5.0,0.5,1.0,7.0,5.0,319.3386029452085,1.0,1.0,phase_3,,,,,132.0,3.0,176.0,264.0,44.0,88.0,132.0,220.0,magenta,flipped triangle
0.0,4.0,4.0,0.0,7.0,4.0,255.1484853029251,1.0,1.0,phase_3,,,,,264.0,6.0,176.0,44.0,220.0,264.0,132.0,88.0,white,hexagon
0.0,3.0,2.0,0.0,7.0,3.0,255.4920390248298,1.0,1.0,phase_3,,,,,108.0,2.0,216.0,54.0,108.0,324.0,162.0,270.0,green,triangle
0.0,8.0,4.0,1.0,7.0,1.0,402.2051934152841,2.0,1.0,phase_3,,,,,245.0,5.0,245.0,147.0,294.0,98.0,49.0,196.0,yellow,circle
0.0,6.0,1.0,1.0,7.0,2.0,1027.53291092813,2.0,1.0,phase_3,,,,,78.0,2.0,234.0,78.0,39.0,195.0,117.0,156.0,gray,cross
0.0,1.0,0.5,0.0,7.0,3.0,381.0947462916374,2.0,1.0,phase_3,,,,,132.0,3.0,264.0,220.0,132.0,176.0,44.0,88.0,orange,I
0.0,3.0,2.0,0.0,7.0,4.0,366.7745273560285,2.0,1.0,phase_3,,,,,220.0,5.0,88.0,132.0,264.0,220.0,176.0,44.0,green,triangle
0.0,1.0,0.5,0.0,7.0,5.0,288.3805111050606,2.0,1.0,phase_3,,,,,68.0,2.0,102.0,34.0,136.0,204.0,68.0,170.0,orange,I
0.0,6.0,1.0,1.0,7.0,6.0,471.533715724945,2.0,1.0,phase_3,,,,,98.0,2.0,147.0,245.0,49.0,294.0,196.0,98.0,gray,cross
0.0,3.0,2.0,0.0,7.0,1.0,268.9510434865951,2.0,1.0,phase_3,,,,,270.0,5.0,270.0,162.0,54.0,216.0,324.0,108.0,green,triangle
0.0,5.0,0.5,1.0,7.0,2.0,242.9394330829382,2.0,1.0,phase_3,,,,,220.0,5.0,44.0,220.0,88.0,132.0,176.0,264.0,magenta,flipped triangle
0.0,3.0,2.0,0.0,7.0,3.0,276.03361569345,2.0,1.0,phase_3,,,,,195.0,5.0,117.0,234.0,195.0,78.0,39.0,156.0,green,triangle
0.0,5.0,0.5,1.0,7.0,4.0,213.3036218583583,2.0,1.0,phase_3,,,,,270.0,5.0,162.0,324.0,216.0,270.0,54.0,108.0,magenta,flipped triangle
0.0,1.0,0.5,0.0,7.0,5.0,261.8799954652786,2.0,1.0,phase_3,,,,,216.0,4.0,324.0,54.0,162.0,108.0,216.0,270.0,orange,I
0.0,7.0,2.0,1.0,7.0,6.0,370.3873455524444,2.0,1.0,phase_3,,,,,68.0,2.0,170.0,204.0,34.0,136.0,102.0,68.0,cyan,diamond
0.0,7.0,2.0,1.0,7.0,1.0,377.5257170200348,2.0,1.0,phase_3,,,,,98.0,2.0,98.0,245.0,196.0,294.0,49.0,147.0,cyan,diamond
0.0,7.0,2.0,1.0,7.0,2.0,254.05280850827688,2.0,1.0,phase_3,,,,,216.0,4.0,54.0,216.0,324.0,270.0,162.0,108.0,cyan,diamond
0.0,3.0,2.0,0.0,7.0,2.0,302.9618468135595,2.0,1.0,phase_3,,,,,102.0,3.0,136.0,102.0,204.0,68.0,170.0,34.0,green,triangle
0.0,8.0,4.0,1.0,7.0,1.0,244.8831461369991,2.0,1.0,phase_3,,,,,78.0,2.0,78.0,234.0,195.0,156.0,117.0,39.0,yellow,circle
0.0,1.0,0.5,0.0,7.0,2.0,232.4947379529476,2.0,1.0,phase_3,,,,,324.0,6.0,270.0,324.0,54.0,162.0,108.0,216.0,orange,I
0.0,5.0,0.5,1.0,7.0,3.0,267.3193793743849,2.0,1.0,phase_3,,,,,49.0,1.0,147.0,196.0,49.0,294.0,98.0,245.0,magenta,flipped triangle
0.0,2.0,1.0,0.0,7.0,4.0,282.9711735248565,2.0,1.0,phase_3,,,,,196.0,4.0,147.0,98.0,294.0,196.0,49.0,245.0,blue,square
0.0,7.0,2.0,1.0,7.0,5.0,347.2011312842369,2.0,1.0,phase_3,,,,,220.0,5.0,264.0,132.0,88.0,44.0,220.0,176.0,cyan,diamond
0.0,8.0,4.0,1.0,7.0,1.0,340.5177239328623,3.0,1.0,phase_3,,,,,264.0,6.0,264.0,176.0,220.0,88.0,132.0,44.0,yellow,circle
0.0,1.0,0.5,0.0,7.0,2.0,293.2309694588184,3.0,1.0,phase_3,,,,,156.0,4.0,39.0,156.0,117.0,195.0,78.0,234.0,orange,I
0.0,4.0,4.0,0.0,7.0,3.0,238.6957146227359,3.0,1.0,phase_3,,,,,176.0,4.0,88.0,132.0,176.0,44.0,264.0,220.0,white,hexagon
0.0,4.0,4.0,0.0,7.0,4.0,464.8926239460706,3.0,1.0,phase_3,,,,,39.0,1.0,117.0,234.0,78.0,39.0,156.0,195.0,white,hexagon
0.0,8.0,4.0,1.0,7.0,1.0,281.8576041609049,3.0,1.0,phase_3,,,,,195.0,5.0,195.0,39.0,117.0,156.0,234.0,78.0,yellow,circle
0.0,6.0,1.0,1.0,7.0,2.0,426.1764269322157,3.0,1.0,phase_3,,,,,162.0,3.0,270.0,162.0,54.0,324.0,216.0,108.0,gray,cross
0.0,2.0,1.0,0.0,7.0,6.0,236.7453947663307,3.0,1.0,phase_3,,,,,136.0,4.0,68.0,170.0,204.0,34.0,102.0,136.0,blue,square
0.0,8.0,4.0,1.0,7.0,1.0,245.2434059232473,3.0,1.0,phase_3,,,,,147.0,3.0,147.0,49.0,294.0,245.0,196.0,98.0,yellow,circle
0.0,4.0,4.0,0.0,7.0,4.0,1217.0789502561092,3.0,1.0,phase_3,,,,,147.0,3.0,98.0,294.0,196.0,147.0,49.0,245.0,white,hexagon
0.0,7.0,2.0,1.0,7.0,6.0,307.3088396340608,3.0,1.0,phase_3,,,,,204.0,6.0,34.0,68.0,102.0,170.0,136.0,204.0,cyan,diamond
0.0,4.0,4.0,0.0,7.0,2.0,290.6162720173597,3.0,1.0,phase_3,,,,,49.0,1.0,98.0,49.0,196.0,147.0,294.0,245.0,white,hexagon
0.0,2.0,1.0,0.0,7.0,5.0,526.6436636447906,3.0,1.0,phase_3,,,,,264.0,6.0,220.0,44.0,132.0,176.0,264.0,88.0,blue,square
0.0,4.0,4.0,0.0,7.0,5.0,471.0513465106487,3.0,1.0,phase_3,,,,,324.0,6.0,162.0,270.0,216.0,108.0,324.0,54.0,white,hexagon
0.0,3.0,2.0,0.0,7.0,5.0,645.7966193556786,3.0,1.0,phase_3,,,,,78.0,2.0,39.0,117.0,234.0,195.0,78.0,156.0,green,triangle
0.0,4.0,4.0,0.0,7.0,6.0,670.8388552069664,3.0,1.0,phase_3,,,,,170.0,5.0,136.0,102.0,68.0,34.0,204.0,170.0,white,hexagon
0.0,6.0,1.0,1.0,7.0,5.0,312.8874488174915,3.0,1.0,phase_3,,,,,102.0,3.0,68.0,34.0,204.0,136.0,102.0,170.0,gray,cross
0.0,2.0,1.0,0.0,7.0,1.0,372.8590402752161,3.0,1.0,phase_3,,,,,270.0,5.0,270.0,54.0,108.0,216.0,162.0,324.0,blue,square
0.0,7.0,2.0,1.0,7.0,2.0,318.2189222425222,3.0,1.0,phase_3,,,,,324.0,6.0,162.0,324.0,216.0,54.0,108.0,270.0,cyan,diamond
0.0,2.0,1.0,0.0,7.0,5.0,228.5759858787059,3.0,1.0,phase_3,,,,,264.0,6.0,44.0,176.0,132.0,88.0,264.0,220.0,blue,square
0.0,8.0,4.0,1.0,7.0,1.0,166.8058410286903,3.0,1.0,phase_3,,,,,216.0,4.0,216.0,324.0,54.0,162.0,270.0,108.0,yellow,circle
0.0,7.0,2.0,1.0,7.0,5.0,273.2494678348303,4.0,1.0,phase_3,,,,,49.0,1.0,147.0,245.0,196.0,98.0,49.0,294.0,cyan,diamond
0.0,2.0,1.0,0.0,7.0,6.0,346.5378358960151,4.0,1.0,phase_3,,,,,147.0,3.0,98.0,196.0,49.0,294.0,245.0,147.0,blue,square
0.0,4.0,4.0,0.0,7.0,2.0,309.5278311520815,4.0,1.0,phase_3,,,,,102.0,3.0,68.0,102.0,34.0,204.0,136.0,170.0,white,hexagon
0.0,7.0,2.0,1.0,7.0,5.0,358.5743680596351,4.0,1.0,phase_3,,,,,117.0,3.0,156.0,78.0,39.0,195.0,117.0,234.0,cyan,diamond
0.0,6.0,1.0,1.0,7.0,2.0,462.1066395193338,4.0,1.0,phase_3,,,,,234.0,6.0,117.0,234.0,195.0,156.0,39.0,78.0,gray,cross
0.0,5.0,0.5,1.0,7.0,5.0,272.2440473735332,4.0,1.0,phase_3,,,,,156.0,4.0,78.0,117.0,39.0,195.0,156.0,234.0,magenta,flipped triangle
0.0,2.0,1.0,0.0,7.0,5.0,522.5236006081104,4.0,1.0,phase_3,,,,,195.0,5.0,78.0,234.0,156.0,117.0,195.0,39.0,blue,square
0.0,8.0,4.0,1.0,7.0,6.0,468.8518829643726,4.0,1.0,phase_3,,,,,170.0,5.0,102.0,136.0,204.0,34.0,68.0,170.0,yellow,circle
0.0,3.0,2.0,0.0,7.0,2.0,435.5535190552473,4.0,1.0,phase_3,,,,,44.0,1.0,132.0,44.0,220.0,264.0,176.0,88.0,green,triangle
0.0,5.0,0.5,1.0,7.0,4.0,317.2739297151565,4.0,1.0,phase_3,,,,,162.0,3.0,54.0,324.0,216.0,162.0,270.0,108.0,magenta,flipped triangle
0.0,6.0,1.0,1.0,7.0,6.0,518.8595075160265,4.0,1.0,phase_3,,,,,102.0,3.0,34.0,204.0,68.0,136.0,170.0,102.0,gray,cross
0.0,5.0,0.5,1.0,7.0,4.0,558.7653331458569,4.0,1.0,phase_3,,,,,245.0,5.0,294.0,98.0,196.0,245.0,49.0,147.0,magenta,flipped triangle
0.0,6.0,1.0,1.0,7.0,5.0,345.6775434315204,4.0,1.0,phase_3,,,,,176.0,4.0,132.0,44.0,88.0,264.0,176.0,220.0,gray,cross
0.0,5.0,0.5,1.0,7.0,4.0,821.1244232952595,4.0,1.0,phase_3,,,,,156.0,4.0,39.0,78.0,234.0,156.0,195.0,117.0,magenta,flipped triangle
0.0,3.0,2.0,0.0,7.0,2.0,355.8413162827492,4.0,1.0,phase_3,,,,,98.0,2.0,147.0,98.0,196.0,49.0,294.0,245.0,green,triangle
0.0,2.0,1.0,0.0,7.0,4.0,541.800444945693,4.0,1.0,phase_3,,,,,204.0,6.0,136.0,170.0,34.0,204.0,68.0,102.0,blue,square
0.0,6.0,1.0,1.0,7.0,4.0,520.2577225863934,4.0,1.0,phase_3,,,,,245.0,5.0,49.0,294.0,147.0,245.0,196.0,98.0,gray,cross
0.0,4.0,4.0,0.0,7.0,6.0,343.2328756898641,4.0,1.0,phase_3,,,,,78.0,2.0,117.0,234.0,156.0,39.0,195.0,78.0,white,hexagon
0.0,5.0,0.5,1.0,7.0,1.0,306.6120129078626,4.0,1.0,phase_3,,,,,170.0,5.0,170.0,204.0,136.0,34.0,102.0,68.0,magenta,flipped triangle
0.0,1.0,0.5,0.0,7.0,2.0,299.4152083992958,4.0,1.0,phase_3,,,,,78.0,2.0,234.0,78.0,117.0,156.0,39.0,195.0,orange,I
