raw_reward_magnitude,stim_reward,stepwise_reward_magnitude,paired_with_stopping,stim_location,response,reaction_time,block,num_trial_presentations,which_phase,stop_signal_trial_type,left_SSD,right_SSD,accuracy,chosen_bidding_amount,chosen_bidding_level,possible_bid_1,possible_bid_2,possible_bid_3,possible_bid_4,possible_bid_5,possible_bid_6,color_text,shape_text
398.0,4.0,4.0,0.0,2.0,2.0,660.6275569647551,1.0,1.0,phase_1,,,,,,,,,,,,,gray,square
215.0,7.0,3.0,1.0,4.0,4.0,554.6036157757044,1.0,1.0,phase_1,,,,,,,,,,,,,blue,circle
0.0,3.0,0.0,0.0,4.0,4.0,568.2582203298807,1.0,1.0,phase_1,,,,,,,,,,,,,yellow,flipped triangle
106.0,6.0,2.0,1.0,4.0,4.0,692.6327366381884,1.0,1.0,phase_1,,,,,,,,,,,,,orange,triangle
405.0,8.0,4.0,1.0,4.0,4.0,486.9298115372658,1.0,1.0,phase_1,,,,,,,,,,,,,green,cross
194.0,3.0,3.0,0.0,2.0,2.0,373.0909451842308,1.0,1.0,phase_1,,,,,,,,,,,,,yellow,flipped triangle
402.0,8.0,4.0,1.0,1.0,1.0,376.6601346433162,1.0,1.0,phase_1,,,,,,,,,,,,,green,cross
399.0,8.0,4.0,1.0,2.0,2.0,285.5444196611643,1.0,1.0,phase_1,,,,,,,,,,,,,green,cross
119.0,6.0,2.0,1.0,1.0,1.0,481.2134448438883,1.0,1.0,phase_1,,,,,,,,,,,,,orange,triangle
199.0,3.0,3.0,0.0,2.0,2.0,302.1482825279236,1.0,1.0,phase_1,,,,,,,,,,,,,yellow,flipped triangle
177.0,3.0,3.0,0.0,3.0,3.0,564.8377723991871,1.0,1.0,phase_1,,,,,,,,,,,,,yellow,flipped triangle
188.0,7.0,3.0,1.0,2.0,2.0,465.6069055199623,1.0,1.0,phase_1,,,,,,,,,,,,,blue,circle
392.0,4.0,4.0,0.0,3.0,3.0,510.4782357811928,1.0,1.0,phase_1,,,,,,,,,,,,,gray,square
28.0,5.0,1.0,1.0,3.0,3.0,530.488908290863,1.0,1.0,phase_1,,,,,,,,,,,,,white,hexagon
52.0,5.0,1.0,1.0,3.0,3.0,437.7790875732898,1.0,1.0,phase_1,,,,,,,,,,,,,white,hexagon
114.0,2.0,2.0,0.0,3.0,3.0,458.3407212048769,1.0,1.0,phase_1,,,,,,,,,,,,,magenta,diamond
100.0,2.0,2.0,0.0,3.0,3.0,283.0316964536905,1.0,1.0,phase_1,,,,,,,,,,,,,magenta,diamond
380.0,4.0,4.0,0.0,1.0,1.0,564.3393006175756,1.0,1.0,phase_1,,,,,,,,,,,,,gray,square
119.0,2.0,2.0,0.0,3.0,3.0,379.2245909571647,1.0,1.0,phase_1,,,,,,,,,,,,,magenta,diamond
65.0,1.0,1.0,0.0,3.0,3.0,438.8348758220672,1.0,1.0,phase_1,,,,,,,,,,,,,cyan,I
75.0,2.0,2.0,0.0,4.0,4.0,410.4785975068807,1.0,1.0,phase_1,,,,,,,,,,,,,magenta,diamond
71.0,1.0,1.0,0.0,1.0,1.0,480.7216487824917,1.0,1.0,phase_1,,,,,,,,,,,,,cyan,I
178.0,7.0,3.0,1.0,3.0,3.0,443.8770283013582,1.0,1.0,phase_1,,,,,,,,,,,,,blue,circle
104.0,2.0,2.0,0.0,4.0,4.0,426.494175568223,1.0,1.0,phase_1,,,,,,,,,,,,,magenta,diamond
0.0,8.0,0.0,1.0,3.0,3.0,596.2204579263926,1.0,1.0,phase_1,,,,,,,,,,,,,green,cross
124.0,6.0,2.0,1.0,3.0,3.0,434.8604697734117,1.0,1.0,phase_1,,,,,,,,,,,,,orange,triangle
0.0,4.0,0.0,0.0,4.0,4.0,429.9482014030218,1.0,1.0,phase_1,,,,,,,,,,,,,gray,square
0.0,8.0,0.0,1.0,4.0,4.0,403.5382457077503,1.0,1.0,phase_1,,,,,,,,,,,,,green,cross
40.0,5.0,1.0,1.0,4.0,4.0,320.897813886404,1.0,1.0,phase_1,,,,,,,,,,,,,white,hexagon
420.0,8.0,4.0,1.0,4.0,4.0,251.9570328295231,1.0,1.0,phase_1,,,,,,,,,,,,,green,cross
123.0,2.0,2.0,0.0,4.0,4.0,329.9922365695238,1.0,1.0,phase_1,,,,,,,,,,,,,magenta,diamond
40.0,5.0,1.0,1.0,1.0,1.0,494.9974007904529,1.0,1.0,phase_1,,,,,,,,,,,,,white,hexagon
394.0,8.0,4.0,1.0,2.0,2.0,404.709380120039,1.0,1.0,phase_1,,,,,,,,,,,,,green,cross
119.0,2.0,2.0,0.0,1.0,1.0,329.4440936297178,1.0,1.0,phase_1,,,,,,,,,,,,,magenta,diamond
0.0,8.0,0.0,1.0,1.0,1.0,459.1047242283821,1.0,1.0,phase_1,,,,,,,,,,,,,green,cross
383.0,8.0,4.0,1.0,4.0,4.0,367.7305374294519,1.0,1.0,phase_1,,,,,,,,,,,,,green,cross
113.0,6.0,2.0,1.0,2.0,2.0,486.0610365867615,1.0,1.0,phase_1,,,,,,,,,,,,,orange,triangle
394.0,4.0,4.0,0.0,4.0,4.0,377.4397727102041,1.0,1.0,phase_1,,,,,,,,,,,,,gray,square
380.0,8.0,4.0,1.0,2.0,2.0,433.0024868249893,1.0,1.0,phase_1,,,,,,,,,,,,,green,cross
31.0,1.0,1.0,0.0,1.0,1.0,397.5255992263555,1.0,1.0,phase_1,,,,,,,,,,,,,cyan,I
78.0,6.0,2.0,1.0,1.0,1.0,490.4414098709821,1.0,1.0,phase_1,,,,,,,,,,,,,orange,triangle
45.0,5.0,1.0,1.0,4.0,4.0,356.5150648355484,1.0,1.0,phase_1,,,,,,,,,,,,,white,hexagon
121.0,6.0,2.0,1.0,1.0,1.0,394.9254807084799,1.0,1.0,phase_1,,,,,,,,,,,,,orange,triangle
100.0,6.0,2.0,1.0,4.0,4.0,341.3536045700311,1.0,1.0,phase_1,,,,,,,,,,,,,orange,triangle
0.0,1.0,0.0,0.0,4.0,4.0,532.0496652275324,1.0,1.0,phase_1,,,,,,,,,,,,,cyan,I
222.0,7.0,3.0,1.0,3.0,3.0,815.3381999582052,1.0,1.0,phase_1,,,,,,,,,,,,,blue,circle
407.0,8.0,4.0,1.0,1.0,1.0,719.1407680511475,1.0,1.0,phase_1,,,,,,,,,,,,,green,cross
67.0,5.0,1.0,1.0,2.0,2.0,395.3678924590349,1.0,1.0,phase_1,,,,,,,,,,,,,white,hexagon
53.0,5.0,1.0,1.0,3.0,3.0,656.6574554890394,1.0,1.0,phase_1,,,,,,,,,,,,,white,hexagon
420.0,4.0,4.0,0.0,1.0,1.0,545.766593888402,1.0,1.0,phase_1,,,,,,,,,,,,,gray,square
212.0,7.0,3.0,1.0,2.0,2.0,488.9523144811392,1.0,1.0,phase_1,,,,,,,,,,,,,blue,circle
57.0,5.0,1.0,1.0,3.0,3.0,379.0741413831711,1.0,1.0,phase_1,,,,,,,,,,,,,white,hexagon
416.0,4.0,4.0,0.0,2.0,2.0,584.5810137689114,1.0,1.0,phase_1,,,,,,,,,,,,,gray,square
0.0,2.0,0.0,0.0,4.0,4.0,342.4766398966312,1.0,1.0,phase_1,,,,,,,,,,,,,magenta,diamond
120.0,2.0,2.0,0.0,1.0,1.0,666.5248721837997,1.0,1.0,phase_1,,,,,,,,,,,,,magenta,diamond
0.0,7.0,0.0,1.0,2.0,2.0,264.2578519880771,1.0,1.0,phase_1,,,,,,,,,,,,,blue,circle
182.0,3.0,3.0,0.0,1.0,1.0,442.951051518321,1.0,1.0,phase_1,,,,,,,,,,,,,yellow,flipped triangle
0.0,7.0,0.0,1.0,4.0,4.0,321.8916580080986,1.0,1.0,phase_1,,,,,,,,,,,,,blue,circle
0.0,2.0,0.0,0.0,3.0,3.0,493.8814174383878,1.0,1.0,phase_1,,,,,,,,,,,,,magenta,diamond
0.0,6.0,0.0,1.0,2.0,2.0,395.2911756932735,1.0,1.0,phase_1,,,,,,,,,,,,,orange,triangle
0.0,8.0,0.0,1.0,1.0,1.0,398.1980308890342,1.0,1.0,phase_1,,,,,,,,,,,,,green,cross
388.0,8.0,4.0,1.0,3.0,3.0,297.9589179158211,1.0,1.0,phase_1,,,,,,,,,,,,,green,cross
0.0,4.0,0.0,0.0,4.0,4.0,362.6294899731874,1.0,1.0,phase_1,,,,,,,,,,,,,gray,square
399.0,8.0,4.0,1.0,1.0,1.0,470.9175266325474,1.0,1.0,phase_1,,,,,,,,,,,,,green,cross
404.0,4.0,4.0,0.0,4.0,4.0,352.5662627071142,1.0,1.0,phase_1,,,,,,,,,,,,,gray,square
381.0,8.0,4.0,1.0,2.0,2.0,404.6957585960626,1.0,1.0,phase_1,,,,,,,,,,,,,green,cross
66.0,5.0,1.0,1.0,4.0,4.0,508.4397178143263,1.0,1.0,phase_1,,,,,,,,,,,,,white,hexagon
405.0,8.0,4.0,1.0,3.0,3.0,366.5618766099214,1.0,1.0,phase_1,,,,,,,,,,,,,green,cross
208.0,3.0,3.0,0.0,3.0,3.0,420.5659814178943,1.0,1.0,phase_1,,,,,,,,,,,,,yellow,flipped triangle
65.0,5.0,1.0,1.0,2.0,2.0,383.7429862469435,1.0,1.0,phase_1,,,,,,,,,,,,,white,hexagon
0.0,3.0,0.0,0.0,3.0,3.0,640.0347873568535,1.0,1.0,phase_1,,,,,,,,,,,,,yellow,flipped triangle
206.0,7.0,3.0,1.0,3.0,3.0,603.3881027251482,1.0,1.0,phase_1,,,,,,,,,,,,,blue,circle
99.0,2.0,2.0,0.0,4.0,4.0,303.0060902237892,1.0,1.0,phase_1,,,,,,,,,,,,,magenta,diamond
53.0,1.0,1.0,0.0,3.0,3.0,443.8490774482488,1.0,1.0,phase_1,,,,,,,,,,,,,cyan,I
0.0,6.0,0.0,1.0,4.0,4.0,407.5866416096687,1.0,1.0,phase_1,,,,,,,,,,,,,orange,triangle
35.0,5.0,1.0,1.0,4.0,4.0,347.9787409305572,1.0,1.0,phase_1,,,,,,,,,,,,,white,hexagon
69.0,1.0,1.0,0.0,1.0,1.0,543.9531411975622,1.0,1.0,phase_1,,,,,,,,,,,,,cyan,I
0.0,7.0,0.0,1.0,1.0,1.0,788.9341302216053,1.0,1.0,phase_1,,,,,,,,,,,,,blue,circle
212.0,7.0,3.0,1.0,4.0,4.0,459.8314743489027,1.0,1.0,phase_1,,,,,,,,,,,,,blue,circle
0.0,4.0,0.0,0.0,4.0,4.0,417.0094858855009,1.0,1.0,phase_1,,,,,,,,,,,,,gray,square
416.0,8.0,4.0,1.0,2.0,2.0,531.3665512949228,1.0,1.0,phase_1,,,,,,,,,,,,,green,cross
74.0,1.0,1.0,0.0,3.0,3.0,383.8071543723345,1.0,1.0,phase_1,,,,,,,,,,,,,cyan,I
49.0,1.0,1.0,0.0,2.0,2.0,447.8693567216396,1.0,1.0,phase_1,,,,,,,,,,,,,cyan,I
404.0,8.0,4.0,1.0,3.0,3.0,443.6155520379543,1.0,1.0,phase_1,,,,,,,,,,,,,green,cross
0.0,1.0,0.0,0.0,2.0,2.0,501.2634787708521,1.0,1.0,phase_1,,,,,,,,,,,,,cyan,I
90.0,2.0,2.0,0.0,1.0,1.0,517.2086730599403,1.0,1.0,phase_1,,,,,,,,,,,,,magenta,diamond
92.0,6.0,2.0,1.0,2.0,2.0,362.0618041604757,1.0,1.0,phase_1,,,,,,,,,,,,,orange,triangle
100.0,2.0,2.0,0.0,1.0,1.0,574.6151655912399,1.0,1.0,phase_1,,,,,,,,,,,,,magenta,diamond
205.0,7.0,3.0,1.0,2.0,2.0,264.4398063421249,1.0,1.0,phase_1,,,,,,,,,,,,,blue,circle
65.0,5.0,1.0,1.0,1.0,1.0,517.2080025076866,1.0,1.0,phase_1,,,,,,,,,,,,,white,hexagon
109.0,2.0,2.0,0.0,2.0,2.0,475.2892535179853,1.0,1.0,phase_1,,,,,,,,,,,,,magenta,diamond
177.0,7.0,3.0,1.0,2.0,2.0,513.1103564053774,1.0,1.0,phase_1,,,,,,,,,,,,,blue,circle
178.0,3.0,3.0,0.0,4.0,4.0,461.8177432566881,1.0,1.0,phase_1,,,,,,,,,,,,,yellow,flipped triangle
0.0,1.0,0.0,0.0,1.0,1.0,499.579232186079,1.0,1.0,phase_1,,,,,,,,,,,,,cyan,I
40.0,5.0,1.0,1.0,3.0,3.0,494.4702424108982,1.0,1.0,phase_1,,,,,,,,,,,,,white,hexagon
187.0,3.0,3.0,0.0,4.0,4.0,379.5546647161245,1.0,1.0,phase_1,,,,,,,,,,,,,yellow,flipped triangle
90.0,6.0,2.0,1.0,1.0,1.0,613.7441284954548,1.0,1.0,phase_1,,,,,,,,,,,,,orange,triangle
214.0,3.0,3.0,0.0,4.0,4.0,373.6460041254759,1.0,1.0,phase_1,,,,,,,,,,,,,yellow,flipped triangle
77.0,6.0,2.0,1.0,4.0,4.0,369.276313111186,1.0,1.0,phase_1,,,,,,,,,,,,,orange,triangle
0.0,2.0,0.0,0.0,2.0,2.0,363.7299556285143,1.0,1.0,phase_1,,,,,,,,,,,,,magenta,diamond
0.0,5.0,0.0,1.0,2.0,2.0,428.5725094377994,2.0,1.0,phase_1,,,,,,,,,,,,,white,hexagon
401.0,8.0,4.0,1.0,4.0,4.0,358.7548620998859,2.0,1.0,phase_1,,,,,,,,,,,,,green,cross
114.0,6.0,2.0,1.0,1.0,1.0,307.1121908724308,2.0,1.0,phase_1,,,,,,,,,,,,,orange,triangle
199.0,3.0,3.0,0.0,2.0,2.0,416.2504896521568,2.0,1.0,phase_1,,,,,,,,,,,,,yellow,flipped triangle
34.0,1.0,1.0,0.0,2.0,2.0,423.1607355177402,2.0,1.0,phase_1,,,,,,,,,,,,,cyan,I
0.0,5.0,0.0,1.0,2.0,2.0,378.1634774059057,2.0,1.0,phase_1,,,,,,,,,,,,,white,hexagon
419.0,8.0,4.0,1.0,4.0,4.0,330.1332034170627,2.0,1.0,phase_1,,,,,,,,,,,,,green,cross
390.0,4.0,4.0,0.0,2.0,2.0,317.1129282563925,2.0,1.0,phase_1,,,,,,,,,,,,,gray,square
0.0,2.0,0.0,0.0,1.0,1.0,577.3753132671118,2.0,1.0,phase_1,,,,,,,,,,,,,magenta,diamond
0.0,5.0,0.0,1.0,1.0,1.0,444.3736057728529,2.0,1.0,phase_1,,,,,,,,,,,,,white,hexagon
67.0,1.0,1.0,0.0,3.0,3.0,420.278774574399,2.0,1.0,phase_1,,,,,,,,,,,,,cyan,I
185.0,3.0,3.0,0.0,3.0,3.0,457.6128460466862,2.0,1.0,phase_1,,,,,,,,,,,,,yellow,flipped triangle
104.0,2.0,2.0,0.0,2.0,2.0,412.0828956365585,2.0,1.0,phase_1,,,,,,,,,,,,,magenta,diamond
202.0,7.0,3.0,1.0,1.0,1.0,493.8579108566046,2.0,2.0,phase_1,,,,,,,,,,,,,blue,circle
199.0,7.0,3.0,1.0,3.0,3.0,427.2525664418936,2.0,1.0,phase_1,,,,,,,,,,,,,blue,circle
0.0,1.0,0.0,0.0,4.0,4.0,455.9547994285822,2.0,1.0,phase_1,,,,,,,,,,,,,cyan,I
74.0,5.0,1.0,1.0,1.0,1.0,676.8939923495054,2.0,1.0,phase_1,,,,,,,,,,,,,white,hexagon
98.0,6.0,2.0,1.0,3.0,3.0,386.2038552761078,2.0,1.0,phase_1,,,,,,,,,,,,,orange,triangle
413.0,8.0,4.0,1.0,3.0,3.0,566.5403548628092,2.0,1.0,phase_1,,,,,,,,,,,,,green,cross
0.0,4.0,0.0,0.0,2.0,2.0,401.6590062528848,2.0,1.0,phase_1,,,,,,,,,,,,,gray,square
33.0,5.0,1.0,1.0,2.0,2.0,408.42103958129877,2.0,1.0,phase_1,,,,,,,,,,,,,white,hexagon
0.0,8.0,0.0,1.0,3.0,3.0,385.0707300007343,2.0,1.0,phase_1,,,,,,,,,,,,,green,cross
102.0,6.0,2.0,1.0,4.0,4.0,520.2301368117332,2.0,1.0,phase_1,,,,,,,,,,,,,orange,triangle
0.0,7.0,0.0,1.0,1.0,1.0,451.2091036885977,2.0,1.0,phase_1,,,,,,,,,,,,,blue,circle
183.0,3.0,3.0,0.0,1.0,1.0,634.0884622186422,2.0,1.0,phase_1,,,,,,,,,,,,,yellow,flipped triangle
0.0,4.0,0.0,0.0,3.0,3.0,379.97623533010477,2.0,1.0,phase_1,,,,,,,,,,,,,gray,square
0.0,3.0,0.0,0.0,4.0,4.0,369.236147031188,2.0,1.0,phase_1,,,,,,,,,,,,,yellow,flipped triangle
399.0,4.0,4.0,0.0,2.0,2.0,398.2206806540489,2.0,1.0,phase_1,,,,,,,,,,,,,gray,square
380.0,4.0,4.0,0.0,3.0,3.0,579.0135692805052,2.0,1.0,phase_1,,,,,,,,,,,,,gray,square
82.0,2.0,2.0,0.0,3.0,3.0,672.6844757795334,2.0,1.0,phase_1,,,,,,,,,,,,,magenta,diamond
121.0,2.0,2.0,0.0,2.0,2.0,530.8819245547056,2.0,1.0,phase_1,,,,,,,,,,,,,magenta,diamond
53.0,5.0,1.0,1.0,3.0,3.0,690.6776241958141,2.0,1.0,phase_1,,,,,,,,,,,,,white,hexagon
406.0,8.0,4.0,1.0,2.0,2.0,471.241395920515,2.0,1.0,phase_1,,,,,,,,,,,,,green,cross
33.0,1.0,1.0,0.0,1.0,1.0,610.6642950326204,2.0,1.0,phase_1,,,,,,,,,,,,,cyan,I
109.0,6.0,2.0,1.0,2.0,2.0,318.1818425655365,2.0,1.0,phase_1,,,,,,,,,,,,,orange,triangle
0.0,6.0,0.0,1.0,4.0,4.0,422.0693688839674,2.0,1.0,phase_1,,,,,,,,,,,,,orange,triangle
424.0,8.0,4.0,1.0,1.0,1.0,568.4615112841129,2.0,1.0,phase_1,,,,,,,,,,,,,green,cross
0.0,4.0,0.0,0.0,2.0,2.0,476.5096958726644,2.0,1.0,phase_1,,,,,,,,,,,,,gray,square
85.0,6.0,2.0,1.0,3.0,3.0,401.5247970819473,2.0,1.0,phase_1,,,,,,,,,,,,,orange,triangle
49.0,5.0,1.0,1.0,2.0,2.0,437.6014359295368,2.0,1.0,phase_1,,,,,,,,,,,,,white,hexagon
413.0,8.0,4.0,1.0,2.0,2.0,394.3130001425743,2.0,1.0,phase_1,,,,,,,,,,,,,green,cross
0.0,6.0,0.0,1.0,3.0,3.0,570.7493182271719,2.0,1.0,phase_1,,,,,,,,,,,,,orange,triangle
219.0,3.0,3.0,0.0,4.0,4.0,523.8428376615047,2.0,1.0,phase_1,,,,,,,,,,,,,yellow,flipped triangle
406.0,4.0,4.0,0.0,3.0,3.0,307.7497221529484,2.0,1.0,phase_1,,,,,,,,,,,,,gray,square
113.0,2.0,2.0,0.0,1.0,1.0,574.5898187160492,2.0,1.0,phase_1,,,,,,,,,,,,,magenta,diamond
33.0,5.0,1.0,1.0,1.0,1.0,507.4475072324276,2.0,1.0,phase_1,,,,,,,,,,,,,white,hexagon
0.0,8.0,0.0,1.0,2.0,2.0,447.3924674093723,2.0,1.0,phase_1,,,,,,,,,,,,,green,cross
78.0,6.0,2.0,1.0,4.0,4.0,444.3744532763958,2.0,1.0,phase_1,,,,,,,,,,,,,orange,triangle
0.0,7.0,0.0,1.0,1.0,1.0,600.9868606925011,2.0,1.0,phase_1,,,,,,,,,,,,,blue,circle
392.0,8.0,4.0,1.0,4.0,4.0,454.2812779545784,2.0,1.0,phase_1,,,,,,,,,,,,,green,cross
419.0,4.0,4.0,0.0,2.0,2.0,363.613024353981,2.0,1.0,phase_1,,,,,,,,,,,,,gray,square
82.0,6.0,2.0,1.0,1.0,1.0,382.3820278048515,2.0,1.0,phase_1,,,,,,,,,,,,,orange,triangle
390.0,8.0,4.0,1.0,4.0,4.0,418.7133871018886,2.0,1.0,phase_1,,,,,,,,,,,,,green,cross
215.0,3.0,3.0,0.0,4.0,4.0,416.9814269989729,2.0,1.0,phase_1,,,,,,,,,,,,,yellow,flipped triangle
413.0,8.0,4.0,1.0,3.0,3.0,485.7063088566065,2.0,1.0,phase_1,,,,,,,,,,,,,green,cross
192.0,3.0,3.0,0.0,1.0,1.0,538.5622438043356,2.0,1.0,phase_1,,,,,,,,,,,,,yellow,flipped triangle
221.0,7.0,3.0,1.0,2.0,2.0,357.3759086430073,2.0,1.0,phase_1,,,,,,,,,,,,,blue,circle
92.0,2.0,2.0,0.0,1.0,1.0,403.5981018096208,2.0,1.0,phase_1,,,,,,,,,,,,,magenta,diamond
109.0,6.0,2.0,1.0,3.0,3.0,434.323500841856,2.0,1.0,phase_1,,,,,,,,,,,,,orange,triangle
0.0,7.0,0.0,1.0,4.0,4.0,485.3725060820579,2.0,1.0,phase_1,,,,,,,,,,,,,blue,circle
394.0,8.0,4.0,1.0,1.0,1.0,553.2489437609911,2.0,1.0,phase_1,,,,,,,,,,,,,green,cross
0.0,8.0,0.0,1.0,2.0,2.0,519.4791425019503,2.0,1.0,phase_1,,,,,,,,,,,,,green,cross
79.0,2.0,2.0,0.0,4.0,4.0,364.918902516365,2.0,1.0,phase_1,,,,,,,,,,,,,magenta,diamond
212.0,3.0,3.0,0.0,2.0,2.0,464.8866653442383,2.0,1.0,phase_1,,,,,,,,,,,,,yellow,flipped triangle
389.0,4.0,4.0,0.0,4.0,4.0,475.1230143010616,2.0,1.0,phase_1,,,,,,,,,,,,,gray,square
0.0,1.0,0.0,0.0,2.0,2.0,335.4941681027412,2.0,1.0,phase_1,,,,,,,,,,,,,cyan,I
82.0,6.0,2.0,1.0,1.0,1.0,443.5838405042887,2.0,1.0,phase_1,,,,,,,,,,,,,orange,triangle
0.0,4.0,0.0,0.0,4.0,4.0,364.7199068218469,2.0,1.0,phase_1,,,,,,,,,,,,,gray,square
71.0,5.0,1.0,1.0,3.0,3.0,327.1910678595304,2.0,1.0,phase_1,,,,,,,,,,,,,white,hexagon
377.0,8.0,4.0,1.0,2.0,2.0,434.5292299985885,2.0,1.0,phase_1,,,,,,,,,,,,,green,cross
53.0,1.0,1.0,0.0,2.0,2.0,528.7856664508581,2.0,1.0,phase_1,,,,,,,,,,,,,cyan,I
40.0,5.0,1.0,1.0,2.0,2.0,708.175165578723,2.0,1.0,phase_1,,,,,,,,,,,,,white,hexagon
0.0,5.0,0.0,1.0,3.0,3.0,544.7889678180218,2.0,1.0,phase_1,,,,,,,,,,,,,white,hexagon
212.0,7.0,3.0,1.0,4.0,4.0,375.7006954401731,2.0,1.0,phase_1,,,,,,,,,,,,,blue,circle
0.0,1.0,0.0,0.0,1.0,1.0,385.1986192166805,2.0,1.0,phase_1,,,,,,,,,,,,,cyan,I
413.0,4.0,4.0,0.0,3.0,3.0,392.339127138257,2.0,1.0,phase_1,,,,,,,,,,,,,gray,square
69.0,5.0,1.0,1.0,2.0,2.0,389.6031435579061,2.0,1.0,phase_1,,,,,,,,,,,,,white,hexagon
109.0,2.0,2.0,0.0,3.0,3.0,475.722374394536,2.0,1.0,phase_1,,,,,,,,,,,,,magenta,diamond
62.0,1.0,1.0,0.0,1.0,1.0,549.0601230412722,2.0,1.0,phase_1,,,,,,,,,,,,,cyan,I
376.0,4.0,4.0,0.0,3.0,3.0,443.5986783355474,2.0,1.0,phase_1,,,,,,,,,,,,,gray,square
0.0,7.0,0.0,1.0,2.0,2.0,489.4106686115265,2.0,1.0,phase_1,,,,,,,,,,,,,blue,circle
61.0,1.0,1.0,0.0,2.0,2.0,514.8920696228743,2.0,1.0,phase_1,,,,,,,,,,,,,cyan,I
191.0,3.0,3.0,0.0,2.0,2.0,390.5550986528396,2.0,1.0,phase_1,,,,,,,,,,,,,yellow,flipped triangle
0.0,2.0,0.0,0.0,1.0,1.0,294.1544093191623,2.0,1.0,phase_1,,,,,,,,,,,,,magenta,diamond
29.0,1.0,1.0,0.0,4.0,4.0,314.9977624416351,2.0,1.0,phase_1,,,,,,,,,,,,,cyan,I
0.0,4.0,0.0,0.0,2.0,2.0,431.9533966481685,2.0,1.0,phase_1,,,,,,,,,,,,,gray,square
184.0,7.0,3.0,1.0,3.0,3.0,353.522339835763,2.0,1.0,phase_1,,,,,,,,,,,,,blue,circle
0.0,4.0,0.0,0.0,3.0,3.0,576.098769903183,2.0,1.0,phase_1,,,,,,,,,,,,,gray,square
0.0,6.0,0.0,1.0,1.0,1.0,493.9179942011833,2.0,1.0,phase_1,,,,,,,,,,,,,orange,triangle
223.0,3.0,3.0,0.0,2.0,2.0,312.2620079666376,2.0,1.0,phase_1,,,,,,,,,,,,,yellow,flipped triangle
119.0,6.0,2.0,1.0,1.0,1.0,415.3995662927627,2.0,1.0,phase_1,,,,,,,,,,,,,orange,triangle
28.0,1.0,1.0,0.0,2.0,2.0,435.0478406995535,2.0,1.0,phase_1,,,,,,,,,,,,,cyan,I
192.0,7.0,3.0,1.0,3.0,3.0,353.7585418671369,2.0,1.0,phase_1,,,,,,,,,,,,,blue,circle
187.0,7.0,3.0,1.0,1.0,1.0,438.3571837097406,2.0,1.0,phase_1,,,,,,,,,,,,,blue,circle
0.0,5.0,0.0,1.0,1.0,1.0,528.7173204123974,2.0,1.0,phase_1,,,,,,,,,,,,,white,hexagon
0.0,1.0,0.0,0.0,3.0,3.0,599.1828572005033,2.0,1.0,phase_1,,,,,,,,,,,,,cyan,I
78.0,2.0,2.0,0.0,2.0,2.0,457.6409179717302,2.0,1.0,phase_1,,,,,,,,,,,,,magenta,diamond
26.0,1.0,1.0,0.0,3.0,3.0,439.5435117185116,2.0,1.0,phase_1,,,,,,,,,,,,,cyan,I
0.0,5.0,0.0,1.0,2.0,2.0,393.3454155921936,2.0,1.0,phase_1,,,,,,,,,,,,,white,hexagon
190.0,3.0,3.0,0.0,1.0,1.0,457.6980490237474,2.0,1.0,phase_1,,,,,,,,,,,,,yellow,flipped triangle
221.0,7.0,3.0,1.0,4.0,4.0,329.7120798379183,3.0,1.0,phase_1,,,,,,,,,,,,,blue,circle
184.0,3.0,3.0,0.0,1.0,1.0,361.4780474454164,3.0,1.0,phase_1,,,,,,,,,,,,,yellow,flipped triangle
203.0,7.0,3.0,1.0,3.0,3.0,318.3065038174391,3.0,1.0,phase_1,,,,,,,,,,,,,blue,circle
105.0,2.0,2.0,0.0,4.0,4.0,338.5546337813139,3.0,1.0,phase_1,,,,,,,,,,,,,magenta,diamond
188.0,3.0,3.0,0.0,4.0,4.0,357.7865213155746,3.0,1.0,phase_1,,,,,,,,,,,,,yellow,flipped triangle
181.0,3.0,3.0,0.0,2.0,2.0,458.2819230854511,3.0,1.0,phase_1,,,,,,,,,,,,,yellow,flipped triangle
390.0,4.0,4.0,0.0,2.0,2.0,425.2589121460914,3.0,1.0,phase_1,,,,,,,,,,,,,gray,square
399.0,4.0,4.0,0.0,4.0,4.0,468.4384483844042,3.0,1.0,phase_1,,,,,,,,,,,,,gray,square
208.0,7.0,3.0,1.0,4.0,4.0,369.2070096731186,3.0,1.0,phase_1,,,,,,,,,,,,,blue,circle
201.0,3.0,3.0,0.0,4.0,4.0,372.7578166872263,3.0,1.0,phase_1,,,,,,,,,,,,,yellow,flipped triangle
202.0,3.0,3.0,0.0,3.0,3.0,612.9947490990162,3.0,1.0,phase_1,,,,,,,,,,,,,yellow,flipped triangle
380.0,8.0,4.0,1.0,1.0,1.0,446.9155371189117,3.0,1.0,phase_1,,,,,,,,,,,,,green,cross
78.0,2.0,2.0,0.0,1.0,1.0,467.6123242825269,3.0,1.0,phase_1,,,,,,,,,,,,,magenta,diamond
36.0,5.0,1.0,1.0,4.0,4.0,376.6230195760727,3.0,1.0,phase_1,,,,,,,,,,,,,white,hexagon
35.0,5.0,1.0,1.0,2.0,2.0,534.5244072377682,3.0,1.0,phase_1,,,,,,,,,,,,,white,hexagon
187.0,7.0,3.0,1.0,1.0,1.0,408.4594789892435,3.0,1.0,phase_1,,,,,,,,,,,,,blue,circle
116.0,6.0,2.0,1.0,3.0,3.0,374.7796081006527,3.0,1.0,phase_1,,,,,,,,,,,,,orange,triangle
0.0,6.0,0.0,1.0,4.0,4.0,426.1604305356741,3.0,1.0,phase_1,,,,,,,,,,,,,orange,triangle
188.0,3.0,3.0,0.0,1.0,1.0,384.0099945664406,3.0,1.0,phase_1,,,,,,,,,,,,,yellow,flipped triangle
424.0,4.0,4.0,0.0,4.0,4.0,469.3011399358511,3.0,1.0,phase_1,,,,,,,,,,,,,gray,square
398.0,8.0,4.0,1.0,4.0,4.0,402.7346409857273,3.0,1.0,phase_1,,,,,,,,,,,,,green,cross
90.0,6.0,2.0,1.0,3.0,3.0,381.0861147940159,3.0,1.0,phase_1,,,,,,,,,,,,,orange,triangle
415.0,4.0,4.0,0.0,1.0,1.0,463.8900179415941,3.0,2.0,phase_1,,,,,,,,,,,,,gray,square
212.0,3.0,3.0,0.0,3.0,3.0,350.1325715333223,3.0,1.0,phase_1,,,,,,,,,,,,,yellow,flipped triangle
63.0,1.0,1.0,0.0,4.0,4.0,354.5519262552261,3.0,1.0,phase_1,,,,,,,,,,,,,cyan,I
405.0,4.0,4.0,0.0,3.0,3.0,374.8869318515062,3.0,1.0,phase_1,,,,,,,,,,,,,gray,square
0.0,3.0,0.0,0.0,3.0,3.0,403.4293945878744,3.0,1.0,phase_1,,,,,,,,,,,,,yellow,flipped triangle
52.0,1.0,1.0,0.0,2.0,2.0,485.7506677508354,3.0,1.0,phase_1,,,,,,,,,,,,,cyan,I
376.0,8.0,4.0,1.0,3.0,3.0,468.5987718403339,3.0,1.0,phase_1,,,,,,,,,,,,,green,cross
74.0,5.0,1.0,1.0,1.0,1.0,358.5969675332308,3.0,1.0,phase_1,,,,,,,,,,,,,white,hexagon
221.0,3.0,3.0,0.0,3.0,3.0,427.0443152636289,3.0,1.0,phase_1,,,,,,,,,,,,,yellow,flipped triangle
422.0,4.0,4.0,0.0,1.0,1.0,472.3256900906563,3.0,1.0,phase_1,,,,,,,,,,,,,gray,square
28.0,1.0,1.0,0.0,2.0,2.0,423.8755777478218,3.0,1.0,phase_1,,,,,,,,,,,,,cyan,I
0.0,5.0,0.0,1.0,3.0,3.0,339.3260985612869,3.0,1.0,phase_1,,,,,,,,,,,,,white,hexagon
65.0,1.0,1.0,0.0,4.0,4.0,648.4891977161169,3.0,1.0,phase_1,,,,,,,,,,,,,cyan,I
0.0,5.0,0.0,1.0,3.0,3.0,282.6061174273491,3.0,1.0,phase_1,,,,,,,,,,,,,white,hexagon
404.0,8.0,4.0,1.0,1.0,1.0,315.0953613221645,3.0,1.0,phase_1,,,,,,,,,,,,,green,cross
201.0,7.0,3.0,1.0,3.0,3.0,367.5728738307953,3.0,1.0,phase_1,,,,,,,,,,,,,blue,circle
85.0,2.0,2.0,0.0,3.0,3.0,488.6773005127907,3.0,1.0,phase_1,,,,,,,,,,,,,magenta,diamond
415.0,8.0,4.0,1.0,4.0,4.0,297.3553538322449,3.0,1.0,phase_1,,,,,,,,,,,,,green,cross
219.0,7.0,3.0,1.0,2.0,2.0,324.6523402631283,3.0,1.0,phase_1,,,,,,,,,,,,,blue,circle
191.0,7.0,3.0,1.0,2.0,2.0,438.5633450001478,3.0,1.0,phase_1,,,,,,,,,,,,,blue,circle
221.0,3.0,3.0,0.0,2.0,2.0,341.627087444067,3.0,1.0,phase_1,,,,,,,,,,,,,yellow,flipped triangle
105.0,6.0,2.0,1.0,2.0,2.0,311.6365689784288,3.0,1.0,phase_1,,,,,,,,,,,,,orange,triangle
0.0,2.0,0.0,0.0,1.0,1.0,260.4572232812643,3.0,1.0,phase_1,,,,,,,,,,,,,magenta,diamond
104.0,6.0,2.0,1.0,4.0,4.0,282.8439958393574,3.0,1.0,phase_1,,,,,,,,,,,,,orange,triangle
0.0,3.0,0.0,0.0,4.0,4.0,390.6814362853765,3.0,1.0,phase_1,,,,,,,,,,,,,yellow,flipped triangle
77.0,2.0,2.0,0.0,2.0,2.0,301.5902768820524,3.0,1.0,phase_1,,,,,,,,,,,,,magenta,diamond
404.0,4.0,4.0,0.0,1.0,1.0,434.8044898360967,3.0,1.0,phase_1,,,,,,,,,,,,,gray,square
58.0,5.0,1.0,1.0,1.0,1.0,388.0504854023456,3.0,1.0,phase_1,,,,,,,,,,,,,white,hexagon
92.0,6.0,2.0,1.0,4.0,4.0,490.476256236434,3.0,1.0,phase_1,,,,,,,,,,,,,orange,triangle
380.0,8.0,4.0,1.0,3.0,3.0,481.9392319768667,3.0,1.0,phase_1,,,,,,,,,,,,,green,cross
100.0,6.0,2.0,1.0,1.0,1.0,516.423923894763,3.0,1.0,phase_1,,,,,,,,,,,,,orange,triangle
212.0,3.0,3.0,0.0,1.0,1.0,415.3104275465011,3.0,1.0,phase_1,,,,,,,,,,,,,yellow,flipped triangle
33.0,1.0,1.0,0.0,3.0,3.0,388.0263846367597,3.0,1.0,phase_1,,,,,,,,,,,,,cyan,I
93.0,6.0,2.0,1.0,2.0,2.0,394.505675882101,3.0,1.0,phase_1,,,,,,,,,,,,,orange,triangle
397.0,4.0,4.0,0.0,2.0,2.0,384.0232603251934,3.0,1.0,phase_1,,,,,,,,,,,,,gray,square
185.0,7.0,3.0,1.0,4.0,4.0,604.7273855656385,3.0,1.0,phase_1,,,,,,,,,,,,,blue,circle
0.0,6.0,0.0,1.0,4.0,4.0,399.1680238395929,3.0,1.0,phase_1,,,,,,,,,,,,,orange,triangle
188.0,7.0,3.0,1.0,1.0,1.0,590.8475015312433,3.0,1.0,phase_1,,,,,,,,,,,,,blue,circle
28.0,5.0,1.0,1.0,2.0,2.0,425.1440111547708,3.0,1.0,phase_1,,,,,,,,,,,,,white,hexagon
190.0,7.0,3.0,1.0,2.0,2.0,276.2677073478699,3.0,1.0,phase_1,,,,,,,,,,,,,blue,circle
82.0,2.0,2.0,0.0,1.0,1.0,435.847744345665,3.0,1.0,phase_1,,,,,,,,,,,,,magenta,diamond
401.0,4.0,4.0,0.0,3.0,3.0,519.4797050207853,3.0,1.0,phase_1,,,,,,,,,,,,,gray,square
70.0,5.0,1.0,1.0,4.0,4.0,492.7929732948541,3.0,1.0,phase_1,,,,,,,,,,,,,white,hexagon
92.0,2.0,2.0,0.0,3.0,3.0,513.6339962482452,3.0,1.0,phase_1,,,,,,,,,,,,,magenta,diamond
48.0,1.0,1.0,0.0,1.0,1.0,392.1189084649086,3.0,1.0,phase_1,,,,,,,,,,,,,cyan,I
89.0,6.0,2.0,1.0,1.0,1.0,385.6760151684284,3.0,1.0,phase_1,,,,,,,,,,,,,orange,triangle
394.0,4.0,4.0,0.0,1.0,1.0,316.9735707342624,3.0,1.0,phase_1,,,,,,,,,,,,,gray,square
187.0,3.0,3.0,0.0,1.0,1.0,357.151884585619,3.0,1.0,phase_1,,,,,,,,,,,,,yellow,flipped triangle
0.0,4.0,0.0,0.0,3.0,3.0,354.4787708669901,3.0,1.0,phase_1,,,,,,,,,,,,,gray,square
102.0,2.0,2.0,0.0,4.0,4.0,411.4314541220665,3.0,1.0,phase_1,,,,,,,,,,,,,magenta,diamond
62.0,5.0,1.0,1.0,4.0,4.0,387.0871588587761,3.0,1.0,phase_1,,,,,,,,,,,,,white,hexagon
89.0,2.0,2.0,0.0,1.0,1.0,447.2512006759643,3.0,1.0,phase_1,,,,,,,,,,,,,magenta,diamond
0.0,3.0,0.0,0.0,4.0,4.0,444.5171914994716,3.0,1.0,phase_1,,,,,,,,,,,,,yellow,flipped triangle
28.0,5.0,1.0,1.0,3.0,3.0,326.6557268798351,3.0,1.0,phase_1,,,,,,,,,,,,,white,hexagon
0.0,7.0,0.0,1.0,3.0,3.0,348.7054873257875,3.0,1.0,phase_1,,,,,,,,,,,,,blue,circle
0.0,5.0,0.0,1.0,1.0,1.0,378.2200291752815,3.0,1.0,phase_1,,,,,,,,,,,,,white,hexagon
0.0,1.0,0.0,0.0,1.0,1.0,342.9415095597505,3.0,1.0,phase_1,,,,,,,,,,,,,cyan,I
189.0,7.0,3.0,1.0,4.0,4.0,372.846869751811,3.0,1.0,phase_1,,,,,,,,,,,,,blue,circle
203.0,3.0,3.0,0.0,1.0,1.0,431.5864872187376,3.0,1.0,phase_1,,,,,,,,,,,,,yellow,flipped triangle
183.0,7.0,3.0,1.0,4.0,4.0,555.0110954791307,3.0,1.0,phase_1,,,,,,,,,,,,,blue,circle
53.0,5.0,1.0,1.0,2.0,2.0,279.6249724924564,3.0,1.0,phase_1,,,,,,,,,,,,,white,hexagon
112.0,6.0,2.0,1.0,4.0,4.0,438.47949616611,3.0,1.0,phase_1,,,,,,,,,,,,,orange,triangle
398.0,4.0,4.0,0.0,1.0,1.0,723.3606297522783,3.0,1.0,phase_1,,,,,,,,,,,,,gray,square
407.0,4.0,4.0,0.0,3.0,3.0,424.1452887654304,3.0,1.0,phase_1,,,,,,,,,,,,,gray,square
90.0,2.0,2.0,0.0,4.0,4.0,381.8631004542112,3.0,1.0,phase_1,,,,,,,,,,,,,magenta,diamond
123.0,6.0,2.0,1.0,3.0,3.0,447.9652252048254,3.0,1.0,phase_1,,,,,,,,,,,,,orange,triangle
0.0,5.0,0.0,1.0,1.0,1.0,398.0008587241173,3.0,1.0,phase_1,,,,,,,,,,,,,white,hexagon
199.0,7.0,3.0,1.0,2.0,2.0,447.5703071802854,3.0,1.0,phase_1,,,,,,,,,,,,,blue,circle
180.0,7.0,3.0,1.0,1.0,1.0,679.4175785034895,3.0,1.0,phase_1,,,,,,,,,,,,,blue,circle
70.0,1.0,1.0,0.0,3.0,3.0,481.4942684024572,3.0,1.0,phase_1,,,,,,,,,,,,,cyan,I
35.0,1.0,1.0,0.0,4.0,4.0,281.9074168801307,3.0,1.0,phase_1,,,,,,,,,,,,,cyan,I
196.0,3.0,3.0,0.0,3.0,3.0,486.3872192800045,3.0,1.0,phase_1,,,,,,,,,,,,,yellow,flipped triangle
223.0,7.0,3.0,1.0,3.0,3.0,472.651707008481,3.0,1.0,phase_1,,,,,,,,,,,,,blue,circle
82.0,6.0,2.0,1.0,2.0,2.0,367.1841751784086,3.0,1.0,phase_1,,,,,,,,,,,,,orange,triangle
67.0,5.0,1.0,1.0,4.0,4.0,619.2308533936739,3.0,1.0,phase_1,,,,,,,,,,,,,white,hexagon
0.0,6.0,0.0,1.0,3.0,3.0,663.5664347559214,3.0,1.0,phase_1,,,,,,,,,,,,,orange,triangle
207.0,7.0,3.0,1.0,1.0,1.0,538.4536720812321,3.0,1.0,phase_1,,,,,,,,,,,,,blue,circle
63.0,5.0,1.0,1.0,1.0,1.0,544.252572581172,3.0,1.0,phase_1,,,,,,,,,,,,,white,hexagon
119.0,6.0,2.0,1.0,4.0,4.0,317.1815909445286,4.0,1.0,phase_1,,,,,,,,,,,,,orange,triangle
214.0,7.0,3.0,1.0,2.0,2.0,306.1989787966013,4.0,1.0,phase_1,,,,,,,,,,,,,blue,circle
99.0,2.0,2.0,0.0,2.0,2.0,518.744332715869,4.0,1.0,phase_1,,,,,,,,,,,,,magenta,diamond
402.0,4.0,4.0,0.0,2.0,2.0,317.4390811473131,4.0,1.0,phase_1,,,,,,,,,,,,,gray,square
112.0,2.0,2.0,0.0,3.0,3.0,953.9838414639236,4.0,1.0,phase_1,,,,,,,,,,,,,magenta,diamond
93.0,2.0,2.0,0.0,4.0,4.0,487.6942913979292,4.0,1.0,phase_1,,,,,,,,,,,,,magenta,diamond
388.0,4.0,4.0,0.0,3.0,3.0,280.9553015977144,4.0,1.0,phase_1,,,,,,,,,,,,,gray,square
0.0,1.0,0.0,0.0,4.0,4.0,293.3703642338514,4.0,1.0,phase_1,,,,,,,,,,,,,cyan,I
215.0,7.0,3.0,1.0,1.0,1.0,468.9035080373287,4.0,1.0,phase_1,,,,,,,,,,,,,blue,circle
413.0,4.0,4.0,0.0,1.0,1.0,591.1399014294147,4.0,1.0,phase_1,,,,,,,,,,,,,gray,square
0.0,6.0,0.0,1.0,3.0,3.0,359.6757519990206,4.0,1.0,phase_1,,,,,,,,,,,,,orange,triangle
0.0,8.0,0.0,1.0,4.0,4.0,345.7668013870716,4.0,1.0,phase_1,,,,,,,,,,,,,green,cross
413.0,4.0,4.0,0.0,4.0,4.0,286.70422174036497,4.0,1.0,phase_1,,,,,,,,,,,,,gray,square
53.0,1.0,1.0,0.0,1.0,1.0,578.1770050525665,4.0,1.0,phase_1,,,,,,,,,,,,,cyan,I
420.0,4.0,4.0,0.0,3.0,3.0,354.4038590043783,4.0,1.0,phase_1,,,,,,,,,,,,,gray,square
384.0,8.0,4.0,1.0,1.0,1.0,475.5651038140058,4.0,1.0,phase_1,,,,,,,,,,,,,green,cross
377.0,4.0,4.0,0.0,2.0,2.0,466.478819027543,4.0,1.0,phase_1,,,,,,,,,,,,,gray,square
0.0,8.0,0.0,1.0,3.0,3.0,303.5285752266645,4.0,1.0,phase_1,,,,,,,,,,,,,green,cross
0.0,6.0,0.0,1.0,2.0,2.0,468.9773432910442,4.0,1.0,phase_1,,,,,,,,,,,,,orange,triangle
124.0,2.0,2.0,0.0,1.0,1.0,455.7965435087681,4.0,1.0,phase_1,,,,,,,,,,,,,magenta,diamond
207.0,3.0,3.0,0.0,3.0,3.0,384.7107961773872,4.0,2.0,phase_1,,,,,,,,,,,,,yellow,flipped triangle
104.0,6.0,2.0,1.0,2.0,2.0,420.4232804477215,4.0,1.0,phase_1,,,,,,,,,,,,,orange,triangle
381.0,4.0,4.0,0.0,1.0,1.0,451.3445496559143,4.0,1.0,phase_1,,,,,,,,,,,,,gray,square
114.0,6.0,2.0,1.0,3.0,3.0,309.2271629720926,4.0,1.0,phase_1,,,,,,,,,,,,,orange,triangle
29.0,5.0,1.0,1.0,1.0,1.0,372.0318786799907,4.0,1.0,phase_1,,,,,,,,,,,,,white,hexagon
79.0,2.0,2.0,0.0,4.0,4.0,287.2653752565384,4.0,1.0,phase_1,,,,,,,,,,,,,magenta,diamond
36.0,1.0,1.0,0.0,3.0,3.0,317.5248093903065,4.0,1.0,phase_1,,,,,,,,,,,,,cyan,I
79.0,6.0,2.0,1.0,2.0,2.0,410.8212031424045,4.0,1.0,phase_1,,,,,,,,,,,,,orange,triangle
40.0,1.0,1.0,0.0,4.0,4.0,268.823267892003,4.0,1.0,phase_1,,,,,,,,,,,,,cyan,I
50.0,5.0,1.0,1.0,2.0,2.0,427.305256947875,4.0,1.0,phase_1,,,,,,,,,,,,,white,hexagon
0.0,2.0,0.0,0.0,4.0,4.0,569.5156194269657,4.0,1.0,phase_1,,,,,,,,,,,,,magenta,diamond
0.0,3.0,0.0,0.0,3.0,3.0,379.4393129646778,4.0,1.0,phase_1,,,,,,,,,,,,,yellow,flipped triangle
61.0,5.0,1.0,1.0,1.0,1.0,819.4479141384363,4.0,1.0,phase_1,,,,,,,,,,,,,white,hexagon
34.0,5.0,1.0,1.0,1.0,1.0,516.5534801781178,4.0,1.0,phase_1,,,,,,,,,,,,,white,hexagon
66.0,1.0,1.0,0.0,1.0,1.0,448.6295990645885,4.0,1.0,phase_1,,,,,,,,,,,,,cyan,I
390.0,8.0,4.0,1.0,1.0,1.0,432.2500210255384,4.0,1.0,phase_1,,,,,,,,,,,,,green,cross
67.0,1.0,1.0,0.0,4.0,4.0,604.5815609395504,4.0,1.0,phase_1,,,,,,,,,,,,,cyan,I
0.0,2.0,0.0,0.0,4.0,4.0,408.37530978024,4.0,1.0,phase_1,,,,,,,,,,,,,magenta,diamond
119.0,2.0,2.0,0.0,2.0,2.0,331.3168752938509,4.0,1.0,phase_1,,,,,,,,,,,,,magenta,diamond
74.0,1.0,1.0,0.0,4.0,4.0,386.9134671986103,4.0,1.0,phase_1,,,,,,,,,,,,,cyan,I
414.0,4.0,4.0,0.0,4.0,4.0,468.9436256885528,4.0,1.0,phase_1,,,,,,,,,,,,,gray,square
405.0,4.0,4.0,0.0,4.0,4.0,481.687219813466,4.0,1.0,phase_1,,,,,,,,,,,,,gray,square
40.0,1.0,1.0,0.0,2.0,2.0,400.24952031672,4.0,1.0,phase_1,,,,,,,,,,,,,cyan,I
0.0,2.0,0.0,0.0,1.0,1.0,410.9300039708614,4.0,2.0,phase_1,,,,,,,,,,,,,magenta,diamond
395.0,4.0,4.0,0.0,2.0,2.0,384.0794563293457,4.0,1.0,phase_1,,,,,,,,,,,,,gray,square
397.0,8.0,4.0,1.0,4.0,4.0,506.9855824112892,4.0,1.0,phase_1,,,,,,,,,,,,,green,cross
206.0,3.0,3.0,0.0,4.0,4.0,407.8200999647379,4.0,1.0,phase_1,,,,,,,,,,,,,yellow,flipped triangle
209.0,7.0,3.0,1.0,1.0,1.0,394.9047029018402,4.0,1.0,phase_1,,,,,,,,,,,,,blue,circle
48.0,5.0,1.0,1.0,4.0,4.0,346.6862197965383,4.0,1.0,phase_1,,,,,,,,,,,,,white,hexagon
98.0,2.0,2.0,0.0,3.0,3.0,334.4554081559181,4.0,1.0,phase_1,,,,,,,,,,,,,magenta,diamond
40.0,1.0,1.0,0.0,3.0,3.0,393.881069496274,4.0,1.0,phase_1,,,,,,,,,,,,,cyan,I
420.0,8.0,4.0,1.0,2.0,2.0,367.7428476512432,4.0,1.0,phase_1,,,,,,,,,,,,,green,cross
0.0,1.0,0.0,0.0,2.0,2.0,537.7992354333401,4.0,1.0,phase_1,,,,,,,,,,,,,cyan,I
0.0,7.0,0.0,1.0,1.0,1.0,296.6489605605602,4.0,1.0,phase_1,,,,,,,,,,,,,blue,circle
58.0,1.0,1.0,0.0,2.0,2.0,300.9359035640955,4.0,1.0,phase_1,,,,,,,,,,,,,cyan,I
35.0,1.0,1.0,0.0,1.0,1.0,368.3574926108122,4.0,1.0,phase_1,,,,,,,,,,,,,cyan,I
0.0,2.0,0.0,0.0,3.0,3.0,496.6137800365686,4.0,1.0,phase_1,,,,,,,,,,,,,magenta,diamond
422.0,8.0,4.0,1.0,1.0,1.0,513.4360026568174,4.0,1.0,phase_1,,,,,,,,,,,,,green,cross
380.0,4.0,4.0,0.0,1.0,1.0,470.3605733811855,4.0,1.0,phase_1,,,,,,,,,,,,,gray,square
114.0,2.0,2.0,0.0,3.0,3.0,290.8579260110855,4.0,1.0,phase_1,,,,,,,,,,,,,magenta,diamond
82.0,2.0,2.0,0.0,2.0,2.0,529.2334891855717,4.0,1.0,phase_1,,,,,,,,,,,,,magenta,diamond
120.0,6.0,2.0,1.0,3.0,3.0,357.3989830911159,4.0,1.0,phase_1,,,,,,,,,,,,,orange,triangle
116.0,2.0,2.0,0.0,2.0,2.0,466.3994908332824,4.0,1.0,phase_1,,,,,,,,,,,,,magenta,diamond
210.0,7.0,3.0,1.0,3.0,3.0,303.9480838924646,4.0,1.0,phase_1,,,,,,,,,,,,,blue,circle
40.0,1.0,1.0,0.0,1.0,1.0,316.8173339217901,4.0,1.0,phase_1,,,,,,,,,,,,,cyan,I
106.0,2.0,2.0,0.0,2.0,2.0,326.8234804272651,4.0,1.0,phase_1,,,,,,,,,,,,,magenta,diamond
0.0,8.0,0.0,1.0,2.0,2.0,356.5067481249571,4.0,1.0,phase_1,,,,,,,,,,,,,green,cross
210.0,3.0,3.0,0.0,4.0,4.0,378.4343264997005,4.0,1.0,phase_1,,,,,,,,,,,,,yellow,flipped triangle
26.0,5.0,1.0,1.0,3.0,3.0,470.3323375433683,4.0,1.0,phase_1,,,,,,,,,,,,,white,hexagon
99.0,6.0,2.0,1.0,2.0,2.0,453.3719755709171,4.0,1.0,phase_1,,,,,,,,,,,,,orange,triangle
181.0,7.0,3.0,1.0,4.0,4.0,329.8324290663004,4.0,1.0,phase_1,,,,,,,,,,,,,blue,circle
0.0,7.0,0.0,1.0,2.0,2.0,643.599646165967,4.0,1.0,phase_1,,,,,,,,,,,,,blue,circle
398.0,8.0,4.0,1.0,3.0,3.0,298.6334171146154,4.0,1.0,phase_1,,,,,,,,,,,,,green,cross
99.0,6.0,2.0,1.0,3.0,3.0,308.6427915841341,4.0,1.0,phase_1,,,,,,,,,,,,,orange,triangle
79.0,6.0,2.0,1.0,2.0,2.0,476.7505545169115,4.0,1.0,phase_1,,,,,,,,,,,,,orange,triangle
414.0,8.0,4.0,1.0,2.0,2.0,432.6938260346651,4.0,1.0,phase_1,,,,,,,,,,,,,green,cross
209.0,3.0,3.0,0.0,3.0,3.0,322.0651671290397,4.0,1.0,phase_1,,,,,,,,,,,,,yellow,flipped triangle
389.0,8.0,4.0,1.0,3.0,3.0,503.5195183008909,4.0,1.0,phase_1,,,,,,,,,,,,,green,cross
215.0,3.0,3.0,0.0,3.0,3.0,309.9178988486528,4.0,1.0,phase_1,,,,,,,,,,,,,yellow,flipped triangle
196.0,7.0,3.0,1.0,4.0,4.0,329.34046164155,4.0,1.0,phase_1,,,,,,,,,,,,,blue,circle
57.0,1.0,1.0,0.0,3.0,3.0,428.8844913244247,4.0,1.0,phase_1,,,,,,,,,,,,,cyan,I
182.0,7.0,3.0,1.0,1.0,1.0,459.8171059042215,4.0,1.0,phase_1,,,,,,,,,,,,,blue,circle
54.0,5.0,1.0,1.0,3.0,3.0,350.2981700003147,4.0,1.0,phase_1,,,,,,,,,,,,,white,hexagon
189.0,3.0,3.0,0.0,2.0,2.0,406.92800283432,4.0,1.0,phase_1,,,,,,,,,,,,,yellow,flipped triangle
0.0,3.0,0.0,0.0,1.0,1.0,578.7878297269344,4.0,1.0,phase_1,,,,,,,,,,,,,yellow,flipped triangle
75.0,6.0,2.0,1.0,4.0,4.0,431.0931172221899,4.0,1.0,phase_1,,,,,,,,,,,,,orange,triangle
180.0,3.0,3.0,0.0,2.0,2.0,292.858874425292,4.0,1.0,phase_1,,,,,,,,,,,,,yellow,flipped triangle
50.0,1.0,1.0,0.0,4.0,4.0,665.2925685048103,4.0,1.0,phase_1,,,,,,,,,,,,,cyan,I
222.0,3.0,3.0,0.0,1.0,1.0,378.6434158682823,4.0,1.0,phase_1,,,,,,,,,,,,,yellow,flipped triangle
194.0,7.0,3.0,1.0,1.0,1.0,431.9036249071359,4.0,1.0,phase_1,,,,,,,,,,,,,blue,circle
0.0,3.0,0.0,0.0,3.0,3.0,575.05888864398,4.0,1.0,phase_1,,,,,,,,,,,,,yellow,flipped triangle
28.0,1.0,1.0,0.0,2.0,2.0,610.8197886496782,4.0,1.0,phase_1,,,,,,,,,,,,,cyan,I
384.0,4.0,4.0,0.0,4.0,4.0,609.2735957354307,4.0,1.0,phase_1,,,,,,,,,,,,,gray,square
45.0,1.0,1.0,0.0,4.0,4.0,987.9777133464812,4.0,1.0,phase_1,,,,,,,,,,,,,cyan,I
395.0,8.0,4.0,1.0,3.0,3.0,544.126695021987,4.0,1.0,phase_1,,,,,,,,,,,,,green,cross
205.0,3.0,3.0,0.0,4.0,4.0,583.425534889102,4.0,1.0,phase_1,,,,,,,,,,,,,yellow,flipped triangle
31.0,5.0,1.0,1.0,4.0,4.0,402.7704019099474,4.0,1.0,phase_1,,,,,,,,,,,,,white,hexagon
383.0,4.0,4.0,0.0,4.0,4.0,350.696787238121,4.0,1.0,phase_1,,,,,,,,,,,,,gray,square
0.0,3.0,0.0,0.0,4.0,4.0,265.2026936411857,4.0,1.0,phase_1,,,,,,,,,,,,,yellow,flipped triangle
54.0,1.0,1.0,0.0,4.0,4.0,350.0451892614364,4.0,1.0,phase_1,,,,,,,,,,,,,cyan,I
0.0,5.0,1.0,1.0,6.0,6.0,713.7617934495211,1.0,1.0,phase_2,go,250.0,250.0,1.0,,,,,,,,,white,hexagon
0.0,6.0,2.0,1.0,6.0,0.0,0.0,1.0,1.0,phase_2,stop,250.0,250.0,4.0,,,,,,,,,orange,triangle
0.0,1.0,1.0,0.0,6.0,6.0,492.6031026989221,1.0,1.0,phase_2,go,250.0,300.0,1.0,,,,,,,,,cyan,I
0.0,7.0,3.0,1.0,5.0,5.0,300.9107206016779,1.0,1.0,phase_2,stop,250.0,300.0,3.0,,,,,,,,,blue,circle
0.0,6.0,2.0,1.0,6.0,6.0,629.6960506588221,1.0,1.0,phase_2,go,200.0,300.0,1.0,,,,,,,,,orange,triangle
0.0,5.0,1.0,1.0,5.0,5.0,469.0671674907207,1.0,1.0,phase_2,go,200.0,300.0,1.0,,,,,,,,,white,hexagon
0.0,3.0,3.0,0.0,5.0,5.0,378.145644441247,1.0,1.0,phase_2,go,200.0,300.0,1.0,,,,,,,,,yellow,flipped triangle
0.0,6.0,2.0,1.0,5.0,5.0,386.4717837423086,1.0,1.0,phase_2,stop,200.0,300.0,3.0,,,,,,,,,orange,triangle
0.0,3.0,3.0,0.0,6.0,6.0,723.3222927898169,1.0,1.0,phase_2,go,150.0,300.0,1.0,,,,,,,,,yellow,flipped triangle
0.0,3.0,3.0,0.0,6.0,6.0,649.4286451488733,1.0,1.0,phase_2,go,150.0,300.0,1.0,,,,,,,,,yellow,flipped triangle
0.0,1.0,1.0,0.0,5.0,5.0,571.8627162277699,1.0,1.0,phase_2,go,150.0,300.0,1.0,,,,,,,,,cyan,I
0.0,8.0,4.0,1.0,6.0,0.0,0.0,1.0,1.0,phase_2,stop,150.0,300.0,4.0,,,,,,,,,green,cross
0.0,3.0,3.0,0.0,6.0,6.0,767.8150329738855,1.0,1.0,phase_2,go,150.0,350.0,1.0,,,,,,,,,yellow,flipped triangle
0.0,8.0,4.0,1.0,6.0,6.0,726.379094645381,1.0,1.0,phase_2,go,150.0,350.0,1.0,,,,,,,,,green,cross
0.0,7.0,3.0,1.0,6.0,0.0,0.0,1.0,1.0,phase_2,stop,150.0,350.0,4.0,,,,,,,,,blue,circle
0.0,5.0,1.0,1.0,6.0,0.0,0.0,1.0,1.0,phase_2,stop,150.0,400.0,4.0,,,,,,,,,white,hexagon
0.0,1.0,1.0,0.0,6.0,6.0,1037.0827112346888,1.0,1.0,phase_2,go,150.0,450.0,1.0,,,,,,,,,cyan,I
0.0,7.0,3.0,1.0,5.0,5.0,532.2802290320396,1.0,1.0,phase_2,go,150.0,450.0,1.0,,,,,,,,,blue,circle
0.0,3.0,3.0,0.0,5.0,5.0,782.4205048382282,1.0,1.0,phase_2,go,150.0,450.0,1.0,,,,,,,,,yellow,flipped triangle
0.0,7.0,3.0,1.0,6.0,0.0,0.0,1.0,1.0,phase_2,stop,150.0,450.0,4.0,,,,,,,,,blue,circle
0.0,7.0,3.0,1.0,5.0,0.0,0.0,1.0,1.0,phase_2,stop,150.0,500.0,4.0,,,,,,,,,blue,circle
0.0,5.0,1.0,1.0,5.0,5.0,1036.6794988512993,1.0,1.0,phase_2,go,200.0,500.0,1.0,,,,,,,,,white,hexagon
0.0,7.0,3.0,1.0,6.0,6.0,914.0247385948896,1.0,1.0,phase_2,go,200.0,500.0,1.0,,,,,,,,,blue,circle
0.0,6.0,2.0,1.0,5.0,0.0,0.0,1.0,1.0,phase_2,stop,200.0,500.0,4.0,,,,,,,,,orange,triangle
0.0,1.0,1.0,0.0,5.0,5.0,633.4006544202566,1.0,1.0,phase_2,go,250.0,500.0,1.0,,,,,,,,,cyan,I
0.0,3.0,3.0,0.0,6.0,6.0,505.1270164549351,1.0,1.0,phase_2,go,250.0,500.0,1.0,,,,,,,,,yellow,flipped triangle
0.0,1.0,1.0,0.0,6.0,6.0,666.4868425577879,1.0,1.0,phase_2,go,250.0,500.0,1.0,,,,,,,,,cyan,I
0.0,5.0,1.0,1.0,6.0,6.0,523.850915953517,1.0,1.0,phase_2,stop,250.0,500.0,3.0,,,,,,,,,white,hexagon
0.0,3.0,3.0,0.0,6.0,6.0,990.3258550912142,1.0,1.0,phase_2,go,250.0,450.0,1.0,,,,,,,,,yellow,flipped triangle
0.0,5.0,1.0,1.0,6.0,6.0,286.4527273923158,1.0,1.0,phase_2,stop,250.0,450.0,3.0,,,,,,,,,white,hexagon
0.0,4.0,4.0,0.0,5.0,5.0,649.1646822541952,1.0,1.0,phase_2,go,250.0,400.0,1.0,,,,,,,,,gray,square
0.0,2.0,2.0,0.0,6.0,6.0,631.8314094096422,1.0,1.0,phase_2,go,250.0,400.0,1.0,,,,,,,,,magenta,diamond
0.0,4.0,4.0,0.0,6.0,6.0,1111.2752798944712,1.0,1.0,phase_2,go,250.0,400.0,1.0,,,,,,,,,gray,square
0.0,5.0,1.0,1.0,6.0,0.0,0.0,1.0,1.0,phase_2,stop,250.0,400.0,4.0,,,,,,,,,white,hexagon
0.0,2.0,2.0,0.0,6.0,6.0,1244.2020159214735,1.0,1.0,phase_2,go,250.0,450.0,1.0,,,,,,,,,magenta,diamond
0.0,4.0,4.0,0.0,6.0,0.0,0.0,1.0,1.0,phase_2,go,250.0,450.0,5.0,,,,,,,,,gray,square
0.0,6.0,2.0,1.0,6.0,0.0,0.0,2.0,1.0,phase_2,stop,250.0,450.0,4.0,,,,,,,,,orange,triangle
0.0,8.0,4.0,1.0,5.0,0.0,0.0,2.0,1.0,phase_2,stop,250.0,500.0,4.0,,,,,,,,,green,cross
0.0,1.0,1.0,0.0,6.0,6.0,778.0102640390396,2.0,1.0,phase_2,go,300.0,500.0,1.0,,,,,,,,,cyan,I
0.0,3.0,3.0,0.0,6.0,6.0,468.5633983463049,2.0,1.0,phase_2,go,300.0,500.0,1.0,,,,,,,,,yellow,flipped triangle
0.0,3.0,3.0,0.0,5.0,5.0,490.2243968099355,2.0,1.0,phase_2,go,300.0,500.0,1.0,,,,,,,,,yellow,flipped triangle
0.0,6.0,2.0,1.0,6.0,6.0,313.7287423014641,2.0,1.0,phase_2,stop,300.0,500.0,3.0,,,,,,,,,orange,triangle
0.0,1.0,1.0,0.0,6.0,6.0,847.1490181982517,2.0,1.0,phase_2,go,300.0,450.0,1.0,,,,,,,,,cyan,I
0.0,4.0,4.0,0.0,6.0,6.0,750.8848048746586,2.0,1.0,phase_2,go,300.0,450.0,1.0,,,,,,,,,gray,square
0.0,5.0,1.0,1.0,5.0,0.0,0.0,2.0,1.0,phase_2,stop,300.0,450.0,4.0,,,,,,,,,white,hexagon
0.0,3.0,3.0,0.0,6.0,6.0,815.7453462481499,2.0,1.0,phase_2,go,350.0,450.0,1.0,,,,,,,,,yellow,flipped triangle
0.0,2.0,2.0,0.0,5.0,5.0,606.0402411967516,2.0,1.0,phase_2,go,350.0,450.0,1.0,,,,,,,,,magenta,diamond
0.0,1.0,1.0,0.0,6.0,6.0,376.6928240656852,2.0,1.0,phase_2,go,350.0,450.0,1.0,,,,,,,,,cyan,I
0.0,6.0,2.0,1.0,5.0,0.0,0.0,2.0,1.0,phase_2,stop,350.0,450.0,4.0,,,,,,,,,orange,triangle
0.0,7.0,3.0,1.0,6.0,0.0,0.0,2.0,1.0,phase_2,stop,400.0,450.0,4.0,,,,,,,,,blue,circle
0.0,5.0,1.0,1.0,5.0,5.0,959.7858153283596,2.0,1.0,phase_2,go,400.0,500.0,1.0,,,,,,,,,white,hexagon
0.0,8.0,4.0,1.0,6.0,6.0,546.0080169141293,2.0,1.0,phase_2,stop,400.0,500.0,3.0,,,,,,,,,green,cross
0.0,1.0,1.0,0.0,5.0,5.0,786.8202216923237,2.0,1.0,phase_2,go,400.0,450.0,1.0,,,,,,,,,cyan,I
0.0,3.0,3.0,0.0,6.0,6.0,666.0363376140594,2.0,1.0,phase_2,go,400.0,450.0,1.0,,,,,,,,,yellow,flipped triangle
0.0,2.0,2.0,0.0,5.0,5.0,644.9114829301834,2.0,1.0,phase_2,go,400.0,450.0,1.0,,,,,,,,,magenta,diamond
0.0,7.0,3.0,1.0,6.0,0.0,0.0,2.0,1.0,phase_2,stop,400.0,450.0,4.0,,,,,,,,,blue,circle
0.0,4.0,4.0,0.0,6.0,6.0,903.6181662231684,2.0,1.0,phase_2,go,400.0,500.0,1.0,,,,,,,,,gray,square
0.0,7.0,3.0,1.0,6.0,0.0,0.0,2.0,1.0,phase_2,stop,400.0,500.0,4.0,,,,,,,,,blue,circle
0.0,6.0,2.0,1.0,6.0,0.0,0.0,2.0,1.0,phase_2,stop,400.0,550.0,4.0,,,,,,,,,orange,triangle
0.0,2.0,2.0,0.0,5.0,5.0,445.7762315869331,2.0,1.0,phase_2,go,400.0,600.0,1.0,,,,,,,,,magenta,diamond
0.0,3.0,3.0,0.0,6.0,6.0,584.6427008509636,2.0,1.0,phase_2,go,400.0,600.0,1.0,,,,,,,,,yellow,flipped triangle
0.0,6.0,2.0,1.0,6.0,6.0,724.7344981878996,2.0,1.0,phase_2,go,400.0,600.0,1.0,,,,,,,,,orange,triangle
0.0,4.0,4.0,0.0,5.0,5.0,357.5395252555609,2.0,1.0,phase_2,go,400.0,600.0,1.0,,,,,,,,,gray,square
0.0,3.0,3.0,0.0,6.0,6.0,619.4491069763899,2.0,1.0,phase_2,go,400.0,600.0,1.0,,,,,,,,,yellow,flipped triangle
0.0,4.0,4.0,0.0,5.0,5.0,948.737096041441,2.0,1.0,phase_2,go,400.0,600.0,1.0,,,,,,,,,gray,square
0.0,6.0,2.0,1.0,5.0,0.0,0.0,2.0,1.0,phase_2,stop,400.0,600.0,4.0,,,,,,,,,orange,triangle
0.0,6.0,2.0,1.0,6.0,0.0,0.0,2.0,1.0,phase_2,stop,450.0,600.0,4.0,,,,,,,,,orange,triangle
0.0,7.0,3.0,1.0,6.0,6.0,557.5405955314636,2.0,1.0,phase_2,stop,450.0,650.0,3.0,,,,,,,,,blue,circle
0.0,8.0,4.0,1.0,5.0,5.0,904.689360409975,2.0,1.0,phase_2,go,450.0,600.0,1.0,,,,,,,,,green,cross
0.0,8.0,4.0,1.0,6.0,6.0,753.2275337725878,2.0,1.0,phase_2,stop,450.0,600.0,3.0,,,,,,,,,green,cross
0.0,4.0,4.0,0.0,6.0,6.0,1056.2113281339407,2.0,1.0,phase_2,go,450.0,550.0,1.0,,,,,,,,,gray,square
0.0,5.0,1.0,1.0,6.0,6.0,528.3226724714041,2.0,1.0,phase_2,go,450.0,550.0,1.0,,,,,,,,,white,hexagon
0.0,5.0,1.0,1.0,5.0,5.0,784.9773187190294,3.0,1.0,phase_2,go,450.0,550.0,1.0,,,,,,,,,white,hexagon
0.0,7.0,3.0,1.0,6.0,6.0,274.0377075970173,3.0,1.0,phase_2,stop,450.0,550.0,3.0,,,,,,,,,blue,circle
0.0,5.0,1.0,1.0,5.0,5.0,385.7600875198841,3.0,1.0,phase_2,stop,450.0,500.0,3.0,,,,,,,,,white,hexagon
0.0,8.0,4.0,1.0,6.0,0.0,0.0,3.0,1.0,phase_2,stop,400.0,500.0,4.0,,,,,,,,,green,cross
0.0,1.0,1.0,0.0,6.0,6.0,848.2057265937328,3.0,1.0,phase_2,go,400.0,550.0,1.0,,,,,,,,,cyan,I
0.0,5.0,1.0,1.0,5.0,0.0,0.0,3.0,1.0,phase_2,stop,400.0,550.0,4.0,,,,,,,,,white,hexagon
0.0,4.0,4.0,0.0,5.0,5.0,1014.7711914032698,3.0,1.0,phase_2,go,450.0,550.0,1.0,,,,,,,,,gray,square
0.0,2.0,2.0,0.0,6.0,6.0,295.2147051692009,3.0,1.0,phase_2,go,450.0,550.0,1.0,,,,,,,,,magenta,diamond
0.0,6.0,2.0,1.0,5.0,5.0,381.8129450082779,3.0,1.0,phase_2,stop,450.0,550.0,3.0,,,,,,,,,orange,triangle
0.0,7.0,3.0,1.0,6.0,6.0,869.1284600645304,3.0,1.0,phase_2,go,400.0,550.0,1.0,,,,,,,,,blue,circle
0.0,1.0,1.0,0.0,5.0,5.0,818.3596562594175,3.0,1.0,phase_2,go,400.0,550.0,1.0,,,,,,,,,cyan,I
0.0,6.0,2.0,1.0,5.0,0.0,0.0,3.0,1.0,phase_2,stop,400.0,550.0,4.0,,,,,,,,,orange,triangle
0.0,8.0,4.0,1.0,6.0,6.0,411.7815773934126,3.0,1.0,phase_2,stop,450.0,550.0,3.0,,,,,,,,,green,cross
0.0,5.0,1.0,1.0,5.0,0.0,0.0,3.0,1.0,phase_2,stop,450.0,500.0,4.0,,,,,,,,,white,hexagon
0.0,4.0,4.0,0.0,5.0,5.0,983.512932434678,3.0,1.0,phase_2,go,500.0,500.0,1.0,,,,,,,,,gray,square
0.0,5.0,1.0,1.0,6.0,0.0,0.0,3.0,1.0,phase_2,stop,500.0,500.0,4.0,,,,,,,,,white,hexagon
0.0,2.0,2.0,0.0,6.0,6.0,902.367502450943,3.0,1.0,phase_2,go,500.0,550.0,1.0,,,,,,,,,magenta,diamond
0.0,4.0,4.0,0.0,6.0,6.0,933.772223070264,3.0,1.0,phase_2,go,500.0,550.0,1.0,,,,,,,,,gray,square
0.0,6.0,2.0,1.0,6.0,6.0,357.562605291605,3.0,1.0,phase_2,stop,500.0,550.0,3.0,,,,,,,,,orange,triangle
0.0,8.0,4.0,1.0,5.0,5.0,959.8094318062068,3.0,1.0,phase_2,go,500.0,500.0,1.0,,,,,,,,,green,cross
0.0,3.0,3.0,0.0,5.0,5.0,1102.2374965250492,3.0,1.0,phase_2,go,500.0,500.0,1.0,,,,,,,,,yellow,flipped triangle
0.0,4.0,4.0,0.0,5.0,5.0,894.1401932388544,3.0,1.0,phase_2,go,500.0,500.0,1.0,,,,,,,,,gray,square
0.0,1.0,1.0,0.0,6.0,6.0,731.4211837947369,3.0,1.0,phase_2,go,500.0,500.0,1.0,,,,,,,,,cyan,I
0.0,7.0,3.0,1.0,5.0,5.0,907.1386437863111,3.0,1.0,phase_2,go,500.0,500.0,1.0,,,,,,,,,blue,circle
0.0,8.0,4.0,1.0,6.0,6.0,528.5389814525843,3.0,1.0,phase_2,stop,500.0,500.0,3.0,,,,,,,,,green,cross
0.0,4.0,4.0,0.0,6.0,6.0,1236.1041828989985,3.0,1.0,phase_2,go,500.0,450.0,1.0,,,,,,,,,gray,square
0.0,4.0,4.0,0.0,5.0,5.0,785.2254156023264,3.0,1.0,phase_2,go,500.0,450.0,1.0,,,,,,,,,gray,square
0.0,3.0,3.0,0.0,6.0,6.0,810.1193383336067,3.0,1.0,phase_2,go,500.0,450.0,1.0,,,,,,,,,yellow,flipped triangle
0.0,3.0,3.0,0.0,6.0,6.0,888.7583706527948,3.0,1.0,phase_2,go,500.0,450.0,1.0,,,,,,,,,yellow,flipped triangle
0.0,4.0,4.0,0.0,6.0,6.0,658.1847965717316,3.0,1.0,phase_2,go,500.0,450.0,1.0,,,,,,,,,gray,square
0.0,5.0,1.0,1.0,5.0,0.0,0.0,3.0,1.0,phase_2,stop,500.0,450.0,4.0,,,,,,,,,white,hexagon
0.0,5.0,1.0,1.0,6.0,6.0,1129.778441041708,3.0,1.0,phase_2,go,550.0,450.0,1.0,,,,,,,,,white,hexagon
0.0,5.0,1.0,1.0,5.0,0.0,0.0,3.0,1.0,phase_2,stop,550.0,450.0,4.0,,,,,,,,,white,hexagon
0.0,8.0,4.0,1.0,6.0,0.0,0.0,3.0,1.0,phase_2,stop,600.0,450.0,4.0,,,,,,,,,green,cross
0.0,2.0,2.0,0.0,5.0,5.0,1284.9449533969164,3.0,1.0,phase_2,go,600.0,500.0,1.0,,,,,,,,,magenta,diamond
0.0,2.0,2.0,0.0,6.0,6.0,861.1570615321398,3.0,1.0,phase_2,go,600.0,500.0,1.0,,,,,,,,,magenta,diamond
0.0,8.0,4.0,1.0,6.0,0.0,0.0,4.0,1.0,phase_2,stop,600.0,500.0,4.0,,,,,,,,,green,cross
0.0,8.0,4.0,1.0,5.0,5.0,449.2895565927028,4.0,1.0,phase_2,go,600.0,550.0,1.0,,,,,,,,,green,cross
0.0,8.0,4.0,1.0,5.0,5.0,345.4014081507921,4.0,1.0,phase_2,go,600.0,550.0,1.0,,,,,,,,,green,cross
0.0,1.0,1.0,0.0,5.0,5.0,474.2920715361833,4.0,1.0,phase_2,go,600.0,550.0,1.0,,,,,,,,,cyan,I
0.0,3.0,3.0,0.0,5.0,5.0,679.9020003527403,4.0,1.0,phase_2,go,600.0,550.0,1.0,,,,,,,,,yellow,flipped triangle
0.0,4.0,4.0,0.0,6.0,6.0,617.127075791359,4.0,1.0,phase_2,go,600.0,550.0,1.0,,,,,,,,,gray,square
0.0,6.0,2.0,1.0,5.0,5.0,639.1386911273003,4.0,1.0,phase_2,stop,600.0,550.0,3.0,,,,,,,,,orange,triangle
0.0,1.0,1.0,0.0,5.0,5.0,815.1251580566168,4.0,1.0,phase_2,go,550.0,550.0,1.0,,,,,,,,,cyan,I
0.0,2.0,2.0,0.0,6.0,6.0,879.3322592973709,4.0,1.0,phase_2,go,550.0,550.0,1.0,,,,,,,,,magenta,diamond
0.0,4.0,4.0,0.0,6.0,6.0,421.6119665652513,4.0,1.0,phase_2,go,550.0,550.0,1.0,,,,,,,,,gray,square
0.0,2.0,2.0,0.0,5.0,5.0,796.609602868557,4.0,1.0,phase_2,go,550.0,550.0,1.0,,,,,,,,,magenta,diamond
0.0,4.0,4.0,0.0,5.0,5.0,878.596656024456,4.0,1.0,phase_2,go,550.0,550.0,1.0,,,,,,,,,gray,square
0.0,4.0,4.0,0.0,5.0,5.0,827.7441114187241,4.0,1.0,phase_2,go,550.0,550.0,1.0,,,,,,,,,gray,square
0.0,3.0,3.0,0.0,6.0,6.0,723.6480489373207,4.0,1.0,phase_2,go,550.0,550.0,1.0,,,,,,,,,yellow,flipped triangle
0.0,5.0,1.0,1.0,5.0,0.0,0.0,4.0,1.0,phase_2,stop,550.0,550.0,4.0,,,,,,,,,white,hexagon
0.0,7.0,3.0,1.0,5.0,5.0,666.4855051785707,4.0,1.0,phase_2,stop,600.0,550.0,3.0,,,,,,,,,blue,circle
0.0,2.0,2.0,0.0,5.0,5.0,1115.875631570816,4.0,1.0,phase_2,go,550.0,550.0,1.0,,,,,,,,,magenta,diamond
0.0,4.0,4.0,0.0,6.0,6.0,313.5200962424278,4.0,1.0,phase_2,go,550.0,550.0,1.0,,,,,,,,,gray,square
0.0,6.0,2.0,1.0,6.0,0.0,0.0,4.0,1.0,phase_2,stop,550.0,550.0,4.0,,,,,,,,,orange,triangle
0.0,2.0,2.0,0.0,5.0,5.0,872.2694553434849,4.0,1.0,phase_2,go,550.0,600.0,1.0,,,,,,,,,magenta,diamond
0.0,4.0,4.0,0.0,6.0,6.0,527.745021507144,4.0,1.0,phase_2,go,550.0,600.0,1.0,,,,,,,,,gray,square
0.0,8.0,4.0,1.0,6.0,0.0,0.0,4.0,1.0,phase_2,stop,550.0,600.0,4.0,,,,,,,,,green,cross
0.0,7.0,3.0,1.0,6.0,0.0,0.0,4.0,1.0,phase_2,stop,550.0,650.0,4.0,,,,,,,,,blue,circle
0.0,2.0,2.0,0.0,6.0,6.0,1025.1080356538296,4.0,1.0,phase_2,go,550.0,700.0,1.0,,,,,,,,,magenta,diamond
0.0,7.0,3.0,1.0,6.0,6.0,716.8666161596775,4.0,1.0,phase_2,stop,550.0,700.0,3.0,,,,,,,,,blue,circle
0.0,8.0,4.0,1.0,6.0,0.0,0.0,4.0,1.0,phase_2,stop,550.0,650.0,4.0,,,,,,,,,green,cross
0.0,2.0,2.0,0.0,6.0,0.0,0.0,4.0,1.0,phase_2,go,550.0,700.0,5.0,,,,,,,,,magenta,diamond
0.0,8.0,4.0,1.0,5.0,5.0,427.8884474188089,4.0,1.0,phase_2,stop,550.0,700.0,3.0,,,,,,,,,green,cross
0.0,8.0,4.0,1.0,6.0,6.0,307.0635292679071,4.0,1.0,phase_2,stop,500.0,700.0,3.0,,,,,,,,,green,cross
0.0,8.0,4.0,1.0,5.0,0.0,0.0,4.0,1.0,phase_2,stop,500.0,650.0,4.0,,,,,,,,,green,cross
0.0,1.0,1.0,0.0,5.0,5.0,841.9097922742367,4.0,1.0,phase_2,go,550.0,650.0,1.0,,,,,,,,,cyan,I
0.0,1.0,1.0,0.0,5.0,5.0,563.5619033128023,4.0,1.0,phase_2,go,550.0,650.0,1.0,,,,,,,,,cyan,I
0.0,8.0,4.0,1.0,6.0,6.0,680.3003996610641,4.0,1.0,phase_2,stop,550.0,650.0,3.0,,,,,,,,,green,cross
0.0,7.0,3.0,1.0,6.0,0.0,0.0,4.0,1.0,phase_2,stop,550.0,600.0,4.0,,,,,,,,,blue,circle
0.0,6.0,2.0,1.0,6.0,6.0,1273.3792699873447,4.0,1.0,phase_2,go,550.0,650.0,1.0,,,,,,,,,orange,triangle
0.0,1.0,1.0,0.0,5.0,5.0,1040.300099179149,4.0,1.0,phase_2,go,550.0,650.0,1.0,,,,,,,,,cyan,I
0.0,4.0,4.0,0.0,6.0,6.0,1172.183096408844,5.0,1.0,phase_2,go,550.0,650.0,1.0,,,,,,,,,gray,square
0.0,4.0,4.0,0.0,6.0,6.0,557.3171135038137,5.0,1.0,phase_2,go,550.0,650.0,1.0,,,,,,,,,gray,square
0.0,6.0,2.0,1.0,6.0,6.0,411.1430235207081,5.0,1.0,phase_2,stop,550.0,650.0,3.0,,,,,,,,,orange,triangle
0.0,8.0,4.0,1.0,6.0,0.0,0.0,5.0,1.0,phase_2,stop,550.0,600.0,4.0,,,,,,,,,green,cross
0.0,7.0,3.0,1.0,6.0,6.0,777.9307309538126,5.0,1.0,phase_2,go,550.0,650.0,1.0,,,,,,,,,blue,circle
0.0,2.0,2.0,0.0,6.0,6.0,768.7926068902016,5.0,1.0,phase_2,go,550.0,650.0,1.0,,,,,,,,,magenta,diamond
0.0,5.0,1.0,1.0,6.0,6.0,739.1770835965872,5.0,1.0,phase_2,stop,550.0,650.0,3.0,,,,,,,,,white,hexagon
0.0,4.0,4.0,0.0,5.0,5.0,1031.7288115620613,5.0,1.0,phase_2,go,550.0,600.0,1.0,,,,,,,,,gray,square
0.0,5.0,1.0,1.0,5.0,0.0,0.0,5.0,1.0,phase_2,stop,550.0,600.0,4.0,,,,,,,,,white,hexagon
0.0,4.0,4.0,0.0,6.0,6.0,777.9865525662899,5.0,1.0,phase_2,go,600.0,600.0,1.0,,,,,,,,,gray,square
0.0,5.0,1.0,1.0,6.0,0.0,0.0,5.0,1.0,phase_2,stop,600.0,600.0,4.0,,,,,,,,,white,hexagon
0.0,2.0,2.0,0.0,5.0,5.0,833.8147103786469,5.0,1.0,phase_2,go,600.0,650.0,1.0,,,,,,,,,magenta,diamond
0.0,4.0,4.0,0.0,5.0,5.0,1017.4692273139954,5.0,1.0,phase_2,go,600.0,650.0,1.0,,,,,,,,,gray,square
0.0,1.0,1.0,0.0,5.0,5.0,1348.3149278908968,5.0,1.0,phase_2,go,600.0,650.0,1.0,,,,,,,,,cyan,I
0.0,3.0,3.0,0.0,5.0,5.0,463.1579462438822,5.0,1.0,phase_2,go,600.0,650.0,1.0,,,,,,,,,yellow,flipped triangle
0.0,6.0,2.0,1.0,5.0,0.0,0.0,5.0,1.0,phase_2,stop,600.0,650.0,4.0,,,,,,,,,orange,triangle
0.0,8.0,4.0,1.0,5.0,5.0,557.1141988039017,5.0,1.0,phase_2,go,650.0,650.0,1.0,,,,,,,,,green,cross
0.0,4.0,4.0,0.0,5.0,5.0,1003.0138064175844,5.0,1.0,phase_2,go,650.0,650.0,1.0,,,,,,,,,gray,square
0.0,7.0,3.0,1.0,5.0,5.0,546.0880342870951,5.0,1.0,phase_2,stop,650.0,650.0,3.0,,,,,,,,,blue,circle
0.0,5.0,1.0,1.0,6.0,6.0,643.5866411775351,5.0,1.0,phase_2,stop,600.0,650.0,3.0,,,,,,,,,white,hexagon
0.0,6.0,2.0,1.0,5.0,5.0,962.563805282116,5.0,1.0,phase_2,go,600.0,600.0,1.0,,,,,,,,,orange,triangle
0.0,7.0,3.0,1.0,5.0,5.0,584.1962154954672,5.0,1.0,phase_2,stop,600.0,600.0,3.0,,,,,,,,,blue,circle
0.0,6.0,2.0,1.0,5.0,5.0,1059.0365920215845,5.0,1.0,phase_2,go,550.0,600.0,1.0,,,,,,,,,orange,triangle
0.0,8.0,4.0,1.0,6.0,0.0,0.0,5.0,1.0,phase_2,stop,550.0,600.0,4.0,,,,,,,,,green,cross
0.0,8.0,4.0,1.0,5.0,0.0,0.0,5.0,1.0,phase_2,stop,550.0,650.0,4.0,,,,,,,,,green,cross
0.0,1.0,1.0,0.0,5.0,5.0,1305.340614169836,5.0,1.0,phase_2,go,600.0,650.0,1.0,,,,,,,,,cyan,I
0.0,7.0,3.0,1.0,5.0,0.0,0.0,5.0,1.0,phase_2,stop,600.0,650.0,4.0,,,,,,,,,blue,circle
0.0,7.0,3.0,1.0,6.0,6.0,1005.5033843964338,5.0,1.0,phase_2,go,650.0,650.0,1.0,,,,,,,,,blue,circle
0.0,2.0,2.0,0.0,5.0,5.0,1277.4609345942736,5.0,1.0,phase_2,go,650.0,650.0,1.0,,,,,,,,,magenta,diamond
0.0,3.0,3.0,0.0,5.0,0.0,0.0,5.0,1.0,phase_2,go,650.0,650.0,5.0,,,,,,,,,yellow,flipped triangle
0.0,3.0,3.0,0.0,5.0,5.0,453.2134998589754,5.0,1.0,phase_2,go,650.0,650.0,1.0,,,,,,,,,yellow,flipped triangle
0.0,7.0,3.0,1.0,5.0,5.0,667.1262681484222,5.0,1.0,phase_2,stop,650.0,650.0,3.0,,,,,,,,,blue,circle
0.0,2.0,2.0,0.0,5.0,5.0,814.5555127412081,5.0,1.0,phase_2,go,600.0,650.0,1.0,,,,,,,,,magenta,diamond
0.0,8.0,4.0,1.0,5.0,0.0,0.0,5.0,1.0,phase_2,stop,600.0,650.0,4.0,,,,,,,,,green,cross
0.0,1.0,1.0,0.0,5.0,5.0,1033.0574437975883,5.0,1.0,phase_2,go,650.0,650.0,1.0,,,,,,,,,cyan,I
0.0,6.0,2.0,1.0,5.0,0.0,0.0,5.0,1.0,phase_2,stop,650.0,650.0,4.0,,,,,,,,,orange,triangle
0.0,5.0,1.0,1.0,6.0,6.0,760.2174412459135,6.0,1.0,phase_2,stop,700.0,650.0,3.0,,,,,,,,,white,hexagon
0.0,1.0,1.0,0.0,5.0,5.0,583.7719775736332,6.0,1.0,phase_2,go,700.0,600.0,1.0,,,,,,,,,cyan,I
0.0,1.0,1.0,0.0,6.0,6.0,297.6104039698839,6.0,1.0,phase_2,go,700.0,600.0,1.0,,,,,,,,,cyan,I
0.0,3.0,3.0,0.0,5.0,5.0,397.7365922182798,6.0,1.0,phase_2,go,700.0,600.0,1.0,,,,,,,,,yellow,flipped triangle
0.0,7.0,3.0,1.0,5.0,0.0,0.0,6.0,1.0,phase_2,stop,700.0,600.0,4.0,,,,,,,,,blue,circle
0.0,3.0,3.0,0.0,5.0,5.0,829.3092641979456,6.0,1.0,phase_2,go,750.0,600.0,1.0,,,,,,,,,yellow,flipped triangle
0.0,4.0,4.0,0.0,6.0,6.0,519.5382684469223,6.0,1.0,phase_2,go,750.0,600.0,1.0,,,,,,,,,gray,square
0.0,5.0,1.0,1.0,5.0,5.0,635.6683112680912,6.0,1.0,phase_2,go,750.0,600.0,1.0,,,,,,,,,white,hexagon
0.0,8.0,4.0,1.0,5.0,0.0,0.0,6.0,1.0,phase_2,stop,750.0,600.0,4.0,,,,,,,,,green,cross
0.0,6.0,2.0,1.0,5.0,0.0,0.0,6.0,1.0,phase_2,stop,800.0,600.0,4.0,,,,,,,,,orange,triangle
0.0,8.0,4.0,1.0,6.0,0.0,0.0,6.0,1.0,phase_2,stop,850.0,600.0,4.0,,,,,,,,,green,cross
0.0,2.0,2.0,0.0,5.0,5.0,1113.1130065768955,6.0,1.0,phase_2,go,850.0,650.0,1.0,,,,,,,,,magenta,diamond
0.0,6.0,2.0,1.0,6.0,6.0,904.8919845372438,6.0,1.0,phase_2,go,850.0,650.0,1.0,,,,,,,,,orange,triangle
0.0,2.0,2.0,0.0,6.0,6.0,664.7418010979891,6.0,1.0,phase_2,go,850.0,650.0,1.0,,,,,,,,,magenta,diamond
0.0,3.0,3.0,0.0,6.0,6.0,634.429857134819,6.0,1.0,phase_2,go,850.0,650.0,1.0,,,,,,,,,yellow,flipped triangle
0.0,7.0,3.0,1.0,6.0,0.0,0.0,6.0,1.0,phase_2,stop,850.0,650.0,4.0,,,,,,,,,blue,circle
0.0,2.0,2.0,0.0,5.0,5.0,783.9680686593056,6.0,1.0,phase_2,go,850.0,700.0,1.0,,,,,,,,,magenta,diamond
0.0,2.0,2.0,0.0,6.0,6.0,390.6610570847988,6.0,1.0,phase_2,go,850.0,700.0,1.0,,,,,,,,,magenta,diamond
0.0,1.0,1.0,0.0,6.0,6.0,957.8865095973016,6.0,1.0,phase_2,go,850.0,700.0,1.0,,,,,,,,,cyan,I
0.0,5.0,1.0,1.0,6.0,0.0,0.0,6.0,1.0,phase_2,stop,850.0,700.0,4.0,,,,,,,,,white,hexagon
0.0,7.0,3.0,1.0,5.0,5.0,989.827698096633,6.0,1.0,phase_2,stop,850.0,750.0,3.0,,,,,,,,,blue,circle
0.0,2.0,2.0,0.0,5.0,5.0,1333.754479885101,6.0,1.0,phase_2,go,800.0,750.0,1.0,,,,,,,,,magenta,diamond
0.0,1.0,1.0,0.0,6.0,6.0,478.1708605587482,6.0,1.0,phase_2,go,800.0,750.0,1.0,,,,,,,,,cyan,I
0.0,1.0,1.0,0.0,6.0,6.0,732.6220236718655,6.0,1.0,phase_2,go,800.0,750.0,1.0,,,,,,,,,cyan,I
0.0,6.0,2.0,1.0,5.0,5.0,646.314350888133,6.0,1.0,phase_2,stop,800.0,750.0,3.0,,,,,,,,,orange,triangle
0.0,6.0,2.0,1.0,6.0,6.0,498.3292371034622,6.0,1.0,phase_2,stop,750.0,750.0,3.0,,,,,,,,,orange,triangle
0.0,8.0,4.0,1.0,5.0,5.0,721.9464499503374,6.0,1.0,phase_2,go,750.0,700.0,1.0,,,,,,,,,green,cross
0.0,1.0,1.0,0.0,5.0,5.0,1001.304579898715,6.0,1.0,phase_2,go,750.0,700.0,1.0,,,,,,,,,cyan,I
0.0,1.0,1.0,0.0,6.0,6.0,850.0967416912317,6.0,1.0,phase_2,go,750.0,700.0,1.0,,,,,,,,,cyan,I
0.0,6.0,2.0,1.0,6.0,0.0,0.0,6.0,1.0,phase_2,stop,750.0,700.0,4.0,,,,,,,,,orange,triangle
0.0,8.0,4.0,1.0,5.0,0.0,0.0,6.0,1.0,phase_2,stop,750.0,750.0,4.0,,,,,,,,,green,cross
0.0,7.0,3.0,1.0,5.0,0.0,0.0,6.0,1.0,phase_2,stop,800.0,750.0,4.0,,,,,,,,,blue,circle
0.0,7.0,3.0,1.0,5.0,5.0,888.9726921916008,6.0,1.0,phase_2,go,850.0,750.0,1.0,,,,,,,,,blue,circle
0.0,1.0,1.0,0.0,5.0,5.0,752.5814324617386,6.0,1.0,phase_2,go,850.0,750.0,1.0,,,,,,,,,cyan,I
0.0,3.0,3.0,0.0,6.0,6.0,398.8800887018442,6.0,1.0,phase_2,go,850.0,750.0,1.0,,,,,,,,,yellow,flipped triangle
0.0,1.0,1.0,0.0,6.0,6.0,349.836865440011,6.0,1.0,phase_2,go,850.0,750.0,1.0,,,,,,,,,cyan,I
0.0,5.0,1.0,1.0,5.0,0.0,0.0,7.0,1.0,phase_2,stop,850.0,750.0,4.0,,,,,,,,,white,hexagon
0.0,4.0,4.0,0.0,5.0,5.0,610.3518065065145,7.0,1.0,phase_2,go,900.0,750.0,1.0,,,,,,,,,gray,square
0.0,4.0,4.0,0.0,6.0,6.0,1035.1255033165216,7.0,1.0,phase_2,go,900.0,750.0,1.0,,,,,,,,,gray,square
0.0,8.0,4.0,1.0,5.0,5.0,579.8030979931355,7.0,1.0,phase_2,stop,900.0,750.0,3.0,,,,,,,,,green,cross
0.0,5.0,1.0,1.0,5.0,5.0,602.253032848239,7.0,1.0,phase_2,go,850.0,750.0,1.0,,,,,,,,,white,hexagon
0.0,4.0,4.0,0.0,5.0,5.0,347.6796615868807,7.0,1.0,phase_2,go,850.0,750.0,1.0,,,,,,,,,gray,square
0.0,6.0,2.0,1.0,6.0,6.0,466.0167340189218,7.0,1.0,phase_2,go,850.0,750.0,1.0,,,,,,,,,orange,triangle
0.0,3.0,3.0,0.0,5.0,5.0,608.6673252284527,7.0,1.0,phase_2,go,850.0,750.0,1.0,,,,,,,,,yellow,flipped triangle
0.0,2.0,2.0,0.0,5.0,5.0,673.0533763766289,7.0,1.0,phase_2,go,850.0,750.0,1.0,,,,,,,,,magenta,diamond
0.0,2.0,2.0,0.0,6.0,6.0,710.0703306496143,7.0,1.0,phase_2,go,850.0,750.0,1.0,,,,,,,,,magenta,diamond
0.0,1.0,1.0,0.0,6.0,6.0,431.6023234277963,7.0,1.0,phase_2,go,850.0,750.0,1.0,,,,,,,,,cyan,I
0.0,3.0,3.0,0.0,5.0,5.0,912.3673122376204,7.0,1.0,phase_2,go,850.0,750.0,1.0,,,,,,,,,yellow,flipped triangle
0.0,6.0,2.0,1.0,5.0,5.0,927.1595012396574,7.0,1.0,phase_2,stop,850.0,750.0,3.0,,,,,,,,,orange,triangle
0.0,6.0,2.0,1.0,5.0,5.0,838.9379326254129,7.0,1.0,phase_2,go,800.0,750.0,1.0,,,,,,,,,orange,triangle
0.0,3.0,3.0,0.0,5.0,5.0,365.627933293581,7.0,1.0,phase_2,go,800.0,750.0,1.0,,,,,,,,,yellow,flipped triangle
0.0,7.0,3.0,1.0,6.0,6.0,660.9500478953123,7.0,1.0,phase_2,stop,800.0,750.0,3.0,,,,,,,,,blue,circle
0.0,3.0,3.0,0.0,6.0,6.0,1026.8040746450424,7.0,1.0,phase_2,go,800.0,700.0,1.0,,,,,,,,,yellow,flipped triangle
0.0,3.0,3.0,0.0,5.0,5.0,556.9703485816717,7.0,1.0,phase_2,go,800.0,700.0,1.0,,,,,,,,,yellow,flipped triangle
0.0,4.0,4.0,0.0,5.0,5.0,914.2794348299504,7.0,1.0,phase_2,go,800.0,700.0,1.0,,,,,,,,,gray,square
0.0,3.0,3.0,0.0,5.0,5.0,835.899880155921,7.0,1.0,phase_2,go,800.0,700.0,1.0,,,,,,,,,yellow,flipped triangle
0.0,8.0,4.0,1.0,5.0,5.0,601.9102782011032,7.0,1.0,phase_2,stop,800.0,700.0,3.0,,,,,,,,,green,cross
0.0,7.0,3.0,1.0,5.0,5.0,762.2093558311462,7.0,1.0,phase_2,go,750.0,700.0,1.0,,,,,,,,,blue,circle
0.0,1.0,1.0,0.0,6.0,6.0,951.825050637126,7.0,1.0,phase_2,go,750.0,700.0,1.0,,,,,,,,,cyan,I
0.0,2.0,2.0,0.0,5.0,5.0,464.5069073885679,7.0,1.0,phase_2,go,750.0,700.0,1.0,,,,,,,,,magenta,diamond
0.0,2.0,2.0,0.0,5.0,5.0,377.8892643749714,7.0,1.0,phase_2,go,750.0,700.0,1.0,,,,,,,,,magenta,diamond
0.0,6.0,2.0,1.0,6.0,6.0,398.141760379076,7.0,1.0,phase_2,go,750.0,700.0,1.0,,,,,,,,,orange,triangle
0.0,1.0,1.0,0.0,5.0,5.0,589.5060747861862,7.0,1.0,phase_2,go,750.0,700.0,1.0,,,,,,,,,cyan,I
0.0,8.0,4.0,1.0,6.0,6.0,740.135433152318,7.0,1.0,phase_2,stop,750.0,700.0,3.0,,,,,,,,,green,cross
0.0,6.0,2.0,1.0,6.0,6.0,995.6236574798822,7.0,1.0,phase_2,stop,750.0,650.0,3.0,,,,,,,,,orange,triangle
0.0,2.0,2.0,0.0,5.0,5.0,1062.302391976118,7.0,1.0,phase_2,go,750.0,600.0,1.0,,,,,,,,,magenta,diamond
0.0,2.0,2.0,0.0,6.0,6.0,882.6288301497698,7.0,1.0,phase_2,go,750.0,600.0,1.0,,,,,,,,,magenta,diamond
0.0,5.0,1.0,1.0,6.0,0.0,0.0,7.0,1.0,phase_2,stop,750.0,600.0,4.0,,,,,,,,,white,hexagon
0.0,7.0,3.0,1.0,5.0,5.0,780.7047385722399,7.0,1.0,phase_2,stop,750.0,650.0,3.0,,,,,,,,,blue,circle
0.0,3.0,3.0,0.0,5.0,5.0,1076.4322746545076,7.0,1.0,phase_2,go,700.0,650.0,1.0,,,,,,,,,yellow,flipped triangle
0.0,1.0,1.0,0.0,5.0,5.0,955.9477642178535,7.0,1.0,phase_2,go,700.0,650.0,1.0,,,,,,,,,cyan,I
0.0,4.0,4.0,0.0,6.0,6.0,936.4505764096976,7.0,1.0,phase_2,go,700.0,650.0,1.0,,,,,,,,,gray,square
0.0,6.0,2.0,1.0,5.0,5.0,842.0642632991076,8.0,1.0,phase_2,stop,700.0,650.0,3.0,,,,,,,,,orange,triangle
0.0,6.0,2.0,1.0,6.0,6.0,711.2026400864124,8.0,1.0,phase_2,stop,650.0,650.0,3.0,,,,,,,,,orange,triangle
0.0,6.0,2.0,1.0,5.0,0.0,0.0,8.0,1.0,phase_2,stop,650.0,600.0,4.0,,,,,,,,,orange,triangle
0.0,2.0,2.0,0.0,5.0,5.0,1206.3910122960806,8.0,1.0,phase_2,go,700.0,600.0,1.0,,,,,,,,,magenta,diamond
0.0,7.0,3.0,1.0,5.0,0.0,0.0,8.0,1.0,phase_2,stop,700.0,600.0,4.0,,,,,,,,,blue,circle
0.0,8.0,4.0,1.0,6.0,0.0,0.0,8.0,1.0,phase_2,stop,750.0,600.0,4.0,,,,,,,,,green,cross
0.0,2.0,2.0,0.0,6.0,6.0,1165.46849347651,8.0,1.0,phase_2,go,750.0,650.0,1.0,,,,,,,,,magenta,diamond
0.0,2.0,2.0,0.0,6.0,6.0,778.8645680993795,8.0,1.0,phase_2,go,750.0,650.0,1.0,,,,,,,,,magenta,diamond
0.0,6.0,2.0,1.0,5.0,0.0,0.0,8.0,1.0,phase_2,stop,750.0,650.0,4.0,,,,,,,,,orange,triangle
0.0,1.0,1.0,0.0,6.0,6.0,1420.468583703041,8.0,1.0,phase_2,go,800.0,650.0,1.0,,,,,,,,,cyan,I
0.0,1.0,1.0,0.0,6.0,6.0,1137.3556405305862,8.0,1.0,phase_2,go,800.0,650.0,1.0,,,,,,,,,cyan,I
0.0,7.0,3.0,1.0,6.0,0.0,0.0,8.0,1.0,phase_2,stop,800.0,650.0,4.0,,,,,,,,,blue,circle
0.0,7.0,3.0,1.0,5.0,5.0,879.932576790452,8.0,1.0,phase_2,stop,800.0,700.0,3.0,,,,,,,,,blue,circle
0.0,8.0,4.0,1.0,5.0,5.0,689.4902121275663,8.0,1.0,phase_2,stop,750.0,700.0,3.0,,,,,,,,,green,cross
0.0,3.0,3.0,0.0,6.0,6.0,774.6551595628262,8.0,1.0,phase_2,go,700.0,700.0,1.0,,,,,,,,,yellow,flipped triangle
0.0,5.0,1.0,1.0,6.0,6.0,583.5321303457022,8.0,1.0,phase_2,stop,700.0,700.0,3.0,,,,,,,,,white,hexagon
0.0,3.0,3.0,0.0,6.0,6.0,833.2359809428453,8.0,1.0,phase_2,go,700.0,650.0,1.0,,,,,,,,,yellow,flipped triangle
0.0,2.0,2.0,0.0,6.0,6.0,724.4108859449625,8.0,1.0,phase_2,go,700.0,650.0,1.0,,,,,,,,,magenta,diamond
0.0,8.0,4.0,1.0,5.0,5.0,997.5444078445436,8.0,1.0,phase_2,go,700.0,650.0,1.0,,,,,,,,,green,cross
0.0,4.0,4.0,0.0,5.0,5.0,926.0251093655824,8.0,1.0,phase_2,go,700.0,650.0,1.0,,,,,,,,,gray,square
0.0,4.0,4.0,0.0,5.0,5.0,883.5245370864868,8.0,1.0,phase_2,go,700.0,650.0,1.0,,,,,,,,,gray,square
0.0,5.0,1.0,1.0,5.0,5.0,833.9306674897671,8.0,1.0,phase_2,stop,700.0,650.0,3.0,,,,,,,,,white,hexagon
0.0,5.0,1.0,1.0,5.0,0.0,0.0,8.0,1.0,phase_2,stop,650.0,650.0,4.0,,,,,,,,,white,hexagon
0.0,1.0,1.0,0.0,5.0,5.0,1041.7741611599922,8.0,1.0,phase_2,go,700.0,650.0,1.0,,,,,,,,,cyan,I
0.0,3.0,3.0,0.0,5.0,5.0,1308.101335540414,8.0,1.0,phase_2,go,700.0,650.0,1.0,,,,,,,,,yellow,flipped triangle
0.0,3.0,3.0,0.0,5.0,5.0,1178.0852880328894,8.0,1.0,phase_2,go,700.0,650.0,1.0,,,,,,,,,yellow,flipped triangle
0.0,7.0,3.0,1.0,5.0,5.0,745.7089647650719,8.0,1.0,phase_2,go,700.0,650.0,1.0,,,,,,,,,blue,circle
0.0,7.0,3.0,1.0,6.0,0.0,0.0,8.0,1.0,phase_2,stop,700.0,650.0,4.0,,,,,,,,,blue,circle
0.0,8.0,4.0,1.0,5.0,5.0,1064.3847789615393,8.0,1.0,phase_2,go,700.0,700.0,1.0,,,,,,,,,green,cross
0.0,5.0,1.0,1.0,6.0,0.0,0.0,8.0,1.0,phase_2,stop,700.0,700.0,4.0,,,,,,,,,white,hexagon
0.0,2.0,2.0,0.0,6.0,6.0,1209.3314547091722,8.0,1.0,phase_2,go,700.0,750.0,1.0,,,,,,,,,magenta,diamond
0.0,2.0,2.0,0.0,6.0,6.0,615.7985739409924,8.0,1.0,phase_2,go,700.0,750.0,1.0,,,,,,,,,magenta,diamond
0.0,5.0,1.0,1.0,6.0,0.0,0.0,8.0,1.0,phase_2,stop,700.0,750.0,4.0,,,,,,,,,white,hexagon
0.0,5.0,1.0,1.0,6.0,0.0,0.0,8.0,1.0,phase_2,stop,700.0,800.0,4.0,,,,,,,,,white,hexagon
0.0,5.0,1.0,1.0,5.0,0.0,0.0,8.0,1.0,phase_2,stop,700.0,850.0,4.0,,,,,,,,,white,hexagon
0.0,4.0,4.0,0.0,5.0,0.0,0.0,8.0,1.0,phase_2,go,750.0,850.0,5.0,,,,,,,,,gray,square
0.0,1.0,1.0,0.0,7.0,5.0,3257.6277293264866,1.0,2.0,phase_3,,,,,147.0,3.0,98.0,294.0,245.0,49.0,147.0,196.0,cyan,I
0.0,7.0,3.0,1.0,7.0,3.0,2746.413249522448,1.0,1.0,phase_3,,,,,132.0,3.0,264.0,220.0,132.0,176.0,44.0,88.0,blue,circle
0.0,4.0,4.0,0.0,7.0,3.0,1682.5287714600563,1.0,1.0,phase_3,,,,,294.0,6.0,49.0,196.0,294.0,245.0,98.0,147.0,gray,square
0.0,2.0,2.0,0.0,7.0,2.0,1243.3888390660286,1.0,1.0,phase_3,,,,,39.0,1.0,117.0,39.0,78.0,156.0,234.0,195.0,magenta,diamond
0.0,8.0,4.0,1.0,7.0,5.0,1399.5665088295937,1.0,1.0,phase_3,,,,,156.0,4.0,195.0,39.0,117.0,78.0,156.0,234.0,green,cross
0.0,4.0,4.0,0.0,7.0,6.0,911.7095321416856,1.0,1.0,phase_3,,,,,264.0,6.0,132.0,88.0,176.0,44.0,220.0,264.0,gray,square
0.0,3.0,3.0,0.0,7.0,1.0,634.6979178488255,1.0,1.0,phase_3,,,,,162.0,3.0,162.0,54.0,108.0,270.0,324.0,216.0,yellow,flipped triangle
0.0,4.0,4.0,0.0,7.0,5.0,700.9480074048042,1.0,1.0,phase_3,,,,,234.0,6.0,78.0,39.0,156.0,117.0,234.0,195.0,gray,square
0.0,5.0,1.0,1.0,7.0,6.0,621.4673109352589,1.0,1.0,phase_3,,,,,132.0,3.0,220.0,264.0,44.0,176.0,88.0,132.0,white,hexagon
0.0,1.0,1.0,0.0,7.0,3.0,350.2159006893635,1.0,1.0,phase_3,,,,,162.0,3.0,108.0,324.0,162.0,270.0,54.0,216.0,cyan,I
0.0,3.0,3.0,0.0,7.0,5.0,237.0433174073696,1.0,1.0,phase_3,,,,,162.0,3.0,324.0,108.0,54.0,270.0,162.0,216.0,yellow,flipped triangle
0.0,4.0,4.0,0.0,7.0,6.0,406.7242126911878,1.0,1.0,phase_3,,,,,98.0,2.0,294.0,49.0,147.0,245.0,196.0,98.0,gray,square
0.0,7.0,3.0,1.0,7.0,5.0,824.6169239282608,1.0,1.0,phase_3,,,,,270.0,5.0,324.0,54.0,216.0,108.0,270.0,162.0,blue,circle
0.0,3.0,3.0,0.0,7.0,2.0,858.1155929714441,1.0,1.0,phase_3,,,,,170.0,5.0,68.0,170.0,204.0,136.0,102.0,34.0,yellow,flipped triangle
0.0,2.0,2.0,0.0,7.0,3.0,422.636354342103,1.0,1.0,phase_3,,,,,156.0,4.0,117.0,195.0,156.0,39.0,234.0,78.0,magenta,diamond
0.0,1.0,1.0,0.0,7.0,6.0,446.6196373105049,1.0,1.0,phase_3,,,,,132.0,3.0,264.0,88.0,44.0,176.0,220.0,132.0,cyan,I
0.0,3.0,3.0,0.0,7.0,1.0,904.5067746192216,1.0,1.0,phase_3,,,,,34.0,1.0,34.0,204.0,170.0,68.0,102.0,136.0,yellow,flipped triangle
0.0,1.0,1.0,0.0,7.0,3.0,4911.697901785374,1.0,1.0,phase_3,,,,,195.0,5.0,156.0,117.0,195.0,234.0,78.0,39.0,cyan,I
0.0,6.0,2.0,1.0,7.0,6.0,1378.657042980194,1.0,1.0,phase_3,,,,,270.0,5.0,216.0,162.0,324.0,108.0,54.0,270.0,orange,triangle
0.0,7.0,3.0,1.0,7.0,2.0,898.6924588680267,1.0,1.0,phase_3,,,,,98.0,2.0,294.0,98.0,196.0,147.0,49.0,245.0,blue,circle
0.0,1.0,1.0,0.0,7.0,1.0,935.2437797933816,2.0,1.0,phase_3,,,,,245.0,5.0,245.0,49.0,294.0,147.0,98.0,196.0,cyan,I
0.0,5.0,1.0,1.0,7.0,4.0,1464.7499974817038,2.0,1.0,phase_3,,,,,34.0,1.0,136.0,204.0,170.0,34.0,102.0,68.0,white,hexagon
0.0,8.0,4.0,1.0,7.0,2.0,289.4779592752456,2.0,1.0,phase_3,,,,,245.0,5.0,294.0,245.0,98.0,49.0,196.0,147.0,green,cross
0.0,2.0,2.0,0.0,7.0,5.0,318.9197108149528,2.0,1.0,phase_3,,,,,49.0,1.0,294.0,196.0,98.0,245.0,49.0,147.0,magenta,diamond
0.0,1.0,1.0,0.0,7.0,1.0,792.2173235565424,2.0,1.0,phase_3,,,,,102.0,3.0,102.0,204.0,136.0,170.0,68.0,34.0,cyan,I
0.0,3.0,3.0,0.0,7.0,6.0,607.5958050787449,2.0,1.0,phase_3,,,,,44.0,1.0,176.0,220.0,88.0,132.0,264.0,44.0,yellow,flipped triangle
0.0,5.0,1.0,1.0,7.0,3.0,313.5949876159429,2.0,1.0,phase_3,,,,,54.0,1.0,216.0,324.0,54.0,162.0,108.0,270.0,white,hexagon
0.0,3.0,3.0,0.0,7.0,2.0,585.6107641011477,2.0,1.0,phase_3,,,,,176.0,4.0,44.0,176.0,132.0,220.0,264.0,88.0,yellow,flipped triangle
0.0,6.0,2.0,1.0,7.0,5.0,364.5030800253153,2.0,1.0,phase_3,,,,,147.0,3.0,294.0,196.0,49.0,245.0,147.0,98.0,orange,triangle
0.0,4.0,4.0,0.0,7.0,6.0,483.3765588700771,2.0,1.0,phase_3,,,,,136.0,4.0,170.0,102.0,34.0,68.0,204.0,136.0,gray,square
0.0,8.0,4.0,1.0,7.0,1.0,408.6846653372049,2.0,1.0,phase_3,,,,,108.0,2.0,108.0,162.0,54.0,216.0,324.0,270.0,green,cross
0.0,5.0,1.0,1.0,7.0,3.0,342.4081224948168,2.0,1.0,phase_3,,,,,176.0,4.0,264.0,132.0,176.0,220.0,88.0,44.0,white,hexagon
0.0,4.0,4.0,0.0,7.0,6.0,431.900879368186,2.0,1.0,phase_3,,,,,170.0,5.0,102.0,68.0,34.0,136.0,204.0,170.0,gray,square
0.0,1.0,1.0,0.0,7.0,2.0,217.541629448533,2.0,1.0,phase_3,,,,,156.0,4.0,78.0,156.0,117.0,195.0,39.0,234.0,cyan,I
0.0,6.0,2.0,1.0,7.0,5.0,250.9236168116331,2.0,1.0,phase_3,,,,,117.0,3.0,78.0,234.0,39.0,195.0,117.0,156.0,orange,triangle
0.0,6.0,2.0,1.0,7.0,3.0,180.4262325167656,2.0,1.0,phase_3,,,,,294.0,6.0,98.0,245.0,294.0,147.0,196.0,49.0,orange,triangle
0.0,4.0,4.0,0.0,7.0,4.0,196.8631241470575,2.0,1.0,phase_3,,,,,162.0,3.0,216.0,54.0,270.0,162.0,324.0,108.0,gray,square
0.0,8.0,4.0,1.0,7.0,2.0,287.0848346501589,2.0,1.0,phase_3,,,,,196.0,4.0,49.0,196.0,294.0,98.0,147.0,245.0,green,cross
0.0,7.0,3.0,1.0,7.0,6.0,323.5918674618006,2.0,1.0,phase_3,,,,,117.0,3.0,156.0,195.0,78.0,39.0,234.0,117.0,blue,circle
0.0,1.0,1.0,0.0,7.0,1.0,266.9143285602331,2.0,1.0,phase_3,,,,,108.0,2.0,108.0,162.0,270.0,324.0,216.0,54.0,cyan,I
0.0,2.0,2.0,0.0,7.0,6.0,638.0770429968834,3.0,1.0,phase_3,,,,,245.0,5.0,98.0,49.0,147.0,294.0,196.0,245.0,magenta,diamond
0.0,7.0,3.0,1.0,7.0,1.0,537.5324729830027,3.0,1.0,phase_3,,,,,34.0,1.0,34.0,136.0,68.0,170.0,102.0,204.0,blue,circle
0.0,3.0,3.0,0.0,7.0,4.0,611.1836470663548,3.0,1.0,phase_3,,,,,49.0,1.0,245.0,147.0,294.0,49.0,98.0,196.0,yellow,flipped triangle
0.0,6.0,2.0,1.0,7.0,6.0,602.0021606236696,3.0,1.0,phase_3,,,,,132.0,3.0,220.0,264.0,44.0,88.0,176.0,132.0,orange,triangle
0.0,5.0,1.0,1.0,7.0,3.0,541.8695509433746,3.0,1.0,phase_3,,,,,78.0,2.0,156.0,117.0,78.0,39.0,195.0,234.0,white,hexagon
0.0,2.0,2.0,0.0,7.0,5.0,902.1827541291714,3.0,1.0,phase_3,,,,,88.0,2.0,176.0,220.0,264.0,132.0,88.0,44.0,magenta,diamond
0.0,5.0,1.0,1.0,7.0,1.0,454.9015983939171,3.0,1.0,phase_3,,,,,78.0,2.0,78.0,117.0,195.0,234.0,39.0,156.0,white,hexagon
0.0,4.0,4.0,0.0,7.0,4.0,352.8707679361105,3.0,1.0,phase_3,,,,,132.0,3.0,44.0,220.0,88.0,132.0,264.0,176.0,gray,square
0.0,8.0,4.0,1.0,7.0,3.0,266.3555704057216,3.0,1.0,phase_3,,,,,176.0,4.0,264.0,88.0,176.0,132.0,44.0,220.0,green,cross
0.0,3.0,3.0,0.0,7.0,6.0,324.5449084788561,3.0,1.0,phase_3,,,,,245.0,5.0,196.0,294.0,98.0,49.0,147.0,245.0,yellow,flipped triangle
0.0,1.0,1.0,0.0,7.0,1.0,283.4914587438106,3.0,1.0,phase_3,,,,,136.0,4.0,136.0,170.0,204.0,102.0,68.0,34.0,cyan,I
0.0,5.0,1.0,1.0,7.0,5.0,326.3122159987688,3.0,1.0,phase_3,,,,,34.0,1.0,204.0,136.0,68.0,102.0,34.0,170.0,white,hexagon
0.0,6.0,2.0,1.0,7.0,2.0,769.9512112885714,3.0,1.0,phase_3,,,,,108.0,2.0,270.0,108.0,54.0,162.0,216.0,324.0,orange,triangle
0.0,8.0,4.0,1.0,7.0,3.0,393.640074878931,3.0,1.0,phase_3,,,,,264.0,6.0,88.0,44.0,264.0,176.0,220.0,132.0,green,cross
0.0,6.0,2.0,1.0,7.0,4.0,489.307651296258,3.0,1.0,phase_3,,,,,220.0,5.0,264.0,132.0,176.0,220.0,44.0,88.0,orange,triangle
0.0,1.0,1.0,0.0,7.0,5.0,443.7440391629934,3.0,1.0,phase_3,,,,,132.0,3.0,264.0,176.0,220.0,88.0,132.0,44.0,cyan,I
0.0,6.0,2.0,1.0,7.0,1.0,573.7848170101643,3.0,1.0,phase_3,,,,,156.0,4.0,156.0,234.0,117.0,78.0,195.0,39.0,orange,triangle
0.0,7.0,3.0,1.0,7.0,1.0,532.5152203440666,3.0,1.0,phase_3,,,,,88.0,2.0,88.0,132.0,220.0,44.0,176.0,264.0,blue,circle
0.0,6.0,2.0,1.0,7.0,1.0,446.904644370079,3.0,1.0,phase_3,,,,,68.0,2.0,68.0,34.0,204.0,102.0,170.0,136.0,orange,triangle
0.0,5.0,1.0,1.0,7.0,5.0,507.1796476840973,3.0,1.0,phase_3,,,,,245.0,5.0,98.0,196.0,294.0,49.0,245.0,147.0,white,hexagon
0.0,3.0,3.0,0.0,7.0,2.0,655.4366201162338,4.0,1.0,phase_3,,,,,78.0,2.0,39.0,78.0,117.0,156.0,234.0,195.0,yellow,flipped triangle
0.0,7.0,3.0,1.0,7.0,5.0,977.0913813263178,4.0,1.0,phase_3,,,,,49.0,1.0,98.0,245.0,294.0,147.0,49.0,196.0,blue,circle
0.0,2.0,2.0,0.0,7.0,4.0,675.44118873775,4.0,1.0,phase_3,,,,,108.0,2.0,162.0,216.0,54.0,108.0,270.0,324.0,magenta,diamond
0.0,4.0,4.0,0.0,7.0,1.0,412.3642724007368,4.0,1.0,phase_3,,,,,324.0,6.0,324.0,216.0,108.0,162.0,54.0,270.0,gray,square
0.0,8.0,4.0,1.0,7.0,3.0,373.133247718215,4.0,1.0,phase_3,,,,,170.0,5.0,102.0,34.0,170.0,68.0,136.0,204.0,green,cross
0.0,2.0,2.0,0.0,7.0,5.0,536.452965810895,4.0,1.0,phase_3,,,,,108.0,2.0,162.0,54.0,324.0,216.0,108.0,270.0,magenta,diamond
0.0,8.0,4.0,1.0,7.0,6.0,511.6888340562582,4.0,1.0,phase_3,,,,,216.0,4.0,54.0,324.0,108.0,162.0,270.0,216.0,green,cross
0.0,7.0,3.0,1.0,7.0,2.0,476.9435729831457,4.0,1.0,phase_3,,,,,136.0,4.0,170.0,136.0,34.0,68.0,102.0,204.0,blue,circle
0.0,5.0,1.0,1.0,7.0,4.0,402.4953655898571,4.0,1.0,phase_3,,,,,270.0,5.0,324.0,162.0,216.0,270.0,54.0,108.0,white,hexagon
0.0,5.0,1.0,1.0,7.0,6.0,663.8605613261461,4.0,1.0,phase_3,,,,,196.0,4.0,98.0,147.0,245.0,294.0,49.0,196.0,white,hexagon
0.0,2.0,2.0,0.0,7.0,1.0,663.3237451314926,4.0,1.0,phase_3,,,,,68.0,2.0,68.0,102.0,136.0,34.0,204.0,170.0,magenta,diamond
0.0,4.0,4.0,0.0,7.0,1.0,542.5296723842621,4.0,1.0,phase_3,,,,,39.0,1.0,39.0,78.0,156.0,234.0,117.0,195.0,gray,square
0.0,3.0,3.0,0.0,7.0,5.0,520.5108691006899,4.0,1.0,phase_3,,,,,195.0,5.0,117.0,234.0,39.0,156.0,195.0,78.0,yellow,flipped triangle
0.0,8.0,4.0,1.0,7.0,2.0,331.842228770256,4.0,1.0,phase_3,,,,,170.0,5.0,204.0,170.0,136.0,34.0,102.0,68.0,green,cross
0.0,7.0,3.0,1.0,7.0,4.0,438.9618150889873,4.0,1.0,phase_3,,,,,54.0,1.0,324.0,162.0,108.0,54.0,270.0,216.0,blue,circle
0.0,2.0,2.0,0.0,7.0,1.0,325.221149250865,4.0,1.0,phase_3,,,,,132.0,3.0,132.0,88.0,220.0,176.0,264.0,44.0,magenta,diamond
0.0,2.0,2.0,0.0,7.0,5.0,526.6913324594498,4.0,1.0,phase_3,,,,,204.0,6.0,136.0,68.0,102.0,34.0,204.0,170.0,magenta,diamond
0.0,6.0,2.0,1.0,7.0,6.0,511.7046032100916,4.0,1.0,phase_3,,,,,204.0,6.0,170.0,34.0,68.0,136.0,102.0,204.0,orange,triangle
0.0,8.0,4.0,1.0,7.0,1.0,360.0312732160091,4.0,1.0,phase_3,,,,,117.0,3.0,117.0,195.0,234.0,78.0,39.0,156.0,green,cross
0.0,7.0,3.0,1.0,7.0,4.0,426.5643190592527,4.0,1.0,phase_3,,,,,195.0,5.0,39.0,234.0,117.0,195.0,78.0,156.0,blue,circle
