raw_reward_magnitude,stim_reward,stepwise_reward_magnitude,paired_with_stopping,stim_location,response,reaction_time,block,num_trial_presentations,which_phase,stop_signal_trial_type,left_SSD,right_SSD,accuracy,chosen_bidding_amount,chosen_bidding_level,possible_bid_1,possible_bid_2,possible_bid_3,possible_bid_4,possible_bid_5,possible_bid_6,color_text,shape_text
206.0,3.0,3.0,0.0,1.0,1.0,484.5718648284673,1.0,1.0,phase_1,,,,,,,,,,,,,green,triangle
47.0,5.0,1.0,1.0,3.0,3.0,424.6471039950847,1.0,1.0,phase_1,,,,,,,,,,,,,yellow,I
424.0,8.0,4.0,1.0,2.0,2.0,294.1660955548286,1.0,1.0,phase_1,,,,,,,,,,,,,cyan,cross
104.0,2.0,2.0,0.0,2.0,2.0,362.1493689715862,1.0,1.0,phase_1,,,,,,,,,,,,,orange,hexagon
0.0,4.0,0.0,0.0,3.0,3.0,413.452947512269,1.0,1.0,phase_1,,,,,,,,,,,,,white,diamond
187.0,7.0,3.0,1.0,3.0,3.0,316.9390577822923,1.0,1.0,phase_1,,,,,,,,,,,,,blue,square
59.0,5.0,1.0,1.0,4.0,4.0,294.9350830167532,1.0,1.0,phase_1,,,,,,,,,,,,,yellow,I
30.0,1.0,1.0,0.0,2.0,2.0,357.9705450683832,1.0,1.0,phase_1,,,,,,,,,,,,,gray,circle
109.0,6.0,2.0,1.0,2.0,2.0,298.46378415822977,1.0,1.0,phase_1,,,,,,,,,,,,,magenta,flipped triangle
35.0,5.0,1.0,1.0,2.0,2.0,270.0477242469787,1.0,1.0,phase_1,,,,,,,,,,,,,yellow,I
103.0,2.0,2.0,0.0,3.0,3.0,297.5078150629997,1.0,1.0,phase_1,,,,,,,,,,,,,orange,hexagon
397.0,4.0,4.0,0.0,3.0,3.0,297.3730191588402,1.0,1.0,phase_1,,,,,,,,,,,,,white,diamond
30.0,1.0,1.0,0.0,4.0,4.0,378.5445671528578,1.0,1.0,phase_1,,,,,,,,,,,,,gray,circle
0.0,6.0,0.0,1.0,1.0,1.0,248.6240603029728,1.0,1.0,phase_1,,,,,,,,,,,,,magenta,flipped triangle
0.0,4.0,0.0,0.0,3.0,3.0,284.3893934041261,1.0,1.0,phase_1,,,,,,,,,,,,,white,diamond
208.0,3.0,3.0,0.0,3.0,3.0,321.3136419653892,1.0,1.0,phase_1,,,,,,,,,,,,,green,triangle
89.0,2.0,2.0,0.0,4.0,4.0,351.8904894590378,1.0,1.0,phase_1,,,,,,,,,,,,,orange,hexagon
57.0,1.0,1.0,0.0,4.0,4.0,307.4455372989177,1.0,1.0,phase_1,,,,,,,,,,,,,gray,circle
69.0,1.0,1.0,0.0,2.0,2.0,232.6366007328033,1.0,1.0,phase_1,,,,,,,,,,,,,gray,circle
78.0,2.0,2.0,0.0,4.0,4.0,269.2532576620579,1.0,1.0,phase_1,,,,,,,,,,,,,orange,hexagon
41.0,1.0,1.0,0.0,1.0,1.0,337.5134170055389,1.0,1.0,phase_1,,,,,,,,,,,,,gray,circle
60.0,5.0,1.0,1.0,3.0,3.0,240.1368897408247,1.0,1.0,phase_1,,,,,,,,,,,,,yellow,I
390.0,8.0,4.0,1.0,2.0,2.0,280.9498980641365,1.0,1.0,phase_1,,,,,,,,,,,,,cyan,cross
0.0,5.0,0.0,1.0,1.0,1.0,355.6462209671736,1.0,2.0,phase_1,,,,,,,,,,,,,yellow,I
27.0,5.0,1.0,1.0,4.0,4.0,425.3506921231746,1.0,1.0,phase_1,,,,,,,,,,,,,yellow,I
105.0,2.0,2.0,0.0,4.0,4.0,302.7482014149427,1.0,1.0,phase_1,,,,,,,,,,,,,orange,hexagon
392.0,4.0,4.0,0.0,4.0,4.0,257.6073799282312,1.0,1.0,phase_1,,,,,,,,,,,,,white,diamond
52.0,1.0,1.0,0.0,1.0,1.0,342.9201319813728,1.0,1.0,phase_1,,,,,,,,,,,,,gray,circle
72.0,1.0,1.0,0.0,3.0,3.0,277.3246802389622,1.0,1.0,phase_1,,,,,,,,,,,,,gray,circle
210.0,3.0,3.0,0.0,2.0,2.0,246.4689034968614,1.0,1.0,phase_1,,,,,,,,,,,,,green,triangle
412.0,4.0,4.0,0.0,4.0,4.0,308.7200485169887,1.0,1.0,phase_1,,,,,,,,,,,,,white,diamond
0.0,1.0,0.0,0.0,1.0,1.0,297.4886987358331,1.0,1.0,phase_1,,,,,,,,,,,,,gray,circle
123.0,2.0,2.0,0.0,4.0,4.0,309.3445003032684,1.0,1.0,phase_1,,,,,,,,,,,,,orange,hexagon
0.0,8.0,0.0,1.0,1.0,1.0,293.1195329874754,1.0,1.0,phase_1,,,,,,,,,,,,,cyan,cross
0.0,4.0,0.0,0.0,1.0,1.0,318.2555045932531,1.0,1.0,phase_1,,,,,,,,,,,,,white,diamond
0.0,3.0,0.0,0.0,3.0,3.0,269.7313502430916,1.0,1.0,phase_1,,,,,,,,,,,,,green,triangle
423.0,8.0,4.0,1.0,1.0,1.0,266.0276088863611,1.0,1.0,phase_1,,,,,,,,,,,,,cyan,cross
201.0,3.0,3.0,0.0,3.0,3.0,317.807612940669,1.0,1.0,phase_1,,,,,,,,,,,,,green,triangle
414.0,4.0,4.0,0.0,1.0,1.0,330.6461665779352,1.0,1.0,phase_1,,,,,,,,,,,,,white,diamond
392.0,8.0,4.0,1.0,4.0,4.0,382.1668177843094,1.0,1.0,phase_1,,,,,,,,,,,,,cyan,cross
206.0,7.0,3.0,1.0,4.0,4.0,293.5393638908863,1.0,1.0,phase_1,,,,,,,,,,,,,blue,square
407.0,8.0,4.0,1.0,2.0,2.0,304.2061366140842,1.0,1.0,phase_1,,,,,,,,,,,,,cyan,cross
113.0,2.0,2.0,0.0,2.0,2.0,301.8911778926849,1.0,1.0,phase_1,,,,,,,,,,,,,orange,hexagon
404.0,4.0,4.0,0.0,3.0,3.0,322.105623781681,1.0,1.0,phase_1,,,,,,,,,,,,,white,diamond
0.0,8.0,0.0,1.0,2.0,2.0,416.0050842911005,1.0,1.0,phase_1,,,,,,,,,,,,,cyan,cross
0.0,8.0,0.0,1.0,1.0,1.0,297.2225435078144,1.0,2.0,phase_1,,,,,,,,,,,,,cyan,cross
0.0,6.0,0.0,1.0,1.0,1.0,404.7471638768911,1.0,1.0,phase_1,,,,,,,,,,,,,magenta,flipped triangle
415.0,4.0,4.0,0.0,2.0,2.0,359.3116924166679,1.0,1.0,phase_1,,,,,,,,,,,,,white,diamond
385.0,4.0,4.0,0.0,1.0,1.0,448.1010809540748,1.0,1.0,phase_1,,,,,,,,,,,,,white,diamond
114.0,2.0,2.0,0.0,3.0,3.0,368.9097911119461,1.0,1.0,phase_1,,,,,,,,,,,,,orange,hexagon
57.0,5.0,1.0,1.0,4.0,4.0,374.1715066134929,1.0,1.0,phase_1,,,,,,,,,,,,,yellow,I
212.0,3.0,3.0,0.0,4.0,4.0,420.4527754336595,1.0,1.0,phase_1,,,,,,,,,,,,,green,triangle
101.0,2.0,2.0,0.0,3.0,3.0,513.0296275019646,1.0,1.0,phase_1,,,,,,,,,,,,,orange,hexagon
383.0,8.0,4.0,1.0,4.0,4.0,343.0184237658977,1.0,1.0,phase_1,,,,,,,,,,,,,cyan,cross
0.0,1.0,0.0,0.0,4.0,4.0,314.9592410773039,1.0,1.0,phase_1,,,,,,,,,,,,,gray,circle
63.0,5.0,1.0,1.0,2.0,2.0,309.435810893774,1.0,1.0,phase_1,,,,,,,,,,,,,yellow,I
224.0,7.0,3.0,1.0,2.0,2.0,353.6329045891762,1.0,1.0,phase_1,,,,,,,,,,,,,blue,square
424.0,8.0,4.0,1.0,1.0,1.0,335.1714611053467,1.0,1.0,phase_1,,,,,,,,,,,,,cyan,cross
111.0,6.0,2.0,1.0,3.0,3.0,366.3043435662985,1.0,1.0,phase_1,,,,,,,,,,,,,magenta,flipped triangle
65.0,1.0,1.0,0.0,4.0,4.0,314.9384912103414,1.0,1.0,phase_1,,,,,,,,,,,,,gray,circle
27.0,1.0,1.0,0.0,1.0,1.0,295.6915348768234,1.0,1.0,phase_1,,,,,,,,,,,,,gray,circle
91.0,6.0,2.0,1.0,1.0,1.0,409.9442958831787,1.0,1.0,phase_1,,,,,,,,,,,,,magenta,flipped triangle
0.0,4.0,0.0,0.0,2.0,2.0,360.8613349497318,1.0,1.0,phase_1,,,,,,,,,,,,,white,diamond
379.0,4.0,4.0,0.0,3.0,3.0,397.9154359549284,1.0,1.0,phase_1,,,,,,,,,,,,,white,diamond
376.0,8.0,4.0,1.0,3.0,3.0,351.346805691719,1.0,1.0,phase_1,,,,,,,,,,,,,cyan,cross
0.0,3.0,0.0,0.0,2.0,2.0,309.9221773445606,1.0,1.0,phase_1,,,,,,,,,,,,,green,triangle
64.0,1.0,1.0,0.0,1.0,1.0,280.5530019104481,1.0,1.0,phase_1,,,,,,,,,,,,,gray,circle
59.0,5.0,1.0,1.0,4.0,4.0,425.6016761064529,1.0,1.0,phase_1,,,,,,,,,,,,,yellow,I
68.0,5.0,1.0,1.0,2.0,2.0,340.0841224938631,1.0,1.0,phase_1,,,,,,,,,,,,,yellow,I
383.0,4.0,4.0,0.0,3.0,3.0,330.9336937963962,1.0,1.0,phase_1,,,,,,,,,,,,,white,diamond
99.0,2.0,2.0,0.0,3.0,3.0,318.7582362443208,1.0,1.0,phase_1,,,,,,,,,,,,,orange,hexagon
180.0,7.0,3.0,1.0,2.0,2.0,304.9364890903234,1.0,1.0,phase_1,,,,,,,,,,,,,blue,square
0.0,2.0,0.0,0.0,1.0,1.0,324.5738353580236,1.0,1.0,phase_1,,,,,,,,,,,,,orange,hexagon
0.0,8.0,0.0,1.0,2.0,2.0,266.6045073419809,1.0,1.0,phase_1,,,,,,,,,,,,,cyan,cross
45.0,1.0,1.0,0.0,1.0,1.0,375.8980203419924,1.0,1.0,phase_1,,,,,,,,,,,,,gray,circle
413.0,4.0,4.0,0.0,1.0,1.0,317.5697941333055,1.0,1.0,phase_1,,,,,,,,,,,,,white,diamond
0.0,5.0,0.0,1.0,4.0,4.0,431.5232466906309,1.0,2.0,phase_1,,,,,,,,,,,,,yellow,I
0.0,3.0,0.0,0.0,1.0,1.0,426.8894530832767,1.0,1.0,phase_1,,,,,,,,,,,,,green,triangle
0.0,5.0,0.0,1.0,2.0,2.0,310.9352812170982,1.0,1.0,phase_1,,,,,,,,,,,,,yellow,I
83.0,2.0,2.0,0.0,3.0,3.0,380.7346019893884,1.0,1.0,phase_1,,,,,,,,,,,,,orange,hexagon
225.0,7.0,3.0,1.0,1.0,1.0,322.0774699002504,1.0,1.0,phase_1,,,,,,,,,,,,,blue,square
0.0,6.0,0.0,1.0,4.0,4.0,300.7923923432827,1.0,1.0,phase_1,,,,,,,,,,,,,magenta,flipped triangle
214.0,7.0,3.0,1.0,2.0,2.0,268.1064046919346,1.0,1.0,phase_1,,,,,,,,,,,,,blue,square
80.0,6.0,2.0,1.0,2.0,2.0,384.3324892222881,1.0,1.0,phase_1,,,,,,,,,,,,,magenta,flipped triangle
111.0,2.0,2.0,0.0,4.0,4.0,329.0833383798599,1.0,2.0,phase_1,,,,,,,,,,,,,orange,hexagon
0.0,2.0,0.0,0.0,2.0,2.0,484.1747097671032,1.0,1.0,phase_1,,,,,,,,,,,,,orange,hexagon
119.0,2.0,2.0,0.0,2.0,2.0,846.250569447875,1.0,2.0,phase_1,,,,,,,,,,,,,orange,hexagon
71.0,1.0,1.0,0.0,4.0,4.0,467.1430345624685,1.0,1.0,phase_1,,,,,,,,,,,,,gray,circle
199.0,3.0,3.0,0.0,3.0,3.0,341.9363424181938,1.0,1.0,phase_1,,,,,,,,,,,,,green,triangle
401.0,4.0,4.0,0.0,4.0,4.0,309.2123568058014,1.0,1.0,phase_1,,,,,,,,,,,,,white,diamond
41.0,5.0,1.0,1.0,1.0,1.0,313.0097053945064,1.0,1.0,phase_1,,,,,,,,,,,,,yellow,I
0.0,3.0,0.0,0.0,2.0,2.0,324.3804965168237,1.0,1.0,phase_1,,,,,,,,,,,,,green,triangle
122.0,6.0,2.0,1.0,2.0,2.0,355.4151672869921,1.0,1.0,phase_1,,,,,,,,,,,,,magenta,flipped triangle
220.0,7.0,3.0,1.0,2.0,2.0,463.9777261763811,1.0,1.0,phase_1,,,,,,,,,,,,,blue,square
385.0,8.0,4.0,1.0,4.0,4.0,325.0455353409052,1.0,1.0,phase_1,,,,,,,,,,,,,cyan,cross
178.0,7.0,3.0,1.0,3.0,3.0,414.8328490555286,1.0,1.0,phase_1,,,,,,,,,,,,,blue,square
75.0,6.0,2.0,1.0,2.0,2.0,452.0879406481981,1.0,1.0,phase_1,,,,,,,,,,,,,magenta,flipped triangle
47.0,1.0,1.0,0.0,2.0,2.0,311.5636091679334,1.0,1.0,phase_1,,,,,,,,,,,,,gray,circle
74.0,5.0,1.0,1.0,3.0,3.0,316.6673947125673,1.0,1.0,phase_1,,,,,,,,,,,,,yellow,I
389.0,8.0,4.0,1.0,1.0,1.0,283.5544608533382,1.0,1.0,phase_1,,,,,,,,,,,,,cyan,cross
411.0,4.0,4.0,0.0,2.0,2.0,518.9741384238005,2.0,1.0,phase_1,,,,,,,,,,,,,white,diamond
29.0,5.0,1.0,1.0,1.0,1.0,274.2959409952163,2.0,1.0,phase_1,,,,,,,,,,,,,yellow,I
88.0,6.0,2.0,1.0,4.0,4.0,307.0729319006204,2.0,1.0,phase_1,,,,,,,,,,,,,magenta,flipped triangle
26.0,1.0,1.0,0.0,2.0,2.0,315.4377080500126,2.0,1.0,phase_1,,,,,,,,,,,,,gray,circle
389.0,4.0,4.0,0.0,2.0,2.0,372.102303430438,2.0,1.0,phase_1,,,,,,,,,,,,,white,diamond
204.0,7.0,3.0,1.0,3.0,3.0,368.2201039046049,2.0,1.0,phase_1,,,,,,,,,,,,,blue,square
397.0,8.0,4.0,1.0,1.0,1.0,347.5719727575779,2.0,1.0,phase_1,,,,,,,,,,,,,cyan,cross
187.0,3.0,3.0,0.0,4.0,4.0,264.0199046581983,2.0,1.0,phase_1,,,,,,,,,,,,,green,triangle
0.0,6.0,0.0,1.0,4.0,4.0,283.4323421120643,2.0,1.0,phase_1,,,,,,,,,,,,,magenta,flipped triangle
123.0,6.0,2.0,1.0,2.0,2.0,344.302698969841,2.0,1.0,phase_1,,,,,,,,,,,,,magenta,flipped triangle
414.0,8.0,4.0,1.0,3.0,3.0,357.8699473291635,2.0,1.0,phase_1,,,,,,,,,,,,,cyan,cross
397.0,8.0,4.0,1.0,1.0,1.0,261.034607887268,2.0,1.0,phase_1,,,,,,,,,,,,,cyan,cross
105.0,6.0,2.0,1.0,3.0,3.0,389.7651825100183,2.0,1.0,phase_1,,,,,,,,,,,,,magenta,flipped triangle
186.0,7.0,3.0,1.0,2.0,2.0,300.6955608725548,2.0,1.0,phase_1,,,,,,,,,,,,,blue,square
399.0,8.0,4.0,1.0,3.0,3.0,319.78390365839,2.0,1.0,phase_1,,,,,,,,,,,,,cyan,cross
0.0,5.0,0.0,1.0,3.0,3.0,284.3479886651039,2.0,1.0,phase_1,,,,,,,,,,,,,yellow,I
42.0,5.0,1.0,1.0,1.0,1.0,291.9083070009947,2.0,1.0,phase_1,,,,,,,,,,,,,yellow,I
424.0,4.0,4.0,0.0,4.0,4.0,312.6181121915579,2.0,1.0,phase_1,,,,,,,,,,,,,white,diamond
68.0,1.0,1.0,0.0,1.0,1.0,388.6431939899921,2.0,1.0,phase_1,,,,,,,,,,,,,gray,circle
383.0,4.0,4.0,0.0,1.0,1.0,534.5474779605865,2.0,1.0,phase_1,,,,,,,,,,,,,white,diamond
412.0,8.0,4.0,1.0,3.0,3.0,349.4227696210146,2.0,1.0,phase_1,,,,,,,,,,,,,cyan,cross
423.0,4.0,4.0,0.0,2.0,2.0,306.9773986935615,2.0,1.0,phase_1,,,,,,,,,,,,,white,diamond
0.0,3.0,0.0,0.0,4.0,4.0,300.3499321639538,2.0,1.0,phase_1,,,,,,,,,,,,,green,triangle
30.0,5.0,1.0,1.0,4.0,4.0,449.9344136565923,2.0,1.0,phase_1,,,,,,,,,,,,,yellow,I
215.0,7.0,3.0,1.0,3.0,3.0,326.2404389679432,2.0,1.0,phase_1,,,,,,,,,,,,,blue,square
89.0,6.0,2.0,1.0,3.0,3.0,290.5781213194132,2.0,1.0,phase_1,,,,,,,,,,,,,magenta,flipped triangle
79.0,2.0,2.0,0.0,2.0,2.0,391.804464161396,2.0,1.0,phase_1,,,,,,,,,,,,,orange,hexagon
51.0,1.0,1.0,0.0,2.0,2.0,302.6773631572723,2.0,1.0,phase_1,,,,,,,,,,,,,gray,circle
183.0,3.0,3.0,0.0,3.0,3.0,323.6687816679477,2.0,1.0,phase_1,,,,,,,,,,,,,green,triangle
396.0,4.0,4.0,0.0,2.0,2.0,381.3049905002117,2.0,1.0,phase_1,,,,,,,,,,,,,white,diamond
0.0,6.0,0.0,1.0,3.0,3.0,725.0520922243595,2.0,1.0,phase_1,,,,,,,,,,,,,magenta,flipped triangle
0.0,5.0,0.0,1.0,2.0,2.0,360.8441930264234,2.0,1.0,phase_1,,,,,,,,,,,,,yellow,I
119.0,2.0,2.0,0.0,3.0,3.0,260.2478060871362,2.0,1.0,phase_1,,,,,,,,,,,,,orange,hexagon
199.0,7.0,3.0,1.0,1.0,1.0,267.1583127230406,2.0,1.0,phase_1,,,,,,,,,,,,,blue,square
45.0,5.0,1.0,1.0,4.0,4.0,269.3996764719486,2.0,1.0,phase_1,,,,,,,,,,,,,yellow,I
44.0,5.0,1.0,1.0,3.0,3.0,292.5161998718977,2.0,1.0,phase_1,,,,,,,,,,,,,yellow,I
83.0,2.0,2.0,0.0,4.0,4.0,336.0764663666487,2.0,1.0,phase_1,,,,,,,,,,,,,orange,hexagon
191.0,3.0,3.0,0.0,2.0,2.0,292.7999030798673,2.0,1.0,phase_1,,,,,,,,,,,,,green,triangle
177.0,3.0,3.0,0.0,1.0,1.0,304.5861031860113,2.0,1.0,phase_1,,,,,,,,,,,,,green,triangle
91.0,2.0,2.0,0.0,2.0,2.0,294.0507158637047,2.0,1.0,phase_1,,,,,,,,,,,,,orange,hexagon
0.0,3.0,0.0,0.0,3.0,3.0,324.1781890392303,2.0,1.0,phase_1,,,,,,,,,,,,,green,triangle
107.0,2.0,2.0,0.0,2.0,2.0,335.4830238968134,2.0,1.0,phase_1,,,,,,,,,,,,,orange,hexagon
58.0,1.0,1.0,0.0,2.0,2.0,362.2281718999147,2.0,1.0,phase_1,,,,,,,,,,,,,gray,circle
0.0,8.0,0.0,1.0,1.0,1.0,287.3349860310554,2.0,1.0,phase_1,,,,,,,,,,,,,cyan,cross
65.0,5.0,1.0,1.0,4.0,4.0,279.8425536602735,2.0,1.0,phase_1,,,,,,,,,,,,,yellow,I
79.0,6.0,2.0,1.0,1.0,1.0,368.3568239212036,2.0,1.0,phase_1,,,,,,,,,,,,,magenta,flipped triangle
45.0,5.0,1.0,1.0,4.0,4.0,287.8701128065586,2.0,1.0,phase_1,,,,,,,,,,,,,yellow,I
424.0,4.0,4.0,0.0,1.0,1.0,364.5443934947252,2.0,1.0,phase_1,,,,,,,,,,,,,white,diamond
105.0,6.0,2.0,1.0,2.0,2.0,335.5342373251915,2.0,1.0,phase_1,,,,,,,,,,,,,magenta,flipped triangle
207.0,7.0,3.0,1.0,3.0,3.0,325.425773859024,2.0,1.0,phase_1,,,,,,,,,,,,,blue,square
109.0,6.0,2.0,1.0,3.0,3.0,327.4958319962024,2.0,1.0,phase_1,,,,,,,,,,,,,magenta,flipped triangle
91.0,2.0,2.0,0.0,1.0,1.0,340.8213462680578,2.0,1.0,phase_1,,,,,,,,,,,,,orange,hexagon
114.0,2.0,2.0,0.0,2.0,2.0,314.1986597329378,2.0,1.0,phase_1,,,,,,,,,,,,,orange,hexagon
207.0,3.0,3.0,0.0,2.0,2.0,374.2791675031185,2.0,1.0,phase_1,,,,,,,,,,,,,green,triangle
376.0,4.0,4.0,0.0,1.0,1.0,283.5016921162605,2.0,1.0,phase_1,,,,,,,,,,,,,white,diamond
208.0,7.0,3.0,1.0,3.0,3.0,328.2074332237243,2.0,1.0,phase_1,,,,,,,,,,,,,blue,square
197.0,7.0,3.0,1.0,1.0,1.0,323.7780760973692,2.0,1.0,phase_1,,,,,,,,,,,,,blue,square
401.0,8.0,4.0,1.0,1.0,1.0,381.3034687191248,2.0,1.0,phase_1,,,,,,,,,,,,,cyan,cross
0.0,5.0,0.0,1.0,4.0,4.0,317.5469804555177,2.0,1.0,phase_1,,,,,,,,,,,,,yellow,I
0.0,1.0,0.0,0.0,4.0,4.0,396.7653978615999,2.0,1.0,phase_1,,,,,,,,,,,,,gray,circle
396.0,4.0,4.0,0.0,1.0,1.0,455.0045635551214,2.0,1.0,phase_1,,,,,,,,,,,,,white,diamond
404.0,8.0,4.0,1.0,1.0,1.0,292.1473048627376,2.0,1.0,phase_1,,,,,,,,,,,,,cyan,cross
179.0,3.0,3.0,0.0,3.0,3.0,360.0517250597477,2.0,1.0,phase_1,,,,,,,,,,,,,green,triangle
176.0,3.0,3.0,0.0,2.0,2.0,341.2958793342113,2.0,1.0,phase_1,,,,,,,,,,,,,green,triangle
197.0,3.0,3.0,0.0,2.0,2.0,321.1211320012808,2.0,1.0,phase_1,,,,,,,,,,,,,green,triangle
204.0,3.0,3.0,0.0,1.0,1.0,273.0011567473411,2.0,1.0,phase_1,,,,,,,,,,,,,green,triangle
35.0,1.0,1.0,0.0,3.0,3.0,348.6884590238333,2.0,1.0,phase_1,,,,,,,,,,,,,gray,circle
0.0,3.0,0.0,0.0,4.0,4.0,311.2788796424866,2.0,1.0,phase_1,,,,,,,,,,,,,green,triangle
212.0,3.0,3.0,0.0,4.0,4.0,289.3416844308376,2.0,2.0,phase_1,,,,,,,,,,,,,green,triangle
219.0,3.0,3.0,0.0,2.0,2.0,341.2927407771349,2.0,1.0,phase_1,,,,,,,,,,,,,green,triangle
0.0,7.0,0.0,1.0,2.0,2.0,364.6134585142135,2.0,1.0,phase_1,,,,,,,,,,,,,blue,square
205.0,7.0,3.0,1.0,3.0,3.0,334.7679730504751,2.0,1.0,phase_1,,,,,,,,,,,,,blue,square
86.0,2.0,2.0,0.0,1.0,1.0,452.8994299471378,2.0,1.0,phase_1,,,,,,,,,,,,,orange,hexagon
0.0,8.0,0.0,1.0,3.0,3.0,293.9607203006744,2.0,3.0,phase_1,,,,,,,,,,,,,cyan,cross
0.0,1.0,0.0,0.0,4.0,4.0,663.5709218680859,2.0,1.0,phase_1,,,,,,,,,,,,,gray,circle
176.0,3.0,3.0,0.0,3.0,3.0,317.8630080074072,2.0,1.0,phase_1,,,,,,,,,,,,,green,triangle
220.0,3.0,3.0,0.0,4.0,4.0,353.8017999380827,2.0,1.0,phase_1,,,,,,,,,,,,,green,triangle
83.0,6.0,2.0,1.0,1.0,1.0,364.229753613472,2.0,1.0,phase_1,,,,,,,,,,,,,magenta,flipped triangle
115.0,6.0,2.0,1.0,2.0,2.0,428.6940935999155,2.0,1.0,phase_1,,,,,,,,,,,,,magenta,flipped triangle
0.0,5.0,0.0,1.0,4.0,4.0,288.860036060214,2.0,1.0,phase_1,,,,,,,,,,,,,yellow,I
383.0,8.0,4.0,1.0,1.0,1.0,475.0733785331249,2.0,1.0,phase_1,,,,,,,,,,,,,cyan,cross
44.0,1.0,1.0,0.0,3.0,3.0,415.9804712980985,2.0,1.0,phase_1,,,,,,,,,,,,,gray,circle
88.0,2.0,2.0,0.0,1.0,1.0,452.4725787341594,2.0,1.0,phase_1,,,,,,,,,,,,,orange,hexagon
0.0,2.0,0.0,0.0,3.0,3.0,329.3243981897831,2.0,1.0,phase_1,,,,,,,,,,,,,orange,hexagon
109.0,2.0,2.0,0.0,4.0,4.0,469.1932238638401,2.0,1.0,phase_1,,,,,,,,,,,,,orange,hexagon
124.0,6.0,2.0,1.0,4.0,4.0,386.7560848593712,2.0,1.0,phase_1,,,,,,,,,,,,,magenta,flipped triangle
83.0,6.0,2.0,1.0,4.0,4.0,328.6501560360193,2.0,1.0,phase_1,,,,,,,,,,,,,magenta,flipped triangle
383.0,8.0,4.0,1.0,2.0,2.0,363.896170631051,2.0,1.0,phase_1,,,,,,,,,,,,,cyan,cross
176.0,7.0,3.0,1.0,1.0,1.0,583.7892163544893,2.0,1.0,phase_1,,,,,,,,,,,,,blue,square
180.0,3.0,3.0,0.0,4.0,4.0,480.2881646901369,2.0,1.0,phase_1,,,,,,,,,,,,,green,triangle
103.0,6.0,2.0,1.0,3.0,3.0,356.5530702471733,2.0,1.0,phase_1,,,,,,,,,,,,,magenta,flipped triangle
48.0,1.0,1.0,0.0,3.0,3.0,333.7859157472849,2.0,1.0,phase_1,,,,,,,,,,,,,gray,circle
424.0,4.0,4.0,0.0,2.0,2.0,322.2483545541763,2.0,1.0,phase_1,,,,,,,,,,,,,white,diamond
0.0,6.0,0.0,1.0,1.0,1.0,367.1964202076196,2.0,1.0,phase_1,,,,,,,,,,,,,magenta,flipped triangle
210.0,7.0,3.0,1.0,4.0,4.0,317.3483517020941,2.0,1.0,phase_1,,,,,,,,,,,,,blue,square
387.0,4.0,4.0,0.0,4.0,4.0,420.8078663796186,2.0,1.0,phase_1,,,,,,,,,,,,,white,diamond
0.0,4.0,0.0,0.0,4.0,4.0,383.5521098226309,2.0,1.0,phase_1,,,,,,,,,,,,,white,diamond
0.0,4.0,0.0,0.0,3.0,3.0,306.2430527061224,2.0,1.0,phase_1,,,,,,,,,,,,,white,diamond
390.0,4.0,4.0,0.0,2.0,2.0,318.5692224651575,2.0,1.0,phase_1,,,,,,,,,,,,,white,diamond
41.0,1.0,1.0,0.0,2.0,2.0,455.2803989499807,2.0,1.0,phase_1,,,,,,,,,,,,,gray,circle
72.0,1.0,1.0,0.0,3.0,3.0,374.1405680775642,3.0,1.0,phase_1,,,,,,,,,,,,,gray,circle
88.0,2.0,2.0,0.0,3.0,3.0,336.8767444044351,3.0,1.0,phase_1,,,,,,,,,,,,,orange,hexagon
119.0,6.0,2.0,1.0,1.0,1.0,285.9889566898346,3.0,1.0,phase_1,,,,,,,,,,,,,magenta,flipped triangle
0.0,2.0,0.0,0.0,3.0,3.0,301.4916479587555,3.0,1.0,phase_1,,,,,,,,,,,,,orange,hexagon
107.0,6.0,2.0,1.0,4.0,4.0,330.2430547773838,3.0,1.0,phase_1,,,,,,,,,,,,,magenta,flipped triangle
123.0,6.0,2.0,1.0,3.0,3.0,300.5334306508302,3.0,1.0,phase_1,,,,,,,,,,,,,magenta,flipped triangle
120.0,2.0,2.0,0.0,1.0,1.0,330.3089011460542,3.0,1.0,phase_1,,,,,,,,,,,,,orange,hexagon
113.0,6.0,2.0,1.0,2.0,2.0,359.078899025917,3.0,1.0,phase_1,,,,,,,,,,,,,magenta,flipped triangle
84.0,2.0,2.0,0.0,1.0,1.0,388.1506808102131,3.0,1.0,phase_1,,,,,,,,,,,,,orange,hexagon
0.0,2.0,0.0,0.0,3.0,3.0,321.8344748020172,3.0,1.0,phase_1,,,,,,,,,,,,,orange,hexagon
225.0,3.0,3.0,0.0,2.0,2.0,363.8533633202314,3.0,1.0,phase_1,,,,,,,,,,,,,green,triangle
89.0,6.0,2.0,1.0,4.0,4.0,403.9552491158247,3.0,1.0,phase_1,,,,,,,,,,,,,magenta,flipped triangle
63.0,1.0,1.0,0.0,3.0,3.0,301.4001585543155,3.0,1.0,phase_1,,,,,,,,,,,,,gray,circle
41.0,5.0,1.0,1.0,1.0,1.0,316.9566765427589,3.0,1.0,phase_1,,,,,,,,,,,,,yellow,I
404.0,8.0,4.0,1.0,1.0,1.0,374.7222237288952,3.0,1.0,phase_1,,,,,,,,,,,,,cyan,cross
0.0,8.0,0.0,1.0,3.0,3.0,325.9062506258487,3.0,1.0,phase_1,,,,,,,,,,,,,cyan,cross
0.0,6.0,0.0,1.0,4.0,4.0,579.3810319155455,3.0,1.0,phase_1,,,,,,,,,,,,,magenta,flipped triangle
115.0,2.0,2.0,0.0,1.0,1.0,326.5965785831213,3.0,1.0,phase_1,,,,,,,,,,,,,orange,hexagon
32.0,1.0,1.0,0.0,4.0,4.0,268.8576858490705,3.0,1.0,phase_1,,,,,,,,,,,,,gray,circle
52.0,5.0,1.0,1.0,3.0,3.0,361.300777643919,3.0,1.0,phase_1,,,,,,,,,,,,,yellow,I
383.0,8.0,4.0,1.0,4.0,4.0,292.524890974164,3.0,1.0,phase_1,,,,,,,,,,,,,cyan,cross
190.0,7.0,3.0,1.0,4.0,4.0,374.8553618788719,3.0,1.0,phase_1,,,,,,,,,,,,,blue,square
64.0,5.0,1.0,1.0,1.0,1.0,475.6071995943784,3.0,1.0,phase_1,,,,,,,,,,,,,yellow,I
50.0,1.0,1.0,0.0,4.0,4.0,337.810443714261,3.0,1.0,phase_1,,,,,,,,,,,,,gray,circle
35.0,5.0,1.0,1.0,2.0,2.0,256.1545167118311,3.0,1.0,phase_1,,,,,,,,,,,,,yellow,I
190.0,3.0,3.0,0.0,4.0,4.0,313.7629553675651,3.0,1.0,phase_1,,,,,,,,,,,,,green,triangle
223.0,7.0,3.0,1.0,1.0,1.0,240.1439864188432,3.0,1.0,phase_1,,,,,,,,,,,,,blue,square
387.0,8.0,4.0,1.0,2.0,2.0,325.84466971457,3.0,1.0,phase_1,,,,,,,,,,,,,cyan,cross
101.0,6.0,2.0,1.0,3.0,3.0,403.1815640628338,3.0,1.0,phase_1,,,,,,,,,,,,,magenta,flipped triangle
180.0,3.0,3.0,0.0,3.0,3.0,445.140665397048,3.0,1.0,phase_1,,,,,,,,,,,,,green,triangle
399.0,4.0,4.0,0.0,3.0,3.0,257.5799487531185,3.0,2.0,phase_1,,,,,,,,,,,,,white,diamond
378.0,4.0,4.0,0.0,1.0,1.0,419.3304516375065,3.0,1.0,phase_1,,,,,,,,,,,,,white,diamond
396.0,8.0,4.0,1.0,4.0,4.0,400.9835869073868,3.0,1.0,phase_1,,,,,,,,,,,,,cyan,cross
79.0,2.0,2.0,0.0,3.0,3.0,375.6867405027151,3.0,1.0,phase_1,,,,,,,,,,,,,orange,hexagon
122.0,2.0,2.0,0.0,1.0,1.0,300.5495592951774,3.0,1.0,phase_1,,,,,,,,,,,,,orange,hexagon
379.0,8.0,4.0,1.0,1.0,1.0,326.2824695557356,3.0,1.0,phase_1,,,,,,,,,,,,,cyan,cross
30.0,5.0,1.0,1.0,3.0,3.0,293.4862151741981,3.0,1.0,phase_1,,,,,,,,,,,,,yellow,I
113.0,6.0,2.0,1.0,4.0,4.0,351.0586339980364,3.0,1.0,phase_1,,,,,,,,,,,,,magenta,flipped triangle
421.0,8.0,4.0,1.0,3.0,3.0,276.7924536019563,3.0,1.0,phase_1,,,,,,,,,,,,,cyan,cross
46.0,1.0,1.0,0.0,4.0,4.0,305.55509775877,3.0,1.0,phase_1,,,,,,,,,,,,,gray,circle
58.0,5.0,1.0,1.0,3.0,3.0,244.6801140904426,3.0,1.0,phase_1,,,,,,,,,,,,,yellow,I
83.0,2.0,2.0,0.0,2.0,2.0,354.2817961424589,3.0,1.0,phase_1,,,,,,,,,,,,,orange,hexagon
0.0,2.0,0.0,0.0,4.0,4.0,390.2241885662079,3.0,1.0,phase_1,,,,,,,,,,,,,orange,hexagon
398.0,8.0,4.0,1.0,2.0,2.0,292.8626667708158,3.0,1.0,phase_1,,,,,,,,,,,,,cyan,cross
179.0,7.0,3.0,1.0,1.0,1.0,280.4099284112453,3.0,1.0,phase_1,,,,,,,,,,,,,blue,square
180.0,7.0,3.0,1.0,1.0,1.0,456.0943953692913,3.0,1.0,phase_1,,,,,,,,,,,,,blue,square
0.0,5.0,0.0,1.0,3.0,3.0,361.8771992623806,3.0,1.0,phase_1,,,,,,,,,,,,,yellow,I
411.0,8.0,4.0,1.0,2.0,2.0,254.0774829685688,3.0,1.0,phase_1,,,,,,,,,,,,,cyan,cross
0.0,3.0,0.0,0.0,2.0,2.0,346.7151205986738,3.0,1.0,phase_1,,,,,,,,,,,,,green,triangle
224.0,7.0,3.0,1.0,4.0,4.0,282.4344895780086,3.0,1.0,phase_1,,,,,,,,,,,,,blue,square
212.0,7.0,3.0,1.0,2.0,2.0,339.008204638958,3.0,1.0,phase_1,,,,,,,,,,,,,blue,square
109.0,2.0,2.0,0.0,4.0,4.0,282.1354195475578,3.0,1.0,phase_1,,,,,,,,,,,,,orange,hexagon
0.0,3.0,0.0,0.0,3.0,3.0,416.5460374206304,3.0,1.0,phase_1,,,,,,,,,,,,,green,triangle
210.0,7.0,3.0,1.0,4.0,4.0,297.3219975829124,3.0,1.0,phase_1,,,,,,,,,,,,,blue,square
0.0,8.0,0.0,1.0,4.0,4.0,538.2646732032299,3.0,1.0,phase_1,,,,,,,,,,,,,cyan,cross
0.0,4.0,0.0,0.0,1.0,1.0,255.7476088404655,3.0,2.0,phase_1,,,,,,,,,,,,,white,diamond
0.0,2.0,0.0,0.0,3.0,3.0,440.1432443410158,3.0,1.0,phase_1,,,,,,,,,,,,,orange,hexagon
40.0,5.0,1.0,1.0,4.0,4.0,404.0523301810026,3.0,1.0,phase_1,,,,,,,,,,,,,yellow,I
51.0,5.0,1.0,1.0,4.0,4.0,344.6795102208853,3.0,1.0,phase_1,,,,,,,,,,,,,yellow,I
0.0,1.0,0.0,0.0,4.0,4.0,379.1271857917309,3.0,1.0,phase_1,,,,,,,,,,,,,gray,circle
390.0,8.0,4.0,1.0,3.0,3.0,401.4975074678659,3.0,1.0,phase_1,,,,,,,,,,,,,cyan,cross
0.0,7.0,0.0,1.0,1.0,1.0,364.5290806889534,3.0,1.0,phase_1,,,,,,,,,,,,,blue,square
35.0,1.0,1.0,0.0,1.0,1.0,339.2155561596155,3.0,1.0,phase_1,,,,,,,,,,,,,gray,circle
124.0,2.0,2.0,0.0,3.0,3.0,360.0521646440029,3.0,1.0,phase_1,,,,,,,,,,,,,orange,hexagon
421.0,4.0,4.0,0.0,3.0,3.0,444.8320921510458,3.0,1.0,phase_1,,,,,,,,,,,,,white,diamond
210.0,3.0,3.0,0.0,1.0,1.0,280.9393480420112,3.0,1.0,phase_1,,,,,,,,,,,,,green,triangle
409.0,4.0,4.0,0.0,3.0,3.0,403.7099834531545,3.0,1.0,phase_1,,,,,,,,,,,,,white,diamond
417.0,4.0,4.0,0.0,4.0,4.0,408.4665365517139,3.0,1.0,phase_1,,,,,,,,,,,,,white,diamond
208.0,7.0,3.0,1.0,1.0,1.0,318.2370997965336,3.0,1.0,phase_1,,,,,,,,,,,,,blue,square
190.0,7.0,3.0,1.0,2.0,2.0,363.1750885397196,3.0,1.0,phase_1,,,,,,,,,,,,,blue,square
424.0,8.0,4.0,1.0,3.0,3.0,297.2167190164327,3.0,1.0,phase_1,,,,,,,,,,,,,cyan,cross
390.0,4.0,4.0,0.0,4.0,4.0,549.1550210863352,3.0,1.0,phase_1,,,,,,,,,,,,,white,diamond
86.0,6.0,2.0,1.0,4.0,4.0,433.0974780023098,3.0,1.0,phase_1,,,,,,,,,,,,,magenta,flipped triangle
0.0,1.0,0.0,0.0,2.0,2.0,350.4427764564752,3.0,1.0,phase_1,,,,,,,,,,,,,gray,circle
208.0,3.0,3.0,0.0,2.0,2.0,387.2083816677332,3.0,1.0,phase_1,,,,,,,,,,,,,green,triangle
88.0,6.0,2.0,1.0,1.0,1.0,359.0688481926918,3.0,1.0,phase_1,,,,,,,,,,,,,magenta,flipped triangle
386.0,8.0,4.0,1.0,2.0,2.0,325.2280913293361,3.0,1.0,phase_1,,,,,,,,,,,,,cyan,cross
383.0,4.0,4.0,0.0,2.0,2.0,375.3707055002451,3.0,1.0,phase_1,,,,,,,,,,,,,white,diamond
396.0,8.0,4.0,1.0,2.0,2.0,436.4035073667764,3.0,1.0,phase_1,,,,,,,,,,,,,cyan,cross
205.0,3.0,3.0,0.0,2.0,2.0,320.4467929899692,3.0,1.0,phase_1,,,,,,,,,,,,,green,triangle
192.0,3.0,3.0,0.0,4.0,4.0,317.3571620136499,3.0,1.0,phase_1,,,,,,,,,,,,,green,triangle
40.0,1.0,1.0,0.0,1.0,1.0,443.8991397619247,3.0,1.0,phase_1,,,,,,,,,,,,,gray,circle
415.0,8.0,4.0,1.0,4.0,4.0,382.4580647051334,3.0,1.0,phase_1,,,,,,,,,,,,,cyan,cross
406.0,4.0,4.0,0.0,2.0,2.0,373.7626709043979,3.0,1.0,phase_1,,,,,,,,,,,,,white,diamond
99.0,6.0,2.0,1.0,3.0,3.0,347.6013038307428,3.0,1.0,phase_1,,,,,,,,,,,,,magenta,flipped triangle
404.0,4.0,4.0,0.0,3.0,3.0,436.9059838354587,3.0,1.0,phase_1,,,,,,,,,,,,,white,diamond
40.0,1.0,1.0,0.0,4.0,4.0,404.4441152364015,3.0,1.0,phase_1,,,,,,,,,,,,,gray,circle
0.0,3.0,0.0,0.0,1.0,1.0,335.4247268289327,3.0,1.0,phase_1,,,,,,,,,,,,,green,triangle
0.0,7.0,0.0,1.0,4.0,4.0,322.1791200339794,3.0,1.0,phase_1,,,,,,,,,,,,,blue,square
58.0,1.0,1.0,0.0,1.0,1.0,322.5756958127022,3.0,1.0,phase_1,,,,,,,,,,,,,gray,circle
48.0,5.0,1.0,1.0,2.0,2.0,443.8566882163286,3.0,1.0,phase_1,,,,,,,,,,,,,yellow,I
99.0,6.0,2.0,1.0,1.0,1.0,289.138700813055,3.0,1.0,phase_1,,,,,,,,,,,,,magenta,flipped triangle
0.0,7.0,0.0,1.0,4.0,4.0,342.558179050684,3.0,1.0,phase_1,,,,,,,,,,,,,blue,square
0.0,2.0,0.0,0.0,2.0,2.0,394.2950721830129,3.0,1.0,phase_1,,,,,,,,,,,,,orange,hexagon
26.0,5.0,1.0,1.0,2.0,2.0,375.2253875136375,3.0,1.0,phase_1,,,,,,,,,,,,,yellow,I
416.0,4.0,4.0,0.0,4.0,4.0,325.8350025862455,3.0,1.0,phase_1,,,,,,,,,,,,,white,diamond
0.0,8.0,0.0,1.0,1.0,1.0,314.5796488970518,3.0,1.0,phase_1,,,,,,,,,,,,,cyan,cross
397.0,8.0,4.0,1.0,3.0,3.0,502.35230661928654,3.0,1.0,phase_1,,,,,,,,,,,,,cyan,cross
75.0,2.0,2.0,0.0,2.0,2.0,379.5192707329988,3.0,1.0,phase_1,,,,,,,,,,,,,orange,hexagon
0.0,1.0,0.0,0.0,2.0,2.0,326.2590374797582,3.0,1.0,phase_1,,,,,,,,,,,,,gray,circle
0.0,1.0,0.0,0.0,2.0,2.0,342.6318112760782,4.0,1.0,phase_1,,,,,,,,,,,,,gray,circle
67.0,5.0,1.0,1.0,1.0,1.0,312.9534684121609,4.0,2.0,phase_1,,,,,,,,,,,,,yellow,I
0.0,7.0,0.0,1.0,1.0,1.0,325.9206898510456,4.0,1.0,phase_1,,,,,,,,,,,,,blue,square
224.0,3.0,3.0,0.0,3.0,3.0,375.9675063192844,4.0,1.0,phase_1,,,,,,,,,,,,,green,triangle
0.0,2.0,0.0,0.0,1.0,1.0,283.6427222937345,4.0,1.0,phase_1,,,,,,,,,,,,,orange,hexagon
123.0,2.0,2.0,0.0,4.0,4.0,322.6413745433092,4.0,1.0,phase_1,,,,,,,,,,,,,orange,hexagon
0.0,7.0,0.0,1.0,2.0,2.0,319.5260614156723,4.0,1.0,phase_1,,,,,,,,,,,,,blue,square
214.0,3.0,3.0,0.0,1.0,1.0,338.5681733489036,4.0,1.0,phase_1,,,,,,,,,,,,,green,triangle
192.0,7.0,3.0,1.0,4.0,4.0,374.5645824819803,4.0,1.0,phase_1,,,,,,,,,,,,,blue,square
59.0,1.0,1.0,0.0,1.0,1.0,284.1921001672745,4.0,1.0,phase_1,,,,,,,,,,,,,gray,circle
0.0,4.0,0.0,0.0,2.0,2.0,282.0158004760742,4.0,1.0,phase_1,,,,,,,,,,,,,white,diamond
417.0,8.0,4.0,1.0,4.0,4.0,328.5278286784887,4.0,1.0,phase_1,,,,,,,,,,,,,cyan,cross
177.0,7.0,3.0,1.0,3.0,3.0,290.1120167225599,4.0,1.0,phase_1,,,,,,,,,,,,,blue,square
186.0,3.0,3.0,0.0,3.0,3.0,336.17246709764,4.0,1.0,phase_1,,,,,,,,,,,,,green,triangle
91.0,6.0,2.0,1.0,1.0,1.0,324.7340619564056,4.0,1.0,phase_1,,,,,,,,,,,,,magenta,flipped triangle
212.0,7.0,3.0,1.0,4.0,4.0,266.4902675896883,4.0,1.0,phase_1,,,,,,,,,,,,,blue,square
224.0,3.0,3.0,0.0,1.0,1.0,336.1167274415493,4.0,1.0,phase_1,,,,,,,,,,,,,green,triangle
397.0,4.0,4.0,0.0,3.0,3.0,370.9512297064066,4.0,1.0,phase_1,,,,,,,,,,,,,white,diamond
56.0,5.0,1.0,1.0,2.0,2.0,319.1458154469728,4.0,1.0,phase_1,,,,,,,,,,,,,yellow,I
0.0,7.0,0.0,1.0,2.0,2.0,330.5101357400417,4.0,1.0,phase_1,,,,,,,,,,,,,blue,square
67.0,1.0,1.0,0.0,4.0,4.0,319.6854684501886,4.0,1.0,phase_1,,,,,,,,,,,,,gray,circle
56.0,1.0,1.0,0.0,2.0,2.0,325.8446678519249,4.0,1.0,phase_1,,,,,,,,,,,,,gray,circle
191.0,7.0,3.0,1.0,3.0,3.0,372.1016924828291,4.0,1.0,phase_1,,,,,,,,,,,,,blue,square
46.0,5.0,1.0,1.0,1.0,1.0,232.3694638907909,4.0,1.0,phase_1,,,,,,,,,,,,,yellow,I
0.0,6.0,0.0,1.0,2.0,2.0,274.3636798113584,4.0,1.0,phase_1,,,,,,,,,,,,,magenta,flipped triangle
59.0,1.0,1.0,0.0,4.0,4.0,416.6759457439184,4.0,1.0,phase_1,,,,,,,,,,,,,gray,circle
72.0,5.0,1.0,1.0,1.0,1.0,310.8011335134506,4.0,1.0,phase_1,,,,,,,,,,,,,yellow,I
397.0,4.0,4.0,0.0,4.0,4.0,213.2702227681875,4.0,5.0,phase_1,,,,,,,,,,,,,white,diamond
223.0,3.0,3.0,0.0,4.0,4.0,344.5823136717081,4.0,1.0,phase_1,,,,,,,,,,,,,green,triangle
413.0,8.0,4.0,1.0,4.0,4.0,301.2821469455957,4.0,1.0,phase_1,,,,,,,,,,,,,cyan,cross
178.0,3.0,3.0,0.0,1.0,1.0,337.346039712429,4.0,1.0,phase_1,,,,,,,,,,,,,green,triangle
386.0,4.0,4.0,0.0,3.0,3.0,329.1436303406954,4.0,1.0,phase_1,,,,,,,,,,,,,white,diamond
36.0,5.0,1.0,1.0,2.0,2.0,346.6533347964287,4.0,1.0,phase_1,,,,,,,,,,,,,yellow,I
224.0,7.0,3.0,1.0,4.0,4.0,320.9100663661957,4.0,1.0,phase_1,,,,,,,,,,,,,blue,square
36.0,1.0,1.0,0.0,3.0,3.0,383.0922208726406,4.0,1.0,phase_1,,,,,,,,,,,,,gray,circle
105.0,2.0,2.0,0.0,1.0,1.0,251.41526572406292,4.0,1.0,phase_1,,,,,,,,,,,,,orange,hexagon
409.0,8.0,4.0,1.0,4.0,4.0,374.3672240525484,4.0,1.0,phase_1,,,,,,,,,,,,,cyan,cross
72.0,5.0,1.0,1.0,3.0,3.0,322.0796193927526,4.0,1.0,phase_1,,,,,,,,,,,,,yellow,I
78.0,6.0,2.0,1.0,2.0,2.0,335.4266285896301,4.0,1.0,phase_1,,,,,,,,,,,,,magenta,flipped triangle
89.0,2.0,2.0,0.0,1.0,1.0,314.9765096604824,4.0,1.0,phase_1,,,,,,,,,,,,,orange,hexagon
404.0,8.0,4.0,1.0,4.0,4.0,272.3858598619699,4.0,1.0,phase_1,,,,,,,,,,,,,cyan,cross
84.0,6.0,2.0,1.0,4.0,4.0,327.4006675928831,4.0,1.0,phase_1,,,,,,,,,,,,,magenta,flipped triangle
183.0,7.0,3.0,1.0,2.0,2.0,329.9931474030018,4.0,1.0,phase_1,,,,,,,,,,,,,blue,square
0.0,5.0,0.0,1.0,1.0,1.0,415.4001604765653,4.0,1.0,phase_1,,,,,,,,,,,,,yellow,I
29.0,1.0,1.0,0.0,3.0,3.0,426.426300778985,4.0,1.0,phase_1,,,,,,,,,,,,,gray,circle
0.0,7.0,0.0,1.0,3.0,3.0,536.9050540030003,4.0,1.0,phase_1,,,,,,,,,,,,,blue,square
79.0,6.0,2.0,1.0,3.0,3.0,0.191006809473,4.0,1.0,phase_1,,,,,,,,,,,,,magenta,flipped triangle
0.0,2.0,0.0,0.0,2.0,2.0,53.4686669707298,4.0,2.0,phase_1,,,,,,,,,,,,,orange,hexagon
74.0,1.0,1.0,0.0,2.0,2.0,371.8046806752682,4.0,1.0,phase_1,,,,,,,,,,,,,gray,circle
383.0,4.0,4.0,0.0,1.0,1.0,342.6587656140327,4.0,1.0,phase_1,,,,,,,,,,,,,white,diamond
0.0,7.0,0.0,1.0,4.0,4.0,310.7816576957702,4.0,1.0,phase_1,,,,,,,,,,,,,blue,square
204.0,3.0,3.0,0.0,3.0,3.0,346.7564284801483,4.0,1.0,phase_1,,,,,,,,,,,,,green,triangle
404.0,4.0,4.0,0.0,2.0,2.0,415.514126420021,4.0,1.0,phase_1,,,,,,,,,,,,,white,diamond
407.0,4.0,4.0,0.0,4.0,4.0,379.7730505466461,4.0,1.0,phase_1,,,,,,,,,,,,,white,diamond
215.0,3.0,3.0,0.0,2.0,2.0,342.290885746479,4.0,1.0,phase_1,,,,,,,,,,,,,green,triangle
0.0,6.0,0.0,1.0,4.0,4.0,326.0209839791059,4.0,1.0,phase_1,,,,,,,,,,,,,magenta,flipped triangle
200.0,7.0,3.0,1.0,4.0,4.0,347.1705261617899,4.0,1.0,phase_1,,,,,,,,,,,,,blue,square
120.0,6.0,2.0,1.0,1.0,1.0,367.1593815088272,4.0,1.0,phase_1,,,,,,,,,,,,,magenta,flipped triangle
180.0,7.0,3.0,1.0,2.0,2.0,272.7037295699119,4.0,1.0,phase_1,,,,,,,,,,,,,blue,square
69.0,5.0,1.0,1.0,1.0,1.0,309.0481050312519,4.0,1.0,phase_1,,,,,,,,,,,,,yellow,I
176.0,7.0,3.0,1.0,3.0,3.0,362.6190796494484,4.0,1.0,phase_1,,,,,,,,,,,,,blue,square
416.0,8.0,4.0,1.0,3.0,3.0,353.5414077341556,4.0,1.0,phase_1,,,,,,,,,,,,,cyan,cross
195.0,3.0,3.0,0.0,4.0,4.0,309.6980601549148,4.0,1.0,phase_1,,,,,,,,,,,,,green,triangle
114.0,6.0,2.0,1.0,2.0,2.0,303.8099408149719,4.0,1.0,phase_1,,,,,,,,,,,,,magenta,flipped triangle
0.0,1.0,0.0,0.0,4.0,4.0,358.10018889606,4.0,1.0,phase_1,,,,,,,,,,,,,gray,circle
58.0,5.0,1.0,1.0,3.0,3.0,297.3064351826906,4.0,1.0,phase_1,,,,,,,,,,,,,yellow,I
0.0,4.0,0.0,0.0,2.0,2.0,280.1642343401909,4.0,1.0,phase_1,,,,,,,,,,,,,white,diamond
50.0,5.0,1.0,1.0,2.0,2.0,362.4584898352623,4.0,1.0,phase_1,,,,,,,,,,,,,yellow,I
99.0,2.0,2.0,0.0,4.0,4.0,306.232014670968,4.0,1.0,phase_1,,,,,,,,,,,,,orange,hexagon
398.0,4.0,4.0,0.0,1.0,1.0,326.5966847538948,4.0,1.0,phase_1,,,,,,,,,,,,,white,diamond
0.0,1.0,0.0,0.0,3.0,3.0,321.1342394351959,4.0,1.0,phase_1,,,,,,,,,,,,,gray,circle
104.0,6.0,2.0,1.0,1.0,1.0,261.474085971713,4.0,1.0,phase_1,,,,,,,,,,,,,magenta,flipped triangle
200.0,3.0,3.0,0.0,4.0,4.0,333.3558868616819,4.0,1.0,phase_1,,,,,,,,,,,,,green,triangle
204.0,7.0,3.0,1.0,4.0,4.0,339.2722811549902,4.0,1.0,phase_1,,,,,,,,,,,,,blue,square
0.0,4.0,0.0,0.0,4.0,4.0,366.8601643294096,4.0,1.0,phase_1,,,,,,,,,,,,,white,diamond
32.0,5.0,1.0,1.0,3.0,3.0,305.0687909126282,4.0,1.0,phase_1,,,,,,,,,,,,,yellow,I
406.0,8.0,4.0,1.0,3.0,3.0,327.0365800708532,4.0,1.0,phase_1,,,,,,,,,,,,,cyan,cross
224.0,3.0,3.0,0.0,1.0,1.0,492.480693385005,4.0,1.0,phase_1,,,,,,,,,,,,,green,triangle
195.0,7.0,3.0,1.0,1.0,1.0,509.06555354595184,4.0,2.0,phase_1,,,,,,,,,,,,,blue,square
0.0,6.0,0.0,1.0,4.0,4.0,371.975852176547,4.0,1.0,phase_1,,,,,,,,,,,,,magenta,flipped triangle
91.0,6.0,2.0,1.0,4.0,4.0,333.8189423084259,4.0,1.0,phase_1,,,,,,,,,,,,,magenta,flipped triangle
119.0,6.0,2.0,1.0,1.0,1.0,329.1907757520675,4.0,1.0,phase_1,,,,,,,,,,,,,magenta,flipped triangle
0.0,5.0,0.0,1.0,1.0,1.0,321.9070546329021,4.0,1.0,phase_1,,,,,,,,,,,,,yellow,I
190.0,3.0,3.0,0.0,1.0,1.0,293.569803237915,4.0,1.0,phase_1,,,,,,,,,,,,,green,triangle
113.0,2.0,2.0,0.0,3.0,3.0,281.2361288815737,4.0,1.0,phase_1,,,,,,,,,,,,,orange,hexagon
91.0,2.0,2.0,0.0,1.0,1.0,276.4916159212589,4.0,1.0,phase_1,,,,,,,,,,,,,orange,hexagon
378.0,8.0,4.0,1.0,2.0,2.0,337.3288661241531,4.0,1.0,phase_1,,,,,,,,,,,,,cyan,cross
114.0,6.0,2.0,1.0,4.0,4.0,333.8611796498298,4.0,1.0,phase_1,,,,,,,,,,,,,magenta,flipped triangle
83.0,6.0,2.0,1.0,3.0,3.0,301.3176899403333,4.0,1.0,phase_1,,,,,,,,,,,,,magenta,flipped triangle
71.0,5.0,1.0,1.0,2.0,2.0,353.9307340979576,4.0,1.0,phase_1,,,,,,,,,,,,,yellow,I
180.0,3.0,3.0,0.0,1.0,1.0,326.9825782626867,4.0,1.0,phase_1,,,,,,,,,,,,,green,triangle
0.0,7.0,0.0,1.0,3.0,3.0,356.2249671667814,4.0,1.0,phase_1,,,,,,,,,,,,,blue,square
201.0,7.0,3.0,1.0,2.0,2.0,360.7213273644447,4.0,1.0,phase_1,,,,,,,,,,,,,blue,square
60.0,1.0,1.0,0.0,3.0,3.0,377.8665009886026,4.0,1.0,phase_1,,,,,,,,,,,,,gray,circle
40.0,5.0,1.0,1.0,1.0,1.0,326.3308852910995,4.0,1.0,phase_1,,,,,,,,,,,,,yellow,I
45.0,1.0,1.0,0.0,2.0,2.0,302.6146963238716,4.0,1.0,phase_1,,,,,,,,,,,,,gray,circle
219.0,7.0,3.0,1.0,1.0,1.0,274.6771294623613,4.0,1.0,phase_1,,,,,,,,,,,,,blue,square
42.0,1.0,1.0,0.0,3.0,3.0,318.0763553828001,4.0,1.0,phase_1,,,,,,,,,,,,,gray,circle
80.0,2.0,2.0,0.0,2.0,2.0,314.7835675626993,4.0,1.0,phase_1,,,,,,,,,,,,,orange,hexagon
0.0,8.0,0.0,1.0,3.0,3.0,310.2754894644022,4.0,1.0,phase_1,,,,,,,,,,,,,cyan,cross
0.0,5.0,1.0,1.0,6.0,6.0,515.0046776980162,1.0,1.0,phase_2,stop,250.0,250.0,3.0,,,,,,,,,yellow,I
0.0,7.0,3.0,1.0,5.0,5.0,284.6219204366207,1.0,1.0,phase_2,go,250.0,200.0,1.0,,,,,,,,,blue,square
0.0,5.0,1.0,1.0,5.0,5.0,348.6700262874365,1.0,1.0,phase_2,stop,250.0,200.0,3.0,,,,,,,,,yellow,I
0.0,4.0,4.0,0.0,6.0,6.0,644.462326541543,1.0,1.0,phase_2,go,200.0,200.0,1.0,,,,,,,,,white,diamond
0.0,5.0,1.0,1.0,5.0,5.0,320.0460709631443,1.0,1.0,phase_2,stop,200.0,200.0,3.0,,,,,,,,,yellow,I
0.0,8.0,4.0,1.0,5.0,0.0,0.0,1.0,1.0,phase_2,stop,150.0,200.0,4.0,,,,,,,,,cyan,cross
0.0,3.0,3.0,0.0,6.0,6.0,327.7082536369562,1.0,1.0,phase_2,go,200.0,200.0,1.0,,,,,,,,,green,triangle
0.0,4.0,4.0,0.0,6.0,6.0,566.3542691618204,1.0,1.0,phase_2,go,200.0,200.0,1.0,,,,,,,,,white,diamond
0.0,6.0,2.0,1.0,6.0,0.0,0.0,1.0,1.0,phase_2,stop,200.0,200.0,4.0,,,,,,,,,magenta,flipped triangle
0.0,6.0,2.0,1.0,5.0,5.0,375.3774669021368,1.0,1.0,phase_2,stop,200.0,250.0,3.0,,,,,,,,,magenta,flipped triangle
0.0,4.0,4.0,0.0,5.0,5.0,785.1008363068104,1.0,1.0,phase_2,go,150.0,250.0,1.0,,,,,,,,,white,diamond
0.0,7.0,3.0,1.0,6.0,6.0,325.0196781009435,1.0,1.0,phase_2,stop,150.0,250.0,3.0,,,,,,,,,blue,square
0.0,1.0,1.0,0.0,6.0,6.0,939.63941372931,1.0,1.0,phase_2,go,150.0,200.0,1.0,,,,,,,,,gray,circle
0.0,6.0,2.0,1.0,5.0,0.0,0.0,1.0,1.0,phase_2,stop,150.0,200.0,4.0,,,,,,,,,magenta,flipped triangle
0.0,2.0,2.0,0.0,5.0,5.0,693.2459436357021,1.0,1.0,phase_2,go,200.0,200.0,1.0,,,,,,,,,orange,hexagon
0.0,1.0,1.0,0.0,5.0,5.0,684.1412410140038,1.0,1.0,phase_2,go,200.0,200.0,1.0,,,,,,,,,gray,circle
0.0,2.0,2.0,0.0,6.0,6.0,915.6034253537656,1.0,1.0,phase_2,go,200.0,200.0,1.0,,,,,,,,,orange,hexagon
0.0,5.0,1.0,1.0,6.0,6.0,541.1585308611393,1.0,1.0,phase_2,stop,200.0,200.0,3.0,,,,,,,,,yellow,I
0.0,1.0,1.0,0.0,5.0,5.0,604.7828644514084,1.0,1.0,phase_2,go,200.0,150.0,1.0,,,,,,,,,gray,circle
0.0,6.0,2.0,1.0,5.0,0.0,0.0,1.0,1.0,phase_2,stop,200.0,150.0,4.0,,,,,,,,,magenta,flipped triangle
0.0,6.0,2.0,1.0,6.0,6.0,467.3067778348923,1.0,1.0,phase_2,stop,250.0,150.0,3.0,,,,,,,,,magenta,flipped triangle
0.0,3.0,3.0,0.0,6.0,6.0,1017.1468183398249,1.0,1.0,phase_2,go,250.0,100.0,1.0,,,,,,,,,green,triangle
0.0,6.0,2.0,1.0,6.0,0.0,0.0,1.0,1.0,phase_2,stop,250.0,100.0,4.0,,,,,,,,,magenta,flipped triangle
0.0,5.0,1.0,1.0,5.0,5.0,696.6918185353279,1.0,1.0,phase_2,go,250.0,150.0,1.0,,,,,,,,,yellow,I
0.0,8.0,4.0,1.0,6.0,0.0,0.0,1.0,1.0,phase_2,stop,250.0,150.0,4.0,,,,,,,,,cyan,cross
0.0,8.0,4.0,1.0,5.0,0.0,0.0,1.0,1.0,phase_2,stop,250.0,200.0,4.0,,,,,,,,,cyan,cross
0.0,7.0,3.0,1.0,6.0,6.0,694.5403460413218,1.0,1.0,phase_2,go,300.0,200.0,1.0,,,,,,,,,blue,square
0.0,2.0,2.0,0.0,5.0,5.0,660.1004805415869,1.0,1.0,phase_2,go,300.0,200.0,1.0,,,,,,,,,orange,hexagon
0.0,8.0,4.0,1.0,6.0,0.0,0.0,1.0,1.0,phase_2,stop,300.0,200.0,4.0,,,,,,,,,cyan,cross
0.0,1.0,1.0,0.0,6.0,6.0,830.630712211132,1.0,1.0,phase_2,go,300.0,250.0,1.0,,,,,,,,,gray,circle
0.0,5.0,1.0,1.0,6.0,0.0,0.0,1.0,1.0,phase_2,stop,300.0,250.0,4.0,,,,,,,,,yellow,I
0.0,4.0,4.0,0.0,6.0,6.0,650.0366721302271,1.0,1.0,phase_2,go,300.0,300.0,1.0,,,,,,,,,white,diamond
0.0,4.0,4.0,0.0,5.0,5.0,420.7538794726133,1.0,1.0,phase_2,go,300.0,300.0,1.0,,,,,,,,,white,diamond
0.0,2.0,2.0,0.0,6.0,6.0,760.8048785477877,1.0,1.0,phase_2,go,300.0,300.0,1.0,,,,,,,,,orange,hexagon
0.0,3.0,3.0,0.0,5.0,5.0,850.5804967135191,1.0,1.0,phase_2,go,300.0,300.0,1.0,,,,,,,,,green,triangle
0.0,8.0,4.0,1.0,6.0,6.0,402.4930112063885,1.0,1.0,phase_2,go,300.0,300.0,1.0,,,,,,,,,cyan,cross
0.0,8.0,4.0,1.0,6.0,6.0,684.6513971686363,2.0,1.0,phase_2,stop,300.0,300.0,3.0,,,,,,,,,cyan,cross
0.0,8.0,4.0,1.0,6.0,6.0,572.4448636174202,2.0,1.0,phase_2,go,300.0,250.0,1.0,,,,,,,,,cyan,cross
0.0,6.0,2.0,1.0,6.0,0.0,0.0,2.0,1.0,phase_2,stop,300.0,250.0,4.0,,,,,,,,,magenta,flipped triangle
0.0,6.0,2.0,1.0,5.0,0.0,0.0,2.0,1.0,phase_2,stop,300.0,300.0,4.0,,,,,,,,,magenta,flipped triangle
0.0,3.0,3.0,0.0,6.0,6.0,510.2155487984419,2.0,1.0,phase_2,go,350.0,300.0,1.0,,,,,,,,,green,triangle
0.0,8.0,4.0,1.0,5.0,5.0,474.6677335351705,2.0,1.0,phase_2,go,350.0,300.0,1.0,,,,,,,,,cyan,cross
0.0,5.0,1.0,1.0,6.0,0.0,0.0,2.0,1.0,phase_2,stop,350.0,300.0,4.0,,,,,,,,,yellow,I
0.0,2.0,2.0,0.0,5.0,5.0,602.7854885905981,2.0,1.0,phase_2,go,350.0,350.0,1.0,,,,,,,,,orange,hexagon
0.0,6.0,2.0,1.0,6.0,6.0,607.4237115681171,2.0,1.0,phase_2,go,350.0,350.0,1.0,,,,,,,,,magenta,flipped triangle
0.0,3.0,3.0,0.0,6.0,6.0,504.31850738823414,2.0,1.0,phase_2,go,350.0,350.0,1.0,,,,,,,,,green,triangle
0.0,6.0,2.0,1.0,5.0,0.0,0.0,2.0,1.0,phase_2,stop,350.0,350.0,4.0,,,,,,,,,magenta,flipped triangle
0.0,4.0,4.0,0.0,5.0,5.0,406.6100157797336,2.0,1.0,phase_2,go,400.0,350.0,1.0,,,,,,,,,white,diamond
0.0,1.0,1.0,0.0,6.0,6.0,513.161763548851,2.0,1.0,phase_2,go,400.0,350.0,1.0,,,,,,,,,gray,circle
0.0,1.0,1.0,0.0,6.0,6.0,525.0607449561357,2.0,1.0,phase_2,go,400.0,350.0,1.0,,,,,,,,,gray,circle
0.0,5.0,1.0,1.0,6.0,6.0,415.7382752746343,2.0,1.0,phase_2,stop,400.0,350.0,3.0,,,,,,,,,yellow,I
0.0,4.0,4.0,0.0,6.0,6.0,726.8366068601608,2.0,1.0,phase_2,go,400.0,300.0,1.0,,,,,,,,,white,diamond
0.0,7.0,3.0,1.0,6.0,6.0,581.6293079406023,2.0,1.0,phase_2,stop,400.0,300.0,3.0,,,,,,,,,blue,square
0.0,7.0,3.0,1.0,6.0,0.0,0.0,2.0,1.0,phase_2,stop,400.0,250.0,4.0,,,,,,,,,blue,square
0.0,4.0,4.0,0.0,5.0,5.0,500.08493289351463,2.0,1.0,phase_2,go,400.0,300.0,1.0,,,,,,,,,white,diamond
0.0,8.0,4.0,1.0,5.0,0.0,0.0,2.0,1.0,phase_2,stop,400.0,300.0,4.0,,,,,,,,,cyan,cross
0.0,5.0,1.0,1.0,6.0,6.0,876.5007797628641,2.0,1.0,phase_2,go,450.0,300.0,1.0,,,,,,,,,yellow,I
0.0,5.0,1.0,1.0,5.0,0.0,0.0,2.0,1.0,phase_2,stop,450.0,300.0,4.0,,,,,,,,,yellow,I
0.0,2.0,2.0,0.0,5.0,5.0,567.8709950298071,2.0,1.0,phase_2,go,500.0,300.0,1.0,,,,,,,,,orange,hexagon
0.0,4.0,4.0,0.0,5.0,5.0,319.8823072016239,2.0,1.0,phase_2,go,500.0,300.0,1.0,,,,,,,,,white,diamond
0.0,7.0,3.0,1.0,5.0,0.0,0.0,2.0,1.0,phase_2,stop,500.0,300.0,4.0,,,,,,,,,blue,square
0.0,4.0,4.0,0.0,5.0,5.0,598.3490645885468,2.0,1.0,phase_2,go,550.0,300.0,1.0,,,,,,,,,white,diamond
0.0,5.0,1.0,1.0,6.0,6.0,519.4976180791855,2.0,1.0,phase_2,go,550.0,300.0,1.0,,,,,,,,,yellow,I
0.0,7.0,3.0,1.0,5.0,5.0,687.5969003885984,2.0,1.0,phase_2,stop,550.0,300.0,3.0,,,,,,,,,blue,square
0.0,6.0,2.0,1.0,5.0,0.0,0.0,2.0,1.0,phase_2,stop,500.0,300.0,4.0,,,,,,,,,magenta,flipped triangle
0.0,7.0,3.0,1.0,5.0,0.0,0.0,2.0,1.0,phase_2,stop,550.0,300.0,4.0,,,,,,,,,blue,square
0.0,2.0,2.0,0.0,6.0,6.0,558.6558040231466,2.0,1.0,phase_2,go,600.0,300.0,1.0,,,,,,,,,orange,hexagon
0.0,3.0,3.0,0.0,6.0,6.0,854.2077597230673,2.0,1.0,phase_2,go,600.0,300.0,1.0,,,,,,,,,green,triangle
0.0,7.0,3.0,1.0,5.0,0.0,0.0,2.0,1.0,phase_2,stop,600.0,300.0,4.0,,,,,,,,,blue,square
0.0,2.0,2.0,0.0,6.0,6.0,513.3865922689438,2.0,1.0,phase_2,go,650.0,300.0,1.0,,,,,,,,,orange,hexagon
0.0,2.0,2.0,0.0,6.0,6.0,524.5075542479753,2.0,1.0,phase_2,go,650.0,300.0,1.0,,,,,,,,,orange,hexagon
0.0,7.0,3.0,1.0,6.0,0.0,0.0,2.0,1.0,phase_2,stop,650.0,300.0,4.0,,,,,,,,,blue,square
0.0,2.0,2.0,0.0,6.0,6.0,422.6402528584003,3.0,1.0,phase_2,go,650.0,350.0,1.0,,,,,,,,,orange,hexagon
0.0,7.0,3.0,1.0,6.0,0.0,0.0,3.0,1.0,phase_2,stop,650.0,350.0,4.0,,,,,,,,,blue,square
0.0,4.0,4.0,0.0,5.0,5.0,509.6033811569214,3.0,1.0,phase_2,go,650.0,400.0,1.0,,,,,,,,,white,diamond
0.0,1.0,1.0,0.0,5.0,5.0,533.1230964511633,3.0,1.0,phase_2,go,650.0,400.0,1.0,,,,,,,,,gray,circle
0.0,8.0,4.0,1.0,5.0,5.0,570.7009974867105,3.0,1.0,phase_2,stop,650.0,400.0,3.0,,,,,,,,,cyan,cross
0.0,6.0,2.0,1.0,5.0,0.0,0.0,3.0,1.0,phase_2,stop,600.0,400.0,4.0,,,,,,,,,magenta,flipped triangle
0.0,3.0,3.0,0.0,6.0,6.0,635.7028558850288,3.0,1.0,phase_2,go,650.0,400.0,1.0,,,,,,,,,green,triangle
0.0,6.0,2.0,1.0,5.0,5.0,961.5543596446514,3.0,1.0,phase_2,go,650.0,400.0,1.0,,,,,,,,,magenta,flipped triangle
0.0,8.0,4.0,1.0,5.0,5.0,560.5281591415405,3.0,1.0,phase_2,stop,650.0,400.0,3.0,,,,,,,,,cyan,cross
0.0,8.0,4.0,1.0,6.0,0.0,0.0,3.0,1.0,phase_2,stop,600.0,400.0,4.0,,,,,,,,,cyan,cross
0.0,5.0,1.0,1.0,5.0,5.0,545.9571573883295,3.0,1.0,phase_2,stop,600.0,450.0,3.0,,,,,,,,,yellow,I
0.0,3.0,3.0,0.0,6.0,6.0,607.2706542909145,3.0,1.0,phase_2,go,550.0,450.0,1.0,,,,,,,,,green,triangle
0.0,4.0,4.0,0.0,6.0,6.0,521.8172185122967,3.0,1.0,phase_2,go,550.0,450.0,1.0,,,,,,,,,white,diamond
0.0,2.0,2.0,0.0,6.0,6.0,489.8994695395231,3.0,1.0,phase_2,go,550.0,450.0,1.0,,,,,,,,,orange,hexagon
0.0,6.0,2.0,1.0,6.0,0.0,0.0,3.0,1.0,phase_2,stop,550.0,450.0,4.0,,,,,,,,,magenta,flipped triangle
0.0,1.0,1.0,0.0,5.0,5.0,473.2773024588823,3.0,1.0,phase_2,go,550.0,500.0,1.0,,,,,,,,,gray,circle
0.0,1.0,1.0,0.0,5.0,5.0,502.9262322932482,3.0,1.0,phase_2,go,550.0,500.0,1.0,,,,,,,,,gray,circle
0.0,1.0,1.0,0.0,6.0,5.0,460.38250438869,3.0,1.0,phase_2,go,550.0,500.0,2.0,,,,,,,,,gray,circle
0.0,3.0,3.0,0.0,5.0,5.0,611.4477030932903,3.0,1.0,phase_2,go,550.0,500.0,1.0,,,,,,,,,green,triangle
0.0,7.0,3.0,1.0,5.0,0.0,0.0,3.0,1.0,phase_2,stop,550.0,500.0,4.0,,,,,,,,,blue,square
0.0,8.0,4.0,1.0,5.0,0.0,0.0,3.0,1.0,phase_2,stop,600.0,500.0,4.0,,,,,,,,,cyan,cross
0.0,6.0,2.0,1.0,6.0,6.0,1084.2265374958515,3.0,1.0,phase_2,go,650.0,500.0,1.0,,,,,,,,,magenta,flipped triangle
0.0,5.0,1.0,1.0,5.0,0.0,0.0,3.0,1.0,phase_2,stop,650.0,500.0,4.0,,,,,,,,,yellow,I
0.0,1.0,1.0,0.0,5.0,5.0,506.06074929237366,3.0,1.0,phase_2,go,700.0,500.0,1.0,,,,,,,,,gray,circle
0.0,1.0,1.0,0.0,5.0,5.0,427.9723335057497,3.0,1.0,phase_2,go,700.0,500.0,1.0,,,,,,,,,gray,circle
0.0,4.0,4.0,0.0,6.0,6.0,298.6840363591909,3.0,1.0,phase_2,go,700.0,500.0,1.0,,,,,,,,,white,diamond
0.0,7.0,3.0,1.0,6.0,0.0,0.0,3.0,1.0,phase_2,stop,700.0,500.0,4.0,,,,,,,,,blue,square
0.0,2.0,2.0,0.0,6.0,6.0,538.2569115608931,3.0,1.0,phase_2,go,700.0,550.0,1.0,,,,,,,,,orange,hexagon
0.0,5.0,1.0,1.0,6.0,0.0,0.0,3.0,1.0,phase_2,stop,700.0,550.0,4.0,,,,,,,,,yellow,I
0.0,4.0,4.0,0.0,6.0,6.0,549.3805259466171,3.0,1.0,phase_2,go,700.0,600.0,1.0,,,,,,,,,white,diamond
0.0,3.0,3.0,0.0,6.0,6.0,614.9971801787615,3.0,1.0,phase_2,go,700.0,600.0,1.0,,,,,,,,,green,triangle
0.0,5.0,1.0,1.0,6.0,0.0,0.0,3.0,1.0,phase_2,stop,700.0,600.0,4.0,,,,,,,,,yellow,I
0.0,4.0,4.0,0.0,5.0,5.0,539.7323742508888,3.0,1.0,phase_2,go,700.0,650.0,1.0,,,,,,,,,white,diamond
0.0,4.0,4.0,0.0,5.0,5.0,500.0823065638542,3.0,1.0,phase_2,go,700.0,650.0,1.0,,,,,,,,,white,diamond
0.0,2.0,2.0,0.0,5.0,5.0,578.5705707967281,3.0,1.0,phase_2,go,700.0,650.0,1.0,,,,,,,,,orange,hexagon
0.0,3.0,3.0,0.0,5.0,5.0,555.0597552210093,3.0,1.0,phase_2,go,700.0,650.0,1.0,,,,,,,,,green,triangle
0.0,8.0,4.0,1.0,5.0,0.0,0.0,4.0,1.0,phase_2,stop,700.0,650.0,4.0,,,,,,,,,cyan,cross
0.0,6.0,2.0,1.0,6.0,6.0,678.8340304046869,4.0,1.0,phase_2,stop,750.0,650.0,3.0,,,,,,,,,magenta,flipped triangle
0.0,5.0,1.0,1.0,6.0,0.0,0.0,4.0,1.0,phase_2,stop,750.0,600.0,4.0,,,,,,,,,yellow,I
0.0,5.0,1.0,1.0,6.0,6.0,1380.0744395703075,4.0,1.0,phase_2,go,750.0,650.0,1.0,,,,,,,,,yellow,I
0.0,6.0,2.0,1.0,5.0,5.0,662.5217162072659,4.0,1.0,phase_2,stop,750.0,650.0,3.0,,,,,,,,,magenta,flipped triangle
0.0,6.0,2.0,1.0,6.0,0.0,0.0,4.0,1.0,phase_2,stop,700.0,650.0,4.0,,,,,,,,,magenta,flipped triangle
0.0,2.0,2.0,0.0,5.0,5.0,684.6207194030285,4.0,1.0,phase_2,go,700.0,700.0,1.0,,,,,,,,,orange,hexagon
0.0,5.0,1.0,1.0,5.0,5.0,693.2320706546307,4.0,1.0,phase_2,stop,700.0,700.0,3.0,,,,,,,,,yellow,I
0.0,3.0,3.0,0.0,6.0,6.0,755.1499810069799,4.0,1.0,phase_2,go,650.0,700.0,1.0,,,,,,,,,green,triangle
0.0,2.0,2.0,0.0,5.0,5.0,531.5412282943726,4.0,1.0,phase_2,go,650.0,700.0,1.0,,,,,,,,,orange,hexagon
0.0,3.0,3.0,0.0,6.0,6.0,440.706243738532,4.0,1.0,phase_2,go,650.0,700.0,1.0,,,,,,,,,green,triangle
0.0,6.0,2.0,1.0,5.0,0.0,0.0,4.0,1.0,phase_2,stop,650.0,700.0,4.0,,,,,,,,,magenta,flipped triangle
0.0,7.0,3.0,1.0,5.0,5.0,807.8251332044601,4.0,1.0,phase_2,stop,700.0,700.0,3.0,,,,,,,,,blue,square
0.0,4.0,4.0,0.0,6.0,6.0,552.3521304130554,4.0,1.0,phase_2,go,650.0,700.0,1.0,,,,,,,,,white,diamond
0.0,3.0,3.0,0.0,5.0,5.0,545.2476181089878,4.0,1.0,phase_2,go,650.0,700.0,1.0,,,,,,,,,green,triangle
0.0,1.0,1.0,0.0,5.0,5.0,517.6305677741766,4.0,1.0,phase_2,go,650.0,700.0,1.0,,,,,,,,,gray,circle
0.0,3.0,3.0,0.0,6.0,6.0,311.0987860709429,4.0,1.0,phase_2,go,650.0,700.0,1.0,,,,,,,,,green,triangle
0.0,3.0,3.0,0.0,5.0,6.0,4.364777356386099,4.0,1.0,phase_2,go,650.0,700.0,2.0,,,,,,,,,green,triangle
0.0,4.0,4.0,0.0,5.0,5.0,559.2305231839418,4.0,1.0,phase_2,go,650.0,700.0,1.0,,,,,,,,,white,diamond
0.0,1.0,1.0,0.0,5.0,5.0,381.836986169219,4.0,1.0,phase_2,go,650.0,700.0,1.0,,,,,,,,,gray,circle
0.0,1.0,1.0,0.0,6.0,6.0,499.452581629157,4.0,1.0,phase_2,go,650.0,700.0,1.0,,,,,,,,,gray,circle
0.0,2.0,2.0,0.0,5.0,5.0,373.6768178641796,4.0,1.0,phase_2,go,650.0,700.0,1.0,,,,,,,,,orange,hexagon
0.0,5.0,1.0,1.0,5.0,5.0,365.2595430612564,4.0,1.0,phase_2,stop,650.0,700.0,3.0,,,,,,,,,yellow,I
0.0,4.0,4.0,0.0,6.0,6.0,529.0695652365685,4.0,1.0,phase_2,go,600.0,700.0,1.0,,,,,,,,,white,diamond
0.0,5.0,1.0,1.0,5.0,5.0,888.8278249651194,4.0,1.0,phase_2,go,600.0,700.0,1.0,,,,,,,,,yellow,I
0.0,1.0,1.0,0.0,5.0,5.0,482.0770043879747,4.0,1.0,phase_2,go,600.0,700.0,1.0,,,,,,,,,gray,circle
0.0,5.0,1.0,1.0,6.0,6.0,655.699947848916,4.0,1.0,phase_2,stop,600.0,700.0,3.0,,,,,,,,,yellow,I
0.0,2.0,2.0,0.0,6.0,6.0,535.5581659823656,4.0,1.0,phase_2,go,600.0,650.0,1.0,,,,,,,,,orange,hexagon
0.0,7.0,3.0,1.0,5.0,0.0,0.0,4.0,1.0,phase_2,stop,600.0,650.0,4.0,,,,,,,,,blue,square
0.0,2.0,2.0,0.0,5.0,5.0,541.6983962059021,4.0,1.0,phase_2,go,650.0,650.0,1.0,,,,,,,,,orange,hexagon
0.0,4.0,4.0,0.0,6.0,6.0,528.9834104478359,4.0,1.0,phase_2,go,650.0,650.0,1.0,,,,,,,,,white,diamond
0.0,5.0,1.0,1.0,5.0,5.0,800.47039501369,4.0,1.0,phase_2,go,650.0,650.0,1.0,,,,,,,,,yellow,I
0.0,6.0,2.0,1.0,5.0,0.0,0.0,4.0,1.0,phase_2,stop,650.0,650.0,4.0,,,,,,,,,magenta,flipped triangle
0.0,6.0,2.0,1.0,6.0,5.0,775.4445634782314,4.0,1.0,phase_2,stop,700.0,650.0,3.0,,,,,,,,,magenta,flipped triangle
0.0,2.0,2.0,0.0,5.0,5.0,501.2298282235861,4.0,1.0,phase_2,go,700.0,600.0,1.0,,,,,,,,,orange,hexagon
0.0,4.0,4.0,0.0,5.0,5.0,555.2181955426931,4.0,1.0,phase_2,go,700.0,600.0,1.0,,,,,,,,,white,diamond
0.0,5.0,1.0,1.0,5.0,0.0,0.0,5.0,1.0,phase_2,stop,700.0,600.0,4.0,,,,,,,,,yellow,I
0.0,1.0,1.0,0.0,6.0,6.0,488.1090745329857,5.0,1.0,phase_2,go,750.0,600.0,1.0,,,,,,,,,gray,circle
0.0,1.0,1.0,0.0,6.0,6.0,517.0372612774372,5.0,1.0,phase_2,go,750.0,600.0,1.0,,,,,,,,,gray,circle
0.0,2.0,2.0,0.0,5.0,5.0,508.4759760648012,5.0,1.0,phase_2,go,750.0,600.0,1.0,,,,,,,,,orange,hexagon
0.0,5.0,1.0,1.0,5.0,5.0,812.9902742803097,5.0,1.0,phase_2,stop,750.0,600.0,3.0,,,,,,,,,yellow,I
0.0,7.0,3.0,1.0,6.0,0.0,0.0,5.0,1.0,phase_2,stop,700.0,600.0,4.0,,,,,,,,,blue,square
0.0,1.0,1.0,0.0,6.0,6.0,539.6086648106575,5.0,1.0,phase_2,go,700.0,650.0,1.0,,,,,,,,,gray,circle
0.0,8.0,4.0,1.0,6.0,0.0,0.0,5.0,1.0,phase_2,stop,700.0,650.0,4.0,,,,,,,,,cyan,cross
0.0,8.0,4.0,1.0,5.0,0.0,0.0,5.0,1.0,phase_2,stop,700.0,700.0,4.0,,,,,,,,,cyan,cross
0.0,2.0,2.0,0.0,6.0,5.0,0.1892130821943,5.0,1.0,phase_2,go,750.0,700.0,2.0,,,,,,,,,orange,hexagon
0.0,4.0,4.0,0.0,5.0,5.0,572.325324639678,5.0,1.0,phase_2,go,750.0,700.0,1.0,,,,,,,,,white,diamond
0.0,3.0,3.0,0.0,5.0,5.0,928.5254161804914,5.0,1.0,phase_2,go,750.0,700.0,1.0,,,,,,,,,green,triangle
0.0,7.0,3.0,1.0,5.0,0.0,0.0,5.0,1.0,phase_2,stop,750.0,700.0,4.0,,,,,,,,,blue,square
0.0,2.0,2.0,0.0,5.0,5.0,535.0571479648352,5.0,1.0,phase_2,go,800.0,700.0,1.0,,,,,,,,,orange,hexagon
0.0,7.0,3.0,1.0,6.0,0.0,0.0,5.0,1.0,phase_2,stop,800.0,700.0,4.0,,,,,,,,,blue,square
0.0,5.0,1.0,1.0,5.0,5.0,743.8696436583996,5.0,1.0,phase_2,stop,800.0,750.0,3.0,,,,,,,,,yellow,I
0.0,5.0,1.0,1.0,5.0,5.0,782.471189275384,5.0,1.0,phase_2,stop,750.0,750.0,3.0,,,,,,,,,yellow,I
0.0,5.0,1.0,1.0,5.0,5.0,1007.6888091862202,5.0,1.0,phase_2,go,700.0,750.0,1.0,,,,,,,,,yellow,I
0.0,2.0,2.0,0.0,6.0,6.0,580.1619179546833,5.0,1.0,phase_2,go,700.0,750.0,1.0,,,,,,,,,orange,hexagon
0.0,2.0,2.0,0.0,5.0,5.0,326.0933328419924,5.0,1.0,phase_2,go,700.0,750.0,1.0,,,,,,,,,orange,hexagon
0.0,7.0,3.0,1.0,5.0,0.0,0.0,5.0,1.0,phase_2,stop,700.0,750.0,4.0,,,,,,,,,blue,square
0.0,6.0,2.0,1.0,6.0,6.0,1165.2846988290548,5.0,1.0,phase_2,go,750.0,750.0,1.0,,,,,,,,,magenta,flipped triangle
0.0,3.0,3.0,0.0,6.0,6.0,682.437876239419,5.0,1.0,phase_2,go,750.0,750.0,1.0,,,,,,,,,green,triangle
0.0,4.0,4.0,0.0,6.0,6.0,556.7874033004045,5.0,1.0,phase_2,go,750.0,750.0,1.0,,,,,,,,,white,diamond
0.0,8.0,4.0,1.0,5.0,0.0,0.0,5.0,1.0,phase_2,stop,750.0,750.0,4.0,,,,,,,,,cyan,cross
0.0,8.0,4.0,1.0,6.0,0.0,0.0,5.0,1.0,phase_2,stop,800.0,750.0,4.0,,,,,,,,,cyan,cross
0.0,1.0,1.0,0.0,5.0,5.0,496.29314430058,5.0,1.0,phase_2,go,800.0,800.0,1.0,,,,,,,,,gray,circle
0.0,6.0,2.0,1.0,6.0,6.0,776.7612598836422,5.0,1.0,phase_2,go,800.0,800.0,1.0,,,,,,,,,magenta,flipped triangle
0.0,8.0,4.0,1.0,5.0,5.0,1371.1964134126902,5.0,1.0,phase_2,go,800.0,800.0,1.0,,,,,,,,,cyan,cross
0.0,7.0,3.0,1.0,5.0,0.0,0.0,5.0,1.0,phase_2,stop,800.0,800.0,4.0,,,,,,,,,blue,square
0.0,2.0,2.0,0.0,6.0,6.0,479.9599926918745,5.0,1.0,phase_2,go,850.0,800.0,1.0,,,,,,,,,orange,hexagon
0.0,8.0,4.0,1.0,6.0,6.0,886.2223867326975,5.0,1.0,phase_2,go,850.0,800.0,1.0,,,,,,,,,cyan,cross
0.0,1.0,1.0,0.0,5.0,5.0,517.1927642077208,5.0,1.0,phase_2,go,850.0,800.0,1.0,,,,,,,,,gray,circle
0.0,1.0,1.0,0.0,6.0,6.0,510.1998206228018,5.0,1.0,phase_2,go,850.0,800.0,1.0,,,,,,,,,gray,circle
0.0,1.0,1.0,0.0,6.0,6.0,523.3950559049845,5.0,1.0,phase_2,go,850.0,800.0,1.0,,,,,,,,,gray,circle
0.0,3.0,3.0,0.0,6.0,6.0,587.0212651789188,5.0,1.0,phase_2,go,850.0,800.0,1.0,,,,,,,,,green,triangle
0.0,8.0,4.0,1.0,5.0,0.0,0.0,6.0,1.0,phase_2,stop,850.0,800.0,4.0,,,,,,,,,cyan,cross
0.0,2.0,2.0,0.0,6.0,6.0,395.4140283167362,6.0,1.0,phase_2,go,900.0,800.0,1.0,,,,,,,,,orange,hexagon
0.0,8.0,4.0,1.0,6.0,6.0,653.1526502221823,6.0,1.0,phase_2,go,900.0,800.0,1.0,,,,,,,,,cyan,cross
0.0,3.0,3.0,0.0,5.0,5.0,539.7536847740412,6.0,1.0,phase_2,go,900.0,800.0,1.0,,,,,,,,,green,triangle
0.0,8.0,4.0,1.0,6.0,6.0,363.6909984052181,6.0,1.0,phase_2,go,900.0,800.0,1.0,,,,,,,,,cyan,cross
0.0,1.0,1.0,0.0,6.0,6.0,564.44251537323,6.0,1.0,phase_2,go,900.0,800.0,1.0,,,,,,,,,gray,circle
0.0,3.0,3.0,0.0,5.0,5.0,532.7100399881601,6.0,1.0,phase_2,go,900.0,800.0,1.0,,,,,,,,,green,triangle
0.0,3.0,3.0,0.0,5.0,5.0,546.1392346769571,6.0,1.0,phase_2,go,900.0,800.0,1.0,,,,,,,,,green,triangle
0.0,2.0,2.0,0.0,6.0,6.0,465.2096852660179,6.0,1.0,phase_2,go,900.0,800.0,1.0,,,,,,,,,orange,hexagon
0.0,8.0,4.0,1.0,5.0,5.0,655.7095311582088,6.0,1.0,phase_2,stop,900.0,800.0,3.0,,,,,,,,,cyan,cross
0.0,8.0,4.0,1.0,6.0,0.0,0.0,6.0,1.0,phase_2,stop,850.0,800.0,4.0,,,,,,,,,cyan,cross
0.0,4.0,4.0,0.0,5.0,5.0,553.1683880835772,6.0,1.0,phase_2,go,850.0,850.0,1.0,,,,,,,,,white,diamond
0.0,5.0,1.0,1.0,5.0,5.0,791.3749180734158,6.0,1.0,phase_2,stop,850.0,850.0,3.0,,,,,,,,,yellow,I
0.0,2.0,2.0,0.0,5.0,5.0,567.223310470581,6.0,1.0,phase_2,go,800.0,850.0,1.0,,,,,,,,,orange,hexagon
0.0,2.0,2.0,0.0,5.0,5.0,533.7454695254564,6.0,1.0,phase_2,go,800.0,850.0,1.0,,,,,,,,,orange,hexagon
0.0,1.0,1.0,0.0,5.0,5.0,670.1153889298439,6.0,1.0,phase_2,go,800.0,850.0,1.0,,,,,,,,,gray,circle
0.0,1.0,1.0,0.0,6.0,6.0,499.6525347232818,6.0,1.0,phase_2,go,800.0,850.0,1.0,,,,,,,,,gray,circle
0.0,8.0,4.0,1.0,6.0,6.0,363.4882234036922,6.0,1.0,phase_2,stop,800.0,850.0,3.0,,,,,,,,,cyan,cross
0.0,4.0,4.0,0.0,6.0,6.0,541.0772562026978,6.0,1.0,phase_2,go,800.0,800.0,1.0,,,,,,,,,white,diamond
0.0,3.0,3.0,0.0,6.0,6.0,771.5710513293743,6.0,1.0,phase_2,go,800.0,800.0,1.0,,,,,,,,,green,triangle
0.0,6.0,2.0,1.0,6.0,6.0,850.0718288123608,6.0,1.0,phase_2,stop,800.0,800.0,3.0,,,,,,,,,magenta,flipped triangle
0.0,6.0,2.0,1.0,5.0,5.0,900.0468533486128,6.0,1.0,phase_2,stop,800.0,750.0,3.0,,,,,,,,,magenta,flipped triangle
0.0,3.0,3.0,0.0,5.0,5.0,627.7609653770924,6.0,1.0,phase_2,go,750.0,750.0,1.0,,,,,,,,,green,triangle
0.0,3.0,3.0,0.0,5.0,5.0,591.3627650588751,6.0,1.0,phase_2,go,750.0,750.0,1.0,,,,,,,,,green,triangle
0.0,6.0,2.0,1.0,5.0,5.0,921.4489087462424,6.0,1.0,phase_2,go,750.0,750.0,1.0,,,,,,,,,magenta,flipped triangle
0.0,5.0,1.0,1.0,6.0,6.0,1000.7522460073233,6.0,1.0,phase_2,go,750.0,750.0,1.0,,,,,,,,,yellow,I
0.0,8.0,4.0,1.0,5.0,0.0,0.0,6.0,1.0,phase_2,stop,750.0,750.0,4.0,,,,,,,,,cyan,cross
0.0,6.0,2.0,1.0,5.0,5.0,1158.0392606556416,6.0,1.0,phase_2,stop,800.0,750.0,3.0,,,,,,,,,magenta,flipped triangle
0.0,7.0,3.0,1.0,5.0,5.0,1253.2225530594587,6.0,1.0,phase_2,go,750.0,750.0,1.0,,,,,,,,,blue,square
0.0,4.0,4.0,0.0,6.0,6.0,604.7807410359383,6.0,1.0,phase_2,go,750.0,750.0,1.0,,,,,,,,,white,diamond
0.0,7.0,3.0,1.0,5.0,0.0,0.0,6.0,1.0,phase_2,stop,750.0,750.0,4.0,,,,,,,,,blue,square
0.0,7.0,3.0,1.0,6.0,0.0,0.0,6.0,1.0,phase_2,stop,800.0,750.0,4.0,,,,,,,,,blue,square
0.0,7.0,3.0,1.0,5.0,0.0,0.0,6.0,1.0,phase_2,stop,800.0,800.0,4.0,,,,,,,,,blue,square
0.0,8.0,4.0,1.0,6.0,6.0,1020.3933883458376,6.0,1.0,phase_2,go,850.0,800.0,1.0,,,,,,,,,cyan,cross
0.0,5.0,1.0,1.0,5.0,0.0,0.0,6.0,1.0,phase_2,stop,850.0,800.0,4.0,,,,,,,,,yellow,I
0.0,3.0,3.0,0.0,5.0,5.0,1129.6730656176803,6.0,1.0,phase_2,go,900.0,800.0,1.0,,,,,,,,,green,triangle
0.0,1.0,1.0,0.0,6.0,6.0,777.491407468915,7.0,1.0,phase_2,go,900.0,800.0,1.0,,,,,,,,,gray,circle
0.0,3.0,3.0,0.0,6.0,6.0,435.81722676754,7.0,1.0,phase_2,go,900.0,800.0,1.0,,,,,,,,,green,triangle
0.0,7.0,3.0,1.0,5.0,5.0,571.4249182492495,7.0,1.0,phase_2,go,900.0,800.0,1.0,,,,,,,,,blue,square
0.0,8.0,4.0,1.0,6.0,6.0,920.8921603858472,7.0,1.0,phase_2,go,900.0,800.0,1.0,,,,,,,,,cyan,cross
0.0,8.0,4.0,1.0,6.0,6.0,697.0419064164162,7.0,1.0,phase_2,stop,900.0,800.0,3.0,,,,,,,,,cyan,cross
0.0,8.0,4.0,1.0,5.0,0.0,0.0,7.0,1.0,phase_2,stop,900.0,750.0,4.0,,,,,,,,,cyan,cross
0.0,6.0,2.0,1.0,6.0,6.0,840.9680314362049,7.0,1.0,phase_2,stop,950.0,750.0,3.0,,,,,,,,,magenta,flipped triangle
0.0,3.0,3.0,0.0,6.0,6.0,1071.9224829226732,7.0,1.0,phase_2,go,950.0,700.0,1.0,,,,,,,,,green,triangle
0.0,3.0,3.0,0.0,6.0,6.0,396.9719670712948,7.0,1.0,phase_2,go,950.0,700.0,1.0,,,,,,,,,green,triangle
0.0,2.0,2.0,0.0,6.0,6.0,351.4453656971454,7.0,1.0,phase_2,go,950.0,700.0,1.0,,,,,,,,,orange,hexagon
0.0,1.0,1.0,0.0,6.0,6.0,584.3717027455568,7.0,1.0,phase_2,go,950.0,700.0,1.0,,,,,,,,,gray,circle
0.0,4.0,4.0,0.0,6.0,6.0,460.9492309391498,7.0,1.0,phase_2,go,950.0,700.0,1.0,,,,,,,,,white,diamond
0.0,5.0,1.0,1.0,6.0,0.0,0.0,7.0,1.0,phase_2,stop,950.0,700.0,4.0,,,,,,,,,yellow,I
0.0,7.0,3.0,1.0,6.0,6.0,1283.4050208330154,7.0,1.0,phase_2,go,950.0,750.0,1.0,,,,,,,,,blue,square
0.0,5.0,1.0,1.0,5.0,5.0,1002.2715553641319,7.0,1.0,phase_2,stop,950.0,750.0,3.0,,,,,,,,,yellow,I
0.0,3.0,3.0,0.0,6.0,6.0,689.6837316453457,7.0,1.0,phase_2,go,900.0,750.0,1.0,,,,,,,,,green,triangle
0.0,6.0,2.0,1.0,5.0,5.0,1096.452435478568,7.0,1.0,phase_2,go,900.0,750.0,1.0,,,,,,,,,magenta,flipped triangle
0.0,1.0,1.0,0.0,6.0,6.0,516.0509496927261,7.0,1.0,phase_2,go,900.0,750.0,1.0,,,,,,,,,gray,circle
0.0,1.0,1.0,0.0,6.0,6.0,672.2839530557394,7.0,1.0,phase_2,go,900.0,750.0,1.0,,,,,,,,,gray,circle
0.0,6.0,2.0,1.0,6.0,6.0,601.094139739871,7.0,1.0,phase_2,stop,900.0,750.0,3.0,,,,,,,,,magenta,flipped triangle
0.0,1.0,1.0,0.0,5.0,5.0,504.55283001065254,7.0,1.0,phase_2,go,900.0,700.0,1.0,,,,,,,,,gray,circle
0.0,8.0,4.0,1.0,5.0,0.0,0.0,7.0,1.0,phase_2,stop,900.0,700.0,4.0,,,,,,,,,cyan,cross
0.0,5.0,1.0,1.0,6.0,0.0,0.0,7.0,1.0,phase_2,stop,950.0,700.0,4.0,,,,,,,,,yellow,I
0.0,2.0,2.0,0.0,5.0,5.0,789.0695799142122,7.0,1.0,phase_2,go,950.0,750.0,1.0,,,,,,,,,orange,hexagon
0.0,6.0,2.0,1.0,5.0,5.0,908.2668591290712,7.0,1.0,phase_2,go,950.0,750.0,1.0,,,,,,,,,magenta,flipped triangle
0.0,7.0,3.0,1.0,5.0,5.0,1062.411192804575,7.0,1.0,phase_2,go,950.0,750.0,1.0,,,,,,,,,blue,square
0.0,4.0,4.0,0.0,5.0,5.0,630.4792743176222,7.0,1.0,phase_2,go,950.0,750.0,1.0,,,,,,,,,white,diamond
0.0,2.0,2.0,0.0,5.0,5.0,590.8065028488636,7.0,1.0,phase_2,go,950.0,750.0,1.0,,,,,,,,,orange,hexagon
0.0,8.0,4.0,1.0,5.0,5.0,1019.9975147843361,7.0,1.0,phase_2,stop,950.0,750.0,3.0,,,,,,,,,cyan,cross
0.0,4.0,4.0,0.0,6.0,6.0,580.6783214211464,7.0,1.0,phase_2,go,900.0,750.0,1.0,,,,,,,,,white,diamond
0.0,1.0,1.0,0.0,5.0,5.0,524.855324998498,7.0,1.0,phase_2,go,900.0,750.0,1.0,,,,,,,,,gray,circle
0.0,6.0,2.0,1.0,6.0,6.0,738.8730105012655,7.0,1.0,phase_2,go,900.0,750.0,1.0,,,,,,,,,magenta,flipped triangle
0.0,6.0,2.0,1.0,6.0,6.0,472.7043025195598,7.0,1.0,phase_2,stop,900.0,750.0,3.0,,,,,,,,,magenta,flipped triangle
0.0,3.0,3.0,0.0,5.0,5.0,647.8524506092072,7.0,1.0,phase_2,go,900.0,700.0,1.0,,,,,,,,,green,triangle
0.0,4.0,4.0,0.0,6.0,6.0,609.9839359521866,7.0,1.0,phase_2,go,900.0,700.0,1.0,,,,,,,,,white,diamond
0.0,4.0,4.0,0.0,5.0,5.0,534.1400615870953,7.0,1.0,phase_2,go,900.0,700.0,1.0,,,,,,,,,white,diamond
0.0,7.0,3.0,1.0,6.0,0.0,0.0,8.0,1.0,phase_2,stop,900.0,700.0,4.0,,,,,,,,,blue,square
0.0,2.0,2.0,0.0,6.0,6.0,620.0330797582865,8.0,1.0,phase_2,go,900.0,750.0,1.0,,,,,,,,,orange,hexagon
0.0,3.0,3.0,0.0,5.0,5.0,587.8644250333309,8.0,1.0,phase_2,go,900.0,750.0,1.0,,,,,,,,,green,triangle
0.0,1.0,1.0,0.0,6.0,6.0,489.9118971079588,8.0,1.0,phase_2,go,900.0,750.0,1.0,,,,,,,,,gray,circle
0.0,3.0,3.0,0.0,5.0,5.0,592.3149082809687,8.0,1.0,phase_2,go,900.0,750.0,1.0,,,,,,,,,green,triangle
0.0,2.0,2.0,0.0,5.0,5.0,558.8316209614277,8.0,1.0,phase_2,go,900.0,750.0,1.0,,,,,,,,,orange,hexagon
0.0,7.0,3.0,1.0,5.0,5.0,831.9690003991127,8.0,1.0,phase_2,stop,900.0,750.0,3.0,,,,,,,,,blue,square
0.0,5.0,1.0,1.0,6.0,0.0,0.0,8.0,1.0,phase_2,stop,850.0,750.0,4.0,,,,,,,,,yellow,I
0.0,4.0,4.0,0.0,6.0,6.0,517.3789039254189,8.0,1.0,phase_2,go,850.0,800.0,1.0,,,,,,,,,white,diamond
0.0,6.0,2.0,1.0,5.0,5.0,606.9578975439072,8.0,1.0,phase_2,stop,850.0,800.0,3.0,,,,,,,,,magenta,flipped triangle
0.0,1.0,1.0,0.0,5.0,5.0,571.6493427753448,8.0,1.0,phase_2,go,800.0,800.0,1.0,,,,,,,,,gray,circle
0.0,7.0,3.0,1.0,6.0,6.0,491.5666077286005,8.0,1.0,phase_2,go,800.0,800.0,1.0,,,,,,,,,blue,square
0.0,1.0,1.0,0.0,5.0,5.0,517.8082920610905,8.0,1.0,phase_2,go,800.0,800.0,1.0,,,,,,,,,gray,circle
0.0,7.0,3.0,1.0,6.0,6.0,572.2114723175764,8.0,1.0,phase_2,stop,800.0,800.0,3.0,,,,,,,,,blue,square
0.0,8.0,4.0,1.0,6.0,0.0,0.0,8.0,1.0,phase_2,stop,800.0,750.0,4.0,,,,,,,,,cyan,cross
0.0,4.0,4.0,0.0,6.0,6.0,580.4345328360796,8.0,1.0,phase_2,go,800.0,800.0,1.0,,,,,,,,,white,diamond
0.0,7.0,3.0,1.0,6.0,6.0,1155.1203802227974,8.0,1.0,phase_2,stop,800.0,800.0,3.0,,,,,,,,,blue,square
0.0,5.0,1.0,1.0,6.0,6.0,1195.584924891591,8.0,1.0,phase_2,go,800.0,750.0,1.0,,,,,,,,,yellow,I
0.0,7.0,3.0,1.0,6.0,0.0,0.0,8.0,1.0,phase_2,stop,800.0,750.0,4.0,,,,,,,,,blue,square
0.0,4.0,4.0,0.0,5.0,5.0,559.0318907052279,8.0,1.0,phase_2,go,800.0,800.0,1.0,,,,,,,,,white,diamond
0.0,3.0,3.0,0.0,5.0,5.0,416.3310248404741,8.0,1.0,phase_2,go,800.0,800.0,1.0,,,,,,,,,green,triangle
0.0,3.0,3.0,0.0,5.0,5.0,365.9566640853882,8.0,1.0,phase_2,go,800.0,800.0,1.0,,,,,,,,,green,triangle
0.0,6.0,2.0,1.0,6.0,0.0,0.0,8.0,1.0,phase_2,stop,800.0,800.0,4.0,,,,,,,,,magenta,flipped triangle
0.0,2.0,2.0,0.0,6.0,6.0,503.55747155845165,8.0,1.0,phase_2,go,800.0,850.0,1.0,,,,,,,,,orange,hexagon
0.0,4.0,4.0,0.0,5.0,5.0,360.2905739098787,8.0,1.0,phase_2,go,800.0,850.0,1.0,,,,,,,,,white,diamond
0.0,7.0,3.0,1.0,6.0,6.0,317.4372036010027,8.0,1.0,phase_2,stop,800.0,850.0,3.0,,,,,,,,,blue,square
0.0,2.0,2.0,0.0,6.0,6.0,611.1554987728596,8.0,1.0,phase_2,go,800.0,800.0,1.0,,,,,,,,,orange,hexagon
0.0,5.0,1.0,1.0,6.0,6.0,878.6961603909731,8.0,1.0,phase_2,stop,800.0,800.0,3.0,,,,,,,,,yellow,I
0.0,4.0,4.0,0.0,5.0,5.0,458.5807491093874,8.0,1.0,phase_2,go,800.0,750.0,1.0,,,,,,,,,white,diamond
0.0,8.0,4.0,1.0,6.0,0.0,0.0,8.0,1.0,phase_2,stop,800.0,750.0,4.0,,,,,,,,,cyan,cross
0.0,3.0,3.0,0.0,5.0,5.0,773.1381896883249,8.0,1.0,phase_2,go,800.0,800.0,1.0,,,,,,,,,green,triangle
0.0,6.0,2.0,1.0,5.0,5.0,136.5800853818655,8.0,1.0,phase_2,stop,800.0,800.0,3.0,,,,,,,,,magenta,flipped triangle
0.0,7.0,3.0,1.0,5.0,5.0,1112.1502108871937,8.0,1.0,phase_2,go,750.0,800.0,1.0,,,,,,,,,blue,square
0.0,1.0,1.0,0.0,5.0,5.0,530.7742357254028,8.0,1.0,phase_2,go,750.0,800.0,1.0,,,,,,,,,gray,circle
0.0,8.0,4.0,1.0,5.0,5.0,890.7912001013756,8.0,1.0,phase_2,stop,750.0,800.0,3.0,,,,,,,,,cyan,cross
0.0,7.0,3.0,1.0,6.0,6.0,1040.038077160716,8.0,1.0,phase_2,go,700.0,800.0,1.0,,,,,,,,,blue,square
0.0,7.0,3.0,1.0,7.0,4.0,1031.7649729549885,1.0,1.0,phase_3,,,,,132.0,3.0,176.0,220.0,88.0,132.0,44.0,264.0,blue,square
0.0,6.0,2.0,1.0,7.0,2.0,796.6706790030003,1.0,1.0,phase_3,,,,,78.0,2.0,117.0,78.0,156.0,234.0,39.0,195.0,magenta,flipped triangle
0.0,6.0,2.0,1.0,7.0,3.0,2092.0404568314552,1.0,1.0,phase_3,,,,,44.0,1.0,220.0,88.0,44.0,132.0,176.0,264.0,magenta,flipped triangle
0.0,2.0,2.0,0.0,7.0,6.0,1484.41412858665,1.0,1.0,phase_3,,,,,204.0,6.0,68.0,136.0,170.0,34.0,102.0,204.0,orange,hexagon
0.0,5.0,1.0,1.0,7.0,5.0,1149.7356444597244,1.0,1.0,phase_3,,,,,34.0,1.0,102.0,136.0,204.0,170.0,34.0,68.0,yellow,I
0.0,3.0,3.0,0.0,7.0,1.0,553.02176438272,1.0,1.0,phase_3,,,,,34.0,1.0,34.0,204.0,136.0,102.0,170.0,68.0,green,triangle
0.0,7.0,3.0,1.0,7.0,4.0,1377.8276443481443,1.0,1.0,phase_3,,,,,49.0,1.0,245.0,294.0,196.0,49.0,98.0,147.0,blue,square
0.0,7.0,3.0,1.0,7.0,3.0,1763.73191177845,1.0,1.0,phase_3,,,,,108.0,2.0,270.0,54.0,108.0,216.0,162.0,324.0,blue,square
0.0,3.0,3.0,0.0,7.0,6.0,3403.602344915271,1.0,1.0,phase_3,,,,,294.0,6.0,245.0,196.0,147.0,98.0,49.0,294.0,green,triangle
0.0,2.0,2.0,0.0,7.0,1.0,4599.9305341392765,1.0,1.0,phase_3,,,,,270.0,5.0,270.0,324.0,54.0,108.0,216.0,162.0,orange,hexagon
0.0,3.0,3.0,0.0,7.0,5.0,2334.027843549848,1.0,1.0,phase_3,,,,,195.0,5.0,117.0,234.0,78.0,156.0,195.0,39.0,green,triangle
0.0,4.0,4.0,0.0,7.0,6.0,2254.9087312072515,1.0,1.0,phase_3,,,,,132.0,3.0,176.0,220.0,44.0,264.0,88.0,132.0,white,diamond
0.0,4.0,4.0,0.0,7.0,1.0,877.5162100791931,1.0,1.0,phase_3,,,,,216.0,4.0,216.0,108.0,162.0,54.0,324.0,270.0,white,diamond
0.0,1.0,1.0,0.0,7.0,4.0,4127.281069755554,1.0,1.0,phase_3,,,,,220.0,5.0,132.0,264.0,176.0,220.0,88.0,44.0,gray,circle
0.0,6.0,2.0,1.0,7.0,2.0,3580.050941556692,1.0,1.0,phase_3,,,,,54.0,1.0,270.0,54.0,108.0,162.0,324.0,216.0,magenta,flipped triangle
0.0,7.0,3.0,1.0,7.0,6.0,2282.926447689533,1.0,1.0,phase_3,,,,,54.0,1.0,270.0,108.0,162.0,324.0,216.0,54.0,blue,square
0.0,1.0,1.0,0.0,7.0,1.0,3093.340216204524,1.0,1.0,phase_3,,,,,102.0,3.0,102.0,170.0,34.0,68.0,204.0,136.0,gray,circle
0.0,7.0,3.0,1.0,7.0,2.0,4077.007945626974,1.0,1.0,phase_3,,,,,156.0,4.0,195.0,156.0,39.0,78.0,234.0,117.0,blue,square
0.0,3.0,3.0,0.0,7.0,4.0,1977.1594926714895,1.0,1.0,phase_3,,,,,147.0,3.0,245.0,98.0,196.0,147.0,49.0,294.0,green,triangle
0.0,8.0,4.0,1.0,7.0,1.0,746.8575462698936,1.0,2.0,phase_3,,,,,176.0,4.0,176.0,220.0,264.0,88.0,44.0,132.0,cyan,cross
0.0,8.0,4.0,1.0,7.0,5.0,612.3874634504318,2.0,1.0,phase_3,,,,,245.0,5.0,49.0,147.0,294.0,196.0,245.0,98.0,cyan,cross
0.0,1.0,1.0,0.0,7.0,3.0,1158.2764070481062,2.0,1.0,phase_3,,,,,88.0,2.0,132.0,44.0,88.0,220.0,264.0,176.0,gray,circle
0.0,5.0,1.0,1.0,7.0,6.0,1121.6427702456713,2.0,1.0,phase_3,,,,,54.0,1.0,270.0,108.0,324.0,216.0,162.0,54.0,yellow,I
0.0,6.0,2.0,1.0,7.0,1.0,666.6370462626219,2.0,1.0,phase_3,,,,,196.0,4.0,196.0,147.0,294.0,98.0,49.0,245.0,magenta,flipped triangle
0.0,5.0,1.0,1.0,7.0,4.0,778.3961687237024,2.0,1.0,phase_3,,,,,78.0,2.0,39.0,234.0,195.0,78.0,156.0,117.0,yellow,I
0.0,1.0,1.0,0.0,7.0,2.0,980.6733950972556,2.0,1.0,phase_3,,,,,39.0,1.0,156.0,39.0,78.0,234.0,117.0,195.0,gray,circle
0.0,4.0,4.0,0.0,7.0,6.0,1269.2041397094729,2.0,1.0,phase_3,,,,,117.0,3.0,39.0,234.0,156.0,195.0,78.0,117.0,white,diamond
0.0,5.0,1.0,1.0,7.0,4.0,833.7829485535622,2.0,1.0,phase_3,,,,,176.0,4.0,132.0,264.0,44.0,176.0,88.0,220.0,yellow,I
0.0,1.0,1.0,0.0,7.0,3.0,1057.994332164526,2.0,1.0,phase_3,,,,,162.0,3.0,108.0,54.0,162.0,270.0,324.0,216.0,gray,circle
0.0,5.0,1.0,1.0,7.0,2.0,776.3201519846916,2.0,1.0,phase_3,,,,,44.0,1.0,264.0,44.0,88.0,176.0,132.0,220.0,yellow,I
0.0,8.0,4.0,1.0,7.0,3.0,1684.73600782454,2.0,1.0,phase_3,,,,,324.0,6.0,108.0,54.0,324.0,270.0,162.0,216.0,cyan,cross
0.0,7.0,3.0,1.0,7.0,6.0,1542.110973969102,2.0,1.0,phase_3,,,,,78.0,2.0,117.0,156.0,195.0,234.0,39.0,78.0,blue,square
0.0,6.0,2.0,1.0,7.0,3.0,1519.5103790611029,2.0,1.0,phase_3,,,,,102.0,3.0,204.0,68.0,102.0,136.0,170.0,34.0,magenta,flipped triangle
0.0,3.0,3.0,0.0,7.0,1.0,1222.410747781396,2.0,1.0,phase_3,,,,,162.0,3.0,162.0,216.0,108.0,324.0,54.0,270.0,green,triangle
0.0,2.0,2.0,0.0,7.0,1.0,1111.465658992529,2.0,1.0,phase_3,,,,,294.0,6.0,294.0,147.0,196.0,98.0,245.0,49.0,orange,hexagon
0.0,4.0,4.0,0.0,7.0,5.0,1065.0981292128563,2.0,1.0,phase_3,,,,,68.0,2.0,102.0,170.0,204.0,34.0,68.0,136.0,white,diamond
0.0,3.0,3.0,0.0,7.0,4.0,1068.5508251190186,2.0,1.0,phase_3,,,,,132.0,3.0,220.0,44.0,88.0,132.0,176.0,264.0,green,triangle
0.0,6.0,2.0,1.0,7.0,1.0,1268.5177847743034,2.0,1.0,phase_3,,,,,216.0,4.0,216.0,270.0,54.0,108.0,162.0,324.0,magenta,flipped triangle
0.0,8.0,4.0,1.0,7.0,3.0,2037.0780527591705,2.0,1.0,phase_3,,,,,102.0,3.0,68.0,136.0,102.0,34.0,170.0,204.0,cyan,cross
0.0,2.0,2.0,0.0,7.0,1.0,974.2195811122656,2.0,1.0,phase_3,,,,,324.0,6.0,324.0,216.0,270.0,54.0,108.0,162.0,orange,hexagon
0.0,8.0,4.0,1.0,7.0,4.0,944.4385636597872,3.0,1.0,phase_3,,,,,234.0,6.0,156.0,195.0,78.0,234.0,39.0,117.0,cyan,cross
0.0,1.0,1.0,0.0,7.0,2.0,2008.7061189115047,3.0,1.0,phase_3,,,,,54.0,1.0,270.0,54.0,108.0,324.0,216.0,162.0,gray,circle
0.0,8.0,4.0,1.0,7.0,4.0,1498.4260089695454,3.0,1.0,phase_3,,,,,170.0,5.0,34.0,68.0,102.0,170.0,136.0,204.0,cyan,cross
0.0,6.0,2.0,1.0,7.0,1.0,1403.631515800953,3.0,1.0,phase_3,,,,,98.0,2.0,98.0,147.0,49.0,196.0,294.0,245.0,magenta,flipped triangle
0.0,7.0,3.0,1.0,7.0,5.0,872.326074168086,3.0,1.0,phase_3,,,,,220.0,5.0,264.0,88.0,44.0,132.0,220.0,176.0,blue,square
0.0,1.0,1.0,0.0,7.0,5.0,2008.0893784761429,3.0,1.0,phase_3,,,,,39.0,1.0,195.0,78.0,117.0,156.0,39.0,234.0,gray,circle
0.0,4.0,4.0,0.0,7.0,1.0,1136.6562321782112,3.0,1.0,phase_3,,,,,49.0,1.0,49.0,196.0,147.0,245.0,98.0,294.0,white,diamond
0.0,3.0,3.0,0.0,7.0,5.0,1306.0510661453009,3.0,1.0,phase_3,,,,,78.0,2.0,195.0,39.0,117.0,156.0,78.0,234.0,green,triangle
0.0,5.0,1.0,1.0,7.0,3.0,1506.349382922053,3.0,1.0,phase_3,,,,,39.0,1.0,234.0,78.0,39.0,117.0,156.0,195.0,yellow,I
0.0,8.0,4.0,1.0,7.0,1.0,1342.1796187758446,3.0,1.0,phase_3,,,,,39.0,1.0,39.0,234.0,195.0,156.0,117.0,78.0,cyan,cross
0.0,5.0,1.0,1.0,7.0,2.0,1136.5501917898655,3.0,1.0,phase_3,,,,,34.0,1.0,102.0,34.0,204.0,136.0,170.0,68.0,yellow,I
0.0,4.0,4.0,0.0,7.0,2.0,1408.6854606866837,3.0,1.0,phase_3,,,,,49.0,1.0,147.0,49.0,294.0,98.0,245.0,196.0,white,diamond
0.0,5.0,1.0,1.0,7.0,3.0,1232.8523471951485,3.0,1.0,phase_3,,,,,54.0,1.0,216.0,162.0,54.0,270.0,108.0,324.0,yellow,I
0.0,6.0,2.0,1.0,7.0,5.0,1651.846742257476,3.0,1.0,phase_3,,,,,156.0,4.0,78.0,195.0,39.0,234.0,156.0,117.0,magenta,flipped triangle
0.0,7.0,3.0,1.0,7.0,1.0,1374.557413160801,3.0,1.0,phase_3,,,,,204.0,6.0,204.0,34.0,136.0,68.0,102.0,170.0,blue,square
0.0,2.0,2.0,0.0,7.0,3.0,1360.163388773799,3.0,1.0,phase_3,,,,,264.0,6.0,44.0,220.0,264.0,176.0,132.0,88.0,orange,hexagon
0.0,8.0,4.0,1.0,7.0,1.0,1591.4645288139582,3.0,1.0,phase_3,,,,,44.0,1.0,44.0,264.0,88.0,132.0,176.0,220.0,cyan,cross
0.0,3.0,3.0,0.0,7.0,5.0,1391.7946126312015,3.0,1.0,phase_3,,,,,68.0,2.0,34.0,102.0,136.0,204.0,68.0,170.0,green,triangle
0.0,8.0,4.0,1.0,7.0,6.0,1089.0581663697958,3.0,1.0,phase_3,,,,,98.0,2.0,294.0,147.0,196.0,49.0,245.0,98.0,cyan,cross
0.0,1.0,1.0,0.0,7.0,5.0,1140.7555788755417,3.0,1.0,phase_3,,,,,49.0,1.0,98.0,294.0,147.0,196.0,49.0,245.0,gray,circle
0.0,2.0,2.0,0.0,7.0,1.0,1060.1319577544928,4.0,1.0,phase_3,,,,,196.0,4.0,196.0,147.0,49.0,294.0,98.0,245.0,orange,hexagon
0.0,7.0,3.0,1.0,7.0,5.0,1364.6085690706968,4.0,1.0,phase_3,,,,,170.0,5.0,102.0,68.0,34.0,136.0,170.0,204.0,blue,square
0.0,4.0,4.0,0.0,7.0,2.0,1647.772679105401,4.0,1.0,phase_3,,,,,68.0,2.0,204.0,68.0,170.0,136.0,102.0,34.0,white,diamond
0.0,4.0,4.0,0.0,7.0,6.0,1483.2089878618715,4.0,1.0,phase_3,,,,,54.0,1.0,216.0,270.0,162.0,108.0,324.0,54.0,white,diamond
0.0,2.0,2.0,0.0,7.0,4.0,1073.479138314724,4.0,1.0,phase_3,,,,,204.0,6.0,170.0,34.0,136.0,204.0,68.0,102.0,orange,hexagon
0.0,6.0,2.0,1.0,7.0,5.0,1508.474724367261,4.0,1.0,phase_3,,,,,34.0,1.0,204.0,102.0,68.0,136.0,34.0,170.0,magenta,flipped triangle
0.0,7.0,3.0,1.0,7.0,5.0,1315.5301567167044,4.0,1.0,phase_3,,,,,49.0,1.0,245.0,294.0,98.0,196.0,49.0,147.0,blue,square
0.0,4.0,4.0,0.0,7.0,2.0,1636.5310084074736,4.0,1.0,phase_3,,,,,39.0,1.0,78.0,39.0,234.0,195.0,156.0,117.0,white,diamond
0.0,2.0,2.0,0.0,7.0,4.0,2214.542070403695,4.0,1.0,phase_3,,,,,234.0,6.0,39.0,117.0,195.0,234.0,78.0,156.0,orange,hexagon
0.0,2.0,2.0,0.0,7.0,3.0,1475.324634462595,4.0,1.0,phase_3,,,,,234.0,6.0,156.0,117.0,234.0,78.0,39.0,195.0,orange,hexagon
0.0,5.0,1.0,1.0,7.0,6.0,1626.8386207520962,4.0,1.0,phase_3,,,,,98.0,2.0,49.0,294.0,245.0,147.0,196.0,98.0,yellow,I
0.0,3.0,3.0,0.0,7.0,2.0,1114.3482588231564,4.0,1.0,phase_3,,,,,162.0,3.0,324.0,162.0,54.0,216.0,270.0,108.0,green,triangle
0.0,1.0,1.0,0.0,7.0,6.0,1532.214231789112,4.0,1.0,phase_3,,,,,34.0,1.0,204.0,170.0,68.0,102.0,136.0,34.0,gray,circle
0.0,1.0,1.0,0.0,7.0,6.0,991.0949002951384,4.0,1.0,phase_3,,,,,49.0,1.0,245.0,147.0,196.0,98.0,294.0,49.0,gray,circle
0.0,3.0,3.0,0.0,7.0,4.0,1574.3505042046309,4.0,1.0,phase_3,,,,,132.0,3.0,220.0,264.0,176.0,132.0,88.0,44.0,green,triangle
0.0,6.0,2.0,1.0,7.0,1.0,793.8097044825554,4.0,1.0,phase_3,,,,,88.0,2.0,88.0,44.0,176.0,132.0,220.0,264.0,magenta,flipped triangle
0.0,8.0,4.0,1.0,7.0,4.0,2220.519993454218,4.0,1.0,phase_3,,,,,270.0,5.0,162.0,216.0,108.0,270.0,324.0,54.0,cyan,cross
0.0,4.0,4.0,0.0,7.0,6.0,1042.5795875489712,4.0,1.0,phase_3,,,,,44.0,1.0,264.0,88.0,176.0,220.0,132.0,44.0,white,diamond
0.0,2.0,2.0,0.0,7.0,5.0,1357.6933145523071,4.0,1.0,phase_3,,,,,220.0,5.0,132.0,88.0,176.0,44.0,220.0,264.0,orange,hexagon
0.0,5.0,1.0,1.0,7.0,3.0,1591.4224218577149,4.0,1.0,phase_3,,,,,294.0,6.0,245.0,196.0,294.0,49.0,98.0,147.0,yellow,I
