raw_reward_magnitude,stim_reward,stepwise_reward_magnitude,paired_with_stopping,quadrant,response,reaction_time,block,num_trial_presentations,which_part,stop_signal_trial_type,left_SSD,right_SSD,accuracy,chosen_bidding_amount,chosen_bidding_level,possible_bid_1,possible_bid_2,possible_bid_3,possible_bid_4,possible_bid_5,possible_bid_6,color_text,shape_text
29.0,5.0,1.0,1.0,4.0,4.0,484.268369153142,1.0,1.0,part_1,,,,,,,,,,,,,blue,cross
186.0,7.0,3.0,1.0,4.0,4.0,412.4697037041187,1.0,1.0,part_1,,,,,,,,,,,,,yellow,hexagon
28.0,1.0,1.0,0.0,3.0,3.0,548.9869900047779,1.0,1.0,part_1,,,,,,,,,,,,,magenta,triangle
0.0,1.0,0.0,0.0,1.0,1.0,413.9534775167703,1.0,1.0,part_1,,,,,,,,,,,,,magenta,triangle
94.0,2.0,2.0,0.0,1.0,1.0,502.4359580129385,1.0,1.0,part_1,,,,,,,,,,,,,cyan,flipped triangle
382.0,8.0,4.0,1.0,4.0,4.0,534.5989167690277,1.0,1.0,part_1,,,,,,,,,,,,,orange,I
88.0,2.0,2.0,0.0,4.0,4.0,410.771757364273,1.0,1.0,part_1,,,,,,,,,,,,,cyan,flipped triangle
82.0,2.0,2.0,0.0,2.0,2.0,406.6849686205387,1.0,1.0,part_1,,,,,,,,,,,,,cyan,flipped triangle
0.0,1.0,0.0,0.0,4.0,4.0,421.0639912635088,1.0,1.0,part_1,,,,,,,,,,,,,magenta,triangle
176.0,3.0,3.0,0.0,2.0,2.0,382.2629898786545,1.0,1.0,part_1,,,,,,,,,,,,,green,circle
80.0,6.0,2.0,1.0,4.0,4.0,506.57773204147816,1.0,1.0,part_1,,,,,,,,,,,,,white,diamond
401.0,8.0,4.0,1.0,4.0,4.0,440.0401785969734,1.0,1.0,part_1,,,,,,,,,,,,,orange,I
197.0,7.0,3.0,1.0,1.0,1.0,333.7885662913322,1.0,1.0,part_1,,,,,,,,,,,,,yellow,hexagon
202.0,3.0,3.0,0.0,2.0,2.0,496.8566987663507,1.0,1.0,part_1,,,,,,,,,,,,,green,circle
396.0,8.0,4.0,1.0,1.0,1.0,477.1065600216388,1.0,1.0,part_1,,,,,,,,,,,,,orange,I
198.0,3.0,3.0,0.0,2.0,2.0,410.1790767163038,1.0,1.0,part_1,,,,,,,,,,,,,green,circle
0.0,1.0,0.0,0.0,3.0,3.0,481.1051450669765,1.0,1.0,part_1,,,,,,,,,,,,,magenta,triangle
122.0,6.0,2.0,1.0,4.0,4.0,396.399674937129,1.0,1.0,part_1,,,,,,,,,,,,,white,diamond
421.0,8.0,4.0,1.0,2.0,2.0,383.7709371000528,1.0,1.0,part_1,,,,,,,,,,,,,orange,I
221.0,7.0,3.0,1.0,2.0,2.0,407.546017318964,1.0,1.0,part_1,,,,,,,,,,,,,yellow,hexagon
382.0,4.0,4.0,0.0,1.0,1.0,411.410853266716,1.0,1.0,part_1,,,,,,,,,,,,,gray,square
186.0,7.0,3.0,1.0,2.0,2.0,353.5889498889446,1.0,1.0,part_1,,,,,,,,,,,,,yellow,hexagon
0.0,7.0,0.0,1.0,2.0,2.0,450.4339918494224,1.0,1.0,part_1,,,,,,,,,,,,,yellow,hexagon
181.0,3.0,3.0,0.0,3.0,3.0,456.6127769649029,1.0,1.0,part_1,,,,,,,,,,,,,green,circle
73.0,1.0,1.0,0.0,2.0,2.0,336.0569234937429,1.0,1.0,part_1,,,,,,,,,,,,,magenta,triangle
182.0,3.0,3.0,0.0,2.0,2.0,361.5718614310026,1.0,1.0,part_1,,,,,,,,,,,,,green,circle
53.0,1.0,1.0,0.0,4.0,4.0,425.6804399192333,1.0,1.0,part_1,,,,,,,,,,,,,magenta,triangle
40.0,1.0,1.0,0.0,4.0,4.0,356.3885632902384,1.0,1.0,part_1,,,,,,,,,,,,,magenta,triangle
0.0,5.0,0.0,1.0,4.0,4.0,393.7478605657816,1.0,1.0,part_1,,,,,,,,,,,,,blue,cross
387.0,8.0,4.0,1.0,3.0,3.0,381.4652562141418,1.0,1.0,part_1,,,,,,,,,,,,,orange,I
200.0,3.0,3.0,0.0,4.0,4.0,400.3043938428163,1.0,1.0,part_1,,,,,,,,,,,,,green,circle
384.0,8.0,4.0,1.0,2.0,2.0,319.151122123003,1.0,1.0,part_1,,,,,,,,,,,,,orange,I
88.0,6.0,2.0,1.0,3.0,3.0,353.8518194109201,1.0,1.0,part_1,,,,,,,,,,,,,white,diamond
0.0,8.0,0.0,1.0,1.0,1.0,342.7041415125131,1.0,1.0,part_1,,,,,,,,,,,,,orange,I
399.0,4.0,4.0,0.0,3.0,3.0,438.05554509162897,1.0,1.0,part_1,,,,,,,,,,,,,gray,square
379.0,4.0,4.0,0.0,4.0,4.0,425.8421063423157,1.0,1.0,part_1,,,,,,,,,,,,,gray,square
119.0,2.0,2.0,0.0,1.0,1.0,509.299423545599,1.0,1.0,part_1,,,,,,,,,,,,,cyan,flipped triangle
207.0,7.0,3.0,1.0,2.0,2.0,404.5025650411844,1.0,1.0,part_1,,,,,,,,,,,,,yellow,hexagon
218.0,7.0,3.0,1.0,2.0,2.0,342.6627572625875,1.0,1.0,part_1,,,,,,,,,,,,,yellow,hexagon
0.0,5.0,0.0,1.0,2.0,2.0,322.2303204238415,1.0,1.0,part_1,,,,,,,,,,,,,blue,cross
403.0,8.0,4.0,1.0,2.0,2.0,407.6708368957042,1.0,1.0,part_1,,,,,,,,,,,,,orange,I
0.0,2.0,0.0,0.0,4.0,4.0,391.8604981154203,1.0,1.0,part_1,,,,,,,,,,,,,cyan,flipped triangle
415.0,8.0,4.0,1.0,1.0,1.0,387.0330452919006,1.0,1.0,part_1,,,,,,,,,,,,,orange,I
111.0,6.0,2.0,1.0,1.0,1.0,375.9610541164875,1.0,1.0,part_1,,,,,,,,,,,,,white,diamond
207.0,3.0,3.0,0.0,1.0,1.0,434.0929836034775,1.0,1.0,part_1,,,,,,,,,,,,,green,circle
405.0,4.0,4.0,0.0,4.0,4.0,385.9374728053808,1.0,1.0,part_1,,,,,,,,,,,,,gray,square
0.0,2.0,0.0,0.0,1.0,1.0,371.8528430908918,1.0,1.0,part_1,,,,,,,,,,,,,cyan,flipped triangle
70.0,5.0,1.0,1.0,2.0,2.0,315.8690743148327,1.0,1.0,part_1,,,,,,,,,,,,,blue,cross
407.0,8.0,4.0,1.0,4.0,4.0,396.8495707958936,1.0,1.0,part_1,,,,,,,,,,,,,orange,I
0.0,6.0,0.0,1.0,2.0,2.0,433.3194307982921,1.0,1.0,part_1,,,,,,,,,,,,,white,diamond
393.0,4.0,4.0,0.0,1.0,1.0,434.1229293495416,1.0,1.0,part_1,,,,,,,,,,,,,gray,square
88.0,2.0,2.0,0.0,2.0,2.0,514.8912947624922,1.0,1.0,part_1,,,,,,,,,,,,,cyan,flipped triangle
405.0,8.0,4.0,1.0,3.0,3.0,467.2741591930389,1.0,1.0,part_1,,,,,,,,,,,,,orange,I
83.0,6.0,2.0,1.0,2.0,2.0,508.52187164127827,1.0,1.0,part_1,,,,,,,,,,,,,white,diamond
37.0,1.0,1.0,0.0,1.0,1.0,396.0652481764555,1.0,1.0,part_1,,,,,,,,,,,,,magenta,triangle
67.0,5.0,1.0,1.0,3.0,3.0,558.4985092282295,1.0,1.0,part_1,,,,,,,,,,,,,blue,cross
105.0,2.0,2.0,0.0,4.0,4.0,443.5052182525396,1.0,1.0,part_1,,,,,,,,,,,,,cyan,flipped triangle
208.0,7.0,3.0,1.0,4.0,4.0,393.4885654598474,1.0,1.0,part_1,,,,,,,,,,,,,yellow,hexagon
72.0,5.0,1.0,1.0,2.0,2.0,360.0981328636408,1.0,1.0,part_1,,,,,,,,,,,,,blue,cross
26.0,5.0,1.0,1.0,1.0,1.0,330.9022542089224,1.0,1.0,part_1,,,,,,,,,,,,,blue,cross
411.0,4.0,4.0,0.0,1.0,1.0,366.1039266735315,1.0,1.0,part_1,,,,,,,,,,,,,gray,square
205.0,3.0,3.0,0.0,4.0,4.0,410.8133502304554,1.0,1.0,part_1,,,,,,,,,,,,,green,circle
0.0,5.0,0.0,1.0,4.0,4.0,439.0763640403747,1.0,1.0,part_1,,,,,,,,,,,,,blue,cross
97.0,6.0,2.0,1.0,1.0,1.0,436.7417972534895,1.0,1.0,part_1,,,,,,,,,,,,,white,diamond
397.0,8.0,4.0,1.0,3.0,3.0,369.7144519537687,1.0,1.0,part_1,,,,,,,,,,,,,orange,I
208.0,7.0,3.0,1.0,1.0,1.0,367.5154242664575,1.0,1.0,part_1,,,,,,,,,,,,,yellow,hexagon
379.0,8.0,4.0,1.0,2.0,2.0,339.2823804169893,1.0,1.0,part_1,,,,,,,,,,,,,orange,I
73.0,1.0,1.0,0.0,1.0,1.0,481.705879792571,1.0,1.0,part_1,,,,,,,,,,,,,magenta,triangle
37.0,5.0,1.0,1.0,3.0,3.0,418.2465896010399,1.0,1.0,part_1,,,,,,,,,,,,,blue,cross
0.0,3.0,0.0,0.0,3.0,3.0,371.5562038123607,1.0,1.0,part_1,,,,,,,,,,,,,green,circle
41.0,5.0,1.0,1.0,3.0,3.0,461.9034733623266,1.0,1.0,part_1,,,,,,,,,,,,,blue,cross
410.0,4.0,4.0,0.0,4.0,4.0,409.3515649437904,1.0,1.0,part_1,,,,,,,,,,,,,gray,square
40.0,5.0,1.0,1.0,2.0,2.0,421.075377613306,1.0,1.0,part_1,,,,,,,,,,,,,blue,cross
0.0,7.0,0.0,1.0,3.0,3.0,363.9116063714027,1.0,1.0,part_1,,,,,,,,,,,,,yellow,hexagon
0.0,4.0,0.0,0.0,2.0,2.0,367.5860855728388,1.0,1.0,part_1,,,,,,,,,,,,,gray,square
186.0,3.0,3.0,0.0,4.0,4.0,379.3434631079435,1.0,1.0,part_1,,,,,,,,,,,,,green,circle
201.0,3.0,3.0,0.0,3.0,3.0,400.3471378237009,1.0,1.0,part_1,,,,,,,,,,,,,green,circle
391.0,4.0,4.0,0.0,3.0,3.0,358.8440287858248,1.0,1.0,part_1,,,,,,,,,,,,,gray,square
118.0,2.0,2.0,0.0,1.0,1.0,385.734299197793,1.0,1.0,part_1,,,,,,,,,,,,,cyan,flipped triangle
218.0,3.0,3.0,0.0,3.0,3.0,342.5803054124117,1.0,1.0,part_1,,,,,,,,,,,,,green,circle
33.0,1.0,1.0,0.0,3.0,3.0,334.3902509659529,1.0,1.0,part_1,,,,,,,,,,,,,magenta,triangle
106.0,2.0,2.0,0.0,2.0,2.0,306.53822608292097,1.0,1.0,part_1,,,,,,,,,,,,,cyan,flipped triangle
40.0,1.0,1.0,0.0,4.0,4.0,405.82946687936777,1.0,1.0,part_1,,,,,,,,,,,,,magenta,triangle
0.0,8.0,0.0,1.0,1.0,1.0,392.7573058754205,1.0,1.0,part_1,,,,,,,,,,,,,orange,I
0.0,6.0,0.0,1.0,1.0,1.0,367.9124414920807,1.0,1.0,part_1,,,,,,,,,,,,,white,diamond
0.0,3.0,0.0,0.0,2.0,2.0,354.5695133507252,1.0,1.0,part_1,,,,,,,,,,,,,green,circle
394.0,4.0,4.0,0.0,4.0,4.0,367.8823169320822,1.0,1.0,part_1,,,,,,,,,,,,,gray,square
99.0,2.0,2.0,0.0,3.0,3.0,431.9218508899212,1.0,1.0,part_1,,,,,,,,,,,,,cyan,flipped triangle
0.0,3.0,0.0,0.0,3.0,3.0,393.1781649589538,1.0,1.0,part_1,,,,,,,,,,,,,green,circle
0.0,2.0,0.0,0.0,3.0,3.0,365.7219372689724,1.0,1.0,part_1,,,,,,,,,,,,,cyan,flipped triangle
56.0,1.0,1.0,0.0,1.0,1.0,300.1353964209556,1.0,1.0,part_1,,,,,,,,,,,,,magenta,triangle
207.0,3.0,3.0,0.0,4.0,4.0,414.3983907997608,1.0,1.0,part_1,,,,,,,,,,,,,green,circle
386.0,8.0,4.0,1.0,2.0,2.0,340.0551322847605,1.0,1.0,part_1,,,,,,,,,,,,,orange,I
45.0,1.0,1.0,0.0,1.0,1.0,433.6941316723823,1.0,1.0,part_1,,,,,,,,,,,,,magenta,triangle
80.0,2.0,2.0,0.0,1.0,1.0,398.2199653983116,1.0,1.0,part_1,,,,,,,,,,,,,cyan,flipped triangle
197.0,3.0,3.0,0.0,2.0,2.0,332.557737827301,1.0,1.0,part_1,,,,,,,,,,,,,green,circle
80.0,6.0,2.0,1.0,3.0,3.0,313.8682544231415,1.0,1.0,part_1,,,,,,,,,,,,,white,diamond
210.0,7.0,3.0,1.0,1.0,1.0,284.8517838865518,1.0,1.0,part_1,,,,,,,,,,,,,yellow,hexagon
393.0,8.0,4.0,1.0,1.0,1.0,483.2421522587538,1.0,1.0,part_1,,,,,,,,,,,,,orange,I
75.0,2.0,2.0,0.0,4.0,4.0,301.8079344183206,1.0,1.0,part_1,,,,,,,,,,,,,cyan,flipped triangle
90.0,6.0,2.0,1.0,2.0,2.0,313.9954023063183,2.0,1.0,part_1,,,,,,,,,,,,,white,diamond
202.0,7.0,3.0,1.0,1.0,1.0,311.2783189862966,2.0,1.0,part_1,,,,,,,,,,,,,yellow,hexagon
65.0,1.0,1.0,0.0,4.0,4.0,339.7205080837011,2.0,1.0,part_1,,,,,,,,,,,,,magenta,triangle
198.0,7.0,3.0,1.0,3.0,3.0,423.7555265426636,2.0,1.0,part_1,,,,,,,,,,,,,yellow,hexagon
200.0,7.0,3.0,1.0,4.0,4.0,439.5296275615692,2.0,1.0,part_1,,,,,,,,,,,,,yellow,hexagon
407.0,4.0,4.0,0.0,3.0,3.0,444.1601354628801,2.0,1.0,part_1,,,,,,,,,,,,,gray,square
77.0,2.0,2.0,0.0,2.0,2.0,447.0374770462513,2.0,1.0,part_1,,,,,,,,,,,,,cyan,flipped triangle
28.0,5.0,1.0,1.0,1.0,1.0,389.1626726835966,2.0,1.0,part_1,,,,,,,,,,,,,blue,cross
100.0,6.0,2.0,1.0,4.0,4.0,375.591579824686,2.0,1.0,part_1,,,,,,,,,,,,,white,diamond
386.0,4.0,4.0,0.0,4.0,4.0,381.5809953957796,2.0,1.0,part_1,,,,,,,,,,,,,gray,square
77.0,2.0,2.0,0.0,4.0,4.0,427.514586597681,2.0,1.0,part_1,,,,,,,,,,,,,cyan,flipped triangle
221.0,7.0,3.0,1.0,1.0,1.0,350.0208426266908,2.0,1.0,part_1,,,,,,,,,,,,,yellow,hexagon
57.0,1.0,1.0,0.0,3.0,3.0,410.1115930825472,2.0,1.0,part_1,,,,,,,,,,,,,magenta,triangle
185.0,7.0,3.0,1.0,4.0,4.0,377.0309165120125,2.0,1.0,part_1,,,,,,,,,,,,,yellow,hexagon
415.0,4.0,4.0,0.0,3.0,3.0,445.9216594696045,2.0,1.0,part_1,,,,,,,,,,,,,gray,square
0.0,1.0,0.0,0.0,2.0,2.0,339.3502961844206,2.0,1.0,part_1,,,,,,,,,,,,,magenta,triangle
207.0,7.0,3.0,1.0,1.0,1.0,325.7644400000572,2.0,1.0,part_1,,,,,,,,,,,,,yellow,hexagon
0.0,3.0,0.0,0.0,1.0,1.0,412.3751055449247,2.0,1.0,part_1,,,,,,,,,,,,,green,circle
83.0,2.0,2.0,0.0,3.0,3.0,481.5360009670257,2.0,1.0,part_1,,,,,,,,,,,,,cyan,flipped triangle
217.0,7.0,3.0,1.0,3.0,3.0,483.472142368555,2.0,1.0,part_1,,,,,,,,,,,,,yellow,hexagon
414.0,8.0,4.0,1.0,3.0,3.0,399.5941858738661,2.0,1.0,part_1,,,,,,,,,,,,,orange,I
45.0,1.0,1.0,0.0,1.0,1.0,422.8532388806343,2.0,1.0,part_1,,,,,,,,,,,,,magenta,triangle
424.0,8.0,4.0,1.0,3.0,3.0,337.7168960869312,2.0,1.0,part_1,,,,,,,,,,,,,orange,I
0.0,8.0,0.0,1.0,3.0,3.0,365.6676802784204,2.0,1.0,part_1,,,,,,,,,,,,,orange,I
94.0,6.0,2.0,1.0,3.0,3.0,340.3692916035652,2.0,1.0,part_1,,,,,,,,,,,,,white,diamond
399.0,4.0,4.0,0.0,2.0,2.0,481.9319080561399,2.0,1.0,part_1,,,,,,,,,,,,,gray,square
0.0,2.0,0.0,0.0,4.0,4.0,381.6144522279501,2.0,1.0,part_1,,,,,,,,,,,,,cyan,flipped triangle
0.0,2.0,0.0,0.0,2.0,2.0,401.3669248670339,2.0,1.0,part_1,,,,,,,,,,,,,cyan,flipped triangle
220.0,7.0,3.0,1.0,1.0,1.0,437.2587166726589,2.0,1.0,part_1,,,,,,,,,,,,,yellow,hexagon
0.0,4.0,0.0,0.0,3.0,3.0,354.3820362538099,2.0,1.0,part_1,,,,,,,,,,,,,gray,square
0.0,6.0,0.0,1.0,4.0,4.0,535.1229254156351,2.0,1.0,part_1,,,,,,,,,,,,,white,diamond
103.0,2.0,2.0,0.0,1.0,1.0,547.863932326436,2.0,1.0,part_1,,,,,,,,,,,,,cyan,flipped triangle
41.0,1.0,1.0,0.0,1.0,1.0,611.9367480278015,2.0,1.0,part_1,,,,,,,,,,,,,magenta,triangle
214.0,3.0,3.0,0.0,3.0,3.0,526.6190133988857,2.0,1.0,part_1,,,,,,,,,,,,,green,circle
0.0,1.0,0.0,0.0,1.0,1.0,347.4013116210699,2.0,1.0,part_1,,,,,,,,,,,,,magenta,triangle
386.0,4.0,4.0,0.0,4.0,4.0,430.2225299179554,2.0,1.0,part_1,,,,,,,,,,,,,gray,square
62.0,5.0,1.0,1.0,1.0,1.0,387.1418070048094,2.0,1.0,part_1,,,,,,,,,,,,,blue,cross
0.0,8.0,0.0,1.0,2.0,2.0,479.1312869638204,2.0,1.0,part_1,,,,,,,,,,,,,orange,I
0.0,3.0,0.0,0.0,4.0,4.0,414.9958118796348,2.0,1.0,part_1,,,,,,,,,,,,,green,circle
412.0,4.0,4.0,0.0,1.0,1.0,371.2901175022125,2.0,1.0,part_1,,,,,,,,,,,,,gray,square
384.0,4.0,4.0,0.0,2.0,2.0,271.3569272309541,2.0,1.0,part_1,,,,,,,,,,,,,gray,square
0.0,4.0,0.0,0.0,1.0,1.0,316.1052111536264,2.0,1.0,part_1,,,,,,,,,,,,,gray,square
208.0,3.0,3.0,0.0,1.0,1.0,417.3397477716207,2.0,1.0,part_1,,,,,,,,,,,,,green,circle
201.0,3.0,3.0,0.0,1.0,1.0,486.91744543612,2.0,1.0,part_1,,,,,,,,,,,,,green,circle
53.0,1.0,1.0,0.0,1.0,1.0,354.8547215759754,2.0,1.0,part_1,,,,,,,,,,,,,magenta,triangle
0.0,7.0,0.0,1.0,2.0,2.0,405.4091423749923,2.0,1.0,part_1,,,,,,,,,,,,,yellow,hexagon
44.0,1.0,1.0,0.0,2.0,2.0,331.4062636345625,2.0,1.0,part_1,,,,,,,,,,,,,magenta,triangle
186.0,3.0,3.0,0.0,1.0,1.0,344.2709241062403,2.0,1.0,part_1,,,,,,,,,,,,,green,circle
31.0,5.0,1.0,1.0,1.0,1.0,363.9430459588766,2.0,1.0,part_1,,,,,,,,,,,,,blue,cross
217.0,7.0,3.0,1.0,3.0,3.0,386.3488156348467,2.0,1.0,part_1,,,,,,,,,,,,,yellow,hexagon
108.0,2.0,2.0,0.0,3.0,3.0,406.0106817632913,2.0,1.0,part_1,,,,,,,,,,,,,cyan,flipped triangle
379.0,8.0,4.0,1.0,3.0,3.0,420.0067464262247,2.0,1.0,part_1,,,,,,,,,,,,,orange,I
0.0,4.0,0.0,0.0,2.0,2.0,357.4306350201368,2.0,1.0,part_1,,,,,,,,,,,,,gray,square
119.0,6.0,2.0,1.0,1.0,1.0,355.6992504745722,2.0,1.0,part_1,,,,,,,,,,,,,white,diamond
122.0,2.0,2.0,0.0,2.0,2.0,377.4407561868429,2.0,1.0,part_1,,,,,,,,,,,,,cyan,flipped triangle
85.0,6.0,2.0,1.0,3.0,3.0,332.1190793067217,2.0,1.0,part_1,,,,,,,,,,,,,white,diamond
80.0,2.0,2.0,0.0,3.0,3.0,384.5595009624958,2.0,1.0,part_1,,,,,,,,,,,,,cyan,flipped triangle
0.0,6.0,0.0,1.0,4.0,4.0,376.3429168611765,2.0,1.0,part_1,,,,,,,,,,,,,white,diamond
188.0,3.0,3.0,0.0,1.0,1.0,315.4071755707264,2.0,1.0,part_1,,,,,,,,,,,,,green,circle
73.0,5.0,1.0,1.0,1.0,1.0,383.6971223354339,2.0,1.0,part_1,,,,,,,,,,,,,blue,cross
62.0,1.0,1.0,0.0,3.0,3.0,364.7674918174743,2.0,1.0,part_1,,,,,,,,,,,,,magenta,triangle
411.0,8.0,4.0,1.0,4.0,4.0,440.1759449392557,2.0,1.0,part_1,,,,,,,,,,,,,orange,I
410.0,8.0,4.0,1.0,1.0,1.0,310.6163516640663,2.0,1.0,part_1,,,,,,,,,,,,,orange,I
0.0,4.0,0.0,0.0,4.0,4.0,401.5851058065891,2.0,1.0,part_1,,,,,,,,,,,,,gray,square
184.0,3.0,3.0,0.0,2.0,2.0,398.6886516213417,2.0,1.0,part_1,,,,,,,,,,,,,green,circle
0.0,3.0,0.0,0.0,1.0,1.0,358.6990516632795,2.0,1.0,part_1,,,,,,,,,,,,,green,circle
175.0,3.0,3.0,0.0,1.0,1.0,362.8234304487705,2.0,1.0,part_1,,,,,,,,,,,,,green,circle
220.0,3.0,3.0,0.0,4.0,4.0,399.7557684779167,2.0,1.0,part_1,,,,,,,,,,,,,green,circle
98.0,6.0,2.0,1.0,1.0,1.0,289.4774600863457,2.0,1.0,part_1,,,,,,,,,,,,,white,diamond
0.0,1.0,0.0,0.0,1.0,1.0,509.27771627902985,2.0,1.0,part_1,,,,,,,,,,,,,magenta,triangle
122.0,2.0,2.0,0.0,3.0,3.0,403.8347266614437,2.0,1.0,part_1,,,,,,,,,,,,,cyan,flipped triangle
196.0,3.0,3.0,0.0,1.0,1.0,334.5392625778913,2.0,1.0,part_1,,,,,,,,,,,,,green,circle
416.0,4.0,4.0,0.0,2.0,2.0,323.5750012099743,2.0,1.0,part_1,,,,,,,,,,,,,gray,square
414.0,8.0,4.0,1.0,2.0,2.0,417.0091673731804,2.0,1.0,part_1,,,,,,,,,,,,,orange,I
45.0,5.0,1.0,1.0,1.0,1.0,447.5342985242605,2.0,1.0,part_1,,,,,,,,,,,,,blue,cross
393.0,4.0,4.0,0.0,1.0,1.0,353.5651247948408,2.0,1.0,part_1,,,,,,,,,,,,,gray,square
414.0,4.0,4.0,0.0,4.0,4.0,398.2599172741174,2.0,1.0,part_1,,,,,,,,,,,,,gray,square
40.0,5.0,1.0,1.0,3.0,3.0,413.5210625827312,2.0,1.0,part_1,,,,,,,,,,,,,blue,cross
379.0,4.0,4.0,0.0,3.0,3.0,432.3382992297411,2.0,1.0,part_1,,,,,,,,,,,,,gray,square
188.0,7.0,3.0,1.0,3.0,3.0,397.0599975436926,2.0,1.0,part_1,,,,,,,,,,,,,yellow,hexagon
189.0,3.0,3.0,0.0,3.0,3.0,312.926797196269,2.0,1.0,part_1,,,,,,,,,,,,,green,circle
0.0,8.0,0.0,1.0,3.0,3.0,345.6933535635471,2.0,1.0,part_1,,,,,,,,,,,,,orange,I
0.0,2.0,0.0,0.0,3.0,3.0,340.6989779323339,2.0,1.0,part_1,,,,,,,,,,,,,cyan,flipped triangle
111.0,2.0,2.0,0.0,1.0,1.0,342.9354485124349,2.0,1.0,part_1,,,,,,,,,,,,,cyan,flipped triangle
106.0,6.0,2.0,1.0,4.0,4.0,510.32499223947525,2.0,1.0,part_1,,,,,,,,,,,,,white,diamond
0.0,6.0,0.0,1.0,3.0,3.0,417.1638004481792,2.0,1.0,part_1,,,,,,,,,,,,,white,diamond
0.0,8.0,0.0,1.0,3.0,3.0,503.4342762082815,2.0,1.0,part_1,,,,,,,,,,,,,orange,I
122.0,2.0,2.0,0.0,3.0,3.0,330.4629307240248,2.0,1.0,part_1,,,,,,,,,,,,,cyan,flipped triangle
399.0,8.0,4.0,1.0,1.0,1.0,334.3031052500009,2.0,1.0,part_1,,,,,,,,,,,,,orange,I
65.0,5.0,1.0,1.0,4.0,4.0,413.6973079293966,2.0,1.0,part_1,,,,,,,,,,,,,blue,cross
402.0,4.0,4.0,0.0,3.0,3.0,360.9656058251858,2.0,1.0,part_1,,,,,,,,,,,,,gray,square
398.0,8.0,4.0,1.0,4.0,4.0,415.3506960719824,2.0,1.0,part_1,,,,,,,,,,,,,orange,I
393.0,4.0,4.0,0.0,4.0,4.0,459.1506756842136,2.0,1.0,part_1,,,,,,,,,,,,,gray,square
49.0,1.0,1.0,0.0,4.0,4.0,393.7149848788976,2.0,1.0,part_1,,,,,,,,,,,,,magenta,triangle
189.0,7.0,3.0,1.0,2.0,2.0,330.4203376173973,2.0,1.0,part_1,,,,,,,,,,,,,yellow,hexagon
57.0,5.0,1.0,1.0,4.0,4.0,335.5037681758404,2.0,1.0,part_1,,,,,,,,,,,,,blue,cross
122.0,6.0,2.0,1.0,3.0,3.0,371.9387538731098,2.0,1.0,part_1,,,,,,,,,,,,,white,diamond
221.0,3.0,3.0,0.0,1.0,1.0,394.3589814007282,2.0,1.0,part_1,,,,,,,,,,,,,green,circle
75.0,6.0,2.0,1.0,4.0,4.0,341.4921388030052,2.0,1.0,part_1,,,,,,,,,,,,,white,diamond
182.0,7.0,3.0,1.0,3.0,3.0,372.4384363740682,2.0,1.0,part_1,,,,,,,,,,,,,yellow,hexagon
384.0,8.0,4.0,1.0,2.0,2.0,320.71521505713457,3.0,1.0,part_1,,,,,,,,,,,,,orange,I
396.0,4.0,4.0,0.0,2.0,2.0,334.8544351756573,3.0,1.0,part_1,,,,,,,,,,,,,gray,square
0.0,7.0,0.0,1.0,2.0,2.0,309.4451930373907,3.0,1.0,part_1,,,,,,,,,,,,,yellow,hexagon
402.0,8.0,4.0,1.0,3.0,3.0,385.7302833348512,3.0,1.0,part_1,,,,,,,,,,,,,orange,I
0.0,5.0,0.0,1.0,4.0,4.0,372.8052303194999,3.0,1.0,part_1,,,,,,,,,,,,,blue,cross
413.0,4.0,4.0,0.0,3.0,3.0,458.6500842124223,3.0,1.0,part_1,,,,,,,,,,,,,gray,square
192.0,7.0,3.0,1.0,4.0,4.0,393.4886399656534,3.0,1.0,part_1,,,,,,,,,,,,,yellow,hexagon
387.0,4.0,4.0,0.0,2.0,2.0,356.3452828675508,3.0,1.0,part_1,,,,,,,,,,,,,gray,square
98.0,2.0,2.0,0.0,4.0,4.0,384.8023880273103,3.0,1.0,part_1,,,,,,,,,,,,,cyan,flipped triangle
0.0,8.0,0.0,1.0,2.0,2.0,356.1699874699116,3.0,1.0,part_1,,,,,,,,,,,,,orange,I
29.0,5.0,1.0,1.0,4.0,4.0,385.2808736264705,3.0,1.0,part_1,,,,,,,,,,,,,blue,cross
186.0,7.0,3.0,1.0,2.0,2.0,460.7009161263704,3.0,1.0,part_1,,,,,,,,,,,,,yellow,hexagon
0.0,2.0,0.0,0.0,2.0,2.0,538.3698437362909,3.0,1.0,part_1,,,,,,,,,,,,,cyan,flipped triangle
398.0,4.0,4.0,0.0,3.0,3.0,457.9414837062359,3.0,1.0,part_1,,,,,,,,,,,,,gray,square
192.0,3.0,3.0,0.0,4.0,4.0,467.9755568504333,3.0,1.0,part_1,,,,,,,,,,,,,green,circle
112.0,6.0,2.0,1.0,4.0,4.0,447.4598858505487,3.0,1.0,part_1,,,,,,,,,,,,,white,diamond
0.0,5.0,0.0,1.0,4.0,4.0,503.0831601470709,3.0,1.0,part_1,,,,,,,,,,,,,blue,cross
176.0,7.0,3.0,1.0,2.0,2.0,456.831319257617,3.0,1.0,part_1,,,,,,,,,,,,,yellow,hexagon
29.0,1.0,1.0,0.0,3.0,3.0,519.6133125573397,3.0,1.0,part_1,,,,,,,,,,,,,magenta,triangle
105.0,6.0,2.0,1.0,4.0,4.0,414.4538398832083,3.0,1.0,part_1,,,,,,,,,,,,,white,diamond
106.0,6.0,2.0,1.0,2.0,2.0,585.4432675987482,3.0,1.0,part_1,,,,,,,,,,,,,white,diamond
220.0,7.0,3.0,1.0,3.0,3.0,485.6850318610668,3.0,1.0,part_1,,,,,,,,,,,,,yellow,hexagon
63.0,5.0,1.0,1.0,4.0,4.0,401.9182380288839,3.0,1.0,part_1,,,,,,,,,,,,,blue,cross
87.0,2.0,2.0,0.0,2.0,2.0,447.3513625562191,3.0,1.0,part_1,,,,,,,,,,,,,cyan,flipped triangle
67.0,1.0,1.0,0.0,4.0,4.0,497.7592974901199,3.0,1.0,part_1,,,,,,,,,,,,,magenta,triangle
0.0,2.0,0.0,0.0,1.0,1.0,409.6657205373049,3.0,1.0,part_1,,,,,,,,,,,,,cyan,flipped triangle
386.0,8.0,4.0,1.0,2.0,2.0,411.2851768732071,3.0,1.0,part_1,,,,,,,,,,,,,orange,I
221.0,7.0,3.0,1.0,4.0,4.0,369.7550520300865,3.0,1.0,part_1,,,,,,,,,,,,,yellow,hexagon
82.0,6.0,2.0,1.0,4.0,4.0,437.0516147464514,3.0,1.0,part_1,,,,,,,,,,,,,white,diamond
57.0,5.0,1.0,1.0,2.0,2.0,369.1075854003429,3.0,1.0,part_1,,,,,,,,,,,,,blue,cross
393.0,8.0,4.0,1.0,4.0,4.0,344.9186664074659,3.0,1.0,part_1,,,,,,,,,,,,,orange,I
221.0,3.0,3.0,0.0,3.0,3.0,454.7864999622106,3.0,1.0,part_1,,,,,,,,,,,,,green,circle
403.0,8.0,4.0,1.0,4.0,4.0,472.9583915323019,3.0,1.0,part_1,,,,,,,,,,,,,orange,I
0.0,7.0,0.0,1.0,2.0,2.0,502.01754830777645,3.0,1.0,part_1,,,,,,,,,,,,,yellow,hexagon
105.0,2.0,2.0,0.0,1.0,1.0,507.5212027877569,3.0,1.0,part_1,,,,,,,,,,,,,cyan,flipped triangle
31.0,1.0,1.0,0.0,2.0,2.0,357.0233434438705,3.0,1.0,part_1,,,,,,,,,,,,,magenta,triangle
388.0,4.0,4.0,0.0,2.0,2.0,405.3180739283561,3.0,1.0,part_1,,,,,,,,,,,,,gray,square
53.0,5.0,1.0,1.0,1.0,1.0,344.7190709412098,3.0,1.0,part_1,,,,,,,,,,,,,blue,cross
88.0,6.0,2.0,1.0,2.0,2.0,355.5049281567335,3.0,1.0,part_1,,,,,,,,,,,,,white,diamond
0.0,5.0,0.0,1.0,1.0,1.0,428.0325789004564,3.0,1.0,part_1,,,,,,,,,,,,,blue,cross
57.0,1.0,1.0,0.0,4.0,4.0,429.3933175504207,3.0,1.0,part_1,,,,,,,,,,,,,magenta,triangle
59.0,5.0,1.0,1.0,3.0,3.0,363.4334746748209,3.0,1.0,part_1,,,,,,,,,,,,,blue,cross
51.0,1.0,1.0,0.0,3.0,3.0,390.3090693056583,3.0,1.0,part_1,,,,,,,,,,,,,magenta,triangle
0.0,1.0,0.0,0.0,1.0,1.0,347.03359939157957,3.0,1.0,part_1,,,,,,,,,,,,,magenta,triangle
112.0,2.0,2.0,0.0,4.0,4.0,391.5936052799225,3.0,1.0,part_1,,,,,,,,,,,,,cyan,flipped triangle
124.0,2.0,2.0,0.0,1.0,1.0,504.35165129601955,3.0,1.0,part_1,,,,,,,,,,,,,cyan,flipped triangle
182.0,7.0,3.0,1.0,3.0,3.0,385.0821554660797,3.0,1.0,part_1,,,,,,,,,,,,,yellow,hexagon
105.0,6.0,2.0,1.0,4.0,4.0,488.8024851679802,3.0,1.0,part_1,,,,,,,,,,,,,white,diamond
73.0,5.0,1.0,1.0,3.0,3.0,380.9493966400623,3.0,1.0,part_1,,,,,,,,,,,,,blue,cross
27.0,1.0,1.0,0.0,2.0,2.0,335.3712148964405,3.0,1.0,part_1,,,,,,,,,,,,,magenta,triangle
37.0,1.0,1.0,0.0,4.0,4.0,355.5073551833629,3.0,1.0,part_1,,,,,,,,,,,,,magenta,triangle
381.0,8.0,4.0,1.0,2.0,2.0,360.3260815143585,3.0,1.0,part_1,,,,,,,,,,,,,orange,I
85.0,2.0,2.0,0.0,2.0,2.0,335.3377375751734,3.0,1.0,part_1,,,,,,,,,,,,,cyan,flipped triangle
0.0,7.0,0.0,1.0,4.0,4.0,505.9500075876713,3.0,1.0,part_1,,,,,,,,,,,,,yellow,hexagon
416.0,8.0,4.0,1.0,3.0,3.0,401.4964159578085,3.0,1.0,part_1,,,,,,,,,,,,,orange,I
119.0,6.0,2.0,1.0,1.0,1.0,500.3996826708317,3.0,1.0,part_1,,,,,,,,,,,,,white,diamond
196.0,3.0,3.0,0.0,4.0,4.0,367.5231877714395,3.0,1.0,part_1,,,,,,,,,,,,,green,circle
412.0,8.0,4.0,1.0,3.0,3.0,372.8472683578729,3.0,1.0,part_1,,,,,,,,,,,,,orange,I
201.0,7.0,3.0,1.0,4.0,4.0,357.2915848344564,3.0,1.0,part_1,,,,,,,,,,,,,yellow,hexagon
97.0,2.0,2.0,0.0,4.0,4.0,510.54354570806026,3.0,1.0,part_1,,,,,,,,,,,,,cyan,flipped triangle
80.0,2.0,2.0,0.0,3.0,3.0,589.6049216389656,3.0,1.0,part_1,,,,,,,,,,,,,cyan,flipped triangle
51.0,5.0,1.0,1.0,4.0,4.0,391.4232421666384,3.0,1.0,part_1,,,,,,,,,,,,,blue,cross
0.0,4.0,0.0,0.0,4.0,4.0,469.8887001723051,3.0,1.0,part_1,,,,,,,,,,,,,gray,square
0.0,3.0,0.0,0.0,2.0,2.0,314.5342841744423,3.0,1.0,part_1,,,,,,,,,,,,,green,circle
0.0,4.0,0.0,0.0,1.0,1.0,357.5020842254162,3.0,1.0,part_1,,,,,,,,,,,,,gray,square
0.0,6.0,0.0,1.0,2.0,2.0,411.4376790821552,3.0,1.0,part_1,,,,,,,,,,,,,white,diamond
0.0,8.0,0.0,1.0,2.0,2.0,466.0946354269981,3.0,1.0,part_1,,,,,,,,,,,,,orange,I
70.0,1.0,1.0,0.0,2.0,2.0,363.51175978779787,3.0,1.0,part_1,,,,,,,,,,,,,magenta,triangle
205.0,7.0,3.0,1.0,4.0,4.0,355.5430006235838,3.0,1.0,part_1,,,,,,,,,,,,,yellow,hexagon
64.0,5.0,1.0,1.0,2.0,2.0,332.4913792312145,3.0,1.0,part_1,,,,,,,,,,,,,blue,cross
103.0,6.0,2.0,1.0,2.0,2.0,380.1270592957735,3.0,1.0,part_1,,,,,,,,,,,,,white,diamond
39.0,1.0,1.0,0.0,1.0,1.0,337.7047870308161,3.0,1.0,part_1,,,,,,,,,,,,,magenta,triangle
208.0,3.0,3.0,0.0,4.0,4.0,396.5420201420784,3.0,1.0,part_1,,,,,,,,,,,,,green,circle
196.0,7.0,3.0,1.0,1.0,1.0,383.6173806339502,3.0,1.0,part_1,,,,,,,,,,,,,yellow,hexagon
403.0,4.0,4.0,0.0,1.0,1.0,398.7835757434368,3.0,1.0,part_1,,,,,,,,,,,,,gray,square
394.0,8.0,4.0,1.0,1.0,1.0,441.8269544839859,3.0,1.0,part_1,,,,,,,,,,,,,orange,I
56.0,5.0,1.0,1.0,2.0,2.0,342.0435823500156,3.0,1.0,part_1,,,,,,,,,,,,,blue,cross
401.0,4.0,4.0,0.0,1.0,1.0,428.8031309843063,3.0,1.0,part_1,,,,,,,,,,,,,gray,square
86.0,2.0,2.0,0.0,4.0,4.0,352.6049964129925,3.0,1.0,part_1,,,,,,,,,,,,,cyan,flipped triangle
124.0,2.0,2.0,0.0,1.0,1.0,365.5984122306108,3.0,1.0,part_1,,,,,,,,,,,,,cyan,flipped triangle
416.0,4.0,4.0,0.0,2.0,2.0,339.165024459362,3.0,1.0,part_1,,,,,,,,,,,,,gray,square
384.0,4.0,4.0,0.0,2.0,2.0,372.7502096444368,3.0,1.0,part_1,,,,,,,,,,,,,gray,square
72.0,1.0,1.0,0.0,2.0,2.0,353.6787331104278,3.0,1.0,part_1,,,,,,,,,,,,,magenta,triangle
61.0,1.0,1.0,0.0,4.0,4.0,360.0558526813984,3.0,1.0,part_1,,,,,,,,,,,,,magenta,triangle
217.0,3.0,3.0,0.0,2.0,2.0,338.5868035256862,3.0,1.0,part_1,,,,,,,,,,,,,green,circle
185.0,3.0,3.0,0.0,3.0,3.0,659.5309041440487,3.0,1.0,part_1,,,,,,,,,,,,,green,circle
388.0,4.0,4.0,0.0,2.0,2.0,421.4815702289343,3.0,1.0,part_1,,,,,,,,,,,,,gray,square
0.0,3.0,0.0,0.0,3.0,3.0,412.7049501985311,3.0,1.0,part_1,,,,,,,,,,,,,green,circle
177.0,3.0,3.0,0.0,1.0,1.0,352.7450673282146,3.0,1.0,part_1,,,,,,,,,,,,,green,circle
196.0,7.0,3.0,1.0,2.0,2.0,316.3236230611801,3.0,1.0,part_1,,,,,,,,,,,,,yellow,hexagon
45.0,5.0,1.0,1.0,4.0,4.0,354.3169237673282,3.0,1.0,part_1,,,,,,,,,,,,,blue,cross
54.0,1.0,1.0,0.0,2.0,2.0,302.3218661546707,3.0,1.0,part_1,,,,,,,,,,,,,magenta,triangle
64.0,5.0,1.0,1.0,1.0,1.0,376.7832424491644,3.0,1.0,part_1,,,,,,,,,,,,,blue,cross
57.0,1.0,1.0,0.0,2.0,2.0,350.5435772240162,3.0,1.0,part_1,,,,,,,,,,,,,magenta,triangle
417.0,8.0,4.0,1.0,1.0,1.0,389.09444026649,3.0,1.0,part_1,,,,,,,,,,,,,orange,I
37.0,5.0,1.0,1.0,4.0,4.0,352.0128522068262,3.0,1.0,part_1,,,,,,,,,,,,,blue,cross
391.0,8.0,4.0,1.0,1.0,1.0,382.6728481799364,3.0,1.0,part_1,,,,,,,,,,,,,orange,I
83.0,6.0,2.0,1.0,2.0,2.0,353.6955937743187,3.0,1.0,part_1,,,,,,,,,,,,,white,diamond
99.0,6.0,2.0,1.0,3.0,3.0,302.4937398731708,3.0,1.0,part_1,,,,,,,,,,,,,white,diamond
112.0,6.0,2.0,1.0,3.0,3.0,393.4863954782486,3.0,1.0,part_1,,,,,,,,,,,,,white,diamond
0.0,5.0,0.0,1.0,3.0,3.0,348.632164299488,4.0,1.0,part_1,,,,,,,,,,,,,blue,cross
111.0,6.0,2.0,1.0,1.0,1.0,347.9967527091503,4.0,1.0,part_1,,,,,,,,,,,,,white,diamond
0.0,1.0,0.0,0.0,1.0,1.0,389.2708886414766,4.0,1.0,part_1,,,,,,,,,,,,,magenta,triangle
90.0,2.0,2.0,0.0,3.0,3.0,355.4827682673931,4.0,1.0,part_1,,,,,,,,,,,,,cyan,flipped triangle
26.0,1.0,1.0,0.0,4.0,4.0,318.7222220003605,4.0,1.0,part_1,,,,,,,,,,,,,magenta,triangle
33.0,5.0,1.0,1.0,4.0,4.0,372.1212558448314,4.0,1.0,part_1,,,,,,,,,,,,,blue,cross
64.0,1.0,1.0,0.0,3.0,3.0,408.370653167367,4.0,1.0,part_1,,,,,,,,,,,,,magenta,triangle
0.0,1.0,0.0,0.0,4.0,4.0,430.6325707584619,4.0,1.0,part_1,,,,,,,,,,,,,magenta,triangle
0.0,7.0,0.0,1.0,4.0,4.0,372.0522653311491,4.0,1.0,part_1,,,,,,,,,,,,,yellow,hexagon
111.0,2.0,2.0,0.0,2.0,2.0,311.5906082093715,4.0,1.0,part_1,,,,,,,,,,,,,cyan,flipped triangle
104.0,2.0,2.0,0.0,4.0,4.0,532.612144947052,4.0,1.0,part_1,,,,,,,,,,,,,cyan,flipped triangle
122.0,6.0,2.0,1.0,4.0,4.0,336.5313336253166,4.0,1.0,part_1,,,,,,,,,,,,,white,diamond
0.0,3.0,0.0,0.0,3.0,3.0,387.7824414521456,4.0,1.0,part_1,,,,,,,,,,,,,green,circle
415.0,8.0,4.0,1.0,4.0,4.0,386.7431785911321,4.0,1.0,part_1,,,,,,,,,,,,,orange,I
104.0,6.0,2.0,1.0,1.0,1.0,535.5751421302557,4.0,1.0,part_1,,,,,,,,,,,,,white,diamond
177.0,7.0,3.0,1.0,1.0,1.0,444.1685862839222,4.0,1.0,part_1,,,,,,,,,,,,,yellow,hexagon
33.0,5.0,1.0,1.0,2.0,2.0,521.7929743230343,4.0,1.0,part_1,,,,,,,,,,,,,blue,cross
68.0,5.0,1.0,1.0,3.0,3.0,429.4858835637569,4.0,1.0,part_1,,,,,,,,,,,,,blue,cross
0.0,1.0,0.0,0.0,3.0,3.0,385.1823359727859,4.0,1.0,part_1,,,,,,,,,,,,,magenta,triangle
416.0,8.0,4.0,1.0,1.0,1.0,383.9770369231701,4.0,1.0,part_1,,,,,,,,,,,,,orange,I
399.0,8.0,4.0,1.0,2.0,2.0,340.8317491412163,4.0,1.0,part_1,,,,,,,,,,,,,orange,I
415.0,4.0,4.0,0.0,1.0,1.0,390.8909149467945,4.0,1.0,part_1,,,,,,,,,,,,,gray,square
393.0,8.0,4.0,1.0,3.0,3.0,395.7370407879352,4.0,1.0,part_1,,,,,,,,,,,,,orange,I
87.0,6.0,2.0,1.0,3.0,3.0,343.3816116303205,4.0,1.0,part_1,,,,,,,,,,,,,white,diamond
27.0,5.0,1.0,1.0,2.0,2.0,405.0638899207115,4.0,1.0,part_1,,,,,,,,,,,,,blue,cross
216.0,7.0,3.0,1.0,3.0,3.0,356.6744904965162,4.0,1.0,part_1,,,,,,,,,,,,,yellow,hexagon
80.0,6.0,2.0,1.0,2.0,2.0,319.9023157358169,4.0,1.0,part_1,,,,,,,,,,,,,white,diamond
186.0,3.0,3.0,0.0,3.0,3.0,357.1757599711418,4.0,1.0,part_1,,,,,,,,,,,,,green,circle
210.0,3.0,3.0,0.0,3.0,3.0,345.4644773155451,4.0,1.0,part_1,,,,,,,,,,,,,green,circle
54.0,5.0,1.0,1.0,4.0,4.0,364.6331056952476,4.0,1.0,part_1,,,,,,,,,,,,,blue,cross
217.0,3.0,3.0,0.0,4.0,4.0,321.0039772093296,4.0,1.0,part_1,,,,,,,,,,,,,green,circle
0.0,4.0,0.0,0.0,3.0,3.0,365.7785542309284,4.0,1.0,part_1,,,,,,,,,,,,,gray,square
0.0,8.0,0.0,1.0,1.0,1.0,377.5716293603182,4.0,1.0,part_1,,,,,,,,,,,,,orange,I
175.0,7.0,3.0,1.0,3.0,3.0,414.6541766822338,4.0,1.0,part_1,,,,,,,,,,,,,yellow,hexagon
0.0,3.0,0.0,0.0,4.0,4.0,371.8963358551264,4.0,1.0,part_1,,,,,,,,,,,,,green,circle
0.0,7.0,0.0,1.0,3.0,3.0,383.9332796633243,4.0,1.0,part_1,,,,,,,,,,,,,yellow,hexagon
39.0,5.0,1.0,1.0,3.0,3.0,412.3506564646959,4.0,1.0,part_1,,,,,,,,,,,,,blue,cross
61.0,5.0,1.0,1.0,3.0,3.0,372.4031466990709,4.0,1.0,part_1,,,,,,,,,,,,,blue,cross
0.0,6.0,0.0,1.0,3.0,3.0,361.2735997885465,4.0,1.0,part_1,,,,,,,,,,,,,white,diamond
77.0,6.0,2.0,1.0,1.0,1.0,363.2625862956047,4.0,1.0,part_1,,,,,,,,,,,,,white,diamond
37.0,1.0,1.0,0.0,3.0,3.0,425.6988503038883,4.0,1.0,part_1,,,,,,,,,,,,,magenta,triangle
64.0,1.0,1.0,0.0,1.0,1.0,444.3878289312124,4.0,1.0,part_1,,,,,,,,,,,,,magenta,triangle
414.0,4.0,4.0,0.0,1.0,1.0,386.6631910204887,4.0,1.0,part_1,,,,,,,,,,,,,gray,square
98.0,2.0,2.0,0.0,2.0,2.0,351.06046684086317,4.0,1.0,part_1,,,,,,,,,,,,,cyan,flipped triangle
381.0,4.0,4.0,0.0,1.0,1.0,378.8260482251644,4.0,1.0,part_1,,,,,,,,,,,,,gray,square
0.0,6.0,0.0,1.0,4.0,4.0,346.8929789960384,4.0,1.0,part_1,,,,,,,,,,,,,white,diamond
201.0,7.0,3.0,1.0,1.0,1.0,343.1346137076616,4.0,1.0,part_1,,,,,,,,,,,,,yellow,hexagon
184.0,7.0,3.0,1.0,2.0,2.0,370.5132696777582,4.0,1.0,part_1,,,,,,,,,,,,,yellow,hexagon
0.0,2.0,0.0,0.0,2.0,2.0,390.6842917203903,4.0,1.0,part_1,,,,,,,,,,,,,cyan,flipped triangle
214.0,3.0,3.0,0.0,2.0,2.0,322.3013561218977,4.0,1.0,part_1,,,,,,,,,,,,,green,circle
176.0,7.0,3.0,1.0,4.0,4.0,329.933675006032,4.0,1.0,part_1,,,,,,,,,,,,,yellow,hexagon
77.0,6.0,2.0,1.0,1.0,1.0,340.7581895589828,4.0,1.0,part_1,,,,,,,,,,,,,white,diamond
29.0,1.0,1.0,0.0,2.0,2.0,319.209236651659,4.0,1.0,part_1,,,,,,,,,,,,,magenta,triangle
388.0,8.0,4.0,1.0,1.0,1.0,342.4963466823101,4.0,1.0,part_1,,,,,,,,,,,,,orange,I
0.0,7.0,0.0,1.0,4.0,4.0,360.7749547809362,4.0,1.0,part_1,,,,,,,,,,,,,yellow,hexagon
0.0,6.0,0.0,1.0,4.0,4.0,430.5858016014099,4.0,1.0,part_1,,,,,,,,,,,,,white,diamond
108.0,6.0,2.0,1.0,3.0,3.0,396.2538372725248,4.0,1.0,part_1,,,,,,,,,,,,,white,diamond
0.0,4.0,0.0,0.0,2.0,2.0,457.4000909924507,4.0,1.0,part_1,,,,,,,,,,,,,gray,square
124.0,6.0,2.0,1.0,2.0,2.0,363.6727593839168,4.0,1.0,part_1,,,,,,,,,,,,,white,diamond
413.0,8.0,4.0,1.0,4.0,4.0,360.3429161012172,4.0,1.0,part_1,,,,,,,,,,,,,orange,I
182.0,3.0,3.0,0.0,4.0,4.0,351.0834723711014,4.0,1.0,part_1,,,,,,,,,,,,,green,circle
220.0,3.0,3.0,0.0,2.0,2.0,357.3374561965465,4.0,1.0,part_1,,,,,,,,,,,,,green,circle
176.0,3.0,3.0,0.0,3.0,3.0,361.1044753342867,4.0,1.0,part_1,,,,,,,,,,,,,green,circle
421.0,4.0,4.0,0.0,4.0,4.0,323.0826091021299,4.0,1.0,part_1,,,,,,,,,,,,,gray,square
57.0,5.0,1.0,1.0,2.0,2.0,314.3273703753948,4.0,1.0,part_1,,,,,,,,,,,,,blue,cross
44.0,5.0,1.0,1.0,1.0,1.0,333.484860137105,4.0,1.0,part_1,,,,,,,,,,,,,blue,cross
0.0,6.0,0.0,1.0,1.0,1.0,386.6081517189741,4.0,1.0,part_1,,,,,,,,,,,,,white,diamond
0.0,4.0,0.0,0.0,3.0,3.0,345.851557329297,4.0,1.0,part_1,,,,,,,,,,,,,gray,square
124.0,6.0,2.0,1.0,2.0,2.0,362.8893438726663,4.0,1.0,part_1,,,,,,,,,,,,,white,diamond
63.0,1.0,1.0,0.0,3.0,3.0,449.6998097747564,4.0,1.0,part_1,,,,,,,,,,,,,magenta,triangle
106.0,2.0,2.0,0.0,1.0,1.0,301.2780733406544,4.0,1.0,part_1,,,,,,,,,,,,,cyan,flipped triangle
33.0,1.0,1.0,0.0,3.0,3.0,315.5673686414957,4.0,1.0,part_1,,,,,,,,,,,,,magenta,triangle
0.0,7.0,0.0,1.0,2.0,2.0,341.8828789144754,4.0,1.0,part_1,,,,,,,,,,,,,yellow,hexagon
214.0,7.0,3.0,1.0,2.0,2.0,329.6230752021074,4.0,1.0,part_1,,,,,,,,,,,,,yellow,hexagon
119.0,2.0,2.0,0.0,4.0,4.0,394.8160801082849,4.0,1.0,part_1,,,,,,,,,,,,,cyan,flipped triangle
118.0,6.0,2.0,1.0,2.0,2.0,333.9477088302374,4.0,1.0,part_1,,,,,,,,,,,,,white,diamond
397.0,4.0,4.0,0.0,4.0,4.0,336.0124249011278,4.0,1.0,part_1,,,,,,,,,,,,,gray,square
181.0,7.0,3.0,1.0,3.0,3.0,364.758875221014,4.0,1.0,part_1,,,,,,,,,,,,,yellow,hexagon
388.0,8.0,4.0,1.0,4.0,4.0,355.2652727812528,4.0,1.0,part_1,,,,,,,,,,,,,orange,I
68.0,1.0,1.0,0.0,1.0,1.0,360.4172393679619,4.0,1.0,part_1,,,,,,,,,,,,,magenta,triangle
0.0,2.0,0.0,0.0,2.0,2.0,347.2915478050709,4.0,1.0,part_1,,,,,,,,,,,,,cyan,flipped triangle
0.0,8.0,0.0,1.0,1.0,1.0,424.0044914186001,4.0,1.0,part_1,,,,,,,,,,,,,orange,I
0.0,5.0,0.0,1.0,2.0,2.0,372.9296866804361,4.0,1.0,part_1,,,,,,,,,,,,,blue,cross
98.0,6.0,2.0,1.0,1.0,1.0,372.9096874594688,4.0,1.0,part_1,,,,,,,,,,,,,white,diamond
59.0,1.0,1.0,0.0,2.0,2.0,352.1233797073364,4.0,1.0,part_1,,,,,,,,,,,,,magenta,triangle
403.0,4.0,4.0,0.0,3.0,3.0,380.8452244848013,4.0,1.0,part_1,,,,,,,,,,,,,gray,square
83.0,2.0,2.0,0.0,3.0,3.0,456.5967880189419,4.0,1.0,part_1,,,,,,,,,,,,,cyan,flipped triangle
221.0,3.0,3.0,0.0,2.0,2.0,404.263636097312,4.0,1.0,part_1,,,,,,,,,,,,,green,circle
37.0,5.0,1.0,1.0,1.0,1.0,298.9779990166425,4.0,1.0,part_1,,,,,,,,,,,,,blue,cross
214.0,7.0,3.0,1.0,4.0,4.0,397.4703010171652,4.0,1.0,part_1,,,,,,,,,,,,,yellow,hexagon
216.0,3.0,3.0,0.0,1.0,1.0,317.2574248164892,4.0,1.0,part_1,,,,,,,,,,,,,green,circle
112.0,2.0,2.0,0.0,2.0,2.0,344.2167323082685,4.0,1.0,part_1,,,,,,,,,,,,,cyan,flipped triangle
0.0,5.0,0.0,1.0,4.0,4.0,370.8189968019724,4.0,1.0,part_1,,,,,,,,,,,,,blue,cross
0.0,5.0,0.0,1.0,1.0,1.0,313.0824640393257,4.0,1.0,part_1,,,,,,,,,,,,,blue,cross
417.0,4.0,4.0,0.0,3.0,3.0,343.4299174696207,4.0,1.0,part_1,,,,,,,,,,,,,gray,square
49.0,5.0,1.0,1.0,3.0,3.0,329.3747790157795,4.0,1.0,part_1,,,,,,,,,,,,,blue,cross
100.0,2.0,2.0,0.0,3.0,3.0,343.7069151550531,4.0,1.0,part_1,,,,,,,,,,,,,cyan,flipped triangle
86.0,6.0,2.0,1.0,3.0,3.0,363.062011078,4.0,1.0,part_1,,,,,,,,,,,,,white,diamond
424.0,4.0,4.0,0.0,2.0,2.0,337.8997649997473,4.0,1.0,part_1,,,,,,,,,,,,,gray,square
53.0,5.0,1.0,1.0,2.0,2.0,324.2545872926712,4.0,1.0,part_1,,,,,,,,,,,,,blue,cross
0.0,5.0,1.0,1.0,5.0,0.0,0.0,1.0,0.0,part_2,stop,250.0,250.0,4.0,,,,,,,,,blue,cross
0.0,5.0,1.0,1.0,5.0,5.0,451.0832596570253,1.0,0.0,part_2,go,300.0,250.0,1.0,,,,,,,,,blue,cross
0.0,1.0,1.0,0.0,6.0,6.0,361.8742004036903,1.0,0.0,part_2,go,300.0,250.0,1.0,,,,,,,,,magenta,triangle
0.0,3.0,3.0,0.0,6.0,6.0,466.6629694402218,1.0,0.0,part_2,go,300.0,250.0,1.0,,,,,,,,,green,circle
0.0,3.0,3.0,0.0,6.0,6.0,321.238599717617,1.0,0.0,part_2,go,300.0,250.0,1.0,,,,,,,,,green,circle
0.0,7.0,3.0,1.0,6.0,6.0,336.7073610424995,1.0,0.0,part_2,stop,300.0,250.0,3.0,,,,,,,,,yellow,hexagon
0.0,7.0,3.0,1.0,6.0,6.0,570.1089017093182,1.0,0.0,part_2,go,300.0,200.0,1.0,,,,,,,,,yellow,hexagon
0.0,5.0,1.0,1.0,5.0,5.0,346.4260417968035,1.0,0.0,part_2,stop,300.0,200.0,3.0,,,,,,,,,blue,cross
0.0,3.0,3.0,0.0,6.0,6.0,481.7943889647722,1.0,0.0,part_2,go,250.0,200.0,1.0,,,,,,,,,green,circle
0.0,6.0,2.0,1.0,6.0,6.0,399.7723255306482,1.0,0.0,part_2,stop,250.0,200.0,3.0,,,,,,,,,white,diamond
0.0,6.0,2.0,1.0,6.0,0.0,0.0,1.0,0.0,part_2,stop,250.0,150.0,4.0,,,,,,,,,white,diamond
0.0,4.0,4.0,0.0,5.0,5.0,629.307733848691,1.0,0.0,part_2,go,250.0,200.0,1.0,,,,,,,,,gray,square
0.0,7.0,3.0,1.0,5.0,5.0,724.4618944823742,1.0,0.0,part_2,go,250.0,200.0,1.0,,,,,,,,,yellow,hexagon
0.0,5.0,1.0,1.0,6.0,6.0,477.3792270570993,1.0,0.0,part_2,go,250.0,200.0,1.0,,,,,,,,,blue,cross
0.0,8.0,4.0,1.0,6.0,0.0,0.0,1.0,0.0,part_2,stop,250.0,200.0,4.0,,,,,,,,,orange,I
0.0,2.0,2.0,0.0,5.0,5.0,510.01619547605515,1.0,0.0,part_2,go,250.0,250.0,1.0,,,,,,,,,cyan,flipped triangle
0.0,6.0,2.0,1.0,5.0,5.0,387.8391422331333,1.0,0.0,part_2,go,250.0,250.0,1.0,,,,,,,,,white,diamond
0.0,5.0,1.0,1.0,6.0,0.0,0.0,1.0,0.0,part_2,stop,250.0,250.0,4.0,,,,,,,,,blue,cross
0.0,6.0,2.0,1.0,5.0,0.0,0.0,1.0,0.0,part_2,stop,250.0,300.0,4.0,,,,,,,,,white,diamond
0.0,1.0,1.0,0.0,6.0,6.0,458.4965892136097,1.0,0.0,part_2,go,300.0,300.0,1.0,,,,,,,,,magenta,triangle
0.0,6.0,2.0,1.0,5.0,5.0,616.5697351098061,1.0,0.0,part_2,go,300.0,300.0,1.0,,,,,,,,,white,diamond
0.0,8.0,4.0,1.0,6.0,0.0,0.0,1.0,0.0,part_2,stop,300.0,300.0,4.0,,,,,,,,,orange,I
0.0,7.0,3.0,1.0,6.0,0.0,0.0,1.0,0.0,part_2,stop,300.0,350.0,4.0,,,,,,,,,yellow,hexagon
0.0,4.0,4.0,0.0,5.0,5.0,553.2523524016142,1.0,0.0,part_2,go,300.0,400.0,1.0,,,,,,,,,gray,square
0.0,3.0,3.0,0.0,6.0,6.0,424.2694284766912,1.0,0.0,part_2,go,300.0,400.0,1.0,,,,,,,,,green,circle
0.0,3.0,3.0,0.0,5.0,5.0,488.2696885615587,1.0,0.0,part_2,go,300.0,400.0,1.0,,,,,,,,,green,circle
0.0,2.0,2.0,0.0,6.0,6.0,460.3005088865757,1.0,0.0,part_2,go,300.0,400.0,1.0,,,,,,,,,cyan,flipped triangle
0.0,8.0,4.0,1.0,6.0,6.0,564.9250950664282,1.0,0.0,part_2,stop,300.0,400.0,3.0,,,,,,,,,orange,I
0.0,2.0,2.0,0.0,5.0,5.0,589.0102442353964,1.0,0.0,part_2,go,300.0,350.0,1.0,,,,,,,,,cyan,flipped triangle
0.0,1.0,1.0,0.0,6.0,6.0,565.0986153632402,1.0,0.0,part_2,go,300.0,350.0,1.0,,,,,,,,,magenta,triangle
0.0,2.0,2.0,0.0,6.0,6.0,634.1842357069254,1.0,0.0,part_2,go,300.0,350.0,1.0,,,,,,,,,cyan,flipped triangle
0.0,6.0,2.0,1.0,6.0,0.0,0.0,1.0,0.0,part_2,stop,300.0,350.0,4.0,,,,,,,,,white,diamond
0.0,8.0,4.0,1.0,6.0,0.0,0.0,1.0,0.0,part_2,stop,300.0,400.0,4.0,,,,,,,,,orange,I
0.0,6.0,2.0,1.0,6.0,6.0,576.8016912043095,1.0,0.0,part_2,stop,300.0,450.0,3.0,,,,,,,,,white,diamond
0.0,2.0,2.0,0.0,6.0,6.0,579.3184246867895,1.0,0.0,part_2,go,300.0,400.0,1.0,,,,,,,,,cyan,flipped triangle
0.0,3.0,3.0,0.0,5.0,5.0,899.4592782109976,1.0,0.0,part_2,go,300.0,400.0,1.0,,,,,,,,,green,circle
0.0,5.0,1.0,1.0,6.0,0.0,0.0,2.0,0.0,part_2,stop,300.0,400.0,4.0,,,,,,,,,blue,cross
0.0,8.0,4.0,1.0,5.0,0.0,0.0,2.0,0.0,part_2,stop,300.0,450.0,4.0,,,,,,,,,orange,I
0.0,3.0,3.0,0.0,5.0,5.0,609.6505522727966,2.0,0.0,part_2,go,350.0,450.0,1.0,,,,,,,,,green,circle
0.0,5.0,1.0,1.0,6.0,0.0,0.0,2.0,0.0,part_2,stop,350.0,450.0,4.0,,,,,,,,,blue,cross
0.0,3.0,3.0,0.0,5.0,5.0,422.0006205141544,2.0,0.0,part_2,go,350.0,500.0,1.0,,,,,,,,,green,circle
0.0,2.0,2.0,0.0,5.0,5.0,551.9818924367428,2.0,0.0,part_2,go,350.0,500.0,1.0,,,,,,,,,cyan,flipped triangle
0.0,6.0,2.0,1.0,6.0,6.0,635.7905939221382,2.0,0.0,part_2,go,350.0,500.0,1.0,,,,,,,,,white,diamond
0.0,1.0,1.0,0.0,5.0,5.0,574.6729355305433,2.0,0.0,part_2,go,350.0,500.0,1.0,,,,,,,,,magenta,triangle
0.0,7.0,3.0,1.0,6.0,6.0,658.2504212856293,2.0,0.0,part_2,go,350.0,500.0,1.0,,,,,,,,,yellow,hexagon
0.0,8.0,4.0,1.0,5.0,0.0,0.0,2.0,0.0,part_2,stop,350.0,500.0,4.0,,,,,,,,,orange,I
0.0,1.0,1.0,0.0,6.0,6.0,460.4078773409128,2.0,0.0,part_2,go,400.0,500.0,1.0,,,,,,,,,magenta,triangle
0.0,7.0,3.0,1.0,6.0,6.0,467.8850714117288,2.0,0.0,part_2,stop,400.0,500.0,3.0,,,,,,,,,yellow,hexagon
0.0,4.0,4.0,0.0,6.0,6.0,639.8496441543102,2.0,0.0,part_2,go,400.0,450.0,1.0,,,,,,,,,gray,square
0.0,4.0,4.0,0.0,6.0,6.0,674.723980948329,2.0,0.0,part_2,go,400.0,450.0,1.0,,,,,,,,,gray,square
0.0,6.0,2.0,1.0,6.0,0.0,0.0,2.0,0.0,part_2,stop,400.0,450.0,4.0,,,,,,,,,white,diamond
0.0,2.0,2.0,0.0,6.0,6.0,606.3042636960745,2.0,0.0,part_2,go,400.0,500.0,1.0,,,,,,,,,cyan,flipped triangle
0.0,1.0,1.0,0.0,6.0,6.0,687.8454498946667,2.0,0.0,part_2,go,400.0,500.0,1.0,,,,,,,,,magenta,triangle
0.0,2.0,2.0,0.0,6.0,6.0,639.4807007163763,2.0,0.0,part_2,go,400.0,500.0,1.0,,,,,,,,,cyan,flipped triangle
0.0,7.0,3.0,1.0,5.0,0.0,0.0,2.0,0.0,part_2,stop,400.0,500.0,4.0,,,,,,,,,yellow,hexagon
0.0,3.0,3.0,0.0,6.0,6.0,587.7672079950571,2.0,0.0,part_2,go,450.0,500.0,1.0,,,,,,,,,green,circle
0.0,8.0,4.0,1.0,6.0,6.0,519.49742436409,2.0,0.0,part_2,stop,450.0,500.0,3.0,,,,,,,,,orange,I
0.0,1.0,1.0,0.0,5.0,5.0,627.4519450962543,2.0,0.0,part_2,go,450.0,450.0,1.0,,,,,,,,,magenta,triangle
0.0,7.0,3.0,1.0,6.0,0.0,0.0,2.0,0.0,part_2,stop,450.0,450.0,4.0,,,,,,,,,yellow,hexagon
0.0,2.0,2.0,0.0,5.0,5.0,429.0437325835228,2.0,0.0,part_2,go,450.0,500.0,1.0,,,,,,,,,cyan,flipped triangle
0.0,4.0,4.0,0.0,6.0,6.0,833.508362993598,2.0,0.0,part_2,go,450.0,500.0,1.0,,,,,,,,,gray,square
0.0,5.0,1.0,1.0,6.0,0.0,0.0,2.0,0.0,part_2,stop,450.0,500.0,4.0,,,,,,,,,blue,cross
0.0,1.0,1.0,0.0,6.0,6.0,729.1536722332239,2.0,0.0,part_2,go,450.0,550.0,1.0,,,,,,,,,magenta,triangle
0.0,7.0,3.0,1.0,5.0,0.0,0.0,2.0,0.0,part_2,stop,450.0,550.0,4.0,,,,,,,,,yellow,hexagon
0.0,6.0,2.0,1.0,6.0,6.0,666.1892160773277,2.0,0.0,part_2,stop,500.0,550.0,3.0,,,,,,,,,white,diamond
0.0,2.0,2.0,0.0,6.0,6.0,686.454439535737,2.0,0.0,part_2,go,500.0,500.0,1.0,,,,,,,,,cyan,flipped triangle
0.0,6.0,2.0,1.0,5.0,5.0,647.9608453810215,2.0,0.0,part_2,go,500.0,500.0,1.0,,,,,,,,,white,diamond
0.0,5.0,1.0,1.0,5.0,0.0,0.0,2.0,0.0,part_2,stop,500.0,500.0,4.0,,,,,,,,,blue,cross
0.0,1.0,1.0,0.0,6.0,6.0,783.6159896105528,2.0,0.0,part_2,go,550.0,500.0,1.0,,,,,,,,,magenta,triangle
0.0,3.0,3.0,0.0,5.0,5.0,632.3685273528099,2.0,0.0,part_2,go,550.0,500.0,1.0,,,,,,,,,green,circle
0.0,6.0,2.0,1.0,6.0,0.0,0.0,2.0,0.0,part_2,stop,550.0,500.0,4.0,,,,,,,,,white,diamond
0.0,3.0,3.0,0.0,5.0,5.0,630.0872396677732,2.0,0.0,part_2,go,550.0,550.0,1.0,,,,,,,,,green,circle
0.0,5.0,1.0,1.0,6.0,0.0,0.0,3.0,0.0,part_2,stop,550.0,550.0,4.0,,,,,,,,,blue,cross
0.0,4.0,4.0,0.0,5.0,5.0,612.8807999193668,3.0,0.0,part_2,go,550.0,600.0,1.0,,,,,,,,,gray,square
0.0,4.0,4.0,0.0,5.0,5.0,428.8971852511167,3.0,0.0,part_2,go,550.0,600.0,1.0,,,,,,,,,gray,square
0.0,2.0,2.0,0.0,5.0,5.0,614.1229178756475,3.0,0.0,part_2,go,550.0,600.0,1.0,,,,,,,,,cyan,flipped triangle
0.0,6.0,2.0,1.0,5.0,0.0,0.0,3.0,0.0,part_2,stop,550.0,600.0,4.0,,,,,,,,,white,diamond
0.0,5.0,1.0,1.0,5.0,5.0,627.6188362389803,3.0,0.0,part_2,stop,600.0,600.0,3.0,,,,,,,,,blue,cross
0.0,3.0,3.0,0.0,6.0,6.0,452.544592320919,3.0,0.0,part_2,go,550.0,600.0,1.0,,,,,,,,,green,circle
0.0,5.0,1.0,1.0,5.0,5.0,530.4212756454945,3.0,0.0,part_2,stop,550.0,600.0,3.0,,,,,,,,,blue,cross
0.0,5.0,1.0,1.0,6.0,6.0,697.3469648510218,3.0,0.0,part_2,stop,500.0,600.0,3.0,,,,,,,,,blue,cross
0.0,8.0,4.0,1.0,5.0,5.0,812.3478088527918,3.0,0.0,part_2,go,500.0,550.0,1.0,,,,,,,,,orange,I
0.0,2.0,2.0,0.0,5.0,5.0,424.4994428008795,3.0,0.0,part_2,go,500.0,550.0,1.0,,,,,,,,,cyan,flipped triangle
0.0,3.0,3.0,0.0,5.0,5.0,570.5107487738132,3.0,0.0,part_2,go,500.0,550.0,1.0,,,,,,,,,green,circle
0.0,3.0,3.0,0.0,6.0,6.0,887.2101400047541,3.0,0.0,part_2,go,500.0,550.0,1.0,,,,,,,,,green,circle
0.0,1.0,1.0,0.0,5.0,5.0,832.3503211140633,3.0,0.0,part_2,go,500.0,550.0,1.0,,,,,,,,,magenta,triangle
0.0,8.0,4.0,1.0,6.0,6.0,425.7330037653446,3.0,0.0,part_2,stop,500.0,550.0,3.0,,,,,,,,,orange,I
0.0,8.0,4.0,1.0,6.0,6.0,641.0298962146044,3.0,0.0,part_2,go,500.0,500.0,1.0,,,,,,,,,orange,I
0.0,1.0,1.0,0.0,5.0,5.0,444.5187672972679,3.0,0.0,part_2,go,500.0,500.0,1.0,,,,,,,,,magenta,triangle
0.0,2.0,2.0,0.0,6.0,6.0,1052.4871610105038,3.0,0.0,part_2,go,500.0,500.0,1.0,,,,,,,,,cyan,flipped triangle
0.0,4.0,4.0,0.0,6.0,6.0,631.5381433814764,3.0,0.0,part_2,go,500.0,500.0,1.0,,,,,,,,,gray,square
0.0,7.0,3.0,1.0,5.0,0.0,0.0,3.0,0.0,part_2,stop,500.0,500.0,4.0,,,,,,,,,yellow,hexagon
0.0,1.0,1.0,0.0,5.0,5.0,700.2781983464956,3.0,0.0,part_2,go,550.0,500.0,1.0,,,,,,,,,magenta,triangle
0.0,8.0,4.0,1.0,6.0,6.0,889.3780130892992,3.0,0.0,part_2,go,550.0,500.0,1.0,,,,,,,,,orange,I
0.0,8.0,4.0,1.0,5.0,5.0,419.6887742727995,3.0,0.0,part_2,stop,550.0,500.0,3.0,,,,,,,,,orange,I
0.0,2.0,2.0,0.0,5.0,5.0,568.7840599566698,3.0,0.0,part_2,go,500.0,500.0,1.0,,,,,,,,,cyan,flipped triangle
0.0,6.0,2.0,1.0,5.0,0.0,0.0,3.0,0.0,part_2,stop,500.0,500.0,4.0,,,,,,,,,white,diamond
0.0,3.0,3.0,0.0,6.0,6.0,559.330090880394,3.0,0.0,part_2,go,550.0,500.0,1.0,,,,,,,,,green,circle
0.0,5.0,1.0,1.0,6.0,6.0,367.3203624784946,3.0,0.0,part_2,stop,550.0,500.0,3.0,,,,,,,,,blue,cross
0.0,2.0,2.0,0.0,5.0,5.0,559.2208579182625,3.0,0.0,part_2,go,550.0,450.0,1.0,,,,,,,,,cyan,flipped triangle
0.0,7.0,3.0,1.0,6.0,6.0,310.0101333111524,3.0,0.0,part_2,stop,550.0,450.0,3.0,,,,,,,,,yellow,hexagon
0.0,6.0,2.0,1.0,6.0,6.0,640.4395196586847,3.0,0.0,part_2,go,550.0,400.0,1.0,,,,,,,,,white,diamond
0.0,5.0,1.0,1.0,6.0,6.0,519.041882827878,3.0,0.0,part_2,stop,550.0,400.0,3.0,,,,,,,,,blue,cross
0.0,4.0,4.0,0.0,6.0,6.0,652.3225642740726,3.0,0.0,part_2,go,550.0,350.0,1.0,,,,,,,,,gray,square
0.0,1.0,1.0,0.0,5.0,5.0,607.7377628535032,3.0,0.0,part_2,go,550.0,350.0,1.0,,,,,,,,,magenta,triangle
0.0,8.0,4.0,1.0,5.0,5.0,638.0089595913887,3.0,0.0,part_2,stop,550.0,350.0,3.0,,,,,,,,,orange,I
0.0,5.0,1.0,1.0,5.0,0.0,0.0,3.0,0.0,part_2,stop,500.0,350.0,4.0,,,,,,,,,blue,cross
0.0,3.0,3.0,0.0,6.0,6.0,461.3562859594822,3.0,0.0,part_2,go,550.0,350.0,1.0,,,,,,,,,green,circle
0.0,2.0,2.0,0.0,5.0,5.0,370.6674557179212,4.0,0.0,part_2,go,550.0,350.0,1.0,,,,,,,,,cyan,flipped triangle
0.0,6.0,2.0,1.0,5.0,5.0,411.6496685892343,4.0,0.0,part_2,stop,550.0,350.0,3.0,,,,,,,,,white,diamond
0.0,6.0,2.0,1.0,5.0,5.0,570.7330647855997,4.0,0.0,part_2,stop,500.0,350.0,3.0,,,,,,,,,white,diamond
0.0,7.0,3.0,1.0,5.0,0.0,0.0,4.0,0.0,part_2,stop,450.0,350.0,4.0,,,,,,,,,yellow,hexagon
0.0,8.0,4.0,1.0,5.0,5.0,719.945915043354,4.0,0.0,part_2,go,500.0,350.0,1.0,,,,,,,,,orange,I
0.0,7.0,3.0,1.0,6.0,0.0,0.0,4.0,0.0,part_2,stop,500.0,350.0,4.0,,,,,,,,,yellow,hexagon
0.0,1.0,1.0,0.0,5.0,5.0,550.3884069621563,4.0,0.0,part_2,go,500.0,400.0,1.0,,,,,,,,,magenta,triangle
0.0,6.0,2.0,1.0,5.0,5.0,527.8763603419065,4.0,0.0,part_2,stop,500.0,400.0,3.0,,,,,,,,,white,diamond
0.0,6.0,2.0,1.0,5.0,5.0,551.0513130575418,4.0,0.0,part_2,go,450.0,400.0,1.0,,,,,,,,,white,diamond
0.0,2.0,2.0,0.0,6.0,6.0,573.2766166329384,4.0,0.0,part_2,go,450.0,400.0,1.0,,,,,,,,,cyan,flipped triangle
0.0,1.0,1.0,0.0,5.0,5.0,382.7035240828991,4.0,0.0,part_2,go,450.0,400.0,1.0,,,,,,,,,magenta,triangle
0.0,2.0,2.0,0.0,5.0,5.0,611.51865683496,4.0,0.0,part_2,go,450.0,400.0,1.0,,,,,,,,,cyan,flipped triangle
0.0,8.0,4.0,1.0,5.0,5.0,411.627585068345,4.0,0.0,part_2,go,450.0,400.0,1.0,,,,,,,,,orange,I
0.0,8.0,4.0,1.0,5.0,5.0,340.6482227146625,4.0,0.0,part_2,stop,450.0,400.0,3.0,,,,,,,,,orange,I
0.0,4.0,4.0,0.0,5.0,5.0,427.5444280356169,4.0,0.0,part_2,go,400.0,400.0,1.0,,,,,,,,,gray,square
0.0,1.0,1.0,0.0,6.0,6.0,515.3444111347198,4.0,0.0,part_2,go,400.0,400.0,1.0,,,,,,,,,magenta,triangle
0.0,3.0,3.0,0.0,6.0,6.0,387.8464214503765,4.0,0.0,part_2,go,400.0,400.0,1.0,,,,,,,,,green,circle
0.0,4.0,4.0,0.0,5.0,5.0,386.1595299094915,4.0,0.0,part_2,go,400.0,400.0,1.0,,,,,,,,,gray,square
0.0,1.0,1.0,0.0,5.0,5.0,410.0158438086509,4.0,0.0,part_2,go,400.0,400.0,1.0,,,,,,,,,magenta,triangle
0.0,5.0,1.0,1.0,5.0,0.0,0.0,4.0,0.0,part_2,stop,400.0,400.0,4.0,,,,,,,,,blue,cross
0.0,5.0,1.0,1.0,5.0,5.0,542.3835478723049,4.0,0.0,part_2,go,450.0,400.0,1.0,,,,,,,,,blue,cross
0.0,3.0,3.0,0.0,5.0,5.0,440.7592788338661,4.0,0.0,part_2,go,450.0,400.0,1.0,,,,,,,,,green,circle
0.0,8.0,4.0,1.0,6.0,0.0,0.0,4.0,0.0,part_2,stop,450.0,400.0,4.0,,,,,,,,,orange,I
0.0,6.0,2.0,1.0,6.0,6.0,475.77236592769617,4.0,0.0,part_2,stop,450.0,450.0,3.0,,,,,,,,,white,diamond
0.0,1.0,1.0,0.0,6.0,6.0,596.4871644973755,4.0,0.0,part_2,go,450.0,400.0,1.0,,,,,,,,,magenta,triangle
0.0,3.0,3.0,0.0,5.0,5.0,356.3661463558674,4.0,0.0,part_2,go,450.0,400.0,1.0,,,,,,,,,green,circle
0.0,8.0,4.0,1.0,6.0,0.0,0.0,4.0,0.0,part_2,stop,450.0,400.0,4.0,,,,,,,,,orange,I
0.0,4.0,4.0,0.0,5.0,5.0,478.3138800412416,4.0,0.0,part_2,go,450.0,450.0,1.0,,,,,,,,,gray,square
0.0,8.0,4.0,1.0,6.0,6.0,547.1110343933105,4.0,0.0,part_2,stop,450.0,450.0,3.0,,,,,,,,,orange,I
0.0,2.0,2.0,0.0,5.0,5.0,370.1737821102142,4.0,0.0,part_2,go,450.0,400.0,1.0,,,,,,,,,cyan,flipped triangle
0.0,6.0,2.0,1.0,5.0,5.0,416.8891254812479,4.0,0.0,part_2,go,450.0,400.0,1.0,,,,,,,,,white,diamond
0.0,3.0,3.0,0.0,5.0,5.0,369.1833298653364,4.0,0.0,part_2,go,450.0,400.0,1.0,,,,,,,,,green,circle
0.0,3.0,3.0,0.0,6.0,6.0,481.8756133317947,4.0,0.0,part_2,go,450.0,400.0,1.0,,,,,,,,,green,circle
0.0,1.0,1.0,0.0,6.0,6.0,435.3866893798113,4.0,0.0,part_2,go,450.0,400.0,1.0,,,,,,,,,magenta,triangle
0.0,6.0,2.0,1.0,6.0,6.0,377.6866756379604,4.0,0.0,part_2,stop,450.0,400.0,3.0,,,,,,,,,white,diamond
0.0,1.0,1.0,0.0,5.0,5.0,407.9255443066358,4.0,0.0,part_2,go,450.0,350.0,1.0,,,,,,,,,magenta,triangle
0.0,3.0,3.0,0.0,6.0,6.0,526.8473755568266,5.0,0.0,part_2,go,450.0,350.0,1.0,,,,,,,,,green,circle
0.0,5.0,1.0,1.0,5.0,5.0,469.2043457180261,5.0,0.0,part_2,go,450.0,350.0,1.0,,,,,,,,,blue,cross
0.0,1.0,1.0,0.0,6.0,6.0,378.7715267390013,5.0,0.0,part_2,go,450.0,350.0,1.0,,,,,,,,,magenta,triangle
0.0,1.0,1.0,0.0,6.0,6.0,500.26425160467625,5.0,0.0,part_2,go,450.0,350.0,1.0,,,,,,,,,magenta,triangle
0.0,3.0,3.0,0.0,5.0,5.0,451.4923319220543,5.0,0.0,part_2,go,450.0,350.0,1.0,,,,,,,,,green,circle
0.0,6.0,2.0,1.0,6.0,6.0,466.9655095785856,5.0,0.0,part_2,stop,450.0,350.0,3.0,,,,,,,,,white,diamond
0.0,8.0,4.0,1.0,5.0,5.0,387.5010889023542,5.0,0.0,part_2,stop,450.0,300.0,3.0,,,,,,,,,orange,I
0.0,1.0,1.0,0.0,6.0,6.0,640.1133462786674,5.0,0.0,part_2,go,400.0,300.0,1.0,,,,,,,,,magenta,triangle
0.0,2.0,2.0,0.0,6.0,6.0,511.67665235698223,5.0,0.0,part_2,go,400.0,300.0,1.0,,,,,,,,,cyan,flipped triangle
0.0,8.0,4.0,1.0,5.0,0.0,0.0,5.0,0.0,part_2,stop,400.0,300.0,4.0,,,,,,,,,orange,I
0.0,5.0,1.0,1.0,6.0,0.0,0.0,5.0,0.0,part_2,stop,450.0,300.0,4.0,,,,,,,,,blue,cross
0.0,8.0,4.0,1.0,5.0,0.0,0.0,5.0,0.0,part_2,stop,450.0,350.0,4.0,,,,,,,,,orange,I
0.0,4.0,4.0,0.0,5.0,5.0,565.8989790827036,5.0,0.0,part_2,go,500.0,350.0,1.0,,,,,,,,,gray,square
0.0,6.0,2.0,1.0,6.0,6.0,415.6575351953506,5.0,0.0,part_2,go,500.0,350.0,1.0,,,,,,,,,white,diamond
0.0,2.0,2.0,0.0,6.0,6.0,573.1373000890017,5.0,0.0,part_2,go,500.0,350.0,1.0,,,,,,,,,cyan,flipped triangle
0.0,1.0,1.0,0.0,5.0,5.0,395.409682765603,5.0,0.0,part_2,go,500.0,350.0,1.0,,,,,,,,,magenta,triangle
0.0,7.0,3.0,1.0,5.0,5.0,413.1297636777162,5.0,0.0,part_2,stop,500.0,350.0,3.0,,,,,,,,,yellow,hexagon
0.0,3.0,3.0,0.0,6.0,6.0,562.4719616025686,5.0,0.0,part_2,go,450.0,350.0,1.0,,,,,,,,,green,circle
0.0,8.0,4.0,1.0,6.0,6.0,594.9476957321167,5.0,0.0,part_2,go,450.0,350.0,1.0,,,,,,,,,orange,I
0.0,3.0,3.0,0.0,5.0,5.0,345.9342010319233,5.0,0.0,part_2,go,450.0,350.0,1.0,,,,,,,,,green,circle
0.0,4.0,4.0,0.0,6.0,6.0,320.872476324439,5.0,0.0,part_2,go,450.0,350.0,1.0,,,,,,,,,gray,square
0.0,6.0,2.0,1.0,6.0,6.0,404.0173254907131,5.0,0.0,part_2,stop,450.0,350.0,3.0,,,,,,,,,white,diamond
0.0,2.0,2.0,0.0,6.0,6.0,759.7231473773718,5.0,0.0,part_2,go,450.0,300.0,1.0,,,,,,,,,cyan,flipped triangle
0.0,7.0,3.0,1.0,6.0,0.0,0.0,5.0,0.0,part_2,stop,450.0,300.0,4.0,,,,,,,,,yellow,hexagon
0.0,1.0,1.0,0.0,6.0,6.0,640.016557648778,5.0,0.0,part_2,go,450.0,350.0,1.0,,,,,,,,,magenta,triangle
0.0,6.0,2.0,1.0,6.0,6.0,408.8586270809173,5.0,0.0,part_2,stop,450.0,350.0,3.0,,,,,,,,,white,diamond
0.0,2.0,2.0,0.0,6.0,6.0,424.0392073988914,5.0,0.0,part_2,go,450.0,300.0,1.0,,,,,,,,,cyan,flipped triangle
0.0,4.0,4.0,0.0,6.0,6.0,350.4244275391102,5.0,0.0,part_2,go,450.0,300.0,1.0,,,,,,,,,gray,square
0.0,4.0,4.0,0.0,5.0,5.0,388.1267718970775,5.0,0.0,part_2,go,450.0,300.0,1.0,,,,,,,,,gray,square
0.0,5.0,1.0,1.0,5.0,5.0,603.8777884095907,5.0,0.0,part_2,stop,450.0,300.0,3.0,,,,,,,,,blue,cross
0.0,3.0,3.0,0.0,6.0,6.0,475.2101823687553,5.0,0.0,part_2,go,400.0,300.0,1.0,,,,,,,,,green,circle
0.0,7.0,3.0,1.0,6.0,6.0,443.5194823890924,5.0,0.0,part_2,stop,400.0,300.0,3.0,,,,,,,,,yellow,hexagon
0.0,5.0,1.0,1.0,5.0,5.0,557.4682392179966,5.0,0.0,part_2,stop,400.0,250.0,3.0,,,,,,,,,blue,cross
0.0,6.0,2.0,1.0,6.0,0.0,0.0,5.0,0.0,part_2,stop,350.0,250.0,4.0,,,,,,,,,white,diamond
0.0,2.0,2.0,0.0,5.0,5.0,708.2270681858063,5.0,0.0,part_2,go,350.0,300.0,1.0,,,,,,,,,cyan,flipped triangle
0.0,4.0,4.0,0.0,6.0,6.0,548.513213172555,5.0,0.0,part_2,go,350.0,300.0,1.0,,,,,,,,,gray,square
0.0,1.0,1.0,0.0,6.0,6.0,530.3981304168701,6.0,0.0,part_2,go,350.0,300.0,1.0,,,,,,,,,magenta,triangle
0.0,6.0,2.0,1.0,5.0,5.0,461.2800646573305,6.0,0.0,part_2,stop,350.0,300.0,3.0,,,,,,,,,white,diamond
0.0,3.0,3.0,0.0,6.0,6.0,565.0645364075899,6.0,0.0,part_2,go,300.0,300.0,1.0,,,,,,,,,green,circle
0.0,1.0,1.0,0.0,5.0,5.0,520.900659263134,6.0,0.0,part_2,go,300.0,300.0,1.0,,,,,,,,,magenta,triangle
0.0,8.0,4.0,1.0,6.0,6.0,443.663889542222,6.0,0.0,part_2,stop,300.0,300.0,3.0,,,,,,,,,orange,I
0.0,4.0,4.0,0.0,5.0,5.0,395.9010802209377,6.0,0.0,part_2,go,300.0,250.0,1.0,,,,,,,,,gray,square
0.0,3.0,3.0,0.0,6.0,6.0,623.2331320643425,6.0,0.0,part_2,go,300.0,250.0,1.0,,,,,,,,,green,circle
0.0,4.0,4.0,0.0,5.0,5.0,354.5671105384826,6.0,0.0,part_2,go,300.0,250.0,1.0,,,,,,,,,gray,square
0.0,8.0,4.0,1.0,5.0,5.0,457.0457022637129,6.0,0.0,part_2,go,300.0,250.0,1.0,,,,,,,,,orange,I
0.0,7.0,3.0,1.0,5.0,0.0,0.0,6.0,0.0,part_2,stop,300.0,250.0,4.0,,,,,,,,,yellow,hexagon
0.0,4.0,4.0,0.0,6.0,6.0,669.8853317648172,6.0,0.0,part_2,go,350.0,250.0,1.0,,,,,,,,,gray,square
0.0,3.0,3.0,0.0,6.0,6.0,660.8065366744995,6.0,0.0,part_2,go,350.0,250.0,1.0,,,,,,,,,green,circle
0.0,3.0,3.0,0.0,5.0,5.0,469.7366561740637,6.0,0.0,part_2,go,350.0,250.0,1.0,,,,,,,,,green,circle
0.0,4.0,4.0,0.0,5.0,5.0,629.996620118618,6.0,0.0,part_2,go,350.0,250.0,1.0,,,,,,,,,gray,square
0.0,1.0,1.0,0.0,6.0,6.0,549.5804790407419,6.0,0.0,part_2,go,350.0,250.0,1.0,,,,,,,,,magenta,triangle
0.0,2.0,2.0,0.0,6.0,6.0,514.0980333089828,6.0,0.0,part_2,go,350.0,250.0,1.0,,,,,,,,,cyan,flipped triangle
0.0,5.0,1.0,1.0,6.0,6.0,445.4752430319786,6.0,0.0,part_2,stop,350.0,250.0,3.0,,,,,,,,,blue,cross
0.0,2.0,2.0,0.0,6.0,6.0,581.0755304992199,6.0,0.0,part_2,go,350.0,200.0,1.0,,,,,,,,,cyan,flipped triangle
0.0,7.0,3.0,1.0,5.0,5.0,408.7154138833284,6.0,0.0,part_2,stop,350.0,200.0,3.0,,,,,,,,,yellow,hexagon
0.0,7.0,3.0,1.0,6.0,6.0,729.2306572198868,6.0,0.0,part_2,stop,300.0,200.0,3.0,,,,,,,,,yellow,hexagon
0.0,1.0,1.0,0.0,5.0,5.0,658.3658531308174,6.0,0.0,part_2,go,300.0,150.0,1.0,,,,,,,,,magenta,triangle
0.0,5.0,1.0,1.0,6.0,0.0,0.0,6.0,0.0,part_2,stop,300.0,150.0,4.0,,,,,,,,,blue,cross
0.0,8.0,4.0,1.0,5.0,0.0,0.0,6.0,0.0,part_2,stop,300.0,200.0,4.0,,,,,,,,,orange,I
0.0,4.0,4.0,0.0,5.0,5.0,696.0227712988853,6.0,0.0,part_2,go,350.0,200.0,1.0,,,,,,,,,gray,square
0.0,8.0,4.0,1.0,6.0,0.0,0.0,6.0,0.0,part_2,stop,350.0,200.0,4.0,,,,,,,,,orange,I
0.0,6.0,2.0,1.0,6.0,0.0,0.0,6.0,0.0,part_2,stop,350.0,250.0,4.0,,,,,,,,,white,diamond
0.0,4.0,4.0,0.0,5.0,5.0,621.9535171985626,6.0,0.0,part_2,go,350.0,300.0,1.0,,,,,,,,,gray,square
0.0,1.0,1.0,0.0,6.0,6.0,683.9973200112581,6.0,0.0,part_2,go,350.0,300.0,1.0,,,,,,,,,magenta,triangle
0.0,4.0,4.0,0.0,6.0,6.0,627.9165782034397,6.0,0.0,part_2,go,350.0,300.0,1.0,,,,,,,,,gray,square
0.0,4.0,4.0,0.0,6.0,6.0,501.96442008018494,6.0,0.0,part_2,go,350.0,300.0,1.0,,,,,,,,,gray,square
0.0,4.0,4.0,0.0,6.0,6.0,562.839163467288,6.0,0.0,part_2,go,350.0,300.0,1.0,,,,,,,,,gray,square
0.0,7.0,3.0,1.0,6.0,0.0,0.0,6.0,0.0,part_2,stop,350.0,300.0,4.0,,,,,,,,,yellow,hexagon
0.0,4.0,4.0,0.0,6.0,6.0,592.9806660860777,6.0,0.0,part_2,go,350.0,350.0,1.0,,,,,,,,,gray,square
0.0,7.0,3.0,1.0,5.0,5.0,641.9096309691668,6.0,0.0,part_2,go,350.0,350.0,1.0,,,,,,,,,yellow,hexagon
0.0,8.0,4.0,1.0,6.0,0.0,0.0,6.0,0.0,part_2,stop,350.0,350.0,4.0,,,,,,,,,orange,I
0.0,8.0,4.0,1.0,6.0,0.0,0.0,6.0,0.0,part_2,stop,350.0,400.0,4.0,,,,,,,,,orange,I
0.0,6.0,2.0,1.0,5.0,5.0,407.9332295805216,7.0,0.0,part_2,stop,350.0,450.0,3.0,,,,,,,,,white,diamond
0.0,1.0,1.0,0.0,5.0,5.0,470.0851738452911,7.0,0.0,part_2,go,300.0,450.0,1.0,,,,,,,,,magenta,triangle
0.0,2.0,2.0,0.0,6.0,6.0,605.6275852024555,7.0,0.0,part_2,go,300.0,450.0,1.0,,,,,,,,,cyan,flipped triangle
0.0,3.0,3.0,0.0,6.0,6.0,747.2264934331179,7.0,0.0,part_2,go,300.0,450.0,1.0,,,,,,,,,green,circle
0.0,7.0,3.0,1.0,6.0,6.0,420.8288006484508,7.0,0.0,part_2,stop,300.0,450.0,3.0,,,,,,,,,yellow,hexagon
0.0,7.0,3.0,1.0,6.0,0.0,0.0,7.0,0.0,part_2,stop,300.0,400.0,4.0,,,,,,,,,yellow,hexagon
0.0,7.0,3.0,1.0,6.0,6.0,601.407140493393,7.0,0.0,part_2,stop,300.0,450.0,3.0,,,,,,,,,yellow,hexagon
0.0,3.0,3.0,0.0,5.0,5.0,568.2713203132153,7.0,0.0,part_2,go,300.0,400.0,1.0,,,,,,,,,green,circle
0.0,6.0,2.0,1.0,5.0,5.0,834.4133943319321,7.0,0.0,part_2,go,300.0,400.0,1.0,,,,,,,,,white,diamond
0.0,6.0,2.0,1.0,5.0,0.0,0.0,7.0,0.0,part_2,stop,300.0,400.0,4.0,,,,,,,,,white,diamond
0.0,7.0,3.0,1.0,5.0,0.0,0.0,7.0,0.0,part_2,stop,350.0,400.0,4.0,,,,,,,,,yellow,hexagon
0.0,2.0,2.0,0.0,5.0,5.0,662.05033659935,7.0,0.0,part_2,go,400.0,400.0,1.0,,,,,,,,,cyan,flipped triangle
0.0,8.0,4.0,1.0,6.0,0.0,0.0,7.0,0.0,part_2,stop,400.0,400.0,4.0,,,,,,,,,orange,I
0.0,5.0,1.0,1.0,6.0,0.0,0.0,7.0,0.0,part_2,stop,400.0,450.0,4.0,,,,,,,,,blue,cross
0.0,5.0,1.0,1.0,6.0,6.0,549.9015245586634,7.0,0.0,part_2,stop,400.0,500.0,3.0,,,,,,,,,blue,cross
0.0,4.0,4.0,0.0,5.0,5.0,695.1051577925682,7.0,0.0,part_2,go,400.0,450.0,1.0,,,,,,,,,gray,square
0.0,5.0,1.0,1.0,5.0,0.0,0.0,7.0,0.0,part_2,stop,400.0,450.0,4.0,,,,,,,,,blue,cross
0.0,3.0,3.0,0.0,5.0,5.0,915.83701223135,7.0,0.0,part_2,go,450.0,450.0,1.0,,,,,,,,,green,circle
0.0,8.0,4.0,1.0,6.0,6.0,796.9517037272453,7.0,0.0,part_2,go,450.0,450.0,1.0,,,,,,,,,orange,I
0.0,2.0,2.0,0.0,5.0,5.0,473.1561318039894,7.0,0.0,part_2,go,450.0,450.0,1.0,,,,,,,,,cyan,flipped triangle
0.0,5.0,1.0,1.0,6.0,6.0,394.90413852036,7.0,0.0,part_2,stop,450.0,450.0,3.0,,,,,,,,,blue,cross
0.0,7.0,3.0,1.0,5.0,5.0,393.7988504767418,7.0,0.0,part_2,stop,450.0,400.0,3.0,,,,,,,,,yellow,hexagon
0.0,5.0,1.0,1.0,5.0,5.0,612.0279729366302,7.0,0.0,part_2,go,400.0,400.0,1.0,,,,,,,,,blue,cross
0.0,3.0,3.0,0.0,5.0,5.0,442.0729260891676,7.0,0.0,part_2,go,400.0,400.0,1.0,,,,,,,,,green,circle
0.0,2.0,2.0,0.0,5.0,5.0,787.019768729806,7.0,0.0,part_2,go,400.0,400.0,1.0,,,,,,,,,cyan,flipped triangle
0.0,6.0,2.0,1.0,5.0,0.0,0.0,7.0,0.0,part_2,stop,400.0,400.0,4.0,,,,,,,,,white,diamond
0.0,2.0,2.0,0.0,6.0,6.0,391.5133755654096,7.0,0.0,part_2,go,450.0,400.0,1.0,,,,,,,,,cyan,flipped triangle
0.0,7.0,3.0,1.0,6.0,6.0,390.1213891804218,7.0,0.0,part_2,stop,450.0,400.0,3.0,,,,,,,,,yellow,hexagon
0.0,4.0,4.0,0.0,6.0,6.0,608.2147713750601,7.0,0.0,part_2,go,450.0,350.0,1.0,,,,,,,,,gray,square
0.0,6.0,2.0,1.0,5.0,5.0,613.9942333102226,7.0,0.0,part_2,stop,450.0,350.0,3.0,,,,,,,,,white,diamond
0.0,1.0,1.0,0.0,5.0,5.0,763.8516444712877,7.0,0.0,part_2,go,400.0,350.0,1.0,,,,,,,,,magenta,triangle
0.0,1.0,1.0,0.0,5.0,5.0,669.0080147236586,7.0,0.0,part_2,go,400.0,350.0,1.0,,,,,,,,,magenta,triangle
0.0,4.0,4.0,0.0,5.0,5.0,819.2210420966148,7.0,0.0,part_2,go,400.0,350.0,1.0,,,,,,,,,gray,square
0.0,2.0,2.0,0.0,5.0,5.0,652.7933441102505,7.0,0.0,part_2,go,400.0,350.0,1.0,,,,,,,,,cyan,flipped triangle
0.0,5.0,1.0,1.0,5.0,5.0,649.5126485824585,7.0,0.0,part_2,go,400.0,350.0,1.0,,,,,,,,,blue,cross
0.0,3.0,3.0,0.0,5.0,5.0,434.5479495823383,7.0,0.0,part_2,go,400.0,350.0,1.0,,,,,,,,,green,circle
0.0,6.0,2.0,1.0,6.0,6.0,459.9993489682674,8.0,0.0,part_2,stop,400.0,350.0,3.0,,,,,,,,,white,diamond
0.0,7.0,3.0,1.0,5.0,5.0,469.2863393574953,8.0,0.0,part_2,go,400.0,300.0,1.0,,,,,,,,,yellow,hexagon
0.0,4.0,4.0,0.0,6.0,6.0,494.4614041596651,8.0,0.0,part_2,go,400.0,300.0,1.0,,,,,,,,,gray,square
0.0,7.0,3.0,1.0,6.0,6.0,594.6180317550898,8.0,0.0,part_2,go,400.0,300.0,1.0,,,,,,,,,yellow,hexagon
0.0,7.0,3.0,1.0,5.0,5.0,379.8333685845136,8.0,0.0,part_2,go,400.0,300.0,1.0,,,,,,,,,yellow,hexagon
0.0,1.0,1.0,0.0,6.0,6.0,404.914541170001,8.0,0.0,part_2,go,400.0,300.0,1.0,,,,,,,,,magenta,triangle
0.0,7.0,3.0,1.0,5.0,5.0,300.0396192073822,8.0,0.0,part_2,stop,400.0,300.0,3.0,,,,,,,,,yellow,hexagon
0.0,4.0,4.0,0.0,6.0,6.0,515.0953102856874,8.0,0.0,part_2,go,350.0,300.0,1.0,,,,,,,,,gray,square
0.0,2.0,2.0,0.0,5.0,5.0,675.7218800485134,8.0,0.0,part_2,go,350.0,300.0,1.0,,,,,,,,,cyan,flipped triangle
0.0,8.0,4.0,1.0,5.0,5.0,730.8390568941832,8.0,0.0,part_2,go,350.0,300.0,1.0,,,,,,,,,orange,I
0.0,5.0,1.0,1.0,5.0,0.0,0.0,8.0,0.0,part_2,stop,350.0,300.0,4.0,,,,,,,,,blue,cross
0.0,4.0,4.0,0.0,6.0,6.0,624.2536809295416,8.0,0.0,part_2,go,400.0,300.0,1.0,,,,,,,,,gray,square
0.0,8.0,4.0,1.0,5.0,0.0,0.0,8.0,0.0,part_2,stop,400.0,300.0,4.0,,,,,,,,,orange,I
0.0,2.0,2.0,0.0,5.0,5.0,751.1772830039263,8.0,0.0,part_2,go,450.0,300.0,1.0,,,,,,,,,cyan,flipped triangle
0.0,5.0,1.0,1.0,6.0,6.0,663.2059831172228,8.0,0.0,part_2,go,450.0,300.0,1.0,,,,,,,,,blue,cross
0.0,8.0,4.0,1.0,5.0,5.0,435.3573601692915,8.0,0.0,part_2,stop,450.0,300.0,3.0,,,,,,,,,orange,I
0.0,6.0,2.0,1.0,5.0,0.0,0.0,8.0,0.0,part_2,stop,400.0,300.0,4.0,,,,,,,,,white,diamond
0.0,2.0,2.0,0.0,6.0,6.0,622.6628590375185,8.0,0.0,part_2,go,450.0,300.0,1.0,,,,,,,,,cyan,flipped triangle
0.0,7.0,3.0,1.0,5.0,0.0,0.0,8.0,0.0,part_2,stop,450.0,300.0,4.0,,,,,,,,,yellow,hexagon
0.0,4.0,4.0,0.0,5.0,5.0,740.0402277708054,8.0,0.0,part_2,go,500.0,300.0,1.0,,,,,,,,,gray,square
0.0,1.0,1.0,0.0,5.0,5.0,601.7086692154408,8.0,0.0,part_2,go,500.0,300.0,1.0,,,,,,,,,magenta,triangle
0.0,7.0,3.0,1.0,5.0,5.0,562.3662993311882,8.0,0.0,part_2,go,500.0,300.0,1.0,,,,,,,,,yellow,hexagon
0.0,5.0,1.0,1.0,6.0,6.0,418.0143289268017,8.0,0.0,part_2,stop,500.0,300.0,3.0,,,,,,,,,blue,cross
0.0,8.0,4.0,1.0,5.0,5.0,535.109668970108,8.0,0.0,part_2,stop,500.0,250.0,3.0,,,,,,,,,orange,I
0.0,5.0,1.0,1.0,5.0,0.0,0.0,8.0,0.0,part_2,stop,450.0,250.0,4.0,,,,,,,,,blue,cross
0.0,5.0,1.0,1.0,6.0,6.0,696.0844062268734,8.0,0.0,part_2,go,500.0,250.0,1.0,,,,,,,,,blue,cross
0.0,4.0,4.0,0.0,6.0,6.0,431.8931009620428,8.0,0.0,part_2,go,500.0,250.0,1.0,,,,,,,,,gray,square
0.0,5.0,1.0,1.0,5.0,5.0,359.0946309268474,8.0,0.0,part_2,go,500.0,250.0,1.0,,,,,,,,,blue,cross
0.0,7.0,3.0,1.0,5.0,5.0,388.3884269744158,8.0,0.0,part_2,stop,500.0,250.0,3.0,,,,,,,,,yellow,hexagon
0.0,1.0,1.0,0.0,5.0,5.0,492.479994893074,8.0,0.0,part_2,go,450.0,250.0,1.0,,,,,,,,,magenta,triangle
0.0,3.0,3.0,0.0,5.0,5.0,631.1140079051256,8.0,0.0,part_2,go,450.0,250.0,1.0,,,,,,,,,green,circle
0.0,2.0,2.0,0.0,6.0,6.0,671.0762307047844,8.0,0.0,part_2,go,450.0,250.0,1.0,,,,,,,,,cyan,flipped triangle
0.0,7.0,3.0,1.0,6.0,6.0,435.214726254344,8.0,0.0,part_2,go,450.0,250.0,1.0,,,,,,,,,yellow,hexagon
0.0,7.0,3.0,1.0,5.0,5.0,412.2708942741155,8.0,0.0,part_2,stop,450.0,250.0,3.0,,,,,,,,,yellow,hexagon
0.0,8.0,4.0,1.0,5.0,0.0,0.0,8.0,0.0,part_2,stop,400.0,250.0,4.0,,,,,,,,,orange,I
0.0,4.0,4.0,0.0,5.0,5.0,562.5110175460577,8.0,0.0,part_2,go,450.0,250.0,1.0,,,,,,,,,gray,square
0.0,7.0,3.0,1.0,7.0,2.0,2904.8923291265965,1.0,1.0,part_3,go,0.0,0.0,0.0,324.0,6.0,162.0,324.0,108.0,270.0,216.0,54.0,yellow,hexagon
0.0,1.0,1.0,0.0,7.0,2.0,2066.6838195174932,1.0,1.0,part_3,go,0.0,0.0,0.0,170.0,5.0,102.0,170.0,34.0,204.0,136.0,68.0,magenta,triangle
0.0,1.0,1.0,0.0,7.0,2.0,833.6158189922571,1.0,1.0,part_3,go,0.0,0.0,0.0,170.0,5.0,68.0,170.0,204.0,136.0,34.0,102.0,magenta,triangle
0.0,5.0,1.0,1.0,7.0,1.0,538.7264862656593,1.0,1.0,part_3,go,0.0,0.0,0.0,147.0,3.0,147.0,49.0,98.0,196.0,294.0,245.0,blue,cross
0.0,2.0,2.0,0.0,7.0,3.0,0.1997519284486,1.0,1.0,part_3,go,0.0,0.0,0.0,294.0,6.0,196.0,49.0,294.0,98.0,147.0,245.0,cyan,flipped triangle
0.0,4.0,4.0,0.0,7.0,3.0,512.3597513884306,1.0,1.0,part_3,go,0.0,0.0,0.0,98.0,2.0,196.0,49.0,98.0,294.0,147.0,245.0,gray,square
0.0,8.0,4.0,1.0,7.0,3.0,1943.24604421854,1.0,1.0,part_3,go,0.0,0.0,0.0,234.0,6.0,156.0,39.0,234.0,78.0,117.0,195.0,orange,I
0.0,1.0,1.0,0.0,7.0,5.0,2250.799495726824,1.0,1.0,part_3,go,0.0,0.0,0.0,44.0,1.0,132.0,220.0,264.0,88.0,44.0,176.0,magenta,triangle
0.0,1.0,1.0,0.0,7.0,2.0,2217.6271695643663,1.0,1.0,part_3,go,0.0,0.0,0.0,88.0,2.0,132.0,88.0,220.0,176.0,44.0,264.0,magenta,triangle
0.0,6.0,2.0,1.0,7.0,4.0,1222.54741191864,1.0,1.0,part_3,go,0.0,0.0,0.0,39.0,1.0,78.0,234.0,117.0,39.0,195.0,156.0,white,diamond
0.0,2.0,2.0,0.0,7.0,2.0,2260.7091702520847,1.0,1.0,part_3,go,0.0,0.0,0.0,108.0,2.0,162.0,108.0,270.0,216.0,54.0,324.0,cyan,flipped triangle
0.0,3.0,3.0,0.0,7.0,3.0,1390.7975256443024,1.0,1.0,part_3,go,0.0,0.0,0.0,195.0,5.0,78.0,117.0,195.0,156.0,39.0,234.0,green,circle
0.0,2.0,2.0,0.0,7.0,4.0,942.9132509976624,1.0,1.0,part_3,go,0.0,0.0,0.0,68.0,2.0,102.0,136.0,34.0,68.0,204.0,170.0,cyan,flipped triangle
0.0,4.0,4.0,0.0,7.0,5.0,1043.531395494938,1.0,1.0,part_3,go,0.0,0.0,0.0,49.0,1.0,147.0,98.0,245.0,196.0,49.0,294.0,gray,square
0.0,5.0,1.0,1.0,7.0,6.0,1425.5440589040518,1.0,1.0,part_3,go,0.0,0.0,0.0,44.0,1.0,264.0,220.0,132.0,176.0,88.0,44.0,blue,cross
0.0,2.0,2.0,0.0,7.0,1.0,2127.1319668740034,1.0,1.0,part_3,go,0.0,0.0,0.0,108.0,2.0,108.0,162.0,270.0,54.0,324.0,216.0,cyan,flipped triangle
0.0,7.0,3.0,1.0,7.0,6.0,1349.36080314219,1.0,1.0,part_3,go,0.0,0.0,0.0,264.0,6.0,44.0,132.0,176.0,88.0,220.0,264.0,yellow,hexagon
0.0,8.0,4.0,1.0,7.0,6.0,1456.8661134690046,1.0,1.0,part_3,go,0.0,0.0,0.0,264.0,6.0,132.0,88.0,176.0,220.0,44.0,264.0,orange,I
0.0,6.0,2.0,1.0,7.0,1.0,1087.316308170557,1.0,1.0,part_3,go,0.0,0.0,0.0,44.0,1.0,44.0,132.0,176.0,264.0,88.0,220.0,white,diamond
0.0,1.0,1.0,0.0,7.0,4.0,1144.9896097183228,1.0,1.0,part_3,go,0.0,0.0,0.0,108.0,2.0,54.0,162.0,324.0,108.0,216.0,270.0,magenta,triangle
0.0,3.0,3.0,0.0,7.0,5.0,1564.5667612552645,2.0,1.0,part_3,go,0.0,0.0,0.0,88.0,2.0,220.0,132.0,44.0,176.0,88.0,264.0,green,circle
0.0,5.0,1.0,1.0,7.0,6.0,1419.5140283554792,2.0,1.0,part_3,go,0.0,0.0,0.0,68.0,2.0,102.0,34.0,204.0,170.0,136.0,68.0,blue,cross
0.0,4.0,4.0,0.0,7.0,3.0,1165.59586673975,2.0,1.0,part_3,go,0.0,0.0,0.0,44.0,1.0,264.0,220.0,44.0,132.0,176.0,88.0,gray,square
0.0,4.0,4.0,0.0,7.0,5.0,994.3777490407228,2.0,1.0,part_3,go,0.0,0.0,0.0,54.0,1.0,270.0,162.0,324.0,108.0,54.0,216.0,gray,square
0.0,1.0,1.0,0.0,7.0,2.0,1698.4229311347008,2.0,1.0,part_3,go,0.0,0.0,0.0,117.0,3.0,78.0,117.0,39.0,195.0,156.0,234.0,magenta,triangle
0.0,2.0,2.0,0.0,7.0,5.0,1146.8895077705383,2.0,1.0,part_3,go,0.0,0.0,0.0,39.0,1.0,234.0,156.0,78.0,195.0,39.0,117.0,cyan,flipped triangle
0.0,5.0,1.0,1.0,7.0,6.0,1756.685435771942,2.0,1.0,part_3,go,0.0,0.0,0.0,147.0,3.0,98.0,49.0,196.0,294.0,245.0,147.0,blue,cross
0.0,4.0,4.0,0.0,7.0,4.0,845.4974684864283,2.0,1.0,part_3,go,0.0,0.0,0.0,44.0,1.0,132.0,264.0,88.0,44.0,176.0,220.0,gray,square
0.0,2.0,2.0,0.0,7.0,3.0,968.0866729468108,2.0,1.0,part_3,go,0.0,0.0,0.0,117.0,3.0,234.0,78.0,117.0,39.0,156.0,195.0,cyan,flipped triangle
0.0,8.0,4.0,1.0,7.0,3.0,1217.3823118209841,2.0,1.0,part_3,go,0.0,0.0,0.0,136.0,4.0,68.0,34.0,136.0,102.0,204.0,170.0,orange,I
0.0,4.0,4.0,0.0,7.0,4.0,1031.6397286951542,2.0,1.0,part_3,go,0.0,0.0,0.0,39.0,1.0,78.0,156.0,234.0,39.0,195.0,117.0,gray,square
0.0,6.0,2.0,1.0,7.0,3.0,1076.4172859489918,2.0,1.0,part_3,go,0.0,0.0,0.0,68.0,2.0,102.0,204.0,68.0,170.0,34.0,136.0,white,diamond
0.0,2.0,2.0,0.0,7.0,6.0,1523.5167536884546,2.0,1.0,part_3,go,0.0,0.0,0.0,196.0,4.0,98.0,49.0,294.0,147.0,245.0,196.0,cyan,flipped triangle
0.0,1.0,1.0,0.0,7.0,5.0,1063.4345971047878,2.0,1.0,part_3,go,0.0,0.0,0.0,156.0,4.0,78.0,234.0,195.0,39.0,156.0,117.0,magenta,triangle
0.0,4.0,4.0,0.0,7.0,4.0,1510.686555877328,2.0,1.0,part_3,go,0.0,0.0,0.0,34.0,1.0,102.0,204.0,68.0,34.0,170.0,136.0,gray,square
0.0,8.0,4.0,1.0,7.0,1.0,1537.2820366173985,2.0,1.0,part_3,go,0.0,0.0,0.0,324.0,6.0,324.0,54.0,162.0,216.0,270.0,108.0,orange,I
0.0,4.0,4.0,0.0,7.0,3.0,872.88330309093,2.0,1.0,part_3,go,0.0,0.0,0.0,156.0,4.0,78.0,39.0,156.0,234.0,195.0,117.0,gray,square
0.0,3.0,3.0,0.0,7.0,4.0,1147.9020956903696,2.0,1.0,part_3,go,0.0,0.0,0.0,196.0,4.0,147.0,294.0,245.0,196.0,98.0,49.0,green,circle
0.0,6.0,2.0,1.0,7.0,5.0,877.7956254780293,2.0,1.0,part_3,go,0.0,0.0,0.0,54.0,1.0,270.0,108.0,162.0,216.0,54.0,324.0,white,diamond
0.0,5.0,1.0,1.0,7.0,3.0,1182.144457474351,2.0,1.0,part_3,go,0.0,0.0,0.0,195.0,5.0,234.0,39.0,195.0,156.0,117.0,78.0,blue,cross
0.0,8.0,4.0,1.0,7.0,1.0,1789.592493325472,3.0,1.0,part_3,go,0.0,0.0,0.0,294.0,6.0,294.0,245.0,147.0,98.0,49.0,196.0,orange,I
0.0,3.0,3.0,0.0,7.0,2.0,1951.577851548791,3.0,1.0,part_3,go,0.0,0.0,0.0,170.0,5.0,102.0,170.0,68.0,34.0,204.0,136.0,green,circle
0.0,1.0,1.0,0.0,7.0,1.0,1603.4522615373137,3.0,1.0,part_3,go,0.0,0.0,0.0,108.0,2.0,108.0,324.0,162.0,54.0,270.0,216.0,magenta,triangle
0.0,1.0,1.0,0.0,7.0,4.0,1418.0144183337688,3.0,1.0,part_3,go,0.0,0.0,0.0,294.0,6.0,49.0,98.0,147.0,294.0,196.0,245.0,magenta,triangle
0.0,7.0,3.0,1.0,7.0,1.0,1166.1513224244118,3.0,1.0,part_3,go,0.0,0.0,0.0,117.0,3.0,117.0,234.0,156.0,195.0,39.0,78.0,yellow,hexagon
0.0,1.0,1.0,0.0,7.0,3.0,1167.1753358095884,3.0,1.0,part_3,go,0.0,0.0,0.0,98.0,2.0,147.0,294.0,98.0,196.0,245.0,49.0,magenta,triangle
0.0,5.0,1.0,1.0,7.0,3.0,1014.6716460585594,3.0,1.0,part_3,go,0.0,0.0,0.0,204.0,6.0,136.0,170.0,204.0,68.0,34.0,102.0,blue,cross
0.0,3.0,3.0,0.0,7.0,2.0,1154.164956882596,3.0,1.0,part_3,go,0.0,0.0,0.0,270.0,5.0,54.0,270.0,108.0,216.0,324.0,162.0,green,circle
0.0,3.0,3.0,0.0,7.0,1.0,992.6848169416188,3.0,1.0,part_3,go,0.0,0.0,0.0,234.0,6.0,234.0,78.0,156.0,117.0,39.0,195.0,green,circle
0.0,7.0,3.0,1.0,7.0,3.0,1205.989195033908,3.0,1.0,part_3,go,0.0,0.0,0.0,324.0,6.0,54.0,270.0,324.0,108.0,162.0,216.0,yellow,hexagon
0.0,6.0,2.0,1.0,7.0,2.0,1223.055424168706,3.0,1.0,part_3,go,0.0,0.0,0.0,54.0,1.0,162.0,54.0,108.0,216.0,324.0,270.0,white,diamond
0.0,4.0,4.0,0.0,7.0,4.0,868.965158239007,3.0,1.0,part_3,go,0.0,0.0,0.0,34.0,1.0,204.0,102.0,68.0,34.0,136.0,170.0,gray,square
0.0,8.0,4.0,1.0,7.0,5.0,1225.1990363001823,3.0,1.0,part_3,go,0.0,0.0,0.0,234.0,6.0,195.0,156.0,39.0,117.0,234.0,78.0,orange,I
0.0,7.0,3.0,1.0,7.0,4.0,1065.6032729893925,3.0,1.0,part_3,go,0.0,0.0,0.0,195.0,5.0,234.0,39.0,156.0,195.0,78.0,117.0,yellow,hexagon
0.0,3.0,3.0,0.0,7.0,1.0,1449.9317109584808,3.0,1.0,part_3,go,0.0,0.0,0.0,170.0,5.0,170.0,68.0,34.0,136.0,102.0,204.0,green,circle
0.0,2.0,2.0,0.0,7.0,4.0,1133.6648892611263,3.0,1.0,part_3,go,0.0,0.0,0.0,44.0,1.0,132.0,88.0,264.0,44.0,220.0,176.0,cyan,flipped triangle
0.0,6.0,2.0,1.0,7.0,2.0,885.6294937431812,3.0,1.0,part_3,go,0.0,0.0,0.0,34.0,1.0,68.0,34.0,170.0,102.0,204.0,136.0,white,diamond
0.0,5.0,1.0,1.0,7.0,5.0,1101.6743332147598,3.0,1.0,part_3,go,0.0,0.0,0.0,270.0,5.0,54.0,108.0,216.0,324.0,270.0,162.0,blue,cross
0.0,6.0,2.0,1.0,7.0,4.0,1562.3703580349684,3.0,1.0,part_3,go,0.0,0.0,0.0,49.0,1.0,147.0,245.0,196.0,49.0,98.0,294.0,white,diamond
0.0,7.0,3.0,1.0,7.0,3.0,1681.2461633235216,3.0,1.0,part_3,go,0.0,0.0,0.0,294.0,6.0,49.0,196.0,294.0,98.0,245.0,147.0,yellow,hexagon
0.0,8.0,4.0,1.0,7.0,5.0,1482.7587194740772,4.0,1.0,part_3,go,0.0,0.0,0.0,170.0,5.0,102.0,68.0,136.0,204.0,170.0,34.0,orange,I
0.0,7.0,3.0,1.0,7.0,6.0,1149.8047653585672,4.0,1.0,part_3,go,0.0,0.0,0.0,204.0,6.0,68.0,170.0,136.0,34.0,102.0,204.0,yellow,hexagon
0.0,7.0,3.0,1.0,7.0,2.0,1692.4912258982658,4.0,1.0,part_3,go,0.0,0.0,0.0,220.0,5.0,132.0,220.0,88.0,264.0,44.0,176.0,yellow,hexagon
0.0,7.0,3.0,1.0,7.0,1.0,1401.170926168561,4.0,1.0,part_3,go,0.0,0.0,0.0,245.0,5.0,245.0,98.0,49.0,294.0,147.0,196.0,yellow,hexagon
0.0,5.0,1.0,1.0,7.0,4.0,1168.4573665261269,4.0,1.0,part_3,go,0.0,0.0,0.0,78.0,2.0,117.0,195.0,39.0,78.0,156.0,234.0,blue,cross
0.0,6.0,2.0,1.0,7.0,5.0,1944.9612591415644,4.0,1.0,part_3,go,0.0,0.0,0.0,98.0,2.0,196.0,49.0,294.0,245.0,98.0,147.0,white,diamond
0.0,3.0,3.0,0.0,7.0,6.0,1531.9218896329403,4.0,1.0,part_3,go,0.0,0.0,0.0,147.0,3.0,196.0,245.0,49.0,98.0,294.0,147.0,green,circle
0.0,8.0,4.0,1.0,7.0,4.0,1299.3347384035587,4.0,1.0,part_3,go,0.0,0.0,0.0,270.0,5.0,54.0,108.0,216.0,270.0,162.0,324.0,orange,I
0.0,7.0,3.0,1.0,7.0,2.0,1228.7908494472504,4.0,1.0,part_3,go,0.0,0.0,0.0,204.0,6.0,68.0,204.0,102.0,170.0,136.0,34.0,yellow,hexagon
0.0,8.0,4.0,1.0,7.0,1.0,1237.3005915433168,4.0,1.0,part_3,go,0.0,0.0,0.0,264.0,6.0,264.0,220.0,44.0,132.0,88.0,176.0,orange,I
0.0,5.0,1.0,1.0,7.0,4.0,1281.5341018140316,4.0,1.0,part_3,go,0.0,0.0,0.0,108.0,2.0,216.0,54.0,162.0,108.0,270.0,324.0,blue,cross
0.0,3.0,3.0,0.0,7.0,5.0,1464.3590711057186,4.0,1.0,part_3,go,0.0,0.0,0.0,324.0,6.0,162.0,108.0,54.0,270.0,324.0,216.0,green,circle
0.0,2.0,2.0,0.0,7.0,1.0,1147.6899851113558,4.0,1.0,part_3,go,0.0,0.0,0.0,44.0,1.0,44.0,88.0,264.0,176.0,220.0,132.0,cyan,flipped triangle
0.0,6.0,2.0,1.0,7.0,1.0,970.6945344805716,4.0,1.0,part_3,go,0.0,0.0,0.0,44.0,1.0,44.0,176.0,88.0,132.0,264.0,220.0,white,diamond
0.0,6.0,2.0,1.0,7.0,3.0,1511.2728849053385,4.0,1.0,part_3,go,0.0,0.0,0.0,39.0,1.0,78.0,195.0,39.0,156.0,234.0,117.0,white,diamond
0.0,2.0,2.0,0.0,7.0,3.0,1376.9710585474968,4.0,1.0,part_3,go,0.0,0.0,0.0,136.0,4.0,204.0,102.0,136.0,170.0,34.0,68.0,cyan,flipped triangle
0.0,4.0,4.0,0.0,7.0,3.0,1841.1811646074057,4.0,1.0,part_3,go,0.0,0.0,0.0,54.0,1.0,108.0,270.0,54.0,324.0,162.0,216.0,gray,square
0.0,5.0,1.0,1.0,7.0,5.0,1363.6589162051678,4.0,1.0,part_3,go,0.0,0.0,0.0,132.0,3.0,176.0,220.0,88.0,264.0,132.0,44.0,blue,cross
0.0,3.0,3.0,0.0,7.0,3.0,1539.831031113863,4.0,1.0,part_3,go,0.0,0.0,0.0,132.0,3.0,220.0,44.0,132.0,264.0,88.0,176.0,green,circle
0.0,8.0,4.0,1.0,7.0,5.0,1158.2717522978785,4.0,1.0,part_3,go,0.0,0.0,0.0,147.0,3.0,245.0,294.0,196.0,49.0,147.0,98.0,orange,I
