raw_reward_magnitude,stim_reward,stepwise_reward_magnitude,paired_with_stopping,stim_location,response,reaction_time,block,num_trial_presentations,which_phase,stop_signal_trial_type,left_SSD,right_SSD,accuracy,chosen_bidding_amount,chosen_bidding_level,possible_bid_1,possible_bid_2,possible_bid_3,possible_bid_4,possible_bid_5,possible_bid_6,color_text,shape_text
194.0,3.0,3.0,0.0,4.0,4.0,307.2907000314444,1.0,1.0,phase_1,,,,,,,,,,,,,green,triangle
58.0,5.0,1.0,1.0,4.0,4.0,331.2479630112648,1.0,1.0,phase_1,,,,,,,,,,,,,magenta,square
201.0,7.0,3.0,1.0,4.0,4.0,325.8103248663246,1.0,1.0,phase_1,,,,,,,,,,,,,blue,cross
0.0,1.0,0.0,0.0,4.0,4.0,329.9533578101545,1.0,1.0,phase_1,,,,,,,,,,,,,cyan,diamond
375.0,8.0,4.0,1.0,3.0,3.0,384.5435888506472,1.0,1.0,phase_1,,,,,,,,,,,,,orange,flipped triangle
378.0,8.0,4.0,1.0,3.0,3.0,305.8635739143938,1.0,1.0,phase_1,,,,,,,,,,,,,orange,flipped triangle
222.0,7.0,3.0,1.0,2.0,2.0,330.5728379637003,1.0,1.0,phase_1,,,,,,,,,,,,,blue,cross
86.0,2.0,2.0,0.0,1.0,1.0,300.4914401099086,1.0,1.0,phase_1,,,,,,,,,,,,,gray,circle
0.0,5.0,0.0,1.0,3.0,3.0,314.951938111335,1.0,1.0,phase_1,,,,,,,,,,,,,magenta,square
75.0,1.0,1.0,0.0,4.0,4.0,450.20117796957487,1.0,2.0,phase_1,,,,,,,,,,,,,cyan,diamond
47.0,5.0,1.0,1.0,2.0,2.0,377.8784140013158,1.0,1.0,phase_1,,,,,,,,,,,,,magenta,square
104.0,6.0,2.0,1.0,2.0,2.0,429.1763990186155,1.0,1.0,phase_1,,,,,,,,,,,,,white,hexagon
222.0,3.0,3.0,0.0,4.0,4.0,331.367916893214,1.0,1.0,phase_1,,,,,,,,,,,,,green,triangle
194.0,3.0,3.0,0.0,2.0,2.0,340.8478160854429,1.0,1.0,phase_1,,,,,,,,,,,,,green,triangle
0.0,3.0,0.0,0.0,4.0,4.0,289.5778638776392,1.0,1.0,phase_1,,,,,,,,,,,,,green,triangle
423.0,8.0,4.0,1.0,2.0,2.0,390.6995218712836,1.0,1.0,phase_1,,,,,,,,,,,,,orange,flipped triangle
36.0,1.0,1.0,0.0,2.0,2.0,453.4927872009575,1.0,1.0,phase_1,,,,,,,,,,,,,cyan,diamond
120.0,2.0,2.0,0.0,1.0,1.0,367.7469999529421,1.0,1.0,phase_1,,,,,,,,,,,,,gray,circle
217.0,7.0,3.0,1.0,4.0,4.0,324.7505249455571,1.0,1.0,phase_1,,,,,,,,,,,,,blue,cross
73.0,1.0,1.0,0.0,3.0,3.0,330.4545150604099,1.0,1.0,phase_1,,,,,,,,,,,,,cyan,diamond
223.0,7.0,3.0,1.0,2.0,2.0,421.4754400309175,1.0,1.0,phase_1,,,,,,,,,,,,,blue,cross
176.0,3.0,3.0,0.0,3.0,3.0,330.1410300191492,1.0,1.0,phase_1,,,,,,,,,,,,,green,triangle
176.0,3.0,3.0,0.0,1.0,1.0,318.2921030092984,1.0,1.0,phase_1,,,,,,,,,,,,,green,triangle
0.0,4.0,0.0,0.0,4.0,4.0,363.3211180567741,1.0,1.0,phase_1,,,,,,,,,,,,,yellow,I
0.0,5.0,0.0,1.0,4.0,4.0,360.4990630410611,1.0,1.0,phase_1,,,,,,,,,,,,,magenta,square
64.0,5.0,1.0,1.0,2.0,2.0,342.4886108841747,1.0,1.0,phase_1,,,,,,,,,,,,,magenta,square
407.0,4.0,4.0,0.0,2.0,2.0,396.930986084044,1.0,1.0,phase_1,,,,,,,,,,,,,yellow,I
0.0,6.0,0.0,1.0,4.0,4.0,311.4058980718255,1.0,1.0,phase_1,,,,,,,,,,,,,white,hexagon
397.0,4.0,4.0,0.0,4.0,4.0,387.9303620196879,1.0,1.0,phase_1,,,,,,,,,,,,,yellow,I
0.0,2.0,0.0,0.0,2.0,2.0,322.4435891024768,1.0,1.0,phase_1,,,,,,,,,,,,,gray,circle
400.0,4.0,4.0,0.0,4.0,4.0,302.8046609833836,1.0,1.0,phase_1,,,,,,,,,,,,,yellow,I
34.0,1.0,1.0,0.0,2.0,2.0,307.2491630446166,1.0,1.0,phase_1,,,,,,,,,,,,,cyan,diamond
377.0,4.0,4.0,0.0,1.0,1.0,359.1374661773443,1.0,1.0,phase_1,,,,,,,,,,,,,yellow,I
208.0,3.0,3.0,0.0,2.0,2.0,322.904024971649,1.0,1.0,phase_1,,,,,,,,,,,,,green,triangle
78.0,2.0,2.0,0.0,2.0,2.0,377.5224480777979,1.0,1.0,phase_1,,,,,,,,,,,,,gray,circle
422.0,8.0,4.0,1.0,1.0,1.0,461.2620130646974,1.0,1.0,phase_1,,,,,,,,,,,,,orange,flipped triangle
41.0,5.0,1.0,1.0,4.0,4.0,417.1705038752407,1.0,1.0,phase_1,,,,,,,,,,,,,magenta,square
83.0,6.0,2.0,1.0,3.0,3.0,382.8016510233283,1.0,1.0,phase_1,,,,,,,,,,,,,white,hexagon
85.0,2.0,2.0,0.0,4.0,4.0,388.3379581384361,1.0,1.0,phase_1,,,,,,,,,,,,,gray,circle
406.0,8.0,4.0,1.0,3.0,3.0,390.9960300661623,1.0,1.0,phase_1,,,,,,,,,,,,,orange,flipped triangle
199.0,7.0,3.0,1.0,4.0,4.0,421.392458025366,1.0,1.0,phase_1,,,,,,,,,,,,,blue,cross
381.0,8.0,4.0,1.0,4.0,4.0,401.9629419781267,1.0,1.0,phase_1,,,,,,,,,,,,,orange,flipped triangle
180.0,7.0,3.0,1.0,2.0,2.0,322.3627591505646,1.0,2.0,phase_1,,,,,,,,,,,,,blue,cross
41.0,1.0,1.0,0.0,4.0,4.0,335.1491149514913,1.0,1.0,phase_1,,,,,,,,,,,,,cyan,diamond
87.0,2.0,2.0,0.0,2.0,2.0,371.2991459760815,1.0,1.0,phase_1,,,,,,,,,,,,,gray,circle
102.0,2.0,2.0,0.0,1.0,1.0,480.8505240362137,1.0,1.0,phase_1,,,,,,,,,,,,,gray,circle
35.0,1.0,1.0,0.0,3.0,3.0,325.6063659209758,1.0,1.0,phase_1,,,,,,,,,,,,,cyan,diamond
0.0,3.0,0.0,0.0,3.0,3.0,424.3574168067425,1.0,1.0,phase_1,,,,,,,,,,,,,green,triangle
0.0,3.0,0.0,0.0,2.0,2.0,365.5928720254451,1.0,1.0,phase_1,,,,,,,,,,,,,green,triangle
91.0,2.0,2.0,0.0,4.0,4.0,410.3299549315125,1.0,1.0,phase_1,,,,,,,,,,,,,gray,circle
122.0,6.0,2.0,1.0,3.0,3.0,433.5588729009032,1.0,1.0,phase_1,,,,,,,,,,,,,white,hexagon
0.0,1.0,0.0,0.0,3.0,3.0,379.1466921102255,1.0,1.0,phase_1,,,,,,,,,,,,,cyan,diamond
97.0,2.0,2.0,0.0,3.0,3.0,378.6994251422584,1.0,1.0,phase_1,,,,,,,,,,,,,gray,circle
213.0,3.0,3.0,0.0,3.0,3.0,359.6349488943815,1.0,1.0,phase_1,,,,,,,,,,,,,green,triangle
61.0,5.0,1.0,1.0,1.0,1.0,344.8818388860672,1.0,1.0,phase_1,,,,,,,,,,,,,magenta,square
113.0,6.0,2.0,1.0,1.0,1.0,497.3195288330316,1.0,1.0,phase_1,,,,,,,,,,,,,white,hexagon
36.0,5.0,1.0,1.0,3.0,3.0,346.9323508907109,1.0,1.0,phase_1,,,,,,,,,,,,,magenta,square
178.0,3.0,3.0,0.0,3.0,3.0,378.9279940538108,1.0,1.0,phase_1,,,,,,,,,,,,,green,triangle
0.0,6.0,0.0,1.0,3.0,3.0,534.5344489905983,1.0,1.0,phase_1,,,,,,,,,,,,,white,hexagon
377.0,8.0,4.0,1.0,2.0,2.0,306.0700530186295,1.0,1.0,phase_1,,,,,,,,,,,,,orange,flipped triangle
0.0,1.0,0.0,0.0,3.0,3.0,310.4997931513935,1.0,1.0,phase_1,,,,,,,,,,,,,cyan,diamond
213.0,7.0,3.0,1.0,2.0,2.0,313.4317989461124,1.0,1.0,phase_1,,,,,,,,,,,,,blue,cross
225.0,7.0,3.0,1.0,4.0,4.0,302.7761119883507,1.0,1.0,phase_1,,,,,,,,,,,,,blue,cross
73.0,5.0,1.0,1.0,2.0,2.0,325.3757061902433,1.0,1.0,phase_1,,,,,,,,,,,,,magenta,square
121.0,6.0,2.0,1.0,4.0,4.0,283.0861660186201,1.0,1.0,phase_1,,,,,,,,,,,,,white,hexagon
211.0,3.0,3.0,0.0,2.0,2.0,341.3153379224241,1.0,1.0,phase_1,,,,,,,,,,,,,green,triangle
88.0,6.0,2.0,1.0,4.0,4.0,411.3256949931383,1.0,1.0,phase_1,,,,,,,,,,,,,white,hexagon
406.0,4.0,4.0,0.0,1.0,1.0,349.762629950419,1.0,1.0,phase_1,,,,,,,,,,,,,yellow,I
377.0,4.0,4.0,0.0,2.0,2.0,293.6337729915976,1.0,1.0,phase_1,,,,,,,,,,,,,yellow,I
387.0,4.0,4.0,0.0,3.0,3.0,331.5411088988185,1.0,1.0,phase_1,,,,,,,,,,,,,yellow,I
211.0,7.0,3.0,1.0,3.0,3.0,326.0897221043706,1.0,1.0,phase_1,,,,,,,,,,,,,blue,cross
405.0,4.0,4.0,0.0,1.0,1.0,273.0932869017124,1.0,1.0,phase_1,,,,,,,,,,,,,yellow,I
176.0,3.0,3.0,0.0,1.0,1.0,392.5534449517727,1.0,1.0,phase_1,,,,,,,,,,,,,green,triangle
97.0,6.0,2.0,1.0,3.0,3.0,284.7540641669184,1.0,1.0,phase_1,,,,,,,,,,,,,white,hexagon
71.0,1.0,1.0,0.0,2.0,2.0,360.2871259208768,1.0,1.0,phase_1,,,,,,,,,,,,,cyan,diamond
209.0,7.0,3.0,1.0,1.0,1.0,302.6963521260768,1.0,1.0,phase_1,,,,,,,,,,,,,blue,cross
224.0,3.0,3.0,0.0,3.0,3.0,336.8505320977419,1.0,1.0,phase_1,,,,,,,,,,,,,green,triangle
401.0,8.0,4.0,1.0,1.0,1.0,318.4992980677634,1.0,1.0,phase_1,,,,,,,,,,,,,orange,flipped triangle
44.0,5.0,1.0,1.0,1.0,1.0,321.6258659958839,1.0,1.0,phase_1,,,,,,,,,,,,,magenta,square
382.0,8.0,4.0,1.0,2.0,2.0,326.7247481271624,1.0,1.0,phase_1,,,,,,,,,,,,,orange,flipped triangle
208.0,7.0,3.0,1.0,1.0,1.0,386.5755822043866,1.0,1.0,phase_1,,,,,,,,,,,,,blue,cross
98.0,2.0,2.0,0.0,2.0,2.0,329.4549670536071,1.0,1.0,phase_1,,,,,,,,,,,,,gray,circle
78.0,6.0,2.0,1.0,3.0,3.0,342.6564738620072,1.0,1.0,phase_1,,,,,,,,,,,,,white,hexagon
108.0,2.0,2.0,0.0,1.0,1.0,443.9275399781763,1.0,1.0,phase_1,,,,,,,,,,,,,gray,circle
113.0,6.0,2.0,1.0,4.0,4.0,487.3484279960394,1.0,1.0,phase_1,,,,,,,,,,,,,white,hexagon
409.0,4.0,4.0,0.0,1.0,1.0,492.5954190548509,1.0,1.0,phase_1,,,,,,,,,,,,,yellow,I
120.0,6.0,2.0,1.0,1.0,1.0,319.7487241122871,1.0,1.0,phase_1,,,,,,,,,,,,,white,hexagon
0.0,4.0,0.0,0.0,3.0,3.0,308.1023718696087,1.0,1.0,phase_1,,,,,,,,,,,,,yellow,I
0.0,6.0,0.0,1.0,1.0,1.0,344.9368509463966,1.0,1.0,phase_1,,,,,,,,,,,,,white,hexagon
206.0,7.0,3.0,1.0,2.0,2.0,309.2715961392969,1.0,1.0,phase_1,,,,,,,,,,,,,blue,cross
98.0,6.0,2.0,1.0,2.0,2.0,385.8692909125238,1.0,1.0,phase_1,,,,,,,,,,,,,white,hexagon
57.0,1.0,1.0,0.0,1.0,1.0,601.4749908354133,1.0,1.0,phase_1,,,,,,,,,,,,,cyan,diamond
99.0,6.0,2.0,1.0,1.0,1.0,444.0506240352988,1.0,1.0,phase_1,,,,,,,,,,,,,white,hexagon
67.0,1.0,1.0,0.0,1.0,1.0,328.7297450006008,1.0,1.0,phase_1,,,,,,,,,,,,,cyan,diamond
73.0,5.0,1.0,1.0,3.0,3.0,414.466236019507,1.0,1.0,phase_1,,,,,,,,,,,,,magenta,square
0.0,8.0,0.0,1.0,3.0,3.0,398.103856947273,1.0,2.0,phase_1,,,,,,,,,,,,,orange,flipped triangle
123.0,6.0,2.0,1.0,4.0,4.0,541.8373588472605,1.0,1.0,phase_1,,,,,,,,,,,,,white,hexagon
194.0,7.0,3.0,1.0,1.0,1.0,359.8923429381102,1.0,1.0,phase_1,,,,,,,,,,,,,blue,cross
91.0,2.0,2.0,0.0,4.0,4.0,494.4013101048767,1.0,1.0,phase_1,,,,,,,,,,,,,gray,circle
110.0,6.0,2.0,1.0,4.0,4.0,452.9096989426762,1.0,1.0,phase_1,,,,,,,,,,,,,white,hexagon
414.0,8.0,4.0,1.0,2.0,2.0,321.073890896514,2.0,1.0,phase_1,,,,,,,,,,,,,orange,flipped triangle
176.0,7.0,3.0,1.0,1.0,1.0,321.7634069733321,2.0,1.0,phase_1,,,,,,,,,,,,,blue,cross
397.0,8.0,4.0,1.0,1.0,1.0,326.3816989492625,2.0,1.0,phase_1,,,,,,,,,,,,,orange,flipped triangle
0.0,7.0,0.0,1.0,2.0,2.0,319.9401570018381,2.0,1.0,phase_1,,,,,,,,,,,,,blue,cross
0.0,7.0,0.0,1.0,2.0,2.0,309.5887519884854,2.0,1.0,phase_1,,,,,,,,,,,,,blue,cross
0.0,4.0,0.0,0.0,2.0,2.0,312.8725548740476,2.0,1.0,phase_1,,,,,,,,,,,,,yellow,I
91.0,2.0,2.0,0.0,3.0,3.0,326.7773890402168,2.0,1.0,phase_1,,,,,,,,,,,,,gray,circle
206.0,3.0,3.0,0.0,4.0,4.0,270.1382008381188,2.0,1.0,phase_1,,,,,,,,,,,,,green,triangle
407.0,8.0,4.0,1.0,4.0,4.0,279.6865769196301,2.0,1.0,phase_1,,,,,,,,,,,,,orange,flipped triangle
92.0,6.0,2.0,1.0,1.0,1.0,316.5298039093613,2.0,1.0,phase_1,,,,,,,,,,,,,white,hexagon
113.0,2.0,2.0,0.0,1.0,1.0,295.7527700345963,2.0,1.0,phase_1,,,,,,,,,,,,,gray,circle
393.0,4.0,4.0,0.0,3.0,3.0,305.5783228483051,2.0,2.0,phase_1,,,,,,,,,,,,,yellow,I
196.0,3.0,3.0,0.0,4.0,4.0,321.7568278778344,2.0,1.0,phase_1,,,,,,,,,,,,,green,triangle
0.0,5.0,0.0,1.0,4.0,4.0,268.6619630549103,2.0,1.0,phase_1,,,,,,,,,,,,,magenta,square
199.0,3.0,3.0,0.0,2.0,2.0,371.1262990254909,2.0,1.0,phase_1,,,,,,,,,,,,,green,triangle
92.0,2.0,2.0,0.0,1.0,1.0,543.8852699007839,2.0,1.0,phase_1,,,,,,,,,,,,,gray,circle
396.0,4.0,4.0,0.0,1.0,1.0,337.8912201151252,2.0,1.0,phase_1,,,,,,,,,,,,,yellow,I
412.0,8.0,4.0,1.0,3.0,3.0,366.3984260056168,2.0,1.0,phase_1,,,,,,,,,,,,,orange,flipped triangle
398.0,8.0,4.0,1.0,4.0,4.0,333.8788149412721,2.0,1.0,phase_1,,,,,,,,,,,,,orange,flipped triangle
396.0,8.0,4.0,1.0,2.0,2.0,288.9661798253655,2.0,1.0,phase_1,,,,,,,,,,,,,orange,flipped triangle
421.0,4.0,4.0,0.0,4.0,4.0,309.265760006383,2.0,1.0,phase_1,,,,,,,,,,,,,yellow,I
425.0,4.0,4.0,0.0,2.0,2.0,312.2790399938822,2.0,1.0,phase_1,,,,,,,,,,,,,yellow,I
191.0,7.0,3.0,1.0,1.0,1.0,295.9260649513453,2.0,1.0,phase_1,,,,,,,,,,,,,blue,cross
187.0,7.0,3.0,1.0,3.0,3.0,283.4829220082611,2.0,1.0,phase_1,,,,,,,,,,,,,blue,cross
0.0,3.0,0.0,0.0,2.0,2.0,352.7227090671658,2.0,1.0,phase_1,,,,,,,,,,,,,green,triangle
194.0,7.0,3.0,1.0,4.0,4.0,293.4104430023581,2.0,1.0,phase_1,,,,,,,,,,,,,blue,cross
98.0,2.0,2.0,0.0,3.0,3.0,299.3153820279985,2.0,1.0,phase_1,,,,,,,,,,,,,gray,circle
123.0,2.0,2.0,0.0,3.0,3.0,341.5701631456613,2.0,1.0,phase_1,,,,,,,,,,,,,gray,circle
99.0,2.0,2.0,0.0,4.0,4.0,361.221328843385,2.0,1.0,phase_1,,,,,,,,,,,,,gray,circle
27.0,1.0,1.0,0.0,1.0,1.0,327.5661820080131,2.0,1.0,phase_1,,,,,,,,,,,,,cyan,diamond
401.0,4.0,4.0,0.0,2.0,2.0,333.9932351373136,2.0,1.0,phase_1,,,,,,,,,,,,,yellow,I
0.0,5.0,0.0,1.0,3.0,3.0,329.2994110379368,2.0,1.0,phase_1,,,,,,,,,,,,,magenta,square
34.0,5.0,1.0,1.0,3.0,3.0,311.9794090744108,2.0,1.0,phase_1,,,,,,,,,,,,,magenta,square
84.0,6.0,2.0,1.0,1.0,1.0,339.6085370332002,2.0,1.0,phase_1,,,,,,,,,,,,,white,hexagon
35.0,5.0,1.0,1.0,2.0,2.0,368.326969910413,2.0,1.0,phase_1,,,,,,,,,,,,,magenta,square
0.0,2.0,0.0,0.0,4.0,4.0,290.1476719416678,2.0,1.0,phase_1,,,,,,,,,,,,,gray,circle
29.0,1.0,1.0,0.0,4.0,4.0,319.3806291092187,2.0,1.0,phase_1,,,,,,,,,,,,,cyan,diamond
201.0,3.0,3.0,0.0,3.0,3.0,307.1256119292229,2.0,1.0,phase_1,,,,,,,,,,,,,green,triangle
411.0,4.0,4.0,0.0,4.0,4.0,291.9549411162734,2.0,1.0,phase_1,,,,,,,,,,,,,yellow,I
72.0,5.0,1.0,1.0,2.0,2.0,308.7819491047412,2.0,1.0,phase_1,,,,,,,,,,,,,magenta,square
400.0,8.0,4.0,1.0,4.0,4.0,308.7178450077772,2.0,1.0,phase_1,,,,,,,,,,,,,orange,flipped triangle
0.0,6.0,0.0,1.0,1.0,1.0,373.933088965714,2.0,1.0,phase_1,,,,,,,,,,,,,white,hexagon
398.0,4.0,4.0,0.0,1.0,1.0,356.817363994196,2.0,1.0,phase_1,,,,,,,,,,,,,yellow,I
193.0,3.0,3.0,0.0,3.0,3.0,313.7350468896329,2.0,1.0,phase_1,,,,,,,,,,,,,green,triangle
67.0,5.0,1.0,1.0,2.0,2.0,326.729048974812,2.0,1.0,phase_1,,,,,,,,,,,,,magenta,square
195.0,7.0,3.0,1.0,3.0,3.0,313.4893181268126,2.0,1.0,phase_1,,,,,,,,,,,,,blue,cross
384.0,4.0,4.0,0.0,4.0,4.0,325.2714499831199,2.0,1.0,phase_1,,,,,,,,,,,,,yellow,I
176.0,7.0,3.0,1.0,4.0,4.0,418.066686950624,2.0,1.0,phase_1,,,,,,,,,,,,,blue,cross
110.0,2.0,2.0,0.0,2.0,2.0,370.0450090691447,2.0,1.0,phase_1,,,,,,,,,,,,,gray,circle
0.0,2.0,0.0,0.0,3.0,3.0,300.2366940490901,2.0,1.0,phase_1,,,,,,,,,,,,,gray,circle
195.0,3.0,3.0,0.0,4.0,4.0,370.278782909736,2.0,1.0,phase_1,,,,,,,,,,,,,green,triangle
424.0,4.0,4.0,0.0,3.0,3.0,328.4441968426108,2.0,1.0,phase_1,,,,,,,,,,,,,yellow,I
204.0,7.0,3.0,1.0,3.0,3.0,340.427857125178,2.0,1.0,phase_1,,,,,,,,,,,,,blue,cross
201.0,3.0,3.0,0.0,2.0,2.0,450.055741937831,2.0,1.0,phase_1,,,,,,,,,,,,,green,triangle
204.0,3.0,3.0,0.0,4.0,4.0,340.6532299704849,2.0,1.0,phase_1,,,,,,,,,,,,,green,triangle
200.0,3.0,3.0,0.0,1.0,1.0,336.2702380400151,2.0,1.0,phase_1,,,,,,,,,,,,,green,triangle
67.0,1.0,1.0,0.0,4.0,4.0,357.5036509428173,2.0,1.0,phase_1,,,,,,,,,,,,,cyan,diamond
85.0,6.0,2.0,1.0,4.0,4.0,331.2686898279935,2.0,1.0,phase_1,,,,,,,,,,,,,white,hexagon
388.0,4.0,4.0,0.0,4.0,4.0,325.9850561153143,2.0,1.0,phase_1,,,,,,,,,,,,,yellow,I
189.0,3.0,3.0,0.0,4.0,4.0,398.0722210835665,2.0,1.0,phase_1,,,,,,,,,,,,,green,triangle
205.0,7.0,3.0,1.0,2.0,2.0,322.353292023763,2.0,1.0,phase_1,,,,,,,,,,,,,blue,cross
49.0,1.0,1.0,0.0,3.0,3.0,415.6060519162565,2.0,1.0,phase_1,,,,,,,,,,,,,cyan,diamond
381.0,4.0,4.0,0.0,1.0,1.0,438.94860800355667,2.0,2.0,phase_1,,,,,,,,,,,,,yellow,I
375.0,4.0,4.0,0.0,4.0,4.0,411.6347779054194,2.0,1.0,phase_1,,,,,,,,,,,,,yellow,I
85.0,2.0,2.0,0.0,1.0,1.0,328.9167180191725,2.0,1.0,phase_1,,,,,,,,,,,,,gray,circle
122.0,2.0,2.0,0.0,2.0,2.0,340.4053228441626,2.0,1.0,phase_1,,,,,,,,,,,,,gray,circle
198.0,7.0,3.0,1.0,2.0,2.0,329.2920149397105,2.0,1.0,phase_1,,,,,,,,,,,,,blue,cross
0.0,2.0,0.0,0.0,4.0,4.0,415.2081841602921,2.0,1.0,phase_1,,,,,,,,,,,,,gray,circle
91.0,6.0,2.0,1.0,2.0,2.0,357.0198321249336,2.0,1.0,phase_1,,,,,,,,,,,,,white,hexagon
224.0,7.0,3.0,1.0,2.0,2.0,333.9465151075274,2.0,1.0,phase_1,,,,,,,,,,,,,blue,cross
61.0,5.0,1.0,1.0,3.0,3.0,378.9125790353864,2.0,1.0,phase_1,,,,,,,,,,,,,magenta,square
421.0,8.0,4.0,1.0,1.0,1.0,346.623620018363,2.0,1.0,phase_1,,,,,,,,,,,,,orange,flipped triangle
411.0,8.0,4.0,1.0,4.0,4.0,301.68975610286,2.0,1.0,phase_1,,,,,,,,,,,,,orange,flipped triangle
387.0,8.0,4.0,1.0,1.0,1.0,321.5873930603266,2.0,1.0,phase_1,,,,,,,,,,,,,orange,flipped triangle
0.0,1.0,0.0,0.0,2.0,2.0,0.1648210454732,2.0,1.0,phase_1,,,,,,,,,,,,,cyan,diamond
34.0,5.0,1.0,1.0,1.0,1.0,390.0702260434627,2.0,1.0,phase_1,,,,,,,,,,,,,magenta,square
77.0,6.0,2.0,1.0,2.0,2.0,362.6782821957022,2.0,1.0,phase_1,,,,,,,,,,,,,white,hexagon
416.0,8.0,4.0,1.0,1.0,1.0,301.3973240740597,2.0,1.0,phase_1,,,,,,,,,,,,,orange,flipped triangle
38.0,1.0,1.0,0.0,2.0,2.0,360.9462059102952,2.0,1.0,phase_1,,,,,,,,,,,,,cyan,diamond
64.0,1.0,1.0,0.0,3.0,3.0,292.8775891195982,2.0,1.0,phase_1,,,,,,,,,,,,,cyan,diamond
422.0,8.0,4.0,1.0,4.0,4.0,309.447546955198,2.0,1.0,phase_1,,,,,,,,,,,,,orange,flipped triangle
122.0,6.0,2.0,1.0,3.0,3.0,353.5399411339313,2.0,1.0,phase_1,,,,,,,,,,,,,white,hexagon
0.0,1.0,0.0,0.0,1.0,1.0,406.690119067207,2.0,1.0,phase_1,,,,,,,,,,,,,cyan,diamond
72.0,1.0,1.0,0.0,4.0,4.0,355.5418630130589,2.0,1.0,phase_1,,,,,,,,,,,,,cyan,diamond
77.0,2.0,2.0,0.0,1.0,1.0,365.1911842171103,2.0,1.0,phase_1,,,,,,,,,,,,,gray,circle
207.0,7.0,3.0,1.0,3.0,3.0,434.6879809163511,2.0,1.0,phase_1,,,,,,,,,,,,,blue,cross
0.0,5.0,0.0,1.0,3.0,3.0,335.7931021600961,2.0,1.0,phase_1,,,,,,,,,,,,,magenta,square
216.0,3.0,3.0,0.0,2.0,2.0,358.0094191711396,2.0,1.0,phase_1,,,,,,,,,,,,,green,triangle
0.0,2.0,0.0,0.0,2.0,2.0,390.5301869381219,2.0,1.0,phase_1,,,,,,,,,,,,,gray,circle
0.0,6.0,0.0,1.0,4.0,4.0,357.7984180301428,2.0,1.0,phase_1,,,,,,,,,,,,,white,hexagon
110.0,2.0,2.0,0.0,3.0,3.0,355.3293580189347,2.0,1.0,phase_1,,,,,,,,,,,,,gray,circle
196.0,3.0,3.0,0.0,4.0,4.0,367.5251100212335,2.0,1.0,phase_1,,,,,,,,,,,,,green,triangle
88.0,2.0,2.0,0.0,4.0,4.0,371.5663510374725,2.0,1.0,phase_1,,,,,,,,,,,,,gray,circle
0.0,2.0,0.0,0.0,2.0,2.0,334.3737330287695,2.0,2.0,phase_1,,,,,,,,,,,,,gray,circle
180.0,3.0,3.0,0.0,1.0,1.0,345.9533138666302,2.0,1.0,phase_1,,,,,,,,,,,,,green,triangle
0.0,7.0,0.0,1.0,2.0,2.0,406.6015260759741,2.0,1.0,phase_1,,,,,,,,,,,,,blue,cross
0.0,2.0,0.0,0.0,4.0,4.0,365.0237519759685,2.0,1.0,phase_1,,,,,,,,,,,,,gray,circle
113.0,2.0,2.0,0.0,2.0,2.0,390.0752239860594,2.0,1.0,phase_1,,,,,,,,,,,,,gray,circle
0.0,1.0,0.0,0.0,2.0,2.0,365.9063898958266,2.0,1.0,phase_1,,,,,,,,,,,,,cyan,diamond
376.0,8.0,4.0,1.0,1.0,1.0,386.841194005683,2.0,1.0,phase_1,,,,,,,,,,,,,orange,flipped triangle
91.0,6.0,2.0,1.0,1.0,1.0,382.5890950392931,3.0,1.0,phase_1,,,,,,,,,,,,,white,hexagon
0.0,7.0,0.0,1.0,1.0,1.0,337.565841851756,3.0,1.0,phase_1,,,,,,,,,,,,,blue,cross
0.0,3.0,0.0,0.0,4.0,4.0,359.4641990493983,3.0,1.0,phase_1,,,,,,,,,,,,,green,triangle
381.0,8.0,4.0,1.0,2.0,2.0,332.0256369188428,3.0,1.0,phase_1,,,,,,,,,,,,,orange,flipped triangle
411.0,8.0,4.0,1.0,4.0,4.0,310.871911002323,3.0,1.0,phase_1,,,,,,,,,,,,,orange,flipped triangle
411.0,4.0,4.0,0.0,4.0,4.0,350.3888619598001,3.0,1.0,phase_1,,,,,,,,,,,,,yellow,I
30.0,5.0,1.0,1.0,2.0,2.0,320.8152309525758,3.0,1.0,phase_1,,,,,,,,,,,,,magenta,square
0.0,8.0,0.0,1.0,1.0,1.0,309.9766310770064,3.0,1.0,phase_1,,,,,,,,,,,,,orange,flipped triangle
0.0,7.0,0.0,1.0,2.0,2.0,419.7685879189521,3.0,1.0,phase_1,,,,,,,,,,,,,blue,cross
105.0,2.0,2.0,0.0,3.0,3.0,390.1517221238464,3.0,1.0,phase_1,,,,,,,,,,,,,gray,circle
416.0,4.0,4.0,0.0,1.0,1.0,377.925697946921,3.0,1.0,phase_1,,,,,,,,,,,,,yellow,I
27.0,5.0,1.0,1.0,1.0,1.0,343.0891160387546,3.0,1.0,phase_1,,,,,,,,,,,,,magenta,square
196.0,7.0,3.0,1.0,1.0,1.0,318.775231949985,3.0,1.0,phase_1,,,,,,,,,,,,,blue,cross
0.0,4.0,0.0,0.0,1.0,1.0,264.8718459531665,3.0,1.0,phase_1,,,,,,,,,,,,,yellow,I
55.0,5.0,1.0,1.0,3.0,3.0,301.8060629256069,3.0,1.0,phase_1,,,,,,,,,,,,,magenta,square
0.0,6.0,0.0,1.0,4.0,4.0,323.4737738966942,3.0,1.0,phase_1,,,,,,,,,,,,,white,hexagon
0.0,4.0,0.0,0.0,3.0,3.0,351.1275998316705,3.0,2.0,phase_1,,,,,,,,,,,,,yellow,I
387.0,8.0,4.0,1.0,3.0,3.0,337.7942820079624,3.0,1.0,phase_1,,,,,,,,,,,,,orange,flipped triangle
0.0,6.0,0.0,1.0,2.0,2.0,316.2451109383255,3.0,1.0,phase_1,,,,,,,,,,,,,white,hexagon
0.0,6.0,0.0,1.0,2.0,2.0,297.3011338617652,3.0,1.0,phase_1,,,,,,,,,,,,,white,hexagon
120.0,6.0,2.0,1.0,3.0,3.0,337.7138688229024,3.0,1.0,phase_1,,,,,,,,,,,,,white,hexagon
0.0,7.0,0.0,1.0,2.0,2.0,321.9970460049808,3.0,1.0,phase_1,,,,,,,,,,,,,blue,cross
95.0,2.0,2.0,0.0,4.0,4.0,378.380408976227,3.0,1.0,phase_1,,,,,,,,,,,,,gray,circle
98.0,6.0,2.0,1.0,1.0,1.0,381.5942408982664,3.0,1.0,phase_1,,,,,,,,,,,,,white,hexagon
209.0,3.0,3.0,0.0,3.0,3.0,329.1224897839129,3.0,1.0,phase_1,,,,,,,,,,,,,green,triangle
110.0,6.0,2.0,1.0,3.0,3.0,360.1067049894482,3.0,1.0,phase_1,,,,,,,,,,,,,white,hexagon
0.0,5.0,0.0,1.0,1.0,1.0,501.44269107840955,3.0,1.0,phase_1,,,,,,,,,,,,,magenta,square
44.0,5.0,1.0,1.0,1.0,1.0,446.4727260638028,3.0,1.0,phase_1,,,,,,,,,,,,,magenta,square
408.0,4.0,4.0,0.0,3.0,3.0,341.7803018819541,3.0,1.0,phase_1,,,,,,,,,,,,,yellow,I
405.0,8.0,4.0,1.0,3.0,3.0,338.4604470338672,3.0,1.0,phase_1,,,,,,,,,,,,,orange,flipped triangle
217.0,3.0,3.0,0.0,3.0,3.0,700.2165669109672,3.0,1.0,phase_1,,,,,,,,,,,,,green,triangle
57.0,5.0,1.0,1.0,4.0,4.0,309.8382288590073,3.0,2.0,phase_1,,,,,,,,,,,,,magenta,square
40.0,5.0,1.0,1.0,1.0,1.0,325.2578179817647,3.0,1.0,phase_1,,,,,,,,,,,,,magenta,square
0.0,8.0,0.0,1.0,2.0,2.0,326.9888020586222,3.0,1.0,phase_1,,,,,,,,,,,,,orange,flipped triangle
205.0,3.0,3.0,0.0,1.0,1.0,366.6725410148501,3.0,1.0,phase_1,,,,,,,,,,,,,green,triangle
116.0,6.0,2.0,1.0,4.0,4.0,456.400424009189,3.0,1.0,phase_1,,,,,,,,,,,,,white,hexagon
61.0,1.0,1.0,0.0,4.0,4.0,440.8147169742733,3.0,1.0,phase_1,,,,,,,,,,,,,cyan,diamond
176.0,7.0,3.0,1.0,2.0,2.0,389.6633628755808,3.0,1.0,phase_1,,,,,,,,,,,,,blue,cross
54.0,1.0,1.0,0.0,1.0,1.0,375.3717090003192,3.0,1.0,phase_1,,,,,,,,,,,,,cyan,diamond
422.0,4.0,4.0,0.0,3.0,3.0,358.8874069973826,3.0,1.0,phase_1,,,,,,,,,,,,,yellow,I
46.0,1.0,1.0,0.0,1.0,1.0,272.0476989634335,3.0,1.0,phase_1,,,,,,,,,,,,,cyan,diamond
38.0,1.0,1.0,0.0,1.0,1.0,437.3148020822555,3.0,1.0,phase_1,,,,,,,,,,,,,cyan,diamond
408.0,8.0,4.0,1.0,2.0,2.0,297.6504010148346,3.0,1.0,phase_1,,,,,,,,,,,,,orange,flipped triangle
412.0,4.0,4.0,0.0,3.0,3.0,375.7223330903798,3.0,1.0,phase_1,,,,,,,,,,,,,yellow,I
79.0,6.0,2.0,1.0,4.0,4.0,354.6650039497763,3.0,1.0,phase_1,,,,,,,,,,,,,white,hexagon
386.0,8.0,4.0,1.0,2.0,2.0,432.2222380433231,3.0,1.0,phase_1,,,,,,,,,,,,,orange,flipped triangle
44.0,1.0,1.0,0.0,4.0,4.0,335.0986789446324,3.0,1.0,phase_1,,,,,,,,,,,,,cyan,diamond
377.0,8.0,4.0,1.0,4.0,4.0,330.7038370985538,3.0,1.0,phase_1,,,,,,,,,,,,,orange,flipped triangle
58.0,1.0,1.0,0.0,3.0,3.0,286.2376139964908,3.0,1.0,phase_1,,,,,,,,,,,,,cyan,diamond
0.0,1.0,0.0,0.0,4.0,4.0,346.3877160102129,3.0,1.0,phase_1,,,,,,,,,,,,,cyan,diamond
0.0,8.0,0.0,1.0,4.0,4.0,375.2340518403798,3.0,1.0,phase_1,,,,,,,,,,,,,orange,flipped triangle
0.0,4.0,0.0,0.0,3.0,3.0,332.4298169463873,3.0,1.0,phase_1,,,,,,,,,,,,,yellow,I
104.0,2.0,2.0,0.0,4.0,4.0,490.4506208840757,3.0,1.0,phase_1,,,,,,,,,,,,,gray,circle
73.0,5.0,1.0,1.0,2.0,2.0,455.9029440861195,3.0,1.0,phase_1,,,,,,,,,,,,,magenta,square
30.0,1.0,1.0,0.0,2.0,2.0,367.6479791756719,3.0,2.0,phase_1,,,,,,,,,,,,,cyan,diamond
55.0,1.0,1.0,0.0,1.0,1.0,331.3864250667393,3.0,1.0,phase_1,,,,,,,,,,,,,cyan,diamond
0.0,1.0,0.0,0.0,1.0,1.0,361.7781121283769,3.0,1.0,phase_1,,,,,,,,,,,,,cyan,diamond
386.0,4.0,4.0,0.0,4.0,4.0,375.8557348046452,3.0,1.0,phase_1,,,,,,,,,,,,,yellow,I
0.0,4.0,0.0,0.0,2.0,2.0,377.7852288912982,3.0,1.0,phase_1,,,,,,,,,,,,,yellow,I
108.0,6.0,2.0,1.0,2.0,2.0,407.7545069158077,3.0,1.0,phase_1,,,,,,,,,,,,,white,hexagon
391.0,4.0,4.0,0.0,2.0,2.0,454.0863919537514,3.0,1.0,phase_1,,,,,,,,,,,,,yellow,I
403.0,8.0,4.0,1.0,2.0,2.0,415.7142320182174,3.0,1.0,phase_1,,,,,,,,,,,,,orange,flipped triangle
84.0,2.0,2.0,0.0,3.0,3.0,399.7359739150852,3.0,1.0,phase_1,,,,,,,,,,,,,gray,circle
382.0,4.0,4.0,0.0,3.0,3.0,404.5577950309962,3.0,1.0,phase_1,,,,,,,,,,,,,yellow,I
61.0,1.0,1.0,0.0,1.0,1.0,321.0312819574028,3.0,1.0,phase_1,,,,,,,,,,,,,cyan,diamond
121.0,2.0,2.0,0.0,4.0,4.0,386.8650540243834,3.0,1.0,phase_1,,,,,,,,,,,,,gray,circle
201.0,7.0,3.0,1.0,1.0,1.0,390.4664937872439,3.0,1.0,phase_1,,,,,,,,,,,,,blue,cross
47.0,1.0,1.0,0.0,2.0,2.0,378.7849938962608,3.0,1.0,phase_1,,,,,,,,,,,,,cyan,diamond
0.0,7.0,0.0,1.0,1.0,1.0,371.4065589010715,3.0,1.0,phase_1,,,,,,,,,,,,,blue,cross
101.0,6.0,2.0,1.0,1.0,1.0,325.9710469283163,3.0,1.0,phase_1,,,,,,,,,,,,,white,hexagon
189.0,7.0,3.0,1.0,3.0,3.0,339.765824843198,3.0,1.0,phase_1,,,,,,,,,,,,,blue,cross
0.0,7.0,0.0,1.0,1.0,1.0,391.9020618777722,3.0,1.0,phase_1,,,,,,,,,,,,,blue,cross
28.0,5.0,1.0,1.0,4.0,4.0,371.5073128696531,3.0,1.0,phase_1,,,,,,,,,,,,,magenta,square
39.0,1.0,1.0,0.0,1.0,1.0,416.209802031517,3.0,1.0,phase_1,,,,,,,,,,,,,cyan,diamond
193.0,7.0,3.0,1.0,4.0,4.0,381.1395999509841,3.0,1.0,phase_1,,,,,,,,,,,,,blue,cross
44.0,1.0,1.0,0.0,3.0,3.0,416.8020579963922,3.0,1.0,phase_1,,,,,,,,,,,,,cyan,diamond
213.0,7.0,3.0,1.0,1.0,1.0,645.2080218587071,3.0,1.0,phase_1,,,,,,,,,,,,,blue,cross
28.0,1.0,1.0,0.0,2.0,2.0,419.5921500213444,3.0,1.0,phase_1,,,,,,,,,,,,,cyan,diamond
0.0,8.0,0.0,1.0,1.0,1.0,351.0536141693592,3.0,1.0,phase_1,,,,,,,,,,,,,orange,flipped triangle
67.0,5.0,1.0,1.0,1.0,1.0,358.4521249867975,3.0,1.0,phase_1,,,,,,,,,,,,,magenta,square
410.0,4.0,4.0,0.0,3.0,3.0,359.9248898681253,3.0,1.0,phase_1,,,,,,,,,,,,,yellow,I
178.0,7.0,3.0,1.0,2.0,2.0,460.899697849527,3.0,1.0,phase_1,,,,,,,,,,,,,blue,cross
0.0,8.0,0.0,1.0,3.0,3.0,610.1581810507923,3.0,1.0,phase_1,,,,,,,,,,,,,orange,flipped triangle
0.0,5.0,0.0,1.0,3.0,3.0,350.8662478998303,3.0,1.0,phase_1,,,,,,,,,,,,,magenta,square
201.0,3.0,3.0,0.0,4.0,4.0,419.3786648102104,3.0,1.0,phase_1,,,,,,,,,,,,,green,triangle
0.0,8.0,0.0,1.0,3.0,3.0,371.0149289108813,3.0,1.0,phase_1,,,,,,,,,,,,,orange,flipped triangle
187.0,3.0,3.0,0.0,2.0,2.0,341.0512171685695,3.0,1.0,phase_1,,,,,,,,,,,,,green,triangle
73.0,1.0,1.0,0.0,3.0,3.0,344.9979298748076,3.0,1.0,phase_1,,,,,,,,,,,,,cyan,diamond
116.0,6.0,2.0,1.0,3.0,3.0,445.9571060724556,3.0,1.0,phase_1,,,,,,,,,,,,,white,hexagon
409.0,8.0,4.0,1.0,1.0,1.0,380.8561649639159,3.0,1.0,phase_1,,,,,,,,,,,,,orange,flipped triangle
0.0,7.0,0.0,1.0,4.0,4.0,451.2749807909131,3.0,1.0,phase_1,,,,,,,,,,,,,blue,cross
378.0,4.0,4.0,0.0,2.0,2.0,573.5940111335367,3.0,1.0,phase_1,,,,,,,,,,,,,yellow,I
113.0,6.0,2.0,1.0,2.0,2.0,360.0643568206578,3.0,2.0,phase_1,,,,,,,,,,,,,white,hexagon
67.0,5.0,1.0,1.0,3.0,3.0,429.2854929808527,3.0,1.0,phase_1,,,,,,,,,,,,,magenta,square
86.0,6.0,2.0,1.0,1.0,1.0,377.2750850766897,3.0,1.0,phase_1,,,,,,,,,,,,,white,hexagon
403.0,4.0,4.0,0.0,2.0,2.0,338.9641270041466,3.0,1.0,phase_1,,,,,,,,,,,,,yellow,I
0.0,5.0,0.0,1.0,1.0,1.0,351.7525650095194,3.0,1.0,phase_1,,,,,,,,,,,,,magenta,square
422.0,4.0,4.0,0.0,4.0,4.0,453.6568361800164,3.0,1.0,phase_1,,,,,,,,,,,,,yellow,I
0.0,4.0,0.0,0.0,2.0,2.0,337.9026239272207,3.0,1.0,phase_1,,,,,,,,,,,,,yellow,I
81.0,6.0,2.0,1.0,3.0,3.0,357.9668530728668,3.0,1.0,phase_1,,,,,,,,,,,,,white,hexagon
210.0,3.0,3.0,0.0,1.0,1.0,345.3887421637773,4.0,1.0,phase_1,,,,,,,,,,,,,green,triangle
116.0,2.0,2.0,0.0,3.0,3.0,269.4625239819288,4.0,1.0,phase_1,,,,,,,,,,,,,gray,circle
0.0,6.0,0.0,1.0,3.0,3.0,425.6136901676655,4.0,1.0,phase_1,,,,,,,,,,,,,white,hexagon
0.0,5.0,0.0,1.0,4.0,4.0,277.4871550500393,4.0,1.0,phase_1,,,,,,,,,,,,,magenta,square
30.0,5.0,1.0,1.0,1.0,1.0,313.0929039325565,4.0,1.0,phase_1,,,,,,,,,,,,,magenta,square
102.0,6.0,2.0,1.0,4.0,4.0,288.8619559817016,4.0,1.0,phase_1,,,,,,,,,,,,,white,hexagon
0.0,4.0,0.0,0.0,1.0,1.0,293.6841649934649,4.0,1.0,phase_1,,,,,,,,,,,,,yellow,I
67.0,1.0,1.0,0.0,4.0,4.0,357.6878800522536,4.0,2.0,phase_1,,,,,,,,,,,,,cyan,diamond
210.0,7.0,3.0,1.0,3.0,3.0,408.3035059738904,4.0,1.0,phase_1,,,,,,,,,,,,,blue,cross
424.0,8.0,4.0,1.0,3.0,3.0,375.9204598609358,4.0,1.0,phase_1,,,,,,,,,,,,,orange,flipped triangle
381.0,4.0,4.0,0.0,1.0,1.0,371.8951600603759,4.0,1.0,phase_1,,,,,,,,,,,,,yellow,I
0.0,3.0,0.0,0.0,4.0,4.0,326.7579900566488,4.0,1.0,phase_1,,,,,,,,,,,,,green,triangle
414.0,4.0,4.0,0.0,3.0,3.0,427.7464540209621,4.0,1.0,phase_1,,,,,,,,,,,,,yellow,I
55.0,1.0,1.0,0.0,2.0,2.0,395.3330479562282,4.0,1.0,phase_1,,,,,,,,,,,,,cyan,diamond
91.0,6.0,2.0,1.0,2.0,2.0,340.5386828817427,4.0,1.0,phase_1,,,,,,,,,,,,,white,hexagon
40.0,5.0,1.0,1.0,4.0,4.0,265.3378339018672,4.0,1.0,phase_1,,,,,,,,,,,,,magenta,square
423.0,4.0,4.0,0.0,1.0,1.0,375.851830933243,4.0,1.0,phase_1,,,,,,,,,,,,,yellow,I
218.0,3.0,3.0,0.0,3.0,3.0,314.3573380075395,4.0,1.0,phase_1,,,,,,,,,,,,,green,triangle
0.0,2.0,0.0,0.0,1.0,1.0,319.0231050830334,4.0,1.0,phase_1,,,,,,,,,,,,,gray,circle
200.0,7.0,3.0,1.0,4.0,4.0,302.2247708868235,4.0,1.0,phase_1,,,,,,,,,,,,,blue,cross
207.0,3.0,3.0,0.0,2.0,2.0,312.3723489698022,4.0,1.0,phase_1,,,,,,,,,,,,,green,triangle
0.0,3.0,0.0,0.0,4.0,4.0,301.7291680444032,4.0,1.0,phase_1,,,,,,,,,,,,,green,triangle
218.0,7.0,3.0,1.0,3.0,3.0,355.6381519883871,4.0,1.0,phase_1,,,,,,,,,,,,,blue,cross
30.0,1.0,1.0,0.0,3.0,3.0,351.0633381083607,4.0,1.0,phase_1,,,,,,,,,,,,,cyan,diamond
83.0,2.0,2.0,0.0,3.0,3.0,307.6133970171213,4.0,1.0,phase_1,,,,,,,,,,,,,gray,circle
0.0,3.0,0.0,0.0,1.0,1.0,272.7718059904873,4.0,1.0,phase_1,,,,,,,,,,,,,green,triangle
120.0,2.0,2.0,0.0,4.0,4.0,351.5165848657489,4.0,1.0,phase_1,,,,,,,,,,,,,gray,circle
0.0,2.0,0.0,0.0,1.0,1.0,353.9726980961859,4.0,1.0,phase_1,,,,,,,,,,,,,gray,circle
196.0,7.0,3.0,1.0,4.0,4.0,392.2797120176255,4.0,1.0,phase_1,,,,,,,,,,,,,blue,cross
58.0,1.0,1.0,0.0,4.0,4.0,530.5824151728302,4.0,1.0,phase_1,,,,,,,,,,,,,cyan,diamond
49.0,5.0,1.0,1.0,3.0,3.0,416.1608188878745,4.0,1.0,phase_1,,,,,,,,,,,,,magenta,square
101.0,2.0,2.0,0.0,2.0,2.0,326.5037890523672,4.0,1.0,phase_1,,,,,,,,,,,,,gray,circle
54.0,5.0,1.0,1.0,4.0,4.0,282.1353271137923,4.0,1.0,phase_1,,,,,,,,,,,,,magenta,square
29.0,5.0,1.0,1.0,1.0,1.0,309.5018779858947,4.0,1.0,phase_1,,,,,,,,,,,,,magenta,square
388.0,8.0,4.0,1.0,1.0,1.0,322.3558680620044,4.0,1.0,phase_1,,,,,,,,,,,,,orange,flipped triangle
46.0,5.0,1.0,1.0,2.0,2.0,313.5794359259307,4.0,1.0,phase_1,,,,,,,,,,,,,magenta,square
40.0,1.0,1.0,0.0,2.0,2.0,390.2363278903067,4.0,1.0,phase_1,,,,,,,,,,,,,cyan,diamond
384.0,8.0,4.0,1.0,3.0,3.0,328.0430000741035,4.0,1.0,phase_1,,,,,,,,,,,,,orange,flipped triangle
71.0,5.0,1.0,1.0,3.0,3.0,488.0794310010969,4.0,1.0,phase_1,,,,,,,,,,,,,magenta,square
80.0,6.0,2.0,1.0,4.0,4.0,369.5689309388399,4.0,1.0,phase_1,,,,,,,,,,,,,white,hexagon
0.0,4.0,0.0,0.0,3.0,3.0,343.7131661921739,4.0,1.0,phase_1,,,,,,,,,,,,,yellow,I
0.0,8.0,0.0,1.0,3.0,3.0,331.4765770919621,4.0,1.0,phase_1,,,,,,,,,,,,,orange,flipped triangle
180.0,3.0,3.0,0.0,4.0,4.0,292.9023369215429,4.0,2.0,phase_1,,,,,,,,,,,,,green,triangle
0.0,1.0,0.0,0.0,3.0,3.0,313.621676992625,4.0,1.0,phase_1,,,,,,,,,,,,,cyan,diamond
180.0,3.0,3.0,0.0,1.0,1.0,342.5392878707498,4.0,1.0,phase_1,,,,,,,,,,,,,green,triangle
50.0,1.0,1.0,0.0,3.0,3.0,292.1419800259173,4.0,1.0,phase_1,,,,,,,,,,,,,cyan,diamond
387.0,4.0,4.0,0.0,3.0,3.0,284.4914370216429,4.0,2.0,phase_1,,,,,,,,,,,,,yellow,I
73.0,1.0,1.0,0.0,3.0,3.0,280.3230129648,4.0,1.0,phase_1,,,,,,,,,,,,,cyan,diamond
122.0,2.0,2.0,0.0,2.0,2.0,397.1212280448526,4.0,1.0,phase_1,,,,,,,,,,,,,gray,circle
180.0,7.0,3.0,1.0,4.0,4.0,289.4943079445511,4.0,1.0,phase_1,,,,,,,,,,,,,blue,cross
393.0,8.0,4.0,1.0,2.0,2.0,360.8391699381172,4.0,1.0,phase_1,,,,,,,,,,,,,orange,flipped triangle
396.0,8.0,4.0,1.0,3.0,3.0,293.7955290544778,4.0,1.0,phase_1,,,,,,,,,,,,,orange,flipped triangle
216.0,7.0,3.0,1.0,1.0,1.0,329.8177819233387,4.0,1.0,phase_1,,,,,,,,,,,,,blue,cross
0.0,2.0,0.0,0.0,4.0,4.0,333.4058059845119,4.0,1.0,phase_1,,,,,,,,,,,,,gray,circle
0.0,8.0,0.0,1.0,4.0,4.0,547.8772448841482,4.0,1.0,phase_1,,,,,,,,,,,,,orange,flipped triangle
81.0,2.0,2.0,0.0,4.0,4.0,333.8899449445307,4.0,1.0,phase_1,,,,,,,,,,,,,gray,circle
425.0,8.0,4.0,1.0,3.0,3.0,298.7182401120662,4.0,2.0,phase_1,,,,,,,,,,,,,orange,flipped triangle
213.0,3.0,3.0,0.0,2.0,2.0,374.6714279986918,4.0,1.0,phase_1,,,,,,,,,,,,,green,triangle
410.0,8.0,4.0,1.0,4.0,4.0,403.8650409784168,4.0,1.0,phase_1,,,,,,,,,,,,,orange,flipped triangle
79.0,2.0,2.0,0.0,2.0,2.0,360.7552859466523,4.0,1.0,phase_1,,,,,,,,,,,,,gray,circle
85.0,6.0,2.0,1.0,2.0,2.0,349.6692099142819,4.0,1.0,phase_1,,,,,,,,,,,,,white,hexagon
58.0,5.0,1.0,1.0,1.0,1.0,391.3617779035121,4.0,1.0,phase_1,,,,,,,,,,,,,magenta,square
396.0,4.0,4.0,0.0,2.0,2.0,349.7284660115838,4.0,1.0,phase_1,,,,,,,,,,,,,yellow,I
198.0,3.0,3.0,0.0,1.0,1.0,329.6747030690312,4.0,1.0,phase_1,,,,,,,,,,,,,green,triangle
180.0,7.0,3.0,1.0,1.0,1.0,348.4573988243937,4.0,1.0,phase_1,,,,,,,,,,,,,blue,cross
198.0,3.0,3.0,0.0,3.0,3.0,369.3230580538511,4.0,1.0,phase_1,,,,,,,,,,,,,green,triangle
80.0,2.0,2.0,0.0,3.0,3.0,345.7037250045687,4.0,1.0,phase_1,,,,,,,,,,,,,gray,circle
108.0,2.0,2.0,0.0,2.0,2.0,357.5339480303228,4.0,1.0,phase_1,,,,,,,,,,,,,gray,circle
113.0,2.0,2.0,0.0,1.0,1.0,418.4969060588628,4.0,1.0,phase_1,,,,,,,,,,,,,gray,circle
55.0,5.0,1.0,1.0,4.0,4.0,341.6974600404501,4.0,1.0,phase_1,,,,,,,,,,,,,magenta,square
105.0,6.0,2.0,1.0,3.0,3.0,370.7201271317899,4.0,1.0,phase_1,,,,,,,,,,,,,white,hexagon
424.0,4.0,4.0,0.0,2.0,2.0,334.0356030967086,4.0,1.0,phase_1,,,,,,,,,,,,,yellow,I
87.0,6.0,2.0,1.0,2.0,2.0,362.3580739367753,4.0,1.0,phase_1,,,,,,,,,,,,,white,hexagon
201.0,7.0,3.0,1.0,3.0,3.0,408.7749000173062,4.0,1.0,phase_1,,,,,,,,,,,,,blue,cross
38.0,5.0,1.0,1.0,3.0,3.0,547.5443010218441,4.0,1.0,phase_1,,,,,,,,,,,,,magenta,square
34.0,1.0,1.0,0.0,2.0,2.0,451.6454699914902,4.0,1.0,phase_1,,,,,,,,,,,,,cyan,diamond
223.0,3.0,3.0,0.0,1.0,1.0,476.4381328132003,4.0,1.0,phase_1,,,,,,,,,,,,,green,triangle
28.0,5.0,1.0,1.0,4.0,4.0,492.9786880966276,4.0,1.0,phase_1,,,,,,,,,,,,,magenta,square
0.0,6.0,0.0,1.0,2.0,2.0,570.0753659475595,4.0,1.0,phase_1,,,,,,,,,,,,,white,hexagon
28.0,1.0,1.0,0.0,1.0,1.0,346.2779768742621,4.0,2.0,phase_1,,,,,,,,,,,,,cyan,diamond
75.0,5.0,1.0,1.0,3.0,3.0,324.2427860386669,4.0,1.0,phase_1,,,,,,,,,,,,,magenta,square
376.0,4.0,4.0,0.0,2.0,2.0,376.4825970865786,4.0,1.0,phase_1,,,,,,,,,,,,,yellow,I
40.0,1.0,1.0,0.0,4.0,4.0,446.1540111806243,4.0,1.0,phase_1,,,,,,,,,,,,,cyan,diamond
116.0,2.0,2.0,0.0,1.0,1.0,305.8462939225137,4.0,1.0,phase_1,,,,,,,,,,,,,gray,circle
38.0,5.0,1.0,1.0,4.0,4.0,353.954599937424,4.0,1.0,phase_1,,,,,,,,,,,,,magenta,square
0.0,5.0,0.0,1.0,3.0,3.0,325.8464729879051,4.0,1.0,phase_1,,,,,,,,,,,,,magenta,square
424.0,8.0,4.0,1.0,1.0,1.0,305.1962631288916,4.0,1.0,phase_1,,,,,,,,,,,,,orange,flipped triangle
0.0,8.0,0.0,1.0,1.0,1.0,375.3748810850084,4.0,1.0,phase_1,,,,,,,,,,,,,orange,flipped triangle
391.0,8.0,4.0,1.0,4.0,4.0,499.4887749198824,4.0,1.0,phase_1,,,,,,,,,,,,,orange,flipped triangle
198.0,7.0,3.0,1.0,3.0,3.0,330.8211660478264,4.0,2.0,phase_1,,,,,,,,,,,,,blue,cross
0.0,7.0,0.0,1.0,4.0,4.0,354.1614988353103,4.0,1.0,phase_1,,,,,,,,,,,,,blue,cross
0.0,3.0,0.0,0.0,3.0,3.0,349.3847849313169,4.0,1.0,phase_1,,,,,,,,,,,,,green,triangle
0.0,3.0,0.0,0.0,2.0,2.0,508.41594487428665,4.0,1.0,phase_1,,,,,,,,,,,,,green,triangle
95.0,6.0,2.0,1.0,1.0,1.0,354.1867069434374,4.0,1.0,phase_1,,,,,,,,,,,,,white,hexagon
50.0,5.0,1.0,1.0,4.0,4.0,325.4957350436598,4.0,1.0,phase_1,,,,,,,,,,,,,magenta,square
108.0,6.0,2.0,1.0,2.0,2.0,415.3736310545355,4.0,1.0,phase_1,,,,,,,,,,,,,white,hexagon
0.0,1.0,0.0,0.0,4.0,4.0,317.9093119688332,4.0,1.0,phase_1,,,,,,,,,,,,,cyan,diamond
225.0,3.0,3.0,0.0,2.0,2.0,330.0071228295564,4.0,1.0,phase_1,,,,,,,,,,,,,green,triangle
191.0,3.0,3.0,0.0,1.0,1.0,334.993896074593,4.0,1.0,phase_1,,,,,,,,,,,,,green,triangle
39.0,5.0,1.0,1.0,2.0,2.0,361.5918050054461,4.0,1.0,phase_1,,,,,,,,,,,,,magenta,square
0.0,8.0,4.0,1.0,5.0,5.0,482.6286269817501,1.0,1.0,phase_2,go,250.0,250.0,1.0,,,,,,,,,orange,flipped triangle
0.0,8.0,4.0,1.0,6.0,6.0,510.62790397554636,1.0,1.0,phase_2,stop,250.0,250.0,3.0,,,,,,,,,orange,flipped triangle
0.0,3.0,3.0,0.0,5.0,5.0,457.4251100420952,1.0,1.0,phase_2,go,250.0,200.0,1.0,,,,,,,,,green,triangle
0.0,2.0,2.0,0.0,5.0,5.0,656.5629811957479,1.0,1.0,phase_2,go,250.0,200.0,1.0,,,,,,,,,gray,circle
0.0,2.0,2.0,0.0,5.0,5.0,393.4172370936721,1.0,1.0,phase_2,go,250.0,200.0,1.0,,,,,,,,,gray,circle
0.0,2.0,2.0,0.0,6.0,6.0,570.2711059711874,1.0,1.0,phase_2,go,250.0,200.0,1.0,,,,,,,,,gray,circle
0.0,3.0,3.0,0.0,6.0,6.0,721.8203160446137,1.0,1.0,phase_2,go,250.0,200.0,1.0,,,,,,,,,green,triangle
0.0,1.0,1.0,0.0,6.0,6.0,365.8413251396268,1.0,1.0,phase_2,go,250.0,200.0,1.0,,,,,,,,,cyan,diamond
0.0,1.0,1.0,0.0,6.0,6.0,536.5728631149977,1.0,1.0,phase_2,go,250.0,200.0,1.0,,,,,,,,,cyan,diamond
0.0,5.0,1.0,1.0,5.0,0.0,0.0,1.0,1.0,phase_2,stop,250.0,200.0,4.0,,,,,,,,,magenta,square
0.0,3.0,3.0,0.0,5.0,5.0,383.5699299816042,1.0,1.0,phase_2,go,300.0,200.0,1.0,,,,,,,,,green,triangle
0.0,8.0,4.0,1.0,6.0,0.0,0.0,1.0,1.0,phase_2,stop,300.0,200.0,4.0,,,,,,,,,orange,flipped triangle
0.0,2.0,2.0,0.0,6.0,6.0,382.6681280042976,1.0,1.0,phase_2,go,300.0,250.0,1.0,,,,,,,,,gray,circle
0.0,3.0,3.0,0.0,5.0,5.0,451.2983821332454,1.0,1.0,phase_2,go,300.0,250.0,1.0,,,,,,,,,green,triangle
0.0,8.0,4.0,1.0,5.0,0.0,0.0,1.0,1.0,phase_2,stop,300.0,250.0,4.0,,,,,,,,,orange,flipped triangle
0.0,7.0,3.0,1.0,6.0,6.0,300.6445169448852,1.0,1.0,phase_2,stop,350.0,250.0,3.0,,,,,,,,,blue,cross
0.0,5.0,1.0,1.0,5.0,0.0,0.0,1.0,1.0,phase_2,stop,350.0,200.0,4.0,,,,,,,,,magenta,square
0.0,4.0,4.0,0.0,5.0,5.0,676.3082898687571,1.0,1.0,phase_2,go,400.0,200.0,1.0,,,,,,,,,yellow,I
0.0,1.0,1.0,0.0,6.0,6.0,873.323034029454,1.0,1.0,phase_2,go,400.0,200.0,1.0,,,,,,,,,cyan,diamond
0.0,7.0,3.0,1.0,5.0,0.0,0.0,1.0,1.0,phase_2,stop,400.0,200.0,4.0,,,,,,,,,blue,cross
0.0,6.0,2.0,1.0,5.0,5.0,560.484518064186,1.0,1.0,phase_2,stop,450.0,200.0,3.0,,,,,,,,,white,hexagon
0.0,3.0,3.0,0.0,6.0,6.0,749.9631769023836,1.0,1.0,phase_2,go,400.0,200.0,1.0,,,,,,,,,green,triangle
0.0,5.0,1.0,1.0,5.0,0.0,0.0,1.0,1.0,phase_2,stop,400.0,200.0,4.0,,,,,,,,,magenta,square
0.0,4.0,4.0,0.0,5.0,5.0,769.212116021663,1.0,1.0,phase_2,go,450.0,200.0,1.0,,,,,,,,,yellow,I
0.0,2.0,2.0,0.0,6.0,6.0,734.2978601809591,1.0,1.0,phase_2,go,450.0,200.0,1.0,,,,,,,,,gray,circle
0.0,1.0,1.0,0.0,5.0,5.0,726.4130420517176,1.0,1.0,phase_2,go,450.0,200.0,1.0,,,,,,,,,cyan,diamond
0.0,1.0,1.0,0.0,5.0,5.0,467.8661739453673,1.0,1.0,phase_2,go,450.0,200.0,1.0,,,,,,,,,cyan,diamond
0.0,2.0,2.0,0.0,6.0,6.0,734.8741998430341,1.0,1.0,phase_2,go,450.0,200.0,1.0,,,,,,,,,gray,circle
0.0,3.0,3.0,0.0,5.0,5.0,469.5127450395375,1.0,1.0,phase_2,go,450.0,200.0,1.0,,,,,,,,,green,triangle
0.0,8.0,4.0,1.0,6.0,0.0,0.0,1.0,1.0,phase_2,stop,450.0,200.0,4.0,,,,,,,,,orange,flipped triangle
0.0,2.0,2.0,0.0,5.0,5.0,688.9995231758803,1.0,1.0,phase_2,go,450.0,250.0,1.0,,,,,,,,,gray,circle
0.0,4.0,4.0,0.0,6.0,6.0,411.0362720675766,1.0,1.0,phase_2,go,450.0,250.0,1.0,,,,,,,,,yellow,I
0.0,5.0,1.0,1.0,5.0,0.0,0.0,1.0,1.0,phase_2,stop,450.0,250.0,4.0,,,,,,,,,magenta,square
0.0,8.0,4.0,1.0,5.0,5.0,527.9605670366436,1.0,1.0,phase_2,stop,500.0,250.0,3.0,,,,,,,,,orange,flipped triangle
0.0,7.0,3.0,1.0,6.0,6.0,366.8898029718548,1.0,1.0,phase_2,go,450.0,250.0,1.0,,,,,,,,,blue,cross
0.0,8.0,4.0,1.0,6.0,0.0,0.0,1.0,1.0,phase_2,stop,450.0,250.0,4.0,,,,,,,,,orange,flipped triangle
0.0,8.0,4.0,1.0,6.0,6.0,497.2910820506513,2.0,1.0,phase_2,go,450.0,300.0,1.0,,,,,,,,,orange,flipped triangle
0.0,4.0,4.0,0.0,6.0,6.0,500.93663204461336,2.0,1.0,phase_2,go,450.0,300.0,1.0,,,,,,,,,yellow,I
0.0,7.0,3.0,1.0,5.0,0.0,0.0,2.0,1.0,phase_2,stop,450.0,300.0,4.0,,,,,,,,,blue,cross
0.0,7.0,3.0,1.0,6.0,6.0,529.74370890297,2.0,1.0,phase_2,go,500.0,300.0,1.0,,,,,,,,,blue,cross
0.0,6.0,2.0,1.0,6.0,0.0,0.0,2.0,1.0,phase_2,stop,500.0,300.0,4.0,,,,,,,,,white,hexagon
0.0,5.0,1.0,1.0,5.0,5.0,289.6193929482251,2.0,1.0,phase_2,go,500.0,350.0,1.0,,,,,,,,,magenta,square
0.0,7.0,3.0,1.0,5.0,0.0,0.0,2.0,1.0,phase_2,stop,500.0,350.0,4.0,,,,,,,,,blue,cross
0.0,3.0,3.0,0.0,6.0,6.0,361.6034227889031,2.0,1.0,phase_2,go,550.0,350.0,1.0,,,,,,,,,green,triangle
0.0,3.0,3.0,0.0,6.0,6.0,797.7982610464096,2.0,1.0,phase_2,go,550.0,350.0,1.0,,,,,,,,,green,triangle
0.0,1.0,1.0,0.0,5.0,5.0,404.8193329945206,2.0,1.0,phase_2,go,550.0,350.0,1.0,,,,,,,,,cyan,diamond
0.0,7.0,3.0,1.0,6.0,0.0,0.0,2.0,1.0,phase_2,stop,550.0,350.0,4.0,,,,,,,,,blue,cross
0.0,1.0,1.0,0.0,6.0,6.0,396.5586069971323,2.0,1.0,phase_2,go,550.0,400.0,1.0,,,,,,,,,cyan,diamond
0.0,5.0,1.0,1.0,5.0,5.0,677.5568011216819,2.0,1.0,phase_2,stop,550.0,400.0,3.0,,,,,,,,,magenta,square
0.0,5.0,1.0,1.0,6.0,0.0,0.0,2.0,1.0,phase_2,stop,500.0,400.0,4.0,,,,,,,,,magenta,square
0.0,4.0,4.0,0.0,5.0,5.0,586.0858028754592,2.0,1.0,phase_2,go,500.0,450.0,1.0,,,,,,,,,yellow,I
0.0,5.0,1.0,1.0,5.0,0.0,0.0,2.0,1.0,phase_2,stop,500.0,450.0,4.0,,,,,,,,,magenta,square
0.0,7.0,3.0,1.0,5.0,5.0,616.7405070737004,2.0,1.0,phase_2,stop,550.0,450.0,3.0,,,,,,,,,blue,cross
0.0,2.0,2.0,0.0,6.0,6.0,818.6506100464612,2.0,1.0,phase_2,go,500.0,450.0,1.0,,,,,,,,,gray,circle
0.0,8.0,4.0,1.0,6.0,0.0,0.0,2.0,1.0,phase_2,stop,500.0,450.0,4.0,,,,,,,,,orange,flipped triangle
0.0,8.0,4.0,1.0,6.0,0.0,0.0,2.0,1.0,phase_2,stop,500.0,500.0,4.0,,,,,,,,,orange,flipped triangle
0.0,8.0,4.0,1.0,6.0,6.0,680.5495081935078,2.0,1.0,phase_2,stop,500.0,550.0,3.0,,,,,,,,,orange,flipped triangle
0.0,4.0,4.0,0.0,6.0,6.0,630.7069999165833,2.0,1.0,phase_2,go,500.0,500.0,1.0,,,,,,,,,yellow,I
0.0,8.0,4.0,1.0,5.0,0.0,0.0,2.0,1.0,phase_2,stop,500.0,500.0,4.0,,,,,,,,,orange,flipped triangle
0.0,7.0,3.0,1.0,5.0,0.0,0.0,2.0,1.0,phase_2,stop,550.0,500.0,4.0,,,,,,,,,blue,cross
0.0,7.0,3.0,1.0,5.0,5.0,741.8491749558598,2.0,1.0,phase_2,stop,600.0,500.0,3.0,,,,,,,,,blue,cross
0.0,2.0,2.0,0.0,5.0,5.0,756.4815580844879,2.0,1.0,phase_2,go,550.0,500.0,1.0,,,,,,,,,gray,circle
0.0,6.0,2.0,1.0,5.0,0.0,0.0,2.0,1.0,phase_2,stop,550.0,500.0,4.0,,,,,,,,,white,hexagon
0.0,3.0,3.0,0.0,6.0,6.0,613.5239989962429,2.0,1.0,phase_2,go,600.0,500.0,1.0,,,,,,,,,green,triangle
0.0,6.0,2.0,1.0,6.0,6.0,980.3943419829012,2.0,1.0,phase_2,go,600.0,500.0,1.0,,,,,,,,,white,hexagon
0.0,4.0,4.0,0.0,5.0,5.0,925.2596038859338,2.0,1.0,phase_2,go,600.0,500.0,1.0,,,,,,,,,yellow,I
0.0,7.0,3.0,1.0,5.0,0.0,0.0,2.0,1.0,phase_2,stop,600.0,500.0,4.0,,,,,,,,,blue,cross
0.0,7.0,3.0,1.0,6.0,0.0,0.0,2.0,1.0,phase_2,stop,650.0,500.0,4.0,,,,,,,,,blue,cross
0.0,5.0,1.0,1.0,6.0,0.0,0.0,2.0,1.0,phase_2,stop,650.0,550.0,4.0,,,,,,,,,magenta,square
0.0,6.0,2.0,1.0,6.0,6.0,750.9363810531795,2.0,1.0,phase_2,go,650.0,600.0,1.0,,,,,,,,,white,hexagon
0.0,2.0,2.0,0.0,6.0,6.0,1000.1830270048231,2.0,1.0,phase_2,go,650.0,600.0,1.0,,,,,,,,,gray,circle
0.0,5.0,1.0,1.0,6.0,0.0,0.0,2.0,1.0,phase_2,stop,650.0,600.0,4.0,,,,,,,,,magenta,square
0.0,1.0,1.0,0.0,5.0,5.0,718.7572240363806,3.0,1.0,phase_2,go,650.0,650.0,1.0,,,,,,,,,cyan,diamond
0.0,4.0,4.0,0.0,5.0,5.0,773.6643629614264,3.0,1.0,phase_2,go,650.0,650.0,1.0,,,,,,,,,yellow,I
0.0,8.0,4.0,1.0,6.0,6.0,802.7447829954326,3.0,1.0,phase_2,go,650.0,650.0,1.0,,,,,,,,,orange,flipped triangle
0.0,1.0,1.0,0.0,6.0,6.0,514.0621848404408,3.0,1.0,phase_2,go,650.0,650.0,1.0,,,,,,,,,cyan,diamond
0.0,2.0,2.0,0.0,5.0,5.0,489.2260849010199,3.0,1.0,phase_2,go,650.0,650.0,1.0,,,,,,,,,gray,circle
0.0,6.0,2.0,1.0,6.0,6.0,587.4913390725851,3.0,1.0,phase_2,go,650.0,650.0,1.0,,,,,,,,,white,hexagon
0.0,6.0,2.0,1.0,6.0,6.0,675.3210220485926,3.0,1.0,phase_2,stop,650.0,650.0,3.0,,,,,,,,,white,hexagon
0.0,2.0,2.0,0.0,6.0,6.0,842.1391730662435,3.0,1.0,phase_2,go,650.0,600.0,1.0,,,,,,,,,gray,circle
0.0,5.0,1.0,1.0,6.0,0.0,0.0,3.0,1.0,phase_2,stop,650.0,600.0,4.0,,,,,,,,,magenta,square
0.0,8.0,4.0,1.0,6.0,5.0,818.7786608468741,3.0,1.0,phase_2,go,650.0,650.0,2.0,,,,,,,,,orange,flipped triangle
0.0,1.0,1.0,0.0,5.0,5.0,834.2312062159181,3.0,1.0,phase_2,go,650.0,650.0,1.0,,,,,,,,,cyan,diamond
0.0,6.0,2.0,1.0,5.0,5.0,957.9100462142378,3.0,1.0,phase_2,go,650.0,650.0,1.0,,,,,,,,,white,hexagon
0.0,3.0,3.0,0.0,6.0,6.0,792.8136999253184,3.0,1.0,phase_2,go,650.0,650.0,1.0,,,,,,,,,green,triangle
0.0,4.0,4.0,0.0,6.0,6.0,814.088384155184,3.0,1.0,phase_2,go,650.0,650.0,1.0,,,,,,,,,yellow,I
0.0,7.0,3.0,1.0,6.0,6.0,526.6812120098621,3.0,1.0,phase_2,stop,650.0,650.0,3.0,,,,,,,,,blue,cross
0.0,8.0,4.0,1.0,6.0,0.0,0.0,3.0,1.0,phase_2,stop,650.0,600.0,4.0,,,,,,,,,orange,flipped triangle
0.0,2.0,2.0,0.0,6.0,6.0,875.4716841503978,3.0,1.0,phase_2,go,650.0,650.0,1.0,,,,,,,,,gray,circle
0.0,4.0,4.0,0.0,6.0,6.0,779.2954409960657,3.0,1.0,phase_2,go,650.0,650.0,1.0,,,,,,,,,yellow,I
0.0,8.0,4.0,1.0,5.0,5.0,869.1819270607084,3.0,1.0,phase_2,go,650.0,650.0,1.0,,,,,,,,,orange,flipped triangle
0.0,7.0,3.0,1.0,5.0,5.0,600.8937680162489,3.0,1.0,phase_2,go,650.0,650.0,1.0,,,,,,,,,blue,cross
0.0,8.0,4.0,1.0,5.0,0.0,0.0,3.0,1.0,phase_2,stop,650.0,650.0,4.0,,,,,,,,,orange,flipped triangle
0.0,6.0,2.0,1.0,5.0,5.0,743.7836169265211,3.0,1.0,phase_2,stop,700.0,650.0,3.0,,,,,,,,,white,hexagon
0.0,6.0,2.0,1.0,6.0,0.0,0.0,3.0,1.0,phase_2,stop,650.0,650.0,4.0,,,,,,,,,white,hexagon
0.0,4.0,4.0,0.0,5.0,5.0,744.9323039036244,3.0,1.0,phase_2,go,650.0,700.0,1.0,,,,,,,,,yellow,I
0.0,7.0,3.0,1.0,5.0,0.0,0.0,3.0,1.0,phase_2,stop,650.0,700.0,4.0,,,,,,,,,blue,cross
0.0,6.0,2.0,1.0,6.0,6.0,727.8966361191124,3.0,1.0,phase_2,stop,700.0,700.0,3.0,,,,,,,,,white,hexagon
0.0,2.0,2.0,0.0,5.0,5.0,1176.826176000759,3.0,1.0,phase_2,go,700.0,650.0,1.0,,,,,,,,,gray,circle
0.0,8.0,4.0,1.0,5.0,0.0,0.0,3.0,1.0,phase_2,stop,700.0,650.0,4.0,,,,,,,,,orange,flipped triangle
0.0,2.0,2.0,0.0,5.0,5.0,910.5797519441694,3.0,1.0,phase_2,go,750.0,650.0,1.0,,,,,,,,,gray,circle
0.0,2.0,2.0,0.0,5.0,5.0,1163.7055629398674,3.0,1.0,phase_2,go,750.0,650.0,1.0,,,,,,,,,gray,circle
0.0,3.0,3.0,0.0,6.0,6.0,794.7754519991577,3.0,1.0,phase_2,go,750.0,650.0,1.0,,,,,,,,,green,triangle
0.0,1.0,1.0,0.0,6.0,6.0,1037.4396950937808,3.0,1.0,phase_2,go,750.0,650.0,1.0,,,,,,,,,cyan,diamond
0.0,6.0,2.0,1.0,5.0,5.0,870.2568071894348,3.0,1.0,phase_2,stop,750.0,650.0,3.0,,,,,,,,,white,hexagon
0.0,8.0,4.0,1.0,5.0,0.0,0.0,3.0,1.0,phase_2,stop,700.0,650.0,4.0,,,,,,,,,orange,flipped triangle
0.0,5.0,1.0,1.0,5.0,0.0,0.0,3.0,1.0,phase_2,stop,750.0,650.0,4.0,,,,,,,,,magenta,square
0.0,2.0,2.0,0.0,6.0,6.0,728.1356749590486,3.0,1.0,phase_2,go,800.0,650.0,1.0,,,,,,,,,gray,circle
0.0,5.0,1.0,1.0,6.0,6.0,398.4891690779477,4.0,1.0,phase_2,stop,800.0,650.0,3.0,,,,,,,,,magenta,square
0.0,7.0,3.0,1.0,6.0,6.0,522.5344249047339,4.0,1.0,phase_2,stop,800.0,600.0,3.0,,,,,,,,,blue,cross
0.0,6.0,2.0,1.0,6.0,6.0,827.2671529557556,4.0,1.0,phase_2,go,800.0,550.0,1.0,,,,,,,,,white,hexagon
0.0,1.0,1.0,0.0,5.0,5.0,869.0176350064576,4.0,1.0,phase_2,go,800.0,550.0,1.0,,,,,,,,,cyan,diamond
0.0,7.0,3.0,1.0,5.0,5.0,778.9327460341156,4.0,1.0,phase_2,stop,800.0,550.0,3.0,,,,,,,,,blue,cross
0.0,4.0,4.0,0.0,6.0,6.0,1040.3294540010393,4.0,1.0,phase_2,go,750.0,550.0,1.0,,,,,,,,,yellow,I
0.0,4.0,4.0,0.0,5.0,5.0,979.4632359407842,4.0,1.0,phase_2,go,750.0,550.0,1.0,,,,,,,,,yellow,I
0.0,2.0,2.0,0.0,5.0,5.0,1041.8198220431805,4.0,1.0,phase_2,go,750.0,550.0,1.0,,,,,,,,,gray,circle
0.0,6.0,2.0,1.0,6.0,0.0,0.0,4.0,1.0,phase_2,stop,750.0,550.0,4.0,,,,,,,,,white,hexagon
0.0,1.0,1.0,0.0,6.0,6.0,874.186327913776,4.0,1.0,phase_2,go,750.0,600.0,1.0,,,,,,,,,cyan,diamond
0.0,2.0,2.0,0.0,6.0,6.0,752.4499888531864,4.0,1.0,phase_2,go,750.0,600.0,1.0,,,,,,,,,gray,circle
0.0,5.0,1.0,1.0,6.0,0.0,0.0,4.0,1.0,phase_2,stop,750.0,600.0,4.0,,,,,,,,,magenta,square
0.0,4.0,4.0,0.0,6.0,6.0,733.328205998987,4.0,1.0,phase_2,go,750.0,650.0,1.0,,,,,,,,,yellow,I
0.0,6.0,2.0,1.0,5.0,5.0,670.614185044542,4.0,1.0,phase_2,stop,750.0,650.0,3.0,,,,,,,,,white,hexagon
0.0,7.0,3.0,1.0,5.0,0.0,0.0,4.0,1.0,phase_2,stop,700.0,650.0,4.0,,,,,,,,,blue,cross
0.0,6.0,2.0,1.0,5.0,5.0,691.6366829536855,4.0,1.0,phase_2,go,750.0,650.0,1.0,,,,,,,,,white,hexagon
0.0,8.0,4.0,1.0,5.0,5.0,788.2192500401288,4.0,1.0,phase_2,stop,750.0,650.0,3.0,,,,,,,,,orange,flipped triangle
0.0,3.0,3.0,0.0,6.0,6.0,797.7186040952802,4.0,1.0,phase_2,go,700.0,650.0,1.0,,,,,,,,,green,triangle
0.0,5.0,1.0,1.0,6.0,6.0,1081.8297078367325,4.0,1.0,phase_2,go,700.0,650.0,1.0,,,,,,,,,magenta,square
0.0,5.0,1.0,1.0,5.0,5.0,993.4305881615728,4.0,1.0,phase_2,go,700.0,650.0,1.0,,,,,,,,,magenta,square
0.0,6.0,2.0,1.0,6.0,6.0,289.0966420527547,4.0,1.0,phase_2,stop,700.0,650.0,3.0,,,,,,,,,white,hexagon
0.0,7.0,3.0,1.0,6.0,6.0,721.5171460993588,4.0,1.0,phase_2,stop,700.0,600.0,3.0,,,,,,,,,blue,cross
0.0,4.0,4.0,0.0,5.0,5.0,880.7588750496507,4.0,1.0,phase_2,go,700.0,550.0,1.0,,,,,,,,,yellow,I
0.0,3.0,3.0,0.0,5.0,5.0,790.3207379858941,4.0,1.0,phase_2,go,700.0,550.0,1.0,,,,,,,,,green,triangle
0.0,5.0,1.0,1.0,6.0,6.0,669.8559059295803,4.0,1.0,phase_2,stop,700.0,550.0,3.0,,,,,,,,,magenta,square
0.0,3.0,3.0,0.0,5.0,5.0,869.5593369193375,4.0,1.0,phase_2,go,700.0,500.0,1.0,,,,,,,,,green,triangle
0.0,4.0,4.0,0.0,6.0,6.0,767.8336268290877,4.0,1.0,phase_2,go,700.0,500.0,1.0,,,,,,,,,yellow,I
0.0,7.0,3.0,1.0,6.0,0.0,0.0,4.0,1.0,phase_2,stop,700.0,500.0,4.0,,,,,,,,,blue,cross
0.0,6.0,2.0,1.0,5.0,5.0,691.4458579849452,4.0,1.0,phase_2,stop,700.0,550.0,3.0,,,,,,,,,white,hexagon
0.0,5.0,1.0,1.0,5.0,5.0,774.7090240009129,4.0,1.0,phase_2,go,650.0,550.0,1.0,,,,,,,,,magenta,square
0.0,3.0,3.0,0.0,6.0,6.0,842.7098751999438,4.0,1.0,phase_2,go,650.0,550.0,1.0,,,,,,,,,green,triangle
0.0,3.0,3.0,0.0,5.0,5.0,854.0486998390406,4.0,1.0,phase_2,go,650.0,550.0,1.0,,,,,,,,,green,triangle
0.0,4.0,4.0,0.0,6.0,6.0,674.9575100839138,4.0,1.0,phase_2,go,650.0,550.0,1.0,,,,,,,,,yellow,I
0.0,6.0,2.0,1.0,6.0,6.0,721.9419481698424,4.0,1.0,phase_2,stop,650.0,550.0,3.0,,,,,,,,,white,hexagon
0.0,2.0,2.0,0.0,5.0,5.0,531.3417860306799,4.0,1.0,phase_2,go,650.0,500.0,1.0,,,,,,,,,gray,circle
0.0,3.0,3.0,0.0,6.0,6.0,720.1056729536504,4.0,1.0,phase_2,go,650.0,500.0,1.0,,,,,,,,,green,triangle
0.0,4.0,4.0,0.0,6.0,6.0,813.0390618462116,5.0,1.0,phase_2,go,650.0,500.0,1.0,,,,,,,,,yellow,I
0.0,2.0,2.0,0.0,5.0,5.0,558.3247528411448,5.0,1.0,phase_2,go,650.0,500.0,1.0,,,,,,,,,gray,circle
0.0,6.0,2.0,1.0,6.0,0.0,0.0,5.0,1.0,phase_2,stop,650.0,500.0,4.0,,,,,,,,,white,hexagon
0.0,1.0,1.0,0.0,5.0,5.0,550.6614239420742,5.0,1.0,phase_2,go,650.0,550.0,1.0,,,,,,,,,cyan,diamond
0.0,8.0,4.0,1.0,6.0,6.0,482.7624759636819,5.0,1.0,phase_2,stop,650.0,550.0,3.0,,,,,,,,,orange,flipped triangle
0.0,8.0,4.0,1.0,5.0,5.0,627.9316970612854,5.0,1.0,phase_2,go,650.0,500.0,1.0,,,,,,,,,orange,flipped triangle
0.0,7.0,3.0,1.0,6.0,6.0,788.0518911406398,5.0,1.0,phase_2,go,650.0,500.0,1.0,,,,,,,,,blue,cross
0.0,2.0,2.0,0.0,5.0,5.0,644.2413879558444,5.0,1.0,phase_2,go,650.0,500.0,1.0,,,,,,,,,gray,circle
0.0,5.0,1.0,1.0,5.0,5.0,928.7423430942,5.0,1.0,phase_2,go,650.0,500.0,1.0,,,,,,,,,magenta,square
0.0,5.0,1.0,1.0,6.0,6.0,465.3780141379684,5.0,1.0,phase_2,stop,650.0,500.0,3.0,,,,,,,,,magenta,square
0.0,4.0,4.0,0.0,6.0,6.0,608.0847689881921,5.0,1.0,phase_2,go,650.0,450.0,1.0,,,,,,,,,yellow,I
0.0,4.0,4.0,0.0,6.0,6.0,670.8047159481794,5.0,1.0,phase_2,go,650.0,450.0,1.0,,,,,,,,,yellow,I
0.0,4.0,4.0,0.0,5.0,5.0,865.6707750633359,5.0,1.0,phase_2,go,650.0,450.0,1.0,,,,,,,,,yellow,I
0.0,8.0,4.0,1.0,5.0,5.0,719.0078101120889,5.0,1.0,phase_2,stop,650.0,450.0,3.0,,,,,,,,,orange,flipped triangle
0.0,7.0,3.0,1.0,6.0,0.0,0.0,5.0,1.0,phase_2,stop,600.0,450.0,4.0,,,,,,,,,blue,cross
0.0,1.0,1.0,0.0,5.0,5.0,440.1609441265464,5.0,1.0,phase_2,go,600.0,500.0,1.0,,,,,,,,,cyan,diamond
0.0,1.0,1.0,0.0,6.0,6.0,813.6941890697926,5.0,1.0,phase_2,go,600.0,500.0,1.0,,,,,,,,,cyan,diamond
0.0,4.0,4.0,0.0,6.0,6.0,391.1119131371379,5.0,1.0,phase_2,go,600.0,500.0,1.0,,,,,,,,,yellow,I
0.0,5.0,1.0,1.0,6.0,6.0,490.2866838965565,5.0,1.0,phase_2,stop,600.0,500.0,3.0,,,,,,,,,magenta,square
0.0,1.0,1.0,0.0,5.0,5.0,769.7873779106885,5.0,1.0,phase_2,go,600.0,450.0,1.0,,,,,,,,,cyan,diamond
0.0,8.0,4.0,1.0,5.0,5.0,906.1020559165628,5.0,1.0,phase_2,go,600.0,450.0,1.0,,,,,,,,,orange,flipped triangle
0.0,7.0,3.0,1.0,6.0,0.0,0.0,5.0,1.0,phase_2,stop,600.0,450.0,4.0,,,,,,,,,blue,cross
0.0,3.0,3.0,0.0,5.0,5.0,412.1080569457263,5.0,1.0,phase_2,go,600.0,500.0,1.0,,,,,,,,,green,triangle
0.0,2.0,2.0,0.0,6.0,6.0,633.9503340423107,5.0,1.0,phase_2,go,600.0,500.0,1.0,,,,,,,,,gray,circle
0.0,5.0,1.0,1.0,6.0,6.0,561.4846691023558,5.0,1.0,phase_2,stop,600.0,500.0,3.0,,,,,,,,,magenta,square
0.0,1.0,1.0,0.0,5.0,5.0,312.2758690733462,5.0,1.0,phase_2,go,600.0,450.0,1.0,,,,,,,,,cyan,diamond
0.0,5.0,1.0,1.0,6.0,6.0,400.0103969592601,5.0,1.0,phase_2,stop,600.0,450.0,3.0,,,,,,,,,magenta,square
0.0,2.0,2.0,0.0,5.0,5.0,774.0854229778051,5.0,1.0,phase_2,go,600.0,400.0,1.0,,,,,,,,,gray,circle
0.0,6.0,2.0,1.0,5.0,5.0,838.2874249946326,5.0,1.0,phase_2,go,600.0,400.0,1.0,,,,,,,,,white,hexagon
0.0,3.0,3.0,0.0,6.0,6.0,631.1290920712054,5.0,1.0,phase_2,go,600.0,400.0,1.0,,,,,,,,,green,triangle
0.0,4.0,4.0,0.0,6.0,6.0,877.2997290361673,5.0,1.0,phase_2,go,600.0,400.0,1.0,,,,,,,,,yellow,I
0.0,7.0,3.0,1.0,5.0,0.0,0.0,5.0,1.0,phase_2,stop,600.0,400.0,4.0,,,,,,,,,blue,cross
0.0,1.0,1.0,0.0,5.0,5.0,618.7362170312554,5.0,1.0,phase_2,go,650.0,400.0,1.0,,,,,,,,,cyan,diamond
0.0,1.0,1.0,0.0,6.0,6.0,325.4696861840784,5.0,1.0,phase_2,go,650.0,400.0,1.0,,,,,,,,,cyan,diamond
0.0,6.0,2.0,1.0,6.0,0.0,0.0,5.0,1.0,phase_2,stop,650.0,400.0,4.0,,,,,,,,,white,hexagon
0.0,7.0,3.0,1.0,5.0,5.0,595.3309221658856,5.0,1.0,phase_2,stop,650.0,450.0,3.0,,,,,,,,,blue,cross
0.0,1.0,1.0,0.0,6.0,6.0,381.6405411344021,6.0,1.0,phase_2,go,600.0,450.0,1.0,,,,,,,,,cyan,diamond
0.0,1.0,1.0,0.0,6.0,6.0,237.8879208117723,6.0,1.0,phase_2,go,600.0,450.0,1.0,,,,,,,,,cyan,diamond
0.0,3.0,3.0,0.0,5.0,5.0,551.7433469649404,6.0,1.0,phase_2,go,600.0,450.0,1.0,,,,,,,,,green,triangle
0.0,1.0,1.0,0.0,6.0,6.0,188.7328131124377,6.0,1.0,phase_2,go,600.0,450.0,1.0,,,,,,,,,cyan,diamond
0.0,5.0,1.0,1.0,6.0,6.0,486.8606079835444,6.0,1.0,phase_2,stop,600.0,450.0,3.0,,,,,,,,,magenta,square
0.0,4.0,4.0,0.0,5.0,5.0,527.3666039574891,6.0,1.0,phase_2,go,600.0,400.0,1.0,,,,,,,,,yellow,I
0.0,5.0,1.0,1.0,5.0,5.0,258.4456030745059,6.0,1.0,phase_2,go,600.0,400.0,1.0,,,,,,,,,magenta,square
0.0,4.0,4.0,0.0,5.0,5.0,722.7984750643373,6.0,1.0,phase_2,go,600.0,400.0,1.0,,,,,,,,,yellow,I
0.0,7.0,3.0,1.0,5.0,5.0,320.9783749189228,6.0,1.0,phase_2,stop,600.0,400.0,3.0,,,,,,,,,blue,cross
0.0,3.0,3.0,0.0,5.0,5.0,426.8116450402885,6.0,1.0,phase_2,go,550.0,400.0,1.0,,,,,,,,,green,triangle
0.0,4.0,4.0,0.0,5.0,5.0,320.1727319974452,6.0,1.0,phase_2,go,550.0,400.0,1.0,,,,,,,,,yellow,I
0.0,5.0,1.0,1.0,5.0,5.0,786.2700300756842,6.0,1.0,phase_2,go,550.0,400.0,1.0,,,,,,,,,magenta,square
0.0,8.0,4.0,1.0,5.0,5.0,577.2055878769606,6.0,1.0,phase_2,stop,550.0,400.0,3.0,,,,,,,,,orange,flipped triangle
0.0,8.0,4.0,1.0,6.0,6.0,378.5217551048845,6.0,1.0,phase_2,stop,500.0,400.0,3.0,,,,,,,,,orange,flipped triangle
0.0,1.0,1.0,0.0,5.0,5.0,607.8401780687273,6.0,1.0,phase_2,go,500.0,350.0,1.0,,,,,,,,,cyan,diamond
0.0,2.0,2.0,0.0,6.0,6.0,656.4068601001054,6.0,1.0,phase_2,go,500.0,350.0,1.0,,,,,,,,,gray,circle
0.0,8.0,4.0,1.0,6.0,0.0,0.0,6.0,1.0,phase_2,stop,500.0,350.0,4.0,,,,,,,,,orange,flipped triangle
0.0,2.0,2.0,0.0,5.0,5.0,304.2412030044943,6.0,1.0,phase_2,go,500.0,400.0,1.0,,,,,,,,,gray,circle
0.0,3.0,3.0,0.0,6.0,6.0,364.684151019901,6.0,1.0,phase_2,go,500.0,400.0,1.0,,,,,,,,,green,triangle
0.0,6.0,2.0,1.0,6.0,0.0,0.0,6.0,1.0,phase_2,stop,500.0,400.0,4.0,,,,,,,,,white,hexagon
0.0,6.0,2.0,1.0,5.0,5.0,239.0808649361133,6.0,1.0,phase_2,stop,500.0,450.0,3.0,,,,,,,,,white,hexagon
0.0,2.0,2.0,0.0,6.0,6.0,587.0592331048101,6.0,1.0,phase_2,go,450.0,450.0,1.0,,,,,,,,,gray,circle
0.0,2.0,2.0,0.0,5.0,5.0,370.568785816431,6.0,1.0,phase_2,go,450.0,450.0,1.0,,,,,,,,,gray,circle
0.0,8.0,4.0,1.0,6.0,6.0,364.3672121688723,6.0,1.0,phase_2,stop,450.0,450.0,3.0,,,,,,,,,orange,flipped triangle
0.0,2.0,2.0,0.0,6.0,6.0,611.7101688869298,6.0,1.0,phase_2,go,450.0,400.0,1.0,,,,,,,,,gray,circle
0.0,3.0,3.0,0.0,6.0,6.0,375.9633379522711,6.0,1.0,phase_2,go,450.0,400.0,1.0,,,,,,,,,green,triangle
0.0,7.0,3.0,1.0,6.0,0.0,0.0,6.0,1.0,phase_2,stop,450.0,400.0,4.0,,,,,,,,,blue,cross
0.0,1.0,1.0,0.0,5.0,5.0,710.754242958501,6.0,1.0,phase_2,go,450.0,450.0,1.0,,,,,,,,,cyan,diamond
0.0,2.0,2.0,0.0,6.0,6.0,562.312729889527,6.0,1.0,phase_2,go,450.0,450.0,1.0,,,,,,,,,gray,circle
0.0,5.0,1.0,1.0,5.0,5.0,584.5056218095124,6.0,1.0,phase_2,stop,450.0,450.0,3.0,,,,,,,,,magenta,square
0.0,3.0,3.0,0.0,5.0,5.0,709.4425151590258,6.0,1.0,phase_2,go,400.0,450.0,1.0,,,,,,,,,green,triangle
0.0,6.0,2.0,1.0,6.0,6.0,503.5141061525792,6.0,1.0,phase_2,stop,400.0,450.0,3.0,,,,,,,,,white,hexagon
0.0,4.0,4.0,0.0,6.0,6.0,519.9036239646375,6.0,1.0,phase_2,go,400.0,400.0,1.0,,,,,,,,,yellow,I
0.0,3.0,3.0,0.0,5.0,5.0,607.8629151452333,6.0,1.0,phase_2,go,400.0,400.0,1.0,,,,,,,,,green,triangle
0.0,3.0,3.0,0.0,6.0,6.0,650.9189568459988,6.0,1.0,phase_2,go,400.0,400.0,1.0,,,,,,,,,green,triangle
0.0,3.0,3.0,0.0,5.0,5.0,716.397459153086,6.0,1.0,phase_2,go,400.0,400.0,1.0,,,,,,,,,green,triangle
0.0,7.0,3.0,1.0,5.0,5.0,452.6248259935528,7.0,1.0,phase_2,go,400.0,400.0,1.0,,,,,,,,,blue,cross
0.0,6.0,2.0,1.0,5.0,5.0,291.8997381348163,7.0,1.0,phase_2,stop,400.0,400.0,3.0,,,,,,,,,white,hexagon
0.0,4.0,4.0,0.0,5.0,5.0,610.5883850250393,7.0,1.0,phase_2,go,350.0,400.0,1.0,,,,,,,,,yellow,I
0.0,3.0,3.0,0.0,5.0,5.0,699.3249929510057,7.0,1.0,phase_2,go,350.0,400.0,1.0,,,,,,,,,green,triangle
0.0,2.0,2.0,0.0,5.0,5.0,615.9602841362357,7.0,1.0,phase_2,go,350.0,400.0,1.0,,,,,,,,,gray,circle
0.0,3.0,3.0,0.0,5.0,5.0,577.0591530017555,7.0,1.0,phase_2,go,350.0,400.0,1.0,,,,,,,,,green,triangle
0.0,5.0,1.0,1.0,5.0,0.0,0.0,7.0,1.0,phase_2,stop,350.0,400.0,4.0,,,,,,,,,magenta,square
0.0,5.0,1.0,1.0,6.0,6.0,519.8130758944899,7.0,1.0,phase_2,stop,400.0,400.0,3.0,,,,,,,,,magenta,square
0.0,1.0,1.0,0.0,6.0,6.0,660.9258691314608,7.0,1.0,phase_2,go,400.0,350.0,1.0,,,,,,,,,cyan,diamond
0.0,6.0,2.0,1.0,6.0,6.0,783.5098239593208,7.0,1.0,phase_2,go,400.0,350.0,1.0,,,,,,,,,white,hexagon
0.0,8.0,4.0,1.0,6.0,0.0,0.0,7.0,1.0,phase_2,stop,400.0,350.0,4.0,,,,,,,,,orange,flipped triangle
0.0,2.0,2.0,0.0,6.0,6.0,699.3882758542895,7.0,1.0,phase_2,go,400.0,400.0,1.0,,,,,,,,,gray,circle
0.0,4.0,4.0,0.0,6.0,6.0,812.9731679800898,7.0,1.0,phase_2,go,400.0,400.0,1.0,,,,,,,,,yellow,I
0.0,5.0,1.0,1.0,5.0,5.0,292.0768288895488,7.0,1.0,phase_2,stop,400.0,400.0,3.0,,,,,,,,,magenta,square
0.0,1.0,1.0,0.0,6.0,6.0,476.4200111385435,7.0,1.0,phase_2,go,350.0,400.0,1.0,,,,,,,,,cyan,diamond
0.0,7.0,3.0,1.0,5.0,5.0,603.4153220243752,7.0,1.0,phase_2,go,350.0,400.0,1.0,,,,,,,,,blue,cross
0.0,5.0,1.0,1.0,6.0,6.0,216.9118770398199,7.0,1.0,phase_2,stop,350.0,400.0,3.0,,,,,,,,,magenta,square
0.0,3.0,3.0,0.0,5.0,5.0,225.9502632077783,7.0,1.0,phase_2,go,350.0,350.0,1.0,,,,,,,,,green,triangle
0.0,1.0,1.0,0.0,5.0,5.0,464.3626390025019,7.0,1.0,phase_2,go,350.0,350.0,1.0,,,,,,,,,cyan,diamond
0.0,4.0,4.0,0.0,5.0,5.0,689.9239921476692,7.0,1.0,phase_2,go,350.0,350.0,1.0,,,,,,,,,yellow,I
0.0,8.0,4.0,1.0,6.0,0.0,0.0,7.0,1.0,phase_2,stop,350.0,350.0,4.0,,,,,,,,,orange,flipped triangle
0.0,5.0,1.0,1.0,6.0,6.0,336.9466920848936,7.0,1.0,phase_2,stop,350.0,400.0,3.0,,,,,,,,,magenta,square
0.0,8.0,4.0,1.0,5.0,5.0,440.9135738387704,7.0,1.0,phase_2,go,350.0,350.0,1.0,,,,,,,,,orange,flipped triangle
0.0,5.0,1.0,1.0,5.0,5.0,623.4290900174528,7.0,1.0,phase_2,go,350.0,350.0,1.0,,,,,,,,,magenta,square
0.0,5.0,1.0,1.0,6.0,0.0,0.0,7.0,1.0,phase_2,stop,350.0,350.0,4.0,,,,,,,,,magenta,square
0.0,7.0,3.0,1.0,5.0,5.0,391.2615729495883,7.0,1.0,phase_2,go,350.0,400.0,1.0,,,,,,,,,blue,cross
0.0,5.0,1.0,1.0,5.0,5.0,315.9610501024872,7.0,1.0,phase_2,stop,350.0,400.0,3.0,,,,,,,,,magenta,square
0.0,8.0,4.0,1.0,5.0,0.0,0.0,7.0,1.0,phase_2,stop,300.0,400.0,4.0,,,,,,,,,orange,flipped triangle
0.0,2.0,2.0,0.0,5.0,5.0,492.4365789629519,7.0,1.0,phase_2,go,350.0,400.0,1.0,,,,,,,,,gray,circle
0.0,4.0,4.0,0.0,5.0,5.0,332.4848008342087,7.0,1.0,phase_2,go,350.0,400.0,1.0,,,,,,,,,yellow,I
0.0,8.0,4.0,1.0,6.0,0.0,0.0,7.0,1.0,phase_2,stop,350.0,400.0,4.0,,,,,,,,,orange,flipped triangle
0.0,3.0,3.0,0.0,6.0,6.0,456.3501339871436,7.0,1.0,phase_2,go,350.0,450.0,1.0,,,,,,,,,green,triangle
0.0,3.0,3.0,0.0,6.0,6.0,528.835428878665,7.0,1.0,phase_2,go,350.0,450.0,1.0,,,,,,,,,green,triangle
0.0,7.0,3.0,1.0,6.0,6.0,744.3989431485534,7.0,1.0,phase_2,go,350.0,450.0,1.0,,,,,,,,,blue,cross
0.0,6.0,2.0,1.0,5.0,0.0,0.0,7.0,1.0,phase_2,stop,350.0,450.0,4.0,,,,,,,,,white,hexagon
0.0,7.0,3.0,1.0,6.0,6.0,320.1248031109571,7.0,1.0,phase_2,stop,400.0,450.0,3.0,,,,,,,,,blue,cross
0.0,4.0,4.0,0.0,6.0,6.0,508.9985840022564,8.0,1.0,phase_2,go,400.0,400.0,1.0,,,,,,,,,yellow,I
0.0,3.0,3.0,0.0,5.0,5.0,423.952124081552,8.0,1.0,phase_2,go,400.0,400.0,1.0,,,,,,,,,green,triangle
0.0,7.0,3.0,1.0,6.0,6.0,251.43308704718947,8.0,1.0,phase_2,stop,400.0,400.0,3.0,,,,,,,,,blue,cross
0.0,1.0,1.0,0.0,6.0,6.0,477.6149801909923,8.0,1.0,phase_2,go,400.0,350.0,1.0,,,,,,,,,cyan,diamond
0.0,1.0,1.0,0.0,6.0,6.0,394.9272369500249,8.0,1.0,phase_2,go,400.0,350.0,1.0,,,,,,,,,cyan,diamond
0.0,6.0,2.0,1.0,5.0,0.0,0.0,8.0,1.0,phase_2,stop,400.0,350.0,4.0,,,,,,,,,white,hexagon
0.0,2.0,2.0,0.0,6.0,6.0,292.5158930011093,8.0,1.0,phase_2,go,450.0,350.0,1.0,,,,,,,,,gray,circle
0.0,1.0,1.0,0.0,5.0,5.0,523.470904910937,8.0,1.0,phase_2,go,450.0,350.0,1.0,,,,,,,,,cyan,diamond
0.0,8.0,4.0,1.0,5.0,0.0,0.0,8.0,1.0,phase_2,stop,450.0,350.0,4.0,,,,,,,,,orange,flipped triangle
0.0,1.0,1.0,0.0,6.0,6.0,256.0520849656313,8.0,1.0,phase_2,go,500.0,350.0,1.0,,,,,,,,,cyan,diamond
0.0,6.0,2.0,1.0,5.0,0.0,0.0,8.0,1.0,phase_2,stop,500.0,350.0,4.0,,,,,,,,,white,hexagon
0.0,2.0,2.0,0.0,6.0,6.0,305.4531100206077,8.0,1.0,phase_2,go,550.0,350.0,1.0,,,,,,,,,gray,circle
0.0,4.0,4.0,0.0,5.0,5.0,519.3639849312603,8.0,1.0,phase_2,go,550.0,350.0,1.0,,,,,,,,,yellow,I
0.0,3.0,3.0,0.0,5.0,5.0,416.3961121812463,8.0,1.0,phase_2,go,550.0,350.0,1.0,,,,,,,,,green,triangle
0.0,6.0,2.0,1.0,5.0,5.0,685.9569649677724,8.0,1.0,phase_2,go,550.0,350.0,1.0,,,,,,,,,white,hexagon
0.0,6.0,2.0,1.0,5.0,5.0,332.8684049192816,8.0,1.0,phase_2,stop,550.0,350.0,3.0,,,,,,,,,white,hexagon
0.0,4.0,4.0,0.0,5.0,5.0,276.4258941169828,8.0,1.0,phase_2,go,500.0,350.0,1.0,,,,,,,,,yellow,I
0.0,7.0,3.0,1.0,6.0,6.0,430.8778408449143,8.0,1.0,phase_2,stop,500.0,350.0,3.0,,,,,,,,,blue,cross
0.0,1.0,1.0,0.0,5.0,5.0,358.412334928289,8.0,1.0,phase_2,go,500.0,300.0,1.0,,,,,,,,,cyan,diamond
0.0,2.0,2.0,0.0,5.0,5.0,819.8711541481316,8.0,1.0,phase_2,go,500.0,300.0,1.0,,,,,,,,,gray,circle
0.0,6.0,2.0,1.0,6.0,0.0,0.0,8.0,1.0,phase_2,stop,500.0,300.0,4.0,,,,,,,,,white,hexagon
0.0,7.0,3.0,1.0,6.0,0.0,0.0,8.0,1.0,phase_2,stop,500.0,350.0,4.0,,,,,,,,,blue,cross
0.0,1.0,1.0,0.0,6.0,6.0,299.9385180883109,8.0,1.0,phase_2,go,500.0,400.0,1.0,,,,,,,,,cyan,diamond
0.0,8.0,4.0,1.0,5.0,5.0,600.4017698578537,8.0,1.0,phase_2,go,500.0,400.0,1.0,,,,,,,,,orange,flipped triangle
0.0,6.0,2.0,1.0,6.0,6.0,527.5368478614837,8.0,1.0,phase_2,stop,500.0,400.0,3.0,,,,,,,,,white,hexagon
0.0,6.0,2.0,1.0,5.0,5.0,351.8277409020811,8.0,1.0,phase_2,stop,500.0,350.0,3.0,,,,,,,,,white,hexagon
0.0,7.0,3.0,1.0,5.0,5.0,361.3159509841352,8.0,1.0,phase_2,go,450.0,350.0,1.0,,,,,,,,,blue,cross
0.0,4.0,4.0,0.0,5.0,5.0,528.7249619141221,8.0,1.0,phase_2,go,450.0,350.0,1.0,,,,,,,,,yellow,I
0.0,4.0,4.0,0.0,6.0,6.0,496.4044480584562,8.0,1.0,phase_2,go,450.0,350.0,1.0,,,,,,,,,yellow,I
0.0,8.0,4.0,1.0,5.0,0.0,0.0,8.0,1.0,phase_2,stop,450.0,350.0,4.0,,,,,,,,,orange,flipped triangle
0.0,5.0,1.0,1.0,6.0,6.0,579.7482801135629,8.0,1.0,phase_2,go,500.0,350.0,1.0,,,,,,,,,magenta,square
0.0,1.0,1.0,0.0,5.0,5.0,694.8747059796005,8.0,1.0,phase_2,go,500.0,350.0,1.0,,,,,,,,,cyan,diamond
0.0,3.0,3.0,0.0,6.0,6.0,674.7767101041973,8.0,1.0,phase_2,go,500.0,350.0,1.0,,,,,,,,,green,triangle
0.0,3.0,3.0,0.0,6.0,6.0,573.4300969634205,8.0,1.0,phase_2,go,500.0,350.0,1.0,,,,,,,,,green,triangle
0.0,1.0,1.0,0.0,5.0,5.0,673.3792850282043,8.0,1.0,phase_2,go,500.0,350.0,1.0,,,,,,,,,cyan,diamond
0.0,6.0,2.0,1.0,5.0,0.0,0.0,8.0,1.0,phase_2,stop,500.0,350.0,4.0,,,,,,,,,white,hexagon
0.0,3.0,3.0,0.0,7.0,3.0,4344.419860979542,1.0,3.0,phase_3,,,,,294.0,6.0,245.0,147.0,294.0,49.0,98.0,196.0,green,triangle
0.0,3.0,3.0,0.0,7.0,4.0,1654.5315878465772,1.0,21.0,phase_3,,,,,264.0,6.0,132.0,44.0,176.0,264.0,88.0,220.0,green,triangle
0.0,8.0,4.0,1.0,7.0,5.0,2781.768858898431,1.0,1.0,phase_3,,,,,156.0,4.0,195.0,78.0,234.0,117.0,156.0,39.0,orange,flipped triangle
0.0,7.0,3.0,1.0,7.0,5.0,1947.3025840707123,1.0,1.0,phase_3,,,,,270.0,5.0,54.0,108.0,324.0,162.0,270.0,216.0,blue,cross
0.0,2.0,2.0,0.0,7.0,1.0,1865.5641241930423,1.0,1.0,phase_3,,,,,170.0,5.0,170.0,204.0,136.0,34.0,102.0,68.0,gray,circle
0.0,1.0,1.0,0.0,7.0,6.0,1977.991471998393,1.0,1.0,phase_3,,,,,324.0,6.0,216.0,270.0,162.0,54.0,108.0,324.0,cyan,diamond
0.0,2.0,2.0,0.0,7.0,6.0,1859.8651490174236,1.0,1.0,phase_3,,,,,176.0,4.0,264.0,44.0,132.0,88.0,220.0,176.0,gray,circle
0.0,3.0,3.0,0.0,7.0,4.0,1261.6376960650086,1.0,1.0,phase_3,,,,,216.0,4.0,270.0,54.0,324.0,216.0,162.0,108.0,green,triangle
0.0,4.0,4.0,0.0,7.0,4.0,1865.3195779770613,1.0,1.0,phase_3,,,,,234.0,6.0,156.0,195.0,117.0,234.0,39.0,78.0,yellow,I
0.0,3.0,3.0,0.0,7.0,5.0,3209.750955924392,1.0,1.0,phase_3,,,,,204.0,6.0,170.0,34.0,68.0,102.0,204.0,136.0,green,triangle
0.0,5.0,1.0,1.0,7.0,6.0,2081.811702111736,1.0,1.0,phase_3,,,,,234.0,6.0,156.0,39.0,117.0,195.0,78.0,234.0,magenta,square
0.0,1.0,1.0,0.0,7.0,1.0,2844.866683939472,1.0,1.0,phase_3,,,,,234.0,6.0,234.0,156.0,39.0,117.0,78.0,195.0,cyan,diamond
0.0,8.0,4.0,1.0,7.0,3.0,1743.062685942277,1.0,1.0,phase_3,,,,,204.0,6.0,102.0,136.0,204.0,170.0,68.0,34.0,orange,flipped triangle
0.0,5.0,1.0,1.0,7.0,2.0,1633.013536920771,1.0,1.0,phase_3,,,,,220.0,5.0,44.0,220.0,264.0,176.0,88.0,132.0,magenta,square
0.0,1.0,1.0,0.0,7.0,3.0,1946.6498328838495,1.0,1.0,phase_3,,,,,102.0,3.0,34.0,204.0,102.0,68.0,136.0,170.0,cyan,diamond
0.0,6.0,2.0,1.0,7.0,5.0,1810.6360321398824,1.0,1.0,phase_3,,,,,324.0,6.0,162.0,108.0,216.0,270.0,324.0,54.0,white,hexagon
0.0,2.0,2.0,0.0,7.0,3.0,2428.9550569374114,1.0,1.0,phase_3,,,,,264.0,6.0,176.0,220.0,264.0,132.0,44.0,88.0,gray,circle
0.0,1.0,1.0,0.0,7.0,2.0,2684.9559620022774,1.0,1.0,phase_3,,,,,98.0,2.0,196.0,98.0,49.0,147.0,294.0,245.0,cyan,diamond
0.0,6.0,2.0,1.0,7.0,2.0,2342.2153790015727,1.0,1.0,phase_3,,,,,196.0,4.0,147.0,196.0,49.0,294.0,98.0,245.0,white,hexagon
0.0,3.0,3.0,0.0,7.0,3.0,1813.5273470543325,1.0,1.0,phase_3,,,,,196.0,4.0,245.0,294.0,196.0,147.0,98.0,49.0,green,triangle
0.0,7.0,3.0,1.0,7.0,4.0,2369.524805806577,2.0,1.0,phase_3,,,,,195.0,5.0,78.0,156.0,39.0,195.0,234.0,117.0,blue,cross
0.0,5.0,1.0,1.0,7.0,4.0,1420.8568139001727,2.0,1.0,phase_3,,,,,136.0,4.0,102.0,68.0,34.0,136.0,170.0,204.0,magenta,square
0.0,5.0,1.0,1.0,7.0,2.0,1851.0675351135435,2.0,1.0,phase_3,,,,,108.0,2.0,54.0,108.0,270.0,324.0,216.0,162.0,magenta,square
0.0,6.0,2.0,1.0,7.0,5.0,1579.799863975495,2.0,1.0,phase_3,,,,,196.0,4.0,98.0,245.0,49.0,294.0,196.0,147.0,white,hexagon
0.0,4.0,4.0,0.0,7.0,3.0,1383.3310869522393,2.0,1.0,phase_3,,,,,204.0,6.0,68.0,102.0,204.0,170.0,136.0,34.0,yellow,I
0.0,2.0,2.0,0.0,7.0,5.0,985.3225750848652,2.0,1.0,phase_3,,,,,162.0,3.0,270.0,324.0,54.0,108.0,162.0,216.0,gray,circle
0.0,4.0,4.0,0.0,7.0,2.0,1667.51164291054,2.0,1.0,phase_3,,,,,176.0,4.0,220.0,176.0,264.0,44.0,88.0,132.0,yellow,I
0.0,7.0,3.0,1.0,7.0,6.0,1843.63423101604,2.0,1.0,phase_3,,,,,162.0,3.0,216.0,324.0,108.0,54.0,270.0,162.0,blue,cross
0.0,1.0,1.0,0.0,7.0,5.0,1868.522749980912,2.0,1.0,phase_3,,,,,264.0,6.0,220.0,88.0,132.0,176.0,264.0,44.0,cyan,diamond
0.0,8.0,4.0,1.0,7.0,5.0,1828.2233329955488,2.0,1.0,phase_3,,,,,147.0,3.0,196.0,245.0,49.0,98.0,147.0,294.0,orange,flipped triangle
0.0,3.0,3.0,0.0,7.0,2.0,1645.2752279583365,2.0,1.0,phase_3,,,,,156.0,4.0,234.0,156.0,39.0,78.0,117.0,195.0,green,triangle
0.0,7.0,3.0,1.0,7.0,3.0,1870.39731699042,2.0,1.0,phase_3,,,,,132.0,3.0,264.0,220.0,132.0,44.0,176.0,88.0,blue,cross
0.0,4.0,4.0,0.0,7.0,1.0,1978.8367280270904,2.0,1.0,phase_3,,,,,162.0,3.0,162.0,270.0,54.0,108.0,324.0,216.0,yellow,I
0.0,5.0,1.0,1.0,7.0,2.0,2010.2679498959333,2.0,1.0,phase_3,,,,,136.0,4.0,34.0,136.0,204.0,102.0,68.0,170.0,magenta,square
0.0,1.0,1.0,0.0,7.0,1.0,1910.9087048564104,2.0,1.0,phase_3,,,,,162.0,3.0,162.0,54.0,270.0,216.0,108.0,324.0,cyan,diamond
0.0,4.0,4.0,0.0,7.0,5.0,1300.4219811409712,2.0,1.0,phase_3,,,,,162.0,3.0,216.0,54.0,270.0,324.0,162.0,108.0,yellow,I
0.0,7.0,3.0,1.0,7.0,2.0,926.2807099148632,2.0,1.0,phase_3,,,,,176.0,4.0,44.0,176.0,132.0,220.0,88.0,264.0,blue,cross
0.0,6.0,2.0,1.0,7.0,5.0,1497.8114261757582,2.0,1.0,phase_3,,,,,156.0,4.0,39.0,234.0,78.0,195.0,156.0,117.0,white,hexagon
0.0,7.0,3.0,1.0,7.0,4.0,1665.161170065403,2.0,1.0,phase_3,,,,,156.0,4.0,195.0,39.0,78.0,156.0,117.0,234.0,blue,cross
0.0,2.0,2.0,0.0,7.0,4.0,1963.7828019913288,2.0,1.0,phase_3,,,,,117.0,3.0,195.0,156.0,78.0,117.0,39.0,234.0,gray,circle
0.0,6.0,2.0,1.0,7.0,5.0,1266.8309940490872,3.0,1.0,phase_3,,,,,132.0,3.0,264.0,44.0,176.0,88.0,132.0,220.0,white,hexagon
0.0,7.0,3.0,1.0,7.0,2.0,1169.6052488405255,3.0,1.0,phase_3,,,,,147.0,3.0,196.0,147.0,49.0,294.0,245.0,98.0,blue,cross
0.0,5.0,1.0,1.0,7.0,6.0,1394.4906310644,3.0,1.0,phase_3,,,,,216.0,4.0,324.0,270.0,54.0,108.0,162.0,216.0,magenta,square
0.0,5.0,1.0,1.0,7.0,2.0,1406.3053159043193,3.0,1.0,phase_3,,,,,176.0,4.0,264.0,176.0,220.0,88.0,44.0,132.0,magenta,square
0.0,4.0,4.0,0.0,7.0,6.0,2328.097088029608,3.0,1.0,phase_3,,,,,245.0,5.0,196.0,147.0,49.0,98.0,294.0,245.0,yellow,I
0.0,6.0,2.0,1.0,7.0,2.0,1841.1798612214625,3.0,1.0,phase_3,,,,,264.0,6.0,220.0,264.0,176.0,44.0,88.0,132.0,white,hexagon
0.0,8.0,4.0,1.0,7.0,1.0,1448.5822499264032,3.0,1.0,phase_3,,,,,132.0,3.0,132.0,44.0,220.0,176.0,264.0,88.0,orange,flipped triangle
0.0,4.0,4.0,0.0,7.0,1.0,1369.221854954958,3.0,1.0,phase_3,,,,,176.0,4.0,176.0,132.0,220.0,264.0,44.0,88.0,yellow,I
0.0,8.0,4.0,1.0,7.0,6.0,1540.655206888914,3.0,1.0,phase_3,,,,,170.0,5.0,68.0,136.0,102.0,204.0,34.0,170.0,orange,flipped triangle
0.0,6.0,2.0,1.0,7.0,4.0,2503.552637062967,3.0,1.0,phase_3,,,,,136.0,4.0,102.0,34.0,68.0,136.0,170.0,204.0,white,hexagon
0.0,8.0,4.0,1.0,7.0,2.0,1645.6245260778817,3.0,1.0,phase_3,,,,,117.0,3.0,78.0,117.0,234.0,156.0,39.0,195.0,orange,flipped triangle
0.0,1.0,1.0,0.0,7.0,1.0,2121.0790399927646,3.0,1.0,phase_3,,,,,117.0,3.0,117.0,195.0,78.0,156.0,234.0,39.0,cyan,diamond
0.0,6.0,2.0,1.0,7.0,6.0,1951.8621191382408,3.0,1.0,phase_3,,,,,162.0,3.0,216.0,270.0,54.0,108.0,324.0,162.0,white,hexagon
0.0,2.0,2.0,0.0,7.0,2.0,2269.147975835949,3.0,1.0,phase_3,,,,,216.0,4.0,324.0,216.0,108.0,162.0,54.0,270.0,gray,circle
0.0,3.0,3.0,0.0,7.0,6.0,1452.5411338545382,3.0,1.0,phase_3,,,,,156.0,4.0,195.0,234.0,117.0,39.0,78.0,156.0,green,triangle
0.0,5.0,1.0,1.0,7.0,3.0,1940.897881053388,3.0,1.0,phase_3,,,,,245.0,5.0,98.0,147.0,245.0,294.0,196.0,49.0,magenta,square
0.0,6.0,2.0,1.0,7.0,1.0,1753.6190650425851,3.0,1.0,phase_3,,,,,170.0,5.0,170.0,102.0,204.0,68.0,34.0,136.0,white,hexagon
0.0,3.0,3.0,0.0,7.0,5.0,1247.1413880120965,3.0,1.0,phase_3,,,,,162.0,3.0,324.0,108.0,270.0,54.0,162.0,216.0,green,triangle
0.0,8.0,4.0,1.0,7.0,3.0,1234.9412189796567,3.0,1.0,phase_3,,,,,162.0,3.0,54.0,108.0,162.0,270.0,216.0,324.0,orange,flipped triangle
0.0,4.0,4.0,0.0,7.0,6.0,1217.6887840032578,3.0,1.0,phase_3,,,,,245.0,5.0,98.0,294.0,196.0,147.0,49.0,245.0,yellow,I
0.0,6.0,2.0,1.0,7.0,2.0,695.642476901412,4.0,1.0,phase_3,,,,,156.0,4.0,117.0,156.0,78.0,39.0,195.0,234.0,white,hexagon
0.0,5.0,1.0,1.0,7.0,2.0,1329.3813338968905,4.0,1.0,phase_3,,,,,49.0,1.0,245.0,49.0,147.0,98.0,294.0,196.0,magenta,square
0.0,1.0,1.0,0.0,7.0,3.0,1627.3425659164786,4.0,1.0,phase_3,,,,,49.0,1.0,98.0,196.0,49.0,147.0,245.0,294.0,cyan,diamond
0.0,1.0,1.0,0.0,7.0,2.0,184.0368111152202,4.0,1.0,phase_3,,,,,34.0,1.0,170.0,34.0,102.0,136.0,68.0,204.0,cyan,diamond
0.0,8.0,4.0,1.0,7.0,2.0,1088.664553128183,4.0,1.0,phase_3,,,,,147.0,3.0,294.0,147.0,49.0,196.0,98.0,245.0,orange,flipped triangle
0.0,2.0,2.0,0.0,7.0,1.0,1310.547370929271,4.0,1.0,phase_3,,,,,234.0,6.0,234.0,78.0,39.0,195.0,156.0,117.0,gray,circle
0.0,2.0,2.0,0.0,7.0,1.0,1057.043343782425,4.0,1.0,phase_3,,,,,196.0,4.0,196.0,98.0,245.0,147.0,49.0,294.0,gray,circle
0.0,8.0,4.0,1.0,7.0,1.0,1642.1070210635662,4.0,1.0,phase_3,,,,,108.0,2.0,108.0,54.0,216.0,324.0,162.0,270.0,orange,flipped triangle
0.0,2.0,2.0,0.0,7.0,6.0,1253.6012248601764,4.0,1.0,phase_3,,,,,196.0,4.0,245.0,147.0,49.0,294.0,98.0,196.0,gray,circle
0.0,1.0,1.0,0.0,7.0,4.0,1071.5205799788237,4.0,1.0,phase_3,,,,,132.0,3.0,264.0,88.0,220.0,132.0,176.0,44.0,cyan,diamond
0.0,2.0,2.0,0.0,7.0,5.0,1504.105439176783,4.0,1.0,phase_3,,,,,136.0,4.0,102.0,68.0,34.0,170.0,136.0,204.0,gray,circle
0.0,7.0,3.0,1.0,7.0,1.0,1744.9571951292455,4.0,1.0,phase_3,,,,,170.0,5.0,170.0,136.0,68.0,204.0,34.0,102.0,blue,cross
0.0,5.0,1.0,1.0,7.0,2.0,90.1843819301575,4.0,1.0,phase_3,,,,,117.0,3.0,78.0,117.0,39.0,156.0,195.0,234.0,magenta,square
0.0,3.0,3.0,0.0,7.0,5.0,843.7548240181059,4.0,1.0,phase_3,,,,,102.0,3.0,34.0,136.0,68.0,170.0,102.0,204.0,green,triangle
0.0,3.0,3.0,0.0,7.0,4.0,1005.3040101192892,4.0,1.0,phase_3,,,,,220.0,5.0,88.0,132.0,176.0,220.0,44.0,264.0,green,triangle
0.0,4.0,4.0,0.0,7.0,3.0,751.1070051696151,4.0,1.0,phase_3,,,,,156.0,4.0,117.0,39.0,156.0,195.0,234.0,78.0,yellow,I
0.0,7.0,3.0,1.0,7.0,2.0,967.9994909092784,4.0,1.0,phase_3,,,,,196.0,4.0,49.0,196.0,147.0,294.0,245.0,98.0,blue,cross
0.0,4.0,4.0,0.0,7.0,4.0,1162.0897559914738,4.0,1.0,phase_3,,,,,170.0,5.0,68.0,34.0,102.0,170.0,204.0,136.0,yellow,I
0.0,8.0,4.0,1.0,7.0,1.0,1011.1156890634447,4.0,1.0,phase_3,,,,,176.0,4.0,176.0,44.0,88.0,220.0,132.0,264.0,orange,flipped triangle
0.0,7.0,3.0,1.0,7.0,6.0,650.1605720259249,4.0,1.0,phase_3,,,,,34.0,1.0,204.0,68.0,136.0,102.0,170.0,34.0,blue,cross
