raw_reward_magnitude,stim_reward,stepwise_reward_magnitude,paired_with_stopping,quadrant,response,reaction_time,block,num_trial_presentations,which_part,stop_signal_trial_type,left_SSD,right_SSD,accuracy,chosen_bidding_amount,chosen_bidding_level,possible_bid_1,possible_bid_2,possible_bid_3,possible_bid_4,possible_bid_5,possible_bid_6,color_text,shape_text
51.0,5.0,1.0,1.0,4.0,4.0,404.7367670573294,1.0,1.0,part_1,,,,,,,,,,,,,cyan,cross
119.0,2.0,2.0,0.0,1.0,1.0,400.1306698191911,1.0,1.0,part_1,,,,,,,,,,,,,yellow,hexagon
79.0,6.0,2.0,1.0,4.0,4.0,454.6586479991674,1.0,1.0,part_1,,,,,,,,,,,,,magenta,square
176.0,3.0,3.0,0.0,3.0,3.0,307.5682851485908,1.0,1.0,part_1,,,,,,,,,,,,,orange,triangle
61.0,5.0,1.0,1.0,2.0,2.0,326.727484120056,1.0,1.0,part_1,,,,,,,,,,,,,cyan,cross
386.0,4.0,4.0,0.0,4.0,4.0,281.5234058070928,1.0,1.0,part_1,,,,,,,,,,,,,blue,diamond
75.0,5.0,1.0,1.0,1.0,1.0,350.7564121391624,1.0,1.0,part_1,,,,,,,,,,,,,cyan,cross
417.0,8.0,4.0,1.0,3.0,3.0,356.2855820637196,1.0,1.0,part_1,,,,,,,,,,,,,gray,flipped triangle
195.0,7.0,3.0,1.0,3.0,3.0,359.5480101648718,1.0,1.0,part_1,,,,,,,,,,,,,white,circle
108.0,2.0,2.0,0.0,3.0,3.0,375.5648538935929,1.0,1.0,part_1,,,,,,,,,,,,,yellow,hexagon
188.0,3.0,3.0,0.0,1.0,1.0,362.7328730653971,1.0,1.0,part_1,,,,,,,,,,,,,orange,triangle
123.0,2.0,2.0,0.0,3.0,3.0,415.9283388871699,1.0,1.0,part_1,,,,,,,,,,,,,yellow,hexagon
68.0,1.0,1.0,0.0,2.0,2.0,299.5958800893277,1.0,1.0,part_1,,,,,,,,,,,,,green,I
48.0,1.0,1.0,0.0,2.0,2.0,305.3884380497038,1.0,1.0,part_1,,,,,,,,,,,,,green,I
188.0,7.0,3.0,1.0,1.0,1.0,468.4593200217932,1.0,1.0,part_1,,,,,,,,,,,,,white,circle
100.0,6.0,2.0,1.0,1.0,1.0,361.8422069121152,1.0,1.0,part_1,,,,,,,,,,,,,magenta,square
391.0,4.0,4.0,0.0,3.0,3.0,344.1932119894773,1.0,1.0,part_1,,,,,,,,,,,,,blue,diamond
34.0,5.0,1.0,1.0,3.0,3.0,297.4794590845704,1.0,1.0,part_1,,,,,,,,,,,,,cyan,cross
51.0,1.0,1.0,0.0,3.0,3.0,336.2158080562949,1.0,1.0,part_1,,,,,,,,,,,,,green,I
0.0,8.0,0.0,1.0,1.0,1.0,338.2304690312594,1.0,1.0,part_1,,,,,,,,,,,,,gray,flipped triangle
61.0,1.0,1.0,0.0,4.0,4.0,440.1834970340132,1.0,1.0,part_1,,,,,,,,,,,,,green,I
100.0,2.0,2.0,0.0,1.0,1.0,349.9368310440331,1.0,1.0,part_1,,,,,,,,,,,,,yellow,hexagon
52.0,5.0,1.0,1.0,2.0,2.0,408.2690430805087,1.0,1.0,part_1,,,,,,,,,,,,,cyan,cross
383.0,8.0,4.0,1.0,1.0,1.0,366.0481011029333,1.0,1.0,part_1,,,,,,,,,,,,,gray,flipped triangle
206.0,3.0,3.0,0.0,1.0,1.0,379.1846900712698,1.0,1.0,part_1,,,,,,,,,,,,,orange,triangle
30.0,5.0,1.0,1.0,3.0,3.0,303.7677209358662,1.0,1.0,part_1,,,,,,,,,,,,,cyan,cross
403.0,4.0,4.0,0.0,3.0,3.0,307.2831621393561,1.0,1.0,part_1,,,,,,,,,,,,,blue,diamond
123.0,6.0,2.0,1.0,4.0,4.0,379.9642599187791,1.0,1.0,part_1,,,,,,,,,,,,,magenta,square
0.0,6.0,0.0,1.0,2.0,2.0,277.4727458599955,1.0,1.0,part_1,,,,,,,,,,,,,magenta,square
78.0,2.0,2.0,0.0,4.0,4.0,306.2245661858469,1.0,1.0,part_1,,,,,,,,,,,,,yellow,hexagon
210.0,3.0,3.0,0.0,2.0,2.0,342.6660620607435,1.0,1.0,part_1,,,,,,,,,,,,,orange,triangle
0.0,4.0,0.0,0.0,4.0,4.0,373.3201939612627,1.0,1.0,part_1,,,,,,,,,,,,,blue,diamond
0.0,7.0,0.0,1.0,3.0,3.0,418.6584281269461,1.0,1.0,part_1,,,,,,,,,,,,,white,circle
378.0,8.0,4.0,1.0,4.0,4.0,748.25763492845,1.0,1.0,part_1,,,,,,,,,,,,,gray,flipped triangle
210.0,3.0,3.0,0.0,3.0,3.0,371.6153569985181,1.0,1.0,part_1,,,,,,,,,,,,,orange,triangle
0.0,4.0,0.0,0.0,4.0,4.0,432.7860500197857,1.0,1.0,part_1,,,,,,,,,,,,,blue,diamond
185.0,7.0,3.0,1.0,3.0,3.0,403.1679660547524,1.0,1.0,part_1,,,,,,,,,,,,,white,circle
0.0,7.0,0.0,1.0,3.0,3.0,455.9258909430355,1.0,1.0,part_1,,,,,,,,,,,,,white,circle
0.0,7.0,0.0,1.0,1.0,1.0,363.3905090391636,1.0,1.0,part_1,,,,,,,,,,,,,white,circle
49.0,5.0,1.0,1.0,2.0,2.0,442.6127900369465,1.0,1.0,part_1,,,,,,,,,,,,,cyan,cross
380.0,8.0,4.0,1.0,3.0,3.0,413.1523610558361,1.0,1.0,part_1,,,,,,,,,,,,,gray,flipped triangle
176.0,7.0,3.0,1.0,2.0,2.0,387.6189140137285,1.0,1.0,part_1,,,,,,,,,,,,,white,circle
0.0,4.0,0.0,0.0,3.0,3.0,249.2131181061267,1.0,1.0,part_1,,,,,,,,,,,,,blue,diamond
412.0,8.0,4.0,1.0,4.0,4.0,435.8572771307081,1.0,1.0,part_1,,,,,,,,,,,,,gray,flipped triangle
66.0,1.0,1.0,0.0,2.0,2.0,424.2125349119305,1.0,1.0,part_1,,,,,,,,,,,,,green,I
225.0,7.0,3.0,1.0,1.0,1.0,380.5950379464775,1.0,1.0,part_1,,,,,,,,,,,,,white,circle
29.0,5.0,1.0,1.0,2.0,2.0,340.4299789108336,1.0,1.0,part_1,,,,,,,,,,,,,cyan,cross
74.0,1.0,1.0,0.0,2.0,2.0,430.7505609467625,1.0,1.0,part_1,,,,,,,,,,,,,green,I
406.0,4.0,4.0,0.0,2.0,2.0,482.5227491091937,1.0,1.0,part_1,,,,,,,,,,,,,blue,diamond
124.0,6.0,2.0,1.0,1.0,1.0,528.0066679697484,1.0,1.0,part_1,,,,,,,,,,,,,magenta,square
0.0,4.0,0.0,0.0,3.0,3.0,438.595806946978,1.0,1.0,part_1,,,,,,,,,,,,,blue,diamond
48.0,5.0,1.0,1.0,3.0,3.0,400.5271268542856,1.0,1.0,part_1,,,,,,,,,,,,,cyan,cross
27.0,5.0,1.0,1.0,1.0,1.0,429.2042329907417,1.0,1.0,part_1,,,,,,,,,,,,,cyan,cross
417.0,4.0,4.0,0.0,1.0,1.0,457.665977999568,1.0,1.0,part_1,,,,,,,,,,,,,blue,diamond
62.0,1.0,1.0,0.0,4.0,4.0,512.3976008035243,1.0,1.0,part_1,,,,,,,,,,,,,green,I
376.0,8.0,4.0,1.0,1.0,1.0,446.6165869962424,1.0,1.0,part_1,,,,,,,,,,,,,gray,flipped triangle
380.0,4.0,4.0,0.0,2.0,2.0,354.5780291315168,1.0,1.0,part_1,,,,,,,,,,,,,blue,diamond
39.0,5.0,1.0,1.0,1.0,1.0,399.7888499870896,1.0,1.0,part_1,,,,,,,,,,,,,cyan,cross
79.0,2.0,2.0,0.0,1.0,1.0,461.7396909743547,1.0,1.0,part_1,,,,,,,,,,,,,yellow,hexagon
182.0,3.0,3.0,0.0,1.0,1.0,485.7694311067462,1.0,1.0,part_1,,,,,,,,,,,,,orange,triangle
194.0,3.0,3.0,0.0,3.0,3.0,331.1403139960021,1.0,1.0,part_1,,,,,,,,,,,,,orange,triangle
30.0,1.0,1.0,0.0,4.0,4.0,472.1792920026928,1.0,1.0,part_1,,,,,,,,,,,,,green,I
199.0,7.0,3.0,1.0,3.0,3.0,384.1544389724731,1.0,1.0,part_1,,,,,,,,,,,,,white,circle
41.0,1.0,1.0,0.0,1.0,1.0,456.6649361513555,1.0,1.0,part_1,,,,,,,,,,,,,green,I
414.0,8.0,4.0,1.0,3.0,3.0,384.3747971113771,1.0,1.0,part_1,,,,,,,,,,,,,gray,flipped triangle
416.0,4.0,4.0,0.0,4.0,4.0,469.2685510963201,1.0,1.0,part_1,,,,,,,,,,,,,blue,diamond
408.0,4.0,4.0,0.0,4.0,4.0,465.1033109985292,1.0,1.0,part_1,,,,,,,,,,,,,blue,diamond
195.0,3.0,3.0,0.0,4.0,4.0,399.7002299875021,1.0,1.0,part_1,,,,,,,,,,,,,orange,triangle
120.0,2.0,2.0,0.0,2.0,2.0,346.4389939326793,1.0,1.0,part_1,,,,,,,,,,,,,yellow,hexagon
41.0,5.0,1.0,1.0,2.0,2.0,492.5717900041491,1.0,1.0,part_1,,,,,,,,,,,,,cyan,cross
74.0,5.0,1.0,1.0,4.0,4.0,371.1558270733803,1.0,1.0,part_1,,,,,,,,,,,,,cyan,cross
39.0,1.0,1.0,0.0,2.0,2.0,416.2088828161359,1.0,1.0,part_1,,,,,,,,,,,,,green,I
176.0,3.0,3.0,0.0,1.0,1.0,420.1599690131843,1.0,1.0,part_1,,,,,,,,,,,,,orange,triangle
97.0,2.0,2.0,0.0,3.0,3.0,384.0920079965144,1.0,1.0,part_1,,,,,,,,,,,,,yellow,hexagon
219.0,3.0,3.0,0.0,2.0,2.0,460.4619839228689,1.0,1.0,part_1,,,,,,,,,,,,,orange,triangle
0.0,3.0,0.0,0.0,2.0,2.0,360.5313568841666,1.0,1.0,part_1,,,,,,,,,,,,,orange,triangle
176.0,3.0,3.0,0.0,2.0,2.0,629.246385069564,1.0,1.0,part_1,,,,,,,,,,,,,orange,triangle
86.0,6.0,2.0,1.0,1.0,1.0,436.0646768473089,1.0,1.0,part_1,,,,,,,,,,,,,magenta,square
0.0,6.0,0.0,1.0,4.0,4.0,395.3778899740428,1.0,1.0,part_1,,,,,,,,,,,,,magenta,square
176.0,7.0,3.0,1.0,2.0,2.0,429.761660983786,1.0,1.0,part_1,,,,,,,,,,,,,white,circle
0.0,6.0,0.0,1.0,2.0,2.0,384.2821710277349,1.0,1.0,part_1,,,,,,,,,,,,,magenta,square
406.0,4.0,4.0,0.0,4.0,4.0,408.1920629832893,1.0,1.0,part_1,,,,,,,,,,,,,blue,diamond
73.0,1.0,1.0,0.0,3.0,3.0,436.6981429047882,1.0,1.0,part_1,,,,,,,,,,,,,green,I
189.0,7.0,3.0,1.0,3.0,3.0,680.9946170542389,1.0,1.0,part_1,,,,,,,,,,,,,white,circle
225.0,3.0,3.0,0.0,2.0,2.0,502.0620380528271,1.0,1.0,part_1,,,,,,,,,,,,,orange,triangle
115.0,6.0,2.0,1.0,2.0,2.0,441.6737770661711,1.0,1.0,part_1,,,,,,,,,,,,,magenta,square
100.0,6.0,2.0,1.0,3.0,3.0,343.0915779899806,1.0,1.0,part_1,,,,,,,,,,,,,magenta,square
0.0,7.0,0.0,1.0,3.0,3.0,380.1658090669662,1.0,1.0,part_1,,,,,,,,,,,,,white,circle
0.0,4.0,0.0,0.0,4.0,4.0,394.1745988558978,1.0,1.0,part_1,,,,,,,,,,,,,blue,diamond
414.0,8.0,4.0,1.0,1.0,1.0,587.5298320315778,1.0,1.0,part_1,,,,,,,,,,,,,gray,flipped triangle
54.0,1.0,1.0,0.0,3.0,3.0,394.9125499930233,1.0,1.0,part_1,,,,,,,,,,,,,green,I
0.0,3.0,0.0,0.0,4.0,4.0,470.5829168669879,1.0,1.0,part_1,,,,,,,,,,,,,orange,triangle
85.0,6.0,2.0,1.0,1.0,1.0,490.6911039724946,1.0,1.0,part_1,,,,,,,,,,,,,magenta,square
87.0,2.0,2.0,0.0,3.0,3.0,377.3828269913792,1.0,1.0,part_1,,,,,,,,,,,,,yellow,hexagon
213.0,7.0,3.0,1.0,4.0,4.0,403.8888369686901,1.0,1.0,part_1,,,,,,,,,,,,,white,circle
78.0,6.0,2.0,1.0,3.0,3.0,447.4530129227787,1.0,1.0,part_1,,,,,,,,,,,,,magenta,square
83.0,6.0,2.0,1.0,4.0,4.0,404.5896679162979,1.0,1.0,part_1,,,,,,,,,,,,,magenta,square
376.0,8.0,4.0,1.0,1.0,1.0,432.4781538452953,1.0,1.0,part_1,,,,,,,,,,,,,gray,flipped triangle
394.0,8.0,4.0,1.0,1.0,1.0,428.6765260621905,1.0,1.0,part_1,,,,,,,,,,,,,gray,flipped triangle
416.0,8.0,4.0,1.0,2.0,2.0,409.0731560718268,1.0,1.0,part_1,,,,,,,,,,,,,gray,flipped triangle
412.0,4.0,4.0,0.0,3.0,3.0,392.1545080374926,2.0,1.0,part_1,,,,,,,,,,,,,blue,diamond
404.0,4.0,4.0,0.0,2.0,2.0,392.8577140904963,2.0,1.0,part_1,,,,,,,,,,,,,blue,diamond
195.0,3.0,3.0,0.0,4.0,4.0,440.4118868988007,2.0,1.0,part_1,,,,,,,,,,,,,orange,triangle
0.0,2.0,0.0,0.0,2.0,2.0,413.2127508055419,2.0,1.0,part_1,,,,,,,,,,,,,yellow,hexagon
377.0,4.0,4.0,0.0,4.0,4.0,462.5862869434058,2.0,1.0,part_1,,,,,,,,,,,,,blue,diamond
0.0,8.0,0.0,1.0,4.0,4.0,477.4036980234086,2.0,1.0,part_1,,,,,,,,,,,,,gray,flipped triangle
0.0,3.0,0.0,0.0,3.0,3.0,372.0942689105868,2.0,1.0,part_1,,,,,,,,,,,,,orange,triangle
0.0,2.0,0.0,0.0,2.0,2.0,286.4430630579591,2.0,1.0,part_1,,,,,,,,,,,,,yellow,hexagon
0.0,2.0,0.0,0.0,3.0,3.0,461.5221058484167,2.0,1.0,part_1,,,,,,,,,,,,,yellow,hexagon
424.0,8.0,4.0,1.0,2.0,2.0,414.0111899469048,2.0,1.0,part_1,,,,,,,,,,,,,gray,flipped triangle
38.0,1.0,1.0,0.0,1.0,1.0,322.5355220492929,2.0,1.0,part_1,,,,,,,,,,,,,green,I
44.0,5.0,1.0,1.0,3.0,3.0,289.8259679786861,2.0,1.0,part_1,,,,,,,,,,,,,cyan,cross
180.0,3.0,3.0,0.0,1.0,1.0,470.3687371220439,2.0,1.0,part_1,,,,,,,,,,,,,orange,triangle
388.0,4.0,4.0,0.0,3.0,3.0,386.8204238824546,2.0,1.0,part_1,,,,,,,,,,,,,blue,diamond
77.0,6.0,2.0,1.0,3.0,3.0,375.8938568644225,2.0,1.0,part_1,,,,,,,,,,,,,magenta,square
110.0,6.0,2.0,1.0,3.0,3.0,444.6543590165674,2.0,1.0,part_1,,,,,,,,,,,,,magenta,square
125.0,6.0,2.0,1.0,2.0,2.0,384.7113780211657,2.0,1.0,part_1,,,,,,,,,,,,,magenta,square
0.0,7.0,0.0,1.0,1.0,1.0,437.2994690202176,2.0,1.0,part_1,,,,,,,,,,,,,white,circle
0.0,8.0,0.0,1.0,3.0,3.0,468.1412449572235,2.0,1.0,part_1,,,,,,,,,,,,,gray,flipped triangle
80.0,6.0,2.0,1.0,3.0,3.0,349.6871911920607,2.0,1.0,part_1,,,,,,,,,,,,,magenta,square
80.0,2.0,2.0,0.0,2.0,2.0,345.5070999916643,2.0,1.0,part_1,,,,,,,,,,,,,yellow,hexagon
203.0,7.0,3.0,1.0,4.0,4.0,425.1608089543879,2.0,1.0,part_1,,,,,,,,,,,,,white,circle
44.0,1.0,1.0,0.0,1.0,1.0,427.5645290035754,2.0,1.0,part_1,,,,,,,,,,,,,green,I
26.0,5.0,1.0,1.0,1.0,1.0,411.3719328306615,2.0,1.0,part_1,,,,,,,,,,,,,cyan,cross
53.0,1.0,1.0,0.0,3.0,3.0,487.4281180091202,2.0,1.0,part_1,,,,,,,,,,,,,green,I
114.0,2.0,2.0,0.0,2.0,2.0,412.2423350345343,2.0,1.0,part_1,,,,,,,,,,,,,yellow,hexagon
34.0,1.0,1.0,0.0,4.0,4.0,407.8556611202657,2.0,1.0,part_1,,,,,,,,,,,,,green,I
391.0,4.0,4.0,0.0,1.0,1.0,475.1526368781924,2.0,1.0,part_1,,,,,,,,,,,,,blue,diamond
0.0,3.0,0.0,0.0,4.0,4.0,681.8001919891685,2.0,1.0,part_1,,,,,,,,,,,,,orange,triangle
0.0,8.0,0.0,1.0,3.0,3.0,447.0512429252267,2.0,1.0,part_1,,,,,,,,,,,,,gray,flipped triangle
97.0,2.0,2.0,0.0,4.0,4.0,378.9706588722765,2.0,1.0,part_1,,,,,,,,,,,,,yellow,hexagon
391.0,8.0,4.0,1.0,4.0,4.0,335.5860870797187,2.0,1.0,part_1,,,,,,,,,,,,,gray,flipped triangle
0.0,1.0,0.0,0.0,1.0,1.0,345.6329030450433,2.0,1.0,part_1,,,,,,,,,,,,,green,I
0.0,4.0,0.0,0.0,4.0,4.0,376.4792419970035,2.0,1.0,part_1,,,,,,,,,,,,,blue,diamond
92.0,2.0,2.0,0.0,3.0,3.0,367.24380496889347,2.0,1.0,part_1,,,,,,,,,,,,,yellow,hexagon
116.0,2.0,2.0,0.0,2.0,2.0,491.7798938695341,2.0,1.0,part_1,,,,,,,,,,,,,yellow,hexagon
0.0,7.0,0.0,1.0,4.0,4.0,358.8498728349805,2.0,1.0,part_1,,,,,,,,,,,,,white,circle
197.0,3.0,3.0,0.0,4.0,4.0,505.2165628876537,2.0,1.0,part_1,,,,,,,,,,,,,orange,triangle
94.0,6.0,2.0,1.0,2.0,2.0,542.294048005715,2.0,1.0,part_1,,,,,,,,,,,,,magenta,square
62.0,5.0,1.0,1.0,4.0,4.0,390.9093500114977,2.0,1.0,part_1,,,,,,,,,,,,,cyan,cross
86.0,6.0,2.0,1.0,3.0,3.0,432.2017291560769,2.0,1.0,part_1,,,,,,,,,,,,,magenta,square
86.0,2.0,2.0,0.0,2.0,2.0,494.549754075706,2.0,1.0,part_1,,,,,,,,,,,,,yellow,hexagon
28.0,5.0,1.0,1.0,1.0,1.0,473.0016659013927,2.0,1.0,part_1,,,,,,,,,,,,,cyan,cross
383.0,8.0,4.0,1.0,2.0,2.0,368.7716098502278,2.0,1.0,part_1,,,,,,,,,,,,,gray,flipped triangle
124.0,2.0,2.0,0.0,3.0,3.0,485.673826886341,2.0,1.0,part_1,,,,,,,,,,,,,yellow,hexagon
0.0,2.0,0.0,0.0,1.0,1.0,458.0482060555368,2.0,1.0,part_1,,,,,,,,,,,,,yellow,hexagon
96.0,2.0,2.0,0.0,3.0,3.0,388.0226041655987,2.0,1.0,part_1,,,,,,,,,,,,,yellow,hexagon
92.0,6.0,2.0,1.0,1.0,1.0,420.4609210137278,2.0,1.0,part_1,,,,,,,,,,,,,magenta,square
0.0,2.0,0.0,0.0,4.0,4.0,476.9535260275006,2.0,1.0,part_1,,,,,,,,,,,,,yellow,hexagon
52.0,1.0,1.0,0.0,1.0,1.0,553.6505661439151,2.0,1.0,part_1,,,,,,,,,,,,,green,I
415.0,8.0,4.0,1.0,3.0,3.0,510.46833395957947,2.0,1.0,part_1,,,,,,,,,,,,,gray,flipped triangle
0.0,3.0,0.0,0.0,4.0,4.0,460.3286818601191,2.0,1.0,part_1,,,,,,,,,,,,,orange,triangle
0.0,3.0,0.0,0.0,2.0,2.0,360.4546198621392,2.0,1.0,part_1,,,,,,,,,,,,,orange,triangle
400.0,8.0,4.0,1.0,4.0,4.0,420.3261050861329,2.0,1.0,part_1,,,,,,,,,,,,,gray,flipped triangle
203.0,7.0,3.0,1.0,1.0,1.0,452.3045811802149,2.0,1.0,part_1,,,,,,,,,,,,,white,circle
125.0,2.0,2.0,0.0,3.0,3.0,375.8021420799196,2.0,1.0,part_1,,,,,,,,,,,,,yellow,hexagon
87.0,6.0,2.0,1.0,4.0,4.0,541.708393022418,2.0,1.0,part_1,,,,,,,,,,,,,magenta,square
72.0,1.0,1.0,0.0,2.0,2.0,534.8006691783667,2.0,1.0,part_1,,,,,,,,,,,,,green,I
224.0,7.0,3.0,1.0,4.0,4.0,371.4323018211871,2.0,2.0,part_1,,,,,,,,,,,,,white,circle
201.0,3.0,3.0,0.0,4.0,4.0,384.1375571209937,2.0,1.0,part_1,,,,,,,,,,,,,orange,triangle
87.0,6.0,2.0,1.0,4.0,4.0,354.6689650975168,2.0,1.0,part_1,,,,,,,,,,,,,magenta,square
0.0,1.0,0.0,0.0,2.0,2.0,342.6689638290554,2.0,1.0,part_1,,,,,,,,,,,,,green,I
225.0,7.0,3.0,1.0,2.0,2.0,436.565063893795,2.0,1.0,part_1,,,,,,,,,,,,,white,circle
100.0,2.0,2.0,0.0,2.0,2.0,368.0209331214428,2.0,1.0,part_1,,,,,,,,,,,,,yellow,hexagon
391.0,8.0,4.0,1.0,2.0,2.0,375.2585919573903,2.0,1.0,part_1,,,,,,,,,,,,,gray,flipped triangle
120.0,6.0,2.0,1.0,1.0,1.0,489.5098621491343,2.0,1.0,part_1,,,,,,,,,,,,,magenta,square
0.0,6.0,0.0,1.0,3.0,3.0,374.9425578862428,2.0,1.0,part_1,,,,,,,,,,,,,magenta,square
110.0,2.0,2.0,0.0,1.0,1.0,355.475882999599,2.0,1.0,part_1,,,,,,,,,,,,,yellow,hexagon
94.0,2.0,2.0,0.0,4.0,4.0,416.3189590908587,2.0,1.0,part_1,,,,,,,,,,,,,yellow,hexagon
0.0,2.0,0.0,0.0,2.0,2.0,415.2402959298342,2.0,1.0,part_1,,,,,,,,,,,,,yellow,hexagon
415.0,4.0,4.0,0.0,2.0,2.0,467.1305699739605,2.0,1.0,part_1,,,,,,,,,,,,,blue,diamond
0.0,5.0,0.0,1.0,4.0,4.0,520.0106669217348,2.0,1.0,part_1,,,,,,,,,,,,,cyan,cross
97.0,6.0,2.0,1.0,1.0,1.0,390.6289979349822,2.0,2.0,part_1,,,,,,,,,,,,,magenta,square
0.0,5.0,0.0,1.0,4.0,4.0,399.3519651703536,2.0,1.0,part_1,,,,,,,,,,,,,cyan,cross
407.0,4.0,4.0,0.0,4.0,4.0,416.3749681320041,2.0,1.0,part_1,,,,,,,,,,,,,blue,diamond
414.0,4.0,4.0,0.0,2.0,2.0,404.5410139951855,2.0,1.0,part_1,,,,,,,,,,,,,blue,diamond
85.0,2.0,2.0,0.0,1.0,1.0,371.3977900333702,2.0,1.0,part_1,,,,,,,,,,,,,yellow,hexagon
49.0,1.0,1.0,0.0,3.0,3.0,393.4165749233216,2.0,1.0,part_1,,,,,,,,,,,,,green,I
100.0,2.0,2.0,0.0,4.0,4.0,359.0589738450944,2.0,1.0,part_1,,,,,,,,,,,,,yellow,hexagon
0.0,1.0,0.0,0.0,1.0,1.0,409.5728578977287,2.0,1.0,part_1,,,,,,,,,,,,,green,I
0.0,1.0,0.0,0.0,2.0,2.0,446.483374806121,2.0,1.0,part_1,,,,,,,,,,,,,green,I
215.0,3.0,3.0,0.0,3.0,3.0,394.7060550563037,2.0,1.0,part_1,,,,,,,,,,,,,orange,triangle
201.0,7.0,3.0,1.0,1.0,1.0,374.4204069953412,2.0,1.0,part_1,,,,,,,,,,,,,white,circle
41.0,1.0,1.0,0.0,3.0,3.0,442.9985207971185,2.0,1.0,part_1,,,,,,,,,,,,,green,I
406.0,8.0,4.0,1.0,3.0,3.0,407.925188075751,2.0,2.0,part_1,,,,,,,,,,,,,gray,flipped triangle
193.0,3.0,3.0,0.0,4.0,4.0,467.1831550076604,2.0,1.0,part_1,,,,,,,,,,,,,orange,triangle
110.0,2.0,2.0,0.0,2.0,2.0,421.2673238944262,2.0,1.0,part_1,,,,,,,,,,,,,yellow,hexagon
0.0,1.0,0.0,0.0,2.0,2.0,537.3841379769146,2.0,1.0,part_1,,,,,,,,,,,,,green,I
85.0,2.0,2.0,0.0,4.0,4.0,495.416163932532,2.0,1.0,part_1,,,,,,,,,,,,,yellow,hexagon
0.0,5.0,0.0,1.0,1.0,1.0,419.382079038769,2.0,1.0,part_1,,,,,,,,,,,,,cyan,cross
0.0,8.0,0.0,1.0,2.0,2.0,408.7489449884742,2.0,1.0,part_1,,,,,,,,,,,,,gray,flipped triangle
87.0,6.0,2.0,1.0,4.0,4.0,392.7790571469813,2.0,1.0,part_1,,,,,,,,,,,,,magenta,square
423.0,8.0,4.0,1.0,3.0,3.0,371.5038881637156,2.0,1.0,part_1,,,,,,,,,,,,,gray,flipped triangle
0.0,2.0,0.0,0.0,4.0,4.0,600.654317997396,2.0,1.0,part_1,,,,,,,,,,,,,yellow,hexagon
376.0,4.0,4.0,0.0,1.0,1.0,420.7984819076955,2.0,1.0,part_1,,,,,,,,,,,,,blue,diamond
0.0,8.0,0.0,1.0,2.0,2.0,384.0821641497314,2.0,1.0,part_1,,,,,,,,,,,,,gray,flipped triangle
193.0,7.0,3.0,1.0,4.0,4.0,351.4725200366229,2.0,1.0,part_1,,,,,,,,,,,,,white,circle
26.0,1.0,1.0,0.0,1.0,1.0,513.3817191235721,2.0,1.0,part_1,,,,,,,,,,,,,green,I
419.0,4.0,4.0,0.0,1.0,1.0,350.0864359084517,2.0,1.0,part_1,,,,,,,,,,,,,blue,diamond
66.0,5.0,1.0,1.0,3.0,3.0,348.0630679987371,2.0,1.0,part_1,,,,,,,,,,,,,cyan,cross
123.0,2.0,2.0,0.0,2.0,2.0,338.8383719138801,3.0,1.0,part_1,,,,,,,,,,,,,yellow,hexagon
204.0,7.0,3.0,1.0,4.0,4.0,352.5773079600185,3.0,1.0,part_1,,,,,,,,,,,,,white,circle
415.0,8.0,4.0,1.0,1.0,1.0,318.0101008620113,3.0,1.0,part_1,,,,,,,,,,,,,gray,flipped triangle
27.0,1.0,1.0,0.0,4.0,4.0,455.1104379352182,3.0,1.0,part_1,,,,,,,,,,,,,green,I
406.0,8.0,4.0,1.0,4.0,4.0,356.100695207715,3.0,1.0,part_1,,,,,,,,,,,,,gray,flipped triangle
0.0,1.0,0.0,0.0,4.0,4.0,337.2994139790535,3.0,1.0,part_1,,,,,,,,,,,,,green,I
0.0,6.0,0.0,1.0,3.0,3.0,375.5373561289161,3.0,1.0,part_1,,,,,,,,,,,,,magenta,square
188.0,7.0,3.0,1.0,1.0,1.0,385.9192009549588,3.0,1.0,part_1,,,,,,,,,,,,,white,circle
423.0,8.0,4.0,1.0,4.0,4.0,416.2865211255848,3.0,1.0,part_1,,,,,,,,,,,,,gray,flipped triangle
90.0,6.0,2.0,1.0,2.0,2.0,421.2016640231013,3.0,1.0,part_1,,,,,,,,,,,,,magenta,square
214.0,3.0,3.0,0.0,3.0,3.0,385.7294709887355,3.0,1.0,part_1,,,,,,,,,,,,,orange,triangle
400.0,4.0,4.0,0.0,1.0,1.0,382.5967700686306,3.0,1.0,part_1,,,,,,,,,,,,,blue,diamond
396.0,4.0,4.0,0.0,4.0,4.0,346.0019098129123,3.0,1.0,part_1,,,,,,,,,,,,,blue,diamond
110.0,2.0,2.0,0.0,1.0,1.0,350.1708190888166,3.0,1.0,part_1,,,,,,,,,,,,,yellow,hexagon
176.0,7.0,3.0,1.0,2.0,2.0,429.5144600328058,3.0,1.0,part_1,,,,,,,,,,,,,white,circle
401.0,4.0,4.0,0.0,3.0,3.0,434.2375618871301,3.0,1.0,part_1,,,,,,,,,,,,,blue,diamond
41.0,5.0,1.0,1.0,2.0,2.0,524.0146650467068,3.0,1.0,part_1,,,,,,,,,,,,,cyan,cross
400.0,8.0,4.0,1.0,2.0,2.0,395.3117779456079,3.0,1.0,part_1,,,,,,,,,,,,,gray,flipped triangle
85.0,6.0,2.0,1.0,2.0,2.0,391.8277740012854,3.0,1.0,part_1,,,,,,,,,,,,,magenta,square
108.0,6.0,2.0,1.0,2.0,2.0,338.9937980100512,3.0,1.0,part_1,,,,,,,,,,,,,magenta,square
400.0,4.0,4.0,0.0,2.0,2.0,294.5861769840121,3.0,1.0,part_1,,,,,,,,,,,,,blue,diamond
54.0,5.0,1.0,1.0,3.0,3.0,364.3882151227444,3.0,1.0,part_1,,,,,,,,,,,,,cyan,cross
34.0,1.0,1.0,0.0,3.0,3.0,392.2352490480989,3.0,1.0,part_1,,,,,,,,,,,,,green,I
219.0,7.0,3.0,1.0,1.0,1.0,413.148971972987,3.0,1.0,part_1,,,,,,,,,,,,,white,circle
399.0,8.0,4.0,1.0,4.0,4.0,513.305796077475,3.0,1.0,part_1,,,,,,,,,,,,,gray,flipped triangle
64.0,5.0,1.0,1.0,4.0,4.0,510.2175350766629,3.0,1.0,part_1,,,,,,,,,,,,,cyan,cross
0.0,5.0,0.0,1.0,1.0,1.0,516.535036964342,3.0,1.0,part_1,,,,,,,,,,,,,cyan,cross
197.0,3.0,3.0,0.0,1.0,1.0,348.810639930889,3.0,2.0,part_1,,,,,,,,,,,,,orange,triangle
0.0,5.0,0.0,1.0,1.0,1.0,352.5785868987441,3.0,1.0,part_1,,,,,,,,,,,,,cyan,cross
0.0,5.0,0.0,1.0,3.0,3.0,381.3785640522837,3.0,1.0,part_1,,,,,,,,,,,,,cyan,cross
217.0,3.0,3.0,0.0,3.0,3.0,363.8929070439189,3.0,1.0,part_1,,,,,,,,,,,,,orange,triangle
28.0,1.0,1.0,0.0,1.0,1.0,423.8895180169493,3.0,1.0,part_1,,,,,,,,,,,,,green,I
400.0,8.0,4.0,1.0,4.0,4.0,518.761940067634,3.0,1.0,part_1,,,,,,,,,,,,,gray,flipped triangle
189.0,3.0,3.0,0.0,3.0,3.0,322.432508924976,3.0,1.0,part_1,,,,,,,,,,,,,orange,triangle
61.0,5.0,1.0,1.0,4.0,4.0,448.5509949736297,3.0,1.0,part_1,,,,,,,,,,,,,cyan,cross
182.0,7.0,3.0,1.0,3.0,3.0,395.5081179738045,3.0,1.0,part_1,,,,,,,,,,,,,white,circle
29.0,1.0,1.0,0.0,2.0,2.0,353.8122239988297,3.0,1.0,part_1,,,,,,,,,,,,,green,I
62.0,5.0,1.0,1.0,3.0,3.0,358.9361160993576,3.0,1.0,part_1,,,,,,,,,,,,,cyan,cross
0.0,4.0,0.0,0.0,3.0,3.0,394.7083428502083,3.0,1.0,part_1,,,,,,,,,,,,,blue,diamond
386.0,8.0,4.0,1.0,2.0,2.0,367.0651980210095,3.0,1.0,part_1,,,,,,,,,,,,,gray,flipped triangle
188.0,3.0,3.0,0.0,3.0,3.0,338.5001940187067,3.0,1.0,part_1,,,,,,,,,,,,,orange,triangle
110.0,6.0,2.0,1.0,2.0,2.0,376.2441969010979,3.0,1.0,part_1,,,,,,,,,,,,,magenta,square
419.0,8.0,4.0,1.0,1.0,1.0,396.5640270616859,3.0,1.0,part_1,,,,,,,,,,,,,gray,flipped triangle
81.0,6.0,2.0,1.0,4.0,4.0,344.0837520174682,3.0,1.0,part_1,,,,,,,,,,,,,magenta,square
57.0,1.0,1.0,0.0,3.0,3.0,348.784995963797,3.0,1.0,part_1,,,,,,,,,,,,,green,I
401.0,8.0,4.0,1.0,3.0,3.0,394.4951810408383,3.0,1.0,part_1,,,,,,,,,,,,,gray,flipped triangle
0.0,6.0,0.0,1.0,4.0,4.0,359.8409399855882,3.0,1.0,part_1,,,,,,,,,,,,,magenta,square
72.0,5.0,1.0,1.0,1.0,1.0,338.3009331300854,3.0,1.0,part_1,,,,,,,,,,,,,cyan,cross
411.0,4.0,4.0,0.0,1.0,1.0,385.7430999632925,3.0,1.0,part_1,,,,,,,,,,,,,blue,diamond
100.0,6.0,2.0,1.0,3.0,3.0,444.6239601820707,3.0,1.0,part_1,,,,,,,,,,,,,magenta,square
109.0,6.0,2.0,1.0,3.0,3.0,362.2097040060907,3.0,1.0,part_1,,,,,,,,,,,,,magenta,square
214.0,7.0,3.0,1.0,3.0,3.0,671.6395798139274,3.0,1.0,part_1,,,,,,,,,,,,,white,circle
0.0,6.0,0.0,1.0,2.0,2.0,435.3724080137908,3.0,1.0,part_1,,,,,,,,,,,,,magenta,square
212.0,3.0,3.0,0.0,1.0,1.0,445.7387619186193,3.0,1.0,part_1,,,,,,,,,,,,,orange,triangle
223.0,7.0,3.0,1.0,3.0,3.0,515.8416000194848,3.0,1.0,part_1,,,,,,,,,,,,,white,circle
34.0,5.0,1.0,1.0,4.0,4.0,482.0346520282328,3.0,1.0,part_1,,,,,,,,,,,,,cyan,cross
388.0,8.0,4.0,1.0,1.0,1.0,703.1656629405916,3.0,1.0,part_1,,,,,,,,,,,,,gray,flipped triangle
0.0,8.0,0.0,1.0,3.0,3.0,643.5211189091206,3.0,1.0,part_1,,,,,,,,,,,,,gray,flipped triangle
0.0,5.0,0.0,1.0,1.0,1.0,521.0048498120159,3.0,1.0,part_1,,,,,,,,,,,,,cyan,cross
180.0,7.0,3.0,1.0,2.0,2.0,618.9797010738403,3.0,1.0,part_1,,,,,,,,,,,,,white,circle
120.0,2.0,2.0,0.0,2.0,2.0,321.8758769799024,3.0,1.0,part_1,,,,,,,,,,,,,yellow,hexagon
396.0,4.0,4.0,0.0,1.0,1.0,340.3567150235176,3.0,1.0,part_1,,,,,,,,,,,,,blue,diamond
194.0,7.0,3.0,1.0,2.0,2.0,315.4379189945757,3.0,1.0,part_1,,,,,,,,,,,,,white,circle
179.0,3.0,3.0,0.0,2.0,2.0,358.6704740300774,3.0,1.0,part_1,,,,,,,,,,,,,orange,triangle
383.0,4.0,4.0,0.0,2.0,2.0,389.1077139414847,3.0,1.0,part_1,,,,,,,,,,,,,blue,diamond
113.0,6.0,2.0,1.0,4.0,4.0,816.2607881240547,3.0,1.0,part_1,,,,,,,,,,,,,magenta,square
414.0,4.0,4.0,0.0,4.0,4.0,622.1810870338231,3.0,1.0,part_1,,,,,,,,,,,,,blue,diamond
403.0,8.0,4.0,1.0,2.0,2.0,489.9039280135184,3.0,1.0,part_1,,,,,,,,,,,,,gray,flipped triangle
402.0,8.0,4.0,1.0,3.0,3.0,436.9771520141512,3.0,1.0,part_1,,,,,,,,,,,,,gray,flipped triangle
41.0,5.0,1.0,1.0,1.0,1.0,456.7664640489965,3.0,1.0,part_1,,,,,,,,,,,,,cyan,cross
60.0,5.0,1.0,1.0,3.0,3.0,502.3019090294838,3.0,1.0,part_1,,,,,,,,,,,,,cyan,cross
400.0,4.0,4.0,0.0,3.0,3.0,531.1854348983616,3.0,1.0,part_1,,,,,,,,,,,,,blue,diamond
77.0,2.0,2.0,0.0,1.0,1.0,351.8466339446604,3.0,1.0,part_1,,,,,,,,,,,,,yellow,hexagon
67.0,5.0,1.0,1.0,2.0,2.0,340.5196589883417,3.0,1.0,part_1,,,,,,,,,,,,,cyan,cross
46.0,1.0,1.0,0.0,2.0,2.0,323.8768761511892,3.0,1.0,part_1,,,,,,,,,,,,,green,I
60.0,1.0,1.0,0.0,3.0,3.0,343.8321889843792,3.0,1.0,part_1,,,,,,,,,,,,,green,I
0.0,6.0,0.0,1.0,3.0,3.0,313.684816006571,3.0,1.0,part_1,,,,,,,,,,,,,magenta,square
383.0,4.0,4.0,0.0,1.0,1.0,393.1062559131533,3.0,1.0,part_1,,,,,,,,,,,,,blue,diamond
195.0,7.0,3.0,1.0,4.0,4.0,363.5298260487616,3.0,1.0,part_1,,,,,,,,,,,,,white,circle
0.0,3.0,0.0,0.0,2.0,2.0,370.1803178992122,3.0,1.0,part_1,,,,,,,,,,,,,orange,triangle
179.0,7.0,3.0,1.0,1.0,1.0,428.8572107907384,3.0,1.0,part_1,,,,,,,,,,,,,white,circle
205.0,7.0,3.0,1.0,4.0,4.0,396.2230389006436,3.0,1.0,part_1,,,,,,,,,,,,,white,circle
0.0,8.0,0.0,1.0,2.0,2.0,591.8208758812398,3.0,1.0,part_1,,,,,,,,,,,,,gray,flipped triangle
0.0,6.0,0.0,1.0,4.0,4.0,411.6347739472985,3.0,1.0,part_1,,,,,,,,,,,,,magenta,square
38.0,1.0,1.0,0.0,4.0,4.0,375.8854689076543,3.0,1.0,part_1,,,,,,,,,,,,,green,I
87.0,2.0,2.0,0.0,3.0,3.0,478.7282769102603,3.0,1.0,part_1,,,,,,,,,,,,,yellow,hexagon
119.0,6.0,2.0,1.0,1.0,1.0,400.4951119422912,3.0,1.0,part_1,,,,,,,,,,,,,magenta,square
34.0,5.0,1.0,1.0,4.0,4.0,408.8481729850173,3.0,1.0,part_1,,,,,,,,,,,,,cyan,cross
0.0,7.0,0.0,1.0,4.0,4.0,466.4522220846265,3.0,1.0,part_1,,,,,,,,,,,,,white,circle
0.0,6.0,0.0,1.0,4.0,4.0,406.6735471133142,3.0,1.0,part_1,,,,,,,,,,,,,magenta,square
38.0,5.0,1.0,1.0,4.0,4.0,380.1046977750957,3.0,2.0,part_1,,,,,,,,,,,,,cyan,cross
194.0,3.0,3.0,0.0,3.0,3.0,455.3693330381065,3.0,1.0,part_1,,,,,,,,,,,,,orange,triangle
0.0,1.0,0.0,0.0,4.0,4.0,339.378337142989,3.0,1.0,part_1,,,,,,,,,,,,,green,I
380.0,8.0,4.0,1.0,1.0,1.0,527.0369520876557,3.0,1.0,part_1,,,,,,,,,,,,,gray,flipped triangle
34.0,1.0,1.0,0.0,4.0,4.0,677.740354090929,3.0,1.0,part_1,,,,,,,,,,,,,green,I
0.0,4.0,0.0,0.0,4.0,4.0,835.0336661096662,3.0,1.0,part_1,,,,,,,,,,,,,blue,diamond
210.0,7.0,3.0,1.0,2.0,2.0,355.6388921570033,3.0,2.0,part_1,,,,,,,,,,,,,white,circle
62.0,1.0,1.0,0.0,2.0,2.0,367.9962798487395,3.0,1.0,part_1,,,,,,,,,,,,,green,I
219.0,3.0,3.0,0.0,4.0,4.0,347.9542229324579,3.0,1.0,part_1,,,,,,,,,,,,,orange,triangle
57.0,5.0,1.0,1.0,2.0,2.0,305.855117039755,3.0,1.0,part_1,,,,,,,,,,,,,cyan,cross
116.0,2.0,2.0,0.0,1.0,1.0,420.0093930121511,4.0,1.0,part_1,,,,,,,,,,,,,yellow,hexagon
411.0,8.0,4.0,1.0,4.0,4.0,360.30923016369337,4.0,1.0,part_1,,,,,,,,,,,,,gray,flipped triangle
53.0,5.0,1.0,1.0,1.0,1.0,368.1143950670957,4.0,1.0,part_1,,,,,,,,,,,,,cyan,cross
215.0,7.0,3.0,1.0,2.0,2.0,595.160000026226,4.0,1.0,part_1,,,,,,,,,,,,,white,circle
0.0,7.0,0.0,1.0,4.0,4.0,373.7184449564665,4.0,1.0,part_1,,,,,,,,,,,,,white,circle
0.0,1.0,0.0,0.0,2.0,2.0,322.2078399267047,4.0,1.0,part_1,,,,,,,,,,,,,green,I
83.0,2.0,2.0,0.0,3.0,3.0,423.2117631472647,4.0,1.0,part_1,,,,,,,,,,,,,yellow,hexagon
380.0,4.0,4.0,0.0,1.0,1.0,435.9557870775461,4.0,1.0,part_1,,,,,,,,,,,,,blue,diamond
0.0,3.0,0.0,0.0,2.0,2.0,458.2293019630015,4.0,1.0,part_1,,,,,,,,,,,,,orange,triangle
28.0,1.0,1.0,0.0,4.0,4.0,389.1642580274492,4.0,1.0,part_1,,,,,,,,,,,,,green,I
0.0,7.0,0.0,1.0,3.0,3.0,766.0053500439972,4.0,1.0,part_1,,,,,,,,,,,,,white,circle
206.0,7.0,3.0,1.0,4.0,4.0,402.3537000175565,4.0,1.0,part_1,,,,,,,,,,,,,white,circle
72.0,1.0,1.0,0.0,1.0,1.0,446.3137630373239,4.0,1.0,part_1,,,,,,,,,,,,,green,I
73.0,5.0,1.0,1.0,1.0,1.0,424.3822039570659,4.0,1.0,part_1,,,,,,,,,,,,,cyan,cross
90.0,2.0,2.0,0.0,1.0,1.0,430.4129099473357,4.0,1.0,part_1,,,,,,,,,,,,,yellow,hexagon
378.0,4.0,4.0,0.0,2.0,2.0,577.8828179463744,4.0,1.0,part_1,,,,,,,,,,,,,blue,diamond
210.0,7.0,3.0,1.0,1.0,1.0,415.8214330673218,4.0,1.0,part_1,,,,,,,,,,,,,white,circle
376.0,4.0,4.0,0.0,2.0,2.0,499.3219589814544,4.0,1.0,part_1,,,,,,,,,,,,,blue,diamond
224.0,3.0,3.0,0.0,2.0,2.0,506.41933898441494,4.0,1.0,part_1,,,,,,,,,,,,,orange,triangle
194.0,7.0,3.0,1.0,4.0,4.0,444.97903995215887,4.0,1.0,part_1,,,,,,,,,,,,,white,circle
65.0,1.0,1.0,0.0,3.0,3.0,364.79069688357407,4.0,1.0,part_1,,,,,,,,,,,,,green,I
120.0,6.0,2.0,1.0,2.0,2.0,359.8461328074336,4.0,1.0,part_1,,,,,,,,,,,,,magenta,square
396.0,8.0,4.0,1.0,3.0,3.0,466.2798219360411,4.0,1.0,part_1,,,,,,,,,,,,,gray,flipped triangle
185.0,3.0,3.0,0.0,2.0,2.0,553.8847350981086,4.0,1.0,part_1,,,,,,,,,,,,,orange,triangle
212.0,7.0,3.0,1.0,4.0,4.0,453.9257739670574,4.0,1.0,part_1,,,,,,,,,,,,,white,circle
80.0,2.0,2.0,0.0,4.0,4.0,380.3306021727621,4.0,1.0,part_1,,,,,,,,,,,,,yellow,hexagon
402.0,4.0,4.0,0.0,1.0,1.0,461.4765169098973,4.0,1.0,part_1,,,,,,,,,,,,,blue,diamond
423.0,4.0,4.0,0.0,3.0,3.0,443.520565982908,4.0,1.0,part_1,,,,,,,,,,,,,blue,diamond
197.0,7.0,3.0,1.0,3.0,3.0,767.3003310337663,4.0,1.0,part_1,,,,,,,,,,,,,white,circle
0.0,2.0,0.0,0.0,3.0,3.0,523.1076299678534,4.0,1.0,part_1,,,,,,,,,,,,,yellow,hexagon
68.0,5.0,1.0,1.0,4.0,4.0,393.7717040535062,4.0,1.0,part_1,,,,,,,,,,,,,cyan,cross
96.0,6.0,2.0,1.0,1.0,1.0,383.0178210046142,4.0,1.0,part_1,,,,,,,,,,,,,magenta,square
41.0,1.0,1.0,0.0,1.0,1.0,404.6096140518784,4.0,1.0,part_1,,,,,,,,,,,,,green,I
0.0,3.0,0.0,0.0,2.0,2.0,368.3475460857153,4.0,1.0,part_1,,,,,,,,,,,,,orange,triangle
203.0,3.0,3.0,0.0,4.0,4.0,363.4594569448381,4.0,1.0,part_1,,,,,,,,,,,,,orange,triangle
177.0,3.0,3.0,0.0,4.0,4.0,393.0886541493237,4.0,1.0,part_1,,,,,,,,,,,,,orange,triangle
87.0,2.0,2.0,0.0,4.0,4.0,381.7005848977715,4.0,1.0,part_1,,,,,,,,,,,,,yellow,hexagon
80.0,6.0,2.0,1.0,2.0,2.0,440.538115799427,4.0,1.0,part_1,,,,,,,,,,,,,magenta,square
379.0,4.0,4.0,0.0,4.0,4.0,325.6588140502572,4.0,1.0,part_1,,,,,,,,,,,,,blue,diamond
377.0,8.0,4.0,1.0,2.0,2.0,443.5901991091668,4.0,1.0,part_1,,,,,,,,,,,,,gray,flipped triangle
379.0,8.0,4.0,1.0,4.0,4.0,431.2342419289052,4.0,1.0,part_1,,,,,,,,,,,,,gray,flipped triangle
184.0,3.0,3.0,0.0,2.0,2.0,461.0733420122415,4.0,1.0,part_1,,,,,,,,,,,,,orange,triangle
213.0,3.0,3.0,0.0,4.0,4.0,385.3975050151348,4.0,1.0,part_1,,,,,,,,,,,,,orange,triangle
114.0,6.0,2.0,1.0,3.0,3.0,709.1763319913298,4.0,1.0,part_1,,,,,,,,,,,,,magenta,square
61.0,1.0,1.0,0.0,4.0,4.0,450.0137260183692,4.0,1.0,part_1,,,,,,,,,,,,,green,I
408.0,8.0,4.0,1.0,3.0,3.0,429.636166896671,4.0,1.0,part_1,,,,,,,,,,,,,gray,flipped triangle
423.0,4.0,4.0,0.0,2.0,2.0,499.3752560112625,4.0,1.0,part_1,,,,,,,,,,,,,blue,diamond
0.0,4.0,0.0,0.0,3.0,3.0,633.578056935221,4.0,1.0,part_1,,,,,,,,,,,,,blue,diamond
404.0,8.0,4.0,1.0,1.0,1.0,502.81026400625706,4.0,1.0,part_1,,,,,,,,,,,,,gray,flipped triangle
41.0,5.0,1.0,1.0,4.0,4.0,812.7065158914775,4.0,1.0,part_1,,,,,,,,,,,,,cyan,cross
407.0,8.0,4.0,1.0,2.0,2.0,452.9447299428284,4.0,1.0,part_1,,,,,,,,,,,,,gray,flipped triangle
399.0,4.0,4.0,0.0,3.0,3.0,393.7129739206284,4.0,1.0,part_1,,,,,,,,,,,,,blue,diamond
396.0,8.0,4.0,1.0,2.0,2.0,359.2304978519678,4.0,1.0,part_1,,,,,,,,,,,,,gray,flipped triangle
81.0,2.0,2.0,0.0,4.0,4.0,381.7108280491084,4.0,1.0,part_1,,,,,,,,,,,,,yellow,hexagon
65.0,5.0,1.0,1.0,1.0,1.0,379.2400390375405,4.0,1.0,part_1,,,,,,,,,,,,,cyan,cross
415.0,4.0,4.0,0.0,3.0,3.0,496.5350448619574,4.0,1.0,part_1,,,,,,,,,,,,,blue,diamond
110.0,6.0,2.0,1.0,4.0,4.0,417.8797060158103,4.0,1.0,part_1,,,,,,,,,,,,,magenta,square
0.0,7.0,0.0,1.0,4.0,4.0,430.2278878167271,4.0,1.0,part_1,,,,,,,,,,,,,white,circle
0.0,1.0,0.0,0.0,2.0,2.0,634.6927809063345,4.0,1.0,part_1,,,,,,,,,,,,,green,I
205.0,3.0,3.0,0.0,1.0,1.0,623.5138319898397,4.0,1.0,part_1,,,,,,,,,,,,,orange,triangle
217.0,7.0,3.0,1.0,2.0,2.0,396.111146081239,4.0,1.0,part_1,,,,,,,,,,,,,white,circle
41.0,1.0,1.0,0.0,2.0,2.0,468.6508669983595,4.0,1.0,part_1,,,,,,,,,,,,,green,I
223.0,3.0,3.0,0.0,1.0,1.0,445.8948848769068,4.0,1.0,part_1,,,,,,,,,,,,,orange,triangle
109.0,2.0,2.0,0.0,1.0,1.0,443.19281517528,4.0,1.0,part_1,,,,,,,,,,,,,yellow,hexagon
86.0,2.0,2.0,0.0,4.0,4.0,441.8521928600967,4.0,1.0,part_1,,,,,,,,,,,,,yellow,hexagon
424.0,4.0,4.0,0.0,3.0,3.0,731.4952870365232,4.0,1.0,part_1,,,,,,,,,,,,,blue,diamond
0.0,2.0,0.0,0.0,3.0,3.0,440.9354159142822,4.0,1.0,part_1,,,,,,,,,,,,,yellow,hexagon
28.0,5.0,1.0,1.0,2.0,2.0,797.7993118111044,4.0,1.0,part_1,,,,,,,,,,,,,cyan,cross
0.0,2.0,0.0,0.0,3.0,3.0,340.2269780635834,4.0,1.0,part_1,,,,,,,,,,,,,yellow,hexagon
116.0,6.0,2.0,1.0,2.0,2.0,319.1421430092305,4.0,1.0,part_1,,,,,,,,,,,,,magenta,square
199.0,3.0,3.0,0.0,2.0,2.0,466.6338628157973,4.0,1.0,part_1,,,,,,,,,,,,,orange,triangle
0.0,8.0,0.0,1.0,4.0,4.0,441.8839090503752,4.0,1.0,part_1,,,,,,,,,,,,,gray,flipped triangle
72.0,5.0,1.0,1.0,3.0,3.0,335.2427729405463,4.0,1.0,part_1,,,,,,,,,,,,,cyan,cross
197.0,7.0,3.0,1.0,2.0,2.0,667.7349130623043,4.0,1.0,part_1,,,,,,,,,,,,,white,circle
67.0,1.0,1.0,0.0,1.0,1.0,479.7017481178045,4.0,1.0,part_1,,,,,,,,,,,,,green,I
97.0,6.0,2.0,1.0,1.0,1.0,472.8029728867113,4.0,2.0,part_1,,,,,,,,,,,,,magenta,square
0.0,4.0,0.0,0.0,1.0,1.0,483.9077950455248,4.0,1.0,part_1,,,,,,,,,,,,,blue,diamond
75.0,1.0,1.0,0.0,4.0,4.0,393.2739840820431,4.0,1.0,part_1,,,,,,,,,,,,,green,I
113.0,2.0,2.0,0.0,2.0,2.0,406.7394949961453,4.0,1.0,part_1,,,,,,,,,,,,,yellow,hexagon
0.0,5.0,0.0,1.0,4.0,4.0,422.0758739393204,4.0,1.0,part_1,,,,,,,,,,,,,cyan,cross
203.0,3.0,3.0,0.0,4.0,4.0,536.3873799797148,4.0,1.0,part_1,,,,,,,,,,,,,orange,triangle
184.0,7.0,3.0,1.0,1.0,1.0,436.1584158614278,4.0,1.0,part_1,,,,,,,,,,,,,white,circle
204.0,3.0,3.0,0.0,2.0,2.0,528.8732179906219,4.0,1.0,part_1,,,,,,,,,,,,,orange,triangle
225.0,3.0,3.0,0.0,3.0,3.0,582.3164021130651,4.0,1.0,part_1,,,,,,,,,,,,,orange,triangle
177.0,7.0,3.0,1.0,3.0,3.0,650.2842172048986,4.0,1.0,part_1,,,,,,,,,,,,,white,circle
38.0,5.0,1.0,1.0,3.0,3.0,440.4286569915712,4.0,1.0,part_1,,,,,,,,,,,,,cyan,cross
64.0,1.0,1.0,0.0,1.0,1.0,611.2712749745697,4.0,1.0,part_1,,,,,,,,,,,,,green,I
0.0,5.0,0.0,1.0,2.0,2.0,890.2998249977827,4.0,1.0,part_1,,,,,,,,,,,,,cyan,cross
0.0,1.0,0.0,0.0,4.0,4.0,424.0369990002364,4.0,1.0,part_1,,,,,,,,,,,,,green,I
116.0,6.0,2.0,1.0,3.0,3.0,425.2093110699206,4.0,1.0,part_1,,,,,,,,,,,,,magenta,square
219.0,7.0,3.0,1.0,3.0,3.0,422.0758699811995,4.0,1.0,part_1,,,,,,,,,,,,,white,circle
394.0,4.0,4.0,0.0,4.0,4.0,429.4581590220332,4.0,1.0,part_1,,,,,,,,,,,,,blue,diamond
46.0,5.0,1.0,1.0,2.0,2.0,808.2563739735633,4.0,1.0,part_1,,,,,,,,,,,,,cyan,cross
215.0,7.0,3.0,1.0,1.0,1.0,511.0654828604311,4.0,1.0,part_1,,,,,,,,,,,,,white,circle
115.0,2.0,2.0,0.0,4.0,4.0,408.9924779254943,4.0,1.0,part_1,,,,,,,,,,,,,yellow,hexagon
0.0,3.0,0.0,0.0,1.0,1.0,460.7360479421913,4.0,1.0,part_1,,,,,,,,,,,,,orange,triangle
215.0,3.0,3.0,0.0,1.0,1.0,619.5791088975966,4.0,1.0,part_1,,,,,,,,,,,,,orange,triangle
123.0,6.0,2.0,1.0,4.0,4.0,825.2341290935874,4.0,1.0,part_1,,,,,,,,,,,,,magenta,square
0.0,8.0,0.0,1.0,3.0,3.0,356.0550790280103,4.0,1.0,part_1,,,,,,,,,,,,,gray,flipped triangle
0.0,5.0,0.0,1.0,1.0,1.0,401.5535661019385,4.0,1.0,part_1,,,,,,,,,,,,,cyan,cross
0.0,2.0,2.0,0.0,6.0,6.0,439.3687208648771,1.0,0.0,part_2,go,250.0,250.0,1.0,,,,,,,,,yellow,hexagon
0.0,8.0,4.0,1.0,6.0,6.0,516.2493018433452,1.0,0.0,part_2,stop,250.0,250.0,3.0,,,,,,,,,gray,flipped triangle
0.0,5.0,1.0,1.0,5.0,5.0,509.25864302553236,1.0,0.0,part_2,stop,250.0,200.0,3.0,,,,,,,,,cyan,cross
0.0,8.0,4.0,1.0,5.0,5.0,682.423209073022,1.0,0.0,part_2,go,200.0,200.0,1.0,,,,,,,,,gray,flipped triangle
0.0,8.0,4.0,1.0,6.0,6.0,643.1206401903182,1.0,0.0,part_2,go,200.0,200.0,1.0,,,,,,,,,gray,flipped triangle
0.0,5.0,1.0,1.0,5.0,0.0,0.0,1.0,0.0,part_2,stop,200.0,200.0,4.0,,,,,,,,,cyan,cross
0.0,7.0,3.0,1.0,5.0,0.0,0.0,1.0,0.0,part_2,stop,250.0,200.0,4.0,,,,,,,,,white,circle
0.0,4.0,4.0,0.0,6.0,6.0,578.7544751074165,1.0,0.0,part_2,go,300.0,200.0,1.0,,,,,,,,,blue,diamond
0.0,7.0,3.0,1.0,5.0,0.0,0.0,1.0,0.0,part_2,stop,300.0,200.0,4.0,,,,,,,,,white,circle
0.0,4.0,4.0,0.0,5.0,5.0,745.7169170957059,1.0,0.0,part_2,go,350.0,200.0,1.0,,,,,,,,,blue,diamond
0.0,2.0,2.0,0.0,5.0,5.0,768.8045250251889,1.0,0.0,part_2,go,350.0,200.0,1.0,,,,,,,,,yellow,hexagon
0.0,6.0,2.0,1.0,6.0,0.0,0.0,1.0,0.0,part_2,stop,350.0,200.0,4.0,,,,,,,,,magenta,square
0.0,1.0,1.0,0.0,6.0,6.0,454.8533651977777,1.0,0.0,part_2,go,350.0,250.0,1.0,,,,,,,,,green,I
0.0,4.0,4.0,0.0,6.0,6.0,662.3953809030354,1.0,0.0,part_2,go,350.0,250.0,1.0,,,,,,,,,blue,diamond
0.0,8.0,4.0,1.0,5.0,0.0,0.0,1.0,0.0,part_2,stop,350.0,250.0,4.0,,,,,,,,,gray,flipped triangle
0.0,3.0,3.0,0.0,5.0,5.0,707.2651509661227,1.0,0.0,part_2,go,400.0,250.0,1.0,,,,,,,,,orange,triangle
0.0,1.0,1.0,0.0,6.0,6.0,786.0930629540235,1.0,0.0,part_2,go,400.0,250.0,1.0,,,,,,,,,green,I
0.0,6.0,2.0,1.0,5.0,0.0,0.0,1.0,0.0,part_2,stop,400.0,250.0,4.0,,,,,,,,,magenta,square
0.0,8.0,4.0,1.0,5.0,5.0,644.4988430012017,1.0,0.0,part_2,go,450.0,250.0,1.0,,,,,,,,,gray,flipped triangle
0.0,6.0,2.0,1.0,6.0,6.0,736.8677081540227,1.0,0.0,part_2,go,450.0,250.0,1.0,,,,,,,,,magenta,square
0.0,1.0,1.0,0.0,5.0,5.0,706.2500431202352,1.0,0.0,part_2,go,450.0,250.0,1.0,,,,,,,,,green,I
0.0,4.0,4.0,0.0,5.0,5.0,553.611553972587,1.0,0.0,part_2,go,450.0,250.0,1.0,,,,,,,,,blue,diamond
0.0,1.0,1.0,0.0,5.0,5.0,391.6196888312697,1.0,0.0,part_2,go,450.0,250.0,1.0,,,,,,,,,green,I
0.0,6.0,2.0,1.0,6.0,0.0,0.0,1.0,0.0,part_2,stop,450.0,250.0,4.0,,,,,,,,,magenta,square
0.0,2.0,2.0,0.0,5.0,5.0,639.5363798364997,1.0,0.0,part_2,go,450.0,300.0,1.0,,,,,,,,,yellow,hexagon
0.0,3.0,3.0,0.0,6.0,6.0,663.215302862227,1.0,0.0,part_2,go,450.0,300.0,1.0,,,,,,,,,orange,triangle
0.0,7.0,3.0,1.0,5.0,5.0,517.4420480616391,1.0,0.0,part_2,stop,450.0,300.0,3.0,,,,,,,,,white,circle
0.0,1.0,1.0,0.0,5.0,5.0,692.3416499048471,1.0,0.0,part_2,go,400.0,300.0,1.0,,,,,,,,,green,I
0.0,6.0,2.0,1.0,5.0,0.0,0.0,1.0,0.0,part_2,stop,400.0,300.0,4.0,,,,,,,,,magenta,square
0.0,8.0,4.0,1.0,6.0,0.0,0.0,1.0,0.0,part_2,stop,450.0,300.0,4.0,,,,,,,,,gray,flipped triangle
0.0,2.0,2.0,0.0,6.0,6.0,571.416286053136,1.0,0.0,part_2,go,450.0,350.0,1.0,,,,,,,,,yellow,hexagon
0.0,7.0,3.0,1.0,6.0,0.0,0.0,1.0,0.0,part_2,stop,450.0,350.0,4.0,,,,,,,,,white,circle
0.0,4.0,4.0,0.0,6.0,6.0,891.166535904631,1.0,0.0,part_2,go,450.0,400.0,1.0,,,,,,,,,blue,diamond
0.0,7.0,3.0,1.0,5.0,0.0,0.0,1.0,0.0,part_2,stop,450.0,400.0,4.0,,,,,,,,,white,circle
0.0,5.0,1.0,1.0,6.0,6.0,673.5514889005572,1.0,0.0,part_2,go,500.0,400.0,1.0,,,,,,,,,cyan,cross
0.0,1.0,1.0,0.0,6.0,6.0,915.2925678063184,1.0,0.0,part_2,go,500.0,400.0,1.0,,,,,,,,,green,I
0.0,3.0,3.0,0.0,5.0,5.0,529.4478819705546,2.0,0.0,part_2,go,500.0,400.0,1.0,,,,,,,,,orange,triangle
0.0,2.0,2.0,0.0,5.0,5.0,522.3536330740899,2.0,0.0,part_2,go,500.0,400.0,1.0,,,,,,,,,yellow,hexagon
0.0,4.0,4.0,0.0,6.0,6.0,408.0273169092834,2.0,0.0,part_2,go,500.0,400.0,1.0,,,,,,,,,blue,diamond
0.0,5.0,1.0,1.0,6.0,6.0,359.0530331712216,2.0,0.0,part_2,stop,500.0,400.0,3.0,,,,,,,,,cyan,cross
0.0,3.0,3.0,0.0,6.0,6.0,473.8264989573508,2.0,0.0,part_2,go,500.0,350.0,1.0,,,,,,,,,orange,triangle
0.0,7.0,3.0,1.0,6.0,6.0,350.3005150705576,2.0,0.0,part_2,go,500.0,350.0,1.0,,,,,,,,,white,circle
0.0,8.0,4.0,1.0,5.0,5.0,445.9317568689585,2.0,0.0,part_2,stop,500.0,350.0,3.0,,,,,,,,,gray,flipped triangle
0.0,2.0,2.0,0.0,5.0,5.0,312.9481188952923,2.0,0.0,part_2,go,450.0,350.0,1.0,,,,,,,,,yellow,hexagon
0.0,2.0,2.0,0.0,6.0,6.0,415.8988620620221,2.0,0.0,part_2,go,450.0,350.0,1.0,,,,,,,,,yellow,hexagon
0.0,2.0,2.0,0.0,5.0,5.0,347.9923978447914,2.0,0.0,part_2,go,450.0,350.0,1.0,,,,,,,,,yellow,hexagon
0.0,4.0,4.0,0.0,6.0,6.0,435.4791650548577,2.0,0.0,part_2,go,450.0,350.0,1.0,,,,,,,,,blue,diamond
0.0,4.0,4.0,0.0,6.0,6.0,453.644776949659,2.0,0.0,part_2,go,450.0,350.0,1.0,,,,,,,,,blue,diamond
0.0,7.0,3.0,1.0,5.0,5.0,522.271771915257,2.0,0.0,part_2,stop,450.0,350.0,3.0,,,,,,,,,white,circle
0.0,6.0,2.0,1.0,5.0,5.0,427.5960649829358,2.0,0.0,part_2,stop,400.0,350.0,3.0,,,,,,,,,magenta,square
0.0,1.0,1.0,0.0,5.0,5.0,602.2873159963638,2.0,0.0,part_2,go,350.0,350.0,1.0,,,,,,,,,green,I
0.0,3.0,3.0,0.0,5.0,5.0,369.9975139461458,2.0,0.0,part_2,go,350.0,350.0,1.0,,,,,,,,,orange,triangle
0.0,3.0,3.0,0.0,6.0,6.0,536.3314929418266,2.0,0.0,part_2,go,350.0,350.0,1.0,,,,,,,,,orange,triangle
0.0,5.0,1.0,1.0,6.0,6.0,419.6601810399443,2.0,0.0,part_2,stop,350.0,350.0,3.0,,,,,,,,,cyan,cross
0.0,6.0,2.0,1.0,6.0,0.0,0.0,2.0,0.0,part_2,stop,350.0,300.0,4.0,,,,,,,,,magenta,square
0.0,8.0,4.0,1.0,5.0,5.0,592.0968030113727,2.0,0.0,part_2,go,350.0,350.0,1.0,,,,,,,,,gray,flipped triangle
0.0,5.0,1.0,1.0,6.0,0.0,0.0,2.0,0.0,part_2,stop,350.0,350.0,4.0,,,,,,,,,cyan,cross
0.0,7.0,3.0,1.0,6.0,6.0,512.1364570222795,2.0,0.0,part_2,stop,350.0,400.0,3.0,,,,,,,,,white,circle
0.0,6.0,2.0,1.0,5.0,0.0,0.0,2.0,0.0,part_2,stop,350.0,350.0,4.0,,,,,,,,,magenta,square
0.0,7.0,3.0,1.0,5.0,5.0,440.3138419147581,2.0,0.0,part_2,go,400.0,350.0,1.0,,,,,,,,,white,circle
0.0,8.0,4.0,1.0,5.0,0.0,0.0,2.0,0.0,part_2,stop,400.0,350.0,4.0,,,,,,,,,gray,flipped triangle
0.0,6.0,2.0,1.0,6.0,0.0,0.0,2.0,0.0,part_2,stop,450.0,350.0,4.0,,,,,,,,,magenta,square
0.0,2.0,2.0,0.0,5.0,5.0,1298.7790401093662,2.0,0.0,part_2,go,450.0,400.0,1.0,,,,,,,,,yellow,hexagon
0.0,3.0,3.0,0.0,5.0,5.0,675.0131731387228,2.0,0.0,part_2,go,450.0,400.0,1.0,,,,,,,,,orange,triangle
0.0,6.0,2.0,1.0,5.0,0.0,0.0,2.0,0.0,part_2,stop,450.0,400.0,4.0,,,,,,,,,magenta,square
0.0,6.0,2.0,1.0,5.0,5.0,819.2242719233036,2.0,0.0,part_2,stop,500.0,400.0,3.0,,,,,,,,,magenta,square
0.0,3.0,3.0,0.0,5.0,5.0,716.5868389420211,2.0,0.0,part_2,go,450.0,400.0,1.0,,,,,,,,,orange,triangle
0.0,5.0,1.0,1.0,6.0,6.0,779.414112912491,2.0,0.0,part_2,go,450.0,400.0,1.0,,,,,,,,,cyan,cross
0.0,4.0,4.0,0.0,6.0,6.0,586.5234371740371,2.0,0.0,part_2,go,450.0,400.0,1.0,,,,,,,,,blue,diamond
0.0,6.0,2.0,1.0,6.0,6.0,419.4825689774006,2.0,0.0,part_2,stop,450.0,400.0,3.0,,,,,,,,,magenta,square
0.0,4.0,4.0,0.0,6.0,6.0,696.8884060624987,2.0,0.0,part_2,go,450.0,350.0,1.0,,,,,,,,,blue,diamond
0.0,1.0,1.0,0.0,6.0,6.0,296.8569928780198,2.0,0.0,part_2,go,450.0,350.0,1.0,,,,,,,,,green,I
0.0,7.0,3.0,1.0,5.0,0.0,0.0,3.0,0.0,part_2,stop,450.0,350.0,4.0,,,,,,,,,white,circle
0.0,3.0,3.0,0.0,6.0,6.0,565.2811769396067,3.0,0.0,part_2,go,500.0,350.0,1.0,,,,,,,,,orange,triangle
0.0,7.0,3.0,1.0,5.0,5.0,472.2944521345198,3.0,0.0,part_2,stop,500.0,350.0,3.0,,,,,,,,,white,circle
0.0,3.0,3.0,0.0,6.0,6.0,700.7194268517196,3.0,0.0,part_2,go,450.0,350.0,1.0,,,,,,,,,orange,triangle
0.0,5.0,1.0,1.0,6.0,6.0,451.4435869641602,3.0,0.0,part_2,go,450.0,350.0,1.0,,,,,,,,,cyan,cross
0.0,6.0,2.0,1.0,6.0,6.0,482.9817621503025,3.0,0.0,part_2,go,450.0,350.0,1.0,,,,,,,,,magenta,square
0.0,4.0,4.0,0.0,5.0,5.0,435.8689950313419,3.0,0.0,part_2,go,450.0,350.0,1.0,,,,,,,,,blue,diamond
0.0,8.0,4.0,1.0,6.0,0.0,0.0,3.0,0.0,part_2,stop,450.0,350.0,4.0,,,,,,,,,gray,flipped triangle
0.0,6.0,2.0,1.0,6.0,0.0,0.0,3.0,0.0,part_2,stop,450.0,400.0,4.0,,,,,,,,,magenta,square
0.0,6.0,2.0,1.0,5.0,5.0,513.2801460567862,3.0,0.0,part_2,stop,450.0,450.0,3.0,,,,,,,,,magenta,square
0.0,4.0,4.0,0.0,5.0,5.0,633.668945170939,3.0,0.0,part_2,go,400.0,450.0,1.0,,,,,,,,,blue,diamond
0.0,6.0,2.0,1.0,5.0,5.0,439.8725279606879,3.0,0.0,part_2,stop,400.0,450.0,3.0,,,,,,,,,magenta,square
0.0,4.0,4.0,0.0,6.0,6.0,576.7083019018173,3.0,0.0,part_2,go,350.0,450.0,1.0,,,,,,,,,blue,diamond
0.0,7.0,3.0,1.0,5.0,5.0,590.2181819546968,3.0,0.0,part_2,go,350.0,450.0,1.0,,,,,,,,,white,circle
0.0,3.0,3.0,0.0,5.0,5.0,416.0792890470475,3.0,0.0,part_2,go,350.0,450.0,1.0,,,,,,,,,orange,triangle
0.0,7.0,3.0,1.0,6.0,6.0,466.3763528224081,3.0,0.0,part_2,stop,350.0,450.0,3.0,,,,,,,,,white,circle
0.0,4.0,4.0,0.0,6.0,6.0,414.2291930038482,3.0,0.0,part_2,go,350.0,400.0,1.0,,,,,,,,,blue,diamond
0.0,2.0,2.0,0.0,5.0,5.0,430.0439110957086,3.0,0.0,part_2,go,350.0,400.0,1.0,,,,,,,,,yellow,hexagon
0.0,3.0,3.0,0.0,6.0,6.0,588.0755209363997,3.0,0.0,part_2,go,350.0,400.0,1.0,,,,,,,,,orange,triangle
0.0,2.0,2.0,0.0,6.0,6.0,476.1975640431046,3.0,0.0,part_2,go,350.0,400.0,1.0,,,,,,,,,yellow,hexagon
0.0,5.0,1.0,1.0,6.0,6.0,466.4021928329021,3.0,0.0,part_2,go,350.0,400.0,1.0,,,,,,,,,cyan,cross
0.0,6.0,2.0,1.0,5.0,5.0,570.2366309706122,3.0,0.0,part_2,stop,350.0,400.0,3.0,,,,,,,,,magenta,square
0.0,8.0,4.0,1.0,5.0,0.0,0.0,3.0,0.0,part_2,stop,300.0,400.0,4.0,,,,,,,,,gray,flipped triangle
0.0,8.0,4.0,1.0,6.0,6.0,536.9840890634805,3.0,0.0,part_2,stop,350.0,400.0,3.0,,,,,,,,,gray,flipped triangle
0.0,2.0,2.0,0.0,5.0,5.0,640.5550967901945,3.0,0.0,part_2,go,350.0,350.0,1.0,,,,,,,,,yellow,hexagon
0.0,7.0,3.0,1.0,5.0,5.0,465.7087619416415,3.0,0.0,part_2,stop,350.0,350.0,3.0,,,,,,,,,white,circle
0.0,4.0,4.0,0.0,5.0,5.0,488.0745690315962,3.0,0.0,part_2,go,300.0,350.0,1.0,,,,,,,,,blue,diamond
0.0,3.0,3.0,0.0,5.0,5.0,584.842569893226,3.0,0.0,part_2,go,300.0,350.0,1.0,,,,,,,,,orange,triangle
0.0,5.0,1.0,1.0,5.0,0.0,0.0,3.0,0.0,part_2,stop,300.0,350.0,4.0,,,,,,,,,cyan,cross
0.0,2.0,2.0,0.0,6.0,6.0,584.6251470502466,3.0,0.0,part_2,go,350.0,350.0,1.0,,,,,,,,,yellow,hexagon
0.0,3.0,3.0,0.0,5.0,5.0,574.4169759564102,3.0,0.0,part_2,go,350.0,350.0,1.0,,,,,,,,,orange,triangle
0.0,5.0,1.0,1.0,6.0,6.0,495.8762300666421,3.0,0.0,part_2,stop,350.0,350.0,3.0,,,,,,,,,cyan,cross
0.0,5.0,1.0,1.0,6.0,0.0,0.0,3.0,0.0,part_2,stop,350.0,300.0,4.0,,,,,,,,,cyan,cross
0.0,8.0,4.0,1.0,6.0,0.0,0.0,3.0,0.0,part_2,stop,350.0,350.0,4.0,,,,,,,,,gray,flipped triangle
0.0,4.0,4.0,0.0,5.0,5.0,589.1562311444432,3.0,0.0,part_2,go,350.0,400.0,1.0,,,,,,,,,blue,diamond
0.0,2.0,2.0,0.0,5.0,5.0,654.2394750285894,3.0,0.0,part_2,go,350.0,400.0,1.0,,,,,,,,,yellow,hexagon
0.0,2.0,2.0,0.0,6.0,6.0,1355.7794459629804,4.0,0.0,part_2,go,350.0,400.0,1.0,,,,,,,,,yellow,hexagon
0.0,6.0,2.0,1.0,5.0,0.0,0.0,4.0,0.0,part_2,stop,350.0,400.0,4.0,,,,,,,,,magenta,square
0.0,7.0,3.0,1.0,6.0,0.0,0.0,4.0,0.0,part_2,stop,400.0,400.0,4.0,,,,,,,,,white,circle
0.0,2.0,2.0,0.0,5.0,5.0,503.6868550814688,4.0,0.0,part_2,go,400.0,450.0,1.0,,,,,,,,,yellow,hexagon
0.0,6.0,2.0,1.0,6.0,0.0,0.0,4.0,0.0,part_2,stop,400.0,450.0,4.0,,,,,,,,,magenta,square
0.0,2.0,2.0,0.0,6.0,6.0,678.4745601471514,4.0,0.0,part_2,go,400.0,500.0,1.0,,,,,,,,,yellow,hexagon
0.0,3.0,3.0,0.0,5.0,5.0,607.6670850161463,4.0,0.0,part_2,go,400.0,500.0,1.0,,,,,,,,,orange,triangle
0.0,2.0,2.0,0.0,5.0,5.0,687.9909788258374,4.0,0.0,part_2,go,400.0,500.0,1.0,,,,,,,,,yellow,hexagon
0.0,4.0,4.0,0.0,5.0,5.0,527.9576610773802,4.0,0.0,part_2,go,400.0,500.0,1.0,,,,,,,,,blue,diamond
0.0,1.0,1.0,0.0,5.0,5.0,733.8509038090706,4.0,0.0,part_2,go,400.0,500.0,1.0,,,,,,,,,green,I
0.0,3.0,3.0,0.0,6.0,6.0,990.8089190721512,4.0,0.0,part_2,go,400.0,500.0,1.0,,,,,,,,,orange,triangle
0.0,1.0,1.0,0.0,5.0,5.0,650.3259420860559,4.0,0.0,part_2,go,400.0,500.0,1.0,,,,,,,,,green,I
0.0,7.0,3.0,1.0,6.0,6.0,540.990473004058,4.0,0.0,part_2,stop,400.0,500.0,3.0,,,,,,,,,white,circle
0.0,1.0,1.0,0.0,6.0,6.0,785.6136008631438,4.0,0.0,part_2,go,400.0,450.0,1.0,,,,,,,,,green,I
0.0,4.0,4.0,0.0,6.0,6.0,451.2111421208828,4.0,0.0,part_2,go,400.0,450.0,1.0,,,,,,,,,blue,diamond
0.0,7.0,3.0,1.0,5.0,5.0,514.355027815327,4.0,0.0,part_2,stop,400.0,450.0,3.0,,,,,,,,,white,circle
0.0,3.0,3.0,0.0,5.0,5.0,504.1213030926883,4.0,0.0,part_2,go,350.0,450.0,1.0,,,,,,,,,orange,triangle
0.0,2.0,2.0,0.0,6.0,6.0,530.6295240297914,4.0,0.0,part_2,go,350.0,450.0,1.0,,,,,,,,,yellow,hexagon
0.0,1.0,1.0,0.0,6.0,6.0,456.3598791137337,4.0,0.0,part_2,go,350.0,450.0,1.0,,,,,,,,,green,I
0.0,4.0,4.0,0.0,5.0,0.0,0.0,4.0,0.0,part_2,go,350.0,450.0,5.0,,,,,,,,,blue,diamond
0.0,2.0,2.0,0.0,5.0,5.0,669.6083159185946,4.0,0.0,part_2,go,350.0,450.0,1.0,,,,,,,,,yellow,hexagon
0.0,8.0,4.0,1.0,5.0,0.0,0.0,4.0,0.0,part_2,stop,350.0,450.0,4.0,,,,,,,,,gray,flipped triangle
0.0,4.0,4.0,0.0,6.0,6.0,495.8909298293292,4.0,0.0,part_2,go,400.0,450.0,1.0,,,,,,,,,blue,diamond
0.0,7.0,3.0,1.0,5.0,0.0,0.0,4.0,0.0,part_2,stop,400.0,450.0,4.0,,,,,,,,,white,circle
0.0,5.0,1.0,1.0,5.0,0.0,0.0,4.0,0.0,part_2,stop,450.0,450.0,4.0,,,,,,,,,cyan,cross
0.0,2.0,2.0,0.0,6.0,6.0,638.0712809041142,4.0,0.0,part_2,go,500.0,450.0,1.0,,,,,,,,,yellow,hexagon
0.0,2.0,2.0,0.0,6.0,6.0,563.9783279038966,4.0,0.0,part_2,go,500.0,450.0,1.0,,,,,,,,,yellow,hexagon
0.0,2.0,2.0,0.0,5.0,5.0,665.8784439787269,4.0,0.0,part_2,go,500.0,450.0,1.0,,,,,,,,,yellow,hexagon
0.0,6.0,2.0,1.0,6.0,0.0,0.0,4.0,0.0,part_2,stop,500.0,450.0,4.0,,,,,,,,,magenta,square
0.0,3.0,3.0,0.0,5.0,5.0,660.7060660608113,4.0,0.0,part_2,go,500.0,500.0,1.0,,,,,,,,,orange,triangle
0.0,8.0,4.0,1.0,6.0,0.0,0.0,4.0,0.0,part_2,stop,500.0,500.0,4.0,,,,,,,,,gray,flipped triangle
0.0,6.0,2.0,1.0,6.0,6.0,503.07053001597524,4.0,0.0,part_2,stop,500.0,550.0,3.0,,,,,,,,,magenta,square
0.0,5.0,1.0,1.0,5.0,5.0,602.3482149466872,4.0,0.0,part_2,stop,500.0,500.0,3.0,,,,,,,,,cyan,cross
0.0,3.0,3.0,0.0,5.0,5.0,534.8533941432834,4.0,0.0,part_2,go,450.0,500.0,1.0,,,,,,,,,orange,triangle
0.0,4.0,4.0,0.0,6.0,6.0,568.8210839871317,4.0,0.0,part_2,go,450.0,500.0,1.0,,,,,,,,,blue,diamond
0.0,7.0,3.0,1.0,6.0,6.0,519.6132569108158,4.0,0.0,part_2,stop,450.0,500.0,3.0,,,,,,,,,white,circle
0.0,3.0,3.0,0.0,6.0,6.0,930.4233598522842,5.0,0.0,part_2,go,450.0,450.0,1.0,,,,,,,,,orange,triangle
0.0,6.0,2.0,1.0,5.0,0.0,0.0,5.0,0.0,part_2,stop,450.0,450.0,4.0,,,,,,,,,magenta,square
0.0,2.0,2.0,0.0,5.0,5.0,592.079265974462,5.0,0.0,part_2,go,500.0,450.0,1.0,,,,,,,,,yellow,hexagon
0.0,5.0,1.0,1.0,5.0,5.0,673.7224839162081,5.0,0.0,part_2,stop,500.0,450.0,3.0,,,,,,,,,cyan,cross
0.0,7.0,3.0,1.0,6.0,6.0,535.48174793832,5.0,0.0,part_2,go,450.0,450.0,1.0,,,,,,,,,white,circle
0.0,8.0,4.0,1.0,6.0,6.0,639.4592029973865,5.0,0.0,part_2,go,450.0,450.0,1.0,,,,,,,,,gray,flipped triangle
0.0,7.0,3.0,1.0,5.0,5.0,557.1614331565797,5.0,0.0,part_2,go,450.0,450.0,1.0,,,,,,,,,white,circle
0.0,8.0,4.0,1.0,6.0,6.0,446.7896930873394,5.0,0.0,part_2,go,450.0,450.0,1.0,,,,,,,,,gray,flipped triangle
0.0,1.0,1.0,0.0,5.0,5.0,559.5044179353863,5.0,0.0,part_2,go,450.0,450.0,1.0,,,,,,,,,green,I
0.0,7.0,3.0,1.0,5.0,5.0,470.8345199469477,5.0,0.0,part_2,go,450.0,450.0,1.0,,,,,,,,,white,circle
0.0,8.0,4.0,1.0,5.0,5.0,554.1825431864709,5.0,0.0,part_2,stop,450.0,450.0,3.0,,,,,,,,,gray,flipped triangle
0.0,5.0,1.0,1.0,5.0,5.0,524.9412111006677,5.0,0.0,part_2,go,400.0,450.0,1.0,,,,,,,,,cyan,cross
0.0,3.0,3.0,0.0,6.0,6.0,484.263002872467,5.0,0.0,part_2,go,400.0,450.0,1.0,,,,,,,,,orange,triangle
0.0,7.0,3.0,1.0,5.0,0.0,0.0,5.0,0.0,part_2,stop,400.0,450.0,4.0,,,,,,,,,white,circle
0.0,1.0,1.0,0.0,5.0,5.0,608.4558188449591,5.0,0.0,part_2,go,450.0,450.0,1.0,,,,,,,,,green,I
0.0,7.0,3.0,1.0,5.0,0.0,0.0,5.0,0.0,part_2,stop,450.0,450.0,4.0,,,,,,,,,white,circle
0.0,1.0,1.0,0.0,6.0,6.0,599.05382595025,5.0,0.0,part_2,go,500.0,450.0,1.0,,,,,,,,,green,I
0.0,4.0,4.0,0.0,5.0,5.0,630.9302449226379,5.0,0.0,part_2,go,500.0,450.0,1.0,,,,,,,,,blue,diamond
0.0,1.0,1.0,0.0,6.0,6.0,448.5256418120116,5.0,0.0,part_2,go,500.0,450.0,1.0,,,,,,,,,green,I
0.0,8.0,4.0,1.0,6.0,0.0,0.0,5.0,0.0,part_2,stop,500.0,450.0,4.0,,,,,,,,,gray,flipped triangle
0.0,5.0,1.0,1.0,6.0,0.0,0.0,5.0,0.0,part_2,stop,500.0,500.0,4.0,,,,,,,,,cyan,cross
0.0,3.0,3.0,0.0,6.0,6.0,647.5533270277083,5.0,0.0,part_2,go,500.0,550.0,1.0,,,,,,,,,orange,triangle
0.0,1.0,1.0,0.0,6.0,6.0,455.2578621078282,5.0,0.0,part_2,go,500.0,550.0,1.0,,,,,,,,,green,I
0.0,1.0,1.0,0.0,5.0,5.0,636.2563499715179,5.0,0.0,part_2,go,500.0,550.0,1.0,,,,,,,,,green,I
0.0,5.0,1.0,1.0,5.0,5.0,379.3167700059712,5.0,0.0,part_2,stop,500.0,550.0,3.0,,,,,,,,,cyan,cross
0.0,5.0,1.0,1.0,5.0,5.0,571.8010750133544,5.0,0.0,part_2,stop,450.0,550.0,3.0,,,,,,,,,cyan,cross
0.0,6.0,2.0,1.0,6.0,6.0,556.8206179887056,5.0,0.0,part_2,go,400.0,550.0,1.0,,,,,,,,,magenta,square
0.0,6.0,2.0,1.0,5.0,5.0,594.1276231314987,5.0,0.0,part_2,go,400.0,550.0,1.0,,,,,,,,,magenta,square
0.0,3.0,3.0,0.0,5.0,5.0,616.81923805736,5.0,0.0,part_2,go,400.0,550.0,1.0,,,,,,,,,orange,triangle
0.0,1.0,1.0,0.0,6.0,6.0,337.1422220952809,5.0,0.0,part_2,go,400.0,550.0,1.0,,,,,,,,,green,I
0.0,1.0,1.0,0.0,6.0,6.0,499.1558170877397,5.0,0.0,part_2,go,400.0,550.0,1.0,,,,,,,,,green,I
0.0,8.0,4.0,1.0,5.0,5.0,382.4695700313896,5.0,0.0,part_2,stop,400.0,550.0,3.0,,,,,,,,,gray,flipped triangle
0.0,1.0,1.0,0.0,5.0,5.0,391.3435810245573,5.0,0.0,part_2,go,350.0,550.0,1.0,,,,,,,,,green,I
0.0,8.0,4.0,1.0,6.0,6.0,416.9861429836601,5.0,0.0,part_2,stop,350.0,550.0,3.0,,,,,,,,,gray,flipped triangle
0.0,5.0,1.0,1.0,5.0,0.0,0.0,5.0,0.0,part_2,stop,350.0,500.0,4.0,,,,,,,,,cyan,cross
0.0,3.0,3.0,0.0,5.0,5.0,588.7477220967412,5.0,0.0,part_2,go,400.0,500.0,1.0,,,,,,,,,orange,triangle
0.0,5.0,1.0,1.0,6.0,6.0,966.9659750070424,6.0,0.0,part_2,stop,400.0,500.0,3.0,,,,,,,,,cyan,cross
0.0,8.0,4.0,1.0,6.0,0.0,0.0,6.0,0.0,part_2,stop,400.0,450.0,4.0,,,,,,,,,gray,flipped triangle
0.0,3.0,3.0,0.0,6.0,6.0,686.8543759919703,6.0,0.0,part_2,go,400.0,500.0,1.0,,,,,,,,,orange,triangle
0.0,3.0,3.0,0.0,5.0,5.0,581.7753099836409,6.0,0.0,part_2,go,400.0,500.0,1.0,,,,,,,,,orange,triangle
0.0,7.0,3.0,1.0,5.0,5.0,572.7743599563837,6.0,0.0,part_2,stop,400.0,500.0,3.0,,,,,,,,,white,circle
0.0,5.0,1.0,1.0,5.0,5.0,787.111999001354,6.0,0.0,part_2,go,350.0,500.0,1.0,,,,,,,,,cyan,cross
0.0,4.0,4.0,0.0,5.0,5.0,409.5721230842173,6.0,0.0,part_2,go,350.0,500.0,1.0,,,,,,,,,blue,diamond
0.0,1.0,1.0,0.0,5.0,5.0,403.8940710015595,6.0,0.0,part_2,go,350.0,500.0,1.0,,,,,,,,,green,I
0.0,4.0,4.0,0.0,6.0,6.0,378.6439029499888,6.0,0.0,part_2,go,350.0,500.0,1.0,,,,,,,,,blue,diamond
0.0,5.0,1.0,1.0,5.0,5.0,331.527243135497,6.0,0.0,part_2,go,350.0,500.0,1.0,,,,,,,,,cyan,cross
0.0,1.0,1.0,0.0,6.0,6.0,342.8477698471397,6.0,0.0,part_2,go,350.0,500.0,1.0,,,,,,,,,green,I
0.0,8.0,4.0,1.0,5.0,5.0,306.590368039906,6.0,0.0,part_2,stop,350.0,500.0,3.0,,,,,,,,,gray,flipped triangle
0.0,7.0,3.0,1.0,6.0,6.0,359.7694931086153,6.0,0.0,part_2,go,300.0,500.0,1.0,,,,,,,,,white,circle
0.0,6.0,2.0,1.0,6.0,6.0,445.2908579260111,6.0,0.0,part_2,stop,300.0,500.0,3.0,,,,,,,,,magenta,square
0.0,3.0,3.0,0.0,6.0,6.0,584.8239918705076,6.0,0.0,part_2,go,300.0,450.0,1.0,,,,,,,,,orange,triangle
0.0,5.0,1.0,1.0,5.0,5.0,365.6237700488418,6.0,0.0,part_2,stop,300.0,450.0,3.0,,,,,,,,,cyan,cross
0.0,7.0,3.0,1.0,5.0,0.0,0.0,6.0,0.0,part_2,stop,250.0,450.0,4.0,,,,,,,,,white,circle
0.0,1.0,1.0,0.0,6.0,6.0,564.1257660463452,6.0,0.0,part_2,go,300.0,450.0,1.0,,,,,,,,,green,I
0.0,4.0,4.0,0.0,5.0,5.0,478.3545108512044,6.0,0.0,part_2,go,300.0,450.0,1.0,,,,,,,,,blue,diamond
0.0,1.0,1.0,0.0,5.0,5.0,476.3791770674288,6.0,0.0,part_2,go,300.0,450.0,1.0,,,,,,,,,green,I
0.0,7.0,3.0,1.0,6.0,6.0,425.1923679839819,6.0,0.0,part_2,stop,300.0,450.0,3.0,,,,,,,,,white,circle
0.0,7.0,3.0,1.0,6.0,6.0,445.0120311230421,6.0,0.0,part_2,stop,300.0,400.0,3.0,,,,,,,,,white,circle
0.0,6.0,2.0,1.0,5.0,5.0,419.4118031300604,6.0,0.0,part_2,go,300.0,350.0,1.0,,,,,,,,,magenta,square
0.0,7.0,3.0,1.0,6.0,6.0,719.5451078005135,6.0,0.0,part_2,go,300.0,350.0,1.0,,,,,,,,,white,circle
0.0,6.0,2.0,1.0,5.0,5.0,473.8434229511767,6.0,0.0,part_2,go,300.0,350.0,1.0,,,,,,,,,magenta,square
0.0,2.0,2.0,0.0,5.0,5.0,407.5102219358086,6.0,0.0,part_2,go,300.0,350.0,1.0,,,,,,,,,yellow,hexagon
0.0,4.0,4.0,0.0,5.0,5.0,398.0567711405456,6.0,0.0,part_2,go,300.0,350.0,1.0,,,,,,,,,blue,diamond
0.0,4.0,4.0,0.0,5.0,5.0,327.5988390669226,6.0,0.0,part_2,go,300.0,350.0,1.0,,,,,,,,,blue,diamond
0.0,2.0,2.0,0.0,5.0,5.0,373.4987850766629,6.0,0.0,part_2,go,300.0,350.0,1.0,,,,,,,,,yellow,hexagon
0.0,8.0,4.0,1.0,5.0,5.0,366.0070879850536,6.0,0.0,part_2,stop,300.0,350.0,3.0,,,,,,,,,gray,flipped triangle
0.0,6.0,2.0,1.0,5.0,0.0,0.0,6.0,0.0,part_2,stop,250.0,350.0,4.0,,,,,,,,,magenta,square
0.0,3.0,3.0,0.0,6.0,6.0,420.3471541404724,6.0,0.0,part_2,go,300.0,350.0,1.0,,,,,,,,,orange,triangle
0.0,2.0,2.0,0.0,6.0,6.0,573.9278239198029,6.0,0.0,part_2,go,300.0,350.0,1.0,,,,,,,,,yellow,hexagon
0.0,5.0,1.0,1.0,5.0,0.0,0.0,6.0,0.0,part_2,stop,300.0,350.0,4.0,,,,,,,,,cyan,cross
0.0,6.0,2.0,1.0,5.0,5.0,449.4706329423934,6.0,0.0,part_2,go,350.0,350.0,1.0,,,,,,,,,magenta,square
0.0,8.0,4.0,1.0,5.0,5.0,523.8567539490759,6.0,0.0,part_2,go,350.0,350.0,1.0,,,,,,,,,gray,flipped triangle
0.0,3.0,3.0,0.0,6.0,6.0,848.6034590750933,7.0,0.0,part_2,go,350.0,350.0,1.0,,,,,,,,,orange,triangle
0.0,2.0,2.0,0.0,6.0,6.0,679.2203260120004,7.0,0.0,part_2,go,350.0,350.0,1.0,,,,,,,,,yellow,hexagon
0.0,6.0,2.0,1.0,6.0,0.0,0.0,7.0,0.0,part_2,stop,350.0,350.0,4.0,,,,,,,,,magenta,square
0.0,1.0,1.0,0.0,5.0,5.0,791.2204640451819,7.0,0.0,part_2,go,350.0,400.0,1.0,,,,,,,,,green,I
0.0,8.0,4.0,1.0,6.0,0.0,0.0,7.0,0.0,part_2,stop,350.0,400.0,4.0,,,,,,,,,gray,flipped triangle
0.0,5.0,1.0,1.0,6.0,6.0,464.4749229773879,7.0,0.0,part_2,go,350.0,450.0,1.0,,,,,,,,,cyan,cross
0.0,5.0,1.0,1.0,5.0,5.0,431.5422801300883,7.0,0.0,part_2,stop,350.0,450.0,3.0,,,,,,,,,cyan,cross
0.0,3.0,3.0,0.0,6.0,6.0,590.3090229257941,7.0,0.0,part_2,go,300.0,450.0,1.0,,,,,,,,,orange,triangle
0.0,5.0,1.0,1.0,5.0,0.0,0.0,7.0,0.0,part_2,stop,300.0,450.0,4.0,,,,,,,,,cyan,cross
0.0,1.0,1.0,0.0,5.0,5.0,629.0745381265879,7.0,0.0,part_2,go,350.0,450.0,1.0,,,,,,,,,green,I
0.0,2.0,2.0,0.0,5.0,5.0,477.5853890459984,7.0,0.0,part_2,go,350.0,450.0,1.0,,,,,,,,,yellow,hexagon
0.0,8.0,4.0,1.0,5.0,0.0,0.0,7.0,0.0,part_2,stop,350.0,450.0,4.0,,,,,,,,,gray,flipped triangle
0.0,1.0,1.0,0.0,5.0,5.0,577.6984251569957,7.0,0.0,part_2,go,400.0,450.0,1.0,,,,,,,,,green,I
0.0,8.0,4.0,1.0,6.0,6.0,345.7442331127822,7.0,0.0,part_2,stop,400.0,450.0,3.0,,,,,,,,,gray,flipped triangle
0.0,8.0,4.0,1.0,6.0,0.0,0.0,7.0,0.0,part_2,stop,400.0,400.0,4.0,,,,,,,,,gray,flipped triangle
0.0,2.0,2.0,0.0,6.0,6.0,583.8081648107618,7.0,0.0,part_2,go,400.0,450.0,1.0,,,,,,,,,yellow,hexagon
0.0,4.0,4.0,0.0,6.0,6.0,466.3489998783916,7.0,0.0,part_2,go,400.0,450.0,1.0,,,,,,,,,blue,diamond
0.0,1.0,1.0,0.0,6.0,6.0,471.2235210463404,7.0,0.0,part_2,go,400.0,450.0,1.0,,,,,,,,,green,I
0.0,6.0,2.0,1.0,6.0,6.0,447.8624539915472,7.0,0.0,part_2,go,400.0,450.0,1.0,,,,,,,,,magenta,square
0.0,6.0,2.0,1.0,5.0,5.0,426.2072490528226,7.0,0.0,part_2,stop,400.0,450.0,3.0,,,,,,,,,magenta,square
0.0,1.0,1.0,0.0,5.0,5.0,548.8583547994494,7.0,0.0,part_2,go,350.0,450.0,1.0,,,,,,,,,green,I
0.0,6.0,2.0,1.0,6.0,6.0,527.626585913822,7.0,0.0,part_2,go,350.0,450.0,1.0,,,,,,,,,magenta,square
0.0,8.0,4.0,1.0,6.0,0.0,0.0,7.0,0.0,part_2,stop,350.0,450.0,4.0,,,,,,,,,gray,flipped triangle
0.0,4.0,4.0,0.0,6.0,6.0,507.43762194179,7.0,0.0,part_2,go,350.0,500.0,1.0,,,,,,,,,blue,diamond
0.0,4.0,4.0,0.0,5.0,5.0,468.8489711843431,7.0,0.0,part_2,go,350.0,500.0,1.0,,,,,,,,,blue,diamond
0.0,7.0,3.0,1.0,6.0,6.0,493.7451940495521,7.0,0.0,part_2,stop,350.0,500.0,3.0,,,,,,,,,white,circle
0.0,8.0,4.0,1.0,5.0,5.0,508.1670409999788,7.0,0.0,part_2,stop,350.0,450.0,3.0,,,,,,,,,gray,flipped triangle
0.0,2.0,2.0,0.0,6.0,6.0,667.6061181351542,7.0,0.0,part_2,go,300.0,450.0,1.0,,,,,,,,,yellow,hexagon
0.0,5.0,1.0,1.0,6.0,6.0,443.868146976456,7.0,0.0,part_2,stop,300.0,450.0,3.0,,,,,,,,,cyan,cross
0.0,1.0,1.0,0.0,5.0,5.0,561.067929957062,7.0,0.0,part_2,go,300.0,400.0,1.0,,,,,,,,,green,I
0.0,3.0,3.0,0.0,6.0,6.0,607.6201691757888,7.0,0.0,part_2,go,300.0,400.0,1.0,,,,,,,,,orange,triangle
0.0,5.0,1.0,1.0,5.0,0.0,0.0,7.0,0.0,part_2,stop,300.0,400.0,4.0,,,,,,,,,cyan,cross
0.0,4.0,4.0,0.0,5.0,5.0,646.6325661167502,7.0,0.0,part_2,go,350.0,400.0,1.0,,,,,,,,,blue,diamond
0.0,7.0,3.0,1.0,6.0,6.0,597.8586520068347,7.0,0.0,part_2,go,350.0,400.0,1.0,,,,,,,,,white,circle
0.0,8.0,4.0,1.0,6.0,0.0,0.0,7.0,0.0,part_2,stop,350.0,400.0,4.0,,,,,,,,,gray,flipped triangle
0.0,6.0,2.0,1.0,6.0,0.0,0.0,7.0,0.0,part_2,stop,350.0,450.0,4.0,,,,,,,,,magenta,square
0.0,8.0,4.0,1.0,5.0,0.0,0.0,8.0,0.0,part_2,stop,350.0,500.0,4.0,,,,,,,,,gray,flipped triangle
0.0,2.0,2.0,0.0,5.0,5.0,542.7304690238088,8.0,0.0,part_2,go,400.0,500.0,1.0,,,,,,,,,yellow,hexagon
0.0,6.0,2.0,1.0,5.0,0.0,0.0,8.0,0.0,part_2,stop,400.0,500.0,4.0,,,,,,,,,magenta,square
0.0,3.0,3.0,0.0,5.0,5.0,750.4485070239753,8.0,0.0,part_2,go,450.0,500.0,1.0,,,,,,,,,orange,triangle
0.0,5.0,1.0,1.0,6.0,6.0,328.9705640636384,8.0,0.0,part_2,stop,450.0,500.0,3.0,,,,,,,,,cyan,cross
0.0,2.0,2.0,0.0,6.0,6.0,367.1058330219239,8.0,0.0,part_2,go,450.0,450.0,1.0,,,,,,,,,yellow,hexagon
0.0,3.0,3.0,0.0,5.0,5.0,532.913037808612,8.0,0.0,part_2,go,450.0,450.0,1.0,,,,,,,,,orange,triangle
0.0,5.0,1.0,1.0,6.0,6.0,357.4642520397901,8.0,0.0,part_2,go,450.0,450.0,1.0,,,,,,,,,cyan,cross
0.0,4.0,4.0,0.0,5.0,5.0,502.686417195946,8.0,0.0,part_2,go,450.0,450.0,1.0,,,,,,,,,blue,diamond
0.0,4.0,4.0,0.0,5.0,5.0,323.8096791319549,8.0,0.0,part_2,go,450.0,450.0,1.0,,,,,,,,,blue,diamond
0.0,3.0,3.0,0.0,5.0,5.0,433.5739370435476,8.0,0.0,part_2,go,450.0,450.0,1.0,,,,,,,,,orange,triangle
0.0,1.0,1.0,0.0,6.0,6.0,460.1036878302693,8.0,0.0,part_2,go,450.0,450.0,1.0,,,,,,,,,green,I
0.0,7.0,3.0,1.0,6.0,6.0,496.9543851912021,8.0,0.0,part_2,stop,450.0,450.0,3.0,,,,,,,,,white,circle
0.0,2.0,2.0,0.0,6.0,6.0,395.7596968393773,8.0,0.0,part_2,go,450.0,400.0,1.0,,,,,,,,,yellow,hexagon
0.0,6.0,2.0,1.0,6.0,6.0,427.1938011515885,8.0,0.0,part_2,stop,450.0,400.0,3.0,,,,,,,,,magenta,square
0.0,1.0,1.0,0.0,5.0,5.0,350.5757069215178,8.0,0.0,part_2,go,450.0,350.0,1.0,,,,,,,,,green,I
0.0,7.0,3.0,1.0,6.0,6.0,432.5272901915014,8.0,0.0,part_2,stop,450.0,350.0,3.0,,,,,,,,,white,circle
0.0,7.0,3.0,1.0,6.0,0.0,0.0,8.0,0.0,part_2,stop,450.0,300.0,4.0,,,,,,,,,white,circle
0.0,4.0,4.0,0.0,6.0,6.0,662.082000169903,8.0,0.0,part_2,go,450.0,350.0,1.0,,,,,,,,,blue,diamond
0.0,5.0,1.0,1.0,6.0,6.0,468.70580711402,8.0,0.0,part_2,stop,450.0,350.0,3.0,,,,,,,,,cyan,cross
0.0,4.0,4.0,0.0,6.0,6.0,687.0046050753444,8.0,0.0,part_2,go,450.0,300.0,1.0,,,,,,,,,blue,diamond
0.0,7.0,3.0,1.0,6.0,0.0,0.0,8.0,0.0,part_2,stop,450.0,300.0,4.0,,,,,,,,,white,circle
0.0,5.0,1.0,1.0,5.0,0.0,0.0,8.0,0.0,part_2,stop,450.0,350.0,4.0,,,,,,,,,cyan,cross
0.0,8.0,4.0,1.0,5.0,5.0,666.3572299294174,8.0,0.0,part_2,stop,500.0,350.0,3.0,,,,,,,,,gray,flipped triangle
0.0,1.0,1.0,0.0,6.0,6.0,625.7140347734094,8.0,0.0,part_2,go,450.0,350.0,1.0,,,,,,,,,green,I
0.0,1.0,1.0,0.0,6.0,6.0,829.0992740076035,8.0,0.0,part_2,go,450.0,350.0,1.0,,,,,,,,,green,I
0.0,3.0,3.0,0.0,6.0,6.0,507.00713391415775,8.0,0.0,part_2,go,450.0,350.0,1.0,,,,,,,,,orange,triangle
0.0,2.0,2.0,0.0,6.0,6.0,371.381192933768,8.0,0.0,part_2,go,450.0,350.0,1.0,,,,,,,,,yellow,hexagon
0.0,2.0,2.0,0.0,6.0,6.0,418.0755610577762,8.0,0.0,part_2,go,450.0,350.0,1.0,,,,,,,,,yellow,hexagon
0.0,8.0,4.0,1.0,6.0,6.0,578.7014830857515,8.0,0.0,part_2,go,450.0,350.0,1.0,,,,,,,,,gray,flipped triangle
0.0,8.0,4.0,1.0,5.0,5.0,615.2771729975939,8.0,0.0,part_2,go,450.0,350.0,1.0,,,,,,,,,gray,flipped triangle
0.0,3.0,3.0,0.0,6.0,6.0,392.4173268023878,8.0,0.0,part_2,go,450.0,350.0,1.0,,,,,,,,,orange,triangle
0.0,1.0,1.0,0.0,6.0,6.0,375.3614488523453,8.0,0.0,part_2,go,450.0,350.0,1.0,,,,,,,,,green,I
0.0,5.0,1.0,1.0,6.0,6.0,445.6805600784719,8.0,0.0,part_2,stop,450.0,350.0,3.0,,,,,,,,,cyan,cross
0.0,5.0,1.0,1.0,6.0,0.0,0.0,8.0,0.0,part_2,stop,450.0,300.0,4.0,,,,,,,,,cyan,cross
0.0,4.0,4.0,0.0,5.0,5.0,479.7863319981843,8.0,0.0,part_2,go,450.0,350.0,1.0,,,,,,,,,blue,diamond
0.0,1.0,1.0,0.0,7.0,2.0,3297.6391890551895,1.0,1.0,part_3,go,0.0,0.0,0.0,264.0,6.0,132.0,264.0,44.0,176.0,220.0,88.0,green,I
0.0,2.0,2.0,0.0,7.0,2.0,2723.6381978727877,1.0,1.0,part_3,go,0.0,0.0,0.0,136.0,4.0,170.0,136.0,34.0,102.0,204.0,68.0,yellow,hexagon
0.0,1.0,1.0,0.0,7.0,5.0,2311.9610210414976,1.0,1.0,part_3,go,0.0,0.0,0.0,195.0,5.0,117.0,234.0,156.0,78.0,195.0,39.0,green,I
0.0,8.0,4.0,1.0,7.0,2.0,2200.577137991786,1.0,1.0,part_3,go,0.0,0.0,0.0,132.0,3.0,220.0,132.0,264.0,176.0,88.0,44.0,gray,flipped triangle
0.0,1.0,1.0,0.0,7.0,2.0,2303.9994270075113,1.0,1.0,part_3,go,0.0,0.0,0.0,204.0,6.0,170.0,204.0,136.0,34.0,68.0,102.0,green,I
0.0,1.0,1.0,0.0,7.0,2.0,1880.3374748677015,1.0,1.0,part_3,go,0.0,0.0,0.0,270.0,5.0,324.0,270.0,216.0,108.0,54.0,162.0,green,I
0.0,2.0,2.0,0.0,7.0,5.0,2514.690527925268,1.0,1.0,part_3,go,0.0,0.0,0.0,170.0,5.0,34.0,204.0,102.0,68.0,170.0,136.0,yellow,hexagon
0.0,5.0,1.0,1.0,7.0,5.0,2378.825359046459,1.0,1.0,part_3,go,0.0,0.0,0.0,270.0,5.0,54.0,216.0,108.0,324.0,270.0,162.0,cyan,cross
0.0,4.0,4.0,0.0,7.0,6.0,2448.6362389288843,1.0,1.0,part_3,go,0.0,0.0,0.0,170.0,5.0,68.0,34.0,136.0,102.0,204.0,170.0,blue,diamond
0.0,6.0,2.0,1.0,7.0,1.0,2169.031288009137,1.0,1.0,part_3,go,0.0,0.0,0.0,264.0,6.0,264.0,220.0,176.0,44.0,88.0,132.0,magenta,square
0.0,4.0,4.0,0.0,7.0,3.0,2227.129938080907,1.0,1.0,part_3,go,0.0,0.0,0.0,270.0,5.0,54.0,162.0,270.0,216.0,324.0,108.0,blue,diamond
0.0,8.0,4.0,1.0,7.0,4.0,1680.891155032441,1.0,1.0,part_3,go,0.0,0.0,0.0,294.0,6.0,49.0,98.0,147.0,294.0,245.0,196.0,gray,flipped triangle
0.0,3.0,3.0,0.0,7.0,2.0,1644.828253192827,1.0,1.0,part_3,go,0.0,0.0,0.0,220.0,5.0,264.0,220.0,176.0,44.0,88.0,132.0,orange,triangle
0.0,7.0,3.0,1.0,7.0,3.0,2517.169138882309,1.0,1.0,part_3,go,0.0,0.0,0.0,324.0,6.0,216.0,108.0,324.0,270.0,162.0,54.0,white,circle
0.0,7.0,3.0,1.0,7.0,3.0,1414.909433806315,1.0,1.0,part_3,go,0.0,0.0,0.0,294.0,6.0,49.0,98.0,294.0,196.0,147.0,245.0,white,circle
0.0,6.0,2.0,1.0,7.0,4.0,2016.4514870848507,1.0,1.0,part_3,go,0.0,0.0,0.0,324.0,6.0,162.0,108.0,270.0,324.0,216.0,54.0,magenta,square
0.0,8.0,4.0,1.0,7.0,5.0,3033.4662089589983,1.0,1.0,part_3,go,0.0,0.0,0.0,270.0,5.0,162.0,324.0,54.0,216.0,270.0,108.0,gray,flipped triangle
0.0,8.0,4.0,1.0,7.0,4.0,3032.596393954009,1.0,1.0,part_3,go,0.0,0.0,0.0,132.0,3.0,264.0,220.0,88.0,132.0,176.0,44.0,gray,flipped triangle
0.0,4.0,4.0,0.0,7.0,5.0,2381.721331970766,1.0,1.0,part_3,go,0.0,0.0,0.0,176.0,4.0,132.0,264.0,44.0,88.0,176.0,220.0,blue,diamond
0.0,6.0,2.0,1.0,7.0,3.0,2814.5468269940466,1.0,1.0,part_3,go,0.0,0.0,0.0,147.0,3.0,49.0,196.0,147.0,245.0,294.0,98.0,magenta,square
0.0,7.0,3.0,1.0,7.0,5.0,1907.4453071225437,2.0,1.0,part_3,go,0.0,0.0,0.0,195.0,5.0,117.0,156.0,78.0,39.0,195.0,234.0,white,circle
0.0,4.0,4.0,0.0,7.0,3.0,3550.2123672049493,2.0,1.0,part_3,go,0.0,0.0,0.0,270.0,5.0,108.0,162.0,270.0,216.0,324.0,54.0,blue,diamond
0.0,1.0,1.0,0.0,7.0,1.0,2287.4040289316326,2.0,1.0,part_3,go,0.0,0.0,0.0,147.0,3.0,147.0,196.0,294.0,49.0,245.0,98.0,green,I
0.0,5.0,1.0,1.0,7.0,5.0,2662.2562631964684,2.0,1.0,part_3,go,0.0,0.0,0.0,204.0,6.0,102.0,34.0,170.0,136.0,204.0,68.0,cyan,cross
0.0,8.0,4.0,1.0,7.0,3.0,2239.4069279544055,2.0,1.0,part_3,go,0.0,0.0,0.0,156.0,4.0,195.0,234.0,156.0,78.0,117.0,39.0,gray,flipped triangle
0.0,7.0,3.0,1.0,7.0,2.0,2657.487438991666,2.0,1.0,part_3,go,0.0,0.0,0.0,196.0,4.0,245.0,196.0,294.0,98.0,147.0,49.0,white,circle
0.0,2.0,2.0,0.0,7.0,3.0,2186.4028950221837,2.0,1.0,part_3,go,0.0,0.0,0.0,162.0,3.0,54.0,324.0,162.0,270.0,216.0,108.0,yellow,hexagon
0.0,7.0,3.0,1.0,7.0,6.0,1547.1817729994657,2.0,1.0,part_3,go,0.0,0.0,0.0,170.0,5.0,68.0,102.0,136.0,204.0,34.0,170.0,white,circle
0.0,2.0,2.0,0.0,7.0,3.0,3166.8515240307897,2.0,1.0,part_3,go,0.0,0.0,0.0,220.0,5.0,88.0,176.0,220.0,132.0,44.0,264.0,yellow,hexagon
0.0,6.0,2.0,1.0,7.0,1.0,1448.6212709452957,2.0,1.0,part_3,go,0.0,0.0,0.0,324.0,6.0,324.0,216.0,270.0,108.0,54.0,162.0,magenta,square
0.0,6.0,2.0,1.0,7.0,6.0,1857.402118854225,2.0,1.0,part_3,go,0.0,0.0,0.0,136.0,4.0,170.0,204.0,34.0,68.0,102.0,136.0,magenta,square
0.0,1.0,1.0,0.0,7.0,4.0,1842.720152111724,2.0,1.0,part_3,go,0.0,0.0,0.0,195.0,5.0,117.0,156.0,78.0,195.0,234.0,39.0,green,I
0.0,8.0,4.0,1.0,7.0,2.0,1772.4594380706549,2.0,1.0,part_3,go,0.0,0.0,0.0,34.0,1.0,136.0,34.0,170.0,102.0,204.0,68.0,gray,flipped triangle
0.0,8.0,4.0,1.0,7.0,5.0,1276.1957349721342,2.0,1.0,part_3,go,0.0,0.0,0.0,196.0,4.0,245.0,49.0,98.0,147.0,196.0,294.0,gray,flipped triangle
0.0,3.0,3.0,0.0,7.0,3.0,1869.868068024516,2.0,1.0,part_3,go,0.0,0.0,0.0,98.0,2.0,294.0,49.0,98.0,245.0,147.0,196.0,orange,triangle
0.0,6.0,2.0,1.0,7.0,3.0,1533.946270123124,2.0,1.0,part_3,go,0.0,0.0,0.0,245.0,5.0,49.0,294.0,245.0,98.0,196.0,147.0,magenta,square
0.0,1.0,1.0,0.0,7.0,5.0,1977.8090929612515,2.0,1.0,part_3,go,0.0,0.0,0.0,176.0,4.0,264.0,44.0,88.0,132.0,176.0,220.0,green,I
0.0,8.0,4.0,1.0,7.0,1.0,1684.03434404172,2.0,1.0,part_3,go,0.0,0.0,0.0,234.0,6.0,234.0,78.0,117.0,156.0,195.0,39.0,gray,flipped triangle
0.0,2.0,2.0,0.0,7.0,5.0,2428.889464121312,2.0,1.0,part_3,go,0.0,0.0,0.0,132.0,3.0,44.0,264.0,176.0,220.0,132.0,88.0,yellow,hexagon
0.0,3.0,3.0,0.0,7.0,2.0,1950.9653931017965,2.0,1.0,part_3,go,0.0,0.0,0.0,234.0,6.0,39.0,234.0,78.0,117.0,195.0,156.0,orange,triangle
0.0,5.0,1.0,1.0,7.0,3.0,2072.6391840726137,3.0,1.0,part_3,go,0.0,0.0,0.0,136.0,4.0,68.0,170.0,136.0,34.0,204.0,102.0,cyan,cross
0.0,5.0,1.0,1.0,7.0,2.0,1433.1334161106497,3.0,1.0,part_3,go,0.0,0.0,0.0,220.0,5.0,88.0,220.0,176.0,44.0,132.0,264.0,cyan,cross
0.0,6.0,2.0,1.0,7.0,5.0,1869.4118841085583,3.0,1.0,part_3,go,0.0,0.0,0.0,220.0,5.0,44.0,264.0,176.0,88.0,220.0,132.0,magenta,square
0.0,2.0,2.0,0.0,7.0,2.0,1949.615617049858,3.0,1.0,part_3,go,0.0,0.0,0.0,245.0,5.0,294.0,245.0,147.0,98.0,196.0,49.0,yellow,hexagon
0.0,3.0,3.0,0.0,7.0,4.0,2492.1447990927845,3.0,1.0,part_3,go,0.0,0.0,0.0,108.0,2.0,270.0,162.0,216.0,108.0,54.0,324.0,orange,triangle
0.0,5.0,1.0,1.0,7.0,1.0,1749.7875611297786,3.0,1.0,part_3,go,0.0,0.0,0.0,132.0,3.0,132.0,44.0,264.0,220.0,176.0,88.0,cyan,cross
0.0,4.0,4.0,0.0,7.0,3.0,1712.9942730534822,3.0,1.0,part_3,go,0.0,0.0,0.0,245.0,5.0,98.0,196.0,245.0,294.0,49.0,147.0,blue,diamond
0.0,1.0,1.0,0.0,7.0,6.0,2049.2706780787557,3.0,1.0,part_3,go,0.0,0.0,0.0,270.0,5.0,108.0,54.0,162.0,216.0,324.0,270.0,green,I
0.0,4.0,4.0,0.0,7.0,1.0,1556.8201020359993,3.0,1.0,part_3,go,0.0,0.0,0.0,147.0,3.0,147.0,294.0,49.0,98.0,245.0,196.0,blue,diamond
0.0,3.0,3.0,0.0,7.0,2.0,1308.631612919271,3.0,1.0,part_3,go,0.0,0.0,0.0,162.0,3.0,216.0,162.0,324.0,270.0,54.0,108.0,orange,triangle
0.0,2.0,2.0,0.0,7.0,1.0,1399.0501600783318,3.0,1.0,part_3,go,0.0,0.0,0.0,234.0,6.0,234.0,195.0,78.0,39.0,117.0,156.0,yellow,hexagon
0.0,2.0,2.0,0.0,7.0,5.0,1672.6173700299114,3.0,1.0,part_3,go,0.0,0.0,0.0,147.0,3.0,196.0,49.0,294.0,245.0,147.0,98.0,yellow,hexagon
0.0,4.0,4.0,0.0,7.0,6.0,1647.1109150443226,3.0,1.0,part_3,go,0.0,0.0,0.0,156.0,4.0,195.0,234.0,39.0,117.0,78.0,156.0,blue,diamond
0.0,2.0,2.0,0.0,7.0,1.0,1433.5020140279084,3.0,1.0,part_3,go,0.0,0.0,0.0,270.0,5.0,270.0,324.0,54.0,108.0,216.0,162.0,yellow,hexagon
0.0,4.0,4.0,0.0,7.0,5.0,1603.9426818024367,3.0,1.0,part_3,go,0.0,0.0,0.0,102.0,3.0,34.0,136.0,204.0,170.0,102.0,68.0,blue,diamond
0.0,4.0,4.0,0.0,7.0,1.0,1605.9446739964187,3.0,1.0,part_3,go,0.0,0.0,0.0,195.0,5.0,195.0,234.0,117.0,78.0,156.0,39.0,blue,diamond
0.0,3.0,3.0,0.0,7.0,6.0,1726.6528632026166,3.0,1.0,part_3,go,0.0,0.0,0.0,88.0,2.0,132.0,176.0,264.0,220.0,44.0,88.0,orange,triangle
0.0,3.0,3.0,0.0,7.0,3.0,2509.897730080411,3.0,1.0,part_3,go,0.0,0.0,0.0,39.0,1.0,78.0,195.0,39.0,117.0,234.0,156.0,orange,triangle
0.0,5.0,1.0,1.0,7.0,1.0,1603.0277498066423,3.0,1.0,part_3,go,0.0,0.0,0.0,234.0,6.0,234.0,78.0,195.0,117.0,156.0,39.0,cyan,cross
0.0,6.0,2.0,1.0,7.0,1.0,826.4373950660229,3.0,1.0,part_3,go,0.0,0.0,0.0,39.0,1.0,39.0,195.0,78.0,156.0,117.0,234.0,magenta,square
0.0,1.0,1.0,0.0,7.0,5.0,1896.3197621051224,4.0,1.0,part_3,go,0.0,0.0,0.0,136.0,4.0,68.0,34.0,204.0,170.0,136.0,102.0,green,I
0.0,7.0,3.0,1.0,7.0,1.0,1768.4465018101037,4.0,1.0,part_3,go,0.0,0.0,0.0,204.0,6.0,204.0,34.0,136.0,170.0,102.0,68.0,white,circle
0.0,3.0,3.0,0.0,7.0,3.0,1849.3389189243317,4.0,1.0,part_3,go,0.0,0.0,0.0,34.0,1.0,102.0,68.0,34.0,136.0,204.0,170.0,orange,triangle
0.0,3.0,3.0,0.0,7.0,6.0,1226.4477780554444,4.0,1.0,part_3,go,0.0,0.0,0.0,196.0,4.0,98.0,245.0,294.0,49.0,147.0,196.0,orange,triangle
0.0,3.0,3.0,0.0,7.0,2.0,1117.9458941332996,4.0,1.0,part_3,go,0.0,0.0,0.0,68.0,2.0,102.0,68.0,136.0,204.0,34.0,170.0,orange,triangle
0.0,5.0,1.0,1.0,7.0,5.0,774.0443439688534,4.0,1.0,part_3,go,0.0,0.0,0.0,294.0,6.0,49.0,196.0,147.0,98.0,294.0,245.0,cyan,cross
0.0,1.0,1.0,0.0,7.0,2.0,1335.0631960202008,4.0,1.0,part_3,go,0.0,0.0,0.0,147.0,3.0,98.0,147.0,294.0,245.0,49.0,196.0,green,I
0.0,8.0,4.0,1.0,7.0,2.0,1458.5917319636792,4.0,1.0,part_3,go,0.0,0.0,0.0,54.0,1.0,162.0,54.0,324.0,216.0,108.0,270.0,gray,flipped triangle
0.0,7.0,3.0,1.0,7.0,3.0,1748.0948469601572,4.0,1.0,part_3,go,0.0,0.0,0.0,156.0,4.0,39.0,117.0,156.0,195.0,234.0,78.0,white,circle
0.0,7.0,3.0,1.0,7.0,5.0,1934.374239994213,4.0,1.0,part_3,go,0.0,0.0,0.0,264.0,6.0,176.0,44.0,88.0,132.0,264.0,220.0,white,circle
0.0,6.0,2.0,1.0,7.0,3.0,1517.2716830857098,4.0,1.0,part_3,go,0.0,0.0,0.0,117.0,3.0,195.0,39.0,117.0,234.0,78.0,156.0,magenta,square
0.0,5.0,1.0,1.0,7.0,4.0,1245.740637881681,4.0,1.0,part_3,go,0.0,0.0,0.0,156.0,4.0,234.0,78.0,39.0,156.0,195.0,117.0,cyan,cross
0.0,4.0,4.0,0.0,7.0,5.0,1911.657985066995,4.0,1.0,part_3,go,0.0,0.0,0.0,176.0,4.0,44.0,88.0,264.0,132.0,176.0,220.0,blue,diamond
0.0,5.0,1.0,1.0,7.0,3.0,1938.739924924448,4.0,1.0,part_3,go,0.0,0.0,0.0,245.0,5.0,49.0,147.0,245.0,196.0,294.0,98.0,cyan,cross
0.0,2.0,2.0,0.0,7.0,5.0,947.7870150003582,4.0,1.0,part_3,go,0.0,0.0,0.0,234.0,6.0,39.0,195.0,78.0,156.0,234.0,117.0,yellow,hexagon
0.0,5.0,1.0,1.0,7.0,3.0,1996.903043007478,4.0,1.0,part_3,go,0.0,0.0,0.0,324.0,6.0,216.0,162.0,324.0,108.0,270.0,54.0,cyan,cross
0.0,7.0,3.0,1.0,7.0,5.0,2132.368673104793,4.0,1.0,part_3,go,0.0,0.0,0.0,176.0,4.0,132.0,220.0,44.0,264.0,176.0,88.0,white,circle
0.0,8.0,4.0,1.0,7.0,2.0,1345.9288550075144,4.0,1.0,part_3,go,0.0,0.0,0.0,34.0,1.0,136.0,34.0,204.0,170.0,102.0,68.0,gray,flipped triangle
0.0,6.0,2.0,1.0,7.0,6.0,1097.7708329446614,4.0,1.0,part_3,go,0.0,0.0,0.0,68.0,2.0,136.0,170.0,204.0,34.0,102.0,68.0,magenta,square
0.0,7.0,3.0,1.0,7.0,4.0,1498.8212818279862,4.0,1.0,part_3,go,0.0,0.0,0.0,54.0,1.0,108.0,270.0,324.0,54.0,216.0,162.0,white,circle
