raw_reward_magnitude,stim_reward,stepwise_reward_magnitude,paired_with_stopping,stim_location,response,reaction_time,block,num_trial_presentations,which_phase,stop_signal_trial_type,left_SSD,right_SSD,accuracy,chosen_bidding_amount,chosen_bidding_level,possible_bid_1,possible_bid_2,possible_bid_3,possible_bid_4,possible_bid_5,possible_bid_6,color_text,shape_text
201.0,7.0,3.0,1.0,2.0,2.0,292.649142999835,1.0,1.0,phase_1,,,,,,,,,,,,,green,diamond
0.0,8.0,0.0,1.0,3.0,3.0,328.2215730000644,1.0,1.0,phase_1,,,,,,,,,,,,,cyan,square
391.0,4.0,4.0,0.0,2.0,2.0,318.0519140000797,1.0,1.0,phase_1,,,,,,,,,,,,,blue,cross
415.0,4.0,4.0,0.0,4.0,4.0,329.910922000181,1.0,1.0,phase_1,,,,,,,,,,,,,blue,cross
79.0,6.0,2.0,1.0,4.0,4.0,361.3471000003301,1.0,2.0,phase_1,,,,,,,,,,,,,gray,triangle
48.0,1.0,1.0,0.0,2.0,2.0,311.9194040000366,1.0,1.0,phase_1,,,,,,,,,,,,,white,I
391.0,8.0,4.0,1.0,1.0,1.0,308.8169259999631,1.0,1.0,phase_1,,,,,,,,,,,,,cyan,square
106.0,2.0,2.0,0.0,1.0,1.0,376.796357999865,1.0,1.0,phase_1,,,,,,,,,,,,,magenta,flipped triangle
383.0,4.0,4.0,0.0,1.0,1.0,365.1424760000736,1.0,1.0,phase_1,,,,,,,,,,,,,blue,cross
383.0,4.0,4.0,0.0,4.0,4.0,467.0760939998217,1.0,1.0,phase_1,,,,,,,,,,,,,blue,cross
0.0,6.0,0.0,1.0,1.0,1.0,405.4086099999949,1.0,1.0,phase_1,,,,,,,,,,,,,gray,triangle
416.0,8.0,4.0,1.0,4.0,4.0,372.696218999863,1.0,1.0,phase_1,,,,,,,,,,,,,cyan,square
175.0,7.0,3.0,1.0,3.0,3.0,279.7630170002776,1.0,1.0,phase_1,,,,,,,,,,,,,green,diamond
102.0,6.0,2.0,1.0,2.0,2.0,291.7599540000992,1.0,1.0,phase_1,,,,,,,,,,,,,gray,triangle
40.0,1.0,1.0,0.0,2.0,2.0,337.2668970000632,1.0,1.0,phase_1,,,,,,,,,,,,,white,I
405.0,8.0,4.0,1.0,4.0,4.0,277.3925930000587,1.0,1.0,phase_1,,,,,,,,,,,,,cyan,square
180.0,3.0,3.0,0.0,3.0,3.0,299.2042500000025,1.0,1.0,phase_1,,,,,,,,,,,,,yellow,circle
0.0,3.0,0.0,0.0,1.0,1.0,296.1142429999199,1.0,1.0,phase_1,,,,,,,,,,,,,yellow,circle
0.0,7.0,0.0,1.0,3.0,3.0,262.9666170000746,1.0,1.0,phase_1,,,,,,,,,,,,,green,diamond
49.0,5.0,1.0,1.0,1.0,1.0,335.3827020000608,1.0,1.0,phase_1,,,,,,,,,,,,,orange,hexagon
42.0,5.0,1.0,1.0,3.0,3.0,262.1653840001272,1.0,1.0,phase_1,,,,,,,,,,,,,orange,hexagon
38.0,1.0,1.0,0.0,3.0,3.0,332.2584369998367,1.0,1.0,phase_1,,,,,,,,,,,,,white,I
39.0,1.0,1.0,0.0,2.0,2.0,329.3370880001021,1.0,1.0,phase_1,,,,,,,,,,,,,white,I
114.0,6.0,2.0,1.0,2.0,2.0,298.5307720000492,1.0,1.0,phase_1,,,,,,,,,,,,,gray,triangle
204.0,7.0,3.0,1.0,2.0,2.0,319.7735389999252,1.0,1.0,phase_1,,,,,,,,,,,,,green,diamond
405.0,4.0,4.0,0.0,1.0,1.0,365.8205950000592,1.0,1.0,phase_1,,,,,,,,,,,,,blue,cross
0.0,1.0,0.0,0.0,4.0,4.0,364.2861910002466,1.0,1.0,phase_1,,,,,,,,,,,,,white,I
0.0,7.0,0.0,1.0,1.0,1.0,352.8853570001047,1.0,1.0,phase_1,,,,,,,,,,,,,green,diamond
70.0,1.0,1.0,0.0,2.0,2.0,227.7295300000332,1.0,1.0,phase_1,,,,,,,,,,,,,white,I
0.0,5.0,0.0,1.0,1.0,1.0,399.0751840001394,1.0,1.0,phase_1,,,,,,,,,,,,,orange,hexagon
188.0,7.0,3.0,1.0,2.0,2.0,244.3091709997134,1.0,1.0,phase_1,,,,,,,,,,,,,green,diamond
223.0,7.0,3.0,1.0,2.0,2.0,328.6527029999888,1.0,1.0,phase_1,,,,,,,,,,,,,green,diamond
0.0,1.0,0.0,0.0,4.0,4.0,316.435771000215,1.0,1.0,phase_1,,,,,,,,,,,,,white,I
0.0,4.0,0.0,0.0,2.0,2.0,275.4609700000401,1.0,1.0,phase_1,,,,,,,,,,,,,blue,cross
98.0,2.0,2.0,0.0,3.0,3.0,265.1640779999979,1.0,1.0,phase_1,,,,,,,,,,,,,magenta,flipped triangle
200.0,3.0,3.0,0.0,4.0,4.0,398.0766039999253,1.0,1.0,phase_1,,,,,,,,,,,,,yellow,circle
100.0,2.0,2.0,0.0,1.0,1.0,248.2265189996724,1.0,1.0,phase_1,,,,,,,,,,,,,magenta,flipped triangle
0.0,6.0,0.0,1.0,1.0,1.0,383.6283860000549,1.0,1.0,phase_1,,,,,,,,,,,,,gray,triangle
66.0,1.0,1.0,0.0,1.0,1.0,355.6552320001174,1.0,1.0,phase_1,,,,,,,,,,,,,white,I
0.0,8.0,0.0,1.0,1.0,1.0,319.4846189999225,1.0,1.0,phase_1,,,,,,,,,,,,,cyan,square
211.0,3.0,3.0,0.0,1.0,1.0,316.6553539999768,1.0,1.0,phase_1,,,,,,,,,,,,,yellow,circle
214.0,7.0,3.0,1.0,2.0,2.0,255.5833779997556,1.0,1.0,phase_1,,,,,,,,,,,,,green,diamond
206.0,3.0,3.0,0.0,1.0,1.0,317.7671860003102,1.0,1.0,phase_1,,,,,,,,,,,,,yellow,circle
0.0,6.0,0.0,1.0,2.0,2.0,248.4604269998271,1.0,1.0,phase_1,,,,,,,,,,,,,gray,triangle
204.0,7.0,3.0,1.0,1.0,1.0,288.4420400000635,1.0,1.0,phase_1,,,,,,,,,,,,,green,diamond
402.0,8.0,4.0,1.0,4.0,4.0,330.3268110003046,1.0,1.0,phase_1,,,,,,,,,,,,,cyan,square
378.0,4.0,4.0,0.0,3.0,3.0,335.8339999999771,1.0,1.0,phase_1,,,,,,,,,,,,,blue,cross
118.0,2.0,2.0,0.0,3.0,3.0,350.1893170000585,1.0,1.0,phase_1,,,,,,,,,,,,,magenta,flipped triangle
413.0,8.0,4.0,1.0,3.0,3.0,324.5517959999233,1.0,2.0,phase_1,,,,,,,,,,,,,cyan,square
69.0,5.0,1.0,1.0,2.0,2.0,361.8180270000266,1.0,1.0,phase_1,,,,,,,,,,,,,orange,hexagon
83.0,2.0,2.0,0.0,3.0,3.0,279.5297289999325,1.0,1.0,phase_1,,,,,,,,,,,,,magenta,flipped triangle
114.0,2.0,2.0,0.0,2.0,2.0,323.0517900001359,1.0,1.0,phase_1,,,,,,,,,,,,,magenta,flipped triangle
54.0,5.0,1.0,1.0,2.0,2.0,391.1325079998278,1.0,1.0,phase_1,,,,,,,,,,,,,orange,hexagon
83.0,6.0,2.0,1.0,3.0,3.0,271.9134769999982,1.0,1.0,phase_1,,,,,,,,,,,,,gray,triangle
0.0,6.0,0.0,1.0,2.0,2.0,312.1406909999678,1.0,1.0,phase_1,,,,,,,,,,,,,gray,triangle
204.0,3.0,3.0,0.0,2.0,2.0,422.6194110001415,1.0,1.0,phase_1,,,,,,,,,,,,,yellow,circle
54.0,1.0,1.0,0.0,1.0,1.0,316.8812649996653,1.0,1.0,phase_1,,,,,,,,,,,,,white,I
58.0,5.0,1.0,1.0,1.0,1.0,376.3732959996559,1.0,1.0,phase_1,,,,,,,,,,,,,orange,hexagon
207.0,7.0,3.0,1.0,3.0,3.0,332.6358719996278,1.0,1.0,phase_1,,,,,,,,,,,,,green,diamond
0.0,5.0,0.0,1.0,2.0,2.0,250.76091499977338,1.0,1.0,phase_1,,,,,,,,,,,,,orange,hexagon
117.0,2.0,2.0,0.0,2.0,2.0,326.822643000014,1.0,1.0,phase_1,,,,,,,,,,,,,magenta,flipped triangle
114.0,6.0,2.0,1.0,1.0,1.0,315.3350170000522,1.0,1.0,phase_1,,,,,,,,,,,,,gray,triangle
379.0,4.0,4.0,0.0,1.0,1.0,454.1876440002852,1.0,1.0,phase_1,,,,,,,,,,,,,blue,cross
102.0,6.0,2.0,1.0,3.0,3.0,346.6370480000478,1.0,1.0,phase_1,,,,,,,,,,,,,gray,triangle
28.0,1.0,1.0,0.0,2.0,2.0,267.1528839996426,1.0,1.0,phase_1,,,,,,,,,,,,,white,I
411.0,8.0,4.0,1.0,4.0,4.0,320.0044259997412,1.0,1.0,phase_1,,,,,,,,,,,,,cyan,square
396.0,4.0,4.0,0.0,4.0,4.0,362.958979999803,1.0,1.0,phase_1,,,,,,,,,,,,,blue,cross
0.0,2.0,0.0,0.0,4.0,4.0,383.3729090001725,1.0,1.0,phase_1,,,,,,,,,,,,,magenta,flipped triangle
39.0,5.0,1.0,1.0,3.0,3.0,269.774297999902,1.0,1.0,phase_1,,,,,,,,,,,,,orange,hexagon
425.0,4.0,4.0,0.0,2.0,2.0,287.1941829998832,1.0,1.0,phase_1,,,,,,,,,,,,,blue,cross
184.0,3.0,3.0,0.0,1.0,1.0,343.0770919999304,1.0,1.0,phase_1,,,,,,,,,,,,,yellow,circle
58.0,1.0,1.0,0.0,4.0,4.0,367.9337779999514,1.0,1.0,phase_1,,,,,,,,,,,,,white,I
0.0,2.0,0.0,0.0,2.0,2.0,269.1545659999974,1.0,1.0,phase_1,,,,,,,,,,,,,magenta,flipped triangle
0.0,4.0,0.0,0.0,2.0,2.0,347.6699859998007,1.0,1.0,phase_1,,,,,,,,,,,,,blue,cross
0.0,1.0,0.0,0.0,2.0,2.0,393.8436920002459,1.0,1.0,phase_1,,,,,,,,,,,,,white,I
380.0,4.0,4.0,0.0,4.0,4.0,378.5920120003538,1.0,1.0,phase_1,,,,,,,,,,,,,blue,cross
0.0,4.0,0.0,0.0,2.0,2.0,298.0449130000124,1.0,1.0,phase_1,,,,,,,,,,,,,blue,cross
392.0,8.0,4.0,1.0,3.0,3.0,302.7645749998555,1.0,1.0,phase_1,,,,,,,,,,,,,cyan,square
203.0,7.0,3.0,1.0,3.0,3.0,323.1806239996331,1.0,1.0,phase_1,,,,,,,,,,,,,green,diamond
100.0,6.0,2.0,1.0,1.0,1.0,325.1436860000467,1.0,1.0,phase_1,,,,,,,,,,,,,gray,triangle
217.0,3.0,3.0,0.0,4.0,4.0,282.8187810000599,1.0,1.0,phase_1,,,,,,,,,,,,,yellow,circle
222.0,3.0,3.0,0.0,3.0,3.0,312.7702289998524,1.0,1.0,phase_1,,,,,,,,,,,,,yellow,circle
188.0,3.0,3.0,0.0,4.0,4.0,357.6291299996228,1.0,1.0,phase_1,,,,,,,,,,,,,yellow,circle
0.0,8.0,0.0,1.0,1.0,1.0,328.0557709999812,1.0,1.0,phase_1,,,,,,,,,,,,,cyan,square
0.0,2.0,0.0,0.0,4.0,4.0,301.8081509999319,1.0,1.0,phase_1,,,,,,,,,,,,,magenta,flipped triangle
33.0,5.0,1.0,1.0,1.0,1.0,348.05590099995237,1.0,1.0,phase_1,,,,,,,,,,,,,orange,hexagon
46.0,5.0,1.0,1.0,4.0,4.0,319.0601740002421,1.0,1.0,phase_1,,,,,,,,,,,,,orange,hexagon
381.0,4.0,4.0,0.0,3.0,3.0,347.4108730001717,1.0,1.0,phase_1,,,,,,,,,,,,,blue,cross
405.0,8.0,4.0,1.0,4.0,4.0,314.7994930000095,1.0,1.0,phase_1,,,,,,,,,,,,,cyan,square
0.0,4.0,0.0,0.0,3.0,3.0,324.963863999983,1.0,1.0,phase_1,,,,,,,,,,,,,blue,cross
0.0,1.0,0.0,0.0,4.0,4.0,364.7173750000547,1.0,1.0,phase_1,,,,,,,,,,,,,white,I
193.0,7.0,3.0,1.0,1.0,1.0,375.6685099997412,1.0,1.0,phase_1,,,,,,,,,,,,,green,diamond
180.0,7.0,3.0,1.0,3.0,3.0,258.7688449998495,1.0,1.0,phase_1,,,,,,,,,,,,,green,diamond
400.0,8.0,4.0,1.0,1.0,1.0,412.6038809999954,1.0,2.0,phase_1,,,,,,,,,,,,,cyan,square
203.0,7.0,3.0,1.0,4.0,4.0,490.8052529999622,1.0,1.0,phase_1,,,,,,,,,,,,,green,diamond
56.0,1.0,1.0,0.0,4.0,4.0,344.2216210000879,1.0,1.0,phase_1,,,,,,,,,,,,,white,I
79.0,6.0,2.0,1.0,2.0,2.0,417.8053630002978,1.0,1.0,phase_1,,,,,,,,,,,,,gray,triangle
0.0,7.0,0.0,1.0,4.0,4.0,479.3253670000013,1.0,1.0,phase_1,,,,,,,,,,,,,green,diamond
377.0,4.0,4.0,0.0,1.0,1.0,347.4048939997374,1.0,1.0,phase_1,,,,,,,,,,,,,blue,cross
0.0,8.0,0.0,1.0,3.0,3.0,307.7569280003445,1.0,1.0,phase_1,,,,,,,,,,,,,cyan,square
31.0,5.0,1.0,1.0,1.0,1.0,315.942332999839,2.0,1.0,phase_1,,,,,,,,,,,,,orange,hexagon
0.0,5.0,0.0,1.0,1.0,1.0,297.3522830002366,2.0,1.0,phase_1,,,,,,,,,,,,,orange,hexagon
378.0,4.0,4.0,0.0,2.0,2.0,276.410511999984,2.0,1.0,phase_1,,,,,,,,,,,,,blue,cross
28.0,5.0,1.0,1.0,3.0,3.0,267.2901299997647,2.0,1.0,phase_1,,,,,,,,,,,,,orange,hexagon
219.0,3.0,3.0,0.0,3.0,3.0,321.1235920002764,2.0,1.0,phase_1,,,,,,,,,,,,,yellow,circle
0.0,8.0,0.0,1.0,2.0,2.0,282.3005760001251,2.0,1.0,phase_1,,,,,,,,,,,,,cyan,square
0.0,3.0,0.0,0.0,2.0,2.0,335.1425450000533,2.0,1.0,phase_1,,,,,,,,,,,,,yellow,circle
396.0,4.0,4.0,0.0,3.0,3.0,292.7062399999158,2.0,1.0,phase_1,,,,,,,,,,,,,blue,cross
31.0,5.0,1.0,1.0,3.0,3.0,306.8488029998661,2.0,1.0,phase_1,,,,,,,,,,,,,orange,hexagon
187.0,3.0,3.0,0.0,2.0,2.0,334.5212469998841,2.0,1.0,phase_1,,,,,,,,,,,,,yellow,circle
58.0,1.0,1.0,0.0,1.0,1.0,410.4546879998452,2.0,1.0,phase_1,,,,,,,,,,,,,white,I
412.0,4.0,4.0,0.0,2.0,2.0,263.7012939999295,2.0,1.0,phase_1,,,,,,,,,,,,,blue,cross
222.0,7.0,3.0,1.0,4.0,4.0,445.6053809999503,2.0,1.0,phase_1,,,,,,,,,,,,,green,diamond
27.0,5.0,1.0,1.0,1.0,1.0,345.155357999829,2.0,1.0,phase_1,,,,,,,,,,,,,orange,hexagon
58.0,5.0,1.0,1.0,3.0,3.0,352.0469019999837,2.0,1.0,phase_1,,,,,,,,,,,,,orange,hexagon
211.0,7.0,3.0,1.0,2.0,2.0,282.8504559997782,2.0,1.0,phase_1,,,,,,,,,,,,,green,diamond
39.0,5.0,1.0,1.0,1.0,1.0,367.39429499994,2.0,1.0,phase_1,,,,,,,,,,,,,orange,hexagon
101.0,6.0,2.0,1.0,3.0,3.0,322.2247049998259,2.0,1.0,phase_1,,,,,,,,,,,,,gray,triangle
190.0,7.0,3.0,1.0,3.0,3.0,329.8544289996243,2.0,1.0,phase_1,,,,,,,,,,,,,green,diamond
31.0,1.0,1.0,0.0,3.0,3.0,341.7963980000422,2.0,1.0,phase_1,,,,,,,,,,,,,white,I
405.0,4.0,4.0,0.0,1.0,1.0,386.2476090002928,2.0,1.0,phase_1,,,,,,,,,,,,,blue,cross
392.0,4.0,4.0,0.0,3.0,3.0,308.6672640001779,2.0,1.0,phase_1,,,,,,,,,,,,,blue,cross
0.0,5.0,0.0,1.0,1.0,1.0,305.5286409999098,2.0,1.0,phase_1,,,,,,,,,,,,,orange,hexagon
216.0,3.0,3.0,0.0,3.0,3.0,297.0377070000722,2.0,1.0,phase_1,,,,,,,,,,,,,yellow,circle
121.0,2.0,2.0,0.0,3.0,3.0,358.7541719998626,2.0,1.0,phase_1,,,,,,,,,,,,,magenta,flipped triangle
220.0,3.0,3.0,0.0,4.0,4.0,338.3908360001442,2.0,1.0,phase_1,,,,,,,,,,,,,yellow,circle
392.0,8.0,4.0,1.0,3.0,3.0,300.4215910000312,2.0,1.0,phase_1,,,,,,,,,,,,,cyan,square
418.0,4.0,4.0,0.0,1.0,1.0,322.5475519998326,2.0,1.0,phase_1,,,,,,,,,,,,,blue,cross
415.0,8.0,4.0,1.0,4.0,4.0,271.5822790000857,2.0,1.0,phase_1,,,,,,,,,,,,,cyan,square
61.0,1.0,1.0,0.0,3.0,3.0,306.4933449995806,2.0,1.0,phase_1,,,,,,,,,,,,,white,I
31.0,5.0,1.0,1.0,3.0,3.0,328.6187350004184,2.0,1.0,phase_1,,,,,,,,,,,,,orange,hexagon
0.0,1.0,0.0,0.0,2.0,2.0,275.6929769998351,2.0,1.0,phase_1,,,,,,,,,,,,,white,I
79.0,2.0,2.0,0.0,4.0,4.0,290.4610570003569,2.0,1.0,phase_1,,,,,,,,,,,,,magenta,flipped triangle
402.0,4.0,4.0,0.0,2.0,2.0,380.9162469997318,2.0,1.0,phase_1,,,,,,,,,,,,,blue,cross
182.0,3.0,3.0,0.0,2.0,2.0,404.2828120000195,2.0,1.0,phase_1,,,,,,,,,,,,,yellow,circle
31.0,1.0,1.0,0.0,2.0,2.0,360.8839040002749,2.0,1.0,phase_1,,,,,,,,,,,,,white,I
84.0,2.0,2.0,0.0,1.0,1.0,366.2018320001152,2.0,1.0,phase_1,,,,,,,,,,,,,magenta,flipped triangle
212.0,7.0,3.0,1.0,3.0,3.0,313.0174749999241,2.0,1.0,phase_1,,,,,,,,,,,,,green,diamond
405.0,8.0,4.0,1.0,3.0,3.0,342.4146880001899,2.0,1.0,phase_1,,,,,,,,,,,,,cyan,square
71.0,1.0,1.0,0.0,3.0,3.0,323.9875539998138,2.0,1.0,phase_1,,,,,,,,,,,,,white,I
31.0,5.0,1.0,1.0,2.0,2.0,295.5702660001407,2.0,1.0,phase_1,,,,,,,,,,,,,orange,hexagon
40.0,5.0,1.0,1.0,2.0,2.0,301.5431740000167,2.0,1.0,phase_1,,,,,,,,,,,,,orange,hexagon
45.0,1.0,1.0,0.0,3.0,3.0,312.0701269999699,2.0,1.0,phase_1,,,,,,,,,,,,,white,I
97.0,6.0,2.0,1.0,3.0,3.0,308.8072669997928,2.0,1.0,phase_1,,,,,,,,,,,,,gray,triangle
71.0,5.0,1.0,1.0,2.0,2.0,315.8606130000407,2.0,1.0,phase_1,,,,,,,,,,,,,orange,hexagon
97.0,2.0,2.0,0.0,3.0,3.0,256.5424700001131,2.0,1.0,phase_1,,,,,,,,,,,,,magenta,flipped triangle
0.0,8.0,0.0,1.0,3.0,3.0,283.878542000366,2.0,1.0,phase_1,,,,,,,,,,,,,cyan,square
30.0,1.0,1.0,0.0,4.0,4.0,335.4887960003907,2.0,1.0,phase_1,,,,,,,,,,,,,white,I
208.0,3.0,3.0,0.0,1.0,1.0,251.43653799977977,2.0,1.0,phase_1,,,,,,,,,,,,,yellow,circle
405.0,8.0,4.0,1.0,2.0,2.0,255.9863289998247,2.0,1.0,phase_1,,,,,,,,,,,,,cyan,square
99.0,6.0,2.0,1.0,4.0,4.0,361.0620629997356,2.0,1.0,phase_1,,,,,,,,,,,,,gray,triangle
33.0,1.0,1.0,0.0,2.0,2.0,245.2276399999391,2.0,1.0,phase_1,,,,,,,,,,,,,white,I
0.0,4.0,0.0,0.0,1.0,1.0,336.6569519998847,2.0,1.0,phase_1,,,,,,,,,,,,,blue,cross
0.0,1.0,0.0,0.0,4.0,4.0,318.2162370003425,2.0,1.0,phase_1,,,,,,,,,,,,,white,I
58.0,5.0,1.0,1.0,1.0,1.0,359.5155349999004,2.0,1.0,phase_1,,,,,,,,,,,,,orange,hexagon
99.0,2.0,2.0,0.0,4.0,4.0,312.2958890003247,2.0,1.0,phase_1,,,,,,,,,,,,,magenta,flipped triangle
203.0,3.0,3.0,0.0,1.0,1.0,309.0327609997985,2.0,1.0,phase_1,,,,,,,,,,,,,yellow,circle
75.0,5.0,1.0,1.0,4.0,4.0,279.3191299997488,2.0,1.0,phase_1,,,,,,,,,,,,,orange,hexagon
0.0,3.0,0.0,0.0,3.0,3.0,310.2185580000878,2.0,1.0,phase_1,,,,,,,,,,,,,yellow,circle
220.0,7.0,3.0,1.0,4.0,4.0,330.7643610000923,2.0,1.0,phase_1,,,,,,,,,,,,,green,diamond
113.0,2.0,2.0,0.0,2.0,2.0,243.4929219998594,2.0,1.0,phase_1,,,,,,,,,,,,,magenta,flipped triangle
0.0,7.0,0.0,1.0,3.0,3.0,256.2820830003147,2.0,1.0,phase_1,,,,,,,,,,,,,green,diamond
121.0,6.0,2.0,1.0,2.0,2.0,278.7063000000671,2.0,1.0,phase_1,,,,,,,,,,,,,gray,triangle
0.0,7.0,0.0,1.0,2.0,2.0,329.4610859998101,2.0,1.0,phase_1,,,,,,,,,,,,,green,diamond
46.0,1.0,1.0,0.0,4.0,4.0,344.8361570003726,2.0,1.0,phase_1,,,,,,,,,,,,,white,I
104.0,6.0,2.0,1.0,2.0,2.0,252.76773099994898,2.0,1.0,phase_1,,,,,,,,,,,,,gray,triangle
392.0,4.0,4.0,0.0,2.0,2.0,295.4377109999768,2.0,1.0,phase_1,,,,,,,,,,,,,blue,cross
405.0,4.0,4.0,0.0,1.0,1.0,324.2966950001573,2.0,1.0,phase_1,,,,,,,,,,,,,blue,cross
207.0,3.0,3.0,0.0,1.0,1.0,364.1125579997606,2.0,1.0,phase_1,,,,,,,,,,,,,yellow,circle
190.0,3.0,3.0,0.0,1.0,1.0,320.595486000002,2.0,1.0,phase_1,,,,,,,,,,,,,yellow,circle
27.0,1.0,1.0,0.0,1.0,1.0,278.6826240003393,2.0,1.0,phase_1,,,,,,,,,,,,,white,I
85.0,2.0,2.0,0.0,2.0,2.0,274.2473779999272,2.0,1.0,phase_1,,,,,,,,,,,,,magenta,flipped triangle
411.0,4.0,4.0,0.0,2.0,2.0,286.2686530002065,2.0,1.0,phase_1,,,,,,,,,,,,,blue,cross
190.0,7.0,3.0,1.0,2.0,2.0,268.1303450003724,2.0,1.0,phase_1,,,,,,,,,,,,,green,diamond
48.0,5.0,1.0,1.0,4.0,4.0,336.390369000128,2.0,1.0,phase_1,,,,,,,,,,,,,orange,hexagon
397.0,4.0,4.0,0.0,3.0,3.0,393.1135329999051,2.0,2.0,phase_1,,,,,,,,,,,,,blue,cross
206.0,7.0,3.0,1.0,4.0,4.0,347.0861900000273,2.0,1.0,phase_1,,,,,,,,,,,,,green,diamond
378.0,8.0,4.0,1.0,4.0,4.0,362.7947019999737,2.0,1.0,phase_1,,,,,,,,,,,,,cyan,square
104.0,2.0,2.0,0.0,1.0,1.0,448.1299069998385,2.0,1.0,phase_1,,,,,,,,,,,,,magenta,flipped triangle
424.0,8.0,4.0,1.0,1.0,1.0,449.1020539999226,2.0,1.0,phase_1,,,,,,,,,,,,,cyan,square
397.0,8.0,4.0,1.0,1.0,1.0,385.8499640000445,2.0,1.0,phase_1,,,,,,,,,,,,,cyan,square
119.0,2.0,2.0,0.0,4.0,4.0,390.1363539998783,2.0,1.0,phase_1,,,,,,,,,,,,,magenta,flipped triangle
121.0,6.0,2.0,1.0,4.0,4.0,365.7764929998848,2.0,2.0,phase_1,,,,,,,,,,,,,gray,triangle
0.0,5.0,0.0,1.0,4.0,4.0,314.0474249998988,2.0,1.0,phase_1,,,,,,,,,,,,,orange,hexagon
121.0,2.0,2.0,0.0,1.0,1.0,343.3382740004163,2.0,1.0,phase_1,,,,,,,,,,,,,magenta,flipped triangle
0.0,3.0,0.0,0.0,3.0,3.0,333.6401619999378,2.0,1.0,phase_1,,,,,,,,,,,,,yellow,circle
0.0,8.0,0.0,1.0,1.0,1.0,416.904157999852,2.0,1.0,phase_1,,,,,,,,,,,,,cyan,square
61.0,5.0,1.0,1.0,1.0,1.0,355.5090159998144,2.0,1.0,phase_1,,,,,,,,,,,,,orange,hexagon
187.0,7.0,3.0,1.0,1.0,1.0,296.3310680001996,2.0,1.0,phase_1,,,,,,,,,,,,,green,diamond
51.0,1.0,1.0,0.0,4.0,4.0,372.8031169998758,2.0,1.0,phase_1,,,,,,,,,,,,,white,I
101.0,2.0,2.0,0.0,4.0,4.0,401.7179990000841,2.0,1.0,phase_1,,,,,,,,,,,,,magenta,flipped triangle
425.0,8.0,4.0,1.0,4.0,4.0,352.5837880001745,2.0,1.0,phase_1,,,,,,,,,,,,,cyan,square
378.0,8.0,4.0,1.0,2.0,2.0,379.1879600003085,2.0,1.0,phase_1,,,,,,,,,,,,,cyan,square
0.0,5.0,0.0,1.0,3.0,3.0,304.4802479998907,2.0,1.0,phase_1,,,,,,,,,,,,,orange,hexagon
84.0,6.0,2.0,1.0,1.0,1.0,429.3090299997857,2.0,1.0,phase_1,,,,,,,,,,,,,gray,triangle
90.0,6.0,2.0,1.0,4.0,4.0,341.11413599976,2.0,1.0,phase_1,,,,,,,,,,,,,gray,triangle
51.0,5.0,1.0,1.0,2.0,2.0,286.3076629996612,2.0,1.0,phase_1,,,,,,,,,,,,,orange,hexagon
0.0,8.0,0.0,1.0,2.0,2.0,338.9537190000737,2.0,1.0,phase_1,,,,,,,,,,,,,cyan,square
219.0,7.0,3.0,1.0,1.0,1.0,318.7437460001092,2.0,1.0,phase_1,,,,,,,,,,,,,green,diamond
86.0,6.0,2.0,1.0,2.0,2.0,301.7659619999904,2.0,1.0,phase_1,,,,,,,,,,,,,gray,triangle
0.0,5.0,0.0,1.0,4.0,4.0,361.5427049999198,3.0,1.0,phase_1,,,,,,,,,,,,,orange,hexagon
0.0,1.0,0.0,0.0,4.0,4.0,350.3146800003378,3.0,1.0,phase_1,,,,,,,,,,,,,white,I
207.0,7.0,3.0,1.0,1.0,1.0,348.90015799965107,3.0,1.0,phase_1,,,,,,,,,,,,,green,diamond
0.0,6.0,0.0,1.0,2.0,2.0,298.7292789998719,3.0,1.0,phase_1,,,,,,,,,,,,,gray,triangle
30.0,5.0,1.0,1.0,2.0,2.0,260.358391000409,3.0,1.0,phase_1,,,,,,,,,,,,,orange,hexagon
66.0,5.0,1.0,1.0,3.0,3.0,241.3234379996538,3.0,1.0,phase_1,,,,,,,,,,,,,orange,hexagon
383.0,8.0,4.0,1.0,2.0,2.0,245.5283049998797,3.0,1.0,phase_1,,,,,,,,,,,,,cyan,square
74.0,5.0,1.0,1.0,2.0,2.0,266.5009379998082,3.0,1.0,phase_1,,,,,,,,,,,,,orange,hexagon
78.0,2.0,2.0,0.0,2.0,2.0,262.6390979999087,3.0,1.0,phase_1,,,,,,,,,,,,,magenta,flipped triangle
180.0,7.0,3.0,1.0,2.0,2.0,254.84784799982663,3.0,1.0,phase_1,,,,,,,,,,,,,green,diamond
42.0,5.0,1.0,1.0,1.0,1.0,386.7026039997654,3.0,1.0,phase_1,,,,,,,,,,,,,orange,hexagon
71.0,1.0,1.0,0.0,3.0,3.0,416.1015439999573,3.0,1.0,phase_1,,,,,,,,,,,,,white,I
0.0,4.0,0.0,0.0,1.0,1.0,517.1496699999807,3.0,1.0,phase_1,,,,,,,,,,,,,blue,cross
198.0,7.0,3.0,1.0,3.0,3.0,338.4690779998891,3.0,1.0,phase_1,,,,,,,,,,,,,green,diamond
0.0,4.0,0.0,0.0,3.0,3.0,343.0174899999656,3.0,1.0,phase_1,,,,,,,,,,,,,blue,cross
425.0,8.0,4.0,1.0,1.0,1.0,297.651986999881,3.0,1.0,phase_1,,,,,,,,,,,,,cyan,square
71.0,1.0,1.0,0.0,2.0,2.0,277.1328640001229,3.0,1.0,phase_1,,,,,,,,,,,,,white,I
418.0,4.0,4.0,0.0,1.0,1.0,331.1657859999286,3.0,1.0,phase_1,,,,,,,,,,,,,blue,cross
423.0,4.0,4.0,0.0,2.0,2.0,272.726104999947,3.0,1.0,phase_1,,,,,,,,,,,,,blue,cross
377.0,8.0,4.0,1.0,2.0,2.0,302.1888470002523,3.0,1.0,phase_1,,,,,,,,,,,,,cyan,square
402.0,4.0,4.0,0.0,3.0,3.0,295.7793570003559,3.0,1.0,phase_1,,,,,,,,,,,,,blue,cross
207.0,3.0,3.0,0.0,1.0,1.0,355.732560999968,3.0,1.0,phase_1,,,,,,,,,,,,,yellow,circle
0.0,1.0,0.0,0.0,2.0,2.0,305.3499299999203,3.0,1.0,phase_1,,,,,,,,,,,,,white,I
0.0,6.0,0.0,1.0,3.0,3.0,293.4719069999119,3.0,1.0,phase_1,,,,,,,,,,,,,gray,triangle
203.0,3.0,3.0,0.0,4.0,4.0,330.0377460000163,3.0,1.0,phase_1,,,,,,,,,,,,,yellow,circle
412.0,8.0,4.0,1.0,2.0,2.0,321.7364610000004,3.0,1.0,phase_1,,,,,,,,,,,,,cyan,square
63.0,5.0,1.0,1.0,4.0,4.0,460.1232969998818,3.0,1.0,phase_1,,,,,,,,,,,,,orange,hexagon
49.0,1.0,1.0,0.0,1.0,1.0,329.7487540003203,3.0,1.0,phase_1,,,,,,,,,,,,,white,I
212.0,3.0,3.0,0.0,1.0,1.0,373.529101999793,3.0,1.0,phase_1,,,,,,,,,,,,,yellow,circle
389.0,4.0,4.0,0.0,3.0,3.0,338.160895999863,3.0,1.0,phase_1,,,,,,,,,,,,,blue,cross
45.0,5.0,1.0,1.0,3.0,3.0,350.0935810002374,3.0,1.0,phase_1,,,,,,,,,,,,,orange,hexagon
183.0,3.0,3.0,0.0,2.0,2.0,330.8487260001129,3.0,1.0,phase_1,,,,,,,,,,,,,yellow,circle
201.0,3.0,3.0,0.0,2.0,2.0,299.0839219996815,3.0,1.0,phase_1,,,,,,,,,,,,,yellow,circle
38.0,5.0,1.0,1.0,4.0,4.0,326.6132630001266,3.0,1.0,phase_1,,,,,,,,,,,,,orange,hexagon
199.0,7.0,3.0,1.0,1.0,1.0,346.5813530001469,3.0,1.0,phase_1,,,,,,,,,,,,,green,diamond
86.0,2.0,2.0,0.0,3.0,3.0,278.39515200003,3.0,1.0,phase_1,,,,,,,,,,,,,magenta,flipped triangle
123.0,2.0,2.0,0.0,1.0,1.0,346.6773739996824,3.0,1.0,phase_1,,,,,,,,,,,,,magenta,flipped triangle
214.0,3.0,3.0,0.0,2.0,2.0,359.6363409997138,3.0,1.0,phase_1,,,,,,,,,,,,,yellow,circle
0.0,8.0,0.0,1.0,4.0,4.0,374.6842780001316,3.0,1.0,phase_1,,,,,,,,,,,,,cyan,square
90.0,2.0,2.0,0.0,4.0,4.0,355.3548610002508,3.0,1.0,phase_1,,,,,,,,,,,,,magenta,flipped triangle
180.0,3.0,3.0,0.0,3.0,3.0,334.8112469998341,3.0,1.0,phase_1,,,,,,,,,,,,,yellow,circle
90.0,6.0,2.0,1.0,1.0,1.0,338.2746920001409,3.0,1.0,phase_1,,,,,,,,,,,,,gray,triangle
0.0,2.0,0.0,0.0,2.0,2.0,270.0529879998612,3.0,1.0,phase_1,,,,,,,,,,,,,magenta,flipped triangle
194.0,7.0,3.0,1.0,4.0,4.0,315.3323550000095,3.0,1.0,phase_1,,,,,,,,,,,,,green,diamond
0.0,6.0,0.0,1.0,1.0,1.0,394.9324529999103,3.0,1.0,phase_1,,,,,,,,,,,,,gray,triangle
0.0,7.0,0.0,1.0,2.0,2.0,244.7378550000394,3.0,1.0,phase_1,,,,,,,,,,,,,green,diamond
0.0,3.0,0.0,0.0,4.0,4.0,313.3554279997952,3.0,1.0,phase_1,,,,,,,,,,,,,yellow,circle
121.0,6.0,2.0,1.0,2.0,2.0,253.61079600043013,3.0,1.0,phase_1,,,,,,,,,,,,,gray,triangle
0.0,7.0,0.0,1.0,1.0,1.0,317.6108590000694,3.0,1.0,phase_1,,,,,,,,,,,,,green,diamond
102.0,2.0,2.0,0.0,3.0,3.0,304.8286409998582,3.0,1.0,phase_1,,,,,,,,,,,,,magenta,flipped triangle
219.0,7.0,3.0,1.0,3.0,3.0,305.2004080000188,3.0,2.0,phase_1,,,,,,,,,,,,,green,diamond
106.0,6.0,2.0,1.0,3.0,3.0,351.6325189998497,3.0,1.0,phase_1,,,,,,,,,,,,,gray,triangle
76.0,2.0,2.0,0.0,4.0,4.0,370.3980010000123,3.0,1.0,phase_1,,,,,,,,,,,,,magenta,flipped triangle
91.0,6.0,2.0,1.0,1.0,1.0,449.7539040003175,3.0,1.0,phase_1,,,,,,,,,,,,,gray,triangle
41.0,5.0,1.0,1.0,4.0,4.0,375.3451510001468,3.0,1.0,phase_1,,,,,,,,,,,,,orange,hexagon
210.0,7.0,3.0,1.0,1.0,1.0,327.5512970003547,3.0,2.0,phase_1,,,,,,,,,,,,,green,diamond
184.0,7.0,3.0,1.0,4.0,4.0,339.175078000153,3.0,1.0,phase_1,,,,,,,,,,,,,green,diamond
115.0,2.0,2.0,0.0,3.0,3.0,319.9792390000766,3.0,1.0,phase_1,,,,,,,,,,,,,magenta,flipped triangle
175.0,3.0,3.0,0.0,2.0,2.0,261.2695440002426,3.0,1.0,phase_1,,,,,,,,,,,,,yellow,circle
56.0,5.0,1.0,1.0,2.0,2.0,338.5393759999715,3.0,1.0,phase_1,,,,,,,,,,,,,orange,hexagon
71.0,1.0,1.0,0.0,4.0,4.0,389.9681620000592,3.0,1.0,phase_1,,,,,,,,,,,,,white,I
112.0,2.0,2.0,0.0,2.0,2.0,289.9289749998388,3.0,1.0,phase_1,,,,,,,,,,,,,magenta,flipped triangle
69.0,1.0,1.0,0.0,1.0,1.0,454.68960900007,3.0,1.0,phase_1,,,,,,,,,,,,,white,I
403.0,8.0,4.0,1.0,3.0,3.0,326.2072039997292,3.0,1.0,phase_1,,,,,,,,,,,,,cyan,square
188.0,7.0,3.0,1.0,4.0,4.0,346.3762050000696,3.0,1.0,phase_1,,,,,,,,,,,,,green,diamond
98.0,6.0,2.0,1.0,1.0,1.0,347.6666960000329,3.0,1.0,phase_1,,,,,,,,,,,,,gray,triangle
37.0,1.0,1.0,0.0,2.0,2.0,288.591944000018,3.0,1.0,phase_1,,,,,,,,,,,,,white,I
0.0,2.0,0.0,0.0,3.0,3.0,432.9826090001916,3.0,1.0,phase_1,,,,,,,,,,,,,magenta,flipped triangle
0.0,2.0,0.0,0.0,2.0,2.0,434.3417170002794,3.0,1.0,phase_1,,,,,,,,,,,,,magenta,flipped triangle
41.0,1.0,1.0,0.0,1.0,1.0,398.0791730000419,3.0,1.0,phase_1,,,,,,,,,,,,,white,I
70.0,5.0,1.0,1.0,4.0,4.0,339.1763480003646,3.0,1.0,phase_1,,,,,,,,,,,,,orange,hexagon
69.0,1.0,1.0,0.0,4.0,4.0,353.5627700002806,3.0,1.0,phase_1,,,,,,,,,,,,,white,I
403.0,8.0,4.0,1.0,4.0,4.0,351.1990109996077,3.0,1.0,phase_1,,,,,,,,,,,,,cyan,square
394.0,8.0,4.0,1.0,4.0,4.0,316.5542050001022,3.0,1.0,phase_1,,,,,,,,,,,,,cyan,square
75.0,1.0,1.0,0.0,3.0,3.0,326.4338280000629,3.0,1.0,phase_1,,,,,,,,,,,,,white,I
37.0,5.0,1.0,1.0,1.0,1.0,434.4588059998386,3.0,1.0,phase_1,,,,,,,,,,,,,orange,hexagon
114.0,2.0,2.0,0.0,2.0,2.0,328.6746720000337,3.0,1.0,phase_1,,,,,,,,,,,,,magenta,flipped triangle
90.0,2.0,2.0,0.0,1.0,1.0,390.9140359996854,3.0,1.0,phase_1,,,,,,,,,,,,,magenta,flipped triangle
378.0,4.0,4.0,0.0,4.0,4.0,427.3916320003081,3.0,1.0,phase_1,,,,,,,,,,,,,blue,cross
413.0,4.0,4.0,0.0,1.0,1.0,367.4331869997331,3.0,1.0,phase_1,,,,,,,,,,,,,blue,cross
190.0,7.0,3.0,1.0,1.0,1.0,330.4009459998269,3.0,1.0,phase_1,,,,,,,,,,,,,green,diamond
94.0,2.0,2.0,0.0,3.0,3.0,326.4938790002816,3.0,1.0,phase_1,,,,,,,,,,,,,magenta,flipped triangle
402.0,8.0,4.0,1.0,1.0,1.0,309.6408549999978,3.0,1.0,phase_1,,,,,,,,,,,,,cyan,square
63.0,1.0,1.0,0.0,3.0,3.0,290.895232999901,3.0,1.0,phase_1,,,,,,,,,,,,,white,I
82.0,6.0,2.0,1.0,3.0,3.0,350.2622699998028,3.0,1.0,phase_1,,,,,,,,,,,,,gray,triangle
0.0,5.0,0.0,1.0,2.0,2.0,289.3867399998271,3.0,1.0,phase_1,,,,,,,,,,,,,orange,hexagon
424.0,4.0,4.0,0.0,4.0,4.0,430.5049260001397,3.0,1.0,phase_1,,,,,,,,,,,,,blue,cross
31.0,1.0,1.0,0.0,3.0,3.0,357.6820479997877,3.0,1.0,phase_1,,,,,,,,,,,,,white,I
384.0,8.0,4.0,1.0,1.0,1.0,347.1539199999824,3.0,1.0,phase_1,,,,,,,,,,,,,cyan,square
0.0,2.0,0.0,0.0,2.0,2.0,270.8938700002363,3.0,1.0,phase_1,,,,,,,,,,,,,magenta,flipped triangle
219.0,3.0,3.0,0.0,3.0,3.0,281.7273129999194,3.0,1.0,phase_1,,,,,,,,,,,,,yellow,circle
389.0,8.0,4.0,1.0,2.0,2.0,334.0891389998432,3.0,1.0,phase_1,,,,,,,,,,,,,cyan,square
42.0,1.0,1.0,0.0,1.0,1.0,331.2865050002074,3.0,1.0,phase_1,,,,,,,,,,,,,white,I
71.0,5.0,1.0,1.0,4.0,4.0,512.0428019999963,3.0,1.0,phase_1,,,,,,,,,,,,,orange,hexagon
119.0,6.0,2.0,1.0,4.0,4.0,406.7679860004318,3.0,1.0,phase_1,,,,,,,,,,,,,gray,triangle
0.0,6.0,0.0,1.0,3.0,3.0,305.4301639999721,3.0,1.0,phase_1,,,,,,,,,,,,,gray,triangle
103.0,2.0,2.0,0.0,2.0,2.0,253.035748000002,3.0,1.0,phase_1,,,,,,,,,,,,,magenta,flipped triangle
198.0,7.0,3.0,1.0,4.0,4.0,317.7080559999012,3.0,1.0,phase_1,,,,,,,,,,,,,green,diamond
394.0,4.0,4.0,0.0,4.0,4.0,350.0954239998464,3.0,1.0,phase_1,,,,,,,,,,,,,blue,cross
403.0,4.0,4.0,0.0,3.0,3.0,302.4658669996825,3.0,1.0,phase_1,,,,,,,,,,,,,blue,cross
200.0,7.0,3.0,1.0,1.0,1.0,373.9754449998145,4.0,1.0,phase_1,,,,,,,,,,,,,green,diamond
418.0,8.0,4.0,1.0,3.0,3.0,392.4777480001467,4.0,1.0,phase_1,,,,,,,,,,,,,cyan,square
0.0,2.0,0.0,0.0,2.0,2.0,260.268318999806,4.0,1.0,phase_1,,,,,,,,,,,,,magenta,flipped triangle
58.0,1.0,1.0,0.0,2.0,2.0,360.2423950001139,4.0,1.0,phase_1,,,,,,,,,,,,,white,I
121.0,2.0,2.0,0.0,1.0,1.0,328.2214340001701,4.0,1.0,phase_1,,,,,,,,,,,,,magenta,flipped triangle
223.0,3.0,3.0,0.0,4.0,4.0,331.9245869997758,4.0,1.0,phase_1,,,,,,,,,,,,,yellow,circle
123.0,6.0,2.0,1.0,3.0,3.0,278.9976190001653,4.0,1.0,phase_1,,,,,,,,,,,,,gray,triangle
90.0,6.0,2.0,1.0,4.0,4.0,348.6969760001557,4.0,1.0,phase_1,,,,,,,,,,,,,gray,triangle
378.0,8.0,4.0,1.0,3.0,3.0,331.4761779997752,4.0,1.0,phase_1,,,,,,,,,,,,,cyan,square
117.0,6.0,2.0,1.0,2.0,2.0,271.3798059999135,4.0,1.0,phase_1,,,,,,,,,,,,,gray,triangle
0.0,5.0,0.0,1.0,2.0,2.0,348.0168149999372,4.0,1.0,phase_1,,,,,,,,,,,,,orange,hexagon
118.0,6.0,2.0,1.0,4.0,4.0,393.6548340002446,4.0,1.0,phase_1,,,,,,,,,,,,,gray,triangle
99.0,2.0,2.0,0.0,1.0,1.0,283.2366620000357,4.0,1.0,phase_1,,,,,,,,,,,,,magenta,flipped triangle
188.0,3.0,3.0,0.0,3.0,3.0,328.0326090002745,4.0,1.0,phase_1,,,,,,,,,,,,,yellow,circle
0.0,6.0,0.0,1.0,2.0,2.0,340.3235739997399,4.0,1.0,phase_1,,,,,,,,,,,,,gray,triangle
71.0,5.0,1.0,1.0,4.0,4.0,448.3018730002186,4.0,1.0,phase_1,,,,,,,,,,,,,orange,hexagon
390.0,8.0,4.0,1.0,3.0,3.0,294.8531560000447,4.0,1.0,phase_1,,,,,,,,,,,,,cyan,square
0.0,4.0,0.0,0.0,4.0,4.0,372.8535489999558,4.0,1.0,phase_1,,,,,,,,,,,,,blue,cross
405.0,4.0,4.0,0.0,3.0,3.0,296.3005629999315,4.0,1.0,phase_1,,,,,,,,,,,,,blue,cross
396.0,8.0,4.0,1.0,2.0,2.0,253.8168669998413,4.0,1.0,phase_1,,,,,,,,,,,,,cyan,square
418.0,8.0,4.0,1.0,2.0,2.0,281.9425249999767,4.0,1.0,phase_1,,,,,,,,,,,,,cyan,square
85.0,6.0,2.0,1.0,1.0,1.0,343.2984420001048,4.0,1.0,phase_1,,,,,,,,,,,,,gray,triangle
89.0,6.0,2.0,1.0,1.0,1.0,356.1870839998846,4.0,1.0,phase_1,,,,,,,,,,,,,gray,triangle
403.0,4.0,4.0,0.0,1.0,1.0,345.966331999989,4.0,1.0,phase_1,,,,,,,,,,,,,blue,cross
90.0,2.0,2.0,0.0,2.0,2.0,267.5424849999217,4.0,1.0,phase_1,,,,,,,,,,,,,magenta,flipped triangle
416.0,4.0,4.0,0.0,2.0,2.0,328.3748809999451,4.0,1.0,phase_1,,,,,,,,,,,,,blue,cross
204.0,3.0,3.0,0.0,4.0,4.0,356.0890260000633,4.0,1.0,phase_1,,,,,,,,,,,,,yellow,circle
114.0,2.0,2.0,0.0,3.0,3.0,320.7008760000462,4.0,1.0,phase_1,,,,,,,,,,,,,magenta,flipped triangle
198.0,3.0,3.0,0.0,3.0,3.0,357.3305869999785,4.0,1.0,phase_1,,,,,,,,,,,,,yellow,circle
396.0,8.0,4.0,1.0,3.0,3.0,322.324234000007,4.0,1.0,phase_1,,,,,,,,,,,,,cyan,square
102.0,2.0,2.0,0.0,2.0,2.0,320.548479000081,4.0,1.0,phase_1,,,,,,,,,,,,,magenta,flipped triangle
44.0,5.0,1.0,1.0,4.0,4.0,333.7587300002269,4.0,1.0,phase_1,,,,,,,,,,,,,orange,hexagon
0.0,7.0,0.0,1.0,1.0,1.0,410.213764999753,4.0,1.0,phase_1,,,,,,,,,,,,,green,diamond
69.0,5.0,1.0,1.0,2.0,2.0,399.8032670001521,4.0,1.0,phase_1,,,,,,,,,,,,,orange,hexagon
417.0,8.0,4.0,1.0,3.0,3.0,315.817620999951,4.0,1.0,phase_1,,,,,,,,,,,,,cyan,square
0.0,3.0,0.0,0.0,4.0,4.0,329.0632749999531,4.0,1.0,phase_1,,,,,,,,,,,,,yellow,circle
423.0,8.0,4.0,1.0,2.0,2.0,316.5120129997376,4.0,1.0,phase_1,,,,,,,,,,,,,cyan,square
216.0,7.0,3.0,1.0,2.0,2.0,290.714294999816,4.0,1.0,phase_1,,,,,,,,,,,,,green,diamond
0.0,8.0,0.0,1.0,2.0,2.0,317.0057259999339,4.0,1.0,phase_1,,,,,,,,,,,,,cyan,square
78.0,6.0,2.0,1.0,4.0,4.0,364.3076879998261,4.0,1.0,phase_1,,,,,,,,,,,,,gray,triangle
183.0,7.0,3.0,1.0,3.0,3.0,313.6259709999649,4.0,1.0,phase_1,,,,,,,,,,,,,green,diamond
0.0,4.0,0.0,0.0,2.0,2.0,293.3221729999786,4.0,1.0,phase_1,,,,,,,,,,,,,blue,cross
0.0,2.0,0.0,0.0,1.0,1.0,430.8823890000894,4.0,1.0,phase_1,,,,,,,,,,,,,magenta,flipped triangle
106.0,2.0,2.0,0.0,4.0,4.0,271.6866229998231,4.0,1.0,phase_1,,,,,,,,,,,,,magenta,flipped triangle
0.0,5.0,0.0,1.0,1.0,1.0,376.1306710002827,4.0,1.0,phase_1,,,,,,,,,,,,,orange,hexagon
54.0,5.0,1.0,1.0,3.0,3.0,289.1106410002066,4.0,1.0,phase_1,,,,,,,,,,,,,orange,hexagon
425.0,4.0,4.0,0.0,2.0,2.0,233.9240999999674,4.0,1.0,phase_1,,,,,,,,,,,,,blue,cross
193.0,3.0,3.0,0.0,4.0,4.0,297.1161280001979,4.0,1.0,phase_1,,,,,,,,,,,,,yellow,circle
190.0,3.0,3.0,0.0,3.0,3.0,275.4030969999803,4.0,1.0,phase_1,,,,,,,,,,,,,yellow,circle
379.0,8.0,4.0,1.0,1.0,1.0,313.6631829997895,4.0,1.0,phase_1,,,,,,,,,,,,,cyan,square
42.0,1.0,1.0,0.0,4.0,4.0,301.1209370001779,4.0,1.0,phase_1,,,,,,,,,,,,,white,I
0.0,7.0,0.0,1.0,2.0,2.0,251.1363319999873,4.0,1.0,phase_1,,,,,,,,,,,,,green,diamond
194.0,3.0,3.0,0.0,2.0,2.0,398.6194009999053,4.0,1.0,phase_1,,,,,,,,,,,,,yellow,circle
0.0,1.0,0.0,0.0,1.0,1.0,354.2821899995942,4.0,1.0,phase_1,,,,,,,,,,,,,white,I
390.0,4.0,4.0,0.0,4.0,4.0,313.0897500000174,4.0,1.0,phase_1,,,,,,,,,,,,,blue,cross
196.0,3.0,3.0,0.0,2.0,2.0,270.7926879998013,4.0,1.0,phase_1,,,,,,,,,,,,,yellow,circle
194.0,7.0,3.0,1.0,3.0,3.0,320.528732999719,4.0,1.0,phase_1,,,,,,,,,,,,,green,diamond
54.0,1.0,1.0,0.0,1.0,1.0,503.2534809997742,4.0,1.0,phase_1,,,,,,,,,,,,,white,I
82.0,2.0,2.0,0.0,4.0,4.0,365.116100999785,4.0,1.0,phase_1,,,,,,,,,,,,,magenta,flipped triangle
0.0,3.0,0.0,0.0,3.0,3.0,304.570517999764,4.0,1.0,phase_1,,,,,,,,,,,,,yellow,circle
182.0,7.0,3.0,1.0,4.0,4.0,428.4319260000302,4.0,1.0,phase_1,,,,,,,,,,,,,green,diamond
112.0,6.0,2.0,1.0,3.0,3.0,344.664253999781,4.0,1.0,phase_1,,,,,,,,,,,,,gray,triangle
383.0,8.0,4.0,1.0,1.0,1.0,320.1838500003759,4.0,1.0,phase_1,,,,,,,,,,,,,cyan,square
0.0,7.0,0.0,1.0,1.0,1.0,300.2364510002735,4.0,1.0,phase_1,,,,,,,,,,,,,green,diamond
217.0,7.0,3.0,1.0,1.0,1.0,322.1547899997858,4.0,1.0,phase_1,,,,,,,,,,,,,green,diamond
99.0,6.0,2.0,1.0,1.0,1.0,307.6136079998832,4.0,1.0,phase_1,,,,,,,,,,,,,gray,triangle
199.0,3.0,3.0,0.0,2.0,2.0,287.623018999966,4.0,1.0,phase_1,,,,,,,,,,,,,yellow,circle
210.0,3.0,3.0,0.0,1.0,1.0,319.7639929999241,4.0,1.0,phase_1,,,,,,,,,,,,,yellow,circle
380.0,8.0,4.0,1.0,1.0,1.0,274.7424819999651,4.0,1.0,phase_1,,,,,,,,,,,,,cyan,square
71.0,5.0,1.0,1.0,3.0,3.0,384.4246119997478,4.0,1.0,phase_1,,,,,,,,,,,,,orange,hexagon
381.0,8.0,4.0,1.0,2.0,2.0,292.8471969999009,4.0,1.0,phase_1,,,,,,,,,,,,,cyan,square
208.0,7.0,3.0,1.0,2.0,2.0,305.79366299980387,4.0,1.0,phase_1,,,,,,,,,,,,,green,diamond
114.0,6.0,2.0,1.0,4.0,4.0,348.4789540002566,4.0,1.0,phase_1,,,,,,,,,,,,,gray,triangle
44.0,1.0,1.0,0.0,1.0,1.0,483.1498219996319,4.0,1.0,phase_1,,,,,,,,,,,,,white,I
400.0,4.0,4.0,0.0,4.0,4.0,341.3551260000531,4.0,1.0,phase_1,,,,,,,,,,,,,blue,cross
79.0,2.0,2.0,0.0,4.0,4.0,345.6238580001809,4.0,1.0,phase_1,,,,,,,,,,,,,magenta,flipped triangle
196.0,7.0,3.0,1.0,4.0,4.0,402.2774119998757,4.0,1.0,phase_1,,,,,,,,,,,,,green,diamond
115.0,6.0,2.0,1.0,2.0,2.0,299.6656709997296,4.0,1.0,phase_1,,,,,,,,,,,,,gray,triangle
94.0,6.0,2.0,1.0,1.0,1.0,351.6818379998767,4.0,1.0,phase_1,,,,,,,,,,,,,gray,triangle
103.0,6.0,2.0,1.0,2.0,2.0,324.4787950002319,4.0,1.0,phase_1,,,,,,,,,,,,,gray,triangle
91.0,2.0,2.0,0.0,4.0,4.0,324.0779620000467,4.0,1.0,phase_1,,,,,,,,,,,,,magenta,flipped triangle
0.0,4.0,0.0,0.0,1.0,1.0,344.9814589998823,4.0,1.0,phase_1,,,,,,,,,,,,,blue,cross
0.0,1.0,0.0,0.0,3.0,3.0,340.6392150000101,4.0,1.0,phase_1,,,,,,,,,,,,,white,I
106.0,6.0,2.0,1.0,3.0,3.0,385.0734149996242,4.0,1.0,phase_1,,,,,,,,,,,,,gray,triangle
0.0,6.0,0.0,1.0,2.0,2.0,270.6073709996417,4.0,1.0,phase_1,,,,,,,,,,,,,gray,triangle
198.0,3.0,3.0,0.0,3.0,3.0,371.9377940001322,4.0,1.0,phase_1,,,,,,,,,,,,,yellow,circle
31.0,1.0,1.0,0.0,4.0,4.0,425.3073479999329,4.0,1.0,phase_1,,,,,,,,,,,,,white,I
113.0,6.0,2.0,1.0,3.0,3.0,346.4741399998274,4.0,1.0,phase_1,,,,,,,,,,,,,gray,triangle
89.0,2.0,2.0,0.0,1.0,1.0,314.5959700000276,4.0,1.0,phase_1,,,,,,,,,,,,,magenta,flipped triangle
190.0,3.0,3.0,0.0,4.0,4.0,348.0379049997282,4.0,1.0,phase_1,,,,,,,,,,,,,yellow,circle
74.0,1.0,1.0,0.0,4.0,4.0,345.0482459998056,4.0,1.0,phase_1,,,,,,,,,,,,,white,I
39.0,1.0,1.0,0.0,3.0,3.0,294.3474440003228,4.0,1.0,phase_1,,,,,,,,,,,,,white,I
0.0,3.0,0.0,0.0,4.0,4.0,381.0354070001267,4.0,1.0,phase_1,,,,,,,,,,,,,yellow,circle
417.0,4.0,4.0,0.0,4.0,4.0,294.9345049996736,4.0,1.0,phase_1,,,,,,,,,,,,,blue,cross
194.0,3.0,3.0,0.0,4.0,4.0,316.565465000167,4.0,1.0,phase_1,,,,,,,,,,,,,yellow,circle
0.0,2.0,0.0,0.0,3.0,3.0,327.7130629999192,4.0,1.0,phase_1,,,,,,,,,,,,,magenta,flipped triangle
384.0,4.0,4.0,0.0,3.0,3.0,292.2767669997483,4.0,1.0,phase_1,,,,,,,,,,,,,blue,cross
0.0,3.0,0.0,0.0,3.0,3.0,335.3472750000037,4.0,2.0,phase_1,,,,,,,,,,,,,yellow,circle
0.0,3.0,0.0,0.0,4.0,4.0,412.6577880001605,4.0,1.0,phase_1,,,,,,,,,,,,,yellow,circle
76.0,6.0,2.0,1.0,4.0,4.0,480.6130080000912,4.0,1.0,phase_1,,,,,,,,,,,,,gray,triangle
0.0,7.0,3.0,1.0,5.0,0.0,0.0,1.0,1.0,phase_2,stop,250.0,250.0,4.0,,,,,,,,,green,diamond
0.0,7.0,3.0,1.0,5.0,5.0,402.1206459997302,1.0,1.0,phase_2,stop,300.0,250.0,3.0,,,,,,,,,green,diamond
0.0,1.0,1.0,0.0,5.0,5.0,571.4648940002007,1.0,1.0,phase_2,go,250.0,250.0,1.0,,,,,,,,,white,I
0.0,4.0,4.0,0.0,5.0,5.0,389.0180380003585,1.0,1.0,phase_2,go,250.0,250.0,1.0,,,,,,,,,blue,cross
0.0,4.0,4.0,0.0,6.0,6.0,674.4243389998701,1.0,1.0,phase_2,go,250.0,250.0,1.0,,,,,,,,,blue,cross
0.0,4.0,4.0,0.0,6.0,6.0,393.1123689999367,1.0,1.0,phase_2,go,250.0,250.0,1.0,,,,,,,,,blue,cross
0.0,6.0,2.0,1.0,6.0,6.0,399.0029099995809,1.0,1.0,phase_2,stop,250.0,250.0,3.0,,,,,,,,,gray,triangle
0.0,2.0,2.0,0.0,5.0,5.0,416.9622910003454,1.0,1.0,phase_2,go,250.0,200.0,1.0,,,,,,,,,magenta,flipped triangle
0.0,6.0,2.0,1.0,6.0,6.0,601.2134130000959,1.0,1.0,phase_2,go,250.0,200.0,1.0,,,,,,,,,gray,triangle
0.0,7.0,3.0,1.0,6.0,0.0,0.0,1.0,1.0,phase_2,stop,250.0,200.0,4.0,,,,,,,,,green,diamond
0.0,7.0,3.0,1.0,6.0,0.0,0.0,1.0,1.0,phase_2,stop,250.0,250.0,4.0,,,,,,,,,green,diamond
0.0,7.0,3.0,1.0,6.0,0.0,0.0,1.0,1.0,phase_2,stop,250.0,300.0,4.0,,,,,,,,,green,diamond
0.0,2.0,2.0,0.0,6.0,6.0,509.6599039998182,1.0,1.0,phase_2,go,250.0,350.0,1.0,,,,,,,,,magenta,flipped triangle
0.0,5.0,1.0,1.0,5.0,5.0,412.8651579999314,1.0,1.0,phase_2,go,250.0,350.0,1.0,,,,,,,,,orange,hexagon
0.0,5.0,1.0,1.0,5.0,5.0,404.7787360000257,1.0,1.0,phase_2,go,250.0,350.0,1.0,,,,,,,,,orange,hexagon
0.0,8.0,4.0,1.0,6.0,0.0,0.0,1.0,1.0,phase_2,stop,250.0,350.0,4.0,,,,,,,,,cyan,square
0.0,6.0,2.0,1.0,5.0,0.0,0.0,1.0,1.0,phase_2,stop,250.0,400.0,4.0,,,,,,,,,gray,triangle
0.0,2.0,2.0,0.0,6.0,6.0,740.7666619997144,1.0,1.0,phase_2,go,300.0,400.0,1.0,,,,,,,,,magenta,flipped triangle
0.0,4.0,4.0,0.0,5.0,5.0,489.7489340000902,1.0,1.0,phase_2,go,300.0,400.0,1.0,,,,,,,,,blue,cross
0.0,8.0,4.0,1.0,5.0,0.0,0.0,1.0,1.0,phase_2,stop,300.0,400.0,4.0,,,,,,,,,cyan,square
0.0,4.0,4.0,0.0,5.0,5.0,407.3759200000495,1.0,1.0,phase_2,go,350.0,400.0,1.0,,,,,,,,,blue,cross
0.0,8.0,4.0,1.0,5.0,5.0,770.0368119999439,1.0,1.0,phase_2,go,350.0,400.0,1.0,,,,,,,,,cyan,square
0.0,2.0,2.0,0.0,5.0,5.0,769.0835749999678,1.0,1.0,phase_2,go,350.0,400.0,1.0,,,,,,,,,magenta,flipped triangle
0.0,4.0,4.0,0.0,5.0,5.0,753.0940229999032,1.0,1.0,phase_2,go,350.0,400.0,1.0,,,,,,,,,blue,cross
0.0,2.0,2.0,0.0,6.0,6.0,679.3969059999654,1.0,1.0,phase_2,go,350.0,400.0,1.0,,,,,,,,,magenta,flipped triangle
0.0,4.0,4.0,0.0,5.0,5.0,551.6575990000092,1.0,1.0,phase_2,go,350.0,400.0,1.0,,,,,,,,,blue,cross
0.0,5.0,1.0,1.0,5.0,5.0,396.1755959999209,1.0,1.0,phase_2,stop,350.0,400.0,3.0,,,,,,,,,orange,hexagon
0.0,5.0,1.0,1.0,6.0,6.0,459.8487119997116,1.0,1.0,phase_2,go,300.0,400.0,1.0,,,,,,,,,orange,hexagon
0.0,3.0,3.0,0.0,5.0,5.0,723.7218699997356,1.0,1.0,phase_2,go,300.0,400.0,1.0,,,,,,,,,yellow,circle
0.0,6.0,2.0,1.0,6.0,0.0,0.0,1.0,1.0,phase_2,stop,300.0,400.0,4.0,,,,,,,,,gray,triangle
0.0,8.0,4.0,1.0,5.0,5.0,290.3688639999018,1.0,1.0,phase_2,stop,300.0,450.0,3.0,,,,,,,,,cyan,square
0.0,8.0,4.0,1.0,6.0,0.0,0.0,1.0,1.0,phase_2,stop,250.0,450.0,4.0,,,,,,,,,cyan,square
0.0,2.0,2.0,0.0,5.0,5.0,514.2947409999579,1.0,1.0,phase_2,go,250.0,500.0,1.0,,,,,,,,,magenta,flipped triangle
0.0,1.0,1.0,0.0,5.0,5.0,786.461521000092,1.0,1.0,phase_2,go,250.0,500.0,1.0,,,,,,,,,white,I
0.0,2.0,2.0,0.0,5.0,5.0,769.5716120001634,1.0,1.0,phase_2,go,250.0,500.0,1.0,,,,,,,,,magenta,flipped triangle
0.0,7.0,3.0,1.0,6.0,0.0,0.0,1.0,1.0,phase_2,stop,250.0,500.0,4.0,,,,,,,,,green,diamond
0.0,3.0,3.0,0.0,5.0,5.0,472.6275520001763,2.0,1.0,phase_2,go,250.0,550.0,1.0,,,,,,,,,yellow,circle
0.0,5.0,1.0,1.0,5.0,0.0,0.0,2.0,1.0,phase_2,stop,250.0,550.0,4.0,,,,,,,,,orange,hexagon
0.0,3.0,3.0,0.0,6.0,6.0,311.635706999823,2.0,1.0,phase_2,go,300.0,550.0,1.0,,,,,,,,,yellow,circle
0.0,7.0,3.0,1.0,6.0,6.0,431.3796440001169,2.0,1.0,phase_2,stop,300.0,550.0,3.0,,,,,,,,,green,diamond
0.0,2.0,2.0,0.0,6.0,6.0,829.2263169996659,2.0,1.0,phase_2,go,300.0,500.0,1.0,,,,,,,,,magenta,flipped triangle
0.0,2.0,2.0,0.0,6.0,6.0,773.5041310002089,2.0,1.0,phase_2,go,300.0,500.0,1.0,,,,,,,,,magenta,flipped triangle
0.0,5.0,1.0,1.0,5.0,0.0,0.0,2.0,1.0,phase_2,stop,300.0,500.0,4.0,,,,,,,,,orange,hexagon
0.0,3.0,3.0,0.0,6.0,6.0,523.9391300001444,2.0,1.0,phase_2,go,350.0,500.0,1.0,,,,,,,,,yellow,circle
0.0,8.0,4.0,1.0,5.0,0.0,0.0,2.0,1.0,phase_2,stop,350.0,500.0,4.0,,,,,,,,,cyan,square
0.0,2.0,2.0,0.0,5.0,5.0,429.0877819998968,2.0,1.0,phase_2,go,400.0,500.0,1.0,,,,,,,,,magenta,flipped triangle
0.0,1.0,1.0,0.0,6.0,6.0,505.8302709999225,2.0,1.0,phase_2,go,400.0,500.0,1.0,,,,,,,,,white,I
0.0,6.0,2.0,1.0,5.0,0.0,0.0,2.0,1.0,phase_2,stop,400.0,500.0,4.0,,,,,,,,,gray,triangle
0.0,7.0,3.0,1.0,6.0,6.0,424.6858240003348,2.0,1.0,phase_2,go,450.0,500.0,1.0,,,,,,,,,green,diamond
0.0,3.0,3.0,0.0,6.0,6.0,696.6779829999723,2.0,1.0,phase_2,go,450.0,500.0,1.0,,,,,,,,,yellow,circle
0.0,2.0,2.0,0.0,5.0,5.0,711.3535680000496,2.0,1.0,phase_2,go,450.0,500.0,1.0,,,,,,,,,magenta,flipped triangle
0.0,3.0,3.0,0.0,5.0,5.0,440.2885750000678,2.0,1.0,phase_2,go,450.0,500.0,1.0,,,,,,,,,yellow,circle
0.0,8.0,4.0,1.0,6.0,0.0,0.0,2.0,1.0,phase_2,stop,450.0,500.0,4.0,,,,,,,,,cyan,square
0.0,2.0,2.0,0.0,6.0,6.0,630.2749879996554,2.0,1.0,phase_2,go,450.0,550.0,1.0,,,,,,,,,magenta,flipped triangle
0.0,7.0,3.0,1.0,5.0,0.0,0.0,2.0,1.0,phase_2,stop,450.0,550.0,4.0,,,,,,,,,green,diamond
0.0,1.0,1.0,0.0,6.0,6.0,343.4587100000499,2.0,1.0,phase_2,go,500.0,550.0,1.0,,,,,,,,,white,I
0.0,2.0,2.0,0.0,6.0,6.0,629.9904870002138,2.0,1.0,phase_2,go,500.0,550.0,1.0,,,,,,,,,magenta,flipped triangle
0.0,7.0,3.0,1.0,5.0,0.0,0.0,2.0,1.0,phase_2,stop,500.0,550.0,4.0,,,,,,,,,green,diamond
0.0,7.0,3.0,1.0,5.0,5.0,575.9349319996545,2.0,1.0,phase_2,stop,550.0,550.0,3.0,,,,,,,,,green,diamond
0.0,1.0,1.0,0.0,5.0,5.0,530.5770939999093,2.0,1.0,phase_2,go,500.0,550.0,1.0,,,,,,,,,white,I
0.0,5.0,1.0,1.0,5.0,0.0,0.0,2.0,1.0,phase_2,stop,500.0,550.0,4.0,,,,,,,,,orange,hexagon
0.0,2.0,2.0,0.0,5.0,5.0,732.4584339999092,2.0,1.0,phase_2,go,550.0,550.0,1.0,,,,,,,,,magenta,flipped triangle
0.0,5.0,1.0,1.0,5.0,0.0,0.0,2.0,1.0,phase_2,stop,550.0,550.0,4.0,,,,,,,,,orange,hexagon
0.0,7.0,3.0,1.0,5.0,5.0,673.7840880000476,2.0,1.0,phase_2,stop,600.0,550.0,3.0,,,,,,,,,green,diamond
0.0,8.0,4.0,1.0,6.0,6.0,666.1527599999317,2.0,1.0,phase_2,stop,550.0,550.0,3.0,,,,,,,,,cyan,square
0.0,2.0,2.0,0.0,6.0,6.0,798.4592610000618,2.0,1.0,phase_2,go,550.0,500.0,1.0,,,,,,,,,magenta,flipped triangle
0.0,7.0,3.0,1.0,5.0,0.0,0.0,2.0,1.0,phase_2,stop,550.0,500.0,4.0,,,,,,,,,green,diamond
0.0,5.0,1.0,1.0,6.0,6.0,471.3302610002756,2.0,1.0,phase_2,stop,600.0,500.0,3.0,,,,,,,,,orange,hexagon
0.0,4.0,4.0,0.0,6.0,6.0,870.2395600003001,2.0,1.0,phase_2,go,600.0,450.0,1.0,,,,,,,,,blue,cross
0.0,1.0,1.0,0.0,5.0,5.0,941.435552999792,2.0,1.0,phase_2,go,600.0,450.0,1.0,,,,,,,,,white,I
0.0,7.0,3.0,1.0,6.0,0.0,0.0,2.0,1.0,phase_2,stop,600.0,450.0,4.0,,,,,,,,,green,diamond
0.0,6.0,2.0,1.0,6.0,0.0,0.0,2.0,1.0,phase_2,stop,600.0,500.0,4.0,,,,,,,,,gray,triangle
0.0,2.0,2.0,0.0,5.0,5.0,773.8843020001696,3.0,1.0,phase_2,go,600.0,550.0,1.0,,,,,,,,,magenta,flipped triangle
0.0,8.0,4.0,1.0,6.0,6.0,672.9181910000079,3.0,1.0,phase_2,stop,600.0,550.0,3.0,,,,,,,,,cyan,square
0.0,4.0,4.0,0.0,5.0,5.0,972.5029470000665,3.0,1.0,phase_2,go,600.0,500.0,1.0,,,,,,,,,blue,cross
0.0,4.0,4.0,0.0,5.0,5.0,926.7894579998028,3.0,1.0,phase_2,go,600.0,500.0,1.0,,,,,,,,,blue,cross
0.0,3.0,3.0,0.0,6.0,6.0,838.1945239998458,3.0,1.0,phase_2,go,600.0,500.0,1.0,,,,,,,,,yellow,circle
0.0,2.0,2.0,0.0,5.0,5.0,980.2451619998463,3.0,1.0,phase_2,go,600.0,500.0,1.0,,,,,,,,,magenta,flipped triangle
0.0,8.0,4.0,1.0,5.0,0.0,0.0,3.0,1.0,phase_2,stop,600.0,500.0,4.0,,,,,,,,,cyan,square
0.0,7.0,3.0,1.0,5.0,5.0,996.4687930000764,3.0,1.0,phase_2,go,650.0,500.0,1.0,,,,,,,,,green,diamond
0.0,1.0,1.0,0.0,6.0,6.0,978.996450000068,3.0,1.0,phase_2,go,650.0,500.0,1.0,,,,,,,,,white,I
0.0,5.0,1.0,1.0,6.0,0.0,0.0,3.0,1.0,phase_2,stop,650.0,500.0,4.0,,,,,,,,,orange,hexagon
0.0,5.0,1.0,1.0,6.0,6.0,424.124846000268,3.0,1.0,phase_2,go,650.0,550.0,1.0,,,,,,,,,orange,hexagon
0.0,3.0,3.0,0.0,6.0,6.0,752.154358000098,3.0,1.0,phase_2,go,650.0,550.0,1.0,,,,,,,,,yellow,circle
0.0,6.0,2.0,1.0,6.0,6.0,506.89474599994355,3.0,1.0,phase_2,stop,650.0,550.0,3.0,,,,,,,,,gray,triangle
0.0,4.0,4.0,0.0,5.0,5.0,934.7923880000052,3.0,1.0,phase_2,go,650.0,500.0,1.0,,,,,,,,,blue,cross
0.0,1.0,1.0,0.0,5.0,5.0,943.1562979998488,3.0,1.0,phase_2,go,650.0,500.0,1.0,,,,,,,,,white,I
0.0,2.0,2.0,0.0,5.0,5.0,918.9770910002152,3.0,1.0,phase_2,go,650.0,500.0,1.0,,,,,,,,,magenta,flipped triangle
0.0,1.0,1.0,0.0,6.0,6.0,757.0792579999761,3.0,1.0,phase_2,go,650.0,500.0,1.0,,,,,,,,,white,I
0.0,2.0,2.0,0.0,5.0,5.0,447.3670010002024,3.0,1.0,phase_2,go,650.0,500.0,1.0,,,,,,,,,magenta,flipped triangle
0.0,5.0,1.0,1.0,5.0,5.0,419.308588000149,3.0,1.0,phase_2,stop,650.0,500.0,3.0,,,,,,,,,orange,hexagon
0.0,3.0,3.0,0.0,5.0,5.0,427.0845940000072,3.0,1.0,phase_2,go,600.0,500.0,1.0,,,,,,,,,yellow,circle
0.0,2.0,2.0,0.0,6.0,6.0,844.5887480002057,3.0,1.0,phase_2,go,600.0,500.0,1.0,,,,,,,,,magenta,flipped triangle
0.0,5.0,1.0,1.0,6.0,6.0,826.5685629999098,3.0,1.0,phase_2,go,600.0,500.0,1.0,,,,,,,,,orange,hexagon
0.0,7.0,3.0,1.0,5.0,0.0,0.0,3.0,1.0,phase_2,stop,600.0,500.0,4.0,,,,,,,,,green,diamond
0.0,7.0,3.0,1.0,5.0,5.0,713.014123999983,3.0,1.0,phase_2,stop,650.0,500.0,3.0,,,,,,,,,green,diamond
0.0,8.0,4.0,1.0,5.0,5.0,866.2815259999661,3.0,1.0,phase_2,go,600.0,500.0,1.0,,,,,,,,,cyan,square
0.0,2.0,2.0,0.0,6.0,6.0,810.478993000288,3.0,1.0,phase_2,go,600.0,500.0,1.0,,,,,,,,,magenta,flipped triangle
0.0,6.0,2.0,1.0,6.0,6.0,639.209825999842,3.0,1.0,phase_2,stop,600.0,500.0,3.0,,,,,,,,,gray,triangle
0.0,1.0,1.0,0.0,6.0,6.0,887.2588550002547,3.0,1.0,phase_2,go,600.0,450.0,1.0,,,,,,,,,white,I
0.0,6.0,2.0,1.0,6.0,0.0,0.0,3.0,1.0,phase_2,stop,600.0,450.0,4.0,,,,,,,,,gray,triangle
0.0,5.0,1.0,1.0,6.0,0.0,0.0,3.0,1.0,phase_2,stop,600.0,500.0,4.0,,,,,,,,,orange,hexagon
0.0,1.0,1.0,0.0,5.0,5.0,734.4099550000465,3.0,1.0,phase_2,go,600.0,550.0,1.0,,,,,,,,,white,I
0.0,4.0,4.0,0.0,6.0,6.0,933.0984280004486,3.0,1.0,phase_2,go,600.0,550.0,1.0,,,,,,,,,blue,cross
0.0,3.0,3.0,0.0,5.0,5.0,798.5519190006016,3.0,1.0,phase_2,go,600.0,550.0,1.0,,,,,,,,,yellow,circle
0.0,8.0,4.0,1.0,5.0,0.0,0.0,3.0,1.0,phase_2,stop,600.0,550.0,4.0,,,,,,,,,cyan,square
0.0,7.0,3.0,1.0,5.0,5.0,672.7189969997198,3.0,1.0,phase_2,stop,650.0,550.0,3.0,,,,,,,,,green,diamond
0.0,6.0,2.0,1.0,5.0,5.0,717.9138069996043,3.0,1.0,phase_2,go,600.0,550.0,1.0,,,,,,,,,gray,triangle
0.0,8.0,4.0,1.0,5.0,0.0,0.0,4.0,1.0,phase_2,stop,600.0,550.0,4.0,,,,,,,,,cyan,square
0.0,1.0,1.0,0.0,6.0,6.0,361.3828110001122,4.0,1.0,phase_2,go,650.0,550.0,1.0,,,,,,,,,white,I
0.0,6.0,2.0,1.0,5.0,0.0,0.0,4.0,1.0,phase_2,stop,650.0,550.0,4.0,,,,,,,,,gray,triangle
0.0,4.0,4.0,0.0,5.0,5.0,498.2055469999977,4.0,1.0,phase_2,go,700.0,550.0,1.0,,,,,,,,,blue,cross
0.0,7.0,3.0,1.0,6.0,6.0,913.060439000219,4.0,1.0,phase_2,go,700.0,550.0,1.0,,,,,,,,,green,diamond
0.0,8.0,4.0,1.0,5.0,5.0,853.7470199999007,4.0,1.0,phase_2,stop,700.0,550.0,3.0,,,,,,,,,cyan,square
0.0,3.0,3.0,0.0,5.0,5.0,838.9623319999373,4.0,1.0,phase_2,go,650.0,550.0,1.0,,,,,,,,,yellow,circle
0.0,6.0,2.0,1.0,6.0,0.0,0.0,4.0,1.0,phase_2,stop,650.0,550.0,4.0,,,,,,,,,gray,triangle
0.0,4.0,4.0,0.0,6.0,6.0,683.6283140000887,4.0,1.0,phase_2,go,650.0,600.0,1.0,,,,,,,,,blue,cross
0.0,1.0,1.0,0.0,5.0,5.0,684.5681400000103,4.0,1.0,phase_2,go,650.0,600.0,1.0,,,,,,,,,white,I
0.0,1.0,1.0,0.0,6.0,6.0,541.5982750000694,4.0,1.0,phase_2,go,650.0,600.0,1.0,,,,,,,,,white,I
0.0,5.0,1.0,1.0,5.0,0.0,0.0,4.0,1.0,phase_2,stop,650.0,600.0,4.0,,,,,,,,,orange,hexagon
0.0,2.0,2.0,0.0,5.0,5.0,1018.2482330001219,4.0,1.0,phase_2,go,700.0,600.0,1.0,,,,,,,,,magenta,flipped triangle
0.0,8.0,4.0,1.0,6.0,0.0,0.0,4.0,1.0,phase_2,stop,700.0,600.0,4.0,,,,,,,,,cyan,square
0.0,4.0,4.0,0.0,5.0,5.0,704.8920670004009,4.0,1.0,phase_2,go,700.0,650.0,1.0,,,,,,,,,blue,cross
0.0,6.0,2.0,1.0,6.0,6.0,546.2607279996519,4.0,1.0,phase_2,go,700.0,650.0,1.0,,,,,,,,,gray,triangle
0.0,7.0,3.0,1.0,6.0,0.0,0.0,4.0,1.0,phase_2,stop,700.0,650.0,4.0,,,,,,,,,green,diamond
0.0,4.0,4.0,0.0,6.0,6.0,474.33147799984,4.0,1.0,phase_2,go,700.0,700.0,1.0,,,,,,,,,blue,cross
0.0,1.0,1.0,0.0,5.0,5.0,905.3198749998046,4.0,1.0,phase_2,go,700.0,700.0,1.0,,,,,,,,,white,I
0.0,8.0,4.0,1.0,5.0,0.0,0.0,4.0,1.0,phase_2,stop,700.0,700.0,4.0,,,,,,,,,cyan,square
0.0,6.0,2.0,1.0,5.0,5.0,831.4256969997587,4.0,1.0,phase_2,stop,750.0,700.0,3.0,,,,,,,,,gray,triangle
0.0,8.0,4.0,1.0,5.0,5.0,720.5960370001776,4.0,1.0,phase_2,stop,700.0,700.0,3.0,,,,,,,,,cyan,square
0.0,1.0,1.0,0.0,6.0,6.0,680.2823759999228,4.0,1.0,phase_2,go,650.0,700.0,1.0,,,,,,,,,white,I
0.0,4.0,4.0,0.0,5.0,5.0,1004.1780560004554,4.0,1.0,phase_2,go,650.0,700.0,1.0,,,,,,,,,blue,cross
0.0,1.0,1.0,0.0,6.0,6.0,622.7453990004506,4.0,1.0,phase_2,go,650.0,700.0,1.0,,,,,,,,,white,I
0.0,5.0,1.0,1.0,5.0,5.0,565.6952939998519,4.0,1.0,phase_2,stop,650.0,700.0,3.0,,,,,,,,,orange,hexagon
0.0,5.0,1.0,1.0,6.0,6.0,554.0567710004325,4.0,1.0,phase_2,go,600.0,700.0,1.0,,,,,,,,,orange,hexagon
0.0,5.0,1.0,1.0,5.0,5.0,716.1984390004363,4.0,1.0,phase_2,go,600.0,700.0,1.0,,,,,,,,,orange,hexagon
0.0,2.0,2.0,0.0,6.0,6.0,955.5512050001198,4.0,1.0,phase_2,go,600.0,700.0,1.0,,,,,,,,,magenta,flipped triangle
0.0,7.0,3.0,1.0,5.0,0.0,0.0,4.0,1.0,phase_2,stop,600.0,700.0,4.0,,,,,,,,,green,diamond
0.0,7.0,3.0,1.0,6.0,6.0,768.2746660002522,4.0,1.0,phase_2,stop,650.0,700.0,3.0,,,,,,,,,green,diamond
0.0,1.0,1.0,0.0,6.0,6.0,611.2500600002022,4.0,1.0,phase_2,go,650.0,650.0,1.0,,,,,,,,,white,I
0.0,5.0,1.0,1.0,6.0,0.0,0.0,4.0,1.0,phase_2,stop,650.0,650.0,4.0,,,,,,,,,orange,hexagon
0.0,1.0,1.0,0.0,6.0,6.0,902.8633640000407,4.0,1.0,phase_2,go,650.0,700.0,1.0,,,,,,,,,white,I
0.0,1.0,1.0,0.0,6.0,6.0,1063.9525810001942,4.0,1.0,phase_2,go,650.0,700.0,1.0,,,,,,,,,white,I
0.0,7.0,3.0,1.0,5.0,5.0,807.1216200005438,4.0,1.0,phase_2,go,650.0,700.0,1.0,,,,,,,,,green,diamond
0.0,6.0,2.0,1.0,5.0,0.0,0.0,5.0,1.0,phase_2,go,650.0,700.0,5.0,,,,,,,,,gray,triangle
0.0,2.0,2.0,0.0,6.0,0.0,0.0,5.0,1.0,phase_2,go,650.0,700.0,5.0,,,,,,,,,magenta,flipped triangle
0.0,4.0,4.0,0.0,6.0,6.0,342.8546650002317,5.0,1.0,phase_2,go,650.0,700.0,1.0,,,,,,,,,blue,cross
0.0,3.0,3.0,0.0,5.0,5.0,253.5664730003191,5.0,1.0,phase_2,go,650.0,700.0,1.0,,,,,,,,,yellow,circle
0.0,3.0,3.0,0.0,6.0,6.0,253.59049100006808,5.0,1.0,phase_2,go,650.0,700.0,1.0,,,,,,,,,yellow,circle
0.0,3.0,3.0,0.0,5.0,5.0,252.7020640000046,5.0,1.0,phase_2,go,650.0,700.0,1.0,,,,,,,,,yellow,circle
0.0,7.0,3.0,1.0,5.0,5.0,622.4459369996111,5.0,1.0,phase_2,stop,650.0,700.0,3.0,,,,,,,,,green,diamond
0.0,8.0,4.0,1.0,5.0,5.0,666.9344729998556,5.0,1.0,phase_2,go,600.0,700.0,1.0,,,,,,,,,cyan,square
0.0,1.0,1.0,0.0,5.0,5.0,501.8992209998032,5.0,1.0,phase_2,go,600.0,700.0,1.0,,,,,,,,,white,I
0.0,3.0,3.0,0.0,6.0,6.0,490.8352630000081,5.0,1.0,phase_2,go,600.0,700.0,1.0,,,,,,,,,yellow,circle
0.0,5.0,1.0,1.0,6.0,6.0,314.213607000056,5.0,1.0,phase_2,stop,600.0,700.0,3.0,,,,,,,,,orange,hexagon
0.0,7.0,3.0,1.0,6.0,6.0,327.8809499997805,5.0,1.0,phase_2,stop,600.0,650.0,3.0,,,,,,,,,green,diamond
0.0,3.0,3.0,0.0,5.0,5.0,215.5806299997493,5.0,1.0,phase_2,go,600.0,600.0,1.0,,,,,,,,,yellow,circle
0.0,4.0,4.0,0.0,6.0,6.0,326.7063100001905,5.0,1.0,phase_2,go,600.0,600.0,1.0,,,,,,,,,blue,cross
0.0,8.0,4.0,1.0,5.0,5.0,249.9791689997437,5.0,1.0,phase_2,stop,600.0,600.0,3.0,,,,,,,,,cyan,square
0.0,6.0,2.0,1.0,6.0,6.0,465.1920830001472,5.0,1.0,phase_2,go,550.0,600.0,1.0,,,,,,,,,gray,triangle
0.0,2.0,2.0,0.0,6.0,6.0,581.3319009994302,5.0,1.0,phase_2,go,550.0,600.0,1.0,,,,,,,,,magenta,flipped triangle
0.0,4.0,4.0,0.0,6.0,6.0,342.6770119995126,5.0,1.0,phase_2,go,550.0,600.0,1.0,,,,,,,,,blue,cross
0.0,1.0,1.0,0.0,5.0,5.0,636.2351139996463,5.0,1.0,phase_2,go,550.0,600.0,1.0,,,,,,,,,white,I
0.0,3.0,3.0,0.0,5.0,5.0,420.0012789997345,5.0,1.0,phase_2,go,550.0,600.0,1.0,,,,,,,,,yellow,circle
0.0,7.0,3.0,1.0,6.0,6.0,573.2431569995242,5.0,1.0,phase_2,go,550.0,600.0,1.0,,,,,,,,,green,diamond
0.0,2.0,2.0,0.0,5.0,5.0,354.4425339996451,5.0,1.0,phase_2,go,550.0,600.0,1.0,,,,,,,,,magenta,flipped triangle
0.0,4.0,4.0,0.0,5.0,5.0,593.8909819997207,5.0,1.0,phase_2,go,550.0,600.0,1.0,,,,,,,,,blue,cross
0.0,6.0,2.0,1.0,6.0,6.0,481.66662299991,5.0,1.0,phase_2,stop,550.0,600.0,3.0,,,,,,,,,gray,triangle
0.0,5.0,1.0,1.0,5.0,5.0,778.6854030000541,5.0,1.0,phase_2,stop,550.0,550.0,3.0,,,,,,,,,orange,hexagon
0.0,1.0,1.0,0.0,6.0,6.0,379.9839200000861,5.0,1.0,phase_2,go,500.0,550.0,1.0,,,,,,,,,white,I
0.0,3.0,3.0,0.0,5.0,5.0,626.2931910005136,5.0,1.0,phase_2,go,500.0,550.0,1.0,,,,,,,,,yellow,circle
0.0,1.0,1.0,0.0,6.0,6.0,599.541089000013,5.0,1.0,phase_2,go,500.0,550.0,1.0,,,,,,,,,white,I
0.0,6.0,2.0,1.0,5.0,5.0,559.227744999589,5.0,1.0,phase_2,stop,500.0,550.0,3.0,,,,,,,,,gray,triangle
0.0,7.0,3.0,1.0,6.0,6.0,254.83497200002603,5.0,1.0,phase_2,go,450.0,550.0,1.0,,,,,,,,,green,diamond
0.0,2.0,2.0,0.0,5.0,5.0,493.4890479999012,5.0,1.0,phase_2,go,450.0,550.0,1.0,,,,,,,,,magenta,flipped triangle
0.0,1.0,1.0,0.0,5.0,5.0,351.3411099993391,5.0,1.0,phase_2,go,450.0,550.0,1.0,,,,,,,,,white,I
0.0,2.0,2.0,0.0,6.0,6.0,414.6777070000098,5.0,1.0,phase_2,go,450.0,550.0,1.0,,,,,,,,,magenta,flipped triangle
0.0,8.0,4.0,1.0,5.0,5.0,395.9479699997246,5.0,1.0,phase_2,stop,450.0,550.0,3.0,,,,,,,,,cyan,square
0.0,6.0,2.0,1.0,5.0,5.0,486.4236509993134,5.0,1.0,phase_2,stop,400.0,550.0,3.0,,,,,,,,,gray,triangle
0.0,1.0,1.0,0.0,5.0,5.0,708.8546420000057,5.0,1.0,phase_2,go,350.0,550.0,1.0,,,,,,,,,white,I
0.0,4.0,4.0,0.0,6.0,6.0,1064.5047149992024,6.0,1.0,phase_2,go,350.0,550.0,1.0,,,,,,,,,blue,cross
0.0,1.0,1.0,0.0,6.0,6.0,398.7085569997362,6.0,1.0,phase_2,go,350.0,550.0,1.0,,,,,,,,,white,I
0.0,7.0,3.0,1.0,6.0,6.0,365.3113639993535,6.0,1.0,phase_2,stop,350.0,550.0,3.0,,,,,,,,,green,diamond
0.0,3.0,3.0,0.0,6.0,6.0,429.9178390001543,6.0,1.0,phase_2,go,350.0,500.0,1.0,,,,,,,,,yellow,circle
0.0,3.0,3.0,0.0,6.0,6.0,436.9255490000796,6.0,1.0,phase_2,go,350.0,500.0,1.0,,,,,,,,,yellow,circle
0.0,6.0,2.0,1.0,5.0,0.0,0.0,6.0,1.0,phase_2,stop,350.0,500.0,4.0,,,,,,,,,gray,triangle
0.0,7.0,3.0,1.0,6.0,6.0,229.4303259996013,6.0,1.0,phase_2,stop,400.0,500.0,3.0,,,,,,,,,green,diamond
0.0,2.0,2.0,0.0,5.0,5.0,273.5739540003123,6.0,1.0,phase_2,go,400.0,450.0,1.0,,,,,,,,,magenta,flipped triangle
0.0,5.0,1.0,1.0,5.0,5.0,299.3850060001932,6.0,1.0,phase_2,stop,400.0,450.0,3.0,,,,,,,,,orange,hexagon
0.0,5.0,1.0,1.0,6.0,6.0,313.9039029993,6.0,1.0,phase_2,stop,350.0,450.0,3.0,,,,,,,,,orange,hexagon
0.0,2.0,2.0,0.0,5.0,5.0,563.1829780004409,6.0,1.0,phase_2,go,350.0,400.0,1.0,,,,,,,,,magenta,flipped triangle
0.0,8.0,4.0,1.0,5.0,0.0,0.0,6.0,1.0,phase_2,stop,350.0,400.0,4.0,,,,,,,,,cyan,square
0.0,6.0,2.0,1.0,5.0,5.0,598.0428699995173,6.0,1.0,phase_2,go,400.0,400.0,1.0,,,,,,,,,gray,triangle
0.0,1.0,1.0,0.0,5.0,5.0,431.5269490007267,6.0,1.0,phase_2,go,400.0,400.0,1.0,,,,,,,,,white,I
0.0,8.0,4.0,1.0,6.0,0.0,0.0,6.0,1.0,phase_2,stop,400.0,400.0,4.0,,,,,,,,,cyan,square
0.0,5.0,1.0,1.0,6.0,6.0,510.3590119997534,6.0,1.0,phase_2,stop,400.0,450.0,3.0,,,,,,,,,orange,hexagon
0.0,1.0,1.0,0.0,6.0,6.0,509.865651999462,6.0,1.0,phase_2,go,400.0,400.0,1.0,,,,,,,,,white,I
0.0,1.0,1.0,0.0,5.0,5.0,478.584738999416,6.0,1.0,phase_2,go,400.0,400.0,1.0,,,,,,,,,white,I
0.0,5.0,1.0,1.0,5.0,5.0,566.0165339995729,6.0,1.0,phase_2,stop,400.0,400.0,3.0,,,,,,,,,orange,hexagon
0.0,4.0,4.0,0.0,6.0,6.0,618.1017979997705,6.0,1.0,phase_2,go,350.0,400.0,1.0,,,,,,,,,blue,cross
0.0,3.0,3.0,0.0,5.0,5.0,364.1517309997653,6.0,1.0,phase_2,go,350.0,400.0,1.0,,,,,,,,,yellow,circle
0.0,3.0,3.0,0.0,5.0,5.0,370.1106200005597,6.0,1.0,phase_2,go,350.0,400.0,1.0,,,,,,,,,yellow,circle
0.0,7.0,3.0,1.0,5.0,0.0,0.0,6.0,1.0,phase_2,stop,350.0,400.0,4.0,,,,,,,,,green,diamond
0.0,8.0,4.0,1.0,6.0,6.0,504.5642009999938,6.0,1.0,phase_2,stop,400.0,400.0,3.0,,,,,,,,,cyan,square
0.0,8.0,4.0,1.0,6.0,6.0,616.4392470000166,6.0,1.0,phase_2,go,400.0,350.0,1.0,,,,,,,,,cyan,square
0.0,2.0,2.0,0.0,6.0,6.0,384.3508600002678,6.0,1.0,phase_2,go,400.0,350.0,1.0,,,,,,,,,magenta,flipped triangle
0.0,7.0,3.0,1.0,5.0,5.0,551.2686499996562,6.0,1.0,phase_2,stop,400.0,350.0,3.0,,,,,,,,,green,diamond
0.0,4.0,4.0,0.0,5.0,5.0,663.8376170003539,6.0,1.0,phase_2,go,350.0,350.0,1.0,,,,,,,,,blue,cross
0.0,6.0,2.0,1.0,6.0,0.0,0.0,6.0,1.0,phase_2,stop,350.0,350.0,4.0,,,,,,,,,gray,triangle
0.0,4.0,4.0,0.0,6.0,6.0,600.6878259995574,6.0,1.0,phase_2,go,350.0,400.0,1.0,,,,,,,,,blue,cross
0.0,5.0,1.0,1.0,6.0,0.0,0.0,6.0,1.0,phase_2,stop,350.0,400.0,4.0,,,,,,,,,orange,hexagon
0.0,7.0,3.0,1.0,6.0,6.0,510.67654300004506,6.0,1.0,phase_2,go,350.0,450.0,1.0,,,,,,,,,green,diamond
0.0,2.0,2.0,0.0,6.0,6.0,709.0377219992661,6.0,1.0,phase_2,go,350.0,450.0,1.0,,,,,,,,,magenta,flipped triangle
0.0,6.0,2.0,1.0,5.0,0.0,0.0,6.0,1.0,phase_2,stop,350.0,450.0,4.0,,,,,,,,,gray,triangle
0.0,1.0,1.0,0.0,6.0,6.0,363.4820590004892,6.0,1.0,phase_2,go,400.0,450.0,1.0,,,,,,,,,white,I
0.0,8.0,4.0,1.0,6.0,6.0,523.9804720004031,6.0,1.0,phase_2,stop,400.0,450.0,3.0,,,,,,,,,cyan,square
0.0,3.0,3.0,0.0,5.0,5.0,1076.9757190000746,7.0,1.0,phase_2,go,400.0,400.0,1.0,,,,,,,,,yellow,circle
0.0,7.0,3.0,1.0,5.0,5.0,388.6618919996181,7.0,1.0,phase_2,stop,400.0,400.0,3.0,,,,,,,,,green,diamond
0.0,4.0,4.0,0.0,6.0,6.0,293.071005999991,7.0,1.0,phase_2,go,350.0,400.0,1.0,,,,,,,,,blue,cross
0.0,3.0,3.0,0.0,6.0,6.0,404.1857309994157,7.0,1.0,phase_2,go,350.0,400.0,1.0,,,,,,,,,yellow,circle
0.0,4.0,4.0,0.0,5.0,5.0,762.9035829995701,7.0,1.0,phase_2,go,350.0,400.0,1.0,,,,,,,,,blue,cross
0.0,1.0,1.0,0.0,5.0,5.0,611.3182009994489,7.0,1.0,phase_2,go,350.0,400.0,1.0,,,,,,,,,white,I
0.0,4.0,4.0,0.0,6.0,6.0,482.9455980006969,7.0,1.0,phase_2,go,350.0,400.0,1.0,,,,,,,,,blue,cross
0.0,1.0,1.0,0.0,5.0,5.0,609.0772890001972,7.0,1.0,phase_2,go,350.0,400.0,1.0,,,,,,,,,white,I
0.0,8.0,4.0,1.0,6.0,6.0,808.8510760007921,7.0,1.0,phase_2,go,350.0,400.0,1.0,,,,,,,,,cyan,square
0.0,2.0,2.0,0.0,6.0,6.0,448.6110600000756,7.0,1.0,phase_2,go,350.0,400.0,1.0,,,,,,,,,magenta,flipped triangle
0.0,5.0,1.0,1.0,6.0,0.0,0.0,7.0,1.0,phase_2,stop,350.0,400.0,4.0,,,,,,,,,orange,hexagon
0.0,3.0,3.0,0.0,6.0,6.0,535.6534080001438,7.0,1.0,phase_2,go,350.0,450.0,1.0,,,,,,,,,yellow,circle
0.0,7.0,3.0,1.0,6.0,0.0,0.0,7.0,1.0,phase_2,stop,350.0,450.0,4.0,,,,,,,,,green,diamond
0.0,8.0,4.0,1.0,6.0,0.0,0.0,7.0,1.0,phase_2,stop,350.0,500.0,4.0,,,,,,,,,cyan,square
0.0,4.0,4.0,0.0,5.0,5.0,473.1478249996144,7.0,1.0,phase_2,go,350.0,550.0,1.0,,,,,,,,,blue,cross
0.0,3.0,3.0,0.0,6.0,6.0,600.1981409999644,7.0,1.0,phase_2,go,350.0,550.0,1.0,,,,,,,,,yellow,circle
0.0,8.0,4.0,1.0,6.0,6.0,735.485707999942,7.0,1.0,phase_2,go,350.0,550.0,1.0,,,,,,,,,cyan,square
0.0,2.0,2.0,0.0,6.0,6.0,710.8723669998653,7.0,1.0,phase_2,go,350.0,550.0,1.0,,,,,,,,,magenta,flipped triangle
0.0,4.0,4.0,0.0,5.0,5.0,631.4862239996728,7.0,1.0,phase_2,go,350.0,550.0,1.0,,,,,,,,,blue,cross
0.0,3.0,3.0,0.0,6.0,6.0,468.1370289999904,7.0,1.0,phase_2,go,350.0,550.0,1.0,,,,,,,,,yellow,circle
0.0,5.0,1.0,1.0,5.0,5.0,642.3783279997224,7.0,1.0,phase_2,go,350.0,550.0,1.0,,,,,,,,,orange,hexagon
0.0,5.0,1.0,1.0,5.0,5.0,411.8404689997987,7.0,1.0,phase_2,stop,350.0,550.0,3.0,,,,,,,,,orange,hexagon
0.0,5.0,1.0,1.0,5.0,0.0,0.0,7.0,1.0,phase_2,stop,300.0,550.0,4.0,,,,,,,,,orange,hexagon
0.0,6.0,2.0,1.0,5.0,5.0,555.0451979997888,7.0,1.0,phase_2,go,350.0,550.0,1.0,,,,,,,,,gray,triangle
0.0,5.0,1.0,1.0,6.0,6.0,640.6847900007051,7.0,1.0,phase_2,stop,350.0,550.0,3.0,,,,,,,,,orange,hexagon
0.0,1.0,1.0,0.0,5.0,5.0,650.8368389995667,7.0,1.0,phase_2,go,350.0,500.0,1.0,,,,,,,,,white,I
0.0,3.0,3.0,0.0,6.0,6.0,583.4854790000463,7.0,1.0,phase_2,go,350.0,500.0,1.0,,,,,,,,,yellow,circle
0.0,3.0,3.0,0.0,6.0,6.0,384.732514999996,7.0,1.0,phase_2,go,350.0,500.0,1.0,,,,,,,,,yellow,circle
0.0,2.0,2.0,0.0,5.0,5.0,649.7538349995011,7.0,1.0,phase_2,go,350.0,500.0,1.0,,,,,,,,,magenta,flipped triangle
0.0,8.0,4.0,1.0,5.0,5.0,655.0629820003451,7.0,1.0,phase_2,go,350.0,500.0,1.0,,,,,,,,,cyan,square
0.0,3.0,3.0,0.0,6.0,6.0,656.8367939999007,7.0,1.0,phase_2,go,350.0,500.0,1.0,,,,,,,,,yellow,circle
0.0,8.0,4.0,1.0,5.0,0.0,0.0,7.0,1.0,phase_2,stop,350.0,500.0,4.0,,,,,,,,,cyan,square
0.0,5.0,1.0,1.0,5.0,0.0,0.0,7.0,1.0,phase_2,stop,400.0,500.0,4.0,,,,,,,,,orange,hexagon
0.0,6.0,2.0,1.0,5.0,5.0,443.754598999476,7.0,1.0,phase_2,go,450.0,500.0,1.0,,,,,,,,,gray,triangle
0.0,1.0,1.0,0.0,5.0,5.0,430.2503560002151,7.0,1.0,phase_2,go,450.0,500.0,1.0,,,,,,,,,white,I
0.0,3.0,3.0,0.0,6.0,6.0,330.9188260000155,7.0,1.0,phase_2,go,450.0,500.0,1.0,,,,,,,,,yellow,circle
0.0,4.0,4.0,0.0,5.0,5.0,424.7255950003819,8.0,1.0,phase_2,go,450.0,500.0,1.0,,,,,,,,,blue,cross
0.0,5.0,1.0,1.0,6.0,6.0,448.5917100000733,8.0,1.0,phase_2,go,450.0,500.0,1.0,,,,,,,,,orange,hexagon
0.0,8.0,4.0,1.0,6.0,6.0,498.7801400002354,8.0,1.0,phase_2,stop,450.0,500.0,3.0,,,,,,,,,cyan,square
0.0,4.0,4.0,0.0,6.0,6.0,471.0927340001944,8.0,1.0,phase_2,go,450.0,450.0,1.0,,,,,,,,,blue,cross
0.0,7.0,3.0,1.0,5.0,5.0,506.73101099982887,8.0,1.0,phase_2,go,450.0,450.0,1.0,,,,,,,,,green,diamond
0.0,8.0,4.0,1.0,6.0,0.0,0.0,8.0,1.0,phase_2,stop,450.0,450.0,4.0,,,,,,,,,cyan,square
0.0,2.0,2.0,0.0,5.0,5.0,409.6485820000453,8.0,1.0,phase_2,go,450.0,500.0,1.0,,,,,,,,,magenta,flipped triangle
0.0,8.0,4.0,1.0,6.0,6.0,744.2734389996986,8.0,1.0,phase_2,go,450.0,500.0,1.0,,,,,,,,,cyan,square
0.0,6.0,2.0,1.0,6.0,0.0,0.0,8.0,1.0,phase_2,stop,450.0,500.0,4.0,,,,,,,,,gray,triangle
0.0,5.0,1.0,1.0,6.0,6.0,548.8132890004636,8.0,1.0,phase_2,stop,450.0,550.0,3.0,,,,,,,,,orange,hexagon
0.0,8.0,4.0,1.0,5.0,5.0,708.7436720003097,8.0,1.0,phase_2,go,450.0,500.0,1.0,,,,,,,,,cyan,square
0.0,7.0,3.0,1.0,6.0,6.0,731.0982429999058,8.0,1.0,phase_2,go,450.0,500.0,1.0,,,,,,,,,green,diamond
0.0,1.0,1.0,0.0,6.0,6.0,610.5548640007328,8.0,1.0,phase_2,go,450.0,500.0,1.0,,,,,,,,,white,I
0.0,6.0,2.0,1.0,6.0,6.0,620.5497379996814,8.0,1.0,phase_2,stop,450.0,500.0,3.0,,,,,,,,,gray,triangle
0.0,3.0,3.0,0.0,5.0,5.0,531.9425990001037,8.0,1.0,phase_2,go,450.0,450.0,1.0,,,,,,,,,yellow,circle
0.0,5.0,1.0,1.0,6.0,0.0,0.0,8.0,1.0,phase_2,stop,450.0,450.0,4.0,,,,,,,,,orange,hexagon
0.0,6.0,2.0,1.0,5.0,5.0,295.6632579998768,8.0,1.0,phase_2,stop,450.0,500.0,3.0,,,,,,,,,gray,triangle
0.0,3.0,3.0,0.0,6.0,6.0,552.2610979996898,8.0,1.0,phase_2,go,400.0,500.0,1.0,,,,,,,,,yellow,circle
0.0,6.0,2.0,1.0,5.0,0.0,0.0,8.0,1.0,phase_2,stop,400.0,500.0,4.0,,,,,,,,,gray,triangle
0.0,6.0,2.0,1.0,6.0,6.0,322.4552940000649,8.0,1.0,phase_2,stop,450.0,500.0,3.0,,,,,,,,,gray,triangle
0.0,4.0,4.0,0.0,6.0,6.0,503.9455699998143,8.0,1.0,phase_2,go,450.0,450.0,1.0,,,,,,,,,blue,cross
0.0,3.0,3.0,0.0,5.0,5.0,680.4367000004277,8.0,1.0,phase_2,go,450.0,450.0,1.0,,,,,,,,,yellow,circle
0.0,6.0,2.0,1.0,5.0,5.0,469.0046280002207,8.0,1.0,phase_2,stop,450.0,450.0,3.0,,,,,,,,,gray,triangle
0.0,4.0,4.0,0.0,6.0,6.0,670.5326040000728,8.0,1.0,phase_2,go,400.0,450.0,1.0,,,,,,,,,blue,cross
0.0,8.0,4.0,1.0,6.0,6.0,404.5868989996961,8.0,1.0,phase_2,stop,400.0,450.0,3.0,,,,,,,,,cyan,square
0.0,6.0,2.0,1.0,6.0,0.0,0.0,8.0,1.0,phase_2,stop,400.0,400.0,4.0,,,,,,,,,gray,triangle
0.0,6.0,2.0,1.0,6.0,6.0,604.7854500002359,8.0,1.0,phase_2,stop,400.0,450.0,3.0,,,,,,,,,gray,triangle
0.0,4.0,4.0,0.0,5.0,5.0,473.7596279992431,8.0,1.0,phase_2,go,400.0,400.0,1.0,,,,,,,,,blue,cross
0.0,6.0,2.0,1.0,6.0,0.0,0.0,8.0,1.0,phase_2,stop,400.0,400.0,4.0,,,,,,,,,gray,triangle
0.0,8.0,4.0,1.0,6.0,6.0,530.8351319999929,8.0,1.0,phase_2,stop,400.0,450.0,3.0,,,,,,,,,cyan,square
0.0,6.0,2.0,1.0,5.0,5.0,618.9078979996339,8.0,1.0,phase_2,go,400.0,400.0,1.0,,,,,,,,,gray,triangle
0.0,4.0,4.0,0.0,6.0,6.0,496.4718689998335,8.0,1.0,phase_2,go,400.0,400.0,1.0,,,,,,,,,blue,cross
0.0,6.0,2.0,1.0,5.0,5.0,385.5181689996243,8.0,1.0,phase_2,stop,400.0,400.0,3.0,,,,,,,,,gray,triangle
0.0,3.0,3.0,0.0,5.0,5.0,630.5520340001749,8.0,1.0,phase_2,go,350.0,400.0,1.0,,,,,,,,,yellow,circle
0.0,3.0,3.0,0.0,5.0,5.0,695.0243309993311,8.0,1.0,phase_2,go,350.0,400.0,1.0,,,,,,,,,yellow,circle
0.0,5.0,1.0,1.0,6.0,0.0,0.0,8.0,1.0,phase_2,stop,350.0,400.0,4.0,,,,,,,,,orange,hexagon
0.0,4.0,4.0,0.0,7.0,4.0,1654.7430890004762,1.0,2.0,phase_3,,,,,270.0,5.0,108.0,216.0,54.0,270.0,324.0,162.0,blue,cross
0.0,2.0,2.0,0.0,7.0,3.0,826.3254910007163,1.0,1.0,phase_3,,,,,245.0,5.0,49.0,147.0,245.0,98.0,294.0,196.0,magenta,flipped triangle
0.0,2.0,2.0,0.0,7.0,1.0,228.0397189997529,1.0,1.0,phase_3,,,,,204.0,6.0,204.0,34.0,68.0,136.0,102.0,170.0,magenta,flipped triangle
0.0,4.0,4.0,0.0,7.0,5.0,2246.800541999619,1.0,1.0,phase_3,,,,,245.0,5.0,294.0,49.0,98.0,147.0,245.0,196.0,blue,cross
0.0,7.0,3.0,1.0,7.0,1.0,2188.969396000175,1.0,1.0,phase_3,,,,,88.0,2.0,88.0,220.0,264.0,44.0,176.0,132.0,green,diamond
0.0,8.0,4.0,1.0,7.0,3.0,1973.063737999837,1.0,1.0,phase_3,,,,,44.0,1.0,264.0,88.0,44.0,220.0,176.0,132.0,cyan,square
0.0,8.0,4.0,1.0,7.0,4.0,2319.210790000397,1.0,1.0,phase_3,,,,,132.0,3.0,176.0,220.0,264.0,132.0,44.0,88.0,cyan,square
0.0,3.0,3.0,0.0,7.0,5.0,3177.549220999936,1.0,1.0,phase_3,,,,,44.0,1.0,88.0,176.0,264.0,132.0,44.0,220.0,yellow,circle
0.0,8.0,4.0,1.0,7.0,3.0,2636.5125629999966,1.0,1.0,phase_3,,,,,162.0,3.0,324.0,108.0,162.0,216.0,54.0,270.0,cyan,square
0.0,2.0,2.0,0.0,7.0,4.0,1750.6278939999902,1.0,1.0,phase_3,,,,,98.0,2.0,196.0,245.0,49.0,98.0,147.0,294.0,magenta,flipped triangle
0.0,6.0,2.0,1.0,7.0,1.0,1390.455517000191,1.0,1.0,phase_3,,,,,34.0,1.0,34.0,102.0,204.0,68.0,170.0,136.0,gray,triangle
0.0,4.0,4.0,0.0,7.0,5.0,2102.395431000332,1.0,1.0,phase_3,,,,,234.0,6.0,78.0,156.0,195.0,117.0,234.0,39.0,blue,cross
0.0,3.0,3.0,0.0,7.0,6.0,4158.859819999634,1.0,1.0,phase_3,,,,,108.0,2.0,324.0,216.0,162.0,54.0,270.0,108.0,yellow,circle
0.0,3.0,3.0,0.0,7.0,5.0,1777.47087500029,1.0,1.0,phase_3,,,,,102.0,3.0,204.0,34.0,136.0,68.0,102.0,170.0,yellow,circle
0.0,4.0,4.0,0.0,7.0,3.0,2225.6197730002896,1.0,1.0,phase_3,,,,,234.0,6.0,39.0,117.0,234.0,156.0,195.0,78.0,blue,cross
0.0,7.0,3.0,1.0,7.0,5.0,1853.910000999349,1.0,1.0,phase_3,,,,,176.0,4.0,132.0,88.0,220.0,44.0,176.0,264.0,green,diamond
0.0,5.0,1.0,1.0,7.0,3.0,1811.4830949998575,1.0,1.0,phase_3,,,,,170.0,5.0,34.0,68.0,170.0,204.0,136.0,102.0,orange,hexagon
0.0,1.0,1.0,0.0,7.0,2.0,1782.391650000136,1.0,1.0,phase_3,,,,,39.0,1.0,117.0,39.0,234.0,156.0,195.0,78.0,white,I
0.0,6.0,2.0,1.0,7.0,4.0,1870.975362000536,1.0,1.0,phase_3,,,,,39.0,1.0,156.0,78.0,195.0,39.0,117.0,234.0,gray,triangle
0.0,1.0,1.0,0.0,7.0,1.0,2010.7290280002417,1.0,1.0,phase_3,,,,,49.0,1.0,49.0,147.0,98.0,245.0,294.0,196.0,white,I
0.0,2.0,2.0,0.0,7.0,2.0,1924.332972999764,2.0,1.0,phase_3,,,,,132.0,3.0,176.0,132.0,88.0,264.0,44.0,220.0,magenta,flipped triangle
0.0,7.0,3.0,1.0,7.0,3.0,1527.1075580003526,2.0,1.0,phase_3,,,,,195.0,5.0,78.0,234.0,195.0,39.0,117.0,156.0,green,diamond
0.0,3.0,3.0,0.0,7.0,2.0,1238.380346999293,2.0,1.0,phase_3,,,,,88.0,2.0,132.0,88.0,176.0,44.0,264.0,220.0,yellow,circle
0.0,4.0,4.0,0.0,7.0,2.0,1808.6400760003016,2.0,1.0,phase_3,,,,,264.0,6.0,220.0,264.0,132.0,88.0,44.0,176.0,blue,cross
0.0,7.0,3.0,1.0,7.0,1.0,2513.6138899997604,2.0,1.0,phase_3,,,,,108.0,2.0,108.0,54.0,216.0,162.0,324.0,270.0,green,diamond
0.0,7.0,3.0,1.0,7.0,3.0,1747.4209199999675,2.0,1.0,phase_3,,,,,102.0,3.0,34.0,136.0,102.0,68.0,170.0,204.0,green,diamond
0.0,7.0,3.0,1.0,7.0,1.0,3182.014631999664,2.0,1.0,phase_3,,,,,117.0,3.0,117.0,78.0,234.0,195.0,156.0,39.0,green,diamond
0.0,8.0,4.0,1.0,7.0,4.0,1481.22979100026,2.0,1.0,phase_3,,,,,234.0,6.0,39.0,78.0,156.0,234.0,195.0,117.0,cyan,square
0.0,3.0,3.0,0.0,7.0,5.0,1519.3459559995972,2.0,1.0,phase_3,,,,,39.0,1.0,117.0,234.0,78.0,195.0,39.0,156.0,yellow,circle
0.0,2.0,2.0,0.0,7.0,3.0,2332.1267960000114,2.0,1.0,phase_3,,,,,132.0,3.0,88.0,220.0,132.0,44.0,264.0,176.0,magenta,flipped triangle
0.0,1.0,1.0,0.0,7.0,4.0,1258.8425220001227,2.0,1.0,phase_3,,,,,54.0,1.0,162.0,270.0,108.0,54.0,216.0,324.0,white,I
0.0,7.0,3.0,1.0,7.0,5.0,1499.3942270002665,2.0,1.0,phase_3,,,,,147.0,3.0,49.0,196.0,245.0,98.0,147.0,294.0,green,diamond
0.0,1.0,1.0,0.0,7.0,5.0,1823.8213160002488,2.0,1.0,phase_3,,,,,39.0,1.0,195.0,78.0,156.0,117.0,39.0,234.0,white,I
0.0,4.0,4.0,0.0,7.0,5.0,2310.4396130001987,2.0,1.0,phase_3,,,,,204.0,6.0,34.0,68.0,136.0,102.0,204.0,170.0,blue,cross
0.0,8.0,4.0,1.0,7.0,3.0,3279.440300000715,2.0,1.0,phase_3,,,,,204.0,6.0,68.0,136.0,204.0,34.0,102.0,170.0,cyan,square
0.0,3.0,3.0,0.0,7.0,4.0,2003.9851479996287,2.0,1.0,phase_3,,,,,78.0,2.0,234.0,117.0,39.0,78.0,156.0,195.0,yellow,circle
0.0,6.0,2.0,1.0,7.0,6.0,1331.662612999935,2.0,1.0,phase_3,,,,,44.0,1.0,220.0,176.0,132.0,264.0,88.0,44.0,gray,triangle
0.0,7.0,3.0,1.0,7.0,4.0,1630.4286719996526,2.0,1.0,phase_3,,,,,204.0,6.0,136.0,34.0,102.0,204.0,68.0,170.0,green,diamond
0.0,6.0,2.0,1.0,7.0,4.0,1381.251687999793,2.0,1.0,phase_3,,,,,39.0,1.0,234.0,78.0,117.0,39.0,195.0,156.0,gray,triangle
0.0,5.0,1.0,1.0,7.0,2.0,2398.453658000108,2.0,1.0,phase_3,,,,,216.0,4.0,270.0,216.0,324.0,108.0,162.0,54.0,orange,hexagon
0.0,2.0,2.0,0.0,7.0,3.0,1150.3833730002953,3.0,1.0,phase_3,,,,,204.0,6.0,34.0,136.0,204.0,170.0,68.0,102.0,magenta,flipped triangle
0.0,8.0,4.0,1.0,7.0,6.0,1966.792295000232,3.0,1.0,phase_3,,,,,245.0,5.0,49.0,98.0,294.0,147.0,196.0,245.0,cyan,square
0.0,7.0,3.0,1.0,7.0,3.0,1136.3811299997906,3.0,1.0,phase_3,,,,,216.0,4.0,108.0,324.0,216.0,270.0,54.0,162.0,green,diamond
0.0,4.0,4.0,0.0,7.0,2.0,1440.3464170000009,3.0,1.0,phase_3,,,,,294.0,6.0,98.0,294.0,196.0,49.0,147.0,245.0,blue,cross
0.0,5.0,1.0,1.0,7.0,3.0,1625.3060220005864,3.0,1.0,phase_3,,,,,176.0,4.0,88.0,264.0,176.0,132.0,220.0,44.0,orange,hexagon
0.0,5.0,1.0,1.0,7.0,4.0,1942.0980589993635,3.0,1.0,phase_3,,,,,195.0,5.0,156.0,117.0,39.0,195.0,78.0,234.0,orange,hexagon
0.0,2.0,2.0,0.0,7.0,3.0,1404.5866440001191,3.0,1.0,phase_3,,,,,270.0,5.0,216.0,108.0,270.0,54.0,324.0,162.0,magenta,flipped triangle
0.0,6.0,2.0,1.0,7.0,6.0,1736.294512999848,3.0,1.0,phase_3,,,,,49.0,1.0,196.0,294.0,147.0,245.0,98.0,49.0,gray,triangle
0.0,3.0,3.0,0.0,7.0,3.0,1823.394627000198,3.0,1.0,phase_3,,,,,49.0,1.0,245.0,147.0,49.0,98.0,294.0,196.0,yellow,circle
0.0,8.0,4.0,1.0,7.0,2.0,1776.460350999514,3.0,1.0,phase_3,,,,,147.0,3.0,98.0,147.0,196.0,245.0,49.0,294.0,cyan,square
0.0,5.0,1.0,1.0,7.0,1.0,1867.232834000788,3.0,1.0,phase_3,,,,,220.0,5.0,220.0,132.0,264.0,44.0,88.0,176.0,orange,hexagon
0.0,4.0,4.0,0.0,7.0,3.0,2005.7431850000285,3.0,1.0,phase_3,,,,,204.0,6.0,170.0,136.0,204.0,102.0,68.0,34.0,blue,cross
0.0,5.0,1.0,1.0,7.0,5.0,1828.9697840000367,3.0,1.0,phase_3,,,,,156.0,4.0,234.0,78.0,195.0,39.0,156.0,117.0,orange,hexagon
0.0,6.0,2.0,1.0,7.0,1.0,1646.026606000305,3.0,1.0,phase_3,,,,,54.0,1.0,54.0,270.0,324.0,216.0,108.0,162.0,gray,triangle
0.0,4.0,4.0,0.0,7.0,3.0,1434.5549439995011,3.0,1.0,phase_3,,,,,324.0,6.0,108.0,162.0,324.0,270.0,216.0,54.0,blue,cross
0.0,8.0,4.0,1.0,7.0,6.0,1688.43106300028,3.0,1.0,phase_3,,,,,156.0,4.0,234.0,78.0,39.0,195.0,117.0,156.0,cyan,square
0.0,6.0,2.0,1.0,7.0,6.0,1076.4406309999686,3.0,1.0,phase_3,,,,,44.0,1.0,176.0,220.0,132.0,264.0,88.0,44.0,gray,triangle
0.0,1.0,1.0,0.0,7.0,1.0,1700.301447000129,3.0,1.0,phase_3,,,,,49.0,1.0,49.0,98.0,147.0,294.0,196.0,245.0,white,I
0.0,1.0,1.0,0.0,7.0,1.0,717.7777729993977,3.0,1.0,phase_3,,,,,54.0,1.0,54.0,216.0,108.0,162.0,324.0,270.0,white,I
0.0,3.0,3.0,0.0,7.0,3.0,1454.3435519999548,3.0,1.0,phase_3,,,,,54.0,1.0,108.0,216.0,54.0,162.0,324.0,270.0,yellow,circle
0.0,1.0,1.0,0.0,7.0,5.0,1521.4047919998848,4.0,1.0,phase_3,,,,,44.0,1.0,132.0,264.0,220.0,176.0,44.0,88.0,white,I
0.0,1.0,1.0,0.0,7.0,6.0,882.5937589999739,4.0,1.0,phase_3,,,,,44.0,1.0,220.0,132.0,264.0,88.0,176.0,44.0,white,I
0.0,2.0,2.0,0.0,7.0,4.0,2706.663996000316,4.0,1.0,phase_3,,,,,234.0,6.0,39.0,156.0,117.0,234.0,195.0,78.0,magenta,flipped triangle
0.0,5.0,1.0,1.0,7.0,2.0,2486.9249070006845,4.0,1.0,phase_3,,,,,245.0,5.0,98.0,245.0,49.0,147.0,196.0,294.0,orange,hexagon
0.0,2.0,2.0,0.0,7.0,3.0,1742.1564759997636,4.0,1.0,phase_3,,,,,216.0,4.0,162.0,324.0,216.0,54.0,270.0,108.0,magenta,flipped triangle
0.0,7.0,3.0,1.0,7.0,4.0,1750.538946999768,4.0,1.0,phase_3,,,,,196.0,4.0,245.0,98.0,294.0,196.0,49.0,147.0,green,diamond
0.0,6.0,2.0,1.0,7.0,4.0,2295.799296999576,4.0,1.0,phase_3,,,,,49.0,1.0,294.0,245.0,147.0,49.0,98.0,196.0,gray,triangle
0.0,3.0,3.0,0.0,7.0,2.0,1760.358090000409,4.0,1.0,phase_3,,,,,49.0,1.0,98.0,49.0,196.0,147.0,294.0,245.0,yellow,circle
0.0,6.0,2.0,1.0,7.0,3.0,2284.544015999927,4.0,1.0,phase_3,,,,,54.0,1.0,270.0,108.0,54.0,162.0,216.0,324.0,gray,triangle
0.0,6.0,2.0,1.0,7.0,1.0,1518.6323119996814,4.0,1.0,phase_3,,,,,34.0,1.0,34.0,102.0,204.0,136.0,170.0,68.0,gray,triangle
0.0,1.0,1.0,0.0,7.0,4.0,1998.234575999959,4.0,1.0,phase_3,,,,,68.0,2.0,102.0,204.0,34.0,68.0,170.0,136.0,white,I
0.0,8.0,4.0,1.0,7.0,4.0,1800.5319230005623,4.0,1.0,phase_3,,,,,136.0,4.0,170.0,102.0,34.0,136.0,68.0,204.0,cyan,square
0.0,3.0,3.0,0.0,7.0,5.0,1433.5166480004773,4.0,1.0,phase_3,,,,,68.0,2.0,204.0,170.0,102.0,34.0,68.0,136.0,yellow,circle
0.0,5.0,1.0,1.0,7.0,1.0,2707.194906999576,4.0,1.0,phase_3,,,,,162.0,3.0,162.0,324.0,270.0,108.0,216.0,54.0,orange,hexagon
0.0,4.0,4.0,0.0,7.0,6.0,1724.2951010002798,4.0,1.0,phase_3,,,,,264.0,6.0,176.0,88.0,132.0,220.0,44.0,264.0,blue,cross
0.0,8.0,4.0,1.0,7.0,4.0,3363.51148599988,4.0,1.0,phase_3,,,,,162.0,3.0,216.0,270.0,54.0,162.0,108.0,324.0,cyan,square
0.0,2.0,2.0,0.0,7.0,1.0,3717.3118079999767,4.0,1.0,phase_3,,,,,195.0,5.0,195.0,156.0,117.0,39.0,234.0,78.0,magenta,flipped triangle
0.0,1.0,1.0,0.0,7.0,5.0,1831.0639170003924,4.0,1.0,phase_3,,,,,68.0,2.0,204.0,102.0,136.0,170.0,68.0,34.0,white,I
0.0,5.0,1.0,1.0,7.0,4.0,1699.773398000616,4.0,1.0,phase_3,,,,,136.0,4.0,170.0,68.0,34.0,136.0,102.0,204.0,orange,hexagon
0.0,5.0,1.0,1.0,7.0,4.0,1577.6560880003672,4.0,1.0,phase_3,,,,,147.0,3.0,196.0,245.0,98.0,147.0,49.0,294.0,orange,hexagon
