raw_reward_magnitude,stim_reward,stepwise_reward_magnitude,paired_with_stopping,stim_location,response,reaction_time,block,num_trial_presentations,which_phase,stop_signal_trial_type,left_SSD,right_SSD,accuracy,chosen_bidding_amount,chosen_bidding_level,possible_bid_1,possible_bid_2,possible_bid_3,possible_bid_4,possible_bid_5,possible_bid_6,color_text,shape_text
210.0,7.0,2.0,1.0,1.0,1.0,388.6748730001272,1.0,1.0,phase_1,,,,,,,,,,,,,orange,I
42.0,5.0,0.5,1.0,4.0,4.0,353.5744589999012,1.0,1.0,phase_1,,,,,,,,,,,,,magenta,hexagon
0.0,6.0,0.0,1.0,4.0,4.0,276.0016530000939,1.0,1.0,phase_1,,,,,,,,,,,,,yellow,triangle
0.0,6.0,0.0,1.0,1.0,1.0,211.3962790008372,1.0,1.0,phase_1,,,,,,,,,,,,,yellow,triangle
51.0,5.0,0.5,1.0,1.0,1.0,248.7377150000611,1.0,2.0,phase_1,,,,,,,,,,,,,magenta,hexagon
107.0,2.0,1.0,0.0,3.0,3.0,280.6963689999975,1.0,1.0,phase_1,,,,,,,,,,,,,gray,square
53.0,1.0,0.5,0.0,3.0,3.0,228.2258650002404,1.0,1.0,phase_1,,,,,,,,,,,,,cyan,flipped triangle
75.0,1.0,0.5,0.0,3.0,3.0,248.3716780006943,1.0,1.0,phase_1,,,,,,,,,,,,,cyan,flipped triangle
0.0,1.0,0.0,0.0,4.0,4.0,267.9179509996174,1.0,1.0,phase_1,,,,,,,,,,,,,cyan,flipped triangle
72.0,1.0,0.5,0.0,2.0,2.0,243.9732820002973,1.0,1.0,phase_1,,,,,,,,,,,,,cyan,flipped triangle
120.0,6.0,1.0,1.0,4.0,4.0,256.7120809999323,1.0,1.0,phase_1,,,,,,,,,,,,,yellow,triangle
0.0,6.0,0.0,1.0,1.0,1.0,252.95032499980152,1.0,1.0,phase_1,,,,,,,,,,,,,yellow,triangle
54.0,1.0,0.5,0.0,1.0,1.0,310.4673119996732,1.0,1.0,phase_1,,,,,,,,,,,,,cyan,flipped triangle
69.0,1.0,0.5,0.0,4.0,4.0,220.9278500004075,1.0,1.0,phase_1,,,,,,,,,,,,,cyan,flipped triangle
183.0,7.0,2.0,1.0,3.0,3.0,259.1643719997591,1.0,1.0,phase_1,,,,,,,,,,,,,orange,I
45.0,1.0,0.5,0.0,3.0,3.0,288.2074130002365,1.0,1.0,phase_1,,,,,,,,,,,,,cyan,flipped triangle
84.0,2.0,1.0,0.0,1.0,1.0,227.3351199992248,1.0,1.0,phase_1,,,,,,,,,,,,,gray,square
0.0,8.0,0.0,1.0,4.0,4.0,209.7350280000682,1.0,1.0,phase_1,,,,,,,,,,,,,blue,circle
376.0,4.0,4.0,0.0,1.0,1.0,264.7407530002965,1.0,2.0,phase_1,,,,,,,,,,,,,green,diamond
73.0,1.0,0.5,0.0,4.0,4.0,285.7616869996491,1.0,1.0,phase_1,,,,,,,,,,,,,cyan,flipped triangle
43.0,1.0,0.5,0.0,3.0,3.0,289.5132100002229,1.0,1.0,phase_1,,,,,,,,,,,,,cyan,flipped triangle
382.0,8.0,4.0,1.0,4.0,4.0,286.960292999538,1.0,1.0,phase_1,,,,,,,,,,,,,blue,circle
225.0,3.0,2.0,0.0,4.0,4.0,290.3610120001758,1.0,1.0,phase_1,,,,,,,,,,,,,white,cross
42.0,1.0,0.5,0.0,1.0,1.0,376.5294170007109,1.0,1.0,phase_1,,,,,,,,,,,,,cyan,flipped triangle
222.0,7.0,2.0,1.0,2.0,2.0,244.9444889998631,1.0,1.0,phase_1,,,,,,,,,,,,,orange,I
119.0,2.0,1.0,0.0,2.0,2.0,247.7570680002827,1.0,1.0,phase_1,,,,,,,,,,,,,gray,square
414.0,8.0,4.0,1.0,4.0,4.0,261.1204260001614,1.0,1.0,phase_1,,,,,,,,,,,,,blue,circle
206.0,7.0,2.0,1.0,4.0,4.0,346.4414780000879,1.0,1.0,phase_1,,,,,,,,,,,,,orange,I
397.0,8.0,4.0,1.0,3.0,3.0,314.4552290004867,1.0,1.0,phase_1,,,,,,,,,,,,,blue,circle
96.0,6.0,1.0,1.0,3.0,3.0,300.9419399995749,1.0,1.0,phase_1,,,,,,,,,,,,,yellow,triangle
82.0,6.0,1.0,1.0,1.0,1.0,240.701724000246,1.0,1.0,phase_1,,,,,,,,,,,,,yellow,triangle
0.0,6.0,0.0,1.0,4.0,4.0,237.2890189999452,1.0,1.0,phase_1,,,,,,,,,,,,,yellow,triangle
72.0,5.0,0.5,1.0,3.0,3.0,274.6950789996845,1.0,1.0,phase_1,,,,,,,,,,,,,magenta,hexagon
69.0,1.0,0.5,0.0,3.0,3.0,256.4335529996242,1.0,1.0,phase_1,,,,,,,,,,,,,cyan,flipped triangle
422.0,4.0,4.0,0.0,4.0,4.0,244.2669510000996,1.0,1.0,phase_1,,,,,,,,,,,,,green,diamond
33.0,5.0,0.5,1.0,4.0,4.0,281.3838989995929,1.0,1.0,phase_1,,,,,,,,,,,,,magenta,hexagon
94.0,2.0,1.0,0.0,3.0,3.0,269.5784810002806,1.0,1.0,phase_1,,,,,,,,,,,,,gray,square
215.0,7.0,2.0,1.0,2.0,2.0,331.1683539996011,1.0,1.0,phase_1,,,,,,,,,,,,,orange,I
0.0,1.0,0.0,0.0,2.0,2.0,302.451925999776,1.0,1.0,phase_1,,,,,,,,,,,,,cyan,flipped triangle
105.0,6.0,1.0,1.0,2.0,2.0,282.3729820001972,1.0,1.0,phase_1,,,,,,,,,,,,,yellow,triangle
420.0,8.0,4.0,1.0,2.0,2.0,249.8940599998604,1.0,1.0,phase_1,,,,,,,,,,,,,blue,circle
103.0,6.0,1.0,1.0,4.0,4.0,236.0773559994413,1.0,1.0,phase_1,,,,,,,,,,,,,yellow,triangle
0.0,3.0,0.0,0.0,4.0,4.0,277.4455070002659,1.0,2.0,phase_1,,,,,,,,,,,,,white,cross
217.0,7.0,2.0,1.0,4.0,4.0,249.4689510003809,1.0,1.0,phase_1,,,,,,,,,,,,,orange,I
0.0,7.0,0.0,1.0,3.0,3.0,337.3413999997865,1.0,1.0,phase_1,,,,,,,,,,,,,orange,I
192.0,3.0,2.0,0.0,4.0,4.0,269.7089520006557,1.0,1.0,phase_1,,,,,,,,,,,,,white,cross
94.0,6.0,1.0,1.0,2.0,2.0,263.9250140000513,1.0,1.0,phase_1,,,,,,,,,,,,,yellow,triangle
42.0,1.0,0.5,0.0,2.0,2.0,285.8068330006063,1.0,1.0,phase_1,,,,,,,,,,,,,cyan,flipped triangle
216.0,7.0,2.0,1.0,4.0,4.0,211.5242780000699,1.0,1.0,phase_1,,,,,,,,,,,,,orange,I
404.0,4.0,4.0,0.0,3.0,3.0,333.0602839996572,1.0,1.0,phase_1,,,,,,,,,,,,,green,diamond
75.0,6.0,1.0,1.0,4.0,4.0,236.0496470000725,1.0,1.0,phase_1,,,,,,,,,,,,,yellow,triangle
53.0,5.0,0.5,1.0,1.0,1.0,342.5879280002846,1.0,1.0,phase_1,,,,,,,,,,,,,magenta,hexagon
214.0,7.0,2.0,1.0,1.0,1.0,308.1890220000787,1.0,1.0,phase_1,,,,,,,,,,,,,orange,I
29.0,5.0,0.5,1.0,1.0,1.0,277.5496849999399,1.0,2.0,phase_1,,,,,,,,,,,,,magenta,hexagon
0.0,7.0,0.0,1.0,3.0,3.0,322.2250250000797,1.0,1.0,phase_1,,,,,,,,,,,,,orange,I
99.0,6.0,1.0,1.0,4.0,4.0,331.222682999396,1.0,2.0,phase_1,,,,,,,,,,,,,yellow,triangle
61.0,1.0,0.5,0.0,4.0,4.0,299.6523320007327,1.0,1.0,phase_1,,,,,,,,,,,,,cyan,flipped triangle
180.0,7.0,2.0,1.0,3.0,3.0,328.0067919995417,1.0,1.0,phase_1,,,,,,,,,,,,,orange,I
222.0,3.0,2.0,0.0,2.0,2.0,368.6537170005977,1.0,1.0,phase_1,,,,,,,,,,,,,white,cross
394.0,4.0,4.0,0.0,2.0,2.0,350.2322389995242,1.0,1.0,phase_1,,,,,,,,,,,,,green,diamond
0.0,2.0,0.0,0.0,4.0,4.0,268.2787700005065,1.0,1.0,phase_1,,,,,,,,,,,,,gray,square
99.0,6.0,1.0,1.0,4.0,4.0,297.9578849999598,1.0,1.0,phase_1,,,,,,,,,,,,,yellow,triangle
380.0,8.0,4.0,1.0,2.0,2.0,277.8356829994663,1.0,1.0,phase_1,,,,,,,,,,,,,blue,circle
0.0,1.0,0.0,0.0,1.0,1.0,289.8237109993715,1.0,1.0,phase_1,,,,,,,,,,,,,cyan,flipped triangle
175.0,7.0,2.0,1.0,3.0,3.0,248.1058120001762,1.0,1.0,phase_1,,,,,,,,,,,,,orange,I
217.0,3.0,2.0,0.0,1.0,1.0,266.5456989998347,1.0,1.0,phase_1,,,,,,,,,,,,,white,cross
81.0,2.0,1.0,0.0,3.0,3.0,472.257172999889,1.0,1.0,phase_1,,,,,,,,,,,,,gray,square
40.0,1.0,0.5,0.0,2.0,2.0,235.274229999959,1.0,1.0,phase_1,,,,,,,,,,,,,cyan,flipped triangle
217.0,7.0,2.0,1.0,2.0,2.0,313.4840729999268,1.0,1.0,phase_1,,,,,,,,,,,,,orange,I
178.0,3.0,2.0,0.0,1.0,1.0,324.4617500004096,1.0,1.0,phase_1,,,,,,,,,,,,,white,cross
211.0,3.0,2.0,0.0,2.0,2.0,273.7041400005182,1.0,1.0,phase_1,,,,,,,,,,,,,white,cross
0.0,8.0,0.0,1.0,1.0,1.0,239.7042579996195,1.0,1.0,phase_1,,,,,,,,,,,,,blue,circle
56.0,1.0,0.5,0.0,4.0,4.0,268.9306649999707,1.0,1.0,phase_1,,,,,,,,,,,,,cyan,flipped triangle
117.0,6.0,1.0,1.0,3.0,3.0,419.214692999958,1.0,1.0,phase_1,,,,,,,,,,,,,yellow,triangle
190.0,7.0,2.0,1.0,4.0,4.0,397.5172280006518,1.0,1.0,phase_1,,,,,,,,,,,,,orange,I
176.0,7.0,2.0,1.0,3.0,3.0,296.7988899999909,1.0,1.0,phase_1,,,,,,,,,,,,,orange,I
92.0,6.0,1.0,1.0,1.0,1.0,384.8363619999873,1.0,1.0,phase_1,,,,,,,,,,,,,yellow,triangle
204.0,7.0,2.0,1.0,1.0,1.0,297.6269099999626,1.0,1.0,phase_1,,,,,,,,,,,,,orange,I
175.0,3.0,2.0,0.0,3.0,3.0,358.313055000508,1.0,2.0,phase_1,,,,,,,,,,,,,white,cross
192.0,7.0,2.0,1.0,2.0,2.0,347.5443779998386,1.0,1.0,phase_1,,,,,,,,,,,,,orange,I
0.0,3.0,0.0,0.0,2.0,2.0,292.4654970001938,1.0,1.0,phase_1,,,,,,,,,,,,,white,cross
0.0,3.0,0.0,0.0,4.0,4.0,275.6104680001954,1.0,1.0,phase_1,,,,,,,,,,,,,white,cross
181.0,3.0,2.0,0.0,2.0,2.0,265.0430059993596,1.0,1.0,phase_1,,,,,,,,,,,,,white,cross
204.0,7.0,2.0,1.0,1.0,1.0,333.7324429994623,1.0,1.0,phase_1,,,,,,,,,,,,,orange,I
202.0,7.0,2.0,1.0,2.0,2.0,263.805517000037,1.0,1.0,phase_1,,,,,,,,,,,,,orange,I
397.0,8.0,4.0,1.0,4.0,4.0,320.0864510008614,1.0,1.0,phase_1,,,,,,,,,,,,,blue,circle
0.0,2.0,0.0,0.0,2.0,2.0,296.6451250003956,1.0,1.0,phase_1,,,,,,,,,,,,,gray,square
53.0,5.0,0.5,1.0,3.0,3.0,305.7271309999123,1.0,1.0,phase_1,,,,,,,,,,,,,magenta,hexagon
186.0,3.0,2.0,0.0,1.0,1.0,308.2657660006589,1.0,1.0,phase_1,,,,,,,,,,,,,white,cross
107.0,6.0,1.0,1.0,4.0,4.0,290.3128790003393,1.0,1.0,phase_1,,,,,,,,,,,,,yellow,triangle
74.0,1.0,0.5,0.0,1.0,1.0,350.6197060005434,1.0,1.0,phase_1,,,,,,,,,,,,,cyan,flipped triangle
183.0,3.0,2.0,0.0,3.0,3.0,289.7483880005893,1.0,1.0,phase_1,,,,,,,,,,,,,white,cross
206.0,7.0,2.0,1.0,4.0,4.0,255.89703000059671,1.0,1.0,phase_1,,,,,,,,,,,,,orange,I
97.0,6.0,1.0,1.0,2.0,2.0,276.979021000443,1.0,1.0,phase_1,,,,,,,,,,,,,yellow,triangle
59.0,1.0,0.5,0.0,1.0,1.0,389.5179510000162,1.0,2.0,phase_1,,,,,,,,,,,,,cyan,flipped triangle
94.0,2.0,1.0,0.0,4.0,4.0,330.9441480005262,1.0,1.0,phase_1,,,,,,,,,,,,,gray,square
393.0,8.0,4.0,1.0,2.0,2.0,277.269047000118,1.0,1.0,phase_1,,,,,,,,,,,,,blue,circle
44.0,1.0,0.5,0.0,3.0,3.0,315.5715590000909,1.0,1.0,phase_1,,,,,,,,,,,,,cyan,flipped triangle
424.0,8.0,4.0,1.0,3.0,3.0,345.9134359991367,1.0,1.0,phase_1,,,,,,,,,,,,,blue,circle
404.0,8.0,4.0,1.0,2.0,2.0,290.1220009998724,1.0,1.0,phase_1,,,,,,,,,,,,,blue,circle
222.0,7.0,2.0,1.0,1.0,1.0,292.4040210000385,2.0,1.0,phase_1,,,,,,,,,,,,,orange,I
63.0,1.0,0.5,0.0,3.0,3.0,361.6063580002446,2.0,1.0,phase_1,,,,,,,,,,,,,cyan,flipped triangle
42.0,1.0,0.5,0.0,2.0,2.0,292.3771750001833,2.0,1.0,phase_1,,,,,,,,,,,,,cyan,flipped triangle
202.0,3.0,2.0,0.0,2.0,2.0,307.0819909999045,2.0,1.0,phase_1,,,,,,,,,,,,,white,cross
101.0,6.0,1.0,1.0,3.0,3.0,309.9381109996102,2.0,1.0,phase_1,,,,,,,,,,,,,yellow,triangle
35.0,5.0,0.5,1.0,1.0,1.0,276.7288249997364,2.0,1.0,phase_1,,,,,,,,,,,,,magenta,hexagon
43.0,5.0,0.5,1.0,3.0,3.0,274.5146949991977,2.0,1.0,phase_1,,,,,,,,,,,,,magenta,hexagon
0.0,4.0,0.0,0.0,1.0,1.0,261.1043710003287,2.0,1.0,phase_1,,,,,,,,,,,,,green,diamond
38.0,5.0,0.5,1.0,3.0,3.0,304.7749850002219,2.0,1.0,phase_1,,,,,,,,,,,,,magenta,hexagon
190.0,3.0,2.0,0.0,2.0,2.0,268.4717520005506,2.0,1.0,phase_1,,,,,,,,,,,,,white,cross
103.0,2.0,1.0,0.0,2.0,2.0,273.176906000117,2.0,1.0,phase_1,,,,,,,,,,,,,gray,square
42.0,5.0,0.5,1.0,2.0,2.0,280.9966519998852,2.0,1.0,phase_1,,,,,,,,,,,,,magenta,hexagon
0.0,8.0,0.0,1.0,2.0,2.0,285.7770380005604,2.0,1.0,phase_1,,,,,,,,,,,,,blue,circle
405.0,4.0,4.0,0.0,3.0,3.0,328.1098309998924,2.0,1.0,phase_1,,,,,,,,,,,,,green,diamond
0.0,1.0,0.0,0.0,2.0,2.0,268.8300449999588,2.0,1.0,phase_1,,,,,,,,,,,,,cyan,flipped triangle
204.0,3.0,2.0,0.0,1.0,1.0,234.757926000384,2.0,1.0,phase_1,,,,,,,,,,,,,white,cross
394.0,4.0,4.0,0.0,4.0,4.0,255.16181800048798,2.0,1.0,phase_1,,,,,,,,,,,,,green,diamond
71.0,5.0,0.5,1.0,2.0,2.0,268.4765429994513,2.0,1.0,phase_1,,,,,,,,,,,,,magenta,hexagon
96.0,2.0,1.0,0.0,3.0,3.0,552.0160679998298,2.0,1.0,phase_1,,,,,,,,,,,,,gray,square
29.0,1.0,0.5,0.0,2.0,2.0,300.8897580002667,2.0,1.0,phase_1,,,,,,,,,,,,,cyan,flipped triangle
102.0,2.0,1.0,0.0,1.0,1.0,258.0323940001108,2.0,1.0,phase_1,,,,,,,,,,,,,gray,square
389.0,4.0,4.0,0.0,2.0,2.0,252.5557240005582,2.0,1.0,phase_1,,,,,,,,,,,,,green,diamond
0.0,2.0,0.0,0.0,1.0,1.0,297.1026039995195,2.0,1.0,phase_1,,,,,,,,,,,,,gray,square
0.0,5.0,0.0,1.0,3.0,3.0,342.5437480000255,2.0,1.0,phase_1,,,,,,,,,,,,,magenta,hexagon
388.0,8.0,4.0,1.0,1.0,1.0,292.3614210003507,2.0,1.0,phase_1,,,,,,,,,,,,,blue,circle
97.0,6.0,1.0,1.0,3.0,3.0,337.8422780006076,2.0,1.0,phase_1,,,,,,,,,,,,,yellow,triangle
388.0,4.0,4.0,0.0,4.0,4.0,488.3363299995835,2.0,1.0,phase_1,,,,,,,,,,,,,green,diamond
192.0,7.0,2.0,1.0,3.0,3.0,331.7379729996901,2.0,1.0,phase_1,,,,,,,,,,,,,orange,I
40.0,5.0,0.5,1.0,1.0,1.0,293.3512239997071,2.0,1.0,phase_1,,,,,,,,,,,,,magenta,hexagon
0.0,7.0,0.0,1.0,1.0,1.0,418.3087360006539,2.0,1.0,phase_1,,,,,,,,,,,,,orange,I
34.0,1.0,0.5,0.0,3.0,3.0,331.0040070000468,2.0,1.0,phase_1,,,,,,,,,,,,,cyan,flipped triangle
394.0,4.0,4.0,0.0,2.0,2.0,294.7169790004409,2.0,1.0,phase_1,,,,,,,,,,,,,green,diamond
389.0,8.0,4.0,1.0,1.0,1.0,362.6876380003523,2.0,1.0,phase_1,,,,,,,,,,,,,blue,circle
407.0,4.0,4.0,0.0,3.0,3.0,302.7345749997039,2.0,1.0,phase_1,,,,,,,,,,,,,green,diamond
0.0,4.0,0.0,0.0,1.0,1.0,252.02465100028348,2.0,1.0,phase_1,,,,,,,,,,,,,green,diamond
0.0,4.0,0.0,0.0,1.0,1.0,298.1612359999417,2.0,1.0,phase_1,,,,,,,,,,,,,green,diamond
0.0,8.0,0.0,1.0,3.0,3.0,284.9522920005256,2.0,1.0,phase_1,,,,,,,,,,,,,blue,circle
29.0,5.0,0.5,1.0,4.0,4.0,305.3259770003933,2.0,1.0,phase_1,,,,,,,,,,,,,magenta,hexagon
34.0,1.0,0.5,0.0,4.0,4.0,338.7689929995758,2.0,2.0,phase_1,,,,,,,,,,,,,cyan,flipped triangle
120.0,2.0,1.0,0.0,3.0,3.0,416.4396229998601,2.0,1.0,phase_1,,,,,,,,,,,,,gray,square
81.0,6.0,1.0,1.0,4.0,4.0,341.483180999603,2.0,1.0,phase_1,,,,,,,,,,,,,yellow,triangle
95.0,2.0,1.0,0.0,1.0,1.0,317.650298999979,2.0,2.0,phase_1,,,,,,,,,,,,,gray,square
90.0,2.0,1.0,0.0,2.0,2.0,412.0324360001177,2.0,1.0,phase_1,,,,,,,,,,,,,gray,square
45.0,5.0,0.5,1.0,2.0,2.0,332.6473480001368,2.0,1.0,phase_1,,,,,,,,,,,,,magenta,hexagon
199.0,7.0,2.0,1.0,3.0,3.0,372.5315559995579,2.0,1.0,phase_1,,,,,,,,,,,,,orange,I
0.0,4.0,0.0,0.0,4.0,4.0,384.1649650003091,2.0,1.0,phase_1,,,,,,,,,,,,,green,diamond
45.0,5.0,0.5,1.0,3.0,3.0,283.3303819998036,2.0,1.0,phase_1,,,,,,,,,,,,,magenta,hexagon
50.0,1.0,0.5,0.0,1.0,1.0,620.7353680001688,2.0,2.0,phase_1,,,,,,,,,,,,,cyan,flipped triangle
419.0,4.0,4.0,0.0,4.0,4.0,401.4373799991517,2.0,1.0,phase_1,,,,,,,,,,,,,green,diamond
197.0,3.0,2.0,0.0,4.0,4.0,397.7833139997528,2.0,1.0,phase_1,,,,,,,,,,,,,white,cross
405.0,4.0,4.0,0.0,3.0,3.0,339.4103939999695,2.0,1.0,phase_1,,,,,,,,,,,,,green,diamond
0.0,4.0,0.0,0.0,4.0,4.0,303.1147920000876,2.0,1.0,phase_1,,,,,,,,,,,,,green,diamond
394.0,8.0,4.0,1.0,4.0,4.0,253.64974399963103,2.0,1.0,phase_1,,,,,,,,,,,,,blue,circle
392.0,4.0,4.0,0.0,4.0,4.0,473.2956139996531,2.0,1.0,phase_1,,,,,,,,,,,,,green,diamond
124.0,2.0,1.0,0.0,2.0,2.0,695.8209130007162,2.0,1.0,phase_1,,,,,,,,,,,,,gray,square
120.0,6.0,1.0,1.0,1.0,1.0,330.3063060002387,2.0,1.0,phase_1,,,,,,,,,,,,,yellow,triangle
186.0,3.0,2.0,0.0,3.0,3.0,369.7520369996709,2.0,1.0,phase_1,,,,,,,,,,,,,white,cross
73.0,5.0,0.5,1.0,3.0,3.0,383.4660630000144,2.0,1.0,phase_1,,,,,,,,,,,,,magenta,hexagon
407.0,8.0,4.0,1.0,1.0,1.0,423.8776060001328,2.0,1.0,phase_1,,,,,,,,,,,,,blue,circle
176.0,3.0,2.0,0.0,4.0,4.0,439.7173890001795,2.0,1.0,phase_1,,,,,,,,,,,,,white,cross
421.0,8.0,4.0,1.0,4.0,4.0,489.3386849998933,2.0,1.0,phase_1,,,,,,,,,,,,,blue,circle
400.0,8.0,4.0,1.0,4.0,4.0,350.3379060002771,2.0,1.0,phase_1,,,,,,,,,,,,,blue,circle
214.0,3.0,2.0,0.0,3.0,3.0,510.8225449994279,2.0,1.0,phase_1,,,,,,,,,,,,,white,cross
107.0,6.0,1.0,1.0,2.0,2.0,345.1766789994508,2.0,1.0,phase_1,,,,,,,,,,,,,yellow,triangle
0.0,4.0,0.0,0.0,3.0,3.0,352.2510600005262,2.0,1.0,phase_1,,,,,,,,,,,,,green,diamond
31.0,1.0,0.5,0.0,1.0,1.0,308.726246000333,2.0,1.0,phase_1,,,,,,,,,,,,,cyan,flipped triangle
413.0,4.0,4.0,0.0,2.0,2.0,344.7033860002193,2.0,1.0,phase_1,,,,,,,,,,,,,green,diamond
97.0,2.0,1.0,0.0,2.0,2.0,373.77241400008637,2.0,1.0,phase_1,,,,,,,,,,,,,gray,square
120.0,2.0,1.0,0.0,2.0,2.0,296.7277389998344,2.0,1.0,phase_1,,,,,,,,,,,,,gray,square
87.0,6.0,1.0,1.0,1.0,1.0,381.9643959996028,2.0,1.0,phase_1,,,,,,,,,,,,,yellow,triangle
110.0,6.0,1.0,1.0,3.0,3.0,346.6465350002181,2.0,1.0,phase_1,,,,,,,,,,,,,yellow,triangle
180.0,3.0,2.0,0.0,2.0,2.0,292.932698000186,2.0,1.0,phase_1,,,,,,,,,,,,,white,cross
75.0,6.0,1.0,1.0,2.0,2.0,300.8303560000058,2.0,1.0,phase_1,,,,,,,,,,,,,yellow,triangle
0.0,7.0,0.0,1.0,1.0,1.0,455.3118240000913,2.0,1.0,phase_1,,,,,,,,,,,,,orange,I
421.0,4.0,4.0,0.0,1.0,1.0,308.7120359996333,2.0,1.0,phase_1,,,,,,,,,,,,,green,diamond
388.0,4.0,4.0,0.0,1.0,1.0,296.4849259997208,2.0,1.0,phase_1,,,,,,,,,,,,,green,diamond
101.0,2.0,1.0,0.0,1.0,1.0,295.3495629999452,2.0,1.0,phase_1,,,,,,,,,,,,,gray,square
395.0,8.0,4.0,1.0,1.0,1.0,306.1584510005559,2.0,1.0,phase_1,,,,,,,,,,,,,blue,circle
77.0,6.0,1.0,1.0,1.0,1.0,281.2942759992438,2.0,1.0,phase_1,,,,,,,,,,,,,yellow,triangle
53.0,1.0,0.5,0.0,2.0,2.0,338.343208999504,2.0,1.0,phase_1,,,,,,,,,,,,,cyan,flipped triangle
389.0,4.0,4.0,0.0,1.0,1.0,383.9052070006801,2.0,1.0,phase_1,,,,,,,,,,,,,green,diamond
222.0,3.0,2.0,0.0,4.0,4.0,389.6653709998645,2.0,1.0,phase_1,,,,,,,,,,,,,white,cross
211.0,7.0,2.0,1.0,2.0,2.0,321.8176740001581,2.0,1.0,phase_1,,,,,,,,,,,,,orange,I
56.0,5.0,0.5,1.0,2.0,2.0,318.1959439998536,2.0,1.0,phase_1,,,,,,,,,,,,,magenta,hexagon
123.0,6.0,1.0,1.0,2.0,2.0,291.475015999822,2.0,1.0,phase_1,,,,,,,,,,,,,yellow,triangle
69.0,5.0,0.5,1.0,3.0,3.0,416.2180280000029,2.0,1.0,phase_1,,,,,,,,,,,,,magenta,hexagon
0.0,5.0,0.0,1.0,4.0,4.0,324.1396120001809,2.0,1.0,phase_1,,,,,,,,,,,,,magenta,hexagon
200.0,3.0,2.0,0.0,4.0,4.0,296.479497999826,2.0,1.0,phase_1,,,,,,,,,,,,,white,cross
215.0,3.0,2.0,0.0,3.0,3.0,381.1443679996955,2.0,1.0,phase_1,,,,,,,,,,,,,white,cross
92.0,2.0,1.0,0.0,2.0,2.0,356.7049829998723,2.0,1.0,phase_1,,,,,,,,,,,,,gray,square
94.0,6.0,1.0,1.0,4.0,4.0,369.8344309996173,2.0,1.0,phase_1,,,,,,,,,,,,,yellow,triangle
223.0,7.0,2.0,1.0,2.0,2.0,348.8186110007518,2.0,1.0,phase_1,,,,,,,,,,,,,orange,I
200.0,3.0,2.0,0.0,4.0,4.0,336.6931569998996,2.0,1.0,phase_1,,,,,,,,,,,,,white,cross
77.0,6.0,1.0,1.0,2.0,2.0,342.2414180004125,2.0,1.0,phase_1,,,,,,,,,,,,,yellow,triangle
36.0,5.0,0.5,1.0,1.0,1.0,395.5923169996822,2.0,1.0,phase_1,,,,,,,,,,,,,magenta,hexagon
0.0,2.0,0.0,0.0,2.0,2.0,326.0223649995168,2.0,1.0,phase_1,,,,,,,,,,,,,gray,square
216.0,7.0,2.0,1.0,1.0,1.0,387.2501679998095,2.0,1.0,phase_1,,,,,,,,,,,,,orange,I
69.0,5.0,0.5,1.0,4.0,4.0,457.5992079999196,2.0,1.0,phase_1,,,,,,,,,,,,,magenta,hexagon
0.0,5.0,0.0,1.0,1.0,1.0,435.7999490002839,2.0,1.0,phase_1,,,,,,,,,,,,,magenta,hexagon
46.0,5.0,0.5,1.0,1.0,1.0,338.4872430005998,2.0,1.0,phase_1,,,,,,,,,,,,,magenta,hexagon
0.0,4.0,0.0,0.0,1.0,1.0,341.1191510003846,3.0,1.0,phase_1,,,,,,,,,,,,,green,diamond
397.0,4.0,4.0,0.0,1.0,1.0,297.0580000001064,3.0,1.0,phase_1,,,,,,,,,,,,,green,diamond
0.0,5.0,0.0,1.0,1.0,1.0,310.1599010005884,3.0,1.0,phase_1,,,,,,,,,,,,,magenta,hexagon
0.0,7.0,0.0,1.0,1.0,1.0,330.9399800000392,3.0,1.0,phase_1,,,,,,,,,,,,,orange,I
180.0,7.0,2.0,1.0,1.0,1.0,262.5937100001465,3.0,1.0,phase_1,,,,,,,,,,,,,orange,I
415.0,4.0,4.0,0.0,1.0,1.0,243.5304529999484,3.0,1.0,phase_1,,,,,,,,,,,,,green,diamond
380.0,4.0,4.0,0.0,1.0,1.0,198.7279549994127,3.0,1.0,phase_1,,,,,,,,,,,,,green,diamond
0.0,6.0,0.0,1.0,2.0,2.0,292.836955999519,3.0,1.0,phase_1,,,,,,,,,,,,,yellow,triangle
199.0,7.0,2.0,1.0,1.0,1.0,271.2857469996379,3.0,1.0,phase_1,,,,,,,,,,,,,orange,I
397.0,4.0,4.0,0.0,1.0,1.0,247.020249000343,3.0,1.0,phase_1,,,,,,,,,,,,,green,diamond
417.0,4.0,4.0,0.0,4.0,4.0,392.8393870000946,3.0,1.0,phase_1,,,,,,,,,,,,,green,diamond
383.0,8.0,4.0,1.0,3.0,3.0,326.2499399997978,3.0,1.0,phase_1,,,,,,,,,,,,,blue,circle
394.0,8.0,4.0,1.0,4.0,4.0,317.2801739992792,3.0,1.0,phase_1,,,,,,,,,,,,,blue,circle
107.0,2.0,1.0,0.0,3.0,3.0,286.3313329999073,3.0,1.0,phase_1,,,,,,,,,,,,,gray,square
414.0,4.0,4.0,0.0,4.0,4.0,221.800188999623,3.0,1.0,phase_1,,,,,,,,,,,,,green,diamond
0.0,7.0,0.0,1.0,1.0,1.0,315.1312199997846,3.0,1.0,phase_1,,,,,,,,,,,,,orange,I
200.0,7.0,2.0,1.0,3.0,3.0,230.5652679997365,3.0,1.0,phase_1,,,,,,,,,,,,,orange,I
176.0,7.0,2.0,1.0,4.0,4.0,268.9436700002261,3.0,1.0,phase_1,,,,,,,,,,,,,orange,I
204.0,3.0,2.0,0.0,2.0,2.0,269.46612100073247,3.0,1.0,phase_1,,,,,,,,,,,,,white,cross
0.0,6.0,0.0,1.0,1.0,1.0,261.1177440003303,3.0,1.0,phase_1,,,,,,,,,,,,,yellow,triangle
393.0,8.0,4.0,1.0,2.0,2.0,265.9942689997479,3.0,1.0,phase_1,,,,,,,,,,,,,blue,circle
199.0,3.0,2.0,0.0,4.0,4.0,302.7153809998708,3.0,1.0,phase_1,,,,,,,,,,,,,white,cross
59.0,5.0,0.5,1.0,3.0,3.0,306.7534310002884,3.0,1.0,phase_1,,,,,,,,,,,,,magenta,hexagon
75.0,2.0,1.0,0.0,4.0,4.0,285.4070460007278,3.0,1.0,phase_1,,,,,,,,,,,,,gray,square
0.0,3.0,0.0,0.0,4.0,4.0,370.6316929992681,3.0,1.0,phase_1,,,,,,,,,,,,,white,cross
378.0,8.0,4.0,1.0,1.0,1.0,431.5156279999428,3.0,1.0,phase_1,,,,,,,,,,,,,blue,circle
389.0,8.0,4.0,1.0,3.0,3.0,510.14739499987627,3.0,1.0,phase_1,,,,,,,,,,,,,blue,circle
206.0,3.0,2.0,0.0,1.0,1.0,296.0702909995234,3.0,1.0,phase_1,,,,,,,,,,,,,white,cross
47.0,5.0,0.5,1.0,1.0,1.0,388.7856170003942,3.0,1.0,phase_1,,,,,,,,,,,,,magenta,hexagon
45.0,5.0,0.5,1.0,4.0,4.0,313.3115569999063,3.0,1.0,phase_1,,,,,,,,,,,,,magenta,hexagon
119.0,6.0,1.0,1.0,1.0,1.0,335.5347290007557,3.0,1.0,phase_1,,,,,,,,,,,,,yellow,triangle
193.0,3.0,2.0,0.0,2.0,2.0,293.5483110004497,3.0,1.0,phase_1,,,,,,,,,,,,,white,cross
0.0,2.0,0.0,0.0,4.0,4.0,336.197352000454,3.0,1.0,phase_1,,,,,,,,,,,,,gray,square
29.0,1.0,0.5,0.0,4.0,4.0,295.1002339996194,3.0,1.0,phase_1,,,,,,,,,,,,,cyan,flipped triangle
75.0,5.0,0.5,1.0,3.0,3.0,376.5391229999295,3.0,1.0,phase_1,,,,,,,,,,,,,magenta,hexagon
105.0,2.0,1.0,0.0,4.0,4.0,321.2408729996241,3.0,1.0,phase_1,,,,,,,,,,,,,gray,square
90.0,6.0,1.0,1.0,4.0,4.0,282.6614909999989,3.0,1.0,phase_1,,,,,,,,,,,,,yellow,triangle
415.0,8.0,4.0,1.0,3.0,3.0,328.4416229998896,3.0,1.0,phase_1,,,,,,,,,,,,,blue,circle
0.0,3.0,0.0,0.0,1.0,1.0,411.3478150002265,3.0,1.0,phase_1,,,,,,,,,,,,,white,cross
75.0,2.0,1.0,0.0,2.0,2.0,335.7002929997179,3.0,1.0,phase_1,,,,,,,,,,,,,gray,square
417.0,8.0,4.0,1.0,3.0,3.0,285.4403769997589,3.0,1.0,phase_1,,,,,,,,,,,,,blue,circle
34.0,5.0,0.5,1.0,4.0,4.0,275.3359839998666,3.0,1.0,phase_1,,,,,,,,,,,,,magenta,hexagon
107.0,6.0,1.0,1.0,3.0,3.0,310.2266229998349,3.0,1.0,phase_1,,,,,,,,,,,,,yellow,triangle
63.0,5.0,0.5,1.0,2.0,2.0,290.9545399998023,3.0,1.0,phase_1,,,,,,,,,,,,,magenta,hexagon
0.0,6.0,0.0,1.0,2.0,2.0,290.7708630000343,3.0,1.0,phase_1,,,,,,,,,,,,,yellow,triangle
111.0,6.0,1.0,1.0,1.0,1.0,350.3135959999781,3.0,1.0,phase_1,,,,,,,,,,,,,yellow,triangle
185.0,3.0,2.0,0.0,1.0,1.0,400.5166710003323,3.0,1.0,phase_1,,,,,,,,,,,,,white,cross
123.0,2.0,1.0,0.0,1.0,1.0,336.5978430001632,3.0,1.0,phase_1,,,,,,,,,,,,,gray,square
63.0,5.0,0.5,1.0,4.0,4.0,382.1231029996852,3.0,1.0,phase_1,,,,,,,,,,,,,magenta,hexagon
82.0,2.0,1.0,0.0,1.0,1.0,306.5915679999307,3.0,1.0,phase_1,,,,,,,,,,,,,gray,square
0.0,5.0,0.0,1.0,2.0,2.0,317.8238279997458,3.0,1.0,phase_1,,,,,,,,,,,,,magenta,hexagon
0.0,3.0,0.0,0.0,4.0,4.0,291.1752629997863,3.0,1.0,phase_1,,,,,,,,,,,,,white,cross
118.0,6.0,1.0,1.0,3.0,3.0,519.2944379996334,3.0,1.0,phase_1,,,,,,,,,,,,,yellow,triangle
382.0,4.0,4.0,0.0,1.0,1.0,324.9826070004928,3.0,1.0,phase_1,,,,,,,,,,,,,green,diamond
418.0,4.0,4.0,0.0,3.0,3.0,318.9374529993074,3.0,1.0,phase_1,,,,,,,,,,,,,green,diamond
393.0,4.0,4.0,0.0,2.0,2.0,533.141928999612,3.0,1.0,phase_1,,,,,,,,,,,,,green,diamond
217.0,7.0,2.0,1.0,4.0,4.0,407.7805930000977,3.0,1.0,phase_1,,,,,,,,,,,,,orange,I
54.0,5.0,0.5,1.0,4.0,4.0,341.112793999855,3.0,1.0,phase_1,,,,,,,,,,,,,magenta,hexagon
46.0,1.0,0.5,0.0,1.0,1.0,468.8037319992872,3.0,1.0,phase_1,,,,,,,,,,,,,cyan,flipped triangle
77.0,2.0,1.0,0.0,1.0,1.0,360.792596000465,3.0,1.0,phase_1,,,,,,,,,,,,,gray,square
421.0,4.0,4.0,0.0,2.0,2.0,275.1194390002638,3.0,1.0,phase_1,,,,,,,,,,,,,green,diamond
45.0,1.0,0.5,0.0,2.0,2.0,322.1899209993353,3.0,1.0,phase_1,,,,,,,,,,,,,cyan,flipped triangle
190.0,7.0,2.0,1.0,3.0,3.0,268.4080560002257,3.0,1.0,phase_1,,,,,,,,,,,,,orange,I
405.0,8.0,4.0,1.0,3.0,3.0,307.3954279998361,3.0,1.0,phase_1,,,,,,,,,,,,,blue,circle
123.0,6.0,1.0,1.0,2.0,2.0,285.7262210000044,3.0,1.0,phase_1,,,,,,,,,,,,,yellow,triangle
89.0,2.0,1.0,0.0,3.0,3.0,305.7042009995712,3.0,1.0,phase_1,,,,,,,,,,,,,gray,square
0.0,8.0,0.0,1.0,4.0,4.0,399.0387280000504,3.0,1.0,phase_1,,,,,,,,,,,,,blue,circle
118.0,6.0,1.0,1.0,2.0,2.0,333.8642560001972,3.0,1.0,phase_1,,,,,,,,,,,,,yellow,triangle
99.0,2.0,1.0,0.0,4.0,4.0,332.4786729999687,3.0,2.0,phase_1,,,,,,,,,,,,,gray,square
77.0,2.0,1.0,0.0,3.0,3.0,549.3760920007844,3.0,1.0,phase_1,,,,,,,,,,,,,gray,square
388.0,8.0,4.0,1.0,4.0,4.0,350.7899570004156,3.0,1.0,phase_1,,,,,,,,,,,,,blue,circle
118.0,2.0,1.0,0.0,1.0,1.0,395.5201560002024,3.0,1.0,phase_1,,,,,,,,,,,,,gray,square
0.0,7.0,0.0,1.0,3.0,3.0,282.607967000331,3.0,1.0,phase_1,,,,,,,,,,,,,orange,I
71.0,1.0,0.5,0.0,1.0,1.0,372.6471129994024,3.0,1.0,phase_1,,,,,,,,,,,,,cyan,flipped triangle
394.0,8.0,4.0,1.0,2.0,2.0,265.3930240003319,3.0,1.0,phase_1,,,,,,,,,,,,,blue,circle
96.0,2.0,1.0,0.0,1.0,1.0,207.6833969995277,3.0,1.0,phase_1,,,,,,,,,,,,,gray,square
217.0,3.0,2.0,0.0,1.0,1.0,301.7356810005367,3.0,1.0,phase_1,,,,,,,,,,,,,white,cross
378.0,8.0,4.0,1.0,4.0,4.0,289.158889000646,3.0,1.0,phase_1,,,,,,,,,,,,,blue,circle
0.0,2.0,0.0,0.0,2.0,2.0,341.6901929995219,3.0,1.0,phase_1,,,,,,,,,,,,,gray,square
59.0,5.0,0.5,1.0,4.0,4.0,267.6403030000074,3.0,1.0,phase_1,,,,,,,,,,,,,magenta,hexagon
96.0,6.0,1.0,1.0,1.0,1.0,349.7375779998037,3.0,1.0,phase_1,,,,,,,,,,,,,yellow,triangle
395.0,8.0,4.0,1.0,2.0,2.0,361.5901059993121,3.0,1.0,phase_1,,,,,,,,,,,,,blue,circle
216.0,3.0,2.0,0.0,1.0,1.0,320.8136879993617,3.0,1.0,phase_1,,,,,,,,,,,,,white,cross
185.0,7.0,2.0,1.0,3.0,3.0,363.8664029995198,3.0,1.0,phase_1,,,,,,,,,,,,,orange,I
107.0,2.0,1.0,0.0,2.0,2.0,360.2272059997631,3.0,1.0,phase_1,,,,,,,,,,,,,gray,square
0.0,8.0,0.0,1.0,1.0,1.0,285.1666359993032,3.0,1.0,phase_1,,,,,,,,,,,,,blue,circle
27.0,1.0,0.5,0.0,4.0,4.0,395.6176940000659,3.0,1.0,phase_1,,,,,,,,,,,,,cyan,flipped triangle
0.0,3.0,0.0,0.0,1.0,1.0,353.610870999546,3.0,1.0,phase_1,,,,,,,,,,,,,white,cross
413.0,4.0,4.0,0.0,2.0,2.0,316.7727930003821,3.0,1.0,phase_1,,,,,,,,,,,,,green,diamond
395.0,4.0,4.0,0.0,3.0,3.0,364.9184039995816,3.0,2.0,phase_1,,,,,,,,,,,,,green,diamond
95.0,6.0,1.0,1.0,3.0,3.0,304.2263190000085,3.0,1.0,phase_1,,,,,,,,,,,,,yellow,triangle
44.0,5.0,0.5,1.0,3.0,3.0,341.3232580005569,3.0,1.0,phase_1,,,,,,,,,,,,,magenta,hexagon
180.0,3.0,2.0,0.0,4.0,4.0,298.0501439997169,3.0,1.0,phase_1,,,,,,,,,,,,,white,cross
118.0,2.0,1.0,0.0,4.0,4.0,313.5354599999118,3.0,1.0,phase_1,,,,,,,,,,,,,gray,square
405.0,8.0,4.0,1.0,2.0,2.0,375.0856630003909,3.0,1.0,phase_1,,,,,,,,,,,,,blue,circle
0.0,8.0,0.0,1.0,2.0,2.0,305.6703419997575,3.0,1.0,phase_1,,,,,,,,,,,,,blue,circle
0.0,1.0,0.0,0.0,1.0,1.0,421.3175579998278,3.0,1.0,phase_1,,,,,,,,,,,,,cyan,flipped triangle
0.0,1.0,0.0,0.0,4.0,4.0,313.9817560004303,3.0,1.0,phase_1,,,,,,,,,,,,,cyan,flipped triangle
0.0,4.0,0.0,0.0,2.0,2.0,302.749789999325,3.0,1.0,phase_1,,,,,,,,,,,,,green,diamond
418.0,8.0,4.0,1.0,1.0,1.0,283.6271579999447,3.0,1.0,phase_1,,,,,,,,,,,,,blue,circle
74.0,5.0,0.5,1.0,2.0,2.0,392.0837129999199,4.0,1.0,phase_1,,,,,,,,,,,,,magenta,hexagon
0.0,5.0,0.0,1.0,3.0,3.0,352.1414790002382,4.0,1.0,phase_1,,,,,,,,,,,,,magenta,hexagon
110.0,2.0,1.0,0.0,1.0,1.0,281.8307030001961,4.0,1.0,phase_1,,,,,,,,,,,,,gray,square
193.0,7.0,2.0,1.0,3.0,3.0,302.491929000098,4.0,1.0,phase_1,,,,,,,,,,,,,orange,I
0.0,8.0,0.0,1.0,1.0,1.0,258.4722429992325,4.0,1.0,phase_1,,,,,,,,,,,,,blue,circle
0.0,1.0,0.0,0.0,1.0,1.0,257.9343360002895,4.0,1.0,phase_1,,,,,,,,,,,,,cyan,flipped triangle
199.0,3.0,2.0,0.0,3.0,3.0,277.5615419996029,4.0,1.0,phase_1,,,,,,,,,,,,,white,cross
0.0,3.0,0.0,0.0,4.0,4.0,304.8328049999327,4.0,1.0,phase_1,,,,,,,,,,,,,white,cross
0.0,4.0,0.0,0.0,2.0,2.0,335.4176029997688,4.0,1.0,phase_1,,,,,,,,,,,,,green,diamond
57.0,1.0,0.5,0.0,2.0,2.0,375.3309650001029,4.0,2.0,phase_1,,,,,,,,,,,,,cyan,flipped triangle
389.0,4.0,4.0,0.0,3.0,3.0,403.6956019999707,4.0,1.0,phase_1,,,,,,,,,,,,,green,diamond
393.0,4.0,4.0,0.0,4.0,4.0,392.9566689994317,4.0,1.0,phase_1,,,,,,,,,,,,,green,diamond
63.0,1.0,0.5,0.0,1.0,1.0,308.7143419998028,4.0,1.0,phase_1,,,,,,,,,,,,,cyan,flipped triangle
395.0,8.0,4.0,1.0,3.0,3.0,317.1976060002635,4.0,1.0,phase_1,,,,,,,,,,,,,blue,circle
186.0,7.0,2.0,1.0,1.0,1.0,325.61840400012437,4.0,1.0,phase_1,,,,,,,,,,,,,orange,I
0.0,1.0,0.0,0.0,2.0,2.0,310.3567219995966,4.0,1.0,phase_1,,,,,,,,,,,,,cyan,flipped triangle
0.0,2.0,0.0,0.0,4.0,4.0,330.2084879996982,4.0,1.0,phase_1,,,,,,,,,,,,,gray,square
0.0,5.0,0.0,1.0,4.0,4.0,323.9392930008762,4.0,1.0,phase_1,,,,,,,,,,,,,magenta,hexagon
61.0,5.0,0.5,1.0,1.0,1.0,315.3613370004677,4.0,1.0,phase_1,,,,,,,,,,,,,magenta,hexagon
0.0,3.0,0.0,0.0,1.0,1.0,367.8092930003913,4.0,1.0,phase_1,,,,,,,,,,,,,white,cross
97.0,2.0,1.0,0.0,3.0,3.0,372.9776529999071,4.0,1.0,phase_1,,,,,,,,,,,,,gray,square
0.0,7.0,0.0,1.0,1.0,1.0,255.92041899926699,4.0,1.0,phase_1,,,,,,,,,,,,,orange,I
59.0,1.0,0.5,0.0,2.0,2.0,348.3848100004252,4.0,1.0,phase_1,,,,,,,,,,,,,cyan,flipped triangle
102.0,6.0,1.0,1.0,4.0,4.0,332.0246160001261,4.0,1.0,phase_1,,,,,,,,,,,,,yellow,triangle
417.0,4.0,4.0,0.0,3.0,3.0,525.2537549995395,4.0,1.0,phase_1,,,,,,,,,,,,,green,diamond
395.0,4.0,4.0,0.0,2.0,2.0,394.2283139995197,4.0,1.0,phase_1,,,,,,,,,,,,,green,diamond
216.0,3.0,2.0,0.0,2.0,2.0,279.0037310005573,4.0,1.0,phase_1,,,,,,,,,,,,,white,cross
424.0,4.0,4.0,0.0,1.0,1.0,298.9211690000957,4.0,1.0,phase_1,,,,,,,,,,,,,green,diamond
27.0,5.0,0.5,1.0,4.0,4.0,345.7302879996859,4.0,1.0,phase_1,,,,,,,,,,,,,magenta,hexagon
0.0,7.0,0.0,1.0,4.0,4.0,374.2352019999089,4.0,1.0,phase_1,,,,,,,,,,,,,orange,I
84.0,6.0,1.0,1.0,3.0,3.0,352.2086700004365,4.0,2.0,phase_1,,,,,,,,,,,,,yellow,triangle
0.0,1.0,0.0,0.0,1.0,1.0,267.6600519998828,4.0,1.0,phase_1,,,,,,,,,,,,,cyan,flipped triangle
400.0,4.0,4.0,0.0,2.0,2.0,305.2317430001494,4.0,1.0,phase_1,,,,,,,,,,,,,green,diamond
419.0,8.0,4.0,1.0,3.0,3.0,350.493902999915,4.0,1.0,phase_1,,,,,,,,,,,,,blue,circle
217.0,3.0,2.0,0.0,4.0,4.0,321.2435280001955,4.0,1.0,phase_1,,,,,,,,,,,,,white,cross
197.0,7.0,2.0,1.0,4.0,4.0,247.6423130001421,4.0,1.0,phase_1,,,,,,,,,,,,,orange,I
42.0,5.0,0.5,1.0,2.0,2.0,321.9471449992852,4.0,1.0,phase_1,,,,,,,,,,,,,magenta,hexagon
383.0,4.0,4.0,0.0,4.0,4.0,224.5021670005371,4.0,1.0,phase_1,,,,,,,,,,,,,green,diamond
0.0,2.0,0.0,0.0,2.0,2.0,301.1426160001065,4.0,1.0,phase_1,,,,,,,,,,,,,gray,square
186.0,7.0,2.0,1.0,2.0,2.0,312.7547880003476,4.0,1.0,phase_1,,,,,,,,,,,,,orange,I
211.0,3.0,2.0,0.0,2.0,2.0,348.7872810001136,4.0,1.0,phase_1,,,,,,,,,,,,,white,cross
99.0,2.0,1.0,0.0,4.0,4.0,323.8170330005232,4.0,1.0,phase_1,,,,,,,,,,,,,gray,square
107.0,2.0,1.0,0.0,3.0,3.0,294.7966540004927,4.0,1.0,phase_1,,,,,,,,,,,,,gray,square
420.0,4.0,4.0,0.0,2.0,2.0,318.3449329999348,4.0,1.0,phase_1,,,,,,,,,,,,,green,diamond
417.0,8.0,4.0,1.0,1.0,1.0,321.2367210007869,4.0,1.0,phase_1,,,,,,,,,,,,,blue,circle
206.0,3.0,2.0,0.0,1.0,1.0,335.6341010003234,4.0,1.0,phase_1,,,,,,,,,,,,,white,cross
35.0,1.0,0.5,0.0,4.0,4.0,345.466211000712,4.0,1.0,phase_1,,,,,,,,,,,,,cyan,flipped triangle
123.0,2.0,1.0,0.0,2.0,2.0,311.7017690001376,4.0,1.0,phase_1,,,,,,,,,,,,,gray,square
181.0,7.0,2.0,1.0,4.0,4.0,356.5591110000241,4.0,1.0,phase_1,,,,,,,,,,,,,orange,I
31.0,5.0,0.5,1.0,1.0,1.0,327.4633589999212,4.0,1.0,phase_1,,,,,,,,,,,,,magenta,hexagon
389.0,8.0,4.0,1.0,1.0,1.0,430.2491090002149,4.0,1.0,phase_1,,,,,,,,,,,,,blue,circle
0.0,5.0,0.0,1.0,4.0,4.0,344.1728249999869,4.0,1.0,phase_1,,,,,,,,,,,,,magenta,hexagon
211.0,7.0,2.0,1.0,2.0,2.0,380.5462010004703,4.0,1.0,phase_1,,,,,,,,,,,,,orange,I
413.0,8.0,4.0,1.0,2.0,2.0,329.5788440000251,4.0,1.0,phase_1,,,,,,,,,,,,,blue,circle
376.0,8.0,4.0,1.0,1.0,1.0,296.604116000708,4.0,1.0,phase_1,,,,,,,,,,,,,blue,circle
223.0,3.0,2.0,0.0,1.0,1.0,316.4905159992486,4.0,1.0,phase_1,,,,,,,,,,,,,white,cross
178.0,7.0,2.0,1.0,4.0,4.0,530.0769180003044,4.0,1.0,phase_1,,,,,,,,,,,,,orange,I
422.0,8.0,4.0,1.0,4.0,4.0,332.877620000545,4.0,1.0,phase_1,,,,,,,,,,,,,blue,circle
36.0,1.0,0.5,0.0,3.0,3.0,317.0846310003981,4.0,1.0,phase_1,,,,,,,,,,,,,cyan,flipped triangle
51.0,1.0,0.5,0.0,4.0,4.0,285.3896970000278,4.0,1.0,phase_1,,,,,,,,,,,,,cyan,flipped triangle
192.0,3.0,2.0,0.0,3.0,3.0,314.2601819999981,4.0,1.0,phase_1,,,,,,,,,,,,,white,cross
200.0,7.0,2.0,1.0,1.0,1.0,287.4725720002971,4.0,1.0,phase_1,,,,,,,,,,,,,orange,I
225.0,7.0,2.0,1.0,2.0,2.0,325.6109280000601,4.0,1.0,phase_1,,,,,,,,,,,,,orange,I
33.0,1.0,0.5,0.0,1.0,1.0,363.7427939993358,4.0,1.0,phase_1,,,,,,,,,,,,,cyan,flipped triangle
87.0,2.0,1.0,0.0,4.0,4.0,349.1301029998794,4.0,1.0,phase_1,,,,,,,,,,,,,gray,square
57.0,5.0,0.5,1.0,2.0,2.0,393.4538330004216,4.0,1.0,phase_1,,,,,,,,,,,,,magenta,hexagon
0.0,5.0,0.0,1.0,4.0,4.0,294.9750210000275,4.0,1.0,phase_1,,,,,,,,,,,,,magenta,hexagon
0.0,2.0,0.0,0.0,2.0,2.0,322.918732999824,4.0,1.0,phase_1,,,,,,,,,,,,,gray,square
0.0,6.0,0.0,1.0,2.0,2.0,299.3284459998904,4.0,1.0,phase_1,,,,,,,,,,,,,yellow,triangle
89.0,6.0,1.0,1.0,3.0,3.0,324.1365020003286,4.0,1.0,phase_1,,,,,,,,,,,,,yellow,triangle
88.0,2.0,1.0,0.0,4.0,4.0,348.2222709999405,4.0,1.0,phase_1,,,,,,,,,,,,,gray,square
0.0,4.0,0.0,0.0,2.0,2.0,285.9287940000286,4.0,1.0,phase_1,,,,,,,,,,,,,green,diamond
378.0,4.0,4.0,0.0,3.0,3.0,290.5738130002646,4.0,1.0,phase_1,,,,,,,,,,,,,green,diamond
107.0,6.0,1.0,1.0,1.0,1.0,278.9361410004858,4.0,1.0,phase_1,,,,,,,,,,,,,yellow,triangle
34.0,5.0,0.5,1.0,2.0,2.0,244.4604150005034,4.0,1.0,phase_1,,,,,,,,,,,,,magenta,hexagon
210.0,3.0,2.0,0.0,3.0,3.0,322.2059029994852,4.0,1.0,phase_1,,,,,,,,,,,,,white,cross
38.0,1.0,0.5,0.0,4.0,4.0,325.7667110001421,4.0,1.0,phase_1,,,,,,,,,,,,,cyan,flipped triangle
0.0,6.0,0.0,1.0,3.0,3.0,308.97425799958,4.0,1.0,phase_1,,,,,,,,,,,,,yellow,triangle
88.0,6.0,1.0,1.0,1.0,1.0,263.783549999971,4.0,1.0,phase_1,,,,,,,,,,,,,yellow,triangle
117.0,2.0,1.0,0.0,4.0,4.0,341.5555990004577,4.0,1.0,phase_1,,,,,,,,,,,,,gray,square
0.0,8.0,0.0,1.0,2.0,2.0,328.0965800004196,4.0,1.0,phase_1,,,,,,,,,,,,,blue,circle
176.0,3.0,2.0,0.0,3.0,3.0,388.5126940003829,4.0,1.0,phase_1,,,,,,,,,,,,,white,cross
111.0,2.0,1.0,0.0,4.0,4.0,308.8516159996288,4.0,1.0,phase_1,,,,,,,,,,,,,gray,square
190.0,3.0,2.0,0.0,3.0,3.0,272.434000999965,4.0,1.0,phase_1,,,,,,,,,,,,,white,cross
0.0,2.0,0.0,0.0,2.0,2.0,389.4746850000956,4.0,1.0,phase_1,,,,,,,,,,,,,gray,square
378.0,4.0,4.0,0.0,3.0,3.0,298.6122160000377,4.0,1.0,phase_1,,,,,,,,,,,,,green,diamond
0.0,6.0,0.0,1.0,1.0,1.0,256.1040340006002,4.0,1.0,phase_1,,,,,,,,,,,,,yellow,triangle
124.0,6.0,1.0,1.0,2.0,2.0,257.1476670000265,4.0,1.0,phase_1,,,,,,,,,,,,,yellow,triangle
0.0,5.0,0.0,1.0,4.0,4.0,265.3329820004728,4.0,1.0,phase_1,,,,,,,,,,,,,magenta,hexagon
45.0,1.0,0.5,0.0,3.0,3.0,309.1116359992156,4.0,1.0,phase_1,,,,,,,,,,,,,cyan,flipped triangle
413.0,8.0,4.0,1.0,1.0,1.0,250.4468020006243,4.0,1.0,phase_1,,,,,,,,,,,,,blue,circle
0.0,3.0,0.0,0.0,2.0,2.0,306.9972150005924,4.0,1.0,phase_1,,,,,,,,,,,,,white,cross
421.0,8.0,4.0,1.0,2.0,2.0,307.3518490000424,4.0,1.0,phase_1,,,,,,,,,,,,,blue,circle
47.0,1.0,0.5,0.0,2.0,2.0,372.7293499996449,4.0,1.0,phase_1,,,,,,,,,,,,,cyan,flipped triangle
50.0,5.0,0.5,1.0,2.0,2.0,395.1377499997761,4.0,1.0,phase_1,,,,,,,,,,,,,magenta,hexagon
0.0,8.0,0.0,1.0,2.0,2.0,309.8965869994572,4.0,1.0,phase_1,,,,,,,,,,,,,blue,circle
395.0,4.0,4.0,0.0,4.0,4.0,318.8839699996606,4.0,1.0,phase_1,,,,,,,,,,,,,green,diamond
0.0,1.0,0.0,0.0,4.0,4.0,274.5984859993768,4.0,1.0,phase_1,,,,,,,,,,,,,cyan,flipped triangle
0.0,7.0,0.0,1.0,2.0,2.0,276.4544279998517,4.0,1.0,phase_1,,,,,,,,,,,,,orange,I
392.0,8.0,4.0,1.0,3.0,3.0,298.2100850003917,4.0,1.0,phase_1,,,,,,,,,,,,,blue,circle
0.0,2.0,1.0,0.0,6.0,6.0,422.9643509997913,1.0,1.0,phase_2,go,250.0,250.0,1.0,,,,,,,,,gray,square
0.0,2.0,1.0,0.0,6.0,6.0,269.5882809994145,1.0,1.0,phase_2,go,250.0,250.0,1.0,,,,,,,,,gray,square
0.0,7.0,2.0,1.0,6.0,6.0,308.6009899998316,1.0,1.0,phase_2,go,250.0,250.0,1.0,,,,,,,,,orange,I
0.0,3.0,2.0,0.0,5.0,5.0,317.912320000687,1.0,1.0,phase_2,go,250.0,250.0,1.0,,,,,,,,,white,cross
0.0,3.0,2.0,0.0,6.0,6.0,222.7512519993979,1.0,1.0,phase_2,go,250.0,250.0,1.0,,,,,,,,,white,cross
0.0,6.0,1.0,1.0,5.0,5.0,275.1616189998458,1.0,1.0,phase_2,go,250.0,250.0,1.0,,,,,,,,,yellow,triangle
0.0,4.0,4.0,0.0,6.0,6.0,187.1704529994531,1.0,1.0,phase_2,go,250.0,250.0,1.0,,,,,,,,,green,diamond
0.0,6.0,1.0,1.0,6.0,0.0,0.0,1.0,1.0,phase_2,stop,250.0,250.0,4.0,,,,,,,,,yellow,triangle
0.0,4.0,4.0,0.0,6.0,6.0,324.4729890002418,1.0,1.0,phase_2,go,250.0,300.0,1.0,,,,,,,,,green,diamond
0.0,5.0,0.5,1.0,6.0,6.0,324.3173210003078,1.0,1.0,phase_2,stop,250.0,300.0,3.0,,,,,,,,,magenta,hexagon
0.0,1.0,0.5,0.0,6.0,6.0,627.3988949997147,1.0,1.0,phase_2,go,250.0,250.0,1.0,,,,,,,,,cyan,flipped triangle
0.0,2.0,1.0,0.0,6.0,6.0,383.8582779999342,1.0,1.0,phase_2,go,250.0,250.0,1.0,,,,,,,,,gray,square
0.0,7.0,2.0,1.0,5.0,5.0,488.9760900005058,1.0,1.0,phase_2,go,250.0,250.0,1.0,,,,,,,,,orange,I
0.0,5.0,0.5,1.0,5.0,5.0,274.0113619993281,1.0,1.0,phase_2,stop,250.0,250.0,3.0,,,,,,,,,magenta,hexagon
0.0,7.0,2.0,1.0,6.0,0.0,0.0,1.0,1.0,phase_2,stop,200.0,250.0,4.0,,,,,,,,,orange,I
0.0,1.0,0.5,0.0,5.0,5.0,455.5429820002246,1.0,1.0,phase_2,go,200.0,300.0,1.0,,,,,,,,,cyan,flipped triangle
0.0,8.0,4.0,1.0,5.0,5.0,358.6640270004864,1.0,1.0,phase_2,stop,200.0,300.0,3.0,,,,,,,,,blue,circle
0.0,3.0,2.0,0.0,5.0,5.0,531.6390640000463,1.0,1.0,phase_2,go,150.0,300.0,1.0,,,,,,,,,white,cross
0.0,5.0,0.5,1.0,5.0,5.0,590.4654280002433,1.0,1.0,phase_2,go,150.0,300.0,1.0,,,,,,,,,magenta,hexagon
0.0,5.0,0.5,1.0,6.0,6.0,315.5713610003658,1.0,1.0,phase_2,stop,150.0,300.0,3.0,,,,,,,,,magenta,hexagon
0.0,7.0,2.0,1.0,5.0,5.0,525.0091119996796,1.0,1.0,phase_2,go,150.0,250.0,1.0,,,,,,,,,orange,I
0.0,1.0,0.5,0.0,5.0,5.0,612.3041459995875,1.0,1.0,phase_2,go,150.0,250.0,1.0,,,,,,,,,cyan,flipped triangle
0.0,2.0,1.0,0.0,6.0,6.0,536.8279210006222,1.0,1.0,phase_2,go,150.0,250.0,1.0,,,,,,,,,gray,square
0.0,2.0,1.0,0.0,6.0,6.0,416.3067980007326,1.0,1.0,phase_2,go,150.0,250.0,1.0,,,,,,,,,gray,square
0.0,8.0,4.0,1.0,5.0,0.0,0.0,1.0,1.0,phase_2,stop,150.0,250.0,4.0,,,,,,,,,blue,circle
0.0,7.0,2.0,1.0,6.0,6.0,312.8498590003801,1.0,1.0,phase_2,stop,200.0,250.0,3.0,,,,,,,,,orange,I
0.0,2.0,1.0,0.0,5.0,5.0,495.2027150002323,1.0,1.0,phase_2,go,200.0,200.0,1.0,,,,,,,,,gray,square
0.0,5.0,0.5,1.0,5.0,0.0,0.0,1.0,1.0,phase_2,stop,200.0,200.0,4.0,,,,,,,,,magenta,hexagon
0.0,7.0,2.0,1.0,5.0,0.0,0.0,1.0,1.0,phase_2,stop,250.0,200.0,4.0,,,,,,,,,orange,I
0.0,6.0,1.0,1.0,6.0,6.0,281.1133519999202,1.0,1.0,phase_2,stop,300.0,200.0,3.0,,,,,,,,,yellow,triangle
0.0,1.0,0.5,0.0,6.0,6.0,340.4983129994434,1.0,1.0,phase_2,go,300.0,150.0,1.0,,,,,,,,,cyan,flipped triangle
0.0,4.0,4.0,0.0,5.0,5.0,492.4484450002637,1.0,1.0,phase_2,go,300.0,150.0,1.0,,,,,,,,,green,diamond
0.0,3.0,2.0,0.0,5.0,5.0,589.7800080001616,1.0,1.0,phase_2,go,300.0,150.0,1.0,,,,,,,,,white,cross
0.0,5.0,0.5,1.0,6.0,6.0,421.1603300000206,1.0,1.0,phase_2,go,300.0,150.0,1.0,,,,,,,,,magenta,hexagon
0.0,1.0,0.5,0.0,5.0,5.0,394.2006410006797,1.0,1.0,phase_2,go,300.0,150.0,1.0,,,,,,,,,cyan,flipped triangle
0.0,5.0,0.5,1.0,6.0,6.0,322.9773760003809,1.0,1.0,phase_2,stop,300.0,150.0,3.0,,,,,,,,,magenta,hexagon
0.0,2.0,1.0,0.0,5.0,5.0,1348.5477809999793,2.0,1.0,phase_2,go,300.0,100.0,1.0,,,,,,,,,gray,square
0.0,4.0,4.0,0.0,6.0,6.0,245.3003430000535,2.0,1.0,phase_2,go,300.0,100.0,1.0,,,,,,,,,green,diamond
0.0,3.0,2.0,0.0,6.0,6.0,371.5477389996522,2.0,1.0,phase_2,go,300.0,100.0,1.0,,,,,,,,,white,cross
0.0,1.0,0.5,0.0,5.0,5.0,388.6884189996635,2.0,1.0,phase_2,go,300.0,100.0,1.0,,,,,,,,,cyan,flipped triangle
0.0,2.0,1.0,0.0,6.0,6.0,339.9472090004565,2.0,1.0,phase_2,go,300.0,100.0,1.0,,,,,,,,,gray,square
0.0,1.0,0.5,0.0,6.0,6.0,372.9834719997598,2.0,1.0,phase_2,go,300.0,100.0,1.0,,,,,,,,,cyan,flipped triangle
0.0,1.0,0.5,0.0,5.0,5.0,476.8532500002038,2.0,1.0,phase_2,go,300.0,100.0,1.0,,,,,,,,,cyan,flipped triangle
0.0,7.0,2.0,1.0,6.0,0.0,0.0,2.0,1.0,phase_2,stop,300.0,100.0,4.0,,,,,,,,,orange,I
0.0,4.0,4.0,0.0,5.0,5.0,403.9220710001245,2.0,1.0,phase_2,go,300.0,150.0,1.0,,,,,,,,,green,diamond
0.0,2.0,1.0,0.0,6.0,6.0,394.258825000179,2.0,1.0,phase_2,go,300.0,150.0,1.0,,,,,,,,,gray,square
0.0,4.0,4.0,0.0,6.0,6.0,346.372691000397,2.0,1.0,phase_2,go,300.0,150.0,1.0,,,,,,,,,green,diamond
0.0,5.0,0.5,1.0,5.0,5.0,354.5754879996821,2.0,1.0,phase_2,stop,300.0,150.0,3.0,,,,,,,,,magenta,hexagon
0.0,8.0,4.0,1.0,5.0,6.0,574.1692160008824,2.0,1.0,phase_2,go,250.0,150.0,2.0,,,,,,,,,blue,circle
0.0,6.0,1.0,1.0,5.0,0.0,0.0,2.0,1.0,phase_2,stop,250.0,150.0,4.0,,,,,,,,,yellow,triangle
0.0,6.0,1.0,1.0,5.0,5.0,340.8407460001399,2.0,1.0,phase_2,stop,300.0,150.0,3.0,,,,,,,,,yellow,triangle
0.0,8.0,4.0,1.0,6.0,0.0,0.0,2.0,1.0,phase_2,stop,250.0,150.0,4.0,,,,,,,,,blue,circle
0.0,2.0,1.0,0.0,6.0,6.0,359.0423010000449,2.0,1.0,phase_2,go,250.0,200.0,1.0,,,,,,,,,gray,square
0.0,3.0,2.0,0.0,5.0,5.0,556.1174330005088,2.0,1.0,phase_2,go,250.0,200.0,1.0,,,,,,,,,white,cross
0.0,6.0,1.0,1.0,5.0,0.0,0.0,2.0,1.0,phase_2,stop,250.0,200.0,4.0,,,,,,,,,yellow,triangle
0.0,5.0,0.5,1.0,5.0,5.0,402.8941480000867,2.0,1.0,phase_2,stop,300.0,200.0,3.0,,,,,,,,,magenta,hexagon
0.0,3.0,2.0,0.0,6.0,6.0,570.7051380004486,2.0,1.0,phase_2,go,250.0,200.0,1.0,,,,,,,,,white,cross
0.0,7.0,2.0,1.0,5.0,5.0,379.4969660002607,2.0,1.0,phase_2,stop,250.0,200.0,3.0,,,,,,,,,orange,I
0.0,7.0,2.0,1.0,5.0,0.0,0.0,2.0,1.0,phase_2,stop,200.0,200.0,4.0,,,,,,,,,orange,I
0.0,1.0,0.5,0.0,5.0,5.0,640.2582950004216,2.0,1.0,phase_2,go,250.0,200.0,1.0,,,,,,,,,cyan,flipped triangle
0.0,1.0,0.5,0.0,5.0,5.0,521.6993510002794,2.0,1.0,phase_2,go,250.0,200.0,1.0,,,,,,,,,cyan,flipped triangle
0.0,2.0,1.0,0.0,5.0,5.0,641.1618199999793,2.0,1.0,phase_2,go,250.0,200.0,1.0,,,,,,,,,gray,square
0.0,8.0,4.0,1.0,6.0,6.0,529.1210969999156,2.0,1.0,phase_2,go,250.0,200.0,1.0,,,,,,,,,blue,circle
0.0,4.0,4.0,0.0,6.0,6.0,392.7880350001942,2.0,1.0,phase_2,go,250.0,200.0,1.0,,,,,,,,,green,diamond
0.0,8.0,4.0,1.0,5.0,0.0,0.0,2.0,1.0,phase_2,stop,250.0,200.0,4.0,,,,,,,,,blue,circle
0.0,7.0,2.0,1.0,5.0,5.0,350.470337999468,2.0,1.0,phase_2,stop,300.0,200.0,3.0,,,,,,,,,orange,I
0.0,2.0,1.0,0.0,6.0,6.0,398.4373869998308,2.0,1.0,phase_2,go,250.0,200.0,1.0,,,,,,,,,gray,square
0.0,7.0,2.0,1.0,5.0,0.0,0.0,2.0,1.0,phase_2,stop,250.0,200.0,4.0,,,,,,,,,orange,I
0.0,2.0,1.0,0.0,6.0,6.0,316.6074909995586,2.0,1.0,phase_2,go,300.0,200.0,1.0,,,,,,,,,gray,square
0.0,1.0,0.5,0.0,6.0,6.0,354.45267300019617,2.0,1.0,phase_2,go,300.0,200.0,1.0,,,,,,,,,cyan,flipped triangle
0.0,8.0,4.0,1.0,5.0,0.0,0.0,2.0,1.0,phase_2,stop,300.0,200.0,4.0,,,,,,,,,blue,circle
0.0,8.0,4.0,1.0,5.0,5.0,579.4001740005115,2.0,1.0,phase_2,stop,350.0,200.0,3.0,,,,,,,,,blue,circle
0.0,3.0,2.0,0.0,5.0,5.0,517.2315519994299,3.0,1.0,phase_2,go,300.0,200.0,1.0,,,,,,,,,white,cross
0.0,8.0,4.0,1.0,6.0,6.0,308.7946370005738,3.0,1.0,phase_2,go,300.0,200.0,1.0,,,,,,,,,blue,circle
0.0,3.0,2.0,0.0,6.0,6.0,341.2332679999963,3.0,1.0,phase_2,go,300.0,200.0,1.0,,,,,,,,,white,cross
0.0,5.0,0.5,1.0,5.0,0.0,0.0,3.0,1.0,phase_2,stop,300.0,200.0,4.0,,,,,,,,,magenta,hexagon
0.0,5.0,0.5,1.0,5.0,0.0,0.0,3.0,1.0,phase_2,stop,350.0,200.0,4.0,,,,,,,,,magenta,hexagon
0.0,8.0,4.0,1.0,6.0,0.0,0.0,3.0,1.0,phase_2,stop,400.0,200.0,4.0,,,,,,,,,blue,circle
0.0,4.0,4.0,0.0,5.0,5.0,401.4541039996402,3.0,1.0,phase_2,go,400.0,250.0,1.0,,,,,,,,,green,diamond
0.0,3.0,2.0,0.0,6.0,6.0,359.5683379990078,3.0,1.0,phase_2,go,400.0,250.0,1.0,,,,,,,,,white,cross
0.0,6.0,1.0,1.0,6.0,6.0,440.4738480006926,3.0,1.0,phase_2,go,400.0,250.0,1.0,,,,,,,,,yellow,triangle
0.0,8.0,4.0,1.0,5.0,0.0,0.0,3.0,1.0,phase_2,stop,400.0,250.0,4.0,,,,,,,,,blue,circle
0.0,2.0,1.0,0.0,5.0,5.0,429.5442109996656,3.0,1.0,phase_2,go,450.0,250.0,1.0,,,,,,,,,gray,square
0.0,3.0,2.0,0.0,5.0,5.0,368.5960879993217,3.0,1.0,phase_2,go,450.0,250.0,1.0,,,,,,,,,white,cross
0.0,3.0,2.0,0.0,6.0,6.0,399.9912780000159,3.0,1.0,phase_2,go,450.0,250.0,1.0,,,,,,,,,white,cross
0.0,6.0,1.0,1.0,6.0,6.0,380.1045920008619,3.0,1.0,phase_2,stop,450.0,250.0,3.0,,,,,,,,,yellow,triangle
0.0,1.0,0.5,0.0,6.0,6.0,635.0050790006208,3.0,1.0,phase_2,go,450.0,200.0,1.0,,,,,,,,,cyan,flipped triangle
0.0,5.0,0.5,1.0,6.0,6.0,302.8416899996955,3.0,1.0,phase_2,stop,450.0,200.0,3.0,,,,,,,,,magenta,hexagon
0.0,3.0,2.0,0.0,5.0,5.0,541.1344799995277,3.0,1.0,phase_2,go,450.0,150.0,1.0,,,,,,,,,white,cross
0.0,6.0,1.0,1.0,6.0,6.0,396.8132629997853,3.0,1.0,phase_2,go,450.0,150.0,1.0,,,,,,,,,yellow,triangle
0.0,8.0,4.0,1.0,5.0,5.0,643.8945239988243,3.0,1.0,phase_2,stop,450.0,150.0,3.0,,,,,,,,,blue,circle
0.0,8.0,4.0,1.0,6.0,0.0,0.0,3.0,1.0,phase_2,stop,400.0,150.0,4.0,,,,,,,,,blue,circle
0.0,4.0,4.0,0.0,6.0,6.0,418.7556559991208,3.0,1.0,phase_2,go,400.0,200.0,1.0,,,,,,,,,green,diamond
0.0,5.0,0.5,1.0,5.0,5.0,608.0547620003927,3.0,1.0,phase_2,go,400.0,200.0,1.0,,,,,,,,,magenta,hexagon
0.0,5.0,0.5,1.0,5.0,0.0,0.0,3.0,1.0,phase_2,stop,400.0,200.0,4.0,,,,,,,,,magenta,hexagon
0.0,6.0,1.0,1.0,6.0,0.0,0.0,3.0,1.0,phase_2,stop,450.0,200.0,4.0,,,,,,,,,yellow,triangle
0.0,1.0,0.5,0.0,6.0,6.0,461.7897160005668,3.0,1.0,phase_2,go,450.0,250.0,1.0,,,,,,,,,cyan,flipped triangle
0.0,3.0,2.0,0.0,5.0,5.0,591.0216400006902,3.0,1.0,phase_2,go,450.0,250.0,1.0,,,,,,,,,white,cross
0.0,2.0,1.0,0.0,6.0,6.0,695.8402889995341,3.0,1.0,phase_2,go,450.0,250.0,1.0,,,,,,,,,gray,square
0.0,7.0,2.0,1.0,6.0,0.0,0.0,3.0,1.0,phase_2,stop,450.0,250.0,4.0,,,,,,,,,orange,I
0.0,4.0,4.0,0.0,5.0,5.0,486.9254900004307,3.0,1.0,phase_2,go,450.0,300.0,1.0,,,,,,,,,green,diamond
0.0,5.0,0.5,1.0,6.0,0.0,0.0,3.0,1.0,phase_2,stop,450.0,300.0,4.0,,,,,,,,,magenta,hexagon
0.0,7.0,2.0,1.0,6.0,6.0,390.5530079991877,3.0,1.0,phase_2,stop,450.0,350.0,3.0,,,,,,,,,orange,I
0.0,1.0,0.5,0.0,5.0,5.0,333.2282169994869,3.0,1.0,phase_2,go,450.0,300.0,1.0,,,,,,,,,cyan,flipped triangle
0.0,2.0,1.0,0.0,5.0,5.0,636.7785010006628,3.0,1.0,phase_2,go,450.0,300.0,1.0,,,,,,,,,gray,square
0.0,7.0,2.0,1.0,5.0,5.0,498.3697190000384,3.0,1.0,phase_2,stop,450.0,300.0,3.0,,,,,,,,,orange,I
0.0,5.0,0.5,1.0,6.0,6.0,369.09919000027,3.0,1.0,phase_2,stop,400.0,300.0,3.0,,,,,,,,,magenta,hexagon
0.0,7.0,2.0,1.0,6.0,0.0,0.0,3.0,1.0,phase_2,stop,400.0,250.0,4.0,,,,,,,,,orange,I
0.0,3.0,2.0,0.0,5.0,5.0,472.7673329998652,4.0,1.0,phase_2,go,400.0,300.0,1.0,,,,,,,,,white,cross
0.0,1.0,0.5,0.0,5.0,5.0,437.6451999996789,4.0,1.0,phase_2,go,400.0,300.0,1.0,,,,,,,,,cyan,flipped triangle
0.0,6.0,1.0,1.0,6.0,6.0,404.0033839992247,4.0,1.0,phase_2,go,400.0,300.0,1.0,,,,,,,,,yellow,triangle
0.0,5.0,0.5,1.0,5.0,0.0,0.0,4.0,1.0,phase_2,stop,400.0,300.0,4.0,,,,,,,,,magenta,hexagon
0.0,3.0,2.0,0.0,6.0,6.0,365.2259360005701,4.0,1.0,phase_2,go,450.0,300.0,1.0,,,,,,,,,white,cross
0.0,3.0,2.0,0.0,6.0,6.0,474.0563539999129,4.0,1.0,phase_2,go,450.0,300.0,1.0,,,,,,,,,white,cross
0.0,6.0,1.0,1.0,6.0,0.0,0.0,4.0,1.0,phase_2,stop,450.0,300.0,4.0,,,,,,,,,yellow,triangle
0.0,6.0,1.0,1.0,6.0,0.0,0.0,4.0,1.0,phase_2,stop,450.0,350.0,4.0,,,,,,,,,yellow,triangle
0.0,7.0,2.0,1.0,6.0,0.0,0.0,4.0,1.0,phase_2,stop,450.0,400.0,4.0,,,,,,,,,orange,I
0.0,1.0,0.5,0.0,6.0,6.0,327.7173940005013,4.0,1.0,phase_2,go,450.0,450.0,1.0,,,,,,,,,cyan,flipped triangle
0.0,8.0,4.0,1.0,5.0,0.0,0.0,4.0,1.0,phase_2,stop,450.0,450.0,4.0,,,,,,,,,blue,circle
0.0,4.0,4.0,0.0,6.0,6.0,440.5320819987537,4.0,1.0,phase_2,go,500.0,450.0,1.0,,,,,,,,,green,diamond
0.0,5.0,0.5,1.0,6.0,0.0,0.0,4.0,1.0,phase_2,stop,500.0,450.0,4.0,,,,,,,,,magenta,hexagon
0.0,4.0,4.0,0.0,6.0,6.0,351.3106869995681,4.0,1.0,phase_2,go,500.0,500.0,1.0,,,,,,,,,green,diamond
0.0,4.0,4.0,0.0,5.0,5.0,615.370849998726,4.0,1.0,phase_2,go,500.0,500.0,1.0,,,,,,,,,green,diamond
0.0,3.0,2.0,0.0,5.0,5.0,471.1350289999245,4.0,1.0,phase_2,go,500.0,500.0,1.0,,,,,,,,,white,cross
0.0,6.0,1.0,1.0,6.0,6.0,661.9150999995327,4.0,1.0,phase_2,stop,500.0,500.0,3.0,,,,,,,,,yellow,triangle
0.0,2.0,1.0,0.0,6.0,6.0,763.2153380000091,4.0,1.0,phase_2,go,500.0,450.0,1.0,,,,,,,,,gray,square
0.0,8.0,4.0,1.0,5.0,0.0,0.0,4.0,1.0,phase_2,stop,500.0,450.0,4.0,,,,,,,,,blue,circle
0.0,8.0,4.0,1.0,5.0,0.0,0.0,4.0,1.0,phase_2,stop,550.0,450.0,4.0,,,,,,,,,blue,circle
0.0,8.0,4.0,1.0,6.0,6.0,674.0584920007677,4.0,1.0,phase_2,go,600.0,450.0,1.0,,,,,,,,,blue,circle
0.0,6.0,1.0,1.0,5.0,0.0,0.0,4.0,1.0,phase_2,stop,600.0,450.0,4.0,,,,,,,,,yellow,triangle
0.0,6.0,1.0,1.0,6.0,6.0,331.2706699998671,4.0,1.0,phase_2,stop,650.0,450.0,3.0,,,,,,,,,yellow,triangle
0.0,2.0,1.0,0.0,5.0,5.0,762.8388329994777,4.0,1.0,phase_2,go,650.0,400.0,1.0,,,,,,,,,gray,square
0.0,3.0,2.0,0.0,6.0,6.0,600.9653439996328,4.0,1.0,phase_2,go,650.0,400.0,1.0,,,,,,,,,white,cross
0.0,5.0,0.5,1.0,5.0,0.0,0.0,4.0,1.0,phase_2,stop,650.0,400.0,4.0,,,,,,,,,magenta,hexagon
0.0,4.0,4.0,0.0,5.0,5.0,765.8633259998169,4.0,1.0,phase_2,go,700.0,400.0,1.0,,,,,,,,,green,diamond
0.0,1.0,0.5,0.0,6.0,6.0,303.5703160003322,4.0,1.0,phase_2,go,700.0,400.0,1.0,,,,,,,,,cyan,flipped triangle
0.0,8.0,4.0,1.0,6.0,0.0,0.0,4.0,1.0,phase_2,stop,700.0,400.0,4.0,,,,,,,,,blue,circle
0.0,8.0,4.0,1.0,6.0,0.0,0.0,4.0,1.0,phase_2,stop,700.0,450.0,4.0,,,,,,,,,blue,circle
0.0,7.0,2.0,1.0,5.0,5.0,405.9410939989902,4.0,1.0,phase_2,go,700.0,500.0,1.0,,,,,,,,,orange,I
0.0,7.0,2.0,1.0,5.0,5.0,579.2300089997298,4.0,1.0,phase_2,stop,700.0,500.0,3.0,,,,,,,,,orange,I
0.0,7.0,2.0,1.0,5.0,5.0,643.5582589983824,4.0,1.0,phase_2,stop,650.0,500.0,3.0,,,,,,,,,orange,I
0.0,6.0,1.0,1.0,6.0,6.0,390.1341239998146,4.0,1.0,phase_2,stop,600.0,500.0,3.0,,,,,,,,,yellow,triangle
0.0,4.0,4.0,0.0,6.0,6.0,691.6723539998202,4.0,1.0,phase_2,go,600.0,450.0,1.0,,,,,,,,,green,diamond
0.0,5.0,0.5,1.0,6.0,0.0,0.0,4.0,1.0,phase_2,stop,600.0,450.0,4.0,,,,,,,,,magenta,hexagon
0.0,6.0,1.0,1.0,5.0,5.0,311.4189809984964,5.0,1.0,phase_2,stop,600.0,500.0,3.0,,,,,,,,,yellow,triangle
0.0,8.0,4.0,1.0,5.0,5.0,418.2743740002479,5.0,1.0,phase_2,stop,550.0,500.0,3.0,,,,,,,,,blue,circle
0.0,1.0,0.5,0.0,5.0,5.0,761.3400199988973,5.0,1.0,phase_2,go,500.0,500.0,1.0,,,,,,,,,cyan,flipped triangle
0.0,3.0,2.0,0.0,6.0,6.0,734.5120289992337,5.0,1.0,phase_2,go,500.0,500.0,1.0,,,,,,,,,white,cross
0.0,1.0,0.5,0.0,5.0,5.0,367.6144119999662,5.0,1.0,phase_2,go,500.0,500.0,1.0,,,,,,,,,cyan,flipped triangle
0.0,4.0,4.0,0.0,6.0,6.0,613.4826199995587,5.0,1.0,phase_2,go,500.0,500.0,1.0,,,,,,,,,green,diamond
0.0,4.0,4.0,0.0,5.0,5.0,486.6766150007606,5.0,1.0,phase_2,go,500.0,500.0,1.0,,,,,,,,,green,diamond
0.0,7.0,2.0,1.0,6.0,6.0,293.3299309988797,5.0,1.0,phase_2,stop,500.0,500.0,3.0,,,,,,,,,orange,I
0.0,8.0,4.0,1.0,6.0,0.0,0.0,5.0,1.0,phase_2,stop,500.0,450.0,4.0,,,,,,,,,blue,circle
0.0,6.0,1.0,1.0,5.0,5.0,523.4874629986734,5.0,1.0,phase_2,stop,500.0,500.0,3.0,,,,,,,,,yellow,triangle
0.0,4.0,4.0,0.0,6.0,6.0,692.7480150006886,5.0,1.0,phase_2,go,450.0,500.0,1.0,,,,,,,,,green,diamond
0.0,2.0,1.0,0.0,5.0,5.0,885.7846620012424,5.0,1.0,phase_2,go,450.0,500.0,1.0,,,,,,,,,gray,square
0.0,1.0,0.5,0.0,5.0,5.0,681.0415420004574,5.0,1.0,phase_2,go,450.0,500.0,1.0,,,,,,,,,cyan,flipped triangle
0.0,6.0,1.0,1.0,5.0,0.0,0.0,5.0,1.0,phase_2,stop,450.0,500.0,4.0,,,,,,,,,yellow,triangle
0.0,4.0,4.0,0.0,6.0,6.0,347.4875819993031,5.0,1.0,phase_2,go,500.0,500.0,1.0,,,,,,,,,green,diamond
0.0,4.0,4.0,0.0,5.0,5.0,719.9982279998949,5.0,1.0,phase_2,go,500.0,500.0,1.0,,,,,,,,,green,diamond
0.0,4.0,4.0,0.0,5.0,5.0,650.2004450012464,5.0,1.0,phase_2,go,500.0,500.0,1.0,,,,,,,,,green,diamond
0.0,5.0,0.5,1.0,5.0,5.0,350.1401789999363,5.0,1.0,phase_2,go,500.0,500.0,1.0,,,,,,,,,magenta,hexagon
0.0,5.0,0.5,1.0,5.0,0.0,0.0,5.0,1.0,phase_2,stop,500.0,500.0,4.0,,,,,,,,,magenta,hexagon
0.0,7.0,2.0,1.0,6.0,6.0,982.8419150016998,5.0,1.0,phase_2,go,550.0,500.0,1.0,,,,,,,,,orange,I
0.0,2.0,1.0,0.0,5.0,5.0,503.4369919994788,5.0,1.0,phase_2,go,550.0,500.0,1.0,,,,,,,,,gray,square
0.0,2.0,1.0,0.0,5.0,5.0,750.2812760012603,5.0,1.0,phase_2,go,550.0,500.0,1.0,,,,,,,,,gray,square
0.0,4.0,4.0,0.0,5.0,5.0,358.6462020011822,5.0,1.0,phase_2,go,550.0,500.0,1.0,,,,,,,,,green,diamond
0.0,4.0,4.0,0.0,5.0,5.0,685.5371279998508,5.0,1.0,phase_2,go,550.0,500.0,1.0,,,,,,,,,green,diamond
0.0,2.0,1.0,0.0,5.0,5.0,742.1037229996728,5.0,1.0,phase_2,go,550.0,500.0,1.0,,,,,,,,,gray,square
0.0,3.0,2.0,0.0,5.0,5.0,659.9887569991552,5.0,1.0,phase_2,go,550.0,500.0,1.0,,,,,,,,,white,cross
0.0,6.0,1.0,1.0,5.0,0.0,0.0,5.0,1.0,phase_2,stop,550.0,500.0,4.0,,,,,,,,,yellow,triangle
0.0,6.0,1.0,1.0,5.0,5.0,723.9806040015537,5.0,1.0,phase_2,stop,600.0,500.0,3.0,,,,,,,,,yellow,triangle
0.0,1.0,0.5,0.0,5.0,5.0,953.6017139998876,5.0,1.0,phase_2,go,550.0,500.0,1.0,,,,,,,,,cyan,flipped triangle
0.0,4.0,4.0,0.0,5.0,5.0,491.7864250001003,5.0,1.0,phase_2,go,550.0,500.0,1.0,,,,,,,,,green,diamond
0.0,5.0,0.5,1.0,5.0,5.0,615.9723729997495,5.0,1.0,phase_2,stop,550.0,500.0,3.0,,,,,,,,,magenta,hexagon
0.0,7.0,2.0,1.0,5.0,5.0,551.1080070009484,5.0,1.0,phase_2,go,500.0,500.0,1.0,,,,,,,,,orange,I
0.0,2.0,1.0,0.0,5.0,5.0,706.215140000495,5.0,1.0,phase_2,go,500.0,500.0,1.0,,,,,,,,,gray,square
0.0,6.0,1.0,1.0,5.0,5.0,352.4785160007013,5.0,1.0,phase_2,stop,500.0,500.0,3.0,,,,,,,,,yellow,triangle
0.0,1.0,0.5,0.0,5.0,5.0,437.9913909997412,5.0,1.0,phase_2,go,450.0,500.0,1.0,,,,,,,,,cyan,flipped triangle
0.0,2.0,1.0,0.0,6.0,6.0,471.8065420001949,5.0,1.0,phase_2,go,450.0,500.0,1.0,,,,,,,,,gray,square
0.0,5.0,0.5,1.0,5.0,5.0,519.1009009995469,6.0,1.0,phase_2,go,450.0,500.0,1.0,,,,,,,,,magenta,hexagon
0.0,5.0,0.5,1.0,6.0,6.0,309.6424049999768,6.0,1.0,phase_2,stop,450.0,500.0,3.0,,,,,,,,,magenta,hexagon
0.0,2.0,1.0,0.0,6.0,6.0,333.1500579988642,6.0,1.0,phase_2,go,450.0,450.0,1.0,,,,,,,,,gray,square
0.0,8.0,4.0,1.0,6.0,6.0,277.3288089993002,6.0,1.0,phase_2,stop,450.0,450.0,3.0,,,,,,,,,blue,circle
0.0,6.0,1.0,1.0,6.0,6.0,325.2395939998678,6.0,1.0,phase_2,stop,450.0,400.0,3.0,,,,,,,,,yellow,triangle
0.0,1.0,0.5,0.0,6.0,6.0,309.5352350010216,6.0,1.0,phase_2,go,450.0,350.0,1.0,,,,,,,,,cyan,flipped triangle
0.0,5.0,0.5,1.0,5.0,5.0,334.0564749996701,6.0,1.0,phase_2,stop,450.0,350.0,3.0,,,,,,,,,magenta,hexagon
0.0,7.0,2.0,1.0,5.0,5.0,348.8707570013503,6.0,1.0,phase_2,stop,400.0,350.0,3.0,,,,,,,,,orange,I
0.0,8.0,4.0,1.0,5.0,5.0,834.0416880000703,6.0,1.0,phase_2,go,350.0,350.0,1.0,,,,,,,,,blue,circle
0.0,4.0,4.0,0.0,6.0,6.0,241.8936579997535,6.0,1.0,phase_2,go,350.0,350.0,1.0,,,,,,,,,green,diamond
0.0,1.0,0.5,0.0,5.0,5.0,552.6980480008206,6.0,1.0,phase_2,go,350.0,350.0,1.0,,,,,,,,,cyan,flipped triangle
0.0,5.0,0.5,1.0,6.0,6.0,265.8188639998116,6.0,1.0,phase_2,go,350.0,350.0,1.0,,,,,,,,,magenta,hexagon
0.0,3.0,2.0,0.0,6.0,6.0,298.1749800001125,6.0,1.0,phase_2,go,350.0,350.0,1.0,,,,,,,,,white,cross
0.0,1.0,0.5,0.0,6.0,6.0,279.5322609999857,6.0,1.0,phase_2,go,350.0,350.0,1.0,,,,,,,,,cyan,flipped triangle
0.0,6.0,1.0,1.0,5.0,0.0,0.0,6.0,1.0,phase_2,stop,350.0,350.0,4.0,,,,,,,,,yellow,triangle
0.0,7.0,2.0,1.0,6.0,0.0,0.0,6.0,1.0,phase_2,stop,400.0,350.0,4.0,,,,,,,,,orange,I
0.0,3.0,2.0,0.0,6.0,6.0,383.5816639984841,6.0,1.0,phase_2,go,400.0,400.0,1.0,,,,,,,,,white,cross
0.0,8.0,4.0,1.0,6.0,6.0,749.1650989995833,6.0,1.0,phase_2,go,400.0,400.0,1.0,,,,,,,,,blue,circle
0.0,7.0,2.0,1.0,5.0,5.0,448.5473639997508,6.0,1.0,phase_2,stop,400.0,400.0,3.0,,,,,,,,,orange,I
0.0,7.0,2.0,1.0,6.0,6.0,525.3008399995451,6.0,1.0,phase_2,go,350.0,400.0,1.0,,,,,,,,,orange,I
0.0,1.0,0.5,0.0,5.0,5.0,412.213255000097,6.0,1.0,phase_2,go,350.0,400.0,1.0,,,,,,,,,cyan,flipped triangle
0.0,4.0,4.0,0.0,5.0,5.0,307.321979000335,6.0,1.0,phase_2,go,350.0,400.0,1.0,,,,,,,,,green,diamond
0.0,1.0,0.5,0.0,6.0,6.0,459.4770510011585,6.0,1.0,phase_2,go,350.0,400.0,1.0,,,,,,,,,cyan,flipped triangle
0.0,3.0,2.0,0.0,5.0,5.0,307.3112390011374,6.0,1.0,phase_2,go,350.0,400.0,1.0,,,,,,,,,white,cross
0.0,1.0,0.5,0.0,6.0,6.0,481.7298549987754,6.0,1.0,phase_2,go,350.0,400.0,1.0,,,,,,,,,cyan,flipped triangle
0.0,7.0,2.0,1.0,6.0,6.0,322.3356809994584,6.0,1.0,phase_2,stop,350.0,400.0,3.0,,,,,,,,,orange,I
0.0,7.0,2.0,1.0,5.0,5.0,403.1971899985365,6.0,1.0,phase_2,stop,350.0,350.0,3.0,,,,,,,,,orange,I
0.0,5.0,0.5,1.0,6.0,6.0,503.2896089996939,6.0,1.0,phase_2,go,300.0,350.0,1.0,,,,,,,,,magenta,hexagon
0.0,2.0,1.0,0.0,5.0,5.0,407.0460639995872,6.0,1.0,phase_2,go,300.0,350.0,1.0,,,,,,,,,gray,square
0.0,6.0,1.0,1.0,5.0,5.0,319.393759000377,6.0,1.0,phase_2,stop,300.0,350.0,3.0,,,,,,,,,yellow,triangle
0.0,8.0,4.0,1.0,5.0,0.0,0.0,6.0,1.0,phase_2,stop,250.0,350.0,4.0,,,,,,,,,blue,circle
0.0,3.0,2.0,0.0,5.0,5.0,527.4669509999512,6.0,1.0,phase_2,go,300.0,350.0,1.0,,,,,,,,,white,cross
0.0,8.0,4.0,1.0,5.0,5.0,351.8603430002258,6.0,1.0,phase_2,stop,300.0,350.0,3.0,,,,,,,,,blue,circle
0.0,1.0,0.5,0.0,5.0,5.0,590.7340710000426,6.0,1.0,phase_2,go,250.0,350.0,1.0,,,,,,,,,cyan,flipped triangle
0.0,4.0,4.0,0.0,6.0,6.0,319.4002140007796,6.0,1.0,phase_2,go,250.0,350.0,1.0,,,,,,,,,green,diamond
0.0,5.0,0.5,1.0,6.0,6.0,309.5705289997568,6.0,1.0,phase_2,stop,250.0,350.0,3.0,,,,,,,,,magenta,hexagon
0.0,6.0,1.0,1.0,6.0,5.0,451.3439719994494,7.0,1.0,phase_2,go,250.0,300.0,2.0,,,,,,,,,yellow,triangle
0.0,8.0,4.0,1.0,6.0,6.0,307.7297590007219,7.0,1.0,phase_2,go,250.0,300.0,1.0,,,,,,,,,blue,circle
0.0,7.0,2.0,1.0,5.0,5.0,450.4672589991969,7.0,1.0,phase_2,go,250.0,300.0,1.0,,,,,,,,,orange,I
0.0,2.0,1.0,0.0,6.0,6.0,483.9905829994677,7.0,1.0,phase_2,go,250.0,300.0,1.0,,,,,,,,,gray,square
0.0,4.0,4.0,0.0,5.0,5.0,482.3671350004588,7.0,1.0,phase_2,go,250.0,300.0,1.0,,,,,,,,,green,diamond
0.0,5.0,0.5,1.0,6.0,6.0,281.560952998916,7.0,1.0,phase_2,go,250.0,300.0,1.0,,,,,,,,,magenta,hexagon
0.0,8.0,4.0,1.0,5.0,0.0,0.0,7.0,1.0,phase_2,stop,250.0,300.0,4.0,,,,,,,,,blue,circle
0.0,7.0,2.0,1.0,6.0,0.0,0.0,7.0,1.0,phase_2,stop,300.0,300.0,4.0,,,,,,,,,orange,I
0.0,2.0,1.0,0.0,6.0,6.0,424.7236200008046,7.0,1.0,phase_2,go,300.0,350.0,1.0,,,,,,,,,gray,square
0.0,2.0,1.0,0.0,6.0,6.0,278.0125240005873,7.0,1.0,phase_2,go,300.0,350.0,1.0,,,,,,,,,gray,square
0.0,4.0,4.0,0.0,6.0,6.0,216.6958069992688,7.0,1.0,phase_2,go,300.0,350.0,1.0,,,,,,,,,green,diamond
0.0,7.0,2.0,1.0,6.0,6.0,293.0735850004566,7.0,1.0,phase_2,stop,300.0,350.0,3.0,,,,,,,,,orange,I
0.0,8.0,4.0,1.0,6.0,0.0,0.0,7.0,1.0,phase_2,stop,300.0,300.0,4.0,,,,,,,,,blue,circle
0.0,2.0,1.0,0.0,5.0,5.0,285.4587539986823,7.0,1.0,phase_2,go,300.0,350.0,1.0,,,,,,,,,gray,square
0.0,1.0,0.5,0.0,5.0,5.0,461.7982679992565,7.0,1.0,phase_2,go,300.0,350.0,1.0,,,,,,,,,cyan,flipped triangle
0.0,5.0,0.5,1.0,5.0,0.0,0.0,7.0,1.0,phase_2,stop,300.0,350.0,4.0,,,,,,,,,magenta,hexagon
0.0,1.0,0.5,0.0,6.0,6.0,293.6389189999318,7.0,1.0,phase_2,go,350.0,350.0,1.0,,,,,,,,,cyan,flipped triangle
0.0,4.0,4.0,0.0,5.0,5.0,363.4702610015665,7.0,1.0,phase_2,go,350.0,350.0,1.0,,,,,,,,,green,diamond
0.0,6.0,1.0,1.0,6.0,6.0,281.6935210012161,7.0,1.0,phase_2,go,350.0,350.0,1.0,,,,,,,,,yellow,triangle
0.0,2.0,1.0,0.0,5.0,5.0,498.8165209997532,7.0,1.0,phase_2,go,350.0,350.0,1.0,,,,,,,,,gray,square
0.0,3.0,2.0,0.0,5.0,5.0,432.7724079994368,7.0,1.0,phase_2,go,350.0,350.0,1.0,,,,,,,,,white,cross
0.0,3.0,2.0,0.0,6.0,6.0,369.1554540000652,7.0,1.0,phase_2,go,350.0,350.0,1.0,,,,,,,,,white,cross
0.0,6.0,1.0,1.0,5.0,5.0,377.4924600002123,7.0,1.0,phase_2,stop,350.0,350.0,3.0,,,,,,,,,yellow,triangle
0.0,6.0,1.0,1.0,5.0,5.0,656.6414040007658,7.0,1.0,phase_2,go,300.0,350.0,1.0,,,,,,,,,yellow,triangle
0.0,5.0,0.5,1.0,6.0,6.0,288.2337820010434,7.0,1.0,phase_2,stop,300.0,350.0,3.0,,,,,,,,,magenta,hexagon
0.0,3.0,2.0,0.0,6.0,6.0,380.8406809985172,7.0,1.0,phase_2,go,300.0,300.0,1.0,,,,,,,,,white,cross
0.0,6.0,1.0,1.0,5.0,5.0,270.9300149999762,7.0,1.0,phase_2,stop,300.0,300.0,3.0,,,,,,,,,yellow,triangle
0.0,5.0,0.5,1.0,6.0,6.0,349.5853020012873,7.0,1.0,phase_2,stop,250.0,300.0,3.0,,,,,,,,,magenta,hexagon
0.0,5.0,0.5,1.0,6.0,6.0,381.5681819996825,7.0,1.0,phase_2,stop,250.0,250.0,3.0,,,,,,,,,magenta,hexagon
0.0,4.0,4.0,0.0,5.0,5.0,316.6662580006232,7.0,1.0,phase_2,go,250.0,200.0,1.0,,,,,,,,,green,diamond
0.0,1.0,0.5,0.0,6.0,6.0,306.3166350002575,7.0,1.0,phase_2,go,250.0,200.0,1.0,,,,,,,,,cyan,flipped triangle
0.0,7.0,2.0,1.0,5.0,5.0,331.9529250002233,7.0,1.0,phase_2,stop,250.0,200.0,3.0,,,,,,,,,orange,I
0.0,3.0,2.0,0.0,5.0,5.0,450.0587599995924,7.0,1.0,phase_2,go,200.0,200.0,1.0,,,,,,,,,white,cross
0.0,4.0,4.0,0.0,5.0,5.0,362.4328999994759,7.0,1.0,phase_2,go,200.0,200.0,1.0,,,,,,,,,green,diamond
0.0,3.0,2.0,0.0,6.0,6.0,282.3101739995763,7.0,1.0,phase_2,go,200.0,200.0,1.0,,,,,,,,,white,cross
0.0,3.0,2.0,0.0,5.0,5.0,334.9427260000084,7.0,1.0,phase_2,go,200.0,200.0,1.0,,,,,,,,,white,cross
0.0,4.0,4.0,0.0,6.0,6.0,365.4955210004118,8.0,1.0,phase_2,go,200.0,200.0,1.0,,,,,,,,,green,diamond
0.0,3.0,2.0,0.0,6.0,6.0,311.7916350001906,8.0,1.0,phase_2,go,200.0,200.0,1.0,,,,,,,,,white,cross
0.0,7.0,2.0,1.0,6.0,6.0,333.0432670009031,8.0,1.0,phase_2,stop,200.0,200.0,3.0,,,,,,,,,orange,I
0.0,4.0,4.0,0.0,5.0,5.0,331.5468349992443,8.0,1.0,phase_2,go,200.0,150.0,1.0,,,,,,,,,green,diamond
0.0,2.0,1.0,0.0,6.0,6.0,306.6792489989893,8.0,1.0,phase_2,go,200.0,150.0,1.0,,,,,,,,,gray,square
0.0,3.0,2.0,0.0,6.0,6.0,293.7996100008604,8.0,1.0,phase_2,go,200.0,150.0,1.0,,,,,,,,,white,cross
0.0,8.0,4.0,1.0,6.0,0.0,0.0,8.0,1.0,phase_2,stop,200.0,150.0,4.0,,,,,,,,,blue,circle
0.0,7.0,2.0,1.0,6.0,6.0,409.228742999403,8.0,1.0,phase_2,go,200.0,200.0,1.0,,,,,,,,,orange,I
0.0,8.0,4.0,1.0,6.0,6.0,315.9778950011969,8.0,1.0,phase_2,stop,200.0,200.0,3.0,,,,,,,,,blue,circle
0.0,6.0,1.0,1.0,5.0,5.0,500.20168899936834,8.0,1.0,phase_2,go,200.0,150.0,1.0,,,,,,,,,yellow,triangle
0.0,2.0,1.0,0.0,5.0,5.0,408.554923000338,8.0,1.0,phase_2,go,200.0,150.0,1.0,,,,,,,,,gray,square
0.0,6.0,1.0,1.0,6.0,6.0,304.7975129993574,8.0,1.0,phase_2,go,200.0,150.0,1.0,,,,,,,,,yellow,triangle
0.0,1.0,0.5,0.0,6.0,6.0,458.7863769993419,8.0,1.0,phase_2,go,200.0,150.0,1.0,,,,,,,,,cyan,flipped triangle
0.0,3.0,2.0,0.0,5.0,5.0,432.6459059993794,8.0,1.0,phase_2,go,200.0,150.0,1.0,,,,,,,,,white,cross
0.0,2.0,1.0,0.0,5.0,5.0,439.5823040013056,8.0,1.0,phase_2,go,200.0,150.0,1.0,,,,,,,,,gray,square
0.0,1.0,0.5,0.0,6.0,6.0,396.7691850011761,8.0,1.0,phase_2,go,200.0,150.0,1.0,,,,,,,,,cyan,flipped triangle
0.0,3.0,2.0,0.0,6.0,6.0,360.0928779997048,8.0,1.0,phase_2,go,200.0,150.0,1.0,,,,,,,,,white,cross
0.0,6.0,1.0,1.0,5.0,0.0,0.0,8.0,1.0,phase_2,stop,200.0,150.0,4.0,,,,,,,,,yellow,triangle
0.0,4.0,4.0,0.0,6.0,6.0,563.9602699993702,8.0,1.0,phase_2,go,250.0,150.0,1.0,,,,,,,,,green,diamond
0.0,8.0,4.0,1.0,6.0,0.0,0.0,8.0,1.0,phase_2,stop,250.0,150.0,4.0,,,,,,,,,blue,circle
0.0,8.0,4.0,1.0,5.0,0.0,0.0,8.0,1.0,phase_2,stop,250.0,200.0,4.0,,,,,,,,,blue,circle
0.0,1.0,0.5,0.0,6.0,6.0,347.381678999227,8.0,1.0,phase_2,go,300.0,200.0,1.0,,,,,,,,,cyan,flipped triangle
0.0,7.0,2.0,1.0,5.0,0.0,0.0,8.0,1.0,phase_2,stop,300.0,200.0,4.0,,,,,,,,,orange,I
0.0,6.0,1.0,1.0,6.0,0.0,0.0,8.0,1.0,phase_2,stop,350.0,200.0,4.0,,,,,,,,,yellow,triangle
0.0,4.0,4.0,0.0,6.0,6.0,354.2348240007413,8.0,1.0,phase_2,go,350.0,250.0,1.0,,,,,,,,,green,diamond
0.0,8.0,4.0,1.0,6.0,6.0,817.6285010013089,8.0,1.0,phase_2,go,350.0,250.0,1.0,,,,,,,,,blue,circle
0.0,8.0,4.0,1.0,5.0,0.0,0.0,8.0,1.0,phase_2,stop,350.0,250.0,4.0,,,,,,,,,blue,circle
0.0,1.0,0.5,0.0,6.0,6.0,376.3969329993415,8.0,1.0,phase_2,go,400.0,250.0,1.0,,,,,,,,,cyan,flipped triangle
0.0,8.0,4.0,1.0,6.0,6.0,527.044702999774,8.0,1.0,phase_2,go,400.0,250.0,1.0,,,,,,,,,blue,circle
0.0,2.0,1.0,0.0,5.0,5.0,381.0270489993854,8.0,1.0,phase_2,go,400.0,250.0,1.0,,,,,,,,,gray,square
0.0,5.0,0.5,1.0,5.0,5.0,327.7374919998692,8.0,1.0,phase_2,stop,400.0,250.0,3.0,,,,,,,,,magenta,hexagon
0.0,2.0,1.0,0.0,5.0,5.0,396.0228420000931,8.0,1.0,phase_2,go,350.0,250.0,1.0,,,,,,,,,gray,square
0.0,6.0,1.0,1.0,6.0,6.0,379.1294530001323,8.0,1.0,phase_2,stop,350.0,250.0,3.0,,,,,,,,,yellow,triangle
0.0,5.0,0.5,1.0,6.0,6.0,587.0582399984414,8.0,1.0,phase_2,go,350.0,200.0,1.0,,,,,,,,,magenta,hexagon
0.0,3.0,2.0,0.0,5.0,5.0,461.6570769994723,8.0,1.0,phase_2,go,350.0,200.0,1.0,,,,,,,,,white,cross
0.0,7.0,2.0,1.0,6.0,0.0,0.0,8.0,1.0,phase_2,stop,350.0,200.0,4.0,,,,,,,,,orange,I
0.0,2.0,1.0,0.0,7.0,4.0,2186.3897630009888,1.0,1.0,phase_3,,,,,117.0,3.0,39.0,78.0,234.0,117.0,156.0,195.0,gray,square
0.0,1.0,0.5,0.0,7.0,5.0,3970.9166699994967,1.0,1.0,phase_3,,,,,234.0,6.0,195.0,78.0,156.0,117.0,234.0,39.0,cyan,flipped triangle
0.0,8.0,4.0,1.0,7.0,2.0,4329.7840370014455,1.0,1.0,phase_3,,,,,196.0,4.0,98.0,196.0,294.0,147.0,49.0,245.0,blue,circle
0.0,3.0,2.0,0.0,7.0,5.0,2881.9376419996843,1.0,1.0,phase_3,,,,,220.0,5.0,264.0,176.0,88.0,132.0,220.0,44.0,white,cross
0.0,4.0,4.0,0.0,7.0,4.0,4045.351947999734,1.0,1.0,phase_3,,,,,68.0,2.0,102.0,136.0,34.0,68.0,170.0,204.0,green,diamond
0.0,1.0,0.5,0.0,7.0,6.0,2017.759882000973,1.0,1.0,phase_3,,,,,136.0,4.0,102.0,68.0,170.0,34.0,204.0,136.0,cyan,flipped triangle
0.0,1.0,0.5,0.0,7.0,4.0,1412.932195999019,1.0,1.0,phase_3,,,,,324.0,6.0,216.0,108.0,162.0,324.0,54.0,270.0,cyan,flipped triangle
0.0,2.0,1.0,0.0,7.0,5.0,283.5276220012019,1.0,2.0,phase_3,,,,,108.0,2.0,216.0,54.0,270.0,324.0,108.0,162.0,gray,square
0.0,6.0,1.0,1.0,7.0,3.0,943.6037080013192,1.0,1.0,phase_3,,,,,270.0,5.0,54.0,324.0,270.0,162.0,216.0,108.0,yellow,triangle
0.0,2.0,1.0,0.0,7.0,4.0,1326.6014580003684,1.0,1.0,phase_3,,,,,34.0,1.0,68.0,170.0,102.0,34.0,204.0,136.0,gray,square
0.0,8.0,4.0,1.0,7.0,5.0,994.6976440005528,1.0,1.0,phase_3,,,,,234.0,6.0,195.0,156.0,117.0,39.0,234.0,78.0,blue,circle
0.0,4.0,4.0,0.0,7.0,2.0,1276.793445000294,1.0,1.0,phase_3,,,,,195.0,5.0,156.0,195.0,117.0,39.0,78.0,234.0,green,diamond
0.0,4.0,4.0,0.0,7.0,6.0,739.1823840007419,1.0,1.0,phase_3,,,,,196.0,4.0,147.0,245.0,294.0,49.0,98.0,196.0,green,diamond
0.0,5.0,0.5,1.0,7.0,3.0,1220.992265998575,1.0,1.0,phase_3,,,,,270.0,5.0,54.0,216.0,270.0,108.0,324.0,162.0,magenta,hexagon
0.0,6.0,1.0,1.0,7.0,6.0,1493.9753470007415,1.0,1.0,phase_3,,,,,245.0,5.0,147.0,294.0,196.0,98.0,49.0,245.0,yellow,triangle
0.0,6.0,1.0,1.0,7.0,2.0,879.560039998978,1.0,1.0,phase_3,,,,,324.0,6.0,162.0,324.0,216.0,54.0,270.0,108.0,yellow,triangle
0.0,1.0,0.5,0.0,7.0,3.0,888.9588990004995,1.0,1.0,phase_3,,,,,162.0,3.0,270.0,216.0,162.0,108.0,54.0,324.0,cyan,flipped triangle
0.0,3.0,2.0,0.0,7.0,5.0,1436.7280660007964,1.0,1.0,phase_3,,,,,54.0,1.0,162.0,108.0,270.0,324.0,54.0,216.0,white,cross
0.0,1.0,0.5,0.0,7.0,4.0,925.1078299985238,1.0,1.0,phase_3,,,,,245.0,5.0,196.0,147.0,98.0,245.0,49.0,294.0,cyan,flipped triangle
0.0,4.0,4.0,0.0,7.0,2.0,1191.5507949997846,1.0,1.0,phase_3,,,,,136.0,4.0,102.0,136.0,204.0,68.0,34.0,170.0,green,diamond
0.0,5.0,0.5,1.0,7.0,3.0,1290.9644699993803,2.0,1.0,phase_3,,,,,216.0,4.0,162.0,324.0,216.0,270.0,108.0,54.0,magenta,hexagon
0.0,3.0,2.0,0.0,7.0,5.0,809.9368099992716,2.0,1.0,phase_3,,,,,204.0,6.0,102.0,34.0,136.0,170.0,204.0,68.0,white,cross
0.0,7.0,2.0,1.0,7.0,1.0,1036.1216910005169,2.0,1.0,phase_3,,,,,136.0,4.0,136.0,34.0,68.0,170.0,102.0,204.0,orange,I
0.0,8.0,4.0,1.0,7.0,6.0,979.656312998486,2.0,1.0,phase_3,,,,,102.0,3.0,204.0,68.0,136.0,34.0,170.0,102.0,blue,circle
0.0,6.0,1.0,1.0,7.0,4.0,1247.6848319984128,2.0,1.0,phase_3,,,,,264.0,6.0,88.0,176.0,44.0,264.0,220.0,132.0,yellow,triangle
0.0,7.0,2.0,1.0,7.0,6.0,1774.8477759996604,2.0,1.0,phase_3,,,,,294.0,6.0,147.0,245.0,196.0,98.0,49.0,294.0,orange,I
0.0,3.0,2.0,0.0,7.0,5.0,889.294766000603,2.0,1.0,phase_3,,,,,162.0,3.0,324.0,270.0,216.0,54.0,162.0,108.0,white,cross
0.0,4.0,4.0,0.0,7.0,2.0,2131.8975879985373,2.0,1.0,phase_3,,,,,176.0,4.0,132.0,176.0,44.0,220.0,88.0,264.0,green,diamond
0.0,3.0,2.0,0.0,7.0,5.0,1237.3982900007832,2.0,1.0,phase_3,,,,,196.0,4.0,49.0,147.0,98.0,245.0,196.0,294.0,white,cross
0.0,5.0,0.5,1.0,7.0,1.0,1013.657006998983,2.0,1.0,phase_3,,,,,196.0,4.0,196.0,147.0,245.0,98.0,49.0,294.0,magenta,hexagon
0.0,6.0,1.0,1.0,7.0,3.0,1069.4360600009531,2.0,1.0,phase_3,,,,,196.0,4.0,98.0,245.0,196.0,49.0,294.0,147.0,yellow,triangle
0.0,1.0,0.5,0.0,7.0,3.0,1600.2940660000604,2.0,1.0,phase_3,,,,,220.0,5.0,264.0,132.0,220.0,88.0,44.0,176.0,cyan,flipped triangle
0.0,8.0,4.0,1.0,7.0,5.0,1009.6494509998593,2.0,1.0,phase_3,,,,,204.0,6.0,102.0,34.0,68.0,136.0,204.0,170.0,blue,circle
0.0,4.0,4.0,0.0,7.0,3.0,890.5806789989583,2.0,1.0,phase_3,,,,,117.0,3.0,156.0,195.0,117.0,234.0,78.0,39.0,green,diamond
0.0,8.0,4.0,1.0,7.0,2.0,1139.3282959998032,2.0,1.0,phase_3,,,,,88.0,2.0,132.0,88.0,176.0,264.0,220.0,44.0,blue,circle
0.0,1.0,0.5,0.0,7.0,2.0,791.4466000001994,2.0,1.0,phase_3,,,,,264.0,6.0,176.0,264.0,88.0,132.0,44.0,220.0,cyan,flipped triangle
0.0,2.0,1.0,0.0,7.0,6.0,1012.7016839996941,2.0,1.0,phase_3,,,,,44.0,1.0,264.0,220.0,88.0,132.0,176.0,44.0,gray,square
0.0,2.0,1.0,0.0,7.0,2.0,1273.5995860002731,2.0,1.0,phase_3,,,,,234.0,6.0,195.0,234.0,117.0,39.0,156.0,78.0,gray,square
0.0,6.0,1.0,1.0,7.0,5.0,1282.8307500003575,2.0,1.0,phase_3,,,,,156.0,4.0,234.0,78.0,39.0,195.0,156.0,117.0,yellow,triangle
0.0,7.0,2.0,1.0,7.0,6.0,1202.2377749999578,2.0,1.0,phase_3,,,,,234.0,6.0,156.0,117.0,78.0,39.0,195.0,234.0,orange,I
0.0,5.0,0.5,1.0,7.0,2.0,1049.4864570009668,3.0,1.0,phase_3,,,,,44.0,1.0,88.0,44.0,220.0,132.0,176.0,264.0,magenta,hexagon
0.0,5.0,0.5,1.0,7.0,4.0,546.2924599996768,3.0,1.0,phase_3,,,,,117.0,3.0,156.0,78.0,234.0,117.0,39.0,195.0,magenta,hexagon
0.0,2.0,1.0,0.0,7.0,1.0,773.7712859998283,3.0,1.0,phase_3,,,,,49.0,1.0,49.0,196.0,147.0,98.0,245.0,294.0,gray,square
0.0,2.0,1.0,0.0,7.0,2.0,583.0249399987224,3.0,1.0,phase_3,,,,,264.0,6.0,88.0,264.0,220.0,132.0,176.0,44.0,gray,square
0.0,1.0,0.5,0.0,7.0,4.0,822.4526750000223,3.0,1.0,phase_3,,,,,195.0,5.0,156.0,117.0,234.0,195.0,78.0,39.0,cyan,flipped triangle
0.0,7.0,2.0,1.0,7.0,2.0,649.1539100006776,3.0,1.0,phase_3,,,,,270.0,5.0,54.0,270.0,162.0,108.0,216.0,324.0,orange,I
0.0,7.0,2.0,1.0,7.0,5.0,543.4043259992904,3.0,1.0,phase_3,,,,,264.0,6.0,44.0,132.0,88.0,176.0,264.0,220.0,orange,I
0.0,4.0,4.0,0.0,7.0,4.0,328.8172020002093,3.0,1.0,phase_3,,,,,54.0,1.0,270.0,324.0,162.0,54.0,108.0,216.0,green,diamond
0.0,8.0,4.0,1.0,7.0,2.0,1074.8886979999952,3.0,1.0,phase_3,,,,,324.0,6.0,216.0,324.0,108.0,162.0,54.0,270.0,blue,circle
0.0,7.0,2.0,1.0,7.0,6.0,1019.5359869994718,3.0,1.0,phase_3,,,,,176.0,4.0,264.0,132.0,220.0,88.0,44.0,176.0,orange,I
0.0,4.0,4.0,0.0,7.0,1.0,974.7129839997796,3.0,1.0,phase_3,,,,,294.0,6.0,294.0,147.0,196.0,245.0,98.0,49.0,green,diamond
0.0,6.0,1.0,1.0,7.0,5.0,769.789233998381,3.0,1.0,phase_3,,,,,170.0,5.0,68.0,34.0,204.0,102.0,170.0,136.0,yellow,triangle
0.0,4.0,4.0,0.0,7.0,1.0,887.7513850002288,3.0,1.0,phase_3,,,,,176.0,4.0,176.0,264.0,220.0,132.0,88.0,44.0,green,diamond
0.0,2.0,1.0,0.0,7.0,5.0,1074.7964450001746,3.0,1.0,phase_3,,,,,49.0,1.0,245.0,98.0,294.0,196.0,49.0,147.0,gray,square
0.0,5.0,0.5,1.0,7.0,6.0,739.1350859998056,3.0,1.0,phase_3,,,,,102.0,3.0,136.0,68.0,204.0,170.0,34.0,102.0,magenta,hexagon
0.0,5.0,0.5,1.0,7.0,4.0,1405.6599089999509,3.0,1.0,phase_3,,,,,44.0,1.0,132.0,220.0,264.0,44.0,88.0,176.0,magenta,hexagon
0.0,1.0,0.5,0.0,7.0,6.0,1158.9987040006235,3.0,1.0,phase_3,,,,,196.0,4.0,245.0,147.0,294.0,98.0,49.0,196.0,cyan,flipped triangle
0.0,8.0,4.0,1.0,7.0,1.0,1305.2086930001678,3.0,1.0,phase_3,,,,,234.0,6.0,234.0,195.0,117.0,39.0,78.0,156.0,blue,circle
0.0,5.0,0.5,1.0,7.0,4.0,746.691197000473,3.0,1.0,phase_3,,,,,34.0,1.0,102.0,136.0,170.0,34.0,68.0,204.0,magenta,hexagon
0.0,7.0,2.0,1.0,7.0,2.0,337.2701040007086,3.0,1.0,phase_3,,,,,68.0,2.0,136.0,68.0,34.0,204.0,102.0,170.0,orange,I
0.0,3.0,2.0,0.0,7.0,1.0,573.457395999867,4.0,1.0,phase_3,,,,,78.0,2.0,78.0,156.0,117.0,39.0,234.0,195.0,white,cross
0.0,3.0,2.0,0.0,7.0,2.0,519.9138019997918,4.0,1.0,phase_3,,,,,176.0,4.0,88.0,176.0,220.0,44.0,132.0,264.0,white,cross
0.0,4.0,4.0,0.0,7.0,5.0,362.1922290003567,4.0,1.0,phase_3,,,,,324.0,6.0,162.0,270.0,108.0,216.0,324.0,54.0,green,diamond
0.0,8.0,4.0,1.0,7.0,6.0,811.6747069998382,4.0,1.0,phase_3,,,,,324.0,6.0,270.0,54.0,162.0,108.0,216.0,324.0,blue,circle
0.0,1.0,0.5,0.0,7.0,1.0,756.6580629991222,4.0,1.0,phase_3,,,,,102.0,3.0,102.0,170.0,136.0,204.0,34.0,68.0,cyan,flipped triangle
0.0,6.0,1.0,1.0,7.0,2.0,604.2810249982722,4.0,1.0,phase_3,,,,,117.0,3.0,195.0,117.0,156.0,234.0,39.0,78.0,yellow,triangle
0.0,2.0,1.0,0.0,7.0,6.0,752.6535110009718,4.0,1.0,phase_3,,,,,108.0,2.0,162.0,54.0,270.0,216.0,324.0,108.0,gray,square
0.0,2.0,1.0,0.0,7.0,2.0,665.2191829998628,4.0,1.0,phase_3,,,,,204.0,6.0,136.0,204.0,170.0,102.0,34.0,68.0,gray,square
0.0,5.0,0.5,1.0,7.0,2.0,1559.0594419991248,4.0,1.0,phase_3,,,,,156.0,4.0,117.0,156.0,78.0,39.0,234.0,195.0,magenta,hexagon
0.0,7.0,2.0,1.0,7.0,6.0,624.4345319992135,4.0,1.0,phase_3,,,,,196.0,4.0,98.0,147.0,294.0,49.0,245.0,196.0,orange,I
0.0,5.0,0.5,1.0,7.0,1.0,580.5475920005847,4.0,1.0,phase_3,,,,,196.0,4.0,196.0,49.0,147.0,294.0,245.0,98.0,magenta,hexagon
0.0,8.0,4.0,1.0,7.0,4.0,1637.8951250007958,4.0,1.0,phase_3,,,,,294.0,6.0,98.0,147.0,245.0,294.0,49.0,196.0,blue,circle
0.0,3.0,2.0,0.0,7.0,2.0,950.7991850005056,4.0,1.0,phase_3,,,,,68.0,2.0,102.0,68.0,204.0,136.0,34.0,170.0,white,cross
0.0,7.0,2.0,1.0,7.0,1.0,866.4261220001208,4.0,1.0,phase_3,,,,,234.0,6.0,234.0,39.0,156.0,78.0,117.0,195.0,orange,I
0.0,3.0,2.0,0.0,7.0,2.0,799.5982430002186,4.0,1.0,phase_3,,,,,39.0,1.0,195.0,39.0,234.0,156.0,78.0,117.0,white,cross
0.0,8.0,4.0,1.0,7.0,1.0,857.6281749992631,4.0,1.0,phase_3,,,,,220.0,5.0,220.0,88.0,176.0,132.0,264.0,44.0,blue,circle
0.0,6.0,1.0,1.0,7.0,2.0,1163.3554529998946,4.0,1.0,phase_3,,,,,102.0,3.0,34.0,102.0,204.0,170.0,68.0,136.0,yellow,triangle
0.0,3.0,2.0,0.0,7.0,4.0,923.8078720009072,4.0,1.0,phase_3,,,,,49.0,1.0,98.0,294.0,245.0,49.0,196.0,147.0,white,cross
0.0,6.0,1.0,1.0,7.0,5.0,959.1452500008018,4.0,1.0,phase_3,,,,,44.0,1.0,176.0,88.0,220.0,264.0,44.0,132.0,yellow,triangle
0.0,7.0,2.0,1.0,7.0,2.0,1038.4516280009848,4.0,1.0,phase_3,,,,,54.0,1.0,270.0,54.0,324.0,216.0,162.0,108.0,orange,I
