raw_reward_magnitude,stim_reward,stepwise_reward_magnitude,paired_with_stopping,stim_location,response,reaction_time,block,num_trial_presentations,which_phase,stop_signal_trial_type,left_SSD,right_SSD,accuracy,chosen_bidding_amount,chosen_bidding_level,possible_bid_1,possible_bid_2,possible_bid_3,possible_bid_4,possible_bid_5,possible_bid_6,color_text,shape_text
406.0,4.0,4.0,0.0,2.0,2.0,390.6406909227371,1.0,1.0,phase_1,,,,,,,,,,,,,gray,diamond
0.0,7.0,0.0,1.0,2.0,2.0,387.5409958418458,1.0,1.0,phase_1,,,,,,,,,,,,,cyan,circle
60.0,1.0,0.5,0.0,2.0,2.0,454.1311140637845,1.0,1.0,phase_1,,,,,,,,,,,,,magenta,flipped triangle
410.0,4.0,4.0,0.0,3.0,3.0,446.4469379745424,1.0,1.0,phase_1,,,,,,,,,,,,,gray,diamond
0.0,6.0,0.0,1.0,1.0,1.0,314.1451829578727,1.0,1.0,phase_1,,,,,,,,,,,,,yellow,cross
123.0,6.0,1.0,1.0,4.0,4.0,390.2953041251749,1.0,1.0,phase_1,,,,,,,,,,,,,yellow,cross
117.0,2.0,1.0,0.0,1.0,1.0,408.7284640409052,1.0,1.0,phase_1,,,,,,,,,,,,,blue,I
225.0,7.0,2.0,1.0,3.0,3.0,358.0148809123784,1.0,1.0,phase_1,,,,,,,,,,,,,cyan,circle
46.0,1.0,0.5,0.0,2.0,2.0,268.8175339717418,1.0,1.0,phase_1,,,,,,,,,,,,,magenta,flipped triangle
402.0,8.0,4.0,1.0,2.0,2.0,297.695840941742,1.0,1.0,phase_1,,,,,,,,,,,,,white,hexagon
0.0,1.0,0.0,0.0,1.0,1.0,284.3993380665779,1.0,1.0,phase_1,,,,,,,,,,,,,magenta,flipped triangle
54.0,5.0,0.5,1.0,1.0,1.0,360.9277678187936,1.0,1.0,phase_1,,,,,,,,,,,,,orange,square
396.0,4.0,4.0,0.0,2.0,2.0,300.5734980106354,1.0,1.0,phase_1,,,,,,,,,,,,,gray,diamond
88.0,6.0,1.0,1.0,1.0,1.0,301.5167159028351,1.0,1.0,phase_1,,,,,,,,,,,,,yellow,cross
34.0,5.0,0.5,1.0,2.0,2.0,285.8145528007298,1.0,1.0,phase_1,,,,,,,,,,,,,orange,square
399.0,4.0,4.0,0.0,3.0,3.0,277.0543450023979,1.0,1.0,phase_1,,,,,,,,,,,,,gray,diamond
83.0,6.0,1.0,1.0,3.0,3.0,328.0314791481942,1.0,1.0,phase_1,,,,,,,,,,,,,yellow,cross
112.0,6.0,1.0,1.0,2.0,2.0,316.3541848771274,1.0,1.0,phase_1,,,,,,,,,,,,,yellow,cross
0.0,3.0,0.0,0.0,2.0,2.0,320.6137400120497,1.0,1.0,phase_1,,,,,,,,,,,,,green,triangle
0.0,4.0,0.0,0.0,1.0,1.0,280.5927139706909,1.0,1.0,phase_1,,,,,,,,,,,,,gray,diamond
40.0,1.0,0.5,0.0,3.0,3.0,361.4109258633107,1.0,2.0,phase_1,,,,,,,,,,,,,magenta,flipped triangle
197.0,3.0,2.0,0.0,2.0,2.0,350.2487740479409,1.0,1.0,phase_1,,,,,,,,,,,,,green,triangle
56.0,1.0,0.5,0.0,1.0,1.0,320.4351330641657,1.0,1.0,phase_1,,,,,,,,,,,,,magenta,flipped triangle
413.0,4.0,4.0,0.0,4.0,4.0,292.9045660421252,1.0,1.0,phase_1,,,,,,,,,,,,,gray,diamond
0.0,1.0,0.0,0.0,3.0,3.0,325.9037050884217,1.0,1.0,phase_1,,,,,,,,,,,,,magenta,flipped triangle
417.0,8.0,4.0,1.0,1.0,1.0,313.4724209085107,1.0,1.0,phase_1,,,,,,,,,,,,,white,hexagon
194.0,3.0,2.0,0.0,3.0,3.0,341.5619439911097,1.0,1.0,phase_1,,,,,,,,,,,,,green,triangle
399.0,8.0,4.0,1.0,2.0,2.0,393.6625400092453,1.0,1.0,phase_1,,,,,,,,,,,,,white,hexagon
398.0,4.0,4.0,0.0,3.0,3.0,366.3806580007076,1.0,1.0,phase_1,,,,,,,,,,,,,gray,diamond
48.0,1.0,0.5,0.0,3.0,3.0,313.756959978491,1.0,1.0,phase_1,,,,,,,,,,,,,magenta,flipped triangle
180.0,7.0,2.0,1.0,2.0,2.0,325.5006021354347,1.0,1.0,phase_1,,,,,,,,,,,,,cyan,circle
104.0,6.0,1.0,1.0,3.0,3.0,350.4372739698738,1.0,1.0,phase_1,,,,,,,,,,,,,yellow,cross
396.0,8.0,4.0,1.0,4.0,4.0,305.299764033407,1.0,1.0,phase_1,,,,,,,,,,,,,white,hexagon
84.0,6.0,1.0,1.0,1.0,1.0,270.3657741658389,1.0,1.0,phase_1,,,,,,,,,,,,,yellow,cross
390.0,4.0,4.0,0.0,2.0,2.0,321.3692849967628,1.0,1.0,phase_1,,,,,,,,,,,,,gray,diamond
72.0,1.0,0.5,0.0,2.0,2.0,334.2214950826019,1.0,1.0,phase_1,,,,,,,,,,,,,magenta,flipped triangle
117.0,6.0,1.0,1.0,2.0,2.0,345.5997488927096,1.0,1.0,phase_1,,,,,,,,,,,,,yellow,cross
0.0,3.0,0.0,0.0,4.0,4.0,368.1031060405075,1.0,1.0,phase_1,,,,,,,,,,,,,green,triangle
122.0,2.0,1.0,0.0,4.0,4.0,325.4382580053061,1.0,1.0,phase_1,,,,,,,,,,,,,blue,I
387.0,8.0,4.0,1.0,4.0,4.0,303.8420139346272,1.0,1.0,phase_1,,,,,,,,,,,,,white,hexagon
400.0,4.0,4.0,0.0,2.0,2.0,301.77347199060017,1.0,1.0,phase_1,,,,,,,,,,,,,gray,diamond
50.0,5.0,0.5,1.0,3.0,3.0,338.2816240191459,1.0,1.0,phase_1,,,,,,,,,,,,,orange,square
0.0,5.0,0.0,1.0,2.0,2.0,320.0567248277366,1.0,1.0,phase_1,,,,,,,,,,,,,orange,square
116.0,6.0,1.0,1.0,3.0,3.0,325.1602940727025,1.0,1.0,phase_1,,,,,,,,,,,,,yellow,cross
77.0,6.0,1.0,1.0,4.0,4.0,303.2294088043272,1.0,1.0,phase_1,,,,,,,,,,,,,yellow,cross
385.0,4.0,4.0,0.0,1.0,1.0,308.3121019881218,1.0,1.0,phase_1,,,,,,,,,,,,,gray,diamond
424.0,4.0,4.0,0.0,2.0,2.0,369.429994141683,1.0,1.0,phase_1,,,,,,,,,,,,,gray,diamond
413.0,8.0,4.0,1.0,2.0,2.0,406.9564170204103,1.0,1.0,phase_1,,,,,,,,,,,,,white,hexagon
56.0,5.0,0.5,1.0,2.0,2.0,362.0969189796597,1.0,1.0,phase_1,,,,,,,,,,,,,orange,square
0.0,5.0,0.0,1.0,2.0,2.0,321.2335470598191,1.0,1.0,phase_1,,,,,,,,,,,,,orange,square
0.0,1.0,0.0,0.0,1.0,1.0,367.30522592552,1.0,1.0,phase_1,,,,,,,,,,,,,magenta,flipped triangle
211.0,7.0,2.0,1.0,4.0,4.0,305.4826739244163,1.0,1.0,phase_1,,,,,,,,,,,,,cyan,circle
78.0,2.0,1.0,0.0,1.0,1.0,252.6722319889813,1.0,1.0,phase_1,,,,,,,,,,,,,blue,I
109.0,2.0,1.0,0.0,3.0,3.0,267.4994228873402,1.0,1.0,phase_1,,,,,,,,,,,,,blue,I
380.0,4.0,4.0,0.0,3.0,3.0,329.7895169816911,1.0,1.0,phase_1,,,,,,,,,,,,,gray,diamond
385.0,8.0,4.0,1.0,3.0,3.0,284.3169618863612,1.0,1.0,phase_1,,,,,,,,,,,,,white,hexagon
0.0,8.0,0.0,1.0,3.0,3.0,297.5933458656072,1.0,1.0,phase_1,,,,,,,,,,,,,white,hexagon
403.0,4.0,4.0,0.0,1.0,1.0,276.9054328091442,1.0,1.0,phase_1,,,,,,,,,,,,,gray,diamond
98.0,6.0,1.0,1.0,3.0,3.0,288.8154860120266,1.0,1.0,phase_1,,,,,,,,,,,,,yellow,cross
200.0,7.0,2.0,1.0,4.0,4.0,350.5906120408326,1.0,1.0,phase_1,,,,,,,,,,,,,cyan,circle
0.0,8.0,0.0,1.0,3.0,3.0,306.2755209393799,1.0,1.0,phase_1,,,,,,,,,,,,,white,hexagon
125.0,6.0,1.0,1.0,1.0,1.0,322.8114431258291,1.0,1.0,phase_1,,,,,,,,,,,,,yellow,cross
0.0,2.0,0.0,0.0,4.0,4.0,391.2110168021172,1.0,1.0,phase_1,,,,,,,,,,,,,blue,I
217.0,3.0,2.0,0.0,3.0,3.0,305.0106489099562,1.0,1.0,phase_1,,,,,,,,,,,,,green,triangle
86.0,6.0,1.0,1.0,1.0,1.0,256.0295579023659,1.0,1.0,phase_1,,,,,,,,,,,,,yellow,cross
0.0,3.0,0.0,0.0,2.0,2.0,325.6768281571567,1.0,1.0,phase_1,,,,,,,,,,,,,green,triangle
0.0,4.0,0.0,0.0,4.0,4.0,320.6780131440609,1.0,1.0,phase_1,,,,,,,,,,,,,gray,diamond
391.0,8.0,4.0,1.0,3.0,3.0,285.3360830340534,1.0,1.0,phase_1,,,,,,,,,,,,,white,hexagon
0.0,7.0,0.0,1.0,3.0,3.0,336.6164118051529,1.0,1.0,phase_1,,,,,,,,,,,,,cyan,circle
415.0,8.0,4.0,1.0,1.0,1.0,268.3468707837164,1.0,1.0,phase_1,,,,,,,,,,,,,white,hexagon
189.0,7.0,2.0,1.0,3.0,3.0,275.2768490463495,1.0,1.0,phase_1,,,,,,,,,,,,,cyan,circle
117.0,2.0,1.0,0.0,4.0,4.0,288.9616061002016,1.0,1.0,phase_1,,,,,,,,,,,,,blue,I
78.0,6.0,1.0,1.0,2.0,2.0,332.696113968268,1.0,1.0,phase_1,,,,,,,,,,,,,yellow,cross
88.0,2.0,1.0,0.0,1.0,1.0,308.7684111669659,1.0,2.0,phase_1,,,,,,,,,,,,,blue,I
28.0,5.0,0.5,1.0,4.0,4.0,515.1600860990584,1.0,1.0,phase_1,,,,,,,,,,,,,orange,square
103.0,6.0,1.0,1.0,2.0,2.0,326.0440819431096,1.0,1.0,phase_1,,,,,,,,,,,,,yellow,cross
223.0,3.0,2.0,0.0,2.0,2.0,346.3811730034649,1.0,1.0,phase_1,,,,,,,,,,,,,green,triangle
0.0,7.0,0.0,1.0,3.0,3.0,338.011700194329,1.0,1.0,phase_1,,,,,,,,,,,,,cyan,circle
70.0,1.0,0.5,0.0,3.0,3.0,325.6518009584397,1.0,1.0,phase_1,,,,,,,,,,,,,magenta,flipped triangle
0.0,3.0,0.0,0.0,2.0,2.0,305.3889931179583,1.0,1.0,phase_1,,,,,,,,,,,,,green,triangle
198.0,3.0,2.0,0.0,2.0,2.0,268.8434049487114,1.0,1.0,phase_1,,,,,,,,,,,,,green,triangle
411.0,4.0,4.0,0.0,1.0,1.0,313.6575031094253,1.0,1.0,phase_1,,,,,,,,,,,,,gray,diamond
114.0,6.0,1.0,1.0,3.0,3.0,358.7733821477741,1.0,1.0,phase_1,,,,,,,,,,,,,yellow,cross
380.0,8.0,4.0,1.0,1.0,1.0,341.5595081169158,1.0,1.0,phase_1,,,,,,,,,,,,,white,hexagon
420.0,8.0,4.0,1.0,1.0,1.0,329.1625790297985,1.0,1.0,phase_1,,,,,,,,,,,,,white,hexagon
200.0,7.0,2.0,1.0,3.0,3.0,296.1240138392895,1.0,1.0,phase_1,,,,,,,,,,,,,cyan,circle
387.0,4.0,4.0,0.0,1.0,1.0,337.8326259553432,1.0,1.0,phase_1,,,,,,,,,,,,,gray,diamond
83.0,2.0,1.0,0.0,3.0,3.0,333.816593978554,1.0,1.0,phase_1,,,,,,,,,,,,,blue,I
75.0,2.0,1.0,0.0,1.0,1.0,314.1503189690411,1.0,1.0,phase_1,,,,,,,,,,,,,blue,I
37.0,5.0,0.5,1.0,3.0,3.0,313.6231938842684,1.0,1.0,phase_1,,,,,,,,,,,,,orange,square
31.0,5.0,0.5,1.0,2.0,2.0,374.897610861808,1.0,1.0,phase_1,,,,,,,,,,,,,orange,square
189.0,7.0,2.0,1.0,1.0,1.0,321.6547479387373,1.0,1.0,phase_1,,,,,,,,,,,,,cyan,circle
180.0,3.0,2.0,0.0,2.0,2.0,309.960032813251,1.0,1.0,phase_1,,,,,,,,,,,,,green,triangle
178.0,7.0,2.0,1.0,3.0,3.0,345.9686199203133,1.0,1.0,phase_1,,,,,,,,,,,,,cyan,circle
0.0,8.0,0.0,1.0,4.0,4.0,463.6131259612739,1.0,1.0,phase_1,,,,,,,,,,,,,white,hexagon
204.0,3.0,2.0,0.0,1.0,1.0,267.7497379481792,1.0,1.0,phase_1,,,,,,,,,,,,,green,triangle
0.0,6.0,0.0,1.0,4.0,4.0,273.775652050972,1.0,1.0,phase_1,,,,,,,,,,,,,yellow,cross
0.0,1.0,0.0,0.0,4.0,4.0,301.72689398750657,1.0,1.0,phase_1,,,,,,,,,,,,,magenta,flipped triangle
225.0,3.0,2.0,0.0,1.0,1.0,242.9832490161061,1.0,1.0,phase_1,,,,,,,,,,,,,green,triangle
390.0,8.0,4.0,1.0,3.0,3.0,277.8230882249772,1.0,1.0,phase_1,,,,,,,,,,,,,white,hexagon
211.0,3.0,2.0,0.0,3.0,3.0,328.4606889355927,2.0,1.0,phase_1,,,,,,,,,,,,,green,triangle
0.0,7.0,0.0,1.0,3.0,3.0,282.8645629342645,2.0,1.0,phase_1,,,,,,,,,,,,,cyan,circle
74.0,1.0,0.5,0.0,4.0,4.0,264.898763038218,2.0,1.0,phase_1,,,,,,,,,,,,,magenta,flipped triangle
59.0,1.0,0.5,0.0,4.0,4.0,259.6148441080004,2.0,2.0,phase_1,,,,,,,,,,,,,magenta,flipped triangle
51.0,1.0,0.5,0.0,1.0,1.0,374.0939060226083,2.0,1.0,phase_1,,,,,,,,,,,,,magenta,flipped triangle
413.0,8.0,4.0,1.0,1.0,1.0,386.1029320396483,2.0,1.0,phase_1,,,,,,,,,,,,,white,hexagon
177.0,3.0,2.0,0.0,2.0,2.0,375.268816947937,2.0,1.0,phase_1,,,,,,,,,,,,,green,triangle
80.0,6.0,1.0,1.0,2.0,2.0,358.8469249662012,2.0,1.0,phase_1,,,,,,,,,,,,,yellow,cross
124.0,6.0,1.0,1.0,3.0,3.0,314.9906320031732,2.0,1.0,phase_1,,,,,,,,,,,,,yellow,cross
94.0,2.0,1.0,0.0,3.0,3.0,333.3349169697612,2.0,1.0,phase_1,,,,,,,,,,,,,blue,I
0.0,2.0,0.0,0.0,4.0,4.0,316.946973092854,2.0,1.0,phase_1,,,,,,,,,,,,,blue,I
418.0,4.0,4.0,0.0,4.0,4.0,360.8227130025625,2.0,1.0,phase_1,,,,,,,,,,,,,gray,diamond
396.0,4.0,4.0,0.0,2.0,2.0,282.9520828090608,2.0,1.0,phase_1,,,,,,,,,,,,,gray,diamond
415.0,4.0,4.0,0.0,1.0,1.0,263.4862991981208,2.0,1.0,phase_1,,,,,,,,,,,,,gray,diamond
44.0,1.0,0.5,0.0,1.0,1.0,255.26101212017238,2.0,1.0,phase_1,,,,,,,,,,,,,magenta,flipped triangle
61.0,1.0,0.5,0.0,4.0,4.0,358.2741760183126,2.0,2.0,phase_1,,,,,,,,,,,,,magenta,flipped triangle
101.0,6.0,1.0,1.0,1.0,1.0,300.7895189803093,2.0,1.0,phase_1,,,,,,,,,,,,,yellow,cross
117.0,6.0,1.0,1.0,2.0,2.0,303.5880490206182,2.0,1.0,phase_1,,,,,,,,,,,,,yellow,cross
408.0,4.0,4.0,0.0,1.0,1.0,343.6520108953118,2.0,1.0,phase_1,,,,,,,,,,,,,gray,diamond
31.0,5.0,0.5,1.0,4.0,4.0,354.191638994962,2.0,1.0,phase_1,,,,,,,,,,,,,orange,square
0.0,8.0,0.0,1.0,2.0,2.0,364.8457070812583,2.0,1.0,phase_1,,,,,,,,,,,,,white,hexagon
197.0,7.0,2.0,1.0,2.0,2.0,355.5891350843012,2.0,1.0,phase_1,,,,,,,,,,,,,cyan,circle
50.0,1.0,0.5,0.0,4.0,4.0,288.6567721143365,2.0,1.0,phase_1,,,,,,,,,,,,,magenta,flipped triangle
198.0,7.0,2.0,1.0,2.0,2.0,366.1018060520291,2.0,1.0,phase_1,,,,,,,,,,,,,cyan,circle
99.0,6.0,1.0,1.0,3.0,3.0,433.5850630886853,2.0,1.0,phase_1,,,,,,,,,,,,,yellow,cross
409.0,8.0,4.0,1.0,3.0,3.0,512.3826989438385,2.0,1.0,phase_1,,,,,,,,,,,,,white,hexagon
206.0,7.0,2.0,1.0,1.0,1.0,300.8423550054431,2.0,1.0,phase_1,,,,,,,,,,,,,cyan,circle
398.0,8.0,4.0,1.0,4.0,4.0,262.5209810212254,2.0,1.0,phase_1,,,,,,,,,,,,,white,hexagon
105.0,6.0,1.0,1.0,1.0,1.0,308.6543600074947,2.0,1.0,phase_1,,,,,,,,,,,,,yellow,cross
40.0,5.0,0.5,1.0,1.0,1.0,320.321419974789,2.0,1.0,phase_1,,,,,,,,,,,,,orange,square
198.0,7.0,2.0,1.0,1.0,1.0,407.3707920033484,2.0,1.0,phase_1,,,,,,,,,,,,,cyan,circle
212.0,3.0,2.0,0.0,3.0,3.0,416.583932004869,2.0,1.0,phase_1,,,,,,,,,,,,,green,triangle
74.0,5.0,0.5,1.0,3.0,3.0,372.996357968077,2.0,1.0,phase_1,,,,,,,,,,,,,orange,square
106.0,2.0,1.0,0.0,4.0,4.0,381.788418861106,2.0,1.0,phase_1,,,,,,,,,,,,,blue,I
103.0,2.0,1.0,0.0,4.0,4.0,328.9545199368149,2.0,1.0,phase_1,,,,,,,,,,,,,blue,I
65.0,5.0,0.5,1.0,1.0,1.0,357.1668020449579,2.0,1.0,phase_1,,,,,,,,,,,,,orange,square
43.0,1.0,0.5,0.0,2.0,2.0,336.0131429508328,2.0,1.0,phase_1,,,,,,,,,,,,,magenta,flipped triangle
217.0,7.0,2.0,1.0,1.0,1.0,334.5591090619564,2.0,1.0,phase_1,,,,,,,,,,,,,cyan,circle
95.0,6.0,1.0,1.0,3.0,3.0,356.4639571122825,2.0,1.0,phase_1,,,,,,,,,,,,,yellow,cross
416.0,8.0,4.0,1.0,4.0,4.0,296.4317209552973,2.0,1.0,phase_1,,,,,,,,,,,,,white,hexagon
119.0,6.0,1.0,1.0,4.0,4.0,387.3074729926884,2.0,1.0,phase_1,,,,,,,,,,,,,yellow,cross
67.0,1.0,0.5,0.0,3.0,3.0,330.4274908732623,2.0,1.0,phase_1,,,,,,,,,,,,,magenta,flipped triangle
0.0,1.0,0.0,0.0,1.0,1.0,292.4584918655455,2.0,1.0,phase_1,,,,,,,,,,,,,magenta,flipped triangle
51.0,5.0,0.5,1.0,1.0,1.0,348.5811210703105,2.0,1.0,phase_1,,,,,,,,,,,,,orange,square
0.0,6.0,0.0,1.0,3.0,3.0,321.0104850586504,2.0,1.0,phase_1,,,,,,,,,,,,,yellow,cross
201.0,3.0,2.0,0.0,4.0,4.0,333.5357760079205,2.0,1.0,phase_1,,,,,,,,,,,,,green,triangle
112.0,2.0,1.0,0.0,2.0,2.0,374.5588189922273,2.0,1.0,phase_1,,,,,,,,,,,,,blue,I
180.0,3.0,2.0,0.0,2.0,2.0,356.483869953081,2.0,1.0,phase_1,,,,,,,,,,,,,green,triangle
59.0,5.0,0.5,1.0,2.0,2.0,338.2547341752797,2.0,1.0,phase_1,,,,,,,,,,,,,orange,square
0.0,6.0,0.0,1.0,3.0,3.0,357.6328598428517,2.0,1.0,phase_1,,,,,,,,,,,,,yellow,cross
380.0,8.0,4.0,1.0,2.0,2.0,283.7537880986929,2.0,1.0,phase_1,,,,,,,,,,,,,white,hexagon
37.0,5.0,0.5,1.0,4.0,4.0,393.7126770615577,2.0,1.0,phase_1,,,,,,,,,,,,,orange,square
0.0,4.0,0.0,0.0,2.0,2.0,318.1668831966817,2.0,1.0,phase_1,,,,,,,,,,,,,gray,diamond
176.0,3.0,2.0,0.0,4.0,4.0,345.6280080135911,2.0,1.0,phase_1,,,,,,,,,,,,,green,triangle
0.0,5.0,0.0,1.0,3.0,3.0,303.8959461264312,2.0,1.0,phase_1,,,,,,,,,,,,,orange,square
210.0,3.0,2.0,0.0,4.0,4.0,345.9644301328808,2.0,1.0,phase_1,,,,,,,,,,,,,green,triangle
379.0,4.0,4.0,0.0,4.0,4.0,335.7848331797868,2.0,1.0,phase_1,,,,,,,,,,,,,gray,diamond
390.0,4.0,4.0,0.0,4.0,4.0,317.0049479231238,2.0,1.0,phase_1,,,,,,,,,,,,,gray,diamond
222.0,7.0,2.0,1.0,3.0,3.0,360.7666059397161,2.0,1.0,phase_1,,,,,,,,,,,,,cyan,circle
43.0,1.0,0.5,0.0,3.0,3.0,311.761368997395,2.0,1.0,phase_1,,,,,,,,,,,,,magenta,flipped triangle
45.0,1.0,0.5,0.0,1.0,1.0,361.0443759243935,2.0,1.0,phase_1,,,,,,,,,,,,,magenta,flipped triangle
0.0,4.0,0.0,0.0,3.0,3.0,317.2089350409806,2.0,1.0,phase_1,,,,,,,,,,,,,gray,diamond
0.0,5.0,0.0,1.0,4.0,4.0,404.6955790836364,2.0,1.0,phase_1,,,,,,,,,,,,,orange,square
0.0,7.0,0.0,1.0,3.0,3.0,329.3844270519912,2.0,1.0,phase_1,,,,,,,,,,,,,cyan,circle
195.0,7.0,2.0,1.0,2.0,2.0,347.1154659055173,2.0,1.0,phase_1,,,,,,,,,,,,,cyan,circle
80.0,2.0,1.0,0.0,4.0,4.0,305.7027321774512,2.0,1.0,phase_1,,,,,,,,,,,,,blue,I
194.0,7.0,2.0,1.0,2.0,2.0,333.6333038751036,2.0,1.0,phase_1,,,,,,,,,,,,,cyan,circle
0.0,3.0,0.0,0.0,4.0,4.0,305.2380799781531,2.0,1.0,phase_1,,,,,,,,,,,,,green,triangle
0.0,8.0,0.0,1.0,4.0,4.0,305.165559053421,2.0,1.0,phase_1,,,,,,,,,,,,,white,hexagon
223.0,7.0,2.0,1.0,2.0,2.0,365.9560889936983,2.0,1.0,phase_1,,,,,,,,,,,,,cyan,circle
209.0,7.0,2.0,1.0,1.0,1.0,382.3309789877385,2.0,2.0,phase_1,,,,,,,,,,,,,cyan,circle
190.0,7.0,2.0,1.0,3.0,3.0,331.6069268621504,2.0,1.0,phase_1,,,,,,,,,,,,,cyan,circle
117.0,2.0,1.0,0.0,4.0,4.0,293.9417320303619,2.0,1.0,phase_1,,,,,,,,,,,,,blue,I
424.0,8.0,4.0,1.0,4.0,4.0,340.8072469756007,2.0,1.0,phase_1,,,,,,,,,,,,,white,hexagon
69.0,1.0,0.5,0.0,2.0,2.0,383.4347620140761,2.0,1.0,phase_1,,,,,,,,,,,,,magenta,flipped triangle
118.0,2.0,1.0,0.0,4.0,4.0,341.763888951391,2.0,1.0,phase_1,,,,,,,,,,,,,blue,I
0.0,2.0,0.0,0.0,3.0,3.0,386.2352131400257,2.0,1.0,phase_1,,,,,,,,,,,,,blue,I
72.0,5.0,0.5,1.0,3.0,3.0,303.9226760156452,2.0,1.0,phase_1,,,,,,,,,,,,,orange,square
176.0,3.0,2.0,0.0,4.0,4.0,361.0306971240788,2.0,2.0,phase_1,,,,,,,,,,,,,green,triangle
0.0,1.0,0.0,0.0,4.0,4.0,315.4818241018802,2.0,1.0,phase_1,,,,,,,,,,,,,magenta,flipped triangle
0.0,5.0,0.0,1.0,2.0,2.0,440.4345820657909,2.0,1.0,phase_1,,,,,,,,,,,,,orange,square
392.0,4.0,4.0,0.0,1.0,1.0,447.6597909815609,2.0,1.0,phase_1,,,,,,,,,,,,,gray,diamond
43.0,5.0,0.5,1.0,2.0,2.0,394.025410991162,2.0,1.0,phase_1,,,,,,,,,,,,,orange,square
63.0,1.0,0.5,0.0,1.0,1.0,369.4949131458998,2.0,1.0,phase_1,,,,,,,,,,,,,magenta,flipped triangle
191.0,3.0,2.0,0.0,4.0,4.0,380.7231178507209,2.0,1.0,phase_1,,,,,,,,,,,,,green,triangle
44.0,5.0,0.5,1.0,1.0,1.0,321.1013509426266,2.0,1.0,phase_1,,,,,,,,,,,,,orange,square
176.0,7.0,2.0,1.0,4.0,4.0,287.4378201086074,2.0,1.0,phase_1,,,,,,,,,,,,,cyan,circle
189.0,3.0,2.0,0.0,1.0,1.0,339.7294718306511,2.0,1.0,phase_1,,,,,,,,,,,,,green,triangle
186.0,3.0,2.0,0.0,3.0,3.0,455.0816211849451,2.0,1.0,phase_1,,,,,,,,,,,,,green,triangle
206.0,3.0,2.0,0.0,4.0,4.0,277.5458530522883,2.0,1.0,phase_1,,,,,,,,,,,,,green,triangle
417.0,4.0,4.0,0.0,1.0,1.0,328.4532320685684,2.0,1.0,phase_1,,,,,,,,,,,,,gray,diamond
91.0,2.0,1.0,0.0,2.0,2.0,349.7398579493165,2.0,1.0,phase_1,,,,,,,,,,,,,blue,I
73.0,5.0,0.5,1.0,4.0,4.0,321.823411155492,2.0,1.0,phase_1,,,,,,,,,,,,,orange,square
66.0,5.0,0.5,1.0,4.0,4.0,318.0994119029492,2.0,1.0,phase_1,,,,,,,,,,,,,orange,square
0.0,8.0,0.0,1.0,1.0,1.0,372.6546010002494,2.0,1.0,phase_1,,,,,,,,,,,,,white,hexagon
391.0,4.0,4.0,0.0,2.0,2.0,447.9329129680991,2.0,1.0,phase_1,,,,,,,,,,,,,gray,diamond
195.0,3.0,2.0,0.0,3.0,3.0,341.5897421073168,2.0,1.0,phase_1,,,,,,,,,,,,,green,triangle
30.0,5.0,0.5,1.0,2.0,2.0,377.236203989014,2.0,1.0,phase_1,,,,,,,,,,,,,orange,square
219.0,3.0,2.0,0.0,1.0,1.0,325.8490629959851,2.0,1.0,phase_1,,,,,,,,,,,,,green,triangle
0.0,1.0,0.0,0.0,4.0,4.0,444.6306109894067,2.0,1.0,phase_1,,,,,,,,,,,,,magenta,flipped triangle
200.0,3.0,2.0,0.0,2.0,2.0,383.9357909746468,3.0,1.0,phase_1,,,,,,,,,,,,,green,triangle
45.0,5.0,0.5,1.0,3.0,3.0,337.1134570334106,3.0,1.0,phase_1,,,,,,,,,,,,,orange,square
210.0,7.0,2.0,1.0,4.0,4.0,280.4670501500368,3.0,1.0,phase_1,,,,,,,,,,,,,cyan,circle
0.0,5.0,0.0,1.0,2.0,2.0,293.7335970345884,3.0,1.0,phase_1,,,,,,,,,,,,,orange,square
0.0,4.0,0.0,0.0,4.0,4.0,337.9950749222189,3.0,1.0,phase_1,,,,,,,,,,,,,gray,diamond
0.0,3.0,0.0,0.0,3.0,3.0,302.5732648093253,3.0,1.0,phase_1,,,,,,,,,,,,,green,triangle
186.0,7.0,2.0,1.0,3.0,3.0,331.1690541449934,3.0,1.0,phase_1,,,,,,,,,,,,,cyan,circle
28.0,1.0,0.5,0.0,1.0,1.0,285.4473509360105,3.0,1.0,phase_1,,,,,,,,,,,,,magenta,flipped triangle
191.0,7.0,2.0,1.0,1.0,1.0,297.9127678554505,3.0,1.0,phase_1,,,,,,,,,,,,,cyan,circle
219.0,7.0,2.0,1.0,1.0,1.0,305.0168089102953,3.0,1.0,phase_1,,,,,,,,,,,,,cyan,circle
30.0,5.0,0.5,1.0,2.0,2.0,325.3903379663825,3.0,1.0,phase_1,,,,,,,,,,,,,orange,square
0.0,1.0,0.0,0.0,2.0,2.0,312.6560270320624,3.0,1.0,phase_1,,,,,,,,,,,,,magenta,flipped triangle
191.0,7.0,2.0,1.0,3.0,3.0,300.6225530989468,3.0,1.0,phase_1,,,,,,,,,,,,,cyan,circle
391.0,8.0,4.0,1.0,2.0,2.0,265.4952369630337,3.0,1.0,phase_1,,,,,,,,,,,,,white,hexagon
98.0,2.0,1.0,0.0,1.0,1.0,273.1700020376593,3.0,1.0,phase_1,,,,,,,,,,,,,blue,I
87.0,6.0,1.0,1.0,2.0,2.0,284.9768861196935,3.0,1.0,phase_1,,,,,,,,,,,,,yellow,cross
50.0,1.0,0.5,0.0,4.0,4.0,289.474971126765,3.0,1.0,phase_1,,,,,,,,,,,,,magenta,flipped triangle
94.0,6.0,1.0,1.0,4.0,4.0,292.1561230905354,3.0,1.0,phase_1,,,,,,,,,,,,,yellow,cross
191.0,3.0,2.0,0.0,1.0,1.0,252.3707700893283,3.0,1.0,phase_1,,,,,,,,,,,,,green,triangle
409.0,4.0,4.0,0.0,3.0,3.0,321.211899863556,3.0,1.0,phase_1,,,,,,,,,,,,,gray,diamond
180.0,7.0,2.0,1.0,3.0,3.0,316.976877162233,3.0,1.0,phase_1,,,,,,,,,,,,,cyan,circle
405.0,4.0,4.0,0.0,3.0,3.0,296.706860885024,3.0,1.0,phase_1,,,,,,,,,,,,,gray,diamond
0.0,8.0,0.0,1.0,3.0,3.0,291.8330708052963,3.0,1.0,phase_1,,,,,,,,,,,,,white,hexagon
95.0,2.0,1.0,0.0,3.0,3.0,305.1048899069428,3.0,1.0,phase_1,,,,,,,,,,,,,blue,I
67.0,5.0,0.5,1.0,1.0,1.0,280.3908931091428,3.0,1.0,phase_1,,,,,,,,,,,,,orange,square
37.0,1.0,0.5,0.0,2.0,2.0,317.5158360973,3.0,1.0,phase_1,,,,,,,,,,,,,magenta,flipped triangle
114.0,2.0,1.0,0.0,2.0,2.0,317.9483339190483,3.0,1.0,phase_1,,,,,,,,,,,,,blue,I
0.0,4.0,0.0,0.0,1.0,1.0,379.2546999175101,3.0,1.0,phase_1,,,,,,,,,,,,,gray,diamond
385.0,4.0,4.0,0.0,4.0,4.0,272.3053700756281,3.0,1.0,phase_1,,,,,,,,,,,,,gray,diamond
178.0,3.0,2.0,0.0,2.0,2.0,268.9024421852082,3.0,1.0,phase_1,,,,,,,,,,,,,green,triangle
190.0,3.0,2.0,0.0,3.0,3.0,272.9990920051932,3.0,1.0,phase_1,,,,,,,,,,,,,green,triangle
77.0,6.0,1.0,1.0,1.0,1.0,229.5402479358017,3.0,1.0,phase_1,,,,,,,,,,,,,yellow,cross
210.0,3.0,2.0,0.0,1.0,1.0,269.7254251688719,3.0,1.0,phase_1,,,,,,,,,,,,,green,triangle
87.0,2.0,1.0,0.0,3.0,3.0,305.8083879295736,3.0,1.0,phase_1,,,,,,,,,,,,,blue,I
218.0,7.0,2.0,1.0,4.0,4.0,325.3810149617493,3.0,1.0,phase_1,,,,,,,,,,,,,cyan,circle
65.0,1.0,0.5,0.0,2.0,2.0,281.3230520114302,3.0,1.0,phase_1,,,,,,,,,,,,,magenta,flipped triangle
85.0,6.0,1.0,1.0,1.0,1.0,261.3439860288054,3.0,1.0,phase_1,,,,,,,,,,,,,yellow,cross
0.0,5.0,0.0,1.0,2.0,2.0,276.436440879479,3.0,1.0,phase_1,,,,,,,,,,,,,orange,square
411.0,8.0,4.0,1.0,3.0,3.0,289.6248828619718,3.0,1.0,phase_1,,,,,,,,,,,,,white,hexagon
0.0,2.0,0.0,0.0,1.0,1.0,278.029769891873,3.0,1.0,phase_1,,,,,,,,,,,,,blue,I
177.0,7.0,2.0,1.0,2.0,2.0,306.8146100267768,3.0,1.0,phase_1,,,,,,,,,,,,,cyan,circle
57.0,5.0,0.5,1.0,3.0,3.0,302.4184440728277,3.0,1.0,phase_1,,,,,,,,,,,,,orange,square
122.0,6.0,1.0,1.0,3.0,3.0,307.3406179901212,3.0,1.0,phase_1,,,,,,,,,,,,,yellow,cross
43.0,5.0,0.5,1.0,4.0,4.0,289.9656558874994,3.0,1.0,phase_1,,,,,,,,,,,,,orange,square
218.0,7.0,2.0,1.0,2.0,2.0,338.5114099364728,3.0,1.0,phase_1,,,,,,,,,,,,,cyan,circle
68.0,5.0,0.5,1.0,2.0,2.0,321.3817221112549,3.0,1.0,phase_1,,,,,,,,,,,,,orange,square
125.0,2.0,1.0,0.0,3.0,3.0,309.7812789492309,3.0,1.0,phase_1,,,,,,,,,,,,,blue,I
69.0,5.0,0.5,1.0,3.0,3.0,289.786125998944,3.0,1.0,phase_1,,,,,,,,,,,,,orange,square
0.0,3.0,0.0,0.0,3.0,3.0,301.8552050925791,3.0,1.0,phase_1,,,,,,,,,,,,,green,triangle
225.0,7.0,2.0,1.0,4.0,4.0,277.3409020155668,3.0,1.0,phase_1,,,,,,,,,,,,,cyan,circle
210.0,7.0,2.0,1.0,2.0,2.0,313.3055889047682,3.0,1.0,phase_1,,,,,,,,,,,,,cyan,circle
409.0,4.0,4.0,0.0,3.0,3.0,294.2899239715189,3.0,1.0,phase_1,,,,,,,,,,,,,gray,diamond
208.0,7.0,2.0,1.0,1.0,1.0,288.4040151257068,3.0,1.0,phase_1,,,,,,,,,,,,,cyan,circle
68.0,1.0,0.5,0.0,1.0,1.0,271.9856379553675,3.0,1.0,phase_1,,,,,,,,,,,,,magenta,flipped triangle
81.0,2.0,1.0,0.0,2.0,2.0,284.6117380540818,3.0,1.0,phase_1,,,,,,,,,,,,,blue,I
84.0,2.0,1.0,0.0,2.0,2.0,297.8377118706703,3.0,1.0,phase_1,,,,,,,,,,,,,blue,I
0.0,1.0,0.0,0.0,2.0,2.0,283.7129351682961,3.0,1.0,phase_1,,,,,,,,,,,,,magenta,flipped triangle
55.0,1.0,0.5,0.0,4.0,4.0,296.0911390837282,3.0,1.0,phase_1,,,,,,,,,,,,,magenta,flipped triangle
183.0,7.0,2.0,1.0,4.0,4.0,260.3396729100495,3.0,1.0,phase_1,,,,,,,,,,,,,cyan,circle
397.0,8.0,4.0,1.0,4.0,4.0,260.2435038425028,3.0,1.0,phase_1,,,,,,,,,,,,,white,hexagon
0.0,6.0,0.0,1.0,3.0,3.0,288.7606970034539,3.0,1.0,phase_1,,,,,,,,,,,,,yellow,cross
408.0,8.0,4.0,1.0,3.0,3.0,252.6271659880876,3.0,1.0,phase_1,,,,,,,,,,,,,white,hexagon
99.0,2.0,1.0,0.0,1.0,1.0,297.8051470126956,3.0,1.0,phase_1,,,,,,,,,,,,,blue,I
411.0,4.0,4.0,0.0,4.0,4.0,300.1658571884036,3.0,1.0,phase_1,,,,,,,,,,,,,gray,diamond
0.0,6.0,0.0,1.0,2.0,2.0,289.0968318097293,3.0,1.0,phase_1,,,,,,,,,,,,,yellow,cross
57.0,1.0,0.5,0.0,2.0,2.0,303.1474889721721,3.0,1.0,phase_1,,,,,,,,,,,,,magenta,flipped triangle
83.0,6.0,1.0,1.0,4.0,4.0,281.5990259405225,3.0,1.0,phase_1,,,,,,,,,,,,,yellow,cross
37.0,1.0,0.5,0.0,4.0,4.0,256.826956057921,3.0,1.0,phase_1,,,,,,,,,,,,,magenta,flipped triangle
117.0,6.0,1.0,1.0,1.0,1.0,332.6174109242856,3.0,1.0,phase_1,,,,,,,,,,,,,yellow,cross
376.0,8.0,4.0,1.0,3.0,3.0,264.1640519723296,3.0,1.0,phase_1,,,,,,,,,,,,,white,hexagon
104.0,2.0,1.0,0.0,4.0,4.0,264.6305351518094,3.0,1.0,phase_1,,,,,,,,,,,,,blue,I
376.0,8.0,4.0,1.0,1.0,1.0,291.3410561159253,3.0,1.0,phase_1,,,,,,,,,,,,,white,hexagon
75.0,6.0,1.0,1.0,2.0,2.0,265.0524219498038,3.0,1.0,phase_1,,,,,,,,,,,,,yellow,cross
0.0,8.0,0.0,1.0,2.0,2.0,293.4523681178689,3.0,1.0,phase_1,,,,,,,,,,,,,white,hexagon
0.0,6.0,0.0,1.0,3.0,3.0,297.600569203496,3.0,1.0,phase_1,,,,,,,,,,,,,yellow,cross
34.0,1.0,0.5,0.0,3.0,3.0,324.3391478899866,3.0,1.0,phase_1,,,,,,,,,,,,,magenta,flipped triangle
123.0,2.0,1.0,0.0,1.0,1.0,320.5945719964802,3.0,1.0,phase_1,,,,,,,,,,,,,blue,I
212.0,7.0,2.0,1.0,4.0,4.0,309.4200089108199,3.0,1.0,phase_1,,,,,,,,,,,,,cyan,circle
66.0,1.0,0.5,0.0,3.0,3.0,322.1645189914852,3.0,1.0,phase_1,,,,,,,,,,,,,magenta,flipped triangle
385.0,8.0,4.0,1.0,4.0,4.0,442.7912451792508,3.0,1.0,phase_1,,,,,,,,,,,,,white,hexagon
37.0,1.0,0.5,0.0,4.0,4.0,309.6873729955405,3.0,1.0,phase_1,,,,,,,,,,,,,magenta,flipped triangle
109.0,6.0,1.0,1.0,4.0,4.0,296.3877141010016,3.0,1.0,phase_1,,,,,,,,,,,,,yellow,cross
402.0,4.0,4.0,0.0,4.0,4.0,300.6223510019481,3.0,1.0,phase_1,,,,,,,,,,,,,gray,diamond
0.0,3.0,0.0,0.0,4.0,4.0,289.9358300492167,3.0,1.0,phase_1,,,,,,,,,,,,,green,triangle
78.0,2.0,1.0,0.0,3.0,3.0,320.2678360976279,3.0,1.0,phase_1,,,,,,,,,,,,,blue,I
0.0,8.0,0.0,1.0,1.0,1.0,259.6977120265364,3.0,1.0,phase_1,,,,,,,,,,,,,white,hexagon
56.0,1.0,0.5,0.0,2.0,2.0,321.7150717973709,3.0,1.0,phase_1,,,,,,,,,,,,,magenta,flipped triangle
380.0,4.0,4.0,0.0,2.0,2.0,300.9119420312345,3.0,1.0,phase_1,,,,,,,,,,,,,gray,diamond
0.0,7.0,0.0,1.0,1.0,1.0,337.3772539198398,3.0,1.0,phase_1,,,,,,,,,,,,,cyan,circle
78.0,6.0,1.0,1.0,4.0,4.0,313.726793974638,3.0,1.0,phase_1,,,,,,,,,,,,,yellow,cross
85.0,2.0,1.0,0.0,3.0,3.0,291.7431469541043,3.0,1.0,phase_1,,,,,,,,,,,,,blue,I
0.0,2.0,0.0,0.0,1.0,1.0,312.8937350120395,3.0,1.0,phase_1,,,,,,,,,,,,,blue,I
190.0,7.0,2.0,1.0,1.0,1.0,317.1846838667989,3.0,1.0,phase_1,,,,,,,,,,,,,cyan,circle
28.0,5.0,0.5,1.0,3.0,3.0,337.154797045514,3.0,1.0,phase_1,,,,,,,,,,,,,orange,square
31.0,1.0,0.5,0.0,4.0,4.0,293.749043950811,3.0,1.0,phase_1,,,,,,,,,,,,,magenta,flipped triangle
222.0,3.0,2.0,0.0,4.0,4.0,340.5422188807279,3.0,1.0,phase_1,,,,,,,,,,,,,green,triangle
0.0,7.0,0.0,1.0,4.0,4.0,310.7638577930629,3.0,1.0,phase_1,,,,,,,,,,,,,cyan,circle
77.0,2.0,1.0,0.0,2.0,2.0,318.9667770639062,3.0,1.0,phase_1,,,,,,,,,,,,,blue,I
0.0,4.0,0.0,0.0,4.0,4.0,297.8795259259641,3.0,1.0,phase_1,,,,,,,,,,,,,gray,diamond
0.0,6.0,0.0,1.0,4.0,4.0,304.7465211711824,3.0,1.0,phase_1,,,,,,,,,,,,,yellow,cross
55.0,5.0,0.5,1.0,1.0,1.0,389.9066559970379,4.0,1.0,phase_1,,,,,,,,,,,,,orange,square
122.0,6.0,1.0,1.0,4.0,4.0,288.6825129389763,4.0,1.0,phase_1,,,,,,,,,,,,,yellow,cross
189.0,3.0,2.0,0.0,4.0,4.0,260.4438541457057,4.0,1.0,phase_1,,,,,,,,,,,,,green,triangle
28.0,1.0,0.5,0.0,1.0,1.0,264.4983709324151,4.0,1.0,phase_1,,,,,,,,,,,,,magenta,flipped triangle
54.0,1.0,0.5,0.0,1.0,1.0,253.0946608167141,4.0,1.0,phase_1,,,,,,,,,,,,,magenta,flipped triangle
46.0,5.0,0.5,1.0,2.0,2.0,300.8173899725079,4.0,1.0,phase_1,,,,,,,,,,,,,orange,square
420.0,4.0,4.0,0.0,2.0,2.0,286.2384370528161,4.0,1.0,phase_1,,,,,,,,,,,,,gray,diamond
218.0,3.0,2.0,0.0,2.0,2.0,276.356684975326,4.0,1.0,phase_1,,,,,,,,,,,,,green,triangle
183.0,3.0,2.0,0.0,3.0,3.0,248.5513349529355,4.0,1.0,phase_1,,,,,,,,,,,,,green,triangle
0.0,4.0,0.0,0.0,4.0,4.0,228.2682810910046,4.0,1.0,phase_1,,,,,,,,,,,,,gray,diamond
400.0,8.0,4.0,1.0,1.0,1.0,325.6264270748943,4.0,2.0,phase_1,,,,,,,,,,,,,white,hexagon
30.0,1.0,0.5,0.0,1.0,1.0,268.7186980620026,4.0,1.0,phase_1,,,,,,,,,,,,,magenta,flipped triangle
376.0,4.0,4.0,0.0,4.0,4.0,281.8194068968296,4.0,1.0,phase_1,,,,,,,,,,,,,gray,diamond
0.0,4.0,0.0,0.0,4.0,4.0,309.7956900019198,4.0,1.0,phase_1,,,,,,,,,,,,,gray,diamond
0.0,1.0,0.0,0.0,3.0,3.0,330.9501509647816,4.0,1.0,phase_1,,,,,,,,,,,,,magenta,flipped triangle
30.0,1.0,0.5,0.0,4.0,4.0,334.715018980205,4.0,1.0,phase_1,,,,,,,,,,,,,magenta,flipped triangle
0.0,7.0,0.0,1.0,1.0,1.0,321.674290811643,4.0,1.0,phase_1,,,,,,,,,,,,,cyan,circle
73.0,1.0,0.5,0.0,3.0,3.0,273.9628278650343,4.0,1.0,phase_1,,,,,,,,,,,,,magenta,flipped triangle
31.0,1.0,0.5,0.0,3.0,3.0,327.1828931756317,4.0,1.0,phase_1,,,,,,,,,,,,,magenta,flipped triangle
390.0,8.0,4.0,1.0,1.0,1.0,289.75515300408,4.0,1.0,phase_1,,,,,,,,,,,,,white,hexagon
116.0,2.0,1.0,0.0,4.0,4.0,302.492359187454,4.0,1.0,phase_1,,,,,,,,,,,,,blue,I
119.0,2.0,1.0,0.0,2.0,2.0,314.0442869625985,4.0,1.0,phase_1,,,,,,,,,,,,,blue,I
416.0,4.0,4.0,0.0,3.0,3.0,313.5072549339384,4.0,1.0,phase_1,,,,,,,,,,,,,gray,diamond
97.0,6.0,1.0,1.0,2.0,2.0,293.7723370268941,4.0,1.0,phase_1,,,,,,,,,,,,,yellow,cross
37.0,5.0,0.5,1.0,3.0,3.0,298.2573171611875,4.0,1.0,phase_1,,,,,,,,,,,,,orange,square
56.0,5.0,0.5,1.0,1.0,1.0,292.7648078184575,4.0,1.0,phase_1,,,,,,,,,,,,,orange,square
106.0,2.0,1.0,0.0,2.0,2.0,296.803749864921,4.0,1.0,phase_1,,,,,,,,,,,,,blue,I
0.0,5.0,0.0,1.0,2.0,2.0,325.280703837052,4.0,1.0,phase_1,,,,,,,,,,,,,orange,square
60.0,5.0,0.5,1.0,4.0,4.0,284.0567519888282,4.0,1.0,phase_1,,,,,,,,,,,,,orange,square
0.0,7.0,0.0,1.0,3.0,3.0,272.6085230242461,4.0,1.0,phase_1,,,,,,,,,,,,,cyan,circle
97.0,2.0,1.0,0.0,2.0,2.0,284.198499051854,4.0,1.0,phase_1,,,,,,,,,,,,,blue,I
392.0,8.0,4.0,1.0,2.0,2.0,288.4252090007067,4.0,1.0,phase_1,,,,,,,,,,,,,white,hexagon
410.0,8.0,4.0,1.0,2.0,2.0,276.8427631817758,4.0,1.0,phase_1,,,,,,,,,,,,,white,hexagon
402.0,8.0,4.0,1.0,2.0,2.0,268.67870311252767,4.0,1.0,phase_1,,,,,,,,,,,,,white,hexagon
201.0,7.0,2.0,1.0,4.0,4.0,261.935343965888,4.0,1.0,phase_1,,,,,,,,,,,,,cyan,circle
409.0,8.0,4.0,1.0,1.0,1.0,326.7773969564587,4.0,1.0,phase_1,,,,,,,,,,,,,white,hexagon
397.0,4.0,4.0,0.0,2.0,2.0,314.6800550166517,4.0,1.0,phase_1,,,,,,,,,,,,,gray,diamond
0.0,6.0,0.0,1.0,1.0,1.0,294.4380410481244,4.0,1.0,phase_1,,,,,,,,,,,,,yellow,cross
0.0,3.0,0.0,0.0,3.0,3.0,265.3715750202536,4.0,1.0,phase_1,,,,,,,,,,,,,green,triangle
63.0,5.0,0.5,1.0,3.0,3.0,293.887261999771,4.0,1.0,phase_1,,,,,,,,,,,,,orange,square
0.0,5.0,0.0,1.0,1.0,1.0,298.9334180019796,4.0,1.0,phase_1,,,,,,,,,,,,,orange,square
376.0,4.0,4.0,0.0,4.0,4.0,302.8472829610109,4.0,1.0,phase_1,,,,,,,,,,,,,gray,diamond
391.0,4.0,4.0,0.0,3.0,3.0,293.8211939763278,4.0,1.0,phase_1,,,,,,,,,,,,,gray,diamond
406.0,8.0,4.0,1.0,4.0,4.0,299.2261431645602,4.0,1.0,phase_1,,,,,,,,,,,,,white,hexagon
198.0,3.0,2.0,0.0,1.0,1.0,269.9799279216677,4.0,1.0,phase_1,,,,,,,,,,,,,green,triangle
396.0,4.0,4.0,0.0,4.0,4.0,290.4899839777499,4.0,1.0,phase_1,,,,,,,,,,,,,gray,diamond
61.0,5.0,0.5,1.0,1.0,1.0,231.6905481275171,4.0,1.0,phase_1,,,,,,,,,,,,,orange,square
31.0,1.0,0.5,0.0,3.0,3.0,293.8878778368234,4.0,1.0,phase_1,,,,,,,,,,,,,magenta,flipped triangle
195.0,7.0,2.0,1.0,3.0,3.0,272.744714980945,4.0,1.0,phase_1,,,,,,,,,,,,,cyan,circle
0.0,6.0,0.0,1.0,1.0,1.0,272.1680558752268,4.0,1.0,phase_1,,,,,,,,,,,,,yellow,cross
0.0,2.0,0.0,0.0,1.0,1.0,300.8615321014076,4.0,1.0,phase_1,,,,,,,,,,,,,blue,I
209.0,3.0,2.0,0.0,4.0,4.0,239.85854908823958,4.0,1.0,phase_1,,,,,,,,,,,,,green,triangle
195.0,3.0,2.0,0.0,1.0,1.0,261.3680500071496,4.0,1.0,phase_1,,,,,,,,,,,,,green,triangle
48.0,5.0,0.5,1.0,4.0,4.0,232.513721100986,4.0,1.0,phase_1,,,,,,,,,,,,,orange,square
396.0,8.0,4.0,1.0,3.0,3.0,284.1527520213276,4.0,1.0,phase_1,,,,,,,,,,,,,white,hexagon
70.0,5.0,0.5,1.0,2.0,2.0,296.7036310583353,4.0,1.0,phase_1,,,,,,,,,,,,,orange,square
402.0,4.0,4.0,0.0,1.0,1.0,229.487087810412,4.0,1.0,phase_1,,,,,,,,,,,,,gray,diamond
411.0,8.0,4.0,1.0,2.0,2.0,297.8099731262773,4.0,2.0,phase_1,,,,,,,,,,,,,white,hexagon
124.0,2.0,1.0,0.0,4.0,4.0,317.8890419658273,4.0,1.0,phase_1,,,,,,,,,,,,,blue,I
118.0,6.0,1.0,1.0,3.0,3.0,298.1196199543774,4.0,1.0,phase_1,,,,,,,,,,,,,yellow,cross
0.0,7.0,0.0,1.0,4.0,4.0,330.0645519047975,4.0,2.0,phase_1,,,,,,,,,,,,,cyan,circle
0.0,2.0,0.0,0.0,2.0,2.0,326.2049809563905,4.0,1.0,phase_1,,,,,,,,,,,,,blue,I
418.0,8.0,4.0,1.0,1.0,1.0,317.4056229181587,4.0,1.0,phase_1,,,,,,,,,,,,,white,hexagon
50.0,5.0,0.5,1.0,1.0,1.0,322.3688751459121,4.0,1.0,phase_1,,,,,,,,,,,,,orange,square
51.0,1.0,0.5,0.0,2.0,2.0,343.8582241069525,4.0,1.0,phase_1,,,,,,,,,,,,,magenta,flipped triangle
101.0,2.0,1.0,0.0,1.0,1.0,288.8741379138082,4.0,1.0,phase_1,,,,,,,,,,,,,blue,I
86.0,2.0,1.0,0.0,3.0,3.0,293.8565190415829,4.0,1.0,phase_1,,,,,,,,,,,,,blue,I
51.0,5.0,0.5,1.0,4.0,4.0,293.5127587988972,4.0,1.0,phase_1,,,,,,,,,,,,,orange,square
0.0,5.0,0.0,1.0,4.0,4.0,282.3132469784468,4.0,1.0,phase_1,,,,,,,,,,,,,orange,square
189.0,3.0,2.0,0.0,1.0,1.0,261.5306838415563,4.0,1.0,phase_1,,,,,,,,,,,,,green,triangle
200.0,3.0,2.0,0.0,4.0,4.0,265.0220531504601,4.0,1.0,phase_1,,,,,,,,,,,,,green,triangle
403.0,8.0,4.0,1.0,3.0,3.0,285.4489421006292,4.0,1.0,phase_1,,,,,,,,,,,,,white,hexagon
401.0,4.0,4.0,0.0,1.0,1.0,276.8400330096483,4.0,1.0,phase_1,,,,,,,,,,,,,gray,diamond
0.0,2.0,0.0,0.0,4.0,4.0,258.4464529063552,4.0,1.0,phase_1,,,,,,,,,,,,,blue,I
106.0,6.0,1.0,1.0,2.0,2.0,275.4163320641964,4.0,1.0,phase_1,,,,,,,,,,,,,yellow,cross
190.0,3.0,2.0,0.0,3.0,3.0,248.3271020464599,4.0,1.0,phase_1,,,,,,,,,,,,,green,triangle
189.0,7.0,2.0,1.0,1.0,1.0,236.8932871613651,4.0,1.0,phase_1,,,,,,,,,,,,,cyan,circle
218.0,3.0,2.0,0.0,3.0,3.0,308.4910991601646,4.0,1.0,phase_1,,,,,,,,,,,,,green,triangle
176.0,7.0,2.0,1.0,4.0,4.0,247.7225370239466,4.0,1.0,phase_1,,,,,,,,,,,,,cyan,circle
413.0,4.0,4.0,0.0,3.0,3.0,268.9015469513833,4.0,1.0,phase_1,,,,,,,,,,,,,gray,diamond
105.0,2.0,1.0,0.0,2.0,2.0,290.1217429898679,4.0,1.0,phase_1,,,,,,,,,,,,,blue,I
77.0,2.0,1.0,0.0,1.0,1.0,276.6689958516508,4.0,1.0,phase_1,,,,,,,,,,,,,blue,I
83.0,2.0,1.0,0.0,3.0,3.0,290.4873520601541,4.0,1.0,phase_1,,,,,,,,,,,,,blue,I
122.0,2.0,1.0,0.0,1.0,1.0,359.2368238605559,4.0,1.0,phase_1,,,,,,,,,,,,,blue,I
0.0,8.0,0.0,1.0,4.0,4.0,314.4942030776292,4.0,1.0,phase_1,,,,,,,,,,,,,white,hexagon
204.0,7.0,2.0,1.0,2.0,2.0,310.6917850673198,4.0,1.0,phase_1,,,,,,,,,,,,,cyan,circle
0.0,4.0,0.0,0.0,2.0,2.0,306.8968150764704,4.0,1.0,phase_1,,,,,,,,,,,,,gray,diamond
208.0,3.0,2.0,0.0,1.0,1.0,248.0381701607257,4.0,1.0,phase_1,,,,,,,,,,,,,green,triangle
379.0,8.0,4.0,1.0,4.0,4.0,253.3753048628568,4.0,1.0,phase_1,,,,,,,,,,,,,white,hexagon
106.0,6.0,1.0,1.0,4.0,4.0,298.6066560260951,4.0,1.0,phase_1,,,,,,,,,,,,,yellow,cross
0.0,3.0,0.0,0.0,2.0,2.0,272.6672699209302,4.0,1.0,phase_1,,,,,,,,,,,,,green,triangle
401.0,8.0,4.0,1.0,4.0,4.0,285.9147549606859,4.0,1.0,phase_1,,,,,,,,,,,,,white,hexagon
405.0,8.0,4.0,1.0,3.0,3.0,282.1261601056903,4.0,1.0,phase_1,,,,,,,,,,,,,white,hexagon
0.0,2.0,0.0,0.0,1.0,1.0,236.285065067932,4.0,1.0,phase_1,,,,,,,,,,,,,blue,I
31.0,5.0,0.5,1.0,4.0,4.0,245.5587300937622,4.0,1.0,phase_1,,,,,,,,,,,,,orange,square
396.0,8.0,4.0,1.0,2.0,2.0,270.3057781327516,4.0,1.0,phase_1,,,,,,,,,,,,,white,hexagon
91.0,6.0,1.0,1.0,4.0,4.0,281.0335049871355,4.0,2.0,phase_1,,,,,,,,,,,,,yellow,cross
225.0,3.0,2.0,0.0,2.0,2.0,375.1688301563263,4.0,1.0,phase_1,,,,,,,,,,,,,green,triangle
0.0,2.0,0.0,0.0,1.0,1.0,297.5297139491886,4.0,1.0,phase_1,,,,,,,,,,,,,blue,I
81.0,6.0,1.0,1.0,1.0,1.0,342.4890208989382,4.0,3.0,phase_1,,,,,,,,,,,,,yellow,cross
0.0,6.0,1.0,1.0,6.0,0.0,0.0,1.0,1.0,phase_2,stop,250.0,250.0,4.0,,,,,,,,,yellow,cross
0.0,4.0,4.0,0.0,6.0,6.0,680.3565339650959,1.0,1.0,phase_2,go,250.0,300.0,1.0,,,,,,,,,gray,diamond
0.0,4.0,4.0,0.0,6.0,6.0,731.4574660267681,1.0,1.0,phase_2,go,250.0,300.0,1.0,,,,,,,,,gray,diamond
0.0,8.0,4.0,1.0,6.0,0.0,0.0,1.0,1.0,phase_2,stop,250.0,300.0,4.0,,,,,,,,,white,hexagon
0.0,6.0,1.0,1.0,6.0,0.0,0.0,1.0,1.0,phase_2,stop,250.0,350.0,4.0,,,,,,,,,yellow,cross
0.0,1.0,0.5,0.0,6.0,6.0,578.5055598244071,1.0,1.0,phase_2,go,250.0,400.0,1.0,,,,,,,,,magenta,flipped triangle
0.0,3.0,2.0,0.0,6.0,6.0,789.8443478625268,1.0,1.0,phase_2,go,250.0,400.0,1.0,,,,,,,,,green,triangle
0.0,3.0,2.0,0.0,5.0,5.0,471.3231599889695,1.0,1.0,phase_2,go,250.0,400.0,1.0,,,,,,,,,green,triangle
0.0,2.0,1.0,0.0,5.0,5.0,344.9794531334191,1.0,1.0,phase_2,go,250.0,400.0,1.0,,,,,,,,,blue,I
0.0,5.0,0.5,1.0,6.0,6.0,622.6386660709977,1.0,1.0,phase_2,go,250.0,400.0,1.0,,,,,,,,,orange,square
0.0,5.0,0.5,1.0,6.0,0.0,0.0,1.0,1.0,phase_2,stop,250.0,400.0,4.0,,,,,,,,,orange,square
0.0,4.0,4.0,0.0,6.0,6.0,1154.901826987043,1.0,1.0,phase_2,go,250.0,450.0,1.0,,,,,,,,,gray,diamond
0.0,1.0,0.5,0.0,6.0,6.0,484.7513330169022,1.0,1.0,phase_2,go,250.0,450.0,1.0,,,,,,,,,magenta,flipped triangle
0.0,3.0,2.0,0.0,6.0,6.0,484.1973700094968,1.0,1.0,phase_2,go,250.0,450.0,1.0,,,,,,,,,green,triangle
0.0,8.0,4.0,1.0,6.0,6.0,371.2639750447124,1.0,1.0,phase_2,stop,250.0,450.0,3.0,,,,,,,,,white,hexagon
0.0,4.0,4.0,0.0,6.0,6.0,625.8068040478975,1.0,1.0,phase_2,go,250.0,400.0,1.0,,,,,,,,,gray,diamond
0.0,3.0,2.0,0.0,5.0,5.0,594.4519229233265,1.0,1.0,phase_2,go,250.0,400.0,1.0,,,,,,,,,green,triangle
0.0,6.0,1.0,1.0,6.0,0.0,0.0,1.0,1.0,phase_2,stop,250.0,400.0,4.0,,,,,,,,,yellow,cross
0.0,2.0,1.0,0.0,5.0,5.0,319.7972299531102,1.0,1.0,phase_2,go,250.0,450.0,1.0,,,,,,,,,blue,I
0.0,1.0,0.5,0.0,5.0,5.0,673.8854569848627,1.0,1.0,phase_2,go,250.0,450.0,1.0,,,,,,,,,magenta,flipped triangle
0.0,5.0,0.5,1.0,6.0,0.0,0.0,1.0,1.0,phase_2,stop,250.0,450.0,4.0,,,,,,,,,orange,square
0.0,8.0,4.0,1.0,5.0,0.0,0.0,1.0,1.0,phase_2,stop,250.0,500.0,4.0,,,,,,,,,white,hexagon
0.0,2.0,1.0,0.0,6.0,6.0,757.019350072369,1.0,1.0,phase_2,go,300.0,500.0,1.0,,,,,,,,,blue,I
0.0,3.0,2.0,0.0,6.0,6.0,720.1024740934372,1.0,1.0,phase_2,go,300.0,500.0,1.0,,,,,,,,,green,triangle
0.0,5.0,0.5,1.0,6.0,6.0,372.1823201049119,1.0,1.0,phase_2,stop,300.0,500.0,3.0,,,,,,,,,orange,square
0.0,1.0,0.5,0.0,5.0,5.0,748.1627878732979,1.0,1.0,phase_2,go,300.0,450.0,1.0,,,,,,,,,magenta,flipped triangle
0.0,4.0,4.0,0.0,6.0,6.0,828.8975618779659,1.0,1.0,phase_2,go,300.0,450.0,1.0,,,,,,,,,gray,diamond
0.0,3.0,2.0,0.0,5.0,5.0,706.4721728675067,1.0,1.0,phase_2,go,300.0,450.0,1.0,,,,,,,,,green,triangle
0.0,2.0,1.0,0.0,6.0,6.0,745.6924908328801,1.0,1.0,phase_2,go,300.0,450.0,1.0,,,,,,,,,blue,I
0.0,6.0,1.0,1.0,5.0,0.0,0.0,1.0,1.0,phase_2,stop,300.0,450.0,4.0,,,,,,,,,yellow,cross
0.0,8.0,4.0,1.0,5.0,5.0,714.9604570586234,1.0,1.0,phase_2,go,350.0,450.0,1.0,,,,,,,,,white,hexagon
0.0,7.0,2.0,1.0,6.0,0.0,0.0,1.0,1.0,phase_2,stop,350.0,450.0,4.0,,,,,,,,,cyan,circle
0.0,8.0,4.0,1.0,5.0,0.0,0.0,1.0,1.0,phase_2,stop,350.0,500.0,4.0,,,,,,,,,white,hexagon
0.0,4.0,4.0,0.0,5.0,5.0,354.8651470337063,1.0,1.0,phase_2,go,400.0,500.0,1.0,,,,,,,,,gray,diamond
0.0,1.0,0.5,0.0,6.0,6.0,710.8923750929534,1.0,1.0,phase_2,go,400.0,500.0,1.0,,,,,,,,,magenta,flipped triangle
0.0,8.0,4.0,1.0,5.0,5.0,791.9708450790495,1.0,1.0,phase_2,go,400.0,500.0,1.0,,,,,,,,,white,hexagon
0.0,2.0,1.0,0.0,5.0,5.0,490.0327050127089,2.0,1.0,phase_2,go,400.0,500.0,1.0,,,,,,,,,blue,I
0.0,3.0,2.0,0.0,5.0,5.0,521.4193549472839,2.0,1.0,phase_2,go,400.0,500.0,1.0,,,,,,,,,green,triangle
0.0,2.0,1.0,0.0,5.0,5.0,616.7078621219844,2.0,1.0,phase_2,go,400.0,500.0,1.0,,,,,,,,,blue,I
0.0,8.0,4.0,1.0,6.0,0.0,0.0,2.0,1.0,phase_2,stop,400.0,500.0,4.0,,,,,,,,,white,hexagon
0.0,4.0,4.0,0.0,5.0,5.0,730.8646070305258,2.0,1.0,phase_2,go,400.0,550.0,1.0,,,,,,,,,gray,diamond
0.0,6.0,1.0,1.0,6.0,0.0,0.0,2.0,1.0,phase_2,stop,400.0,550.0,4.0,,,,,,,,,yellow,cross
0.0,2.0,1.0,0.0,6.0,6.0,762.1065999846905,2.0,1.0,phase_2,go,400.0,600.0,1.0,,,,,,,,,blue,I
0.0,4.0,4.0,0.0,5.0,5.0,639.4638740457594,2.0,1.0,phase_2,go,400.0,600.0,1.0,,,,,,,,,gray,diamond
0.0,2.0,1.0,0.0,6.0,6.0,774.488260038197,2.0,1.0,phase_2,go,400.0,600.0,1.0,,,,,,,,,blue,I
0.0,6.0,1.0,1.0,5.0,0.0,0.0,2.0,1.0,phase_2,stop,400.0,600.0,4.0,,,,,,,,,yellow,cross
0.0,3.0,2.0,0.0,6.0,6.0,692.4654869362712,2.0,1.0,phase_2,go,450.0,600.0,1.0,,,,,,,,,green,triangle
0.0,1.0,0.5,0.0,6.0,6.0,516.4603481534868,2.0,1.0,phase_2,go,450.0,600.0,1.0,,,,,,,,,magenta,flipped triangle
0.0,5.0,0.5,1.0,6.0,6.0,590.3340838849545,2.0,1.0,phase_2,go,450.0,600.0,1.0,,,,,,,,,orange,square
0.0,6.0,1.0,1.0,5.0,0.0,0.0,2.0,1.0,phase_2,stop,450.0,600.0,4.0,,,,,,,,,yellow,cross
0.0,6.0,1.0,1.0,6.0,6.0,541.2619849666953,2.0,1.0,phase_2,stop,500.0,600.0,3.0,,,,,,,,,yellow,cross
0.0,6.0,1.0,1.0,6.0,0.0,0.0,2.0,1.0,phase_2,stop,500.0,550.0,4.0,,,,,,,,,yellow,cross
0.0,1.0,0.5,0.0,6.0,6.0,876.116881147027,2.0,1.0,phase_2,go,500.0,600.0,1.0,,,,,,,,,magenta,flipped triangle
0.0,8.0,4.0,1.0,5.0,0.0,0.0,2.0,1.0,phase_2,stop,500.0,600.0,4.0,,,,,,,,,white,hexagon
0.0,1.0,0.5,0.0,5.0,5.0,664.871531073004,2.0,1.0,phase_2,go,550.0,600.0,1.0,,,,,,,,,magenta,flipped triangle
0.0,8.0,4.0,1.0,5.0,5.0,615.373243112117,2.0,1.0,phase_2,stop,550.0,600.0,3.0,,,,,,,,,white,hexagon
0.0,3.0,2.0,0.0,6.0,6.0,1017.635164083913,2.0,1.0,phase_2,go,500.0,600.0,1.0,,,,,,,,,green,triangle
0.0,4.0,4.0,0.0,6.0,6.0,849.1062251850963,2.0,1.0,phase_2,go,500.0,600.0,1.0,,,,,,,,,gray,diamond
0.0,7.0,2.0,1.0,5.0,0.0,0.0,2.0,1.0,phase_2,stop,500.0,600.0,4.0,,,,,,,,,cyan,circle
0.0,4.0,4.0,0.0,5.0,5.0,711.1287279985845,2.0,1.0,phase_2,go,550.0,600.0,1.0,,,,,,,,,gray,diamond
0.0,1.0,0.5,0.0,6.0,6.0,553.0433210078627,2.0,1.0,phase_2,go,550.0,600.0,1.0,,,,,,,,,magenta,flipped triangle
0.0,6.0,1.0,1.0,6.0,6.0,772.7933458518237,2.0,1.0,phase_2,go,550.0,600.0,1.0,,,,,,,,,yellow,cross
0.0,5.0,0.5,1.0,6.0,0.0,0.0,2.0,1.0,phase_2,stop,550.0,600.0,4.0,,,,,,,,,orange,square
0.0,3.0,2.0,0.0,5.0,5.0,586.9865750428289,2.0,1.0,phase_2,go,550.0,650.0,1.0,,,,,,,,,green,triangle
0.0,8.0,4.0,1.0,5.0,5.0,811.1396688036621,2.0,1.0,phase_2,go,550.0,650.0,1.0,,,,,,,,,white,hexagon
0.0,5.0,0.5,1.0,5.0,5.0,668.9572890754789,2.0,1.0,phase_2,stop,550.0,650.0,3.0,,,,,,,,,orange,square
0.0,8.0,4.0,1.0,6.0,6.0,725.6037180777639,2.0,1.0,phase_2,stop,500.0,650.0,3.0,,,,,,,,,white,hexagon
0.0,6.0,1.0,1.0,5.0,0.0,0.0,2.0,1.0,phase_2,stop,500.0,600.0,4.0,,,,,,,,,yellow,cross
0.0,2.0,1.0,0.0,5.0,5.0,801.3714379630983,2.0,1.0,phase_2,go,550.0,600.0,1.0,,,,,,,,,blue,I
0.0,6.0,1.0,1.0,6.0,0.0,0.0,2.0,1.0,phase_2,stop,550.0,600.0,4.0,,,,,,,,,yellow,cross
0.0,1.0,0.5,0.0,6.0,6.0,792.8055620286614,2.0,1.0,phase_2,go,550.0,650.0,1.0,,,,,,,,,magenta,flipped triangle
0.0,5.0,0.5,1.0,5.0,0.0,0.0,2.0,1.0,phase_2,stop,550.0,650.0,4.0,,,,,,,,,orange,square
0.0,8.0,4.0,1.0,6.0,0.0,0.0,3.0,1.0,phase_2,stop,600.0,650.0,4.0,,,,,,,,,white,hexagon
0.0,5.0,0.5,1.0,5.0,5.0,573.5064400359988,3.0,1.0,phase_2,stop,600.0,700.0,3.0,,,,,,,,,orange,square
0.0,3.0,2.0,0.0,5.0,5.0,753.0105789192021,3.0,1.0,phase_2,go,550.0,700.0,1.0,,,,,,,,,green,triangle
0.0,7.0,2.0,1.0,5.0,5.0,832.3933240026236,3.0,1.0,phase_2,go,550.0,700.0,1.0,,,,,,,,,cyan,circle
0.0,7.0,2.0,1.0,6.0,6.0,663.9993898570538,3.0,1.0,phase_2,stop,550.0,700.0,3.0,,,,,,,,,cyan,circle
0.0,3.0,2.0,0.0,6.0,6.0,751.0811318643391,3.0,1.0,phase_2,go,550.0,650.0,1.0,,,,,,,,,green,triangle
0.0,6.0,1.0,1.0,6.0,0.0,0.0,3.0,1.0,phase_2,stop,550.0,650.0,4.0,,,,,,,,,yellow,cross
0.0,2.0,1.0,0.0,5.0,5.0,944.2364270798862,3.0,1.0,phase_2,go,550.0,700.0,1.0,,,,,,,,,blue,I
0.0,4.0,4.0,0.0,5.0,5.0,862.5171910971403,3.0,1.0,phase_2,go,550.0,700.0,1.0,,,,,,,,,gray,diamond
0.0,6.0,1.0,1.0,6.0,6.0,696.2709270883352,3.0,1.0,phase_2,stop,550.0,700.0,3.0,,,,,,,,,yellow,cross
0.0,1.0,0.5,0.0,5.0,5.0,1103.7919439841062,3.0,1.0,phase_2,go,550.0,650.0,1.0,,,,,,,,,magenta,flipped triangle
0.0,4.0,4.0,0.0,5.0,5.0,733.0651199445128,3.0,1.0,phase_2,go,550.0,650.0,1.0,,,,,,,,,gray,diamond
0.0,7.0,2.0,1.0,5.0,5.0,1212.873443029821,3.0,1.0,phase_2,go,550.0,650.0,1.0,,,,,,,,,cyan,circle
0.0,2.0,1.0,0.0,5.0,5.0,747.6906441152096,3.0,1.0,phase_2,go,550.0,650.0,1.0,,,,,,,,,blue,I
0.0,7.0,2.0,1.0,6.0,0.0,0.0,3.0,1.0,phase_2,stop,550.0,650.0,4.0,,,,,,,,,cyan,circle
0.0,1.0,0.5,0.0,6.0,6.0,1026.6405190341177,3.0,1.0,phase_2,go,550.0,700.0,1.0,,,,,,,,,magenta,flipped triangle
0.0,8.0,4.0,1.0,5.0,0.0,0.0,3.0,1.0,phase_2,stop,550.0,700.0,4.0,,,,,,,,,white,hexagon
0.0,6.0,1.0,1.0,6.0,0.0,0.0,3.0,1.0,phase_2,stop,600.0,700.0,4.0,,,,,,,,,yellow,cross
0.0,1.0,0.5,0.0,6.0,6.0,707.3192209936678,3.0,1.0,phase_2,go,600.0,750.0,1.0,,,,,,,,,magenta,flipped triangle
0.0,1.0,0.5,0.0,6.0,6.0,913.2710909470916,3.0,1.0,phase_2,go,600.0,750.0,1.0,,,,,,,,,magenta,flipped triangle
0.0,3.0,2.0,0.0,6.0,6.0,1019.3095621652899,3.0,1.0,phase_2,go,600.0,750.0,1.0,,,,,,,,,green,triangle
0.0,3.0,2.0,0.0,5.0,5.0,904.5747749041766,3.0,1.0,phase_2,go,600.0,750.0,1.0,,,,,,,,,green,triangle
0.0,5.0,0.5,1.0,5.0,5.0,1118.7190748751163,3.0,1.0,phase_2,go,600.0,750.0,1.0,,,,,,,,,orange,square
0.0,8.0,4.0,1.0,6.0,0.0,0.0,3.0,1.0,phase_2,stop,600.0,750.0,4.0,,,,,,,,,white,hexagon
0.0,7.0,2.0,1.0,6.0,0.0,0.0,3.0,1.0,phase_2,stop,600.0,800.0,4.0,,,,,,,,,cyan,circle
0.0,6.0,1.0,1.0,5.0,5.0,719.3533349782228,3.0,1.0,phase_2,stop,600.0,850.0,3.0,,,,,,,,,yellow,cross
0.0,3.0,2.0,0.0,5.0,5.0,915.9582280553876,3.0,1.0,phase_2,go,550.0,850.0,1.0,,,,,,,,,green,triangle
0.0,4.0,4.0,0.0,5.0,5.0,1148.1055370531976,3.0,1.0,phase_2,go,550.0,850.0,1.0,,,,,,,,,gray,diamond
0.0,5.0,0.5,1.0,6.0,6.0,698.7271008547395,3.0,1.0,phase_2,go,550.0,850.0,1.0,,,,,,,,,orange,square
0.0,2.0,1.0,0.0,5.0,5.0,722.3735458683223,3.0,1.0,phase_2,go,550.0,850.0,1.0,,,,,,,,,blue,I
0.0,1.0,0.5,0.0,6.0,6.0,570.7043570000678,3.0,1.0,phase_2,go,550.0,850.0,1.0,,,,,,,,,magenta,flipped triangle
0.0,6.0,1.0,1.0,5.0,5.0,577.0923148375005,3.0,1.0,phase_2,stop,550.0,850.0,3.0,,,,,,,,,yellow,cross
0.0,4.0,4.0,0.0,6.0,6.0,1272.518333978951,3.0,1.0,phase_2,go,500.0,850.0,1.0,,,,,,,,,gray,diamond
0.0,5.0,0.5,1.0,5.0,0.0,0.0,3.0,1.0,phase_2,stop,500.0,850.0,4.0,,,,,,,,,orange,square
0.0,1.0,0.5,0.0,5.0,5.0,1153.2608920242635,3.0,1.0,phase_2,go,550.0,850.0,1.0,,,,,,,,,magenta,flipped triangle
0.0,6.0,1.0,1.0,6.0,6.0,1135.920895030722,3.0,1.0,phase_2,go,550.0,850.0,1.0,,,,,,,,,yellow,cross
0.0,7.0,2.0,1.0,6.0,6.0,760.0781440269202,4.0,1.0,phase_2,stop,550.0,850.0,3.0,,,,,,,,,cyan,circle
0.0,7.0,2.0,1.0,5.0,0.0,0.0,4.0,1.0,phase_2,stop,550.0,800.0,4.0,,,,,,,,,cyan,circle
0.0,1.0,0.5,0.0,6.0,6.0,597.9741199407727,4.0,1.0,phase_2,go,600.0,800.0,1.0,,,,,,,,,magenta,flipped triangle
0.0,4.0,4.0,0.0,6.0,6.0,965.8397869206964,4.0,1.0,phase_2,go,600.0,800.0,1.0,,,,,,,,,gray,diamond
0.0,8.0,4.0,1.0,5.0,0.0,0.0,4.0,1.0,phase_2,stop,600.0,800.0,4.0,,,,,,,,,white,hexagon
0.0,4.0,4.0,0.0,5.0,5.0,1010.7070880476383,4.0,1.0,phase_2,go,650.0,800.0,1.0,,,,,,,,,gray,diamond
0.0,8.0,4.0,1.0,6.0,6.0,1044.9794998858124,4.0,1.0,phase_2,go,650.0,800.0,1.0,,,,,,,,,white,hexagon
0.0,1.0,0.5,0.0,5.0,5.0,995.1523670461028,4.0,1.0,phase_2,go,650.0,800.0,1.0,,,,,,,,,magenta,flipped triangle
0.0,5.0,0.5,1.0,6.0,6.0,1123.4624951612204,4.0,1.0,phase_2,go,650.0,800.0,1.0,,,,,,,,,orange,square
0.0,6.0,1.0,1.0,6.0,6.0,1082.593620987609,4.0,1.0,phase_2,go,650.0,800.0,1.0,,,,,,,,,yellow,cross
0.0,8.0,4.0,1.0,5.0,5.0,1041.7166110128164,4.0,1.0,phase_2,go,650.0,800.0,1.0,,,,,,,,,white,hexagon
0.0,8.0,4.0,1.0,5.0,5.0,345.8706070668995,4.0,1.0,phase_2,go,650.0,800.0,1.0,,,,,,,,,white,hexagon
0.0,2.0,1.0,0.0,6.0,6.0,919.4534241687506,4.0,1.0,phase_2,go,650.0,800.0,1.0,,,,,,,,,blue,I
0.0,1.0,0.5,0.0,6.0,6.0,855.9241341426969,4.0,1.0,phase_2,go,650.0,800.0,1.0,,,,,,,,,magenta,flipped triangle
0.0,8.0,4.0,1.0,6.0,6.0,717.0958360657096,4.0,1.0,phase_2,stop,650.0,800.0,3.0,,,,,,,,,white,hexagon
0.0,2.0,1.0,0.0,5.0,5.0,959.8700820934029,4.0,1.0,phase_2,go,650.0,750.0,1.0,,,,,,,,,blue,I
0.0,8.0,4.0,1.0,6.0,6.0,996.2961000856012,4.0,1.0,phase_2,go,650.0,750.0,1.0,,,,,,,,,white,hexagon
0.0,2.0,1.0,0.0,6.0,6.0,1007.1649551391602,4.0,1.0,phase_2,go,650.0,750.0,1.0,,,,,,,,,blue,I
0.0,7.0,2.0,1.0,5.0,5.0,781.8503498565406,4.0,1.0,phase_2,stop,650.0,750.0,3.0,,,,,,,,,cyan,circle
0.0,2.0,1.0,0.0,6.0,6.0,997.746319975704,4.0,1.0,phase_2,go,600.0,750.0,1.0,,,,,,,,,blue,I
0.0,5.0,0.5,1.0,6.0,6.0,900.9121630806476,4.0,1.0,phase_2,stop,600.0,750.0,3.0,,,,,,,,,orange,square
0.0,4.0,4.0,0.0,5.0,5.0,1388.875561999157,4.0,1.0,phase_2,go,600.0,700.0,1.0,,,,,,,,,gray,diamond
0.0,7.0,2.0,1.0,5.0,0.0,0.0,4.0,1.0,phase_2,stop,600.0,700.0,4.0,,,,,,,,,cyan,circle
0.0,4.0,4.0,0.0,5.0,5.0,1179.5010180212555,4.0,1.0,phase_2,go,650.0,700.0,1.0,,,,,,,,,gray,diamond
0.0,6.0,1.0,1.0,5.0,0.0,0.0,4.0,1.0,phase_2,stop,650.0,700.0,4.0,,,,,,,,,yellow,cross
0.0,1.0,0.5,0.0,6.0,6.0,1023.3578660991045,4.0,1.0,phase_2,go,700.0,700.0,1.0,,,,,,,,,magenta,flipped triangle
0.0,1.0,0.5,0.0,5.0,5.0,879.2867839802057,4.0,1.0,phase_2,go,700.0,700.0,1.0,,,,,,,,,magenta,flipped triangle
0.0,3.0,2.0,0.0,6.0,6.0,616.4307959843427,4.0,1.0,phase_2,go,700.0,700.0,1.0,,,,,,,,,green,triangle
0.0,5.0,0.5,1.0,6.0,6.0,640.8683210611343,4.0,1.0,phase_2,stop,700.0,700.0,3.0,,,,,,,,,orange,square
0.0,2.0,1.0,0.0,5.0,5.0,952.7589150238782,4.0,1.0,phase_2,go,700.0,650.0,1.0,,,,,,,,,blue,I
0.0,4.0,4.0,0.0,6.0,6.0,1062.6678818371147,4.0,1.0,phase_2,go,700.0,650.0,1.0,,,,,,,,,gray,diamond
0.0,7.0,2.0,1.0,6.0,6.0,1027.6921389158815,4.0,1.0,phase_2,go,700.0,650.0,1.0,,,,,,,,,cyan,circle
0.0,8.0,4.0,1.0,6.0,6.0,1174.9041380826384,4.0,1.0,phase_2,go,700.0,650.0,1.0,,,,,,,,,white,hexagon
0.0,3.0,2.0,0.0,5.0,5.0,1180.7031950447708,4.0,1.0,phase_2,go,700.0,650.0,1.0,,,,,,,,,green,triangle
0.0,7.0,2.0,1.0,6.0,0.0,0.0,4.0,1.0,phase_2,stop,700.0,650.0,4.0,,,,,,,,,cyan,circle
0.0,6.0,1.0,1.0,6.0,6.0,810.0428578909487,4.0,1.0,phase_2,go,700.0,700.0,1.0,,,,,,,,,yellow,cross
0.0,6.0,1.0,1.0,6.0,6.0,641.1858589854091,5.0,1.0,phase_2,stop,700.0,700.0,3.0,,,,,,,,,yellow,cross
0.0,7.0,2.0,1.0,5.0,0.0,0.0,5.0,1.0,phase_2,stop,700.0,650.0,4.0,,,,,,,,,cyan,circle
0.0,4.0,4.0,0.0,6.0,6.0,1008.4779581520706,5.0,1.0,phase_2,go,750.0,650.0,1.0,,,,,,,,,gray,diamond
0.0,3.0,2.0,0.0,6.0,6.0,999.533160123974,5.0,1.0,phase_2,go,750.0,650.0,1.0,,,,,,,,,green,triangle
0.0,2.0,1.0,0.0,6.0,6.0,880.8818547986448,5.0,1.0,phase_2,go,750.0,650.0,1.0,,,,,,,,,blue,I
0.0,8.0,4.0,1.0,6.0,6.0,735.4088639840484,5.0,1.0,phase_2,stop,750.0,650.0,3.0,,,,,,,,,white,hexagon
0.0,1.0,0.5,0.0,5.0,5.0,1125.7601669058204,5.0,1.0,phase_2,go,750.0,600.0,1.0,,,,,,,,,magenta,flipped triangle
0.0,6.0,1.0,1.0,5.0,0.0,0.0,5.0,1.0,phase_2,stop,750.0,600.0,4.0,,,,,,,,,yellow,cross
0.0,8.0,4.0,1.0,6.0,0.0,0.0,5.0,1.0,phase_2,stop,800.0,600.0,4.0,,,,,,,,,white,hexagon
0.0,3.0,2.0,0.0,5.0,5.0,677.016916917637,5.0,1.0,phase_2,go,800.0,650.0,1.0,,,,,,,,,green,triangle
0.0,7.0,2.0,1.0,5.0,0.0,0.0,5.0,1.0,phase_2,stop,800.0,650.0,4.0,,,,,,,,,cyan,circle
0.0,4.0,4.0,0.0,6.0,6.0,825.1002030447125,5.0,1.0,phase_2,go,850.0,650.0,1.0,,,,,,,,,gray,diamond
0.0,5.0,0.5,1.0,5.0,0.0,0.0,5.0,1.0,phase_2,stop,850.0,650.0,4.0,,,,,,,,,orange,square
0.0,3.0,2.0,0.0,5.0,5.0,771.3700891472399,5.0,1.0,phase_2,go,900.0,650.0,1.0,,,,,,,,,green,triangle
0.0,3.0,2.0,0.0,5.0,5.0,921.0130339488388,5.0,1.0,phase_2,go,900.0,650.0,1.0,,,,,,,,,green,triangle
0.0,8.0,4.0,1.0,6.0,0.0,0.0,5.0,1.0,phase_2,stop,900.0,650.0,4.0,,,,,,,,,white,hexagon
0.0,3.0,2.0,0.0,6.0,6.0,904.3275190051644,5.0,1.0,phase_2,go,900.0,700.0,1.0,,,,,,,,,green,triangle
0.0,8.0,4.0,1.0,5.0,5.0,975.9648870676756,5.0,1.0,phase_2,stop,900.0,700.0,3.0,,,,,,,,,white,hexagon
0.0,5.0,0.5,1.0,5.0,5.0,1070.9721150342375,5.0,1.0,phase_2,go,850.0,700.0,1.0,,,,,,,,,orange,square
0.0,4.0,4.0,0.0,6.0,6.0,941.4848531596364,5.0,1.0,phase_2,go,850.0,700.0,1.0,,,,,,,,,gray,diamond
0.0,8.0,4.0,1.0,5.0,0.0,0.0,5.0,1.0,phase_2,stop,850.0,700.0,4.0,,,,,,,,,white,hexagon
0.0,5.0,0.5,1.0,5.0,5.0,931.6070810891688,5.0,1.0,phase_2,stop,900.0,700.0,3.0,,,,,,,,,orange,square
0.0,2.0,1.0,0.0,6.0,6.0,1003.4651409368962,5.0,1.0,phase_2,go,850.0,700.0,1.0,,,,,,,,,blue,I
0.0,7.0,2.0,1.0,5.0,0.0,0.0,5.0,1.0,phase_2,stop,850.0,700.0,4.0,,,,,,,,,cyan,circle
0.0,1.0,0.5,0.0,5.0,5.0,465.3765561524778,5.0,1.0,phase_2,go,900.0,700.0,1.0,,,,,,,,,magenta,flipped triangle
0.0,4.0,4.0,0.0,5.0,5.0,769.3604710511863,5.0,1.0,phase_2,go,900.0,700.0,1.0,,,,,,,,,gray,diamond
0.0,2.0,1.0,0.0,6.0,6.0,612.5409009400755,5.0,1.0,phase_2,go,900.0,700.0,1.0,,,,,,,,,blue,I
0.0,1.0,0.5,0.0,6.0,6.0,529.6179461292922,5.0,1.0,phase_2,go,900.0,700.0,1.0,,,,,,,,,magenta,flipped triangle
0.0,6.0,1.0,1.0,5.0,5.0,810.5155429802835,5.0,1.0,phase_2,go,900.0,700.0,1.0,,,,,,,,,yellow,cross
0.0,7.0,2.0,1.0,6.0,0.0,0.0,5.0,1.0,phase_2,stop,900.0,700.0,4.0,,,,,,,,,cyan,circle
0.0,7.0,2.0,1.0,6.0,0.0,0.0,5.0,1.0,phase_2,stop,900.0,750.0,4.0,,,,,,,,,cyan,circle
0.0,5.0,0.5,1.0,5.0,5.0,877.8339319396764,5.0,1.0,phase_2,go,900.0,800.0,1.0,,,,,,,,,orange,square
0.0,5.0,0.5,1.0,5.0,5.0,678.0431838706136,5.0,1.0,phase_2,stop,900.0,800.0,3.0,,,,,,,,,orange,square
0.0,5.0,0.5,1.0,6.0,0.0,0.0,5.0,1.0,phase_2,stop,850.0,800.0,4.0,,,,,,,,,orange,square
0.0,1.0,0.5,0.0,5.0,5.0,390.7100369688123,5.0,1.0,phase_2,go,850.0,850.0,1.0,,,,,,,,,magenta,flipped triangle
0.0,3.0,2.0,0.0,6.0,6.0,492.3995200078934,5.0,1.0,phase_2,go,850.0,850.0,1.0,,,,,,,,,green,triangle
0.0,2.0,1.0,0.0,5.0,1.0,930.438545998186,6.0,1.0,phase_2,go,850.0,850.0,2.0,,,,,,,,,blue,I
0.0,7.0,2.0,1.0,6.0,6.0,838.6450801044703,6.0,1.0,phase_2,stop,850.0,850.0,3.0,,,,,,,,,cyan,circle
0.0,7.0,2.0,1.0,5.0,0.0,0.0,6.0,1.0,phase_2,stop,850.0,800.0,4.0,,,,,,,,,cyan,circle
0.0,4.0,4.0,0.0,5.0,5.0,718.3476439677179,6.0,1.0,phase_2,go,900.0,800.0,1.0,,,,,,,,,gray,diamond
0.0,8.0,4.0,1.0,6.0,6.0,790.0758278556168,6.0,1.0,phase_2,stop,900.0,800.0,3.0,,,,,,,,,white,hexagon
0.0,6.0,1.0,1.0,5.0,5.0,1205.3976750466973,6.0,1.0,phase_2,go,900.0,750.0,1.0,,,,,,,,,yellow,cross
0.0,4.0,4.0,0.0,6.0,6.0,624.271655920893,6.0,1.0,phase_2,go,900.0,750.0,1.0,,,,,,,,,gray,diamond
0.0,2.0,1.0,0.0,5.0,5.0,581.5781920682639,6.0,1.0,phase_2,go,900.0,750.0,1.0,,,,,,,,,blue,I
0.0,2.0,1.0,0.0,5.0,5.0,492.1958290506154,6.0,1.0,phase_2,go,900.0,750.0,1.0,,,,,,,,,blue,I
0.0,3.0,2.0,0.0,5.0,5.0,418.9639999531209,6.0,1.0,phase_2,go,900.0,750.0,1.0,,,,,,,,,green,triangle
0.0,5.0,0.5,1.0,5.0,5.0,389.8843680508435,6.0,1.0,phase_2,stop,900.0,750.0,3.0,,,,,,,,,orange,square
0.0,3.0,2.0,0.0,6.0,6.0,505.84551482461393,6.0,1.0,phase_2,go,850.0,750.0,1.0,,,,,,,,,green,triangle
0.0,7.0,2.0,1.0,5.0,0.0,0.0,6.0,1.0,phase_2,stop,850.0,750.0,4.0,,,,,,,,,cyan,circle
0.0,3.0,2.0,0.0,5.0,5.0,663.9021071605384,6.0,1.0,phase_2,go,900.0,750.0,1.0,,,,,,,,,green,triangle
0.0,7.0,2.0,1.0,6.0,6.0,1383.804142009467,6.0,1.0,phase_2,go,900.0,750.0,1.0,,,,,,,,,cyan,circle
0.0,5.0,0.5,1.0,5.0,0.0,0.0,6.0,1.0,phase_2,stop,900.0,750.0,4.0,,,,,,,,,orange,square
0.0,5.0,0.5,1.0,5.0,0.0,0.0,6.0,1.0,phase_2,stop,950.0,750.0,4.0,,,,,,,,,orange,square
0.0,7.0,2.0,1.0,5.0,5.0,1262.0815890841186,6.0,1.0,phase_2,go,1000.0,750.0,1.0,,,,,,,,,cyan,circle
0.0,4.0,4.0,0.0,5.0,5.0,565.9500889014453,6.0,1.0,phase_2,go,1000.0,750.0,1.0,,,,,,,,,gray,diamond
0.0,6.0,1.0,1.0,6.0,6.0,766.2188198883086,6.0,1.0,phase_2,go,1000.0,750.0,1.0,,,,,,,,,yellow,cross
0.0,2.0,1.0,0.0,5.0,5.0,588.2349458988756,6.0,1.0,phase_2,go,1000.0,750.0,1.0,,,,,,,,,blue,I
0.0,5.0,0.5,1.0,6.0,0.0,0.0,6.0,1.0,phase_2,stop,1000.0,750.0,4.0,,,,,,,,,orange,square
0.0,5.0,0.5,1.0,6.0,0.0,0.0,6.0,1.0,phase_2,stop,1000.0,800.0,4.0,,,,,,,,,orange,square
0.0,7.0,2.0,1.0,6.0,0.0,0.0,6.0,1.0,phase_2,stop,1000.0,850.0,4.0,,,,,,,,,cyan,circle
0.0,4.0,4.0,0.0,5.0,5.0,458.9496699627489,6.0,1.0,phase_2,go,1000.0,900.0,1.0,,,,,,,,,gray,diamond
0.0,7.0,2.0,1.0,6.0,6.0,1002.4326569400728,6.0,1.0,phase_2,stop,1000.0,900.0,3.0,,,,,,,,,cyan,circle
0.0,1.0,0.5,0.0,6.0,6.0,555.1193209830672,6.0,1.0,phase_2,go,1000.0,850.0,1.0,,,,,,,,,magenta,flipped triangle
0.0,1.0,0.5,0.0,5.0,5.0,476.0845061391592,6.0,1.0,phase_2,go,1000.0,850.0,1.0,,,,,,,,,magenta,flipped triangle
0.0,8.0,4.0,1.0,6.0,0.0,0.0,6.0,1.0,phase_2,stop,1000.0,850.0,4.0,,,,,,,,,white,hexagon
0.0,7.0,2.0,1.0,5.0,0.0,0.0,6.0,1.0,phase_2,stop,1000.0,900.0,4.0,,,,,,,,,cyan,circle
0.0,3.0,2.0,0.0,5.0,5.0,674.2028570733964,6.0,1.0,phase_2,go,1050.0,900.0,1.0,,,,,,,,,green,triangle
0.0,5.0,0.5,1.0,5.0,0.0,0.0,6.0,1.0,phase_2,stop,1050.0,900.0,4.0,,,,,,,,,orange,square
0.0,4.0,4.0,0.0,6.0,6.0,681.9321571383625,6.0,1.0,phase_2,go,1100.0,900.0,1.0,,,,,,,,,gray,diamond
0.0,6.0,1.0,1.0,5.0,5.0,720.7232529763132,6.0,1.0,phase_2,stop,1100.0,900.0,3.0,,,,,,,,,yellow,cross
0.0,3.0,2.0,0.0,6.0,6.0,599.0892930421978,6.0,1.0,phase_2,go,1050.0,900.0,1.0,,,,,,,,,green,triangle
0.0,4.0,4.0,0.0,6.0,6.0,647.7441999595612,6.0,1.0,phase_2,go,1050.0,900.0,1.0,,,,,,,,,gray,diamond
0.0,4.0,4.0,0.0,5.0,5.0,535.6819008011371,7.0,1.0,phase_2,go,1050.0,900.0,1.0,,,,,,,,,gray,diamond
0.0,2.0,1.0,0.0,5.0,5.0,494.6201730053872,7.0,1.0,phase_2,go,1050.0,900.0,1.0,,,,,,,,,blue,I
0.0,3.0,2.0,0.0,6.0,6.0,562.1582409366965,7.0,1.0,phase_2,go,1050.0,900.0,1.0,,,,,,,,,green,triangle
0.0,2.0,1.0,0.0,5.0,5.0,503.4572030417621,7.0,1.0,phase_2,go,1050.0,900.0,1.0,,,,,,,,,blue,I
0.0,5.0,0.5,1.0,6.0,0.0,0.0,7.0,1.0,phase_2,stop,1050.0,900.0,4.0,,,,,,,,,orange,square
0.0,4.0,4.0,0.0,5.0,5.0,480.3786410484463,7.0,1.0,phase_2,go,1050.0,950.0,1.0,,,,,,,,,gray,diamond
0.0,2.0,1.0,0.0,6.0,6.0,507.3731201700866,7.0,1.0,phase_2,go,1050.0,950.0,1.0,,,,,,,,,blue,I
0.0,2.0,1.0,0.0,6.0,6.0,446.9103249721229,7.0,1.0,phase_2,go,1050.0,950.0,1.0,,,,,,,,,blue,I
0.0,3.0,2.0,0.0,6.0,6.0,570.7047281321138,7.0,1.0,phase_2,go,1050.0,950.0,1.0,,,,,,,,,green,triangle
0.0,8.0,4.0,1.0,5.0,0.0,0.0,7.0,1.0,phase_2,stop,1050.0,950.0,4.0,,,,,,,,,white,hexagon
0.0,5.0,0.5,1.0,6.0,0.0,0.0,7.0,1.0,phase_2,stop,1100.0,950.0,4.0,,,,,,,,,orange,square
0.0,2.0,1.0,0.0,6.0,6.0,395.871601998806,7.0,1.0,phase_2,go,1100.0,1000.0,1.0,,,,,,,,,blue,I
0.0,8.0,4.0,1.0,6.0,0.0,0.0,7.0,1.0,phase_2,stop,1100.0,1000.0,4.0,,,,,,,,,white,hexagon
0.0,4.0,4.0,0.0,5.0,5.0,538.6498859152198,7.0,1.0,phase_2,go,1100.0,1050.0,1.0,,,,,,,,,gray,diamond
0.0,8.0,4.0,1.0,5.0,5.0,1360.9391320496798,7.0,1.0,phase_2,go,1100.0,1050.0,1.0,,,,,,,,,white,hexagon
0.0,2.0,1.0,0.0,6.0,6.0,527.2712169680744,7.0,1.0,phase_2,go,1100.0,1050.0,1.0,,,,,,,,,blue,I
0.0,5.0,0.5,1.0,5.0,0.0,0.0,7.0,1.0,phase_2,stop,1100.0,1050.0,4.0,,,,,,,,,orange,square
0.0,2.0,1.0,0.0,5.0,5.0,480.4173768498003,7.0,1.0,phase_2,go,1150.0,1050.0,1.0,,,,,,,,,blue,I
0.0,6.0,1.0,1.0,6.0,6.0,1076.5357639174908,7.0,1.0,phase_2,stop,1150.0,1050.0,3.0,,,,,,,,,yellow,cross
0.0,6.0,1.0,1.0,5.0,5.0,1444.7019279468805,7.0,1.0,phase_2,go,1150.0,1000.0,1.0,,,,,,,,,yellow,cross
0.0,7.0,2.0,1.0,6.0,0.0,0.0,7.0,1.0,phase_2,stop,1150.0,1000.0,4.0,,,,,,,,,cyan,circle
0.0,6.0,1.0,1.0,5.0,5.0,604.3051960878074,7.0,1.0,phase_2,stop,1150.0,1050.0,3.0,,,,,,,,,yellow,cross
0.0,1.0,0.5,0.0,5.0,5.0,589.1021320130676,7.0,1.0,phase_2,go,1100.0,1050.0,1.0,,,,,,,,,magenta,flipped triangle
0.0,7.0,2.0,1.0,5.0,0.0,0.0,7.0,1.0,phase_2,stop,1100.0,1050.0,4.0,,,,,,,,,cyan,circle
0.0,6.0,1.0,1.0,5.0,0.0,0.0,7.0,1.0,phase_2,stop,1150.0,1050.0,4.0,,,,,,,,,yellow,cross
0.0,4.0,4.0,0.0,6.0,6.0,659.7549829166383,7.0,1.0,phase_2,go,1200.0,1050.0,1.0,,,,,,,,,gray,diamond
0.0,7.0,2.0,1.0,6.0,6.0,1410.6716848909857,7.0,1.0,phase_2,go,1200.0,1050.0,1.0,,,,,,,,,cyan,circle
0.0,5.0,0.5,1.0,6.0,0.0,0.0,7.0,1.0,phase_2,stop,1200.0,1050.0,4.0,,,,,,,,,orange,square
0.0,6.0,1.0,1.0,6.0,0.0,0.0,7.0,1.0,phase_2,stop,1200.0,1100.0,4.0,,,,,,,,,yellow,cross
0.0,7.0,2.0,1.0,6.0,6.0,1090.9817609936,7.0,1.0,phase_2,go,1200.0,1150.0,1.0,,,,,,,,,cyan,circle
0.0,8.0,4.0,1.0,5.0,0.0,0.0,7.0,1.0,phase_2,stop,1200.0,1150.0,4.0,,,,,,,,,white,hexagon
0.0,7.0,2.0,1.0,5.0,5.0,1118.109998991713,7.0,1.0,phase_2,stop,1250.0,1150.0,3.0,,,,,,,,,cyan,circle
0.0,2.0,1.0,0.0,6.0,6.0,648.1356229633093,7.0,1.0,phase_2,go,1200.0,1150.0,1.0,,,,,,,,,blue,I
0.0,2.0,1.0,0.0,5.0,5.0,421.465259976685,7.0,1.0,phase_2,go,1200.0,1150.0,1.0,,,,,,,,,blue,I
0.0,2.0,1.0,0.0,6.0,6.0,376.7604471649974,7.0,1.0,phase_2,go,1200.0,1150.0,1.0,,,,,,,,,blue,I
0.0,1.0,0.5,0.0,6.0,6.0,390.6457691919058,7.0,1.0,phase_2,go,1200.0,1150.0,1.0,,,,,,,,,magenta,flipped triangle
0.0,6.0,1.0,1.0,5.0,0.0,0.0,8.0,1.0,phase_2,stop,1200.0,1150.0,4.0,,,,,,,,,yellow,cross
0.0,3.0,2.0,0.0,6.0,6.0,1219.223580090329,8.0,1.0,phase_2,go,1250.0,1150.0,1.0,,,,,,,,,green,triangle
0.0,1.0,0.5,0.0,5.0,5.0,621.801113942638,8.0,1.0,phase_2,go,1250.0,1150.0,1.0,,,,,,,,,magenta,flipped triangle
0.0,4.0,4.0,0.0,5.0,5.0,602.5545671582222,8.0,1.0,phase_2,go,1250.0,1150.0,1.0,,,,,,,,,gray,diamond
0.0,5.0,0.5,1.0,5.0,0.0,0.0,8.0,1.0,phase_2,stop,1250.0,1150.0,4.0,,,,,,,,,orange,square
0.0,8.0,4.0,1.0,5.0,0.0,0.0,8.0,1.0,phase_2,stop,1300.0,1150.0,4.0,,,,,,,,,white,hexagon
0.0,5.0,0.5,1.0,6.0,6.0,1496.252183103934,8.0,1.0,phase_2,go,1350.0,1150.0,1.0,,,,,,,,,orange,square
0.0,3.0,2.0,0.0,6.0,6.0,675.1731459517032,8.0,1.0,phase_2,go,1350.0,1150.0,1.0,,,,,,,,,green,triangle
0.0,8.0,4.0,1.0,6.0,6.0,595.2894210349768,8.0,1.0,phase_2,stop,1350.0,1150.0,3.0,,,,,,,,,white,hexagon
0.0,2.0,1.0,0.0,6.0,6.0,519.4519171491265,8.0,1.0,phase_2,go,1350.0,1100.0,1.0,,,,,,,,,blue,I
0.0,4.0,4.0,0.0,6.0,6.0,689.2057829536498,8.0,1.0,phase_2,go,1350.0,1100.0,1.0,,,,,,,,,gray,diamond
0.0,7.0,2.0,1.0,6.0,0.0,0.0,8.0,1.0,phase_2,go,1350.0,1100.0,5.0,,,,,,,,,cyan,circle
0.0,7.0,2.0,1.0,5.0,5.0,773.480307077989,8.0,1.0,phase_2,stop,1350.0,1100.0,3.0,,,,,,,,,cyan,circle
0.0,6.0,1.0,1.0,5.0,5.0,1085.2666730061171,8.0,1.0,phase_2,stop,1300.0,1100.0,3.0,,,,,,,,,yellow,cross
0.0,4.0,4.0,0.0,6.0,6.0,581.3426908571273,8.0,1.0,phase_2,go,1250.0,1100.0,1.0,,,,,,,,,gray,diamond
0.0,3.0,2.0,0.0,5.0,5.0,527.299711946398,8.0,1.0,phase_2,go,1250.0,1100.0,1.0,,,,,,,,,green,triangle
0.0,8.0,4.0,1.0,5.0,5.0,821.7372768558562,8.0,1.0,phase_2,stop,1250.0,1100.0,3.0,,,,,,,,,white,hexagon
0.0,1.0,0.5,0.0,5.0,5.0,500.92550716362894,8.0,1.0,phase_2,go,1200.0,1100.0,1.0,,,,,,,,,magenta,flipped triangle
0.0,3.0,2.0,0.0,5.0,5.0,485.2927441243082,8.0,1.0,phase_2,go,1200.0,1100.0,1.0,,,,,,,,,green,triangle
0.0,3.0,2.0,0.0,5.0,5.0,492.984440876171,8.0,1.0,phase_2,go,1200.0,1100.0,1.0,,,,,,,,,green,triangle
0.0,2.0,1.0,0.0,6.0,6.0,539.1379110515118,8.0,1.0,phase_2,go,1200.0,1100.0,1.0,,,,,,,,,blue,I
0.0,6.0,1.0,1.0,5.0,5.0,1179.1552370414138,8.0,1.0,phase_2,go,1200.0,1100.0,1.0,,,,,,,,,yellow,cross
0.0,5.0,0.5,1.0,5.0,5.0,1250.1738569699228,8.0,1.0,phase_2,stop,1200.0,1100.0,3.0,,,,,,,,,orange,square
0.0,7.0,2.0,1.0,5.0,0.0,0.0,8.0,1.0,phase_2,stop,1150.0,1100.0,4.0,,,,,,,,,cyan,circle
0.0,1.0,0.5,0.0,5.0,5.0,518.4889889787883,8.0,1.0,phase_2,go,1200.0,1100.0,1.0,,,,,,,,,magenta,flipped triangle
0.0,8.0,4.0,1.0,6.0,0.0,0.0,8.0,1.0,phase_2,stop,1200.0,1100.0,4.0,,,,,,,,,white,hexagon
0.0,5.0,0.5,1.0,6.0,0.0,0.0,8.0,1.0,phase_2,stop,1200.0,1150.0,4.0,,,,,,,,,orange,square
0.0,5.0,0.5,1.0,5.0,5.0,1397.0844871364534,8.0,1.0,phase_2,go,1200.0,1200.0,1.0,,,,,,,,,orange,square
0.0,1.0,0.5,0.0,5.0,5.0,517.2929440159351,8.0,1.0,phase_2,go,1200.0,1200.0,1.0,,,,,,,,,magenta,flipped triangle
0.0,7.0,2.0,1.0,6.0,0.0,0.0,8.0,1.0,phase_2,stop,1200.0,1200.0,4.0,,,,,,,,,cyan,circle
0.0,1.0,0.5,0.0,5.0,5.0,437.3669531196356,8.0,1.0,phase_2,go,1200.0,1250.0,1.0,,,,,,,,,magenta,flipped triangle
0.0,1.0,0.5,0.0,6.0,6.0,556.9063420407474,8.0,1.0,phase_2,go,1200.0,1250.0,1.0,,,,,,,,,magenta,flipped triangle
0.0,6.0,1.0,1.0,5.0,0.0,0.0,8.0,1.0,phase_2,stop,1200.0,1250.0,4.0,,,,,,,,,yellow,cross
0.0,3.0,2.0,0.0,6.0,6.0,585.7029359322041,8.0,1.0,phase_2,go,1250.0,1250.0,1.0,,,,,,,,,green,triangle
0.0,1.0,0.5,0.0,5.0,5.0,425.6155209150165,8.0,1.0,phase_2,go,1250.0,1250.0,1.0,,,,,,,,,magenta,flipped triangle
0.0,7.0,2.0,1.0,5.0,0.0,0.0,8.0,1.0,phase_2,go,1250.0,1250.0,5.0,,,,,,,,,cyan,circle
0.0,4.0,4.0,0.0,7.0,2.0,13.1814931519329,1.0,1.0,phase_3,,,,,117.0,3.0,78.0,117.0,156.0,234.0,39.0,195.0,gray,diamond
0.0,8.0,4.0,1.0,7.0,4.0,2394.225518917665,1.0,1.0,phase_3,,,,,44.0,1.0,176.0,88.0,264.0,44.0,220.0,132.0,white,hexagon
0.0,3.0,2.0,0.0,7.0,1.0,2506.4464788883924,1.0,1.0,phase_3,,,,,136.0,4.0,136.0,68.0,102.0,170.0,204.0,34.0,green,triangle
0.0,5.0,0.5,1.0,7.0,3.0,2260.566072072834,1.0,1.0,phase_3,,,,,324.0,6.0,162.0,54.0,324.0,270.0,216.0,108.0,orange,square
0.0,3.0,2.0,0.0,7.0,4.0,2077.456728089601,1.0,1.0,phase_3,,,,,176.0,4.0,88.0,264.0,44.0,176.0,132.0,220.0,green,triangle
0.0,4.0,4.0,0.0,7.0,1.0,1844.1885400097815,1.0,1.0,phase_3,,,,,102.0,3.0,102.0,204.0,34.0,68.0,170.0,136.0,gray,diamond
0.0,6.0,1.0,1.0,7.0,5.0,1895.567991072312,1.0,1.0,phase_3,,,,,39.0,1.0,234.0,156.0,78.0,195.0,39.0,117.0,yellow,cross
0.0,7.0,2.0,1.0,7.0,5.0,1465.7381139695644,1.0,1.0,phase_3,,,,,264.0,6.0,176.0,88.0,44.0,132.0,264.0,220.0,cyan,circle
0.0,2.0,1.0,0.0,7.0,2.0,1818.616891046986,1.0,1.0,phase_3,,,,,68.0,2.0,136.0,68.0,102.0,34.0,204.0,170.0,blue,I
0.0,2.0,1.0,0.0,7.0,3.0,1229.9564420245588,1.0,1.0,phase_3,,,,,170.0,5.0,34.0,136.0,170.0,204.0,102.0,68.0,blue,I
0.0,4.0,4.0,0.0,7.0,5.0,2069.9114280287176,1.0,1.0,phase_3,,,,,176.0,4.0,220.0,88.0,264.0,44.0,176.0,132.0,gray,diamond
0.0,3.0,2.0,0.0,7.0,1.0,2109.762432053685,1.0,1.0,phase_3,,,,,270.0,5.0,270.0,108.0,54.0,324.0,162.0,216.0,green,triangle
0.0,2.0,1.0,0.0,7.0,5.0,1183.9227150194347,1.0,1.0,phase_3,,,,,98.0,2.0,294.0,49.0,196.0,147.0,98.0,245.0,blue,I
0.0,3.0,2.0,0.0,7.0,4.0,944.2327818833292,1.0,1.0,phase_3,,,,,102.0,3.0,68.0,170.0,204.0,102.0,34.0,136.0,green,triangle
0.0,6.0,1.0,1.0,7.0,2.0,1122.6356150582433,1.0,1.0,phase_3,,,,,220.0,5.0,176.0,220.0,44.0,132.0,88.0,264.0,yellow,cross
0.0,7.0,2.0,1.0,7.0,6.0,1602.0572921261191,1.0,1.0,phase_3,,,,,270.0,5.0,216.0,324.0,108.0,54.0,162.0,270.0,cyan,circle
0.0,7.0,2.0,1.0,7.0,3.0,1967.3114290926603,1.0,1.0,phase_3,,,,,39.0,1.0,156.0,117.0,39.0,195.0,78.0,234.0,cyan,circle
0.0,2.0,1.0,0.0,7.0,5.0,1541.349339997396,1.0,1.0,phase_3,,,,,117.0,3.0,156.0,39.0,195.0,78.0,117.0,234.0,blue,I
0.0,8.0,4.0,1.0,7.0,2.0,1326.4956190250814,1.0,1.0,phase_3,,,,,195.0,5.0,117.0,195.0,234.0,156.0,78.0,39.0,white,hexagon
0.0,1.0,0.5,0.0,7.0,1.0,1107.3722168803215,1.0,1.0,phase_3,,,,,108.0,2.0,108.0,54.0,270.0,216.0,162.0,324.0,magenta,flipped triangle
0.0,3.0,2.0,0.0,7.0,4.0,933.6048499681056,2.0,1.0,phase_3,,,,,294.0,6.0,98.0,245.0,147.0,294.0,49.0,196.0,green,triangle
0.0,8.0,4.0,1.0,7.0,1.0,1161.9281459134072,2.0,1.0,phase_3,,,,,88.0,2.0,88.0,176.0,264.0,132.0,220.0,44.0,white,hexagon
0.0,2.0,1.0,0.0,7.0,4.0,1833.917265990749,2.0,1.0,phase_3,,,,,294.0,6.0,49.0,98.0,147.0,294.0,196.0,245.0,blue,I
0.0,4.0,4.0,0.0,7.0,3.0,1204.4361969456077,2.0,1.0,phase_3,,,,,132.0,3.0,220.0,88.0,132.0,44.0,176.0,264.0,gray,diamond
0.0,8.0,4.0,1.0,7.0,6.0,868.8897648826241,2.0,1.0,phase_3,,,,,162.0,3.0,270.0,54.0,216.0,324.0,108.0,162.0,white,hexagon
0.0,2.0,1.0,0.0,7.0,6.0,1427.550327964127,2.0,1.0,phase_3,,,,,234.0,6.0,156.0,117.0,78.0,39.0,195.0,234.0,blue,I
0.0,4.0,4.0,0.0,7.0,5.0,1168.1799390353262,2.0,1.0,phase_3,,,,,34.0,1.0,68.0,170.0,102.0,136.0,34.0,204.0,gray,diamond
0.0,5.0,0.5,1.0,7.0,1.0,839.2212979961187,2.0,1.0,phase_3,,,,,294.0,6.0,294.0,147.0,245.0,49.0,196.0,98.0,orange,square
0.0,3.0,2.0,0.0,7.0,2.0,850.2867789939046,2.0,1.0,phase_3,,,,,216.0,4.0,324.0,216.0,270.0,162.0,108.0,54.0,green,triangle
0.0,7.0,2.0,1.0,7.0,4.0,1164.6909669507295,2.0,1.0,phase_3,,,,,68.0,2.0,136.0,204.0,170.0,68.0,102.0,34.0,cyan,circle
0.0,1.0,0.5,0.0,7.0,3.0,1102.065883111209,2.0,1.0,phase_3,,,,,170.0,5.0,204.0,34.0,170.0,68.0,136.0,102.0,magenta,flipped triangle
0.0,3.0,2.0,0.0,7.0,5.0,1302.4691040627658,2.0,1.0,phase_3,,,,,156.0,4.0,117.0,78.0,195.0,234.0,156.0,39.0,green,triangle
0.0,8.0,4.0,1.0,7.0,2.0,1701.2992340605706,2.0,1.0,phase_3,,,,,170.0,5.0,68.0,170.0,102.0,34.0,136.0,204.0,white,hexagon
0.0,4.0,4.0,0.0,7.0,3.0,1375.5583371967075,2.0,1.0,phase_3,,,,,324.0,6.0,162.0,270.0,324.0,108.0,54.0,216.0,gray,diamond
0.0,7.0,2.0,1.0,7.0,5.0,523.6404640600085,2.0,1.0,phase_3,,,,,156.0,4.0,39.0,234.0,117.0,195.0,156.0,78.0,cyan,circle
0.0,5.0,0.5,1.0,7.0,4.0,918.0127049330622,2.0,1.0,phase_3,,,,,234.0,6.0,39.0,117.0,156.0,234.0,195.0,78.0,orange,square
0.0,8.0,4.0,1.0,7.0,6.0,1460.1451740600169,2.0,1.0,phase_3,,,,,216.0,4.0,162.0,324.0,108.0,54.0,270.0,216.0,white,hexagon
0.0,2.0,1.0,0.0,7.0,2.0,1551.9497429486364,2.0,1.0,phase_3,,,,,264.0,6.0,220.0,264.0,132.0,44.0,88.0,176.0,blue,I
0.0,1.0,0.5,0.0,7.0,2.0,1398.409235989675,2.0,1.0,phase_3,,,,,78.0,2.0,39.0,78.0,234.0,195.0,117.0,156.0,magenta,flipped triangle
0.0,2.0,1.0,0.0,7.0,2.0,1735.0678499788046,2.0,1.0,phase_3,,,,,88.0,2.0,264.0,88.0,176.0,220.0,132.0,44.0,blue,I
0.0,8.0,4.0,1.0,7.0,5.0,755.7940499391407,3.0,1.0,phase_3,,,,,170.0,5.0,68.0,102.0,34.0,204.0,170.0,136.0,white,hexagon
0.0,7.0,2.0,1.0,7.0,2.0,1361.362560885027,3.0,1.0,phase_3,,,,,147.0,3.0,294.0,147.0,245.0,49.0,98.0,196.0,cyan,circle
0.0,7.0,2.0,1.0,7.0,1.0,973.3347198925912,3.0,1.0,phase_3,,,,,98.0,2.0,98.0,49.0,245.0,294.0,196.0,147.0,cyan,circle
0.0,8.0,4.0,1.0,7.0,5.0,1128.1807420309633,3.0,1.0,phase_3,,,,,49.0,1.0,196.0,245.0,294.0,98.0,49.0,147.0,white,hexagon
0.0,7.0,2.0,1.0,7.0,4.0,1824.6899188961836,3.0,1.0,phase_3,,,,,162.0,3.0,324.0,216.0,108.0,162.0,270.0,54.0,cyan,circle
0.0,4.0,4.0,0.0,7.0,4.0,1438.8103818055242,3.0,1.0,phase_3,,,,,117.0,3.0,234.0,156.0,39.0,117.0,195.0,78.0,gray,diamond
0.0,6.0,1.0,1.0,7.0,5.0,1012.5125129707158,3.0,1.0,phase_3,,,,,68.0,2.0,102.0,204.0,34.0,170.0,68.0,136.0,yellow,cross
0.0,1.0,0.5,0.0,7.0,6.0,986.6851028054951,3.0,1.0,phase_3,,,,,220.0,5.0,88.0,264.0,44.0,132.0,176.0,220.0,magenta,flipped triangle
0.0,6.0,1.0,1.0,7.0,2.0,1581.5724281128496,3.0,1.0,phase_3,,,,,44.0,1.0,88.0,44.0,132.0,176.0,220.0,264.0,yellow,cross
0.0,4.0,4.0,0.0,7.0,4.0,1199.499872047454,3.0,1.0,phase_3,,,,,108.0,2.0,162.0,324.0,270.0,108.0,216.0,54.0,gray,diamond
0.0,5.0,0.5,1.0,7.0,1.0,429.7304381616413,3.0,1.0,phase_3,,,,,44.0,1.0,44.0,220.0,132.0,88.0,176.0,264.0,orange,square
0.0,3.0,2.0,0.0,7.0,2.0,752.5517051108181,3.0,1.0,phase_3,,,,,132.0,3.0,44.0,132.0,264.0,176.0,88.0,220.0,green,triangle
0.0,8.0,4.0,1.0,7.0,6.0,728.5077939741313,3.0,1.0,phase_3,,,,,294.0,6.0,147.0,49.0,98.0,245.0,196.0,294.0,white,hexagon
0.0,1.0,0.5,0.0,7.0,3.0,803.8907260634005,3.0,1.0,phase_3,,,,,88.0,2.0,44.0,264.0,88.0,176.0,220.0,132.0,magenta,flipped triangle
0.0,7.0,2.0,1.0,7.0,5.0,829.2393020819873,3.0,1.0,phase_3,,,,,68.0,2.0,102.0,136.0,34.0,204.0,68.0,170.0,cyan,circle
0.0,4.0,4.0,0.0,7.0,5.0,1446.8881371431053,3.0,1.0,phase_3,,,,,196.0,4.0,49.0,147.0,98.0,294.0,196.0,245.0,gray,diamond
0.0,1.0,0.5,0.0,7.0,2.0,1217.8009878844025,3.0,1.0,phase_3,,,,,108.0,2.0,162.0,108.0,324.0,270.0,54.0,216.0,magenta,flipped triangle
0.0,2.0,1.0,0.0,7.0,2.0,1515.7495038583877,3.0,1.0,phase_3,,,,,54.0,1.0,216.0,54.0,270.0,108.0,324.0,162.0,blue,I
0.0,6.0,1.0,1.0,7.0,4.0,992.9384929127992,3.0,1.0,phase_3,,,,,162.0,3.0,108.0,216.0,54.0,162.0,270.0,324.0,yellow,cross
0.0,1.0,0.5,0.0,7.0,4.0,965.179623104632,3.0,1.0,phase_3,,,,,49.0,1.0,245.0,294.0,196.0,49.0,98.0,147.0,magenta,flipped triangle
0.0,5.0,0.5,1.0,7.0,4.0,822.7604259736836,4.0,1.0,phase_3,,,,,102.0,3.0,204.0,34.0,68.0,102.0,136.0,170.0,orange,square
0.0,1.0,0.5,0.0,7.0,3.0,1688.6750380508602,4.0,1.0,phase_3,,,,,234.0,6.0,39.0,78.0,234.0,156.0,195.0,117.0,magenta,flipped triangle
0.0,2.0,1.0,0.0,7.0,6.0,1266.4750970434395,4.0,1.0,phase_3,,,,,162.0,3.0,324.0,54.0,108.0,270.0,216.0,162.0,blue,I
0.0,4.0,4.0,0.0,7.0,4.0,956.939186900854,4.0,1.0,phase_3,,,,,196.0,4.0,49.0,147.0,245.0,196.0,294.0,98.0,gray,diamond
0.0,8.0,4.0,1.0,7.0,4.0,1214.8179239593446,4.0,1.0,phase_3,,,,,39.0,1.0,156.0,78.0,117.0,39.0,234.0,195.0,white,hexagon
0.0,5.0,0.5,1.0,7.0,4.0,1613.727580057457,4.0,1.0,phase_3,,,,,68.0,2.0,102.0,170.0,136.0,68.0,34.0,204.0,orange,square
0.0,1.0,0.5,0.0,7.0,3.0,1247.0831158570943,4.0,1.0,phase_3,,,,,147.0,3.0,49.0,196.0,147.0,245.0,294.0,98.0,magenta,flipped triangle
0.0,6.0,1.0,1.0,7.0,5.0,1639.7472620010376,4.0,1.0,phase_3,,,,,195.0,5.0,234.0,39.0,78.0,117.0,195.0,156.0,yellow,cross
0.0,6.0,1.0,1.0,7.0,3.0,1524.8807920143008,4.0,1.0,phase_3,,,,,49.0,1.0,98.0,196.0,49.0,245.0,294.0,147.0,yellow,cross
0.0,5.0,0.5,1.0,7.0,2.0,1469.6997459977863,4.0,1.0,phase_3,,,,,39.0,1.0,234.0,39.0,195.0,117.0,78.0,156.0,orange,square
0.0,5.0,0.5,1.0,7.0,6.0,1502.9249109793454,4.0,1.0,phase_3,,,,,324.0,6.0,54.0,162.0,216.0,270.0,108.0,324.0,orange,square
0.0,3.0,2.0,0.0,7.0,5.0,1174.9875349923968,4.0,1.0,phase_3,,,,,98.0,2.0,245.0,147.0,294.0,49.0,98.0,196.0,green,triangle
0.0,5.0,0.5,1.0,7.0,1.0,1382.6314341276884,4.0,1.0,phase_3,,,,,147.0,3.0,147.0,245.0,98.0,49.0,196.0,294.0,orange,square
0.0,1.0,0.5,0.0,7.0,4.0,1273.2458440586925,4.0,1.0,phase_3,,,,,170.0,5.0,136.0,34.0,102.0,170.0,204.0,68.0,magenta,flipped triangle
0.0,7.0,2.0,1.0,7.0,3.0,1562.5036309938878,4.0,1.0,phase_3,,,,,132.0,3.0,264.0,88.0,132.0,220.0,176.0,44.0,cyan,circle
0.0,6.0,1.0,1.0,7.0,6.0,1483.4142599720508,4.0,1.0,phase_3,,,,,162.0,3.0,216.0,54.0,270.0,108.0,324.0,162.0,yellow,cross
0.0,6.0,1.0,1.0,7.0,3.0,1188.369499053806,4.0,1.0,phase_3,,,,,204.0,6.0,170.0,68.0,204.0,102.0,34.0,136.0,yellow,cross
0.0,5.0,0.5,1.0,7.0,5.0,967.8875198587776,4.0,1.0,phase_3,,,,,220.0,5.0,264.0,44.0,132.0,88.0,220.0,176.0,orange,square
0.0,3.0,2.0,0.0,7.0,1.0,831.6563239786774,4.0,1.0,phase_3,,,,,78.0,2.0,78.0,156.0,234.0,117.0,39.0,195.0,green,triangle
0.0,6.0,1.0,1.0,7.0,4.0,1329.3205660302192,4.0,1.0,phase_3,,,,,147.0,3.0,49.0,196.0,245.0,147.0,98.0,294.0,yellow,cross
