raw_reward_magnitude,stim_reward,stepwise_reward_magnitude,paired_with_stopping,stim_location,response,reaction_time,block,num_trial_presentations,which_phase,stop_signal_trial_type,left_SSD,right_SSD,accuracy,chosen_bidding_amount,chosen_bidding_level,possible_bid_1,possible_bid_2,possible_bid_3,possible_bid_4,possible_bid_5,possible_bid_6,color_text,shape_text
96.0,6.0,2.0,1.0,1.0,1.0,675.3522551152855,1.0,2.0,phase_1,,,,,,,,,,,,,yellow,circle
410.0,8.0,4.0,1.0,1.0,1.0,347.9644309263676,1.0,1.0,phase_1,,,,,,,,,,,,,blue,I
396.0,8.0,4.0,1.0,1.0,1.0,319.3026999942958,1.0,1.0,phase_1,,,,,,,,,,,,,blue,I
198.0,7.0,3.0,1.0,3.0,3.0,425.5157948937267,1.0,1.0,phase_1,,,,,,,,,,,,,magenta,cross
71.0,5.0,1.0,1.0,3.0,3.0,335.8486739452928,1.0,1.0,phase_1,,,,,,,,,,,,,cyan,hexagon
0.0,1.0,0.0,0.0,3.0,3.0,284.1080431826412,1.0,1.0,phase_1,,,,,,,,,,,,,white,diamond
419.0,8.0,4.0,1.0,1.0,1.0,359.5524341799319,1.0,1.0,phase_1,,,,,,,,,,,,,blue,I
99.0,6.0,2.0,1.0,2.0,2.0,368.0028528906405,1.0,1.0,phase_1,,,,,,,,,,,,,yellow,circle
125.0,6.0,2.0,1.0,3.0,3.0,370.5287349876016,1.0,1.0,phase_1,,,,,,,,,,,,,yellow,circle
117.0,2.0,2.0,0.0,4.0,4.0,424.0066681522876,1.0,1.0,phase_1,,,,,,,,,,,,,orange,flipped triangle
407.0,8.0,4.0,1.0,4.0,4.0,430.7075371034443,1.0,1.0,phase_1,,,,,,,,,,,,,blue,I
88.0,2.0,2.0,0.0,3.0,3.0,345.2485320158303,1.0,1.0,phase_1,,,,,,,,,,,,,orange,flipped triangle
120.0,2.0,2.0,0.0,2.0,2.0,315.4035960324108,1.0,1.0,phase_1,,,,,,,,,,,,,orange,flipped triangle
54.0,5.0,1.0,1.0,4.0,4.0,444.2595581058413,1.0,1.0,phase_1,,,,,,,,,,,,,cyan,hexagon
417.0,8.0,4.0,1.0,2.0,2.0,335.3085219860077,1.0,1.0,phase_1,,,,,,,,,,,,,blue,I
29.0,1.0,1.0,0.0,3.0,3.0,355.5994341149926,1.0,1.0,phase_1,,,,,,,,,,,,,white,diamond
0.0,2.0,0.0,0.0,3.0,3.0,305.7953889947384,1.0,1.0,phase_1,,,,,,,,,,,,,orange,flipped triangle
0.0,8.0,0.0,1.0,2.0,2.0,294.5381700992584,1.0,1.0,phase_1,,,,,,,,,,,,,blue,I
0.0,8.0,0.0,1.0,1.0,1.0,280.4366608615964,1.0,1.0,phase_1,,,,,,,,,,,,,blue,I
186.0,7.0,3.0,1.0,1.0,1.0,365.172415971756,1.0,1.0,phase_1,,,,,,,,,,,,,magenta,cross
0.0,1.0,0.0,0.0,3.0,3.0,269.3823771551251,1.0,1.0,phase_1,,,,,,,,,,,,,white,diamond
0.0,6.0,0.0,1.0,4.0,4.0,448.6135891638696,1.0,1.0,phase_1,,,,,,,,,,,,,yellow,circle
375.0,4.0,4.0,0.0,3.0,3.0,371.1677170358598,1.0,1.0,phase_1,,,,,,,,,,,,,gray,triangle
210.0,7.0,3.0,1.0,3.0,3.0,272.5953769404441,1.0,1.0,phase_1,,,,,,,,,,,,,magenta,cross
0.0,8.0,0.0,1.0,1.0,1.0,230.9681260958314,1.0,1.0,phase_1,,,,,,,,,,,,,blue,I
0.0,4.0,0.0,0.0,3.0,3.0,227.9310158919543,1.0,1.0,phase_1,,,,,,,,,,,,,gray,triangle
392.0,8.0,4.0,1.0,2.0,2.0,248.5295729711651,1.0,1.0,phase_1,,,,,,,,,,,,,blue,I
80.0,6.0,2.0,1.0,2.0,2.0,301.5002468600869,1.0,1.0,phase_1,,,,,,,,,,,,,yellow,circle
225.0,3.0,3.0,0.0,3.0,3.0,290.520739974454,1.0,1.0,phase_1,,,,,,,,,,,,,green,square
0.0,8.0,0.0,1.0,4.0,4.0,293.4586850460619,1.0,1.0,phase_1,,,,,,,,,,,,,blue,I
51.0,5.0,1.0,1.0,3.0,3.0,280.347574967891,1.0,1.0,phase_1,,,,,,,,,,,,,cyan,hexagon
404.0,4.0,4.0,0.0,3.0,3.0,289.0939770732075,1.0,1.0,phase_1,,,,,,,,,,,,,gray,triangle
31.0,5.0,1.0,1.0,4.0,4.0,324.4803899433464,1.0,1.0,phase_1,,,,,,,,,,,,,cyan,hexagon
206.0,3.0,3.0,0.0,2.0,2.0,281.234793132171,1.0,1.0,phase_1,,,,,,,,,,,,,green,square
76.0,6.0,2.0,1.0,2.0,2.0,315.1561641134321,1.0,1.0,phase_1,,,,,,,,,,,,,yellow,circle
125.0,6.0,2.0,1.0,4.0,4.0,304.3841749895364,1.0,1.0,phase_1,,,,,,,,,,,,,yellow,circle
92.0,6.0,2.0,1.0,2.0,2.0,301.1662471108138,1.0,1.0,phase_1,,,,,,,,,,,,,yellow,circle
408.0,8.0,4.0,1.0,4.0,4.0,290.155388880521,1.0,1.0,phase_1,,,,,,,,,,,,,blue,I
89.0,6.0,2.0,1.0,1.0,1.0,273.2406549621373,1.0,1.0,phase_1,,,,,,,,,,,,,yellow,circle
98.0,2.0,2.0,0.0,4.0,4.0,292.7206959575414,1.0,1.0,phase_1,,,,,,,,,,,,,orange,flipped triangle
0.0,3.0,0.0,0.0,1.0,1.0,314.0928330831229,1.0,1.0,phase_1,,,,,,,,,,,,,green,square
201.0,7.0,3.0,1.0,2.0,2.0,286.2385008484125,1.0,1.0,phase_1,,,,,,,,,,,,,magenta,cross
0.0,3.0,0.0,0.0,1.0,1.0,308.308863081038,1.0,1.0,phase_1,,,,,,,,,,,,,green,square
206.0,7.0,3.0,1.0,4.0,4.0,285.1780848577618,1.0,1.0,phase_1,,,,,,,,,,,,,magenta,cross
0.0,7.0,0.0,1.0,4.0,4.0,362.7278399653733,1.0,1.0,phase_1,,,,,,,,,,,,,magenta,cross
395.0,4.0,4.0,0.0,4.0,4.0,297.4249140825122,1.0,1.0,phase_1,,,,,,,,,,,,,gray,triangle
68.0,1.0,1.0,0.0,1.0,1.0,252.82168784178788,1.0,1.0,phase_1,,,,,,,,,,,,,white,diamond
196.0,7.0,3.0,1.0,2.0,2.0,248.4674418810755,1.0,1.0,phase_1,,,,,,,,,,,,,magenta,cross
92.0,6.0,2.0,1.0,3.0,3.0,252.87878094241017,1.0,1.0,phase_1,,,,,,,,,,,,,yellow,circle
0.0,6.0,0.0,1.0,1.0,1.0,233.0607420299202,1.0,1.0,phase_1,,,,,,,,,,,,,yellow,circle
0.0,4.0,0.0,0.0,4.0,4.0,249.8794461134821,1.0,1.0,phase_1,,,,,,,,,,,,,gray,triangle
214.0,3.0,3.0,0.0,2.0,2.0,229.820704087615,1.0,1.0,phase_1,,,,,,,,,,,,,green,square
191.0,3.0,3.0,0.0,3.0,3.0,250.0908079091459,1.0,1.0,phase_1,,,,,,,,,,,,,green,square
0.0,5.0,0.0,1.0,4.0,4.0,268.9144308678806,1.0,1.0,phase_1,,,,,,,,,,,,,cyan,hexagon
29.0,1.0,1.0,0.0,3.0,3.0,337.5530599150806,1.0,1.0,phase_1,,,,,,,,,,,,,white,diamond
82.0,6.0,2.0,1.0,4.0,4.0,307.6306188013404,1.0,2.0,phase_1,,,,,,,,,,,,,yellow,circle
221.0,7.0,3.0,1.0,4.0,4.0,296.8762130476534,1.0,1.0,phase_1,,,,,,,,,,,,,magenta,cross
88.0,6.0,2.0,1.0,4.0,4.0,318.7106610275805,1.0,1.0,phase_1,,,,,,,,,,,,,yellow,circle
204.0,7.0,3.0,1.0,1.0,1.0,400.175655959174,1.0,1.0,phase_1,,,,,,,,,,,,,magenta,cross
0.0,7.0,0.0,1.0,2.0,2.0,437.4602050520479,1.0,1.0,phase_1,,,,,,,,,,,,,magenta,cross
405.0,8.0,4.0,1.0,4.0,4.0,387.1824119705707,1.0,1.0,phase_1,,,,,,,,,,,,,blue,I
211.0,7.0,3.0,1.0,2.0,2.0,310.067499987781,1.0,1.0,phase_1,,,,,,,,,,,,,magenta,cross
393.0,4.0,4.0,0.0,4.0,4.0,359.158928040415,1.0,1.0,phase_1,,,,,,,,,,,,,gray,triangle
204.0,7.0,3.0,1.0,2.0,2.0,319.7326799854636,1.0,1.0,phase_1,,,,,,,,,,,,,magenta,cross
388.0,4.0,4.0,0.0,1.0,1.0,324.6385310776531,1.0,1.0,phase_1,,,,,,,,,,,,,gray,triangle
0.0,6.0,0.0,1.0,3.0,3.0,457.3054760694504,1.0,1.0,phase_1,,,,,,,,,,,,,yellow,circle
209.0,7.0,3.0,1.0,4.0,4.0,365.8963521011174,1.0,1.0,phase_1,,,,,,,,,,,,,magenta,cross
188.0,3.0,3.0,0.0,4.0,4.0,346.4979908894747,1.0,1.0,phase_1,,,,,,,,,,,,,green,square
0.0,1.0,0.0,0.0,4.0,4.0,346.5818781405687,1.0,1.0,phase_1,,,,,,,,,,,,,white,diamond
121.0,2.0,2.0,0.0,3.0,3.0,534.939733101055,1.0,1.0,phase_1,,,,,,,,,,,,,orange,flipped triangle
0.0,5.0,0.0,1.0,1.0,1.0,363.876068033278,1.0,1.0,phase_1,,,,,,,,,,,,,cyan,hexagon
62.0,5.0,1.0,1.0,2.0,2.0,480.7679040823132,1.0,1.0,phase_1,,,,,,,,,,,,,cyan,hexagon
43.0,5.0,1.0,1.0,2.0,2.0,387.2004931326955,1.0,1.0,phase_1,,,,,,,,,,,,,cyan,hexagon
100.0,2.0,2.0,0.0,1.0,1.0,351.4534521382302,1.0,1.0,phase_1,,,,,,,,,,,,,orange,flipped triangle
403.0,8.0,4.0,1.0,1.0,1.0,397.4753338843584,1.0,1.0,phase_1,,,,,,,,,,,,,blue,I
0.0,5.0,0.0,1.0,4.0,4.0,391.7166609317064,1.0,1.0,phase_1,,,,,,,,,,,,,cyan,hexagon
59.0,5.0,1.0,1.0,4.0,4.0,389.37684497796,1.0,1.0,phase_1,,,,,,,,,,,,,cyan,hexagon
0.0,2.0,0.0,0.0,4.0,4.0,348.2462579850107,1.0,1.0,phase_1,,,,,,,,,,,,,orange,flipped triangle
219.0,7.0,3.0,1.0,2.0,2.0,358.6131050251424,1.0,1.0,phase_1,,,,,,,,,,,,,magenta,cross
0.0,8.0,0.0,1.0,4.0,4.0,461.739658145234,1.0,1.0,phase_1,,,,,,,,,,,,,blue,I
384.0,4.0,4.0,0.0,1.0,1.0,375.8326550014317,1.0,1.0,phase_1,,,,,,,,,,,,,gray,triangle
410.0,8.0,4.0,1.0,2.0,2.0,358.5789429489523,1.0,1.0,phase_1,,,,,,,,,,,,,blue,I
0.0,5.0,0.0,1.0,3.0,3.0,418.715326115489,1.0,1.0,phase_1,,,,,,,,,,,,,cyan,hexagon
0.0,2.0,0.0,0.0,3.0,3.0,367.6866069436073,1.0,1.0,phase_1,,,,,,,,,,,,,orange,flipped triangle
103.0,2.0,2.0,0.0,3.0,3.0,324.51834809035057,1.0,1.0,phase_1,,,,,,,,,,,,,orange,flipped triangle
199.0,3.0,3.0,0.0,4.0,4.0,382.4778799898922,1.0,1.0,phase_1,,,,,,,,,,,,,green,square
408.0,8.0,4.0,1.0,4.0,4.0,342.2297190409153,1.0,1.0,phase_1,,,,,,,,,,,,,blue,I
404.0,8.0,4.0,1.0,1.0,1.0,321.0447051096707,1.0,1.0,phase_1,,,,,,,,,,,,,blue,I
0.0,2.0,0.0,0.0,4.0,4.0,317.1043710317462,1.0,1.0,phase_1,,,,,,,,,,,,,orange,flipped triangle
423.0,4.0,4.0,0.0,3.0,3.0,361.5760670509189,1.0,1.0,phase_1,,,,,,,,,,,,,gray,triangle
72.0,5.0,1.0,1.0,2.0,2.0,320.9614199586212,1.0,1.0,phase_1,,,,,,,,,,,,,cyan,hexagon
72.0,1.0,1.0,0.0,4.0,4.0,308.9235830120742,1.0,1.0,phase_1,,,,,,,,,,,,,white,diamond
223.0,7.0,3.0,1.0,3.0,3.0,408.1459890585392,1.0,1.0,phase_1,,,,,,,,,,,,,magenta,cross
105.0,6.0,2.0,1.0,3.0,3.0,606.2262270133942,1.0,1.0,phase_1,,,,,,,,,,,,,yellow,circle
119.0,6.0,2.0,1.0,1.0,1.0,787.9517960827798,1.0,1.0,phase_1,,,,,,,,,,,,,yellow,circle
186.0,3.0,3.0,0.0,3.0,3.0,390.0484661571681,1.0,1.0,phase_1,,,,,,,,,,,,,green,square
408.0,4.0,4.0,0.0,4.0,4.0,370.0576999690383,1.0,2.0,phase_1,,,,,,,,,,,,,gray,triangle
191.0,7.0,3.0,1.0,1.0,1.0,390.6459289137274,1.0,1.0,phase_1,,,,,,,,,,,,,magenta,cross
54.0,5.0,1.0,1.0,4.0,4.0,354.0307951625436,1.0,1.0,phase_1,,,,,,,,,,,,,cyan,hexagon
0.0,2.0,0.0,0.0,3.0,3.0,518.8587959855795,1.0,1.0,phase_1,,,,,,,,,,,,,orange,flipped triangle
50.0,5.0,1.0,1.0,1.0,1.0,430.4396640509367,2.0,1.0,phase_1,,,,,,,,,,,,,cyan,hexagon
411.0,8.0,4.0,1.0,3.0,3.0,612.9891939926893,2.0,1.0,phase_1,,,,,,,,,,,,,blue,I
0.0,5.0,0.0,1.0,2.0,2.0,361.4722390193492,2.0,1.0,phase_1,,,,,,,,,,,,,cyan,hexagon
0.0,6.0,0.0,1.0,4.0,4.0,613.7982769869268,2.0,1.0,phase_1,,,,,,,,,,,,,yellow,circle
0.0,2.0,0.0,0.0,2.0,2.0,280.6380458641797,2.0,1.0,phase_1,,,,,,,,,,,,,orange,flipped triangle
108.0,6.0,2.0,1.0,4.0,4.0,333.6087248753756,2.0,1.0,phase_1,,,,,,,,,,,,,yellow,circle
221.0,7.0,3.0,1.0,1.0,1.0,313.9962111599743,2.0,1.0,phase_1,,,,,,,,,,,,,magenta,cross
0.0,3.0,0.0,0.0,4.0,4.0,350.7431400939822,2.0,1.0,phase_1,,,,,,,,,,,,,green,square
179.0,7.0,3.0,1.0,1.0,1.0,348.0946030467748,2.0,1.0,phase_1,,,,,,,,,,,,,magenta,cross
63.0,5.0,1.0,1.0,3.0,3.0,344.6126221679151,2.0,1.0,phase_1,,,,,,,,,,,,,cyan,hexagon
193.0,3.0,3.0,0.0,2.0,2.0,368.5296699404716,2.0,1.0,phase_1,,,,,,,,,,,,,green,square
215.0,7.0,3.0,1.0,2.0,2.0,337.7760818693787,2.0,1.0,phase_1,,,,,,,,,,,,,magenta,cross
59.0,1.0,1.0,0.0,4.0,4.0,400.7951649837196,2.0,1.0,phase_1,,,,,,,,,,,,,white,diamond
38.0,5.0,1.0,1.0,4.0,4.0,437.7877900842577,2.0,1.0,phase_1,,,,,,,,,,,,,cyan,hexagon
199.0,3.0,3.0,0.0,1.0,1.0,367.3388138413429,2.0,1.0,phase_1,,,,,,,,,,,,,green,square
211.0,3.0,3.0,0.0,4.0,4.0,432.0033527910709,2.0,1.0,phase_1,,,,,,,,,,,,,green,square
99.0,6.0,2.0,1.0,2.0,2.0,419.5139289367944,2.0,1.0,phase_1,,,,,,,,,,,,,yellow,circle
46.0,5.0,1.0,1.0,4.0,4.0,314.0111321117729,2.0,1.0,phase_1,,,,,,,,,,,,,cyan,hexagon
204.0,3.0,3.0,0.0,3.0,3.0,380.0983619876206,2.0,1.0,phase_1,,,,,,,,,,,,,green,square
382.0,4.0,4.0,0.0,2.0,2.0,464.7658220492303,2.0,1.0,phase_1,,,,,,,,,,,,,gray,triangle
73.0,5.0,1.0,1.0,3.0,3.0,382.7293200884014,2.0,1.0,phase_1,,,,,,,,,,,,,cyan,hexagon
218.0,3.0,3.0,0.0,4.0,4.0,427.912465063855,2.0,1.0,phase_1,,,,,,,,,,,,,green,square
84.0,2.0,2.0,0.0,1.0,1.0,247.7005049586296,2.0,1.0,phase_1,,,,,,,,,,,,,orange,flipped triangle
220.0,3.0,3.0,0.0,1.0,1.0,324.5573909953236,2.0,1.0,phase_1,,,,,,,,,,,,,green,square
0.0,7.0,0.0,1.0,1.0,1.0,304.2876010295003,2.0,1.0,phase_1,,,,,,,,,,,,,magenta,cross
179.0,3.0,3.0,0.0,1.0,1.0,307.1640529669821,2.0,1.0,phase_1,,,,,,,,,,,,,green,square
84.0,6.0,2.0,1.0,1.0,1.0,297.7823270484805,2.0,1.0,phase_1,,,,,,,,,,,,,yellow,circle
47.0,1.0,1.0,0.0,3.0,3.0,494.3990299943834,2.0,1.0,phase_1,,,,,,,,,,,,,white,diamond
0.0,7.0,0.0,1.0,1.0,1.0,378.0572738032788,2.0,1.0,phase_1,,,,,,,,,,,,,magenta,cross
25.0,1.0,1.0,0.0,1.0,1.0,344.1058669704944,2.0,1.0,phase_1,,,,,,,,,,,,,white,diamond
402.0,4.0,4.0,0.0,2.0,2.0,306.2020780052989,2.0,1.0,phase_1,,,,,,,,,,,,,gray,triangle
100.0,6.0,2.0,1.0,4.0,4.0,297.0211019273847,2.0,1.0,phase_1,,,,,,,,,,,,,yellow,circle
101.0,2.0,2.0,0.0,3.0,3.0,365.8422578591853,2.0,1.0,phase_1,,,,,,,,,,,,,orange,flipped triangle
190.0,7.0,3.0,1.0,4.0,4.0,474.7334229759872,2.0,1.0,phase_1,,,,,,,,,,,,,magenta,cross
37.0,5.0,1.0,1.0,1.0,1.0,318.325662985444,2.0,1.0,phase_1,,,,,,,,,,,,,cyan,hexagon
423.0,8.0,4.0,1.0,1.0,1.0,393.7050548847765,2.0,1.0,phase_1,,,,,,,,,,,,,blue,I
29.0,5.0,1.0,1.0,1.0,1.0,297.5911018438637,2.0,1.0,phase_1,,,,,,,,,,,,,cyan,hexagon
0.0,8.0,0.0,1.0,3.0,3.0,507.38698011264205,2.0,1.0,phase_1,,,,,,,,,,,,,blue,I
73.0,1.0,1.0,0.0,3.0,3.0,409.5855439081788,2.0,1.0,phase_1,,,,,,,,,,,,,white,diamond
92.0,2.0,2.0,0.0,4.0,4.0,503.19408997893333,2.0,1.0,phase_1,,,,,,,,,,,,,orange,flipped triangle
183.0,3.0,3.0,0.0,4.0,4.0,442.9541591089219,2.0,1.0,phase_1,,,,,,,,,,,,,green,square
0.0,5.0,0.0,1.0,1.0,1.0,336.5549549926072,2.0,1.0,phase_1,,,,,,,,,,,,,cyan,hexagon
380.0,4.0,4.0,0.0,3.0,3.0,381.7494851537049,2.0,1.0,phase_1,,,,,,,,,,,,,gray,triangle
214.0,7.0,3.0,1.0,1.0,1.0,410.3770980145782,2.0,1.0,phase_1,,,,,,,,,,,,,magenta,cross
402.0,4.0,4.0,0.0,2.0,2.0,399.1150849033147,2.0,1.0,phase_1,,,,,,,,,,,,,gray,triangle
0.0,5.0,0.0,1.0,3.0,3.0,340.7210351433605,2.0,1.0,phase_1,,,,,,,,,,,,,cyan,hexagon
176.0,3.0,3.0,0.0,4.0,4.0,471.3821078184992,2.0,1.0,phase_1,,,,,,,,,,,,,green,square
199.0,7.0,3.0,1.0,4.0,4.0,420.3731201123446,2.0,1.0,phase_1,,,,,,,,,,,,,magenta,cross
0.0,4.0,0.0,0.0,2.0,2.0,568.4075970202684,2.0,1.0,phase_1,,,,,,,,,,,,,gray,triangle
0.0,2.0,0.0,0.0,4.0,4.0,332.4530150275677,2.0,1.0,phase_1,,,,,,,,,,,,,orange,flipped triangle
112.0,2.0,2.0,0.0,1.0,1.0,271.9802199862897,2.0,1.0,phase_1,,,,,,,,,,,,,orange,flipped triangle
221.0,7.0,3.0,1.0,2.0,2.0,349.3631130550056,2.0,1.0,phase_1,,,,,,,,,,,,,magenta,cross
180.0,7.0,3.0,1.0,3.0,3.0,317.2101799864322,2.0,1.0,phase_1,,,,,,,,,,,,,magenta,cross
221.0,3.0,3.0,0.0,4.0,4.0,382.3130009695887,2.0,1.0,phase_1,,,,,,,,,,,,,green,square
68.0,5.0,1.0,1.0,3.0,3.0,389.1426380723715,2.0,1.0,phase_1,,,,,,,,,,,,,cyan,hexagon
84.0,2.0,2.0,0.0,2.0,2.0,523.1225281022489,2.0,1.0,phase_1,,,,,,,,,,,,,orange,flipped triangle
220.0,7.0,3.0,1.0,1.0,1.0,342.0326970517635,2.0,1.0,phase_1,,,,,,,,,,,,,magenta,cross
177.0,3.0,3.0,0.0,4.0,4.0,393.5484988614917,2.0,1.0,phase_1,,,,,,,,,,,,,green,square
0.0,1.0,0.0,0.0,2.0,2.0,256.5202920231968,2.0,1.0,phase_1,,,,,,,,,,,,,white,diamond
185.0,3.0,3.0,0.0,3.0,3.0,260.0499510299414,2.0,1.0,phase_1,,,,,,,,,,,,,green,square
73.0,5.0,1.0,1.0,1.0,1.0,272.7185590192675,2.0,1.0,phase_1,,,,,,,,,,,,,cyan,hexagon
0.0,7.0,0.0,1.0,4.0,4.0,283.8922198861837,2.0,1.0,phase_1,,,,,,,,,,,,,magenta,cross
395.0,8.0,4.0,1.0,3.0,3.0,345.1841920614242,2.0,1.0,phase_1,,,,,,,,,,,,,blue,I
97.0,2.0,2.0,0.0,4.0,4.0,288.0894988775253,2.0,1.0,phase_1,,,,,,,,,,,,,orange,flipped triangle
420.0,4.0,4.0,0.0,1.0,1.0,341.9157820753753,2.0,1.0,phase_1,,,,,,,,,,,,,gray,triangle
395.0,8.0,4.0,1.0,3.0,3.0,296.30664200522,2.0,1.0,phase_1,,,,,,,,,,,,,blue,I
383.0,4.0,4.0,0.0,3.0,3.0,364.6891131065786,2.0,1.0,phase_1,,,,,,,,,,,,,gray,triangle
108.0,2.0,2.0,0.0,2.0,2.0,280.5458870716393,2.0,1.0,phase_1,,,,,,,,,,,,,orange,flipped triangle
102.0,2.0,2.0,0.0,4.0,4.0,271.7778428923338,2.0,1.0,phase_1,,,,,,,,,,,,,orange,flipped triangle
74.0,5.0,1.0,1.0,4.0,4.0,321.1239860393107,2.0,1.0,phase_1,,,,,,,,,,,,,cyan,hexagon
185.0,7.0,3.0,1.0,4.0,4.0,394.0132821444422,2.0,1.0,phase_1,,,,,,,,,,,,,magenta,cross
0.0,4.0,0.0,0.0,3.0,3.0,588.8435521628708,2.0,1.0,phase_1,,,,,,,,,,,,,gray,triangle
417.0,8.0,4.0,1.0,3.0,3.0,361.6151779424399,2.0,1.0,phase_1,,,,,,,,,,,,,blue,I
199.0,7.0,3.0,1.0,2.0,2.0,267.5168009009212,2.0,1.0,phase_1,,,,,,,,,,,,,magenta,cross
0.0,7.0,0.0,1.0,2.0,2.0,377.3454730398953,2.0,1.0,phase_1,,,,,,,,,,,,,magenta,cross
39.0,5.0,1.0,1.0,4.0,4.0,345.1295979321003,2.0,1.0,phase_1,,,,,,,,,,,,,cyan,hexagon
382.0,8.0,4.0,1.0,2.0,2.0,290.3283168561756,2.0,1.0,phase_1,,,,,,,,,,,,,blue,I
196.0,3.0,3.0,0.0,1.0,1.0,257.5410988647491,2.0,1.0,phase_1,,,,,,,,,,,,,green,square
0.0,5.0,0.0,1.0,2.0,2.0,293.4767650440335,2.0,1.0,phase_1,,,,,,,,,,,,,cyan,hexagon
55.0,1.0,1.0,0.0,1.0,1.0,272.3352529574185,2.0,1.0,phase_1,,,,,,,,,,,,,white,diamond
215.0,3.0,3.0,0.0,1.0,1.0,344.3044868763536,2.0,1.0,phase_1,,,,,,,,,,,,,green,square
400.0,8.0,4.0,1.0,4.0,4.0,345.5098809208721,2.0,1.0,phase_1,,,,,,,,,,,,,blue,I
190.0,3.0,3.0,0.0,3.0,3.0,241.07773718424139,2.0,1.0,phase_1,,,,,,,,,,,,,green,square
0.0,8.0,0.0,1.0,3.0,3.0,293.1185779161751,2.0,1.0,phase_1,,,,,,,,,,,,,blue,I
177.0,7.0,3.0,1.0,1.0,1.0,363.1250350736081,2.0,1.0,phase_1,,,,,,,,,,,,,magenta,cross
31.0,1.0,1.0,0.0,4.0,4.0,269.1198501270264,2.0,1.0,phase_1,,,,,,,,,,,,,white,diamond
66.0,1.0,1.0,0.0,2.0,2.0,305.7227351237088,2.0,1.0,phase_1,,,,,,,,,,,,,white,diamond
183.0,7.0,3.0,1.0,2.0,2.0,533.912658225745,2.0,1.0,phase_1,,,,,,,,,,,,,magenta,cross
413.0,4.0,4.0,0.0,3.0,3.0,541.8483670800924,2.0,1.0,phase_1,,,,,,,,,,,,,gray,triangle
92.0,2.0,2.0,0.0,3.0,3.0,329.842871055007,2.0,1.0,phase_1,,,,,,,,,,,,,orange,flipped triangle
62.0,5.0,1.0,1.0,2.0,2.0,526.690379017964,2.0,1.0,phase_1,,,,,,,,,,,,,cyan,hexagon
60.0,1.0,1.0,0.0,4.0,4.0,395.3877189196646,2.0,1.0,phase_1,,,,,,,,,,,,,white,diamond
0.0,3.0,0.0,0.0,4.0,4.0,366.7330120224505,2.0,1.0,phase_1,,,,,,,,,,,,,green,square
421.0,8.0,4.0,1.0,4.0,4.0,337.4989461153745,2.0,1.0,phase_1,,,,,,,,,,,,,blue,I
60.0,5.0,1.0,1.0,1.0,1.0,342.7881738170981,2.0,1.0,phase_1,,,,,,,,,,,,,cyan,hexagon
99.0,2.0,2.0,0.0,3.0,3.0,324.7986629139632,2.0,1.0,phase_1,,,,,,,,,,,,,orange,flipped triangle
62.0,1.0,1.0,0.0,2.0,2.0,284.6174279693514,2.0,2.0,phase_1,,,,,,,,,,,,,white,diamond
29.0,5.0,1.0,1.0,4.0,4.0,321.7386740725487,2.0,1.0,phase_1,,,,,,,,,,,,,cyan,hexagon
0.0,4.0,0.0,0.0,3.0,3.0,561.949284048751,2.0,1.0,phase_1,,,,,,,,,,,,,gray,triangle
57.0,1.0,1.0,0.0,2.0,2.0,285.8730740845203,2.0,1.0,phase_1,,,,,,,,,,,,,white,diamond
71.0,1.0,1.0,0.0,4.0,4.0,340.9482480492443,3.0,1.0,phase_1,,,,,,,,,,,,,white,diamond
412.0,4.0,4.0,0.0,3.0,3.0,317.3610579688102,3.0,1.0,phase_1,,,,,,,,,,,,,gray,triangle
417.0,4.0,4.0,0.0,1.0,1.0,280.8493829797953,3.0,1.0,phase_1,,,,,,,,,,,,,gray,triangle
410.0,4.0,4.0,0.0,2.0,2.0,267.4843480344862,3.0,1.0,phase_1,,,,,,,,,,,,,gray,triangle
204.0,3.0,3.0,0.0,2.0,2.0,297.1611639950424,3.0,1.0,phase_1,,,,,,,,,,,,,green,square
0.0,3.0,0.0,0.0,2.0,2.0,326.5947250183671,3.0,1.0,phase_1,,,,,,,,,,,,,green,square
76.0,2.0,2.0,0.0,2.0,2.0,290.5537348706275,3.0,1.0,phase_1,,,,,,,,,,,,,orange,flipped triangle
384.0,8.0,4.0,1.0,3.0,3.0,449.5772160589695,3.0,1.0,phase_1,,,,,,,,,,,,,blue,I
120.0,6.0,2.0,1.0,1.0,1.0,301.9862798973918,3.0,1.0,phase_1,,,,,,,,,,,,,yellow,circle
0.0,5.0,0.0,1.0,3.0,3.0,321.9495480880141,3.0,1.0,phase_1,,,,,,,,,,,,,cyan,hexagon
392.0,8.0,4.0,1.0,4.0,4.0,291.4191561285406,3.0,1.0,phase_1,,,,,,,,,,,,,blue,I
53.0,5.0,1.0,1.0,3.0,3.0,291.2313200067729,3.0,1.0,phase_1,,,,,,,,,,,,,cyan,hexagon
219.0,3.0,3.0,0.0,3.0,3.0,224.8664658982306,3.0,1.0,phase_1,,,,,,,,,,,,,green,square
121.0,6.0,2.0,1.0,3.0,3.0,273.7312710378319,3.0,1.0,phase_1,,,,,,,,,,,,,yellow,circle
103.0,6.0,2.0,1.0,2.0,2.0,256.8500931374728,3.0,1.0,phase_1,,,,,,,,,,,,,yellow,circle
54.0,1.0,1.0,0.0,2.0,2.0,260.4397621471435,3.0,1.0,phase_1,,,,,,,,,,,,,white,diamond
177.0,3.0,3.0,0.0,3.0,3.0,352.9127237852663,3.0,1.0,phase_1,,,,,,,,,,,,,green,square
395.0,4.0,4.0,0.0,1.0,1.0,341.5244370698929,3.0,1.0,phase_1,,,,,,,,,,,,,gray,triangle
0.0,1.0,0.0,0.0,3.0,3.0,293.0270018987357,3.0,1.0,phase_1,,,,,,,,,,,,,white,diamond
177.0,7.0,3.0,1.0,4.0,4.0,321.4551298879087,3.0,1.0,phase_1,,,,,,,,,,,,,magenta,cross
0.0,3.0,0.0,0.0,2.0,2.0,228.4051049500703,3.0,1.0,phase_1,,,,,,,,,,,,,green,square
39.0,1.0,1.0,0.0,2.0,2.0,264.2191618215292,3.0,1.0,phase_1,,,,,,,,,,,,,white,diamond
379.0,4.0,4.0,0.0,2.0,2.0,268.5291559901088,3.0,1.0,phase_1,,,,,,,,,,,,,gray,triangle
406.0,4.0,4.0,0.0,4.0,4.0,321.4406408369541,3.0,1.0,phase_1,,,,,,,,,,,,,gray,triangle
411.0,4.0,4.0,0.0,2.0,2.0,264.5521638914943,3.0,1.0,phase_1,,,,,,,,,,,,,gray,triangle
400.0,4.0,4.0,0.0,3.0,3.0,316.5638279169798,3.0,1.0,phase_1,,,,,,,,,,,,,gray,triangle
383.0,8.0,4.0,1.0,2.0,2.0,350.6117360666394,3.0,1.0,phase_1,,,,,,,,,,,,,blue,I
77.0,6.0,2.0,1.0,4.0,4.0,299.9227261170745,3.0,1.0,phase_1,,,,,,,,,,,,,yellow,circle
63.0,1.0,1.0,0.0,2.0,2.0,289.0840179752558,3.0,1.0,phase_1,,,,,,,,,,,,,white,diamond
218.0,7.0,3.0,1.0,3.0,3.0,312.6393521670252,3.0,1.0,phase_1,,,,,,,,,,,,,magenta,cross
101.0,6.0,2.0,1.0,1.0,1.0,285.0523239467293,3.0,1.0,phase_1,,,,,,,,,,,,,yellow,circle
403.0,4.0,4.0,0.0,2.0,2.0,241.1552181001752,3.0,1.0,phase_1,,,,,,,,,,,,,gray,triangle
101.0,2.0,2.0,0.0,2.0,2.0,306.3432429917156,3.0,1.0,phase_1,,,,,,,,,,,,,orange,flipped triangle
119.0,2.0,2.0,0.0,1.0,1.0,266.0825289785862,3.0,1.0,phase_1,,,,,,,,,,,,,orange,flipped triangle
179.0,3.0,3.0,0.0,2.0,2.0,228.8756379857659,3.0,1.0,phase_1,,,,,,,,,,,,,green,square
0.0,4.0,0.0,0.0,4.0,4.0,276.2315480504185,3.0,1.0,phase_1,,,,,,,,,,,,,gray,triangle
198.0,3.0,3.0,0.0,2.0,2.0,248.167579062283,3.0,1.0,phase_1,,,,,,,,,,,,,green,square
0.0,2.0,0.0,0.0,4.0,4.0,300.6090321578085,3.0,1.0,phase_1,,,,,,,,,,,,,orange,flipped triangle
0.0,1.0,0.0,0.0,2.0,2.0,257.2919931262731,3.0,1.0,phase_1,,,,,,,,,,,,,white,diamond
179.0,7.0,3.0,1.0,3.0,3.0,327.124894130975,3.0,1.0,phase_1,,,,,,,,,,,,,magenta,cross
206.0,3.0,3.0,0.0,1.0,1.0,264.1081628389656,3.0,1.0,phase_1,,,,,,,,,,,,,green,square
96.0,2.0,2.0,0.0,1.0,1.0,264.9300268385559,3.0,1.0,phase_1,,,,,,,,,,,,,orange,flipped triangle
0.0,6.0,0.0,1.0,3.0,3.0,297.5354201626032,3.0,1.0,phase_1,,,,,,,,,,,,,yellow,circle
379.0,8.0,4.0,1.0,1.0,1.0,305.3581239655614,3.0,1.0,phase_1,,,,,,,,,,,,,blue,I
50.0,1.0,1.0,0.0,3.0,3.0,340.7194260507822,3.0,1.0,phase_1,,,,,,,,,,,,,white,diamond
74.0,1.0,1.0,0.0,2.0,2.0,258.4031159058213,3.0,1.0,phase_1,,,,,,,,,,,,,white,diamond
0.0,4.0,0.0,0.0,2.0,2.0,301.639785990119,3.0,1.0,phase_1,,,,,,,,,,,,,gray,triangle
57.0,1.0,1.0,0.0,4.0,4.0,285.1828760467469,3.0,1.0,phase_1,,,,,,,,,,,,,white,diamond
105.0,2.0,2.0,0.0,3.0,3.0,297.7871629409492,3.0,1.0,phase_1,,,,,,,,,,,,,orange,flipped triangle
80.0,2.0,2.0,0.0,2.0,2.0,318.2115398813039,3.0,1.0,phase_1,,,,,,,,,,,,,orange,flipped triangle
0.0,4.0,0.0,0.0,2.0,2.0,279.3609299696982,3.0,1.0,phase_1,,,,,,,,,,,,,gray,triangle
45.0,5.0,1.0,1.0,3.0,3.0,284.6528871450573,3.0,1.0,phase_1,,,,,,,,,,,,,cyan,hexagon
117.0,6.0,2.0,1.0,3.0,3.0,370.6782709341496,3.0,1.0,phase_1,,,,,,,,,,,,,yellow,circle
383.0,8.0,4.0,1.0,4.0,4.0,337.4705221503973,3.0,1.0,phase_1,,,,,,,,,,,,,blue,I
93.0,2.0,2.0,0.0,2.0,2.0,308.7096179369837,3.0,1.0,phase_1,,,,,,,,,,,,,orange,flipped triangle
62.0,1.0,1.0,0.0,4.0,4.0,314.3563738558441,3.0,1.0,phase_1,,,,,,,,,,,,,white,diamond
206.0,7.0,3.0,1.0,4.0,4.0,300.5198079627007,3.0,1.0,phase_1,,,,,,,,,,,,,magenta,cross
113.0,2.0,2.0,0.0,4.0,4.0,288.1441528443247,3.0,1.0,phase_1,,,,,,,,,,,,,orange,flipped triangle
413.0,8.0,4.0,1.0,2.0,2.0,415.5626050196588,3.0,1.0,phase_1,,,,,,,,,,,,,blue,I
0.0,3.0,0.0,0.0,3.0,3.0,361.3822360057384,3.0,1.0,phase_1,,,,,,,,,,,,,green,square
0.0,8.0,0.0,1.0,3.0,3.0,313.5806228965521,3.0,1.0,phase_1,,,,,,,,,,,,,blue,I
0.0,7.0,0.0,1.0,4.0,4.0,296.202978817746,3.0,2.0,phase_1,,,,,,,,,,,,,magenta,cross
0.0,4.0,0.0,0.0,3.0,3.0,316.8149788398295,3.0,1.0,phase_1,,,,,,,,,,,,,gray,triangle
0.0,3.0,0.0,0.0,1.0,1.0,339.0950730536133,3.0,1.0,phase_1,,,,,,,,,,,,,green,square
393.0,8.0,4.0,1.0,3.0,3.0,287.8025840036571,3.0,1.0,phase_1,,,,,,,,,,,,,blue,I
73.0,1.0,1.0,0.0,1.0,1.0,366.0298269242048,3.0,1.0,phase_1,,,,,,,,,,,,,white,diamond
43.0,5.0,1.0,1.0,1.0,1.0,504.7713490203023,3.0,1.0,phase_1,,,,,,,,,,,,,cyan,hexagon
221.0,3.0,3.0,0.0,3.0,3.0,276.2488790322095,3.0,1.0,phase_1,,,,,,,,,,,,,green,square
388.0,8.0,4.0,1.0,4.0,4.0,488.1683809217065,3.0,1.0,phase_1,,,,,,,,,,,,,blue,I
0.0,3.0,0.0,0.0,4.0,4.0,325.1305390149355,3.0,1.0,phase_1,,,,,,,,,,,,,green,square
420.0,8.0,4.0,1.0,1.0,1.0,411.6727549117058,3.0,1.0,phase_1,,,,,,,,,,,,,blue,I
0.0,7.0,0.0,1.0,4.0,4.0,282.3267439380288,3.0,1.0,phase_1,,,,,,,,,,,,,magenta,cross
402.0,8.0,4.0,1.0,4.0,4.0,317.1970171388238,3.0,1.0,phase_1,,,,,,,,,,,,,blue,I
0.0,7.0,0.0,1.0,3.0,3.0,345.3303719870746,3.0,1.0,phase_1,,,,,,,,,,,,,magenta,cross
55.0,5.0,1.0,1.0,2.0,2.0,356.980807846412,3.0,1.0,phase_1,,,,,,,,,,,,,cyan,hexagon
54.0,1.0,1.0,0.0,4.0,4.0,395.1617628335953,3.0,1.0,phase_1,,,,,,,,,,,,,white,diamond
123.0,2.0,2.0,0.0,2.0,2.0,349.8909960035234,3.0,1.0,phase_1,,,,,,,,,,,,,orange,flipped triangle
0.0,6.0,0.0,1.0,2.0,2.0,366.3271060213446,3.0,1.0,phase_1,,,,,,,,,,,,,yellow,circle
66.0,5.0,1.0,1.0,2.0,2.0,288.5812420863658,3.0,1.0,phase_1,,,,,,,,,,,,,cyan,hexagon
48.0,5.0,1.0,1.0,2.0,2.0,436.113532166928,3.0,1.0,phase_1,,,,,,,,,,,,,cyan,hexagon
101.0,6.0,2.0,1.0,2.0,2.0,304.5377940870821,3.0,1.0,phase_1,,,,,,,,,,,,,yellow,circle
0.0,6.0,0.0,1.0,2.0,2.0,284.6166910603642,3.0,1.0,phase_1,,,,,,,,,,,,,yellow,circle
31.0,1.0,1.0,0.0,2.0,2.0,313.6304309591651,3.0,1.0,phase_1,,,,,,,,,,,,,white,diamond
419.0,4.0,4.0,0.0,4.0,4.0,426.6555509530008,3.0,1.0,phase_1,,,,,,,,,,,,,gray,triangle
26.0,5.0,1.0,1.0,1.0,1.0,459.2946011107415,3.0,1.0,phase_1,,,,,,,,,,,,,cyan,hexagon
402.0,8.0,4.0,1.0,3.0,3.0,392.4595019780099,3.0,1.0,phase_1,,,,,,,,,,,,,blue,I
210.0,3.0,3.0,0.0,2.0,2.0,276.133983163163,3.0,1.0,phase_1,,,,,,,,,,,,,green,square
31.0,5.0,1.0,1.0,4.0,4.0,313.3271359838545,3.0,1.0,phase_1,,,,,,,,,,,,,cyan,hexagon
38.0,1.0,1.0,0.0,1.0,1.0,374.4825129397213,3.0,1.0,phase_1,,,,,,,,,,,,,white,diamond
93.0,6.0,2.0,1.0,2.0,2.0,266.7096429504454,3.0,1.0,phase_1,,,,,,,,,,,,,yellow,circle
46.0,1.0,1.0,0.0,2.0,2.0,401.6765591222793,3.0,1.0,phase_1,,,,,,,,,,,,,white,diamond
37.0,1.0,1.0,0.0,1.0,1.0,487.9954359494149,3.0,1.0,phase_1,,,,,,,,,,,,,white,diamond
87.0,6.0,2.0,1.0,3.0,3.0,338.6848780792206,3.0,1.0,phase_1,,,,,,,,,,,,,yellow,circle
0.0,2.0,0.0,0.0,4.0,4.0,294.124451931566,3.0,1.0,phase_1,,,,,,,,,,,,,orange,flipped triangle
199.0,3.0,3.0,0.0,1.0,1.0,285.7033819891512,3.0,1.0,phase_1,,,,,,,,,,,,,green,square
53.0,1.0,1.0,0.0,4.0,4.0,281.9735941011458,3.0,1.0,phase_1,,,,,,,,,,,,,white,diamond
25.0,5.0,1.0,1.0,3.0,3.0,326.4640241395682,3.0,1.0,phase_1,,,,,,,,,,,,,cyan,hexagon
201.0,3.0,3.0,0.0,1.0,1.0,273.6279000528157,3.0,1.0,phase_1,,,,,,,,,,,,,green,square
383.0,4.0,4.0,0.0,4.0,4.0,308.8136159349233,3.0,1.0,phase_1,,,,,,,,,,,,,gray,triangle
113.0,6.0,2.0,1.0,2.0,2.0,244.1987721249461,3.0,1.0,phase_1,,,,,,,,,,,,,yellow,circle
402.0,4.0,4.0,0.0,2.0,2.0,369.6691130753606,4.0,1.0,phase_1,,,,,,,,,,,,,gray,triangle
0.0,8.0,0.0,1.0,1.0,1.0,299.4306809268892,4.0,1.0,phase_1,,,,,,,,,,,,,blue,I
405.0,4.0,4.0,0.0,2.0,2.0,328.7064540199935,4.0,1.0,phase_1,,,,,,,,,,,,,gray,triangle
417.0,4.0,4.0,0.0,1.0,1.0,316.9070619624108,4.0,1.0,phase_1,,,,,,,,,,,,,gray,triangle
26.0,1.0,1.0,0.0,3.0,3.0,338.9015409629792,4.0,1.0,phase_1,,,,,,,,,,,,,white,diamond
81.0,6.0,2.0,1.0,4.0,4.0,330.1092840265482,4.0,1.0,phase_1,,,,,,,,,,,,,yellow,circle
400.0,4.0,4.0,0.0,3.0,3.0,382.990560028702,4.0,1.0,phase_1,,,,,,,,,,,,,gray,triangle
402.0,8.0,4.0,1.0,3.0,3.0,322.4511709995568,4.0,1.0,phase_1,,,,,,,,,,,,,blue,I
0.0,6.0,0.0,1.0,2.0,2.0,406.4286909997463,4.0,1.0,phase_1,,,,,,,,,,,,,yellow,circle
400.0,8.0,4.0,1.0,2.0,2.0,553.5794750321656,4.0,1.0,phase_1,,,,,,,,,,,,,blue,I
116.0,2.0,2.0,0.0,1.0,1.0,350.3856610041111,4.0,1.0,phase_1,,,,,,,,,,,,,orange,flipped triangle
410.0,4.0,4.0,0.0,1.0,1.0,333.1697210669517,4.0,1.0,phase_1,,,,,,,,,,,,,gray,triangle
0.0,4.0,0.0,0.0,4.0,4.0,362.7988188527524,4.0,1.0,phase_1,,,,,,,,,,,,,gray,triangle
389.0,8.0,4.0,1.0,2.0,2.0,396.3051019236445,4.0,1.0,phase_1,,,,,,,,,,,,,blue,I
0.0,1.0,0.0,0.0,3.0,3.0,330.0008219666779,4.0,1.0,phase_1,,,,,,,,,,,,,white,diamond
82.0,2.0,2.0,0.0,4.0,4.0,349.7381950728595,4.0,1.0,phase_1,,,,,,,,,,,,,orange,flipped triangle
98.0,6.0,2.0,1.0,3.0,3.0,284.0400938875973,4.0,1.0,phase_1,,,,,,,,,,,,,yellow,circle
116.0,6.0,2.0,1.0,1.0,1.0,552.3020038381219,4.0,1.0,phase_1,,,,,,,,,,,,,yellow,circle
0.0,6.0,0.0,1.0,1.0,1.0,307.7773118857294,4.0,1.0,phase_1,,,,,,,,,,,,,yellow,circle
97.0,2.0,2.0,0.0,1.0,1.0,313.0850959569216,4.0,1.0,phase_1,,,,,,,,,,,,,orange,flipped triangle
48.0,1.0,1.0,0.0,4.0,4.0,308.6772279348224,4.0,2.0,phase_1,,,,,,,,,,,,,white,diamond
379.0,8.0,4.0,1.0,2.0,2.0,333.2843689713627,4.0,1.0,phase_1,,,,,,,,,,,,,blue,I
180.0,3.0,3.0,0.0,2.0,2.0,284.7390740644187,4.0,1.0,phase_1,,,,,,,,,,,,,green,square
184.0,7.0,3.0,1.0,1.0,1.0,354.9885312095284,4.0,1.0,phase_1,,,,,,,,,,,,,magenta,cross
421.0,4.0,4.0,0.0,4.0,4.0,340.4444879852235,4.0,1.0,phase_1,,,,,,,,,,,,,gray,triangle
114.0,6.0,2.0,1.0,4.0,4.0,337.1640259865671,4.0,1.0,phase_1,,,,,,,,,,,,,yellow,circle
57.0,5.0,1.0,1.0,1.0,1.0,373.7508009653538,4.0,1.0,phase_1,,,,,,,,,,,,,cyan,hexagon
396.0,4.0,4.0,0.0,4.0,4.0,358.0085870344192,4.0,1.0,phase_1,,,,,,,,,,,,,gray,triangle
179.0,3.0,3.0,0.0,1.0,1.0,318.2499569375068,4.0,1.0,phase_1,,,,,,,,,,,,,green,square
179.0,7.0,3.0,1.0,3.0,3.0,349.6258491650224,4.0,1.0,phase_1,,,,,,,,,,,,,magenta,cross
408.0,4.0,4.0,0.0,1.0,1.0,424.0801460109651,4.0,1.0,phase_1,,,,,,,,,,,,,gray,triangle
97.0,6.0,2.0,1.0,1.0,1.0,358.6293230764568,4.0,1.0,phase_1,,,,,,,,,,,,,yellow,circle
31.0,1.0,1.0,0.0,2.0,2.0,338.1574640516191,4.0,1.0,phase_1,,,,,,,,,,,,,white,diamond
125.0,2.0,2.0,0.0,2.0,2.0,318.3434999082237,4.0,1.0,phase_1,,,,,,,,,,,,,orange,flipped triangle
27.0,1.0,1.0,0.0,3.0,3.0,434.8916402086615,4.0,1.0,phase_1,,,,,,,,,,,,,white,diamond
375.0,8.0,4.0,1.0,1.0,1.0,281.0916630551219,4.0,1.0,phase_1,,,,,,,,,,,,,blue,I
31.0,5.0,1.0,1.0,2.0,2.0,268.5240190476179,4.0,1.0,phase_1,,,,,,,,,,,,,cyan,hexagon
77.0,2.0,2.0,0.0,1.0,1.0,296.8475250527262,4.0,1.0,phase_1,,,,,,,,,,,,,orange,flipped triangle
57.0,5.0,1.0,1.0,1.0,1.0,285.3836459107697,4.0,1.0,phase_1,,,,,,,,,,,,,cyan,hexagon
412.0,8.0,4.0,1.0,3.0,3.0,346.0183790884912,4.0,1.0,phase_1,,,,,,,,,,,,,blue,I
47.0,5.0,1.0,1.0,2.0,2.0,358.9510188903659,4.0,1.0,phase_1,,,,,,,,,,,,,cyan,hexagon
0.0,5.0,0.0,1.0,2.0,2.0,251.62267708219588,4.0,1.0,phase_1,,,,,,,,,,,,,cyan,hexagon
184.0,3.0,3.0,0.0,1.0,1.0,266.2737260106951,4.0,1.0,phase_1,,,,,,,,,,,,,green,square
88.0,6.0,2.0,1.0,4.0,4.0,367.6956591662019,4.0,1.0,phase_1,,,,,,,,,,,,,yellow,circle
125.0,2.0,2.0,0.0,3.0,3.0,330.4384129587561,4.0,1.0,phase_1,,,,,,,,,,,,,orange,flipped triangle
27.0,5.0,1.0,1.0,3.0,3.0,310.3429938200861,4.0,1.0,phase_1,,,,,,,,,,,,,cyan,hexagon
102.0,6.0,2.0,1.0,3.0,3.0,437.403674935922,4.0,1.0,phase_1,,,,,,,,,,,,,yellow,circle
0.0,7.0,0.0,1.0,3.0,3.0,296.434598043561,4.0,1.0,phase_1,,,,,,,,,,,,,magenta,cross
0.0,1.0,0.0,0.0,4.0,4.0,333.5771281272173,4.0,1.0,phase_1,,,,,,,,,,,,,white,diamond
88.0,2.0,2.0,0.0,4.0,4.0,321.1496719159186,4.0,1.0,phase_1,,,,,,,,,,,,,orange,flipped triangle
123.0,6.0,2.0,1.0,4.0,4.0,296.7756160069257,4.0,1.0,phase_1,,,,,,,,,,,,,yellow,circle
0.0,8.0,0.0,1.0,2.0,2.0,261.9933870155364,4.0,1.0,phase_1,,,,,,,,,,,,,blue,I
379.0,4.0,4.0,0.0,4.0,4.0,267.1346690040082,4.0,1.0,phase_1,,,,,,,,,,,,,gray,triangle
406.0,8.0,4.0,1.0,2.0,2.0,292.3746870364994,4.0,1.0,phase_1,,,,,,,,,,,,,blue,I
0.0,1.0,0.0,0.0,4.0,4.0,306.3456639647484,4.0,1.0,phase_1,,,,,,,,,,,,,white,diamond
89.0,2.0,2.0,0.0,3.0,3.0,273.110968992114,4.0,1.0,phase_1,,,,,,,,,,,,,orange,flipped triangle
41.0,1.0,1.0,0.0,1.0,1.0,297.6404139772057,4.0,2.0,phase_1,,,,,,,,,,,,,white,diamond
392.0,4.0,4.0,0.0,1.0,1.0,374.4767869357019,4.0,1.0,phase_1,,,,,,,,,,,,,gray,triangle
51.0,1.0,1.0,0.0,3.0,3.0,329.5781319029629,4.0,1.0,phase_1,,,,,,,,,,,,,white,diamond
57.0,5.0,1.0,1.0,1.0,1.0,277.4128299206495,4.0,1.0,phase_1,,,,,,,,,,,,,cyan,hexagon
407.0,4.0,4.0,0.0,2.0,2.0,330.3117258474231,4.0,1.0,phase_1,,,,,,,,,,,,,gray,triangle
0.0,1.0,0.0,0.0,2.0,2.0,293.890813132748,4.0,1.0,phase_1,,,,,,,,,,,,,white,diamond
186.0,3.0,3.0,0.0,4.0,4.0,405.6778361555189,4.0,1.0,phase_1,,,,,,,,,,,,,green,square
121.0,6.0,2.0,1.0,2.0,2.0,264.0386829152703,4.0,1.0,phase_1,,,,,,,,,,,,,yellow,circle
389.0,4.0,4.0,0.0,4.0,4.0,395.8789729513228,4.0,1.0,phase_1,,,,,,,,,,,,,gray,triangle
84.0,6.0,2.0,1.0,3.0,3.0,260.7217680197209,4.0,1.0,phase_1,,,,,,,,,,,,,yellow,circle
0.0,6.0,0.0,1.0,3.0,3.0,297.3429020494222,4.0,1.0,phase_1,,,,,,,,,,,,,yellow,circle
186.0,7.0,3.0,1.0,2.0,2.0,285.6847629882395,4.0,1.0,phase_1,,,,,,,,,,,,,magenta,cross
176.0,7.0,3.0,1.0,1.0,1.0,297.0674820244312,4.0,1.0,phase_1,,,,,,,,,,,,,magenta,cross
72.0,1.0,1.0,0.0,1.0,1.0,299.8804550152272,4.0,1.0,phase_1,,,,,,,,,,,,,white,diamond
81.0,2.0,2.0,0.0,2.0,2.0,239.5987440831959,4.0,1.0,phase_1,,,,,,,,,,,,,orange,flipped triangle
43.0,1.0,1.0,0.0,1.0,1.0,376.9434050191194,4.0,1.0,phase_1,,,,,,,,,,,,,white,diamond
99.0,2.0,2.0,0.0,4.0,4.0,373.3196589164436,4.0,1.0,phase_1,,,,,,,,,,,,,orange,flipped triangle
78.0,2.0,2.0,0.0,3.0,3.0,272.6743470411747,4.0,1.0,phase_1,,,,,,,,,,,,,orange,flipped triangle
112.0,6.0,2.0,1.0,1.0,1.0,276.7388420179486,4.0,1.0,phase_1,,,,,,,,,,,,,yellow,circle
78.0,6.0,2.0,1.0,3.0,3.0,354.3146799784153,4.0,1.0,phase_1,,,,,,,,,,,,,yellow,circle
209.0,3.0,3.0,0.0,2.0,2.0,590.0949551723897,4.0,1.0,phase_1,,,,,,,,,,,,,green,square
0.0,3.0,0.0,0.0,3.0,3.0,309.1457430273294,4.0,1.0,phase_1,,,,,,,,,,,,,green,square
72.0,5.0,1.0,1.0,3.0,3.0,321.0790359880775,4.0,1.0,phase_1,,,,,,,,,,,,,cyan,hexagon
219.0,3.0,3.0,0.0,4.0,4.0,309.3857311177999,4.0,1.0,phase_1,,,,,,,,,,,,,green,square
114.0,2.0,2.0,0.0,1.0,1.0,321.3913899380713,4.0,1.0,phase_1,,,,,,,,,,,,,orange,flipped triangle
193.0,7.0,3.0,1.0,3.0,3.0,367.8021992091089,4.0,1.0,phase_1,,,,,,,,,,,,,magenta,cross
223.0,3.0,3.0,0.0,2.0,2.0,299.0315807983279,4.0,1.0,phase_1,,,,,,,,,,,,,green,square
392.0,4.0,4.0,0.0,1.0,1.0,317.2364081256091,4.0,1.0,phase_1,,,,,,,,,,,,,gray,triangle
43.0,1.0,1.0,0.0,3.0,3.0,252.85673094913358,4.0,1.0,phase_1,,,,,,,,,,,,,white,diamond
219.0,7.0,3.0,1.0,4.0,4.0,328.719754004851,4.0,1.0,phase_1,,,,,,,,,,,,,magenta,cross
0.0,2.0,0.0,0.0,3.0,3.0,268.9035199582577,4.0,1.0,phase_1,,,,,,,,,,,,,orange,flipped triangle
121.0,2.0,2.0,0.0,4.0,4.0,387.6831580419093,4.0,1.0,phase_1,,,,,,,,,,,,,orange,flipped triangle
395.0,8.0,4.0,1.0,1.0,1.0,324.6273789554834,4.0,1.0,phase_1,,,,,,,,,,,,,blue,I
380.0,8.0,4.0,1.0,3.0,3.0,250.2728349063545,4.0,1.0,phase_1,,,,,,,,,,,,,blue,I
87.0,2.0,2.0,0.0,1.0,1.0,272.9023161809891,4.0,1.0,phase_1,,,,,,,,,,,,,orange,flipped triangle
188.0,7.0,3.0,1.0,3.0,3.0,301.6300939489156,4.0,1.0,phase_1,,,,,,,,,,,,,magenta,cross
221.0,3.0,3.0,0.0,3.0,3.0,281.6205541603267,4.0,1.0,phase_1,,,,,,,,,,,,,green,square
225.0,7.0,3.0,1.0,3.0,3.0,309.5907350070774,4.0,1.0,phase_1,,,,,,,,,,,,,magenta,cross
97.0,6.0,2.0,1.0,1.0,1.0,313.472205074504,4.0,1.0,phase_1,,,,,,,,,,,,,yellow,circle
199.0,7.0,3.0,1.0,4.0,4.0,318.9235830213874,4.0,1.0,phase_1,,,,,,,,,,,,,magenta,cross
395.0,4.0,4.0,0.0,3.0,3.0,269.946196116507,4.0,1.0,phase_1,,,,,,,,,,,,,gray,triangle
57.0,1.0,1.0,0.0,1.0,1.0,273.701902013272,4.0,1.0,phase_1,,,,,,,,,,,,,white,diamond
41.0,5.0,1.0,1.0,2.0,2.0,309.7056041005999,4.0,1.0,phase_1,,,,,,,,,,,,,cyan,hexagon
45.0,1.0,1.0,0.0,3.0,3.0,298.0050749611109,4.0,1.0,phase_1,,,,,,,,,,,,,white,diamond
0.0,8.0,4.0,1.0,6.0,6.0,511.1073199659586,1.0,1.0,phase_2,stop,250.0,250.0,3.0,,,,,,,,,blue,I
0.0,4.0,4.0,0.0,5.0,5.0,435.6914269737899,1.0,1.0,phase_2,go,250.0,200.0,1.0,,,,,,,,,gray,triangle
0.0,1.0,1.0,0.0,5.0,5.0,522.1361550502479,1.0,1.0,phase_2,go,250.0,200.0,1.0,,,,,,,,,white,diamond
0.0,5.0,1.0,1.0,5.0,5.0,357.0507720578462,1.0,1.0,phase_2,go,250.0,200.0,1.0,,,,,,,,,cyan,hexagon
0.0,2.0,2.0,0.0,5.0,5.0,537.7320540137589,1.0,1.0,phase_2,go,250.0,200.0,1.0,,,,,,,,,orange,flipped triangle
0.0,6.0,2.0,1.0,5.0,0.0,0.0,1.0,1.0,phase_2,stop,250.0,200.0,4.0,,,,,,,,,yellow,circle
0.0,7.0,3.0,1.0,5.0,5.0,514.1242749523371,1.0,1.0,phase_2,go,300.0,200.0,1.0,,,,,,,,,magenta,cross
0.0,7.0,3.0,1.0,5.0,5.0,667.3518968746066,1.0,1.0,phase_2,go,300.0,200.0,1.0,,,,,,,,,magenta,cross
0.0,2.0,2.0,0.0,6.0,6.0,571.0379390511662,1.0,1.0,phase_2,go,300.0,200.0,1.0,,,,,,,,,orange,flipped triangle
0.0,1.0,1.0,0.0,5.0,5.0,622.5384119898081,1.0,1.0,phase_2,go,300.0,200.0,1.0,,,,,,,,,white,diamond
0.0,8.0,4.0,1.0,5.0,5.0,345.2680329792201,1.0,1.0,phase_2,go,300.0,200.0,1.0,,,,,,,,,blue,I
0.0,5.0,1.0,1.0,5.0,0.0,0.0,1.0,1.0,phase_2,stop,300.0,200.0,4.0,,,,,,,,,cyan,hexagon
0.0,4.0,4.0,0.0,6.0,6.0,573.2363010756671,1.0,1.0,phase_2,go,350.0,200.0,1.0,,,,,,,,,gray,triangle
0.0,3.0,3.0,0.0,5.0,5.0,845.8663171622902,1.0,1.0,phase_2,go,350.0,200.0,1.0,,,,,,,,,green,square
0.0,4.0,4.0,0.0,5.0,5.0,557.448168983683,1.0,1.0,phase_2,go,350.0,200.0,1.0,,,,,,,,,gray,triangle
0.0,3.0,3.0,0.0,5.0,5.0,547.3439630586654,1.0,1.0,phase_2,go,350.0,200.0,1.0,,,,,,,,,green,square
0.0,5.0,1.0,1.0,5.0,0.0,0.0,1.0,1.0,phase_2,stop,350.0,200.0,4.0,,,,,,,,,cyan,hexagon
0.0,2.0,2.0,0.0,6.0,6.0,574.3086119182408,1.0,1.0,phase_2,go,400.0,200.0,1.0,,,,,,,,,orange,flipped triangle
0.0,4.0,4.0,0.0,6.0,6.0,587.60807197541,1.0,1.0,phase_2,go,400.0,200.0,1.0,,,,,,,,,gray,triangle
0.0,7.0,3.0,1.0,6.0,6.0,636.2315129954368,1.0,1.0,phase_2,go,400.0,200.0,1.0,,,,,,,,,magenta,cross
0.0,4.0,4.0,0.0,5.0,5.0,892.4534469842911,1.0,1.0,phase_2,go,400.0,200.0,1.0,,,,,,,,,gray,triangle
0.0,8.0,4.0,1.0,6.0,0.0,0.0,1.0,1.0,phase_2,stop,400.0,200.0,4.0,,,,,,,,,blue,I
0.0,6.0,2.0,1.0,5.0,0.0,0.0,1.0,1.0,phase_2,stop,400.0,250.0,4.0,,,,,,,,,yellow,circle
0.0,4.0,4.0,0.0,5.0,5.0,648.2906250748783,1.0,1.0,phase_2,go,450.0,250.0,1.0,,,,,,,,,gray,triangle
0.0,3.0,3.0,0.0,5.0,5.0,607.1844201069325,1.0,1.0,phase_2,go,450.0,250.0,1.0,,,,,,,,,green,square
0.0,7.0,3.0,1.0,6.0,6.0,525.879979133606,1.0,1.0,phase_2,go,450.0,250.0,1.0,,,,,,,,,magenta,cross
0.0,6.0,2.0,1.0,5.0,5.0,671.7501790262759,1.0,1.0,phase_2,go,450.0,250.0,1.0,,,,,,,,,yellow,circle
0.0,2.0,2.0,0.0,6.0,6.0,526.3400948606431,1.0,1.0,phase_2,go,450.0,250.0,1.0,,,,,,,,,orange,flipped triangle
0.0,2.0,2.0,0.0,6.0,6.0,724.0683999843895,1.0,1.0,phase_2,go,450.0,250.0,1.0,,,,,,,,,orange,flipped triangle
0.0,3.0,3.0,0.0,6.0,6.0,787.6226759981364,1.0,1.0,phase_2,go,450.0,250.0,1.0,,,,,,,,,green,square
0.0,8.0,4.0,1.0,5.0,0.0,0.0,1.0,1.0,phase_2,stop,450.0,250.0,4.0,,,,,,,,,blue,I
0.0,7.0,3.0,1.0,5.0,0.0,0.0,1.0,1.0,phase_2,stop,500.0,250.0,4.0,,,,,,,,,magenta,cross
0.0,3.0,3.0,0.0,5.0,5.0,755.867427913472,1.0,1.0,phase_2,go,550.0,250.0,1.0,,,,,,,,,green,square
0.0,6.0,2.0,1.0,5.0,0.0,0.0,1.0,1.0,phase_2,stop,550.0,250.0,4.0,,,,,,,,,yellow,circle
0.0,7.0,3.0,1.0,6.0,0.0,0.0,1.0,1.0,phase_2,stop,600.0,250.0,4.0,,,,,,,,,magenta,cross
0.0,2.0,2.0,0.0,6.0,6.0,754.8918561078608,1.0,1.0,phase_2,go,600.0,300.0,1.0,,,,,,,,,orange,flipped triangle
0.0,5.0,1.0,1.0,6.0,6.0,888.4740511421114,2.0,1.0,phase_2,go,600.0,300.0,1.0,,,,,,,,,cyan,hexagon
0.0,3.0,3.0,0.0,6.0,6.0,638.8236479833722,2.0,1.0,phase_2,go,600.0,300.0,1.0,,,,,,,,,green,square
0.0,6.0,2.0,1.0,5.0,5.0,649.2149520199746,2.0,1.0,phase_2,stop,600.0,300.0,3.0,,,,,,,,,yellow,circle
0.0,2.0,2.0,0.0,6.0,6.0,736.65416915901,2.0,1.0,phase_2,go,550.0,300.0,1.0,,,,,,,,,orange,flipped triangle
0.0,6.0,2.0,1.0,6.0,6.0,823.7015779595822,2.0,1.0,phase_2,go,550.0,300.0,1.0,,,,,,,,,yellow,circle
0.0,1.0,1.0,0.0,5.0,5.0,743.0650480091572,2.0,1.0,phase_2,go,550.0,300.0,1.0,,,,,,,,,white,diamond
0.0,2.0,2.0,0.0,6.0,6.0,677.004155004397,2.0,1.0,phase_2,go,550.0,300.0,1.0,,,,,,,,,orange,flipped triangle
0.0,7.0,3.0,1.0,5.0,0.0,0.0,2.0,1.0,phase_2,stop,550.0,300.0,4.0,,,,,,,,,magenta,cross
0.0,3.0,3.0,0.0,6.0,6.0,714.866376016289,2.0,1.0,phase_2,go,600.0,300.0,1.0,,,,,,,,,green,square
0.0,3.0,3.0,0.0,6.0,6.0,780.9468780178577,2.0,1.0,phase_2,go,600.0,300.0,1.0,,,,,,,,,green,square
0.0,3.0,3.0,0.0,5.0,5.0,708.1348728388548,2.0,1.0,phase_2,go,600.0,300.0,1.0,,,,,,,,,green,square
0.0,6.0,2.0,1.0,6.0,0.0,0.0,2.0,1.0,phase_2,stop,600.0,300.0,4.0,,,,,,,,,yellow,circle
0.0,2.0,2.0,0.0,5.0,5.0,675.3372410312295,2.0,1.0,phase_2,go,600.0,350.0,1.0,,,,,,,,,orange,flipped triangle
0.0,5.0,1.0,1.0,5.0,5.0,628.5375349689275,2.0,1.0,phase_2,stop,600.0,350.0,3.0,,,,,,,,,cyan,hexagon
0.0,4.0,4.0,0.0,5.0,5.0,713.6852168478072,2.0,1.0,phase_2,go,550.0,350.0,1.0,,,,,,,,,gray,triangle
0.0,1.0,1.0,0.0,5.0,5.0,943.7117741908878,2.0,1.0,phase_2,go,550.0,350.0,1.0,,,,,,,,,white,diamond
0.0,4.0,4.0,0.0,5.0,5.0,737.8523021470755,2.0,1.0,phase_2,go,550.0,350.0,1.0,,,,,,,,,gray,triangle
0.0,8.0,4.0,1.0,5.0,5.0,783.4603749215603,2.0,1.0,phase_2,go,550.0,350.0,1.0,,,,,,,,,blue,I
0.0,5.0,1.0,1.0,5.0,0.0,0.0,2.0,1.0,phase_2,stop,550.0,350.0,4.0,,,,,,,,,cyan,hexagon
0.0,4.0,4.0,0.0,6.0,6.0,629.1005508974195,2.0,1.0,phase_2,go,600.0,350.0,1.0,,,,,,,,,gray,triangle
0.0,1.0,1.0,0.0,6.0,6.0,831.304491031915,2.0,1.0,phase_2,go,600.0,350.0,1.0,,,,,,,,,white,diamond
0.0,2.0,2.0,0.0,5.0,5.0,532.4799939990044,2.0,1.0,phase_2,go,600.0,350.0,1.0,,,,,,,,,orange,flipped triangle
0.0,8.0,4.0,1.0,6.0,6.0,727.2935109212995,2.0,1.0,phase_2,go,600.0,350.0,1.0,,,,,,,,,blue,I
0.0,7.0,3.0,1.0,5.0,5.0,667.5983460154384,2.0,1.0,phase_2,go,600.0,350.0,1.0,,,,,,,,,magenta,cross
0.0,6.0,2.0,1.0,5.0,5.0,574.0621529985219,2.0,1.0,phase_2,stop,600.0,350.0,3.0,,,,,,,,,yellow,circle
0.0,8.0,4.0,1.0,6.0,6.0,597.4361698608845,2.0,1.0,phase_2,go,550.0,350.0,1.0,,,,,,,,,blue,I
0.0,6.0,2.0,1.0,6.0,0.0,0.0,2.0,1.0,phase_2,stop,550.0,350.0,4.0,,,,,,,,,yellow,circle
0.0,6.0,2.0,1.0,6.0,6.0,859.0575710404664,2.0,1.0,phase_2,go,550.0,400.0,1.0,,,,,,,,,yellow,circle
0.0,1.0,1.0,0.0,6.0,6.0,795.8722258917987,2.0,1.0,phase_2,go,550.0,400.0,1.0,,,,,,,,,white,diamond
0.0,2.0,2.0,0.0,5.0,5.0,952.3554060142488,2.0,1.0,phase_2,go,550.0,400.0,1.0,,,,,,,,,orange,flipped triangle
0.0,5.0,1.0,1.0,5.0,0.0,0.0,2.0,1.0,phase_2,stop,550.0,400.0,4.0,,,,,,,,,cyan,hexagon
0.0,3.0,3.0,0.0,6.0,6.0,759.9735790863633,2.0,1.0,phase_2,go,600.0,400.0,1.0,,,,,,,,,green,square
0.0,8.0,4.0,1.0,5.0,0.0,0.0,2.0,1.0,phase_2,stop,600.0,400.0,4.0,,,,,,,,,blue,I
0.0,4.0,4.0,0.0,6.0,6.0,751.0680428240448,2.0,1.0,phase_2,go,650.0,400.0,1.0,,,,,,,,,gray,triangle
0.0,7.0,3.0,1.0,6.0,0.0,0.0,2.0,1.0,phase_2,stop,650.0,400.0,4.0,,,,,,,,,magenta,cross
0.0,1.0,1.0,0.0,6.0,6.0,781.1094888020307,2.0,1.0,phase_2,go,650.0,450.0,1.0,,,,,,,,,white,diamond
0.0,7.0,3.0,1.0,5.0,5.0,998.852102085948,3.0,1.0,phase_2,go,650.0,450.0,1.0,,,,,,,,,magenta,cross
0.0,4.0,4.0,0.0,6.0,6.0,1038.3209309075028,3.0,1.0,phase_2,go,650.0,450.0,1.0,,,,,,,,,gray,triangle
0.0,6.0,2.0,1.0,5.0,5.0,1005.6137549690902,3.0,1.0,phase_2,go,650.0,450.0,1.0,,,,,,,,,yellow,circle
0.0,7.0,3.0,1.0,6.0,6.0,721.0927109699696,3.0,1.0,phase_2,stop,650.0,450.0,3.0,,,,,,,,,magenta,cross
0.0,2.0,2.0,0.0,5.0,5.0,382.5928871519863,3.0,1.0,phase_2,go,650.0,400.0,1.0,,,,,,,,,orange,flipped triangle
0.0,4.0,4.0,0.0,6.0,6.0,750.7780019659549,3.0,1.0,phase_2,go,650.0,400.0,1.0,,,,,,,,,gray,triangle
0.0,7.0,3.0,1.0,6.0,0.0,0.0,3.0,1.0,phase_2,stop,650.0,400.0,4.0,,,,,,,,,magenta,cross
0.0,7.0,3.0,1.0,6.0,0.0,0.0,3.0,1.0,phase_2,stop,650.0,450.0,4.0,,,,,,,,,magenta,cross
0.0,4.0,4.0,0.0,5.0,5.0,826.4341689646244,3.0,1.0,phase_2,go,650.0,500.0,1.0,,,,,,,,,gray,triangle
0.0,8.0,4.0,1.0,5.0,5.0,580.2454899530858,3.0,1.0,phase_2,stop,650.0,500.0,3.0,,,,,,,,,blue,I
0.0,6.0,2.0,1.0,5.0,0.0,0.0,3.0,1.0,phase_2,stop,600.0,500.0,4.0,,,,,,,,,yellow,circle
0.0,2.0,2.0,0.0,6.0,6.0,1056.9817922078073,3.0,1.0,phase_2,go,650.0,500.0,1.0,,,,,,,,,orange,flipped triangle
0.0,5.0,1.0,1.0,6.0,0.0,0.0,3.0,1.0,phase_2,stop,650.0,500.0,4.0,,,,,,,,,cyan,hexagon
0.0,1.0,1.0,0.0,6.0,6.0,1048.442451050505,3.0,1.0,phase_2,go,650.0,550.0,1.0,,,,,,,,,white,diamond
0.0,7.0,3.0,1.0,5.0,0.0,0.0,3.0,1.0,phase_2,stop,650.0,550.0,4.0,,,,,,,,,magenta,cross
0.0,1.0,1.0,0.0,6.0,6.0,738.6854710057378,3.0,1.0,phase_2,go,700.0,550.0,1.0,,,,,,,,,white,diamond
0.0,3.0,3.0,0.0,5.0,5.0,833.2846029661596,3.0,1.0,phase_2,go,700.0,550.0,1.0,,,,,,,,,green,square
0.0,6.0,2.0,1.0,6.0,0.0,0.0,3.0,1.0,phase_2,stop,700.0,550.0,4.0,,,,,,,,,yellow,circle
0.0,2.0,2.0,0.0,5.0,5.0,838.8602470513433,3.0,1.0,phase_2,go,700.0,600.0,1.0,,,,,,,,,orange,flipped triangle
0.0,4.0,4.0,0.0,6.0,6.0,872.248942963779,3.0,1.0,phase_2,go,700.0,600.0,1.0,,,,,,,,,gray,triangle
0.0,5.0,1.0,1.0,5.0,5.0,868.6449229717255,3.0,1.0,phase_2,go,700.0,600.0,1.0,,,,,,,,,cyan,hexagon
0.0,3.0,3.0,0.0,6.0,6.0,783.1855728290975,3.0,1.0,phase_2,go,700.0,600.0,1.0,,,,,,,,,green,square
0.0,4.0,4.0,0.0,6.0,6.0,789.7386378608644,3.0,1.0,phase_2,go,700.0,600.0,1.0,,,,,,,,,gray,triangle
0.0,6.0,2.0,1.0,6.0,6.0,636.7249041795731,3.0,1.0,phase_2,stop,700.0,600.0,3.0,,,,,,,,,yellow,circle
0.0,8.0,4.0,1.0,6.0,0.0,0.0,3.0,1.0,phase_2,stop,700.0,550.0,4.0,,,,,,,,,blue,I
0.0,8.0,4.0,1.0,5.0,5.0,827.1174728870392,3.0,1.0,phase_2,go,700.0,600.0,1.0,,,,,,,,,blue,I
0.0,5.0,1.0,1.0,5.0,5.0,553.1353608239442,3.0,1.0,phase_2,stop,700.0,600.0,3.0,,,,,,,,,cyan,hexagon
0.0,5.0,1.0,1.0,5.0,0.0,0.0,3.0,1.0,phase_2,stop,650.0,600.0,4.0,,,,,,,,,cyan,hexagon
0.0,5.0,1.0,1.0,6.0,0.0,0.0,3.0,1.0,phase_2,stop,700.0,600.0,4.0,,,,,,,,,cyan,hexagon
0.0,1.0,1.0,0.0,5.0,5.0,910.5243950616568,3.0,1.0,phase_2,go,700.0,650.0,1.0,,,,,,,,,white,diamond
0.0,1.0,1.0,0.0,5.0,5.0,936.2573840189724,3.0,1.0,phase_2,go,700.0,650.0,1.0,,,,,,,,,white,diamond
0.0,1.0,1.0,0.0,6.0,6.0,736.2224089447409,3.0,1.0,phase_2,go,700.0,650.0,1.0,,,,,,,,,white,diamond
0.0,8.0,4.0,1.0,5.0,5.0,807.8672718256712,3.0,1.0,phase_2,stop,700.0,650.0,3.0,,,,,,,,,blue,I
0.0,5.0,1.0,1.0,6.0,6.0,911.6659979335964,3.0,1.0,phase_2,go,650.0,650.0,1.0,,,,,,,,,cyan,hexagon
0.0,7.0,3.0,1.0,6.0,0.0,0.0,3.0,1.0,phase_2,stop,650.0,650.0,4.0,,,,,,,,,magenta,cross
0.0,3.0,3.0,0.0,6.0,6.0,940.7820161432028,3.0,1.0,phase_2,go,650.0,700.0,1.0,,,,,,,,,green,square
0.0,1.0,1.0,0.0,5.0,5.0,360.6445458717644,4.0,1.0,phase_2,go,650.0,700.0,1.0,,,,,,,,,white,diamond
0.0,1.0,1.0,0.0,6.0,6.0,545.7189329899848,4.0,1.0,phase_2,go,650.0,700.0,1.0,,,,,,,,,white,diamond
0.0,8.0,4.0,1.0,5.0,5.0,369.7973869275301,4.0,1.0,phase_2,stop,650.0,700.0,3.0,,,,,,,,,blue,I
0.0,5.0,1.0,1.0,6.0,6.0,513.3904570247978,4.0,1.0,phase_2,stop,600.0,700.0,3.0,,,,,,,,,cyan,hexagon
0.0,1.0,1.0,0.0,6.0,6.0,607.8945049084723,4.0,1.0,phase_2,go,600.0,650.0,1.0,,,,,,,,,white,diamond
0.0,8.0,4.0,1.0,6.0,6.0,718.9389059785753,4.0,1.0,phase_2,stop,600.0,650.0,3.0,,,,,,,,,blue,I
0.0,5.0,1.0,1.0,5.0,5.0,624.6569890063256,4.0,1.0,phase_2,stop,600.0,600.0,3.0,,,,,,,,,cyan,hexagon
0.0,4.0,4.0,0.0,6.0,6.0,708.6546861100942,4.0,1.0,phase_2,go,550.0,600.0,1.0,,,,,,,,,gray,triangle
0.0,7.0,3.0,1.0,6.0,6.0,668.5137741733342,4.0,1.0,phase_2,stop,550.0,600.0,3.0,,,,,,,,,magenta,cross
0.0,1.0,1.0,0.0,5.0,5.0,669.4532879628241,4.0,1.0,phase_2,go,550.0,550.0,1.0,,,,,,,,,white,diamond
0.0,7.0,3.0,1.0,6.0,6.0,986.913078930229,4.0,1.0,phase_2,stop,550.0,550.0,3.0,,,,,,,,,magenta,cross
0.0,8.0,4.0,1.0,5.0,0.0,0.0,4.0,1.0,phase_2,stop,550.0,500.0,4.0,,,,,,,,,blue,I
0.0,1.0,1.0,0.0,5.0,5.0,640.9413651563227,4.0,1.0,phase_2,go,600.0,500.0,1.0,,,,,,,,,white,diamond
0.0,6.0,2.0,1.0,6.0,0.0,0.0,4.0,1.0,phase_2,stop,600.0,500.0,4.0,,,,,,,,,yellow,circle
0.0,6.0,2.0,1.0,6.0,6.0,794.0099248662591,4.0,1.0,phase_2,go,600.0,550.0,1.0,,,,,,,,,yellow,circle
0.0,2.0,2.0,0.0,5.0,5.0,921.8809017911552,4.0,1.0,phase_2,go,600.0,550.0,1.0,,,,,,,,,orange,flipped triangle
0.0,8.0,4.0,1.0,5.0,0.0,0.0,4.0,1.0,phase_2,stop,600.0,550.0,4.0,,,,,,,,,blue,I
0.0,8.0,4.0,1.0,6.0,6.0,654.8217660747468,4.0,1.0,phase_2,stop,650.0,550.0,3.0,,,,,,,,,blue,I
0.0,4.0,4.0,0.0,6.0,6.0,720.839065965265,4.0,1.0,phase_2,go,650.0,500.0,1.0,,,,,,,,,gray,triangle
0.0,4.0,4.0,0.0,5.0,5.0,744.5296759251505,4.0,1.0,phase_2,go,650.0,500.0,1.0,,,,,,,,,gray,triangle
0.0,2.0,2.0,0.0,5.0,5.0,854.9795830622315,4.0,1.0,phase_2,go,650.0,500.0,1.0,,,,,,,,,orange,flipped triangle
0.0,8.0,4.0,1.0,6.0,6.0,653.674378991127,4.0,1.0,phase_2,stop,650.0,500.0,3.0,,,,,,,,,blue,I
0.0,7.0,3.0,1.0,5.0,5.0,702.993004117161,4.0,1.0,phase_2,stop,650.0,450.0,3.0,,,,,,,,,magenta,cross
0.0,8.0,4.0,1.0,6.0,6.0,427.8058961499482,4.0,1.0,phase_2,go,600.0,450.0,1.0,,,,,,,,,blue,I
0.0,8.0,4.0,1.0,6.0,0.0,0.0,4.0,1.0,phase_2,stop,600.0,450.0,4.0,,,,,,,,,blue,I
0.0,4.0,4.0,0.0,5.0,5.0,570.8330720663071,4.0,1.0,phase_2,go,600.0,500.0,1.0,,,,,,,,,gray,triangle
0.0,6.0,2.0,1.0,5.0,5.0,889.7008299827576,4.0,1.0,phase_2,go,600.0,500.0,1.0,,,,,,,,,yellow,circle
0.0,7.0,3.0,1.0,6.0,0.0,0.0,4.0,1.0,phase_2,stop,600.0,500.0,4.0,,,,,,,,,magenta,cross
0.0,8.0,4.0,1.0,5.0,5.0,401.0864018928259,4.0,1.0,phase_2,go,600.0,550.0,1.0,,,,,,,,,blue,I
0.0,1.0,1.0,0.0,6.0,6.0,497.8605629876256,4.0,1.0,phase_2,go,600.0,550.0,1.0,,,,,,,,,white,diamond
0.0,2.0,2.0,0.0,6.0,6.0,647.9486259631813,4.0,1.0,phase_2,go,600.0,550.0,1.0,,,,,,,,,orange,flipped triangle
0.0,2.0,2.0,0.0,6.0,6.0,713.584111072123,4.0,1.0,phase_2,go,600.0,550.0,1.0,,,,,,,,,orange,flipped triangle
0.0,3.0,3.0,0.0,5.0,5.0,687.1238078456372,4.0,1.0,phase_2,go,600.0,550.0,1.0,,,,,,,,,green,square
0.0,8.0,4.0,1.0,6.0,6.0,509.4268680550158,4.0,1.0,phase_2,stop,600.0,550.0,3.0,,,,,,,,,blue,I
0.0,2.0,2.0,0.0,5.0,5.0,661.9512718170881,4.0,1.0,phase_2,go,600.0,500.0,1.0,,,,,,,,,orange,flipped triangle
0.0,5.0,1.0,1.0,6.0,0.0,0.0,4.0,1.0,phase_2,stop,600.0,500.0,4.0,,,,,,,,,cyan,hexagon
0.0,3.0,3.0,0.0,6.0,6.0,292.3574831802398,5.0,1.0,phase_2,go,600.0,550.0,1.0,,,,,,,,,green,square
0.0,8.0,4.0,1.0,6.0,6.0,283.8316850829869,5.0,1.0,phase_2,stop,600.0,550.0,3.0,,,,,,,,,blue,I
0.0,5.0,1.0,1.0,6.0,6.0,347.6869678124785,5.0,1.0,phase_2,stop,600.0,500.0,3.0,,,,,,,,,cyan,hexagon
0.0,7.0,3.0,1.0,5.0,5.0,224.3425089400261,5.0,1.0,phase_2,stop,600.0,450.0,3.0,,,,,,,,,magenta,cross
0.0,8.0,4.0,1.0,5.0,5.0,600.3030540887266,5.0,1.0,phase_2,go,550.0,450.0,1.0,,,,,,,,,blue,I
0.0,3.0,3.0,0.0,5.0,5.0,314.1023989301175,5.0,1.0,phase_2,go,550.0,450.0,1.0,,,,,,,,,green,square
0.0,2.0,2.0,0.0,6.0,6.0,313.3145631290972,5.0,1.0,phase_2,go,550.0,450.0,1.0,,,,,,,,,orange,flipped triangle
0.0,4.0,4.0,0.0,5.0,5.0,498.0925689451396,5.0,1.0,phase_2,go,550.0,450.0,1.0,,,,,,,,,gray,triangle
0.0,3.0,3.0,0.0,6.0,6.0,289.4223569892347,5.0,1.0,phase_2,go,550.0,450.0,1.0,,,,,,,,,green,square
0.0,5.0,1.0,1.0,6.0,6.0,399.1889059543609,5.0,1.0,phase_2,stop,550.0,450.0,3.0,,,,,,,,,cyan,hexagon
0.0,6.0,2.0,1.0,6.0,6.0,549.5673140976578,5.0,1.0,phase_2,go,550.0,400.0,1.0,,,,,,,,,yellow,circle
0.0,1.0,1.0,0.0,6.0,6.0,284.334824886173,5.0,1.0,phase_2,go,550.0,400.0,1.0,,,,,,,,,white,diamond
0.0,2.0,2.0,0.0,5.0,5.0,284.8931108601391,5.0,1.0,phase_2,go,550.0,400.0,1.0,,,,,,,,,orange,flipped triangle
0.0,3.0,3.0,0.0,5.0,5.0,351.5493851155042,5.0,1.0,phase_2,go,550.0,400.0,1.0,,,,,,,,,green,square
0.0,1.0,1.0,0.0,6.0,6.0,370.6749051343649,5.0,1.0,phase_2,go,550.0,400.0,1.0,,,,,,,,,white,diamond
0.0,6.0,2.0,1.0,6.0,6.0,365.8355989027768,5.0,1.0,phase_2,go,550.0,400.0,1.0,,,,,,,,,yellow,circle
0.0,7.0,3.0,1.0,6.0,6.0,273.9293009508401,5.0,1.0,phase_2,stop,550.0,400.0,3.0,,,,,,,,,magenta,cross
0.0,2.0,2.0,0.0,5.0,5.0,253.10518802143628,5.0,1.0,phase_2,go,550.0,350.0,1.0,,,,,,,,,orange,flipped triangle
0.0,7.0,3.0,1.0,6.0,6.0,274.8300509992987,5.0,1.0,phase_2,stop,550.0,350.0,3.0,,,,,,,,,magenta,cross
0.0,7.0,3.0,1.0,5.0,5.0,239.5970989018678,5.0,1.0,phase_2,stop,550.0,300.0,3.0,,,,,,,,,magenta,cross
0.0,7.0,3.0,1.0,5.0,5.0,570.7260000053793,5.0,1.0,phase_2,stop,500.0,300.0,3.0,,,,,,,,,magenta,cross
0.0,4.0,4.0,0.0,6.0,6.0,514.7073769476265,5.0,1.0,phase_2,go,450.0,300.0,1.0,,,,,,,,,gray,triangle
0.0,6.0,2.0,1.0,6.0,0.0,0.0,5.0,1.0,phase_2,stop,450.0,300.0,4.0,,,,,,,,,yellow,circle
0.0,1.0,1.0,0.0,5.0,5.0,297.2350451163947,5.0,1.0,phase_2,go,450.0,350.0,1.0,,,,,,,,,white,diamond
0.0,3.0,3.0,0.0,5.0,5.0,382.7583470847457,5.0,1.0,phase_2,go,450.0,350.0,1.0,,,,,,,,,green,square
0.0,6.0,2.0,1.0,6.0,6.0,272.7133820299059,5.0,1.0,phase_2,go,450.0,350.0,1.0,,,,,,,,,yellow,circle
0.0,4.0,4.0,0.0,6.0,6.0,342.3540389630943,5.0,1.0,phase_2,go,450.0,350.0,1.0,,,,,,,,,gray,triangle
0.0,4.0,4.0,0.0,6.0,6.0,371.815396938473,5.0,1.0,phase_2,go,450.0,350.0,1.0,,,,,,,,,gray,triangle
0.0,5.0,1.0,1.0,6.0,6.0,373.9033488091081,5.0,1.0,phase_2,go,450.0,350.0,1.0,,,,,,,,,cyan,hexagon
0.0,8.0,4.0,1.0,5.0,5.0,538.9722769614309,5.0,1.0,phase_2,stop,450.0,350.0,3.0,,,,,,,,,blue,I
0.0,7.0,3.0,1.0,5.0,5.0,402.5555059779435,5.0,1.0,phase_2,go,400.0,350.0,1.0,,,,,,,,,magenta,cross
0.0,7.0,3.0,1.0,6.0,0.0,0.0,5.0,1.0,phase_2,stop,400.0,350.0,4.0,,,,,,,,,magenta,cross
0.0,1.0,1.0,0.0,5.0,5.0,347.1052600070834,5.0,1.0,phase_2,go,400.0,400.0,1.0,,,,,,,,,white,diamond
0.0,5.0,1.0,1.0,6.0,6.0,435.1005780044943,5.0,1.0,phase_2,go,400.0,400.0,1.0,,,,,,,,,cyan,hexagon
0.0,5.0,1.0,1.0,5.0,5.0,259.1772659216076,5.0,1.0,phase_2,go,400.0,400.0,1.0,,,,,,,,,cyan,hexagon
0.0,2.0,2.0,0.0,6.0,6.0,297.0016950275749,5.0,1.0,phase_2,go,400.0,400.0,1.0,,,,,,,,,orange,flipped triangle
0.0,4.0,4.0,0.0,5.0,5.0,392.1460870187729,6.0,1.0,phase_2,go,400.0,400.0,1.0,,,,,,,,,gray,triangle
0.0,6.0,2.0,1.0,5.0,5.0,278.8423378951847,6.0,1.0,phase_2,stop,400.0,400.0,3.0,,,,,,,,,yellow,circle
0.0,6.0,2.0,1.0,5.0,5.0,293.2916998397559,6.0,1.0,phase_2,stop,350.0,400.0,3.0,,,,,,,,,yellow,circle
0.0,3.0,3.0,0.0,6.0,6.0,436.9194188620895,6.0,1.0,phase_2,go,300.0,400.0,1.0,,,,,,,,,green,square
0.0,6.0,2.0,1.0,5.0,5.0,290.8988650888204,6.0,1.0,phase_2,stop,300.0,400.0,3.0,,,,,,,,,yellow,circle
0.0,8.0,4.0,1.0,6.0,6.0,324.9740921892226,6.0,1.0,phase_2,stop,250.0,400.0,3.0,,,,,,,,,blue,I
0.0,2.0,2.0,0.0,6.0,6.0,576.9927629735321,6.0,1.0,phase_2,go,250.0,350.0,1.0,,,,,,,,,orange,flipped triangle
0.0,7.0,3.0,1.0,6.0,6.0,643.3783280663192,6.0,1.0,phase_2,go,250.0,350.0,1.0,,,,,,,,,magenta,cross
0.0,3.0,3.0,0.0,6.0,6.0,690.9704019781202,6.0,1.0,phase_2,go,250.0,350.0,1.0,,,,,,,,,green,square
0.0,5.0,1.0,1.0,5.0,0.0,0.0,6.0,1.0,phase_2,stop,250.0,350.0,4.0,,,,,,,,,cyan,hexagon
0.0,8.0,4.0,1.0,6.0,6.0,322.2378301434219,6.0,1.0,phase_2,stop,300.0,350.0,3.0,,,,,,,,,blue,I
0.0,4.0,4.0,0.0,5.0,5.0,514.0298630576581,6.0,1.0,phase_2,go,300.0,300.0,1.0,,,,,,,,,gray,triangle
0.0,6.0,2.0,1.0,6.0,0.0,0.0,6.0,1.0,phase_2,stop,300.0,300.0,4.0,,,,,,,,,yellow,circle
0.0,7.0,3.0,1.0,5.0,0.0,0.0,6.0,1.0,phase_2,stop,300.0,350.0,4.0,,,,,,,,,magenta,cross
0.0,2.0,2.0,0.0,6.0,6.0,342.9647779557854,6.0,1.0,phase_2,go,350.0,350.0,1.0,,,,,,,,,orange,flipped triangle
0.0,7.0,3.0,1.0,5.0,0.0,0.0,6.0,1.0,phase_2,stop,350.0,350.0,4.0,,,,,,,,,magenta,cross
0.0,4.0,4.0,0.0,5.0,5.0,413.1203768774867,6.0,1.0,phase_2,go,400.0,350.0,1.0,,,,,,,,,gray,triangle
0.0,6.0,2.0,1.0,5.0,5.0,491.313932929188,6.0,1.0,phase_2,stop,400.0,350.0,3.0,,,,,,,,,yellow,circle
0.0,3.0,3.0,0.0,5.0,5.0,589.344231877476,6.0,1.0,phase_2,go,350.0,350.0,1.0,,,,,,,,,green,square
0.0,2.0,2.0,0.0,6.0,6.0,317.197066033259,6.0,1.0,phase_2,go,350.0,350.0,1.0,,,,,,,,,orange,flipped triangle
0.0,6.0,2.0,1.0,6.0,6.0,345.3970330301672,6.0,1.0,phase_2,stop,350.0,350.0,3.0,,,,,,,,,yellow,circle
0.0,5.0,1.0,1.0,6.0,0.0,0.0,6.0,1.0,phase_2,stop,350.0,300.0,4.0,,,,,,,,,cyan,hexagon
0.0,8.0,4.0,1.0,5.0,5.0,304.0430250111967,6.0,1.0,phase_2,stop,350.0,350.0,3.0,,,,,,,,,blue,I
0.0,4.0,4.0,0.0,6.0,6.0,411.788600962609,6.0,1.0,phase_2,go,300.0,350.0,1.0,,,,,,,,,gray,triangle
0.0,6.0,2.0,1.0,5.0,0.0,0.0,6.0,1.0,phase_2,stop,300.0,350.0,4.0,,,,,,,,,yellow,circle
0.0,5.0,1.0,1.0,5.0,0.0,0.0,6.0,1.0,phase_2,stop,350.0,350.0,4.0,,,,,,,,,cyan,hexagon
0.0,3.0,3.0,0.0,6.0,6.0,341.8688278179616,6.0,1.0,phase_2,go,400.0,350.0,1.0,,,,,,,,,green,square
0.0,5.0,1.0,1.0,6.0,6.0,441.2260539829731,6.0,1.0,phase_2,stop,400.0,350.0,3.0,,,,,,,,,cyan,hexagon
0.0,2.0,2.0,0.0,5.0,5.0,544.3733630236238,6.0,1.0,phase_2,go,400.0,300.0,1.0,,,,,,,,,orange,flipped triangle
0.0,2.0,2.0,0.0,6.0,6.0,661.0719030722976,6.0,1.0,phase_2,go,400.0,300.0,1.0,,,,,,,,,orange,flipped triangle
0.0,6.0,2.0,1.0,5.0,0.0,0.0,6.0,1.0,phase_2,stop,400.0,300.0,4.0,,,,,,,,,yellow,circle
0.0,2.0,2.0,0.0,5.0,5.0,525.7551549002528,6.0,1.0,phase_2,go,450.0,300.0,1.0,,,,,,,,,orange,flipped triangle
0.0,1.0,1.0,0.0,6.0,6.0,435.7470150571316,6.0,1.0,phase_2,go,450.0,300.0,1.0,,,,,,,,,white,diamond
0.0,8.0,4.0,1.0,6.0,0.0,0.0,6.0,1.0,phase_2,stop,450.0,300.0,4.0,,,,,,,,,blue,I
0.0,5.0,1.0,1.0,5.0,5.0,412.2991189360618,6.0,1.0,phase_2,stop,450.0,350.0,3.0,,,,,,,,,cyan,hexagon
0.0,2.0,2.0,0.0,5.0,5.0,436.5218998864293,6.0,1.0,phase_2,go,400.0,350.0,1.0,,,,,,,,,orange,flipped triangle
0.0,7.0,3.0,1.0,5.0,5.0,422.1484910231083,7.0,1.0,phase_2,stop,400.0,350.0,3.0,,,,,,,,,magenta,cross
0.0,6.0,2.0,1.0,5.0,0.0,0.0,7.0,1.0,phase_2,stop,350.0,350.0,4.0,,,,,,,,,yellow,circle
0.0,7.0,3.0,1.0,5.0,5.0,678.2532169017941,7.0,1.0,phase_2,go,400.0,350.0,1.0,,,,,,,,,magenta,cross
0.0,4.0,4.0,0.0,5.0,5.0,595.6222738604993,7.0,1.0,phase_2,go,400.0,350.0,1.0,,,,,,,,,gray,triangle
0.0,7.0,3.0,1.0,5.0,0.0,0.0,7.0,1.0,phase_2,stop,400.0,350.0,4.0,,,,,,,,,magenta,cross
0.0,8.0,4.0,1.0,5.0,5.0,544.835508801043,7.0,1.0,phase_2,stop,450.0,350.0,3.0,,,,,,,,,blue,I
0.0,3.0,3.0,0.0,5.0,5.0,688.8985179830343,7.0,1.0,phase_2,go,400.0,350.0,1.0,,,,,,,,,green,square
0.0,1.0,1.0,0.0,6.0,6.0,722.5638420786709,7.0,1.0,phase_2,go,400.0,350.0,1.0,,,,,,,,,white,diamond
0.0,7.0,3.0,1.0,6.0,0.0,0.0,7.0,1.0,phase_2,stop,400.0,350.0,4.0,,,,,,,,,magenta,cross
0.0,3.0,3.0,0.0,6.0,6.0,526.0344489943236,7.0,1.0,phase_2,go,400.0,400.0,1.0,,,,,,,,,green,square
0.0,8.0,4.0,1.0,6.0,6.0,616.7435550596565,7.0,1.0,phase_2,go,400.0,400.0,1.0,,,,,,,,,blue,I
0.0,2.0,2.0,0.0,5.0,5.0,496.6823689173907,7.0,1.0,phase_2,go,400.0,400.0,1.0,,,,,,,,,orange,flipped triangle
0.0,2.0,2.0,0.0,5.0,5.0,360.3947551455349,7.0,1.0,phase_2,go,400.0,400.0,1.0,,,,,,,,,orange,flipped triangle
0.0,1.0,1.0,0.0,6.0,6.0,363.756394945085,7.0,1.0,phase_2,go,400.0,400.0,1.0,,,,,,,,,white,diamond
0.0,1.0,1.0,0.0,5.0,5.0,286.8796400725841,7.0,1.0,phase_2,go,400.0,400.0,1.0,,,,,,,,,white,diamond
0.0,5.0,1.0,1.0,6.0,6.0,237.2695570811629,7.0,1.0,phase_2,stop,400.0,400.0,3.0,,,,,,,,,cyan,hexagon
0.0,1.0,1.0,0.0,5.0,5.0,254.4576448854059,7.0,1.0,phase_2,go,400.0,350.0,1.0,,,,,,,,,white,diamond
0.0,8.0,4.0,1.0,6.0,6.0,323.5338260419667,7.0,1.0,phase_2,stop,400.0,350.0,3.0,,,,,,,,,blue,I
0.0,4.0,4.0,0.0,6.0,6.0,401.5161460265517,7.0,1.0,phase_2,go,400.0,300.0,1.0,,,,,,,,,gray,triangle
0.0,2.0,2.0,0.0,6.0,6.0,304.5274040196091,7.0,1.0,phase_2,go,400.0,300.0,1.0,,,,,,,,,orange,flipped triangle
0.0,6.0,2.0,1.0,5.0,5.0,256.3108408357948,7.0,1.0,phase_2,stop,400.0,300.0,3.0,,,,,,,,,yellow,circle
0.0,3.0,3.0,0.0,6.0,6.0,223.1113149318844,7.0,1.0,phase_2,go,350.0,300.0,1.0,,,,,,,,,green,square
0.0,4.0,4.0,0.0,6.0,6.0,362.1931711677462,7.0,1.0,phase_2,go,350.0,300.0,1.0,,,,,,,,,gray,triangle
0.0,3.0,3.0,0.0,5.0,5.0,238.3293760940432,7.0,1.0,phase_2,go,350.0,300.0,1.0,,,,,,,,,green,square
0.0,7.0,3.0,1.0,5.0,5.0,385.3051229380071,7.0,1.0,phase_2,stop,350.0,300.0,3.0,,,,,,,,,magenta,cross
0.0,4.0,4.0,0.0,5.0,5.0,424.5954791549593,7.0,1.0,phase_2,go,300.0,300.0,1.0,,,,,,,,,gray,triangle
0.0,4.0,4.0,0.0,5.0,5.0,421.1433548480272,7.0,1.0,phase_2,go,300.0,300.0,1.0,,,,,,,,,gray,triangle
0.0,5.0,1.0,1.0,5.0,5.0,252.07634596154088,7.0,1.0,phase_2,stop,300.0,300.0,3.0,,,,,,,,,cyan,hexagon
0.0,3.0,3.0,0.0,5.0,5.0,268.3597181458026,7.0,1.0,phase_2,go,250.0,300.0,1.0,,,,,,,,,green,square
0.0,3.0,3.0,0.0,6.0,6.0,338.7819190975278,7.0,1.0,phase_2,go,250.0,300.0,1.0,,,,,,,,,green,square
0.0,1.0,1.0,0.0,5.0,5.0,268.4002639725804,7.0,1.0,phase_2,go,250.0,300.0,1.0,,,,,,,,,white,diamond
0.0,3.0,3.0,0.0,6.0,6.0,469.1749019548297,7.0,1.0,phase_2,go,250.0,300.0,1.0,,,,,,,,,green,square
0.0,1.0,1.0,0.0,5.0,5.0,388.0636040121317,7.0,1.0,phase_2,go,250.0,300.0,1.0,,,,,,,,,white,diamond
0.0,8.0,4.0,1.0,5.0,5.0,323.6263250000775,7.0,1.0,phase_2,stop,250.0,300.0,3.0,,,,,,,,,blue,I
0.0,7.0,3.0,1.0,6.0,6.0,235.5009990278631,7.0,1.0,phase_2,stop,200.0,300.0,3.0,,,,,,,,,magenta,cross
0.0,5.0,1.0,1.0,5.0,0.0,0.0,7.0,1.0,phase_2,stop,200.0,250.0,4.0,,,,,,,,,cyan,hexagon
0.0,4.0,4.0,0.0,6.0,6.0,429.5329730957746,8.0,1.0,phase_2,go,250.0,250.0,1.0,,,,,,,,,gray,triangle
0.0,1.0,1.0,0.0,5.0,5.0,292.7980900276452,8.0,1.0,phase_2,go,250.0,250.0,1.0,,,,,,,,,white,diamond
0.0,1.0,1.0,0.0,6.0,6.0,260.1008471101522,8.0,1.0,phase_2,go,250.0,250.0,1.0,,,,,,,,,white,diamond
0.0,5.0,1.0,1.0,6.0,6.0,315.3381010051816,8.0,1.0,phase_2,stop,250.0,250.0,3.0,,,,,,,,,cyan,hexagon
0.0,1.0,1.0,0.0,6.0,6.0,307.4547299183905,8.0,1.0,phase_2,go,250.0,200.0,1.0,,,,,,,,,white,diamond
0.0,5.0,1.0,1.0,6.0,6.0,301.2421068269759,8.0,1.0,phase_2,go,250.0,200.0,1.0,,,,,,,,,cyan,hexagon
0.0,8.0,4.0,1.0,5.0,0.0,0.0,8.0,1.0,phase_2,stop,250.0,200.0,4.0,,,,,,,,,blue,I
0.0,5.0,1.0,1.0,5.0,0.0,0.0,8.0,1.0,phase_2,stop,300.0,200.0,4.0,,,,,,,,,cyan,hexagon
0.0,1.0,1.0,0.0,5.0,5.0,403.5983399953693,8.0,1.0,phase_2,go,350.0,200.0,1.0,,,,,,,,,white,diamond
0.0,5.0,1.0,1.0,5.0,5.0,481.9684841204434,8.0,1.0,phase_2,go,350.0,200.0,1.0,,,,,,,,,cyan,hexagon
0.0,3.0,3.0,0.0,6.0,6.0,617.9620791226625,8.0,1.0,phase_2,go,350.0,200.0,1.0,,,,,,,,,green,square
0.0,6.0,2.0,1.0,6.0,0.0,0.0,8.0,1.0,phase_2,stop,350.0,200.0,4.0,,,,,,,,,yellow,circle
0.0,8.0,4.0,1.0,5.0,5.0,306.0053291264921,8.0,1.0,phase_2,stop,350.0,250.0,3.0,,,,,,,,,blue,I
0.0,4.0,4.0,0.0,5.0,5.0,366.5320079308003,8.0,1.0,phase_2,go,300.0,250.0,1.0,,,,,,,,,gray,triangle
0.0,2.0,2.0,0.0,6.0,6.0,325.0951650552451,8.0,1.0,phase_2,go,300.0,250.0,1.0,,,,,,,,,orange,flipped triangle
0.0,5.0,1.0,1.0,6.0,6.0,375.1987281721085,8.0,1.0,phase_2,stop,300.0,250.0,3.0,,,,,,,,,cyan,hexagon
0.0,5.0,1.0,1.0,6.0,0.0,0.0,8.0,1.0,phase_2,stop,300.0,200.0,4.0,,,,,,,,,cyan,hexagon
0.0,3.0,3.0,0.0,6.0,6.0,638.0612489301711,8.0,1.0,phase_2,go,300.0,250.0,1.0,,,,,,,,,green,square
0.0,3.0,3.0,0.0,5.0,5.0,357.5534240808338,8.0,1.0,phase_2,go,300.0,250.0,1.0,,,,,,,,,green,square
0.0,2.0,2.0,0.0,5.0,5.0,293.7731039710343,8.0,1.0,phase_2,go,300.0,250.0,1.0,,,,,,,,,orange,flipped triangle
0.0,6.0,2.0,1.0,6.0,6.0,307.0259010419249,8.0,1.0,phase_2,stop,300.0,250.0,3.0,,,,,,,,,yellow,circle
0.0,6.0,2.0,1.0,6.0,0.0,0.0,8.0,1.0,phase_2,stop,300.0,200.0,4.0,,,,,,,,,yellow,circle
0.0,3.0,3.0,0.0,5.0,5.0,402.2039019037038,8.0,1.0,phase_2,go,300.0,250.0,1.0,,,,,,,,,green,square
0.0,1.0,1.0,0.0,6.0,6.0,468.2289860211313,8.0,1.0,phase_2,go,300.0,250.0,1.0,,,,,,,,,white,diamond
0.0,3.0,3.0,0.0,5.0,5.0,313.3402809035033,8.0,1.0,phase_2,go,300.0,250.0,1.0,,,,,,,,,green,square
0.0,6.0,2.0,1.0,5.0,0.0,0.0,8.0,1.0,phase_2,stop,300.0,250.0,4.0,,,,,,,,,yellow,circle
0.0,1.0,1.0,0.0,5.0,5.0,326.609126990661,8.0,1.0,phase_2,go,350.0,250.0,1.0,,,,,,,,,white,diamond
0.0,6.0,2.0,1.0,6.0,0.0,0.0,8.0,1.0,phase_2,stop,350.0,250.0,4.0,,,,,,,,,yellow,circle
0.0,4.0,4.0,0.0,5.0,5.0,398.0025220662355,8.0,1.0,phase_2,go,350.0,300.0,1.0,,,,,,,,,gray,triangle
0.0,1.0,1.0,0.0,6.0,6.0,272.020568838343,8.0,1.0,phase_2,go,350.0,300.0,1.0,,,,,,,,,white,diamond
0.0,7.0,3.0,1.0,6.0,6.0,356.9898649584502,8.0,1.0,phase_2,stop,350.0,300.0,3.0,,,,,,,,,magenta,cross
0.0,3.0,3.0,0.0,5.0,5.0,636.5100569091737,8.0,1.0,phase_2,go,350.0,250.0,1.0,,,,,,,,,green,square
0.0,4.0,4.0,0.0,6.0,6.0,342.3128360882401,8.0,1.0,phase_2,go,350.0,250.0,1.0,,,,,,,,,gray,triangle
0.0,2.0,2.0,0.0,5.0,5.0,332.2518470231443,8.0,1.0,phase_2,go,350.0,250.0,1.0,,,,,,,,,orange,flipped triangle
0.0,8.0,4.0,1.0,6.0,6.0,363.233488984406,8.0,1.0,phase_2,stop,350.0,250.0,3.0,,,,,,,,,blue,I
0.0,5.0,1.0,1.0,6.0,0.0,0.0,8.0,1.0,phase_2,stop,350.0,200.0,4.0,,,,,,,,,cyan,hexagon
0.0,7.0,3.0,1.0,7.0,2.0,2458.1794671248645,1.0,1.0,phase_3,,,,,195.0,5.0,156.0,195.0,39.0,234.0,78.0,117.0,magenta,cross
0.0,6.0,2.0,1.0,7.0,3.0,1751.1541692074388,1.0,1.0,phase_3,,,,,108.0,2.0,54.0,216.0,108.0,324.0,270.0,162.0,yellow,circle
0.0,5.0,1.0,1.0,7.0,4.0,1998.4044509474188,1.0,1.0,phase_3,,,,,49.0,1.0,147.0,294.0,245.0,49.0,196.0,98.0,cyan,hexagon
0.0,3.0,3.0,0.0,7.0,5.0,1424.2637939751148,1.0,1.0,phase_3,,,,,204.0,6.0,102.0,170.0,34.0,68.0,204.0,136.0,green,square
0.0,7.0,3.0,1.0,7.0,1.0,2418.379381066188,1.0,1.0,phase_3,,,,,234.0,6.0,234.0,39.0,156.0,78.0,195.0,117.0,magenta,cross
0.0,7.0,3.0,1.0,7.0,4.0,1705.601074034348,1.0,1.0,phase_3,,,,,245.0,5.0,196.0,147.0,49.0,245.0,294.0,98.0,magenta,cross
0.0,3.0,3.0,0.0,7.0,6.0,1289.997325045988,1.0,1.0,phase_3,,,,,196.0,4.0,245.0,98.0,147.0,49.0,294.0,196.0,green,square
0.0,8.0,4.0,1.0,7.0,5.0,2351.078612031415,1.0,1.0,phase_3,,,,,264.0,6.0,176.0,88.0,220.0,132.0,264.0,44.0,blue,I
0.0,4.0,4.0,0.0,7.0,2.0,1647.647102829069,1.0,1.0,phase_3,,,,,54.0,1.0,108.0,54.0,324.0,270.0,162.0,216.0,gray,triangle
0.0,6.0,2.0,1.0,7.0,2.0,801.1737999040633,1.0,1.0,phase_3,,,,,117.0,3.0,156.0,117.0,234.0,195.0,78.0,39.0,yellow,circle
0.0,8.0,4.0,1.0,7.0,5.0,1138.72710801661,1.0,1.0,phase_3,,,,,294.0,6.0,196.0,49.0,245.0,98.0,294.0,147.0,blue,I
0.0,8.0,4.0,1.0,7.0,2.0,1992.8567761089653,1.0,1.0,phase_3,,,,,234.0,6.0,39.0,234.0,195.0,156.0,117.0,78.0,blue,I
0.0,8.0,4.0,1.0,7.0,3.0,3226.17561602965,1.0,1.0,phase_3,,,,,98.0,2.0,245.0,147.0,98.0,49.0,294.0,196.0,blue,I
0.0,4.0,4.0,0.0,7.0,5.0,1743.629141012207,1.0,1.0,phase_3,,,,,54.0,1.0,162.0,216.0,324.0,270.0,54.0,108.0,gray,triangle
0.0,7.0,3.0,1.0,7.0,2.0,957.6108790934086,1.0,1.0,phase_3,,,,,98.0,2.0,294.0,98.0,147.0,49.0,196.0,245.0,magenta,cross
0.0,5.0,1.0,1.0,7.0,4.0,1727.017869008705,1.0,1.0,phase_3,,,,,54.0,1.0,270.0,324.0,216.0,54.0,108.0,162.0,cyan,hexagon
0.0,1.0,1.0,0.0,7.0,5.0,1240.1301669888198,1.0,1.0,phase_3,,,,,54.0,1.0,270.0,108.0,162.0,216.0,54.0,324.0,white,diamond
0.0,5.0,1.0,1.0,7.0,5.0,2009.230264928192,1.0,1.0,phase_3,,,,,39.0,1.0,234.0,195.0,117.0,78.0,39.0,156.0,cyan,hexagon
0.0,6.0,2.0,1.0,7.0,3.0,1678.055128082633,1.0,1.0,phase_3,,,,,98.0,2.0,196.0,245.0,98.0,49.0,147.0,294.0,yellow,circle
0.0,2.0,2.0,0.0,7.0,5.0,1628.1704490538689,1.0,1.0,phase_3,,,,,49.0,1.0,147.0,196.0,98.0,245.0,49.0,294.0,orange,flipped triangle
0.0,7.0,3.0,1.0,7.0,3.0,996.7674440704286,2.0,1.0,phase_3,,,,,136.0,4.0,204.0,34.0,136.0,68.0,170.0,102.0,magenta,cross
0.0,5.0,1.0,1.0,7.0,1.0,1716.4902889635414,2.0,1.0,phase_3,,,,,68.0,2.0,68.0,102.0,136.0,34.0,204.0,170.0,cyan,hexagon
0.0,2.0,2.0,0.0,7.0,3.0,2702.6830490212888,2.0,1.0,phase_3,,,,,68.0,2.0,34.0,136.0,68.0,102.0,170.0,204.0,orange,flipped triangle
0.0,6.0,2.0,1.0,7.0,2.0,590.5090121086687,2.0,1.0,phase_3,,,,,117.0,3.0,195.0,117.0,234.0,39.0,156.0,78.0,yellow,circle
0.0,1.0,1.0,0.0,7.0,6.0,1782.3298079892993,2.0,1.0,phase_3,,,,,49.0,1.0,147.0,98.0,245.0,294.0,196.0,49.0,white,diamond
0.0,6.0,2.0,1.0,7.0,2.0,1023.6103259958329,2.0,1.0,phase_3,,,,,88.0,2.0,220.0,88.0,264.0,176.0,44.0,132.0,yellow,circle
0.0,3.0,3.0,0.0,7.0,5.0,2660.2827040478587,2.0,1.0,phase_3,,,,,234.0,6.0,195.0,156.0,39.0,117.0,234.0,78.0,green,square
0.0,2.0,2.0,0.0,7.0,5.0,1778.7299789488316,2.0,1.0,phase_3,,,,,88.0,2.0,176.0,44.0,132.0,220.0,88.0,264.0,orange,flipped triangle
0.0,7.0,3.0,1.0,7.0,5.0,2055.9830719139427,2.0,1.0,phase_3,,,,,108.0,2.0,216.0,54.0,270.0,162.0,108.0,324.0,magenta,cross
0.0,8.0,4.0,1.0,7.0,6.0,1463.891850085929,2.0,1.0,phase_3,,,,,324.0,6.0,54.0,108.0,270.0,216.0,162.0,324.0,blue,I
0.0,2.0,2.0,0.0,7.0,3.0,1575.722532114014,2.0,1.0,phase_3,,,,,78.0,2.0,117.0,39.0,78.0,156.0,234.0,195.0,orange,flipped triangle
0.0,7.0,3.0,1.0,7.0,2.0,2544.1925791092217,2.0,1.0,phase_3,,,,,204.0,6.0,136.0,204.0,102.0,34.0,170.0,68.0,magenta,cross
0.0,7.0,3.0,1.0,7.0,1.0,645.2245740219951,2.0,1.0,phase_3,,,,,162.0,3.0,162.0,270.0,54.0,324.0,216.0,108.0,magenta,cross
0.0,1.0,1.0,0.0,7.0,1.0,1706.6303989849985,2.0,1.0,phase_3,,,,,49.0,1.0,49.0,294.0,196.0,147.0,98.0,245.0,white,diamond
0.0,4.0,4.0,0.0,7.0,2.0,1020.2730349265039,2.0,1.0,phase_3,,,,,49.0,1.0,245.0,49.0,196.0,294.0,98.0,147.0,gray,triangle
0.0,1.0,1.0,0.0,7.0,3.0,1559.6965979784727,2.0,1.0,phase_3,,,,,54.0,1.0,270.0,108.0,54.0,162.0,324.0,216.0,white,diamond
0.0,2.0,2.0,0.0,7.0,5.0,1984.889409970492,2.0,1.0,phase_3,,,,,68.0,2.0,136.0,34.0,102.0,170.0,68.0,204.0,orange,flipped triangle
0.0,6.0,2.0,1.0,7.0,1.0,1763.0845040548593,2.0,1.0,phase_3,,,,,147.0,3.0,147.0,245.0,294.0,49.0,98.0,196.0,yellow,circle
0.0,3.0,3.0,0.0,7.0,3.0,1284.705552039668,2.0,1.0,phase_3,,,,,176.0,4.0,132.0,44.0,176.0,264.0,220.0,88.0,green,square
0.0,4.0,4.0,0.0,7.0,6.0,2454.798282124102,2.0,1.0,phase_3,,,,,39.0,1.0,195.0,156.0,234.0,78.0,117.0,39.0,gray,triangle
0.0,2.0,2.0,0.0,7.0,2.0,745.1904648914933,3.0,1.0,phase_3,,,,,147.0,3.0,98.0,147.0,196.0,294.0,49.0,245.0,orange,flipped triangle
0.0,5.0,1.0,1.0,7.0,5.0,989.0811359509826,3.0,1.0,phase_3,,,,,44.0,1.0,264.0,176.0,132.0,220.0,44.0,88.0,cyan,hexagon
0.0,3.0,3.0,0.0,7.0,5.0,2255.6583450641483,3.0,1.0,phase_3,,,,,156.0,4.0,234.0,195.0,117.0,39.0,156.0,78.0,green,square
0.0,7.0,3.0,1.0,7.0,1.0,1695.8858189173045,3.0,1.0,phase_3,,,,,220.0,5.0,220.0,132.0,264.0,44.0,88.0,176.0,magenta,cross
0.0,3.0,3.0,0.0,7.0,4.0,1289.0029919799415,3.0,1.0,phase_3,,,,,176.0,4.0,220.0,44.0,88.0,176.0,132.0,264.0,green,square
0.0,2.0,2.0,0.0,7.0,5.0,1530.0988559611142,3.0,1.0,phase_3,,,,,39.0,1.0,195.0,156.0,117.0,234.0,39.0,78.0,orange,flipped triangle
0.0,4.0,4.0,0.0,7.0,5.0,1777.747272979468,3.0,1.0,phase_3,,,,,78.0,2.0,117.0,234.0,156.0,39.0,78.0,195.0,gray,triangle
0.0,3.0,3.0,0.0,7.0,4.0,1574.1401191335171,3.0,1.0,phase_3,,,,,102.0,3.0,68.0,34.0,136.0,102.0,204.0,170.0,green,square
0.0,2.0,2.0,0.0,7.0,4.0,807.4305630289018,3.0,1.0,phase_3,,,,,54.0,1.0,216.0,324.0,162.0,54.0,108.0,270.0,orange,flipped triangle
0.0,5.0,1.0,1.0,7.0,3.0,1717.8304430563005,3.0,1.0,phase_3,,,,,78.0,2.0,195.0,117.0,78.0,156.0,234.0,39.0,cyan,hexagon
0.0,6.0,2.0,1.0,7.0,3.0,1178.278509993106,3.0,1.0,phase_3,,,,,132.0,3.0,176.0,88.0,132.0,44.0,220.0,264.0,yellow,circle
0.0,8.0,4.0,1.0,7.0,2.0,1706.7517421673983,3.0,1.0,phase_3,,,,,270.0,5.0,324.0,270.0,108.0,162.0,216.0,54.0,blue,I
0.0,5.0,1.0,1.0,7.0,6.0,2349.3767629843205,3.0,1.0,phase_3,,,,,34.0,1.0,68.0,170.0,136.0,204.0,102.0,34.0,cyan,hexagon
0.0,5.0,1.0,1.0,7.0,5.0,1189.462044974789,3.0,1.0,phase_3,,,,,44.0,1.0,176.0,220.0,132.0,88.0,44.0,264.0,cyan,hexagon
0.0,4.0,4.0,0.0,7.0,2.0,816.0087680444121,3.0,1.0,phase_3,,,,,49.0,1.0,98.0,49.0,294.0,147.0,245.0,196.0,gray,triangle
0.0,1.0,1.0,0.0,7.0,1.0,1761.1670880578458,3.0,1.0,phase_3,,,,,88.0,2.0,88.0,264.0,44.0,132.0,176.0,220.0,white,diamond
0.0,3.0,3.0,0.0,7.0,1.0,1115.5789089389143,3.0,1.0,phase_3,,,,,108.0,2.0,108.0,324.0,270.0,162.0,216.0,54.0,green,square
0.0,2.0,2.0,0.0,7.0,2.0,1059.2785000335423,3.0,1.0,phase_3,,,,,44.0,1.0,88.0,44.0,264.0,132.0,176.0,220.0,orange,flipped triangle
0.0,8.0,4.0,1.0,7.0,1.0,2692.8621500264853,3.0,1.0,phase_3,,,,,204.0,6.0,204.0,34.0,136.0,102.0,68.0,170.0,blue,I
0.0,5.0,1.0,1.0,7.0,2.0,1301.910363836214,3.0,1.0,phase_3,,,,,108.0,2.0,324.0,108.0,270.0,216.0,54.0,162.0,cyan,hexagon
0.0,3.0,3.0,0.0,7.0,5.0,1384.3661970458925,4.0,1.0,phase_3,,,,,147.0,3.0,196.0,245.0,49.0,294.0,147.0,98.0,green,square
0.0,8.0,4.0,1.0,7.0,4.0,2225.7092781364922,4.0,1.0,phase_3,,,,,220.0,5.0,88.0,44.0,132.0,220.0,176.0,264.0,blue,I
0.0,1.0,1.0,0.0,7.0,3.0,2361.3869820255786,4.0,1.0,phase_3,,,,,39.0,1.0,195.0,156.0,39.0,78.0,234.0,117.0,white,diamond
0.0,5.0,1.0,1.0,7.0,2.0,965.530582005158,4.0,1.0,phase_3,,,,,98.0,2.0,196.0,98.0,294.0,147.0,245.0,49.0,cyan,hexagon
0.0,8.0,4.0,1.0,7.0,2.0,1644.817889900878,4.0,1.0,phase_3,,,,,204.0,6.0,34.0,204.0,68.0,136.0,102.0,170.0,blue,I
0.0,2.0,2.0,0.0,7.0,2.0,1537.2306490316987,4.0,1.0,phase_3,,,,,54.0,1.0,216.0,54.0,270.0,162.0,324.0,108.0,orange,flipped triangle
0.0,1.0,1.0,0.0,7.0,1.0,1793.6586430296302,4.0,1.0,phase_3,,,,,44.0,1.0,44.0,132.0,176.0,220.0,264.0,88.0,white,diamond
0.0,4.0,4.0,0.0,7.0,2.0,656.8457901012152,4.0,1.0,phase_3,,,,,88.0,2.0,220.0,88.0,264.0,176.0,44.0,132.0,gray,triangle
0.0,4.0,4.0,0.0,7.0,2.0,580.2826050203294,4.0,1.0,phase_3,,,,,68.0,2.0,170.0,68.0,136.0,34.0,102.0,204.0,gray,triangle
0.0,8.0,4.0,1.0,7.0,2.0,2707.594903884456,4.0,1.0,phase_3,,,,,234.0,6.0,117.0,234.0,39.0,78.0,156.0,195.0,blue,I
0.0,4.0,4.0,0.0,7.0,4.0,2628.476283978671,4.0,1.0,phase_3,,,,,34.0,1.0,204.0,136.0,68.0,34.0,102.0,170.0,gray,triangle
0.0,1.0,1.0,0.0,7.0,4.0,3049.1617820225656,4.0,1.0,phase_3,,,,,68.0,2.0,204.0,170.0,34.0,68.0,136.0,102.0,white,diamond
0.0,6.0,2.0,1.0,7.0,2.0,806.6490849014372,4.0,1.0,phase_3,,,,,68.0,2.0,204.0,68.0,136.0,34.0,170.0,102.0,yellow,circle
0.0,6.0,2.0,1.0,7.0,5.0,1576.5504508744923,4.0,1.0,phase_3,,,,,102.0,3.0,204.0,170.0,136.0,34.0,102.0,68.0,yellow,circle
0.0,1.0,1.0,0.0,7.0,3.0,3108.936136122793,4.0,1.0,phase_3,,,,,78.0,2.0,234.0,195.0,78.0,117.0,156.0,39.0,white,diamond
0.0,3.0,3.0,0.0,7.0,2.0,1876.663286006078,4.0,1.0,phase_3,,,,,162.0,3.0,108.0,162.0,54.0,324.0,270.0,216.0,green,square
0.0,7.0,3.0,1.0,7.0,6.0,1725.1448999159038,4.0,1.0,phase_3,,,,,176.0,4.0,132.0,44.0,88.0,264.0,220.0,176.0,magenta,cross
0.0,4.0,4.0,0.0,7.0,1.0,2510.797815164551,4.0,1.0,phase_3,,,,,88.0,2.0,88.0,132.0,176.0,264.0,44.0,220.0,gray,triangle
0.0,6.0,2.0,1.0,7.0,2.0,1030.925548169762,4.0,1.0,phase_3,,,,,162.0,3.0,216.0,162.0,54.0,324.0,108.0,270.0,yellow,circle
0.0,1.0,1.0,0.0,7.0,6.0,2307.319747051224,4.0,1.0,phase_3,,,,,170.0,5.0,204.0,136.0,102.0,68.0,34.0,170.0,white,diamond
