raw_reward_magnitude,stim_reward,stepwise_reward_magnitude,paired_with_stopping,quadrant,response,reaction_time,block,num_trial_presentations,which_part,stop_signal_trial_type,left_SSD,right_SSD,accuracy,chosen_bidding_amount,chosen_bidding_level,possible_bid_1,possible_bid_2,possible_bid_3,possible_bid_4,possible_bid_5,possible_bid_6,color_text,shape_text
110.0,2.0,2.0,0.0,2.0,2.0,717.5044640898705,1.0,1.0,part_1,,,,,,,,,,,,,green,cross
385.0,8.0,4.0,1.0,3.0,3.0,612.0007338467985,1.0,1.0,part_1,,,,,,,,,,,,,cyan,circle
0.0,4.0,0.0,0.0,2.0,2.0,360.2531268261373,1.0,1.0,part_1,,,,,,,,,,,,,yellow,diamond
95.0,2.0,2.0,0.0,3.0,3.0,333.1366810016334,1.0,1.0,part_1,,,,,,,,,,,,,green,cross
27.0,1.0,1.0,0.0,3.0,3.0,361.7434010375291,1.0,1.0,part_1,,,,,,,,,,,,,orange,flipped triangle
27.0,5.0,1.0,1.0,3.0,3.0,320.0581029523164,1.0,1.0,part_1,,,,,,,,,,,,,white,square
0.0,3.0,0.0,0.0,4.0,4.0,321.9596350099891,1.0,1.0,part_1,,,,,,,,,,,,,blue,triangle
385.0,4.0,4.0,0.0,2.0,2.0,312.3246689792722,1.0,1.0,part_1,,,,,,,,,,,,,yellow,diamond
0.0,2.0,0.0,0.0,4.0,4.0,314.9742069654166,1.0,1.0,part_1,,,,,,,,,,,,,green,cross
45.0,5.0,1.0,1.0,4.0,4.0,360.2895960211754,1.0,1.0,part_1,,,,,,,,,,,,,white,square
0.0,4.0,0.0,0.0,3.0,3.0,284.0232860762626,1.0,1.0,part_1,,,,,,,,,,,,,yellow,diamond
202.0,3.0,3.0,0.0,4.0,4.0,324.5657500810921,1.0,1.0,part_1,,,,,,,,,,,,,blue,triangle
110.0,2.0,2.0,0.0,4.0,4.0,421.6137810144573,1.0,1.0,part_1,,,,,,,,,,,,,green,cross
378.0,4.0,4.0,0.0,4.0,4.0,291.5851110592484,1.0,1.0,part_1,,,,,,,,,,,,,yellow,diamond
387.0,8.0,4.0,1.0,3.0,3.0,314.1949221026152,1.0,1.0,part_1,,,,,,,,,,,,,cyan,circle
93.0,6.0,2.0,1.0,2.0,2.0,371.4327339548617,1.0,1.0,part_1,,,,,,,,,,,,,magenta,I
0.0,2.0,0.0,0.0,1.0,1.0,315.5458159744739,1.0,1.0,part_1,,,,,,,,,,,,,green,cross
206.0,3.0,3.0,0.0,1.0,1.0,356.513615231961,1.0,1.0,part_1,,,,,,,,,,,,,blue,triangle
187.0,3.0,3.0,0.0,2.0,2.0,415.5394758563488,1.0,2.0,part_1,,,,,,,,,,,,,blue,triangle
0.0,6.0,0.0,1.0,3.0,3.0,396.6981710400432,1.0,1.0,part_1,,,,,,,,,,,,,magenta,I
62.0,5.0,1.0,1.0,3.0,3.0,471.1729020345956,1.0,1.0,part_1,,,,,,,,,,,,,white,square
83.0,2.0,2.0,0.0,4.0,4.0,396.8318640254438,1.0,1.0,part_1,,,,,,,,,,,,,green,cross
93.0,2.0,2.0,0.0,1.0,1.0,531.5452818758786,1.0,1.0,part_1,,,,,,,,,,,,,green,cross
179.0,3.0,3.0,0.0,3.0,3.0,496.4935060124844,1.0,1.0,part_1,,,,,,,,,,,,,blue,triangle
210.0,7.0,3.0,1.0,4.0,4.0,506.25401409342885,1.0,1.0,part_1,,,,,,,,,,,,,gray,hexagon
75.0,1.0,1.0,0.0,1.0,1.0,422.5379810668528,1.0,1.0,part_1,,,,,,,,,,,,,orange,flipped triangle
49.0,1.0,1.0,0.0,1.0,1.0,451.5018980018794,1.0,1.0,part_1,,,,,,,,,,,,,orange,flipped triangle
122.0,6.0,2.0,1.0,2.0,2.0,562.84563196823,1.0,1.0,part_1,,,,,,,,,,,,,magenta,I
37.0,1.0,1.0,0.0,1.0,1.0,405.2309179678559,1.0,1.0,part_1,,,,,,,,,,,,,orange,flipped triangle
0.0,2.0,0.0,0.0,3.0,3.0,333.1003398634493,1.0,1.0,part_1,,,,,,,,,,,,,green,cross
93.0,6.0,2.0,1.0,2.0,2.0,374.5533989276737,1.0,1.0,part_1,,,,,,,,,,,,,magenta,I
48.0,1.0,1.0,0.0,1.0,1.0,357.7777280006557,1.0,1.0,part_1,,,,,,,,,,,,,orange,flipped triangle
0.0,2.0,0.0,0.0,1.0,1.0,362.7324199769646,1.0,1.0,part_1,,,,,,,,,,,,,green,cross
84.0,2.0,2.0,0.0,3.0,3.0,317.4037928692996,1.0,1.0,part_1,,,,,,,,,,,,,green,cross
381.0,8.0,4.0,1.0,1.0,1.0,338.7890441808849,1.0,1.0,part_1,,,,,,,,,,,,,cyan,circle
392.0,8.0,4.0,1.0,3.0,3.0,311.1690490040928,1.0,1.0,part_1,,,,,,,,,,,,,cyan,circle
105.0,2.0,2.0,0.0,2.0,2.0,308.0432950519025,1.0,1.0,part_1,,,,,,,,,,,,,green,cross
391.0,4.0,4.0,0.0,4.0,4.0,326.8952220678329,1.0,1.0,part_1,,,,,,,,,,,,,yellow,diamond
86.0,2.0,2.0,0.0,2.0,2.0,307.5745720416307,1.0,1.0,part_1,,,,,,,,,,,,,green,cross
72.0,5.0,1.0,1.0,3.0,3.0,298.050340032205,1.0,1.0,part_1,,,,,,,,,,,,,white,square
29.0,1.0,1.0,0.0,1.0,1.0,327.2072591353208,1.0,1.0,part_1,,,,,,,,,,,,,orange,flipped triangle
0.0,3.0,0.0,0.0,4.0,4.0,370.9361110813916,1.0,1.0,part_1,,,,,,,,,,,,,blue,triangle
0.0,5.0,0.0,1.0,3.0,3.0,351.0926070157438,1.0,1.0,part_1,,,,,,,,,,,,,white,square
0.0,1.0,0.0,0.0,2.0,2.0,373.557073995471,1.0,1.0,part_1,,,,,,,,,,,,,orange,flipped triangle
51.0,1.0,1.0,0.0,3.0,3.0,297.7960382122546,1.0,1.0,part_1,,,,,,,,,,,,,orange,flipped triangle
114.0,2.0,2.0,0.0,2.0,2.0,309.9337359890342,1.0,1.0,part_1,,,,,,,,,,,,,green,cross
397.0,8.0,4.0,1.0,1.0,1.0,304.8216640017926,1.0,1.0,part_1,,,,,,,,,,,,,cyan,circle
218.0,7.0,3.0,1.0,3.0,3.0,248.4489760827273,1.0,1.0,part_1,,,,,,,,,,,,,gray,hexagon
177.0,3.0,3.0,0.0,4.0,4.0,261.2605339381844,1.0,1.0,part_1,,,,,,,,,,,,,blue,triangle
42.0,1.0,1.0,0.0,3.0,3.0,264.5084129180759,1.0,1.0,part_1,,,,,,,,,,,,,orange,flipped triangle
48.0,1.0,1.0,0.0,2.0,2.0,325.5335038993507,1.0,1.0,part_1,,,,,,,,,,,,,orange,flipped triangle
0.0,7.0,0.0,1.0,3.0,3.0,304.27888315171,1.0,1.0,part_1,,,,,,,,,,,,,gray,hexagon
77.0,2.0,2.0,0.0,4.0,4.0,287.4279657844454,1.0,1.0,part_1,,,,,,,,,,,,,green,cross
0.0,6.0,0.0,1.0,3.0,3.0,298.9044070709497,1.0,1.0,part_1,,,,,,,,,,,,,magenta,I
0.0,5.0,0.0,1.0,3.0,3.0,280.7087630499154,1.0,1.0,part_1,,,,,,,,,,,,,white,square
0.0,8.0,0.0,1.0,3.0,3.0,325.2496540080756,1.0,1.0,part_1,,,,,,,,,,,,,cyan,circle
80.0,2.0,2.0,0.0,4.0,4.0,313.63972485996777,1.0,1.0,part_1,,,,,,,,,,,,,green,cross
68.0,1.0,1.0,0.0,1.0,1.0,318.9021800644696,1.0,1.0,part_1,,,,,,,,,,,,,orange,flipped triangle
37.0,1.0,1.0,0.0,2.0,2.0,338.7867310084402,1.0,1.0,part_1,,,,,,,,,,,,,orange,flipped triangle
397.0,8.0,4.0,1.0,3.0,3.0,349.9278789386153,1.0,2.0,part_1,,,,,,,,,,,,,cyan,circle
424.0,4.0,4.0,0.0,2.0,2.0,410.0210429169237,1.0,1.0,part_1,,,,,,,,,,,,,yellow,diamond
199.0,3.0,3.0,0.0,1.0,1.0,358.5464379284531,1.0,1.0,part_1,,,,,,,,,,,,,blue,triangle
111.0,6.0,2.0,1.0,4.0,4.0,361.6940579377115,1.0,1.0,part_1,,,,,,,,,,,,,magenta,I
108.0,2.0,2.0,0.0,3.0,3.0,382.4174960609525,1.0,1.0,part_1,,,,,,,,,,,,,green,cross
0.0,7.0,0.0,1.0,4.0,4.0,331.1847089789808,1.0,1.0,part_1,,,,,,,,,,,,,gray,hexagon
393.0,4.0,4.0,0.0,1.0,1.0,294.7077809367329,1.0,1.0,part_1,,,,,,,,,,,,,yellow,diamond
59.0,1.0,1.0,0.0,2.0,2.0,358.1175890285522,1.0,1.0,part_1,,,,,,,,,,,,,orange,flipped triangle
0.0,3.0,0.0,0.0,1.0,1.0,290.1333309710026,1.0,1.0,part_1,,,,,,,,,,,,,blue,triangle
379.0,8.0,4.0,1.0,3.0,3.0,297.2391380462795,1.0,1.0,part_1,,,,,,,,,,,,,cyan,circle
179.0,7.0,3.0,1.0,2.0,2.0,354.2933580465615,1.0,1.0,part_1,,,,,,,,,,,,,gray,hexagon
25.0,5.0,1.0,1.0,3.0,3.0,290.3667029459029,1.0,1.0,part_1,,,,,,,,,,,,,white,square
0.0,8.0,0.0,1.0,2.0,2.0,284.7350968513638,1.0,1.0,part_1,,,,,,,,,,,,,cyan,circle
378.0,4.0,4.0,0.0,2.0,2.0,346.0963019169867,1.0,1.0,part_1,,,,,,,,,,,,,yellow,diamond
86.0,6.0,2.0,1.0,3.0,3.0,382.0892539806664,1.0,1.0,part_1,,,,,,,,,,,,,magenta,I
398.0,4.0,4.0,0.0,2.0,2.0,370.5259088892489,1.0,1.0,part_1,,,,,,,,,,,,,yellow,diamond
206.0,3.0,3.0,0.0,1.0,1.0,366.5490269195288,1.0,1.0,part_1,,,,,,,,,,,,,blue,triangle
45.0,1.0,1.0,0.0,3.0,3.0,330.4299169685691,1.0,1.0,part_1,,,,,,,,,,,,,orange,flipped triangle
217.0,7.0,3.0,1.0,2.0,2.0,335.1027991157025,1.0,1.0,part_1,,,,,,,,,,,,,gray,hexagon
83.0,6.0,2.0,1.0,1.0,1.0,327.4829061701894,1.0,1.0,part_1,,,,,,,,,,,,,magenta,I
423.0,4.0,4.0,0.0,3.0,3.0,268.7905880156904,1.0,1.0,part_1,,,,,,,,,,,,,yellow,diamond
198.0,7.0,3.0,1.0,1.0,1.0,285.5554178822785,1.0,1.0,part_1,,,,,,,,,,,,,gray,hexagon
118.0,6.0,2.0,1.0,1.0,1.0,347.9818049818277,1.0,1.0,part_1,,,,,,,,,,,,,magenta,I
37.0,5.0,1.0,1.0,1.0,1.0,295.0516298878938,1.0,1.0,part_1,,,,,,,,,,,,,white,square
179.0,3.0,3.0,0.0,3.0,3.0,285.8078919816762,1.0,1.0,part_1,,,,,,,,,,,,,blue,triangle
186.0,3.0,3.0,0.0,1.0,1.0,274.7923349961638,1.0,1.0,part_1,,,,,,,,,,,,,blue,triangle
193.0,3.0,3.0,0.0,3.0,3.0,260.6728048995137,1.0,1.0,part_1,,,,,,,,,,,,,blue,triangle
380.0,4.0,4.0,0.0,3.0,3.0,321.4700447861105,1.0,1.0,part_1,,,,,,,,,,,,,yellow,diamond
175.0,7.0,3.0,1.0,3.0,3.0,305.1516090054065,1.0,1.0,part_1,,,,,,,,,,,,,gray,hexagon
402.0,4.0,4.0,0.0,2.0,2.0,292.7566431462765,1.0,1.0,part_1,,,,,,,,,,,,,yellow,diamond
70.0,1.0,1.0,0.0,2.0,2.0,281.3025109935552,1.0,1.0,part_1,,,,,,,,,,,,,orange,flipped triangle
417.0,4.0,4.0,0.0,1.0,1.0,277.244702912867,1.0,1.0,part_1,,,,,,,,,,,,,yellow,diamond
74.0,1.0,1.0,0.0,3.0,3.0,305.4697278421372,1.0,1.0,part_1,,,,,,,,,,,,,orange,flipped triangle
0.0,6.0,0.0,1.0,2.0,2.0,293.2683129329234,1.0,1.0,part_1,,,,,,,,,,,,,magenta,I
111.0,6.0,2.0,1.0,1.0,1.0,260.301775066182,1.0,1.0,part_1,,,,,,,,,,,,,magenta,I
201.0,3.0,3.0,0.0,2.0,2.0,558.6574710905552,1.0,1.0,part_1,,,,,,,,,,,,,blue,triangle
201.0,7.0,3.0,1.0,3.0,3.0,355.4708228912204,1.0,1.0,part_1,,,,,,,,,,,,,gray,hexagon
74.0,5.0,1.0,1.0,3.0,3.0,298.7409301567822,1.0,1.0,part_1,,,,,,,,,,,,,white,square
108.0,6.0,2.0,1.0,4.0,4.0,301.436647074297,1.0,1.0,part_1,,,,,,,,,,,,,magenta,I
110.0,2.0,2.0,0.0,2.0,2.0,290.0480460375547,1.0,1.0,part_1,,,,,,,,,,,,,green,cross
0.0,3.0,0.0,0.0,4.0,4.0,321.3985611218959,1.0,1.0,part_1,,,,,,,,,,,,,blue,triangle
202.0,7.0,3.0,1.0,2.0,2.0,437.0810459367931,2.0,1.0,part_1,,,,,,,,,,,,,gray,hexagon
0.0,5.0,0.0,1.0,2.0,2.0,301.0037110652774,2.0,1.0,part_1,,,,,,,,,,,,,white,square
202.0,7.0,3.0,1.0,3.0,3.0,328.3640460576862,2.0,1.0,part_1,,,,,,,,,,,,,gray,hexagon
40.0,1.0,1.0,0.0,2.0,2.0,403.8699429947883,2.0,1.0,part_1,,,,,,,,,,,,,orange,flipped triangle
75.0,5.0,1.0,1.0,3.0,3.0,297.4179328884929,2.0,1.0,part_1,,,,,,,,,,,,,white,square
396.0,8.0,4.0,1.0,2.0,2.0,268.3901980053633,2.0,1.0,part_1,,,,,,,,,,,,,cyan,circle
0.0,1.0,0.0,0.0,1.0,1.0,411.0284950584173,2.0,1.0,part_1,,,,,,,,,,,,,orange,flipped triangle
27.0,5.0,1.0,1.0,3.0,3.0,336.9410641025752,2.0,1.0,part_1,,,,,,,,,,,,,white,square
378.0,8.0,4.0,1.0,3.0,3.0,485.5705120135098,2.0,1.0,part_1,,,,,,,,,,,,,cyan,circle
0.0,2.0,0.0,0.0,2.0,2.0,305.1472930237651,2.0,1.0,part_1,,,,,,,,,,,,,green,cross
123.0,6.0,2.0,1.0,3.0,3.0,355.5821131449193,2.0,1.0,part_1,,,,,,,,,,,,,magenta,I
27.0,5.0,1.0,1.0,2.0,2.0,290.0597439147532,2.0,1.0,part_1,,,,,,,,,,,,,white,square
64.0,5.0,1.0,1.0,4.0,4.0,359.286034014076,2.0,1.0,part_1,,,,,,,,,,,,,white,square
199.0,7.0,3.0,1.0,2.0,2.0,363.9320391230285,2.0,1.0,part_1,,,,,,,,,,,,,gray,hexagon
392.0,4.0,4.0,0.0,1.0,1.0,334.7977888770401,2.0,1.0,part_1,,,,,,,,,,,,,yellow,diamond
220.0,3.0,3.0,0.0,4.0,4.0,319.3324799649417,2.0,1.0,part_1,,,,,,,,,,,,,blue,triangle
379.0,4.0,4.0,0.0,2.0,2.0,304.0776259731501,2.0,1.0,part_1,,,,,,,,,,,,,yellow,diamond
181.0,7.0,3.0,1.0,1.0,1.0,301.8604549579322,2.0,1.0,part_1,,,,,,,,,,,,,gray,hexagon
80.0,2.0,2.0,0.0,4.0,4.0,297.3346898797899,2.0,1.0,part_1,,,,,,,,,,,,,green,cross
217.0,3.0,3.0,0.0,4.0,4.0,312.9459898918867,2.0,1.0,part_1,,,,,,,,,,,,,blue,triangle
60.0,1.0,1.0,0.0,1.0,1.0,508.87164287269115,2.0,1.0,part_1,,,,,,,,,,,,,orange,flipped triangle
58.0,1.0,1.0,0.0,2.0,2.0,354.5419340953231,2.0,1.0,part_1,,,,,,,,,,,,,orange,flipped triangle
380.0,4.0,4.0,0.0,3.0,3.0,309.2526060063392,2.0,1.0,part_1,,,,,,,,,,,,,yellow,diamond
0.0,7.0,0.0,1.0,2.0,2.0,337.5948390457779,2.0,1.0,part_1,,,,,,,,,,,,,gray,hexagon
77.0,6.0,2.0,1.0,3.0,3.0,256.7574949935078,2.0,1.0,part_1,,,,,,,,,,,,,magenta,I
84.0,6.0,2.0,1.0,1.0,1.0,306.9555340334773,2.0,1.0,part_1,,,,,,,,,,,,,magenta,I
58.0,1.0,1.0,0.0,2.0,2.0,336.053306935355,2.0,1.0,part_1,,,,,,,,,,,,,orange,flipped triangle
408.0,8.0,4.0,1.0,2.0,2.0,343.4580939356237,2.0,1.0,part_1,,,,,,,,,,,,,cyan,circle
218.0,7.0,3.0,1.0,2.0,2.0,307.576976949349,2.0,1.0,part_1,,,,,,,,,,,,,gray,hexagon
201.0,3.0,3.0,0.0,2.0,2.0,293.0552067700773,2.0,1.0,part_1,,,,,,,,,,,,,blue,triangle
0.0,8.0,0.0,1.0,2.0,2.0,322.7001428604126,2.0,1.0,part_1,,,,,,,,,,,,,cyan,circle
68.0,5.0,1.0,1.0,1.0,1.0,544.1784569993615,2.0,1.0,part_1,,,,,,,,,,,,,white,square
79.0,2.0,2.0,0.0,2.0,2.0,363.3813990745693,2.0,1.0,part_1,,,,,,,,,,,,,green,cross
86.0,2.0,2.0,0.0,2.0,2.0,322.6406548637897,2.0,1.0,part_1,,,,,,,,,,,,,green,cross
80.0,2.0,2.0,0.0,1.0,1.0,245.4828331246972,2.0,1.0,part_1,,,,,,,,,,,,,green,cross
68.0,1.0,1.0,0.0,4.0,4.0,338.753456948325,2.0,1.0,part_1,,,,,,,,,,,,,orange,flipped triangle
193.0,3.0,3.0,0.0,4.0,4.0,381.9351650308817,2.0,1.0,part_1,,,,,,,,,,,,,blue,triangle
0.0,1.0,0.0,0.0,1.0,1.0,322.8817568160593,2.0,1.0,part_1,,,,,,,,,,,,,orange,flipped triangle
64.0,1.0,1.0,0.0,3.0,3.0,313.4500440210104,2.0,1.0,part_1,,,,,,,,,,,,,orange,flipped triangle
76.0,2.0,2.0,0.0,3.0,3.0,383.3071440458298,2.0,1.0,part_1,,,,,,,,,,,,,green,cross
407.0,8.0,4.0,1.0,1.0,1.0,299.3871190119535,2.0,1.0,part_1,,,,,,,,,,,,,cyan,circle
220.0,7.0,3.0,1.0,3.0,3.0,297.11420298554,2.0,1.0,part_1,,,,,,,,,,,,,gray,hexagon
378.0,8.0,4.0,1.0,2.0,2.0,369.85681112855667,2.0,1.0,part_1,,,,,,,,,,,,,cyan,circle
416.0,8.0,4.0,1.0,4.0,4.0,288.9874209649861,2.0,1.0,part_1,,,,,,,,,,,,,cyan,circle
177.0,7.0,3.0,1.0,4.0,4.0,301.8925690557807,2.0,1.0,part_1,,,,,,,,,,,,,gray,hexagon
208.0,7.0,3.0,1.0,2.0,2.0,298.0850869789719,2.0,1.0,part_1,,,,,,,,,,,,,gray,hexagon
417.0,8.0,4.0,1.0,3.0,3.0,294.7990598622709,2.0,1.0,part_1,,,,,,,,,,,,,cyan,circle
0.0,6.0,0.0,1.0,1.0,1.0,345.3820480499416,2.0,1.0,part_1,,,,,,,,,,,,,magenta,I
0.0,3.0,0.0,0.0,3.0,3.0,321.9953689258545,2.0,1.0,part_1,,,,,,,,,,,,,blue,triangle
77.0,2.0,2.0,0.0,3.0,3.0,397.0259400084615,2.0,1.0,part_1,,,,,,,,,,,,,green,cross
0.0,8.0,0.0,1.0,1.0,1.0,335.209061158821,2.0,1.0,part_1,,,,,,,,,,,,,cyan,circle
380.0,8.0,4.0,1.0,2.0,2.0,350.011674920097,2.0,1.0,part_1,,,,,,,,,,,,,cyan,circle
402.0,8.0,4.0,1.0,3.0,3.0,315.0376949924975,2.0,1.0,part_1,,,,,,,,,,,,,cyan,circle
0.0,4.0,0.0,0.0,3.0,3.0,639.1715260688215,2.0,1.0,part_1,,,,,,,,,,,,,yellow,diamond
189.0,3.0,3.0,0.0,1.0,1.0,306.250775931403,2.0,1.0,part_1,,,,,,,,,,,,,blue,triangle
0.0,1.0,0.0,0.0,2.0,2.0,248.71939304284749,2.0,1.0,part_1,,,,,,,,,,,,,orange,flipped triangle
70.0,5.0,1.0,1.0,2.0,2.0,334.0109409764409,2.0,1.0,part_1,,,,,,,,,,,,,white,square
79.0,6.0,2.0,1.0,4.0,4.0,364.1179958358407,2.0,1.0,part_1,,,,,,,,,,,,,magenta,I
176.0,3.0,3.0,0.0,3.0,3.0,294.8102280497551,2.0,1.0,part_1,,,,,,,,,,,,,blue,triangle
104.0,6.0,2.0,1.0,4.0,4.0,365.5531730037182,2.0,1.0,part_1,,,,,,,,,,,,,magenta,I
48.0,5.0,1.0,1.0,3.0,3.0,295.6718259956687,2.0,1.0,part_1,,,,,,,,,,,,,white,square
192.0,3.0,3.0,0.0,3.0,3.0,301.4559359289706,2.0,1.0,part_1,,,,,,,,,,,,,blue,triangle
0.0,3.0,0.0,0.0,2.0,2.0,385.5441820342093,2.0,1.0,part_1,,,,,,,,,,,,,blue,triangle
0.0,5.0,0.0,1.0,3.0,3.0,287.3563449829817,2.0,1.0,part_1,,,,,,,,,,,,,white,square
0.0,6.0,0.0,1.0,4.0,4.0,338.106004986912,2.0,1.0,part_1,,,,,,,,,,,,,magenta,I
224.0,7.0,3.0,1.0,4.0,4.0,368.1542561389506,2.0,1.0,part_1,,,,,,,,,,,,,gray,hexagon
424.0,8.0,4.0,1.0,3.0,3.0,294.2403519991785,2.0,1.0,part_1,,,,,,,,,,,,,cyan,circle
68.0,5.0,1.0,1.0,4.0,4.0,287.95430297032,2.0,1.0,part_1,,,,,,,,,,,,,white,square
201.0,7.0,3.0,1.0,4.0,4.0,311.7647340986877,2.0,1.0,part_1,,,,,,,,,,,,,gray,hexagon
120.0,6.0,2.0,1.0,3.0,3.0,232.6833719853311,2.0,1.0,part_1,,,,,,,,,,,,,magenta,I
57.0,5.0,1.0,1.0,1.0,1.0,341.6972609702497,2.0,1.0,part_1,,,,,,,,,,,,,white,square
385.0,8.0,4.0,1.0,2.0,2.0,307.6266858261078,2.0,1.0,part_1,,,,,,,,,,,,,cyan,circle
118.0,6.0,2.0,1.0,2.0,2.0,343.5341480653733,2.0,1.0,part_1,,,,,,,,,,,,,magenta,I
98.0,6.0,2.0,1.0,2.0,2.0,246.7573611065745,2.0,1.0,part_1,,,,,,,,,,,,,magenta,I
33.0,5.0,1.0,1.0,2.0,2.0,284.9283399991691,2.0,2.0,part_1,,,,,,,,,,,,,white,square
103.0,2.0,2.0,0.0,1.0,1.0,331.4640379976481,2.0,1.0,part_1,,,,,,,,,,,,,green,cross
425.0,8.0,4.0,1.0,1.0,1.0,302.0822040271014,2.0,1.0,part_1,,,,,,,,,,,,,cyan,circle
206.0,7.0,3.0,1.0,4.0,4.0,350.4756758920848,2.0,1.0,part_1,,,,,,,,,,,,,gray,hexagon
381.0,4.0,4.0,0.0,1.0,1.0,306.7404350731522,2.0,1.0,part_1,,,,,,,,,,,,,yellow,diamond
417.0,4.0,4.0,0.0,1.0,1.0,335.7461250852793,2.0,1.0,part_1,,,,,,,,,,,,,yellow,diamond
96.0,6.0,2.0,1.0,1.0,1.0,290.4473571106791,2.0,1.0,part_1,,,,,,,,,,,,,magenta,I
0.0,4.0,0.0,0.0,2.0,2.0,344.5160919800401,2.0,1.0,part_1,,,,,,,,,,,,,yellow,diamond
105.0,6.0,2.0,1.0,1.0,1.0,276.7807589843869,2.0,1.0,part_1,,,,,,,,,,,,,magenta,I
0.0,4.0,0.0,0.0,2.0,2.0,304.8802940174937,2.0,1.0,part_1,,,,,,,,,,,,,yellow,diamond
0.0,4.0,0.0,0.0,4.0,4.0,419.8411551769823,2.0,1.0,part_1,,,,,,,,,,,,,yellow,diamond
93.0,2.0,2.0,0.0,1.0,1.0,483.8556109461933,2.0,1.0,part_1,,,,,,,,,,,,,green,cross
0.0,5.0,0.0,1.0,2.0,2.0,343.3906917925924,2.0,1.0,part_1,,,,,,,,,,,,,white,square
0.0,8.0,0.0,1.0,1.0,1.0,300.5718139465898,2.0,1.0,part_1,,,,,,,,,,,,,cyan,circle
407.0,4.0,4.0,0.0,1.0,1.0,353.9530909620225,2.0,1.0,part_1,,,,,,,,,,,,,yellow,diamond
80.0,6.0,2.0,1.0,4.0,4.0,333.8055389467627,2.0,1.0,part_1,,,,,,,,,,,,,magenta,I
0.0,4.0,0.0,0.0,4.0,4.0,378.6098030395806,2.0,1.0,part_1,,,,,,,,,,,,,yellow,diamond
0.0,3.0,0.0,0.0,3.0,3.0,335.2022559847682,2.0,1.0,part_1,,,,,,,,,,,,,blue,triangle
193.0,7.0,3.0,1.0,1.0,1.0,371.4683109428733,2.0,1.0,part_1,,,,,,,,,,,,,gray,hexagon
62.0,1.0,1.0,0.0,2.0,2.0,377.487680176273,2.0,1.0,part_1,,,,,,,,,,,,,orange,flipped triangle
396.0,4.0,4.0,0.0,3.0,3.0,349.563263123855,2.0,1.0,part_1,,,,,,,,,,,,,yellow,diamond
216.0,7.0,3.0,1.0,1.0,1.0,279.0946250315755,2.0,1.0,part_1,,,,,,,,,,,,,gray,hexagon
39.0,5.0,1.0,1.0,4.0,4.0,350.3619749099016,2.0,1.0,part_1,,,,,,,,,,,,,white,square
379.0,8.0,4.0,1.0,4.0,4.0,352.8159230481833,2.0,1.0,part_1,,,,,,,,,,,,,cyan,circle
33.0,1.0,1.0,0.0,1.0,1.0,317.3689900431782,2.0,1.0,part_1,,,,,,,,,,,,,orange,flipped triangle
0.0,1.0,0.0,0.0,4.0,4.0,337.6853289082646,2.0,1.0,part_1,,,,,,,,,,,,,orange,flipped triangle
0.0,5.0,0.0,1.0,4.0,4.0,429.1229380760342,3.0,1.0,part_1,,,,,,,,,,,,,white,square
37.0,5.0,1.0,1.0,3.0,3.0,329.0247269906103,3.0,1.0,part_1,,,,,,,,,,,,,white,square
60.0,5.0,1.0,1.0,2.0,2.0,304.7269000671804,3.0,1.0,part_1,,,,,,,,,,,,,white,square
98.0,2.0,2.0,0.0,1.0,1.0,316.9350030366331,3.0,1.0,part_1,,,,,,,,,,,,,green,cross
412.0,8.0,4.0,1.0,1.0,1.0,304.1646159254014,3.0,1.0,part_1,,,,,,,,,,,,,cyan,circle
198.0,3.0,3.0,0.0,2.0,2.0,309.649045811966,3.0,1.0,part_1,,,,,,,,,,,,,blue,triangle
0.0,1.0,0.0,0.0,1.0,1.0,281.8722100928426,3.0,1.0,part_1,,,,,,,,,,,,,orange,flipped triangle
31.0,5.0,1.0,1.0,2.0,2.0,350.0155869405716,3.0,1.0,part_1,,,,,,,,,,,,,white,square
101.0,6.0,2.0,1.0,3.0,3.0,317.9202231112867,3.0,1.0,part_1,,,,,,,,,,,,,magenta,I
391.0,8.0,4.0,1.0,1.0,1.0,278.2279979437589,3.0,1.0,part_1,,,,,,,,,,,,,cyan,circle
0.0,7.0,0.0,1.0,1.0,1.0,301.6117759980261,3.0,1.0,part_1,,,,,,,,,,,,,gray,hexagon
0.0,5.0,0.0,1.0,3.0,3.0,292.531318962574,3.0,2.0,part_1,,,,,,,,,,,,,white,square
406.0,4.0,4.0,0.0,4.0,4.0,354.7292510047555,3.0,1.0,part_1,,,,,,,,,,,,,yellow,diamond
187.0,7.0,3.0,1.0,3.0,3.0,352.6824810542166,3.0,1.0,part_1,,,,,,,,,,,,,gray,hexagon
417.0,8.0,4.0,1.0,4.0,4.0,294.3435169290751,3.0,1.0,part_1,,,,,,,,,,,,,cyan,circle
78.0,6.0,2.0,1.0,2.0,2.0,423.9143140148371,3.0,1.0,part_1,,,,,,,,,,,,,magenta,I
0.0,2.0,0.0,0.0,4.0,4.0,316.7998169083148,3.0,1.0,part_1,,,,,,,,,,,,,green,cross
0.0,6.0,0.0,1.0,1.0,1.0,324.1169820539653,3.0,1.0,part_1,,,,,,,,,,,,,magenta,I
419.0,8.0,4.0,1.0,2.0,2.0,384.5553230494261,3.0,1.0,part_1,,,,,,,,,,,,,cyan,circle
33.0,1.0,1.0,0.0,2.0,2.0,341.0766809247434,3.0,1.0,part_1,,,,,,,,,,,,,orange,flipped triangle
419.0,4.0,4.0,0.0,3.0,3.0,362.5758059788495,3.0,1.0,part_1,,,,,,,,,,,,,yellow,diamond
105.0,6.0,2.0,1.0,2.0,2.0,358.8392259553075,3.0,1.0,part_1,,,,,,,,,,,,,magenta,I
0.0,7.0,0.0,1.0,4.0,4.0,344.0092687960714,3.0,1.0,part_1,,,,,,,,,,,,,gray,hexagon
0.0,2.0,0.0,0.0,1.0,1.0,343.38722191751,3.0,1.0,part_1,,,,,,,,,,,,,green,cross
201.0,7.0,3.0,1.0,3.0,3.0,331.4446220174432,3.0,1.0,part_1,,,,,,,,,,,,,gray,hexagon
0.0,6.0,0.0,1.0,3.0,3.0,370.283534983173,3.0,1.0,part_1,,,,,,,,,,,,,magenta,I
52.0,5.0,1.0,1.0,2.0,2.0,314.3420959822833,3.0,1.0,part_1,,,,,,,,,,,,,white,square
58.0,5.0,1.0,1.0,2.0,2.0,383.3444591145962,3.0,1.0,part_1,,,,,,,,,,,,,white,square
116.0,2.0,2.0,0.0,4.0,4.0,277.0233729388565,3.0,1.0,part_1,,,,,,,,,,,,,green,cross
0.0,5.0,0.0,1.0,4.0,4.0,321.5313430409878,3.0,1.0,part_1,,,,,,,,,,,,,white,square
201.0,3.0,3.0,0.0,4.0,4.0,309.963759034872,3.0,1.0,part_1,,,,,,,,,,,,,blue,triangle
29.0,5.0,1.0,1.0,4.0,4.0,429.829980013892,3.0,1.0,part_1,,,,,,,,,,,,,white,square
0.0,8.0,0.0,1.0,2.0,2.0,342.7209449000656,3.0,1.0,part_1,,,,,,,,,,,,,cyan,circle
375.0,4.0,4.0,0.0,3.0,3.0,356.2782891094684,3.0,1.0,part_1,,,,,,,,,,,,,yellow,diamond
64.0,5.0,1.0,1.0,2.0,2.0,320.217837113887,3.0,1.0,part_1,,,,,,,,,,,,,white,square
117.0,6.0,2.0,1.0,4.0,4.0,364.8437708616256,3.0,1.0,part_1,,,,,,,,,,,,,magenta,I
194.0,3.0,3.0,0.0,1.0,1.0,313.648470910266,3.0,1.0,part_1,,,,,,,,,,,,,blue,triangle
110.0,6.0,2.0,1.0,2.0,2.0,354.1204629000276,3.0,1.0,part_1,,,,,,,,,,,,,magenta,I
44.0,5.0,1.0,1.0,1.0,1.0,350.2938169986009,3.0,1.0,part_1,,,,,,,,,,,,,white,square
199.0,7.0,3.0,1.0,3.0,3.0,330.7618789840489,3.0,1.0,part_1,,,,,,,,,,,,,gray,hexagon
186.0,7.0,3.0,1.0,1.0,1.0,269.1045529209077,3.0,1.0,part_1,,,,,,,,,,,,,gray,hexagon
40.0,5.0,1.0,1.0,2.0,2.0,377.883095992729,3.0,1.0,part_1,,,,,,,,,,,,,white,square
207.0,7.0,3.0,1.0,4.0,4.0,294.945347122848,3.0,1.0,part_1,,,,,,,,,,,,,gray,hexagon
0.0,5.0,0.0,1.0,3.0,3.0,454.1626318823546,3.0,1.0,part_1,,,,,,,,,,,,,white,square
398.0,8.0,4.0,1.0,4.0,4.0,431.9963280577212,3.0,1.0,part_1,,,,,,,,,,,,,cyan,circle
37.0,1.0,1.0,0.0,2.0,2.0,326.0798109695315,3.0,1.0,part_1,,,,,,,,,,,,,orange,flipped triangle
77.0,6.0,2.0,1.0,3.0,3.0,330.940080108121,3.0,1.0,part_1,,,,,,,,,,,,,magenta,I
0.0,8.0,0.0,1.0,2.0,2.0,293.4196239802986,3.0,1.0,part_1,,,,,,,,,,,,,cyan,circle
118.0,2.0,2.0,0.0,3.0,3.0,326.0183229576796,3.0,1.0,part_1,,,,,,,,,,,,,green,cross
72.0,1.0,1.0,0.0,4.0,4.0,342.8678440395742,3.0,1.0,part_1,,,,,,,,,,,,,orange,flipped triangle
423.0,8.0,4.0,1.0,4.0,4.0,326.4778561424464,3.0,1.0,part_1,,,,,,,,,,,,,cyan,circle
64.0,1.0,1.0,0.0,4.0,4.0,314.8773340508342,3.0,1.0,part_1,,,,,,,,,,,,,orange,flipped triangle
0.0,6.0,0.0,1.0,3.0,3.0,391.7522029951215,3.0,1.0,part_1,,,,,,,,,,,,,magenta,I
389.0,8.0,4.0,1.0,4.0,4.0,313.3013248443603,3.0,1.0,part_1,,,,,,,,,,,,,cyan,circle
49.0,5.0,1.0,1.0,4.0,4.0,305.6419340427965,3.0,1.0,part_1,,,,,,,,,,,,,white,square
189.0,7.0,3.0,1.0,3.0,3.0,346.552938921377,3.0,1.0,part_1,,,,,,,,,,,,,gray,hexagon
215.0,7.0,3.0,1.0,4.0,4.0,319.696530001238,3.0,1.0,part_1,,,,,,,,,,,,,gray,hexagon
0.0,8.0,0.0,1.0,3.0,3.0,325.9349630679935,3.0,1.0,part_1,,,,,,,,,,,,,cyan,circle
0.0,4.0,0.0,0.0,1.0,1.0,323.4366599936038,3.0,1.0,part_1,,,,,,,,,,,,,yellow,diamond
0.0,2.0,0.0,0.0,4.0,4.0,295.8369969855994,3.0,1.0,part_1,,,,,,,,,,,,,green,cross
202.0,3.0,3.0,0.0,4.0,4.0,346.4685929939151,3.0,1.0,part_1,,,,,,,,,,,,,blue,triangle
218.0,3.0,3.0,0.0,2.0,2.0,343.6175719834864,3.0,1.0,part_1,,,,,,,,,,,,,blue,triangle
404.0,4.0,4.0,0.0,4.0,4.0,294.5487168617546,3.0,1.0,part_1,,,,,,,,,,,,,yellow,diamond
395.0,8.0,4.0,1.0,1.0,1.0,292.031048797071,3.0,1.0,part_1,,,,,,,,,,,,,cyan,circle
95.0,6.0,2.0,1.0,4.0,4.0,254.1956480126828,3.0,1.0,part_1,,,,,,,,,,,,,magenta,I
208.0,7.0,3.0,1.0,3.0,3.0,329.0795241482556,3.0,2.0,part_1,,,,,,,,,,,,,gray,hexagon
27.0,1.0,1.0,0.0,4.0,4.0,330.8377859648317,3.0,1.0,part_1,,,,,,,,,,,,,orange,flipped triangle
184.0,3.0,3.0,0.0,1.0,1.0,249.6081080753356,3.0,1.0,part_1,,,,,,,,,,,,,blue,triangle
0.0,7.0,0.0,1.0,4.0,4.0,332.534824963659,3.0,1.0,part_1,,,,,,,,,,,,,gray,hexagon
382.0,4.0,4.0,0.0,3.0,3.0,314.6794480271637,3.0,1.0,part_1,,,,,,,,,,,,,yellow,diamond
0.0,8.0,0.0,1.0,2.0,2.0,320.935235125944,3.0,1.0,part_1,,,,,,,,,,,,,cyan,circle
412.0,4.0,4.0,0.0,4.0,4.0,314.9792968761176,3.0,1.0,part_1,,,,,,,,,,,,,yellow,diamond
179.0,7.0,3.0,1.0,2.0,2.0,375.6496431306004,3.0,1.0,part_1,,,,,,,,,,,,,gray,hexagon
220.0,7.0,3.0,1.0,1.0,1.0,404.8419268801808,3.0,1.0,part_1,,,,,,,,,,,,,gray,hexagon
124.0,6.0,2.0,1.0,1.0,1.0,340.429772157222,3.0,1.0,part_1,,,,,,,,,,,,,magenta,I
32.0,1.0,1.0,0.0,4.0,4.0,428.964297985658,3.0,1.0,part_1,,,,,,,,,,,,,orange,flipped triangle
75.0,5.0,1.0,1.0,4.0,4.0,345.7081920932978,3.0,1.0,part_1,,,,,,,,,,,,,white,square
213.0,3.0,3.0,0.0,4.0,4.0,305.1423458382487,3.0,1.0,part_1,,,,,,,,,,,,,blue,triangle
44.0,5.0,1.0,1.0,1.0,1.0,308.050487190485,3.0,1.0,part_1,,,,,,,,,,,,,white,square
105.0,2.0,2.0,0.0,4.0,4.0,288.8909990433603,3.0,1.0,part_1,,,,,,,,,,,,,green,cross
208.0,3.0,3.0,0.0,4.0,4.0,328.6720041651279,3.0,1.0,part_1,,,,,,,,,,,,,blue,triangle
76.0,6.0,2.0,1.0,4.0,4.0,313.4883421007544,3.0,1.0,part_1,,,,,,,,,,,,,magenta,I
184.0,7.0,3.0,1.0,2.0,2.0,325.9033861104399,3.0,1.0,part_1,,,,,,,,,,,,,gray,hexagon
0.0,2.0,0.0,0.0,2.0,2.0,348.0697239283472,3.0,1.0,part_1,,,,,,,,,,,,,green,cross
122.0,2.0,2.0,0.0,2.0,2.0,355.5709919892251,3.0,2.0,part_1,,,,,,,,,,,,,green,cross
68.0,1.0,1.0,0.0,3.0,3.0,665.4071491211653,3.0,1.0,part_1,,,,,,,,,,,,,orange,flipped triangle
68.0,5.0,1.0,1.0,4.0,4.0,423.6387279815972,3.0,1.0,part_1,,,,,,,,,,,,,white,square
80.0,6.0,2.0,1.0,1.0,1.0,275.811533909291,3.0,1.0,part_1,,,,,,,,,,,,,magenta,I
44.0,1.0,1.0,0.0,1.0,1.0,390.9230560529977,3.0,1.0,part_1,,,,,,,,,,,,,orange,flipped triangle
0.0,1.0,0.0,0.0,3.0,3.0,382.0570760872215,3.0,1.0,part_1,,,,,,,,,,,,,orange,flipped triangle
86.0,6.0,2.0,1.0,1.0,1.0,297.1819848753512,3.0,1.0,part_1,,,,,,,,,,,,,magenta,I
397.0,4.0,4.0,0.0,2.0,2.0,287.7280241809785,3.0,1.0,part_1,,,,,,,,,,,,,yellow,diamond
216.0,3.0,3.0,0.0,3.0,3.0,362.684418912977,3.0,1.0,part_1,,,,,,,,,,,,,blue,triangle
408.0,4.0,4.0,0.0,3.0,3.0,342.3521460499614,3.0,1.0,part_1,,,,,,,,,,,,,yellow,diamond
193.0,3.0,3.0,0.0,1.0,1.0,349.9067740049213,3.0,1.0,part_1,,,,,,,,,,,,,blue,triangle
176.0,7.0,3.0,1.0,4.0,4.0,306.0118069406599,3.0,1.0,part_1,,,,,,,,,,,,,gray,hexagon
382.0,8.0,4.0,1.0,2.0,2.0,468.4649070259183,3.0,1.0,part_1,,,,,,,,,,,,,cyan,circle
223.0,3.0,3.0,0.0,1.0,1.0,265.2956701349467,3.0,1.0,part_1,,,,,,,,,,,,,blue,triangle
210.0,3.0,3.0,0.0,2.0,2.0,289.25013798289,3.0,1.0,part_1,,,,,,,,,,,,,blue,triangle
39.0,1.0,1.0,0.0,4.0,4.0,347.3901229444891,3.0,1.0,part_1,,,,,,,,,,,,,orange,flipped triangle
27.0,1.0,1.0,0.0,4.0,4.0,412.0538679417223,4.0,1.0,part_1,,,,,,,,,,,,,orange,flipped triangle
0.0,3.0,0.0,0.0,4.0,4.0,313.8063189107924,4.0,1.0,part_1,,,,,,,,,,,,,blue,triangle
97.0,2.0,2.0,0.0,4.0,4.0,282.2300009429455,4.0,1.0,part_1,,,,,,,,,,,,,green,cross
395.0,4.0,4.0,0.0,1.0,1.0,295.6644471269101,4.0,1.0,part_1,,,,,,,,,,,,,yellow,diamond
0.0,1.0,0.0,0.0,2.0,2.0,317.9643990006298,4.0,1.0,part_1,,,,,,,,,,,,,orange,flipped triangle
417.0,4.0,4.0,0.0,4.0,4.0,307.190960040316,4.0,1.0,part_1,,,,,,,,,,,,,yellow,diamond
80.0,6.0,2.0,1.0,2.0,2.0,325.5366689991206,4.0,1.0,part_1,,,,,,,,,,,,,magenta,I
0.0,4.0,0.0,0.0,2.0,2.0,273.7391830887645,4.0,1.0,part_1,,,,,,,,,,,,,yellow,diamond
0.0,1.0,0.0,0.0,4.0,4.0,358.3697020076215,4.0,1.0,part_1,,,,,,,,,,,,,orange,flipped triangle
52.0,1.0,1.0,0.0,4.0,4.0,318.1561860255897,4.0,1.0,part_1,,,,,,,,,,,,,orange,flipped triangle
218.0,3.0,3.0,0.0,2.0,2.0,287.2636958491057,4.0,1.0,part_1,,,,,,,,,,,,,blue,triangle
0.0,7.0,0.0,1.0,3.0,3.0,366.1881368607282,4.0,1.0,part_1,,,,,,,,,,,,,gray,hexagon
75.0,1.0,1.0,0.0,3.0,3.0,354.2287631426006,4.0,1.0,part_1,,,,,,,,,,,,,orange,flipped triangle
414.0,4.0,4.0,0.0,4.0,4.0,358.7397318333387,4.0,1.0,part_1,,,,,,,,,,,,,yellow,diamond
404.0,8.0,4.0,1.0,3.0,3.0,338.9563020318746,4.0,1.0,part_1,,,,,,,,,,,,,cyan,circle
32.0,5.0,1.0,1.0,1.0,1.0,287.0651129633188,4.0,1.0,part_1,,,,,,,,,,,,,white,square
414.0,8.0,4.0,1.0,4.0,4.0,383.0951128620654,4.0,1.0,part_1,,,,,,,,,,,,,cyan,circle
48.0,5.0,1.0,1.0,1.0,1.0,315.0273510254919,4.0,1.0,part_1,,,,,,,,,,,,,white,square
208.0,3.0,3.0,0.0,2.0,2.0,367.3332249745726,4.0,1.0,part_1,,,,,,,,,,,,,blue,triangle
0.0,5.0,0.0,1.0,3.0,3.0,451.7752649262547,4.0,1.0,part_1,,,,,,,,,,,,,white,square
193.0,7.0,3.0,1.0,1.0,1.0,321.8447430990636,4.0,1.0,part_1,,,,,,,,,,,,,gray,hexagon
207.0,3.0,3.0,0.0,4.0,4.0,276.2602479197085,4.0,1.0,part_1,,,,,,,,,,,,,blue,triangle
101.0,2.0,2.0,0.0,3.0,3.0,595.1448299456388,4.0,1.0,part_1,,,,,,,,,,,,,green,cross
380.0,8.0,4.0,1.0,4.0,4.0,293.5141108464449,4.0,1.0,part_1,,,,,,,,,,,,,cyan,circle
37.0,5.0,1.0,1.0,1.0,1.0,404.1575780138373,4.0,1.0,part_1,,,,,,,,,,,,,white,square
0.0,2.0,0.0,0.0,3.0,3.0,287.3557079583406,4.0,1.0,part_1,,,,,,,,,,,,,green,cross
110.0,6.0,2.0,1.0,3.0,3.0,370.6060932017863,4.0,1.0,part_1,,,,,,,,,,,,,magenta,I
192.0,7.0,3.0,1.0,4.0,4.0,359.5602589193731,4.0,1.0,part_1,,,,,,,,,,,,,gray,hexagon
111.0,2.0,2.0,0.0,4.0,4.0,350.5548001267016,4.0,1.0,part_1,,,,,,,,,,,,,green,cross
421.0,8.0,4.0,1.0,2.0,2.0,387.821848038584,4.0,1.0,part_1,,,,,,,,,,,,,cyan,circle
116.0,2.0,2.0,0.0,3.0,3.0,311.2757029011845,4.0,1.0,part_1,,,,,,,,,,,,,green,cross
120.0,2.0,2.0,0.0,2.0,2.0,282.1629280224442,4.0,1.0,part_1,,,,,,,,,,,,,green,cross
116.0,6.0,2.0,1.0,3.0,3.0,322.0141278579831,4.0,1.0,part_1,,,,,,,,,,,,,magenta,I
0.0,8.0,0.0,1.0,4.0,4.0,287.799609825015,4.0,1.0,part_1,,,,,,,,,,,,,cyan,circle
114.0,6.0,2.0,1.0,4.0,4.0,330.7965439744293,4.0,1.0,part_1,,,,,,,,,,,,,magenta,I
387.0,4.0,4.0,0.0,3.0,3.0,392.5573909655213,4.0,1.0,part_1,,,,,,,,,,,,,yellow,diamond
385.0,4.0,4.0,0.0,4.0,4.0,300.8152439724654,4.0,1.0,part_1,,,,,,,,,,,,,yellow,diamond
0.0,7.0,0.0,1.0,1.0,1.0,326.3177550397813,4.0,1.0,part_1,,,,,,,,,,,,,gray,hexagon
193.0,7.0,3.0,1.0,4.0,4.0,309.3847339041531,4.0,1.0,part_1,,,,,,,,,,,,,gray,hexagon
33.0,5.0,1.0,1.0,4.0,4.0,289.8454719688743,4.0,1.0,part_1,,,,,,,,,,,,,white,square
0.0,3.0,0.0,0.0,2.0,2.0,327.5100919418037,4.0,1.0,part_1,,,,,,,,,,,,,blue,triangle
0.0,7.0,0.0,1.0,3.0,3.0,329.4644660782069,4.0,1.0,part_1,,,,,,,,,,,,,gray,hexagon
186.0,7.0,3.0,1.0,2.0,2.0,296.7044371180236,4.0,1.0,part_1,,,,,,,,,,,,,gray,hexagon
51.0,5.0,1.0,1.0,4.0,4.0,340.3067500330508,4.0,1.0,part_1,,,,,,,,,,,,,white,square
186.0,3.0,3.0,0.0,1.0,1.0,350.9015568997711,4.0,1.0,part_1,,,,,,,,,,,,,blue,triangle
44.0,1.0,1.0,0.0,3.0,3.0,344.0975931007415,4.0,1.0,part_1,,,,,,,,,,,,,orange,flipped triangle
104.0,2.0,2.0,0.0,4.0,4.0,298.2444211374968,4.0,1.0,part_1,,,,,,,,,,,,,green,cross
224.0,3.0,3.0,0.0,3.0,3.0,359.2728979419917,4.0,1.0,part_1,,,,,,,,,,,,,blue,triangle
116.0,6.0,2.0,1.0,1.0,1.0,292.9849631618708,4.0,1.0,part_1,,,,,,,,,,,,,magenta,I
111.0,2.0,2.0,0.0,1.0,1.0,310.6179039459675,4.0,2.0,part_1,,,,,,,,,,,,,green,cross
397.0,4.0,4.0,0.0,2.0,2.0,306.6085500176996,4.0,1.0,part_1,,,,,,,,,,,,,yellow,diamond
194.0,7.0,3.0,1.0,1.0,1.0,318.706750171259,4.0,1.0,part_1,,,,,,,,,,,,,gray,hexagon
419.0,4.0,4.0,0.0,1.0,1.0,355.3572129458189,4.0,1.0,part_1,,,,,,,,,,,,,yellow,diamond
419.0,8.0,4.0,1.0,4.0,4.0,384.0584489516914,4.0,1.0,part_1,,,,,,,,,,,,,cyan,circle
52.0,5.0,1.0,1.0,1.0,1.0,274.4700200855732,4.0,1.0,part_1,,,,,,,,,,,,,white,square
220.0,3.0,3.0,0.0,3.0,3.0,416.3160838652402,4.0,1.0,part_1,,,,,,,,,,,,,blue,triangle
417.0,8.0,4.0,1.0,1.0,1.0,312.1669800020754,4.0,1.0,part_1,,,,,,,,,,,,,cyan,circle
199.0,3.0,3.0,0.0,2.0,2.0,370.5041198991239,4.0,1.0,part_1,,,,,,,,,,,,,blue,triangle
25.0,1.0,1.0,0.0,3.0,3.0,343.051056843251,4.0,1.0,part_1,,,,,,,,,,,,,orange,flipped triangle
223.0,7.0,3.0,1.0,1.0,1.0,278.9037199690938,4.0,1.0,part_1,,,,,,,,,,,,,gray,hexagon
117.0,2.0,2.0,0.0,1.0,1.0,335.6379189062863,4.0,1.0,part_1,,,,,,,,,,,,,green,cross
124.0,2.0,2.0,0.0,1.0,1.0,285.5520050507039,4.0,1.0,part_1,,,,,,,,,,,,,green,cross
59.0,5.0,1.0,1.0,1.0,1.0,273.9403599407524,4.0,1.0,part_1,,,,,,,,,,,,,white,square
412.0,4.0,4.0,0.0,2.0,2.0,280.5268201045692,4.0,1.0,part_1,,,,,,,,,,,,,yellow,diamond
57.0,1.0,1.0,0.0,1.0,1.0,281.8102361634373,4.0,1.0,part_1,,,,,,,,,,,,,orange,flipped triangle
78.0,2.0,2.0,0.0,1.0,1.0,359.4538180623203,4.0,1.0,part_1,,,,,,,,,,,,,green,cross
379.0,4.0,4.0,0.0,2.0,2.0,394.6547359228134,4.0,1.0,part_1,,,,,,,,,,,,,yellow,diamond
42.0,5.0,1.0,1.0,2.0,2.0,345.4045739490539,4.0,1.0,part_1,,,,,,,,,,,,,white,square
421.0,4.0,4.0,0.0,4.0,4.0,350.07129679434,4.0,1.0,part_1,,,,,,,,,,,,,yellow,diamond
103.0,6.0,2.0,1.0,2.0,2.0,450.8916730992496,4.0,1.0,part_1,,,,,,,,,,,,,magenta,I
213.0,7.0,3.0,1.0,1.0,1.0,374.5065771508962,4.0,1.0,part_1,,,,,,,,,,,,,gray,hexagon
0.0,6.0,0.0,1.0,2.0,2.0,342.0368041843176,4.0,1.0,part_1,,,,,,,,,,,,,magenta,I
58.0,5.0,1.0,1.0,3.0,3.0,625.93292305246,4.0,1.0,part_1,,,,,,,,,,,,,white,square
401.0,8.0,4.0,1.0,2.0,2.0,308.5484600160271,4.0,1.0,part_1,,,,,,,,,,,,,cyan,circle
416.0,4.0,4.0,0.0,3.0,3.0,466.8106238823384,4.0,1.0,part_1,,,,,,,,,,,,,yellow,diamond
389.0,4.0,4.0,0.0,4.0,4.0,495.1106419321149,4.0,1.0,part_1,,,,,,,,,,,,,yellow,diamond
181.0,3.0,3.0,0.0,2.0,2.0,333.8860520161688,4.0,1.0,part_1,,,,,,,,,,,,,blue,triangle
31.0,1.0,1.0,0.0,4.0,4.0,354.3944749981165,4.0,1.0,part_1,,,,,,,,,,,,,orange,flipped triangle
52.0,1.0,1.0,0.0,4.0,4.0,388.4932629298419,4.0,1.0,part_1,,,,,,,,,,,,,orange,flipped triangle
215.0,3.0,3.0,0.0,3.0,3.0,371.6047308407724,4.0,1.0,part_1,,,,,,,,,,,,,blue,triangle
406.0,8.0,4.0,1.0,4.0,4.0,437.5085320789367,4.0,1.0,part_1,,,,,,,,,,,,,cyan,circle
97.0,6.0,2.0,1.0,3.0,3.0,348.4182511456311,4.0,1.0,part_1,,,,,,,,,,,,,magenta,I
118.0,2.0,2.0,0.0,1.0,1.0,366.2497620098293,4.0,1.0,part_1,,,,,,,,,,,,,green,cross
425.0,4.0,4.0,0.0,1.0,1.0,380.8069839142263,4.0,1.0,part_1,,,,,,,,,,,,,yellow,diamond
401.0,4.0,4.0,0.0,1.0,1.0,321.46627898328,4.0,1.0,part_1,,,,,,,,,,,,,yellow,diamond
0.0,1.0,0.0,0.0,1.0,1.0,294.6988081093877,4.0,1.0,part_1,,,,,,,,,,,,,orange,flipped triangle
96.0,2.0,2.0,0.0,3.0,3.0,378.702183952555,4.0,1.0,part_1,,,,,,,,,,,,,green,cross
80.0,6.0,2.0,1.0,3.0,3.0,342.7282960619777,4.0,1.0,part_1,,,,,,,,,,,,,magenta,I
0.0,7.0,0.0,1.0,1.0,1.0,314.2571370117366,4.0,1.0,part_1,,,,,,,,,,,,,gray,hexagon
175.0,3.0,3.0,0.0,3.0,3.0,322.1197130624205,4.0,1.0,part_1,,,,,,,,,,,,,blue,triangle
123.0,2.0,2.0,0.0,2.0,2.0,277.3966819513589,4.0,1.0,part_1,,,,,,,,,,,,,green,cross
0.0,3.0,0.0,0.0,4.0,4.0,323.4792579896748,4.0,1.0,part_1,,,,,,,,,,,,,blue,triangle
0.0,6.0,0.0,1.0,1.0,1.0,245.3169159125536,4.0,1.0,part_1,,,,,,,,,,,,,magenta,I
0.0,4.0,0.0,0.0,3.0,3.0,305.4441278800368,4.0,1.0,part_1,,,,,,,,,,,,,yellow,diamond
375.0,8.0,4.0,1.0,2.0,2.0,293.9217931125313,4.0,1.0,part_1,,,,,,,,,,,,,cyan,circle
412.0,8.0,4.0,1.0,1.0,1.0,333.740732865408,4.0,1.0,part_1,,,,,,,,,,,,,cyan,circle
110.0,6.0,2.0,1.0,4.0,4.0,331.4187650103122,4.0,1.0,part_1,,,,,,,,,,,,,magenta,I
80.0,2.0,2.0,0.0,3.0,3.0,327.49980292283,4.0,1.0,part_1,,,,,,,,,,,,,green,cross
206.0,7.0,3.0,1.0,2.0,2.0,329.3426891323179,4.0,1.0,part_1,,,,,,,,,,,,,gray,hexagon
393.0,8.0,4.0,1.0,1.0,1.0,310.0707898847759,4.0,1.0,part_1,,,,,,,,,,,,,cyan,circle
0.0,6.0,2.0,1.0,6.0,6.0,433.9981728699058,1.0,0.0,part_2,go,250.0,250.0,1.0,,,,,,,,,magenta,I
0.0,5.0,1.0,1.0,5.0,0.0,0.0,1.0,0.0,part_2,stop,250.0,250.0,4.0,,,,,,,,,white,square
0.0,2.0,2.0,0.0,6.0,6.0,573.9884260110557,1.0,0.0,part_2,go,300.0,250.0,1.0,,,,,,,,,green,cross
0.0,4.0,4.0,0.0,6.0,6.0,317.1929731033742,1.0,0.0,part_2,go,300.0,250.0,1.0,,,,,,,,,yellow,diamond
0.0,6.0,2.0,1.0,5.0,5.0,382.8921890817582,1.0,0.0,part_2,stop,300.0,250.0,3.0,,,,,,,,,magenta,I
0.0,8.0,4.0,1.0,5.0,5.0,309.349789051339,1.0,0.0,part_2,stop,250.0,250.0,3.0,,,,,,,,,cyan,circle
0.0,6.0,2.0,1.0,5.0,5.0,301.7259880434721,1.0,0.0,part_2,stop,200.0,250.0,3.0,,,,,,,,,magenta,I
0.0,4.0,4.0,0.0,5.0,5.0,359.2577842064202,1.0,0.0,part_2,go,150.0,250.0,1.0,,,,,,,,,yellow,diamond
0.0,7.0,3.0,1.0,5.0,5.0,317.1712681651115,1.0,0.0,part_2,go,150.0,250.0,1.0,,,,,,,,,gray,hexagon
0.0,4.0,4.0,0.0,6.0,6.0,403.8527288939804,1.0,0.0,part_2,go,150.0,250.0,1.0,,,,,,,,,yellow,diamond
0.0,5.0,1.0,1.0,5.0,5.0,586.5443840157241,1.0,0.0,part_2,stop,150.0,250.0,3.0,,,,,,,,,white,square
0.0,2.0,2.0,0.0,5.0,5.0,541.1226078867912,1.0,0.0,part_2,go,100.0,250.0,1.0,,,,,,,,,green,cross
0.0,1.0,1.0,0.0,5.0,5.0,449.125292012468,1.0,0.0,part_2,go,100.0,250.0,1.0,,,,,,,,,orange,flipped triangle
0.0,1.0,1.0,0.0,6.0,6.0,319.797993870452,1.0,0.0,part_2,go,100.0,250.0,1.0,,,,,,,,,orange,flipped triangle
0.0,5.0,1.0,1.0,5.0,5.0,226.2717119883746,1.0,0.0,part_2,go,100.0,250.0,1.0,,,,,,,,,white,square
0.0,3.0,3.0,0.0,5.0,5.0,311.7569738533348,1.0,0.0,part_2,go,100.0,250.0,1.0,,,,,,,,,blue,triangle
0.0,5.0,1.0,1.0,6.0,6.0,289.3589148297906,1.0,0.0,part_2,stop,100.0,250.0,3.0,,,,,,,,,white,square
0.0,2.0,2.0,0.0,6.0,6.0,319.9683248531073,1.0,0.0,part_2,go,100.0,200.0,1.0,,,,,,,,,green,cross
0.0,1.0,1.0,0.0,5.0,5.0,230.8550770394504,1.0,0.0,part_2,go,100.0,200.0,1.0,,,,,,,,,orange,flipped triangle
0.0,1.0,1.0,0.0,5.0,5.0,279.3188369832933,1.0,0.0,part_2,go,100.0,200.0,1.0,,,,,,,,,orange,flipped triangle
0.0,7.0,3.0,1.0,5.0,5.0,291.961686918512,1.0,0.0,part_2,stop,100.0,200.0,3.0,,,,,,,,,gray,hexagon
0.0,6.0,2.0,1.0,6.0,0.0,0.0,1.0,0.0,part_2,stop,50.0,200.0,4.0,,,,,,,,,magenta,I
0.0,4.0,4.0,0.0,5.0,5.0,324.8255448415875,1.0,0.0,part_2,go,50.0,250.0,1.0,,,,,,,,,yellow,diamond
0.0,3.0,3.0,0.0,6.0,6.0,341.6254469193518,1.0,0.0,part_2,go,50.0,250.0,1.0,,,,,,,,,blue,triangle
0.0,2.0,2.0,0.0,5.0,5.0,340.8355819992721,1.0,0.0,part_2,go,50.0,250.0,1.0,,,,,,,,,green,cross
0.0,7.0,3.0,1.0,6.0,6.0,453.1857529655099,1.0,0.0,part_2,stop,50.0,250.0,3.0,,,,,,,,,gray,hexagon
0.0,3.0,3.0,0.0,6.0,6.0,555.3268659859896,1.0,0.0,part_2,go,50.0,200.0,1.0,,,,,,,,,blue,triangle
0.0,2.0,2.0,0.0,6.0,6.0,456.3501279335469,1.0,0.0,part_2,go,50.0,200.0,1.0,,,,,,,,,green,cross
0.0,6.0,2.0,1.0,5.0,0.0,0.0,1.0,0.0,part_2,stop,50.0,200.0,4.0,,,,,,,,,magenta,I
0.0,6.0,2.0,1.0,5.0,0.0,0.0,1.0,0.0,part_2,stop,100.0,200.0,4.0,,,,,,,,,magenta,I
0.0,4.0,4.0,0.0,5.0,0.0,0.0,1.0,0.0,part_2,go,150.0,200.0,5.0,,,,,,,,,yellow,diamond
0.0,2.0,2.0,0.0,6.0,6.0,360.7110849115997,1.0,0.0,part_2,go,150.0,200.0,1.0,,,,,,,,,green,cross
0.0,7.0,3.0,1.0,6.0,6.0,311.6696670185774,1.0,0.0,part_2,stop,150.0,200.0,3.0,,,,,,,,,gray,hexagon
0.0,1.0,1.0,0.0,6.0,6.0,520.3407118096948,1.0,0.0,part_2,go,150.0,150.0,1.0,,,,,,,,,orange,flipped triangle
0.0,5.0,1.0,1.0,5.0,5.0,275.9778681211173,1.0,0.0,part_2,stop,150.0,150.0,3.0,,,,,,,,,white,square
0.0,3.0,3.0,0.0,6.0,6.0,286.4947537891567,1.0,0.0,part_2,go,100.0,150.0,1.0,,,,,,,,,blue,triangle
0.0,2.0,2.0,0.0,5.0,5.0,1329.8510028980672,2.0,0.0,part_2,go,100.0,150.0,1.0,,,,,,,,,green,cross
0.0,2.0,2.0,0.0,5.0,5.0,636.8270257953554,2.0,0.0,part_2,go,100.0,150.0,1.0,,,,,,,,,green,cross
0.0,1.0,1.0,0.0,6.0,6.0,499.7678829822689,2.0,0.0,part_2,go,100.0,150.0,1.0,,,,,,,,,orange,flipped triangle
0.0,5.0,1.0,1.0,6.0,0.0,0.0,2.0,0.0,part_2,stop,100.0,150.0,4.0,,,,,,,,,white,square
0.0,2.0,2.0,0.0,6.0,6.0,537.4866540078074,2.0,0.0,part_2,go,100.0,200.0,1.0,,,,,,,,,green,cross
0.0,3.0,3.0,0.0,5.0,5.0,432.0189889986068,2.0,0.0,part_2,go,100.0,200.0,1.0,,,,,,,,,blue,triangle
0.0,4.0,4.0,0.0,6.0,6.0,426.3929210137576,2.0,0.0,part_2,go,100.0,200.0,1.0,,,,,,,,,yellow,diamond
0.0,4.0,4.0,0.0,5.0,5.0,384.0423240326345,2.0,0.0,part_2,go,100.0,200.0,1.0,,,,,,,,,yellow,diamond
0.0,8.0,4.0,1.0,6.0,6.0,469.9328059796244,2.0,0.0,part_2,go,100.0,200.0,1.0,,,,,,,,,cyan,circle
0.0,1.0,1.0,0.0,5.0,5.0,421.9407199416309,2.0,0.0,part_2,go,100.0,200.0,1.0,,,,,,,,,orange,flipped triangle
0.0,1.0,1.0,0.0,6.0,6.0,398.428627057001,2.0,0.0,part_2,go,100.0,200.0,1.0,,,,,,,,,orange,flipped triangle
0.0,6.0,2.0,1.0,6.0,0.0,0.0,2.0,0.0,part_2,stop,100.0,200.0,4.0,,,,,,,,,magenta,I
0.0,6.0,2.0,1.0,6.0,0.0,0.0,2.0,0.0,part_2,stop,100.0,250.0,4.0,,,,,,,,,magenta,I
0.0,4.0,4.0,0.0,5.0,5.0,629.9123310018331,2.0,0.0,part_2,go,100.0,300.0,1.0,,,,,,,,,yellow,diamond
0.0,2.0,2.0,0.0,6.0,6.0,698.3290598727763,2.0,0.0,part_2,go,100.0,300.0,1.0,,,,,,,,,green,cross
0.0,2.0,2.0,0.0,5.0,5.0,355.2674988750368,2.0,0.0,part_2,go,100.0,300.0,1.0,,,,,,,,,green,cross
0.0,8.0,4.0,1.0,5.0,5.0,380.3814470302313,2.0,0.0,part_2,go,100.0,300.0,1.0,,,,,,,,,cyan,circle
0.0,1.0,1.0,0.0,6.0,6.0,411.3690420053899,2.0,0.0,part_2,go,100.0,300.0,1.0,,,,,,,,,orange,flipped triangle
0.0,5.0,1.0,1.0,5.0,0.0,0.0,2.0,0.0,part_2,stop,100.0,300.0,4.0,,,,,,,,,white,square
0.0,6.0,2.0,1.0,6.0,6.0,384.6203519497067,2.0,0.0,part_2,stop,150.0,300.0,3.0,,,,,,,,,magenta,I
0.0,8.0,4.0,1.0,6.0,0.0,0.0,2.0,0.0,part_2,stop,150.0,250.0,4.0,,,,,,,,,cyan,circle
0.0,3.0,3.0,0.0,6.0,6.0,590.1800079736859,2.0,0.0,part_2,go,150.0,300.0,1.0,,,,,,,,,blue,triangle
0.0,7.0,3.0,1.0,6.0,0.0,0.0,2.0,0.0,part_2,stop,150.0,300.0,4.0,,,,,,,,,gray,hexagon
0.0,3.0,3.0,0.0,5.0,5.0,481.4435942098498,2.0,0.0,part_2,go,150.0,350.0,1.0,,,,,,,,,blue,triangle
0.0,1.0,1.0,0.0,6.0,6.0,440.0431080721318,2.0,0.0,part_2,go,150.0,350.0,1.0,,,,,,,,,orange,flipped triangle
0.0,2.0,2.0,0.0,5.0,5.0,590.3852870687842,2.0,0.0,part_2,go,150.0,350.0,1.0,,,,,,,,,green,cross
0.0,6.0,2.0,1.0,5.0,0.0,0.0,2.0,0.0,part_2,stop,150.0,350.0,4.0,,,,,,,,,magenta,I
0.0,5.0,1.0,1.0,6.0,0.0,0.0,2.0,0.0,part_2,stop,200.0,350.0,4.0,,,,,,,,,white,square
0.0,8.0,4.0,1.0,6.0,6.0,554.5476560946554,2.0,0.0,part_2,go,200.0,400.0,1.0,,,,,,,,,cyan,circle
0.0,4.0,4.0,0.0,6.0,6.0,529.874341096729,2.0,0.0,part_2,go,200.0,400.0,1.0,,,,,,,,,yellow,diamond
0.0,4.0,4.0,0.0,6.0,6.0,433.5930969100445,2.0,0.0,part_2,go,200.0,400.0,1.0,,,,,,,,,yellow,diamond
0.0,7.0,3.0,1.0,6.0,6.0,426.1875210795551,2.0,0.0,part_2,stop,200.0,400.0,3.0,,,,,,,,,gray,hexagon
0.0,7.0,3.0,1.0,5.0,0.0,0.0,2.0,0.0,part_2,stop,200.0,350.0,4.0,,,,,,,,,gray,hexagon
0.0,2.0,2.0,0.0,6.0,6.0,488.1422340404242,2.0,0.0,part_2,go,250.0,350.0,1.0,,,,,,,,,green,cross
0.0,1.0,1.0,0.0,6.0,6.0,560.2503479458392,2.0,0.0,part_2,go,250.0,350.0,1.0,,,,,,,,,orange,flipped triangle
0.0,8.0,4.0,1.0,5.0,0.0,0.0,2.0,0.0,part_2,stop,250.0,350.0,4.0,,,,,,,,,cyan,circle
0.0,5.0,1.0,1.0,5.0,5.0,417.5092100631445,3.0,0.0,part_2,go,300.0,350.0,1.0,,,,,,,,,white,square
0.0,7.0,3.0,1.0,5.0,5.0,582.9657278954983,3.0,0.0,part_2,go,300.0,350.0,1.0,,,,,,,,,gray,hexagon
0.0,4.0,4.0,0.0,6.0,6.0,417.6851781085133,3.0,0.0,part_2,go,300.0,350.0,1.0,,,,,,,,,yellow,diamond
0.0,3.0,3.0,0.0,6.0,6.0,536.6822821088135,3.0,0.0,part_2,go,300.0,350.0,1.0,,,,,,,,,blue,triangle
0.0,8.0,4.0,1.0,6.0,6.0,447.4445551168173,3.0,0.0,part_2,stop,300.0,350.0,3.0,,,,,,,,,cyan,circle
0.0,5.0,1.0,1.0,6.0,6.0,406.0979881323874,3.0,0.0,part_2,go,300.0,300.0,1.0,,,,,,,,,white,square
0.0,7.0,3.0,1.0,5.0,0.0,0.0,3.0,0.0,part_2,stop,300.0,300.0,4.0,,,,,,,,,gray,hexagon
0.0,6.0,2.0,1.0,5.0,0.0,0.0,3.0,0.0,part_2,stop,350.0,300.0,4.0,,,,,,,,,magenta,I
0.0,7.0,3.0,1.0,5.0,0.0,0.0,3.0,0.0,part_2,stop,400.0,300.0,4.0,,,,,,,,,gray,hexagon
0.0,3.0,3.0,0.0,5.0,5.0,685.2506420109421,3.0,0.0,part_2,go,450.0,300.0,1.0,,,,,,,,,blue,triangle
0.0,4.0,4.0,0.0,6.0,6.0,701.4349407982081,3.0,0.0,part_2,go,450.0,300.0,1.0,,,,,,,,,yellow,diamond
0.0,5.0,1.0,1.0,5.0,0.0,0.0,3.0,0.0,part_2,stop,450.0,300.0,4.0,,,,,,,,,white,square
0.0,4.0,4.0,0.0,5.0,5.0,728.6255420185626,3.0,0.0,part_2,go,500.0,300.0,1.0,,,,,,,,,yellow,diamond
0.0,3.0,3.0,0.0,6.0,6.0,711.7656988557428,3.0,0.0,part_2,go,500.0,300.0,1.0,,,,,,,,,blue,triangle
0.0,3.0,3.0,0.0,5.0,5.0,794.8384890332818,3.0,0.0,part_2,go,500.0,300.0,1.0,,,,,,,,,blue,triangle
0.0,4.0,4.0,0.0,5.0,5.0,736.231782939285,3.0,0.0,part_2,go,500.0,300.0,1.0,,,,,,,,,yellow,diamond
0.0,3.0,3.0,0.0,6.0,6.0,447.0558639150113,3.0,0.0,part_2,go,500.0,300.0,1.0,,,,,,,,,blue,triangle
0.0,5.0,1.0,1.0,5.0,5.0,672.4639181047678,3.0,0.0,part_2,stop,500.0,300.0,3.0,,,,,,,,,white,square
0.0,2.0,2.0,0.0,6.0,6.0,767.4299501813948,3.0,0.0,part_2,go,450.0,300.0,1.0,,,,,,,,,green,cross
0.0,4.0,4.0,0.0,5.0,5.0,863.0162689369172,3.0,0.0,part_2,go,450.0,300.0,1.0,,,,,,,,,yellow,diamond
0.0,7.0,3.0,1.0,5.0,0.0,0.0,3.0,0.0,part_2,stop,450.0,300.0,4.0,,,,,,,,,gray,hexagon
0.0,5.0,1.0,1.0,6.0,0.0,0.0,3.0,0.0,part_2,stop,500.0,300.0,4.0,,,,,,,,,white,square
0.0,4.0,4.0,0.0,6.0,6.0,730.7841279543936,3.0,0.0,part_2,go,500.0,350.0,1.0,,,,,,,,,yellow,diamond
0.0,8.0,4.0,1.0,5.0,5.0,612.9141999408603,3.0,0.0,part_2,stop,500.0,350.0,3.0,,,,,,,,,cyan,circle
0.0,1.0,1.0,0.0,5.0,5.0,858.535106992349,3.0,0.0,part_2,go,450.0,350.0,1.0,,,,,,,,,orange,flipped triangle
0.0,6.0,2.0,1.0,5.0,5.0,885.6256608851254,3.0,0.0,part_2,go,450.0,350.0,1.0,,,,,,,,,magenta,I
0.0,3.0,3.0,0.0,6.0,6.0,569.3027749657631,3.0,0.0,part_2,go,450.0,350.0,1.0,,,,,,,,,blue,triangle
0.0,5.0,1.0,1.0,6.0,0.0,0.0,3.0,0.0,part_2,stop,450.0,350.0,4.0,,,,,,,,,white,square
0.0,6.0,2.0,1.0,6.0,6.0,522.2411279100925,3.0,0.0,part_2,stop,450.0,400.0,3.0,,,,,,,,,magenta,I
0.0,6.0,2.0,1.0,5.0,0.0,0.0,3.0,0.0,part_2,stop,450.0,350.0,4.0,,,,,,,,,magenta,I
0.0,3.0,3.0,0.0,5.0,5.0,742.7272070199251,3.0,0.0,part_2,go,500.0,350.0,1.0,,,,,,,,,blue,triangle
0.0,8.0,4.0,1.0,5.0,5.0,630.7791098952293,3.0,0.0,part_2,go,500.0,350.0,1.0,,,,,,,,,cyan,circle
0.0,5.0,1.0,1.0,6.0,6.0,768.732693977654,3.0,0.0,part_2,go,500.0,350.0,1.0,,,,,,,,,white,square
0.0,5.0,1.0,1.0,6.0,6.0,469.4139619823545,3.0,0.0,part_2,stop,500.0,350.0,3.0,,,,,,,,,white,square
0.0,7.0,3.0,1.0,6.0,0.0,0.0,3.0,0.0,part_2,stop,500.0,300.0,4.0,,,,,,,,,gray,hexagon
0.0,7.0,3.0,1.0,6.0,6.0,508.7838089093566,3.0,0.0,part_2,go,500.0,350.0,1.0,,,,,,,,,gray,hexagon
0.0,8.0,4.0,1.0,5.0,5.0,406.9491380359977,4.0,0.0,part_2,go,500.0,350.0,1.0,,,,,,,,,cyan,circle
0.0,2.0,2.0,0.0,6.0,6.0,338.0746939219534,4.0,0.0,part_2,go,500.0,350.0,1.0,,,,,,,,,green,cross
0.0,4.0,4.0,0.0,6.0,6.0,315.0859181769192,4.0,0.0,part_2,go,500.0,350.0,1.0,,,,,,,,,yellow,diamond
0.0,1.0,1.0,0.0,5.0,5.0,339.3245481420308,4.0,0.0,part_2,go,500.0,350.0,1.0,,,,,,,,,orange,flipped triangle
0.0,3.0,3.0,0.0,6.0,6.0,353.1266020145267,4.0,0.0,part_2,go,500.0,350.0,1.0,,,,,,,,,blue,triangle
0.0,2.0,2.0,0.0,5.0,5.0,344.5689911022782,4.0,0.0,part_2,go,500.0,350.0,1.0,,,,,,,,,green,cross
0.0,6.0,2.0,1.0,6.0,6.0,234.2257080599665,4.0,0.0,part_2,stop,500.0,350.0,3.0,,,,,,,,,magenta,I
0.0,4.0,4.0,0.0,5.0,5.0,338.9592578168958,4.0,0.0,part_2,go,500.0,300.0,1.0,,,,,,,,,yellow,diamond
0.0,1.0,1.0,0.0,5.0,5.0,439.4602130632847,4.0,0.0,part_2,go,500.0,300.0,1.0,,,,,,,,,orange,flipped triangle
0.0,6.0,2.0,1.0,5.0,5.0,319.2336100619286,4.0,0.0,part_2,stop,500.0,300.0,3.0,,,,,,,,,magenta,I
0.0,5.0,1.0,1.0,5.0,0.0,0.0,4.0,0.0,part_2,stop,450.0,300.0,4.0,,,,,,,,,white,square
0.0,8.0,4.0,1.0,6.0,6.0,676.6783911734819,4.0,0.0,part_2,go,500.0,300.0,1.0,,,,,,,,,cyan,circle
0.0,5.0,1.0,1.0,6.0,0.0,0.0,4.0,0.0,part_2,stop,500.0,300.0,4.0,,,,,,,,,white,square
0.0,7.0,3.0,1.0,6.0,6.0,611.5543658379465,4.0,0.0,part_2,go,500.0,350.0,1.0,,,,,,,,,gray,hexagon
0.0,7.0,3.0,1.0,6.0,0.0,0.0,4.0,0.0,part_2,stop,500.0,350.0,4.0,,,,,,,,,gray,hexagon
0.0,1.0,1.0,0.0,5.0,5.0,373.7282471265644,4.0,0.0,part_2,go,500.0,400.0,1.0,,,,,,,,,orange,flipped triangle
0.0,4.0,4.0,0.0,6.0,6.0,458.5144959855824,4.0,0.0,part_2,go,500.0,400.0,1.0,,,,,,,,,yellow,diamond
0.0,8.0,4.0,1.0,5.0,5.0,337.3282111715525,4.0,0.0,part_2,stop,500.0,400.0,3.0,,,,,,,,,cyan,circle
0.0,5.0,1.0,1.0,6.0,6.0,601.6028858721256,4.0,0.0,part_2,go,450.0,400.0,1.0,,,,,,,,,white,square
0.0,8.0,4.0,1.0,5.0,5.0,508.2131279632449,4.0,0.0,part_2,stop,450.0,400.0,3.0,,,,,,,,,cyan,circle
0.0,5.0,1.0,1.0,6.0,6.0,418.0802560877055,4.0,0.0,part_2,stop,400.0,400.0,3.0,,,,,,,,,white,square
0.0,7.0,3.0,1.0,5.0,5.0,647.7722411509603,4.0,0.0,part_2,go,400.0,350.0,1.0,,,,,,,,,gray,hexagon
0.0,7.0,3.0,1.0,5.0,5.0,353.6576458718627,4.0,0.0,part_2,stop,400.0,350.0,3.0,,,,,,,,,gray,hexagon
0.0,2.0,2.0,0.0,5.0,5.0,688.4314159397036,4.0,0.0,part_2,go,350.0,350.0,1.0,,,,,,,,,green,cross
0.0,3.0,3.0,0.0,5.0,5.0,592.7753571886569,4.0,0.0,part_2,go,350.0,350.0,1.0,,,,,,,,,blue,triangle
0.0,1.0,1.0,0.0,5.0,5.0,412.8423780202865,4.0,0.0,part_2,go,350.0,350.0,1.0,,,,,,,,,orange,flipped triangle
0.0,5.0,1.0,1.0,5.0,5.0,391.292684013024,4.0,0.0,part_2,stop,350.0,350.0,3.0,,,,,,,,,white,square
0.0,1.0,1.0,0.0,5.0,5.0,636.5953038912266,4.0,0.0,part_2,go,300.0,350.0,1.0,,,,,,,,,orange,flipped triangle
0.0,4.0,4.0,0.0,6.0,6.0,454.6278389170766,4.0,0.0,part_2,go,300.0,350.0,1.0,,,,,,,,,yellow,diamond
0.0,7.0,3.0,1.0,6.0,6.0,485.1878809276968,4.0,0.0,part_2,go,300.0,350.0,1.0,,,,,,,,,gray,hexagon
0.0,6.0,2.0,1.0,6.0,6.0,453.664398053661,4.0,0.0,part_2,go,300.0,350.0,1.0,,,,,,,,,magenta,I
0.0,2.0,2.0,0.0,6.0,6.0,517.0417299959809,4.0,0.0,part_2,go,300.0,350.0,1.0,,,,,,,,,green,cross
0.0,1.0,1.0,0.0,6.0,6.0,524.3735830299556,4.0,0.0,part_2,go,300.0,350.0,1.0,,,,,,,,,orange,flipped triangle
0.0,3.0,3.0,0.0,6.0,6.0,427.3048788309097,4.0,0.0,part_2,go,300.0,350.0,1.0,,,,,,,,,blue,triangle
0.0,7.0,3.0,1.0,6.0,6.0,376.4681108295917,4.0,0.0,part_2,stop,300.0,350.0,3.0,,,,,,,,,gray,hexagon
0.0,2.0,2.0,0.0,5.0,5.0,487.1657588519156,4.0,0.0,part_2,go,300.0,300.0,1.0,,,,,,,,,green,cross
0.0,3.0,3.0,0.0,5.0,4.0,625.0777209643275,5.0,0.0,part_2,go,300.0,300.0,2.0,,,,,,,,,blue,triangle
0.0,6.0,2.0,1.0,6.0,6.0,399.8003411106765,5.0,0.0,part_2,stop,300.0,300.0,3.0,,,,,,,,,magenta,I
0.0,2.0,2.0,0.0,5.0,5.0,336.3443738780916,5.0,0.0,part_2,go,300.0,250.0,1.0,,,,,,,,,green,cross
0.0,5.0,1.0,1.0,6.0,6.0,290.7687909901142,5.0,0.0,part_2,stop,300.0,250.0,3.0,,,,,,,,,white,square
0.0,2.0,2.0,0.0,6.0,6.0,439.7459011524915,5.0,0.0,part_2,go,300.0,200.0,1.0,,,,,,,,,green,cross
0.0,1.0,1.0,0.0,5.0,5.0,337.5753050204366,5.0,0.0,part_2,go,300.0,200.0,1.0,,,,,,,,,orange,flipped triangle
0.0,2.0,2.0,0.0,6.0,6.0,287.5840819906443,5.0,0.0,part_2,go,300.0,200.0,1.0,,,,,,,,,green,cross
0.0,3.0,3.0,0.0,6.0,6.0,328.1921721063554,5.0,0.0,part_2,go,300.0,200.0,1.0,,,,,,,,,blue,triangle
0.0,4.0,4.0,0.0,5.0,5.0,299.9319001100957,5.0,0.0,part_2,go,300.0,200.0,1.0,,,,,,,,,yellow,diamond
0.0,6.0,2.0,1.0,5.0,5.0,319.5175877772271,5.0,0.0,part_2,stop,300.0,200.0,3.0,,,,,,,,,magenta,I
0.0,7.0,3.0,1.0,5.0,5.0,398.7890658900141,5.0,0.0,part_2,go,250.0,200.0,1.0,,,,,,,,,gray,hexagon
0.0,8.0,4.0,1.0,6.0,6.0,358.1604969222098,5.0,0.0,part_2,stop,250.0,200.0,3.0,,,,,,,,,cyan,circle
0.0,8.0,4.0,1.0,6.0,6.0,454.0609191171825,5.0,0.0,part_2,go,250.0,150.0,1.0,,,,,,,,,cyan,circle
0.0,4.0,4.0,0.0,6.0,6.0,337.1804889757186,5.0,0.0,part_2,go,250.0,150.0,1.0,,,,,,,,,yellow,diamond
0.0,6.0,2.0,1.0,6.0,0.0,0.0,5.0,0.0,part_2,stop,250.0,150.0,4.0,,,,,,,,,magenta,I
0.0,5.0,1.0,1.0,5.0,5.0,360.5449199676513,5.0,0.0,part_2,go,250.0,200.0,1.0,,,,,,,,,white,square
0.0,5.0,1.0,1.0,5.0,0.0,0.0,5.0,0.0,part_2,stop,250.0,200.0,4.0,,,,,,,,,white,square
0.0,1.0,1.0,0.0,6.0,6.0,367.8223369643092,5.0,0.0,part_2,go,300.0,200.0,1.0,,,,,,,,,orange,flipped triangle
0.0,3.0,3.0,0.0,6.0,6.0,409.6760700922459,5.0,0.0,part_2,go,300.0,200.0,1.0,,,,,,,,,blue,triangle
0.0,4.0,4.0,0.0,5.0,5.0,329.2902959510684,5.0,0.0,part_2,go,300.0,200.0,1.0,,,,,,,,,yellow,diamond
0.0,7.0,3.0,1.0,5.0,5.0,324.4805918075144,5.0,0.0,part_2,stop,300.0,200.0,3.0,,,,,,,,,gray,hexagon
0.0,4.0,4.0,0.0,5.0,5.0,536.8511700071394,5.0,0.0,part_2,go,250.0,200.0,1.0,,,,,,,,,yellow,diamond
0.0,5.0,1.0,1.0,6.0,6.0,357.27045009844,5.0,0.0,part_2,stop,250.0,200.0,3.0,,,,,,,,,white,square
0.0,3.0,3.0,0.0,5.0,5.0,652.7128308080137,5.0,0.0,part_2,go,250.0,150.0,1.0,,,,,,,,,blue,triangle
0.0,3.0,3.0,0.0,5.0,5.0,323.4556929673999,5.0,0.0,part_2,go,250.0,150.0,1.0,,,,,,,,,blue,triangle
0.0,2.0,2.0,0.0,5.0,5.0,357.0288131013512,5.0,0.0,part_2,go,250.0,150.0,1.0,,,,,,,,,green,cross
0.0,5.0,1.0,1.0,5.0,5.0,354.9987759906798,5.0,0.0,part_2,stop,250.0,150.0,3.0,,,,,,,,,white,square
0.0,4.0,4.0,0.0,5.0,5.0,395.8381118718534,5.0,0.0,part_2,go,200.0,150.0,1.0,,,,,,,,,yellow,diamond
0.0,7.0,3.0,1.0,6.0,0.0,0.0,5.0,0.0,part_2,stop,200.0,150.0,4.0,,,,,,,,,gray,hexagon
0.0,1.0,1.0,0.0,6.0,6.0,491.921978071332,5.0,0.0,part_2,go,200.0,200.0,1.0,,,,,,,,,orange,flipped triangle
0.0,8.0,4.0,1.0,6.0,0.0,0.0,5.0,0.0,part_2,stop,200.0,200.0,4.0,,,,,,,,,cyan,circle
0.0,7.0,3.0,1.0,6.0,0.0,0.0,5.0,0.0,part_2,stop,200.0,250.0,4.0,,,,,,,,,gray,hexagon
0.0,8.0,4.0,1.0,5.0,0.0,0.0,5.0,0.0,part_2,stop,200.0,300.0,4.0,,,,,,,,,cyan,circle
0.0,2.0,2.0,0.0,6.0,6.0,394.0600049681961,5.0,0.0,part_2,go,250.0,300.0,1.0,,,,,,,,,green,cross
0.0,5.0,1.0,1.0,5.0,5.0,409.5366920810193,5.0,0.0,part_2,stop,250.0,300.0,3.0,,,,,,,,,white,square
0.0,1.0,1.0,0.0,6.0,6.0,576.897069113329,5.0,0.0,part_2,go,200.0,300.0,1.0,,,,,,,,,orange,flipped triangle
0.0,6.0,2.0,1.0,5.0,5.0,1240.3031450230628,6.0,0.0,part_2,go,200.0,300.0,1.0,,,,,,,,,magenta,I
0.0,5.0,1.0,1.0,6.0,6.0,329.6787899453193,6.0,0.0,part_2,stop,200.0,300.0,3.0,,,,,,,,,white,square
0.0,3.0,3.0,0.0,5.0,5.0,381.8833380937576,6.0,0.0,part_2,go,200.0,250.0,1.0,,,,,,,,,blue,triangle
0.0,8.0,4.0,1.0,5.0,5.0,431.7984590306878,6.0,0.0,part_2,stop,200.0,250.0,3.0,,,,,,,,,cyan,circle
0.0,8.0,4.0,1.0,6.0,0.0,0.0,6.0,0.0,part_2,stop,150.0,250.0,4.0,,,,,,,,,cyan,circle
0.0,3.0,3.0,0.0,5.0,5.0,596.2421849835664,6.0,0.0,part_2,go,150.0,300.0,1.0,,,,,,,,,blue,triangle
0.0,2.0,2.0,0.0,6.0,6.0,462.5933789648115,6.0,0.0,part_2,go,150.0,300.0,1.0,,,,,,,,,green,cross
0.0,8.0,4.0,1.0,5.0,0.0,0.0,6.0,0.0,part_2,stop,150.0,300.0,4.0,,,,,,,,,cyan,circle
0.0,7.0,3.0,1.0,5.0,0.0,0.0,6.0,0.0,part_2,stop,200.0,300.0,4.0,,,,,,,,,gray,hexagon
0.0,1.0,1.0,0.0,5.0,5.0,467.8072230890393,6.0,0.0,part_2,go,250.0,300.0,1.0,,,,,,,,,orange,flipped triangle
0.0,4.0,4.0,0.0,5.0,5.0,434.4388889148831,6.0,0.0,part_2,go,250.0,300.0,1.0,,,,,,,,,yellow,diamond
0.0,7.0,3.0,1.0,5.0,5.0,393.0127401836216,6.0,0.0,part_2,stop,250.0,300.0,3.0,,,,,,,,,gray,hexagon
0.0,3.0,3.0,0.0,5.0,5.0,395.4786949325353,6.0,0.0,part_2,go,200.0,300.0,1.0,,,,,,,,,blue,triangle
0.0,4.0,4.0,0.0,5.0,5.0,409.9071428645402,6.0,0.0,part_2,go,200.0,300.0,1.0,,,,,,,,,yellow,diamond
0.0,3.0,3.0,0.0,6.0,6.0,369.3567840382457,6.0,0.0,part_2,go,200.0,300.0,1.0,,,,,,,,,blue,triangle
0.0,5.0,1.0,1.0,6.0,6.0,350.7855169009417,6.0,0.0,part_2,stop,200.0,300.0,3.0,,,,,,,,,white,square
0.0,3.0,3.0,0.0,6.0,6.0,448.3428208623081,6.0,0.0,part_2,go,200.0,250.0,1.0,,,,,,,,,blue,triangle
0.0,7.0,3.0,1.0,5.0,5.0,317.9839469958097,6.0,0.0,part_2,stop,200.0,250.0,3.0,,,,,,,,,gray,hexagon
0.0,4.0,4.0,0.0,5.0,5.0,372.8221009951085,6.0,0.0,part_2,go,150.0,250.0,1.0,,,,,,,,,yellow,diamond
0.0,7.0,3.0,1.0,6.0,6.0,350.0072879251092,6.0,0.0,part_2,stop,150.0,250.0,3.0,,,,,,,,,gray,hexagon
0.0,5.0,1.0,1.0,6.0,6.0,427.6370909065008,6.0,0.0,part_2,go,150.0,200.0,1.0,,,,,,,,,white,square
0.0,3.0,3.0,0.0,6.0,6.0,398.4295350965112,6.0,0.0,part_2,go,150.0,200.0,1.0,,,,,,,,,blue,triangle
0.0,7.0,3.0,1.0,5.0,0.0,0.0,6.0,0.0,part_2,stop,150.0,200.0,4.0,,,,,,,,,gray,hexagon
0.0,2.0,2.0,0.0,5.0,5.0,690.7642208971083,6.0,0.0,part_2,go,200.0,200.0,1.0,,,,,,,,,green,cross
0.0,3.0,3.0,0.0,6.0,6.0,385.8793159015476,6.0,0.0,part_2,go,200.0,200.0,1.0,,,,,,,,,blue,triangle
0.0,7.0,3.0,1.0,6.0,0.0,0.0,6.0,0.0,part_2,stop,200.0,200.0,4.0,,,,,,,,,gray,hexagon
0.0,7.0,3.0,1.0,6.0,6.0,532.1011350024492,6.0,0.0,part_2,go,200.0,250.0,1.0,,,,,,,,,gray,hexagon
0.0,6.0,2.0,1.0,5.0,5.0,355.6930117774755,6.0,0.0,part_2,stop,200.0,250.0,3.0,,,,,,,,,magenta,I
0.0,6.0,2.0,1.0,6.0,0.0,0.0,6.0,0.0,part_2,stop,150.0,250.0,4.0,,,,,,,,,magenta,I
0.0,4.0,4.0,0.0,6.0,6.0,408.1608410924673,6.0,0.0,part_2,go,150.0,300.0,1.0,,,,,,,,,yellow,diamond
0.0,4.0,4.0,0.0,6.0,6.0,361.2616281025111,6.0,0.0,part_2,go,150.0,300.0,1.0,,,,,,,,,yellow,diamond
0.0,1.0,1.0,0.0,6.0,6.0,389.817516785115,6.0,0.0,part_2,go,150.0,300.0,1.0,,,,,,,,,orange,flipped triangle
0.0,8.0,4.0,1.0,6.0,6.0,375.6729010492563,6.0,0.0,part_2,stop,150.0,300.0,3.0,,,,,,,,,cyan,circle
0.0,8.0,4.0,1.0,5.0,0.0,0.0,6.0,0.0,part_2,stop,150.0,250.0,4.0,,,,,,,,,cyan,circle
0.0,2.0,2.0,0.0,6.0,6.0,428.7694848608225,6.0,0.0,part_2,go,200.0,250.0,1.0,,,,,,,,,green,cross
0.0,8.0,4.0,1.0,6.0,0.0,0.0,6.0,0.0,part_2,stop,200.0,250.0,4.0,,,,,,,,,cyan,circle
0.0,6.0,2.0,1.0,6.0,6.0,348.1193028856069,7.0,0.0,part_2,go,200.0,300.0,1.0,,,,,,,,,magenta,I
0.0,7.0,3.0,1.0,5.0,5.0,280.5642650928348,7.0,0.0,part_2,stop,200.0,300.0,3.0,,,,,,,,,gray,hexagon
0.0,3.0,3.0,0.0,5.0,5.0,463.2647070102393,7.0,0.0,part_2,go,150.0,300.0,1.0,,,,,,,,,blue,triangle
0.0,2.0,2.0,0.0,6.0,6.0,377.3605090100318,7.0,0.0,part_2,go,150.0,300.0,1.0,,,,,,,,,green,cross
0.0,4.0,4.0,0.0,5.0,5.0,376.3956339098513,7.0,0.0,part_2,go,150.0,300.0,1.0,,,,,,,,,yellow,diamond
0.0,2.0,2.0,0.0,5.0,5.0,343.3324170764535,7.0,0.0,part_2,go,150.0,300.0,1.0,,,,,,,,,green,cross
0.0,8.0,4.0,1.0,5.0,0.0,0.0,7.0,0.0,part_2,stop,150.0,300.0,4.0,,,,,,,,,cyan,circle
0.0,5.0,1.0,1.0,5.0,0.0,0.0,7.0,0.0,part_2,stop,200.0,300.0,4.0,,,,,,,,,white,square
0.0,2.0,2.0,0.0,5.0,5.0,566.1620360333472,7.0,0.0,part_2,go,250.0,300.0,1.0,,,,,,,,,green,cross
0.0,2.0,2.0,0.0,5.0,5.0,541.9358091894537,7.0,0.0,part_2,go,250.0,300.0,1.0,,,,,,,,,green,cross
0.0,7.0,3.0,1.0,5.0,5.0,382.4922679923475,7.0,0.0,part_2,stop,250.0,300.0,3.0,,,,,,,,,gray,hexagon
0.0,6.0,2.0,1.0,5.0,0.0,0.0,7.0,0.0,part_2,stop,200.0,300.0,4.0,,,,,,,,,magenta,I
0.0,1.0,1.0,0.0,6.0,6.0,402.2413841448724,7.0,0.0,part_2,go,250.0,300.0,1.0,,,,,,,,,orange,flipped triangle
0.0,5.0,1.0,1.0,6.0,6.0,433.5668119601905,7.0,0.0,part_2,go,250.0,300.0,1.0,,,,,,,,,white,square
0.0,3.0,3.0,0.0,5.0,5.0,476.7790038604289,7.0,0.0,part_2,go,250.0,300.0,1.0,,,,,,,,,blue,triangle
0.0,3.0,3.0,0.0,5.0,5.0,435.1450819522142,7.0,0.0,part_2,go,250.0,300.0,1.0,,,,,,,,,blue,triangle
0.0,6.0,2.0,1.0,5.0,5.0,352.5761249475181,7.0,0.0,part_2,stop,250.0,300.0,3.0,,,,,,,,,magenta,I
0.0,1.0,1.0,0.0,5.0,5.0,361.3299001008272,7.0,0.0,part_2,go,200.0,300.0,1.0,,,,,,,,,orange,flipped triangle
0.0,6.0,2.0,1.0,5.0,5.0,369.4531458895653,7.0,0.0,part_2,go,200.0,300.0,1.0,,,,,,,,,magenta,I
0.0,7.0,3.0,1.0,6.0,6.0,401.3834339566529,7.0,0.0,part_2,go,200.0,300.0,1.0,,,,,,,,,gray,hexagon
0.0,5.0,1.0,1.0,6.0,6.0,318.2925628498196,7.0,0.0,part_2,stop,200.0,300.0,3.0,,,,,,,,,white,square
0.0,1.0,1.0,0.0,6.0,6.0,390.4737760312855,7.0,0.0,part_2,go,200.0,250.0,1.0,,,,,,,,,orange,flipped triangle
0.0,8.0,4.0,1.0,5.0,0.0,0.0,7.0,0.0,part_2,stop,200.0,250.0,4.0,,,,,,,,,cyan,circle
0.0,4.0,4.0,0.0,6.0,6.0,374.4331700727343,7.0,0.0,part_2,go,250.0,250.0,1.0,,,,,,,,,yellow,diamond
0.0,6.0,2.0,1.0,5.0,5.0,387.5273470766842,7.0,0.0,part_2,stop,250.0,250.0,3.0,,,,,,,,,magenta,I
0.0,1.0,1.0,0.0,5.0,5.0,450.6819448433816,7.0,0.0,part_2,go,200.0,250.0,1.0,,,,,,,,,orange,flipped triangle
0.0,6.0,2.0,1.0,6.0,6.0,309.0471581090241,7.0,0.0,part_2,go,200.0,250.0,1.0,,,,,,,,,magenta,I
0.0,5.0,1.0,1.0,5.0,5.0,330.4048511199653,7.0,0.0,part_2,stop,200.0,250.0,3.0,,,,,,,,,white,square
0.0,2.0,2.0,0.0,6.0,6.0,307.7987129800021,7.0,0.0,part_2,go,150.0,250.0,1.0,,,,,,,,,green,cross
0.0,7.0,3.0,1.0,5.0,0.0,0.0,7.0,0.0,part_2,stop,150.0,250.0,4.0,,,,,,,,,gray,hexagon
0.0,8.0,4.0,1.0,6.0,6.0,295.7407948561013,7.0,0.0,part_2,stop,200.0,250.0,3.0,,,,,,,,,cyan,circle
0.0,3.0,3.0,0.0,5.0,5.0,407.4489620979875,7.0,0.0,part_2,go,200.0,200.0,1.0,,,,,,,,,blue,triangle
0.0,8.0,4.0,1.0,6.0,6.0,379.1161000262946,7.0,0.0,part_2,stop,200.0,200.0,3.0,,,,,,,,,cyan,circle
0.0,8.0,4.0,1.0,5.0,0.0,0.0,7.0,0.0,part_2,stop,200.0,150.0,4.0,,,,,,,,,cyan,circle
0.0,8.0,4.0,1.0,6.0,0.0,0.0,7.0,0.0,part_2,stop,250.0,150.0,4.0,,,,,,,,,cyan,circle
0.0,2.0,2.0,0.0,6.0,6.0,485.1312399841845,7.0,0.0,part_2,go,250.0,200.0,1.0,,,,,,,,,green,cross
0.0,2.0,2.0,0.0,5.0,5.0,336.0526519827544,8.0,0.0,part_2,go,250.0,200.0,1.0,,,,,,,,,green,cross
0.0,8.0,4.0,1.0,6.0,6.0,353.3296100795269,8.0,0.0,part_2,stop,250.0,200.0,3.0,,,,,,,,,cyan,circle
0.0,1.0,1.0,0.0,5.0,5.0,446.9184339977801,8.0,0.0,part_2,go,250.0,150.0,1.0,,,,,,,,,orange,flipped triangle
0.0,3.0,3.0,0.0,5.0,5.0,382.2796638123691,8.0,0.0,part_2,go,250.0,150.0,1.0,,,,,,,,,blue,triangle
0.0,7.0,3.0,1.0,6.0,0.0,0.0,8.0,0.0,part_2,stop,250.0,150.0,4.0,,,,,,,,,gray,hexagon
0.0,1.0,1.0,0.0,6.0,6.0,367.9269549902528,8.0,0.0,part_2,go,250.0,200.0,1.0,,,,,,,,,orange,flipped triangle
0.0,2.0,2.0,0.0,5.0,5.0,398.7309138756245,8.0,0.0,part_2,go,250.0,200.0,1.0,,,,,,,,,green,cross
0.0,6.0,2.0,1.0,5.0,5.0,389.6417219657451,8.0,0.0,part_2,stop,250.0,200.0,3.0,,,,,,,,,magenta,I
0.0,1.0,1.0,0.0,6.0,6.0,557.5831648893654,8.0,0.0,part_2,go,200.0,200.0,1.0,,,,,,,,,orange,flipped triangle
0.0,8.0,4.0,1.0,5.0,0.0,0.0,8.0,0.0,part_2,stop,200.0,200.0,4.0,,,,,,,,,cyan,circle
0.0,8.0,4.0,1.0,6.0,0.0,0.0,8.0,0.0,part_2,stop,250.0,200.0,4.0,,,,,,,,,cyan,circle
0.0,1.0,1.0,0.0,5.0,5.0,499.9019559472799,8.0,0.0,part_2,go,250.0,250.0,1.0,,,,,,,,,orange,flipped triangle
0.0,2.0,2.0,0.0,5.0,5.0,369.3863891530782,8.0,0.0,part_2,go,250.0,250.0,1.0,,,,,,,,,green,cross
0.0,1.0,1.0,0.0,5.0,5.0,442.1046450734138,8.0,0.0,part_2,go,250.0,250.0,1.0,,,,,,,,,orange,flipped triangle
0.0,5.0,1.0,1.0,5.0,5.0,328.1112308613956,8.0,0.0,part_2,go,250.0,250.0,1.0,,,,,,,,,white,square
0.0,6.0,2.0,1.0,6.0,6.0,363.4505509398877,8.0,0.0,part_2,stop,250.0,250.0,3.0,,,,,,,,,magenta,I
0.0,4.0,4.0,0.0,5.0,5.0,401.1246659792959,8.0,0.0,part_2,go,250.0,200.0,1.0,,,,,,,,,yellow,diamond
0.0,1.0,1.0,0.0,6.0,6.0,376.4309138059616,8.0,0.0,part_2,go,250.0,200.0,1.0,,,,,,,,,orange,flipped triangle
0.0,8.0,4.0,1.0,6.0,6.0,399.354447145015,8.0,0.0,part_2,go,250.0,200.0,1.0,,,,,,,,,cyan,circle
0.0,8.0,4.0,1.0,5.0,5.0,328.6606359761208,8.0,0.0,part_2,go,250.0,200.0,1.0,,,,,,,,,cyan,circle
0.0,6.0,2.0,1.0,6.0,6.0,350.3909781575203,8.0,0.0,part_2,go,250.0,200.0,1.0,,,,,,,,,magenta,I
0.0,1.0,1.0,0.0,5.0,5.0,356.4507919363677,8.0,0.0,part_2,go,250.0,200.0,1.0,,,,,,,,,orange,flipped triangle
0.0,6.0,2.0,1.0,6.0,0.0,0.0,8.0,0.0,part_2,stop,250.0,200.0,4.0,,,,,,,,,magenta,I
0.0,6.0,2.0,1.0,5.0,0.0,0.0,8.0,0.0,part_2,stop,250.0,250.0,4.0,,,,,,,,,magenta,I
0.0,3.0,3.0,0.0,6.0,6.0,469.8707410134375,8.0,0.0,part_2,go,300.0,250.0,1.0,,,,,,,,,blue,triangle
0.0,3.0,3.0,0.0,6.0,6.0,437.8819731064141,8.0,0.0,part_2,go,300.0,250.0,1.0,,,,,,,,,blue,triangle
0.0,7.0,3.0,1.0,6.0,0.0,0.0,8.0,0.0,part_2,stop,300.0,250.0,4.0,,,,,,,,,gray,hexagon
0.0,4.0,4.0,0.0,6.0,6.0,426.5802670270204,8.0,0.0,part_2,go,300.0,300.0,1.0,,,,,,,,,yellow,diamond
0.0,5.0,1.0,1.0,5.0,5.0,491.4112552069127,8.0,0.0,part_2,stop,300.0,300.0,3.0,,,,,,,,,white,square
0.0,4.0,4.0,0.0,6.0,6.0,503.6322569940239,8.0,0.0,part_2,go,250.0,300.0,1.0,,,,,,,,,yellow,diamond
0.0,6.0,2.0,1.0,6.0,6.0,434.4607298262417,8.0,0.0,part_2,go,250.0,300.0,1.0,,,,,,,,,magenta,I
0.0,8.0,4.0,1.0,6.0,6.0,418.2528369128704,8.0,0.0,part_2,stop,250.0,300.0,3.0,,,,,,,,,cyan,circle
0.0,8.0,4.0,1.0,5.0,0.0,0.0,8.0,0.0,part_2,stop,250.0,250.0,4.0,,,,,,,,,cyan,circle
0.0,1.0,1.0,0.0,6.0,6.0,439.6488529164344,8.0,0.0,part_2,go,300.0,250.0,1.0,,,,,,,,,orange,flipped triangle
0.0,4.0,4.0,0.0,6.0,6.0,357.4511669576168,8.0,0.0,part_2,go,300.0,250.0,1.0,,,,,,,,,yellow,diamond
0.0,6.0,2.0,1.0,6.0,6.0,326.3975549489259,8.0,0.0,part_2,stop,300.0,250.0,3.0,,,,,,,,,magenta,I
0.0,2.0,2.0,0.0,7.0,3.0,2150.039696134627,1.0,1.0,part_3,go,0.0,0.0,0.0,196.0,4.0,147.0,294.0,196.0,49.0,245.0,98.0,green,cross
0.0,3.0,3.0,0.0,7.0,4.0,2457.651539007202,1.0,1.0,part_3,go,0.0,0.0,0.0,220.0,5.0,264.0,176.0,88.0,220.0,132.0,44.0,blue,triangle
0.0,8.0,4.0,1.0,7.0,3.0,2040.6497260555625,1.0,1.0,part_3,go,0.0,0.0,0.0,98.0,2.0,147.0,49.0,98.0,196.0,294.0,245.0,cyan,circle
0.0,5.0,1.0,1.0,7.0,6.0,2146.4181269984692,1.0,1.0,part_3,go,0.0,0.0,0.0,324.0,6.0,108.0,162.0,216.0,54.0,270.0,324.0,white,square
0.0,8.0,4.0,1.0,7.0,4.0,1823.347820201889,1.0,1.0,part_3,go,0.0,0.0,0.0,117.0,3.0,195.0,39.0,156.0,117.0,234.0,78.0,cyan,circle
0.0,4.0,4.0,0.0,7.0,1.0,1671.736977994442,1.0,1.0,part_3,go,0.0,0.0,0.0,220.0,5.0,220.0,132.0,264.0,88.0,44.0,176.0,yellow,diamond
0.0,3.0,3.0,0.0,7.0,6.0,822.2692760173231,1.0,1.0,part_3,go,0.0,0.0,0.0,156.0,4.0,117.0,195.0,78.0,39.0,234.0,156.0,blue,triangle
0.0,6.0,2.0,1.0,7.0,4.0,1144.114289898425,1.0,1.0,part_3,go,0.0,0.0,0.0,294.0,6.0,196.0,245.0,49.0,294.0,147.0,98.0,magenta,I
0.0,1.0,1.0,0.0,7.0,6.0,1312.6565089914948,1.0,1.0,part_3,go,0.0,0.0,0.0,245.0,5.0,98.0,196.0,147.0,294.0,49.0,245.0,orange,flipped triangle
0.0,1.0,1.0,0.0,7.0,4.0,517.1506558544934,1.0,1.0,part_3,go,0.0,0.0,0.0,108.0,2.0,270.0,54.0,324.0,108.0,216.0,162.0,orange,flipped triangle
0.0,1.0,1.0,0.0,7.0,4.0,606.8289738614112,1.0,1.0,part_3,go,0.0,0.0,0.0,132.0,3.0,220.0,264.0,88.0,132.0,44.0,176.0,orange,flipped triangle
0.0,6.0,2.0,1.0,7.0,3.0,1095.4153470229355,1.0,1.0,part_3,go,0.0,0.0,0.0,270.0,5.0,324.0,54.0,270.0,162.0,216.0,108.0,magenta,I
0.0,7.0,3.0,1.0,7.0,1.0,1304.5471177902073,1.0,1.0,part_3,go,0.0,0.0,0.0,294.0,6.0,294.0,245.0,98.0,196.0,147.0,49.0,gray,hexagon
0.0,4.0,4.0,0.0,7.0,3.0,577.1870519965887,1.0,1.0,part_3,go,0.0,0.0,0.0,117.0,3.0,39.0,234.0,117.0,195.0,78.0,156.0,yellow,diamond
0.0,7.0,3.0,1.0,7.0,6.0,618.2873919606209,1.0,1.0,part_3,go,0.0,0.0,0.0,220.0,5.0,176.0,132.0,88.0,44.0,264.0,220.0,gray,hexagon
0.0,2.0,2.0,0.0,7.0,3.0,1314.645552076399,1.0,1.0,part_3,go,0.0,0.0,0.0,270.0,5.0,216.0,324.0,270.0,108.0,54.0,162.0,green,cross
0.0,6.0,2.0,1.0,7.0,5.0,1260.2823989000171,1.0,1.0,part_3,go,0.0,0.0,0.0,34.0,1.0,68.0,204.0,170.0,136.0,34.0,102.0,magenta,I
0.0,1.0,1.0,0.0,7.0,4.0,856.2854549381882,1.0,1.0,part_3,go,0.0,0.0,0.0,108.0,2.0,162.0,216.0,54.0,108.0,324.0,270.0,orange,flipped triangle
0.0,7.0,3.0,1.0,7.0,6.0,1199.3450748268517,1.0,1.0,part_3,go,0.0,0.0,0.0,156.0,4.0,39.0,117.0,195.0,78.0,234.0,156.0,gray,hexagon
0.0,4.0,4.0,0.0,7.0,5.0,937.6895388122648,1.0,1.0,part_3,go,0.0,0.0,0.0,68.0,2.0,102.0,170.0,34.0,204.0,68.0,136.0,yellow,diamond
0.0,7.0,3.0,1.0,7.0,4.0,1585.013082018122,2.0,1.0,part_3,go,0.0,0.0,0.0,132.0,3.0,264.0,88.0,176.0,132.0,220.0,44.0,gray,hexagon
0.0,7.0,3.0,1.0,7.0,1.0,1394.0215369220823,2.0,1.0,part_3,go,0.0,0.0,0.0,270.0,5.0,270.0,324.0,54.0,162.0,216.0,108.0,gray,hexagon
0.0,6.0,2.0,1.0,7.0,4.0,1416.365530109033,2.0,1.0,part_3,go,0.0,0.0,0.0,49.0,1.0,245.0,98.0,147.0,49.0,294.0,196.0,magenta,I
0.0,5.0,1.0,1.0,7.0,3.0,1434.076599078253,2.0,1.0,part_3,go,0.0,0.0,0.0,234.0,6.0,156.0,39.0,234.0,78.0,195.0,117.0,white,square
0.0,8.0,4.0,1.0,7.0,4.0,1661.9390749838203,2.0,1.0,part_3,go,0.0,0.0,0.0,176.0,4.0,264.0,88.0,220.0,176.0,132.0,44.0,cyan,circle
0.0,1.0,1.0,0.0,7.0,5.0,1464.1370279714463,2.0,1.0,part_3,go,0.0,0.0,0.0,204.0,6.0,102.0,136.0,34.0,170.0,204.0,68.0,orange,flipped triangle
0.0,5.0,1.0,1.0,7.0,1.0,1401.181377004832,2.0,1.0,part_3,go,0.0,0.0,0.0,216.0,4.0,216.0,162.0,324.0,54.0,108.0,270.0,white,square
0.0,6.0,2.0,1.0,7.0,6.0,1146.1650310084224,2.0,1.0,part_3,go,0.0,0.0,0.0,216.0,4.0,270.0,54.0,324.0,108.0,162.0,216.0,magenta,I
0.0,7.0,3.0,1.0,7.0,3.0,1314.815026009455,2.0,1.0,part_3,go,0.0,0.0,0.0,294.0,6.0,49.0,196.0,294.0,147.0,245.0,98.0,gray,hexagon
0.0,8.0,4.0,1.0,7.0,2.0,778.4736689645797,2.0,1.0,part_3,go,0.0,0.0,0.0,54.0,1.0,108.0,54.0,270.0,162.0,216.0,324.0,cyan,circle
0.0,3.0,3.0,0.0,7.0,5.0,1092.5746620632708,2.0,1.0,part_3,go,0.0,0.0,0.0,156.0,4.0,78.0,117.0,39.0,195.0,156.0,234.0,blue,triangle
0.0,3.0,3.0,0.0,7.0,2.0,1164.8698830977082,2.0,1.0,part_3,go,0.0,0.0,0.0,324.0,6.0,54.0,324.0,162.0,216.0,270.0,108.0,blue,triangle
0.0,4.0,4.0,0.0,7.0,4.0,984.8950849846004,2.0,1.0,part_3,go,0.0,0.0,0.0,102.0,3.0,68.0,34.0,170.0,102.0,136.0,204.0,yellow,diamond
0.0,8.0,4.0,1.0,7.0,1.0,871.5513700153679,2.0,1.0,part_3,go,0.0,0.0,0.0,162.0,3.0,162.0,270.0,54.0,216.0,324.0,108.0,cyan,circle
0.0,2.0,2.0,0.0,7.0,3.0,1137.1886369306594,2.0,1.0,part_3,go,0.0,0.0,0.0,147.0,3.0,245.0,98.0,147.0,49.0,294.0,196.0,green,cross
0.0,1.0,1.0,0.0,7.0,6.0,813.8270440977067,2.0,1.0,part_3,go,0.0,0.0,0.0,78.0,2.0,117.0,156.0,195.0,234.0,39.0,78.0,orange,flipped triangle
0.0,5.0,1.0,1.0,7.0,1.0,686.6930089890957,2.0,1.0,part_3,go,0.0,0.0,0.0,136.0,4.0,136.0,170.0,204.0,102.0,68.0,34.0,white,square
0.0,8.0,4.0,1.0,7.0,5.0,1133.5291750729084,2.0,1.0,part_3,go,0.0,0.0,0.0,294.0,6.0,147.0,245.0,196.0,98.0,294.0,49.0,cyan,circle
0.0,8.0,4.0,1.0,7.0,2.0,655.780911212787,2.0,1.0,part_3,go,0.0,0.0,0.0,132.0,3.0,88.0,132.0,176.0,264.0,220.0,44.0,cyan,circle
0.0,4.0,4.0,0.0,7.0,6.0,2401.6625601798296,2.0,1.0,part_3,go,0.0,0.0,0.0,264.0,6.0,44.0,132.0,220.0,176.0,88.0,264.0,yellow,diamond
0.0,3.0,3.0,0.0,7.0,3.0,793.8699699006975,3.0,1.0,part_3,go,0.0,0.0,0.0,108.0,2.0,54.0,324.0,108.0,162.0,216.0,270.0,blue,triangle
0.0,4.0,4.0,0.0,7.0,6.0,818.724948214367,3.0,1.0,part_3,go,0.0,0.0,0.0,216.0,4.0,108.0,162.0,54.0,324.0,270.0,216.0,yellow,diamond
0.0,5.0,1.0,1.0,7.0,5.0,1194.0235630609095,3.0,1.0,part_3,go,0.0,0.0,0.0,294.0,6.0,196.0,147.0,49.0,245.0,294.0,98.0,white,square
0.0,3.0,3.0,0.0,7.0,2.0,805.4391432087868,3.0,1.0,part_3,go,0.0,0.0,0.0,98.0,2.0,294.0,98.0,147.0,245.0,49.0,196.0,blue,triangle
0.0,6.0,2.0,1.0,7.0,3.0,788.5359427891672,3.0,1.0,part_3,go,0.0,0.0,0.0,220.0,5.0,176.0,44.0,220.0,264.0,88.0,132.0,magenta,I
0.0,7.0,3.0,1.0,7.0,5.0,743.8302261289209,3.0,1.0,part_3,go,0.0,0.0,0.0,204.0,6.0,136.0,68.0,102.0,170.0,204.0,34.0,gray,hexagon
0.0,5.0,1.0,1.0,7.0,4.0,743.6045377980918,3.0,1.0,part_3,go,0.0,0.0,0.0,147.0,3.0,196.0,98.0,245.0,147.0,294.0,49.0,white,square
0.0,2.0,2.0,0.0,7.0,5.0,1345.5054110381752,3.0,1.0,part_3,go,0.0,0.0,0.0,204.0,6.0,136.0,68.0,102.0,170.0,204.0,34.0,green,cross
0.0,2.0,2.0,0.0,7.0,5.0,857.5518650468439,3.0,1.0,part_3,go,0.0,0.0,0.0,264.0,6.0,88.0,44.0,220.0,132.0,264.0,176.0,green,cross
0.0,4.0,4.0,0.0,7.0,3.0,1099.441546946764,3.0,1.0,part_3,go,0.0,0.0,0.0,216.0,4.0,162.0,54.0,216.0,324.0,108.0,270.0,yellow,diamond
0.0,2.0,2.0,0.0,7.0,3.0,1109.1215668711811,3.0,1.0,part_3,go,0.0,0.0,0.0,156.0,4.0,195.0,78.0,156.0,117.0,39.0,234.0,green,cross
0.0,5.0,1.0,1.0,7.0,6.0,879.9724278505892,3.0,1.0,part_3,go,0.0,0.0,0.0,170.0,5.0,102.0,68.0,34.0,136.0,204.0,170.0,white,square
0.0,8.0,4.0,1.0,7.0,6.0,1095.898212864995,3.0,1.0,part_3,go,0.0,0.0,0.0,170.0,5.0,204.0,136.0,102.0,34.0,68.0,170.0,cyan,circle
0.0,7.0,3.0,1.0,7.0,1.0,1242.630201159045,3.0,1.0,part_3,go,0.0,0.0,0.0,270.0,5.0,270.0,324.0,162.0,108.0,216.0,54.0,gray,hexagon
0.0,2.0,2.0,0.0,7.0,2.0,1498.6888279672712,3.0,1.0,part_3,go,0.0,0.0,0.0,220.0,5.0,132.0,220.0,176.0,44.0,88.0,264.0,green,cross
0.0,1.0,1.0,0.0,7.0,5.0,1611.3536551129073,3.0,1.0,part_3,go,0.0,0.0,0.0,117.0,3.0,39.0,156.0,78.0,234.0,117.0,195.0,orange,flipped triangle
0.0,2.0,2.0,0.0,7.0,6.0,1380.9176008217037,3.0,1.0,part_3,go,0.0,0.0,0.0,204.0,6.0,170.0,68.0,34.0,102.0,136.0,204.0,green,cross
0.0,3.0,3.0,0.0,7.0,2.0,1141.835456015542,3.0,1.0,part_3,go,0.0,0.0,0.0,132.0,3.0,264.0,132.0,220.0,44.0,176.0,88.0,blue,triangle
0.0,3.0,3.0,0.0,7.0,5.0,946.0386110004038,3.0,1.0,part_3,go,0.0,0.0,0.0,68.0,2.0,170.0,102.0,136.0,34.0,68.0,204.0,blue,triangle
0.0,3.0,3.0,0.0,7.0,2.0,1240.6013139989227,3.0,1.0,part_3,go,0.0,0.0,0.0,204.0,6.0,136.0,204.0,170.0,34.0,102.0,68.0,blue,triangle
0.0,2.0,2.0,0.0,7.0,6.0,993.6692959163338,4.0,1.0,part_3,go,0.0,0.0,0.0,195.0,5.0,117.0,156.0,234.0,78.0,39.0,195.0,green,cross
0.0,7.0,3.0,1.0,7.0,1.0,882.6377431396395,4.0,1.0,part_3,go,0.0,0.0,0.0,156.0,4.0,156.0,39.0,117.0,78.0,234.0,195.0,gray,hexagon
0.0,1.0,1.0,0.0,7.0,3.0,954.9230900593102,4.0,1.0,part_3,go,0.0,0.0,0.0,204.0,6.0,68.0,102.0,204.0,170.0,34.0,136.0,orange,flipped triangle
0.0,5.0,1.0,1.0,7.0,5.0,788.5675141587853,4.0,1.0,part_3,go,0.0,0.0,0.0,195.0,5.0,78.0,156.0,39.0,117.0,195.0,234.0,white,square
0.0,4.0,4.0,0.0,7.0,1.0,981.0232378076762,4.0,1.0,part_3,go,0.0,0.0,0.0,245.0,5.0,245.0,294.0,98.0,196.0,49.0,147.0,yellow,diamond
0.0,6.0,2.0,1.0,7.0,5.0,1111.5318411029875,4.0,1.0,part_3,go,0.0,0.0,0.0,204.0,6.0,170.0,102.0,68.0,34.0,204.0,136.0,magenta,I
0.0,7.0,3.0,1.0,7.0,3.0,1289.718764834106,4.0,1.0,part_3,go,0.0,0.0,0.0,204.0,6.0,136.0,170.0,204.0,102.0,68.0,34.0,gray,hexagon
0.0,1.0,1.0,0.0,7.0,5.0,1405.4734790697694,4.0,1.0,part_3,go,0.0,0.0,0.0,220.0,5.0,44.0,264.0,176.0,88.0,220.0,132.0,orange,flipped triangle
0.0,8.0,4.0,1.0,7.0,3.0,1142.0832951553166,4.0,1.0,part_3,go,0.0,0.0,0.0,234.0,6.0,117.0,156.0,234.0,78.0,195.0,39.0,cyan,circle
0.0,8.0,4.0,1.0,7.0,1.0,1363.8105178251865,4.0,1.0,part_3,go,0.0,0.0,0.0,68.0,2.0,68.0,136.0,170.0,34.0,102.0,204.0,cyan,circle
0.0,6.0,2.0,1.0,7.0,5.0,1136.060108896345,4.0,1.0,part_3,go,0.0,0.0,0.0,220.0,5.0,176.0,88.0,44.0,132.0,220.0,264.0,magenta,I
0.0,5.0,1.0,1.0,7.0,3.0,975.4768740385772,4.0,1.0,part_3,go,0.0,0.0,0.0,176.0,4.0,264.0,44.0,176.0,220.0,132.0,88.0,white,square
0.0,2.0,2.0,0.0,7.0,6.0,994.2621388472616,4.0,1.0,part_3,go,0.0,0.0,0.0,54.0,1.0,216.0,162.0,108.0,324.0,270.0,54.0,green,cross
0.0,6.0,2.0,1.0,7.0,4.0,1723.084238125011,4.0,1.0,part_3,go,0.0,0.0,0.0,117.0,3.0,234.0,39.0,195.0,117.0,78.0,156.0,magenta,I
0.0,1.0,1.0,0.0,7.0,2.0,1540.9864729736,4.0,1.0,part_3,go,0.0,0.0,0.0,294.0,6.0,49.0,294.0,196.0,98.0,147.0,245.0,orange,flipped triangle
0.0,3.0,3.0,0.0,7.0,6.0,1420.4468389507383,4.0,1.0,part_3,go,0.0,0.0,0.0,147.0,3.0,49.0,196.0,294.0,245.0,98.0,147.0,blue,triangle
0.0,5.0,1.0,1.0,7.0,5.0,1552.6017548982054,4.0,1.0,part_3,go,0.0,0.0,0.0,176.0,4.0,264.0,88.0,44.0,220.0,176.0,132.0,white,square
0.0,4.0,4.0,0.0,7.0,5.0,2103.4384679514915,4.0,1.0,part_3,go,0.0,0.0,0.0,234.0,6.0,39.0,78.0,195.0,156.0,234.0,117.0,yellow,diamond
0.0,6.0,2.0,1.0,7.0,5.0,1120.753722032532,4.0,1.0,part_3,go,0.0,0.0,0.0,234.0,6.0,156.0,39.0,117.0,195.0,234.0,78.0,magenta,I
0.0,4.0,4.0,0.0,7.0,5.0,1396.295015932992,4.0,1.0,part_3,go,0.0,0.0,0.0,245.0,5.0,49.0,196.0,98.0,147.0,245.0,294.0,yellow,diamond
