raw_reward_magnitude,stim_reward,stepwise_reward_magnitude,paired_with_stopping,stim_location,response,reaction_time,block,num_trial_presentations,which_phase,stop_signal_trial_type,left_SSD,right_SSD,accuracy,chosen_bidding_amount,chosen_bidding_level,possible_bid_1,possible_bid_2,possible_bid_3,possible_bid_4,possible_bid_5,possible_bid_6,color_text,shape_text
0.0,3.0,0.0,0.0,1.0,1.0,827.519011014374,1.0,1.0,phase_1,,,,,,,,,,,,,green,circle
28.0,1.0,1.0,0.0,2.0,2.0,381.6172940132674,1.0,1.0,phase_1,,,,,,,,,,,,,blue,flipped triangle
119.0,6.0,2.0,1.0,4.0,4.0,313.5760360164568,1.0,1.0,phase_1,,,,,,,,,,,,,orange,diamond
224.0,7.0,3.0,1.0,1.0,1.0,349.8233370191883,1.0,1.0,phase_1,,,,,,,,,,,,,gray,hexagon
0.0,7.0,0.0,1.0,1.0,1.0,341.7356330028269,1.0,1.0,phase_1,,,,,,,,,,,,,gray,hexagon
178.0,7.0,3.0,1.0,2.0,2.0,335.0430910068098,1.0,1.0,phase_1,,,,,,,,,,,,,gray,hexagon
46.0,1.0,1.0,0.0,3.0,3.0,355.7196669862605,1.0,1.0,phase_1,,,,,,,,,,,,,blue,flipped triangle
46.0,1.0,1.0,0.0,4.0,4.0,331.1813769978471,1.0,1.0,phase_1,,,,,,,,,,,,,blue,flipped triangle
176.0,7.0,3.0,1.0,1.0,1.0,279.3806320114527,1.0,1.0,phase_1,,,,,,,,,,,,,gray,hexagon
419.0,8.0,4.0,1.0,4.0,4.0,354.5409769867547,1.0,1.0,phase_1,,,,,,,,,,,,,magenta,I
184.0,7.0,3.0,1.0,2.0,2.0,281.6775469982531,1.0,1.0,phase_1,,,,,,,,,,,,,gray,hexagon
396.0,8.0,4.0,1.0,2.0,2.0,332.0037349767517,1.0,1.0,phase_1,,,,,,,,,,,,,magenta,I
198.0,3.0,3.0,0.0,2.0,2.0,379.778652015375,1.0,1.0,phase_1,,,,,,,,,,,,,green,circle
104.0,2.0,2.0,0.0,3.0,3.0,456.869801011635,1.0,1.0,phase_1,,,,,,,,,,,,,cyan,cross
388.0,8.0,4.0,1.0,3.0,3.0,361.7086310114246,1.0,1.0,phase_1,,,,,,,,,,,,,magenta,I
200.0,3.0,3.0,0.0,2.0,2.0,280.6425479939207,1.0,1.0,phase_1,,,,,,,,,,,,,green,circle
105.0,6.0,2.0,1.0,4.0,4.0,338.8903159939218,1.0,1.0,phase_1,,,,,,,,,,,,,orange,diamond
0.0,4.0,0.0,0.0,4.0,4.0,383.7494029721711,1.0,1.0,phase_1,,,,,,,,,,,,,yellow,triangle
219.0,3.0,3.0,0.0,1.0,1.0,376.0014689760282,1.0,1.0,phase_1,,,,,,,,,,,,,green,circle
79.0,2.0,2.0,0.0,2.0,2.0,330.4242429730948,1.0,1.0,phase_1,,,,,,,,,,,,,cyan,cross
403.0,4.0,4.0,0.0,1.0,1.0,310.5317529989406,1.0,1.0,phase_1,,,,,,,,,,,,,yellow,triangle
0.0,3.0,0.0,0.0,2.0,2.0,442.4646130064502,1.0,1.0,phase_1,,,,,,,,,,,,,green,circle
0.0,1.0,0.0,0.0,4.0,4.0,343.3162859873846,1.0,1.0,phase_1,,,,,,,,,,,,,blue,flipped triangle
0.0,1.0,0.0,0.0,3.0,3.0,613.5018749919254,1.0,1.0,phase_1,,,,,,,,,,,,,blue,flipped triangle
219.0,7.0,3.0,1.0,3.0,3.0,477.9807289887685,1.0,2.0,phase_1,,,,,,,,,,,,,gray,hexagon
184.0,7.0,3.0,1.0,2.0,2.0,459.2667979886755,1.0,1.0,phase_1,,,,,,,,,,,,,gray,hexagon
89.0,2.0,2.0,0.0,3.0,3.0,385.8235360239632,1.0,1.0,phase_1,,,,,,,,,,,,,cyan,cross
82.0,2.0,2.0,0.0,3.0,3.0,367.0716590131633,1.0,1.0,phase_1,,,,,,,,,,,,,cyan,cross
199.0,3.0,3.0,0.0,4.0,4.0,458.9720510120969,1.0,1.0,phase_1,,,,,,,,,,,,,green,circle
398.0,8.0,4.0,1.0,2.0,2.0,408.1506349903065,1.0,1.0,phase_1,,,,,,,,,,,,,magenta,I
94.0,2.0,2.0,0.0,1.0,1.0,529.2933349846862,1.0,1.0,phase_1,,,,,,,,,,,,,cyan,cross
396.0,4.0,4.0,0.0,4.0,4.0,368.2732759916689,1.0,1.0,phase_1,,,,,,,,,,,,,yellow,triangle
0.0,3.0,0.0,0.0,3.0,3.0,347.3991870123427,1.0,1.0,phase_1,,,,,,,,,,,,,green,circle
0.0,7.0,0.0,1.0,1.0,1.0,394.652054994367,1.0,1.0,phase_1,,,,,,,,,,,,,gray,hexagon
398.0,8.0,4.0,1.0,4.0,4.0,399.6376419963781,1.0,1.0,phase_1,,,,,,,,,,,,,magenta,I
388.0,4.0,4.0,0.0,1.0,1.0,424.3751679896377,1.0,1.0,phase_1,,,,,,,,,,,,,yellow,triangle
36.0,5.0,1.0,1.0,2.0,2.0,366.6645669727586,1.0,1.0,phase_1,,,,,,,,,,,,,white,square
204.0,7.0,3.0,1.0,2.0,2.0,347.8851020045113,1.0,1.0,phase_1,,,,,,,,,,,,,gray,hexagon
52.0,1.0,1.0,0.0,1.0,1.0,513.7994250108022,1.0,1.0,phase_1,,,,,,,,,,,,,blue,flipped triangle
206.0,3.0,3.0,0.0,4.0,4.0,319.0352089877706,1.0,1.0,phase_1,,,,,,,,,,,,,green,circle
178.0,3.0,3.0,0.0,3.0,3.0,378.0028570035938,1.0,1.0,phase_1,,,,,,,,,,,,,green,circle
421.0,8.0,4.0,1.0,4.0,4.0,376.3854860153515,1.0,1.0,phase_1,,,,,,,,,,,,,magenta,I
412.0,8.0,4.0,1.0,3.0,3.0,363.2550970069133,1.0,1.0,phase_1,,,,,,,,,,,,,magenta,I
380.0,8.0,4.0,1.0,3.0,3.0,375.7636089867446,1.0,1.0,phase_1,,,,,,,,,,,,,magenta,I
0.0,7.0,0.0,1.0,1.0,1.0,459.6682820119895,1.0,1.0,phase_1,,,,,,,,,,,,,gray,hexagon
45.0,1.0,1.0,0.0,1.0,1.0,424.095219001174,1.0,1.0,phase_1,,,,,,,,,,,,,blue,flipped triangle
77.0,6.0,2.0,1.0,1.0,1.0,581.7636970023159,1.0,1.0,phase_1,,,,,,,,,,,,,orange,diamond
93.0,6.0,2.0,1.0,1.0,1.0,404.0406010171864,1.0,1.0,phase_1,,,,,,,,,,,,,orange,diamond
209.0,7.0,3.0,1.0,1.0,1.0,358.440366020659,1.0,1.0,phase_1,,,,,,,,,,,,,gray,hexagon
0.0,4.0,0.0,0.0,3.0,3.0,309.7745880077127,1.0,1.0,phase_1,,,,,,,,,,,,,yellow,triangle
32.0,5.0,1.0,1.0,3.0,3.0,320.1664689986501,1.0,1.0,phase_1,,,,,,,,,,,,,white,square
29.0,1.0,1.0,0.0,1.0,1.0,435.5507990112528,1.0,1.0,phase_1,,,,,,,,,,,,,blue,flipped triangle
72.0,1.0,1.0,0.0,2.0,2.0,544.5819400192704,1.0,1.0,phase_1,,,,,,,,,,,,,blue,flipped triangle
54.0,5.0,1.0,1.0,1.0,1.0,399.9749229988083,1.0,1.0,phase_1,,,,,,,,,,,,,white,square
89.0,6.0,2.0,1.0,2.0,2.0,330.3106139937881,1.0,1.0,phase_1,,,,,,,,,,,,,orange,diamond
389.0,4.0,4.0,0.0,3.0,3.0,342.6590640156064,1.0,1.0,phase_1,,,,,,,,,,,,,yellow,triangle
0.0,7.0,0.0,1.0,2.0,2.0,318.0770309991203,1.0,1.0,phase_1,,,,,,,,,,,,,gray,hexagon
37.0,1.0,1.0,0.0,3.0,3.0,343.4933149837889,1.0,1.0,phase_1,,,,,,,,,,,,,blue,flipped triangle
28.0,5.0,1.0,1.0,2.0,2.0,303.2769169949461,1.0,1.0,phase_1,,,,,,,,,,,,,white,square
60.0,5.0,1.0,1.0,4.0,4.0,348.0702090018894,1.0,1.0,phase_1,,,,,,,,,,,,,white,square
185.0,3.0,3.0,0.0,3.0,3.0,359.852242982015,1.0,1.0,phase_1,,,,,,,,,,,,,green,circle
124.0,6.0,2.0,1.0,4.0,4.0,372.9069390101358,1.0,1.0,phase_1,,,,,,,,,,,,,orange,diamond
104.0,6.0,2.0,1.0,1.0,1.0,330.1526089780964,1.0,1.0,phase_1,,,,,,,,,,,,,orange,diamond
101.0,6.0,2.0,1.0,1.0,1.0,366.0650539968628,1.0,1.0,phase_1,,,,,,,,,,,,,orange,diamond
0.0,2.0,0.0,0.0,2.0,2.0,404.0306030074134,1.0,1.0,phase_1,,,,,,,,,,,,,cyan,cross
118.0,2.0,2.0,0.0,4.0,4.0,351.7197750043124,1.0,1.0,phase_1,,,,,,,,,,,,,cyan,cross
79.0,2.0,2.0,0.0,1.0,1.0,396.1010109924245,1.0,1.0,phase_1,,,,,,,,,,,,,cyan,cross
219.0,3.0,3.0,0.0,2.0,2.0,350.5853610113263,1.0,1.0,phase_1,,,,,,,,,,,,,green,circle
376.0,8.0,4.0,1.0,3.0,3.0,300.1545130100567,1.0,1.0,phase_1,,,,,,,,,,,,,magenta,I
113.0,2.0,2.0,0.0,2.0,2.0,403.25993098667817,1.0,1.0,phase_1,,,,,,,,,,,,,cyan,cross
90.0,2.0,2.0,0.0,3.0,3.0,500.4592220066115,1.0,1.0,phase_1,,,,,,,,,,,,,cyan,cross
53.0,1.0,1.0,0.0,4.0,4.0,468.1446829927154,1.0,1.0,phase_1,,,,,,,,,,,,,blue,flipped triangle
0.0,8.0,0.0,1.0,1.0,1.0,349.863172014011,1.0,1.0,phase_1,,,,,,,,,,,,,magenta,I
179.0,7.0,3.0,1.0,2.0,2.0,325.8638239931315,1.0,1.0,phase_1,,,,,,,,,,,,,gray,hexagon
209.0,7.0,3.0,1.0,4.0,4.0,691.371631983202,1.0,1.0,phase_1,,,,,,,,,,,,,gray,hexagon
0.0,3.0,0.0,0.0,4.0,4.0,383.9658950164448,1.0,1.0,phase_1,,,,,,,,,,,,,green,circle
0.0,6.0,0.0,1.0,2.0,2.0,313.2968340069055,1.0,1.0,phase_1,,,,,,,,,,,,,orange,diamond
125.0,2.0,2.0,0.0,3.0,3.0,326.1579209938645,1.0,1.0,phase_1,,,,,,,,,,,,,cyan,cross
56.0,1.0,1.0,0.0,3.0,3.0,363.22984599974,1.0,1.0,phase_1,,,,,,,,,,,,,blue,flipped triangle
89.0,6.0,2.0,1.0,4.0,4.0,328.4851920034271,1.0,1.0,phase_1,,,,,,,,,,,,,orange,diamond
70.0,1.0,1.0,0.0,1.0,1.0,495.6079649855383,1.0,1.0,phase_1,,,,,,,,,,,,,blue,flipped triangle
425.0,8.0,4.0,1.0,1.0,1.0,515.2631110104267,1.0,1.0,phase_1,,,,,,,,,,,,,magenta,I
118.0,6.0,2.0,1.0,4.0,4.0,607.224753999617,1.0,1.0,phase_1,,,,,,,,,,,,,orange,diamond
103.0,6.0,2.0,1.0,4.0,4.0,377.7889929770026,1.0,1.0,phase_1,,,,,,,,,,,,,orange,diamond
405.0,8.0,4.0,1.0,1.0,1.0,385.7576439913828,1.0,1.0,phase_1,,,,,,,,,,,,,magenta,I
69.0,5.0,1.0,1.0,3.0,3.0,334.7257690038532,1.0,1.0,phase_1,,,,,,,,,,,,,white,square
0.0,8.0,0.0,1.0,3.0,3.0,583.8073290069588,1.0,1.0,phase_1,,,,,,,,,,,,,magenta,I
382.0,4.0,4.0,0.0,3.0,3.0,343.0150980129838,1.0,1.0,phase_1,,,,,,,,,,,,,yellow,triangle
69.0,1.0,1.0,0.0,2.0,2.0,284.5224689808674,1.0,1.0,phase_1,,,,,,,,,,,,,blue,flipped triangle
60.0,1.0,1.0,0.0,1.0,1.0,406.5967979840934,1.0,1.0,phase_1,,,,,,,,,,,,,blue,flipped triangle
395.0,4.0,4.0,0.0,2.0,2.0,358.1186180235818,1.0,1.0,phase_1,,,,,,,,,,,,,yellow,triangle
44.0,1.0,1.0,0.0,1.0,1.0,401.0777839866932,1.0,1.0,phase_1,,,,,,,,,,,,,blue,flipped triangle
0.0,7.0,0.0,1.0,2.0,2.0,391.5400450059678,1.0,1.0,phase_1,,,,,,,,,,,,,gray,hexagon
410.0,8.0,4.0,1.0,4.0,4.0,338.9185570122208,1.0,1.0,phase_1,,,,,,,,,,,,,magenta,I
198.0,7.0,3.0,1.0,4.0,4.0,413.030890020309,1.0,1.0,phase_1,,,,,,,,,,,,,gray,hexagon
190.0,3.0,3.0,0.0,4.0,4.0,515.9997110022232,1.0,1.0,phase_1,,,,,,,,,,,,,green,circle
419.0,4.0,4.0,0.0,3.0,3.0,298.5083640087396,1.0,1.0,phase_1,,,,,,,,,,,,,yellow,triangle
124.0,2.0,2.0,0.0,4.0,4.0,346.939017996192,1.0,1.0,phase_1,,,,,,,,,,,,,cyan,cross
114.0,2.0,2.0,0.0,4.0,4.0,323.8487610069569,1.0,1.0,phase_1,,,,,,,,,,,,,cyan,cross
188.0,3.0,3.0,0.0,3.0,3.0,327.01377797639,1.0,1.0,phase_1,,,,,,,,,,,,,green,circle
53.0,5.0,1.0,1.0,1.0,1.0,361.3611680048052,2.0,1.0,phase_1,,,,,,,,,,,,,white,square
54.0,1.0,1.0,0.0,2.0,2.0,321.688780997647,2.0,1.0,phase_1,,,,,,,,,,,,,blue,flipped triangle
68.0,5.0,1.0,1.0,4.0,4.0,366.7949250084348,2.0,1.0,phase_1,,,,,,,,,,,,,white,square
0.0,3.0,0.0,0.0,1.0,1.0,420.502346009016,2.0,1.0,phase_1,,,,,,,,,,,,,green,circle
188.0,7.0,3.0,1.0,3.0,3.0,313.570921018254,2.0,1.0,phase_1,,,,,,,,,,,,,gray,hexagon
0.0,5.0,0.0,1.0,3.0,3.0,372.8787779982667,2.0,1.0,phase_1,,,,,,,,,,,,,white,square
379.0,4.0,4.0,0.0,2.0,2.0,434.1797880188096,2.0,1.0,phase_1,,,,,,,,,,,,,yellow,triangle
425.0,4.0,4.0,0.0,2.0,2.0,389.1879380098544,2.0,2.0,phase_1,,,,,,,,,,,,,yellow,triangle
214.0,7.0,3.0,1.0,4.0,4.0,359.4660980161279,2.0,1.0,phase_1,,,,,,,,,,,,,gray,hexagon
103.0,2.0,2.0,0.0,3.0,3.0,324.5873469859361,2.0,1.0,phase_1,,,,,,,,,,,,,cyan,cross
49.0,5.0,1.0,1.0,1.0,1.0,442.3394280020147,2.0,1.0,phase_1,,,,,,,,,,,,,white,square
79.0,6.0,2.0,1.0,3.0,3.0,358.1695950124413,2.0,1.0,phase_1,,,,,,,,,,,,,orange,diamond
201.0,7.0,3.0,1.0,3.0,3.0,395.1863400288857,2.0,1.0,phase_1,,,,,,,,,,,,,gray,hexagon
103.0,6.0,2.0,1.0,1.0,1.0,353.7332529958803,2.0,1.0,phase_1,,,,,,,,,,,,,orange,diamond
211.0,7.0,3.0,1.0,3.0,3.0,421.7835680174175,2.0,1.0,phase_1,,,,,,,,,,,,,gray,hexagon
0.0,3.0,0.0,0.0,4.0,4.0,416.5914830227848,2.0,1.0,phase_1,,,,,,,,,,,,,green,circle
0.0,2.0,0.0,0.0,3.0,3.0,357.897582987789,2.0,1.0,phase_1,,,,,,,,,,,,,cyan,cross
380.0,8.0,4.0,1.0,1.0,1.0,412.5126139842905,2.0,1.0,phase_1,,,,,,,,,,,,,magenta,I
376.0,4.0,4.0,0.0,2.0,2.0,383.8737090118229,2.0,1.0,phase_1,,,,,,,,,,,,,yellow,triangle
125.0,6.0,2.0,1.0,2.0,2.0,358.1383609853219,2.0,1.0,phase_1,,,,,,,,,,,,,orange,diamond
0.0,1.0,0.0,0.0,1.0,1.0,457.9145979951136,2.0,1.0,phase_1,,,,,,,,,,,,,blue,flipped triangle
0.0,7.0,0.0,1.0,3.0,3.0,383.010131015908,2.0,1.0,phase_1,,,,,,,,,,,,,gray,hexagon
391.0,8.0,4.0,1.0,1.0,1.0,377.3445569968316,2.0,1.0,phase_1,,,,,,,,,,,,,magenta,I
218.0,3.0,3.0,0.0,1.0,1.0,430.9849159908481,2.0,1.0,phase_1,,,,,,,,,,,,,green,circle
30.0,1.0,1.0,0.0,3.0,3.0,347.2490650019608,2.0,1.0,phase_1,,,,,,,,,,,,,blue,flipped triangle
0.0,5.0,0.0,1.0,2.0,2.0,416.3168980157934,2.0,1.0,phase_1,,,,,,,,,,,,,white,square
401.0,4.0,4.0,0.0,1.0,1.0,375.8252800034825,2.0,1.0,phase_1,,,,,,,,,,,,,yellow,triangle
201.0,3.0,3.0,0.0,1.0,1.0,362.8480280167423,2.0,1.0,phase_1,,,,,,,,,,,,,green,circle
57.0,1.0,1.0,0.0,3.0,3.0,437.5890200026333,2.0,1.0,phase_1,,,,,,,,,,,,,blue,flipped triangle
0.0,8.0,0.0,1.0,3.0,3.0,362.0850779989268,2.0,2.0,phase_1,,,,,,,,,,,,,magenta,I
81.0,2.0,2.0,0.0,3.0,3.0,468.2714689988643,2.0,1.0,phase_1,,,,,,,,,,,,,cyan,cross
26.0,1.0,1.0,0.0,4.0,4.0,490.2954470016993,2.0,1.0,phase_1,,,,,,,,,,,,,blue,flipped triangle
211.0,7.0,3.0,1.0,1.0,1.0,429.6539250062778,2.0,1.0,phase_1,,,,,,,,,,,,,gray,hexagon
32.0,1.0,1.0,0.0,4.0,4.0,491.7398130055517,2.0,1.0,phase_1,,,,,,,,,,,,,blue,flipped triangle
71.0,5.0,1.0,1.0,2.0,2.0,334.6118019835558,2.0,1.0,phase_1,,,,,,,,,,,,,white,square
394.0,8.0,4.0,1.0,2.0,2.0,363.2738259912003,2.0,1.0,phase_1,,,,,,,,,,,,,magenta,I
395.0,8.0,4.0,1.0,4.0,4.0,400.2769610087853,2.0,1.0,phase_1,,,,,,,,,,,,,magenta,I
216.0,3.0,3.0,0.0,4.0,4.0,437.0136849756818,2.0,1.0,phase_1,,,,,,,,,,,,,green,circle
0.0,6.0,0.0,1.0,4.0,4.0,339.2583839886356,2.0,1.0,phase_1,,,,,,,,,,,,,orange,diamond
95.0,6.0,2.0,1.0,4.0,4.0,334.0454119897913,2.0,1.0,phase_1,,,,,,,,,,,,,orange,diamond
214.0,3.0,3.0,0.0,1.0,1.0,362.4523520120419,2.0,1.0,phase_1,,,,,,,,,,,,,green,circle
179.0,3.0,3.0,0.0,1.0,1.0,472.9056329815648,2.0,1.0,phase_1,,,,,,,,,,,,,green,circle
202.0,3.0,3.0,0.0,1.0,1.0,419.7346410073805,2.0,1.0,phase_1,,,,,,,,,,,,,green,circle
181.0,7.0,3.0,1.0,4.0,4.0,304.7618230048101,2.0,1.0,phase_1,,,,,,,,,,,,,gray,hexagon
185.0,7.0,3.0,1.0,4.0,4.0,373.5912950069178,2.0,1.0,phase_1,,,,,,,,,,,,,gray,hexagon
0.0,8.0,0.0,1.0,1.0,1.0,412.5652840011753,2.0,1.0,phase_1,,,,,,,,,,,,,magenta,I
401.0,8.0,4.0,1.0,4.0,4.0,353.636325977277,2.0,1.0,phase_1,,,,,,,,,,,,,magenta,I
379.0,8.0,4.0,1.0,2.0,2.0,339.1614700085483,2.0,1.0,phase_1,,,,,,,,,,,,,magenta,I
114.0,2.0,2.0,0.0,4.0,4.0,343.6326069931965,2.0,1.0,phase_1,,,,,,,,,,,,,cyan,cross
401.0,8.0,4.0,1.0,4.0,4.0,358.733792003477,2.0,1.0,phase_1,,,,,,,,,,,,,magenta,I
116.0,2.0,2.0,0.0,1.0,1.0,451.4228419866413,2.0,1.0,phase_1,,,,,,,,,,,,,cyan,cross
199.0,7.0,3.0,1.0,4.0,4.0,494.3211579811759,2.0,1.0,phase_1,,,,,,,,,,,,,gray,hexagon
178.0,3.0,3.0,0.0,4.0,4.0,389.333813014673,2.0,1.0,phase_1,,,,,,,,,,,,,green,circle
0.0,5.0,0.0,1.0,3.0,3.0,450.2310380048584,2.0,1.0,phase_1,,,,,,,,,,,,,white,square
125.0,6.0,2.0,1.0,2.0,2.0,515.6488239881583,2.0,1.0,phase_1,,,,,,,,,,,,,orange,diamond
122.0,2.0,2.0,0.0,2.0,2.0,522.8900579968467,2.0,1.0,phase_1,,,,,,,,,,,,,cyan,cross
380.0,4.0,4.0,0.0,3.0,3.0,597.8427869849838,2.0,1.0,phase_1,,,,,,,,,,,,,yellow,triangle
105.0,6.0,2.0,1.0,3.0,3.0,356.1040060012601,2.0,1.0,phase_1,,,,,,,,,,,,,orange,diamond
423.0,8.0,4.0,1.0,4.0,4.0,424.5107590104453,2.0,1.0,phase_1,,,,,,,,,,,,,magenta,I
208.0,7.0,3.0,1.0,4.0,4.0,325.9791129967198,2.0,1.0,phase_1,,,,,,,,,,,,,gray,hexagon
0.0,1.0,0.0,0.0,4.0,4.0,369.7407490108162,2.0,1.0,phase_1,,,,,,,,,,,,,blue,flipped triangle
56.0,5.0,1.0,1.0,2.0,2.0,360.5048419849481,2.0,1.0,phase_1,,,,,,,,,,,,,white,square
0.0,4.0,0.0,0.0,1.0,1.0,545.4452199919615,2.0,1.0,phase_1,,,,,,,,,,,,,yellow,triangle
215.0,7.0,3.0,1.0,1.0,1.0,392.1372669865377,2.0,1.0,phase_1,,,,,,,,,,,,,gray,hexagon
0.0,6.0,0.0,1.0,1.0,1.0,379.4166269944981,2.0,1.0,phase_1,,,,,,,,,,,,,orange,diamond
59.0,1.0,1.0,0.0,3.0,3.0,338.9809069922194,2.0,1.0,phase_1,,,,,,,,,,,,,blue,flipped triangle
201.0,7.0,3.0,1.0,4.0,4.0,358.5959220072254,2.0,1.0,phase_1,,,,,,,,,,,,,gray,hexagon
44.0,1.0,1.0,0.0,1.0,1.0,410.3440520120784,2.0,1.0,phase_1,,,,,,,,,,,,,blue,flipped triangle
28.0,5.0,1.0,1.0,4.0,4.0,470.0476300204173,2.0,1.0,phase_1,,,,,,,,,,,,,white,square
74.0,5.0,1.0,1.0,4.0,4.0,404.3056840018835,2.0,1.0,phase_1,,,,,,,,,,,,,white,square
390.0,4.0,4.0,0.0,3.0,3.0,328.2273260119837,2.0,1.0,phase_1,,,,,,,,,,,,,yellow,triangle
59.0,1.0,1.0,0.0,2.0,2.0,470.1669859932735,2.0,1.0,phase_1,,,,,,,,,,,,,blue,flipped triangle
104.0,2.0,2.0,0.0,2.0,2.0,363.6968260107096,2.0,1.0,phase_1,,,,,,,,,,,,,cyan,cross
0.0,5.0,0.0,1.0,1.0,1.0,367.9651540005579,2.0,1.0,phase_1,,,,,,,,,,,,,white,square
75.0,5.0,1.0,1.0,1.0,1.0,355.7030230003875,2.0,1.0,phase_1,,,,,,,,,,,,,white,square
0.0,7.0,0.0,1.0,3.0,3.0,328.3935590006877,2.0,1.0,phase_1,,,,,,,,,,,,,gray,hexagon
77.0,6.0,2.0,1.0,2.0,2.0,508.5712290019728,2.0,1.0,phase_1,,,,,,,,,,,,,orange,diamond
390.0,8.0,4.0,1.0,2.0,2.0,520.7430100126658,2.0,1.0,phase_1,,,,,,,,,,,,,magenta,I
0.0,3.0,0.0,0.0,4.0,4.0,575.4210450104438,2.0,1.0,phase_1,,,,,,,,,,,,,green,circle
0.0,2.0,0.0,0.0,2.0,2.0,490.0923550012521,2.0,1.0,phase_1,,,,,,,,,,,,,cyan,cross
82.0,6.0,2.0,1.0,3.0,3.0,301.9792799896095,2.0,1.0,phase_1,,,,,,,,,,,,,orange,diamond
410.0,4.0,4.0,0.0,4.0,4.0,334.2813799972646,2.0,1.0,phase_1,,,,,,,,,,,,,yellow,triangle
0.0,5.0,0.0,1.0,4.0,4.0,502.9016319895163,2.0,1.0,phase_1,,,,,,,,,,,,,white,square
397.0,8.0,4.0,1.0,2.0,2.0,452.9976650082972,2.0,1.0,phase_1,,,,,,,,,,,,,magenta,I
0.0,5.0,0.0,1.0,2.0,2.0,410.0200610118918,2.0,1.0,phase_1,,,,,,,,,,,,,white,square
0.0,6.0,0.0,1.0,2.0,2.0,437.9953689931426,2.0,1.0,phase_1,,,,,,,,,,,,,orange,diamond
90.0,6.0,2.0,1.0,1.0,1.0,379.814278014237,2.0,1.0,phase_1,,,,,,,,,,,,,orange,diamond
376.0,4.0,4.0,0.0,1.0,1.0,402.1631969953887,2.0,1.0,phase_1,,,,,,,,,,,,,yellow,triangle
416.0,4.0,4.0,0.0,1.0,1.0,350.5228889989666,2.0,1.0,phase_1,,,,,,,,,,,,,yellow,triangle
421.0,4.0,4.0,0.0,3.0,3.0,458.8981549895834,2.0,1.0,phase_1,,,,,,,,,,,,,yellow,triangle
398.0,4.0,4.0,0.0,4.0,4.0,447.1167800074909,2.0,1.0,phase_1,,,,,,,,,,,,,yellow,triangle
214.0,3.0,3.0,0.0,1.0,1.0,387.188962980872,2.0,1.0,phase_1,,,,,,,,,,,,,green,circle
0.0,1.0,0.0,0.0,2.0,2.0,326.8354359897785,2.0,1.0,phase_1,,,,,,,,,,,,,blue,flipped triangle
26.0,5.0,1.0,1.0,4.0,4.0,370.8077989867888,2.0,1.0,phase_1,,,,,,,,,,,,,white,square
108.0,2.0,2.0,0.0,2.0,2.0,329.6943909954279,2.0,1.0,phase_1,,,,,,,,,,,,,cyan,cross
214.0,7.0,3.0,1.0,2.0,2.0,535.4642570018768,2.0,1.0,phase_1,,,,,,,,,,,,,gray,hexagon
78.0,6.0,2.0,1.0,4.0,4.0,450.2582819841336,2.0,1.0,phase_1,,,,,,,,,,,,,orange,diamond
215.0,3.0,3.0,0.0,3.0,3.0,335.5326509918086,2.0,1.0,phase_1,,,,,,,,,,,,,green,circle
0.0,3.0,0.0,0.0,4.0,4.0,386.3887019979302,2.0,1.0,phase_1,,,,,,,,,,,,,green,circle
59.0,5.0,1.0,1.0,1.0,1.0,328.4469100181013,2.0,1.0,phase_1,,,,,,,,,,,,,white,square
37.0,5.0,1.0,1.0,2.0,2.0,432.393441995373,3.0,1.0,phase_1,,,,,,,,,,,,,white,square
208.0,3.0,3.0,0.0,4.0,4.0,358.5495089937467,3.0,1.0,phase_1,,,,,,,,,,,,,green,circle
206.0,7.0,3.0,1.0,3.0,3.0,305.4386169824283,3.0,1.0,phase_1,,,,,,,,,,,,,gray,hexagon
377.0,4.0,4.0,0.0,4.0,4.0,383.4008130070288,3.0,1.0,phase_1,,,,,,,,,,,,,yellow,triangle
184.0,7.0,3.0,1.0,2.0,2.0,317.4773319915402,3.0,1.0,phase_1,,,,,,,,,,,,,gray,hexagon
200.0,7.0,3.0,1.0,1.0,1.0,272.868430998642,3.0,1.0,phase_1,,,,,,,,,,,,,gray,hexagon
0.0,7.0,0.0,1.0,3.0,3.0,350.7663419877644,3.0,1.0,phase_1,,,,,,,,,,,,,gray,hexagon
416.0,4.0,4.0,0.0,2.0,2.0,371.0420029819943,3.0,1.0,phase_1,,,,,,,,,,,,,yellow,triangle
197.0,3.0,3.0,0.0,3.0,3.0,375.7255939999595,3.0,1.0,phase_1,,,,,,,,,,,,,green,circle
190.0,7.0,3.0,1.0,4.0,4.0,394.832101999782,3.0,1.0,phase_1,,,,,,,,,,,,,gray,hexagon
124.0,6.0,2.0,1.0,1.0,1.0,502.1667279943358,3.0,1.0,phase_1,,,,,,,,,,,,,orange,diamond
99.0,6.0,2.0,1.0,3.0,3.0,411.4704429812263,3.0,1.0,phase_1,,,,,,,,,,,,,orange,diamond
26.0,1.0,1.0,0.0,2.0,2.0,458.3164930227212,3.0,1.0,phase_1,,,,,,,,,,,,,blue,flipped triangle
389.0,8.0,4.0,1.0,2.0,2.0,485.2140750153921,3.0,1.0,phase_1,,,,,,,,,,,,,magenta,I
184.0,3.0,3.0,0.0,2.0,2.0,336.409494979307,3.0,1.0,phase_1,,,,,,,,,,,,,green,circle
93.0,2.0,2.0,0.0,4.0,4.0,333.9529469958506,3.0,1.0,phase_1,,,,,,,,,,,,,cyan,cross
423.0,4.0,4.0,0.0,1.0,1.0,457.6218849979341,3.0,2.0,phase_1,,,,,,,,,,,,,yellow,triangle
412.0,8.0,4.0,1.0,1.0,1.0,383.1562820123508,3.0,1.0,phase_1,,,,,,,,,,,,,magenta,I
0.0,6.0,0.0,1.0,4.0,4.0,576.2159530131612,3.0,1.0,phase_1,,,,,,,,,,,,,orange,diamond
0.0,8.0,0.0,1.0,4.0,4.0,389.8670229827985,3.0,1.0,phase_1,,,,,,,,,,,,,magenta,I
27.0,1.0,1.0,0.0,4.0,4.0,481.8850040028337,3.0,1.0,phase_1,,,,,,,,,,,,,blue,flipped triangle
26.0,5.0,1.0,1.0,3.0,3.0,448.45670700306067,3.0,1.0,phase_1,,,,,,,,,,,,,white,square
83.0,2.0,2.0,0.0,1.0,1.0,380.970158992568,3.0,1.0,phase_1,,,,,,,,,,,,,cyan,cross
69.0,5.0,1.0,1.0,1.0,1.0,505.7583519956097,3.0,1.0,phase_1,,,,,,,,,,,,,white,square
181.0,3.0,3.0,0.0,1.0,1.0,486.4623699977528,3.0,1.0,phase_1,,,,,,,,,,,,,green,circle
57.0,5.0,1.0,1.0,4.0,4.0,419.9095339863561,3.0,1.0,phase_1,,,,,,,,,,,,,white,square
0.0,6.0,0.0,1.0,1.0,1.0,345.5394319898914,3.0,1.0,phase_1,,,,,,,,,,,,,orange,diamond
408.0,4.0,4.0,0.0,2.0,2.0,329.9222820205614,3.0,1.0,phase_1,,,,,,,,,,,,,yellow,triangle
197.0,7.0,3.0,1.0,3.0,3.0,507.1394950209651,3.0,1.0,phase_1,,,,,,,,,,,,,gray,hexagon
193.0,3.0,3.0,0.0,3.0,3.0,325.6640439794864,3.0,1.0,phase_1,,,,,,,,,,,,,green,circle
0.0,6.0,0.0,1.0,1.0,1.0,353.5161910112947,3.0,1.0,phase_1,,,,,,,,,,,,,orange,diamond
28.0,1.0,1.0,0.0,2.0,2.0,455.7860450004227,3.0,1.0,phase_1,,,,,,,,,,,,,blue,flipped triangle
77.0,2.0,2.0,0.0,4.0,4.0,396.4506459888071,3.0,1.0,phase_1,,,,,,,,,,,,,cyan,cross
204.0,3.0,3.0,0.0,2.0,2.0,358.8583600067068,3.0,1.0,phase_1,,,,,,,,,,,,,green,circle
90.0,6.0,2.0,1.0,2.0,2.0,350.2551620185841,3.0,1.0,phase_1,,,,,,,,,,,,,orange,diamond
124.0,2.0,2.0,0.0,4.0,4.0,464.5852510002441,3.0,1.0,phase_1,,,,,,,,,,,,,cyan,cross
0.0,7.0,0.0,1.0,4.0,4.0,616.2871650012676,3.0,1.0,phase_1,,,,,,,,,,,,,gray,hexagon
30.0,5.0,1.0,1.0,4.0,4.0,361.4551360078621,3.0,1.0,phase_1,,,,,,,,,,,,,white,square
46.0,5.0,1.0,1.0,4.0,4.0,416.8564410065301,3.0,1.0,phase_1,,,,,,,,,,,,,white,square
213.0,3.0,3.0,0.0,2.0,2.0,436.4088110160082,3.0,1.0,phase_1,,,,,,,,,,,,,green,circle
410.0,4.0,4.0,0.0,2.0,2.0,578.1145160144661,3.0,1.0,phase_1,,,,,,,,,,,,,yellow,triangle
0.0,4.0,0.0,0.0,3.0,3.0,611.9949170097243,3.0,2.0,phase_1,,,,,,,,,,,,,yellow,triangle
0.0,8.0,0.0,1.0,4.0,4.0,511.702112009516,3.0,1.0,phase_1,,,,,,,,,,,,,magenta,I
189.0,3.0,3.0,0.0,2.0,2.0,378.450193995377,3.0,1.0,phase_1,,,,,,,,,,,,,green,circle
0.0,2.0,0.0,0.0,3.0,3.0,327.5001439906191,3.0,1.0,phase_1,,,,,,,,,,,,,cyan,cross
219.0,7.0,3.0,1.0,4.0,4.0,365.8154889999423,3.0,1.0,phase_1,,,,,,,,,,,,,gray,hexagon
0.0,2.0,0.0,0.0,1.0,1.0,435.2486700227018,3.0,1.0,phase_1,,,,,,,,,,,,,cyan,cross
398.0,4.0,4.0,0.0,1.0,1.0,381.9594270025845,3.0,1.0,phase_1,,,,,,,,,,,,,yellow,triangle
211.0,3.0,3.0,0.0,3.0,3.0,353.7121029803529,3.0,1.0,phase_1,,,,,,,,,,,,,green,circle
52.0,5.0,1.0,1.0,2.0,2.0,385.4494880069978,3.0,1.0,phase_1,,,,,,,,,,,,,white,square
216.0,7.0,3.0,1.0,3.0,3.0,342.2234909958206,3.0,1.0,phase_1,,,,,,,,,,,,,gray,hexagon
54.0,5.0,1.0,1.0,2.0,2.0,394.0760199911892,3.0,1.0,phase_1,,,,,,,,,,,,,white,square
223.0,3.0,3.0,0.0,4.0,4.0,356.8851680029183,3.0,1.0,phase_1,,,,,,,,,,,,,green,circle
94.0,6.0,2.0,1.0,2.0,2.0,354.395067988662,3.0,1.0,phase_1,,,,,,,,,,,,,orange,diamond
416.0,8.0,4.0,1.0,1.0,1.0,526.2514379865024,3.0,1.0,phase_1,,,,,,,,,,,,,magenta,I
0.0,1.0,0.0,0.0,2.0,2.0,530.4962439986411,3.0,1.0,phase_1,,,,,,,,,,,,,blue,flipped triangle
377.0,8.0,4.0,1.0,3.0,3.0,329.8999170074239,3.0,1.0,phase_1,,,,,,,,,,,,,magenta,I
376.0,8.0,4.0,1.0,2.0,2.0,503.4995960013475,3.0,1.0,phase_1,,,,,,,,,,,,,magenta,I
0.0,2.0,0.0,0.0,4.0,4.0,481.6962800105102,3.0,1.0,phase_1,,,,,,,,,,,,,cyan,cross
408.0,8.0,4.0,1.0,4.0,4.0,453.2988969876896,3.0,1.0,phase_1,,,,,,,,,,,,,magenta,I
397.0,4.0,4.0,0.0,4.0,4.0,485.8153690001927,3.0,1.0,phase_1,,,,,,,,,,,,,yellow,triangle
416.0,4.0,4.0,0.0,3.0,3.0,486.281211982714,3.0,1.0,phase_1,,,,,,,,,,,,,yellow,triangle
0.0,6.0,0.0,1.0,3.0,3.0,500.45313299051486,3.0,1.0,phase_1,,,,,,,,,,,,,orange,diamond
0.0,4.0,0.0,0.0,3.0,3.0,351.5356190036982,3.0,1.0,phase_1,,,,,,,,,,,,,yellow,triangle
99.0,2.0,2.0,0.0,2.0,2.0,435.9924400050659,3.0,1.0,phase_1,,,,,,,,,,,,,cyan,cross
376.0,8.0,4.0,1.0,3.0,3.0,317.0653110137209,3.0,1.0,phase_1,,,,,,,,,,,,,magenta,I
79.0,6.0,2.0,1.0,3.0,3.0,374.0515259851236,3.0,1.0,phase_1,,,,,,,,,,,,,orange,diamond
178.0,7.0,3.0,1.0,2.0,2.0,498.0540579999797,3.0,1.0,phase_1,,,,,,,,,,,,,gray,hexagon
81.0,6.0,2.0,1.0,3.0,3.0,354.3322589830495,3.0,1.0,phase_1,,,,,,,,,,,,,orange,diamond
0.0,6.0,0.0,1.0,4.0,4.0,379.9959259922616,3.0,1.0,phase_1,,,,,,,,,,,,,orange,diamond
0.0,3.0,0.0,0.0,3.0,3.0,347.1538320009131,3.0,1.0,phase_1,,,,,,,,,,,,,green,circle
114.0,6.0,2.0,1.0,3.0,3.0,756.9941509864293,3.0,1.0,phase_1,,,,,,,,,,,,,orange,diamond
83.0,6.0,2.0,1.0,1.0,1.0,589.027256006375,3.0,1.0,phase_1,,,,,,,,,,,,,orange,diamond
71.0,1.0,1.0,0.0,1.0,1.0,410.1362290093675,3.0,1.0,phase_1,,,,,,,,,,,,,blue,flipped triangle
198.0,3.0,3.0,0.0,3.0,3.0,379.1378690220881,3.0,1.0,phase_1,,,,,,,,,,,,,green,circle
0.0,8.0,0.0,1.0,1.0,1.0,431.7130359995644,3.0,1.0,phase_1,,,,,,,,,,,,,magenta,I
95.0,2.0,2.0,0.0,2.0,2.0,423.8741470035165,3.0,1.0,phase_1,,,,,,,,,,,,,cyan,cross
68.0,1.0,1.0,0.0,4.0,4.0,474.2321789963171,3.0,1.0,phase_1,,,,,,,,,,,,,blue,flipped triangle
209.0,3.0,3.0,0.0,2.0,2.0,330.5617329897359,3.0,1.0,phase_1,,,,,,,,,,,,,green,circle
0.0,8.0,0.0,1.0,4.0,4.0,454.5530939940363,3.0,1.0,phase_1,,,,,,,,,,,,,magenta,I
69.0,1.0,1.0,0.0,2.0,2.0,527.7424989908468,3.0,1.0,phase_1,,,,,,,,,,,,,blue,flipped triangle
189.0,7.0,3.0,1.0,3.0,3.0,308.1720230111386,3.0,1.0,phase_1,,,,,,,,,,,,,gray,hexagon
405.0,4.0,4.0,0.0,4.0,4.0,457.014685991453,3.0,1.0,phase_1,,,,,,,,,,,,,yellow,triangle
424.0,8.0,4.0,1.0,2.0,2.0,477.1553390019107,3.0,1.0,phase_1,,,,,,,,,,,,,magenta,I
376.0,4.0,4.0,0.0,3.0,3.0,324.0682360192295,3.0,1.0,phase_1,,,,,,,,,,,,,yellow,triangle
0.0,4.0,0.0,0.0,3.0,3.0,423.553795000771,3.0,1.0,phase_1,,,,,,,,,,,,,yellow,triangle
408.0,4.0,4.0,0.0,4.0,4.0,342.8251250006724,3.0,1.0,phase_1,,,,,,,,,,,,,yellow,triangle
77.0,2.0,2.0,0.0,2.0,2.0,312.2523590282071,3.0,1.0,phase_1,,,,,,,,,,,,,cyan,cross
410.0,8.0,4.0,1.0,3.0,3.0,390.7818630104884,3.0,1.0,phase_1,,,,,,,,,,,,,magenta,I
59.0,5.0,1.0,1.0,2.0,2.0,325.5519250233192,3.0,1.0,phase_1,,,,,,,,,,,,,white,square
27.0,5.0,1.0,1.0,1.0,1.0,350.9727350028697,3.0,1.0,phase_1,,,,,,,,,,,,,white,square
184.0,3.0,3.0,0.0,3.0,3.0,403.9516710035968,3.0,1.0,phase_1,,,,,,,,,,,,,green,circle
41.0,1.0,1.0,0.0,3.0,3.0,457.001486007357,3.0,1.0,phase_1,,,,,,,,,,,,,blue,flipped triangle
0.0,5.0,0.0,1.0,4.0,4.0,525.9987499739509,3.0,1.0,phase_1,,,,,,,,,,,,,white,square
204.0,7.0,3.0,1.0,1.0,1.0,562.937573005911,3.0,1.0,phase_1,,,,,,,,,,,,,gray,hexagon
90.0,2.0,2.0,0.0,2.0,2.0,550.003751006443,3.0,1.0,phase_1,,,,,,,,,,,,,cyan,cross
213.0,7.0,3.0,1.0,3.0,3.0,453.5240230034105,3.0,1.0,phase_1,,,,,,,,,,,,,gray,hexagon
122.0,6.0,2.0,1.0,2.0,2.0,626.2478299904615,3.0,1.0,phase_1,,,,,,,,,,,,,orange,diamond
105.0,2.0,2.0,0.0,1.0,1.0,460.3027419943828,3.0,1.0,phase_1,,,,,,,,,,,,,cyan,cross
101.0,2.0,2.0,0.0,4.0,4.0,400.9479839878622,3.0,1.0,phase_1,,,,,,,,,,,,,cyan,cross
89.0,6.0,2.0,1.0,4.0,4.0,407.3850720014889,4.0,1.0,phase_1,,,,,,,,,,,,,orange,diamond
0.0,6.0,0.0,1.0,2.0,2.0,353.930715995375,4.0,1.0,phase_1,,,,,,,,,,,,,orange,diamond
0.0,2.0,0.0,0.0,4.0,4.0,394.3667779967654,4.0,1.0,phase_1,,,,,,,,,,,,,cyan,cross
72.0,5.0,1.0,1.0,3.0,3.0,510.8810050005559,4.0,1.0,phase_1,,,,,,,,,,,,,white,square
198.0,7.0,3.0,1.0,1.0,1.0,660.8871000062209,4.0,2.0,phase_1,,,,,,,,,,,,,gray,hexagon
0.0,4.0,0.0,0.0,4.0,4.0,668.7325040111318,4.0,1.0,phase_1,,,,,,,,,,,,,yellow,triangle
412.0,4.0,4.0,0.0,4.0,4.0,409.6914450055919,4.0,1.0,phase_1,,,,,,,,,,,,,yellow,triangle
393.0,8.0,4.0,1.0,1.0,1.0,348.7079789920244,4.0,1.0,phase_1,,,,,,,,,,,,,magenta,I
393.0,4.0,4.0,0.0,1.0,1.0,401.8883259850554,4.0,1.0,phase_1,,,,,,,,,,,,,yellow,triangle
0.0,1.0,0.0,0.0,1.0,1.0,309.5531689759809,4.0,1.0,phase_1,,,,,,,,,,,,,blue,flipped triangle
103.0,6.0,2.0,1.0,3.0,3.0,338.7139500118792,4.0,1.0,phase_1,,,,,,,,,,,,,orange,diamond
69.0,5.0,1.0,1.0,1.0,1.0,342.5998180173337,4.0,1.0,phase_1,,,,,,,,,,,,,white,square
75.0,6.0,2.0,1.0,2.0,2.0,356.5919389948249,4.0,1.0,phase_1,,,,,,,,,,,,,orange,diamond
103.0,2.0,2.0,0.0,3.0,3.0,439.1422960034106,4.0,1.0,phase_1,,,,,,,,,,,,,cyan,cross
37.0,5.0,1.0,1.0,3.0,3.0,358.3916889911052,4.0,1.0,phase_1,,,,,,,,,,,,,white,square
0.0,1.0,0.0,0.0,4.0,4.0,584.9639580119401,4.0,1.0,phase_1,,,,,,,,,,,,,blue,flipped triangle
103.0,2.0,2.0,0.0,3.0,3.0,359.9141990125645,4.0,1.0,phase_1,,,,,,,,,,,,,cyan,cross
0.0,4.0,0.0,0.0,2.0,2.0,346.826388995396,4.0,1.0,phase_1,,,,,,,,,,,,,yellow,triangle
197.0,3.0,3.0,0.0,2.0,2.0,429.8275329929311,4.0,1.0,phase_1,,,,,,,,,,,,,green,circle
29.0,5.0,1.0,1.0,3.0,3.0,342.4831489974167,4.0,1.0,phase_1,,,,,,,,,,,,,white,square
57.0,1.0,1.0,0.0,4.0,4.0,314.2531799967401,4.0,1.0,phase_1,,,,,,,,,,,,,blue,flipped triangle
70.0,5.0,1.0,1.0,3.0,3.0,358.5293139913119,4.0,1.0,phase_1,,,,,,,,,,,,,white,square
404.0,8.0,4.0,1.0,2.0,2.0,441.9229009945411,4.0,1.0,phase_1,,,,,,,,,,,,,magenta,I
202.0,7.0,3.0,1.0,2.0,2.0,416.2089599994942,4.0,1.0,phase_1,,,,,,,,,,,,,gray,hexagon
0.0,5.0,0.0,1.0,3.0,3.0,355.7875679980498,4.0,1.0,phase_1,,,,,,,,,,,,,white,square
391.0,4.0,4.0,0.0,2.0,2.0,486.5103290067054,4.0,1.0,phase_1,,,,,,,,,,,,,yellow,triangle
44.0,5.0,1.0,1.0,2.0,2.0,412.4913989799097,4.0,1.0,phase_1,,,,,,,,,,,,,white,square
224.0,3.0,3.0,0.0,3.0,3.0,458.22968397988,4.0,1.0,phase_1,,,,,,,,,,,,,green,circle
69.0,1.0,1.0,0.0,1.0,1.0,575.2734529960435,4.0,1.0,phase_1,,,,,,,,,,,,,blue,flipped triangle
416.0,8.0,4.0,1.0,3.0,3.0,457.3158040002454,4.0,1.0,phase_1,,,,,,,,,,,,,magenta,I
184.0,3.0,3.0,0.0,4.0,4.0,478.0306030006613,4.0,1.0,phase_1,,,,,,,,,,,,,green,circle
401.0,4.0,4.0,0.0,4.0,4.0,381.8150000006426,4.0,1.0,phase_1,,,,,,,,,,,,,yellow,triangle
176.0,3.0,3.0,0.0,1.0,1.0,346.7673519917298,4.0,1.0,phase_1,,,,,,,,,,,,,green,circle
0.0,1.0,0.0,0.0,1.0,1.0,452.2421959845815,4.0,1.0,phase_1,,,,,,,,,,,,,blue,flipped triangle
118.0,2.0,2.0,0.0,2.0,2.0,489.8749050043989,4.0,1.0,phase_1,,,,,,,,,,,,,cyan,cross
47.0,5.0,1.0,1.0,3.0,3.0,743.8477649993729,4.0,1.0,phase_1,,,,,,,,,,,,,white,square
410.0,8.0,4.0,1.0,3.0,3.0,333.999455004232,4.0,1.0,phase_1,,,,,,,,,,,,,magenta,I
382.0,8.0,4.0,1.0,1.0,1.0,880.8842969883699,4.0,1.0,phase_1,,,,,,,,,,,,,magenta,I
0.0,5.0,0.0,1.0,3.0,3.0,335.7402049878146,4.0,1.0,phase_1,,,,,,,,,,,,,white,square
75.0,2.0,2.0,0.0,4.0,4.0,449.8639370140154,4.0,1.0,phase_1,,,,,,,,,,,,,cyan,cross
89.0,2.0,2.0,0.0,1.0,1.0,400.3398839849978,4.0,1.0,phase_1,,,,,,,,,,,,,cyan,cross
0.0,2.0,0.0,0.0,4.0,4.0,693.6051639786456,4.0,1.0,phase_1,,,,,,,,,,,,,cyan,cross
81.0,6.0,2.0,1.0,3.0,3.0,479.0518609806895,4.0,1.0,phase_1,,,,,,,,,,,,,orange,diamond
116.0,6.0,2.0,1.0,1.0,1.0,371.2326220120303,4.0,1.0,phase_1,,,,,,,,,,,,,orange,diamond
41.0,5.0,1.0,1.0,1.0,1.0,547.719028982101,4.0,1.0,phase_1,,,,,,,,,,,,,white,square
73.0,1.0,1.0,0.0,1.0,1.0,552.5097259960603,4.0,1.0,phase_1,,,,,,,,,,,,,blue,flipped triangle
408.0,8.0,4.0,1.0,3.0,3.0,329.2824920208659,4.0,1.0,phase_1,,,,,,,,,,,,,magenta,I
0.0,1.0,0.0,0.0,4.0,4.0,342.0656099915504,4.0,1.0,phase_1,,,,,,,,,,,,,blue,flipped triangle
119.0,2.0,2.0,0.0,1.0,1.0,331.2281179823912,4.0,1.0,phase_1,,,,,,,,,,,,,cyan,cross
0.0,4.0,0.0,0.0,1.0,1.0,496.2935679941438,4.0,1.0,phase_1,,,,,,,,,,,,,yellow,triangle
108.0,6.0,2.0,1.0,2.0,2.0,460.1394269848242,4.0,1.0,phase_1,,,,,,,,,,,,,orange,diamond
104.0,6.0,2.0,1.0,1.0,1.0,392.3409729904961,4.0,1.0,phase_1,,,,,,,,,,,,,orange,diamond
0.0,5.0,0.0,1.0,3.0,3.0,749.657213978935,4.0,1.0,phase_1,,,,,,,,,,,,,white,square
118.0,6.0,2.0,1.0,2.0,2.0,354.4555900152772,4.0,1.0,phase_1,,,,,,,,,,,,,orange,diamond
0.0,8.0,0.0,1.0,1.0,1.0,366.5502500080038,4.0,1.0,phase_1,,,,,,,,,,,,,magenta,I
49.0,1.0,1.0,0.0,3.0,3.0,293.6182559933513,4.0,1.0,phase_1,,,,,,,,,,,,,blue,flipped triangle
424.0,4.0,4.0,0.0,2.0,2.0,411.3396379980258,4.0,1.0,phase_1,,,,,,,,,,,,,yellow,triangle
380.0,4.0,4.0,0.0,1.0,1.0,408.769433008274,4.0,1.0,phase_1,,,,,,,,,,,,,yellow,triangle
0.0,4.0,0.0,0.0,2.0,2.0,386.2686840002425,4.0,1.0,phase_1,,,,,,,,,,,,,yellow,triangle
204.0,3.0,3.0,0.0,4.0,4.0,562.1230669785291,4.0,1.0,phase_1,,,,,,,,,,,,,green,circle
209.0,3.0,3.0,0.0,1.0,1.0,347.157714975765,4.0,1.0,phase_1,,,,,,,,,,,,,green,circle
193.0,7.0,3.0,1.0,1.0,1.0,425.0797799904831,4.0,1.0,phase_1,,,,,,,,,,,,,gray,hexagon
211.0,3.0,3.0,0.0,2.0,2.0,359.7292040067259,4.0,1.0,phase_1,,,,,,,,,,,,,green,circle
410.0,4.0,4.0,0.0,2.0,2.0,473.2832690060604,4.0,1.0,phase_1,,,,,,,,,,,,,yellow,triangle
37.0,1.0,1.0,0.0,2.0,2.0,464.5342089934274,4.0,1.0,phase_1,,,,,,,,,,,,,blue,flipped triangle
54.0,1.0,1.0,0.0,3.0,3.0,283.1788280163891,4.0,1.0,phase_1,,,,,,,,,,,,,blue,flipped triangle
125.0,2.0,2.0,0.0,1.0,1.0,535.3237969975453,4.0,1.0,phase_1,,,,,,,,,,,,,cyan,cross
201.0,3.0,3.0,0.0,4.0,4.0,358.1206999951973,4.0,1.0,phase_1,,,,,,,,,,,,,green,circle
403.0,8.0,4.0,1.0,1.0,1.0,371.8272050027735,4.0,1.0,phase_1,,,,,,,,,,,,,magenta,I
89.0,2.0,2.0,0.0,3.0,3.0,423.0084300215821,4.0,1.0,phase_1,,,,,,,,,,,,,cyan,cross
387.0,4.0,4.0,0.0,3.0,3.0,361.7642929893918,4.0,1.0,phase_1,,,,,,,,,,,,,yellow,triangle
36.0,1.0,1.0,0.0,4.0,4.0,386.0671969887335,4.0,1.0,phase_1,,,,,,,,,,,,,blue,flipped triangle
78.0,2.0,2.0,0.0,4.0,4.0,333.2606809854042,4.0,1.0,phase_1,,,,,,,,,,,,,cyan,cross
412.0,4.0,4.0,0.0,1.0,1.0,472.0514900109265,4.0,1.0,phase_1,,,,,,,,,,,,,yellow,triangle
387.0,8.0,4.0,1.0,4.0,4.0,639.8770200030413,4.0,1.0,phase_1,,,,,,,,,,,,,magenta,I
113.0,6.0,2.0,1.0,4.0,4.0,769.9257119966205,4.0,1.0,phase_1,,,,,,,,,,,,,orange,diamond
223.0,7.0,3.0,1.0,2.0,2.0,390.8099899999797,4.0,1.0,phase_1,,,,,,,,,,,,,gray,hexagon
73.0,5.0,1.0,1.0,4.0,4.0,302.0273879810702,4.0,1.0,phase_1,,,,,,,,,,,,,white,square
74.0,1.0,1.0,0.0,3.0,3.0,321.2521570094395,4.0,1.0,phase_1,,,,,,,,,,,,,blue,flipped triangle
394.0,4.0,4.0,0.0,4.0,4.0,299.6855189849157,4.0,1.0,phase_1,,,,,,,,,,,,,yellow,triangle
0.0,2.0,0.0,0.0,1.0,1.0,346.0192399797961,4.0,1.0,phase_1,,,,,,,,,,,,,cyan,cross
75.0,1.0,1.0,0.0,2.0,2.0,445.3213190136011,4.0,1.0,phase_1,,,,,,,,,,,,,blue,flipped triangle
44.0,5.0,1.0,1.0,2.0,2.0,378.8620199775323,4.0,1.0,phase_1,,,,,,,,,,,,,white,square
0.0,2.0,0.0,0.0,4.0,4.0,374.698266008636,4.0,1.0,phase_1,,,,,,,,,,,,,cyan,cross
0.0,3.0,0.0,0.0,1.0,1.0,429.0430349938106,4.0,1.0,phase_1,,,,,,,,,,,,,green,circle
30.0,5.0,1.0,1.0,1.0,1.0,448.1673779955599,4.0,1.0,phase_1,,,,,,,,,,,,,white,square
114.0,6.0,2.0,1.0,3.0,3.0,349.7112909972202,4.0,1.0,phase_1,,,,,,,,,,,,,orange,diamond
197.0,7.0,3.0,1.0,3.0,3.0,436.833438987378,4.0,1.0,phase_1,,,,,,,,,,,,,gray,hexagon
416.0,8.0,4.0,1.0,1.0,1.0,398.7867950054351,4.0,1.0,phase_1,,,,,,,,,,,,,magenta,I
46.0,5.0,1.0,1.0,3.0,3.0,413.0034839909058,4.0,1.0,phase_1,,,,,,,,,,,,,white,square
0.0,8.0,0.0,1.0,2.0,2.0,641.7048030125443,4.0,1.0,phase_1,,,,,,,,,,,,,magenta,I
0.0,7.0,0.0,1.0,3.0,3.0,540.1732359896414,4.0,1.0,phase_1,,,,,,,,,,,,,gray,hexagon
81.0,2.0,2.0,0.0,1.0,1.0,330.5889109906275,4.0,1.0,phase_1,,,,,,,,,,,,,cyan,cross
105.0,2.0,2.0,0.0,1.0,1.0,374.5531660097185,4.0,1.0,phase_1,,,,,,,,,,,,,cyan,cross
57.0,5.0,1.0,1.0,4.0,4.0,445.2563149970956,4.0,1.0,phase_1,,,,,,,,,,,,,white,square
47.0,1.0,1.0,0.0,4.0,4.0,375.0421389995608,4.0,1.0,phase_1,,,,,,,,,,,,,blue,flipped triangle
30.0,1.0,1.0,0.0,4.0,4.0,422.8902350005228,4.0,1.0,phase_1,,,,,,,,,,,,,blue,flipped triangle
218.0,7.0,3.0,1.0,1.0,1.0,482.7442340028938,4.0,1.0,phase_1,,,,,,,,,,,,,gray,hexagon
404.0,4.0,4.0,0.0,3.0,3.0,325.6652920099441,4.0,1.0,phase_1,,,,,,,,,,,,,yellow,triangle
45.0,5.0,1.0,1.0,3.0,3.0,404.6468829910736,4.0,1.0,phase_1,,,,,,,,,,,,,white,square
0.0,5.0,1.0,1.0,5.0,5.0,415.185919002397,1.0,1.0,phase_2,go,250.0,250.0,1.0,,,,,,,,,white,square
0.0,6.0,2.0,1.0,5.0,5.0,573.9095860044472,1.0,1.0,phase_2,go,250.0,250.0,1.0,,,,,,,,,orange,diamond
0.0,3.0,3.0,0.0,5.0,5.0,435.7703729765489,1.0,1.0,phase_2,go,250.0,250.0,1.0,,,,,,,,,green,circle
0.0,7.0,3.0,1.0,5.0,5.0,555.2491710113827,1.0,1.0,phase_2,stop,250.0,250.0,3.0,,,,,,,,,gray,hexagon
0.0,3.0,3.0,0.0,6.0,6.0,666.9599319866393,1.0,1.0,phase_2,go,200.0,250.0,1.0,,,,,,,,,green,circle
0.0,3.0,3.0,0.0,5.0,5.0,721.261501981644,1.0,1.0,phase_2,go,200.0,250.0,1.0,,,,,,,,,green,circle
0.0,4.0,4.0,0.0,6.0,6.0,530.1066419924609,1.0,1.0,phase_2,go,200.0,250.0,1.0,,,,,,,,,yellow,triangle
0.0,1.0,1.0,0.0,6.0,6.0,695.7009449834004,1.0,1.0,phase_2,go,200.0,250.0,1.0,,,,,,,,,blue,flipped triangle
0.0,7.0,3.0,1.0,5.0,0.0,0.0,1.0,1.0,phase_2,stop,200.0,250.0,4.0,,,,,,,,,gray,hexagon
0.0,5.0,1.0,1.0,5.0,0.0,0.0,1.0,1.0,phase_2,stop,250.0,250.0,4.0,,,,,,,,,white,square
0.0,4.0,4.0,0.0,5.0,5.0,758.2019279943779,1.0,1.0,phase_2,go,300.0,250.0,1.0,,,,,,,,,yellow,triangle
0.0,7.0,3.0,1.0,5.0,0.0,0.0,1.0,1.0,phase_2,stop,300.0,250.0,4.0,,,,,,,,,gray,hexagon
0.0,6.0,2.0,1.0,5.0,5.0,637.5620400067419,1.0,1.0,phase_2,go,350.0,250.0,1.0,,,,,,,,,orange,diamond
0.0,6.0,2.0,1.0,5.0,0.0,0.0,1.0,1.0,phase_2,stop,350.0,250.0,4.0,,,,,,,,,orange,diamond
0.0,8.0,4.0,1.0,6.0,0.0,0.0,1.0,1.0,phase_2,stop,400.0,250.0,4.0,,,,,,,,,magenta,I
0.0,2.0,2.0,0.0,6.0,6.0,599.3531330022961,1.0,1.0,phase_2,go,400.0,300.0,1.0,,,,,,,,,cyan,cross
0.0,7.0,3.0,1.0,6.0,0.0,0.0,1.0,1.0,phase_2,stop,400.0,300.0,4.0,,,,,,,,,gray,hexagon
0.0,8.0,4.0,1.0,5.0,0.0,0.0,1.0,1.0,phase_2,stop,400.0,350.0,4.0,,,,,,,,,magenta,I
0.0,7.0,3.0,1.0,6.0,6.0,689.8488920123782,1.0,1.0,phase_2,go,450.0,350.0,1.0,,,,,,,,,gray,hexagon
0.0,6.0,2.0,1.0,6.0,0.0,0.0,1.0,1.0,phase_2,stop,450.0,350.0,4.0,,,,,,,,,orange,diamond
0.0,6.0,2.0,1.0,6.0,0.0,0.0,1.0,1.0,phase_2,stop,450.0,400.0,4.0,,,,,,,,,orange,diamond
0.0,3.0,3.0,0.0,6.0,6.0,713.4558190009557,1.0,1.0,phase_2,go,450.0,450.0,1.0,,,,,,,,,green,circle
0.0,6.0,2.0,1.0,5.0,0.0,0.0,1.0,1.0,phase_2,stop,450.0,450.0,4.0,,,,,,,,,orange,diamond
0.0,7.0,3.0,1.0,6.0,0.0,0.0,1.0,1.0,phase_2,stop,500.0,450.0,4.0,,,,,,,,,gray,hexagon
0.0,2.0,2.0,0.0,6.0,6.0,702.7981579885818,1.0,1.0,phase_2,go,500.0,500.0,1.0,,,,,,,,,cyan,cross
0.0,8.0,4.0,1.0,6.0,0.0,0.0,1.0,1.0,phase_2,stop,500.0,500.0,4.0,,,,,,,,,magenta,I
0.0,3.0,3.0,0.0,6.0,6.0,687.4238360032905,1.0,1.0,phase_2,go,500.0,550.0,1.0,,,,,,,,,green,circle
0.0,5.0,1.0,1.0,5.0,5.0,870.5100409861188,1.0,1.0,phase_2,go,500.0,550.0,1.0,,,,,,,,,white,square
0.0,7.0,3.0,1.0,6.0,6.0,694.8898360133171,1.0,1.0,phase_2,go,500.0,550.0,1.0,,,,,,,,,gray,hexagon
0.0,7.0,3.0,1.0,5.0,5.0,638.677295006346,1.0,1.0,phase_2,stop,500.0,550.0,3.0,,,,,,,,,gray,hexagon
0.0,1.0,1.0,0.0,6.0,6.0,732.8036010148935,1.0,1.0,phase_2,go,450.0,550.0,1.0,,,,,,,,,blue,flipped triangle
0.0,3.0,3.0,0.0,6.0,6.0,965.3219110041392,1.0,1.0,phase_2,go,450.0,550.0,1.0,,,,,,,,,green,circle
0.0,4.0,4.0,0.0,6.0,6.0,794.7287120041437,1.0,1.0,phase_2,go,450.0,550.0,1.0,,,,,,,,,yellow,triangle
0.0,8.0,4.0,1.0,6.0,0.0,0.0,1.0,1.0,phase_2,stop,450.0,550.0,4.0,,,,,,,,,magenta,I
0.0,5.0,1.0,1.0,5.0,0.0,0.0,1.0,1.0,phase_2,stop,450.0,600.0,4.0,,,,,,,,,white,square
0.0,2.0,2.0,0.0,5.0,5.0,832.0089300104883,1.0,1.0,phase_2,go,500.0,600.0,1.0,,,,,,,,,cyan,cross
0.0,1.0,1.0,0.0,5.0,5.0,837.1284989989363,2.0,1.0,phase_2,go,500.0,600.0,1.0,,,,,,,,,blue,flipped triangle
0.0,1.0,1.0,0.0,5.0,5.0,550.1115529914387,2.0,1.0,phase_2,go,500.0,600.0,1.0,,,,,,,,,blue,flipped triangle
0.0,4.0,4.0,0.0,5.0,5.0,810.9358359943144,2.0,1.0,phase_2,go,500.0,600.0,1.0,,,,,,,,,yellow,triangle
0.0,7.0,3.0,1.0,6.0,6.0,597.9826429975219,2.0,1.0,phase_2,stop,500.0,600.0,3.0,,,,,,,,,gray,hexagon
0.0,1.0,1.0,0.0,6.0,6.0,692.3988040070981,2.0,1.0,phase_2,go,500.0,550.0,1.0,,,,,,,,,blue,flipped triangle
0.0,8.0,4.0,1.0,5.0,0.0,0.0,2.0,1.0,phase_2,stop,500.0,550.0,4.0,,,,,,,,,magenta,I
0.0,3.0,3.0,0.0,6.0,6.0,1336.4385649911128,2.0,1.0,phase_2,go,550.0,550.0,1.0,,,,,,,,,green,circle
0.0,7.0,3.0,1.0,5.0,0.0,0.0,2.0,1.0,phase_2,stop,550.0,550.0,4.0,,,,,,,,,gray,hexagon
0.0,7.0,3.0,1.0,5.0,0.0,0.0,2.0,1.0,phase_2,stop,600.0,550.0,4.0,,,,,,,,,gray,hexagon
0.0,4.0,4.0,0.0,6.0,6.0,815.4712620016653,2.0,1.0,phase_2,go,650.0,550.0,1.0,,,,,,,,,yellow,triangle
0.0,6.0,2.0,1.0,5.0,0.0,0.0,2.0,1.0,phase_2,stop,650.0,550.0,4.0,,,,,,,,,orange,diamond
0.0,6.0,2.0,1.0,5.0,0.0,0.0,2.0,1.0,phase_2,stop,700.0,550.0,4.0,,,,,,,,,orange,diamond
0.0,5.0,1.0,1.0,6.0,6.0,704.3382299889345,2.0,1.0,phase_2,go,750.0,550.0,1.0,,,,,,,,,white,square
0.0,7.0,3.0,1.0,6.0,0.0,0.0,2.0,1.0,phase_2,stop,750.0,550.0,4.0,,,,,,,,,gray,hexagon
0.0,5.0,1.0,1.0,6.0,0.0,0.0,2.0,1.0,phase_2,stop,750.0,600.0,4.0,,,,,,,,,white,square
0.0,2.0,2.0,0.0,6.0,6.0,807.6436030096374,2.0,1.0,phase_2,go,750.0,650.0,1.0,,,,,,,,,cyan,cross
0.0,5.0,1.0,1.0,6.0,6.0,941.26653301646,2.0,1.0,phase_2,go,750.0,650.0,1.0,,,,,,,,,white,square
0.0,3.0,3.0,0.0,6.0,6.0,932.820674002869,2.0,1.0,phase_2,go,750.0,650.0,1.0,,,,,,,,,green,circle
0.0,1.0,1.0,0.0,6.0,6.0,1197.373928007437,2.0,1.0,phase_2,go,750.0,650.0,1.0,,,,,,,,,blue,flipped triangle
0.0,8.0,4.0,1.0,5.0,0.0,0.0,2.0,1.0,phase_2,stop,750.0,650.0,4.0,,,,,,,,,magenta,I
0.0,4.0,4.0,0.0,5.0,5.0,1172.078555013286,2.0,1.0,phase_2,go,800.0,650.0,1.0,,,,,,,,,yellow,triangle
0.0,6.0,2.0,1.0,5.0,0.0,0.0,2.0,1.0,phase_2,stop,800.0,650.0,4.0,,,,,,,,,orange,diamond
0.0,3.0,3.0,0.0,5.0,5.0,987.74618000607,2.0,1.0,phase_2,go,850.0,650.0,1.0,,,,,,,,,green,circle
0.0,3.0,3.0,0.0,5.0,5.0,919.907311006682,2.0,1.0,phase_2,go,850.0,650.0,1.0,,,,,,,,,green,circle
0.0,3.0,3.0,0.0,5.0,5.0,848.920972988708,2.0,1.0,phase_2,go,850.0,650.0,1.0,,,,,,,,,green,circle
0.0,8.0,4.0,1.0,5.0,5.0,646.5276140079368,2.0,1.0,phase_2,stop,850.0,650.0,3.0,,,,,,,,,magenta,I
0.0,5.0,1.0,1.0,5.0,5.0,950.6030410120728,2.0,1.0,phase_2,stop,800.0,650.0,3.0,,,,,,,,,white,square
0.0,4.0,4.0,0.0,6.0,6.0,1172.9969950101804,2.0,1.0,phase_2,go,750.0,650.0,1.0,,,,,,,,,yellow,triangle
0.0,2.0,2.0,0.0,5.0,5.0,1127.392198977759,2.0,1.0,phase_2,go,750.0,650.0,1.0,,,,,,,,,cyan,cross
0.0,6.0,2.0,1.0,5.0,5.0,1085.884358995827,2.0,1.0,phase_2,go,750.0,650.0,1.0,,,,,,,,,orange,diamond
0.0,6.0,2.0,1.0,5.0,0.0,0.0,2.0,1.0,phase_2,stop,750.0,650.0,4.0,,,,,,,,,orange,diamond
0.0,6.0,2.0,1.0,6.0,6.0,1085.9022449876647,2.0,1.0,phase_2,go,800.0,650.0,1.0,,,,,,,,,orange,diamond
0.0,3.0,3.0,0.0,5.0,5.0,1226.2981630046852,2.0,1.0,phase_2,go,800.0,650.0,1.0,,,,,,,,,green,circle
0.0,2.0,2.0,0.0,6.0,6.0,1093.4931150113698,2.0,1.0,phase_2,go,800.0,650.0,1.0,,,,,,,,,cyan,cross
0.0,5.0,1.0,1.0,6.0,6.0,1202.2464430192483,2.0,1.0,phase_2,go,800.0,650.0,1.0,,,,,,,,,white,square
0.0,6.0,2.0,1.0,5.0,5.0,875.3541230107658,2.0,1.0,phase_2,stop,800.0,650.0,3.0,,,,,,,,,orange,diamond
0.0,4.0,4.0,0.0,5.0,5.0,936.0610630246812,3.0,1.0,phase_2,go,750.0,650.0,1.0,,,,,,,,,yellow,triangle
0.0,2.0,2.0,0.0,6.0,6.0,1039.7112930077128,3.0,1.0,phase_2,go,750.0,650.0,1.0,,,,,,,,,cyan,cross
0.0,6.0,2.0,1.0,6.0,0.0,0.0,3.0,1.0,phase_2,stop,750.0,650.0,4.0,,,,,,,,,orange,diamond
0.0,1.0,1.0,0.0,5.0,5.0,824.984195001889,3.0,1.0,phase_2,go,750.0,700.0,1.0,,,,,,,,,blue,flipped triangle
0.0,5.0,1.0,1.0,5.0,0.0,0.0,3.0,1.0,phase_2,stop,750.0,700.0,4.0,,,,,,,,,white,square
0.0,8.0,4.0,1.0,6.0,6.0,1127.7409860049374,3.0,1.0,phase_2,go,800.0,700.0,1.0,,,,,,,,,magenta,I
0.0,1.0,1.0,0.0,5.0,5.0,1364.6783040021546,3.0,1.0,phase_2,go,800.0,700.0,1.0,,,,,,,,,blue,flipped triangle
0.0,4.0,4.0,0.0,6.0,6.0,925.8022839785554,3.0,1.0,phase_2,go,800.0,700.0,1.0,,,,,,,,,yellow,triangle
0.0,7.0,3.0,1.0,6.0,6.0,1134.3176439986564,3.0,1.0,phase_2,go,800.0,700.0,1.0,,,,,,,,,gray,hexagon
0.0,7.0,3.0,1.0,6.0,0.0,0.0,3.0,1.0,phase_2,stop,800.0,700.0,4.0,,,,,,,,,gray,hexagon
0.0,5.0,1.0,1.0,6.0,0.0,0.0,3.0,1.0,phase_2,stop,800.0,750.0,4.0,,,,,,,,,white,square
0.0,7.0,3.0,1.0,6.0,6.0,793.9373549888842,3.0,1.0,phase_2,stop,800.0,800.0,3.0,,,,,,,,,gray,hexagon
0.0,1.0,1.0,0.0,5.0,5.0,1012.5842739944346,3.0,1.0,phase_2,go,800.0,750.0,1.0,,,,,,,,,blue,flipped triangle
0.0,5.0,1.0,1.0,6.0,0.0,0.0,3.0,1.0,phase_2,stop,800.0,750.0,4.0,,,,,,,,,white,square
0.0,1.0,1.0,0.0,6.0,6.0,1018.8338910229504,3.0,1.0,phase_2,go,800.0,800.0,1.0,,,,,,,,,blue,flipped triangle
0.0,1.0,1.0,0.0,5.0,5.0,863.5069580050185,3.0,1.0,phase_2,go,800.0,800.0,1.0,,,,,,,,,blue,flipped triangle
0.0,7.0,3.0,1.0,5.0,5.0,794.4450170034543,3.0,1.0,phase_2,stop,800.0,800.0,3.0,,,,,,,,,gray,hexagon
0.0,5.0,1.0,1.0,5.0,5.0,1074.166486010654,3.0,1.0,phase_2,go,750.0,800.0,1.0,,,,,,,,,white,square
0.0,5.0,1.0,1.0,5.0,0.0,0.0,3.0,1.0,phase_2,stop,750.0,800.0,4.0,,,,,,,,,white,square
0.0,6.0,2.0,1.0,6.0,0.0,0.0,3.0,1.0,phase_2,stop,800.0,800.0,4.0,,,,,,,,,orange,diamond
0.0,4.0,4.0,0.0,5.0,5.0,1329.2188830091618,3.0,1.0,phase_2,go,800.0,850.0,1.0,,,,,,,,,yellow,triangle
0.0,3.0,3.0,0.0,6.0,6.0,1096.3134899793658,3.0,1.0,phase_2,go,800.0,850.0,1.0,,,,,,,,,green,circle
0.0,6.0,2.0,1.0,5.0,5.0,1261.6753799957223,3.0,1.0,phase_2,go,800.0,850.0,1.0,,,,,,,,,orange,diamond
0.0,8.0,4.0,1.0,6.0,6.0,1093.2230179896578,3.0,1.0,phase_2,go,800.0,850.0,1.0,,,,,,,,,magenta,I
0.0,2.0,2.0,0.0,5.0,5.0,997.9372159868944,3.0,1.0,phase_2,go,800.0,850.0,1.0,,,,,,,,,cyan,cross
0.0,7.0,3.0,1.0,5.0,5.0,908.340368012432,3.0,1.0,phase_2,go,800.0,850.0,1.0,,,,,,,,,gray,hexagon
0.0,1.0,1.0,0.0,5.0,5.0,813.1880940054543,3.0,1.0,phase_2,go,800.0,850.0,1.0,,,,,,,,,blue,flipped triangle
0.0,7.0,3.0,1.0,5.0,0.0,0.0,3.0,1.0,phase_2,stop,800.0,850.0,4.0,,,,,,,,,gray,hexagon
0.0,1.0,1.0,0.0,6.0,6.0,1297.7457700180819,3.0,1.0,phase_2,go,850.0,850.0,1.0,,,,,,,,,blue,flipped triangle
0.0,6.0,2.0,1.0,6.0,0.0,0.0,3.0,1.0,phase_2,stop,850.0,850.0,4.0,,,,,,,,,orange,diamond
0.0,2.0,2.0,0.0,5.0,5.0,1383.702223014552,3.0,1.0,phase_2,go,850.0,900.0,1.0,,,,,,,,,cyan,cross
0.0,3.0,3.0,0.0,5.0,0.0,0.0,3.0,1.0,phase_2,go,850.0,900.0,5.0,,,,,,,,,green,circle
0.0,4.0,4.0,0.0,5.0,5.0,777.9602800146677,3.0,1.0,phase_2,go,850.0,900.0,1.0,,,,,,,,,yellow,triangle
0.0,5.0,1.0,1.0,5.0,5.0,897.8878280031495,3.0,1.0,phase_2,stop,850.0,900.0,3.0,,,,,,,,,white,square
0.0,6.0,2.0,1.0,6.0,6.0,557.33230401529,3.0,1.0,phase_2,stop,800.0,900.0,3.0,,,,,,,,,orange,diamond
0.0,3.0,3.0,0.0,5.0,5.0,607.9010810062755,3.0,1.0,phase_2,go,800.0,850.0,1.0,,,,,,,,,green,circle
0.0,2.0,2.0,0.0,5.0,5.0,885.9130019845907,4.0,1.0,phase_2,go,800.0,850.0,1.0,,,,,,,,,cyan,cross
0.0,7.0,3.0,1.0,5.0,5.0,615.0193090143148,4.0,1.0,phase_2,stop,800.0,850.0,3.0,,,,,,,,,gray,hexagon
0.0,2.0,2.0,0.0,6.0,6.0,1020.7115939992946,4.0,1.0,phase_2,go,750.0,850.0,1.0,,,,,,,,,cyan,cross
0.0,5.0,1.0,1.0,6.0,6.0,967.790449009044,4.0,1.0,phase_2,stop,750.0,850.0,3.0,,,,,,,,,white,square
0.0,4.0,4.0,0.0,6.0,6.0,1198.1875970086548,4.0,1.0,phase_2,go,750.0,800.0,1.0,,,,,,,,,yellow,triangle
0.0,4.0,4.0,0.0,6.0,6.0,1461.823607009137,4.0,1.0,phase_2,go,750.0,800.0,1.0,,,,,,,,,yellow,triangle
0.0,3.0,3.0,0.0,5.0,5.0,1051.9983380218036,4.0,1.0,phase_2,go,750.0,800.0,1.0,,,,,,,,,green,circle
0.0,2.0,2.0,0.0,6.0,6.0,1093.3823270024732,4.0,1.0,phase_2,go,750.0,800.0,1.0,,,,,,,,,cyan,cross
0.0,8.0,4.0,1.0,6.0,6.0,949.094971991144,4.0,1.0,phase_2,stop,750.0,800.0,3.0,,,,,,,,,magenta,I
0.0,6.0,2.0,1.0,5.0,0.0,0.0,4.0,1.0,phase_2,stop,750.0,750.0,4.0,,,,,,,,,orange,diamond
0.0,5.0,1.0,1.0,6.0,6.0,1484.014799003489,4.0,1.0,phase_2,go,800.0,750.0,1.0,,,,,,,,,white,square
0.0,6.0,2.0,1.0,6.0,6.0,1241.4313739864156,4.0,1.0,phase_2,go,800.0,750.0,1.0,,,,,,,,,orange,diamond
0.0,6.0,2.0,1.0,6.0,6.0,823.9565110125113,4.0,1.0,phase_2,stop,800.0,750.0,3.0,,,,,,,,,orange,diamond
0.0,4.0,4.0,0.0,6.0,6.0,998.1437009992078,4.0,1.0,phase_2,go,800.0,700.0,1.0,,,,,,,,,yellow,triangle
0.0,3.0,3.0,0.0,6.0,6.0,958.4923640068156,4.0,1.0,phase_2,go,800.0,700.0,1.0,,,,,,,,,green,circle
0.0,3.0,3.0,0.0,5.0,5.0,1070.486376993358,4.0,1.0,phase_2,go,800.0,700.0,1.0,,,,,,,,,green,circle
0.0,7.0,3.0,1.0,5.0,0.0,0.0,4.0,1.0,phase_2,stop,800.0,700.0,4.0,,,,,,,,,gray,hexagon
0.0,2.0,2.0,0.0,5.0,5.0,1190.77412300976,4.0,1.0,phase_2,go,850.0,700.0,1.0,,,,,,,,,cyan,cross
0.0,3.0,3.0,0.0,6.0,6.0,964.038175996393,4.0,1.0,phase_2,go,850.0,700.0,1.0,,,,,,,,,green,circle
0.0,7.0,3.0,1.0,6.0,6.0,876.7536999948788,4.0,1.0,phase_2,stop,850.0,700.0,3.0,,,,,,,,,gray,hexagon
0.0,3.0,3.0,0.0,5.0,5.0,1257.9861980048008,4.0,1.0,phase_2,go,850.0,650.0,1.0,,,,,,,,,green,circle
0.0,7.0,3.0,1.0,6.0,0.0,0.0,4.0,1.0,phase_2,stop,850.0,650.0,4.0,,,,,,,,,gray,hexagon
0.0,4.0,4.0,0.0,6.0,6.0,1041.5934170014225,4.0,1.0,phase_2,go,850.0,700.0,1.0,,,,,,,,,yellow,triangle
0.0,7.0,3.0,1.0,6.0,0.0,0.0,4.0,1.0,phase_2,go,850.0,700.0,5.0,,,,,,,,,gray,hexagon
0.0,8.0,4.0,1.0,5.0,5.0,538.7098710052669,4.0,1.0,phase_2,stop,850.0,700.0,3.0,,,,,,,,,magenta,I
0.0,1.0,1.0,0.0,6.0,6.0,752.0366299722809,4.0,1.0,phase_2,go,800.0,700.0,1.0,,,,,,,,,blue,flipped triangle
0.0,5.0,1.0,1.0,5.0,5.0,472.9653899848927,4.0,1.0,phase_2,go,800.0,700.0,1.0,,,,,,,,,white,square
0.0,8.0,4.0,1.0,5.0,0.0,0.0,4.0,1.0,phase_2,stop,800.0,700.0,4.0,,,,,,,,,magenta,I
0.0,6.0,2.0,1.0,5.0,0.0,0.0,4.0,1.0,phase_2,stop,850.0,700.0,4.0,,,,,,,,,orange,diamond
0.0,1.0,1.0,0.0,5.0,5.0,950.3311119915452,4.0,1.0,phase_2,go,900.0,700.0,1.0,,,,,,,,,blue,flipped triangle
0.0,4.0,4.0,0.0,6.0,6.0,845.2674250002019,4.0,1.0,phase_2,go,900.0,700.0,1.0,,,,,,,,,yellow,triangle
0.0,3.0,3.0,0.0,6.0,6.0,533.1013870018069,4.0,1.0,phase_2,go,900.0,700.0,1.0,,,,,,,,,green,circle
0.0,5.0,1.0,1.0,6.0,6.0,798.5161429969594,4.0,1.0,phase_2,stop,900.0,700.0,3.0,,,,,,,,,white,square
0.0,3.0,3.0,0.0,5.0,5.0,789.923040982103,4.0,1.0,phase_2,go,900.0,650.0,1.0,,,,,,,,,green,circle
0.0,8.0,4.0,1.0,6.0,6.0,750.4798680020031,4.0,1.0,phase_2,stop,900.0,650.0,3.0,,,,,,,,,magenta,I
0.0,5.0,1.0,1.0,6.0,0.0,0.0,4.0,1.0,phase_2,stop,900.0,600.0,4.0,,,,,,,,,white,square
0.0,4.0,4.0,0.0,5.0,5.0,695.1843349961564,5.0,1.0,phase_2,go,900.0,650.0,1.0,,,,,,,,,yellow,triangle
0.0,7.0,3.0,1.0,5.0,5.0,661.5505500230938,5.0,1.0,phase_2,stop,900.0,650.0,3.0,,,,,,,,,gray,hexagon
0.0,1.0,1.0,0.0,6.0,6.0,698.4780380153097,5.0,1.0,phase_2,go,850.0,650.0,1.0,,,,,,,,,blue,flipped triangle
0.0,5.0,1.0,1.0,5.0,5.0,778.0831830168609,5.0,1.0,phase_2,stop,850.0,650.0,3.0,,,,,,,,,white,square
0.0,5.0,1.0,1.0,6.0,6.0,484.2669969948474,5.0,1.0,phase_2,go,800.0,650.0,1.0,,,,,,,,,white,square
0.0,1.0,1.0,0.0,5.0,5.0,832.6005380076822,5.0,1.0,phase_2,go,800.0,650.0,1.0,,,,,,,,,blue,flipped triangle
0.0,4.0,4.0,0.0,5.0,5.0,778.1007040175609,5.0,1.0,phase_2,go,800.0,650.0,1.0,,,,,,,,,yellow,triangle
0.0,2.0,2.0,0.0,6.0,6.0,857.508382992819,5.0,1.0,phase_2,go,800.0,650.0,1.0,,,,,,,,,cyan,cross
0.0,1.0,1.0,0.0,5.0,5.0,1007.7485810033977,5.0,1.0,phase_2,go,800.0,650.0,1.0,,,,,,,,,blue,flipped triangle
0.0,1.0,1.0,0.0,5.0,5.0,910.091277997708,5.0,1.0,phase_2,go,800.0,650.0,1.0,,,,,,,,,blue,flipped triangle
0.0,1.0,1.0,0.0,6.0,6.0,885.7807290041819,5.0,1.0,phase_2,go,800.0,650.0,1.0,,,,,,,,,blue,flipped triangle
0.0,8.0,4.0,1.0,6.0,0.0,0.0,5.0,1.0,phase_2,stop,800.0,650.0,4.0,,,,,,,,,magenta,I
0.0,2.0,2.0,0.0,5.0,5.0,830.4786389926448,5.0,1.0,phase_2,go,800.0,700.0,1.0,,,,,,,,,cyan,cross
0.0,6.0,2.0,1.0,6.0,6.0,740.0541759852786,5.0,1.0,phase_2,stop,800.0,700.0,3.0,,,,,,,,,orange,diamond
0.0,3.0,3.0,0.0,5.0,5.0,1031.7123900167644,5.0,1.0,phase_2,go,800.0,650.0,1.0,,,,,,,,,green,circle
0.0,7.0,3.0,1.0,5.0,5.0,1068.0693210160823,5.0,1.0,phase_2,go,800.0,650.0,1.0,,,,,,,,,gray,hexagon
0.0,7.0,3.0,1.0,5.0,0.0,0.0,5.0,1.0,phase_2,stop,800.0,650.0,4.0,,,,,,,,,gray,hexagon
0.0,4.0,4.0,0.0,5.0,5.0,1042.192382999929,5.0,1.0,phase_2,go,850.0,650.0,1.0,,,,,,,,,yellow,triangle
0.0,6.0,2.0,1.0,6.0,0.0,0.0,5.0,1.0,phase_2,stop,850.0,650.0,4.0,,,,,,,,,orange,diamond
0.0,2.0,2.0,0.0,6.0,6.0,1072.5479599786922,5.0,1.0,phase_2,go,850.0,700.0,1.0,,,,,,,,,cyan,cross
0.0,5.0,1.0,1.0,6.0,0.0,0.0,5.0,1.0,phase_2,stop,850.0,700.0,4.0,,,,,,,,,white,square
0.0,2.0,2.0,0.0,6.0,6.0,1066.8473760015331,5.0,1.0,phase_2,go,850.0,750.0,1.0,,,,,,,,,cyan,cross
0.0,4.0,4.0,0.0,5.0,5.0,1008.7148399907164,5.0,1.0,phase_2,go,850.0,750.0,1.0,,,,,,,,,yellow,triangle
0.0,1.0,1.0,0.0,6.0,6.0,1263.3498120121658,5.0,1.0,phase_2,go,850.0,750.0,1.0,,,,,,,,,blue,flipped triangle
0.0,6.0,2.0,1.0,6.0,0.0,0.0,5.0,1.0,phase_2,stop,850.0,750.0,4.0,,,,,,,,,orange,diamond
0.0,2.0,2.0,0.0,5.0,5.0,895.6247720052488,5.0,1.0,phase_2,go,850.0,800.0,1.0,,,,,,,,,cyan,cross
0.0,5.0,1.0,1.0,5.0,5.0,1006.0861149977427,5.0,1.0,phase_2,stop,850.0,800.0,3.0,,,,,,,,,white,square
0.0,2.0,2.0,0.0,5.0,5.0,1092.5524910271631,5.0,1.0,phase_2,go,800.0,800.0,1.0,,,,,,,,,cyan,cross
0.0,8.0,4.0,1.0,5.0,5.0,1047.610572015401,5.0,1.0,phase_2,go,800.0,800.0,1.0,,,,,,,,,magenta,I
0.0,5.0,1.0,1.0,6.0,0.0,0.0,5.0,1.0,phase_2,stop,800.0,800.0,4.0,,,,,,,,,white,square
0.0,6.0,2.0,1.0,5.0,0.0,0.0,5.0,1.0,phase_2,stop,800.0,850.0,4.0,,,,,,,,,orange,diamond
0.0,8.0,4.0,1.0,6.0,6.0,947.349625028437,5.0,1.0,phase_2,go,850.0,850.0,1.0,,,,,,,,,magenta,I
0.0,5.0,1.0,1.0,6.0,0.0,0.0,5.0,1.0,phase_2,stop,850.0,850.0,4.0,,,,,,,,,white,square
0.0,4.0,4.0,0.0,6.0,6.0,707.3000500095077,5.0,1.0,phase_2,go,850.0,900.0,1.0,,,,,,,,,yellow,triangle
0.0,2.0,2.0,0.0,5.0,5.0,664.5652209990658,5.0,1.0,phase_2,go,850.0,900.0,1.0,,,,,,,,,cyan,cross
0.0,1.0,1.0,0.0,5.0,5.0,706.0475129983388,5.0,1.0,phase_2,go,850.0,900.0,1.0,,,,,,,,,blue,flipped triangle
0.0,6.0,2.0,1.0,5.0,5.0,739.6283140114974,6.0,1.0,phase_2,stop,850.0,900.0,3.0,,,,,,,,,orange,diamond
0.0,8.0,4.0,1.0,5.0,5.0,855.5783160263672,6.0,1.0,phase_2,go,800.0,900.0,1.0,,,,,,,,,magenta,I
0.0,7.0,3.0,1.0,5.0,5.0,882.0575509744231,6.0,1.0,phase_2,stop,800.0,900.0,3.0,,,,,,,,,gray,hexagon
0.0,8.0,4.0,1.0,6.0,0.0,0.0,6.0,1.0,phase_2,stop,750.0,900.0,4.0,,,,,,,,,magenta,I
0.0,2.0,2.0,0.0,5.0,6.0,1448.0344069888815,6.0,1.0,phase_2,go,750.0,950.0,2.0,,,,,,,,,cyan,cross
0.0,8.0,4.0,1.0,6.0,0.0,0.0,6.0,1.0,phase_2,stop,750.0,950.0,4.0,,,,,,,,,magenta,I
0.0,4.0,4.0,0.0,6.0,6.0,509.0577689989004,6.0,1.0,phase_2,go,750.0,1000.0,1.0,,,,,,,,,yellow,triangle
0.0,8.0,4.0,1.0,6.0,6.0,663.4354850102682,6.0,1.0,phase_2,stop,750.0,1000.0,3.0,,,,,,,,,magenta,I
0.0,2.0,2.0,0.0,6.0,6.0,819.8970710218418,6.0,1.0,phase_2,go,750.0,950.0,1.0,,,,,,,,,cyan,cross
0.0,1.0,1.0,0.0,6.0,6.0,971.2395060050768,6.0,1.0,phase_2,go,750.0,950.0,1.0,,,,,,,,,blue,flipped triangle
0.0,6.0,2.0,1.0,6.0,6.0,1060.4989650018981,6.0,1.0,phase_2,stop,750.0,950.0,3.0,,,,,,,,,orange,diamond
0.0,3.0,3.0,0.0,6.0,6.0,755.1458480011206,6.0,1.0,phase_2,go,750.0,900.0,1.0,,,,,,,,,green,circle
0.0,8.0,4.0,1.0,5.0,5.0,897.9222429916263,6.0,1.0,phase_2,go,750.0,900.0,1.0,,,,,,,,,magenta,I
0.0,6.0,2.0,1.0,6.0,6.0,859.7042589972261,6.0,1.0,phase_2,stop,750.0,900.0,3.0,,,,,,,,,orange,diamond
0.0,3.0,3.0,0.0,5.0,5.0,776.7587150156032,6.0,1.0,phase_2,go,750.0,850.0,1.0,,,,,,,,,green,circle
0.0,4.0,4.0,0.0,5.0,5.0,1123.0590949999169,6.0,1.0,phase_2,go,750.0,850.0,1.0,,,,,,,,,yellow,triangle
0.0,1.0,1.0,0.0,6.0,6.0,918.6170499888248,6.0,1.0,phase_2,go,750.0,850.0,1.0,,,,,,,,,blue,flipped triangle
0.0,5.0,1.0,1.0,5.0,5.0,606.0088770173024,6.0,1.0,phase_2,stop,750.0,850.0,3.0,,,,,,,,,white,square
0.0,6.0,2.0,1.0,6.0,6.0,813.1450039800256,6.0,1.0,phase_2,go,700.0,850.0,1.0,,,,,,,,,orange,diamond
0.0,2.0,2.0,0.0,5.0,5.0,975.4930489871184,6.0,1.0,phase_2,go,700.0,850.0,1.0,,,,,,,,,cyan,cross
0.0,1.0,1.0,0.0,5.0,5.0,948.8363759883214,6.0,1.0,phase_2,go,700.0,850.0,1.0,,,,,,,,,blue,flipped triangle
0.0,3.0,3.0,0.0,6.0,6.0,1095.2496399986558,6.0,1.0,phase_2,go,700.0,850.0,1.0,,,,,,,,,green,circle
0.0,1.0,1.0,0.0,5.0,5.0,1004.8843580007087,6.0,1.0,phase_2,go,700.0,850.0,1.0,,,,,,,,,blue,flipped triangle
0.0,5.0,1.0,1.0,5.0,0.0,0.0,6.0,1.0,phase_2,stop,700.0,850.0,4.0,,,,,,,,,white,square
0.0,5.0,1.0,1.0,5.0,5.0,833.870675007347,6.0,1.0,phase_2,stop,750.0,850.0,3.0,,,,,,,,,white,square
0.0,7.0,3.0,1.0,6.0,6.0,843.3670219965279,6.0,1.0,phase_2,stop,700.0,850.0,3.0,,,,,,,,,gray,hexagon
0.0,4.0,4.0,0.0,6.0,6.0,993.049818003783,6.0,1.0,phase_2,go,700.0,800.0,1.0,,,,,,,,,yellow,triangle
0.0,8.0,4.0,1.0,6.0,6.0,875.4132330068387,6.0,1.0,phase_2,stop,700.0,800.0,3.0,,,,,,,,,magenta,I
0.0,3.0,3.0,0.0,5.0,5.0,971.1806630075444,6.0,1.0,phase_2,go,700.0,750.0,1.0,,,,,,,,,green,circle
0.0,8.0,4.0,1.0,5.0,0.0,0.0,6.0,1.0,phase_2,stop,700.0,750.0,4.0,,,,,,,,,magenta,I
0.0,4.0,4.0,0.0,6.0,6.0,846.9982309907209,6.0,1.0,phase_2,go,750.0,750.0,1.0,,,,,,,,,yellow,triangle
0.0,6.0,2.0,1.0,6.0,6.0,905.3401820128784,6.0,1.0,phase_2,stop,750.0,750.0,3.0,,,,,,,,,orange,diamond
0.0,4.0,4.0,0.0,5.0,5.0,1160.0564940017648,6.0,1.0,phase_2,go,750.0,700.0,1.0,,,,,,,,,yellow,triangle
0.0,8.0,4.0,1.0,6.0,6.0,1089.0347259992268,6.0,1.0,phase_2,go,750.0,700.0,1.0,,,,,,,,,magenta,I
0.0,2.0,2.0,0.0,6.0,6.0,1007.9123029718176,6.0,1.0,phase_2,go,750.0,700.0,1.0,,,,,,,,,cyan,cross
0.0,4.0,4.0,0.0,5.0,5.0,886.4717389806174,6.0,1.0,phase_2,go,750.0,700.0,1.0,,,,,,,,,yellow,triangle
0.0,7.0,3.0,1.0,5.0,5.0,769.164516008459,7.0,1.0,phase_2,stop,750.0,700.0,3.0,,,,,,,,,gray,hexagon
0.0,3.0,3.0,0.0,6.0,6.0,661.4720379875507,7.0,1.0,phase_2,go,700.0,700.0,1.0,,,,,,,,,green,circle
0.0,7.0,3.0,1.0,6.0,6.0,889.4283169938717,7.0,1.0,phase_2,go,700.0,700.0,1.0,,,,,,,,,gray,hexagon
0.0,4.0,4.0,0.0,5.0,5.0,1108.428412000649,7.0,1.0,phase_2,go,700.0,700.0,1.0,,,,,,,,,yellow,triangle
0.0,3.0,3.0,0.0,5.0,5.0,1091.4564999984575,7.0,1.0,phase_2,go,700.0,700.0,1.0,,,,,,,,,green,circle
0.0,1.0,1.0,0.0,6.0,6.0,994.2260200041346,7.0,1.0,phase_2,go,700.0,700.0,1.0,,,,,,,,,blue,flipped triangle
0.0,2.0,2.0,0.0,5.0,5.0,618.8271879800595,7.0,1.0,phase_2,go,700.0,700.0,1.0,,,,,,,,,cyan,cross
0.0,1.0,1.0,0.0,5.0,5.0,799.0392659849022,7.0,1.0,phase_2,go,700.0,700.0,1.0,,,,,,,,,blue,flipped triangle
0.0,8.0,4.0,1.0,6.0,0.0,0.0,7.0,1.0,phase_2,stop,700.0,700.0,4.0,,,,,,,,,magenta,I
0.0,6.0,2.0,1.0,5.0,5.0,912.0402629778256,7.0,1.0,phase_2,go,700.0,750.0,1.0,,,,,,,,,orange,diamond
0.0,8.0,4.0,1.0,5.0,0.0,0.0,7.0,1.0,phase_2,stop,700.0,750.0,4.0,,,,,,,,,magenta,I
0.0,4.0,4.0,0.0,5.0,5.0,958.5941859986632,7.0,1.0,phase_2,go,750.0,750.0,1.0,,,,,,,,,yellow,triangle
0.0,4.0,4.0,0.0,6.0,6.0,863.8312840193976,7.0,1.0,phase_2,go,750.0,750.0,1.0,,,,,,,,,yellow,triangle
0.0,8.0,4.0,1.0,5.0,5.0,768.458457023371,7.0,1.0,phase_2,stop,750.0,750.0,3.0,,,,,,,,,magenta,I
0.0,1.0,1.0,0.0,6.0,6.0,483.9274209807627,7.0,1.0,phase_2,go,700.0,750.0,1.0,,,,,,,,,blue,flipped triangle
0.0,8.0,4.0,1.0,5.0,5.0,850.3829890105408,7.0,1.0,phase_2,stop,700.0,750.0,3.0,,,,,,,,,magenta,I
0.0,4.0,4.0,0.0,6.0,6.0,852.6094370172359,7.0,1.0,phase_2,go,650.0,750.0,1.0,,,,,,,,,yellow,triangle
0.0,1.0,1.0,0.0,5.0,5.0,953.9488129958044,7.0,1.0,phase_2,go,650.0,750.0,1.0,,,,,,,,,blue,flipped triangle
0.0,2.0,2.0,0.0,6.0,6.0,816.9705840118695,7.0,1.0,phase_2,go,650.0,750.0,1.0,,,,,,,,,cyan,cross
0.0,2.0,2.0,0.0,5.0,5.0,644.5804730174132,7.0,1.0,phase_2,go,650.0,750.0,1.0,,,,,,,,,cyan,cross
0.0,1.0,1.0,0.0,6.0,6.0,1001.4146270113995,7.0,1.0,phase_2,go,650.0,750.0,1.0,,,,,,,,,blue,flipped triangle
0.0,2.0,2.0,0.0,5.0,5.0,363.0976249987725,7.0,1.0,phase_2,go,650.0,750.0,1.0,,,,,,,,,cyan,cross
0.0,5.0,1.0,1.0,6.0,0.0,0.0,7.0,1.0,phase_2,stop,650.0,750.0,4.0,,,,,,,,,white,square
0.0,3.0,3.0,0.0,6.0,6.0,710.605280008167,7.0,1.0,phase_2,go,650.0,800.0,1.0,,,,,,,,,green,circle
0.0,5.0,1.0,1.0,6.0,0.0,0.0,7.0,1.0,phase_2,stop,650.0,800.0,4.0,,,,,,,,,white,square
0.0,3.0,3.0,0.0,6.0,6.0,863.0156069993973,7.0,1.0,phase_2,go,650.0,850.0,1.0,,,,,,,,,green,circle
0.0,3.0,3.0,0.0,5.0,5.0,1016.5499470022039,7.0,1.0,phase_2,go,650.0,850.0,1.0,,,,,,,,,green,circle
0.0,4.0,4.0,0.0,5.0,5.0,1236.9988360151185,7.0,1.0,phase_2,go,650.0,850.0,1.0,,,,,,,,,yellow,triangle
0.0,6.0,2.0,1.0,5.0,0.0,0.0,7.0,1.0,phase_2,stop,650.0,850.0,4.0,,,,,,,,,orange,diamond
0.0,6.0,2.0,1.0,6.0,6.0,950.2381309866904,7.0,1.0,phase_2,stop,700.0,850.0,3.0,,,,,,,,,orange,diamond
0.0,1.0,1.0,0.0,6.0,6.0,1069.988294999348,7.0,1.0,phase_2,go,700.0,800.0,1.0,,,,,,,,,blue,flipped triangle
0.0,8.0,4.0,1.0,5.0,5.0,1148.34908299963,7.0,1.0,phase_2,go,700.0,800.0,1.0,,,,,,,,,magenta,I
0.0,8.0,4.0,1.0,5.0,0.0,0.0,7.0,1.0,phase_2,stop,700.0,800.0,4.0,,,,,,,,,magenta,I
0.0,7.0,3.0,1.0,6.0,6.0,825.3164959896822,7.0,1.0,phase_2,go,750.0,800.0,1.0,,,,,,,,,gray,hexagon
0.0,2.0,2.0,0.0,6.0,6.0,1051.25621901243,7.0,1.0,phase_2,go,750.0,800.0,1.0,,,,,,,,,cyan,cross
0.0,2.0,2.0,0.0,6.0,6.0,943.6956050049048,7.0,1.0,phase_2,go,750.0,800.0,1.0,,,,,,,,,cyan,cross
0.0,5.0,1.0,1.0,5.0,5.0,885.7873319939245,8.0,1.0,phase_2,stop,750.0,800.0,3.0,,,,,,,,,white,square
0.0,8.0,4.0,1.0,6.0,6.0,595.9816230169963,8.0,1.0,phase_2,stop,700.0,800.0,3.0,,,,,,,,,magenta,I
0.0,2.0,2.0,0.0,5.0,5.0,636.0370310139842,8.0,1.0,phase_2,go,700.0,750.0,1.0,,,,,,,,,cyan,cross
0.0,8.0,4.0,1.0,6.0,0.0,0.0,8.0,1.0,phase_2,stop,700.0,750.0,4.0,,,,,,,,,magenta,I
0.0,6.0,2.0,1.0,5.0,5.0,953.6239189910702,8.0,1.0,phase_2,go,700.0,800.0,1.0,,,,,,,,,orange,diamond
0.0,7.0,3.0,1.0,6.0,0.0,0.0,8.0,1.0,phase_2,stop,700.0,800.0,4.0,,,,,,,,,gray,hexagon
0.0,1.0,1.0,0.0,5.0,5.0,1006.6526209993754,8.0,1.0,phase_2,go,700.0,850.0,1.0,,,,,,,,,blue,flipped triangle
0.0,7.0,3.0,1.0,5.0,0.0,0.0,8.0,1.0,phase_2,stop,700.0,850.0,4.0,,,,,,,,,gray,hexagon
0.0,8.0,4.0,1.0,5.0,0.0,0.0,8.0,1.0,phase_2,stop,750.0,850.0,4.0,,,,,,,,,magenta,I
0.0,3.0,3.0,0.0,5.0,5.0,951.2480539851822,8.0,1.0,phase_2,go,800.0,850.0,1.0,,,,,,,,,green,circle
0.0,6.0,2.0,1.0,6.0,0.0,0.0,8.0,1.0,phase_2,stop,800.0,850.0,4.0,,,,,,,,,orange,diamond
0.0,2.0,2.0,0.0,6.0,6.0,1117.1226229926106,8.0,1.0,phase_2,go,800.0,900.0,1.0,,,,,,,,,cyan,cross
0.0,2.0,2.0,0.0,5.0,5.0,982.3034549772274,8.0,1.0,phase_2,go,800.0,900.0,1.0,,,,,,,,,cyan,cross
0.0,5.0,1.0,1.0,5.0,0.0,0.0,8.0,1.0,phase_2,stop,800.0,900.0,4.0,,,,,,,,,white,square
0.0,5.0,1.0,1.0,6.0,6.0,1038.1996239884757,8.0,1.0,phase_2,stop,850.0,900.0,3.0,,,,,,,,,white,square
0.0,4.0,4.0,0.0,5.0,5.0,1057.5811830058228,8.0,1.0,phase_2,go,850.0,850.0,1.0,,,,,,,,,yellow,triangle
0.0,2.0,2.0,0.0,6.0,6.0,1217.2473229875322,8.0,1.0,phase_2,go,850.0,850.0,1.0,,,,,,,,,cyan,cross
0.0,8.0,4.0,1.0,5.0,0.0,0.0,8.0,1.0,phase_2,stop,850.0,850.0,4.0,,,,,,,,,magenta,I
0.0,8.0,4.0,1.0,6.0,6.0,904.1137320164124,8.0,1.0,phase_2,go,900.0,850.0,1.0,,,,,,,,,magenta,I
0.0,3.0,3.0,0.0,6.0,6.0,1063.7377290113363,8.0,1.0,phase_2,go,900.0,850.0,1.0,,,,,,,,,green,circle
0.0,3.0,3.0,0.0,6.0,6.0,1050.957642000867,8.0,1.0,phase_2,go,900.0,850.0,1.0,,,,,,,,,green,circle
0.0,7.0,3.0,1.0,6.0,6.0,1382.5875710172113,8.0,1.0,phase_2,go,900.0,850.0,1.0,,,,,,,,,gray,hexagon
0.0,1.0,1.0,0.0,5.0,5.0,960.9687159827444,8.0,1.0,phase_2,go,900.0,850.0,1.0,,,,,,,,,blue,flipped triangle
0.0,5.0,1.0,1.0,5.0,5.0,1056.2257019919343,8.0,1.0,phase_2,stop,900.0,850.0,3.0,,,,,,,,,white,square
0.0,5.0,1.0,1.0,6.0,6.0,892.3679220024496,8.0,1.0,phase_2,stop,850.0,850.0,3.0,,,,,,,,,white,square
0.0,7.0,3.0,1.0,6.0,0.0,0.0,8.0,1.0,phase_2,stop,850.0,800.0,4.0,,,,,,,,,gray,hexagon
0.0,3.0,3.0,0.0,6.0,6.0,870.5294409883209,8.0,1.0,phase_2,go,850.0,850.0,1.0,,,,,,,,,green,circle
0.0,2.0,2.0,0.0,6.0,6.0,1219.4048069941346,8.0,1.0,phase_2,go,850.0,850.0,1.0,,,,,,,,,cyan,cross
0.0,4.0,4.0,0.0,5.0,5.0,963.2685239776038,8.0,1.0,phase_2,go,850.0,850.0,1.0,,,,,,,,,yellow,triangle
0.0,1.0,1.0,0.0,6.0,6.0,858.2743410079274,8.0,1.0,phase_2,go,850.0,850.0,1.0,,,,,,,,,blue,flipped triangle
0.0,7.0,3.0,1.0,5.0,5.0,837.5187689962331,8.0,1.0,phase_2,stop,850.0,850.0,3.0,,,,,,,,,gray,hexagon
0.0,8.0,4.0,1.0,5.0,0.0,0.0,8.0,1.0,phase_2,stop,800.0,850.0,4.0,,,,,,,,,magenta,I
0.0,1.0,1.0,0.0,6.0,6.0,994.1296570177656,8.0,1.0,phase_2,go,850.0,850.0,1.0,,,,,,,,,blue,flipped triangle
0.0,2.0,2.0,0.0,5.0,5.0,970.4113439947832,8.0,1.0,phase_2,go,850.0,850.0,1.0,,,,,,,,,cyan,cross
0.0,4.0,4.0,0.0,6.0,6.0,946.2125510035548,8.0,1.0,phase_2,go,850.0,850.0,1.0,,,,,,,,,yellow,triangle
0.0,4.0,4.0,0.0,6.0,6.0,1240.548621979542,8.0,1.0,phase_2,go,850.0,850.0,1.0,,,,,,,,,yellow,triangle
0.0,1.0,1.0,0.0,7.0,4.0,5.28812900302,1.0,1.0,phase_3,,,,,108.0,2.0,324.0,162.0,216.0,108.0,270.0,54.0,blue,flipped triangle
0.0,8.0,4.0,1.0,7.0,3.0,1879.0597770130264,1.0,1.0,phase_3,,,,,156.0,4.0,234.0,117.0,156.0,195.0,78.0,39.0,magenta,I
0.0,1.0,1.0,0.0,7.0,3.0,2670.58537498815,1.0,1.0,phase_3,,,,,245.0,5.0,294.0,98.0,245.0,196.0,49.0,147.0,blue,flipped triangle
0.0,3.0,3.0,0.0,7.0,2.0,1847.0193409884812,1.0,1.0,phase_3,,,,,98.0,2.0,245.0,98.0,196.0,147.0,49.0,294.0,green,circle
0.0,6.0,2.0,1.0,7.0,2.0,2375.689324981068,1.0,1.0,phase_3,,,,,220.0,5.0,132.0,220.0,264.0,88.0,44.0,176.0,orange,diamond
0.0,8.0,4.0,1.0,7.0,6.0,2548.3934590010904,1.0,1.0,phase_3,,,,,245.0,5.0,49.0,196.0,147.0,294.0,98.0,245.0,magenta,I
0.0,5.0,1.0,1.0,7.0,4.0,1686.0868349904194,1.0,1.0,phase_3,,,,,147.0,3.0,294.0,98.0,245.0,147.0,49.0,196.0,white,square
0.0,1.0,1.0,0.0,7.0,2.0,1326.250017009443,1.0,1.0,phase_3,,,,,176.0,4.0,132.0,176.0,44.0,264.0,220.0,88.0,blue,flipped triangle
0.0,3.0,3.0,0.0,7.0,3.0,941.518152016215,1.0,1.0,phase_3,,,,,108.0,2.0,54.0,162.0,108.0,270.0,216.0,324.0,green,circle
0.0,2.0,2.0,0.0,7.0,5.0,2567.479009012459,1.0,1.0,phase_3,,,,,102.0,3.0,34.0,68.0,170.0,136.0,102.0,204.0,cyan,cross
0.0,8.0,4.0,1.0,7.0,3.0,1504.509758000495,1.0,1.0,phase_3,,,,,270.0,5.0,216.0,324.0,270.0,108.0,162.0,54.0,magenta,I
0.0,5.0,1.0,1.0,7.0,4.0,852.789582015248,1.0,1.0,phase_3,,,,,162.0,3.0,324.0,54.0,108.0,162.0,216.0,270.0,white,square
0.0,1.0,1.0,0.0,7.0,5.0,2050.646552001126,1.0,1.0,phase_3,,,,,44.0,1.0,88.0,132.0,264.0,176.0,44.0,220.0,blue,flipped triangle
0.0,8.0,4.0,1.0,7.0,4.0,1415.7704950193877,1.0,1.0,phase_3,,,,,196.0,4.0,49.0,294.0,245.0,196.0,147.0,98.0,magenta,I
0.0,2.0,2.0,0.0,7.0,2.0,2111.737394006923,1.0,1.0,phase_3,,,,,234.0,6.0,195.0,234.0,117.0,78.0,156.0,39.0,cyan,cross
0.0,7.0,3.0,1.0,7.0,3.0,1782.981000986183,1.0,1.0,phase_3,,,,,245.0,5.0,49.0,196.0,245.0,294.0,147.0,98.0,gray,hexagon
0.0,3.0,3.0,0.0,7.0,5.0,2380.119374982314,1.0,1.0,phase_3,,,,,245.0,5.0,147.0,294.0,49.0,196.0,245.0,98.0,green,circle
0.0,1.0,1.0,0.0,7.0,4.0,1098.4763519954868,1.0,1.0,phase_3,,,,,136.0,4.0,34.0,170.0,68.0,136.0,102.0,204.0,blue,flipped triangle
0.0,7.0,3.0,1.0,7.0,4.0,2035.3020299808122,1.0,1.0,phase_3,,,,,264.0,6.0,220.0,176.0,132.0,264.0,44.0,88.0,gray,hexagon
0.0,1.0,1.0,0.0,7.0,5.0,1854.5160189969463,1.0,1.0,phase_3,,,,,78.0,2.0,234.0,156.0,195.0,117.0,78.0,39.0,blue,flipped triangle
0.0,5.0,1.0,1.0,7.0,2.0,1416.400910995435,2.0,1.0,phase_3,,,,,176.0,4.0,264.0,176.0,132.0,44.0,88.0,220.0,white,square
0.0,4.0,4.0,0.0,7.0,6.0,2150.320025015389,2.0,1.0,phase_3,,,,,88.0,2.0,132.0,220.0,176.0,44.0,264.0,88.0,yellow,triangle
0.0,7.0,3.0,1.0,7.0,3.0,1880.031712003984,2.0,1.0,phase_3,,,,,324.0,6.0,162.0,108.0,324.0,270.0,216.0,54.0,gray,hexagon
0.0,4.0,4.0,0.0,7.0,3.0,2249.541950994171,2.0,1.0,phase_3,,,,,117.0,3.0,156.0,39.0,117.0,234.0,78.0,195.0,yellow,triangle
0.0,4.0,4.0,0.0,7.0,5.0,1220.3783210134134,2.0,1.0,phase_3,,,,,117.0,3.0,195.0,234.0,78.0,39.0,117.0,156.0,yellow,triangle
0.0,4.0,4.0,0.0,7.0,1.0,2103.694287012331,2.0,1.0,phase_3,,,,,136.0,4.0,136.0,68.0,102.0,34.0,170.0,204.0,yellow,triangle
0.0,6.0,2.0,1.0,7.0,4.0,2231.155718996888,2.0,1.0,phase_3,,,,,117.0,3.0,234.0,39.0,78.0,117.0,195.0,156.0,orange,diamond
0.0,6.0,2.0,1.0,7.0,3.0,2454.158731998177,2.0,1.0,phase_3,,,,,162.0,3.0,324.0,108.0,162.0,270.0,216.0,54.0,orange,diamond
0.0,4.0,4.0,0.0,7.0,3.0,2728.230397013249,2.0,1.0,phase_3,,,,,132.0,3.0,264.0,220.0,132.0,44.0,176.0,88.0,yellow,triangle
0.0,7.0,3.0,1.0,7.0,4.0,1644.6534460119435,2.0,1.0,phase_3,,,,,264.0,6.0,176.0,88.0,44.0,264.0,132.0,220.0,gray,hexagon
0.0,4.0,4.0,0.0,7.0,1.0,1405.8640080038458,2.0,1.0,phase_3,,,,,147.0,3.0,147.0,196.0,294.0,98.0,49.0,245.0,yellow,triangle
0.0,7.0,3.0,1.0,7.0,3.0,1237.7578519808594,2.0,1.0,phase_3,,,,,270.0,5.0,54.0,216.0,270.0,108.0,162.0,324.0,gray,hexagon
0.0,1.0,1.0,0.0,7.0,6.0,1742.0690520084463,2.0,1.0,phase_3,,,,,147.0,3.0,49.0,196.0,98.0,245.0,294.0,147.0,blue,flipped triangle
0.0,8.0,4.0,1.0,7.0,5.0,1273.3902680047322,2.0,1.0,phase_3,,,,,220.0,5.0,132.0,176.0,264.0,44.0,220.0,88.0,magenta,I
0.0,5.0,1.0,1.0,7.0,6.0,2784.592896990944,2.0,1.0,phase_3,,,,,156.0,4.0,195.0,78.0,117.0,234.0,39.0,156.0,white,square
0.0,5.0,1.0,1.0,7.0,6.0,1705.5601800093427,2.0,1.0,phase_3,,,,,162.0,3.0,270.0,324.0,108.0,216.0,54.0,162.0,white,square
0.0,5.0,1.0,1.0,7.0,4.0,1567.0092329964973,2.0,1.0,phase_3,,,,,156.0,4.0,78.0,195.0,39.0,156.0,234.0,117.0,white,square
0.0,1.0,1.0,0.0,7.0,2.0,2268.001913995249,2.0,1.0,phase_3,,,,,136.0,4.0,204.0,136.0,68.0,34.0,102.0,170.0,blue,flipped triangle
0.0,8.0,4.0,1.0,7.0,6.0,2208.7213970080484,2.0,1.0,phase_3,,,,,204.0,6.0,102.0,136.0,170.0,34.0,68.0,204.0,magenta,I
0.0,5.0,1.0,1.0,7.0,4.0,1696.4889230148399,2.0,1.0,phase_3,,,,,136.0,4.0,204.0,34.0,170.0,136.0,68.0,102.0,white,square
0.0,2.0,2.0,0.0,7.0,3.0,1426.3386449893003,3.0,1.0,phase_3,,,,,264.0,6.0,132.0,88.0,264.0,176.0,44.0,220.0,cyan,cross
0.0,8.0,4.0,1.0,7.0,1.0,3074.5020709873643,3.0,1.0,phase_3,,,,,216.0,4.0,216.0,54.0,108.0,324.0,162.0,270.0,magenta,I
0.0,2.0,2.0,0.0,7.0,6.0,1598.2609339989722,3.0,1.0,phase_3,,,,,216.0,4.0,270.0,162.0,54.0,324.0,108.0,216.0,cyan,cross
0.0,5.0,1.0,1.0,7.0,3.0,1479.0271380043123,3.0,1.0,phase_3,,,,,176.0,4.0,132.0,264.0,176.0,44.0,88.0,220.0,white,square
0.0,3.0,3.0,0.0,7.0,2.0,1743.042569985846,3.0,1.0,phase_3,,,,,102.0,3.0,170.0,102.0,136.0,34.0,204.0,68.0,green,circle
0.0,1.0,1.0,0.0,7.0,5.0,2489.869491982972,3.0,1.0,phase_3,,,,,216.0,4.0,108.0,324.0,162.0,54.0,216.0,270.0,blue,flipped triangle
0.0,5.0,1.0,1.0,7.0,1.0,1875.8183589961843,3.0,1.0,phase_3,,,,,147.0,3.0,147.0,294.0,98.0,245.0,49.0,196.0,white,square
0.0,2.0,2.0,0.0,7.0,3.0,1819.53023999813,3.0,1.0,phase_3,,,,,204.0,6.0,34.0,102.0,204.0,170.0,136.0,68.0,cyan,cross
0.0,6.0,2.0,1.0,7.0,6.0,2243.611382000381,3.0,1.0,phase_3,,,,,136.0,4.0,170.0,102.0,68.0,34.0,204.0,136.0,orange,diamond
0.0,4.0,4.0,0.0,7.0,2.0,2005.0107660063081,3.0,1.0,phase_3,,,,,162.0,3.0,54.0,162.0,108.0,216.0,324.0,270.0,yellow,triangle
0.0,2.0,2.0,0.0,7.0,5.0,1857.8902699809987,3.0,1.0,phase_3,,,,,264.0,6.0,132.0,220.0,88.0,44.0,264.0,176.0,cyan,cross
0.0,2.0,2.0,0.0,7.0,4.0,2671.589926001616,3.0,1.0,phase_3,,,,,270.0,5.0,108.0,54.0,324.0,270.0,216.0,162.0,cyan,cross
0.0,3.0,3.0,0.0,7.0,3.0,2483.9161209820304,3.0,1.0,phase_3,,,,,117.0,3.0,234.0,156.0,117.0,195.0,39.0,78.0,green,circle
0.0,8.0,4.0,1.0,7.0,3.0,1881.7225490056444,3.0,1.0,phase_3,,,,,264.0,6.0,132.0,88.0,264.0,44.0,220.0,176.0,magenta,I
0.0,3.0,3.0,0.0,7.0,5.0,1795.696116023464,3.0,1.0,phase_3,,,,,132.0,3.0,264.0,88.0,220.0,44.0,132.0,176.0,green,circle
0.0,6.0,2.0,1.0,7.0,3.0,1318.220788001781,3.0,1.0,phase_3,,,,,196.0,4.0,294.0,245.0,196.0,98.0,49.0,147.0,orange,diamond
0.0,2.0,2.0,0.0,7.0,1.0,3009.510568983387,3.0,1.0,phase_3,,,,,245.0,5.0,245.0,49.0,294.0,98.0,147.0,196.0,cyan,cross
0.0,7.0,3.0,1.0,7.0,3.0,3081.1538560083136,3.0,1.0,phase_3,,,,,195.0,5.0,117.0,234.0,195.0,39.0,78.0,156.0,gray,hexagon
0.0,8.0,4.0,1.0,7.0,6.0,2993.7832040013745,3.0,1.0,phase_3,,,,,234.0,6.0,78.0,195.0,39.0,117.0,156.0,234.0,magenta,I
0.0,6.0,2.0,1.0,7.0,1.0,1165.5472879938316,3.0,1.0,phase_3,,,,,170.0,5.0,170.0,34.0,68.0,102.0,136.0,204.0,orange,diamond
0.0,7.0,3.0,1.0,7.0,4.0,1582.0788249839095,4.0,1.0,phase_3,,,,,204.0,6.0,68.0,170.0,102.0,204.0,136.0,34.0,gray,hexagon
0.0,7.0,3.0,1.0,7.0,3.0,2434.16383099975,4.0,1.0,phase_3,,,,,294.0,6.0,245.0,147.0,294.0,196.0,49.0,98.0,gray,hexagon
0.0,3.0,3.0,0.0,7.0,6.0,2753.5779000027105,4.0,1.0,phase_3,,,,,156.0,4.0,39.0,78.0,234.0,117.0,195.0,156.0,green,circle
0.0,6.0,2.0,1.0,7.0,5.0,900.349058007123,4.0,1.0,phase_3,,,,,176.0,4.0,44.0,220.0,132.0,264.0,176.0,88.0,orange,diamond
0.0,6.0,2.0,1.0,7.0,6.0,2068.243354995502,4.0,1.0,phase_3,,,,,195.0,5.0,117.0,156.0,78.0,39.0,234.0,195.0,orange,diamond
0.0,3.0,3.0,0.0,7.0,4.0,2670.8415919856634,4.0,1.0,phase_3,,,,,176.0,4.0,264.0,88.0,220.0,176.0,132.0,44.0,green,circle
0.0,8.0,4.0,1.0,7.0,5.0,2967.220020975219,4.0,1.0,phase_3,,,,,170.0,5.0,136.0,204.0,68.0,34.0,170.0,102.0,magenta,I
0.0,5.0,1.0,1.0,7.0,1.0,3282.583058986347,4.0,1.0,phase_3,,,,,34.0,1.0,34.0,68.0,136.0,204.0,102.0,170.0,white,square
0.0,3.0,3.0,0.0,7.0,3.0,2571.437179984059,4.0,1.0,phase_3,,,,,102.0,3.0,68.0,170.0,102.0,34.0,136.0,204.0,green,circle
0.0,4.0,4.0,0.0,7.0,6.0,1517.6012250012718,4.0,1.0,phase_3,,,,,170.0,5.0,34.0,204.0,136.0,102.0,68.0,170.0,yellow,triangle
0.0,2.0,2.0,0.0,7.0,6.0,1526.4742510044016,4.0,1.0,phase_3,,,,,234.0,6.0,195.0,156.0,117.0,78.0,39.0,234.0,cyan,cross
0.0,6.0,2.0,1.0,7.0,3.0,2901.407733006636,4.0,1.0,phase_3,,,,,245.0,5.0,49.0,294.0,245.0,196.0,98.0,147.0,orange,diamond
0.0,7.0,3.0,1.0,7.0,2.0,3479.618393990677,4.0,1.0,phase_3,,,,,195.0,5.0,39.0,195.0,117.0,234.0,156.0,78.0,gray,hexagon
0.0,7.0,3.0,1.0,7.0,6.0,2739.5116680127103,4.0,1.0,phase_3,,,,,204.0,6.0,68.0,136.0,170.0,102.0,34.0,204.0,gray,hexagon
0.0,1.0,1.0,0.0,7.0,6.0,1611.3833269919269,4.0,1.0,phase_3,,,,,156.0,4.0,117.0,234.0,195.0,39.0,78.0,156.0,blue,flipped triangle
0.0,4.0,4.0,0.0,7.0,4.0,1387.7634770178702,4.0,1.0,phase_3,,,,,147.0,3.0,245.0,49.0,294.0,147.0,196.0,98.0,yellow,triangle
0.0,6.0,2.0,1.0,7.0,5.0,3204.283862025477,4.0,1.0,phase_3,,,,,270.0,5.0,324.0,54.0,108.0,216.0,270.0,162.0,orange,diamond
0.0,2.0,2.0,0.0,7.0,6.0,1952.1934119984508,4.0,1.0,phase_3,,,,,196.0,4.0,294.0,147.0,49.0,245.0,98.0,196.0,cyan,cross
0.0,4.0,4.0,0.0,7.0,1.0,1705.4788759851365,4.0,1.0,phase_3,,,,,162.0,3.0,162.0,54.0,108.0,270.0,216.0,324.0,yellow,triangle
0.0,3.0,3.0,0.0,7.0,5.0,3816.763926995918,4.0,1.0,phase_3,,,,,54.0,1.0,216.0,108.0,162.0,270.0,54.0,324.0,green,circle
