raw_reward_magnitude,stim_reward,stepwise_reward_magnitude,paired_with_stopping,stim_location,response,reaction_time,block,num_trial_presentations,which_phase,stop_signal_trial_type,left_SSD,right_SSD,accuracy,chosen_bidding_amount,chosen_bidding_level,possible_bid_1,possible_bid_2,possible_bid_3,possible_bid_4,possible_bid_5,possible_bid_6,color_text,shape_text
58.0,1.0,1.0,0.0,3.0,3.0,411.2914230208844,1.0,1.0,phase_1,,,,,,,,,,,,,cyan,square
397.0,8.0,4.0,1.0,2.0,2.0,431.1040010070428,1.0,1.0,phase_1,,,,,,,,,,,,,white,I
0.0,7.0,0.0,1.0,3.0,3.0,273.4072159510106,1.0,1.0,phase_1,,,,,,,,,,,,,yellow,circle
95.0,6.0,2.0,1.0,4.0,4.0,321.5145450085401,1.0,1.0,phase_1,,,,,,,,,,,,,orange,hexagon
219.0,7.0,3.0,1.0,4.0,4.0,355.081896064803,1.0,1.0,phase_1,,,,,,,,,,,,,yellow,circle
397.0,8.0,4.0,1.0,3.0,3.0,263.7969410279766,1.0,1.0,phase_1,,,,,,,,,,,,,white,I
0.0,4.0,0.0,0.0,3.0,3.0,285.666496027261,1.0,1.0,phase_1,,,,,,,,,,,,,magenta,flipped triangle
408.0,8.0,4.0,1.0,2.0,2.0,264.0659610042348,1.0,1.0,phase_1,,,,,,,,,,,,,white,I
224.0,3.0,3.0,0.0,4.0,4.0,301.8820229917764,1.0,1.0,phase_1,,,,,,,,,,,,,green,triangle
109.0,6.0,2.0,1.0,3.0,3.0,267.9020659998059,1.0,1.0,phase_1,,,,,,,,,,,,,orange,hexagon
400.0,8.0,4.0,1.0,1.0,1.0,272.0792040927335,1.0,1.0,phase_1,,,,,,,,,,,,,white,I
36.0,1.0,1.0,0.0,3.0,3.0,283.3698840113356,1.0,1.0,phase_1,,,,,,,,,,,,,cyan,square
117.0,6.0,2.0,1.0,4.0,4.0,263.8320920523256,1.0,1.0,phase_1,,,,,,,,,,,,,orange,hexagon
410.0,4.0,4.0,0.0,1.0,1.0,268.2344319764524,1.0,1.0,phase_1,,,,,,,,,,,,,magenta,flipped triangle
183.0,7.0,3.0,1.0,1.0,1.0,283.9246910298243,1.0,1.0,phase_1,,,,,,,,,,,,,yellow,circle
0.0,4.0,0.0,0.0,2.0,2.0,272.575884941034,1.0,1.0,phase_1,,,,,,,,,,,,,magenta,flipped triangle
422.0,8.0,4.0,1.0,4.0,4.0,252.33400205615908,1.0,1.0,phase_1,,,,,,,,,,,,,white,I
81.0,2.0,2.0,0.0,4.0,4.0,280.0038770074025,1.0,1.0,phase_1,,,,,,,,,,,,,blue,diamond
60.0,5.0,1.0,1.0,3.0,3.0,276.536826044321,1.0,1.0,phase_1,,,,,,,,,,,,,gray,cross
45.0,1.0,1.0,0.0,4.0,4.0,256.7577570443973,1.0,1.0,phase_1,,,,,,,,,,,,,cyan,square
114.0,2.0,2.0,0.0,4.0,4.0,277.7262669987976,1.0,1.0,phase_1,,,,,,,,,,,,,blue,diamond
0.0,8.0,0.0,1.0,1.0,1.0,260.5695120291784,1.0,1.0,phase_1,,,,,,,,,,,,,white,I
0.0,7.0,0.0,1.0,4.0,4.0,255.59586193412542,1.0,1.0,phase_1,,,,,,,,,,,,,yellow,circle
180.0,7.0,3.0,1.0,3.0,3.0,260.0625820923596,1.0,1.0,phase_1,,,,,,,,,,,,,yellow,circle
212.0,7.0,3.0,1.0,2.0,2.0,256.3007009448483,1.0,1.0,phase_1,,,,,,,,,,,,,yellow,circle
52.0,5.0,1.0,1.0,3.0,3.0,285.6521799694747,1.0,1.0,phase_1,,,,,,,,,,,,,gray,cross
389.0,8.0,4.0,1.0,3.0,3.0,273.6023609759286,1.0,1.0,phase_1,,,,,,,,,,,,,white,I
377.0,8.0,4.0,1.0,3.0,3.0,285.9843680635094,1.0,1.0,phase_1,,,,,,,,,,,,,white,I
0.0,1.0,0.0,0.0,2.0,2.0,285.548070911318,1.0,1.0,phase_1,,,,,,,,,,,,,cyan,square
406.0,4.0,4.0,0.0,2.0,2.0,306.7924679489806,1.0,1.0,phase_1,,,,,,,,,,,,,magenta,flipped triangle
0.0,7.0,0.0,1.0,4.0,4.0,245.2180890832096,1.0,1.0,phase_1,,,,,,,,,,,,,yellow,circle
0.0,3.0,0.0,0.0,3.0,3.0,265.5380910728127,1.0,1.0,phase_1,,,,,,,,,,,,,green,triangle
176.0,7.0,3.0,1.0,2.0,2.0,237.6371789723634,1.0,1.0,phase_1,,,,,,,,,,,,,yellow,circle
191.0,7.0,3.0,1.0,1.0,1.0,253.4113290021196,1.0,1.0,phase_1,,,,,,,,,,,,,yellow,circle
68.0,5.0,1.0,1.0,2.0,2.0,249.8065419495105,1.0,1.0,phase_1,,,,,,,,,,,,,gray,cross
120.0,2.0,2.0,0.0,4.0,4.0,245.10908604133868,1.0,1.0,phase_1,,,,,,,,,,,,,blue,diamond
221.0,3.0,3.0,0.0,3.0,3.0,256.4760219538584,1.0,1.0,phase_1,,,,,,,,,,,,,green,triangle
424.0,8.0,4.0,1.0,1.0,1.0,255.55974093731493,1.0,1.0,phase_1,,,,,,,,,,,,,white,I
0.0,4.0,0.0,0.0,2.0,2.0,258.8238129392266,1.0,1.0,phase_1,,,,,,,,,,,,,magenta,flipped triangle
0.0,2.0,0.0,0.0,4.0,4.0,280.4140080697834,1.0,1.0,phase_1,,,,,,,,,,,,,blue,diamond
0.0,4.0,0.0,0.0,1.0,1.0,268.3531609363854,1.0,1.0,phase_1,,,,,,,,,,,,,magenta,flipped triangle
416.0,4.0,4.0,0.0,3.0,3.0,281.4744809875265,1.0,1.0,phase_1,,,,,,,,,,,,,magenta,flipped triangle
394.0,8.0,4.0,1.0,1.0,1.0,341.1211399361491,1.0,1.0,phase_1,,,,,,,,,,,,,white,I
117.0,6.0,2.0,1.0,2.0,2.0,242.1678610844537,1.0,1.0,phase_1,,,,,,,,,,,,,orange,hexagon
196.0,3.0,3.0,0.0,4.0,4.0,238.4642519755289,1.0,1.0,phase_1,,,,,,,,,,,,,green,triangle
176.0,7.0,3.0,1.0,1.0,1.0,237.4122939072549,1.0,1.0,phase_1,,,,,,,,,,,,,yellow,circle
415.0,4.0,4.0,0.0,2.0,2.0,248.1953520327806,1.0,1.0,phase_1,,,,,,,,,,,,,magenta,flipped triangle
78.0,2.0,2.0,0.0,1.0,1.0,197.404324891977,1.0,1.0,phase_1,,,,,,,,,,,,,blue,diamond
108.0,6.0,2.0,1.0,2.0,2.0,243.2643289212137,1.0,1.0,phase_1,,,,,,,,,,,,,orange,hexagon
46.0,1.0,1.0,0.0,4.0,4.0,247.5561049068346,1.0,1.0,phase_1,,,,,,,,,,,,,cyan,square
224.0,7.0,3.0,1.0,1.0,1.0,236.4723610226065,1.0,1.0,phase_1,,,,,,,,,,,,,yellow,circle
0.0,4.0,0.0,0.0,1.0,1.0,257.7409090008586,1.0,1.0,phase_1,,,,,,,,,,,,,magenta,flipped triangle
0.0,2.0,0.0,0.0,1.0,1.0,235.5185089400038,1.0,1.0,phase_1,,,,,,,,,,,,,blue,diamond
52.0,1.0,1.0,0.0,1.0,1.0,265.8491560723632,1.0,1.0,phase_1,,,,,,,,,,,,,cyan,square
221.0,3.0,3.0,0.0,3.0,3.0,255.6814700365066,1.0,1.0,phase_1,,,,,,,,,,,,,green,triangle
0.0,8.0,0.0,1.0,3.0,3.0,305.4290489526465,1.0,1.0,phase_1,,,,,,,,,,,,,white,I
0.0,5.0,0.0,1.0,1.0,1.0,271.5558039490133,1.0,1.0,phase_1,,,,,,,,,,,,,gray,cross
0.0,2.0,0.0,0.0,1.0,1.0,267.3448079731315,1.0,1.0,phase_1,,,,,,,,,,,,,blue,diamond
383.0,4.0,4.0,0.0,3.0,3.0,279.2001930065453,1.0,1.0,phase_1,,,,,,,,,,,,,magenta,flipped triangle
47.0,1.0,1.0,0.0,2.0,2.0,246.2213849648833,1.0,1.0,phase_1,,,,,,,,,,,,,cyan,square
0.0,8.0,0.0,1.0,4.0,4.0,311.9230789598077,1.0,2.0,phase_1,,,,,,,,,,,,,white,I
33.0,5.0,1.0,1.0,2.0,2.0,300.6883419584483,1.0,1.0,phase_1,,,,,,,,,,,,,gray,cross
56.0,5.0,1.0,1.0,1.0,1.0,256.5954979509115,1.0,1.0,phase_1,,,,,,,,,,,,,gray,cross
419.0,4.0,4.0,0.0,2.0,2.0,251.32306397426868,1.0,1.0,phase_1,,,,,,,,,,,,,magenta,flipped triangle
0.0,7.0,0.0,1.0,1.0,1.0,256.0541670536622,1.0,1.0,phase_1,,,,,,,,,,,,,yellow,circle
27.0,1.0,1.0,0.0,1.0,1.0,244.7269089752808,1.0,1.0,phase_1,,,,,,,,,,,,,cyan,square
393.0,4.0,4.0,0.0,2.0,2.0,277.4607930332422,1.0,1.0,phase_1,,,,,,,,,,,,,magenta,flipped triangle
30.0,1.0,1.0,0.0,1.0,1.0,240.1714510051533,1.0,1.0,phase_1,,,,,,,,,,,,,cyan,square
124.0,2.0,2.0,0.0,3.0,3.0,235.8769859420135,1.0,1.0,phase_1,,,,,,,,,,,,,blue,diamond
79.0,6.0,2.0,1.0,4.0,4.0,271.9869340071454,1.0,1.0,phase_1,,,,,,,,,,,,,orange,hexagon
46.0,5.0,1.0,1.0,1.0,1.0,252.5352870579809,1.0,1.0,phase_1,,,,,,,,,,,,,gray,cross
212.0,3.0,3.0,0.0,2.0,2.0,243.530324078165,1.0,1.0,phase_1,,,,,,,,,,,,,green,triangle
78.0,2.0,2.0,0.0,3.0,3.0,248.5263310372829,1.0,1.0,phase_1,,,,,,,,,,,,,blue,diamond
200.0,7.0,3.0,1.0,3.0,3.0,275.1966759096831,1.0,1.0,phase_1,,,,,,,,,,,,,yellow,circle
27.0,5.0,1.0,1.0,1.0,1.0,239.9912149412557,1.0,1.0,phase_1,,,,,,,,,,,,,gray,cross
184.0,3.0,3.0,0.0,3.0,3.0,243.7009069835767,1.0,1.0,phase_1,,,,,,,,,,,,,green,triangle
0.0,6.0,0.0,1.0,1.0,1.0,243.636681116186,1.0,1.0,phase_1,,,,,,,,,,,,,orange,hexagon
185.0,7.0,3.0,1.0,1.0,1.0,271.6072360053658,1.0,1.0,phase_1,,,,,,,,,,,,,yellow,circle
217.0,7.0,3.0,1.0,3.0,3.0,284.2660109745338,1.0,1.0,phase_1,,,,,,,,,,,,,yellow,circle
60.0,1.0,1.0,0.0,3.0,3.0,279.6853649197146,1.0,1.0,phase_1,,,,,,,,,,,,,cyan,square
47.0,5.0,1.0,1.0,2.0,2.0,245.8536670310422,1.0,1.0,phase_1,,,,,,,,,,,,,gray,cross
400.0,4.0,4.0,0.0,1.0,1.0,266.829147003591,1.0,1.0,phase_1,,,,,,,,,,,,,magenta,flipped triangle
93.0,2.0,2.0,0.0,3.0,3.0,231.0594889568165,1.0,1.0,phase_1,,,,,,,,,,,,,blue,diamond
221.0,7.0,3.0,1.0,2.0,2.0,258.2974849501624,1.0,1.0,phase_1,,,,,,,,,,,,,yellow,circle
193.0,3.0,3.0,0.0,2.0,2.0,278.82583392784,1.0,1.0,phase_1,,,,,,,,,,,,,green,triangle
389.0,4.0,4.0,0.0,4.0,4.0,277.7595689985901,1.0,1.0,phase_1,,,,,,,,,,,,,magenta,flipped triangle
92.0,6.0,2.0,1.0,4.0,4.0,355.5526939453557,1.0,1.0,phase_1,,,,,,,,,,,,,orange,hexagon
33.0,1.0,1.0,0.0,1.0,1.0,268.7321769772097,1.0,1.0,phase_1,,,,,,,,,,,,,cyan,square
98.0,2.0,2.0,0.0,4.0,4.0,292.395408032462,1.0,1.0,phase_1,,,,,,,,,,,,,blue,diamond
183.0,7.0,3.0,1.0,1.0,1.0,247.15794704388819,1.0,1.0,phase_1,,,,,,,,,,,,,yellow,circle
422.0,4.0,4.0,0.0,1.0,1.0,250.9254979668185,1.0,1.0,phase_1,,,,,,,,,,,,,magenta,flipped triangle
43.0,5.0,1.0,1.0,4.0,4.0,287.2914409963414,1.0,1.0,phase_1,,,,,,,,,,,,,gray,cross
106.0,6.0,2.0,1.0,2.0,2.0,300.3646410070359,1.0,1.0,phase_1,,,,,,,,,,,,,orange,hexagon
176.0,3.0,3.0,0.0,3.0,3.0,304.4111200142652,1.0,1.0,phase_1,,,,,,,,,,,,,green,triangle
196.0,7.0,3.0,1.0,2.0,2.0,296.186245046556,1.0,1.0,phase_1,,,,,,,,,,,,,yellow,circle
0.0,5.0,0.0,1.0,4.0,4.0,317.5578250084072,1.0,1.0,phase_1,,,,,,,,,,,,,gray,cross
225.0,7.0,3.0,1.0,2.0,2.0,287.5481919618323,1.0,1.0,phase_1,,,,,,,,,,,,,yellow,circle
185.0,3.0,3.0,0.0,4.0,4.0,259.3041730578989,1.0,1.0,phase_1,,,,,,,,,,,,,green,triangle
120.0,2.0,2.0,0.0,1.0,1.0,272.4698790116235,1.0,1.0,phase_1,,,,,,,,,,,,,blue,diamond
388.0,4.0,4.0,0.0,3.0,3.0,279.6286930097267,1.0,1.0,phase_1,,,,,,,,,,,,,magenta,flipped triangle
186.0,7.0,3.0,1.0,1.0,1.0,345.7705710316077,2.0,1.0,phase_1,,,,,,,,,,,,,yellow,circle
396.0,8.0,4.0,1.0,1.0,1.0,263.1055200472474,2.0,1.0,phase_1,,,,,,,,,,,,,white,I
397.0,4.0,4.0,0.0,1.0,1.0,251.0479330085218,2.0,1.0,phase_1,,,,,,,,,,,,,magenta,flipped triangle
108.0,2.0,2.0,0.0,2.0,2.0,234.2527769505977,2.0,1.0,phase_1,,,,,,,,,,,,,blue,diamond
388.0,8.0,4.0,1.0,4.0,4.0,239.8844499839469,2.0,1.0,phase_1,,,,,,,,,,,,,white,I
81.0,2.0,2.0,0.0,3.0,3.0,299.2603050079196,2.0,1.0,phase_1,,,,,,,,,,,,,blue,diamond
120.0,6.0,2.0,1.0,3.0,3.0,263.2604719838127,2.0,1.0,phase_1,,,,,,,,,,,,,orange,hexagon
218.0,7.0,3.0,1.0,3.0,3.0,276.3042700244114,2.0,1.0,phase_1,,,,,,,,,,,,,yellow,circle
43.0,5.0,1.0,1.0,4.0,4.0,255.37973002064967,2.0,1.0,phase_1,,,,,,,,,,,,,gray,cross
0.0,1.0,0.0,0.0,4.0,4.0,236.6485429229214,2.0,1.0,phase_1,,,,,,,,,,,,,cyan,square
0.0,1.0,0.0,0.0,1.0,1.0,272.6128490176052,2.0,1.0,phase_1,,,,,,,,,,,,,cyan,square
408.0,4.0,4.0,0.0,4.0,4.0,240.910188993439,2.0,1.0,phase_1,,,,,,,,,,,,,magenta,flipped triangle
415.0,8.0,4.0,1.0,1.0,1.0,261.6600700421259,2.0,1.0,phase_1,,,,,,,,,,,,,white,I
404.0,4.0,4.0,0.0,4.0,4.0,264.5818740129471,2.0,1.0,phase_1,,,,,,,,,,,,,magenta,flipped triangle
79.0,2.0,2.0,0.0,3.0,3.0,293.2188099948689,2.0,1.0,phase_1,,,,,,,,,,,,,blue,diamond
383.0,8.0,4.0,1.0,3.0,3.0,268.222035956569,2.0,1.0,phase_1,,,,,,,,,,,,,white,I
121.0,2.0,2.0,0.0,4.0,4.0,276.625856058672,2.0,1.0,phase_1,,,,,,,,,,,,,blue,diamond
0.0,8.0,0.0,1.0,3.0,3.0,259.3264009337872,2.0,1.0,phase_1,,,,,,,,,,,,,white,I
0.0,8.0,0.0,1.0,4.0,4.0,257.3964250041172,2.0,1.0,phase_1,,,,,,,,,,,,,white,I
191.0,3.0,3.0,0.0,2.0,2.0,277.6077589951455,2.0,1.0,phase_1,,,,,,,,,,,,,green,triangle
90.0,2.0,2.0,0.0,4.0,4.0,256.4483949681744,2.0,1.0,phase_1,,,,,,,,,,,,,blue,diamond
211.0,3.0,3.0,0.0,1.0,1.0,261.084975907579,2.0,1.0,phase_1,,,,,,,,,,,,,green,triangle
385.0,4.0,4.0,0.0,3.0,3.0,259.9790759850293,2.0,1.0,phase_1,,,,,,,,,,,,,magenta,flipped triangle
114.0,2.0,2.0,0.0,4.0,4.0,246.8686149222776,2.0,1.0,phase_1,,,,,,,,,,,,,blue,diamond
106.0,2.0,2.0,0.0,2.0,2.0,338.4624330792576,2.0,1.0,phase_1,,,,,,,,,,,,,blue,diamond
107.0,6.0,2.0,1.0,3.0,3.0,255.91807102318847,2.0,1.0,phase_1,,,,,,,,,,,,,orange,hexagon
79.0,2.0,2.0,0.0,2.0,2.0,300.2980459714308,2.0,1.0,phase_1,,,,,,,,,,,,,blue,diamond
196.0,3.0,3.0,0.0,3.0,3.0,275.5734719103202,2.0,1.0,phase_1,,,,,,,,,,,,,green,triangle
207.0,3.0,3.0,0.0,1.0,1.0,297.3609629552811,2.0,2.0,phase_1,,,,,,,,,,,,,green,triangle
62.0,1.0,1.0,0.0,4.0,4.0,295.3342599794268,2.0,1.0,phase_1,,,,,,,,,,,,,cyan,square
114.0,6.0,2.0,1.0,1.0,1.0,235.5081890709698,2.0,1.0,phase_1,,,,,,,,,,,,,orange,hexagon
33.0,5.0,1.0,1.0,4.0,4.0,240.441931062378,2.0,1.0,phase_1,,,,,,,,,,,,,gray,cross
225.0,3.0,3.0,0.0,4.0,4.0,343.0759849725291,2.0,1.0,phase_1,,,,,,,,,,,,,green,triangle
112.0,6.0,2.0,1.0,1.0,1.0,292.7111479220912,2.0,1.0,phase_1,,,,,,,,,,,,,orange,hexagon
63.0,1.0,1.0,0.0,1.0,1.0,285.5405600275844,2.0,1.0,phase_1,,,,,,,,,,,,,cyan,square
183.0,3.0,3.0,0.0,2.0,2.0,284.2880580574274,2.0,1.0,phase_1,,,,,,,,,,,,,green,triangle
107.0,2.0,2.0,0.0,1.0,1.0,311.0319890547544,2.0,1.0,phase_1,,,,,,,,,,,,,blue,diamond
0.0,8.0,0.0,1.0,3.0,3.0,259.7935938974842,2.0,1.0,phase_1,,,,,,,,,,,,,white,I
0.0,5.0,0.0,1.0,4.0,4.0,300.0545089598745,2.0,1.0,phase_1,,,,,,,,,,,,,gray,cross
191.0,7.0,3.0,1.0,2.0,2.0,271.9487310387194,2.0,1.0,phase_1,,,,,,,,,,,,,yellow,circle
0.0,3.0,0.0,0.0,4.0,4.0,243.84517199359829,2.0,1.0,phase_1,,,,,,,,,,,,,green,triangle
385.0,8.0,4.0,1.0,1.0,1.0,272.4618599750101,2.0,1.0,phase_1,,,,,,,,,,,,,white,I
0.0,3.0,0.0,0.0,1.0,1.0,255.1682749763131,2.0,1.0,phase_1,,,,,,,,,,,,,green,triangle
203.0,3.0,3.0,0.0,1.0,1.0,287.7344150329008,2.0,1.0,phase_1,,,,,,,,,,,,,green,triangle
63.0,1.0,1.0,0.0,1.0,1.0,279.47304805275047,2.0,1.0,phase_1,,,,,,,,,,,,,cyan,square
218.0,3.0,3.0,0.0,1.0,1.0,242.7551168948412,2.0,1.0,phase_1,,,,,,,,,,,,,green,triangle
39.0,1.0,1.0,0.0,2.0,2.0,280.1102169323712,2.0,1.0,phase_1,,,,,,,,,,,,,cyan,square
410.0,4.0,4.0,0.0,3.0,3.0,293.4618850704282,2.0,1.0,phase_1,,,,,,,,,,,,,magenta,flipped triangle
71.0,1.0,1.0,0.0,4.0,4.0,255.46590005978942,2.0,1.0,phase_1,,,,,,,,,,,,,cyan,square
102.0,6.0,2.0,1.0,2.0,2.0,322.3496850114316,2.0,2.0,phase_1,,,,,,,,,,,,,orange,hexagon
0.0,6.0,0.0,1.0,3.0,3.0,280.5375480093062,2.0,1.0,phase_1,,,,,,,,,,,,,orange,hexagon
29.0,1.0,1.0,0.0,3.0,3.0,307.4790219543502,2.0,1.0,phase_1,,,,,,,,,,,,,cyan,square
386.0,8.0,4.0,1.0,3.0,3.0,302.6010240428149,2.0,1.0,phase_1,,,,,,,,,,,,,white,I
106.0,6.0,2.0,1.0,1.0,1.0,347.2737029660493,2.0,1.0,phase_1,,,,,,,,,,,,,orange,hexagon
65.0,5.0,1.0,1.0,1.0,1.0,391.8863879516721,2.0,1.0,phase_1,,,,,,,,,,,,,gray,cross
0.0,4.0,0.0,0.0,3.0,3.0,292.7819830365479,2.0,1.0,phase_1,,,,,,,,,,,,,magenta,flipped triangle
209.0,7.0,3.0,1.0,2.0,2.0,300.5876969546079,2.0,1.0,phase_1,,,,,,,,,,,,,yellow,circle
410.0,8.0,4.0,1.0,3.0,3.0,281.0787239577621,2.0,1.0,phase_1,,,,,,,,,,,,,white,I
415.0,8.0,4.0,1.0,4.0,4.0,317.0706439996138,2.0,1.0,phase_1,,,,,,,,,,,,,white,I
33.0,1.0,1.0,0.0,3.0,3.0,314.3507729982957,2.0,1.0,phase_1,,,,,,,,,,,,,cyan,square
55.0,5.0,1.0,1.0,3.0,3.0,284.5301480265334,2.0,1.0,phase_1,,,,,,,,,,,,,gray,cross
396.0,4.0,4.0,0.0,1.0,1.0,268.0144249461591,2.0,1.0,phase_1,,,,,,,,,,,,,magenta,flipped triangle
0.0,3.0,0.0,0.0,1.0,1.0,309.8536710022017,2.0,1.0,phase_1,,,,,,,,,,,,,green,triangle
406.0,8.0,4.0,1.0,1.0,1.0,293.4788779821247,2.0,1.0,phase_1,,,,,,,,,,,,,white,I
92.0,2.0,2.0,0.0,2.0,2.0,305.4676749743521,2.0,1.0,phase_1,,,,,,,,,,,,,blue,diamond
412.0,8.0,4.0,1.0,2.0,2.0,339.3061419483274,2.0,1.0,phase_1,,,,,,,,,,,,,white,I
29.0,5.0,1.0,1.0,4.0,4.0,329.1982940863818,2.0,1.0,phase_1,,,,,,,,,,,,,gray,cross
38.0,1.0,1.0,0.0,2.0,2.0,321.0344109684229,2.0,1.0,phase_1,,,,,,,,,,,,,cyan,square
412.0,4.0,4.0,0.0,2.0,2.0,369.8532859561965,2.0,1.0,phase_1,,,,,,,,,,,,,magenta,flipped triangle
214.0,3.0,3.0,0.0,2.0,2.0,392.158665927127,2.0,1.0,phase_1,,,,,,,,,,,,,green,triangle
409.0,8.0,4.0,1.0,2.0,2.0,346.6875610174611,2.0,1.0,phase_1,,,,,,,,,,,,,white,I
197.0,3.0,3.0,0.0,2.0,2.0,307.0662548998371,2.0,1.0,phase_1,,,,,,,,,,,,,green,triangle
88.0,2.0,2.0,0.0,3.0,3.0,352.0273340400308,2.0,1.0,phase_1,,,,,,,,,,,,,blue,diamond
29.0,5.0,1.0,1.0,3.0,3.0,332.8306179028004,2.0,1.0,phase_1,,,,,,,,,,,,,gray,cross
191.0,7.0,3.0,1.0,4.0,4.0,366.0933950450271,2.0,1.0,phase_1,,,,,,,,,,,,,yellow,circle
0.0,3.0,0.0,0.0,2.0,2.0,317.3331290017813,2.0,1.0,phase_1,,,,,,,,,,,,,green,triangle
0.0,5.0,0.0,1.0,2.0,2.0,338.39128294494,2.0,1.0,phase_1,,,,,,,,,,,,,gray,cross
0.0,2.0,0.0,0.0,4.0,4.0,380.3794028935954,2.0,1.0,phase_1,,,,,,,,,,,,,blue,diamond
213.0,3.0,3.0,0.0,4.0,4.0,403.2282360130921,2.0,1.0,phase_1,,,,,,,,,,,,,green,triangle
112.0,2.0,2.0,0.0,1.0,1.0,310.0451800273731,2.0,1.0,phase_1,,,,,,,,,,,,,blue,diamond
68.0,1.0,1.0,0.0,4.0,4.0,505.8745810529217,2.0,1.0,phase_1,,,,,,,,,,,,,cyan,square
0.0,5.0,0.0,1.0,4.0,4.0,319.1062540281564,2.0,1.0,phase_1,,,,,,,,,,,,,gray,cross
38.0,5.0,1.0,1.0,1.0,1.0,295.4084310913458,2.0,1.0,phase_1,,,,,,,,,,,,,gray,cross
382.0,8.0,4.0,1.0,4.0,4.0,251.49078096728772,2.0,1.0,phase_1,,,,,,,,,,,,,white,I
95.0,2.0,2.0,0.0,2.0,2.0,284.2616989510134,2.0,1.0,phase_1,,,,,,,,,,,,,blue,diamond
93.0,6.0,2.0,1.0,4.0,4.0,285.2655380265787,2.0,1.0,phase_1,,,,,,,,,,,,,orange,hexagon
95.0,6.0,2.0,1.0,1.0,1.0,304.5893950620666,2.0,1.0,phase_1,,,,,,,,,,,,,orange,hexagon
424.0,4.0,4.0,0.0,1.0,1.0,329.2685970664024,2.0,2.0,phase_1,,,,,,,,,,,,,magenta,flipped triangle
418.0,4.0,4.0,0.0,3.0,3.0,373.3274720143527,2.0,1.0,phase_1,,,,,,,,,,,,,magenta,flipped triangle
178.0,3.0,3.0,0.0,4.0,4.0,297.1173910191282,2.0,1.0,phase_1,,,,,,,,,,,,,green,triangle
0.0,3.0,0.0,0.0,2.0,2.0,285.760103026405,2.0,1.0,phase_1,,,,,,,,,,,,,green,triangle
380.0,8.0,4.0,1.0,2.0,2.0,332.2940589860081,2.0,1.0,phase_1,,,,,,,,,,,,,white,I
117.0,2.0,2.0,0.0,1.0,1.0,304.0370190283283,2.0,1.0,phase_1,,,,,,,,,,,,,blue,diamond
191.0,3.0,3.0,0.0,4.0,4.0,374.7139130719006,2.0,1.0,phase_1,,,,,,,,,,,,,green,triangle
382.0,4.0,4.0,0.0,1.0,1.0,298.0665959184989,2.0,1.0,phase_1,,,,,,,,,,,,,magenta,flipped triangle
119.0,2.0,2.0,0.0,2.0,2.0,312.3598409583792,2.0,1.0,phase_1,,,,,,,,,,,,,blue,diamond
0.0,6.0,0.0,1.0,1.0,1.0,313.7973400298506,2.0,1.0,phase_1,,,,,,,,,,,,,orange,hexagon
69.0,5.0,1.0,1.0,4.0,4.0,361.3099489593878,2.0,1.0,phase_1,,,,,,,,,,,,,gray,cross
79.0,6.0,2.0,1.0,3.0,3.0,323.8864890299737,2.0,1.0,phase_1,,,,,,,,,,,,,orange,hexagon
0.0,5.0,0.0,1.0,1.0,1.0,313.5590569581836,2.0,1.0,phase_1,,,,,,,,,,,,,gray,cross
183.0,3.0,3.0,0.0,4.0,4.0,382.5070649618283,3.0,1.0,phase_1,,,,,,,,,,,,,green,triangle
189.0,3.0,3.0,0.0,1.0,1.0,267.0542720006779,3.0,1.0,phase_1,,,,,,,,,,,,,green,triangle
397.0,4.0,4.0,0.0,2.0,2.0,263.3169100154191,3.0,1.0,phase_1,,,,,,,,,,,,,magenta,flipped triangle
67.0,1.0,1.0,0.0,3.0,3.0,263.3529719896614,3.0,1.0,phase_1,,,,,,,,,,,,,cyan,square
121.0,6.0,2.0,1.0,2.0,2.0,264.591844053939,3.0,1.0,phase_1,,,,,,,,,,,,,orange,hexagon
114.0,6.0,2.0,1.0,4.0,4.0,286.0352880088612,3.0,1.0,phase_1,,,,,,,,,,,,,orange,hexagon
185.0,3.0,3.0,0.0,1.0,1.0,267.4346370622515,3.0,1.0,phase_1,,,,,,,,,,,,,green,triangle
217.0,3.0,3.0,0.0,1.0,1.0,287.2871829895302,3.0,1.0,phase_1,,,,,,,,,,,,,green,triangle
377.0,4.0,4.0,0.0,4.0,4.0,259.5395019743591,3.0,1.0,phase_1,,,,,,,,,,,,,magenta,flipped triangle
189.0,7.0,3.0,1.0,4.0,4.0,320.9888610290363,3.0,1.0,phase_1,,,,,,,,,,,,,yellow,circle
393.0,8.0,4.0,1.0,3.0,3.0,270.070317084901,3.0,1.0,phase_1,,,,,,,,,,,,,white,I
0.0,1.0,0.0,0.0,4.0,4.0,284.2124209273606,3.0,1.0,phase_1,,,,,,,,,,,,,cyan,square
0.0,2.0,0.0,0.0,1.0,1.0,296.9484420027584,3.0,1.0,phase_1,,,,,,,,,,,,,blue,diamond
397.0,8.0,4.0,1.0,2.0,2.0,259.9080359796062,3.0,1.0,phase_1,,,,,,,,,,,,,white,I
64.0,1.0,1.0,0.0,2.0,2.0,288.7477440526709,3.0,1.0,phase_1,,,,,,,,,,,,,cyan,square
0.0,8.0,0.0,1.0,1.0,1.0,270.0365530326962,3.0,1.0,phase_1,,,,,,,,,,,,,white,I
418.0,8.0,4.0,1.0,2.0,2.0,291.3502289447933,3.0,1.0,phase_1,,,,,,,,,,,,,white,I
90.0,2.0,2.0,0.0,1.0,1.0,263.9388489769771,3.0,1.0,phase_1,,,,,,,,,,,,,blue,diamond
29.0,1.0,1.0,0.0,2.0,2.0,266.7996219824999,3.0,1.0,phase_1,,,,,,,,,,,,,cyan,square
0.0,5.0,0.0,1.0,3.0,3.0,247.4197769770398,3.0,1.0,phase_1,,,,,,,,,,,,,gray,cross
195.0,3.0,3.0,0.0,2.0,2.0,263.0378470057621,3.0,1.0,phase_1,,,,,,,,,,,,,green,triangle
37.0,5.0,1.0,1.0,3.0,3.0,376.9184750271961,3.0,1.0,phase_1,,,,,,,,,,,,,gray,cross
36.0,5.0,1.0,1.0,2.0,2.0,247.7104349527508,3.0,1.0,phase_1,,,,,,,,,,,,,gray,cross
114.0,2.0,2.0,0.0,2.0,2.0,226.3417950598523,3.0,1.0,phase_1,,,,,,,,,,,,,blue,diamond
0.0,4.0,0.0,0.0,4.0,4.0,272.8707289788872,3.0,1.0,phase_1,,,,,,,,,,,,,magenta,flipped triangle
380.0,8.0,4.0,1.0,2.0,2.0,269.1790760727599,3.0,1.0,phase_1,,,,,,,,,,,,,white,I
197.0,3.0,3.0,0.0,3.0,3.0,291.5107900043949,3.0,1.0,phase_1,,,,,,,,,,,,,green,triangle
0.0,3.0,0.0,0.0,3.0,3.0,359.8805179353803,3.0,1.0,phase_1,,,,,,,,,,,,,green,triangle
79.0,2.0,2.0,0.0,2.0,2.0,259.5057719154283,3.0,1.0,phase_1,,,,,,,,,,,,,blue,diamond
78.0,6.0,2.0,1.0,1.0,1.0,342.6967749837786,3.0,1.0,phase_1,,,,,,,,,,,,,orange,hexagon
65.0,1.0,1.0,0.0,4.0,4.0,326.4473599847406,3.0,1.0,phase_1,,,,,,,,,,,,,cyan,square
0.0,6.0,0.0,1.0,1.0,1.0,287.6407590229064,3.0,1.0,phase_1,,,,,,,,,,,,,orange,hexagon
189.0,3.0,3.0,0.0,4.0,4.0,296.1060599191114,3.0,1.0,phase_1,,,,,,,,,,,,,green,triangle
186.0,3.0,3.0,0.0,2.0,2.0,233.04160707630209,3.0,1.0,phase_1,,,,,,,,,,,,,green,triangle
397.0,4.0,4.0,0.0,4.0,4.0,261.3831550115719,3.0,1.0,phase_1,,,,,,,,,,,,,magenta,flipped triangle
0.0,3.0,0.0,0.0,1.0,1.0,282.2960140183568,3.0,1.0,phase_1,,,,,,,,,,,,,green,triangle
54.0,5.0,1.0,1.0,4.0,4.0,247.7563199354335,3.0,1.0,phase_1,,,,,,,,,,,,,gray,cross
94.0,6.0,2.0,1.0,3.0,3.0,462.908428045921,3.0,1.0,phase_1,,,,,,,,,,,,,orange,hexagon
86.0,6.0,2.0,1.0,2.0,2.0,272.1776170656085,3.0,1.0,phase_1,,,,,,,,,,,,,orange,hexagon
71.0,5.0,1.0,1.0,2.0,2.0,332.7543879859149,3.0,1.0,phase_1,,,,,,,,,,,,,gray,cross
213.0,7.0,3.0,1.0,3.0,3.0,300.6796219851821,3.0,1.0,phase_1,,,,,,,,,,,,,yellow,circle
191.0,3.0,3.0,0.0,1.0,1.0,238.5776069713756,3.0,1.0,phase_1,,,,,,,,,,,,,green,triangle
66.0,1.0,1.0,0.0,2.0,2.0,283.155590062961,3.0,1.0,phase_1,,,,,,,,,,,,,cyan,square
410.0,8.0,4.0,1.0,3.0,3.0,279.6429850859567,3.0,1.0,phase_1,,,,,,,,,,,,,white,I
417.0,8.0,4.0,1.0,4.0,4.0,222.9131389176473,3.0,1.0,phase_1,,,,,,,,,,,,,white,I
52.0,1.0,1.0,0.0,2.0,2.0,291.7225819546729,3.0,1.0,phase_1,,,,,,,,,,,,,cyan,square
397.0,4.0,4.0,0.0,2.0,2.0,305.558069027029,3.0,1.0,phase_1,,,,,,,,,,,,,magenta,flipped triangle
377.0,4.0,4.0,0.0,4.0,4.0,235.0802910514176,3.0,1.0,phase_1,,,,,,,,,,,,,magenta,flipped triangle
414.0,4.0,4.0,0.0,2.0,2.0,239.2349110450595,3.0,1.0,phase_1,,,,,,,,,,,,,magenta,flipped triangle
114.0,2.0,2.0,0.0,4.0,4.0,271.8769719358533,3.0,1.0,phase_1,,,,,,,,,,,,,blue,diamond
95.0,2.0,2.0,0.0,4.0,4.0,267.4249450210482,3.0,1.0,phase_1,,,,,,,,,,,,,blue,diamond
404.0,4.0,4.0,0.0,1.0,1.0,357.6704510487616,3.0,2.0,phase_1,,,,,,,,,,,,,magenta,flipped triangle
0.0,4.0,0.0,0.0,3.0,3.0,279.6242589829489,3.0,1.0,phase_1,,,,,,,,,,,,,magenta,flipped triangle
0.0,2.0,0.0,0.0,1.0,1.0,339.0265799826011,3.0,1.0,phase_1,,,,,,,,,,,,,blue,diamond
125.0,2.0,2.0,0.0,1.0,1.0,377.4066820042208,3.0,1.0,phase_1,,,,,,,,,,,,,blue,diamond
114.0,6.0,2.0,1.0,2.0,2.0,287.8093009348959,3.0,1.0,phase_1,,,,,,,,,,,,,orange,hexagon
49.0,5.0,1.0,1.0,4.0,4.0,267.2705770237371,3.0,1.0,phase_1,,,,,,,,,,,,,gray,cross
0.0,2.0,0.0,0.0,1.0,1.0,303.8972450885921,3.0,1.0,phase_1,,,,,,,,,,,,,blue,diamond
55.0,1.0,1.0,0.0,3.0,3.0,285.5967439245432,3.0,1.0,phase_1,,,,,,,,,,,,,cyan,square
67.0,5.0,1.0,1.0,3.0,3.0,295.5920060630888,3.0,1.0,phase_1,,,,,,,,,,,,,gray,cross
221.0,7.0,3.0,1.0,4.0,4.0,415.4312859755009,3.0,1.0,phase_1,,,,,,,,,,,,,yellow,circle
70.0,5.0,1.0,1.0,1.0,1.0,345.9640659857541,3.0,1.0,phase_1,,,,,,,,,,,,,gray,cross
189.0,7.0,3.0,1.0,3.0,3.0,304.0239430265501,3.0,1.0,phase_1,,,,,,,,,,,,,yellow,circle
418.0,4.0,4.0,0.0,1.0,1.0,291.8802649946883,3.0,1.0,phase_1,,,,,,,,,,,,,magenta,flipped triangle
219.0,3.0,3.0,0.0,4.0,4.0,391.4360459893942,3.0,1.0,phase_1,,,,,,,,,,,,,green,triangle
0.0,7.0,0.0,1.0,1.0,1.0,291.5259510045871,3.0,1.0,phase_1,,,,,,,,,,,,,yellow,circle
191.0,7.0,3.0,1.0,3.0,3.0,296.3232940528542,3.0,1.0,phase_1,,,,,,,,,,,,,yellow,circle
0.0,1.0,0.0,0.0,1.0,1.0,317.2827939270064,3.0,1.0,phase_1,,,,,,,,,,,,,cyan,square
86.0,2.0,2.0,0.0,3.0,3.0,277.4756869766861,3.0,1.0,phase_1,,,,,,,,,,,,,blue,diamond
184.0,7.0,3.0,1.0,4.0,4.0,297.4991040537134,3.0,1.0,phase_1,,,,,,,,,,,,,yellow,circle
0.0,8.0,0.0,1.0,2.0,2.0,284.3879589345306,3.0,1.0,phase_1,,,,,,,,,,,,,white,I
404.0,8.0,4.0,1.0,4.0,4.0,289.7199760191142,3.0,1.0,phase_1,,,,,,,,,,,,,white,I
125.0,6.0,2.0,1.0,4.0,4.0,316.7775239562616,3.0,1.0,phase_1,,,,,,,,,,,,,orange,hexagon
120.0,6.0,2.0,1.0,1.0,1.0,284.6162000205368,3.0,1.0,phase_1,,,,,,,,,,,,,orange,hexagon
49.0,5.0,1.0,1.0,2.0,2.0,312.380293966271,3.0,1.0,phase_1,,,,,,,,,,,,,gray,cross
218.0,3.0,3.0,0.0,1.0,1.0,315.2102200547233,3.0,1.0,phase_1,,,,,,,,,,,,,green,triangle
49.0,1.0,1.0,0.0,2.0,2.0,297.7883290732279,3.0,1.0,phase_1,,,,,,,,,,,,,cyan,square
39.0,5.0,1.0,1.0,1.0,1.0,324.445214937441,3.0,1.0,phase_1,,,,,,,,,,,,,gray,cross
401.0,4.0,4.0,0.0,4.0,4.0,410.9384849434718,3.0,1.0,phase_1,,,,,,,,,,,,,magenta,flipped triangle
92.0,2.0,2.0,0.0,4.0,4.0,333.3486840128898,3.0,1.0,phase_1,,,,,,,,,,,,,blue,diamond
218.0,7.0,3.0,1.0,1.0,1.0,330.0371079239994,3.0,1.0,phase_1,,,,,,,,,,,,,yellow,circle
0.0,5.0,0.0,1.0,2.0,2.0,415.1793189812451,3.0,1.0,phase_1,,,,,,,,,,,,,gray,cross
200.0,3.0,3.0,0.0,2.0,2.0,292.321918066591,3.0,1.0,phase_1,,,,,,,,,,,,,green,triangle
0.0,4.0,0.0,0.0,1.0,1.0,331.5172659931704,3.0,1.0,phase_1,,,,,,,,,,,,,magenta,flipped triangle
180.0,3.0,3.0,0.0,3.0,3.0,316.4606438949704,3.0,1.0,phase_1,,,,,,,,,,,,,green,triangle
0.0,1.0,0.0,0.0,4.0,4.0,241.7151910485699,3.0,1.0,phase_1,,,,,,,,,,,,,cyan,square
56.0,1.0,1.0,0.0,1.0,1.0,333.6119740270078,3.0,1.0,phase_1,,,,,,,,,,,,,cyan,square
0.0,1.0,0.0,0.0,3.0,3.0,276.2126841116696,3.0,1.0,phase_1,,,,,,,,,,,,,cyan,square
0.0,6.0,0.0,1.0,3.0,3.0,275.51877999212587,3.0,1.0,phase_1,,,,,,,,,,,,,orange,hexagon
90.0,6.0,2.0,1.0,1.0,1.0,262.8300170181319,3.0,1.0,phase_1,,,,,,,,,,,,,orange,hexagon
117.0,2.0,2.0,0.0,2.0,2.0,256.6110729239881,3.0,1.0,phase_1,,,,,,,,,,,,,blue,diamond
214.0,7.0,3.0,1.0,1.0,1.0,255.62778091989458,3.0,1.0,phase_1,,,,,,,,,,,,,yellow,circle
0.0,5.0,0.0,1.0,4.0,4.0,394.2021150141954,3.0,1.0,phase_1,,,,,,,,,,,,,gray,cross
86.0,2.0,2.0,0.0,1.0,1.0,287.2816789895296,3.0,1.0,phase_1,,,,,,,,,,,,,blue,diamond
380.0,4.0,4.0,0.0,4.0,4.0,268.0472549982369,3.0,1.0,phase_1,,,,,,,,,,,,,magenta,flipped triangle
65.0,5.0,1.0,1.0,3.0,3.0,434.6348840044811,3.0,1.0,phase_1,,,,,,,,,,,,,gray,cross
52.0,5.0,1.0,1.0,2.0,2.0,286.8826340418309,3.0,1.0,phase_1,,,,,,,,,,,,,gray,cross
191.0,3.0,3.0,0.0,1.0,1.0,283.6262480122968,3.0,1.0,phase_1,,,,,,,,,,,,,green,triangle
415.0,4.0,4.0,0.0,3.0,3.0,314.1661839326843,3.0,1.0,phase_1,,,,,,,,,,,,,magenta,flipped triangle
222.0,7.0,3.0,1.0,3.0,3.0,314.7318839328363,3.0,1.0,phase_1,,,,,,,,,,,,,yellow,circle
377.0,8.0,4.0,1.0,4.0,4.0,380.0253520021215,4.0,1.0,phase_1,,,,,,,,,,,,,white,I
79.0,6.0,2.0,1.0,1.0,1.0,259.0082939714193,4.0,1.0,phase_1,,,,,,,,,,,,,orange,hexagon
89.0,6.0,2.0,1.0,3.0,3.0,255.4871209431439,4.0,1.0,phase_1,,,,,,,,,,,,,orange,hexagon
104.0,6.0,2.0,1.0,4.0,4.0,293.165109003894,4.0,1.0,phase_1,,,,,,,,,,,,,orange,hexagon
86.0,6.0,2.0,1.0,4.0,4.0,297.2748239990324,4.0,1.0,phase_1,,,,,,,,,,,,,orange,hexagon
88.0,6.0,2.0,1.0,3.0,3.0,251.0854570427909,4.0,1.0,phase_1,,,,,,,,,,,,,orange,hexagon
193.0,7.0,3.0,1.0,4.0,4.0,266.8678860645741,4.0,1.0,phase_1,,,,,,,,,,,,,yellow,circle
39.0,1.0,1.0,0.0,1.0,1.0,268.5620760312304,4.0,1.0,phase_1,,,,,,,,,,,,,cyan,square
176.0,3.0,3.0,0.0,3.0,3.0,267.7909749327227,4.0,1.0,phase_1,,,,,,,,,,,,,green,triangle
0.0,1.0,0.0,0.0,3.0,3.0,263.3891149889678,4.0,1.0,phase_1,,,,,,,,,,,,,cyan,square
63.0,5.0,1.0,1.0,3.0,3.0,284.6800850238651,4.0,1.0,phase_1,,,,,,,,,,,,,gray,cross
419.0,8.0,4.0,1.0,2.0,2.0,324.4903680169955,4.0,2.0,phase_1,,,,,,,,,,,,,white,I
98.0,6.0,2.0,1.0,1.0,1.0,329.5081499963999,4.0,1.0,phase_1,,,,,,,,,,,,,orange,hexagon
0.0,6.0,0.0,1.0,3.0,3.0,286.1525260377675,4.0,1.0,phase_1,,,,,,,,,,,,,orange,hexagon
178.0,7.0,3.0,1.0,2.0,2.0,284.9137199809775,4.0,1.0,phase_1,,,,,,,,,,,,,yellow,circle
81.0,6.0,2.0,1.0,2.0,2.0,287.0860230177641,4.0,1.0,phase_1,,,,,,,,,,,,,orange,hexagon
209.0,3.0,3.0,0.0,3.0,3.0,310.3568470105529,4.0,1.0,phase_1,,,,,,,,,,,,,green,triangle
29.0,5.0,1.0,1.0,3.0,3.0,296.2224059738219,4.0,1.0,phase_1,,,,,,,,,,,,,gray,cross
418.0,8.0,4.0,1.0,3.0,3.0,280.6843268917873,4.0,1.0,phase_1,,,,,,,,,,,,,white,I
0.0,6.0,0.0,1.0,4.0,4.0,292.8952589863911,4.0,1.0,phase_1,,,,,,,,,,,,,orange,hexagon
69.0,1.0,1.0,0.0,4.0,4.0,306.1141959624365,4.0,1.0,phase_1,,,,,,,,,,,,,cyan,square
417.0,4.0,4.0,0.0,3.0,3.0,301.0943219996989,4.0,1.0,phase_1,,,,,,,,,,,,,magenta,flipped triangle
197.0,7.0,3.0,1.0,4.0,4.0,305.3392060101032,4.0,1.0,phase_1,,,,,,,,,,,,,yellow,circle
0.0,8.0,0.0,1.0,4.0,4.0,319.3092199508101,4.0,1.0,phase_1,,,,,,,,,,,,,white,I
43.0,1.0,1.0,0.0,4.0,4.0,328.5566009581089,4.0,1.0,phase_1,,,,,,,,,,,,,cyan,square
203.0,7.0,3.0,1.0,4.0,4.0,296.2529819924384,4.0,1.0,phase_1,,,,,,,,,,,,,yellow,circle
380.0,4.0,4.0,0.0,2.0,2.0,484.9108370253816,4.0,1.0,phase_1,,,,,,,,,,,,,magenta,flipped triangle
56.0,1.0,1.0,0.0,1.0,1.0,295.919316005893,4.0,1.0,phase_1,,,,,,,,,,,,,cyan,square
408.0,4.0,4.0,0.0,4.0,4.0,286.2557379994541,4.0,1.0,phase_1,,,,,,,,,,,,,magenta,flipped triangle
197.0,7.0,3.0,1.0,3.0,3.0,281.8078879499808,4.0,1.0,phase_1,,,,,,,,,,,,,yellow,circle
404.0,8.0,4.0,1.0,4.0,4.0,265.0439159478992,4.0,1.0,phase_1,,,,,,,,,,,,,white,I
49.0,1.0,1.0,0.0,3.0,3.0,275.3367199329659,4.0,1.0,phase_1,,,,,,,,,,,,,cyan,square
92.0,6.0,2.0,1.0,1.0,1.0,368.0453880224377,4.0,1.0,phase_1,,,,,,,,,,,,,orange,hexagon
0.0,3.0,0.0,0.0,4.0,4.0,420.5118279205635,4.0,1.0,phase_1,,,,,,,,,,,,,green,triangle
109.0,2.0,2.0,0.0,1.0,1.0,387.0876809814945,4.0,1.0,phase_1,,,,,,,,,,,,,blue,diamond
65.0,1.0,1.0,0.0,3.0,3.0,247.3232919583097,4.0,1.0,phase_1,,,,,,,,,,,,,cyan,square
0.0,2.0,0.0,0.0,2.0,2.0,267.4297789344564,4.0,1.0,phase_1,,,,,,,,,,,,,blue,diamond
0.0,6.0,0.0,1.0,2.0,2.0,358.680339064449,4.0,1.0,phase_1,,,,,,,,,,,,,orange,hexagon
124.0,6.0,2.0,1.0,2.0,2.0,326.2153549585491,4.0,1.0,phase_1,,,,,,,,,,,,,orange,hexagon
0.0,2.0,0.0,0.0,2.0,2.0,306.5586499869823,4.0,1.0,phase_1,,,,,,,,,,,,,blue,diamond
102.0,2.0,2.0,0.0,3.0,3.0,292.5063510192558,4.0,1.0,phase_1,,,,,,,,,,,,,blue,diamond
0.0,7.0,0.0,1.0,1.0,1.0,275.565259042196,4.0,1.0,phase_1,,,,,,,,,,,,,yellow,circle
81.0,6.0,2.0,1.0,2.0,2.0,271.9897470669821,4.0,1.0,phase_1,,,,,,,,,,,,,orange,hexagon
377.0,8.0,4.0,1.0,1.0,1.0,314.3876589601859,4.0,1.0,phase_1,,,,,,,,,,,,,white,I
0.0,7.0,0.0,1.0,4.0,4.0,319.2951410310343,4.0,1.0,phase_1,,,,,,,,,,,,,yellow,circle
0.0,3.0,0.0,0.0,4.0,4.0,375.162584008649,4.0,1.0,phase_1,,,,,,,,,,,,,green,triangle
397.0,8.0,4.0,1.0,4.0,4.0,419.5070120040327,4.0,1.0,phase_1,,,,,,,,,,,,,white,I
196.0,7.0,3.0,1.0,2.0,2.0,317.4900671001524,4.0,1.0,phase_1,,,,,,,,,,,,,yellow,circle
30.0,5.0,1.0,1.0,1.0,1.0,457.0041929837316,4.0,1.0,phase_1,,,,,,,,,,,,,gray,cross
114.0,6.0,2.0,1.0,3.0,3.0,277.6461840840056,4.0,1.0,phase_1,,,,,,,,,,,,,orange,hexagon
0.0,6.0,0.0,1.0,3.0,3.0,310.6753330212086,4.0,1.0,phase_1,,,,,,,,,,,,,orange,hexagon
0.0,1.0,0.0,0.0,4.0,4.0,297.8602709481492,4.0,1.0,phase_1,,,,,,,,,,,,,cyan,square
222.0,3.0,3.0,0.0,2.0,2.0,325.4322319990024,4.0,1.0,phase_1,,,,,,,,,,,,,green,triangle
408.0,8.0,4.0,1.0,1.0,1.0,355.493979062885,4.0,1.0,phase_1,,,,,,,,,,,,,white,I
43.0,1.0,1.0,0.0,4.0,4.0,344.9641990009695,4.0,1.0,phase_1,,,,,,,,,,,,,cyan,square
401.0,8.0,4.0,1.0,2.0,2.0,268.1346329627558,4.0,1.0,phase_1,,,,,,,,,,,,,white,I
94.0,2.0,2.0,0.0,3.0,3.0,322.4600299727171,4.0,1.0,phase_1,,,,,,,,,,,,,blue,diamond
0.0,4.0,0.0,0.0,1.0,1.0,301.7915439559147,4.0,1.0,phase_1,,,,,,,,,,,,,magenta,flipped triangle
207.0,7.0,3.0,1.0,3.0,3.0,296.3982269866392,4.0,1.0,phase_1,,,,,,,,,,,,,yellow,circle
185.0,7.0,3.0,1.0,4.0,4.0,319.2649120464921,4.0,1.0,phase_1,,,,,,,,,,,,,yellow,circle
0.0,5.0,0.0,1.0,4.0,4.0,258.9633159805089,4.0,1.0,phase_1,,,,,,,,,,,,,gray,cross
78.0,6.0,2.0,1.0,3.0,3.0,271.9144390430301,4.0,1.0,phase_1,,,,,,,,,,,,,orange,hexagon
37.0,1.0,1.0,0.0,1.0,1.0,268.0813260376453,4.0,1.0,phase_1,,,,,,,,,,,,,cyan,square
104.0,2.0,2.0,0.0,1.0,1.0,306.9042009301483,4.0,1.0,phase_1,,,,,,,,,,,,,blue,diamond
62.0,5.0,1.0,1.0,2.0,2.0,332.338726031594,4.0,1.0,phase_1,,,,,,,,,,,,,gray,cross
64.0,5.0,1.0,1.0,4.0,4.0,293.6444020597264,4.0,1.0,phase_1,,,,,,,,,,,,,gray,cross
386.0,4.0,4.0,0.0,3.0,3.0,598.0999779421836,4.0,1.0,phase_1,,,,,,,,,,,,,magenta,flipped triangle
39.0,5.0,1.0,1.0,2.0,2.0,322.3763719433918,4.0,1.0,phase_1,,,,,,,,,,,,,gray,cross
54.0,1.0,1.0,0.0,2.0,2.0,345.6178170163184,4.0,1.0,phase_1,,,,,,,,,,,,,cyan,square
56.0,5.0,1.0,1.0,2.0,2.0,326.3632679590955,4.0,1.0,phase_1,,,,,,,,,,,,,gray,cross
0.0,7.0,0.0,1.0,3.0,3.0,312.6301270676777,4.0,1.0,phase_1,,,,,,,,,,,,,yellow,circle
89.0,2.0,2.0,0.0,3.0,3.0,297.3038650816306,4.0,1.0,phase_1,,,,,,,,,,,,,blue,diamond
66.0,5.0,1.0,1.0,1.0,1.0,259.2838030541315,4.0,1.0,phase_1,,,,,,,,,,,,,gray,cross
377.0,4.0,4.0,0.0,1.0,1.0,336.4690549205988,4.0,1.0,phase_1,,,,,,,,,,,,,magenta,flipped triangle
0.0,7.0,0.0,1.0,1.0,1.0,259.3917780322954,4.0,1.0,phase_1,,,,,,,,,,,,,yellow,circle
90.0,6.0,2.0,1.0,4.0,4.0,288.5603279573843,4.0,1.0,phase_1,,,,,,,,,,,,,orange,hexagon
0.0,8.0,0.0,1.0,1.0,1.0,296.0237050428986,4.0,1.0,phase_1,,,,,,,,,,,,,white,I
106.0,2.0,2.0,0.0,2.0,2.0,267.4846489680931,4.0,1.0,phase_1,,,,,,,,,,,,,blue,diamond
58.0,5.0,1.0,1.0,4.0,4.0,425.6076170131564,4.0,1.0,phase_1,,,,,,,,,,,,,gray,cross
391.0,4.0,4.0,0.0,2.0,2.0,554.8875390086323,4.0,1.0,phase_1,,,,,,,,,,,,,magenta,flipped triangle
414.0,8.0,4.0,1.0,3.0,3.0,352.6360279647633,4.0,1.0,phase_1,,,,,,,,,,,,,white,I
394.0,4.0,4.0,0.0,4.0,4.0,319.3042420316487,4.0,1.0,phase_1,,,,,,,,,,,,,magenta,flipped triangle
38.0,1.0,1.0,0.0,4.0,4.0,329.4325170572847,4.0,1.0,phase_1,,,,,,,,,,,,,cyan,square
212.0,3.0,3.0,0.0,3.0,3.0,332.9530890332535,4.0,2.0,phase_1,,,,,,,,,,,,,green,triangle
0.0,7.0,0.0,1.0,4.0,4.0,272.6118039572611,4.0,1.0,phase_1,,,,,,,,,,,,,yellow,circle
195.0,7.0,3.0,1.0,1.0,1.0,350.8328329771757,4.0,1.0,phase_1,,,,,,,,,,,,,yellow,circle
391.0,8.0,4.0,1.0,1.0,1.0,304.1922970442101,4.0,1.0,phase_1,,,,,,,,,,,,,white,I
409.0,4.0,4.0,0.0,3.0,3.0,317.3103670123964,4.0,1.0,phase_1,,,,,,,,,,,,,magenta,flipped triangle
70.0,1.0,1.0,0.0,2.0,2.0,320.9784888895228,4.0,1.0,phase_1,,,,,,,,,,,,,cyan,square
0.0,1.0,0.0,0.0,2.0,2.0,359.0800380334258,4.0,1.0,phase_1,,,,,,,,,,,,,cyan,square
212.0,7.0,3.0,1.0,4.0,4.0,478.8097669370472,4.0,1.0,phase_1,,,,,,,,,,,,,yellow,circle
45.0,5.0,1.0,1.0,3.0,3.0,322.4242219002917,4.0,1.0,phase_1,,,,,,,,,,,,,gray,cross
63.0,5.0,1.0,1.0,1.0,1.0,292.4359450116753,4.0,1.0,phase_1,,,,,,,,,,,,,gray,cross
0.0,2.0,0.0,0.0,2.0,2.0,259.2472939286381,4.0,1.0,phase_1,,,,,,,,,,,,,blue,diamond
29.0,1.0,1.0,0.0,3.0,3.0,305.3252500249073,4.0,1.0,phase_1,,,,,,,,,,,,,cyan,square
38.0,5.0,1.0,1.0,4.0,4.0,308.9005720103159,4.0,1.0,phase_1,,,,,,,,,,,,,gray,cross
119.0,6.0,2.0,1.0,3.0,3.0,294.983143103309,4.0,1.0,phase_1,,,,,,,,,,,,,orange,hexagon
211.0,7.0,3.0,1.0,2.0,2.0,247.3420520545914,4.0,1.0,phase_1,,,,,,,,,,,,,yellow,circle
0.0,6.0,0.0,1.0,3.0,3.0,371.1648859316483,4.0,1.0,phase_1,,,,,,,,,,,,,orange,hexagon
416.0,8.0,4.0,1.0,4.0,4.0,273.1140609830618,4.0,1.0,phase_1,,,,,,,,,,,,,white,I
0.0,4.0,4.0,0.0,6.0,6.0,333.8870010338723,1.0,1.0,phase_2,go,250.0,250.0,1.0,,,,,,,,,magenta,flipped triangle
0.0,1.0,1.0,0.0,6.0,6.0,362.3606999171898,1.0,1.0,phase_2,go,250.0,250.0,1.0,,,,,,,,,cyan,square
0.0,5.0,1.0,1.0,5.0,5.0,516.6643640259281,1.0,1.0,phase_2,stop,250.0,250.0,3.0,,,,,,,,,gray,cross
0.0,3.0,3.0,0.0,6.0,6.0,541.2561260163784,1.0,1.0,phase_2,go,200.0,250.0,1.0,,,,,,,,,green,triangle
0.0,8.0,4.0,1.0,6.0,6.0,484.0754999313503,1.0,1.0,phase_2,go,200.0,250.0,1.0,,,,,,,,,white,I
0.0,4.0,4.0,0.0,6.0,6.0,433.9182699332014,1.0,1.0,phase_2,go,200.0,250.0,1.0,,,,,,,,,magenta,flipped triangle
0.0,4.0,4.0,0.0,6.0,6.0,360.989723005332,1.0,1.0,phase_2,go,200.0,250.0,1.0,,,,,,,,,magenta,flipped triangle
0.0,4.0,4.0,0.0,6.0,6.0,406.9458089070394,1.0,1.0,phase_2,go,200.0,250.0,1.0,,,,,,,,,magenta,flipped triangle
0.0,6.0,2.0,1.0,6.0,6.0,391.0675590159371,1.0,1.0,phase_2,go,200.0,250.0,1.0,,,,,,,,,orange,hexagon
0.0,7.0,3.0,1.0,6.0,0.0,0.0,1.0,1.0,phase_2,stop,200.0,250.0,4.0,,,,,,,,,yellow,circle
0.0,6.0,2.0,1.0,5.0,5.0,277.5031180353835,1.0,1.0,phase_2,stop,200.0,300.0,3.0,,,,,,,,,orange,hexagon
0.0,7.0,3.0,1.0,5.0,0.0,0.0,1.0,1.0,phase_2,stop,150.0,300.0,4.0,,,,,,,,,yellow,circle
0.0,7.0,3.0,1.0,6.0,6.0,436.9023069739342,1.0,1.0,phase_2,go,200.0,300.0,1.0,,,,,,,,,yellow,circle
0.0,1.0,1.0,0.0,5.0,5.0,325.5509160226211,1.0,1.0,phase_2,go,200.0,300.0,1.0,,,,,,,,,cyan,square
0.0,4.0,4.0,0.0,5.0,5.0,515.9070380032063,1.0,1.0,phase_2,go,200.0,300.0,1.0,,,,,,,,,magenta,flipped triangle
0.0,7.0,3.0,1.0,6.0,6.0,548.0200940510258,1.0,1.0,phase_2,go,200.0,300.0,1.0,,,,,,,,,yellow,circle
0.0,6.0,2.0,1.0,5.0,5.0,285.3900530608371,1.0,1.0,phase_2,stop,200.0,300.0,3.0,,,,,,,,,orange,hexagon
0.0,1.0,1.0,0.0,6.0,6.0,602.1380430320278,1.0,1.0,phase_2,go,150.0,300.0,1.0,,,,,,,,,cyan,square
0.0,8.0,4.0,1.0,5.0,5.0,418.0110499728471,1.0,1.0,phase_2,go,150.0,300.0,1.0,,,,,,,,,white,I
0.0,7.0,3.0,1.0,5.0,0.0,0.0,1.0,1.0,phase_2,stop,150.0,300.0,4.0,,,,,,,,,yellow,circle
0.0,7.0,3.0,1.0,6.0,6.0,328.1497760908678,1.0,1.0,phase_2,stop,200.0,300.0,3.0,,,,,,,,,yellow,circle
0.0,6.0,2.0,1.0,6.0,6.0,431.7571390420198,1.0,1.0,phase_2,go,200.0,250.0,1.0,,,,,,,,,orange,hexagon
0.0,4.0,4.0,0.0,6.0,6.0,350.9557279758155,1.0,1.0,phase_2,go,200.0,250.0,1.0,,,,,,,,,magenta,flipped triangle
0.0,5.0,1.0,1.0,5.0,5.0,309.8619830561802,1.0,1.0,phase_2,stop,200.0,250.0,3.0,,,,,,,,,gray,cross
0.0,6.0,2.0,1.0,6.0,0.0,0.0,1.0,1.0,phase_2,stop,150.0,250.0,4.0,,,,,,,,,orange,hexagon
0.0,7.0,3.0,1.0,6.0,6.0,479.7288860427215,1.0,1.0,phase_2,stop,150.0,300.0,3.0,,,,,,,,,yellow,circle
0.0,1.0,1.0,0.0,6.0,6.0,584.4899390358478,1.0,1.0,phase_2,go,150.0,250.0,1.0,,,,,,,,,cyan,square
0.0,5.0,1.0,1.0,6.0,6.0,389.8058079648763,1.0,1.0,phase_2,go,150.0,250.0,1.0,,,,,,,,,gray,cross
0.0,5.0,1.0,1.0,5.0,0.0,0.0,1.0,1.0,phase_2,stop,150.0,250.0,4.0,,,,,,,,,gray,cross
0.0,4.0,4.0,0.0,6.0,6.0,556.8344979546964,1.0,1.0,phase_2,go,200.0,250.0,1.0,,,,,,,,,magenta,flipped triangle
0.0,2.0,2.0,0.0,5.0,5.0,426.257194019854,1.0,1.0,phase_2,go,200.0,250.0,1.0,,,,,,,,,blue,diamond
0.0,8.0,4.0,1.0,5.0,0.0,0.0,1.0,1.0,phase_2,stop,200.0,250.0,4.0,,,,,,,,,white,I
0.0,8.0,4.0,1.0,6.0,0.0,0.0,1.0,1.0,phase_2,stop,250.0,250.0,4.0,,,,,,,,,white,I
0.0,3.0,3.0,0.0,5.0,5.0,392.892668955028,1.0,1.0,phase_2,go,250.0,300.0,1.0,,,,,,,,,green,triangle
0.0,5.0,1.0,1.0,6.0,0.0,0.0,1.0,1.0,phase_2,stop,250.0,300.0,4.0,,,,,,,,,gray,cross
0.0,3.0,3.0,0.0,5.0,5.0,384.3085080152377,1.0,1.0,phase_2,go,250.0,350.0,1.0,,,,,,,,,green,triangle
0.0,5.0,1.0,1.0,5.0,0.0,0.0,2.0,1.0,phase_2,stop,250.0,350.0,4.0,,,,,,,,,gray,cross
0.0,7.0,3.0,1.0,5.0,0.0,0.0,2.0,1.0,phase_2,stop,300.0,350.0,4.0,,,,,,,,,yellow,circle
0.0,5.0,1.0,1.0,5.0,5.0,443.5981720453128,2.0,1.0,phase_2,go,350.0,350.0,1.0,,,,,,,,,gray,cross
0.0,2.0,2.0,0.0,6.0,6.0,331.5700029488653,2.0,1.0,phase_2,go,350.0,350.0,1.0,,,,,,,,,blue,diamond
0.0,7.0,3.0,1.0,5.0,5.0,312.926199985668,2.0,1.0,phase_2,stop,350.0,350.0,3.0,,,,,,,,,yellow,circle
0.0,4.0,4.0,0.0,6.0,6.0,503.7584799574688,2.0,1.0,phase_2,go,300.0,350.0,1.0,,,,,,,,,magenta,flipped triangle
0.0,3.0,3.0,0.0,5.0,5.0,385.8698210678994,2.0,1.0,phase_2,go,300.0,350.0,1.0,,,,,,,,,green,triangle
0.0,4.0,4.0,0.0,5.0,5.0,368.7778640305623,2.0,1.0,phase_2,go,300.0,350.0,1.0,,,,,,,,,magenta,flipped triangle
0.0,6.0,2.0,1.0,6.0,6.0,301.3521919492632,2.0,1.0,phase_2,go,300.0,350.0,1.0,,,,,,,,,orange,hexagon
0.0,1.0,1.0,0.0,5.0,5.0,430.7743010576814,2.0,1.0,phase_2,go,300.0,350.0,1.0,,,,,,,,,cyan,square
0.0,6.0,2.0,1.0,5.0,5.0,375.6198879564181,2.0,1.0,phase_2,stop,300.0,350.0,3.0,,,,,,,,,orange,hexagon
0.0,6.0,2.0,1.0,6.0,0.0,0.0,2.0,1.0,phase_2,stop,250.0,350.0,4.0,,,,,,,,,orange,hexagon
0.0,2.0,2.0,0.0,6.0,6.0,566.5072200354189,2.0,1.0,phase_2,go,250.0,400.0,1.0,,,,,,,,,blue,diamond
0.0,2.0,2.0,0.0,5.0,5.0,389.3044739961624,2.0,1.0,phase_2,go,250.0,400.0,1.0,,,,,,,,,blue,diamond
0.0,7.0,3.0,1.0,5.0,0.0,0.0,2.0,1.0,phase_2,stop,250.0,400.0,4.0,,,,,,,,,yellow,circle
0.0,6.0,2.0,1.0,6.0,6.0,346.5661869850009,2.0,1.0,phase_2,stop,300.0,400.0,3.0,,,,,,,,,orange,hexagon
0.0,4.0,4.0,0.0,5.0,5.0,435.1824660552665,2.0,1.0,phase_2,go,300.0,350.0,1.0,,,,,,,,,magenta,flipped triangle
0.0,3.0,3.0,0.0,6.0,6.0,498.3254020335153,2.0,1.0,phase_2,go,300.0,350.0,1.0,,,,,,,,,green,triangle
0.0,7.0,3.0,1.0,5.0,0.0,0.0,2.0,1.0,phase_2,stop,300.0,350.0,4.0,,,,,,,,,yellow,circle
0.0,1.0,1.0,0.0,6.0,6.0,450.3884259611368,2.0,1.0,phase_2,go,350.0,350.0,1.0,,,,,,,,,cyan,square
0.0,4.0,4.0,0.0,6.0,6.0,385.4741590330377,2.0,1.0,phase_2,go,350.0,350.0,1.0,,,,,,,,,magenta,flipped triangle
0.0,5.0,1.0,1.0,5.0,5.0,406.4454020699486,2.0,1.0,phase_2,stop,350.0,350.0,3.0,,,,,,,,,gray,cross
0.0,7.0,3.0,1.0,6.0,6.0,432.3547870153561,2.0,1.0,phase_2,stop,300.0,350.0,3.0,,,,,,,,,yellow,circle
0.0,6.0,2.0,1.0,6.0,6.0,404.9256630241871,2.0,1.0,phase_2,go,300.0,300.0,1.0,,,,,,,,,orange,hexagon
0.0,3.0,3.0,0.0,6.0,6.0,412.9070179769769,2.0,1.0,phase_2,go,300.0,300.0,1.0,,,,,,,,,green,triangle
0.0,7.0,3.0,1.0,6.0,6.0,348.8088210579008,2.0,1.0,phase_2,stop,300.0,300.0,3.0,,,,,,,,,yellow,circle
0.0,5.0,1.0,1.0,6.0,0.0,0.0,2.0,1.0,phase_2,stop,300.0,250.0,4.0,,,,,,,,,gray,cross
0.0,4.0,4.0,0.0,5.0,5.0,460.0963990669697,2.0,1.0,phase_2,go,300.0,300.0,1.0,,,,,,,,,magenta,flipped triangle
0.0,6.0,2.0,1.0,5.0,5.0,381.2657969538122,2.0,1.0,phase_2,stop,300.0,300.0,3.0,,,,,,,,,orange,hexagon
0.0,4.0,4.0,0.0,6.0,6.0,553.6331059411168,2.0,1.0,phase_2,go,250.0,300.0,1.0,,,,,,,,,magenta,flipped triangle
0.0,3.0,3.0,0.0,5.0,5.0,500.2262879861519,2.0,1.0,phase_2,go,250.0,300.0,1.0,,,,,,,,,green,triangle
0.0,3.0,3.0,0.0,5.0,5.0,412.2282540192827,2.0,1.0,phase_2,go,250.0,300.0,1.0,,,,,,,,,green,triangle
0.0,8.0,4.0,1.0,5.0,0.0,0.0,2.0,1.0,phase_2,stop,250.0,300.0,4.0,,,,,,,,,white,I
0.0,1.0,1.0,0.0,6.0,6.0,503.6511210491881,2.0,1.0,phase_2,go,300.0,300.0,1.0,,,,,,,,,cyan,square
0.0,5.0,1.0,1.0,5.0,0.0,0.0,2.0,1.0,phase_2,stop,300.0,300.0,4.0,,,,,,,,,gray,cross
0.0,3.0,3.0,0.0,5.0,5.0,438.7886190088466,2.0,1.0,phase_2,go,350.0,300.0,1.0,,,,,,,,,green,triangle
0.0,1.0,1.0,0.0,6.0,6.0,744.8426560731605,3.0,1.0,phase_2,go,350.0,300.0,1.0,,,,,,,,,cyan,square
0.0,6.0,2.0,1.0,6.0,6.0,325.4519969923422,3.0,1.0,phase_2,stop,350.0,300.0,3.0,,,,,,,,,orange,hexagon
0.0,5.0,1.0,1.0,6.0,6.0,393.4344089357182,3.0,1.0,phase_2,go,350.0,250.0,1.0,,,,,,,,,gray,cross
0.0,4.0,4.0,0.0,5.0,5.0,449.9532330082729,3.0,1.0,phase_2,go,350.0,250.0,1.0,,,,,,,,,magenta,flipped triangle
0.0,7.0,3.0,1.0,6.0,6.0,454.7177340136841,3.0,1.0,phase_2,go,350.0,250.0,1.0,,,,,,,,,yellow,circle
0.0,4.0,4.0,0.0,5.0,5.0,541.6273369919509,3.0,1.0,phase_2,go,350.0,250.0,1.0,,,,,,,,,magenta,flipped triangle
0.0,8.0,4.0,1.0,5.0,5.0,324.8724120203405,3.0,1.0,phase_2,stop,350.0,250.0,3.0,,,,,,,,,white,I
0.0,2.0,2.0,0.0,6.0,6.0,387.8081060247496,3.0,1.0,phase_2,go,300.0,250.0,1.0,,,,,,,,,blue,diamond
0.0,1.0,1.0,0.0,5.0,5.0,491.36969295796,3.0,1.0,phase_2,go,300.0,250.0,1.0,,,,,,,,,cyan,square
0.0,5.0,1.0,1.0,6.0,0.0,0.0,3.0,1.0,phase_2,stop,300.0,250.0,4.0,,,,,,,,,gray,cross
0.0,3.0,3.0,0.0,6.0,6.0,468.6069389572367,3.0,1.0,phase_2,go,300.0,300.0,1.0,,,,,,,,,green,triangle
0.0,5.0,1.0,1.0,5.0,0.0,0.0,3.0,1.0,phase_2,stop,300.0,300.0,4.0,,,,,,,,,gray,cross
0.0,4.0,4.0,0.0,5.0,5.0,416.8263159226626,3.0,1.0,phase_2,go,350.0,300.0,1.0,,,,,,,,,magenta,flipped triangle
0.0,8.0,4.0,1.0,5.0,5.0,420.7543870434165,3.0,1.0,phase_2,stop,350.0,300.0,3.0,,,,,,,,,white,I
0.0,3.0,3.0,0.0,6.0,6.0,344.6020890260115,3.0,1.0,phase_2,go,300.0,300.0,1.0,,,,,,,,,green,triangle
0.0,2.0,2.0,0.0,5.0,5.0,536.1653239233419,3.0,1.0,phase_2,go,300.0,300.0,1.0,,,,,,,,,blue,diamond
0.0,7.0,3.0,1.0,6.0,6.0,384.4324479578063,3.0,1.0,phase_2,go,300.0,300.0,1.0,,,,,,,,,yellow,circle
0.0,4.0,4.0,0.0,5.0,5.0,446.7477829894051,3.0,1.0,phase_2,go,300.0,300.0,1.0,,,,,,,,,magenta,flipped triangle
0.0,1.0,1.0,0.0,6.0,6.0,562.167288037017,3.0,1.0,phase_2,go,300.0,300.0,1.0,,,,,,,,,cyan,square
0.0,1.0,1.0,0.0,6.0,6.0,332.9774959711358,3.0,1.0,phase_2,go,300.0,300.0,1.0,,,,,,,,,cyan,square
0.0,3.0,3.0,0.0,6.0,6.0,405.2402660017833,3.0,1.0,phase_2,go,300.0,300.0,1.0,,,,,,,,,green,triangle
0.0,8.0,4.0,1.0,6.0,6.0,328.9883050601929,3.0,1.0,phase_2,stop,300.0,300.0,3.0,,,,,,,,,white,I
0.0,6.0,2.0,1.0,5.0,0.0,0.0,3.0,1.0,phase_2,stop,300.0,250.0,4.0,,,,,,,,,orange,hexagon
0.0,6.0,2.0,1.0,6.0,0.0,0.0,3.0,1.0,phase_2,stop,350.0,250.0,4.0,,,,,,,,,orange,hexagon
0.0,1.0,1.0,0.0,5.0,5.0,382.41657090839,3.0,1.0,phase_2,go,350.0,300.0,1.0,,,,,,,,,cyan,square
0.0,4.0,4.0,0.0,6.0,6.0,497.6636270293966,3.0,1.0,phase_2,go,350.0,300.0,1.0,,,,,,,,,magenta,flipped triangle
0.0,4.0,4.0,0.0,6.0,6.0,403.6304979817942,3.0,1.0,phase_2,go,350.0,300.0,1.0,,,,,,,,,magenta,flipped triangle
0.0,1.0,1.0,0.0,6.0,6.0,386.0632609575987,3.0,1.0,phase_2,go,350.0,300.0,1.0,,,,,,,,,cyan,square
0.0,5.0,1.0,1.0,5.0,5.0,313.1928630173206,3.0,1.0,phase_2,go,350.0,300.0,1.0,,,,,,,,,gray,cross
0.0,1.0,1.0,0.0,6.0,6.0,234.3618619488552,3.0,1.0,phase_2,go,350.0,300.0,1.0,,,,,,,,,cyan,square
0.0,6.0,2.0,1.0,6.0,0.0,0.0,3.0,1.0,phase_2,stop,350.0,300.0,4.0,,,,,,,,,orange,hexagon
0.0,6.0,2.0,1.0,5.0,5.0,392.1381129184738,3.0,1.0,phase_2,stop,350.0,350.0,3.0,,,,,,,,,orange,hexagon
0.0,8.0,4.0,1.0,6.0,6.0,512.0345569448546,3.0,1.0,phase_2,go,300.0,350.0,1.0,,,,,,,,,white,I
0.0,4.0,4.0,0.0,5.0,5.0,278.2836650731042,3.0,1.0,phase_2,go,300.0,350.0,1.0,,,,,,,,,magenta,flipped triangle
0.0,1.0,1.0,0.0,5.0,5.0,416.2329359678551,3.0,1.0,phase_2,go,300.0,350.0,1.0,,,,,,,,,cyan,square
0.0,4.0,4.0,0.0,5.0,5.0,295.9473659284413,3.0,1.0,phase_2,go,300.0,350.0,1.0,,,,,,,,,magenta,flipped triangle
0.0,5.0,1.0,1.0,5.0,5.0,325.3815000643953,4.0,1.0,phase_2,stop,300.0,350.0,3.0,,,,,,,,,gray,cross
0.0,3.0,3.0,0.0,6.0,6.0,445.0043289689347,4.0,1.0,phase_2,go,250.0,350.0,1.0,,,,,,,,,green,triangle
0.0,5.0,1.0,1.0,5.0,5.0,373.7259350018576,4.0,1.0,phase_2,stop,250.0,350.0,3.0,,,,,,,,,gray,cross
0.0,3.0,3.0,0.0,6.0,6.0,534.5381310908124,4.0,1.0,phase_2,go,200.0,350.0,1.0,,,,,,,,,green,triangle
0.0,2.0,2.0,0.0,5.0,5.0,425.7118540117517,4.0,1.0,phase_2,go,200.0,350.0,1.0,,,,,,,,,blue,diamond
0.0,7.0,3.0,1.0,6.0,6.0,337.1394289424643,4.0,1.0,phase_2,stop,200.0,350.0,3.0,,,,,,,,,yellow,circle
0.0,5.0,1.0,1.0,6.0,0.0,0.0,4.0,1.0,phase_2,stop,200.0,300.0,4.0,,,,,,,,,gray,cross
0.0,7.0,3.0,1.0,5.0,5.0,440.5135289998725,4.0,1.0,phase_2,go,200.0,350.0,1.0,,,,,,,,,yellow,circle
0.0,3.0,3.0,0.0,5.0,5.0,409.365352941677,4.0,1.0,phase_2,go,200.0,350.0,1.0,,,,,,,,,green,triangle
0.0,1.0,1.0,0.0,5.0,5.0,343.5498470207676,4.0,1.0,phase_2,go,200.0,350.0,1.0,,,,,,,,,cyan,square
0.0,2.0,2.0,0.0,5.0,5.0,414.3372310791164,4.0,1.0,phase_2,go,200.0,350.0,1.0,,,,,,,,,blue,diamond
0.0,6.0,2.0,1.0,5.0,0.0,0.0,4.0,1.0,phase_2,stop,200.0,350.0,4.0,,,,,,,,,orange,hexagon
0.0,3.0,3.0,0.0,6.0,6.0,375.8579560089856,4.0,1.0,phase_2,go,250.0,350.0,1.0,,,,,,,,,green,triangle
0.0,3.0,3.0,0.0,5.0,5.0,312.2441379819065,4.0,1.0,phase_2,go,250.0,350.0,1.0,,,,,,,,,green,triangle
0.0,7.0,3.0,1.0,6.0,0.0,0.0,4.0,1.0,phase_2,stop,250.0,350.0,4.0,,,,,,,,,yellow,circle
0.0,6.0,2.0,1.0,5.0,5.0,371.5842829551548,4.0,1.0,phase_2,stop,250.0,400.0,3.0,,,,,,,,,orange,hexagon
0.0,5.0,1.0,1.0,6.0,6.0,516.1033410113305,4.0,1.0,phase_2,stop,200.0,400.0,3.0,,,,,,,,,gray,cross
0.0,1.0,1.0,0.0,5.0,5.0,578.453287947923,4.0,1.0,phase_2,go,200.0,350.0,1.0,,,,,,,,,cyan,square
0.0,6.0,2.0,1.0,6.0,6.0,459.7258119611069,4.0,1.0,phase_2,stop,200.0,350.0,3.0,,,,,,,,,orange,hexagon
0.0,3.0,3.0,0.0,6.0,6.0,531.377894920297,4.0,1.0,phase_2,go,200.0,300.0,1.0,,,,,,,,,green,triangle
0.0,5.0,1.0,1.0,6.0,0.0,0.0,4.0,1.0,phase_2,stop,200.0,300.0,4.0,,,,,,,,,gray,cross
0.0,6.0,2.0,1.0,5.0,5.0,571.1433669785038,4.0,1.0,phase_2,go,200.0,350.0,1.0,,,,,,,,,orange,hexagon
0.0,7.0,3.0,1.0,5.0,5.0,611.4104409934953,4.0,1.0,phase_2,go,200.0,350.0,1.0,,,,,,,,,yellow,circle
0.0,6.0,2.0,1.0,5.0,0.0,0.0,4.0,1.0,phase_2,stop,200.0,350.0,4.0,,,,,,,,,orange,hexagon
0.0,6.0,2.0,1.0,6.0,6.0,490.9411430126056,4.0,1.0,phase_2,go,250.0,350.0,1.0,,,,,,,,,orange,hexagon
0.0,8.0,4.0,1.0,5.0,0.0,0.0,4.0,1.0,phase_2,stop,250.0,350.0,4.0,,,,,,,,,white,I
0.0,8.0,4.0,1.0,6.0,6.0,457.8347759088501,4.0,1.0,phase_2,stop,300.0,350.0,3.0,,,,,,,,,white,I
0.0,2.0,2.0,0.0,6.0,6.0,417.0141880167648,4.0,1.0,phase_2,go,300.0,300.0,1.0,,,,,,,,,blue,diamond
0.0,5.0,1.0,1.0,6.0,6.0,447.2858319059014,4.0,1.0,phase_2,stop,300.0,300.0,3.0,,,,,,,,,gray,cross
0.0,2.0,2.0,0.0,6.0,6.0,541.0003780853003,4.0,1.0,phase_2,go,300.0,250.0,1.0,,,,,,,,,blue,diamond
0.0,4.0,4.0,0.0,5.0,5.0,477.5141779100522,4.0,1.0,phase_2,go,300.0,250.0,1.0,,,,,,,,,magenta,flipped triangle
0.0,6.0,2.0,1.0,5.0,0.0,0.0,4.0,1.0,phase_2,stop,300.0,250.0,4.0,,,,,,,,,orange,hexagon
0.0,7.0,3.0,1.0,5.0,0.0,0.0,4.0,1.0,phase_2,stop,350.0,250.0,4.0,,,,,,,,,yellow,circle
0.0,4.0,4.0,0.0,6.0,6.0,434.5439189346507,4.0,1.0,phase_2,go,400.0,250.0,1.0,,,,,,,,,magenta,flipped triangle
0.0,3.0,3.0,0.0,6.0,6.0,641.8412739876658,4.0,1.0,phase_2,go,400.0,250.0,1.0,,,,,,,,,green,triangle
0.0,1.0,1.0,0.0,5.0,5.0,452.1359399659559,4.0,1.0,phase_2,go,400.0,250.0,1.0,,,,,,,,,cyan,square
0.0,2.0,2.0,0.0,5.0,5.0,618.9339730190113,5.0,1.0,phase_2,go,400.0,250.0,1.0,,,,,,,,,blue,diamond
0.0,1.0,1.0,0.0,5.0,5.0,619.2485300125554,5.0,1.0,phase_2,go,400.0,250.0,1.0,,,,,,,,,cyan,square
0.0,2.0,2.0,0.0,5.0,5.0,315.1650259969756,5.0,1.0,phase_2,go,400.0,250.0,1.0,,,,,,,,,blue,diamond
0.0,1.0,1.0,0.0,5.0,5.0,376.9416389986872,5.0,1.0,phase_2,go,400.0,250.0,1.0,,,,,,,,,cyan,square
0.0,1.0,1.0,0.0,6.0,6.0,470.1830719131976,5.0,1.0,phase_2,go,400.0,250.0,1.0,,,,,,,,,cyan,square
0.0,8.0,4.0,1.0,6.0,6.0,325.9679039474576,5.0,1.0,phase_2,stop,400.0,250.0,3.0,,,,,,,,,white,I
0.0,7.0,3.0,1.0,5.0,5.0,526.2312919367105,5.0,1.0,phase_2,go,400.0,200.0,1.0,,,,,,,,,yellow,circle
0.0,3.0,3.0,0.0,5.0,5.0,356.80188797414297,5.0,1.0,phase_2,go,400.0,200.0,1.0,,,,,,,,,green,triangle
0.0,8.0,4.0,1.0,6.0,0.0,0.0,5.0,1.0,phase_2,stop,400.0,200.0,4.0,,,,,,,,,white,I
0.0,7.0,3.0,1.0,6.0,6.0,340.1073539862409,5.0,1.0,phase_2,go,400.0,250.0,1.0,,,,,,,,,yellow,circle
0.0,2.0,2.0,0.0,6.0,6.0,382.0393870119005,5.0,1.0,phase_2,go,400.0,250.0,1.0,,,,,,,,,blue,diamond
0.0,5.0,1.0,1.0,5.0,5.0,322.852726909332,5.0,1.0,phase_2,stop,400.0,250.0,3.0,,,,,,,,,gray,cross
0.0,7.0,3.0,1.0,5.0,5.0,394.3930119276047,5.0,1.0,phase_2,stop,350.0,250.0,3.0,,,,,,,,,yellow,circle
0.0,6.0,2.0,1.0,6.0,0.0,0.0,5.0,1.0,phase_2,stop,300.0,250.0,4.0,,,,,,,,,orange,hexagon
0.0,2.0,2.0,0.0,5.0,5.0,514.8340479936451,5.0,1.0,phase_2,go,300.0,300.0,1.0,,,,,,,,,blue,diamond
0.0,7.0,3.0,1.0,6.0,0.0,0.0,5.0,1.0,phase_2,stop,300.0,300.0,4.0,,,,,,,,,yellow,circle
0.0,1.0,1.0,0.0,6.0,6.0,376.9301329739392,5.0,1.0,phase_2,go,300.0,350.0,1.0,,,,,,,,,cyan,square
0.0,6.0,2.0,1.0,5.0,5.0,343.9885519910604,5.0,1.0,phase_2,stop,300.0,350.0,3.0,,,,,,,,,orange,hexagon
0.0,4.0,4.0,0.0,5.0,5.0,538.4142289403826,5.0,1.0,phase_2,go,250.0,350.0,1.0,,,,,,,,,magenta,flipped triangle
0.0,4.0,4.0,0.0,6.0,6.0,537.0233890134841,5.0,1.0,phase_2,go,250.0,350.0,1.0,,,,,,,,,magenta,flipped triangle
0.0,5.0,1.0,1.0,6.0,0.0,0.0,5.0,1.0,phase_2,stop,250.0,350.0,4.0,,,,,,,,,gray,cross
0.0,8.0,4.0,1.0,5.0,0.0,0.0,5.0,1.0,phase_2,stop,250.0,400.0,4.0,,,,,,,,,white,I
0.0,7.0,3.0,1.0,5.0,5.0,405.0382330315187,5.0,1.0,phase_2,stop,300.0,400.0,3.0,,,,,,,,,yellow,circle
0.0,1.0,1.0,0.0,5.0,5.0,414.7535150405019,5.0,1.0,phase_2,go,250.0,400.0,1.0,,,,,,,,,cyan,square
0.0,1.0,1.0,0.0,5.0,5.0,406.3470239052549,5.0,1.0,phase_2,go,250.0,400.0,1.0,,,,,,,,,cyan,square
0.0,2.0,2.0,0.0,6.0,6.0,422.9018969926983,5.0,1.0,phase_2,go,250.0,400.0,1.0,,,,,,,,,blue,diamond
0.0,1.0,1.0,0.0,6.0,6.0,430.6488239672035,5.0,1.0,phase_2,go,250.0,400.0,1.0,,,,,,,,,cyan,square
0.0,1.0,1.0,0.0,5.0,5.0,333.070749999024,5.0,1.0,phase_2,go,250.0,400.0,1.0,,,,,,,,,cyan,square
0.0,4.0,4.0,0.0,6.0,6.0,482.1981850545853,5.0,1.0,phase_2,go,250.0,400.0,1.0,,,,,,,,,magenta,flipped triangle
0.0,8.0,4.0,1.0,5.0,0.0,0.0,5.0,1.0,phase_2,stop,250.0,400.0,4.0,,,,,,,,,white,I
0.0,6.0,2.0,1.0,5.0,0.0,0.0,5.0,1.0,phase_2,stop,300.0,400.0,4.0,,,,,,,,,orange,hexagon
0.0,2.0,2.0,0.0,5.0,5.0,401.1023349594325,5.0,1.0,phase_2,go,350.0,400.0,1.0,,,,,,,,,blue,diamond
0.0,6.0,2.0,1.0,5.0,5.0,368.7316859140992,5.0,1.0,phase_2,stop,350.0,400.0,3.0,,,,,,,,,orange,hexagon
0.0,8.0,4.0,1.0,5.0,0.0,0.0,5.0,1.0,phase_2,stop,300.0,400.0,4.0,,,,,,,,,white,I
0.0,8.0,4.0,1.0,5.0,5.0,517.9926470154896,5.0,1.0,phase_2,stop,350.0,400.0,3.0,,,,,,,,,white,I
0.0,2.0,2.0,0.0,6.0,6.0,456.7631059326231,5.0,1.0,phase_2,go,300.0,400.0,1.0,,,,,,,,,blue,diamond
0.0,8.0,4.0,1.0,6.0,6.0,311.1856069881469,6.0,1.0,phase_2,stop,300.0,400.0,3.0,,,,,,,,,white,I
0.0,3.0,3.0,0.0,6.0,6.0,510.95277699641883,6.0,1.0,phase_2,go,300.0,350.0,1.0,,,,,,,,,green,triangle
0.0,7.0,3.0,1.0,5.0,5.0,464.6366749657318,6.0,1.0,phase_2,stop,300.0,350.0,3.0,,,,,,,,,yellow,circle
0.0,3.0,3.0,0.0,6.0,6.0,493.5378199443221,6.0,1.0,phase_2,go,250.0,350.0,1.0,,,,,,,,,green,triangle
0.0,8.0,4.0,1.0,6.0,6.0,464.3845510436222,6.0,1.0,phase_2,stop,250.0,350.0,3.0,,,,,,,,,white,I
0.0,2.0,2.0,0.0,6.0,6.0,542.3450040398166,6.0,1.0,phase_2,go,250.0,300.0,1.0,,,,,,,,,blue,diamond
0.0,2.0,2.0,0.0,6.0,6.0,517.2594860196114,6.0,1.0,phase_2,go,250.0,300.0,1.0,,,,,,,,,blue,diamond
0.0,5.0,1.0,1.0,6.0,0.0,0.0,6.0,1.0,phase_2,stop,250.0,300.0,4.0,,,,,,,,,gray,cross
0.0,7.0,3.0,1.0,5.0,0.0,0.0,6.0,1.0,phase_2,stop,250.0,350.0,4.0,,,,,,,,,yellow,circle
0.0,4.0,4.0,0.0,5.0,5.0,441.8767479946837,6.0,1.0,phase_2,go,300.0,350.0,1.0,,,,,,,,,magenta,flipped triangle
0.0,5.0,1.0,1.0,5.0,5.0,424.95273204986,6.0,1.0,phase_2,stop,300.0,350.0,3.0,,,,,,,,,gray,cross
0.0,3.0,3.0,0.0,5.0,5.0,468.5066699748859,6.0,1.0,phase_2,go,250.0,350.0,1.0,,,,,,,,,green,triangle
0.0,6.0,2.0,1.0,6.0,6.0,440.4210669454187,6.0,1.0,phase_2,stop,250.0,350.0,3.0,,,,,,,,,orange,hexagon
0.0,6.0,2.0,1.0,5.0,5.0,495.2882580691948,6.0,1.0,phase_2,go,250.0,300.0,1.0,,,,,,,,,orange,hexagon
0.0,1.0,1.0,0.0,5.0,5.0,303.2867909641936,6.0,1.0,phase_2,go,250.0,300.0,1.0,,,,,,,,,cyan,square
0.0,8.0,4.0,1.0,5.0,5.0,274.2024209583178,6.0,1.0,phase_2,stop,250.0,300.0,3.0,,,,,,,,,white,I
0.0,7.0,3.0,1.0,6.0,6.0,225.4619220038876,6.0,1.0,phase_2,stop,200.0,300.0,3.0,,,,,,,,,yellow,circle
0.0,5.0,1.0,1.0,6.0,6.0,288.4881100617349,6.0,1.0,phase_2,stop,200.0,250.0,3.0,,,,,,,,,gray,cross
0.0,6.0,2.0,1.0,5.0,5.0,532.9315140843391,6.0,1.0,phase_2,go,200.0,200.0,1.0,,,,,,,,,orange,hexagon
0.0,5.0,1.0,1.0,6.0,6.0,476.6800889046862,6.0,1.0,phase_2,go,200.0,200.0,1.0,,,,,,,,,gray,cross
0.0,4.0,4.0,0.0,5.0,5.0,308.4038730012253,6.0,1.0,phase_2,go,200.0,200.0,1.0,,,,,,,,,magenta,flipped triangle
0.0,6.0,2.0,1.0,6.0,6.0,439.2661059973761,6.0,1.0,phase_2,go,200.0,200.0,1.0,,,,,,,,,orange,hexagon
0.0,5.0,1.0,1.0,5.0,0.0,0.0,6.0,1.0,phase_2,stop,200.0,200.0,4.0,,,,,,,,,gray,cross
0.0,3.0,3.0,0.0,6.0,6.0,322.4817059235647,6.0,1.0,phase_2,go,250.0,200.0,1.0,,,,,,,,,green,triangle
0.0,3.0,3.0,0.0,5.0,5.0,394.4699290441349,6.0,1.0,phase_2,go,250.0,200.0,1.0,,,,,,,,,green,triangle
0.0,8.0,4.0,1.0,5.0,0.0,0.0,6.0,1.0,phase_2,stop,250.0,200.0,4.0,,,,,,,,,white,I
0.0,2.0,2.0,0.0,6.0,6.0,265.092778019607,6.0,1.0,phase_2,go,300.0,200.0,1.0,,,,,,,,,blue,diamond
0.0,8.0,4.0,1.0,6.0,6.0,303.904268075712,6.0,1.0,phase_2,stop,300.0,200.0,3.0,,,,,,,,,white,I
0.0,6.0,2.0,1.0,6.0,0.0,0.0,6.0,1.0,phase_2,stop,300.0,150.0,4.0,,,,,,,,,orange,hexagon
0.0,5.0,1.0,1.0,6.0,6.0,352.8808349510655,6.0,1.0,phase_2,go,300.0,200.0,1.0,,,,,,,,,gray,cross
0.0,6.0,2.0,1.0,5.0,5.0,400.6104950094595,6.0,1.0,phase_2,stop,300.0,200.0,3.0,,,,,,,,,orange,hexagon
0.0,3.0,3.0,0.0,5.0,5.0,560.5763969942927,6.0,1.0,phase_2,go,250.0,200.0,1.0,,,,,,,,,green,triangle
0.0,8.0,4.0,1.0,6.0,6.0,406.9382259622216,6.0,1.0,phase_2,go,250.0,200.0,1.0,,,,,,,,,white,I
0.0,1.0,1.0,0.0,6.0,6.0,280.0209349952638,6.0,1.0,phase_2,go,250.0,200.0,1.0,,,,,,,,,cyan,square
0.0,5.0,1.0,1.0,5.0,5.0,431.3300140202045,6.0,1.0,phase_2,go,250.0,200.0,1.0,,,,,,,,,gray,cross
0.0,3.0,3.0,0.0,5.0,5.0,349.1311209509149,6.0,1.0,phase_2,go,250.0,200.0,1.0,,,,,,,,,green,triangle
0.0,8.0,4.0,1.0,5.0,0.0,0.0,7.0,1.0,phase_2,stop,250.0,200.0,4.0,,,,,,,,,white,I
0.0,1.0,1.0,0.0,6.0,6.0,387.446470092982,7.0,1.0,phase_2,go,300.0,200.0,1.0,,,,,,,,,cyan,square
0.0,8.0,4.0,1.0,5.0,5.0,282.779776956886,7.0,1.0,phase_2,stop,300.0,200.0,3.0,,,,,,,,,white,I
0.0,3.0,3.0,0.0,5.0,5.0,344.1483320202678,7.0,1.0,phase_2,go,250.0,200.0,1.0,,,,,,,,,green,triangle
0.0,8.0,4.0,1.0,5.0,5.0,286.8660270469263,7.0,1.0,phase_2,go,250.0,200.0,1.0,,,,,,,,,white,I
0.0,4.0,4.0,0.0,6.0,6.0,274.1229049861431,7.0,1.0,phase_2,go,250.0,200.0,1.0,,,,,,,,,magenta,flipped triangle
0.0,3.0,3.0,0.0,5.0,5.0,344.3451230414212,7.0,1.0,phase_2,go,250.0,200.0,1.0,,,,,,,,,green,triangle
0.0,4.0,4.0,0.0,5.0,5.0,318.8734339782968,7.0,1.0,phase_2,go,250.0,200.0,1.0,,,,,,,,,magenta,flipped triangle
0.0,2.0,2.0,0.0,5.0,5.0,381.3978930702433,7.0,1.0,phase_2,go,250.0,200.0,1.0,,,,,,,,,blue,diamond
0.0,4.0,4.0,0.0,5.0,5.0,303.5862469114363,7.0,1.0,phase_2,go,250.0,200.0,1.0,,,,,,,,,magenta,flipped triangle
0.0,8.0,4.0,1.0,5.0,5.0,294.3201119778678,7.0,1.0,phase_2,stop,250.0,200.0,3.0,,,,,,,,,white,I
0.0,7.0,3.0,1.0,5.0,0.0,0.0,7.0,1.0,phase_2,stop,200.0,200.0,4.0,,,,,,,,,yellow,circle
0.0,3.0,3.0,0.0,6.0,6.0,493.2558250147849,7.0,1.0,phase_2,go,250.0,200.0,1.0,,,,,,,,,green,triangle
0.0,2.0,2.0,0.0,5.0,5.0,395.20840998739,7.0,1.0,phase_2,go,250.0,200.0,1.0,,,,,,,,,blue,diamond
0.0,4.0,4.0,0.0,6.0,6.0,330.8220680337399,7.0,1.0,phase_2,go,250.0,200.0,1.0,,,,,,,,,magenta,flipped triangle
0.0,2.0,2.0,0.0,5.0,5.0,420.3468710184097,7.0,1.0,phase_2,go,250.0,200.0,1.0,,,,,,,,,blue,diamond
0.0,2.0,2.0,0.0,5.0,5.0,392.5769149791449,7.0,1.0,phase_2,go,250.0,200.0,1.0,,,,,,,,,blue,diamond
0.0,2.0,2.0,0.0,5.0,5.0,345.403209910728,7.0,1.0,phase_2,go,250.0,200.0,1.0,,,,,,,,,blue,diamond
0.0,5.0,1.0,1.0,5.0,0.0,0.0,7.0,1.0,phase_2,stop,250.0,200.0,4.0,,,,,,,,,gray,cross
0.0,8.0,4.0,1.0,6.0,0.0,0.0,7.0,1.0,phase_2,stop,300.0,200.0,4.0,,,,,,,,,white,I
0.0,8.0,4.0,1.0,5.0,5.0,352.0809310721233,7.0,1.0,phase_2,go,300.0,250.0,1.0,,,,,,,,,white,I
0.0,3.0,3.0,0.0,6.0,6.0,269.6496479911729,7.0,1.0,phase_2,go,300.0,250.0,1.0,,,,,,,,,green,triangle
0.0,2.0,2.0,0.0,6.0,6.0,312.9571720492095,7.0,1.0,phase_2,go,300.0,250.0,1.0,,,,,,,,,blue,diamond
0.0,1.0,1.0,0.0,6.0,6.0,288.4428069228306,7.0,1.0,phase_2,go,300.0,250.0,1.0,,,,,,,,,cyan,square
0.0,2.0,2.0,0.0,5.0,5.0,311.2600879976526,7.0,1.0,phase_2,go,300.0,250.0,1.0,,,,,,,,,blue,diamond
0.0,2.0,2.0,0.0,5.0,5.0,375.2328898990527,7.0,1.0,phase_2,go,300.0,250.0,1.0,,,,,,,,,blue,diamond
0.0,8.0,4.0,1.0,5.0,0.0,0.0,7.0,1.0,phase_2,stop,300.0,250.0,4.0,,,,,,,,,white,I
0.0,6.0,2.0,1.0,6.0,0.0,0.0,7.0,1.0,phase_2,stop,350.0,250.0,4.0,,,,,,,,,orange,hexagon
0.0,7.0,3.0,1.0,5.0,5.0,379.2050569318235,7.0,1.0,phase_2,stop,350.0,300.0,3.0,,,,,,,,,yellow,circle
0.0,4.0,4.0,0.0,5.0,5.0,404.0492179337889,7.0,1.0,phase_2,go,300.0,300.0,1.0,,,,,,,,,magenta,flipped triangle
0.0,5.0,1.0,1.0,6.0,6.0,283.3562119631096,7.0,1.0,phase_2,go,300.0,300.0,1.0,,,,,,,,,gray,cross
0.0,5.0,1.0,1.0,5.0,5.0,407.8456840943545,7.0,1.0,phase_2,stop,300.0,300.0,3.0,,,,,,,,,gray,cross
0.0,2.0,2.0,0.0,6.0,6.0,295.6421460257843,7.0,1.0,phase_2,go,250.0,300.0,1.0,,,,,,,,,blue,diamond
0.0,7.0,3.0,1.0,5.0,5.0,306.0489870840683,7.0,1.0,phase_2,stop,250.0,300.0,3.0,,,,,,,,,yellow,circle
0.0,2.0,2.0,0.0,5.0,5.0,430.3828760748729,7.0,1.0,phase_2,go,200.0,300.0,1.0,,,,,,,,,blue,diamond
0.0,7.0,3.0,1.0,6.0,0.0,0.0,7.0,1.0,phase_2,stop,200.0,300.0,4.0,,,,,,,,,yellow,circle
0.0,2.0,2.0,0.0,6.0,6.0,785.0165260024369,8.0,1.0,phase_2,go,200.0,350.0,1.0,,,,,,,,,blue,diamond
0.0,5.0,1.0,1.0,6.0,6.0,438.4901360608637,8.0,1.0,phase_2,go,200.0,350.0,1.0,,,,,,,,,gray,cross
0.0,7.0,3.0,1.0,6.0,6.0,469.9763220269233,8.0,1.0,phase_2,stop,200.0,350.0,3.0,,,,,,,,,yellow,circle
0.0,3.0,3.0,0.0,6.0,6.0,527.6368040358648,8.0,1.0,phase_2,go,200.0,300.0,1.0,,,,,,,,,green,triangle
0.0,8.0,4.0,1.0,6.0,0.0,0.0,8.0,1.0,phase_2,stop,200.0,300.0,4.0,,,,,,,,,white,I
0.0,8.0,4.0,1.0,6.0,6.0,612.5509559642524,8.0,1.0,phase_2,go,200.0,350.0,1.0,,,,,,,,,white,I
0.0,4.0,4.0,0.0,6.0,6.0,494.0785160288214,8.0,1.0,phase_2,go,200.0,350.0,1.0,,,,,,,,,magenta,flipped triangle
0.0,5.0,1.0,1.0,6.0,0.0,0.0,8.0,1.0,phase_2,stop,200.0,350.0,4.0,,,,,,,,,gray,cross
0.0,7.0,3.0,1.0,6.0,6.0,610.4587250156328,8.0,1.0,phase_2,go,200.0,400.0,1.0,,,,,,,,,yellow,circle
0.0,2.0,2.0,0.0,5.0,5.0,589.4918189151213,8.0,1.0,phase_2,go,200.0,400.0,1.0,,,,,,,,,blue,diamond
0.0,2.0,2.0,0.0,6.0,6.0,572.3267839057371,8.0,1.0,phase_2,go,200.0,400.0,1.0,,,,,,,,,blue,diamond
0.0,1.0,1.0,0.0,6.0,6.0,561.8218450108543,8.0,1.0,phase_2,go,200.0,400.0,1.0,,,,,,,,,cyan,square
0.0,1.0,1.0,0.0,5.0,5.0,546.5314110042527,8.0,1.0,phase_2,go,200.0,400.0,1.0,,,,,,,,,cyan,square
0.0,7.0,3.0,1.0,5.0,0.0,0.0,8.0,1.0,phase_2,stop,200.0,400.0,4.0,,,,,,,,,yellow,circle
0.0,8.0,4.0,1.0,6.0,6.0,569.7623150190338,8.0,1.0,phase_2,go,250.0,400.0,1.0,,,,,,,,,white,I
0.0,3.0,3.0,0.0,6.0,6.0,537.3059209669009,8.0,1.0,phase_2,go,250.0,400.0,1.0,,,,,,,,,green,triangle
0.0,5.0,1.0,1.0,6.0,0.0,0.0,8.0,1.0,phase_2,stop,250.0,400.0,4.0,,,,,,,,,gray,cross
0.0,8.0,4.0,1.0,6.0,0.0,0.0,8.0,1.0,phase_2,stop,250.0,450.0,4.0,,,,,,,,,white,I
0.0,4.0,4.0,0.0,6.0,6.0,584.8007339518517,8.0,1.0,phase_2,go,250.0,500.0,1.0,,,,,,,,,magenta,flipped triangle
0.0,1.0,1.0,0.0,6.0,6.0,685.3046829346567,8.0,1.0,phase_2,go,250.0,500.0,1.0,,,,,,,,,cyan,square
0.0,2.0,2.0,0.0,6.0,6.0,639.289814978838,8.0,1.0,phase_2,go,250.0,500.0,1.0,,,,,,,,,blue,diamond
0.0,3.0,3.0,0.0,5.0,5.0,645.6655269721523,8.0,1.0,phase_2,go,250.0,500.0,1.0,,,,,,,,,green,triangle
0.0,5.0,1.0,1.0,5.0,0.0,0.0,8.0,1.0,phase_2,stop,250.0,500.0,4.0,,,,,,,,,gray,cross
0.0,1.0,1.0,0.0,5.0,5.0,618.8113649841398,8.0,1.0,phase_2,go,300.0,500.0,1.0,,,,,,,,,cyan,square
0.0,1.0,1.0,0.0,5.0,5.0,577.6783570181578,8.0,1.0,phase_2,go,300.0,500.0,1.0,,,,,,,,,cyan,square
0.0,6.0,2.0,1.0,5.0,0.0,0.0,8.0,1.0,phase_2,stop,300.0,500.0,4.0,,,,,,,,,orange,hexagon
0.0,8.0,4.0,1.0,6.0,6.0,546.6696670046076,8.0,1.0,phase_2,go,350.0,500.0,1.0,,,,,,,,,white,I
0.0,7.0,3.0,1.0,6.0,0.0,0.0,8.0,1.0,phase_2,stop,350.0,500.0,4.0,,,,,,,,,yellow,circle
0.0,6.0,2.0,1.0,6.0,6.0,673.7860599532723,8.0,1.0,phase_2,stop,350.0,550.0,3.0,,,,,,,,,orange,hexagon
0.0,2.0,2.0,0.0,6.0,6.0,840.1527979876846,8.0,1.0,phase_2,go,350.0,500.0,1.0,,,,,,,,,blue,diamond
0.0,2.0,2.0,0.0,6.0,6.0,567.5013499567285,8.0,1.0,phase_2,go,350.0,500.0,1.0,,,,,,,,,blue,diamond
0.0,3.0,3.0,0.0,5.0,5.0,553.9275640621781,8.0,1.0,phase_2,go,350.0,500.0,1.0,,,,,,,,,green,triangle
0.0,3.0,3.0,0.0,5.0,5.0,640.3551240218803,8.0,1.0,phase_2,go,350.0,500.0,1.0,,,,,,,,,green,triangle
0.0,4.0,4.0,0.0,5.0,5.0,589.4594979472458,8.0,1.0,phase_2,go,350.0,500.0,1.0,,,,,,,,,magenta,flipped triangle
0.0,1.0,1.0,0.0,5.0,5.0,645.8320149686188,8.0,1.0,phase_2,go,350.0,500.0,1.0,,,,,,,,,cyan,square
0.0,8.0,4.0,1.0,6.0,6.0,519.3701310781762,8.0,1.0,phase_2,stop,350.0,500.0,3.0,,,,,,,,,white,I
0.0,7.0,3.0,1.0,7.0,3.0,1730.610775994137,1.0,2.0,phase_3,,,,,196.0,4.0,49.0,147.0,196.0,98.0,245.0,294.0,yellow,circle
0.0,6.0,2.0,1.0,7.0,4.0,4413.837050902657,1.0,1.0,phase_3,,,,,108.0,2.0,324.0,270.0,216.0,108.0,54.0,162.0,orange,hexagon
0.0,7.0,3.0,1.0,7.0,1.0,2144.2950669443235,1.0,4.0,phase_3,,,,,234.0,6.0,234.0,117.0,39.0,156.0,195.0,78.0,yellow,circle
0.0,7.0,3.0,1.0,7.0,5.0,2182.350031915121,1.0,1.0,phase_3,,,,,216.0,4.0,162.0,324.0,54.0,270.0,216.0,108.0,yellow,circle
0.0,6.0,2.0,1.0,7.0,2.0,1609.295887988992,1.0,1.0,phase_3,,,,,136.0,4.0,102.0,136.0,170.0,34.0,204.0,68.0,orange,hexagon
0.0,6.0,2.0,1.0,7.0,5.0,1432.5796971097589,1.0,1.0,phase_3,,,,,136.0,4.0,204.0,102.0,68.0,170.0,136.0,34.0,orange,hexagon
0.0,2.0,2.0,0.0,7.0,5.0,2210.289465961978,1.0,1.0,phase_3,,,,,147.0,3.0,196.0,49.0,98.0,245.0,147.0,294.0,blue,diamond
0.0,5.0,1.0,1.0,7.0,2.0,1621.3268579449505,1.0,1.0,phase_3,,,,,162.0,3.0,324.0,162.0,216.0,54.0,270.0,108.0,gray,cross
0.0,5.0,1.0,1.0,7.0,4.0,1693.152748979628,1.0,1.0,phase_3,,,,,216.0,4.0,162.0,54.0,108.0,216.0,324.0,270.0,gray,cross
0.0,3.0,3.0,0.0,7.0,2.0,1686.7415430024266,1.0,1.0,phase_3,,,,,264.0,6.0,132.0,264.0,176.0,88.0,44.0,220.0,green,triangle
0.0,5.0,1.0,1.0,7.0,3.0,1153.922897996381,1.0,1.0,phase_3,,,,,264.0,6.0,132.0,220.0,264.0,44.0,176.0,88.0,gray,cross
0.0,8.0,4.0,1.0,7.0,3.0,1572.2897310042754,1.0,1.0,phase_3,,,,,196.0,4.0,98.0,294.0,196.0,245.0,49.0,147.0,white,I
0.0,4.0,4.0,0.0,7.0,4.0,1658.2978940568864,1.0,1.0,phase_3,,,,,245.0,5.0,294.0,98.0,196.0,245.0,147.0,49.0,magenta,flipped triangle
0.0,6.0,2.0,1.0,7.0,1.0,2309.880779008381,1.0,1.0,phase_3,,,,,117.0,3.0,117.0,39.0,234.0,156.0,78.0,195.0,orange,hexagon
0.0,8.0,4.0,1.0,7.0,6.0,1824.733111076057,1.0,1.0,phase_3,,,,,216.0,4.0,324.0,162.0,108.0,270.0,54.0,216.0,white,I
0.0,1.0,1.0,0.0,7.0,5.0,1230.820746975951,1.0,1.0,phase_3,,,,,102.0,3.0,34.0,170.0,136.0,68.0,102.0,204.0,cyan,square
0.0,6.0,2.0,1.0,7.0,6.0,2408.269688952714,1.0,1.0,phase_3,,,,,108.0,2.0,216.0,270.0,162.0,54.0,324.0,108.0,orange,hexagon
0.0,1.0,1.0,0.0,7.0,3.0,1953.185520018451,1.0,1.0,phase_3,,,,,196.0,4.0,147.0,245.0,196.0,294.0,98.0,49.0,cyan,square
0.0,6.0,2.0,1.0,7.0,5.0,2765.803701011464,1.0,1.0,phase_3,,,,,156.0,4.0,195.0,78.0,39.0,117.0,156.0,234.0,orange,hexagon
0.0,2.0,2.0,0.0,7.0,6.0,1669.7619559708985,1.0,1.0,phase_3,,,,,132.0,3.0,220.0,264.0,88.0,176.0,44.0,132.0,blue,diamond
0.0,2.0,2.0,0.0,7.0,6.0,1504.3189589632675,2.0,1.0,phase_3,,,,,216.0,4.0,54.0,162.0,324.0,108.0,270.0,216.0,blue,diamond
0.0,6.0,2.0,1.0,7.0,1.0,1478.7485980195925,2.0,1.0,phase_3,,,,,147.0,3.0,147.0,196.0,49.0,245.0,294.0,98.0,orange,hexagon
0.0,4.0,4.0,0.0,7.0,2.0,1507.369983009994,2.0,1.0,phase_3,,,,,162.0,3.0,54.0,162.0,324.0,216.0,270.0,108.0,magenta,flipped triangle
0.0,1.0,1.0,0.0,7.0,1.0,1788.086568005383,2.0,1.0,phase_3,,,,,102.0,3.0,102.0,170.0,136.0,204.0,34.0,68.0,cyan,square
0.0,8.0,4.0,1.0,7.0,5.0,1781.4535489305854,2.0,1.0,phase_3,,,,,204.0,6.0,136.0,102.0,34.0,170.0,204.0,68.0,white,I
0.0,5.0,1.0,1.0,7.0,3.0,1804.166343063116,2.0,1.0,phase_3,,,,,170.0,5.0,102.0,136.0,170.0,204.0,68.0,34.0,gray,cross
0.0,2.0,2.0,0.0,7.0,1.0,1416.5805500233546,2.0,1.0,phase_3,,,,,176.0,4.0,176.0,264.0,44.0,220.0,88.0,132.0,blue,diamond
0.0,6.0,2.0,1.0,7.0,6.0,1408.6847610305997,2.0,1.0,phase_3,,,,,176.0,4.0,44.0,264.0,132.0,220.0,88.0,176.0,orange,hexagon
0.0,2.0,2.0,0.0,7.0,1.0,1530.7979960925877,2.0,1.0,phase_3,,,,,170.0,5.0,170.0,204.0,102.0,136.0,34.0,68.0,blue,diamond
0.0,3.0,3.0,0.0,7.0,5.0,1889.4273670157415,2.0,1.0,phase_3,,,,,102.0,3.0,204.0,170.0,34.0,68.0,102.0,136.0,green,triangle
0.0,7.0,3.0,1.0,7.0,1.0,1906.7619510460645,2.0,1.0,phase_3,,,,,136.0,4.0,136.0,102.0,170.0,34.0,204.0,68.0,yellow,circle
0.0,1.0,1.0,0.0,7.0,1.0,2183.3704999880865,2.0,1.0,phase_3,,,,,176.0,4.0,176.0,132.0,264.0,88.0,220.0,44.0,cyan,square
0.0,8.0,4.0,1.0,7.0,4.0,1373.9147239830345,2.0,1.0,phase_3,,,,,204.0,6.0,136.0,68.0,170.0,204.0,102.0,34.0,white,I
0.0,3.0,3.0,0.0,7.0,1.0,1210.2049009408802,2.0,1.0,phase_3,,,,,216.0,4.0,216.0,324.0,270.0,54.0,162.0,108.0,green,triangle
0.0,1.0,1.0,0.0,7.0,3.0,928.04188397713,2.0,1.0,phase_3,,,,,117.0,3.0,39.0,195.0,117.0,156.0,78.0,234.0,cyan,square
0.0,2.0,2.0,0.0,7.0,6.0,1157.8730179462582,2.0,1.0,phase_3,,,,,156.0,4.0,117.0,234.0,78.0,195.0,39.0,156.0,blue,diamond
0.0,4.0,4.0,0.0,7.0,6.0,1981.1448729597032,2.0,1.0,phase_3,,,,,132.0,3.0,44.0,88.0,176.0,264.0,220.0,132.0,magenta,flipped triangle
0.0,8.0,4.0,1.0,7.0,5.0,982.6832860708236,2.0,1.0,phase_3,,,,,220.0,5.0,176.0,132.0,88.0,44.0,220.0,264.0,white,I
0.0,8.0,4.0,1.0,7.0,4.0,1744.9371879920363,2.0,1.0,phase_3,,,,,245.0,5.0,196.0,294.0,98.0,245.0,147.0,49.0,white,I
0.0,2.0,2.0,0.0,7.0,1.0,1330.1569889299572,2.0,1.0,phase_3,,,,,147.0,3.0,147.0,294.0,196.0,98.0,49.0,245.0,blue,diamond
0.0,1.0,1.0,0.0,7.0,6.0,1934.2731930082664,3.0,1.0,phase_3,,,,,162.0,3.0,108.0,324.0,54.0,270.0,216.0,162.0,cyan,square
0.0,6.0,2.0,1.0,7.0,1.0,2468.8001970062032,3.0,1.0,phase_3,,,,,220.0,5.0,220.0,176.0,44.0,132.0,264.0,88.0,orange,hexagon
0.0,3.0,3.0,0.0,7.0,4.0,1616.9666019268334,3.0,1.0,phase_3,,,,,132.0,3.0,176.0,44.0,220.0,132.0,88.0,264.0,green,triangle
0.0,2.0,2.0,0.0,7.0,5.0,1475.8169210981578,3.0,1.0,phase_3,,,,,156.0,4.0,39.0,117.0,234.0,78.0,156.0,195.0,blue,diamond
0.0,1.0,1.0,0.0,7.0,6.0,1153.5038370639086,3.0,1.0,phase_3,,,,,162.0,3.0,54.0,216.0,108.0,324.0,270.0,162.0,cyan,square
0.0,1.0,1.0,0.0,7.0,1.0,1475.656746071763,3.0,1.0,phase_3,,,,,156.0,4.0,156.0,78.0,234.0,195.0,39.0,117.0,cyan,square
0.0,4.0,4.0,0.0,7.0,3.0,2212.178686051629,3.0,1.0,phase_3,,,,,136.0,4.0,34.0,204.0,136.0,68.0,170.0,102.0,magenta,flipped triangle
0.0,2.0,2.0,0.0,7.0,5.0,1943.0589620023968,3.0,1.0,phase_3,,,,,162.0,3.0,270.0,54.0,324.0,108.0,162.0,216.0,blue,diamond
0.0,6.0,2.0,1.0,7.0,2.0,2032.2762719588354,3.0,1.0,phase_3,,,,,98.0,2.0,49.0,98.0,196.0,245.0,294.0,147.0,orange,hexagon
0.0,4.0,4.0,0.0,7.0,2.0,2971.479932079092,3.0,1.0,phase_3,,,,,245.0,5.0,49.0,245.0,98.0,294.0,147.0,196.0,magenta,flipped triangle
0.0,5.0,1.0,1.0,7.0,6.0,2019.9919110164046,3.0,1.0,phase_3,,,,,204.0,6.0,68.0,170.0,34.0,136.0,102.0,204.0,gray,cross
0.0,4.0,4.0,0.0,7.0,3.0,1523.417119984515,3.0,1.0,phase_3,,,,,136.0,4.0,102.0,170.0,136.0,34.0,68.0,204.0,magenta,flipped triangle
0.0,7.0,3.0,1.0,7.0,1.0,1974.7106959111989,3.0,1.0,phase_3,,,,,220.0,5.0,220.0,264.0,176.0,44.0,88.0,132.0,yellow,circle
0.0,1.0,1.0,0.0,7.0,4.0,2367.900225915946,3.0,1.0,phase_3,,,,,49.0,1.0,245.0,196.0,98.0,49.0,147.0,294.0,cyan,square
0.0,5.0,1.0,1.0,7.0,4.0,1769.128788029775,3.0,1.0,phase_3,,,,,234.0,6.0,195.0,117.0,156.0,234.0,78.0,39.0,gray,cross
0.0,3.0,3.0,0.0,7.0,1.0,1619.9456689646468,3.0,1.0,phase_3,,,,,156.0,4.0,156.0,117.0,39.0,195.0,234.0,78.0,green,triangle
0.0,3.0,3.0,0.0,7.0,3.0,1769.1771029494705,3.0,1.0,phase_3,,,,,196.0,4.0,147.0,49.0,196.0,98.0,294.0,245.0,green,triangle
0.0,7.0,3.0,1.0,7.0,5.0,1067.6233179401606,3.0,1.0,phase_3,,,,,78.0,2.0,195.0,156.0,234.0,39.0,78.0,117.0,yellow,circle
0.0,8.0,4.0,1.0,7.0,2.0,1372.3298839759082,3.0,1.0,phase_3,,,,,324.0,6.0,216.0,324.0,162.0,54.0,108.0,270.0,white,I
0.0,4.0,4.0,0.0,7.0,1.0,2334.9788238992915,3.0,1.0,phase_3,,,,,117.0,3.0,117.0,195.0,156.0,234.0,78.0,39.0,magenta,flipped triangle
0.0,5.0,1.0,1.0,7.0,6.0,956.878787954338,4.0,1.0,phase_3,,,,,196.0,4.0,98.0,294.0,245.0,147.0,49.0,196.0,gray,cross
0.0,4.0,4.0,0.0,7.0,5.0,966.4288579951972,4.0,1.0,phase_3,,,,,108.0,2.0,216.0,54.0,162.0,270.0,108.0,324.0,magenta,flipped triangle
0.0,2.0,2.0,0.0,7.0,2.0,863.654540036805,4.0,1.0,phase_3,,,,,102.0,3.0,136.0,102.0,204.0,68.0,170.0,34.0,blue,diamond
0.0,7.0,3.0,1.0,7.0,5.0,2135.0332929287106,4.0,1.0,phase_3,,,,,108.0,2.0,162.0,216.0,54.0,270.0,108.0,324.0,yellow,circle
0.0,7.0,3.0,1.0,7.0,3.0,2633.882901049219,4.0,1.0,phase_3,,,,,98.0,2.0,245.0,147.0,98.0,196.0,294.0,49.0,yellow,circle
0.0,5.0,1.0,1.0,7.0,3.0,1306.212481926195,4.0,1.0,phase_3,,,,,176.0,4.0,220.0,132.0,176.0,264.0,44.0,88.0,gray,cross
0.0,3.0,3.0,0.0,7.0,5.0,866.5977219352499,4.0,1.0,phase_3,,,,,234.0,6.0,156.0,195.0,78.0,117.0,234.0,39.0,green,triangle
0.0,8.0,4.0,1.0,7.0,2.0,822.0255579799414,4.0,1.0,phase_3,,,,,176.0,4.0,88.0,176.0,220.0,44.0,264.0,132.0,white,I
0.0,3.0,3.0,0.0,7.0,4.0,1989.3457640428096,4.0,1.0,phase_3,,,,,270.0,5.0,162.0,216.0,324.0,270.0,108.0,54.0,green,triangle
0.0,8.0,4.0,1.0,7.0,1.0,902.796808979474,4.0,1.0,phase_3,,,,,117.0,3.0,117.0,39.0,234.0,156.0,78.0,195.0,white,I
0.0,7.0,3.0,1.0,7.0,5.0,2530.429572914727,4.0,1.0,phase_3,,,,,68.0,2.0,136.0,34.0,204.0,102.0,68.0,170.0,yellow,circle
0.0,4.0,4.0,0.0,7.0,6.0,1449.796158936806,4.0,1.0,phase_3,,,,,156.0,4.0,195.0,39.0,117.0,234.0,78.0,156.0,magenta,flipped triangle
0.0,4.0,4.0,0.0,7.0,1.0,1037.6067539909857,4.0,1.0,phase_3,,,,,264.0,6.0,264.0,220.0,44.0,176.0,88.0,132.0,magenta,flipped triangle
0.0,1.0,1.0,0.0,7.0,5.0,919.765728060156,4.0,1.0,phase_3,,,,,176.0,4.0,44.0,88.0,132.0,220.0,176.0,264.0,cyan,square
0.0,3.0,3.0,0.0,7.0,2.0,2056.671467027627,4.0,1.0,phase_3,,,,,170.0,5.0,68.0,170.0,136.0,34.0,102.0,204.0,green,triangle
0.0,5.0,1.0,1.0,7.0,6.0,1143.898484995589,4.0,1.0,phase_3,,,,,294.0,6.0,196.0,49.0,245.0,147.0,98.0,294.0,gray,cross
0.0,5.0,1.0,1.0,7.0,4.0,1441.3263369351623,4.0,1.0,phase_3,,,,,195.0,5.0,117.0,39.0,156.0,195.0,234.0,78.0,gray,cross
0.0,7.0,3.0,1.0,7.0,1.0,2637.577836983837,4.0,1.0,phase_3,,,,,88.0,2.0,88.0,176.0,132.0,264.0,220.0,44.0,yellow,circle
0.0,8.0,4.0,1.0,7.0,6.0,2943.094659014605,4.0,1.0,phase_3,,,,,195.0,5.0,234.0,39.0,117.0,156.0,78.0,195.0,white,I
0.0,3.0,3.0,0.0,7.0,2.0,1078.1104580964893,4.0,1.0,phase_3,,,,,245.0,5.0,98.0,245.0,147.0,196.0,294.0,49.0,green,triangle
