raw_reward_magnitude,stim_reward,stepwise_reward_magnitude,paired_with_stopping,quadrant,response,reaction_time,block,num_trial_presentations,which_part,stop_signal_trial_type,left_SSD,right_SSD,accuracy,chosen_bidding_amount,chosen_bidding_level,possible_bid_1,possible_bid_2,possible_bid_3,possible_bid_4,possible_bid_5,possible_bid_6,color_text,shape_text
194.0,7.0,3.0,1.0,1.0,1.0,457.888392964378,1.0,1.0,part_1,,,,,,,,,,,,,yellow,I
116.0,2.0,2.0,0.0,2.0,2.0,425.2836268860847,1.0,1.0,part_1,,,,,,,,,,,,,gray,flipped triangle
206.0,3.0,3.0,0.0,3.0,3.0,411.4506440237164,1.0,1.0,part_1,,,,,,,,,,,,,green,triangle
111.0,2.0,2.0,0.0,4.0,4.0,355.1142769865691,1.0,1.0,part_1,,,,,,,,,,,,,gray,flipped triangle
180.0,3.0,3.0,0.0,3.0,3.0,341.1635151132941,1.0,1.0,part_1,,,,,,,,,,,,,green,triangle
216.0,7.0,3.0,1.0,2.0,2.0,379.5213028788566,1.0,1.0,part_1,,,,,,,,,,,,,yellow,I
0.0,4.0,0.0,0.0,1.0,1.0,287.1580859646201,1.0,1.0,part_1,,,,,,,,,,,,,blue,square
47.0,5.0,1.0,1.0,1.0,1.0,389.9508169852197,1.0,1.0,part_1,,,,,,,,,,,,,orange,cross
67.0,1.0,1.0,0.0,3.0,3.0,319.5405609440058,1.0,1.0,part_1,,,,,,,,,,,,,magenta,diamond
44.0,1.0,1.0,0.0,4.0,4.0,325.6650518160313,1.0,1.0,part_1,,,,,,,,,,,,,magenta,diamond
91.0,6.0,2.0,1.0,1.0,1.0,299.764446914196,1.0,1.0,part_1,,,,,,,,,,,,,white,hexagon
403.0,4.0,4.0,0.0,2.0,2.0,320.4678629990667,1.0,1.0,part_1,,,,,,,,,,,,,blue,square
0.0,4.0,0.0,0.0,4.0,4.0,426.4549710787833,1.0,1.0,part_1,,,,,,,,,,,,,blue,square
392.0,8.0,4.0,1.0,2.0,2.0,334.7775309812277,1.0,1.0,part_1,,,,,,,,,,,,,cyan,circle
390.0,4.0,4.0,0.0,1.0,1.0,284.5622438471764,1.0,1.0,part_1,,,,,,,,,,,,,blue,square
201.0,3.0,3.0,0.0,4.0,4.0,290.2383198961615,1.0,1.0,part_1,,,,,,,,,,,,,green,triangle
0.0,7.0,0.0,1.0,3.0,3.0,320.3494278714061,1.0,1.0,part_1,,,,,,,,,,,,,yellow,I
397.0,4.0,4.0,0.0,4.0,4.0,317.5633130595088,1.0,1.0,part_1,,,,,,,,,,,,,blue,square
75.0,6.0,2.0,1.0,4.0,4.0,337.1176589280367,1.0,1.0,part_1,,,,,,,,,,,,,white,hexagon
0.0,5.0,0.0,1.0,1.0,1.0,325.4968139808625,1.0,1.0,part_1,,,,,,,,,,,,,orange,cross
0.0,8.0,0.0,1.0,1.0,1.0,383.143160957843,1.0,1.0,part_1,,,,,,,,,,,,,cyan,circle
116.0,6.0,2.0,1.0,3.0,3.0,439.5160679705441,1.0,1.0,part_1,,,,,,,,,,,,,white,hexagon
386.0,4.0,4.0,0.0,3.0,3.0,313.6375579051673,1.0,1.0,part_1,,,,,,,,,,,,,blue,square
98.0,6.0,2.0,1.0,1.0,1.0,336.9339951314032,1.0,1.0,part_1,,,,,,,,,,,,,white,hexagon
32.0,5.0,1.0,1.0,4.0,4.0,301.1356571223587,1.0,1.0,part_1,,,,,,,,,,,,,orange,cross
41.0,5.0,1.0,1.0,2.0,2.0,350.8349261246621,1.0,1.0,part_1,,,,,,,,,,,,,orange,cross
115.0,6.0,2.0,1.0,3.0,3.0,299.7143601533025,1.0,1.0,part_1,,,,,,,,,,,,,white,hexagon
0.0,1.0,0.0,0.0,1.0,1.0,281.8436280358583,1.0,1.0,part_1,,,,,,,,,,,,,magenta,diamond
0.0,2.0,0.0,0.0,1.0,1.0,415.0077160447836,1.0,1.0,part_1,,,,,,,,,,,,,gray,flipped triangle
55.0,5.0,1.0,1.0,1.0,1.0,291.5927399881184,1.0,1.0,part_1,,,,,,,,,,,,,orange,cross
83.0,2.0,2.0,0.0,4.0,4.0,312.2948699165135,1.0,1.0,part_1,,,,,,,,,,,,,gray,flipped triangle
40.0,5.0,1.0,1.0,1.0,1.0,266.6884888894856,1.0,1.0,part_1,,,,,,,,,,,,,orange,cross
91.0,2.0,2.0,0.0,2.0,2.0,353.263369994238,1.0,1.0,part_1,,,,,,,,,,,,,gray,flipped triangle
78.0,2.0,2.0,0.0,3.0,3.0,268.2018019258976,1.0,1.0,part_1,,,,,,,,,,,,,gray,flipped triangle
0.0,6.0,0.0,1.0,4.0,4.0,291.3404239807278,1.0,1.0,part_1,,,,,,,,,,,,,white,hexagon
76.0,2.0,2.0,0.0,1.0,1.0,369.7346351109445,1.0,1.0,part_1,,,,,,,,,,,,,gray,flipped triangle
57.0,1.0,1.0,0.0,3.0,3.0,324.2353429086506,1.0,1.0,part_1,,,,,,,,,,,,,magenta,diamond
382.0,8.0,4.0,1.0,3.0,3.0,360.1154510397464,1.0,1.0,part_1,,,,,,,,,,,,,cyan,circle
0.0,6.0,0.0,1.0,1.0,1.0,372.8491340298205,1.0,1.0,part_1,,,,,,,,,,,,,white,hexagon
415.0,4.0,4.0,0.0,2.0,2.0,284.1147468425333,1.0,1.0,part_1,,,,,,,,,,,,,blue,square
178.0,3.0,3.0,0.0,2.0,2.0,370.7237830385566,1.0,2.0,part_1,,,,,,,,,,,,,green,triangle
64.0,1.0,1.0,0.0,4.0,4.0,358.3644479513168,1.0,1.0,part_1,,,,,,,,,,,,,magenta,diamond
176.0,7.0,3.0,1.0,4.0,4.0,414.3344091717154,1.0,1.0,part_1,,,,,,,,,,,,,yellow,I
67.0,5.0,1.0,1.0,3.0,3.0,322.0435678958893,1.0,1.0,part_1,,,,,,,,,,,,,orange,cross
189.0,7.0,3.0,1.0,4.0,4.0,423.2027288526296,1.0,1.0,part_1,,,,,,,,,,,,,yellow,I
0.0,1.0,0.0,0.0,3.0,3.0,354.2971699498594,1.0,1.0,part_1,,,,,,,,,,,,,magenta,diamond
379.0,4.0,4.0,0.0,4.0,4.0,296.060775173828,1.0,1.0,part_1,,,,,,,,,,,,,blue,square
195.0,3.0,3.0,0.0,2.0,2.0,306.7189229186624,1.0,1.0,part_1,,,,,,,,,,,,,green,triangle
0.0,3.0,0.0,0.0,3.0,3.0,305.1977739669382,1.0,1.0,part_1,,,,,,,,,,,,,green,triangle
200.0,7.0,3.0,1.0,3.0,3.0,340.7780199777335,1.0,1.0,part_1,,,,,,,,,,,,,yellow,I
178.0,7.0,3.0,1.0,4.0,4.0,308.4142999723553,1.0,1.0,part_1,,,,,,,,,,,,,yellow,I
49.0,5.0,1.0,1.0,4.0,4.0,277.3309100884944,1.0,1.0,part_1,,,,,,,,,,,,,orange,cross
112.0,2.0,2.0,0.0,3.0,3.0,355.898278998211,1.0,1.0,part_1,,,,,,,,,,,,,gray,flipped triangle
0.0,7.0,0.0,1.0,1.0,1.0,351.3640197925269,1.0,1.0,part_1,,,,,,,,,,,,,yellow,I
189.0,3.0,3.0,0.0,3.0,3.0,366.4733089972287,1.0,1.0,part_1,,,,,,,,,,,,,green,triangle
224.0,7.0,3.0,1.0,1.0,1.0,377.0387331023812,1.0,1.0,part_1,,,,,,,,,,,,,yellow,I
55.0,1.0,1.0,0.0,4.0,4.0,545.0187290553004,1.0,1.0,part_1,,,,,,,,,,,,,magenta,diamond
81.0,6.0,2.0,1.0,3.0,3.0,379.7327759675681,1.0,1.0,part_1,,,,,,,,,,,,,white,hexagon
406.0,4.0,4.0,0.0,4.0,4.0,342.1595629770309,1.0,1.0,part_1,,,,,,,,,,,,,blue,square
399.0,4.0,4.0,0.0,1.0,1.0,292.5989530049264,1.0,1.0,part_1,,,,,,,,,,,,,blue,square
0.0,1.0,0.0,0.0,2.0,2.0,319.7589099872857,1.0,1.0,part_1,,,,,,,,,,,,,magenta,diamond
111.0,2.0,2.0,0.0,1.0,1.0,292.6085458602756,1.0,1.0,part_1,,,,,,,,,,,,,gray,flipped triangle
190.0,7.0,3.0,1.0,4.0,4.0,401.84324490837747,1.0,1.0,part_1,,,,,,,,,,,,,yellow,I
62.0,5.0,1.0,1.0,3.0,3.0,342.0436480082571,1.0,1.0,part_1,,,,,,,,,,,,,orange,cross
111.0,6.0,2.0,1.0,2.0,2.0,325.0001079868525,1.0,1.0,part_1,,,,,,,,,,,,,white,hexagon
425.0,4.0,4.0,0.0,2.0,2.0,393.7274790368974,1.0,1.0,part_1,,,,,,,,,,,,,blue,square
376.0,4.0,4.0,0.0,4.0,4.0,308.2497110590338,1.0,1.0,part_1,,,,,,,,,,,,,blue,square
29.0,1.0,1.0,0.0,4.0,4.0,362.0230471715331,1.0,1.0,part_1,,,,,,,,,,,,,magenta,diamond
68.0,5.0,1.0,1.0,4.0,4.0,390.6482919119298,1.0,1.0,part_1,,,,,,,,,,,,,orange,cross
76.0,6.0,2.0,1.0,2.0,2.0,501.05581688694656,1.0,1.0,part_1,,,,,,,,,,,,,white,hexagon
405.0,4.0,4.0,0.0,1.0,1.0,366.7903279419988,1.0,1.0,part_1,,,,,,,,,,,,,blue,square
180.0,3.0,3.0,0.0,2.0,2.0,429.1039989329874,1.0,1.0,part_1,,,,,,,,,,,,,green,triangle
184.0,7.0,3.0,1.0,2.0,2.0,473.5976418014616,1.0,1.0,part_1,,,,,,,,,,,,,yellow,I
60.0,5.0,1.0,1.0,3.0,3.0,438.6710298713296,1.0,1.0,part_1,,,,,,,,,,,,,orange,cross
0.0,5.0,0.0,1.0,1.0,1.0,372.4191889632493,1.0,1.0,part_1,,,,,,,,,,,,,orange,cross
0.0,4.0,0.0,0.0,4.0,4.0,375.1801450271159,1.0,1.0,part_1,,,,,,,,,,,,,blue,square
405.0,8.0,4.0,1.0,1.0,1.0,405.57931503281,1.0,1.0,part_1,,,,,,,,,,,,,cyan,circle
376.0,8.0,4.0,1.0,3.0,3.0,491.4729339070618,1.0,1.0,part_1,,,,,,,,,,,,,cyan,circle
85.0,2.0,2.0,0.0,3.0,3.0,397.0315798651427,1.0,1.0,part_1,,,,,,,,,,,,,gray,flipped triangle
113.0,2.0,2.0,0.0,1.0,1.0,384.6390978433192,1.0,1.0,part_1,,,,,,,,,,,,,gray,flipped triangle
76.0,2.0,2.0,0.0,3.0,3.0,305.0353170838207,1.0,1.0,part_1,,,,,,,,,,,,,gray,flipped triangle
25.0,5.0,1.0,1.0,1.0,1.0,338.1752090062946,1.0,1.0,part_1,,,,,,,,,,,,,orange,cross
425.0,4.0,4.0,0.0,3.0,3.0,394.8645289056003,1.0,1.0,part_1,,,,,,,,,,,,,blue,square
382.0,4.0,4.0,0.0,3.0,3.0,345.7530089654028,1.0,2.0,part_1,,,,,,,,,,,,,blue,square
58.0,1.0,1.0,0.0,3.0,3.0,614.8922459688038,1.0,1.0,part_1,,,,,,,,,,,,,magenta,diamond
123.0,6.0,2.0,1.0,1.0,1.0,465.3460679110139,1.0,1.0,part_1,,,,,,,,,,,,,white,hexagon
116.0,6.0,2.0,1.0,1.0,1.0,374.4841238949448,1.0,1.0,part_1,,,,,,,,,,,,,white,hexagon
51.0,1.0,1.0,0.0,2.0,2.0,461.8404398206621,1.0,1.0,part_1,,,,,,,,,,,,,magenta,diamond
97.0,2.0,2.0,0.0,2.0,2.0,423.5470909625292,1.0,1.0,part_1,,,,,,,,,,,,,gray,flipped triangle
384.0,4.0,4.0,0.0,2.0,2.0,395.9767599590122,1.0,1.0,part_1,,,,,,,,,,,,,blue,square
113.0,6.0,2.0,1.0,4.0,4.0,345.7029410637915,1.0,1.0,part_1,,,,,,,,,,,,,white,hexagon
0.0,4.0,0.0,0.0,2.0,2.0,341.1561958491802,1.0,1.0,part_1,,,,,,,,,,,,,blue,square
116.0,2.0,2.0,0.0,2.0,2.0,429.7436370979994,1.0,1.0,part_1,,,,,,,,,,,,,gray,flipped triangle
104.0,6.0,2.0,1.0,4.0,4.0,439.0444369055331,1.0,1.0,part_1,,,,,,,,,,,,,white,hexagon
108.0,2.0,2.0,0.0,4.0,4.0,463.6206929571926,1.0,1.0,part_1,,,,,,,,,,,,,gray,flipped triangle
35.0,1.0,1.0,0.0,2.0,2.0,377.6487270370126,1.0,1.0,part_1,,,,,,,,,,,,,magenta,diamond
425.0,8.0,4.0,1.0,3.0,3.0,453.1998371239751,1.0,1.0,part_1,,,,,,,,,,,,,cyan,circle
101.0,2.0,2.0,0.0,4.0,4.0,477.9102851171046,1.0,1.0,part_1,,,,,,,,,,,,,gray,flipped triangle
176.0,3.0,3.0,0.0,2.0,2.0,391.2650749552995,1.0,1.0,part_1,,,,,,,,,,,,,green,triangle
59.0,1.0,1.0,0.0,2.0,2.0,382.9904128797352,1.0,1.0,part_1,,,,,,,,,,,,,magenta,diamond
200.0,3.0,3.0,0.0,4.0,4.0,587.6690950244665,2.0,1.0,part_1,,,,,,,,,,,,,green,triangle
222.0,7.0,3.0,1.0,4.0,4.0,561.4922770764679,2.0,1.0,part_1,,,,,,,,,,,,,yellow,I
0.0,4.0,0.0,0.0,2.0,2.0,487.6801089849323,2.0,1.0,part_1,,,,,,,,,,,,,blue,square
124.0,6.0,2.0,1.0,3.0,3.0,521.3197669945657,2.0,1.0,part_1,,,,,,,,,,,,,white,hexagon
0.0,5.0,0.0,1.0,3.0,3.0,407.3346948716789,2.0,1.0,part_1,,,,,,,,,,,,,orange,cross
388.0,4.0,4.0,0.0,4.0,4.0,427.8606229927391,2.0,1.0,part_1,,,,,,,,,,,,,blue,square
211.0,3.0,3.0,0.0,3.0,3.0,342.9983640089631,2.0,1.0,part_1,,,,,,,,,,,,,green,triangle
0.0,3.0,0.0,0.0,2.0,2.0,390.1474210433662,2.0,1.0,part_1,,,,,,,,,,,,,green,triangle
189.0,3.0,3.0,0.0,3.0,3.0,316.1219030153006,2.0,1.0,part_1,,,,,,,,,,,,,green,triangle
385.0,4.0,4.0,0.0,2.0,2.0,432.2173970285803,2.0,1.0,part_1,,,,,,,,,,,,,blue,square
122.0,6.0,2.0,1.0,3.0,3.0,373.8978141918778,2.0,1.0,part_1,,,,,,,,,,,,,white,hexagon
124.0,2.0,2.0,0.0,4.0,4.0,449.3393800221383,2.0,1.0,part_1,,,,,,,,,,,,,gray,flipped triangle
0.0,3.0,0.0,0.0,1.0,1.0,509.1869831085205,2.0,1.0,part_1,,,,,,,,,,,,,green,triangle
0.0,8.0,0.0,1.0,1.0,1.0,562.717572087422,2.0,1.0,part_1,,,,,,,,,,,,,cyan,circle
0.0,8.0,0.0,1.0,3.0,3.0,400.7402358110994,2.0,1.0,part_1,,,,,,,,,,,,,cyan,circle
44.0,5.0,1.0,1.0,4.0,4.0,381.2929338309914,2.0,1.0,part_1,,,,,,,,,,,,,orange,cross
415.0,8.0,4.0,1.0,4.0,4.0,368.7863799277693,2.0,1.0,part_1,,,,,,,,,,,,,cyan,circle
0.0,3.0,0.0,0.0,1.0,1.0,378.4763049334287,2.0,1.0,part_1,,,,,,,,,,,,,green,triangle
112.0,6.0,2.0,1.0,1.0,1.0,385.2231979835778,2.0,1.0,part_1,,,,,,,,,,,,,white,hexagon
422.0,4.0,4.0,0.0,1.0,1.0,397.0705340616405,2.0,1.0,part_1,,,,,,,,,,,,,blue,square
0.0,1.0,0.0,0.0,3.0,3.0,395.258239004761,2.0,1.0,part_1,,,,,,,,,,,,,magenta,diamond
410.0,8.0,4.0,1.0,4.0,4.0,430.0311910919845,2.0,1.0,part_1,,,,,,,,,,,,,cyan,circle
43.0,5.0,1.0,1.0,3.0,3.0,385.8325430192053,2.0,1.0,part_1,,,,,,,,,,,,,orange,cross
81.0,2.0,2.0,0.0,3.0,3.0,311.4135691430419,2.0,1.0,part_1,,,,,,,,,,,,,gray,flipped triangle
0.0,6.0,0.0,1.0,4.0,4.0,598.7731879577041,2.0,1.0,part_1,,,,,,,,,,,,,white,hexagon
67.0,1.0,1.0,0.0,1.0,1.0,632.2012799791992,2.0,1.0,part_1,,,,,,,,,,,,,magenta,diamond
0.0,7.0,0.0,1.0,4.0,4.0,517.1412511263043,2.0,1.0,part_1,,,,,,,,,,,,,yellow,I
392.0,4.0,4.0,0.0,4.0,4.0,492.3710350412875,2.0,1.0,part_1,,,,,,,,,,,,,blue,square
225.0,3.0,3.0,0.0,1.0,1.0,521.4293310418725,2.0,1.0,part_1,,,,,,,,,,,,,green,triangle
190.0,3.0,3.0,0.0,3.0,3.0,365.8442259766161,2.0,1.0,part_1,,,,,,,,,,,,,green,triangle
398.0,8.0,4.0,1.0,2.0,2.0,482.2115178685635,2.0,1.0,part_1,,,,,,,,,,,,,cyan,circle
0.0,2.0,0.0,0.0,4.0,4.0,308.0508918501436,2.0,1.0,part_1,,,,,,,,,,,,,gray,flipped triangle
198.0,7.0,3.0,1.0,2.0,2.0,404.4598960317671,2.0,1.0,part_1,,,,,,,,,,,,,yellow,I
405.0,8.0,4.0,1.0,4.0,4.0,447.2854810301214,2.0,1.0,part_1,,,,,,,,,,,,,cyan,circle
207.0,3.0,3.0,0.0,1.0,1.0,366.2045758683234,2.0,1.0,part_1,,,,,,,,,,,,,green,triangle
0.0,6.0,0.0,1.0,1.0,1.0,642.1134991105646,2.0,1.0,part_1,,,,,,,,,,,,,white,hexagon
0.0,8.0,0.0,1.0,1.0,1.0,398.2547239866107,2.0,1.0,part_1,,,,,,,,,,,,,cyan,circle
39.0,1.0,1.0,0.0,4.0,4.0,336.2358759623021,2.0,1.0,part_1,,,,,,,,,,,,,magenta,diamond
400.0,8.0,4.0,1.0,3.0,3.0,416.7660297825932,2.0,1.0,part_1,,,,,,,,,,,,,cyan,circle
219.0,7.0,3.0,1.0,2.0,2.0,313.6210970114916,2.0,1.0,part_1,,,,,,,,,,,,,yellow,I
26.0,5.0,1.0,1.0,2.0,2.0,462.7222460694611,2.0,1.0,part_1,,,,,,,,,,,,,orange,cross
376.0,4.0,4.0,0.0,4.0,4.0,390.6152921263128,2.0,1.0,part_1,,,,,,,,,,,,,blue,square
0.0,1.0,0.0,0.0,2.0,2.0,560.7692690100521,2.0,1.0,part_1,,,,,,,,,,,,,magenta,diamond
60.0,5.0,1.0,1.0,4.0,4.0,356.7038960754871,2.0,1.0,part_1,,,,,,,,,,,,,orange,cross
193.0,7.0,3.0,1.0,3.0,3.0,444.5036239922046,2.0,1.0,part_1,,,,,,,,,,,,,yellow,I
97.0,6.0,2.0,1.0,2.0,2.0,360.9037799760699,2.0,1.0,part_1,,,,,,,,,,,,,white,hexagon
410.0,4.0,4.0,0.0,3.0,3.0,317.1071880497038,2.0,1.0,part_1,,,,,,,,,,,,,blue,square
36.0,5.0,1.0,1.0,3.0,3.0,287.3098419513553,2.0,1.0,part_1,,,,,,,,,,,,,orange,cross
207.0,3.0,3.0,0.0,4.0,4.0,348.273049108684,2.0,1.0,part_1,,,,,,,,,,,,,green,triangle
58.0,5.0,1.0,1.0,3.0,3.0,304.6162489335984,2.0,1.0,part_1,,,,,,,,,,,,,orange,cross
0.0,2.0,0.0,0.0,1.0,1.0,319.8933419771492,2.0,1.0,part_1,,,,,,,,,,,,,gray,flipped triangle
398.0,8.0,4.0,1.0,1.0,1.0,428.9504271000623,2.0,1.0,part_1,,,,,,,,,,,,,cyan,circle
84.0,6.0,2.0,1.0,2.0,2.0,407.3144400026649,2.0,1.0,part_1,,,,,,,,,,,,,white,hexagon
92.0,2.0,2.0,0.0,3.0,3.0,347.0807899720967,2.0,1.0,part_1,,,,,,,,,,,,,gray,flipped triangle
197.0,3.0,3.0,0.0,4.0,4.0,336.2768380902707,2.0,1.0,part_1,,,,,,,,,,,,,green,triangle
420.0,8.0,4.0,1.0,4.0,4.0,333.2899159286171,2.0,1.0,part_1,,,,,,,,,,,,,cyan,circle
54.0,1.0,1.0,0.0,3.0,3.0,521.4254220481962,2.0,1.0,part_1,,,,,,,,,,,,,magenta,diamond
0.0,7.0,0.0,1.0,3.0,3.0,321.0358340293169,2.0,1.0,part_1,,,,,,,,,,,,,yellow,I
92.0,6.0,2.0,1.0,4.0,4.0,470.7034011371434,2.0,1.0,part_1,,,,,,,,,,,,,white,hexagon
122.0,2.0,2.0,0.0,4.0,4.0,393.3965298347175,2.0,1.0,part_1,,,,,,,,,,,,,gray,flipped triangle
198.0,3.0,3.0,0.0,3.0,3.0,464.3055361229926,2.0,1.0,part_1,,,,,,,,,,,,,green,triangle
54.0,5.0,1.0,1.0,1.0,1.0,467.7820370998233,2.0,1.0,part_1,,,,,,,,,,,,,orange,cross
194.0,3.0,3.0,0.0,2.0,2.0,523.9456540439278,2.0,2.0,part_1,,,,,,,,,,,,,green,triangle
225.0,7.0,3.0,1.0,3.0,3.0,478.9377499837428,2.0,1.0,part_1,,,,,,,,,,,,,yellow,I
218.0,7.0,3.0,1.0,3.0,3.0,373.8038951996714,2.0,1.0,part_1,,,,,,,,,,,,,yellow,I
222.0,3.0,3.0,0.0,4.0,4.0,313.1424789316952,2.0,1.0,part_1,,,,,,,,,,,,,green,triangle
68.0,1.0,1.0,0.0,3.0,3.0,383.6308990139514,2.0,1.0,part_1,,,,,,,,,,,,,magenta,diamond
71.0,5.0,1.0,1.0,4.0,4.0,331.4191079698503,2.0,1.0,part_1,,,,,,,,,,,,,orange,cross
177.0,7.0,3.0,1.0,3.0,3.0,423.0943280272186,2.0,1.0,part_1,,,,,,,,,,,,,yellow,I
0.0,6.0,0.0,1.0,1.0,1.0,436.8189407978207,2.0,1.0,part_1,,,,,,,,,,,,,white,hexagon
200.0,3.0,3.0,0.0,3.0,3.0,387.6001820899546,2.0,1.0,part_1,,,,,,,,,,,,,green,triangle
53.0,5.0,1.0,1.0,4.0,4.0,382.7224280685186,2.0,1.0,part_1,,,,,,,,,,,,,orange,cross
405.0,4.0,4.0,0.0,1.0,1.0,435.350924031809,2.0,1.0,part_1,,,,,,,,,,,,,blue,square
26.0,1.0,1.0,0.0,4.0,4.0,390.1565081905573,2.0,1.0,part_1,,,,,,,,,,,,,magenta,diamond
53.0,1.0,1.0,0.0,3.0,3.0,341.1593600176275,2.0,1.0,part_1,,,,,,,,,,,,,magenta,diamond
0.0,7.0,0.0,1.0,1.0,1.0,464.4704069942236,2.0,1.0,part_1,,,,,,,,,,,,,yellow,I
400.0,4.0,4.0,0.0,2.0,2.0,357.6447949744761,2.0,1.0,part_1,,,,,,,,,,,,,blue,square
405.0,4.0,4.0,0.0,3.0,3.0,440.4553920030594,2.0,1.0,part_1,,,,,,,,,,,,,blue,square
86.0,6.0,2.0,1.0,3.0,3.0,358.7529400829226,2.0,1.0,part_1,,,,,,,,,,,,,white,hexagon
96.0,2.0,2.0,0.0,3.0,3.0,453.0059669632464,2.0,1.0,part_1,,,,,,,,,,,,,gray,flipped triangle
0.0,2.0,0.0,0.0,2.0,2.0,446.08216895721847,2.0,1.0,part_1,,,,,,,,,,,,,gray,flipped triangle
220.0,7.0,3.0,1.0,3.0,3.0,365.1739119086414,2.0,1.0,part_1,,,,,,,,,,,,,yellow,I
109.0,6.0,2.0,1.0,2.0,2.0,497.5026010069996,2.0,1.0,part_1,,,,,,,,,,,,,white,hexagon
79.0,2.0,2.0,0.0,2.0,2.0,431.4756619278341,2.0,1.0,part_1,,,,,,,,,,,,,gray,flipped triangle
193.0,3.0,3.0,0.0,1.0,1.0,465.5455339234322,2.0,1.0,part_1,,,,,,,,,,,,,green,triangle
0.0,5.0,0.0,1.0,2.0,2.0,400.2954291645437,2.0,1.0,part_1,,,,,,,,,,,,,orange,cross
39.0,5.0,1.0,1.0,3.0,3.0,309.932773001492,2.0,1.0,part_1,,,,,,,,,,,,,orange,cross
0.0,7.0,0.0,1.0,4.0,4.0,287.3719879426062,2.0,1.0,part_1,,,,,,,,,,,,,yellow,I
380.0,8.0,4.0,1.0,1.0,1.0,325.9972191881388,2.0,1.0,part_1,,,,,,,,,,,,,cyan,circle
114.0,2.0,2.0,0.0,4.0,4.0,288.5016060899943,2.0,1.0,part_1,,,,,,,,,,,,,gray,flipped triangle
0.0,4.0,0.0,0.0,2.0,2.0,469.3265699315816,2.0,1.0,part_1,,,,,,,,,,,,,blue,square
43.0,1.0,1.0,0.0,2.0,2.0,410.186702851206,2.0,1.0,part_1,,,,,,,,,,,,,magenta,diamond
120.0,2.0,2.0,0.0,1.0,1.0,353.2218169420957,2.0,1.0,part_1,,,,,,,,,,,,,gray,flipped triangle
83.0,6.0,2.0,1.0,2.0,2.0,422.0819668844342,2.0,1.0,part_1,,,,,,,,,,,,,white,hexagon
85.0,6.0,2.0,1.0,2.0,2.0,552.598032867536,2.0,1.0,part_1,,,,,,,,,,,,,white,hexagon
204.0,7.0,3.0,1.0,4.0,4.0,423.6318289767951,2.0,1.0,part_1,,,,,,,,,,,,,yellow,I
47.0,1.0,1.0,0.0,1.0,1.0,313.476599054411,2.0,1.0,part_1,,,,,,,,,,,,,magenta,diamond
110.0,2.0,2.0,0.0,1.0,1.0,368.2767471764236,2.0,1.0,part_1,,,,,,,,,,,,,gray,flipped triangle
35.0,5.0,1.0,1.0,4.0,4.0,397.7975668385625,2.0,1.0,part_1,,,,,,,,,,,,,orange,cross
41.0,1.0,1.0,0.0,2.0,2.0,362.646808847785,2.0,1.0,part_1,,,,,,,,,,,,,magenta,diamond
59.0,5.0,1.0,1.0,4.0,4.0,391.395621933043,3.0,1.0,part_1,,,,,,,,,,,,,orange,cross
25.0,1.0,1.0,0.0,2.0,2.0,383.0352439545095,3.0,1.0,part_1,,,,,,,,,,,,,magenta,diamond
117.0,6.0,2.0,1.0,3.0,3.0,353.149252012372,3.0,1.0,part_1,,,,,,,,,,,,,white,hexagon
379.0,8.0,4.0,1.0,1.0,1.0,320.3154760412872,3.0,1.0,part_1,,,,,,,,,,,,,cyan,circle
420.0,4.0,4.0,0.0,4.0,4.0,284.0353660285473,3.0,1.0,part_1,,,,,,,,,,,,,blue,square
120.0,6.0,2.0,1.0,2.0,2.0,270.0386838987469,3.0,1.0,part_1,,,,,,,,,,,,,white,hexagon
384.0,8.0,4.0,1.0,4.0,4.0,319.4752209819853,3.0,1.0,part_1,,,,,,,,,,,,,cyan,circle
223.0,7.0,3.0,1.0,2.0,2.0,320.7136287819594,3.0,1.0,part_1,,,,,,,,,,,,,yellow,I
177.0,3.0,3.0,0.0,1.0,1.0,318.5596908442676,3.0,1.0,part_1,,,,,,,,,,,,,green,triangle
32.0,5.0,1.0,1.0,2.0,2.0,323.4864468686282,3.0,1.0,part_1,,,,,,,,,,,,,orange,cross
0.0,2.0,0.0,0.0,1.0,1.0,329.0069191716611,3.0,1.0,part_1,,,,,,,,,,,,,gray,flipped triangle
379.0,4.0,4.0,0.0,3.0,3.0,307.523146038875,3.0,1.0,part_1,,,,,,,,,,,,,blue,square
0.0,8.0,0.0,1.0,1.0,1.0,402.3010649252683,3.0,1.0,part_1,,,,,,,,,,,,,cyan,circle
424.0,8.0,4.0,1.0,1.0,1.0,340.3531250078231,3.0,1.0,part_1,,,,,,,,,,,,,cyan,circle
79.0,6.0,2.0,1.0,1.0,1.0,424.708146136254,3.0,1.0,part_1,,,,,,,,,,,,,white,hexagon
399.0,8.0,4.0,1.0,3.0,3.0,313.2705460302531,3.0,1.0,part_1,,,,,,,,,,,,,cyan,circle
117.0,2.0,2.0,0.0,2.0,2.0,325.4727839957922,3.0,1.0,part_1,,,,,,,,,,,,,gray,flipped triangle
379.0,8.0,4.0,1.0,3.0,3.0,337.5880538951605,3.0,1.0,part_1,,,,,,,,,,,,,cyan,circle
0.0,4.0,0.0,0.0,3.0,3.0,315.3860501479357,3.0,1.0,part_1,,,,,,,,,,,,,blue,square
388.0,8.0,4.0,1.0,4.0,4.0,329.1118789929896,3.0,1.0,part_1,,,,,,,,,,,,,cyan,circle
207.0,7.0,3.0,1.0,3.0,3.0,351.7654919996857,3.0,1.0,part_1,,,,,,,,,,,,,yellow,I
180.0,3.0,3.0,0.0,4.0,4.0,317.481653066352,3.0,1.0,part_1,,,,,,,,,,,,,green,triangle
398.0,4.0,4.0,0.0,1.0,1.0,296.4213888626545,3.0,1.0,part_1,,,,,,,,,,,,,blue,square
87.0,2.0,2.0,0.0,2.0,2.0,346.9403979834169,3.0,1.0,part_1,,,,,,,,,,,,,gray,flipped triangle
403.0,8.0,4.0,1.0,4.0,4.0,263.5172260925174,3.0,1.0,part_1,,,,,,,,,,,,,cyan,circle
219.0,3.0,3.0,0.0,1.0,1.0,478.2753901090473,3.0,1.0,part_1,,,,,,,,,,,,,green,triangle
101.0,6.0,2.0,1.0,2.0,2.0,346.2290610186755,3.0,1.0,part_1,,,,,,,,,,,,,white,hexagon
0.0,2.0,0.0,0.0,3.0,3.0,285.813066875562,3.0,1.0,part_1,,,,,,,,,,,,,gray,flipped triangle
0.0,5.0,0.0,1.0,4.0,4.0,318.0455008987337,3.0,1.0,part_1,,,,,,,,,,,,,orange,cross
195.0,7.0,3.0,1.0,4.0,4.0,595.3231200110167,3.0,1.0,part_1,,,,,,,,,,,,,yellow,I
405.0,8.0,4.0,1.0,2.0,2.0,292.7884818054735,3.0,1.0,part_1,,,,,,,,,,,,,cyan,circle
376.0,8.0,4.0,1.0,2.0,2.0,347.3236309364438,3.0,1.0,part_1,,,,,,,,,,,,,cyan,circle
0.0,5.0,0.0,1.0,4.0,4.0,357.5243649538606,3.0,1.0,part_1,,,,,,,,,,,,,orange,cross
421.0,8.0,4.0,1.0,4.0,4.0,403.9878759067505,3.0,1.0,part_1,,,,,,,,,,,,,cyan,circle
185.0,3.0,3.0,0.0,4.0,4.0,330.1928760483861,3.0,1.0,part_1,,,,,,,,,,,,,green,triangle
75.0,5.0,1.0,1.0,2.0,2.0,292.3231471795589,3.0,1.0,part_1,,,,,,,,,,,,,orange,cross
0.0,4.0,0.0,0.0,1.0,1.0,322.5989399943501,3.0,1.0,part_1,,,,,,,,,,,,,blue,square
0.0,2.0,0.0,0.0,2.0,2.0,366.3948818575591,3.0,1.0,part_1,,,,,,,,,,,,,gray,flipped triangle
218.0,3.0,3.0,0.0,2.0,2.0,355.9482540003955,3.0,1.0,part_1,,,,,,,,,,,,,green,triangle
43.0,1.0,1.0,0.0,1.0,1.0,321.2415291927755,3.0,1.0,part_1,,,,,,,,,,,,,magenta,diamond
218.0,3.0,3.0,0.0,3.0,3.0,365.7244839705527,3.0,1.0,part_1,,,,,,,,,,,,,green,triangle
380.0,4.0,4.0,0.0,3.0,3.0,503.92050109803677,3.0,2.0,part_1,,,,,,,,,,,,,blue,square
416.0,8.0,4.0,1.0,1.0,1.0,480.4559841286391,3.0,1.0,part_1,,,,,,,,,,,,,cyan,circle
87.0,6.0,2.0,1.0,4.0,4.0,329.4858299195766,3.0,1.0,part_1,,,,,,,,,,,,,white,hexagon
0.0,7.0,0.0,1.0,4.0,4.0,395.1908049639314,3.0,1.0,part_1,,,,,,,,,,,,,yellow,I
53.0,1.0,1.0,0.0,1.0,1.0,399.3193048518151,3.0,1.0,part_1,,,,,,,,,,,,,magenta,diamond
41.0,1.0,1.0,0.0,3.0,3.0,341.5044851135462,3.0,1.0,part_1,,,,,,,,,,,,,magenta,diamond
178.0,3.0,3.0,0.0,1.0,1.0,476.2075960170477,3.0,1.0,part_1,,,,,,,,,,,,,green,triangle
402.0,4.0,4.0,0.0,3.0,3.0,399.4185619521886,3.0,1.0,part_1,,,,,,,,,,,,,blue,square
0.0,5.0,0.0,1.0,4.0,4.0,305.7580799795687,3.0,1.0,part_1,,,,,,,,,,,,,orange,cross
73.0,1.0,1.0,0.0,3.0,3.0,375.5449440795928,3.0,1.0,part_1,,,,,,,,,,,,,magenta,diamond
0.0,5.0,0.0,1.0,3.0,3.0,371.4201909024268,3.0,1.0,part_1,,,,,,,,,,,,,orange,cross
0.0,2.0,0.0,0.0,1.0,1.0,363.3519660215825,3.0,1.0,part_1,,,,,,,,,,,,,gray,flipped triangle
40.0,5.0,1.0,1.0,2.0,2.0,367.3752699978649,3.0,1.0,part_1,,,,,,,,,,,,,orange,cross
96.0,6.0,2.0,1.0,1.0,1.0,345.6071589607745,3.0,1.0,part_1,,,,,,,,,,,,,white,hexagon
185.0,7.0,3.0,1.0,4.0,4.0,406.6079820040613,3.0,1.0,part_1,,,,,,,,,,,,,yellow,I
108.0,6.0,2.0,1.0,4.0,4.0,460.4096428956836,3.0,1.0,part_1,,,,,,,,,,,,,white,hexagon
75.0,1.0,1.0,0.0,1.0,1.0,394.3854558747262,3.0,1.0,part_1,,,,,,,,,,,,,magenta,diamond
36.0,1.0,1.0,0.0,2.0,2.0,436.2563928589225,3.0,1.0,part_1,,,,,,,,,,,,,magenta,diamond
205.0,3.0,3.0,0.0,4.0,4.0,369.7290120180696,3.0,1.0,part_1,,,,,,,,,,,,,green,triangle
0.0,4.0,0.0,0.0,2.0,2.0,509.9825968500227,3.0,1.0,part_1,,,,,,,,,,,,,blue,square
211.0,7.0,3.0,1.0,1.0,1.0,555.8492848649621,3.0,1.0,part_1,,,,,,,,,,,,,yellow,I
41.0,5.0,1.0,1.0,2.0,2.0,502.8071631677449,3.0,1.0,part_1,,,,,,,,,,,,,orange,cross
33.0,1.0,1.0,0.0,2.0,2.0,661.6735239513218,3.0,1.0,part_1,,,,,,,,,,,,,magenta,diamond
0.0,7.0,0.0,1.0,3.0,3.0,346.5832890942693,3.0,1.0,part_1,,,,,,,,,,,,,yellow,I
81.0,6.0,2.0,1.0,1.0,1.0,320.4919109120965,3.0,1.0,part_1,,,,,,,,,,,,,white,hexagon
60.0,1.0,1.0,0.0,1.0,1.0,377.9181779827922,3.0,1.0,part_1,,,,,,,,,,,,,magenta,diamond
0.0,8.0,0.0,1.0,4.0,4.0,335.9970198944211,3.0,1.0,part_1,,,,,,,,,,,,,cyan,circle
0.0,3.0,0.0,0.0,2.0,2.0,308.5242710076272,3.0,1.0,part_1,,,,,,,,,,,,,green,triangle
0.0,7.0,0.0,1.0,4.0,4.0,337.5153050292283,3.0,1.0,part_1,,,,,,,,,,,,,yellow,I
412.0,4.0,4.0,0.0,2.0,2.0,303.8780039642006,3.0,1.0,part_1,,,,,,,,,,,,,blue,square
398.0,4.0,4.0,0.0,4.0,4.0,585.952467052266,3.0,1.0,part_1,,,,,,,,,,,,,blue,square
51.0,5.0,1.0,1.0,4.0,4.0,433.028592960909,3.0,1.0,part_1,,,,,,,,,,,,,orange,cross
122.0,2.0,2.0,0.0,4.0,4.0,308.3565989509225,3.0,1.0,part_1,,,,,,,,,,,,,gray,flipped triangle
207.0,7.0,3.0,1.0,4.0,4.0,312.5609229318797,3.0,1.0,part_1,,,,,,,,,,,,,yellow,I
402.0,8.0,4.0,1.0,2.0,2.0,359.1918391175568,3.0,1.0,part_1,,,,,,,,,,,,,cyan,circle
200.0,7.0,3.0,1.0,2.0,2.0,394.4649959448725,3.0,1.0,part_1,,,,,,,,,,,,,yellow,I
54.0,1.0,1.0,0.0,2.0,2.0,383.5121751762926,3.0,1.0,part_1,,,,,,,,,,,,,magenta,diamond
0.0,3.0,0.0,0.0,4.0,4.0,338.3374419063329,3.0,1.0,part_1,,,,,,,,,,,,,green,triangle
0.0,4.0,0.0,0.0,1.0,1.0,334.4703300390392,3.0,1.0,part_1,,,,,,,,,,,,,blue,square
102.0,6.0,2.0,1.0,4.0,4.0,387.8387149889022,3.0,1.0,part_1,,,,,,,,,,,,,white,hexagon
0.0,1.0,0.0,0.0,1.0,1.0,527.4000568315387,3.0,1.0,part_1,,,,,,,,,,,,,magenta,diamond
0.0,5.0,0.0,1.0,2.0,2.0,375.9835851378739,3.0,1.0,part_1,,,,,,,,,,,,,orange,cross
49.0,1.0,1.0,0.0,1.0,1.0,436.5062799770385,3.0,1.0,part_1,,,,,,,,,,,,,magenta,diamond
0.0,6.0,0.0,1.0,3.0,3.0,366.4915130939334,3.0,1.0,part_1,,,,,,,,,,,,,white,hexagon
0.0,8.0,0.0,1.0,3.0,3.0,459.882419090718,3.0,1.0,part_1,,,,,,,,,,,,,cyan,circle
108.0,2.0,2.0,0.0,2.0,2.0,369.8705299757421,3.0,1.0,part_1,,,,,,,,,,,,,gray,flipped triangle
0.0,3.0,0.0,0.0,2.0,2.0,315.696083009243,3.0,1.0,part_1,,,,,,,,,,,,,green,triangle
54.0,5.0,1.0,1.0,1.0,1.0,388.2146819960326,3.0,1.0,part_1,,,,,,,,,,,,,orange,cross
212.0,7.0,3.0,1.0,2.0,2.0,333.1302269361913,3.0,1.0,part_1,,,,,,,,,,,,,yellow,I
0.0,5.0,0.0,1.0,3.0,3.0,308.7052679620683,3.0,1.0,part_1,,,,,,,,,,,,,orange,cross
73.0,5.0,1.0,1.0,3.0,3.0,468.8188079744577,3.0,2.0,part_1,,,,,,,,,,,,,orange,cross
52.0,1.0,1.0,0.0,3.0,3.0,440.2766509447247,3.0,1.0,part_1,,,,,,,,,,,,,magenta,diamond
0.0,6.0,0.0,1.0,2.0,2.0,428.6654270254075,3.0,1.0,part_1,,,,,,,,,,,,,white,hexagon
110.0,6.0,2.0,1.0,2.0,2.0,363.0446628667414,3.0,1.0,part_1,,,,,,,,,,,,,white,hexagon
180.0,7.0,3.0,1.0,1.0,1.0,407.54539007321,3.0,1.0,part_1,,,,,,,,,,,,,yellow,I
0.0,8.0,0.0,1.0,4.0,4.0,332.8718980774283,3.0,1.0,part_1,,,,,,,,,,,,,cyan,circle
0.0,3.0,0.0,0.0,3.0,3.0,353.7752060219645,3.0,1.0,part_1,,,,,,,,,,,,,green,triangle
419.0,4.0,4.0,0.0,2.0,2.0,399.6932851150632,3.0,1.0,part_1,,,,,,,,,,,,,blue,square
223.0,3.0,3.0,0.0,3.0,3.0,336.547388928011,3.0,1.0,part_1,,,,,,,,,,,,,green,triangle
401.0,8.0,4.0,1.0,2.0,2.0,450.9310259018093,4.0,1.0,part_1,,,,,,,,,,,,,cyan,circle
220.0,3.0,3.0,0.0,2.0,2.0,312.1924998704344,4.0,1.0,part_1,,,,,,,,,,,,,green,triangle
0.0,1.0,0.0,0.0,4.0,4.0,340.8627749886364,4.0,1.0,part_1,,,,,,,,,,,,,magenta,diamond
405.0,4.0,4.0,0.0,1.0,1.0,300.6484170909971,4.0,1.0,part_1,,,,,,,,,,,,,blue,square
57.0,5.0,1.0,1.0,2.0,2.0,328.8604540284723,4.0,1.0,part_1,,,,,,,,,,,,,orange,cross
218.0,7.0,3.0,1.0,2.0,2.0,330.9809730853885,4.0,1.0,part_1,,,,,,,,,,,,,yellow,I
180.0,3.0,3.0,0.0,2.0,2.0,327.7130050119012,4.0,1.0,part_1,,,,,,,,,,,,,green,triangle
211.0,3.0,3.0,0.0,4.0,4.0,382.7009277883917,4.0,1.0,part_1,,,,,,,,,,,,,green,triangle
416.0,4.0,4.0,0.0,1.0,1.0,319.9644591659307,4.0,1.0,part_1,,,,,,,,,,,,,blue,square
205.0,7.0,3.0,1.0,1.0,1.0,304.8386559821665,4.0,1.0,part_1,,,,,,,,,,,,,yellow,I
180.0,7.0,3.0,1.0,1.0,1.0,339.6267690695822,4.0,1.0,part_1,,,,,,,,,,,,,yellow,I
397.0,8.0,4.0,1.0,1.0,1.0,294.3172310478985,4.0,1.0,part_1,,,,,,,,,,,,,cyan,circle
224.0,3.0,3.0,0.0,1.0,1.0,266.8792549520731,4.0,1.0,part_1,,,,,,,,,,,,,green,triangle
180.0,7.0,3.0,1.0,1.0,1.0,296.7210467904806,4.0,1.0,part_1,,,,,,,,,,,,,yellow,I
203.0,7.0,3.0,1.0,4.0,4.0,324.7903769370168,4.0,1.0,part_1,,,,,,,,,,,,,yellow,I
178.0,7.0,3.0,1.0,2.0,2.0,353.3142069354653,4.0,1.0,part_1,,,,,,,,,,,,,yellow,I
406.0,8.0,4.0,1.0,2.0,2.0,345.5811419989913,4.0,1.0,part_1,,,,,,,,,,,,,cyan,circle
201.0,7.0,3.0,1.0,1.0,1.0,341.2771390285343,4.0,1.0,part_1,,,,,,,,,,,,,yellow,I
422.0,8.0,4.0,1.0,2.0,2.0,303.3512930851429,4.0,1.0,part_1,,,,,,,,,,,,,cyan,circle
26.0,5.0,1.0,1.0,1.0,1.0,295.0401310808956,4.0,1.0,part_1,,,,,,,,,,,,,orange,cross
123.0,2.0,2.0,0.0,1.0,1.0,360.7076671905815,4.0,1.0,part_1,,,,,,,,,,,,,gray,flipped triangle
76.0,6.0,2.0,1.0,3.0,3.0,423.627870157361,4.0,1.0,part_1,,,,,,,,,,,,,white,hexagon
0.0,8.0,0.0,1.0,2.0,2.0,417.7254680544138,4.0,1.0,part_1,,,,,,,,,,,,,cyan,circle
212.0,3.0,3.0,0.0,4.0,4.0,353.4170950297266,4.0,1.0,part_1,,,,,,,,,,,,,green,triangle
0.0,1.0,0.0,0.0,1.0,1.0,299.5483360718936,4.0,1.0,part_1,,,,,,,,,,,,,magenta,diamond
109.0,2.0,2.0,0.0,4.0,4.0,361.3021380733698,4.0,1.0,part_1,,,,,,,,,,,,,gray,flipped triangle
0.0,1.0,0.0,0.0,2.0,2.0,399.3735911790281,4.0,1.0,part_1,,,,,,,,,,,,,magenta,diamond
419.0,8.0,4.0,1.0,4.0,4.0,361.8390101473778,4.0,1.0,part_1,,,,,,,,,,,,,cyan,circle
380.0,4.0,4.0,0.0,2.0,2.0,336.4305840805173,4.0,1.0,part_1,,,,,,,,,,,,,blue,square
78.0,6.0,2.0,1.0,4.0,4.0,454.4355110265314,4.0,1.0,part_1,,,,,,,,,,,,,white,hexagon
212.0,7.0,3.0,1.0,1.0,1.0,371.3806718587875,4.0,1.0,part_1,,,,,,,,,,,,,yellow,I
71.0,1.0,1.0,0.0,3.0,3.0,350.8562191855162,4.0,1.0,part_1,,,,,,,,,,,,,magenta,diamond
397.0,4.0,4.0,0.0,3.0,3.0,450.7767909672111,4.0,1.0,part_1,,,,,,,,,,,,,blue,square
86.0,2.0,2.0,0.0,2.0,2.0,366.2778101861477,4.0,1.0,part_1,,,,,,,,,,,,,gray,flipped triangle
84.0,2.0,2.0,0.0,3.0,3.0,364.7839250043034,4.0,1.0,part_1,,,,,,,,,,,,,gray,flipped triangle
108.0,6.0,2.0,1.0,3.0,3.0,615.2265670243651,4.0,1.0,part_1,,,,,,,,,,,,,white,hexagon
403.0,8.0,4.0,1.0,1.0,1.0,323.7338359467685,4.0,1.0,part_1,,,,,,,,,,,,,cyan,circle
67.0,5.0,1.0,1.0,1.0,1.0,307.2677578311413,4.0,1.0,part_1,,,,,,,,,,,,,orange,cross
29.0,5.0,1.0,1.0,1.0,1.0,300.9492440614849,4.0,1.0,part_1,,,,,,,,,,,,,orange,cross
0.0,3.0,0.0,0.0,4.0,4.0,349.428097018972,4.0,1.0,part_1,,,,,,,,,,,,,green,triangle
32.0,1.0,1.0,0.0,1.0,1.0,301.9575260113925,4.0,1.0,part_1,,,,,,,,,,,,,magenta,diamond
204.0,3.0,3.0,0.0,2.0,2.0,349.7275689151138,4.0,1.0,part_1,,,,,,,,,,,,,green,triangle
33.0,5.0,1.0,1.0,3.0,3.0,295.8492720499635,4.0,1.0,part_1,,,,,,,,,,,,,orange,cross
401.0,4.0,4.0,0.0,1.0,1.0,320.1581900939345,4.0,1.0,part_1,,,,,,,,,,,,,blue,square
81.0,2.0,2.0,0.0,3.0,3.0,339.8339960258454,4.0,1.0,part_1,,,,,,,,,,,,,gray,flipped triangle
0.0,2.0,0.0,0.0,2.0,2.0,373.1749709695577,4.0,1.0,part_1,,,,,,,,,,,,,gray,flipped triangle
393.0,8.0,4.0,1.0,3.0,3.0,314.8680001031607,4.0,1.0,part_1,,,,,,,,,,,,,cyan,circle
32.0,1.0,1.0,0.0,4.0,4.0,312.8842241130769,4.0,1.0,part_1,,,,,,,,,,,,,magenta,diamond
73.0,1.0,1.0,0.0,1.0,1.0,405.2684500347823,4.0,1.0,part_1,,,,,,,,,,,,,magenta,diamond
75.0,2.0,2.0,0.0,1.0,1.0,434.8888420499861,4.0,1.0,part_1,,,,,,,,,,,,,gray,flipped triangle
380.0,8.0,4.0,1.0,1.0,1.0,349.7288459911942,4.0,1.0,part_1,,,,,,,,,,,,,cyan,circle
184.0,3.0,3.0,0.0,1.0,1.0,324.3834080640226,4.0,1.0,part_1,,,,,,,,,,,,,green,triangle
86.0,2.0,2.0,0.0,1.0,1.0,328.3248010557145,4.0,1.0,part_1,,,,,,,,,,,,,gray,flipped triangle
393.0,4.0,4.0,0.0,1.0,1.0,292.0802810695022,4.0,1.0,part_1,,,,,,,,,,,,,blue,square
43.0,5.0,1.0,1.0,3.0,3.0,394.8473259806633,4.0,1.0,part_1,,,,,,,,,,,,,orange,cross
412.0,8.0,4.0,1.0,3.0,3.0,431.9322321098298,4.0,1.0,part_1,,,,,,,,,,,,,cyan,circle
421.0,4.0,4.0,0.0,3.0,3.0,365.3443958610296,4.0,1.0,part_1,,,,,,,,,,,,,blue,square
96.0,2.0,2.0,0.0,3.0,3.0,343.5745809692889,4.0,1.0,part_1,,,,,,,,,,,,,gray,flipped triangle
212.0,3.0,3.0,0.0,2.0,2.0,381.6123569849878,4.0,1.0,part_1,,,,,,,,,,,,,green,triangle
180.0,7.0,3.0,1.0,2.0,2.0,436.4701409358531,4.0,2.0,part_1,,,,,,,,,,,,,yellow,I
0.0,6.0,0.0,1.0,4.0,4.0,404.7151650302112,4.0,1.0,part_1,,,,,,,,,,,,,white,hexagon
73.0,5.0,1.0,1.0,2.0,2.0,358.842093963176,4.0,1.0,part_1,,,,,,,,,,,,,orange,cross
26.0,1.0,1.0,0.0,4.0,4.0,341.8514938093722,4.0,1.0,part_1,,,,,,,,,,,,,magenta,diamond
53.0,5.0,1.0,1.0,2.0,2.0,383.559798123315,4.0,1.0,part_1,,,,,,,,,,,,,orange,cross
0.0,8.0,0.0,1.0,2.0,2.0,475.5163970403373,4.0,1.0,part_1,,,,,,,,,,,,,cyan,circle
189.0,7.0,3.0,1.0,3.0,3.0,369.2405798938125,4.0,1.0,part_1,,,,,,,,,,,,,yellow,I
403.0,4.0,4.0,0.0,4.0,4.0,333.8528911117464,4.0,1.0,part_1,,,,,,,,,,,,,blue,square
0.0,2.0,0.0,0.0,3.0,3.0,522.42297003977,4.0,1.0,part_1,,,,,,,,,,,,,gray,flipped triangle
86.0,6.0,2.0,1.0,1.0,1.0,431.9302230142057,4.0,1.0,part_1,,,,,,,,,,,,,white,hexagon
390.0,8.0,4.0,1.0,2.0,2.0,394.8285449296236,4.0,1.0,part_1,,,,,,,,,,,,,cyan,circle
0.0,6.0,0.0,1.0,3.0,3.0,345.8385379053652,4.0,1.0,part_1,,,,,,,,,,,,,white,hexagon
40.0,1.0,1.0,0.0,2.0,2.0,453.6059969104826,4.0,1.0,part_1,,,,,,,,,,,,,magenta,diamond
98.0,2.0,2.0,0.0,2.0,2.0,419.9388620909303,4.0,1.0,part_1,,,,,,,,,,,,,gray,flipped triangle
96.0,6.0,2.0,1.0,3.0,3.0,296.6457500588149,4.0,1.0,part_1,,,,,,,,,,,,,white,hexagon
425.0,8.0,4.0,1.0,4.0,4.0,356.1817379668355,4.0,1.0,part_1,,,,,,,,,,,,,cyan,circle
114.0,6.0,2.0,1.0,4.0,4.0,335.5637660715729,4.0,1.0,part_1,,,,,,,,,,,,,white,hexagon
40.0,1.0,1.0,0.0,4.0,4.0,286.6259110160172,4.0,1.0,part_1,,,,,,,,,,,,,magenta,diamond
386.0,8.0,4.0,1.0,2.0,2.0,371.2420552037656,4.0,1.0,part_1,,,,,,,,,,,,,cyan,circle
0.0,6.0,0.0,1.0,3.0,3.0,397.8495181072503,4.0,1.0,part_1,,,,,,,,,,,,,white,hexagon
0.0,1.0,0.0,0.0,1.0,1.0,420.1779081486165,4.0,1.0,part_1,,,,,,,,,,,,,magenta,diamond
115.0,2.0,2.0,0.0,1.0,1.0,423.6315989401191,4.0,1.0,part_1,,,,,,,,,,,,,gray,flipped triangle
122.0,6.0,2.0,1.0,4.0,4.0,349.9782511498779,4.0,1.0,part_1,,,,,,,,,,,,,white,hexagon
216.0,3.0,3.0,0.0,1.0,1.0,321.8628170434385,4.0,1.0,part_1,,,,,,,,,,,,,green,triangle
405.0,8.0,4.0,1.0,3.0,3.0,301.0825179517269,4.0,1.0,part_1,,,,,,,,,,,,,cyan,circle
62.0,1.0,1.0,0.0,1.0,1.0,283.559727948159,4.0,1.0,part_1,,,,,,,,,,,,,magenta,diamond
211.0,7.0,3.0,1.0,3.0,3.0,375.095620052889,4.0,1.0,part_1,,,,,,,,,,,,,yellow,I
397.0,8.0,4.0,1.0,1.0,1.0,309.5127360429615,4.0,1.0,part_1,,,,,,,,,,,,,cyan,circle
0.0,3.0,0.0,0.0,4.0,4.0,351.1473680846393,4.0,1.0,part_1,,,,,,,,,,,,,green,triangle
424.0,4.0,4.0,0.0,2.0,2.0,308.8217279873788,4.0,1.0,part_1,,,,,,,,,,,,,blue,square
52.0,5.0,1.0,1.0,2.0,2.0,387.327108066529,4.0,1.0,part_1,,,,,,,,,,,,,orange,cross
385.0,8.0,4.0,1.0,3.0,3.0,365.6719101127237,4.0,1.0,part_1,,,,,,,,,,,,,cyan,circle
64.0,5.0,1.0,1.0,1.0,1.0,355.8692571241408,4.0,1.0,part_1,,,,,,,,,,,,,orange,cross
102.0,2.0,2.0,0.0,4.0,4.0,311.8345139082521,4.0,1.0,part_1,,,,,,,,,,,,,gray,flipped triangle
197.0,7.0,3.0,1.0,3.0,3.0,340.6043120194226,4.0,1.0,part_1,,,,,,,,,,,,,yellow,I
104.0,2.0,2.0,0.0,1.0,1.0,320.4643549397588,4.0,1.0,part_1,,,,,,,,,,,,,gray,flipped triangle
60.0,1.0,1.0,0.0,4.0,4.0,269.3634030874818,4.0,1.0,part_1,,,,,,,,,,,,,magenta,diamond
206.0,7.0,3.0,1.0,1.0,1.0,284.2946050222963,4.0,1.0,part_1,,,,,,,,,,,,,yellow,I
0.0,7.0,0.0,1.0,4.0,4.0,346.2141058407724,4.0,1.0,part_1,,,,,,,,,,,,,yellow,I
203.0,3.0,3.0,0.0,1.0,1.0,331.7853771150112,4.0,1.0,part_1,,,,,,,,,,,,,green,triangle
111.0,6.0,2.0,1.0,1.0,1.0,479.563764994964,4.0,1.0,part_1,,,,,,,,,,,,,white,hexagon
0.0,8.0,4.0,1.0,6.0,0.0,0.0,1.0,0.0,part_2,stop,250.0,250.0,4.0,,,,,,,,,cyan,circle
0.0,2.0,2.0,0.0,6.0,6.0,572.2579550929368,1.0,0.0,part_2,go,250.0,300.0,1.0,,,,,,,,,gray,flipped triangle
0.0,4.0,4.0,0.0,6.0,6.0,867.5856159534305,1.0,0.0,part_2,go,250.0,300.0,1.0,,,,,,,,,blue,square
0.0,2.0,2.0,0.0,6.0,6.0,453.3570779021829,1.0,0.0,part_2,go,250.0,300.0,1.0,,,,,,,,,gray,flipped triangle
0.0,1.0,1.0,0.0,6.0,6.0,612.2909639962018,1.0,0.0,part_2,go,250.0,300.0,1.0,,,,,,,,,magenta,diamond
0.0,6.0,2.0,1.0,6.0,6.0,322.3947030492127,1.0,0.0,part_2,stop,250.0,300.0,3.0,,,,,,,,,white,hexagon
0.0,1.0,1.0,0.0,5.0,5.0,635.0872118491679,1.0,0.0,part_2,go,250.0,250.0,1.0,,,,,,,,,magenta,diamond
0.0,4.0,4.0,0.0,5.0,5.0,458.6865620221942,1.0,0.0,part_2,go,250.0,250.0,1.0,,,,,,,,,blue,square
0.0,3.0,3.0,0.0,5.0,5.0,522.1842089667916,1.0,0.0,part_2,go,250.0,250.0,1.0,,,,,,,,,green,triangle
0.0,6.0,2.0,1.0,5.0,0.0,0.0,1.0,0.0,part_2,stop,250.0,250.0,4.0,,,,,,,,,white,hexagon
0.0,5.0,1.0,1.0,5.0,5.0,1462.8929730970412,1.0,0.0,part_2,go,300.0,250.0,1.0,,,,,,,,,orange,cross
0.0,6.0,2.0,1.0,6.0,0.0,0.0,1.0,0.0,part_2,stop,300.0,250.0,4.0,,,,,,,,,white,hexagon
0.0,4.0,4.0,0.0,6.0,6.0,344.6518529672175,1.0,0.0,part_2,go,300.0,300.0,1.0,,,,,,,,,blue,square
0.0,5.0,1.0,1.0,5.0,0.0,0.0,1.0,0.0,part_2,stop,300.0,300.0,4.0,,,,,,,,,orange,cross
0.0,8.0,4.0,1.0,5.0,5.0,336.7259111255407,1.0,0.0,part_2,stop,350.0,300.0,3.0,,,,,,,,,cyan,circle
0.0,2.0,2.0,0.0,5.0,5.0,540.4986729845405,1.0,0.0,part_2,go,300.0,300.0,1.0,,,,,,,,,gray,flipped triangle
0.0,6.0,2.0,1.0,5.0,0.0,0.0,1.0,0.0,part_2,stop,300.0,300.0,4.0,,,,,,,,,white,hexagon
0.0,3.0,3.0,0.0,5.0,5.0,555.282942019403,1.0,0.0,part_2,go,350.0,300.0,1.0,,,,,,,,,green,triangle
0.0,1.0,1.0,0.0,6.0,6.0,603.2083530444652,1.0,0.0,part_2,go,350.0,300.0,1.0,,,,,,,,,magenta,diamond
0.0,2.0,2.0,0.0,6.0,6.0,659.407464787364,1.0,0.0,part_2,go,350.0,300.0,1.0,,,,,,,,,gray,flipped triangle
0.0,3.0,3.0,0.0,6.0,6.0,314.656225964427,1.0,0.0,part_2,go,350.0,300.0,1.0,,,,,,,,,green,triangle
0.0,5.0,1.0,1.0,6.0,0.0,0.0,1.0,0.0,part_2,stop,350.0,300.0,4.0,,,,,,,,,orange,cross
0.0,1.0,1.0,0.0,6.0,6.0,552.7360728010535,1.0,0.0,part_2,go,350.0,350.0,1.0,,,,,,,,,magenta,diamond
0.0,7.0,3.0,1.0,5.0,5.0,371.1151021998375,1.0,0.0,part_2,stop,350.0,350.0,3.0,,,,,,,,,yellow,I
0.0,1.0,1.0,0.0,6.0,6.0,602.4314200039953,1.0,0.0,part_2,go,300.0,350.0,1.0,,,,,,,,,magenta,diamond
0.0,1.0,1.0,0.0,6.0,6.0,544.4284060504287,1.0,0.0,part_2,go,300.0,350.0,1.0,,,,,,,,,magenta,diamond
0.0,8.0,4.0,1.0,5.0,0.0,0.0,1.0,0.0,part_2,stop,300.0,350.0,4.0,,,,,,,,,cyan,circle
0.0,2.0,2.0,0.0,6.0,6.0,501.51210301555693,1.0,0.0,part_2,go,350.0,350.0,1.0,,,,,,,,,gray,flipped triangle
0.0,1.0,1.0,0.0,6.0,6.0,701.3986250385642,1.0,0.0,part_2,go,350.0,350.0,1.0,,,,,,,,,magenta,diamond
0.0,5.0,1.0,1.0,6.0,6.0,456.7221358884126,1.0,0.0,part_2,stop,350.0,350.0,3.0,,,,,,,,,orange,cross
0.0,8.0,4.0,1.0,5.0,0.0,0.0,1.0,0.0,part_2,stop,350.0,300.0,4.0,,,,,,,,,cyan,circle
0.0,8.0,4.0,1.0,6.0,6.0,700.3959699068218,1.0,0.0,part_2,go,400.0,300.0,1.0,,,,,,,,,cyan,circle
0.0,8.0,4.0,1.0,6.0,0.0,0.0,1.0,0.0,part_2,stop,400.0,300.0,4.0,,,,,,,,,cyan,circle
0.0,3.0,3.0,0.0,5.0,5.0,597.9637480340898,1.0,0.0,part_2,go,400.0,350.0,1.0,,,,,,,,,green,triangle
0.0,2.0,2.0,0.0,6.0,6.0,827.9838759917766,1.0,0.0,part_2,go,400.0,350.0,1.0,,,,,,,,,gray,flipped triangle
0.0,2.0,2.0,0.0,6.0,6.0,649.080865085125,1.0,0.0,part_2,go,400.0,350.0,1.0,,,,,,,,,gray,flipped triangle
0.0,7.0,3.0,1.0,5.0,5.0,816.7987791821361,2.0,0.0,part_2,stop,400.0,350.0,3.0,,,,,,,,,yellow,I
0.0,3.0,3.0,0.0,5.0,5.0,491.5717069525271,2.0,0.0,part_2,go,350.0,350.0,1.0,,,,,,,,,green,triangle
0.0,1.0,1.0,0.0,5.0,5.0,775.6931178737432,2.0,0.0,part_2,go,350.0,350.0,1.0,,,,,,,,,magenta,diamond
0.0,7.0,3.0,1.0,5.0,0.0,0.0,2.0,0.0,part_2,stop,350.0,350.0,4.0,,,,,,,,,yellow,I
0.0,6.0,2.0,1.0,6.0,0.0,0.0,2.0,0.0,part_2,stop,400.0,350.0,4.0,,,,,,,,,white,hexagon
0.0,3.0,3.0,0.0,6.0,6.0,577.418657951057,2.0,0.0,part_2,go,400.0,400.0,1.0,,,,,,,,,green,triangle
0.0,5.0,1.0,1.0,6.0,6.0,590.9309550188482,2.0,0.0,part_2,go,400.0,400.0,1.0,,,,,,,,,orange,cross
0.0,7.0,3.0,1.0,5.0,0.0,0.0,2.0,0.0,part_2,stop,400.0,400.0,4.0,,,,,,,,,yellow,I
0.0,7.0,3.0,1.0,5.0,5.0,668.3082529343665,2.0,0.0,part_2,go,450.0,400.0,1.0,,,,,,,,,yellow,I
0.0,5.0,1.0,1.0,5.0,5.0,580.2839980460703,2.0,0.0,part_2,stop,450.0,400.0,3.0,,,,,,,,,orange,cross
0.0,1.0,1.0,0.0,6.0,6.0,533.0913129728287,2.0,0.0,part_2,go,400.0,400.0,1.0,,,,,,,,,magenta,diamond
0.0,6.0,2.0,1.0,5.0,0.0,0.0,2.0,0.0,part_2,stop,400.0,400.0,4.0,,,,,,,,,white,hexagon
0.0,6.0,2.0,1.0,6.0,6.0,565.0716100353748,2.0,0.0,part_2,go,450.0,400.0,1.0,,,,,,,,,white,hexagon
0.0,3.0,3.0,0.0,5.0,5.0,961.4371478091924,2.0,0.0,part_2,go,450.0,400.0,1.0,,,,,,,,,green,triangle
0.0,4.0,4.0,0.0,6.0,6.0,692.2186750452965,2.0,0.0,part_2,go,450.0,400.0,1.0,,,,,,,,,blue,square
0.0,7.0,3.0,1.0,6.0,0.0,0.0,2.0,0.0,part_2,stop,450.0,400.0,4.0,,,,,,,,,yellow,I
0.0,5.0,1.0,1.0,5.0,0.0,0.0,2.0,0.0,part_2,stop,450.0,450.0,4.0,,,,,,,,,orange,cross
0.0,8.0,4.0,1.0,6.0,6.0,552.0526138134301,2.0,0.0,part_2,stop,500.0,450.0,3.0,,,,,,,,,cyan,circle
0.0,2.0,2.0,0.0,5.0,5.0,802.5642160791904,2.0,0.0,part_2,go,500.0,400.0,1.0,,,,,,,,,gray,flipped triangle
0.0,4.0,4.0,0.0,6.0,6.0,753.4574649762362,2.0,0.0,part_2,go,500.0,400.0,1.0,,,,,,,,,blue,square
0.0,7.0,3.0,1.0,5.0,5.0,501.1979949194938,2.0,0.0,part_2,go,500.0,400.0,1.0,,,,,,,,,yellow,I
0.0,8.0,4.0,1.0,6.0,6.0,728.1343408394605,2.0,0.0,part_2,go,500.0,400.0,1.0,,,,,,,,,cyan,circle
0.0,7.0,3.0,1.0,6.0,0.0,0.0,2.0,0.0,part_2,stop,500.0,400.0,4.0,,,,,,,,,yellow,I
0.0,3.0,3.0,0.0,5.0,5.0,591.8394890613854,2.0,0.0,part_2,go,500.0,450.0,1.0,,,,,,,,,green,triangle
0.0,1.0,1.0,0.0,5.0,5.0,734.0380770619959,2.0,0.0,part_2,go,500.0,450.0,1.0,,,,,,,,,magenta,diamond
0.0,7.0,3.0,1.0,5.0,0.0,0.0,2.0,0.0,part_2,stop,500.0,450.0,4.0,,,,,,,,,yellow,I
0.0,1.0,1.0,0.0,6.0,6.0,596.0158871021122,2.0,0.0,part_2,go,550.0,450.0,1.0,,,,,,,,,magenta,diamond
0.0,1.0,1.0,0.0,6.0,6.0,723.5330240800977,2.0,0.0,part_2,go,550.0,450.0,1.0,,,,,,,,,magenta,diamond
0.0,3.0,3.0,0.0,5.0,5.0,713.4230728261173,2.0,0.0,part_2,go,550.0,450.0,1.0,,,,,,,,,green,triangle
0.0,4.0,4.0,0.0,6.0,6.0,1067.0094268862158,2.0,0.0,part_2,go,550.0,450.0,1.0,,,,,,,,,blue,square
0.0,4.0,4.0,0.0,6.0,6.0,626.0566748678684,2.0,0.0,part_2,go,550.0,450.0,1.0,,,,,,,,,blue,square
0.0,8.0,4.0,1.0,5.0,0.0,0.0,2.0,0.0,part_2,stop,550.0,450.0,4.0,,,,,,,,,cyan,circle
0.0,8.0,4.0,1.0,5.0,5.0,663.6036711279303,2.0,0.0,part_2,stop,600.0,450.0,3.0,,,,,,,,,cyan,circle
0.0,7.0,3.0,1.0,5.0,5.0,727.2705780342221,2.0,0.0,part_2,go,550.0,450.0,1.0,,,,,,,,,yellow,I
0.0,6.0,2.0,1.0,6.0,6.0,566.2484117783606,2.0,0.0,part_2,stop,550.0,450.0,3.0,,,,,,,,,white,hexagon
0.0,4.0,4.0,0.0,6.0,6.0,661.4335689228028,2.0,0.0,part_2,go,550.0,400.0,1.0,,,,,,,,,blue,square
0.0,7.0,3.0,1.0,6.0,6.0,860.6066890060902,3.0,0.0,part_2,go,550.0,400.0,1.0,,,,,,,,,yellow,I
0.0,2.0,2.0,0.0,5.0,5.0,688.8505080714822,3.0,0.0,part_2,go,550.0,400.0,1.0,,,,,,,,,gray,flipped triangle
0.0,1.0,1.0,0.0,5.0,5.0,761.1827831715345,3.0,0.0,part_2,go,550.0,400.0,1.0,,,,,,,,,magenta,diamond
0.0,7.0,3.0,1.0,5.0,5.0,600.5318218376487,3.0,0.0,part_2,stop,550.0,400.0,3.0,,,,,,,,,yellow,I
0.0,3.0,3.0,0.0,6.0,6.0,481.0068279039114,3.0,0.0,part_2,go,500.0,400.0,1.0,,,,,,,,,green,triangle
0.0,7.0,3.0,1.0,5.0,0.0,0.0,3.0,0.0,part_2,stop,500.0,400.0,4.0,,,,,,,,,yellow,I
0.0,6.0,2.0,1.0,5.0,5.0,414.8640800267458,3.0,0.0,part_2,stop,550.0,400.0,3.0,,,,,,,,,white,hexagon
0.0,3.0,3.0,0.0,6.0,6.0,638.5436989367008,3.0,0.0,part_2,go,500.0,400.0,1.0,,,,,,,,,green,triangle
0.0,8.0,4.0,1.0,6.0,0.0,0.0,3.0,0.0,part_2,stop,500.0,400.0,4.0,,,,,,,,,cyan,circle
0.0,6.0,2.0,1.0,6.0,6.0,600.1229558605701,3.0,0.0,part_2,stop,500.0,450.0,3.0,,,,,,,,,white,hexagon
0.0,5.0,1.0,1.0,5.0,5.0,647.4408530630171,3.0,0.0,part_2,stop,500.0,400.0,3.0,,,,,,,,,orange,cross
0.0,5.0,1.0,1.0,5.0,5.0,1110.789189115167,3.0,0.0,part_2,go,450.0,400.0,1.0,,,,,,,,,orange,cross
0.0,6.0,2.0,1.0,5.0,0.0,0.0,3.0,0.0,part_2,stop,450.0,400.0,4.0,,,,,,,,,white,hexagon
0.0,8.0,4.0,1.0,6.0,6.0,1002.047749934718,3.0,0.0,part_2,go,500.0,400.0,1.0,,,,,,,,,cyan,circle
0.0,1.0,1.0,0.0,5.0,5.0,946.4892700780184,3.0,0.0,part_2,go,500.0,400.0,1.0,,,,,,,,,magenta,diamond
0.0,2.0,2.0,0.0,5.0,5.0,665.9251661039889,3.0,0.0,part_2,go,500.0,400.0,1.0,,,,,,,,,gray,flipped triangle
0.0,5.0,1.0,1.0,6.0,0.0,0.0,3.0,0.0,part_2,stop,500.0,400.0,4.0,,,,,,,,,orange,cross
0.0,2.0,2.0,0.0,5.0,5.0,706.3189761247486,3.0,0.0,part_2,go,500.0,450.0,1.0,,,,,,,,,gray,flipped triangle
0.0,8.0,4.0,1.0,6.0,0.0,0.0,3.0,0.0,part_2,stop,500.0,450.0,4.0,,,,,,,,,cyan,circle
0.0,8.0,4.0,1.0,5.0,0.0,0.0,3.0,0.0,part_2,stop,500.0,500.0,4.0,,,,,,,,,cyan,circle
0.0,2.0,2.0,0.0,5.0,5.0,726.8987540155649,3.0,0.0,part_2,go,550.0,500.0,1.0,,,,,,,,,gray,flipped triangle
0.0,3.0,3.0,0.0,5.0,5.0,838.2324790582061,3.0,0.0,part_2,go,550.0,500.0,1.0,,,,,,,,,green,triangle
0.0,4.0,4.0,0.0,6.0,6.0,612.9488970618695,3.0,0.0,part_2,go,550.0,500.0,1.0,,,,,,,,,blue,square
0.0,2.0,2.0,0.0,6.0,6.0,884.6175281796604,3.0,0.0,part_2,go,550.0,500.0,1.0,,,,,,,,,gray,flipped triangle
0.0,1.0,1.0,0.0,6.0,6.0,349.2768050637096,3.0,0.0,part_2,go,550.0,500.0,1.0,,,,,,,,,magenta,diamond
0.0,3.0,3.0,0.0,6.0,6.0,1070.2044151257724,3.0,0.0,part_2,go,550.0,500.0,1.0,,,,,,,,,green,triangle
0.0,5.0,1.0,1.0,5.0,5.0,879.0421250741929,3.0,0.0,part_2,go,550.0,500.0,1.0,,,,,,,,,orange,cross
0.0,3.0,3.0,0.0,6.0,6.0,546.2227601092309,3.0,0.0,part_2,go,550.0,500.0,1.0,,,,,,,,,green,triangle
0.0,1.0,1.0,0.0,6.0,6.0,618.9762770663947,3.0,0.0,part_2,go,550.0,500.0,1.0,,,,,,,,,magenta,diamond
0.0,6.0,2.0,1.0,6.0,0.0,0.0,3.0,0.0,part_2,stop,550.0,500.0,4.0,,,,,,,,,white,hexagon
0.0,3.0,3.0,0.0,6.0,6.0,816.531372955069,3.0,0.0,part_2,go,550.0,550.0,1.0,,,,,,,,,green,triangle
0.0,1.0,1.0,0.0,5.0,5.0,826.5572108794004,3.0,0.0,part_2,go,550.0,550.0,1.0,,,,,,,,,magenta,diamond
0.0,2.0,2.0,0.0,6.0,6.0,1064.5507918670774,3.0,0.0,part_2,go,550.0,550.0,1.0,,,,,,,,,gray,flipped triangle
0.0,1.0,1.0,0.0,6.0,6.0,879.3831679504365,3.0,0.0,part_2,go,550.0,550.0,1.0,,,,,,,,,magenta,diamond
0.0,4.0,4.0,0.0,5.0,5.0,464.4658081233501,3.0,0.0,part_2,go,550.0,550.0,1.0,,,,,,,,,blue,square
0.0,5.0,1.0,1.0,5.0,5.0,369.7417280636728,3.0,0.0,part_2,go,550.0,550.0,1.0,,,,,,,,,orange,cross
0.0,5.0,1.0,1.0,6.0,0.0,0.0,4.0,0.0,part_2,stop,550.0,550.0,4.0,,,,,,,,,orange,cross
0.0,7.0,3.0,1.0,5.0,5.0,427.819225937128,4.0,0.0,part_2,stop,550.0,600.0,3.0,,,,,,,,,yellow,I
0.0,2.0,2.0,0.0,6.0,6.0,775.2635618671775,4.0,0.0,part_2,go,500.0,600.0,1.0,,,,,,,,,gray,flipped triangle
0.0,5.0,1.0,1.0,6.0,0.0,0.0,4.0,0.0,part_2,stop,500.0,600.0,4.0,,,,,,,,,orange,cross
0.0,1.0,1.0,0.0,6.0,6.0,586.4544888027012,4.0,0.0,part_2,go,500.0,650.0,1.0,,,,,,,,,magenta,diamond
0.0,4.0,4.0,0.0,5.0,5.0,963.54295196943,4.0,0.0,part_2,go,500.0,650.0,1.0,,,,,,,,,blue,square
0.0,6.0,2.0,1.0,5.0,0.0,0.0,4.0,0.0,part_2,stop,500.0,650.0,4.0,,,,,,,,,white,hexagon
0.0,3.0,3.0,0.0,6.0,6.0,900.1503097824752,4.0,0.0,part_2,go,550.0,650.0,1.0,,,,,,,,,green,triangle
0.0,8.0,4.0,1.0,5.0,5.0,1003.5660660360008,4.0,0.0,part_2,go,550.0,650.0,1.0,,,,,,,,,cyan,circle
0.0,8.0,4.0,1.0,6.0,0.0,0.0,4.0,0.0,part_2,stop,550.0,650.0,4.0,,,,,,,,,cyan,circle
0.0,1.0,1.0,0.0,5.0,5.0,600.6238351110369,4.0,0.0,part_2,go,550.0,700.0,1.0,,,,,,,,,magenta,diamond
0.0,7.0,3.0,1.0,6.0,0.0,0.0,4.0,0.0,part_2,stop,550.0,700.0,4.0,,,,,,,,,yellow,I
0.0,7.0,3.0,1.0,6.0,6.0,648.5699038021266,4.0,0.0,part_2,stop,550.0,750.0,3.0,,,,,,,,,yellow,I
0.0,6.0,2.0,1.0,5.0,0.0,0.0,4.0,0.0,part_2,stop,550.0,700.0,4.0,,,,,,,,,white,hexagon
0.0,2.0,2.0,0.0,6.0,6.0,911.3374669104816,4.0,0.0,part_2,go,600.0,700.0,1.0,,,,,,,,,gray,flipped triangle
0.0,4.0,4.0,0.0,6.0,6.0,1164.0442938078197,4.0,0.0,part_2,go,600.0,700.0,1.0,,,,,,,,,blue,square
0.0,3.0,3.0,0.0,5.0,5.0,907.7777138445526,4.0,0.0,part_2,go,600.0,700.0,1.0,,,,,,,,,green,triangle
0.0,1.0,1.0,0.0,5.0,5.0,701.0919391177595,4.0,0.0,part_2,go,600.0,700.0,1.0,,,,,,,,,magenta,diamond
0.0,6.0,2.0,1.0,5.0,5.0,764.8478830233216,4.0,0.0,part_2,go,600.0,700.0,1.0,,,,,,,,,white,hexagon
0.0,8.0,4.0,1.0,6.0,6.0,844.308550003916,4.0,0.0,part_2,go,600.0,700.0,1.0,,,,,,,,,cyan,circle
0.0,4.0,4.0,0.0,5.0,5.0,955.1111918408424,4.0,0.0,part_2,go,600.0,700.0,1.0,,,,,,,,,blue,square
0.0,7.0,3.0,1.0,6.0,6.0,716.7587650474161,4.0,0.0,part_2,stop,600.0,700.0,3.0,,,,,,,,,yellow,I
0.0,1.0,1.0,0.0,6.0,6.0,760.9920529648662,4.0,0.0,part_2,go,600.0,650.0,1.0,,,,,,,,,magenta,diamond
0.0,1.0,1.0,0.0,6.0,6.0,879.8453300260007,4.0,0.0,part_2,go,600.0,650.0,1.0,,,,,,,,,magenta,diamond
0.0,5.0,1.0,1.0,6.0,0.0,0.0,4.0,0.0,part_2,stop,600.0,650.0,4.0,,,,,,,,,orange,cross
0.0,8.0,4.0,1.0,6.0,6.0,663.7235598172992,4.0,0.0,part_2,stop,600.0,700.0,3.0,,,,,,,,,cyan,circle
0.0,7.0,3.0,1.0,6.0,0.0,0.0,4.0,0.0,part_2,stop,600.0,650.0,4.0,,,,,,,,,yellow,I
0.0,3.0,3.0,0.0,5.0,5.0,696.2193748913705,4.0,0.0,part_2,go,600.0,700.0,1.0,,,,,,,,,green,triangle
0.0,8.0,4.0,1.0,5.0,0.0,0.0,4.0,0.0,part_2,stop,600.0,700.0,4.0,,,,,,,,,cyan,circle
0.0,8.0,4.0,1.0,5.0,5.0,1094.4954049773514,4.0,0.0,part_2,go,650.0,700.0,1.0,,,,,,,,,cyan,circle
0.0,5.0,1.0,1.0,6.0,0.0,0.0,4.0,0.0,part_2,stop,650.0,700.0,4.0,,,,,,,,,orange,cross
0.0,7.0,3.0,1.0,6.0,6.0,795.7216580398381,4.0,0.0,part_2,stop,650.0,750.0,3.0,,,,,,,,,yellow,I
0.0,6.0,2.0,1.0,5.0,0.0,0.0,4.0,0.0,part_2,stop,650.0,700.0,4.0,,,,,,,,,white,hexagon
0.0,7.0,3.0,1.0,5.0,5.0,873.9801528863609,4.0,0.0,part_2,go,700.0,700.0,1.0,,,,,,,,,yellow,I
0.0,4.0,4.0,0.0,5.0,0.0,0.0,4.0,0.0,part_2,go,700.0,700.0,5.0,,,,,,,,,blue,square
0.0,8.0,4.0,1.0,5.0,0.0,0.0,4.0,0.0,part_2,stop,700.0,700.0,4.0,,,,,,,,,cyan,circle
0.0,3.0,3.0,0.0,5.0,1.0,958.4812009707092,5.0,0.0,part_2,go,750.0,700.0,2.0,,,,,,,,,green,triangle
0.0,5.0,1.0,1.0,5.0,5.0,533.0630640964955,5.0,0.0,part_2,stop,750.0,700.0,3.0,,,,,,,,,orange,cross
0.0,6.0,2.0,1.0,5.0,0.0,0.0,5.0,0.0,part_2,stop,700.0,700.0,4.0,,,,,,,,,white,hexagon
0.0,7.0,3.0,1.0,6.0,6.0,436.3434738479554,5.0,0.0,part_2,go,750.0,700.0,1.0,,,,,,,,,yellow,I
0.0,1.0,1.0,0.0,5.0,5.0,927.0125939510764,5.0,0.0,part_2,go,750.0,700.0,1.0,,,,,,,,,magenta,diamond
0.0,2.0,2.0,0.0,5.0,5.0,765.7437839079648,5.0,0.0,part_2,go,750.0,700.0,1.0,,,,,,,,,gray,flipped triangle
0.0,6.0,2.0,1.0,6.0,6.0,650.9750089608133,5.0,0.0,part_2,stop,750.0,700.0,3.0,,,,,,,,,white,hexagon
0.0,4.0,4.0,0.0,6.0,6.0,1018.7425070907921,5.0,0.0,part_2,go,750.0,650.0,1.0,,,,,,,,,blue,square
0.0,7.0,3.0,1.0,6.0,6.0,845.5300421919674,5.0,0.0,part_2,stop,750.0,650.0,3.0,,,,,,,,,yellow,I
0.0,4.0,4.0,0.0,5.0,5.0,756.0298789758235,5.0,0.0,part_2,go,750.0,600.0,1.0,,,,,,,,,blue,square
0.0,4.0,4.0,0.0,6.0,6.0,969.5079310331494,5.0,0.0,part_2,go,750.0,600.0,1.0,,,,,,,,,blue,square
0.0,5.0,1.0,1.0,5.0,5.0,1144.9014260433614,5.0,0.0,part_2,go,750.0,600.0,1.0,,,,,,,,,orange,cross
0.0,3.0,3.0,0.0,5.0,5.0,1033.380163833499,5.0,0.0,part_2,go,750.0,600.0,1.0,,,,,,,,,green,triangle
0.0,8.0,4.0,1.0,5.0,5.0,806.8242981098592,5.0,0.0,part_2,stop,750.0,600.0,3.0,,,,,,,,,cyan,circle
0.0,7.0,3.0,1.0,6.0,0.0,0.0,5.0,0.0,part_2,stop,700.0,600.0,4.0,,,,,,,,,yellow,I
0.0,5.0,1.0,1.0,5.0,5.0,998.0572529602796,5.0,0.0,part_2,go,700.0,650.0,1.0,,,,,,,,,orange,cross
0.0,4.0,4.0,0.0,5.0,5.0,1024.304109159857,5.0,0.0,part_2,go,700.0,650.0,1.0,,,,,,,,,blue,square
0.0,2.0,2.0,0.0,5.0,5.0,1327.6084361132234,5.0,0.0,part_2,go,700.0,650.0,1.0,,,,,,,,,gray,flipped triangle
0.0,2.0,2.0,0.0,5.0,5.0,911.194806918502,5.0,0.0,part_2,go,700.0,650.0,1.0,,,,,,,,,gray,flipped triangle
0.0,6.0,2.0,1.0,5.0,5.0,1063.3972987998277,5.0,0.0,part_2,go,700.0,650.0,1.0,,,,,,,,,white,hexagon
0.0,4.0,4.0,0.0,5.0,5.0,933.6138151120394,5.0,0.0,part_2,go,700.0,650.0,1.0,,,,,,,,,blue,square
0.0,6.0,2.0,1.0,6.0,0.0,0.0,5.0,0.0,part_2,stop,700.0,650.0,4.0,,,,,,,,,white,hexagon
0.0,3.0,3.0,0.0,6.0,6.0,939.7871778346598,5.0,0.0,part_2,go,700.0,700.0,1.0,,,,,,,,,green,triangle
0.0,2.0,2.0,0.0,5.0,5.0,997.06323700957,5.0,0.0,part_2,go,700.0,700.0,1.0,,,,,,,,,gray,flipped triangle
0.0,4.0,4.0,0.0,5.0,5.0,1403.370038839057,5.0,0.0,part_2,go,700.0,700.0,1.0,,,,,,,,,blue,square
0.0,6.0,2.0,1.0,6.0,6.0,665.896377991885,5.0,0.0,part_2,stop,700.0,700.0,3.0,,,,,,,,,white,hexagon
0.0,2.0,2.0,0.0,5.0,5.0,618.7255531549454,5.0,0.0,part_2,go,700.0,650.0,1.0,,,,,,,,,gray,flipped triangle
0.0,4.0,4.0,0.0,6.0,6.0,759.5742649864405,5.0,0.0,part_2,go,700.0,650.0,1.0,,,,,,,,,blue,square
0.0,3.0,3.0,0.0,6.0,6.0,607.5863388832659,5.0,0.0,part_2,go,700.0,650.0,1.0,,,,,,,,,green,triangle
0.0,8.0,4.0,1.0,5.0,5.0,737.6112078782171,5.0,0.0,part_2,stop,700.0,650.0,3.0,,,,,,,,,cyan,circle
0.0,6.0,2.0,1.0,6.0,0.0,0.0,5.0,0.0,part_2,stop,650.0,650.0,4.0,,,,,,,,,white,hexagon
0.0,4.0,4.0,0.0,5.0,5.0,959.1373319271952,5.0,0.0,part_2,go,650.0,700.0,1.0,,,,,,,,,blue,square
0.0,1.0,1.0,0.0,5.0,5.0,964.7689471021296,5.0,0.0,part_2,go,650.0,700.0,1.0,,,,,,,,,magenta,diamond
0.0,1.0,1.0,0.0,6.0,6.0,911.1866410821676,5.0,0.0,part_2,go,650.0,700.0,1.0,,,,,,,,,magenta,diamond
0.0,2.0,2.0,0.0,6.0,6.0,804.56035095267,5.0,0.0,part_2,go,650.0,700.0,1.0,,,,,,,,,gray,flipped triangle
0.0,3.0,3.0,0.0,5.0,5.0,853.4473499748856,5.0,0.0,part_2,go,650.0,700.0,1.0,,,,,,,,,green,triangle
0.0,7.0,3.0,1.0,6.0,6.0,504.83400700613856,6.0,0.0,part_2,stop,650.0,700.0,3.0,,,,,,,,,yellow,I
0.0,4.0,4.0,0.0,5.0,5.0,912.3532550875098,6.0,0.0,part_2,go,650.0,650.0,1.0,,,,,,,,,blue,square
0.0,2.0,2.0,0.0,6.0,6.0,647.5096270442009,6.0,0.0,part_2,go,650.0,650.0,1.0,,,,,,,,,gray,flipped triangle
0.0,4.0,4.0,0.0,5.0,5.0,891.8432011269033,6.0,0.0,part_2,go,650.0,650.0,1.0,,,,,,,,,blue,square
0.0,8.0,4.0,1.0,6.0,6.0,324.0833939053118,6.0,0.0,part_2,stop,650.0,650.0,3.0,,,,,,,,,cyan,circle
0.0,8.0,4.0,1.0,5.0,5.0,699.584076879546,6.0,0.0,part_2,go,650.0,600.0,1.0,,,,,,,,,cyan,circle
0.0,6.0,2.0,1.0,5.0,5.0,707.2004680521786,6.0,0.0,part_2,stop,650.0,600.0,3.0,,,,,,,,,white,hexagon
0.0,1.0,1.0,0.0,5.0,5.0,848.7805440090597,6.0,0.0,part_2,go,600.0,600.0,1.0,,,,,,,,,magenta,diamond
0.0,4.0,4.0,0.0,6.0,6.0,897.2578449174762,6.0,0.0,part_2,go,600.0,600.0,1.0,,,,,,,,,blue,square
0.0,8.0,4.0,1.0,6.0,6.0,808.3577218931168,6.0,0.0,part_2,go,600.0,600.0,1.0,,,,,,,,,cyan,circle
0.0,2.0,2.0,0.0,6.0,6.0,992.111881962046,6.0,0.0,part_2,go,600.0,600.0,1.0,,,,,,,,,gray,flipped triangle
0.0,6.0,2.0,1.0,5.0,5.0,905.0117349252104,6.0,0.0,part_2,go,600.0,600.0,1.0,,,,,,,,,white,hexagon
0.0,4.0,4.0,0.0,6.0,6.0,919.9975759256632,6.0,0.0,part_2,go,600.0,600.0,1.0,,,,,,,,,blue,square
0.0,5.0,1.0,1.0,6.0,0.0,0.0,6.0,0.0,part_2,stop,600.0,600.0,4.0,,,,,,,,,orange,cross
0.0,7.0,3.0,1.0,6.0,6.0,721.2246810086071,6.0,0.0,part_2,stop,600.0,650.0,3.0,,,,,,,,,yellow,I
0.0,2.0,2.0,0.0,6.0,6.0,655.3444350138307,6.0,0.0,part_2,go,600.0,600.0,1.0,,,,,,,,,gray,flipped triangle
0.0,2.0,2.0,0.0,5.0,5.0,871.2213509716094,6.0,0.0,part_2,go,600.0,600.0,1.0,,,,,,,,,gray,flipped triangle
0.0,6.0,2.0,1.0,6.0,0.0,0.0,6.0,0.0,part_2,stop,600.0,600.0,4.0,,,,,,,,,white,hexagon
0.0,2.0,2.0,0.0,6.0,6.0,982.8846340533346,6.0,0.0,part_2,go,600.0,650.0,1.0,,,,,,,,,gray,flipped triangle
0.0,4.0,4.0,0.0,6.0,6.0,965.5615061055868,6.0,0.0,part_2,go,600.0,650.0,1.0,,,,,,,,,blue,square
0.0,1.0,1.0,0.0,6.0,6.0,1044.1661279182879,6.0,0.0,part_2,go,600.0,650.0,1.0,,,,,,,,,magenta,diamond
0.0,2.0,2.0,0.0,5.0,5.0,971.0635929368436,6.0,0.0,part_2,go,600.0,650.0,1.0,,,,,,,,,gray,flipped triangle
0.0,6.0,2.0,1.0,5.0,5.0,1156.3442160841078,6.0,0.0,part_2,go,600.0,650.0,1.0,,,,,,,,,white,hexagon
0.0,1.0,1.0,0.0,5.0,5.0,1040.2117818593981,6.0,0.0,part_2,go,600.0,650.0,1.0,,,,,,,,,magenta,diamond
0.0,6.0,2.0,1.0,6.0,0.0,0.0,6.0,0.0,part_2,stop,600.0,650.0,4.0,,,,,,,,,white,hexagon
0.0,8.0,4.0,1.0,5.0,5.0,777.060423977673,6.0,0.0,part_2,go,600.0,700.0,1.0,,,,,,,,,cyan,circle
0.0,5.0,1.0,1.0,5.0,0.0,0.0,6.0,0.0,part_2,stop,600.0,700.0,4.0,,,,,,,,,orange,cross
0.0,6.0,2.0,1.0,6.0,6.0,568.4642461128533,6.0,0.0,part_2,stop,650.0,700.0,3.0,,,,,,,,,white,hexagon
0.0,4.0,4.0,0.0,6.0,6.0,813.3240269962698,6.0,0.0,part_2,go,650.0,650.0,1.0,,,,,,,,,blue,square
0.0,8.0,4.0,1.0,6.0,0.0,0.0,6.0,0.0,part_2,stop,650.0,650.0,4.0,,,,,,,,,cyan,circle
0.0,2.0,2.0,0.0,5.0,5.0,837.4750590883195,6.0,0.0,part_2,go,650.0,700.0,1.0,,,,,,,,,gray,flipped triangle
0.0,7.0,3.0,1.0,6.0,6.0,1052.886749850586,6.0,0.0,part_2,go,650.0,700.0,1.0,,,,,,,,,yellow,I
0.0,5.0,1.0,1.0,6.0,0.0,0.0,6.0,0.0,part_2,stop,650.0,700.0,4.0,,,,,,,,,orange,cross
0.0,2.0,2.0,0.0,6.0,6.0,642.5867348443717,6.0,0.0,part_2,go,650.0,750.0,1.0,,,,,,,,,gray,flipped triangle
0.0,3.0,3.0,0.0,6.0,6.0,890.4894138686359,6.0,0.0,part_2,go,650.0,750.0,1.0,,,,,,,,,green,triangle
0.0,7.0,3.0,1.0,6.0,0.0,0.0,6.0,0.0,part_2,stop,650.0,750.0,4.0,,,,,,,,,yellow,I
0.0,5.0,1.0,1.0,6.0,6.0,471.320966957137,7.0,0.0,part_2,stop,650.0,800.0,3.0,,,,,,,,,orange,cross
0.0,3.0,3.0,0.0,5.0,5.0,735.3367288596928,7.0,0.0,part_2,go,650.0,750.0,1.0,,,,,,,,,green,triangle
0.0,4.0,4.0,0.0,5.0,5.0,783.846247009933,7.0,0.0,part_2,go,650.0,750.0,1.0,,,,,,,,,blue,square
0.0,4.0,4.0,0.0,5.0,5.0,824.2687431629747,7.0,0.0,part_2,go,650.0,750.0,1.0,,,,,,,,,blue,square
0.0,4.0,4.0,0.0,5.0,5.0,959.7109379246832,7.0,0.0,part_2,go,650.0,750.0,1.0,,,,,,,,,blue,square
0.0,5.0,1.0,1.0,6.0,6.0,768.7121089547873,7.0,0.0,part_2,stop,650.0,750.0,3.0,,,,,,,,,orange,cross
0.0,8.0,4.0,1.0,6.0,0.0,0.0,7.0,0.0,part_2,stop,650.0,700.0,4.0,,,,,,,,,cyan,circle
0.0,3.0,3.0,0.0,6.0,6.0,1124.8413501307368,7.0,0.0,part_2,go,650.0,750.0,1.0,,,,,,,,,green,triangle
0.0,1.0,1.0,0.0,5.0,5.0,772.3275059834123,7.0,0.0,part_2,go,650.0,750.0,1.0,,,,,,,,,magenta,diamond
0.0,3.0,3.0,0.0,6.0,6.0,1074.5120020583272,7.0,0.0,part_2,go,650.0,750.0,1.0,,,,,,,,,green,triangle
0.0,3.0,3.0,0.0,6.0,6.0,833.4897619206458,7.0,0.0,part_2,go,650.0,750.0,1.0,,,,,,,,,green,triangle
0.0,5.0,1.0,1.0,5.0,5.0,1073.7323828507217,7.0,0.0,part_2,go,650.0,750.0,1.0,,,,,,,,,orange,cross
0.0,8.0,4.0,1.0,5.0,0.0,0.0,7.0,0.0,part_2,stop,650.0,750.0,4.0,,,,,,,,,cyan,circle
0.0,2.0,2.0,0.0,5.0,5.0,867.5230350345373,7.0,0.0,part_2,go,700.0,750.0,1.0,,,,,,,,,gray,flipped triangle
0.0,7.0,3.0,1.0,6.0,6.0,699.6932760812342,7.0,0.0,part_2,stop,700.0,750.0,3.0,,,,,,,,,yellow,I
0.0,8.0,4.0,1.0,5.0,0.0,0.0,7.0,0.0,part_2,stop,700.0,700.0,4.0,,,,,,,,,cyan,circle
0.0,5.0,1.0,1.0,6.0,0.0,0.0,7.0,0.0,part_2,stop,750.0,700.0,4.0,,,,,,,,,orange,cross
0.0,2.0,2.0,0.0,5.0,5.0,798.0894399806857,7.0,0.0,part_2,go,750.0,750.0,1.0,,,,,,,,,gray,flipped triangle
0.0,3.0,3.0,0.0,6.0,6.0,949.0844870451838,7.0,0.0,part_2,go,750.0,750.0,1.0,,,,,,,,,green,triangle
0.0,6.0,2.0,1.0,5.0,5.0,990.149071905762,7.0,0.0,part_2,go,750.0,750.0,1.0,,,,,,,,,white,hexagon
0.0,2.0,2.0,0.0,6.0,6.0,1207.257242873311,7.0,0.0,part_2,go,750.0,750.0,1.0,,,,,,,,,gray,flipped triangle
0.0,6.0,2.0,1.0,6.0,0.0,0.0,7.0,0.0,part_2,stop,750.0,750.0,4.0,,,,,,,,,white,hexagon
0.0,5.0,1.0,1.0,6.0,6.0,1114.7427600808442,7.0,0.0,part_2,stop,750.0,800.0,3.0,,,,,,,,,orange,cross
0.0,1.0,1.0,0.0,6.0,6.0,1290.7397099770606,7.0,0.0,part_2,go,750.0,750.0,1.0,,,,,,,,,magenta,diamond
0.0,1.0,1.0,0.0,5.0,5.0,942.0525620225816,7.0,0.0,part_2,go,750.0,750.0,1.0,,,,,,,,,magenta,diamond
0.0,6.0,2.0,1.0,6.0,6.0,1148.417916148901,7.0,0.0,part_2,go,750.0,750.0,1.0,,,,,,,,,white,hexagon
0.0,7.0,3.0,1.0,5.0,5.0,1344.6940421126783,7.0,0.0,part_2,go,750.0,750.0,1.0,,,,,,,,,yellow,I
0.0,7.0,3.0,1.0,5.0,0.0,0.0,7.0,0.0,part_2,stop,750.0,750.0,4.0,,,,,,,,,yellow,I
0.0,7.0,3.0,1.0,5.0,0.0,0.0,7.0,0.0,part_2,stop,800.0,750.0,4.0,,,,,,,,,yellow,I
0.0,2.0,2.0,0.0,5.0,5.0,856.6108800005168,7.0,0.0,part_2,go,850.0,750.0,1.0,,,,,,,,,gray,flipped triangle
0.0,6.0,2.0,1.0,5.0,5.0,1057.2366449050603,7.0,0.0,part_2,go,850.0,750.0,1.0,,,,,,,,,white,hexagon
0.0,3.0,3.0,0.0,5.0,5.0,1006.5455390140414,7.0,0.0,part_2,go,850.0,750.0,1.0,,,,,,,,,green,triangle
0.0,5.0,1.0,1.0,5.0,0.0,0.0,7.0,0.0,part_2,stop,850.0,750.0,4.0,,,,,,,,,orange,cross
0.0,3.0,3.0,0.0,6.0,6.0,758.8526720646769,7.0,0.0,part_2,go,900.0,750.0,1.0,,,,,,,,,green,triangle
0.0,7.0,3.0,1.0,5.0,0.0,0.0,7.0,0.0,part_2,stop,900.0,750.0,4.0,,,,,,,,,yellow,I
0.0,3.0,3.0,0.0,5.0,5.0,1015.6981598120185,7.0,0.0,part_2,go,950.0,750.0,1.0,,,,,,,,,green,triangle
0.0,8.0,4.0,1.0,6.0,0.0,0.0,8.0,0.0,part_2,stop,950.0,750.0,4.0,,,,,,,,,cyan,circle
0.0,5.0,1.0,1.0,5.0,0.0,0.0,8.0,0.0,part_2,stop,950.0,800.0,4.0,,,,,,,,,orange,cross
0.0,1.0,1.0,0.0,5.0,5.0,731.7667889874429,8.0,0.0,part_2,go,1000.0,800.0,1.0,,,,,,,,,magenta,diamond
0.0,5.0,1.0,1.0,6.0,0.0,0.0,8.0,0.0,part_2,stop,1000.0,800.0,4.0,,,,,,,,,orange,cross
0.0,7.0,3.0,1.0,5.0,0.0,0.0,8.0,0.0,part_2,stop,1000.0,850.0,4.0,,,,,,,,,yellow,I
0.0,8.0,4.0,1.0,5.0,0.0,0.0,8.0,0.0,part_2,stop,1050.0,850.0,4.0,,,,,,,,,cyan,circle
0.0,7.0,3.0,1.0,6.0,0.0,0.0,8.0,0.0,part_2,go,1100.0,850.0,5.0,,,,,,,,,yellow,I
0.0,3.0,3.0,0.0,6.0,6.0,805.6934340856969,8.0,0.0,part_2,go,1100.0,850.0,1.0,,,,,,,,,green,triangle
0.0,1.0,1.0,0.0,5.0,5.0,1031.827008118853,8.0,0.0,part_2,go,1100.0,850.0,1.0,,,,,,,,,magenta,diamond
0.0,8.0,4.0,1.0,6.0,6.0,644.2753330338746,8.0,0.0,part_2,stop,1100.0,850.0,3.0,,,,,,,,,cyan,circle
0.0,6.0,2.0,1.0,5.0,5.0,589.3883530516177,8.0,0.0,part_2,go,1100.0,800.0,1.0,,,,,,,,,white,hexagon
0.0,6.0,2.0,1.0,6.0,6.0,779.4947759248316,8.0,0.0,part_2,stop,1100.0,800.0,3.0,,,,,,,,,white,hexagon
0.0,5.0,1.0,1.0,5.0,5.0,1267.2119170892984,8.0,0.0,part_2,go,1100.0,750.0,1.0,,,,,,,,,orange,cross
0.0,5.0,1.0,1.0,6.0,0.0,0.0,8.0,0.0,part_2,stop,1100.0,750.0,4.0,,,,,,,,,orange,cross
0.0,2.0,2.0,0.0,5.0,5.0,674.1645350120962,8.0,0.0,part_2,go,1100.0,800.0,1.0,,,,,,,,,gray,flipped triangle
0.0,7.0,3.0,1.0,5.0,5.0,980.7356060482562,8.0,0.0,part_2,stop,1100.0,800.0,3.0,,,,,,,,,yellow,I
0.0,4.0,4.0,0.0,6.0,6.0,627.154046902433,8.0,0.0,part_2,go,1050.0,800.0,1.0,,,,,,,,,blue,square
0.0,3.0,3.0,0.0,5.0,5.0,705.2326709963381,8.0,0.0,part_2,go,1050.0,800.0,1.0,,,,,,,,,green,triangle
0.0,6.0,2.0,1.0,5.0,5.0,952.3599969688804,8.0,0.0,part_2,stop,1050.0,800.0,3.0,,,,,,,,,white,hexagon
0.0,8.0,4.0,1.0,6.0,0.0,0.0,8.0,0.0,part_2,stop,1000.0,800.0,4.0,,,,,,,,,cyan,circle
0.0,4.0,4.0,0.0,5.0,5.0,695.1468409970403,8.0,0.0,part_2,go,1000.0,850.0,1.0,,,,,,,,,blue,square
0.0,8.0,4.0,1.0,5.0,5.0,1150.7252510637045,8.0,0.0,part_2,stop,1000.0,850.0,3.0,,,,,,,,,cyan,circle
0.0,5.0,1.0,1.0,5.0,0.0,0.0,8.0,0.0,part_2,stop,950.0,850.0,4.0,,,,,,,,,orange,cross
0.0,1.0,1.0,0.0,5.0,5.0,573.2654929161072,8.0,0.0,part_2,go,1000.0,850.0,1.0,,,,,,,,,magenta,diamond
0.0,4.0,4.0,0.0,5.0,5.0,1068.713007029146,8.0,0.0,part_2,go,1000.0,850.0,1.0,,,,,,,,,blue,square
0.0,5.0,1.0,1.0,6.0,0.0,0.0,8.0,0.0,part_2,stop,1000.0,850.0,4.0,,,,,,,,,orange,cross
0.0,3.0,3.0,0.0,6.0,6.0,621.8682341277599,8.0,0.0,part_2,go,1000.0,900.0,1.0,,,,,,,,,green,triangle
0.0,4.0,4.0,0.0,6.0,6.0,972.9282518383116,8.0,0.0,part_2,go,1000.0,900.0,1.0,,,,,,,,,blue,square
0.0,2.0,2.0,0.0,6.0,6.0,754.792156862095,8.0,0.0,part_2,go,1000.0,900.0,1.0,,,,,,,,,gray,flipped triangle
0.0,5.0,1.0,1.0,5.0,0.0,0.0,8.0,0.0,part_2,stop,1000.0,900.0,4.0,,,,,,,,,orange,cross
0.0,4.0,4.0,0.0,5.0,5.0,713.4049949236214,8.0,0.0,part_2,go,1050.0,900.0,1.0,,,,,,,,,blue,square
0.0,1.0,1.0,0.0,5.0,5.0,699.303322006017,8.0,0.0,part_2,go,1050.0,900.0,1.0,,,,,,,,,magenta,diamond
0.0,7.0,3.0,1.0,6.0,0.0,0.0,8.0,0.0,part_2,stop,1050.0,900.0,4.0,,,,,,,,,yellow,I
0.0,5.0,1.0,1.0,6.0,0.0,0.0,8.0,0.0,part_2,stop,1050.0,950.0,4.0,,,,,,,,,orange,cross
0.0,3.0,3.0,0.0,5.0,5.0,767.1879511326551,8.0,0.0,part_2,go,1050.0,1000.0,1.0,,,,,,,,,green,triangle
0.0,6.0,2.0,1.0,6.0,0.0,0.0,8.0,0.0,part_2,stop,1050.0,1000.0,4.0,,,,,,,,,white,hexagon
0.0,5.0,1.0,1.0,7.0,2.0,1567.0827410649508,1.0,1.0,part_3,go,0.0,0.0,0.0,204.0,6.0,34.0,204.0,68.0,170.0,136.0,102.0,orange,cross
0.0,7.0,3.0,1.0,7.0,4.0,1782.0545099675655,1.0,1.0,part_3,go,0.0,0.0,0.0,147.0,3.0,49.0,294.0,98.0,147.0,196.0,245.0,yellow,I
0.0,6.0,2.0,1.0,7.0,2.0,1656.8045569583774,1.0,1.0,part_3,go,0.0,0.0,0.0,162.0,3.0,108.0,162.0,216.0,270.0,324.0,54.0,white,hexagon
0.0,2.0,2.0,0.0,7.0,6.0,2099.505868041888,1.0,1.0,part_3,go,0.0,0.0,0.0,156.0,4.0,234.0,117.0,78.0,39.0,195.0,156.0,gray,flipped triangle
0.0,7.0,3.0,1.0,7.0,2.0,1907.4270888231697,1.0,1.0,part_3,go,0.0,0.0,0.0,108.0,2.0,54.0,108.0,162.0,324.0,216.0,270.0,yellow,I
0.0,4.0,4.0,0.0,7.0,5.0,1998.5694638453424,1.0,1.0,part_3,go,0.0,0.0,0.0,196.0,4.0,245.0,147.0,49.0,98.0,196.0,294.0,blue,square
0.0,4.0,4.0,0.0,7.0,4.0,2046.7744960915297,1.0,1.0,part_3,go,0.0,0.0,0.0,324.0,6.0,108.0,162.0,270.0,324.0,216.0,54.0,blue,square
0.0,6.0,2.0,1.0,7.0,2.0,2159.792314050719,1.0,1.0,part_3,go,0.0,0.0,0.0,88.0,2.0,44.0,88.0,132.0,176.0,220.0,264.0,white,hexagon
0.0,8.0,4.0,1.0,7.0,5.0,1547.5096579175442,1.0,1.0,part_3,go,0.0,0.0,0.0,170.0,5.0,68.0,102.0,136.0,204.0,170.0,34.0,cyan,circle
0.0,8.0,4.0,1.0,7.0,4.0,1538.6947570368648,1.0,1.0,part_3,go,0.0,0.0,0.0,234.0,6.0,39.0,195.0,117.0,234.0,156.0,78.0,cyan,circle
0.0,3.0,3.0,0.0,7.0,3.0,1827.216467121616,1.0,1.0,part_3,go,0.0,0.0,0.0,196.0,4.0,147.0,98.0,196.0,49.0,245.0,294.0,green,triangle
0.0,4.0,4.0,0.0,7.0,5.0,1159.8508339375255,1.0,1.0,part_3,go,0.0,0.0,0.0,117.0,3.0,39.0,78.0,195.0,156.0,117.0,234.0,blue,square
0.0,4.0,4.0,0.0,7.0,2.0,1597.1146570518613,1.0,1.0,part_3,go,0.0,0.0,0.0,220.0,5.0,176.0,220.0,88.0,264.0,44.0,132.0,blue,square
0.0,7.0,3.0,1.0,7.0,5.0,1497.432797914371,1.0,1.0,part_3,go,0.0,0.0,0.0,196.0,4.0,294.0,147.0,98.0,245.0,196.0,49.0,yellow,I
0.0,4.0,4.0,0.0,7.0,1.0,1185.3629800025374,1.0,1.0,part_3,go,0.0,0.0,0.0,176.0,4.0,176.0,88.0,264.0,44.0,220.0,132.0,blue,square
0.0,3.0,3.0,0.0,7.0,4.0,1507.214816985652,1.0,1.0,part_3,go,0.0,0.0,0.0,170.0,5.0,136.0,34.0,204.0,170.0,102.0,68.0,green,triangle
0.0,2.0,2.0,0.0,7.0,2.0,1067.160634091124,1.0,1.0,part_3,go,0.0,0.0,0.0,196.0,4.0,294.0,196.0,49.0,98.0,147.0,245.0,gray,flipped triangle
0.0,5.0,1.0,1.0,7.0,5.0,1196.4582700747997,1.0,1.0,part_3,go,0.0,0.0,0.0,220.0,5.0,88.0,264.0,132.0,176.0,220.0,44.0,orange,cross
0.0,8.0,4.0,1.0,7.0,3.0,1029.794674832374,1.0,1.0,part_3,go,0.0,0.0,0.0,324.0,6.0,108.0,270.0,324.0,54.0,162.0,216.0,cyan,circle
0.0,6.0,2.0,1.0,7.0,2.0,897.7016378194094,1.0,1.0,part_3,go,0.0,0.0,0.0,156.0,4.0,234.0,156.0,39.0,78.0,195.0,117.0,white,hexagon
0.0,3.0,3.0,0.0,7.0,3.0,0.182065879926,2.0,1.0,part_3,go,0.0,0.0,0.0,270.0,5.0,324.0,108.0,270.0,162.0,216.0,54.0,green,triangle
0.0,2.0,2.0,0.0,7.0,2.0,738.4259409736842,2.0,1.0,part_3,go,0.0,0.0,0.0,108.0,2.0,216.0,108.0,162.0,54.0,270.0,324.0,gray,flipped triangle
0.0,8.0,4.0,1.0,7.0,5.0,1028.8297079969198,2.0,1.0,part_3,go,0.0,0.0,0.0,324.0,6.0,216.0,54.0,270.0,162.0,324.0,108.0,cyan,circle
0.0,4.0,4.0,0.0,7.0,4.0,1126.0058039333671,2.0,1.0,part_3,go,0.0,0.0,0.0,136.0,4.0,102.0,170.0,204.0,136.0,68.0,34.0,blue,square
0.0,2.0,2.0,0.0,7.0,5.0,1566.163384122774,2.0,1.0,part_3,go,0.0,0.0,0.0,68.0,2.0,204.0,102.0,34.0,170.0,68.0,136.0,gray,flipped triangle
0.0,3.0,3.0,0.0,7.0,2.0,637.8733469173312,2.0,1.0,part_3,go,0.0,0.0,0.0,117.0,3.0,78.0,117.0,234.0,39.0,156.0,195.0,green,triangle
0.0,5.0,1.0,1.0,7.0,5.0,898.1766460929066,2.0,1.0,part_3,go,0.0,0.0,0.0,156.0,4.0,234.0,117.0,195.0,39.0,156.0,78.0,orange,cross
0.0,5.0,1.0,1.0,7.0,3.0,745.2013099100441,2.0,1.0,part_3,go,0.0,0.0,0.0,216.0,4.0,162.0,270.0,216.0,108.0,54.0,324.0,orange,cross
0.0,1.0,1.0,0.0,7.0,5.0,1366.008372977376,2.0,1.0,part_3,go,0.0,0.0,0.0,264.0,6.0,44.0,88.0,132.0,220.0,264.0,176.0,magenta,diamond
0.0,1.0,1.0,0.0,7.0,6.0,1619.1420359537003,2.0,1.0,part_3,go,0.0,0.0,0.0,117.0,3.0,78.0,156.0,39.0,195.0,234.0,117.0,magenta,diamond
0.0,4.0,4.0,0.0,7.0,2.0,477.4921380449086,2.0,1.0,part_3,go,0.0,0.0,0.0,294.0,6.0,147.0,294.0,245.0,49.0,196.0,98.0,blue,square
0.0,7.0,3.0,1.0,7.0,4.0,609.088942874223,2.0,1.0,part_3,go,0.0,0.0,0.0,234.0,6.0,195.0,78.0,39.0,234.0,117.0,156.0,yellow,I
0.0,5.0,1.0,1.0,7.0,5.0,1546.6235941275954,2.0,1.0,part_3,go,0.0,0.0,0.0,44.0,1.0,88.0,264.0,220.0,176.0,44.0,132.0,orange,cross
0.0,4.0,4.0,0.0,7.0,2.0,1649.1809100843966,2.0,1.0,part_3,go,0.0,0.0,0.0,102.0,3.0,68.0,102.0,204.0,170.0,136.0,34.0,blue,square
0.0,5.0,1.0,1.0,7.0,1.0,1828.9051479659977,2.0,1.0,part_3,go,0.0,0.0,0.0,156.0,4.0,156.0,234.0,39.0,78.0,117.0,195.0,orange,cross
0.0,2.0,2.0,0.0,7.0,3.0,1495.0978958513588,2.0,1.0,part_3,go,0.0,0.0,0.0,147.0,3.0,98.0,294.0,147.0,245.0,196.0,49.0,gray,flipped triangle
0.0,6.0,2.0,1.0,7.0,2.0,1246.6980400495231,2.0,1.0,part_3,go,0.0,0.0,0.0,245.0,5.0,196.0,245.0,147.0,49.0,98.0,294.0,white,hexagon
0.0,3.0,3.0,0.0,7.0,1.0,1343.7693149317056,2.0,1.0,part_3,go,0.0,0.0,0.0,156.0,4.0,156.0,39.0,117.0,78.0,195.0,234.0,green,triangle
0.0,7.0,3.0,1.0,7.0,4.0,1195.0085870921612,2.0,1.0,part_3,go,0.0,0.0,0.0,34.0,1.0,68.0,102.0,204.0,34.0,170.0,136.0,yellow,I
0.0,3.0,3.0,0.0,7.0,5.0,609.3648101668805,2.0,1.0,part_3,go,0.0,0.0,0.0,220.0,5.0,44.0,88.0,176.0,132.0,220.0,264.0,green,triangle
0.0,3.0,3.0,0.0,7.0,2.0,774.3176049552858,3.0,1.0,part_3,go,0.0,0.0,0.0,162.0,3.0,108.0,162.0,54.0,216.0,270.0,324.0,green,triangle
0.0,5.0,1.0,1.0,7.0,1.0,1560.4853760451078,3.0,1.0,part_3,go,0.0,0.0,0.0,98.0,2.0,98.0,49.0,294.0,245.0,196.0,147.0,orange,cross
0.0,6.0,2.0,1.0,7.0,6.0,696.0448049940169,3.0,1.0,part_3,go,0.0,0.0,0.0,196.0,4.0,294.0,49.0,147.0,98.0,245.0,196.0,white,hexagon
0.0,8.0,4.0,1.0,7.0,4.0,801.6432761214674,3.0,1.0,part_3,go,0.0,0.0,0.0,195.0,5.0,117.0,39.0,234.0,195.0,78.0,156.0,cyan,circle
0.0,8.0,4.0,1.0,7.0,4.0,1034.086043946445,3.0,1.0,part_3,go,0.0,0.0,0.0,176.0,4.0,132.0,264.0,88.0,176.0,220.0,44.0,cyan,circle
0.0,8.0,4.0,1.0,7.0,4.0,1107.381618116051,3.0,1.0,part_3,go,0.0,0.0,0.0,102.0,3.0,68.0,34.0,204.0,102.0,136.0,170.0,cyan,circle
0.0,6.0,2.0,1.0,7.0,1.0,1548.7740950193256,3.0,1.0,part_3,go,0.0,0.0,0.0,324.0,6.0,324.0,108.0,270.0,162.0,54.0,216.0,white,hexagon
0.0,1.0,1.0,0.0,7.0,4.0,990.7009119633584,3.0,1.0,part_3,go,0.0,0.0,0.0,68.0,2.0,204.0,136.0,170.0,68.0,102.0,34.0,magenta,diamond
0.0,6.0,2.0,1.0,7.0,3.0,1265.2658049482852,3.0,1.0,part_3,go,0.0,0.0,0.0,234.0,6.0,39.0,156.0,234.0,78.0,195.0,117.0,white,hexagon
0.0,1.0,1.0,0.0,7.0,5.0,747.2570231184363,3.0,1.0,part_3,go,0.0,0.0,0.0,245.0,5.0,294.0,196.0,147.0,49.0,245.0,98.0,magenta,diamond
0.0,1.0,1.0,0.0,7.0,1.0,1090.1459350716325,3.0,1.0,part_3,go,0.0,0.0,0.0,234.0,6.0,234.0,39.0,117.0,195.0,78.0,156.0,magenta,diamond
0.0,2.0,2.0,0.0,7.0,2.0,1525.0589000061154,3.0,1.0,part_3,go,0.0,0.0,0.0,156.0,4.0,195.0,156.0,117.0,39.0,78.0,234.0,gray,flipped triangle
0.0,7.0,3.0,1.0,7.0,5.0,676.828428870067,3.0,1.0,part_3,go,0.0,0.0,0.0,220.0,5.0,132.0,44.0,176.0,88.0,220.0,264.0,yellow,I
0.0,7.0,3.0,1.0,7.0,1.0,1200.921037932858,3.0,1.0,part_3,go,0.0,0.0,0.0,108.0,2.0,108.0,54.0,216.0,324.0,162.0,270.0,yellow,I
0.0,3.0,3.0,0.0,7.0,2.0,1633.428222965449,3.0,1.0,part_3,go,0.0,0.0,0.0,147.0,3.0,196.0,147.0,98.0,49.0,245.0,294.0,green,triangle
0.0,1.0,1.0,0.0,7.0,6.0,656.9614009931684,3.0,1.0,part_3,go,0.0,0.0,0.0,162.0,3.0,54.0,324.0,216.0,108.0,270.0,162.0,magenta,diamond
0.0,8.0,4.0,1.0,7.0,5.0,1099.1213279776275,3.0,1.0,part_3,go,0.0,0.0,0.0,264.0,6.0,44.0,220.0,88.0,176.0,264.0,132.0,cyan,circle
0.0,8.0,4.0,1.0,7.0,5.0,1413.367005996406,3.0,1.0,part_3,go,0.0,0.0,0.0,196.0,4.0,98.0,294.0,245.0,147.0,196.0,49.0,cyan,circle
0.0,5.0,1.0,1.0,7.0,3.0,2165.2017179876566,3.0,1.0,part_3,go,0.0,0.0,0.0,136.0,4.0,68.0,170.0,136.0,102.0,34.0,204.0,orange,cross
0.0,7.0,3.0,1.0,7.0,2.0,1680.7053091470152,3.0,1.0,part_3,go,0.0,0.0,0.0,170.0,5.0,204.0,170.0,136.0,68.0,102.0,34.0,yellow,I
0.0,3.0,3.0,0.0,7.0,2.0,1578.372600954026,4.0,1.0,part_3,go,0.0,0.0,0.0,264.0,6.0,220.0,264.0,176.0,44.0,88.0,132.0,green,triangle
0.0,7.0,3.0,1.0,7.0,4.0,1249.1959710605445,4.0,1.0,part_3,go,0.0,0.0,0.0,220.0,5.0,176.0,264.0,88.0,220.0,132.0,44.0,yellow,I
0.0,1.0,1.0,0.0,7.0,2.0,869.3013358861208,4.0,1.0,part_3,go,0.0,0.0,0.0,54.0,1.0,108.0,54.0,162.0,270.0,324.0,216.0,magenta,diamond
0.0,1.0,1.0,0.0,7.0,5.0,550.95732701011,4.0,1.0,part_3,go,0.0,0.0,0.0,132.0,3.0,176.0,88.0,264.0,44.0,132.0,220.0,magenta,diamond
0.0,2.0,2.0,0.0,7.0,3.0,1104.0178940165788,4.0,1.0,part_3,go,0.0,0.0,0.0,162.0,3.0,270.0,324.0,162.0,216.0,54.0,108.0,gray,flipped triangle
0.0,6.0,2.0,1.0,7.0,3.0,1343.1411031633615,4.0,1.0,part_3,go,0.0,0.0,0.0,68.0,2.0,136.0,102.0,68.0,204.0,170.0,34.0,white,hexagon
0.0,2.0,2.0,0.0,7.0,2.0,1720.2622711192816,4.0,1.0,part_3,go,0.0,0.0,0.0,176.0,4.0,264.0,176.0,220.0,132.0,44.0,88.0,gray,flipped triangle
0.0,8.0,4.0,1.0,7.0,4.0,1114.376934012398,4.0,1.0,part_3,go,0.0,0.0,0.0,245.0,5.0,147.0,49.0,196.0,245.0,98.0,294.0,cyan,circle
0.0,1.0,1.0,0.0,7.0,2.0,611.6483930964023,4.0,1.0,part_3,go,0.0,0.0,0.0,170.0,5.0,68.0,170.0,136.0,102.0,204.0,34.0,magenta,diamond
0.0,2.0,2.0,0.0,7.0,1.0,854.5737399253994,4.0,1.0,part_3,go,0.0,0.0,0.0,170.0,5.0,170.0,204.0,68.0,136.0,34.0,102.0,gray,flipped triangle
0.0,4.0,4.0,0.0,7.0,1.0,1381.5551351290196,4.0,1.0,part_3,go,0.0,0.0,0.0,216.0,4.0,216.0,324.0,54.0,108.0,270.0,162.0,blue,square
0.0,5.0,1.0,1.0,7.0,2.0,910.469629103318,4.0,1.0,part_3,go,0.0,0.0,0.0,108.0,2.0,162.0,108.0,324.0,54.0,216.0,270.0,orange,cross
0.0,5.0,1.0,1.0,7.0,5.0,779.9823088571429,4.0,1.0,part_3,go,0.0,0.0,0.0,147.0,3.0,49.0,294.0,196.0,98.0,147.0,245.0,orange,cross
0.0,7.0,3.0,1.0,7.0,3.0,1521.682207006961,4.0,1.0,part_3,go,0.0,0.0,0.0,78.0,2.0,156.0,39.0,78.0,234.0,117.0,195.0,yellow,I
0.0,3.0,3.0,0.0,7.0,5.0,1175.0329269561917,4.0,1.0,part_3,go,0.0,0.0,0.0,170.0,5.0,34.0,136.0,68.0,102.0,170.0,204.0,green,triangle
0.0,6.0,2.0,1.0,7.0,2.0,821.1808528285474,4.0,1.0,part_3,go,0.0,0.0,0.0,88.0,2.0,264.0,88.0,220.0,132.0,176.0,44.0,white,hexagon
0.0,2.0,2.0,0.0,7.0,6.0,1208.600017009303,4.0,1.0,part_3,go,0.0,0.0,0.0,44.0,1.0,220.0,132.0,264.0,176.0,88.0,44.0,gray,flipped triangle
0.0,1.0,1.0,0.0,7.0,3.0,1118.9671789761633,4.0,1.0,part_3,go,0.0,0.0,0.0,294.0,6.0,147.0,49.0,294.0,196.0,245.0,98.0,magenta,diamond
0.0,4.0,4.0,0.0,7.0,5.0,924.6951520908624,4.0,1.0,part_3,go,0.0,0.0,0.0,156.0,4.0,117.0,39.0,234.0,78.0,156.0,195.0,blue,square
0.0,6.0,2.0,1.0,7.0,6.0,1172.2556338645518,4.0,1.0,part_3,go,0.0,0.0,0.0,204.0,6.0,136.0,102.0,34.0,68.0,170.0,204.0,white,hexagon
