raw_reward_magnitude,stim_reward,stepwise_reward_magnitude,paired_with_stopping,quadrant,response,reaction_time,block,num_trial_presentations,which_part,stop_signal_trial_type,left_SSD,right_SSD,accuracy,chosen_bidding_amount,chosen_bidding_level,possible_bid_1,possible_bid_2,possible_bid_3,possible_bid_4,possible_bid_5,possible_bid_6,color_text,shape_text
27.0,5.0,1.0,1.0,2.0,2.0,358.9531690813601,1.0,2.0,part_1,,,,,,,,,,,,,blue,flipped triangle
200.0,3.0,3.0,0.0,2.0,2.0,331.4702820498496,1.0,1.0,part_1,,,,,,,,,,,,,magenta,circle
86.0,2.0,2.0,0.0,3.0,3.0,316.6415991727263,1.0,1.0,part_1,,,,,,,,,,,,,white,square
191.0,3.0,3.0,0.0,2.0,2.0,337.1405249927193,1.0,1.0,part_1,,,,,,,,,,,,,magenta,circle
0.0,6.0,0.0,1.0,2.0,2.0,422.2780389245599,1.0,1.0,part_1,,,,,,,,,,,,,cyan,cross
0.0,5.0,0.0,1.0,3.0,3.0,371.2998670525849,1.0,1.0,part_1,,,,,,,,,,,,,blue,flipped triangle
47.0,1.0,1.0,0.0,2.0,2.0,338.875318178907,1.0,1.0,part_1,,,,,,,,,,,,,gray,I
0.0,1.0,0.0,0.0,1.0,1.0,510.1471049711108,1.0,1.0,part_1,,,,,,,,,,,,,gray,I
383.0,8.0,4.0,1.0,2.0,2.0,355.6304301600903,1.0,1.0,part_1,,,,,,,,,,,,,green,hexagon
0.0,3.0,0.0,0.0,3.0,3.0,376.1432759929448,1.0,1.0,part_1,,,,,,,,,,,,,magenta,circle
225.0,3.0,3.0,0.0,2.0,2.0,339.2374461982399,1.0,1.0,part_1,,,,,,,,,,,,,magenta,circle
204.0,7.0,3.0,1.0,4.0,4.0,375.85135595873,1.0,1.0,part_1,,,,,,,,,,,,,yellow,diamond
192.0,3.0,3.0,0.0,4.0,4.0,371.6104160994291,1.0,1.0,part_1,,,,,,,,,,,,,magenta,circle
0.0,1.0,0.0,0.0,1.0,1.0,415.249067125842,1.0,2.0,part_1,,,,,,,,,,,,,gray,I
58.0,1.0,1.0,0.0,1.0,1.0,370.2446368988603,1.0,1.0,part_1,,,,,,,,,,,,,gray,I
189.0,3.0,3.0,0.0,1.0,1.0,385.5319879949093,1.0,1.0,part_1,,,,,,,,,,,,,magenta,circle
39.0,1.0,1.0,0.0,2.0,2.0,363.5411479044705,1.0,1.0,part_1,,,,,,,,,,,,,gray,I
189.0,7.0,3.0,1.0,1.0,1.0,297.80146502889687,1.0,1.0,part_1,,,,,,,,,,,,,yellow,diamond
118.0,6.0,2.0,1.0,2.0,2.0,325.3629778046161,1.0,1.0,part_1,,,,,,,,,,,,,cyan,cross
0.0,2.0,0.0,0.0,4.0,4.0,403.1504918821156,1.0,1.0,part_1,,,,,,,,,,,,,white,square
35.0,1.0,1.0,0.0,3.0,3.0,494.4262839853763,1.0,1.0,part_1,,,,,,,,,,,,,gray,I
81.0,2.0,2.0,0.0,3.0,3.0,372.2140660975128,1.0,1.0,part_1,,,,,,,,,,,,,white,square
225.0,3.0,3.0,0.0,3.0,3.0,431.8805600050837,1.0,1.0,part_1,,,,,,,,,,,,,magenta,circle
395.0,8.0,4.0,1.0,4.0,4.0,375.3574371803552,1.0,1.0,part_1,,,,,,,,,,,,,green,hexagon
72.0,5.0,1.0,1.0,3.0,3.0,304.9122088123113,1.0,1.0,part_1,,,,,,,,,,,,,blue,flipped triangle
86.0,2.0,2.0,0.0,4.0,4.0,325.2977197989821,1.0,1.0,part_1,,,,,,,,,,,,,white,square
30.0,5.0,1.0,1.0,1.0,1.0,379.159590927884,1.0,1.0,part_1,,,,,,,,,,,,,blue,flipped triangle
0.0,7.0,0.0,1.0,3.0,3.0,379.7555239871144,1.0,1.0,part_1,,,,,,,,,,,,,yellow,diamond
413.0,8.0,4.0,1.0,3.0,3.0,341.1910079885274,1.0,1.0,part_1,,,,,,,,,,,,,green,hexagon
35.0,5.0,1.0,1.0,2.0,2.0,321.5103079564869,1.0,1.0,part_1,,,,,,,,,,,,,blue,flipped triangle
73.0,1.0,1.0,0.0,3.0,3.0,317.5640578847378,1.0,1.0,part_1,,,,,,,,,,,,,gray,I
415.0,4.0,4.0,0.0,4.0,4.0,345.5293078441173,1.0,1.0,part_1,,,,,,,,,,,,,orange,triangle
381.0,4.0,4.0,0.0,3.0,3.0,296.5129818767309,1.0,1.0,part_1,,,,,,,,,,,,,orange,triangle
115.0,2.0,2.0,0.0,4.0,4.0,450.5282850004732,1.0,1.0,part_1,,,,,,,,,,,,,white,square
35.0,1.0,1.0,0.0,4.0,4.0,311.463335994631,1.0,1.0,part_1,,,,,,,,,,,,,gray,I
69.0,5.0,1.0,1.0,2.0,2.0,389.5885508973151,1.0,1.0,part_1,,,,,,,,,,,,,blue,flipped triangle
83.0,6.0,2.0,1.0,4.0,4.0,308.7802871596068,1.0,1.0,part_1,,,,,,,,,,,,,cyan,cross
223.0,7.0,3.0,1.0,3.0,3.0,287.3646721709519,1.0,1.0,part_1,,,,,,,,,,,,,yellow,diamond
51.0,5.0,1.0,1.0,1.0,1.0,388.5393179953098,1.0,1.0,part_1,,,,,,,,,,,,,blue,flipped triangle
179.0,7.0,3.0,1.0,4.0,4.0,359.6998939756304,1.0,1.0,part_1,,,,,,,,,,,,,yellow,diamond
419.0,8.0,4.0,1.0,2.0,2.0,477.8760140761733,1.0,1.0,part_1,,,,,,,,,,,,,green,hexagon
107.0,6.0,2.0,1.0,3.0,3.0,337.8078420646488,1.0,1.0,part_1,,,,,,,,,,,,,cyan,cross
48.0,5.0,1.0,1.0,4.0,4.0,550.9606490377337,1.0,1.0,part_1,,,,,,,,,,,,,blue,flipped triangle
39.0,5.0,1.0,1.0,3.0,3.0,484.5107120927423,1.0,1.0,part_1,,,,,,,,,,,,,blue,flipped triangle
184.0,3.0,3.0,0.0,3.0,3.0,297.4572349339723,1.0,1.0,part_1,,,,,,,,,,,,,magenta,circle
0.0,6.0,0.0,1.0,3.0,3.0,283.6808860301971,1.0,1.0,part_1,,,,,,,,,,,,,cyan,cross
179.0,3.0,3.0,0.0,1.0,1.0,483.5064040962606,1.0,1.0,part_1,,,,,,,,,,,,,magenta,circle
0.0,7.0,0.0,1.0,2.0,2.0,412.4333360232413,1.0,1.0,part_1,,,,,,,,,,,,,yellow,diamond
62.0,1.0,1.0,0.0,2.0,2.0,466.6192329023033,1.0,1.0,part_1,,,,,,,,,,,,,gray,I
107.0,2.0,2.0,0.0,4.0,4.0,400.2076999749988,1.0,1.0,part_1,,,,,,,,,,,,,white,square
200.0,7.0,3.0,1.0,4.0,4.0,370.8044558297843,1.0,1.0,part_1,,,,,,,,,,,,,yellow,diamond
393.0,8.0,4.0,1.0,2.0,2.0,400.0577689148485,1.0,1.0,part_1,,,,,,,,,,,,,green,hexagon
113.0,6.0,2.0,1.0,1.0,1.0,414.3882161006331,1.0,1.0,part_1,,,,,,,,,,,,,cyan,cross
104.0,2.0,2.0,0.0,3.0,3.0,337.1016189921647,1.0,1.0,part_1,,,,,,,,,,,,,white,square
219.0,7.0,3.0,1.0,1.0,1.0,415.0472150649875,1.0,1.0,part_1,,,,,,,,,,,,,yellow,diamond
88.0,2.0,2.0,0.0,4.0,4.0,394.1691699437797,1.0,1.0,part_1,,,,,,,,,,,,,white,square
411.0,8.0,4.0,1.0,1.0,1.0,391.2643538787961,1.0,1.0,part_1,,,,,,,,,,,,,green,hexagon
62.0,5.0,1.0,1.0,4.0,4.0,395.6011210102588,1.0,1.0,part_1,,,,,,,,,,,,,blue,flipped triangle
0.0,1.0,0.0,0.0,3.0,3.0,403.5516588483006,1.0,1.0,part_1,,,,,,,,,,,,,gray,I
62.0,5.0,1.0,1.0,3.0,3.0,334.4178020488471,1.0,1.0,part_1,,,,,,,,,,,,,blue,flipped triangle
0.0,5.0,0.0,1.0,3.0,3.0,370.884494157508,1.0,1.0,part_1,,,,,,,,,,,,,blue,flipped triangle
212.0,7.0,3.0,1.0,1.0,1.0,456.6628350876272,1.0,1.0,part_1,,,,,,,,,,,,,yellow,diamond
0.0,3.0,0.0,0.0,4.0,4.0,610.5600448790938,1.0,1.0,part_1,,,,,,,,,,,,,magenta,circle
192.0,7.0,3.0,1.0,2.0,2.0,634.76941594854,1.0,1.0,part_1,,,,,,,,,,,,,yellow,diamond
182.0,7.0,3.0,1.0,1.0,1.0,395.6847719382494,1.0,1.0,part_1,,,,,,,,,,,,,yellow,diamond
54.0,5.0,1.0,1.0,1.0,1.0,432.2954409290105,1.0,1.0,part_1,,,,,,,,,,,,,blue,flipped triangle
0.0,1.0,0.0,0.0,4.0,4.0,440.3133341111243,1.0,1.0,part_1,,,,,,,,,,,,,gray,I
385.0,4.0,4.0,0.0,1.0,1.0,393.6014319770038,1.0,1.0,part_1,,,,,,,,,,,,,orange,triangle
0.0,4.0,0.0,0.0,2.0,2.0,439.2856420017779,1.0,1.0,part_1,,,,,,,,,,,,,orange,triangle
419.0,8.0,4.0,1.0,1.0,1.0,448.0179511010647,1.0,1.0,part_1,,,,,,,,,,,,,green,hexagon
101.0,6.0,2.0,1.0,2.0,2.0,434.5141358207911,1.0,1.0,part_1,,,,,,,,,,,,,cyan,cross
179.0,7.0,3.0,1.0,3.0,3.0,413.7210929766297,1.0,1.0,part_1,,,,,,,,,,,,,yellow,diamond
225.0,3.0,3.0,0.0,3.0,3.0,393.9421270042658,1.0,1.0,part_1,,,,,,,,,,,,,magenta,circle
208.0,3.0,3.0,0.0,1.0,1.0,422.9405319783836,1.0,1.0,part_1,,,,,,,,,,,,,magenta,circle
85.0,6.0,2.0,1.0,3.0,3.0,342.8975988645106,1.0,1.0,part_1,,,,,,,,,,,,,cyan,cross
112.0,6.0,2.0,1.0,2.0,2.0,411.053131101653,1.0,1.0,part_1,,,,,,,,,,,,,cyan,cross
0.0,4.0,0.0,0.0,1.0,1.0,416.0330991726368,1.0,1.0,part_1,,,,,,,,,,,,,orange,triangle
214.0,7.0,3.0,1.0,1.0,1.0,443.7821409665048,1.0,1.0,part_1,,,,,,,,,,,,,yellow,diamond
419.0,4.0,4.0,0.0,1.0,1.0,357.9783809836954,1.0,1.0,part_1,,,,,,,,,,,,,orange,triangle
122.0,2.0,2.0,0.0,4.0,4.0,347.7720459923148,1.0,1.0,part_1,,,,,,,,,,,,,white,square
64.0,5.0,1.0,1.0,2.0,2.0,447.079615201801,1.0,1.0,part_1,,,,,,,,,,,,,blue,flipped triangle
92.0,2.0,2.0,0.0,1.0,1.0,446.3555691763758,1.0,1.0,part_1,,,,,,,,,,,,,white,square
401.0,8.0,4.0,1.0,2.0,2.0,448.7306249793619,1.0,1.0,part_1,,,,,,,,,,,,,green,hexagon
93.0,2.0,2.0,0.0,2.0,2.0,533.6057299282402,1.0,1.0,part_1,,,,,,,,,,,,,white,square
0.0,4.0,0.0,0.0,4.0,4.0,452.6397539302706,1.0,1.0,part_1,,,,,,,,,,,,,orange,triangle
386.0,4.0,4.0,0.0,3.0,3.0,400.2553049940616,1.0,1.0,part_1,,,,,,,,,,,,,orange,triangle
62.0,1.0,1.0,0.0,1.0,1.0,403.5643709357828,1.0,1.0,part_1,,,,,,,,,,,,,gray,I
93.0,2.0,2.0,0.0,1.0,1.0,600.3890340216458,1.0,1.0,part_1,,,,,,,,,,,,,white,square
69.0,1.0,1.0,0.0,1.0,1.0,445.2578229829669,1.0,1.0,part_1,,,,,,,,,,,,,gray,I
376.0,8.0,4.0,1.0,2.0,2.0,481.3234559260309,1.0,1.0,part_1,,,,,,,,,,,,,green,hexagon
0.0,3.0,0.0,0.0,1.0,1.0,413.8462729752064,1.0,1.0,part_1,,,,,,,,,,,,,magenta,circle
0.0,4.0,0.0,0.0,3.0,3.0,378.78647306934,1.0,1.0,part_1,,,,,,,,,,,,,orange,triangle
383.0,4.0,4.0,0.0,1.0,1.0,390.9784408751875,1.0,1.0,part_1,,,,,,,,,,,,,orange,triangle
65.0,5.0,1.0,1.0,3.0,3.0,349.741144105792,1.0,1.0,part_1,,,,,,,,,,,,,blue,flipped triangle
207.0,3.0,3.0,0.0,3.0,3.0,344.826775137335,1.0,1.0,part_1,,,,,,,,,,,,,magenta,circle
47.0,5.0,1.0,1.0,1.0,1.0,391.4948501624167,1.0,1.0,part_1,,,,,,,,,,,,,blue,flipped triangle
0.0,8.0,0.0,1.0,4.0,4.0,476.4212379232049,1.0,1.0,part_1,,,,,,,,,,,,,green,hexagon
404.0,4.0,4.0,0.0,4.0,4.0,489.1617398243397,1.0,1.0,part_1,,,,,,,,,,,,,orange,triangle
0.0,7.0,0.0,1.0,1.0,1.0,389.7237109486013,1.0,1.0,part_1,,,,,,,,,,,,,yellow,diamond
0.0,7.0,0.0,1.0,3.0,3.0,410.9719740226865,1.0,1.0,part_1,,,,,,,,,,,,,yellow,diamond
220.0,7.0,3.0,1.0,3.0,3.0,367.9319340735674,2.0,3.0,part_1,,,,,,,,,,,,,yellow,diamond
422.0,4.0,4.0,0.0,3.0,3.0,355.5449871346354,2.0,1.0,part_1,,,,,,,,,,,,,orange,triangle
0.0,7.0,0.0,1.0,4.0,4.0,367.8482589311898,2.0,1.0,part_1,,,,,,,,,,,,,yellow,diamond
379.0,4.0,4.0,0.0,3.0,3.0,310.9340050723403,2.0,1.0,part_1,,,,,,,,,,,,,orange,triangle
387.0,8.0,4.0,1.0,3.0,3.0,297.7525021415204,2.0,1.0,part_1,,,,,,,,,,,,,green,hexagon
184.0,7.0,3.0,1.0,1.0,1.0,538.3828859776258,2.0,2.0,part_1,,,,,,,,,,,,,yellow,diamond
180.0,3.0,3.0,0.0,2.0,2.0,625.7272239308804,2.0,1.0,part_1,,,,,,,,,,,,,magenta,circle
220.0,3.0,3.0,0.0,3.0,3.0,397.4407000932842,2.0,1.0,part_1,,,,,,,,,,,,,magenta,circle
85.0,2.0,2.0,0.0,1.0,1.0,402.9373428784311,2.0,1.0,part_1,,,,,,,,,,,,,white,square
0.0,4.0,0.0,0.0,2.0,2.0,447.6362429559231,2.0,1.0,part_1,,,,,,,,,,,,,orange,triangle
0.0,3.0,0.0,0.0,3.0,3.0,381.0201839078218,2.0,1.0,part_1,,,,,,,,,,,,,magenta,circle
381.0,8.0,4.0,1.0,3.0,3.0,447.428384097293,2.0,1.0,part_1,,,,,,,,,,,,,green,hexagon
214.0,3.0,3.0,0.0,4.0,4.0,452.3470408748835,2.0,1.0,part_1,,,,,,,,,,,,,magenta,circle
122.0,6.0,2.0,1.0,2.0,2.0,497.5292808376252,2.0,1.0,part_1,,,,,,,,,,,,,cyan,cross
194.0,7.0,3.0,1.0,3.0,3.0,383.1775691360235,2.0,1.0,part_1,,,,,,,,,,,,,yellow,diamond
120.0,2.0,2.0,0.0,1.0,1.0,540.6890220474452,2.0,1.0,part_1,,,,,,,,,,,,,white,square
119.0,6.0,2.0,1.0,3.0,3.0,409.5823520328849,2.0,1.0,part_1,,,,,,,,,,,,,cyan,cross
65.0,1.0,1.0,0.0,1.0,1.0,538.2403121329844,2.0,1.0,part_1,,,,,,,,,,,,,gray,I
0.0,6.0,0.0,1.0,2.0,2.0,536.6834111046046,2.0,1.0,part_1,,,,,,,,,,,,,cyan,cross
413.0,4.0,4.0,0.0,2.0,2.0,485.8161411248147,2.0,1.0,part_1,,,,,,,,,,,,,orange,triangle
180.0,3.0,3.0,0.0,1.0,1.0,370.3250060789287,2.0,1.0,part_1,,,,,,,,,,,,,magenta,circle
0.0,3.0,0.0,0.0,2.0,2.0,389.3624530173838,2.0,1.0,part_1,,,,,,,,,,,,,magenta,circle
0.0,6.0,0.0,1.0,1.0,1.0,469.5180489216,2.0,1.0,part_1,,,,,,,,,,,,,cyan,cross
214.0,7.0,3.0,1.0,4.0,4.0,463.1765268277377,2.0,1.0,part_1,,,,,,,,,,,,,yellow,diamond
43.0,5.0,1.0,1.0,4.0,4.0,525.4634940065444,2.0,1.0,part_1,,,,,,,,,,,,,blue,flipped triangle
196.0,3.0,3.0,0.0,4.0,4.0,353.2238099724054,2.0,1.0,part_1,,,,,,,,,,,,,magenta,circle
395.0,4.0,4.0,0.0,2.0,2.0,382.4100459460169,2.0,1.0,part_1,,,,,,,,,,,,,orange,triangle
417.0,8.0,4.0,1.0,4.0,4.0,357.0245450828224,2.0,1.0,part_1,,,,,,,,,,,,,green,hexagon
0.0,2.0,0.0,0.0,1.0,1.0,464.81026080437,2.0,1.0,part_1,,,,,,,,,,,,,white,square
391.0,8.0,4.0,1.0,3.0,3.0,371.4530970901251,2.0,1.0,part_1,,,,,,,,,,,,,green,hexagon
182.0,3.0,3.0,0.0,2.0,2.0,409.6303679980337,2.0,1.0,part_1,,,,,,,,,,,,,magenta,circle
96.0,2.0,2.0,0.0,2.0,2.0,403.4950078930706,2.0,1.0,part_1,,,,,,,,,,,,,white,square
74.0,5.0,1.0,1.0,1.0,1.0,392.2477038577199,2.0,1.0,part_1,,,,,,,,,,,,,blue,flipped triangle
383.0,8.0,4.0,1.0,1.0,1.0,351.1964178178459,2.0,1.0,part_1,,,,,,,,,,,,,green,hexagon
424.0,8.0,4.0,1.0,4.0,4.0,458.5511169862002,2.0,1.0,part_1,,,,,,,,,,,,,green,hexagon
40.0,1.0,1.0,0.0,4.0,4.0,351.7498120199889,2.0,1.0,part_1,,,,,,,,,,,,,gray,I
408.0,8.0,4.0,1.0,2.0,2.0,370.8030530251562,2.0,1.0,part_1,,,,,,,,,,,,,green,hexagon
179.0,3.0,3.0,0.0,2.0,2.0,344.4479771424085,2.0,1.0,part_1,,,,,,,,,,,,,magenta,circle
97.0,2.0,2.0,0.0,4.0,4.0,357.4216940905899,2.0,1.0,part_1,,,,,,,,,,,,,white,square
216.0,7.0,3.0,1.0,2.0,2.0,435.3924840688705,2.0,1.0,part_1,,,,,,,,,,,,,yellow,diamond
407.0,4.0,4.0,0.0,4.0,4.0,361.9352008681744,2.0,1.0,part_1,,,,,,,,,,,,,orange,triangle
196.0,7.0,3.0,1.0,4.0,4.0,372.6646190043539,2.0,1.0,part_1,,,,,,,,,,,,,yellow,diamond
408.0,4.0,4.0,0.0,4.0,4.0,313.8445219956338,2.0,1.0,part_1,,,,,,,,,,,,,orange,triangle
0.0,1.0,0.0,0.0,4.0,4.0,325.952674029395,2.0,1.0,part_1,,,,,,,,,,,,,gray,I
39.0,1.0,1.0,0.0,4.0,4.0,322.3895088303834,2.0,1.0,part_1,,,,,,,,,,,,,gray,I
391.0,8.0,4.0,1.0,4.0,4.0,296.0603039246052,2.0,1.0,part_1,,,,,,,,,,,,,green,hexagon
220.0,7.0,3.0,1.0,3.0,3.0,426.9832179415971,2.0,1.0,part_1,,,,,,,,,,,,,yellow,diamond
0.0,4.0,0.0,0.0,2.0,2.0,438.7284021358937,2.0,1.0,part_1,,,,,,,,,,,,,orange,triangle
419.0,4.0,4.0,0.0,1.0,1.0,436.0933781135827,2.0,1.0,part_1,,,,,,,,,,,,,orange,triangle
35.0,5.0,1.0,1.0,1.0,1.0,442.7333190105855,2.0,1.0,part_1,,,,,,,,,,,,,blue,flipped triangle
42.0,5.0,1.0,1.0,4.0,4.0,365.606299135834,2.0,1.0,part_1,,,,,,,,,,,,,blue,flipped triangle
115.0,6.0,2.0,1.0,1.0,1.0,508.6205250117928,2.0,1.0,part_1,,,,,,,,,,,,,cyan,cross
209.0,3.0,3.0,0.0,4.0,4.0,422.321637161076,2.0,1.0,part_1,,,,,,,,,,,,,magenta,circle
0.0,2.0,0.0,0.0,3.0,3.0,493.0757770780474,2.0,1.0,part_1,,,,,,,,,,,,,white,square
43.0,1.0,1.0,0.0,4.0,4.0,387.613674160093,2.0,1.0,part_1,,,,,,,,,,,,,gray,I
225.0,7.0,3.0,1.0,2.0,2.0,492.4818428698927,2.0,1.0,part_1,,,,,,,,,,,,,yellow,diamond
104.0,6.0,2.0,1.0,2.0,2.0,456.9237530231476,2.0,1.0,part_1,,,,,,,,,,,,,cyan,cross
42.0,5.0,1.0,1.0,3.0,3.0,400.3207108471542,2.0,1.0,part_1,,,,,,,,,,,,,blue,flipped triangle
60.0,1.0,1.0,0.0,4.0,4.0,386.4322570152581,2.0,1.0,part_1,,,,,,,,,,,,,gray,I
0.0,8.0,0.0,1.0,2.0,2.0,415.1750828605145,2.0,1.0,part_1,,,,,,,,,,,,,green,hexagon
379.0,8.0,4.0,1.0,1.0,1.0,419.758512172848,2.0,1.0,part_1,,,,,,,,,,,,,green,hexagon
402.0,8.0,4.0,1.0,3.0,3.0,425.4211680963635,2.0,1.0,part_1,,,,,,,,,,,,,green,hexagon
0.0,2.0,0.0,0.0,3.0,3.0,359.2987419106066,2.0,1.0,part_1,,,,,,,,,,,,,white,square
95.0,2.0,2.0,0.0,3.0,3.0,413.4169369935989,2.0,1.0,part_1,,,,,,,,,,,,,white,square
0.0,3.0,0.0,0.0,3.0,3.0,361.1938410904258,2.0,1.0,part_1,,,,,,,,,,,,,magenta,circle
47.0,5.0,1.0,1.0,3.0,3.0,307.8168060164898,2.0,1.0,part_1,,,,,,,,,,,,,blue,flipped triangle
79.0,6.0,2.0,1.0,1.0,1.0,369.7278490290046,2.0,1.0,part_1,,,,,,,,,,,,,cyan,cross
0.0,8.0,0.0,1.0,1.0,1.0,391.0422050394118,2.0,1.0,part_1,,,,,,,,,,,,,green,hexagon
0.0,6.0,0.0,1.0,1.0,1.0,354.8252740874886,2.0,1.0,part_1,,,,,,,,,,,,,cyan,cross
0.0,6.0,0.0,1.0,3.0,3.0,336.8587610311806,2.0,1.0,part_1,,,,,,,,,,,,,cyan,cross
0.0,5.0,0.0,1.0,3.0,3.0,354.5738731045276,2.0,1.0,part_1,,,,,,,,,,,,,blue,flipped triangle
47.0,1.0,1.0,0.0,3.0,3.0,385.7538078445941,2.0,1.0,part_1,,,,,,,,,,,,,gray,I
0.0,8.0,0.0,1.0,4.0,4.0,342.769033042714,2.0,1.0,part_1,,,,,,,,,,,,,green,hexagon
78.0,2.0,2.0,0.0,2.0,2.0,465.4323291033506,2.0,1.0,part_1,,,,,,,,,,,,,white,square
216.0,3.0,3.0,0.0,3.0,3.0,349.934607045725,2.0,1.0,part_1,,,,,,,,,,,,,magenta,circle
29.0,1.0,1.0,0.0,3.0,3.0,411.510637961328,2.0,1.0,part_1,,,,,,,,,,,,,gray,I
398.0,4.0,4.0,0.0,2.0,2.0,464.7762039676308,2.0,1.0,part_1,,,,,,,,,,,,,orange,triangle
99.0,2.0,2.0,0.0,3.0,3.0,332.2277299594134,2.0,1.0,part_1,,,,,,,,,,,,,white,square
0.0,7.0,0.0,1.0,4.0,4.0,361.2424400635063,2.0,1.0,part_1,,,,,,,,,,,,,yellow,diamond
220.0,3.0,3.0,0.0,4.0,4.0,414.6545699331909,2.0,1.0,part_1,,,,,,,,,,,,,magenta,circle
179.0,7.0,3.0,1.0,2.0,2.0,705.2029771730304,2.0,1.0,part_1,,,,,,,,,,,,,yellow,diamond
204.0,3.0,3.0,0.0,3.0,3.0,360.4509329888969,2.0,1.0,part_1,,,,,,,,,,,,,magenta,circle
194.0,3.0,3.0,0.0,3.0,3.0,379.125801147893,2.0,1.0,part_1,,,,,,,,,,,,,magenta,circle
42.0,1.0,1.0,0.0,3.0,3.0,369.6882419753819,2.0,1.0,part_1,,,,,,,,,,,,,gray,I
84.0,2.0,2.0,0.0,3.0,3.0,397.7728369645774,2.0,1.0,part_1,,,,,,,,,,,,,white,square
0.0,6.0,0.0,1.0,1.0,1.0,435.8820510096848,2.0,1.0,part_1,,,,,,,,,,,,,cyan,cross
184.0,7.0,3.0,1.0,1.0,1.0,455.3988089319318,2.0,1.0,part_1,,,,,,,,,,,,,yellow,diamond
68.0,1.0,1.0,0.0,1.0,1.0,492.544106207788,2.0,1.0,part_1,,,,,,,,,,,,,gray,I
379.0,4.0,4.0,0.0,1.0,1.0,441.2538188043982,2.0,1.0,part_1,,,,,,,,,,,,,orange,triangle
0.0,6.0,0.0,1.0,1.0,1.0,332.4446307960897,2.0,1.0,part_1,,,,,,,,,,,,,cyan,cross
101.0,2.0,2.0,0.0,4.0,4.0,376.8001641146838,2.0,1.0,part_1,,,,,,,,,,,,,white,square
47.0,1.0,1.0,0.0,1.0,1.0,640.6006959732622,2.0,1.0,part_1,,,,,,,,,,,,,gray,I
413.0,8.0,4.0,1.0,1.0,1.0,525.5181340035051,2.0,1.0,part_1,,,,,,,,,,,,,green,hexagon
391.0,8.0,4.0,1.0,2.0,2.0,409.2736528255045,2.0,1.0,part_1,,,,,,,,,,,,,green,hexagon
62.0,1.0,1.0,0.0,3.0,3.0,347.9773360304534,2.0,1.0,part_1,,,,,,,,,,,,,gray,I
107.0,2.0,2.0,0.0,4.0,4.0,371.9800191465765,2.0,1.0,part_1,,,,,,,,,,,,,white,square
114.0,6.0,2.0,1.0,4.0,4.0,455.6099488399923,2.0,1.0,part_1,,,,,,,,,,,,,cyan,cross
96.0,6.0,2.0,1.0,3.0,3.0,340.998986037448,2.0,1.0,part_1,,,,,,,,,,,,,cyan,cross
110.0,2.0,2.0,0.0,2.0,2.0,407.523653935641,2.0,1.0,part_1,,,,,,,,,,,,,white,square
208.0,7.0,3.0,1.0,1.0,1.0,502.15535005554557,2.0,1.0,part_1,,,,,,,,,,,,,yellow,diamond
208.0,3.0,3.0,0.0,1.0,1.0,360.7210200279951,3.0,1.0,part_1,,,,,,,,,,,,,magenta,circle
100.0,2.0,2.0,0.0,3.0,3.0,366.1860569845885,3.0,1.0,part_1,,,,,,,,,,,,,white,square
93.0,6.0,2.0,1.0,3.0,3.0,352.9762029647827,3.0,1.0,part_1,,,,,,,,,,,,,cyan,cross
77.0,2.0,2.0,0.0,4.0,4.0,343.7667428515851,3.0,1.0,part_1,,,,,,,,,,,,,white,square
391.0,4.0,4.0,0.0,2.0,2.0,378.3912020735442,3.0,1.0,part_1,,,,,,,,,,,,,orange,triangle
118.0,2.0,2.0,0.0,4.0,4.0,322.8054428473115,3.0,1.0,part_1,,,,,,,,,,,,,white,square
68.0,5.0,1.0,1.0,2.0,2.0,478.5580320749432,3.0,1.0,part_1,,,,,,,,,,,,,blue,flipped triangle
424.0,8.0,4.0,1.0,1.0,1.0,409.2014890629798,3.0,1.0,part_1,,,,,,,,,,,,,green,hexagon
391.0,4.0,4.0,0.0,4.0,4.0,334.8757890053093,3.0,1.0,part_1,,,,,,,,,,,,,orange,triangle
0.0,2.0,0.0,0.0,2.0,2.0,364.8381689563393,3.0,1.0,part_1,,,,,,,,,,,,,white,square
184.0,3.0,3.0,0.0,3.0,3.0,361.4257839508354,3.0,1.0,part_1,,,,,,,,,,,,,magenta,circle
47.0,5.0,1.0,1.0,1.0,1.0,375.1297320704907,3.0,1.0,part_1,,,,,,,,,,,,,blue,flipped triangle
180.0,7.0,3.0,1.0,4.0,4.0,380.1948779728263,3.0,1.0,part_1,,,,,,,,,,,,,yellow,diamond
30.0,1.0,1.0,0.0,4.0,4.0,327.1176379639655,3.0,1.0,part_1,,,,,,,,,,,,,gray,I
86.0,6.0,2.0,1.0,1.0,1.0,385.5256198439747,3.0,1.0,part_1,,,,,,,,,,,,,cyan,cross
417.0,4.0,4.0,0.0,2.0,2.0,389.982724096626,3.0,1.0,part_1,,,,,,,,,,,,,orange,triangle
57.0,5.0,1.0,1.0,2.0,2.0,526.4281868003309,3.0,1.0,part_1,,,,,,,,,,,,,blue,flipped triangle
84.0,6.0,2.0,1.0,1.0,1.0,354.6560129616409,3.0,1.0,part_1,,,,,,,,,,,,,cyan,cross
73.0,5.0,1.0,1.0,2.0,2.0,367.3081819433719,3.0,1.0,part_1,,,,,,,,,,,,,blue,flipped triangle
36.0,1.0,1.0,0.0,4.0,4.0,336.7581770289689,3.0,1.0,part_1,,,,,,,,,,,,,gray,I
203.0,7.0,3.0,1.0,4.0,4.0,318.1414280552417,3.0,1.0,part_1,,,,,,,,,,,,,yellow,diamond
30.0,5.0,1.0,1.0,3.0,3.0,388.9034278690815,3.0,1.0,part_1,,,,,,,,,,,,,blue,flipped triangle
0.0,1.0,0.0,0.0,3.0,3.0,358.9521951507777,3.0,1.0,part_1,,,,,,,,,,,,,gray,I
396.0,4.0,4.0,0.0,3.0,3.0,360.1686318870634,3.0,2.0,part_1,,,,,,,,,,,,,orange,triangle
120.0,6.0,2.0,1.0,1.0,1.0,469.3524229805916,3.0,1.0,part_1,,,,,,,,,,,,,cyan,cross
401.0,4.0,4.0,0.0,4.0,4.0,443.93706717528397,3.0,1.0,part_1,,,,,,,,,,,,,orange,triangle
208.0,7.0,3.0,1.0,3.0,3.0,472.3750110715627,3.0,1.0,part_1,,,,,,,,,,,,,yellow,diamond
123.0,6.0,2.0,1.0,4.0,4.0,564.8874479811639,3.0,1.0,part_1,,,,,,,,,,,,,cyan,cross
93.0,6.0,2.0,1.0,1.0,1.0,611.9768780190498,3.0,1.0,part_1,,,,,,,,,,,,,cyan,cross
115.0,2.0,2.0,0.0,1.0,1.0,559.7552137915045,3.0,1.0,part_1,,,,,,,,,,,,,white,square
0.0,5.0,0.0,1.0,1.0,1.0,723.2362751383334,3.0,1.0,part_1,,,,,,,,,,,,,blue,flipped triangle
36.0,5.0,1.0,1.0,2.0,2.0,534.4963090028614,3.0,1.0,part_1,,,,,,,,,,,,,blue,flipped triangle
0.0,6.0,0.0,1.0,4.0,4.0,460.8376959804445,3.0,1.0,part_1,,,,,,,,,,,,,cyan,cross
196.0,7.0,3.0,1.0,2.0,2.0,425.2566299401223,3.0,1.0,part_1,,,,,,,,,,,,,yellow,diamond
387.0,4.0,4.0,0.0,2.0,2.0,443.9520500600338,3.0,1.0,part_1,,,,,,,,,,,,,orange,triangle
78.0,6.0,2.0,1.0,3.0,3.0,400.3146141767502,3.0,1.0,part_1,,,,,,,,,,,,,cyan,cross
393.0,4.0,4.0,0.0,1.0,1.0,672.772984020412,3.0,1.0,part_1,,,,,,,,,,,,,orange,triangle
396.0,8.0,4.0,1.0,2.0,2.0,404.649943113327,3.0,1.0,part_1,,,,,,,,,,,,,green,hexagon
193.0,3.0,3.0,0.0,2.0,2.0,454.3119571171701,3.0,1.0,part_1,,,,,,,,,,,,,magenta,circle
42.0,1.0,1.0,0.0,1.0,1.0,469.6860308758914,3.0,1.0,part_1,,,,,,,,,,,,,gray,I
404.0,4.0,4.0,0.0,3.0,3.0,498.3459389768541,3.0,1.0,part_1,,,,,,,,,,,,,orange,triangle
421.0,4.0,4.0,0.0,1.0,1.0,430.8851398527622,3.0,1.0,part_1,,,,,,,,,,,,,orange,triangle
393.0,8.0,4.0,1.0,2.0,2.0,468.0915859062224,3.0,1.0,part_1,,,,,,,,,,,,,green,hexagon
424.0,4.0,4.0,0.0,1.0,1.0,414.1930351033807,3.0,1.0,part_1,,,,,,,,,,,,,orange,triangle
0.0,3.0,0.0,0.0,2.0,2.0,388.9375398866832,3.0,1.0,part_1,,,,,,,,,,,,,magenta,circle
107.0,6.0,2.0,1.0,4.0,4.0,425.8100430015474,3.0,1.0,part_1,,,,,,,,,,,,,cyan,cross
104.0,6.0,2.0,1.0,4.0,4.0,487.1721670497209,3.0,1.0,part_1,,,,,,,,,,,,,cyan,cross
0.0,4.0,0.0,0.0,1.0,1.0,416.3762279786169,3.0,1.0,part_1,,,,,,,,,,,,,orange,triangle
95.0,6.0,2.0,1.0,1.0,1.0,504.5012501068413,3.0,1.0,part_1,,,,,,,,,,,,,cyan,cross
0.0,6.0,0.0,1.0,1.0,1.0,421.4748060330748,3.0,1.0,part_1,,,,,,,,,,,,,cyan,cross
27.0,1.0,1.0,0.0,2.0,2.0,473.701928043738,3.0,1.0,part_1,,,,,,,,,,,,,gray,I
64.0,1.0,1.0,0.0,2.0,2.0,549.0857339464128,3.0,1.0,part_1,,,,,,,,,,,,,gray,I
57.0,1.0,1.0,0.0,3.0,3.0,385.9607889316976,3.0,1.0,part_1,,,,,,,,,,,,,gray,I
209.0,7.0,3.0,1.0,3.0,3.0,380.7202009484172,3.0,1.0,part_1,,,,,,,,,,,,,yellow,diamond
199.0,7.0,3.0,1.0,4.0,4.0,492.4543281085789,3.0,1.0,part_1,,,,,,,,,,,,,yellow,diamond
115.0,2.0,2.0,0.0,2.0,2.0,409.0339280664921,3.0,1.0,part_1,,,,,,,,,,,,,white,square
397.0,8.0,4.0,1.0,1.0,1.0,483.66390587762,3.0,1.0,part_1,,,,,,,,,,,,,green,hexagon
385.0,8.0,4.0,1.0,4.0,4.0,383.3349191118032,3.0,1.0,part_1,,,,,,,,,,,,,green,hexagon
411.0,4.0,4.0,0.0,1.0,1.0,549.5481379330158,3.0,1.0,part_1,,,,,,,,,,,,,orange,triangle
0.0,2.0,0.0,0.0,2.0,2.0,508.49910103715956,3.0,1.0,part_1,,,,,,,,,,,,,white,square
0.0,2.0,0.0,0.0,4.0,4.0,472.0115850213915,3.0,1.0,part_1,,,,,,,,,,,,,white,square
212.0,3.0,3.0,0.0,4.0,4.0,668.3717740233988,3.0,1.0,part_1,,,,,,,,,,,,,magenta,circle
81.0,6.0,2.0,1.0,4.0,4.0,391.6906400118023,3.0,1.0,part_1,,,,,,,,,,,,,cyan,cross
386.0,8.0,4.0,1.0,3.0,3.0,542.6977211609483,3.0,1.0,part_1,,,,,,,,,,,,,green,hexagon
0.0,2.0,0.0,0.0,1.0,1.0,528.8652710150927,3.0,1.0,part_1,,,,,,,,,,,,,white,square
0.0,3.0,0.0,0.0,3.0,3.0,661.4782689139247,3.0,1.0,part_1,,,,,,,,,,,,,magenta,circle
85.0,2.0,2.0,0.0,1.0,1.0,434.2265508603304,3.0,1.0,part_1,,,,,,,,,,,,,white,square
77.0,6.0,2.0,1.0,1.0,1.0,584.7290300298482,3.0,1.0,part_1,,,,,,,,,,,,,cyan,cross
113.0,2.0,2.0,0.0,3.0,3.0,395.4898540396243,3.0,1.0,part_1,,,,,,,,,,,,,white,square
92.0,6.0,2.0,1.0,4.0,4.0,426.7326791305095,3.0,1.0,part_1,,,,,,,,,,,,,cyan,cross
424.0,4.0,4.0,0.0,4.0,4.0,392.4676158931106,3.0,1.0,part_1,,,,,,,,,,,,,orange,triangle
45.0,1.0,1.0,0.0,3.0,3.0,453.2722239382565,3.0,1.0,part_1,,,,,,,,,,,,,gray,I
224.0,7.0,3.0,1.0,2.0,2.0,461.8337510619312,3.0,1.0,part_1,,,,,,,,,,,,,yellow,diamond
88.0,6.0,2.0,1.0,2.0,2.0,460.9645169693976,3.0,1.0,part_1,,,,,,,,,,,,,cyan,cross
180.0,7.0,3.0,1.0,3.0,3.0,391.3193040061742,3.0,1.0,part_1,,,,,,,,,,,,,yellow,diamond
47.0,5.0,1.0,1.0,1.0,1.0,542.5783819518983,3.0,1.0,part_1,,,,,,,,,,,,,blue,flipped triangle
110.0,6.0,2.0,1.0,4.0,4.0,416.6087328922003,3.0,1.0,part_1,,,,,,,,,,,,,cyan,cross
415.0,8.0,4.0,1.0,1.0,1.0,487.219745060429,3.0,1.0,part_1,,,,,,,,,,,,,green,hexagon
0.0,5.0,0.0,1.0,4.0,4.0,398.0854689143598,3.0,1.0,part_1,,,,,,,,,,,,,blue,flipped triangle
203.0,3.0,3.0,0.0,4.0,4.0,488.5529349558055,3.0,1.0,part_1,,,,,,,,,,,,,magenta,circle
29.0,5.0,1.0,1.0,4.0,4.0,405.6112370453775,3.0,1.0,part_1,,,,,,,,,,,,,blue,flipped triangle
404.0,8.0,4.0,1.0,4.0,4.0,347.1873169764876,3.0,1.0,part_1,,,,,,,,,,,,,green,hexagon
0.0,5.0,0.0,1.0,2.0,2.0,671.2351460009813,3.0,1.0,part_1,,,,,,,,,,,,,blue,flipped triangle
214.0,3.0,3.0,0.0,4.0,4.0,434.2438080348074,3.0,1.0,part_1,,,,,,,,,,,,,magenta,circle
0.0,8.0,0.0,1.0,4.0,4.0,391.9063529465347,3.0,1.0,part_1,,,,,,,,,,,,,green,hexagon
388.0,4.0,4.0,0.0,2.0,2.0,469.1766670439392,3.0,1.0,part_1,,,,,,,,,,,,,orange,triangle
27.0,5.0,1.0,1.0,4.0,4.0,319.4345270749181,3.0,1.0,part_1,,,,,,,,,,,,,blue,flipped triangle
381.0,8.0,4.0,1.0,3.0,3.0,372.916888911277,3.0,1.0,part_1,,,,,,,,,,,,,green,hexagon
79.0,2.0,2.0,0.0,2.0,2.0,603.7940110545605,3.0,1.0,part_1,,,,,,,,,,,,,white,square
54.0,1.0,1.0,0.0,2.0,2.0,429.6990369912237,3.0,1.0,part_1,,,,,,,,,,,,,gray,I
179.0,3.0,3.0,0.0,4.0,4.0,340.80895408988,3.0,1.0,part_1,,,,,,,,,,,,,magenta,circle
0.0,5.0,0.0,1.0,1.0,1.0,490.7594132237136,3.0,1.0,part_1,,,,,,,,,,,,,blue,flipped triangle
379.0,8.0,4.0,1.0,1.0,1.0,446.8716669362038,3.0,1.0,part_1,,,,,,,,,,,,,green,hexagon
0.0,1.0,0.0,0.0,2.0,2.0,434.4901938457042,3.0,1.0,part_1,,,,,,,,,,,,,gray,I
187.0,7.0,3.0,1.0,2.0,2.0,454.9384769052267,3.0,1.0,part_1,,,,,,,,,,,,,yellow,diamond
82.0,6.0,2.0,1.0,2.0,2.0,349.0169530268758,3.0,1.0,part_1,,,,,,,,,,,,,cyan,cross
27.0,1.0,1.0,0.0,4.0,4.0,432.035573059693,3.0,1.0,part_1,,,,,,,,,,,,,gray,I
0.0,3.0,0.0,0.0,1.0,1.0,515.4647228773683,3.0,1.0,part_1,,,,,,,,,,,,,magenta,circle
0.0,7.0,0.0,1.0,3.0,3.0,784.4204609282315,3.0,1.0,part_1,,,,,,,,,,,,,yellow,diamond
175.0,7.0,3.0,1.0,2.0,2.0,575.255063129589,3.0,1.0,part_1,,,,,,,,,,,,,yellow,diamond
0.0,1.0,0.0,0.0,4.0,4.0,422.9217357933521,4.0,1.0,part_1,,,,,,,,,,,,,gray,I
0.0,8.0,0.0,1.0,2.0,2.0,408.5272399242967,4.0,1.0,part_1,,,,,,,,,,,,,green,hexagon
65.0,1.0,1.0,0.0,1.0,1.0,470.6806128378957,4.0,1.0,part_1,,,,,,,,,,,,,gray,I
117.0,6.0,2.0,1.0,3.0,3.0,337.1693529188633,4.0,1.0,part_1,,,,,,,,,,,,,cyan,cross
115.0,6.0,2.0,1.0,2.0,2.0,358.8899290189147,4.0,1.0,part_1,,,,,,,,,,,,,cyan,cross
422.0,8.0,4.0,1.0,4.0,4.0,378.9002688135952,4.0,1.0,part_1,,,,,,,,,,,,,green,hexagon
114.0,2.0,2.0,0.0,1.0,1.0,498.3884391840547,4.0,1.0,part_1,,,,,,,,,,,,,white,square
119.0,2.0,2.0,0.0,1.0,1.0,445.1629749964922,4.0,1.0,part_1,,,,,,,,,,,,,white,square
0.0,7.0,0.0,1.0,3.0,3.0,425.2103408798575,4.0,1.0,part_1,,,,,,,,,,,,,yellow,diamond
45.0,5.0,1.0,1.0,1.0,1.0,432.4421728961169,4.0,1.0,part_1,,,,,,,,,,,,,blue,flipped triangle
406.0,4.0,4.0,0.0,3.0,3.0,302.2437000181526,4.0,1.0,part_1,,,,,,,,,,,,,orange,triangle
391.0,4.0,4.0,0.0,2.0,2.0,610.3180998470634,4.0,1.0,part_1,,,,,,,,,,,,,orange,triangle
60.0,5.0,1.0,1.0,3.0,3.0,483.64391294308,4.0,1.0,part_1,,,,,,,,,,,,,blue,flipped triangle
117.0,2.0,2.0,0.0,2.0,2.0,816.1708931438625,4.0,1.0,part_1,,,,,,,,,,,,,white,square
40.0,5.0,1.0,1.0,4.0,4.0,327.2303522098809,4.0,1.0,part_1,,,,,,,,,,,,,blue,flipped triangle
419.0,4.0,4.0,0.0,2.0,2.0,371.597042074427,4.0,1.0,part_1,,,,,,,,,,,,,orange,triangle
115.0,2.0,2.0,0.0,1.0,1.0,552.430106094107,4.0,1.0,part_1,,,,,,,,,,,,,white,square
74.0,1.0,1.0,0.0,2.0,2.0,445.4768549185246,4.0,1.0,part_1,,,,,,,,,,,,,gray,I
207.0,7.0,3.0,1.0,3.0,3.0,312.3864261433482,4.0,1.0,part_1,,,,,,,,,,,,,yellow,diamond
388.0,8.0,4.0,1.0,4.0,4.0,364.7275089751929,4.0,1.0,part_1,,,,,,,,,,,,,green,hexagon
0.0,4.0,0.0,0.0,4.0,4.0,409.9822060670703,4.0,1.0,part_1,,,,,,,,,,,,,orange,triangle
421.0,8.0,4.0,1.0,1.0,1.0,405.4528470151126,4.0,1.0,part_1,,,,,,,,,,,,,green,hexagon
0.0,8.0,0.0,1.0,2.0,2.0,573.2136419974267,4.0,1.0,part_1,,,,,,,,,,,,,green,hexagon
53.0,5.0,1.0,1.0,4.0,4.0,602.1439412143081,4.0,1.0,part_1,,,,,,,,,,,,,blue,flipped triangle
86.0,2.0,2.0,0.0,2.0,2.0,507.95257184654474,4.0,1.0,part_1,,,,,,,,,,,,,white,square
402.0,4.0,4.0,0.0,3.0,3.0,387.0011509861797,4.0,1.0,part_1,,,,,,,,,,,,,orange,triangle
85.0,6.0,2.0,1.0,2.0,2.0,560.2888390421867,4.0,1.0,part_1,,,,,,,,,,,,,cyan,cross
0.0,8.0,0.0,1.0,3.0,3.0,604.3040240183473,4.0,1.0,part_1,,,,,,,,,,,,,green,hexagon
223.0,3.0,3.0,0.0,1.0,1.0,544.750037137419,4.0,1.0,part_1,,,,,,,,,,,,,magenta,circle
187.0,3.0,3.0,0.0,4.0,4.0,429.1618999559432,4.0,1.0,part_1,,,,,,,,,,,,,magenta,circle
115.0,6.0,2.0,1.0,2.0,2.0,465.7895017880946,4.0,1.0,part_1,,,,,,,,,,,,,cyan,cross
51.0,1.0,1.0,0.0,2.0,2.0,438.4247639682144,4.0,1.0,part_1,,,,,,,,,,,,,gray,I
404.0,8.0,4.0,1.0,3.0,3.0,363.7276068329811,4.0,1.0,part_1,,,,,,,,,,,,,green,hexagon
0.0,7.0,0.0,1.0,4.0,4.0,661.8250841274858,4.0,1.0,part_1,,,,,,,,,,,,,yellow,diamond
407.0,8.0,4.0,1.0,3.0,3.0,322.8213738184422,4.0,1.0,part_1,,,,,,,,,,,,,green,hexagon
0.0,5.0,0.0,1.0,3.0,3.0,343.5765148606151,4.0,1.0,part_1,,,,,,,,,,,,,blue,flipped triangle
99.0,6.0,2.0,1.0,3.0,3.0,355.6862599216401,4.0,1.0,part_1,,,,,,,,,,,,,cyan,cross
199.0,3.0,3.0,0.0,3.0,3.0,321.3903040159493,4.0,1.0,part_1,,,,,,,,,,,,,magenta,circle
115.0,6.0,2.0,1.0,3.0,3.0,392.8535571321845,4.0,1.0,part_1,,,,,,,,,,,,,cyan,cross
97.0,6.0,2.0,1.0,3.0,3.0,357.4349097907543,4.0,1.0,part_1,,,,,,,,,,,,,cyan,cross
35.0,1.0,1.0,0.0,3.0,3.0,350.5797018297016,4.0,1.0,part_1,,,,,,,,,,,,,gray,I
0.0,3.0,0.0,0.0,4.0,4.0,547.8927548974752,4.0,1.0,part_1,,,,,,,,,,,,,magenta,circle
69.0,5.0,1.0,1.0,4.0,4.0,404.0371419396251,4.0,1.0,part_1,,,,,,,,,,,,,blue,flipped triangle
224.0,3.0,3.0,0.0,1.0,1.0,551.988794002682,4.0,1.0,part_1,,,,,,,,,,,,,magenta,circle
175.0,3.0,3.0,0.0,2.0,2.0,588.3674900978804,4.0,1.0,part_1,,,,,,,,,,,,,magenta,circle
53.0,1.0,1.0,0.0,4.0,4.0,566.8437990825623,4.0,1.0,part_1,,,,,,,,,,,,,gray,I
225.0,7.0,3.0,1.0,3.0,3.0,806.9193409755826,4.0,1.0,part_1,,,,,,,,,,,,,yellow,diamond
179.0,3.0,3.0,0.0,1.0,1.0,627.2552129812539,4.0,1.0,part_1,,,,,,,,,,,,,magenta,circle
225.0,7.0,3.0,1.0,1.0,1.0,508.8864220306277,4.0,1.0,part_1,,,,,,,,,,,,,yellow,diamond
419.0,8.0,4.0,1.0,4.0,4.0,457.9404459800571,4.0,1.0,part_1,,,,,,,,,,,,,green,hexagon
0.0,5.0,0.0,1.0,1.0,1.0,735.4548170696944,4.0,1.0,part_1,,,,,,,,,,,,,blue,flipped triangle
123.0,2.0,2.0,0.0,2.0,2.0,573.8103941548616,4.0,1.0,part_1,,,,,,,,,,,,,white,square
398.0,8.0,4.0,1.0,3.0,3.0,390.7798540312797,4.0,1.0,part_1,,,,,,,,,,,,,green,hexagon
0.0,7.0,0.0,1.0,3.0,3.0,387.6553908921778,4.0,1.0,part_1,,,,,,,,,,,,,yellow,diamond
86.0,6.0,2.0,1.0,4.0,4.0,380.3969889413565,4.0,1.0,part_1,,,,,,,,,,,,,cyan,cross
397.0,4.0,4.0,0.0,3.0,3.0,412.7589499112218,4.0,1.0,part_1,,,,,,,,,,,,,orange,triangle
48.0,1.0,1.0,0.0,1.0,1.0,474.3864440824836,4.0,1.0,part_1,,,,,,,,,,,,,gray,I
0.0,2.0,0.0,0.0,3.0,3.0,343.1242380756885,4.0,1.0,part_1,,,,,,,,,,,,,white,square
407.0,4.0,4.0,0.0,1.0,1.0,474.7987790033221,4.0,1.0,part_1,,,,,,,,,,,,,orange,triangle
0.0,4.0,0.0,0.0,2.0,2.0,554.0478259790689,4.0,1.0,part_1,,,,,,,,,,,,,orange,triangle
406.0,8.0,4.0,1.0,2.0,2.0,630.7919698301703,4.0,1.0,part_1,,,,,,,,,,,,,green,hexagon
58.0,5.0,1.0,1.0,1.0,1.0,426.6395790036767,4.0,1.0,part_1,,,,,,,,,,,,,blue,flipped triangle
179.0,7.0,3.0,1.0,2.0,2.0,469.4893809501081,4.0,1.0,part_1,,,,,,,,,,,,,yellow,diamond
65.0,5.0,1.0,1.0,3.0,3.0,356.4040770288557,4.0,1.0,part_1,,,,,,,,,,,,,blue,flipped triangle
0.0,1.0,0.0,0.0,4.0,4.0,482.7863799873739,4.0,1.0,part_1,,,,,,,,,,,,,gray,I
62.0,5.0,1.0,1.0,4.0,4.0,404.0202260948717,4.0,1.0,part_1,,,,,,,,,,,,,blue,flipped triangle
393.0,4.0,4.0,0.0,4.0,4.0,608.748045982793,4.0,1.0,part_1,,,,,,,,,,,,,orange,triangle
383.0,4.0,4.0,0.0,2.0,2.0,668.9038840122521,4.0,1.0,part_1,,,,,,,,,,,,,orange,triangle
196.0,3.0,3.0,0.0,2.0,2.0,467.7678060252219,4.0,1.0,part_1,,,,,,,,,,,,,magenta,circle
69.0,1.0,1.0,0.0,4.0,4.0,360.434653935954,4.0,1.0,part_1,,,,,,,,,,,,,gray,I
58.0,5.0,1.0,1.0,3.0,3.0,403.6022671498358,4.0,1.0,part_1,,,,,,,,,,,,,blue,flipped triangle
413.0,4.0,4.0,0.0,4.0,4.0,378.3096219412982,4.0,1.0,part_1,,,,,,,,,,,,,orange,triangle
219.0,3.0,3.0,0.0,1.0,1.0,432.5451119802892,4.0,1.0,part_1,,,,,,,,,,,,,magenta,circle
72.0,1.0,1.0,0.0,3.0,3.0,419.3577370606363,4.0,1.0,part_1,,,,,,,,,,,,,gray,I
47.0,1.0,1.0,0.0,2.0,2.0,670.5134769435972,4.0,1.0,part_1,,,,,,,,,,,,,gray,I
0.0,1.0,0.0,0.0,4.0,4.0,478.3001728355884,4.0,1.0,part_1,,,,,,,,,,,,,gray,I
193.0,7.0,3.0,1.0,4.0,4.0,402.5574650149792,4.0,1.0,part_1,,,,,,,,,,,,,yellow,diamond
30.0,1.0,1.0,0.0,1.0,1.0,541.1354850511998,4.0,1.0,part_1,,,,,,,,,,,,,gray,I
83.0,2.0,2.0,0.0,2.0,2.0,455.9141909703612,4.0,1.0,part_1,,,,,,,,,,,,,white,square
196.0,3.0,3.0,0.0,1.0,1.0,437.0877859182656,4.0,1.0,part_1,,,,,,,,,,,,,magenta,circle
376.0,4.0,4.0,0.0,4.0,4.0,340.808775043115,4.0,1.0,part_1,,,,,,,,,,,,,orange,triangle
86.0,6.0,2.0,1.0,4.0,4.0,342.9842130281031,4.0,1.0,part_1,,,,,,,,,,,,,cyan,cross
58.0,1.0,1.0,0.0,2.0,2.0,379.421663004905,4.0,1.0,part_1,,,,,,,,,,,,,gray,I
82.0,2.0,2.0,0.0,3.0,3.0,339.2535599414259,4.0,1.0,part_1,,,,,,,,,,,,,white,square
0.0,5.0,0.0,1.0,3.0,3.0,479.3888179119676,4.0,1.0,part_1,,,,,,,,,,,,,blue,flipped triangle
0.0,8.0,0.0,1.0,3.0,3.0,333.8659079745412,4.0,1.0,part_1,,,,,,,,,,,,,green,hexagon
100.0,6.0,2.0,1.0,1.0,1.0,567.090166034177,4.0,1.0,part_1,,,,,,,,,,,,,cyan,cross
0.0,8.0,0.0,1.0,1.0,1.0,523.4979749657214,4.0,1.0,part_1,,,,,,,,,,,,,green,hexagon
35.0,5.0,1.0,1.0,2.0,2.0,591.7452268768102,4.0,1.0,part_1,,,,,,,,,,,,,blue,flipped triangle
200.0,3.0,3.0,0.0,2.0,2.0,405.2840368822217,4.0,1.0,part_1,,,,,,,,,,,,,magenta,circle
0.0,2.0,0.0,0.0,4.0,4.0,464.7870869375765,4.0,1.0,part_1,,,,,,,,,,,,,white,square
104.0,2.0,2.0,0.0,3.0,3.0,359.8985699936747,4.0,1.0,part_1,,,,,,,,,,,,,white,square
200.0,7.0,3.0,1.0,1.0,1.0,477.7146731503308,4.0,1.0,part_1,,,,,,,,,,,,,yellow,diamond
407.0,8.0,4.0,1.0,4.0,4.0,416.0015829838812,4.0,1.0,part_1,,,,,,,,,,,,,green,hexagon
196.0,7.0,3.0,1.0,2.0,2.0,413.3214310277253,4.0,1.0,part_1,,,,,,,,,,,,,yellow,diamond
39.0,5.0,1.0,1.0,2.0,2.0,552.3602080065757,4.0,1.0,part_1,,,,,,,,,,,,,blue,flipped triangle
112.0,2.0,2.0,0.0,1.0,1.0,472.1442679874599,4.0,1.0,part_1,,,,,,,,,,,,,white,square
191.0,7.0,3.0,1.0,4.0,4.0,450.4295729566365,4.0,1.0,part_1,,,,,,,,,,,,,yellow,diamond
381.0,4.0,4.0,0.0,3.0,3.0,378.3922160509974,4.0,1.0,part_1,,,,,,,,,,,,,orange,triangle
0.0,4.0,0.0,0.0,4.0,4.0,627.0395470783114,4.0,1.0,part_1,,,,,,,,,,,,,orange,triangle
0.0,2.0,2.0,0.0,5.0,5.0,362.8600188530981,1.0,0.0,part_2,go,250.0,250.0,1.0,,,,,,,,,white,square
0.0,8.0,4.0,1.0,6.0,6.0,323.8350481260568,1.0,0.0,part_2,go,250.0,250.0,1.0,,,,,,,,,green,hexagon
0.0,8.0,4.0,1.0,5.0,0.0,0.0,1.0,0.0,part_2,stop,250.0,250.0,4.0,,,,,,,,,green,hexagon
0.0,1.0,1.0,0.0,5.0,5.0,319.7744970675558,1.0,0.0,part_2,go,300.0,250.0,1.0,,,,,,,,,gray,I
0.0,8.0,4.0,1.0,5.0,5.0,374.7650000732392,1.0,0.0,part_2,stop,300.0,250.0,3.0,,,,,,,,,green,hexagon
0.0,7.0,3.0,1.0,6.0,6.0,310.5652839876711,1.0,0.0,part_2,stop,250.0,250.0,3.0,,,,,,,,,yellow,diamond
0.0,1.0,1.0,0.0,6.0,6.0,303.5821500234306,1.0,0.0,part_2,go,250.0,200.0,1.0,,,,,,,,,gray,I
0.0,7.0,3.0,1.0,5.0,5.0,270.5108050722629,1.0,0.0,part_2,stop,250.0,200.0,3.0,,,,,,,,,yellow,diamond
0.0,5.0,1.0,1.0,6.0,6.0,204.8696021083742,1.0,0.0,part_2,go,200.0,200.0,1.0,,,,,,,,,blue,flipped triangle
0.0,6.0,2.0,1.0,6.0,6.0,310.6733988970518,1.0,0.0,part_2,stop,200.0,200.0,3.0,,,,,,,,,cyan,cross
0.0,7.0,3.0,1.0,5.0,5.0,252.93331104330719,1.0,0.0,part_2,go,200.0,150.0,1.0,,,,,,,,,yellow,diamond
0.0,5.0,1.0,1.0,6.0,6.0,205.3956959862262,1.0,0.0,part_2,stop,200.0,150.0,3.0,,,,,,,,,blue,flipped triangle
0.0,4.0,4.0,0.0,5.0,5.0,282.9168089665472,1.0,0.0,part_2,go,200.0,100.0,1.0,,,,,,,,,orange,triangle
0.0,8.0,4.0,1.0,5.0,5.0,274.2603679653257,1.0,0.0,part_2,stop,200.0,100.0,3.0,,,,,,,,,green,hexagon
0.0,4.0,4.0,0.0,5.0,5.0,276.0308559518307,1.0,0.0,part_2,go,150.0,100.0,1.0,,,,,,,,,orange,triangle
0.0,8.0,4.0,1.0,6.0,6.0,281.5991141833365,1.0,0.0,part_2,go,150.0,100.0,1.0,,,,,,,,,green,hexagon
0.0,1.0,1.0,0.0,5.0,5.0,216.9117589946836,1.0,0.0,part_2,go,150.0,100.0,1.0,,,,,,,,,gray,I
0.0,7.0,3.0,1.0,5.0,5.0,275.435924064368,1.0,0.0,part_2,stop,150.0,100.0,3.0,,,,,,,,,yellow,diamond
0.0,7.0,3.0,1.0,6.0,6.0,254.47250809520477,1.0,0.0,part_2,stop,100.0,100.0,3.0,,,,,,,,,yellow,diamond
0.0,5.0,1.0,1.0,5.0,5.0,238.3116900455206,1.0,0.0,part_2,go,100.0,50.0,1.0,,,,,,,,,blue,flipped triangle
0.0,2.0,2.0,0.0,6.0,6.0,190.7608618494123,1.0,0.0,part_2,go,100.0,50.0,1.0,,,,,,,,,white,square
0.0,2.0,2.0,0.0,6.0,6.0,309.8527181427926,1.0,0.0,part_2,go,100.0,50.0,1.0,,,,,,,,,white,square
0.0,2.0,2.0,0.0,5.0,5.0,208.6052629165351,1.0,0.0,part_2,go,100.0,50.0,1.0,,,,,,,,,white,square
0.0,3.0,3.0,0.0,6.0,6.0,207.0065499283373,1.0,0.0,part_2,go,100.0,50.0,1.0,,,,,,,,,magenta,circle
0.0,4.0,4.0,0.0,6.0,6.0,292.1174338553101,1.0,0.0,part_2,go,100.0,50.0,1.0,,,,,,,,,orange,triangle
0.0,1.0,1.0,0.0,6.0,6.0,282.6047530397773,1.0,0.0,part_2,go,100.0,50.0,1.0,,,,,,,,,gray,I
0.0,7.0,3.0,1.0,5.0,5.0,229.7790010925382,1.0,0.0,part_2,stop,100.0,50.0,3.0,,,,,,,,,yellow,diamond
0.0,5.0,1.0,1.0,5.0,5.0,341.6193588636815,1.0,0.0,part_2,go,50.0,50.0,1.0,,,,,,,,,blue,flipped triangle
0.0,7.0,3.0,1.0,5.0,5.0,331.993733998388,1.0,0.0,part_2,stop,50.0,50.0,3.0,,,,,,,,,yellow,diamond
0.0,7.0,3.0,1.0,6.0,6.0,242.2314439900219,1.0,0.0,part_2,stop,0.0,50.0,3.0,,,,,,,,,yellow,diamond
0.0,7.0,3.0,1.0,6.0,5.0,192.509792977944,1.0,0.0,part_2,stop,0.0,0.0,3.0,,,,,,,,,yellow,diamond
0.0,8.0,4.0,1.0,6.0,6.0,288.8048288878053,1.0,0.0,part_2,go,0.0,0.0,1.0,,,,,,,,,green,hexagon
0.0,8.0,4.0,1.0,5.0,5.0,186.4412459544837,1.0,0.0,part_2,stop,0.0,0.0,3.0,,,,,,,,,green,hexagon
0.0,2.0,2.0,0.0,6.0,6.0,248.71152988635,1.0,0.0,part_2,go,0.0,0.0,1.0,,,,,,,,,white,square
0.0,6.0,2.0,1.0,6.0,6.0,271.5840020682663,1.0,0.0,part_2,stop,0.0,0.0,3.0,,,,,,,,,cyan,cross
0.0,2.0,2.0,0.0,6.0,6.0,287.6520450226962,1.0,0.0,part_2,go,0.0,0.0,1.0,,,,,,,,,white,square
0.0,6.0,2.0,1.0,5.0,5.0,357.6719460543245,2.0,0.0,part_2,stop,0.0,0.0,3.0,,,,,,,,,cyan,cross
0.0,3.0,3.0,0.0,5.0,5.0,282.8259400557726,2.0,0.0,part_2,go,0.0,0.0,1.0,,,,,,,,,magenta,circle
0.0,3.0,3.0,0.0,5.0,5.0,300.0220891553908,2.0,0.0,part_2,go,0.0,0.0,1.0,,,,,,,,,magenta,circle
0.0,3.0,3.0,0.0,5.0,5.0,258.0827649217099,2.0,0.0,part_2,go,0.0,0.0,1.0,,,,,,,,,magenta,circle
0.0,2.0,2.0,0.0,5.0,5.0,249.6521819848567,2.0,0.0,part_2,go,0.0,0.0,1.0,,,,,,,,,white,square
0.0,3.0,3.0,0.0,6.0,6.0,308.2124989014119,2.0,0.0,part_2,go,0.0,0.0,1.0,,,,,,,,,magenta,circle
0.0,7.0,3.0,1.0,6.0,6.0,298.9304130896926,2.0,0.0,part_2,stop,0.0,0.0,3.0,,,,,,,,,yellow,diamond
0.0,1.0,1.0,0.0,6.0,6.0,287.6760379876941,2.0,0.0,part_2,go,0.0,0.0,1.0,,,,,,,,,gray,I
0.0,8.0,4.0,1.0,6.0,6.0,272.3638541065156,2.0,0.0,part_2,stop,0.0,0.0,3.0,,,,,,,,,green,hexagon
0.0,1.0,1.0,0.0,6.0,6.0,274.1720448248088,2.0,0.0,part_2,go,0.0,0.0,1.0,,,,,,,,,gray,I
0.0,6.0,2.0,1.0,5.0,5.0,191.3374378345906,2.0,0.0,part_2,stop,0.0,0.0,3.0,,,,,,,,,cyan,cross
0.0,8.0,4.0,1.0,5.0,5.0,400.7620138581842,2.0,0.0,part_2,stop,0.0,0.0,3.0,,,,,,,,,green,hexagon
0.0,7.0,3.0,1.0,6.0,6.0,199.5319698471576,2.0,0.0,part_2,go,0.0,0.0,1.0,,,,,,,,,yellow,diamond
0.0,2.0,2.0,0.0,5.0,5.0,223.8861878868192,2.0,0.0,part_2,go,0.0,0.0,1.0,,,,,,,,,white,square
0.0,4.0,4.0,0.0,6.0,6.0,252.19974806532258,2.0,0.0,part_2,go,0.0,0.0,1.0,,,,,,,,,orange,triangle
0.0,4.0,4.0,0.0,6.0,6.0,283.4175480529666,2.0,0.0,part_2,go,0.0,0.0,1.0,,,,,,,,,orange,triangle
0.0,7.0,3.0,1.0,5.0,5.0,243.65529092028729,2.0,0.0,part_2,stop,0.0,0.0,3.0,,,,,,,,,yellow,diamond
0.0,2.0,2.0,0.0,5.0,5.0,273.7497410271317,2.0,0.0,part_2,go,0.0,0.0,1.0,,,,,,,,,white,square
0.0,5.0,1.0,1.0,5.0,5.0,242.2091360203921,2.0,0.0,part_2,stop,0.0,0.0,3.0,,,,,,,,,blue,flipped triangle
0.0,5.0,1.0,1.0,6.0,5.0,267.239511013031,2.0,0.0,part_2,stop,0.0,0.0,3.0,,,,,,,,,blue,flipped triangle
0.0,3.0,3.0,0.0,5.0,5.0,314.5624590106308,2.0,0.0,part_2,go,0.0,0.0,1.0,,,,,,,,,magenta,circle
0.0,8.0,4.0,1.0,5.0,5.0,344.3578639999032,2.0,0.0,part_2,stop,0.0,0.0,3.0,,,,,,,,,green,hexagon
0.0,3.0,3.0,0.0,6.0,6.0,288.8842951506376,2.0,0.0,part_2,go,0.0,0.0,1.0,,,,,,,,,magenta,circle
0.0,5.0,1.0,1.0,5.0,5.0,263.5660411324352,2.0,0.0,part_2,stop,0.0,0.0,3.0,,,,,,,,,blue,flipped triangle
0.0,5.0,1.0,1.0,5.0,5.0,261.7925871163606,2.0,0.0,part_2,stop,0.0,0.0,3.0,,,,,,,,,blue,flipped triangle
0.0,2.0,2.0,0.0,5.0,5.0,293.1391028687358,2.0,0.0,part_2,go,0.0,0.0,1.0,,,,,,,,,white,square
0.0,3.0,3.0,0.0,5.0,5.0,366.7252149898559,2.0,0.0,part_2,go,0.0,0.0,1.0,,,,,,,,,magenta,circle
0.0,8.0,4.0,1.0,6.0,6.0,231.2326449900865,2.0,0.0,part_2,stop,0.0,0.0,3.0,,,,,,,,,green,hexagon
0.0,8.0,4.0,1.0,6.0,6.0,286.3037090282887,2.0,0.0,part_2,stop,0.0,0.0,3.0,,,,,,,,,green,hexagon
0.0,4.0,4.0,0.0,5.0,5.0,285.1304509676993,2.0,0.0,part_2,go,0.0,0.0,1.0,,,,,,,,,orange,triangle
0.0,7.0,3.0,1.0,6.0,6.0,258.6117470636964,2.0,0.0,part_2,stop,0.0,0.0,3.0,,,,,,,,,yellow,diamond
0.0,6.0,2.0,1.0,6.0,6.0,270.1540989801287,2.0,0.0,part_2,stop,0.0,0.0,3.0,,,,,,,,,cyan,cross
0.0,6.0,2.0,1.0,5.0,5.0,253.29784001223737,2.0,0.0,part_2,stop,0.0,0.0,3.0,,,,,,,,,cyan,cross
0.0,3.0,3.0,0.0,6.0,6.0,272.9767980054021,2.0,0.0,part_2,go,0.0,0.0,1.0,,,,,,,,,magenta,circle
0.0,4.0,4.0,0.0,6.0,6.0,704.7940960619599,2.0,0.0,part_2,go,0.0,0.0,1.0,,,,,,,,,orange,triangle
0.0,5.0,1.0,1.0,6.0,6.0,311.6313249338418,2.0,0.0,part_2,go,0.0,0.0,1.0,,,,,,,,,blue,flipped triangle
0.0,5.0,1.0,1.0,6.0,6.0,444.1467651631683,3.0,0.0,part_2,go,0.0,0.0,1.0,,,,,,,,,blue,flipped triangle
0.0,6.0,2.0,1.0,5.0,5.0,316.573116928339,3.0,0.0,part_2,stop,0.0,0.0,3.0,,,,,,,,,cyan,cross
0.0,2.0,2.0,0.0,5.0,5.0,300.6336998660117,3.0,0.0,part_2,go,0.0,0.0,1.0,,,,,,,,,white,square
0.0,1.0,1.0,0.0,6.0,6.0,298.1286589056253,3.0,0.0,part_2,go,0.0,0.0,1.0,,,,,,,,,gray,I
0.0,2.0,2.0,0.0,6.0,6.0,297.9942038655281,3.0,0.0,part_2,go,0.0,0.0,1.0,,,,,,,,,white,square
0.0,4.0,4.0,0.0,6.0,6.0,305.8857589494437,3.0,0.0,part_2,go,0.0,0.0,1.0,,,,,,,,,orange,triangle
0.0,2.0,2.0,0.0,6.0,6.0,272.8988868184387,3.0,0.0,part_2,go,0.0,0.0,1.0,,,,,,,,,white,square
0.0,4.0,4.0,0.0,6.0,6.0,285.7103920541703,3.0,0.0,part_2,go,0.0,0.0,1.0,,,,,,,,,orange,triangle
0.0,1.0,1.0,0.0,6.0,6.0,293.3458108454942,3.0,0.0,part_2,go,0.0,0.0,1.0,,,,,,,,,gray,I
0.0,7.0,3.0,1.0,6.0,6.0,245.8695799577981,3.0,0.0,part_2,stop,0.0,0.0,3.0,,,,,,,,,yellow,diamond
0.0,3.0,3.0,0.0,6.0,6.0,276.7106441315263,3.0,0.0,part_2,go,0.0,0.0,1.0,,,,,,,,,magenta,circle
0.0,4.0,4.0,0.0,5.0,5.0,308.4105048328638,3.0,0.0,part_2,go,0.0,0.0,1.0,,,,,,,,,orange,triangle
0.0,5.0,1.0,1.0,6.0,6.0,235.9769439790398,3.0,0.0,part_2,stop,0.0,0.0,3.0,,,,,,,,,blue,flipped triangle
0.0,4.0,4.0,0.0,6.0,6.0,331.5167610999197,3.0,0.0,part_2,go,0.0,0.0,1.0,,,,,,,,,orange,triangle
0.0,5.0,1.0,1.0,5.0,5.0,338.6725238524377,3.0,0.0,part_2,stop,0.0,0.0,3.0,,,,,,,,,blue,flipped triangle
0.0,4.0,4.0,0.0,5.0,5.0,373.4556569252163,3.0,0.0,part_2,go,0.0,0.0,1.0,,,,,,,,,orange,triangle
0.0,2.0,2.0,0.0,5.0,5.0,289.1910530161112,3.0,0.0,part_2,go,0.0,0.0,1.0,,,,,,,,,white,square
0.0,8.0,4.0,1.0,6.0,6.0,424.5197928976267,3.0,0.0,part_2,go,0.0,0.0,1.0,,,,,,,,,green,hexagon
0.0,4.0,4.0,0.0,5.0,5.0,264.7431991063058,3.0,0.0,part_2,go,0.0,0.0,1.0,,,,,,,,,orange,triangle
0.0,6.0,2.0,1.0,6.0,6.0,232.0937290787696,3.0,0.0,part_2,stop,0.0,0.0,3.0,,,,,,,,,cyan,cross
0.0,4.0,4.0,0.0,6.0,6.0,314.3347559962421,3.0,0.0,part_2,go,0.0,0.0,1.0,,,,,,,,,orange,triangle
0.0,6.0,2.0,1.0,5.0,5.0,289.6870409604162,3.0,0.0,part_2,stop,0.0,0.0,3.0,,,,,,,,,cyan,cross
0.0,2.0,2.0,0.0,6.0,6.0,270.5229881685227,3.0,0.0,part_2,go,0.0,0.0,1.0,,,,,,,,,white,square
0.0,4.0,4.0,0.0,5.0,5.0,281.3364469911903,3.0,0.0,part_2,go,0.0,0.0,1.0,,,,,,,,,orange,triangle
0.0,2.0,2.0,0.0,5.0,5.0,367.2380230855196,3.0,0.0,part_2,go,0.0,0.0,1.0,,,,,,,,,white,square
0.0,3.0,3.0,0.0,6.0,6.0,294.2055920138955,3.0,0.0,part_2,go,0.0,0.0,1.0,,,,,,,,,magenta,circle
0.0,2.0,2.0,0.0,6.0,6.0,286.3377260509878,3.0,0.0,part_2,go,0.0,0.0,1.0,,,,,,,,,white,square
0.0,6.0,2.0,1.0,5.0,5.0,286.1373731866479,3.0,0.0,part_2,go,0.0,0.0,1.0,,,,,,,,,cyan,cross
0.0,2.0,2.0,0.0,5.0,5.0,309.4768209848553,3.0,0.0,part_2,go,0.0,0.0,1.0,,,,,,,,,white,square
0.0,4.0,4.0,0.0,6.0,6.0,314.0394641086459,3.0,0.0,part_2,go,0.0,0.0,1.0,,,,,,,,,orange,triangle
0.0,2.0,2.0,0.0,6.0,6.0,338.6387880891561,3.0,0.0,part_2,go,0.0,0.0,1.0,,,,,,,,,white,square
0.0,5.0,1.0,1.0,6.0,6.0,264.8297362029552,3.0,0.0,part_2,stop,0.0,0.0,3.0,,,,,,,,,blue,flipped triangle
0.0,2.0,2.0,0.0,6.0,6.0,384.6878169570118,3.0,0.0,part_2,go,0.0,0.0,1.0,,,,,,,,,white,square
0.0,2.0,2.0,0.0,5.0,5.0,279.8020998016,3.0,0.0,part_2,go,0.0,0.0,1.0,,,,,,,,,white,square
0.0,6.0,2.0,1.0,6.0,6.0,247.8109600488096,3.0,0.0,part_2,go,0.0,0.0,1.0,,,,,,,,,cyan,cross
0.0,3.0,3.0,0.0,6.0,6.0,330.5941161233932,3.0,0.0,part_2,go,0.0,0.0,1.0,,,,,,,,,magenta,circle
0.0,7.0,3.0,1.0,6.0,6.0,340.0531460065394,4.0,0.0,part_2,stop,0.0,0.0,3.0,,,,,,,,,yellow,diamond
0.0,3.0,3.0,0.0,6.0,6.0,339.8624919354915,4.0,0.0,part_2,go,0.0,0.0,1.0,,,,,,,,,magenta,circle
0.0,8.0,4.0,1.0,5.0,5.0,276.71556500718,4.0,0.0,part_2,stop,0.0,0.0,3.0,,,,,,,,,green,hexagon
0.0,7.0,3.0,1.0,5.0,5.0,322.7767529897392,4.0,0.0,part_2,stop,0.0,0.0,3.0,,,,,,,,,yellow,diamond
0.0,3.0,3.0,0.0,5.0,5.0,281.2151790130883,4.0,0.0,part_2,go,0.0,0.0,1.0,,,,,,,,,magenta,circle
0.0,7.0,3.0,1.0,5.0,5.0,284.3004430178553,4.0,0.0,part_2,stop,0.0,0.0,3.0,,,,,,,,,yellow,diamond
0.0,5.0,1.0,1.0,5.0,5.0,244.3087331485003,4.0,0.0,part_2,stop,0.0,0.0,3.0,,,,,,,,,blue,flipped triangle
0.0,7.0,3.0,1.0,5.0,5.0,256.4899530261755,4.0,0.0,part_2,go,0.0,0.0,1.0,,,,,,,,,yellow,diamond
0.0,7.0,3.0,1.0,6.0,6.0,298.3041170518845,4.0,0.0,part_2,go,0.0,0.0,1.0,,,,,,,,,yellow,diamond
0.0,1.0,1.0,0.0,5.0,5.0,264.8396189324558,4.0,0.0,part_2,go,0.0,0.0,1.0,,,,,,,,,gray,I
0.0,1.0,1.0,0.0,6.0,6.0,298.9733619615435,4.0,0.0,part_2,go,0.0,0.0,1.0,,,,,,,,,gray,I
0.0,5.0,1.0,1.0,6.0,6.0,327.7452369220555,4.0,0.0,part_2,stop,0.0,0.0,3.0,,,,,,,,,blue,flipped triangle
0.0,5.0,1.0,1.0,5.0,5.0,310.8881220687181,4.0,0.0,part_2,stop,0.0,0.0,3.0,,,,,,,,,blue,flipped triangle
0.0,4.0,4.0,0.0,5.0,5.0,336.6564509924501,4.0,0.0,part_2,go,0.0,0.0,1.0,,,,,,,,,orange,triangle
0.0,5.0,1.0,1.0,5.0,5.0,340.0136379059404,4.0,0.0,part_2,stop,0.0,0.0,3.0,,,,,,,,,blue,flipped triangle
0.0,4.0,4.0,0.0,6.0,6.0,351.3207829091698,4.0,0.0,part_2,go,0.0,0.0,1.0,,,,,,,,,orange,triangle
0.0,7.0,3.0,1.0,5.0,5.0,364.0776500105858,4.0,0.0,part_2,stop,0.0,0.0,3.0,,,,,,,,,yellow,diamond
0.0,1.0,1.0,0.0,5.0,5.0,460.3288241196424,4.0,0.0,part_2,go,0.0,0.0,1.0,,,,,,,,,gray,I
0.0,3.0,3.0,0.0,5.0,5.0,316.6587811429053,4.0,0.0,part_2,go,0.0,0.0,1.0,,,,,,,,,magenta,circle
0.0,8.0,4.0,1.0,5.0,5.0,259.7392979077995,4.0,0.0,part_2,stop,0.0,0.0,3.0,,,,,,,,,green,hexagon
0.0,6.0,2.0,1.0,6.0,6.0,340.7453268300742,4.0,0.0,part_2,stop,0.0,0.0,3.0,,,,,,,,,cyan,cross
0.0,7.0,3.0,1.0,6.0,6.0,323.692990001291,4.0,0.0,part_2,go,0.0,0.0,1.0,,,,,,,,,yellow,diamond
0.0,7.0,3.0,1.0,5.0,5.0,251.44111993722618,4.0,0.0,part_2,stop,0.0,0.0,3.0,,,,,,,,,yellow,diamond
0.0,4.0,4.0,0.0,5.0,5.0,319.172159070149,4.0,0.0,part_2,go,0.0,0.0,1.0,,,,,,,,,orange,triangle
0.0,3.0,3.0,0.0,6.0,6.0,302.0096700638532,4.0,0.0,part_2,go,0.0,0.0,1.0,,,,,,,,,magenta,circle
0.0,6.0,2.0,1.0,6.0,6.0,304.9202219117433,4.0,0.0,part_2,stop,0.0,0.0,3.0,,,,,,,,,cyan,cross
0.0,4.0,4.0,0.0,5.0,5.0,389.810404041782,4.0,0.0,part_2,go,0.0,0.0,1.0,,,,,,,,,orange,triangle
0.0,6.0,2.0,1.0,6.0,6.0,296.3474208954721,4.0,0.0,part_2,stop,0.0,0.0,3.0,,,,,,,,,cyan,cross
0.0,2.0,2.0,0.0,6.0,6.0,383.0609649885446,4.0,0.0,part_2,go,0.0,0.0,1.0,,,,,,,,,white,square
0.0,5.0,1.0,1.0,5.0,5.0,467.7310131955892,4.0,0.0,part_2,stop,0.0,0.0,3.0,,,,,,,,,blue,flipped triangle
0.0,7.0,3.0,1.0,6.0,6.0,284.7094850149005,4.0,0.0,part_2,stop,0.0,0.0,3.0,,,,,,,,,yellow,diamond
0.0,6.0,2.0,1.0,5.0,5.0,331.2320909462869,4.0,0.0,part_2,go,0.0,0.0,1.0,,,,,,,,,cyan,cross
0.0,5.0,1.0,1.0,5.0,5.0,898.8859038800001,4.0,0.0,part_2,go,0.0,0.0,1.0,,,,,,,,,blue,flipped triangle
0.0,2.0,2.0,0.0,5.0,5.0,364.3144499510526,4.0,0.0,part_2,go,0.0,0.0,1.0,,,,,,,,,white,square
0.0,2.0,2.0,0.0,6.0,6.0,361.5089082159102,4.0,0.0,part_2,go,0.0,0.0,1.0,,,,,,,,,white,square
0.0,7.0,3.0,1.0,6.0,6.0,284.049459034577,4.0,0.0,part_2,stop,0.0,0.0,3.0,,,,,,,,,yellow,diamond
0.0,6.0,2.0,1.0,5.0,5.0,373.9079521037638,5.0,0.0,part_2,go,0.0,0.0,1.0,,,,,,,,,cyan,cross
0.0,1.0,1.0,0.0,6.0,6.0,364.6073620766401,5.0,0.0,part_2,go,0.0,0.0,1.0,,,,,,,,,gray,I
0.0,1.0,1.0,0.0,5.0,5.0,269.5355068426579,5.0,0.0,part_2,go,0.0,0.0,1.0,,,,,,,,,gray,I
0.0,5.0,1.0,1.0,5.0,5.0,308.8462459854781,5.0,0.0,part_2,stop,0.0,0.0,3.0,,,,,,,,,blue,flipped triangle
0.0,3.0,3.0,0.0,5.0,5.0,292.9758611135185,5.0,0.0,part_2,go,0.0,0.0,1.0,,,,,,,,,magenta,circle
0.0,4.0,4.0,0.0,6.0,6.0,306.2447998672724,5.0,0.0,part_2,go,0.0,0.0,1.0,,,,,,,,,orange,triangle
0.0,5.0,1.0,1.0,6.0,6.0,368.6448950320482,5.0,0.0,part_2,stop,0.0,0.0,3.0,,,,,,,,,blue,flipped triangle
0.0,6.0,2.0,1.0,5.0,5.0,272.9435029905289,5.0,0.0,part_2,go,0.0,0.0,1.0,,,,,,,,,cyan,cross
0.0,3.0,3.0,0.0,5.0,5.0,314.5761471241712,5.0,0.0,part_2,go,0.0,0.0,1.0,,,,,,,,,magenta,circle
0.0,2.0,2.0,0.0,5.0,5.0,302.6871972251683,5.0,0.0,part_2,go,0.0,0.0,1.0,,,,,,,,,white,square
0.0,3.0,3.0,0.0,5.0,5.0,309.1936279088259,5.0,0.0,part_2,go,0.0,0.0,1.0,,,,,,,,,magenta,circle
0.0,3.0,3.0,0.0,5.0,5.0,285.4517891537398,5.0,0.0,part_2,go,0.0,0.0,1.0,,,,,,,,,magenta,circle
0.0,8.0,4.0,1.0,5.0,5.0,303.1657070387155,5.0,0.0,part_2,stop,0.0,0.0,3.0,,,,,,,,,green,hexagon
0.0,3.0,3.0,0.0,5.0,5.0,286.1149730160832,5.0,0.0,part_2,go,0.0,0.0,1.0,,,,,,,,,magenta,circle
0.0,7.0,3.0,1.0,6.0,6.0,428.9732628967613,5.0,0.0,part_2,stop,0.0,0.0,3.0,,,,,,,,,yellow,diamond
0.0,3.0,3.0,0.0,6.0,6.0,373.1194089632481,5.0,0.0,part_2,go,0.0,0.0,1.0,,,,,,,,,magenta,circle
0.0,4.0,4.0,0.0,5.0,5.0,299.136689864099,5.0,0.0,part_2,go,0.0,0.0,1.0,,,,,,,,,orange,triangle
0.0,6.0,2.0,1.0,5.0,5.0,300.4452970344573,5.0,0.0,part_2,stop,0.0,0.0,3.0,,,,,,,,,cyan,cross
0.0,4.0,4.0,0.0,5.0,5.0,393.2965891435742,5.0,0.0,part_2,go,0.0,0.0,1.0,,,,,,,,,orange,triangle
0.0,6.0,2.0,1.0,5.0,5.0,329.3700749054551,5.0,0.0,part_2,stop,0.0,0.0,3.0,,,,,,,,,cyan,cross
0.0,5.0,1.0,1.0,5.0,5.0,298.9233508706093,5.0,0.0,part_2,stop,0.0,0.0,3.0,,,,,,,,,blue,flipped triangle
0.0,1.0,1.0,0.0,5.0,5.0,330.8027638122439,5.0,0.0,part_2,go,0.0,0.0,1.0,,,,,,,,,gray,I
0.0,6.0,2.0,1.0,5.0,5.0,385.3934751823544,5.0,0.0,part_2,go,0.0,0.0,1.0,,,,,,,,,cyan,cross
0.0,8.0,4.0,1.0,5.0,5.0,279.8617691732943,5.0,0.0,part_2,stop,0.0,0.0,3.0,,,,,,,,,green,hexagon
0.0,7.0,3.0,1.0,5.0,5.0,266.067081829533,5.0,0.0,part_2,stop,0.0,0.0,3.0,,,,,,,,,yellow,diamond
0.0,2.0,2.0,0.0,6.0,6.0,389.5960198715329,5.0,0.0,part_2,go,0.0,0.0,1.0,,,,,,,,,white,square
0.0,7.0,3.0,1.0,5.0,5.0,277.3643350228667,5.0,0.0,part_2,go,0.0,0.0,1.0,,,,,,,,,yellow,diamond
0.0,7.0,3.0,1.0,6.0,6.0,364.4649779889732,5.0,0.0,part_2,go,0.0,0.0,1.0,,,,,,,,,yellow,diamond
0.0,6.0,2.0,1.0,5.0,5.0,247.2614811267703,5.0,0.0,part_2,stop,0.0,0.0,3.0,,,,,,,,,cyan,cross
0.0,2.0,2.0,0.0,6.0,6.0,356.2315020244568,5.0,0.0,part_2,go,0.0,0.0,1.0,,,,,,,,,white,square
0.0,7.0,3.0,1.0,5.0,5.0,238.8031200971454,5.0,0.0,part_2,stop,0.0,0.0,3.0,,,,,,,,,yellow,diamond
0.0,8.0,4.0,1.0,5.0,5.0,364.761137869209,5.0,0.0,part_2,stop,0.0,0.0,3.0,,,,,,,,,green,hexagon
0.0,3.0,3.0,0.0,6.0,6.0,394.8755890596658,5.0,0.0,part_2,go,0.0,0.0,1.0,,,,,,,,,magenta,circle
0.0,8.0,4.0,1.0,6.0,6.0,387.2290761210024,5.0,0.0,part_2,go,0.0,0.0,1.0,,,,,,,,,green,hexagon
0.0,1.0,1.0,0.0,5.0,5.0,356.5810129512101,5.0,0.0,part_2,go,0.0,0.0,1.0,,,,,,,,,gray,I
0.0,8.0,4.0,1.0,6.0,6.0,379.0745770093053,5.0,0.0,part_2,go,0.0,0.0,1.0,,,,,,,,,green,hexagon
0.0,6.0,2.0,1.0,6.0,6.0,898.696948075667,6.0,0.0,part_2,stop,0.0,0.0,3.0,,,,,,,,,cyan,cross
0.0,4.0,4.0,0.0,5.0,5.0,274.4070678018033,6.0,0.0,part_2,go,0.0,0.0,1.0,,,,,,,,,orange,triangle
0.0,1.0,1.0,0.0,5.0,5.0,326.3340531848371,6.0,0.0,part_2,go,0.0,0.0,1.0,,,,,,,,,gray,I
0.0,3.0,3.0,0.0,6.0,6.0,312.4118049163371,6.0,0.0,part_2,go,0.0,0.0,1.0,,,,,,,,,magenta,circle
0.0,1.0,1.0,0.0,6.0,6.0,311.6638390347361,6.0,0.0,part_2,go,0.0,0.0,1.0,,,,,,,,,gray,I
0.0,8.0,4.0,1.0,5.0,5.0,232.3628121521324,6.0,0.0,part_2,stop,0.0,0.0,3.0,,,,,,,,,green,hexagon
0.0,1.0,1.0,0.0,5.0,5.0,300.0518730841577,6.0,0.0,part_2,go,0.0,0.0,1.0,,,,,,,,,gray,I
0.0,1.0,1.0,0.0,6.0,6.0,315.0648670271039,6.0,0.0,part_2,go,0.0,0.0,1.0,,,,,,,,,gray,I
0.0,1.0,1.0,0.0,5.0,5.0,307.5439759995788,6.0,0.0,part_2,go,0.0,0.0,1.0,,,,,,,,,gray,I
0.0,6.0,2.0,1.0,6.0,6.0,270.3647022135556,6.0,0.0,part_2,stop,0.0,0.0,3.0,,,,,,,,,cyan,cross
0.0,4.0,4.0,0.0,5.0,5.0,331.4672179985791,6.0,0.0,part_2,go,0.0,0.0,1.0,,,,,,,,,orange,triangle
0.0,4.0,4.0,0.0,6.0,6.0,282.0483800023794,6.0,0.0,part_2,go,0.0,0.0,1.0,,,,,,,,,orange,triangle
0.0,4.0,4.0,0.0,6.0,6.0,331.9509499706328,6.0,0.0,part_2,go,0.0,0.0,1.0,,,,,,,,,orange,triangle
0.0,7.0,3.0,1.0,5.0,5.0,377.8360181022435,6.0,0.0,part_2,stop,0.0,0.0,3.0,,,,,,,,,yellow,diamond
0.0,5.0,1.0,1.0,6.0,6.0,303.9448179770261,6.0,0.0,part_2,stop,0.0,0.0,3.0,,,,,,,,,blue,flipped triangle
0.0,6.0,2.0,1.0,5.0,5.0,256.7445479799062,6.0,0.0,part_2,stop,0.0,0.0,3.0,,,,,,,,,cyan,cross
0.0,1.0,1.0,0.0,5.0,5.0,393.9344279933721,6.0,0.0,part_2,go,0.0,0.0,1.0,,,,,,,,,gray,I
0.0,1.0,1.0,0.0,6.0,6.0,352.1246069576591,6.0,0.0,part_2,go,0.0,0.0,1.0,,,,,,,,,gray,I
0.0,1.0,1.0,0.0,6.0,6.0,359.4888360239565,6.0,0.0,part_2,go,0.0,0.0,1.0,,,,,,,,,gray,I
0.0,5.0,1.0,1.0,6.0,6.0,253.4457070287317,6.0,0.0,part_2,stop,0.0,0.0,3.0,,,,,,,,,blue,flipped triangle
0.0,1.0,1.0,0.0,5.0,5.0,303.44447796233,6.0,0.0,part_2,go,0.0,0.0,1.0,,,,,,,,,gray,I
0.0,4.0,4.0,0.0,6.0,6.0,303.0140199698508,6.0,0.0,part_2,go,0.0,0.0,1.0,,,,,,,,,orange,triangle
0.0,3.0,3.0,0.0,5.0,5.0,311.1754250712693,6.0,0.0,part_2,go,0.0,0.0,1.0,,,,,,,,,magenta,circle
0.0,1.0,1.0,0.0,5.0,5.0,564.7029739338905,6.0,0.0,part_2,go,0.0,0.0,1.0,,,,,,,,,gray,I
0.0,7.0,3.0,1.0,6.0,6.0,306.7137538455426,6.0,0.0,part_2,go,0.0,0.0,1.0,,,,,,,,,yellow,diamond
0.0,6.0,2.0,1.0,6.0,6.0,377.8684441931546,6.0,0.0,part_2,stop,0.0,0.0,3.0,,,,,,,,,cyan,cross
0.0,4.0,4.0,0.0,5.0,5.0,344.6157809812575,6.0,0.0,part_2,go,0.0,0.0,1.0,,,,,,,,,orange,triangle
0.0,1.0,1.0,0.0,5.0,5.0,435.0734429899603,6.0,0.0,part_2,go,0.0,0.0,1.0,,,,,,,,,gray,I
0.0,8.0,4.0,1.0,5.0,5.0,288.5167810600251,6.0,0.0,part_2,stop,0.0,0.0,3.0,,,,,,,,,green,hexagon
0.0,3.0,3.0,0.0,5.0,5.0,295.0593209825456,6.0,0.0,part_2,go,0.0,0.0,1.0,,,,,,,,,magenta,circle
0.0,2.0,2.0,0.0,5.0,5.0,320.6030339933932,6.0,0.0,part_2,go,0.0,0.0,1.0,,,,,,,,,white,square
0.0,5.0,1.0,1.0,5.0,5.0,312.4467870220542,6.0,0.0,part_2,stop,0.0,0.0,3.0,,,,,,,,,blue,flipped triangle
0.0,6.0,2.0,1.0,6.0,6.0,1152.3508508689702,6.0,0.0,part_2,go,0.0,0.0,1.0,,,,,,,,,cyan,cross
0.0,5.0,1.0,1.0,5.0,5.0,279.8707177862525,6.0,0.0,part_2,stop,0.0,0.0,3.0,,,,,,,,,blue,flipped triangle
0.0,2.0,2.0,0.0,6.0,6.0,335.3951210156083,6.0,0.0,part_2,go,0.0,0.0,1.0,,,,,,,,,white,square
0.0,2.0,2.0,0.0,5.0,5.0,316.147536970675,6.0,0.0,part_2,go,0.0,0.0,1.0,,,,,,,,,white,square
0.0,1.0,1.0,0.0,5.0,5.0,820.066676940769,7.0,0.0,part_2,go,0.0,0.0,1.0,,,,,,,,,gray,I
0.0,6.0,2.0,1.0,6.0,6.0,234.6801341045647,7.0,0.0,part_2,stop,0.0,0.0,3.0,,,,,,,,,cyan,cross
0.0,5.0,1.0,1.0,6.0,6.0,338.8418070971966,7.0,0.0,part_2,go,0.0,0.0,1.0,,,,,,,,,blue,flipped triangle
0.0,1.0,1.0,0.0,6.0,6.0,290.5801050364971,7.0,0.0,part_2,go,0.0,0.0,1.0,,,,,,,,,gray,I
0.0,6.0,2.0,1.0,5.0,5.0,315.4475148767233,7.0,0.0,part_2,stop,0.0,0.0,3.0,,,,,,,,,cyan,cross
0.0,7.0,3.0,1.0,5.0,5.0,346.9170369207859,7.0,0.0,part_2,stop,0.0,0.0,3.0,,,,,,,,,yellow,diamond
0.0,7.0,3.0,1.0,6.0,6.0,227.6582871563732,7.0,0.0,part_2,stop,0.0,0.0,3.0,,,,,,,,,yellow,diamond
0.0,2.0,2.0,0.0,6.0,6.0,297.1989689394831,7.0,0.0,part_2,go,0.0,0.0,1.0,,,,,,,,,white,square
0.0,6.0,2.0,1.0,5.0,5.0,290.0096389930695,7.0,0.0,part_2,go,0.0,0.0,1.0,,,,,,,,,cyan,cross
0.0,5.0,1.0,1.0,5.0,5.0,304.8562831245363,7.0,0.0,part_2,stop,0.0,0.0,3.0,,,,,,,,,blue,flipped triangle
0.0,5.0,1.0,1.0,6.0,6.0,297.9575379285961,7.0,0.0,part_2,go,0.0,0.0,1.0,,,,,,,,,blue,flipped triangle
0.0,6.0,2.0,1.0,6.0,6.0,294.0308670513332,7.0,0.0,part_2,go,0.0,0.0,1.0,,,,,,,,,cyan,cross
0.0,4.0,4.0,0.0,5.0,5.0,270.1246629003435,7.0,0.0,part_2,go,0.0,0.0,1.0,,,,,,,,,orange,triangle
0.0,5.0,1.0,1.0,6.0,6.0,252.58634705096478,7.0,0.0,part_2,stop,0.0,0.0,3.0,,,,,,,,,blue,flipped triangle
0.0,5.0,1.0,1.0,6.0,6.0,308.6794482078403,7.0,0.0,part_2,stop,0.0,0.0,3.0,,,,,,,,,blue,flipped triangle
0.0,4.0,4.0,0.0,6.0,6.0,365.962091833353,7.0,0.0,part_2,go,0.0,0.0,1.0,,,,,,,,,orange,triangle
0.0,5.0,1.0,1.0,5.0,5.0,402.8197289444506,7.0,0.0,part_2,stop,0.0,0.0,3.0,,,,,,,,,blue,flipped triangle
0.0,5.0,1.0,1.0,5.0,5.0,333.7474998552352,7.0,0.0,part_2,stop,0.0,0.0,3.0,,,,,,,,,blue,flipped triangle
0.0,6.0,2.0,1.0,5.0,5.0,321.9820649828762,7.0,0.0,part_2,stop,0.0,0.0,3.0,,,,,,,,,cyan,cross
0.0,3.0,3.0,0.0,6.0,6.0,466.7967949062586,7.0,0.0,part_2,go,0.0,0.0,1.0,,,,,,,,,magenta,circle
0.0,5.0,1.0,1.0,6.0,6.0,323.6229931935668,7.0,0.0,part_2,go,0.0,0.0,1.0,,,,,,,,,blue,flipped triangle
0.0,4.0,4.0,0.0,6.0,6.0,336.5358400624245,7.0,0.0,part_2,go,0.0,0.0,1.0,,,,,,,,,orange,triangle
0.0,2.0,2.0,0.0,5.0,5.0,322.842865018174,7.0,0.0,part_2,go,0.0,0.0,1.0,,,,,,,,,white,square
0.0,1.0,1.0,0.0,5.0,5.0,378.5096120554954,7.0,0.0,part_2,go,0.0,0.0,1.0,,,,,,,,,gray,I
0.0,8.0,4.0,1.0,6.0,6.0,313.9258499722928,7.0,0.0,part_2,stop,0.0,0.0,3.0,,,,,,,,,green,hexagon
0.0,8.0,4.0,1.0,6.0,6.0,289.0252070501447,7.0,0.0,part_2,stop,0.0,0.0,3.0,,,,,,,,,green,hexagon
0.0,6.0,2.0,1.0,5.0,5.0,319.621531991288,7.0,0.0,part_2,stop,0.0,0.0,3.0,,,,,,,,,cyan,cross
0.0,7.0,3.0,1.0,5.0,5.0,421.8775501940399,7.0,0.0,part_2,go,0.0,0.0,1.0,,,,,,,,,yellow,diamond
0.0,2.0,2.0,0.0,6.0,6.0,374.1889670491218,7.0,0.0,part_2,go,0.0,0.0,1.0,,,,,,,,,white,square
0.0,8.0,4.0,1.0,5.0,5.0,285.5292400345206,7.0,0.0,part_2,stop,0.0,0.0,3.0,,,,,,,,,green,hexagon
0.0,2.0,2.0,0.0,6.0,6.0,342.9712229408324,7.0,0.0,part_2,go,0.0,0.0,1.0,,,,,,,,,white,square
0.0,1.0,1.0,0.0,5.0,5.0,307.423923863098,7.0,0.0,part_2,go,0.0,0.0,1.0,,,,,,,,,gray,I
0.0,8.0,4.0,1.0,5.0,5.0,326.3971509877592,7.0,0.0,part_2,stop,0.0,0.0,3.0,,,,,,,,,green,hexagon
0.0,2.0,2.0,0.0,5.0,5.0,316.7340459767729,7.0,0.0,part_2,go,0.0,0.0,1.0,,,,,,,,,white,square
0.0,8.0,4.0,1.0,6.0,6.0,337.1620478574186,7.0,0.0,part_2,stop,0.0,0.0,3.0,,,,,,,,,green,hexagon
0.0,8.0,4.0,1.0,6.0,6.0,388.3108620066196,7.0,0.0,part_2,stop,0.0,0.0,3.0,,,,,,,,,green,hexagon
0.0,1.0,1.0,0.0,6.0,6.0,819.3090439308435,8.0,0.0,part_2,go,0.0,0.0,1.0,,,,,,,,,gray,I
0.0,3.0,3.0,0.0,6.0,6.0,281.6848128568381,8.0,0.0,part_2,go,0.0,0.0,1.0,,,,,,,,,magenta,circle
0.0,3.0,3.0,0.0,5.0,5.0,346.9021280761808,8.0,0.0,part_2,go,0.0,0.0,1.0,,,,,,,,,magenta,circle
0.0,8.0,4.0,1.0,5.0,5.0,310.7297180686146,8.0,0.0,part_2,stop,0.0,0.0,3.0,,,,,,,,,green,hexagon
0.0,8.0,4.0,1.0,6.0,6.0,309.8111371509731,8.0,0.0,part_2,go,0.0,0.0,1.0,,,,,,,,,green,hexagon
0.0,3.0,3.0,0.0,6.0,6.0,325.349966995418,8.0,0.0,part_2,go,0.0,0.0,1.0,,,,,,,,,magenta,circle
0.0,8.0,4.0,1.0,6.0,6.0,292.9904451593756,8.0,0.0,part_2,stop,0.0,0.0,3.0,,,,,,,,,green,hexagon
0.0,4.0,4.0,0.0,5.0,5.0,284.9257490597665,8.0,0.0,part_2,go,0.0,0.0,1.0,,,,,,,,,orange,triangle
0.0,3.0,3.0,0.0,6.0,6.0,269.9536310974508,8.0,0.0,part_2,go,0.0,0.0,1.0,,,,,,,,,magenta,circle
0.0,4.0,4.0,0.0,6.0,6.0,300.8351309690624,8.0,0.0,part_2,go,0.0,0.0,1.0,,,,,,,,,orange,triangle
0.0,3.0,3.0,0.0,6.0,6.0,294.5403240155428,8.0,0.0,part_2,go,0.0,0.0,1.0,,,,,,,,,magenta,circle
0.0,6.0,2.0,1.0,6.0,6.0,387.3100099153816,8.0,0.0,part_2,stop,0.0,0.0,3.0,,,,,,,,,cyan,cross
0.0,8.0,4.0,1.0,6.0,6.0,325.2378089819103,8.0,0.0,part_2,go,0.0,0.0,1.0,,,,,,,,,green,hexagon
0.0,3.0,3.0,0.0,5.0,5.0,340.3117749840021,8.0,0.0,part_2,go,0.0,0.0,1.0,,,,,,,,,magenta,circle
0.0,8.0,4.0,1.0,6.0,6.0,331.5368900075555,8.0,0.0,part_2,go,0.0,0.0,1.0,,,,,,,,,green,hexagon
0.0,7.0,3.0,1.0,6.0,6.0,312.566592823714,8.0,0.0,part_2,stop,0.0,0.0,3.0,,,,,,,,,yellow,diamond
0.0,1.0,1.0,0.0,6.0,6.0,335.4798110667616,8.0,0.0,part_2,go,0.0,0.0,1.0,,,,,,,,,gray,I
0.0,3.0,3.0,0.0,5.0,5.0,289.4056539516896,8.0,0.0,part_2,go,0.0,0.0,1.0,,,,,,,,,magenta,circle
0.0,5.0,1.0,1.0,6.0,6.0,390.0861500296742,8.0,0.0,part_2,stop,0.0,0.0,3.0,,,,,,,,,blue,flipped triangle
0.0,3.0,3.0,0.0,5.0,5.0,309.4059280119836,8.0,0.0,part_2,go,0.0,0.0,1.0,,,,,,,,,magenta,circle
0.0,6.0,2.0,1.0,6.0,6.0,351.591584039852,8.0,0.0,part_2,stop,0.0,0.0,3.0,,,,,,,,,cyan,cross
0.0,1.0,1.0,0.0,6.0,6.0,360.8037831727415,8.0,0.0,part_2,go,0.0,0.0,1.0,,,,,,,,,gray,I
0.0,1.0,1.0,0.0,6.0,6.0,277.2900788113475,8.0,0.0,part_2,go,0.0,0.0,1.0,,,,,,,,,gray,I
0.0,2.0,2.0,0.0,5.0,5.0,286.175575107336,8.0,0.0,part_2,go,0.0,0.0,1.0,,,,,,,,,white,square
0.0,5.0,1.0,1.0,6.0,6.0,221.1843698751181,8.0,0.0,part_2,stop,0.0,0.0,3.0,,,,,,,,,blue,flipped triangle
0.0,6.0,2.0,1.0,6.0,5.0,373.6435668542981,8.0,0.0,part_2,stop,0.0,0.0,3.0,,,,,,,,,cyan,cross
0.0,8.0,4.0,1.0,5.0,5.0,314.1401198226958,8.0,0.0,part_2,stop,0.0,0.0,3.0,,,,,,,,,green,hexagon
0.0,1.0,1.0,0.0,5.0,5.0,561.3231570459902,8.0,0.0,part_2,go,0.0,0.0,1.0,,,,,,,,,gray,I
0.0,8.0,4.0,1.0,5.0,5.0,299.3025500327348,8.0,0.0,part_2,stop,0.0,0.0,3.0,,,,,,,,,green,hexagon
0.0,1.0,1.0,0.0,6.0,6.0,319.7488428559154,8.0,0.0,part_2,go,0.0,0.0,1.0,,,,,,,,,gray,I
0.0,3.0,3.0,0.0,6.0,6.0,346.5391870122403,8.0,0.0,part_2,go,0.0,0.0,1.0,,,,,,,,,magenta,circle
0.0,6.0,2.0,1.0,6.0,6.0,266.3828569930047,8.0,0.0,part_2,stop,0.0,0.0,3.0,,,,,,,,,cyan,cross
0.0,7.0,3.0,1.0,5.0,5.0,289.2201379872858,8.0,0.0,part_2,stop,0.0,0.0,3.0,,,,,,,,,yellow,diamond
0.0,4.0,4.0,0.0,6.0,6.0,280.475263018161,8.0,0.0,part_2,go,0.0,0.0,1.0,,,,,,,,,orange,triangle
0.0,8.0,4.0,1.0,6.0,6.0,309.7387249581516,8.0,0.0,part_2,stop,0.0,0.0,3.0,,,,,,,,,green,hexagon
0.0,4.0,4.0,0.0,5.0,5.0,350.381227908656,8.0,0.0,part_2,go,0.0,0.0,1.0,,,,,,,,,orange,triangle
0.0,3.0,3.0,0.0,7.0,3.0,3615.210358053446,1.0,2.0,part_3,go,0.0,0.0,0.0,204.0,6.0,68.0,136.0,204.0,102.0,170.0,34.0,magenta,circle
0.0,7.0,3.0,1.0,7.0,1.0,0.1825171057134,1.0,2.0,part_3,go,0.0,0.0,0.0,156.0,4.0,156.0,78.0,195.0,117.0,234.0,39.0,yellow,diamond
0.0,2.0,2.0,0.0,7.0,3.0,2413.822114933282,1.0,1.0,part_3,go,0.0,0.0,0.0,132.0,3.0,88.0,176.0,132.0,264.0,44.0,220.0,white,square
0.0,6.0,2.0,1.0,7.0,1.0,2892.539642052725,1.0,1.0,part_3,go,0.0,0.0,0.0,102.0,3.0,102.0,68.0,204.0,170.0,136.0,34.0,cyan,cross
0.0,2.0,2.0,0.0,7.0,3.0,2518.0527209304273,1.0,1.0,part_3,go,0.0,0.0,0.0,34.0,1.0,204.0,170.0,34.0,102.0,136.0,68.0,white,square
0.0,5.0,1.0,1.0,7.0,1.0,2537.395349005237,1.0,1.0,part_3,go,0.0,0.0,0.0,264.0,6.0,264.0,176.0,88.0,44.0,132.0,220.0,blue,flipped triangle
0.0,8.0,4.0,1.0,7.0,6.0,2515.983966877684,1.0,1.0,part_3,go,0.0,0.0,0.0,147.0,3.0,98.0,245.0,196.0,294.0,49.0,147.0,green,hexagon
0.0,7.0,3.0,1.0,7.0,1.0,0.18188194371750002,1.0,1.0,part_3,go,0.0,0.0,0.0,170.0,5.0,170.0,136.0,34.0,102.0,204.0,68.0,yellow,diamond
0.0,8.0,4.0,1.0,7.0,2.0,2043.2218078058213,1.0,1.0,part_3,go,0.0,0.0,0.0,156.0,4.0,39.0,156.0,234.0,195.0,117.0,78.0,green,hexagon
0.0,1.0,1.0,0.0,7.0,5.0,3655.732142040506,1.0,1.0,part_3,go,0.0,0.0,0.0,44.0,1.0,88.0,264.0,132.0,176.0,44.0,220.0,gray,I
0.0,7.0,3.0,1.0,7.0,1.0,743.2448181789368,1.0,2.0,part_3,go,0.0,0.0,0.0,216.0,4.0,216.0,108.0,324.0,270.0,162.0,54.0,yellow,diamond
0.0,3.0,3.0,0.0,7.0,5.0,2850.6869599223137,1.0,1.0,part_3,go,0.0,0.0,0.0,117.0,3.0,195.0,39.0,156.0,78.0,117.0,234.0,magenta,circle
0.0,1.0,1.0,0.0,7.0,2.0,1938.6073700152335,1.0,1.0,part_3,go,0.0,0.0,0.0,34.0,1.0,68.0,34.0,204.0,102.0,170.0,136.0,gray,I
0.0,3.0,3.0,0.0,7.0,6.0,2819.4450340233743,1.0,1.0,part_3,go,0.0,0.0,0.0,204.0,6.0,136.0,34.0,68.0,170.0,102.0,204.0,magenta,circle
0.0,2.0,2.0,0.0,7.0,6.0,2207.8367709182203,1.0,1.0,part_3,go,0.0,0.0,0.0,49.0,1.0,294.0,147.0,245.0,196.0,98.0,49.0,white,square
0.0,8.0,4.0,1.0,7.0,1.0,2037.486206041649,1.0,1.0,part_3,go,0.0,0.0,0.0,195.0,5.0,195.0,39.0,156.0,78.0,117.0,234.0,green,hexagon
0.0,6.0,2.0,1.0,7.0,4.0,1818.1042368523777,1.0,1.0,part_3,go,0.0,0.0,0.0,132.0,3.0,176.0,220.0,264.0,132.0,44.0,88.0,cyan,cross
0.0,4.0,4.0,0.0,7.0,2.0,2804.2679640930146,1.0,1.0,part_3,go,0.0,0.0,0.0,264.0,6.0,176.0,264.0,132.0,220.0,88.0,44.0,orange,triangle
0.0,6.0,2.0,1.0,7.0,5.0,1729.8524209763857,1.0,1.0,part_3,go,0.0,0.0,0.0,195.0,5.0,156.0,78.0,234.0,117.0,195.0,39.0,cyan,cross
0.0,2.0,2.0,0.0,7.0,4.0,1477.29323618114,1.0,1.0,part_3,go,0.0,0.0,0.0,34.0,1.0,136.0,204.0,68.0,34.0,102.0,170.0,white,square
0.0,4.0,4.0,0.0,7.0,2.0,1907.890202011913,2.0,1.0,part_3,go,0.0,0.0,0.0,216.0,4.0,270.0,216.0,54.0,324.0,108.0,162.0,orange,triangle
0.0,8.0,4.0,1.0,7.0,5.0,1228.4513448830694,2.0,1.0,part_3,go,0.0,0.0,0.0,170.0,5.0,68.0,102.0,34.0,136.0,170.0,204.0,green,hexagon
0.0,7.0,3.0,1.0,7.0,2.0,2109.709020005539,2.0,1.0,part_3,go,0.0,0.0,0.0,294.0,6.0,49.0,294.0,196.0,98.0,245.0,147.0,yellow,diamond
0.0,8.0,4.0,1.0,7.0,6.0,1303.633837029338,2.0,1.0,part_3,go,0.0,0.0,0.0,245.0,5.0,98.0,294.0,147.0,49.0,196.0,245.0,green,hexagon
0.0,3.0,3.0,0.0,7.0,1.0,1744.66883786954,2.0,1.0,part_3,go,0.0,0.0,0.0,196.0,4.0,196.0,98.0,245.0,147.0,294.0,49.0,magenta,circle
0.0,5.0,1.0,1.0,7.0,3.0,1714.2478241585195,2.0,1.0,part_3,go,0.0,0.0,0.0,147.0,3.0,49.0,294.0,147.0,98.0,245.0,196.0,blue,flipped triangle
0.0,6.0,2.0,1.0,7.0,5.0,1668.0687270127237,2.0,1.0,part_3,go,0.0,0.0,0.0,216.0,4.0,270.0,162.0,108.0,324.0,216.0,54.0,cyan,cross
0.0,6.0,2.0,1.0,7.0,5.0,1020.8054529502988,2.0,1.0,part_3,go,0.0,0.0,0.0,132.0,3.0,88.0,44.0,220.0,176.0,132.0,264.0,cyan,cross
0.0,5.0,1.0,1.0,7.0,2.0,1852.4625280406328,2.0,1.0,part_3,go,0.0,0.0,0.0,234.0,6.0,195.0,234.0,78.0,39.0,156.0,117.0,blue,flipped triangle
0.0,8.0,4.0,1.0,7.0,2.0,1133.77407588996,2.0,1.0,part_3,go,0.0,0.0,0.0,264.0,6.0,44.0,264.0,220.0,176.0,132.0,88.0,green,hexagon
0.0,7.0,3.0,1.0,7.0,3.0,1312.9964750260117,2.0,1.0,part_3,go,0.0,0.0,0.0,220.0,5.0,88.0,44.0,220.0,132.0,176.0,264.0,yellow,diamond
0.0,2.0,2.0,0.0,7.0,6.0,2512.5954188406467,2.0,1.0,part_3,go,0.0,0.0,0.0,39.0,1.0,156.0,78.0,195.0,234.0,117.0,39.0,white,square
0.0,4.0,4.0,0.0,7.0,5.0,1312.7822568640113,2.0,1.0,part_3,go,0.0,0.0,0.0,108.0,2.0,324.0,216.0,54.0,270.0,108.0,162.0,orange,triangle
0.0,2.0,2.0,0.0,7.0,2.0,1710.0573470816016,2.0,1.0,part_3,go,0.0,0.0,0.0,78.0,2.0,156.0,78.0,117.0,39.0,234.0,195.0,white,square
0.0,1.0,1.0,0.0,7.0,1.0,2237.370023969561,2.0,1.0,part_3,go,0.0,0.0,0.0,54.0,1.0,54.0,270.0,324.0,162.0,216.0,108.0,gray,I
0.0,5.0,1.0,1.0,7.0,6.0,3223.2245698105544,2.0,1.0,part_3,go,0.0,0.0,0.0,204.0,6.0,136.0,68.0,170.0,102.0,34.0,204.0,blue,flipped triangle
0.0,8.0,4.0,1.0,7.0,5.0,745.5118619836867,2.0,1.0,part_3,go,0.0,0.0,0.0,216.0,4.0,54.0,108.0,270.0,162.0,216.0,324.0,green,hexagon
0.0,1.0,1.0,0.0,7.0,2.0,2243.074420141056,2.0,1.0,part_3,go,0.0,0.0,0.0,34.0,1.0,170.0,34.0,68.0,204.0,102.0,136.0,gray,I
0.0,4.0,4.0,0.0,7.0,3.0,2451.0315749794245,2.0,1.0,part_3,go,0.0,0.0,0.0,136.0,4.0,68.0,102.0,136.0,204.0,34.0,170.0,orange,triangle
0.0,6.0,2.0,1.0,7.0,3.0,1219.570501940325,2.0,1.0,part_3,go,0.0,0.0,0.0,204.0,6.0,102.0,68.0,204.0,170.0,136.0,34.0,cyan,cross
0.0,7.0,3.0,1.0,7.0,3.0,1212.053966941312,3.0,1.0,part_3,go,0.0,0.0,0.0,220.0,5.0,176.0,264.0,220.0,44.0,88.0,132.0,yellow,diamond
0.0,2.0,2.0,0.0,7.0,1.0,4080.4147641174495,3.0,1.0,part_3,go,0.0,0.0,0.0,108.0,2.0,108.0,162.0,54.0,216.0,324.0,270.0,white,square
0.0,3.0,3.0,0.0,7.0,2.0,1537.1392050292343,3.0,1.0,part_3,go,0.0,0.0,0.0,294.0,6.0,245.0,294.0,196.0,98.0,49.0,147.0,magenta,circle
0.0,5.0,1.0,1.0,7.0,3.0,1226.9642010796815,3.0,1.0,part_3,go,0.0,0.0,0.0,294.0,6.0,98.0,49.0,294.0,147.0,196.0,245.0,blue,flipped triangle
0.0,6.0,2.0,1.0,7.0,4.0,1372.485829051584,3.0,1.0,part_3,go,0.0,0.0,0.0,245.0,5.0,49.0,98.0,147.0,245.0,294.0,196.0,cyan,cross
0.0,5.0,1.0,1.0,7.0,3.0,2461.9464580900967,3.0,1.0,part_3,go,0.0,0.0,0.0,156.0,4.0,78.0,39.0,156.0,234.0,117.0,195.0,blue,flipped triangle
0.0,1.0,1.0,0.0,7.0,6.0,1713.003708049655,3.0,1.0,part_3,go,0.0,0.0,0.0,44.0,1.0,88.0,176.0,132.0,264.0,220.0,44.0,gray,I
0.0,3.0,3.0,0.0,7.0,6.0,2273.989784065634,3.0,1.0,part_3,go,0.0,0.0,0.0,220.0,5.0,132.0,264.0,88.0,44.0,176.0,220.0,magenta,circle
0.0,2.0,2.0,0.0,7.0,3.0,2157.454772852361,3.0,1.0,part_3,go,0.0,0.0,0.0,54.0,1.0,108.0,324.0,54.0,270.0,162.0,216.0,white,square
0.0,5.0,1.0,1.0,7.0,3.0,2389.155399985611,3.0,1.0,part_3,go,0.0,0.0,0.0,324.0,6.0,162.0,54.0,324.0,216.0,108.0,270.0,blue,flipped triangle
0.0,8.0,4.0,1.0,7.0,3.0,1006.9098121020943,3.0,1.0,part_3,go,0.0,0.0,0.0,162.0,3.0,54.0,324.0,162.0,270.0,108.0,216.0,green,hexagon
0.0,5.0,1.0,1.0,7.0,3.0,280.5793969891965,3.0,1.0,part_3,go,0.0,0.0,0.0,44.0,1.0,264.0,220.0,44.0,132.0,176.0,88.0,blue,flipped triangle
0.0,1.0,1.0,0.0,7.0,2.0,1991.8529149144888,3.0,1.0,part_3,go,0.0,0.0,0.0,39.0,1.0,234.0,39.0,195.0,117.0,156.0,78.0,gray,I
0.0,1.0,1.0,0.0,7.0,3.0,2119.973098859191,3.0,1.0,part_3,go,0.0,0.0,0.0,49.0,1.0,245.0,98.0,49.0,147.0,196.0,294.0,gray,I
0.0,1.0,1.0,0.0,7.0,1.0,2931.8687769118696,3.0,1.0,part_3,go,0.0,0.0,0.0,39.0,1.0,39.0,234.0,78.0,195.0,117.0,156.0,gray,I
0.0,8.0,4.0,1.0,7.0,5.0,2339.2469768878073,3.0,1.0,part_3,go,0.0,0.0,0.0,204.0,6.0,34.0,136.0,68.0,102.0,204.0,170.0,green,hexagon
0.0,8.0,4.0,1.0,7.0,6.0,4053.280340973288,3.0,1.0,part_3,go,0.0,0.0,0.0,220.0,5.0,44.0,88.0,132.0,176.0,264.0,220.0,green,hexagon
0.0,4.0,4.0,0.0,7.0,4.0,2316.8423438910395,3.0,1.0,part_3,go,0.0,0.0,0.0,170.0,5.0,102.0,34.0,68.0,170.0,204.0,136.0,orange,triangle
0.0,5.0,1.0,1.0,7.0,2.0,2053.561040898785,3.0,1.0,part_3,go,0.0,0.0,0.0,102.0,3.0,34.0,102.0,170.0,68.0,136.0,204.0,blue,flipped triangle
0.0,7.0,3.0,1.0,7.0,3.0,1628.6238199099898,3.0,1.0,part_3,go,0.0,0.0,0.0,196.0,4.0,49.0,294.0,196.0,98.0,245.0,147.0,yellow,diamond
0.0,2.0,2.0,0.0,7.0,4.0,2095.103807048872,4.0,1.0,part_3,go,0.0,0.0,0.0,98.0,2.0,49.0,294.0,196.0,98.0,245.0,147.0,white,square
0.0,3.0,3.0,0.0,7.0,4.0,2615.355967078358,4.0,1.0,part_3,go,0.0,0.0,0.0,132.0,3.0,264.0,220.0,88.0,132.0,176.0,44.0,magenta,circle
0.0,3.0,3.0,0.0,7.0,5.0,1608.6166980676353,4.0,1.0,part_3,go,0.0,0.0,0.0,156.0,4.0,78.0,117.0,234.0,39.0,156.0,195.0,magenta,circle
0.0,1.0,1.0,0.0,7.0,1.0,1996.307999128476,4.0,1.0,part_3,go,0.0,0.0,0.0,54.0,1.0,54.0,270.0,162.0,324.0,216.0,108.0,gray,I
0.0,1.0,1.0,0.0,7.0,3.0,2819.641361013055,4.0,1.0,part_3,go,0.0,0.0,0.0,49.0,1.0,294.0,196.0,49.0,98.0,147.0,245.0,gray,I
0.0,3.0,3.0,0.0,7.0,6.0,2284.157052868977,4.0,1.0,part_3,go,0.0,0.0,0.0,108.0,2.0,162.0,324.0,54.0,270.0,216.0,108.0,magenta,circle
0.0,4.0,4.0,0.0,7.0,1.0,3183.3332900423557,4.0,1.0,part_3,go,0.0,0.0,0.0,196.0,4.0,196.0,98.0,147.0,49.0,245.0,294.0,orange,triangle
0.0,5.0,1.0,1.0,7.0,2.0,1600.964351091534,4.0,1.0,part_3,go,0.0,0.0,0.0,270.0,5.0,54.0,270.0,216.0,108.0,162.0,324.0,blue,flipped triangle
0.0,2.0,2.0,0.0,7.0,2.0,1378.7450620438904,4.0,1.0,part_3,go,0.0,0.0,0.0,176.0,4.0,220.0,176.0,88.0,264.0,132.0,44.0,white,square
0.0,3.0,3.0,0.0,7.0,3.0,1561.4534569904208,4.0,1.0,part_3,go,0.0,0.0,0.0,270.0,5.0,54.0,324.0,270.0,216.0,162.0,108.0,magenta,circle
0.0,4.0,4.0,0.0,7.0,6.0,2090.8054711762816,4.0,1.0,part_3,go,0.0,0.0,0.0,245.0,5.0,49.0,294.0,196.0,147.0,98.0,245.0,orange,triangle
0.0,6.0,2.0,1.0,7.0,2.0,2286.5682640112936,4.0,1.0,part_3,go,0.0,0.0,0.0,147.0,3.0,49.0,147.0,245.0,196.0,294.0,98.0,cyan,cross
0.0,7.0,3.0,1.0,7.0,6.0,3565.791712142527,4.0,1.0,part_3,go,0.0,0.0,0.0,102.0,3.0,170.0,204.0,34.0,136.0,68.0,102.0,yellow,diamond
0.0,4.0,4.0,0.0,7.0,5.0,807.8570819925517,4.0,1.0,part_3,go,0.0,0.0,0.0,195.0,5.0,39.0,78.0,234.0,117.0,195.0,156.0,orange,triangle
0.0,7.0,3.0,1.0,7.0,4.0,794.2092509474605,4.0,1.0,part_3,go,0.0,0.0,0.0,324.0,6.0,216.0,108.0,270.0,324.0,54.0,162.0,yellow,diamond
0.0,6.0,2.0,1.0,7.0,4.0,779.5800899621099,4.0,1.0,part_3,go,0.0,0.0,0.0,108.0,2.0,216.0,162.0,270.0,108.0,324.0,54.0,cyan,cross
0.0,7.0,3.0,1.0,7.0,6.0,2715.828255051747,4.0,1.0,part_3,go,0.0,0.0,0.0,234.0,6.0,39.0,156.0,117.0,78.0,195.0,234.0,yellow,diamond
0.0,4.0,4.0,0.0,7.0,6.0,2085.477431071922,4.0,1.0,part_3,go,0.0,0.0,0.0,264.0,6.0,132.0,44.0,220.0,176.0,88.0,264.0,orange,triangle
0.0,4.0,4.0,0.0,7.0,4.0,2134.999893140048,4.0,1.0,part_3,go,0.0,0.0,0.0,117.0,3.0,234.0,78.0,156.0,117.0,195.0,39.0,orange,triangle
0.0,6.0,2.0,1.0,7.0,3.0,3063.4422719012946,4.0,1.0,part_3,go,0.0,0.0,0.0,234.0,6.0,117.0,78.0,234.0,39.0,156.0,195.0,cyan,cross
