raw_reward_magnitude,stim_reward,stepwise_reward_magnitude,paired_with_stopping,stim_location,response,reaction_time,block,num_trial_presentations,which_phase,stop_signal_trial_type,left_SSD,right_SSD,accuracy,chosen_bidding_amount,chosen_bidding_level,possible_bid_1,possible_bid_2,possible_bid_3,possible_bid_4,possible_bid_5,possible_bid_6,color_text,shape_text
175.0,3.0,2.0,0.0,1.0,1.0,703.7237109616399,1.0,1.0,phase_1,,,,,,,,,,,,,green,square
103.0,6.0,1.0,1.0,4.0,4.0,603.4739799797535,1.0,1.0,phase_1,,,,,,,,,,,,,yellow,hexagon
417.0,8.0,4.0,1.0,4.0,4.0,400.16731293872,1.0,1.0,phase_1,,,,,,,,,,,,,orange,circle
29.0,5.0,0.5,1.0,2.0,2.0,429.4338501058519,1.0,1.0,phase_1,,,,,,,,,,,,,blue,diamond
0.0,3.0,0.0,0.0,2.0,2.0,384.468937991187,1.0,1.0,phase_1,,,,,,,,,,,,,green,square
91.0,6.0,1.0,1.0,4.0,4.0,509.98105108737946,1.0,1.0,phase_1,,,,,,,,,,,,,yellow,hexagon
0.0,3.0,0.0,0.0,1.0,1.0,360.9730170574039,1.0,1.0,phase_1,,,,,,,,,,,,,green,square
417.0,8.0,4.0,1.0,2.0,2.0,464.5562418736517,1.0,1.0,phase_1,,,,,,,,,,,,,orange,circle
102.0,6.0,1.0,1.0,2.0,2.0,309.3498051166534,1.0,1.0,phase_1,,,,,,,,,,,,,yellow,hexagon
98.0,2.0,1.0,0.0,3.0,3.0,339.6316389553249,1.0,1.0,phase_1,,,,,,,,,,,,,white,cross
388.0,4.0,4.0,0.0,3.0,3.0,404.8796677961945,1.0,1.0,phase_1,,,,,,,,,,,,,gray,triangle
0.0,1.0,0.0,0.0,3.0,3.0,373.6655819229781,1.0,1.0,phase_1,,,,,,,,,,,,,cyan,flipped triangle
410.0,8.0,4.0,1.0,2.0,2.0,295.1425020582974,1.0,1.0,phase_1,,,,,,,,,,,,,orange,circle
0.0,2.0,0.0,0.0,3.0,3.0,362.6924329437315,1.0,1.0,phase_1,,,,,,,,,,,,,white,cross
94.0,2.0,1.0,0.0,1.0,1.0,265.0051368400454,1.0,1.0,phase_1,,,,,,,,,,,,,white,cross
179.0,7.0,2.0,1.0,4.0,4.0,406.4912630710751,1.0,1.0,phase_1,,,,,,,,,,,,,magenta,I
0.0,1.0,0.0,0.0,1.0,1.0,367.995565989986,1.0,1.0,phase_1,,,,,,,,,,,,,cyan,flipped triangle
388.0,4.0,4.0,0.0,2.0,2.0,589.741850970313,1.0,1.0,phase_1,,,,,,,,,,,,,gray,triangle
112.0,6.0,1.0,1.0,3.0,3.0,517.2265870496631,1.0,1.0,phase_1,,,,,,,,,,,,,yellow,hexagon
81.0,2.0,1.0,0.0,2.0,2.0,265.864891000092,1.0,1.0,phase_1,,,,,,,,,,,,,white,cross
111.0,2.0,1.0,0.0,4.0,4.0,270.0176180806011,1.0,1.0,phase_1,,,,,,,,,,,,,white,cross
0.0,7.0,0.0,1.0,4.0,4.0,361.1969901248812,1.0,1.0,phase_1,,,,,,,,,,,,,magenta,I
0.0,7.0,0.0,1.0,2.0,2.0,285.1437060162425,1.0,1.0,phase_1,,,,,,,,,,,,,magenta,I
42.0,5.0,0.5,1.0,4.0,4.0,300.2773560583591,1.0,1.0,phase_1,,,,,,,,,,,,,blue,diamond
415.0,8.0,4.0,1.0,3.0,3.0,365.9355579875409,1.0,2.0,phase_1,,,,,,,,,,,,,orange,circle
0.0,5.0,0.0,1.0,2.0,2.0,271.9962480477988,1.0,1.0,phase_1,,,,,,,,,,,,,blue,diamond
64.0,1.0,0.5,0.0,2.0,2.0,317.1329589094966,1.0,1.0,phase_1,,,,,,,,,,,,,cyan,flipped triangle
205.0,7.0,2.0,1.0,2.0,2.0,264.5760311279446,1.0,1.0,phase_1,,,,,,,,,,,,,magenta,I
203.0,3.0,2.0,0.0,2.0,2.0,230.9406909625977,1.0,1.0,phase_1,,,,,,,,,,,,,green,square
78.0,2.0,1.0,0.0,1.0,1.0,576.7791180405766,1.0,2.0,phase_1,,,,,,,,,,,,,white,cross
53.0,1.0,0.5,0.0,3.0,3.0,492.9333571344614,1.0,1.0,phase_1,,,,,,,,,,,,,cyan,flipped triangle
385.0,8.0,4.0,1.0,1.0,1.0,443.5372871812433,1.0,1.0,phase_1,,,,,,,,,,,,,orange,circle
94.0,6.0,1.0,1.0,2.0,2.0,292.4701799638569,1.0,1.0,phase_1,,,,,,,,,,,,,yellow,hexagon
68.0,5.0,0.5,1.0,1.0,1.0,249.5167071465402,1.0,1.0,phase_1,,,,,,,,,,,,,blue,diamond
27.0,1.0,0.5,0.0,4.0,4.0,313.0156078841537,1.0,1.0,phase_1,,,,,,,,,,,,,cyan,flipped triangle
0.0,6.0,0.0,1.0,3.0,3.0,496.2372018489986,1.0,2.0,phase_1,,,,,,,,,,,,,yellow,hexagon
0.0,3.0,0.0,0.0,3.0,3.0,380.2302239928394,1.0,1.0,phase_1,,,,,,,,,,,,,green,square
66.0,5.0,0.5,1.0,2.0,2.0,363.8535181526094,1.0,1.0,phase_1,,,,,,,,,,,,,blue,diamond
404.0,4.0,4.0,0.0,3.0,3.0,384.678163100034,1.0,1.0,phase_1,,,,,,,,,,,,,gray,triangle
204.0,7.0,2.0,1.0,2.0,2.0,302.3390658199787,1.0,2.0,phase_1,,,,,,,,,,,,,magenta,I
0.0,5.0,0.0,1.0,4.0,4.0,302.1695520728826,1.0,1.0,phase_1,,,,,,,,,,,,,blue,diamond
81.0,2.0,1.0,0.0,3.0,3.0,282.7632811386138,1.0,1.0,phase_1,,,,,,,,,,,,,white,cross
0.0,1.0,0.0,0.0,3.0,3.0,286.3856670446694,1.0,1.0,phase_1,,,,,,,,,,,,,cyan,flipped triangle
180.0,3.0,2.0,0.0,4.0,4.0,557.5510589405894,1.0,1.0,phase_1,,,,,,,,,,,,,green,square
213.0,7.0,2.0,1.0,1.0,1.0,406.5694129094481,1.0,2.0,phase_1,,,,,,,,,,,,,magenta,I
90.0,2.0,1.0,0.0,4.0,4.0,281.8558011204004,1.0,1.0,phase_1,,,,,,,,,,,,,white,cross
98.0,2.0,1.0,0.0,4.0,4.0,292.7528109867126,1.0,1.0,phase_1,,,,,,,,,,,,,white,cross
385.0,4.0,4.0,0.0,3.0,3.0,338.1072620395571,1.0,1.0,phase_1,,,,,,,,,,,,,gray,triangle
104.0,2.0,1.0,0.0,2.0,2.0,293.9586630091071,1.0,1.0,phase_1,,,,,,,,,,,,,white,cross
405.0,4.0,4.0,0.0,3.0,3.0,319.5148140657693,1.0,2.0,phase_1,,,,,,,,,,,,,gray,triangle
383.0,8.0,4.0,1.0,2.0,2.0,279.2943690437823,1.0,1.0,phase_1,,,,,,,,,,,,,orange,circle
421.0,8.0,4.0,1.0,1.0,1.0,333.7233460042625,1.0,2.0,phase_1,,,,,,,,,,,,,orange,circle
200.0,3.0,2.0,0.0,3.0,3.0,421.8076739925891,1.0,1.0,phase_1,,,,,,,,,,,,,green,square
184.0,7.0,2.0,1.0,3.0,3.0,302.7313770726323,1.0,1.0,phase_1,,,,,,,,,,,,,magenta,I
0.0,2.0,0.0,0.0,3.0,3.0,253.4465219359845,1.0,1.0,phase_1,,,,,,,,,,,,,white,cross
422.0,4.0,4.0,0.0,1.0,1.0,320.4535678960383,1.0,1.0,phase_1,,,,,,,,,,,,,gray,triangle
390.0,4.0,4.0,0.0,3.0,3.0,302.1446019411087,1.0,1.0,phase_1,,,,,,,,,,,,,gray,triangle
0.0,7.0,0.0,1.0,4.0,4.0,266.1077289376408,1.0,1.0,phase_1,,,,,,,,,,,,,magenta,I
197.0,7.0,2.0,1.0,4.0,4.0,424.3072629906237,1.0,1.0,phase_1,,,,,,,,,,,,,magenta,I
204.0,7.0,2.0,1.0,2.0,2.0,274.0803640335798,1.0,1.0,phase_1,,,,,,,,,,,,,magenta,I
199.0,3.0,2.0,0.0,4.0,4.0,257.9085929319262,1.0,1.0,phase_1,,,,,,,,,,,,,green,square
54.0,5.0,0.5,1.0,3.0,3.0,326.8108158372342,1.0,1.0,phase_1,,,,,,,,,,,,,blue,diamond
53.0,5.0,0.5,1.0,3.0,3.0,428.4228468313813,1.0,1.0,phase_1,,,,,,,,,,,,,blue,diamond
384.0,8.0,4.0,1.0,4.0,4.0,257.16593209654087,1.0,1.0,phase_1,,,,,,,,,,,,,orange,circle
51.0,5.0,0.5,1.0,1.0,1.0,267.3932190518826,1.0,3.0,phase_1,,,,,,,,,,,,,blue,diamond
395.0,8.0,4.0,1.0,2.0,2.0,331.7534278612584,1.0,1.0,phase_1,,,,,,,,,,,,,orange,circle
422.0,4.0,4.0,0.0,2.0,2.0,303.0805080197751,1.0,1.0,phase_1,,,,,,,,,,,,,gray,triangle
0.0,3.0,0.0,0.0,4.0,4.0,323.4191162046045,1.0,1.0,phase_1,,,,,,,,,,,,,green,square
206.0,7.0,2.0,1.0,1.0,1.0,305.9707381762564,1.0,1.0,phase_1,,,,,,,,,,,,,magenta,I
201.0,3.0,2.0,0.0,3.0,3.0,363.5566788725555,1.0,1.0,phase_1,,,,,,,,,,,,,green,square
111.0,6.0,1.0,1.0,1.0,1.0,396.8460820615291,1.0,2.0,phase_1,,,,,,,,,,,,,yellow,hexagon
415.0,4.0,4.0,0.0,2.0,2.0,352.3586199153214,1.0,1.0,phase_1,,,,,,,,,,,,,gray,triangle
0.0,1.0,0.0,0.0,2.0,2.0,333.2166869658977,1.0,1.0,phase_1,,,,,,,,,,,,,cyan,flipped triangle
197.0,3.0,2.0,0.0,2.0,2.0,242.7852638065815,1.0,1.0,phase_1,,,,,,,,,,,,,green,square
0.0,4.0,0.0,0.0,2.0,2.0,368.920483160764,1.0,1.0,phase_1,,,,,,,,,,,,,gray,triangle
67.0,5.0,0.5,1.0,3.0,3.0,316.5336260572076,1.0,1.0,phase_1,,,,,,,,,,,,,blue,diamond
203.0,7.0,2.0,1.0,2.0,2.0,255.9098599012941,1.0,1.0,phase_1,,,,,,,,,,,,,magenta,I
98.0,6.0,1.0,1.0,4.0,4.0,293.6151120811701,1.0,1.0,phase_1,,,,,,,,,,,,,yellow,hexagon
217.0,3.0,2.0,0.0,4.0,4.0,363.4532978758216,1.0,1.0,phase_1,,,,,,,,,,,,,green,square
409.0,8.0,4.0,1.0,3.0,3.0,479.3730811215937,1.0,2.0,phase_1,,,,,,,,,,,,,orange,circle
0.0,5.0,0.0,1.0,1.0,1.0,296.9943040516227,1.0,1.0,phase_1,,,,,,,,,,,,,blue,diamond
63.0,1.0,0.5,0.0,3.0,3.0,285.0695489905774,1.0,1.0,phase_1,,,,,,,,,,,,,cyan,flipped triangle
0.0,2.0,0.0,0.0,1.0,1.0,437.0736239943653,1.0,1.0,phase_1,,,,,,,,,,,,,white,cross
417.0,4.0,4.0,0.0,1.0,1.0,316.548588918522,1.0,2.0,phase_1,,,,,,,,,,,,,gray,triangle
0.0,1.0,0.0,0.0,2.0,2.0,371.0594780277461,1.0,1.0,phase_1,,,,,,,,,,,,,cyan,flipped triangle
0.0,5.0,0.0,1.0,3.0,3.0,294.9588641058653,1.0,1.0,phase_1,,,,,,,,,,,,,blue,diamond
37.0,5.0,0.5,1.0,2.0,2.0,276.2530490290373,1.0,1.0,phase_1,,,,,,,,,,,,,blue,diamond
0.0,7.0,0.0,1.0,4.0,4.0,368.2264981325716,1.0,1.0,phase_1,,,,,,,,,,,,,magenta,I
55.0,5.0,0.5,1.0,2.0,2.0,301.6456479672342,1.0,1.0,phase_1,,,,,,,,,,,,,blue,diamond
116.0,6.0,1.0,1.0,1.0,1.0,322.7069498971104,1.0,1.0,phase_1,,,,,,,,,,,,,yellow,hexagon
179.0,3.0,2.0,0.0,2.0,2.0,331.4844581764191,1.0,1.0,phase_1,,,,,,,,,,,,,green,square
0.0,8.0,0.0,1.0,4.0,4.0,483.0687649082392,1.0,1.0,phase_1,,,,,,,,,,,,,orange,circle
195.0,3.0,2.0,0.0,3.0,3.0,385.5663030408323,1.0,2.0,phase_1,,,,,,,,,,,,,green,square
405.0,8.0,4.0,1.0,2.0,2.0,294.1004598978907,1.0,1.0,phase_1,,,,,,,,,,,,,orange,circle
0.0,5.0,0.0,1.0,4.0,4.0,304.3725038878619,1.0,2.0,phase_1,,,,,,,,,,,,,blue,diamond
54.0,1.0,0.5,0.0,4.0,4.0,300.4942070692777,1.0,1.0,phase_1,,,,,,,,,,,,,cyan,flipped triangle
113.0,6.0,1.0,1.0,2.0,2.0,301.1018079705536,1.0,2.0,phase_1,,,,,,,,,,,,,yellow,hexagon
57.0,1.0,0.5,0.0,4.0,4.0,290.7059809658676,1.0,1.0,phase_1,,,,,,,,,,,,,cyan,flipped triangle
88.0,6.0,1.0,1.0,1.0,1.0,351.0216430295259,1.0,1.0,phase_1,,,,,,,,,,,,,yellow,hexagon
34.0,1.0,0.5,0.0,3.0,3.0,327.7682620100677,1.0,1.0,phase_1,,,,,,,,,,,,,cyan,flipped triangle
391.0,8.0,4.0,1.0,3.0,3.0,391.8505678884685,2.0,2.0,phase_1,,,,,,,,,,,,,orange,circle
209.0,3.0,2.0,0.0,1.0,1.0,433.9503210503608,2.0,1.0,phase_1,,,,,,,,,,,,,green,square
179.0,7.0,2.0,1.0,4.0,4.0,342.6539578940719,2.0,1.0,phase_1,,,,,,,,,,,,,magenta,I
76.0,2.0,1.0,0.0,1.0,1.0,393.2582549750805,2.0,2.0,phase_1,,,,,,,,,,,,,white,cross
185.0,7.0,2.0,1.0,4.0,4.0,293.6445721425116,2.0,1.0,phase_1,,,,,,,,,,,,,magenta,I
55.0,1.0,0.5,0.0,1.0,1.0,356.9722259417176,2.0,1.0,phase_1,,,,,,,,,,,,,cyan,flipped triangle
0.0,3.0,0.0,0.0,4.0,4.0,424.1971729788929,2.0,1.0,phase_1,,,,,,,,,,,,,green,square
112.0,2.0,1.0,0.0,3.0,3.0,387.3151990119368,2.0,1.0,phase_1,,,,,,,,,,,,,white,cross
378.0,8.0,4.0,1.0,1.0,1.0,312.1006800793111,2.0,1.0,phase_1,,,,,,,,,,,,,orange,circle
74.0,1.0,0.5,0.0,1.0,1.0,349.2922859732061,2.0,1.0,phase_1,,,,,,,,,,,,,cyan,flipped triangle
103.0,2.0,1.0,0.0,2.0,2.0,346.8488671351224,2.0,1.0,phase_1,,,,,,,,,,,,,white,cross
35.0,1.0,0.5,0.0,2.0,2.0,276.3069521170109,2.0,1.0,phase_1,,,,,,,,,,,,,cyan,flipped triangle
391.0,4.0,4.0,0.0,4.0,4.0,330.3114720620215,2.0,1.0,phase_1,,,,,,,,,,,,,gray,triangle
423.0,8.0,4.0,1.0,3.0,3.0,326.2411649338901,2.0,1.0,phase_1,,,,,,,,,,,,,orange,circle
415.0,8.0,4.0,1.0,3.0,3.0,370.7683619577437,2.0,2.0,phase_1,,,,,,,,,,,,,orange,circle
0.0,4.0,0.0,0.0,1.0,1.0,326.4195660594851,2.0,1.0,phase_1,,,,,,,,,,,,,gray,triangle
395.0,4.0,4.0,0.0,2.0,2.0,304.8714550677687,2.0,1.0,phase_1,,,,,,,,,,,,,gray,triangle
0.0,8.0,0.0,1.0,2.0,2.0,313.0852228496223,2.0,1.0,phase_1,,,,,,,,,,,,,orange,circle
409.0,8.0,4.0,1.0,1.0,1.0,290.2950660791248,2.0,1.0,phase_1,,,,,,,,,,,,,orange,circle
408.0,4.0,4.0,0.0,3.0,3.0,408.8032019790262,2.0,1.0,phase_1,,,,,,,,,,,,,gray,triangle
34.0,5.0,0.5,1.0,2.0,2.0,279.6639411244541,2.0,1.0,phase_1,,,,,,,,,,,,,blue,diamond
191.0,3.0,2.0,0.0,2.0,2.0,300.4983479622751,2.0,1.0,phase_1,,,,,,,,,,,,,green,square
0.0,5.0,0.0,1.0,4.0,4.0,375.9283351246267,2.0,1.0,phase_1,,,,,,,,,,,,,blue,diamond
380.0,4.0,4.0,0.0,1.0,1.0,405.2946551237255,2.0,1.0,phase_1,,,,,,,,,,,,,gray,triangle
74.0,5.0,0.5,1.0,1.0,1.0,297.9072560556233,2.0,1.0,phase_1,,,,,,,,,,,,,blue,diamond
208.0,7.0,2.0,1.0,3.0,3.0,381.2891128472984,2.0,1.0,phase_1,,,,,,,,,,,,,magenta,I
210.0,3.0,2.0,0.0,1.0,1.0,332.1827510371804,2.0,1.0,phase_1,,,,,,,,,,,,,green,square
199.0,7.0,2.0,1.0,2.0,2.0,284.4386131037026,2.0,1.0,phase_1,,,,,,,,,,,,,magenta,I
219.0,3.0,2.0,0.0,4.0,4.0,365.3252150397748,2.0,1.0,phase_1,,,,,,,,,,,,,green,square
0.0,5.0,0.0,1.0,4.0,4.0,306.4528498798609,2.0,1.0,phase_1,,,,,,,,,,,,,blue,diamond
111.0,6.0,1.0,1.0,3.0,3.0,354.7323350794613,2.0,1.0,phase_1,,,,,,,,,,,,,yellow,hexagon
422.0,8.0,4.0,1.0,1.0,1.0,330.3313059732318,2.0,1.0,phase_1,,,,,,,,,,,,,orange,circle
0.0,7.0,0.0,1.0,4.0,4.0,326.932119205594,2.0,1.0,phase_1,,,,,,,,,,,,,magenta,I
0.0,3.0,0.0,0.0,2.0,2.0,307.9920830205083,2.0,1.0,phase_1,,,,,,,,,,,,,green,square
0.0,6.0,0.0,1.0,3.0,3.0,296.2309729773551,2.0,1.0,phase_1,,,,,,,,,,,,,yellow,hexagon
118.0,6.0,1.0,1.0,4.0,4.0,316.5338668040931,2.0,1.0,phase_1,,,,,,,,,,,,,yellow,hexagon
0.0,4.0,0.0,0.0,3.0,3.0,327.1239639725536,2.0,1.0,phase_1,,,,,,,,,,,,,gray,triangle
188.0,3.0,2.0,0.0,2.0,2.0,279.5575570780784,2.0,1.0,phase_1,,,,,,,,,,,,,green,square
219.0,7.0,2.0,1.0,3.0,3.0,283.1793301738798,2.0,1.0,phase_1,,,,,,,,,,,,,magenta,I
383.0,4.0,4.0,0.0,4.0,4.0,295.9894181694835,2.0,1.0,phase_1,,,,,,,,,,,,,gray,triangle
207.0,3.0,2.0,0.0,3.0,3.0,309.8308520857245,2.0,1.0,phase_1,,,,,,,,,,,,,green,square
29.0,1.0,0.5,0.0,4.0,4.0,234.5263850875198,2.0,1.0,phase_1,,,,,,,,,,,,,cyan,flipped triangle
399.0,8.0,4.0,1.0,3.0,3.0,259.2489852104336,2.0,1.0,phase_1,,,,,,,,,,,,,orange,circle
0.0,8.0,0.0,1.0,3.0,3.0,288.6231748852879,2.0,1.0,phase_1,,,,,,,,,,,,,orange,circle
60.0,5.0,0.5,1.0,2.0,2.0,349.9684850685298,2.0,1.0,phase_1,,,,,,,,,,,,,blue,diamond
0.0,8.0,0.0,1.0,1.0,1.0,329.817826859653,2.0,2.0,phase_1,,,,,,,,,,,,,orange,circle
101.0,2.0,1.0,0.0,2.0,2.0,244.1541031002998,2.0,1.0,phase_1,,,,,,,,,,,,,white,cross
78.0,6.0,1.0,1.0,1.0,1.0,313.9950549229979,2.0,1.0,phase_1,,,,,,,,,,,,,yellow,hexagon
378.0,4.0,4.0,0.0,1.0,1.0,342.2936329152435,2.0,1.0,phase_1,,,,,,,,,,,,,gray,triangle
102.0,2.0,1.0,0.0,4.0,4.0,348.4716708771884,2.0,1.0,phase_1,,,,,,,,,,,,,white,cross
98.0,6.0,1.0,1.0,1.0,1.0,487.312592100352,2.0,1.0,phase_1,,,,,,,,,,,,,yellow,hexagon
388.0,8.0,4.0,1.0,4.0,4.0,290.1413310319185,2.0,1.0,phase_1,,,,,,,,,,,,,orange,circle
0.0,8.0,0.0,1.0,1.0,1.0,263.6959750670939,2.0,1.0,phase_1,,,,,,,,,,,,,orange,circle
112.0,6.0,1.0,1.0,2.0,2.0,319.1992950160056,2.0,1.0,phase_1,,,,,,,,,,,,,yellow,hexagon
67.0,1.0,0.5,0.0,2.0,2.0,275.8637531660497,2.0,1.0,phase_1,,,,,,,,,,,,,cyan,flipped triangle
64.0,5.0,0.5,1.0,3.0,3.0,355.8998920489102,2.0,2.0,phase_1,,,,,,,,,,,,,blue,diamond
0.0,8.0,0.0,1.0,1.0,1.0,335.2323300205171,2.0,1.0,phase_1,,,,,,,,,,,,,orange,circle
220.0,7.0,2.0,1.0,1.0,1.0,549.6931590605527,2.0,1.0,phase_1,,,,,,,,,,,,,magenta,I
0.0,7.0,0.0,1.0,3.0,3.0,303.1645428854972,2.0,1.0,phase_1,,,,,,,,,,,,,magenta,I
40.0,1.0,0.5,0.0,4.0,4.0,350.8477881550789,2.0,1.0,phase_1,,,,,,,,,,,,,cyan,flipped triangle
410.0,4.0,4.0,0.0,2.0,2.0,356.0246329288929,2.0,1.0,phase_1,,,,,,,,,,,,,gray,triangle
401.0,8.0,4.0,1.0,3.0,3.0,471.57498821616167,2.0,1.0,phase_1,,,,,,,,,,,,,orange,circle
48.0,5.0,0.5,1.0,1.0,1.0,299.1736689582467,2.0,1.0,phase_1,,,,,,,,,,,,,blue,diamond
34.0,5.0,0.5,1.0,1.0,1.0,329.2735749855637,2.0,1.0,phase_1,,,,,,,,,,,,,blue,diamond
108.0,2.0,1.0,0.0,4.0,4.0,327.0165789872408,2.0,1.0,phase_1,,,,,,,,,,,,,white,cross
70.0,1.0,0.5,0.0,4.0,4.0,388.282384024933,2.0,1.0,phase_1,,,,,,,,,,,,,cyan,flipped triangle
397.0,4.0,4.0,0.0,4.0,4.0,319.9796839617193,2.0,1.0,phase_1,,,,,,,,,,,,,gray,triangle
215.0,7.0,2.0,1.0,1.0,1.0,362.6091689802706,2.0,1.0,phase_1,,,,,,,,,,,,,magenta,I
200.0,7.0,2.0,1.0,3.0,3.0,384.3529750593006,2.0,1.0,phase_1,,,,,,,,,,,,,magenta,I
0.0,2.0,0.0,0.0,3.0,3.0,483.8295788504183,2.0,1.0,phase_1,,,,,,,,,,,,,white,cross
216.0,3.0,2.0,0.0,1.0,1.0,368.0242700502276,2.0,1.0,phase_1,,,,,,,,,,,,,green,square
399.0,4.0,4.0,0.0,2.0,2.0,429.9425741191953,2.0,1.0,phase_1,,,,,,,,,,,,,gray,triangle
74.0,1.0,0.5,0.0,4.0,4.0,322.5580279249698,2.0,1.0,phase_1,,,,,,,,,,,,,cyan,flipped triangle
407.0,4.0,4.0,0.0,1.0,1.0,414.3977130297571,2.0,1.0,phase_1,,,,,,,,,,,,,gray,triangle
118.0,2.0,1.0,0.0,3.0,3.0,364.5808878354728,2.0,1.0,phase_1,,,,,,,,,,,,,white,cross
401.0,4.0,4.0,0.0,1.0,1.0,257.2471629828214,2.0,1.0,phase_1,,,,,,,,,,,,,gray,triangle
204.0,3.0,2.0,0.0,2.0,2.0,318.1630407925695,2.0,1.0,phase_1,,,,,,,,,,,,,green,square
64.0,1.0,0.5,0.0,1.0,1.0,313.2897261530161,2.0,1.0,phase_1,,,,,,,,,,,,,cyan,flipped triangle
88.0,2.0,1.0,0.0,2.0,2.0,286.1508668866008,2.0,1.0,phase_1,,,,,,,,,,,,,white,cross
95.0,2.0,1.0,0.0,4.0,4.0,306.2719739973545,2.0,1.0,phase_1,,,,,,,,,,,,,white,cross
0.0,7.0,0.0,1.0,3.0,3.0,306.7459319718182,2.0,1.0,phase_1,,,,,,,,,,,,,magenta,I
0.0,1.0,0.0,0.0,2.0,2.0,299.1816231515258,2.0,1.0,phase_1,,,,,,,,,,,,,cyan,flipped triangle
48.0,1.0,0.5,0.0,3.0,3.0,355.5718418210745,2.0,1.0,phase_1,,,,,,,,,,,,,cyan,flipped triangle
47.0,5.0,0.5,1.0,3.0,3.0,295.17831816338,2.0,1.0,phase_1,,,,,,,,,,,,,blue,diamond
191.0,3.0,2.0,0.0,2.0,2.0,296.916828956455,2.0,1.0,phase_1,,,,,,,,,,,,,green,square
417.0,4.0,4.0,0.0,4.0,4.0,274.0879440680146,2.0,1.0,phase_1,,,,,,,,,,,,,gray,triangle
203.0,3.0,2.0,0.0,3.0,3.0,331.1589430086314,2.0,1.0,phase_1,,,,,,,,,,,,,green,square
99.0,2.0,1.0,0.0,2.0,2.0,290.7529899384826,2.0,1.0,phase_1,,,,,,,,,,,,,white,cross
0.0,4.0,0.0,0.0,4.0,4.0,269.3971749395132,2.0,1.0,phase_1,,,,,,,,,,,,,gray,triangle
63.0,5.0,0.5,1.0,4.0,4.0,332.8871300909668,2.0,1.0,phase_1,,,,,,,,,,,,,blue,diamond
92.0,2.0,1.0,0.0,3.0,3.0,319.9283350259065,2.0,1.0,phase_1,,,,,,,,,,,,,white,cross
0.0,5.0,0.0,1.0,2.0,2.0,293.9841749612242,2.0,1.0,phase_1,,,,,,,,,,,,,blue,diamond
33.0,5.0,0.5,1.0,3.0,3.0,376.4304211363196,2.0,1.0,phase_1,,,,,,,,,,,,,blue,diamond
28.0,1.0,0.5,0.0,4.0,4.0,283.575383014977,2.0,1.0,phase_1,,,,,,,,,,,,,cyan,flipped triangle
422.0,8.0,4.0,1.0,1.0,1.0,385.5080178473145,2.0,1.0,phase_1,,,,,,,,,,,,,orange,circle
66.0,5.0,0.5,1.0,1.0,1.0,462.3595599550754,2.0,1.0,phase_1,,,,,,,,,,,,,blue,diamond
74.0,5.0,0.5,1.0,4.0,4.0,307.1739980950951,2.0,1.0,phase_1,,,,,,,,,,,,,blue,diamond
223.0,3.0,2.0,0.0,2.0,2.0,279.4967880472541,2.0,1.0,phase_1,,,,,,,,,,,,,green,square
31.0,5.0,0.5,1.0,4.0,4.0,302.660813787952,2.0,1.0,phase_1,,,,,,,,,,,,,blue,diamond
74.0,1.0,0.5,0.0,2.0,2.0,298.9338249899447,2.0,1.0,phase_1,,,,,,,,,,,,,cyan,flipped triangle
382.0,8.0,4.0,1.0,4.0,4.0,364.6006400231272,3.0,1.0,phase_1,,,,,,,,,,,,,orange,circle
222.0,3.0,2.0,0.0,1.0,1.0,314.518332015723,3.0,1.0,phase_1,,,,,,,,,,,,,green,square
192.0,3.0,2.0,0.0,4.0,4.0,306.005764985457,3.0,1.0,phase_1,,,,,,,,,,,,,green,square
409.0,8.0,4.0,1.0,3.0,3.0,327.1850999444723,3.0,1.0,phase_1,,,,,,,,,,,,,orange,circle
0.0,6.0,0.0,1.0,4.0,4.0,282.6545280404389,3.0,1.0,phase_1,,,,,,,,,,,,,yellow,hexagon
421.0,4.0,4.0,0.0,3.0,3.0,351.718588033691,3.0,1.0,phase_1,,,,,,,,,,,,,gray,triangle
91.0,2.0,1.0,0.0,1.0,1.0,396.3723019696772,3.0,1.0,phase_1,,,,,,,,,,,,,white,cross
210.0,7.0,2.0,1.0,1.0,1.0,379.2435911018401,3.0,2.0,phase_1,,,,,,,,,,,,,magenta,I
186.0,3.0,2.0,0.0,1.0,1.0,394.6434841491282,3.0,1.0,phase_1,,,,,,,,,,,,,green,square
0.0,3.0,0.0,0.0,3.0,3.0,331.6826000809669,3.0,1.0,phase_1,,,,,,,,,,,,,green,square
42.0,1.0,0.5,0.0,2.0,2.0,272.4335249513387,3.0,1.0,phase_1,,,,,,,,,,,,,cyan,flipped triangle
0.0,8.0,0.0,1.0,3.0,3.0,336.1105460207909,3.0,1.0,phase_1,,,,,,,,,,,,,orange,circle
60.0,1.0,0.5,0.0,3.0,3.0,315.2725209947675,3.0,1.0,phase_1,,,,,,,,,,,,,cyan,flipped triangle
380.0,8.0,4.0,1.0,4.0,4.0,470.5878822132945,3.0,1.0,phase_1,,,,,,,,,,,,,orange,circle
59.0,5.0,0.5,1.0,4.0,4.0,348.853011848405,3.0,1.0,phase_1,,,,,,,,,,,,,blue,diamond
0.0,6.0,0.0,1.0,1.0,1.0,298.1336740776896,3.0,1.0,phase_1,,,,,,,,,,,,,yellow,hexagon
207.0,7.0,2.0,1.0,2.0,2.0,278.3085380215198,3.0,1.0,phase_1,,,,,,,,,,,,,magenta,I
0.0,2.0,0.0,0.0,3.0,3.0,282.6633651275188,3.0,1.0,phase_1,,,,,,,,,,,,,white,cross
108.0,6.0,1.0,1.0,3.0,3.0,257.8327190130949,3.0,1.0,phase_1,,,,,,,,,,,,,yellow,hexagon
0.0,6.0,0.0,1.0,4.0,4.0,314.5115589722991,3.0,1.0,phase_1,,,,,,,,,,,,,yellow,hexagon
26.0,1.0,0.5,0.0,4.0,4.0,298.8895289599895,3.0,1.0,phase_1,,,,,,,,,,,,,cyan,flipped triangle
415.0,4.0,4.0,0.0,1.0,1.0,303.3246931154281,3.0,1.0,phase_1,,,,,,,,,,,,,gray,triangle
0.0,4.0,0.0,0.0,2.0,2.0,307.1394809521734,3.0,1.0,phase_1,,,,,,,,,,,,,gray,triangle
42.0,5.0,0.5,1.0,2.0,2.0,268.8490080181509,3.0,1.0,phase_1,,,,,,,,,,,,,blue,diamond
404.0,8.0,4.0,1.0,2.0,2.0,265.5404529068619,3.0,1.0,phase_1,,,,,,,,,,,,,orange,circle
217.0,3.0,2.0,0.0,1.0,1.0,410.7908138539642,3.0,1.0,phase_1,,,,,,,,,,,,,green,square
423.0,4.0,4.0,0.0,1.0,1.0,300.58383801952,3.0,1.0,phase_1,,,,,,,,,,,,,gray,triangle
0.0,1.0,0.0,0.0,3.0,3.0,331.3672598451376,3.0,1.0,phase_1,,,,,,,,,,,,,cyan,flipped triangle
377.0,4.0,4.0,0.0,2.0,2.0,285.3895300067961,3.0,1.0,phase_1,,,,,,,,,,,,,gray,triangle
222.0,7.0,2.0,1.0,4.0,4.0,321.5682660229504,3.0,1.0,phase_1,,,,,,,,,,,,,magenta,I
51.0,1.0,0.5,0.0,3.0,3.0,300.2981410827487,3.0,2.0,phase_1,,,,,,,,,,,,,cyan,flipped triangle
0.0,8.0,0.0,1.0,2.0,2.0,368.3332439977675,3.0,1.0,phase_1,,,,,,,,,,,,,orange,circle
409.0,4.0,4.0,0.0,4.0,4.0,301.6530720051378,3.0,1.0,phase_1,,,,,,,,,,,,,gray,triangle
121.0,6.0,1.0,1.0,2.0,2.0,314.6327692084014,3.0,1.0,phase_1,,,,,,,,,,,,,yellow,hexagon
0.0,4.0,0.0,0.0,3.0,3.0,368.4742541518062,3.0,1.0,phase_1,,,,,,,,,,,,,gray,triangle
92.0,6.0,1.0,1.0,2.0,2.0,268.6190670356154,3.0,1.0,phase_1,,,,,,,,,,,,,yellow,hexagon
179.0,3.0,2.0,0.0,4.0,4.0,297.8455310221761,3.0,1.0,phase_1,,,,,,,,,,,,,green,square
110.0,6.0,1.0,1.0,3.0,3.0,309.0279609896242,3.0,1.0,phase_1,,,,,,,,,,,,,yellow,hexagon
0.0,2.0,0.0,0.0,4.0,4.0,355.4414790123701,3.0,1.0,phase_1,,,,,,,,,,,,,white,cross
217.0,7.0,2.0,1.0,1.0,1.0,301.9639658741653,3.0,1.0,phase_1,,,,,,,,,,,,,magenta,I
101.0,6.0,1.0,1.0,1.0,1.0,357.440321939066,3.0,1.0,phase_1,,,,,,,,,,,,,yellow,hexagon
29.0,5.0,0.5,1.0,3.0,3.0,370.0835709460079,3.0,1.0,phase_1,,,,,,,,,,,,,blue,diamond
90.0,6.0,1.0,1.0,4.0,4.0,299.2631788365543,3.0,1.0,phase_1,,,,,,,,,,,,,yellow,hexagon
99.0,6.0,1.0,1.0,4.0,4.0,290.5154728796333,3.0,1.0,phase_1,,,,,,,,,,,,,yellow,hexagon
188.0,7.0,2.0,1.0,1.0,1.0,318.4224071446806,3.0,1.0,phase_1,,,,,,,,,,,,,magenta,I
201.0,7.0,2.0,1.0,3.0,3.0,307.1378420572728,3.0,1.0,phase_1,,,,,,,,,,,,,magenta,I
0.0,4.0,0.0,0.0,1.0,1.0,334.8696629982441,3.0,1.0,phase_1,,,,,,,,,,,,,gray,triangle
98.0,2.0,1.0,0.0,3.0,3.0,322.3153310827911,3.0,1.0,phase_1,,,,,,,,,,,,,white,cross
95.0,6.0,1.0,1.0,1.0,1.0,330.3964189253747,3.0,1.0,phase_1,,,,,,,,,,,,,yellow,hexagon
381.0,4.0,4.0,0.0,4.0,4.0,302.8279978316277,3.0,1.0,phase_1,,,,,,,,,,,,,gray,triangle
74.0,5.0,0.5,1.0,3.0,3.0,297.4968859925866,3.0,1.0,phase_1,,,,,,,,,,,,,blue,diamond
376.0,8.0,4.0,1.0,1.0,1.0,248.4052961226552,3.0,1.0,phase_1,,,,,,,,,,,,,orange,circle
67.0,5.0,0.5,1.0,4.0,4.0,290.5098379123956,3.0,1.0,phase_1,,,,,,,,,,,,,blue,diamond
186.0,7.0,2.0,1.0,3.0,3.0,295.5659390427172,3.0,1.0,phase_1,,,,,,,,,,,,,magenta,I
89.0,6.0,1.0,1.0,1.0,1.0,291.0471551585942,3.0,1.0,phase_1,,,,,,,,,,,,,yellow,hexagon
0.0,3.0,0.0,0.0,3.0,3.0,256.9440039806068,3.0,1.0,phase_1,,,,,,,,,,,,,green,square
384.0,4.0,4.0,0.0,4.0,4.0,343.083499930799,3.0,1.0,phase_1,,,,,,,,,,,,,gray,triangle
64.0,5.0,0.5,1.0,3.0,3.0,274.4520509149879,3.0,1.0,phase_1,,,,,,,,,,,,,blue,diamond
0.0,2.0,0.0,0.0,4.0,4.0,270.1719840988517,3.0,1.0,phase_1,,,,,,,,,,,,,white,cross
195.0,7.0,2.0,1.0,4.0,4.0,269.784317817539,3.0,1.0,phase_1,,,,,,,,,,,,,magenta,I
105.0,6.0,1.0,1.0,3.0,3.0,282.024045009166,3.0,1.0,phase_1,,,,,,,,,,,,,yellow,hexagon
0.0,7.0,0.0,1.0,1.0,1.0,278.0380470212549,3.0,1.0,phase_1,,,,,,,,,,,,,magenta,I
34.0,1.0,0.5,0.0,3.0,3.0,265.1935149915516,3.0,1.0,phase_1,,,,,,,,,,,,,cyan,flipped triangle
193.0,3.0,2.0,0.0,2.0,2.0,283.5453089792281,3.0,2.0,phase_1,,,,,,,,,,,,,green,square
407.0,8.0,4.0,1.0,4.0,4.0,287.579467985779,3.0,1.0,phase_1,,,,,,,,,,,,,orange,circle
105.0,2.0,1.0,0.0,2.0,2.0,294.1329032182693,3.0,1.0,phase_1,,,,,,,,,,,,,white,cross
0.0,2.0,0.0,0.0,1.0,1.0,280.4411519318819,3.0,1.0,phase_1,,,,,,,,,,,,,white,cross
215.0,3.0,2.0,0.0,3.0,3.0,360.5343610979616,3.0,1.0,phase_1,,,,,,,,,,,,,green,square
0.0,6.0,0.0,1.0,1.0,1.0,268.8771490938961,3.0,1.0,phase_1,,,,,,,,,,,,,yellow,hexagon
53.0,5.0,0.5,1.0,4.0,4.0,298.0429260060191,3.0,1.0,phase_1,,,,,,,,,,,,,blue,diamond
388.0,8.0,4.0,1.0,2.0,2.0,243.1396218016743,3.0,1.0,phase_1,,,,,,,,,,,,,orange,circle
81.0,6.0,1.0,1.0,4.0,4.0,314.0111721586436,3.0,1.0,phase_1,,,,,,,,,,,,,yellow,hexagon
103.0,6.0,1.0,1.0,1.0,1.0,222.2522450610995,3.0,1.0,phase_1,,,,,,,,,,,,,yellow,hexagon
59.0,1.0,0.5,0.0,1.0,1.0,374.7980608604848,3.0,2.0,phase_1,,,,,,,,,,,,,cyan,flipped triangle
76.0,6.0,1.0,1.0,2.0,2.0,275.4165639635175,3.0,1.0,phase_1,,,,,,,,,,,,,yellow,hexagon
28.0,5.0,0.5,1.0,4.0,4.0,288.3784819860011,3.0,1.0,phase_1,,,,,,,,,,,,,blue,diamond
68.0,5.0,0.5,1.0,1.0,1.0,254.3534089345485,3.0,1.0,phase_1,,,,,,,,,,,,,blue,diamond
408.0,8.0,4.0,1.0,4.0,4.0,412.4765510205179,3.0,1.0,phase_1,,,,,,,,,,,,,orange,circle
217.0,7.0,2.0,1.0,3.0,3.0,430.6520679965615,3.0,1.0,phase_1,,,,,,,,,,,,,magenta,I
105.0,2.0,1.0,0.0,4.0,4.0,290.8857129514217,3.0,1.0,phase_1,,,,,,,,,,,,,white,cross
27.0,5.0,0.5,1.0,1.0,1.0,270.1691000256687,3.0,1.0,phase_1,,,,,,,,,,,,,blue,diamond
121.0,2.0,1.0,0.0,1.0,1.0,356.660126009956,3.0,1.0,phase_1,,,,,,,,,,,,,white,cross
178.0,7.0,2.0,1.0,1.0,1.0,416.8793798889965,3.0,1.0,phase_1,,,,,,,,,,,,,magenta,I
0.0,1.0,0.0,0.0,3.0,3.0,343.6290600802749,3.0,1.0,phase_1,,,,,,,,,,,,,cyan,flipped triangle
40.0,5.0,0.5,1.0,2.0,2.0,338.6391759850085,3.0,1.0,phase_1,,,,,,,,,,,,,blue,diamond
68.0,1.0,0.5,0.0,1.0,1.0,261.9025928433984,3.0,1.0,phase_1,,,,,,,,,,,,,cyan,flipped triangle
80.0,2.0,1.0,0.0,3.0,3.0,372.9505459778011,3.0,1.0,phase_1,,,,,,,,,,,,,white,cross
187.0,3.0,2.0,0.0,3.0,3.0,359.2283758334815,3.0,1.0,phase_1,,,,,,,,,,,,,green,square
0.0,7.0,0.0,1.0,1.0,1.0,348.7556001637131,3.0,1.0,phase_1,,,,,,,,,,,,,magenta,I
376.0,4.0,4.0,0.0,3.0,3.0,504.4520259834826,3.0,1.0,phase_1,,,,,,,,,,,,,gray,triangle
0.0,8.0,0.0,1.0,4.0,4.0,278.5551459528506,3.0,1.0,phase_1,,,,,,,,,,,,,orange,circle
412.0,4.0,4.0,0.0,2.0,2.0,340.6089888885617,3.0,1.0,phase_1,,,,,,,,,,,,,gray,triangle
191.0,7.0,2.0,1.0,3.0,3.0,328.621436143294,3.0,1.0,phase_1,,,,,,,,,,,,,magenta,I
37.0,1.0,0.5,0.0,3.0,3.0,341.787874000147,3.0,1.0,phase_1,,,,,,,,,,,,,cyan,flipped triangle
47.0,1.0,0.5,0.0,2.0,2.0,396.036212099716,3.0,1.0,phase_1,,,,,,,,,,,,,cyan,flipped triangle
216.0,7.0,2.0,1.0,2.0,2.0,344.2719569429755,3.0,1.0,phase_1,,,,,,,,,,,,,magenta,I
0.0,1.0,0.0,0.0,4.0,4.0,285.6065828818828,3.0,1.0,phase_1,,,,,,,,,,,,,cyan,flipped triangle
70.0,5.0,0.5,1.0,1.0,1.0,280.066889943555,3.0,1.0,phase_1,,,,,,,,,,,,,blue,diamond
204.0,3.0,2.0,0.0,4.0,4.0,239.1423168592155,3.0,1.0,phase_1,,,,,,,,,,,,,green,square
178.0,3.0,2.0,0.0,4.0,4.0,321.1895730346441,3.0,1.0,phase_1,,,,,,,,,,,,,green,square
0.0,6.0,0.0,1.0,2.0,2.0,404.0519678965211,4.0,1.0,phase_1,,,,,,,,,,,,,yellow,hexagon
185.0,3.0,2.0,0.0,4.0,4.0,331.8648720160126,4.0,1.0,phase_1,,,,,,,,,,,,,green,square
382.0,4.0,4.0,0.0,2.0,2.0,317.154775140807,4.0,1.0,phase_1,,,,,,,,,,,,,gray,triangle
209.0,3.0,2.0,0.0,1.0,1.0,481.5139609854668,4.0,1.0,phase_1,,,,,,,,,,,,,green,square
0.0,3.0,0.0,0.0,1.0,1.0,390.975042944774,4.0,1.0,phase_1,,,,,,,,,,,,,green,square
0.0,6.0,0.0,1.0,4.0,4.0,347.3709668032825,4.0,1.0,phase_1,,,,,,,,,,,,,yellow,hexagon
0.0,5.0,0.0,1.0,1.0,1.0,519.7091700974852,4.0,1.0,phase_1,,,,,,,,,,,,,blue,diamond
390.0,8.0,4.0,1.0,2.0,2.0,363.8308490626514,4.0,1.0,phase_1,,,,,,,,,,,,,orange,circle
0.0,2.0,0.0,0.0,2.0,2.0,329.9909259658307,4.0,1.0,phase_1,,,,,,,,,,,,,white,cross
386.0,8.0,4.0,1.0,2.0,2.0,311.8585641495883,4.0,1.0,phase_1,,,,,,,,,,,,,orange,circle
193.0,7.0,2.0,1.0,4.0,4.0,300.5845290608704,4.0,1.0,phase_1,,,,,,,,,,,,,magenta,I
118.0,2.0,1.0,0.0,3.0,3.0,487.0861549861729,4.0,1.0,phase_1,,,,,,,,,,,,,white,cross
205.0,3.0,2.0,0.0,3.0,3.0,446.7512089759111,4.0,1.0,phase_1,,,,,,,,,,,,,green,square
209.0,7.0,2.0,1.0,4.0,4.0,305.1979029551148,4.0,1.0,phase_1,,,,,,,,,,,,,magenta,I
30.0,1.0,0.5,0.0,2.0,2.0,382.9794239718467,4.0,1.0,phase_1,,,,,,,,,,,,,cyan,flipped triangle
179.0,3.0,2.0,0.0,4.0,4.0,269.5789870340377,4.0,1.0,phase_1,,,,,,,,,,,,,green,square
104.0,6.0,1.0,1.0,2.0,2.0,321.1998920887708,4.0,1.0,phase_1,,,,,,,,,,,,,yellow,hexagon
0.0,7.0,0.0,1.0,3.0,3.0,358.0397120676934,4.0,1.0,phase_1,,,,,,,,,,,,,magenta,I
55.0,1.0,0.5,0.0,2.0,2.0,331.2932320404798,4.0,1.0,phase_1,,,,,,,,,,,,,cyan,flipped triangle
113.0,2.0,1.0,0.0,1.0,1.0,460.1519999559968,4.0,1.0,phase_1,,,,,,,,,,,,,white,cross
116.0,6.0,1.0,1.0,3.0,3.0,301.157837966457,4.0,1.0,phase_1,,,,,,,,,,,,,yellow,hexagon
187.0,7.0,2.0,1.0,3.0,3.0,318.9957791473716,4.0,1.0,phase_1,,,,,,,,,,,,,magenta,I
30.0,5.0,0.5,1.0,1.0,1.0,374.4894140399992,4.0,1.0,phase_1,,,,,,,,,,,,,blue,diamond
66.0,1.0,0.5,0.0,3.0,3.0,296.2776401545852,4.0,1.0,phase_1,,,,,,,,,,,,,cyan,flipped triangle
412.0,8.0,4.0,1.0,4.0,4.0,309.3087740708142,4.0,1.0,phase_1,,,,,,,,,,,,,orange,circle
180.0,7.0,2.0,1.0,2.0,2.0,329.0158919990062,4.0,1.0,phase_1,,,,,,,,,,,,,magenta,I
412.0,4.0,4.0,0.0,2.0,2.0,329.1537819895893,4.0,1.0,phase_1,,,,,,,,,,,,,gray,triangle
376.0,4.0,4.0,0.0,4.0,4.0,270.1390450820327,4.0,1.0,phase_1,,,,,,,,,,,,,gray,triangle
0.0,4.0,0.0,0.0,2.0,2.0,270.8003439474851,4.0,1.0,phase_1,,,,,,,,,,,,,gray,triangle
53.0,1.0,0.5,0.0,1.0,1.0,406.2626829836517,4.0,1.0,phase_1,,,,,,,,,,,,,cyan,flipped triangle
419.0,8.0,4.0,1.0,1.0,1.0,320.3268970828503,4.0,1.0,phase_1,,,,,,,,,,,,,orange,circle
391.0,4.0,4.0,0.0,1.0,1.0,316.6640070267021,4.0,1.0,phase_1,,,,,,,,,,,,,gray,triangle
175.0,7.0,2.0,1.0,4.0,4.0,291.4272439666092,4.0,1.0,phase_1,,,,,,,,,,,,,magenta,I
67.0,1.0,0.5,0.0,1.0,1.0,310.798732098192,4.0,1.0,phase_1,,,,,,,,,,,,,cyan,flipped triangle
192.0,7.0,2.0,1.0,1.0,1.0,508.5898069664836,4.0,1.0,phase_1,,,,,,,,,,,,,magenta,I
0.0,4.0,0.0,0.0,1.0,1.0,393.452008953318,4.0,1.0,phase_1,,,,,,,,,,,,,gray,triangle
391.0,8.0,4.0,1.0,4.0,4.0,278.2116970047354,4.0,1.0,phase_1,,,,,,,,,,,,,orange,circle
0.0,2.0,0.0,0.0,4.0,4.0,426.8818409182131,4.0,1.0,phase_1,,,,,,,,,,,,,white,cross
103.0,2.0,1.0,0.0,1.0,1.0,351.87958204187447,4.0,1.0,phase_1,,,,,,,,,,,,,white,cross
80.0,6.0,1.0,1.0,2.0,2.0,340.9379930235445,4.0,1.0,phase_1,,,,,,,,,,,,,yellow,hexagon
35.0,5.0,0.5,1.0,4.0,4.0,329.6772730536759,4.0,1.0,phase_1,,,,,,,,,,,,,blue,diamond
409.0,4.0,4.0,0.0,4.0,4.0,363.7999629136175,4.0,1.0,phase_1,,,,,,,,,,,,,gray,triangle
98.0,6.0,1.0,1.0,3.0,3.0,337.3759521637112,4.0,1.0,phase_1,,,,,,,,,,,,,yellow,hexagon
179.0,7.0,2.0,1.0,3.0,3.0,341.772868996486,4.0,1.0,phase_1,,,,,,,,,,,,,magenta,I
110.0,2.0,1.0,0.0,1.0,1.0,329.4768438208848,4.0,1.0,phase_1,,,,,,,,,,,,,white,cross
0.0,6.0,0.0,1.0,1.0,1.0,448.8798438105732,4.0,1.0,phase_1,,,,,,,,,,,,,yellow,hexagon
101.0,2.0,1.0,0.0,3.0,3.0,518.8918870408088,4.0,1.0,phase_1,,,,,,,,,,,,,white,cross
206.0,3.0,2.0,0.0,3.0,3.0,354.2834720574319,4.0,1.0,phase_1,,,,,,,,,,,,,green,square
89.0,2.0,1.0,0.0,2.0,2.0,334.5275141764432,4.0,1.0,phase_1,,,,,,,,,,,,,white,cross
419.0,4.0,4.0,0.0,3.0,3.0,403.1438890378922,4.0,1.0,phase_1,,,,,,,,,,,,,gray,triangle
209.0,7.0,2.0,1.0,4.0,4.0,521.9661379233003,4.0,1.0,phase_1,,,,,,,,,,,,,magenta,I
116.0,2.0,1.0,0.0,4.0,4.0,349.9628549907356,4.0,1.0,phase_1,,,,,,,,,,,,,white,cross
0.0,1.0,0.0,0.0,2.0,2.0,329.0638439357281,4.0,1.0,phase_1,,,,,,,,,,,,,cyan,flipped triangle
381.0,8.0,4.0,1.0,1.0,1.0,390.3285639826208,4.0,1.0,phase_1,,,,,,,,,,,,,orange,circle
397.0,8.0,4.0,1.0,1.0,1.0,362.1155971195549,4.0,1.0,phase_1,,,,,,,,,,,,,orange,circle
36.0,5.0,0.5,1.0,2.0,2.0,300.8658778853714,4.0,1.0,phase_1,,,,,,,,,,,,,blue,diamond
81.0,2.0,1.0,0.0,2.0,2.0,338.0402100738138,4.0,1.0,phase_1,,,,,,,,,,,,,white,cross
0.0,3.0,0.0,0.0,4.0,4.0,361.4212910179049,4.0,1.0,phase_1,,,,,,,,,,,,,green,square
111.0,2.0,1.0,0.0,4.0,4.0,309.1030169744044,4.0,1.0,phase_1,,,,,,,,,,,,,white,cross
81.0,6.0,1.0,1.0,1.0,1.0,416.3146328646689,4.0,1.0,phase_1,,,,,,,,,,,,,yellow,hexagon
68.0,1.0,0.5,0.0,3.0,3.0,317.7429190836847,4.0,1.0,phase_1,,,,,,,,,,,,,cyan,flipped triangle
33.0,1.0,0.5,0.0,1.0,1.0,338.256417075172,4.0,1.0,phase_1,,,,,,,,,,,,,cyan,flipped triangle
42.0,1.0,0.5,0.0,4.0,4.0,353.8171851541847,4.0,1.0,phase_1,,,,,,,,,,,,,cyan,flipped triangle
31.0,1.0,0.5,0.0,2.0,2.0,298.5636449884623,4.0,1.0,phase_1,,,,,,,,,,,,,cyan,flipped triangle
386.0,4.0,4.0,0.0,4.0,4.0,328.7934258114546,4.0,1.0,phase_1,,,,,,,,,,,,,gray,triangle
109.0,2.0,1.0,0.0,2.0,2.0,268.0161199532449,4.0,1.0,phase_1,,,,,,,,,,,,,white,cross
213.0,3.0,2.0,0.0,1.0,1.0,379.9991309642792,4.0,1.0,phase_1,,,,,,,,,,,,,green,square
409.0,4.0,4.0,0.0,1.0,1.0,391.5390621405095,4.0,1.0,phase_1,,,,,,,,,,,,,gray,triangle
105.0,6.0,1.0,1.0,4.0,4.0,308.003804879263,4.0,1.0,phase_1,,,,,,,,,,,,,yellow,hexagon
36.0,1.0,0.5,0.0,1.0,1.0,327.6694368105382,4.0,1.0,phase_1,,,,,,,,,,,,,cyan,flipped triangle
203.0,7.0,2.0,1.0,2.0,2.0,331.5699778031558,4.0,1.0,phase_1,,,,,,,,,,,,,magenta,I
377.0,8.0,4.0,1.0,3.0,3.0,423.0190340895206,4.0,2.0,phase_1,,,,,,,,,,,,,orange,circle
120.0,6.0,1.0,1.0,3.0,3.0,395.0308142229914,4.0,1.0,phase_1,,,,,,,,,,,,,yellow,hexagon
109.0,6.0,1.0,1.0,4.0,4.0,368.8299229834229,4.0,1.0,phase_1,,,,,,,,,,,,,yellow,hexagon
376.0,8.0,4.0,1.0,2.0,2.0,363.7620180379599,4.0,1.0,phase_1,,,,,,,,,,,,,orange,circle
0.0,6.0,0.0,1.0,3.0,3.0,466.6441341396421,4.0,1.0,phase_1,,,,,,,,,,,,,yellow,hexagon
191.0,7.0,2.0,1.0,1.0,1.0,332.1717579383403,4.0,1.0,phase_1,,,,,,,,,,,,,magenta,I
208.0,3.0,2.0,0.0,1.0,1.0,489.3742070998996,4.0,1.0,phase_1,,,,,,,,,,,,,green,square
66.0,1.0,0.5,0.0,1.0,1.0,358.2590599544346,4.0,1.0,phase_1,,,,,,,,,,,,,cyan,flipped triangle
409.0,8.0,4.0,1.0,3.0,3.0,522.1691681072116,4.0,1.0,phase_1,,,,,,,,,,,,,orange,circle
81.0,6.0,1.0,1.0,4.0,4.0,494.9944720137864,4.0,1.0,phase_1,,,,,,,,,,,,,yellow,hexagon
412.0,8.0,4.0,1.0,4.0,4.0,364.7719051223248,4.0,1.0,phase_1,,,,,,,,,,,,,orange,circle
29.0,1.0,0.5,0.0,2.0,2.0,328.4459661226719,4.0,1.0,phase_1,,,,,,,,,,,,,cyan,flipped triangle
57.0,5.0,0.5,1.0,4.0,4.0,311.1734599806368,4.0,1.0,phase_1,,,,,,,,,,,,,blue,diamond
79.0,2.0,1.0,0.0,3.0,3.0,428.6874788813293,4.0,1.0,phase_1,,,,,,,,,,,,,white,cross
55.0,5.0,0.5,1.0,2.0,2.0,398.2299789786339,4.0,1.0,phase_1,,,,,,,,,,,,,blue,diamond
409.0,4.0,4.0,0.0,3.0,3.0,427.3874550126493,4.0,1.0,phase_1,,,,,,,,,,,,,gray,triangle
0.0,5.0,0.0,1.0,1.0,1.0,377.1104170009494,4.0,1.0,phase_1,,,,,,,,,,,,,blue,diamond
112.0,2.0,1.0,0.0,4.0,4.0,310.2430240251124,4.0,1.0,phase_1,,,,,,,,,,,,,white,cross
184.0,3.0,2.0,0.0,3.0,3.0,419.6355999447405,4.0,1.0,phase_1,,,,,,,,,,,,,green,square
0.0,4.0,0.0,0.0,4.0,4.0,487.7391760237515,4.0,1.0,phase_1,,,,,,,,,,,,,gray,triangle
79.0,6.0,1.0,1.0,3.0,3.0,421.738734934479,4.0,1.0,phase_1,,,,,,,,,,,,,yellow,hexagon
26.0,5.0,0.5,1.0,3.0,3.0,520.9099049679935,4.0,1.0,phase_1,,,,,,,,,,,,,blue,diamond
220.0,3.0,2.0,0.0,2.0,2.0,399.2991740815341,4.0,1.0,phase_1,,,,,,,,,,,,,green,square
116.0,2.0,1.0,0.0,1.0,1.0,448.4563218429684,4.0,1.0,phase_1,,,,,,,,,,,,,white,cross
101.0,6.0,1.0,1.0,2.0,2.0,342.5461058504879,4.0,1.0,phase_1,,,,,,,,,,,,,yellow,hexagon
223.0,7.0,2.0,1.0,2.0,2.0,349.8463039286434,4.0,1.0,phase_1,,,,,,,,,,,,,magenta,I
0.0,8.0,0.0,1.0,2.0,2.0,320.9256220143288,4.0,1.0,phase_1,,,,,,,,,,,,,orange,circle
118.0,6.0,1.0,1.0,3.0,3.0,422.688920982182,4.0,1.0,phase_1,,,,,,,,,,,,,yellow,hexagon
120.0,2.0,1.0,0.0,1.0,1.0,404.20857002027327,4.0,1.0,phase_1,,,,,,,,,,,,,white,cross
0.0,3.0,2.0,0.0,6.0,6.0,477.8196439146995,1.0,1.0,phase_2,go,250.0,250.0,1.0,,,,,,,,,green,square
0.0,5.0,0.5,1.0,5.0,5.0,508.5008230526,1.0,1.0,phase_2,stop,250.0,250.0,3.0,,,,,,,,,blue,diamond
0.0,2.0,1.0,0.0,6.0,6.0,468.5959878843277,1.0,1.0,phase_2,go,200.0,250.0,1.0,,,,,,,,,white,cross
0.0,6.0,1.0,1.0,6.0,6.0,321.5822759084403,1.0,1.0,phase_2,stop,200.0,250.0,3.0,,,,,,,,,yellow,hexagon
0.0,1.0,0.5,0.0,6.0,6.0,569.1602188162506,1.0,1.0,phase_2,go,200.0,200.0,1.0,,,,,,,,,cyan,flipped triangle
0.0,1.0,0.5,0.0,6.0,6.0,428.3659849315882,1.0,1.0,phase_2,go,200.0,200.0,1.0,,,,,,,,,cyan,flipped triangle
0.0,8.0,4.0,1.0,5.0,5.0,292.0097839087248,1.0,1.0,phase_2,stop,200.0,200.0,3.0,,,,,,,,,orange,circle
0.0,1.0,0.5,0.0,6.0,6.0,385.7949317898601,1.0,1.0,phase_2,go,150.0,200.0,1.0,,,,,,,,,cyan,flipped triangle
0.0,4.0,4.0,0.0,6.0,6.0,353.9489249233156,1.0,1.0,phase_2,go,150.0,200.0,1.0,,,,,,,,,gray,triangle
0.0,5.0,0.5,1.0,6.0,6.0,368.688115850091,1.0,1.0,phase_2,go,150.0,200.0,1.0,,,,,,,,,blue,diamond
0.0,1.0,0.5,0.0,5.0,5.0,494.2017421126365,1.0,1.0,phase_2,go,150.0,200.0,1.0,,,,,,,,,cyan,flipped triangle
0.0,6.0,1.0,1.0,5.0,5.0,389.4154520239681,1.0,1.0,phase_2,stop,150.0,200.0,3.0,,,,,,,,,yellow,hexagon
0.0,5.0,0.5,1.0,5.0,0.0,0.0,1.0,1.0,phase_2,stop,100.0,200.0,4.0,,,,,,,,,blue,diamond
0.0,3.0,2.0,0.0,6.0,6.0,567.2262988518924,1.0,1.0,phase_2,go,150.0,200.0,1.0,,,,,,,,,green,square
0.0,5.0,0.5,1.0,5.0,5.0,309.5811128150671,1.0,1.0,phase_2,stop,150.0,200.0,3.0,,,,,,,,,blue,diamond
0.0,5.0,0.5,1.0,5.0,0.0,0.0,1.0,1.0,phase_2,stop,100.0,200.0,4.0,,,,,,,,,blue,diamond
0.0,6.0,1.0,1.0,6.0,6.0,357.4762369971722,1.0,1.0,phase_2,stop,150.0,200.0,3.0,,,,,,,,,yellow,hexagon
0.0,1.0,0.5,0.0,5.0,5.0,662.2084069531411,1.0,1.0,phase_2,go,150.0,150.0,1.0,,,,,,,,,cyan,flipped triangle
0.0,3.0,2.0,0.0,5.0,5.0,618.3820781297982,1.0,1.0,phase_2,go,150.0,150.0,1.0,,,,,,,,,green,square
0.0,6.0,1.0,1.0,5.0,0.0,0.0,1.0,1.0,phase_2,stop,150.0,150.0,4.0,,,,,,,,,yellow,hexagon
0.0,7.0,2.0,1.0,6.0,6.0,609.1263890266418,1.0,1.0,phase_2,go,200.0,150.0,1.0,,,,,,,,,magenta,I
0.0,4.0,4.0,0.0,6.0,6.0,312.0723890606314,1.0,1.0,phase_2,go,200.0,150.0,1.0,,,,,,,,,gray,triangle
0.0,2.0,1.0,0.0,5.0,5.0,530.3583941422403,1.0,1.0,phase_2,go,200.0,150.0,1.0,,,,,,,,,white,cross
0.0,6.0,1.0,1.0,6.0,6.0,439.3591529224068,1.0,1.0,phase_2,go,200.0,150.0,1.0,,,,,,,,,yellow,hexagon
0.0,7.0,2.0,1.0,5.0,5.0,408.639611909166,1.0,1.0,phase_2,stop,200.0,150.0,3.0,,,,,,,,,magenta,I
0.0,3.0,2.0,0.0,6.0,6.0,529.4168170075864,1.0,1.0,phase_2,go,150.0,150.0,1.0,,,,,,,,,green,square
0.0,7.0,2.0,1.0,5.0,0.0,0.0,1.0,1.0,phase_2,stop,150.0,150.0,4.0,,,,,,,,,magenta,I
0.0,2.0,1.0,0.0,6.0,6.0,412.413070211187,1.0,1.0,phase_2,go,200.0,150.0,1.0,,,,,,,,,white,cross
0.0,5.0,0.5,1.0,5.0,0.0,0.0,1.0,1.0,phase_2,stop,200.0,150.0,4.0,,,,,,,,,blue,diamond
0.0,1.0,0.5,0.0,5.0,5.0,467.2715230844915,1.0,1.0,phase_2,go,250.0,150.0,1.0,,,,,,,,,cyan,flipped triangle
0.0,5.0,0.5,1.0,6.0,6.0,531.773533904925,1.0,1.0,phase_2,go,250.0,150.0,1.0,,,,,,,,,blue,diamond
0.0,7.0,2.0,1.0,6.0,0.0,0.0,1.0,1.0,phase_2,stop,250.0,150.0,4.0,,,,,,,,,magenta,I
0.0,1.0,0.5,0.0,6.0,6.0,436.7685839533806,1.0,1.0,phase_2,go,250.0,200.0,1.0,,,,,,,,,cyan,flipped triangle
0.0,4.0,4.0,0.0,5.0,5.0,549.4125210680068,1.0,1.0,phase_2,go,250.0,200.0,1.0,,,,,,,,,gray,triangle
0.0,6.0,1.0,1.0,5.0,5.0,308.1804420799017,1.0,1.0,phase_2,stop,250.0,200.0,3.0,,,,,,,,,yellow,hexagon
0.0,3.0,2.0,0.0,6.0,6.0,320.3439801000058,1.0,1.0,phase_2,go,200.0,200.0,1.0,,,,,,,,,green,square
0.0,1.0,0.5,0.0,5.0,5.0,451.0563858784735,2.0,1.0,phase_2,go,200.0,200.0,1.0,,,,,,,,,cyan,flipped triangle
0.0,7.0,2.0,1.0,6.0,6.0,307.8519119881093,2.0,1.0,phase_2,go,200.0,200.0,1.0,,,,,,,,,magenta,I
0.0,1.0,0.5,0.0,6.0,6.0,329.8093669582158,2.0,1.0,phase_2,go,200.0,200.0,1.0,,,,,,,,,cyan,flipped triangle
0.0,7.0,2.0,1.0,6.0,6.0,329.7206540592015,2.0,1.0,phase_2,stop,200.0,200.0,3.0,,,,,,,,,magenta,I
0.0,2.0,1.0,0.0,5.0,5.0,395.2790610492229,2.0,1.0,phase_2,go,200.0,150.0,1.0,,,,,,,,,white,cross
0.0,3.0,2.0,0.0,5.0,5.0,315.4737709555775,2.0,1.0,phase_2,go,200.0,150.0,1.0,,,,,,,,,green,square
0.0,8.0,4.0,1.0,5.0,0.0,0.0,2.0,1.0,phase_2,stop,200.0,150.0,4.0,,,,,,,,,orange,circle
0.0,4.0,4.0,0.0,6.0,6.0,306.9576420821249,2.0,1.0,phase_2,go,250.0,150.0,1.0,,,,,,,,,gray,triangle
0.0,6.0,1.0,1.0,5.0,0.0,0.0,2.0,1.0,phase_2,stop,250.0,150.0,4.0,,,,,,,,,yellow,hexagon
0.0,6.0,1.0,1.0,6.0,6.0,297.0382750499993,2.0,1.0,phase_2,go,300.0,150.0,1.0,,,,,,,,,yellow,hexagon
0.0,3.0,2.0,0.0,5.0,5.0,528.5144459921867,2.0,1.0,phase_2,go,300.0,150.0,1.0,,,,,,,,,green,square
0.0,4.0,4.0,0.0,5.0,5.0,400.5119509529322,2.0,1.0,phase_2,go,300.0,150.0,1.0,,,,,,,,,gray,triangle
0.0,6.0,1.0,1.0,5.0,5.0,317.1413941308856,2.0,1.0,phase_2,stop,300.0,150.0,3.0,,,,,,,,,yellow,hexagon
0.0,4.0,4.0,0.0,5.0,5.0,573.4800139907748,2.0,1.0,phase_2,go,250.0,150.0,1.0,,,,,,,,,gray,triangle
0.0,2.0,1.0,0.0,6.0,6.0,515.7264831941575,2.0,1.0,phase_2,go,250.0,150.0,1.0,,,,,,,,,white,cross
0.0,7.0,2.0,1.0,5.0,5.0,411.4490100182593,2.0,1.0,phase_2,stop,250.0,150.0,3.0,,,,,,,,,magenta,I
0.0,2.0,1.0,0.0,6.0,6.0,606.3759608659893,2.0,1.0,phase_2,go,200.0,150.0,1.0,,,,,,,,,white,cross
0.0,4.0,4.0,0.0,6.0,6.0,444.422691129148,2.0,1.0,phase_2,go,200.0,150.0,1.0,,,,,,,,,gray,triangle
0.0,2.0,1.0,0.0,5.0,5.0,628.4131628926843,2.0,1.0,phase_2,go,200.0,150.0,1.0,,,,,,,,,white,cross
0.0,1.0,0.5,0.0,6.0,6.0,316.4593758992851,2.0,1.0,phase_2,go,200.0,150.0,1.0,,,,,,,,,cyan,flipped triangle
0.0,2.0,1.0,0.0,6.0,6.0,514.599374961108,2.0,1.0,phase_2,go,200.0,150.0,1.0,,,,,,,,,white,cross
0.0,7.0,2.0,1.0,5.0,0.0,0.0,2.0,1.0,phase_2,stop,200.0,150.0,4.0,,,,,,,,,magenta,I
0.0,6.0,1.0,1.0,5.0,5.0,570.5553868319839,2.0,1.0,phase_2,go,250.0,150.0,1.0,,,,,,,,,yellow,hexagon
0.0,5.0,0.5,1.0,5.0,5.0,398.8556389231235,2.0,1.0,phase_2,stop,250.0,150.0,3.0,,,,,,,,,blue,diamond
0.0,5.0,0.5,1.0,5.0,0.0,0.0,2.0,1.0,phase_2,stop,200.0,150.0,4.0,,,,,,,,,blue,diamond
0.0,7.0,2.0,1.0,5.0,0.0,0.0,2.0,1.0,phase_2,stop,250.0,150.0,4.0,,,,,,,,,magenta,I
0.0,5.0,0.5,1.0,6.0,6.0,488.0922229494899,2.0,1.0,phase_2,go,300.0,150.0,1.0,,,,,,,,,blue,diamond
0.0,1.0,0.5,0.0,5.0,5.0,550.206211162731,2.0,1.0,phase_2,go,300.0,150.0,1.0,,,,,,,,,cyan,flipped triangle
0.0,2.0,1.0,0.0,5.0,5.0,468.3307830709964,2.0,1.0,phase_2,go,300.0,150.0,1.0,,,,,,,,,white,cross
0.0,6.0,1.0,1.0,6.0,0.0,0.0,2.0,1.0,phase_2,stop,300.0,150.0,4.0,,,,,,,,,yellow,hexagon
0.0,7.0,2.0,1.0,5.0,5.0,483.1049961503595,2.0,1.0,phase_2,go,300.0,200.0,1.0,,,,,,,,,magenta,I
0.0,5.0,0.5,1.0,5.0,0.0,0.0,2.0,1.0,phase_2,stop,300.0,200.0,4.0,,,,,,,,,blue,diamond
0.0,5.0,0.5,1.0,5.0,5.0,515.8399548381567,2.0,1.0,phase_2,stop,350.0,200.0,3.0,,,,,,,,,blue,diamond
0.0,4.0,4.0,0.0,6.0,6.0,504.8685949295759,2.0,1.0,phase_2,go,300.0,200.0,1.0,,,,,,,,,gray,triangle
0.0,8.0,4.0,1.0,6.0,6.0,530.0578270107508,2.0,1.0,phase_2,go,300.0,200.0,1.0,,,,,,,,,orange,circle
0.0,6.0,1.0,1.0,5.0,5.0,449.6347228996455,2.0,1.0,phase_2,stop,300.0,200.0,3.0,,,,,,,,,yellow,hexagon
0.0,4.0,4.0,0.0,5.0,5.0,491.4253200404346,3.0,1.0,phase_2,go,250.0,200.0,1.0,,,,,,,,,gray,triangle
0.0,8.0,4.0,1.0,6.0,6.0,315.1153570506722,3.0,1.0,phase_2,stop,250.0,200.0,3.0,,,,,,,,,orange,circle
0.0,8.0,4.0,1.0,6.0,6.0,332.4627899564802,3.0,1.0,phase_2,stop,250.0,150.0,3.0,,,,,,,,,orange,circle
0.0,3.0,2.0,0.0,5.0,5.0,636.8527340237051,3.0,1.0,phase_2,go,250.0,100.0,1.0,,,,,,,,,green,square
0.0,8.0,4.0,1.0,5.0,0.0,0.0,3.0,1.0,phase_2,stop,250.0,100.0,4.0,,,,,,,,,orange,circle
0.0,6.0,1.0,1.0,6.0,0.0,0.0,3.0,1.0,phase_2,stop,300.0,100.0,4.0,,,,,,,,,yellow,hexagon
0.0,8.0,4.0,1.0,5.0,5.0,434.1783451382071,3.0,1.0,phase_2,go,300.0,150.0,1.0,,,,,,,,,orange,circle
0.0,6.0,1.0,1.0,6.0,6.0,695.318256970495,3.0,1.0,phase_2,go,300.0,150.0,1.0,,,,,,,,,yellow,hexagon
0.0,7.0,2.0,1.0,6.0,0.0,0.0,3.0,1.0,phase_2,stop,300.0,150.0,4.0,,,,,,,,,magenta,I
0.0,1.0,0.5,0.0,5.0,5.0,487.9727798979729,3.0,1.0,phase_2,go,300.0,200.0,1.0,,,,,,,,,cyan,flipped triangle
0.0,1.0,0.5,0.0,6.0,6.0,469.6092889644205,3.0,1.0,phase_2,go,300.0,200.0,1.0,,,,,,,,,cyan,flipped triangle
0.0,4.0,4.0,0.0,5.0,5.0,551.737752975896,3.0,1.0,phase_2,go,300.0,200.0,1.0,,,,,,,,,gray,triangle
0.0,5.0,0.5,1.0,6.0,0.0,0.0,3.0,1.0,phase_2,stop,300.0,200.0,4.0,,,,,,,,,blue,diamond
0.0,2.0,1.0,0.0,5.0,5.0,303.6821489222348,3.0,1.0,phase_2,go,300.0,250.0,1.0,,,,,,,,,white,cross
0.0,2.0,1.0,0.0,5.0,5.0,459.7300579771399,3.0,1.0,phase_2,go,300.0,250.0,1.0,,,,,,,,,white,cross
0.0,3.0,2.0,0.0,5.0,5.0,404.1888420470059,3.0,1.0,phase_2,go,300.0,250.0,1.0,,,,,,,,,green,square
0.0,8.0,4.0,1.0,5.0,5.0,380.4872420150786,3.0,1.0,phase_2,stop,300.0,250.0,3.0,,,,,,,,,orange,circle
0.0,5.0,0.5,1.0,6.0,6.0,496.9265030231327,3.0,1.0,phase_2,stop,250.0,250.0,3.0,,,,,,,,,blue,diamond
0.0,4.0,4.0,0.0,6.0,6.0,514.5527308341116,3.0,1.0,phase_2,go,250.0,200.0,1.0,,,,,,,,,gray,triangle
0.0,7.0,2.0,1.0,6.0,0.0,0.0,3.0,1.0,phase_2,stop,250.0,200.0,4.0,,,,,,,,,magenta,I
0.0,5.0,0.5,1.0,5.0,0.0,0.0,3.0,1.0,phase_2,stop,250.0,250.0,4.0,,,,,,,,,blue,diamond
0.0,7.0,2.0,1.0,6.0,0.0,0.0,3.0,1.0,phase_2,stop,300.0,250.0,4.0,,,,,,,,,magenta,I
0.0,6.0,1.0,1.0,5.0,5.0,489.5844119600951,3.0,1.0,phase_2,go,300.0,300.0,1.0,,,,,,,,,yellow,hexagon
0.0,4.0,4.0,0.0,5.0,5.0,440.576913068071,3.0,1.0,phase_2,go,300.0,300.0,1.0,,,,,,,,,gray,triangle
0.0,5.0,0.5,1.0,5.0,5.0,537.3211051337421,3.0,1.0,phase_2,stop,300.0,300.0,3.0,,,,,,,,,blue,diamond
0.0,6.0,1.0,1.0,5.0,0.0,0.0,3.0,1.0,phase_2,stop,250.0,300.0,4.0,,,,,,,,,yellow,hexagon
0.0,3.0,2.0,0.0,6.0,6.0,582.4860162101686,3.0,1.0,phase_2,go,300.0,300.0,1.0,,,,,,,,,green,square
0.0,7.0,2.0,1.0,6.0,6.0,564.4177349749953,3.0,1.0,phase_2,go,300.0,300.0,1.0,,,,,,,,,magenta,I
0.0,3.0,2.0,0.0,5.0,5.0,902.7042479719968,3.0,1.0,phase_2,go,300.0,300.0,1.0,,,,,,,,,green,square
0.0,5.0,0.5,1.0,5.0,0.0,0.0,3.0,1.0,phase_2,stop,300.0,300.0,4.0,,,,,,,,,blue,diamond
0.0,7.0,2.0,1.0,6.0,6.0,580.5460619740188,3.0,1.0,phase_2,go,350.0,300.0,1.0,,,,,,,,,magenta,I
0.0,3.0,2.0,0.0,5.0,5.0,859.6265469677746,3.0,1.0,phase_2,go,350.0,300.0,1.0,,,,,,,,,green,square
0.0,8.0,4.0,1.0,6.0,0.0,0.0,3.0,1.0,phase_2,stop,350.0,300.0,4.0,,,,,,,,,orange,circle
0.0,7.0,2.0,1.0,5.0,5.0,528.4019061364233,3.0,1.0,phase_2,go,350.0,350.0,1.0,,,,,,,,,magenta,I
0.0,4.0,4.0,0.0,5.0,5.0,480.8329651132226,3.0,1.0,phase_2,go,350.0,350.0,1.0,,,,,,,,,gray,triangle
0.0,7.0,2.0,1.0,6.0,0.0,0.0,3.0,1.0,phase_2,stop,350.0,350.0,4.0,,,,,,,,,magenta,I
0.0,4.0,4.0,0.0,5.0,5.0,382.4951599817723,4.0,1.0,phase_2,go,350.0,400.0,1.0,,,,,,,,,gray,triangle
0.0,2.0,1.0,0.0,6.0,6.0,406.95114014670247,4.0,1.0,phase_2,go,350.0,400.0,1.0,,,,,,,,,white,cross
0.0,4.0,4.0,0.0,6.0,6.0,332.5826169457286,4.0,1.0,phase_2,go,350.0,400.0,1.0,,,,,,,,,gray,triangle
0.0,1.0,0.5,0.0,6.0,6.0,270.7844539545476,4.0,1.0,phase_2,go,350.0,400.0,1.0,,,,,,,,,cyan,flipped triangle
0.0,1.0,0.5,0.0,5.0,5.0,475.9555170312524,4.0,1.0,phase_2,go,350.0,400.0,1.0,,,,,,,,,cyan,flipped triangle
0.0,2.0,1.0,0.0,5.0,5.0,333.4499769844115,4.0,1.0,phase_2,go,350.0,400.0,1.0,,,,,,,,,white,cross
0.0,2.0,1.0,0.0,6.0,6.0,266.5900578722358,4.0,1.0,phase_2,go,350.0,400.0,1.0,,,,,,,,,white,cross
0.0,2.0,1.0,0.0,6.0,6.0,309.4570969697088,4.0,1.0,phase_2,go,350.0,400.0,1.0,,,,,,,,,white,cross
0.0,5.0,0.5,1.0,6.0,6.0,317.6624190527946,4.0,1.0,phase_2,stop,350.0,400.0,3.0,,,,,,,,,blue,diamond
0.0,3.0,2.0,0.0,5.0,5.0,460.5507990345359,4.0,1.0,phase_2,go,350.0,350.0,1.0,,,,,,,,,green,square
0.0,1.0,0.5,0.0,5.0,5.0,300.6220459938049,4.0,1.0,phase_2,go,350.0,350.0,1.0,,,,,,,,,cyan,flipped triangle
0.0,5.0,0.5,1.0,6.0,6.0,279.6916801016778,4.0,1.0,phase_2,stop,350.0,350.0,3.0,,,,,,,,,blue,diamond
0.0,4.0,4.0,0.0,6.0,6.0,562.1130631770939,4.0,1.0,phase_2,go,350.0,300.0,1.0,,,,,,,,,gray,triangle
0.0,8.0,4.0,1.0,5.0,5.0,334.35760717839,4.0,1.0,phase_2,stop,350.0,300.0,3.0,,,,,,,,,orange,circle
0.0,4.0,4.0,0.0,6.0,6.0,479.0645171888172,4.0,1.0,phase_2,go,300.0,300.0,1.0,,,,,,,,,gray,triangle
0.0,5.0,0.5,1.0,6.0,6.0,502.2861319594085,4.0,1.0,phase_2,stop,300.0,300.0,3.0,,,,,,,,,blue,diamond
0.0,7.0,2.0,1.0,5.0,0.0,0.0,4.0,1.0,phase_2,stop,300.0,250.0,4.0,,,,,,,,,magenta,I
0.0,1.0,0.5,0.0,5.0,5.0,548.5642440617085,4.0,1.0,phase_2,go,350.0,250.0,1.0,,,,,,,,,cyan,flipped triangle
0.0,3.0,2.0,0.0,6.0,6.0,307.9918210860342,4.0,1.0,phase_2,go,350.0,250.0,1.0,,,,,,,,,green,square
0.0,8.0,4.0,1.0,6.0,6.0,277.6164500974118,4.0,1.0,phase_2,go,350.0,250.0,1.0,,,,,,,,,orange,circle
0.0,8.0,4.0,1.0,6.0,6.0,386.782068060711,4.0,1.0,phase_2,stop,350.0,250.0,3.0,,,,,,,,,orange,circle
0.0,6.0,1.0,1.0,6.0,0.0,0.0,4.0,1.0,phase_2,stop,350.0,200.0,4.0,,,,,,,,,yellow,hexagon
0.0,5.0,0.5,1.0,6.0,0.0,0.0,4.0,1.0,phase_2,stop,350.0,250.0,4.0,,,,,,,,,blue,diamond
0.0,4.0,4.0,0.0,5.0,5.0,473.0832770001143,4.0,1.0,phase_2,go,350.0,300.0,1.0,,,,,,,,,gray,triangle
0.0,7.0,2.0,1.0,5.0,5.0,540.6639249995351,4.0,1.0,phase_2,go,350.0,300.0,1.0,,,,,,,,,magenta,I
0.0,5.0,0.5,1.0,6.0,0.0,0.0,4.0,1.0,phase_2,stop,350.0,300.0,4.0,,,,,,,,,blue,diamond
0.0,6.0,1.0,1.0,5.0,5.0,561.7572320625186,4.0,1.0,phase_2,stop,350.0,350.0,3.0,,,,,,,,,yellow,hexagon
0.0,4.0,4.0,0.0,5.0,5.0,951.8213048577308,4.0,1.0,phase_2,go,300.0,350.0,1.0,,,,,,,,,gray,triangle
0.0,8.0,4.0,1.0,5.0,5.0,518.1019159499556,4.0,1.0,phase_2,stop,300.0,350.0,3.0,,,,,,,,,orange,circle
0.0,1.0,0.5,0.0,5.0,5.0,910.8910511713476,4.0,1.0,phase_2,go,250.0,350.0,1.0,,,,,,,,,cyan,flipped triangle
0.0,2.0,1.0,0.0,6.0,6.0,527.8851080220193,4.0,1.0,phase_2,go,250.0,350.0,1.0,,,,,,,,,white,cross
0.0,5.0,0.5,1.0,5.0,5.0,520.0253089424223,4.0,1.0,phase_2,go,250.0,350.0,1.0,,,,,,,,,blue,diamond
0.0,1.0,0.5,0.0,5.0,5.0,495.5480629578233,4.0,1.0,phase_2,go,250.0,350.0,1.0,,,,,,,,,cyan,flipped triangle
0.0,8.0,4.0,1.0,6.0,6.0,351.6904730349779,4.0,1.0,phase_2,go,250.0,350.0,1.0,,,,,,,,,orange,circle
0.0,6.0,1.0,1.0,5.0,0.0,0.0,4.0,1.0,phase_2,stop,250.0,350.0,4.0,,,,,,,,,yellow,hexagon
0.0,4.0,4.0,0.0,6.0,6.0,668.9350211527199,4.0,1.0,phase_2,go,300.0,350.0,1.0,,,,,,,,,gray,triangle
0.0,1.0,0.5,0.0,6.0,6.0,428.0663020908832,5.0,1.0,phase_2,go,300.0,350.0,1.0,,,,,,,,,cyan,flipped triangle
0.0,3.0,2.0,0.0,6.0,6.0,378.5910899750888,5.0,1.0,phase_2,go,300.0,350.0,1.0,,,,,,,,,green,square
0.0,6.0,1.0,1.0,6.0,6.0,308.2127620000392,5.0,1.0,phase_2,go,300.0,350.0,1.0,,,,,,,,,yellow,hexagon
0.0,2.0,1.0,0.0,5.0,5.0,466.0095379222184,5.0,1.0,phase_2,go,300.0,350.0,1.0,,,,,,,,,white,cross
0.0,5.0,0.5,1.0,6.0,6.0,266.7979870457202,5.0,1.0,phase_2,stop,300.0,350.0,3.0,,,,,,,,,blue,diamond
0.0,7.0,2.0,1.0,6.0,6.0,466.8796621263027,5.0,1.0,phase_2,stop,300.0,300.0,3.0,,,,,,,,,magenta,I
0.0,2.0,1.0,0.0,6.0,6.0,536.9080449454486,5.0,1.0,phase_2,go,300.0,250.0,1.0,,,,,,,,,white,cross
0.0,2.0,1.0,0.0,6.0,6.0,514.6067040041089,5.0,1.0,phase_2,go,300.0,250.0,1.0,,,,,,,,,white,cross
0.0,6.0,1.0,1.0,5.0,5.0,327.2038560826331,5.0,1.0,phase_2,stop,300.0,250.0,3.0,,,,,,,,,yellow,hexagon
0.0,6.0,1.0,1.0,6.0,0.0,0.0,5.0,1.0,phase_2,stop,250.0,250.0,4.0,,,,,,,,,yellow,hexagon
0.0,2.0,1.0,0.0,6.0,6.0,760.1397749967873,5.0,1.0,phase_2,go,250.0,300.0,1.0,,,,,,,,,white,cross
0.0,3.0,2.0,0.0,5.0,5.0,591.0406690090895,5.0,1.0,phase_2,go,250.0,300.0,1.0,,,,,,,,,green,square
0.0,6.0,1.0,1.0,5.0,5.0,484.4282930716872,5.0,1.0,phase_2,stop,250.0,300.0,3.0,,,,,,,,,yellow,hexagon
0.0,8.0,4.0,1.0,5.0,0.0,0.0,5.0,1.0,phase_2,stop,200.0,300.0,4.0,,,,,,,,,orange,circle
0.0,6.0,1.0,1.0,5.0,5.0,478.8332481402904,5.0,1.0,phase_2,go,250.0,300.0,1.0,,,,,,,,,yellow,hexagon
0.0,1.0,0.5,0.0,5.0,5.0,683.1567878834903,5.0,1.0,phase_2,go,250.0,300.0,1.0,,,,,,,,,cyan,flipped triangle
0.0,4.0,4.0,0.0,5.0,5.0,498.3727540820837,5.0,1.0,phase_2,go,250.0,300.0,1.0,,,,,,,,,gray,triangle
0.0,4.0,4.0,0.0,6.0,6.0,482.9009261447936,5.0,1.0,phase_2,go,250.0,300.0,1.0,,,,,,,,,gray,triangle
0.0,1.0,0.5,0.0,6.0,6.0,300.4474849440157,5.0,1.0,phase_2,go,250.0,300.0,1.0,,,,,,,,,cyan,flipped triangle
0.0,3.0,2.0,0.0,6.0,6.0,481.5116259269416,5.0,1.0,phase_2,go,250.0,300.0,1.0,,,,,,,,,green,square
0.0,5.0,0.5,1.0,6.0,6.0,416.7638730723411,5.0,1.0,phase_2,stop,250.0,300.0,3.0,,,,,,,,,blue,diamond
0.0,4.0,4.0,0.0,5.0,5.0,583.4425869397819,5.0,1.0,phase_2,go,250.0,250.0,1.0,,,,,,,,,gray,triangle
0.0,5.0,0.5,1.0,5.0,0.0,0.0,5.0,1.0,phase_2,stop,250.0,250.0,4.0,,,,,,,,,blue,diamond
0.0,1.0,0.5,0.0,5.0,5.0,686.6823229938745,5.0,1.0,phase_2,go,300.0,250.0,1.0,,,,,,,,,cyan,flipped triangle
0.0,2.0,1.0,0.0,6.0,6.0,616.6626131162047,5.0,1.0,phase_2,go,300.0,250.0,1.0,,,,,,,,,white,cross
0.0,1.0,0.5,0.0,5.0,5.0,561.6145459935069,5.0,1.0,phase_2,go,300.0,250.0,1.0,,,,,,,,,cyan,flipped triangle
0.0,7.0,2.0,1.0,5.0,5.0,477.4611080065369,5.0,1.0,phase_2,stop,300.0,250.0,3.0,,,,,,,,,magenta,I
0.0,2.0,1.0,0.0,5.0,5.0,662.450925912708,5.0,1.0,phase_2,go,250.0,250.0,1.0,,,,,,,,,white,cross
0.0,8.0,4.0,1.0,5.0,0.0,0.0,5.0,1.0,phase_2,stop,250.0,250.0,4.0,,,,,,,,,orange,circle
0.0,3.0,2.0,0.0,5.0,5.0,597.0721649937332,5.0,1.0,phase_2,go,300.0,250.0,1.0,,,,,,,,,green,square
0.0,4.0,4.0,0.0,6.0,6.0,548.0898160021752,5.0,1.0,phase_2,go,300.0,250.0,1.0,,,,,,,,,gray,triangle
0.0,7.0,2.0,1.0,5.0,0.0,0.0,5.0,1.0,phase_2,stop,300.0,250.0,4.0,,,,,,,,,magenta,I
0.0,3.0,2.0,0.0,6.0,6.0,453.6697450093925,5.0,1.0,phase_2,go,350.0,250.0,1.0,,,,,,,,,green,square
0.0,6.0,1.0,1.0,5.0,0.0,0.0,5.0,1.0,phase_2,stop,350.0,250.0,4.0,,,,,,,,,yellow,hexagon
0.0,4.0,4.0,0.0,6.0,6.0,563.1498598959297,5.0,1.0,phase_2,go,400.0,250.0,1.0,,,,,,,,,gray,triangle
0.0,2.0,1.0,0.0,6.0,6.0,641.9589950237423,5.0,1.0,phase_2,go,400.0,250.0,1.0,,,,,,,,,white,cross
0.0,6.0,1.0,1.0,6.0,6.0,494.3515809718519,6.0,1.0,phase_2,stop,400.0,250.0,3.0,,,,,,,,,yellow,hexagon
0.0,3.0,2.0,0.0,6.0,6.0,494.5341020356864,6.0,1.0,phase_2,go,400.0,200.0,1.0,,,,,,,,,green,square
0.0,6.0,1.0,1.0,6.0,0.0,0.0,6.0,1.0,phase_2,stop,400.0,200.0,4.0,,,,,,,,,yellow,hexagon
0.0,2.0,1.0,0.0,6.0,6.0,573.1730728875846,6.0,1.0,phase_2,go,400.0,250.0,1.0,,,,,,,,,white,cross
0.0,8.0,4.0,1.0,6.0,0.0,0.0,6.0,1.0,phase_2,stop,400.0,250.0,4.0,,,,,,,,,orange,circle
0.0,5.0,0.5,1.0,6.0,6.0,366.1834141239524,6.0,1.0,phase_2,stop,400.0,300.0,3.0,,,,,,,,,blue,diamond
0.0,4.0,4.0,0.0,6.0,6.0,539.9357080459595,6.0,1.0,phase_2,go,400.0,250.0,1.0,,,,,,,,,gray,triangle
0.0,5.0,0.5,1.0,6.0,0.0,0.0,6.0,1.0,phase_2,stop,400.0,250.0,4.0,,,,,,,,,blue,diamond
0.0,4.0,4.0,0.0,5.0,5.0,420.5271271057427,6.0,1.0,phase_2,go,400.0,300.0,1.0,,,,,,,,,gray,triangle
0.0,2.0,1.0,0.0,6.0,6.0,466.1980119999498,6.0,1.0,phase_2,go,400.0,300.0,1.0,,,,,,,,,white,cross
0.0,8.0,4.0,1.0,6.0,6.0,522.6625029463321,6.0,1.0,phase_2,stop,400.0,300.0,3.0,,,,,,,,,orange,circle
0.0,2.0,1.0,0.0,5.0,5.0,668.5490920208395,6.0,1.0,phase_2,go,400.0,250.0,1.0,,,,,,,,,white,cross
0.0,2.0,1.0,0.0,5.0,5.0,609.5656550023705,6.0,1.0,phase_2,go,400.0,250.0,1.0,,,,,,,,,white,cross
0.0,3.0,2.0,0.0,5.0,5.0,531.1721831094474,6.0,1.0,phase_2,go,400.0,250.0,1.0,,,,,,,,,green,square
0.0,2.0,1.0,0.0,5.0,5.0,433.0145760904997,6.0,1.0,phase_2,go,400.0,250.0,1.0,,,,,,,,,white,cross
0.0,1.0,0.5,0.0,5.0,5.0,528.8722768891603,6.0,1.0,phase_2,go,400.0,250.0,1.0,,,,,,,,,cyan,flipped triangle
0.0,8.0,4.0,1.0,5.0,5.0,464.4293449819088,6.0,1.0,phase_2,stop,400.0,250.0,3.0,,,,,,,,,orange,circle
0.0,1.0,0.5,0.0,6.0,6.0,549.3587900418788,6.0,1.0,phase_2,go,350.0,250.0,1.0,,,,,,,,,cyan,flipped triangle
0.0,4.0,4.0,0.0,5.0,5.0,516.578677110374,6.0,1.0,phase_2,go,350.0,250.0,1.0,,,,,,,,,gray,triangle
0.0,6.0,1.0,1.0,5.0,5.0,467.8590861149132,6.0,1.0,phase_2,go,350.0,250.0,1.0,,,,,,,,,yellow,hexagon
0.0,3.0,2.0,0.0,6.0,6.0,492.0523010659963,6.0,1.0,phase_2,go,350.0,250.0,1.0,,,,,,,,,green,square
0.0,6.0,1.0,1.0,6.0,0.0,0.0,6.0,1.0,phase_2,stop,350.0,250.0,4.0,,,,,,,,,yellow,hexagon
0.0,3.0,2.0,0.0,6.0,6.0,629.9701530952007,6.0,1.0,phase_2,go,350.0,300.0,1.0,,,,,,,,,green,square
0.0,8.0,4.0,1.0,6.0,6.0,459.1841090004891,6.0,1.0,phase_2,stop,350.0,300.0,3.0,,,,,,,,,orange,circle
0.0,7.0,2.0,1.0,5.0,5.0,561.0269820317626,6.0,1.0,phase_2,stop,350.0,250.0,3.0,,,,,,,,,magenta,I
0.0,2.0,1.0,0.0,5.0,5.0,676.7211589030921,6.0,1.0,phase_2,go,300.0,250.0,1.0,,,,,,,,,white,cross
0.0,7.0,2.0,1.0,5.0,0.0,0.0,6.0,1.0,phase_2,stop,300.0,250.0,4.0,,,,,,,,,magenta,I
0.0,5.0,0.5,1.0,5.0,5.0,715.6143730971962,6.0,1.0,phase_2,go,350.0,250.0,1.0,,,,,,,,,blue,diamond
0.0,8.0,4.0,1.0,6.0,0.0,0.0,6.0,1.0,phase_2,stop,350.0,250.0,4.0,,,,,,,,,orange,circle
0.0,8.0,4.0,1.0,6.0,6.0,855.2076108753681,6.0,1.0,phase_2,go,350.0,300.0,1.0,,,,,,,,,orange,circle
0.0,3.0,2.0,0.0,5.0,5.0,560.5732889380306,6.0,1.0,phase_2,go,350.0,300.0,1.0,,,,,,,,,green,square
0.0,7.0,2.0,1.0,6.0,6.0,545.2940708491951,6.0,1.0,phase_2,stop,350.0,300.0,3.0,,,,,,,,,magenta,I
0.0,6.0,1.0,1.0,6.0,0.0,0.0,6.0,1.0,phase_2,stop,350.0,250.0,4.0,,,,,,,,,yellow,hexagon
0.0,5.0,0.5,1.0,6.0,6.0,823.4068450983614,6.0,1.0,phase_2,go,350.0,300.0,1.0,,,,,,,,,blue,diamond
0.0,8.0,4.0,1.0,5.0,0.0,0.0,6.0,1.0,phase_2,stop,350.0,300.0,4.0,,,,,,,,,orange,circle
0.0,6.0,1.0,1.0,5.0,0.0,0.0,6.0,1.0,phase_2,stop,400.0,300.0,4.0,,,,,,,,,yellow,hexagon
0.0,7.0,2.0,1.0,5.0,5.0,467.7046851720661,7.0,1.0,phase_2,stop,450.0,300.0,3.0,,,,,,,,,magenta,I
0.0,5.0,0.5,1.0,5.0,5.0,623.8865940831602,7.0,1.0,phase_2,go,400.0,300.0,1.0,,,,,,,,,blue,diamond
0.0,4.0,4.0,0.0,5.0,5.0,321.4125551749021,7.0,1.0,phase_2,go,400.0,300.0,1.0,,,,,,,,,gray,triangle
0.0,5.0,0.5,1.0,6.0,6.0,554.0389760863036,7.0,1.0,phase_2,go,400.0,300.0,1.0,,,,,,,,,blue,diamond
0.0,7.0,2.0,1.0,6.0,6.0,456.0937178321183,7.0,1.0,phase_2,go,400.0,300.0,1.0,,,,,,,,,magenta,I
0.0,1.0,0.5,0.0,6.0,6.0,328.6448270082474,7.0,1.0,phase_2,go,400.0,300.0,1.0,,,,,,,,,cyan,flipped triangle
0.0,8.0,4.0,1.0,5.0,5.0,662.0173589326441,7.0,1.0,phase_2,stop,400.0,300.0,3.0,,,,,,,,,orange,circle
0.0,4.0,4.0,0.0,6.0,6.0,580.3745659068227,7.0,1.0,phase_2,go,350.0,300.0,1.0,,,,,,,,,gray,triangle
0.0,8.0,4.0,1.0,6.0,6.0,556.3193378038704,7.0,1.0,phase_2,go,350.0,300.0,1.0,,,,,,,,,orange,circle
0.0,1.0,0.5,0.0,6.0,6.0,623.8794948440045,7.0,1.0,phase_2,go,350.0,300.0,1.0,,,,,,,,,cyan,flipped triangle
0.0,8.0,4.0,1.0,6.0,0.0,0.0,7.0,1.0,phase_2,stop,350.0,300.0,4.0,,,,,,,,,orange,circle
0.0,7.0,2.0,1.0,5.0,0.0,0.0,7.0,1.0,phase_2,stop,350.0,350.0,4.0,,,,,,,,,magenta,I
0.0,3.0,2.0,0.0,6.0,6.0,667.0119350310415,7.0,1.0,phase_2,go,400.0,350.0,1.0,,,,,,,,,green,square
0.0,8.0,4.0,1.0,5.0,0.0,0.0,7.0,1.0,phase_2,stop,400.0,350.0,4.0,,,,,,,,,orange,circle
0.0,2.0,1.0,0.0,5.0,5.0,595.5972990486771,7.0,1.0,phase_2,go,450.0,350.0,1.0,,,,,,,,,white,cross
0.0,3.0,2.0,0.0,6.0,6.0,514.0028609894216,7.0,1.0,phase_2,go,450.0,350.0,1.0,,,,,,,,,green,square
0.0,8.0,4.0,1.0,6.0,6.0,560.4479289613664,7.0,1.0,phase_2,stop,450.0,350.0,3.0,,,,,,,,,orange,circle
0.0,8.0,4.0,1.0,6.0,6.0,664.944713935256,7.0,1.0,phase_2,go,450.0,300.0,1.0,,,,,,,,,orange,circle
0.0,3.0,2.0,0.0,5.0,5.0,799.5527698658407,7.0,1.0,phase_2,go,450.0,300.0,1.0,,,,,,,,,green,square
0.0,1.0,0.5,0.0,6.0,6.0,521.618187893182,7.0,1.0,phase_2,go,450.0,300.0,1.0,,,,,,,,,cyan,flipped triangle
0.0,6.0,1.0,1.0,5.0,0.0,0.0,7.0,1.0,phase_2,stop,450.0,300.0,4.0,,,,,,,,,yellow,hexagon
0.0,1.0,0.5,0.0,6.0,6.0,582.8089290298522,7.0,1.0,phase_2,go,500.0,300.0,1.0,,,,,,,,,cyan,flipped triangle
0.0,6.0,1.0,1.0,6.0,0.0,0.0,7.0,1.0,phase_2,stop,500.0,300.0,4.0,,,,,,,,,yellow,hexagon
0.0,1.0,0.5,0.0,6.0,6.0,683.5411190986633,7.0,1.0,phase_2,go,500.0,350.0,1.0,,,,,,,,,cyan,flipped triangle
0.0,1.0,0.5,0.0,5.0,5.0,686.8386541027576,7.0,1.0,phase_2,go,500.0,350.0,1.0,,,,,,,,,cyan,flipped triangle
0.0,3.0,2.0,0.0,6.0,6.0,621.0885439068079,7.0,1.0,phase_2,go,500.0,350.0,1.0,,,,,,,,,green,square
0.0,2.0,1.0,0.0,6.0,6.0,546.1307268124074,7.0,1.0,phase_2,go,500.0,350.0,1.0,,,,,,,,,white,cross
0.0,2.0,1.0,0.0,5.0,5.0,525.5521179642528,7.0,1.0,phase_2,go,500.0,350.0,1.0,,,,,,,,,white,cross
0.0,6.0,1.0,1.0,6.0,6.0,545.7911058329046,7.0,1.0,phase_2,stop,500.0,350.0,3.0,,,,,,,,,yellow,hexagon
0.0,8.0,4.0,1.0,5.0,0.0,0.0,7.0,1.0,phase_2,stop,500.0,300.0,4.0,,,,,,,,,orange,circle
0.0,4.0,4.0,0.0,6.0,6.0,578.0340330675244,7.0,1.0,phase_2,go,550.0,300.0,1.0,,,,,,,,,gray,triangle
0.0,4.0,4.0,0.0,6.0,6.0,522.7098630275577,7.0,1.0,phase_2,go,550.0,300.0,1.0,,,,,,,,,gray,triangle
0.0,7.0,2.0,1.0,6.0,0.0,0.0,7.0,1.0,phase_2,stop,550.0,300.0,4.0,,,,,,,,,magenta,I
0.0,8.0,4.0,1.0,6.0,6.0,650.1398549880832,7.0,1.0,phase_2,go,550.0,350.0,1.0,,,,,,,,,orange,circle
0.0,1.0,0.5,0.0,5.0,5.0,703.7226280663162,7.0,1.0,phase_2,go,550.0,350.0,1.0,,,,,,,,,cyan,flipped triangle
0.0,3.0,2.0,0.0,6.0,6.0,608.0111318733543,7.0,1.0,phase_2,go,550.0,350.0,1.0,,,,,,,,,green,square
0.0,8.0,4.0,1.0,5.0,5.0,337.3333760537207,8.0,1.0,phase_2,stop,550.0,350.0,3.0,,,,,,,,,orange,circle
0.0,7.0,2.0,1.0,6.0,6.0,514.9609078653157,8.0,1.0,phase_2,stop,500.0,350.0,3.0,,,,,,,,,magenta,I
0.0,4.0,4.0,0.0,5.0,5.0,575.9532600641251,8.0,1.0,phase_2,go,500.0,300.0,1.0,,,,,,,,,gray,triangle
0.0,8.0,4.0,1.0,6.0,0.0,0.0,8.0,1.0,phase_2,stop,500.0,300.0,4.0,,,,,,,,,orange,circle
0.0,3.0,2.0,0.0,5.0,5.0,658.1605181563646,8.0,1.0,phase_2,go,500.0,350.0,1.0,,,,,,,,,green,square
0.0,1.0,0.5,0.0,5.0,5.0,478.9626728743315,8.0,1.0,phase_2,go,500.0,350.0,1.0,,,,,,,,,cyan,flipped triangle
0.0,3.0,2.0,0.0,6.0,6.0,478.7188551854342,8.0,1.0,phase_2,go,500.0,350.0,1.0,,,,,,,,,green,square
0.0,3.0,2.0,0.0,6.0,6.0,493.2353380136192,8.0,1.0,phase_2,go,500.0,350.0,1.0,,,,,,,,,green,square
0.0,5.0,0.5,1.0,5.0,5.0,392.4039390403777,8.0,1.0,phase_2,stop,500.0,350.0,3.0,,,,,,,,,blue,diamond
0.0,7.0,2.0,1.0,5.0,5.0,575.4815139807761,8.0,1.0,phase_2,stop,450.0,350.0,3.0,,,,,,,,,magenta,I
0.0,5.0,0.5,1.0,6.0,6.0,579.7572729643434,8.0,1.0,phase_2,go,400.0,350.0,1.0,,,,,,,,,blue,diamond
0.0,3.0,2.0,0.0,5.0,5.0,747.4744459614158,8.0,1.0,phase_2,go,400.0,350.0,1.0,,,,,,,,,green,square
0.0,3.0,2.0,0.0,5.0,5.0,811.4144678693265,8.0,1.0,phase_2,go,400.0,350.0,1.0,,,,,,,,,green,square
0.0,2.0,1.0,0.0,5.0,5.0,498.8782359287143,8.0,1.0,phase_2,go,400.0,350.0,1.0,,,,,,,,,white,cross
0.0,7.0,2.0,1.0,5.0,5.0,473.502374952659,8.0,1.0,phase_2,stop,400.0,350.0,3.0,,,,,,,,,magenta,I
0.0,7.0,2.0,1.0,6.0,6.0,715.2852399740368,8.0,1.0,phase_2,go,350.0,350.0,1.0,,,,,,,,,magenta,I
0.0,8.0,4.0,1.0,5.0,0.0,0.0,8.0,1.0,phase_2,stop,350.0,350.0,4.0,,,,,,,,,orange,circle
0.0,2.0,1.0,0.0,6.0,6.0,313.2086549885571,8.0,1.0,phase_2,go,400.0,350.0,1.0,,,,,,,,,white,cross
0.0,5.0,0.5,1.0,5.0,0.0,0.0,8.0,1.0,phase_2,stop,400.0,350.0,4.0,,,,,,,,,blue,diamond
0.0,1.0,0.5,0.0,6.0,6.0,298.6596699338406,8.0,1.0,phase_2,go,450.0,350.0,1.0,,,,,,,,,cyan,flipped triangle
0.0,6.0,1.0,1.0,6.0,6.0,529.5807539951056,8.0,1.0,phase_2,go,450.0,350.0,1.0,,,,,,,,,yellow,hexagon
0.0,4.0,4.0,0.0,5.0,5.0,567.5842030905187,8.0,1.0,phase_2,go,450.0,350.0,1.0,,,,,,,,,gray,triangle
0.0,8.0,4.0,1.0,5.0,0.0,0.0,8.0,1.0,phase_2,stop,450.0,350.0,4.0,,,,,,,,,orange,circle
0.0,2.0,1.0,0.0,5.0,5.0,646.5516670141369,8.0,1.0,phase_2,go,500.0,350.0,1.0,,,,,,,,,white,cross
0.0,5.0,0.5,1.0,6.0,0.0,0.0,8.0,1.0,phase_2,stop,500.0,350.0,4.0,,,,,,,,,blue,diamond
0.0,4.0,4.0,0.0,5.0,5.0,838.9411398675293,8.0,1.0,phase_2,go,500.0,400.0,1.0,,,,,,,,,gray,triangle
0.0,1.0,0.5,0.0,6.0,6.0,588.0345068871975,8.0,1.0,phase_2,go,500.0,400.0,1.0,,,,,,,,,cyan,flipped triangle
0.0,7.0,2.0,1.0,6.0,0.0,0.0,8.0,1.0,phase_2,stop,500.0,400.0,4.0,,,,,,,,,magenta,I
0.0,3.0,2.0,0.0,5.0,5.0,629.7096819616854,8.0,1.0,phase_2,go,500.0,450.0,1.0,,,,,,,,,green,square
0.0,2.0,1.0,0.0,5.0,5.0,514.9091051425785,8.0,1.0,phase_2,go,500.0,450.0,1.0,,,,,,,,,white,cross
0.0,3.0,2.0,0.0,5.0,5.0,595.7828310783952,8.0,1.0,phase_2,go,500.0,450.0,1.0,,,,,,,,,green,square
0.0,4.0,4.0,0.0,6.0,6.0,560.7840099837631,8.0,1.0,phase_2,go,500.0,450.0,1.0,,,,,,,,,gray,triangle
0.0,7.0,2.0,1.0,6.0,6.0,479.5294469222426,8.0,1.0,phase_2,stop,500.0,450.0,3.0,,,,,,,,,magenta,I
0.0,7.0,2.0,1.0,5.0,0.0,0.0,8.0,1.0,phase_2,stop,500.0,400.0,4.0,,,,,,,,,magenta,I
0.0,8.0,4.0,1.0,5.0,5.0,791.6452649515122,8.0,1.0,phase_2,go,550.0,400.0,1.0,,,,,,,,,orange,circle
0.0,6.0,1.0,1.0,6.0,0.0,0.0,8.0,1.0,phase_2,stop,550.0,400.0,4.0,,,,,,,,,yellow,hexagon
0.0,2.0,1.0,0.0,7.0,3.0,1325.253670103848,1.0,2.0,phase_3,,,,,220.0,5.0,44.0,176.0,220.0,88.0,264.0,132.0,white,cross
0.0,4.0,4.0,0.0,7.0,2.0,3902.8187280055135,1.0,1.0,phase_3,,,,,98.0,2.0,294.0,98.0,147.0,196.0,245.0,49.0,gray,triangle
0.0,3.0,2.0,0.0,7.0,6.0,2869.7385091800243,1.0,1.0,phase_3,,,,,44.0,1.0,88.0,264.0,176.0,132.0,220.0,44.0,green,square
0.0,1.0,0.5,0.0,7.0,1.0,4286.285426001996,1.0,1.0,phase_3,,,,,170.0,5.0,170.0,68.0,34.0,136.0,204.0,102.0,cyan,flipped triangle
0.0,5.0,0.5,1.0,7.0,4.0,4179.066903889179,1.0,1.0,phase_3,,,,,245.0,5.0,98.0,294.0,196.0,245.0,147.0,49.0,blue,diamond
0.0,4.0,4.0,0.0,7.0,1.0,3326.1042279191315,1.0,2.0,phase_3,,,,,176.0,4.0,176.0,132.0,88.0,44.0,264.0,220.0,gray,triangle
0.0,6.0,1.0,1.0,7.0,2.0,3891.62553101778,1.0,1.0,phase_3,,,,,196.0,4.0,98.0,196.0,147.0,49.0,294.0,245.0,yellow,hexagon
0.0,1.0,0.5,0.0,7.0,4.0,2486.47853708826,1.0,1.0,phase_3,,,,,147.0,3.0,294.0,98.0,49.0,147.0,196.0,245.0,cyan,flipped triangle
0.0,7.0,2.0,1.0,7.0,2.0,2143.40948802419,1.0,1.0,phase_3,,,,,220.0,5.0,176.0,220.0,44.0,264.0,88.0,132.0,magenta,I
0.0,5.0,0.5,1.0,7.0,4.0,3720.567316981033,1.0,1.0,phase_3,,,,,196.0,4.0,245.0,98.0,294.0,196.0,147.0,49.0,blue,diamond
0.0,1.0,0.5,0.0,7.0,4.0,3240.8055539708585,1.0,1.0,phase_3,,,,,39.0,1.0,195.0,78.0,234.0,39.0,117.0,156.0,cyan,flipped triangle
0.0,5.0,0.5,1.0,7.0,3.0,3330.356968101114,1.0,1.0,phase_3,,,,,117.0,3.0,78.0,195.0,117.0,39.0,234.0,156.0,blue,diamond
0.0,8.0,4.0,1.0,7.0,6.0,2006.8395130801946,1.0,1.0,phase_3,,,,,102.0,3.0,68.0,136.0,170.0,34.0,204.0,102.0,orange,circle
0.0,3.0,2.0,0.0,7.0,2.0,2760.500621981919,1.0,1.0,phase_3,,,,,176.0,4.0,220.0,176.0,44.0,88.0,264.0,132.0,green,square
0.0,1.0,0.5,0.0,7.0,5.0,3192.583655938506,1.0,1.0,phase_3,,,,,108.0,2.0,324.0,216.0,54.0,270.0,108.0,162.0,cyan,flipped triangle
0.0,5.0,0.5,1.0,7.0,2.0,1792.1211239881814,1.0,1.0,phase_3,,,,,204.0,6.0,170.0,204.0,34.0,136.0,68.0,102.0,blue,diamond
0.0,2.0,1.0,0.0,7.0,1.0,3521.955302916467,1.0,1.0,phase_3,,,,,294.0,6.0,294.0,49.0,98.0,245.0,196.0,147.0,white,cross
0.0,8.0,4.0,1.0,7.0,6.0,1371.576887089759,1.0,1.0,phase_3,,,,,88.0,2.0,220.0,176.0,44.0,264.0,132.0,88.0,orange,circle
0.0,7.0,2.0,1.0,7.0,3.0,1295.2735980506986,1.0,1.0,phase_3,,,,,170.0,5.0,68.0,102.0,170.0,136.0,34.0,204.0,magenta,I
0.0,7.0,2.0,1.0,7.0,4.0,1597.2903619986027,1.0,1.0,phase_3,,,,,156.0,4.0,39.0,78.0,117.0,156.0,234.0,195.0,magenta,I
0.0,6.0,1.0,1.0,7.0,3.0,1884.726678021252,2.0,1.0,phase_3,,,,,176.0,4.0,132.0,88.0,176.0,220.0,264.0,44.0,yellow,hexagon
0.0,2.0,1.0,0.0,7.0,6.0,1854.4086930342016,2.0,1.0,phase_3,,,,,156.0,4.0,117.0,234.0,78.0,39.0,195.0,156.0,white,cross
0.0,3.0,2.0,0.0,7.0,2.0,1946.559862000868,2.0,1.0,phase_3,,,,,234.0,6.0,195.0,234.0,39.0,78.0,156.0,117.0,green,square
0.0,3.0,2.0,0.0,7.0,3.0,1362.984201870859,2.0,1.0,phase_3,,,,,234.0,6.0,156.0,78.0,234.0,117.0,39.0,195.0,green,square
0.0,5.0,0.5,1.0,7.0,5.0,2494.08976896666,2.0,1.0,phase_3,,,,,270.0,5.0,162.0,324.0,108.0,216.0,270.0,54.0,blue,diamond
0.0,3.0,2.0,0.0,7.0,2.0,3262.241463176906,2.0,1.0,phase_3,,,,,147.0,3.0,98.0,147.0,294.0,245.0,196.0,49.0,green,square
0.0,8.0,4.0,1.0,7.0,5.0,1657.0838710758835,2.0,1.0,phase_3,,,,,117.0,3.0,39.0,78.0,234.0,156.0,117.0,195.0,orange,circle
0.0,4.0,4.0,0.0,7.0,2.0,1538.5424168780446,2.0,1.0,phase_3,,,,,136.0,4.0,204.0,136.0,68.0,102.0,34.0,170.0,gray,triangle
0.0,8.0,4.0,1.0,7.0,5.0,2712.4655570369214,2.0,1.0,phase_3,,,,,162.0,3.0,216.0,54.0,270.0,108.0,162.0,324.0,orange,circle
0.0,5.0,0.5,1.0,7.0,4.0,1954.1639850940555,2.0,1.0,phase_3,,,,,264.0,6.0,88.0,44.0,176.0,264.0,132.0,220.0,blue,diamond
0.0,2.0,1.0,0.0,7.0,1.0,1978.7241918966172,2.0,1.0,phase_3,,,,,294.0,6.0,294.0,98.0,147.0,245.0,49.0,196.0,white,cross
0.0,1.0,0.5,0.0,7.0,1.0,3197.7164521813397,2.0,1.0,phase_3,,,,,176.0,4.0,176.0,44.0,88.0,220.0,132.0,264.0,cyan,flipped triangle
0.0,4.0,4.0,0.0,7.0,2.0,4320.214377949014,2.0,1.0,phase_3,,,,,162.0,3.0,108.0,162.0,324.0,54.0,270.0,216.0,gray,triangle
0.0,6.0,1.0,1.0,7.0,4.0,3142.8575650788844,2.0,1.0,phase_3,,,,,162.0,3.0,216.0,108.0,324.0,162.0,54.0,270.0,yellow,hexagon
0.0,6.0,1.0,1.0,7.0,4.0,2242.605321109295,2.0,1.0,phase_3,,,,,216.0,4.0,108.0,162.0,270.0,216.0,324.0,54.0,yellow,hexagon
0.0,5.0,0.5,1.0,7.0,4.0,1955.852458020672,2.0,1.0,phase_3,,,,,204.0,6.0,136.0,68.0,170.0,204.0,34.0,102.0,blue,diamond
0.0,3.0,2.0,0.0,7.0,6.0,3804.848375963047,2.0,1.0,phase_3,,,,,216.0,4.0,108.0,162.0,270.0,54.0,324.0,216.0,green,square
0.0,3.0,2.0,0.0,7.0,1.0,1812.382315983996,2.0,1.0,phase_3,,,,,204.0,6.0,204.0,102.0,170.0,34.0,136.0,68.0,green,square
0.0,2.0,1.0,0.0,7.0,2.0,1999.5992209296676,2.0,1.0,phase_3,,,,,204.0,6.0,170.0,204.0,34.0,68.0,136.0,102.0,white,cross
0.0,8.0,4.0,1.0,7.0,1.0,2079.102329909801,2.0,1.0,phase_3,,,,,162.0,3.0,162.0,324.0,216.0,108.0,54.0,270.0,orange,circle
0.0,6.0,1.0,1.0,7.0,2.0,2001.8046759068966,3.0,1.0,phase_3,,,,,176.0,4.0,88.0,176.0,44.0,220.0,264.0,132.0,yellow,hexagon
0.0,4.0,4.0,0.0,7.0,3.0,2675.18230387941,3.0,1.0,phase_3,,,,,245.0,5.0,49.0,147.0,245.0,294.0,196.0,98.0,gray,triangle
0.0,8.0,4.0,1.0,7.0,4.0,2353.7964448332787,3.0,1.0,phase_3,,,,,245.0,5.0,196.0,294.0,98.0,245.0,147.0,49.0,orange,circle
0.0,4.0,4.0,0.0,7.0,1.0,1661.9408901315182,3.0,1.0,phase_3,,,,,204.0,6.0,204.0,170.0,102.0,68.0,34.0,136.0,gray,triangle
0.0,2.0,1.0,0.0,7.0,3.0,2062.0006369426847,3.0,1.0,phase_3,,,,,264.0,6.0,176.0,132.0,264.0,44.0,88.0,220.0,white,cross
0.0,3.0,2.0,0.0,7.0,2.0,2038.7394931167364,3.0,1.0,phase_3,,,,,204.0,6.0,170.0,204.0,102.0,136.0,68.0,34.0,green,square
0.0,3.0,2.0,0.0,7.0,1.0,3977.2505508735776,3.0,1.0,phase_3,,,,,270.0,5.0,270.0,54.0,108.0,216.0,324.0,162.0,green,square
0.0,4.0,4.0,0.0,7.0,4.0,1224.0173819009217,3.0,1.0,phase_3,,,,,220.0,5.0,44.0,264.0,132.0,220.0,176.0,88.0,gray,triangle
0.0,7.0,2.0,1.0,7.0,1.0,3579.195458907634,3.0,1.0,phase_3,,,,,324.0,6.0,324.0,108.0,162.0,270.0,54.0,216.0,magenta,I
0.0,5.0,0.5,1.0,7.0,6.0,2146.4833559002727,3.0,1.0,phase_3,,,,,234.0,6.0,39.0,195.0,117.0,156.0,78.0,234.0,blue,diamond
0.0,8.0,4.0,1.0,7.0,6.0,2575.1065991353244,3.0,1.0,phase_3,,,,,204.0,6.0,68.0,170.0,102.0,136.0,34.0,204.0,orange,circle
0.0,6.0,1.0,1.0,7.0,1.0,2054.3098510243,3.0,1.0,phase_3,,,,,245.0,5.0,245.0,147.0,98.0,49.0,196.0,294.0,yellow,hexagon
0.0,2.0,1.0,0.0,7.0,4.0,1702.4021621327847,3.0,1.0,phase_3,,,,,270.0,5.0,216.0,108.0,54.0,270.0,324.0,162.0,white,cross
0.0,2.0,1.0,0.0,7.0,6.0,3226.3223009649664,3.0,1.0,phase_3,,,,,270.0,5.0,54.0,216.0,108.0,324.0,162.0,270.0,white,cross
0.0,4.0,4.0,0.0,7.0,4.0,1529.1652879677713,3.0,1.0,phase_3,,,,,234.0,6.0,195.0,39.0,117.0,234.0,156.0,78.0,gray,triangle
0.0,5.0,0.5,1.0,7.0,2.0,2187.806667992845,3.0,1.0,phase_3,,,,,220.0,5.0,176.0,220.0,264.0,44.0,88.0,132.0,blue,diamond
0.0,1.0,0.5,0.0,7.0,6.0,1915.5255910009143,3.0,1.0,phase_3,,,,,220.0,5.0,88.0,264.0,176.0,132.0,44.0,220.0,cyan,flipped triangle
0.0,5.0,0.5,1.0,7.0,3.0,1998.2594249304384,3.0,1.0,phase_3,,,,,216.0,4.0,162.0,324.0,216.0,270.0,54.0,108.0,blue,diamond
0.0,2.0,1.0,0.0,7.0,6.0,1816.4112949743867,3.0,1.0,phase_3,,,,,234.0,6.0,78.0,39.0,195.0,117.0,156.0,234.0,white,cross
0.0,7.0,2.0,1.0,7.0,4.0,2226.364478934556,3.0,1.0,phase_3,,,,,204.0,6.0,34.0,68.0,102.0,204.0,136.0,170.0,magenta,I
0.0,7.0,2.0,1.0,7.0,4.0,2605.918151093647,4.0,1.0,phase_3,,,,,234.0,6.0,39.0,195.0,117.0,234.0,78.0,156.0,magenta,I
0.0,1.0,0.5,0.0,7.0,4.0,1609.5028829295188,4.0,1.0,phase_3,,,,,324.0,6.0,162.0,216.0,54.0,324.0,270.0,108.0,cyan,flipped triangle
0.0,7.0,2.0,1.0,7.0,4.0,1411.4593588747084,4.0,1.0,phase_3,,,,,324.0,6.0,270.0,216.0,54.0,324.0,108.0,162.0,magenta,I
0.0,8.0,4.0,1.0,7.0,2.0,2451.8527740146965,4.0,1.0,phase_3,,,,,264.0,6.0,176.0,264.0,220.0,88.0,44.0,132.0,orange,circle
0.0,4.0,4.0,0.0,7.0,2.0,2117.6546348724514,4.0,1.0,phase_3,,,,,234.0,6.0,156.0,234.0,117.0,78.0,39.0,195.0,gray,triangle
0.0,6.0,1.0,1.0,7.0,2.0,1805.796095170081,4.0,1.0,phase_3,,,,,234.0,6.0,78.0,234.0,156.0,117.0,39.0,195.0,yellow,hexagon
0.0,6.0,1.0,1.0,7.0,5.0,3289.842460071668,4.0,1.0,phase_3,,,,,204.0,6.0,102.0,170.0,68.0,34.0,204.0,136.0,yellow,hexagon
0.0,6.0,1.0,1.0,7.0,5.0,1865.832922980189,4.0,1.0,phase_3,,,,,234.0,6.0,195.0,156.0,39.0,78.0,234.0,117.0,yellow,hexagon
0.0,3.0,2.0,0.0,7.0,6.0,2843.24842505157,4.0,1.0,phase_3,,,,,294.0,6.0,245.0,49.0,196.0,98.0,147.0,294.0,green,square
0.0,1.0,0.5,0.0,7.0,4.0,1853.9916309528053,4.0,1.0,phase_3,,,,,234.0,6.0,195.0,156.0,39.0,234.0,117.0,78.0,cyan,flipped triangle
0.0,7.0,2.0,1.0,7.0,3.0,1917.194318026304,4.0,1.0,phase_3,,,,,294.0,6.0,147.0,196.0,294.0,245.0,98.0,49.0,magenta,I
0.0,7.0,2.0,1.0,7.0,6.0,2121.077808085829,4.0,1.0,phase_3,,,,,294.0,6.0,147.0,245.0,49.0,98.0,196.0,294.0,magenta,I
0.0,7.0,2.0,1.0,7.0,6.0,1576.907261973247,4.0,1.0,phase_3,,,,,264.0,6.0,88.0,132.0,44.0,220.0,176.0,264.0,magenta,I
0.0,4.0,4.0,0.0,7.0,5.0,1799.9102000612766,4.0,1.0,phase_3,,,,,324.0,6.0,54.0,216.0,108.0,162.0,324.0,270.0,gray,triangle
0.0,6.0,1.0,1.0,7.0,6.0,2587.220795918256,4.0,1.0,phase_3,,,,,204.0,6.0,68.0,170.0,136.0,102.0,34.0,204.0,yellow,hexagon
0.0,8.0,4.0,1.0,7.0,5.0,1725.787258008495,4.0,1.0,phase_3,,,,,294.0,6.0,147.0,245.0,49.0,196.0,294.0,98.0,orange,circle
0.0,2.0,1.0,0.0,7.0,6.0,1885.9373209998007,4.0,1.0,phase_3,,,,,204.0,6.0,136.0,34.0,170.0,68.0,102.0,204.0,white,cross
0.0,1.0,0.5,0.0,7.0,4.0,1870.3851911704987,4.0,1.0,phase_3,,,,,204.0,6.0,102.0,34.0,68.0,204.0,136.0,170.0,cyan,flipped triangle
0.0,8.0,4.0,1.0,7.0,5.0,1728.1505791470408,4.0,1.0,phase_3,,,,,234.0,6.0,117.0,39.0,78.0,195.0,234.0,156.0,orange,circle
0.0,1.0,0.5,0.0,7.0,4.0,1752.2882199846208,4.0,1.0,phase_3,,,,,294.0,6.0,245.0,147.0,49.0,294.0,98.0,196.0,cyan,flipped triangle
