raw_reward_magnitude,stim_reward,stepwise_reward_magnitude,paired_with_stopping,quadrant,response,reaction_time,block,num_trial_presentations,which_part,stop_signal_trial_type,left_SSD,right_SSD,accuracy,chosen_bidding_amount,chosen_bidding_level,possible_bid_1,possible_bid_2,possible_bid_3,possible_bid_4,possible_bid_5,possible_bid_6,color_text,shape_text
92.0,2.0,2.0,0.0,3.0,3.0,434.248095145449,1.0,1.0,part_1,,,,,,,,,,,,,cyan,diamond
0.0,1.0,0.0,0.0,3.0,3.0,325.8994719944894,1.0,1.0,part_1,,,,,,,,,,,,,blue,flipped triangle
0.0,1.0,0.0,0.0,1.0,1.0,297.235278878361,1.0,1.0,part_1,,,,,,,,,,,,,blue,flipped triangle
176.0,7.0,3.0,1.0,2.0,2.0,297.5734511855989,1.0,1.0,part_1,,,,,,,,,,,,,white,hexagon
177.0,7.0,3.0,1.0,1.0,1.0,326.6505468636751,1.0,1.0,part_1,,,,,,,,,,,,,white,hexagon
400.0,4.0,4.0,0.0,1.0,1.0,318.9845490269363,1.0,1.0,part_1,,,,,,,,,,,,,yellow,I
63.0,1.0,1.0,0.0,2.0,2.0,318.8484299462288,1.0,1.0,part_1,,,,,,,,,,,,,blue,flipped triangle
413.0,8.0,4.0,1.0,2.0,2.0,296.4503681287169,1.0,1.0,part_1,,,,,,,,,,,,,green,triangle
93.0,2.0,2.0,0.0,1.0,1.0,280.9593719430268,1.0,1.0,part_1,,,,,,,,,,,,,cyan,diamond
209.0,7.0,3.0,1.0,1.0,1.0,309.7907640039921,1.0,1.0,part_1,,,,,,,,,,,,,white,hexagon
103.0,6.0,2.0,1.0,4.0,4.0,471.4785651303828,1.0,1.0,part_1,,,,,,,,,,,,,orange,cross
390.0,8.0,4.0,1.0,3.0,3.0,388.5065419599414,1.0,1.0,part_1,,,,,,,,,,,,,green,triangle
0.0,4.0,0.0,0.0,3.0,3.0,393.0619510356337,1.0,1.0,part_1,,,,,,,,,,,,,yellow,I
105.0,2.0,2.0,0.0,4.0,4.0,313.0853199400008,1.0,1.0,part_1,,,,,,,,,,,,,cyan,diamond
389.0,4.0,4.0,0.0,3.0,3.0,377.5660491082817,1.0,1.0,part_1,,,,,,,,,,,,,yellow,I
27.0,1.0,1.0,0.0,4.0,4.0,350.2043900080025,1.0,1.0,part_1,,,,,,,,,,,,,blue,flipped triangle
95.0,6.0,2.0,1.0,2.0,2.0,307.7175379730761,1.0,1.0,part_1,,,,,,,,,,,,,orange,cross
76.0,2.0,2.0,0.0,3.0,3.0,315.3203909751028,1.0,1.0,part_1,,,,,,,,,,,,,cyan,diamond
0.0,6.0,0.0,1.0,1.0,1.0,349.1197789553553,1.0,1.0,part_1,,,,,,,,,,,,,orange,cross
390.0,4.0,4.0,0.0,3.0,3.0,315.423582913354,1.0,1.0,part_1,,,,,,,,,,,,,yellow,I
214.0,7.0,3.0,1.0,3.0,3.0,329.0557689033448,1.0,1.0,part_1,,,,,,,,,,,,,white,hexagon
58.0,1.0,1.0,0.0,1.0,1.0,300.1625700853765,1.0,1.0,part_1,,,,,,,,,,,,,blue,flipped triangle
422.0,8.0,4.0,1.0,2.0,2.0,258.2250419072807,1.0,1.0,part_1,,,,,,,,,,,,,green,triangle
397.0,4.0,4.0,0.0,1.0,1.0,364.3587860278785,1.0,1.0,part_1,,,,,,,,,,,,,yellow,I
50.0,5.0,1.0,1.0,2.0,2.0,284.0648980345577,1.0,1.0,part_1,,,,,,,,,,,,,magenta,circle
43.0,5.0,1.0,1.0,4.0,4.0,333.7336510885507,1.0,1.0,part_1,,,,,,,,,,,,,magenta,circle
0.0,3.0,0.0,0.0,1.0,1.0,299.4603898841887,1.0,1.0,part_1,,,,,,,,,,,,,gray,square
63.0,5.0,1.0,1.0,3.0,3.0,312.5226059928536,1.0,1.0,part_1,,,,,,,,,,,,,magenta,circle
419.0,4.0,4.0,0.0,1.0,1.0,286.282371962443,1.0,1.0,part_1,,,,,,,,,,,,,yellow,I
206.0,7.0,3.0,1.0,2.0,2.0,290.6997438985854,1.0,1.0,part_1,,,,,,,,,,,,,white,hexagon
199.0,3.0,3.0,0.0,4.0,4.0,324.597171973437,1.0,1.0,part_1,,,,,,,,,,,,,gray,square
212.0,3.0,3.0,0.0,3.0,3.0,307.72953806445,1.0,1.0,part_1,,,,,,,,,,,,,gray,square
417.0,4.0,4.0,0.0,2.0,2.0,320.4369288869202,1.0,1.0,part_1,,,,,,,,,,,,,yellow,I
82.0,2.0,2.0,0.0,4.0,4.0,306.6478259861469,1.0,1.0,part_1,,,,,,,,,,,,,cyan,diamond
0.0,2.0,0.0,0.0,3.0,3.0,323.5306991264224,1.0,1.0,part_1,,,,,,,,,,,,,cyan,diamond
381.0,8.0,4.0,1.0,4.0,4.0,397.8597859386354,1.0,1.0,part_1,,,,,,,,,,,,,green,triangle
0.0,4.0,0.0,0.0,3.0,3.0,306.0952289961278,1.0,1.0,part_1,,,,,,,,,,,,,yellow,I
195.0,3.0,3.0,0.0,2.0,2.0,316.6682438459247,1.0,1.0,part_1,,,,,,,,,,,,,gray,square
0.0,3.0,0.0,0.0,1.0,1.0,354.0878719650209,1.0,1.0,part_1,,,,,,,,,,,,,gray,square
0.0,5.0,0.0,1.0,1.0,1.0,337.5377219635993,1.0,1.0,part_1,,,,,,,,,,,,,magenta,circle
113.0,2.0,2.0,0.0,1.0,1.0,316.1904020234942,1.0,1.0,part_1,,,,,,,,,,,,,cyan,diamond
76.0,6.0,2.0,1.0,1.0,1.0,370.5638810060918,1.0,1.0,part_1,,,,,,,,,,,,,orange,cross
379.0,8.0,4.0,1.0,3.0,3.0,311.1181280110031,1.0,1.0,part_1,,,,,,,,,,,,,green,triangle
0.0,4.0,0.0,0.0,2.0,2.0,276.5481481328606,1.0,1.0,part_1,,,,,,,,,,,,,yellow,I
0.0,6.0,0.0,1.0,3.0,3.0,345.4432201106101,1.0,1.0,part_1,,,,,,,,,,,,,orange,cross
100.0,6.0,2.0,1.0,3.0,3.0,325.1766948960721,1.0,1.0,part_1,,,,,,,,,,,,,orange,cross
382.0,8.0,4.0,1.0,2.0,2.0,273.3973420690745,1.0,1.0,part_1,,,,,,,,,,,,,green,triangle
413.0,4.0,4.0,0.0,1.0,1.0,381.1823090072721,1.0,1.0,part_1,,,,,,,,,,,,,yellow,I
77.0,2.0,2.0,0.0,1.0,1.0,308.0707679037004,1.0,1.0,part_1,,,,,,,,,,,,,cyan,diamond
59.0,1.0,1.0,0.0,1.0,1.0,296.0669689346105,1.0,1.0,part_1,,,,,,,,,,,,,blue,flipped triangle
197.0,3.0,3.0,0.0,3.0,3.0,435.6843950226903,1.0,1.0,part_1,,,,,,,,,,,,,gray,square
94.0,6.0,2.0,1.0,1.0,1.0,289.857042953372,1.0,1.0,part_1,,,,,,,,,,,,,orange,cross
42.0,1.0,1.0,0.0,1.0,1.0,271.2546749971807,1.0,1.0,part_1,,,,,,,,,,,,,blue,flipped triangle
403.0,8.0,4.0,1.0,1.0,1.0,306.9162860047072,1.0,1.0,part_1,,,,,,,,,,,,,green,triangle
396.0,4.0,4.0,0.0,4.0,4.0,311.6544708609581,1.0,1.0,part_1,,,,,,,,,,,,,yellow,I
117.0,6.0,2.0,1.0,1.0,1.0,299.7366250492632,1.0,1.0,part_1,,,,,,,,,,,,,orange,cross
412.0,4.0,4.0,0.0,3.0,3.0,407.4765730183571,1.0,1.0,part_1,,,,,,,,,,,,,yellow,I
212.0,7.0,3.0,1.0,2.0,2.0,291.4229689631611,1.0,1.0,part_1,,,,,,,,,,,,,white,hexagon
103.0,2.0,2.0,0.0,1.0,1.0,266.9890879187733,1.0,1.0,part_1,,,,,,,,,,,,,cyan,diamond
384.0,8.0,4.0,1.0,2.0,2.0,287.5708090141415,1.0,1.0,part_1,,,,,,,,,,,,,green,triangle
196.0,3.0,3.0,0.0,1.0,1.0,265.7025929074734,1.0,1.0,part_1,,,,,,,,,,,,,gray,square
406.0,4.0,4.0,0.0,1.0,1.0,536.7071249056607,1.0,1.0,part_1,,,,,,,,,,,,,yellow,I
188.0,3.0,3.0,0.0,1.0,1.0,300.5661021452397,1.0,1.0,part_1,,,,,,,,,,,,,gray,square
0.0,4.0,0.0,0.0,3.0,3.0,359.8450659774244,1.0,1.0,part_1,,,,,,,,,,,,,yellow,I
194.0,7.0,3.0,1.0,3.0,3.0,399.1760730277747,1.0,1.0,part_1,,,,,,,,,,,,,white,hexagon
222.0,7.0,3.0,1.0,3.0,3.0,385.5435010045767,1.0,1.0,part_1,,,,,,,,,,,,,white,hexagon
58.0,5.0,1.0,1.0,3.0,3.0,366.3184649776667,1.0,1.0,part_1,,,,,,,,,,,,,magenta,circle
224.0,7.0,3.0,1.0,4.0,4.0,356.1833070125431,1.0,1.0,part_1,,,,,,,,,,,,,white,hexagon
176.0,3.0,3.0,0.0,4.0,4.0,313.3194979745894,1.0,1.0,part_1,,,,,,,,,,,,,gray,square
107.0,6.0,2.0,1.0,4.0,4.0,333.3654289599508,1.0,1.0,part_1,,,,,,,,,,,,,orange,cross
394.0,8.0,4.0,1.0,4.0,4.0,308.8380959816277,1.0,1.0,part_1,,,,,,,,,,,,,green,triangle
415.0,8.0,4.0,1.0,1.0,1.0,332.7099678572267,1.0,1.0,part_1,,,,,,,,,,,,,green,triangle
34.0,5.0,1.0,1.0,3.0,3.0,468.3690969832241,1.0,1.0,part_1,,,,,,,,,,,,,magenta,circle
40.0,5.0,1.0,1.0,3.0,3.0,343.3279460296035,1.0,1.0,part_1,,,,,,,,,,,,,magenta,circle
0.0,5.0,0.0,1.0,3.0,3.0,341.210377169773,1.0,1.0,part_1,,,,,,,,,,,,,magenta,circle
38.0,5.0,1.0,1.0,2.0,2.0,346.5825337916612,1.0,1.0,part_1,,,,,,,,,,,,,magenta,circle
202.0,7.0,3.0,1.0,3.0,3.0,264.2688329797238,1.0,1.0,part_1,,,,,,,,,,,,,white,hexagon
208.0,7.0,3.0,1.0,2.0,2.0,313.5454100556671,1.0,1.0,part_1,,,,,,,,,,,,,white,hexagon
85.0,6.0,2.0,1.0,4.0,4.0,336.5481800865382,1.0,1.0,part_1,,,,,,,,,,,,,orange,cross
108.0,6.0,2.0,1.0,4.0,4.0,349.87744106911117,1.0,1.0,part_1,,,,,,,,,,,,,orange,cross
103.0,2.0,2.0,0.0,3.0,3.0,311.5961451549083,1.0,1.0,part_1,,,,,,,,,,,,,cyan,diamond
0.0,7.0,0.0,1.0,4.0,4.0,354.3130941689014,1.0,2.0,part_1,,,,,,,,,,,,,white,hexagon
395.0,8.0,4.0,1.0,1.0,1.0,341.5924210567027,1.0,1.0,part_1,,,,,,,,,,,,,green,triangle
389.0,8.0,4.0,1.0,2.0,2.0,356.2537431716919,1.0,1.0,part_1,,,,,,,,,,,,,green,triangle
47.0,1.0,1.0,0.0,2.0,2.0,382.3946150951087,1.0,1.0,part_1,,,,,,,,,,,,,blue,flipped triangle
415.0,4.0,4.0,0.0,2.0,2.0,346.6696171090007,1.0,1.0,part_1,,,,,,,,,,,,,yellow,I
379.0,4.0,4.0,0.0,4.0,4.0,362.6708511728793,1.0,1.0,part_1,,,,,,,,,,,,,yellow,I
55.0,1.0,1.0,0.0,2.0,2.0,296.1846520192921,1.0,1.0,part_1,,,,,,,,,,,,,blue,flipped triangle
218.0,7.0,3.0,1.0,4.0,4.0,283.3839729428291,1.0,1.0,part_1,,,,,,,,,,,,,white,hexagon
0.0,2.0,0.0,0.0,1.0,1.0,320.9720300510525,1.0,1.0,part_1,,,,,,,,,,,,,cyan,diamond
0.0,8.0,0.0,1.0,3.0,3.0,367.5561321433633,1.0,1.0,part_1,,,,,,,,,,,,,green,triangle
197.0,7.0,3.0,1.0,1.0,1.0,336.1116331070661,1.0,1.0,part_1,,,,,,,,,,,,,white,hexagon
42.0,5.0,1.0,1.0,3.0,3.0,324.4230099953711,1.0,1.0,part_1,,,,,,,,,,,,,magenta,circle
397.0,8.0,4.0,1.0,2.0,2.0,292.0851360540837,1.0,1.0,part_1,,,,,,,,,,,,,green,triangle
37.0,1.0,1.0,0.0,1.0,1.0,326.7967798747122,1.0,1.0,part_1,,,,,,,,,,,,,blue,flipped triangle
107.0,2.0,2.0,0.0,2.0,2.0,289.8330381140113,1.0,1.0,part_1,,,,,,,,,,,,,cyan,diamond
420.0,4.0,4.0,0.0,3.0,3.0,294.4512120448053,1.0,1.0,part_1,,,,,,,,,,,,,yellow,I
50.0,1.0,1.0,0.0,3.0,3.0,373.8486568909138,1.0,1.0,part_1,,,,,,,,,,,,,blue,flipped triangle
31.0,1.0,1.0,0.0,2.0,2.0,283.6457511875778,1.0,1.0,part_1,,,,,,,,,,,,,blue,flipped triangle
420.0,8.0,4.0,1.0,4.0,4.0,335.14132513664657,1.0,1.0,part_1,,,,,,,,,,,,,green,triangle
115.0,6.0,2.0,1.0,2.0,2.0,525.751612149179,2.0,1.0,part_1,,,,,,,,,,,,,orange,cross
387.0,8.0,4.0,1.0,4.0,4.0,304.1113798972219,2.0,1.0,part_1,,,,,,,,,,,,,green,triangle
0.0,5.0,0.0,1.0,3.0,3.0,365.4087749309838,2.0,1.0,part_1,,,,,,,,,,,,,magenta,circle
70.0,5.0,1.0,1.0,4.0,4.0,321.869462961331,2.0,1.0,part_1,,,,,,,,,,,,,magenta,circle
177.0,3.0,3.0,0.0,4.0,4.0,368.4247161727398,2.0,1.0,part_1,,,,,,,,,,,,,gray,square
105.0,6.0,2.0,1.0,3.0,3.0,357.9238650854677,2.0,1.0,part_1,,,,,,,,,,,,,orange,cross
75.0,2.0,2.0,0.0,2.0,2.0,296.677395934239,2.0,1.0,part_1,,,,,,,,,,,,,cyan,diamond
53.0,5.0,1.0,1.0,3.0,3.0,348.4121721703559,2.0,1.0,part_1,,,,,,,,,,,,,magenta,circle
0.0,1.0,0.0,0.0,3.0,3.0,300.5363151896745,2.0,1.0,part_1,,,,,,,,,,,,,blue,flipped triangle
206.0,3.0,3.0,0.0,1.0,1.0,375.6858399137854,2.0,1.0,part_1,,,,,,,,,,,,,gray,square
0.0,2.0,0.0,0.0,2.0,2.0,267.4349369481206,2.0,1.0,part_1,,,,,,,,,,,,,cyan,diamond
83.0,6.0,2.0,1.0,3.0,3.0,336.2961518578231,2.0,1.0,part_1,,,,,,,,,,,,,orange,cross
177.0,7.0,3.0,1.0,2.0,2.0,351.6895119100809,2.0,1.0,part_1,,,,,,,,,,,,,white,hexagon
177.0,7.0,3.0,1.0,1.0,1.0,315.9926361404359,2.0,1.0,part_1,,,,,,,,,,,,,white,hexagon
0.0,2.0,0.0,0.0,2.0,2.0,254.1453351732343,2.0,1.0,part_1,,,,,,,,,,,,,cyan,diamond
224.0,3.0,3.0,0.0,3.0,3.0,308.2463119644671,2.0,1.0,part_1,,,,,,,,,,,,,gray,square
179.0,3.0,3.0,0.0,1.0,1.0,287.2130169998854,2.0,1.0,part_1,,,,,,,,,,,,,gray,square
0.0,5.0,0.0,1.0,1.0,1.0,340.3261548373848,2.0,1.0,part_1,,,,,,,,,,,,,magenta,circle
110.0,6.0,2.0,1.0,2.0,2.0,291.4722280111164,2.0,1.0,part_1,,,,,,,,,,,,,orange,cross
101.0,2.0,2.0,0.0,3.0,3.0,324.9038178473711,2.0,1.0,part_1,,,,,,,,,,,,,cyan,diamond
44.0,5.0,1.0,1.0,4.0,4.0,410.1256260182708,2.0,2.0,part_1,,,,,,,,,,,,,magenta,circle
410.0,8.0,4.0,1.0,2.0,2.0,326.5532250516116,2.0,1.0,part_1,,,,,,,,,,,,,green,triangle
43.0,1.0,1.0,0.0,1.0,1.0,522.25406980142,2.0,1.0,part_1,,,,,,,,,,,,,blue,flipped triangle
213.0,7.0,3.0,1.0,4.0,4.0,349.2292179726064,2.0,1.0,part_1,,,,,,,,,,,,,white,hexagon
37.0,1.0,1.0,0.0,3.0,3.0,365.1692769490182,2.0,1.0,part_1,,,,,,,,,,,,,blue,flipped triangle
422.0,4.0,4.0,0.0,2.0,2.0,343.4132349211722,2.0,1.0,part_1,,,,,,,,,,,,,yellow,I
74.0,5.0,1.0,1.0,4.0,4.0,317.9840110242367,2.0,1.0,part_1,,,,,,,,,,,,,magenta,circle
0.0,2.0,0.0,0.0,4.0,4.0,313.1376730743795,2.0,1.0,part_1,,,,,,,,,,,,,cyan,diamond
125.0,2.0,2.0,0.0,3.0,3.0,349.7975480277091,2.0,1.0,part_1,,,,,,,,,,,,,cyan,diamond
413.0,4.0,4.0,0.0,4.0,4.0,368.9918981399387,2.0,1.0,part_1,,,,,,,,,,,,,yellow,I
26.0,5.0,1.0,1.0,1.0,1.0,332.6274580322206,2.0,1.0,part_1,,,,,,,,,,,,,magenta,circle
44.0,1.0,1.0,0.0,4.0,4.0,396.7500021681189,2.0,1.0,part_1,,,,,,,,,,,,,blue,flipped triangle
93.0,2.0,2.0,0.0,2.0,2.0,366.7944939807057,2.0,1.0,part_1,,,,,,,,,,,,,cyan,diamond
400.0,4.0,4.0,0.0,1.0,1.0,363.1602500099689,2.0,1.0,part_1,,,,,,,,,,,,,yellow,I
26.0,5.0,1.0,1.0,4.0,4.0,321.7739728279412,2.0,1.0,part_1,,,,,,,,,,,,,magenta,circle
38.0,1.0,1.0,0.0,2.0,2.0,259.8685161210596,2.0,1.0,part_1,,,,,,,,,,,,,blue,flipped triangle
0.0,8.0,0.0,1.0,2.0,2.0,332.70363509655,2.0,1.0,part_1,,,,,,,,,,,,,green,triangle
43.0,1.0,1.0,0.0,1.0,1.0,373.4637070447206,2.0,1.0,part_1,,,,,,,,,,,,,blue,flipped triangle
406.0,8.0,4.0,1.0,1.0,1.0,349.9944000504911,2.0,1.0,part_1,,,,,,,,,,,,,green,triangle
400.0,8.0,4.0,1.0,3.0,3.0,337.3044480103999,2.0,1.0,part_1,,,,,,,,,,,,,green,triangle
101.0,6.0,2.0,1.0,4.0,4.0,324.6906751301139,2.0,1.0,part_1,,,,,,,,,,,,,orange,cross
387.0,8.0,4.0,1.0,4.0,4.0,386.6371449548751,2.0,1.0,part_1,,,,,,,,,,,,,green,triangle
199.0,7.0,3.0,1.0,1.0,1.0,367.1572448220104,2.0,1.0,part_1,,,,,,,,,,,,,white,hexagon
0.0,7.0,0.0,1.0,3.0,3.0,389.5104499533772,2.0,1.0,part_1,,,,,,,,,,,,,white,hexagon
95.0,2.0,2.0,0.0,1.0,1.0,304.8617660533637,2.0,1.0,part_1,,,,,,,,,,,,,cyan,diamond
0.0,2.0,0.0,0.0,2.0,2.0,395.1717878226191,2.0,1.0,part_1,,,,,,,,,,,,,cyan,diamond
184.0,7.0,3.0,1.0,3.0,3.0,336.894246051088,2.0,1.0,part_1,,,,,,,,,,,,,white,hexagon
194.0,7.0,3.0,1.0,1.0,1.0,300.4538349341601,2.0,1.0,part_1,,,,,,,,,,,,,white,hexagon
206.0,7.0,3.0,1.0,4.0,4.0,346.4972150977701,2.0,1.0,part_1,,,,,,,,,,,,,white,hexagon
0.0,2.0,0.0,0.0,3.0,3.0,366.256461944431,2.0,1.0,part_1,,,,,,,,,,,,,cyan,diamond
46.0,5.0,1.0,1.0,2.0,2.0,349.2506768088788,2.0,1.0,part_1,,,,,,,,,,,,,magenta,circle
406.0,8.0,4.0,1.0,4.0,4.0,394.9282590765506,2.0,1.0,part_1,,,,,,,,,,,,,green,triangle
0.0,6.0,0.0,1.0,3.0,3.0,349.8122571036219,2.0,1.0,part_1,,,,,,,,,,,,,orange,cross
0.0,7.0,0.0,1.0,3.0,3.0,315.5121330637485,2.0,1.0,part_1,,,,,,,,,,,,,white,hexagon
221.0,3.0,3.0,0.0,3.0,3.0,352.233697893098,2.0,1.0,part_1,,,,,,,,,,,,,gray,square
387.0,4.0,4.0,0.0,2.0,2.0,330.8852980844676,2.0,1.0,part_1,,,,,,,,,,,,,yellow,I
0.0,3.0,0.0,0.0,3.0,3.0,417.4450479913503,2.0,1.0,part_1,,,,,,,,,,,,,gray,square
64.0,1.0,1.0,0.0,4.0,4.0,398.5088299959898,2.0,1.0,part_1,,,,,,,,,,,,,blue,flipped triangle
388.0,4.0,4.0,0.0,2.0,2.0,263.9290718361735,2.0,1.0,part_1,,,,,,,,,,,,,yellow,I
0.0,4.0,0.0,0.0,3.0,3.0,309.9856209009886,2.0,1.0,part_1,,,,,,,,,,,,,yellow,I
217.0,7.0,3.0,1.0,4.0,4.0,353.630888974294,2.0,1.0,part_1,,,,,,,,,,,,,white,hexagon
0.0,4.0,0.0,0.0,1.0,1.0,357.9669478349387,2.0,1.0,part_1,,,,,,,,,,,,,yellow,I
75.0,1.0,1.0,0.0,2.0,2.0,316.6199179831892,2.0,1.0,part_1,,,,,,,,,,,,,blue,flipped triangle
37.0,5.0,1.0,1.0,2.0,2.0,315.1345050428062,2.0,1.0,part_1,,,,,,,,,,,,,magenta,circle
414.0,8.0,4.0,1.0,4.0,4.0,404.2975099291652,2.0,1.0,part_1,,,,,,,,,,,,,green,triangle
0.0,6.0,0.0,1.0,1.0,1.0,353.7747210357338,2.0,1.0,part_1,,,,,,,,,,,,,orange,cross
0.0,5.0,0.0,1.0,1.0,1.0,305.5418659932911,2.0,1.0,part_1,,,,,,,,,,,,,magenta,circle
89.0,2.0,2.0,0.0,1.0,1.0,282.8820159193128,2.0,1.0,part_1,,,,,,,,,,,,,cyan,diamond
182.0,7.0,3.0,1.0,2.0,2.0,238.9145009219646,2.0,1.0,part_1,,,,,,,,,,,,,white,hexagon
76.0,2.0,2.0,0.0,2.0,2.0,243.30535321496419,2.0,1.0,part_1,,,,,,,,,,,,,cyan,diamond
77.0,6.0,2.0,1.0,1.0,1.0,268.0021559353918,2.0,1.0,part_1,,,,,,,,,,,,,orange,cross
395.0,8.0,4.0,1.0,4.0,4.0,311.2150009255856,2.0,1.0,part_1,,,,,,,,,,,,,green,triangle
74.0,1.0,1.0,0.0,3.0,3.0,370.6432848703116,2.0,1.0,part_1,,,,,,,,,,,,,blue,flipped triangle
419.0,8.0,4.0,1.0,1.0,1.0,296.6313641518354,2.0,1.0,part_1,,,,,,,,,,,,,green,triangle
76.0,6.0,2.0,1.0,1.0,1.0,396.1998750455677,2.0,1.0,part_1,,,,,,,,,,,,,orange,cross
400.0,8.0,4.0,1.0,3.0,3.0,381.3831848092377,2.0,2.0,part_1,,,,,,,,,,,,,green,triangle
195.0,7.0,3.0,1.0,3.0,3.0,369.527013041079,2.0,1.0,part_1,,,,,,,,,,,,,white,hexagon
194.0,3.0,3.0,0.0,3.0,3.0,383.6226211860776,2.0,1.0,part_1,,,,,,,,,,,,,gray,square
52.0,5.0,1.0,1.0,3.0,3.0,395.745953079313,2.0,1.0,part_1,,,,,,,,,,,,,magenta,circle
216.0,7.0,3.0,1.0,4.0,4.0,496.3294209446758,2.0,1.0,part_1,,,,,,,,,,,,,white,hexagon
179.0,7.0,3.0,1.0,1.0,1.0,356.3471869565546,2.0,1.0,part_1,,,,,,,,,,,,,white,hexagon
92.0,6.0,2.0,1.0,1.0,1.0,387.6150059513747,2.0,1.0,part_1,,,,,,,,,,,,,orange,cross
47.0,1.0,1.0,0.0,3.0,3.0,390.317756915465,2.0,1.0,part_1,,,,,,,,,,,,,blue,flipped triangle
124.0,6.0,2.0,1.0,4.0,4.0,397.7380490396172,2.0,1.0,part_1,,,,,,,,,,,,,orange,cross
110.0,2.0,2.0,0.0,3.0,3.0,350.7990969810635,2.0,1.0,part_1,,,,,,,,,,,,,cyan,diamond
116.0,2.0,2.0,0.0,1.0,1.0,406.0880909673869,2.0,1.0,part_1,,,,,,,,,,,,,cyan,diamond
213.0,3.0,3.0,0.0,4.0,4.0,343.9146040473133,2.0,1.0,part_1,,,,,,,,,,,,,gray,square
0.0,3.0,0.0,0.0,4.0,4.0,407.578154001385,2.0,1.0,part_1,,,,,,,,,,,,,gray,square
70.0,1.0,1.0,0.0,3.0,3.0,364.5692460704595,2.0,1.0,part_1,,,,,,,,,,,,,blue,flipped triangle
108.0,2.0,2.0,0.0,2.0,2.0,357.9238699749112,2.0,1.0,part_1,,,,,,,,,,,,,cyan,diamond
187.0,3.0,3.0,0.0,4.0,4.0,629.4323611073196,2.0,1.0,part_1,,,,,,,,,,,,,gray,square
0.0,8.0,0.0,1.0,1.0,1.0,271.6325810179114,2.0,1.0,part_1,,,,,,,,,,,,,green,triangle
0.0,1.0,0.0,0.0,4.0,4.0,476.0734580922872,2.0,1.0,part_1,,,,,,,,,,,,,blue,flipped triangle
209.0,7.0,3.0,1.0,2.0,2.0,337.3445149045437,2.0,1.0,part_1,,,,,,,,,,,,,white,hexagon
82.0,2.0,2.0,0.0,3.0,3.0,463.804543018341,2.0,1.0,part_1,,,,,,,,,,,,,cyan,diamond
0.0,8.0,0.0,1.0,3.0,3.0,297.6190319750458,2.0,2.0,part_1,,,,,,,,,,,,,green,triangle
64.0,5.0,1.0,1.0,1.0,1.0,311.4739709999412,2.0,1.0,part_1,,,,,,,,,,,,,magenta,circle
36.0,5.0,1.0,1.0,3.0,3.0,332.0364009123295,2.0,1.0,part_1,,,,,,,,,,,,,magenta,circle
0.0,8.0,0.0,1.0,1.0,1.0,311.2196989823133,2.0,1.0,part_1,,,,,,,,,,,,,green,triangle
46.0,1.0,1.0,0.0,4.0,4.0,309.6312959678471,2.0,1.0,part_1,,,,,,,,,,,,,blue,flipped triangle
207.0,7.0,3.0,1.0,1.0,1.0,283.6640479508787,3.0,1.0,part_1,,,,,,,,,,,,,white,hexagon
58.0,5.0,1.0,1.0,1.0,1.0,305.7130798697471,3.0,1.0,part_1,,,,,,,,,,,,,magenta,circle
120.0,6.0,2.0,1.0,1.0,1.0,291.5969518944621,3.0,1.0,part_1,,,,,,,,,,,,,orange,cross
213.0,3.0,3.0,0.0,1.0,1.0,268.1165479589253,3.0,1.0,part_1,,,,,,,,,,,,,gray,square
0.0,3.0,0.0,0.0,2.0,2.0,277.4968750309199,3.0,1.0,part_1,,,,,,,,,,,,,gray,square
0.0,1.0,0.0,0.0,4.0,4.0,323.648878140375,3.0,1.0,part_1,,,,,,,,,,,,,blue,flipped triangle
0.0,8.0,0.0,1.0,1.0,1.0,326.0260950773954,3.0,1.0,part_1,,,,,,,,,,,,,green,triangle
56.0,5.0,1.0,1.0,4.0,4.0,284.1449831612408,3.0,1.0,part_1,,,,,,,,,,,,,magenta,circle
58.0,1.0,1.0,0.0,4.0,4.0,345.5539019778371,3.0,1.0,part_1,,,,,,,,,,,,,blue,flipped triangle
215.0,3.0,3.0,0.0,4.0,4.0,295.7994409371167,3.0,1.0,part_1,,,,,,,,,,,,,gray,square
0.0,6.0,0.0,1.0,4.0,4.0,357.1467529982328,3.0,1.0,part_1,,,,,,,,,,,,,orange,cross
37.0,1.0,1.0,0.0,3.0,3.0,461.4438200369477,3.0,1.0,part_1,,,,,,,,,,,,,blue,flipped triangle
215.0,7.0,3.0,1.0,1.0,1.0,317.9176079574972,3.0,1.0,part_1,,,,,,,,,,,,,white,hexagon
38.0,1.0,1.0,0.0,4.0,4.0,647.8890790604055,3.0,1.0,part_1,,,,,,,,,,,,,blue,flipped triangle
0.0,3.0,0.0,0.0,1.0,1.0,307.4483349919319,3.0,1.0,part_1,,,,,,,,,,,,,gray,square
0.0,6.0,0.0,1.0,1.0,1.0,336.5210709162056,3.0,1.0,part_1,,,,,,,,,,,,,orange,cross
209.0,3.0,3.0,0.0,1.0,1.0,425.0305180903524,3.0,1.0,part_1,,,,,,,,,,,,,gray,square
387.0,8.0,4.0,1.0,2.0,2.0,330.8123049791902,3.0,1.0,part_1,,,,,,,,,,,,,green,triangle
82.0,6.0,2.0,1.0,3.0,3.0,306.3066671602428,3.0,1.0,part_1,,,,,,,,,,,,,orange,cross
93.0,6.0,2.0,1.0,4.0,4.0,349.6650909073651,3.0,1.0,part_1,,,,,,,,,,,,,orange,cross
377.0,4.0,4.0,0.0,4.0,4.0,311.9716779328882,3.0,1.0,part_1,,,,,,,,,,,,,yellow,I
0.0,6.0,0.0,1.0,1.0,1.0,359.6766730770468,3.0,1.0,part_1,,,,,,,,,,,,,orange,cross
108.0,6.0,2.0,1.0,3.0,3.0,410.1612630765885,3.0,1.0,part_1,,,,,,,,,,,,,orange,cross
68.0,1.0,1.0,0.0,2.0,2.0,400.1591149717569,3.0,1.0,part_1,,,,,,,,,,,,,blue,flipped triangle
191.0,7.0,3.0,1.0,3.0,3.0,379.0574369486421,3.0,1.0,part_1,,,,,,,,,,,,,white,hexagon
70.0,5.0,1.0,1.0,2.0,2.0,332.9454930499196,3.0,2.0,part_1,,,,,,,,,,,,,magenta,circle
196.0,7.0,3.0,1.0,4.0,4.0,386.7418728768825,3.0,1.0,part_1,,,,,,,,,,,,,white,hexagon
0.0,1.0,0.0,0.0,1.0,1.0,413.7138628866523,3.0,2.0,part_1,,,,,,,,,,,,,blue,flipped triangle
98.0,2.0,2.0,0.0,4.0,4.0,288.3710619062185,3.0,1.0,part_1,,,,,,,,,,,,,cyan,diamond
413.0,8.0,4.0,1.0,1.0,1.0,299.2934840731323,3.0,1.0,part_1,,,,,,,,,,,,,green,triangle
0.0,1.0,0.0,0.0,1.0,1.0,272.6096720434725,3.0,1.0,part_1,,,,,,,,,,,,,blue,flipped triangle
0.0,8.0,0.0,1.0,2.0,2.0,295.3014189843088,3.0,1.0,part_1,,,,,,,,,,,,,green,triangle
187.0,7.0,3.0,1.0,3.0,3.0,378.0422350391745,3.0,1.0,part_1,,,,,,,,,,,,,white,hexagon
0.0,5.0,0.0,1.0,1.0,1.0,258.8906849268824,3.0,1.0,part_1,,,,,,,,,,,,,magenta,circle
413.0,4.0,4.0,0.0,3.0,3.0,348.6307580024004,3.0,1.0,part_1,,,,,,,,,,,,,yellow,I
105.0,2.0,2.0,0.0,2.0,2.0,442.0781710650772,3.0,1.0,part_1,,,,,,,,,,,,,cyan,diamond
70.0,1.0,1.0,0.0,4.0,4.0,279.6087958849966,3.0,1.0,part_1,,,,,,,,,,,,,blue,flipped triangle
209.0,7.0,3.0,1.0,4.0,4.0,337.3049981892109,3.0,1.0,part_1,,,,,,,,,,,,,white,hexagon
115.0,2.0,2.0,0.0,4.0,4.0,319.2556910216808,3.0,1.0,part_1,,,,,,,,,,,,,cyan,diamond
26.0,1.0,1.0,0.0,4.0,4.0,404.2970309965312,3.0,1.0,part_1,,,,,,,,,,,,,blue,flipped triangle
209.0,3.0,3.0,0.0,1.0,1.0,567.7979730535299,3.0,1.0,part_1,,,,,,,,,,,,,gray,square
86.0,6.0,2.0,1.0,3.0,3.0,396.6160400304943,3.0,1.0,part_1,,,,,,,,,,,,,orange,cross
214.0,3.0,3.0,0.0,4.0,4.0,307.6203810051083,3.0,1.0,part_1,,,,,,,,,,,,,gray,square
399.0,8.0,4.0,1.0,4.0,4.0,463.9509099069983,3.0,1.0,part_1,,,,,,,,,,,,,green,triangle
27.0,5.0,1.0,1.0,1.0,1.0,467.3540180083364,3.0,1.0,part_1,,,,,,,,,,,,,magenta,circle
0.0,5.0,0.0,1.0,4.0,4.0,302.6146308984607,3.0,1.0,part_1,,,,,,,,,,,,,magenta,circle
0.0,5.0,0.0,1.0,3.0,3.0,299.6900519356131,3.0,1.0,part_1,,,,,,,,,,,,,magenta,circle
213.0,7.0,3.0,1.0,2.0,2.0,250.45878998935223,3.0,1.0,part_1,,,,,,,,,,,,,white,hexagon
417.0,8.0,4.0,1.0,3.0,3.0,302.6584889739752,3.0,1.0,part_1,,,,,,,,,,,,,green,triangle
67.0,1.0,1.0,0.0,2.0,2.0,305.5907478556037,3.0,1.0,part_1,,,,,,,,,,,,,blue,flipped triangle
0.0,2.0,0.0,0.0,3.0,3.0,352.6326038409024,3.0,1.0,part_1,,,,,,,,,,,,,cyan,diamond
122.0,2.0,2.0,0.0,3.0,3.0,364.8375319316983,3.0,1.0,part_1,,,,,,,,,,,,,cyan,diamond
200.0,3.0,3.0,0.0,1.0,1.0,368.6809248756617,3.0,1.0,part_1,,,,,,,,,,,,,gray,square
55.0,5.0,1.0,1.0,4.0,4.0,487.1219790074974,3.0,1.0,part_1,,,,,,,,,,,,,magenta,circle
395.0,4.0,4.0,0.0,4.0,4.0,424.9703090172261,3.0,1.0,part_1,,,,,,,,,,,,,yellow,I
68.0,5.0,1.0,1.0,2.0,2.0,279.2820690665394,3.0,1.0,part_1,,,,,,,,,,,,,magenta,circle
31.0,5.0,1.0,1.0,4.0,4.0,347.8504160884768,3.0,1.0,part_1,,,,,,,,,,,,,magenta,circle
55.0,1.0,1.0,0.0,1.0,1.0,302.7689948212355,3.0,1.0,part_1,,,,,,,,,,,,,blue,flipped triangle
209.0,3.0,3.0,0.0,2.0,2.0,357.8395580407232,3.0,1.0,part_1,,,,,,,,,,,,,gray,square
75.0,6.0,2.0,1.0,4.0,4.0,433.5137798916548,3.0,1.0,part_1,,,,,,,,,,,,,orange,cross
405.0,8.0,4.0,1.0,1.0,1.0,318.2978108525276,3.0,1.0,part_1,,,,,,,,,,,,,green,triangle
177.0,3.0,3.0,0.0,3.0,3.0,363.0952311214059,3.0,1.0,part_1,,,,,,,,,,,,,gray,square
0.0,6.0,0.0,1.0,4.0,4.0,336.1243549734354,3.0,1.0,part_1,,,,,,,,,,,,,orange,cross
46.0,1.0,1.0,0.0,3.0,3.0,348.5852349549532,3.0,1.0,part_1,,,,,,,,,,,,,blue,flipped triangle
206.0,3.0,3.0,0.0,4.0,4.0,311.6042441688478,3.0,1.0,part_1,,,,,,,,,,,,,gray,square
105.0,6.0,2.0,1.0,3.0,3.0,327.8143950738013,3.0,1.0,part_1,,,,,,,,,,,,,orange,cross
410.0,4.0,4.0,0.0,3.0,3.0,426.8390531651675,3.0,1.0,part_1,,,,,,,,,,,,,yellow,I
108.0,2.0,2.0,0.0,4.0,4.0,320.3214770182967,3.0,1.0,part_1,,,,,,,,,,,,,cyan,diamond
46.0,5.0,1.0,1.0,1.0,1.0,428.9092959370464,3.0,1.0,part_1,,,,,,,,,,,,,magenta,circle
0.0,4.0,0.0,0.0,4.0,4.0,762.0024140924215,3.0,1.0,part_1,,,,,,,,,,,,,yellow,I
381.0,4.0,4.0,0.0,1.0,1.0,430.5095579475164,3.0,1.0,part_1,,,,,,,,,,,,,yellow,I
60.0,1.0,1.0,0.0,2.0,2.0,771.3382558431476,3.0,1.0,part_1,,,,,,,,,,,,,blue,flipped triangle
0.0,2.0,0.0,0.0,1.0,1.0,341.6086470242589,3.0,1.0,part_1,,,,,,,,,,,,,cyan,diamond
124.0,2.0,2.0,0.0,1.0,1.0,300.8288841228932,3.0,1.0,part_1,,,,,,,,,,,,,cyan,diamond
191.0,3.0,3.0,0.0,2.0,2.0,312.7604019828141,3.0,1.0,part_1,,,,,,,,,,,,,gray,square
34.0,1.0,1.0,0.0,1.0,1.0,266.943824943155,3.0,1.0,part_1,,,,,,,,,,,,,blue,flipped triangle
222.0,3.0,3.0,0.0,3.0,3.0,431.7039318848401,3.0,1.0,part_1,,,,,,,,,,,,,gray,square
396.0,8.0,4.0,1.0,1.0,1.0,311.9095810689032,3.0,1.0,part_1,,,,,,,,,,,,,green,triangle
406.0,4.0,4.0,0.0,1.0,1.0,326.1709411162883,3.0,2.0,part_1,,,,,,,,,,,,,yellow,I
217.0,3.0,3.0,0.0,2.0,2.0,308.7191239465028,3.0,1.0,part_1,,,,,,,,,,,,,gray,square
0.0,1.0,0.0,0.0,2.0,2.0,313.6033411137759,3.0,1.0,part_1,,,,,,,,,,,,,blue,flipped triangle
203.0,3.0,3.0,0.0,2.0,2.0,878.1622759997845,3.0,1.0,part_1,,,,,,,,,,,,,gray,square
0.0,7.0,0.0,1.0,1.0,1.0,327.2430580109358,3.0,4.0,part_1,,,,,,,,,,,,,white,hexagon
0.0,8.0,0.0,1.0,2.0,2.0,246.6881638392806,3.0,1.0,part_1,,,,,,,,,,,,,green,triangle
67.0,5.0,1.0,1.0,1.0,1.0,376.6486458480358,3.0,1.0,part_1,,,,,,,,,,,,,magenta,circle
117.0,2.0,2.0,0.0,4.0,4.0,351.7039320431649,3.0,1.0,part_1,,,,,,,,,,,,,cyan,diamond
393.0,8.0,4.0,1.0,3.0,3.0,362.5552649609744,3.0,1.0,part_1,,,,,,,,,,,,,green,triangle
93.0,6.0,2.0,1.0,1.0,1.0,336.9768690317869,3.0,1.0,part_1,,,,,,,,,,,,,orange,cross
0.0,1.0,0.0,0.0,2.0,2.0,354.8450921662152,3.0,1.0,part_1,,,,,,,,,,,,,blue,flipped triangle
98.0,6.0,2.0,1.0,3.0,3.0,367.3275311011821,3.0,1.0,part_1,,,,,,,,,,,,,orange,cross
425.0,4.0,4.0,0.0,2.0,2.0,324.4663211517036,3.0,1.0,part_1,,,,,,,,,,,,,yellow,I
47.0,5.0,1.0,1.0,1.0,1.0,363.3405379951,3.0,1.0,part_1,,,,,,,,,,,,,magenta,circle
0.0,2.0,0.0,0.0,1.0,1.0,309.4245211686939,3.0,1.0,part_1,,,,,,,,,,,,,cyan,diamond
0.0,8.0,0.0,1.0,3.0,3.0,332.3882368858903,3.0,1.0,part_1,,,,,,,,,,,,,green,triangle
388.0,8.0,4.0,1.0,3.0,3.0,410.2075879927724,3.0,1.0,part_1,,,,,,,,,,,,,green,triangle
0.0,7.0,0.0,1.0,4.0,4.0,331.7067939788103,3.0,1.0,part_1,,,,,,,,,,,,,white,hexagon
387.0,4.0,4.0,0.0,4.0,4.0,312.3891749419272,3.0,1.0,part_1,,,,,,,,,,,,,yellow,I
43.0,5.0,1.0,1.0,2.0,2.0,662.8263869788498,3.0,1.0,part_1,,,,,,,,,,,,,magenta,circle
0.0,7.0,0.0,1.0,3.0,3.0,386.4724251907319,3.0,1.0,part_1,,,,,,,,,,,,,white,hexagon
0.0,3.0,0.0,0.0,4.0,4.0,263.2559668272733,3.0,1.0,part_1,,,,,,,,,,,,,gray,square
218.0,3.0,3.0,0.0,1.0,1.0,318.6950841918587,4.0,1.0,part_1,,,,,,,,,,,,,gray,square
207.0,3.0,3.0,0.0,4.0,4.0,292.4598851241171,4.0,1.0,part_1,,,,,,,,,,,,,gray,square
182.0,7.0,3.0,1.0,4.0,4.0,401.6845689620822,4.0,1.0,part_1,,,,,,,,,,,,,white,hexagon
405.0,4.0,4.0,0.0,3.0,3.0,307.7980859670788,4.0,1.0,part_1,,,,,,,,,,,,,yellow,I
0.0,4.0,0.0,0.0,1.0,1.0,272.4567148834467,4.0,1.0,part_1,,,,,,,,,,,,,yellow,I
405.0,4.0,4.0,0.0,1.0,1.0,336.2851329147815,4.0,1.0,part_1,,,,,,,,,,,,,yellow,I
125.0,6.0,2.0,1.0,2.0,2.0,331.4427330624312,4.0,1.0,part_1,,,,,,,,,,,,,orange,cross
405.0,8.0,4.0,1.0,3.0,3.0,344.1086059901863,4.0,1.0,part_1,,,,,,,,,,,,,green,triangle
382.0,4.0,4.0,0.0,4.0,4.0,340.7140129711479,4.0,1.0,part_1,,,,,,,,,,,,,yellow,I
98.0,6.0,2.0,1.0,4.0,4.0,336.3572158850729,4.0,1.0,part_1,,,,,,,,,,,,,orange,cross
0.0,4.0,0.0,0.0,2.0,2.0,279.6569489873945,4.0,1.0,part_1,,,,,,,,,,,,,yellow,I
55.0,5.0,1.0,1.0,1.0,1.0,300.4807359538972,4.0,1.0,part_1,,,,,,,,,,,,,magenta,circle
75.0,5.0,1.0,1.0,2.0,2.0,320.6953310873359,4.0,1.0,part_1,,,,,,,,,,,,,magenta,circle
182.0,3.0,3.0,0.0,1.0,1.0,372.6337940897792,4.0,1.0,part_1,,,,,,,,,,,,,gray,square
122.0,6.0,2.0,1.0,3.0,3.0,369.0364721696824,4.0,1.0,part_1,,,,,,,,,,,,,orange,cross
380.0,4.0,4.0,0.0,2.0,2.0,395.5055221449584,4.0,1.0,part_1,,,,,,,,,,,,,yellow,I
414.0,4.0,4.0,0.0,4.0,4.0,403.4343839157372,4.0,1.0,part_1,,,,,,,,,,,,,yellow,I
83.0,2.0,2.0,0.0,2.0,2.0,287.2348229866475,4.0,1.0,part_1,,,,,,,,,,,,,cyan,diamond
103.0,6.0,2.0,1.0,2.0,2.0,323.9030840341002,4.0,1.0,part_1,,,,,,,,,,,,,orange,cross
120.0,2.0,2.0,0.0,4.0,4.0,312.837383011356,4.0,1.0,part_1,,,,,,,,,,,,,cyan,diamond
0.0,5.0,0.0,1.0,4.0,4.0,292.1640079002827,4.0,1.0,part_1,,,,,,,,,,,,,magenta,circle
26.0,1.0,1.0,0.0,3.0,3.0,354.3712499085814,4.0,1.0,part_1,,,,,,,,,,,,,blue,flipped triangle
188.0,7.0,3.0,1.0,2.0,2.0,373.3198260888457,4.0,1.0,part_1,,,,,,,,,,,,,white,hexagon
0.0,7.0,0.0,1.0,4.0,4.0,301.2619400396943,4.0,1.0,part_1,,,,,,,,,,,,,white,hexagon
384.0,4.0,4.0,0.0,2.0,2.0,407.227684976533,4.0,1.0,part_1,,,,,,,,,,,,,yellow,I
116.0,2.0,2.0,0.0,2.0,2.0,308.5434990935027,4.0,1.0,part_1,,,,,,,,,,,,,cyan,diamond
113.0,6.0,2.0,1.0,2.0,2.0,537.3207970988005,4.0,1.0,part_1,,,,,,,,,,,,,orange,cross
89.0,6.0,2.0,1.0,2.0,2.0,291.5653667878359,4.0,1.0,part_1,,,,,,,,,,,,,orange,cross
393.0,4.0,4.0,0.0,2.0,2.0,300.4210828803479,4.0,1.0,part_1,,,,,,,,,,,,,yellow,I
85.0,2.0,2.0,0.0,1.0,1.0,357.3522260412574,4.0,1.0,part_1,,,,,,,,,,,,,cyan,diamond
86.0,2.0,2.0,0.0,3.0,3.0,342.299890005961,4.0,1.0,part_1,,,,,,,,,,,,,cyan,diamond
413.0,8.0,4.0,1.0,2.0,2.0,752.0702090114355,4.0,1.0,part_1,,,,,,,,,,,,,green,triangle
100.0,2.0,2.0,0.0,2.0,2.0,405.7211140170693,4.0,1.0,part_1,,,,,,,,,,,,,cyan,diamond
91.0,2.0,2.0,0.0,4.0,4.0,536.4073577802628,4.0,1.0,part_1,,,,,,,,,,,,,cyan,diamond
412.0,8.0,4.0,1.0,3.0,3.0,879.8070349730551,4.0,1.0,part_1,,,,,,,,,,,,,green,triangle
404.0,4.0,4.0,0.0,3.0,3.0,404.8012599814683,4.0,1.0,part_1,,,,,,,,,,,,,yellow,I
116.0,6.0,2.0,1.0,4.0,4.0,385.5631740298122,4.0,1.0,part_1,,,,,,,,,,,,,orange,cross
99.0,6.0,2.0,1.0,3.0,3.0,339.8157758638263,4.0,1.0,part_1,,,,,,,,,,,,,orange,cross
65.0,1.0,1.0,0.0,3.0,3.0,366.197326220572,4.0,2.0,part_1,,,,,,,,,,,,,blue,flipped triangle
40.0,1.0,1.0,0.0,1.0,1.0,274.1874537896365,4.0,1.0,part_1,,,,,,,,,,,,,blue,flipped triangle
203.0,7.0,3.0,1.0,3.0,3.0,303.927696775645,4.0,1.0,part_1,,,,,,,,,,,,,white,hexagon
182.0,3.0,3.0,0.0,2.0,2.0,322.5292528513819,4.0,1.0,part_1,,,,,,,,,,,,,gray,square
0.0,8.0,0.0,1.0,1.0,1.0,279.6689050737768,4.0,1.0,part_1,,,,,,,,,,,,,green,triangle
208.0,3.0,3.0,0.0,2.0,2.0,262.7529250457883,4.0,1.0,part_1,,,,,,,,,,,,,gray,square
404.0,8.0,4.0,1.0,2.0,2.0,403.6052350420505,4.0,1.0,part_1,,,,,,,,,,,,,green,triangle
0.0,7.0,0.0,1.0,1.0,1.0,327.2185130044818,4.0,1.0,part_1,,,,,,,,,,,,,white,hexagon
0.0,5.0,0.0,1.0,4.0,4.0,332.2755100671202,4.0,1.0,part_1,,,,,,,,,,,,,magenta,circle
413.0,4.0,4.0,0.0,4.0,4.0,375.3769618924707,4.0,1.0,part_1,,,,,,,,,,,,,yellow,I
56.0,1.0,1.0,0.0,1.0,1.0,358.1411291379481,4.0,1.0,part_1,,,,,,,,,,,,,blue,flipped triangle
184.0,3.0,3.0,0.0,3.0,3.0,288.1860570050776,4.0,1.0,part_1,,,,,,,,,,,,,gray,square
123.0,6.0,2.0,1.0,1.0,1.0,319.8678959161043,4.0,1.0,part_1,,,,,,,,,,,,,orange,cross
177.0,3.0,3.0,0.0,2.0,2.0,378.124913899228,4.0,1.0,part_1,,,,,,,,,,,,,gray,square
38.0,5.0,1.0,1.0,1.0,1.0,382.0189510006457,4.0,1.0,part_1,,,,,,,,,,,,,magenta,circle
37.0,5.0,1.0,1.0,2.0,2.0,522.3123149480671,4.0,2.0,part_1,,,,,,,,,,,,,magenta,circle
68.0,5.0,1.0,1.0,2.0,2.0,292.8677930030972,4.0,1.0,part_1,,,,,,,,,,,,,magenta,circle
36.0,1.0,1.0,0.0,3.0,3.0,361.5474319085479,4.0,1.0,part_1,,,,,,,,,,,,,blue,flipped triangle
98.0,2.0,2.0,0.0,4.0,4.0,401.531791081652,4.0,1.0,part_1,,,,,,,,,,,,,cyan,diamond
0.0,6.0,0.0,1.0,2.0,2.0,577.9064318630844,4.0,1.0,part_1,,,,,,,,,,,,,orange,cross
221.0,7.0,3.0,1.0,2.0,2.0,271.601173793897,4.0,1.0,part_1,,,,,,,,,,,,,white,hexagon
0.0,1.0,0.0,0.0,3.0,3.0,323.346751043573,4.0,1.0,part_1,,,,,,,,,,,,,blue,flipped triangle
0.0,7.0,0.0,1.0,2.0,2.0,287.7782960422337,4.0,1.0,part_1,,,,,,,,,,,,,white,hexagon
176.0,7.0,3.0,1.0,4.0,4.0,426.2840969022363,4.0,2.0,part_1,,,,,,,,,,,,,white,hexagon
0.0,4.0,0.0,0.0,1.0,1.0,305.4061611182987,4.0,1.0,part_1,,,,,,,,,,,,,yellow,I
52.0,1.0,1.0,0.0,4.0,4.0,308.0484629608691,4.0,1.0,part_1,,,,,,,,,,,,,blue,flipped triangle
59.0,5.0,1.0,1.0,1.0,1.0,305.900416104123,4.0,1.0,part_1,,,,,,,,,,,,,magenta,circle
200.0,7.0,3.0,1.0,1.0,1.0,404.248425969854,4.0,1.0,part_1,,,,,,,,,,,,,white,hexagon
194.0,3.0,3.0,0.0,3.0,3.0,340.0119310244918,4.0,1.0,part_1,,,,,,,,,,,,,gray,square
47.0,5.0,1.0,1.0,4.0,4.0,278.0231740325689,4.0,2.0,part_1,,,,,,,,,,,,,magenta,circle
37.0,5.0,1.0,1.0,3.0,3.0,319.8599799070507,4.0,2.0,part_1,,,,,,,,,,,,,magenta,circle
0.0,3.0,0.0,0.0,1.0,1.0,299.2418350186199,4.0,1.0,part_1,,,,,,,,,,,,,gray,square
99.0,2.0,2.0,0.0,4.0,4.0,313.2600949611515,4.0,1.0,part_1,,,,,,,,,,,,,cyan,diamond
91.0,6.0,2.0,1.0,2.0,2.0,271.4891440700739,4.0,2.0,part_1,,,,,,,,,,,,,orange,cross
102.0,6.0,2.0,1.0,2.0,2.0,291.0442189313471,4.0,1.0,part_1,,,,,,,,,,,,,orange,cross
187.0,7.0,3.0,1.0,3.0,3.0,335.9721289016306,4.0,1.0,part_1,,,,,,,,,,,,,white,hexagon
394.0,4.0,4.0,0.0,3.0,3.0,511.77044003270566,4.0,1.0,part_1,,,,,,,,,,,,,yellow,I
102.0,2.0,2.0,0.0,3.0,3.0,860.0846971385181,4.0,1.0,part_1,,,,,,,,,,,,,cyan,diamond
380.0,8.0,4.0,1.0,1.0,1.0,310.8439340721816,4.0,1.0,part_1,,,,,,,,,,,,,green,triangle
187.0,3.0,3.0,0.0,4.0,4.0,389.2904007807374,4.0,1.0,part_1,,,,,,,,,,,,,gray,square
399.0,4.0,4.0,0.0,3.0,3.0,651.488107861951,4.0,1.0,part_1,,,,,,,,,,,,,yellow,I
65.0,5.0,1.0,1.0,3.0,3.0,469.6485381573438,4.0,1.0,part_1,,,,,,,,,,,,,magenta,circle
0.0,3.0,0.0,0.0,3.0,3.0,293.6496718320995,4.0,3.0,part_1,,,,,,,,,,,,,gray,square
202.0,3.0,3.0,0.0,2.0,2.0,296.1272560060024,4.0,1.0,part_1,,,,,,,,,,,,,gray,square
395.0,4.0,4.0,0.0,2.0,2.0,284.1661348938942,4.0,1.0,part_1,,,,,,,,,,,,,yellow,I
116.0,6.0,2.0,1.0,1.0,1.0,349.5992948301136,4.0,2.0,part_1,,,,,,,,,,,,,orange,cross
425.0,8.0,4.0,1.0,4.0,4.0,321.5924939140677,4.0,1.0,part_1,,,,,,,,,,,,,green,triangle
0.0,7.0,0.0,1.0,4.0,4.0,387.0660590473562,4.0,2.0,part_1,,,,,,,,,,,,,white,hexagon
377.0,8.0,4.0,1.0,1.0,1.0,324.5145420078188,4.0,2.0,part_1,,,,,,,,,,,,,green,triangle
0.0,6.0,0.0,1.0,3.0,3.0,339.21217196621,4.0,1.0,part_1,,,,,,,,,,,,,orange,cross
403.0,4.0,4.0,0.0,1.0,1.0,263.2849290966987,4.0,1.0,part_1,,,,,,,,,,,,,yellow,I
68.0,1.0,1.0,0.0,4.0,4.0,381.139543838799,4.0,1.0,part_1,,,,,,,,,,,,,blue,flipped triangle
387.0,4.0,4.0,0.0,4.0,4.0,322.0065659843385,4.0,1.0,part_1,,,,,,,,,,,,,yellow,I
413.0,8.0,4.0,1.0,3.0,3.0,342.3683890141547,4.0,1.0,part_1,,,,,,,,,,,,,green,triangle
0.0,3.0,0.0,0.0,2.0,2.0,307.0884388871491,4.0,1.0,part_1,,,,,,,,,,,,,gray,square
216.0,3.0,3.0,0.0,3.0,3.0,337.8071759361774,4.0,2.0,part_1,,,,,,,,,,,,,gray,square
53.0,1.0,1.0,0.0,2.0,2.0,270.1560088898986,4.0,2.0,part_1,,,,,,,,,,,,,blue,flipped triangle
82.0,6.0,2.0,1.0,2.0,2.0,551.5183319803327,4.0,1.0,part_1,,,,,,,,,,,,,orange,cross
176.0,3.0,3.0,0.0,2.0,2.0,0.1691090874373,4.0,2.0,part_1,,,,,,,,,,,,,gray,square
123.0,2.0,2.0,0.0,2.0,2.0,0.17284788191310002,4.0,1.0,part_1,,,,,,,,,,,,,cyan,diamond
94.0,2.0,2.0,0.0,1.0,1.0,357.1712509728968,4.0,3.0,part_1,,,,,,,,,,,,,cyan,diamond
60.0,5.0,1.0,1.0,4.0,4.0,369.6750940289348,4.0,1.0,part_1,,,,,,,,,,,,,magenta,circle
0.0,5.0,1.0,1.0,5.0,5.0,298.2015190646052,1.0,0.0,part_2,go,250.0,250.0,1.0,,,,,,,,,magenta,circle
0.0,6.0,2.0,1.0,5.0,0.0,0.0,1.0,0.0,part_2,stop,250.0,250.0,4.0,,,,,,,,,orange,cross
0.0,7.0,3.0,1.0,6.0,6.0,296.957892132923,1.0,0.0,part_2,stop,300.0,250.0,3.0,,,,,,,,,white,hexagon
0.0,2.0,2.0,0.0,6.0,6.0,398.3744140714407,1.0,0.0,part_2,go,300.0,200.0,1.0,,,,,,,,,cyan,diamond
0.0,1.0,1.0,0.0,6.0,6.0,312.2650841251015,1.0,0.0,part_2,go,300.0,200.0,1.0,,,,,,,,,blue,flipped triangle
0.0,6.0,2.0,1.0,6.0,6.0,328.9240589365363,1.0,0.0,part_2,go,300.0,200.0,1.0,,,,,,,,,orange,cross
0.0,6.0,2.0,1.0,6.0,6.0,371.7670191545039,1.0,0.0,part_2,stop,300.0,200.0,3.0,,,,,,,,,orange,cross
0.0,2.0,2.0,0.0,6.0,6.0,460.0520459935069,1.0,0.0,part_2,go,300.0,150.0,1.0,,,,,,,,,cyan,diamond
0.0,8.0,4.0,1.0,5.0,5.0,350.4131638910621,1.0,0.0,part_2,stop,300.0,150.0,3.0,,,,,,,,,green,triangle
0.0,5.0,1.0,1.0,5.0,5.0,339.9776332080364,1.0,0.0,part_2,go,250.0,150.0,1.0,,,,,,,,,magenta,circle
0.0,7.0,3.0,1.0,6.0,6.0,330.2988901268691,1.0,0.0,part_2,stop,250.0,150.0,3.0,,,,,,,,,white,hexagon
0.0,1.0,1.0,0.0,5.0,5.0,283.4230489097535,1.0,0.0,part_2,go,250.0,100.0,1.0,,,,,,,,,blue,flipped triangle
0.0,6.0,2.0,1.0,5.0,0.0,0.0,1.0,0.0,part_2,stop,250.0,100.0,4.0,,,,,,,,,orange,cross
0.0,8.0,4.0,1.0,6.0,6.0,298.1712219770998,1.0,0.0,part_2,go,300.0,100.0,1.0,,,,,,,,,green,triangle
0.0,6.0,2.0,1.0,6.0,0.0,0.0,1.0,0.0,part_2,stop,300.0,100.0,4.0,,,,,,,,,orange,cross
0.0,8.0,4.0,1.0,5.0,5.0,487.6532889902591,1.0,0.0,part_2,go,300.0,150.0,1.0,,,,,,,,,green,triangle
0.0,6.0,2.0,1.0,6.0,6.0,495.6808721181005,1.0,0.0,part_2,go,300.0,150.0,1.0,,,,,,,,,orange,cross
0.0,3.0,3.0,0.0,6.0,6.0,432.7631068881601,1.0,0.0,part_2,go,300.0,150.0,1.0,,,,,,,,,gray,square
0.0,6.0,2.0,1.0,5.0,0.0,0.0,1.0,0.0,part_2,stop,300.0,150.0,4.0,,,,,,,,,orange,cross
0.0,7.0,3.0,1.0,6.0,6.0,296.2519980501383,1.0,0.0,part_2,stop,350.0,150.0,3.0,,,,,,,,,white,hexagon
0.0,3.0,3.0,0.0,5.0,5.0,705.1982709672302,1.0,0.0,part_2,go,350.0,100.0,1.0,,,,,,,,,gray,square
0.0,5.0,1.0,1.0,5.0,5.0,391.9006690848619,1.0,0.0,part_2,stop,350.0,100.0,3.0,,,,,,,,,magenta,circle
0.0,4.0,4.0,0.0,6.0,6.0,686.4835910964757,1.0,0.0,part_2,go,300.0,100.0,1.0,,,,,,,,,yellow,I
0.0,1.0,1.0,0.0,6.0,6.0,517.7051769569516,1.0,0.0,part_2,go,300.0,100.0,1.0,,,,,,,,,blue,flipped triangle
0.0,8.0,4.0,1.0,5.0,5.0,468.7930720392614,1.0,0.0,part_2,stop,300.0,100.0,3.0,,,,,,,,,green,triangle
0.0,4.0,4.0,0.0,5.0,5.0,540.4850770719349,1.0,0.0,part_2,go,250.0,100.0,1.0,,,,,,,,,yellow,I
0.0,8.0,4.0,1.0,5.0,0.0,0.0,1.0,0.0,part_2,stop,250.0,100.0,4.0,,,,,,,,,green,triangle
0.0,1.0,1.0,0.0,5.0,5.0,593.0536629166454,1.0,0.0,part_2,go,300.0,100.0,1.0,,,,,,,,,blue,flipped triangle
0.0,1.0,1.0,0.0,5.0,5.0,392.2754321247339,1.0,0.0,part_2,go,300.0,100.0,1.0,,,,,,,,,blue,flipped triangle
0.0,6.0,2.0,1.0,5.0,5.0,384.212652919814,1.0,0.0,part_2,go,300.0,100.0,1.0,,,,,,,,,orange,cross
0.0,8.0,4.0,1.0,6.0,6.0,312.6575159840286,1.0,0.0,part_2,stop,300.0,100.0,3.0,,,,,,,,,green,triangle
0.0,6.0,2.0,1.0,6.0,0.0,0.0,1.0,0.0,part_2,stop,300.0,50.0,4.0,,,,,,,,,orange,cross
0.0,7.0,3.0,1.0,6.0,0.0,0.0,1.0,0.0,part_2,stop,300.0,100.0,4.0,,,,,,,,,white,hexagon
0.0,4.0,4.0,0.0,5.0,5.0,333.6988058872521,1.0,0.0,part_2,go,300.0,150.0,1.0,,,,,,,,,yellow,I
0.0,1.0,1.0,0.0,6.0,6.0,349.1449090652168,1.0,0.0,part_2,go,300.0,150.0,1.0,,,,,,,,,blue,flipped triangle
0.0,1.0,1.0,0.0,5.0,5.0,349.9167740810662,1.0,0.0,part_2,go,300.0,150.0,1.0,,,,,,,,,blue,flipped triangle
0.0,4.0,4.0,0.0,6.0,6.0,500.4807719960809,2.0,0.0,part_2,go,300.0,150.0,1.0,,,,,,,,,yellow,I
0.0,4.0,4.0,0.0,6.0,6.0,311.6434330586344,2.0,0.0,part_2,go,300.0,150.0,1.0,,,,,,,,,yellow,I
0.0,4.0,4.0,0.0,5.0,5.0,323.1199288275093,2.0,0.0,part_2,go,300.0,150.0,1.0,,,,,,,,,yellow,I
0.0,2.0,2.0,0.0,5.0,5.0,413.7212990317493,2.0,0.0,part_2,go,300.0,150.0,1.0,,,,,,,,,cyan,diamond
0.0,2.0,2.0,0.0,5.0,5.0,380.0052478909492,2.0,0.0,part_2,go,300.0,150.0,1.0,,,,,,,,,cyan,diamond
0.0,3.0,3.0,0.0,5.0,5.0,314.7216439247131,2.0,0.0,part_2,go,300.0,150.0,1.0,,,,,,,,,gray,square
0.0,6.0,2.0,1.0,6.0,6.0,333.0942299216985,2.0,0.0,part_2,stop,300.0,150.0,3.0,,,,,,,,,orange,cross
0.0,1.0,1.0,0.0,6.0,6.0,336.4265118725598,2.0,0.0,part_2,go,300.0,100.0,1.0,,,,,,,,,blue,flipped triangle
0.0,6.0,2.0,1.0,5.0,5.0,337.958401069045,2.0,0.0,part_2,stop,300.0,100.0,3.0,,,,,,,,,orange,cross
0.0,3.0,3.0,0.0,5.0,5.0,411.2584381364286,2.0,0.0,part_2,go,250.0,100.0,1.0,,,,,,,,,gray,square
0.0,5.0,1.0,1.0,6.0,6.0,489.2303510569036,2.0,0.0,part_2,go,250.0,100.0,1.0,,,,,,,,,magenta,circle
0.0,2.0,2.0,0.0,6.0,6.0,358.7007480673492,2.0,0.0,part_2,go,250.0,100.0,1.0,,,,,,,,,cyan,diamond
0.0,8.0,4.0,1.0,6.0,6.0,351.7101570032537,2.0,0.0,part_2,go,250.0,100.0,1.0,,,,,,,,,green,triangle
0.0,1.0,1.0,0.0,6.0,6.0,384.5087958034128,2.0,0.0,part_2,go,250.0,100.0,1.0,,,,,,,,,blue,flipped triangle
0.0,4.0,4.0,0.0,6.0,6.0,318.3875058311969,2.0,0.0,part_2,go,250.0,100.0,1.0,,,,,,,,,yellow,I
0.0,6.0,2.0,1.0,5.0,5.0,327.4415379855782,2.0,0.0,part_2,stop,250.0,100.0,3.0,,,,,,,,,orange,cross
0.0,2.0,2.0,0.0,6.0,6.0,294.7478960268199,2.0,0.0,part_2,go,200.0,100.0,1.0,,,,,,,,,cyan,diamond
0.0,8.0,4.0,1.0,6.0,0.0,0.0,2.0,0.0,part_2,stop,200.0,100.0,4.0,,,,,,,,,green,triangle
0.0,5.0,1.0,1.0,6.0,6.0,397.7079968899488,2.0,0.0,part_2,go,200.0,150.0,1.0,,,,,,,,,magenta,circle
0.0,5.0,1.0,1.0,6.0,6.0,353.9284688886255,2.0,0.0,part_2,stop,200.0,150.0,3.0,,,,,,,,,magenta,circle
0.0,6.0,2.0,1.0,5.0,0.0,0.0,2.0,0.0,part_2,stop,200.0,100.0,4.0,,,,,,,,,orange,cross
0.0,4.0,4.0,0.0,6.0,6.0,529.1005908511579,2.0,0.0,part_2,go,250.0,100.0,1.0,,,,,,,,,yellow,I
0.0,1.0,1.0,0.0,6.0,6.0,338.4139840491116,2.0,0.0,part_2,go,250.0,100.0,1.0,,,,,,,,,blue,flipped triangle
0.0,6.0,2.0,1.0,6.0,0.0,0.0,2.0,0.0,part_2,stop,250.0,100.0,4.0,,,,,,,,,orange,cross
0.0,8.0,4.0,1.0,5.0,5.0,307.1134169586003,2.0,0.0,part_2,stop,250.0,150.0,3.0,,,,,,,,,green,triangle
0.0,5.0,1.0,1.0,5.0,0.0,0.0,2.0,0.0,part_2,stop,200.0,150.0,4.0,,,,,,,,,magenta,circle
0.0,2.0,2.0,0.0,5.0,5.0,542.4752940889448,2.0,0.0,part_2,go,250.0,150.0,1.0,,,,,,,,,cyan,diamond
0.0,5.0,1.0,1.0,5.0,0.0,0.0,2.0,0.0,part_2,stop,250.0,150.0,4.0,,,,,,,,,magenta,circle
0.0,2.0,2.0,0.0,5.0,5.0,861.8271220475435,2.0,0.0,part_2,go,300.0,150.0,1.0,,,,,,,,,cyan,diamond
0.0,4.0,4.0,0.0,6.0,6.0,468.3671779930591,2.0,0.0,part_2,go,300.0,150.0,1.0,,,,,,,,,yellow,I
0.0,8.0,4.0,1.0,5.0,5.0,414.2668379936367,2.0,0.0,part_2,stop,300.0,150.0,3.0,,,,,,,,,green,triangle
0.0,8.0,4.0,1.0,5.0,0.0,0.0,2.0,0.0,part_2,stop,250.0,150.0,4.0,,,,,,,,,green,triangle
0.0,2.0,2.0,0.0,6.0,6.0,466.8873429764062,2.0,0.0,part_2,go,300.0,150.0,1.0,,,,,,,,,cyan,diamond
0.0,7.0,3.0,1.0,6.0,0.0,0.0,2.0,0.0,part_2,stop,300.0,150.0,4.0,,,,,,,,,white,hexagon
0.0,5.0,1.0,1.0,6.0,6.0,621.9387489836663,2.0,0.0,part_2,go,300.0,200.0,1.0,,,,,,,,,magenta,circle
0.0,1.0,1.0,0.0,6.0,6.0,474.2896358948201,2.0,0.0,part_2,go,300.0,200.0,1.0,,,,,,,,,blue,flipped triangle
0.0,2.0,2.0,0.0,6.0,6.0,842.1681919135153,3.0,0.0,part_2,go,300.0,200.0,1.0,,,,,,,,,cyan,diamond
0.0,6.0,2.0,1.0,5.0,0.0,0.0,3.0,0.0,part_2,stop,300.0,200.0,4.0,,,,,,,,,orange,cross
0.0,7.0,3.0,1.0,5.0,0.0,0.0,3.0,0.0,part_2,stop,350.0,200.0,4.0,,,,,,,,,white,hexagon
0.0,4.0,4.0,0.0,6.0,6.0,439.8249790538102,3.0,0.0,part_2,go,400.0,200.0,1.0,,,,,,,,,yellow,I
0.0,5.0,1.0,1.0,5.0,5.0,516.0920021589845,3.0,0.0,part_2,stop,400.0,200.0,3.0,,,,,,,,,magenta,circle
0.0,6.0,2.0,1.0,6.0,6.0,357.4094590730965,3.0,0.0,part_2,stop,350.0,200.0,3.0,,,,,,,,,orange,cross
0.0,2.0,2.0,0.0,5.0,5.0,570.9151388145983,3.0,0.0,part_2,go,350.0,150.0,1.0,,,,,,,,,cyan,diamond
0.0,4.0,4.0,0.0,6.0,6.0,524.474835023284,3.0,0.0,part_2,go,350.0,150.0,1.0,,,,,,,,,yellow,I
0.0,7.0,3.0,1.0,5.0,0.0,0.0,3.0,0.0,part_2,stop,350.0,150.0,4.0,,,,,,,,,white,hexagon
0.0,5.0,1.0,1.0,5.0,5.0,505.06153306923807,3.0,0.0,part_2,stop,400.0,150.0,3.0,,,,,,,,,magenta,circle
0.0,3.0,3.0,0.0,6.0,6.0,544.9012508615851,3.0,0.0,part_2,go,350.0,150.0,1.0,,,,,,,,,gray,square
0.0,8.0,4.0,1.0,5.0,0.0,0.0,3.0,0.0,part_2,stop,350.0,150.0,4.0,,,,,,,,,green,triangle
0.0,4.0,4.0,0.0,5.0,5.0,591.4926000405103,3.0,0.0,part_2,go,400.0,150.0,1.0,,,,,,,,,yellow,I
0.0,1.0,1.0,0.0,6.0,6.0,394.5388339925557,3.0,0.0,part_2,go,400.0,150.0,1.0,,,,,,,,,blue,flipped triangle
0.0,8.0,4.0,1.0,6.0,0.0,0.0,3.0,0.0,part_2,stop,400.0,150.0,4.0,,,,,,,,,green,triangle
0.0,6.0,2.0,1.0,5.0,5.0,535.4897840879858,3.0,0.0,part_2,stop,400.0,200.0,3.0,,,,,,,,,orange,cross
0.0,4.0,4.0,0.0,5.0,5.0,704.0291598532349,3.0,0.0,part_2,go,350.0,200.0,1.0,,,,,,,,,yellow,I
0.0,2.0,2.0,0.0,6.0,6.0,796.9058610033244,3.0,0.0,part_2,go,350.0,200.0,1.0,,,,,,,,,cyan,diamond
0.0,6.0,2.0,1.0,5.0,5.0,262.7762109041214,3.0,0.0,part_2,stop,350.0,200.0,3.0,,,,,,,,,orange,cross
0.0,6.0,2.0,1.0,6.0,0.0,0.0,3.0,0.0,part_2,stop,300.0,200.0,4.0,,,,,,,,,orange,cross
0.0,6.0,2.0,1.0,5.0,0.0,0.0,3.0,0.0,part_2,stop,300.0,250.0,4.0,,,,,,,,,orange,cross
0.0,4.0,4.0,0.0,5.0,5.0,466.4363069459796,3.0,0.0,part_2,go,350.0,250.0,1.0,,,,,,,,,yellow,I
0.0,7.0,3.0,1.0,5.0,0.0,0.0,3.0,0.0,part_2,stop,350.0,250.0,4.0,,,,,,,,,white,hexagon
0.0,4.0,4.0,0.0,6.0,6.0,483.8647099677473,3.0,0.0,part_2,go,400.0,250.0,1.0,,,,,,,,,yellow,I
0.0,5.0,1.0,1.0,6.0,0.0,0.0,3.0,0.0,part_2,stop,400.0,250.0,4.0,,,,,,,,,magenta,circle
0.0,2.0,2.0,0.0,5.0,5.0,466.7420091573149,3.0,0.0,part_2,go,400.0,300.0,1.0,,,,,,,,,cyan,diamond
0.0,3.0,3.0,0.0,5.0,5.0,455.5539079010486,3.0,0.0,part_2,go,400.0,300.0,1.0,,,,,,,,,gray,square
0.0,7.0,3.0,1.0,5.0,5.0,783.3338549826294,3.0,0.0,part_2,go,400.0,300.0,1.0,,,,,,,,,white,hexagon
0.0,4.0,4.0,0.0,6.0,6.0,454.6637090388685,3.0,0.0,part_2,go,400.0,300.0,1.0,,,,,,,,,yellow,I
0.0,6.0,2.0,1.0,6.0,0.0,0.0,3.0,0.0,part_2,stop,400.0,300.0,4.0,,,,,,,,,orange,cross
0.0,1.0,1.0,0.0,5.0,5.0,545.843651983887,3.0,0.0,part_2,go,400.0,350.0,1.0,,,,,,,,,blue,flipped triangle
0.0,7.0,3.0,1.0,6.0,0.0,0.0,3.0,0.0,part_2,stop,400.0,350.0,4.0,,,,,,,,,white,hexagon
0.0,2.0,2.0,0.0,6.0,6.0,527.4646619800478,3.0,0.0,part_2,go,400.0,400.0,1.0,,,,,,,,,cyan,diamond
0.0,5.0,1.0,1.0,5.0,5.0,773.735657799989,3.0,0.0,part_2,go,400.0,400.0,1.0,,,,,,,,,magenta,circle
0.0,8.0,4.0,1.0,5.0,5.0,502.2956938482821,3.0,0.0,part_2,stop,400.0,400.0,3.0,,,,,,,,,green,triangle
0.0,3.0,3.0,0.0,5.0,5.0,419.1732630133629,3.0,0.0,part_2,go,350.0,400.0,1.0,,,,,,,,,gray,square
0.0,5.0,1.0,1.0,6.0,6.0,677.6283821091056,4.0,0.0,part_2,stop,350.0,400.0,3.0,,,,,,,,,magenta,circle
0.0,3.0,3.0,0.0,5.0,5.0,568.6814240179956,4.0,0.0,part_2,go,350.0,350.0,1.0,,,,,,,,,gray,square
0.0,3.0,3.0,0.0,5.0,5.0,538.6082311160862,4.0,0.0,part_2,go,350.0,350.0,1.0,,,,,,,,,gray,square
0.0,1.0,1.0,0.0,5.0,5.0,362.8605229314416,4.0,0.0,part_2,go,350.0,350.0,1.0,,,,,,,,,blue,flipped triangle
0.0,7.0,3.0,1.0,5.0,5.0,338.789050001651,4.0,0.0,part_2,stop,350.0,350.0,3.0,,,,,,,,,white,hexagon
0.0,2.0,2.0,0.0,5.0,5.0,319.6671560872346,4.0,0.0,part_2,go,300.0,350.0,1.0,,,,,,,,,cyan,diamond
0.0,4.0,4.0,0.0,6.0,6.0,358.5164661053568,4.0,0.0,part_2,go,300.0,350.0,1.0,,,,,,,,,yellow,I
0.0,2.0,2.0,0.0,5.0,5.0,269.5601948071271,4.0,0.0,part_2,go,300.0,350.0,1.0,,,,,,,,,cyan,diamond
0.0,4.0,4.0,0.0,5.0,5.0,471.8387969769537,4.0,0.0,part_2,go,300.0,350.0,1.0,,,,,,,,,yellow,I
0.0,5.0,1.0,1.0,6.0,6.0,390.1878439355641,4.0,0.0,part_2,stop,300.0,350.0,3.0,,,,,,,,,magenta,circle
0.0,3.0,3.0,0.0,5.0,5.0,339.812443125993,4.0,0.0,part_2,go,300.0,300.0,1.0,,,,,,,,,gray,square
0.0,6.0,2.0,1.0,5.0,5.0,332.6072329655289,4.0,0.0,part_2,go,300.0,300.0,1.0,,,,,,,,,orange,cross
0.0,3.0,3.0,0.0,5.0,5.0,459.3737148679793,4.0,0.0,part_2,go,300.0,300.0,1.0,,,,,,,,,gray,square
0.0,7.0,3.0,1.0,5.0,5.0,443.4056498575955,4.0,0.0,part_2,stop,300.0,300.0,3.0,,,,,,,,,white,hexagon
0.0,8.0,4.0,1.0,6.0,0.0,0.0,4.0,0.0,part_2,stop,250.0,300.0,4.0,,,,,,,,,green,triangle
0.0,2.0,2.0,0.0,5.0,5.0,453.1717009376734,4.0,0.0,part_2,go,250.0,350.0,1.0,,,,,,,,,cyan,diamond
0.0,3.0,3.0,0.0,6.0,6.0,642.8497319575399,4.0,0.0,part_2,go,250.0,350.0,1.0,,,,,,,,,gray,square
0.0,7.0,3.0,1.0,5.0,0.0,0.0,4.0,0.0,part_2,stop,250.0,350.0,4.0,,,,,,,,,white,hexagon
0.0,3.0,3.0,0.0,6.0,6.0,634.3857729807496,4.0,0.0,part_2,go,300.0,350.0,1.0,,,,,,,,,gray,square
0.0,2.0,2.0,0.0,6.0,6.0,530.2895389031619,4.0,0.0,part_2,go,300.0,350.0,1.0,,,,,,,,,cyan,diamond
0.0,5.0,1.0,1.0,5.0,0.0,0.0,4.0,0.0,part_2,stop,300.0,350.0,4.0,,,,,,,,,magenta,circle
0.0,5.0,1.0,1.0,6.0,6.0,673.0009499005973,4.0,0.0,part_2,go,350.0,350.0,1.0,,,,,,,,,magenta,circle
0.0,1.0,1.0,0.0,5.0,5.0,672.8952319826931,4.0,0.0,part_2,go,350.0,350.0,1.0,,,,,,,,,blue,flipped triangle
0.0,7.0,3.0,1.0,5.0,5.0,800.819223979488,4.0,0.0,part_2,go,350.0,350.0,1.0,,,,,,,,,white,hexagon
0.0,7.0,3.0,1.0,5.0,5.0,390.4685298912227,4.0,0.0,part_2,go,350.0,350.0,1.0,,,,,,,,,white,hexagon
0.0,2.0,2.0,0.0,6.0,6.0,508.17089597694576,4.0,0.0,part_2,go,350.0,350.0,1.0,,,,,,,,,cyan,diamond
0.0,7.0,3.0,1.0,6.0,6.0,443.6556808650493,4.0,0.0,part_2,stop,350.0,350.0,3.0,,,,,,,,,white,hexagon
0.0,6.0,2.0,1.0,5.0,5.0,658.8201250415295,4.0,0.0,part_2,go,350.0,300.0,1.0,,,,,,,,,orange,cross
0.0,2.0,2.0,0.0,5.0,5.0,506.27173692919314,4.0,0.0,part_2,go,350.0,300.0,1.0,,,,,,,,,cyan,diamond
0.0,4.0,4.0,0.0,5.0,5.0,522.4838589783758,4.0,0.0,part_2,go,350.0,300.0,1.0,,,,,,,,,yellow,I
0.0,2.0,2.0,0.0,6.0,6.0,451.5161199960857,4.0,0.0,part_2,go,350.0,300.0,1.0,,,,,,,,,cyan,diamond
0.0,8.0,4.0,1.0,6.0,6.0,424.2709600366652,4.0,0.0,part_2,stop,350.0,300.0,3.0,,,,,,,,,green,triangle
0.0,3.0,3.0,0.0,5.0,5.0,505.7880368549377,4.0,0.0,part_2,go,350.0,250.0,1.0,,,,,,,,,gray,square
0.0,5.0,1.0,1.0,6.0,0.0,0.0,4.0,0.0,part_2,stop,350.0,250.0,4.0,,,,,,,,,magenta,circle
0.0,8.0,4.0,1.0,6.0,0.0,0.0,4.0,0.0,part_2,stop,350.0,300.0,4.0,,,,,,,,,green,triangle
0.0,4.0,4.0,0.0,5.0,5.0,496.1672448553145,4.0,0.0,part_2,go,350.0,350.0,1.0,,,,,,,,,yellow,I
0.0,3.0,3.0,0.0,5.0,5.0,600.3214798402041,5.0,0.0,part_2,go,350.0,350.0,1.0,,,,,,,,,gray,square
0.0,1.0,1.0,0.0,5.0,5.0,398.1313100084662,5.0,0.0,part_2,go,350.0,350.0,1.0,,,,,,,,,blue,flipped triangle
0.0,3.0,3.0,0.0,6.0,6.0,293.8307260628789,5.0,0.0,part_2,go,350.0,350.0,1.0,,,,,,,,,gray,square
0.0,6.0,2.0,1.0,5.0,5.0,312.2103160712868,5.0,0.0,part_2,stop,350.0,350.0,3.0,,,,,,,,,orange,cross
0.0,3.0,3.0,0.0,6.0,6.0,403.749356046319,5.0,0.0,part_2,go,300.0,350.0,1.0,,,,,,,,,gray,square
0.0,1.0,1.0,0.0,5.0,5.0,395.1566820032894,5.0,0.0,part_2,go,300.0,350.0,1.0,,,,,,,,,blue,flipped triangle
0.0,7.0,3.0,1.0,6.0,6.0,292.031860910356,5.0,0.0,part_2,stop,300.0,350.0,3.0,,,,,,,,,white,hexagon
0.0,2.0,2.0,0.0,6.0,6.0,323.8749019801616,5.0,0.0,part_2,go,300.0,300.0,1.0,,,,,,,,,cyan,diamond
0.0,4.0,4.0,0.0,6.0,6.0,298.0153830721974,5.0,0.0,part_2,go,300.0,300.0,1.0,,,,,,,,,yellow,I
0.0,4.0,4.0,0.0,6.0,6.0,312.5355429947376,5.0,0.0,part_2,go,300.0,300.0,1.0,,,,,,,,,yellow,I
0.0,7.0,3.0,1.0,5.0,5.0,319.1161821596324,5.0,0.0,part_2,stop,300.0,300.0,3.0,,,,,,,,,white,hexagon
0.0,1.0,1.0,0.0,6.0,6.0,315.6302471179515,5.0,0.0,part_2,go,250.0,300.0,1.0,,,,,,,,,blue,flipped triangle
0.0,4.0,4.0,0.0,5.0,5.0,264.3940260168165,5.0,0.0,part_2,go,250.0,300.0,1.0,,,,,,,,,yellow,I
0.0,7.0,3.0,1.0,5.0,5.0,382.6533849351108,5.0,0.0,part_2,go,250.0,300.0,1.0,,,,,,,,,white,hexagon
0.0,4.0,4.0,0.0,5.0,5.0,328.9296401198953,5.0,0.0,part_2,go,250.0,300.0,1.0,,,,,,,,,yellow,I
0.0,1.0,1.0,0.0,5.0,5.0,333.3673188462853,5.0,0.0,part_2,go,250.0,300.0,1.0,,,,,,,,,blue,flipped triangle
0.0,2.0,2.0,0.0,5.0,5.0,348.9454300142824,5.0,0.0,part_2,go,250.0,300.0,1.0,,,,,,,,,cyan,diamond
0.0,4.0,4.0,0.0,6.0,6.0,357.1502629201859,5.0,0.0,part_2,go,250.0,300.0,1.0,,,,,,,,,yellow,I
0.0,6.0,2.0,1.0,5.0,5.0,351.0828691069036,5.0,0.0,part_2,go,250.0,300.0,1.0,,,,,,,,,orange,cross
0.0,8.0,4.0,1.0,6.0,6.0,286.3343511708081,5.0,0.0,part_2,stop,250.0,300.0,3.0,,,,,,,,,green,triangle
0.0,8.0,4.0,1.0,5.0,5.0,314.644361147657,5.0,0.0,part_2,stop,250.0,250.0,3.0,,,,,,,,,green,triangle
0.0,8.0,4.0,1.0,6.0,0.0,0.0,5.0,0.0,part_2,stop,200.0,250.0,4.0,,,,,,,,,green,triangle
0.0,2.0,2.0,0.0,5.0,5.0,377.4349640589207,5.0,0.0,part_2,go,200.0,300.0,1.0,,,,,,,,,cyan,diamond
0.0,5.0,1.0,1.0,5.0,5.0,402.7056728955358,5.0,0.0,part_2,stop,200.0,300.0,3.0,,,,,,,,,magenta,circle
0.0,3.0,3.0,0.0,6.0,6.0,609.8908111453056,5.0,0.0,part_2,go,150.0,300.0,1.0,,,,,,,,,gray,square
0.0,1.0,1.0,0.0,5.0,5.0,570.7029870245606,5.0,0.0,part_2,go,150.0,300.0,1.0,,,,,,,,,blue,flipped triangle
0.0,2.0,2.0,0.0,6.0,6.0,305.5283569265157,5.0,0.0,part_2,go,150.0,300.0,1.0,,,,,,,,,cyan,diamond
0.0,3.0,3.0,0.0,6.0,6.0,343.785640085116,5.0,0.0,part_2,go,150.0,300.0,1.0,,,,,,,,,gray,square
0.0,3.0,3.0,0.0,6.0,6.0,409.4768050126731,5.0,0.0,part_2,go,150.0,300.0,1.0,,,,,,,,,gray,square
0.0,2.0,2.0,0.0,6.0,6.0,405.9012411162257,5.0,0.0,part_2,go,150.0,300.0,1.0,,,,,,,,,cyan,diamond
0.0,8.0,4.0,1.0,5.0,5.0,326.0120749473572,5.0,0.0,part_2,stop,150.0,300.0,3.0,,,,,,,,,green,triangle
0.0,3.0,3.0,0.0,6.0,6.0,301.558590028435,5.0,0.0,part_2,go,100.0,300.0,1.0,,,,,,,,,gray,square
0.0,5.0,1.0,1.0,5.0,0.0,0.0,5.0,0.0,part_2,stop,100.0,300.0,4.0,,,,,,,,,magenta,circle
0.0,7.0,3.0,1.0,5.0,5.0,603.5859500989318,5.0,0.0,part_2,go,150.0,300.0,1.0,,,,,,,,,white,hexagon
0.0,4.0,4.0,0.0,5.0,5.0,514.8404359351844,5.0,0.0,part_2,go,150.0,300.0,1.0,,,,,,,,,yellow,I
0.0,7.0,3.0,1.0,6.0,6.0,411.5660160314291,5.0,0.0,part_2,stop,150.0,300.0,3.0,,,,,,,,,white,hexagon
0.0,4.0,4.0,0.0,6.0,6.0,514.4920439925045,6.0,0.0,part_2,go,150.0,250.0,1.0,,,,,,,,,yellow,I
0.0,3.0,3.0,0.0,6.0,6.0,447.0191190484911,6.0,0.0,part_2,go,150.0,250.0,1.0,,,,,,,,,gray,square
0.0,3.0,3.0,0.0,5.0,5.0,311.7155579384416,6.0,0.0,part_2,go,150.0,250.0,1.0,,,,,,,,,gray,square
0.0,7.0,3.0,1.0,5.0,0.0,0.0,6.0,0.0,part_2,stop,150.0,250.0,4.0,,,,,,,,,white,hexagon
0.0,8.0,4.0,1.0,6.0,6.0,470.5864039715379,6.0,0.0,part_2,stop,200.0,250.0,3.0,,,,,,,,,green,triangle
0.0,5.0,1.0,1.0,6.0,0.0,0.0,6.0,0.0,part_2,stop,200.0,200.0,4.0,,,,,,,,,magenta,circle
0.0,6.0,2.0,1.0,5.0,5.0,694.9208229780197,6.0,0.0,part_2,go,200.0,250.0,1.0,,,,,,,,,orange,cross
0.0,1.0,1.0,0.0,6.0,6.0,683.1066820304841,6.0,0.0,part_2,go,200.0,250.0,1.0,,,,,,,,,blue,flipped triangle
0.0,5.0,1.0,1.0,5.0,0.0,0.0,6.0,0.0,part_2,stop,200.0,250.0,4.0,,,,,,,,,magenta,circle
0.0,6.0,2.0,1.0,6.0,0.0,0.0,6.0,0.0,part_2,stop,250.0,250.0,4.0,,,,,,,,,orange,cross
0.0,7.0,3.0,1.0,6.0,6.0,577.8960918541998,6.0,0.0,part_2,go,250.0,300.0,1.0,,,,,,,,,white,hexagon
0.0,5.0,1.0,1.0,6.0,6.0,474.856189917773,6.0,0.0,part_2,stop,250.0,300.0,3.0,,,,,,,,,magenta,circle
0.0,7.0,3.0,1.0,5.0,0.0,0.0,6.0,0.0,part_2,stop,250.0,250.0,4.0,,,,,,,,,white,hexagon
0.0,2.0,2.0,0.0,6.0,6.0,512.7331290859729,6.0,0.0,part_2,go,300.0,250.0,1.0,,,,,,,,,cyan,diamond
0.0,7.0,3.0,1.0,5.0,0.0,0.0,6.0,0.0,part_2,stop,300.0,250.0,4.0,,,,,,,,,white,hexagon
0.0,2.0,2.0,0.0,6.0,6.0,570.1443920843303,6.0,0.0,part_2,go,350.0,250.0,1.0,,,,,,,,,cyan,diamond
0.0,6.0,2.0,1.0,6.0,0.0,0.0,6.0,0.0,part_2,stop,350.0,250.0,4.0,,,,,,,,,orange,cross
0.0,6.0,2.0,1.0,6.0,6.0,479.9326949287206,6.0,0.0,part_2,stop,350.0,300.0,3.0,,,,,,,,,orange,cross
0.0,1.0,1.0,0.0,5.0,5.0,533.1889281515032,6.0,0.0,part_2,go,350.0,250.0,1.0,,,,,,,,,blue,flipped triangle
0.0,8.0,4.0,1.0,5.0,5.0,661.6261880844831,6.0,0.0,part_2,go,350.0,250.0,1.0,,,,,,,,,green,triangle
0.0,6.0,2.0,1.0,5.0,0.0,0.0,6.0,0.0,part_2,stop,350.0,250.0,4.0,,,,,,,,,orange,cross
0.0,2.0,2.0,0.0,6.0,6.0,532.2581920772791,6.0,0.0,part_2,go,400.0,250.0,1.0,,,,,,,,,cyan,diamond
0.0,1.0,1.0,0.0,5.0,5.0,669.6232610847801,6.0,0.0,part_2,go,400.0,250.0,1.0,,,,,,,,,blue,flipped triangle
0.0,2.0,2.0,0.0,5.0,5.0,523.0161440558732,6.0,0.0,part_2,go,400.0,250.0,1.0,,,,,,,,,cyan,diamond
0.0,8.0,4.0,1.0,6.0,6.0,506.30964897572994,6.0,0.0,part_2,go,400.0,250.0,1.0,,,,,,,,,green,triangle
0.0,4.0,4.0,0.0,5.0,5.0,395.890112966299,6.0,0.0,part_2,go,400.0,250.0,1.0,,,,,,,,,yellow,I
0.0,5.0,1.0,1.0,5.0,5.0,628.2245039474219,6.0,0.0,part_2,go,400.0,250.0,1.0,,,,,,,,,magenta,circle
0.0,3.0,3.0,0.0,6.0,6.0,393.7601430807262,6.0,0.0,part_2,go,400.0,250.0,1.0,,,,,,,,,gray,square
0.0,7.0,3.0,1.0,6.0,6.0,433.1170141231268,6.0,0.0,part_2,stop,400.0,250.0,3.0,,,,,,,,,white,hexagon
0.0,5.0,1.0,1.0,5.0,5.0,506.15657214075327,6.0,0.0,part_2,stop,400.0,200.0,3.0,,,,,,,,,magenta,circle
0.0,8.0,4.0,1.0,5.0,0.0,0.0,6.0,0.0,part_2,stop,350.0,200.0,4.0,,,,,,,,,green,triangle
0.0,7.0,3.0,1.0,6.0,6.0,711.8401401676238,6.0,0.0,part_2,go,400.0,200.0,1.0,,,,,,,,,white,hexagon
0.0,8.0,4.0,1.0,6.0,0.0,0.0,6.0,0.0,part_2,stop,400.0,200.0,4.0,,,,,,,,,green,triangle
0.0,7.0,3.0,1.0,6.0,6.0,605.6605170015246,6.0,0.0,part_2,go,400.0,250.0,1.0,,,,,,,,,white,hexagon
0.0,6.0,2.0,1.0,6.0,0.0,0.0,6.0,0.0,part_2,stop,400.0,250.0,4.0,,,,,,,,,orange,cross
0.0,2.0,2.0,0.0,5.0,5.0,558.9579748921096,6.0,0.0,part_2,go,400.0,300.0,1.0,,,,,,,,,cyan,diamond
0.0,7.0,3.0,1.0,6.0,0.0,0.0,7.0,0.0,part_2,stop,400.0,300.0,4.0,,,,,,,,,white,hexagon
0.0,8.0,4.0,1.0,6.0,6.0,479.8627058044076,7.0,0.0,part_2,go,400.0,350.0,1.0,,,,,,,,,green,triangle
0.0,2.0,2.0,0.0,5.0,5.0,405.1026420202106,7.0,0.0,part_2,go,400.0,350.0,1.0,,,,,,,,,cyan,diamond
0.0,5.0,1.0,1.0,6.0,0.0,0.0,7.0,0.0,part_2,stop,400.0,350.0,4.0,,,,,,,,,magenta,circle
0.0,6.0,2.0,1.0,6.0,6.0,557.1784239728004,7.0,0.0,part_2,stop,400.0,400.0,3.0,,,,,,,,,orange,cross
0.0,8.0,4.0,1.0,5.0,5.0,454.21938691288227,7.0,0.0,part_2,stop,400.0,350.0,3.0,,,,,,,,,green,triangle
0.0,1.0,1.0,0.0,5.0,5.0,747.7594700176269,7.0,0.0,part_2,go,350.0,350.0,1.0,,,,,,,,,blue,flipped triangle
0.0,1.0,1.0,0.0,5.0,5.0,602.4589708540589,7.0,0.0,part_2,go,350.0,350.0,1.0,,,,,,,,,blue,flipped triangle
0.0,8.0,4.0,1.0,5.0,5.0,462.2375518083572,7.0,0.0,part_2,stop,350.0,350.0,3.0,,,,,,,,,green,triangle
0.0,6.0,2.0,1.0,6.0,0.0,0.0,7.0,0.0,part_2,stop,300.0,350.0,4.0,,,,,,,,,orange,cross
0.0,4.0,4.0,0.0,6.0,6.0,572.6874079555273,7.0,0.0,part_2,go,300.0,400.0,1.0,,,,,,,,,yellow,I
0.0,1.0,1.0,0.0,5.0,5.0,363.2914740592241,7.0,0.0,part_2,go,300.0,400.0,1.0,,,,,,,,,blue,flipped triangle
0.0,4.0,4.0,0.0,5.0,5.0,699.6724230702966,7.0,0.0,part_2,go,300.0,400.0,1.0,,,,,,,,,yellow,I
0.0,3.0,3.0,0.0,6.0,6.0,817.5906201358885,7.0,0.0,part_2,go,300.0,400.0,1.0,,,,,,,,,gray,square
0.0,1.0,1.0,0.0,6.0,6.0,481.7344658076763,7.0,0.0,part_2,go,300.0,400.0,1.0,,,,,,,,,blue,flipped triangle
0.0,5.0,1.0,1.0,6.0,6.0,420.8024248946458,7.0,0.0,part_2,stop,300.0,400.0,3.0,,,,,,,,,magenta,circle
0.0,7.0,3.0,1.0,5.0,0.0,0.0,7.0,0.0,part_2,stop,300.0,350.0,4.0,,,,,,,,,white,hexagon
0.0,4.0,4.0,0.0,6.0,6.0,471.8734240159392,7.0,0.0,part_2,go,350.0,350.0,1.0,,,,,,,,,yellow,I
0.0,8.0,4.0,1.0,6.0,0.0,0.0,7.0,0.0,part_2,stop,350.0,350.0,4.0,,,,,,,,,green,triangle
0.0,8.0,4.0,1.0,5.0,0.0,0.0,7.0,0.0,part_2,stop,350.0,400.0,4.0,,,,,,,,,green,triangle
0.0,8.0,4.0,1.0,6.0,6.0,843.0541811976582,7.0,0.0,part_2,go,400.0,400.0,1.0,,,,,,,,,green,triangle
0.0,1.0,1.0,0.0,6.0,6.0,563.6070370674133,7.0,0.0,part_2,go,400.0,400.0,1.0,,,,,,,,,blue,flipped triangle
0.0,3.0,3.0,0.0,6.0,6.0,470.0953220017254,7.0,0.0,part_2,go,400.0,400.0,1.0,,,,,,,,,gray,square
0.0,1.0,1.0,0.0,6.0,6.0,459.13424086757,7.0,0.0,part_2,go,400.0,400.0,1.0,,,,,,,,,blue,flipped triangle
0.0,5.0,1.0,1.0,6.0,6.0,465.1254289783537,7.0,0.0,part_2,stop,400.0,400.0,3.0,,,,,,,,,magenta,circle
0.0,5.0,1.0,1.0,6.0,0.0,0.0,7.0,0.0,part_2,stop,400.0,350.0,4.0,,,,,,,,,magenta,circle
0.0,3.0,3.0,0.0,5.0,5.0,513.1061319261789,7.0,0.0,part_2,go,400.0,400.0,1.0,,,,,,,,,gray,square
0.0,3.0,3.0,0.0,6.0,6.0,545.2880810480565,7.0,0.0,part_2,go,400.0,400.0,1.0,,,,,,,,,gray,square
0.0,3.0,3.0,0.0,6.0,6.0,418.6457030009478,7.0,0.0,part_2,go,400.0,400.0,1.0,,,,,,,,,gray,square
0.0,5.0,1.0,1.0,5.0,5.0,479.1842789854854,7.0,0.0,part_2,stop,400.0,400.0,3.0,,,,,,,,,magenta,circle
0.0,1.0,1.0,0.0,5.0,5.0,493.4254239778965,7.0,0.0,part_2,go,350.0,400.0,1.0,,,,,,,,,blue,flipped triangle
0.0,4.0,4.0,0.0,5.0,5.0,548.9386019762605,7.0,0.0,part_2,go,350.0,400.0,1.0,,,,,,,,,yellow,I
0.0,2.0,2.0,0.0,5.0,5.0,436.5610459353775,7.0,0.0,part_2,go,350.0,400.0,1.0,,,,,,,,,cyan,diamond
0.0,1.0,1.0,0.0,5.0,5.0,630.893412977457,7.0,0.0,part_2,go,350.0,400.0,1.0,,,,,,,,,blue,flipped triangle
0.0,7.0,3.0,1.0,6.0,6.0,443.6934771947562,7.0,0.0,part_2,stop,350.0,400.0,3.0,,,,,,,,,white,hexagon
0.0,4.0,4.0,0.0,6.0,6.0,555.6651600636542,7.0,0.0,part_2,go,350.0,350.0,1.0,,,,,,,,,yellow,I
0.0,3.0,3.0,0.0,5.0,0.0,0.0,8.0,0.0,part_2,go,350.0,350.0,5.0,,,,,,,,,gray,square
0.0,7.0,3.0,1.0,5.0,5.0,463.0499931517988,8.0,0.0,part_2,stop,350.0,350.0,3.0,,,,,,,,,white,hexagon
0.0,4.0,4.0,0.0,5.0,5.0,422.1768549177795,8.0,0.0,part_2,go,300.0,350.0,1.0,,,,,,,,,yellow,I
0.0,1.0,1.0,0.0,6.0,6.0,397.1559240017086,8.0,0.0,part_2,go,300.0,350.0,1.0,,,,,,,,,blue,flipped triangle
0.0,7.0,3.0,1.0,6.0,0.0,0.0,8.0,0.0,part_2,stop,300.0,350.0,4.0,,,,,,,,,white,hexagon
0.0,8.0,4.0,1.0,6.0,6.0,547.7138429414481,8.0,0.0,part_2,stop,300.0,400.0,3.0,,,,,,,,,green,triangle
0.0,7.0,3.0,1.0,6.0,0.0,0.0,8.0,0.0,part_2,stop,300.0,350.0,4.0,,,,,,,,,white,hexagon
0.0,8.0,4.0,1.0,6.0,6.0,744.1009248141199,8.0,0.0,part_2,go,300.0,400.0,1.0,,,,,,,,,green,triangle
0.0,5.0,1.0,1.0,5.0,0.0,0.0,8.0,0.0,part_2,stop,300.0,400.0,4.0,,,,,,,,,magenta,circle
0.0,1.0,1.0,0.0,6.0,6.0,639.1287578735501,8.0,0.0,part_2,go,350.0,400.0,1.0,,,,,,,,,blue,flipped triangle
0.0,6.0,2.0,1.0,6.0,0.0,0.0,8.0,0.0,part_2,stop,350.0,400.0,4.0,,,,,,,,,orange,cross
0.0,5.0,1.0,1.0,5.0,0.0,0.0,8.0,0.0,part_2,stop,350.0,450.0,4.0,,,,,,,,,magenta,circle
0.0,3.0,3.0,0.0,5.0,5.0,641.2456431426108,8.0,0.0,part_2,go,400.0,450.0,1.0,,,,,,,,,gray,square
0.0,2.0,2.0,0.0,5.0,5.0,758.2099179271609,8.0,0.0,part_2,go,400.0,450.0,1.0,,,,,,,,,cyan,diamond
0.0,6.0,2.0,1.0,5.0,5.0,878.0736129265279,8.0,0.0,part_2,go,400.0,450.0,1.0,,,,,,,,,orange,cross
0.0,7.0,3.0,1.0,5.0,5.0,638.3426680695266,8.0,0.0,part_2,go,400.0,450.0,1.0,,,,,,,,,white,hexagon
0.0,7.0,3.0,1.0,6.0,0.0,0.0,8.0,0.0,part_2,stop,400.0,450.0,4.0,,,,,,,,,white,hexagon
0.0,4.0,4.0,0.0,5.0,5.0,603.1609799247235,8.0,0.0,part_2,go,400.0,500.0,1.0,,,,,,,,,yellow,I
0.0,3.0,3.0,0.0,5.0,5.0,715.2552390471101,8.0,0.0,part_2,go,400.0,500.0,1.0,,,,,,,,,gray,square
0.0,5.0,1.0,1.0,6.0,0.0,0.0,8.0,0.0,part_2,stop,400.0,500.0,4.0,,,,,,,,,magenta,circle
0.0,1.0,1.0,0.0,6.0,6.0,1097.1104900818318,8.0,0.0,part_2,go,400.0,550.0,1.0,,,,,,,,,blue,flipped triangle
0.0,4.0,4.0,0.0,5.0,5.0,570.3694990370423,8.0,0.0,part_2,go,400.0,550.0,1.0,,,,,,,,,yellow,I
0.0,5.0,1.0,1.0,5.0,0.0,0.0,8.0,0.0,part_2,stop,400.0,550.0,4.0,,,,,,,,,magenta,circle
0.0,6.0,2.0,1.0,6.0,6.0,818.0567170493305,8.0,0.0,part_2,go,450.0,550.0,1.0,,,,,,,,,orange,cross
0.0,3.0,3.0,0.0,5.0,5.0,945.0108588207512,8.0,0.0,part_2,go,450.0,550.0,1.0,,,,,,,,,gray,square
0.0,3.0,3.0,0.0,6.0,6.0,622.341558104381,8.0,0.0,part_2,go,450.0,550.0,1.0,,,,,,,,,gray,square
0.0,5.0,1.0,1.0,6.0,6.0,864.1828009858727,8.0,0.0,part_2,go,450.0,550.0,1.0,,,,,,,,,magenta,circle
0.0,2.0,2.0,0.0,5.0,5.0,359.6042089629918,8.0,0.0,part_2,go,450.0,550.0,1.0,,,,,,,,,cyan,diamond
0.0,1.0,1.0,0.0,6.0,6.0,381.160015007481,8.0,0.0,part_2,go,450.0,550.0,1.0,,,,,,,,,blue,flipped triangle
0.0,5.0,1.0,1.0,6.0,6.0,428.6867817863822,8.0,0.0,part_2,stop,450.0,550.0,3.0,,,,,,,,,magenta,circle
0.0,2.0,2.0,0.0,6.0,6.0,575.5412019789219,8.0,0.0,part_2,go,450.0,500.0,1.0,,,,,,,,,cyan,diamond
0.0,1.0,1.0,0.0,6.0,6.0,533.0522719305009,8.0,0.0,part_2,go,450.0,500.0,1.0,,,,,,,,,blue,flipped triangle
0.0,8.0,4.0,1.0,5.0,5.0,674.3172269780189,8.0,0.0,part_2,stop,450.0,500.0,3.0,,,,,,,,,green,triangle
0.0,3.0,3.0,0.0,5.0,5.0,653.3663109876215,8.0,0.0,part_2,go,400.0,500.0,1.0,,,,,,,,,gray,square
0.0,8.0,4.0,1.0,5.0,5.0,801.4816308859736,8.0,0.0,part_2,go,400.0,500.0,1.0,,,,,,,,,green,triangle
0.0,3.0,3.0,0.0,6.0,6.0,490.6104821711778,8.0,0.0,part_2,go,400.0,500.0,1.0,,,,,,,,,gray,square
0.0,7.0,3.0,1.0,7.0,1.0,1678.1344499904662,1.0,1.0,part_3,go,0.0,0.0,0.0,78.0,2.0,78.0,117.0,156.0,39.0,195.0,234.0,white,hexagon
0.0,3.0,3.0,0.0,7.0,1.0,1670.3895209357142,1.0,1.0,part_3,go,0.0,0.0,0.0,147.0,3.0,147.0,98.0,245.0,49.0,294.0,196.0,gray,square
0.0,3.0,3.0,0.0,7.0,2.0,2031.9913369603455,1.0,1.0,part_3,go,0.0,0.0,0.0,156.0,4.0,195.0,156.0,39.0,78.0,234.0,117.0,gray,square
0.0,5.0,1.0,1.0,7.0,1.0,1377.6601199060678,1.0,1.0,part_3,go,0.0,0.0,0.0,170.0,5.0,170.0,68.0,136.0,204.0,102.0,34.0,magenta,circle
0.0,8.0,4.0,1.0,7.0,1.0,2874.7211140580475,1.0,1.0,part_3,go,0.0,0.0,0.0,234.0,6.0,234.0,39.0,156.0,117.0,78.0,195.0,green,triangle
0.0,2.0,2.0,0.0,7.0,6.0,2116.239168914035,1.0,1.0,part_3,go,0.0,0.0,0.0,245.0,5.0,196.0,98.0,49.0,294.0,147.0,245.0,cyan,diamond
0.0,6.0,2.0,1.0,7.0,4.0,2421.927164075896,1.0,1.0,part_3,go,0.0,0.0,0.0,54.0,1.0,270.0,324.0,216.0,54.0,162.0,108.0,orange,cross
0.0,7.0,3.0,1.0,7.0,3.0,1871.868174057454,1.0,1.0,part_3,go,0.0,0.0,0.0,54.0,1.0,108.0,162.0,54.0,324.0,216.0,270.0,white,hexagon
0.0,8.0,4.0,1.0,7.0,4.0,2424.3383379653096,1.0,1.0,part_3,go,0.0,0.0,0.0,234.0,6.0,195.0,78.0,117.0,234.0,39.0,156.0,green,triangle
0.0,2.0,2.0,0.0,7.0,5.0,2737.5804921612144,1.0,1.0,part_3,go,0.0,0.0,0.0,102.0,3.0,136.0,68.0,34.0,204.0,102.0,170.0,cyan,diamond
0.0,2.0,2.0,0.0,7.0,6.0,1970.7861770875752,1.0,1.0,part_3,go,0.0,0.0,0.0,220.0,5.0,176.0,88.0,44.0,132.0,264.0,220.0,cyan,diamond
0.0,4.0,4.0,0.0,7.0,6.0,2348.9876508247107,1.0,1.0,part_3,go,0.0,0.0,0.0,234.0,6.0,39.0,117.0,78.0,156.0,195.0,234.0,yellow,I
0.0,1.0,1.0,0.0,7.0,4.0,3228.348192991689,1.0,1.0,part_3,go,0.0,0.0,0.0,162.0,3.0,270.0,324.0,54.0,162.0,216.0,108.0,blue,flipped triangle
0.0,3.0,3.0,0.0,7.0,5.0,1269.955899100751,1.0,1.0,part_3,go,0.0,0.0,0.0,54.0,1.0,270.0,162.0,108.0,324.0,54.0,216.0,gray,square
0.0,7.0,3.0,1.0,7.0,2.0,2080.9401548467577,1.0,1.0,part_3,go,0.0,0.0,0.0,147.0,3.0,245.0,147.0,49.0,294.0,196.0,98.0,white,hexagon
0.0,8.0,4.0,1.0,7.0,3.0,2586.6491571068764,1.0,1.0,part_3,go,0.0,0.0,0.0,204.0,6.0,170.0,34.0,204.0,102.0,136.0,68.0,green,triangle
0.0,3.0,3.0,0.0,7.0,2.0,1844.1390090156349,1.0,1.0,part_3,go,0.0,0.0,0.0,88.0,2.0,44.0,88.0,220.0,264.0,176.0,132.0,gray,square
0.0,5.0,1.0,1.0,7.0,2.0,1789.88849488087,1.0,1.0,part_3,go,0.0,0.0,0.0,78.0,2.0,156.0,78.0,234.0,195.0,117.0,39.0,magenta,circle
0.0,2.0,2.0,0.0,7.0,5.0,3063.0978220142424,1.0,1.0,part_3,go,0.0,0.0,0.0,162.0,3.0,270.0,324.0,216.0,54.0,162.0,108.0,cyan,diamond
0.0,3.0,3.0,0.0,7.0,5.0,1911.9205249007791,1.0,1.0,part_3,go,0.0,0.0,0.0,68.0,2.0,204.0,34.0,102.0,170.0,68.0,136.0,gray,square
0.0,1.0,1.0,0.0,7.0,5.0,2288.7299130670726,2.0,1.0,part_3,go,0.0,0.0,0.0,136.0,4.0,102.0,68.0,204.0,170.0,136.0,34.0,blue,flipped triangle
0.0,4.0,4.0,0.0,7.0,6.0,1848.4377048444005,2.0,1.0,part_3,go,0.0,0.0,0.0,264.0,6.0,176.0,44.0,88.0,220.0,132.0,264.0,yellow,I
0.0,7.0,3.0,1.0,7.0,1.0,1960.337262833491,2.0,1.0,part_3,go,0.0,0.0,0.0,88.0,2.0,88.0,264.0,220.0,176.0,132.0,44.0,white,hexagon
0.0,4.0,4.0,0.0,7.0,5.0,1722.2755898255857,2.0,1.0,part_3,go,0.0,0.0,0.0,245.0,5.0,196.0,294.0,98.0,49.0,245.0,147.0,yellow,I
0.0,3.0,3.0,0.0,7.0,2.0,1333.984656026587,2.0,1.0,part_3,go,0.0,0.0,0.0,54.0,1.0,162.0,54.0,324.0,216.0,108.0,270.0,gray,square
0.0,1.0,1.0,0.0,7.0,4.0,2820.602531079203,2.0,1.0,part_3,go,0.0,0.0,0.0,162.0,3.0,324.0,216.0,270.0,162.0,108.0,54.0,blue,flipped triangle
0.0,8.0,4.0,1.0,7.0,5.0,1502.2669318132102,2.0,1.0,part_3,go,0.0,0.0,0.0,294.0,6.0,245.0,147.0,98.0,196.0,294.0,49.0,green,triangle
0.0,1.0,1.0,0.0,7.0,3.0,2471.338440896943,2.0,1.0,part_3,go,0.0,0.0,0.0,147.0,3.0,196.0,98.0,147.0,294.0,49.0,245.0,blue,flipped triangle
0.0,6.0,2.0,1.0,7.0,5.0,3738.900313852355,2.0,1.0,part_3,go,0.0,0.0,0.0,68.0,2.0,204.0,102.0,34.0,136.0,68.0,170.0,orange,cross
0.0,6.0,2.0,1.0,7.0,3.0,1379.7060730867088,2.0,1.0,part_3,go,0.0,0.0,0.0,78.0,2.0,117.0,39.0,78.0,195.0,156.0,234.0,orange,cross
0.0,8.0,4.0,1.0,7.0,1.0,1900.0246319919825,2.0,1.0,part_3,go,0.0,0.0,0.0,264.0,6.0,264.0,132.0,220.0,176.0,88.0,44.0,green,triangle
0.0,2.0,2.0,0.0,7.0,3.0,2038.2507531903684,2.0,1.0,part_3,go,0.0,0.0,0.0,156.0,4.0,117.0,39.0,156.0,195.0,234.0,78.0,cyan,diamond
0.0,7.0,3.0,1.0,7.0,2.0,1799.9919638969004,2.0,1.0,part_3,go,0.0,0.0,0.0,68.0,2.0,34.0,68.0,102.0,170.0,136.0,204.0,white,hexagon
0.0,5.0,1.0,1.0,7.0,5.0,1400.8592630270869,2.0,1.0,part_3,go,0.0,0.0,0.0,44.0,1.0,176.0,132.0,220.0,264.0,44.0,88.0,magenta,circle
0.0,7.0,3.0,1.0,7.0,5.0,2232.73059213534,2.0,1.0,part_3,go,0.0,0.0,0.0,195.0,5.0,117.0,78.0,156.0,234.0,195.0,39.0,white,hexagon
0.0,7.0,3.0,1.0,7.0,3.0,1809.6114289946856,2.0,1.0,part_3,go,0.0,0.0,0.0,136.0,4.0,204.0,102.0,136.0,34.0,170.0,68.0,white,hexagon
0.0,6.0,2.0,1.0,7.0,2.0,3302.511462941766,2.0,1.0,part_3,go,0.0,0.0,0.0,162.0,3.0,54.0,162.0,108.0,216.0,270.0,324.0,orange,cross
0.0,7.0,3.0,1.0,7.0,3.0,2415.1344869751483,2.0,1.0,part_3,go,0.0,0.0,0.0,132.0,3.0,88.0,176.0,132.0,264.0,220.0,44.0,white,hexagon
0.0,6.0,2.0,1.0,7.0,1.0,2471.7781741637737,2.0,1.0,part_3,go,0.0,0.0,0.0,156.0,4.0,156.0,39.0,78.0,195.0,117.0,234.0,orange,cross
0.0,6.0,2.0,1.0,7.0,3.0,2962.7664301078767,2.0,1.0,part_3,go,0.0,0.0,0.0,98.0,2.0,49.0,294.0,98.0,147.0,196.0,245.0,orange,cross
0.0,6.0,2.0,1.0,7.0,6.0,1363.6662238277495,3.0,1.0,part_3,go,0.0,0.0,0.0,147.0,3.0,245.0,49.0,98.0,294.0,196.0,147.0,orange,cross
0.0,2.0,2.0,0.0,7.0,6.0,1461.7961009498686,3.0,1.0,part_3,go,0.0,0.0,0.0,147.0,3.0,196.0,245.0,98.0,294.0,49.0,147.0,cyan,diamond
0.0,5.0,1.0,1.0,7.0,5.0,1604.5562450308353,3.0,1.0,part_3,go,0.0,0.0,0.0,78.0,2.0,195.0,156.0,39.0,234.0,78.0,117.0,magenta,circle
0.0,4.0,4.0,0.0,7.0,2.0,2280.4992659948766,3.0,1.0,part_3,go,0.0,0.0,0.0,204.0,6.0,68.0,204.0,170.0,34.0,136.0,102.0,yellow,I
0.0,3.0,3.0,0.0,7.0,4.0,2319.8326751589775,3.0,1.0,part_3,go,0.0,0.0,0.0,132.0,3.0,176.0,44.0,88.0,132.0,264.0,220.0,gray,square
0.0,4.0,4.0,0.0,7.0,5.0,1393.563208868727,3.0,1.0,part_3,go,0.0,0.0,0.0,294.0,6.0,147.0,196.0,49.0,245.0,294.0,98.0,yellow,I
0.0,4.0,4.0,0.0,7.0,6.0,1420.12630100362,3.0,1.0,part_3,go,0.0,0.0,0.0,264.0,6.0,88.0,176.0,132.0,44.0,220.0,264.0,yellow,I
0.0,3.0,3.0,0.0,7.0,5.0,2355.4546900559217,3.0,1.0,part_3,go,0.0,0.0,0.0,78.0,2.0,39.0,195.0,156.0,117.0,78.0,234.0,gray,square
0.0,4.0,4.0,0.0,7.0,5.0,1580.3683288395405,3.0,1.0,part_3,go,0.0,0.0,0.0,324.0,6.0,162.0,108.0,54.0,270.0,324.0,216.0,yellow,I
0.0,3.0,3.0,0.0,7.0,5.0,1313.7469720095396,3.0,1.0,part_3,go,0.0,0.0,0.0,170.0,5.0,136.0,204.0,34.0,102.0,170.0,68.0,gray,square
0.0,2.0,2.0,0.0,7.0,5.0,2647.7237588260323,3.0,1.0,part_3,go,0.0,0.0,0.0,102.0,3.0,170.0,68.0,204.0,136.0,102.0,34.0,cyan,diamond
0.0,5.0,1.0,1.0,7.0,1.0,1107.7030200976878,3.0,1.0,part_3,go,0.0,0.0,0.0,44.0,1.0,44.0,176.0,88.0,132.0,264.0,220.0,magenta,circle
0.0,6.0,2.0,1.0,7.0,5.0,3013.6294257827103,3.0,1.0,part_3,go,0.0,0.0,0.0,44.0,1.0,88.0,264.0,176.0,132.0,44.0,220.0,orange,cross
0.0,5.0,1.0,1.0,7.0,5.0,1390.5354088637978,3.0,1.0,part_3,go,0.0,0.0,0.0,54.0,1.0,162.0,108.0,270.0,216.0,54.0,324.0,magenta,circle
0.0,1.0,1.0,0.0,7.0,6.0,1556.5200650598854,3.0,1.0,part_3,go,0.0,0.0,0.0,102.0,3.0,204.0,34.0,170.0,136.0,68.0,102.0,blue,flipped triangle
0.0,8.0,4.0,1.0,7.0,6.0,1512.5382919795811,3.0,1.0,part_3,go,0.0,0.0,0.0,264.0,6.0,88.0,132.0,220.0,44.0,176.0,264.0,green,triangle
0.0,8.0,4.0,1.0,7.0,3.0,2155.510924058035,3.0,1.0,part_3,go,0.0,0.0,0.0,294.0,6.0,147.0,245.0,294.0,98.0,49.0,196.0,green,triangle
0.0,2.0,2.0,0.0,7.0,2.0,2105.383284157142,3.0,1.0,part_3,go,0.0,0.0,0.0,132.0,3.0,44.0,132.0,176.0,88.0,220.0,264.0,cyan,diamond
0.0,3.0,3.0,0.0,7.0,2.0,2196.6666330117732,3.0,1.0,part_3,go,0.0,0.0,0.0,196.0,4.0,49.0,196.0,147.0,294.0,98.0,245.0,gray,square
0.0,2.0,2.0,0.0,7.0,5.0,2071.163123007864,3.0,1.0,part_3,go,0.0,0.0,0.0,156.0,4.0,117.0,234.0,195.0,78.0,156.0,39.0,cyan,diamond
0.0,1.0,1.0,0.0,7.0,1.0,1651.620188029483,4.0,1.0,part_3,go,0.0,0.0,0.0,176.0,4.0,176.0,132.0,220.0,264.0,44.0,88.0,blue,flipped triangle
0.0,5.0,1.0,1.0,7.0,6.0,1800.1344681251794,4.0,1.0,part_3,go,0.0,0.0,0.0,98.0,2.0,196.0,147.0,245.0,49.0,294.0,98.0,magenta,circle
0.0,6.0,2.0,1.0,7.0,5.0,1488.4301810525358,4.0,1.0,part_3,go,0.0,0.0,0.0,44.0,1.0,88.0,264.0,132.0,220.0,44.0,176.0,orange,cross
0.0,8.0,4.0,1.0,7.0,1.0,1513.697630027309,4.0,1.0,part_3,go,0.0,0.0,0.0,324.0,6.0,324.0,270.0,216.0,54.0,108.0,162.0,green,triangle
0.0,5.0,1.0,1.0,7.0,1.0,2876.2084851041436,4.0,1.0,part_3,go,0.0,0.0,0.0,49.0,1.0,49.0,245.0,98.0,147.0,196.0,294.0,magenta,circle
0.0,8.0,4.0,1.0,7.0,3.0,1882.5541839469224,4.0,1.0,part_3,go,0.0,0.0,0.0,324.0,6.0,162.0,270.0,324.0,108.0,216.0,54.0,green,triangle
0.0,5.0,1.0,1.0,7.0,4.0,2349.4221118744463,4.0,1.0,part_3,go,0.0,0.0,0.0,54.0,1.0,108.0,324.0,216.0,54.0,270.0,162.0,magenta,circle
0.0,2.0,2.0,0.0,7.0,3.0,2703.775132074952,4.0,1.0,part_3,go,0.0,0.0,0.0,108.0,2.0,216.0,54.0,108.0,162.0,270.0,324.0,cyan,diamond
0.0,1.0,1.0,0.0,7.0,4.0,3233.581522013992,4.0,1.0,part_3,go,0.0,0.0,0.0,156.0,4.0,117.0,195.0,39.0,156.0,234.0,78.0,blue,flipped triangle
0.0,5.0,1.0,1.0,7.0,4.0,1969.7786921169609,4.0,1.0,part_3,go,0.0,0.0,0.0,34.0,1.0,204.0,68.0,170.0,34.0,136.0,102.0,magenta,circle
0.0,4.0,4.0,0.0,7.0,2.0,2411.6370889823884,4.0,1.0,part_3,go,0.0,0.0,0.0,204.0,6.0,68.0,204.0,136.0,34.0,102.0,170.0,yellow,I
0.0,4.0,4.0,0.0,7.0,3.0,1676.4880111441016,4.0,1.0,part_3,go,0.0,0.0,0.0,234.0,6.0,117.0,78.0,234.0,195.0,156.0,39.0,yellow,I
0.0,1.0,1.0,0.0,7.0,6.0,1742.9452252108604,4.0,1.0,part_3,go,0.0,0.0,0.0,117.0,3.0,195.0,234.0,78.0,39.0,156.0,117.0,blue,flipped triangle
0.0,8.0,4.0,1.0,7.0,2.0,1831.206045113504,4.0,1.0,part_3,go,0.0,0.0,0.0,204.0,6.0,102.0,204.0,68.0,136.0,170.0,34.0,green,triangle
0.0,7.0,3.0,1.0,7.0,5.0,1599.3990150745958,4.0,1.0,part_3,go,0.0,0.0,0.0,162.0,3.0,270.0,108.0,216.0,54.0,162.0,324.0,white,hexagon
0.0,4.0,4.0,0.0,7.0,4.0,1569.6254461072383,4.0,1.0,part_3,go,0.0,0.0,0.0,270.0,5.0,162.0,54.0,324.0,270.0,216.0,108.0,yellow,I
0.0,1.0,1.0,0.0,7.0,5.0,1873.657757183537,4.0,1.0,part_3,go,0.0,0.0,0.0,44.0,1.0,88.0,264.0,132.0,176.0,44.0,220.0,blue,flipped triangle
0.0,7.0,3.0,1.0,7.0,2.0,2362.6064569689333,4.0,1.0,part_3,go,0.0,0.0,0.0,147.0,3.0,49.0,147.0,245.0,294.0,98.0,196.0,white,hexagon
0.0,6.0,2.0,1.0,7.0,5.0,1144.019418861717,4.0,1.0,part_3,go,0.0,0.0,0.0,34.0,1.0,170.0,68.0,136.0,204.0,34.0,102.0,orange,cross
0.0,1.0,1.0,0.0,7.0,6.0,1583.522950997576,4.0,1.0,part_3,go,0.0,0.0,0.0,98.0,2.0,147.0,49.0,245.0,196.0,294.0,98.0,blue,flipped triangle
