raw_reward_magnitude,stim_reward,stepwise_reward_magnitude,paired_with_stopping,stim_location,response,reaction_time,block,num_trial_presentations,which_phase,stop_signal_trial_type,left_SSD,right_SSD,accuracy,chosen_bidding_amount,chosen_bidding_level,possible_bid_1,possible_bid_2,possible_bid_3,possible_bid_4,possible_bid_5,possible_bid_6,color_text,shape_text
92.0,2.0,1.0,0.0,4.0,4.0,571.9938990660012,1.0,1.0,phase_1,,,,,,,,,,,,,green,flipped triangle
389.0,4.0,4.0,0.0,3.0,3.0,433.594006113708,1.0,1.0,phase_1,,,,,,,,,,,,,cyan,diamond
120.0,2.0,1.0,0.0,4.0,4.0,354.7445167787373,1.0,1.0,phase_1,,,,,,,,,,,,,green,flipped triangle
389.0,8.0,4.0,1.0,1.0,1.0,359.5921720843762,1.0,1.0,phase_1,,,,,,,,,,,,,blue,circle
0.0,7.0,0.0,1.0,2.0,2.0,310.246316017583,1.0,1.0,phase_1,,,,,,,,,,,,,white,triangle
65.0,5.0,0.5,1.0,3.0,3.0,329.2010128498077,1.0,1.0,phase_1,,,,,,,,,,,,,yellow,I
378.0,8.0,4.0,1.0,1.0,1.0,404.8468731343746,1.0,1.0,phase_1,,,,,,,,,,,,,blue,circle
208.0,7.0,2.0,1.0,4.0,4.0,363.3934219833463,1.0,1.0,phase_1,,,,,,,,,,,,,white,triangle
416.0,4.0,4.0,0.0,3.0,3.0,400.2135039772838,1.0,1.0,phase_1,,,,,,,,,,,,,cyan,diamond
110.0,2.0,1.0,0.0,2.0,2.0,330.8288620319217,1.0,1.0,phase_1,,,,,,,,,,,,,green,flipped triangle
66.0,1.0,0.5,0.0,2.0,2.0,312.3009349219501,1.0,1.0,phase_1,,,,,,,,,,,,,magenta,square
0.0,3.0,0.0,0.0,2.0,2.0,299.8592969961464,1.0,1.0,phase_1,,,,,,,,,,,,,gray,hexagon
413.0,8.0,4.0,1.0,3.0,3.0,321.3511209469288,1.0,1.0,phase_1,,,,,,,,,,,,,blue,circle
96.0,6.0,1.0,1.0,4.0,4.0,342.4641008023172,1.0,1.0,phase_1,,,,,,,,,,,,,orange,cross
193.0,7.0,2.0,1.0,4.0,4.0,338.2282368838787,1.0,1.0,phase_1,,,,,,,,,,,,,white,triangle
0.0,1.0,0.0,0.0,1.0,1.0,279.7045330516994,1.0,1.0,phase_1,,,,,,,,,,,,,magenta,square
185.0,3.0,2.0,0.0,3.0,3.0,395.3407420776784,1.0,1.0,phase_1,,,,,,,,,,,,,gray,hexagon
0.0,5.0,0.0,1.0,1.0,1.0,474.6481219772249,1.0,1.0,phase_1,,,,,,,,,,,,,yellow,I
211.0,7.0,2.0,1.0,3.0,3.0,336.8372849654406,1.0,1.0,phase_1,,,,,,,,,,,,,white,triangle
380.0,4.0,4.0,0.0,3.0,3.0,493.4669800568372,1.0,1.0,phase_1,,,,,,,,,,,,,cyan,diamond
68.0,1.0,0.5,0.0,2.0,2.0,328.7765618879348,1.0,1.0,phase_1,,,,,,,,,,,,,magenta,square
36.0,5.0,0.5,1.0,1.0,1.0,429.1290820110589,1.0,1.0,phase_1,,,,,,,,,,,,,yellow,I
0.0,2.0,0.0,0.0,1.0,1.0,408.5980248637497,1.0,1.0,phase_1,,,,,,,,,,,,,green,flipped triangle
93.0,2.0,1.0,0.0,4.0,4.0,293.1559281423688,1.0,1.0,phase_1,,,,,,,,,,,,,green,flipped triangle
180.0,7.0,2.0,1.0,1.0,1.0,313.2189619354903,1.0,1.0,phase_1,,,,,,,,,,,,,white,triangle
125.0,6.0,1.0,1.0,2.0,2.0,280.7583268731832,1.0,1.0,phase_1,,,,,,,,,,,,,orange,cross
112.0,2.0,1.0,0.0,3.0,3.0,338.5897241532802,1.0,1.0,phase_1,,,,,,,,,,,,,green,flipped triangle
59.0,5.0,0.5,1.0,1.0,1.0,327.9426200315356,1.0,1.0,phase_1,,,,,,,,,,,,,yellow,I
188.0,3.0,2.0,0.0,4.0,4.0,355.9494409710169,1.0,1.0,phase_1,,,,,,,,,,,,,gray,hexagon
32.0,5.0,0.5,1.0,3.0,3.0,354.0620969142765,1.0,1.0,phase_1,,,,,,,,,,,,,yellow,I
0.0,3.0,0.0,0.0,3.0,3.0,293.0710250511765,1.0,1.0,phase_1,,,,,,,,,,,,,gray,hexagon
85.0,2.0,1.0,0.0,4.0,4.0,330.4641761351377,1.0,1.0,phase_1,,,,,,,,,,,,,green,flipped triangle
185.0,7.0,2.0,1.0,4.0,4.0,369.9314929544925,1.0,1.0,phase_1,,,,,,,,,,,,,white,triangle
63.0,1.0,0.5,0.0,3.0,3.0,317.8880580235272,1.0,1.0,phase_1,,,,,,,,,,,,,magenta,square
187.0,3.0,2.0,0.0,1.0,1.0,329.8517190851271,1.0,1.0,phase_1,,,,,,,,,,,,,gray,hexagon
407.0,8.0,4.0,1.0,2.0,2.0,333.6724699474871,1.0,1.0,phase_1,,,,,,,,,,,,,blue,circle
62.0,5.0,0.5,1.0,2.0,2.0,371.4424651116133,1.0,1.0,phase_1,,,,,,,,,,,,,yellow,I
120.0,2.0,1.0,0.0,3.0,3.0,392.6877260673791,1.0,1.0,phase_1,,,,,,,,,,,,,green,flipped triangle
380.0,8.0,4.0,1.0,4.0,4.0,342.9765098262578,1.0,1.0,phase_1,,,,,,,,,,,,,blue,circle
424.0,4.0,4.0,0.0,2.0,2.0,369.1321390215307,1.0,1.0,phase_1,,,,,,,,,,,,,cyan,diamond
0.0,2.0,0.0,0.0,2.0,2.0,333.0514731351286,1.0,1.0,phase_1,,,,,,,,,,,,,green,flipped triangle
116.0,6.0,1.0,1.0,2.0,2.0,300.5900669377297,1.0,1.0,phase_1,,,,,,,,,,,,,orange,cross
0.0,3.0,0.0,0.0,4.0,4.0,424.6286661364138,1.0,1.0,phase_1,,,,,,,,,,,,,gray,hexagon
89.0,6.0,1.0,1.0,2.0,2.0,258.2870949991047,1.0,1.0,phase_1,,,,,,,,,,,,,orange,cross
75.0,5.0,0.5,1.0,4.0,4.0,319.1102989949286,1.0,1.0,phase_1,,,,,,,,,,,,,yellow,I
208.0,3.0,2.0,0.0,2.0,2.0,300.1026709098369,1.0,1.0,phase_1,,,,,,,,,,,,,gray,hexagon
395.0,4.0,4.0,0.0,3.0,3.0,249.2589489556849,1.0,1.0,phase_1,,,,,,,,,,,,,cyan,diamond
85.0,2.0,1.0,0.0,1.0,1.0,385.0081909913569,1.0,1.0,phase_1,,,,,,,,,,,,,green,flipped triangle
89.0,6.0,1.0,1.0,3.0,3.0,345.5785349942744,1.0,1.0,phase_1,,,,,,,,,,,,,orange,cross
188.0,7.0,2.0,1.0,1.0,1.0,390.6679411884397,1.0,1.0,phase_1,,,,,,,,,,,,,white,triangle
97.0,2.0,1.0,0.0,2.0,2.0,259.2602900695056,1.0,1.0,phase_1,,,,,,,,,,,,,green,flipped triangle
27.0,1.0,0.5,0.0,2.0,2.0,418.4997149277478,1.0,1.0,phase_1,,,,,,,,,,,,,magenta,square
107.0,2.0,1.0,0.0,4.0,4.0,445.2742591965943,1.0,1.0,phase_1,,,,,,,,,,,,,green,flipped triangle
220.0,7.0,2.0,1.0,1.0,1.0,347.4310969468206,1.0,1.0,phase_1,,,,,,,,,,,,,white,triangle
26.0,1.0,0.5,0.0,3.0,3.0,406.5238190814852,1.0,1.0,phase_1,,,,,,,,,,,,,magenta,square
92.0,6.0,1.0,1.0,4.0,4.0,395.0144299305975,1.0,1.0,phase_1,,,,,,,,,,,,,orange,cross
201.0,3.0,2.0,0.0,4.0,4.0,337.5453050248325,1.0,1.0,phase_1,,,,,,,,,,,,,gray,hexagon
116.0,2.0,1.0,0.0,2.0,2.0,324.721118202433,1.0,1.0,phase_1,,,,,,,,,,,,,green,flipped triangle
0.0,8.0,0.0,1.0,4.0,4.0,418.5887079220265,1.0,1.0,phase_1,,,,,,,,,,,,,blue,circle
120.0,2.0,1.0,0.0,2.0,2.0,320.6647608894855,1.0,1.0,phase_1,,,,,,,,,,,,,green,flipped triangle
213.0,7.0,2.0,1.0,3.0,3.0,324.7897990513593,1.0,1.0,phase_1,,,,,,,,,,,,,white,triangle
70.0,5.0,0.5,1.0,3.0,3.0,345.5833559855819,1.0,1.0,phase_1,,,,,,,,,,,,,yellow,I
114.0,6.0,1.0,1.0,1.0,1.0,317.2648779582232,1.0,1.0,phase_1,,,,,,,,,,,,,orange,cross
183.0,3.0,2.0,0.0,2.0,2.0,456.7321450449526,1.0,1.0,phase_1,,,,,,,,,,,,,gray,hexagon
199.0,7.0,2.0,1.0,3.0,3.0,292.6557050086558,1.0,1.0,phase_1,,,,,,,,,,,,,white,triangle
425.0,8.0,4.0,1.0,3.0,3.0,387.4826829414814,1.0,1.0,phase_1,,,,,,,,,,,,,blue,circle
411.0,8.0,4.0,1.0,2.0,2.0,422.9196149390191,1.0,1.0,phase_1,,,,,,,,,,,,,blue,circle
31.0,1.0,0.5,0.0,4.0,4.0,338.7137181125581,1.0,1.0,phase_1,,,,,,,,,,,,,magenta,square
196.0,7.0,2.0,1.0,3.0,3.0,417.1129378955811,1.0,1.0,phase_1,,,,,,,,,,,,,white,triangle
0.0,1.0,0.0,0.0,4.0,4.0,435.8804940711707,1.0,1.0,phase_1,,,,,,,,,,,,,magenta,square
0.0,7.0,0.0,1.0,1.0,1.0,408.2110140006989,1.0,2.0,phase_1,,,,,,,,,,,,,white,triangle
209.0,3.0,2.0,0.0,2.0,2.0,325.9878349490464,1.0,1.0,phase_1,,,,,,,,,,,,,gray,hexagon
221.0,7.0,2.0,1.0,3.0,3.0,338.605378055945,1.0,1.0,phase_1,,,,,,,,,,,,,white,triangle
27.0,5.0,0.5,1.0,2.0,2.0,315.4139949474484,1.0,1.0,phase_1,,,,,,,,,,,,,yellow,I
0.0,5.0,0.0,1.0,3.0,3.0,321.0374428890645,1.0,1.0,phase_1,,,,,,,,,,,,,yellow,I
403.0,8.0,4.0,1.0,3.0,3.0,304.4147330801934,1.0,1.0,phase_1,,,,,,,,,,,,,blue,circle
90.0,2.0,1.0,0.0,4.0,4.0,379.274055827409,1.0,1.0,phase_1,,,,,,,,,,,,,green,flipped triangle
30.0,5.0,0.5,1.0,2.0,2.0,271.1413539946079,1.0,1.0,phase_1,,,,,,,,,,,,,yellow,I
389.0,4.0,4.0,0.0,1.0,1.0,355.5297229904681,1.0,1.0,phase_1,,,,,,,,,,,,,cyan,diamond
419.0,4.0,4.0,0.0,4.0,4.0,319.6017129812389,1.0,1.0,phase_1,,,,,,,,,,,,,cyan,diamond
208.0,3.0,2.0,0.0,3.0,3.0,328.3967080060392,1.0,1.0,phase_1,,,,,,,,,,,,,gray,hexagon
0.0,5.0,0.0,1.0,1.0,1.0,288.7920499779284,1.0,1.0,phase_1,,,,,,,,,,,,,yellow,I
27.0,1.0,0.5,0.0,1.0,1.0,383.1003350205719,1.0,1.0,phase_1,,,,,,,,,,,,,magenta,square
0.0,8.0,0.0,1.0,1.0,1.0,522.8258771821856,1.0,1.0,phase_1,,,,,,,,,,,,,blue,circle
0.0,6.0,0.0,1.0,2.0,2.0,321.8471338041127,1.0,1.0,phase_1,,,,,,,,,,,,,orange,cross
196.0,3.0,2.0,0.0,3.0,3.0,359.1543990187347,1.0,1.0,phase_1,,,,,,,,,,,,,gray,hexagon
418.0,4.0,4.0,0.0,3.0,3.0,314.1271150670945,1.0,1.0,phase_1,,,,,,,,,,,,,cyan,diamond
0.0,3.0,0.0,0.0,2.0,2.0,383.5290060378611,1.0,1.0,phase_1,,,,,,,,,,,,,gray,hexagon
394.0,4.0,4.0,0.0,1.0,1.0,276.3954699039459,1.0,1.0,phase_1,,,,,,,,,,,,,cyan,diamond
199.0,3.0,2.0,0.0,2.0,2.0,313.4503369219601,1.0,1.0,phase_1,,,,,,,,,,,,,gray,hexagon
49.0,5.0,0.5,1.0,1.0,1.0,395.4123998992145,1.0,1.0,phase_1,,,,,,,,,,,,,yellow,I
30.0,1.0,0.5,0.0,4.0,4.0,280.9443799778819,1.0,1.0,phase_1,,,,,,,,,,,,,magenta,square
35.0,5.0,0.5,1.0,4.0,4.0,318.2365719694644,1.0,1.0,phase_1,,,,,,,,,,,,,yellow,I
65.0,1.0,0.5,0.0,2.0,2.0,272.7332760114223,1.0,1.0,phase_1,,,,,,,,,,,,,magenta,square
217.0,7.0,2.0,1.0,2.0,2.0,357.5777711812407,1.0,1.0,phase_1,,,,,,,,,,,,,white,triangle
55.0,5.0,0.5,1.0,1.0,1.0,341.2552939262241,1.0,1.0,phase_1,,,,,,,,,,,,,yellow,I
72.0,5.0,0.5,1.0,3.0,3.0,386.2519860267639,1.0,1.0,phase_1,,,,,,,,,,,,,yellow,I
76.0,6.0,1.0,1.0,3.0,3.0,398.8962569274008,1.0,1.0,phase_1,,,,,,,,,,,,,orange,cross
94.0,6.0,1.0,1.0,3.0,3.0,329.1236979421228,1.0,1.0,phase_1,,,,,,,,,,,,,orange,cross
0.0,3.0,0.0,0.0,3.0,3.0,351.6807141713798,1.0,1.0,phase_1,,,,,,,,,,,,,gray,hexagon
0.0,6.0,0.0,1.0,4.0,4.0,381.367881083861,2.0,1.0,phase_1,,,,,,,,,,,,,orange,cross
125.0,6.0,1.0,1.0,2.0,2.0,290.1588419917971,2.0,1.0,phase_1,,,,,,,,,,,,,orange,cross
182.0,7.0,2.0,1.0,2.0,2.0,323.7850370351225,2.0,1.0,phase_1,,,,,,,,,,,,,white,triangle
58.0,5.0,0.5,1.0,2.0,2.0,312.7327391412109,2.0,1.0,phase_1,,,,,,,,,,,,,yellow,I
107.0,6.0,1.0,1.0,2.0,2.0,272.0832000486552,2.0,1.0,phase_1,,,,,,,,,,,,,orange,cross
0.0,7.0,0.0,1.0,3.0,3.0,324.9725990463048,2.0,1.0,phase_1,,,,,,,,,,,,,white,triangle
119.0,6.0,1.0,1.0,2.0,2.0,279.01192009449,2.0,1.0,phase_1,,,,,,,,,,,,,orange,cross
175.0,3.0,2.0,0.0,3.0,3.0,373.1361830141395,2.0,1.0,phase_1,,,,,,,,,,,,,gray,hexagon
217.0,3.0,2.0,0.0,4.0,4.0,539.2803910654038,2.0,1.0,phase_1,,,,,,,,,,,,,gray,hexagon
89.0,2.0,1.0,0.0,3.0,3.0,380.1592069212347,2.0,1.0,phase_1,,,,,,,,,,,,,green,flipped triangle
193.0,3.0,2.0,0.0,1.0,1.0,323.9780869334936,2.0,1.0,phase_1,,,,,,,,,,,,,gray,hexagon
201.0,7.0,2.0,1.0,2.0,2.0,294.8587099090218,2.0,1.0,phase_1,,,,,,,,,,,,,white,triangle
379.0,4.0,4.0,0.0,1.0,1.0,340.3380699455738,2.0,1.0,phase_1,,,,,,,,,,,,,cyan,diamond
77.0,6.0,1.0,1.0,2.0,2.0,271.2749978527426,2.0,1.0,phase_1,,,,,,,,,,,,,orange,cross
394.0,4.0,4.0,0.0,4.0,4.0,324.4269301649183,2.0,1.0,phase_1,,,,,,,,,,,,,cyan,diamond
0.0,5.0,0.0,1.0,4.0,4.0,344.7605511173606,2.0,1.0,phase_1,,,,,,,,,,,,,yellow,I
175.0,7.0,2.0,1.0,4.0,4.0,389.7836219985038,2.0,1.0,phase_1,,,,,,,,,,,,,white,triangle
116.0,6.0,1.0,1.0,4.0,4.0,291.3079550489783,2.0,1.0,phase_1,,,,,,,,,,,,,orange,cross
182.0,3.0,2.0,0.0,3.0,3.0,358.6740610189736,2.0,1.0,phase_1,,,,,,,,,,,,,gray,hexagon
215.0,7.0,2.0,1.0,4.0,4.0,395.4471859615296,2.0,1.0,phase_1,,,,,,,,,,,,,white,triangle
0.0,7.0,0.0,1.0,2.0,2.0,328.1140490435064,2.0,1.0,phase_1,,,,,,,,,,,,,white,triangle
80.0,6.0,1.0,1.0,4.0,4.0,368.8976871781051,2.0,1.0,phase_1,,,,,,,,,,,,,orange,cross
90.0,6.0,1.0,1.0,1.0,1.0,410.13621003367,2.0,1.0,phase_1,,,,,,,,,,,,,orange,cross
384.0,4.0,4.0,0.0,3.0,3.0,405.8059491217136,2.0,1.0,phase_1,,,,,,,,,,,,,cyan,diamond
415.0,4.0,4.0,0.0,3.0,3.0,332.9431749880314,2.0,1.0,phase_1,,,,,,,,,,,,,cyan,diamond
391.0,8.0,4.0,1.0,4.0,4.0,321.5022529475391,2.0,1.0,phase_1,,,,,,,,,,,,,blue,circle
0.0,2.0,0.0,0.0,1.0,1.0,411.8231418542564,2.0,1.0,phase_1,,,,,,,,,,,,,green,flipped triangle
0.0,7.0,0.0,1.0,2.0,2.0,276.5044700354337,2.0,1.0,phase_1,,,,,,,,,,,,,white,triangle
78.0,6.0,1.0,1.0,4.0,4.0,350.2083099447191,2.0,1.0,phase_1,,,,,,,,,,,,,orange,cross
211.0,3.0,2.0,0.0,1.0,1.0,349.1049080621451,2.0,1.0,phase_1,,,,,,,,,,,,,gray,hexagon
411.0,8.0,4.0,1.0,4.0,4.0,410.0586629938334,2.0,1.0,phase_1,,,,,,,,,,,,,blue,circle
210.0,7.0,2.0,1.0,4.0,4.0,324.2312429938465,2.0,1.0,phase_1,,,,,,,,,,,,,white,triangle
32.0,1.0,0.5,0.0,1.0,1.0,448.2723511755466,2.0,1.0,phase_1,,,,,,,,,,,,,magenta,square
93.0,6.0,1.0,1.0,2.0,2.0,343.0157909169793,2.0,1.0,phase_1,,,,,,,,,,,,,orange,cross
0.0,2.0,0.0,0.0,1.0,1.0,372.5985449273139,2.0,1.0,phase_1,,,,,,,,,,,,,green,flipped triangle
382.0,8.0,4.0,1.0,2.0,2.0,302.9458390083164,2.0,1.0,phase_1,,,,,,,,,,,,,blue,circle
215.0,7.0,2.0,1.0,1.0,1.0,341.42851899378,2.0,1.0,phase_1,,,,,,,,,,,,,white,triangle
200.0,7.0,2.0,1.0,4.0,4.0,418.4816568158567,2.0,1.0,phase_1,,,,,,,,,,,,,white,triangle
207.0,3.0,2.0,0.0,4.0,4.0,621.3648840785027,2.0,1.0,phase_1,,,,,,,,,,,,,gray,hexagon
211.0,3.0,2.0,0.0,1.0,1.0,372.267774073407,2.0,1.0,phase_1,,,,,,,,,,,,,gray,hexagon
76.0,2.0,1.0,0.0,3.0,3.0,480.9700159821659,2.0,1.0,phase_1,,,,,,,,,,,,,green,flipped triangle
387.0,4.0,4.0,0.0,4.0,4.0,404.0653980337083,2.0,1.0,phase_1,,,,,,,,,,,,,cyan,diamond
182.0,7.0,2.0,1.0,3.0,3.0,407.0232510566711,2.0,1.0,phase_1,,,,,,,,,,,,,white,triangle
59.0,1.0,0.5,0.0,3.0,3.0,379.9071100074798,2.0,1.0,phase_1,,,,,,,,,,,,,magenta,square
0.0,4.0,0.0,0.0,2.0,2.0,394.137725001201,2.0,1.0,phase_1,,,,,,,,,,,,,cyan,diamond
59.0,5.0,0.5,1.0,4.0,4.0,424.2415458429605,2.0,1.0,phase_1,,,,,,,,,,,,,yellow,I
94.0,2.0,1.0,0.0,1.0,1.0,329.6469999477267,2.0,1.0,phase_1,,,,,,,,,,,,,green,flipped triangle
0.0,8.0,0.0,1.0,4.0,4.0,314.7717439569533,2.0,1.0,phase_1,,,,,,,,,,,,,blue,circle
51.0,5.0,0.5,1.0,3.0,3.0,413.8240218162536,2.0,1.0,phase_1,,,,,,,,,,,,,yellow,I
58.0,1.0,0.5,0.0,4.0,4.0,354.8182358499616,2.0,1.0,phase_1,,,,,,,,,,,,,magenta,square
399.0,8.0,4.0,1.0,3.0,3.0,333.432808984071,2.0,1.0,phase_1,,,,,,,,,,,,,blue,circle
38.0,1.0,0.5,0.0,2.0,2.0,412.2768200468272,2.0,1.0,phase_1,,,,,,,,,,,,,magenta,square
0.0,3.0,0.0,0.0,4.0,4.0,415.4068070929497,2.0,1.0,phase_1,,,,,,,,,,,,,gray,hexagon
413.0,8.0,4.0,1.0,2.0,2.0,357.3326980695128,2.0,1.0,phase_1,,,,,,,,,,,,,blue,circle
215.0,3.0,2.0,0.0,3.0,3.0,615.1056089438498,2.0,1.0,phase_1,,,,,,,,,,,,,gray,hexagon
221.0,7.0,2.0,1.0,1.0,1.0,703.6950250621885,2.0,1.0,phase_1,,,,,,,,,,,,,white,triangle
0.0,1.0,0.0,0.0,2.0,2.0,400.5240760743618,2.0,1.0,phase_1,,,,,,,,,,,,,magenta,square
63.0,1.0,0.5,0.0,3.0,3.0,367.688121041283,2.0,1.0,phase_1,,,,,,,,,,,,,magenta,square
0.0,7.0,0.0,1.0,1.0,1.0,477.3621901404112,2.0,1.0,phase_1,,,,,,,,,,,,,white,triangle
83.0,2.0,1.0,0.0,3.0,3.0,543.9903950318694,2.0,1.0,phase_1,,,,,,,,,,,,,green,flipped triangle
379.0,8.0,4.0,1.0,1.0,1.0,348.6407559830695,2.0,1.0,phase_1,,,,,,,,,,,,,blue,circle
72.0,1.0,0.5,0.0,2.0,2.0,312.032955000177,2.0,1.0,phase_1,,,,,,,,,,,,,magenta,square
389.0,8.0,4.0,1.0,4.0,4.0,357.418759027496,2.0,1.0,phase_1,,,,,,,,,,,,,blue,circle
70.0,1.0,0.5,0.0,4.0,4.0,396.6908801812678,2.0,1.0,phase_1,,,,,,,,,,,,,magenta,square
78.0,2.0,1.0,0.0,1.0,1.0,384.7539380658418,2.0,1.0,phase_1,,,,,,,,,,,,,green,flipped triangle
30.0,5.0,0.5,1.0,4.0,4.0,363.6326831765473,2.0,1.0,phase_1,,,,,,,,,,,,,yellow,I
183.0,7.0,2.0,1.0,2.0,2.0,311.7246581241488,2.0,1.0,phase_1,,,,,,,,,,,,,white,triangle
0.0,3.0,0.0,0.0,1.0,1.0,317.3385851550847,2.0,1.0,phase_1,,,,,,,,,,,,,gray,hexagon
112.0,6.0,1.0,1.0,1.0,1.0,328.9398308843374,2.0,1.0,phase_1,,,,,,,,,,,,,orange,cross
424.0,8.0,4.0,1.0,4.0,4.0,408.7140341289341,2.0,1.0,phase_1,,,,,,,,,,,,,blue,circle
424.0,4.0,4.0,0.0,2.0,2.0,355.0573890097439,2.0,1.0,phase_1,,,,,,,,,,,,,cyan,diamond
37.0,1.0,0.5,0.0,4.0,4.0,329.81360796839,2.0,1.0,phase_1,,,,,,,,,,,,,magenta,square
384.0,8.0,4.0,1.0,1.0,1.0,318.3415471576154,2.0,1.0,phase_1,,,,,,,,,,,,,blue,circle
209.0,7.0,2.0,1.0,1.0,1.0,307.4666480533778,2.0,1.0,phase_1,,,,,,,,,,,,,white,triangle
0.0,1.0,0.0,0.0,3.0,3.0,333.100370131433,2.0,2.0,phase_1,,,,,,,,,,,,,magenta,square
216.0,3.0,2.0,0.0,1.0,1.0,352.6294270996004,2.0,1.0,phase_1,,,,,,,,,,,,,gray,hexagon
100.0,2.0,1.0,0.0,2.0,2.0,334.3190050218254,2.0,1.0,phase_1,,,,,,,,,,,,,green,flipped triangle
123.0,2.0,1.0,0.0,4.0,4.0,313.4784798603505,2.0,1.0,phase_1,,,,,,,,,,,,,green,flipped triangle
32.0,1.0,0.5,0.0,4.0,4.0,388.5356460232287,2.0,1.0,phase_1,,,,,,,,,,,,,magenta,square
196.0,7.0,2.0,1.0,2.0,2.0,353.4043680410832,2.0,1.0,phase_1,,,,,,,,,,,,,white,triangle
40.0,5.0,0.5,1.0,1.0,1.0,368.8549799844622,2.0,1.0,phase_1,,,,,,,,,,,,,yellow,I
424.0,8.0,4.0,1.0,4.0,4.0,258.9337178505957,2.0,1.0,phase_1,,,,,,,,,,,,,blue,circle
207.0,7.0,2.0,1.0,3.0,3.0,384.1065359301865,2.0,1.0,phase_1,,,,,,,,,,,,,white,triangle
387.0,8.0,4.0,1.0,1.0,1.0,325.6985549814999,2.0,1.0,phase_1,,,,,,,,,,,,,blue,circle
118.0,2.0,1.0,0.0,4.0,4.0,259.9461171776056,2.0,1.0,phase_1,,,,,,,,,,,,,green,flipped triangle
0.0,5.0,0.0,1.0,4.0,4.0,320.5344141460955,2.0,1.0,phase_1,,,,,,,,,,,,,yellow,I
213.0,3.0,2.0,0.0,2.0,2.0,324.9084730632603,2.0,1.0,phase_1,,,,,,,,,,,,,gray,hexagon
52.0,5.0,0.5,1.0,3.0,3.0,314.157284097746,2.0,1.0,phase_1,,,,,,,,,,,,,yellow,I
0.0,7.0,0.0,1.0,3.0,3.0,316.4965230971575,2.0,1.0,phase_1,,,,,,,,,,,,,white,triangle
0.0,3.0,0.0,0.0,3.0,3.0,306.313884910196,2.0,1.0,phase_1,,,,,,,,,,,,,gray,hexagon
0.0,8.0,0.0,1.0,3.0,3.0,343.4414339717477,2.0,1.0,phase_1,,,,,,,,,,,,,blue,circle
178.0,7.0,2.0,1.0,4.0,4.0,425.6412039976567,2.0,1.0,phase_1,,,,,,,,,,,,,white,triangle
0.0,2.0,0.0,0.0,2.0,2.0,385.9090129844844,2.0,1.0,phase_1,,,,,,,,,,,,,green,flipped triangle
0.0,4.0,0.0,0.0,4.0,4.0,421.6229310259223,2.0,1.0,phase_1,,,,,,,,,,,,,cyan,diamond
123.0,6.0,1.0,1.0,4.0,4.0,338.5522719472646,2.0,1.0,phase_1,,,,,,,,,,,,,orange,cross
0.0,2.0,0.0,0.0,1.0,1.0,376.5817331150174,2.0,2.0,phase_1,,,,,,,,,,,,,green,flipped triangle
71.0,1.0,0.5,0.0,1.0,1.0,358.9789909310639,2.0,1.0,phase_1,,,,,,,,,,,,,magenta,square
77.0,2.0,1.0,0.0,2.0,2.0,363.3324122056365,2.0,1.0,phase_1,,,,,,,,,,,,,green,flipped triangle
220.0,3.0,2.0,0.0,4.0,4.0,394.4525839760899,2.0,1.0,phase_1,,,,,,,,,,,,,gray,hexagon
200.0,3.0,2.0,0.0,3.0,3.0,359.1991849243641,2.0,1.0,phase_1,,,,,,,,,,,,,gray,hexagon
32.0,5.0,0.5,1.0,1.0,1.0,472.1247858833521,3.0,1.0,phase_1,,,,,,,,,,,,,yellow,I
66.0,5.0,0.5,1.0,3.0,3.0,399.4247049558908,3.0,1.0,phase_1,,,,,,,,,,,,,yellow,I
407.0,4.0,4.0,0.0,4.0,4.0,324.785275850445,3.0,1.0,phase_1,,,,,,,,,,,,,cyan,diamond
0.0,5.0,0.0,1.0,1.0,1.0,415.0697840377688,3.0,1.0,phase_1,,,,,,,,,,,,,yellow,I
0.0,5.0,0.0,1.0,1.0,1.0,371.5177429839968,3.0,1.0,phase_1,,,,,,,,,,,,,yellow,I
0.0,8.0,0.0,1.0,2.0,2.0,249.0778199862688,3.0,1.0,phase_1,,,,,,,,,,,,,blue,circle
411.0,4.0,4.0,0.0,4.0,4.0,252.5420559104532,3.0,1.0,phase_1,,,,,,,,,,,,,cyan,diamond
85.0,6.0,1.0,1.0,1.0,1.0,457.568836864084,3.0,1.0,phase_1,,,,,,,,,,,,,orange,cross
417.0,4.0,4.0,0.0,3.0,3.0,478.2017420511693,3.0,1.0,phase_1,,,,,,,,,,,,,cyan,diamond
413.0,4.0,4.0,0.0,1.0,1.0,413.5598349384963,3.0,1.0,phase_1,,,,,,,,,,,,,cyan,diamond
110.0,6.0,1.0,1.0,3.0,3.0,350.9590288158506,3.0,1.0,phase_1,,,,,,,,,,,,,orange,cross
83.0,6.0,1.0,1.0,1.0,1.0,533.3934710361063,3.0,1.0,phase_1,,,,,,,,,,,,,orange,cross
0.0,4.0,0.0,0.0,2.0,2.0,299.2298640310764,3.0,1.0,phase_1,,,,,,,,,,,,,cyan,diamond
380.0,4.0,4.0,0.0,3.0,3.0,343.2364519685507,3.0,1.0,phase_1,,,,,,,,,,,,,cyan,diamond
88.0,2.0,1.0,0.0,3.0,3.0,329.8537242226302,3.0,1.0,phase_1,,,,,,,,,,,,,green,flipped triangle
27.0,5.0,0.5,1.0,1.0,1.0,423.2560349628329,3.0,1.0,phase_1,,,,,,,,,,,,,yellow,I
120.0,6.0,1.0,1.0,1.0,1.0,404.9047050066292,3.0,1.0,phase_1,,,,,,,,,,,,,orange,cross
0.0,8.0,0.0,1.0,1.0,1.0,304.5502370223403,3.0,1.0,phase_1,,,,,,,,,,,,,blue,circle
424.0,8.0,4.0,1.0,2.0,2.0,399.574785027653,3.0,1.0,phase_1,,,,,,,,,,,,,blue,circle
80.0,2.0,1.0,0.0,2.0,2.0,449.3867959827184,3.0,1.0,phase_1,,,,,,,,,,,,,green,flipped triangle
200.0,7.0,2.0,1.0,1.0,1.0,409.1257690452039,3.0,1.0,phase_1,,,,,,,,,,,,,white,triangle
109.0,6.0,1.0,1.0,1.0,1.0,355.2476270124316,3.0,1.0,phase_1,,,,,,,,,,,,,orange,cross
100.0,2.0,1.0,0.0,3.0,3.0,417.9658540524542,3.0,1.0,phase_1,,,,,,,,,,,,,green,flipped triangle
49.0,5.0,0.5,1.0,2.0,2.0,387.7352529671043,3.0,1.0,phase_1,,,,,,,,,,,,,yellow,I
35.0,1.0,0.5,0.0,4.0,4.0,354.2437590658664,3.0,1.0,phase_1,,,,,,,,,,,,,magenta,square
0.0,1.0,0.0,0.0,3.0,3.0,399.1963630542159,3.0,1.0,phase_1,,,,,,,,,,,,,magenta,square
395.0,8.0,4.0,1.0,1.0,1.0,404.2506050318479,3.0,1.0,phase_1,,,,,,,,,,,,,blue,circle
380.0,8.0,4.0,1.0,2.0,2.0,354.5071929693222,3.0,1.0,phase_1,,,,,,,,,,,,,blue,circle
120.0,6.0,1.0,1.0,3.0,3.0,348.751219920814,3.0,1.0,phase_1,,,,,,,,,,,,,orange,cross
178.0,7.0,2.0,1.0,4.0,4.0,419.7025219909847,3.0,1.0,phase_1,,,,,,,,,,,,,white,triangle
61.0,1.0,0.5,0.0,2.0,2.0,349.0603400859982,3.0,1.0,phase_1,,,,,,,,,,,,,magenta,square
195.0,3.0,2.0,0.0,4.0,4.0,388.6973578482866,3.0,1.0,phase_1,,,,,,,,,,,,,gray,hexagon
27.0,1.0,0.5,0.0,3.0,3.0,342.3994700424373,3.0,1.0,phase_1,,,,,,,,,,,,,magenta,square
214.0,7.0,2.0,1.0,3.0,3.0,339.0197779517621,3.0,1.0,phase_1,,,,,,,,,,,,,white,triangle
387.0,8.0,4.0,1.0,3.0,3.0,328.1267841812223,3.0,1.0,phase_1,,,,,,,,,,,,,blue,circle
221.0,7.0,2.0,1.0,1.0,1.0,366.7302301619202,3.0,1.0,phase_1,,,,,,,,,,,,,white,triangle
68.0,5.0,0.5,1.0,4.0,4.0,372.8339639492333,3.0,1.0,phase_1,,,,,,,,,,,,,yellow,I
63.0,1.0,0.5,0.0,3.0,3.0,413.4744720067829,3.0,1.0,phase_1,,,,,,,,,,,,,magenta,square
399.0,4.0,4.0,0.0,2.0,2.0,366.0560210701078,3.0,1.0,phase_1,,,,,,,,,,,,,cyan,diamond
96.0,2.0,1.0,0.0,1.0,1.0,362.3909479938447,3.0,1.0,phase_1,,,,,,,,,,,,,green,flipped triangle
179.0,3.0,2.0,0.0,2.0,2.0,339.2172390595078,3.0,1.0,phase_1,,,,,,,,,,,,,gray,hexagon
49.0,1.0,0.5,0.0,3.0,3.0,379.4137318618595,3.0,1.0,phase_1,,,,,,,,,,,,,magenta,square
208.0,7.0,2.0,1.0,3.0,3.0,518.9073991496116,3.0,1.0,phase_1,,,,,,,,,,,,,white,triangle
387.0,4.0,4.0,0.0,4.0,4.0,443.8802439253777,3.0,1.0,phase_1,,,,,,,,,,,,,cyan,diamond
114.0,2.0,1.0,0.0,1.0,1.0,449.947064043954,3.0,1.0,phase_1,,,,,,,,,,,,,green,flipped triangle
0.0,7.0,0.0,1.0,4.0,4.0,439.0499570872634,3.0,1.0,phase_1,,,,,,,,,,,,,white,triangle
0.0,6.0,0.0,1.0,3.0,3.0,351.9112428184598,3.0,1.0,phase_1,,,,,,,,,,,,,orange,cross
100.0,6.0,1.0,1.0,1.0,1.0,344.1151150036603,3.0,1.0,phase_1,,,,,,,,,,,,,orange,cross
59.0,1.0,0.5,0.0,3.0,3.0,401.6338349319994,3.0,1.0,phase_1,,,,,,,,,,,,,magenta,square
425.0,4.0,4.0,0.0,2.0,2.0,317.984095076099,3.0,1.0,phase_1,,,,,,,,,,,,,cyan,diamond
215.0,3.0,2.0,0.0,3.0,3.0,338.638813002035,3.0,1.0,phase_1,,,,,,,,,,,,,gray,hexagon
418.0,8.0,4.0,1.0,2.0,2.0,361.4563061855733,3.0,1.0,phase_1,,,,,,,,,,,,,blue,circle
0.0,4.0,0.0,0.0,4.0,4.0,284.49732903391117,3.0,1.0,phase_1,,,,,,,,,,,,,cyan,diamond
0.0,4.0,0.0,0.0,1.0,1.0,321.5089209843427,3.0,1.0,phase_1,,,,,,,,,,,,,cyan,diamond
0.0,7.0,0.0,1.0,4.0,4.0,353.3795450348407,3.0,1.0,phase_1,,,,,,,,,,,,,white,triangle
40.0,5.0,0.5,1.0,4.0,4.0,292.1957520302385,3.0,1.0,phase_1,,,,,,,,,,,,,yellow,I
221.0,3.0,2.0,0.0,1.0,1.0,358.8243031408638,3.0,1.0,phase_1,,,,,,,,,,,,,gray,hexagon
70.0,5.0,0.5,1.0,2.0,2.0,309.7042879089713,3.0,1.0,phase_1,,,,,,,,,,,,,yellow,I
417.0,8.0,4.0,1.0,3.0,3.0,355.6813939940184,3.0,1.0,phase_1,,,,,,,,,,,,,blue,circle
96.0,6.0,1.0,1.0,3.0,3.0,310.1703319698572,3.0,1.0,phase_1,,,,,,,,,,,,,orange,cross
0.0,1.0,0.0,0.0,4.0,4.0,330.8418609667569,3.0,1.0,phase_1,,,,,,,,,,,,,magenta,square
40.0,1.0,0.5,0.0,1.0,1.0,273.3345599845052,3.0,1.0,phase_1,,,,,,,,,,,,,magenta,square
376.0,4.0,4.0,0.0,1.0,1.0,314.8672571405768,3.0,1.0,phase_1,,,,,,,,,,,,,cyan,diamond
379.0,4.0,4.0,0.0,4.0,4.0,331.5482968464494,3.0,1.0,phase_1,,,,,,,,,,,,,cyan,diamond
0.0,6.0,0.0,1.0,4.0,4.0,332.244980847463,3.0,1.0,phase_1,,,,,,,,,,,,,orange,cross
214.0,3.0,2.0,0.0,2.0,2.0,305.4758028592914,3.0,1.0,phase_1,,,,,,,,,,,,,gray,hexagon
125.0,2.0,1.0,0.0,3.0,3.0,343.4571949765086,3.0,1.0,phase_1,,,,,,,,,,,,,green,flipped triangle
216.0,7.0,2.0,1.0,2.0,2.0,348.5167110338807,3.0,1.0,phase_1,,,,,,,,,,,,,white,triangle
89.0,2.0,1.0,0.0,1.0,1.0,314.1006219666451,3.0,1.0,phase_1,,,,,,,,,,,,,green,flipped triangle
109.0,2.0,1.0,0.0,3.0,3.0,462.9997119773179,3.0,1.0,phase_1,,,,,,,,,,,,,green,flipped triangle
31.0,5.0,0.5,1.0,3.0,3.0,346.2962408084422,3.0,1.0,phase_1,,,,,,,,,,,,,yellow,I
391.0,4.0,4.0,0.0,2.0,2.0,318.0985650978982,3.0,1.0,phase_1,,,,,,,,,,,,,cyan,diamond
0.0,1.0,0.0,0.0,3.0,3.0,345.9975849837065,3.0,1.0,phase_1,,,,,,,,,,,,,magenta,square
413.0,4.0,4.0,0.0,4.0,4.0,280.073689064011,3.0,1.0,phase_1,,,,,,,,,,,,,cyan,diamond
63.0,5.0,0.5,1.0,2.0,2.0,259.9456361494958,3.0,1.0,phase_1,,,,,,,,,,,,,yellow,I
96.0,2.0,1.0,0.0,4.0,4.0,309.3186730984598,3.0,2.0,phase_1,,,,,,,,,,,,,green,flipped triangle
417.0,8.0,4.0,1.0,1.0,1.0,380.0544200930744,3.0,1.0,phase_1,,,,,,,,,,,,,blue,circle
400.0,8.0,4.0,1.0,2.0,2.0,445.9714589174837,3.0,1.0,phase_1,,,,,,,,,,,,,blue,circle
39.0,5.0,0.5,1.0,4.0,4.0,342.5952959805727,3.0,1.0,phase_1,,,,,,,,,,,,,yellow,I
398.0,4.0,4.0,0.0,2.0,2.0,345.7095641642809,3.0,1.0,phase_1,,,,,,,,,,,,,cyan,diamond
116.0,2.0,1.0,0.0,3.0,3.0,342.5452820956707,3.0,1.0,phase_1,,,,,,,,,,,,,green,flipped triangle
179.0,7.0,2.0,1.0,3.0,3.0,313.9647159259766,3.0,1.0,phase_1,,,,,,,,,,,,,white,triangle
77.0,6.0,1.0,1.0,4.0,4.0,318.8216781709343,3.0,1.0,phase_1,,,,,,,,,,,,,orange,cross
196.0,3.0,2.0,0.0,3.0,3.0,305.8545270469039,3.0,1.0,phase_1,,,,,,,,,,,,,gray,hexagon
412.0,8.0,4.0,1.0,3.0,3.0,306.38731084764,3.0,1.0,phase_1,,,,,,,,,,,,,blue,circle
0.0,8.0,0.0,1.0,1.0,1.0,331.0150511097163,3.0,1.0,phase_1,,,,,,,,,,,,,blue,circle
398.0,8.0,4.0,1.0,3.0,3.0,289.0944289974868,3.0,1.0,phase_1,,,,,,,,,,,,,blue,circle
85.0,6.0,1.0,1.0,2.0,2.0,277.4450988508761,3.0,1.0,phase_1,,,,,,,,,,,,,orange,cross
27.0,5.0,0.5,1.0,1.0,1.0,384.3249059282243,3.0,2.0,phase_1,,,,,,,,,,,,,yellow,I
182.0,3.0,2.0,0.0,1.0,1.0,317.7382869180292,3.0,1.0,phase_1,,,,,,,,,,,,,gray,hexagon
424.0,4.0,4.0,0.0,4.0,4.0,441.9154750648886,3.0,1.0,phase_1,,,,,,,,,,,,,cyan,diamond
376.0,8.0,4.0,1.0,4.0,4.0,360.1024318486452,3.0,1.0,phase_1,,,,,,,,,,,,,blue,circle
0.0,8.0,0.0,1.0,3.0,3.0,401.3407079037279,3.0,1.0,phase_1,,,,,,,,,,,,,blue,circle
49.0,1.0,0.5,0.0,3.0,3.0,360.4522950481623,3.0,1.0,phase_1,,,,,,,,,,,,,magenta,square
55.0,5.0,0.5,1.0,3.0,3.0,355.7044840417802,3.0,1.0,phase_1,,,,,,,,,,,,,yellow,I
0.0,5.0,0.0,1.0,3.0,3.0,321.0685609374195,3.0,1.0,phase_1,,,,,,,,,,,,,yellow,I
96.0,6.0,1.0,1.0,2.0,2.0,380.2361108828336,3.0,1.0,phase_1,,,,,,,,,,,,,orange,cross
380.0,4.0,4.0,0.0,1.0,1.0,379.1787349618971,3.0,1.0,phase_1,,,,,,,,,,,,,cyan,diamond
83.0,2.0,1.0,0.0,4.0,4.0,364.5908839534968,3.0,1.0,phase_1,,,,,,,,,,,,,green,flipped triangle
68.0,5.0,0.5,1.0,4.0,4.0,346.3414660654962,3.0,1.0,phase_1,,,,,,,,,,,,,yellow,I
118.0,6.0,1.0,1.0,3.0,3.0,379.9877450801432,4.0,1.0,phase_1,,,,,,,,,,,,,orange,cross
379.0,8.0,4.0,1.0,1.0,1.0,385.1389489136636,4.0,1.0,phase_1,,,,,,,,,,,,,blue,circle
211.0,7.0,2.0,1.0,4.0,4.0,333.4620490204543,4.0,1.0,phase_1,,,,,,,,,,,,,white,triangle
62.0,1.0,0.5,0.0,1.0,1.0,359.6290098503232,4.0,1.0,phase_1,,,,,,,,,,,,,magenta,square
94.0,6.0,1.0,1.0,1.0,1.0,404.3580619618296,4.0,1.0,phase_1,,,,,,,,,,,,,orange,cross
116.0,2.0,1.0,0.0,1.0,1.0,356.5717521123588,4.0,1.0,phase_1,,,,,,,,,,,,,green,flipped triangle
71.0,5.0,0.5,1.0,1.0,1.0,333.6250248830765,4.0,1.0,phase_1,,,,,,,,,,,,,yellow,I
0.0,6.0,0.0,1.0,1.0,1.0,346.4497050736099,4.0,1.0,phase_1,,,,,,,,,,,,,orange,cross
0.0,2.0,0.0,0.0,1.0,1.0,342.9809480439871,4.0,1.0,phase_1,,,,,,,,,,,,,green,flipped triangle
0.0,6.0,0.0,1.0,3.0,3.0,422.21009614877397,4.0,1.0,phase_1,,,,,,,,,,,,,orange,cross
0.0,6.0,0.0,1.0,4.0,4.0,322.2240500617772,4.0,1.0,phase_1,,,,,,,,,,,,,orange,cross
0.0,3.0,0.0,0.0,4.0,4.0,373.1233600992709,4.0,1.0,phase_1,,,,,,,,,,,,,gray,hexagon
206.0,3.0,2.0,0.0,2.0,2.0,364.2485500313341,4.0,1.0,phase_1,,,,,,,,,,,,,gray,hexagon
70.0,1.0,0.5,0.0,2.0,2.0,322.2144360188395,4.0,1.0,phase_1,,,,,,,,,,,,,magenta,square
0.0,1.0,0.0,0.0,2.0,2.0,322.5999008864164,4.0,1.0,phase_1,,,,,,,,,,,,,magenta,square
386.0,8.0,4.0,1.0,3.0,3.0,344.232551055029,4.0,1.0,phase_1,,,,,,,,,,,,,blue,circle
412.0,4.0,4.0,0.0,1.0,1.0,311.0723148565739,4.0,1.0,phase_1,,,,,,,,,,,,,cyan,diamond
180.0,3.0,2.0,0.0,4.0,4.0,276.4821490272879,4.0,1.0,phase_1,,,,,,,,,,,,,gray,hexagon
37.0,5.0,0.5,1.0,4.0,4.0,359.9851459730416,4.0,1.0,phase_1,,,,,,,,,,,,,yellow,I
0.0,8.0,0.0,1.0,4.0,4.0,268.4583910740912,4.0,1.0,phase_1,,,,,,,,,,,,,blue,circle
195.0,7.0,2.0,1.0,2.0,2.0,303.3158469479531,4.0,1.0,phase_1,,,,,,,,,,,,,white,triangle
61.0,5.0,0.5,1.0,2.0,2.0,323.4557679388672,4.0,1.0,phase_1,,,,,,,,,,,,,yellow,I
0.0,4.0,0.0,0.0,2.0,2.0,242.8058441728353,4.0,1.0,phase_1,,,,,,,,,,,,,cyan,diamond
0.0,4.0,0.0,0.0,1.0,1.0,352.1473058499396,4.0,1.0,phase_1,,,,,,,,,,,,,cyan,diamond
116.0,6.0,1.0,1.0,3.0,3.0,317.0421719551086,4.0,1.0,phase_1,,,,,,,,,,,,,orange,cross
200.0,3.0,2.0,0.0,2.0,2.0,400.5135728511959,4.0,1.0,phase_1,,,,,,,,,,,,,gray,hexagon
39.0,1.0,0.5,0.0,1.0,1.0,308.0499640200287,4.0,1.0,phase_1,,,,,,,,,,,,,magenta,square
390.0,8.0,4.0,1.0,1.0,1.0,330.7041421066969,4.0,1.0,phase_1,,,,,,,,,,,,,blue,circle
29.0,5.0,0.5,1.0,2.0,2.0,380.6154162157327,4.0,1.0,phase_1,,,,,,,,,,,,,yellow,I
0.0,1.0,0.0,0.0,3.0,3.0,339.9473279714584,4.0,1.0,phase_1,,,,,,,,,,,,,magenta,square
68.0,1.0,0.5,0.0,3.0,3.0,450.3454340156168,4.0,1.0,phase_1,,,,,,,,,,,,,magenta,square
0.0,1.0,0.0,0.0,3.0,3.0,346.4512128848582,4.0,1.0,phase_1,,,,,,,,,,,,,magenta,square
417.0,4.0,4.0,0.0,1.0,1.0,399.9303688760847,4.0,1.0,phase_1,,,,,,,,,,,,,cyan,diamond
97.0,6.0,1.0,1.0,3.0,3.0,343.9057560171932,4.0,1.0,phase_1,,,,,,,,,,,,,orange,cross
63.0,5.0,0.5,1.0,4.0,4.0,304.8408899921924,4.0,1.0,phase_1,,,,,,,,,,,,,yellow,I
221.0,3.0,2.0,0.0,4.0,4.0,334.0586731210351,4.0,1.0,phase_1,,,,,,,,,,,,,gray,hexagon
394.0,8.0,4.0,1.0,4.0,4.0,317.4851990770548,4.0,1.0,phase_1,,,,,,,,,,,,,blue,circle
55.0,1.0,0.5,0.0,2.0,2.0,350.9783300105482,4.0,1.0,phase_1,,,,,,,,,,,,,magenta,square
416.0,8.0,4.0,1.0,3.0,3.0,491.7973119299859,4.0,1.0,phase_1,,,,,,,,,,,,,blue,circle
29.0,1.0,0.5,0.0,4.0,4.0,386.0618898179382,4.0,1.0,phase_1,,,,,,,,,,,,,magenta,square
0.0,2.0,0.0,0.0,2.0,2.0,372.6755869574845,4.0,1.0,phase_1,,,,,,,,,,,,,green,flipped triangle
0.0,6.0,0.0,1.0,1.0,1.0,259.7473040223121,4.0,1.0,phase_1,,,,,,,,,,,,,orange,cross
394.0,8.0,4.0,1.0,2.0,2.0,376.0522899683565,4.0,1.0,phase_1,,,,,,,,,,,,,blue,circle
405.0,8.0,4.0,1.0,4.0,4.0,364.9509600363672,4.0,1.0,phase_1,,,,,,,,,,,,,blue,circle
96.0,2.0,1.0,0.0,1.0,1.0,407.9503261018544,4.0,1.0,phase_1,,,,,,,,,,,,,green,flipped triangle
55.0,1.0,0.5,0.0,4.0,4.0,311.3115299493074,4.0,1.0,phase_1,,,,,,,,,,,,,magenta,square
0.0,6.0,0.0,1.0,2.0,2.0,330.9988069813698,4.0,1.0,phase_1,,,,,,,,,,,,,orange,cross
403.0,4.0,4.0,0.0,4.0,4.0,342.4383541569114,4.0,1.0,phase_1,,,,,,,,,,,,,cyan,diamond
206.0,7.0,2.0,1.0,2.0,2.0,457.8568120487034,4.0,1.0,phase_1,,,,,,,,,,,,,white,triangle
193.0,3.0,2.0,0.0,2.0,2.0,322.0585298258811,4.0,1.0,phase_1,,,,,,,,,,,,,gray,hexagon
0.0,5.0,0.0,1.0,2.0,2.0,302.5623478461057,4.0,1.0,phase_1,,,,,,,,,,,,,yellow,I
100.0,6.0,1.0,1.0,4.0,4.0,307.9364800360054,4.0,1.0,phase_1,,,,,,,,,,,,,orange,cross
411.0,4.0,4.0,0.0,1.0,1.0,269.3611579015851,4.0,1.0,phase_1,,,,,,,,,,,,,cyan,diamond
94.0,2.0,1.0,0.0,2.0,2.0,289.3946268595755,4.0,1.0,phase_1,,,,,,,,,,,,,green,flipped triangle
180.0,3.0,2.0,0.0,4.0,4.0,256.6435800399631,4.0,1.0,phase_1,,,,,,,,,,,,,gray,hexagon
120.0,6.0,1.0,1.0,3.0,3.0,309.2013448476791,4.0,1.0,phase_1,,,,,,,,,,,,,orange,cross
0.0,4.0,0.0,0.0,1.0,1.0,368.5424411669373,4.0,1.0,phase_1,,,,,,,,,,,,,cyan,diamond
0.0,3.0,0.0,0.0,4.0,4.0,342.9173759650439,4.0,1.0,phase_1,,,,,,,,,,,,,gray,hexagon
221.0,3.0,2.0,0.0,1.0,1.0,316.7356380727142,4.0,1.0,phase_1,,,,,,,,,,,,,gray,hexagon
180.0,7.0,2.0,1.0,1.0,1.0,311.8709758855402,4.0,1.0,phase_1,,,,,,,,,,,,,white,triangle
38.0,5.0,0.5,1.0,2.0,2.0,339.5548821426928,4.0,1.0,phase_1,,,,,,,,,,,,,yellow,I
0.0,4.0,0.0,0.0,2.0,2.0,322.1514930482954,4.0,1.0,phase_1,,,,,,,,,,,,,cyan,diamond
193.0,7.0,2.0,1.0,2.0,2.0,294.1291572060436,4.0,1.0,phase_1,,,,,,,,,,,,,white,triangle
419.0,8.0,4.0,1.0,2.0,2.0,339.6446038968861,4.0,1.0,phase_1,,,,,,,,,,,,,blue,circle
415.0,8.0,4.0,1.0,1.0,1.0,400.0879449304193,4.0,1.0,phase_1,,,,,,,,,,,,,blue,circle
36.0,1.0,0.5,0.0,1.0,1.0,309.9253419786691,4.0,1.0,phase_1,,,,,,,,,,,,,magenta,square
0.0,2.0,0.0,0.0,1.0,1.0,313.8890119735151,4.0,1.0,phase_1,,,,,,,,,,,,,green,flipped triangle
75.0,1.0,0.5,0.0,1.0,1.0,327.6027590036392,4.0,1.0,phase_1,,,,,,,,,,,,,magenta,square
390.0,4.0,4.0,0.0,2.0,2.0,323.4860519878566,4.0,1.0,phase_1,,,,,,,,,,,,,cyan,diamond
26.0,5.0,0.5,1.0,3.0,3.0,367.2968989703804,4.0,1.0,phase_1,,,,,,,,,,,,,yellow,I
100.0,2.0,1.0,0.0,2.0,2.0,331.8322349805385,4.0,1.0,phase_1,,,,,,,,,,,,,green,flipped triangle
52.0,1.0,0.5,0.0,2.0,2.0,335.0920039229095,4.0,1.0,phase_1,,,,,,,,,,,,,magenta,square
40.0,1.0,0.5,0.0,1.0,1.0,427.4012770038098,4.0,1.0,phase_1,,,,,,,,,,,,,magenta,square
0.0,4.0,0.0,0.0,1.0,1.0,312.379736918956,4.0,1.0,phase_1,,,,,,,,,,,,,cyan,diamond
88.0,6.0,1.0,1.0,4.0,4.0,422.0347728114575,4.0,1.0,phase_1,,,,,,,,,,,,,orange,cross
187.0,7.0,2.0,1.0,1.0,1.0,305.8111970312893,4.0,1.0,phase_1,,,,,,,,,,,,,white,triangle
83.0,6.0,1.0,1.0,4.0,4.0,422.3951699677855,4.0,1.0,phase_1,,,,,,,,,,,,,orange,cross
119.0,2.0,1.0,0.0,2.0,2.0,389.3804671242833,4.0,1.0,phase_1,,,,,,,,,,,,,green,flipped triangle
63.0,5.0,0.5,1.0,1.0,1.0,335.1138378493488,4.0,1.0,phase_1,,,,,,,,,,,,,yellow,I
125.0,2.0,1.0,0.0,1.0,1.0,278.5701698157936,4.0,1.0,phase_1,,,,,,,,,,,,,green,flipped triangle
178.0,3.0,2.0,0.0,3.0,3.0,458.0591591075063,4.0,1.0,phase_1,,,,,,,,,,,,,gray,hexagon
0.0,5.0,0.0,1.0,1.0,1.0,368.1416381150484,4.0,1.0,phase_1,,,,,,,,,,,,,yellow,I
0.0,6.0,0.0,1.0,3.0,3.0,353.8229309488088,4.0,1.0,phase_1,,,,,,,,,,,,,orange,cross
380.0,8.0,4.0,1.0,4.0,4.0,304.6108821872622,4.0,1.0,phase_1,,,,,,,,,,,,,blue,circle
77.0,2.0,1.0,0.0,1.0,1.0,366.9454979244619,4.0,1.0,phase_1,,,,,,,,,,,,,green,flipped triangle
405.0,4.0,4.0,0.0,2.0,2.0,304.8515869304538,4.0,1.0,phase_1,,,,,,,,,,,,,cyan,diamond
386.0,4.0,4.0,0.0,3.0,3.0,360.5649361852556,4.0,1.0,phase_1,,,,,,,,,,,,,cyan,diamond
0.0,2.0,0.0,0.0,1.0,1.0,347.8257558308542,4.0,1.0,phase_1,,,,,,,,,,,,,green,flipped triangle
100.0,6.0,1.0,1.0,1.0,1.0,369.8198550846427,4.0,1.0,phase_1,,,,,,,,,,,,,orange,cross
178.0,3.0,2.0,0.0,1.0,1.0,284.6308641601354,4.0,1.0,phase_1,,,,,,,,,,,,,gray,hexagon
382.0,4.0,4.0,0.0,2.0,2.0,330.5444000288844,4.0,1.0,phase_1,,,,,,,,,,,,,cyan,diamond
0.0,7.0,0.0,1.0,3.0,3.0,420.335300033912,4.0,1.0,phase_1,,,,,,,,,,,,,white,triangle
210.0,3.0,2.0,0.0,4.0,4.0,273.0893010739237,4.0,1.0,phase_1,,,,,,,,,,,,,gray,hexagon
378.0,4.0,4.0,0.0,2.0,2.0,239.9363680742681,4.0,1.0,phase_1,,,,,,,,,,,,,cyan,diamond
0.0,8.0,0.0,1.0,3.0,3.0,364.0324929729104,4.0,1.0,phase_1,,,,,,,,,,,,,blue,circle
400.0,4.0,4.0,0.0,1.0,1.0,248.1044179294258,4.0,1.0,phase_1,,,,,,,,,,,,,cyan,diamond
219.0,3.0,2.0,0.0,1.0,1.0,461.2305648624897,4.0,1.0,phase_1,,,,,,,,,,,,,gray,hexagon
30.0,1.0,0.5,0.0,4.0,4.0,322.5639429874718,4.0,1.0,phase_1,,,,,,,,,,,,,magenta,square
219.0,7.0,2.0,1.0,2.0,2.0,248.13275411725039,4.0,1.0,phase_1,,,,,,,,,,,,,white,triangle
51.0,1.0,0.5,0.0,1.0,1.0,386.4372579846531,4.0,1.0,phase_1,,,,,,,,,,,,,magenta,square
0.0,3.0,2.0,0.0,6.0,6.0,375.457544112578,1.0,1.0,phase_2,go,250.0,250.0,1.0,,,,,,,,,gray,hexagon
0.0,8.0,4.0,1.0,6.0,6.0,583.6028978228569,1.0,1.0,phase_2,stop,250.0,250.0,3.0,,,,,,,,,blue,circle
0.0,1.0,0.5,0.0,6.0,6.0,707.6821769587696,1.0,1.0,phase_2,go,250.0,200.0,1.0,,,,,,,,,magenta,square
0.0,1.0,0.5,0.0,5.0,5.0,789.4105091691017,1.0,1.0,phase_2,go,250.0,200.0,1.0,,,,,,,,,magenta,square
0.0,7.0,2.0,1.0,5.0,0.0,0.0,1.0,1.0,phase_2,stop,250.0,200.0,4.0,,,,,,,,,white,triangle
0.0,1.0,0.5,0.0,5.0,5.0,540.799381909892,1.0,1.0,phase_2,go,300.0,200.0,1.0,,,,,,,,,magenta,square
0.0,6.0,1.0,1.0,5.0,0.0,0.0,1.0,1.0,phase_2,stop,300.0,200.0,4.0,,,,,,,,,orange,cross
0.0,4.0,4.0,0.0,6.0,6.0,308.2549429964274,1.0,1.0,phase_2,go,350.0,200.0,1.0,,,,,,,,,cyan,diamond
0.0,6.0,1.0,1.0,6.0,6.0,408.673285972327,1.0,1.0,phase_2,go,350.0,200.0,1.0,,,,,,,,,orange,cross
0.0,2.0,1.0,0.0,6.0,6.0,682.2081587743014,1.0,1.0,phase_2,go,350.0,200.0,1.0,,,,,,,,,green,flipped triangle
0.0,1.0,0.5,0.0,6.0,6.0,522.8980958927423,1.0,1.0,phase_2,go,350.0,200.0,1.0,,,,,,,,,magenta,square
0.0,2.0,1.0,0.0,6.0,6.0,442.4280060920864,1.0,1.0,phase_2,go,350.0,200.0,1.0,,,,,,,,,green,flipped triangle
0.0,4.0,4.0,0.0,5.0,5.0,552.232142072171,1.0,1.0,phase_2,go,350.0,200.0,1.0,,,,,,,,,cyan,diamond
0.0,4.0,4.0,0.0,6.0,6.0,552.1187330596149,1.0,1.0,phase_2,go,350.0,200.0,1.0,,,,,,,,,cyan,diamond
0.0,2.0,1.0,0.0,5.0,5.0,399.0942719392478,1.0,1.0,phase_2,go,350.0,200.0,1.0,,,,,,,,,green,flipped triangle
0.0,8.0,4.0,1.0,6.0,0.0,0.0,1.0,1.0,phase_2,stop,350.0,200.0,4.0,,,,,,,,,blue,circle
0.0,8.0,4.0,1.0,5.0,5.0,581.4825419802219,1.0,1.0,phase_2,stop,350.0,250.0,3.0,,,,,,,,,blue,circle
0.0,3.0,2.0,0.0,5.0,5.0,483.5898410528898,1.0,1.0,phase_2,go,300.0,250.0,1.0,,,,,,,,,gray,hexagon
0.0,3.0,2.0,0.0,6.0,6.0,491.4028940256685,1.0,1.0,phase_2,go,300.0,250.0,1.0,,,,,,,,,gray,hexagon
0.0,6.0,1.0,1.0,5.0,5.0,381.5125259570777,1.0,1.0,phase_2,stop,300.0,250.0,3.0,,,,,,,,,orange,cross
0.0,8.0,4.0,1.0,5.0,0.0,0.0,1.0,1.0,phase_2,stop,250.0,250.0,4.0,,,,,,,,,blue,circle
0.0,8.0,4.0,1.0,5.0,0.0,0.0,1.0,1.0,phase_2,stop,300.0,250.0,4.0,,,,,,,,,blue,circle
0.0,1.0,0.5,0.0,6.0,6.0,491.5562481619417,1.0,1.0,phase_2,go,350.0,250.0,1.0,,,,,,,,,magenta,square
0.0,5.0,0.5,1.0,5.0,5.0,474.8461849521845,1.0,1.0,phase_2,stop,350.0,250.0,3.0,,,,,,,,,yellow,I
0.0,6.0,1.0,1.0,6.0,6.0,505.9293869417161,1.0,1.0,phase_2,go,300.0,250.0,1.0,,,,,,,,,orange,cross
0.0,4.0,4.0,0.0,6.0,6.0,673.2857909519225,1.0,1.0,phase_2,go,300.0,250.0,1.0,,,,,,,,,cyan,diamond
0.0,7.0,2.0,1.0,6.0,0.0,0.0,1.0,1.0,phase_2,stop,300.0,250.0,4.0,,,,,,,,,white,triangle
0.0,1.0,0.5,0.0,5.0,5.0,598.2372818980366,1.0,1.0,phase_2,go,300.0,300.0,1.0,,,,,,,,,magenta,square
0.0,7.0,2.0,1.0,5.0,0.0,0.0,1.0,1.0,phase_2,stop,300.0,300.0,4.0,,,,,,,,,white,triangle
0.0,8.0,4.0,1.0,6.0,0.0,0.0,1.0,1.0,phase_2,stop,350.0,300.0,4.0,,,,,,,,,blue,circle
0.0,4.0,4.0,0.0,6.0,6.0,591.3618339691311,1.0,1.0,phase_2,go,350.0,350.0,1.0,,,,,,,,,cyan,diamond
0.0,7.0,2.0,1.0,6.0,0.0,0.0,1.0,1.0,phase_2,stop,350.0,350.0,4.0,,,,,,,,,white,triangle
0.0,5.0,0.5,1.0,5.0,5.0,606.6796069499105,1.0,1.0,phase_2,go,350.0,400.0,1.0,,,,,,,,,yellow,I
0.0,6.0,1.0,1.0,6.0,6.0,587.3742310795933,1.0,1.0,phase_2,go,350.0,400.0,1.0,,,,,,,,,orange,cross
0.0,3.0,2.0,0.0,6.0,6.0,621.9214571174234,1.0,1.0,phase_2,go,350.0,400.0,1.0,,,,,,,,,gray,hexagon
0.0,8.0,4.0,1.0,5.0,0.0,0.0,1.0,1.0,phase_2,stop,350.0,400.0,4.0,,,,,,,,,blue,circle
0.0,1.0,0.5,0.0,6.0,6.0,816.5729050524533,2.0,1.0,phase_2,go,400.0,400.0,1.0,,,,,,,,,magenta,square
0.0,5.0,0.5,1.0,6.0,6.0,431.3961318694055,2.0,1.0,phase_2,stop,400.0,400.0,3.0,,,,,,,,,yellow,I
0.0,7.0,2.0,1.0,6.0,0.0,0.0,2.0,1.0,phase_2,stop,400.0,350.0,4.0,,,,,,,,,white,triangle
0.0,6.0,1.0,1.0,6.0,0.0,0.0,2.0,1.0,phase_2,stop,400.0,400.0,4.0,,,,,,,,,orange,cross
0.0,2.0,1.0,0.0,6.0,6.0,566.3881371729076,2.0,1.0,phase_2,go,400.0,450.0,1.0,,,,,,,,,green,flipped triangle
0.0,5.0,0.5,1.0,6.0,6.0,569.5895019453019,2.0,1.0,phase_2,stop,400.0,450.0,3.0,,,,,,,,,yellow,I
0.0,7.0,2.0,1.0,5.0,0.0,0.0,2.0,1.0,phase_2,stop,400.0,400.0,4.0,,,,,,,,,white,triangle
0.0,3.0,2.0,0.0,5.0,5.0,582.5578409712762,2.0,1.0,phase_2,go,450.0,400.0,1.0,,,,,,,,,gray,hexagon
0.0,2.0,1.0,0.0,6.0,6.0,723.6362812109292,2.0,1.0,phase_2,go,450.0,400.0,1.0,,,,,,,,,green,flipped triangle
0.0,5.0,0.5,1.0,6.0,0.0,0.0,2.0,1.0,phase_2,stop,450.0,400.0,4.0,,,,,,,,,yellow,I
0.0,4.0,4.0,0.0,6.0,6.0,581.435431027785,2.0,1.0,phase_2,go,450.0,450.0,1.0,,,,,,,,,cyan,diamond
0.0,7.0,2.0,1.0,5.0,0.0,0.0,2.0,1.0,phase_2,stop,450.0,450.0,4.0,,,,,,,,,white,triangle
0.0,3.0,2.0,0.0,6.0,6.0,588.9043489005417,2.0,1.0,phase_2,go,500.0,450.0,1.0,,,,,,,,,gray,hexagon
0.0,6.0,1.0,1.0,6.0,0.0,0.0,2.0,1.0,phase_2,stop,500.0,450.0,4.0,,,,,,,,,orange,cross
0.0,5.0,0.5,1.0,6.0,6.0,592.941421084106,2.0,1.0,phase_2,stop,500.0,500.0,3.0,,,,,,,,,yellow,I
0.0,3.0,2.0,0.0,6.0,6.0,682.6507470104843,2.0,1.0,phase_2,go,500.0,450.0,1.0,,,,,,,,,gray,hexagon
0.0,5.0,0.5,1.0,6.0,0.0,0.0,2.0,1.0,phase_2,stop,500.0,450.0,4.0,,,,,,,,,yellow,I
0.0,7.0,2.0,1.0,6.0,6.0,694.5076161064208,2.0,1.0,phase_2,go,500.0,500.0,1.0,,,,,,,,,white,triangle
0.0,6.0,1.0,1.0,5.0,0.0,0.0,2.0,1.0,phase_2,stop,500.0,500.0,4.0,,,,,,,,,orange,cross
0.0,7.0,2.0,1.0,5.0,5.0,840.3634480200708,2.0,1.0,phase_2,go,550.0,500.0,1.0,,,,,,,,,white,triangle
0.0,4.0,4.0,0.0,5.0,5.0,828.7862469442189,2.0,1.0,phase_2,go,550.0,500.0,1.0,,,,,,,,,cyan,diamond
0.0,6.0,1.0,1.0,6.0,0.0,0.0,2.0,1.0,phase_2,stop,550.0,500.0,4.0,,,,,,,,,orange,cross
0.0,1.0,0.5,0.0,5.0,5.0,446.0803808178752,2.0,1.0,phase_2,go,550.0,550.0,1.0,,,,,,,,,magenta,square
0.0,1.0,0.5,0.0,6.0,6.0,645.1466069556773,2.0,1.0,phase_2,go,550.0,550.0,1.0,,,,,,,,,magenta,square
0.0,1.0,0.5,0.0,6.0,6.0,670.9279420319945,2.0,1.0,phase_2,go,550.0,550.0,1.0,,,,,,,,,magenta,square
0.0,2.0,1.0,0.0,5.0,5.0,733.5709009785205,2.0,1.0,phase_2,go,550.0,550.0,1.0,,,,,,,,,green,flipped triangle
0.0,7.0,2.0,1.0,6.0,6.0,604.6462839003652,2.0,1.0,phase_2,stop,550.0,550.0,3.0,,,,,,,,,white,triangle
0.0,7.0,2.0,1.0,5.0,5.0,595.0728191528469,2.0,1.0,phase_2,go,550.0,500.0,1.0,,,,,,,,,white,triangle
0.0,7.0,2.0,1.0,6.0,6.0,699.7989029623568,2.0,1.0,phase_2,go,550.0,500.0,1.0,,,,,,,,,white,triangle
0.0,1.0,0.5,0.0,5.0,5.0,667.9905420169234,2.0,1.0,phase_2,go,550.0,500.0,1.0,,,,,,,,,magenta,square
0.0,6.0,1.0,1.0,6.0,6.0,608.3672570530325,2.0,1.0,phase_2,stop,550.0,500.0,3.0,,,,,,,,,orange,cross
0.0,3.0,2.0,0.0,5.0,5.0,618.3215018827468,2.0,1.0,phase_2,go,550.0,450.0,1.0,,,,,,,,,gray,hexagon
0.0,4.0,4.0,0.0,5.0,5.0,768.6835119966418,2.0,1.0,phase_2,go,550.0,450.0,1.0,,,,,,,,,cyan,diamond
0.0,4.0,4.0,0.0,6.0,6.0,853.6381979938596,2.0,1.0,phase_2,go,550.0,450.0,1.0,,,,,,,,,cyan,diamond
0.0,7.0,2.0,1.0,6.0,0.0,0.0,2.0,1.0,phase_2,stop,550.0,450.0,4.0,,,,,,,,,white,triangle
0.0,5.0,0.5,1.0,5.0,5.0,527.4336049333215,2.0,1.0,phase_2,stop,550.0,500.0,3.0,,,,,,,,,yellow,I
0.0,2.0,1.0,0.0,6.0,6.0,693.3120607864112,3.0,1.0,phase_2,go,500.0,500.0,1.0,,,,,,,,,green,flipped triangle
0.0,3.0,2.0,0.0,6.0,6.0,664.3078341148794,3.0,1.0,phase_2,go,500.0,500.0,1.0,,,,,,,,,gray,hexagon
0.0,8.0,4.0,1.0,6.0,6.0,599.8587419744581,3.0,1.0,phase_2,stop,500.0,500.0,3.0,,,,,,,,,blue,circle
0.0,4.0,4.0,0.0,5.0,5.0,719.7916570585221,3.0,1.0,phase_2,go,500.0,450.0,1.0,,,,,,,,,cyan,diamond
0.0,4.0,4.0,0.0,6.0,6.0,543.7440320383757,3.0,1.0,phase_2,go,500.0,450.0,1.0,,,,,,,,,cyan,diamond
0.0,3.0,2.0,0.0,5.0,5.0,441.6590249165892,3.0,1.0,phase_2,go,500.0,450.0,1.0,,,,,,,,,gray,hexagon
0.0,4.0,4.0,0.0,5.0,5.0,649.4206408970058,3.0,1.0,phase_2,go,500.0,450.0,1.0,,,,,,,,,cyan,diamond
0.0,1.0,0.5,0.0,5.0,5.0,653.4478811081499,3.0,1.0,phase_2,go,500.0,450.0,1.0,,,,,,,,,magenta,square
0.0,7.0,2.0,1.0,5.0,0.0,0.0,3.0,1.0,phase_2,stop,500.0,450.0,4.0,,,,,,,,,white,triangle
0.0,7.0,2.0,1.0,5.0,5.0,502.67995381727815,3.0,1.0,phase_2,stop,550.0,450.0,3.0,,,,,,,,,white,triangle
0.0,4.0,4.0,0.0,5.0,5.0,659.3769888859242,3.0,1.0,phase_2,go,500.0,450.0,1.0,,,,,,,,,cyan,diamond
0.0,4.0,4.0,0.0,5.0,5.0,518.1176890619099,3.0,1.0,phase_2,go,500.0,450.0,1.0,,,,,,,,,cyan,diamond
0.0,8.0,4.0,1.0,5.0,0.0,0.0,3.0,1.0,phase_2,stop,500.0,450.0,4.0,,,,,,,,,blue,circle
0.0,3.0,2.0,0.0,6.0,6.0,604.1401568800211,3.0,1.0,phase_2,go,550.0,450.0,1.0,,,,,,,,,gray,hexagon
0.0,5.0,0.5,1.0,5.0,0.0,0.0,3.0,1.0,phase_2,stop,550.0,450.0,4.0,,,,,,,,,yellow,I
0.0,7.0,2.0,1.0,5.0,5.0,649.94150493294,3.0,1.0,phase_2,stop,600.0,450.0,3.0,,,,,,,,,white,triangle
0.0,8.0,4.0,1.0,5.0,5.0,800.3450981341302,3.0,1.0,phase_2,go,550.0,450.0,1.0,,,,,,,,,blue,circle
0.0,2.0,1.0,0.0,5.0,5.0,634.8102919291705,3.0,1.0,phase_2,go,550.0,450.0,1.0,,,,,,,,,green,flipped triangle
0.0,3.0,2.0,0.0,5.0,5.0,600.2876050770283,3.0,1.0,phase_2,go,550.0,450.0,1.0,,,,,,,,,gray,hexagon
0.0,6.0,1.0,1.0,5.0,5.0,616.9609799981117,3.0,1.0,phase_2,stop,550.0,450.0,3.0,,,,,,,,,orange,cross
0.0,5.0,0.5,1.0,5.0,0.0,0.0,3.0,1.0,phase_2,stop,500.0,450.0,4.0,,,,,,,,,yellow,I
0.0,7.0,2.0,1.0,5.0,5.0,640.7277919352055,3.0,1.0,phase_2,stop,550.0,450.0,3.0,,,,,,,,,white,triangle
0.0,7.0,2.0,1.0,6.0,6.0,341.2367759738117,3.0,1.0,phase_2,go,500.0,450.0,1.0,,,,,,,,,white,triangle
0.0,2.0,1.0,0.0,5.0,5.0,677.1807849872857,3.0,1.0,phase_2,go,500.0,450.0,1.0,,,,,,,,,green,flipped triangle
0.0,7.0,2.0,1.0,6.0,6.0,430.5651150643825,3.0,1.0,phase_2,go,500.0,450.0,1.0,,,,,,,,,white,triangle
0.0,6.0,1.0,1.0,6.0,6.0,414.0205399598926,3.0,1.0,phase_2,stop,500.0,450.0,3.0,,,,,,,,,orange,cross
0.0,4.0,4.0,0.0,6.0,6.0,509.6194159705192,3.0,1.0,phase_2,go,500.0,400.0,1.0,,,,,,,,,cyan,diamond
0.0,6.0,1.0,1.0,6.0,6.0,510.26573101989925,3.0,1.0,phase_2,stop,500.0,400.0,3.0,,,,,,,,,orange,cross
0.0,7.0,2.0,1.0,6.0,0.0,0.0,3.0,1.0,phase_2,stop,500.0,350.0,4.0,,,,,,,,,white,triangle
0.0,2.0,1.0,0.0,5.0,5.0,498.7120260484516,3.0,1.0,phase_2,go,500.0,400.0,1.0,,,,,,,,,green,flipped triangle
0.0,2.0,1.0,0.0,6.0,6.0,435.0353619083762,3.0,1.0,phase_2,go,500.0,400.0,1.0,,,,,,,,,green,flipped triangle
0.0,2.0,1.0,0.0,5.0,5.0,642.8383879829198,3.0,1.0,phase_2,go,500.0,400.0,1.0,,,,,,,,,green,flipped triangle
0.0,3.0,2.0,0.0,6.0,6.0,449.6260250452906,3.0,1.0,phase_2,go,500.0,400.0,1.0,,,,,,,,,gray,hexagon
0.0,7.0,2.0,1.0,5.0,5.0,416.4875640999526,3.0,1.0,phase_2,go,500.0,400.0,1.0,,,,,,,,,white,triangle
0.0,6.0,1.0,1.0,6.0,6.0,408.6701679043472,3.0,1.0,phase_2,go,500.0,400.0,1.0,,,,,,,,,orange,cross
0.0,3.0,2.0,0.0,5.0,5.0,465.2934840414673,3.0,1.0,phase_2,go,500.0,400.0,1.0,,,,,,,,,gray,hexagon
0.0,1.0,0.5,0.0,6.0,6.0,787.125953938812,4.0,1.0,phase_2,go,500.0,400.0,1.0,,,,,,,,,magenta,square
0.0,3.0,2.0,0.0,5.0,5.0,388.0905129481107,4.0,1.0,phase_2,go,500.0,400.0,1.0,,,,,,,,,gray,hexagon
0.0,6.0,1.0,1.0,6.0,6.0,284.6007489133626,4.0,1.0,phase_2,stop,500.0,400.0,3.0,,,,,,,,,orange,cross
0.0,5.0,0.5,1.0,5.0,5.0,466.1968799773603,4.0,1.0,phase_2,stop,500.0,350.0,3.0,,,,,,,,,yellow,I
0.0,5.0,0.5,1.0,6.0,0.0,0.0,4.0,1.0,phase_2,stop,450.0,350.0,4.0,,,,,,,,,yellow,I
0.0,4.0,4.0,0.0,5.0,5.0,611.0475619789213,4.0,1.0,phase_2,go,450.0,400.0,1.0,,,,,,,,,cyan,diamond
0.0,1.0,0.5,0.0,6.0,6.0,600.5124009680003,4.0,1.0,phase_2,go,450.0,400.0,1.0,,,,,,,,,magenta,square
0.0,4.0,4.0,0.0,6.0,6.0,312.1743770316243,4.0,1.0,phase_2,go,450.0,400.0,1.0,,,,,,,,,cyan,diamond
0.0,4.0,4.0,0.0,6.0,6.0,330.3315071389079,4.0,1.0,phase_2,go,450.0,400.0,1.0,,,,,,,,,cyan,diamond
0.0,4.0,4.0,0.0,6.0,6.0,263.3662200532853,4.0,1.0,phase_2,go,450.0,400.0,1.0,,,,,,,,,cyan,diamond
0.0,6.0,1.0,1.0,5.0,5.0,322.1963939722627,4.0,1.0,phase_2,stop,450.0,400.0,3.0,,,,,,,,,orange,cross
0.0,8.0,4.0,1.0,6.0,6.0,480.8889979030937,4.0,1.0,phase_2,go,400.0,400.0,1.0,,,,,,,,,blue,circle
0.0,6.0,1.0,1.0,5.0,5.0,572.9956990107894,4.0,1.0,phase_2,go,400.0,400.0,1.0,,,,,,,,,orange,cross
0.0,5.0,0.5,1.0,5.0,5.0,503.54903982952237,4.0,1.0,phase_2,go,400.0,400.0,1.0,,,,,,,,,yellow,I
0.0,3.0,2.0,0.0,5.0,5.0,291.4900898467749,4.0,1.0,phase_2,go,400.0,400.0,1.0,,,,,,,,,gray,hexagon
0.0,3.0,2.0,0.0,6.0,6.0,363.119093934074,4.0,1.0,phase_2,go,400.0,400.0,1.0,,,,,,,,,gray,hexagon
0.0,7.0,2.0,1.0,6.0,6.0,382.8494090121239,4.0,1.0,phase_2,stop,400.0,400.0,3.0,,,,,,,,,white,triangle
0.0,4.0,4.0,0.0,5.0,5.0,516.9805940240622,4.0,1.0,phase_2,go,400.0,350.0,1.0,,,,,,,,,cyan,diamond
0.0,7.0,2.0,1.0,5.0,5.0,508.7951950263232,4.0,1.0,phase_2,stop,400.0,350.0,3.0,,,,,,,,,white,triangle
0.0,4.0,4.0,0.0,5.0,5.0,665.9589640330523,4.0,1.0,phase_2,go,350.0,350.0,1.0,,,,,,,,,cyan,diamond
0.0,3.0,2.0,0.0,5.0,5.0,600.4699021577835,4.0,1.0,phase_2,go,350.0,350.0,1.0,,,,,,,,,gray,hexagon
0.0,6.0,1.0,1.0,5.0,0.0,0.0,4.0,1.0,phase_2,stop,350.0,350.0,4.0,,,,,,,,,orange,cross
0.0,1.0,0.5,0.0,5.0,5.0,562.6264770980924,4.0,1.0,phase_2,go,400.0,350.0,1.0,,,,,,,,,magenta,square
0.0,1.0,0.5,0.0,6.0,6.0,295.0131809338927,4.0,1.0,phase_2,go,400.0,350.0,1.0,,,,,,,,,magenta,square
0.0,8.0,4.0,1.0,5.0,0.0,0.0,4.0,1.0,phase_2,stop,400.0,350.0,4.0,,,,,,,,,blue,circle
0.0,1.0,0.5,0.0,5.0,5.0,502.22094799391925,4.0,1.0,phase_2,go,450.0,350.0,1.0,,,,,,,,,magenta,square
0.0,1.0,0.5,0.0,6.0,6.0,493.1568801403045,4.0,1.0,phase_2,go,450.0,350.0,1.0,,,,,,,,,magenta,square
0.0,8.0,4.0,1.0,6.0,0.0,0.0,4.0,1.0,phase_2,stop,450.0,350.0,4.0,,,,,,,,,blue,circle
0.0,3.0,2.0,0.0,6.0,6.0,518.8920269720256,4.0,1.0,phase_2,go,450.0,400.0,1.0,,,,,,,,,gray,hexagon
0.0,4.0,4.0,0.0,5.0,5.0,652.0463130436838,4.0,1.0,phase_2,go,450.0,400.0,1.0,,,,,,,,,cyan,diamond
0.0,5.0,0.5,1.0,6.0,0.0,0.0,4.0,1.0,phase_2,stop,450.0,400.0,4.0,,,,,,,,,yellow,I
0.0,5.0,0.5,1.0,6.0,6.0,562.8991068806499,4.0,1.0,phase_2,stop,450.0,450.0,3.0,,,,,,,,,yellow,I
0.0,1.0,0.5,0.0,6.0,6.0,564.4557771738619,4.0,1.0,phase_2,go,450.0,400.0,1.0,,,,,,,,,magenta,square
0.0,6.0,1.0,1.0,5.0,0.0,0.0,4.0,1.0,phase_2,stop,450.0,400.0,4.0,,,,,,,,,orange,cross
0.0,1.0,0.5,0.0,5.0,5.0,603.7752900738269,4.0,1.0,phase_2,go,500.0,400.0,1.0,,,,,,,,,magenta,square
0.0,3.0,2.0,0.0,6.0,6.0,570.3715069685131,4.0,1.0,phase_2,go,500.0,400.0,1.0,,,,,,,,,gray,hexagon
0.0,2.0,1.0,0.0,6.0,6.0,566.942404024303,5.0,1.0,phase_2,go,500.0,400.0,1.0,,,,,,,,,green,flipped triangle
0.0,5.0,0.5,1.0,6.0,0.0,0.0,5.0,1.0,phase_2,stop,500.0,400.0,4.0,,,,,,,,,yellow,I
0.0,5.0,0.5,1.0,5.0,5.0,649.1050301119685,5.0,1.0,phase_2,go,500.0,450.0,1.0,,,,,,,,,yellow,I
0.0,5.0,0.5,1.0,6.0,6.0,480.1937099546194,5.0,1.0,phase_2,stop,500.0,450.0,3.0,,,,,,,,,yellow,I
0.0,7.0,2.0,1.0,5.0,5.0,493.5411610640585,5.0,1.0,phase_2,go,500.0,400.0,1.0,,,,,,,,,white,triangle
0.0,6.0,1.0,1.0,5.0,5.0,571.7809849884361,5.0,1.0,phase_2,stop,500.0,400.0,3.0,,,,,,,,,orange,cross
0.0,5.0,0.5,1.0,5.0,0.0,0.0,5.0,1.0,phase_2,stop,450.0,400.0,4.0,,,,,,,,,yellow,I
0.0,1.0,0.5,0.0,5.0,5.0,690.5422939453274,5.0,1.0,phase_2,go,500.0,400.0,1.0,,,,,,,,,magenta,square
0.0,8.0,4.0,1.0,5.0,5.0,530.1368609070778,5.0,1.0,phase_2,stop,500.0,400.0,3.0,,,,,,,,,blue,circle
0.0,5.0,0.5,1.0,6.0,6.0,729.8464369960129,5.0,1.0,phase_2,go,450.0,400.0,1.0,,,,,,,,,yellow,I
0.0,1.0,0.5,0.0,6.0,6.0,665.586365852505,5.0,1.0,phase_2,go,450.0,400.0,1.0,,,,,,,,,magenta,square
0.0,2.0,1.0,0.0,6.0,6.0,524.0051280707121,5.0,1.0,phase_2,go,450.0,400.0,1.0,,,,,,,,,green,flipped triangle
0.0,5.0,0.5,1.0,5.0,5.0,619.098933879286,5.0,1.0,phase_2,go,450.0,400.0,1.0,,,,,,,,,yellow,I
0.0,1.0,0.5,0.0,5.0,5.0,586.3776949699968,5.0,1.0,phase_2,go,450.0,400.0,1.0,,,,,,,,,magenta,square
0.0,3.0,2.0,0.0,5.0,5.0,632.8297071158886,5.0,1.0,phase_2,go,450.0,400.0,1.0,,,,,,,,,gray,hexagon
0.0,2.0,1.0,0.0,5.0,5.0,501.88394519500434,5.0,1.0,phase_2,go,450.0,400.0,1.0,,,,,,,,,green,flipped triangle
0.0,5.0,0.5,1.0,5.0,5.0,632.225729059428,5.0,1.0,phase_2,go,450.0,400.0,1.0,,,,,,,,,yellow,I
0.0,2.0,1.0,0.0,6.0,6.0,671.8651419505477,5.0,1.0,phase_2,go,450.0,400.0,1.0,,,,,,,,,green,flipped triangle
0.0,8.0,4.0,1.0,6.0,0.0,0.0,5.0,1.0,phase_2,stop,450.0,400.0,4.0,,,,,,,,,blue,circle
0.0,7.0,2.0,1.0,5.0,5.0,548.3258680906147,5.0,1.0,phase_2,stop,450.0,450.0,3.0,,,,,,,,,white,triangle
0.0,6.0,1.0,1.0,5.0,0.0,0.0,5.0,1.0,phase_2,stop,400.0,450.0,4.0,,,,,,,,,orange,cross
0.0,3.0,2.0,0.0,5.0,5.0,652.750737965107,5.0,1.0,phase_2,go,450.0,450.0,1.0,,,,,,,,,gray,hexagon
0.0,7.0,2.0,1.0,6.0,6.0,492.8647310007363,5.0,1.0,phase_2,go,450.0,450.0,1.0,,,,,,,,,white,triangle
0.0,6.0,1.0,1.0,6.0,6.0,499.5898690540343,5.0,1.0,phase_2,stop,450.0,450.0,3.0,,,,,,,,,orange,cross
0.0,1.0,0.5,0.0,6.0,6.0,633.2315320614725,5.0,1.0,phase_2,go,450.0,400.0,1.0,,,,,,,,,magenta,square
0.0,8.0,4.0,1.0,5.0,0.0,0.0,5.0,1.0,phase_2,stop,450.0,400.0,4.0,,,,,,,,,blue,circle
0.0,4.0,4.0,0.0,6.0,6.0,497.968495124951,5.0,1.0,phase_2,go,500.0,400.0,1.0,,,,,,,,,cyan,diamond
0.0,4.0,4.0,0.0,5.0,5.0,353.5839989781379,5.0,1.0,phase_2,go,500.0,400.0,1.0,,,,,,,,,cyan,diamond
0.0,6.0,1.0,1.0,5.0,0.0,0.0,5.0,1.0,phase_2,stop,500.0,400.0,4.0,,,,,,,,,orange,cross
0.0,5.0,0.5,1.0,6.0,6.0,464.281952008605,5.0,1.0,phase_2,stop,550.0,400.0,3.0,,,,,,,,,yellow,I
0.0,3.0,2.0,0.0,5.0,5.0,569.5718298666179,5.0,1.0,phase_2,go,550.0,350.0,1.0,,,,,,,,,gray,hexagon
0.0,1.0,0.5,0.0,5.0,5.0,597.5240899715573,5.0,1.0,phase_2,go,550.0,350.0,1.0,,,,,,,,,magenta,square
0.0,5.0,0.5,1.0,5.0,0.0,0.0,5.0,1.0,phase_2,stop,550.0,350.0,4.0,,,,,,,,,yellow,I
0.0,8.0,4.0,1.0,6.0,0.0,0.0,5.0,1.0,phase_2,stop,600.0,350.0,4.0,,,,,,,,,blue,circle
0.0,4.0,4.0,0.0,6.0,6.0,695.6966607831419,5.0,1.0,phase_2,go,600.0,400.0,1.0,,,,,,,,,cyan,diamond
0.0,8.0,4.0,1.0,5.0,5.0,622.5635681767017,5.0,1.0,phase_2,stop,600.0,400.0,3.0,,,,,,,,,blue,circle
0.0,2.0,1.0,0.0,5.0,5.0,882.977691013366,6.0,1.0,phase_2,go,550.0,400.0,1.0,,,,,,,,,green,flipped triangle
0.0,4.0,4.0,0.0,5.0,5.0,402.5746998377144,6.0,1.0,phase_2,go,550.0,400.0,1.0,,,,,,,,,cyan,diamond
0.0,6.0,1.0,1.0,5.0,5.0,422.442452982068,6.0,1.0,phase_2,go,550.0,400.0,1.0,,,,,,,,,orange,cross
0.0,8.0,4.0,1.0,6.0,6.0,462.2855731286108,6.0,1.0,phase_2,stop,550.0,400.0,3.0,,,,,,,,,blue,circle
0.0,4.0,4.0,0.0,6.0,6.0,526.6567289363593,6.0,1.0,phase_2,go,550.0,350.0,1.0,,,,,,,,,cyan,diamond
0.0,8.0,4.0,1.0,6.0,0.0,0.0,6.0,1.0,phase_2,stop,550.0,350.0,4.0,,,,,,,,,blue,circle
0.0,8.0,4.0,1.0,6.0,0.0,0.0,6.0,1.0,phase_2,stop,550.0,400.0,4.0,,,,,,,,,blue,circle
0.0,8.0,4.0,1.0,5.0,5.0,704.0832699276507,6.0,1.0,phase_2,stop,550.0,450.0,3.0,,,,,,,,,blue,circle
0.0,3.0,2.0,0.0,6.0,6.0,703.0305441003293,6.0,1.0,phase_2,go,500.0,450.0,1.0,,,,,,,,,gray,hexagon
0.0,2.0,1.0,0.0,5.0,5.0,730.396306142211,6.0,1.0,phase_2,go,500.0,450.0,1.0,,,,,,,,,green,flipped triangle
0.0,2.0,1.0,0.0,5.0,5.0,378.1717109959572,6.0,1.0,phase_2,go,500.0,450.0,1.0,,,,,,,,,green,flipped triangle
0.0,4.0,4.0,0.0,5.0,5.0,410.1805929094553,6.0,1.0,phase_2,go,500.0,450.0,1.0,,,,,,,,,cyan,diamond
0.0,8.0,4.0,1.0,5.0,0.0,0.0,6.0,1.0,phase_2,stop,500.0,450.0,4.0,,,,,,,,,blue,circle
0.0,1.0,0.5,0.0,6.0,6.0,483.8122220244258,6.0,1.0,phase_2,go,550.0,450.0,1.0,,,,,,,,,magenta,square
0.0,7.0,2.0,1.0,6.0,6.0,475.8374849334359,6.0,1.0,phase_2,stop,550.0,450.0,3.0,,,,,,,,,white,triangle
0.0,8.0,4.0,1.0,6.0,6.0,527.5139298755676,6.0,1.0,phase_2,go,550.0,400.0,1.0,,,,,,,,,blue,circle
0.0,2.0,1.0,0.0,5.0,5.0,577.5774519424886,6.0,1.0,phase_2,go,550.0,400.0,1.0,,,,,,,,,green,flipped triangle
0.0,2.0,1.0,0.0,6.0,6.0,569.3933658767492,6.0,1.0,phase_2,go,550.0,400.0,1.0,,,,,,,,,green,flipped triangle
0.0,4.0,4.0,0.0,5.0,5.0,479.1305130347609,6.0,1.0,phase_2,go,550.0,400.0,1.0,,,,,,,,,cyan,diamond
0.0,8.0,4.0,1.0,6.0,6.0,478.2060319557786,6.0,1.0,phase_2,stop,550.0,400.0,3.0,,,,,,,,,blue,circle
0.0,7.0,2.0,1.0,5.0,5.0,437.1238008607179,6.0,1.0,phase_2,stop,550.0,350.0,3.0,,,,,,,,,white,triangle
0.0,1.0,0.5,0.0,5.0,5.0,524.2085319478065,6.0,1.0,phase_2,go,500.0,350.0,1.0,,,,,,,,,magenta,square
0.0,8.0,4.0,1.0,5.0,0.0,0.0,6.0,1.0,phase_2,stop,500.0,350.0,4.0,,,,,,,,,blue,circle
0.0,2.0,1.0,0.0,5.0,5.0,564.9542368482798,6.0,1.0,phase_2,go,550.0,350.0,1.0,,,,,,,,,green,flipped triangle
0.0,6.0,1.0,1.0,6.0,0.0,0.0,6.0,1.0,phase_2,stop,550.0,350.0,4.0,,,,,,,,,orange,cross
0.0,4.0,4.0,0.0,5.0,5.0,458.2638088613748,6.0,1.0,phase_2,go,550.0,400.0,1.0,,,,,,,,,cyan,diamond
0.0,6.0,1.0,1.0,5.0,0.0,0.0,6.0,1.0,phase_2,stop,550.0,400.0,4.0,,,,,,,,,orange,cross
0.0,2.0,1.0,0.0,5.0,5.0,724.5841729454696,6.0,1.0,phase_2,go,600.0,400.0,1.0,,,,,,,,,green,flipped triangle
0.0,6.0,1.0,1.0,5.0,5.0,499.0858070086688,6.0,1.0,phase_2,go,600.0,400.0,1.0,,,,,,,,,orange,cross
0.0,6.0,1.0,1.0,5.0,5.0,648.4717319253832,6.0,1.0,phase_2,stop,600.0,400.0,3.0,,,,,,,,,orange,cross
0.0,8.0,4.0,1.0,6.0,6.0,703.8893590215594,6.0,1.0,phase_2,go,550.0,400.0,1.0,,,,,,,,,blue,circle
0.0,3.0,2.0,0.0,6.0,6.0,474.8499810229987,6.0,1.0,phase_2,go,550.0,400.0,1.0,,,,,,,,,gray,hexagon
0.0,7.0,2.0,1.0,6.0,6.0,489.5303549710661,6.0,1.0,phase_2,stop,550.0,400.0,3.0,,,,,,,,,white,triangle
0.0,1.0,0.5,0.0,5.0,5.0,544.3599699065089,6.0,1.0,phase_2,go,550.0,350.0,1.0,,,,,,,,,magenta,square
0.0,7.0,2.0,1.0,5.0,5.0,672.0903560053557,6.0,1.0,phase_2,stop,550.0,350.0,3.0,,,,,,,,,white,triangle
0.0,2.0,1.0,0.0,5.0,5.0,607.6685539446771,6.0,1.0,phase_2,go,500.0,350.0,1.0,,,,,,,,,green,flipped triangle
0.0,6.0,1.0,1.0,6.0,6.0,612.78565088287,7.0,1.0,phase_2,go,500.0,350.0,1.0,,,,,,,,,orange,cross
0.0,6.0,1.0,1.0,6.0,6.0,370.8788389340043,7.0,1.0,phase_2,stop,500.0,350.0,3.0,,,,,,,,,orange,cross
0.0,2.0,1.0,0.0,6.0,6.0,481.2808048445731,7.0,1.0,phase_2,go,500.0,300.0,1.0,,,,,,,,,green,flipped triangle
0.0,1.0,0.5,0.0,5.0,5.0,674.3863741867244,7.0,1.0,phase_2,go,500.0,300.0,1.0,,,,,,,,,magenta,square
0.0,3.0,2.0,0.0,5.0,5.0,418.4875949285924,7.0,1.0,phase_2,go,500.0,300.0,1.0,,,,,,,,,gray,hexagon
0.0,5.0,0.5,1.0,6.0,0.0,0.0,7.0,1.0,phase_2,stop,500.0,300.0,4.0,,,,,,,,,yellow,I
0.0,6.0,1.0,1.0,5.0,5.0,537.2181839775294,7.0,1.0,phase_2,stop,500.0,350.0,3.0,,,,,,,,,orange,cross
0.0,1.0,0.5,0.0,6.0,6.0,535.2364350110292,7.0,1.0,phase_2,go,450.0,350.0,1.0,,,,,,,,,magenta,square
0.0,4.0,4.0,0.0,5.0,5.0,565.9473310224712,7.0,1.0,phase_2,go,450.0,350.0,1.0,,,,,,,,,cyan,diamond
0.0,6.0,1.0,1.0,6.0,6.0,552.9264910146594,7.0,1.0,phase_2,go,450.0,350.0,1.0,,,,,,,,,orange,cross
0.0,3.0,2.0,0.0,6.0,6.0,604.5698469970375,7.0,1.0,phase_2,go,450.0,350.0,1.0,,,,,,,,,gray,hexagon
0.0,5.0,0.5,1.0,6.0,6.0,437.1687169186771,7.0,1.0,phase_2,go,450.0,350.0,1.0,,,,,,,,,yellow,I
0.0,5.0,0.5,1.0,5.0,5.0,493.9893898554146,7.0,1.0,phase_2,stop,450.0,350.0,3.0,,,,,,,,,yellow,I
0.0,1.0,0.5,0.0,6.0,6.0,525.2887369133532,7.0,1.0,phase_2,go,400.0,350.0,1.0,,,,,,,,,magenta,square
0.0,2.0,1.0,0.0,5.0,5.0,581.0181167908013,7.0,1.0,phase_2,go,400.0,350.0,1.0,,,,,,,,,green,flipped triangle
0.0,5.0,0.5,1.0,6.0,0.0,0.0,7.0,1.0,phase_2,stop,400.0,350.0,4.0,,,,,,,,,yellow,I
0.0,3.0,2.0,0.0,6.0,6.0,466.245770920068,7.0,1.0,phase_2,go,400.0,400.0,1.0,,,,,,,,,gray,hexagon
0.0,6.0,1.0,1.0,6.0,0.0,0.0,7.0,1.0,phase_2,stop,400.0,400.0,4.0,,,,,,,,,orange,cross
0.0,8.0,4.0,1.0,6.0,6.0,578.8326768670231,7.0,1.0,phase_2,go,400.0,450.0,1.0,,,,,,,,,blue,circle
0.0,5.0,0.5,1.0,5.0,5.0,611.0528649296612,7.0,1.0,phase_2,go,400.0,450.0,1.0,,,,,,,,,yellow,I
0.0,4.0,4.0,0.0,6.0,6.0,583.9679480995983,7.0,1.0,phase_2,go,400.0,450.0,1.0,,,,,,,,,cyan,diamond
0.0,8.0,4.0,1.0,5.0,0.0,0.0,7.0,1.0,phase_2,stop,400.0,450.0,4.0,,,,,,,,,blue,circle
0.0,4.0,4.0,0.0,6.0,6.0,442.3025308642536,7.0,1.0,phase_2,go,450.0,450.0,1.0,,,,,,,,,cyan,diamond
0.0,7.0,2.0,1.0,6.0,0.0,0.0,7.0,1.0,phase_2,stop,450.0,450.0,4.0,,,,,,,,,white,triangle
0.0,8.0,4.0,1.0,5.0,5.0,584.7553270868957,7.0,1.0,phase_2,go,450.0,500.0,1.0,,,,,,,,,blue,circle
0.0,6.0,1.0,1.0,6.0,6.0,564.1305269673467,7.0,1.0,phase_2,stop,450.0,500.0,3.0,,,,,,,,,orange,cross
0.0,5.0,0.5,1.0,5.0,0.0,0.0,7.0,1.0,phase_2,stop,450.0,450.0,4.0,,,,,,,,,yellow,I
0.0,2.0,1.0,0.0,6.0,6.0,622.593091102317,7.0,1.0,phase_2,go,500.0,450.0,1.0,,,,,,,,,green,flipped triangle
0.0,7.0,2.0,1.0,6.0,0.0,0.0,7.0,1.0,phase_2,stop,500.0,450.0,4.0,,,,,,,,,white,triangle
0.0,8.0,4.0,1.0,6.0,6.0,626.444699941203,7.0,1.0,phase_2,stop,500.0,500.0,3.0,,,,,,,,,blue,circle
0.0,3.0,2.0,0.0,5.0,5.0,506.1982299666852,7.0,1.0,phase_2,go,500.0,450.0,1.0,,,,,,,,,gray,hexagon
0.0,8.0,4.0,1.0,5.0,5.0,729.3359620962292,7.0,1.0,phase_2,go,500.0,450.0,1.0,,,,,,,,,blue,circle
0.0,2.0,1.0,0.0,6.0,6.0,603.0929400585592,7.0,1.0,phase_2,go,500.0,450.0,1.0,,,,,,,,,green,flipped triangle
0.0,2.0,1.0,0.0,5.0,5.0,552.344836993143,7.0,1.0,phase_2,go,500.0,450.0,1.0,,,,,,,,,green,flipped triangle
0.0,2.0,1.0,0.0,6.0,6.0,498.6705360934138,7.0,1.0,phase_2,go,500.0,450.0,1.0,,,,,,,,,green,flipped triangle
0.0,3.0,2.0,0.0,6.0,6.0,543.0628100875765,7.0,1.0,phase_2,go,500.0,450.0,1.0,,,,,,,,,gray,hexagon
0.0,1.0,0.5,0.0,6.0,6.0,463.0108170676976,8.0,1.0,phase_2,go,500.0,450.0,1.0,,,,,,,,,magenta,square
0.0,1.0,0.5,0.0,5.0,5.0,503.7517200689763,8.0,1.0,phase_2,go,500.0,450.0,1.0,,,,,,,,,magenta,square
0.0,3.0,2.0,0.0,6.0,6.0,307.5750719290226,8.0,1.0,phase_2,go,500.0,450.0,1.0,,,,,,,,,gray,hexagon
0.0,8.0,4.0,1.0,5.0,5.0,323.1913659255951,8.0,1.0,phase_2,stop,500.0,450.0,3.0,,,,,,,,,blue,circle
0.0,7.0,2.0,1.0,6.0,6.0,474.0517961326986,8.0,1.0,phase_2,stop,450.0,450.0,3.0,,,,,,,,,white,triangle
0.0,2.0,1.0,0.0,5.0,5.0,537.7640479709953,8.0,1.0,phase_2,go,450.0,400.0,1.0,,,,,,,,,green,flipped triangle
0.0,1.0,0.5,0.0,5.0,5.0,521.1917089764029,8.0,1.0,phase_2,go,450.0,400.0,1.0,,,,,,,,,magenta,square
0.0,5.0,0.5,1.0,5.0,5.0,640.8907389268279,8.0,1.0,phase_2,go,450.0,400.0,1.0,,,,,,,,,yellow,I
0.0,8.0,4.0,1.0,5.0,5.0,584.1777478344738,8.0,1.0,phase_2,go,450.0,400.0,1.0,,,,,,,,,blue,circle
0.0,1.0,0.5,0.0,5.0,5.0,515.6549781095237,8.0,1.0,phase_2,go,450.0,400.0,1.0,,,,,,,,,magenta,square
0.0,4.0,4.0,0.0,6.0,6.0,547.1271621063352,8.0,1.0,phase_2,go,450.0,400.0,1.0,,,,,,,,,cyan,diamond
0.0,4.0,4.0,0.0,5.0,5.0,546.7512609902769,8.0,1.0,phase_2,go,450.0,400.0,1.0,,,,,,,,,cyan,diamond
0.0,8.0,4.0,1.0,6.0,6.0,361.0211571212858,8.0,1.0,phase_2,stop,450.0,400.0,3.0,,,,,,,,,blue,circle
0.0,7.0,2.0,1.0,5.0,5.0,501.9002868793905,8.0,1.0,phase_2,stop,450.0,350.0,3.0,,,,,,,,,white,triangle
0.0,6.0,1.0,1.0,5.0,0.0,0.0,8.0,1.0,phase_2,stop,400.0,350.0,4.0,,,,,,,,,orange,cross
0.0,2.0,1.0,0.0,6.0,6.0,548.5913378652185,8.0,1.0,phase_2,go,450.0,350.0,1.0,,,,,,,,,green,flipped triangle
0.0,5.0,0.5,1.0,6.0,0.0,0.0,8.0,1.0,phase_2,stop,450.0,350.0,4.0,,,,,,,,,yellow,I
0.0,2.0,1.0,0.0,6.0,6.0,682.889079907909,8.0,1.0,phase_2,go,450.0,400.0,1.0,,,,,,,,,green,flipped triangle
0.0,3.0,2.0,0.0,5.0,5.0,619.4688940886408,8.0,1.0,phase_2,go,450.0,400.0,1.0,,,,,,,,,gray,hexagon
0.0,6.0,1.0,1.0,5.0,0.0,0.0,8.0,1.0,phase_2,stop,450.0,400.0,4.0,,,,,,,,,orange,cross
0.0,3.0,2.0,0.0,6.0,6.0,578.7521619349718,8.0,1.0,phase_2,go,500.0,400.0,1.0,,,,,,,,,gray,hexagon
0.0,5.0,0.5,1.0,6.0,0.0,0.0,8.0,1.0,phase_2,stop,500.0,400.0,4.0,,,,,,,,,yellow,I
0.0,2.0,1.0,0.0,6.0,6.0,514.2633561044931,8.0,1.0,phase_2,go,500.0,450.0,1.0,,,,,,,,,green,flipped triangle
0.0,3.0,2.0,0.0,5.0,5.0,527.6945419609547,8.0,1.0,phase_2,go,500.0,450.0,1.0,,,,,,,,,gray,hexagon
0.0,5.0,0.5,1.0,5.0,0.0,0.0,8.0,1.0,phase_2,stop,500.0,450.0,4.0,,,,,,,,,yellow,I
0.0,4.0,4.0,0.0,6.0,6.0,663.416309049353,8.0,1.0,phase_2,go,550.0,450.0,1.0,,,,,,,,,cyan,diamond
0.0,7.0,2.0,1.0,6.0,0.0,0.0,8.0,1.0,phase_2,stop,550.0,450.0,4.0,,,,,,,,,white,triangle
0.0,3.0,2.0,0.0,5.0,5.0,597.8118749335408,8.0,1.0,phase_2,go,550.0,500.0,1.0,,,,,,,,,gray,hexagon
0.0,3.0,2.0,0.0,5.0,5.0,664.0746018383652,8.0,1.0,phase_2,go,550.0,500.0,1.0,,,,,,,,,gray,hexagon
0.0,2.0,1.0,0.0,5.0,5.0,599.3778039701283,8.0,1.0,phase_2,go,550.0,500.0,1.0,,,,,,,,,green,flipped triangle
0.0,1.0,0.5,0.0,6.0,6.0,484.4891759566962,8.0,1.0,phase_2,go,550.0,500.0,1.0,,,,,,,,,magenta,square
0.0,7.0,2.0,1.0,5.0,5.0,574.5742272119969,8.0,1.0,phase_2,stop,550.0,500.0,3.0,,,,,,,,,white,triangle
0.0,5.0,0.5,1.0,6.0,6.0,579.370385967195,8.0,1.0,phase_2,stop,500.0,500.0,3.0,,,,,,,,,yellow,I
0.0,8.0,4.0,1.0,6.0,6.0,762.7070469316095,8.0,1.0,phase_2,go,500.0,450.0,1.0,,,,,,,,,blue,circle
0.0,5.0,0.5,1.0,5.0,0.0,0.0,8.0,1.0,phase_2,stop,500.0,450.0,4.0,,,,,,,,,yellow,I
0.0,2.0,1.0,0.0,6.0,6.0,537.9574380349368,8.0,1.0,phase_2,go,550.0,450.0,1.0,,,,,,,,,green,flipped triangle
0.0,2.0,1.0,0.0,7.0,4.0,3330.1455010659997,1.0,2.0,phase_3,,,,,88.0,2.0,44.0,264.0,220.0,88.0,132.0,176.0,green,flipped triangle
0.0,5.0,0.5,1.0,7.0,5.0,2450.4911601543427,1.0,1.0,phase_3,,,,,34.0,1.0,102.0,204.0,136.0,170.0,34.0,68.0,yellow,I
0.0,7.0,2.0,1.0,7.0,5.0,3399.1607651114464,1.0,1.0,phase_3,,,,,88.0,2.0,176.0,132.0,44.0,264.0,88.0,220.0,white,triangle
0.0,4.0,4.0,0.0,7.0,3.0,1753.3914709929377,1.0,1.0,phase_3,,,,,270.0,5.0,216.0,162.0,270.0,108.0,324.0,54.0,cyan,diamond
0.0,4.0,4.0,0.0,7.0,3.0,1472.094421973452,1.0,1.0,phase_3,,,,,117.0,3.0,78.0,234.0,117.0,39.0,195.0,156.0,cyan,diamond
0.0,2.0,1.0,0.0,7.0,2.0,2043.0368050001562,1.0,1.0,phase_3,,,,,220.0,5.0,88.0,220.0,44.0,132.0,176.0,264.0,green,flipped triangle
0.0,6.0,1.0,1.0,7.0,4.0,1675.381048116833,1.0,1.0,phase_3,,,,,294.0,6.0,147.0,49.0,98.0,294.0,196.0,245.0,orange,cross
0.0,2.0,1.0,0.0,7.0,4.0,1526.2059960514307,1.0,1.0,phase_3,,,,,98.0,2.0,196.0,147.0,294.0,98.0,49.0,245.0,green,flipped triangle
0.0,4.0,4.0,0.0,7.0,2.0,2972.3751130513847,1.0,1.0,phase_3,,,,,176.0,4.0,44.0,176.0,220.0,264.0,88.0,132.0,cyan,diamond
0.0,8.0,4.0,1.0,7.0,5.0,2990.106045966968,1.0,1.0,phase_3,,,,,170.0,5.0,204.0,68.0,34.0,102.0,170.0,136.0,blue,circle
0.0,5.0,0.5,1.0,7.0,4.0,2231.0309659224004,1.0,1.0,phase_3,,,,,324.0,6.0,162.0,54.0,270.0,324.0,108.0,216.0,yellow,I
0.0,7.0,2.0,1.0,7.0,6.0,2384.8297400400043,1.0,1.0,phase_3,,,,,204.0,6.0,68.0,136.0,34.0,102.0,170.0,204.0,white,triangle
0.0,4.0,4.0,0.0,7.0,3.0,2173.21935785003,1.0,1.0,phase_3,,,,,176.0,4.0,220.0,264.0,176.0,44.0,132.0,88.0,cyan,diamond
0.0,8.0,4.0,1.0,7.0,4.0,1828.16102495417,1.0,1.0,phase_3,,,,,294.0,6.0,98.0,196.0,147.0,294.0,49.0,245.0,blue,circle
0.0,3.0,2.0,0.0,7.0,1.0,1854.2380190920085,1.0,1.0,phase_3,,,,,234.0,6.0,234.0,156.0,39.0,195.0,78.0,117.0,gray,hexagon
0.0,3.0,2.0,0.0,7.0,3.0,3234.035672852769,1.0,1.0,phase_3,,,,,216.0,4.0,108.0,270.0,216.0,54.0,162.0,324.0,gray,hexagon
0.0,8.0,4.0,1.0,7.0,2.0,2858.862154884264,1.0,1.0,phase_3,,,,,102.0,3.0,136.0,102.0,34.0,68.0,204.0,170.0,blue,circle
0.0,7.0,2.0,1.0,7.0,4.0,2139.6476100198925,1.0,1.0,phase_3,,,,,102.0,3.0,136.0,34.0,204.0,102.0,68.0,170.0,white,triangle
0.0,3.0,2.0,0.0,7.0,4.0,2428.041198058054,1.0,1.0,phase_3,,,,,245.0,5.0,147.0,98.0,49.0,245.0,196.0,294.0,gray,hexagon
0.0,5.0,0.5,1.0,7.0,3.0,1603.946493007243,1.0,1.0,phase_3,,,,,234.0,6.0,156.0,195.0,234.0,78.0,39.0,117.0,yellow,I
0.0,7.0,2.0,1.0,7.0,2.0,1639.315898064524,2.0,1.0,phase_3,,,,,196.0,4.0,147.0,196.0,294.0,49.0,98.0,245.0,white,triangle
0.0,1.0,0.5,0.0,7.0,6.0,2201.025896007195,2.0,1.0,phase_3,,,,,156.0,4.0,117.0,78.0,234.0,195.0,39.0,156.0,magenta,square
0.0,1.0,0.5,0.0,7.0,2.0,3083.9352828916158,2.0,1.0,phase_3,,,,,132.0,3.0,44.0,132.0,264.0,88.0,176.0,220.0,magenta,square
0.0,4.0,4.0,0.0,7.0,2.0,1068.4980598744005,2.0,1.0,phase_3,,,,,196.0,4.0,147.0,196.0,49.0,98.0,245.0,294.0,cyan,diamond
0.0,6.0,1.0,1.0,7.0,2.0,686.7303629405797,2.0,1.0,phase_3,,,,,176.0,4.0,88.0,176.0,132.0,220.0,44.0,264.0,orange,cross
0.0,7.0,2.0,1.0,7.0,3.0,1480.367787182331,2.0,1.0,phase_3,,,,,162.0,3.0,216.0,54.0,162.0,324.0,270.0,108.0,white,triangle
0.0,6.0,1.0,1.0,7.0,2.0,1094.445833005011,2.0,1.0,phase_3,,,,,132.0,3.0,176.0,132.0,264.0,220.0,44.0,88.0,orange,cross
0.0,5.0,0.5,1.0,7.0,3.0,1538.3860769215971,2.0,1.0,phase_3,,,,,195.0,5.0,156.0,78.0,195.0,117.0,39.0,234.0,yellow,I
0.0,5.0,0.5,1.0,7.0,3.0,905.1105820108204,2.0,1.0,phase_3,,,,,147.0,3.0,98.0,294.0,147.0,245.0,49.0,196.0,yellow,I
0.0,5.0,0.5,1.0,7.0,3.0,2389.3591810483485,2.0,1.0,phase_3,,,,,176.0,4.0,44.0,220.0,176.0,264.0,132.0,88.0,yellow,I
0.0,3.0,2.0,0.0,7.0,6.0,1723.1200491078198,2.0,1.0,phase_3,,,,,162.0,3.0,216.0,54.0,108.0,270.0,324.0,162.0,gray,hexagon
0.0,1.0,0.5,0.0,7.0,6.0,1343.2582740206271,2.0,1.0,phase_3,,,,,234.0,6.0,156.0,39.0,195.0,78.0,117.0,234.0,magenta,square
0.0,1.0,0.5,0.0,7.0,5.0,1918.8491571694613,2.0,1.0,phase_3,,,,,98.0,2.0,196.0,294.0,49.0,245.0,98.0,147.0,magenta,square
0.0,2.0,1.0,0.0,7.0,3.0,2499.096869956702,2.0,1.0,phase_3,,,,,68.0,2.0,136.0,170.0,68.0,34.0,102.0,204.0,green,flipped triangle
0.0,6.0,1.0,1.0,7.0,2.0,696.8289490323514,2.0,1.0,phase_3,,,,,195.0,5.0,78.0,195.0,39.0,117.0,234.0,156.0,orange,cross
0.0,6.0,1.0,1.0,7.0,3.0,1517.7518748678267,2.0,1.0,phase_3,,,,,204.0,6.0,102.0,170.0,204.0,34.0,68.0,136.0,orange,cross
0.0,2.0,1.0,0.0,7.0,3.0,1263.4909849148244,2.0,1.0,phase_3,,,,,324.0,6.0,216.0,270.0,324.0,108.0,162.0,54.0,green,flipped triangle
0.0,1.0,0.5,0.0,7.0,3.0,2548.9178870338947,2.0,1.0,phase_3,,,,,216.0,4.0,54.0,324.0,216.0,270.0,162.0,108.0,magenta,square
0.0,8.0,4.0,1.0,7.0,3.0,1422.4182819016278,2.0,1.0,phase_3,,,,,39.0,1.0,234.0,78.0,39.0,195.0,117.0,156.0,blue,circle
0.0,5.0,0.5,1.0,7.0,2.0,1291.2247499916705,2.0,1.0,phase_3,,,,,49.0,1.0,98.0,49.0,245.0,147.0,196.0,294.0,yellow,I
0.0,8.0,4.0,1.0,7.0,1.0,1373.9431309513748,3.0,1.0,phase_3,,,,,220.0,5.0,220.0,176.0,44.0,132.0,88.0,264.0,blue,circle
0.0,1.0,0.5,0.0,7.0,5.0,1146.9957490917295,3.0,1.0,phase_3,,,,,220.0,5.0,264.0,176.0,88.0,44.0,220.0,132.0,magenta,square
0.0,3.0,2.0,0.0,7.0,3.0,1169.0200041048229,3.0,1.0,phase_3,,,,,294.0,6.0,245.0,98.0,294.0,147.0,196.0,49.0,gray,hexagon
0.0,7.0,2.0,1.0,7.0,4.0,714.5186199340969,3.0,1.0,phase_3,,,,,156.0,4.0,78.0,195.0,234.0,156.0,117.0,39.0,white,triangle
0.0,6.0,1.0,1.0,7.0,1.0,2076.47168985568,3.0,1.0,phase_3,,,,,68.0,2.0,68.0,34.0,204.0,136.0,102.0,170.0,orange,cross
0.0,6.0,1.0,1.0,7.0,2.0,916.5787228848784,3.0,1.0,phase_3,,,,,270.0,5.0,108.0,270.0,162.0,216.0,54.0,324.0,orange,cross
0.0,3.0,2.0,0.0,7.0,4.0,688.6004959233105,3.0,1.0,phase_3,,,,,234.0,6.0,117.0,78.0,156.0,234.0,195.0,39.0,gray,hexagon
0.0,4.0,4.0,0.0,7.0,5.0,1842.590864980593,3.0,1.0,phase_3,,,,,195.0,5.0,234.0,117.0,39.0,156.0,195.0,78.0,cyan,diamond
0.0,3.0,2.0,0.0,7.0,2.0,1443.9075728878381,3.0,1.0,phase_3,,,,,264.0,6.0,220.0,264.0,44.0,176.0,132.0,88.0,gray,hexagon
0.0,8.0,4.0,1.0,7.0,4.0,1478.2544111367315,3.0,1.0,phase_3,,,,,176.0,4.0,220.0,132.0,264.0,176.0,44.0,88.0,blue,circle
0.0,4.0,4.0,0.0,7.0,2.0,1165.7697539776564,3.0,1.0,phase_3,,,,,34.0,1.0,68.0,34.0,170.0,102.0,136.0,204.0,cyan,diamond
0.0,3.0,2.0,0.0,7.0,3.0,1504.0449830703435,3.0,1.0,phase_3,,,,,102.0,3.0,68.0,204.0,102.0,170.0,34.0,136.0,gray,hexagon
0.0,3.0,2.0,0.0,7.0,2.0,3089.207757962868,3.0,1.0,phase_3,,,,,44.0,1.0,220.0,44.0,88.0,176.0,132.0,264.0,gray,hexagon
0.0,7.0,2.0,1.0,7.0,5.0,803.4663749858737,3.0,1.0,phase_3,,,,,39.0,1.0,234.0,195.0,156.0,117.0,39.0,78.0,white,triangle
0.0,2.0,1.0,0.0,7.0,3.0,1059.763538185507,3.0,1.0,phase_3,,,,,108.0,2.0,162.0,216.0,108.0,324.0,54.0,270.0,green,flipped triangle
0.0,2.0,1.0,0.0,7.0,3.0,970.4750159289688,3.0,1.0,phase_3,,,,,195.0,5.0,156.0,39.0,195.0,78.0,234.0,117.0,green,flipped triangle
0.0,6.0,1.0,1.0,7.0,1.0,1653.4475721418858,3.0,1.0,phase_3,,,,,147.0,3.0,147.0,98.0,294.0,49.0,245.0,196.0,orange,cross
0.0,8.0,4.0,1.0,7.0,2.0,1407.1710128337145,3.0,1.0,phase_3,,,,,294.0,6.0,245.0,294.0,147.0,49.0,196.0,98.0,blue,circle
0.0,4.0,4.0,0.0,7.0,6.0,2096.958202077076,3.0,1.0,phase_3,,,,,216.0,4.0,108.0,270.0,54.0,162.0,324.0,216.0,cyan,diamond
0.0,1.0,0.5,0.0,7.0,1.0,1441.8528890237212,3.0,1.0,phase_3,,,,,147.0,3.0,147.0,98.0,49.0,196.0,245.0,294.0,magenta,square
0.0,2.0,1.0,0.0,7.0,4.0,1135.4408338665962,4.0,1.0,phase_3,,,,,147.0,3.0,245.0,294.0,196.0,147.0,49.0,98.0,green,flipped triangle
0.0,2.0,1.0,0.0,7.0,3.0,832.4856979306787,4.0,1.0,phase_3,,,,,156.0,4.0,195.0,234.0,156.0,117.0,39.0,78.0,green,flipped triangle
0.0,1.0,0.5,0.0,7.0,6.0,2360.435888171196,4.0,1.0,phase_3,,,,,102.0,3.0,34.0,170.0,68.0,136.0,204.0,102.0,magenta,square
0.0,7.0,2.0,1.0,7.0,3.0,1529.9055010546,4.0,1.0,phase_3,,,,,132.0,3.0,264.0,44.0,132.0,88.0,176.0,220.0,white,triangle
0.0,7.0,2.0,1.0,7.0,2.0,1901.134679093957,4.0,1.0,phase_3,,,,,162.0,3.0,54.0,162.0,270.0,108.0,324.0,216.0,white,triangle
0.0,2.0,1.0,0.0,7.0,4.0,1269.4757950957865,4.0,1.0,phase_3,,,,,102.0,3.0,34.0,136.0,68.0,102.0,204.0,170.0,green,flipped triangle
0.0,5.0,0.5,1.0,7.0,6.0,646.4226341340691,4.0,1.0,phase_3,,,,,162.0,3.0,216.0,324.0,54.0,270.0,108.0,162.0,yellow,I
0.0,7.0,2.0,1.0,7.0,2.0,680.687177926302,4.0,1.0,phase_3,,,,,245.0,5.0,49.0,245.0,196.0,294.0,98.0,147.0,white,triangle
0.0,8.0,4.0,1.0,7.0,2.0,1104.3018179479986,4.0,1.0,phase_3,,,,,324.0,6.0,108.0,324.0,54.0,216.0,162.0,270.0,blue,circle
0.0,4.0,4.0,0.0,7.0,4.0,1505.6016519665718,4.0,1.0,phase_3,,,,,136.0,4.0,68.0,102.0,34.0,136.0,170.0,204.0,cyan,diamond
0.0,1.0,0.5,0.0,7.0,5.0,1390.5889550223949,4.0,1.0,phase_3,,,,,162.0,3.0,54.0,324.0,108.0,216.0,162.0,270.0,magenta,square
0.0,6.0,1.0,1.0,7.0,2.0,973.2395471073688,4.0,1.0,phase_3,,,,,162.0,3.0,54.0,162.0,324.0,216.0,108.0,270.0,orange,cross
0.0,8.0,4.0,1.0,7.0,5.0,2294.850416947156,4.0,1.0,phase_3,,,,,117.0,3.0,156.0,195.0,234.0,78.0,117.0,39.0,blue,circle
0.0,5.0,0.5,1.0,7.0,1.0,1625.4098839126527,4.0,1.0,phase_3,,,,,170.0,5.0,170.0,68.0,34.0,136.0,102.0,204.0,yellow,I
0.0,1.0,0.5,0.0,7.0,4.0,923.2156369835138,4.0,1.0,phase_3,,,,,136.0,4.0,204.0,34.0,170.0,136.0,102.0,68.0,magenta,square
0.0,6.0,1.0,1.0,7.0,4.0,1028.6810300312936,4.0,1.0,phase_3,,,,,195.0,5.0,156.0,117.0,234.0,195.0,78.0,39.0,orange,cross
0.0,4.0,4.0,0.0,7.0,2.0,830.5328169371933,4.0,1.0,phase_3,,,,,196.0,4.0,147.0,196.0,49.0,245.0,294.0,98.0,cyan,diamond
0.0,8.0,4.0,1.0,7.0,2.0,2440.200661076233,4.0,1.0,phase_3,,,,,270.0,5.0,108.0,270.0,162.0,54.0,324.0,216.0,blue,circle
0.0,5.0,0.5,1.0,7.0,5.0,1207.1002097800374,4.0,1.0,phase_3,,,,,264.0,6.0,220.0,132.0,44.0,88.0,264.0,176.0,yellow,I
0.0,3.0,2.0,0.0,7.0,4.0,1131.3997961115092,4.0,1.0,phase_3,,,,,170.0,5.0,34.0,102.0,204.0,170.0,136.0,68.0,gray,hexagon
