raw_reward_magnitude,stim_reward,stepwise_reward_magnitude,paired_with_stopping,stim_location,response,reaction_time,block,num_trial_presentations,which_phase,stop_signal_trial_type,left_SSD,right_SSD,accuracy,chosen_bidding_amount,chosen_bidding_level,possible_bid_1,possible_bid_2,possible_bid_3,possible_bid_4,possible_bid_5,possible_bid_6,color_text,shape_text
101.0,2.0,2.0,0.0,4.0,4.0,563.826444093138,1.0,1.0,phase_1,,,,,,,,,,,,,cyan,cross
177.0,7.0,3.0,1.0,4.0,4.0,637.127302121371,1.0,1.0,phase_1,,,,,,,,,,,,,white,flipped triangle
415.0,8.0,4.0,1.0,2.0,2.0,529.712415067479,1.0,1.0,phase_1,,,,,,,,,,,,,orange,I
101.0,6.0,2.0,1.0,4.0,4.0,554.6992979943752,1.0,1.0,phase_1,,,,,,,,,,,,,green,hexagon
424.0,4.0,4.0,0.0,2.0,2.0,475.2746280282736,1.0,1.0,phase_1,,,,,,,,,,,,,magenta,diamond
72.0,1.0,1.0,0.0,2.0,2.0,514.4919820595533,1.0,1.0,phase_1,,,,,,,,,,,,,blue,circle
44.0,5.0,1.0,1.0,2.0,2.0,428.6403539590537,1.0,1.0,phase_1,,,,,,,,,,,,,gray,square
386.0,4.0,4.0,0.0,1.0,1.0,513.1485089659691,1.0,1.0,phase_1,,,,,,,,,,,,,magenta,diamond
0.0,7.0,0.0,1.0,4.0,4.0,535.3089370764792,1.0,1.0,phase_1,,,,,,,,,,,,,white,flipped triangle
193.0,7.0,3.0,1.0,3.0,3.0,524.5489298831671,1.0,1.0,phase_1,,,,,,,,,,,,,white,flipped triangle
376.0,4.0,4.0,0.0,2.0,2.0,415.3103430289775,1.0,1.0,phase_1,,,,,,,,,,,,,magenta,diamond
0.0,4.0,0.0,0.0,3.0,3.0,475.9511558804661,1.0,1.0,phase_1,,,,,,,,,,,,,magenta,diamond
193.0,3.0,3.0,0.0,4.0,4.0,570.5283130519092,1.0,1.0,phase_1,,,,,,,,,,,,,yellow,triangle
88.0,6.0,2.0,1.0,3.0,3.0,504.4224988669157,1.0,1.0,phase_1,,,,,,,,,,,,,green,hexagon
88.0,2.0,2.0,0.0,3.0,3.0,445.6889799330383,1.0,1.0,phase_1,,,,,,,,,,,,,cyan,cross
105.0,2.0,2.0,0.0,2.0,2.0,391.1570818163454,1.0,1.0,phase_1,,,,,,,,,,,,,cyan,cross
0.0,5.0,0.0,1.0,2.0,2.0,485.7393919955939,1.0,1.0,phase_1,,,,,,,,,,,,,gray,square
409.0,4.0,4.0,0.0,1.0,1.0,666.3546909112483,1.0,1.0,phase_1,,,,,,,,,,,,,magenta,diamond
0.0,1.0,0.0,0.0,4.0,4.0,601.1357519309968,1.0,1.0,phase_1,,,,,,,,,,,,,blue,circle
409.0,8.0,4.0,1.0,4.0,4.0,524.1913411300629,1.0,1.0,phase_1,,,,,,,,,,,,,orange,I
108.0,2.0,2.0,0.0,4.0,4.0,409.9358199164271,1.0,1.0,phase_1,,,,,,,,,,,,,cyan,cross
215.0,3.0,3.0,0.0,2.0,2.0,450.9744581300765,1.0,1.0,phase_1,,,,,,,,,,,,,yellow,triangle
79.0,6.0,2.0,1.0,1.0,1.0,496.3238569907844,1.0,1.0,phase_1,,,,,,,,,,,,,green,hexagon
380.0,8.0,4.0,1.0,1.0,1.0,511.6047679912299,1.0,1.0,phase_1,,,,,,,,,,,,,orange,I
29.0,5.0,1.0,1.0,4.0,4.0,468.6549389734864,1.0,1.0,phase_1,,,,,,,,,,,,,gray,square
390.0,4.0,4.0,0.0,3.0,3.0,437.8811649512499,1.0,1.0,phase_1,,,,,,,,,,,,,magenta,diamond
0.0,3.0,0.0,0.0,3.0,3.0,554.4074929784983,1.0,1.0,phase_1,,,,,,,,,,,,,yellow,triangle
113.0,2.0,2.0,0.0,1.0,1.0,655.1262438297272,1.0,1.0,phase_1,,,,,,,,,,,,,cyan,cross
44.0,5.0,1.0,1.0,3.0,3.0,987.6035910565406,1.0,1.0,phase_1,,,,,,,,,,,,,gray,square
0.0,1.0,0.0,0.0,1.0,1.0,707.3834368493408,1.0,1.0,phase_1,,,,,,,,,,,,,blue,circle
223.0,3.0,3.0,0.0,3.0,3.0,511.11447298899293,1.0,1.0,phase_1,,,,,,,,,,,,,yellow,triangle
0.0,6.0,0.0,1.0,4.0,4.0,429.5571979600936,1.0,1.0,phase_1,,,,,,,,,,,,,green,hexagon
124.0,6.0,2.0,1.0,2.0,2.0,417.3688620794564,1.0,1.0,phase_1,,,,,,,,,,,,,green,hexagon
188.0,3.0,3.0,0.0,4.0,4.0,453.8267259486019,1.0,1.0,phase_1,,,,,,,,,,,,,yellow,triangle
178.0,3.0,3.0,0.0,1.0,1.0,424.1481798235327,1.0,1.0,phase_1,,,,,,,,,,,,,yellow,triangle
60.0,5.0,1.0,1.0,1.0,1.0,501.95254012942314,1.0,1.0,phase_1,,,,,,,,,,,,,gray,square
224.0,3.0,3.0,0.0,3.0,3.0,547.0286740455776,1.0,1.0,phase_1,,,,,,,,,,,,,yellow,triangle
225.0,3.0,3.0,0.0,4.0,4.0,511.91146206110716,1.0,1.0,phase_1,,,,,,,,,,,,,yellow,triangle
83.0,6.0,2.0,1.0,3.0,3.0,470.8805489353835,1.0,1.0,phase_1,,,,,,,,,,,,,green,hexagon
214.0,3.0,3.0,0.0,3.0,3.0,463.2666171528399,1.0,1.0,phase_1,,,,,,,,,,,,,yellow,triangle
176.0,3.0,3.0,0.0,1.0,1.0,599.3746919557452,1.0,1.0,phase_1,,,,,,,,,,,,,yellow,triangle
411.0,4.0,4.0,0.0,3.0,3.0,401.0450569912791,1.0,1.0,phase_1,,,,,,,,,,,,,magenta,diamond
108.0,6.0,2.0,1.0,1.0,1.0,566.1374689079821,1.0,1.0,phase_1,,,,,,,,,,,,,green,hexagon
92.0,6.0,2.0,1.0,1.0,1.0,490.2784288860857,1.0,1.0,phase_1,,,,,,,,,,,,,green,hexagon
0.0,7.0,0.0,1.0,2.0,2.0,496.7464960645884,1.0,1.0,phase_1,,,,,,,,,,,,,white,flipped triangle
224.0,7.0,3.0,1.0,2.0,2.0,546.8654809519649,1.0,1.0,phase_1,,,,,,,,,,,,,white,flipped triangle
41.0,1.0,1.0,0.0,3.0,3.0,442.9557418916374,1.0,1.0,phase_1,,,,,,,,,,,,,blue,circle
225.0,7.0,3.0,1.0,2.0,2.0,496.4952259324491,1.0,1.0,phase_1,,,,,,,,,,,,,white,flipped triangle
0.0,7.0,0.0,1.0,1.0,1.0,602.577222045511,1.0,1.0,phase_1,,,,,,,,,,,,,white,flipped triangle
50.0,1.0,1.0,0.0,2.0,2.0,470.9558768663555,1.0,1.0,phase_1,,,,,,,,,,,,,blue,circle
66.0,1.0,1.0,0.0,4.0,4.0,435.0193368736654,1.0,1.0,phase_1,,,,,,,,,,,,,blue,circle
66.0,5.0,1.0,1.0,4.0,4.0,522.6341378875077,1.0,1.0,phase_1,,,,,,,,,,,,,gray,square
184.0,3.0,3.0,0.0,2.0,2.0,455.1471129525453,1.0,1.0,phase_1,,,,,,,,,,,,,yellow,triangle
204.0,7.0,3.0,1.0,4.0,4.0,380.0109110306948,1.0,1.0,phase_1,,,,,,,,,,,,,white,flipped triangle
424.0,4.0,4.0,0.0,2.0,2.0,464.8824739269912,1.0,1.0,phase_1,,,,,,,,,,,,,magenta,diamond
176.0,3.0,3.0,0.0,3.0,3.0,459.7283031325787,1.0,1.0,phase_1,,,,,,,,,,,,,yellow,triangle
124.0,2.0,2.0,0.0,2.0,2.0,417.6865881308913,1.0,1.0,phase_1,,,,,,,,,,,,,cyan,cross
403.0,8.0,4.0,1.0,1.0,1.0,548.3280969783664,1.0,1.0,phase_1,,,,,,,,,,,,,orange,I
0.0,8.0,0.0,1.0,1.0,1.0,687.9974650219083,1.0,1.0,phase_1,,,,,,,,,,,,,orange,I
219.0,3.0,3.0,0.0,2.0,2.0,496.7206919100135,1.0,1.0,phase_1,,,,,,,,,,,,,yellow,triangle
0.0,8.0,0.0,1.0,1.0,1.0,515.7101000659168,1.0,1.0,phase_1,,,,,,,,,,,,,orange,I
30.0,1.0,1.0,0.0,2.0,2.0,473.1966950930655,1.0,1.0,phase_1,,,,,,,,,,,,,blue,circle
37.0,1.0,1.0,0.0,3.0,3.0,435.0876440294087,1.0,1.0,phase_1,,,,,,,,,,,,,blue,circle
113.0,6.0,2.0,1.0,2.0,2.0,417.871766956523,1.0,1.0,phase_1,,,,,,,,,,,,,green,hexagon
65.0,1.0,1.0,0.0,4.0,4.0,454.8619489651173,1.0,1.0,phase_1,,,,,,,,,,,,,blue,circle
0.0,2.0,0.0,0.0,3.0,3.0,457.6300447806716,1.0,1.0,phase_1,,,,,,,,,,,,,cyan,cross
95.0,6.0,2.0,1.0,1.0,1.0,398.6664749681949,1.0,1.0,phase_1,,,,,,,,,,,,,green,hexagon
223.0,7.0,3.0,1.0,2.0,2.0,410.1856569759547,1.0,1.0,phase_1,,,,,,,,,,,,,white,flipped triangle
0.0,7.0,0.0,1.0,3.0,3.0,360.0382830481976,1.0,1.0,phase_1,,,,,,,,,,,,,white,flipped triangle
212.0,7.0,3.0,1.0,2.0,2.0,621.7013471759856,1.0,1.0,phase_1,,,,,,,,,,,,,white,flipped triangle
80.0,2.0,2.0,0.0,2.0,2.0,435.2038959041238,1.0,1.0,phase_1,,,,,,,,,,,,,cyan,cross
65.0,5.0,1.0,1.0,1.0,1.0,541.5417309850454,1.0,1.0,phase_1,,,,,,,,,,,,,gray,square
196.0,7.0,3.0,1.0,4.0,4.0,509.0729878284037,1.0,1.0,phase_1,,,,,,,,,,,,,white,flipped triangle
384.0,4.0,4.0,0.0,1.0,1.0,590.8742770552635,1.0,1.0,phase_1,,,,,,,,,,,,,magenta,diamond
200.0,7.0,3.0,1.0,3.0,3.0,406.4124280121177,1.0,1.0,phase_1,,,,,,,,,,,,,white,flipped triangle
204.0,3.0,3.0,0.0,1.0,1.0,417.0789350755512,1.0,1.0,phase_1,,,,,,,,,,,,,yellow,triangle
44.0,1.0,1.0,0.0,1.0,1.0,438.5781378950923,1.0,1.0,phase_1,,,,,,,,,,,,,blue,circle
193.0,7.0,3.0,1.0,2.0,2.0,450.2839799970388,1.0,1.0,phase_1,,,,,,,,,,,,,white,flipped triangle
204.0,7.0,3.0,1.0,3.0,3.0,406.4856090117246,1.0,1.0,phase_1,,,,,,,,,,,,,white,flipped triangle
105.0,2.0,2.0,0.0,3.0,3.0,538.7978360522538,1.0,1.0,phase_1,,,,,,,,,,,,,cyan,cross
72.0,1.0,1.0,0.0,1.0,1.0,479.3194900266826,1.0,1.0,phase_1,,,,,,,,,,,,,blue,circle
48.0,5.0,1.0,1.0,4.0,4.0,439.2606490291655,1.0,1.0,phase_1,,,,,,,,,,,,,gray,square
52.0,5.0,1.0,1.0,2.0,2.0,417.8557051345706,1.0,1.0,phase_1,,,,,,,,,,,,,gray,square
0.0,2.0,0.0,0.0,2.0,2.0,405.7601350359618,1.0,1.0,phase_1,,,,,,,,,,,,,cyan,cross
75.0,1.0,1.0,0.0,3.0,3.0,322.457032976672,1.0,1.0,phase_1,,,,,,,,,,,,,blue,circle
0.0,6.0,0.0,1.0,1.0,1.0,296.22075217776,1.0,1.0,phase_1,,,,,,,,,,,,,green,hexagon
377.0,4.0,4.0,0.0,3.0,3.0,381.6642989404499,1.0,1.0,phase_1,,,,,,,,,,,,,magenta,diamond
33.0,5.0,1.0,1.0,4.0,4.0,419.9395289178937,1.0,1.0,phase_1,,,,,,,,,,,,,gray,square
384.0,4.0,4.0,0.0,1.0,1.0,437.7945580054074,1.0,1.0,phase_1,,,,,,,,,,,,,magenta,diamond
196.0,3.0,3.0,0.0,3.0,3.0,332.5602929107845,1.0,1.0,phase_1,,,,,,,,,,,,,yellow,triangle
37.0,1.0,1.0,0.0,1.0,1.0,350.0352089758962,1.0,1.0,phase_1,,,,,,,,,,,,,blue,circle
0.0,2.0,0.0,0.0,2.0,2.0,276.973782107234,1.0,1.0,phase_1,,,,,,,,,,,,,cyan,cross
37.0,5.0,1.0,1.0,4.0,4.0,368.3448869269341,1.0,1.0,phase_1,,,,,,,,,,,,,gray,square
0.0,3.0,0.0,0.0,1.0,1.0,325.2064960543066,1.0,2.0,phase_1,,,,,,,,,,,,,yellow,triangle
0.0,5.0,0.0,1.0,3.0,3.0,454.4673298951238,1.0,1.0,phase_1,,,,,,,,,,,,,gray,square
108.0,2.0,2.0,0.0,3.0,3.0,523.3857878483832,1.0,1.0,phase_1,,,,,,,,,,,,,cyan,cross
123.0,2.0,2.0,0.0,3.0,3.0,495.7784758880734,1.0,1.0,phase_1,,,,,,,,,,,,,cyan,cross
0.0,4.0,0.0,0.0,3.0,3.0,430.2170560695231,1.0,1.0,phase_1,,,,,,,,,,,,,magenta,diamond
397.0,8.0,4.0,1.0,4.0,4.0,420.2679770532995,1.0,1.0,phase_1,,,,,,,,,,,,,orange,I
409.0,8.0,4.0,1.0,1.0,1.0,494.9921928346157,1.0,1.0,phase_1,,,,,,,,,,,,,orange,I
177.0,3.0,3.0,0.0,3.0,3.0,422.3444429226219,2.0,1.0,phase_1,,,,,,,,,,,,,yellow,triangle
199.0,7.0,3.0,1.0,4.0,4.0,424.5592949446291,2.0,1.0,phase_1,,,,,,,,,,,,,white,flipped triangle
75.0,2.0,2.0,0.0,4.0,4.0,375.1983470283448,2.0,1.0,phase_1,,,,,,,,,,,,,cyan,cross
96.0,2.0,2.0,0.0,4.0,4.0,418.6524448450655,2.0,1.0,phase_1,,,,,,,,,,,,,cyan,cross
409.0,8.0,4.0,1.0,4.0,4.0,396.9708161894232,2.0,1.0,phase_1,,,,,,,,,,,,,orange,I
0.0,5.0,0.0,1.0,3.0,3.0,442.1993549913168,2.0,1.0,phase_1,,,,,,,,,,,,,gray,square
409.0,4.0,4.0,0.0,3.0,3.0,538.1762450560927,2.0,1.0,phase_1,,,,,,,,,,,,,magenta,diamond
75.0,6.0,2.0,1.0,2.0,2.0,435.7211331371218,2.0,1.0,phase_1,,,,,,,,,,,,,green,hexagon
0.0,6.0,0.0,1.0,3.0,3.0,601.7255620099604,2.0,1.0,phase_1,,,,,,,,,,,,,green,hexagon
91.0,6.0,2.0,1.0,3.0,3.0,358.7883568834513,2.0,1.0,phase_1,,,,,,,,,,,,,green,hexagon
52.0,1.0,1.0,0.0,4.0,4.0,378.6853798665106,2.0,1.0,phase_1,,,,,,,,,,,,,blue,circle
386.0,8.0,4.0,1.0,4.0,4.0,472.2791500389576,2.0,1.0,phase_1,,,,,,,,,,,,,orange,I
44.0,1.0,1.0,0.0,2.0,2.0,331.3547719735652,2.0,1.0,phase_1,,,,,,,,,,,,,blue,circle
190.0,7.0,3.0,1.0,3.0,3.0,343.519632006064,2.0,1.0,phase_1,,,,,,,,,,,,,white,flipped triangle
201.0,7.0,3.0,1.0,1.0,1.0,364.4125638529658,2.0,1.0,phase_1,,,,,,,,,,,,,white,flipped triangle
0.0,7.0,0.0,1.0,2.0,2.0,385.2440170012414,2.0,1.0,phase_1,,,,,,,,,,,,,white,flipped triangle
409.0,8.0,4.0,1.0,3.0,3.0,336.4764750003814,2.0,1.0,phase_1,,,,,,,,,,,,,orange,I
41.0,5.0,1.0,1.0,3.0,3.0,395.486761117354,2.0,1.0,phase_1,,,,,,,,,,,,,gray,square
201.0,3.0,3.0,0.0,1.0,1.0,795.1395141426474,2.0,1.0,phase_1,,,,,,,,,,,,,yellow,triangle
113.0,2.0,2.0,0.0,1.0,1.0,502.4205839727074,2.0,1.0,phase_1,,,,,,,,,,,,,cyan,cross
57.0,1.0,1.0,0.0,3.0,3.0,458.551905117929,2.0,1.0,phase_1,,,,,,,,,,,,,blue,circle
205.0,7.0,3.0,1.0,2.0,2.0,352.1673991344869,2.0,1.0,phase_1,,,,,,,,,,,,,white,flipped triangle
410.0,4.0,4.0,0.0,4.0,4.0,497.0372589305043,2.0,1.0,phase_1,,,,,,,,,,,,,magenta,diamond
48.0,1.0,1.0,0.0,1.0,1.0,495.8087590057403,2.0,1.0,phase_1,,,,,,,,,,,,,blue,circle
0.0,2.0,0.0,0.0,4.0,4.0,421.9604029785841,2.0,1.0,phase_1,,,,,,,,,,,,,cyan,cross
210.0,3.0,3.0,0.0,1.0,1.0,520.808617118746,2.0,1.0,phase_1,,,,,,,,,,,,,yellow,triangle
393.0,8.0,4.0,1.0,4.0,4.0,448.1551118660718,2.0,1.0,phase_1,,,,,,,,,,,,,orange,I
124.0,6.0,2.0,1.0,4.0,4.0,484.7471879329532,2.0,1.0,phase_1,,,,,,,,,,,,,green,hexagon
180.0,7.0,3.0,1.0,1.0,1.0,525.3715591970831,2.0,1.0,phase_1,,,,,,,,,,,,,white,flipped triangle
208.0,3.0,3.0,0.0,2.0,2.0,458.1348339561373,2.0,1.0,phase_1,,,,,,,,,,,,,yellow,triangle
34.0,5.0,1.0,1.0,3.0,3.0,326.6541240736842,2.0,1.0,phase_1,,,,,,,,,,,,,gray,square
86.0,6.0,2.0,1.0,4.0,4.0,563.4575542062521,2.0,1.0,phase_1,,,,,,,,,,,,,green,hexagon
71.0,5.0,1.0,1.0,3.0,3.0,648.1681680306792,2.0,1.0,phase_1,,,,,,,,,,,,,gray,square
391.0,4.0,4.0,0.0,4.0,4.0,412.5407179817557,2.0,1.0,phase_1,,,,,,,,,,,,,magenta,diamond
381.0,8.0,4.0,1.0,2.0,2.0,459.3761670403182,2.0,1.0,phase_1,,,,,,,,,,,,,orange,I
96.0,6.0,2.0,1.0,4.0,4.0,534.1834949795157,2.0,1.0,phase_1,,,,,,,,,,,,,green,hexagon
411.0,4.0,4.0,0.0,1.0,1.0,475.373730994761,2.0,1.0,phase_1,,,,,,,,,,,,,magenta,diamond
0.0,1.0,0.0,0.0,4.0,4.0,496.1140300147235,2.0,1.0,phase_1,,,,,,,,,,,,,blue,circle
218.0,3.0,3.0,0.0,2.0,2.0,398.8164870534092,2.0,1.0,phase_1,,,,,,,,,,,,,yellow,triangle
0.0,3.0,0.0,0.0,4.0,4.0,440.6912268605083,2.0,1.0,phase_1,,,,,,,,,,,,,yellow,triangle
77.0,6.0,2.0,1.0,2.0,2.0,606.5327189862728,2.0,1.0,phase_1,,,,,,,,,,,,,green,hexagon
0.0,8.0,0.0,1.0,1.0,1.0,476.61804407835,2.0,1.0,phase_1,,,,,,,,,,,,,orange,I
385.0,8.0,4.0,1.0,3.0,3.0,490.8662890084088,2.0,1.0,phase_1,,,,,,,,,,,,,orange,I
71.0,1.0,1.0,0.0,2.0,2.0,359.0020819101482,2.0,1.0,phase_1,,,,,,,,,,,,,blue,circle
384.0,8.0,4.0,1.0,4.0,4.0,386.0568611416966,2.0,1.0,phase_1,,,,,,,,,,,,,orange,I
182.0,7.0,3.0,1.0,3.0,3.0,494.037149939686,2.0,1.0,phase_1,,,,,,,,,,,,,white,flipped triangle
181.0,3.0,3.0,0.0,2.0,2.0,305.5548251140862,2.0,1.0,phase_1,,,,,,,,,,,,,yellow,triangle
385.0,4.0,4.0,0.0,4.0,4.0,312.0968171861022,2.0,1.0,phase_1,,,,,,,,,,,,,magenta,diamond
122.0,2.0,2.0,0.0,2.0,2.0,342.7808280102908,2.0,1.0,phase_1,,,,,,,,,,,,,cyan,cross
66.0,5.0,1.0,1.0,2.0,2.0,335.4380340315401,2.0,1.0,phase_1,,,,,,,,,,,,,gray,square
405.0,4.0,4.0,0.0,3.0,3.0,344.418449094519,2.0,1.0,phase_1,,,,,,,,,,,,,magenta,diamond
33.0,1.0,1.0,0.0,1.0,1.0,444.1766019444912,2.0,1.0,phase_1,,,,,,,,,,,,,blue,circle
0.0,5.0,0.0,1.0,3.0,3.0,376.7043219413608,2.0,1.0,phase_1,,,,,,,,,,,,,gray,square
38.0,1.0,1.0,0.0,2.0,2.0,473.5922839026898,2.0,2.0,phase_1,,,,,,,,,,,,,blue,circle
60.0,1.0,1.0,0.0,1.0,1.0,518.5286458581686,2.0,1.0,phase_1,,,,,,,,,,,,,blue,circle
397.0,8.0,4.0,1.0,3.0,3.0,346.4594220276922,2.0,1.0,phase_1,,,,,,,,,,,,,orange,I
414.0,8.0,4.0,1.0,3.0,3.0,463.2369808387011,2.0,1.0,phase_1,,,,,,,,,,,,,orange,I
101.0,6.0,2.0,1.0,4.0,4.0,411.7834670469165,2.0,1.0,phase_1,,,,,,,,,,,,,green,hexagon
47.0,1.0,1.0,0.0,4.0,4.0,456.6079471260309,2.0,1.0,phase_1,,,,,,,,,,,,,blue,circle
0.0,6.0,0.0,1.0,1.0,1.0,439.3202611245215,2.0,1.0,phase_1,,,,,,,,,,,,,green,hexagon
0.0,5.0,0.0,1.0,4.0,4.0,532.2571159340441,2.0,1.0,phase_1,,,,,,,,,,,,,gray,square
0.0,8.0,0.0,1.0,1.0,1.0,415.2546180412173,2.0,1.0,phase_1,,,,,,,,,,,,,orange,I
183.0,3.0,3.0,0.0,1.0,1.0,377.2405900526792,2.0,1.0,phase_1,,,,,,,,,,,,,yellow,triangle
108.0,6.0,2.0,1.0,2.0,2.0,341.6186210233718,2.0,1.0,phase_1,,,,,,,,,,,,,green,hexagon
108.0,2.0,2.0,0.0,4.0,4.0,357.8999938908964,2.0,1.0,phase_1,,,,,,,,,,,,,cyan,cross
0.0,7.0,0.0,1.0,3.0,3.0,490.4551948420703,2.0,1.0,phase_1,,,,,,,,,,,,,white,flipped triangle
409.0,4.0,4.0,0.0,2.0,2.0,333.0187320243567,2.0,1.0,phase_1,,,,,,,,,,,,,magenta,diamond
0.0,6.0,0.0,1.0,1.0,1.0,426.8663639668375,2.0,1.0,phase_1,,,,,,,,,,,,,green,hexagon
108.0,6.0,2.0,1.0,1.0,1.0,478.3622710965574,2.0,1.0,phase_1,,,,,,,,,,,,,green,hexagon
58.0,1.0,1.0,0.0,1.0,1.0,354.9573752097785,2.0,1.0,phase_1,,,,,,,,,,,,,blue,circle
85.0,6.0,2.0,1.0,1.0,1.0,281.0946349054575,2.0,1.0,phase_1,,,,,,,,,,,,,green,hexagon
48.0,1.0,1.0,0.0,3.0,3.0,493.9514559227973,2.0,1.0,phase_1,,,,,,,,,,,,,blue,circle
0.0,5.0,0.0,1.0,3.0,3.0,394.7431410197168,2.0,1.0,phase_1,,,,,,,,,,,,,gray,square
0.0,3.0,0.0,0.0,4.0,4.0,409.3601978383958,2.0,1.0,phase_1,,,,,,,,,,,,,yellow,triangle
124.0,2.0,2.0,0.0,1.0,1.0,380.9833780396729,2.0,1.0,phase_1,,,,,,,,,,,,,cyan,cross
395.0,8.0,4.0,1.0,1.0,1.0,289.6474399603903,2.0,1.0,phase_1,,,,,,,,,,,,,orange,I
44.0,1.0,1.0,0.0,1.0,1.0,314.9876988027245,2.0,1.0,phase_1,,,,,,,,,,,,,blue,circle
414.0,4.0,4.0,0.0,2.0,2.0,367.7190309390425,2.0,1.0,phase_1,,,,,,,,,,,,,magenta,diamond
29.0,5.0,1.0,1.0,4.0,4.0,540.878415107727,2.0,1.0,phase_1,,,,,,,,,,,,,gray,square
203.0,3.0,3.0,0.0,2.0,2.0,292.0839018188417,2.0,1.0,phase_1,,,,,,,,,,,,,yellow,triangle
0.0,8.0,0.0,1.0,3.0,3.0,390.5947119928896,2.0,1.0,phase_1,,,,,,,,,,,,,orange,I
0.0,8.0,0.0,1.0,1.0,1.0,298.6499681137502,2.0,1.0,phase_1,,,,,,,,,,,,,orange,I
26.0,5.0,1.0,1.0,2.0,2.0,446.7763900756836,2.0,1.0,phase_1,,,,,,,,,,,,,gray,square
95.0,2.0,2.0,0.0,3.0,3.0,390.7844801433384,2.0,1.0,phase_1,,,,,,,,,,,,,cyan,cross
180.0,3.0,3.0,0.0,4.0,4.0,337.1225639712065,2.0,1.0,phase_1,,,,,,,,,,,,,yellow,triangle
402.0,8.0,4.0,1.0,2.0,2.0,336.1911929678172,2.0,1.0,phase_1,,,,,,,,,,,,,orange,I
110.0,2.0,2.0,0.0,1.0,1.0,317.1962129417807,2.0,1.0,phase_1,,,,,,,,,,,,,cyan,cross
184.0,7.0,3.0,1.0,4.0,4.0,311.3006220664829,2.0,1.0,phase_1,,,,,,,,,,,,,white,flipped triangle
0.0,5.0,0.0,1.0,2.0,2.0,356.3204468227923,2.0,1.0,phase_1,,,,,,,,,,,,,gray,square
188.0,3.0,3.0,0.0,4.0,4.0,432.8718080651015,2.0,1.0,phase_1,,,,,,,,,,,,,yellow,triangle
214.0,7.0,3.0,1.0,4.0,4.0,373.6495261546224,2.0,1.0,phase_1,,,,,,,,,,,,,white,flipped triangle
41.0,5.0,1.0,1.0,3.0,3.0,427.8525130357593,2.0,1.0,phase_1,,,,,,,,,,,,,gray,square
211.0,3.0,3.0,0.0,2.0,2.0,424.9852988868952,2.0,1.0,phase_1,,,,,,,,,,,,,yellow,triangle
0.0,6.0,0.0,1.0,1.0,1.0,468.720142962411,2.0,1.0,phase_1,,,,,,,,,,,,,green,hexagon
0.0,1.0,0.0,0.0,1.0,1.0,423.9066008012742,2.0,1.0,phase_1,,,,,,,,,,,,,blue,circle
378.0,8.0,4.0,1.0,2.0,2.0,358.9578277897089,2.0,1.0,phase_1,,,,,,,,,,,,,orange,I
80.0,6.0,2.0,1.0,3.0,3.0,331.7704799119383,2.0,1.0,phase_1,,,,,,,,,,,,,green,hexagon
377.0,8.0,4.0,1.0,2.0,2.0,384.4721720088273,2.0,1.0,phase_1,,,,,,,,,,,,,orange,I
47.0,5.0,1.0,1.0,4.0,4.0,330.888926051557,2.0,1.0,phase_1,,,,,,,,,,,,,gray,square
397.0,4.0,4.0,0.0,1.0,1.0,257.8515659552067,2.0,1.0,phase_1,,,,,,,,,,,,,magenta,diamond
116.0,6.0,2.0,1.0,1.0,1.0,333.1757928244769,3.0,1.0,phase_1,,,,,,,,,,,,,green,hexagon
0.0,1.0,0.0,0.0,1.0,1.0,468.3234610129148,3.0,1.0,phase_1,,,,,,,,,,,,,blue,circle
215.0,7.0,3.0,1.0,1.0,1.0,343.0314480792731,3.0,1.0,phase_1,,,,,,,,,,,,,white,flipped triangle
223.0,3.0,3.0,0.0,4.0,4.0,346.2334899231791,3.0,1.0,phase_1,,,,,,,,,,,,,yellow,triangle
417.0,4.0,4.0,0.0,3.0,3.0,387.1466049458831,3.0,1.0,phase_1,,,,,,,,,,,,,magenta,diamond
176.0,7.0,3.0,1.0,4.0,4.0,479.1306289844215,3.0,1.0,phase_1,,,,,,,,,,,,,white,flipped triangle
396.0,8.0,4.0,1.0,1.0,1.0,299.1457090247422,3.0,1.0,phase_1,,,,,,,,,,,,,orange,I
117.0,6.0,2.0,1.0,3.0,3.0,423.2729710638523,3.0,1.0,phase_1,,,,,,,,,,,,,green,hexagon
0.0,4.0,0.0,0.0,3.0,3.0,476.4417200349271,3.0,1.0,phase_1,,,,,,,,,,,,,magenta,diamond
52.0,1.0,1.0,0.0,1.0,1.0,496.464234078303,3.0,1.0,phase_1,,,,,,,,,,,,,blue,circle
48.0,5.0,1.0,1.0,1.0,1.0,389.6596790291369,3.0,1.0,phase_1,,,,,,,,,,,,,gray,square
37.0,5.0,1.0,1.0,1.0,1.0,306.0107689816504,3.0,1.0,phase_1,,,,,,,,,,,,,gray,square
0.0,4.0,0.0,0.0,3.0,3.0,493.2241139467805,3.0,1.0,phase_1,,,,,,,,,,,,,magenta,diamond
0.0,8.0,0.0,1.0,3.0,3.0,513.2368069607764,3.0,1.0,phase_1,,,,,,,,,,,,,orange,I
88.0,6.0,2.0,1.0,1.0,1.0,350.6944549735635,3.0,1.0,phase_1,,,,,,,,,,,,,green,hexagon
58.0,5.0,1.0,1.0,1.0,1.0,397.7102029602974,3.0,1.0,phase_1,,,,,,,,,,,,,gray,square
424.0,8.0,4.0,1.0,2.0,2.0,399.4069390464574,3.0,1.0,phase_1,,,,,,,,,,,,,orange,I
91.0,2.0,2.0,0.0,2.0,2.0,339.9197629187256,3.0,1.0,phase_1,,,,,,,,,,,,,cyan,cross
112.0,2.0,2.0,0.0,1.0,1.0,497.0829652156681,3.0,1.0,phase_1,,,,,,,,,,,,,cyan,cross
424.0,8.0,4.0,1.0,4.0,4.0,367.6715339533984,3.0,1.0,phase_1,,,,,,,,,,,,,orange,I
424.0,8.0,4.0,1.0,1.0,1.0,347.0270319376141,3.0,1.0,phase_1,,,,,,,,,,,,,orange,I
0.0,3.0,0.0,0.0,2.0,2.0,352.6667000260204,3.0,1.0,phase_1,,,,,,,,,,,,,yellow,triangle
201.0,7.0,3.0,1.0,1.0,1.0,555.0640819128603,3.0,1.0,phase_1,,,,,,,,,,,,,white,flipped triangle
405.0,8.0,4.0,1.0,3.0,3.0,513.8830789364874,3.0,1.0,phase_1,,,,,,,,,,,,,orange,I
100.0,2.0,2.0,0.0,3.0,3.0,596.7628590296954,3.0,1.0,phase_1,,,,,,,,,,,,,cyan,cross
92.0,2.0,2.0,0.0,1.0,1.0,370.0557961128652,3.0,1.0,phase_1,,,,,,,,,,,,,cyan,cross
421.0,4.0,4.0,0.0,1.0,1.0,438.9499530661851,3.0,1.0,phase_1,,,,,,,,,,,,,magenta,diamond
205.0,3.0,3.0,0.0,2.0,2.0,365.5808670446276,3.0,1.0,phase_1,,,,,,,,,,,,,yellow,triangle
0.0,6.0,0.0,1.0,1.0,1.0,353.3632571343332,3.0,1.0,phase_1,,,,,,,,,,,,,green,hexagon
120.0,6.0,2.0,1.0,4.0,4.0,460.9167028684169,3.0,1.0,phase_1,,,,,,,,,,,,,green,hexagon
42.0,1.0,1.0,0.0,2.0,2.0,402.766854967922,3.0,1.0,phase_1,,,,,,,,,,,,,blue,circle
417.0,8.0,4.0,1.0,4.0,4.0,405.8391640428453,3.0,1.0,phase_1,,,,,,,,,,,,,orange,I
188.0,7.0,3.0,1.0,1.0,1.0,372.3150459118187,3.0,1.0,phase_1,,,,,,,,,,,,,white,flipped triangle
403.0,4.0,4.0,0.0,2.0,2.0,386.3208470866084,3.0,1.0,phase_1,,,,,,,,,,,,,magenta,diamond
212.0,3.0,3.0,0.0,1.0,1.0,406.260697171092,3.0,1.0,phase_1,,,,,,,,,,,,,yellow,triangle
409.0,4.0,4.0,0.0,3.0,3.0,410.9785410109907,3.0,1.0,phase_1,,,,,,,,,,,,,magenta,diamond
381.0,4.0,4.0,0.0,4.0,4.0,596.6618079692125,3.0,1.0,phase_1,,,,,,,,,,,,,magenta,diamond
377.0,8.0,4.0,1.0,3.0,3.0,521.7799250967801,3.0,1.0,phase_1,,,,,,,,,,,,,orange,I
117.0,2.0,2.0,0.0,1.0,1.0,463.4041509125381,3.0,1.0,phase_1,,,,,,,,,,,,,cyan,cross
52.0,5.0,1.0,1.0,2.0,2.0,326.9208970014006,3.0,1.0,phase_1,,,,,,,,,,,,,gray,square
0.0,4.0,0.0,0.0,1.0,1.0,393.4844140894711,3.0,1.0,phase_1,,,,,,,,,,,,,magenta,diamond
0.0,5.0,0.0,1.0,1.0,1.0,519.3109109532088,3.0,1.0,phase_1,,,,,,,,,,,,,gray,square
86.0,2.0,2.0,0.0,3.0,3.0,433.4849321749061,3.0,1.0,phase_1,,,,,,,,,,,,,cyan,cross
0.0,5.0,0.0,1.0,3.0,3.0,480.6963989976793,3.0,1.0,phase_1,,,,,,,,,,,,,gray,square
406.0,8.0,4.0,1.0,2.0,2.0,330.39425406605,3.0,1.0,phase_1,,,,,,,,,,,,,orange,I
88.0,2.0,2.0,0.0,4.0,4.0,393.2812779676169,3.0,1.0,phase_1,,,,,,,,,,,,,cyan,cross
0.0,8.0,0.0,1.0,1.0,1.0,373.1770089361816,3.0,1.0,phase_1,,,,,,,,,,,,,orange,I
0.0,7.0,0.0,1.0,4.0,4.0,376.5100429300219,3.0,1.0,phase_1,,,,,,,,,,,,,white,flipped triangle
0.0,1.0,0.0,0.0,4.0,4.0,460.6046930421144,3.0,1.0,phase_1,,,,,,,,,,,,,blue,circle
0.0,6.0,0.0,1.0,3.0,3.0,620.5861330963671,3.0,1.0,phase_1,,,,,,,,,,,,,green,hexagon
188.0,7.0,3.0,1.0,2.0,2.0,326.4938860666007,3.0,1.0,phase_1,,,,,,,,,,,,,white,flipped triangle
52.0,1.0,1.0,0.0,1.0,1.0,386.6011318750679,3.0,1.0,phase_1,,,,,,,,,,,,,blue,circle
208.0,3.0,3.0,0.0,1.0,1.0,303.3237908966839,3.0,1.0,phase_1,,,,,,,,,,,,,yellow,triangle
79.0,2.0,2.0,0.0,1.0,1.0,291.6306320112198,3.0,1.0,phase_1,,,,,,,,,,,,,cyan,cross
204.0,3.0,3.0,0.0,2.0,2.0,275.0649501103908,3.0,1.0,phase_1,,,,,,,,,,,,,yellow,triangle
0.0,8.0,0.0,1.0,2.0,2.0,423.332487931475,3.0,1.0,phase_1,,,,,,,,,,,,,orange,I
0.0,4.0,0.0,0.0,4.0,4.0,618.1186819449067,3.0,1.0,phase_1,,,,,,,,,,,,,magenta,diamond
63.0,1.0,1.0,0.0,3.0,3.0,584.5410278998315,3.0,1.0,phase_1,,,,,,,,,,,,,blue,circle
0.0,2.0,0.0,0.0,2.0,2.0,323.675834108144,3.0,1.0,phase_1,,,,,,,,,,,,,cyan,cross
49.0,5.0,1.0,1.0,2.0,2.0,339.8667841684073,3.0,1.0,phase_1,,,,,,,,,,,,,gray,square
57.0,5.0,1.0,1.0,4.0,4.0,437.0284238830209,3.0,1.0,phase_1,,,,,,,,,,,,,gray,square
208.0,7.0,3.0,1.0,2.0,2.0,547.7522329892963,3.0,1.0,phase_1,,,,,,,,,,,,,white,flipped triangle
201.0,3.0,3.0,0.0,3.0,3.0,626.1981960851699,3.0,1.0,phase_1,,,,,,,,,,,,,yellow,triangle
399.0,8.0,4.0,1.0,2.0,2.0,402.6387110352516,3.0,1.0,phase_1,,,,,,,,,,,,,orange,I
42.0,5.0,1.0,1.0,4.0,4.0,449.6604369487613,3.0,1.0,phase_1,,,,,,,,,,,,,gray,square
41.0,1.0,1.0,0.0,3.0,3.0,598.1059649493545,3.0,1.0,phase_1,,,,,,,,,,,,,blue,circle
83.0,2.0,2.0,0.0,4.0,4.0,433.9091209694743,3.0,1.0,phase_1,,,,,,,,,,,,,cyan,cross
26.0,1.0,1.0,0.0,4.0,4.0,392.639284953475,3.0,1.0,phase_1,,,,,,,,,,,,,blue,circle
81.0,6.0,2.0,1.0,2.0,2.0,379.4823931530118,3.0,1.0,phase_1,,,,,,,,,,,,,green,hexagon
424.0,4.0,4.0,0.0,4.0,4.0,440.9648799337446,3.0,1.0,phase_1,,,,,,,,,,,,,magenta,diamond
118.0,6.0,2.0,1.0,4.0,4.0,479.2769639752805,3.0,1.0,phase_1,,,,,,,,,,,,,green,hexagon
397.0,4.0,4.0,0.0,2.0,2.0,553.7087779957801,3.0,1.0,phase_1,,,,,,,,,,,,,magenta,diamond
0.0,7.0,0.0,1.0,1.0,1.0,614.4968611188233,3.0,1.0,phase_1,,,,,,,,,,,,,white,flipped triangle
380.0,4.0,4.0,0.0,2.0,2.0,444.5271049626171,3.0,1.0,phase_1,,,,,,,,,,,,,magenta,diamond
415.0,4.0,4.0,0.0,3.0,3.0,464.8924639914185,3.0,1.0,phase_1,,,,,,,,,,,,,magenta,diamond
210.0,7.0,3.0,1.0,3.0,3.0,435.2178650442511,3.0,1.0,phase_1,,,,,,,,,,,,,white,flipped triangle
48.0,1.0,1.0,0.0,4.0,4.0,402.009303914383,3.0,1.0,phase_1,,,,,,,,,,,,,blue,circle
381.0,4.0,4.0,0.0,3.0,3.0,526.3348210137337,3.0,1.0,phase_1,,,,,,,,,,,,,magenta,diamond
0.0,4.0,0.0,0.0,2.0,2.0,441.433526109904,3.0,1.0,phase_1,,,,,,,,,,,,,magenta,diamond
87.0,2.0,2.0,0.0,1.0,1.0,415.1996849104762,3.0,1.0,phase_1,,,,,,,,,,,,,cyan,cross
198.0,7.0,3.0,1.0,2.0,2.0,354.6498110517859,3.0,1.0,phase_1,,,,,,,,,,,,,white,flipped triangle
81.0,2.0,2.0,0.0,2.0,2.0,370.3628939110786,3.0,1.0,phase_1,,,,,,,,,,,,,cyan,cross
399.0,4.0,4.0,0.0,1.0,1.0,383.7498819921165,3.0,1.0,phase_1,,,,,,,,,,,,,magenta,diamond
105.0,6.0,2.0,1.0,2.0,2.0,353.5551130771637,3.0,1.0,phase_1,,,,,,,,,,,,,green,hexagon
0.0,6.0,0.0,1.0,3.0,3.0,518.2649551425129,3.0,1.0,phase_1,,,,,,,,,,,,,green,hexagon
101.0,2.0,2.0,0.0,2.0,2.0,395.5458619166165,3.0,1.0,phase_1,,,,,,,,,,,,,cyan,cross
0.0,2.0,0.0,0.0,1.0,1.0,414.3664857838303,3.0,1.0,phase_1,,,,,,,,,,,,,cyan,cross
113.0,6.0,2.0,1.0,3.0,3.0,670.5349842086434,3.0,1.0,phase_1,,,,,,,,,,,,,green,hexagon
200.0,3.0,3.0,0.0,3.0,3.0,512.9996561445296,3.0,1.0,phase_1,,,,,,,,,,,,,yellow,triangle
0.0,8.0,0.0,1.0,1.0,1.0,325.5158390384167,3.0,1.0,phase_1,,,,,,,,,,,,,orange,I
378.0,4.0,4.0,0.0,2.0,2.0,345.4984498675912,3.0,1.0,phase_1,,,,,,,,,,,,,magenta,diamond
34.0,1.0,1.0,0.0,3.0,3.0,341.796558117494,3.0,1.0,phase_1,,,,,,,,,,,,,blue,circle
38.0,5.0,1.0,1.0,1.0,1.0,470.5194791313261,3.0,1.0,phase_1,,,,,,,,,,,,,gray,square
123.0,6.0,2.0,1.0,4.0,4.0,449.213027022779,3.0,1.0,phase_1,,,,,,,,,,,,,green,hexagon
53.0,1.0,1.0,0.0,4.0,4.0,396.6438700444996,3.0,1.0,phase_1,,,,,,,,,,,,,blue,circle
96.0,2.0,2.0,0.0,2.0,2.0,344.6507290937006,3.0,1.0,phase_1,,,,,,,,,,,,,cyan,cross
0.0,6.0,0.0,1.0,2.0,2.0,437.4588180799037,3.0,1.0,phase_1,,,,,,,,,,,,,green,hexagon
395.0,8.0,4.0,1.0,3.0,3.0,493.3516029268503,3.0,1.0,phase_1,,,,,,,,,,,,,orange,I
0.0,2.0,0.0,0.0,3.0,3.0,505.1309789996594,3.0,1.0,phase_1,,,,,,,,,,,,,cyan,cross
0.0,4.0,0.0,0.0,1.0,1.0,412.3791409656405,3.0,1.0,phase_1,,,,,,,,,,,,,magenta,diamond
0.0,3.0,0.0,0.0,4.0,4.0,400.1983529888093,4.0,1.0,phase_1,,,,,,,,,,,,,yellow,triangle
44.0,5.0,1.0,1.0,1.0,1.0,385.6071201153099,4.0,1.0,phase_1,,,,,,,,,,,,,gray,square
219.0,7.0,3.0,1.0,4.0,4.0,357.484026113525,4.0,1.0,phase_1,,,,,,,,,,,,,white,flipped triangle
49.0,1.0,1.0,0.0,3.0,3.0,452.7006251737475,4.0,1.0,phase_1,,,,,,,,,,,,,blue,circle
39.0,5.0,1.0,1.0,2.0,2.0,345.367917092517,4.0,1.0,phase_1,,,,,,,,,,,,,gray,square
104.0,2.0,2.0,0.0,2.0,2.0,316.3301330059767,4.0,1.0,phase_1,,,,,,,,,,,,,cyan,cross
53.0,5.0,1.0,1.0,1.0,1.0,369.9683421291411,4.0,1.0,phase_1,,,,,,,,,,,,,gray,square
203.0,7.0,3.0,1.0,3.0,3.0,422.9844608344137,4.0,1.0,phase_1,,,,,,,,,,,,,white,flipped triangle
377.0,4.0,4.0,0.0,4.0,4.0,474.1463980171829,4.0,1.0,phase_1,,,,,,,,,,,,,magenta,diamond
393.0,4.0,4.0,0.0,4.0,4.0,544.6361301001161,4.0,1.0,phase_1,,,,,,,,,,,,,magenta,diamond
87.0,6.0,2.0,1.0,3.0,3.0,470.1897571794688,4.0,1.0,phase_1,,,,,,,,,,,,,green,hexagon
122.0,6.0,2.0,1.0,4.0,4.0,440.2753871399909,4.0,1.0,phase_1,,,,,,,,,,,,,green,hexagon
65.0,5.0,1.0,1.0,1.0,1.0,391.4494020864367,4.0,1.0,phase_1,,,,,,,,,,,,,gray,square
411.0,8.0,4.0,1.0,4.0,4.0,385.0498551037162,4.0,1.0,phase_1,,,,,,,,,,,,,orange,I
402.0,4.0,4.0,0.0,2.0,2.0,366.0722828935832,4.0,1.0,phase_1,,,,,,,,,,,,,magenta,diamond
29.0,1.0,1.0,0.0,3.0,3.0,366.1123651545495,4.0,1.0,phase_1,,,,,,,,,,,,,blue,circle
0.0,3.0,0.0,0.0,4.0,4.0,494.9847979005426,4.0,1.0,phase_1,,,,,,,,,,,,,yellow,triangle
211.0,7.0,3.0,1.0,1.0,1.0,413.5742210783064,4.0,1.0,phase_1,,,,,,,,,,,,,white,flipped triangle
50.0,5.0,1.0,1.0,2.0,2.0,427.2891830187291,4.0,1.0,phase_1,,,,,,,,,,,,,gray,square
384.0,8.0,4.0,1.0,2.0,2.0,368.4120429679751,4.0,1.0,phase_1,,,,,,,,,,,,,orange,I
118.0,2.0,2.0,0.0,2.0,2.0,469.7567319963127,4.0,1.0,phase_1,,,,,,,,,,,,,cyan,cross
181.0,7.0,3.0,1.0,3.0,3.0,368.3006821665913,4.0,1.0,phase_1,,,,,,,,,,,,,white,flipped triangle
29.0,1.0,1.0,0.0,2.0,2.0,371.8603709712624,4.0,1.0,phase_1,,,,,,,,,,,,,blue,circle
0.0,1.0,0.0,0.0,2.0,2.0,402.0743300206959,4.0,1.0,phase_1,,,,,,,,,,,,,blue,circle
391.0,8.0,4.0,1.0,1.0,1.0,360.6994049623608,4.0,1.0,phase_1,,,,,,,,,,,,,orange,I
52.0,5.0,1.0,1.0,2.0,2.0,560.9362439718097,4.0,1.0,phase_1,,,,,,,,,,,,,gray,square
0.0,4.0,0.0,0.0,3.0,3.0,438.8549500145018,4.0,1.0,phase_1,,,,,,,,,,,,,magenta,diamond
182.0,3.0,3.0,0.0,4.0,4.0,453.2370448578149,4.0,1.0,phase_1,,,,,,,,,,,,,yellow,triangle
48.0,5.0,1.0,1.0,3.0,3.0,490.3605990111828,4.0,1.0,phase_1,,,,,,,,,,,,,gray,square
178.0,7.0,3.0,1.0,3.0,3.0,430.4922029841691,4.0,1.0,phase_1,,,,,,,,,,,,,white,flipped triangle
381.0,8.0,4.0,1.0,1.0,1.0,394.7719160933047,4.0,1.0,phase_1,,,,,,,,,,,,,orange,I
53.0,1.0,1.0,0.0,4.0,4.0,349.8866530135274,4.0,1.0,phase_1,,,,,,,,,,,,,blue,circle
30.0,5.0,1.0,1.0,3.0,3.0,390.2326179668307,4.0,1.0,phase_1,,,,,,,,,,,,,gray,square
176.0,7.0,3.0,1.0,1.0,1.0,458.1100349314511,4.0,1.0,phase_1,,,,,,,,,,,,,white,flipped triangle
0.0,3.0,0.0,0.0,3.0,3.0,477.8682291507721,4.0,1.0,phase_1,,,,,,,,,,,,,yellow,triangle
0.0,1.0,0.0,0.0,4.0,4.0,523.4511911403388,4.0,1.0,phase_1,,,,,,,,,,,,,blue,circle
75.0,5.0,1.0,1.0,1.0,1.0,556.8684530444443,4.0,1.0,phase_1,,,,,,,,,,,,,gray,square
186.0,7.0,3.0,1.0,1.0,1.0,370.4315568320453,4.0,1.0,phase_1,,,,,,,,,,,,,white,flipped triangle
411.0,8.0,4.0,1.0,3.0,3.0,440.2795578353107,4.0,1.0,phase_1,,,,,,,,,,,,,orange,I
71.0,1.0,1.0,0.0,2.0,2.0,443.3663389645517,4.0,1.0,phase_1,,,,,,,,,,,,,blue,circle
424.0,4.0,4.0,0.0,4.0,4.0,387.4653959646821,4.0,1.0,phase_1,,,,,,,,,,,,,magenta,diamond
116.0,2.0,2.0,0.0,3.0,3.0,436.7479761131108,4.0,1.0,phase_1,,,,,,,,,,,,,cyan,cross
193.0,3.0,3.0,0.0,4.0,4.0,523.1577861122787,4.0,1.0,phase_1,,,,,,,,,,,,,yellow,triangle
0.0,7.0,0.0,1.0,3.0,3.0,432.4268370401114,4.0,1.0,phase_1,,,,,,,,,,,,,white,flipped triangle
79.0,2.0,2.0,0.0,4.0,4.0,418.6227228492498,4.0,1.0,phase_1,,,,,,,,,,,,,cyan,cross
0.0,1.0,0.0,0.0,1.0,1.0,368.8490339554846,4.0,1.0,phase_1,,,,,,,,,,,,,blue,circle
183.0,7.0,3.0,1.0,3.0,3.0,348.6510070506483,4.0,1.0,phase_1,,,,,,,,,,,,,white,flipped triangle
0.0,1.0,0.0,0.0,2.0,2.0,408.6517558898777,4.0,1.0,phase_1,,,,,,,,,,,,,blue,circle
66.0,1.0,1.0,0.0,4.0,4.0,687.1604369953275,4.0,1.0,phase_1,,,,,,,,,,,,,blue,circle
79.0,6.0,2.0,1.0,2.0,2.0,355.9082148130983,4.0,1.0,phase_1,,,,,,,,,,,,,green,hexagon
96.0,6.0,2.0,1.0,3.0,3.0,334.8879190161824,4.0,1.0,phase_1,,,,,,,,,,,,,green,hexagon
110.0,6.0,2.0,1.0,2.0,2.0,349.0886408835649,4.0,1.0,phase_1,,,,,,,,,,,,,green,hexagon
123.0,6.0,2.0,1.0,4.0,4.0,408.7418429553509,4.0,1.0,phase_1,,,,,,,,,,,,,green,hexagon
186.0,3.0,3.0,0.0,4.0,4.0,431.5067559946328,4.0,1.0,phase_1,,,,,,,,,,,,,yellow,triangle
198.0,3.0,3.0,0.0,1.0,1.0,362.4166001100093,4.0,1.0,phase_1,,,,,,,,,,,,,yellow,triangle
218.0,7.0,3.0,1.0,1.0,1.0,367.0365358702838,4.0,1.0,phase_1,,,,,,,,,,,,,white,flipped triangle
395.0,4.0,4.0,0.0,4.0,4.0,395.6298348493874,4.0,1.0,phase_1,,,,,,,,,,,,,magenta,diamond
0.0,2.0,0.0,0.0,2.0,2.0,416.1685700528323,4.0,1.0,phase_1,,,,,,,,,,,,,cyan,cross
105.0,6.0,2.0,1.0,2.0,2.0,366.4490669034421,4.0,1.0,phase_1,,,,,,,,,,,,,green,hexagon
421.0,8.0,4.0,1.0,4.0,4.0,353.4799870103597,4.0,1.0,phase_1,,,,,,,,,,,,,orange,I
77.0,2.0,2.0,0.0,3.0,3.0,565.4377660248429,4.0,1.0,phase_1,,,,,,,,,,,,,cyan,cross
0.0,2.0,0.0,0.0,1.0,1.0,477.9238807968795,4.0,1.0,phase_1,,,,,,,,,,,,,cyan,cross
63.0,5.0,1.0,1.0,2.0,2.0,336.6734338924289,4.0,1.0,phase_1,,,,,,,,,,,,,gray,square
406.0,4.0,4.0,0.0,4.0,4.0,371.8453790061176,4.0,1.0,phase_1,,,,,,,,,,,,,magenta,diamond
211.0,3.0,3.0,0.0,1.0,1.0,337.4727461487055,4.0,1.0,phase_1,,,,,,,,,,,,,yellow,triangle
53.0,5.0,1.0,1.0,3.0,3.0,397.5790070835501,4.0,1.0,phase_1,,,,,,,,,,,,,gray,square
100.0,6.0,2.0,1.0,3.0,3.0,370.2350340317935,4.0,1.0,phase_1,,,,,,,,,,,,,green,hexagon
417.0,8.0,4.0,1.0,3.0,3.0,477.9656410682946,4.0,1.0,phase_1,,,,,,,,,,,,,orange,I
396.0,4.0,4.0,0.0,1.0,1.0,394.6431609801948,4.0,1.0,phase_1,,,,,,,,,,,,,magenta,diamond
85.0,2.0,2.0,0.0,3.0,3.0,403.6005169618875,4.0,1.0,phase_1,,,,,,,,,,,,,cyan,cross
0.0,3.0,0.0,0.0,2.0,2.0,363.7679379899055,4.0,1.0,phase_1,,,,,,,,,,,,,yellow,triangle
0.0,2.0,0.0,0.0,3.0,3.0,410.3055268060416,4.0,1.0,phase_1,,,,,,,,,,,,,cyan,cross
199.0,3.0,3.0,0.0,3.0,3.0,485.9510420355946,4.0,1.0,phase_1,,,,,,,,,,,,,yellow,triangle
112.0,6.0,2.0,1.0,1.0,1.0,426.0176829993725,4.0,1.0,phase_1,,,,,,,,,,,,,green,hexagon
0.0,3.0,0.0,0.0,3.0,3.0,359.8591890186071,4.0,1.0,phase_1,,,,,,,,,,,,,yellow,triangle
81.0,2.0,2.0,0.0,4.0,4.0,403.9568789303303,4.0,1.0,phase_1,,,,,,,,,,,,,cyan,cross
123.0,2.0,2.0,0.0,1.0,1.0,368.361780885607,4.0,1.0,phase_1,,,,,,,,,,,,,cyan,cross
223.0,7.0,3.0,1.0,4.0,4.0,413.3031070232391,4.0,1.0,phase_1,,,,,,,,,,,,,white,flipped triangle
417.0,4.0,4.0,0.0,3.0,3.0,428.5667261574417,4.0,1.0,phase_1,,,,,,,,,,,,,magenta,diamond
39.0,1.0,1.0,0.0,2.0,2.0,294.6062020491808,4.0,1.0,phase_1,,,,,,,,,,,,,blue,circle
65.0,1.0,1.0,0.0,4.0,4.0,347.8306988254189,4.0,1.0,phase_1,,,,,,,,,,,,,blue,circle
0.0,5.0,0.0,1.0,1.0,1.0,376.1158720590174,4.0,1.0,phase_1,,,,,,,,,,,,,gray,square
424.0,8.0,4.0,1.0,1.0,1.0,389.2630920745432,4.0,1.0,phase_1,,,,,,,,,,,,,orange,I
72.0,5.0,1.0,1.0,4.0,4.0,410.299729090184,4.0,1.0,phase_1,,,,,,,,,,,,,gray,square
376.0,8.0,4.0,1.0,3.0,3.0,520.2307212166488,4.0,1.0,phase_1,,,,,,,,,,,,,orange,I
395.0,4.0,4.0,0.0,1.0,1.0,388.2997911423445,4.0,1.0,phase_1,,,,,,,,,,,,,magenta,diamond
190.0,3.0,3.0,0.0,3.0,3.0,472.1198780462146,4.0,1.0,phase_1,,,,,,,,,,,,,yellow,triangle
203.0,3.0,3.0,0.0,4.0,4.0,350.3705889452249,4.0,1.0,phase_1,,,,,,,,,,,,,yellow,triangle
81.0,6.0,2.0,1.0,1.0,1.0,320.5501788761467,4.0,1.0,phase_1,,,,,,,,,,,,,green,hexagon
390.0,8.0,4.0,1.0,1.0,1.0,361.1057749949395,4.0,1.0,phase_1,,,,,,,,,,,,,orange,I
211.0,7.0,3.0,1.0,4.0,4.0,381.2006860971451,4.0,1.0,phase_1,,,,,,,,,,,,,white,flipped triangle
208.0,7.0,3.0,1.0,1.0,1.0,369.8589929845184,4.0,1.0,phase_1,,,,,,,,,,,,,white,flipped triangle
120.0,2.0,2.0,0.0,4.0,4.0,300.1547080930322,4.0,1.0,phase_1,,,,,,,,,,,,,cyan,cross
0.0,7.0,0.0,1.0,1.0,1.0,376.5501880552619,4.0,1.0,phase_1,,,,,,,,,,,,,white,flipped triangle
0.0,4.0,0.0,0.0,3.0,3.0,469.3383909761905,4.0,1.0,phase_1,,,,,,,,,,,,,magenta,diamond
410.0,8.0,4.0,1.0,2.0,2.0,306.4926560036838,4.0,1.0,phase_1,,,,,,,,,,,,,orange,I
72.0,5.0,1.0,1.0,3.0,3.0,422.3991918843239,4.0,1.0,phase_1,,,,,,,,,,,,,gray,square
71.0,5.0,1.0,1.0,3.0,3.0,485.564918955788,4.0,1.0,phase_1,,,,,,,,,,,,,gray,square
203.0,7.0,3.0,1.0,2.0,2.0,336.3488488830626,4.0,1.0,phase_1,,,,,,,,,,,,,white,flipped triangle
104.0,6.0,2.0,1.0,3.0,3.0,341.1830868571996,4.0,1.0,phase_1,,,,,,,,,,,,,green,hexagon
0.0,3.0,3.0,0.0,5.0,5.0,489.0811929944902,1.0,1.0,phase_2,go,250.0,250.0,1.0,,,,,,,,,yellow,triangle
0.0,1.0,1.0,0.0,6.0,6.0,546.26908688806,1.0,1.0,phase_2,go,250.0,250.0,1.0,,,,,,,,,blue,circle
0.0,1.0,1.0,0.0,5.0,5.0,554.6350749209523,1.0,1.0,phase_2,go,250.0,250.0,1.0,,,,,,,,,blue,circle
0.0,3.0,3.0,0.0,6.0,6.0,520.8061710000038,1.0,1.0,phase_2,go,250.0,250.0,1.0,,,,,,,,,yellow,triangle
0.0,3.0,3.0,0.0,5.0,5.0,593.122879974544,1.0,1.0,phase_2,go,250.0,250.0,1.0,,,,,,,,,yellow,triangle
0.0,5.0,1.0,1.0,5.0,5.0,511.1713691148907,1.0,1.0,phase_2,stop,250.0,250.0,3.0,,,,,,,,,gray,square
0.0,4.0,4.0,0.0,6.0,6.0,365.5402860604226,1.0,1.0,phase_2,go,200.0,250.0,1.0,,,,,,,,,magenta,diamond
0.0,2.0,2.0,0.0,6.0,6.0,718.7283090315759,1.0,1.0,phase_2,go,200.0,250.0,1.0,,,,,,,,,cyan,cross
0.0,2.0,2.0,0.0,6.0,6.0,900.0689180102199,1.0,1.0,phase_2,go,200.0,250.0,1.0,,,,,,,,,cyan,cross
0.0,1.0,1.0,0.0,5.0,5.0,747.517405077815,1.0,1.0,phase_2,go,200.0,250.0,1.0,,,,,,,,,blue,circle
0.0,2.0,2.0,0.0,5.0,5.0,1028.6295919213444,1.0,1.0,phase_2,go,200.0,250.0,1.0,,,,,,,,,cyan,cross
0.0,8.0,4.0,1.0,5.0,0.0,0.0,1.0,1.0,phase_2,stop,200.0,250.0,4.0,,,,,,,,,orange,I
0.0,8.0,4.0,1.0,6.0,6.0,674.0391571074724,1.0,1.0,phase_2,go,250.0,250.0,1.0,,,,,,,,,orange,I
0.0,5.0,1.0,1.0,5.0,0.0,0.0,1.0,1.0,phase_2,stop,250.0,250.0,4.0,,,,,,,,,gray,square
0.0,1.0,1.0,0.0,5.0,5.0,721.0618231911212,1.0,1.0,phase_2,go,300.0,250.0,1.0,,,,,,,,,blue,circle
0.0,8.0,4.0,1.0,6.0,0.0,0.0,1.0,1.0,phase_2,stop,300.0,250.0,4.0,,,,,,,,,orange,I
0.0,1.0,1.0,0.0,6.0,6.0,854.9537060316652,1.0,1.0,phase_2,go,300.0,300.0,1.0,,,,,,,,,blue,circle
0.0,1.0,1.0,0.0,6.0,6.0,922.2597680054604,1.0,1.0,phase_2,go,300.0,300.0,1.0,,,,,,,,,blue,circle
0.0,3.0,3.0,0.0,6.0,6.0,697.613192955032,1.0,1.0,phase_2,go,300.0,300.0,1.0,,,,,,,,,yellow,triangle
0.0,8.0,4.0,1.0,5.0,0.0,0.0,1.0,1.0,phase_2,stop,300.0,300.0,4.0,,,,,,,,,orange,I
0.0,5.0,1.0,1.0,5.0,0.0,0.0,1.0,1.0,phase_2,stop,350.0,300.0,4.0,,,,,,,,,gray,square
0.0,6.0,2.0,1.0,6.0,0.0,0.0,1.0,1.0,phase_2,stop,400.0,300.0,4.0,,,,,,,,,green,hexagon
0.0,2.0,2.0,0.0,5.0,5.0,662.4409751966596,1.0,1.0,phase_2,go,400.0,350.0,1.0,,,,,,,,,cyan,cross
0.0,3.0,3.0,0.0,5.0,5.0,740.7684291247278,1.0,1.0,phase_2,go,400.0,350.0,1.0,,,,,,,,,yellow,triangle
0.0,8.0,4.0,1.0,5.0,5.0,843.2196960784495,1.0,1.0,phase_2,go,400.0,350.0,1.0,,,,,,,,,orange,I
0.0,2.0,2.0,0.0,5.0,5.0,829.5572828501463,1.0,1.0,phase_2,go,400.0,350.0,1.0,,,,,,,,,cyan,cross
0.0,8.0,4.0,1.0,6.0,0.0,0.0,1.0,1.0,phase_2,stop,400.0,350.0,4.0,,,,,,,,,orange,I
0.0,5.0,1.0,1.0,6.0,0.0,0.0,1.0,1.0,phase_2,stop,400.0,400.0,4.0,,,,,,,,,gray,square
0.0,3.0,3.0,0.0,5.0,5.0,745.6743731163442,1.0,1.0,phase_2,go,400.0,450.0,1.0,,,,,,,,,yellow,triangle
0.0,6.0,2.0,1.0,5.0,0.0,0.0,1.0,1.0,phase_2,stop,400.0,450.0,4.0,,,,,,,,,green,hexagon
0.0,4.0,4.0,0.0,5.0,5.0,833.6935171391815,1.0,1.0,phase_2,go,450.0,450.0,1.0,,,,,,,,,magenta,diamond
0.0,7.0,3.0,1.0,6.0,0.0,0.0,1.0,1.0,phase_2,stop,450.0,450.0,4.0,,,,,,,,,white,flipped triangle
0.0,8.0,4.0,1.0,6.0,6.0,807.0123118814081,1.0,1.0,phase_2,go,450.0,500.0,1.0,,,,,,,,,orange,I
0.0,8.0,4.0,1.0,6.0,0.0,0.0,1.0,1.0,phase_2,stop,450.0,500.0,4.0,,,,,,,,,orange,I
0.0,6.0,2.0,1.0,5.0,0.0,0.0,1.0,1.0,phase_2,stop,450.0,550.0,4.0,,,,,,,,,green,hexagon
0.0,7.0,3.0,1.0,6.0,0.0,0.0,1.0,1.0,phase_2,stop,500.0,550.0,4.0,,,,,,,,,white,flipped triangle
0.0,1.0,1.0,0.0,6.0,0.0,0.0,2.0,1.0,phase_2,go,500.0,600.0,5.0,,,,,,,,,blue,circle
0.0,3.0,3.0,0.0,5.0,0.0,0.0,2.0,1.0,phase_2,go,500.0,600.0,5.0,,,,,,,,,yellow,triangle
0.0,5.0,1.0,1.0,6.0,0.0,0.0,2.0,1.0,phase_2,stop,500.0,600.0,4.0,,,,,,,,,gray,square
0.0,4.0,4.0,0.0,5.0,0.0,0.0,2.0,1.0,phase_2,go,500.0,650.0,5.0,,,,,,,,,magenta,diamond
0.0,3.0,3.0,0.0,6.0,0.0,0.0,2.0,1.0,phase_2,go,500.0,650.0,5.0,,,,,,,,,yellow,triangle
0.0,6.0,2.0,1.0,6.0,0.0,0.0,2.0,1.0,phase_2,go,500.0,650.0,5.0,,,,,,,,,green,hexagon
0.0,4.0,4.0,0.0,5.0,0.0,0.0,2.0,1.0,phase_2,go,500.0,650.0,5.0,,,,,,,,,magenta,diamond
0.0,8.0,4.0,1.0,5.0,5.0,482.8074120450765,2.0,1.0,phase_2,stop,500.0,650.0,3.0,,,,,,,,,orange,I
0.0,8.0,4.0,1.0,5.0,5.0,360.0777520332485,2.0,1.0,phase_2,go,450.0,650.0,1.0,,,,,,,,,orange,I
0.0,5.0,1.0,1.0,6.0,6.0,439.2947629094124,2.0,1.0,phase_2,go,450.0,650.0,1.0,,,,,,,,,gray,square
0.0,6.0,2.0,1.0,6.0,6.0,393.8578011002391,2.0,1.0,phase_2,stop,450.0,650.0,3.0,,,,,,,,,green,hexagon
0.0,3.0,3.0,0.0,6.0,6.0,513.7975460384041,2.0,1.0,phase_2,go,450.0,600.0,1.0,,,,,,,,,yellow,triangle
0.0,6.0,2.0,1.0,6.0,6.0,335.6596659868955,2.0,1.0,phase_2,go,450.0,600.0,1.0,,,,,,,,,green,hexagon
0.0,7.0,3.0,1.0,5.0,0.0,0.0,2.0,1.0,phase_2,stop,450.0,600.0,4.0,,,,,,,,,white,flipped triangle
0.0,8.0,4.0,1.0,6.0,0.0,0.0,2.0,1.0,phase_2,stop,500.0,600.0,4.0,,,,,,,,,orange,I
0.0,2.0,2.0,0.0,5.0,5.0,716.1224889568985,2.0,1.0,phase_2,go,500.0,650.0,1.0,,,,,,,,,cyan,cross
0.0,4.0,4.0,0.0,6.0,6.0,451.4795669820159,2.0,1.0,phase_2,go,500.0,650.0,1.0,,,,,,,,,magenta,diamond
0.0,8.0,4.0,1.0,6.0,6.0,446.1759699042886,2.0,1.0,phase_2,go,500.0,650.0,1.0,,,,,,,,,orange,I
0.0,3.0,3.0,0.0,5.0,5.0,452.9762261081487,2.0,1.0,phase_2,go,500.0,650.0,1.0,,,,,,,,,yellow,triangle
0.0,2.0,2.0,0.0,6.0,6.0,316.6288267821073,2.0,1.0,phase_2,go,500.0,650.0,1.0,,,,,,,,,cyan,cross
0.0,6.0,2.0,1.0,6.0,6.0,370.4161760397255,2.0,1.0,phase_2,go,500.0,650.0,1.0,,,,,,,,,green,hexagon
0.0,5.0,1.0,1.0,5.0,5.0,379.2805208358913,2.0,1.0,phase_2,go,500.0,650.0,1.0,,,,,,,,,gray,square
0.0,6.0,2.0,1.0,5.0,5.0,395.5542489420622,2.0,1.0,phase_2,stop,500.0,650.0,3.0,,,,,,,,,green,hexagon
0.0,8.0,4.0,1.0,6.0,6.0,639.78765392676,2.0,1.0,phase_2,stop,450.0,650.0,3.0,,,,,,,,,orange,I
0.0,7.0,3.0,1.0,5.0,5.0,922.891614958644,2.0,1.0,phase_2,go,450.0,600.0,1.0,,,,,,,,,white,flipped triangle
0.0,4.0,4.0,0.0,6.0,6.0,1007.1610549930483,2.0,1.0,phase_2,go,450.0,600.0,1.0,,,,,,,,,magenta,diamond
0.0,7.0,3.0,1.0,5.0,5.0,721.3122569955885,2.0,1.0,phase_2,go,450.0,600.0,1.0,,,,,,,,,white,flipped triangle
0.0,6.0,2.0,1.0,6.0,6.0,758.0480759497732,2.0,1.0,phase_2,go,450.0,600.0,1.0,,,,,,,,,green,hexagon
0.0,3.0,3.0,0.0,5.0,5.0,624.1232429165393,2.0,1.0,phase_2,go,450.0,600.0,1.0,,,,,,,,,yellow,triangle
0.0,7.0,3.0,1.0,5.0,5.0,830.0643542315811,2.0,1.0,phase_2,go,450.0,600.0,1.0,,,,,,,,,white,flipped triangle
0.0,8.0,4.0,1.0,6.0,0.0,0.0,2.0,1.0,phase_2,stop,450.0,600.0,4.0,,,,,,,,,orange,I
0.0,5.0,1.0,1.0,6.0,0.0,0.0,2.0,1.0,phase_2,stop,450.0,650.0,4.0,,,,,,,,,gray,square
0.0,2.0,2.0,0.0,5.0,5.0,746.6281079687178,2.0,1.0,phase_2,go,450.0,700.0,1.0,,,,,,,,,cyan,cross
0.0,3.0,3.0,0.0,5.0,5.0,782.254041871056,2.0,1.0,phase_2,go,450.0,700.0,1.0,,,,,,,,,yellow,triangle
0.0,3.0,3.0,0.0,5.0,5.0,781.8655790761113,2.0,1.0,phase_2,go,450.0,700.0,1.0,,,,,,,,,yellow,triangle
0.0,3.0,3.0,0.0,6.0,6.0,851.1076960712671,2.0,1.0,phase_2,go,450.0,700.0,1.0,,,,,,,,,yellow,triangle
0.0,7.0,3.0,1.0,5.0,5.0,420.7555809989571,3.0,1.0,phase_2,stop,450.0,700.0,3.0,,,,,,,,,white,flipped triangle
0.0,7.0,3.0,1.0,6.0,6.0,697.8368868585676,3.0,1.0,phase_2,stop,400.0,700.0,3.0,,,,,,,,,white,flipped triangle
0.0,7.0,3.0,1.0,5.0,0.0,0.0,3.0,1.0,phase_2,stop,400.0,650.0,4.0,,,,,,,,,white,flipped triangle
0.0,5.0,1.0,1.0,5.0,5.0,714.7732339799404,3.0,1.0,phase_2,go,450.0,650.0,1.0,,,,,,,,,gray,square
0.0,7.0,3.0,1.0,5.0,0.0,0.0,3.0,1.0,phase_2,stop,450.0,650.0,4.0,,,,,,,,,white,flipped triangle
0.0,8.0,4.0,1.0,5.0,5.0,763.7479279655963,3.0,1.0,phase_2,go,500.0,650.0,1.0,,,,,,,,,orange,I
0.0,8.0,4.0,1.0,6.0,6.0,759.6342579927295,3.0,1.0,phase_2,stop,500.0,650.0,3.0,,,,,,,,,orange,I
0.0,8.0,4.0,1.0,6.0,0.0,0.0,3.0,1.0,phase_2,stop,500.0,600.0,4.0,,,,,,,,,orange,I
0.0,4.0,4.0,0.0,6.0,6.0,870.3250109683722,3.0,1.0,phase_2,go,500.0,650.0,1.0,,,,,,,,,magenta,diamond
0.0,5.0,1.0,1.0,5.0,0.0,0.0,3.0,1.0,phase_2,stop,500.0,650.0,4.0,,,,,,,,,gray,square
0.0,7.0,3.0,1.0,6.0,0.0,0.0,3.0,1.0,phase_2,stop,550.0,650.0,4.0,,,,,,,,,white,flipped triangle
0.0,7.0,3.0,1.0,5.0,0.0,0.0,3.0,1.0,phase_2,stop,550.0,700.0,4.0,,,,,,,,,white,flipped triangle
0.0,4.0,4.0,0.0,6.0,0.0,0.0,3.0,1.0,phase_2,go,600.0,700.0,5.0,,,,,,,,,magenta,diamond
0.0,6.0,2.0,1.0,5.0,0.0,0.0,3.0,1.0,phase_2,stop,600.0,700.0,4.0,,,,,,,,,green,hexagon
0.0,1.0,1.0,0.0,6.0,6.0,708.838993916288,3.0,1.0,phase_2,go,650.0,700.0,1.0,,,,,,,,,blue,circle
0.0,4.0,4.0,0.0,6.0,6.0,805.4674540180713,3.0,1.0,phase_2,go,650.0,700.0,1.0,,,,,,,,,magenta,diamond
0.0,7.0,3.0,1.0,6.0,0.0,0.0,3.0,1.0,phase_2,stop,650.0,700.0,4.0,,,,,,,,,white,flipped triangle
0.0,7.0,3.0,1.0,5.0,0.0,0.0,3.0,1.0,phase_2,stop,650.0,750.0,4.0,,,,,,,,,white,flipped triangle
0.0,4.0,4.0,0.0,6.0,6.0,928.8952429778874,3.0,1.0,phase_2,go,700.0,750.0,1.0,,,,,,,,,magenta,diamond
0.0,6.0,2.0,1.0,6.0,0.0,0.0,3.0,1.0,phase_2,stop,700.0,750.0,4.0,,,,,,,,,green,hexagon
0.0,2.0,2.0,0.0,6.0,6.0,937.223365996033,3.0,1.0,phase_2,go,700.0,800.0,1.0,,,,,,,,,cyan,cross
0.0,5.0,1.0,1.0,5.0,5.0,911.0936119686812,3.0,1.0,phase_2,go,700.0,800.0,1.0,,,,,,,,,gray,square
0.0,5.0,1.0,1.0,5.0,0.0,0.0,3.0,1.0,phase_2,stop,700.0,800.0,4.0,,,,,,,,,gray,square
0.0,8.0,4.0,1.0,5.0,0.0,0.0,3.0,1.0,phase_2,stop,750.0,800.0,4.0,,,,,,,,,orange,I
0.0,6.0,2.0,1.0,6.0,6.0,881.0088629834354,3.0,1.0,phase_2,go,800.0,800.0,1.0,,,,,,,,,green,hexagon
0.0,4.0,4.0,0.0,5.0,5.0,1006.9696770515293,3.0,1.0,phase_2,go,800.0,800.0,1.0,,,,,,,,,magenta,diamond
0.0,6.0,2.0,1.0,5.0,0.0,0.0,3.0,1.0,phase_2,stop,800.0,800.0,4.0,,,,,,,,,green,hexagon
0.0,1.0,1.0,0.0,6.0,6.0,862.0283219497651,3.0,1.0,phase_2,go,850.0,800.0,1.0,,,,,,,,,blue,circle
0.0,7.0,3.0,1.0,6.0,6.0,958.6095630656928,3.0,1.0,phase_2,go,850.0,800.0,1.0,,,,,,,,,white,flipped triangle
0.0,5.0,1.0,1.0,6.0,0.0,0.0,3.0,1.0,phase_2,stop,850.0,800.0,4.0,,,,,,,,,gray,square
0.0,3.0,3.0,0.0,5.0,5.0,978.0721738934516,3.0,1.0,phase_2,go,850.0,850.0,1.0,,,,,,,,,yellow,triangle
0.0,7.0,3.0,1.0,5.0,0.0,0.0,3.0,1.0,phase_2,stop,850.0,850.0,4.0,,,,,,,,,white,flipped triangle
0.0,8.0,4.0,1.0,5.0,0.0,0.0,3.0,1.0,phase_2,stop,900.0,850.0,4.0,,,,,,,,,orange,I
0.0,1.0,1.0,0.0,5.0,5.0,931.9712300784886,3.0,1.0,phase_2,go,950.0,850.0,1.0,,,,,,,,,blue,circle
0.0,7.0,3.0,1.0,5.0,0.0,0.0,3.0,1.0,phase_2,go,950.0,850.0,5.0,,,,,,,,,white,flipped triangle
0.0,2.0,2.0,0.0,5.0,5.0,1251.8900239374489,3.0,1.0,phase_2,go,950.0,850.0,1.0,,,,,,,,,cyan,cross
0.0,1.0,1.0,0.0,6.0,6.0,403.7419338710606,4.0,1.0,phase_2,go,950.0,850.0,1.0,,,,,,,,,blue,circle
0.0,6.0,2.0,1.0,6.0,6.0,681.850504130125,4.0,1.0,phase_2,go,950.0,850.0,1.0,,,,,,,,,green,hexagon
0.0,7.0,3.0,1.0,5.0,5.0,600.2050351817161,4.0,1.0,phase_2,stop,950.0,850.0,3.0,,,,,,,,,white,flipped triangle
0.0,2.0,2.0,0.0,6.0,6.0,415.4321241658181,4.0,1.0,phase_2,go,900.0,850.0,1.0,,,,,,,,,cyan,cross
0.0,6.0,2.0,1.0,5.0,5.0,745.2372610569,4.0,1.0,phase_2,go,900.0,850.0,1.0,,,,,,,,,green,hexagon
0.0,7.0,3.0,1.0,5.0,5.0,648.5555849503726,4.0,1.0,phase_2,go,900.0,850.0,1.0,,,,,,,,,white,flipped triangle
0.0,7.0,3.0,1.0,6.0,6.0,381.7494518589228,4.0,1.0,phase_2,stop,900.0,850.0,3.0,,,,,,,,,white,flipped triangle
0.0,7.0,3.0,1.0,6.0,6.0,671.3470108807087,4.0,1.0,phase_2,stop,900.0,800.0,3.0,,,,,,,,,white,flipped triangle
0.0,6.0,2.0,1.0,5.0,5.0,319.9668729212135,4.0,1.0,phase_2,stop,900.0,750.0,3.0,,,,,,,,,green,hexagon
0.0,1.0,1.0,0.0,6.0,6.0,734.726038062945,4.0,1.0,phase_2,go,850.0,750.0,1.0,,,,,,,,,blue,circle
0.0,2.0,2.0,0.0,5.0,5.0,663.6335600633174,4.0,1.0,phase_2,go,850.0,750.0,1.0,,,,,,,,,cyan,cross
0.0,5.0,1.0,1.0,6.0,6.0,638.3736031129956,4.0,1.0,phase_2,go,850.0,750.0,1.0,,,,,,,,,gray,square
0.0,2.0,2.0,0.0,5.0,5.0,516.2091781385243,4.0,1.0,phase_2,go,850.0,750.0,1.0,,,,,,,,,cyan,cross
0.0,6.0,2.0,1.0,6.0,6.0,781.5210870467126,4.0,1.0,phase_2,stop,850.0,750.0,3.0,,,,,,,,,green,hexagon
0.0,8.0,4.0,1.0,5.0,5.0,883.3850210066885,4.0,1.0,phase_2,stop,850.0,700.0,3.0,,,,,,,,,orange,I
0.0,7.0,3.0,1.0,6.0,6.0,795.8233249373734,4.0,1.0,phase_2,go,800.0,700.0,1.0,,,,,,,,,white,flipped triangle
0.0,5.0,1.0,1.0,6.0,6.0,767.8352021612227,4.0,1.0,phase_2,stop,800.0,700.0,3.0,,,,,,,,,gray,square
0.0,3.0,3.0,0.0,6.0,6.0,911.6776739247144,4.0,1.0,phase_2,go,800.0,650.0,1.0,,,,,,,,,yellow,triangle
0.0,2.0,2.0,0.0,5.0,5.0,344.0893481019884,4.0,1.0,phase_2,go,800.0,650.0,1.0,,,,,,,,,cyan,cross
0.0,3.0,3.0,0.0,5.0,5.0,662.3833319172263,4.0,1.0,phase_2,go,800.0,650.0,1.0,,,,,,,,,yellow,triangle
0.0,8.0,4.0,1.0,5.0,5.0,856.9045930635184,4.0,1.0,phase_2,stop,800.0,650.0,3.0,,,,,,,,,orange,I
0.0,1.0,1.0,0.0,6.0,6.0,679.694872815162,4.0,1.0,phase_2,go,750.0,650.0,1.0,,,,,,,,,blue,circle
0.0,1.0,1.0,0.0,5.0,5.0,760.8514882158488,4.0,1.0,phase_2,go,750.0,650.0,1.0,,,,,,,,,blue,circle
0.0,5.0,1.0,1.0,5.0,5.0,860.0667410064489,4.0,1.0,phase_2,stop,750.0,650.0,3.0,,,,,,,,,gray,square
0.0,1.0,1.0,0.0,5.0,5.0,964.348342968151,4.0,1.0,phase_2,go,700.0,650.0,1.0,,,,,,,,,blue,circle
0.0,8.0,4.0,1.0,5.0,5.0,1117.938640061766,4.0,1.0,phase_2,go,700.0,650.0,1.0,,,,,,,,,orange,I
0.0,6.0,2.0,1.0,5.0,5.0,804.6347480267286,4.0,1.0,phase_2,stop,700.0,650.0,3.0,,,,,,,,,green,hexagon
0.0,1.0,1.0,0.0,5.0,5.0,796.1679340805858,4.0,1.0,phase_2,go,650.0,650.0,1.0,,,,,,,,,blue,circle
0.0,2.0,2.0,0.0,6.0,6.0,1132.7211000025272,4.0,1.0,phase_2,go,650.0,650.0,1.0,,,,,,,,,cyan,cross
0.0,2.0,2.0,0.0,6.0,6.0,881.5041049383581,4.0,1.0,phase_2,go,650.0,650.0,1.0,,,,,,,,,cyan,cross
0.0,4.0,4.0,0.0,5.0,5.0,804.2272489983588,4.0,1.0,phase_2,go,650.0,650.0,1.0,,,,,,,,,magenta,diamond
0.0,6.0,2.0,1.0,6.0,0.0,0.0,4.0,1.0,phase_2,stop,650.0,650.0,4.0,,,,,,,,,green,hexagon
0.0,3.0,3.0,0.0,6.0,6.0,1097.6942158304157,4.0,1.0,phase_2,go,650.0,700.0,1.0,,,,,,,,,yellow,triangle
0.0,2.0,2.0,0.0,6.0,6.0,1150.8747020270675,4.0,1.0,phase_2,go,650.0,700.0,1.0,,,,,,,,,cyan,cross
0.0,6.0,2.0,1.0,5.0,5.0,977.7094651944936,4.0,1.0,phase_2,go,650.0,700.0,1.0,,,,,,,,,green,hexagon
0.0,5.0,1.0,1.0,6.0,0.0,0.0,4.0,1.0,phase_2,stop,650.0,700.0,4.0,,,,,,,,,gray,square
0.0,8.0,4.0,1.0,5.0,5.0,475.3372559789568,5.0,1.0,phase_2,stop,650.0,750.0,3.0,,,,,,,,,orange,I
0.0,5.0,1.0,1.0,6.0,6.0,298.7783618737012,5.0,1.0,phase_2,stop,600.0,750.0,3.0,,,,,,,,,gray,square
0.0,2.0,2.0,0.0,6.0,6.0,348.3960030134767,5.0,1.0,phase_2,go,600.0,700.0,1.0,,,,,,,,,cyan,cross
0.0,2.0,2.0,0.0,5.0,5.0,317.6618150901049,5.0,1.0,phase_2,go,600.0,700.0,1.0,,,,,,,,,cyan,cross
0.0,8.0,4.0,1.0,5.0,5.0,337.2082968708128,5.0,1.0,phase_2,stop,600.0,700.0,3.0,,,,,,,,,orange,I
0.0,4.0,4.0,0.0,5.0,5.0,315.5839839018881,5.0,1.0,phase_2,go,550.0,700.0,1.0,,,,,,,,,magenta,diamond
0.0,8.0,4.0,1.0,5.0,5.0,275.4984649363905,5.0,1.0,phase_2,stop,550.0,700.0,3.0,,,,,,,,,orange,I
0.0,3.0,3.0,0.0,6.0,6.0,328.195211943239,5.0,1.0,phase_2,go,500.0,700.0,1.0,,,,,,,,,yellow,triangle
0.0,5.0,1.0,1.0,5.0,5.0,391.8038089759648,5.0,1.0,phase_2,stop,500.0,700.0,3.0,,,,,,,,,gray,square
0.0,5.0,1.0,1.0,5.0,5.0,288.1313860416412,5.0,1.0,phase_2,stop,450.0,700.0,3.0,,,,,,,,,gray,square
0.0,4.0,4.0,0.0,5.0,5.0,368.2413219939917,5.0,1.0,phase_2,go,400.0,700.0,1.0,,,,,,,,,magenta,diamond
0.0,4.0,4.0,0.0,5.0,5.0,312.5997639726847,5.0,1.0,phase_2,go,400.0,700.0,1.0,,,,,,,,,magenta,diamond
0.0,4.0,4.0,0.0,5.0,5.0,303.0242889653891,5.0,1.0,phase_2,go,400.0,700.0,1.0,,,,,,,,,magenta,diamond
0.0,5.0,1.0,1.0,5.0,5.0,295.0337079819292,5.0,1.0,phase_2,stop,400.0,700.0,3.0,,,,,,,,,gray,square
0.0,5.0,1.0,1.0,5.0,5.0,662.9658029414713,5.0,1.0,phase_2,stop,350.0,700.0,3.0,,,,,,,,,gray,square
0.0,2.0,2.0,0.0,6.0,6.0,607.1259730961174,5.0,1.0,phase_2,go,300.0,700.0,1.0,,,,,,,,,cyan,cross
0.0,3.0,3.0,0.0,6.0,6.0,357.5895009562373,5.0,1.0,phase_2,go,300.0,700.0,1.0,,,,,,,,,yellow,triangle
0.0,6.0,2.0,1.0,6.0,6.0,274.3785181082785,5.0,1.0,phase_2,stop,300.0,700.0,3.0,,,,,,,,,green,hexagon
0.0,2.0,2.0,0.0,6.0,6.0,652.6652900502086,5.0,1.0,phase_2,go,300.0,650.0,1.0,,,,,,,,,cyan,cross
0.0,8.0,4.0,1.0,5.0,0.0,0.0,5.0,1.0,phase_2,stop,300.0,650.0,4.0,,,,,,,,,orange,I
0.0,6.0,2.0,1.0,5.0,5.0,681.9841039832681,5.0,1.0,phase_2,go,350.0,650.0,1.0,,,,,,,,,green,hexagon
0.0,6.0,2.0,1.0,6.0,6.0,378.1719419639557,5.0,1.0,phase_2,stop,350.0,650.0,3.0,,,,,,,,,green,hexagon
0.0,1.0,1.0,0.0,6.0,6.0,583.3144229836762,5.0,1.0,phase_2,go,350.0,600.0,1.0,,,,,,,,,blue,circle
0.0,6.0,2.0,1.0,6.0,0.0,0.0,5.0,1.0,phase_2,stop,350.0,600.0,4.0,,,,,,,,,green,hexagon
0.0,7.0,3.0,1.0,6.0,6.0,791.756636928767,5.0,1.0,phase_2,stop,350.0,650.0,3.0,,,,,,,,,white,flipped triangle
0.0,4.0,4.0,0.0,6.0,6.0,629.8731369897723,5.0,1.0,phase_2,go,350.0,600.0,1.0,,,,,,,,,magenta,diamond
0.0,3.0,3.0,0.0,6.0,6.0,775.5266400054097,5.0,1.0,phase_2,go,350.0,600.0,1.0,,,,,,,,,yellow,triangle
0.0,3.0,3.0,0.0,5.0,5.0,366.0179821308702,5.0,1.0,phase_2,go,350.0,600.0,1.0,,,,,,,,,yellow,triangle
0.0,5.0,1.0,1.0,5.0,0.0,0.0,5.0,1.0,phase_2,stop,350.0,600.0,4.0,,,,,,,,,gray,square
0.0,3.0,3.0,0.0,5.0,5.0,747.4780811462551,5.0,1.0,phase_2,go,400.0,600.0,1.0,,,,,,,,,yellow,triangle
0.0,5.0,1.0,1.0,6.0,0.0,0.0,5.0,1.0,phase_2,stop,400.0,600.0,4.0,,,,,,,,,gray,square
0.0,8.0,4.0,1.0,6.0,6.0,734.550807857886,5.0,1.0,phase_2,go,400.0,650.0,1.0,,,,,,,,,orange,I
0.0,5.0,1.0,1.0,5.0,5.0,421.0267059970647,5.0,1.0,phase_2,stop,400.0,650.0,3.0,,,,,,,,,gray,square
0.0,1.0,1.0,0.0,6.0,6.0,333.1685359589755,5.0,1.0,phase_2,go,350.0,650.0,1.0,,,,,,,,,blue,circle
0.0,1.0,1.0,0.0,6.0,6.0,827.5707489810884,5.0,1.0,phase_2,go,350.0,650.0,1.0,,,,,,,,,blue,circle
0.0,2.0,2.0,0.0,5.0,5.0,792.8762950468808,5.0,1.0,phase_2,go,350.0,650.0,1.0,,,,,,,,,cyan,cross
0.0,4.0,4.0,0.0,5.0,5.0,697.7692879736423,6.0,1.0,phase_2,go,350.0,650.0,1.0,,,,,,,,,magenta,diamond
0.0,3.0,3.0,0.0,5.0,5.0,361.0718799754977,6.0,1.0,phase_2,go,350.0,650.0,1.0,,,,,,,,,yellow,triangle
0.0,1.0,1.0,0.0,5.0,5.0,325.8258909918368,6.0,1.0,phase_2,go,350.0,650.0,1.0,,,,,,,,,blue,circle
0.0,1.0,1.0,0.0,5.0,5.0,287.8342159092426,6.0,1.0,phase_2,go,350.0,650.0,1.0,,,,,,,,,blue,circle
0.0,6.0,2.0,1.0,5.0,5.0,390.3848310001194,6.0,1.0,phase_2,stop,350.0,650.0,3.0,,,,,,,,,green,hexagon
0.0,1.0,1.0,0.0,6.0,6.0,355.4064719937742,6.0,1.0,phase_2,go,300.0,650.0,1.0,,,,,,,,,blue,circle
0.0,8.0,4.0,1.0,5.0,5.0,293.4943218715489,6.0,1.0,phase_2,stop,300.0,650.0,3.0,,,,,,,,,orange,I
0.0,6.0,2.0,1.0,5.0,0.0,0.0,6.0,1.0,phase_2,stop,250.0,650.0,4.0,,,,,,,,,green,hexagon
0.0,4.0,4.0,0.0,5.0,5.0,634.2765321023762,6.0,1.0,phase_2,go,300.0,650.0,1.0,,,,,,,,,magenta,diamond
0.0,4.0,4.0,0.0,5.0,5.0,593.4156549628824,6.0,1.0,phase_2,go,300.0,650.0,1.0,,,,,,,,,magenta,diamond
0.0,1.0,1.0,0.0,6.0,6.0,361.9054357986897,6.0,1.0,phase_2,go,300.0,650.0,1.0,,,,,,,,,blue,circle
0.0,7.0,3.0,1.0,5.0,5.0,344.2626330070197,6.0,1.0,phase_2,stop,300.0,650.0,3.0,,,,,,,,,white,flipped triangle
0.0,3.0,3.0,0.0,6.0,6.0,377.8931661508977,6.0,1.0,phase_2,go,250.0,650.0,1.0,,,,,,,,,yellow,triangle
0.0,2.0,2.0,0.0,5.0,5.0,346.5667578857392,6.0,1.0,phase_2,go,250.0,650.0,1.0,,,,,,,,,cyan,cross
0.0,6.0,2.0,1.0,5.0,5.0,856.7665840964764,6.0,1.0,phase_2,stop,250.0,650.0,3.0,,,,,,,,,green,hexagon
0.0,3.0,3.0,0.0,6.0,6.0,349.5148448273539,6.0,1.0,phase_2,go,200.0,650.0,1.0,,,,,,,,,yellow,triangle
0.0,5.0,1.0,1.0,6.0,6.0,262.0211141183972,6.0,1.0,phase_2,go,200.0,650.0,1.0,,,,,,,,,gray,square
0.0,1.0,1.0,0.0,5.0,5.0,296.9233579933643,6.0,1.0,phase_2,go,200.0,650.0,1.0,,,,,,,,,blue,circle
0.0,2.0,2.0,0.0,6.0,6.0,292.4558687955141,6.0,1.0,phase_2,go,200.0,650.0,1.0,,,,,,,,,cyan,cross
0.0,1.0,1.0,0.0,5.0,5.0,420.3519918955862,6.0,1.0,phase_2,go,200.0,650.0,1.0,,,,,,,,,blue,circle
0.0,2.0,2.0,0.0,5.0,5.0,684.0358960907906,6.0,1.0,phase_2,go,200.0,650.0,1.0,,,,,,,,,cyan,cross
0.0,5.0,1.0,1.0,6.0,6.0,476.3714801520109,6.0,1.0,phase_2,stop,200.0,650.0,3.0,,,,,,,,,gray,square
0.0,1.0,1.0,0.0,5.0,5.0,301.2602070812136,6.0,1.0,phase_2,go,200.0,600.0,1.0,,,,,,,,,blue,circle
0.0,5.0,1.0,1.0,6.0,6.0,258.6275329813361,6.0,1.0,phase_2,go,200.0,600.0,1.0,,,,,,,,,gray,square
0.0,1.0,1.0,0.0,5.0,5.0,388.3672780357301,6.0,1.0,phase_2,go,200.0,600.0,1.0,,,,,,,,,blue,circle
0.0,4.0,4.0,0.0,6.0,6.0,451.0614378377795,6.0,1.0,phase_2,go,200.0,600.0,1.0,,,,,,,,,magenta,diamond
0.0,4.0,4.0,0.0,5.0,5.0,241.6689000092446,6.0,1.0,phase_2,go,200.0,600.0,1.0,,,,,,,,,magenta,diamond
0.0,3.0,3.0,0.0,5.0,5.0,234.343817923218,6.0,1.0,phase_2,go,200.0,600.0,1.0,,,,,,,,,yellow,triangle
0.0,2.0,2.0,0.0,5.0,5.0,288.8217938598245,6.0,1.0,phase_2,go,200.0,600.0,1.0,,,,,,,,,cyan,cross
0.0,8.0,4.0,1.0,5.0,0.0,0.0,6.0,1.0,phase_2,stop,200.0,600.0,4.0,,,,,,,,,orange,I
0.0,5.0,1.0,1.0,6.0,6.0,325.3949850331992,6.0,1.0,phase_2,stop,250.0,600.0,3.0,,,,,,,,,gray,square
0.0,6.0,2.0,1.0,5.0,0.0,0.0,6.0,1.0,phase_2,stop,250.0,550.0,4.0,,,,,,,,,green,hexagon
0.0,2.0,2.0,0.0,6.0,6.0,349.0208270959556,6.0,1.0,phase_2,go,300.0,550.0,1.0,,,,,,,,,cyan,cross
0.0,6.0,2.0,1.0,6.0,6.0,509.4602128956467,6.0,1.0,phase_2,stop,300.0,550.0,3.0,,,,,,,,,green,hexagon
0.0,8.0,4.0,1.0,6.0,6.0,333.5822899825871,6.0,1.0,phase_2,stop,300.0,500.0,3.0,,,,,,,,,orange,I
0.0,1.0,1.0,0.0,5.0,5.0,274.6149150189012,6.0,1.0,phase_2,go,300.0,450.0,1.0,,,,,,,,,blue,circle
0.0,2.0,2.0,0.0,5.0,5.0,367.8325810469687,7.0,1.0,phase_2,go,300.0,450.0,1.0,,,,,,,,,cyan,cross
0.0,3.0,3.0,0.0,6.0,6.0,308.2465177867561,7.0,1.0,phase_2,go,300.0,450.0,1.0,,,,,,,,,yellow,triangle
0.0,3.0,3.0,0.0,6.0,6.0,660.0458619650453,7.0,1.0,phase_2,go,300.0,450.0,1.0,,,,,,,,,yellow,triangle
0.0,1.0,1.0,0.0,5.0,5.0,342.4642640165984,7.0,1.0,phase_2,go,300.0,450.0,1.0,,,,,,,,,blue,circle
0.0,7.0,3.0,1.0,6.0,6.0,483.3959878887981,7.0,1.0,phase_2,stop,300.0,450.0,3.0,,,,,,,,,white,flipped triangle
0.0,6.0,2.0,1.0,5.0,0.0,0.0,7.0,1.0,phase_2,stop,300.0,400.0,4.0,,,,,,,,,green,hexagon
0.0,4.0,4.0,0.0,6.0,6.0,754.2952350340784,7.0,1.0,phase_2,go,350.0,400.0,1.0,,,,,,,,,magenta,diamond
0.0,3.0,3.0,0.0,5.0,5.0,674.9275340698659,7.0,1.0,phase_2,go,350.0,400.0,1.0,,,,,,,,,yellow,triangle
0.0,4.0,4.0,0.0,5.0,5.0,562.7111548092216,7.0,1.0,phase_2,go,350.0,400.0,1.0,,,,,,,,,magenta,diamond
0.0,4.0,4.0,0.0,5.0,5.0,296.2848818860948,7.0,1.0,phase_2,go,350.0,400.0,1.0,,,,,,,,,magenta,diamond
0.0,7.0,3.0,1.0,6.0,6.0,378.6790620069951,7.0,1.0,phase_2,go,350.0,400.0,1.0,,,,,,,,,white,flipped triangle
0.0,7.0,3.0,1.0,6.0,6.0,295.7517821341753,7.0,1.0,phase_2,stop,350.0,400.0,3.0,,,,,,,,,white,flipped triangle
0.0,8.0,4.0,1.0,6.0,0.0,0.0,7.0,1.0,phase_2,stop,350.0,350.0,4.0,,,,,,,,,orange,I
0.0,4.0,4.0,0.0,6.0,6.0,711.2354871351272,7.0,1.0,phase_2,go,350.0,400.0,1.0,,,,,,,,,magenta,diamond
0.0,7.0,3.0,1.0,5.0,0.0,0.0,7.0,1.0,phase_2,stop,350.0,400.0,4.0,,,,,,,,,white,flipped triangle
0.0,7.0,3.0,1.0,6.0,0.0,0.0,7.0,1.0,phase_2,stop,400.0,400.0,4.0,,,,,,,,,white,flipped triangle
0.0,3.0,3.0,0.0,6.0,6.0,543.1171350646764,7.0,1.0,phase_2,go,400.0,450.0,1.0,,,,,,,,,yellow,triangle
0.0,7.0,3.0,1.0,6.0,0.0,0.0,7.0,1.0,phase_2,stop,400.0,450.0,4.0,,,,,,,,,white,flipped triangle
0.0,6.0,2.0,1.0,5.0,0.0,0.0,7.0,1.0,phase_2,stop,400.0,500.0,4.0,,,,,,,,,green,hexagon
0.0,4.0,4.0,0.0,6.0,6.0,705.7266249321401,7.0,1.0,phase_2,go,450.0,500.0,1.0,,,,,,,,,magenta,diamond
0.0,5.0,1.0,1.0,5.0,5.0,561.6608520504087,7.0,1.0,phase_2,stop,450.0,500.0,3.0,,,,,,,,,gray,square
0.0,2.0,2.0,0.0,6.0,6.0,811.0289059113711,7.0,1.0,phase_2,go,400.0,500.0,1.0,,,,,,,,,cyan,cross
0.0,4.0,4.0,0.0,5.0,5.0,1011.1864779610189,7.0,1.0,phase_2,go,400.0,500.0,1.0,,,,,,,,,magenta,diamond
0.0,8.0,4.0,1.0,6.0,0.0,0.0,7.0,1.0,phase_2,stop,400.0,500.0,4.0,,,,,,,,,orange,I
0.0,2.0,2.0,0.0,6.0,6.0,1063.3536779787391,7.0,1.0,phase_2,go,400.0,550.0,1.0,,,,,,,,,cyan,cross
0.0,6.0,2.0,1.0,6.0,0.0,0.0,7.0,1.0,phase_2,stop,400.0,550.0,4.0,,,,,,,,,green,hexagon
0.0,6.0,2.0,1.0,6.0,0.0,0.0,7.0,1.0,phase_2,stop,400.0,600.0,4.0,,,,,,,,,green,hexagon
0.0,5.0,1.0,1.0,6.0,0.0,0.0,7.0,1.0,phase_2,stop,400.0,650.0,4.0,,,,,,,,,gray,square
0.0,4.0,4.0,0.0,6.0,6.0,928.2703269273044,7.0,1.0,phase_2,go,400.0,700.0,1.0,,,,,,,,,magenta,diamond
0.0,3.0,3.0,0.0,6.0,6.0,820.8398229908198,7.0,1.0,phase_2,go,400.0,700.0,1.0,,,,,,,,,yellow,triangle
0.0,7.0,3.0,1.0,5.0,0.0,0.0,7.0,1.0,phase_2,stop,400.0,700.0,4.0,,,,,,,,,white,flipped triangle
0.0,7.0,3.0,1.0,6.0,6.0,652.6805448811501,7.0,1.0,phase_2,stop,450.0,700.0,3.0,,,,,,,,,white,flipped triangle
0.0,4.0,4.0,0.0,5.0,5.0,924.9968221411108,7.0,1.0,phase_2,go,450.0,650.0,1.0,,,,,,,,,magenta,diamond
0.0,7.0,3.0,1.0,6.0,6.0,666.3420051336288,7.0,1.0,phase_2,stop,450.0,650.0,3.0,,,,,,,,,white,flipped triangle
0.0,4.0,4.0,0.0,6.0,6.0,804.9723450094461,7.0,1.0,phase_2,go,450.0,600.0,1.0,,,,,,,,,magenta,diamond
0.0,8.0,4.0,1.0,6.0,0.0,0.0,7.0,1.0,phase_2,stop,450.0,600.0,4.0,,,,,,,,,orange,I
0.0,3.0,3.0,0.0,6.0,6.0,324.2880140896886,8.0,1.0,phase_2,go,450.0,650.0,1.0,,,,,,,,,yellow,triangle
0.0,3.0,3.0,0.0,5.0,5.0,432.5087950564921,8.0,1.0,phase_2,go,450.0,650.0,1.0,,,,,,,,,yellow,triangle
0.0,3.0,3.0,0.0,6.0,6.0,664.0822649933398,8.0,1.0,phase_2,go,450.0,650.0,1.0,,,,,,,,,yellow,triangle
0.0,6.0,2.0,1.0,5.0,0.0,0.0,8.0,1.0,phase_2,stop,450.0,650.0,4.0,,,,,,,,,green,hexagon
0.0,8.0,4.0,1.0,6.0,6.0,767.2024678904563,8.0,1.0,phase_2,go,500.0,650.0,1.0,,,,,,,,,orange,I
0.0,1.0,1.0,0.0,6.0,6.0,672.6364749483764,8.0,1.0,phase_2,go,500.0,650.0,1.0,,,,,,,,,blue,circle
0.0,1.0,1.0,0.0,6.0,6.0,583.9674689341336,8.0,1.0,phase_2,go,500.0,650.0,1.0,,,,,,,,,blue,circle
0.0,4.0,4.0,0.0,5.0,5.0,652.4859638884664,8.0,1.0,phase_2,go,500.0,650.0,1.0,,,,,,,,,magenta,diamond
0.0,5.0,1.0,1.0,6.0,6.0,691.9279259163886,8.0,1.0,phase_2,stop,500.0,650.0,3.0,,,,,,,,,gray,square
0.0,1.0,1.0,0.0,6.0,6.0,685.6076312251389,8.0,1.0,phase_2,go,500.0,600.0,1.0,,,,,,,,,blue,circle
0.0,6.0,2.0,1.0,6.0,6.0,413.2622671313584,8.0,1.0,phase_2,stop,500.0,600.0,3.0,,,,,,,,,green,hexagon
0.0,2.0,2.0,0.0,6.0,6.0,700.8194429799914,8.0,1.0,phase_2,go,500.0,550.0,1.0,,,,,,,,,cyan,cross
0.0,8.0,4.0,1.0,6.0,0.0,0.0,8.0,1.0,phase_2,stop,500.0,550.0,4.0,,,,,,,,,orange,I
0.0,2.0,2.0,0.0,5.0,5.0,683.0357508733869,8.0,1.0,phase_2,go,500.0,600.0,1.0,,,,,,,,,cyan,cross
0.0,3.0,3.0,0.0,5.0,5.0,794.3134580273181,8.0,1.0,phase_2,go,500.0,600.0,1.0,,,,,,,,,yellow,triangle
0.0,4.0,4.0,0.0,6.0,6.0,403.8774559739977,8.0,1.0,phase_2,go,500.0,600.0,1.0,,,,,,,,,magenta,diamond
0.0,1.0,1.0,0.0,5.0,5.0,522.4401620216668,8.0,1.0,phase_2,go,500.0,600.0,1.0,,,,,,,,,blue,circle
0.0,7.0,3.0,1.0,5.0,0.0,0.0,8.0,1.0,phase_2,stop,500.0,600.0,4.0,,,,,,,,,white,flipped triangle
0.0,2.0,2.0,0.0,5.0,5.0,678.3506469801068,8.0,1.0,phase_2,go,550.0,600.0,1.0,,,,,,,,,cyan,cross
0.0,4.0,4.0,0.0,6.0,6.0,664.6264709997922,8.0,1.0,phase_2,go,550.0,600.0,1.0,,,,,,,,,magenta,diamond
0.0,6.0,2.0,1.0,5.0,5.0,487.6050730235874,8.0,1.0,phase_2,stop,550.0,600.0,3.0,,,,,,,,,green,hexagon
0.0,1.0,1.0,0.0,5.0,5.0,556.8294390104711,8.0,1.0,phase_2,go,500.0,600.0,1.0,,,,,,,,,blue,circle
0.0,2.0,2.0,0.0,6.0,6.0,528.2666350249201,8.0,1.0,phase_2,go,500.0,600.0,1.0,,,,,,,,,cyan,cross
0.0,5.0,1.0,1.0,5.0,5.0,891.5790519677103,8.0,1.0,phase_2,go,500.0,600.0,1.0,,,,,,,,,gray,square
0.0,7.0,3.0,1.0,6.0,6.0,823.2310370076448,8.0,1.0,phase_2,go,500.0,600.0,1.0,,,,,,,,,white,flipped triangle
0.0,4.0,4.0,0.0,6.0,6.0,762.5949089415371,8.0,1.0,phase_2,go,500.0,600.0,1.0,,,,,,,,,magenta,diamond
0.0,5.0,1.0,1.0,5.0,5.0,388.8268799055367,8.0,1.0,phase_2,stop,500.0,600.0,3.0,,,,,,,,,gray,square
0.0,5.0,1.0,1.0,6.0,6.0,628.929500002414,8.0,1.0,phase_2,go,450.0,600.0,1.0,,,,,,,,,gray,square
0.0,5.0,1.0,1.0,6.0,6.0,299.9246611725539,8.0,1.0,phase_2,stop,450.0,600.0,3.0,,,,,,,,,gray,square
0.0,1.0,1.0,0.0,6.0,6.0,418.5583770740777,8.0,1.0,phase_2,go,450.0,550.0,1.0,,,,,,,,,blue,circle
0.0,4.0,4.0,0.0,6.0,6.0,744.1863738931715,8.0,1.0,phase_2,go,450.0,550.0,1.0,,,,,,,,,magenta,diamond
0.0,2.0,2.0,0.0,5.0,5.0,515.4390491079539,8.0,1.0,phase_2,go,450.0,550.0,1.0,,,,,,,,,cyan,cross
0.0,2.0,2.0,0.0,6.0,6.0,633.1033010501415,8.0,1.0,phase_2,go,450.0,550.0,1.0,,,,,,,,,cyan,cross
0.0,1.0,1.0,0.0,5.0,5.0,630.0384839996696,8.0,1.0,phase_2,go,450.0,550.0,1.0,,,,,,,,,blue,circle
0.0,7.0,3.0,1.0,5.0,0.0,0.0,8.0,1.0,phase_2,stop,450.0,550.0,4.0,,,,,,,,,white,flipped triangle
0.0,8.0,4.0,1.0,5.0,5.0,628.6182119511068,8.0,1.0,phase_2,stop,500.0,550.0,3.0,,,,,,,,,orange,I
0.0,5.0,1.0,1.0,7.0,3.0,1655.5367100518197,1.0,1.0,phase_3,,,,,136.0,4.0,204.0,170.0,136.0,68.0,34.0,102.0,gray,square
0.0,8.0,4.0,1.0,7.0,2.0,2090.411121957004,1.0,1.0,phase_3,,,,,102.0,3.0,204.0,102.0,170.0,136.0,34.0,68.0,orange,I
0.0,1.0,1.0,0.0,7.0,3.0,1930.556298000738,1.0,1.0,phase_3,,,,,34.0,1.0,170.0,68.0,34.0,204.0,102.0,136.0,blue,circle
0.0,7.0,3.0,1.0,7.0,2.0,1365.2089019306004,1.0,1.0,phase_3,,,,,78.0,2.0,234.0,78.0,117.0,156.0,39.0,195.0,white,flipped triangle
0.0,8.0,4.0,1.0,7.0,4.0,1782.6464229729029,1.0,1.0,phase_3,,,,,39.0,1.0,195.0,234.0,156.0,39.0,78.0,117.0,orange,I
0.0,4.0,4.0,0.0,7.0,2.0,1813.2615278009323,1.0,1.0,phase_3,,,,,102.0,3.0,34.0,102.0,204.0,136.0,170.0,68.0,magenta,diamond
0.0,4.0,4.0,0.0,7.0,1.0,1658.2461358048022,1.0,1.0,phase_3,,,,,176.0,4.0,176.0,44.0,88.0,264.0,132.0,220.0,magenta,diamond
0.0,1.0,1.0,0.0,7.0,5.0,883.0371310468763,1.0,1.0,phase_3,,,,,220.0,5.0,132.0,264.0,176.0,44.0,220.0,88.0,blue,circle
0.0,8.0,4.0,1.0,7.0,6.0,1164.490234106779,1.0,1.0,phase_3,,,,,132.0,3.0,44.0,88.0,220.0,176.0,264.0,132.0,orange,I
0.0,2.0,2.0,0.0,7.0,4.0,2316.877622855827,1.0,1.0,phase_3,,,,,270.0,5.0,216.0,324.0,108.0,270.0,54.0,162.0,cyan,cross
0.0,2.0,2.0,0.0,7.0,2.0,1685.3330319281667,1.0,1.0,phase_3,,,,,170.0,5.0,34.0,170.0,136.0,102.0,68.0,204.0,cyan,cross
0.0,7.0,3.0,1.0,7.0,5.0,1552.9112019576132,1.0,1.0,phase_3,,,,,245.0,5.0,49.0,98.0,196.0,294.0,245.0,147.0,white,flipped triangle
0.0,8.0,4.0,1.0,7.0,2.0,2553.675130009651,1.0,1.0,phase_3,,,,,162.0,3.0,324.0,162.0,54.0,108.0,216.0,270.0,orange,I
0.0,8.0,4.0,1.0,7.0,2.0,2232.629806967452,1.0,1.0,phase_3,,,,,204.0,6.0,170.0,204.0,136.0,68.0,102.0,34.0,orange,I
0.0,7.0,3.0,1.0,7.0,6.0,2586.2783251795922,1.0,1.0,phase_3,,,,,176.0,4.0,264.0,88.0,132.0,220.0,44.0,176.0,white,flipped triangle
0.0,4.0,4.0,0.0,7.0,2.0,2372.6183408871293,1.0,1.0,phase_3,,,,,156.0,4.0,117.0,156.0,234.0,78.0,39.0,195.0,magenta,diamond
0.0,6.0,2.0,1.0,7.0,1.0,2228.6691900808364,1.0,1.0,phase_3,,,,,220.0,5.0,220.0,176.0,88.0,264.0,44.0,132.0,green,hexagon
0.0,3.0,3.0,0.0,7.0,5.0,1895.6042770296333,1.0,1.0,phase_3,,,,,98.0,2.0,147.0,294.0,49.0,245.0,98.0,196.0,yellow,triangle
0.0,5.0,1.0,1.0,7.0,1.0,2146.937361219898,1.0,1.0,phase_3,,,,,195.0,5.0,195.0,78.0,156.0,39.0,117.0,234.0,gray,square
0.0,7.0,3.0,1.0,7.0,5.0,2265.745742013678,1.0,1.0,phase_3,,,,,108.0,2.0,216.0,54.0,162.0,324.0,108.0,270.0,white,flipped triangle
0.0,8.0,4.0,1.0,7.0,5.0,3021.704596001655,2.0,1.0,phase_3,,,,,78.0,2.0,117.0,234.0,195.0,156.0,78.0,39.0,orange,I
0.0,6.0,2.0,1.0,7.0,3.0,1393.0753068998456,2.0,1.0,phase_3,,,,,39.0,1.0,195.0,234.0,39.0,117.0,156.0,78.0,green,hexagon
0.0,6.0,2.0,1.0,7.0,2.0,1716.2436270155013,2.0,1.0,phase_3,,,,,98.0,2.0,147.0,98.0,294.0,245.0,49.0,196.0,green,hexagon
0.0,3.0,3.0,0.0,7.0,6.0,1331.3744869083166,2.0,1.0,phase_3,,,,,264.0,6.0,176.0,132.0,44.0,88.0,220.0,264.0,yellow,triangle
0.0,5.0,1.0,1.0,7.0,5.0,420.7717480603605,2.0,1.0,phase_3,,,,,44.0,1.0,132.0,176.0,220.0,264.0,44.0,88.0,gray,square
0.0,6.0,2.0,1.0,7.0,4.0,2044.5847469381988,2.0,1.0,phase_3,,,,,132.0,3.0,176.0,220.0,264.0,132.0,44.0,88.0,green,hexagon
0.0,7.0,3.0,1.0,7.0,2.0,1225.5025950726122,2.0,1.0,phase_3,,,,,132.0,3.0,264.0,132.0,176.0,44.0,88.0,220.0,white,flipped triangle
0.0,1.0,1.0,0.0,7.0,5.0,784.2774209566414,2.0,1.0,phase_3,,,,,162.0,3.0,216.0,270.0,324.0,54.0,162.0,108.0,blue,circle
0.0,2.0,2.0,0.0,7.0,1.0,955.8307339902968,2.0,1.0,phase_3,,,,,98.0,2.0,98.0,49.0,147.0,196.0,245.0,294.0,cyan,cross
0.0,3.0,3.0,0.0,7.0,2.0,244.6514770854264,2.0,1.0,phase_3,,,,,34.0,1.0,204.0,34.0,136.0,170.0,102.0,68.0,yellow,triangle
0.0,1.0,1.0,0.0,7.0,4.0,325.3837961237877,2.0,1.0,phase_3,,,,,108.0,2.0,270.0,54.0,216.0,108.0,162.0,324.0,blue,circle
0.0,5.0,1.0,1.0,7.0,6.0,342.8498550783843,2.0,1.0,phase_3,,,,,54.0,1.0,324.0,270.0,216.0,162.0,108.0,54.0,gray,square
0.0,2.0,2.0,0.0,7.0,2.0,687.1845759451389,2.0,1.0,phase_3,,,,,108.0,2.0,270.0,108.0,324.0,216.0,162.0,54.0,cyan,cross
0.0,4.0,4.0,0.0,7.0,5.0,1009.832926094532,2.0,1.0,phase_3,,,,,324.0,6.0,108.0,54.0,162.0,216.0,324.0,270.0,magenta,diamond
0.0,5.0,1.0,1.0,7.0,1.0,690.8589261583984,2.0,1.0,phase_3,,,,,294.0,6.0,294.0,98.0,196.0,49.0,245.0,147.0,gray,square
0.0,8.0,4.0,1.0,7.0,4.0,748.911065980792,2.0,1.0,phase_3,,,,,294.0,6.0,98.0,49.0,196.0,294.0,147.0,245.0,orange,I
0.0,6.0,2.0,1.0,7.0,3.0,677.3559271823615,2.0,1.0,phase_3,,,,,54.0,1.0,108.0,216.0,54.0,324.0,270.0,162.0,green,hexagon
0.0,3.0,3.0,0.0,7.0,3.0,1814.778627129272,2.0,1.0,phase_3,,,,,270.0,5.0,108.0,162.0,270.0,324.0,54.0,216.0,yellow,triangle
0.0,3.0,3.0,0.0,7.0,1.0,993.9464679919184,2.0,1.0,phase_3,,,,,176.0,4.0,176.0,88.0,220.0,132.0,44.0,264.0,yellow,triangle
0.0,1.0,1.0,0.0,7.0,4.0,1603.458876023069,2.0,1.0,phase_3,,,,,102.0,3.0,170.0,136.0,68.0,102.0,204.0,34.0,blue,circle
0.0,1.0,1.0,0.0,7.0,4.0,1154.488513013348,3.0,1.0,phase_3,,,,,147.0,3.0,49.0,196.0,294.0,147.0,245.0,98.0,blue,circle
0.0,1.0,1.0,0.0,7.0,1.0,589.7613058332354,3.0,1.0,phase_3,,,,,44.0,1.0,44.0,88.0,176.0,220.0,132.0,264.0,blue,circle
0.0,3.0,3.0,0.0,7.0,6.0,1062.8727900329975,3.0,1.0,phase_3,,,,,204.0,6.0,68.0,170.0,136.0,34.0,102.0,204.0,yellow,triangle
0.0,6.0,2.0,1.0,7.0,2.0,892.5358990672976,3.0,1.0,phase_3,,,,,196.0,4.0,98.0,196.0,245.0,147.0,49.0,294.0,green,hexagon
0.0,6.0,2.0,1.0,7.0,6.0,1505.2694650366902,3.0,1.0,phase_3,,,,,270.0,5.0,162.0,108.0,216.0,324.0,54.0,270.0,green,hexagon
0.0,8.0,4.0,1.0,7.0,3.0,1136.18524488993,3.0,1.0,phase_3,,,,,324.0,6.0,216.0,162.0,324.0,54.0,108.0,270.0,orange,I
0.0,3.0,3.0,0.0,7.0,2.0,921.742167789489,3.0,1.0,phase_3,,,,,270.0,5.0,324.0,270.0,108.0,54.0,216.0,162.0,yellow,triangle
0.0,1.0,1.0,0.0,7.0,5.0,2227.7992570307106,3.0,1.0,phase_3,,,,,294.0,6.0,147.0,49.0,196.0,245.0,294.0,98.0,blue,circle
0.0,5.0,1.0,1.0,7.0,3.0,1326.1958200018853,3.0,1.0,phase_3,,,,,216.0,4.0,324.0,162.0,216.0,54.0,108.0,270.0,gray,square
0.0,2.0,2.0,0.0,7.0,1.0,1021.5410380624237,3.0,1.0,phase_3,,,,,156.0,4.0,156.0,234.0,117.0,195.0,39.0,78.0,cyan,cross
0.0,2.0,2.0,0.0,7.0,5.0,846.9551331363618,3.0,1.0,phase_3,,,,,234.0,6.0,39.0,156.0,195.0,78.0,234.0,117.0,cyan,cross
0.0,7.0,3.0,1.0,7.0,4.0,1416.2098721135408,3.0,1.0,phase_3,,,,,195.0,5.0,156.0,39.0,117.0,195.0,234.0,78.0,white,flipped triangle
0.0,4.0,4.0,0.0,7.0,3.0,2315.846363082528,3.0,1.0,phase_3,,,,,78.0,2.0,156.0,117.0,78.0,39.0,195.0,234.0,magenta,diamond
0.0,7.0,3.0,1.0,7.0,6.0,1154.833568027243,3.0,1.0,phase_3,,,,,162.0,3.0,216.0,54.0,108.0,324.0,270.0,162.0,white,flipped triangle
0.0,5.0,1.0,1.0,7.0,3.0,1349.976658122614,3.0,1.0,phase_3,,,,,204.0,6.0,102.0,68.0,204.0,34.0,170.0,136.0,gray,square
0.0,2.0,2.0,0.0,7.0,2.0,1236.9247360620648,3.0,1.0,phase_3,,,,,44.0,1.0,88.0,44.0,220.0,176.0,264.0,132.0,cyan,cross
0.0,3.0,3.0,0.0,7.0,5.0,2095.0495870783925,3.0,1.0,phase_3,,,,,78.0,2.0,117.0,156.0,39.0,195.0,78.0,234.0,yellow,triangle
0.0,5.0,1.0,1.0,7.0,4.0,1706.3186781015247,3.0,1.0,phase_3,,,,,98.0,2.0,196.0,49.0,294.0,98.0,147.0,245.0,gray,square
0.0,7.0,3.0,1.0,7.0,1.0,1058.5276980418712,3.0,1.0,phase_3,,,,,170.0,5.0,170.0,136.0,34.0,204.0,102.0,68.0,white,flipped triangle
0.0,7.0,3.0,1.0,7.0,1.0,2059.46520389989,3.0,1.0,phase_3,,,,,68.0,2.0,68.0,136.0,170.0,102.0,204.0,34.0,white,flipped triangle
0.0,7.0,3.0,1.0,7.0,2.0,945.6580160185696,4.0,1.0,phase_3,,,,,147.0,3.0,98.0,147.0,294.0,49.0,245.0,196.0,white,flipped triangle
0.0,2.0,2.0,0.0,7.0,3.0,1332.9559459816664,4.0,1.0,phase_3,,,,,88.0,2.0,132.0,264.0,88.0,44.0,220.0,176.0,cyan,cross
0.0,4.0,4.0,0.0,7.0,4.0,3058.686800999567,4.0,1.0,phase_3,,,,,216.0,4.0,270.0,54.0,324.0,216.0,162.0,108.0,magenta,diamond
0.0,3.0,3.0,0.0,7.0,1.0,902.5926499161868,4.0,1.0,phase_3,,,,,245.0,5.0,245.0,49.0,98.0,196.0,147.0,294.0,yellow,triangle
0.0,8.0,4.0,1.0,7.0,5.0,2062.321563018486,4.0,1.0,phase_3,,,,,44.0,1.0,264.0,88.0,132.0,176.0,44.0,220.0,orange,I
0.0,6.0,2.0,1.0,7.0,2.0,2175.7135989610106,4.0,1.0,phase_3,,,,,170.0,5.0,204.0,170.0,34.0,136.0,102.0,68.0,green,hexagon
0.0,1.0,1.0,0.0,7.0,1.0,1776.2383371591568,4.0,1.0,phase_3,,,,,117.0,3.0,117.0,195.0,156.0,78.0,39.0,234.0,blue,circle
0.0,8.0,4.0,1.0,7.0,6.0,2693.120665149763,4.0,1.0,phase_3,,,,,245.0,5.0,196.0,294.0,49.0,147.0,98.0,245.0,orange,I
0.0,6.0,2.0,1.0,7.0,5.0,3324.562696972862,4.0,1.0,phase_3,,,,,136.0,4.0,170.0,204.0,34.0,102.0,136.0,68.0,green,hexagon
0.0,4.0,4.0,0.0,7.0,1.0,2223.073998931796,4.0,1.0,phase_3,,,,,88.0,2.0,88.0,220.0,264.0,176.0,44.0,132.0,magenta,diamond
0.0,4.0,4.0,0.0,7.0,3.0,2141.402560984716,4.0,1.0,phase_3,,,,,196.0,4.0,245.0,294.0,196.0,49.0,147.0,98.0,magenta,diamond
0.0,2.0,2.0,0.0,7.0,5.0,1807.82733601518,4.0,1.0,phase_3,,,,,136.0,4.0,170.0,102.0,68.0,204.0,136.0,34.0,cyan,cross
0.0,5.0,1.0,1.0,7.0,5.0,1425.3522928338498,4.0,1.0,phase_3,,,,,234.0,6.0,195.0,156.0,39.0,117.0,234.0,78.0,gray,square
0.0,3.0,3.0,0.0,7.0,1.0,729.9301819875836,4.0,1.0,phase_3,,,,,117.0,3.0,117.0,234.0,78.0,156.0,39.0,195.0,yellow,triangle
0.0,1.0,1.0,0.0,7.0,3.0,2610.780206974596,4.0,1.0,phase_3,,,,,156.0,4.0,195.0,234.0,156.0,117.0,39.0,78.0,blue,circle
0.0,6.0,2.0,1.0,7.0,2.0,2399.227914167568,4.0,1.0,phase_3,,,,,195.0,5.0,156.0,195.0,234.0,78.0,117.0,39.0,green,hexagon
0.0,4.0,4.0,0.0,7.0,1.0,909.8190588410944,4.0,1.0,phase_3,,,,,102.0,3.0,102.0,34.0,68.0,170.0,136.0,204.0,magenta,diamond
0.0,4.0,4.0,0.0,7.0,5.0,1672.109992010519,4.0,1.0,phase_3,,,,,196.0,4.0,49.0,147.0,294.0,245.0,196.0,98.0,magenta,diamond
0.0,5.0,1.0,1.0,7.0,2.0,2905.9024050366133,4.0,1.0,phase_3,,,,,88.0,2.0,44.0,88.0,220.0,264.0,176.0,132.0,gray,square
0.0,2.0,2.0,0.0,7.0,3.0,1929.6250499319283,4.0,1.0,phase_3,,,,,245.0,5.0,196.0,294.0,245.0,147.0,49.0,98.0,cyan,cross
