raw_reward_magnitude,stim_reward,stepwise_reward_magnitude,paired_with_stopping,stim_location,response,reaction_time,block,num_trial_presentations,which_phase,stop_signal_trial_type,left_SSD,right_SSD,accuracy,chosen_bidding_amount,chosen_bidding_level,possible_bid_1,possible_bid_2,possible_bid_3,possible_bid_4,possible_bid_5,possible_bid_6,color_text,shape_text
56.0,5.0,0.5,1.0,3.0,3.0,386.1163950059563,1.0,1.0,phase_1,,,,,,,,,,,,,cyan,circle
0.0,4.0,0.0,0.0,3.0,3.0,398.7276090774685,1.0,1.0,phase_1,,,,,,,,,,,,,green,square
392.0,8.0,4.0,1.0,3.0,3.0,355.4371320642531,1.0,1.0,phase_1,,,,,,,,,,,,,orange,diamond
0.0,4.0,0.0,0.0,2.0,2.0,489.9215090554207,1.0,1.0,phase_1,,,,,,,,,,,,,green,square
403.0,8.0,4.0,1.0,4.0,4.0,407.5210250448435,1.0,1.0,phase_1,,,,,,,,,,,,,orange,diamond
100.0,2.0,1.0,0.0,4.0,4.0,377.1680269856006,1.0,1.0,phase_1,,,,,,,,,,,,,yellow,triangle
418.0,4.0,4.0,0.0,1.0,1.0,392.3605871386826,1.0,1.0,phase_1,,,,,,,,,,,,,green,square
0.0,8.0,0.0,1.0,1.0,1.0,454.1495859157294,1.0,1.0,phase_1,,,,,,,,,,,,,orange,diamond
48.0,1.0,0.5,0.0,1.0,1.0,459.3309881165623,1.0,1.0,phase_1,,,,,,,,,,,,,white,flipped triangle
0.0,7.0,0.0,1.0,2.0,2.0,527.4104208219796,1.0,1.0,phase_1,,,,,,,,,,,,,magenta,cross
0.0,7.0,0.0,1.0,4.0,4.0,394.6878141723573,1.0,1.0,phase_1,,,,,,,,,,,,,magenta,cross
197.0,3.0,2.0,0.0,1.0,1.0,343.8336390536278,1.0,1.0,phase_1,,,,,,,,,,,,,gray,I
398.0,4.0,4.0,0.0,3.0,3.0,441.8360961135477,1.0,1.0,phase_1,,,,,,,,,,,,,green,square
61.0,5.0,0.5,1.0,2.0,2.0,367.49822390265757,1.0,1.0,phase_1,,,,,,,,,,,,,cyan,circle
0.0,8.0,0.0,1.0,2.0,2.0,555.5985148530453,1.0,1.0,phase_1,,,,,,,,,,,,,orange,diamond
187.0,3.0,2.0,0.0,1.0,1.0,400.7478922139853,1.0,1.0,phase_1,,,,,,,,,,,,,gray,I
82.0,6.0,1.0,1.0,2.0,2.0,340.811617905274,1.0,1.0,phase_1,,,,,,,,,,,,,blue,hexagon
35.0,1.0,0.5,0.0,4.0,4.0,323.9490801934153,1.0,1.0,phase_1,,,,,,,,,,,,,white,flipped triangle
382.0,8.0,4.0,1.0,4.0,4.0,386.3797450903803,1.0,1.0,phase_1,,,,,,,,,,,,,orange,diamond
87.0,2.0,1.0,0.0,2.0,2.0,318.0042030289769,1.0,1.0,phase_1,,,,,,,,,,,,,yellow,triangle
105.0,2.0,1.0,0.0,1.0,1.0,322.8338451590389,1.0,1.0,phase_1,,,,,,,,,,,,,yellow,triangle
217.0,3.0,2.0,0.0,2.0,2.0,318.8813859596848,1.0,1.0,phase_1,,,,,,,,,,,,,gray,I
0.0,3.0,0.0,0.0,3.0,3.0,462.7064228989184,1.0,2.0,phase_1,,,,,,,,,,,,,gray,I
181.0,7.0,2.0,1.0,2.0,2.0,531.352411955595,1.0,1.0,phase_1,,,,,,,,,,,,,magenta,cross
376.0,8.0,4.0,1.0,3.0,3.0,406.8271429277956,1.0,1.0,phase_1,,,,,,,,,,,,,orange,diamond
0.0,1.0,0.0,0.0,4.0,4.0,459.425802109763,1.0,1.0,phase_1,,,,,,,,,,,,,white,flipped triangle
97.0,6.0,1.0,1.0,3.0,3.0,386.7978788912296,1.0,1.0,phase_1,,,,,,,,,,,,,blue,hexagon
40.0,1.0,0.5,0.0,4.0,4.0,415.2179870288819,1.0,1.0,phase_1,,,,,,,,,,,,,white,flipped triangle
0.0,3.0,0.0,0.0,4.0,4.0,476.1824340093881,1.0,1.0,phase_1,,,,,,,,,,,,,gray,I
0.0,5.0,0.0,1.0,3.0,3.0,398.3787330798805,1.0,1.0,phase_1,,,,,,,,,,,,,cyan,circle
31.0,5.0,0.5,1.0,4.0,4.0,398.1441250070929,1.0,1.0,phase_1,,,,,,,,,,,,,cyan,circle
412.0,8.0,4.0,1.0,2.0,2.0,418.3531790040433,1.0,1.0,phase_1,,,,,,,,,,,,,orange,diamond
0.0,1.0,0.0,0.0,1.0,1.0,343.6280169989913,1.0,1.0,phase_1,,,,,,,,,,,,,white,flipped triangle
60.0,5.0,0.5,1.0,4.0,4.0,437.4955599196255,1.0,1.0,phase_1,,,,,,,,,,,,,cyan,circle
0.0,6.0,0.0,1.0,2.0,2.0,505.18564786762,1.0,1.0,phase_1,,,,,,,,,,,,,blue,hexagon
90.0,6.0,1.0,1.0,4.0,4.0,628.5530030727386,1.0,1.0,phase_1,,,,,,,,,,,,,blue,hexagon
190.0,7.0,2.0,1.0,1.0,1.0,478.3995270263403,1.0,2.0,phase_1,,,,,,,,,,,,,magenta,cross
68.0,5.0,0.5,1.0,1.0,1.0,427.7426279149949,1.0,1.0,phase_1,,,,,,,,,,,,,cyan,circle
0.0,5.0,0.0,1.0,2.0,2.0,431.6282840445637,1.0,1.0,phase_1,,,,,,,,,,,,,cyan,circle
62.0,1.0,0.5,0.0,4.0,4.0,770.8557858131826,1.0,1.0,phase_1,,,,,,,,,,,,,white,flipped triangle
189.0,7.0,2.0,1.0,3.0,3.0,384.7740059718489,1.0,1.0,phase_1,,,,,,,,,,,,,magenta,cross
194.0,7.0,2.0,1.0,1.0,1.0,379.4787640217691,1.0,1.0,phase_1,,,,,,,,,,,,,magenta,cross
416.0,8.0,4.0,1.0,1.0,1.0,369.8249070439487,1.0,1.0,phase_1,,,,,,,,,,,,,orange,diamond
0.0,6.0,0.0,1.0,3.0,3.0,389.3324211239815,1.0,1.0,phase_1,,,,,,,,,,,,,blue,hexagon
409.0,8.0,4.0,1.0,1.0,1.0,411.4052141085267,1.0,1.0,phase_1,,,,,,,,,,,,,orange,diamond
0.0,6.0,0.0,1.0,4.0,4.0,378.0013341456651,1.0,1.0,phase_1,,,,,,,,,,,,,blue,hexagon
59.0,1.0,0.5,0.0,1.0,1.0,372.0277978572994,1.0,1.0,phase_1,,,,,,,,,,,,,white,flipped triangle
416.0,8.0,4.0,1.0,3.0,3.0,363.3732111193239,1.0,1.0,phase_1,,,,,,,,,,,,,orange,diamond
56.0,5.0,0.5,1.0,2.0,2.0,437.7246310468763,1.0,1.0,phase_1,,,,,,,,,,,,,cyan,circle
65.0,1.0,0.5,0.0,3.0,3.0,417.6702070981264,1.0,1.0,phase_1,,,,,,,,,,,,,white,flipped triangle
0.0,2.0,0.0,0.0,1.0,1.0,454.1577778290957,1.0,1.0,phase_1,,,,,,,,,,,,,yellow,triangle
399.0,4.0,4.0,0.0,2.0,2.0,323.8055489491671,1.0,1.0,phase_1,,,,,,,,,,,,,green,square
394.0,4.0,4.0,0.0,3.0,3.0,319.3490749690681,1.0,1.0,phase_1,,,,,,,,,,,,,green,square
410.0,8.0,4.0,1.0,4.0,4.0,254.27716691046948,1.0,1.0,phase_1,,,,,,,,,,,,,orange,diamond
110.0,6.0,1.0,1.0,2.0,2.0,232.9767530318349,1.0,1.0,phase_1,,,,,,,,,,,,,blue,hexagon
197.0,7.0,2.0,1.0,4.0,4.0,369.8469139635563,1.0,2.0,phase_1,,,,,,,,,,,,,magenta,cross
400.0,4.0,4.0,0.0,4.0,4.0,369.7381920646876,1.0,1.0,phase_1,,,,,,,,,,,,,green,square
28.0,1.0,0.5,0.0,1.0,1.0,410.8083338942379,1.0,1.0,phase_1,,,,,,,,,,,,,white,flipped triangle
0.0,4.0,0.0,0.0,1.0,1.0,369.770203018561,1.0,1.0,phase_1,,,,,,,,,,,,,green,square
210.0,3.0,2.0,0.0,3.0,3.0,343.8092649448663,1.0,1.0,phase_1,,,,,,,,,,,,,gray,I
87.0,6.0,1.0,1.0,2.0,2.0,502.8813388198614,1.0,2.0,phase_1,,,,,,,,,,,,,blue,hexagon
400.0,8.0,4.0,1.0,1.0,1.0,434.175135102123,1.0,1.0,phase_1,,,,,,,,,,,,,orange,diamond
381.0,4.0,4.0,0.0,1.0,1.0,442.5587900914252,1.0,1.0,phase_1,,,,,,,,,,,,,green,square
40.0,5.0,0.5,1.0,4.0,4.0,405.7554630562663,1.0,1.0,phase_1,,,,,,,,,,,,,cyan,circle
35.0,5.0,0.5,1.0,3.0,3.0,449.6628190390765,1.0,1.0,phase_1,,,,,,,,,,,,,cyan,circle
217.0,7.0,2.0,1.0,4.0,4.0,383.9969090186059,1.0,1.0,phase_1,,,,,,,,,,,,,magenta,cross
177.0,7.0,2.0,1.0,4.0,4.0,371.8328308314085,1.0,1.0,phase_1,,,,,,,,,,,,,magenta,cross
87.0,2.0,1.0,0.0,1.0,1.0,384.8344308789819,1.0,1.0,phase_1,,,,,,,,,,,,,yellow,triangle
0.0,1.0,0.0,0.0,3.0,3.0,341.98929509148,1.0,1.0,phase_1,,,,,,,,,,,,,white,flipped triangle
214.0,3.0,2.0,0.0,3.0,3.0,368.1720751337707,1.0,1.0,phase_1,,,,,,,,,,,,,gray,I
0.0,4.0,0.0,0.0,3.0,3.0,382.7723409049213,1.0,1.0,phase_1,,,,,,,,,,,,,green,square
213.0,3.0,2.0,0.0,1.0,1.0,395.6570748705417,1.0,1.0,phase_1,,,,,,,,,,,,,gray,I
397.0,4.0,4.0,0.0,3.0,3.0,449.6944069396704,1.0,1.0,phase_1,,,,,,,,,,,,,green,square
79.0,2.0,1.0,0.0,1.0,1.0,386.8549799080938,1.0,1.0,phase_1,,,,,,,,,,,,,yellow,triangle
214.0,3.0,2.0,0.0,2.0,2.0,433.0000609625131,1.0,1.0,phase_1,,,,,,,,,,,,,gray,I
92.0,2.0,1.0,0.0,3.0,3.0,343.4697710908949,1.0,1.0,phase_1,,,,,,,,,,,,,yellow,triangle
91.0,6.0,1.0,1.0,4.0,4.0,354.9142531119287,1.0,1.0,phase_1,,,,,,,,,,,,,blue,hexagon
0.0,7.0,0.0,1.0,4.0,4.0,381.7683800589293,1.0,1.0,phase_1,,,,,,,,,,,,,magenta,cross
213.0,7.0,2.0,1.0,1.0,1.0,493.6954679433256,1.0,1.0,phase_1,,,,,,,,,,,,,magenta,cross
0.0,6.0,0.0,1.0,2.0,2.0,480.1193298771977,1.0,1.0,phase_1,,,,,,,,,,,,,blue,hexagon
60.0,1.0,0.5,0.0,4.0,4.0,335.432780906558,1.0,1.0,phase_1,,,,,,,,,,,,,white,flipped triangle
56.0,1.0,0.5,0.0,2.0,2.0,355.5613330099731,1.0,1.0,phase_1,,,,,,,,,,,,,white,flipped triangle
39.0,1.0,0.5,0.0,4.0,4.0,525.4872408695519,1.0,1.0,phase_1,,,,,,,,,,,,,white,flipped triangle
375.0,4.0,4.0,0.0,1.0,1.0,314.7639890667051,1.0,1.0,phase_1,,,,,,,,,,,,,green,square
385.0,4.0,4.0,0.0,4.0,4.0,392.9443510714918,1.0,1.0,phase_1,,,,,,,,,,,,,green,square
406.0,8.0,4.0,1.0,4.0,4.0,396.6127329040319,1.0,1.0,phase_1,,,,,,,,,,,,,orange,diamond
213.0,7.0,2.0,1.0,4.0,4.0,338.9423678163439,1.0,1.0,phase_1,,,,,,,,,,,,,magenta,cross
0.0,6.0,0.0,1.0,4.0,4.0,540.5768100172281,1.0,1.0,phase_1,,,,,,,,,,,,,blue,hexagon
0.0,1.0,0.0,0.0,4.0,4.0,473.863952094689,1.0,1.0,phase_1,,,,,,,,,,,,,white,flipped triangle
56.0,1.0,0.5,0.0,4.0,4.0,310.524313012138,1.0,1.0,phase_1,,,,,,,,,,,,,white,flipped triangle
114.0,6.0,1.0,1.0,2.0,2.0,361.9066621176898,1.0,1.0,phase_1,,,,,,,,,,,,,blue,hexagon
392.0,4.0,4.0,0.0,4.0,4.0,375.4379011224955,1.0,1.0,phase_1,,,,,,,,,,,,,green,square
189.0,3.0,2.0,0.0,2.0,2.0,428.2002600375563,1.0,1.0,phase_1,,,,,,,,,,,,,gray,I
74.0,5.0,0.5,1.0,4.0,4.0,370.7376320380717,1.0,1.0,phase_1,,,,,,,,,,,,,cyan,circle
418.0,8.0,4.0,1.0,4.0,4.0,441.3818351458758,1.0,1.0,phase_1,,,,,,,,,,,,,orange,diamond
41.0,5.0,0.5,1.0,1.0,1.0,372.385666007176,1.0,1.0,phase_1,,,,,,,,,,,,,cyan,circle
114.0,2.0,1.0,0.0,4.0,4.0,392.8932060953229,1.0,1.0,phase_1,,,,,,,,,,,,,yellow,triangle
0.0,6.0,0.0,1.0,3.0,3.0,414.4127499312162,1.0,1.0,phase_1,,,,,,,,,,,,,blue,hexagon
79.0,2.0,1.0,0.0,4.0,4.0,351.9370739813894,1.0,1.0,phase_1,,,,,,,,,,,,,yellow,triangle
71.0,1.0,0.5,0.0,3.0,3.0,336.7100569885224,1.0,1.0,phase_1,,,,,,,,,,,,,white,flipped triangle
214.0,7.0,2.0,1.0,3.0,3.0,363.1090908311307,2.0,1.0,phase_1,,,,,,,,,,,,,magenta,cross
392.0,8.0,4.0,1.0,2.0,2.0,367.0628911349922,2.0,1.0,phase_1,,,,,,,,,,,,,orange,diamond
121.0,6.0,1.0,1.0,2.0,2.0,409.7194848582148,2.0,2.0,phase_1,,,,,,,,,,,,,blue,hexagon
110.0,6.0,1.0,1.0,1.0,1.0,483.8922629132867,2.0,1.0,phase_1,,,,,,,,,,,,,blue,hexagon
0.0,8.0,0.0,1.0,1.0,1.0,521.3693010155112,2.0,1.0,phase_1,,,,,,,,,,,,,orange,diamond
0.0,3.0,0.0,0.0,3.0,3.0,415.1001651771366,2.0,1.0,phase_1,,,,,,,,,,,,,gray,I
407.0,4.0,4.0,0.0,2.0,2.0,379.761743824929,2.0,1.0,phase_1,,,,,,,,,,,,,green,square
214.0,3.0,2.0,0.0,2.0,2.0,301.2331877835095,2.0,1.0,phase_1,,,,,,,,,,,,,gray,I
98.0,2.0,1.0,0.0,4.0,4.0,372.2422251012176,2.0,1.0,phase_1,,,,,,,,,,,,,yellow,triangle
0.0,6.0,0.0,1.0,2.0,2.0,359.2493000905961,2.0,1.0,phase_1,,,,,,,,,,,,,blue,hexagon
79.0,6.0,1.0,1.0,1.0,1.0,269.1632378846407,2.0,1.0,phase_1,,,,,,,,,,,,,blue,hexagon
0.0,1.0,0.0,0.0,4.0,4.0,330.8218671008944,2.0,1.0,phase_1,,,,,,,,,,,,,white,flipped triangle
0.0,2.0,0.0,0.0,2.0,2.0,231.1210550833493,2.0,1.0,phase_1,,,,,,,,,,,,,yellow,triangle
41.0,1.0,0.5,0.0,2.0,2.0,315.0783660821616,2.0,1.0,phase_1,,,,,,,,,,,,,white,flipped triangle
422.0,8.0,4.0,1.0,2.0,2.0,416.3553141988814,2.0,1.0,phase_1,,,,,,,,,,,,,orange,diamond
46.0,5.0,0.5,1.0,1.0,1.0,363.3913390804082,2.0,1.0,phase_1,,,,,,,,,,,,,cyan,circle
0.0,5.0,0.0,1.0,2.0,2.0,347.9774300940335,2.0,1.0,phase_1,,,,,,,,,,,,,cyan,circle
107.0,6.0,1.0,1.0,2.0,2.0,508.4793388377875,2.0,1.0,phase_1,,,,,,,,,,,,,blue,hexagon
397.0,8.0,4.0,1.0,4.0,4.0,356.1398638412356,2.0,1.0,phase_1,,,,,,,,,,,,,orange,diamond
0.0,8.0,0.0,1.0,4.0,4.0,407.8832198865711,2.0,1.0,phase_1,,,,,,,,,,,,,orange,diamond
67.0,1.0,0.5,0.0,4.0,4.0,341.4384589996189,2.0,1.0,phase_1,,,,,,,,,,,,,white,flipped triangle
185.0,7.0,2.0,1.0,4.0,4.0,345.2997538261115,2.0,1.0,phase_1,,,,,,,,,,,,,magenta,cross
398.0,8.0,4.0,1.0,3.0,3.0,367.7392988465726,2.0,1.0,phase_1,,,,,,,,,,,,,orange,diamond
97.0,2.0,1.0,0.0,1.0,1.0,349.9988778494298,2.0,2.0,phase_1,,,,,,,,,,,,,yellow,triangle
31.0,5.0,0.5,1.0,4.0,4.0,427.9255620203912,2.0,1.0,phase_1,,,,,,,,,,,,,cyan,circle
47.0,5.0,0.5,1.0,4.0,4.0,424.966491991654,2.0,1.0,phase_1,,,,,,,,,,,,,cyan,circle
117.0,6.0,1.0,1.0,4.0,4.0,375.0166341196745,2.0,1.0,phase_1,,,,,,,,,,,,,blue,hexagon
90.0,2.0,1.0,0.0,3.0,3.0,312.3475611209869,2.0,1.0,phase_1,,,,,,,,,,,,,yellow,triangle
190.0,3.0,2.0,0.0,1.0,1.0,589.2085619270802,2.0,1.0,phase_1,,,,,,,,,,,,,gray,I
177.0,7.0,2.0,1.0,1.0,1.0,549.2966868914664,2.0,1.0,phase_1,,,,,,,,,,,,,magenta,cross
74.0,5.0,0.5,1.0,3.0,3.0,495.0232729315758,2.0,1.0,phase_1,,,,,,,,,,,,,cyan,circle
57.0,5.0,0.5,1.0,3.0,3.0,347.5668299943208,2.0,1.0,phase_1,,,,,,,,,,,,,cyan,circle
50.0,1.0,0.5,0.0,4.0,4.0,377.5546168908477,2.0,1.0,phase_1,,,,,,,,,,,,,white,flipped triangle
122.0,2.0,1.0,0.0,1.0,1.0,420.7338839769363,2.0,1.0,phase_1,,,,,,,,,,,,,yellow,triangle
81.0,6.0,1.0,1.0,1.0,1.0,329.7864941414445,2.0,1.0,phase_1,,,,,,,,,,,,,blue,hexagon
110.0,6.0,1.0,1.0,1.0,1.0,407.6331909745931,2.0,1.0,phase_1,,,,,,,,,,,,,blue,hexagon
34.0,1.0,0.5,0.0,1.0,1.0,334.1778200119734,2.0,1.0,phase_1,,,,,,,,,,,,,white,flipped triangle
0.0,4.0,0.0,0.0,3.0,3.0,351.0471300687641,2.0,1.0,phase_1,,,,,,,,,,,,,green,square
205.0,3.0,2.0,0.0,4.0,4.0,318.7540308572352,2.0,1.0,phase_1,,,,,,,,,,,,,gray,I
382.0,8.0,4.0,1.0,2.0,2.0,424.4395100977272,2.0,2.0,phase_1,,,,,,,,,,,,,orange,diamond
47.0,1.0,0.5,0.0,2.0,2.0,514.3962670117617,2.0,1.0,phase_1,,,,,,,,,,,,,white,flipped triangle
79.0,6.0,1.0,1.0,4.0,4.0,375.0901180319488,2.0,1.0,phase_1,,,,,,,,,,,,,blue,hexagon
203.0,3.0,2.0,0.0,1.0,1.0,383.058869978413,2.0,1.0,phase_1,,,,,,,,,,,,,gray,I
86.0,2.0,1.0,0.0,2.0,2.0,370.7902489695698,2.0,1.0,phase_1,,,,,,,,,,,,,yellow,triangle
88.0,2.0,1.0,0.0,4.0,4.0,390.4352041427046,2.0,1.0,phase_1,,,,,,,,,,,,,yellow,triangle
376.0,4.0,4.0,0.0,3.0,3.0,449.4763500988483,2.0,1.0,phase_1,,,,,,,,,,,,,green,square
0.0,4.0,0.0,0.0,2.0,2.0,605.5212779901922,2.0,1.0,phase_1,,,,,,,,,,,,,green,square
0.0,7.0,0.0,1.0,2.0,2.0,716.5686339139938,2.0,1.0,phase_1,,,,,,,,,,,,,magenta,cross
68.0,1.0,0.5,0.0,2.0,2.0,386.6602319758385,2.0,1.0,phase_1,,,,,,,,,,,,,white,flipped triangle
56.0,5.0,0.5,1.0,1.0,1.0,445.880974875763,2.0,1.0,phase_1,,,,,,,,,,,,,cyan,circle
220.0,3.0,2.0,0.0,3.0,3.0,457.1071998216212,2.0,2.0,phase_1,,,,,,,,,,,,,gray,I
81.0,2.0,1.0,0.0,3.0,3.0,547.9589309543371,2.0,1.0,phase_1,,,,,,,,,,,,,yellow,triangle
54.0,5.0,0.5,1.0,3.0,3.0,471.8067608773708,2.0,1.0,phase_1,,,,,,,,,,,,,cyan,circle
67.0,1.0,0.5,0.0,3.0,3.0,431.3575329724699,2.0,1.0,phase_1,,,,,,,,,,,,,white,flipped triangle
376.0,8.0,4.0,1.0,1.0,1.0,472.9549051262438,2.0,1.0,phase_1,,,,,,,,,,,,,orange,diamond
418.0,8.0,4.0,1.0,2.0,2.0,336.4130011759698,2.0,1.0,phase_1,,,,,,,,,,,,,orange,diamond
195.0,7.0,2.0,1.0,3.0,3.0,364.6933229174465,2.0,1.0,phase_1,,,,,,,,,,,,,magenta,cross
123.0,6.0,1.0,1.0,2.0,2.0,430.7569121010601,2.0,1.0,phase_1,,,,,,,,,,,,,blue,hexagon
0.0,5.0,0.0,1.0,1.0,1.0,366.361625958234,2.0,1.0,phase_1,,,,,,,,,,,,,cyan,circle
216.0,3.0,2.0,0.0,2.0,2.0,400.3019970841706,2.0,1.0,phase_1,,,,,,,,,,,,,gray,I
191.0,7.0,2.0,1.0,4.0,4.0,357.6873780693859,2.0,1.0,phase_1,,,,,,,,,,,,,magenta,cross
0.0,5.0,0.0,1.0,4.0,4.0,412.4111470300704,2.0,1.0,phase_1,,,,,,,,,,,,,cyan,circle
417.0,4.0,4.0,0.0,4.0,4.0,333.4237700328231,2.0,1.0,phase_1,,,,,,,,,,,,,green,square
176.0,3.0,2.0,0.0,2.0,2.0,467.8552930708974,2.0,1.0,phase_1,,,,,,,,,,,,,gray,I
32.0,1.0,0.5,0.0,2.0,2.0,402.4125670548528,2.0,1.0,phase_1,,,,,,,,,,,,,white,flipped triangle
177.0,3.0,2.0,0.0,3.0,3.0,508.51958990097046,2.0,1.0,phase_1,,,,,,,,,,,,,gray,I
91.0,2.0,1.0,0.0,1.0,1.0,432.049737079069,2.0,1.0,phase_1,,,,,,,,,,,,,yellow,triangle
392.0,4.0,4.0,0.0,2.0,2.0,374.8839518520981,2.0,1.0,phase_1,,,,,,,,,,,,,green,square
87.0,6.0,1.0,1.0,4.0,4.0,380.0097508355975,2.0,1.0,phase_1,,,,,,,,,,,,,blue,hexagon
99.0,6.0,1.0,1.0,3.0,3.0,414.3287842161953,2.0,1.0,phase_1,,,,,,,,,,,,,blue,hexagon
403.0,4.0,4.0,0.0,3.0,3.0,446.3259221520275,2.0,1.0,phase_1,,,,,,,,,,,,,green,square
176.0,7.0,2.0,1.0,1.0,1.0,466.4998799562454,2.0,1.0,phase_1,,,,,,,,,,,,,magenta,cross
201.0,3.0,2.0,0.0,4.0,4.0,453.2905919477343,2.0,1.0,phase_1,,,,,,,,,,,,,gray,I
26.0,1.0,0.5,0.0,1.0,1.0,507.9601739998907,2.0,1.0,phase_1,,,,,,,,,,,,,white,flipped triangle
187.0,3.0,2.0,0.0,4.0,4.0,562.6612061168998,2.0,1.0,phase_1,,,,,,,,,,,,,gray,I
79.0,6.0,1.0,1.0,3.0,3.0,540.292854886502,2.0,1.0,phase_1,,,,,,,,,,,,,blue,hexagon
32.0,1.0,0.5,0.0,3.0,3.0,386.6811110638082,2.0,1.0,phase_1,,,,,,,,,,,,,white,flipped triangle
392.0,4.0,4.0,0.0,1.0,1.0,470.8308659028262,2.0,1.0,phase_1,,,,,,,,,,,,,green,square
0.0,8.0,0.0,1.0,1.0,1.0,369.5935651194304,2.0,1.0,phase_1,,,,,,,,,,,,,orange,diamond
103.0,6.0,1.0,1.0,3.0,3.0,367.556570097804,2.0,1.0,phase_1,,,,,,,,,,,,,blue,hexagon
97.0,2.0,1.0,0.0,2.0,2.0,386.1961069051176,2.0,1.0,phase_1,,,,,,,,,,,,,yellow,triangle
407.0,8.0,4.0,1.0,3.0,3.0,392.476717941463,2.0,1.0,phase_1,,,,,,,,,,,,,orange,diamond
213.0,3.0,2.0,0.0,4.0,4.0,342.3664199654013,2.0,1.0,phase_1,,,,,,,,,,,,,gray,I
74.0,1.0,0.5,0.0,1.0,1.0,346.7559281270951,2.0,1.0,phase_1,,,,,,,,,,,,,white,flipped triangle
189.0,7.0,2.0,1.0,3.0,3.0,368.9210498705506,2.0,1.0,phase_1,,,,,,,,,,,,,magenta,cross
0.0,1.0,0.0,0.0,1.0,1.0,347.6011969614774,2.0,1.0,phase_1,,,,,,,,,,,,,white,flipped triangle
46.0,1.0,0.5,0.0,2.0,2.0,360.2908400353044,2.0,1.0,phase_1,,,,,,,,,,,,,white,flipped triangle
377.0,4.0,4.0,0.0,1.0,1.0,326.5782929956913,2.0,1.0,phase_1,,,,,,,,,,,,,green,square
67.0,5.0,0.5,1.0,4.0,4.0,458.3662569057196,2.0,1.0,phase_1,,,,,,,,,,,,,cyan,circle
99.0,2.0,1.0,0.0,2.0,2.0,439.7659131791442,2.0,1.0,phase_1,,,,,,,,,,,,,yellow,triangle
34.0,5.0,0.5,1.0,2.0,2.0,346.989386016503,2.0,1.0,phase_1,,,,,,,,,,,,,cyan,circle
375.0,8.0,4.0,1.0,1.0,1.0,334.3954321462661,2.0,1.0,phase_1,,,,,,,,,,,,,orange,diamond
0.0,2.0,0.0,0.0,2.0,2.0,292.5613750703633,2.0,1.0,phase_1,,,,,,,,,,,,,yellow,triangle
220.0,7.0,2.0,1.0,2.0,2.0,350.4098351113498,2.0,1.0,phase_1,,,,,,,,,,,,,magenta,cross
401.0,8.0,4.0,1.0,1.0,1.0,268.428434850648,2.0,1.0,phase_1,,,,,,,,,,,,,orange,diamond
414.0,8.0,4.0,1.0,4.0,4.0,322.6797939278185,2.0,1.0,phase_1,,,,,,,,,,,,,orange,diamond
0.0,2.0,0.0,0.0,4.0,4.0,398.9619340281933,2.0,1.0,phase_1,,,,,,,,,,,,,yellow,triangle
97.0,6.0,1.0,1.0,1.0,1.0,409.4928349368274,2.0,1.0,phase_1,,,,,,,,,,,,,blue,hexagon
418.0,8.0,4.0,1.0,3.0,3.0,351.2934669852257,2.0,1.0,phase_1,,,,,,,,,,,,,orange,diamond
0.0,1.0,0.0,0.0,2.0,2.0,411.6946158464998,2.0,1.0,phase_1,,,,,,,,,,,,,white,flipped triangle
0.0,5.0,0.0,1.0,2.0,2.0,356.6158718895167,3.0,1.0,phase_1,,,,,,,,,,,,,cyan,circle
48.0,5.0,0.5,1.0,1.0,1.0,360.7581220567226,3.0,1.0,phase_1,,,,,,,,,,,,,cyan,circle
194.0,3.0,2.0,0.0,4.0,4.0,339.5886390935629,3.0,1.0,phase_1,,,,,,,,,,,,,gray,I
40.0,5.0,0.5,1.0,1.0,1.0,249.5543388649821,3.0,1.0,phase_1,,,,,,,,,,,,,cyan,circle
31.0,5.0,0.5,1.0,3.0,3.0,364.1373768914491,3.0,1.0,phase_1,,,,,,,,,,,,,cyan,circle
183.0,3.0,2.0,0.0,2.0,2.0,360.5616618879139,3.0,1.0,phase_1,,,,,,,,,,,,,gray,I
0.0,2.0,0.0,0.0,1.0,1.0,376.7791229765862,3.0,1.0,phase_1,,,,,,,,,,,,,yellow,triangle
217.0,7.0,2.0,1.0,4.0,4.0,282.1903380099684,3.0,1.0,phase_1,,,,,,,,,,,,,magenta,cross
62.0,5.0,0.5,1.0,3.0,3.0,480.0980330910533,3.0,1.0,phase_1,,,,,,,,,,,,,cyan,circle
191.0,3.0,2.0,0.0,1.0,1.0,356.8095930386334,3.0,1.0,phase_1,,,,,,,,,,,,,gray,I
99.0,2.0,1.0,0.0,2.0,2.0,341.0443388856947,3.0,1.0,phase_1,,,,,,,,,,,,,yellow,triangle
177.0,3.0,2.0,0.0,2.0,2.0,445.2084130607545,3.0,1.0,phase_1,,,,,,,,,,,,,gray,I
62.0,5.0,0.5,1.0,4.0,4.0,380.751890828833,3.0,1.0,phase_1,,,,,,,,,,,,,cyan,circle
56.0,1.0,0.5,0.0,1.0,1.0,297.8891942184418,3.0,1.0,phase_1,,,,,,,,,,,,,white,flipped triangle
110.0,2.0,1.0,0.0,1.0,1.0,430.0225889310241,3.0,1.0,phase_1,,,,,,,,,,,,,yellow,triangle
201.0,7.0,2.0,1.0,2.0,2.0,368.600299814716,3.0,1.0,phase_1,,,,,,,,,,,,,magenta,cross
113.0,6.0,1.0,1.0,4.0,4.0,509.39727388322353,3.0,1.0,phase_1,,,,,,,,,,,,,blue,hexagon
89.0,6.0,1.0,1.0,3.0,3.0,450.4559889901429,3.0,1.0,phase_1,,,,,,,,,,,,,blue,hexagon
0.0,7.0,0.0,1.0,1.0,1.0,281.4340412151068,3.0,1.0,phase_1,,,,,,,,,,,,,magenta,cross
86.0,2.0,1.0,0.0,3.0,3.0,363.8721480965614,3.0,1.0,phase_1,,,,,,,,,,,,,yellow,triangle
418.0,4.0,4.0,0.0,2.0,2.0,416.2285500206053,3.0,1.0,phase_1,,,,,,,,,,,,,green,square
0.0,3.0,0.0,0.0,2.0,2.0,459.5020308624953,3.0,1.0,phase_1,,,,,,,,,,,,,gray,I
417.0,8.0,4.0,1.0,4.0,4.0,364.682839019224,3.0,1.0,phase_1,,,,,,,,,,,,,orange,diamond
0.0,6.0,0.0,1.0,4.0,4.0,464.3025801051408,3.0,1.0,phase_1,,,,,,,,,,,,,blue,hexagon
50.0,5.0,0.5,1.0,3.0,3.0,388.3321150206029,3.0,1.0,phase_1,,,,,,,,,,,,,cyan,circle
404.0,4.0,4.0,0.0,1.0,1.0,294.5601800456643,3.0,1.0,phase_1,,,,,,,,,,,,,green,square
65.0,5.0,0.5,1.0,4.0,4.0,325.2538228407502,3.0,1.0,phase_1,,,,,,,,,,,,,cyan,circle
393.0,8.0,4.0,1.0,1.0,1.0,305.2845860365778,3.0,1.0,phase_1,,,,,,,,,,,,,orange,diamond
32.0,5.0,0.5,1.0,2.0,2.0,397.5483661051839,3.0,1.0,phase_1,,,,,,,,,,,,,cyan,circle
221.0,3.0,2.0,0.0,4.0,4.0,426.6366818919778,3.0,1.0,phase_1,,,,,,,,,,,,,gray,I
189.0,3.0,2.0,0.0,3.0,3.0,360.5769220739603,3.0,1.0,phase_1,,,,,,,,,,,,,gray,I
40.0,1.0,0.5,0.0,3.0,3.0,331.8205398973077,3.0,1.0,phase_1,,,,,,,,,,,,,white,flipped triangle
59.0,5.0,0.5,1.0,2.0,2.0,415.1584040373564,3.0,1.0,phase_1,,,,,,,,,,,,,cyan,circle
89.0,2.0,1.0,0.0,4.0,4.0,438.6922451667487,3.0,1.0,phase_1,,,,,,,,,,,,,yellow,triangle
61.0,1.0,0.5,0.0,3.0,3.0,392.7441881969571,3.0,1.0,phase_1,,,,,,,,,,,,,white,flipped triangle
67.0,5.0,0.5,1.0,2.0,2.0,341.4063509553671,3.0,1.0,phase_1,,,,,,,,,,,,,cyan,circle
92.0,6.0,1.0,1.0,3.0,3.0,389.9502749554813,3.0,1.0,phase_1,,,,,,,,,,,,,blue,hexagon
0.0,2.0,0.0,0.0,3.0,3.0,394.0397999249398,3.0,1.0,phase_1,,,,,,,,,,,,,yellow,triangle
403.0,4.0,4.0,0.0,2.0,2.0,347.4272298626601,3.0,1.0,phase_1,,,,,,,,,,,,,green,square
208.0,7.0,2.0,1.0,3.0,3.0,372.4135200027376,3.0,1.0,phase_1,,,,,,,,,,,,,magenta,cross
377.0,8.0,4.0,1.0,2.0,2.0,358.1253450829536,3.0,1.0,phase_1,,,,,,,,,,,,,orange,diamond
376.0,4.0,4.0,0.0,4.0,4.0,436.3619401119649,3.0,1.0,phase_1,,,,,,,,,,,,,green,square
181.0,3.0,2.0,0.0,3.0,3.0,362.450199900195,3.0,1.0,phase_1,,,,,,,,,,,,,gray,I
399.0,8.0,4.0,1.0,2.0,2.0,397.9857829399407,3.0,1.0,phase_1,,,,,,,,,,,,,orange,diamond
99.0,6.0,1.0,1.0,3.0,3.0,355.4027900099754,3.0,1.0,phase_1,,,,,,,,,,,,,blue,hexagon
0.0,3.0,0.0,0.0,4.0,4.0,382.5377910397947,3.0,1.0,phase_1,,,,,,,,,,,,,gray,I
395.0,8.0,4.0,1.0,1.0,1.0,410.7990190386772,3.0,1.0,phase_1,,,,,,,,,,,,,orange,diamond
55.0,1.0,0.5,0.0,3.0,3.0,337.2506459709257,3.0,1.0,phase_1,,,,,,,,,,,,,white,flipped triangle
86.0,6.0,1.0,1.0,3.0,3.0,458.455208921805,3.0,1.0,phase_1,,,,,,,,,,,,,blue,hexagon
0.0,7.0,0.0,1.0,3.0,3.0,330.418701050803,3.0,1.0,phase_1,,,,,,,,,,,,,magenta,cross
406.0,4.0,4.0,0.0,4.0,4.0,623.850614996627,3.0,1.0,phase_1,,,,,,,,,,,,,green,square
32.0,5.0,0.5,1.0,1.0,1.0,385.5414930731058,3.0,1.0,phase_1,,,,,,,,,,,,,cyan,circle
418.0,4.0,4.0,0.0,2.0,2.0,293.2089369278401,3.0,1.0,phase_1,,,,,,,,,,,,,green,square
416.0,4.0,4.0,0.0,2.0,2.0,322.7475651074201,3.0,1.0,phase_1,,,,,,,,,,,,,green,square
210.0,7.0,2.0,1.0,1.0,1.0,385.6704351492226,3.0,1.0,phase_1,,,,,,,,,,,,,magenta,cross
223.0,7.0,2.0,1.0,1.0,1.0,342.1546299941838,3.0,1.0,phase_1,,,,,,,,,,,,,magenta,cross
110.0,2.0,1.0,0.0,4.0,4.0,379.7068370040506,3.0,1.0,phase_1,,,,,,,,,,,,,yellow,triangle
382.0,4.0,4.0,0.0,4.0,4.0,495.8572639152407,3.0,1.0,phase_1,,,,,,,,,,,,,green,square
401.0,4.0,4.0,0.0,3.0,3.0,476.2477381154895,3.0,1.0,phase_1,,,,,,,,,,,,,green,square
221.0,7.0,2.0,1.0,3.0,3.0,414.3385540228337,3.0,1.0,phase_1,,,,,,,,,,,,,magenta,cross
214.0,7.0,2.0,1.0,3.0,3.0,411.225747782737,3.0,1.0,phase_1,,,,,,,,,,,,,magenta,cross
26.0,5.0,0.5,1.0,4.0,4.0,464.2062650527805,3.0,1.0,phase_1,,,,,,,,,,,,,cyan,circle
422.0,4.0,4.0,0.0,4.0,4.0,358.412193832919,3.0,1.0,phase_1,,,,,,,,,,,,,green,square
191.0,7.0,2.0,1.0,4.0,4.0,329.0903139859438,3.0,1.0,phase_1,,,,,,,,,,,,,magenta,cross
47.0,1.0,0.5,0.0,2.0,2.0,376.6898259054869,3.0,1.0,phase_1,,,,,,,,,,,,,white,flipped triangle
179.0,7.0,2.0,1.0,3.0,3.0,422.072249930352,3.0,1.0,phase_1,,,,,,,,,,,,,magenta,cross
409.0,4.0,4.0,0.0,2.0,2.0,311.7031489964574,3.0,1.0,phase_1,,,,,,,,,,,,,green,square
382.0,4.0,4.0,0.0,3.0,3.0,412.2560541145503,3.0,1.0,phase_1,,,,,,,,,,,,,green,square
182.0,3.0,2.0,0.0,1.0,1.0,379.2446758598089,3.0,1.0,phase_1,,,,,,,,,,,,,gray,I
31.0,1.0,0.5,0.0,3.0,3.0,440.0660139508545,3.0,1.0,phase_1,,,,,,,,,,,,,white,flipped triangle
203.0,7.0,2.0,1.0,1.0,1.0,452.1566380281001,3.0,1.0,phase_1,,,,,,,,,,,,,magenta,cross
422.0,8.0,4.0,1.0,3.0,3.0,426.5881851315498,3.0,1.0,phase_1,,,,,,,,,,,,,orange,diamond
0.0,4.0,0.0,0.0,1.0,1.0,435.6454131193459,3.0,1.0,phase_1,,,,,,,,,,,,,green,square
407.0,8.0,4.0,1.0,3.0,3.0,359.8143190611154,3.0,1.0,phase_1,,,,,,,,,,,,,orange,diamond
63.0,1.0,0.5,0.0,2.0,2.0,383.2937669940293,3.0,1.0,phase_1,,,,,,,,,,,,,white,flipped triangle
220.0,3.0,2.0,0.0,2.0,2.0,408.9635610580444,3.0,1.0,phase_1,,,,,,,,,,,,,gray,I
214.0,7.0,2.0,1.0,2.0,2.0,398.5966008622199,3.0,1.0,phase_1,,,,,,,,,,,,,magenta,cross
0.0,7.0,0.0,1.0,3.0,3.0,395.1222889591008,3.0,1.0,phase_1,,,,,,,,,,,,,magenta,cross
100.0,6.0,1.0,1.0,2.0,2.0,377.0840468350798,3.0,1.0,phase_1,,,,,,,,,,,,,blue,hexagon
410.0,4.0,4.0,0.0,4.0,4.0,359.4450990203768,3.0,1.0,phase_1,,,,,,,,,,,,,green,square
214.0,7.0,2.0,1.0,4.0,4.0,388.5131541173905,3.0,1.0,phase_1,,,,,,,,,,,,,magenta,cross
122.0,2.0,1.0,0.0,3.0,3.0,383.2754460163414,3.0,1.0,phase_1,,,,,,,,,,,,,yellow,triangle
116.0,6.0,1.0,1.0,4.0,4.0,331.8537310697138,3.0,1.0,phase_1,,,,,,,,,,,,,blue,hexagon
113.0,2.0,1.0,0.0,2.0,2.0,377.2952801082283,3.0,1.0,phase_1,,,,,,,,,,,,,yellow,triangle
0.0,2.0,0.0,0.0,3.0,3.0,387.9190699663013,3.0,1.0,phase_1,,,,,,,,,,,,,yellow,triangle
107.0,2.0,1.0,0.0,1.0,1.0,394.9045718181878,3.0,1.0,phase_1,,,,,,,,,,,,,yellow,triangle
203.0,7.0,2.0,1.0,4.0,4.0,357.2202799841761,3.0,1.0,phase_1,,,,,,,,,,,,,magenta,cross
217.0,3.0,2.0,0.0,2.0,2.0,337.7987809944898,3.0,1.0,phase_1,,,,,,,,,,,,,gray,I
208.0,3.0,2.0,0.0,3.0,3.0,390.0881418958306,3.0,1.0,phase_1,,,,,,,,,,,,,gray,I
197.0,7.0,2.0,1.0,2.0,2.0,340.2590651530772,3.0,1.0,phase_1,,,,,,,,,,,,,magenta,cross
387.0,4.0,4.0,0.0,2.0,2.0,399.5681530795991,3.0,1.0,phase_1,,,,,,,,,,,,,green,square
187.0,7.0,2.0,1.0,2.0,2.0,318.65406781435007,3.0,1.0,phase_1,,,,,,,,,,,,,magenta,cross
395.0,4.0,4.0,0.0,1.0,1.0,356.5193768590688,3.0,1.0,phase_1,,,,,,,,,,,,,green,square
179.0,3.0,2.0,0.0,4.0,4.0,343.2950770948082,3.0,1.0,phase_1,,,,,,,,,,,,,gray,I
0.0,5.0,0.0,1.0,1.0,1.0,322.279246058315,3.0,1.0,phase_1,,,,,,,,,,,,,cyan,circle
217.0,7.0,2.0,1.0,3.0,3.0,378.1573798041791,3.0,1.0,phase_1,,,,,,,,,,,,,magenta,cross
35.0,5.0,0.5,1.0,1.0,1.0,453.5090150311589,3.0,1.0,phase_1,,,,,,,,,,,,,cyan,circle
54.0,1.0,0.5,0.0,1.0,1.0,336.6693689022213,3.0,1.0,phase_1,,,,,,,,,,,,,white,flipped triangle
0.0,4.0,0.0,0.0,2.0,2.0,364.9343140423298,3.0,1.0,phase_1,,,,,,,,,,,,,green,square
393.0,4.0,4.0,0.0,1.0,1.0,371.9136097934097,3.0,1.0,phase_1,,,,,,,,,,,,,green,square
98.0,6.0,1.0,1.0,4.0,4.0,333.2226548809558,4.0,1.0,phase_1,,,,,,,,,,,,,blue,hexagon
0.0,8.0,0.0,1.0,2.0,2.0,285.8534720726311,4.0,1.0,phase_1,,,,,,,,,,,,,orange,diamond
107.0,2.0,1.0,0.0,1.0,1.0,298.1402659788728,4.0,1.0,phase_1,,,,,,,,,,,,,yellow,triangle
205.0,7.0,2.0,1.0,2.0,2.0,425.045542884618,4.0,1.0,phase_1,,,,,,,,,,,,,magenta,cross
394.0,8.0,4.0,1.0,1.0,1.0,333.265271037817,4.0,1.0,phase_1,,,,,,,,,,,,,orange,diamond
55.0,5.0,0.5,1.0,2.0,2.0,436.103779124096,4.0,1.0,phase_1,,,,,,,,,,,,,cyan,circle
0.0,1.0,0.0,0.0,4.0,4.0,343.8807721249759,4.0,1.0,phase_1,,,,,,,,,,,,,white,flipped triangle
381.0,8.0,4.0,1.0,1.0,1.0,322.735290043056,4.0,1.0,phase_1,,,,,,,,,,,,,orange,diamond
186.0,3.0,2.0,0.0,4.0,4.0,326.7708029597997,4.0,1.0,phase_1,,,,,,,,,,,,,gray,I
93.0,2.0,1.0,0.0,2.0,2.0,317.4170709680766,4.0,1.0,phase_1,,,,,,,,,,,,,yellow,triangle
203.0,3.0,2.0,0.0,3.0,3.0,384.8099911119789,4.0,1.0,phase_1,,,,,,,,,,,,,gray,I
71.0,5.0,0.5,1.0,3.0,3.0,349.5148620568216,4.0,1.0,phase_1,,,,,,,,,,,,,cyan,circle
399.0,4.0,4.0,0.0,2.0,2.0,468.0051601026207,4.0,1.0,phase_1,,,,,,,,,,,,,green,square
60.0,5.0,0.5,1.0,2.0,2.0,376.500264974311,4.0,1.0,phase_1,,,,,,,,,,,,,cyan,circle
195.0,3.0,2.0,0.0,3.0,3.0,347.5726069882512,4.0,1.0,phase_1,,,,,,,,,,,,,gray,I
86.0,6.0,1.0,1.0,4.0,4.0,344.2997760139406,4.0,1.0,phase_1,,,,,,,,,,,,,blue,hexagon
105.0,6.0,1.0,1.0,1.0,1.0,348.5651209484786,4.0,2.0,phase_1,,,,,,,,,,,,,blue,hexagon
185.0,3.0,2.0,0.0,1.0,1.0,431.3256649766117,4.0,1.0,phase_1,,,,,,,,,,,,,gray,I
217.0,3.0,2.0,0.0,4.0,4.0,758.289268007502,4.0,1.0,phase_1,,,,,,,,,,,,,gray,I
416.0,4.0,4.0,0.0,4.0,4.0,537.5524580013007,4.0,1.0,phase_1,,,,,,,,,,,,,green,square
0.0,3.0,0.0,0.0,3.0,3.0,302.657000022009,4.0,1.0,phase_1,,,,,,,,,,,,,gray,I
414.0,4.0,4.0,0.0,3.0,3.0,273.3942959457636,4.0,1.0,phase_1,,,,,,,,,,,,,green,square
0.0,8.0,0.0,1.0,4.0,4.0,374.6318218763917,4.0,1.0,phase_1,,,,,,,,,,,,,orange,diamond
0.0,3.0,0.0,0.0,1.0,1.0,353.6963269580155,4.0,1.0,phase_1,,,,,,,,,,,,,gray,I
0.0,2.0,0.0,0.0,4.0,4.0,305.9999980032444,4.0,1.0,phase_1,,,,,,,,,,,,,yellow,triangle
390.0,8.0,4.0,1.0,4.0,4.0,309.8860688041895,4.0,1.0,phase_1,,,,,,,,,,,,,orange,diamond
0.0,8.0,0.0,1.0,1.0,1.0,362.7245649695396,4.0,3.0,phase_1,,,,,,,,,,,,,orange,diamond
35.0,1.0,0.5,0.0,4.0,4.0,432.5018308591097,4.0,1.0,phase_1,,,,,,,,,,,,,white,flipped triangle
216.0,7.0,2.0,1.0,2.0,2.0,547.1950599458069,4.0,1.0,phase_1,,,,,,,,,,,,,magenta,cross
63.0,5.0,0.5,1.0,1.0,1.0,383.0235130153596,4.0,1.0,phase_1,,,,,,,,,,,,,cyan,circle
82.0,2.0,1.0,0.0,3.0,3.0,300.7021390367299,4.0,1.0,phase_1,,,,,,,,,,,,,yellow,triangle
0.0,5.0,0.0,1.0,3.0,3.0,364.0026240609586,4.0,1.0,phase_1,,,,,,,,,,,,,cyan,circle
57.0,1.0,0.5,0.0,1.0,1.0,389.0130477957427,4.0,1.0,phase_1,,,,,,,,,,,,,white,flipped triangle
31.0,1.0,0.5,0.0,1.0,1.0,362.8125090617686,4.0,1.0,phase_1,,,,,,,,,,,,,white,flipped triangle
28.0,5.0,0.5,1.0,2.0,2.0,447.6677200291306,4.0,1.0,phase_1,,,,,,,,,,,,,cyan,circle
403.0,8.0,4.0,1.0,2.0,2.0,363.4822100866586,4.0,1.0,phase_1,,,,,,,,,,,,,orange,diamond
93.0,6.0,1.0,1.0,2.0,2.0,328.4275769256055,4.0,1.0,phase_1,,,,,,,,,,,,,blue,hexagon
0.0,1.0,0.0,0.0,1.0,1.0,311.4925599656999,4.0,1.0,phase_1,,,,,,,,,,,,,white,flipped triangle
106.0,2.0,1.0,0.0,4.0,4.0,369.3412288557738,4.0,1.0,phase_1,,,,,,,,,,,,,yellow,triangle
399.0,8.0,4.0,1.0,2.0,2.0,384.7097540274262,4.0,1.0,phase_1,,,,,,,,,,,,,orange,diamond
0.0,2.0,0.0,0.0,3.0,3.0,331.9396548904478,4.0,1.0,phase_1,,,,,,,,,,,,,yellow,triangle
0.0,8.0,0.0,1.0,3.0,3.0,354.093749076128,4.0,1.0,phase_1,,,,,,,,,,,,,orange,diamond
214.0,3.0,2.0,0.0,1.0,1.0,327.3667260073125,4.0,1.0,phase_1,,,,,,,,,,,,,gray,I
0.0,2.0,0.0,0.0,2.0,2.0,481.1758399009704,4.0,2.0,phase_1,,,,,,,,,,,,,yellow,triangle
74.0,1.0,0.5,0.0,3.0,3.0,516.8180249165744,4.0,1.0,phase_1,,,,,,,,,,,,,white,flipped triangle
223.0,3.0,2.0,0.0,1.0,1.0,394.7412951383739,4.0,1.0,phase_1,,,,,,,,,,,,,gray,I
122.0,6.0,1.0,1.0,2.0,2.0,292.3513120040297,4.0,1.0,phase_1,,,,,,,,,,,,,blue,hexagon
121.0,2.0,1.0,0.0,4.0,4.0,362.7101718448102,4.0,1.0,phase_1,,,,,,,,,,,,,yellow,triangle
197.0,3.0,2.0,0.0,4.0,4.0,328.6991300992667,4.0,1.0,phase_1,,,,,,,,,,,,,gray,I
187.0,7.0,2.0,1.0,1.0,1.0,337.4192051123827,4.0,1.0,phase_1,,,,,,,,,,,,,magenta,cross
385.0,8.0,4.0,1.0,3.0,3.0,488.0861130077392,4.0,1.0,phase_1,,,,,,,,,,,,,orange,diamond
186.0,7.0,2.0,1.0,1.0,1.0,395.7780408672988,4.0,1.0,phase_1,,,,,,,,,,,,,magenta,cross
77.0,2.0,1.0,0.0,2.0,2.0,335.4320998769253,4.0,1.0,phase_1,,,,,,,,,,,,,yellow,triangle
183.0,7.0,2.0,1.0,2.0,2.0,364.4889141432941,4.0,1.0,phase_1,,,,,,,,,,,,,magenta,cross
110.0,2.0,1.0,0.0,3.0,3.0,361.2977070733905,4.0,1.0,phase_1,,,,,,,,,,,,,yellow,triangle
62.0,1.0,0.5,0.0,3.0,3.0,383.792249020189,4.0,1.0,phase_1,,,,,,,,,,,,,white,flipped triangle
60.0,1.0,0.5,0.0,4.0,4.0,346.4150400832295,4.0,2.0,phase_1,,,,,,,,,,,,,white,flipped triangle
0.0,7.0,0.0,1.0,3.0,3.0,420.3441329300403,4.0,1.0,phase_1,,,,,,,,,,,,,magenta,cross
0.0,3.0,0.0,0.0,4.0,4.0,355.0500459969044,4.0,1.0,phase_1,,,,,,,,,,,,,gray,I
404.0,8.0,4.0,1.0,4.0,4.0,333.5981681011617,4.0,1.0,phase_1,,,,,,,,,,,,,orange,diamond
387.0,8.0,4.0,1.0,2.0,2.0,395.7600090652704,4.0,1.0,phase_1,,,,,,,,,,,,,orange,diamond
88.0,6.0,1.0,1.0,1.0,1.0,465.6929709017277,4.0,1.0,phase_1,,,,,,,,,,,,,blue,hexagon
28.0,5.0,0.5,1.0,3.0,3.0,429.3922311626374,4.0,1.0,phase_1,,,,,,,,,,,,,cyan,circle
123.0,2.0,1.0,0.0,1.0,1.0,359.487485140562,4.0,1.0,phase_1,,,,,,,,,,,,,yellow,triangle
107.0,6.0,1.0,1.0,1.0,1.0,327.4470181204378,4.0,1.0,phase_1,,,,,,,,,,,,,blue,hexagon
39.0,5.0,0.5,1.0,1.0,1.0,324.6758079621941,4.0,1.0,phase_1,,,,,,,,,,,,,cyan,circle
0.0,3.0,0.0,0.0,4.0,4.0,359.9576589185744,4.0,1.0,phase_1,,,,,,,,,,,,,gray,I
79.0,2.0,1.0,0.0,4.0,4.0,314.3703830428421,4.0,1.0,phase_1,,,,,,,,,,,,,yellow,triangle
407.0,4.0,4.0,0.0,1.0,1.0,271.4018470142036,4.0,1.0,phase_1,,,,,,,,,,,,,green,square
28.0,1.0,0.5,0.0,2.0,2.0,293.9455239102244,4.0,1.0,phase_1,,,,,,,,,,,,,white,flipped triangle
104.0,2.0,1.0,0.0,3.0,3.0,314.5591269712895,4.0,1.0,phase_1,,,,,,,,,,,,,yellow,triangle
117.0,6.0,1.0,1.0,1.0,1.0,384.6158881206065,4.0,1.0,phase_1,,,,,,,,,,,,,blue,hexagon
77.0,6.0,1.0,1.0,3.0,3.0,323.0662120040506,4.0,1.0,phase_1,,,,,,,,,,,,,blue,hexagon
0.0,6.0,0.0,1.0,2.0,2.0,361.3950791768729,4.0,1.0,phase_1,,,,,,,,,,,,,blue,hexagon
392.0,8.0,4.0,1.0,3.0,3.0,413.001021835953,4.0,1.0,phase_1,,,,,,,,,,,,,orange,diamond
220.0,7.0,2.0,1.0,2.0,2.0,379.6429149806499,4.0,1.0,phase_1,,,,,,,,,,,,,magenta,cross
191.0,3.0,2.0,0.0,3.0,3.0,366.6101789567619,4.0,1.0,phase_1,,,,,,,,,,,,,gray,I
116.0,2.0,1.0,0.0,3.0,3.0,339.1121150925755,4.0,1.0,phase_1,,,,,,,,,,,,,yellow,triangle
0.0,7.0,0.0,1.0,3.0,3.0,374.9566751066595,4.0,1.0,phase_1,,,,,,,,,,,,,magenta,cross
0.0,1.0,0.0,0.0,4.0,4.0,366.4676521439105,4.0,1.0,phase_1,,,,,,,,,,,,,white,flipped triangle
0.0,5.0,0.0,1.0,3.0,3.0,395.6514180172235,4.0,1.0,phase_1,,,,,,,,,,,,,cyan,circle
0.0,4.0,0.0,0.0,2.0,2.0,331.6795080900192,4.0,1.0,phase_1,,,,,,,,,,,,,green,square
0.0,6.0,0.0,1.0,3.0,3.0,363.9387600123882,4.0,1.0,phase_1,,,,,,,,,,,,,blue,hexagon
0.0,3.0,0.0,0.0,3.0,3.0,309.4295258633792,4.0,1.0,phase_1,,,,,,,,,,,,,gray,I
104.0,6.0,1.0,1.0,4.0,4.0,317.2469700220972,4.0,1.0,phase_1,,,,,,,,,,,,,blue,hexagon
0.0,7.0,0.0,1.0,3.0,3.0,370.5325990449637,4.0,1.0,phase_1,,,,,,,,,,,,,magenta,cross
47.0,5.0,0.5,1.0,2.0,2.0,444.3390250671655,4.0,1.0,phase_1,,,,,,,,,,,,,cyan,circle
0.0,8.0,0.0,1.0,1.0,1.0,378.7229789886623,4.0,1.0,phase_1,,,,,,,,,,,,,orange,diamond
103.0,2.0,1.0,0.0,2.0,2.0,321.5450141578913,4.0,2.0,phase_1,,,,,,,,,,,,,yellow,triangle
0.0,5.0,0.0,1.0,1.0,1.0,314.1653859056532,4.0,1.0,phase_1,,,,,,,,,,,,,cyan,circle
106.0,6.0,1.0,1.0,1.0,1.0,310.3145621716976,4.0,1.0,phase_1,,,,,,,,,,,,,blue,hexagon
412.0,4.0,4.0,0.0,3.0,3.0,434.0846920385957,4.0,1.0,phase_1,,,,,,,,,,,,,green,square
117.0,2.0,1.0,0.0,3.0,3.0,374.8795702122152,4.0,1.0,phase_1,,,,,,,,,,,,,yellow,triangle
390.0,4.0,4.0,0.0,3.0,3.0,345.7719220314175,4.0,1.0,phase_1,,,,,,,,,,,,,green,square
31.0,1.0,0.5,0.0,2.0,2.0,384.1943428851664,4.0,1.0,phase_1,,,,,,,,,,,,,white,flipped triangle
0.0,4.0,0.0,0.0,1.0,1.0,420.5303250346333,4.0,1.0,phase_1,,,,,,,,,,,,,green,square
182.0,7.0,2.0,1.0,3.0,3.0,608.4624049253762,4.0,1.0,phase_1,,,,,,,,,,,,,magenta,cross
422.0,4.0,4.0,0.0,1.0,1.0,359.0773141477257,4.0,1.0,phase_1,,,,,,,,,,,,,green,square
117.0,2.0,1.0,0.0,2.0,2.0,449.5218100491911,4.0,1.0,phase_1,,,,,,,,,,,,,yellow,triangle
122.0,6.0,1.0,1.0,3.0,3.0,384.4653849955648,4.0,1.0,phase_1,,,,,,,,,,,,,blue,hexagon
0.0,2.0,1.0,0.0,5.0,5.0,468.8392700627446,1.0,1.0,phase_2,go,250.0,250.0,1.0,,,,,,,,,yellow,triangle
0.0,6.0,1.0,1.0,6.0,0.0,0.0,1.0,1.0,phase_2,stop,250.0,250.0,4.0,,,,,,,,,blue,hexagon
0.0,1.0,0.5,0.0,6.0,6.0,327.3302130401134,1.0,1.0,phase_2,go,250.0,300.0,1.0,,,,,,,,,white,flipped triangle
0.0,4.0,4.0,0.0,6.0,6.0,298.1506229843944,1.0,1.0,phase_2,go,250.0,300.0,1.0,,,,,,,,,green,square
0.0,2.0,1.0,0.0,5.0,5.0,302.6492029894143,1.0,1.0,phase_2,go,250.0,300.0,1.0,,,,,,,,,yellow,triangle
0.0,6.0,1.0,1.0,5.0,5.0,312.256732955575,1.0,1.0,phase_2,stop,250.0,300.0,3.0,,,,,,,,,blue,hexagon
0.0,8.0,4.0,1.0,5.0,5.0,368.4085439890623,1.0,1.0,phase_2,go,200.0,300.0,1.0,,,,,,,,,orange,diamond
0.0,1.0,0.5,0.0,6.0,6.0,318.9325041603297,1.0,1.0,phase_2,go,200.0,300.0,1.0,,,,,,,,,white,flipped triangle
0.0,2.0,1.0,0.0,5.0,5.0,301.1092389933765,1.0,1.0,phase_2,go,200.0,300.0,1.0,,,,,,,,,yellow,triangle
0.0,3.0,2.0,0.0,5.0,5.0,371.6646109241992,1.0,1.0,phase_2,go,200.0,300.0,1.0,,,,,,,,,gray,I
0.0,1.0,0.5,0.0,5.0,5.0,286.8110970593989,1.0,1.0,phase_2,go,200.0,300.0,1.0,,,,,,,,,white,flipped triangle
0.0,3.0,2.0,0.0,6.0,6.0,278.2336259260773,1.0,1.0,phase_2,go,200.0,300.0,1.0,,,,,,,,,gray,I
0.0,7.0,2.0,1.0,6.0,6.0,268.3897770475596,1.0,1.0,phase_2,stop,200.0,300.0,3.0,,,,,,,,,magenta,cross
0.0,1.0,0.5,0.0,6.0,6.0,361.4709780085832,1.0,1.0,phase_2,go,200.0,250.0,1.0,,,,,,,,,white,flipped triangle
0.0,4.0,4.0,0.0,5.0,5.0,273.2651447877288,1.0,1.0,phase_2,go,200.0,250.0,1.0,,,,,,,,,green,square
0.0,2.0,1.0,0.0,6.0,6.0,315.1966959703713,1.0,1.0,phase_2,go,200.0,250.0,1.0,,,,,,,,,yellow,triangle
0.0,3.0,2.0,0.0,5.0,5.0,331.9815390277654,1.0,1.0,phase_2,go,200.0,250.0,1.0,,,,,,,,,gray,I
0.0,5.0,0.5,1.0,5.0,5.0,327.8631858993321,1.0,1.0,phase_2,stop,200.0,250.0,3.0,,,,,,,,,cyan,circle
0.0,6.0,1.0,1.0,6.0,6.0,345.2917051035911,1.0,1.0,phase_2,stop,150.0,250.0,3.0,,,,,,,,,blue,hexagon
0.0,6.0,1.0,1.0,5.0,0.0,0.0,1.0,1.0,phase_2,stop,150.0,200.0,4.0,,,,,,,,,blue,hexagon
0.0,4.0,4.0,0.0,6.0,6.0,536.4267730619758,1.0,1.0,phase_2,go,200.0,200.0,1.0,,,,,,,,,green,square
0.0,7.0,2.0,1.0,6.0,6.0,349.1528669837862,1.0,1.0,phase_2,stop,200.0,200.0,3.0,,,,,,,,,magenta,cross
0.0,8.0,4.0,1.0,5.0,0.0,0.0,1.0,1.0,phase_2,stop,200.0,150.0,4.0,,,,,,,,,orange,diamond
0.0,1.0,0.5,0.0,5.0,5.0,310.1999219506979,1.0,1.0,phase_2,go,250.0,150.0,1.0,,,,,,,,,white,flipped triangle
0.0,5.0,0.5,1.0,5.0,5.0,375.3918430302292,1.0,1.0,phase_2,go,250.0,150.0,1.0,,,,,,,,,cyan,circle
0.0,2.0,1.0,0.0,6.0,6.0,330.8263320941478,1.0,1.0,phase_2,go,250.0,150.0,1.0,,,,,,,,,yellow,triangle
0.0,2.0,1.0,0.0,6.0,6.0,290.0969269685447,1.0,1.0,phase_2,go,250.0,150.0,1.0,,,,,,,,,yellow,triangle
0.0,7.0,2.0,1.0,6.0,6.0,322.0424759201705,1.0,1.0,phase_2,stop,250.0,150.0,3.0,,,,,,,,,magenta,cross
0.0,7.0,2.0,1.0,5.0,5.0,377.5842860341072,1.0,1.0,phase_2,stop,250.0,100.0,3.0,,,,,,,,,magenta,cross
0.0,2.0,1.0,0.0,6.0,6.0,328.877730993554,1.0,1.0,phase_2,go,200.0,100.0,1.0,,,,,,,,,yellow,triangle
0.0,6.0,1.0,1.0,5.0,5.0,443.6798479873687,1.0,1.0,phase_2,go,200.0,100.0,1.0,,,,,,,,,blue,hexagon
0.0,3.0,2.0,0.0,5.0,5.0,376.5580130275339,1.0,1.0,phase_2,go,200.0,100.0,1.0,,,,,,,,,gray,I
0.0,1.0,0.5,0.0,6.0,6.0,369.2858731374144,1.0,1.0,phase_2,go,200.0,100.0,1.0,,,,,,,,,white,flipped triangle
0.0,4.0,4.0,0.0,5.0,5.0,342.4279280006885,1.0,1.0,phase_2,go,200.0,100.0,1.0,,,,,,,,,green,square
0.0,1.0,0.5,0.0,5.0,5.0,368.5546088963747,1.0,1.0,phase_2,go,200.0,100.0,1.0,,,,,,,,,white,flipped triangle
0.0,5.0,0.5,1.0,5.0,5.0,365.5832961667329,1.0,1.0,phase_2,stop,200.0,100.0,3.0,,,,,,,,,cyan,circle
0.0,8.0,4.0,1.0,6.0,6.0,769.8799900244921,2.0,1.0,phase_2,stop,150.0,100.0,3.0,,,,,,,,,orange,diamond
0.0,6.0,1.0,1.0,6.0,0.0,0.0,2.0,1.0,phase_2,stop,150.0,50.0,4.0,,,,,,,,,blue,hexagon
0.0,3.0,2.0,0.0,6.0,6.0,358.0802930518985,2.0,1.0,phase_2,go,150.0,100.0,1.0,,,,,,,,,gray,I
0.0,5.0,0.5,1.0,6.0,6.0,341.3680091034621,2.0,1.0,phase_2,stop,150.0,100.0,3.0,,,,,,,,,cyan,circle
0.0,2.0,1.0,0.0,5.0,5.0,303.2651680987328,2.0,1.0,phase_2,go,150.0,50.0,1.0,,,,,,,,,yellow,triangle
0.0,1.0,0.5,0.0,5.0,5.0,340.914465021342,2.0,1.0,phase_2,go,150.0,50.0,1.0,,,,,,,,,white,flipped triangle
0.0,3.0,2.0,0.0,5.0,5.0,356.6405700985342,2.0,1.0,phase_2,go,150.0,50.0,1.0,,,,,,,,,gray,I
0.0,2.0,1.0,0.0,6.0,6.0,412.9597570281476,2.0,1.0,phase_2,go,150.0,50.0,1.0,,,,,,,,,yellow,triangle
0.0,6.0,1.0,1.0,6.0,0.0,0.0,2.0,1.0,phase_2,stop,150.0,50.0,4.0,,,,,,,,,blue,hexagon
0.0,2.0,1.0,0.0,6.0,6.0,404.733024071902,2.0,1.0,phase_2,go,150.0,100.0,1.0,,,,,,,,,yellow,triangle
0.0,8.0,4.0,1.0,5.0,5.0,337.3107658699155,2.0,1.0,phase_2,stop,150.0,100.0,3.0,,,,,,,,,orange,diamond
0.0,4.0,4.0,0.0,6.0,6.0,336.4793469663709,2.0,1.0,phase_2,go,100.0,100.0,1.0,,,,,,,,,green,square
0.0,3.0,2.0,0.0,6.0,6.0,320.8630131557584,2.0,1.0,phase_2,go,100.0,100.0,1.0,,,,,,,,,gray,I
0.0,4.0,4.0,0.0,5.0,5.0,328.1467340420931,2.0,1.0,phase_2,go,100.0,100.0,1.0,,,,,,,,,green,square
0.0,6.0,1.0,1.0,5.0,0.0,0.0,2.0,1.0,phase_2,stop,100.0,100.0,4.0,,,,,,,,,blue,hexagon
0.0,1.0,0.5,0.0,6.0,6.0,376.865406986326,2.0,1.0,phase_2,go,150.0,100.0,1.0,,,,,,,,,white,flipped triangle
0.0,1.0,0.5,0.0,6.0,6.0,329.4246138539165,2.0,1.0,phase_2,go,150.0,100.0,1.0,,,,,,,,,white,flipped triangle
0.0,7.0,2.0,1.0,6.0,6.0,302.2145088762045,2.0,1.0,phase_2,stop,150.0,100.0,3.0,,,,,,,,,magenta,cross
0.0,8.0,4.0,1.0,6.0,6.0,308.3987371064722,2.0,1.0,phase_2,go,150.0,50.0,1.0,,,,,,,,,orange,diamond
0.0,3.0,2.0,0.0,6.0,6.0,271.882559871301,2.0,1.0,phase_2,go,150.0,50.0,1.0,,,,,,,,,gray,I
0.0,8.0,4.0,1.0,5.0,5.0,292.3779198899865,2.0,1.0,phase_2,stop,150.0,50.0,3.0,,,,,,,,,orange,diamond
0.0,8.0,4.0,1.0,5.0,5.0,301.3694719411433,2.0,1.0,phase_2,stop,100.0,50.0,3.0,,,,,,,,,orange,diamond
0.0,5.0,0.5,1.0,5.0,5.0,342.9005311336368,2.0,1.0,phase_2,go,50.0,50.0,1.0,,,,,,,,,cyan,circle
0.0,3.0,2.0,0.0,6.0,6.0,346.00623417645687,2.0,1.0,phase_2,go,50.0,50.0,1.0,,,,,,,,,gray,I
0.0,4.0,4.0,0.0,5.0,5.0,315.2255041059106,2.0,1.0,phase_2,go,50.0,50.0,1.0,,,,,,,,,green,square
0.0,5.0,0.5,1.0,5.0,5.0,379.4793121051043,2.0,1.0,phase_2,go,50.0,50.0,1.0,,,,,,,,,cyan,circle
0.0,6.0,1.0,1.0,6.0,0.0,0.0,2.0,1.0,phase_2,stop,50.0,50.0,4.0,,,,,,,,,blue,hexagon
0.0,7.0,2.0,1.0,5.0,5.0,324.0236591082066,2.0,1.0,phase_2,stop,50.0,100.0,3.0,,,,,,,,,magenta,cross
0.0,8.0,4.0,1.0,6.0,0.0,0.0,2.0,1.0,phase_2,stop,0.0,100.0,4.0,,,,,,,,,orange,diamond
0.0,8.0,4.0,1.0,5.0,5.0,286.7280109785497,2.0,1.0,phase_2,go,0.0,150.0,1.0,,,,,,,,,orange,diamond
0.0,8.0,4.0,1.0,5.0,5.0,296.2480569258332,2.0,1.0,phase_2,stop,0.0,150.0,3.0,,,,,,,,,orange,diamond
0.0,2.0,1.0,0.0,6.0,6.0,510.3638081345707,2.0,1.0,phase_2,go,0.0,150.0,1.0,,,,,,,,,yellow,triangle
0.0,4.0,4.0,0.0,6.0,6.0,286.2142280209809,2.0,1.0,phase_2,go,0.0,150.0,1.0,,,,,,,,,green,square
0.0,2.0,1.0,0.0,6.0,6.0,334.4129289034754,2.0,1.0,phase_2,go,0.0,150.0,1.0,,,,,,,,,yellow,triangle
0.0,5.0,0.5,1.0,6.0,6.0,324.7095509432256,2.0,1.0,phase_2,stop,0.0,150.0,3.0,,,,,,,,,cyan,circle
0.0,8.0,4.0,1.0,5.0,0.0,0.0,2.0,1.0,phase_2,stop,0.0,100.0,4.0,,,,,,,,,orange,diamond
0.0,2.0,1.0,0.0,5.0,5.0,628.9918029215187,3.0,1.0,phase_2,go,50.0,100.0,1.0,,,,,,,,,yellow,triangle
0.0,8.0,4.0,1.0,6.0,6.0,285.2196211460978,3.0,1.0,phase_2,stop,50.0,100.0,3.0,,,,,,,,,orange,diamond
0.0,6.0,1.0,1.0,5.0,5.0,305.8582870289683,3.0,1.0,phase_2,stop,50.0,50.0,3.0,,,,,,,,,blue,hexagon
0.0,4.0,4.0,0.0,5.0,5.0,352.6296350173652,3.0,1.0,phase_2,go,0.0,50.0,1.0,,,,,,,,,green,square
0.0,1.0,0.5,0.0,6.0,6.0,241.6493189521134,3.0,1.0,phase_2,go,0.0,50.0,1.0,,,,,,,,,white,flipped triangle
0.0,8.0,4.0,1.0,6.0,6.0,314.5893509499728,3.0,1.0,phase_2,go,0.0,50.0,1.0,,,,,,,,,orange,diamond
0.0,1.0,0.5,0.0,6.0,6.0,298.7315610516816,3.0,1.0,phase_2,go,0.0,50.0,1.0,,,,,,,,,white,flipped triangle
0.0,7.0,2.0,1.0,5.0,5.0,216.2493439391255,3.0,1.0,phase_2,stop,0.0,50.0,3.0,,,,,,,,,magenta,cross
0.0,7.0,2.0,1.0,5.0,0.0,0.0,3.0,1.0,phase_2,stop,0.0,50.0,4.0,,,,,,,,,magenta,cross
0.0,5.0,0.5,1.0,6.0,6.0,303.2804210670292,3.0,1.0,phase_2,stop,50.0,50.0,3.0,,,,,,,,,cyan,circle
0.0,1.0,0.5,0.0,6.0,6.0,260.6047880835831,3.0,1.0,phase_2,go,50.0,0.0,1.0,,,,,,,,,white,flipped triangle
0.0,1.0,0.5,0.0,5.0,5.0,240.6188510358333,3.0,1.0,phase_2,go,50.0,0.0,1.0,,,,,,,,,white,flipped triangle
0.0,2.0,1.0,0.0,6.0,6.0,245.0480440165847,3.0,1.0,phase_2,go,50.0,0.0,1.0,,,,,,,,,yellow,triangle
0.0,7.0,2.0,1.0,6.0,0.0,0.0,3.0,1.0,phase_2,stop,50.0,0.0,4.0,,,,,,,,,magenta,cross
0.0,2.0,1.0,0.0,6.0,6.0,323.5543030314147,3.0,1.0,phase_2,go,50.0,50.0,1.0,,,,,,,,,yellow,triangle
0.0,1.0,0.5,0.0,5.0,5.0,253.45098692923779,3.0,1.0,phase_2,go,50.0,50.0,1.0,,,,,,,,,white,flipped triangle
0.0,4.0,4.0,0.0,5.0,5.0,323.8018041010946,3.0,1.0,phase_2,go,50.0,50.0,1.0,,,,,,,,,green,square
0.0,5.0,0.5,1.0,6.0,6.0,323.8650760613382,3.0,1.0,phase_2,stop,50.0,50.0,3.0,,,,,,,,,cyan,circle
0.0,3.0,2.0,0.0,6.0,6.0,323.47717694938177,3.0,1.0,phase_2,go,50.0,0.0,1.0,,,,,,,,,gray,I
0.0,8.0,4.0,1.0,6.0,6.0,313.5686109308153,3.0,1.0,phase_2,stop,50.0,0.0,3.0,,,,,,,,,orange,diamond
0.0,7.0,2.0,1.0,5.0,0.0,0.0,3.0,1.0,phase_2,stop,50.0,0.0,4.0,,,,,,,,,magenta,cross
0.0,1.0,0.5,0.0,6.0,6.0,294.7706650011241,3.0,1.0,phase_2,go,100.0,0.0,1.0,,,,,,,,,white,flipped triangle
0.0,1.0,0.5,0.0,6.0,6.0,368.5169799719006,3.0,1.0,phase_2,go,100.0,0.0,1.0,,,,,,,,,white,flipped triangle
0.0,2.0,1.0,0.0,5.0,5.0,294.5821788161993,3.0,1.0,phase_2,go,100.0,0.0,1.0,,,,,,,,,yellow,triangle
0.0,7.0,2.0,1.0,6.0,0.0,0.0,3.0,1.0,phase_2,stop,100.0,0.0,4.0,,,,,,,,,magenta,cross
0.0,5.0,0.5,1.0,5.0,5.0,271.9866449479013,3.0,1.0,phase_2,stop,100.0,50.0,3.0,,,,,,,,,cyan,circle
0.0,3.0,2.0,0.0,5.0,5.0,244.8739251121878,3.0,1.0,phase_2,go,50.0,50.0,1.0,,,,,,,,,gray,I
0.0,4.0,4.0,0.0,5.0,5.0,326.0563309304416,3.0,1.0,phase_2,go,50.0,50.0,1.0,,,,,,,,,green,square
0.0,7.0,2.0,1.0,6.0,6.0,283.2158249802887,3.0,1.0,phase_2,stop,50.0,50.0,3.0,,,,,,,,,magenta,cross
0.0,4.0,4.0,0.0,5.0,5.0,229.7923641745001,3.0,1.0,phase_2,go,50.0,0.0,1.0,,,,,,,,,green,square
0.0,4.0,4.0,0.0,5.0,5.0,274.1658280137926,3.0,1.0,phase_2,go,50.0,0.0,1.0,,,,,,,,,green,square
0.0,5.0,0.5,1.0,6.0,6.0,292.1493460889905,3.0,1.0,phase_2,stop,50.0,0.0,3.0,,,,,,,,,cyan,circle
0.0,3.0,2.0,0.0,6.0,6.0,316.7223900090903,3.0,1.0,phase_2,go,50.0,0.0,1.0,,,,,,,,,gray,I
0.0,5.0,0.5,1.0,5.0,5.0,298.7919198349118,3.0,1.0,phase_2,go,50.0,0.0,1.0,,,,,,,,,cyan,circle
0.0,4.0,4.0,0.0,6.0,6.0,281.3251141924411,3.0,1.0,phase_2,go,50.0,0.0,1.0,,,,,,,,,green,square
0.0,1.0,0.5,0.0,5.0,5.0,353.1714910641312,3.0,1.0,phase_2,go,50.0,0.0,1.0,,,,,,,,,white,flipped triangle
0.0,4.0,4.0,0.0,6.0,2.0,612.0714610442519,4.0,1.0,phase_2,go,50.0,0.0,2.0,,,,,,,,,green,square
0.0,3.0,2.0,0.0,5.0,5.0,240.8432150259614,4.0,1.0,phase_2,go,50.0,0.0,1.0,,,,,,,,,gray,I
0.0,7.0,2.0,1.0,5.0,5.0,268.1682941038161,4.0,1.0,phase_2,go,50.0,0.0,1.0,,,,,,,,,magenta,cross
0.0,1.0,0.5,0.0,5.0,5.0,274.8701779637486,4.0,1.0,phase_2,go,50.0,0.0,1.0,,,,,,,,,white,flipped triangle
0.0,3.0,2.0,0.0,5.0,5.0,314.9615910369903,4.0,1.0,phase_2,go,50.0,0.0,1.0,,,,,,,,,gray,I
0.0,6.0,1.0,1.0,6.0,6.0,254.45649400353432,4.0,1.0,phase_2,stop,50.0,0.0,3.0,,,,,,,,,blue,hexagon
0.0,6.0,1.0,1.0,6.0,6.0,381.7995330318808,4.0,1.0,phase_2,go,50.0,0.0,1.0,,,,,,,,,blue,hexagon
0.0,6.0,1.0,1.0,6.0,6.0,324.8204470146447,4.0,1.0,phase_2,go,50.0,0.0,1.0,,,,,,,,,blue,hexagon
0.0,1.0,0.5,0.0,6.0,6.0,295.766765018925,4.0,1.0,phase_2,go,50.0,0.0,1.0,,,,,,,,,white,flipped triangle
0.0,7.0,2.0,1.0,6.0,5.0,220.3394479583948,4.0,1.0,phase_2,go,50.0,0.0,2.0,,,,,,,,,magenta,cross
0.0,1.0,0.5,0.0,5.0,5.0,271.0282069165259,4.0,1.0,phase_2,go,50.0,0.0,1.0,,,,,,,,,white,flipped triangle
0.0,8.0,4.0,1.0,6.0,6.0,262.1265749912709,4.0,1.0,phase_2,stop,50.0,0.0,3.0,,,,,,,,,orange,diamond
0.0,2.0,1.0,0.0,6.0,6.0,357.1406330447644,4.0,1.0,phase_2,go,50.0,0.0,1.0,,,,,,,,,yellow,triangle
0.0,7.0,2.0,1.0,5.0,5.0,403.2935500144958,4.0,1.0,phase_2,stop,50.0,0.0,3.0,,,,,,,,,magenta,cross
0.0,5.0,0.5,1.0,6.0,0.0,0.0,4.0,1.0,phase_2,stop,0.0,0.0,4.0,,,,,,,,,cyan,circle
0.0,7.0,2.0,1.0,5.0,5.0,490.6818279996514,4.0,1.0,phase_2,go,0.0,50.0,1.0,,,,,,,,,magenta,cross
0.0,6.0,1.0,1.0,5.0,5.0,280.587252927944,4.0,1.0,phase_2,stop,0.0,50.0,3.0,,,,,,,,,blue,hexagon
0.0,3.0,2.0,0.0,5.0,5.0,299.4050430133939,4.0,1.0,phase_2,go,0.0,50.0,1.0,,,,,,,,,gray,I
0.0,7.0,2.0,1.0,5.0,0.0,0.0,4.0,1.0,phase_2,stop,0.0,50.0,4.0,,,,,,,,,magenta,cross
0.0,1.0,0.5,0.0,6.0,6.0,302.6007569860667,4.0,1.0,phase_2,go,50.0,50.0,1.0,,,,,,,,,white,flipped triangle
0.0,5.0,0.5,1.0,5.0,5.0,270.0591229368001,4.0,1.0,phase_2,stop,50.0,50.0,3.0,,,,,,,,,cyan,circle
0.0,7.0,2.0,1.0,5.0,5.0,312.8469309303909,4.0,1.0,phase_2,go,0.0,50.0,1.0,,,,,,,,,magenta,cross
0.0,2.0,1.0,0.0,6.0,6.0,328.1182239297777,4.0,1.0,phase_2,go,0.0,50.0,1.0,,,,,,,,,yellow,triangle
0.0,6.0,1.0,1.0,5.0,5.0,247.7443309035152,4.0,1.0,phase_2,stop,0.0,50.0,3.0,,,,,,,,,blue,hexagon
0.0,2.0,1.0,0.0,6.0,6.0,324.3042808026075,4.0,1.0,phase_2,go,0.0,50.0,1.0,,,,,,,,,yellow,triangle
0.0,5.0,0.5,1.0,5.0,0.0,0.0,4.0,1.0,phase_2,stop,0.0,50.0,4.0,,,,,,,,,cyan,circle
0.0,8.0,4.0,1.0,5.0,5.0,331.10981108620757,4.0,1.0,phase_2,stop,50.0,50.0,3.0,,,,,,,,,orange,diamond
0.0,7.0,2.0,1.0,6.0,6.0,322.1681131981313,4.0,1.0,phase_2,stop,0.0,50.0,3.0,,,,,,,,,magenta,cross
0.0,3.0,2.0,0.0,5.0,5.0,281.9979630876332,4.0,1.0,phase_2,go,0.0,0.0,1.0,,,,,,,,,gray,I
0.0,3.0,2.0,0.0,6.0,6.0,265.273064142093,4.0,1.0,phase_2,go,0.0,0.0,1.0,,,,,,,,,gray,I
0.0,6.0,1.0,1.0,5.0,5.0,232.6303550507873,4.0,1.0,phase_2,go,0.0,0.0,1.0,,,,,,,,,blue,hexagon
0.0,5.0,0.5,1.0,5.0,5.0,274.6278699487448,4.0,1.0,phase_2,go,0.0,0.0,1.0,,,,,,,,,cyan,circle
0.0,4.0,4.0,0.0,6.0,6.0,248.1767181307077,4.0,1.0,phase_2,go,0.0,0.0,1.0,,,,,,,,,green,square
0.0,8.0,4.0,1.0,5.0,5.0,238.6174988932907,4.0,1.0,phase_2,stop,0.0,0.0,3.0,,,,,,,,,orange,diamond
0.0,1.0,0.5,0.0,5.0,5.0,342.30304392986,4.0,1.0,phase_2,go,0.0,0.0,1.0,,,,,,,,,white,flipped triangle
0.0,2.0,1.0,0.0,5.0,5.0,273.8254980649799,4.0,1.0,phase_2,go,0.0,0.0,1.0,,,,,,,,,yellow,triangle
0.0,8.0,4.0,1.0,6.0,6.0,517.3136510420591,5.0,1.0,phase_2,stop,0.0,0.0,3.0,,,,,,,,,orange,diamond
0.0,6.0,1.0,1.0,6.0,6.0,334.50855500996107,5.0,1.0,phase_2,stop,0.0,0.0,3.0,,,,,,,,,blue,hexagon
0.0,7.0,2.0,1.0,5.0,0.0,0.0,5.0,1.0,phase_2,stop,0.0,0.0,4.0,,,,,,,,,magenta,cross
0.0,3.0,2.0,0.0,6.0,6.0,314.5379731431603,5.0,1.0,phase_2,go,50.0,0.0,1.0,,,,,,,,,gray,I
0.0,6.0,1.0,1.0,5.0,5.0,492.1824550256133,5.0,1.0,phase_2,go,50.0,0.0,1.0,,,,,,,,,blue,hexagon
0.0,2.0,1.0,0.0,6.0,6.0,280.4424930363893,5.0,1.0,phase_2,go,50.0,0.0,1.0,,,,,,,,,yellow,triangle
0.0,6.0,1.0,1.0,6.0,6.0,335.8339429832995,5.0,1.0,phase_2,stop,50.0,0.0,3.0,,,,,,,,,blue,hexagon
0.0,6.0,1.0,1.0,5.0,0.0,0.0,5.0,1.0,phase_2,stop,50.0,0.0,4.0,,,,,,,,,blue,hexagon
0.0,6.0,1.0,1.0,5.0,0.0,0.0,5.0,1.0,phase_2,stop,100.0,0.0,4.0,,,,,,,,,blue,hexagon
0.0,5.0,0.5,1.0,6.0,6.0,262.6007630024105,5.0,1.0,phase_2,go,150.0,0.0,1.0,,,,,,,,,cyan,circle
0.0,3.0,2.0,0.0,6.0,6.0,253.2930059824139,5.0,1.0,phase_2,go,150.0,0.0,1.0,,,,,,,,,gray,I
0.0,6.0,1.0,1.0,6.0,0.0,0.0,5.0,1.0,phase_2,stop,150.0,0.0,4.0,,,,,,,,,blue,hexagon
0.0,7.0,2.0,1.0,5.0,5.0,270.1619900763035,5.0,1.0,phase_2,go,150.0,50.0,1.0,,,,,,,,,magenta,cross
0.0,3.0,2.0,0.0,5.0,5.0,302.846890874207,5.0,1.0,phase_2,go,150.0,50.0,1.0,,,,,,,,,gray,I
0.0,4.0,4.0,0.0,6.0,6.0,245.883054099977,5.0,1.0,phase_2,go,150.0,50.0,1.0,,,,,,,,,green,square
0.0,5.0,0.5,1.0,6.0,6.0,292.3040878959,5.0,1.0,phase_2,go,150.0,50.0,1.0,,,,,,,,,cyan,circle
0.0,5.0,0.5,1.0,5.0,5.0,388.4628389496356,5.0,1.0,phase_2,stop,150.0,50.0,3.0,,,,,,,,,cyan,circle
0.0,2.0,1.0,0.0,5.0,5.0,305.6859220378101,5.0,1.0,phase_2,go,100.0,50.0,1.0,,,,,,,,,yellow,triangle
0.0,7.0,2.0,1.0,5.0,5.0,280.8704799972474,5.0,1.0,phase_2,stop,100.0,50.0,3.0,,,,,,,,,magenta,cross
0.0,8.0,4.0,1.0,6.0,6.0,322.7097070775926,5.0,1.0,phase_2,go,50.0,50.0,1.0,,,,,,,,,orange,diamond
0.0,3.0,2.0,0.0,5.0,5.0,443.8445770647377,5.0,1.0,phase_2,go,50.0,50.0,1.0,,,,,,,,,gray,I
0.0,5.0,0.5,1.0,6.0,6.0,266.5750631131232,5.0,1.0,phase_2,stop,50.0,50.0,3.0,,,,,,,,,cyan,circle
0.0,2.0,1.0,0.0,5.0,5.0,328.2381671015173,5.0,1.0,phase_2,go,50.0,0.0,1.0,,,,,,,,,yellow,triangle
0.0,5.0,0.5,1.0,5.0,5.0,288.1807789672166,5.0,1.0,phase_2,stop,50.0,0.0,3.0,,,,,,,,,cyan,circle
0.0,3.0,2.0,0.0,6.0,6.0,273.7016649916768,5.0,1.0,phase_2,go,0.0,0.0,1.0,,,,,,,,,gray,I
0.0,7.0,2.0,1.0,5.0,5.0,285.7220710720867,5.0,1.0,phase_2,go,0.0,0.0,1.0,,,,,,,,,magenta,cross
0.0,7.0,2.0,1.0,5.0,5.0,246.6505179181695,5.0,1.0,phase_2,go,0.0,0.0,1.0,,,,,,,,,magenta,cross
0.0,1.0,0.5,0.0,5.0,5.0,427.7612040750682,5.0,1.0,phase_2,go,0.0,0.0,1.0,,,,,,,,,white,flipped triangle
0.0,6.0,1.0,1.0,5.0,5.0,278.2247550785541,5.0,1.0,phase_2,stop,0.0,0.0,3.0,,,,,,,,,blue,hexagon
0.0,6.0,1.0,1.0,6.0,6.0,349.5429379399866,5.0,1.0,phase_2,stop,0.0,0.0,3.0,,,,,,,,,blue,hexagon
0.0,4.0,4.0,0.0,5.0,5.0,365.8079688902944,5.0,1.0,phase_2,go,0.0,0.0,1.0,,,,,,,,,green,square
0.0,8.0,4.0,1.0,5.0,5.0,285.323295975104,5.0,1.0,phase_2,stop,0.0,0.0,3.0,,,,,,,,,orange,diamond
0.0,3.0,2.0,0.0,6.0,6.0,829.2258279398084,5.0,1.0,phase_2,go,0.0,0.0,1.0,,,,,,,,,gray,I
0.0,3.0,2.0,0.0,6.0,6.0,336.7728060111403,5.0,1.0,phase_2,go,0.0,0.0,1.0,,,,,,,,,gray,I
0.0,6.0,1.0,1.0,5.0,5.0,330.1912909373641,5.0,1.0,phase_2,stop,0.0,0.0,3.0,,,,,,,,,blue,hexagon
0.0,5.0,0.5,1.0,5.0,0.0,0.0,5.0,1.0,phase_2,stop,0.0,0.0,4.0,,,,,,,,,cyan,circle
0.0,7.0,2.0,1.0,5.0,5.0,1083.4227979648858,6.0,1.0,phase_2,stop,50.0,0.0,3.0,,,,,,,,,magenta,cross
0.0,7.0,2.0,1.0,6.0,6.0,412.1215092018246,6.0,1.0,phase_2,go,0.0,0.0,1.0,,,,,,,,,magenta,cross
0.0,2.0,1.0,0.0,5.0,5.0,266.0675889346748,6.0,1.0,phase_2,go,0.0,0.0,1.0,,,,,,,,,yellow,triangle
0.0,7.0,2.0,1.0,6.0,6.0,246.546939946711,6.0,1.0,phase_2,stop,0.0,0.0,3.0,,,,,,,,,magenta,cross
0.0,3.0,2.0,0.0,6.0,6.0,352.3889749776572,6.0,1.0,phase_2,go,0.0,0.0,1.0,,,,,,,,,gray,I
0.0,8.0,4.0,1.0,6.0,6.0,384.8109529353678,6.0,1.0,phase_2,go,0.0,0.0,1.0,,,,,,,,,orange,diamond
0.0,3.0,2.0,0.0,5.0,5.0,329.0586818475276,6.0,1.0,phase_2,go,0.0,0.0,1.0,,,,,,,,,gray,I
0.0,4.0,4.0,0.0,6.0,6.0,453.3079059328884,6.0,1.0,phase_2,go,0.0,0.0,1.0,,,,,,,,,green,square
0.0,2.0,1.0,0.0,5.0,5.0,220.4926840495318,6.0,1.0,phase_2,go,0.0,0.0,1.0,,,,,,,,,yellow,triangle
0.0,6.0,1.0,1.0,6.0,6.0,172.6007559336722,6.0,1.0,phase_2,stop,0.0,0.0,3.0,,,,,,,,,blue,hexagon
0.0,4.0,4.0,0.0,6.0,6.0,301.4094911050051,6.0,1.0,phase_2,go,0.0,0.0,1.0,,,,,,,,,green,square
0.0,7.0,2.0,1.0,6.0,6.0,349.1123430430889,6.0,1.0,phase_2,stop,0.0,0.0,3.0,,,,,,,,,magenta,cross
0.0,1.0,0.5,0.0,5.0,5.0,418.3592139743268,6.0,1.0,phase_2,go,0.0,0.0,1.0,,,,,,,,,white,flipped triangle
0.0,4.0,4.0,0.0,6.0,6.0,273.4065649565309,6.0,1.0,phase_2,go,0.0,0.0,1.0,,,,,,,,,green,square
0.0,5.0,0.5,1.0,5.0,5.0,233.0183337908238,6.0,1.0,phase_2,stop,0.0,0.0,3.0,,,,,,,,,cyan,circle
0.0,3.0,2.0,0.0,6.0,6.0,555.593122029677,6.0,1.0,phase_2,go,0.0,0.0,1.0,,,,,,,,,gray,I
0.0,7.0,2.0,1.0,6.0,0.0,0.0,6.0,1.0,phase_2,stop,0.0,0.0,4.0,,,,,,,,,magenta,cross
0.0,1.0,0.5,0.0,6.0,6.0,375.2315449528396,6.0,1.0,phase_2,go,0.0,50.0,1.0,,,,,,,,,white,flipped triangle
0.0,8.0,4.0,1.0,6.0,6.0,298.6720551270991,6.0,1.0,phase_2,go,0.0,50.0,1.0,,,,,,,,,orange,diamond
0.0,5.0,0.5,1.0,5.0,5.0,239.5377149805426,6.0,1.0,phase_2,go,0.0,50.0,1.0,,,,,,,,,cyan,circle
0.0,2.0,1.0,0.0,5.0,5.0,285.5128110386431,6.0,1.0,phase_2,go,0.0,50.0,1.0,,,,,,,,,yellow,triangle
0.0,2.0,1.0,0.0,5.0,5.0,238.1236720830202,6.0,1.0,phase_2,go,0.0,50.0,1.0,,,,,,,,,yellow,triangle
0.0,1.0,0.5,0.0,6.0,6.0,248.3758511953055,6.0,1.0,phase_2,go,0.0,50.0,1.0,,,,,,,,,white,flipped triangle
0.0,8.0,4.0,1.0,5.0,6.0,286.2016728613525,6.0,1.0,phase_2,stop,0.0,50.0,3.0,,,,,,,,,orange,diamond
0.0,4.0,4.0,0.0,6.0,6.0,405.31792701222,6.0,1.0,phase_2,go,0.0,50.0,1.0,,,,,,,,,green,square
0.0,5.0,0.5,1.0,6.0,6.0,413.6673738248646,6.0,1.0,phase_2,stop,0.0,50.0,3.0,,,,,,,,,cyan,circle
0.0,6.0,1.0,1.0,5.0,5.0,337.9033568780869,6.0,1.0,phase_2,stop,0.0,0.0,3.0,,,,,,,,,blue,hexagon
0.0,4.0,4.0,0.0,6.0,6.0,329.7729408368468,6.0,1.0,phase_2,go,0.0,0.0,1.0,,,,,,,,,green,square
0.0,5.0,0.5,1.0,6.0,0.0,0.0,6.0,1.0,phase_2,stop,0.0,0.0,4.0,,,,,,,,,cyan,circle
0.0,3.0,2.0,0.0,5.0,5.0,324.7046379838139,6.0,1.0,phase_2,go,0.0,50.0,1.0,,,,,,,,,gray,I
0.0,8.0,4.0,1.0,6.0,0.0,0.0,6.0,1.0,phase_2,stop,0.0,50.0,4.0,,,,,,,,,orange,diamond
0.0,1.0,0.5,0.0,5.0,5.0,249.6595988050103,6.0,1.0,phase_2,go,0.0,100.0,1.0,,,,,,,,,white,flipped triangle
0.0,2.0,1.0,0.0,5.0,5.0,343.3122429996729,6.0,1.0,phase_2,go,0.0,100.0,1.0,,,,,,,,,yellow,triangle
0.0,2.0,1.0,0.0,6.0,6.0,889.9006140418351,6.0,1.0,phase_2,go,0.0,100.0,1.0,,,,,,,,,yellow,triangle
0.0,2.0,1.0,0.0,6.0,6.0,285.8499549329281,6.0,1.0,phase_2,go,0.0,100.0,1.0,,,,,,,,,yellow,triangle
0.0,6.0,1.0,1.0,6.0,6.0,328.7717599887401,6.0,1.0,phase_2,go,0.0,100.0,1.0,,,,,,,,,blue,hexagon
0.0,4.0,4.0,0.0,5.0,6.0,37.1907360386103,7.0,1.0,phase_2,go,0.0,100.0,2.0,,,,,,,,,green,square
0.0,8.0,4.0,1.0,5.0,5.0,261.317954165861,7.0,1.0,phase_2,stop,0.0,100.0,3.0,,,,,,,,,orange,diamond
0.0,1.0,0.5,0.0,6.0,6.0,277.6747560128569,7.0,1.0,phase_2,go,0.0,100.0,1.0,,,,,,,,,white,flipped triangle
0.0,5.0,0.5,1.0,5.0,5.0,284.7693259827792,7.0,1.0,phase_2,stop,0.0,100.0,3.0,,,,,,,,,cyan,circle
0.0,5.0,0.5,1.0,5.0,5.0,285.5463079176843,7.0,1.0,phase_2,stop,0.0,100.0,3.0,,,,,,,,,cyan,circle
0.0,2.0,1.0,0.0,6.0,6.0,236.2377240788191,7.0,1.0,phase_2,go,0.0,100.0,1.0,,,,,,,,,yellow,triangle
0.0,1.0,0.5,0.0,5.0,5.0,227.591305039823,7.0,1.0,phase_2,go,0.0,100.0,1.0,,,,,,,,,white,flipped triangle
0.0,2.0,1.0,0.0,5.0,5.0,266.3938170298934,7.0,1.0,phase_2,go,0.0,100.0,1.0,,,,,,,,,yellow,triangle
0.0,6.0,1.0,1.0,6.0,6.0,247.8897240944206,7.0,1.0,phase_2,go,0.0,100.0,1.0,,,,,,,,,blue,hexagon
0.0,6.0,1.0,1.0,6.0,6.0,304.6646509319544,7.0,1.0,phase_2,stop,0.0,100.0,3.0,,,,,,,,,blue,hexagon
0.0,2.0,1.0,0.0,5.0,5.0,248.5524700023234,7.0,1.0,phase_2,go,0.0,50.0,1.0,,,,,,,,,yellow,triangle
0.0,7.0,2.0,1.0,6.0,6.0,245.8562077954411,7.0,1.0,phase_2,stop,0.0,50.0,3.0,,,,,,,,,magenta,cross
0.0,3.0,2.0,0.0,6.0,6.0,504.3606359977275,7.0,1.0,phase_2,go,0.0,0.0,1.0,,,,,,,,,gray,I
0.0,8.0,4.0,1.0,6.0,6.0,295.8161639980972,7.0,1.0,phase_2,stop,0.0,0.0,3.0,,,,,,,,,orange,diamond
0.0,8.0,4.0,1.0,6.0,6.0,325.7196380291134,7.0,1.0,phase_2,stop,0.0,0.0,3.0,,,,,,,,,orange,diamond
0.0,5.0,0.5,1.0,6.0,6.0,323.8724810071289,7.0,1.0,phase_2,go,0.0,0.0,1.0,,,,,,,,,cyan,circle
0.0,4.0,4.0,0.0,5.0,5.0,398.2502240687608,7.0,1.0,phase_2,go,0.0,0.0,1.0,,,,,,,,,green,square
0.0,5.0,0.5,1.0,6.0,6.0,342.1276181470603,7.0,1.0,phase_2,stop,0.0,0.0,3.0,,,,,,,,,cyan,circle
0.0,8.0,4.0,1.0,5.0,5.0,282.327587949112,7.0,1.0,phase_2,stop,0.0,0.0,3.0,,,,,,,,,orange,diamond
0.0,1.0,0.5,0.0,6.0,6.0,253.4639369696378,7.0,1.0,phase_2,go,0.0,0.0,1.0,,,,,,,,,white,flipped triangle
0.0,1.0,0.5,0.0,6.0,6.0,236.706358846277,7.0,1.0,phase_2,go,0.0,0.0,1.0,,,,,,,,,white,flipped triangle
0.0,3.0,2.0,0.0,5.0,5.0,282.7529949136078,7.0,1.0,phase_2,go,0.0,0.0,1.0,,,,,,,,,gray,I
0.0,7.0,2.0,1.0,6.0,6.0,332.161728059873,7.0,1.0,phase_2,stop,0.0,0.0,3.0,,,,,,,,,magenta,cross
0.0,6.0,1.0,1.0,6.0,0.0,0.0,7.0,1.0,phase_2,stop,0.0,0.0,4.0,,,,,,,,,blue,hexagon
0.0,3.0,2.0,0.0,5.0,5.0,424.16488006711,7.0,1.0,phase_2,go,0.0,50.0,1.0,,,,,,,,,gray,I
0.0,7.0,2.0,1.0,6.0,6.0,327.4137990083545,7.0,1.0,phase_2,go,0.0,50.0,1.0,,,,,,,,,magenta,cross
0.0,3.0,2.0,0.0,5.0,5.0,728.9803999010473,7.0,1.0,phase_2,go,0.0,50.0,1.0,,,,,,,,,gray,I
0.0,8.0,4.0,1.0,6.0,6.0,302.5062091182917,7.0,1.0,phase_2,stop,0.0,50.0,3.0,,,,,,,,,orange,diamond
0.0,6.0,1.0,1.0,5.0,5.0,253.7783978041261,7.0,1.0,phase_2,stop,0.0,0.0,3.0,,,,,,,,,blue,hexagon
0.0,8.0,4.0,1.0,5.0,5.0,276.4779168646782,7.0,1.0,phase_2,go,0.0,0.0,1.0,,,,,,,,,orange,diamond
0.0,4.0,4.0,0.0,6.0,6.0,332.8252010978758,7.0,1.0,phase_2,go,0.0,0.0,1.0,,,,,,,,,green,square
0.0,8.0,4.0,1.0,5.0,0.0,0.0,7.0,1.0,phase_2,stop,0.0,0.0,4.0,,,,,,,,,orange,diamond
0.0,4.0,4.0,0.0,5.0,5.0,283.4640860091895,7.0,1.0,phase_2,go,50.0,0.0,1.0,,,,,,,,,green,square
0.0,1.0,0.5,0.0,5.0,5.0,334.1716020368039,7.0,1.0,phase_2,go,50.0,0.0,1.0,,,,,,,,,white,flipped triangle
0.0,4.0,4.0,0.0,5.0,5.0,283.8697358965873,7.0,1.0,phase_2,go,50.0,0.0,1.0,,,,,,,,,green,square
0.0,5.0,0.5,1.0,6.0,6.0,395.3074880409986,7.0,1.0,phase_2,stop,50.0,0.0,3.0,,,,,,,,,cyan,circle
0.0,6.0,1.0,1.0,5.0,5.0,1002.7535900007931,8.0,1.0,phase_2,stop,50.0,0.0,3.0,,,,,,,,,blue,hexagon
0.0,7.0,2.0,1.0,5.0,0.0,0.0,8.0,1.0,phase_2,stop,0.0,0.0,4.0,,,,,,,,,magenta,cross
0.0,6.0,1.0,1.0,5.0,5.0,283.2420400809496,8.0,1.0,phase_2,go,50.0,0.0,1.0,,,,,,,,,blue,hexagon
0.0,2.0,1.0,0.0,5.0,5.0,335.281522013247,8.0,1.0,phase_2,go,50.0,0.0,1.0,,,,,,,,,yellow,triangle
0.0,5.0,0.5,1.0,6.0,6.0,234.4621089287102,8.0,1.0,phase_2,stop,50.0,0.0,3.0,,,,,,,,,cyan,circle
0.0,7.0,2.0,1.0,6.0,0.0,0.0,8.0,1.0,phase_2,stop,50.0,0.0,4.0,,,,,,,,,magenta,cross
0.0,4.0,4.0,0.0,5.0,5.0,254.71380492672318,8.0,1.0,phase_2,go,50.0,50.0,1.0,,,,,,,,,green,square
0.0,5.0,0.5,1.0,6.0,6.0,245.5185591243207,8.0,1.0,phase_2,stop,50.0,50.0,3.0,,,,,,,,,cyan,circle
0.0,3.0,2.0,0.0,6.0,6.0,286.99781303294,8.0,1.0,phase_2,go,50.0,0.0,1.0,,,,,,,,,gray,I
0.0,7.0,2.0,1.0,6.0,0.0,0.0,8.0,1.0,phase_2,stop,50.0,0.0,4.0,,,,,,,,,magenta,cross
0.0,2.0,1.0,0.0,6.0,6.0,291.2133100908249,8.0,1.0,phase_2,go,50.0,50.0,1.0,,,,,,,,,yellow,triangle
0.0,8.0,4.0,1.0,5.0,5.0,246.3784590363502,8.0,1.0,phase_2,stop,50.0,50.0,3.0,,,,,,,,,orange,diamond
0.0,8.0,4.0,1.0,5.0,5.0,323.4767669346183,8.0,1.0,phase_2,stop,0.0,50.0,3.0,,,,,,,,,orange,diamond
0.0,6.0,1.0,1.0,6.0,6.0,253.5863071680069,8.0,1.0,phase_2,go,0.0,50.0,1.0,,,,,,,,,blue,hexagon
0.0,3.0,2.0,0.0,5.0,5.0,298.0049150064587,8.0,1.0,phase_2,go,0.0,50.0,1.0,,,,,,,,,gray,I
0.0,4.0,4.0,0.0,6.0,6.0,249.5717650745064,8.0,1.0,phase_2,go,0.0,50.0,1.0,,,,,,,,,green,square
0.0,2.0,1.0,0.0,5.0,5.0,275.9618938434869,8.0,1.0,phase_2,go,0.0,50.0,1.0,,,,,,,,,yellow,triangle
0.0,4.0,4.0,0.0,6.0,6.0,266.162347048521,8.0,1.0,phase_2,go,0.0,50.0,1.0,,,,,,,,,green,square
0.0,3.0,2.0,0.0,5.0,5.0,304.5951321255415,8.0,1.0,phase_2,go,0.0,50.0,1.0,,,,,,,,,gray,I
0.0,3.0,2.0,0.0,6.0,6.0,270.5315109342336,8.0,1.0,phase_2,go,0.0,50.0,1.0,,,,,,,,,gray,I
0.0,1.0,0.5,0.0,5.0,5.0,257.9301400110125,8.0,1.0,phase_2,go,0.0,50.0,1.0,,,,,,,,,white,flipped triangle
0.0,5.0,0.5,1.0,6.0,6.0,269.282927038148,8.0,1.0,phase_2,stop,0.0,50.0,3.0,,,,,,,,,cyan,circle
0.0,4.0,4.0,0.0,5.0,5.0,260.5810409877449,8.0,1.0,phase_2,go,0.0,0.0,1.0,,,,,,,,,green,square
0.0,8.0,4.0,1.0,6.0,6.0,348.9718320779502,8.0,1.0,phase_2,go,0.0,0.0,1.0,,,,,,,,,orange,diamond
0.0,1.0,0.5,0.0,5.0,5.0,375.2404300030321,8.0,1.0,phase_2,go,0.0,0.0,1.0,,,,,,,,,white,flipped triangle
0.0,5.0,0.5,1.0,5.0,5.0,301.961560966447,8.0,1.0,phase_2,stop,0.0,0.0,3.0,,,,,,,,,cyan,circle
0.0,4.0,4.0,0.0,5.0,5.0,462.3419980052858,8.0,1.0,phase_2,go,0.0,0.0,1.0,,,,,,,,,green,square
0.0,8.0,4.0,1.0,6.0,6.0,237.5122678931802,8.0,1.0,phase_2,stop,0.0,0.0,3.0,,,,,,,,,orange,diamond
0.0,4.0,4.0,0.0,6.0,6.0,323.2823570724576,8.0,1.0,phase_2,go,0.0,0.0,1.0,,,,,,,,,green,square
0.0,4.0,4.0,0.0,6.0,6.0,289.9155719205737,8.0,1.0,phase_2,go,0.0,0.0,1.0,,,,,,,,,green,square
0.0,6.0,1.0,1.0,5.0,5.0,273.6547729000449,8.0,1.0,phase_2,stop,0.0,0.0,3.0,,,,,,,,,blue,hexagon
0.0,5.0,0.5,1.0,6.0,0.0,0.0,8.0,1.0,phase_2,stop,0.0,0.0,4.0,,,,,,,,,cyan,circle
0.0,8.0,4.0,1.0,6.0,6.0,279.2720580473542,8.0,1.0,phase_2,stop,0.0,50.0,3.0,,,,,,,,,orange,diamond
0.0,4.0,4.0,0.0,5.0,5.0,344.7155370377004,8.0,1.0,phase_2,go,0.0,0.0,1.0,,,,,,,,,green,square
0.0,7.0,2.0,1.0,5.0,0.0,0.0,8.0,1.0,phase_2,stop,0.0,0.0,4.0,,,,,,,,,magenta,cross
0.0,1.0,0.5,0.0,5.0,5.0,293.2140680495649,8.0,1.0,phase_2,go,50.0,0.0,1.0,,,,,,,,,white,flipped triangle
0.0,2.0,1.0,0.0,7.0,4.0,1083.4571570158005,1.0,1.0,phase_3,,,,,102.0,3.0,136.0,68.0,170.0,102.0,204.0,34.0,yellow,triangle
0.0,3.0,2.0,0.0,7.0,3.0,940.1641949079932,1.0,1.0,phase_3,,,,,324.0,6.0,54.0,216.0,324.0,108.0,270.0,162.0,gray,I
0.0,8.0,4.0,1.0,7.0,1.0,583.4299549460411,1.0,1.0,phase_3,,,,,216.0,4.0,216.0,324.0,54.0,108.0,270.0,162.0,orange,diamond
0.0,1.0,0.5,0.0,7.0,4.0,669.7980258613825,1.0,1.0,phase_3,,,,,78.0,2.0,234.0,156.0,39.0,78.0,195.0,117.0,white,flipped triangle
0.0,4.0,4.0,0.0,7.0,3.0,1152.4174970109016,1.0,1.0,phase_3,,,,,170.0,5.0,68.0,102.0,170.0,204.0,136.0,34.0,green,square
0.0,8.0,4.0,1.0,7.0,2.0,651.085919002071,1.0,1.0,phase_3,,,,,102.0,3.0,136.0,102.0,170.0,68.0,34.0,204.0,orange,diamond
0.0,4.0,4.0,0.0,7.0,4.0,899.5475280098617,1.0,1.0,phase_3,,,,,156.0,4.0,117.0,195.0,234.0,156.0,78.0,39.0,green,square
0.0,3.0,2.0,0.0,7.0,5.0,1116.136871045455,1.0,1.0,phase_3,,,,,234.0,6.0,195.0,117.0,78.0,156.0,234.0,39.0,gray,I
0.0,3.0,2.0,0.0,7.0,2.0,952.278366778046,1.0,1.0,phase_3,,,,,170.0,5.0,204.0,170.0,102.0,136.0,68.0,34.0,gray,I
0.0,7.0,2.0,1.0,7.0,5.0,1386.315262876451,1.0,1.0,phase_3,,,,,270.0,5.0,216.0,108.0,54.0,324.0,270.0,162.0,magenta,cross
0.0,4.0,4.0,0.0,7.0,2.0,1202.6625780854374,1.0,1.0,phase_3,,,,,108.0,2.0,54.0,108.0,270.0,216.0,162.0,324.0,green,square
0.0,8.0,4.0,1.0,7.0,5.0,1369.63426717557,1.0,1.0,phase_3,,,,,195.0,5.0,156.0,234.0,117.0,39.0,195.0,78.0,orange,diamond
0.0,7.0,2.0,1.0,7.0,5.0,766.086651943624,1.0,1.0,phase_3,,,,,117.0,3.0,234.0,195.0,78.0,156.0,117.0,39.0,magenta,cross
0.0,1.0,0.5,0.0,7.0,2.0,2003.763342043385,1.0,1.0,phase_3,,,,,204.0,6.0,34.0,204.0,102.0,170.0,136.0,68.0,white,flipped triangle
0.0,6.0,1.0,1.0,7.0,3.0,837.7608139999211,1.0,1.0,phase_3,,,,,234.0,6.0,195.0,156.0,234.0,117.0,78.0,39.0,blue,hexagon
0.0,2.0,1.0,0.0,7.0,2.0,608.1966219935566,1.0,1.0,phase_3,,,,,78.0,2.0,195.0,78.0,234.0,39.0,117.0,156.0,yellow,triangle
0.0,2.0,1.0,0.0,7.0,5.0,664.227259112522,1.0,1.0,phase_3,,,,,88.0,2.0,44.0,264.0,176.0,220.0,88.0,132.0,yellow,triangle
0.0,3.0,2.0,0.0,7.0,2.0,899.2957430891693,1.0,1.0,phase_3,,,,,294.0,6.0,98.0,294.0,49.0,147.0,196.0,245.0,gray,I
0.0,8.0,4.0,1.0,7.0,5.0,1692.255181958899,1.0,1.0,phase_3,,,,,196.0,4.0,245.0,98.0,294.0,49.0,196.0,147.0,orange,diamond
0.0,4.0,4.0,0.0,7.0,2.0,1397.8419851046056,1.0,1.0,phase_3,,,,,196.0,4.0,147.0,196.0,294.0,49.0,245.0,98.0,green,square
0.0,7.0,2.0,1.0,7.0,5.0,1043.4616038110107,2.0,1.0,phase_3,,,,,216.0,4.0,270.0,162.0,324.0,108.0,216.0,54.0,magenta,cross
0.0,2.0,1.0,0.0,7.0,6.0,403.8869100622833,2.0,1.0,phase_3,,,,,294.0,6.0,196.0,245.0,147.0,49.0,98.0,294.0,yellow,triangle
0.0,6.0,1.0,1.0,7.0,1.0,528.9614531211555,2.0,1.0,phase_3,,,,,170.0,5.0,170.0,204.0,68.0,102.0,136.0,34.0,blue,hexagon
0.0,2.0,1.0,0.0,7.0,5.0,833.4714779630303,2.0,1.0,phase_3,,,,,78.0,2.0,156.0,195.0,39.0,234.0,78.0,117.0,yellow,triangle
0.0,5.0,0.5,1.0,7.0,2.0,647.8197579272091,2.0,1.0,phase_3,,,,,54.0,1.0,108.0,54.0,162.0,216.0,324.0,270.0,cyan,circle
0.0,8.0,4.0,1.0,7.0,4.0,771.9493680633605,2.0,1.0,phase_3,,,,,39.0,1.0,117.0,234.0,156.0,39.0,195.0,78.0,orange,diamond
0.0,2.0,1.0,0.0,7.0,2.0,1252.468738006428,2.0,1.0,phase_3,,,,,102.0,3.0,136.0,102.0,204.0,68.0,34.0,170.0,yellow,triangle
0.0,7.0,2.0,1.0,7.0,5.0,1160.115484148264,2.0,1.0,phase_3,,,,,132.0,3.0,264.0,44.0,176.0,220.0,132.0,88.0,magenta,cross
0.0,1.0,0.5,0.0,7.0,2.0,800.2664579544216,2.0,1.0,phase_3,,,,,147.0,3.0,49.0,147.0,196.0,98.0,294.0,245.0,white,flipped triangle
0.0,1.0,0.5,0.0,7.0,3.0,758.7218671105802,2.0,1.0,phase_3,,,,,156.0,4.0,117.0,78.0,156.0,195.0,234.0,39.0,white,flipped triangle
0.0,5.0,0.5,1.0,7.0,5.0,1202.4299439508468,2.0,1.0,phase_3,,,,,195.0,5.0,234.0,39.0,78.0,117.0,195.0,156.0,cyan,circle
0.0,5.0,0.5,1.0,7.0,5.0,769.7546000126749,2.0,1.0,phase_3,,,,,204.0,6.0,136.0,102.0,170.0,68.0,204.0,34.0,cyan,circle
0.0,1.0,0.5,0.0,7.0,2.0,698.6735579557717,2.0,1.0,phase_3,,,,,132.0,3.0,220.0,132.0,264.0,88.0,176.0,44.0,white,flipped triangle
0.0,8.0,4.0,1.0,7.0,6.0,1030.493039870635,2.0,1.0,phase_3,,,,,132.0,3.0,88.0,264.0,176.0,220.0,44.0,132.0,orange,diamond
0.0,1.0,0.5,0.0,7.0,3.0,725.3990320023149,2.0,1.0,phase_3,,,,,108.0,2.0,216.0,54.0,108.0,162.0,270.0,324.0,white,flipped triangle
0.0,2.0,1.0,0.0,7.0,5.0,785.6069568078965,2.0,1.0,phase_3,,,,,270.0,5.0,54.0,108.0,324.0,162.0,270.0,216.0,yellow,triangle
0.0,4.0,4.0,0.0,7.0,2.0,1000.7993918843567,2.0,1.0,phase_3,,,,,196.0,4.0,294.0,196.0,98.0,245.0,49.0,147.0,green,square
0.0,7.0,2.0,1.0,7.0,1.0,621.8241520691663,2.0,1.0,phase_3,,,,,132.0,3.0,132.0,88.0,264.0,44.0,176.0,220.0,magenta,cross
0.0,5.0,0.5,1.0,7.0,2.0,1045.7444060593843,2.0,1.0,phase_3,,,,,132.0,3.0,44.0,132.0,264.0,88.0,176.0,220.0,cyan,circle
0.0,8.0,4.0,1.0,7.0,2.0,646.43852901645,2.0,1.0,phase_3,,,,,108.0,2.0,270.0,108.0,162.0,324.0,54.0,216.0,orange,diamond
0.0,2.0,1.0,0.0,7.0,2.0,395.7366850227117,3.0,1.0,phase_3,,,,,196.0,4.0,49.0,196.0,294.0,147.0,98.0,245.0,yellow,triangle
0.0,6.0,1.0,1.0,7.0,5.0,750.265636947006,3.0,1.0,phase_3,,,,,162.0,3.0,270.0,216.0,324.0,54.0,162.0,108.0,blue,hexagon
0.0,6.0,1.0,1.0,7.0,3.0,561.2849649041891,3.0,1.0,phase_3,,,,,108.0,2.0,54.0,324.0,108.0,270.0,162.0,216.0,blue,hexagon
0.0,7.0,2.0,1.0,7.0,4.0,1256.1387978494167,3.0,1.0,phase_3,,,,,204.0,6.0,102.0,170.0,136.0,204.0,34.0,68.0,magenta,cross
0.0,3.0,2.0,0.0,7.0,3.0,987.5869459938258,3.0,1.0,phase_3,,,,,108.0,2.0,324.0,162.0,108.0,216.0,270.0,54.0,gray,I
0.0,3.0,2.0,0.0,7.0,5.0,459.8771152086556,3.0,1.0,phase_3,,,,,49.0,1.0,294.0,98.0,245.0,147.0,49.0,196.0,gray,I
0.0,4.0,4.0,0.0,7.0,2.0,381.6625240724534,3.0,1.0,phase_3,,,,,162.0,3.0,216.0,162.0,270.0,54.0,108.0,324.0,green,square
0.0,2.0,1.0,0.0,7.0,3.0,444.5571179967373,3.0,1.0,phase_3,,,,,264.0,6.0,88.0,176.0,264.0,220.0,44.0,132.0,yellow,triangle
0.0,4.0,4.0,0.0,7.0,5.0,573.9292239304632,3.0,1.0,phase_3,,,,,44.0,1.0,132.0,88.0,220.0,264.0,44.0,176.0,green,square
0.0,4.0,4.0,0.0,7.0,4.0,1082.616375060752,3.0,1.0,phase_3,,,,,195.0,5.0,117.0,78.0,39.0,195.0,234.0,156.0,green,square
0.0,5.0,0.5,1.0,7.0,3.0,620.3898508101702,3.0,1.0,phase_3,,,,,204.0,6.0,68.0,136.0,204.0,34.0,170.0,102.0,cyan,circle
0.0,6.0,1.0,1.0,7.0,4.0,620.6064671278,3.0,1.0,phase_3,,,,,117.0,3.0,195.0,78.0,39.0,117.0,156.0,234.0,blue,hexagon
0.0,8.0,4.0,1.0,7.0,3.0,1404.4068339280784,3.0,1.0,phase_3,,,,,204.0,6.0,68.0,34.0,204.0,102.0,136.0,170.0,orange,diamond
0.0,3.0,2.0,0.0,7.0,5.0,752.6131959166378,3.0,1.0,phase_3,,,,,264.0,6.0,132.0,176.0,220.0,88.0,264.0,44.0,gray,I
0.0,6.0,1.0,1.0,7.0,3.0,616.3965938612819,3.0,1.0,phase_3,,,,,147.0,3.0,98.0,49.0,147.0,245.0,294.0,196.0,blue,hexagon
0.0,1.0,0.5,0.0,7.0,3.0,1056.7355710081756,3.0,1.0,phase_3,,,,,264.0,6.0,176.0,132.0,264.0,88.0,44.0,220.0,white,flipped triangle
0.0,4.0,4.0,0.0,7.0,2.0,1556.10815086402,3.0,1.0,phase_3,,,,,170.0,5.0,204.0,170.0,136.0,68.0,102.0,34.0,green,square
0.0,5.0,0.5,1.0,7.0,6.0,498.4594690613448,3.0,1.0,phase_3,,,,,245.0,5.0,196.0,49.0,294.0,147.0,98.0,245.0,cyan,circle
0.0,7.0,2.0,1.0,7.0,4.0,924.21920504421,3.0,1.0,phase_3,,,,,195.0,5.0,117.0,78.0,39.0,195.0,156.0,234.0,magenta,cross
0.0,7.0,2.0,1.0,7.0,3.0,984.3349950388074,3.0,1.0,phase_3,,,,,170.0,5.0,68.0,102.0,170.0,204.0,136.0,34.0,magenta,cross
0.0,6.0,1.0,1.0,7.0,3.0,543.2732801418751,4.0,1.0,phase_3,,,,,220.0,5.0,176.0,88.0,220.0,132.0,44.0,264.0,blue,hexagon
0.0,6.0,1.0,1.0,7.0,4.0,250.060616992414,4.0,1.0,phase_3,,,,,34.0,1.0,102.0,68.0,204.0,34.0,136.0,170.0,blue,hexagon
0.0,5.0,0.5,1.0,7.0,3.0,695.1914520468563,4.0,1.0,phase_3,,,,,324.0,6.0,108.0,54.0,324.0,270.0,162.0,216.0,cyan,circle
0.0,5.0,0.5,1.0,7.0,5.0,866.7854000814259,4.0,1.0,phase_3,,,,,196.0,4.0,294.0,49.0,147.0,98.0,196.0,245.0,cyan,circle
0.0,3.0,2.0,0.0,7.0,4.0,828.4569731913507,4.0,1.0,phase_3,,,,,34.0,1.0,68.0,136.0,170.0,34.0,102.0,204.0,gray,I
0.0,7.0,2.0,1.0,7.0,3.0,675.6154769100249,4.0,1.0,phase_3,,,,,294.0,6.0,245.0,49.0,294.0,98.0,147.0,196.0,magenta,cross
0.0,6.0,1.0,1.0,7.0,2.0,645.388157106936,4.0,1.0,phase_3,,,,,88.0,2.0,264.0,88.0,176.0,132.0,44.0,220.0,blue,hexagon
0.0,3.0,2.0,0.0,7.0,4.0,1127.0858810748905,4.0,1.0,phase_3,,,,,234.0,6.0,78.0,156.0,195.0,234.0,39.0,117.0,gray,I
0.0,4.0,4.0,0.0,7.0,2.0,752.133518923074,4.0,1.0,phase_3,,,,,132.0,3.0,44.0,132.0,264.0,88.0,220.0,176.0,green,square
0.0,3.0,2.0,0.0,7.0,5.0,490.4306170064956,4.0,1.0,phase_3,,,,,264.0,6.0,220.0,44.0,132.0,88.0,264.0,176.0,gray,I
0.0,1.0,0.5,0.0,7.0,5.0,483.1682259682566,4.0,1.0,phase_3,,,,,270.0,5.0,216.0,324.0,54.0,108.0,270.0,162.0,white,flipped triangle
0.0,2.0,1.0,0.0,7.0,5.0,847.0163508318365,4.0,1.0,phase_3,,,,,54.0,1.0,216.0,324.0,270.0,162.0,54.0,108.0,yellow,triangle
0.0,8.0,4.0,1.0,7.0,5.0,1022.1080239862204,4.0,1.0,phase_3,,,,,294.0,6.0,49.0,196.0,98.0,147.0,294.0,245.0,orange,diamond
0.0,8.0,4.0,1.0,7.0,5.0,759.9124358966947,4.0,1.0,phase_3,,,,,88.0,2.0,220.0,132.0,264.0,176.0,88.0,44.0,orange,diamond
0.0,1.0,0.5,0.0,7.0,2.0,667.2741810325533,4.0,1.0,phase_3,,,,,294.0,6.0,49.0,294.0,98.0,196.0,245.0,147.0,white,flipped triangle
0.0,1.0,0.5,0.0,7.0,5.0,810.0214130245149,4.0,1.0,phase_3,,,,,204.0,6.0,34.0,136.0,102.0,68.0,204.0,170.0,white,flipped triangle
0.0,7.0,2.0,1.0,7.0,5.0,570.9872851148248,4.0,1.0,phase_3,,,,,245.0,5.0,294.0,98.0,49.0,147.0,245.0,196.0,magenta,cross
0.0,5.0,0.5,1.0,7.0,3.0,539.7470239549875,4.0,1.0,phase_3,,,,,156.0,4.0,78.0,195.0,156.0,117.0,234.0,39.0,cyan,circle
0.0,5.0,0.5,1.0,7.0,2.0,781.8848981987685,4.0,1.0,phase_3,,,,,220.0,5.0,132.0,220.0,264.0,88.0,176.0,44.0,cyan,circle
0.0,6.0,1.0,1.0,7.0,4.0,623.5599180217832,4.0,1.0,phase_3,,,,,147.0,3.0,245.0,49.0,196.0,147.0,294.0,98.0,blue,hexagon
