raw_reward_magnitude,stim_reward,stepwise_reward_magnitude,paired_with_stopping,stim_location,response,reaction_time,block,num_trial_presentations,which_phase,stop_signal_trial_type,left_SSD,right_SSD,accuracy,chosen_bidding_amount,chosen_bidding_level,possible_bid_1,possible_bid_2,possible_bid_3,possible_bid_4,possible_bid_5,possible_bid_6,color_text,shape_text
184.0,7.0,2.0,1.0,4.0,4.0,355.0715949386358,1.0,1.0,phase_1,,,,,,,,,,,,,magenta,square
30.0,5.0,0.5,1.0,2.0,2.0,396.2689759209752,1.0,1.0,phase_1,,,,,,,,,,,,,green,diamond
198.0,3.0,2.0,0.0,3.0,3.0,353.6263038404286,1.0,1.0,phase_1,,,,,,,,,,,,,white,circle
380.0,8.0,4.0,1.0,4.0,4.0,280.450867023319,1.0,1.0,phase_1,,,,,,,,,,,,,blue,flipped triangle
0.0,8.0,0.0,1.0,4.0,4.0,330.7820991612971,1.0,1.0,phase_1,,,,,,,,,,,,,blue,flipped triangle
406.0,4.0,4.0,0.0,4.0,4.0,289.9305978789925,1.0,1.0,phase_1,,,,,,,,,,,,,gray,hexagon
0.0,4.0,0.0,0.0,3.0,3.0,365.1311751455068,1.0,1.0,phase_1,,,,,,,,,,,,,gray,hexagon
51.0,5.0,0.5,1.0,1.0,1.0,265.1718249544501,1.0,1.0,phase_1,,,,,,,,,,,,,green,diamond
0.0,6.0,0.0,1.0,4.0,4.0,309.7150158137083,1.0,1.0,phase_1,,,,,,,,,,,,,yellow,I
90.0,6.0,1.0,1.0,2.0,2.0,277.339344844222,1.0,1.0,phase_1,,,,,,,,,,,,,yellow,I
403.0,8.0,4.0,1.0,1.0,1.0,294.751541223377,1.0,1.0,phase_1,,,,,,,,,,,,,blue,flipped triangle
87.0,6.0,1.0,1.0,2.0,2.0,287.2714209370315,1.0,1.0,phase_1,,,,,,,,,,,,,yellow,I
70.0,1.0,0.5,0.0,3.0,3.0,304.495288990438,1.0,1.0,phase_1,,,,,,,,,,,,,orange,cross
0.0,8.0,0.0,1.0,4.0,4.0,253.029378131032,1.0,1.0,phase_1,,,,,,,,,,,,,blue,flipped triangle
34.0,5.0,0.5,1.0,4.0,4.0,322.5399181246757,1.0,1.0,phase_1,,,,,,,,,,,,,green,diamond
34.0,1.0,0.5,0.0,2.0,2.0,240.3035839088261,1.0,1.0,phase_1,,,,,,,,,,,,,orange,cross
209.0,3.0,2.0,0.0,3.0,3.0,286.930114030838,1.0,1.0,phase_1,,,,,,,,,,,,,white,circle
419.0,8.0,4.0,1.0,2.0,2.0,263.5621726512909,1.0,1.0,phase_1,,,,,,,,,,,,,blue,flipped triangle
37.0,5.0,0.5,1.0,3.0,3.0,286.2050300464034,1.0,1.0,phase_1,,,,,,,,,,,,,green,diamond
120.0,6.0,1.0,1.0,1.0,1.0,228.2335581257939,1.0,1.0,phase_1,,,,,,,,,,,,,yellow,I
60.0,5.0,0.5,1.0,1.0,1.0,231.5258672460913,1.0,1.0,phase_1,,,,,,,,,,,,,green,diamond
385.0,8.0,4.0,1.0,2.0,2.0,330.3587078116834,1.0,1.0,phase_1,,,,,,,,,,,,,blue,flipped triangle
222.0,3.0,2.0,0.0,2.0,2.0,454.788152128458,1.0,1.0,phase_1,,,,,,,,,,,,,white,circle
0.0,1.0,0.0,0.0,3.0,3.0,352.0455020479858,1.0,1.0,phase_1,,,,,,,,,,,,,orange,cross
414.0,4.0,4.0,0.0,4.0,4.0,456.7585778422653,1.0,1.0,phase_1,,,,,,,,,,,,,gray,hexagon
0.0,5.0,0.0,1.0,3.0,3.0,468.9700147137046,1.0,2.0,phase_1,,,,,,,,,,,,,green,diamond
381.0,4.0,4.0,0.0,1.0,1.0,512.5840613618493,1.0,1.0,phase_1,,,,,,,,,,,,,gray,hexagon
63.0,5.0,0.5,1.0,4.0,4.0,398.8120830617845,1.0,1.0,phase_1,,,,,,,,,,,,,green,diamond
185.0,3.0,2.0,0.0,4.0,4.0,377.5731702335179,1.0,1.0,phase_1,,,,,,,,,,,,,white,circle
195.0,3.0,2.0,0.0,3.0,3.0,357.1280050091445,1.0,1.0,phase_1,,,,,,,,,,,,,white,circle
421.0,4.0,4.0,0.0,3.0,3.0,353.2265508547425,1.0,1.0,phase_1,,,,,,,,,,,,,gray,hexagon
208.0,7.0,2.0,1.0,2.0,2.0,422.1895663067698,1.0,1.0,phase_1,,,,,,,,,,,,,magenta,square
179.0,7.0,2.0,1.0,2.0,2.0,452.7755328454077,1.0,1.0,phase_1,,,,,,,,,,,,,magenta,square
118.0,6.0,1.0,1.0,1.0,1.0,415.2227472513914,1.0,1.0,phase_1,,,,,,,,,,,,,yellow,I
80.0,2.0,1.0,0.0,4.0,4.0,360.0015472620725,1.0,1.0,phase_1,,,,,,,,,,,,,cyan,triangle
30.0,1.0,0.5,0.0,4.0,4.0,377.4710223078727,1.0,1.0,phase_1,,,,,,,,,,,,,orange,cross
40.0,1.0,0.5,0.0,4.0,4.0,456.2339279800653,1.0,1.0,phase_1,,,,,,,,,,,,,orange,cross
419.0,4.0,4.0,0.0,3.0,3.0,341.8551050126552,1.0,1.0,phase_1,,,,,,,,,,,,,gray,hexagon
376.0,8.0,4.0,1.0,1.0,1.0,375.4354859702289,1.0,1.0,phase_1,,,,,,,,,,,,,blue,flipped triangle
76.0,6.0,1.0,1.0,1.0,1.0,567.7216467447579,1.0,1.0,phase_1,,,,,,,,,,,,,yellow,I
0.0,7.0,0.0,1.0,4.0,4.0,408.8920787908137,1.0,1.0,phase_1,,,,,,,,,,,,,magenta,square
202.0,7.0,2.0,1.0,2.0,2.0,727.0762547850609,1.0,1.0,phase_1,,,,,,,,,,,,,magenta,square
103.0,6.0,1.0,1.0,4.0,4.0,378.6605279892683,1.0,1.0,phase_1,,,,,,,,,,,,,yellow,I
418.0,8.0,4.0,1.0,1.0,1.0,367.5012867897749,1.0,1.0,phase_1,,,,,,,,,,,,,blue,flipped triangle
418.0,4.0,4.0,0.0,2.0,2.0,540.9414959140122,1.0,1.0,phase_1,,,,,,,,,,,,,gray,hexagon
0.0,6.0,0.0,1.0,1.0,1.0,583.5732310079038,1.0,1.0,phase_1,,,,,,,,,,,,,yellow,I
184.0,7.0,2.0,1.0,1.0,1.0,580.2421201951802,1.0,1.0,phase_1,,,,,,,,,,,,,magenta,square
105.0,6.0,1.0,1.0,3.0,3.0,393.2612752541899,1.0,1.0,phase_1,,,,,,,,,,,,,yellow,I
195.0,7.0,2.0,1.0,1.0,1.0,385.3334900923073,1.0,1.0,phase_1,,,,,,,,,,,,,magenta,square
423.0,8.0,4.0,1.0,2.0,2.0,612.6700262539089,1.0,1.0,phase_1,,,,,,,,,,,,,blue,flipped triangle
185.0,7.0,2.0,1.0,3.0,3.0,543.874345254153,1.0,1.0,phase_1,,,,,,,,,,,,,magenta,square
0.0,4.0,0.0,0.0,2.0,2.0,709.499011747539,1.0,1.0,phase_1,,,,,,,,,,,,,gray,hexagon
189.0,7.0,2.0,1.0,4.0,4.0,394.2877911031246,1.0,1.0,phase_1,,,,,,,,,,,,,magenta,square
187.0,3.0,2.0,0.0,3.0,3.0,429.9661880359053,1.0,1.0,phase_1,,,,,,,,,,,,,white,circle
191.0,7.0,2.0,1.0,4.0,4.0,370.6054729409516,1.0,1.0,phase_1,,,,,,,,,,,,,magenta,square
0.0,8.0,0.0,1.0,1.0,1.0,337.3941350728273,1.0,1.0,phase_1,,,,,,,,,,,,,blue,flipped triangle
423.0,4.0,4.0,0.0,3.0,3.0,430.8875510469079,1.0,1.0,phase_1,,,,,,,,,,,,,gray,hexagon
94.0,6.0,1.0,1.0,1.0,1.0,344.4383232854306,1.0,1.0,phase_1,,,,,,,,,,,,,yellow,I
220.0,7.0,2.0,1.0,4.0,4.0,382.9796779900789,1.0,1.0,phase_1,,,,,,,,,,,,,magenta,square
120.0,2.0,1.0,0.0,1.0,1.0,505.4772822186351,1.0,1.0,phase_1,,,,,,,,,,,,,cyan,triangle
107.0,6.0,1.0,1.0,3.0,3.0,376.5532597899437,1.0,1.0,phase_1,,,,,,,,,,,,,yellow,I
44.0,1.0,0.5,0.0,4.0,4.0,589.237567037344,1.0,1.0,phase_1,,,,,,,,,,,,,orange,cross
82.0,2.0,1.0,0.0,3.0,3.0,386.3967871293425,1.0,1.0,phase_1,,,,,,,,,,,,,cyan,triangle
47.0,1.0,0.5,0.0,1.0,1.0,405.1108113490045,1.0,1.0,phase_1,,,,,,,,,,,,,orange,cross
376.0,8.0,4.0,1.0,2.0,2.0,611.840090714395,1.0,1.0,phase_1,,,,,,,,,,,,,blue,flipped triangle
77.0,2.0,1.0,0.0,3.0,3.0,481.5395418554544,1.0,1.0,phase_1,,,,,,,,,,,,,cyan,triangle
111.0,2.0,1.0,0.0,4.0,4.0,428.7231410853565,1.0,1.0,phase_1,,,,,,,,,,,,,cyan,triangle
184.0,3.0,2.0,0.0,2.0,2.0,455.6753071956336,1.0,1.0,phase_1,,,,,,,,,,,,,white,circle
208.0,3.0,2.0,0.0,2.0,2.0,437.7518058754504,1.0,1.0,phase_1,,,,,,,,,,,,,white,circle
220.0,3.0,2.0,0.0,4.0,4.0,353.0934387817979,1.0,1.0,phase_1,,,,,,,,,,,,,white,circle
199.0,7.0,2.0,1.0,2.0,2.0,439.224534202367,1.0,1.0,phase_1,,,,,,,,,,,,,magenta,square
0.0,5.0,0.0,1.0,1.0,1.0,322.5107751786709,1.0,1.0,phase_1,,,,,,,,,,,,,green,diamond
222.0,3.0,2.0,0.0,1.0,1.0,478.1547300517559,1.0,1.0,phase_1,,,,,,,,,,,,,white,circle
53.0,1.0,0.5,0.0,3.0,3.0,387.9560274071991,1.0,1.0,phase_1,,,,,,,,,,,,,orange,cross
123.0,6.0,1.0,1.0,3.0,3.0,417.813214007765,1.0,1.0,phase_1,,,,,,,,,,,,,yellow,I
423.0,4.0,4.0,0.0,1.0,1.0,373.3931561000645,1.0,1.0,phase_1,,,,,,,,,,,,,gray,hexagon
44.0,5.0,0.5,1.0,2.0,2.0,436.0583918169141,1.0,1.0,phase_1,,,,,,,,,,,,,green,diamond
220.0,7.0,2.0,1.0,3.0,3.0,477.6863949373364,1.0,1.0,phase_1,,,,,,,,,,,,,magenta,square
403.0,4.0,4.0,0.0,3.0,3.0,330.7351041585207,1.0,1.0,phase_1,,,,,,,,,,,,,gray,hexagon
87.0,2.0,1.0,0.0,1.0,1.0,368.6586380936205,1.0,1.0,phase_1,,,,,,,,,,,,,cyan,triangle
80.0,6.0,1.0,1.0,1.0,1.0,365.3478440828621,1.0,1.0,phase_1,,,,,,,,,,,,,yellow,I
398.0,8.0,4.0,1.0,1.0,1.0,393.9785896800458,1.0,1.0,phase_1,,,,,,,,,,,,,blue,flipped triangle
57.0,5.0,0.5,1.0,1.0,1.0,364.9943307973444,1.0,1.0,phase_1,,,,,,,,,,,,,green,diamond
0.0,8.0,0.0,1.0,4.0,4.0,580.3819396533072,1.0,1.0,phase_1,,,,,,,,,,,,,blue,flipped triangle
0.0,3.0,0.0,0.0,4.0,4.0,352.6095226407051,1.0,1.0,phase_1,,,,,,,,,,,,,white,circle
185.0,3.0,2.0,0.0,1.0,1.0,356.844013556838,1.0,1.0,phase_1,,,,,,,,,,,,,white,circle
0.0,2.0,0.0,0.0,3.0,3.0,306.6849592141807,1.0,1.0,phase_1,,,,,,,,,,,,,cyan,triangle
71.0,1.0,0.5,0.0,1.0,1.0,381.7342701368034,1.0,1.0,phase_1,,,,,,,,,,,,,orange,cross
0.0,7.0,0.0,1.0,4.0,4.0,348.4187675639987,1.0,1.0,phase_1,,,,,,,,,,,,,magenta,square
408.0,4.0,4.0,0.0,1.0,1.0,311.7453078739345,1.0,1.0,phase_1,,,,,,,,,,,,,gray,hexagon
50.0,1.0,0.5,0.0,4.0,4.0,262.4165522865951,1.0,1.0,phase_1,,,,,,,,,,,,,orange,cross
94.0,2.0,1.0,0.0,1.0,1.0,288.2490144111216,1.0,1.0,phase_1,,,,,,,,,,,,,cyan,triangle
419.0,8.0,4.0,1.0,4.0,4.0,261.8775158189237,1.0,1.0,phase_1,,,,,,,,,,,,,blue,flipped triangle
118.0,2.0,1.0,0.0,4.0,4.0,323.9305140450597,1.0,1.0,phase_1,,,,,,,,,,,,,cyan,triangle
377.0,8.0,4.0,1.0,3.0,3.0,279.8732412047684,1.0,1.0,phase_1,,,,,,,,,,,,,blue,flipped triangle
0.0,3.0,0.0,0.0,1.0,1.0,307.1783958002925,1.0,1.0,phase_1,,,,,,,,,,,,,white,circle
0.0,6.0,0.0,1.0,1.0,1.0,432.7493947930634,1.0,1.0,phase_1,,,,,,,,,,,,,yellow,I
414.0,8.0,4.0,1.0,1.0,1.0,373.8244231790304,1.0,1.0,phase_1,,,,,,,,,,,,,blue,flipped triangle
220.0,3.0,2.0,0.0,1.0,1.0,410.2149000391364,1.0,1.0,phase_1,,,,,,,,,,,,,white,circle
38.0,1.0,0.5,0.0,2.0,2.0,332.7940022572875,1.0,1.0,phase_1,,,,,,,,,,,,,orange,cross
61.0,1.0,0.5,0.0,3.0,3.0,493.3426678180694,2.0,1.0,phase_1,,,,,,,,,,,,,orange,cross
0.0,1.0,0.0,0.0,1.0,1.0,307.1700120344758,2.0,1.0,phase_1,,,,,,,,,,,,,orange,cross
79.0,6.0,1.0,1.0,2.0,2.0,390.0831560604274,2.0,1.0,phase_1,,,,,,,,,,,,,yellow,I
0.0,2.0,0.0,0.0,2.0,2.0,337.5839185900986,2.0,1.0,phase_1,,,,,,,,,,,,,cyan,triangle
391.0,4.0,4.0,0.0,2.0,2.0,391.4194838143885,2.0,1.0,phase_1,,,,,,,,,,,,,gray,hexagon
198.0,7.0,2.0,1.0,3.0,3.0,380.4818270727992,2.0,1.0,phase_1,,,,,,,,,,,,,magenta,square
121.0,2.0,1.0,0.0,2.0,2.0,330.56600531563157,2.0,1.0,phase_1,,,,,,,,,,,,,cyan,triangle
63.0,1.0,0.5,0.0,2.0,2.0,315.9736557863652,2.0,1.0,phase_1,,,,,,,,,,,,,orange,cross
408.0,8.0,4.0,1.0,1.0,1.0,338.5632913559675,2.0,1.0,phase_1,,,,,,,,,,,,,blue,flipped triangle
46.0,1.0,0.5,0.0,3.0,3.0,333.5269400849938,2.0,1.0,phase_1,,,,,,,,,,,,,orange,cross
29.0,5.0,0.5,1.0,1.0,1.0,283.5620390251279,2.0,1.0,phase_1,,,,,,,,,,,,,green,diamond
413.0,4.0,4.0,0.0,1.0,1.0,312.3072697781026,2.0,1.0,phase_1,,,,,,,,,,,,,gray,hexagon
0.0,8.0,0.0,1.0,3.0,3.0,291.2421762011945,2.0,1.0,phase_1,,,,,,,,,,,,,blue,flipped triangle
92.0,6.0,1.0,1.0,2.0,2.0,306.5216611139476,2.0,1.0,phase_1,,,,,,,,,,,,,yellow,I
381.0,8.0,4.0,1.0,2.0,2.0,484.0929410420358,2.0,1.0,phase_1,,,,,,,,,,,,,blue,flipped triangle
0.0,4.0,0.0,0.0,2.0,2.0,425.5978278815746,2.0,1.0,phase_1,,,,,,,,,,,,,gray,hexagon
189.0,7.0,2.0,1.0,2.0,2.0,335.6873989105224,2.0,1.0,phase_1,,,,,,,,,,,,,magenta,square
0.0,8.0,0.0,1.0,1.0,1.0,372.847840655595,2.0,1.0,phase_1,,,,,,,,,,,,,blue,flipped triangle
211.0,3.0,2.0,0.0,1.0,1.0,398.6392207443714,2.0,1.0,phase_1,,,,,,,,,,,,,white,circle
98.0,2.0,1.0,0.0,4.0,4.0,317.9220417514443,2.0,1.0,phase_1,,,,,,,,,,,,,cyan,triangle
404.0,4.0,4.0,0.0,2.0,2.0,267.2893428243696,2.0,1.0,phase_1,,,,,,,,,,,,,gray,hexagon
79.0,2.0,1.0,0.0,4.0,4.0,347.4764213897288,2.0,2.0,phase_1,,,,,,,,,,,,,cyan,triangle
0.0,4.0,0.0,0.0,2.0,2.0,401.531005743891,2.0,1.0,phase_1,,,,,,,,,,,,,gray,hexagon
46.0,5.0,0.5,1.0,3.0,3.0,422.2587719559669,2.0,1.0,phase_1,,,,,,,,,,,,,green,diamond
96.0,6.0,1.0,1.0,2.0,2.0,451.1365350335836,2.0,1.0,phase_1,,,,,,,,,,,,,yellow,I
199.0,3.0,2.0,0.0,4.0,4.0,349.0825016051531,2.0,1.0,phase_1,,,,,,,,,,,,,white,circle
0.0,2.0,0.0,0.0,1.0,1.0,500.4209498874843,2.0,1.0,phase_1,,,,,,,,,,,,,cyan,triangle
0.0,6.0,0.0,1.0,4.0,4.0,400.9287003427744,2.0,1.0,phase_1,,,,,,,,,,,,,yellow,I
59.0,5.0,0.5,1.0,3.0,3.0,357.5877868570387,2.0,1.0,phase_1,,,,,,,,,,,,,green,diamond
0.0,7.0,0.0,1.0,1.0,1.0,440.1340628974139,2.0,1.0,phase_1,,,,,,,,,,,,,magenta,square
26.0,5.0,0.5,1.0,1.0,1.0,397.186575923115,2.0,1.0,phase_1,,,,,,,,,,,,,green,diamond
81.0,6.0,1.0,1.0,3.0,3.0,465.3689027763903,2.0,1.0,phase_1,,,,,,,,,,,,,yellow,I
28.0,1.0,0.5,0.0,4.0,4.0,429.6436579898,2.0,1.0,phase_1,,,,,,,,,,,,,orange,cross
217.0,7.0,2.0,1.0,1.0,1.0,340.6261308118701,2.0,1.0,phase_1,,,,,,,,,,,,,magenta,square
412.0,4.0,4.0,0.0,4.0,4.0,335.4475391097367,2.0,1.0,phase_1,,,,,,,,,,,,,gray,hexagon
409.0,8.0,4.0,1.0,3.0,3.0,349.3900229223072,2.0,1.0,phase_1,,,,,,,,,,,,,blue,flipped triangle
0.0,2.0,0.0,0.0,3.0,3.0,410.7148549519479,2.0,1.0,phase_1,,,,,,,,,,,,,cyan,triangle
106.0,6.0,1.0,1.0,2.0,2.0,397.198598831892,2.0,1.0,phase_1,,,,,,,,,,,,,yellow,I
0.0,5.0,0.0,1.0,3.0,3.0,323.9717176184058,2.0,1.0,phase_1,,,,,,,,,,,,,green,diamond
216.0,3.0,2.0,0.0,4.0,4.0,439.2984388396144,2.0,1.0,phase_1,,,,,,,,,,,,,white,circle
0.0,7.0,0.0,1.0,1.0,1.0,355.7730852626264,2.0,1.0,phase_1,,,,,,,,,,,,,magenta,square
82.0,6.0,1.0,1.0,4.0,4.0,323.4459799714386,2.0,1.0,phase_1,,,,,,,,,,,,,yellow,I
0.0,7.0,0.0,1.0,1.0,1.0,356.7601200193167,2.0,1.0,phase_1,,,,,,,,,,,,,magenta,square
0.0,3.0,0.0,0.0,3.0,3.0,426.3850380666554,2.0,1.0,phase_1,,,,,,,,,,,,,white,circle
80.0,2.0,1.0,0.0,1.0,1.0,245.4112418927252,2.0,1.0,phase_1,,,,,,,,,,,,,cyan,triangle
392.0,8.0,4.0,1.0,4.0,4.0,372.8301371447742,2.0,1.0,phase_1,,,,,,,,,,,,,blue,flipped triangle
376.0,4.0,4.0,0.0,4.0,4.0,402.8980587609112,2.0,1.0,phase_1,,,,,,,,,,,,,gray,hexagon
385.0,4.0,4.0,0.0,2.0,2.0,286.2353841774165,2.0,1.0,phase_1,,,,,,,,,,,,,gray,hexagon
0.0,5.0,0.0,1.0,3.0,3.0,314.7253016941249,2.0,1.0,phase_1,,,,,,,,,,,,,green,diamond
0.0,4.0,0.0,0.0,2.0,2.0,286.1661538481712,2.0,1.0,phase_1,,,,,,,,,,,,,gray,hexagon
65.0,1.0,0.5,0.0,4.0,4.0,421.2850178591907,2.0,1.0,phase_1,,,,,,,,,,,,,orange,cross
0.0,4.0,0.0,0.0,4.0,4.0,361.4575979299843,2.0,1.0,phase_1,,,,,,,,,,,,,gray,hexagon
398.0,4.0,4.0,0.0,3.0,3.0,363.1102428771555,2.0,1.0,phase_1,,,,,,,,,,,,,gray,hexagon
65.0,5.0,0.5,1.0,4.0,4.0,343.6766308732331,2.0,1.0,phase_1,,,,,,,,,,,,,green,diamond
118.0,2.0,1.0,0.0,1.0,1.0,360.1139760576188,2.0,1.0,phase_1,,,,,,,,,,,,,cyan,triangle
0.0,1.0,0.0,0.0,2.0,2.0,380.3575159981847,2.0,1.0,phase_1,,,,,,,,,,,,,orange,cross
0.0,3.0,0.0,0.0,1.0,1.0,429.9027556553483,2.0,1.0,phase_1,,,,,,,,,,,,,white,circle
39.0,1.0,0.5,0.0,3.0,3.0,332.54653820768,2.0,1.0,phase_1,,,,,,,,,,,,,orange,cross
53.0,5.0,0.5,1.0,1.0,1.0,408.7902987375855,2.0,1.0,phase_1,,,,,,,,,,,,,green,diamond
37.0,1.0,0.5,0.0,1.0,1.0,331.8595951423049,2.0,1.0,phase_1,,,,,,,,,,,,,orange,cross
205.0,7.0,2.0,1.0,3.0,3.0,304.4713512063026,2.0,1.0,phase_1,,,,,,,,,,,,,magenta,square
225.0,7.0,2.0,1.0,1.0,1.0,312.9603238776326,2.0,1.0,phase_1,,,,,,,,,,,,,magenta,square
0.0,5.0,0.0,1.0,1.0,1.0,394.4355547428131,2.0,1.0,phase_1,,,,,,,,,,,,,green,diamond
44.0,1.0,0.5,0.0,3.0,3.0,402.3715909570455,2.0,1.0,phase_1,,,,,,,,,,,,,orange,cross
0.0,5.0,0.0,1.0,4.0,4.0,358.1289276480675,2.0,1.0,phase_1,,,,,,,,,,,,,green,diamond
48.0,1.0,0.5,0.0,4.0,4.0,360.5638700537383,2.0,1.0,phase_1,,,,,,,,,,,,,orange,cross
111.0,6.0,1.0,1.0,1.0,1.0,340.8624976873398,2.0,1.0,phase_1,,,,,,,,,,,,,yellow,I
65.0,5.0,0.5,1.0,2.0,2.0,418.7743519432843,2.0,1.0,phase_1,,,,,,,,,,,,,green,diamond
117.0,6.0,1.0,1.0,3.0,3.0,361.1295190639794,2.0,1.0,phase_1,,,,,,,,,,,,,yellow,I
178.0,7.0,2.0,1.0,1.0,1.0,300.0543410889804,2.0,1.0,phase_1,,,,,,,,,,,,,magenta,square
121.0,6.0,1.0,1.0,3.0,3.0,337.5188591890037,2.0,1.0,phase_1,,,,,,,,,,,,,yellow,I
51.0,1.0,0.5,0.0,1.0,1.0,332.9250370152294,2.0,1.0,phase_1,,,,,,,,,,,,,orange,cross
403.0,4.0,4.0,0.0,3.0,3.0,348.6987557262182,2.0,1.0,phase_1,,,,,,,,,,,,,gray,hexagon
200.0,3.0,2.0,0.0,4.0,4.0,327.9030350968241,2.0,1.0,phase_1,,,,,,,,,,,,,white,circle
381.0,4.0,4.0,0.0,4.0,4.0,540.4984839260578,2.0,1.0,phase_1,,,,,,,,,,,,,gray,hexagon
57.0,1.0,0.5,0.0,1.0,1.0,318.5293017886579,2.0,1.0,phase_1,,,,,,,,,,,,,orange,cross
0.0,1.0,0.0,0.0,2.0,2.0,371.8493082560599,2.0,1.0,phase_1,,,,,,,,,,,,,orange,cross
217.0,3.0,2.0,0.0,1.0,1.0,376.1181430891156,2.0,1.0,phase_1,,,,,,,,,,,,,white,circle
0.0,4.0,0.0,0.0,2.0,2.0,455.5887691676616,2.0,1.0,phase_1,,,,,,,,,,,,,gray,hexagon
397.0,4.0,4.0,0.0,2.0,2.0,684.8004562780261,2.0,1.0,phase_1,,,,,,,,,,,,,gray,hexagon
44.0,5.0,0.5,1.0,2.0,2.0,408.6003648117184,2.0,1.0,phase_1,,,,,,,,,,,,,green,diamond
0.0,8.0,0.0,1.0,2.0,2.0,365.9331551752984,2.0,1.0,phase_1,,,,,,,,,,,,,blue,flipped triangle
97.0,6.0,1.0,1.0,2.0,2.0,328.2928899861872,2.0,1.0,phase_1,,,,,,,,,,,,,yellow,I
403.0,8.0,4.0,1.0,3.0,3.0,348.728169221431,2.0,1.0,phase_1,,,,,,,,,,,,,blue,flipped triangle
31.0,5.0,0.5,1.0,4.0,4.0,401.4445599168539,2.0,1.0,phase_1,,,,,,,,,,,,,green,diamond
0.0,3.0,0.0,0.0,4.0,4.0,448.9851011894643,2.0,1.0,phase_1,,,,,,,,,,,,,white,circle
34.0,5.0,0.5,1.0,4.0,4.0,323.6139030195772,2.0,1.0,phase_1,,,,,,,,,,,,,green,diamond
0.0,7.0,0.0,1.0,2.0,2.0,319.2560630850494,2.0,1.0,phase_1,,,,,,,,,,,,,magenta,square
225.0,3.0,2.0,0.0,1.0,1.0,348.3106875792146,2.0,1.0,phase_1,,,,,,,,,,,,,white,circle
73.0,1.0,0.5,0.0,1.0,1.0,360.1927477866411,2.0,1.0,phase_1,,,,,,,,,,,,,orange,cross
124.0,6.0,1.0,1.0,4.0,4.0,336.7443899624049,2.0,1.0,phase_1,,,,,,,,,,,,,yellow,I
405.0,4.0,4.0,0.0,3.0,3.0,308.6582622490823,2.0,1.0,phase_1,,,,,,,,,,,,,gray,hexagon
397.0,8.0,4.0,1.0,4.0,4.0,383.0867218784988,2.0,1.0,phase_1,,,,,,,,,,,,,blue,flipped triangle
87.0,6.0,1.0,1.0,3.0,3.0,295.0856871902942,2.0,1.0,phase_1,,,,,,,,,,,,,yellow,I
123.0,2.0,1.0,0.0,2.0,2.0,336.1557950265705,2.0,1.0,phase_1,,,,,,,,,,,,,cyan,triangle
0.0,7.0,0.0,1.0,4.0,4.0,412.6968276686966,2.0,1.0,phase_1,,,,,,,,,,,,,magenta,square
377.0,4.0,4.0,0.0,3.0,3.0,339.6670082584023,2.0,1.0,phase_1,,,,,,,,,,,,,gray,hexagon
376.0,8.0,4.0,1.0,1.0,1.0,480.3431103937328,2.0,1.0,phase_1,,,,,,,,,,,,,blue,flipped triangle
77.0,6.0,1.0,1.0,4.0,4.0,532.5708319433033,2.0,1.0,phase_1,,,,,,,,,,,,,yellow,I
0.0,1.0,0.0,0.0,3.0,3.0,315.1070782914758,2.0,1.0,phase_1,,,,,,,,,,,,,orange,cross
0.0,2.0,0.0,0.0,1.0,1.0,392.1430790796876,3.0,1.0,phase_1,,,,,,,,,,,,,cyan,triangle
405.0,8.0,4.0,1.0,3.0,3.0,331.6565710119903,3.0,1.0,phase_1,,,,,,,,,,,,,blue,flipped triangle
419.0,4.0,4.0,0.0,4.0,4.0,465.6609441153705,3.0,1.0,phase_1,,,,,,,,,,,,,gray,hexagon
103.0,2.0,1.0,0.0,4.0,4.0,364.0599749051034,3.0,1.0,phase_1,,,,,,,,,,,,,cyan,triangle
73.0,5.0,0.5,1.0,1.0,1.0,394.397406373173,3.0,1.0,phase_1,,,,,,,,,,,,,green,diamond
0.0,7.0,0.0,1.0,4.0,4.0,334.9832380190491,3.0,1.0,phase_1,,,,,,,,,,,,,magenta,square
412.0,4.0,4.0,0.0,3.0,3.0,313.161076977849,3.0,1.0,phase_1,,,,,,,,,,,,,gray,hexagon
118.0,6.0,1.0,1.0,4.0,4.0,329.4731928035617,3.0,1.0,phase_1,,,,,,,,,,,,,yellow,I
184.0,3.0,2.0,0.0,4.0,4.0,388.8295250944793,3.0,1.0,phase_1,,,,,,,,,,,,,white,circle
50.0,5.0,0.5,1.0,3.0,3.0,296.5061319991946,3.0,1.0,phase_1,,,,,,,,,,,,,green,diamond
195.0,7.0,2.0,1.0,4.0,4.0,271.5418240986764,3.0,1.0,phase_1,,,,,,,,,,,,,magenta,square
215.0,7.0,2.0,1.0,3.0,3.0,360.604346729815,3.0,1.0,phase_1,,,,,,,,,,,,,magenta,square
114.0,6.0,1.0,1.0,4.0,4.0,344.0484190359711,3.0,1.0,phase_1,,,,,,,,,,,,,yellow,I
81.0,6.0,1.0,1.0,1.0,1.0,233.8787489570677,3.0,1.0,phase_1,,,,,,,,,,,,,yellow,I
206.0,7.0,2.0,1.0,2.0,2.0,353.2231352292001,3.0,1.0,phase_1,,,,,,,,,,,,,magenta,square
114.0,2.0,1.0,0.0,3.0,3.0,406.1290943063795,3.0,1.0,phase_1,,,,,,,,,,,,,cyan,triangle
207.0,3.0,2.0,0.0,4.0,4.0,328.8288288749754,3.0,1.0,phase_1,,,,,,,,,,,,,white,circle
407.0,8.0,4.0,1.0,3.0,3.0,253.39675461873412,3.0,1.0,phase_1,,,,,,,,,,,,,blue,flipped triangle
395.0,8.0,4.0,1.0,3.0,3.0,306.2167060561478,3.0,1.0,phase_1,,,,,,,,,,,,,blue,flipped triangle
0.0,8.0,0.0,1.0,1.0,1.0,270.4245331697166,3.0,1.0,phase_1,,,,,,,,,,,,,blue,flipped triangle
67.0,1.0,0.5,0.0,2.0,2.0,468.9566749148071,3.0,1.0,phase_1,,,,,,,,,,,,,orange,cross
404.0,8.0,4.0,1.0,3.0,3.0,463.1474022753536,3.0,1.0,phase_1,,,,,,,,,,,,,blue,flipped triangle
46.0,1.0,0.5,0.0,2.0,2.0,389.9283926002681,3.0,1.0,phase_1,,,,,,,,,,,,,orange,cross
0.0,8.0,0.0,1.0,2.0,2.0,528.5696149803698,3.0,1.0,phase_1,,,,,,,,,,,,,blue,flipped triangle
0.0,3.0,0.0,0.0,4.0,4.0,369.2422080785036,3.0,1.0,phase_1,,,,,,,,,,,,,white,circle
118.0,2.0,1.0,0.0,3.0,3.0,372.0400691963732,3.0,1.0,phase_1,,,,,,,,,,,,,cyan,triangle
98.0,6.0,1.0,1.0,4.0,4.0,353.0328311026096,3.0,1.0,phase_1,,,,,,,,,,,,,yellow,I
82.0,6.0,1.0,1.0,1.0,1.0,316.9283401221037,3.0,1.0,phase_1,,,,,,,,,,,,,yellow,I
37.0,1.0,0.5,0.0,2.0,2.0,585.5210069566965,3.0,1.0,phase_1,,,,,,,,,,,,,orange,cross
176.0,7.0,2.0,1.0,3.0,3.0,351.9029030576348,3.0,1.0,phase_1,,,,,,,,,,,,,magenta,square
178.0,3.0,2.0,0.0,3.0,3.0,356.2044859863817,3.0,1.0,phase_1,,,,,,,,,,,,,white,circle
185.0,7.0,2.0,1.0,3.0,3.0,344.0716108307242,3.0,1.0,phase_1,,,,,,,,,,,,,magenta,square
216.0,7.0,2.0,1.0,1.0,1.0,389.8141649551689,3.0,1.0,phase_1,,,,,,,,,,,,,magenta,square
65.0,1.0,0.5,0.0,1.0,1.0,393.3540247380733,3.0,1.0,phase_1,,,,,,,,,,,,,orange,cross
0.0,1.0,0.0,0.0,1.0,1.0,414.7940003313124,3.0,1.0,phase_1,,,,,,,,,,,,,orange,cross
395.0,4.0,4.0,0.0,2.0,2.0,416.835936717689,3.0,1.0,phase_1,,,,,,,,,,,,,gray,hexagon
214.0,7.0,2.0,1.0,2.0,2.0,504.51936572790146,3.0,1.0,phase_1,,,,,,,,,,,,,magenta,square
197.0,7.0,2.0,1.0,3.0,3.0,434.1683792881667,3.0,1.0,phase_1,,,,,,,,,,,,,magenta,square
0.0,6.0,0.0,1.0,2.0,2.0,888.0448341369629,3.0,1.0,phase_1,,,,,,,,,,,,,yellow,I
409.0,4.0,4.0,0.0,2.0,2.0,630.7589900679886,3.0,1.0,phase_1,,,,,,,,,,,,,gray,hexagon
195.0,3.0,2.0,0.0,2.0,2.0,491.1337131634354,3.0,1.0,phase_1,,,,,,,,,,,,,white,circle
70.0,5.0,0.5,1.0,3.0,3.0,405.3804008290171,3.0,1.0,phase_1,,,,,,,,,,,,,green,diamond
59.0,1.0,0.5,0.0,2.0,2.0,353.5009999759495,3.0,1.0,phase_1,,,,,,,,,,,,,orange,cross
56.0,1.0,0.5,0.0,3.0,3.0,358.3134040236473,3.0,1.0,phase_1,,,,,,,,,,,,,orange,cross
184.0,3.0,2.0,0.0,2.0,2.0,310.3909948840737,3.0,1.0,phase_1,,,,,,,,,,,,,white,circle
184.0,7.0,2.0,1.0,4.0,4.0,331.9441368803382,3.0,1.0,phase_1,,,,,,,,,,,,,magenta,square
48.0,5.0,0.5,1.0,2.0,2.0,367.8269889205694,3.0,1.0,phase_1,,,,,,,,,,,,,green,diamond
111.0,6.0,1.0,1.0,2.0,2.0,322.5862109102309,3.0,1.0,phase_1,,,,,,,,,,,,,yellow,I
0.0,4.0,0.0,0.0,3.0,3.0,344.2720742896199,3.0,1.0,phase_1,,,,,,,,,,,,,gray,hexagon
184.0,3.0,2.0,0.0,3.0,3.0,315.8453139476478,3.0,1.0,phase_1,,,,,,,,,,,,,white,circle
74.0,1.0,0.5,0.0,1.0,1.0,394.9331007897854,3.0,1.0,phase_1,,,,,,,,,,,,,orange,cross
209.0,7.0,2.0,1.0,4.0,4.0,407.1593713015318,3.0,1.0,phase_1,,,,,,,,,,,,,magenta,square
222.0,7.0,2.0,1.0,3.0,3.0,331.9734591059387,3.0,1.0,phase_1,,,,,,,,,,,,,magenta,square
38.0,5.0,0.5,1.0,3.0,3.0,416.1297418177128,3.0,1.0,phase_1,,,,,,,,,,,,,green,diamond
200.0,7.0,2.0,1.0,2.0,2.0,443.7519749626517,3.0,1.0,phase_1,,,,,,,,,,,,,magenta,square
34.0,5.0,0.5,1.0,3.0,3.0,394.4368781521916,3.0,1.0,phase_1,,,,,,,,,,,,,green,diamond
0.0,5.0,0.0,1.0,3.0,3.0,318.8624451868236,3.0,1.0,phase_1,,,,,,,,,,,,,green,diamond
381.0,8.0,4.0,1.0,1.0,1.0,344.9451839551329,3.0,1.0,phase_1,,,,,,,,,,,,,blue,flipped triangle
37.0,5.0,0.5,1.0,1.0,1.0,454.5425688847899,3.0,1.0,phase_1,,,,,,,,,,,,,green,diamond
205.0,3.0,2.0,0.0,2.0,2.0,377.2427360527217,3.0,1.0,phase_1,,,,,,,,,,,,,white,circle
0.0,2.0,0.0,0.0,1.0,1.0,358.1786202266812,3.0,1.0,phase_1,,,,,,,,,,,,,cyan,triangle
89.0,6.0,1.0,1.0,2.0,2.0,350.5236939527094,3.0,1.0,phase_1,,,,,,,,,,,,,yellow,I
93.0,6.0,1.0,1.0,1.0,1.0,394.7551529854536,3.0,1.0,phase_1,,,,,,,,,,,,,yellow,I
376.0,4.0,4.0,0.0,4.0,4.0,390.0977559387684,3.0,1.0,phase_1,,,,,,,,,,,,,gray,hexagon
105.0,2.0,1.0,0.0,1.0,1.0,348.4484781511128,3.0,1.0,phase_1,,,,,,,,,,,,,cyan,triangle
381.0,4.0,4.0,0.0,1.0,1.0,325.9996357373893,3.0,1.0,phase_1,,,,,,,,,,,,,gray,hexagon
74.0,5.0,0.5,1.0,3.0,3.0,347.6391136646271,3.0,1.0,phase_1,,,,,,,,,,,,,green,diamond
67.0,5.0,0.5,1.0,2.0,2.0,527.533546090126,3.0,1.0,phase_1,,,,,,,,,,,,,green,diamond
214.0,3.0,2.0,0.0,3.0,3.0,316.3518793880939,3.0,1.0,phase_1,,,,,,,,,,,,,white,circle
214.0,3.0,2.0,0.0,2.0,2.0,352.6350674219429,3.0,1.0,phase_1,,,,,,,,,,,,,white,circle
26.0,1.0,0.5,0.0,3.0,3.0,333.6062543094158,3.0,1.0,phase_1,,,,,,,,,,,,,orange,cross
191.0,3.0,2.0,0.0,4.0,4.0,355.1746131852269,3.0,1.0,phase_1,,,,,,,,,,,,,white,circle
211.0,7.0,2.0,1.0,2.0,2.0,406.6076339222491,3.0,1.0,phase_1,,,,,,,,,,,,,magenta,square
76.0,2.0,1.0,0.0,3.0,3.0,333.2352908328175,3.0,1.0,phase_1,,,,,,,,,,,,,cyan,triangle
111.0,2.0,1.0,0.0,3.0,3.0,394.9976679868996,3.0,1.0,phase_1,,,,,,,,,,,,,cyan,triangle
206.0,3.0,2.0,0.0,2.0,2.0,300.1900953240692,3.0,1.0,phase_1,,,,,,,,,,,,,white,circle
0.0,4.0,0.0,0.0,3.0,3.0,364.4589129835367,3.0,1.0,phase_1,,,,,,,,,,,,,gray,hexagon
0.0,6.0,0.0,1.0,4.0,4.0,409.0470001101494,3.0,1.0,phase_1,,,,,,,,,,,,,yellow,I
74.0,5.0,0.5,1.0,4.0,4.0,389.8178259842098,3.0,1.0,phase_1,,,,,,,,,,,,,green,diamond
199.0,7.0,2.0,1.0,4.0,4.0,394.1261381842196,3.0,1.0,phase_1,,,,,,,,,,,,,magenta,square
102.0,2.0,1.0,0.0,4.0,4.0,358.5019968450069,3.0,1.0,phase_1,,,,,,,,,,,,,cyan,triangle
0.0,2.0,0.0,0.0,3.0,3.0,312.441318295896,3.0,1.0,phase_1,,,,,,,,,,,,,cyan,triangle
189.0,3.0,2.0,0.0,4.0,4.0,344.6485414169729,3.0,1.0,phase_1,,,,,,,,,,,,,white,circle
40.0,5.0,0.5,1.0,4.0,4.0,379.082219209522,3.0,1.0,phase_1,,,,,,,,,,,,,green,diamond
96.0,2.0,1.0,0.0,3.0,3.0,310.8307253569364,3.0,1.0,phase_1,,,,,,,,,,,,,cyan,triangle
189.0,3.0,2.0,0.0,1.0,1.0,355.94221903011197,3.0,1.0,phase_1,,,,,,,,,,,,,white,circle
0.0,6.0,0.0,1.0,1.0,1.0,337.7433340065181,3.0,1.0,phase_1,,,,,,,,,,,,,yellow,I
47.0,5.0,0.5,1.0,3.0,3.0,278.3993226476013,3.0,1.0,phase_1,,,,,,,,,,,,,green,diamond
388.0,4.0,4.0,0.0,2.0,2.0,402.593188919127,3.0,1.0,phase_1,,,,,,,,,,,,,gray,hexagon
39.0,5.0,0.5,1.0,4.0,4.0,304.0758841671049,3.0,1.0,phase_1,,,,,,,,,,,,,green,diamond
124.0,2.0,1.0,0.0,3.0,3.0,371.4943961240351,3.0,1.0,phase_1,,,,,,,,,,,,,cyan,triangle
380.0,4.0,4.0,0.0,1.0,1.0,344.4893630221486,3.0,1.0,phase_1,,,,,,,,,,,,,gray,hexagon
184.0,3.0,2.0,0.0,4.0,4.0,487.180660944432,3.0,1.0,phase_1,,,,,,,,,,,,,white,circle
37.0,1.0,0.5,0.0,2.0,2.0,371.5321761555969,3.0,1.0,phase_1,,,,,,,,,,,,,orange,cross
31.0,1.0,0.5,0.0,1.0,1.0,319.6386639028787,3.0,1.0,phase_1,,,,,,,,,,,,,orange,cross
0.0,6.0,0.0,1.0,2.0,2.0,356.5190467052161,3.0,1.0,phase_1,,,,,,,,,,,,,yellow,I
0.0,5.0,0.0,1.0,3.0,3.0,319.2065176554024,3.0,1.0,phase_1,,,,,,,,,,,,,green,diamond
207.0,7.0,2.0,1.0,1.0,1.0,283.6612099781632,3.0,1.0,phase_1,,,,,,,,,,,,,magenta,square
34.0,1.0,0.5,0.0,3.0,3.0,314.7244649007916,3.0,1.0,phase_1,,,,,,,,,,,,,orange,cross
0.0,7.0,0.0,1.0,2.0,2.0,328.1162669882178,3.0,1.0,phase_1,,,,,,,,,,,,,magenta,square
111.0,6.0,1.0,1.0,3.0,3.0,721.0285007022321,4.0,1.0,phase_1,,,,,,,,,,,,,yellow,I
37.0,5.0,0.5,1.0,1.0,1.0,332.4101991020143,4.0,1.0,phase_1,,,,,,,,,,,,,green,diamond
0.0,2.0,0.0,0.0,2.0,2.0,468.3838710188865,4.0,1.0,phase_1,,,,,,,,,,,,,cyan,triangle
79.0,2.0,1.0,0.0,2.0,2.0,335.087648127228,4.0,1.0,phase_1,,,,,,,,,,,,,cyan,triangle
222.0,7.0,2.0,1.0,4.0,4.0,346.8971508555114,4.0,1.0,phase_1,,,,,,,,,,,,,magenta,square
120.0,2.0,1.0,0.0,3.0,3.0,310.6252900324762,4.0,1.0,phase_1,,,,,,,,,,,,,cyan,triangle
92.0,2.0,1.0,0.0,2.0,2.0,309.8628548905253,4.0,1.0,phase_1,,,,,,,,,,,,,cyan,triangle
0.0,5.0,0.0,1.0,4.0,4.0,274.4939718395471,4.0,1.0,phase_1,,,,,,,,,,,,,green,diamond
406.0,8.0,4.0,1.0,2.0,2.0,343.1154410354793,4.0,1.0,phase_1,,,,,,,,,,,,,blue,flipped triangle
117.0,2.0,1.0,0.0,3.0,3.0,347.2504466772079,4.0,1.0,phase_1,,,,,,,,,,,,,cyan,triangle
379.0,8.0,4.0,1.0,2.0,2.0,360.7714069075882,4.0,1.0,phase_1,,,,,,,,,,,,,blue,flipped triangle
96.0,6.0,1.0,1.0,3.0,3.0,323.9366402849555,4.0,1.0,phase_1,,,,,,,,,,,,,yellow,I
184.0,7.0,2.0,1.0,1.0,1.0,304.1641693562269,4.0,1.0,phase_1,,,,,,,,,,,,,magenta,square
34.0,1.0,0.5,0.0,3.0,3.0,349.0622821263969,4.0,1.0,phase_1,,,,,,,,,,,,,orange,cross
197.0,3.0,2.0,0.0,3.0,3.0,393.4035473503172,4.0,1.0,phase_1,,,,,,,,,,,,,white,circle
89.0,2.0,1.0,0.0,2.0,2.0,381.6456296481192,4.0,1.0,phase_1,,,,,,,,,,,,,cyan,triangle
376.0,4.0,4.0,0.0,1.0,1.0,315.7382030040025,4.0,1.0,phase_1,,,,,,,,,,,,,gray,hexagon
193.0,7.0,2.0,1.0,3.0,3.0,311.4445069804787,4.0,1.0,phase_1,,,,,,,,,,,,,magenta,square
61.0,5.0,0.5,1.0,4.0,4.0,327.8776230290532,4.0,1.0,phase_1,,,,,,,,,,,,,green,diamond
184.0,7.0,2.0,1.0,1.0,1.0,328.3959869295358,4.0,1.0,phase_1,,,,,,,,,,,,,magenta,square
0.0,4.0,0.0,0.0,2.0,2.0,359.4941701740026,4.0,1.0,phase_1,,,,,,,,,,,,,gray,hexagon
107.0,2.0,1.0,0.0,2.0,2.0,394.5737951435148,4.0,1.0,phase_1,,,,,,,,,,,,,cyan,triangle
0.0,3.0,0.0,0.0,2.0,2.0,530.1605802960694,4.0,1.0,phase_1,,,,,,,,,,,,,white,circle
423.0,8.0,4.0,1.0,4.0,4.0,350.4817141219973,4.0,1.0,phase_1,,,,,,,,,,,,,blue,flipped triangle
381.0,4.0,4.0,0.0,2.0,2.0,344.9487439356744,4.0,1.0,phase_1,,,,,,,,,,,,,gray,hexagon
44.0,1.0,0.5,0.0,2.0,2.0,399.6018129400909,4.0,1.0,phase_1,,,,,,,,,,,,,orange,cross
407.0,4.0,4.0,0.0,3.0,3.0,529.238190036267,4.0,1.0,phase_1,,,,,,,,,,,,,gray,hexagon
421.0,8.0,4.0,1.0,4.0,4.0,326.5835838392377,4.0,1.0,phase_1,,,,,,,,,,,,,blue,flipped triangle
395.0,8.0,4.0,1.0,1.0,1.0,317.1197008341551,4.0,1.0,phase_1,,,,,,,,,,,,,blue,flipped triangle
187.0,7.0,2.0,1.0,1.0,1.0,375.3830217756331,4.0,1.0,phase_1,,,,,,,,,,,,,magenta,square
90.0,2.0,1.0,0.0,2.0,2.0,611.5844240412116,4.0,1.0,phase_1,,,,,,,,,,,,,cyan,triangle
413.0,8.0,4.0,1.0,2.0,2.0,433.1301092170179,4.0,1.0,phase_1,,,,,,,,,,,,,blue,flipped triangle
65.0,5.0,0.5,1.0,2.0,2.0,374.6212399564683,4.0,1.0,phase_1,,,,,,,,,,,,,green,diamond
0.0,5.0,0.0,1.0,1.0,1.0,338.1128809414804,4.0,1.0,phase_1,,,,,,,,,,,,,green,diamond
0.0,6.0,0.0,1.0,4.0,4.0,303.8729708641767,4.0,1.0,phase_1,,,,,,,,,,,,,yellow,I
65.0,1.0,0.5,0.0,2.0,2.0,333.1298516131937,4.0,1.0,phase_1,,,,,,,,,,,,,orange,cross
28.0,5.0,0.5,1.0,4.0,4.0,352.6411652565002,4.0,1.0,phase_1,,,,,,,,,,,,,green,diamond
409.0,4.0,4.0,0.0,4.0,4.0,341.4924931712448,4.0,1.0,phase_1,,,,,,,,,,,,,gray,hexagon
193.0,3.0,2.0,0.0,3.0,3.0,353.5009850747883,4.0,1.0,phase_1,,,,,,,,,,,,,white,circle
0.0,1.0,0.0,0.0,2.0,2.0,336.5413532592356,4.0,1.0,phase_1,,,,,,,,,,,,,orange,cross
388.0,8.0,4.0,1.0,2.0,2.0,538.2060119882226,4.0,1.0,phase_1,,,,,,,,,,,,,blue,flipped triangle
176.0,3.0,2.0,0.0,3.0,3.0,567.9457979276776,4.0,1.0,phase_1,,,,,,,,,,,,,white,circle
118.0,6.0,1.0,1.0,1.0,1.0,504.00689197704196,4.0,1.0,phase_1,,,,,,,,,,,,,yellow,I
111.0,2.0,1.0,0.0,2.0,2.0,363.8906353153288,4.0,1.0,phase_1,,,,,,,,,,,,,cyan,triangle
419.0,4.0,4.0,0.0,1.0,1.0,349.7365801595151,4.0,1.0,phase_1,,,,,,,,,,,,,gray,hexagon
392.0,4.0,4.0,0.0,4.0,4.0,340.9047457389533,4.0,1.0,phase_1,,,,,,,,,,,,,gray,hexagon
421.0,8.0,4.0,1.0,3.0,3.0,465.3256796300411,4.0,1.0,phase_1,,,,,,,,,,,,,blue,flipped triangle
206.0,7.0,2.0,1.0,2.0,2.0,422.8343493305146,4.0,1.0,phase_1,,,,,,,,,,,,,magenta,square
81.0,2.0,1.0,0.0,1.0,1.0,304.1176842525601,4.0,1.0,phase_1,,,,,,,,,,,,,cyan,triangle
96.0,2.0,1.0,0.0,1.0,1.0,317.1522147022187,4.0,1.0,phase_1,,,,,,,,,,,,,cyan,triangle
381.0,8.0,4.0,1.0,4.0,4.0,349.4252650998533,4.0,1.0,phase_1,,,,,,,,,,,,,blue,flipped triangle
68.0,5.0,0.5,1.0,3.0,3.0,438.6199037544429,4.0,1.0,phase_1,,,,,,,,,,,,,green,diamond
381.0,8.0,4.0,1.0,4.0,4.0,325.2642573788762,4.0,1.0,phase_1,,,,,,,,,,,,,blue,flipped triangle
44.0,5.0,0.5,1.0,1.0,1.0,440.4791062697768,4.0,1.0,phase_1,,,,,,,,,,,,,green,diamond
0.0,1.0,0.0,0.0,3.0,3.0,555.8828008361161,4.0,2.0,phase_1,,,,,,,,,,,,,orange,cross
0.0,2.0,0.0,0.0,4.0,4.0,303.9719671942293,4.0,1.0,phase_1,,,,,,,,,,,,,cyan,triangle
0.0,7.0,0.0,1.0,3.0,3.0,436.5009670145809,4.0,1.0,phase_1,,,,,,,,,,,,,magenta,square
102.0,6.0,1.0,1.0,2.0,2.0,327.9790077358484,4.0,1.0,phase_1,,,,,,,,,,,,,yellow,I
97.0,2.0,1.0,0.0,4.0,4.0,389.747857581824,4.0,1.0,phase_1,,,,,,,,,,,,,cyan,triangle
391.0,8.0,4.0,1.0,2.0,2.0,370.4525409266352,4.0,1.0,phase_1,,,,,,,,,,,,,blue,flipped triangle
395.0,4.0,4.0,0.0,4.0,4.0,329.21002805233,4.0,1.0,phase_1,,,,,,,,,,,,,gray,hexagon
29.0,1.0,0.5,0.0,4.0,4.0,365.6496591866016,4.0,1.0,phase_1,,,,,,,,,,,,,orange,cross
412.0,8.0,4.0,1.0,1.0,1.0,418.1723049841821,4.0,1.0,phase_1,,,,,,,,,,,,,blue,flipped triangle
116.0,2.0,1.0,0.0,4.0,4.0,332.7919780276716,4.0,1.0,phase_1,,,,,,,,,,,,,cyan,triangle
56.0,5.0,0.5,1.0,2.0,2.0,386.6388192400336,4.0,1.0,phase_1,,,,,,,,,,,,,green,diamond
74.0,1.0,0.5,0.0,4.0,4.0,366.5615688078105,4.0,1.0,phase_1,,,,,,,,,,,,,orange,cross
82.0,2.0,1.0,0.0,2.0,2.0,386.9263501837849,4.0,1.0,phase_1,,,,,,,,,,,,,cyan,triangle
0.0,8.0,0.0,1.0,2.0,2.0,397.7876082062721,4.0,1.0,phase_1,,,,,,,,,,,,,blue,flipped triangle
68.0,1.0,0.5,0.0,1.0,1.0,332.3262939229607,4.0,1.0,phase_1,,,,,,,,,,,,,orange,cross
215.0,3.0,2.0,0.0,2.0,2.0,552.8824678622186,4.0,1.0,phase_1,,,,,,,,,,,,,white,circle
79.0,6.0,1.0,1.0,4.0,4.0,372.6645014248788,4.0,1.0,phase_1,,,,,,,,,,,,,yellow,I
116.0,6.0,1.0,1.0,3.0,3.0,395.4711188562214,4.0,1.0,phase_1,,,,,,,,,,,,,yellow,I
214.0,7.0,2.0,1.0,4.0,4.0,312.4040509574115,4.0,1.0,phase_1,,,,,,,,,,,,,magenta,square
0.0,6.0,0.0,1.0,1.0,1.0,275.8428333327174,4.0,1.0,phase_1,,,,,,,,,,,,,yellow,I
0.0,1.0,0.0,0.0,2.0,2.0,391.0178653895855,4.0,1.0,phase_1,,,,,,,,,,,,,orange,cross
106.0,2.0,1.0,0.0,1.0,1.0,324.5669230818748,4.0,1.0,phase_1,,,,,,,,,,,,,cyan,triangle
0.0,2.0,0.0,0.0,2.0,2.0,307.8952198848128,4.0,1.0,phase_1,,,,,,,,,,,,,cyan,triangle
0.0,3.0,0.0,0.0,3.0,3.0,303.6103122867644,4.0,1.0,phase_1,,,,,,,,,,,,,white,circle
421.0,4.0,4.0,0.0,2.0,2.0,316.0506971180439,4.0,1.0,phase_1,,,,,,,,,,,,,gray,hexagon
179.0,3.0,2.0,0.0,2.0,2.0,344.8617849498987,4.0,1.0,phase_1,,,,,,,,,,,,,white,circle
412.0,8.0,4.0,1.0,3.0,3.0,395.3271848149597,4.0,1.0,phase_1,,,,,,,,,,,,,blue,flipped triangle
379.0,4.0,4.0,0.0,1.0,1.0,385.7832667417824,4.0,1.0,phase_1,,,,,,,,,,,,,gray,hexagon
71.0,5.0,0.5,1.0,2.0,2.0,328.0806532129645,4.0,1.0,phase_1,,,,,,,,,,,,,green,diamond
81.0,2.0,1.0,0.0,1.0,1.0,377.1048169583082,4.0,1.0,phase_1,,,,,,,,,,,,,cyan,triangle
403.0,4.0,4.0,0.0,1.0,1.0,381.1996593140065,4.0,1.0,phase_1,,,,,,,,,,,,,gray,hexagon
403.0,8.0,4.0,1.0,3.0,3.0,405.1387337967753,4.0,1.0,phase_1,,,,,,,,,,,,,blue,flipped triangle
0.0,3.0,0.0,0.0,1.0,1.0,376.7585540190339,4.0,1.0,phase_1,,,,,,,,,,,,,white,circle
60.0,1.0,0.5,0.0,4.0,4.0,302.6995030231774,4.0,1.0,phase_1,,,,,,,,,,,,,orange,cross
46.0,5.0,0.5,1.0,2.0,2.0,337.0227427221834,4.0,1.0,phase_1,,,,,,,,,,,,,green,diamond
409.0,8.0,4.0,1.0,4.0,4.0,336.9216341525316,4.0,1.0,phase_1,,,,,,,,,,,,,blue,flipped triangle
202.0,3.0,2.0,0.0,1.0,1.0,362.4280230142176,4.0,1.0,phase_1,,,,,,,,,,,,,white,circle
93.0,2.0,1.0,0.0,2.0,2.0,416.121469810605,4.0,1.0,phase_1,,,,,,,,,,,,,cyan,triangle
206.0,3.0,2.0,0.0,1.0,1.0,317.5538098439574,4.0,1.0,phase_1,,,,,,,,,,,,,white,circle
0.0,1.0,0.0,0.0,2.0,2.0,344.272609334439,4.0,1.0,phase_1,,,,,,,,,,,,,orange,cross
199.0,3.0,2.0,0.0,1.0,1.0,367.3040210269391,4.0,1.0,phase_1,,,,,,,,,,,,,white,circle
419.0,8.0,4.0,1.0,4.0,4.0,369.8231652379036,4.0,1.0,phase_1,,,,,,,,,,,,,blue,flipped triangle
120.0,6.0,1.0,1.0,4.0,4.0,369.0429371781647,4.0,1.0,phase_1,,,,,,,,,,,,,yellow,I
87.0,2.0,1.0,0.0,4.0,4.0,366.0699850879609,4.0,1.0,phase_1,,,,,,,,,,,,,cyan,triangle
0.0,3.0,0.0,0.0,2.0,2.0,352.7589910663664,4.0,1.0,phase_1,,,,,,,,,,,,,white,circle
80.0,6.0,1.0,1.0,4.0,4.0,485.1672290824353,4.0,1.0,phase_1,,,,,,,,,,,,,yellow,I
0.0,1.0,0.5,0.0,5.0,5.0,588.3563989773393,1.0,1.0,phase_2,go,250.0,250.0,1.0,,,,,,,,,orange,cross
0.0,3.0,2.0,0.0,5.0,5.0,349.0074891597032,1.0,1.0,phase_2,go,250.0,250.0,1.0,,,,,,,,,white,circle
0.0,5.0,0.5,1.0,5.0,0.0,0.0,1.0,1.0,phase_2,stop,250.0,250.0,4.0,,,,,,,,,green,diamond
0.0,4.0,4.0,0.0,6.0,6.0,373.9653010852635,1.0,1.0,phase_2,go,300.0,250.0,1.0,,,,,,,,,gray,hexagon
0.0,6.0,1.0,1.0,5.0,5.0,283.2317557185888,1.0,1.0,phase_2,stop,300.0,250.0,3.0,,,,,,,,,yellow,I
0.0,8.0,4.0,1.0,5.0,5.0,421.2815808132291,1.0,1.0,phase_2,go,250.0,250.0,1.0,,,,,,,,,blue,flipped triangle
0.0,1.0,0.5,0.0,5.0,5.0,450.6308822892606,1.0,1.0,phase_2,go,250.0,250.0,1.0,,,,,,,,,orange,cross
0.0,2.0,1.0,0.0,5.0,5.0,411.3095346838236,1.0,1.0,phase_2,go,250.0,250.0,1.0,,,,,,,,,cyan,triangle
0.0,3.0,2.0,0.0,6.0,6.0,463.3563430979848,1.0,1.0,phase_2,go,250.0,250.0,1.0,,,,,,,,,white,circle
0.0,6.0,1.0,1.0,6.0,6.0,385.7630081474781,1.0,1.0,phase_2,stop,250.0,250.0,3.0,,,,,,,,,yellow,I
0.0,5.0,0.5,1.0,5.0,5.0,382.5409156270325,1.0,1.0,phase_2,stop,250.0,200.0,3.0,,,,,,,,,green,diamond
0.0,6.0,1.0,1.0,6.0,0.0,0.0,1.0,1.0,phase_2,stop,200.0,200.0,4.0,,,,,,,,,yellow,I
0.0,2.0,1.0,0.0,6.0,6.0,448.8142901100218,1.0,1.0,phase_2,go,200.0,250.0,1.0,,,,,,,,,cyan,triangle
0.0,6.0,1.0,1.0,6.0,6.0,693.6308010481298,1.0,1.0,phase_2,go,200.0,250.0,1.0,,,,,,,,,yellow,I
0.0,8.0,4.0,1.0,6.0,0.0,0.0,1.0,1.0,phase_2,stop,200.0,250.0,4.0,,,,,,,,,blue,flipped triangle
0.0,5.0,0.5,1.0,5.0,0.0,0.0,1.0,1.0,phase_2,stop,200.0,300.0,4.0,,,,,,,,,green,diamond
0.0,7.0,2.0,1.0,5.0,5.0,444.3863201886415,1.0,1.0,phase_2,go,250.0,300.0,1.0,,,,,,,,,magenta,square
0.0,4.0,4.0,0.0,6.0,6.0,701.4214820228517,1.0,1.0,phase_2,go,250.0,300.0,1.0,,,,,,,,,gray,hexagon
0.0,8.0,4.0,1.0,6.0,6.0,397.1748407930136,1.0,1.0,phase_2,stop,250.0,300.0,3.0,,,,,,,,,blue,flipped triangle
0.0,1.0,0.5,0.0,6.0,6.0,634.1631971299648,1.0,1.0,phase_2,go,250.0,250.0,1.0,,,,,,,,,orange,cross
0.0,2.0,1.0,0.0,6.0,6.0,521.0527889430523,1.0,1.0,phase_2,go,250.0,250.0,1.0,,,,,,,,,cyan,triangle
0.0,1.0,0.5,0.0,5.0,5.0,515.4146710410714,1.0,1.0,phase_2,go,250.0,250.0,1.0,,,,,,,,,orange,cross
0.0,1.0,0.5,0.0,5.0,5.0,537.2170158661902,1.0,1.0,phase_2,go,250.0,250.0,1.0,,,,,,,,,orange,cross
0.0,5.0,0.5,1.0,5.0,0.0,0.0,1.0,1.0,phase_2,stop,250.0,250.0,4.0,,,,,,,,,green,diamond
0.0,6.0,1.0,1.0,5.0,5.0,513.8170630671084,1.0,1.0,phase_2,go,300.0,250.0,1.0,,,,,,,,,yellow,I
0.0,7.0,2.0,1.0,6.0,0.0,0.0,1.0,1.0,phase_2,stop,300.0,250.0,4.0,,,,,,,,,magenta,square
0.0,5.0,0.5,1.0,5.0,5.0,389.884898904711,1.0,1.0,phase_2,stop,300.0,300.0,3.0,,,,,,,,,green,diamond
0.0,4.0,4.0,0.0,5.0,5.0,654.0463110432029,1.0,1.0,phase_2,go,250.0,300.0,1.0,,,,,,,,,gray,hexagon
0.0,7.0,2.0,1.0,5.0,5.0,612.8105148673058,1.0,1.0,phase_2,go,250.0,300.0,1.0,,,,,,,,,magenta,square
0.0,4.0,4.0,0.0,6.0,6.0,500.48460392281413,1.0,1.0,phase_2,go,250.0,300.0,1.0,,,,,,,,,gray,hexagon
0.0,1.0,0.5,0.0,5.0,5.0,485.1273940876126,1.0,1.0,phase_2,go,250.0,300.0,1.0,,,,,,,,,orange,cross
0.0,8.0,4.0,1.0,6.0,6.0,469.3544609472155,1.0,1.0,phase_2,stop,250.0,300.0,3.0,,,,,,,,,blue,flipped triangle
0.0,2.0,1.0,0.0,6.0,6.0,842.3672299832106,1.0,1.0,phase_2,go,250.0,250.0,1.0,,,,,,,,,cyan,triangle
0.0,1.0,0.5,0.0,6.0,6.0,723.4039143659174,1.0,1.0,phase_2,go,250.0,250.0,1.0,,,,,,,,,orange,cross
0.0,4.0,4.0,0.0,5.0,5.0,761.1015178263187,1.0,1.0,phase_2,go,250.0,250.0,1.0,,,,,,,,,gray,hexagon
0.0,7.0,2.0,1.0,6.0,6.0,880.910140927881,1.0,1.0,phase_2,go,250.0,250.0,1.0,,,,,,,,,magenta,square
0.0,3.0,2.0,0.0,6.0,0.0,0.0,2.0,1.0,phase_2,go,250.0,250.0,5.0,,,,,,,,,white,circle
0.0,6.0,1.0,1.0,6.0,6.0,771.7770258896053,2.0,1.0,phase_2,stop,250.0,250.0,3.0,,,,,,,,,yellow,I
0.0,6.0,1.0,1.0,6.0,6.0,428.2336509786546,2.0,1.0,phase_2,stop,250.0,200.0,3.0,,,,,,,,,yellow,I
0.0,1.0,0.5,0.0,5.0,5.0,281.8904197774827,2.0,1.0,phase_2,go,250.0,150.0,1.0,,,,,,,,,orange,cross
0.0,8.0,4.0,1.0,6.0,0.0,0.0,2.0,1.0,phase_2,stop,250.0,150.0,4.0,,,,,,,,,blue,flipped triangle
0.0,2.0,1.0,0.0,5.0,5.0,488.9229428954422,2.0,1.0,phase_2,go,250.0,200.0,1.0,,,,,,,,,cyan,triangle
0.0,3.0,2.0,0.0,5.0,5.0,546.0637891665101,2.0,1.0,phase_2,go,250.0,200.0,1.0,,,,,,,,,white,circle
0.0,1.0,0.5,0.0,6.0,6.0,586.3153771497309,2.0,1.0,phase_2,go,250.0,200.0,1.0,,,,,,,,,orange,cross
0.0,7.0,2.0,1.0,5.0,5.0,450.5131933838129,2.0,1.0,phase_2,stop,250.0,200.0,3.0,,,,,,,,,magenta,square
0.0,7.0,2.0,1.0,6.0,0.0,0.0,2.0,1.0,phase_2,stop,200.0,200.0,4.0,,,,,,,,,magenta,square
0.0,7.0,2.0,1.0,5.0,0.0,0.0,2.0,1.0,phase_2,stop,200.0,250.0,4.0,,,,,,,,,magenta,square
0.0,3.0,2.0,0.0,6.0,6.0,532.6497950591147,2.0,1.0,phase_2,go,250.0,250.0,1.0,,,,,,,,,white,circle
0.0,7.0,2.0,1.0,5.0,0.0,0.0,2.0,1.0,phase_2,stop,250.0,250.0,4.0,,,,,,,,,magenta,square
0.0,5.0,0.5,1.0,6.0,0.0,0.0,2.0,1.0,phase_2,stop,300.0,250.0,4.0,,,,,,,,,green,diamond
0.0,8.0,4.0,1.0,6.0,6.0,389.6208768710494,2.0,1.0,phase_2,go,300.0,300.0,1.0,,,,,,,,,blue,flipped triangle
0.0,3.0,2.0,0.0,6.0,6.0,573.2447686605155,2.0,1.0,phase_2,go,300.0,300.0,1.0,,,,,,,,,white,circle
0.0,8.0,4.0,1.0,5.0,5.0,725.6128289736807,2.0,1.0,phase_2,go,300.0,300.0,1.0,,,,,,,,,blue,flipped triangle
0.0,3.0,2.0,0.0,6.0,6.0,701.5338661149144,2.0,1.0,phase_2,go,300.0,300.0,1.0,,,,,,,,,white,circle
0.0,8.0,4.0,1.0,5.0,5.0,345.3015070408582,2.0,1.0,phase_2,stop,300.0,300.0,3.0,,,,,,,,,blue,flipped triangle
0.0,3.0,2.0,0.0,5.0,5.0,515.7779487781227,2.0,1.0,phase_2,go,250.0,300.0,1.0,,,,,,,,,white,circle
0.0,1.0,0.5,0.0,6.0,6.0,952.1334008313715,2.0,1.0,phase_2,go,250.0,300.0,1.0,,,,,,,,,orange,cross
0.0,7.0,2.0,1.0,6.0,6.0,466.6491607204079,2.0,1.0,phase_2,stop,250.0,300.0,3.0,,,,,,,,,magenta,square
0.0,4.0,4.0,0.0,6.0,6.0,610.9945820644498,2.0,1.0,phase_2,go,250.0,250.0,1.0,,,,,,,,,gray,hexagon
0.0,5.0,0.5,1.0,6.0,0.0,0.0,2.0,1.0,phase_2,stop,250.0,250.0,4.0,,,,,,,,,green,diamond
0.0,2.0,1.0,0.0,5.0,5.0,591.6665629483759,2.0,1.0,phase_2,go,250.0,300.0,1.0,,,,,,,,,cyan,triangle
0.0,8.0,4.0,1.0,6.0,6.0,504.469130653888,2.0,1.0,phase_2,go,250.0,300.0,1.0,,,,,,,,,blue,flipped triangle
0.0,5.0,0.5,1.0,6.0,0.0,0.0,2.0,1.0,phase_2,stop,250.0,300.0,4.0,,,,,,,,,green,diamond
0.0,2.0,1.0,0.0,5.0,5.0,611.9080348871648,2.0,1.0,phase_2,go,250.0,350.0,1.0,,,,,,,,,cyan,triangle
0.0,3.0,2.0,0.0,6.0,6.0,535.5436941608787,2.0,1.0,phase_2,go,250.0,350.0,1.0,,,,,,,,,white,circle
0.0,5.0,0.5,1.0,5.0,0.0,0.0,2.0,1.0,phase_2,stop,250.0,350.0,4.0,,,,,,,,,green,diamond
0.0,1.0,0.5,0.0,6.0,6.0,580.6935410946608,2.0,1.0,phase_2,go,300.0,350.0,1.0,,,,,,,,,orange,cross
0.0,6.0,1.0,1.0,6.0,6.0,445.551916025579,2.0,1.0,phase_2,stop,300.0,350.0,3.0,,,,,,,,,yellow,I
0.0,2.0,1.0,0.0,6.0,6.0,844.7054950520396,2.0,1.0,phase_2,go,300.0,300.0,1.0,,,,,,,,,cyan,triangle
0.0,7.0,2.0,1.0,5.0,5.0,376.673246268183,2.0,1.0,phase_2,stop,300.0,300.0,3.0,,,,,,,,,magenta,square
0.0,4.0,4.0,0.0,5.0,5.0,696.8644508160651,2.0,1.0,phase_2,go,250.0,300.0,1.0,,,,,,,,,gray,hexagon
0.0,1.0,0.5,0.0,6.0,6.0,593.5917156748474,2.0,1.0,phase_2,go,250.0,300.0,1.0,,,,,,,,,orange,cross
0.0,5.0,0.5,1.0,5.0,0.0,0.0,3.0,1.0,phase_2,stop,250.0,300.0,4.0,,,,,,,,,green,diamond
0.0,3.0,2.0,0.0,5.0,5.0,639.5788476802409,3.0,1.0,phase_2,go,300.0,300.0,1.0,,,,,,,,,white,circle
0.0,4.0,4.0,0.0,6.0,6.0,575.4152089357376,3.0,1.0,phase_2,go,300.0,300.0,1.0,,,,,,,,,gray,hexagon
0.0,1.0,0.5,0.0,6.0,6.0,547.5358930416405,3.0,1.0,phase_2,go,300.0,300.0,1.0,,,,,,,,,orange,cross
0.0,3.0,2.0,0.0,5.0,5.0,421.5122032910585,3.0,1.0,phase_2,go,300.0,300.0,1.0,,,,,,,,,white,circle
0.0,1.0,0.5,0.0,6.0,6.0,452.302502002567,3.0,1.0,phase_2,go,300.0,300.0,1.0,,,,,,,,,orange,cross
0.0,5.0,0.5,1.0,6.0,6.0,457.8155037015676,3.0,1.0,phase_2,stop,300.0,300.0,3.0,,,,,,,,,green,diamond
0.0,4.0,4.0,0.0,6.0,6.0,880.446856841445,3.0,1.0,phase_2,go,300.0,250.0,1.0,,,,,,,,,gray,hexagon
0.0,5.0,0.5,1.0,6.0,0.0,0.0,3.0,1.0,phase_2,stop,300.0,250.0,4.0,,,,,,,,,green,diamond
0.0,8.0,4.0,1.0,6.0,6.0,680.7756409980357,3.0,1.0,phase_2,go,300.0,300.0,1.0,,,,,,,,,blue,flipped triangle
0.0,8.0,4.0,1.0,6.0,0.0,0.0,3.0,1.0,phase_2,stop,300.0,300.0,4.0,,,,,,,,,blue,flipped triangle
0.0,3.0,2.0,0.0,6.0,6.0,662.419892847538,3.0,1.0,phase_2,go,300.0,350.0,1.0,,,,,,,,,white,circle
0.0,3.0,2.0,0.0,5.0,5.0,864.4697330892086,3.0,1.0,phase_2,go,300.0,350.0,1.0,,,,,,,,,white,circle
0.0,8.0,4.0,1.0,6.0,0.0,0.0,3.0,1.0,phase_2,stop,300.0,350.0,4.0,,,,,,,,,blue,flipped triangle
0.0,5.0,0.5,1.0,6.0,0.0,0.0,3.0,1.0,phase_2,stop,300.0,400.0,4.0,,,,,,,,,green,diamond
0.0,4.0,4.0,0.0,6.0,6.0,487.8574018366635,3.0,1.0,phase_2,go,300.0,450.0,1.0,,,,,,,,,gray,hexagon
0.0,7.0,2.0,1.0,6.0,6.0,471.4741958305239,3.0,1.0,phase_2,stop,300.0,450.0,3.0,,,,,,,,,magenta,square
0.0,6.0,1.0,1.0,5.0,5.0,638.655608985573,3.0,1.0,phase_2,go,300.0,400.0,1.0,,,,,,,,,yellow,I
0.0,2.0,1.0,0.0,6.0,6.0,691.3774139247835,3.0,1.0,phase_2,go,300.0,400.0,1.0,,,,,,,,,cyan,triangle
0.0,5.0,0.5,1.0,5.0,0.0,0.0,3.0,1.0,phase_2,stop,300.0,400.0,4.0,,,,,,,,,green,diamond
0.0,5.0,0.5,1.0,6.0,0.0,0.0,3.0,1.0,phase_2,stop,350.0,400.0,4.0,,,,,,,,,green,diamond
0.0,2.0,1.0,0.0,6.0,6.0,545.7883328199387,3.0,1.0,phase_2,go,350.0,450.0,1.0,,,,,,,,,cyan,triangle
0.0,1.0,0.5,0.0,6.0,6.0,604.4115209951997,3.0,1.0,phase_2,go,350.0,450.0,1.0,,,,,,,,,orange,cross
0.0,6.0,1.0,1.0,5.0,0.0,0.0,3.0,1.0,phase_2,stop,350.0,450.0,4.0,,,,,,,,,yellow,I
0.0,6.0,1.0,1.0,5.0,0.0,0.0,3.0,1.0,phase_2,stop,400.0,450.0,4.0,,,,,,,,,yellow,I
0.0,2.0,1.0,0.0,5.0,0.0,0.0,3.0,1.0,phase_2,go,450.0,450.0,5.0,,,,,,,,,cyan,triangle
0.0,8.0,4.0,1.0,6.0,6.0,513.1175871938467,3.0,1.0,phase_2,stop,450.0,450.0,3.0,,,,,,,,,blue,flipped triangle
0.0,7.0,2.0,1.0,6.0,0.0,0.0,3.0,1.0,phase_2,stop,450.0,400.0,4.0,,,,,,,,,magenta,square
0.0,8.0,4.0,1.0,5.0,0.0,0.0,3.0,1.0,phase_2,stop,450.0,450.0,4.0,,,,,,,,,blue,flipped triangle
0.0,1.0,0.5,0.0,6.0,0.0,0.0,3.0,1.0,phase_2,go,500.0,450.0,5.0,,,,,,,,,orange,cross
0.0,3.0,2.0,0.0,5.0,5.0,1004.6570850536227,3.0,1.0,phase_2,go,500.0,450.0,1.0,,,,,,,,,white,circle
0.0,7.0,2.0,1.0,5.0,5.0,397.3812330514192,3.0,1.0,phase_2,stop,500.0,450.0,3.0,,,,,,,,,magenta,square
0.0,5.0,0.5,1.0,5.0,0.0,0.0,3.0,1.0,phase_2,stop,450.0,450.0,4.0,,,,,,,,,green,diamond
0.0,6.0,1.0,1.0,6.0,6.0,388.4990750811994,3.0,1.0,phase_2,stop,500.0,450.0,3.0,,,,,,,,,yellow,I
0.0,4.0,4.0,0.0,5.0,5.0,777.5137019343674,3.0,1.0,phase_2,go,500.0,400.0,1.0,,,,,,,,,gray,hexagon
0.0,5.0,0.5,1.0,5.0,5.0,561.5120837464929,3.0,1.0,phase_2,stop,500.0,400.0,3.0,,,,,,,,,green,diamond
0.0,1.0,0.5,0.0,5.0,0.0,0.0,4.0,1.0,phase_2,go,450.0,400.0,5.0,,,,,,,,,orange,cross
0.0,7.0,2.0,1.0,5.0,0.0,0.0,4.0,1.0,phase_2,stop,450.0,400.0,4.0,,,,,,,,,magenta,square
0.0,6.0,1.0,1.0,5.0,5.0,493.0708957836032,4.0,1.0,phase_2,stop,500.0,400.0,3.0,,,,,,,,,yellow,I
0.0,4.0,4.0,0.0,5.0,5.0,758.9502930641174,4.0,1.0,phase_2,go,450.0,400.0,1.0,,,,,,,,,gray,hexagon
0.0,3.0,2.0,0.0,6.0,6.0,539.4728831015527,4.0,1.0,phase_2,go,450.0,400.0,1.0,,,,,,,,,white,circle
0.0,2.0,1.0,0.0,6.0,6.0,694.2855208180845,4.0,1.0,phase_2,go,450.0,400.0,1.0,,,,,,,,,cyan,triangle
0.0,4.0,4.0,0.0,5.0,5.0,324.8812863603234,4.0,1.0,phase_2,go,450.0,400.0,1.0,,,,,,,,,gray,hexagon
0.0,8.0,4.0,1.0,5.0,5.0,353.6554351449013,4.0,1.0,phase_2,stop,450.0,400.0,3.0,,,,,,,,,blue,flipped triangle
0.0,2.0,1.0,0.0,5.0,5.0,484.498003963381,4.0,1.0,phase_2,go,400.0,400.0,1.0,,,,,,,,,cyan,triangle
0.0,6.0,1.0,1.0,6.0,6.0,344.7510111145675,4.0,1.0,phase_2,go,400.0,400.0,1.0,,,,,,,,,yellow,I
0.0,1.0,0.5,0.0,5.0,5.0,481.4042747020721,4.0,1.0,phase_2,go,400.0,400.0,1.0,,,,,,,,,orange,cross
0.0,7.0,2.0,1.0,6.0,6.0,480.0538141280412,4.0,1.0,phase_2,go,400.0,400.0,1.0,,,,,,,,,magenta,square
0.0,1.0,0.5,0.0,5.0,5.0,449.7617119923234,4.0,1.0,phase_2,go,400.0,400.0,1.0,,,,,,,,,orange,cross
0.0,3.0,2.0,0.0,5.0,5.0,519.1355161368847,4.0,1.0,phase_2,go,400.0,400.0,1.0,,,,,,,,,white,circle
0.0,4.0,4.0,0.0,6.0,6.0,519.8647025972605,4.0,1.0,phase_2,go,400.0,400.0,1.0,,,,,,,,,gray,hexagon
0.0,7.0,2.0,1.0,6.0,6.0,350.2609180286526,4.0,1.0,phase_2,stop,400.0,400.0,3.0,,,,,,,,,magenta,square
0.0,2.0,1.0,0.0,6.0,6.0,510.7804499566555,4.0,1.0,phase_2,go,400.0,350.0,1.0,,,,,,,,,cyan,triangle
0.0,1.0,0.5,0.0,5.0,5.0,527.0504117943347,4.0,1.0,phase_2,go,400.0,350.0,1.0,,,,,,,,,orange,cross
0.0,4.0,4.0,0.0,6.0,6.0,717.5279008224607,4.0,1.0,phase_2,go,400.0,350.0,1.0,,,,,,,,,gray,hexagon
0.0,8.0,4.0,1.0,5.0,0.0,0.0,4.0,1.0,phase_2,stop,400.0,350.0,4.0,,,,,,,,,blue,flipped triangle
0.0,3.0,2.0,0.0,5.0,5.0,644.387295935303,4.0,1.0,phase_2,go,450.0,350.0,1.0,,,,,,,,,white,circle
0.0,4.0,4.0,0.0,5.0,5.0,714.3552820198238,4.0,1.0,phase_2,go,450.0,350.0,1.0,,,,,,,,,gray,hexagon
0.0,5.0,0.5,1.0,6.0,0.0,0.0,4.0,1.0,phase_2,stop,450.0,350.0,4.0,,,,,,,,,green,diamond
0.0,4.0,4.0,0.0,6.0,6.0,378.6296057514846,4.0,1.0,phase_2,go,450.0,400.0,1.0,,,,,,,,,gray,hexagon
0.0,8.0,4.0,1.0,6.0,6.0,828.4789258614182,4.0,1.0,phase_2,go,450.0,400.0,1.0,,,,,,,,,blue,flipped triangle
0.0,6.0,1.0,1.0,5.0,0.0,0.0,4.0,1.0,phase_2,stop,450.0,400.0,4.0,,,,,,,,,yellow,I
0.0,5.0,0.5,1.0,6.0,0.0,0.0,4.0,1.0,phase_2,stop,500.0,400.0,4.0,,,,,,,,,green,diamond
0.0,6.0,1.0,1.0,5.0,0.0,0.0,4.0,1.0,phase_2,stop,500.0,450.0,4.0,,,,,,,,,yellow,I
0.0,2.0,1.0,0.0,5.0,5.0,790.669855196029,4.0,1.0,phase_2,go,550.0,450.0,1.0,,,,,,,,,cyan,triangle
0.0,5.0,0.5,1.0,6.0,6.0,767.1808572486043,4.0,1.0,phase_2,go,550.0,450.0,1.0,,,,,,,,,green,diamond
0.0,1.0,0.5,0.0,5.0,5.0,952.5385750457644,4.0,1.0,phase_2,go,550.0,450.0,1.0,,,,,,,,,orange,cross
0.0,4.0,4.0,0.0,5.0,5.0,661.1702926456928,4.0,1.0,phase_2,go,550.0,450.0,1.0,,,,,,,,,gray,hexagon
0.0,6.0,1.0,1.0,5.0,5.0,364.8343249224126,4.0,1.0,phase_2,stop,550.0,450.0,3.0,,,,,,,,,yellow,I
0.0,6.0,1.0,1.0,6.0,0.0,0.0,4.0,1.0,phase_2,stop,500.0,450.0,4.0,,,,,,,,,yellow,I
0.0,2.0,1.0,0.0,5.0,5.0,813.192178029567,4.0,1.0,phase_2,go,500.0,500.0,1.0,,,,,,,,,cyan,triangle
0.0,7.0,2.0,1.0,6.0,6.0,915.278138127178,4.0,1.0,phase_2,go,500.0,500.0,1.0,,,,,,,,,magenta,square
0.0,3.0,2.0,0.0,6.0,6.0,1207.2844770736992,5.0,1.0,phase_2,go,500.0,500.0,1.0,,,,,,,,,white,circle
0.0,5.0,0.5,1.0,5.0,5.0,396.0702498443424,5.0,1.0,phase_2,go,500.0,500.0,1.0,,,,,,,,,green,diamond
0.0,4.0,4.0,0.0,5.0,5.0,478.0257251113653,5.0,1.0,phase_2,go,500.0,500.0,1.0,,,,,,,,,gray,hexagon
0.0,7.0,2.0,1.0,6.0,6.0,528.0751790851355,5.0,1.0,phase_2,stop,500.0,500.0,3.0,,,,,,,,,magenta,square
0.0,5.0,0.5,1.0,6.0,0.0,0.0,5.0,1.0,phase_2,stop,500.0,450.0,4.0,,,,,,,,,green,diamond
0.0,1.0,0.5,0.0,5.0,5.0,700.7600436918437,5.0,1.0,phase_2,go,500.0,500.0,1.0,,,,,,,,,orange,cross
0.0,3.0,2.0,0.0,5.0,5.0,817.9821730591357,5.0,1.0,phase_2,go,500.0,500.0,1.0,,,,,,,,,white,circle
0.0,6.0,1.0,1.0,5.0,0.0,0.0,5.0,1.0,phase_2,stop,500.0,500.0,4.0,,,,,,,,,yellow,I
0.0,3.0,2.0,0.0,5.0,5.0,576.2691888958216,5.0,1.0,phase_2,go,550.0,500.0,1.0,,,,,,,,,white,circle
0.0,6.0,1.0,1.0,5.0,5.0,1001.3118647038937,5.0,1.0,phase_2,go,550.0,500.0,1.0,,,,,,,,,yellow,I
0.0,3.0,2.0,0.0,5.0,5.0,937.1944502927364,5.0,1.0,phase_2,go,550.0,500.0,1.0,,,,,,,,,white,circle
0.0,1.0,0.5,0.0,5.0,5.0,982.9776249825954,5.0,1.0,phase_2,go,550.0,500.0,1.0,,,,,,,,,orange,cross
0.0,6.0,1.0,1.0,6.0,6.0,605.7397099211812,5.0,1.0,phase_2,go,550.0,500.0,1.0,,,,,,,,,yellow,I
0.0,3.0,2.0,0.0,6.0,6.0,621.8336741439998,5.0,1.0,phase_2,go,550.0,500.0,1.0,,,,,,,,,white,circle
0.0,4.0,4.0,0.0,6.0,6.0,348.5609968192875,5.0,1.0,phase_2,go,550.0,500.0,1.0,,,,,,,,,gray,hexagon
0.0,8.0,4.0,1.0,5.0,5.0,659.7337010316551,5.0,1.0,phase_2,stop,550.0,500.0,3.0,,,,,,,,,blue,flipped triangle
0.0,2.0,1.0,0.0,5.0,5.0,758.857601787895,5.0,1.0,phase_2,go,500.0,500.0,1.0,,,,,,,,,cyan,triangle
0.0,5.0,0.5,1.0,5.0,5.0,758.0139730125666,5.0,1.0,phase_2,go,500.0,500.0,1.0,,,,,,,,,green,diamond
0.0,3.0,2.0,0.0,5.0,5.0,973.340264055878,5.0,1.0,phase_2,go,500.0,500.0,1.0,,,,,,,,,white,circle
0.0,5.0,0.5,1.0,6.0,0.0,0.0,5.0,1.0,phase_2,stop,500.0,500.0,4.0,,,,,,,,,green,diamond
0.0,7.0,2.0,1.0,5.0,5.0,795.2369782142341,5.0,1.0,phase_2,go,500.0,550.0,1.0,,,,,,,,,magenta,square
0.0,6.0,1.0,1.0,6.0,6.0,675.9391161613166,5.0,1.0,phase_2,stop,500.0,550.0,3.0,,,,,,,,,yellow,I
0.0,4.0,4.0,0.0,5.0,5.0,1472.070663701743,5.0,1.0,phase_2,go,500.0,500.0,1.0,,,,,,,,,gray,hexagon
0.0,2.0,1.0,0.0,6.0,6.0,475.5000099539757,5.0,1.0,phase_2,go,500.0,500.0,1.0,,,,,,,,,cyan,triangle
0.0,8.0,4.0,1.0,5.0,0.0,0.0,5.0,1.0,phase_2,stop,500.0,500.0,4.0,,,,,,,,,blue,flipped triangle
0.0,2.0,1.0,0.0,5.0,5.0,592.6864058710635,5.0,1.0,phase_2,go,550.0,500.0,1.0,,,,,,,,,cyan,triangle
0.0,7.0,2.0,1.0,5.0,0.0,0.0,5.0,1.0,phase_2,stop,550.0,500.0,4.0,,,,,,,,,magenta,square
0.0,4.0,4.0,0.0,5.0,5.0,789.7730590775609,5.0,1.0,phase_2,go,600.0,500.0,1.0,,,,,,,,,gray,hexagon
0.0,3.0,2.0,0.0,6.0,6.0,685.759493149817,5.0,1.0,phase_2,go,600.0,500.0,1.0,,,,,,,,,white,circle
0.0,8.0,4.0,1.0,5.0,0.0,0.0,5.0,1.0,phase_2,stop,600.0,500.0,4.0,,,,,,,,,blue,flipped triangle
0.0,4.0,4.0,0.0,5.0,5.0,915.6042491085828,5.0,1.0,phase_2,go,650.0,500.0,1.0,,,,,,,,,gray,hexagon
0.0,3.0,2.0,0.0,6.0,6.0,307.5909786857664,5.0,1.0,phase_2,go,650.0,500.0,1.0,,,,,,,,,white,circle
0.0,1.0,0.5,0.0,5.0,5.0,988.506195601076,5.0,1.0,phase_2,go,650.0,500.0,1.0,,,,,,,,,orange,cross
0.0,4.0,4.0,0.0,6.0,6.0,841.9263800606132,5.0,1.0,phase_2,go,650.0,500.0,1.0,,,,,,,,,gray,hexagon
0.0,7.0,2.0,1.0,5.0,0.0,0.0,5.0,1.0,phase_2,stop,650.0,500.0,4.0,,,,,,,,,magenta,square
0.0,3.0,2.0,0.0,5.0,5.0,650.1172920688987,5.0,1.0,phase_2,go,700.0,500.0,1.0,,,,,,,,,white,circle
0.0,7.0,2.0,1.0,5.0,6.0,865.0283738970757,6.0,1.0,phase_2,go,700.0,500.0,2.0,,,,,,,,,magenta,square
0.0,7.0,2.0,1.0,6.0,6.0,469.6920160204172,6.0,1.0,phase_2,stop,700.0,500.0,3.0,,,,,,,,,magenta,square
0.0,8.0,4.0,1.0,6.0,0.0,0.0,6.0,1.0,phase_2,stop,700.0,450.0,4.0,,,,,,,,,blue,flipped triangle
0.0,7.0,2.0,1.0,6.0,6.0,814.9683810770512,6.0,1.0,phase_2,go,700.0,500.0,1.0,,,,,,,,,magenta,square
0.0,3.0,2.0,0.0,6.0,6.0,459.7263750620186,6.0,1.0,phase_2,go,700.0,500.0,1.0,,,,,,,,,white,circle
0.0,2.0,1.0,0.0,6.0,6.0,356.9200639612973,6.0,1.0,phase_2,go,700.0,500.0,1.0,,,,,,,,,cyan,triangle
0.0,3.0,2.0,0.0,5.0,5.0,557.0959826000035,6.0,1.0,phase_2,go,700.0,500.0,1.0,,,,,,,,,white,circle
0.0,6.0,1.0,1.0,6.0,0.0,0.0,6.0,1.0,phase_2,stop,700.0,500.0,4.0,,,,,,,,,yellow,I
0.0,5.0,0.5,1.0,6.0,6.0,626.5669032000005,6.0,1.0,phase_2,stop,700.0,550.0,3.0,,,,,,,,,green,diamond
0.0,4.0,4.0,0.0,6.0,6.0,1017.2012648545206,6.0,1.0,phase_2,go,700.0,500.0,1.0,,,,,,,,,gray,hexagon
0.0,1.0,0.5,0.0,5.0,5.0,1228.9392249658704,6.0,1.0,phase_2,go,700.0,500.0,1.0,,,,,,,,,orange,cross
0.0,6.0,1.0,1.0,5.0,0.0,0.0,6.0,1.0,phase_2,stop,700.0,500.0,4.0,,,,,,,,,yellow,I
0.0,5.0,0.5,1.0,6.0,6.0,785.4008139111102,6.0,1.0,phase_2,go,750.0,500.0,1.0,,,,,,,,,green,diamond
0.0,8.0,4.0,1.0,5.0,0.0,0.0,6.0,1.0,phase_2,stop,750.0,500.0,4.0,,,,,,,,,blue,flipped triangle
0.0,8.0,4.0,1.0,5.0,5.0,1198.5738491639495,6.0,1.0,phase_2,go,800.0,500.0,1.0,,,,,,,,,blue,flipped triangle
0.0,2.0,1.0,0.0,5.0,5.0,1037.9513278603554,6.0,1.0,phase_2,go,800.0,500.0,1.0,,,,,,,,,cyan,triangle
0.0,4.0,4.0,0.0,5.0,5.0,893.5294109396636,6.0,1.0,phase_2,go,800.0,500.0,1.0,,,,,,,,,gray,hexagon
0.0,7.0,2.0,1.0,6.0,0.0,0.0,6.0,1.0,phase_2,stop,800.0,500.0,4.0,,,,,,,,,magenta,square
0.0,2.0,1.0,0.0,5.0,5.0,598.3273619785905,6.0,1.0,phase_2,go,800.0,550.0,1.0,,,,,,,,,cyan,triangle
0.0,1.0,0.5,0.0,6.0,6.0,895.6350213848054,6.0,1.0,phase_2,go,800.0,550.0,1.0,,,,,,,,,orange,cross
0.0,7.0,2.0,1.0,5.0,0.0,0.0,6.0,1.0,phase_2,stop,800.0,550.0,4.0,,,,,,,,,magenta,square
0.0,3.0,2.0,0.0,6.0,6.0,340.870204847306,6.0,1.0,phase_2,go,850.0,550.0,1.0,,,,,,,,,white,circle
0.0,7.0,2.0,1.0,6.0,0.0,0.0,6.0,1.0,phase_2,stop,850.0,550.0,4.0,,,,,,,,,magenta,square
0.0,7.0,2.0,1.0,6.0,0.0,0.0,6.0,1.0,phase_2,stop,850.0,600.0,4.0,,,,,,,,,magenta,square
0.0,1.0,0.5,0.0,5.0,5.0,1081.159824039787,6.0,1.0,phase_2,go,850.0,650.0,1.0,,,,,,,,,orange,cross
0.0,6.0,1.0,1.0,5.0,5.0,1235.51850579679,6.0,1.0,phase_2,go,850.0,650.0,1.0,,,,,,,,,yellow,I
0.0,6.0,1.0,1.0,6.0,6.0,929.9409678205848,6.0,1.0,phase_2,go,850.0,650.0,1.0,,,,,,,,,yellow,I
0.0,1.0,0.5,0.0,5.0,5.0,377.7368129231035,6.0,1.0,phase_2,go,850.0,650.0,1.0,,,,,,,,,orange,cross
0.0,3.0,2.0,0.0,6.0,6.0,898.2142782770097,6.0,1.0,phase_2,go,850.0,650.0,1.0,,,,,,,,,white,circle
0.0,5.0,0.5,1.0,5.0,5.0,1472.992615774274,6.0,1.0,phase_2,go,850.0,650.0,1.0,,,,,,,,,green,diamond
0.0,7.0,2.0,1.0,5.0,5.0,657.0348390378058,6.0,1.0,phase_2,stop,850.0,650.0,3.0,,,,,,,,,magenta,square
0.0,3.0,2.0,0.0,6.0,6.0,592.9423230700195,6.0,1.0,phase_2,go,800.0,650.0,1.0,,,,,,,,,white,circle
0.0,2.0,1.0,0.0,6.0,6.0,639.8588130250573,6.0,1.0,phase_2,go,800.0,650.0,1.0,,,,,,,,,cyan,triangle
0.0,2.0,1.0,0.0,5.0,5.0,732.6949289999902,6.0,1.0,phase_2,go,800.0,650.0,1.0,,,,,,,,,cyan,triangle
0.0,8.0,4.0,1.0,6.0,6.0,588.7817889451981,6.0,1.0,phase_2,stop,800.0,650.0,3.0,,,,,,,,,blue,flipped triangle
0.0,8.0,4.0,1.0,6.0,6.0,715.0359628722072,6.0,1.0,phase_2,stop,800.0,600.0,3.0,,,,,,,,,blue,flipped triangle
0.0,4.0,4.0,0.0,6.0,6.0,1263.0184614099562,7.0,1.0,phase_2,go,800.0,550.0,1.0,,,,,,,,,gray,hexagon
0.0,5.0,0.5,1.0,6.0,6.0,461.4165336824953,7.0,1.0,phase_2,stop,800.0,550.0,3.0,,,,,,,,,green,diamond
0.0,5.0,0.5,1.0,6.0,6.0,412.6500589773059,7.0,1.0,phase_2,stop,800.0,500.0,3.0,,,,,,,,,green,diamond
0.0,4.0,4.0,0.0,5.0,5.0,578.7229011766613,7.0,1.0,phase_2,go,800.0,450.0,1.0,,,,,,,,,gray,hexagon
0.0,4.0,4.0,0.0,6.0,6.0,1060.8916678465905,7.0,1.0,phase_2,go,800.0,450.0,1.0,,,,,,,,,gray,hexagon
0.0,4.0,4.0,0.0,5.0,5.0,491.5076093748212,7.0,1.0,phase_2,go,800.0,450.0,1.0,,,,,,,,,gray,hexagon
0.0,2.0,1.0,0.0,5.0,5.0,465.0276419706642,7.0,1.0,phase_2,go,800.0,450.0,1.0,,,,,,,,,cyan,triangle
0.0,7.0,2.0,1.0,5.0,5.0,626.077292021364,7.0,1.0,phase_2,stop,800.0,450.0,3.0,,,,,,,,,magenta,square
0.0,1.0,0.5,0.0,6.0,6.0,714.1201430931687,7.0,1.0,phase_2,go,750.0,450.0,1.0,,,,,,,,,orange,cross
0.0,6.0,1.0,1.0,6.0,0.0,0.0,7.0,1.0,phase_2,stop,750.0,450.0,4.0,,,,,,,,,yellow,I
0.0,4.0,4.0,0.0,5.0,5.0,695.2454070560634,7.0,1.0,phase_2,go,750.0,500.0,1.0,,,,,,,,,gray,hexagon
0.0,8.0,4.0,1.0,5.0,5.0,638.0533543415368,7.0,1.0,phase_2,stop,750.0,500.0,3.0,,,,,,,,,blue,flipped triangle
0.0,6.0,1.0,1.0,5.0,0.0,0.0,7.0,1.0,phase_2,stop,700.0,500.0,4.0,,,,,,,,,yellow,I
0.0,4.0,4.0,0.0,5.0,5.0,1048.6887907609344,7.0,1.0,phase_2,go,750.0,500.0,1.0,,,,,,,,,gray,hexagon
0.0,2.0,1.0,0.0,6.0,6.0,776.2063778936863,7.0,1.0,phase_2,go,750.0,500.0,1.0,,,,,,,,,cyan,triangle
0.0,6.0,1.0,1.0,5.0,5.0,403.855494223535,7.0,1.0,phase_2,stop,750.0,500.0,3.0,,,,,,,,,yellow,I
0.0,3.0,2.0,0.0,5.0,5.0,982.1127238683404,7.0,1.0,phase_2,go,700.0,500.0,1.0,,,,,,,,,white,circle
0.0,5.0,0.5,1.0,6.0,6.0,1029.422597028315,7.0,1.0,phase_2,go,700.0,500.0,1.0,,,,,,,,,green,diamond
0.0,3.0,2.0,0.0,5.0,5.0,907.919425982982,7.0,1.0,phase_2,go,700.0,500.0,1.0,,,,,,,,,white,circle
0.0,4.0,4.0,0.0,6.0,6.0,681.4329619519413,7.0,1.0,phase_2,go,700.0,500.0,1.0,,,,,,,,,gray,hexagon
0.0,1.0,0.5,0.0,6.0,6.0,400.8043501526117,7.0,1.0,phase_2,go,700.0,500.0,1.0,,,,,,,,,orange,cross
0.0,2.0,1.0,0.0,6.0,6.0,337.4075498431921,7.0,1.0,phase_2,go,700.0,500.0,1.0,,,,,,,,,cyan,triangle
0.0,5.0,0.5,1.0,5.0,5.0,290.6470177695155,7.0,1.0,phase_2,go,700.0,500.0,1.0,,,,,,,,,green,diamond
0.0,4.0,4.0,0.0,6.0,6.0,506.6029690206051,7.0,1.0,phase_2,go,700.0,500.0,1.0,,,,,,,,,gray,hexagon
0.0,6.0,1.0,1.0,6.0,6.0,319.5614106953144,7.0,1.0,phase_2,stop,700.0,500.0,3.0,,,,,,,,,yellow,I
0.0,5.0,0.5,1.0,5.0,5.0,391.513523645699,7.0,1.0,phase_2,stop,700.0,450.0,3.0,,,,,,,,,green,diamond
0.0,6.0,1.0,1.0,6.0,0.0,0.0,7.0,1.0,phase_2,stop,650.0,450.0,4.0,,,,,,,,,yellow,I
0.0,1.0,0.5,0.0,6.0,6.0,509.8313819617033,7.0,1.0,phase_2,go,650.0,500.0,1.0,,,,,,,,,orange,cross
0.0,6.0,1.0,1.0,5.0,5.0,336.8262662552297,7.0,1.0,phase_2,go,650.0,500.0,1.0,,,,,,,,,yellow,I
0.0,1.0,0.5,0.0,6.0,6.0,308.8493891991675,7.0,1.0,phase_2,go,650.0,500.0,1.0,,,,,,,,,orange,cross
0.0,3.0,2.0,0.0,5.0,5.0,333.1033438444137,7.0,1.0,phase_2,go,650.0,500.0,1.0,,,,,,,,,white,circle
0.0,8.0,4.0,1.0,6.0,6.0,348.8064208067953,7.0,1.0,phase_2,stop,650.0,500.0,3.0,,,,,,,,,blue,flipped triangle
0.0,5.0,0.5,1.0,5.0,5.0,741.4159928448498,7.0,1.0,phase_2,go,650.0,450.0,1.0,,,,,,,,,green,diamond
0.0,5.0,0.5,1.0,5.0,5.0,626.2813047505915,7.0,1.0,phase_2,go,650.0,450.0,1.0,,,,,,,,,green,diamond
0.0,2.0,1.0,0.0,6.0,6.0,777.4805189110339,7.0,1.0,phase_2,go,650.0,450.0,1.0,,,,,,,,,cyan,triangle
0.0,3.0,2.0,0.0,6.0,6.0,443.50829673931,7.0,1.0,phase_2,go,650.0,450.0,1.0,,,,,,,,,white,circle
0.0,7.0,2.0,1.0,6.0,6.0,761.1592318862677,8.0,1.0,phase_2,go,650.0,450.0,1.0,,,,,,,,,magenta,square
0.0,8.0,4.0,1.0,6.0,6.0,382.7512678690254,8.0,1.0,phase_2,stop,650.0,450.0,3.0,,,,,,,,,blue,flipped triangle
0.0,8.0,4.0,1.0,5.0,5.0,758.7071135640144,8.0,1.0,phase_2,go,650.0,400.0,1.0,,,,,,,,,blue,flipped triangle
0.0,6.0,1.0,1.0,6.0,6.0,328.9629863575101,8.0,1.0,phase_2,stop,650.0,400.0,3.0,,,,,,,,,yellow,I
0.0,8.0,4.0,1.0,5.0,5.0,536.0138802789152,8.0,1.0,phase_2,stop,650.0,350.0,3.0,,,,,,,,,blue,flipped triangle
0.0,4.0,4.0,0.0,5.0,5.0,550.4528139717877,8.0,1.0,phase_2,go,600.0,350.0,1.0,,,,,,,,,gray,hexagon
0.0,7.0,2.0,1.0,5.0,0.0,0.0,8.0,1.0,phase_2,stop,600.0,350.0,4.0,,,,,,,,,magenta,square
0.0,4.0,4.0,0.0,6.0,6.0,454.7694893553853,8.0,1.0,phase_2,go,650.0,350.0,1.0,,,,,,,,,gray,hexagon
0.0,2.0,1.0,0.0,6.0,6.0,748.875371646136,8.0,1.0,phase_2,go,650.0,350.0,1.0,,,,,,,,,cyan,triangle
0.0,7.0,2.0,1.0,6.0,0.0,0.0,8.0,1.0,phase_2,stop,650.0,350.0,4.0,,,,,,,,,magenta,square
0.0,8.0,4.0,1.0,5.0,5.0,457.7613300643861,8.0,1.0,phase_2,stop,650.0,400.0,3.0,,,,,,,,,blue,flipped triangle
0.0,8.0,4.0,1.0,6.0,0.0,0.0,8.0,1.0,phase_2,stop,600.0,400.0,4.0,,,,,,,,,blue,flipped triangle
0.0,2.0,1.0,0.0,6.0,6.0,761.3254389725626,8.0,1.0,phase_2,go,600.0,450.0,1.0,,,,,,,,,cyan,triangle
0.0,8.0,4.0,1.0,5.0,0.0,0.0,8.0,1.0,phase_2,stop,600.0,450.0,4.0,,,,,,,,,blue,flipped triangle
0.0,2.0,1.0,0.0,5.0,5.0,664.2313748598099,8.0,1.0,phase_2,go,650.0,450.0,1.0,,,,,,,,,cyan,triangle
0.0,5.0,0.5,1.0,5.0,5.0,425.6275366060436,8.0,1.0,phase_2,stop,650.0,450.0,3.0,,,,,,,,,green,diamond
0.0,3.0,2.0,0.0,6.0,6.0,1216.0182460211215,8.0,1.0,phase_2,go,600.0,450.0,1.0,,,,,,,,,white,circle
0.0,1.0,0.5,0.0,5.0,0.0,0.0,8.0,1.0,phase_2,go,600.0,450.0,5.0,,,,,,,,,orange,cross
0.0,2.0,1.0,0.0,5.0,5.0,510.69006603211164,8.0,1.0,phase_2,go,600.0,450.0,1.0,,,,,,,,,cyan,triangle
0.0,6.0,1.0,1.0,5.0,5.0,366.7730488814413,8.0,1.0,phase_2,stop,600.0,450.0,3.0,,,,,,,,,yellow,I
0.0,2.0,1.0,0.0,6.0,6.0,355.0945557653904,8.0,1.0,phase_2,go,550.0,450.0,1.0,,,,,,,,,cyan,triangle
0.0,6.0,1.0,1.0,6.0,6.0,499.9099508859217,8.0,1.0,phase_2,stop,550.0,450.0,3.0,,,,,,,,,yellow,I
0.0,1.0,0.5,0.0,6.0,0.0,0.0,8.0,1.0,phase_2,go,550.0,400.0,5.0,,,,,,,,,orange,cross
0.0,6.0,1.0,1.0,5.0,0.0,0.0,8.0,1.0,phase_2,stop,550.0,400.0,4.0,,,,,,,,,yellow,I
0.0,8.0,4.0,1.0,5.0,5.0,417.1684286557138,8.0,1.0,phase_2,go,600.0,400.0,1.0,,,,,,,,,blue,flipped triangle
0.0,2.0,1.0,0.0,5.0,5.0,403.6683132871985,8.0,1.0,phase_2,go,600.0,400.0,1.0,,,,,,,,,cyan,triangle
0.0,7.0,2.0,1.0,6.0,6.0,321.8948300927877,8.0,1.0,phase_2,stop,600.0,400.0,3.0,,,,,,,,,magenta,square
0.0,8.0,4.0,1.0,6.0,0.0,0.0,8.0,1.0,phase_2,stop,600.0,350.0,4.0,,,,,,,,,blue,flipped triangle
0.0,2.0,1.0,0.0,6.0,6.0,850.8715638890862,8.0,1.0,phase_2,go,600.0,400.0,1.0,,,,,,,,,cyan,triangle
0.0,1.0,0.5,0.0,6.0,6.0,551.2234792113304,8.0,1.0,phase_2,go,600.0,400.0,1.0,,,,,,,,,orange,cross
0.0,2.0,1.0,0.0,5.0,5.0,776.1315647512674,8.0,1.0,phase_2,go,600.0,400.0,1.0,,,,,,,,,cyan,triangle
0.0,7.0,2.0,1.0,5.0,5.0,437.5294139608741,8.0,1.0,phase_2,stop,600.0,400.0,3.0,,,,,,,,,magenta,square
0.0,5.0,0.5,1.0,6.0,0.0,0.0,8.0,1.0,phase_2,stop,550.0,400.0,4.0,,,,,,,,,green,diamond
0.0,7.0,2.0,1.0,5.0,0.0,0.0,8.0,1.0,phase_2,stop,550.0,450.0,4.0,,,,,,,,,magenta,square
0.0,1.0,0.5,0.0,6.0,6.0,797.1862563863397,8.0,1.0,phase_2,go,600.0,450.0,1.0,,,,,,,,,orange,cross
0.0,8.0,4.0,1.0,5.0,0.0,0.0,8.0,1.0,phase_2,stop,600.0,450.0,4.0,,,,,,,,,blue,flipped triangle
0.0,8.0,4.0,1.0,7.0,3.0,1128.4256549552083,1.0,2.0,phase_3,,,,,98.0,2.0,196.0,49.0,98.0,147.0,245.0,294.0,blue,flipped triangle
0.0,1.0,0.5,0.0,7.0,2.0,898.8308608531952,1.0,1.0,phase_3,,,,,39.0,1.0,156.0,39.0,78.0,117.0,195.0,234.0,orange,cross
0.0,6.0,1.0,1.0,7.0,5.0,1763.119211886078,1.0,1.0,phase_3,,,,,294.0,6.0,49.0,98.0,245.0,147.0,294.0,196.0,yellow,I
0.0,5.0,0.5,1.0,7.0,2.0,1916.400863789022,1.0,1.0,phase_3,,,,,264.0,6.0,88.0,264.0,176.0,220.0,44.0,132.0,green,diamond
0.0,2.0,1.0,0.0,7.0,3.0,2439.042989164591,1.0,1.0,phase_3,,,,,245.0,5.0,49.0,196.0,245.0,147.0,98.0,294.0,cyan,triangle
0.0,7.0,2.0,1.0,7.0,6.0,2657.224690075964,1.0,1.0,phase_3,,,,,68.0,2.0,136.0,102.0,204.0,34.0,170.0,68.0,magenta,square
0.0,3.0,2.0,0.0,7.0,1.0,1272.8592902421951,1.0,1.0,phase_3,,,,,44.0,1.0,44.0,176.0,132.0,220.0,264.0,88.0,white,circle
0.0,1.0,0.5,0.0,7.0,6.0,1937.8130598925052,1.0,1.0,phase_3,,,,,98.0,2.0,147.0,294.0,245.0,196.0,49.0,98.0,orange,cross
0.0,3.0,2.0,0.0,7.0,6.0,2386.9958771392703,1.0,1.0,phase_3,,,,,34.0,1.0,204.0,68.0,136.0,102.0,170.0,34.0,white,circle
0.0,5.0,0.5,1.0,7.0,3.0,2149.4912039488554,1.0,1.0,phase_3,,,,,270.0,5.0,108.0,162.0,270.0,54.0,216.0,324.0,green,diamond
0.0,3.0,2.0,0.0,7.0,1.0,3263.786742929369,1.0,1.0,phase_3,,,,,49.0,1.0,49.0,196.0,147.0,245.0,294.0,98.0,white,circle
0.0,5.0,0.5,1.0,7.0,2.0,2785.0822512991726,1.0,1.0,phase_3,,,,,195.0,5.0,39.0,195.0,78.0,117.0,234.0,156.0,green,diamond
0.0,5.0,0.5,1.0,7.0,4.0,2552.4709238670766,1.0,1.0,phase_3,,,,,196.0,4.0,49.0,98.0,147.0,196.0,294.0,245.0,green,diamond
0.0,2.0,1.0,0.0,7.0,2.0,2562.1302160434425,1.0,1.0,phase_3,,,,,156.0,4.0,234.0,156.0,195.0,39.0,117.0,78.0,cyan,triangle
0.0,4.0,4.0,0.0,7.0,6.0,3468.0206328630447,1.0,1.0,phase_3,,,,,44.0,1.0,176.0,88.0,132.0,220.0,264.0,44.0,gray,hexagon
0.0,8.0,4.0,1.0,7.0,3.0,2350.139187183231,1.0,1.0,phase_3,,,,,324.0,6.0,270.0,216.0,324.0,108.0,162.0,54.0,blue,flipped triangle
0.0,2.0,1.0,0.0,7.0,1.0,1753.9190268144011,1.0,1.0,phase_3,,,,,108.0,2.0,108.0,270.0,324.0,54.0,216.0,162.0,cyan,triangle
0.0,5.0,0.5,1.0,7.0,5.0,2894.9626707471907,1.0,1.0,phase_3,,,,,176.0,4.0,132.0,88.0,220.0,44.0,176.0,264.0,green,diamond
0.0,6.0,1.0,1.0,7.0,6.0,1361.74931563437,1.0,1.0,phase_3,,,,,54.0,1.0,324.0,162.0,216.0,108.0,270.0,54.0,yellow,I
0.0,8.0,4.0,1.0,7.0,1.0,1331.7119241692126,1.0,1.0,phase_3,,,,,204.0,6.0,204.0,68.0,170.0,136.0,102.0,34.0,blue,flipped triangle
0.0,7.0,2.0,1.0,7.0,2.0,985.4120551608504,2.0,1.0,phase_3,,,,,39.0,1.0,156.0,39.0,195.0,234.0,78.0,117.0,magenta,square
0.0,8.0,4.0,1.0,7.0,1.0,2474.459071177989,2.0,1.0,phase_3,,,,,49.0,1.0,49.0,294.0,196.0,147.0,245.0,98.0,blue,flipped triangle
0.0,4.0,4.0,0.0,7.0,2.0,1781.0579971410334,2.0,1.0,phase_3,,,,,39.0,1.0,117.0,39.0,78.0,156.0,234.0,195.0,gray,hexagon
0.0,4.0,4.0,0.0,7.0,6.0,1781.256688758731,2.0,1.0,phase_3,,,,,49.0,1.0,245.0,294.0,147.0,196.0,98.0,49.0,gray,hexagon
0.0,3.0,2.0,0.0,7.0,3.0,2824.2478878237307,2.0,1.0,phase_3,,,,,88.0,2.0,44.0,176.0,88.0,220.0,264.0,132.0,white,circle
0.0,6.0,1.0,1.0,7.0,4.0,2914.051176980138,2.0,1.0,phase_3,,,,,132.0,3.0,44.0,264.0,88.0,132.0,220.0,176.0,yellow,I
0.0,1.0,0.5,0.0,7.0,2.0,3568.796342238784,2.0,1.0,phase_3,,,,,195.0,5.0,39.0,195.0,78.0,234.0,156.0,117.0,orange,cross
0.0,2.0,1.0,0.0,7.0,5.0,2530.947824008763,2.0,1.0,phase_3,,,,,88.0,2.0,44.0,264.0,132.0,176.0,88.0,220.0,cyan,triangle
0.0,2.0,1.0,0.0,7.0,5.0,963.9732129871844,2.0,1.0,phase_3,,,,,98.0,2.0,196.0,147.0,245.0,49.0,98.0,294.0,cyan,triangle
0.0,8.0,4.0,1.0,7.0,1.0,1382.6157869771123,2.0,1.0,phase_3,,,,,44.0,1.0,44.0,132.0,220.0,88.0,176.0,264.0,blue,flipped triangle
0.0,1.0,0.5,0.0,7.0,6.0,3605.74792092666,2.0,1.0,phase_3,,,,,88.0,2.0,264.0,132.0,176.0,44.0,220.0,88.0,orange,cross
0.0,4.0,4.0,0.0,7.0,5.0,930.5994971655308,2.0,1.0,phase_3,,,,,39.0,1.0,234.0,78.0,117.0,156.0,39.0,195.0,gray,hexagon
0.0,4.0,4.0,0.0,7.0,6.0,1468.5808629728854,2.0,1.0,phase_3,,,,,54.0,1.0,270.0,108.0,162.0,216.0,324.0,54.0,gray,hexagon
0.0,6.0,1.0,1.0,7.0,5.0,2293.4218109585345,2.0,1.0,phase_3,,,,,195.0,5.0,234.0,39.0,117.0,156.0,195.0,78.0,yellow,I
0.0,7.0,2.0,1.0,7.0,4.0,1891.8407880701125,2.0,1.0,phase_3,,,,,54.0,1.0,108.0,216.0,324.0,54.0,270.0,162.0,magenta,square
0.0,7.0,2.0,1.0,7.0,2.0,1974.6181811206045,2.0,1.0,phase_3,,,,,88.0,2.0,176.0,88.0,132.0,264.0,220.0,44.0,magenta,square
0.0,6.0,1.0,1.0,7.0,2.0,2918.4707258827984,2.0,1.0,phase_3,,,,,147.0,3.0,196.0,147.0,245.0,98.0,294.0,49.0,yellow,I
0.0,6.0,1.0,1.0,7.0,1.0,1001.6416218131781,2.0,1.0,phase_3,,,,,170.0,5.0,170.0,34.0,68.0,102.0,136.0,204.0,yellow,I
0.0,1.0,0.5,0.0,7.0,2.0,2499.2718189023435,2.0,1.0,phase_3,,,,,54.0,1.0,270.0,54.0,162.0,324.0,108.0,216.0,orange,cross
0.0,2.0,1.0,0.0,7.0,5.0,3019.386451691389,2.0,1.0,phase_3,,,,,204.0,6.0,170.0,102.0,34.0,68.0,204.0,136.0,cyan,triangle
0.0,7.0,2.0,1.0,7.0,1.0,0.20790798589579998,3.0,1.0,phase_3,,,,,324.0,6.0,324.0,216.0,108.0,162.0,54.0,270.0,magenta,square
0.0,4.0,4.0,0.0,7.0,2.0,688.4941579774022,3.0,1.0,phase_3,,,,,68.0,2.0,102.0,68.0,34.0,136.0,170.0,204.0,gray,hexagon
0.0,8.0,4.0,1.0,7.0,3.0,2178.7485969252884,3.0,1.0,phase_3,,,,,78.0,2.0,234.0,156.0,78.0,117.0,195.0,39.0,blue,flipped triangle
0.0,2.0,1.0,0.0,7.0,3.0,1585.0063487887385,3.0,1.0,phase_3,,,,,88.0,2.0,176.0,132.0,88.0,264.0,44.0,220.0,cyan,triangle
0.0,1.0,0.5,0.0,7.0,4.0,1817.4561620689929,3.0,1.0,phase_3,,,,,49.0,1.0,294.0,245.0,98.0,49.0,196.0,147.0,orange,cross
0.0,1.0,0.5,0.0,7.0,2.0,511.7707452736795,3.0,2.0,phase_3,,,,,34.0,1.0,68.0,34.0,136.0,102.0,204.0,170.0,orange,cross
0.0,7.0,2.0,1.0,7.0,5.0,2216.193165164441,3.0,1.0,phase_3,,,,,88.0,2.0,220.0,44.0,132.0,264.0,88.0,176.0,magenta,square
0.0,5.0,0.5,1.0,7.0,1.0,1281.5611902624369,3.0,1.0,phase_3,,,,,170.0,5.0,170.0,102.0,204.0,68.0,136.0,34.0,green,diamond
0.0,4.0,4.0,0.0,7.0,5.0,2987.719524651766,3.0,1.0,phase_3,,,,,68.0,2.0,136.0,102.0,204.0,170.0,68.0,34.0,gray,hexagon
0.0,5.0,0.5,1.0,7.0,1.0,1812.442913185805,3.0,1.0,phase_3,,,,,156.0,4.0,156.0,39.0,234.0,117.0,78.0,195.0,green,diamond
0.0,5.0,0.5,1.0,7.0,4.0,2462.04836294055,3.0,1.0,phase_3,,,,,294.0,6.0,98.0,49.0,147.0,294.0,196.0,245.0,green,diamond
0.0,8.0,4.0,1.0,7.0,3.0,4004.123331978917,3.0,1.0,phase_3,,,,,54.0,1.0,216.0,108.0,54.0,270.0,324.0,162.0,blue,flipped triangle
0.0,6.0,1.0,1.0,7.0,4.0,3326.1875957250595,3.0,1.0,phase_3,,,,,324.0,6.0,270.0,54.0,162.0,324.0,216.0,108.0,yellow,I
0.0,3.0,2.0,0.0,7.0,5.0,2534.652531147003,3.0,1.0,phase_3,,,,,39.0,1.0,234.0,117.0,195.0,78.0,39.0,156.0,white,circle
0.0,3.0,2.0,0.0,7.0,5.0,854.791393969208,3.0,1.0,phase_3,,,,,54.0,1.0,216.0,270.0,324.0,162.0,54.0,108.0,white,circle
0.0,1.0,0.5,0.0,7.0,1.0,1000.326809938997,3.0,1.0,phase_3,,,,,44.0,1.0,44.0,264.0,88.0,220.0,132.0,176.0,orange,cross
0.0,7.0,2.0,1.0,7.0,1.0,2625.1283190213144,3.0,1.0,phase_3,,,,,68.0,2.0,68.0,136.0,34.0,170.0,204.0,102.0,magenta,square
0.0,6.0,1.0,1.0,7.0,6.0,3113.801122643053,3.0,1.0,phase_3,,,,,102.0,3.0,68.0,34.0,136.0,170.0,204.0,102.0,yellow,I
0.0,2.0,1.0,0.0,7.0,5.0,1812.4794671311972,3.0,1.0,phase_3,,,,,270.0,5.0,108.0,162.0,54.0,216.0,270.0,324.0,cyan,triangle
0.0,8.0,4.0,1.0,7.0,2.0,1175.469296053052,3.0,1.0,phase_3,,,,,88.0,2.0,44.0,88.0,264.0,220.0,132.0,176.0,blue,flipped triangle
0.0,5.0,0.5,1.0,7.0,2.0,1560.006528161466,4.0,1.0,phase_3,,,,,108.0,2.0,216.0,108.0,162.0,54.0,324.0,270.0,green,diamond
0.0,7.0,2.0,1.0,7.0,6.0,2414.7132453508675,4.0,1.0,phase_3,,,,,98.0,2.0,49.0,294.0,196.0,245.0,147.0,98.0,magenta,square
0.0,7.0,2.0,1.0,7.0,3.0,3224.174827337265,4.0,1.0,phase_3,,,,,78.0,2.0,156.0,234.0,78.0,117.0,39.0,195.0,magenta,square
0.0,6.0,1.0,1.0,7.0,3.0,1377.467995043844,4.0,1.0,phase_3,,,,,264.0,6.0,176.0,44.0,264.0,132.0,220.0,88.0,yellow,I
0.0,3.0,2.0,0.0,7.0,3.0,1830.4003244265916,4.0,1.0,phase_3,,,,,49.0,1.0,245.0,196.0,49.0,294.0,98.0,147.0,white,circle
0.0,8.0,4.0,1.0,7.0,3.0,1472.2334980033338,4.0,1.0,phase_3,,,,,117.0,3.0,156.0,39.0,117.0,234.0,195.0,78.0,blue,flipped triangle
0.0,6.0,1.0,1.0,7.0,3.0,791.8931129388511,4.0,1.0,phase_3,,,,,234.0,6.0,78.0,39.0,234.0,156.0,195.0,117.0,yellow,I
0.0,2.0,1.0,0.0,7.0,4.0,2048.31966618076,4.0,1.0,phase_3,,,,,117.0,3.0,39.0,234.0,156.0,117.0,78.0,195.0,cyan,triangle
0.0,5.0,0.5,1.0,7.0,2.0,1859.7200559452176,4.0,1.0,phase_3,,,,,204.0,6.0,102.0,204.0,170.0,34.0,136.0,68.0,green,diamond
0.0,7.0,2.0,1.0,7.0,1.0,1067.8322319872675,4.0,1.0,phase_3,,,,,49.0,1.0,49.0,147.0,98.0,245.0,196.0,294.0,magenta,square
0.0,3.0,2.0,0.0,7.0,3.0,2179.352988023311,4.0,1.0,phase_3,,,,,54.0,1.0,216.0,324.0,54.0,270.0,108.0,162.0,white,circle
0.0,2.0,1.0,0.0,7.0,5.0,3783.6829251609743,4.0,1.0,phase_3,,,,,170.0,5.0,136.0,68.0,34.0,204.0,170.0,102.0,cyan,triangle
0.0,1.0,0.5,0.0,7.0,3.0,1409.8908710293472,4.0,1.0,phase_3,,,,,54.0,1.0,216.0,108.0,54.0,324.0,162.0,270.0,orange,cross
0.0,4.0,4.0,0.0,7.0,3.0,1496.088848914951,4.0,1.0,phase_3,,,,,54.0,1.0,324.0,162.0,54.0,216.0,270.0,108.0,gray,hexagon
0.0,3.0,2.0,0.0,7.0,1.0,1051.0499142110348,4.0,1.0,phase_3,,,,,68.0,2.0,68.0,170.0,102.0,136.0,204.0,34.0,white,circle
0.0,8.0,4.0,1.0,7.0,6.0,3763.1295658648014,4.0,1.0,phase_3,,,,,102.0,3.0,136.0,68.0,34.0,170.0,204.0,102.0,blue,flipped triangle
0.0,4.0,4.0,0.0,7.0,2.0,2028.3338208682835,4.0,1.0,phase_3,,,,,49.0,1.0,294.0,49.0,196.0,147.0,245.0,98.0,gray,hexagon
0.0,3.0,2.0,0.0,7.0,4.0,1463.7166666798294,4.0,1.0,phase_3,,,,,39.0,1.0,117.0,195.0,156.0,39.0,78.0,234.0,white,circle
0.0,4.0,4.0,0.0,7.0,3.0,1718.4914518147707,4.0,1.0,phase_3,,,,,44.0,1.0,132.0,220.0,44.0,176.0,88.0,264.0,gray,hexagon
0.0,1.0,0.5,0.0,7.0,3.0,794.2214901559055,4.0,1.0,phase_3,,,,,34.0,1.0,136.0,204.0,34.0,68.0,170.0,102.0,orange,cross
