raw_reward_magnitude,stim_reward,stepwise_reward_magnitude,paired_with_stopping,stim_location,response,reaction_time,block,num_trial_presentations,which_phase,stop_signal_trial_type,left_SSD,right_SSD,accuracy,chosen_bidding_amount,chosen_bidding_level,possible_bid_1,possible_bid_2,possible_bid_3,possible_bid_4,possible_bid_5,possible_bid_6,color_text,shape_text
43.0,5.0,0.5,1.0,2.0,2.0,379.4694989919662,1.0,1.0,phase_1,,,,,,,,,,,,,white,circle
180.0,7.0,2.0,1.0,4.0,4.0,288.2593581452966,1.0,1.0,phase_1,,,,,,,,,,,,,blue,triangle
45.0,1.0,0.5,0.0,1.0,1.0,326.4516992494464,1.0,1.0,phase_1,,,,,,,,,,,,,gray,diamond
390.0,4.0,4.0,0.0,4.0,4.0,259.6466839313507,1.0,1.0,phase_1,,,,,,,,,,,,,cyan,hexagon
35.0,5.0,0.5,1.0,1.0,1.0,293.7620868906379,1.0,1.0,phase_1,,,,,,,,,,,,,white,circle
0.0,5.0,0.0,1.0,2.0,2.0,314.2723981291055,1.0,1.0,phase_1,,,,,,,,,,,,,white,circle
405.0,4.0,4.0,0.0,1.0,1.0,271.9197180122137,1.0,1.0,phase_1,,,,,,,,,,,,,cyan,hexagon
220.0,7.0,2.0,1.0,3.0,3.0,301.1932340450585,1.0,1.0,phase_1,,,,,,,,,,,,,blue,triangle
124.0,2.0,1.0,0.0,2.0,2.0,288.0692752078175,1.0,1.0,phase_1,,,,,,,,,,,,,magenta,I
0.0,4.0,0.0,0.0,3.0,3.0,324.7888376936316,1.0,1.0,phase_1,,,,,,,,,,,,,cyan,hexagon
109.0,6.0,1.0,1.0,2.0,2.0,339.4113969989121,1.0,1.0,phase_1,,,,,,,,,,,,,yellow,flipped triangle
212.0,3.0,2.0,0.0,2.0,2.0,312.0740801095962,1.0,1.0,phase_1,,,,,,,,,,,,,green,square
218.0,3.0,2.0,0.0,3.0,3.0,317.9091489873826,1.0,1.0,phase_1,,,,,,,,,,,,,green,square
220.0,3.0,2.0,0.0,3.0,3.0,339.1370959579944,1.0,1.0,phase_1,,,,,,,,,,,,,green,square
180.0,3.0,2.0,0.0,2.0,2.0,301.2201841920614,1.0,1.0,phase_1,,,,,,,,,,,,,green,square
0.0,3.0,0.0,0.0,3.0,3.0,256.9160759449005,1.0,1.0,phase_1,,,,,,,,,,,,,green,square
34.0,1.0,0.5,0.0,4.0,4.0,309.7062869928777,1.0,1.0,phase_1,,,,,,,,,,,,,gray,diamond
384.0,4.0,4.0,0.0,4.0,4.0,338.9086206443608,1.0,2.0,phase_1,,,,,,,,,,,,,cyan,hexagon
392.0,4.0,4.0,0.0,3.0,3.0,276.380414608866,1.0,1.0,phase_1,,,,,,,,,,,,,cyan,hexagon
423.0,8.0,4.0,1.0,4.0,4.0,355.4463041946292,1.0,1.0,phase_1,,,,,,,,,,,,,orange,cross
0.0,5.0,0.0,1.0,2.0,2.0,261.6222938522696,1.0,1.0,phase_1,,,,,,,,,,,,,white,circle
0.0,2.0,0.0,0.0,2.0,2.0,316.1773541942239,1.0,1.0,phase_1,,,,,,,,,,,,,magenta,I
44.0,1.0,0.5,0.0,3.0,3.0,306.5677951090038,1.0,1.0,phase_1,,,,,,,,,,,,,gray,diamond
383.0,8.0,4.0,1.0,2.0,2.0,284.0223228558898,1.0,1.0,phase_1,,,,,,,,,,,,,orange,cross
0.0,1.0,0.0,0.0,2.0,2.0,338.8995658606291,1.0,1.0,phase_1,,,,,,,,,,,,,gray,diamond
47.0,1.0,0.5,0.0,4.0,4.0,255.37396920844913,1.0,1.0,phase_1,,,,,,,,,,,,,gray,diamond
46.0,5.0,0.5,1.0,2.0,2.0,396.0059871897101,1.0,1.0,phase_1,,,,,,,,,,,,,white,circle
47.0,1.0,0.5,0.0,1.0,1.0,487.6804719679057,1.0,1.0,phase_1,,,,,,,,,,,,,gray,diamond
205.0,7.0,2.0,1.0,2.0,2.0,330.442575737834,1.0,1.0,phase_1,,,,,,,,,,,,,blue,triangle
185.0,7.0,2.0,1.0,1.0,1.0,306.3468318432569,1.0,1.0,phase_1,,,,,,,,,,,,,blue,triangle
100.0,6.0,1.0,1.0,1.0,1.0,317.5473073497414,1.0,1.0,phase_1,,,,,,,,,,,,,yellow,flipped triangle
191.0,7.0,2.0,1.0,2.0,2.0,264.1104431822896,1.0,1.0,phase_1,,,,,,,,,,,,,blue,triangle
0.0,6.0,0.0,1.0,4.0,4.0,269.0333239734173,1.0,1.0,phase_1,,,,,,,,,,,,,yellow,flipped triangle
0.0,5.0,0.0,1.0,1.0,1.0,330.7541967369616,1.0,1.0,phase_1,,,,,,,,,,,,,white,circle
0.0,4.0,0.0,0.0,2.0,2.0,263.3669930510223,1.0,1.0,phase_1,,,,,,,,,,,,,cyan,hexagon
67.0,5.0,0.5,1.0,3.0,3.0,277.3251449689269,1.0,1.0,phase_1,,,,,,,,,,,,,white,circle
0.0,5.0,0.0,1.0,3.0,3.0,296.7571010813117,1.0,1.0,phase_1,,,,,,,,,,,,,white,circle
48.0,5.0,0.5,1.0,4.0,4.0,276.8496270291507,1.0,1.0,phase_1,,,,,,,,,,,,,white,circle
399.0,4.0,4.0,0.0,1.0,1.0,346.4290737174451,1.0,1.0,phase_1,,,,,,,,,,,,,cyan,hexagon
86.0,6.0,1.0,1.0,2.0,2.0,309.9237699061632,1.0,1.0,phase_1,,,,,,,,,,,,,yellow,flipped triangle
66.0,1.0,0.5,0.0,2.0,2.0,338.1728329695761,1.0,1.0,phase_1,,,,,,,,,,,,,gray,diamond
0.0,5.0,0.0,1.0,2.0,2.0,287.6752731390297,1.0,1.0,phase_1,,,,,,,,,,,,,white,circle
388.0,4.0,4.0,0.0,1.0,1.0,342.1435649506748,1.0,1.0,phase_1,,,,,,,,,,,,,cyan,hexagon
56.0,1.0,0.5,0.0,4.0,4.0,355.2153119817376,1.0,1.0,phase_1,,,,,,,,,,,,,gray,diamond
186.0,7.0,2.0,1.0,1.0,1.0,326.3205592520535,1.0,1.0,phase_1,,,,,,,,,,,,,blue,triangle
396.0,4.0,4.0,0.0,3.0,3.0,323.2212197035551,1.0,1.0,phase_1,,,,,,,,,,,,,cyan,hexagon
0.0,8.0,0.0,1.0,4.0,4.0,415.9201728180051,1.0,1.0,phase_1,,,,,,,,,,,,,orange,cross
0.0,2.0,0.0,0.0,1.0,1.0,445.5245058052242,1.0,1.0,phase_1,,,,,,,,,,,,,magenta,I
0.0,6.0,0.0,1.0,2.0,2.0,417.0039310120046,1.0,1.0,phase_1,,,,,,,,,,,,,yellow,flipped triangle
195.0,3.0,2.0,0.0,4.0,4.0,270.9365598857403,1.0,1.0,phase_1,,,,,,,,,,,,,green,square
75.0,1.0,0.5,0.0,3.0,3.0,307.6702691614628,1.0,1.0,phase_1,,,,,,,,,,,,,gray,diamond
381.0,8.0,4.0,1.0,4.0,4.0,270.0799847953021,1.0,1.0,phase_1,,,,,,,,,,,,,orange,cross
114.0,6.0,1.0,1.0,4.0,4.0,268.9664447680115,1.0,1.0,phase_1,,,,,,,,,,,,,yellow,flipped triangle
220.0,7.0,2.0,1.0,4.0,4.0,288.3990807458758,1.0,1.0,phase_1,,,,,,,,,,,,,blue,triangle
0.0,1.0,0.0,0.0,3.0,3.0,308.4196490235626,1.0,1.0,phase_1,,,,,,,,,,,,,gray,diamond
193.0,3.0,2.0,0.0,4.0,4.0,276.0002720169723,1.0,1.0,phase_1,,,,,,,,,,,,,green,square
117.0,6.0,1.0,1.0,4.0,4.0,271.963195875287,1.0,1.0,phase_1,,,,,,,,,,,,,yellow,flipped triangle
214.0,7.0,2.0,1.0,3.0,3.0,396.9361730851233,1.0,1.0,phase_1,,,,,,,,,,,,,blue,triangle
0.0,4.0,0.0,0.0,1.0,1.0,395.0003562495112,1.0,1.0,phase_1,,,,,,,,,,,,,cyan,hexagon
420.0,8.0,4.0,1.0,2.0,2.0,364.5117580890655,1.0,1.0,phase_1,,,,,,,,,,,,,orange,cross
0.0,6.0,0.0,1.0,2.0,2.0,379.6648303978145,1.0,1.0,phase_1,,,,,,,,,,,,,yellow,flipped triangle
0.0,7.0,0.0,1.0,2.0,2.0,294.2977137863636,1.0,1.0,phase_1,,,,,,,,,,,,,blue,triangle
61.0,5.0,0.5,1.0,4.0,4.0,314.69589611515397,1.0,1.0,phase_1,,,,,,,,,,,,,white,circle
185.0,3.0,2.0,0.0,3.0,3.0,265.2935748919844,1.0,1.0,phase_1,,,,,,,,,,,,,green,square
418.0,8.0,4.0,1.0,4.0,4.0,277.0904568023979,1.0,1.0,phase_1,,,,,,,,,,,,,orange,cross
181.0,7.0,2.0,1.0,1.0,1.0,315.1180800050497,1.0,1.0,phase_1,,,,,,,,,,,,,blue,triangle
35.0,1.0,0.5,0.0,4.0,4.0,278.4083960577845,1.0,1.0,phase_1,,,,,,,,,,,,,gray,diamond
40.0,5.0,0.5,1.0,1.0,1.0,314.9730707518756,1.0,1.0,phase_1,,,,,,,,,,,,,white,circle
88.0,6.0,1.0,1.0,1.0,1.0,361.0806530341506,1.0,1.0,phase_1,,,,,,,,,,,,,yellow,flipped triangle
384.0,8.0,4.0,1.0,2.0,2.0,357.4575376696884,1.0,1.0,phase_1,,,,,,,,,,,,,orange,cross
414.0,4.0,4.0,0.0,1.0,1.0,291.1339099518955,1.0,1.0,phase_1,,,,,,,,,,,,,cyan,hexagon
0.0,3.0,0.0,0.0,1.0,1.0,302.6891876943409,1.0,1.0,phase_1,,,,,,,,,,,,,green,square
46.0,5.0,0.5,1.0,2.0,2.0,338.546453975141,1.0,1.0,phase_1,,,,,,,,,,,,,white,circle
0.0,3.0,0.0,0.0,4.0,4.0,310.2268599905073,1.0,1.0,phase_1,,,,,,,,,,,,,green,square
91.0,2.0,1.0,0.0,1.0,1.0,362.2979908250272,1.0,1.0,phase_1,,,,,,,,,,,,,magenta,I
72.0,1.0,0.5,0.0,4.0,4.0,272.1699899993837,1.0,1.0,phase_1,,,,,,,,,,,,,gray,diamond
180.0,7.0,2.0,1.0,2.0,2.0,343.2451141998172,1.0,1.0,phase_1,,,,,,,,,,,,,blue,triangle
379.0,8.0,4.0,1.0,1.0,1.0,338.2351780310273,1.0,1.0,phase_1,,,,,,,,,,,,,orange,cross
377.0,4.0,4.0,0.0,4.0,4.0,272.1485779620707,1.0,1.0,phase_1,,,,,,,,,,,,,cyan,hexagon
217.0,3.0,2.0,0.0,1.0,1.0,350.8654437027871,1.0,2.0,phase_1,,,,,,,,,,,,,green,square
193.0,7.0,2.0,1.0,3.0,3.0,550.8398981764913,1.0,1.0,phase_1,,,,,,,,,,,,,blue,triangle
414.0,8.0,4.0,1.0,1.0,1.0,359.133549965918,1.0,1.0,phase_1,,,,,,,,,,,,,orange,cross
222.0,3.0,2.0,0.0,4.0,4.0,272.1238643862307,1.0,1.0,phase_1,,,,,,,,,,,,,green,square
103.0,6.0,1.0,1.0,1.0,1.0,332.150706090033,1.0,1.0,phase_1,,,,,,,,,,,,,yellow,flipped triangle
186.0,3.0,2.0,0.0,1.0,1.0,344.3243517540395,1.0,1.0,phase_1,,,,,,,,,,,,,green,square
0.0,8.0,0.0,1.0,1.0,1.0,362.5769051723182,1.0,1.0,phase_1,,,,,,,,,,,,,orange,cross
396.0,8.0,4.0,1.0,2.0,2.0,416.7678849771619,1.0,1.0,phase_1,,,,,,,,,,,,,orange,cross
56.0,5.0,0.5,1.0,3.0,3.0,422.4631730467081,1.0,1.0,phase_1,,,,,,,,,,,,,white,circle
99.0,2.0,1.0,0.0,3.0,3.0,466.5035190992057,1.0,1.0,phase_1,,,,,,,,,,,,,magenta,I
417.0,8.0,4.0,1.0,4.0,4.0,391.6040132753551,1.0,1.0,phase_1,,,,,,,,,,,,,orange,cross
0.0,1.0,0.0,0.0,4.0,4.0,313.3710143156349,1.0,2.0,phase_1,,,,,,,,,,,,,gray,diamond
0.0,4.0,0.0,0.0,4.0,4.0,301.9024697132408,1.0,1.0,phase_1,,,,,,,,,,,,,cyan,hexagon
45.0,5.0,0.5,1.0,1.0,1.0,475.5574828013778,1.0,1.0,phase_1,,,,,,,,,,,,,white,circle
0.0,2.0,0.0,0.0,3.0,3.0,334.6548657864332,1.0,1.0,phase_1,,,,,,,,,,,,,magenta,I
216.0,3.0,2.0,0.0,3.0,3.0,346.0862427018583,1.0,1.0,phase_1,,,,,,,,,,,,,green,square
194.0,3.0,2.0,0.0,2.0,2.0,312.3238962143659,1.0,1.0,phase_1,,,,,,,,,,,,,green,square
382.0,4.0,4.0,0.0,3.0,3.0,331.2643128447234,1.0,1.0,phase_1,,,,,,,,,,,,,cyan,hexagon
182.0,7.0,2.0,1.0,3.0,3.0,395.2173991128802,1.0,1.0,phase_1,,,,,,,,,,,,,blue,triangle
409.0,8.0,4.0,1.0,4.0,4.0,563.7040142901242,1.0,1.0,phase_1,,,,,,,,,,,,,orange,cross
0.0,7.0,0.0,1.0,2.0,2.0,408.0493003129959,1.0,1.0,phase_1,,,,,,,,,,,,,blue,triangle
189.0,7.0,2.0,1.0,4.0,4.0,495.2218872494995,2.0,1.0,phase_1,,,,,,,,,,,,,blue,triangle
411.0,4.0,4.0,0.0,2.0,2.0,400.7105380296707,2.0,1.0,phase_1,,,,,,,,,,,,,cyan,hexagon
423.0,4.0,4.0,0.0,1.0,1.0,481.9255927577615,2.0,1.0,phase_1,,,,,,,,,,,,,cyan,hexagon
387.0,8.0,4.0,1.0,3.0,3.0,260.7834679074585,2.0,1.0,phase_1,,,,,,,,,,,,,orange,cross
379.0,4.0,4.0,0.0,4.0,4.0,323.244587983936,2.0,1.0,phase_1,,,,,,,,,,,,,cyan,hexagon
387.0,8.0,4.0,1.0,2.0,2.0,316.6203573346138,2.0,1.0,phase_1,,,,,,,,,,,,,orange,cross
421.0,4.0,4.0,0.0,1.0,1.0,408.6024197749793,2.0,1.0,phase_1,,,,,,,,,,,,,cyan,hexagon
420.0,4.0,4.0,0.0,3.0,3.0,367.1641191467643,2.0,1.0,phase_1,,,,,,,,,,,,,cyan,hexagon
0.0,8.0,0.0,1.0,3.0,3.0,308.3903528749943,2.0,1.0,phase_1,,,,,,,,,,,,,orange,cross
57.0,1.0,0.5,0.0,2.0,2.0,321.7711960896849,2.0,1.0,phase_1,,,,,,,,,,,,,gray,diamond
393.0,8.0,4.0,1.0,2.0,2.0,299.63273787871,2.0,1.0,phase_1,,,,,,,,,,,,,orange,cross
420.0,8.0,4.0,1.0,1.0,1.0,339.16717814281577,2.0,1.0,phase_1,,,,,,,,,,,,,orange,cross
63.0,5.0,0.5,1.0,4.0,4.0,304.7492289915681,2.0,1.0,phase_1,,,,,,,,,,,,,white,circle
82.0,2.0,1.0,0.0,4.0,4.0,305.2959381602704,2.0,1.0,phase_1,,,,,,,,,,,,,magenta,I
0.0,4.0,0.0,0.0,4.0,4.0,362.3034274205565,2.0,1.0,phase_1,,,,,,,,,,,,,cyan,hexagon
0.0,3.0,0.0,0.0,4.0,4.0,283.6971809156239,2.0,1.0,phase_1,,,,,,,,,,,,,green,square
28.0,5.0,0.5,1.0,4.0,4.0,379.5717819593847,2.0,1.0,phase_1,,,,,,,,,,,,,white,circle
125.0,2.0,1.0,0.0,4.0,4.0,272.1182042732835,2.0,1.0,phase_1,,,,,,,,,,,,,magenta,I
69.0,5.0,0.5,1.0,3.0,3.0,346.8489139340818,2.0,1.0,phase_1,,,,,,,,,,,,,white,circle
421.0,8.0,4.0,1.0,4.0,4.0,349.394682329148,2.0,1.0,phase_1,,,,,,,,,,,,,orange,cross
208.0,7.0,2.0,1.0,4.0,4.0,331.0889671556651,2.0,1.0,phase_1,,,,,,,,,,,,,blue,triangle
384.0,4.0,4.0,0.0,3.0,3.0,288.9007572084665,2.0,1.0,phase_1,,,,,,,,,,,,,cyan,hexagon
85.0,2.0,1.0,0.0,1.0,1.0,340.8452677540481,2.0,1.0,phase_1,,,,,,,,,,,,,magenta,I
406.0,4.0,4.0,0.0,2.0,2.0,322.7479131892323,2.0,1.0,phase_1,,,,,,,,,,,,,cyan,hexagon
395.0,8.0,4.0,1.0,3.0,3.0,417.1905340626836,2.0,1.0,phase_1,,,,,,,,,,,,,orange,cross
0.0,4.0,0.0,0.0,1.0,1.0,458.2717330195009,2.0,1.0,phase_1,,,,,,,,,,,,,cyan,hexagon
407.0,8.0,4.0,1.0,4.0,4.0,416.4179568178952,2.0,1.0,phase_1,,,,,,,,,,,,,orange,cross
420.0,4.0,4.0,0.0,4.0,4.0,293.3725691400468,2.0,1.0,phase_1,,,,,,,,,,,,,cyan,hexagon
46.0,1.0,0.5,0.0,2.0,2.0,330.5906942114234,2.0,1.0,phase_1,,,,,,,,,,,,,gray,diamond
50.0,5.0,0.5,1.0,4.0,4.0,373.0688421055674,2.0,1.0,phase_1,,,,,,,,,,,,,white,circle
63.0,1.0,0.5,0.0,3.0,3.0,356.6557480953634,2.0,1.0,phase_1,,,,,,,,,,,,,gray,diamond
179.0,3.0,2.0,0.0,4.0,4.0,302.0774638280272,2.0,1.0,phase_1,,,,,,,,,,,,,green,square
0.0,1.0,0.0,0.0,3.0,3.0,322.8361150249839,2.0,1.0,phase_1,,,,,,,,,,,,,gray,diamond
387.0,4.0,4.0,0.0,3.0,3.0,304.119000211358,2.0,1.0,phase_1,,,,,,,,,,,,,cyan,hexagon
61.0,1.0,0.5,0.0,4.0,4.0,277.5682229548692,2.0,1.0,phase_1,,,,,,,,,,,,,gray,diamond
106.0,2.0,1.0,0.0,4.0,4.0,338.7288688682019,2.0,1.0,phase_1,,,,,,,,,,,,,magenta,I
423.0,8.0,4.0,1.0,4.0,4.0,341.4322528988123,2.0,1.0,phase_1,,,,,,,,,,,,,orange,cross
0.0,6.0,0.0,1.0,4.0,4.0,378.7948079407215,2.0,1.0,phase_1,,,,,,,,,,,,,yellow,flipped triangle
37.0,5.0,0.5,1.0,4.0,4.0,296.4760703034699,2.0,1.0,phase_1,,,,,,,,,,,,,white,circle
122.0,6.0,1.0,1.0,1.0,1.0,395.5356380902231,2.0,1.0,phase_1,,,,,,,,,,,,,yellow,flipped triangle
125.0,6.0,1.0,1.0,1.0,1.0,464.4430847838521,2.0,1.0,phase_1,,,,,,,,,,,,,yellow,flipped triangle
399.0,8.0,4.0,1.0,1.0,1.0,332.9217117279768,2.0,1.0,phase_1,,,,,,,,,,,,,orange,cross
38.0,5.0,0.5,1.0,2.0,2.0,305.311338044703,2.0,1.0,phase_1,,,,,,,,,,,,,white,circle
111.0,6.0,1.0,1.0,4.0,4.0,382.0701758377254,2.0,1.0,phase_1,,,,,,,,,,,,,yellow,flipped triangle
0.0,8.0,0.0,1.0,4.0,4.0,357.1996102109551,2.0,1.0,phase_1,,,,,,,,,,,,,orange,cross
420.0,8.0,4.0,1.0,2.0,2.0,482.2374396026134,2.0,1.0,phase_1,,,,,,,,,,,,,orange,cross
36.0,1.0,0.5,0.0,1.0,1.0,375.7028202526271,2.0,1.0,phase_1,,,,,,,,,,,,,gray,diamond
0.0,3.0,0.0,0.0,4.0,4.0,283.1298001110554,2.0,1.0,phase_1,,,,,,,,,,,,,green,square
95.0,6.0,1.0,1.0,4.0,4.0,375.6218096241355,2.0,1.0,phase_1,,,,,,,,,,,,,yellow,flipped triangle
206.0,7.0,2.0,1.0,4.0,4.0,302.0968358032405,2.0,1.0,phase_1,,,,,,,,,,,,,blue,triangle
402.0,4.0,4.0,0.0,4.0,4.0,310.6220262125134,2.0,1.0,phase_1,,,,,,,,,,,,,cyan,hexagon
125.0,6.0,1.0,1.0,4.0,4.0,419.8109051212668,2.0,1.0,phase_1,,,,,,,,,,,,,yellow,flipped triangle
0.0,2.0,0.0,0.0,1.0,1.0,538.6541062034667,2.0,1.0,phase_1,,,,,,,,,,,,,magenta,I
0.0,6.0,0.0,1.0,4.0,4.0,293.7589469365775,2.0,1.0,phase_1,,,,,,,,,,,,,yellow,flipped triangle
0.0,7.0,0.0,1.0,4.0,4.0,380.0017428584397,2.0,1.0,phase_1,,,,,,,,,,,,,blue,triangle
82.0,6.0,1.0,1.0,3.0,3.0,326.5474801883101,2.0,1.0,phase_1,,,,,,,,,,,,,yellow,flipped triangle
43.0,1.0,0.5,0.0,3.0,3.0,315.1938309893012,2.0,1.0,phase_1,,,,,,,,,,,,,gray,diamond
123.0,2.0,1.0,0.0,1.0,1.0,346.6663081198931,2.0,1.0,phase_1,,,,,,,,,,,,,magenta,I
88.0,2.0,1.0,0.0,2.0,2.0,429.1522051207721,2.0,1.0,phase_1,,,,,,,,,,,,,magenta,I
0.0,6.0,0.0,1.0,1.0,1.0,388.1749999709427,2.0,1.0,phase_1,,,,,,,,,,,,,yellow,flipped triangle
0.0,1.0,0.0,0.0,4.0,4.0,310.1623188704252,2.0,1.0,phase_1,,,,,,,,,,,,,gray,diamond
31.0,5.0,0.5,1.0,1.0,1.0,389.4840818829834,2.0,1.0,phase_1,,,,,,,,,,,,,white,circle
0.0,4.0,0.0,0.0,3.0,3.0,399.6422267518937,2.0,1.0,phase_1,,,,,,,,,,,,,cyan,hexagon
47.0,5.0,0.5,1.0,1.0,1.0,379.913283046335,2.0,1.0,phase_1,,,,,,,,,,,,,white,circle
0.0,5.0,0.0,1.0,4.0,4.0,355.1186807453632,2.0,1.0,phase_1,,,,,,,,,,,,,white,circle
384.0,8.0,4.0,1.0,3.0,3.0,472.5138321518898,2.0,1.0,phase_1,,,,,,,,,,,,,orange,cross
37.0,5.0,0.5,1.0,3.0,3.0,441.7461361736059,2.0,1.0,phase_1,,,,,,,,,,,,,white,circle
95.0,2.0,1.0,0.0,3.0,3.0,306.7191811278462,2.0,1.0,phase_1,,,,,,,,,,,,,magenta,I
379.0,8.0,4.0,1.0,1.0,1.0,476.3096128590405,2.0,1.0,phase_1,,,,,,,,,,,,,orange,cross
404.0,4.0,4.0,0.0,4.0,4.0,425.8768819272518,2.0,1.0,phase_1,,,,,,,,,,,,,cyan,hexagon
33.0,1.0,0.5,0.0,1.0,1.0,348.3568034134805,2.0,1.0,phase_1,,,,,,,,,,,,,gray,diamond
95.0,6.0,1.0,1.0,4.0,4.0,379.3581961654126,2.0,1.0,phase_1,,,,,,,,,,,,,yellow,flipped triangle
123.0,6.0,1.0,1.0,2.0,2.0,343.8348979689181,2.0,1.0,phase_1,,,,,,,,,,,,,yellow,flipped triangle
381.0,4.0,4.0,0.0,4.0,4.0,429.337000939995,2.0,1.0,phase_1,,,,,,,,,,,,,cyan,hexagon
184.0,3.0,2.0,0.0,3.0,3.0,425.5332741886377,2.0,1.0,phase_1,,,,,,,,,,,,,green,square
0.0,6.0,0.0,1.0,3.0,3.0,388.8064981438219,2.0,1.0,phase_1,,,,,,,,,,,,,yellow,flipped triangle
402.0,8.0,4.0,1.0,3.0,3.0,409.0777831152081,2.0,1.0,phase_1,,,,,,,,,,,,,orange,cross
77.0,2.0,1.0,0.0,2.0,2.0,493.0408094078302,2.0,1.0,phase_1,,,,,,,,,,,,,magenta,I
97.0,2.0,1.0,0.0,4.0,4.0,460.3427816182375,2.0,1.0,phase_1,,,,,,,,,,,,,magenta,I
124.0,6.0,1.0,1.0,1.0,1.0,359.4471518881619,2.0,1.0,phase_1,,,,,,,,,,,,,yellow,flipped triangle
216.0,7.0,2.0,1.0,2.0,2.0,335.3090090677142,2.0,1.0,phase_1,,,,,,,,,,,,,blue,triangle
36.0,5.0,0.5,1.0,3.0,3.0,561.6196440532804,2.0,1.0,phase_1,,,,,,,,,,,,,white,circle
222.0,7.0,2.0,1.0,3.0,3.0,455.3386382758617,2.0,1.0,phase_1,,,,,,,,,,,,,blue,triangle
70.0,1.0,0.5,0.0,2.0,2.0,450.4695609211921,2.0,1.0,phase_1,,,,,,,,,,,,,gray,diamond
67.0,1.0,0.5,0.0,2.0,2.0,325.7186361588537,2.0,1.0,phase_1,,,,,,,,,,,,,gray,diamond
59.0,1.0,0.5,0.0,4.0,4.0,326.1268422938883,2.0,1.0,phase_1,,,,,,,,,,,,,gray,diamond
29.0,5.0,0.5,1.0,1.0,1.0,521.8769642524421,2.0,1.0,phase_1,,,,,,,,,,,,,white,circle
185.0,3.0,2.0,0.0,2.0,2.0,430.9377670288086,2.0,1.0,phase_1,,,,,,,,,,,,,green,square
85.0,6.0,1.0,1.0,2.0,2.0,339.3696607090533,2.0,1.0,phase_1,,,,,,,,,,,,,yellow,flipped triangle
379.0,8.0,4.0,1.0,3.0,3.0,398.452500347048,2.0,1.0,phase_1,,,,,,,,,,,,,orange,cross
61.0,1.0,0.5,0.0,3.0,3.0,430.3819672204554,2.0,1.0,phase_1,,,,,,,,,,,,,gray,diamond
203.0,7.0,2.0,1.0,3.0,3.0,425.9835542179644,2.0,1.0,phase_1,,,,,,,,,,,,,blue,triangle
0.0,2.0,0.0,0.0,2.0,2.0,391.3899669423699,2.0,1.0,phase_1,,,,,,,,,,,,,magenta,I
408.0,4.0,4.0,0.0,2.0,2.0,288.5631788522005,2.0,1.0,phase_1,,,,,,,,,,,,,cyan,hexagon
179.0,7.0,2.0,1.0,4.0,4.0,493.1597108952701,2.0,1.0,phase_1,,,,,,,,,,,,,blue,triangle
43.0,1.0,0.5,0.0,2.0,2.0,481.46787378937,2.0,1.0,phase_1,,,,,,,,,,,,,gray,diamond
387.0,4.0,4.0,0.0,4.0,4.0,352.2646552883088,2.0,1.0,phase_1,,,,,,,,,,,,,cyan,hexagon
105.0,6.0,1.0,1.0,1.0,1.0,530.8762043714523,2.0,1.0,phase_1,,,,,,,,,,,,,yellow,flipped triangle
113.0,6.0,1.0,1.0,3.0,3.0,394.2085159942508,2.0,1.0,phase_1,,,,,,,,,,,,,yellow,flipped triangle
199.0,3.0,2.0,0.0,2.0,2.0,359.7161211073398,2.0,1.0,phase_1,,,,,,,,,,,,,green,square
48.0,1.0,0.5,0.0,2.0,2.0,633.548729121685,3.0,1.0,phase_1,,,,,,,,,,,,,gray,diamond
57.0,5.0,0.5,1.0,3.0,3.0,446.5950047597289,3.0,1.0,phase_1,,,,,,,,,,,,,white,circle
93.0,2.0,1.0,0.0,4.0,4.0,292.3265499994159,3.0,1.0,phase_1,,,,,,,,,,,,,magenta,I
0.0,2.0,0.0,0.0,2.0,2.0,269.7665067389607,3.0,1.0,phase_1,,,,,,,,,,,,,magenta,I
423.0,4.0,4.0,0.0,1.0,1.0,307.1866980753839,3.0,1.0,phase_1,,,,,,,,,,,,,cyan,hexagon
93.0,6.0,1.0,1.0,4.0,4.0,361.5728812292218,3.0,1.0,phase_1,,,,,,,,,,,,,yellow,flipped triangle
195.0,7.0,2.0,1.0,2.0,2.0,316.5076398290694,3.0,1.0,phase_1,,,,,,,,,,,,,blue,triangle
201.0,7.0,2.0,1.0,1.0,1.0,362.9805301316082,3.0,1.0,phase_1,,,,,,,,,,,,,blue,triangle
114.0,2.0,1.0,0.0,2.0,2.0,304.3522178195417,3.0,1.0,phase_1,,,,,,,,,,,,,magenta,I
0.0,5.0,0.0,1.0,1.0,1.0,308.8364396244287,3.0,1.0,phase_1,,,,,,,,,,,,,white,circle
180.0,3.0,2.0,0.0,1.0,1.0,329.0830901823938,3.0,1.0,phase_1,,,,,,,,,,,,,green,square
212.0,7.0,2.0,1.0,4.0,4.0,308.5467973724007,3.0,1.0,phase_1,,,,,,,,,,,,,blue,triangle
50.0,5.0,0.5,1.0,4.0,4.0,296.1692730896175,3.0,1.0,phase_1,,,,,,,,,,,,,white,circle
102.0,2.0,1.0,0.0,3.0,3.0,358.7636551819742,3.0,1.0,phase_1,,,,,,,,,,,,,magenta,I
87.0,6.0,1.0,1.0,3.0,3.0,404.7158779576421,3.0,1.0,phase_1,,,,,,,,,,,,,yellow,flipped triangle
33.0,5.0,0.5,1.0,3.0,3.0,337.0097712613642,3.0,1.0,phase_1,,,,,,,,,,,,,white,circle
33.0,1.0,0.5,0.0,4.0,4.0,301.496344152838,3.0,1.0,phase_1,,,,,,,,,,,,,gray,diamond
393.0,4.0,4.0,0.0,2.0,2.0,481.5166797488928,3.0,1.0,phase_1,,,,,,,,,,,,,cyan,hexagon
106.0,6.0,1.0,1.0,3.0,3.0,325.669954996556,3.0,1.0,phase_1,,,,,,,,,,,,,yellow,flipped triangle
37.0,1.0,0.5,0.0,3.0,3.0,337.2564800083637,3.0,1.0,phase_1,,,,,,,,,,,,,gray,diamond
191.0,3.0,2.0,0.0,2.0,2.0,373.697861097753,3.0,1.0,phase_1,,,,,,,,,,,,,green,square
100.0,2.0,1.0,0.0,2.0,2.0,300.617491826415,3.0,1.0,phase_1,,,,,,,,,,,,,magenta,I
0.0,5.0,0.0,1.0,2.0,2.0,406.9134900346398,3.0,1.0,phase_1,,,,,,,,,,,,,white,circle
91.0,2.0,1.0,0.0,2.0,2.0,294.5989961735904,3.0,1.0,phase_1,,,,,,,,,,,,,magenta,I
82.0,2.0,1.0,0.0,2.0,2.0,338.0041690543294,3.0,1.0,phase_1,,,,,,,,,,,,,magenta,I
64.0,5.0,0.5,1.0,4.0,4.0,341.4375479333102,3.0,1.0,phase_1,,,,,,,,,,,,,white,circle
411.0,4.0,4.0,0.0,2.0,2.0,353.7635668180883,3.0,1.0,phase_1,,,,,,,,,,,,,cyan,hexagon
214.0,3.0,2.0,0.0,3.0,3.0,520.2423217706382,3.0,1.0,phase_1,,,,,,,,,,,,,green,square
64.0,1.0,0.5,0.0,1.0,1.0,374.2263256572187,3.0,1.0,phase_1,,,,,,,,,,,,,gray,diamond
0.0,3.0,0.0,0.0,1.0,1.0,328.0973001383245,3.0,1.0,phase_1,,,,,,,,,,,,,green,square
0.0,8.0,0.0,1.0,3.0,3.0,340.2597522363066,3.0,1.0,phase_1,,,,,,,,,,,,,orange,cross
377.0,8.0,4.0,1.0,2.0,2.0,587.2687501832843,3.0,1.0,phase_1,,,,,,,,,,,,,orange,cross
86.0,2.0,1.0,0.0,4.0,4.0,280.8508011512458,3.0,1.0,phase_1,,,,,,,,,,,,,magenta,I
411.0,8.0,4.0,1.0,4.0,4.0,364.9810119532048,3.0,1.0,phase_1,,,,,,,,,,,,,orange,cross
109.0,6.0,1.0,1.0,4.0,4.0,271.7059701681137,3.0,1.0,phase_1,,,,,,,,,,,,,yellow,flipped triangle
186.0,7.0,2.0,1.0,2.0,2.0,291.9087680056691,3.0,1.0,phase_1,,,,,,,,,,,,,blue,triangle
102.0,6.0,1.0,1.0,3.0,3.0,313.1661689840257,3.0,1.0,phase_1,,,,,,,,,,,,,yellow,flipped triangle
217.0,3.0,2.0,0.0,1.0,1.0,279.0435827337205,3.0,1.0,phase_1,,,,,,,,,,,,,green,square
411.0,8.0,4.0,1.0,3.0,3.0,369.721058756113,3.0,1.0,phase_1,,,,,,,,,,,,,orange,cross
0.0,3.0,0.0,0.0,4.0,4.0,262.9237440414727,3.0,1.0,phase_1,,,,,,,,,,,,,green,square
89.0,2.0,1.0,0.0,1.0,1.0,443.0053043179214,3.0,1.0,phase_1,,,,,,,,,,,,,magenta,I
75.0,2.0,1.0,0.0,1.0,1.0,395.8259280771017,3.0,1.0,phase_1,,,,,,,,,,,,,magenta,I
117.0,2.0,1.0,0.0,1.0,1.0,344.3768913857639,3.0,1.0,phase_1,,,,,,,,,,,,,magenta,I
223.0,3.0,2.0,0.0,4.0,4.0,425.7558509707451,3.0,1.0,phase_1,,,,,,,,,,,,,green,square
0.0,3.0,0.0,0.0,4.0,4.0,296.6166376136243,3.0,1.0,phase_1,,,,,,,,,,,,,green,square
0.0,7.0,0.0,1.0,1.0,1.0,501.5129391103983,3.0,1.0,phase_1,,,,,,,,,,,,,blue,triangle
199.0,7.0,2.0,1.0,1.0,1.0,387.446871958673,3.0,1.0,phase_1,,,,,,,,,,,,,blue,triangle
206.0,3.0,2.0,0.0,1.0,1.0,292.2459333203733,3.0,1.0,phase_1,,,,,,,,,,,,,green,square
405.0,8.0,4.0,1.0,3.0,3.0,563.6953469365835,3.0,1.0,phase_1,,,,,,,,,,,,,orange,cross
72.0,5.0,0.5,1.0,3.0,3.0,357.5142649933696,3.0,1.0,phase_1,,,,,,,,,,,,,white,circle
0.0,7.0,0.0,1.0,3.0,3.0,349.351005628705,3.0,1.0,phase_1,,,,,,,,,,,,,blue,triangle
205.0,3.0,2.0,0.0,1.0,1.0,312.4441970139742,3.0,1.0,phase_1,,,,,,,,,,,,,green,square
420.0,4.0,4.0,0.0,3.0,3.0,470.3919771127403,3.0,1.0,phase_1,,,,,,,,,,,,,cyan,hexagon
76.0,2.0,1.0,0.0,3.0,3.0,320.3135780058801,3.0,1.0,phase_1,,,,,,,,,,,,,magenta,I
406.0,8.0,4.0,1.0,1.0,1.0,312.1469561010599,3.0,1.0,phase_1,,,,,,,,,,,,,orange,cross
70.0,1.0,0.5,0.0,2.0,2.0,337.9554031416774,3.0,1.0,phase_1,,,,,,,,,,,,,gray,diamond
186.0,3.0,2.0,0.0,4.0,4.0,329.2891229502857,3.0,1.0,phase_1,,,,,,,,,,,,,green,square
185.0,7.0,2.0,1.0,1.0,1.0,299.3918219581246,3.0,1.0,phase_1,,,,,,,,,,,,,blue,triangle
47.0,5.0,0.5,1.0,2.0,2.0,488.3979596197605,3.0,1.0,phase_1,,,,,,,,,,,,,white,circle
99.0,6.0,1.0,1.0,2.0,2.0,333.1119390204549,3.0,1.0,phase_1,,,,,,,,,,,,,yellow,flipped triangle
37.0,1.0,0.5,0.0,3.0,3.0,339.9786110967397,3.0,1.0,phase_1,,,,,,,,,,,,,gray,diamond
87.0,2.0,1.0,0.0,1.0,1.0,304.4359320774674,3.0,1.0,phase_1,,,,,,,,,,,,,magenta,I
208.0,3.0,2.0,0.0,1.0,1.0,299.3466919288039,3.0,1.0,phase_1,,,,,,,,,,,,,green,square
29.0,1.0,0.5,0.0,3.0,3.0,297.403410077095,3.0,1.0,phase_1,,,,,,,,,,,,,gray,diamond
125.0,2.0,1.0,0.0,3.0,3.0,383.4871184080839,3.0,1.0,phase_1,,,,,,,,,,,,,magenta,I
66.0,5.0,0.5,1.0,2.0,2.0,354.1625146754086,3.0,1.0,phase_1,,,,,,,,,,,,,white,circle
395.0,4.0,4.0,0.0,3.0,3.0,312.3678117990494,3.0,1.0,phase_1,,,,,,,,,,,,,cyan,hexagon
388.0,8.0,4.0,1.0,4.0,4.0,378.0240840278566,3.0,1.0,phase_1,,,,,,,,,,,,,orange,cross
181.0,3.0,2.0,0.0,3.0,3.0,358.8603623211384,3.0,1.0,phase_1,,,,,,,,,,,,,green,square
0.0,7.0,0.0,1.0,1.0,1.0,303.0588640831411,3.0,1.0,phase_1,,,,,,,,,,,,,blue,triangle
201.0,3.0,2.0,0.0,3.0,3.0,279.8406169749796,3.0,1.0,phase_1,,,,,,,,,,,,,green,square
0.0,8.0,0.0,1.0,4.0,4.0,567.39860214293,3.0,1.0,phase_1,,,,,,,,,,,,,orange,cross
0.0,3.0,0.0,0.0,1.0,1.0,338.001858908683,3.0,1.0,phase_1,,,,,,,,,,,,,green,square
0.0,8.0,0.0,1.0,4.0,4.0,433.6559912189841,3.0,1.0,phase_1,,,,,,,,,,,,,orange,cross
222.0,7.0,2.0,1.0,3.0,3.0,340.6036631204188,3.0,1.0,phase_1,,,,,,,,,,,,,blue,triangle
0.0,5.0,0.0,1.0,2.0,2.0,338.77811022102827,3.0,1.0,phase_1,,,,,,,,,,,,,white,circle
0.0,5.0,0.0,1.0,3.0,3.0,341.4685539901256,3.0,1.0,phase_1,,,,,,,,,,,,,white,circle
59.0,5.0,0.5,1.0,1.0,1.0,465.2633899822831,3.0,1.0,phase_1,,,,,,,,,,,,,white,circle
106.0,2.0,1.0,0.0,3.0,3.0,326.1061902157962,3.0,1.0,phase_1,,,,,,,,,,,,,magenta,I
102.0,2.0,1.0,0.0,1.0,1.0,283.6031652987003,3.0,1.0,phase_1,,,,,,,,,,,,,magenta,I
50.0,1.0,0.5,0.0,1.0,1.0,344.6856020018458,3.0,1.0,phase_1,,,,,,,,,,,,,gray,diamond
217.0,7.0,2.0,1.0,2.0,2.0,563.3936896920204,3.0,1.0,phase_1,,,,,,,,,,,,,blue,triangle
411.0,4.0,4.0,0.0,2.0,2.0,443.0974111892283,3.0,1.0,phase_1,,,,,,,,,,,,,cyan,hexagon
201.0,7.0,2.0,1.0,2.0,2.0,367.0632732100785,3.0,1.0,phase_1,,,,,,,,,,,,,blue,triangle
40.0,1.0,0.5,0.0,3.0,3.0,586.8718386627734,3.0,1.0,phase_1,,,,,,,,,,,,,gray,diamond
105.0,2.0,1.0,0.0,1.0,1.0,661.8586778640747,3.0,1.0,phase_1,,,,,,,,,,,,,magenta,I
189.0,3.0,2.0,0.0,4.0,4.0,749.9519349075854,3.0,1.0,phase_1,,,,,,,,,,,,,green,square
38.0,1.0,0.5,0.0,2.0,2.0,329.0433380752802,3.0,1.0,phase_1,,,,,,,,,,,,,gray,diamond
91.0,6.0,1.0,1.0,2.0,2.0,292.0355796813965,3.0,1.0,phase_1,,,,,,,,,,,,,yellow,flipped triangle
102.0,6.0,1.0,1.0,1.0,1.0,363.5189831256866,3.0,1.0,phase_1,,,,,,,,,,,,,yellow,flipped triangle
389.0,4.0,4.0,0.0,2.0,2.0,408.8299856521189,3.0,1.0,phase_1,,,,,,,,,,,,,cyan,hexagon
218.0,7.0,2.0,1.0,4.0,4.0,275.1763951964676,3.0,1.0,phase_1,,,,,,,,,,,,,blue,triangle
103.0,2.0,1.0,0.0,1.0,1.0,361.7098401300609,3.0,1.0,phase_1,,,,,,,,,,,,,magenta,I
0.0,7.0,0.0,1.0,2.0,2.0,275.7051279768348,3.0,1.0,phase_1,,,,,,,,,,,,,blue,triangle
0.0,2.0,0.0,0.0,2.0,2.0,393.9400888048112,3.0,1.0,phase_1,,,,,,,,,,,,,magenta,I
109.0,2.0,1.0,0.0,3.0,3.0,296.7930966988206,3.0,1.0,phase_1,,,,,,,,,,,,,magenta,I
28.0,1.0,0.5,0.0,1.0,1.0,411.915629170835,3.0,1.0,phase_1,,,,,,,,,,,,,gray,diamond
109.0,2.0,1.0,0.0,3.0,3.0,304.8047120682895,3.0,1.0,phase_1,,,,,,,,,,,,,magenta,I
203.0,3.0,2.0,0.0,2.0,2.0,275.3733298741281,3.0,1.0,phase_1,,,,,,,,,,,,,green,square
122.0,2.0,1.0,0.0,4.0,4.0,312.6441617496311,3.0,1.0,phase_1,,,,,,,,,,,,,magenta,I
113.0,2.0,1.0,0.0,2.0,2.0,428.0557003803551,4.0,1.0,phase_1,,,,,,,,,,,,,magenta,I
100.0,6.0,1.0,1.0,2.0,2.0,296.7056459747255,4.0,1.0,phase_1,,,,,,,,,,,,,yellow,flipped triangle
70.0,5.0,0.5,1.0,4.0,4.0,358.1464001908898,4.0,1.0,phase_1,,,,,,,,,,,,,white,circle
194.0,7.0,2.0,1.0,3.0,3.0,316.8843137100339,4.0,1.0,phase_1,,,,,,,,,,,,,blue,triangle
100.0,2.0,1.0,0.0,2.0,2.0,337.985685095191,4.0,1.0,phase_1,,,,,,,,,,,,,magenta,I
0.0,8.0,0.0,1.0,1.0,1.0,291.6462128050625,4.0,1.0,phase_1,,,,,,,,,,,,,orange,cross
68.0,5.0,0.5,1.0,2.0,2.0,387.2713251039386,4.0,1.0,phase_1,,,,,,,,,,,,,white,circle
210.0,7.0,2.0,1.0,3.0,3.0,343.8414530828595,4.0,1.0,phase_1,,,,,,,,,,,,,blue,triangle
409.0,4.0,4.0,0.0,1.0,1.0,283.6561892181635,4.0,1.0,phase_1,,,,,,,,,,,,,cyan,hexagon
396.0,4.0,4.0,0.0,3.0,3.0,306.0296871699393,4.0,1.0,phase_1,,,,,,,,,,,,,cyan,hexagon
0.0,7.0,0.0,1.0,3.0,3.0,356.9132480770349,4.0,1.0,phase_1,,,,,,,,,,,,,blue,triangle
413.0,4.0,4.0,0.0,1.0,1.0,353.5175649449229,4.0,1.0,phase_1,,,,,,,,,,,,,cyan,hexagon
26.0,1.0,0.5,0.0,4.0,4.0,416.1025607027113,4.0,1.0,phase_1,,,,,,,,,,,,,gray,diamond
68.0,1.0,0.5,0.0,4.0,4.0,333.0990630201995,4.0,1.0,phase_1,,,,,,,,,,,,,gray,diamond
417.0,4.0,4.0,0.0,2.0,2.0,424.9157048761844,4.0,1.0,phase_1,,,,,,,,,,,,,cyan,hexagon
0.0,7.0,0.0,1.0,4.0,4.0,341.9477599672973,4.0,1.0,phase_1,,,,,,,,,,,,,blue,triangle
0.0,6.0,0.0,1.0,3.0,3.0,362.6589039340615,4.0,1.0,phase_1,,,,,,,,,,,,,yellow,flipped triangle
407.0,4.0,4.0,0.0,2.0,2.0,415.8158553764224,4.0,1.0,phase_1,,,,,,,,,,,,,cyan,hexagon
210.0,7.0,2.0,1.0,4.0,4.0,419.4647846743464,4.0,1.0,phase_1,,,,,,,,,,,,,blue,triangle
408.0,8.0,4.0,1.0,3.0,3.0,398.2678791508078,4.0,1.0,phase_1,,,,,,,,,,,,,orange,cross
0.0,2.0,0.0,0.0,1.0,1.0,354.2380109429359,4.0,1.0,phase_1,,,,,,,,,,,,,magenta,I
112.0,6.0,1.0,1.0,4.0,4.0,361.5669356659055,4.0,1.0,phase_1,,,,,,,,,,,,,yellow,flipped triangle
214.0,7.0,2.0,1.0,1.0,1.0,390.0195485912263,4.0,1.0,phase_1,,,,,,,,,,,,,blue,triangle
210.0,3.0,2.0,0.0,4.0,4.0,419.9401717633009,4.0,1.0,phase_1,,,,,,,,,,,,,green,square
46.0,1.0,0.5,0.0,1.0,1.0,284.6351759508252,4.0,1.0,phase_1,,,,,,,,,,,,,gray,diamond
31.0,1.0,0.5,0.0,2.0,2.0,499.5809393003583,4.0,1.0,phase_1,,,,,,,,,,,,,gray,diamond
84.0,2.0,1.0,0.0,3.0,3.0,353.9088126271963,4.0,1.0,phase_1,,,,,,,,,,,,,magenta,I
189.0,3.0,2.0,0.0,1.0,1.0,478.2721470110118,4.0,1.0,phase_1,,,,,,,,,,,,,green,square
201.0,3.0,2.0,0.0,1.0,1.0,400.5748829804361,4.0,1.0,phase_1,,,,,,,,,,,,,green,square
74.0,1.0,0.5,0.0,1.0,1.0,384.2283259145915,4.0,1.0,phase_1,,,,,,,,,,,,,gray,diamond
0.0,6.0,0.0,1.0,3.0,3.0,489.4555071368813,4.0,1.0,phase_1,,,,,,,,,,,,,yellow,flipped triangle
93.0,6.0,1.0,1.0,3.0,3.0,384.9302851594984,4.0,1.0,phase_1,,,,,,,,,,,,,yellow,flipped triangle
223.0,7.0,2.0,1.0,2.0,2.0,593.9769470132887,4.0,1.0,phase_1,,,,,,,,,,,,,blue,triangle
382.0,8.0,4.0,1.0,1.0,1.0,353.4970059990883,4.0,1.0,phase_1,,,,,,,,,,,,,orange,cross
182.0,3.0,2.0,0.0,1.0,1.0,316.0212016664445,4.0,1.0,phase_1,,,,,,,,,,,,,green,square
0.0,3.0,0.0,0.0,2.0,2.0,283.3113549277186,4.0,1.0,phase_1,,,,,,,,,,,,,green,square
379.0,4.0,4.0,0.0,2.0,2.0,437.0931577868759,4.0,1.0,phase_1,,,,,,,,,,,,,cyan,hexagon
418.0,4.0,4.0,0.0,4.0,4.0,420.6447447650134,4.0,1.0,phase_1,,,,,,,,,,,,,cyan,hexagon
184.0,7.0,2.0,1.0,1.0,1.0,862.3633161187172,4.0,1.0,phase_1,,,,,,,,,,,,,blue,triangle
0.0,4.0,0.0,0.0,4.0,4.0,435.3299201466143,4.0,1.0,phase_1,,,,,,,,,,,,,cyan,hexagon
177.0,7.0,2.0,1.0,3.0,3.0,402.5405021384358,4.0,1.0,phase_1,,,,,,,,,,,,,blue,triangle
0.0,1.0,0.0,0.0,1.0,1.0,550.5464668385684,4.0,1.0,phase_1,,,,,,,,,,,,,gray,diamond
34.0,5.0,0.5,1.0,2.0,2.0,403.5198697820306,4.0,1.0,phase_1,,,,,,,,,,,,,white,circle
44.0,5.0,0.5,1.0,4.0,4.0,324.3108359165489,4.0,2.0,phase_1,,,,,,,,,,,,,white,circle
77.0,6.0,1.0,1.0,3.0,3.0,418.1758142076432,4.0,1.0,phase_1,,,,,,,,,,,,,yellow,flipped triangle
69.0,1.0,0.5,0.0,3.0,3.0,366.5723162703216,4.0,1.0,phase_1,,,,,,,,,,,,,gray,diamond
0.0,1.0,0.0,0.0,1.0,1.0,500.60753896832466,4.0,1.0,phase_1,,,,,,,,,,,,,gray,diamond
0.0,8.0,0.0,1.0,3.0,3.0,325.8368265815079,4.0,1.0,phase_1,,,,,,,,,,,,,orange,cross
76.0,6.0,1.0,1.0,2.0,2.0,322.9139177128672,4.0,1.0,phase_1,,,,,,,,,,,,,yellow,flipped triangle
217.0,7.0,2.0,1.0,2.0,2.0,431.3477459363639,4.0,1.0,phase_1,,,,,,,,,,,,,blue,triangle
75.0,6.0,1.0,1.0,1.0,1.0,291.1135358735919,4.0,1.0,phase_1,,,,,,,,,,,,,yellow,flipped triangle
111.0,2.0,1.0,0.0,2.0,2.0,313.0030706524849,4.0,1.0,phase_1,,,,,,,,,,,,,magenta,I
100.0,6.0,1.0,1.0,2.0,2.0,415.9382698126137,4.0,1.0,phase_1,,,,,,,,,,,,,yellow,flipped triangle
95.0,2.0,1.0,0.0,4.0,4.0,293.0409209802747,4.0,1.0,phase_1,,,,,,,,,,,,,magenta,I
0.0,7.0,0.0,1.0,2.0,2.0,585.6430330313742,4.0,1.0,phase_1,,,,,,,,,,,,,blue,triangle
89.0,6.0,1.0,1.0,3.0,3.0,915.9323386847972,4.0,1.0,phase_1,,,,,,,,,,,,,yellow,flipped triangle
220.0,3.0,2.0,0.0,3.0,3.0,559.8317929543555,4.0,1.0,phase_1,,,,,,,,,,,,,green,square
0.0,4.0,0.0,0.0,4.0,4.0,526.0216272436082,4.0,1.0,phase_1,,,,,,,,,,,,,cyan,hexagon
100.0,2.0,1.0,0.0,3.0,3.0,842.9459151811898,4.0,1.0,phase_1,,,,,,,,,,,,,magenta,I
0.0,4.0,0.0,0.0,4.0,4.0,344.7283860296011,4.0,1.0,phase_1,,,,,,,,,,,,,cyan,hexagon
210.0,3.0,2.0,0.0,3.0,3.0,316.1652931012213,4.0,1.0,phase_1,,,,,,,,,,,,,green,square
75.0,5.0,0.5,1.0,3.0,3.0,528.6956639029086,4.0,1.0,phase_1,,,,,,,,,,,,,white,circle
26.0,5.0,0.5,1.0,1.0,1.0,660.7915861532092,4.0,1.0,phase_1,,,,,,,,,,,,,white,circle
33.0,5.0,0.5,1.0,2.0,2.0,353.5583736374974,4.0,1.0,phase_1,,,,,,,,,,,,,white,circle
390.0,8.0,4.0,1.0,1.0,1.0,333.3333590999245,4.0,1.0,phase_1,,,,,,,,,,,,,orange,cross
396.0,8.0,4.0,1.0,2.0,2.0,530.8278817683458,4.0,1.0,phase_1,,,,,,,,,,,,,orange,cross
61.0,5.0,0.5,1.0,2.0,2.0,366.1387600004673,4.0,1.0,phase_1,,,,,,,,,,,,,white,circle
413.0,8.0,4.0,1.0,1.0,1.0,597.685290966183,4.0,1.0,phase_1,,,,,,,,,,,,,orange,cross
411.0,8.0,4.0,1.0,2.0,2.0,657.7073759399354,4.0,1.0,phase_1,,,,,,,,,,,,,orange,cross
177.0,3.0,2.0,0.0,2.0,2.0,383.6637940257787,4.0,1.0,phase_1,,,,,,,,,,,,,green,square
0.0,2.0,0.0,0.0,1.0,1.0,313.13147582113737,4.0,1.0,phase_1,,,,,,,,,,,,,magenta,I
0.0,8.0,0.0,1.0,1.0,1.0,398.3993190340698,4.0,1.0,phase_1,,,,,,,,,,,,,orange,cross
392.0,8.0,4.0,1.0,1.0,1.0,954.8147139139472,4.0,1.0,phase_1,,,,,,,,,,,,,orange,cross
189.0,7.0,2.0,1.0,1.0,1.0,659.8374466411769,4.0,1.0,phase_1,,,,,,,,,,,,,blue,triangle
383.0,4.0,4.0,0.0,1.0,1.0,276.4097452163696,4.0,1.0,phase_1,,,,,,,,,,,,,cyan,hexagon
0.0,2.0,0.0,0.0,4.0,4.0,346.4893000200391,4.0,1.0,phase_1,,,,,,,,,,,,,magenta,I
112.0,2.0,1.0,0.0,4.0,4.0,281.326700001955,4.0,1.0,phase_1,,,,,,,,,,,,,magenta,I
0.0,1.0,0.0,0.0,1.0,1.0,423.5046827234328,4.0,2.0,phase_1,,,,,,,,,,,,,gray,diamond
389.0,8.0,4.0,1.0,3.0,3.0,367.5580602139234,4.0,1.0,phase_1,,,,,,,,,,,,,orange,cross
84.0,6.0,1.0,1.0,2.0,2.0,907.7007062733172,4.0,1.0,phase_1,,,,,,,,,,,,,yellow,flipped triangle
82.0,6.0,1.0,1.0,3.0,3.0,516.7064247652888,4.0,1.0,phase_1,,,,,,,,,,,,,yellow,flipped triangle
379.0,4.0,4.0,0.0,3.0,3.0,324.5047046802938,4.0,1.0,phase_1,,,,,,,,,,,,,cyan,hexagon
194.0,7.0,2.0,1.0,1.0,1.0,481.5635569393635,4.0,1.0,phase_1,,,,,,,,,,,,,blue,triangle
74.0,5.0,0.5,1.0,1.0,1.0,315.0923470966518,4.0,1.0,phase_1,,,,,,,,,,,,,white,circle
97.0,6.0,1.0,1.0,1.0,1.0,737.8623867407441,4.0,1.0,phase_1,,,,,,,,,,,,,yellow,flipped triangle
0.0,6.0,0.0,1.0,3.0,3.0,410.8937699347734,4.0,2.0,phase_1,,,,,,,,,,,,,yellow,flipped triangle
214.0,3.0,2.0,0.0,4.0,4.0,463.5632708668709,4.0,1.0,phase_1,,,,,,,,,,,,,green,square
91.0,6.0,1.0,1.0,4.0,4.0,404.0534608066082,4.0,1.0,phase_1,,,,,,,,,,,,,yellow,flipped triangle
207.0,7.0,2.0,1.0,4.0,4.0,497.8333269245922,4.0,1.0,phase_1,,,,,,,,,,,,,blue,triangle
222.0,3.0,2.0,0.0,2.0,2.0,808.6203159764409,4.0,2.0,phase_1,,,,,,,,,,,,,green,square
404.0,8.0,4.0,1.0,3.0,3.0,345.2759012579918,4.0,1.0,phase_1,,,,,,,,,,,,,orange,cross
194.0,3.0,2.0,0.0,4.0,4.0,345.7261594012379,4.0,1.0,phase_1,,,,,,,,,,,,,green,square
0.0,1.0,0.0,0.0,2.0,2.0,321.6379308141768,4.0,1.0,phase_1,,,,,,,,,,,,,gray,diamond
50.0,1.0,0.5,0.0,1.0,1.0,371.0591681301594,4.0,1.0,phase_1,,,,,,,,,,,,,gray,diamond
207.0,3.0,2.0,0.0,2.0,2.0,490.7474848441779,4.0,1.0,phase_1,,,,,,,,,,,,,green,square
43.0,5.0,0.5,1.0,3.0,3.0,482.8691519796848,4.0,2.0,phase_1,,,,,,,,,,,,,white,circle
0.0,1.0,0.0,0.0,1.0,1.0,416.6561979800463,4.0,1.0,phase_1,,,,,,,,,,,,,gray,diamond
106.0,6.0,1.0,1.0,3.0,3.0,509.14894696325064,4.0,1.0,phase_1,,,,,,,,,,,,,yellow,flipped triangle
70.0,5.0,0.5,1.0,1.0,1.0,366.7231970466673,4.0,2.0,phase_1,,,,,,,,,,,,,white,circle
93.0,2.0,1.0,0.0,4.0,4.0,600.8138130418956,4.0,1.0,phase_1,,,,,,,,,,,,,magenta,I
0.0,1.0,0.5,0.0,6.0,6.0,639.7259309887886,1.0,1.0,phase_2,go,250.0,250.0,1.0,,,,,,,,,gray,diamond
0.0,2.0,1.0,0.0,6.0,6.0,348.7228588201105,1.0,1.0,phase_2,go,250.0,250.0,1.0,,,,,,,,,magenta,I
0.0,2.0,1.0,0.0,5.0,5.0,322.8659708984196,1.0,1.0,phase_2,go,250.0,250.0,1.0,,,,,,,,,magenta,I
0.0,3.0,2.0,0.0,5.0,5.0,325.6033197976649,1.0,1.0,phase_2,go,250.0,250.0,1.0,,,,,,,,,green,square
0.0,5.0,0.5,1.0,6.0,0.0,0.0,1.0,1.0,phase_2,stop,250.0,250.0,4.0,,,,,,,,,white,circle
0.0,8.0,4.0,1.0,5.0,5.0,305.7711110450327,1.0,1.0,phase_2,stop,250.0,300.0,3.0,,,,,,,,,orange,cross
0.0,7.0,2.0,1.0,6.0,6.0,379.1929078288376,1.0,1.0,phase_2,stop,200.0,300.0,3.0,,,,,,,,,blue,triangle
0.0,1.0,0.5,0.0,5.0,5.0,393.498005811125,1.0,1.0,phase_2,go,200.0,250.0,1.0,,,,,,,,,gray,diamond
0.0,6.0,1.0,1.0,6.0,6.0,336.1009233631193,1.0,1.0,phase_2,stop,200.0,250.0,3.0,,,,,,,,,yellow,flipped triangle
0.0,6.0,1.0,1.0,5.0,0.0,0.0,1.0,1.0,phase_2,stop,200.0,200.0,4.0,,,,,,,,,yellow,flipped triangle
0.0,3.0,2.0,0.0,5.0,5.0,520.9953212179244,1.0,1.0,phase_2,go,250.0,200.0,1.0,,,,,,,,,green,square
0.0,7.0,2.0,1.0,6.0,0.0,0.0,1.0,1.0,phase_2,stop,250.0,200.0,4.0,,,,,,,,,blue,triangle
0.0,6.0,1.0,1.0,5.0,5.0,404.944728128612,1.0,1.0,phase_2,go,250.0,250.0,1.0,,,,,,,,,yellow,flipped triangle
0.0,6.0,1.0,1.0,5.0,5.0,350.6000321358442,1.0,1.0,phase_2,stop,250.0,250.0,3.0,,,,,,,,,yellow,flipped triangle
0.0,5.0,0.5,1.0,5.0,5.0,622.1683826297522,1.0,1.0,phase_2,go,200.0,250.0,1.0,,,,,,,,,white,circle
0.0,3.0,2.0,0.0,5.0,5.0,389.2024597153067,1.0,1.0,phase_2,go,200.0,250.0,1.0,,,,,,,,,green,square
0.0,5.0,0.5,1.0,6.0,6.0,332.850509788841,1.0,1.0,phase_2,stop,200.0,250.0,3.0,,,,,,,,,white,circle
0.0,2.0,1.0,0.0,5.0,5.0,434.4562902115285,1.0,1.0,phase_2,go,200.0,200.0,1.0,,,,,,,,,magenta,I
0.0,5.0,0.5,1.0,5.0,5.0,379.8635909333825,1.0,1.0,phase_2,stop,200.0,200.0,3.0,,,,,,,,,white,circle
0.0,3.0,2.0,0.0,5.0,5.0,609.0103732421994,1.0,1.0,phase_2,go,150.0,200.0,1.0,,,,,,,,,green,square
0.0,4.0,4.0,0.0,6.0,6.0,628.0158068984747,1.0,1.0,phase_2,go,150.0,200.0,1.0,,,,,,,,,cyan,hexagon
0.0,5.0,0.5,1.0,6.0,0.0,0.0,1.0,1.0,phase_2,stop,150.0,200.0,4.0,,,,,,,,,white,circle
0.0,4.0,4.0,0.0,6.0,6.0,471.6846332885325,1.0,1.0,phase_2,go,150.0,250.0,1.0,,,,,,,,,cyan,hexagon
0.0,2.0,1.0,0.0,5.0,5.0,518.9745556563139,1.0,1.0,phase_2,go,150.0,250.0,1.0,,,,,,,,,magenta,I
0.0,1.0,0.5,0.0,6.0,6.0,449.4159510359168,1.0,1.0,phase_2,go,150.0,250.0,1.0,,,,,,,,,gray,diamond
0.0,2.0,1.0,0.0,6.0,6.0,409.1260489076376,1.0,1.0,phase_2,go,150.0,250.0,1.0,,,,,,,,,magenta,I
0.0,1.0,0.5,0.0,5.0,5.0,296.3003730401397,1.0,1.0,phase_2,go,150.0,250.0,1.0,,,,,,,,,gray,diamond
0.0,3.0,2.0,0.0,5.0,5.0,456.855793017894,1.0,1.0,phase_2,go,150.0,250.0,1.0,,,,,,,,,green,square
0.0,5.0,0.5,1.0,5.0,0.0,0.0,1.0,1.0,phase_2,stop,150.0,250.0,4.0,,,,,,,,,white,circle
0.0,5.0,0.5,1.0,6.0,0.0,0.0,1.0,1.0,phase_2,stop,200.0,250.0,4.0,,,,,,,,,white,circle
0.0,1.0,0.5,0.0,5.0,5.0,429.6189523302018,1.0,1.0,phase_2,go,200.0,300.0,1.0,,,,,,,,,gray,diamond
0.0,8.0,4.0,1.0,5.0,5.0,565.9809121862054,1.0,1.0,phase_2,go,200.0,300.0,1.0,,,,,,,,,orange,cross
0.0,2.0,1.0,0.0,6.0,6.0,385.6208818033337,1.0,1.0,phase_2,go,200.0,300.0,1.0,,,,,,,,,magenta,I
0.0,6.0,1.0,1.0,6.0,6.0,436.2956900149584,1.0,1.0,phase_2,stop,200.0,300.0,3.0,,,,,,,,,yellow,flipped triangle
0.0,3.0,2.0,0.0,5.0,5.0,585.7146522030234,1.0,1.0,phase_2,go,200.0,250.0,1.0,,,,,,,,,green,square
0.0,3.0,2.0,0.0,6.0,6.0,552.820990793407,1.0,1.0,phase_2,go,200.0,250.0,1.0,,,,,,,,,green,square
0.0,4.0,4.0,0.0,5.0,5.0,792.1394747681916,2.0,1.0,phase_2,go,200.0,250.0,1.0,,,,,,,,,cyan,hexagon
0.0,6.0,1.0,1.0,6.0,6.0,432.084840722382,2.0,1.0,phase_2,stop,200.0,250.0,3.0,,,,,,,,,yellow,flipped triangle
0.0,7.0,2.0,1.0,5.0,0.0,0.0,2.0,1.0,phase_2,stop,200.0,200.0,4.0,,,,,,,,,blue,triangle
0.0,2.0,1.0,0.0,6.0,6.0,429.9364816397428,2.0,1.0,phase_2,go,250.0,200.0,1.0,,,,,,,,,magenta,I
0.0,7.0,2.0,1.0,6.0,0.0,0.0,2.0,1.0,phase_2,stop,250.0,200.0,4.0,,,,,,,,,blue,triangle
0.0,8.0,4.0,1.0,5.0,0.0,0.0,2.0,1.0,phase_2,stop,250.0,250.0,4.0,,,,,,,,,orange,cross
0.0,5.0,0.5,1.0,5.0,0.0,0.0,2.0,1.0,phase_2,stop,300.0,250.0,4.0,,,,,,,,,white,circle
0.0,3.0,2.0,0.0,5.0,5.0,609.2811641283333,2.0,1.0,phase_2,go,350.0,250.0,1.0,,,,,,,,,green,square
0.0,4.0,4.0,0.0,6.0,6.0,473.5809406265616,2.0,1.0,phase_2,go,350.0,250.0,1.0,,,,,,,,,cyan,hexagon
0.0,2.0,1.0,0.0,5.0,5.0,307.0114040747285,2.0,1.0,phase_2,go,350.0,250.0,1.0,,,,,,,,,magenta,I
0.0,6.0,1.0,1.0,6.0,6.0,362.5074620358646,2.0,1.0,phase_2,stop,350.0,250.0,3.0,,,,,,,,,yellow,flipped triangle
0.0,6.0,1.0,1.0,5.0,5.0,418.3409148827195,2.0,1.0,phase_2,stop,350.0,200.0,3.0,,,,,,,,,yellow,flipped triangle
0.0,2.0,1.0,0.0,5.0,5.0,425.7862269878387,2.0,1.0,phase_2,go,300.0,200.0,1.0,,,,,,,,,magenta,I
0.0,7.0,2.0,1.0,5.0,5.0,337.2891936451196,2.0,1.0,phase_2,stop,300.0,200.0,3.0,,,,,,,,,blue,triangle
0.0,5.0,0.5,1.0,6.0,0.0,0.0,2.0,1.0,phase_2,stop,250.0,200.0,4.0,,,,,,,,,white,circle
0.0,7.0,2.0,1.0,5.0,0.0,0.0,2.0,1.0,phase_2,stop,250.0,250.0,4.0,,,,,,,,,blue,triangle
0.0,8.0,4.0,1.0,5.0,5.0,453.1577341258526,2.0,1.0,phase_2,go,300.0,250.0,1.0,,,,,,,,,orange,cross
0.0,2.0,1.0,0.0,5.0,5.0,407.0187383331358,2.0,1.0,phase_2,go,300.0,250.0,1.0,,,,,,,,,magenta,I
0.0,6.0,1.0,1.0,6.0,0.0,0.0,2.0,1.0,phase_2,stop,300.0,250.0,4.0,,,,,,,,,yellow,flipped triangle
0.0,6.0,1.0,1.0,6.0,0.0,0.0,2.0,1.0,phase_2,stop,300.0,300.0,4.0,,,,,,,,,yellow,flipped triangle
0.0,7.0,2.0,1.0,5.0,5.0,395.9564589895308,2.0,1.0,phase_2,stop,300.0,350.0,3.0,,,,,,,,,blue,triangle
0.0,1.0,0.5,0.0,6.0,6.0,837.2012730687857,2.0,1.0,phase_2,go,250.0,350.0,1.0,,,,,,,,,gray,diamond
0.0,4.0,4.0,0.0,5.0,5.0,515.2446520514786,2.0,1.0,phase_2,go,250.0,350.0,1.0,,,,,,,,,cyan,hexagon
0.0,4.0,4.0,0.0,5.0,5.0,472.8802652098238,2.0,1.0,phase_2,go,250.0,350.0,1.0,,,,,,,,,cyan,hexagon
0.0,2.0,1.0,0.0,5.0,5.0,295.8632498048246,2.0,1.0,phase_2,go,250.0,350.0,1.0,,,,,,,,,magenta,I
0.0,7.0,2.0,1.0,6.0,6.0,372.8699870407581,2.0,1.0,phase_2,stop,250.0,350.0,3.0,,,,,,,,,blue,triangle
0.0,5.0,0.5,1.0,5.0,0.0,0.0,2.0,1.0,phase_2,stop,250.0,300.0,4.0,,,,,,,,,white,circle
0.0,8.0,4.0,1.0,5.0,0.0,0.0,2.0,1.0,phase_2,stop,300.0,300.0,4.0,,,,,,,,,orange,cross
0.0,4.0,4.0,0.0,6.0,6.0,447.7454018779099,2.0,1.0,phase_2,go,350.0,300.0,1.0,,,,,,,,,cyan,hexagon
0.0,8.0,4.0,1.0,6.0,6.0,337.1692420914769,2.0,1.0,phase_2,stop,350.0,300.0,3.0,,,,,,,,,orange,cross
0.0,2.0,1.0,0.0,5.0,5.0,544.1794577054679,2.0,1.0,phase_2,go,350.0,250.0,1.0,,,,,,,,,magenta,I
0.0,5.0,0.5,1.0,6.0,6.0,439.9836580269038,2.0,1.0,phase_2,go,350.0,250.0,1.0,,,,,,,,,white,circle
0.0,2.0,1.0,0.0,6.0,6.0,526.734541170299,2.0,1.0,phase_2,go,350.0,250.0,1.0,,,,,,,,,magenta,I
0.0,7.0,2.0,1.0,5.0,0.0,0.0,2.0,1.0,phase_2,stop,350.0,250.0,4.0,,,,,,,,,blue,triangle
0.0,6.0,1.0,1.0,6.0,6.0,372.2372399643063,2.0,1.0,phase_2,stop,400.0,250.0,3.0,,,,,,,,,yellow,flipped triangle
0.0,6.0,1.0,1.0,5.0,0.0,0.0,2.0,1.0,phase_2,stop,400.0,200.0,4.0,,,,,,,,,yellow,flipped triangle
0.0,4.0,4.0,0.0,6.0,6.0,901.9015720114112,3.0,1.0,phase_2,go,450.0,200.0,1.0,,,,,,,,,cyan,hexagon
0.0,1.0,0.5,0.0,5.0,5.0,323.5586252994835,3.0,1.0,phase_2,go,450.0,200.0,1.0,,,,,,,,,gray,diamond
0.0,8.0,4.0,1.0,5.0,5.0,572.4669056944549,3.0,1.0,phase_2,stop,450.0,200.0,3.0,,,,,,,,,orange,cross
0.0,2.0,1.0,0.0,5.0,5.0,562.3476705513895,3.0,1.0,phase_2,go,400.0,200.0,1.0,,,,,,,,,magenta,I
0.0,7.0,2.0,1.0,6.0,0.0,0.0,3.0,1.0,phase_2,stop,400.0,200.0,4.0,,,,,,,,,blue,triangle
0.0,8.0,4.0,1.0,6.0,0.0,0.0,3.0,1.0,phase_2,stop,400.0,250.0,4.0,,,,,,,,,orange,cross
0.0,1.0,0.5,0.0,6.0,6.0,583.9180066250265,3.0,1.0,phase_2,go,400.0,300.0,1.0,,,,,,,,,gray,diamond
0.0,8.0,4.0,1.0,6.0,6.0,394.0731771290302,3.0,1.0,phase_2,stop,400.0,300.0,3.0,,,,,,,,,orange,cross
0.0,3.0,2.0,0.0,5.0,5.0,597.7110029198229,3.0,1.0,phase_2,go,400.0,250.0,1.0,,,,,,,,,green,square
0.0,2.0,1.0,0.0,6.0,6.0,368.6134950257838,3.0,1.0,phase_2,go,400.0,250.0,1.0,,,,,,,,,magenta,I
0.0,3.0,2.0,0.0,6.0,6.0,397.0635430887341,3.0,1.0,phase_2,go,400.0,250.0,1.0,,,,,,,,,green,square
0.0,5.0,0.5,1.0,6.0,6.0,383.7985200807452,3.0,1.0,phase_2,stop,400.0,250.0,3.0,,,,,,,,,white,circle
0.0,8.0,4.0,1.0,5.0,5.0,566.5312372148037,3.0,1.0,phase_2,go,400.0,200.0,1.0,,,,,,,,,orange,cross
0.0,8.0,4.0,1.0,5.0,5.0,582.0644050836563,3.0,1.0,phase_2,stop,400.0,200.0,3.0,,,,,,,,,orange,cross
0.0,2.0,1.0,0.0,5.0,5.0,522.6101437583566,3.0,1.0,phase_2,go,350.0,200.0,1.0,,,,,,,,,magenta,I
0.0,8.0,4.0,1.0,6.0,0.0,0.0,3.0,1.0,phase_2,stop,350.0,200.0,4.0,,,,,,,,,orange,cross
0.0,1.0,0.5,0.0,6.0,6.0,589.366439729929,3.0,1.0,phase_2,go,350.0,250.0,1.0,,,,,,,,,gray,diamond
0.0,5.0,0.5,1.0,6.0,0.0,0.0,3.0,1.0,phase_2,stop,350.0,250.0,4.0,,,,,,,,,white,circle
0.0,6.0,1.0,1.0,5.0,0.0,0.0,3.0,1.0,phase_2,stop,350.0,300.0,4.0,,,,,,,,,yellow,flipped triangle
0.0,8.0,4.0,1.0,6.0,6.0,522.9874299839139,3.0,1.0,phase_2,go,400.0,300.0,1.0,,,,,,,,,orange,cross
0.0,5.0,0.5,1.0,5.0,5.0,498.0582799762487,3.0,1.0,phase_2,stop,400.0,300.0,3.0,,,,,,,,,white,circle
0.0,4.0,4.0,0.0,6.0,6.0,714.8031909018755,3.0,1.0,phase_2,go,350.0,300.0,1.0,,,,,,,,,cyan,hexagon
0.0,4.0,4.0,0.0,6.0,6.0,667.0655310153961,3.0,1.0,phase_2,go,350.0,300.0,1.0,,,,,,,,,cyan,hexagon
0.0,8.0,4.0,1.0,6.0,6.0,392.2557686455548,3.0,1.0,phase_2,stop,350.0,300.0,3.0,,,,,,,,,orange,cross
0.0,4.0,4.0,0.0,6.0,6.0,517.7436480298638,3.0,1.0,phase_2,go,350.0,250.0,1.0,,,,,,,,,cyan,hexagon
0.0,2.0,1.0,0.0,6.0,6.0,366.8897361494601,3.0,1.0,phase_2,go,350.0,250.0,1.0,,,,,,,,,magenta,I
0.0,4.0,4.0,0.0,5.0,5.0,421.9721700064838,3.0,1.0,phase_2,go,350.0,250.0,1.0,,,,,,,,,cyan,hexagon
0.0,5.0,0.5,1.0,6.0,0.0,0.0,3.0,1.0,phase_2,stop,350.0,250.0,4.0,,,,,,,,,white,circle
0.0,8.0,4.0,1.0,6.0,0.0,0.0,3.0,1.0,phase_2,stop,350.0,300.0,4.0,,,,,,,,,orange,cross
0.0,3.0,2.0,0.0,6.0,6.0,541.811475995928,3.0,1.0,phase_2,go,350.0,350.0,1.0,,,,,,,,,green,square
0.0,8.0,4.0,1.0,6.0,6.0,538.7370027601719,3.0,1.0,phase_2,stop,350.0,350.0,3.0,,,,,,,,,orange,cross
0.0,4.0,4.0,0.0,5.0,5.0,578.8003210909665,3.0,1.0,phase_2,go,350.0,300.0,1.0,,,,,,,,,cyan,hexagon
0.0,4.0,4.0,0.0,5.0,5.0,458.4373719990253,3.0,1.0,phase_2,go,350.0,300.0,1.0,,,,,,,,,cyan,hexagon
0.0,3.0,2.0,0.0,5.0,5.0,448.0859711766243,3.0,1.0,phase_2,go,350.0,300.0,1.0,,,,,,,,,green,square
0.0,5.0,0.5,1.0,5.0,0.0,0.0,3.0,1.0,phase_2,stop,350.0,300.0,4.0,,,,,,,,,white,circle
0.0,1.0,0.5,0.0,5.0,5.0,599.0547752007842,3.0,1.0,phase_2,go,400.0,300.0,1.0,,,,,,,,,gray,diamond
0.0,4.0,4.0,0.0,6.0,6.0,592.562791891396,4.0,1.0,phase_2,go,400.0,300.0,1.0,,,,,,,,,cyan,hexagon
0.0,2.0,1.0,0.0,6.0,6.0,330.3691842593252,4.0,1.0,phase_2,go,400.0,300.0,1.0,,,,,,,,,magenta,I
0.0,7.0,2.0,1.0,6.0,6.0,326.5396910719573,4.0,1.0,phase_2,go,400.0,300.0,1.0,,,,,,,,,blue,triangle
0.0,8.0,4.0,1.0,6.0,6.0,319.3396367132664,4.0,1.0,phase_2,stop,400.0,300.0,3.0,,,,,,,,,orange,cross
0.0,2.0,1.0,0.0,6.0,6.0,660.5471917428076,4.0,1.0,phase_2,go,400.0,250.0,1.0,,,,,,,,,magenta,I
0.0,1.0,0.5,0.0,5.0,5.0,447.4526578560471,4.0,1.0,phase_2,go,400.0,250.0,1.0,,,,,,,,,gray,diamond
0.0,2.0,1.0,0.0,5.0,5.0,467.7090169861913,4.0,1.0,phase_2,go,400.0,250.0,1.0,,,,,,,,,magenta,I
0.0,7.0,2.0,1.0,6.0,6.0,332.2305711917579,4.0,1.0,phase_2,stop,400.0,250.0,3.0,,,,,,,,,blue,triangle
0.0,7.0,2.0,1.0,6.0,0.0,0.0,4.0,1.0,phase_2,stop,400.0,200.0,4.0,,,,,,,,,blue,triangle
0.0,5.0,0.5,1.0,6.0,6.0,402.4343029595911,4.0,1.0,phase_2,stop,400.0,250.0,3.0,,,,,,,,,white,circle
0.0,2.0,1.0,0.0,6.0,6.0,834.9264380522072,4.0,1.0,phase_2,go,400.0,200.0,1.0,,,,,,,,,magenta,I
0.0,1.0,0.5,0.0,5.0,5.0,602.7155639603734,4.0,1.0,phase_2,go,400.0,200.0,1.0,,,,,,,,,gray,diamond
0.0,6.0,1.0,1.0,5.0,5.0,465.1234243065119,4.0,1.0,phase_2,go,400.0,200.0,1.0,,,,,,,,,yellow,flipped triangle
0.0,8.0,4.0,1.0,6.0,0.0,0.0,4.0,1.0,phase_2,stop,400.0,200.0,4.0,,,,,,,,,orange,cross
0.0,4.0,4.0,0.0,6.0,6.0,401.2577277608216,4.0,1.0,phase_2,go,400.0,250.0,1.0,,,,,,,,,cyan,hexagon
0.0,3.0,2.0,0.0,5.0,5.0,478.2490781508386,4.0,1.0,phase_2,go,400.0,250.0,1.0,,,,,,,,,green,square
0.0,6.0,1.0,1.0,5.0,5.0,574.1975200362504,4.0,1.0,phase_2,stop,400.0,250.0,3.0,,,,,,,,,yellow,flipped triangle
0.0,6.0,1.0,1.0,5.0,5.0,525.0555309467018,4.0,1.0,phase_2,stop,350.0,250.0,3.0,,,,,,,,,yellow,flipped triangle
0.0,3.0,2.0,0.0,6.0,6.0,661.457909271121,4.0,1.0,phase_2,go,300.0,250.0,1.0,,,,,,,,,green,square
0.0,3.0,2.0,0.0,6.0,6.0,453.8259231485426,4.0,1.0,phase_2,go,300.0,250.0,1.0,,,,,,,,,green,square
0.0,6.0,1.0,1.0,5.0,5.0,419.97737204656,4.0,1.0,phase_2,stop,300.0,250.0,3.0,,,,,,,,,yellow,flipped triangle
0.0,5.0,0.5,1.0,6.0,6.0,363.3084907196462,4.0,1.0,phase_2,go,250.0,250.0,1.0,,,,,,,,,white,circle
0.0,4.0,4.0,0.0,6.0,6.0,509.05033433809876,4.0,1.0,phase_2,go,250.0,250.0,1.0,,,,,,,,,cyan,hexagon
0.0,8.0,4.0,1.0,6.0,6.0,385.9736891463399,4.0,1.0,phase_2,go,250.0,250.0,1.0,,,,,,,,,orange,cross
0.0,3.0,2.0,0.0,6.0,6.0,443.7214923091233,4.0,1.0,phase_2,go,250.0,250.0,1.0,,,,,,,,,green,square
0.0,5.0,0.5,1.0,6.0,0.0,0.0,4.0,1.0,phase_2,stop,250.0,250.0,4.0,,,,,,,,,white,circle
0.0,3.0,2.0,0.0,5.0,5.0,353.2408541068434,4.0,1.0,phase_2,go,250.0,300.0,1.0,,,,,,,,,green,square
0.0,3.0,2.0,0.0,6.0,6.0,355.9854766353965,4.0,1.0,phase_2,go,250.0,300.0,1.0,,,,,,,,,green,square
0.0,4.0,4.0,0.0,6.0,6.0,408.3278402686119,4.0,1.0,phase_2,go,250.0,300.0,1.0,,,,,,,,,cyan,hexagon
0.0,3.0,2.0,0.0,6.0,6.0,431.8994148634374,4.0,1.0,phase_2,go,250.0,300.0,1.0,,,,,,,,,green,square
0.0,4.0,4.0,0.0,6.0,6.0,430.8674270287156,4.0,1.0,phase_2,go,250.0,300.0,1.0,,,,,,,,,cyan,hexagon
0.0,6.0,1.0,1.0,6.0,6.0,438.2658069953322,4.0,1.0,phase_2,stop,250.0,300.0,3.0,,,,,,,,,yellow,flipped triangle
0.0,8.0,4.0,1.0,6.0,6.0,304.7253959812224,4.0,1.0,phase_2,stop,250.0,250.0,3.0,,,,,,,,,orange,cross
0.0,3.0,2.0,0.0,5.0,5.0,288.6469471268356,4.0,1.0,phase_2,go,250.0,200.0,1.0,,,,,,,,,green,square
0.0,4.0,4.0,0.0,5.0,5.0,332.7597640454769,4.0,1.0,phase_2,go,250.0,200.0,1.0,,,,,,,,,cyan,hexagon
0.0,3.0,2.0,0.0,6.0,6.0,518.6831131577492,4.0,1.0,phase_2,go,250.0,200.0,1.0,,,,,,,,,green,square
0.0,7.0,2.0,1.0,5.0,5.0,443.8843750394881,5.0,1.0,phase_2,stop,250.0,200.0,3.0,,,,,,,,,blue,triangle
0.0,4.0,4.0,0.0,5.0,5.0,409.4707826152444,5.0,1.0,phase_2,go,200.0,200.0,1.0,,,,,,,,,cyan,hexagon
0.0,6.0,1.0,1.0,6.0,0.0,0.0,5.0,1.0,phase_2,stop,200.0,200.0,4.0,,,,,,,,,yellow,flipped triangle
0.0,5.0,0.5,1.0,5.0,0.0,0.0,5.0,1.0,phase_2,stop,200.0,250.0,4.0,,,,,,,,,white,circle
0.0,8.0,4.0,1.0,5.0,5.0,408.708413131535,5.0,1.0,phase_2,go,250.0,250.0,1.0,,,,,,,,,orange,cross
0.0,7.0,2.0,1.0,6.0,6.0,463.7650088407099,5.0,1.0,phase_2,go,250.0,250.0,1.0,,,,,,,,,blue,triangle
0.0,2.0,1.0,0.0,5.0,5.0,384.7819902002811,5.0,1.0,phase_2,go,250.0,250.0,1.0,,,,,,,,,magenta,I
0.0,4.0,4.0,0.0,5.0,5.0,375.7977811619639,5.0,1.0,phase_2,go,250.0,250.0,1.0,,,,,,,,,cyan,hexagon
0.0,7.0,2.0,1.0,5.0,5.0,358.4482138976455,5.0,1.0,phase_2,stop,250.0,250.0,3.0,,,,,,,,,blue,triangle
0.0,3.0,2.0,0.0,6.0,6.0,541.3098898716271,5.0,1.0,phase_2,go,200.0,250.0,1.0,,,,,,,,,green,square
0.0,6.0,1.0,1.0,6.0,0.0,0.0,5.0,1.0,phase_2,stop,200.0,250.0,4.0,,,,,,,,,yellow,flipped triangle
0.0,6.0,1.0,1.0,5.0,0.0,0.0,5.0,1.0,phase_2,stop,200.0,300.0,4.0,,,,,,,,,yellow,flipped triangle
0.0,6.0,1.0,1.0,6.0,6.0,338.7352717109024,5.0,1.0,phase_2,stop,250.0,300.0,3.0,,,,,,,,,yellow,flipped triangle
0.0,5.0,0.5,1.0,6.0,6.0,333.4869681857526,5.0,1.0,phase_2,go,250.0,250.0,1.0,,,,,,,,,white,circle
0.0,1.0,0.5,0.0,6.0,6.0,476.4346443116665,5.0,1.0,phase_2,go,250.0,250.0,1.0,,,,,,,,,gray,diamond
0.0,8.0,4.0,1.0,6.0,0.0,0.0,5.0,1.0,phase_2,stop,250.0,250.0,4.0,,,,,,,,,orange,cross
0.0,8.0,4.0,1.0,5.0,0.0,0.0,5.0,1.0,phase_2,stop,250.0,300.0,4.0,,,,,,,,,orange,cross
0.0,2.0,1.0,0.0,5.0,5.0,600.2478217706084,5.0,1.0,phase_2,go,300.0,300.0,1.0,,,,,,,,,magenta,I
0.0,6.0,1.0,1.0,5.0,5.0,416.6855639778077,5.0,1.0,phase_2,go,300.0,300.0,1.0,,,,,,,,,yellow,flipped triangle
0.0,3.0,2.0,0.0,5.0,5.0,306.4007679931819,5.0,1.0,phase_2,go,300.0,300.0,1.0,,,,,,,,,green,square
0.0,8.0,4.0,1.0,6.0,6.0,352.7888008393347,5.0,1.0,phase_2,stop,300.0,300.0,3.0,,,,,,,,,orange,cross
0.0,6.0,1.0,1.0,6.0,6.0,613.9607662335038,5.0,1.0,phase_2,go,300.0,250.0,1.0,,,,,,,,,yellow,flipped triangle
0.0,8.0,4.0,1.0,5.0,5.0,317.9049771279096,5.0,1.0,phase_2,stop,300.0,250.0,3.0,,,,,,,,,orange,cross
0.0,8.0,4.0,1.0,6.0,0.0,0.0,5.0,1.0,phase_2,stop,250.0,250.0,4.0,,,,,,,,,orange,cross
0.0,7.0,2.0,1.0,5.0,0.0,0.0,5.0,1.0,phase_2,stop,250.0,300.0,4.0,,,,,,,,,blue,triangle
0.0,5.0,0.5,1.0,5.0,5.0,451.708291657269,5.0,1.0,phase_2,go,300.0,300.0,1.0,,,,,,,,,white,circle
0.0,6.0,1.0,1.0,5.0,5.0,446.8662990257144,5.0,1.0,phase_2,go,300.0,300.0,1.0,,,,,,,,,yellow,flipped triangle
0.0,6.0,1.0,1.0,6.0,6.0,461.9467221200466,5.0,1.0,phase_2,go,300.0,300.0,1.0,,,,,,,,,yellow,flipped triangle
0.0,4.0,4.0,0.0,5.0,5.0,386.6665279492736,5.0,1.0,phase_2,go,300.0,300.0,1.0,,,,,,,,,cyan,hexagon
0.0,4.0,4.0,0.0,5.0,5.0,386.6350948810577,5.0,1.0,phase_2,go,300.0,300.0,1.0,,,,,,,,,cyan,hexagon
0.0,8.0,4.0,1.0,5.0,5.0,465.1065743528306,5.0,1.0,phase_2,stop,300.0,300.0,3.0,,,,,,,,,orange,cross
0.0,2.0,1.0,0.0,5.0,5.0,713.8329297304153,5.0,1.0,phase_2,go,250.0,300.0,1.0,,,,,,,,,magenta,I
0.0,6.0,1.0,1.0,5.0,0.0,0.0,5.0,1.0,phase_2,stop,250.0,300.0,4.0,,,,,,,,,yellow,flipped triangle
0.0,5.0,0.5,1.0,5.0,0.0,0.0,5.0,1.0,phase_2,stop,300.0,300.0,4.0,,,,,,,,,white,circle
0.0,1.0,0.5,0.0,6.0,6.0,455.5808161385357,5.0,1.0,phase_2,go,350.0,300.0,1.0,,,,,,,,,gray,diamond
0.0,3.0,2.0,0.0,6.0,6.0,359.3824431300163,5.0,1.0,phase_2,go,350.0,300.0,1.0,,,,,,,,,green,square
0.0,4.0,4.0,0.0,5.0,5.0,430.5285718291998,6.0,1.0,phase_2,go,350.0,300.0,1.0,,,,,,,,,cyan,hexagon
0.0,3.0,2.0,0.0,5.0,5.0,394.724209792912,6.0,1.0,phase_2,go,350.0,300.0,1.0,,,,,,,,,green,square
0.0,6.0,1.0,1.0,6.0,6.0,465.5586751177907,6.0,1.0,phase_2,stop,350.0,300.0,3.0,,,,,,,,,yellow,flipped triangle
0.0,5.0,0.5,1.0,6.0,0.0,0.0,6.0,1.0,phase_2,stop,350.0,250.0,4.0,,,,,,,,,white,circle
0.0,7.0,2.0,1.0,6.0,6.0,522.507983725518,6.0,1.0,phase_2,go,350.0,300.0,1.0,,,,,,,,,blue,triangle
0.0,7.0,2.0,1.0,5.0,0.0,0.0,6.0,1.0,phase_2,stop,350.0,300.0,4.0,,,,,,,,,blue,triangle
0.0,6.0,1.0,1.0,5.0,5.0,571.16121891886,6.0,1.0,phase_2,stop,400.0,300.0,3.0,,,,,,,,,yellow,flipped triangle
0.0,8.0,4.0,1.0,6.0,6.0,543.8109235838056,6.0,1.0,phase_2,go,350.0,300.0,1.0,,,,,,,,,orange,cross
0.0,5.0,0.5,1.0,6.0,6.0,470.1414941810071,6.0,1.0,phase_2,go,350.0,300.0,1.0,,,,,,,,,white,circle
0.0,1.0,0.5,0.0,5.0,5.0,479.5043133199215,6.0,1.0,phase_2,go,350.0,300.0,1.0,,,,,,,,,gray,diamond
0.0,1.0,0.5,0.0,6.0,6.0,485.4444749653339,6.0,1.0,phase_2,go,350.0,300.0,1.0,,,,,,,,,gray,diamond
0.0,1.0,0.5,0.0,6.0,6.0,392.3592451028526,6.0,1.0,phase_2,go,350.0,300.0,1.0,,,,,,,,,gray,diamond
0.0,7.0,2.0,1.0,5.0,5.0,317.6387110725045,6.0,1.0,phase_2,go,350.0,300.0,1.0,,,,,,,,,blue,triangle
0.0,7.0,2.0,1.0,5.0,5.0,378.4382762387395,6.0,1.0,phase_2,stop,350.0,300.0,3.0,,,,,,,,,blue,triangle
0.0,5.0,0.5,1.0,5.0,0.0,0.0,6.0,1.0,phase_2,stop,300.0,300.0,4.0,,,,,,,,,white,circle
0.0,4.0,4.0,0.0,6.0,6.0,476.9478659145534,6.0,1.0,phase_2,go,350.0,300.0,1.0,,,,,,,,,cyan,hexagon
0.0,2.0,1.0,0.0,5.0,5.0,556.9404079578817,6.0,1.0,phase_2,go,350.0,300.0,1.0,,,,,,,,,magenta,I
0.0,5.0,0.5,1.0,5.0,5.0,419.0213829278946,6.0,1.0,phase_2,go,350.0,300.0,1.0,,,,,,,,,white,circle
0.0,4.0,4.0,0.0,5.0,5.0,537.3683739453554,6.0,1.0,phase_2,go,350.0,300.0,1.0,,,,,,,,,cyan,hexagon
0.0,8.0,4.0,1.0,6.0,0.0,0.0,6.0,1.0,phase_2,stop,350.0,300.0,4.0,,,,,,,,,orange,cross
0.0,1.0,0.5,0.0,6.0,6.0,536.911397241056,6.0,1.0,phase_2,go,350.0,350.0,1.0,,,,,,,,,gray,diamond
0.0,3.0,2.0,0.0,5.0,5.0,338.384305126965,6.0,1.0,phase_2,go,350.0,350.0,1.0,,,,,,,,,green,square
0.0,7.0,2.0,1.0,6.0,6.0,344.2501537501812,6.0,1.0,phase_2,stop,350.0,350.0,3.0,,,,,,,,,blue,triangle
0.0,3.0,2.0,0.0,6.0,6.0,696.3111478835344,6.0,1.0,phase_2,go,350.0,300.0,1.0,,,,,,,,,green,square
0.0,3.0,2.0,0.0,5.0,5.0,489.238893147558,6.0,1.0,phase_2,go,350.0,300.0,1.0,,,,,,,,,green,square
0.0,2.0,1.0,0.0,6.0,6.0,438.8734283857047,6.0,1.0,phase_2,go,350.0,300.0,1.0,,,,,,,,,magenta,I
0.0,1.0,0.5,0.0,6.0,6.0,486.2680020742118,6.0,1.0,phase_2,go,350.0,300.0,1.0,,,,,,,,,gray,diamond
0.0,8.0,4.0,1.0,5.0,5.0,414.7899779491126,6.0,1.0,phase_2,go,350.0,300.0,1.0,,,,,,,,,orange,cross
0.0,2.0,1.0,0.0,6.0,6.0,346.885188948363,6.0,1.0,phase_2,go,350.0,300.0,1.0,,,,,,,,,magenta,I
0.0,7.0,2.0,1.0,5.0,5.0,573.0341779999435,6.0,1.0,phase_2,go,350.0,300.0,1.0,,,,,,,,,blue,triangle
0.0,8.0,4.0,1.0,5.0,5.0,413.4557009674608,6.0,1.0,phase_2,stop,350.0,300.0,3.0,,,,,,,,,orange,cross
0.0,1.0,0.5,0.0,6.0,6.0,457.4849130585789,6.0,1.0,phase_2,go,300.0,300.0,1.0,,,,,,,,,gray,diamond
0.0,5.0,0.5,1.0,6.0,6.0,331.2846259213984,6.0,1.0,phase_2,stop,300.0,300.0,3.0,,,,,,,,,white,circle
0.0,1.0,0.5,0.0,6.0,6.0,516.4144090376794,6.0,1.0,phase_2,go,300.0,250.0,1.0,,,,,,,,,gray,diamond
0.0,6.0,1.0,1.0,5.0,5.0,295.5917050130665,6.0,1.0,phase_2,stop,300.0,250.0,3.0,,,,,,,,,yellow,flipped triangle
0.0,1.0,0.5,0.0,5.0,5.0,490.1543888263404,6.0,1.0,phase_2,go,250.0,250.0,1.0,,,,,,,,,gray,diamond
0.0,2.0,1.0,0.0,5.0,5.0,443.1030019186437,7.0,1.0,phase_2,go,250.0,250.0,1.0,,,,,,,,,magenta,I
0.0,5.0,0.5,1.0,5.0,0.0,0.0,7.0,1.0,phase_2,stop,250.0,250.0,4.0,,,,,,,,,white,circle
0.0,4.0,4.0,0.0,6.0,6.0,399.6890471316874,7.0,1.0,phase_2,go,300.0,250.0,1.0,,,,,,,,,cyan,hexagon
0.0,7.0,2.0,1.0,6.0,0.0,0.0,7.0,1.0,phase_2,stop,300.0,250.0,4.0,,,,,,,,,blue,triangle
0.0,5.0,0.5,1.0,6.0,6.0,433.1001010723412,7.0,1.0,phase_2,stop,300.0,300.0,3.0,,,,,,,,,white,circle
0.0,2.0,1.0,0.0,6.0,6.0,524.0556159988046,7.0,1.0,phase_2,go,300.0,250.0,1.0,,,,,,,,,magenta,I
0.0,4.0,4.0,0.0,5.0,5.0,419.5690657943487,7.0,1.0,phase_2,go,300.0,250.0,1.0,,,,,,,,,cyan,hexagon
0.0,7.0,2.0,1.0,6.0,6.0,316.2527801468968,7.0,1.0,phase_2,go,300.0,250.0,1.0,,,,,,,,,blue,triangle
0.0,8.0,4.0,1.0,5.0,5.0,379.4818548485636,7.0,1.0,phase_2,go,300.0,250.0,1.0,,,,,,,,,orange,cross
0.0,1.0,0.5,0.0,6.0,6.0,283.8245099410414,7.0,1.0,phase_2,go,300.0,250.0,1.0,,,,,,,,,gray,diamond
0.0,6.0,1.0,1.0,6.0,6.0,347.1453320235014,7.0,1.0,phase_2,stop,300.0,250.0,3.0,,,,,,,,,yellow,flipped triangle
0.0,7.0,2.0,1.0,5.0,5.0,386.4161255769431,7.0,1.0,phase_2,stop,300.0,200.0,3.0,,,,,,,,,blue,triangle
0.0,6.0,1.0,1.0,6.0,0.0,0.0,7.0,1.0,phase_2,stop,250.0,200.0,4.0,,,,,,,,,yellow,flipped triangle
0.0,4.0,4.0,0.0,6.0,6.0,552.514148876071,7.0,1.0,phase_2,go,250.0,250.0,1.0,,,,,,,,,cyan,hexagon
0.0,2.0,1.0,0.0,6.0,6.0,530.5979871191084,7.0,1.0,phase_2,go,250.0,250.0,1.0,,,,,,,,,magenta,I
0.0,3.0,2.0,0.0,6.0,6.0,441.8915449641645,7.0,1.0,phase_2,go,250.0,250.0,1.0,,,,,,,,,green,square
0.0,2.0,1.0,0.0,6.0,6.0,313.3402206003666,7.0,1.0,phase_2,go,250.0,250.0,1.0,,,,,,,,,magenta,I
0.0,5.0,0.5,1.0,5.0,5.0,511.53918681666255,7.0,1.0,phase_2,go,250.0,250.0,1.0,,,,,,,,,white,circle
0.0,3.0,2.0,0.0,6.0,6.0,336.8914318270981,7.0,1.0,phase_2,go,250.0,250.0,1.0,,,,,,,,,green,square
0.0,1.0,0.5,0.0,5.0,5.0,437.2438648715615,7.0,1.0,phase_2,go,250.0,250.0,1.0,,,,,,,,,gray,diamond
0.0,6.0,1.0,1.0,6.0,6.0,351.3966058380902,7.0,1.0,phase_2,stop,250.0,250.0,3.0,,,,,,,,,yellow,flipped triangle
0.0,5.0,0.5,1.0,5.0,0.0,0.0,7.0,1.0,phase_2,stop,250.0,200.0,4.0,,,,,,,,,white,circle
0.0,1.0,0.5,0.0,6.0,6.0,523.3275620266795,7.0,1.0,phase_2,go,300.0,200.0,1.0,,,,,,,,,gray,diamond
0.0,2.0,1.0,0.0,6.0,6.0,531.9348690100014,7.0,1.0,phase_2,go,300.0,200.0,1.0,,,,,,,,,magenta,I
0.0,7.0,2.0,1.0,6.0,0.0,0.0,7.0,1.0,phase_2,stop,300.0,200.0,4.0,,,,,,,,,blue,triangle
0.0,3.0,2.0,0.0,5.0,5.0,420.6405654549598,7.0,1.0,phase_2,go,300.0,250.0,1.0,,,,,,,,,green,square
0.0,6.0,1.0,1.0,5.0,5.0,536.6420429199934,7.0,1.0,phase_2,go,300.0,250.0,1.0,,,,,,,,,yellow,flipped triangle
0.0,4.0,4.0,0.0,5.0,5.0,383.9326286688447,7.0,1.0,phase_2,go,300.0,250.0,1.0,,,,,,,,,cyan,hexagon
0.0,1.0,0.5,0.0,5.0,5.0,410.1077509112656,7.0,1.0,phase_2,go,300.0,250.0,1.0,,,,,,,,,gray,diamond
0.0,1.0,0.5,0.0,5.0,5.0,335.0681629963219,7.0,1.0,phase_2,go,300.0,250.0,1.0,,,,,,,,,gray,diamond
0.0,2.0,1.0,0.0,5.0,5.0,350.2874379046261,7.0,1.0,phase_2,go,300.0,250.0,1.0,,,,,,,,,magenta,I
0.0,3.0,2.0,0.0,6.0,6.0,392.5117691978812,7.0,1.0,phase_2,go,300.0,250.0,1.0,,,,,,,,,green,square
0.0,2.0,1.0,0.0,5.0,5.0,519.548608455807,7.0,1.0,phase_2,go,300.0,250.0,1.0,,,,,,,,,magenta,I
0.0,8.0,4.0,1.0,6.0,0.0,0.0,7.0,1.0,phase_2,stop,300.0,250.0,4.0,,,,,,,,,orange,cross
0.0,5.0,0.5,1.0,5.0,5.0,480.0701476633549,7.0,1.0,phase_2,stop,300.0,300.0,3.0,,,,,,,,,white,circle
0.0,1.0,0.5,0.0,5.0,5.0,507.63663090765476,7.0,1.0,phase_2,go,250.0,300.0,1.0,,,,,,,,,gray,diamond
0.0,7.0,2.0,1.0,5.0,5.0,367.5568629987538,8.0,1.0,phase_2,stop,250.0,300.0,3.0,,,,,,,,,blue,triangle
0.0,4.0,4.0,0.0,5.0,5.0,422.406695317477,8.0,1.0,phase_2,go,200.0,300.0,1.0,,,,,,,,,cyan,hexagon
0.0,6.0,1.0,1.0,6.0,6.0,464.3964488059282,8.0,1.0,phase_2,go,200.0,300.0,1.0,,,,,,,,,yellow,flipped triangle
0.0,8.0,4.0,1.0,5.0,0.0,0.0,8.0,1.0,phase_2,stop,200.0,300.0,4.0,,,,,,,,,orange,cross
0.0,4.0,4.0,0.0,5.0,5.0,391.6531223803758,8.0,1.0,phase_2,go,250.0,300.0,1.0,,,,,,,,,cyan,hexagon
0.0,3.0,2.0,0.0,6.0,6.0,344.0456893295049,8.0,1.0,phase_2,go,250.0,300.0,1.0,,,,,,,,,green,square
0.0,7.0,2.0,1.0,5.0,0.0,0.0,8.0,1.0,phase_2,stop,250.0,300.0,4.0,,,,,,,,,blue,triangle
0.0,2.0,1.0,0.0,6.0,6.0,404.0617821738124,8.0,1.0,phase_2,go,300.0,300.0,1.0,,,,,,,,,magenta,I
0.0,5.0,0.5,1.0,5.0,0.0,0.0,8.0,1.0,phase_2,stop,300.0,300.0,4.0,,,,,,,,,white,circle
0.0,8.0,4.0,1.0,5.0,5.0,401.7344741150737,8.0,1.0,phase_2,stop,350.0,300.0,3.0,,,,,,,,,orange,cross
0.0,1.0,0.5,0.0,5.0,5.0,448.7530430778861,8.0,1.0,phase_2,go,300.0,300.0,1.0,,,,,,,,,gray,diamond
0.0,7.0,2.0,1.0,5.0,5.0,403.4043131396174,8.0,1.0,phase_2,stop,300.0,300.0,3.0,,,,,,,,,blue,triangle
0.0,7.0,2.0,1.0,5.0,0.0,0.0,8.0,1.0,phase_2,stop,250.0,300.0,4.0,,,,,,,,,blue,triangle
0.0,8.0,4.0,1.0,5.0,0.0,0.0,8.0,1.0,phase_2,stop,300.0,300.0,4.0,,,,,,,,,orange,cross
0.0,3.0,2.0,0.0,6.0,6.0,472.4005460739136,8.0,1.0,phase_2,go,350.0,300.0,1.0,,,,,,,,,green,square
0.0,5.0,0.5,1.0,6.0,6.0,502.04145070165396,8.0,1.0,phase_2,go,350.0,300.0,1.0,,,,,,,,,white,circle
0.0,1.0,0.5,0.0,6.0,6.0,430.8968456462025,8.0,1.0,phase_2,go,350.0,300.0,1.0,,,,,,,,,gray,diamond
0.0,1.0,0.5,0.0,5.0,5.0,535.2587592788041,8.0,1.0,phase_2,go,350.0,300.0,1.0,,,,,,,,,gray,diamond
0.0,7.0,2.0,1.0,6.0,6.0,472.0817706547677,8.0,1.0,phase_2,go,350.0,300.0,1.0,,,,,,,,,blue,triangle
0.0,7.0,2.0,1.0,5.0,5.0,429.9535132013261,8.0,1.0,phase_2,stop,350.0,300.0,3.0,,,,,,,,,blue,triangle
0.0,6.0,1.0,1.0,5.0,5.0,606.1981837265193,8.0,1.0,phase_2,go,300.0,300.0,1.0,,,,,,,,,yellow,flipped triangle
0.0,4.0,4.0,0.0,6.0,6.0,475.5738917738199,8.0,1.0,phase_2,go,300.0,300.0,1.0,,,,,,,,,cyan,hexagon
0.0,1.0,0.5,0.0,5.0,5.0,539.1288916580379,8.0,1.0,phase_2,go,300.0,300.0,1.0,,,,,,,,,gray,diamond
0.0,3.0,2.0,0.0,5.0,5.0,442.5007551908493,8.0,1.0,phase_2,go,300.0,300.0,1.0,,,,,,,,,green,square
0.0,7.0,2.0,1.0,6.0,6.0,349.184918217361,8.0,1.0,phase_2,stop,300.0,300.0,3.0,,,,,,,,,blue,triangle
0.0,7.0,2.0,1.0,6.0,6.0,562.9305662587285,8.0,1.0,phase_2,go,300.0,250.0,1.0,,,,,,,,,blue,triangle
0.0,1.0,0.5,0.0,6.0,6.0,472.3652726970613,8.0,1.0,phase_2,go,300.0,250.0,1.0,,,,,,,,,gray,diamond
0.0,7.0,2.0,1.0,6.0,6.0,362.6161748543381,8.0,1.0,phase_2,go,300.0,250.0,1.0,,,,,,,,,blue,triangle
0.0,1.0,0.5,0.0,6.0,6.0,321.9562629237771,8.0,1.0,phase_2,go,300.0,250.0,1.0,,,,,,,,,gray,diamond
0.0,5.0,0.5,1.0,5.0,5.0,408.8482107035815,8.0,1.0,phase_2,stop,300.0,250.0,3.0,,,,,,,,,white,circle
0.0,1.0,0.5,0.0,5.0,5.0,518.90131784603,8.0,1.0,phase_2,go,250.0,250.0,1.0,,,,,,,,,gray,diamond
0.0,3.0,2.0,0.0,6.0,6.0,367.7175869233906,8.0,1.0,phase_2,go,250.0,250.0,1.0,,,,,,,,,green,square
0.0,4.0,4.0,0.0,6.0,6.0,476.7875298857689,8.0,1.0,phase_2,go,250.0,250.0,1.0,,,,,,,,,cyan,hexagon
0.0,4.0,4.0,0.0,5.0,5.0,581.1826740391552,8.0,1.0,phase_2,go,250.0,250.0,1.0,,,,,,,,,cyan,hexagon
0.0,1.0,0.5,0.0,5.0,5.0,467.7392430603504,8.0,1.0,phase_2,go,250.0,250.0,1.0,,,,,,,,,gray,diamond
0.0,2.0,1.0,0.0,6.0,6.0,435.5603721924126,8.0,1.0,phase_2,go,250.0,250.0,1.0,,,,,,,,,magenta,I
0.0,5.0,0.5,1.0,7.0,5.0,1777.1398131735625,1.0,1.0,phase_3,,,,,78.0,2.0,39.0,117.0,195.0,156.0,78.0,234.0,white,circle
0.0,8.0,4.0,1.0,7.0,5.0,2346.7907360754907,1.0,1.0,phase_3,,,,,324.0,6.0,270.0,54.0,108.0,162.0,324.0,216.0,orange,cross
0.0,7.0,2.0,1.0,7.0,2.0,1555.2706979215143,1.0,1.0,phase_3,,,,,195.0,5.0,78.0,195.0,156.0,39.0,234.0,117.0,blue,triangle
0.0,7.0,2.0,1.0,7.0,2.0,1332.6482330448923,1.0,1.0,phase_3,,,,,216.0,4.0,108.0,216.0,54.0,162.0,270.0,324.0,blue,triangle
0.0,8.0,4.0,1.0,7.0,5.0,2203.444642946124,1.0,1.0,phase_3,,,,,220.0,5.0,264.0,88.0,44.0,176.0,220.0,132.0,orange,cross
0.0,6.0,1.0,1.0,7.0,2.0,1079.021001700312,1.0,1.0,phase_3,,,,,196.0,4.0,245.0,196.0,98.0,49.0,147.0,294.0,yellow,flipped triangle
0.0,4.0,4.0,0.0,7.0,4.0,1839.7196917794645,1.0,1.0,phase_3,,,,,108.0,2.0,216.0,324.0,162.0,108.0,270.0,54.0,cyan,hexagon
0.0,3.0,2.0,0.0,7.0,2.0,1151.6800075769424,1.0,1.0,phase_3,,,,,216.0,4.0,270.0,216.0,108.0,324.0,54.0,162.0,green,square
0.0,5.0,0.5,1.0,7.0,2.0,1419.5803771726787,1.0,1.0,phase_3,,,,,88.0,2.0,132.0,88.0,264.0,176.0,220.0,44.0,white,circle
0.0,8.0,4.0,1.0,7.0,5.0,1507.808550260961,1.0,1.0,phase_3,,,,,204.0,6.0,136.0,68.0,102.0,34.0,204.0,170.0,orange,cross
0.0,4.0,4.0,0.0,7.0,4.0,1349.3185229599476,1.0,1.0,phase_3,,,,,34.0,1.0,68.0,170.0,204.0,34.0,136.0,102.0,cyan,hexagon
0.0,1.0,0.5,0.0,7.0,2.0,908.73367106542,1.0,1.0,phase_3,,,,,49.0,1.0,294.0,49.0,147.0,196.0,98.0,245.0,gray,diamond
0.0,8.0,4.0,1.0,7.0,6.0,1462.2086146846414,1.0,1.0,phase_3,,,,,196.0,4.0,294.0,49.0,147.0,98.0,245.0,196.0,orange,cross
0.0,1.0,0.5,0.0,7.0,6.0,1217.8402161225677,1.0,1.0,phase_3,,,,,117.0,3.0,156.0,78.0,195.0,39.0,234.0,117.0,gray,diamond
0.0,8.0,4.0,1.0,7.0,3.0,2066.8728640303016,1.0,1.0,phase_3,,,,,216.0,4.0,324.0,270.0,216.0,162.0,54.0,108.0,orange,cross
0.0,6.0,1.0,1.0,7.0,1.0,1597.282274160534,1.0,1.0,phase_3,,,,,68.0,2.0,68.0,204.0,170.0,102.0,136.0,34.0,yellow,flipped triangle
0.0,2.0,1.0,0.0,7.0,4.0,1789.868806023151,1.0,1.0,phase_3,,,,,156.0,4.0,39.0,195.0,234.0,156.0,78.0,117.0,magenta,I
0.0,6.0,1.0,1.0,7.0,4.0,1366.473902016878,1.0,1.0,phase_3,,,,,98.0,2.0,147.0,245.0,294.0,98.0,196.0,49.0,yellow,flipped triangle
0.0,3.0,2.0,0.0,7.0,1.0,1190.370426978916,1.0,1.0,phase_3,,,,,108.0,2.0,108.0,270.0,54.0,162.0,216.0,324.0,green,square
0.0,5.0,0.5,1.0,7.0,2.0,906.0033606365324,1.0,1.0,phase_3,,,,,49.0,1.0,147.0,49.0,245.0,196.0,98.0,294.0,white,circle
0.0,5.0,0.5,1.0,7.0,3.0,1519.391844980419,2.0,1.0,phase_3,,,,,68.0,2.0,136.0,204.0,68.0,34.0,102.0,170.0,white,circle
0.0,5.0,0.5,1.0,7.0,1.0,1139.5207080058751,2.0,1.0,phase_3,,,,,88.0,2.0,88.0,264.0,132.0,44.0,176.0,220.0,white,circle
0.0,5.0,0.5,1.0,7.0,6.0,1106.0247221030295,2.0,1.0,phase_3,,,,,98.0,2.0,196.0,147.0,245.0,49.0,294.0,98.0,white,circle
0.0,4.0,4.0,0.0,7.0,2.0,1358.614823780954,2.0,1.0,phase_3,,,,,196.0,4.0,49.0,196.0,98.0,245.0,147.0,294.0,cyan,hexagon
0.0,1.0,0.5,0.0,7.0,3.0,997.6373920217156,2.0,1.0,phase_3,,,,,132.0,3.0,88.0,44.0,132.0,176.0,264.0,220.0,gray,diamond
0.0,1.0,0.5,0.0,7.0,5.0,1162.1387167833743,2.0,1.0,phase_3,,,,,147.0,3.0,294.0,49.0,98.0,245.0,147.0,196.0,gray,diamond
0.0,2.0,1.0,0.0,7.0,5.0,1562.381625175476,2.0,1.0,phase_3,,,,,156.0,4.0,39.0,195.0,234.0,78.0,156.0,117.0,magenta,I
0.0,1.0,0.5,0.0,7.0,5.0,1315.3253346681597,2.0,1.0,phase_3,,,,,132.0,3.0,44.0,264.0,220.0,176.0,132.0,88.0,gray,diamond
0.0,4.0,4.0,0.0,7.0,1.0,2018.605434801429,2.0,1.0,phase_3,,,,,196.0,4.0,196.0,49.0,294.0,245.0,147.0,98.0,cyan,hexagon
0.0,2.0,1.0,0.0,7.0,3.0,2325.099695008248,2.0,1.0,phase_3,,,,,176.0,4.0,220.0,132.0,176.0,44.0,264.0,88.0,magenta,I
0.0,4.0,4.0,0.0,7.0,5.0,1568.1465938687325,2.0,1.0,phase_3,,,,,136.0,4.0,68.0,102.0,170.0,34.0,136.0,204.0,cyan,hexagon
0.0,3.0,2.0,0.0,7.0,6.0,1841.9103510677812,2.0,1.0,phase_3,,,,,132.0,3.0,44.0,176.0,220.0,88.0,264.0,132.0,green,square
0.0,7.0,2.0,1.0,7.0,3.0,1152.738424949348,2.0,1.0,phase_3,,,,,78.0,2.0,195.0,117.0,78.0,156.0,39.0,234.0,blue,triangle
0.0,8.0,4.0,1.0,7.0,1.0,1947.6178619079287,2.0,1.0,phase_3,,,,,195.0,5.0,195.0,156.0,39.0,234.0,78.0,117.0,orange,cross
0.0,3.0,2.0,0.0,7.0,6.0,1981.0301149263976,2.0,1.0,phase_3,,,,,156.0,4.0,195.0,117.0,78.0,234.0,39.0,156.0,green,square
0.0,3.0,2.0,0.0,7.0,6.0,1598.062762990594,2.0,1.0,phase_3,,,,,136.0,4.0,102.0,170.0,34.0,68.0,204.0,136.0,green,square
0.0,1.0,0.5,0.0,7.0,4.0,1640.574269928038,2.0,1.0,phase_3,,,,,68.0,2.0,34.0,170.0,204.0,68.0,102.0,136.0,gray,diamond
0.0,2.0,1.0,0.0,7.0,3.0,2150.996583979577,2.0,1.0,phase_3,,,,,270.0,5.0,216.0,54.0,270.0,324.0,162.0,108.0,magenta,I
0.0,2.0,1.0,0.0,7.0,5.0,1860.241751652211,2.0,1.0,phase_3,,,,,245.0,5.0,49.0,98.0,294.0,196.0,245.0,147.0,magenta,I
0.0,1.0,0.5,0.0,7.0,6.0,1498.699341900647,2.0,1.0,phase_3,,,,,162.0,3.0,270.0,216.0,54.0,324.0,108.0,162.0,gray,diamond
0.0,1.0,0.5,0.0,7.0,3.0,2020.1185178011656,3.0,1.0,phase_3,,,,,108.0,2.0,216.0,54.0,108.0,162.0,324.0,270.0,gray,diamond
0.0,3.0,2.0,0.0,7.0,3.0,1436.3930788822472,3.0,1.0,phase_3,,,,,147.0,3.0,294.0,49.0,147.0,245.0,98.0,196.0,green,square
0.0,1.0,0.5,0.0,7.0,1.0,1448.7601099535825,3.0,1.0,phase_3,,,,,117.0,3.0,117.0,195.0,78.0,156.0,234.0,39.0,gray,diamond
0.0,7.0,2.0,1.0,7.0,6.0,872.0222138799727,3.0,1.0,phase_3,,,,,68.0,2.0,136.0,204.0,102.0,34.0,170.0,68.0,blue,triangle
0.0,3.0,2.0,0.0,7.0,4.0,1289.565104059875,3.0,1.0,phase_3,,,,,147.0,3.0,196.0,245.0,294.0,147.0,49.0,98.0,green,square
0.0,4.0,4.0,0.0,7.0,5.0,2011.5529247559607,3.0,1.0,phase_3,,,,,156.0,4.0,78.0,117.0,234.0,39.0,156.0,195.0,cyan,hexagon
0.0,6.0,1.0,1.0,7.0,5.0,3246.147556230426,3.0,1.0,phase_3,,,,,162.0,3.0,108.0,324.0,216.0,270.0,162.0,54.0,yellow,flipped triangle
0.0,7.0,2.0,1.0,7.0,5.0,1479.5519630424678,3.0,1.0,phase_3,,,,,196.0,4.0,294.0,245.0,98.0,49.0,196.0,147.0,blue,triangle
0.0,3.0,2.0,0.0,7.0,2.0,1599.0071408450603,3.0,1.0,phase_3,,,,,117.0,3.0,234.0,117.0,156.0,39.0,78.0,195.0,green,square
0.0,5.0,0.5,1.0,7.0,3.0,888.6461490765214,3.0,1.0,phase_3,,,,,34.0,1.0,204.0,170.0,34.0,102.0,68.0,136.0,white,circle
0.0,6.0,1.0,1.0,7.0,3.0,2228.2774220220745,3.0,1.0,phase_3,,,,,78.0,2.0,39.0,156.0,78.0,117.0,195.0,234.0,yellow,flipped triangle
0.0,6.0,1.0,1.0,7.0,2.0,1618.5031379573047,3.0,1.0,phase_3,,,,,78.0,2.0,117.0,78.0,156.0,234.0,39.0,195.0,yellow,flipped triangle
0.0,2.0,1.0,0.0,7.0,1.0,1230.760884936899,3.0,1.0,phase_3,,,,,216.0,4.0,216.0,108.0,54.0,162.0,270.0,324.0,magenta,I
0.0,5.0,0.5,1.0,7.0,4.0,1054.912697058171,3.0,1.0,phase_3,,,,,54.0,1.0,108.0,162.0,270.0,54.0,324.0,216.0,white,circle
0.0,6.0,1.0,1.0,7.0,6.0,1461.9875801727176,3.0,1.0,phase_3,,,,,68.0,2.0,170.0,34.0,102.0,136.0,204.0,68.0,yellow,flipped triangle
0.0,3.0,2.0,0.0,7.0,4.0,2912.439770065248,3.0,1.0,phase_3,,,,,176.0,4.0,88.0,264.0,132.0,176.0,220.0,44.0,green,square
0.0,2.0,1.0,0.0,7.0,2.0,1817.6025529392064,3.0,1.0,phase_3,,,,,245.0,5.0,294.0,245.0,147.0,196.0,98.0,49.0,magenta,I
0.0,6.0,1.0,1.0,7.0,1.0,2301.454991102218,3.0,1.0,phase_3,,,,,162.0,3.0,162.0,324.0,216.0,54.0,108.0,270.0,yellow,flipped triangle
0.0,5.0,0.5,1.0,7.0,1.0,956.705654039979,3.0,1.0,phase_3,,,,,54.0,1.0,54.0,108.0,324.0,270.0,162.0,216.0,white,circle
0.0,2.0,1.0,0.0,7.0,1.0,1205.7221378199756,3.0,1.0,phase_3,,,,,204.0,6.0,204.0,102.0,136.0,34.0,68.0,170.0,magenta,I
0.0,5.0,0.5,1.0,7.0,2.0,889.9144283495843,4.0,1.0,phase_3,,,,,39.0,1.0,156.0,39.0,78.0,234.0,117.0,195.0,white,circle
0.0,6.0,1.0,1.0,7.0,4.0,1395.8531650714576,4.0,1.0,phase_3,,,,,88.0,2.0,132.0,44.0,176.0,88.0,264.0,220.0,yellow,flipped triangle
0.0,7.0,2.0,1.0,7.0,6.0,1725.252612028271,4.0,1.0,phase_3,,,,,147.0,3.0,49.0,98.0,245.0,294.0,196.0,147.0,blue,triangle
0.0,8.0,4.0,1.0,7.0,6.0,1572.8361010551453,4.0,1.0,phase_3,,,,,204.0,6.0,170.0,34.0,136.0,102.0,68.0,204.0,orange,cross
0.0,8.0,4.0,1.0,7.0,1.0,1446.4805428870022,4.0,1.0,phase_3,,,,,195.0,5.0,195.0,156.0,234.0,117.0,78.0,39.0,orange,cross
0.0,4.0,4.0,0.0,7.0,1.0,2830.8016881346703,4.0,1.0,phase_3,,,,,220.0,5.0,220.0,176.0,44.0,88.0,132.0,264.0,cyan,hexagon
0.0,3.0,2.0,0.0,7.0,2.0,2063.7568440288305,4.0,1.0,phase_3,,,,,102.0,3.0,68.0,102.0,136.0,34.0,204.0,170.0,green,square
0.0,2.0,1.0,0.0,7.0,5.0,1784.4473826698961,4.0,1.0,phase_3,,,,,264.0,6.0,132.0,176.0,88.0,44.0,264.0,220.0,magenta,I
0.0,6.0,1.0,1.0,7.0,1.0,1780.0678052008152,4.0,1.0,phase_3,,,,,176.0,4.0,176.0,264.0,220.0,88.0,132.0,44.0,yellow,flipped triangle
0.0,7.0,2.0,1.0,7.0,6.0,1387.1810347773137,4.0,1.0,phase_3,,,,,88.0,2.0,176.0,44.0,264.0,132.0,220.0,88.0,blue,triangle
0.0,4.0,4.0,0.0,7.0,3.0,1900.987375061959,4.0,1.0,phase_3,,,,,216.0,4.0,108.0,54.0,216.0,270.0,324.0,162.0,cyan,hexagon
0.0,2.0,1.0,0.0,7.0,5.0,1135.112605988979,4.0,1.0,phase_3,,,,,204.0,6.0,68.0,102.0,170.0,34.0,204.0,136.0,magenta,I
0.0,4.0,4.0,0.0,7.0,2.0,1297.3091271705923,4.0,1.0,phase_3,,,,,195.0,5.0,117.0,195.0,78.0,156.0,234.0,39.0,cyan,hexagon
0.0,1.0,0.5,0.0,7.0,3.0,1525.3987247124314,4.0,1.0,phase_3,,,,,68.0,2.0,204.0,136.0,68.0,34.0,170.0,102.0,gray,diamond
0.0,4.0,4.0,0.0,7.0,2.0,1946.122560184449,4.0,1.0,phase_3,,,,,132.0,3.0,176.0,132.0,88.0,264.0,220.0,44.0,cyan,hexagon
0.0,8.0,4.0,1.0,7.0,3.0,1269.6809605695307,4.0,1.0,phase_3,,,,,294.0,6.0,49.0,245.0,294.0,196.0,98.0,147.0,orange,cross
0.0,7.0,2.0,1.0,7.0,1.0,2612.5524970702827,4.0,1.0,phase_3,,,,,102.0,3.0,102.0,136.0,170.0,34.0,204.0,68.0,blue,triangle
0.0,7.0,2.0,1.0,7.0,5.0,1085.6822431087494,4.0,1.0,phase_3,,,,,88.0,2.0,176.0,132.0,264.0,44.0,88.0,220.0,blue,triangle
0.0,8.0,4.0,1.0,7.0,2.0,904.0213651023804,4.0,1.0,phase_3,,,,,220.0,5.0,132.0,220.0,176.0,88.0,44.0,264.0,orange,cross
0.0,7.0,2.0,1.0,7.0,3.0,1212.7971230074763,4.0,1.0,phase_3,,,,,270.0,5.0,162.0,108.0,270.0,324.0,216.0,54.0,blue,triangle
