raw_reward_magnitude,stim_reward,stepwise_reward_magnitude,paired_with_stopping,quadrant,response,reaction_time,block,num_trial_presentations,which_part,stop_signal_trial_type,left_SSD,right_SSD,accuracy,chosen_bidding_amount,chosen_bidding_level,possible_bid_1,possible_bid_2,possible_bid_3,possible_bid_4,possible_bid_5,possible_bid_6,color_text,shape_text
0.0,2.0,0.0,0.0,1.0,1.0,802.8288627974689,1.0,1.0,part_1,,,,,,,,,,,,,magenta,cross
421.0,8.0,4.0,1.0,2.0,2.0,589.9898419156671,1.0,1.0,part_1,,,,,,,,,,,,,blue,diamond
218.0,7.0,3.0,1.0,1.0,1.0,549.2714461870492,1.0,1.0,part_1,,,,,,,,,,,,,green,triangle
187.0,7.0,3.0,1.0,2.0,2.0,296.760899014771,1.0,1.0,part_1,,,,,,,,,,,,,green,triangle
223.0,3.0,3.0,0.0,1.0,1.0,462.7250512130558,1.0,1.0,part_1,,,,,,,,,,,,,gray,I
109.0,2.0,2.0,0.0,3.0,3.0,297.0417789183557,1.0,1.0,part_1,,,,,,,,,,,,,magenta,cross
89.0,2.0,2.0,0.0,1.0,1.0,293.1618639267981,1.0,1.0,part_1,,,,,,,,,,,,,magenta,cross
399.0,8.0,4.0,1.0,1.0,1.0,380.3913732990622,1.0,1.0,part_1,,,,,,,,,,,,,blue,diamond
27.0,5.0,1.0,1.0,3.0,3.0,326.1692631058395,1.0,1.0,part_1,,,,,,,,,,,,,cyan,hexagon
79.0,2.0,2.0,0.0,3.0,3.0,332.8644069842994,1.0,1.0,part_1,,,,,,,,,,,,,magenta,cross
90.0,2.0,2.0,0.0,4.0,4.0,321.5242112055421,1.0,1.0,part_1,,,,,,,,,,,,,magenta,cross
385.0,8.0,4.0,1.0,3.0,3.0,343.0596301332116,1.0,1.0,part_1,,,,,,,,,,,,,blue,diamond
57.0,1.0,1.0,0.0,1.0,1.0,291.6825460270047,1.0,1.0,part_1,,,,,,,,,,,,,orange,square
0.0,1.0,0.0,0.0,4.0,4.0,271.6431790031492,1.0,1.0,part_1,,,,,,,,,,,,,orange,square
61.0,5.0,1.0,1.0,4.0,4.0,349.064105655998,1.0,1.0,part_1,,,,,,,,,,,,,cyan,hexagon
94.0,6.0,2.0,1.0,1.0,1.0,352.0862190052867,1.0,1.0,part_1,,,,,,,,,,,,,white,flipped triangle
81.0,2.0,2.0,0.0,4.0,4.0,308.1032279878855,1.0,1.0,part_1,,,,,,,,,,,,,magenta,cross
184.0,3.0,3.0,0.0,3.0,3.0,330.855609383434,1.0,1.0,part_1,,,,,,,,,,,,,gray,I
195.0,7.0,3.0,1.0,3.0,3.0,352.9712245799601,1.0,1.0,part_1,,,,,,,,,,,,,green,triangle
197.0,3.0,3.0,0.0,2.0,2.0,349.03525607660407,1.0,1.0,part_1,,,,,,,,,,,,,gray,I
74.0,1.0,1.0,0.0,4.0,4.0,271.677603945136,1.0,1.0,part_1,,,,,,,,,,,,,orange,square
402.0,8.0,4.0,1.0,1.0,1.0,358.0902111716568,1.0,1.0,part_1,,,,,,,,,,,,,blue,diamond
81.0,6.0,2.0,1.0,1.0,1.0,402.3743467405438,1.0,1.0,part_1,,,,,,,,,,,,,white,flipped triangle
0.0,4.0,0.0,0.0,4.0,4.0,292.8804368712008,1.0,1.0,part_1,,,,,,,,,,,,,yellow,circle
201.0,3.0,3.0,0.0,4.0,4.0,373.5311762429774,1.0,1.0,part_1,,,,,,,,,,,,,gray,I
390.0,8.0,4.0,1.0,2.0,2.0,320.7408259622752,1.0,1.0,part_1,,,,,,,,,,,,,blue,diamond
0.0,5.0,0.0,1.0,1.0,1.0,300.7263410836458,1.0,1.0,part_1,,,,,,,,,,,,,cyan,hexagon
108.0,2.0,2.0,0.0,1.0,1.0,367.2682857140898,1.0,1.0,part_1,,,,,,,,,,,,,magenta,cross
391.0,4.0,4.0,0.0,4.0,4.0,310.1437520235777,1.0,1.0,part_1,,,,,,,,,,,,,yellow,circle
0.0,6.0,0.0,1.0,3.0,3.0,304.8376459628343,1.0,1.0,part_1,,,,,,,,,,,,,white,flipped triangle
83.0,6.0,2.0,1.0,1.0,1.0,272.6808302104473,1.0,1.0,part_1,,,,,,,,,,,,,white,flipped triangle
182.0,3.0,3.0,0.0,1.0,1.0,357.7901511453092,1.0,1.0,part_1,,,,,,,,,,,,,gray,I
90.0,6.0,2.0,1.0,3.0,3.0,288.5011862963438,1.0,1.0,part_1,,,,,,,,,,,,,white,flipped triangle
0.0,1.0,0.0,0.0,1.0,1.0,309.1541319154203,1.0,1.0,part_1,,,,,,,,,,,,,orange,square
376.0,4.0,4.0,0.0,2.0,2.0,313.3583622984588,1.0,1.0,part_1,,,,,,,,,,,,,yellow,circle
0.0,2.0,0.0,0.0,4.0,4.0,292.7785380743444,1.0,1.0,part_1,,,,,,,,,,,,,magenta,cross
61.0,1.0,1.0,0.0,2.0,2.0,428.9115099236369,1.0,1.0,part_1,,,,,,,,,,,,,orange,square
203.0,3.0,3.0,0.0,2.0,2.0,367.8561076521873,1.0,1.0,part_1,,,,,,,,,,,,,gray,I
0.0,5.0,0.0,1.0,4.0,4.0,333.1948169507086,1.0,1.0,part_1,,,,,,,,,,,,,cyan,hexagon
210.0,3.0,3.0,0.0,1.0,1.0,304.1802048683166,1.0,1.0,part_1,,,,,,,,,,,,,gray,I
189.0,7.0,3.0,1.0,2.0,2.0,444.3496731109917,1.0,1.0,part_1,,,,,,,,,,,,,green,triangle
385.0,4.0,4.0,0.0,3.0,3.0,345.3257288783788,1.0,1.0,part_1,,,,,,,,,,,,,yellow,circle
118.0,6.0,2.0,1.0,1.0,1.0,320.7224872894585,1.0,1.0,part_1,,,,,,,,,,,,,white,flipped triangle
377.0,8.0,4.0,1.0,4.0,4.0,317.3220101743936,1.0,1.0,part_1,,,,,,,,,,,,,blue,diamond
43.0,5.0,1.0,1.0,2.0,2.0,321.2458556517958,1.0,1.0,part_1,,,,,,,,,,,,,cyan,hexagon
208.0,3.0,3.0,0.0,4.0,4.0,328.1449661590159,1.0,1.0,part_1,,,,,,,,,,,,,gray,I
74.0,5.0,1.0,1.0,3.0,3.0,378.2204650342464,1.0,1.0,part_1,,,,,,,,,,,,,cyan,hexagon
0.0,4.0,0.0,0.0,2.0,2.0,319.7160460986197,1.0,1.0,part_1,,,,,,,,,,,,,yellow,circle
76.0,2.0,2.0,0.0,2.0,2.0,381.4409002661705,1.0,1.0,part_1,,,,,,,,,,,,,magenta,cross
94.0,2.0,2.0,0.0,4.0,4.0,329.1204562410712,1.0,1.0,part_1,,,,,,,,,,,,,magenta,cross
0.0,6.0,0.0,1.0,4.0,4.0,307.8263057395816,1.0,1.0,part_1,,,,,,,,,,,,,white,flipped triangle
0.0,3.0,0.0,0.0,3.0,3.0,482.0242961868644,1.0,1.0,part_1,,,,,,,,,,,,,gray,I
396.0,4.0,4.0,0.0,4.0,4.0,344.3946419283747,1.0,1.0,part_1,,,,,,,,,,,,,yellow,circle
35.0,1.0,1.0,0.0,3.0,3.0,396.6159420087933,1.0,1.0,part_1,,,,,,,,,,,,,orange,square
211.0,3.0,3.0,0.0,2.0,2.0,359.6758618950844,1.0,1.0,part_1,,,,,,,,,,,,,gray,I
413.0,4.0,4.0,0.0,2.0,2.0,348.7306237220764,1.0,1.0,part_1,,,,,,,,,,,,,yellow,circle
86.0,6.0,2.0,1.0,3.0,3.0,327.7843073010444,1.0,1.0,part_1,,,,,,,,,,,,,white,flipped triangle
407.0,4.0,4.0,0.0,4.0,4.0,336.2749507650733,1.0,1.0,part_1,,,,,,,,,,,,,yellow,circle
100.0,6.0,2.0,1.0,4.0,4.0,344.7671923786402,1.0,1.0,part_1,,,,,,,,,,,,,white,flipped triangle
0.0,2.0,0.0,0.0,1.0,1.0,349.6100408956408,1.0,1.0,part_1,,,,,,,,,,,,,magenta,cross
108.0,6.0,2.0,1.0,2.0,2.0,316.2683951668441,1.0,1.0,part_1,,,,,,,,,,,,,white,flipped triangle
109.0,6.0,2.0,1.0,1.0,1.0,382.5473571196198,1.0,1.0,part_1,,,,,,,,,,,,,white,flipped triangle
396.0,8.0,4.0,1.0,4.0,4.0,317.386046051979,1.0,1.0,part_1,,,,,,,,,,,,,blue,diamond
58.0,5.0,1.0,1.0,4.0,4.0,337.5048949383199,1.0,1.0,part_1,,,,,,,,,,,,,cyan,hexagon
37.0,5.0,1.0,1.0,1.0,1.0,374.7409470379352,1.0,1.0,part_1,,,,,,,,,,,,,cyan,hexagon
112.0,6.0,2.0,1.0,4.0,4.0,307.6399508863687,1.0,1.0,part_1,,,,,,,,,,,,,white,flipped triangle
0.0,7.0,0.0,1.0,3.0,3.0,390.2044678106904,1.0,1.0,part_1,,,,,,,,,,,,,green,triangle
55.0,5.0,1.0,1.0,3.0,3.0,325.5526353605091,1.0,1.0,part_1,,,,,,,,,,,,,cyan,hexagon
32.0,1.0,1.0,0.0,4.0,4.0,337.645614054054,1.0,1.0,part_1,,,,,,,,,,,,,orange,square
49.0,1.0,1.0,0.0,4.0,4.0,296.2731467559933,1.0,1.0,part_1,,,,,,,,,,,,,orange,square
176.0,7.0,3.0,1.0,3.0,3.0,403.4523046575486,1.0,1.0,part_1,,,,,,,,,,,,,green,triangle
386.0,8.0,4.0,1.0,2.0,2.0,345.5128991045058,1.0,1.0,part_1,,,,,,,,,,,,,blue,diamond
413.0,4.0,4.0,0.0,1.0,1.0,427.5669287890196,1.0,1.0,part_1,,,,,,,,,,,,,yellow,circle
196.0,7.0,3.0,1.0,3.0,3.0,448.6024300567806,1.0,1.0,part_1,,,,,,,,,,,,,green,triangle
41.0,5.0,1.0,1.0,3.0,3.0,376.0356130078435,1.0,1.0,part_1,,,,,,,,,,,,,cyan,hexagon
121.0,6.0,2.0,1.0,4.0,4.0,345.2800661325454,1.0,1.0,part_1,,,,,,,,,,,,,white,flipped triangle
420.0,8.0,4.0,1.0,4.0,4.0,358.0010272562504,1.0,1.0,part_1,,,,,,,,,,,,,blue,diamond
89.0,6.0,2.0,1.0,4.0,4.0,388.7139577418566,1.0,1.0,part_1,,,,,,,,,,,,,white,flipped triangle
111.0,6.0,2.0,1.0,2.0,2.0,391.603962983936,1.0,1.0,part_1,,,,,,,,,,,,,white,flipped triangle
0.0,4.0,0.0,0.0,2.0,2.0,405.0433542579412,1.0,1.0,part_1,,,,,,,,,,,,,yellow,circle
111.0,2.0,2.0,0.0,2.0,2.0,375.5146032199263,1.0,1.0,part_1,,,,,,,,,,,,,magenta,cross
393.0,4.0,4.0,0.0,1.0,1.0,359.7773280926049,1.0,1.0,part_1,,,,,,,,,,,,,yellow,circle
0.0,6.0,0.0,1.0,1.0,1.0,394.6749190799892,1.0,1.0,part_1,,,,,,,,,,,,,white,flipped triangle
61.0,5.0,1.0,1.0,1.0,1.0,360.3944410569966,1.0,1.0,part_1,,,,,,,,,,,,,cyan,hexagon
0.0,1.0,0.0,0.0,4.0,4.0,308.8846439495682,1.0,1.0,part_1,,,,,,,,,,,,,orange,square
77.0,6.0,2.0,1.0,4.0,4.0,345.2913500368595,1.0,1.0,part_1,,,,,,,,,,,,,white,flipped triangle
0.0,4.0,0.0,0.0,1.0,1.0,407.9907350242138,1.0,1.0,part_1,,,,,,,,,,,,,yellow,circle
0.0,7.0,0.0,1.0,1.0,1.0,444.4725476205349,1.0,1.0,part_1,,,,,,,,,,,,,green,triangle
193.0,7.0,3.0,1.0,4.0,4.0,415.6845058314502,1.0,1.0,part_1,,,,,,,,,,,,,green,triangle
410.0,4.0,4.0,0.0,2.0,2.0,418.4902478009462,1.0,1.0,part_1,,,,,,,,,,,,,yellow,circle
0.0,3.0,0.0,0.0,2.0,2.0,370.4390288330614,1.0,1.0,part_1,,,,,,,,,,,,,gray,I
0.0,5.0,0.0,1.0,4.0,4.0,349.8451188206672,1.0,1.0,part_1,,,,,,,,,,,,,cyan,hexagon
43.0,5.0,1.0,1.0,3.0,3.0,440.2118637226522,1.0,1.0,part_1,,,,,,,,,,,,,cyan,hexagon
0.0,7.0,0.0,1.0,4.0,4.0,391.0054368898272,1.0,1.0,part_1,,,,,,,,,,,,,green,triangle
73.0,1.0,1.0,0.0,2.0,2.0,353.7033339962363,1.0,1.0,part_1,,,,,,,,,,,,,orange,square
407.0,4.0,4.0,0.0,1.0,1.0,339.4941701553762,1.0,2.0,part_1,,,,,,,,,,,,,yellow,circle
378.0,8.0,4.0,1.0,1.0,1.0,331.0662042349577,1.0,1.0,part_1,,,,,,,,,,,,,blue,diamond
96.0,2.0,2.0,0.0,1.0,1.0,342.1113188378513,1.0,1.0,part_1,,,,,,,,,,,,,magenta,cross
0.0,3.0,0.0,0.0,1.0,1.0,330.148006323725,1.0,1.0,part_1,,,,,,,,,,,,,gray,I
390.0,8.0,4.0,1.0,1.0,1.0,319.7182081639766,1.0,1.0,part_1,,,,,,,,,,,,,blue,diamond
37.0,5.0,1.0,1.0,3.0,3.0,369.5785221643746,2.0,1.0,part_1,,,,,,,,,,,,,cyan,hexagon
378.0,4.0,4.0,0.0,1.0,1.0,326.8280941992998,2.0,1.0,part_1,,,,,,,,,,,,,yellow,circle
190.0,7.0,3.0,1.0,3.0,3.0,329.9618647433817,2.0,1.0,part_1,,,,,,,,,,,,,green,triangle
378.0,8.0,4.0,1.0,2.0,2.0,302.8935301117599,2.0,1.0,part_1,,,,,,,,,,,,,blue,diamond
408.0,4.0,4.0,0.0,1.0,1.0,381.3939676620066,2.0,1.0,part_1,,,,,,,,,,,,,yellow,circle
203.0,7.0,3.0,1.0,1.0,1.0,409.5564731396734,2.0,1.0,part_1,,,,,,,,,,,,,green,triangle
43.0,1.0,1.0,0.0,4.0,4.0,317.5463899970054,2.0,1.0,part_1,,,,,,,,,,,,,orange,square
220.0,7.0,3.0,1.0,3.0,3.0,383.8705685921013,2.0,1.0,part_1,,,,,,,,,,,,,green,triangle
101.0,2.0,2.0,0.0,3.0,3.0,391.3927227258682,2.0,1.0,part_1,,,,,,,,,,,,,magenta,cross
66.0,1.0,1.0,0.0,3.0,3.0,410.0744761526584,2.0,1.0,part_1,,,,,,,,,,,,,orange,square
46.0,5.0,1.0,1.0,1.0,1.0,329.3407009914517,2.0,1.0,part_1,,,,,,,,,,,,,cyan,hexagon
118.0,2.0,2.0,0.0,2.0,2.0,349.7562268748879,2.0,1.0,part_1,,,,,,,,,,,,,magenta,cross
112.0,2.0,2.0,0.0,3.0,3.0,415.116545278579,2.0,1.0,part_1,,,,,,,,,,,,,magenta,cross
0.0,1.0,0.0,0.0,2.0,2.0,373.415837995708,2.0,1.0,part_1,,,,,,,,,,,,,orange,square
0.0,8.0,0.0,1.0,2.0,2.0,451.8195809796452,2.0,1.0,part_1,,,,,,,,,,,,,blue,diamond
223.0,7.0,3.0,1.0,1.0,1.0,393.1705961003899,2.0,1.0,part_1,,,,,,,,,,,,,green,triangle
0.0,1.0,0.0,0.0,3.0,3.0,413.4749760851264,2.0,1.0,part_1,,,,,,,,,,,,,orange,square
402.0,4.0,4.0,0.0,3.0,3.0,498.9444729872048,2.0,1.0,part_1,,,,,,,,,,,,,yellow,circle
184.0,7.0,3.0,1.0,4.0,4.0,454.0582098998129,2.0,1.0,part_1,,,,,,,,,,,,,green,triangle
68.0,5.0,1.0,1.0,4.0,4.0,459.1815150342881,2.0,1.0,part_1,,,,,,,,,,,,,cyan,hexagon
0.0,8.0,0.0,1.0,4.0,4.0,454.6960899606347,2.0,1.0,part_1,,,,,,,,,,,,,blue,diamond
103.0,6.0,2.0,1.0,2.0,2.0,385.3202657774091,2.0,1.0,part_1,,,,,,,,,,,,,white,flipped triangle
0.0,5.0,0.0,1.0,4.0,4.0,384.1206361539662,2.0,1.0,part_1,,,,,,,,,,,,,cyan,hexagon
176.0,7.0,3.0,1.0,4.0,4.0,445.8139692433178,2.0,1.0,part_1,,,,,,,,,,,,,green,triangle
383.0,4.0,4.0,0.0,4.0,4.0,425.8139058947563,2.0,1.0,part_1,,,,,,,,,,,,,yellow,circle
87.0,2.0,2.0,0.0,2.0,2.0,380.3235851228237,2.0,1.0,part_1,,,,,,,,,,,,,magenta,cross
53.0,1.0,1.0,0.0,3.0,3.0,507.7870339155197,2.0,1.0,part_1,,,,,,,,,,,,,orange,square
115.0,2.0,2.0,0.0,3.0,3.0,529.137035831809,2.0,1.0,part_1,,,,,,,,,,,,,magenta,cross
0.0,4.0,0.0,0.0,1.0,1.0,565.8202460035682,2.0,1.0,part_1,,,,,,,,,,,,,yellow,circle
0.0,2.0,0.0,0.0,2.0,2.0,393.4634146280586,2.0,1.0,part_1,,,,,,,,,,,,,magenta,cross
187.0,3.0,3.0,0.0,4.0,4.0,446.2054739706218,2.0,1.0,part_1,,,,,,,,,,,,,gray,I
123.0,2.0,2.0,0.0,3.0,3.0,529.6097160317004,2.0,1.0,part_1,,,,,,,,,,,,,magenta,cross
57.0,5.0,1.0,1.0,2.0,2.0,336.1023059114814,2.0,1.0,part_1,,,,,,,,,,,,,cyan,hexagon
82.0,6.0,2.0,1.0,3.0,3.0,507.6789711602032,2.0,1.0,part_1,,,,,,,,,,,,,white,flipped triangle
71.0,1.0,1.0,0.0,1.0,1.0,568.3338497765362,2.0,1.0,part_1,,,,,,,,,,,,,orange,square
48.0,1.0,1.0,0.0,1.0,1.0,507.581755053252,2.0,1.0,part_1,,,,,,,,,,,,,orange,square
0.0,1.0,0.0,0.0,4.0,4.0,376.5739127993583,2.0,1.0,part_1,,,,,,,,,,,,,orange,square
423.0,4.0,4.0,0.0,3.0,3.0,445.6416829489171,2.0,1.0,part_1,,,,,,,,,,,,,yellow,circle
377.0,4.0,4.0,0.0,2.0,2.0,402.6898806914687,2.0,1.0,part_1,,,,,,,,,,,,,yellow,circle
390.0,4.0,4.0,0.0,3.0,3.0,397.9020686820149,2.0,1.0,part_1,,,,,,,,,,,,,yellow,circle
197.0,7.0,3.0,1.0,1.0,1.0,549.7271795757115,2.0,1.0,part_1,,,,,,,,,,,,,green,triangle
217.0,7.0,3.0,1.0,1.0,1.0,465.1725557632744,2.0,1.0,part_1,,,,,,,,,,,,,green,triangle
0.0,6.0,0.0,1.0,2.0,2.0,452.6613587513566,2.0,1.0,part_1,,,,,,,,,,,,,white,flipped triangle
0.0,8.0,0.0,1.0,2.0,2.0,419.46537606418127,2.0,1.0,part_1,,,,,,,,,,,,,blue,diamond
202.0,3.0,3.0,0.0,3.0,3.0,365.8472080715,2.0,1.0,part_1,,,,,,,,,,,,,gray,I
48.0,5.0,1.0,1.0,4.0,4.0,394.219271838665,2.0,1.0,part_1,,,,,,,,,,,,,cyan,hexagon
197.0,3.0,3.0,0.0,2.0,2.0,377.9582041315734,2.0,1.0,part_1,,,,,,,,,,,,,gray,I
175.0,7.0,3.0,1.0,4.0,4.0,398.3279443345964,2.0,1.0,part_1,,,,,,,,,,,,,green,triangle
112.0,2.0,2.0,0.0,1.0,1.0,427.1718091331422,2.0,1.0,part_1,,,,,,,,,,,,,magenta,cross
410.0,8.0,4.0,1.0,3.0,3.0,486.8799587711692,2.0,1.0,part_1,,,,,,,,,,,,,blue,diamond
27.0,5.0,1.0,1.0,2.0,2.0,378.5672108642757,2.0,1.0,part_1,,,,,,,,,,,,,cyan,hexagon
203.0,3.0,3.0,0.0,3.0,3.0,455.1730789244175,2.0,1.0,part_1,,,,,,,,,,,,,gray,I
203.0,3.0,3.0,0.0,3.0,3.0,430.8269927278161,2.0,1.0,part_1,,,,,,,,,,,,,gray,I
53.0,5.0,1.0,1.0,2.0,2.0,409.1207589954138,2.0,1.0,part_1,,,,,,,,,,,,,cyan,hexagon
402.0,8.0,4.0,1.0,1.0,1.0,516.6715420782566,2.0,1.0,part_1,,,,,,,,,,,,,blue,diamond
387.0,4.0,4.0,0.0,4.0,4.0,321.6805639676749,2.0,1.0,part_1,,,,,,,,,,,,,yellow,circle
202.0,7.0,3.0,1.0,1.0,1.0,376.3695992529392,2.0,1.0,part_1,,,,,,,,,,,,,green,triangle
81.0,6.0,2.0,1.0,4.0,4.0,379.9672462046146,2.0,1.0,part_1,,,,,,,,,,,,,white,flipped triangle
0.0,6.0,0.0,1.0,1.0,1.0,361.8213422596454,2.0,1.0,part_1,,,,,,,,,,,,,white,flipped triangle
86.0,6.0,2.0,1.0,2.0,2.0,398.4426190145314,2.0,1.0,part_1,,,,,,,,,,,,,white,flipped triangle
177.0,3.0,3.0,0.0,1.0,1.0,561.9177930057049,2.0,1.0,part_1,,,,,,,,,,,,,gray,I
423.0,4.0,4.0,0.0,2.0,2.0,341.6831148788333,2.0,1.0,part_1,,,,,,,,,,,,,yellow,circle
66.0,1.0,1.0,0.0,2.0,2.0,395.5541360192001,2.0,1.0,part_1,,,,,,,,,,,,,orange,square
186.0,3.0,3.0,0.0,2.0,2.0,424.8012909665704,2.0,1.0,part_1,,,,,,,,,,,,,gray,I
89.0,2.0,2.0,0.0,4.0,4.0,396.0071019828319,2.0,1.0,part_1,,,,,,,,,,,,,magenta,cross
28.0,1.0,1.0,0.0,3.0,3.0,442.945403046906,2.0,1.0,part_1,,,,,,,,,,,,,orange,square
120.0,6.0,2.0,1.0,2.0,2.0,406.9927847012877,2.0,1.0,part_1,,,,,,,,,,,,,white,flipped triangle
74.0,1.0,1.0,0.0,1.0,1.0,468.0150030180812,2.0,1.0,part_1,,,,,,,,,,,,,orange,square
55.0,1.0,1.0,0.0,4.0,4.0,322.0232417806983,2.0,1.0,part_1,,,,,,,,,,,,,orange,square
119.0,2.0,2.0,0.0,2.0,2.0,378.9172121323645,2.0,1.0,part_1,,,,,,,,,,,,,magenta,cross
413.0,8.0,4.0,1.0,4.0,4.0,343.9872809685766,2.0,1.0,part_1,,,,,,,,,,,,,blue,diamond
103.0,6.0,2.0,1.0,1.0,1.0,403.6348429508507,2.0,1.0,part_1,,,,,,,,,,,,,white,flipped triangle
121.0,2.0,2.0,0.0,4.0,4.0,354.6290108934045,2.0,1.0,part_1,,,,,,,,,,,,,magenta,cross
413.0,8.0,4.0,1.0,4.0,4.0,510.20505791530013,2.0,1.0,part_1,,,,,,,,,,,,,blue,diamond
396.0,8.0,4.0,1.0,2.0,2.0,388.7589569203555,2.0,1.0,part_1,,,,,,,,,,,,,blue,diamond
96.0,6.0,2.0,1.0,3.0,3.0,346.7049757018685,2.0,1.0,part_1,,,,,,,,,,,,,white,flipped triangle
0.0,3.0,0.0,0.0,4.0,4.0,429.333264939487,2.0,1.0,part_1,,,,,,,,,,,,,gray,I
182.0,7.0,3.0,1.0,2.0,2.0,419.2830738611519,2.0,1.0,part_1,,,,,,,,,,,,,green,triangle
384.0,4.0,4.0,0.0,3.0,3.0,455.6256942451,2.0,1.0,part_1,,,,,,,,,,,,,yellow,circle
381.0,4.0,4.0,0.0,4.0,4.0,468.4433727525174,2.0,1.0,part_1,,,,,,,,,,,,,yellow,circle
215.0,3.0,3.0,0.0,4.0,4.0,529.0265260264277,2.0,1.0,part_1,,,,,,,,,,,,,gray,I
387.0,8.0,4.0,1.0,4.0,4.0,455.657267011702,2.0,1.0,part_1,,,,,,,,,,,,,blue,diamond
51.0,1.0,1.0,0.0,2.0,2.0,466.1385552026331,2.0,1.0,part_1,,,,,,,,,,,,,orange,square
0.0,2.0,0.0,0.0,4.0,4.0,422.7458871901035,2.0,1.0,part_1,,,,,,,,,,,,,magenta,cross
115.0,6.0,2.0,1.0,3.0,3.0,562.1772240847349,2.0,1.0,part_1,,,,,,,,,,,,,white,flipped triangle
86.0,2.0,2.0,0.0,1.0,1.0,856.4451588317752,2.0,1.0,part_1,,,,,,,,,,,,,magenta,cross
209.0,7.0,3.0,1.0,2.0,2.0,430.0283300690353,2.0,1.0,part_1,,,,,,,,,,,,,green,triangle
189.0,3.0,3.0,0.0,1.0,1.0,521.6330508701503,2.0,1.0,part_1,,,,,,,,,,,,,gray,I
93.0,6.0,2.0,1.0,2.0,2.0,436.5000608377158,2.0,1.0,part_1,,,,,,,,,,,,,white,flipped triangle
49.0,1.0,1.0,0.0,4.0,4.0,482.0320061407983,2.0,1.0,part_1,,,,,,,,,,,,,orange,square
0.0,1.0,0.0,0.0,3.0,3.0,471.8820247799158,2.0,1.0,part_1,,,,,,,,,,,,,orange,square
204.0,7.0,3.0,1.0,3.0,3.0,565.3632818721235,2.0,1.0,part_1,,,,,,,,,,,,,green,triangle
43.0,1.0,1.0,0.0,2.0,2.0,480.0300258211791,2.0,1.0,part_1,,,,,,,,,,,,,orange,square
69.0,5.0,1.0,1.0,3.0,3.0,450.9870209731161,2.0,1.0,part_1,,,,,,,,,,,,,cyan,hexagon
97.0,2.0,2.0,0.0,1.0,1.0,491.3700981996953,2.0,1.0,part_1,,,,,,,,,,,,,magenta,cross
63.0,1.0,1.0,0.0,2.0,2.0,415.5440577305853,2.0,1.0,part_1,,,,,,,,,,,,,orange,square
40.0,1.0,1.0,0.0,2.0,2.0,499.8799650929868,2.0,1.0,part_1,,,,,,,,,,,,,orange,square
38.0,5.0,1.0,1.0,2.0,2.0,479.5829770155251,2.0,1.0,part_1,,,,,,,,,,,,,cyan,hexagon
223.0,3.0,3.0,0.0,1.0,1.0,605.8811810798943,2.0,1.0,part_1,,,,,,,,,,,,,gray,I
208.0,7.0,3.0,1.0,2.0,2.0,480.8469130657613,2.0,1.0,part_1,,,,,,,,,,,,,green,triangle
0.0,5.0,0.0,1.0,3.0,3.0,526.1754961684346,3.0,1.0,part_1,,,,,,,,,,,,,cyan,hexagon
381.0,8.0,4.0,1.0,3.0,3.0,395.2349806204438,3.0,1.0,part_1,,,,,,,,,,,,,blue,diamond
387.0,4.0,4.0,0.0,2.0,2.0,352.7214233763516,3.0,1.0,part_1,,,,,,,,,,,,,yellow,circle
383.0,8.0,4.0,1.0,3.0,3.0,438.8767690397799,3.0,1.0,part_1,,,,,,,,,,,,,blue,diamond
0.0,2.0,0.0,0.0,4.0,4.0,419.0963576547801,3.0,1.0,part_1,,,,,,,,,,,,,magenta,cross
32.0,5.0,1.0,1.0,4.0,4.0,407.5339580886066,3.0,1.0,part_1,,,,,,,,,,,,,cyan,hexagon
58.0,1.0,1.0,0.0,1.0,1.0,388.9679280109703,3.0,1.0,part_1,,,,,,,,,,,,,orange,square
423.0,8.0,4.0,1.0,1.0,1.0,497.0429977402091,3.0,1.0,part_1,,,,,,,,,,,,,blue,diamond
210.0,7.0,3.0,1.0,1.0,1.0,534.8519049584866,3.0,1.0,part_1,,,,,,,,,,,,,green,triangle
82.0,2.0,2.0,0.0,2.0,2.0,431.2840797938406,3.0,1.0,part_1,,,,,,,,,,,,,magenta,cross
0.0,5.0,0.0,1.0,2.0,2.0,446.5846633538604,3.0,1.0,part_1,,,,,,,,,,,,,cyan,hexagon
414.0,4.0,4.0,0.0,3.0,3.0,395.1352871954441,3.0,1.0,part_1,,,,,,,,,,,,,yellow,circle
393.0,8.0,4.0,1.0,3.0,3.0,415.3796578757465,3.0,1.0,part_1,,,,,,,,,,,,,blue,diamond
189.0,3.0,3.0,0.0,4.0,4.0,470.2430302277207,3.0,1.0,part_1,,,,,,,,,,,,,gray,I
86.0,2.0,2.0,0.0,4.0,4.0,481.9534500129521,3.0,1.0,part_1,,,,,,,,,,,,,magenta,cross
89.0,6.0,2.0,1.0,1.0,1.0,382.2050699964165,3.0,1.0,part_1,,,,,,,,,,,,,white,flipped triangle
68.0,5.0,1.0,1.0,1.0,1.0,440.4632141813636,3.0,1.0,part_1,,,,,,,,,,,,,cyan,hexagon
26.0,5.0,1.0,1.0,4.0,4.0,377.1924711763859,3.0,1.0,part_1,,,,,,,,,,,,,cyan,hexagon
186.0,7.0,3.0,1.0,4.0,4.0,426.1795529164374,3.0,1.0,part_1,,,,,,,,,,,,,green,triangle
0.0,4.0,0.0,0.0,4.0,4.0,391.0270761698484,3.0,1.0,part_1,,,,,,,,,,,,,yellow,circle
97.0,6.0,2.0,1.0,1.0,1.0,382.774799130857,3.0,1.0,part_1,,,,,,,,,,,,,white,flipped triangle
0.0,7.0,0.0,1.0,2.0,2.0,386.6614857688546,3.0,1.0,part_1,,,,,,,,,,,,,green,triangle
0.0,6.0,0.0,1.0,1.0,1.0,452.169784810394,3.0,1.0,part_1,,,,,,,,,,,,,white,flipped triangle
384.0,8.0,4.0,1.0,1.0,1.0,434.3072311021387,3.0,1.0,part_1,,,,,,,,,,,,,blue,diamond
27.0,1.0,1.0,0.0,3.0,3.0,421.8414900824427,3.0,1.0,part_1,,,,,,,,,,,,,orange,square
417.0,4.0,4.0,0.0,3.0,3.0,427.5453956797719,3.0,1.0,part_1,,,,,,,,,,,,,yellow,circle
0.0,7.0,0.0,1.0,1.0,1.0,398.7751780077815,3.0,1.0,part_1,,,,,,,,,,,,,green,triangle
391.0,8.0,4.0,1.0,4.0,4.0,420.4286420717835,3.0,1.0,part_1,,,,,,,,,,,,,blue,diamond
0.0,5.0,0.0,1.0,1.0,1.0,370.1826529577374,3.0,1.0,part_1,,,,,,,,,,,,,cyan,hexagon
102.0,2.0,2.0,0.0,2.0,2.0,397.7328659966588,3.0,1.0,part_1,,,,,,,,,,,,,magenta,cross
220.0,3.0,3.0,0.0,2.0,2.0,452.64845807105297,3.0,1.0,part_1,,,,,,,,,,,,,gray,I
201.0,7.0,3.0,1.0,4.0,4.0,369.3538941442966,3.0,1.0,part_1,,,,,,,,,,,,,green,triangle
66.0,5.0,1.0,1.0,2.0,2.0,381.1328005976975,3.0,1.0,part_1,,,,,,,,,,,,,cyan,hexagon
177.0,7.0,3.0,1.0,1.0,1.0,384.6523351967335,3.0,1.0,part_1,,,,,,,,,,,,,green,triangle
0.0,4.0,0.0,0.0,1.0,1.0,438.9680619351566,3.0,1.0,part_1,,,,,,,,,,,,,yellow,circle
398.0,8.0,4.0,1.0,3.0,3.0,449.7270449064672,3.0,1.0,part_1,,,,,,,,,,,,,blue,diamond
55.0,5.0,1.0,1.0,3.0,3.0,422.9377252049744,3.0,1.0,part_1,,,,,,,,,,,,,cyan,hexagon
221.0,7.0,3.0,1.0,3.0,3.0,500.67470595240593,3.0,1.0,part_1,,,,,,,,,,,,,green,triangle
37.0,1.0,1.0,0.0,4.0,4.0,439.5281877368688,3.0,1.0,part_1,,,,,,,,,,,,,orange,square
116.0,6.0,2.0,1.0,2.0,2.0,407.1140773594379,3.0,1.0,part_1,,,,,,,,,,,,,white,flipped triangle
87.0,6.0,2.0,1.0,3.0,3.0,353.5539810545742,3.0,1.0,part_1,,,,,,,,,,,,,white,flipped triangle
390.0,4.0,4.0,0.0,2.0,2.0,423.8864933140576,3.0,1.0,part_1,,,,,,,,,,,,,yellow,circle
207.0,3.0,3.0,0.0,3.0,3.0,412.319672293961,3.0,1.0,part_1,,,,,,,,,,,,,gray,I
102.0,6.0,2.0,1.0,2.0,2.0,398.4427829273045,3.0,1.0,part_1,,,,,,,,,,,,,white,flipped triangle
0.0,6.0,0.0,1.0,3.0,3.0,383.0331270582974,3.0,1.0,part_1,,,,,,,,,,,,,white,flipped triangle
0.0,7.0,0.0,1.0,1.0,1.0,459.528783801943,3.0,1.0,part_1,,,,,,,,,,,,,green,triangle
0.0,5.0,0.0,1.0,1.0,1.0,518.9025332219899,3.0,1.0,part_1,,,,,,,,,,,,,cyan,hexagon
209.0,3.0,3.0,0.0,4.0,4.0,405.6065999902785,3.0,1.0,part_1,,,,,,,,,,,,,gray,I
36.0,5.0,1.0,1.0,1.0,1.0,480.5241618305444,3.0,1.0,part_1,,,,,,,,,,,,,cyan,hexagon
176.0,3.0,3.0,0.0,1.0,1.0,534.2693170532584,3.0,1.0,part_1,,,,,,,,,,,,,gray,I
195.0,3.0,3.0,0.0,3.0,3.0,463.8595390133559,3.0,1.0,part_1,,,,,,,,,,,,,gray,I
0.0,2.0,0.0,0.0,3.0,3.0,438.9020358212292,3.0,1.0,part_1,,,,,,,,,,,,,magenta,cross
0.0,1.0,0.0,0.0,2.0,2.0,394.6203528903425,3.0,1.0,part_1,,,,,,,,,,,,,orange,square
79.0,6.0,2.0,1.0,2.0,2.0,381.6450331360101,3.0,1.0,part_1,,,,,,,,,,,,,white,flipped triangle
0.0,6.0,0.0,1.0,4.0,4.0,402.7336910367012,3.0,1.0,part_1,,,,,,,,,,,,,white,flipped triangle
106.0,2.0,2.0,0.0,4.0,4.0,514.3627938814461,3.0,1.0,part_1,,,,,,,,,,,,,magenta,cross
204.0,3.0,3.0,0.0,2.0,2.0,526.6948849894106,3.0,1.0,part_1,,,,,,,,,,,,,gray,I
123.0,2.0,2.0,0.0,4.0,4.0,452.1254631690681,3.0,1.0,part_1,,,,,,,,,,,,,magenta,cross
66.0,5.0,1.0,1.0,2.0,2.0,390.2353411540389,3.0,1.0,part_1,,,,,,,,,,,,,cyan,hexagon
103.0,2.0,2.0,0.0,3.0,3.0,394.1541397944093,3.0,1.0,part_1,,,,,,,,,,,,,magenta,cross
45.0,1.0,1.0,0.0,2.0,2.0,382.5992378406226,3.0,1.0,part_1,,,,,,,,,,,,,orange,square
408.0,4.0,4.0,0.0,1.0,1.0,468.0622178129852,3.0,1.0,part_1,,,,,,,,,,,,,yellow,circle
0.0,8.0,0.0,1.0,1.0,1.0,498.6541150137782,3.0,1.0,part_1,,,,,,,,,,,,,blue,diamond
408.0,8.0,4.0,1.0,1.0,1.0,524.8709106817842,3.0,1.0,part_1,,,,,,,,,,,,,blue,diamond
0.0,5.0,0.0,1.0,4.0,4.0,530.3203510120511,3.0,1.0,part_1,,,,,,,,,,,,,cyan,hexagon
103.0,2.0,2.0,0.0,1.0,1.0,430.6446639820933,3.0,1.0,part_1,,,,,,,,,,,,,magenta,cross
61.0,1.0,1.0,0.0,1.0,1.0,475.8395059034228,3.0,1.0,part_1,,,,,,,,,,,,,orange,square
40.0,5.0,1.0,1.0,4.0,4.0,464.1665061935782,3.0,1.0,part_1,,,,,,,,,,,,,cyan,hexagon
398.0,4.0,4.0,0.0,3.0,3.0,468.0931847542524,3.0,1.0,part_1,,,,,,,,,,,,,yellow,circle
118.0,6.0,2.0,1.0,3.0,3.0,448.4649091027677,3.0,1.0,part_1,,,,,,,,,,,,,white,flipped triangle
205.0,7.0,3.0,1.0,2.0,2.0,439.738699235022,3.0,1.0,part_1,,,,,,,,,,,,,green,triangle
0.0,8.0,0.0,1.0,3.0,3.0,451.8218692392111,3.0,1.0,part_1,,,,,,,,,,,,,blue,diamond
43.0,1.0,1.0,0.0,1.0,1.0,568.9250230789185,3.0,1.0,part_1,,,,,,,,,,,,,orange,square
76.0,6.0,2.0,1.0,4.0,4.0,662.3193630948663,3.0,1.0,part_1,,,,,,,,,,,,,white,flipped triangle
387.0,8.0,4.0,1.0,2.0,2.0,346.4273959398269,3.0,1.0,part_1,,,,,,,,,,,,,blue,diamond
395.0,4.0,4.0,0.0,4.0,4.0,432.1594801731407,3.0,1.0,part_1,,,,,,,,,,,,,yellow,circle
84.0,2.0,2.0,0.0,1.0,1.0,429.4603699818253,3.0,1.0,part_1,,,,,,,,,,,,,magenta,cross
56.0,5.0,1.0,1.0,3.0,3.0,321.2971868924796,3.0,1.0,part_1,,,,,,,,,,,,,cyan,hexagon
120.0,6.0,2.0,1.0,3.0,3.0,398.8706637173891,3.0,1.0,part_1,,,,,,,,,,,,,white,flipped triangle
0.0,2.0,0.0,0.0,4.0,4.0,403.6136409267783,3.0,1.0,part_1,,,,,,,,,,,,,magenta,cross
0.0,7.0,0.0,1.0,4.0,4.0,452.3597192019224,3.0,1.0,part_1,,,,,,,,,,,,,green,triangle
217.0,3.0,3.0,0.0,2.0,2.0,427.1364179439842,3.0,1.0,part_1,,,,,,,,,,,,,gray,I
38.0,1.0,1.0,0.0,3.0,3.0,397.6866579614579,3.0,1.0,part_1,,,,,,,,,,,,,orange,square
414.0,8.0,4.0,1.0,3.0,3.0,435.6314153410494,3.0,1.0,part_1,,,,,,,,,,,,,blue,diamond
0.0,2.0,0.0,0.0,1.0,1.0,472.7539871819317,3.0,1.0,part_1,,,,,,,,,,,,,magenta,cross
423.0,8.0,4.0,1.0,4.0,4.0,398.7715877592563,3.0,1.0,part_1,,,,,,,,,,,,,blue,diamond
49.0,5.0,1.0,1.0,1.0,1.0,624.6974300593138,3.0,1.0,part_1,,,,,,,,,,,,,cyan,hexagon
0.0,3.0,0.0,0.0,3.0,3.0,376.3920990750193,3.0,1.0,part_1,,,,,,,,,,,,,gray,I
0.0,4.0,0.0,0.0,3.0,3.0,382.0257210172713,3.0,1.0,part_1,,,,,,,,,,,,,yellow,circle
0.0,3.0,0.0,0.0,4.0,4.0,470.9093612618744,3.0,1.0,part_1,,,,,,,,,,,,,gray,I
68.0,1.0,1.0,0.0,2.0,2.0,390.0433401577174,3.0,1.0,part_1,,,,,,,,,,,,,orange,square
108.0,6.0,2.0,1.0,4.0,4.0,520.7084808498621,3.0,1.0,part_1,,,,,,,,,,,,,white,flipped triangle
205.0,3.0,3.0,0.0,4.0,4.0,549.1916560567915,3.0,1.0,part_1,,,,,,,,,,,,,gray,I
116.0,2.0,2.0,0.0,4.0,4.0,449.5138633064925,3.0,1.0,part_1,,,,,,,,,,,,,magenta,cross
175.0,3.0,3.0,0.0,2.0,2.0,464.0699871815741,3.0,1.0,part_1,,,,,,,,,,,,,gray,I
84.0,6.0,2.0,1.0,2.0,2.0,438.053946942091,3.0,1.0,part_1,,,,,,,,,,,,,white,flipped triangle
396.0,4.0,4.0,0.0,4.0,4.0,443.1850248947739,3.0,1.0,part_1,,,,,,,,,,,,,yellow,circle
407.0,8.0,4.0,1.0,1.0,1.0,479.8767357133329,3.0,1.0,part_1,,,,,,,,,,,,,blue,diamond
28.0,5.0,1.0,1.0,4.0,4.0,384.6082561649382,3.0,1.0,part_1,,,,,,,,,,,,,cyan,hexagon
0.0,3.0,0.0,0.0,3.0,3.0,463.5960180312395,3.0,1.0,part_1,,,,,,,,,,,,,gray,I
27.0,1.0,1.0,0.0,1.0,1.0,421.0560605861246,4.0,1.0,part_1,,,,,,,,,,,,,orange,square
0.0,2.0,0.0,0.0,1.0,1.0,382.2660916484892,4.0,1.0,part_1,,,,,,,,,,,,,magenta,cross
41.0,1.0,1.0,0.0,3.0,3.0,365.8897439017892,4.0,1.0,part_1,,,,,,,,,,,,,orange,square
119.0,6.0,2.0,1.0,4.0,4.0,369.685870129615,4.0,1.0,part_1,,,,,,,,,,,,,white,flipped triangle
421.0,4.0,4.0,0.0,3.0,3.0,332.2176886722445,4.0,1.0,part_1,,,,,,,,,,,,,yellow,circle
106.0,6.0,2.0,1.0,1.0,1.0,324.2241810075938,4.0,1.0,part_1,,,,,,,,,,,,,white,flipped triangle
100.0,2.0,2.0,0.0,2.0,2.0,407.4981962330639,4.0,1.0,part_1,,,,,,,,,,,,,magenta,cross
93.0,2.0,2.0,0.0,3.0,3.0,349.1753623820841,4.0,1.0,part_1,,,,,,,,,,,,,magenta,cross
223.0,7.0,3.0,1.0,2.0,2.0,402.19039795920247,4.0,1.0,part_1,,,,,,,,,,,,,green,triangle
36.0,1.0,1.0,0.0,1.0,1.0,444.486663211137,4.0,1.0,part_1,,,,,,,,,,,,,orange,square
0.0,5.0,0.0,1.0,2.0,2.0,364.3298996612429,4.0,1.0,part_1,,,,,,,,,,,,,cyan,hexagon
0.0,3.0,0.0,0.0,4.0,4.0,365.0695970281958,4.0,1.0,part_1,,,,,,,,,,,,,gray,I
0.0,6.0,0.0,1.0,2.0,2.0,365.6640299595892,4.0,1.0,part_1,,,,,,,,,,,,,white,flipped triangle
26.0,1.0,1.0,0.0,1.0,1.0,463.1219180300832,4.0,1.0,part_1,,,,,,,,,,,,,orange,square
123.0,6.0,2.0,1.0,4.0,4.0,407.0412348955869,4.0,1.0,part_1,,,,,,,,,,,,,white,flipped triangle
55.0,1.0,1.0,0.0,3.0,3.0,410.5485812760889,4.0,1.0,part_1,,,,,,,,,,,,,orange,square
396.0,4.0,4.0,0.0,4.0,4.0,415.5015819706023,4.0,1.0,part_1,,,,,,,,,,,,,yellow,circle
197.0,7.0,3.0,1.0,3.0,3.0,429.4014447368681,4.0,1.0,part_1,,,,,,,,,,,,,green,triangle
73.0,5.0,1.0,1.0,2.0,2.0,390.5598199926317,4.0,1.0,part_1,,,,,,,,,,,,,cyan,hexagon
112.0,6.0,2.0,1.0,3.0,3.0,410.6244216673076,4.0,1.0,part_1,,,,,,,,,,,,,white,flipped triangle
0.0,7.0,0.0,1.0,1.0,1.0,402.8249061666429,4.0,1.0,part_1,,,,,,,,,,,,,green,triangle
189.0,7.0,3.0,1.0,4.0,4.0,381.7648780532181,4.0,1.0,part_1,,,,,,,,,,,,,green,triangle
423.0,4.0,4.0,0.0,1.0,1.0,538.210806902498,4.0,1.0,part_1,,,,,,,,,,,,,yellow,circle
203.0,7.0,3.0,1.0,4.0,4.0,409.8090608604252,4.0,1.0,part_1,,,,,,,,,,,,,green,triangle
69.0,1.0,1.0,0.0,2.0,2.0,402.2844121791422,4.0,1.0,part_1,,,,,,,,,,,,,orange,square
49.0,5.0,1.0,1.0,1.0,1.0,375.1465817913413,4.0,1.0,part_1,,,,,,,,,,,,,cyan,hexagon
43.0,5.0,1.0,1.0,4.0,4.0,335.2163583040237,4.0,1.0,part_1,,,,,,,,,,,,,cyan,hexagon
415.0,4.0,4.0,0.0,2.0,2.0,296.3423072360456,4.0,1.0,part_1,,,,,,,,,,,,,yellow,circle
123.0,6.0,2.0,1.0,3.0,3.0,319.7202910669148,4.0,1.0,part_1,,,,,,,,,,,,,white,flipped triangle
209.0,7.0,3.0,1.0,2.0,2.0,361.5740039385855,4.0,1.0,part_1,,,,,,,,,,,,,green,triangle
108.0,2.0,2.0,0.0,1.0,1.0,365.973643027246,4.0,1.0,part_1,,,,,,,,,,,,,magenta,cross
387.0,8.0,4.0,1.0,3.0,3.0,316.8002478778362,4.0,1.0,part_1,,,,,,,,,,,,,blue,diamond
51.0,5.0,1.0,1.0,2.0,2.0,312.1547917835414,4.0,1.0,part_1,,,,,,,,,,,,,cyan,hexagon
183.0,7.0,3.0,1.0,1.0,1.0,358.5513969883322,4.0,1.0,part_1,,,,,,,,,,,,,green,triangle
120.0,2.0,2.0,0.0,3.0,3.0,417.5175847485661,4.0,1.0,part_1,,,,,,,,,,,,,magenta,cross
221.0,3.0,3.0,0.0,4.0,4.0,358.3922078832984,4.0,1.0,part_1,,,,,,,,,,,,,gray,I
0.0,8.0,0.0,1.0,1.0,1.0,332.6445696875453,4.0,1.0,part_1,,,,,,,,,,,,,blue,diamond
0.0,8.0,0.0,1.0,4.0,4.0,379.2922720313072,4.0,1.0,part_1,,,,,,,,,,,,,blue,diamond
0.0,3.0,0.0,0.0,1.0,1.0,373.6800448969006,4.0,1.0,part_1,,,,,,,,,,,,,gray,I
196.0,3.0,3.0,0.0,1.0,1.0,418.65762881934637,4.0,1.0,part_1,,,,,,,,,,,,,gray,I
0.0,4.0,0.0,0.0,1.0,1.0,381.9927233271301,4.0,1.0,part_1,,,,,,,,,,,,,yellow,circle
0.0,1.0,0.0,0.0,1.0,1.0,397.9220795445144,4.0,1.0,part_1,,,,,,,,,,,,,orange,square
0.0,8.0,0.0,1.0,1.0,1.0,370.5837419256568,4.0,1.0,part_1,,,,,,,,,,,,,blue,diamond
68.0,1.0,1.0,0.0,4.0,4.0,341.3212122395634,4.0,1.0,part_1,,,,,,,,,,,,,orange,square
46.0,1.0,1.0,0.0,4.0,4.0,402.7186250314116,4.0,1.0,part_1,,,,,,,,,,,,,orange,square
209.0,3.0,3.0,0.0,3.0,3.0,445.3618642874062,4.0,1.0,part_1,,,,,,,,,,,,,gray,I
408.0,8.0,4.0,1.0,2.0,2.0,353.6640838719904,4.0,1.0,part_1,,,,,,,,,,,,,blue,diamond
0.0,8.0,0.0,1.0,1.0,1.0,382.6755271293223,4.0,1.0,part_1,,,,,,,,,,,,,blue,diamond
378.0,4.0,4.0,0.0,1.0,1.0,378.600088879466,4.0,1.0,part_1,,,,,,,,,,,,,yellow,circle
386.0,4.0,4.0,0.0,1.0,1.0,395.2254708856344,4.0,1.0,part_1,,,,,,,,,,,,,yellow,circle
208.0,7.0,3.0,1.0,4.0,4.0,374.9841158278286,4.0,1.0,part_1,,,,,,,,,,,,,green,triangle
118.0,2.0,2.0,0.0,2.0,2.0,432.46783083304757,4.0,1.0,part_1,,,,,,,,,,,,,magenta,cross
423.0,8.0,4.0,1.0,4.0,4.0,566.7261737398803,4.0,1.0,part_1,,,,,,,,,,,,,blue,diamond
83.0,2.0,2.0,0.0,4.0,4.0,403.2018161378801,4.0,1.0,part_1,,,,,,,,,,,,,magenta,cross
0.0,3.0,0.0,0.0,3.0,3.0,399.1760620847344,4.0,1.0,part_1,,,,,,,,,,,,,gray,I
28.0,5.0,1.0,1.0,4.0,4.0,395.3125011175871,4.0,1.0,part_1,,,,,,,,,,,,,cyan,hexagon
207.0,7.0,3.0,1.0,1.0,1.0,353.5278989002108,4.0,1.0,part_1,,,,,,,,,,,,,green,triangle
71.0,5.0,1.0,1.0,1.0,1.0,390.0251011364162,4.0,1.0,part_1,,,,,,,,,,,,,cyan,hexagon
420.0,4.0,4.0,0.0,3.0,3.0,394.4593579508364,4.0,1.0,part_1,,,,,,,,,,,,,yellow,circle
215.0,7.0,3.0,1.0,3.0,3.0,362.0491502806544,4.0,1.0,part_1,,,,,,,,,,,,,green,triangle
190.0,3.0,3.0,0.0,1.0,1.0,438.4250869043171,4.0,1.0,part_1,,,,,,,,,,,,,gray,I
0.0,8.0,0.0,1.0,4.0,4.0,353.1902832910418,4.0,1.0,part_1,,,,,,,,,,,,,blue,diamond
218.0,3.0,3.0,0.0,3.0,3.0,383.4116565994918,4.0,1.0,part_1,,,,,,,,,,,,,gray,I
396.0,8.0,4.0,1.0,2.0,2.0,434.2965548858046,4.0,1.0,part_1,,,,,,,,,,,,,blue,diamond
417.0,8.0,4.0,1.0,3.0,3.0,303.6659313365817,4.0,1.0,part_1,,,,,,,,,,,,,blue,diamond
0.0,7.0,0.0,1.0,2.0,2.0,341.435338370502,4.0,1.0,part_1,,,,,,,,,,,,,green,triangle
56.0,1.0,1.0,0.0,3.0,3.0,369.5839997380972,4.0,1.0,part_1,,,,,,,,,,,,,orange,square
0.0,4.0,0.0,0.0,3.0,3.0,379.847299773246,4.0,1.0,part_1,,,,,,,,,,,,,yellow,circle
74.0,5.0,1.0,1.0,1.0,1.0,419.3371399305761,4.0,1.0,part_1,,,,,,,,,,,,,cyan,hexagon
211.0,7.0,3.0,1.0,2.0,2.0,382.0037487894296,4.0,1.0,part_1,,,,,,,,,,,,,green,triangle
376.0,8.0,4.0,1.0,3.0,3.0,338.118202984333,4.0,1.0,part_1,,,,,,,,,,,,,blue,diamond
183.0,3.0,3.0,0.0,1.0,1.0,398.6957878805697,4.0,1.0,part_1,,,,,,,,,,,,,gray,I
399.0,4.0,4.0,0.0,2.0,2.0,364.8672164417803,4.0,1.0,part_1,,,,,,,,,,,,,yellow,circle
0.0,6.0,0.0,1.0,1.0,1.0,459.3671560287475,4.0,1.0,part_1,,,,,,,,,,,,,white,flipped triangle
415.0,8.0,4.0,1.0,2.0,2.0,384.1845020651817,4.0,1.0,part_1,,,,,,,,,,,,,blue,diamond
37.0,1.0,1.0,0.0,3.0,3.0,410.2046890184283,4.0,1.0,part_1,,,,,,,,,,,,,orange,square
35.0,5.0,1.0,1.0,3.0,3.0,456.3769246451556,4.0,1.0,part_1,,,,,,,,,,,,,cyan,hexagon
225.0,7.0,3.0,1.0,4.0,4.0,450.3372237086296,4.0,1.0,part_1,,,,,,,,,,,,,green,triangle
387.0,4.0,4.0,0.0,2.0,2.0,550.9718931280077,4.0,1.0,part_1,,,,,,,,,,,,,yellow,circle
0.0,7.0,0.0,1.0,3.0,3.0,388.0086098797619,4.0,1.0,part_1,,,,,,,,,,,,,green,triangle
193.0,3.0,3.0,0.0,2.0,2.0,393.4032809920609,4.0,1.0,part_1,,,,,,,,,,,,,gray,I
63.0,5.0,1.0,1.0,2.0,2.0,358.296712860465,4.0,1.0,part_1,,,,,,,,,,,,,cyan,hexagon
176.0,3.0,3.0,0.0,4.0,4.0,451.9134280271828,4.0,1.0,part_1,,,,,,,,,,,,,gray,I
407.0,8.0,4.0,1.0,1.0,1.0,374.4553253054619,4.0,1.0,part_1,,,,,,,,,,,,,blue,diamond
77.0,2.0,2.0,0.0,1.0,1.0,452.2284190170467,4.0,1.0,part_1,,,,,,,,,,,,,magenta,cross
424.0,8.0,4.0,1.0,4.0,4.0,362.2553879395127,4.0,1.0,part_1,,,,,,,,,,,,,blue,diamond
183.0,7.0,3.0,1.0,2.0,2.0,414.6249908953905,4.0,1.0,part_1,,,,,,,,,,,,,green,triangle
0.0,1.0,0.0,0.0,4.0,4.0,420.0776936486363,4.0,1.0,part_1,,,,,,,,,,,,,orange,square
101.0,6.0,2.0,1.0,1.0,1.0,406.1562069691717,4.0,1.0,part_1,,,,,,,,,,,,,white,flipped triangle
225.0,3.0,3.0,0.0,3.0,3.0,390.6358643434942,4.0,1.0,part_1,,,,,,,,,,,,,gray,I
183.0,3.0,3.0,0.0,4.0,4.0,417.4845227971673,4.0,1.0,part_1,,,,,,,,,,,,,gray,I
203.0,7.0,3.0,1.0,3.0,3.0,420.5544157885015,4.0,1.0,part_1,,,,,,,,,,,,,green,triangle
120.0,2.0,2.0,0.0,2.0,2.0,346.960686147213,4.0,1.0,part_1,,,,,,,,,,,,,magenta,cross
208.0,3.0,3.0,0.0,3.0,3.0,506.60602282732725,4.0,1.0,part_1,,,,,,,,,,,,,gray,I
28.0,1.0,1.0,0.0,4.0,4.0,443.1338659487664,4.0,1.0,part_1,,,,,,,,,,,,,orange,square
402.0,4.0,4.0,0.0,4.0,4.0,447.3773809149861,4.0,1.0,part_1,,,,,,,,,,,,,yellow,circle
395.0,8.0,4.0,1.0,2.0,2.0,541.8541026301682,4.0,1.0,part_1,,,,,,,,,,,,,blue,diamond
45.0,5.0,1.0,1.0,1.0,1.0,386.7422677576542,4.0,1.0,part_1,,,,,,,,,,,,,cyan,hexagon
81.0,2.0,2.0,0.0,3.0,3.0,358.5891802795231,4.0,1.0,part_1,,,,,,,,,,,,,magenta,cross
424.0,4.0,4.0,0.0,1.0,1.0,409.7394631244242,4.0,1.0,part_1,,,,,,,,,,,,,yellow,circle
0.0,4.0,4.0,0.0,6.0,6.0,656.7178252153099,1.0,0.0,part_2,go,250.0,250.0,1.0,,,,,,,,,yellow,circle
0.0,8.0,4.0,1.0,6.0,6.0,404.8484140075743,1.0,0.0,part_2,go,250.0,250.0,1.0,,,,,,,,,blue,diamond
0.0,5.0,1.0,1.0,6.0,0.0,0.0,1.0,0.0,part_2,stop,250.0,250.0,4.0,,,,,,,,,cyan,hexagon
0.0,5.0,1.0,1.0,5.0,5.0,684.639825951308,1.0,0.0,part_2,stop,250.0,300.0,3.0,,,,,,,,,cyan,hexagon
0.0,7.0,3.0,1.0,5.0,0.0,0.0,1.0,0.0,part_2,stop,200.0,300.0,4.0,,,,,,,,,green,triangle
0.0,4.0,4.0,0.0,6.0,6.0,588.9134192839265,1.0,0.0,part_2,go,250.0,300.0,1.0,,,,,,,,,yellow,circle
0.0,8.0,4.0,1.0,5.0,0.0,0.0,1.0,0.0,part_2,stop,250.0,300.0,4.0,,,,,,,,,blue,diamond
0.0,1.0,1.0,0.0,6.0,6.0,601.6000742092729,1.0,0.0,part_2,go,300.0,300.0,1.0,,,,,,,,,orange,square
0.0,3.0,3.0,0.0,6.0,6.0,752.3312098346651,1.0,0.0,part_2,go,300.0,300.0,1.0,,,,,,,,,gray,I
0.0,6.0,2.0,1.0,5.0,0.0,0.0,1.0,0.0,part_2,stop,300.0,300.0,4.0,,,,,,,,,white,flipped triangle
0.0,7.0,3.0,1.0,6.0,0.0,0.0,1.0,0.0,part_2,stop,350.0,300.0,4.0,,,,,,,,,green,triangle
0.0,8.0,4.0,1.0,5.0,0.0,0.0,1.0,0.0,part_2,stop,350.0,350.0,4.0,,,,,,,,,blue,diamond
0.0,4.0,4.0,0.0,6.0,6.0,650.2077407203615,1.0,0.0,part_2,go,400.0,350.0,1.0,,,,,,,,,yellow,circle
0.0,4.0,4.0,0.0,6.0,6.0,832.1029162034392,1.0,0.0,part_2,go,400.0,350.0,1.0,,,,,,,,,yellow,circle
0.0,8.0,4.0,1.0,6.0,0.0,0.0,1.0,0.0,part_2,stop,400.0,350.0,4.0,,,,,,,,,blue,diamond
0.0,8.0,4.0,1.0,5.0,0.0,0.0,1.0,0.0,part_2,stop,400.0,400.0,4.0,,,,,,,,,blue,diamond
0.0,2.0,2.0,0.0,6.0,6.0,700.6881781853735,1.0,0.0,part_2,go,450.0,400.0,1.0,,,,,,,,,magenta,cross
0.0,7.0,3.0,1.0,6.0,0.0,0.0,1.0,0.0,part_2,stop,450.0,400.0,4.0,,,,,,,,,green,triangle
0.0,8.0,4.0,1.0,6.0,6.0,765.7168018631637,1.0,0.0,part_2,go,450.0,450.0,1.0,,,,,,,,,blue,diamond
0.0,6.0,2.0,1.0,5.0,0.0,0.0,1.0,0.0,part_2,stop,450.0,450.0,4.0,,,,,,,,,white,flipped triangle
0.0,4.0,4.0,0.0,5.0,5.0,769.5094291120768,1.0,0.0,part_2,go,500.0,450.0,1.0,,,,,,,,,yellow,circle
0.0,2.0,2.0,0.0,5.0,5.0,348.1000792235136,1.0,0.0,part_2,go,500.0,450.0,1.0,,,,,,,,,magenta,cross
0.0,6.0,2.0,1.0,5.0,5.0,219.8365246877074,1.0,0.0,part_2,stop,500.0,450.0,3.0,,,,,,,,,white,flipped triangle
0.0,7.0,3.0,1.0,5.0,5.0,448.6503852531314,1.0,0.0,part_2,stop,450.0,450.0,3.0,,,,,,,,,green,triangle
0.0,3.0,3.0,0.0,6.0,6.0,467.4650439992547,1.0,0.0,part_2,go,400.0,450.0,1.0,,,,,,,,,gray,I
0.0,5.0,1.0,1.0,5.0,5.0,633.8280998170376,1.0,0.0,part_2,go,400.0,450.0,1.0,,,,,,,,,cyan,hexagon
0.0,5.0,1.0,1.0,6.0,6.0,577.6865752413869,1.0,0.0,part_2,stop,400.0,450.0,3.0,,,,,,,,,cyan,hexagon
0.0,4.0,4.0,0.0,5.0,5.0,606.0566641390324,1.0,0.0,part_2,go,400.0,400.0,1.0,,,,,,,,,yellow,circle
0.0,2.0,2.0,0.0,6.0,6.0,584.0235278010368,1.0,0.0,part_2,go,400.0,400.0,1.0,,,,,,,,,magenta,cross
0.0,3.0,3.0,0.0,5.0,5.0,632.1406718343496,1.0,0.0,part_2,go,400.0,400.0,1.0,,,,,,,,,gray,I
0.0,6.0,2.0,1.0,5.0,0.0,0.0,1.0,0.0,part_2,stop,400.0,400.0,4.0,,,,,,,,,white,flipped triangle
0.0,2.0,2.0,0.0,6.0,6.0,559.4159057363868,1.0,0.0,part_2,go,450.0,400.0,1.0,,,,,,,,,magenta,cross
0.0,6.0,2.0,1.0,5.0,5.0,691.3400320336223,1.0,0.0,part_2,go,450.0,400.0,1.0,,,,,,,,,white,flipped triangle
0.0,8.0,4.0,1.0,6.0,0.0,0.0,1.0,0.0,part_2,stop,450.0,400.0,4.0,,,,,,,,,blue,diamond
0.0,4.0,4.0,0.0,5.0,5.0,492.0712583698332,1.0,0.0,part_2,go,450.0,450.0,1.0,,,,,,,,,yellow,circle
0.0,5.0,1.0,1.0,5.0,0.0,0.0,1.0,0.0,part_2,stop,450.0,450.0,4.0,,,,,,,,,cyan,hexagon
0.0,3.0,3.0,0.0,6.0,6.0,890.6544037163258,2.0,0.0,part_2,go,500.0,450.0,1.0,,,,,,,,,gray,I
0.0,7.0,3.0,1.0,6.0,0.0,0.0,2.0,0.0,part_2,stop,500.0,450.0,4.0,,,,,,,,,green,triangle
0.0,3.0,3.0,0.0,6.0,6.0,487.4087837524712,2.0,0.0,part_2,go,500.0,500.0,1.0,,,,,,,,,gray,I
0.0,2.0,2.0,0.0,6.0,6.0,743.2517590932548,2.0,0.0,part_2,go,500.0,500.0,1.0,,,,,,,,,magenta,cross
0.0,1.0,1.0,0.0,5.0,5.0,710.0030910223722,2.0,0.0,part_2,go,500.0,500.0,1.0,,,,,,,,,orange,square
0.0,3.0,3.0,0.0,6.0,6.0,310.6071469374001,2.0,0.0,part_2,go,500.0,500.0,1.0,,,,,,,,,gray,I
0.0,7.0,3.0,1.0,6.0,6.0,567.1934839338064,2.0,0.0,part_2,stop,500.0,500.0,3.0,,,,,,,,,green,triangle
0.0,3.0,3.0,0.0,6.0,6.0,311.6465741768479,2.0,0.0,part_2,go,500.0,450.0,1.0,,,,,,,,,gray,I
0.0,7.0,3.0,1.0,6.0,6.0,277.8961868025362,2.0,0.0,part_2,stop,500.0,450.0,3.0,,,,,,,,,green,triangle
0.0,2.0,2.0,0.0,5.0,5.0,541.3843812420964,2.0,0.0,part_2,go,500.0,400.0,1.0,,,,,,,,,magenta,cross
0.0,4.0,4.0,0.0,6.0,6.0,702.0886801183224,2.0,0.0,part_2,go,500.0,400.0,1.0,,,,,,,,,yellow,circle
0.0,4.0,4.0,0.0,5.0,5.0,282.3800621554255,2.0,0.0,part_2,go,500.0,400.0,1.0,,,,,,,,,yellow,circle
0.0,6.0,2.0,1.0,5.0,6.0,157.4665289372205,2.0,0.0,part_2,stop,500.0,400.0,3.0,,,,,,,,,white,flipped triangle
0.0,3.0,3.0,0.0,5.0,5.0,363.3941919542849,2.0,0.0,part_2,go,450.0,400.0,1.0,,,,,,,,,gray,I
0.0,3.0,3.0,0.0,5.0,5.0,299.1395080462098,2.0,0.0,part_2,go,450.0,400.0,1.0,,,,,,,,,gray,I
0.0,1.0,1.0,0.0,6.0,6.0,324.3285911157727,2.0,0.0,part_2,go,450.0,400.0,1.0,,,,,,,,,orange,square
0.0,4.0,4.0,0.0,5.0,5.0,283.9255672879517,2.0,0.0,part_2,go,450.0,400.0,1.0,,,,,,,,,yellow,circle
0.0,1.0,1.0,0.0,6.0,6.0,569.4417338818312,2.0,0.0,part_2,go,450.0,400.0,1.0,,,,,,,,,orange,square
0.0,4.0,4.0,0.0,6.0,6.0,352.4232991039753,2.0,0.0,part_2,go,450.0,400.0,1.0,,,,,,,,,yellow,circle
0.0,5.0,1.0,1.0,5.0,5.0,282.1977837011218,2.0,0.0,part_2,go,450.0,400.0,1.0,,,,,,,,,cyan,hexagon
0.0,8.0,4.0,1.0,6.0,6.0,343.7125538475811,2.0,0.0,part_2,stop,450.0,400.0,3.0,,,,,,,,,blue,diamond
0.0,5.0,1.0,1.0,6.0,6.0,445.6958016380667,2.0,0.0,part_2,stop,450.0,350.0,3.0,,,,,,,,,cyan,hexagon
0.0,7.0,3.0,1.0,5.0,5.0,472.8610622696578,2.0,0.0,part_2,stop,450.0,300.0,3.0,,,,,,,,,green,triangle
0.0,1.0,1.0,0.0,6.0,6.0,671.1074579507113,2.0,0.0,part_2,go,400.0,300.0,1.0,,,,,,,,,orange,square
0.0,6.0,2.0,1.0,6.0,6.0,328.0746689997613,2.0,0.0,part_2,stop,400.0,300.0,3.0,,,,,,,,,white,flipped triangle
0.0,6.0,2.0,1.0,5.0,5.0,734.731906093657,2.0,0.0,part_2,go,400.0,250.0,1.0,,,,,,,,,white,flipped triangle
0.0,7.0,3.0,1.0,5.0,5.0,778.7431161850691,2.0,0.0,part_2,stop,400.0,250.0,3.0,,,,,,,,,green,triangle
0.0,7.0,3.0,1.0,5.0,0.0,0.0,2.0,0.0,part_2,stop,350.0,250.0,4.0,,,,,,,,,green,triangle
0.0,1.0,1.0,0.0,6.0,6.0,681.0762039385736,2.0,0.0,part_2,go,400.0,250.0,1.0,,,,,,,,,orange,square
0.0,4.0,4.0,0.0,5.0,5.0,713.4637073613703,2.0,0.0,part_2,go,400.0,250.0,1.0,,,,,,,,,yellow,circle
0.0,3.0,3.0,0.0,5.0,5.0,803.079682867974,2.0,0.0,part_2,go,400.0,250.0,1.0,,,,,,,,,gray,I
0.0,5.0,1.0,1.0,5.0,0.0,0.0,2.0,0.0,part_2,stop,400.0,250.0,4.0,,,,,,,,,cyan,hexagon
0.0,4.0,4.0,0.0,6.0,6.0,722.6139977574348,2.0,0.0,part_2,go,450.0,250.0,1.0,,,,,,,,,yellow,circle
0.0,5.0,1.0,1.0,6.0,0.0,0.0,2.0,0.0,part_2,stop,450.0,250.0,4.0,,,,,,,,,cyan,hexagon
0.0,2.0,2.0,0.0,5.0,5.0,609.228721819818,2.0,0.0,part_2,go,450.0,300.0,1.0,,,,,,,,,magenta,cross
0.0,6.0,2.0,1.0,5.0,0.0,0.0,2.0,0.0,part_2,stop,450.0,300.0,4.0,,,,,,,,,white,flipped triangle
0.0,6.0,2.0,1.0,6.0,6.0,444.0176836214959,3.0,0.0,part_2,stop,500.0,300.0,3.0,,,,,,,,,white,flipped triangle
0.0,8.0,4.0,1.0,5.0,5.0,597.5776230916381,3.0,0.0,part_2,stop,500.0,250.0,3.0,,,,,,,,,blue,diamond
0.0,1.0,1.0,0.0,5.0,5.0,785.3815341368318,3.0,0.0,part_2,go,450.0,250.0,1.0,,,,,,,,,orange,square
0.0,1.0,1.0,0.0,5.0,5.0,689.2255968414247,3.0,0.0,part_2,go,450.0,250.0,1.0,,,,,,,,,orange,square
0.0,6.0,2.0,1.0,6.0,0.0,0.0,3.0,0.0,part_2,stop,450.0,250.0,4.0,,,,,,,,,white,flipped triangle
0.0,1.0,1.0,0.0,6.0,6.0,610.6029869988561,3.0,0.0,part_2,go,450.0,300.0,1.0,,,,,,,,,orange,square
0.0,4.0,4.0,0.0,6.0,6.0,639.2772649414837,3.0,0.0,part_2,go,450.0,300.0,1.0,,,,,,,,,yellow,circle
0.0,5.0,1.0,1.0,6.0,0.0,0.0,3.0,0.0,part_2,stop,450.0,300.0,4.0,,,,,,,,,cyan,hexagon
0.0,4.0,4.0,0.0,5.0,5.0,662.0180546306074,3.0,0.0,part_2,go,450.0,350.0,1.0,,,,,,,,,yellow,circle
0.0,3.0,3.0,0.0,6.0,6.0,720.1346787624061,3.0,0.0,part_2,go,450.0,350.0,1.0,,,,,,,,,gray,I
0.0,7.0,3.0,1.0,6.0,0.0,0.0,3.0,0.0,part_2,stop,450.0,350.0,4.0,,,,,,,,,green,triangle
0.0,2.0,2.0,0.0,5.0,5.0,589.1743046231568,3.0,0.0,part_2,go,450.0,400.0,1.0,,,,,,,,,magenta,cross
0.0,4.0,4.0,0.0,5.0,5.0,773.6957035958767,3.0,0.0,part_2,go,450.0,400.0,1.0,,,,,,,,,yellow,circle
0.0,1.0,1.0,0.0,6.0,6.0,685.3825934231281,3.0,0.0,part_2,go,450.0,400.0,1.0,,,,,,,,,orange,square
0.0,3.0,3.0,0.0,6.0,6.0,563.8047698885202,3.0,0.0,part_2,go,450.0,400.0,1.0,,,,,,,,,gray,I
0.0,6.0,2.0,1.0,5.0,0.0,0.0,3.0,0.0,part_2,stop,450.0,400.0,4.0,,,,,,,,,white,flipped triangle
0.0,6.0,2.0,1.0,5.0,5.0,393.7400230206549,3.0,0.0,part_2,stop,500.0,400.0,3.0,,,,,,,,,white,flipped triangle
0.0,3.0,3.0,0.0,5.0,5.0,620.4129480756819,3.0,0.0,part_2,go,450.0,400.0,1.0,,,,,,,,,gray,I
0.0,4.0,4.0,0.0,5.0,5.0,682.2604690678418,3.0,0.0,part_2,go,450.0,400.0,1.0,,,,,,,,,yellow,circle
0.0,5.0,1.0,1.0,6.0,6.0,377.7945698238909,3.0,0.0,part_2,stop,450.0,400.0,3.0,,,,,,,,,cyan,hexagon
0.0,7.0,3.0,1.0,6.0,6.0,728.207946754992,3.0,0.0,part_2,go,450.0,350.0,1.0,,,,,,,,,green,triangle
0.0,2.0,2.0,0.0,6.0,6.0,545.0517502613366,3.0,0.0,part_2,go,450.0,350.0,1.0,,,,,,,,,magenta,cross
0.0,3.0,3.0,0.0,5.0,5.0,327.5031829252839,3.0,0.0,part_2,go,450.0,350.0,1.0,,,,,,,,,gray,I
0.0,1.0,1.0,0.0,6.0,6.0,336.2834262661636,3.0,0.0,part_2,go,450.0,350.0,1.0,,,,,,,,,orange,square
0.0,7.0,3.0,1.0,5.0,0.0,0.0,3.0,0.0,part_2,stop,450.0,350.0,4.0,,,,,,,,,green,triangle
0.0,5.0,1.0,1.0,6.0,6.0,392.8536269813776,3.0,0.0,part_2,stop,500.0,350.0,3.0,,,,,,,,,cyan,hexagon
0.0,8.0,4.0,1.0,5.0,5.0,671.32811807096,3.0,0.0,part_2,stop,500.0,300.0,3.0,,,,,,,,,blue,diamond
0.0,7.0,3.0,1.0,5.0,5.0,870.0633370317519,3.0,0.0,part_2,go,450.0,300.0,1.0,,,,,,,,,green,triangle
0.0,7.0,3.0,1.0,6.0,0.0,0.0,3.0,0.0,part_2,stop,450.0,300.0,4.0,,,,,,,,,green,triangle
0.0,4.0,4.0,0.0,5.0,5.0,581.6432773135602,3.0,0.0,part_2,go,450.0,350.0,1.0,,,,,,,,,yellow,circle
0.0,1.0,1.0,0.0,5.0,5.0,674.0442649461329,3.0,0.0,part_2,go,450.0,350.0,1.0,,,,,,,,,orange,square
0.0,6.0,2.0,1.0,6.0,0.0,0.0,3.0,0.0,part_2,stop,450.0,350.0,4.0,,,,,,,,,white,flipped triangle
0.0,3.0,3.0,0.0,5.0,5.0,644.3336810916662,3.0,0.0,part_2,go,450.0,400.0,1.0,,,,,,,,,gray,I
0.0,6.0,2.0,1.0,5.0,5.0,619.2088909447193,3.0,0.0,part_2,stop,450.0,400.0,3.0,,,,,,,,,white,flipped triangle
0.0,3.0,3.0,0.0,5.0,5.0,906.6257663071156,3.0,0.0,part_2,go,400.0,400.0,1.0,,,,,,,,,gray,I
0.0,2.0,2.0,0.0,5.0,5.0,345.8114038221538,3.0,0.0,part_2,go,400.0,400.0,1.0,,,,,,,,,magenta,cross
0.0,6.0,2.0,1.0,6.0,6.0,455.8233190327883,4.0,0.0,part_2,stop,400.0,400.0,3.0,,,,,,,,,white,flipped triangle
0.0,5.0,1.0,1.0,5.0,5.0,262.9268141463399,4.0,0.0,part_2,stop,400.0,350.0,3.0,,,,,,,,,cyan,hexagon
0.0,7.0,3.0,1.0,6.0,6.0,259.3788527883589,4.0,0.0,part_2,stop,350.0,350.0,3.0,,,,,,,,,green,triangle
0.0,5.0,1.0,1.0,6.0,6.0,228.0063866637647,4.0,0.0,part_2,go,350.0,300.0,1.0,,,,,,,,,cyan,hexagon
0.0,2.0,2.0,0.0,5.0,5.0,283.3135849796235,4.0,0.0,part_2,go,350.0,300.0,1.0,,,,,,,,,magenta,cross
0.0,5.0,1.0,1.0,6.0,6.0,261.2529559992254,4.0,0.0,part_2,stop,350.0,300.0,3.0,,,,,,,,,cyan,hexagon
0.0,3.0,3.0,0.0,5.0,5.0,265.3531697578728,4.0,0.0,part_2,go,350.0,250.0,1.0,,,,,,,,,gray,I
0.0,7.0,3.0,1.0,5.0,5.0,316.6541131213307,4.0,0.0,part_2,stop,350.0,250.0,3.0,,,,,,,,,green,triangle
0.0,1.0,1.0,0.0,6.0,6.0,272.4666991271078,4.0,0.0,part_2,go,300.0,250.0,1.0,,,,,,,,,orange,square
0.0,6.0,2.0,1.0,6.0,6.0,299.2938146926462,4.0,0.0,part_2,stop,300.0,250.0,3.0,,,,,,,,,white,flipped triangle
0.0,1.0,1.0,0.0,6.0,6.0,303.907202091068,4.0,0.0,part_2,go,300.0,200.0,1.0,,,,,,,,,orange,square
0.0,1.0,1.0,0.0,6.0,6.0,287.5907476991415,4.0,0.0,part_2,go,300.0,200.0,1.0,,,,,,,,,orange,square
0.0,8.0,4.0,1.0,5.0,5.0,257.6943417079747,4.0,0.0,part_2,stop,300.0,200.0,3.0,,,,,,,,,blue,diamond
0.0,4.0,4.0,0.0,6.0,6.0,237.5907977111637,4.0,0.0,part_2,go,250.0,200.0,1.0,,,,,,,,,yellow,circle
0.0,5.0,1.0,1.0,6.0,6.0,333.344402257353,4.0,0.0,part_2,stop,250.0,200.0,3.0,,,,,,,,,cyan,hexagon
0.0,1.0,1.0,0.0,6.0,6.0,308.7963908910751,4.0,0.0,part_2,go,250.0,150.0,1.0,,,,,,,,,orange,square
0.0,8.0,4.0,1.0,5.0,5.0,20.8217650651931,4.0,0.0,part_2,go,250.0,150.0,1.0,,,,,,,,,blue,diamond
0.0,5.0,1.0,1.0,6.0,6.0,246.1102898232638,4.0,0.0,part_2,stop,250.0,150.0,3.0,,,,,,,,,cyan,hexagon
0.0,6.0,2.0,1.0,5.0,5.0,237.7149765379727,4.0,0.0,part_2,go,250.0,100.0,1.0,,,,,,,,,white,flipped triangle
0.0,8.0,4.0,1.0,6.0,6.0,221.1104081943631,4.0,0.0,part_2,go,250.0,100.0,1.0,,,,,,,,,blue,diamond
0.0,6.0,2.0,1.0,6.0,6.0,308.3375371061265,4.0,0.0,part_2,stop,250.0,100.0,3.0,,,,,,,,,white,flipped triangle
0.0,2.0,2.0,0.0,6.0,6.0,348.7091199494898,4.0,0.0,part_2,go,250.0,50.0,1.0,,,,,,,,,magenta,cross
0.0,7.0,3.0,1.0,5.0,5.0,273.3161528594792,4.0,0.0,part_2,stop,250.0,50.0,3.0,,,,,,,,,green,triangle
0.0,7.0,3.0,1.0,5.0,5.0,328.2178719528019,4.0,0.0,part_2,stop,200.0,50.0,3.0,,,,,,,,,green,triangle
0.0,1.0,1.0,0.0,5.0,5.0,545.9743649698794,4.0,0.0,part_2,go,150.0,50.0,1.0,,,,,,,,,orange,square
0.0,4.0,4.0,0.0,5.0,5.0,554.9345682375133,4.0,0.0,part_2,go,150.0,50.0,1.0,,,,,,,,,yellow,circle
0.0,8.0,4.0,1.0,5.0,5.0,286.7012280039489,4.0,0.0,part_2,stop,150.0,50.0,3.0,,,,,,,,,blue,diamond
0.0,8.0,4.0,1.0,6.0,6.0,278.6176712252199,4.0,0.0,part_2,stop,100.0,50.0,3.0,,,,,,,,,blue,diamond
0.0,2.0,2.0,0.0,6.0,6.0,357.2714040055871,4.0,0.0,part_2,go,100.0,0.0,1.0,,,,,,,,,magenta,cross
0.0,2.0,2.0,0.0,6.0,6.0,488.4844040498137,4.0,0.0,part_2,go,100.0,0.0,1.0,,,,,,,,,magenta,cross
0.0,3.0,3.0,0.0,6.0,6.0,423.1292079202831,4.0,0.0,part_2,go,100.0,0.0,1.0,,,,,,,,,gray,I
0.0,8.0,4.0,1.0,6.0,0.0,0.0,4.0,0.0,part_2,stop,100.0,0.0,4.0,,,,,,,,,blue,diamond
0.0,3.0,3.0,0.0,6.0,6.0,356.0997038148343,4.0,0.0,part_2,go,100.0,50.0,1.0,,,,,,,,,gray,I
0.0,3.0,3.0,0.0,5.0,5.0,396.4748731814325,4.0,0.0,part_2,go,100.0,50.0,1.0,,,,,,,,,gray,I
0.0,6.0,2.0,1.0,6.0,6.0,413.9243960380554,4.0,0.0,part_2,go,100.0,50.0,1.0,,,,,,,,,white,flipped triangle
0.0,1.0,1.0,0.0,5.0,5.0,459.5847693271935,4.0,0.0,part_2,go,100.0,50.0,1.0,,,,,,,,,orange,square
0.0,4.0,4.0,0.0,6.0,6.0,1114.0526137314737,5.0,0.0,part_2,go,100.0,50.0,1.0,,,,,,,,,yellow,circle
0.0,7.0,3.0,1.0,5.0,0.0,0.0,5.0,0.0,part_2,stop,100.0,50.0,4.0,,,,,,,,,green,triangle
0.0,6.0,2.0,1.0,5.0,0.0,0.0,5.0,0.0,part_2,stop,150.0,50.0,4.0,,,,,,,,,white,flipped triangle
0.0,2.0,2.0,0.0,5.0,5.0,481.310686096549,5.0,0.0,part_2,go,200.0,50.0,1.0,,,,,,,,,magenta,cross
0.0,1.0,1.0,0.0,5.0,5.0,451.715859118849,5.0,0.0,part_2,go,200.0,50.0,1.0,,,,,,,,,orange,square
0.0,7.0,3.0,1.0,6.0,0.0,0.0,5.0,0.0,part_2,stop,200.0,50.0,4.0,,,,,,,,,green,triangle
0.0,2.0,2.0,0.0,6.0,6.0,416.9024596922099,5.0,0.0,part_2,go,200.0,100.0,1.0,,,,,,,,,magenta,cross
0.0,1.0,1.0,0.0,5.0,5.0,390.7599099911749,5.0,0.0,part_2,go,200.0,100.0,1.0,,,,,,,,,orange,square
0.0,5.0,1.0,1.0,6.0,0.0,0.0,5.0,0.0,part_2,stop,200.0,100.0,4.0,,,,,,,,,cyan,hexagon
0.0,2.0,2.0,0.0,5.0,5.0,408.0629800446331,5.0,0.0,part_2,go,200.0,150.0,1.0,,,,,,,,,magenta,cross
0.0,8.0,4.0,1.0,6.0,0.0,0.0,5.0,0.0,part_2,stop,200.0,150.0,4.0,,,,,,,,,blue,diamond
0.0,8.0,4.0,1.0,6.0,0.0,0.0,5.0,0.0,part_2,stop,200.0,200.0,4.0,,,,,,,,,blue,diamond
0.0,5.0,1.0,1.0,5.0,5.0,333.2725898362696,5.0,0.0,part_2,go,200.0,250.0,1.0,,,,,,,,,cyan,hexagon
0.0,2.0,2.0,0.0,5.0,5.0,445.7828067243099,5.0,0.0,part_2,go,200.0,250.0,1.0,,,,,,,,,magenta,cross
0.0,2.0,2.0,0.0,5.0,5.0,358.5478090681135,5.0,0.0,part_2,go,200.0,250.0,1.0,,,,,,,,,magenta,cross
0.0,8.0,4.0,1.0,5.0,5.0,349.8299620114267,5.0,0.0,part_2,go,200.0,250.0,1.0,,,,,,,,,blue,diamond
0.0,1.0,1.0,0.0,5.0,5.0,281.2668201513588,5.0,0.0,part_2,go,200.0,250.0,1.0,,,,,,,,,orange,square
0.0,4.0,4.0,0.0,5.0,5.0,308.2430069334805,5.0,0.0,part_2,go,200.0,250.0,1.0,,,,,,,,,yellow,circle
0.0,6.0,2.0,1.0,5.0,5.0,305.4177449084818,5.0,0.0,part_2,stop,200.0,250.0,3.0,,,,,,,,,white,flipped triangle
0.0,1.0,1.0,0.0,5.0,5.0,554.6671082265675,5.0,0.0,part_2,go,150.0,250.0,1.0,,,,,,,,,orange,square
0.0,7.0,3.0,1.0,5.0,0.0,0.0,5.0,0.0,part_2,stop,150.0,250.0,4.0,,,,,,,,,green,triangle
0.0,8.0,4.0,1.0,6.0,6.0,326.2356990016997,5.0,0.0,part_2,stop,200.0,250.0,3.0,,,,,,,,,blue,diamond
0.0,7.0,3.0,1.0,5.0,5.0,401.9843810237944,5.0,0.0,part_2,go,200.0,200.0,1.0,,,,,,,,,green,triangle
0.0,4.0,4.0,0.0,6.0,6.0,374.2491379380226,5.0,0.0,part_2,go,200.0,200.0,1.0,,,,,,,,,yellow,circle
0.0,8.0,4.0,1.0,6.0,0.0,0.0,5.0,0.0,part_2,stop,200.0,200.0,4.0,,,,,,,,,blue,diamond
0.0,8.0,4.0,1.0,5.0,0.0,0.0,5.0,0.0,part_2,stop,200.0,250.0,4.0,,,,,,,,,blue,diamond
0.0,3.0,3.0,0.0,5.0,5.0,332.1852409280836,5.0,0.0,part_2,go,250.0,250.0,1.0,,,,,,,,,gray,I
0.0,4.0,4.0,0.0,5.0,5.0,381.8288282491267,5.0,0.0,part_2,go,250.0,250.0,1.0,,,,,,,,,yellow,circle
0.0,1.0,1.0,0.0,5.0,5.0,949.6096768416464,5.0,0.0,part_2,go,250.0,250.0,1.0,,,,,,,,,orange,square
0.0,6.0,2.0,1.0,6.0,6.0,323.3380471356213,5.0,0.0,part_2,go,250.0,250.0,1.0,,,,,,,,,white,flipped triangle
0.0,8.0,4.0,1.0,5.0,5.0,333.8456503115594,5.0,0.0,part_2,stop,250.0,250.0,3.0,,,,,,,,,blue,diamond
0.0,1.0,1.0,0.0,5.0,5.0,340.1731932535767,5.0,0.0,part_2,go,200.0,250.0,1.0,,,,,,,,,orange,square
0.0,7.0,3.0,1.0,6.0,6.0,289.5433818921447,5.0,0.0,part_2,stop,200.0,250.0,3.0,,,,,,,,,green,triangle
0.0,2.0,2.0,0.0,6.0,6.0,399.7639329172671,5.0,0.0,part_2,go,200.0,200.0,1.0,,,,,,,,,magenta,cross
0.0,7.0,3.0,1.0,6.0,6.0,337.7970368601382,5.0,0.0,part_2,go,200.0,200.0,1.0,,,,,,,,,green,triangle
0.0,2.0,2.0,0.0,6.0,6.0,307.0118357427418,5.0,0.0,part_2,go,200.0,200.0,1.0,,,,,,,,,magenta,cross
0.0,7.0,3.0,1.0,6.0,6.0,374.941548332572,6.0,0.0,part_2,go,200.0,200.0,1.0,,,,,,,,,green,triangle
0.0,3.0,3.0,0.0,5.0,5.0,387.2976973652839,6.0,0.0,part_2,go,200.0,200.0,1.0,,,,,,,,,gray,I
0.0,4.0,4.0,0.0,5.0,5.0,346.4536541141569,6.0,0.0,part_2,go,200.0,200.0,1.0,,,,,,,,,yellow,circle
0.0,1.0,1.0,0.0,5.0,5.0,290.5315347015857,6.0,0.0,part_2,go,200.0,200.0,1.0,,,,,,,,,orange,square
0.0,5.0,1.0,1.0,5.0,5.0,323.7186181358993,6.0,0.0,part_2,stop,200.0,200.0,3.0,,,,,,,,,cyan,hexagon
0.0,4.0,4.0,0.0,6.0,6.0,315.8151712268591,6.0,0.0,part_2,go,150.0,200.0,1.0,,,,,,,,,yellow,circle
0.0,7.0,3.0,1.0,6.0,6.0,329.8039520159364,6.0,0.0,part_2,go,150.0,200.0,1.0,,,,,,,,,green,triangle
0.0,8.0,4.0,1.0,6.0,6.0,346.1785279214382,6.0,0.0,part_2,go,150.0,200.0,1.0,,,,,,,,,blue,diamond
0.0,8.0,4.0,1.0,5.0,0.0,0.0,6.0,0.0,part_2,stop,150.0,200.0,4.0,,,,,,,,,blue,diamond
0.0,5.0,1.0,1.0,6.0,0.0,0.0,6.0,0.0,part_2,stop,200.0,200.0,4.0,,,,,,,,,cyan,hexagon
0.0,4.0,4.0,0.0,6.0,6.0,359.4102659262717,6.0,0.0,part_2,go,200.0,250.0,1.0,,,,,,,,,yellow,circle
0.0,2.0,2.0,0.0,6.0,6.0,326.3937085866928,6.0,0.0,part_2,go,200.0,250.0,1.0,,,,,,,,,magenta,cross
0.0,2.0,2.0,0.0,5.0,5.0,349.0725769661367,6.0,0.0,part_2,go,200.0,250.0,1.0,,,,,,,,,magenta,cross
0.0,5.0,1.0,1.0,5.0,5.0,292.7346639335155,6.0,0.0,part_2,stop,200.0,250.0,3.0,,,,,,,,,cyan,hexagon
0.0,8.0,4.0,1.0,5.0,0.0,0.0,6.0,0.0,part_2,stop,150.0,250.0,4.0,,,,,,,,,blue,diamond
0.0,1.0,1.0,0.0,5.0,5.0,397.3851888440549,6.0,0.0,part_2,go,200.0,250.0,1.0,,,,,,,,,orange,square
0.0,7.0,3.0,1.0,6.0,6.0,307.2280958294868,6.0,0.0,part_2,go,200.0,250.0,1.0,,,,,,,,,green,triangle
0.0,5.0,1.0,1.0,6.0,6.0,373.6646673642099,6.0,0.0,part_2,stop,200.0,250.0,3.0,,,,,,,,,cyan,hexagon
0.0,6.0,2.0,1.0,6.0,0.0,0.0,6.0,0.0,part_2,stop,200.0,200.0,4.0,,,,,,,,,white,flipped triangle
0.0,1.0,1.0,0.0,6.0,6.0,427.7450237423181,6.0,0.0,part_2,go,200.0,250.0,1.0,,,,,,,,,orange,square
0.0,6.0,2.0,1.0,5.0,0.0,0.0,6.0,0.0,part_2,stop,200.0,250.0,4.0,,,,,,,,,white,flipped triangle
0.0,3.0,3.0,0.0,6.0,6.0,306.1270187608897,6.0,0.0,part_2,go,250.0,250.0,1.0,,,,,,,,,gray,I
0.0,2.0,2.0,0.0,6.0,6.0,345.6094292923808,6.0,0.0,part_2,go,250.0,250.0,1.0,,,,,,,,,magenta,cross
0.0,4.0,4.0,0.0,6.0,6.0,375.5562356673181,6.0,0.0,part_2,go,250.0,250.0,1.0,,,,,,,,,yellow,circle
0.0,5.0,1.0,1.0,5.0,5.0,673.4569752588868,6.0,0.0,part_2,go,250.0,250.0,1.0,,,,,,,,,cyan,hexagon
0.0,6.0,2.0,1.0,5.0,5.0,357.3940698988735,6.0,0.0,part_2,go,250.0,250.0,1.0,,,,,,,,,white,flipped triangle
0.0,2.0,2.0,0.0,6.0,6.0,304.1308070532977,6.0,0.0,part_2,go,250.0,250.0,1.0,,,,,,,,,magenta,cross
0.0,8.0,4.0,1.0,5.0,5.0,311.851873062551,6.0,0.0,part_2,stop,250.0,250.0,3.0,,,,,,,,,blue,diamond
0.0,6.0,2.0,1.0,6.0,6.0,375.7824930362403,6.0,0.0,part_2,stop,200.0,250.0,3.0,,,,,,,,,white,flipped triangle
0.0,3.0,3.0,0.0,5.0,5.0,468.1527949869632,6.0,0.0,part_2,go,200.0,200.0,1.0,,,,,,,,,gray,I
0.0,8.0,4.0,1.0,6.0,0.0,0.0,6.0,0.0,part_2,stop,200.0,200.0,4.0,,,,,,,,,blue,diamond
0.0,5.0,1.0,1.0,6.0,6.0,437.8114468418062,6.0,0.0,part_2,stop,200.0,250.0,3.0,,,,,,,,,cyan,hexagon
0.0,6.0,2.0,1.0,6.0,0.0,0.0,6.0,0.0,part_2,stop,200.0,200.0,4.0,,,,,,,,,white,flipped triangle
0.0,4.0,4.0,0.0,5.0,5.0,468.2183288969099,6.0,0.0,part_2,go,200.0,250.0,1.0,,,,,,,,,yellow,circle
0.0,8.0,4.0,1.0,5.0,0.0,0.0,6.0,0.0,part_2,stop,200.0,250.0,4.0,,,,,,,,,blue,diamond
0.0,2.0,2.0,0.0,6.0,6.0,394.1455339081585,6.0,0.0,part_2,go,250.0,250.0,1.0,,,,,,,,,magenta,cross
0.0,1.0,1.0,0.0,5.0,5.0,677.3905148729682,7.0,0.0,part_2,go,250.0,250.0,1.0,,,,,,,,,orange,square
0.0,1.0,1.0,0.0,6.0,6.0,451.4914029277861,7.0,0.0,part_2,go,250.0,250.0,1.0,,,,,,,,,orange,square
0.0,4.0,4.0,0.0,6.0,6.0,538.935324177146,7.0,0.0,part_2,go,250.0,250.0,1.0,,,,,,,,,yellow,circle
0.0,8.0,4.0,1.0,5.0,0.0,0.0,7.0,0.0,part_2,stop,250.0,250.0,4.0,,,,,,,,,blue,diamond
0.0,1.0,1.0,0.0,6.0,6.0,576.3571956194937,7.0,0.0,part_2,go,300.0,250.0,1.0,,,,,,,,,orange,square
0.0,8.0,4.0,1.0,5.0,5.0,642.1433510258794,7.0,0.0,part_2,go,300.0,250.0,1.0,,,,,,,,,blue,diamond
0.0,5.0,1.0,1.0,5.0,5.0,671.5496280230582,7.0,0.0,part_2,go,300.0,250.0,1.0,,,,,,,,,cyan,hexagon
0.0,6.0,2.0,1.0,6.0,0.0,0.0,7.0,0.0,part_2,stop,300.0,250.0,4.0,,,,,,,,,white,flipped triangle
0.0,6.0,2.0,1.0,6.0,0.0,0.0,7.0,0.0,part_2,stop,300.0,300.0,4.0,,,,,,,,,white,flipped triangle
0.0,6.0,2.0,1.0,6.0,0.0,0.0,7.0,0.0,part_2,stop,300.0,350.0,4.0,,,,,,,,,white,flipped triangle
0.0,1.0,1.0,0.0,5.0,5.0,511.9052301160991,7.0,0.0,part_2,go,300.0,400.0,1.0,,,,,,,,,orange,square
0.0,2.0,2.0,0.0,5.0,5.0,477.112338412553,7.0,0.0,part_2,go,300.0,400.0,1.0,,,,,,,,,magenta,cross
0.0,3.0,3.0,0.0,6.0,6.0,586.1994870938361,7.0,0.0,part_2,go,300.0,400.0,1.0,,,,,,,,,gray,I
0.0,5.0,1.0,1.0,6.0,0.0,0.0,7.0,0.0,part_2,stop,300.0,400.0,4.0,,,,,,,,,cyan,hexagon
0.0,2.0,2.0,0.0,6.0,6.0,402.8151780366897,7.0,0.0,part_2,go,300.0,450.0,1.0,,,,,,,,,magenta,cross
0.0,5.0,1.0,1.0,5.0,5.0,545.9470399655402,7.0,0.0,part_2,go,300.0,450.0,1.0,,,,,,,,,cyan,hexagon
0.0,3.0,3.0,0.0,5.0,5.0,529.2685488238931,7.0,0.0,part_2,go,300.0,450.0,1.0,,,,,,,,,gray,I
0.0,4.0,4.0,0.0,5.0,5.0,736.4492481574416,7.0,0.0,part_2,go,300.0,450.0,1.0,,,,,,,,,yellow,circle
0.0,8.0,4.0,1.0,6.0,0.0,0.0,7.0,0.0,part_2,stop,300.0,450.0,4.0,,,,,,,,,blue,diamond
0.0,7.0,3.0,1.0,5.0,5.0,610.7454798184335,7.0,0.0,part_2,go,300.0,500.0,1.0,,,,,,,,,green,triangle
0.0,6.0,2.0,1.0,5.0,0.0,0.0,7.0,0.0,part_2,stop,300.0,500.0,4.0,,,,,,,,,white,flipped triangle
0.0,6.0,2.0,1.0,5.0,5.0,661.2574621103704,7.0,0.0,part_2,go,350.0,500.0,1.0,,,,,,,,,white,flipped triangle
0.0,2.0,2.0,0.0,5.0,5.0,591.7891757562757,7.0,0.0,part_2,go,350.0,500.0,1.0,,,,,,,,,magenta,cross
0.0,2.0,2.0,0.0,5.0,5.0,456.5154588781297,7.0,0.0,part_2,go,350.0,500.0,1.0,,,,,,,,,magenta,cross
0.0,1.0,1.0,0.0,5.0,5.0,443.9765377901494,7.0,0.0,part_2,go,350.0,500.0,1.0,,,,,,,,,orange,square
0.0,3.0,3.0,0.0,6.0,6.0,411.6210830397904,7.0,0.0,part_2,go,350.0,500.0,1.0,,,,,,,,,gray,I
0.0,3.0,3.0,0.0,5.0,5.0,373.3624923042953,7.0,0.0,part_2,go,350.0,500.0,1.0,,,,,,,,,gray,I
0.0,3.0,3.0,0.0,5.0,5.0,357.1738521568477,7.0,0.0,part_2,go,350.0,500.0,1.0,,,,,,,,,gray,I
0.0,1.0,1.0,0.0,6.0,6.0,386.0789071768522,7.0,0.0,part_2,go,350.0,500.0,1.0,,,,,,,,,orange,square
0.0,6.0,2.0,1.0,6.0,6.0,299.3502612225711,7.0,0.0,part_2,stop,350.0,500.0,3.0,,,,,,,,,white,flipped triangle
0.0,2.0,2.0,0.0,5.0,5.0,512.7462358213961,7.0,0.0,part_2,go,350.0,450.0,1.0,,,,,,,,,magenta,cross
0.0,4.0,4.0,0.0,5.0,5.0,587.5320937484503,7.0,0.0,part_2,go,350.0,450.0,1.0,,,,,,,,,yellow,circle
0.0,6.0,2.0,1.0,6.0,6.0,632.3316930793226,7.0,0.0,part_2,go,350.0,450.0,1.0,,,,,,,,,white,flipped triangle
0.0,5.0,1.0,1.0,5.0,5.0,627.2417269647121,7.0,0.0,part_2,go,350.0,450.0,1.0,,,,,,,,,cyan,hexagon
0.0,7.0,3.0,1.0,5.0,0.0,0.0,7.0,0.0,part_2,stop,350.0,450.0,4.0,,,,,,,,,green,triangle
0.0,4.0,4.0,0.0,6.0,6.0,503.26927099376917,7.0,0.0,part_2,go,400.0,450.0,1.0,,,,,,,,,yellow,circle
0.0,7.0,3.0,1.0,6.0,6.0,362.2330008074641,8.0,0.0,part_2,stop,400.0,450.0,3.0,,,,,,,,,green,triangle
0.0,7.0,3.0,1.0,5.0,5.0,618.7313939444721,8.0,0.0,part_2,stop,400.0,400.0,3.0,,,,,,,,,green,triangle
0.0,3.0,3.0,0.0,6.0,6.0,530.895478092134,8.0,0.0,part_2,go,350.0,400.0,1.0,,,,,,,,,gray,I
0.0,2.0,2.0,0.0,6.0,6.0,531.0709048062563,8.0,0.0,part_2,go,350.0,400.0,1.0,,,,,,,,,magenta,cross
0.0,2.0,2.0,0.0,6.0,6.0,595.0565659441054,8.0,0.0,part_2,go,350.0,400.0,1.0,,,,,,,,,magenta,cross
0.0,1.0,1.0,0.0,6.0,6.0,585.0569871254265,8.0,0.0,part_2,go,350.0,400.0,1.0,,,,,,,,,orange,square
0.0,2.0,2.0,0.0,5.0,5.0,450.1906279474497,8.0,0.0,part_2,go,350.0,400.0,1.0,,,,,,,,,magenta,cross
0.0,5.0,1.0,1.0,5.0,5.0,320.8723440766334,8.0,0.0,part_2,go,350.0,400.0,1.0,,,,,,,,,cyan,hexagon
0.0,1.0,1.0,0.0,6.0,6.0,439.4299909472465,8.0,0.0,part_2,go,350.0,400.0,1.0,,,,,,,,,orange,square
0.0,5.0,1.0,1.0,6.0,0.0,0.0,8.0,0.0,part_2,stop,350.0,400.0,4.0,,,,,,,,,cyan,hexagon
0.0,4.0,4.0,0.0,5.0,5.0,574.2226438596845,8.0,0.0,part_2,go,350.0,450.0,1.0,,,,,,,,,yellow,circle
0.0,5.0,1.0,1.0,5.0,0.0,0.0,8.0,0.0,part_2,stop,350.0,450.0,4.0,,,,,,,,,cyan,hexagon
0.0,5.0,1.0,1.0,6.0,0.0,0.0,8.0,0.0,part_2,stop,400.0,450.0,4.0,,,,,,,,,cyan,hexagon
0.0,7.0,3.0,1.0,6.0,0.0,0.0,8.0,0.0,part_2,stop,400.0,500.0,4.0,,,,,,,,,green,triangle
0.0,4.0,4.0,0.0,6.0,6.0,540.8073239959776,8.0,0.0,part_2,go,400.0,550.0,1.0,,,,,,,,,yellow,circle
0.0,5.0,1.0,1.0,5.0,0.0,0.0,8.0,0.0,part_2,stop,400.0,550.0,4.0,,,,,,,,,cyan,hexagon
0.0,8.0,4.0,1.0,5.0,0.0,0.0,8.0,0.0,part_2,stop,450.0,550.0,4.0,,,,,,,,,blue,diamond
0.0,5.0,1.0,1.0,5.0,5.0,648.4996979124844,8.0,0.0,part_2,stop,500.0,550.0,3.0,,,,,,,,,cyan,hexagon
0.0,2.0,2.0,0.0,5.0,5.0,487.1365241706371,8.0,0.0,part_2,go,450.0,550.0,1.0,,,,,,,,,magenta,cross
0.0,4.0,4.0,0.0,6.0,6.0,544.8530069552362,8.0,0.0,part_2,go,450.0,550.0,1.0,,,,,,,,,yellow,circle
0.0,7.0,3.0,1.0,6.0,6.0,351.1770591139793,8.0,0.0,part_2,go,450.0,550.0,1.0,,,,,,,,,green,triangle
0.0,7.0,3.0,1.0,5.0,0.0,0.0,8.0,0.0,part_2,stop,450.0,550.0,4.0,,,,,,,,,green,triangle
0.0,3.0,3.0,0.0,6.0,6.0,384.1246641241014,8.0,0.0,part_2,go,500.0,550.0,1.0,,,,,,,,,gray,I
0.0,6.0,2.0,1.0,6.0,6.0,366.4022148586809,8.0,0.0,part_2,go,500.0,550.0,1.0,,,,,,,,,white,flipped triangle
0.0,5.0,1.0,1.0,5.0,5.0,812.0950018055737,8.0,0.0,part_2,stop,500.0,550.0,3.0,,,,,,,,,cyan,hexagon
0.0,3.0,3.0,0.0,6.0,6.0,428.1844492070377,8.0,0.0,part_2,go,450.0,550.0,1.0,,,,,,,,,gray,I
0.0,3.0,3.0,0.0,6.0,6.0,415.0842991657555,8.0,0.0,part_2,go,450.0,550.0,1.0,,,,,,,,,gray,I
0.0,7.0,3.0,1.0,5.0,0.0,0.0,8.0,0.0,part_2,stop,450.0,550.0,4.0,,,,,,,,,green,triangle
0.0,2.0,2.0,0.0,5.0,5.0,506.8221213296056,8.0,0.0,part_2,go,500.0,550.0,1.0,,,,,,,,,magenta,cross
0.0,8.0,4.0,1.0,6.0,6.0,867.5812678411603,8.0,0.0,part_2,go,500.0,550.0,1.0,,,,,,,,,blue,diamond
0.0,3.0,3.0,0.0,5.0,5.0,508.2709863781929,8.0,0.0,part_2,go,500.0,550.0,1.0,,,,,,,,,gray,I
0.0,3.0,3.0,0.0,6.0,6.0,336.1435402184725,8.0,0.0,part_2,go,500.0,550.0,1.0,,,,,,,,,gray,I
0.0,8.0,4.0,1.0,6.0,6.0,394.1612946800887,8.0,0.0,part_2,go,500.0,550.0,1.0,,,,,,,,,blue,diamond
0.0,3.0,3.0,0.0,5.0,5.0,315.4349322430789,8.0,0.0,part_2,go,500.0,550.0,1.0,,,,,,,,,gray,I
0.0,1.0,1.0,0.0,5.0,5.0,375.1329947263002,8.0,0.0,part_2,go,500.0,550.0,1.0,,,,,,,,,orange,square
0.0,8.0,4.0,1.0,6.0,6.0,329.8917631618678,8.0,0.0,part_2,stop,500.0,550.0,3.0,,,,,,,,,blue,diamond
0.0,5.0,1.0,1.0,7.0,4.0,1120.5342053435745,1.0,2.0,part_3,go,0.0,0.0,0.0,162.0,3.0,108.0,216.0,270.0,162.0,54.0,324.0,cyan,hexagon
0.0,5.0,1.0,1.0,7.0,5.0,3274.087283760309,1.0,1.0,part_3,go,0.0,0.0,0.0,156.0,4.0,78.0,39.0,117.0,195.0,156.0,234.0,cyan,hexagon
0.0,2.0,2.0,0.0,7.0,1.0,1914.6531838923693,1.0,1.0,part_3,go,0.0,0.0,0.0,78.0,2.0,78.0,156.0,234.0,195.0,117.0,39.0,magenta,cross
0.0,8.0,4.0,1.0,7.0,5.0,3044.4538830779493,1.0,1.0,part_3,go,0.0,0.0,0.0,102.0,3.0,34.0,68.0,204.0,136.0,102.0,170.0,blue,diamond
0.0,1.0,1.0,0.0,7.0,4.0,2086.814433336258,1.0,1.0,part_3,go,0.0,0.0,0.0,39.0,1.0,156.0,195.0,234.0,39.0,117.0,78.0,orange,square
0.0,5.0,1.0,1.0,7.0,1.0,2685.3960482403636,1.0,1.0,part_3,go,0.0,0.0,0.0,196.0,4.0,196.0,245.0,49.0,294.0,98.0,147.0,cyan,hexagon
0.0,6.0,2.0,1.0,7.0,5.0,1583.092401269823,1.0,1.0,part_3,go,0.0,0.0,0.0,68.0,2.0,170.0,102.0,204.0,34.0,68.0,136.0,white,flipped triangle
0.0,2.0,2.0,0.0,7.0,3.0,1688.0966839380562,1.0,1.0,part_3,go,0.0,0.0,0.0,34.0,1.0,170.0,204.0,34.0,102.0,136.0,68.0,magenta,cross
0.0,5.0,1.0,1.0,7.0,3.0,1696.866578888148,1.0,1.0,part_3,go,0.0,0.0,0.0,108.0,2.0,216.0,54.0,108.0,162.0,324.0,270.0,cyan,hexagon
0.0,2.0,2.0,0.0,7.0,3.0,1883.5246278904376,1.0,1.0,part_3,go,0.0,0.0,0.0,78.0,2.0,39.0,234.0,78.0,156.0,195.0,117.0,magenta,cross
0.0,5.0,1.0,1.0,7.0,1.0,2119.1183868795633,1.0,1.0,part_3,go,0.0,0.0,0.0,102.0,3.0,102.0,170.0,34.0,204.0,68.0,136.0,cyan,hexagon
0.0,7.0,3.0,1.0,7.0,3.0,1759.649442974478,1.0,1.0,part_3,go,0.0,0.0,0.0,132.0,3.0,264.0,88.0,132.0,176.0,220.0,44.0,green,triangle
0.0,3.0,3.0,0.0,7.0,2.0,2126.6420809552073,1.0,1.0,part_3,go,0.0,0.0,0.0,39.0,1.0,78.0,39.0,195.0,156.0,234.0,117.0,gray,I
0.0,6.0,2.0,1.0,7.0,4.0,1648.8739070482552,1.0,1.0,part_3,go,0.0,0.0,0.0,170.0,5.0,204.0,102.0,136.0,170.0,34.0,68.0,white,flipped triangle
0.0,2.0,2.0,0.0,7.0,6.0,2019.3307092413302,1.0,1.0,part_3,go,0.0,0.0,0.0,98.0,2.0,196.0,294.0,49.0,245.0,147.0,98.0,magenta,cross
0.0,7.0,3.0,1.0,7.0,6.0,2164.4150279462337,1.0,1.0,part_3,go,0.0,0.0,0.0,196.0,4.0,98.0,294.0,147.0,245.0,49.0,196.0,green,triangle
0.0,3.0,3.0,0.0,7.0,6.0,1662.4621148221197,1.0,1.0,part_3,go,0.0,0.0,0.0,44.0,1.0,176.0,88.0,220.0,264.0,132.0,44.0,gray,I
0.0,8.0,4.0,1.0,7.0,5.0,1709.9514440633357,1.0,1.0,part_3,go,0.0,0.0,0.0,216.0,4.0,54.0,324.0,270.0,162.0,216.0,108.0,blue,diamond
0.0,3.0,3.0,0.0,7.0,5.0,1591.6354558430612,1.0,1.0,part_3,go,0.0,0.0,0.0,49.0,1.0,245.0,98.0,196.0,294.0,49.0,147.0,gray,I
0.0,4.0,4.0,0.0,7.0,5.0,1385.5821629986167,1.0,1.0,part_3,go,0.0,0.0,0.0,117.0,3.0,156.0,234.0,39.0,78.0,117.0,195.0,yellow,circle
0.0,6.0,2.0,1.0,7.0,5.0,1160.5398040264845,2.0,1.0,part_3,go,0.0,0.0,0.0,162.0,3.0,216.0,54.0,324.0,270.0,162.0,108.0,white,flipped triangle
0.0,6.0,2.0,1.0,7.0,3.0,1386.0821477137506,2.0,1.0,part_3,go,0.0,0.0,0.0,220.0,5.0,264.0,88.0,220.0,176.0,44.0,132.0,white,flipped triangle
0.0,8.0,4.0,1.0,7.0,2.0,1412.861093878746,2.0,1.0,part_3,go,0.0,0.0,0.0,196.0,4.0,98.0,196.0,147.0,294.0,49.0,245.0,blue,diamond
0.0,6.0,2.0,1.0,7.0,5.0,1397.5935289636254,2.0,1.0,part_3,go,0.0,0.0,0.0,264.0,6.0,88.0,220.0,132.0,44.0,264.0,176.0,white,flipped triangle
0.0,2.0,2.0,0.0,7.0,4.0,2188.7967651709914,2.0,1.0,part_3,go,0.0,0.0,0.0,216.0,4.0,108.0,162.0,270.0,216.0,324.0,54.0,magenta,cross
0.0,5.0,1.0,1.0,7.0,6.0,1498.639137018472,2.0,1.0,part_3,go,0.0,0.0,0.0,204.0,6.0,170.0,68.0,34.0,102.0,136.0,204.0,cyan,hexagon
0.0,4.0,4.0,0.0,7.0,1.0,1561.7392440326512,2.0,1.0,part_3,go,0.0,0.0,0.0,162.0,3.0,162.0,54.0,270.0,324.0,216.0,108.0,yellow,circle
0.0,1.0,1.0,0.0,7.0,5.0,1505.5262888781726,2.0,1.0,part_3,go,0.0,0.0,0.0,324.0,6.0,216.0,54.0,270.0,162.0,324.0,108.0,orange,square
0.0,3.0,3.0,0.0,7.0,4.0,1925.4503073170779,2.0,1.0,part_3,go,0.0,0.0,0.0,49.0,1.0,196.0,294.0,245.0,49.0,147.0,98.0,gray,I
0.0,3.0,3.0,0.0,7.0,1.0,1599.9946626834571,2.0,1.0,part_3,go,0.0,0.0,0.0,54.0,1.0,54.0,162.0,108.0,324.0,270.0,216.0,gray,I
0.0,7.0,3.0,1.0,7.0,4.0,2207.693023607135,2.0,1.0,part_3,go,0.0,0.0,0.0,195.0,5.0,78.0,234.0,156.0,195.0,117.0,39.0,green,triangle
0.0,3.0,3.0,0.0,7.0,3.0,2232.069074176252,2.0,1.0,part_3,go,0.0,0.0,0.0,44.0,1.0,220.0,88.0,44.0,132.0,264.0,176.0,gray,I
0.0,3.0,3.0,0.0,7.0,5.0,1570.0213368982077,2.0,1.0,part_3,go,0.0,0.0,0.0,39.0,1.0,156.0,78.0,117.0,195.0,39.0,234.0,gray,I
0.0,1.0,1.0,0.0,7.0,4.0,1434.9937397055328,2.0,1.0,part_3,go,0.0,0.0,0.0,136.0,4.0,102.0,34.0,68.0,136.0,204.0,170.0,orange,square
0.0,4.0,4.0,0.0,7.0,1.0,1515.0626641698182,2.0,1.0,part_3,go,0.0,0.0,0.0,216.0,4.0,216.0,108.0,324.0,162.0,54.0,270.0,yellow,circle
0.0,5.0,1.0,1.0,7.0,3.0,1471.4035131037235,2.0,1.0,part_3,go,0.0,0.0,0.0,264.0,6.0,44.0,176.0,264.0,132.0,88.0,220.0,cyan,hexagon
0.0,7.0,3.0,1.0,7.0,2.0,1800.707865972072,2.0,1.0,part_3,go,0.0,0.0,0.0,270.0,5.0,324.0,270.0,108.0,162.0,54.0,216.0,green,triangle
0.0,2.0,2.0,0.0,7.0,1.0,1879.600381013006,2.0,1.0,part_3,go,0.0,0.0,0.0,49.0,1.0,49.0,245.0,147.0,98.0,196.0,294.0,magenta,cross
0.0,4.0,4.0,0.0,7.0,6.0,1627.4717841297388,2.0,1.0,part_3,go,0.0,0.0,0.0,196.0,4.0,245.0,294.0,49.0,98.0,147.0,196.0,yellow,circle
0.0,4.0,4.0,0.0,7.0,2.0,1572.900245897472,2.0,1.0,part_3,go,0.0,0.0,0.0,132.0,3.0,264.0,132.0,88.0,176.0,220.0,44.0,yellow,circle
0.0,8.0,4.0,1.0,7.0,2.0,1508.9678070507944,3.0,1.0,part_3,go,0.0,0.0,0.0,136.0,4.0,102.0,136.0,34.0,170.0,204.0,68.0,blue,diamond
0.0,4.0,4.0,0.0,7.0,4.0,1680.9863140806556,3.0,1.0,part_3,go,0.0,0.0,0.0,147.0,3.0,196.0,294.0,245.0,147.0,98.0,49.0,yellow,circle
0.0,4.0,4.0,0.0,7.0,3.0,2728.7190528586507,3.0,1.0,part_3,go,0.0,0.0,0.0,170.0,5.0,68.0,34.0,170.0,204.0,136.0,102.0,yellow,circle
0.0,2.0,2.0,0.0,7.0,5.0,1812.7194279804824,3.0,1.0,part_3,go,0.0,0.0,0.0,88.0,2.0,176.0,132.0,44.0,220.0,88.0,264.0,magenta,cross
0.0,7.0,3.0,1.0,7.0,4.0,2001.737141981721,3.0,1.0,part_3,go,0.0,0.0,0.0,195.0,5.0,117.0,78.0,39.0,195.0,234.0,156.0,green,triangle
0.0,3.0,3.0,0.0,7.0,5.0,1523.533885367215,3.0,1.0,part_3,go,0.0,0.0,0.0,34.0,1.0,170.0,68.0,102.0,204.0,34.0,136.0,gray,I
0.0,8.0,4.0,1.0,7.0,5.0,1640.5281303450463,3.0,1.0,part_3,go,0.0,0.0,0.0,220.0,5.0,132.0,44.0,176.0,264.0,220.0,88.0,blue,diamond
0.0,6.0,2.0,1.0,7.0,3.0,2054.6886157244444,3.0,1.0,part_3,go,0.0,0.0,0.0,196.0,4.0,245.0,147.0,196.0,294.0,98.0,49.0,white,flipped triangle
0.0,8.0,4.0,1.0,7.0,2.0,1274.5697116479278,3.0,1.0,part_3,go,0.0,0.0,0.0,220.0,5.0,132.0,220.0,264.0,176.0,88.0,44.0,blue,diamond
0.0,8.0,4.0,1.0,7.0,6.0,1904.7001218423247,3.0,1.0,part_3,go,0.0,0.0,0.0,245.0,5.0,294.0,49.0,98.0,147.0,196.0,245.0,blue,diamond
0.0,2.0,2.0,0.0,7.0,5.0,1618.54841792956,3.0,1.0,part_3,go,0.0,0.0,0.0,68.0,2.0,136.0,170.0,34.0,204.0,68.0,102.0,magenta,cross
0.0,2.0,2.0,0.0,7.0,4.0,1683.531737420708,3.0,1.0,part_3,go,0.0,0.0,0.0,88.0,2.0,44.0,264.0,176.0,88.0,132.0,220.0,magenta,cross
0.0,7.0,3.0,1.0,7.0,2.0,1661.6670456714928,3.0,1.0,part_3,go,0.0,0.0,0.0,196.0,4.0,147.0,196.0,294.0,245.0,49.0,98.0,green,triangle
0.0,8.0,4.0,1.0,7.0,3.0,1656.4800590276718,3.0,1.0,part_3,go,0.0,0.0,0.0,234.0,6.0,78.0,156.0,234.0,195.0,39.0,117.0,blue,diamond
0.0,3.0,3.0,0.0,7.0,6.0,1559.5012181438506,3.0,1.0,part_3,go,0.0,0.0,0.0,34.0,1.0,204.0,68.0,102.0,136.0,170.0,34.0,gray,I
0.0,1.0,1.0,0.0,7.0,3.0,1794.050588272512,3.0,1.0,part_3,go,0.0,0.0,0.0,220.0,5.0,264.0,44.0,220.0,88.0,132.0,176.0,orange,square
0.0,6.0,2.0,1.0,7.0,2.0,1350.6790762767196,3.0,1.0,part_3,go,0.0,0.0,0.0,195.0,5.0,156.0,195.0,39.0,117.0,234.0,78.0,white,flipped triangle
0.0,5.0,1.0,1.0,7.0,1.0,1981.0646288096905,3.0,1.0,part_3,go,0.0,0.0,0.0,245.0,5.0,245.0,98.0,294.0,196.0,49.0,147.0,cyan,hexagon
0.0,6.0,2.0,1.0,7.0,1.0,1823.5812187194824,3.0,1.0,part_3,go,0.0,0.0,0.0,245.0,5.0,245.0,147.0,98.0,294.0,49.0,196.0,white,flipped triangle
0.0,6.0,2.0,1.0,7.0,6.0,1385.58262726292,3.0,1.0,part_3,go,0.0,0.0,0.0,156.0,4.0,117.0,234.0,78.0,195.0,39.0,156.0,white,flipped triangle
0.0,4.0,4.0,0.0,7.0,4.0,1552.1049317903817,4.0,1.0,part_3,go,0.0,0.0,0.0,68.0,2.0,102.0,170.0,136.0,68.0,34.0,204.0,yellow,circle
0.0,7.0,3.0,1.0,7.0,2.0,1304.7700519673526,4.0,1.0,part_3,go,0.0,0.0,0.0,204.0,6.0,102.0,204.0,68.0,170.0,136.0,34.0,green,triangle
0.0,7.0,3.0,1.0,7.0,2.0,1026.8142987042663,4.0,1.0,part_3,go,0.0,0.0,0.0,204.0,6.0,102.0,204.0,170.0,34.0,136.0,68.0,green,triangle
0.0,4.0,4.0,0.0,7.0,6.0,1563.3072098717091,4.0,1.0,part_3,go,0.0,0.0,0.0,117.0,3.0,156.0,234.0,39.0,78.0,195.0,117.0,yellow,circle
0.0,2.0,2.0,0.0,7.0,4.0,1949.46019211784,4.0,1.0,part_3,go,0.0,0.0,0.0,108.0,2.0,324.0,270.0,216.0,108.0,162.0,54.0,magenta,cross
0.0,6.0,2.0,1.0,7.0,4.0,1287.3149868100882,4.0,1.0,part_3,go,0.0,0.0,0.0,162.0,3.0,270.0,216.0,324.0,162.0,54.0,108.0,white,flipped triangle
0.0,5.0,1.0,1.0,7.0,1.0,2973.7641075626016,4.0,1.0,part_3,go,0.0,0.0,0.0,234.0,6.0,234.0,195.0,156.0,39.0,78.0,117.0,cyan,hexagon
0.0,8.0,4.0,1.0,7.0,1.0,1457.6186360791326,4.0,1.0,part_3,go,0.0,0.0,0.0,195.0,5.0,195.0,156.0,78.0,39.0,117.0,234.0,blue,diamond
0.0,4.0,4.0,0.0,7.0,1.0,1578.399107325822,4.0,1.0,part_3,go,0.0,0.0,0.0,44.0,1.0,44.0,132.0,88.0,264.0,176.0,220.0,yellow,circle
0.0,1.0,1.0,0.0,7.0,5.0,1269.8269141837957,4.0,1.0,part_3,go,0.0,0.0,0.0,147.0,3.0,49.0,98.0,294.0,245.0,147.0,196.0,orange,square
0.0,1.0,1.0,0.0,7.0,3.0,1116.5791819803417,4.0,1.0,part_3,go,0.0,0.0,0.0,132.0,3.0,176.0,44.0,132.0,220.0,88.0,264.0,orange,square
0.0,1.0,1.0,0.0,7.0,4.0,1574.4593990966678,4.0,1.0,part_3,go,0.0,0.0,0.0,147.0,3.0,98.0,49.0,196.0,147.0,294.0,245.0,orange,square
0.0,1.0,1.0,0.0,7.0,3.0,1687.016662210226,4.0,1.0,part_3,go,0.0,0.0,0.0,156.0,4.0,234.0,78.0,156.0,117.0,195.0,39.0,orange,square
0.0,7.0,3.0,1.0,7.0,3.0,2041.896881069988,4.0,1.0,part_3,go,0.0,0.0,0.0,108.0,2.0,270.0,162.0,108.0,216.0,324.0,54.0,green,triangle
0.0,5.0,1.0,1.0,7.0,3.0,1658.6381890811026,4.0,1.0,part_3,go,0.0,0.0,0.0,220.0,5.0,132.0,176.0,220.0,44.0,88.0,264.0,cyan,hexagon
0.0,1.0,1.0,0.0,7.0,1.0,1581.105187069625,4.0,1.0,part_3,go,0.0,0.0,0.0,170.0,5.0,170.0,204.0,68.0,136.0,102.0,34.0,orange,square
0.0,1.0,1.0,0.0,7.0,4.0,1996.205106843263,4.0,1.0,part_3,go,0.0,0.0,0.0,162.0,3.0,216.0,270.0,54.0,162.0,324.0,108.0,orange,square
0.0,7.0,3.0,1.0,7.0,5.0,1551.7956078983843,4.0,1.0,part_3,go,0.0,0.0,0.0,176.0,4.0,264.0,220.0,132.0,88.0,176.0,44.0,green,triangle
0.0,8.0,4.0,1.0,7.0,2.0,1737.6504419371486,4.0,1.0,part_3,go,0.0,0.0,0.0,270.0,5.0,216.0,270.0,162.0,108.0,54.0,324.0,blue,diamond
0.0,3.0,3.0,0.0,7.0,1.0,1431.0405920259657,4.0,1.0,part_3,go,0.0,0.0,0.0,216.0,4.0,216.0,162.0,324.0,270.0,108.0,54.0,gray,I
