raw_reward_magnitude,stim_reward,stepwise_reward_magnitude,paired_with_stopping,stim_location,response,reaction_time,block,num_trial_presentations,which_phase,stop_signal_trial_type,left_SSD,right_SSD,accuracy,chosen_bidding_amount,chosen_bidding_level,possible_bid_1,possible_bid_2,possible_bid_3,possible_bid_4,possible_bid_5,possible_bid_6,color_text,shape_text
200.0,7.0,2.0,1.0,3.0,3.0,443.8834800384938,1.0,1.0,phase_1,,,,,,,,,,,,,green,I
418.0,4.0,4.0,0.0,4.0,4.0,425.8637479506433,1.0,1.0,phase_1,,,,,,,,,,,,,cyan,triangle
104.0,2.0,1.0,0.0,2.0,2.0,310.6379471719265,1.0,1.0,phase_1,,,,,,,,,,,,,blue,flipped triangle
58.0,5.0,0.5,1.0,1.0,1.0,276.305977255106,1.0,1.0,phase_1,,,,,,,,,,,,,orange,square
45.0,1.0,0.5,0.0,3.0,3.0,373.298856895417,1.0,1.0,phase_1,,,,,,,,,,,,,magenta,cross
420.0,4.0,4.0,0.0,1.0,1.0,346.0760968737304,1.0,1.0,phase_1,,,,,,,,,,,,,cyan,triangle
74.0,1.0,0.5,0.0,1.0,1.0,351.6583116725087,1.0,1.0,phase_1,,,,,,,,,,,,,magenta,cross
180.0,3.0,2.0,0.0,4.0,4.0,374.2129439488053,1.0,1.0,phase_1,,,,,,,,,,,,,white,circle
123.0,2.0,1.0,0.0,4.0,4.0,367.5471781753003,1.0,1.0,phase_1,,,,,,,,,,,,,blue,flipped triangle
41.0,5.0,0.5,1.0,4.0,4.0,304.538844153285,1.0,1.0,phase_1,,,,,,,,,,,,,orange,square
222.0,7.0,2.0,1.0,2.0,2.0,467.78030321002,1.0,1.0,phase_1,,,,,,,,,,,,,green,I
46.0,5.0,0.5,1.0,4.0,4.0,360.3697149083018,1.0,1.0,phase_1,,,,,,,,,,,,,orange,square
42.0,5.0,0.5,1.0,4.0,4.0,322.6122441701591,1.0,1.0,phase_1,,,,,,,,,,,,,orange,square
31.0,1.0,0.5,0.0,2.0,2.0,319.8408666066825,1.0,1.0,phase_1,,,,,,,,,,,,,magenta,cross
411.0,8.0,4.0,1.0,2.0,2.0,340.9897577948868,1.0,1.0,phase_1,,,,,,,,,,,,,gray,hexagon
0.0,7.0,0.0,1.0,1.0,1.0,339.4032143987715,1.0,1.0,phase_1,,,,,,,,,,,,,green,I
59.0,5.0,0.5,1.0,3.0,3.0,321.4836539700627,1.0,1.0,phase_1,,,,,,,,,,,,,orange,square
110.0,2.0,1.0,0.0,3.0,3.0,370.1611859723925,1.0,1.0,phase_1,,,,,,,,,,,,,blue,flipped triangle
191.0,7.0,2.0,1.0,1.0,1.0,298.1336652301252,1.0,1.0,phase_1,,,,,,,,,,,,,green,I
0.0,7.0,0.0,1.0,3.0,3.0,411.5953310392797,1.0,1.0,phase_1,,,,,,,,,,,,,green,I
121.0,2.0,1.0,0.0,3.0,3.0,362.8856078721583,1.0,1.0,phase_1,,,,,,,,,,,,,blue,flipped triangle
46.0,5.0,0.5,1.0,4.0,4.0,293.6472413130104,1.0,1.0,phase_1,,,,,,,,,,,,,orange,square
59.0,1.0,0.5,0.0,1.0,1.0,306.3178728334605,1.0,1.0,phase_1,,,,,,,,,,,,,magenta,cross
75.0,6.0,1.0,1.0,2.0,2.0,385.9974392689764,1.0,1.0,phase_1,,,,,,,,,,,,,yellow,diamond
0.0,8.0,0.0,1.0,1.0,1.0,362.5282240100205,1.0,1.0,phase_1,,,,,,,,,,,,,gray,hexagon
200.0,7.0,2.0,1.0,2.0,2.0,311.9809301570058,1.0,1.0,phase_1,,,,,,,,,,,,,green,I
46.0,1.0,0.5,0.0,1.0,1.0,318.0269789882004,1.0,1.0,phase_1,,,,,,,,,,,,,magenta,cross
0.0,6.0,0.0,1.0,3.0,3.0,314.7947210818529,1.0,1.0,phase_1,,,,,,,,,,,,,yellow,diamond
58.0,1.0,0.5,0.0,2.0,2.0,334.3200292438268,1.0,1.0,phase_1,,,,,,,,,,,,,magenta,cross
407.0,4.0,4.0,0.0,3.0,3.0,372.6296620443463,1.0,1.0,phase_1,,,,,,,,,,,,,cyan,triangle
34.0,1.0,0.5,0.0,2.0,2.0,375.2584210596978,1.0,1.0,phase_1,,,,,,,,,,,,,magenta,cross
90.0,2.0,1.0,0.0,3.0,3.0,319.0331291407347,1.0,1.0,phase_1,,,,,,,,,,,,,blue,flipped triangle
119.0,6.0,1.0,1.0,1.0,1.0,296.1189327761531,1.0,1.0,phase_1,,,,,,,,,,,,,yellow,diamond
387.0,4.0,4.0,0.0,2.0,2.0,325.8237009868026,1.0,1.0,phase_1,,,,,,,,,,,,,cyan,triangle
62.0,1.0,0.5,0.0,2.0,2.0,332.7358537353575,1.0,1.0,phase_1,,,,,,,,,,,,,magenta,cross
50.0,1.0,0.5,0.0,4.0,4.0,499.8984532430768,1.0,2.0,phase_1,,,,,,,,,,,,,magenta,cross
380.0,8.0,4.0,1.0,4.0,4.0,362.5711719505489,1.0,1.0,phase_1,,,,,,,,,,,,,gray,hexagon
393.0,4.0,4.0,0.0,1.0,1.0,350.3386178053915,1.0,1.0,phase_1,,,,,,,,,,,,,cyan,triangle
222.0,3.0,2.0,0.0,4.0,4.0,417.6693758927285,1.0,1.0,phase_1,,,,,,,,,,,,,white,circle
380.0,4.0,4.0,0.0,3.0,3.0,330.0669752061367,1.0,1.0,phase_1,,,,,,,,,,,,,cyan,triangle
0.0,2.0,0.0,0.0,2.0,2.0,300.6798159331083,1.0,1.0,phase_1,,,,,,,,,,,,,blue,flipped triangle
209.0,3.0,2.0,0.0,1.0,1.0,362.5399409793317,1.0,1.0,phase_1,,,,,,,,,,,,,white,circle
200.0,3.0,2.0,0.0,2.0,2.0,342.3810973763466,1.0,1.0,phase_1,,,,,,,,,,,,,white,circle
0.0,4.0,0.0,0.0,1.0,1.0,307.4672492220998,1.0,1.0,phase_1,,,,,,,,,,,,,cyan,triangle
69.0,5.0,0.5,1.0,3.0,3.0,381.3056778162718,1.0,1.0,phase_1,,,,,,,,,,,,,orange,square
189.0,3.0,2.0,0.0,3.0,3.0,340.5663692392409,1.0,1.0,phase_1,,,,,,,,,,,,,white,circle
407.0,4.0,4.0,0.0,3.0,3.0,354.7057542018592,1.0,1.0,phase_1,,,,,,,,,,,,,cyan,triangle
403.0,4.0,4.0,0.0,1.0,1.0,363.7864701449871,1.0,1.0,phase_1,,,,,,,,,,,,,cyan,triangle
102.0,2.0,1.0,0.0,1.0,1.0,400.2283401787281,1.0,1.0,phase_1,,,,,,,,,,,,,blue,flipped triangle
0.0,4.0,0.0,0.0,4.0,4.0,424.6076429262757,1.0,1.0,phase_1,,,,,,,,,,,,,cyan,triangle
191.0,3.0,2.0,0.0,1.0,1.0,361.5818922407925,1.0,1.0,phase_1,,,,,,,,,,,,,white,circle
413.0,8.0,4.0,1.0,4.0,4.0,402.0707118324935,1.0,1.0,phase_1,,,,,,,,,,,,,gray,hexagon
0.0,1.0,0.0,0.0,1.0,1.0,340.7526812516153,1.0,1.0,phase_1,,,,,,,,,,,,,magenta,cross
37.0,5.0,0.5,1.0,2.0,2.0,442.4321479164064,1.0,1.0,phase_1,,,,,,,,,,,,,orange,square
100.0,6.0,1.0,1.0,4.0,4.0,518.5550996102393,1.0,1.0,phase_1,,,,,,,,,,,,,yellow,diamond
34.0,5.0,0.5,1.0,1.0,1.0,337.5393669120967,1.0,1.0,phase_1,,,,,,,,,,,,,orange,square
212.0,7.0,2.0,1.0,3.0,3.0,383.4544331766665,1.0,1.0,phase_1,,,,,,,,,,,,,green,I
0.0,1.0,0.0,0.0,3.0,3.0,333.2827752456069,1.0,1.0,phase_1,,,,,,,,,,,,,magenta,cross
0.0,6.0,0.0,1.0,4.0,4.0,375.600459985435,1.0,1.0,phase_1,,,,,,,,,,,,,yellow,diamond
195.0,7.0,2.0,1.0,4.0,4.0,353.1564990989864,1.0,2.0,phase_1,,,,,,,,,,,,,green,I
178.0,3.0,2.0,0.0,2.0,2.0,366.2055749446153,1.0,1.0,phase_1,,,,,,,,,,,,,white,circle
80.0,6.0,1.0,1.0,3.0,3.0,346.2558528408408,1.0,1.0,phase_1,,,,,,,,,,,,,yellow,diamond
45.0,5.0,0.5,1.0,2.0,2.0,353.4598620608449,1.0,1.0,phase_1,,,,,,,,,,,,,orange,square
205.0,3.0,2.0,0.0,1.0,1.0,324.1964005865156,1.0,1.0,phase_1,,,,,,,,,,,,,white,circle
42.0,1.0,0.5,0.0,2.0,2.0,375.2637840807438,1.0,1.0,phase_1,,,,,,,,,,,,,magenta,cross
225.0,3.0,2.0,0.0,2.0,2.0,407.5850653462112,1.0,1.0,phase_1,,,,,,,,,,,,,white,circle
0.0,8.0,0.0,1.0,1.0,1.0,321.9432872720063,1.0,1.0,phase_1,,,,,,,,,,,,,gray,hexagon
90.0,6.0,1.0,1.0,1.0,1.0,288.2283977232873,1.0,1.0,phase_1,,,,,,,,,,,,,yellow,diamond
0.0,6.0,0.0,1.0,4.0,4.0,427.6945157907903,1.0,1.0,phase_1,,,,,,,,,,,,,yellow,diamond
417.0,4.0,4.0,0.0,4.0,4.0,377.9007429257035,1.0,1.0,phase_1,,,,,,,,,,,,,cyan,triangle
389.0,4.0,4.0,0.0,2.0,2.0,373.86393873021,1.0,1.0,phase_1,,,,,,,,,,,,,cyan,triangle
36.0,5.0,0.5,1.0,1.0,1.0,387.6601760275662,1.0,1.0,phase_1,,,,,,,,,,,,,orange,square
392.0,4.0,4.0,0.0,2.0,2.0,328.4995392896235,1.0,1.0,phase_1,,,,,,,,,,,,,cyan,triangle
207.0,3.0,2.0,0.0,3.0,3.0,381.9536101073026,1.0,1.0,phase_1,,,,,,,,,,,,,white,circle
383.0,8.0,4.0,1.0,4.0,4.0,422.6924399845302,1.0,1.0,phase_1,,,,,,,,,,,,,gray,hexagon
187.0,7.0,2.0,1.0,4.0,4.0,423.5392790287733,1.0,1.0,phase_1,,,,,,,,,,,,,green,I
64.0,5.0,0.5,1.0,4.0,4.0,320.0258398428559,1.0,1.0,phase_1,,,,,,,,,,,,,orange,square
0.0,8.0,0.0,1.0,1.0,1.0,316.379904281348,1.0,1.0,phase_1,,,,,,,,,,,,,gray,hexagon
220.0,7.0,2.0,1.0,3.0,3.0,386.1928270198405,1.0,1.0,phase_1,,,,,,,,,,,,,green,I
0.0,5.0,0.0,1.0,4.0,4.0,359.5324214547872,1.0,1.0,phase_1,,,,,,,,,,,,,orange,square
87.0,6.0,1.0,1.0,2.0,2.0,357.3818909935653,1.0,1.0,phase_1,,,,,,,,,,,,,yellow,diamond
405.0,8.0,4.0,1.0,1.0,1.0,351.4251820743084,1.0,1.0,phase_1,,,,,,,,,,,,,gray,hexagon
418.0,8.0,4.0,1.0,1.0,1.0,374.8869458213448,1.0,1.0,phase_1,,,,,,,,,,,,,gray,hexagon
0.0,7.0,0.0,1.0,1.0,1.0,395.3519789502024,1.0,1.0,phase_1,,,,,,,,,,,,,green,I
0.0,3.0,0.0,0.0,1.0,1.0,342.8272940218448,1.0,1.0,phase_1,,,,,,,,,,,,,white,circle
376.0,8.0,4.0,1.0,3.0,3.0,722.1421250142157,1.0,1.0,phase_1,,,,,,,,,,,,,gray,hexagon
102.0,6.0,1.0,1.0,2.0,2.0,384.6414061263203,1.0,1.0,phase_1,,,,,,,,,,,,,yellow,diamond
107.0,6.0,1.0,1.0,4.0,4.0,405.4577918723225,1.0,1.0,phase_1,,,,,,,,,,,,,yellow,diamond
81.0,6.0,1.0,1.0,2.0,2.0,313.705104868859,1.0,1.0,phase_1,,,,,,,,,,,,,yellow,diamond
393.0,8.0,4.0,1.0,4.0,4.0,342.1599338762462,1.0,1.0,phase_1,,,,,,,,,,,,,gray,hexagon
86.0,2.0,1.0,0.0,4.0,4.0,364.7216339595616,1.0,1.0,phase_1,,,,,,,,,,,,,blue,flipped triangle
190.0,3.0,2.0,0.0,3.0,3.0,383.338863030076,1.0,1.0,phase_1,,,,,,,,,,,,,white,circle
0.0,7.0,0.0,1.0,2.0,2.0,381.5052672289312,1.0,1.0,phase_1,,,,,,,,,,,,,green,I
102.0,2.0,1.0,0.0,4.0,4.0,387.9831051453948,1.0,1.0,phase_1,,,,,,,,,,,,,blue,flipped triangle
27.0,5.0,0.5,1.0,2.0,2.0,342.5995246507227,1.0,1.0,phase_1,,,,,,,,,,,,,orange,square
28.0,5.0,0.5,1.0,4.0,4.0,355.5635530501604,1.0,1.0,phase_1,,,,,,,,,,,,,orange,square
33.0,5.0,0.5,1.0,2.0,2.0,392.1725368127227,1.0,1.0,phase_1,,,,,,,,,,,,,orange,square
117.0,6.0,1.0,1.0,4.0,4.0,334.6102680079639,1.0,1.0,phase_1,,,,,,,,,,,,,yellow,diamond
88.0,2.0,1.0,0.0,4.0,4.0,378.4065530635416,1.0,1.0,phase_1,,,,,,,,,,,,,blue,flipped triangle
54.0,5.0,0.5,1.0,2.0,2.0,419.8856828734278,1.0,1.0,phase_1,,,,,,,,,,,,,orange,square
0.0,5.0,0.0,1.0,4.0,4.0,419.8766588233411,2.0,1.0,phase_1,,,,,,,,,,,,,orange,square
100.0,2.0,1.0,0.0,1.0,1.0,465.1784687303006,2.0,1.0,phase_1,,,,,,,,,,,,,blue,flipped triangle
0.0,1.0,0.0,0.0,3.0,3.0,491.3277737796306,2.0,1.0,phase_1,,,,,,,,,,,,,magenta,cross
69.0,1.0,0.5,0.0,2.0,2.0,366.8352458626032,2.0,1.0,phase_1,,,,,,,,,,,,,magenta,cross
0.0,5.0,0.0,1.0,1.0,1.0,339.7021698765456,2.0,1.0,phase_1,,,,,,,,,,,,,orange,square
0.0,2.0,0.0,0.0,2.0,2.0,425.3960619680583,2.0,1.0,phase_1,,,,,,,,,,,,,blue,flipped triangle
0.0,2.0,0.0,0.0,4.0,4.0,536.1955380067229,2.0,1.0,phase_1,,,,,,,,,,,,,blue,flipped triangle
0.0,2.0,0.0,0.0,4.0,4.0,485.5407867580652,2.0,1.0,phase_1,,,,,,,,,,,,,blue,flipped triangle
0.0,7.0,0.0,1.0,3.0,3.0,393.5678526759147,2.0,1.0,phase_1,,,,,,,,,,,,,green,I
417.0,8.0,4.0,1.0,3.0,3.0,371.6570348478853,2.0,1.0,phase_1,,,,,,,,,,,,,gray,hexagon
177.0,7.0,2.0,1.0,2.0,2.0,407.8296199440956,2.0,1.0,phase_1,,,,,,,,,,,,,green,I
0.0,8.0,0.0,1.0,2.0,2.0,348.4622472897172,2.0,1.0,phase_1,,,,,,,,,,,,,gray,hexagon
396.0,4.0,4.0,0.0,3.0,3.0,425.4088709130883,2.0,1.0,phase_1,,,,,,,,,,,,,cyan,triangle
0.0,2.0,0.0,0.0,1.0,1.0,342.1240127645433,2.0,1.0,phase_1,,,,,,,,,,,,,blue,flipped triangle
190.0,7.0,2.0,1.0,2.0,2.0,459.7242851741612,2.0,1.0,phase_1,,,,,,,,,,,,,green,I
0.0,3.0,0.0,0.0,1.0,1.0,309.9469114094972,2.0,2.0,phase_1,,,,,,,,,,,,,white,circle
413.0,4.0,4.0,0.0,2.0,2.0,354.9290671944618,2.0,1.0,phase_1,,,,,,,,,,,,,cyan,triangle
0.0,8.0,0.0,1.0,3.0,3.0,383.4585850127041,2.0,1.0,phase_1,,,,,,,,,,,,,gray,hexagon
408.0,8.0,4.0,1.0,4.0,4.0,466.4611760526895,2.0,1.0,phase_1,,,,,,,,,,,,,gray,hexagon
0.0,4.0,0.0,0.0,3.0,3.0,337.193519808352,2.0,1.0,phase_1,,,,,,,,,,,,,cyan,triangle
81.0,2.0,1.0,0.0,3.0,3.0,317.5240997225046,2.0,1.0,phase_1,,,,,,,,,,,,,blue,flipped triangle
86.0,6.0,1.0,1.0,3.0,3.0,321.1514898575842,2.0,1.0,phase_1,,,,,,,,,,,,,yellow,diamond
177.0,3.0,2.0,0.0,2.0,2.0,461.3122078590095,2.0,1.0,phase_1,,,,,,,,,,,,,white,circle
394.0,4.0,4.0,0.0,4.0,4.0,445.9968148730695,2.0,1.0,phase_1,,,,,,,,,,,,,cyan,triangle
417.0,8.0,4.0,1.0,1.0,1.0,458.4851828403771,2.0,1.0,phase_1,,,,,,,,,,,,,gray,hexagon
0.0,5.0,0.0,1.0,4.0,4.0,590.3946021571755,2.0,1.0,phase_1,,,,,,,,,,,,,orange,square
177.0,3.0,2.0,0.0,3.0,3.0,353.8523060269654,2.0,1.0,phase_1,,,,,,,,,,,,,white,circle
115.0,2.0,1.0,0.0,3.0,3.0,416.4811219088733,2.0,1.0,phase_1,,,,,,,,,,,,,blue,flipped triangle
400.0,4.0,4.0,0.0,3.0,3.0,417.2356012277305,2.0,1.0,phase_1,,,,,,,,,,,,,cyan,triangle
200.0,3.0,2.0,0.0,2.0,2.0,334.0782313607633,2.0,1.0,phase_1,,,,,,,,,,,,,white,circle
223.0,3.0,2.0,0.0,4.0,4.0,397.3288107663393,2.0,1.0,phase_1,,,,,,,,,,,,,white,circle
0.0,6.0,0.0,1.0,1.0,1.0,371.1713422089815,2.0,1.0,phase_1,,,,,,,,,,,,,yellow,diamond
39.0,5.0,0.5,1.0,3.0,3.0,399.3106461130082,2.0,1.0,phase_1,,,,,,,,,,,,,orange,square
219.0,3.0,2.0,0.0,2.0,2.0,320.8810770884156,2.0,1.0,phase_1,,,,,,,,,,,,,white,circle
112.0,2.0,1.0,0.0,2.0,2.0,367.5204147584736,2.0,1.0,phase_1,,,,,,,,,,,,,blue,flipped triangle
403.0,8.0,4.0,1.0,2.0,2.0,420.8724261261523,2.0,1.0,phase_1,,,,,,,,,,,,,gray,hexagon
410.0,8.0,4.0,1.0,2.0,2.0,322.0459530130029,2.0,1.0,phase_1,,,,,,,,,,,,,gray,hexagon
0.0,6.0,0.0,1.0,3.0,3.0,357.5808750465512,2.0,1.0,phase_1,,,,,,,,,,,,,yellow,diamond
403.0,8.0,4.0,1.0,2.0,2.0,346.8790077604353,2.0,1.0,phase_1,,,,,,,,,,,,,gray,hexagon
380.0,8.0,4.0,1.0,4.0,4.0,420.9584076888859,2.0,1.0,phase_1,,,,,,,,,,,,,gray,hexagon
383.0,4.0,4.0,0.0,3.0,3.0,371.4735372923314,2.0,1.0,phase_1,,,,,,,,,,,,,cyan,triangle
197.0,3.0,2.0,0.0,4.0,4.0,337.8514586947858,2.0,1.0,phase_1,,,,,,,,,,,,,white,circle
194.0,7.0,2.0,1.0,2.0,2.0,394.9726726859808,2.0,1.0,phase_1,,,,,,,,,,,,,green,I
0.0,4.0,0.0,0.0,1.0,1.0,345.5388648435473,2.0,1.0,phase_1,,,,,,,,,,,,,cyan,triangle
0.0,3.0,0.0,0.0,3.0,3.0,358.2487110979855,2.0,1.0,phase_1,,,,,,,,,,,,,white,circle
177.0,7.0,2.0,1.0,3.0,3.0,333.0081021413207,2.0,1.0,phase_1,,,,,,,,,,,,,green,I
380.0,4.0,4.0,0.0,3.0,3.0,320.7166530191898,2.0,1.0,phase_1,,,,,,,,,,,,,cyan,triangle
219.0,7.0,2.0,1.0,4.0,4.0,428.9167611859739,2.0,1.0,phase_1,,,,,,,,,,,,,green,I
186.0,3.0,2.0,0.0,1.0,1.0,338.3446163497865,2.0,1.0,phase_1,,,,,,,,,,,,,white,circle
412.0,4.0,4.0,0.0,2.0,2.0,317.1537327580154,2.0,1.0,phase_1,,,,,,,,,,,,,cyan,triangle
88.0,6.0,1.0,1.0,2.0,2.0,339.3292240798473,2.0,1.0,phase_1,,,,,,,,,,,,,yellow,diamond
32.0,1.0,0.5,0.0,4.0,4.0,409.1003090143204,2.0,1.0,phase_1,,,,,,,,,,,,,magenta,cross
200.0,7.0,2.0,1.0,3.0,3.0,395.9222049452364,2.0,1.0,phase_1,,,,,,,,,,,,,green,I
96.0,2.0,1.0,0.0,2.0,2.0,350.9335177950561,2.0,1.0,phase_1,,,,,,,,,,,,,blue,flipped triangle
98.0,6.0,1.0,1.0,4.0,4.0,774.3163728155196,2.0,1.0,phase_1,,,,,,,,,,,,,yellow,diamond
0.0,3.0,0.0,0.0,1.0,1.0,335.8970428816974,2.0,1.0,phase_1,,,,,,,,,,,,,white,circle
0.0,6.0,0.0,1.0,4.0,4.0,334.145036060363,2.0,1.0,phase_1,,,,,,,,,,,,,yellow,diamond
420.0,8.0,4.0,1.0,2.0,2.0,425.2795162610709,2.0,1.0,phase_1,,,,,,,,,,,,,gray,hexagon
80.0,2.0,1.0,0.0,3.0,3.0,433.6381359025836,2.0,1.0,phase_1,,,,,,,,,,,,,blue,flipped triangle
195.0,7.0,2.0,1.0,2.0,2.0,354.6926230192184,2.0,1.0,phase_1,,,,,,,,,,,,,green,I
392.0,8.0,4.0,1.0,3.0,3.0,416.9345260597765,2.0,1.0,phase_1,,,,,,,,,,,,,gray,hexagon
391.0,4.0,4.0,0.0,3.0,3.0,367.4476128071546,2.0,1.0,phase_1,,,,,,,,,,,,,cyan,triangle
187.0,3.0,2.0,0.0,2.0,2.0,321.1822831071913,2.0,1.0,phase_1,,,,,,,,,,,,,white,circle
377.0,4.0,4.0,0.0,3.0,3.0,297.1224216744303,2.0,1.0,phase_1,,,,,,,,,,,,,cyan,triangle
207.0,7.0,2.0,1.0,4.0,4.0,372.9260321706533,2.0,1.0,phase_1,,,,,,,,,,,,,green,I
108.0,6.0,1.0,1.0,3.0,3.0,344.9379000812769,2.0,1.0,phase_1,,,,,,,,,,,,,yellow,diamond
0.0,8.0,0.0,1.0,1.0,1.0,358.2622306421399,2.0,1.0,phase_1,,,,,,,,,,,,,gray,hexagon
0.0,7.0,0.0,1.0,2.0,2.0,312.4396000057459,2.0,1.0,phase_1,,,,,,,,,,,,,green,I
80.0,2.0,1.0,0.0,1.0,1.0,383.3965961821377,2.0,1.0,phase_1,,,,,,,,,,,,,blue,flipped triangle
84.0,6.0,1.0,1.0,2.0,2.0,329.6209149993956,2.0,1.0,phase_1,,,,,,,,,,,,,yellow,diamond
51.0,5.0,0.5,1.0,3.0,3.0,382.6914760284126,2.0,1.0,phase_1,,,,,,,,,,,,,orange,square
37.0,1.0,0.5,0.0,3.0,3.0,332.8332719393074,2.0,1.0,phase_1,,,,,,,,,,,,,magenta,cross
225.0,7.0,2.0,1.0,1.0,1.0,346.5739809907973,2.0,1.0,phase_1,,,,,,,,,,,,,green,I
192.0,7.0,2.0,1.0,1.0,1.0,390.9124620258808,2.0,1.0,phase_1,,,,,,,,,,,,,green,I
223.0,7.0,2.0,1.0,4.0,4.0,481.5695700235665,2.0,1.0,phase_1,,,,,,,,,,,,,green,I
74.0,5.0,0.5,1.0,4.0,4.0,399.4198609143495,2.0,1.0,phase_1,,,,,,,,,,,,,orange,square
123.0,2.0,1.0,0.0,3.0,3.0,362.3700742609799,2.0,1.0,phase_1,,,,,,,,,,,,,blue,flipped triangle
202.0,7.0,2.0,1.0,4.0,4.0,382.708421908319,2.0,1.0,phase_1,,,,,,,,,,,,,green,I
0.0,3.0,0.0,0.0,4.0,4.0,355.7183630764484,2.0,1.0,phase_1,,,,,,,,,,,,,white,circle
192.0,3.0,2.0,0.0,3.0,3.0,321.2988367304206,2.0,1.0,phase_1,,,,,,,,,,,,,white,circle
76.0,6.0,1.0,1.0,3.0,3.0,317.2551319003105,2.0,1.0,phase_1,,,,,,,,,,,,,yellow,diamond
60.0,5.0,0.5,1.0,3.0,3.0,316.5891086682677,2.0,1.0,phase_1,,,,,,,,,,,,,orange,square
102.0,6.0,1.0,1.0,3.0,3.0,296.6559990309179,2.0,1.0,phase_1,,,,,,,,,,,,,yellow,diamond
87.0,2.0,1.0,0.0,2.0,2.0,435.7516299933195,2.0,1.0,phase_1,,,,,,,,,,,,,blue,flipped triangle
78.0,2.0,1.0,0.0,2.0,2.0,320.4823289997875,2.0,1.0,phase_1,,,,,,,,,,,,,blue,flipped triangle
75.0,6.0,1.0,1.0,2.0,2.0,316.84126937761897,2.0,1.0,phase_1,,,,,,,,,,,,,yellow,diamond
423.0,4.0,4.0,0.0,4.0,4.0,353.0543749220669,2.0,1.0,phase_1,,,,,,,,,,,,,cyan,triangle
0.0,3.0,0.0,0.0,1.0,1.0,382.0374528877437,2.0,1.0,phase_1,,,,,,,,,,,,,white,circle
107.0,2.0,1.0,0.0,1.0,1.0,373.9929459989071,2.0,1.0,phase_1,,,,,,,,,,,,,blue,flipped triangle
46.0,5.0,0.5,1.0,4.0,4.0,435.3236239403486,2.0,1.0,phase_1,,,,,,,,,,,,,orange,square
103.0,2.0,1.0,0.0,3.0,3.0,348.5057540237903,2.0,1.0,phase_1,,,,,,,,,,,,,blue,flipped triangle
0.0,1.0,0.0,0.0,4.0,4.0,395.3072279691696,2.0,1.0,phase_1,,,,,,,,,,,,,magenta,cross
124.0,2.0,1.0,0.0,4.0,4.0,400.722939055413,2.0,1.0,phase_1,,,,,,,,,,,,,blue,flipped triangle
0.0,3.0,0.0,0.0,2.0,2.0,345.5293788574636,2.0,1.0,phase_1,,,,,,,,,,,,,white,circle
91.0,2.0,1.0,0.0,4.0,4.0,383.1430901773274,2.0,1.0,phase_1,,,,,,,,,,,,,blue,flipped triangle
396.0,4.0,4.0,0.0,1.0,1.0,323.9970258437097,2.0,1.0,phase_1,,,,,,,,,,,,,cyan,triangle
375.0,8.0,4.0,1.0,1.0,1.0,355.099658947438,2.0,1.0,phase_1,,,,,,,,,,,,,gray,hexagon
205.0,7.0,2.0,1.0,2.0,2.0,358.2373191602528,2.0,1.0,phase_1,,,,,,,,,,,,,green,I
0.0,4.0,0.0,0.0,1.0,1.0,361.7223370820284,2.0,1.0,phase_1,,,,,,,,,,,,,cyan,triangle
405.0,4.0,4.0,0.0,4.0,4.0,366.4818741381168,2.0,1.0,phase_1,,,,,,,,,,,,,cyan,triangle
0.0,3.0,0.0,0.0,3.0,3.0,486.200210172683,3.0,1.0,phase_1,,,,,,,,,,,,,white,circle
31.0,5.0,0.5,1.0,2.0,2.0,354.6129888854921,3.0,1.0,phase_1,,,,,,,,,,,,,orange,square
73.0,1.0,0.5,0.0,2.0,2.0,309.2905399389565,3.0,1.0,phase_1,,,,,,,,,,,,,magenta,cross
115.0,2.0,1.0,0.0,4.0,4.0,373.8063862547278,3.0,1.0,phase_1,,,,,,,,,,,,,blue,flipped triangle
76.0,2.0,1.0,0.0,4.0,4.0,313.5197958908975,3.0,1.0,phase_1,,,,,,,,,,,,,blue,flipped triangle
380.0,4.0,4.0,0.0,4.0,4.0,317.315156571567,3.0,1.0,phase_1,,,,,,,,,,,,,cyan,triangle
183.0,3.0,2.0,0.0,1.0,1.0,335.5566961690783,3.0,2.0,phase_1,,,,,,,,,,,,,white,circle
223.0,7.0,2.0,1.0,1.0,1.0,314.3623131327331,3.0,1.0,phase_1,,,,,,,,,,,,,green,I
184.0,3.0,2.0,0.0,3.0,3.0,465.7861292362213,3.0,1.0,phase_1,,,,,,,,,,,,,white,circle
58.0,5.0,0.5,1.0,2.0,2.0,334.6557109616697,3.0,1.0,phase_1,,,,,,,,,,,,,orange,square
123.0,6.0,1.0,1.0,1.0,1.0,297.6271589286625,3.0,1.0,phase_1,,,,,,,,,,,,,yellow,diamond
0.0,2.0,0.0,0.0,1.0,1.0,309.5094407908618,3.0,1.0,phase_1,,,,,,,,,,,,,blue,flipped triangle
184.0,7.0,2.0,1.0,3.0,3.0,316.952470690012,3.0,1.0,phase_1,,,,,,,,,,,,,green,I
424.0,4.0,4.0,0.0,2.0,2.0,309.4994989223778,3.0,1.0,phase_1,,,,,,,,,,,,,cyan,triangle
409.0,8.0,4.0,1.0,1.0,1.0,379.0286090224981,3.0,1.0,phase_1,,,,,,,,,,,,,gray,hexagon
194.0,3.0,2.0,0.0,2.0,2.0,321.7389062047004,3.0,1.0,phase_1,,,,,,,,,,,,,white,circle
225.0,3.0,2.0,0.0,4.0,4.0,525.8573978208005,3.0,1.0,phase_1,,,,,,,,,,,,,white,circle
409.0,4.0,4.0,0.0,1.0,1.0,320.6367972306907,3.0,1.0,phase_1,,,,,,,,,,,,,cyan,triangle
115.0,6.0,1.0,1.0,1.0,1.0,366.8931815773248,3.0,1.0,phase_1,,,,,,,,,,,,,yellow,diamond
190.0,7.0,2.0,1.0,1.0,1.0,301.8876779824495,3.0,1.0,phase_1,,,,,,,,,,,,,green,I
112.0,6.0,1.0,1.0,4.0,4.0,424.8214568942785,3.0,1.0,phase_1,,,,,,,,,,,,,yellow,diamond
394.0,8.0,4.0,1.0,3.0,3.0,395.783863030374,3.0,1.0,phase_1,,,,,,,,,,,,,gray,hexagon
60.0,1.0,0.5,0.0,3.0,3.0,481.0527171939611,3.0,1.0,phase_1,,,,,,,,,,,,,magenta,cross
387.0,8.0,4.0,1.0,2.0,2.0,350.7137945853174,3.0,1.0,phase_1,,,,,,,,,,,,,gray,hexagon
187.0,3.0,2.0,0.0,3.0,3.0,477.0947266370058,3.0,1.0,phase_1,,,,,,,,,,,,,white,circle
380.0,4.0,4.0,0.0,1.0,1.0,313.9097709208727,3.0,1.0,phase_1,,,,,,,,,,,,,cyan,triangle
410.0,4.0,4.0,0.0,4.0,4.0,538.7620152905583,3.0,1.0,phase_1,,,,,,,,,,,,,cyan,triangle
0.0,1.0,0.0,0.0,4.0,4.0,303.6031350493431,3.0,1.0,phase_1,,,,,,,,,,,,,magenta,cross
201.0,3.0,2.0,0.0,4.0,4.0,318.5904761776328,3.0,1.0,phase_1,,,,,,,,,,,,,white,circle
0.0,8.0,0.0,1.0,1.0,1.0,329.2985432781279,3.0,1.0,phase_1,,,,,,,,,,,,,gray,hexagon
0.0,7.0,0.0,1.0,1.0,1.0,312.2359728440642,3.0,1.0,phase_1,,,,,,,,,,,,,green,I
96.0,6.0,1.0,1.0,1.0,1.0,251.6812421381473,3.0,1.0,phase_1,,,,,,,,,,,,,yellow,diamond
402.0,4.0,4.0,0.0,1.0,1.0,329.700639937073,3.0,1.0,phase_1,,,,,,,,,,,,,cyan,triangle
51.0,1.0,0.5,0.0,4.0,4.0,374.8266519978642,3.0,1.0,phase_1,,,,,,,,,,,,,magenta,cross
0.0,1.0,0.0,0.0,2.0,2.0,355.1046159118414,3.0,1.0,phase_1,,,,,,,,,,,,,magenta,cross
389.0,8.0,4.0,1.0,1.0,1.0,375.218098051846,3.0,1.0,phase_1,,,,,,,,,,,,,gray,hexagon
396.0,8.0,4.0,1.0,3.0,3.0,363.0311549641192,3.0,1.0,phase_1,,,,,,,,,,,,,gray,hexagon
0.0,3.0,0.0,0.0,1.0,1.0,337.8941817209124,3.0,1.0,phase_1,,,,,,,,,,,,,white,circle
98.0,2.0,1.0,0.0,1.0,1.0,322.9726529680192,3.0,1.0,phase_1,,,,,,,,,,,,,blue,flipped triangle
195.0,7.0,2.0,1.0,1.0,1.0,256.5248981118202,3.0,1.0,phase_1,,,,,,,,,,,,,green,I
394.0,4.0,4.0,0.0,3.0,3.0,358.5228258743882,3.0,1.0,phase_1,,,,,,,,,,,,,cyan,triangle
73.0,5.0,0.5,1.0,2.0,2.0,288.4123520925641,3.0,1.0,phase_1,,,,,,,,,,,,,orange,square
0.0,7.0,0.0,1.0,3.0,3.0,334.0271236374974,3.0,1.0,phase_1,,,,,,,,,,,,,green,I
80.0,2.0,1.0,0.0,2.0,2.0,338.4188190102577,3.0,1.0,phase_1,,,,,,,,,,,,,blue,flipped triangle
69.0,1.0,0.5,0.0,4.0,4.0,298.8699800334871,3.0,1.0,phase_1,,,,,,,,,,,,,magenta,cross
0.0,5.0,0.0,1.0,2.0,2.0,301.2825911864638,3.0,1.0,phase_1,,,,,,,,,,,,,orange,square
0.0,4.0,0.0,0.0,1.0,1.0,260.3155369870364,3.0,1.0,phase_1,,,,,,,,,,,,,cyan,triangle
91.0,6.0,1.0,1.0,4.0,4.0,320.2232359908521,3.0,1.0,phase_1,,,,,,,,,,,,,yellow,diamond
0.0,5.0,0.0,1.0,4.0,4.0,397.9694489389658,3.0,1.0,phase_1,,,,,,,,,,,,,orange,square
202.0,3.0,2.0,0.0,4.0,4.0,336.2963669933378,3.0,1.0,phase_1,,,,,,,,,,,,,white,circle
0.0,7.0,0.0,1.0,4.0,4.0,309.9140799604356,3.0,1.0,phase_1,,,,,,,,,,,,,green,I
206.0,7.0,2.0,1.0,4.0,4.0,280.6084500625729,3.0,1.0,phase_1,,,,,,,,,,,,,green,I
413.0,8.0,4.0,1.0,3.0,3.0,304.6741900034249,3.0,1.0,phase_1,,,,,,,,,,,,,gray,hexagon
32.0,5.0,0.5,1.0,1.0,1.0,322.0792971551418,3.0,1.0,phase_1,,,,,,,,,,,,,orange,square
198.0,3.0,2.0,0.0,2.0,2.0,337.6169968396425,3.0,1.0,phase_1,,,,,,,,,,,,,white,circle
0.0,4.0,0.0,0.0,1.0,1.0,299.3472469970584,3.0,1.0,phase_1,,,,,,,,,,,,,cyan,triangle
417.0,4.0,4.0,0.0,2.0,2.0,295.600441750139,3.0,1.0,phase_1,,,,,,,,,,,,,cyan,triangle
108.0,6.0,1.0,1.0,1.0,1.0,324.1949002258479,3.0,1.0,phase_1,,,,,,,,,,,,,yellow,diamond
195.0,3.0,2.0,0.0,3.0,3.0,354.4568950310349,3.0,1.0,phase_1,,,,,,,,,,,,,white,circle
391.0,8.0,4.0,1.0,2.0,2.0,317.9075359366834,3.0,1.0,phase_1,,,,,,,,,,,,,gray,hexagon
0.0,3.0,0.0,0.0,1.0,1.0,317.7722641266882,3.0,1.0,phase_1,,,,,,,,,,,,,white,circle
41.0,1.0,0.5,0.0,3.0,3.0,465.5272420495748,3.0,1.0,phase_1,,,,,,,,,,,,,magenta,cross
209.0,7.0,2.0,1.0,1.0,1.0,293.9168713055551,3.0,1.0,phase_1,,,,,,,,,,,,,green,I
69.0,1.0,0.5,0.0,2.0,2.0,314.3145362846553,3.0,1.0,phase_1,,,,,,,,,,,,,magenta,cross
103.0,6.0,1.0,1.0,3.0,3.0,351.8110159784555,3.0,1.0,phase_1,,,,,,,,,,,,,yellow,diamond
113.0,2.0,1.0,0.0,2.0,2.0,530.082032084465,3.0,1.0,phase_1,,,,,,,,,,,,,blue,flipped triangle
212.0,3.0,2.0,0.0,3.0,3.0,390.3753217309713,3.0,1.0,phase_1,,,,,,,,,,,,,white,circle
401.0,8.0,4.0,1.0,1.0,1.0,395.4355320893228,3.0,1.0,phase_1,,,,,,,,,,,,,gray,hexagon
403.0,4.0,4.0,0.0,4.0,4.0,369.5739149115979,3.0,1.0,phase_1,,,,,,,,,,,,,cyan,triangle
0.0,1.0,0.0,0.0,2.0,2.0,606.0467869974673,3.0,1.0,phase_1,,,,,,,,,,,,,magenta,cross
117.0,2.0,1.0,0.0,1.0,1.0,424.9797980301082,3.0,1.0,phase_1,,,,,,,,,,,,,blue,flipped triangle
109.0,6.0,1.0,1.0,4.0,4.0,735.0646778941154,3.0,1.0,phase_1,,,,,,,,,,,,,yellow,diamond
61.0,1.0,0.5,0.0,4.0,4.0,446.3605401106179,3.0,1.0,phase_1,,,,,,,,,,,,,magenta,cross
108.0,2.0,1.0,0.0,1.0,1.0,327.7676701545715,3.0,1.0,phase_1,,,,,,,,,,,,,blue,flipped triangle
47.0,1.0,0.5,0.0,4.0,4.0,347.6948710158467,3.0,1.0,phase_1,,,,,,,,,,,,,magenta,cross
0.0,5.0,0.0,1.0,1.0,1.0,355.4990328848362,3.0,1.0,phase_1,,,,,,,,,,,,,orange,square
64.0,1.0,0.5,0.0,3.0,3.0,447.0728458836674,3.0,1.0,phase_1,,,,,,,,,,,,,magenta,cross
121.0,6.0,1.0,1.0,1.0,1.0,340.9012896008789,3.0,1.0,phase_1,,,,,,,,,,,,,yellow,diamond
400.0,8.0,4.0,1.0,2.0,2.0,497.4433132447302,3.0,1.0,phase_1,,,,,,,,,,,,,gray,hexagon
27.0,1.0,0.5,0.0,1.0,1.0,300.1479841768741,3.0,1.0,phase_1,,,,,,,,,,,,,magenta,cross
123.0,6.0,1.0,1.0,1.0,1.0,297.0568370074034,3.0,1.0,phase_1,,,,,,,,,,,,,yellow,diamond
0.0,5.0,0.0,1.0,3.0,3.0,357.1007661521435,3.0,1.0,phase_1,,,,,,,,,,,,,orange,square
0.0,5.0,0.0,1.0,4.0,4.0,433.1466751173138,3.0,1.0,phase_1,,,,,,,,,,,,,orange,square
50.0,5.0,0.5,1.0,1.0,1.0,302.2266649641096,3.0,1.0,phase_1,,,,,,,,,,,,,orange,square
423.0,8.0,4.0,1.0,1.0,1.0,334.2704018577933,3.0,1.0,phase_1,,,,,,,,,,,,,gray,hexagon
380.0,8.0,4.0,1.0,1.0,1.0,289.2610407434404,3.0,1.0,phase_1,,,,,,,,,,,,,gray,hexagon
204.0,7.0,2.0,1.0,1.0,1.0,310.7454809360206,3.0,1.0,phase_1,,,,,,,,,,,,,green,I
402.0,8.0,4.0,1.0,3.0,3.0,384.7486581653356,3.0,1.0,phase_1,,,,,,,,,,,,,gray,hexagon
394.0,8.0,4.0,1.0,2.0,2.0,343.1837768293917,3.0,1.0,phase_1,,,,,,,,,,,,,gray,hexagon
380.0,8.0,4.0,1.0,3.0,3.0,313.8168342411518,3.0,1.0,phase_1,,,,,,,,,,,,,gray,hexagon
0.0,8.0,0.0,1.0,3.0,3.0,342.5324764102697,3.0,1.0,phase_1,,,,,,,,,,,,,gray,hexagon
0.0,2.0,0.0,0.0,2.0,2.0,308.3077599294483,3.0,1.0,phase_1,,,,,,,,,,,,,blue,flipped triangle
36.0,1.0,0.5,0.0,4.0,4.0,364.1764656640589,3.0,1.0,phase_1,,,,,,,,,,,,,magenta,cross
0.0,8.0,0.0,1.0,1.0,1.0,293.1283782236278,3.0,1.0,phase_1,,,,,,,,,,,,,gray,hexagon
0.0,2.0,0.0,0.0,4.0,4.0,363.3295898325741,3.0,1.0,phase_1,,,,,,,,,,,,,blue,flipped triangle
119.0,2.0,1.0,0.0,3.0,3.0,343.3867748826742,3.0,1.0,phase_1,,,,,,,,,,,,,blue,flipped triangle
0.0,6.0,0.0,1.0,3.0,3.0,314.4966745749116,3.0,1.0,phase_1,,,,,,,,,,,,,yellow,diamond
407.0,8.0,4.0,1.0,2.0,2.0,331.4698417671025,3.0,1.0,phase_1,,,,,,,,,,,,,gray,hexagon
180.0,7.0,2.0,1.0,1.0,1.0,341.0193328745663,3.0,1.0,phase_1,,,,,,,,,,,,,green,I
201.0,7.0,2.0,1.0,3.0,3.0,300.8157587610185,3.0,1.0,phase_1,,,,,,,,,,,,,green,I
186.0,7.0,2.0,1.0,4.0,4.0,413.8102298602462,4.0,1.0,phase_1,,,,,,,,,,,,,green,I
223.0,3.0,2.0,0.0,1.0,1.0,288.5520160198211,4.0,1.0,phase_1,,,,,,,,,,,,,white,circle
78.0,6.0,1.0,1.0,4.0,4.0,320.5060013569891,4.0,1.0,phase_1,,,,,,,,,,,,,yellow,diamond
206.0,3.0,2.0,0.0,1.0,1.0,258.7284608744085,4.0,1.0,phase_1,,,,,,,,,,,,,white,circle
90.0,6.0,1.0,1.0,1.0,1.0,298.1298943050205,4.0,1.0,phase_1,,,,,,,,,,,,,yellow,diamond
412.0,8.0,4.0,1.0,3.0,3.0,326.918747741729,4.0,1.0,phase_1,,,,,,,,,,,,,gray,hexagon
411.0,4.0,4.0,0.0,4.0,4.0,371.763383038342,4.0,1.0,phase_1,,,,,,,,,,,,,cyan,triangle
195.0,3.0,2.0,0.0,1.0,1.0,317.7039469592273,4.0,1.0,phase_1,,,,,,,,,,,,,white,circle
0.0,2.0,0.0,0.0,1.0,1.0,347.6198171265423,4.0,1.0,phase_1,,,,,,,,,,,,,blue,flipped triangle
0.0,4.0,0.0,0.0,1.0,1.0,326.9950463436544,4.0,1.0,phase_1,,,,,,,,,,,,,cyan,triangle
80.0,6.0,1.0,1.0,4.0,4.0,339.5529389381408,4.0,1.0,phase_1,,,,,,,,,,,,,yellow,diamond
215.0,7.0,2.0,1.0,4.0,4.0,512.5318099744618,4.0,1.0,phase_1,,,,,,,,,,,,,green,I
54.0,1.0,0.5,0.0,1.0,1.0,388.2164238020777,4.0,1.0,phase_1,,,,,,,,,,,,,magenta,cross
396.0,8.0,4.0,1.0,3.0,3.0,313.0972860381007,4.0,1.0,phase_1,,,,,,,,,,,,,gray,hexagon
99.0,2.0,1.0,0.0,1.0,1.0,358.6359182372689,4.0,1.0,phase_1,,,,,,,,,,,,,blue,flipped triangle
0.0,6.0,0.0,1.0,2.0,2.0,277.0421579480171,4.0,1.0,phase_1,,,,,,,,,,,,,yellow,diamond
204.0,3.0,2.0,0.0,4.0,4.0,327.8726730495691,4.0,1.0,phase_1,,,,,,,,,,,,,white,circle
197.0,7.0,2.0,1.0,4.0,4.0,348.4011380933225,4.0,1.0,phase_1,,,,,,,,,,,,,green,I
84.0,2.0,1.0,0.0,4.0,4.0,347.5032318383455,4.0,1.0,phase_1,,,,,,,,,,,,,blue,flipped triangle
195.0,3.0,2.0,0.0,4.0,4.0,333.3608200773597,4.0,1.0,phase_1,,,,,,,,,,,,,white,circle
32.0,5.0,0.5,1.0,3.0,3.0,341.6310586035251,4.0,1.0,phase_1,,,,,,,,,,,,,orange,square
0.0,1.0,0.0,0.0,3.0,3.0,330.4700450971722,4.0,1.0,phase_1,,,,,,,,,,,,,magenta,cross
64.0,5.0,0.5,1.0,4.0,4.0,444.7677000425756,4.0,1.0,phase_1,,,,,,,,,,,,,orange,square
0.0,4.0,0.0,0.0,1.0,1.0,311.9576829485595,4.0,1.0,phase_1,,,,,,,,,,,,,cyan,triangle
190.0,3.0,2.0,0.0,1.0,1.0,366.4235533215105,4.0,1.0,phase_1,,,,,,,,,,,,,white,circle
380.0,8.0,4.0,1.0,4.0,4.0,450.0051159411669,4.0,1.0,phase_1,,,,,,,,,,,,,gray,hexagon
215.0,3.0,2.0,0.0,4.0,4.0,353.1214231625199,4.0,1.0,phase_1,,,,,,,,,,,,,white,circle
110.0,6.0,1.0,1.0,2.0,2.0,332.3149220086634,4.0,1.0,phase_1,,,,,,,,,,,,,yellow,diamond
113.0,6.0,1.0,1.0,1.0,1.0,362.5704678706825,4.0,1.0,phase_1,,,,,,,,,,,,,yellow,diamond
380.0,4.0,4.0,0.0,2.0,2.0,380.0251209177077,4.0,1.0,phase_1,,,,,,,,,,,,,cyan,triangle
200.0,3.0,2.0,0.0,2.0,2.0,388.5695929639041,4.0,1.0,phase_1,,,,,,,,,,,,,white,circle
376.0,4.0,4.0,0.0,2.0,2.0,310.3913003578782,4.0,1.0,phase_1,,,,,,,,,,,,,cyan,triangle
64.0,1.0,0.5,0.0,3.0,3.0,348.2145201414823,4.0,1.0,phase_1,,,,,,,,,,,,,magenta,cross
375.0,4.0,4.0,0.0,2.0,2.0,385.6818792410195,4.0,1.0,phase_1,,,,,,,,,,,,,cyan,triangle
124.0,6.0,1.0,1.0,3.0,3.0,335.7343059033155,4.0,1.0,phase_1,,,,,,,,,,,,,yellow,diamond
115.0,6.0,1.0,1.0,3.0,3.0,352.5079693645239,4.0,1.0,phase_1,,,,,,,,,,,,,yellow,diamond
108.0,2.0,1.0,0.0,2.0,2.0,372.27850826457137,4.0,1.0,phase_1,,,,,,,,,,,,,blue,flipped triangle
99.0,6.0,1.0,1.0,3.0,3.0,306.3629912212491,4.0,1.0,phase_1,,,,,,,,,,,,,yellow,diamond
220.0,3.0,2.0,0.0,1.0,1.0,350.9239819832146,4.0,1.0,phase_1,,,,,,,,,,,,,white,circle
37.0,1.0,0.5,0.0,4.0,4.0,363.5116051882505,4.0,1.0,phase_1,,,,,,,,,,,,,magenta,cross
54.0,1.0,0.5,0.0,1.0,1.0,440.7762540504336,4.0,1.0,phase_1,,,,,,,,,,,,,magenta,cross
214.0,3.0,2.0,0.0,3.0,3.0,294.350930955261,4.0,1.0,phase_1,,,,,,,,,,,,,white,circle
74.0,5.0,0.5,1.0,1.0,1.0,371.8918529339134,4.0,1.0,phase_1,,,,,,,,,,,,,orange,square
41.0,1.0,0.5,0.0,3.0,3.0,447.9484469629824,4.0,1.0,phase_1,,,,,,,,,,,,,magenta,cross
424.0,8.0,4.0,1.0,4.0,4.0,346.4943813160062,4.0,1.0,phase_1,,,,,,,,,,,,,gray,hexagon
407.0,8.0,4.0,1.0,4.0,4.0,424.5728836394846,4.0,1.0,phase_1,,,,,,,,,,,,,gray,hexagon
32.0,1.0,0.5,0.0,3.0,3.0,316.3566561415791,4.0,1.0,phase_1,,,,,,,,,,,,,magenta,cross
198.0,7.0,2.0,1.0,1.0,1.0,395.9381869062781,4.0,1.0,phase_1,,,,,,,,,,,,,green,I
33.0,1.0,0.5,0.0,1.0,1.0,477.5890572927892,4.0,1.0,phase_1,,,,,,,,,,,,,magenta,cross
47.0,5.0,0.5,1.0,2.0,2.0,482.3714350350201,4.0,1.0,phase_1,,,,,,,,,,,,,orange,square
37.0,5.0,0.5,1.0,1.0,1.0,406.6428360529244,4.0,1.0,phase_1,,,,,,,,,,,,,orange,square
46.0,1.0,0.5,0.0,1.0,1.0,355.233124922961,4.0,1.0,phase_1,,,,,,,,,,,,,magenta,cross
0.0,8.0,0.0,1.0,2.0,2.0,339.4799293018877,4.0,1.0,phase_1,,,,,,,,,,,,,gray,hexagon
415.0,4.0,4.0,0.0,1.0,1.0,295.8870129659772,4.0,1.0,phase_1,,,,,,,,,,,,,cyan,triangle
52.0,1.0,0.5,0.0,3.0,3.0,363.6518488638103,4.0,1.0,phase_1,,,,,,,,,,,,,magenta,cross
0.0,6.0,0.0,1.0,2.0,2.0,392.3648451454937,4.0,1.0,phase_1,,,,,,,,,,,,,yellow,diamond
183.0,7.0,2.0,1.0,2.0,2.0,314.6823579445481,4.0,1.0,phase_1,,,,,,,,,,,,,green,I
0.0,4.0,0.0,0.0,1.0,1.0,338.934538885951,4.0,1.0,phase_1,,,,,,,,,,,,,cyan,triangle
104.0,2.0,1.0,0.0,4.0,4.0,407.4317798949778,4.0,1.0,phase_1,,,,,,,,,,,,,blue,flipped triangle
72.0,5.0,0.5,1.0,3.0,3.0,290.1533590629697,4.0,1.0,phase_1,,,,,,,,,,,,,orange,square
28.0,1.0,0.5,0.0,1.0,1.0,326.3606750406325,4.0,1.0,phase_1,,,,,,,,,,,,,magenta,cross
75.0,2.0,1.0,0.0,3.0,3.0,331.672006752342,4.0,1.0,phase_1,,,,,,,,,,,,,blue,flipped triangle
408.0,4.0,4.0,0.0,1.0,1.0,338.0236499942839,4.0,1.0,phase_1,,,,,,,,,,,,,cyan,triangle
39.0,1.0,0.5,0.0,4.0,4.0,349.9928312376141,4.0,1.0,phase_1,,,,,,,,,,,,,magenta,cross
401.0,4.0,4.0,0.0,1.0,1.0,290.5045351944864,4.0,1.0,phase_1,,,,,,,,,,,,,cyan,triangle
104.0,6.0,1.0,1.0,2.0,2.0,325.2109917812049,4.0,1.0,phase_1,,,,,,,,,,,,,yellow,diamond
34.0,5.0,0.5,1.0,1.0,1.0,313.6231228709221,4.0,1.0,phase_1,,,,,,,,,,,,,orange,square
54.0,5.0,0.5,1.0,3.0,3.0,322.0842531882226,4.0,1.0,phase_1,,,,,,,,,,,,,orange,square
189.0,7.0,2.0,1.0,2.0,2.0,642.5994951277971,4.0,1.0,phase_1,,,,,,,,,,,,,green,I
41.0,5.0,0.5,1.0,3.0,3.0,357.8759240917861,4.0,2.0,phase_1,,,,,,,,,,,,,orange,square
178.0,7.0,2.0,1.0,3.0,3.0,496.6210373677313,4.0,1.0,phase_1,,,,,,,,,,,,,green,I
72.0,1.0,0.5,0.0,2.0,2.0,334.0748501941561,4.0,1.0,phase_1,,,,,,,,,,,,,magenta,cross
187.0,7.0,2.0,1.0,3.0,3.0,326.1566259898245,4.0,1.0,phase_1,,,,,,,,,,,,,green,I
0.0,5.0,0.0,1.0,3.0,3.0,329.9726000986993,4.0,1.0,phase_1,,,,,,,,,,,,,orange,square
413.0,4.0,4.0,0.0,4.0,4.0,366.2113337777555,4.0,1.0,phase_1,,,,,,,,,,,,,cyan,triangle
0.0,6.0,0.0,1.0,4.0,4.0,313.6199289001524,4.0,1.0,phase_1,,,,,,,,,,,,,yellow,diamond
104.0,6.0,1.0,1.0,3.0,3.0,303.889172617346,4.0,1.0,phase_1,,,,,,,,,,,,,yellow,diamond
80.0,6.0,1.0,1.0,2.0,2.0,396.1060852743685,4.0,1.0,phase_1,,,,,,,,,,,,,yellow,diamond
0.0,1.0,0.0,0.0,1.0,1.0,454.6958110295236,4.0,1.0,phase_1,,,,,,,,,,,,,magenta,cross
214.0,7.0,2.0,1.0,3.0,3.0,515.0717846117914,4.0,1.0,phase_1,,,,,,,,,,,,,green,I
90.0,2.0,1.0,0.0,1.0,1.0,375.7858001627028,4.0,1.0,phase_1,,,,,,,,,,,,,blue,flipped triangle
69.0,5.0,0.5,1.0,4.0,4.0,376.2375647202134,4.0,1.0,phase_1,,,,,,,,,,,,,orange,square
108.0,6.0,1.0,1.0,4.0,4.0,693.2110050693154,4.0,1.0,phase_1,,,,,,,,,,,,,yellow,diamond
0.0,1.0,0.0,0.0,1.0,1.0,399.7841509990394,4.0,1.0,phase_1,,,,,,,,,,,,,magenta,cross
52.0,5.0,0.5,1.0,2.0,2.0,370.8852641284466,4.0,1.0,phase_1,,,,,,,,,,,,,orange,square
377.0,8.0,4.0,1.0,4.0,4.0,353.4855777397752,4.0,1.0,phase_1,,,,,,,,,,,,,gray,hexagon
109.0,2.0,1.0,0.0,2.0,2.0,388.4404478594661,4.0,1.0,phase_1,,,,,,,,,,,,,blue,flipped triangle
225.0,7.0,2.0,1.0,2.0,2.0,388.3592830970883,4.0,1.0,phase_1,,,,,,,,,,,,,green,I
75.0,2.0,1.0,0.0,2.0,2.0,399.8769042082131,4.0,1.0,phase_1,,,,,,,,,,,,,blue,flipped triangle
108.0,2.0,1.0,0.0,1.0,1.0,370.4573200084269,4.0,1.0,phase_1,,,,,,,,,,,,,blue,flipped triangle
46.0,1.0,0.5,0.0,3.0,3.0,337.6019583083689,4.0,1.0,phase_1,,,,,,,,,,,,,magenta,cross
62.0,5.0,0.5,1.0,1.0,1.0,342.9390536621213,4.0,1.0,phase_1,,,,,,,,,,,,,orange,square
69.0,5.0,0.5,1.0,1.0,1.0,408.346798736602,4.0,1.0,phase_1,,,,,,,,,,,,,orange,square
34.0,1.0,0.5,0.0,1.0,1.0,310.2009398862719,4.0,1.0,phase_1,,,,,,,,,,,,,magenta,cross
0.0,2.0,0.0,0.0,3.0,3.0,404.6639739535749,4.0,1.0,phase_1,,,,,,,,,,,,,blue,flipped triangle
0.0,7.0,0.0,1.0,1.0,1.0,376.427193172276,4.0,1.0,phase_1,,,,,,,,,,,,,green,I
61.0,5.0,0.5,1.0,3.0,3.0,437.1655900031328,4.0,1.0,phase_1,,,,,,,,,,,,,orange,square
74.0,1.0,0.5,0.0,2.0,2.0,449.3052279576659,4.0,1.0,phase_1,,,,,,,,,,,,,magenta,cross
415.0,8.0,4.0,1.0,1.0,1.0,375.0965613871813,4.0,1.0,phase_1,,,,,,,,,,,,,gray,hexagon
58.0,1.0,0.5,0.0,4.0,4.0,371.7419388704002,4.0,1.0,phase_1,,,,,,,,,,,,,magenta,cross
0.0,1.0,0.5,0.0,5.0,5.0,604.469686280936,1.0,1.0,phase_2,go,250.0,250.0,1.0,,,,,,,,,magenta,cross
0.0,2.0,1.0,0.0,6.0,6.0,540.7359371893108,1.0,1.0,phase_2,go,250.0,250.0,1.0,,,,,,,,,blue,flipped triangle
0.0,6.0,1.0,1.0,6.0,6.0,324.2984577082097,1.0,1.0,phase_2,go,250.0,250.0,1.0,,,,,,,,,yellow,diamond
0.0,4.0,4.0,0.0,6.0,6.0,317.401984706521,1.0,1.0,phase_2,go,250.0,250.0,1.0,,,,,,,,,cyan,triangle
0.0,4.0,4.0,0.0,6.0,6.0,354.6729059889912,1.0,1.0,phase_2,go,250.0,250.0,1.0,,,,,,,,,cyan,triangle
0.0,6.0,1.0,1.0,6.0,0.0,0.0,1.0,1.0,phase_2,stop,250.0,250.0,4.0,,,,,,,,,yellow,diamond
0.0,7.0,2.0,1.0,6.0,0.0,0.0,1.0,1.0,phase_2,stop,250.0,300.0,4.0,,,,,,,,,green,I
0.0,5.0,0.5,1.0,5.0,5.0,666.0814168862998,1.0,1.0,phase_2,go,250.0,350.0,1.0,,,,,,,,,orange,square
0.0,8.0,4.0,1.0,6.0,0.0,0.0,1.0,1.0,phase_2,stop,250.0,350.0,4.0,,,,,,,,,gray,hexagon
0.0,6.0,1.0,1.0,5.0,0.0,0.0,1.0,1.0,phase_2,stop,250.0,400.0,4.0,,,,,,,,,yellow,diamond
0.0,5.0,0.5,1.0,5.0,0.0,0.0,1.0,1.0,phase_2,stop,300.0,400.0,4.0,,,,,,,,,orange,square
0.0,7.0,2.0,1.0,5.0,5.0,549.4383159093559,1.0,1.0,phase_2,go,350.0,400.0,1.0,,,,,,,,,green,I
0.0,4.0,4.0,0.0,6.0,6.0,751.132370904088,1.0,1.0,phase_2,go,350.0,400.0,1.0,,,,,,,,,cyan,triangle
0.0,6.0,1.0,1.0,6.0,6.0,688.3144052699208,1.0,1.0,phase_2,go,350.0,400.0,1.0,,,,,,,,,yellow,diamond
0.0,3.0,2.0,0.0,6.0,6.0,612.0016211643815,1.0,1.0,phase_2,go,350.0,400.0,1.0,,,,,,,,,white,circle
0.0,3.0,2.0,0.0,5.0,5.0,566.2569790147245,1.0,1.0,phase_2,go,350.0,400.0,1.0,,,,,,,,,white,circle
0.0,1.0,0.5,0.0,6.0,6.0,634.695318993181,1.0,1.0,phase_2,go,350.0,400.0,1.0,,,,,,,,,magenta,cross
0.0,6.0,1.0,1.0,5.0,0.0,0.0,1.0,1.0,phase_2,stop,350.0,400.0,4.0,,,,,,,,,yellow,diamond
0.0,6.0,1.0,1.0,6.0,6.0,626.1863061226904,1.0,1.0,phase_2,go,400.0,400.0,1.0,,,,,,,,,yellow,diamond
0.0,1.0,0.5,0.0,5.0,5.0,713.3590020239353,1.0,1.0,phase_2,go,400.0,400.0,1.0,,,,,,,,,magenta,cross
0.0,2.0,1.0,0.0,6.0,6.0,641.3648640736938,1.0,1.0,phase_2,go,400.0,400.0,1.0,,,,,,,,,blue,flipped triangle
0.0,6.0,1.0,1.0,5.0,0.0,0.0,1.0,1.0,phase_2,stop,400.0,400.0,4.0,,,,,,,,,yellow,diamond
0.0,3.0,2.0,0.0,6.0,6.0,535.5557049624622,1.0,1.0,phase_2,go,450.0,400.0,1.0,,,,,,,,,white,circle
0.0,4.0,4.0,0.0,5.0,5.0,474.1610898636281,1.0,1.0,phase_2,go,450.0,400.0,1.0,,,,,,,,,cyan,triangle
0.0,1.0,0.5,0.0,5.0,5.0,654.6088447794318,1.0,1.0,phase_2,go,450.0,400.0,1.0,,,,,,,,,magenta,cross
0.0,2.0,1.0,0.0,6.0,6.0,344.6235479786992,1.0,1.0,phase_2,go,450.0,400.0,1.0,,,,,,,,,blue,flipped triangle
0.0,8.0,4.0,1.0,5.0,5.0,560.3890400379896,1.0,1.0,phase_2,go,450.0,400.0,1.0,,,,,,,,,gray,hexagon
0.0,5.0,0.5,1.0,5.0,0.0,0.0,1.0,1.0,phase_2,stop,450.0,400.0,4.0,,,,,,,,,orange,square
0.0,4.0,4.0,0.0,6.0,6.0,573.1268799863756,1.0,1.0,phase_2,go,500.0,400.0,1.0,,,,,,,,,cyan,triangle
0.0,5.0,0.5,1.0,6.0,6.0,355.2876929752528,1.0,1.0,phase_2,stop,500.0,400.0,3.0,,,,,,,,,orange,square
0.0,1.0,0.5,0.0,5.0,5.0,596.9500499777496,1.0,1.0,phase_2,go,500.0,350.0,1.0,,,,,,,,,magenta,cross
0.0,1.0,0.5,0.0,6.0,6.0,548.034637235105,1.0,1.0,phase_2,go,500.0,350.0,1.0,,,,,,,,,magenta,cross
0.0,4.0,4.0,0.0,5.0,5.0,542.1591382473707,1.0,1.0,phase_2,go,500.0,350.0,1.0,,,,,,,,,cyan,triangle
0.0,8.0,4.0,1.0,5.0,0.0,0.0,1.0,1.0,phase_2,stop,500.0,350.0,4.0,,,,,,,,,gray,hexagon
0.0,3.0,2.0,0.0,6.0,6.0,700.6788249127567,1.0,1.0,phase_2,go,550.0,350.0,1.0,,,,,,,,,white,circle
0.0,5.0,0.5,1.0,6.0,0.0,0.0,1.0,1.0,phase_2,stop,550.0,350.0,4.0,,,,,,,,,orange,square
0.0,7.0,2.0,1.0,5.0,5.0,717.5936829298735,2.0,1.0,phase_2,go,550.0,400.0,1.0,,,,,,,,,green,I
0.0,5.0,0.5,1.0,6.0,0.0,0.0,2.0,1.0,phase_2,stop,550.0,400.0,4.0,,,,,,,,,orange,square
0.0,8.0,4.0,1.0,5.0,5.0,586.9271620176733,2.0,1.0,phase_2,stop,550.0,450.0,3.0,,,,,,,,,gray,hexagon
0.0,5.0,0.5,1.0,5.0,5.0,457.7056909911334,2.0,1.0,phase_2,go,500.0,450.0,1.0,,,,,,,,,orange,square
0.0,7.0,2.0,1.0,5.0,0.0,0.0,2.0,1.0,phase_2,stop,500.0,450.0,4.0,,,,,,,,,green,I
0.0,6.0,1.0,1.0,5.0,5.0,585.3771171532571,2.0,1.0,phase_2,go,550.0,450.0,1.0,,,,,,,,,yellow,diamond
0.0,1.0,0.5,0.0,6.0,6.0,699.9498140066862,2.0,1.0,phase_2,go,550.0,450.0,1.0,,,,,,,,,magenta,cross
0.0,2.0,1.0,0.0,6.0,6.0,657.8944870270789,2.0,1.0,phase_2,go,550.0,450.0,1.0,,,,,,,,,blue,flipped triangle
0.0,8.0,4.0,1.0,6.0,6.0,638.8210356235504,2.0,1.0,phase_2,go,550.0,450.0,1.0,,,,,,,,,gray,hexagon
0.0,4.0,4.0,0.0,6.0,6.0,695.1447553001344,2.0,1.0,phase_2,go,550.0,450.0,1.0,,,,,,,,,cyan,triangle
0.0,6.0,1.0,1.0,5.0,0.0,0.0,2.0,1.0,phase_2,stop,550.0,450.0,4.0,,,,,,,,,yellow,diamond
0.0,8.0,4.0,1.0,6.0,0.0,0.0,2.0,1.0,phase_2,stop,600.0,450.0,4.0,,,,,,,,,gray,hexagon
0.0,7.0,2.0,1.0,6.0,6.0,477.5917371734977,2.0,1.0,phase_2,go,600.0,500.0,1.0,,,,,,,,,green,I
0.0,4.0,4.0,0.0,6.0,6.0,526.9789802841842,2.0,1.0,phase_2,go,600.0,500.0,1.0,,,,,,,,,cyan,triangle
0.0,3.0,2.0,0.0,5.0,5.0,700.7502210326493,2.0,1.0,phase_2,go,600.0,500.0,1.0,,,,,,,,,white,circle
0.0,6.0,1.0,1.0,6.0,6.0,658.815183211118,2.0,1.0,phase_2,go,600.0,500.0,1.0,,,,,,,,,yellow,diamond
0.0,7.0,2.0,1.0,6.0,0.0,0.0,2.0,1.0,phase_2,stop,600.0,500.0,4.0,,,,,,,,,green,I
0.0,8.0,4.0,1.0,5.0,5.0,586.2039430066943,2.0,1.0,phase_2,stop,600.0,550.0,3.0,,,,,,,,,gray,hexagon
0.0,3.0,2.0,0.0,5.0,5.0,532.8429597429931,2.0,1.0,phase_2,go,550.0,550.0,1.0,,,,,,,,,white,circle
0.0,4.0,4.0,0.0,5.0,5.0,584.7119968384504,2.0,1.0,phase_2,go,550.0,550.0,1.0,,,,,,,,,cyan,triangle
0.0,1.0,0.5,0.0,6.0,6.0,562.1117143891752,2.0,1.0,phase_2,go,550.0,550.0,1.0,,,,,,,,,magenta,cross
0.0,7.0,2.0,1.0,5.0,5.0,696.3287750259042,2.0,1.0,phase_2,stop,550.0,550.0,3.0,,,,,,,,,green,I
0.0,1.0,0.5,0.0,5.0,5.0,887.0464819483459,2.0,1.0,phase_2,go,500.0,550.0,1.0,,,,,,,,,magenta,cross
0.0,2.0,1.0,0.0,5.0,5.0,890.5242821201682,2.0,1.0,phase_2,go,500.0,550.0,1.0,,,,,,,,,blue,flipped triangle
0.0,3.0,2.0,0.0,6.0,6.0,897.146019153297,2.0,1.0,phase_2,go,500.0,550.0,1.0,,,,,,,,,white,circle
0.0,1.0,0.5,0.0,5.0,5.0,943.2746400125324,2.0,1.0,phase_2,go,500.0,550.0,1.0,,,,,,,,,magenta,cross
0.0,7.0,2.0,1.0,5.0,0.0,0.0,2.0,1.0,phase_2,stop,500.0,550.0,4.0,,,,,,,,,green,I
0.0,4.0,4.0,0.0,6.0,6.0,775.7265721447766,2.0,1.0,phase_2,go,550.0,550.0,1.0,,,,,,,,,cyan,triangle
0.0,5.0,0.5,1.0,5.0,0.0,0.0,2.0,1.0,phase_2,stop,550.0,550.0,4.0,,,,,,,,,orange,square
0.0,4.0,4.0,0.0,5.0,5.0,902.9169608838856,2.0,1.0,phase_2,go,600.0,550.0,1.0,,,,,,,,,cyan,triangle
0.0,6.0,1.0,1.0,6.0,0.0,0.0,2.0,1.0,phase_2,stop,600.0,550.0,4.0,,,,,,,,,yellow,diamond
0.0,2.0,1.0,0.0,5.0,5.0,788.0371259525418,2.0,1.0,phase_2,go,600.0,600.0,1.0,,,,,,,,,blue,flipped triangle
0.0,5.0,0.5,1.0,5.0,5.0,756.5981452353299,2.0,1.0,phase_2,stop,600.0,600.0,3.0,,,,,,,,,orange,square
0.0,4.0,4.0,0.0,6.0,6.0,746.0914677940309,2.0,1.0,phase_2,go,550.0,600.0,1.0,,,,,,,,,cyan,triangle
0.0,5.0,0.5,1.0,6.0,6.0,672.8531713597476,2.0,1.0,phase_2,stop,550.0,600.0,3.0,,,,,,,,,orange,square
0.0,2.0,1.0,0.0,5.0,5.0,779.566259123385,2.0,1.0,phase_2,go,550.0,550.0,1.0,,,,,,,,,blue,flipped triangle
0.0,3.0,2.0,0.0,6.0,6.0,629.4566011056304,3.0,1.0,phase_2,go,550.0,550.0,1.0,,,,,,,,,white,circle
0.0,8.0,4.0,1.0,5.0,5.0,742.3333213664591,3.0,1.0,phase_2,stop,550.0,550.0,3.0,,,,,,,,,gray,hexagon
0.0,1.0,0.5,0.0,6.0,6.0,709.8800521343946,3.0,1.0,phase_2,go,500.0,550.0,1.0,,,,,,,,,magenta,cross
0.0,7.0,2.0,1.0,6.0,0.0,0.0,3.0,1.0,phase_2,stop,500.0,550.0,4.0,,,,,,,,,green,I
0.0,3.0,2.0,0.0,5.0,5.0,683.5428290069103,3.0,1.0,phase_2,go,500.0,600.0,1.0,,,,,,,,,white,circle
0.0,5.0,0.5,1.0,6.0,0.0,0.0,3.0,1.0,phase_2,stop,500.0,600.0,4.0,,,,,,,,,orange,square
0.0,2.0,1.0,0.0,6.0,6.0,851.6339408233762,3.0,1.0,phase_2,go,500.0,650.0,1.0,,,,,,,,,blue,flipped triangle
0.0,1.0,0.5,0.0,6.0,6.0,881.8743941374123,3.0,1.0,phase_2,go,500.0,650.0,1.0,,,,,,,,,magenta,cross
0.0,2.0,1.0,0.0,6.0,6.0,721.5598006732762,3.0,1.0,phase_2,go,500.0,650.0,1.0,,,,,,,,,blue,flipped triangle
0.0,3.0,2.0,0.0,6.0,6.0,952.4888349696994,3.0,1.0,phase_2,go,500.0,650.0,1.0,,,,,,,,,white,circle
0.0,3.0,2.0,0.0,5.0,5.0,1047.3243310116231,3.0,1.0,phase_2,go,500.0,650.0,1.0,,,,,,,,,white,circle
0.0,6.0,1.0,1.0,5.0,0.0,0.0,3.0,1.0,phase_2,stop,500.0,650.0,4.0,,,,,,,,,yellow,diamond
0.0,8.0,4.0,1.0,5.0,0.0,0.0,3.0,1.0,phase_2,stop,550.0,650.0,4.0,,,,,,,,,gray,hexagon
0.0,7.0,2.0,1.0,6.0,0.0,0.0,3.0,1.0,phase_2,stop,600.0,650.0,4.0,,,,,,,,,green,I
0.0,5.0,0.5,1.0,6.0,6.0,792.7733077667654,3.0,1.0,phase_2,go,600.0,700.0,1.0,,,,,,,,,orange,square
0.0,5.0,0.5,1.0,5.0,0.0,0.0,3.0,1.0,phase_2,stop,600.0,700.0,4.0,,,,,,,,,orange,square
0.0,4.0,4.0,0.0,6.0,6.0,542.8802729584277,3.0,1.0,phase_2,go,650.0,700.0,1.0,,,,,,,,,cyan,triangle
0.0,4.0,4.0,0.0,6.0,6.0,734.1443770565093,3.0,1.0,phase_2,go,650.0,700.0,1.0,,,,,,,,,cyan,triangle
0.0,3.0,2.0,0.0,5.0,5.0,919.1150879487396,3.0,1.0,phase_2,go,650.0,700.0,1.0,,,,,,,,,white,circle
0.0,8.0,4.0,1.0,5.0,5.0,892.399974167347,3.0,1.0,phase_2,go,650.0,700.0,1.0,,,,,,,,,gray,hexagon
0.0,1.0,0.5,0.0,5.0,5.0,859.8328670486808,3.0,1.0,phase_2,go,650.0,700.0,1.0,,,,,,,,,magenta,cross
0.0,5.0,0.5,1.0,6.0,0.0,0.0,3.0,1.0,phase_2,stop,650.0,700.0,4.0,,,,,,,,,orange,square
0.0,2.0,1.0,0.0,6.0,6.0,920.8699781447648,3.0,1.0,phase_2,go,650.0,750.0,1.0,,,,,,,,,blue,flipped triangle
0.0,8.0,4.0,1.0,6.0,6.0,954.8030770383776,3.0,1.0,phase_2,stop,650.0,750.0,3.0,,,,,,,,,gray,hexagon
0.0,8.0,4.0,1.0,5.0,0.0,0.0,3.0,1.0,phase_2,stop,650.0,700.0,4.0,,,,,,,,,gray,hexagon
0.0,2.0,1.0,0.0,5.0,5.0,962.246289011091,3.0,1.0,phase_2,go,700.0,700.0,1.0,,,,,,,,,blue,flipped triangle
0.0,7.0,2.0,1.0,6.0,0.0,0.0,3.0,1.0,phase_2,stop,700.0,700.0,4.0,,,,,,,,,green,I
0.0,1.0,0.5,0.0,6.0,6.0,833.5315478034317,3.0,1.0,phase_2,go,700.0,750.0,1.0,,,,,,,,,magenta,cross
0.0,7.0,2.0,1.0,6.0,0.0,0.0,3.0,1.0,phase_2,stop,700.0,750.0,4.0,,,,,,,,,green,I
0.0,3.0,2.0,0.0,5.0,5.0,904.6792360022664,3.0,1.0,phase_2,go,700.0,800.0,1.0,,,,,,,,,white,circle
0.0,2.0,1.0,0.0,6.0,6.0,896.1348398588598,3.0,1.0,phase_2,go,700.0,800.0,1.0,,,,,,,,,blue,flipped triangle
0.0,3.0,2.0,0.0,6.0,6.0,1038.143889978528,3.0,1.0,phase_2,go,700.0,800.0,1.0,,,,,,,,,white,circle
0.0,4.0,4.0,0.0,6.0,6.0,1030.4688303731382,3.0,1.0,phase_2,go,700.0,800.0,1.0,,,,,,,,,cyan,triangle
0.0,1.0,0.5,0.0,5.0,5.0,884.1217672452331,3.0,1.0,phase_2,go,700.0,800.0,1.0,,,,,,,,,magenta,cross
0.0,8.0,4.0,1.0,6.0,0.0,0.0,3.0,1.0,phase_2,stop,700.0,800.0,4.0,,,,,,,,,gray,hexagon
0.0,6.0,1.0,1.0,5.0,5.0,793.3232630603015,3.0,1.0,phase_2,stop,700.0,850.0,3.0,,,,,,,,,yellow,diamond
0.0,8.0,4.0,1.0,6.0,6.0,824.5656029321253,4.0,1.0,phase_2,stop,650.0,850.0,3.0,,,,,,,,,gray,hexagon
0.0,3.0,2.0,0.0,6.0,6.0,677.2090140730143,4.0,1.0,phase_2,go,650.0,800.0,1.0,,,,,,,,,white,circle
0.0,7.0,2.0,1.0,5.0,5.0,574.8293101787567,4.0,1.0,phase_2,stop,650.0,800.0,3.0,,,,,,,,,green,I
0.0,4.0,4.0,0.0,5.0,5.0,940.681149251759,4.0,1.0,phase_2,go,600.0,800.0,1.0,,,,,,,,,cyan,triangle
0.0,4.0,4.0,0.0,5.0,5.0,1019.6587704122066,4.0,1.0,phase_2,go,600.0,800.0,1.0,,,,,,,,,cyan,triangle
0.0,4.0,4.0,0.0,5.0,5.0,964.3770139664412,4.0,1.0,phase_2,go,600.0,800.0,1.0,,,,,,,,,cyan,triangle
0.0,8.0,4.0,1.0,6.0,6.0,828.1436231918633,4.0,1.0,phase_2,stop,600.0,800.0,3.0,,,,,,,,,gray,hexagon
0.0,1.0,0.5,0.0,5.0,5.0,1101.1296729557216,4.0,1.0,phase_2,go,600.0,750.0,1.0,,,,,,,,,magenta,cross
0.0,5.0,0.5,1.0,6.0,6.0,867.728085257113,4.0,1.0,phase_2,stop,600.0,750.0,3.0,,,,,,,,,orange,square
0.0,3.0,2.0,0.0,5.0,5.0,976.4936119318008,4.0,1.0,phase_2,go,600.0,700.0,1.0,,,,,,,,,white,circle
0.0,5.0,0.5,1.0,5.0,5.0,944.668693933636,4.0,1.0,phase_2,go,600.0,700.0,1.0,,,,,,,,,orange,square
0.0,8.0,4.0,1.0,6.0,0.0,0.0,4.0,1.0,phase_2,stop,600.0,700.0,4.0,,,,,,,,,gray,hexagon
0.0,6.0,1.0,1.0,6.0,0.0,0.0,4.0,1.0,phase_2,stop,600.0,750.0,4.0,,,,,,,,,yellow,diamond
0.0,5.0,0.5,1.0,5.0,5.0,826.2782180681825,4.0,1.0,phase_2,go,600.0,800.0,1.0,,,,,,,,,orange,square
0.0,2.0,1.0,0.0,5.0,5.0,889.6733080036938,4.0,1.0,phase_2,go,600.0,800.0,1.0,,,,,,,,,blue,flipped triangle
0.0,3.0,2.0,0.0,6.0,6.0,855.5517699569464,4.0,1.0,phase_2,go,600.0,800.0,1.0,,,,,,,,,white,circle
0.0,3.0,2.0,0.0,5.0,5.0,893.2652180083096,4.0,1.0,phase_2,go,600.0,800.0,1.0,,,,,,,,,white,circle
0.0,5.0,0.5,1.0,6.0,6.0,821.2499120272696,4.0,1.0,phase_2,stop,600.0,800.0,3.0,,,,,,,,,orange,square
0.0,6.0,1.0,1.0,5.0,5.0,692.5218082033098,4.0,1.0,phase_2,go,600.0,750.0,1.0,,,,,,,,,yellow,diamond
0.0,8.0,4.0,1.0,5.0,0.0,0.0,4.0,1.0,phase_2,stop,600.0,750.0,4.0,,,,,,,,,gray,hexagon
0.0,1.0,0.5,0.0,6.0,6.0,1085.1248241961002,4.0,1.0,phase_2,go,650.0,750.0,1.0,,,,,,,,,magenta,cross
0.0,7.0,2.0,1.0,6.0,0.0,0.0,4.0,1.0,phase_2,stop,650.0,750.0,4.0,,,,,,,,,green,I
0.0,2.0,1.0,0.0,6.0,6.0,1010.9641873277724,4.0,1.0,phase_2,go,650.0,800.0,1.0,,,,,,,,,blue,flipped triangle
0.0,8.0,4.0,1.0,5.0,5.0,1067.0400019735098,4.0,1.0,phase_2,go,650.0,800.0,1.0,,,,,,,,,gray,hexagon
0.0,5.0,0.5,1.0,6.0,0.0,0.0,4.0,1.0,phase_2,stop,650.0,800.0,4.0,,,,,,,,,orange,square
0.0,2.0,1.0,0.0,6.0,6.0,879.8535037785769,4.0,1.0,phase_2,go,650.0,850.0,1.0,,,,,,,,,blue,flipped triangle
0.0,6.0,1.0,1.0,5.0,0.0,0.0,4.0,1.0,phase_2,stop,650.0,850.0,4.0,,,,,,,,,yellow,diamond
0.0,4.0,4.0,0.0,5.0,5.0,969.6835898794234,4.0,1.0,phase_2,go,700.0,850.0,1.0,,,,,,,,,cyan,triangle
0.0,6.0,1.0,1.0,6.0,6.0,992.3690599389374,4.0,1.0,phase_2,go,700.0,850.0,1.0,,,,,,,,,yellow,diamond
0.0,2.0,1.0,0.0,5.0,5.0,342.3673450015485,4.0,1.0,phase_2,go,700.0,850.0,1.0,,,,,,,,,blue,flipped triangle
0.0,6.0,1.0,1.0,5.0,5.0,870.8925279788673,4.0,1.0,phase_2,stop,700.0,850.0,3.0,,,,,,,,,yellow,diamond
0.0,4.0,4.0,0.0,5.0,5.0,720.5078466795385,4.0,1.0,phase_2,go,650.0,850.0,1.0,,,,,,,,,cyan,triangle
0.0,5.0,0.5,1.0,5.0,0.0,0.0,4.0,1.0,phase_2,stop,650.0,850.0,4.0,,,,,,,,,orange,square
0.0,1.0,0.5,0.0,5.0,5.0,981.4800792373716,4.0,1.0,phase_2,go,700.0,850.0,1.0,,,,,,,,,magenta,cross
0.0,4.0,4.0,0.0,6.0,6.0,1131.6169840283692,4.0,1.0,phase_2,go,700.0,850.0,1.0,,,,,,,,,cyan,triangle
0.0,5.0,0.5,1.0,6.0,6.0,1001.7824089154601,4.0,1.0,phase_2,stop,700.0,850.0,3.0,,,,,,,,,orange,square
0.0,4.0,4.0,0.0,6.0,6.0,825.40676696226,5.0,1.0,phase_2,go,700.0,800.0,1.0,,,,,,,,,cyan,triangle
0.0,8.0,4.0,1.0,5.0,5.0,682.9936187714338,5.0,1.0,phase_2,stop,700.0,800.0,3.0,,,,,,,,,gray,hexagon
0.0,8.0,4.0,1.0,6.0,6.0,785.6702920980752,5.0,1.0,phase_2,stop,650.0,800.0,3.0,,,,,,,,,gray,hexagon
0.0,1.0,0.5,0.0,5.0,5.0,823.3716432005167,5.0,1.0,phase_2,go,650.0,750.0,1.0,,,,,,,,,magenta,cross
0.0,5.0,0.5,1.0,6.0,0.0,0.0,5.0,1.0,phase_2,stop,650.0,750.0,4.0,,,,,,,,,orange,square
0.0,1.0,0.5,0.0,5.0,5.0,1348.8325206562877,5.0,1.0,phase_2,go,650.0,800.0,1.0,,,,,,,,,magenta,cross
0.0,5.0,0.5,1.0,5.0,0.0,0.0,5.0,1.0,phase_2,stop,650.0,800.0,4.0,,,,,,,,,orange,square
0.0,8.0,4.0,1.0,6.0,6.0,950.2045502886176,5.0,1.0,phase_2,stop,700.0,800.0,3.0,,,,,,,,,gray,hexagon
0.0,7.0,2.0,1.0,6.0,0.0,0.0,5.0,1.0,phase_2,stop,700.0,750.0,4.0,,,,,,,,,green,I
0.0,8.0,4.0,1.0,5.0,5.0,1261.6214146837592,5.0,1.0,phase_2,go,700.0,800.0,1.0,,,,,,,,,gray,hexagon
0.0,2.0,1.0,0.0,5.0,5.0,1034.8982932046056,5.0,1.0,phase_2,go,700.0,800.0,1.0,,,,,,,,,blue,flipped triangle
0.0,7.0,2.0,1.0,5.0,0.0,0.0,5.0,1.0,phase_2,stop,700.0,800.0,4.0,,,,,,,,,green,I
0.0,1.0,0.5,0.0,5.0,5.0,969.3208090029656,5.0,1.0,phase_2,go,750.0,800.0,1.0,,,,,,,,,magenta,cross
0.0,3.0,2.0,0.0,5.0,5.0,1003.1127082183957,5.0,1.0,phase_2,go,750.0,800.0,1.0,,,,,,,,,white,circle
0.0,3.0,2.0,0.0,6.0,6.0,1194.131979253143,5.0,1.0,phase_2,go,750.0,800.0,1.0,,,,,,,,,white,circle
0.0,4.0,4.0,0.0,6.0,6.0,911.3313420675696,5.0,1.0,phase_2,go,750.0,800.0,1.0,,,,,,,,,cyan,triangle
0.0,8.0,4.0,1.0,6.0,6.0,881.5684379078448,5.0,1.0,phase_2,stop,750.0,800.0,3.0,,,,,,,,,gray,hexagon
0.0,3.0,2.0,0.0,5.0,5.0,1104.7634538263085,5.0,1.0,phase_2,go,750.0,750.0,1.0,,,,,,,,,white,circle
0.0,7.0,2.0,1.0,5.0,0.0,0.0,5.0,1.0,phase_2,stop,750.0,750.0,4.0,,,,,,,,,green,I
0.0,2.0,1.0,0.0,5.0,5.0,1112.3814987950027,5.0,1.0,phase_2,go,800.0,750.0,1.0,,,,,,,,,blue,flipped triangle
0.0,6.0,1.0,1.0,6.0,0.0,0.0,5.0,1.0,phase_2,stop,800.0,750.0,4.0,,,,,,,,,yellow,diamond
0.0,5.0,0.5,1.0,6.0,0.0,0.0,5.0,1.0,phase_2,stop,800.0,800.0,4.0,,,,,,,,,orange,square
0.0,8.0,4.0,1.0,5.0,0.0,0.0,5.0,1.0,phase_2,stop,800.0,850.0,4.0,,,,,,,,,gray,hexagon
0.0,2.0,1.0,0.0,5.0,5.0,1052.2545059211552,5.0,1.0,phase_2,go,850.0,850.0,1.0,,,,,,,,,blue,flipped triangle
0.0,7.0,2.0,1.0,6.0,6.0,871.2998842820525,5.0,1.0,phase_2,stop,850.0,850.0,3.0,,,,,,,,,green,I
0.0,7.0,2.0,1.0,5.0,5.0,1026.0691521689296,5.0,1.0,phase_2,stop,850.0,800.0,3.0,,,,,,,,,green,I
0.0,8.0,4.0,1.0,6.0,6.0,1396.9328477978706,5.0,1.0,phase_2,go,800.0,800.0,1.0,,,,,,,,,gray,hexagon
0.0,8.0,4.0,1.0,5.0,0.0,0.0,5.0,1.0,phase_2,stop,800.0,800.0,4.0,,,,,,,,,gray,hexagon
0.0,2.0,1.0,0.0,5.0,5.0,1216.8822521343827,5.0,1.0,phase_2,go,850.0,800.0,1.0,,,,,,,,,blue,flipped triangle
0.0,3.0,2.0,0.0,5.0,5.0,1159.354920964688,5.0,1.0,phase_2,go,850.0,800.0,1.0,,,,,,,,,white,circle
0.0,6.0,1.0,1.0,6.0,0.0,0.0,5.0,1.0,phase_2,stop,850.0,800.0,4.0,,,,,,,,,yellow,diamond
0.0,4.0,4.0,0.0,5.0,5.0,1295.1256008818746,5.0,1.0,phase_2,go,850.0,850.0,1.0,,,,,,,,,cyan,triangle
0.0,1.0,0.5,0.0,6.0,6.0,1271.7757071368396,5.0,1.0,phase_2,go,850.0,850.0,1.0,,,,,,,,,magenta,cross
0.0,1.0,0.5,0.0,5.0,5.0,1263.564825989306,5.0,1.0,phase_2,go,850.0,850.0,1.0,,,,,,,,,magenta,cross
0.0,1.0,0.5,0.0,5.0,5.0,1204.9862816929815,5.0,1.0,phase_2,go,850.0,850.0,1.0,,,,,,,,,magenta,cross
0.0,2.0,1.0,0.0,6.0,6.0,1187.732629943639,5.0,1.0,phase_2,go,850.0,850.0,1.0,,,,,,,,,blue,flipped triangle
0.0,6.0,1.0,1.0,5.0,5.0,273.9809667691588,6.0,1.0,phase_2,stop,850.0,850.0,3.0,,,,,,,,,yellow,diamond
0.0,1.0,0.5,0.0,6.0,6.0,690.6074150465429,6.0,1.0,phase_2,go,800.0,850.0,1.0,,,,,,,,,magenta,cross
0.0,1.0,0.5,0.0,6.0,6.0,567.8216712549329,6.0,1.0,phase_2,go,800.0,850.0,1.0,,,,,,,,,magenta,cross
0.0,1.0,0.5,0.0,6.0,6.0,599.0998302586377,6.0,1.0,phase_2,go,800.0,850.0,1.0,,,,,,,,,magenta,cross
0.0,6.0,1.0,1.0,6.0,6.0,513.3495298214257,6.0,1.0,phase_2,stop,800.0,850.0,3.0,,,,,,,,,yellow,diamond
0.0,7.0,2.0,1.0,6.0,0.0,0.0,6.0,1.0,phase_2,stop,800.0,800.0,4.0,,,,,,,,,green,I
0.0,7.0,2.0,1.0,6.0,6.0,845.8109563216567,6.0,1.0,phase_2,stop,800.0,850.0,3.0,,,,,,,,,green,I
0.0,8.0,4.0,1.0,6.0,6.0,991.97370512411,6.0,1.0,phase_2,go,800.0,800.0,1.0,,,,,,,,,gray,hexagon
0.0,8.0,4.0,1.0,6.0,0.0,0.0,6.0,1.0,phase_2,stop,800.0,800.0,4.0,,,,,,,,,gray,hexagon
0.0,4.0,4.0,0.0,5.0,5.0,894.8582289740443,6.0,1.0,phase_2,go,800.0,850.0,1.0,,,,,,,,,cyan,triangle
0.0,6.0,1.0,1.0,6.0,6.0,763.4756960906088,6.0,1.0,phase_2,stop,800.0,850.0,3.0,,,,,,,,,yellow,diamond
0.0,6.0,1.0,1.0,5.0,0.0,0.0,6.0,1.0,phase_2,stop,800.0,800.0,4.0,,,,,,,,,yellow,diamond
0.0,2.0,1.0,0.0,6.0,6.0,1179.0759819559753,6.0,1.0,phase_2,go,850.0,800.0,1.0,,,,,,,,,blue,flipped triangle
0.0,2.0,1.0,0.0,5.0,5.0,914.470496121794,6.0,1.0,phase_2,go,850.0,800.0,1.0,,,,,,,,,blue,flipped triangle
0.0,4.0,4.0,0.0,5.0,5.0,306.2307187356055,6.0,1.0,phase_2,go,850.0,800.0,1.0,,,,,,,,,cyan,triangle
0.0,4.0,4.0,0.0,6.0,6.0,320.7037500105798,6.0,1.0,phase_2,go,850.0,800.0,1.0,,,,,,,,,cyan,triangle
0.0,5.0,0.5,1.0,6.0,6.0,291.0873219370842,6.0,1.0,phase_2,go,850.0,800.0,1.0,,,,,,,,,orange,square
0.0,8.0,4.0,1.0,5.0,5.0,239.3942070193588,6.0,1.0,phase_2,stop,850.0,800.0,3.0,,,,,,,,,gray,hexagon
0.0,7.0,2.0,1.0,6.0,6.0,264.9429640732705,6.0,1.0,phase_2,go,800.0,800.0,1.0,,,,,,,,,green,I
0.0,5.0,0.5,1.0,6.0,6.0,274.4723428040743,6.0,1.0,phase_2,stop,800.0,800.0,3.0,,,,,,,,,orange,square
0.0,8.0,4.0,1.0,6.0,6.0,736.5405177697539,6.0,1.0,phase_2,stop,800.0,750.0,3.0,,,,,,,,,gray,hexagon
0.0,5.0,0.5,1.0,5.0,5.0,792.0399568974972,6.0,1.0,phase_2,stop,800.0,700.0,3.0,,,,,,,,,orange,square
0.0,2.0,1.0,0.0,6.0,6.0,1117.5528317689896,6.0,1.0,phase_2,go,750.0,700.0,1.0,,,,,,,,,blue,flipped triangle
0.0,2.0,1.0,0.0,5.0,5.0,1348.8053558394313,6.0,1.0,phase_2,go,750.0,700.0,1.0,,,,,,,,,blue,flipped triangle
0.0,2.0,1.0,0.0,5.0,5.0,1118.5031160712242,6.0,1.0,phase_2,go,750.0,700.0,1.0,,,,,,,,,blue,flipped triangle
0.0,7.0,2.0,1.0,6.0,0.0,0.0,6.0,1.0,phase_2,stop,750.0,700.0,4.0,,,,,,,,,green,I
0.0,7.0,2.0,1.0,6.0,6.0,1141.9675420038402,6.0,1.0,phase_2,go,750.0,750.0,1.0,,,,,,,,,green,I
0.0,2.0,1.0,0.0,5.0,5.0,1091.151396278292,6.0,1.0,phase_2,go,750.0,750.0,1.0,,,,,,,,,blue,flipped triangle
0.0,7.0,2.0,1.0,5.0,0.0,0.0,6.0,1.0,phase_2,stop,750.0,750.0,4.0,,,,,,,,,green,I
0.0,3.0,2.0,0.0,6.0,6.0,1017.6780773326757,6.0,1.0,phase_2,go,800.0,750.0,1.0,,,,,,,,,white,circle
0.0,6.0,1.0,1.0,5.0,5.0,1025.8715599775314,6.0,1.0,phase_2,stop,800.0,750.0,3.0,,,,,,,,,yellow,diamond
0.0,4.0,4.0,0.0,5.0,5.0,1187.744511757046,6.0,1.0,phase_2,go,750.0,750.0,1.0,,,,,,,,,cyan,triangle
0.0,7.0,2.0,1.0,5.0,5.0,1113.8825053349135,6.0,1.0,phase_2,go,750.0,750.0,1.0,,,,,,,,,green,I
0.0,6.0,1.0,1.0,6.0,0.0,0.0,6.0,1.0,phase_2,stop,750.0,750.0,4.0,,,,,,,,,yellow,diamond
0.0,4.0,4.0,0.0,6.0,6.0,1064.0321802347898,6.0,1.0,phase_2,go,750.0,800.0,1.0,,,,,,,,,cyan,triangle
0.0,7.0,2.0,1.0,5.0,5.0,1175.797216128558,6.0,1.0,phase_2,go,750.0,800.0,1.0,,,,,,,,,green,I
0.0,1.0,0.5,0.0,6.0,6.0,421.3599092327058,7.0,1.0,phase_2,go,750.0,800.0,1.0,,,,,,,,,magenta,cross
0.0,6.0,1.0,1.0,6.0,6.0,736.71809816733,7.0,1.0,phase_2,go,750.0,800.0,1.0,,,,,,,,,yellow,diamond
0.0,6.0,1.0,1.0,6.0,6.0,708.1076740287244,7.0,1.0,phase_2,stop,750.0,800.0,3.0,,,,,,,,,yellow,diamond
0.0,8.0,4.0,1.0,5.0,5.0,1029.3491380289197,7.0,1.0,phase_2,go,750.0,750.0,1.0,,,,,,,,,gray,hexagon
0.0,8.0,4.0,1.0,6.0,6.0,299.8454268090427,7.0,1.0,phase_2,go,750.0,750.0,1.0,,,,,,,,,gray,hexagon
0.0,5.0,0.5,1.0,6.0,6.0,659.5313702709973,7.0,1.0,phase_2,go,750.0,750.0,1.0,,,,,,,,,orange,square
0.0,3.0,2.0,0.0,5.0,5.0,875.989967957139,7.0,1.0,phase_2,go,750.0,750.0,1.0,,,,,,,,,white,circle
0.0,5.0,0.5,1.0,5.0,5.0,955.7647840119898,7.0,1.0,phase_2,go,750.0,750.0,1.0,,,,,,,,,orange,square
0.0,2.0,1.0,0.0,6.0,6.0,948.7261828035116,7.0,1.0,phase_2,go,750.0,750.0,1.0,,,,,,,,,blue,flipped triangle
0.0,7.0,2.0,1.0,5.0,5.0,984.8708999343216,7.0,1.0,phase_2,go,750.0,750.0,1.0,,,,,,,,,green,I
0.0,8.0,4.0,1.0,6.0,0.0,0.0,7.0,1.0,phase_2,stop,750.0,750.0,4.0,,,,,,,,,gray,hexagon
0.0,5.0,0.5,1.0,5.0,0.0,0.0,7.0,1.0,phase_2,stop,750.0,800.0,4.0,,,,,,,,,orange,square
0.0,4.0,4.0,0.0,5.0,5.0,1042.0386190526187,7.0,1.0,phase_2,go,800.0,800.0,1.0,,,,,,,,,cyan,triangle
0.0,2.0,1.0,0.0,6.0,6.0,904.2200832627714,7.0,1.0,phase_2,go,800.0,800.0,1.0,,,,,,,,,blue,flipped triangle
0.0,7.0,2.0,1.0,5.0,5.0,287.8089477308094,7.0,1.0,phase_2,stop,800.0,800.0,3.0,,,,,,,,,green,I
0.0,7.0,2.0,1.0,5.0,5.0,277.139687910676,7.0,1.0,phase_2,stop,750.0,800.0,3.0,,,,,,,,,green,I
0.0,3.0,2.0,0.0,5.0,5.0,318.8998871482909,7.0,1.0,phase_2,go,700.0,800.0,1.0,,,,,,,,,white,circle
0.0,6.0,1.0,1.0,5.0,0.0,0.0,7.0,1.0,phase_2,stop,700.0,800.0,4.0,,,,,,,,,yellow,diamond
0.0,1.0,0.5,0.0,6.0,6.0,315.0689681060612,7.0,1.0,phase_2,go,750.0,800.0,1.0,,,,,,,,,magenta,cross
0.0,8.0,4.0,1.0,5.0,5.0,886.2443082034588,7.0,1.0,phase_2,stop,750.0,800.0,3.0,,,,,,,,,gray,hexagon
0.0,5.0,0.5,1.0,5.0,0.0,0.0,7.0,1.0,phase_2,stop,700.0,800.0,4.0,,,,,,,,,orange,square
0.0,2.0,1.0,0.0,5.0,5.0,330.5647168308496,7.0,1.0,phase_2,go,750.0,800.0,1.0,,,,,,,,,blue,flipped triangle
0.0,8.0,4.0,1.0,6.0,0.0,0.0,7.0,1.0,phase_2,stop,750.0,800.0,4.0,,,,,,,,,gray,hexagon
0.0,3.0,2.0,0.0,6.0,6.0,1328.6330746486783,7.0,1.0,phase_2,go,750.0,850.0,1.0,,,,,,,,,white,circle
0.0,7.0,2.0,1.0,5.0,0.0,0.0,7.0,1.0,phase_2,stop,750.0,850.0,4.0,,,,,,,,,green,I
0.0,3.0,2.0,0.0,6.0,6.0,319.4611151702702,7.0,1.0,phase_2,go,800.0,850.0,1.0,,,,,,,,,white,circle
0.0,1.0,0.5,0.0,6.0,6.0,977.973606903106,7.0,1.0,phase_2,go,800.0,850.0,1.0,,,,,,,,,magenta,cross
0.0,5.0,0.5,1.0,5.0,0.0,0.0,7.0,1.0,phase_2,stop,800.0,850.0,4.0,,,,,,,,,orange,square
0.0,4.0,4.0,0.0,6.0,6.0,1271.0382961668074,7.0,1.0,phase_2,go,850.0,850.0,1.0,,,,,,,,,cyan,triangle
0.0,4.0,4.0,0.0,6.0,6.0,289.3125913105905,7.0,1.0,phase_2,go,850.0,850.0,1.0,,,,,,,,,cyan,triangle
0.0,6.0,1.0,1.0,5.0,0.0,0.0,7.0,1.0,phase_2,stop,850.0,850.0,4.0,,,,,,,,,yellow,diamond
0.0,1.0,0.5,0.0,5.0,5.0,1423.79603208974,7.0,1.0,phase_2,go,900.0,850.0,1.0,,,,,,,,,magenta,cross
0.0,2.0,1.0,0.0,5.0,5.0,1293.712598271668,7.0,1.0,phase_2,go,900.0,850.0,1.0,,,,,,,,,blue,flipped triangle
0.0,1.0,0.5,0.0,6.0,6.0,989.5812589675188,7.0,1.0,phase_2,go,900.0,850.0,1.0,,,,,,,,,magenta,cross
0.0,3.0,2.0,0.0,5.0,5.0,932.7695476822556,7.0,1.0,phase_2,go,900.0,850.0,1.0,,,,,,,,,white,circle
0.0,1.0,0.5,0.0,5.0,5.0,1037.3581550084054,7.0,1.0,phase_2,go,900.0,850.0,1.0,,,,,,,,,magenta,cross
0.0,2.0,1.0,0.0,5.0,5.0,687.6331088133156,8.0,1.0,phase_2,go,900.0,850.0,1.0,,,,,,,,,blue,flipped triangle
0.0,2.0,1.0,0.0,6.0,6.0,855.8851168490946,8.0,1.0,phase_2,go,900.0,850.0,1.0,,,,,,,,,blue,flipped triangle
0.0,3.0,2.0,0.0,5.0,5.0,686.6457681171596,8.0,1.0,phase_2,go,900.0,850.0,1.0,,,,,,,,,white,circle
0.0,5.0,0.5,1.0,5.0,5.0,1055.02256937325,8.0,1.0,phase_2,stop,900.0,850.0,3.0,,,,,,,,,orange,square
0.0,4.0,4.0,0.0,5.0,5.0,469.1885039210319,8.0,1.0,phase_2,go,850.0,850.0,1.0,,,,,,,,,cyan,triangle
0.0,1.0,0.5,0.0,6.0,6.0,949.1085507906972,8.0,1.0,phase_2,go,850.0,850.0,1.0,,,,,,,,,magenta,cross
0.0,6.0,1.0,1.0,6.0,6.0,1020.7208548672495,8.0,1.0,phase_2,stop,850.0,850.0,3.0,,,,,,,,,yellow,diamond
0.0,3.0,2.0,0.0,6.0,6.0,1166.9857990927994,8.0,1.0,phase_2,go,850.0,800.0,1.0,,,,,,,,,white,circle
0.0,4.0,4.0,0.0,5.0,5.0,1253.2910439185798,8.0,1.0,phase_2,go,850.0,800.0,1.0,,,,,,,,,cyan,triangle
0.0,2.0,1.0,0.0,6.0,6.0,796.5791928581893,8.0,1.0,phase_2,go,850.0,800.0,1.0,,,,,,,,,blue,flipped triangle
0.0,6.0,1.0,1.0,5.0,0.0,0.0,8.0,1.0,phase_2,stop,850.0,800.0,4.0,,,,,,,,,yellow,diamond
0.0,3.0,2.0,0.0,5.0,5.0,1124.956747982651,8.0,1.0,phase_2,go,900.0,800.0,1.0,,,,,,,,,white,circle
0.0,3.0,2.0,0.0,5.0,5.0,1234.913943335414,8.0,1.0,phase_2,go,900.0,800.0,1.0,,,,,,,,,white,circle
0.0,6.0,1.0,1.0,5.0,0.0,0.0,8.0,1.0,phase_2,stop,900.0,800.0,4.0,,,,,,,,,yellow,diamond
0.0,1.0,0.5,0.0,6.0,6.0,1095.966782886535,8.0,1.0,phase_2,go,950.0,800.0,1.0,,,,,,,,,magenta,cross
0.0,7.0,2.0,1.0,6.0,0.0,0.0,8.0,1.0,phase_2,stop,950.0,800.0,4.0,,,,,,,,,green,I
0.0,5.0,0.5,1.0,5.0,5.0,880.7912617921829,8.0,1.0,phase_2,go,950.0,850.0,1.0,,,,,,,,,orange,square
0.0,1.0,0.5,0.0,5.0,5.0,290.3164657764137,8.0,1.0,phase_2,go,950.0,850.0,1.0,,,,,,,,,magenta,cross
0.0,6.0,1.0,1.0,6.0,6.0,279.2420969344675,8.0,1.0,phase_2,stop,950.0,850.0,3.0,,,,,,,,,yellow,diamond
0.0,7.0,2.0,1.0,5.0,0.0,0.0,8.0,1.0,phase_2,stop,950.0,800.0,4.0,,,,,,,,,green,I
0.0,4.0,4.0,0.0,5.0,0.0,0.0,8.0,1.0,phase_2,go,1000.0,800.0,5.0,,,,,,,,,cyan,triangle
0.0,3.0,2.0,0.0,6.0,6.0,774.9546319246292,8.0,1.0,phase_2,go,1000.0,800.0,1.0,,,,,,,,,white,circle
0.0,7.0,2.0,1.0,5.0,5.0,1005.8740261010826,8.0,1.0,phase_2,go,1000.0,800.0,1.0,,,,,,,,,green,I
0.0,3.0,2.0,0.0,6.0,6.0,1053.8374301977456,8.0,1.0,phase_2,go,1000.0,800.0,1.0,,,,,,,,,white,circle
0.0,3.0,2.0,0.0,6.0,6.0,580.5177413858473,8.0,1.0,phase_2,go,1000.0,800.0,1.0,,,,,,,,,white,circle
0.0,7.0,2.0,1.0,6.0,0.0,0.0,8.0,1.0,phase_2,stop,1000.0,800.0,4.0,,,,,,,,,green,I
0.0,5.0,0.5,1.0,6.0,6.0,1011.2985759042203,8.0,1.0,phase_2,stop,1000.0,850.0,3.0,,,,,,,,,orange,square
0.0,2.0,1.0,0.0,6.0,6.0,1130.502191837877,8.0,1.0,phase_2,go,1000.0,800.0,1.0,,,,,,,,,blue,flipped triangle
0.0,6.0,1.0,1.0,6.0,6.0,548.3020427636802,8.0,1.0,phase_2,go,1000.0,800.0,1.0,,,,,,,,,yellow,diamond
0.0,7.0,2.0,1.0,6.0,0.0,0.0,8.0,1.0,phase_2,stop,1000.0,800.0,4.0,,,,,,,,,green,I
0.0,5.0,0.5,1.0,6.0,0.0,0.0,8.0,1.0,phase_2,stop,1000.0,850.0,4.0,,,,,,,,,orange,square
0.0,4.0,4.0,0.0,5.0,5.0,954.7618059441448,8.0,1.0,phase_2,go,1000.0,900.0,1.0,,,,,,,,,cyan,triangle
0.0,2.0,1.0,0.0,5.0,5.0,1273.8473932258785,8.0,1.0,phase_2,go,1000.0,900.0,1.0,,,,,,,,,blue,flipped triangle
0.0,8.0,4.0,1.0,5.0,5.0,646.3402789086103,8.0,1.0,phase_2,stop,1000.0,900.0,3.0,,,,,,,,,gray,hexagon
0.0,3.0,2.0,0.0,6.0,6.0,623.9794990979135,8.0,1.0,phase_2,go,950.0,900.0,1.0,,,,,,,,,white,circle
0.0,6.0,1.0,1.0,5.0,0.0,0.0,8.0,1.0,phase_2,stop,950.0,900.0,4.0,,,,,,,,,yellow,diamond
0.0,6.0,1.0,1.0,7.0,2.0,1289.057529065758,1.0,1.0,phase_3,,,,,170.0,5.0,204.0,170.0,34.0,68.0,136.0,102.0,yellow,diamond
0.0,3.0,2.0,0.0,7.0,5.0,1203.2846747897563,1.0,1.0,phase_3,,,,,245.0,5.0,49.0,294.0,147.0,98.0,245.0,196.0,white,circle
0.0,7.0,2.0,1.0,7.0,5.0,2066.973929759115,1.0,1.0,phase_3,,,,,162.0,3.0,324.0,108.0,270.0,54.0,162.0,216.0,green,I
0.0,5.0,0.5,1.0,7.0,2.0,1223.254336975515,1.0,1.0,phase_3,,,,,196.0,4.0,98.0,196.0,147.0,294.0,245.0,49.0,orange,square
0.0,2.0,1.0,0.0,7.0,4.0,2006.331364158541,1.0,1.0,phase_3,,,,,156.0,4.0,39.0,195.0,234.0,156.0,117.0,78.0,blue,flipped triangle
0.0,8.0,4.0,1.0,7.0,1.0,998.8250504247844,1.0,1.0,phase_3,,,,,324.0,6.0,324.0,270.0,108.0,216.0,54.0,162.0,gray,hexagon
0.0,1.0,0.5,0.0,7.0,4.0,1800.678640138358,1.0,1.0,phase_3,,,,,196.0,4.0,294.0,49.0,245.0,196.0,98.0,147.0,magenta,cross
0.0,5.0,0.5,1.0,7.0,3.0,1376.96468597278,1.0,1.0,phase_3,,,,,78.0,2.0,195.0,156.0,78.0,117.0,39.0,234.0,orange,square
0.0,6.0,1.0,1.0,7.0,6.0,1665.8732979558408,1.0,1.0,phase_3,,,,,220.0,5.0,44.0,264.0,176.0,88.0,132.0,220.0,yellow,diamond
0.0,7.0,2.0,1.0,7.0,3.0,1267.4070592038331,1.0,1.0,phase_3,,,,,156.0,4.0,39.0,78.0,156.0,234.0,117.0,195.0,green,I
0.0,5.0,0.5,1.0,7.0,6.0,1373.1615911237895,1.0,1.0,phase_3,,,,,88.0,2.0,176.0,132.0,220.0,264.0,44.0,88.0,orange,square
0.0,7.0,2.0,1.0,7.0,5.0,1353.912021033466,1.0,1.0,phase_3,,,,,136.0,4.0,68.0,34.0,102.0,204.0,136.0,170.0,green,I
0.0,4.0,4.0,0.0,7.0,6.0,818.4267450124025,1.0,1.0,phase_3,,,,,216.0,4.0,54.0,324.0,162.0,270.0,108.0,216.0,cyan,triangle
0.0,7.0,2.0,1.0,7.0,6.0,1618.640914093703,1.0,1.0,phase_3,,,,,196.0,4.0,98.0,49.0,294.0,245.0,147.0,196.0,green,I
0.0,7.0,2.0,1.0,7.0,4.0,1874.3642438203096,1.0,1.0,phase_3,,,,,195.0,5.0,117.0,156.0,39.0,195.0,234.0,78.0,green,I
0.0,8.0,4.0,1.0,7.0,1.0,805.5864591151476,1.0,1.0,phase_3,,,,,234.0,6.0,234.0,156.0,39.0,117.0,78.0,195.0,gray,hexagon
0.0,1.0,0.5,0.0,7.0,5.0,2223.160699941218,1.0,1.0,phase_3,,,,,220.0,5.0,88.0,176.0,44.0,132.0,220.0,264.0,magenta,cross
0.0,5.0,0.5,1.0,7.0,1.0,1918.0472870357332,1.0,1.0,phase_3,,,,,108.0,2.0,108.0,270.0,54.0,162.0,216.0,324.0,orange,square
0.0,3.0,2.0,0.0,7.0,3.0,1559.338277671486,1.0,1.0,phase_3,,,,,44.0,1.0,264.0,88.0,44.0,176.0,132.0,220.0,white,circle
0.0,5.0,0.5,1.0,7.0,6.0,1529.4737592339516,1.0,1.0,phase_3,,,,,132.0,3.0,220.0,264.0,88.0,176.0,44.0,132.0,orange,square
0.0,6.0,1.0,1.0,7.0,2.0,954.7393028624356,2.0,1.0,phase_3,,,,,156.0,4.0,39.0,156.0,117.0,78.0,195.0,234.0,yellow,diamond
0.0,2.0,1.0,0.0,7.0,5.0,1453.9638757705688,2.0,1.0,phase_3,,,,,156.0,4.0,234.0,78.0,195.0,117.0,156.0,39.0,blue,flipped triangle
0.0,8.0,4.0,1.0,7.0,4.0,1359.2898529022932,2.0,1.0,phase_3,,,,,294.0,6.0,147.0,49.0,196.0,294.0,245.0,98.0,gray,hexagon
0.0,4.0,4.0,0.0,7.0,1.0,1140.8041520044208,2.0,1.0,phase_3,,,,,78.0,2.0,78.0,39.0,117.0,156.0,234.0,195.0,cyan,triangle
0.0,3.0,2.0,0.0,7.0,5.0,1320.3635709360242,2.0,1.0,phase_3,,,,,170.0,5.0,34.0,136.0,102.0,68.0,170.0,204.0,white,circle
0.0,2.0,1.0,0.0,7.0,6.0,1243.3194490149615,2.0,1.0,phase_3,,,,,324.0,6.0,216.0,270.0,162.0,54.0,108.0,324.0,blue,flipped triangle
0.0,1.0,0.5,0.0,7.0,2.0,1131.3833072781565,2.0,1.0,phase_3,,,,,270.0,5.0,108.0,270.0,54.0,216.0,162.0,324.0,magenta,cross
0.0,4.0,4.0,0.0,7.0,3.0,1862.12565517053,2.0,1.0,phase_3,,,,,220.0,5.0,88.0,132.0,220.0,264.0,44.0,176.0,cyan,triangle
0.0,1.0,0.5,0.0,7.0,2.0,1382.2102067060769,2.0,1.0,phase_3,,,,,156.0,4.0,39.0,156.0,195.0,117.0,234.0,78.0,magenta,cross
0.0,3.0,2.0,0.0,7.0,4.0,1719.2356740124524,2.0,1.0,phase_3,,,,,68.0,2.0,34.0,204.0,136.0,68.0,170.0,102.0,white,circle
0.0,2.0,1.0,0.0,7.0,5.0,1408.5555709898472,2.0,1.0,phase_3,,,,,245.0,5.0,98.0,294.0,147.0,196.0,245.0,49.0,blue,flipped triangle
0.0,2.0,1.0,0.0,7.0,3.0,2463.833853136748,2.0,1.0,phase_3,,,,,204.0,6.0,68.0,34.0,204.0,170.0,102.0,136.0,blue,flipped triangle
0.0,8.0,4.0,1.0,7.0,6.0,1689.3567610532043,2.0,1.0,phase_3,,,,,156.0,4.0,117.0,234.0,195.0,78.0,39.0,156.0,gray,hexagon
0.0,8.0,4.0,1.0,7.0,6.0,1451.611085794866,2.0,1.0,phase_3,,,,,147.0,3.0,49.0,294.0,98.0,196.0,245.0,147.0,gray,hexagon
0.0,4.0,4.0,0.0,7.0,1.0,1068.466641008854,2.0,1.0,phase_3,,,,,132.0,3.0,132.0,264.0,44.0,220.0,88.0,176.0,cyan,triangle
0.0,7.0,2.0,1.0,7.0,3.0,1446.3139530271292,2.0,1.0,phase_3,,,,,204.0,6.0,68.0,102.0,204.0,170.0,34.0,136.0,green,I
0.0,2.0,1.0,0.0,7.0,6.0,1447.36820878461,2.0,1.0,phase_3,,,,,176.0,4.0,132.0,220.0,264.0,88.0,44.0,176.0,blue,flipped triangle
0.0,3.0,2.0,0.0,7.0,5.0,1755.4579176940024,2.0,1.0,phase_3,,,,,54.0,1.0,324.0,270.0,216.0,108.0,54.0,162.0,white,circle
0.0,8.0,4.0,1.0,7.0,4.0,1148.315025959164,2.0,1.0,phase_3,,,,,270.0,5.0,162.0,216.0,324.0,270.0,108.0,54.0,gray,hexagon
0.0,1.0,0.5,0.0,7.0,1.0,1837.754278909415,2.0,1.0,phase_3,,,,,68.0,2.0,68.0,204.0,170.0,102.0,136.0,34.0,magenta,cross
0.0,1.0,0.5,0.0,7.0,6.0,1424.665943719447,3.0,1.0,phase_3,,,,,88.0,2.0,176.0,132.0,264.0,220.0,44.0,88.0,magenta,cross
0.0,6.0,1.0,1.0,7.0,5.0,1725.3958359360697,3.0,1.0,phase_3,,,,,54.0,1.0,216.0,162.0,324.0,108.0,54.0,270.0,yellow,diamond
0.0,6.0,1.0,1.0,7.0,5.0,1782.7124181203544,3.0,1.0,phase_3,,,,,196.0,4.0,147.0,98.0,49.0,294.0,196.0,245.0,yellow,diamond
0.0,5.0,0.5,1.0,7.0,3.0,2823.9095178432763,3.0,1.0,phase_3,,,,,108.0,2.0,324.0,54.0,108.0,216.0,162.0,270.0,orange,square
0.0,4.0,4.0,0.0,7.0,3.0,1224.1436070762577,3.0,1.0,phase_3,,,,,147.0,3.0,294.0,196.0,147.0,49.0,98.0,245.0,cyan,triangle
0.0,8.0,4.0,1.0,7.0,2.0,1345.4188951291144,3.0,1.0,phase_3,,,,,204.0,6.0,136.0,204.0,34.0,102.0,170.0,68.0,gray,hexagon
0.0,6.0,1.0,1.0,7.0,6.0,587.3072133399546,3.0,1.0,phase_3,,,,,196.0,4.0,245.0,294.0,98.0,147.0,49.0,196.0,yellow,diamond
0.0,2.0,1.0,0.0,7.0,2.0,1372.6455052383244,3.0,1.0,phase_3,,,,,324.0,6.0,108.0,324.0,162.0,54.0,270.0,216.0,blue,flipped triangle
0.0,5.0,0.5,1.0,7.0,6.0,1315.9451032988727,3.0,1.0,phase_3,,,,,68.0,2.0,34.0,170.0,102.0,204.0,136.0,68.0,orange,square
0.0,2.0,1.0,0.0,7.0,3.0,1662.9638238810005,3.0,1.0,phase_3,,,,,264.0,6.0,88.0,220.0,264.0,132.0,44.0,176.0,blue,flipped triangle
0.0,3.0,2.0,0.0,7.0,2.0,1470.6954397261145,3.0,1.0,phase_3,,,,,98.0,2.0,245.0,98.0,147.0,294.0,196.0,49.0,white,circle
0.0,5.0,0.5,1.0,7.0,6.0,1921.890853904188,3.0,1.0,phase_3,,,,,196.0,4.0,49.0,98.0,147.0,294.0,245.0,196.0,orange,square
0.0,6.0,1.0,1.0,7.0,4.0,1540.172572247684,3.0,1.0,phase_3,,,,,162.0,3.0,270.0,54.0,108.0,162.0,324.0,216.0,yellow,diamond
0.0,4.0,4.0,0.0,7.0,3.0,2205.9124996885657,3.0,1.0,phase_3,,,,,117.0,3.0,39.0,156.0,117.0,234.0,195.0,78.0,cyan,triangle
0.0,1.0,0.5,0.0,7.0,3.0,2236.724230926484,3.0,1.0,phase_3,,,,,270.0,5.0,162.0,216.0,270.0,108.0,324.0,54.0,magenta,cross
0.0,7.0,2.0,1.0,7.0,2.0,1413.5041018016636,3.0,1.0,phase_3,,,,,245.0,5.0,147.0,245.0,294.0,49.0,98.0,196.0,green,I
0.0,2.0,1.0,0.0,7.0,4.0,1568.7330160290005,3.0,1.0,phase_3,,,,,170.0,5.0,136.0,68.0,204.0,170.0,34.0,102.0,blue,flipped triangle
0.0,8.0,4.0,1.0,7.0,6.0,1952.4385062977672,3.0,1.0,phase_3,,,,,102.0,3.0,170.0,68.0,136.0,34.0,204.0,102.0,gray,hexagon
0.0,4.0,4.0,0.0,7.0,4.0,1313.960751052946,3.0,1.0,phase_3,,,,,108.0,2.0,324.0,270.0,216.0,108.0,54.0,162.0,cyan,triangle
0.0,6.0,1.0,1.0,7.0,1.0,1782.2555708698928,3.0,1.0,phase_3,,,,,156.0,4.0,156.0,78.0,39.0,195.0,117.0,234.0,yellow,diamond
0.0,4.0,4.0,0.0,7.0,5.0,1614.2390719614923,4.0,1.0,phase_3,,,,,196.0,4.0,147.0,245.0,294.0,98.0,196.0,49.0,cyan,triangle
0.0,7.0,2.0,1.0,7.0,5.0,1711.98962489143,4.0,1.0,phase_3,,,,,132.0,3.0,220.0,176.0,44.0,88.0,132.0,264.0,green,I
0.0,7.0,2.0,1.0,7.0,3.0,1384.149368852377,4.0,1.0,phase_3,,,,,132.0,3.0,176.0,44.0,132.0,264.0,220.0,88.0,green,I
0.0,3.0,2.0,0.0,7.0,1.0,1754.308704752475,4.0,1.0,phase_3,,,,,220.0,5.0,220.0,132.0,176.0,88.0,264.0,44.0,white,circle
0.0,3.0,2.0,0.0,7.0,5.0,2076.96375856176,4.0,1.0,phase_3,,,,,156.0,4.0,117.0,39.0,195.0,234.0,156.0,78.0,white,circle
0.0,6.0,1.0,1.0,7.0,3.0,1163.3953480049968,4.0,1.0,phase_3,,,,,264.0,6.0,88.0,220.0,264.0,44.0,176.0,132.0,yellow,diamond
0.0,7.0,2.0,1.0,7.0,1.0,1680.0878969952464,4.0,1.0,phase_3,,,,,216.0,4.0,216.0,108.0,270.0,162.0,54.0,324.0,green,I
0.0,5.0,0.5,1.0,7.0,2.0,1765.8682041801512,4.0,1.0,phase_3,,,,,156.0,4.0,39.0,156.0,195.0,78.0,234.0,117.0,orange,square
0.0,4.0,4.0,0.0,7.0,6.0,1913.3121641352773,4.0,1.0,phase_3,,,,,136.0,4.0,170.0,102.0,204.0,68.0,34.0,136.0,cyan,triangle
0.0,1.0,0.5,0.0,7.0,3.0,1312.4682288616896,4.0,1.0,phase_3,,,,,234.0,6.0,39.0,156.0,234.0,195.0,78.0,117.0,magenta,cross
0.0,8.0,4.0,1.0,7.0,5.0,2242.9865719750524,4.0,1.0,phase_3,,,,,220.0,5.0,132.0,88.0,264.0,176.0,220.0,44.0,gray,hexagon
0.0,1.0,0.5,0.0,7.0,6.0,1326.657413970679,4.0,1.0,phase_3,,,,,102.0,3.0,204.0,34.0,136.0,68.0,170.0,102.0,magenta,cross
0.0,6.0,1.0,1.0,7.0,5.0,1100.8356432430446,4.0,1.0,phase_3,,,,,136.0,4.0,68.0,102.0,170.0,204.0,136.0,34.0,yellow,diamond
0.0,2.0,1.0,0.0,7.0,4.0,1968.0867213755848,4.0,1.0,phase_3,,,,,245.0,5.0,147.0,196.0,98.0,245.0,49.0,294.0,blue,flipped triangle
0.0,4.0,4.0,0.0,7.0,6.0,1424.4180358946323,4.0,1.0,phase_3,,,,,204.0,6.0,170.0,34.0,136.0,102.0,68.0,204.0,cyan,triangle
0.0,3.0,2.0,0.0,7.0,4.0,1625.2899491228163,4.0,1.0,phase_3,,,,,39.0,1.0,78.0,195.0,156.0,39.0,234.0,117.0,white,circle
0.0,5.0,0.5,1.0,7.0,5.0,1660.6466718949378,4.0,1.0,phase_3,,,,,68.0,2.0,102.0,204.0,136.0,34.0,68.0,170.0,orange,square
0.0,8.0,4.0,1.0,7.0,4.0,1468.583513982594,4.0,1.0,phase_3,,,,,132.0,3.0,44.0,264.0,176.0,132.0,88.0,220.0,gray,hexagon
0.0,3.0,2.0,0.0,7.0,1.0,1636.9750630110502,4.0,1.0,phase_3,,,,,108.0,2.0,108.0,162.0,324.0,54.0,270.0,216.0,white,circle
0.0,1.0,0.5,0.0,7.0,3.0,1934.3108274042609,4.0,1.0,phase_3,,,,,147.0,3.0,49.0,98.0,147.0,196.0,245.0,294.0,magenta,cross
