raw_reward_magnitude,stim_reward,stepwise_reward_magnitude,paired_with_stopping,stim_location,response,reaction_time,block,num_trial_presentations,which_phase,stop_signal_trial_type,left_SSD,right_SSD,accuracy,chosen_bidding_amount,chosen_bidding_level,possible_bid_1,possible_bid_2,possible_bid_3,possible_bid_4,possible_bid_5,possible_bid_6,color_text,shape_text
73.0,5.0,0.5,1.0,2.0,2.0,316.1684041842818,1.0,1.0,phase_1,,,,,,,,,,,,,yellow,triangle
209.0,7.0,2.0,1.0,3.0,3.0,304.053224157542,1.0,1.0,phase_1,,,,,,,,,,,,,blue,square
218.0,3.0,2.0,0.0,1.0,1.0,309.6678359434008,1.0,1.0,phase_1,,,,,,,,,,,,,gray,diamond
123.0,6.0,1.0,1.0,3.0,3.0,304.465948138386,1.0,1.0,phase_1,,,,,,,,,,,,,magenta,circle
45.0,1.0,0.5,0.0,1.0,1.0,324.2503157816827,1.0,1.0,phase_1,,,,,,,,,,,,,green,I
93.0,2.0,1.0,0.0,2.0,2.0,259.0352431870997,1.0,1.0,phase_1,,,,,,,,,,,,,orange,hexagon
30.0,1.0,0.5,0.0,3.0,3.0,313.5721990838647,1.0,1.0,phase_1,,,,,,,,,,,,,green,I
26.0,1.0,0.5,0.0,3.0,3.0,346.9517477788031,1.0,1.0,phase_1,,,,,,,,,,,,,green,I
116.0,2.0,1.0,0.0,3.0,3.0,310.6300011277199,1.0,1.0,phase_1,,,,,,,,,,,,,orange,hexagon
0.0,5.0,0.0,1.0,3.0,3.0,317.3331380821764,1.0,1.0,phase_1,,,,,,,,,,,,,yellow,triangle
49.0,1.0,0.5,0.0,4.0,4.0,290.4810830950737,1.0,1.0,phase_1,,,,,,,,,,,,,green,I
0.0,8.0,0.0,1.0,3.0,3.0,302.7466861531138,1.0,1.0,phase_1,,,,,,,,,,,,,cyan,cross
400.0,8.0,4.0,1.0,3.0,3.0,316.9413581490516,1.0,1.0,phase_1,,,,,,,,,,,,,cyan,cross
29.0,5.0,0.5,1.0,1.0,1.0,312.5856020487845,1.0,1.0,phase_1,,,,,,,,,,,,,yellow,triangle
57.0,5.0,0.5,1.0,3.0,3.0,292.8627026267349,1.0,1.0,phase_1,,,,,,,,,,,,,yellow,triangle
188.0,3.0,2.0,0.0,1.0,1.0,274.934368673712,1.0,1.0,phase_1,,,,,,,,,,,,,gray,diamond
397.0,4.0,4.0,0.0,2.0,2.0,244.5102808997035,1.0,1.0,phase_1,,,,,,,,,,,,,white,flipped triangle
56.0,5.0,0.5,1.0,1.0,1.0,291.6065170429647,1.0,1.0,phase_1,,,,,,,,,,,,,yellow,triangle
400.0,4.0,4.0,0.0,2.0,2.0,261.6593688726425,1.0,1.0,phase_1,,,,,,,,,,,,,white,flipped triangle
202.0,3.0,2.0,0.0,3.0,3.0,290.1932150125503,1.0,1.0,phase_1,,,,,,,,,,,,,gray,diamond
26.0,1.0,0.5,0.0,1.0,1.0,282.832698430866,1.0,1.0,phase_1,,,,,,,,,,,,,green,I
93.0,2.0,1.0,0.0,2.0,2.0,294.260541908443,1.0,1.0,phase_1,,,,,,,,,,,,,orange,hexagon
186.0,7.0,2.0,1.0,4.0,4.0,315.7760049216449,1.0,1.0,phase_1,,,,,,,,,,,,,blue,square
419.0,4.0,4.0,0.0,3.0,3.0,303.2601410523057,1.0,1.0,phase_1,,,,,,,,,,,,,white,flipped triangle
0.0,3.0,0.0,0.0,1.0,1.0,300.3568067215383,1.0,1.0,phase_1,,,,,,,,,,,,,gray,diamond
84.0,2.0,1.0,0.0,4.0,4.0,312.924066092819,1.0,1.0,phase_1,,,,,,,,,,,,,orange,hexagon
0.0,4.0,0.0,0.0,3.0,3.0,308.3132482133806,1.0,1.0,phase_1,,,,,,,,,,,,,white,flipped triangle
120.0,6.0,1.0,1.0,1.0,1.0,287.6064721494913,1.0,1.0,phase_1,,,,,,,,,,,,,magenta,circle
106.0,6.0,1.0,1.0,1.0,1.0,295.8231740631163,1.0,1.0,phase_1,,,,,,,,,,,,,magenta,circle
68.0,1.0,0.5,0.0,4.0,4.0,277.077869977802,1.0,1.0,phase_1,,,,,,,,,,,,,green,I
383.0,8.0,4.0,1.0,3.0,3.0,302.8422789648175,1.0,1.0,phase_1,,,,,,,,,,,,,cyan,cross
420.0,4.0,4.0,0.0,1.0,1.0,270.7837279886007,1.0,1.0,phase_1,,,,,,,,,,,,,white,flipped triangle
112.0,2.0,1.0,0.0,4.0,4.0,322.1283019520342,1.0,1.0,phase_1,,,,,,,,,,,,,orange,hexagon
202.0,7.0,2.0,1.0,4.0,4.0,551.0083171539009,1.0,1.0,phase_1,,,,,,,,,,,,,blue,square
57.0,1.0,0.5,0.0,2.0,2.0,338.432481046766,1.0,1.0,phase_1,,,,,,,,,,,,,green,I
388.0,8.0,4.0,1.0,2.0,2.0,292.8912504576146,1.0,1.0,phase_1,,,,,,,,,,,,,cyan,cross
416.0,8.0,4.0,1.0,3.0,3.0,301.4952470548451,1.0,1.0,phase_1,,,,,,,,,,,,,cyan,cross
0.0,2.0,0.0,0.0,1.0,1.0,306.7889302037656,1.0,1.0,phase_1,,,,,,,,,,,,,orange,hexagon
179.0,3.0,2.0,0.0,2.0,2.0,318.0296439677477,1.0,1.0,phase_1,,,,,,,,,,,,,gray,diamond
415.0,8.0,4.0,1.0,1.0,1.0,288.9861012808978,1.0,1.0,phase_1,,,,,,,,,,,,,cyan,cross
88.0,2.0,1.0,0.0,4.0,4.0,321.1559909395873,1.0,1.0,phase_1,,,,,,,,,,,,,orange,hexagon
93.0,6.0,1.0,1.0,2.0,2.0,258.9969951659441,1.0,1.0,phase_1,,,,,,,,,,,,,magenta,circle
33.0,5.0,0.5,1.0,1.0,1.0,270.9285477176308,1.0,1.0,phase_1,,,,,,,,,,,,,yellow,triangle
220.0,3.0,2.0,0.0,2.0,2.0,270.145624410361,1.0,1.0,phase_1,,,,,,,,,,,,,gray,diamond
191.0,7.0,2.0,1.0,4.0,4.0,306.4267812296748,1.0,1.0,phase_1,,,,,,,,,,,,,blue,square
201.0,3.0,2.0,0.0,2.0,2.0,283.8120111264288,1.0,1.0,phase_1,,,,,,,,,,,,,gray,diamond
0.0,6.0,0.0,1.0,3.0,3.0,282.6824840158224,1.0,1.0,phase_1,,,,,,,,,,,,,magenta,circle
210.0,3.0,2.0,0.0,3.0,3.0,296.8987617641687,1.0,1.0,phase_1,,,,,,,,,,,,,gray,diamond
111.0,6.0,1.0,1.0,2.0,2.0,334.2223558574915,1.0,1.0,phase_1,,,,,,,,,,,,,magenta,circle
0.0,5.0,0.0,1.0,4.0,4.0,274.6883770450949,1.0,1.0,phase_1,,,,,,,,,,,,,yellow,triangle
95.0,2.0,1.0,0.0,1.0,1.0,251.5633539296686,1.0,1.0,phase_1,,,,,,,,,,,,,orange,hexagon
78.0,6.0,1.0,1.0,3.0,3.0,289.3032729625702,1.0,1.0,phase_1,,,,,,,,,,,,,magenta,circle
0.0,7.0,0.0,1.0,1.0,1.0,277.9196142219007,1.0,1.0,phase_1,,,,,,,,,,,,,blue,square
113.0,2.0,1.0,0.0,1.0,1.0,282.4512189254164,1.0,1.0,phase_1,,,,,,,,,,,,,orange,hexagon
0.0,4.0,0.0,0.0,2.0,2.0,321.7510930262506,1.0,1.0,phase_1,,,,,,,,,,,,,white,flipped triangle
99.0,6.0,1.0,1.0,3.0,3.0,283.4960273467004,1.0,1.0,phase_1,,,,,,,,,,,,,magenta,circle
0.0,6.0,0.0,1.0,1.0,1.0,246.9095988199114,1.0,1.0,phase_1,,,,,,,,,,,,,magenta,circle
69.0,1.0,0.5,0.0,4.0,4.0,280.3517677821219,1.0,1.0,phase_1,,,,,,,,,,,,,green,I
40.0,1.0,0.5,0.0,2.0,2.0,296.8660402111709,1.0,1.0,phase_1,,,,,,,,,,,,,green,I
43.0,1.0,0.5,0.0,4.0,4.0,294.0186001360416,1.0,1.0,phase_1,,,,,,,,,,,,,green,I
81.0,6.0,1.0,1.0,4.0,4.0,306.5180648118257,1.0,1.0,phase_1,,,,,,,,,,,,,magenta,circle
0.0,8.0,0.0,1.0,2.0,2.0,255.24457590654492,1.0,1.0,phase_1,,,,,,,,,,,,,cyan,cross
107.0,2.0,1.0,0.0,4.0,4.0,219.9908113107085,1.0,1.0,phase_1,,,,,,,,,,,,,orange,hexagon
206.0,3.0,2.0,0.0,3.0,3.0,300.8283376693725,1.0,1.0,phase_1,,,,,,,,,,,,,gray,diamond
104.0,6.0,1.0,1.0,1.0,1.0,294.4319359958172,1.0,1.0,phase_1,,,,,,,,,,,,,magenta,circle
186.0,3.0,2.0,0.0,1.0,1.0,321.9454125501215,1.0,1.0,phase_1,,,,,,,,,,,,,gray,diamond
71.0,5.0,0.5,1.0,2.0,2.0,257.7629969455302,1.0,1.0,phase_1,,,,,,,,,,,,,yellow,triangle
86.0,2.0,1.0,0.0,3.0,3.0,278.1601096503436,1.0,1.0,phase_1,,,,,,,,,,,,,orange,hexagon
57.0,5.0,0.5,1.0,2.0,2.0,233.3135651424527,1.0,1.0,phase_1,,,,,,,,,,,,,yellow,triangle
215.0,3.0,2.0,0.0,2.0,2.0,277.8886542655527,1.0,1.0,phase_1,,,,,,,,,,,,,gray,diamond
91.0,6.0,1.0,1.0,2.0,2.0,299.9792248010635,1.0,1.0,phase_1,,,,,,,,,,,,,magenta,circle
0.0,1.0,0.0,0.0,4.0,4.0,288.8510101474821,1.0,1.0,phase_1,,,,,,,,,,,,,green,I
113.0,6.0,1.0,1.0,4.0,4.0,374.6920460835099,1.0,1.0,phase_1,,,,,,,,,,,,,magenta,circle
394.0,8.0,4.0,1.0,4.0,4.0,315.4377629980445,1.0,1.0,phase_1,,,,,,,,,,,,,cyan,cross
195.0,3.0,2.0,0.0,3.0,3.0,348.9215350709855,1.0,1.0,phase_1,,,,,,,,,,,,,gray,diamond
106.0,2.0,1.0,0.0,1.0,1.0,296.9359341077506,1.0,1.0,phase_1,,,,,,,,,,,,,orange,hexagon
400.0,8.0,4.0,1.0,3.0,3.0,293.5717022046447,1.0,1.0,phase_1,,,,,,,,,,,,,cyan,cross
116.0,6.0,1.0,1.0,2.0,2.0,277.4380557239055,1.0,1.0,phase_1,,,,,,,,,,,,,magenta,circle
91.0,6.0,1.0,1.0,4.0,4.0,262.7962590195238,1.0,1.0,phase_1,,,,,,,,,,,,,magenta,circle
224.0,7.0,2.0,1.0,3.0,3.0,350.73306504637,1.0,1.0,phase_1,,,,,,,,,,,,,blue,square
420.0,8.0,4.0,1.0,4.0,4.0,345.9394369274378,1.0,1.0,phase_1,,,,,,,,,,,,,cyan,cross
68.0,1.0,0.5,0.0,1.0,1.0,279.3646058999002,1.0,1.0,phase_1,,,,,,,,,,,,,green,I
0.0,4.0,0.0,0.0,4.0,4.0,275.3223832696676,1.0,1.0,phase_1,,,,,,,,,,,,,white,flipped triangle
396.0,8.0,4.0,1.0,3.0,3.0,328.5804144106805,1.0,1.0,phase_1,,,,,,,,,,,,,cyan,cross
397.0,8.0,4.0,1.0,1.0,1.0,267.4515717662871,1.0,1.0,phase_1,,,,,,,,,,,,,cyan,cross
0.0,7.0,0.0,1.0,2.0,2.0,322.4153299815953,1.0,1.0,phase_1,,,,,,,,,,,,,blue,square
45.0,5.0,0.5,1.0,1.0,1.0,288.517524022609,1.0,1.0,phase_1,,,,,,,,,,,,,yellow,triangle
0.0,8.0,0.0,1.0,4.0,4.0,301.0120987892151,1.0,1.0,phase_1,,,,,,,,,,,,,cyan,cross
0.0,1.0,0.0,0.0,2.0,2.0,271.8701758421957,1.0,1.0,phase_1,,,,,,,,,,,,,green,I
211.0,7.0,2.0,1.0,2.0,2.0,300.4498314112425,1.0,1.0,phase_1,,,,,,,,,,,,,blue,square
196.0,3.0,2.0,0.0,3.0,3.0,345.9014412946999,1.0,1.0,phase_1,,,,,,,,,,,,,gray,diamond
415.0,4.0,4.0,0.0,4.0,4.0,316.934407223016,1.0,1.0,phase_1,,,,,,,,,,,,,white,flipped triangle
99.0,6.0,1.0,1.0,3.0,3.0,336.7419969290495,1.0,1.0,phase_1,,,,,,,,,,,,,magenta,circle
409.0,8.0,4.0,1.0,2.0,2.0,263.1091750226915,1.0,1.0,phase_1,,,,,,,,,,,,,cyan,cross
192.0,3.0,2.0,0.0,2.0,2.0,260.0547121837735,1.0,1.0,phase_1,,,,,,,,,,,,,gray,diamond
112.0,6.0,1.0,1.0,1.0,1.0,262.8261451609432,1.0,1.0,phase_1,,,,,,,,,,,,,magenta,circle
35.0,5.0,0.5,1.0,4.0,4.0,279.3651418760419,1.0,1.0,phase_1,,,,,,,,,,,,,yellow,triangle
113.0,2.0,1.0,0.0,2.0,2.0,275.0822892412543,1.0,1.0,phase_1,,,,,,,,,,,,,orange,hexagon
379.0,4.0,4.0,0.0,2.0,2.0,285.9732247889042,1.0,1.0,phase_1,,,,,,,,,,,,,white,flipped triangle
37.0,5.0,0.5,1.0,3.0,3.0,292.1120505779981,1.0,1.0,phase_1,,,,,,,,,,,,,yellow,triangle
401.0,8.0,4.0,1.0,4.0,4.0,333.6211489513516,2.0,1.0,phase_1,,,,,,,,,,,,,cyan,cross
40.0,5.0,0.5,1.0,4.0,4.0,296.262685675174,2.0,1.0,phase_1,,,,,,,,,,,,,yellow,triangle
0.0,6.0,0.0,1.0,2.0,2.0,288.5572738014161,2.0,1.0,phase_1,,,,,,,,,,,,,magenta,circle
393.0,8.0,4.0,1.0,1.0,1.0,292.7137920632958,2.0,1.0,phase_1,,,,,,,,,,,,,cyan,cross
0.0,3.0,0.0,0.0,3.0,3.0,312.184848356992,2.0,1.0,phase_1,,,,,,,,,,,,,gray,diamond
212.0,3.0,2.0,0.0,4.0,4.0,293.9495588652789,2.0,1.0,phase_1,,,,,,,,,,,,,gray,diamond
74.0,5.0,0.5,1.0,4.0,4.0,329.5831251889467,2.0,1.0,phase_1,,,,,,,,,,,,,yellow,triangle
413.0,4.0,4.0,0.0,1.0,1.0,311.6358122788369,2.0,1.0,phase_1,,,,,,,,,,,,,white,flipped triangle
178.0,3.0,2.0,0.0,1.0,1.0,249.9716812744736,2.0,1.0,phase_1,,,,,,,,,,,,,gray,diamond
0.0,7.0,0.0,1.0,2.0,2.0,262.3792611993849,2.0,1.0,phase_1,,,,,,,,,,,,,blue,square
184.0,3.0,2.0,0.0,1.0,1.0,261.8669299408793,2.0,1.0,phase_1,,,,,,,,,,,,,gray,diamond
37.0,5.0,0.5,1.0,3.0,3.0,377.886432223022,2.0,1.0,phase_1,,,,,,,,,,,,,yellow,triangle
0.0,5.0,0.0,1.0,2.0,2.0,283.3127789199352,2.0,1.0,phase_1,,,,,,,,,,,,,yellow,triangle
105.0,6.0,1.0,1.0,2.0,2.0,251.23842293396592,2.0,1.0,phase_1,,,,,,,,,,,,,magenta,circle
0.0,4.0,0.0,0.0,2.0,2.0,341.5738609619438,2.0,1.0,phase_1,,,,,,,,,,,,,white,flipped triangle
91.0,2.0,1.0,0.0,1.0,1.0,274.1896458901465,2.0,1.0,phase_1,,,,,,,,,,,,,orange,hexagon
62.0,5.0,0.5,1.0,3.0,3.0,329.4221009127795,2.0,1.0,phase_1,,,,,,,,,,,,,yellow,triangle
0.0,6.0,0.0,1.0,1.0,1.0,311.2171189859509,2.0,1.0,phase_1,,,,,,,,,,,,,magenta,circle
215.0,7.0,2.0,1.0,2.0,2.0,250.760056078434,2.0,1.0,phase_1,,,,,,,,,,,,,blue,square
0.0,8.0,0.0,1.0,4.0,4.0,293.3318871073425,2.0,1.0,phase_1,,,,,,,,,,,,,cyan,cross
391.0,8.0,4.0,1.0,3.0,3.0,309.4756379723549,2.0,1.0,phase_1,,,,,,,,,,,,,cyan,cross
0.0,6.0,0.0,1.0,2.0,2.0,304.8338512890041,2.0,1.0,phase_1,,,,,,,,,,,,,magenta,circle
0.0,3.0,0.0,0.0,4.0,4.0,332.7529830858111,2.0,1.0,phase_1,,,,,,,,,,,,,gray,diamond
195.0,7.0,2.0,1.0,2.0,2.0,231.2919949181378,2.0,1.0,phase_1,,,,,,,,,,,,,blue,square
99.0,2.0,1.0,0.0,2.0,2.0,332.3099920526147,2.0,1.0,phase_1,,,,,,,,,,,,,orange,hexagon
0.0,8.0,0.0,1.0,2.0,2.0,324.337744154036,2.0,1.0,phase_1,,,,,,,,,,,,,cyan,cross
35.0,1.0,0.5,0.0,2.0,2.0,271.6105170547962,2.0,1.0,phase_1,,,,,,,,,,,,,green,I
72.0,5.0,0.5,1.0,1.0,1.0,300.9553770534694,2.0,1.0,phase_1,,,,,,,,,,,,,yellow,triangle
375.0,8.0,4.0,1.0,1.0,1.0,344.1387368366122,2.0,1.0,phase_1,,,,,,,,,,,,,cyan,cross
121.0,2.0,1.0,0.0,3.0,3.0,332.5114590115845,2.0,1.0,phase_1,,,,,,,,,,,,,orange,hexagon
425.0,8.0,4.0,1.0,4.0,4.0,304.8065300099551,2.0,1.0,phase_1,,,,,,,,,,,,,cyan,cross
179.0,7.0,2.0,1.0,3.0,3.0,302.4606881663203,2.0,1.0,phase_1,,,,,,,,,,,,,blue,square
400.0,4.0,4.0,0.0,1.0,1.0,322.1436929889023,2.0,1.0,phase_1,,,,,,,,,,,,,white,flipped triangle
398.0,8.0,4.0,1.0,4.0,4.0,334.3201680108905,2.0,1.0,phase_1,,,,,,,,,,,,,cyan,cross
408.0,8.0,4.0,1.0,2.0,2.0,285.970842000097,2.0,1.0,phase_1,,,,,,,,,,,,,cyan,cross
68.0,5.0,0.5,1.0,1.0,1.0,280.0884861499071,2.0,1.0,phase_1,,,,,,,,,,,,,yellow,triangle
29.0,1.0,0.5,0.0,2.0,2.0,284.2523450963199,2.0,1.0,phase_1,,,,,,,,,,,,,green,I
60.0,5.0,0.5,1.0,3.0,3.0,337.7473433502018,2.0,1.0,phase_1,,,,,,,,,,,,,yellow,triangle
0.0,6.0,0.0,1.0,2.0,2.0,263.7708936817944,2.0,1.0,phase_1,,,,,,,,,,,,,magenta,circle
210.0,7.0,2.0,1.0,2.0,2.0,242.7620938979089,2.0,1.0,phase_1,,,,,,,,,,,,,blue,square
178.0,7.0,2.0,1.0,1.0,1.0,313.5847020894289,2.0,1.0,phase_1,,,,,,,,,,,,,blue,square
0.0,4.0,0.0,0.0,4.0,4.0,327.1865411661565,2.0,1.0,phase_1,,,,,,,,,,,,,white,flipped triangle
416.0,4.0,4.0,0.0,2.0,2.0,290.5263784341514,2.0,1.0,phase_1,,,,,,,,,,,,,white,flipped triangle
39.0,5.0,0.5,1.0,3.0,3.0,304.9327870830893,2.0,1.0,phase_1,,,,,,,,,,,,,yellow,triangle
400.0,4.0,4.0,0.0,3.0,3.0,316.6969520971179,2.0,1.0,phase_1,,,,,,,,,,,,,white,flipped triangle
41.0,1.0,0.5,0.0,2.0,2.0,287.0867876335978,2.0,1.0,phase_1,,,,,,,,,,,,,green,I
99.0,2.0,1.0,0.0,1.0,1.0,262.7856181934476,2.0,1.0,phase_1,,,,,,,,,,,,,orange,hexagon
209.0,7.0,2.0,1.0,1.0,1.0,336.1394749954343,2.0,1.0,phase_1,,,,,,,,,,,,,blue,square
0.0,5.0,0.0,1.0,4.0,4.0,316.6344752535224,2.0,1.0,phase_1,,,,,,,,,,,,,yellow,triangle
0.0,3.0,0.0,0.0,1.0,1.0,337.0247413404286,2.0,1.0,phase_1,,,,,,,,,,,,,gray,diamond
405.0,8.0,4.0,1.0,2.0,2.0,263.5010620579123,2.0,1.0,phase_1,,,,,,,,,,,,,cyan,cross
0.0,7.0,0.0,1.0,2.0,2.0,282.4279381893575,2.0,1.0,phase_1,,,,,,,,,,,,,blue,square
74.0,1.0,0.5,0.0,2.0,2.0,311.1508297733962,2.0,1.0,phase_1,,,,,,,,,,,,,green,I
178.0,7.0,2.0,1.0,1.0,1.0,295.4122251830995,2.0,1.0,phase_1,,,,,,,,,,,,,blue,square
422.0,8.0,4.0,1.0,4.0,4.0,291.0561449825763,2.0,1.0,phase_1,,,,,,,,,,,,,cyan,cross
205.0,3.0,2.0,0.0,1.0,1.0,279.4743399135768,2.0,1.0,phase_1,,,,,,,,,,,,,gray,diamond
224.0,3.0,2.0,0.0,3.0,3.0,342.2074359841645,2.0,1.0,phase_1,,,,,,,,,,,,,gray,diamond
46.0,1.0,0.5,0.0,2.0,2.0,279.301973991096,2.0,1.0,phase_1,,,,,,,,,,,,,green,I
26.0,1.0,0.5,0.0,3.0,3.0,315.4093641787767,2.0,1.0,phase_1,,,,,,,,,,,,,green,I
0.0,7.0,0.0,1.0,3.0,3.0,361.9286608882248,2.0,1.0,phase_1,,,,,,,,,,,,,blue,square
40.0,1.0,0.5,0.0,1.0,1.0,295.6130737438798,2.0,1.0,phase_1,,,,,,,,,,,,,green,I
376.0,4.0,4.0,0.0,3.0,3.0,322.9409856721759,2.0,1.0,phase_1,,,,,,,,,,,,,white,flipped triangle
102.0,6.0,1.0,1.0,1.0,1.0,303.6999059841037,2.0,1.0,phase_1,,,,,,,,,,,,,magenta,circle
0.0,1.0,0.0,0.0,1.0,1.0,290.7323292456567,2.0,1.0,phase_1,,,,,,,,,,,,,green,I
409.0,4.0,4.0,0.0,4.0,4.0,299.1965762339532,2.0,1.0,phase_1,,,,,,,,,,,,,white,flipped triangle
205.0,7.0,2.0,1.0,2.0,2.0,263.2175977341831,2.0,1.0,phase_1,,,,,,,,,,,,,blue,square
41.0,5.0,0.5,1.0,1.0,1.0,353.7706541828811,2.0,1.0,phase_1,,,,,,,,,,,,,yellow,triangle
187.0,7.0,2.0,1.0,3.0,3.0,312.1871459297836,2.0,1.0,phase_1,,,,,,,,,,,,,blue,square
409.0,4.0,4.0,0.0,3.0,3.0,300.830191001296,2.0,1.0,phase_1,,,,,,,,,,,,,white,flipped triangle
84.0,6.0,1.0,1.0,4.0,4.0,279.2427451349795,2.0,1.0,phase_1,,,,,,,,,,,,,magenta,circle
78.0,2.0,1.0,0.0,2.0,2.0,275.5919890478253,2.0,1.0,phase_1,,,,,,,,,,,,,orange,hexagon
39.0,1.0,0.5,0.0,3.0,3.0,304.2270704172551,2.0,1.0,phase_1,,,,,,,,,,,,,green,I
396.0,8.0,4.0,1.0,2.0,2.0,284.4133428297937,2.0,1.0,phase_1,,,,,,,,,,,,,cyan,cross
113.0,6.0,1.0,1.0,1.0,1.0,316.0275379195809,2.0,1.0,phase_1,,,,,,,,,,,,,magenta,circle
84.0,6.0,1.0,1.0,2.0,2.0,262.0737417601049,2.0,1.0,phase_1,,,,,,,,,,,,,magenta,circle
0.0,1.0,0.0,0.0,2.0,2.0,299.4620460085571,2.0,1.0,phase_1,,,,,,,,,,,,,green,I
0.0,3.0,0.0,0.0,1.0,1.0,312.60866811499,2.0,1.0,phase_1,,,,,,,,,,,,,gray,diamond
215.0,7.0,2.0,1.0,3.0,3.0,264.00056714192027,2.0,1.0,phase_1,,,,,,,,,,,,,blue,square
93.0,2.0,1.0,0.0,3.0,3.0,323.2575072906911,2.0,1.0,phase_1,,,,,,,,,,,,,orange,hexagon
0.0,6.0,0.0,1.0,4.0,4.0,390.7431848347187,2.0,1.0,phase_1,,,,,,,,,,,,,magenta,circle
0.0,3.0,0.0,0.0,1.0,1.0,365.5224256217479,2.0,1.0,phase_1,,,,,,,,,,,,,gray,diamond
201.0,7.0,2.0,1.0,2.0,2.0,321.03016320616,2.0,1.0,phase_1,,,,,,,,,,,,,blue,square
0.0,1.0,0.0,0.0,3.0,3.0,284.2995240353048,2.0,1.0,phase_1,,,,,,,,,,,,,green,I
39.0,5.0,0.5,1.0,4.0,4.0,370.9148787893355,2.0,1.0,phase_1,,,,,,,,,,,,,yellow,triangle
400.0,8.0,4.0,1.0,2.0,2.0,295.8099069073796,2.0,1.0,phase_1,,,,,,,,,,,,,cyan,cross
28.0,1.0,0.5,0.0,4.0,4.0,306.8279046565294,2.0,1.0,phase_1,,,,,,,,,,,,,green,I
413.0,8.0,4.0,1.0,3.0,3.0,295.1099057681858,2.0,1.0,phase_1,,,,,,,,,,,,,cyan,cross
121.0,6.0,1.0,1.0,4.0,4.0,292.2554211691022,2.0,1.0,phase_1,,,,,,,,,,,,,magenta,circle
192.0,7.0,2.0,1.0,1.0,1.0,312.7835602499544,2.0,1.0,phase_1,,,,,,,,,,,,,blue,square
415.0,8.0,4.0,1.0,1.0,1.0,277.4597322568297,2.0,1.0,phase_1,,,,,,,,,,,,,cyan,cross
204.0,7.0,2.0,1.0,2.0,2.0,266.21451508253807,2.0,1.0,phase_1,,,,,,,,,,,,,blue,square
424.0,4.0,4.0,0.0,1.0,1.0,333.6230488494038,2.0,1.0,phase_1,,,,,,,,,,,,,white,flipped triangle
63.0,1.0,0.5,0.0,1.0,1.0,357.6257019303739,2.0,1.0,phase_1,,,,,,,,,,,,,green,I
424.0,8.0,4.0,1.0,4.0,4.0,328.090884257108,2.0,1.0,phase_1,,,,,,,,,,,,,cyan,cross
0.0,2.0,0.0,0.0,4.0,4.0,304.2045058682561,2.0,1.0,phase_1,,,,,,,,,,,,,orange,hexagon
48.0,1.0,0.5,0.0,3.0,3.0,337.2701089829206,2.0,1.0,phase_1,,,,,,,,,,,,,green,I
198.0,7.0,2.0,1.0,3.0,3.0,321.6398521326482,2.0,1.0,phase_1,,,,,,,,,,,,,blue,square
106.0,2.0,1.0,0.0,3.0,3.0,325.6693999283016,2.0,1.0,phase_1,,,,,,,,,,,,,orange,hexagon
414.0,8.0,4.0,1.0,3.0,3.0,311.9531949050724,2.0,1.0,phase_1,,,,,,,,,,,,,cyan,cross
104.0,2.0,1.0,0.0,3.0,3.0,291.5632738731801,2.0,1.0,phase_1,,,,,,,,,,,,,orange,hexagon
39.0,1.0,0.5,0.0,1.0,1.0,350.1988351345062,3.0,1.0,phase_1,,,,,,,,,,,,,green,I
195.0,3.0,2.0,0.0,4.0,4.0,307.9402921721339,3.0,1.0,phase_1,,,,,,,,,,,,,gray,diamond
178.0,3.0,2.0,0.0,2.0,2.0,256.6637662239373,3.0,1.0,phase_1,,,,,,,,,,,,,gray,diamond
73.0,1.0,0.5,0.0,2.0,2.0,268.6021509580314,3.0,1.0,phase_1,,,,,,,,,,,,,green,I
185.0,7.0,2.0,1.0,4.0,4.0,259.8058357834816,3.0,1.0,phase_1,,,,,,,,,,,,,blue,square
0.0,1.0,0.0,0.0,3.0,3.0,297.2626201808452,3.0,1.0,phase_1,,,,,,,,,,,,,green,I
381.0,4.0,4.0,0.0,1.0,1.0,292.7391421981156,3.0,1.0,phase_1,,,,,,,,,,,,,white,flipped triangle
203.0,7.0,2.0,1.0,1.0,1.0,278.7463660351932,3.0,1.0,phase_1,,,,,,,,,,,,,blue,square
200.0,7.0,2.0,1.0,4.0,4.0,324.8834679834544,3.0,1.0,phase_1,,,,,,,,,,,,,blue,square
414.0,8.0,4.0,1.0,1.0,1.0,275.2589830197394,3.0,1.0,phase_1,,,,,,,,,,,,,cyan,cross
205.0,3.0,2.0,0.0,4.0,4.0,300.5676339380443,3.0,1.0,phase_1,,,,,,,,,,,,,gray,diamond
44.0,1.0,0.5,0.0,2.0,2.0,276.143857743591,3.0,1.0,phase_1,,,,,,,,,,,,,green,I
188.0,7.0,2.0,1.0,1.0,1.0,289.5341077819466,3.0,1.0,phase_1,,,,,,,,,,,,,blue,square
68.0,5.0,0.5,1.0,4.0,4.0,291.5671709924936,3.0,1.0,phase_1,,,,,,,,,,,,,yellow,triangle
116.0,2.0,1.0,0.0,4.0,4.0,258.6359931156039,3.0,1.0,phase_1,,,,,,,,,,,,,orange,hexagon
390.0,4.0,4.0,0.0,3.0,3.0,310.2155840024352,3.0,1.0,phase_1,,,,,,,,,,,,,white,flipped triangle
0.0,5.0,0.0,1.0,4.0,4.0,288.4303154423833,3.0,1.0,phase_1,,,,,,,,,,,,,yellow,triangle
106.0,6.0,1.0,1.0,3.0,3.0,317.5669857300818,3.0,1.0,phase_1,,,,,,,,,,,,,magenta,circle
0.0,5.0,0.0,1.0,1.0,1.0,292.7296478301286,3.0,1.0,phase_1,,,,,,,,,,,,,yellow,triangle
104.0,2.0,1.0,0.0,2.0,2.0,270.8229357376694,3.0,1.0,phase_1,,,,,,,,,,,,,orange,hexagon
37.0,1.0,0.5,0.0,3.0,3.0,283.4605048410594,3.0,1.0,phase_1,,,,,,,,,,,,,green,I
193.0,3.0,2.0,0.0,4.0,4.0,362.3305479995906,3.0,1.0,phase_1,,,,,,,,,,,,,gray,diamond
69.0,1.0,0.5,0.0,1.0,1.0,308.8504369370639,3.0,1.0,phase_1,,,,,,,,,,,,,green,I
391.0,8.0,4.0,1.0,1.0,1.0,283.8254221715033,3.0,1.0,phase_1,,,,,,,,,,,,,cyan,cross
192.0,7.0,2.0,1.0,2.0,2.0,327.3936780169606,3.0,1.0,phase_1,,,,,,,,,,,,,blue,square
0.0,1.0,0.0,0.0,4.0,4.0,325.2311898395419,3.0,1.0,phase_1,,,,,,,,,,,,,green,I
69.0,5.0,0.5,1.0,4.0,4.0,337.3118601739406,3.0,1.0,phase_1,,,,,,,,,,,,,yellow,triangle
188.0,7.0,2.0,1.0,4.0,4.0,284.0994182042777,3.0,1.0,phase_1,,,,,,,,,,,,,blue,square
117.0,6.0,1.0,1.0,2.0,2.0,275.9576346725225,3.0,1.0,phase_1,,,,,,,,,,,,,magenta,circle
425.0,4.0,4.0,0.0,3.0,3.0,271.7443029396236,3.0,1.0,phase_1,,,,,,,,,,,,,white,flipped triangle
409.0,8.0,4.0,1.0,1.0,1.0,361.9925123639405,3.0,1.0,phase_1,,,,,,,,,,,,,cyan,cross
44.0,5.0,0.5,1.0,3.0,3.0,302.5747509673238,3.0,1.0,phase_1,,,,,,,,,,,,,yellow,triangle
0.0,1.0,0.0,0.0,1.0,1.0,319.4657629355788,3.0,1.0,phase_1,,,,,,,,,,,,,green,I
69.0,5.0,0.5,1.0,1.0,1.0,323.2455998659134,3.0,1.0,phase_1,,,,,,,,,,,,,yellow,triangle
50.0,1.0,0.5,0.0,4.0,4.0,277.2214668802917,3.0,1.0,phase_1,,,,,,,,,,,,,green,I
0.0,3.0,0.0,0.0,4.0,4.0,258.35318909958,3.0,1.0,phase_1,,,,,,,,,,,,,gray,diamond
195.0,7.0,2.0,1.0,3.0,3.0,294.8548449203372,3.0,1.0,phase_1,,,,,,,,,,,,,blue,square
209.0,3.0,2.0,0.0,3.0,3.0,275.2118990756571,3.0,1.0,phase_1,,,,,,,,,,,,,gray,diamond
209.0,3.0,2.0,0.0,2.0,2.0,282.8506352379918,3.0,1.0,phase_1,,,,,,,,,,,,,gray,diamond
212.0,7.0,2.0,1.0,1.0,1.0,261.3967871293425,3.0,1.0,phase_1,,,,,,,,,,,,,blue,square
57.0,1.0,0.5,0.0,3.0,3.0,307.5179941952228,3.0,1.0,phase_1,,,,,,,,,,,,,green,I
99.0,2.0,1.0,0.0,2.0,2.0,278.516017831862,3.0,1.0,phase_1,,,,,,,,,,,,,orange,hexagon
40.0,5.0,0.5,1.0,1.0,1.0,283.501866273582,3.0,1.0,phase_1,,,,,,,,,,,,,yellow,triangle
0.0,2.0,0.0,0.0,1.0,1.0,311.8663299828768,3.0,1.0,phase_1,,,,,,,,,,,,,orange,hexagon
101.0,6.0,1.0,1.0,4.0,4.0,343.6157158575952,3.0,1.0,phase_1,,,,,,,,,,,,,magenta,circle
72.0,1.0,0.5,0.0,3.0,3.0,314.4302889704704,3.0,1.0,phase_1,,,,,,,,,,,,,green,I
379.0,8.0,4.0,1.0,3.0,3.0,289.0072362497449,3.0,1.0,phase_1,,,,,,,,,,,,,cyan,cross
116.0,2.0,1.0,0.0,3.0,3.0,292.7005481906235,3.0,1.0,phase_1,,,,,,,,,,,,,orange,hexagon
215.0,3.0,2.0,0.0,4.0,4.0,313.3339518681168,3.0,1.0,phase_1,,,,,,,,,,,,,gray,diamond
81.0,2.0,1.0,0.0,1.0,1.0,299.30863622576,3.0,1.0,phase_1,,,,,,,,,,,,,orange,hexagon
99.0,6.0,1.0,1.0,2.0,2.0,313.4930660016835,3.0,1.0,phase_1,,,,,,,,,,,,,magenta,circle
385.0,4.0,4.0,0.0,4.0,4.0,284.2767229303717,3.0,1.0,phase_1,,,,,,,,,,,,,white,flipped triangle
191.0,3.0,2.0,0.0,1.0,1.0,332.8410079702735,3.0,1.0,phase_1,,,,,,,,,,,,,gray,diamond
0.0,5.0,0.0,1.0,1.0,1.0,374.8023146763444,3.0,1.0,phase_1,,,,,,,,,,,,,yellow,triangle
0.0,6.0,0.0,1.0,2.0,2.0,293.6627501621842,3.0,1.0,phase_1,,,,,,,,,,,,,magenta,circle
44.0,1.0,0.5,0.0,4.0,4.0,346.2670259177685,3.0,1.0,phase_1,,,,,,,,,,,,,green,I
206.0,7.0,2.0,1.0,3.0,3.0,316.1836969666183,3.0,1.0,phase_1,,,,,,,,,,,,,blue,square
389.0,4.0,4.0,0.0,3.0,3.0,290.0452311150729,3.0,1.0,phase_1,,,,,,,,,,,,,white,flipped triangle
198.0,3.0,2.0,0.0,4.0,4.0,296.3578579947352,3.0,1.0,phase_1,,,,,,,,,,,,,gray,diamond
71.0,1.0,0.5,0.0,4.0,4.0,349.211344961077,3.0,1.0,phase_1,,,,,,,,,,,,,green,I
395.0,8.0,4.0,1.0,2.0,2.0,320.7735633477568,3.0,1.0,phase_1,,,,,,,,,,,,,cyan,cross
0.0,4.0,0.0,0.0,4.0,4.0,294.563191011548,3.0,1.0,phase_1,,,,,,,,,,,,,white,flipped triangle
401.0,4.0,4.0,0.0,4.0,4.0,291.7795008979738,3.0,1.0,phase_1,,,,,,,,,,,,,white,flipped triangle
415.0,4.0,4.0,0.0,2.0,2.0,285.2659807540476,3.0,1.0,phase_1,,,,,,,,,,,,,white,flipped triangle
0.0,7.0,0.0,1.0,3.0,3.0,283.8002019561827,3.0,1.0,phase_1,,,,,,,,,,,,,blue,square
0.0,7.0,0.0,1.0,2.0,2.0,279.975117649883,3.0,1.0,phase_1,,,,,,,,,,,,,blue,square
104.0,6.0,1.0,1.0,1.0,1.0,299.0974900312722,3.0,1.0,phase_1,,,,,,,,,,,,,magenta,circle
192.0,3.0,2.0,0.0,1.0,1.0,303.5069392062723,3.0,1.0,phase_1,,,,,,,,,,,,,gray,diamond
50.0,5.0,0.5,1.0,2.0,2.0,278.6844209767878,3.0,1.0,phase_1,,,,,,,,,,,,,yellow,triangle
389.0,8.0,4.0,1.0,4.0,4.0,340.9863831475377,3.0,1.0,phase_1,,,,,,,,,,,,,cyan,cross
107.0,6.0,1.0,1.0,1.0,1.0,304.8349567689001,3.0,1.0,phase_1,,,,,,,,,,,,,magenta,circle
184.0,7.0,2.0,1.0,4.0,4.0,308.9806460775435,3.0,1.0,phase_1,,,,,,,,,,,,,blue,square
218.0,7.0,2.0,1.0,4.0,4.0,362.1583939529955,3.0,1.0,phase_1,,,,,,,,,,,,,blue,square
117.0,2.0,1.0,0.0,1.0,1.0,317.3448611050844,3.0,1.0,phase_1,,,,,,,,,,,,,orange,hexagon
0.0,2.0,0.0,0.0,2.0,2.0,283.3333639428019,3.0,1.0,phase_1,,,,,,,,,,,,,orange,hexagon
393.0,4.0,4.0,0.0,4.0,4.0,287.2458677738905,3.0,1.0,phase_1,,,,,,,,,,,,,white,flipped triangle
120.0,2.0,1.0,0.0,4.0,4.0,298.0219642631709,3.0,1.0,phase_1,,,,,,,,,,,,,orange,hexagon
81.0,2.0,1.0,0.0,3.0,3.0,415.5221418477595,3.0,1.0,phase_1,,,,,,,,,,,,,orange,hexagon
66.0,1.0,0.5,0.0,1.0,1.0,307.5400381349027,3.0,1.0,phase_1,,,,,,,,,,,,,green,I
0.0,6.0,0.0,1.0,4.0,4.0,311.7623389698565,3.0,1.0,phase_1,,,,,,,,,,,,,magenta,circle
391.0,4.0,4.0,0.0,2.0,2.0,414.8380872793495,3.0,1.0,phase_1,,,,,,,,,,,,,white,flipped triangle
195.0,3.0,2.0,0.0,3.0,3.0,298.3079231344163,3.0,1.0,phase_1,,,,,,,,,,,,,gray,diamond
95.0,6.0,1.0,1.0,1.0,1.0,320.8107412792742,3.0,1.0,phase_1,,,,,,,,,,,,,magenta,circle
0.0,8.0,0.0,1.0,3.0,3.0,276.3634882867336,3.0,1.0,phase_1,,,,,,,,,,,,,cyan,cross
0.0,8.0,0.0,1.0,3.0,3.0,295.1036407612264,3.0,1.0,phase_1,,,,,,,,,,,,,cyan,cross
30.0,5.0,0.5,1.0,3.0,3.0,283.7660061195493,3.0,1.0,phase_1,,,,,,,,,,,,,yellow,triangle
46.0,5.0,0.5,1.0,4.0,4.0,294.3844893015921,3.0,2.0,phase_1,,,,,,,,,,,,,yellow,triangle
408.0,4.0,4.0,0.0,4.0,4.0,357.2637299075722,3.0,1.0,phase_1,,,,,,,,,,,,,white,flipped triangle
211.0,3.0,2.0,0.0,2.0,2.0,313.1732959300279,3.0,1.0,phase_1,,,,,,,,,,,,,gray,diamond
105.0,2.0,1.0,0.0,4.0,4.0,318.7602669931948,3.0,1.0,phase_1,,,,,,,,,,,,,orange,hexagon
52.0,5.0,0.5,1.0,3.0,3.0,275.1422449946403,3.0,1.0,phase_1,,,,,,,,,,,,,yellow,triangle
26.0,5.0,0.5,1.0,2.0,2.0,287.8485107794404,3.0,1.0,phase_1,,,,,,,,,,,,,yellow,triangle
388.0,4.0,4.0,0.0,4.0,4.0,307.1737322025001,3.0,1.0,phase_1,,,,,,,,,,,,,white,flipped triangle
0.0,2.0,0.0,0.0,3.0,3.0,312.0587980374694,3.0,1.0,phase_1,,,,,,,,,,,,,orange,hexagon
62.0,1.0,0.5,0.0,4.0,4.0,262.8920790739357,3.0,1.0,phase_1,,,,,,,,,,,,,green,I
37.0,1.0,0.5,0.0,3.0,3.0,320.5405580811202,3.0,1.0,phase_1,,,,,,,,,,,,,green,I
204.0,3.0,2.0,0.0,4.0,4.0,324.7558581642806,3.0,1.0,phase_1,,,,,,,,,,,,,gray,diamond
197.0,7.0,2.0,1.0,3.0,3.0,360.9790219925344,3.0,1.0,phase_1,,,,,,,,,,,,,blue,square
414.0,4.0,4.0,0.0,2.0,2.0,279.3983970768749,3.0,1.0,phase_1,,,,,,,,,,,,,white,flipped triangle
0.0,7.0,0.0,1.0,2.0,2.0,274.6059610508382,3.0,1.0,phase_1,,,,,,,,,,,,,blue,square
394.0,4.0,4.0,0.0,4.0,4.0,417.0138230547309,4.0,1.0,phase_1,,,,,,,,,,,,,white,flipped triangle
178.0,3.0,2.0,0.0,1.0,1.0,333.8072150945663,4.0,1.0,phase_1,,,,,,,,,,,,,gray,diamond
99.0,6.0,1.0,1.0,3.0,3.0,308.974543120712,4.0,1.0,phase_1,,,,,,,,,,,,,magenta,circle
0.0,3.0,0.0,0.0,4.0,4.0,295.5086980946362,4.0,1.0,phase_1,,,,,,,,,,,,,gray,diamond
89.0,6.0,1.0,1.0,3.0,3.0,269.7103759273886,4.0,1.0,phase_1,,,,,,,,,,,,,magenta,circle
0.0,5.0,0.0,1.0,1.0,1.0,282.6792220585048,4.0,1.0,phase_1,,,,,,,,,,,,,yellow,triangle
102.0,6.0,1.0,1.0,3.0,3.0,319.9882926419377,4.0,1.0,phase_1,,,,,,,,,,,,,magenta,circle
86.0,6.0,1.0,1.0,2.0,2.0,291.935577057302,4.0,1.0,phase_1,,,,,,,,,,,,,magenta,circle
193.0,7.0,2.0,1.0,4.0,4.0,350.3343621268868,4.0,1.0,phase_1,,,,,,,,,,,,,blue,square
91.0,2.0,1.0,0.0,1.0,1.0,300.1427040435374,4.0,1.0,phase_1,,,,,,,,,,,,,orange,hexagon
200.0,3.0,2.0,0.0,3.0,3.0,283.3941611461341,4.0,1.0,phase_1,,,,,,,,,,,,,gray,diamond
0.0,5.0,0.0,1.0,4.0,4.0,341.4481631480157,4.0,1.0,phase_1,,,,,,,,,,,,,yellow,triangle
84.0,2.0,1.0,0.0,4.0,4.0,313.2396047003567,4.0,1.0,phase_1,,,,,,,,,,,,,orange,hexagon
185.0,3.0,2.0,0.0,2.0,2.0,248.6518668010831,4.0,1.0,phase_1,,,,,,,,,,,,,gray,diamond
0.0,1.0,0.0,0.0,1.0,1.0,267.2546128742397,4.0,1.0,phase_1,,,,,,,,,,,,,green,I
100.0,6.0,1.0,1.0,1.0,1.0,305.1551477983594,4.0,1.0,phase_1,,,,,,,,,,,,,magenta,circle
383.0,4.0,4.0,0.0,1.0,1.0,251.59324891865248,4.0,1.0,phase_1,,,,,,,,,,,,,white,flipped triangle
215.0,7.0,2.0,1.0,1.0,1.0,288.5200879536569,4.0,1.0,phase_1,,,,,,,,,,,,,blue,square
413.0,8.0,4.0,1.0,1.0,1.0,359.1616530902684,4.0,1.0,phase_1,,,,,,,,,,,,,cyan,cross
69.0,1.0,0.5,0.0,2.0,2.0,250.5117417313158,4.0,1.0,phase_1,,,,,,,,,,,,,green,I
0.0,2.0,0.0,0.0,3.0,3.0,320.8301849663257,4.0,1.0,phase_1,,,,,,,,,,,,,orange,hexagon
33.0,1.0,0.5,0.0,3.0,3.0,293.5131969861686,4.0,1.0,phase_1,,,,,,,,,,,,,green,I
398.0,4.0,4.0,0.0,4.0,4.0,312.9268093034625,4.0,1.0,phase_1,,,,,,,,,,,,,white,flipped triangle
0.0,2.0,0.0,0.0,4.0,4.0,295.7249409519136,4.0,1.0,phase_1,,,,,,,,,,,,,orange,hexagon
376.0,8.0,4.0,1.0,4.0,4.0,267.5051521509886,4.0,1.0,phase_1,,,,,,,,,,,,,cyan,cross
44.0,5.0,0.5,1.0,4.0,4.0,271.6253497637808,4.0,1.0,phase_1,,,,,,,,,,,,,yellow,triangle
414.0,4.0,4.0,0.0,1.0,1.0,284.8731470294297,4.0,1.0,phase_1,,,,,,,,,,,,,white,flipped triangle
101.0,2.0,1.0,0.0,2.0,2.0,242.6045960746705,4.0,1.0,phase_1,,,,,,,,,,,,,orange,hexagon
0.0,4.0,0.0,0.0,3.0,3.0,292.0467988587916,4.0,1.0,phase_1,,,,,,,,,,,,,white,flipped triangle
0.0,4.0,0.0,0.0,2.0,2.0,283.689621835947,4.0,1.0,phase_1,,,,,,,,,,,,,white,flipped triangle
422.0,4.0,4.0,0.0,1.0,1.0,261.7314239032566,4.0,1.0,phase_1,,,,,,,,,,,,,white,flipped triangle
205.0,7.0,2.0,1.0,3.0,3.0,300.4944231361151,4.0,1.0,phase_1,,,,,,,,,,,,,blue,square
60.0,1.0,0.5,0.0,1.0,1.0,288.2890319451689,4.0,1.0,phase_1,,,,,,,,,,,,,green,I
111.0,2.0,1.0,0.0,1.0,1.0,291.4472259581089,4.0,1.0,phase_1,,,,,,,,,,,,,orange,hexagon
0.0,2.0,0.0,0.0,1.0,1.0,288.2801122032106,4.0,1.0,phase_1,,,,,,,,,,,,,orange,hexagon
48.0,5.0,0.5,1.0,2.0,2.0,247.7844599634409,4.0,1.0,phase_1,,,,,,,,,,,,,yellow,triangle
380.0,8.0,4.0,1.0,3.0,3.0,307.9374190419912,4.0,1.0,phase_1,,,,,,,,,,,,,cyan,cross
385.0,8.0,4.0,1.0,2.0,2.0,271.3574697263539,4.0,1.0,phase_1,,,,,,,,,,,,,cyan,cross
196.0,7.0,2.0,1.0,2.0,2.0,266.5472412481904,4.0,1.0,phase_1,,,,,,,,,,,,,blue,square
0.0,3.0,0.0,0.0,4.0,4.0,353.0856962315738,4.0,1.0,phase_1,,,,,,,,,,,,,gray,diamond
63.0,5.0,0.5,1.0,2.0,2.0,264.6064809523523,4.0,1.0,phase_1,,,,,,,,,,,,,yellow,triangle
383.0,4.0,4.0,0.0,2.0,2.0,276.1386521160602,4.0,1.0,phase_1,,,,,,,,,,,,,white,flipped triangle
78.0,6.0,1.0,1.0,3.0,3.0,321.6271260753274,4.0,1.0,phase_1,,,,,,,,,,,,,magenta,circle
0.0,8.0,0.0,1.0,3.0,3.0,275.0711613334715,4.0,1.0,phase_1,,,,,,,,,,,,,cyan,cross
123.0,2.0,1.0,0.0,3.0,3.0,238.7124700471758,4.0,1.0,phase_1,,,,,,,,,,,,,orange,hexagon
66.0,5.0,0.5,1.0,4.0,4.0,309.603061992675,4.0,1.0,phase_1,,,,,,,,,,,,,yellow,triangle
116.0,6.0,1.0,1.0,4.0,4.0,266.4841022342443,4.0,1.0,phase_1,,,,,,,,,,,,,magenta,circle
0.0,7.0,0.0,1.0,2.0,2.0,287.0828039012849,4.0,1.0,phase_1,,,,,,,,,,,,,blue,square
0.0,8.0,0.0,1.0,2.0,2.0,258.3976597525179,4.0,1.0,phase_1,,,,,,,,,,,,,cyan,cross
100.0,2.0,1.0,0.0,3.0,3.0,304.8963719047606,4.0,1.0,phase_1,,,,,,,,,,,,,orange,hexagon
0.0,1.0,0.0,0.0,1.0,1.0,283.3904018625617,4.0,1.0,phase_1,,,,,,,,,,,,,green,I
56.0,1.0,0.5,0.0,4.0,4.0,314.4129272550344,4.0,1.0,phase_1,,,,,,,,,,,,,green,I
93.0,6.0,1.0,1.0,4.0,4.0,296.6420240700245,4.0,1.0,phase_1,,,,,,,,,,,,,magenta,circle
0.0,2.0,0.0,0.0,2.0,2.0,288.8769609853625,4.0,1.0,phase_1,,,,,,,,,,,,,orange,hexagon
99.0,2.0,1.0,0.0,4.0,4.0,326.7425498925149,4.0,1.0,phase_1,,,,,,,,,,,,,orange,hexagon
43.0,5.0,0.5,1.0,2.0,2.0,284.3555412255227,4.0,1.0,phase_1,,,,,,,,,,,,,yellow,triangle
78.0,2.0,1.0,0.0,1.0,1.0,336.7510810494423,4.0,1.0,phase_1,,,,,,,,,,,,,orange,hexagon
28.0,5.0,0.5,1.0,2.0,2.0,371.6487232595682,4.0,1.0,phase_1,,,,,,,,,,,,,yellow,triangle
396.0,4.0,4.0,0.0,4.0,4.0,304.7265270724892,4.0,1.0,phase_1,,,,,,,,,,,,,white,flipped triangle
116.0,6.0,1.0,1.0,3.0,3.0,303.4431780688464,4.0,1.0,phase_1,,,,,,,,,,,,,magenta,circle
0.0,3.0,0.0,0.0,1.0,1.0,307.8219569288194,4.0,1.0,phase_1,,,,,,,,,,,,,gray,diamond
69.0,5.0,0.5,1.0,4.0,4.0,359.3268226832151,4.0,1.0,phase_1,,,,,,,,,,,,,yellow,triangle
0.0,4.0,0.0,0.0,2.0,2.0,270.8526588976383,4.0,1.0,phase_1,,,,,,,,,,,,,white,flipped triangle
419.0,8.0,4.0,1.0,4.0,4.0,279.8159960657358,4.0,1.0,phase_1,,,,,,,,,,,,,cyan,cross
81.0,6.0,1.0,1.0,4.0,4.0,342.9480539634824,4.0,1.0,phase_1,,,,,,,,,,,,,magenta,circle
0.0,7.0,0.0,1.0,2.0,2.0,259.2083550989628,4.0,1.0,phase_1,,,,,,,,,,,,,blue,square
413.0,4.0,4.0,0.0,3.0,3.0,278.8002849556505,4.0,1.0,phase_1,,,,,,,,,,,,,white,flipped triangle
405.0,4.0,4.0,0.0,3.0,3.0,284.4524271786213,4.0,1.0,phase_1,,,,,,,,,,,,,white,flipped triangle
391.0,4.0,4.0,0.0,3.0,3.0,323.4439720399678,4.0,1.0,phase_1,,,,,,,,,,,,,white,flipped triangle
0.0,8.0,0.0,1.0,1.0,1.0,316.6695912368595,4.0,1.0,phase_1,,,,,,,,,,,,,cyan,cross
93.0,6.0,1.0,1.0,2.0,2.0,276.1307889595628,4.0,1.0,phase_1,,,,,,,,,,,,,magenta,circle
102.0,2.0,1.0,0.0,2.0,2.0,269.0248540602624,4.0,1.0,phase_1,,,,,,,,,,,,,orange,hexagon
395.0,4.0,4.0,0.0,1.0,1.0,292.7807318046689,4.0,1.0,phase_1,,,,,,,,,,,,,white,flipped triangle
0.0,6.0,0.0,1.0,1.0,1.0,344.8027940467,4.0,1.0,phase_1,,,,,,,,,,,,,magenta,circle
26.0,5.0,0.5,1.0,1.0,1.0,268.4570029377937,4.0,1.0,phase_1,,,,,,,,,,,,,yellow,triangle
52.0,1.0,0.5,0.0,1.0,1.0,292.0806840993464,4.0,1.0,phase_1,,,,,,,,,,,,,green,I
88.0,6.0,1.0,1.0,4.0,4.0,280.1345670595765,4.0,1.0,phase_1,,,,,,,,,,,,,magenta,circle
197.0,3.0,2.0,0.0,4.0,4.0,324.7859110124409,4.0,1.0,phase_1,,,,,,,,,,,,,gray,diamond
203.0,3.0,2.0,0.0,4.0,4.0,330.382565036416,4.0,1.0,phase_1,,,,,,,,,,,,,gray,diamond
0.0,2.0,0.0,0.0,1.0,1.0,334.3544090166688,4.0,1.0,phase_1,,,,,,,,,,,,,orange,hexagon
375.0,4.0,4.0,0.0,2.0,2.0,263.1441727280617,4.0,1.0,phase_1,,,,,,,,,,,,,white,flipped triangle
178.0,7.0,2.0,1.0,1.0,1.0,256.145607214421,4.0,1.0,phase_1,,,,,,,,,,,,,blue,square
187.0,3.0,2.0,0.0,4.0,4.0,330.6685327552259,4.0,1.0,phase_1,,,,,,,,,,,,,gray,diamond
0.0,4.0,0.0,0.0,4.0,4.0,327.8272948227823,4.0,1.0,phase_1,,,,,,,,,,,,,white,flipped triangle
380.0,4.0,4.0,0.0,1.0,1.0,292.2820611856878,4.0,1.0,phase_1,,,,,,,,,,,,,white,flipped triangle
383.0,8.0,4.0,1.0,1.0,1.0,296.858362853527,4.0,1.0,phase_1,,,,,,,,,,,,,cyan,cross
215.0,3.0,2.0,0.0,1.0,1.0,300.6365420296788,4.0,1.0,phase_1,,,,,,,,,,,,,gray,diamond
0.0,5.0,0.0,1.0,1.0,1.0,308.4849719889462,4.0,1.0,phase_1,,,,,,,,,,,,,yellow,triangle
188.0,3.0,2.0,0.0,3.0,3.0,325.3362728282809,4.0,1.0,phase_1,,,,,,,,,,,,,gray,diamond
102.0,2.0,1.0,0.0,2.0,2.0,265.9104610793292,4.0,1.0,phase_1,,,,,,,,,,,,,orange,hexagon
89.0,2.0,1.0,0.0,4.0,4.0,303.764367941767,4.0,1.0,phase_1,,,,,,,,,,,,,orange,hexagon
390.0,8.0,4.0,1.0,2.0,2.0,274.8005827888846,4.0,1.0,phase_1,,,,,,,,,,,,,cyan,cross
26.0,5.0,0.5,1.0,3.0,3.0,303.6524108611047,4.0,1.0,phase_1,,,,,,,,,,,,,yellow,triangle
224.0,7.0,2.0,1.0,1.0,1.0,308.7081862613559,4.0,1.0,phase_1,,,,,,,,,,,,,blue,square
49.0,5.0,0.5,1.0,2.0,2.0,249.7401498258113,4.0,1.0,phase_1,,,,,,,,,,,,,yellow,triangle
220.0,7.0,2.0,1.0,4.0,4.0,312.5202707014978,4.0,1.0,phase_1,,,,,,,,,,,,,blue,square
224.0,3.0,2.0,0.0,2.0,2.0,270.3079083003104,4.0,1.0,phase_1,,,,,,,,,,,,,gray,diamond
195.0,7.0,2.0,1.0,2.0,2.0,272.3487932235002,4.0,1.0,phase_1,,,,,,,,,,,,,blue,square
381.0,8.0,4.0,1.0,2.0,2.0,284.0968919917941,4.0,1.0,phase_1,,,,,,,,,,,,,cyan,cross
396.0,4.0,4.0,0.0,2.0,2.0,274.8918291181326,4.0,1.0,phase_1,,,,,,,,,,,,,white,flipped triangle
0.0,5.0,0.5,1.0,5.0,5.0,461.6024019196629,1.0,1.0,phase_2,go,250.0,250.0,1.0,,,,,,,,,yellow,triangle
0.0,3.0,2.0,0.0,6.0,6.0,484.8229652270674,1.0,1.0,phase_2,go,250.0,250.0,1.0,,,,,,,,,gray,diamond
0.0,1.0,0.5,0.0,5.0,5.0,584.8177489824593,1.0,1.0,phase_2,go,250.0,250.0,1.0,,,,,,,,,green,I
0.0,2.0,1.0,0.0,6.0,6.0,275.3785457462072,1.0,1.0,phase_2,go,250.0,250.0,1.0,,,,,,,,,orange,hexagon
0.0,3.0,2.0,0.0,6.0,6.0,431.6549468785524,1.0,1.0,phase_2,go,250.0,250.0,1.0,,,,,,,,,gray,diamond
0.0,6.0,1.0,1.0,6.0,0.0,0.0,1.0,1.0,phase_2,stop,250.0,250.0,4.0,,,,,,,,,magenta,circle
0.0,4.0,4.0,0.0,6.0,6.0,616.9589990749955,1.0,1.0,phase_2,go,250.0,300.0,1.0,,,,,,,,,white,flipped triangle
0.0,1.0,0.5,0.0,5.0,5.0,462.3051080852747,1.0,1.0,phase_2,go,250.0,300.0,1.0,,,,,,,,,green,I
0.0,3.0,2.0,0.0,5.0,5.0,486.2978551536798,1.0,1.0,phase_2,go,250.0,300.0,1.0,,,,,,,,,gray,diamond
0.0,4.0,4.0,0.0,5.0,5.0,630.94048993662,1.0,1.0,phase_2,go,250.0,300.0,1.0,,,,,,,,,white,flipped triangle
0.0,3.0,2.0,0.0,5.0,5.0,759.922678116709,1.0,1.0,phase_2,go,250.0,300.0,1.0,,,,,,,,,gray,diamond
0.0,6.0,1.0,1.0,6.0,6.0,437.7466980367899,1.0,1.0,phase_2,go,250.0,300.0,1.0,,,,,,,,,magenta,circle
0.0,7.0,2.0,1.0,6.0,6.0,327.9887568205595,1.0,1.0,phase_2,stop,250.0,300.0,3.0,,,,,,,,,blue,square
0.0,4.0,4.0,0.0,5.0,5.0,274.0404158830642,1.0,1.0,phase_2,go,250.0,250.0,1.0,,,,,,,,,white,flipped triangle
0.0,3.0,2.0,0.0,6.0,6.0,452.9103701934218,1.0,1.0,phase_2,go,250.0,250.0,1.0,,,,,,,,,gray,diamond
0.0,1.0,0.5,0.0,5.0,5.0,506.10628398135304,1.0,1.0,phase_2,go,250.0,250.0,1.0,,,,,,,,,green,I
0.0,8.0,4.0,1.0,6.0,0.0,0.0,1.0,1.0,phase_2,stop,250.0,250.0,4.0,,,,,,,,,cyan,cross
0.0,7.0,2.0,1.0,5.0,0.0,0.0,1.0,1.0,phase_2,stop,250.0,300.0,4.0,,,,,,,,,blue,square
0.0,8.0,4.0,1.0,6.0,6.0,626.2540840543807,1.0,1.0,phase_2,go,300.0,300.0,1.0,,,,,,,,,cyan,cross
0.0,5.0,0.5,1.0,6.0,6.0,423.9717470481992,1.0,1.0,phase_2,stop,300.0,300.0,3.0,,,,,,,,,yellow,triangle
0.0,3.0,2.0,0.0,5.0,5.0,694.8669459670782,1.0,1.0,phase_2,go,300.0,250.0,1.0,,,,,,,,,gray,diamond
0.0,1.0,0.5,0.0,6.0,6.0,726.1017672717571,1.0,1.0,phase_2,go,300.0,250.0,1.0,,,,,,,,,green,I
0.0,7.0,2.0,1.0,6.0,0.0,0.0,1.0,1.0,phase_2,stop,300.0,250.0,4.0,,,,,,,,,blue,square
0.0,5.0,0.5,1.0,5.0,5.0,700.5306188948452,1.0,1.0,phase_2,go,300.0,300.0,1.0,,,,,,,,,yellow,triangle
0.0,1.0,0.5,0.0,5.0,5.0,680.2796698175371,1.0,1.0,phase_2,go,300.0,300.0,1.0,,,,,,,,,green,I
0.0,6.0,1.0,1.0,6.0,0.0,0.0,1.0,1.0,phase_2,stop,300.0,300.0,4.0,,,,,,,,,magenta,circle
0.0,1.0,0.5,0.0,6.0,6.0,587.0322296395898,1.0,1.0,phase_2,go,300.0,350.0,1.0,,,,,,,,,green,I
0.0,1.0,0.5,0.0,5.0,5.0,660.5617259629071,1.0,1.0,phase_2,go,300.0,350.0,1.0,,,,,,,,,green,I
0.0,8.0,4.0,1.0,5.0,0.0,0.0,1.0,1.0,phase_2,stop,300.0,350.0,4.0,,,,,,,,,cyan,cross
0.0,5.0,0.5,1.0,6.0,6.0,283.720423001796,1.0,1.0,phase_2,stop,350.0,350.0,3.0,,,,,,,,,yellow,triangle
0.0,7.0,2.0,1.0,6.0,0.0,0.0,1.0,1.0,phase_2,stop,350.0,300.0,4.0,,,,,,,,,blue,square
0.0,1.0,0.5,0.0,6.0,6.0,755.5186250247061,1.0,1.0,phase_2,go,350.0,350.0,1.0,,,,,,,,,green,I
0.0,4.0,4.0,0.0,6.0,6.0,761.8033518083394,1.0,1.0,phase_2,go,350.0,350.0,1.0,,,,,,,,,white,flipped triangle
0.0,2.0,1.0,0.0,5.0,5.0,642.8513149730861,1.0,1.0,phase_2,go,350.0,350.0,1.0,,,,,,,,,orange,hexagon
0.0,8.0,4.0,1.0,5.0,0.0,0.0,1.0,1.0,phase_2,stop,350.0,350.0,4.0,,,,,,,,,cyan,cross
0.0,6.0,1.0,1.0,6.0,0.0,0.0,1.0,1.0,phase_2,stop,400.0,350.0,4.0,,,,,,,,,magenta,circle
0.0,3.0,2.0,0.0,6.0,6.0,704.6233620494604,2.0,1.0,phase_2,go,400.0,400.0,1.0,,,,,,,,,gray,diamond
0.0,6.0,1.0,1.0,6.0,6.0,677.268938627094,2.0,1.0,phase_2,go,400.0,400.0,1.0,,,,,,,,,magenta,circle
0.0,8.0,4.0,1.0,5.0,5.0,504.4292090460658,2.0,1.0,phase_2,stop,400.0,400.0,3.0,,,,,,,,,cyan,cross
0.0,6.0,1.0,1.0,5.0,0.0,0.0,2.0,1.0,phase_2,stop,350.0,400.0,4.0,,,,,,,,,magenta,circle
0.0,4.0,4.0,0.0,6.0,6.0,598.5145019367337,2.0,1.0,phase_2,go,400.0,400.0,1.0,,,,,,,,,white,flipped triangle
0.0,4.0,4.0,0.0,5.0,5.0,634.6643958240747,2.0,1.0,phase_2,go,400.0,400.0,1.0,,,,,,,,,white,flipped triangle
0.0,7.0,2.0,1.0,6.0,0.0,0.0,2.0,1.0,phase_2,stop,400.0,400.0,4.0,,,,,,,,,blue,square
0.0,8.0,4.0,1.0,6.0,0.0,0.0,2.0,1.0,phase_2,stop,400.0,450.0,4.0,,,,,,,,,cyan,cross
0.0,7.0,2.0,1.0,5.0,0.0,0.0,2.0,1.0,phase_2,stop,400.0,500.0,4.0,,,,,,,,,blue,square
0.0,6.0,1.0,1.0,5.0,5.0,570.7221790216863,2.0,1.0,phase_2,go,450.0,500.0,1.0,,,,,,,,,magenta,circle
0.0,5.0,0.5,1.0,5.0,0.0,0.0,2.0,1.0,phase_2,stop,450.0,500.0,4.0,,,,,,,,,yellow,triangle
0.0,5.0,0.5,1.0,6.0,0.0,0.0,2.0,1.0,phase_2,stop,500.0,500.0,4.0,,,,,,,,,yellow,triangle
0.0,1.0,0.5,0.0,6.0,6.0,791.0266742110252,2.0,1.0,phase_2,go,500.0,550.0,1.0,,,,,,,,,green,I
0.0,5.0,0.5,1.0,6.0,0.0,0.0,2.0,1.0,phase_2,stop,500.0,550.0,4.0,,,,,,,,,yellow,triangle
0.0,4.0,4.0,0.0,6.0,6.0,800.3027187660336,2.0,1.0,phase_2,go,500.0,600.0,1.0,,,,,,,,,white,flipped triangle
0.0,7.0,2.0,1.0,6.0,6.0,584.3707919120789,2.0,1.0,phase_2,stop,500.0,600.0,3.0,,,,,,,,,blue,square
0.0,6.0,1.0,1.0,5.0,0.0,0.0,2.0,1.0,phase_2,stop,500.0,550.0,4.0,,,,,,,,,magenta,circle
0.0,7.0,2.0,1.0,6.0,0.0,0.0,2.0,1.0,phase_2,stop,550.0,550.0,4.0,,,,,,,,,blue,square
0.0,3.0,2.0,0.0,6.0,6.0,756.4363121055067,2.0,1.0,phase_2,go,550.0,600.0,1.0,,,,,,,,,gray,diamond
0.0,6.0,1.0,1.0,5.0,5.0,564.6979291923344,2.0,1.0,phase_2,stop,550.0,600.0,3.0,,,,,,,,,magenta,circle
0.0,1.0,0.5,0.0,5.0,5.0,517.8940468467772,2.0,1.0,phase_2,go,500.0,600.0,1.0,,,,,,,,,green,I
0.0,1.0,0.5,0.0,5.0,5.0,748.9002849906683,2.0,1.0,phase_2,go,500.0,600.0,1.0,,,,,,,,,green,I
0.0,5.0,0.5,1.0,5.0,5.0,859.8278071731329,2.0,1.0,phase_2,go,500.0,600.0,1.0,,,,,,,,,yellow,triangle
0.0,5.0,0.5,1.0,6.0,0.0,0.0,2.0,1.0,phase_2,stop,500.0,600.0,4.0,,,,,,,,,yellow,triangle
0.0,2.0,1.0,0.0,6.0,6.0,867.6852928474545,2.0,1.0,phase_2,go,500.0,650.0,1.0,,,,,,,,,orange,hexagon
0.0,8.0,4.0,1.0,5.0,0.0,0.0,2.0,1.0,phase_2,stop,500.0,650.0,4.0,,,,,,,,,cyan,cross
0.0,6.0,1.0,1.0,6.0,6.0,673.5809100791812,2.0,1.0,phase_2,stop,550.0,650.0,3.0,,,,,,,,,magenta,circle
0.0,3.0,2.0,0.0,5.0,5.0,786.0682872124016,2.0,1.0,phase_2,go,550.0,600.0,1.0,,,,,,,,,gray,diamond
0.0,6.0,1.0,1.0,5.0,5.0,490.2092730626464,2.0,1.0,phase_2,stop,550.0,600.0,3.0,,,,,,,,,magenta,circle
0.0,8.0,4.0,1.0,5.0,0.0,0.0,2.0,1.0,phase_2,stop,500.0,600.0,4.0,,,,,,,,,cyan,cross
0.0,7.0,2.0,1.0,6.0,6.0,950.2951661124824,2.0,1.0,phase_2,go,550.0,600.0,1.0,,,,,,,,,blue,square
0.0,4.0,4.0,0.0,5.0,5.0,508.720631711185,2.0,1.0,phase_2,go,550.0,600.0,1.0,,,,,,,,,white,flipped triangle
0.0,5.0,0.5,1.0,6.0,6.0,1028.7424861453474,2.0,1.0,phase_2,go,550.0,600.0,1.0,,,,,,,,,yellow,triangle
0.0,3.0,2.0,0.0,6.0,6.0,604.7211061231792,2.0,1.0,phase_2,go,550.0,600.0,1.0,,,,,,,,,gray,diamond
0.0,1.0,0.5,0.0,5.0,5.0,706.7048721946776,2.0,1.0,phase_2,go,550.0,600.0,1.0,,,,,,,,,green,I
0.0,5.0,0.5,1.0,6.0,0.0,0.0,2.0,1.0,phase_2,stop,550.0,600.0,4.0,,,,,,,,,yellow,triangle
0.0,8.0,4.0,1.0,6.0,6.0,788.1006090901792,3.0,1.0,phase_2,go,550.0,650.0,1.0,,,,,,,,,cyan,cross
0.0,1.0,0.5,0.0,6.0,6.0,816.646680701524,3.0,1.0,phase_2,go,550.0,650.0,1.0,,,,,,,,,green,I
0.0,1.0,0.5,0.0,5.0,5.0,731.3035009428859,3.0,1.0,phase_2,go,550.0,650.0,1.0,,,,,,,,,green,I
0.0,2.0,1.0,0.0,5.0,5.0,560.4514582082629,3.0,1.0,phase_2,go,550.0,650.0,1.0,,,,,,,,,orange,hexagon
0.0,8.0,4.0,1.0,5.0,0.0,0.0,3.0,1.0,phase_2,stop,550.0,650.0,4.0,,,,,,,,,cyan,cross
0.0,1.0,0.5,0.0,5.0,5.0,640.1686831377447,3.0,1.0,phase_2,go,600.0,650.0,1.0,,,,,,,,,green,I
0.0,6.0,1.0,1.0,6.0,0.0,0.0,3.0,1.0,phase_2,stop,600.0,650.0,4.0,,,,,,,,,magenta,circle
0.0,1.0,0.5,0.0,6.0,6.0,615.4324491508305,3.0,1.0,phase_2,go,600.0,700.0,1.0,,,,,,,,,green,I
0.0,7.0,2.0,1.0,6.0,0.0,0.0,3.0,1.0,phase_2,stop,600.0,700.0,4.0,,,,,,,,,blue,square
0.0,3.0,2.0,0.0,6.0,6.0,758.6552859283984,3.0,1.0,phase_2,go,600.0,750.0,1.0,,,,,,,,,gray,diamond
0.0,2.0,1.0,0.0,5.0,5.0,655.7102440856397,3.0,1.0,phase_2,go,600.0,750.0,1.0,,,,,,,,,orange,hexagon
0.0,3.0,2.0,0.0,5.0,5.0,765.2891301549971,3.0,1.0,phase_2,go,600.0,750.0,1.0,,,,,,,,,gray,diamond
0.0,2.0,1.0,0.0,5.0,5.0,836.3337032496929,3.0,1.0,phase_2,go,600.0,750.0,1.0,,,,,,,,,orange,hexagon
0.0,2.0,1.0,0.0,6.0,6.0,636.4418561570346,3.0,1.0,phase_2,go,600.0,750.0,1.0,,,,,,,,,orange,hexagon
0.0,7.0,2.0,1.0,5.0,5.0,650.6553241051733,3.0,1.0,phase_2,go,600.0,750.0,1.0,,,,,,,,,blue,square
0.0,1.0,0.5,0.0,6.0,6.0,377.2570881992578,3.0,1.0,phase_2,go,600.0,750.0,1.0,,,,,,,,,green,I
0.0,5.0,0.5,1.0,6.0,6.0,283.105356618762,3.0,1.0,phase_2,stop,600.0,750.0,3.0,,,,,,,,,yellow,triangle
0.0,1.0,0.5,0.0,6.0,6.0,641.3078149780631,3.0,1.0,phase_2,go,600.0,700.0,1.0,,,,,,,,,green,I
0.0,6.0,1.0,1.0,5.0,5.0,759.32382280007,3.0,1.0,phase_2,go,600.0,700.0,1.0,,,,,,,,,magenta,circle
0.0,5.0,0.5,1.0,5.0,0.0,0.0,3.0,1.0,phase_2,stop,600.0,700.0,4.0,,,,,,,,,yellow,triangle
0.0,6.0,1.0,1.0,5.0,5.0,734.2036729678512,3.0,1.0,phase_2,stop,650.0,700.0,3.0,,,,,,,,,magenta,circle
0.0,3.0,2.0,0.0,6.0,6.0,1224.132603034377,3.0,1.0,phase_2,go,600.0,700.0,1.0,,,,,,,,,gray,diamond
0.0,7.0,2.0,1.0,5.0,5.0,792.499294038862,3.0,1.0,phase_2,go,600.0,700.0,1.0,,,,,,,,,blue,square
0.0,6.0,1.0,1.0,5.0,0.0,0.0,3.0,1.0,phase_2,stop,600.0,700.0,4.0,,,,,,,,,magenta,circle
0.0,1.0,0.5,0.0,6.0,6.0,876.2897774577141,3.0,1.0,phase_2,go,650.0,700.0,1.0,,,,,,,,,green,I
0.0,4.0,4.0,0.0,6.0,6.0,726.96303576231,3.0,1.0,phase_2,go,650.0,700.0,1.0,,,,,,,,,white,flipped triangle
0.0,7.0,2.0,1.0,6.0,6.0,651.6137733124197,3.0,1.0,phase_2,stop,650.0,700.0,3.0,,,,,,,,,blue,square
0.0,3.0,2.0,0.0,6.0,6.0,1285.8141418546438,3.0,1.0,phase_2,go,650.0,650.0,1.0,,,,,,,,,gray,diamond
0.0,3.0,2.0,0.0,6.0,6.0,1029.1336439549923,3.0,1.0,phase_2,go,650.0,650.0,1.0,,,,,,,,,gray,diamond
0.0,8.0,4.0,1.0,5.0,0.0,0.0,3.0,1.0,phase_2,stop,650.0,650.0,4.0,,,,,,,,,cyan,cross
0.0,4.0,4.0,0.0,6.0,6.0,980.3030490875244,3.0,1.0,phase_2,go,700.0,650.0,1.0,,,,,,,,,white,flipped triangle
0.0,2.0,1.0,0.0,6.0,6.0,1003.9781308732929,3.0,1.0,phase_2,go,700.0,650.0,1.0,,,,,,,,,orange,hexagon
0.0,7.0,2.0,1.0,5.0,0.0,0.0,3.0,1.0,phase_2,stop,700.0,650.0,4.0,,,,,,,,,blue,square
0.0,5.0,0.5,1.0,6.0,0.0,0.0,3.0,1.0,phase_2,stop,750.0,650.0,4.0,,,,,,,,,yellow,triangle
0.0,4.0,4.0,0.0,6.0,6.0,697.4732712842524,3.0,1.0,phase_2,go,750.0,700.0,1.0,,,,,,,,,white,flipped triangle
0.0,5.0,0.5,1.0,5.0,5.0,816.1141951568425,3.0,1.0,phase_2,stop,750.0,700.0,3.0,,,,,,,,,yellow,triangle
0.0,7.0,2.0,1.0,5.0,5.0,436.707429587841,4.0,1.0,phase_2,go,700.0,700.0,1.0,,,,,,,,,blue,square
0.0,7.0,2.0,1.0,5.0,5.0,552.7325109578669,4.0,1.0,phase_2,stop,700.0,700.0,3.0,,,,,,,,,blue,square
0.0,2.0,1.0,0.0,6.0,6.0,796.0571013391018,4.0,1.0,phase_2,go,650.0,700.0,1.0,,,,,,,,,orange,hexagon
0.0,4.0,4.0,0.0,5.0,5.0,319.2917052656412,4.0,1.0,phase_2,go,650.0,700.0,1.0,,,,,,,,,white,flipped triangle
0.0,2.0,1.0,0.0,6.0,6.0,599.5052671059966,4.0,1.0,phase_2,go,650.0,700.0,1.0,,,,,,,,,orange,hexagon
0.0,2.0,1.0,0.0,5.0,5.0,310.9156140126288,4.0,1.0,phase_2,go,650.0,700.0,1.0,,,,,,,,,orange,hexagon
0.0,6.0,1.0,1.0,5.0,5.0,560.6853258796036,4.0,1.0,phase_2,go,650.0,700.0,1.0,,,,,,,,,magenta,circle
0.0,8.0,4.0,1.0,6.0,0.0,0.0,4.0,1.0,phase_2,stop,650.0,700.0,4.0,,,,,,,,,cyan,cross
0.0,7.0,2.0,1.0,6.0,0.0,0.0,4.0,1.0,phase_2,stop,650.0,750.0,4.0,,,,,,,,,blue,square
0.0,3.0,2.0,0.0,5.0,5.0,991.0517181269825,4.0,1.0,phase_2,go,650.0,800.0,1.0,,,,,,,,,gray,diamond
0.0,8.0,4.0,1.0,6.0,0.0,0.0,4.0,1.0,phase_2,stop,650.0,800.0,4.0,,,,,,,,,cyan,cross
0.0,3.0,2.0,0.0,6.0,6.0,726.6167439520359,4.0,1.0,phase_2,go,650.0,850.0,1.0,,,,,,,,,gray,diamond
0.0,2.0,1.0,0.0,6.0,6.0,917.5467141903936,4.0,1.0,phase_2,go,650.0,850.0,1.0,,,,,,,,,orange,hexagon
0.0,6.0,1.0,1.0,5.0,0.0,0.0,4.0,1.0,phase_2,stop,650.0,850.0,4.0,,,,,,,,,magenta,circle
0.0,4.0,4.0,0.0,6.0,6.0,976.869716309011,4.0,1.0,phase_2,go,700.0,850.0,1.0,,,,,,,,,white,flipped triangle
0.0,6.0,1.0,1.0,5.0,0.0,0.0,4.0,1.0,phase_2,stop,700.0,850.0,4.0,,,,,,,,,magenta,circle
0.0,3.0,2.0,0.0,5.0,5.0,883.4756151773036,4.0,1.0,phase_2,go,750.0,850.0,1.0,,,,,,,,,gray,diamond
0.0,6.0,1.0,1.0,5.0,5.0,423.4526972286403,4.0,1.0,phase_2,stop,750.0,850.0,3.0,,,,,,,,,magenta,circle
0.0,8.0,4.0,1.0,6.0,6.0,938.1338688544928,4.0,1.0,phase_2,stop,700.0,850.0,3.0,,,,,,,,,cyan,cross
0.0,5.0,0.5,1.0,5.0,0.0,0.0,4.0,1.0,phase_2,stop,700.0,800.0,4.0,,,,,,,,,yellow,triangle
0.0,2.0,1.0,0.0,5.0,5.0,770.0032969005406,4.0,1.0,phase_2,go,750.0,800.0,1.0,,,,,,,,,orange,hexagon
0.0,8.0,4.0,1.0,6.0,0.0,0.0,4.0,1.0,phase_2,stop,750.0,800.0,4.0,,,,,,,,,cyan,cross
0.0,3.0,2.0,0.0,6.0,6.0,751.855589915067,4.0,1.0,phase_2,go,750.0,850.0,1.0,,,,,,,,,gray,diamond
0.0,8.0,4.0,1.0,5.0,0.0,0.0,4.0,1.0,phase_2,stop,750.0,850.0,4.0,,,,,,,,,cyan,cross
0.0,2.0,1.0,0.0,6.0,6.0,1358.1835208460689,4.0,1.0,phase_2,go,800.0,850.0,1.0,,,,,,,,,orange,hexagon
0.0,2.0,1.0,0.0,6.0,6.0,687.1127970516682,4.0,1.0,phase_2,go,800.0,850.0,1.0,,,,,,,,,orange,hexagon
0.0,1.0,0.5,0.0,5.0,5.0,670.8538038656116,4.0,1.0,phase_2,go,800.0,850.0,1.0,,,,,,,,,green,I
0.0,7.0,2.0,1.0,6.0,6.0,846.2891411036253,4.0,1.0,phase_2,go,800.0,850.0,1.0,,,,,,,,,blue,square
0.0,3.0,2.0,0.0,5.0,5.0,565.1381239295006,4.0,1.0,phase_2,go,800.0,850.0,1.0,,,,,,,,,gray,diamond
0.0,8.0,4.0,1.0,6.0,6.0,666.8262602761388,4.0,1.0,phase_2,stop,800.0,850.0,3.0,,,,,,,,,cyan,cross
0.0,4.0,4.0,0.0,6.0,6.0,1123.8660588860512,4.0,1.0,phase_2,go,800.0,800.0,1.0,,,,,,,,,white,flipped triangle
0.0,8.0,4.0,1.0,5.0,0.0,0.0,4.0,1.0,phase_2,stop,800.0,800.0,4.0,,,,,,,,,cyan,cross
0.0,4.0,4.0,0.0,5.0,5.0,968.530593905598,4.0,1.0,phase_2,go,850.0,800.0,1.0,,,,,,,,,white,flipped triangle
0.0,4.0,4.0,0.0,5.0,5.0,1321.0640149191022,4.0,1.0,phase_2,go,850.0,800.0,1.0,,,,,,,,,white,flipped triangle
0.0,7.0,2.0,1.0,5.0,0.0,0.0,4.0,1.0,phase_2,stop,850.0,800.0,4.0,,,,,,,,,blue,square
0.0,8.0,4.0,1.0,5.0,5.0,1208.3884491585195,4.0,1.0,phase_2,go,900.0,800.0,1.0,,,,,,,,,cyan,cross
0.0,7.0,2.0,1.0,5.0,5.0,381.2233083881438,5.0,1.0,phase_2,stop,900.0,800.0,3.0,,,,,,,,,blue,square
0.0,3.0,2.0,0.0,5.0,5.0,828.3440237864852,5.0,1.0,phase_2,go,850.0,800.0,1.0,,,,,,,,,gray,diamond
0.0,6.0,1.0,1.0,6.0,6.0,829.8540390096605,5.0,1.0,phase_2,stop,850.0,800.0,3.0,,,,,,,,,magenta,circle
0.0,5.0,0.5,1.0,5.0,0.0,0.0,5.0,1.0,phase_2,stop,850.0,750.0,4.0,,,,,,,,,yellow,triangle
0.0,7.0,2.0,1.0,5.0,0.0,0.0,5.0,1.0,phase_2,stop,900.0,750.0,4.0,,,,,,,,,blue,square
0.0,1.0,0.5,0.0,6.0,6.0,938.2107951678336,5.0,1.0,phase_2,go,950.0,750.0,1.0,,,,,,,,,green,I
0.0,4.0,4.0,0.0,6.0,6.0,946.929555851966,5.0,1.0,phase_2,go,950.0,750.0,1.0,,,,,,,,,white,flipped triangle
0.0,8.0,4.0,1.0,5.0,0.0,0.0,5.0,1.0,phase_2,stop,950.0,750.0,4.0,,,,,,,,,cyan,cross
0.0,4.0,4.0,0.0,5.0,5.0,945.8702243864536,5.0,1.0,phase_2,go,1000.0,750.0,1.0,,,,,,,,,white,flipped triangle
0.0,2.0,1.0,0.0,5.0,5.0,759.3773156404495,5.0,1.0,phase_2,go,1000.0,750.0,1.0,,,,,,,,,orange,hexagon
0.0,2.0,1.0,0.0,5.0,5.0,1152.962815947831,5.0,1.0,phase_2,go,1000.0,750.0,1.0,,,,,,,,,orange,hexagon
0.0,7.0,2.0,1.0,5.0,0.0,0.0,5.0,1.0,phase_2,stop,1000.0,750.0,4.0,,,,,,,,,blue,square
0.0,1.0,0.5,0.0,5.0,0.0,0.0,5.0,1.0,phase_2,go,1050.0,750.0,5.0,,,,,,,,,green,I
0.0,5.0,0.5,1.0,6.0,6.0,700.0437476672232,5.0,1.0,phase_2,stop,1050.0,750.0,3.0,,,,,,,,,yellow,triangle
0.0,4.0,4.0,0.0,5.0,5.0,357.4839578941464,5.0,1.0,phase_2,go,1050.0,700.0,1.0,,,,,,,,,white,flipped triangle
0.0,1.0,0.5,0.0,5.0,5.0,742.6477489061654,5.0,1.0,phase_2,go,1050.0,700.0,1.0,,,,,,,,,green,I
0.0,5.0,0.5,1.0,6.0,0.0,0.0,5.0,1.0,phase_2,stop,1050.0,700.0,4.0,,,,,,,,,yellow,triangle
0.0,5.0,0.5,1.0,6.0,6.0,659.4758569262922,5.0,1.0,phase_2,stop,1050.0,750.0,3.0,,,,,,,,,yellow,triangle
0.0,5.0,0.5,1.0,6.0,6.0,921.6531477868556,5.0,1.0,phase_2,go,1050.0,700.0,1.0,,,,,,,,,yellow,triangle
0.0,6.0,1.0,1.0,6.0,6.0,746.0872391238809,5.0,1.0,phase_2,stop,1050.0,700.0,3.0,,,,,,,,,magenta,circle
0.0,8.0,4.0,1.0,6.0,0.0,0.0,5.0,1.0,phase_2,stop,1050.0,650.0,4.0,,,,,,,,,cyan,cross
0.0,1.0,0.5,0.0,6.0,6.0,833.96320277825,5.0,1.0,phase_2,go,1050.0,700.0,1.0,,,,,,,,,green,I
0.0,6.0,1.0,1.0,6.0,0.0,0.0,5.0,1.0,phase_2,stop,1050.0,700.0,4.0,,,,,,,,,magenta,circle
0.0,7.0,2.0,1.0,6.0,6.0,641.4586789906025,5.0,1.0,phase_2,stop,1050.0,750.0,3.0,,,,,,,,,blue,square
0.0,2.0,1.0,0.0,5.0,5.0,758.2615427672863,5.0,1.0,phase_2,go,1050.0,700.0,1.0,,,,,,,,,orange,hexagon
0.0,8.0,4.0,1.0,5.0,5.0,1073.075081221759,5.0,1.0,phase_2,go,1050.0,700.0,1.0,,,,,,,,,cyan,cross
0.0,6.0,1.0,1.0,6.0,0.0,0.0,5.0,1.0,phase_2,stop,1050.0,700.0,4.0,,,,,,,,,magenta,circle
0.0,2.0,1.0,0.0,6.0,6.0,886.102297808975,5.0,1.0,phase_2,go,1050.0,750.0,1.0,,,,,,,,,orange,hexagon
0.0,2.0,1.0,0.0,5.0,5.0,958.0326387658716,5.0,1.0,phase_2,go,1050.0,750.0,1.0,,,,,,,,,orange,hexagon
0.0,7.0,2.0,1.0,5.0,5.0,516.9501220807433,5.0,1.0,phase_2,go,1050.0,750.0,1.0,,,,,,,,,blue,square
0.0,5.0,0.5,1.0,6.0,0.0,0.0,5.0,1.0,phase_2,stop,1050.0,750.0,4.0,,,,,,,,,yellow,triangle
0.0,5.0,0.5,1.0,6.0,6.0,653.7393652833998,5.0,1.0,phase_2,go,1050.0,800.0,1.0,,,,,,,,,yellow,triangle
0.0,1.0,0.5,0.0,5.0,5.0,835.3131241165102,5.0,1.0,phase_2,go,1050.0,800.0,1.0,,,,,,,,,green,I
0.0,4.0,4.0,0.0,6.0,6.0,643.4242432005703,5.0,1.0,phase_2,go,1050.0,800.0,1.0,,,,,,,,,white,flipped triangle
0.0,6.0,1.0,1.0,5.0,5.0,584.4998648390174,5.0,1.0,phase_2,stop,1050.0,800.0,3.0,,,,,,,,,magenta,circle
0.0,7.0,2.0,1.0,6.0,6.0,811.6976278834045,5.0,1.0,phase_2,go,1000.0,800.0,1.0,,,,,,,,,blue,square
0.0,6.0,1.0,1.0,5.0,5.0,755.5260411463678,6.0,1.0,phase_2,go,1000.0,800.0,1.0,,,,,,,,,magenta,circle
0.0,2.0,1.0,0.0,6.0,6.0,810.2457216009498,6.0,1.0,phase_2,go,1000.0,800.0,1.0,,,,,,,,,orange,hexagon
0.0,5.0,0.5,1.0,5.0,5.0,751.2566419318318,6.0,1.0,phase_2,stop,1000.0,800.0,3.0,,,,,,,,,yellow,triangle
0.0,3.0,2.0,0.0,5.0,5.0,1071.7746140435338,6.0,1.0,phase_2,go,950.0,800.0,1.0,,,,,,,,,gray,diamond
0.0,1.0,0.5,0.0,5.0,5.0,1169.5276680402458,6.0,1.0,phase_2,go,950.0,800.0,1.0,,,,,,,,,green,I
0.0,5.0,0.5,1.0,5.0,5.0,966.0682417452336,6.0,1.0,phase_2,stop,950.0,800.0,3.0,,,,,,,,,yellow,triangle
0.0,8.0,4.0,1.0,5.0,5.0,757.2277481667697,6.0,1.0,phase_2,stop,900.0,800.0,3.0,,,,,,,,,cyan,cross
0.0,4.0,4.0,0.0,6.0,6.0,1102.526200003922,6.0,1.0,phase_2,go,850.0,800.0,1.0,,,,,,,,,white,flipped triangle
0.0,5.0,0.5,1.0,6.0,6.0,700.8758466690779,6.0,1.0,phase_2,stop,850.0,800.0,3.0,,,,,,,,,yellow,triangle
0.0,3.0,2.0,0.0,6.0,6.0,1476.4549019746482,6.0,1.0,phase_2,go,850.0,750.0,1.0,,,,,,,,,gray,diamond
0.0,3.0,2.0,0.0,6.0,6.0,798.7575787119567,6.0,1.0,phase_2,go,850.0,750.0,1.0,,,,,,,,,gray,diamond
0.0,6.0,1.0,1.0,6.0,6.0,730.5101868696511,6.0,1.0,phase_2,stop,850.0,750.0,3.0,,,,,,,,,magenta,circle
0.0,1.0,0.5,0.0,6.0,6.0,1317.826825659722,6.0,1.0,phase_2,go,850.0,700.0,1.0,,,,,,,,,green,I
0.0,3.0,2.0,0.0,6.0,0.0,0.0,6.0,1.0,phase_2,go,850.0,700.0,5.0,,,,,,,,,gray,diamond
0.0,8.0,4.0,1.0,6.0,6.0,1058.9288142509758,6.0,1.0,phase_2,stop,850.0,700.0,3.0,,,,,,,,,cyan,cross
0.0,2.0,1.0,0.0,5.0,5.0,698.5708060674369,6.0,1.0,phase_2,go,850.0,650.0,1.0,,,,,,,,,orange,hexagon
0.0,3.0,2.0,0.0,5.0,5.0,999.5681522414088,6.0,1.0,phase_2,go,850.0,650.0,1.0,,,,,,,,,gray,diamond
0.0,7.0,2.0,1.0,5.0,5.0,718.8480477780104,6.0,1.0,phase_2,stop,850.0,650.0,3.0,,,,,,,,,blue,square
0.0,2.0,1.0,0.0,5.0,5.0,1001.5435582026839,6.0,1.0,phase_2,go,800.0,650.0,1.0,,,,,,,,,orange,hexagon
0.0,5.0,0.5,1.0,5.0,5.0,889.3537051044405,6.0,1.0,phase_2,stop,800.0,650.0,3.0,,,,,,,,,yellow,triangle
0.0,8.0,4.0,1.0,6.0,0.0,0.0,6.0,1.0,phase_2,stop,750.0,650.0,4.0,,,,,,,,,cyan,cross
0.0,6.0,1.0,1.0,6.0,0.0,0.0,6.0,1.0,phase_2,stop,750.0,700.0,4.0,,,,,,,,,magenta,circle
0.0,2.0,1.0,0.0,6.0,6.0,908.4978010505438,6.0,1.0,phase_2,go,750.0,750.0,1.0,,,,,,,,,orange,hexagon
0.0,2.0,1.0,0.0,5.0,5.0,1183.4187409840524,6.0,1.0,phase_2,go,750.0,750.0,1.0,,,,,,,,,orange,hexagon
0.0,3.0,2.0,0.0,5.0,5.0,891.606330871582,6.0,1.0,phase_2,go,750.0,750.0,1.0,,,,,,,,,gray,diamond
0.0,2.0,1.0,0.0,5.0,5.0,1182.0577238686385,6.0,1.0,phase_2,go,750.0,750.0,1.0,,,,,,,,,orange,hexagon
0.0,3.0,2.0,0.0,5.0,5.0,1034.3140820041301,6.0,1.0,phase_2,go,750.0,750.0,1.0,,,,,,,,,gray,diamond
0.0,7.0,2.0,1.0,6.0,0.0,0.0,6.0,1.0,phase_2,stop,750.0,750.0,4.0,,,,,,,,,blue,square
0.0,8.0,4.0,1.0,5.0,5.0,775.602862238884,6.0,1.0,phase_2,stop,750.0,800.0,3.0,,,,,,,,,cyan,cross
0.0,7.0,2.0,1.0,6.0,0.0,0.0,6.0,1.0,phase_2,stop,700.0,800.0,4.0,,,,,,,,,blue,square
0.0,4.0,4.0,0.0,6.0,6.0,785.9495631419122,6.0,1.0,phase_2,go,700.0,850.0,1.0,,,,,,,,,white,flipped triangle
0.0,2.0,1.0,0.0,6.0,6.0,992.0581341721116,6.0,1.0,phase_2,go,700.0,850.0,1.0,,,,,,,,,orange,hexagon
0.0,7.0,2.0,1.0,6.0,0.0,0.0,6.0,1.0,phase_2,stop,700.0,850.0,4.0,,,,,,,,,blue,square
0.0,1.0,0.5,0.0,6.0,6.0,1063.206666149199,6.0,1.0,phase_2,go,700.0,900.0,1.0,,,,,,,,,green,I
0.0,5.0,0.5,1.0,6.0,6.0,960.028985980898,6.0,1.0,phase_2,stop,700.0,900.0,3.0,,,,,,,,,yellow,triangle
0.0,7.0,2.0,1.0,5.0,5.0,878.9620427414775,6.0,1.0,phase_2,stop,700.0,850.0,3.0,,,,,,,,,blue,square
0.0,5.0,0.5,1.0,5.0,5.0,758.5032591596246,7.0,1.0,phase_2,go,650.0,850.0,1.0,,,,,,,,,yellow,triangle
0.0,4.0,4.0,0.0,5.0,5.0,596.6938412748277,7.0,1.0,phase_2,go,650.0,850.0,1.0,,,,,,,,,white,flipped triangle
0.0,8.0,4.0,1.0,6.0,6.0,1061.5381440147758,7.0,1.0,phase_2,go,650.0,850.0,1.0,,,,,,,,,cyan,cross
0.0,2.0,1.0,0.0,6.0,6.0,1187.4668668024242,7.0,1.0,phase_2,go,650.0,850.0,1.0,,,,,,,,,orange,hexagon
0.0,7.0,2.0,1.0,5.0,0.0,0.0,7.0,1.0,phase_2,stop,650.0,850.0,4.0,,,,,,,,,blue,square
0.0,1.0,0.5,0.0,6.0,6.0,850.1326399855316,7.0,1.0,phase_2,go,700.0,850.0,1.0,,,,,,,,,green,I
0.0,8.0,4.0,1.0,6.0,0.0,0.0,7.0,1.0,phase_2,stop,700.0,850.0,4.0,,,,,,,,,cyan,cross
0.0,3.0,2.0,0.0,6.0,6.0,769.0058001317084,7.0,1.0,phase_2,go,700.0,900.0,1.0,,,,,,,,,gray,diamond
0.0,6.0,1.0,1.0,5.0,5.0,1211.192078422755,7.0,1.0,phase_2,go,700.0,900.0,1.0,,,,,,,,,magenta,circle
0.0,8.0,4.0,1.0,5.0,5.0,680.1800378598273,7.0,1.0,phase_2,go,700.0,900.0,1.0,,,,,,,,,cyan,cross
0.0,7.0,2.0,1.0,5.0,0.0,0.0,7.0,1.0,phase_2,stop,700.0,900.0,4.0,,,,,,,,,blue,square
0.0,2.0,1.0,0.0,5.0,5.0,863.5995090007782,7.0,1.0,phase_2,go,750.0,900.0,1.0,,,,,,,,,orange,hexagon
0.0,7.0,2.0,1.0,6.0,6.0,705.3765901364386,7.0,1.0,phase_2,stop,750.0,900.0,3.0,,,,,,,,,blue,square
0.0,4.0,4.0,0.0,6.0,6.0,1375.2837786450982,7.0,1.0,phase_2,go,750.0,850.0,1.0,,,,,,,,,white,flipped triangle
0.0,4.0,4.0,0.0,6.0,6.0,724.5559431612492,7.0,1.0,phase_2,go,750.0,850.0,1.0,,,,,,,,,white,flipped triangle
0.0,5.0,0.5,1.0,5.0,0.0,0.0,7.0,1.0,phase_2,stop,750.0,850.0,4.0,,,,,,,,,yellow,triangle
0.0,2.0,1.0,0.0,6.0,6.0,902.0133051089942,7.0,1.0,phase_2,go,800.0,850.0,1.0,,,,,,,,,orange,hexagon
0.0,2.0,1.0,0.0,6.0,6.0,821.8035749159753,7.0,1.0,phase_2,go,800.0,850.0,1.0,,,,,,,,,orange,hexagon
0.0,4.0,4.0,0.0,6.0,6.0,779.058669693768,7.0,1.0,phase_2,go,800.0,850.0,1.0,,,,,,,,,white,flipped triangle
0.0,3.0,2.0,0.0,6.0,6.0,882.7702477574348,7.0,1.0,phase_2,go,800.0,850.0,1.0,,,,,,,,,gray,diamond
0.0,2.0,1.0,0.0,5.0,5.0,763.9858350157738,7.0,1.0,phase_2,go,800.0,850.0,1.0,,,,,,,,,orange,hexagon
0.0,5.0,0.5,1.0,5.0,5.0,604.0850160643458,7.0,1.0,phase_2,stop,800.0,850.0,3.0,,,,,,,,,yellow,triangle
0.0,6.0,1.0,1.0,6.0,6.0,665.0622691959143,7.0,1.0,phase_2,stop,750.0,850.0,3.0,,,,,,,,,magenta,circle
0.0,3.0,2.0,0.0,5.0,5.0,1162.6731767319145,7.0,1.0,phase_2,go,750.0,800.0,1.0,,,,,,,,,gray,diamond
0.0,4.0,4.0,0.0,5.0,5.0,875.3596767783165,7.0,1.0,phase_2,go,750.0,800.0,1.0,,,,,,,,,white,flipped triangle
0.0,3.0,2.0,0.0,5.0,5.0,992.5287459045647,7.0,1.0,phase_2,go,750.0,800.0,1.0,,,,,,,,,gray,diamond
0.0,5.0,0.5,1.0,5.0,5.0,798.1315618380904,7.0,1.0,phase_2,stop,750.0,800.0,3.0,,,,,,,,,yellow,triangle
0.0,6.0,1.0,1.0,5.0,0.0,0.0,7.0,1.0,phase_2,stop,700.0,800.0,4.0,,,,,,,,,magenta,circle
0.0,1.0,0.5,0.0,6.0,6.0,920.3265742398798,7.0,1.0,phase_2,go,750.0,800.0,1.0,,,,,,,,,green,I
0.0,2.0,1.0,0.0,5.0,5.0,1008.4327701479197,7.0,1.0,phase_2,go,750.0,800.0,1.0,,,,,,,,,orange,hexagon
0.0,2.0,1.0,0.0,6.0,6.0,917.7700751461088,7.0,1.0,phase_2,go,750.0,800.0,1.0,,,,,,,,,orange,hexagon
0.0,1.0,0.5,0.0,5.0,5.0,820.0045791454613,7.0,1.0,phase_2,go,750.0,800.0,1.0,,,,,,,,,green,I
0.0,4.0,4.0,0.0,5.0,5.0,1014.3851703032851,7.0,1.0,phase_2,go,750.0,800.0,1.0,,,,,,,,,white,flipped triangle
0.0,5.0,0.5,1.0,6.0,6.0,738.3735906332731,7.0,1.0,phase_2,go,750.0,800.0,1.0,,,,,,,,,yellow,triangle
0.0,2.0,1.0,0.0,6.0,6.0,821.5563870035112,7.0,1.0,phase_2,go,750.0,800.0,1.0,,,,,,,,,orange,hexagon
0.0,4.0,4.0,0.0,6.0,6.0,705.5282080546021,7.0,1.0,phase_2,go,750.0,800.0,1.0,,,,,,,,,white,flipped triangle
0.0,5.0,0.5,1.0,5.0,5.0,697.2244479693472,8.0,1.0,phase_2,stop,750.0,800.0,3.0,,,,,,,,,yellow,triangle
0.0,8.0,4.0,1.0,5.0,5.0,869.7624988853931,8.0,1.0,phase_2,go,700.0,800.0,1.0,,,,,,,,,cyan,cross
0.0,7.0,2.0,1.0,5.0,5.0,807.8786479309201,8.0,1.0,phase_2,go,700.0,800.0,1.0,,,,,,,,,blue,square
0.0,3.0,2.0,0.0,6.0,6.0,847.7325038984418,8.0,1.0,phase_2,go,700.0,800.0,1.0,,,,,,,,,gray,diamond
0.0,8.0,4.0,1.0,5.0,0.0,0.0,8.0,1.0,phase_2,stop,700.0,800.0,4.0,,,,,,,,,cyan,cross
0.0,8.0,4.0,1.0,6.0,6.0,773.7007099203765,8.0,1.0,phase_2,stop,750.0,800.0,3.0,,,,,,,,,cyan,cross
0.0,6.0,1.0,1.0,6.0,6.0,637.8559339791536,8.0,1.0,phase_2,go,750.0,750.0,1.0,,,,,,,,,magenta,circle
0.0,3.0,2.0,0.0,5.0,5.0,620.8240622654557,8.0,1.0,phase_2,go,750.0,750.0,1.0,,,,,,,,,gray,diamond
0.0,1.0,0.5,0.0,6.0,6.0,833.0591041594744,8.0,1.0,phase_2,go,750.0,750.0,1.0,,,,,,,,,green,I
0.0,6.0,1.0,1.0,5.0,5.0,768.5974230989814,8.0,1.0,phase_2,stop,750.0,750.0,3.0,,,,,,,,,magenta,circle
0.0,3.0,2.0,0.0,5.0,5.0,690.4758648015559,8.0,1.0,phase_2,go,700.0,750.0,1.0,,,,,,,,,gray,diamond
0.0,1.0,0.5,0.0,6.0,6.0,688.907234929502,8.0,1.0,phase_2,go,700.0,750.0,1.0,,,,,,,,,green,I
0.0,8.0,4.0,1.0,6.0,6.0,784.9369975738227,8.0,1.0,phase_2,stop,700.0,750.0,3.0,,,,,,,,,cyan,cross
0.0,2.0,1.0,0.0,5.0,5.0,1025.7013724185526,8.0,1.0,phase_2,go,700.0,700.0,1.0,,,,,,,,,orange,hexagon
0.0,4.0,4.0,0.0,5.0,5.0,1053.5369967110455,8.0,1.0,phase_2,go,700.0,700.0,1.0,,,,,,,,,white,flipped triangle
0.0,8.0,4.0,1.0,5.0,5.0,813.3568800985813,8.0,1.0,phase_2,go,700.0,700.0,1.0,,,,,,,,,cyan,cross
0.0,3.0,2.0,0.0,5.0,5.0,852.4437798187137,8.0,1.0,phase_2,go,700.0,700.0,1.0,,,,,,,,,gray,diamond
0.0,6.0,1.0,1.0,6.0,0.0,0.0,8.0,1.0,phase_2,stop,700.0,700.0,4.0,,,,,,,,,magenta,circle
0.0,4.0,4.0,0.0,5.0,5.0,750.4466441459954,8.0,1.0,phase_2,go,700.0,750.0,1.0,,,,,,,,,white,flipped triangle
0.0,5.0,0.5,1.0,5.0,5.0,794.5382036268711,8.0,1.0,phase_2,go,700.0,750.0,1.0,,,,,,,,,yellow,triangle
0.0,4.0,4.0,0.0,6.0,6.0,868.3930262923241,8.0,1.0,phase_2,go,700.0,750.0,1.0,,,,,,,,,white,flipped triangle
0.0,4.0,4.0,0.0,5.0,5.0,818.1758071295917,8.0,1.0,phase_2,go,700.0,750.0,1.0,,,,,,,,,white,flipped triangle
0.0,1.0,0.5,0.0,5.0,5.0,1188.0801892839372,8.0,1.0,phase_2,go,700.0,750.0,1.0,,,,,,,,,green,I
0.0,7.0,2.0,1.0,6.0,6.0,904.544211924076,8.0,1.0,phase_2,go,700.0,750.0,1.0,,,,,,,,,blue,square
0.0,6.0,1.0,1.0,6.0,6.0,946.7346328310668,8.0,1.0,phase_2,go,700.0,750.0,1.0,,,,,,,,,magenta,circle
0.0,5.0,0.5,1.0,5.0,0.0,0.0,8.0,1.0,phase_2,stop,700.0,750.0,4.0,,,,,,,,,yellow,triangle
0.0,6.0,1.0,1.0,5.0,5.0,938.5389420203863,8.0,1.0,phase_2,stop,750.0,750.0,3.0,,,,,,,,,magenta,circle
0.0,6.0,1.0,1.0,6.0,6.0,798.2174861244857,8.0,1.0,phase_2,stop,700.0,750.0,3.0,,,,,,,,,magenta,circle
0.0,4.0,4.0,0.0,5.0,5.0,1134.1403219848871,8.0,1.0,phase_2,go,700.0,700.0,1.0,,,,,,,,,white,flipped triangle
0.0,4.0,4.0,0.0,5.0,5.0,1238.990357145667,8.0,1.0,phase_2,go,700.0,700.0,1.0,,,,,,,,,white,flipped triangle
0.0,8.0,4.0,1.0,6.0,6.0,1192.4951910041273,8.0,1.0,phase_2,go,700.0,700.0,1.0,,,,,,,,,cyan,cross
0.0,4.0,4.0,0.0,5.0,5.0,1134.874883107841,8.0,1.0,phase_2,go,700.0,700.0,1.0,,,,,,,,,white,flipped triangle
0.0,7.0,2.0,1.0,5.0,0.0,0.0,8.0,1.0,phase_2,stop,700.0,700.0,4.0,,,,,,,,,blue,square
0.0,1.0,0.5,0.0,6.0,6.0,1171.309867873788,8.0,1.0,phase_2,go,750.0,700.0,1.0,,,,,,,,,green,I
0.0,8.0,4.0,1.0,6.0,0.0,0.0,8.0,1.0,phase_2,stop,750.0,700.0,4.0,,,,,,,,,cyan,cross
0.0,1.0,0.5,0.0,5.0,5.0,1025.8169011212883,8.0,1.0,phase_2,go,750.0,750.0,1.0,,,,,,,,,green,I
0.0,1.0,0.5,0.0,7.0,2.0,223.1421959586441,1.0,1.0,phase_3,,,,,176.0,4.0,44.0,176.0,220.0,132.0,264.0,88.0,green,I
0.0,2.0,1.0,0.0,7.0,3.0,3935.4846072383225,1.0,1.0,phase_3,,,,,54.0,1.0,216.0,108.0,54.0,270.0,324.0,162.0,orange,hexagon
0.0,1.0,0.5,0.0,7.0,5.0,1939.7866819053888,1.0,1.0,phase_3,,,,,176.0,4.0,44.0,132.0,88.0,220.0,176.0,264.0,green,I
0.0,5.0,0.5,1.0,7.0,3.0,1828.5788372159004,1.0,1.0,phase_3,,,,,54.0,1.0,162.0,324.0,54.0,108.0,216.0,270.0,yellow,triangle
0.0,8.0,4.0,1.0,7.0,6.0,2078.286738600582,1.0,1.0,phase_3,,,,,234.0,6.0,156.0,195.0,78.0,117.0,39.0,234.0,cyan,cross
0.0,5.0,0.5,1.0,7.0,5.0,1421.976296696812,1.0,1.0,phase_3,,,,,68.0,2.0,204.0,102.0,170.0,136.0,68.0,34.0,yellow,triangle
0.0,7.0,2.0,1.0,7.0,4.0,934.4128780066968,1.0,1.0,phase_3,,,,,49.0,1.0,98.0,245.0,196.0,49.0,294.0,147.0,blue,square
0.0,6.0,1.0,1.0,7.0,1.0,1311.617131344974,1.0,1.0,phase_3,,,,,156.0,4.0,156.0,234.0,78.0,195.0,117.0,39.0,magenta,circle
0.0,1.0,0.5,0.0,7.0,3.0,1372.6034620776772,1.0,1.0,phase_3,,,,,170.0,5.0,102.0,68.0,170.0,204.0,34.0,136.0,green,I
0.0,4.0,4.0,0.0,7.0,5.0,1675.6025818176568,1.0,1.0,phase_3,,,,,195.0,5.0,78.0,117.0,234.0,39.0,195.0,156.0,white,flipped triangle
0.0,8.0,4.0,1.0,7.0,5.0,1606.3845362514255,1.0,1.0,phase_3,,,,,294.0,6.0,245.0,147.0,98.0,49.0,294.0,196.0,cyan,cross
0.0,1.0,0.5,0.0,7.0,4.0,2440.773088019341,1.0,1.0,phase_3,,,,,162.0,3.0,216.0,270.0,324.0,162.0,108.0,54.0,green,I
0.0,1.0,0.5,0.0,7.0,5.0,1744.9737540446222,1.0,1.0,phase_3,,,,,195.0,5.0,156.0,234.0,117.0,78.0,195.0,39.0,green,I
0.0,4.0,4.0,0.0,7.0,5.0,2176.718565169722,1.0,1.0,phase_3,,,,,195.0,5.0,39.0,156.0,117.0,234.0,195.0,78.0,white,flipped triangle
0.0,3.0,2.0,0.0,7.0,2.0,1220.9625919349492,1.0,1.0,phase_3,,,,,156.0,4.0,39.0,156.0,117.0,78.0,195.0,234.0,gray,diamond
0.0,4.0,4.0,0.0,7.0,2.0,1851.384835317731,1.0,1.0,phase_3,,,,,176.0,4.0,44.0,176.0,132.0,88.0,220.0,264.0,white,flipped triangle
0.0,4.0,4.0,0.0,7.0,1.0,1068.850435782224,1.0,1.0,phase_3,,,,,170.0,5.0,170.0,136.0,204.0,68.0,34.0,102.0,white,flipped triangle
0.0,5.0,0.5,1.0,7.0,4.0,2751.5004030428827,1.0,1.0,phase_3,,,,,245.0,5.0,98.0,49.0,196.0,245.0,294.0,147.0,yellow,triangle
0.0,3.0,2.0,0.0,7.0,2.0,1681.3449212349951,1.0,1.0,phase_3,,,,,162.0,3.0,270.0,162.0,216.0,324.0,54.0,108.0,gray,diamond
0.0,6.0,1.0,1.0,7.0,6.0,650.555205065757,1.0,1.0,phase_3,,,,,170.0,5.0,68.0,102.0,34.0,204.0,136.0,170.0,magenta,circle
0.0,5.0,0.5,1.0,7.0,4.0,2140.33611305058,2.0,1.0,phase_3,,,,,270.0,5.0,216.0,108.0,324.0,270.0,162.0,54.0,yellow,triangle
0.0,7.0,2.0,1.0,7.0,2.0,935.0220202468336,2.0,1.0,phase_3,,,,,49.0,1.0,196.0,49.0,245.0,147.0,98.0,294.0,blue,square
0.0,3.0,2.0,0.0,7.0,5.0,1096.3145080022514,2.0,1.0,phase_3,,,,,78.0,2.0,156.0,39.0,117.0,234.0,78.0,195.0,gray,diamond
0.0,5.0,0.5,1.0,7.0,1.0,1161.5512538701296,2.0,1.0,phase_3,,,,,176.0,4.0,176.0,132.0,264.0,44.0,220.0,88.0,yellow,triangle
0.0,5.0,0.5,1.0,7.0,5.0,1362.589593976736,2.0,1.0,phase_3,,,,,117.0,3.0,234.0,78.0,39.0,195.0,117.0,156.0,yellow,triangle
0.0,5.0,0.5,1.0,7.0,6.0,1908.5790901444848,2.0,1.0,phase_3,,,,,132.0,3.0,264.0,44.0,176.0,220.0,88.0,132.0,yellow,triangle
0.0,7.0,2.0,1.0,7.0,2.0,805.6862279772758,2.0,1.0,phase_3,,,,,88.0,2.0,176.0,88.0,132.0,220.0,44.0,264.0,blue,square
0.0,5.0,0.5,1.0,7.0,2.0,1366.2837790325284,2.0,1.0,phase_3,,,,,136.0,4.0,204.0,136.0,170.0,68.0,34.0,102.0,yellow,triangle
0.0,2.0,1.0,0.0,7.0,2.0,2303.8784149102867,2.0,1.0,phase_3,,,,,196.0,4.0,98.0,196.0,147.0,294.0,49.0,245.0,orange,hexagon
0.0,2.0,1.0,0.0,7.0,5.0,1229.053189046681,2.0,1.0,phase_3,,,,,220.0,5.0,132.0,88.0,264.0,176.0,220.0,44.0,orange,hexagon
0.0,1.0,0.5,0.0,7.0,2.0,1179.2776840738952,2.0,1.0,phase_3,,,,,156.0,4.0,234.0,156.0,117.0,78.0,39.0,195.0,green,I
0.0,2.0,1.0,0.0,7.0,5.0,1431.3863003626466,2.0,1.0,phase_3,,,,,147.0,3.0,294.0,196.0,245.0,49.0,147.0,98.0,orange,hexagon
0.0,4.0,4.0,0.0,7.0,4.0,1568.2181078009307,2.0,1.0,phase_3,,,,,270.0,5.0,54.0,108.0,216.0,270.0,324.0,162.0,white,flipped triangle
0.0,2.0,1.0,0.0,7.0,1.0,1174.162588082254,2.0,1.0,phase_3,,,,,176.0,4.0,176.0,88.0,44.0,264.0,220.0,132.0,orange,hexagon
0.0,3.0,2.0,0.0,7.0,4.0,2175.822773016989,2.0,1.0,phase_3,,,,,68.0,2.0,34.0,170.0,102.0,68.0,204.0,136.0,gray,diamond
0.0,2.0,1.0,0.0,7.0,3.0,1041.257840115577,2.0,1.0,phase_3,,,,,117.0,3.0,156.0,39.0,117.0,234.0,78.0,195.0,orange,hexagon
0.0,3.0,2.0,0.0,7.0,1.0,898.5195942223072,2.0,1.0,phase_3,,,,,98.0,2.0,98.0,196.0,147.0,294.0,49.0,245.0,gray,diamond
0.0,5.0,0.5,1.0,7.0,6.0,2287.0191950351,2.0,1.0,phase_3,,,,,234.0,6.0,156.0,117.0,78.0,195.0,39.0,234.0,yellow,triangle
0.0,6.0,1.0,1.0,7.0,1.0,1103.8961950689554,2.0,1.0,phase_3,,,,,216.0,4.0,216.0,270.0,108.0,162.0,324.0,54.0,magenta,circle
0.0,5.0,0.5,1.0,7.0,1.0,2218.8022169284523,2.0,1.0,phase_3,,,,,147.0,3.0,147.0,245.0,49.0,196.0,294.0,98.0,yellow,triangle
0.0,6.0,1.0,1.0,7.0,4.0,976.4200476929544,3.0,1.0,phase_3,,,,,264.0,6.0,44.0,88.0,220.0,264.0,132.0,176.0,magenta,circle
0.0,6.0,1.0,1.0,7.0,2.0,1105.606813915074,3.0,1.0,phase_3,,,,,234.0,6.0,156.0,234.0,78.0,117.0,39.0,195.0,magenta,circle
0.0,4.0,4.0,0.0,7.0,5.0,1813.4248438291247,3.0,1.0,phase_3,,,,,176.0,4.0,88.0,264.0,132.0,44.0,176.0,220.0,white,flipped triangle
0.0,6.0,1.0,1.0,7.0,4.0,1247.7374491281807,3.0,1.0,phase_3,,,,,220.0,5.0,176.0,88.0,264.0,220.0,132.0,44.0,magenta,circle
0.0,3.0,2.0,0.0,7.0,3.0,1341.95166407153,3.0,1.0,phase_3,,,,,49.0,1.0,98.0,147.0,49.0,245.0,196.0,294.0,gray,diamond
0.0,8.0,4.0,1.0,7.0,4.0,1158.3701791241765,3.0,1.0,phase_3,,,,,204.0,6.0,34.0,136.0,102.0,204.0,68.0,170.0,cyan,cross
0.0,7.0,2.0,1.0,7.0,6.0,1568.211143836379,3.0,1.0,phase_3,,,,,54.0,1.0,324.0,162.0,270.0,216.0,108.0,54.0,blue,square
0.0,6.0,1.0,1.0,7.0,5.0,1785.416384227574,3.0,1.0,phase_3,,,,,216.0,4.0,162.0,54.0,324.0,270.0,216.0,108.0,magenta,circle
0.0,6.0,1.0,1.0,7.0,2.0,2715.369557030499,3.0,1.0,phase_3,,,,,204.0,6.0,170.0,204.0,136.0,34.0,102.0,68.0,magenta,circle
0.0,8.0,4.0,1.0,7.0,5.0,1540.071832947433,3.0,1.0,phase_3,,,,,264.0,6.0,88.0,132.0,220.0,44.0,264.0,176.0,cyan,cross
0.0,4.0,4.0,0.0,7.0,6.0,2328.2801639288664,3.0,1.0,phase_3,,,,,162.0,3.0,324.0,216.0,54.0,108.0,270.0,162.0,white,flipped triangle
0.0,6.0,1.0,1.0,7.0,2.0,825.1024382188916,3.0,1.0,phase_3,,,,,294.0,6.0,49.0,294.0,196.0,98.0,245.0,147.0,magenta,circle
0.0,8.0,4.0,1.0,7.0,3.0,888.1267551332712,3.0,1.0,phase_3,,,,,294.0,6.0,98.0,147.0,294.0,49.0,245.0,196.0,cyan,cross
0.0,1.0,0.5,0.0,7.0,2.0,1802.1519617177544,3.0,1.0,phase_3,,,,,162.0,3.0,270.0,162.0,108.0,216.0,324.0,54.0,green,I
0.0,7.0,2.0,1.0,7.0,3.0,885.9172482043505,3.0,1.0,phase_3,,,,,39.0,1.0,234.0,156.0,39.0,195.0,78.0,117.0,blue,square
0.0,6.0,1.0,1.0,7.0,3.0,1196.8848877586424,3.0,1.0,phase_3,,,,,294.0,6.0,49.0,147.0,294.0,245.0,98.0,196.0,magenta,circle
0.0,3.0,2.0,0.0,7.0,2.0,1230.5367211811244,3.0,1.0,phase_3,,,,,68.0,2.0,102.0,68.0,34.0,204.0,136.0,170.0,gray,diamond
0.0,3.0,2.0,0.0,7.0,3.0,1495.0250829569995,3.0,1.0,phase_3,,,,,88.0,2.0,132.0,176.0,88.0,220.0,264.0,44.0,gray,diamond
0.0,1.0,0.5,0.0,7.0,1.0,1232.3808367364109,3.0,1.0,phase_3,,,,,170.0,5.0,170.0,34.0,136.0,68.0,102.0,204.0,green,I
0.0,4.0,4.0,0.0,7.0,2.0,2385.4821431450546,3.0,1.0,phase_3,,,,,196.0,4.0,245.0,196.0,98.0,49.0,294.0,147.0,white,flipped triangle
0.0,7.0,2.0,1.0,7.0,1.0,1193.2461047545075,4.0,1.0,phase_3,,,,,34.0,1.0,34.0,136.0,204.0,68.0,170.0,102.0,blue,square
0.0,3.0,2.0,0.0,7.0,4.0,2290.452041663229,4.0,1.0,phase_3,,,,,54.0,1.0,162.0,324.0,270.0,54.0,216.0,108.0,gray,diamond
0.0,8.0,4.0,1.0,7.0,3.0,1339.0131127089262,4.0,1.0,phase_3,,,,,324.0,6.0,162.0,216.0,324.0,54.0,270.0,108.0,cyan,cross
0.0,7.0,2.0,1.0,7.0,3.0,1156.679828185588,4.0,1.0,phase_3,,,,,54.0,1.0,324.0,108.0,54.0,162.0,270.0,216.0,blue,square
0.0,8.0,4.0,1.0,7.0,4.0,1504.9430769868195,4.0,1.0,phase_3,,,,,324.0,6.0,216.0,162.0,108.0,324.0,270.0,54.0,cyan,cross
0.0,1.0,0.5,0.0,7.0,1.0,1808.2150658592584,4.0,1.0,phase_3,,,,,196.0,4.0,196.0,294.0,49.0,147.0,245.0,98.0,green,I
0.0,7.0,2.0,1.0,7.0,3.0,1026.6251238062978,4.0,1.0,phase_3,,,,,78.0,2.0,39.0,156.0,78.0,117.0,234.0,195.0,blue,square
0.0,4.0,4.0,0.0,7.0,1.0,1852.7464899234476,4.0,1.0,phase_3,,,,,147.0,3.0,147.0,49.0,98.0,196.0,245.0,294.0,white,flipped triangle
0.0,8.0,4.0,1.0,7.0,5.0,1578.5310119390488,4.0,1.0,phase_3,,,,,204.0,6.0,170.0,34.0,136.0,68.0,204.0,102.0,cyan,cross
0.0,7.0,2.0,1.0,7.0,6.0,1717.5812385976317,4.0,1.0,phase_3,,,,,44.0,1.0,88.0,220.0,264.0,132.0,176.0,44.0,blue,square
0.0,8.0,4.0,1.0,7.0,1.0,1511.472406797111,4.0,1.0,phase_3,,,,,264.0,6.0,264.0,88.0,132.0,44.0,176.0,220.0,cyan,cross
0.0,3.0,2.0,0.0,7.0,4.0,1470.4764098860323,4.0,1.0,phase_3,,,,,176.0,4.0,220.0,88.0,264.0,176.0,44.0,132.0,gray,diamond
0.0,2.0,1.0,0.0,7.0,3.0,1163.6516298167408,4.0,1.0,phase_3,,,,,204.0,6.0,136.0,34.0,204.0,170.0,68.0,102.0,orange,hexagon
0.0,1.0,0.5,0.0,7.0,2.0,1795.6871599890292,4.0,1.0,phase_3,,,,,196.0,4.0,98.0,196.0,245.0,147.0,49.0,294.0,green,I
0.0,2.0,1.0,0.0,7.0,3.0,1989.0726380981505,4.0,1.0,phase_3,,,,,170.0,5.0,204.0,102.0,170.0,34.0,68.0,136.0,orange,hexagon
0.0,8.0,4.0,1.0,7.0,5.0,1244.6639011614025,4.0,1.0,phase_3,,,,,234.0,6.0,78.0,195.0,39.0,156.0,234.0,117.0,cyan,cross
0.0,2.0,1.0,0.0,7.0,6.0,1703.1746660359204,4.0,1.0,phase_3,,,,,195.0,5.0,156.0,234.0,117.0,39.0,78.0,195.0,orange,hexagon
0.0,2.0,1.0,0.0,7.0,4.0,1526.4468030072749,4.0,1.0,phase_3,,,,,216.0,4.0,108.0,162.0,270.0,216.0,324.0,54.0,orange,hexagon
0.0,7.0,2.0,1.0,7.0,3.0,872.1879320219159,4.0,1.0,phase_3,,,,,34.0,1.0,204.0,68.0,34.0,102.0,170.0,136.0,blue,square
0.0,4.0,4.0,0.0,7.0,6.0,1292.119706980884,4.0,1.0,phase_3,,,,,34.0,1.0,102.0,204.0,136.0,170.0,68.0,34.0,white,flipped triangle
