raw_reward_magnitude,stim_reward,stepwise_reward_magnitude,paired_with_stopping,stim_location,response,reaction_time,block,num_trial_presentations,which_phase,stop_signal_trial_type,left_SSD,right_SSD,accuracy,chosen_bidding_amount,chosen_bidding_level,possible_bid_1,possible_bid_2,possible_bid_3,possible_bid_4,possible_bid_5,possible_bid_6,color_text,shape_text
35.0,5.0,0.5,1.0,4.0,4.0,434.91056188941,1.0,1.0,phase_1,,,,,,,,,,,,,orange,circle
89.0,6.0,1.0,1.0,1.0,1.0,354.7785487025976,1.0,1.0,phase_1,,,,,,,,,,,,,blue,I
91.0,2.0,1.0,0.0,2.0,2.0,291.7065806686878,1.0,1.0,phase_1,,,,,,,,,,,,,gray,diamond
107.0,2.0,1.0,0.0,2.0,2.0,305.2188595756888,1.0,1.0,phase_1,,,,,,,,,,,,,gray,diamond
393.0,8.0,4.0,1.0,1.0,1.0,309.3277839943766,1.0,1.0,phase_1,,,,,,,,,,,,,cyan,cross
391.0,4.0,4.0,0.0,1.0,1.0,308.1927765160799,1.0,1.0,phase_1,,,,,,,,,,,,,magenta,square
0.0,2.0,0.0,0.0,1.0,1.0,313.0618296563625,1.0,1.0,phase_1,,,,,,,,,,,,,gray,diamond
0.0,6.0,0.0,1.0,3.0,3.0,323.8256825134158,1.0,1.0,phase_1,,,,,,,,,,,,,blue,I
41.0,1.0,0.5,0.0,4.0,4.0,370.1557423919439,1.0,1.0,phase_1,,,,,,,,,,,,,green,triangle
0.0,5.0,0.0,1.0,3.0,3.0,374.8882468789816,1.0,1.0,phase_1,,,,,,,,,,,,,orange,circle
0.0,8.0,0.0,1.0,3.0,3.0,349.8948020860553,1.0,1.0,phase_1,,,,,,,,,,,,,cyan,cross
198.0,7.0,2.0,1.0,1.0,1.0,296.4921249076724,1.0,1.0,phase_1,,,,,,,,,,,,,yellow,hexagon
0.0,5.0,0.0,1.0,1.0,1.0,341.7401304468512,1.0,1.0,phase_1,,,,,,,,,,,,,orange,circle
77.0,2.0,1.0,0.0,1.0,1.0,280.2105359733104,1.0,1.0,phase_1,,,,,,,,,,,,,gray,diamond
207.0,3.0,2.0,0.0,4.0,4.0,318.3237072080374,1.0,1.0,phase_1,,,,,,,,,,,,,white,flipped triangle
184.0,3.0,2.0,0.0,3.0,3.0,355.3111422806978,1.0,1.0,phase_1,,,,,,,,,,,,,white,flipped triangle
203.0,3.0,2.0,0.0,4.0,4.0,301.9568668678403,1.0,1.0,phase_1,,,,,,,,,,,,,white,flipped triangle
103.0,6.0,1.0,1.0,3.0,3.0,330.1703855395317,1.0,1.0,phase_1,,,,,,,,,,,,,blue,I
191.0,7.0,2.0,1.0,4.0,4.0,291.0298639908433,1.0,1.0,phase_1,,,,,,,,,,,,,yellow,hexagon
0.0,6.0,0.0,1.0,1.0,1.0,327.4467010051012,1.0,1.0,phase_1,,,,,,,,,,,,,blue,I
0.0,3.0,0.0,0.0,4.0,4.0,313.3548386394977,1.0,1.0,phase_1,,,,,,,,,,,,,white,flipped triangle
386.0,4.0,4.0,0.0,1.0,1.0,269.2707497626543,1.0,1.0,phase_1,,,,,,,,,,,,,magenta,square
114.0,2.0,1.0,0.0,4.0,4.0,468.4742819517851,1.0,1.0,phase_1,,,,,,,,,,,,,gray,diamond
0.0,5.0,0.0,1.0,2.0,2.0,377.1117217838764,1.0,1.0,phase_1,,,,,,,,,,,,,orange,circle
412.0,8.0,4.0,1.0,4.0,4.0,325.7445991039276,1.0,1.0,phase_1,,,,,,,,,,,,,cyan,cross
0.0,3.0,0.0,0.0,3.0,3.0,335.9428513795137,1.0,1.0,phase_1,,,,,,,,,,,,,white,flipped triangle
401.0,8.0,4.0,1.0,4.0,4.0,332.5436757877469,1.0,1.0,phase_1,,,,,,,,,,,,,cyan,cross
103.0,2.0,1.0,0.0,3.0,3.0,363.5331746190786,1.0,1.0,phase_1,,,,,,,,,,,,,gray,diamond
205.0,3.0,2.0,0.0,3.0,3.0,287.9136521369219,1.0,1.0,phase_1,,,,,,,,,,,,,white,flipped triangle
115.0,2.0,1.0,0.0,4.0,4.0,323.3854081481695,1.0,1.0,phase_1,,,,,,,,,,,,,gray,diamond
78.0,6.0,1.0,1.0,3.0,3.0,338.7573389336467,1.0,1.0,phase_1,,,,,,,,,,,,,blue,I
0.0,5.0,0.0,1.0,4.0,4.0,340.6177293509245,1.0,1.0,phase_1,,,,,,,,,,,,,orange,circle
176.0,7.0,2.0,1.0,3.0,3.0,338.3299140259623,1.0,1.0,phase_1,,,,,,,,,,,,,yellow,hexagon
117.0,2.0,1.0,0.0,4.0,4.0,349.4917619973421,1.0,1.0,phase_1,,,,,,,,,,,,,gray,diamond
0.0,4.0,0.0,0.0,4.0,4.0,349.8487956821918,1.0,1.0,phase_1,,,,,,,,,,,,,magenta,square
0.0,6.0,0.0,1.0,4.0,4.0,296.7270417138934,1.0,1.0,phase_1,,,,,,,,,,,,,blue,I
52.0,1.0,0.5,0.0,2.0,2.0,341.841890476644,1.0,1.0,phase_1,,,,,,,,,,,,,green,triangle
0.0,3.0,0.0,0.0,1.0,1.0,346.3871274143457,1.0,1.0,phase_1,,,,,,,,,,,,,white,flipped triangle
419.0,4.0,4.0,0.0,2.0,2.0,309.0644832700491,1.0,1.0,phase_1,,,,,,,,,,,,,magenta,square
50.0,1.0,0.5,0.0,4.0,4.0,317.1755336225033,1.0,1.0,phase_1,,,,,,,,,,,,,green,triangle
33.0,1.0,0.5,0.0,2.0,2.0,314.03689179569477,1.0,1.0,phase_1,,,,,,,,,,,,,green,triangle
221.0,7.0,2.0,1.0,4.0,4.0,333.7909756228328,1.0,1.0,phase_1,,,,,,,,,,,,,yellow,hexagon
36.0,5.0,0.5,1.0,2.0,2.0,314.4319821149111,1.0,1.0,phase_1,,,,,,,,,,,,,orange,circle
90.0,6.0,1.0,1.0,1.0,1.0,309.9844865500927,1.0,1.0,phase_1,,,,,,,,,,,,,blue,I
45.0,5.0,0.5,1.0,2.0,2.0,345.7309044897556,1.0,1.0,phase_1,,,,,,,,,,,,,orange,circle
0.0,6.0,0.0,1.0,1.0,1.0,305.0065394490957,1.0,1.0,phase_1,,,,,,,,,,,,,blue,I
401.0,8.0,4.0,1.0,2.0,2.0,301.0694263502955,1.0,1.0,phase_1,,,,,,,,,,,,,cyan,cross
116.0,2.0,1.0,0.0,1.0,1.0,322.5327730178833,1.0,1.0,phase_1,,,,,,,,,,,,,gray,diamond
389.0,4.0,4.0,0.0,1.0,1.0,318.048108369112,1.0,1.0,phase_1,,,,,,,,,,,,,magenta,square
418.0,4.0,4.0,0.0,3.0,3.0,379.2334822937846,1.0,1.0,phase_1,,,,,,,,,,,,,magenta,square
215.0,3.0,2.0,0.0,1.0,1.0,288.170394487679,1.0,1.0,phase_1,,,,,,,,,,,,,white,flipped triangle
104.0,2.0,1.0,0.0,1.0,1.0,274.6870247647166,1.0,1.0,phase_1,,,,,,,,,,,,,gray,diamond
49.0,5.0,0.5,1.0,4.0,4.0,511.0298991203308,1.0,1.0,phase_1,,,,,,,,,,,,,orange,circle
392.0,8.0,4.0,1.0,3.0,3.0,358.0351304262876,1.0,1.0,phase_1,,,,,,,,,,,,,cyan,cross
65.0,1.0,0.5,0.0,2.0,2.0,363.6436648666858,1.0,1.0,phase_1,,,,,,,,,,,,,green,triangle
28.0,1.0,0.5,0.0,2.0,2.0,375.5955751985311,1.0,1.0,phase_1,,,,,,,,,,,,,green,triangle
69.0,1.0,0.5,0.0,3.0,3.0,340.3117367997765,1.0,1.0,phase_1,,,,,,,,,,,,,green,triangle
393.0,8.0,4.0,1.0,3.0,3.0,342.0469621196389,1.0,1.0,phase_1,,,,,,,,,,,,,cyan,cross
0.0,8.0,0.0,1.0,2.0,2.0,332.8775968402624,1.0,1.0,phase_1,,,,,,,,,,,,,cyan,cross
421.0,4.0,4.0,0.0,1.0,1.0,287.7398738637566,1.0,1.0,phase_1,,,,,,,,,,,,,magenta,square
28.0,1.0,0.5,0.0,4.0,4.0,342.3376958817243,1.0,1.0,phase_1,,,,,,,,,,,,,green,triangle
63.0,1.0,0.5,0.0,3.0,3.0,362.4076982960105,1.0,1.0,phase_1,,,,,,,,,,,,,green,triangle
219.0,3.0,2.0,0.0,2.0,2.0,294.3965224549174,1.0,1.0,phase_1,,,,,,,,,,,,,white,flipped triangle
87.0,6.0,1.0,1.0,3.0,3.0,474.1592006757855,1.0,1.0,phase_1,,,,,,,,,,,,,blue,I
28.0,5.0,0.5,1.0,3.0,3.0,368.8257001340389,1.0,1.0,phase_1,,,,,,,,,,,,,orange,circle
0.0,7.0,0.0,1.0,3.0,3.0,327.447697520256,1.0,1.0,phase_1,,,,,,,,,,,,,yellow,hexagon
213.0,7.0,2.0,1.0,2.0,2.0,426.9373584538698,1.0,1.0,phase_1,,,,,,,,,,,,,yellow,hexagon
401.0,8.0,4.0,1.0,2.0,2.0,332.4372312054038,1.0,1.0,phase_1,,,,,,,,,,,,,cyan,cross
0.0,1.0,0.0,0.0,4.0,4.0,297.004004009068,1.0,2.0,phase_1,,,,,,,,,,,,,green,triangle
78.0,2.0,1.0,0.0,4.0,4.0,292.8258953616023,1.0,1.0,phase_1,,,,,,,,,,,,,gray,diamond
415.0,4.0,4.0,0.0,4.0,4.0,304.3266730383038,1.0,1.0,phase_1,,,,,,,,,,,,,magenta,square
45.0,1.0,0.5,0.0,2.0,2.0,332.2633802890777,1.0,1.0,phase_1,,,,,,,,,,,,,green,triangle
194.0,3.0,2.0,0.0,2.0,2.0,345.1373856514692,1.0,1.0,phase_1,,,,,,,,,,,,,white,flipped triangle
0.0,7.0,0.0,1.0,2.0,2.0,384.3693062663078,1.0,1.0,phase_1,,,,,,,,,,,,,yellow,hexagon
393.0,4.0,4.0,0.0,4.0,4.0,275.2231899648905,1.0,1.0,phase_1,,,,,,,,,,,,,magenta,square
380.0,4.0,4.0,0.0,3.0,3.0,327.0306168124079,1.0,1.0,phase_1,,,,,,,,,,,,,magenta,square
182.0,3.0,2.0,0.0,1.0,1.0,364.7985877469182,1.0,1.0,phase_1,,,,,,,,,,,,,white,flipped triangle
81.0,2.0,1.0,0.0,3.0,3.0,388.6465597897768,1.0,1.0,phase_1,,,,,,,,,,,,,gray,diamond
80.0,2.0,1.0,0.0,1.0,1.0,398.8260021433234,1.0,1.0,phase_1,,,,,,,,,,,,,gray,diamond
221.0,3.0,2.0,0.0,3.0,3.0,323.5336067155003,1.0,1.0,phase_1,,,,,,,,,,,,,white,flipped triangle
0.0,6.0,0.0,1.0,1.0,1.0,503.8000391796231,1.0,1.0,phase_1,,,,,,,,,,,,,blue,I
395.0,8.0,4.0,1.0,3.0,3.0,420.5175507813692,1.0,1.0,phase_1,,,,,,,,,,,,,cyan,cross
397.0,8.0,4.0,1.0,4.0,4.0,504.7321515157819,1.0,1.0,phase_1,,,,,,,,,,,,,cyan,cross
111.0,6.0,1.0,1.0,1.0,1.0,372.8504376485944,1.0,1.0,phase_1,,,,,,,,,,,,,blue,I
111.0,2.0,1.0,0.0,1.0,1.0,458.6624056100845,1.0,1.0,phase_1,,,,,,,,,,,,,gray,diamond
120.0,6.0,1.0,1.0,4.0,4.0,566.8219765648246,1.0,1.0,phase_1,,,,,,,,,,,,,blue,I
65.0,5.0,0.5,1.0,2.0,2.0,562.5245673581958,1.0,1.0,phase_1,,,,,,,,,,,,,orange,circle
201.0,3.0,2.0,0.0,3.0,3.0,423.6306743696332,1.0,1.0,phase_1,,,,,,,,,,,,,white,flipped triangle
198.0,3.0,2.0,0.0,1.0,1.0,317.2111744061112,1.0,1.0,phase_1,,,,,,,,,,,,,white,flipped triangle
87.0,2.0,1.0,0.0,2.0,2.0,400.9812949225306,1.0,1.0,phase_1,,,,,,,,,,,,,gray,diamond
185.0,7.0,2.0,1.0,3.0,3.0,311.8796581402421,1.0,1.0,phase_1,,,,,,,,,,,,,yellow,hexagon
112.0,2.0,1.0,0.0,3.0,3.0,348.5357174649834,1.0,1.0,phase_1,,,,,,,,,,,,,gray,diamond
0.0,2.0,0.0,0.0,1.0,1.0,346.4085655286908,1.0,1.0,phase_1,,,,,,,,,,,,,gray,diamond
66.0,5.0,0.5,1.0,3.0,3.0,332.7623419463634,1.0,1.0,phase_1,,,,,,,,,,,,,orange,circle
213.0,3.0,2.0,0.0,1.0,1.0,315.7702228054404,1.0,1.0,phase_1,,,,,,,,,,,,,white,flipped triangle
125.0,2.0,1.0,0.0,1.0,1.0,398.0438318103552,1.0,1.0,phase_1,,,,,,,,,,,,,gray,diamond
82.0,2.0,1.0,0.0,2.0,2.0,387.3758502304554,1.0,1.0,phase_1,,,,,,,,,,,,,gray,diamond
219.0,7.0,2.0,1.0,1.0,1.0,301.7629710957408,1.0,1.0,phase_1,,,,,,,,,,,,,yellow,hexagon
49.0,1.0,0.5,0.0,4.0,4.0,342.9321786388755,1.0,1.0,phase_1,,,,,,,,,,,,,green,triangle
0.0,6.0,0.0,1.0,1.0,1.0,321.465315297246,1.0,1.0,phase_1,,,,,,,,,,,,,blue,I
188.0,3.0,2.0,0.0,3.0,3.0,435.5013547465205,2.0,1.0,phase_1,,,,,,,,,,,,,white,flipped triangle
181.0,7.0,2.0,1.0,3.0,3.0,342.1326763927936,2.0,1.0,phase_1,,,,,,,,,,,,,yellow,hexagon
0.0,2.0,0.0,0.0,2.0,2.0,307.958678342402,2.0,1.0,phase_1,,,,,,,,,,,,,gray,diamond
0.0,7.0,0.0,1.0,3.0,3.0,290.0022817775607,2.0,1.0,phase_1,,,,,,,,,,,,,yellow,hexagon
0.0,4.0,0.0,0.0,2.0,2.0,299.7978432103991,2.0,1.0,phase_1,,,,,,,,,,,,,magenta,square
106.0,2.0,1.0,0.0,4.0,4.0,306.9313848391175,2.0,1.0,phase_1,,,,,,,,,,,,,gray,diamond
106.0,6.0,1.0,1.0,3.0,3.0,303.6294160410762,2.0,1.0,phase_1,,,,,,,,,,,,,blue,I
0.0,1.0,0.0,0.0,1.0,1.0,300.9145334362983,2.0,1.0,phase_1,,,,,,,,,,,,,green,triangle
90.0,2.0,1.0,0.0,2.0,2.0,306.037288159132,2.0,1.0,phase_1,,,,,,,,,,,,,gray,diamond
195.0,3.0,2.0,0.0,2.0,2.0,349.769321270287,2.0,1.0,phase_1,,,,,,,,,,,,,white,flipped triangle
0.0,4.0,0.0,0.0,2.0,2.0,343.8805909827351,2.0,1.0,phase_1,,,,,,,,,,,,,magenta,square
0.0,7.0,0.0,1.0,3.0,3.0,324.6893305331468,2.0,1.0,phase_1,,,,,,,,,,,,,yellow,hexagon
66.0,1.0,0.5,0.0,4.0,4.0,348.0343390256166,2.0,1.0,phase_1,,,,,,,,,,,,,green,triangle
99.0,6.0,1.0,1.0,4.0,4.0,342.8431935608387,2.0,1.0,phase_1,,,,,,,,,,,,,blue,I
393.0,4.0,4.0,0.0,1.0,1.0,291.9055465608835,2.0,1.0,phase_1,,,,,,,,,,,,,magenta,square
0.0,8.0,0.0,1.0,1.0,1.0,408.7985316291451,2.0,1.0,phase_1,,,,,,,,,,,,,cyan,cross
0.0,1.0,0.0,0.0,1.0,1.0,374.8734863474965,2.0,1.0,phase_1,,,,,,,,,,,,,green,triangle
384.0,4.0,4.0,0.0,3.0,3.0,484.42591540515417,2.0,1.0,phase_1,,,,,,,,,,,,,magenta,square
402.0,4.0,4.0,0.0,2.0,2.0,374.9955790117383,2.0,1.0,phase_1,,,,,,,,,,,,,magenta,square
55.0,5.0,0.5,1.0,2.0,2.0,373.6448725685477,2.0,1.0,phase_1,,,,,,,,,,,,,orange,circle
207.0,7.0,2.0,1.0,1.0,1.0,362.7419434487819,2.0,1.0,phase_1,,,,,,,,,,,,,yellow,hexagon
0.0,8.0,0.0,1.0,2.0,2.0,341.9301630929112,2.0,1.0,phase_1,,,,,,,,,,,,,cyan,cross
377.0,4.0,4.0,0.0,2.0,2.0,360.5169430375099,2.0,1.0,phase_1,,,,,,,,,,,,,magenta,square
0.0,8.0,0.0,1.0,3.0,3.0,367.9004991427064,2.0,1.0,phase_1,,,,,,,,,,,,,cyan,cross
104.0,6.0,1.0,1.0,1.0,1.0,386.0803293064236,2.0,1.0,phase_1,,,,,,,,,,,,,blue,I
191.0,3.0,2.0,0.0,3.0,3.0,326.7656853422522,2.0,1.0,phase_1,,,,,,,,,,,,,white,flipped triangle
28.0,5.0,0.5,1.0,4.0,4.0,395.4492900520563,2.0,1.0,phase_1,,,,,,,,,,,,,orange,circle
0.0,4.0,0.0,0.0,4.0,4.0,353.9923541247844,2.0,1.0,phase_1,,,,,,,,,,,,,magenta,square
219.0,7.0,2.0,1.0,2.0,2.0,383.874287828803,2.0,1.0,phase_1,,,,,,,,,,,,,yellow,hexagon
377.0,4.0,4.0,0.0,2.0,2.0,330.0725845620036,2.0,1.0,phase_1,,,,,,,,,,,,,magenta,square
200.0,7.0,2.0,1.0,3.0,3.0,320.3320996835828,2.0,1.0,phase_1,,,,,,,,,,,,,yellow,hexagon
112.0,6.0,1.0,1.0,4.0,4.0,322.6729044690728,2.0,1.0,phase_1,,,,,,,,,,,,,blue,I
397.0,4.0,4.0,0.0,3.0,3.0,313.2051294669509,2.0,1.0,phase_1,,,,,,,,,,,,,magenta,square
0.0,4.0,0.0,0.0,4.0,4.0,371.9329116865992,2.0,1.0,phase_1,,,,,,,,,,,,,magenta,square
0.0,7.0,0.0,1.0,2.0,2.0,314.7229924798012,2.0,1.0,phase_1,,,,,,,,,,,,,yellow,hexagon
0.0,3.0,0.0,0.0,2.0,2.0,400.5289087072015,2.0,1.0,phase_1,,,,,,,,,,,,,white,flipped triangle
118.0,2.0,1.0,0.0,4.0,4.0,290.9840894863009,2.0,1.0,phase_1,,,,,,,,,,,,,gray,diamond
79.0,2.0,1.0,0.0,2.0,2.0,342.5284419208765,2.0,1.0,phase_1,,,,,,,,,,,,,gray,diamond
0.0,6.0,0.0,1.0,2.0,2.0,410.9238451346755,2.0,1.0,phase_1,,,,,,,,,,,,,blue,I
0.0,2.0,0.0,0.0,3.0,3.0,370.3327411785722,2.0,1.0,phase_1,,,,,,,,,,,,,gray,diamond
50.0,5.0,0.5,1.0,2.0,2.0,356.3332613557577,2.0,1.0,phase_1,,,,,,,,,,,,,orange,circle
0.0,7.0,0.0,1.0,3.0,3.0,331.2809839844703,2.0,1.0,phase_1,,,,,,,,,,,,,yellow,hexagon
219.0,3.0,2.0,0.0,2.0,2.0,575.3706553950906,2.0,1.0,phase_1,,,,,,,,,,,,,white,flipped triangle
98.0,2.0,1.0,0.0,3.0,3.0,358.9998818933964,2.0,1.0,phase_1,,,,,,,,,,,,,gray,diamond
98.0,6.0,1.0,1.0,4.0,4.0,385.5356946587562,2.0,1.0,phase_1,,,,,,,,,,,,,blue,I
66.0,5.0,0.5,1.0,1.0,1.0,344.0462658181786,2.0,1.0,phase_1,,,,,,,,,,,,,orange,circle
41.0,5.0,0.5,1.0,4.0,4.0,345.3171402215957,2.0,1.0,phase_1,,,,,,,,,,,,,orange,circle
123.0,6.0,1.0,1.0,4.0,4.0,376.2372527271509,2.0,1.0,phase_1,,,,,,,,,,,,,blue,I
69.0,5.0,0.5,1.0,1.0,1.0,398.1806477531791,2.0,1.0,phase_1,,,,,,,,,,,,,orange,circle
424.0,4.0,4.0,0.0,4.0,4.0,464.6401153877377,2.0,1.0,phase_1,,,,,,,,,,,,,magenta,square
0.0,3.0,0.0,0.0,3.0,3.0,365.4744299128651,2.0,1.0,phase_1,,,,,,,,,,,,,white,flipped triangle
390.0,4.0,4.0,0.0,1.0,1.0,450.9100802242756,2.0,1.0,phase_1,,,,,,,,,,,,,magenta,square
0.0,1.0,0.0,0.0,1.0,1.0,356.7985836416483,2.0,1.0,phase_1,,,,,,,,,,,,,green,triangle
59.0,1.0,0.5,0.0,3.0,3.0,369.5136290043592,2.0,1.0,phase_1,,,,,,,,,,,,,green,triangle
214.0,3.0,2.0,0.0,2.0,2.0,382.7703753486275,2.0,1.0,phase_1,,,,,,,,,,,,,white,flipped triangle
178.0,3.0,2.0,0.0,2.0,2.0,317.8204242140054,2.0,1.0,phase_1,,,,,,,,,,,,,white,flipped triangle
392.0,4.0,4.0,0.0,2.0,2.0,359.5488062128424,2.0,1.0,phase_1,,,,,,,,,,,,,magenta,square
181.0,7.0,2.0,1.0,2.0,2.0,331.9046422839165,2.0,1.0,phase_1,,,,,,,,,,,,,yellow,hexagon
203.0,7.0,2.0,1.0,3.0,3.0,498.252441175282,2.0,1.0,phase_1,,,,,,,,,,,,,yellow,hexagon
0.0,8.0,0.0,1.0,2.0,2.0,344.9889831244945,2.0,1.0,phase_1,,,,,,,,,,,,,cyan,cross
66.0,1.0,0.5,0.0,1.0,1.0,366.4418505504727,2.0,1.0,phase_1,,,,,,,,,,,,,green,triangle
397.0,4.0,4.0,0.0,3.0,3.0,352.0058784633875,2.0,1.0,phase_1,,,,,,,,,,,,,magenta,square
0.0,4.0,0.0,0.0,4.0,4.0,299.9933194369077,2.0,1.0,phase_1,,,,,,,,,,,,,magenta,square
0.0,5.0,0.0,1.0,1.0,1.0,296.6898484155535,2.0,1.0,phase_1,,,,,,,,,,,,,orange,circle
421.0,8.0,4.0,1.0,3.0,3.0,344.1649321466684,2.0,1.0,phase_1,,,,,,,,,,,,,cyan,cross
121.0,2.0,1.0,0.0,4.0,4.0,364.7842807695269,2.0,1.0,phase_1,,,,,,,,,,,,,gray,diamond
0.0,5.0,0.0,1.0,4.0,4.0,366.8922763317823,2.0,1.0,phase_1,,,,,,,,,,,,,orange,circle
182.0,7.0,2.0,1.0,4.0,4.0,317.3277089372277,2.0,1.0,phase_1,,,,,,,,,,,,,yellow,hexagon
188.0,3.0,2.0,0.0,3.0,3.0,338.1974352523684,2.0,1.0,phase_1,,,,,,,,,,,,,white,flipped triangle
185.0,3.0,2.0,0.0,2.0,2.0,424.3677081540227,2.0,1.0,phase_1,,,,,,,,,,,,,white,flipped triangle
186.0,3.0,2.0,0.0,3.0,3.0,332.0225952193141,2.0,1.0,phase_1,,,,,,,,,,,,,white,flipped triangle
386.0,8.0,4.0,1.0,3.0,3.0,504.754857160151,2.0,1.0,phase_1,,,,,,,,,,,,,cyan,cross
409.0,8.0,4.0,1.0,3.0,3.0,341.5071256458759,2.0,1.0,phase_1,,,,,,,,,,,,,cyan,cross
121.0,2.0,1.0,0.0,3.0,3.0,321.4107127860188,2.0,1.0,phase_1,,,,,,,,,,,,,gray,diamond
404.0,4.0,4.0,0.0,2.0,2.0,389.9581581354141,2.0,1.0,phase_1,,,,,,,,,,,,,magenta,square
115.0,6.0,1.0,1.0,3.0,3.0,330.906200222671,2.0,1.0,phase_1,,,,,,,,,,,,,blue,I
0.0,2.0,0.0,0.0,4.0,4.0,397.9462562128901,2.0,1.0,phase_1,,,,,,,,,,,,,gray,diamond
422.0,8.0,4.0,1.0,3.0,3.0,348.5173266381025,2.0,1.0,phase_1,,,,,,,,,,,,,cyan,cross
189.0,7.0,2.0,1.0,4.0,4.0,334.8516067489981,2.0,1.0,phase_1,,,,,,,,,,,,,yellow,hexagon
80.0,2.0,1.0,0.0,2.0,2.0,349.7218862175941,2.0,1.0,phase_1,,,,,,,,,,,,,gray,diamond
82.0,6.0,1.0,1.0,2.0,2.0,384.2035969719291,2.0,1.0,phase_1,,,,,,,,,,,,,blue,I
56.0,5.0,0.5,1.0,1.0,1.0,423.5736858099699,2.0,1.0,phase_1,,,,,,,,,,,,,orange,circle
418.0,8.0,4.0,1.0,3.0,3.0,333.7727691978216,2.0,1.0,phase_1,,,,,,,,,,,,,cyan,cross
209.0,7.0,2.0,1.0,2.0,2.0,361.459762789309,2.0,1.0,phase_1,,,,,,,,,,,,,yellow,hexagon
33.0,5.0,0.5,1.0,1.0,1.0,314.7030500695109,2.0,1.0,phase_1,,,,,,,,,,,,,orange,circle
0.0,4.0,0.0,0.0,1.0,1.0,298.7537961453199,2.0,1.0,phase_1,,,,,,,,,,,,,magenta,square
54.0,5.0,0.5,1.0,2.0,2.0,334.854076616466,2.0,1.0,phase_1,,,,,,,,,,,,,orange,circle
407.0,4.0,4.0,0.0,3.0,3.0,340.1171779260039,2.0,1.0,phase_1,,,,,,,,,,,,,magenta,square
0.0,3.0,0.0,0.0,2.0,2.0,360.9572546556592,2.0,1.0,phase_1,,,,,,,,,,,,,white,flipped triangle
198.0,7.0,2.0,1.0,3.0,3.0,299.8862201347947,2.0,1.0,phase_1,,,,,,,,,,,,,yellow,hexagon
0.0,3.0,0.0,0.0,3.0,3.0,319.010803475976,2.0,1.0,phase_1,,,,,,,,,,,,,white,flipped triangle
199.0,7.0,2.0,1.0,1.0,1.0,291.6360273957252,2.0,1.0,phase_1,,,,,,,,,,,,,yellow,hexagon
73.0,1.0,0.5,0.0,3.0,3.0,332.3231441900134,2.0,1.0,phase_1,,,,,,,,,,,,,green,triangle
69.0,1.0,0.5,0.0,4.0,4.0,317.4601215869188,2.0,1.0,phase_1,,,,,,,,,,,,,green,triangle
412.0,4.0,4.0,0.0,2.0,2.0,394.5591300725937,2.0,1.0,phase_1,,,,,,,,,,,,,magenta,square
224.0,3.0,2.0,0.0,1.0,1.0,457.625494338572,2.0,1.0,phase_1,,,,,,,,,,,,,white,flipped triangle
26.0,1.0,0.5,0.0,3.0,3.0,388.1070846691727,2.0,1.0,phase_1,,,,,,,,,,,,,green,triangle
80.0,6.0,1.0,1.0,3.0,3.0,354.443154297769,2.0,1.0,phase_1,,,,,,,,,,,,,blue,I
36.0,1.0,0.5,0.0,3.0,3.0,408.6588295176625,2.0,1.0,phase_1,,,,,,,,,,,,,green,triangle
56.0,5.0,0.5,1.0,2.0,2.0,404.4436328113079,2.0,1.0,phase_1,,,,,,,,,,,,,orange,circle
0.0,6.0,0.0,1.0,2.0,2.0,426.8932277336716,3.0,1.0,phase_1,,,,,,,,,,,,,blue,I
37.0,1.0,0.5,0.0,4.0,4.0,528.2990681007504,3.0,1.0,phase_1,,,,,,,,,,,,,green,triangle
63.0,5.0,0.5,1.0,4.0,4.0,350.8378099650144,3.0,1.0,phase_1,,,,,,,,,,,,,orange,circle
0.0,2.0,0.0,0.0,2.0,2.0,292.1358803287148,3.0,1.0,phase_1,,,,,,,,,,,,,gray,diamond
80.0,6.0,1.0,1.0,1.0,1.0,447.8441588580608,3.0,1.0,phase_1,,,,,,,,,,,,,blue,I
214.0,7.0,2.0,1.0,1.0,1.0,571.7482985928655,3.0,1.0,phase_1,,,,,,,,,,,,,yellow,hexagon
397.0,8.0,4.0,1.0,2.0,2.0,329.514947719872,3.0,1.0,phase_1,,,,,,,,,,,,,cyan,cross
221.0,7.0,2.0,1.0,3.0,3.0,357.8858012333512,3.0,1.0,phase_1,,,,,,,,,,,,,yellow,hexagon
77.0,6.0,1.0,1.0,4.0,4.0,396.7974819242954,3.0,1.0,phase_1,,,,,,,,,,,,,blue,I
401.0,4.0,4.0,0.0,2.0,2.0,366.1651071161032,3.0,1.0,phase_1,,,,,,,,,,,,,magenta,square
412.0,8.0,4.0,1.0,1.0,1.0,338.256174698472,3.0,1.0,phase_1,,,,,,,,,,,,,cyan,cross
30.0,1.0,0.5,0.0,4.0,4.0,450.1138860359788,3.0,1.0,phase_1,,,,,,,,,,,,,green,triangle
79.0,6.0,1.0,1.0,2.0,2.0,326.1703448370099,3.0,1.0,phase_1,,,,,,,,,,,,,blue,I
380.0,8.0,4.0,1.0,3.0,3.0,508.37563537061214,3.0,1.0,phase_1,,,,,,,,,,,,,cyan,cross
0.0,8.0,0.0,1.0,1.0,1.0,317.6018903031945,3.0,1.0,phase_1,,,,,,,,,,,,,cyan,cross
67.0,1.0,0.5,0.0,2.0,2.0,329.7690395265817,3.0,1.0,phase_1,,,,,,,,,,,,,green,triangle
0.0,2.0,0.0,0.0,1.0,1.0,321.055619046092,3.0,1.0,phase_1,,,,,,,,,,,,,gray,diamond
56.0,1.0,0.5,0.0,1.0,1.0,310.7405556365847,3.0,1.0,phase_1,,,,,,,,,,,,,green,triangle
0.0,1.0,0.0,0.0,1.0,1.0,314.5266994833946,3.0,1.0,phase_1,,,,,,,,,,,,,green,triangle
205.0,7.0,2.0,1.0,2.0,2.0,383.1571917980909,3.0,1.0,phase_1,,,,,,,,,,,,,yellow,hexagon
62.0,1.0,0.5,0.0,1.0,1.0,304.9928452819586,3.0,1.0,phase_1,,,,,,,,,,,,,green,triangle
397.0,4.0,4.0,0.0,2.0,2.0,296.8369275331497,3.0,1.0,phase_1,,,,,,,,,,,,,magenta,square
0.0,4.0,0.0,0.0,4.0,4.0,509.73798986524343,3.0,1.0,phase_1,,,,,,,,,,,,,magenta,square
407.0,4.0,4.0,0.0,1.0,1.0,297.1151378005743,3.0,1.0,phase_1,,,,,,,,,,,,,magenta,square
28.0,1.0,0.5,0.0,2.0,2.0,334.8078923299908,3.0,1.0,phase_1,,,,,,,,,,,,,green,triangle
394.0,8.0,4.0,1.0,1.0,1.0,321.1084017530083,3.0,1.0,phase_1,,,,,,,,,,,,,cyan,cross
63.0,1.0,0.5,0.0,1.0,1.0,319.4810217246413,3.0,1.0,phase_1,,,,,,,,,,,,,green,triangle
386.0,4.0,4.0,0.0,4.0,4.0,329.9634922295809,3.0,1.0,phase_1,,,,,,,,,,,,,magenta,square
62.0,5.0,0.5,1.0,1.0,1.0,310.4451261460781,3.0,1.0,phase_1,,,,,,,,,,,,,orange,circle
28.0,5.0,0.5,1.0,4.0,4.0,355.2809106186032,3.0,1.0,phase_1,,,,,,,,,,,,,orange,circle
389.0,8.0,4.0,1.0,4.0,4.0,370.7385472953319,3.0,1.0,phase_1,,,,,,,,,,,,,cyan,cross
209.0,3.0,2.0,0.0,1.0,1.0,414.7831378504634,3.0,1.0,phase_1,,,,,,,,,,,,,white,flipped triangle
383.0,4.0,4.0,0.0,1.0,1.0,443.6836009845137,3.0,1.0,phase_1,,,,,,,,,,,,,magenta,square
40.0,5.0,0.5,1.0,2.0,2.0,349.7185716405511,3.0,1.0,phase_1,,,,,,,,,,,,,orange,circle
117.0,2.0,1.0,0.0,1.0,1.0,315.3530955314636,3.0,1.0,phase_1,,,,,,,,,,,,,gray,diamond
0.0,8.0,0.0,1.0,4.0,4.0,415.2053808793425,3.0,1.0,phase_1,,,,,,,,,,,,,cyan,cross
52.0,5.0,0.5,1.0,1.0,1.0,324.248980730772,3.0,1.0,phase_1,,,,,,,,,,,,,orange,circle
202.0,3.0,2.0,0.0,3.0,3.0,320.8847101777792,3.0,1.0,phase_1,,,,,,,,,,,,,white,flipped triangle
221.0,3.0,2.0,0.0,4.0,4.0,365.5388467013836,3.0,1.0,phase_1,,,,,,,,,,,,,white,flipped triangle
199.0,3.0,2.0,0.0,2.0,2.0,325.90592931956047,3.0,1.0,phase_1,,,,,,,,,,,,,white,flipped triangle
36.0,5.0,0.5,1.0,1.0,1.0,330.0540186464786,3.0,1.0,phase_1,,,,,,,,,,,,,orange,circle
52.0,5.0,0.5,1.0,4.0,4.0,374.6862728148699,3.0,1.0,phase_1,,,,,,,,,,,,,orange,circle
210.0,3.0,2.0,0.0,2.0,2.0,578.0820231884718,3.0,1.0,phase_1,,,,,,,,,,,,,white,flipped triangle
37.0,5.0,0.5,1.0,1.0,1.0,308.9165464043617,3.0,1.0,phase_1,,,,,,,,,,,,,orange,circle
0.0,4.0,0.0,0.0,2.0,2.0,308.4524013102054,3.0,1.0,phase_1,,,,,,,,,,,,,magenta,square
377.0,8.0,4.0,1.0,4.0,4.0,303.9197437465191,3.0,1.0,phase_1,,,,,,,,,,,,,cyan,cross
97.0,6.0,1.0,1.0,3.0,3.0,326.0469902306795,3.0,1.0,phase_1,,,,,,,,,,,,,blue,I
118.0,6.0,1.0,1.0,1.0,1.0,338.3388668298721,3.0,1.0,phase_1,,,,,,,,,,,,,blue,I
28.0,1.0,0.5,0.0,3.0,3.0,300.4286708310246,3.0,1.0,phase_1,,,,,,,,,,,,,green,triangle
194.0,7.0,2.0,1.0,1.0,1.0,321.1274212226271,3.0,1.0,phase_1,,,,,,,,,,,,,yellow,hexagon
106.0,6.0,1.0,1.0,2.0,2.0,422.8703519329428,3.0,1.0,phase_1,,,,,,,,,,,,,blue,I
378.0,4.0,4.0,0.0,4.0,4.0,317.3191528767347,3.0,1.0,phase_1,,,,,,,,,,,,,magenta,square
195.0,7.0,2.0,1.0,4.0,4.0,310.8630953356623,3.0,1.0,phase_1,,,,,,,,,,,,,yellow,hexagon
184.0,7.0,2.0,1.0,2.0,2.0,341.8442877009511,3.0,1.0,phase_1,,,,,,,,,,,,,yellow,hexagon
0.0,5.0,0.0,1.0,1.0,1.0,368.104568682611,3.0,1.0,phase_1,,,,,,,,,,,,,orange,circle
385.0,8.0,4.0,1.0,2.0,2.0,341.7611373588443,3.0,1.0,phase_1,,,,,,,,,,,,,cyan,cross
0.0,2.0,0.0,0.0,4.0,4.0,323.3316391706466,3.0,1.0,phase_1,,,,,,,,,,,,,gray,diamond
69.0,5.0,0.5,1.0,4.0,4.0,358.6910888552665,3.0,1.0,phase_1,,,,,,,,,,,,,orange,circle
125.0,6.0,1.0,1.0,2.0,2.0,309.0038299560547,3.0,1.0,phase_1,,,,,,,,,,,,,blue,I
54.0,1.0,0.5,0.0,1.0,1.0,320.7023292779922,3.0,1.0,phase_1,,,,,,,,,,,,,green,triangle
181.0,3.0,2.0,0.0,4.0,4.0,308.6147960275411,3.0,1.0,phase_1,,,,,,,,,,,,,white,flipped triangle
116.0,6.0,1.0,1.0,1.0,1.0,283.3226025104522,3.0,1.0,phase_1,,,,,,,,,,,,,blue,I
401.0,4.0,4.0,0.0,4.0,4.0,306.0423312708735,3.0,1.0,phase_1,,,,,,,,,,,,,magenta,square
407.0,8.0,4.0,1.0,4.0,4.0,341.2568559870124,3.0,1.0,phase_1,,,,,,,,,,,,,cyan,cross
34.0,5.0,0.5,1.0,4.0,4.0,329.2304240167141,3.0,1.0,phase_1,,,,,,,,,,,,,orange,circle
71.0,1.0,0.5,0.0,2.0,2.0,427.4883298203349,3.0,1.0,phase_1,,,,,,,,,,,,,green,triangle
0.0,3.0,0.0,0.0,3.0,3.0,345.4803880304098,3.0,1.0,phase_1,,,,,,,,,,,,,white,flipped triangle
0.0,5.0,0.0,1.0,2.0,2.0,464.6470854058862,3.0,1.0,phase_1,,,,,,,,,,,,,orange,circle
402.0,8.0,4.0,1.0,1.0,1.0,308.7803078815341,3.0,1.0,phase_1,,,,,,,,,,,,,cyan,cross
0.0,6.0,0.0,1.0,3.0,3.0,354.5560892671346,3.0,1.0,phase_1,,,,,,,,,,,,,blue,I
0.0,6.0,0.0,1.0,3.0,3.0,534.1875860467553,3.0,1.0,phase_1,,,,,,,,,,,,,blue,I
424.0,4.0,4.0,0.0,3.0,3.0,547.0610382035375,3.0,1.0,phase_1,,,,,,,,,,,,,magenta,square
106.0,2.0,1.0,0.0,3.0,3.0,367.8008252754807,3.0,1.0,phase_1,,,,,,,,,,,,,gray,diamond
80.0,2.0,1.0,0.0,3.0,3.0,316.7857201769948,3.0,1.0,phase_1,,,,,,,,,,,,,gray,diamond
210.0,7.0,2.0,1.0,1.0,1.0,342.1018458902836,3.0,1.0,phase_1,,,,,,,,,,,,,yellow,hexagon
0.0,3.0,0.0,0.0,3.0,3.0,316.3977852091193,3.0,1.0,phase_1,,,,,,,,,,,,,white,flipped triangle
99.0,6.0,1.0,1.0,1.0,1.0,359.2888079583645,3.0,1.0,phase_1,,,,,,,,,,,,,blue,I
214.0,7.0,2.0,1.0,4.0,4.0,420.2972939237952,3.0,1.0,phase_1,,,,,,,,,,,,,yellow,hexagon
49.0,5.0,0.5,1.0,3.0,3.0,329.5556865632534,3.0,1.0,phase_1,,,,,,,,,,,,,orange,circle
223.0,3.0,2.0,0.0,1.0,1.0,239.0118017792701,3.0,1.0,phase_1,,,,,,,,,,,,,white,flipped triangle
399.0,8.0,4.0,1.0,4.0,4.0,331.8333802744746,3.0,1.0,phase_1,,,,,,,,,,,,,cyan,cross
404.0,8.0,4.0,1.0,1.0,1.0,322.9834493249655,3.0,1.0,phase_1,,,,,,,,,,,,,cyan,cross
117.0,6.0,1.0,1.0,4.0,4.0,333.0818293616175,3.0,1.0,phase_1,,,,,,,,,,,,,blue,I
424.0,8.0,4.0,1.0,2.0,2.0,339.8175965994596,3.0,1.0,phase_1,,,,,,,,,,,,,cyan,cross
0.0,5.0,0.0,1.0,4.0,4.0,382.0563126355409,3.0,1.0,phase_1,,,,,,,,,,,,,orange,circle
399.0,4.0,4.0,0.0,3.0,3.0,371.2513148784637,3.0,1.0,phase_1,,,,,,,,,,,,,magenta,square
72.0,1.0,0.5,0.0,3.0,3.0,310.8205366879701,3.0,1.0,phase_1,,,,,,,,,,,,,green,triangle
100.0,6.0,1.0,1.0,2.0,2.0,315.5630081892013,3.0,1.0,phase_1,,,,,,,,,,,,,blue,I
184.0,7.0,2.0,1.0,3.0,3.0,305.9900952503085,3.0,1.0,phase_1,,,,,,,,,,,,,yellow,hexagon
97.0,2.0,1.0,0.0,4.0,4.0,335.5464143678546,3.0,1.0,phase_1,,,,,,,,,,,,,gray,diamond
386.0,8.0,4.0,1.0,1.0,1.0,290.8012792468071,3.0,1.0,phase_1,,,,,,,,,,,,,cyan,cross
401.0,4.0,4.0,0.0,2.0,2.0,310.9091110527515,3.0,1.0,phase_1,,,,,,,,,,,,,magenta,square
28.0,5.0,0.5,1.0,2.0,2.0,338.2797511294484,3.0,1.0,phase_1,,,,,,,,,,,,,orange,circle
76.0,6.0,1.0,1.0,4.0,4.0,362.7412691712379,3.0,1.0,phase_1,,,,,,,,,,,,,blue,I
199.0,7.0,2.0,1.0,4.0,4.0,349.7136775404215,3.0,1.0,phase_1,,,,,,,,,,,,,yellow,hexagon
0.0,7.0,0.0,1.0,4.0,4.0,345.0655387714505,3.0,1.0,phase_1,,,,,,,,,,,,,yellow,hexagon
421.0,4.0,4.0,0.0,4.0,4.0,455.6807745248079,3.0,1.0,phase_1,,,,,,,,,,,,,magenta,square
181.0,3.0,2.0,0.0,4.0,4.0,490.4010156169534,3.0,1.0,phase_1,,,,,,,,,,,,,white,flipped triangle
215.0,7.0,2.0,1.0,2.0,2.0,383.1913052126765,3.0,1.0,phase_1,,,,,,,,,,,,,yellow,hexagon
61.0,5.0,0.5,1.0,3.0,3.0,414.3375419080257,3.0,1.0,phase_1,,,,,,,,,,,,,orange,circle
100.0,2.0,1.0,0.0,2.0,2.0,491.2814674898982,4.0,1.0,phase_1,,,,,,,,,,,,,gray,diamond
200.0,3.0,2.0,0.0,1.0,1.0,329.4374039396643,4.0,1.0,phase_1,,,,,,,,,,,,,white,flipped triangle
40.0,1.0,0.5,0.0,4.0,4.0,307.2606176137924,4.0,1.0,phase_1,,,,,,,,,,,,,green,triangle
0.0,4.0,0.0,0.0,3.0,3.0,623.6233916133642,4.0,1.0,phase_1,,,,,,,,,,,,,magenta,square
0.0,7.0,0.0,1.0,2.0,2.0,292.1759244054556,4.0,1.0,phase_1,,,,,,,,,,,,,yellow,hexagon
55.0,1.0,0.5,0.0,1.0,1.0,345.4973632469773,4.0,1.0,phase_1,,,,,,,,,,,,,green,triangle
81.0,6.0,1.0,1.0,2.0,2.0,333.924375474453,4.0,1.0,phase_1,,,,,,,,,,,,,blue,I
72.0,5.0,0.5,1.0,1.0,1.0,329.4204687699675,4.0,1.0,phase_1,,,,,,,,,,,,,orange,circle
0.0,1.0,0.0,0.0,4.0,4.0,366.4142647758126,4.0,1.0,phase_1,,,,,,,,,,,,,green,triangle
377.0,8.0,4.0,1.0,4.0,4.0,391.0249900072813,4.0,1.0,phase_1,,,,,,,,,,,,,cyan,cross
419.0,8.0,4.0,1.0,1.0,1.0,379.8043569549918,4.0,1.0,phase_1,,,,,,,,,,,,,cyan,cross
61.0,1.0,0.5,0.0,1.0,1.0,423.6856456845999,4.0,1.0,phase_1,,,,,,,,,,,,,green,triangle
383.0,8.0,4.0,1.0,2.0,2.0,369.4041930139065,4.0,1.0,phase_1,,,,,,,,,,,,,cyan,cross
56.0,1.0,0.5,0.0,1.0,1.0,349.7310634702444,4.0,1.0,phase_1,,,,,,,,,,,,,green,triangle
397.0,8.0,4.0,1.0,1.0,1.0,349.8028330504894,4.0,1.0,phase_1,,,,,,,,,,,,,cyan,cross
26.0,5.0,0.5,1.0,3.0,3.0,345.8634195849299,4.0,1.0,phase_1,,,,,,,,,,,,,orange,circle
188.0,7.0,2.0,1.0,4.0,4.0,333.0210354179144,4.0,1.0,phase_1,,,,,,,,,,,,,yellow,hexagon
78.0,6.0,1.0,1.0,3.0,3.0,396.407819353044,4.0,1.0,phase_1,,,,,,,,,,,,,blue,I
202.0,7.0,2.0,1.0,2.0,2.0,341.9840177521109,4.0,1.0,phase_1,,,,,,,,,,,,,yellow,hexagon
224.0,7.0,2.0,1.0,3.0,3.0,329.825721681118,4.0,1.0,phase_1,,,,,,,,,,,,,yellow,hexagon
395.0,4.0,4.0,0.0,4.0,4.0,338.3460454642772,4.0,1.0,phase_1,,,,,,,,,,,,,magenta,square
72.0,1.0,0.5,0.0,1.0,1.0,308.7972002103925,4.0,1.0,phase_1,,,,,,,,,,,,,green,triangle
0.0,1.0,0.0,0.0,3.0,3.0,336.9754208251834,4.0,1.0,phase_1,,,,,,,,,,,,,green,triangle
178.0,7.0,2.0,1.0,1.0,1.0,279.5544415712356,4.0,1.0,phase_1,,,,,,,,,,,,,yellow,hexagon
49.0,1.0,0.5,0.0,2.0,2.0,323.7850647419691,4.0,1.0,phase_1,,,,,,,,,,,,,green,triangle
89.0,2.0,1.0,0.0,4.0,4.0,344.5374192669987,4.0,1.0,phase_1,,,,,,,,,,,,,gray,diamond
99.0,2.0,1.0,0.0,4.0,4.0,516.0534810274839,4.0,1.0,phase_1,,,,,,,,,,,,,gray,diamond
201.0,7.0,2.0,1.0,3.0,3.0,362.2061954811215,4.0,1.0,phase_1,,,,,,,,,,,,,yellow,hexagon
198.0,3.0,2.0,0.0,4.0,4.0,340.0764632970094,4.0,1.0,phase_1,,,,,,,,,,,,,white,flipped triangle
189.0,3.0,2.0,0.0,4.0,4.0,353.9512129500508,4.0,1.0,phase_1,,,,,,,,,,,,,white,flipped triangle
384.0,8.0,4.0,1.0,4.0,4.0,369.4524560123682,4.0,1.0,phase_1,,,,,,,,,,,,,cyan,cross
0.0,2.0,0.0,0.0,1.0,1.0,372.9465436190367,4.0,1.0,phase_1,,,,,,,,,,,,,gray,diamond
71.0,5.0,0.5,1.0,4.0,4.0,385.9460512176156,4.0,1.0,phase_1,,,,,,,,,,,,,orange,circle
185.0,3.0,2.0,0.0,1.0,1.0,429.36209309846157,4.0,1.0,phase_1,,,,,,,,,,,,,white,flipped triangle
114.0,6.0,1.0,1.0,4.0,4.0,408.2878958433866,4.0,1.0,phase_1,,,,,,,,,,,,,blue,I
0.0,8.0,0.0,1.0,3.0,3.0,439.8168185725808,4.0,1.0,phase_1,,,,,,,,,,,,,cyan,cross
36.0,1.0,0.5,0.0,2.0,2.0,361.7453593760729,4.0,1.0,phase_1,,,,,,,,,,,,,green,triangle
187.0,3.0,2.0,0.0,4.0,4.0,618.5475047677755,4.0,1.0,phase_1,,,,,,,,,,,,,white,flipped triangle
121.0,6.0,1.0,1.0,1.0,1.0,427.9551692306995,4.0,1.0,phase_1,,,,,,,,,,,,,blue,I
184.0,3.0,2.0,0.0,4.0,4.0,371.3860558345914,4.0,1.0,phase_1,,,,,,,,,,,,,white,flipped triangle
0.0,7.0,0.0,1.0,3.0,3.0,326.4993540942669,4.0,1.0,phase_1,,,,,,,,,,,,,yellow,hexagon
424.0,8.0,4.0,1.0,2.0,2.0,411.8035985156894,4.0,1.0,phase_1,,,,,,,,,,,,,cyan,cross
385.0,4.0,4.0,0.0,4.0,4.0,565.9097544848919,4.0,1.0,phase_1,,,,,,,,,,,,,magenta,square
390.0,8.0,4.0,1.0,2.0,2.0,378.5095084458589,4.0,1.0,phase_1,,,,,,,,,,,,,cyan,cross
188.0,7.0,2.0,1.0,1.0,1.0,320.8856107667088,4.0,1.0,phase_1,,,,,,,,,,,,,yellow,hexagon
421.0,8.0,4.0,1.0,2.0,2.0,371.8773853033781,4.0,1.0,phase_1,,,,,,,,,,,,,cyan,cross
378.0,8.0,4.0,1.0,4.0,4.0,410.5988843366503,4.0,1.0,phase_1,,,,,,,,,,,,,cyan,cross
76.0,2.0,1.0,0.0,1.0,1.0,340.926656499505,4.0,1.0,phase_1,,,,,,,,,,,,,gray,diamond
35.0,1.0,0.5,0.0,3.0,3.0,342.0800669118762,4.0,1.0,phase_1,,,,,,,,,,,,,green,triangle
0.0,7.0,0.0,1.0,4.0,4.0,390.7303307205438,4.0,1.0,phase_1,,,,,,,,,,,,,yellow,hexagon
76.0,2.0,1.0,0.0,3.0,3.0,436.286561191082,4.0,1.0,phase_1,,,,,,,,,,,,,gray,diamond
0.0,8.0,0.0,1.0,3.0,3.0,329.3032674118876,4.0,1.0,phase_1,,,,,,,,,,,,,cyan,cross
223.0,7.0,2.0,1.0,2.0,2.0,341.167296282947,4.0,1.0,phase_1,,,,,,,,,,,,,yellow,hexagon
30.0,5.0,0.5,1.0,2.0,2.0,412.0874479413032,4.0,1.0,phase_1,,,,,,,,,,,,,orange,circle
0.0,2.0,0.0,0.0,2.0,2.0,337.0169578120112,4.0,1.0,phase_1,,,,,,,,,,,,,gray,diamond
78.0,2.0,1.0,0.0,2.0,2.0,365.7420491799712,4.0,1.0,phase_1,,,,,,,,,,,,,gray,diamond
95.0,2.0,1.0,0.0,3.0,3.0,466.0145388916135,4.0,1.0,phase_1,,,,,,,,,,,,,gray,diamond
80.0,6.0,1.0,1.0,4.0,4.0,341.183896176517,4.0,1.0,phase_1,,,,,,,,,,,,,blue,I
117.0,6.0,1.0,1.0,2.0,2.0,361.677928827703,4.0,1.0,phase_1,,,,,,,,,,,,,blue,I
99.0,2.0,1.0,0.0,1.0,1.0,365.8355688676238,4.0,1.0,phase_1,,,,,,,,,,,,,gray,diamond
0.0,3.0,0.0,0.0,2.0,2.0,460.8730636537075,4.0,1.0,phase_1,,,,,,,,,,,,,white,flipped triangle
59.0,5.0,0.5,1.0,3.0,3.0,378.550142981112,4.0,1.0,phase_1,,,,,,,,,,,,,orange,circle
120.0,2.0,1.0,0.0,1.0,1.0,341.5147950872779,4.0,1.0,phase_1,,,,,,,,,,,,,gray,diamond
63.0,5.0,0.5,1.0,3.0,3.0,396.1102124303579,4.0,1.0,phase_1,,,,,,,,,,,,,orange,circle
409.0,4.0,4.0,0.0,3.0,3.0,445.1151434332132,4.0,1.0,phase_1,,,,,,,,,,,,,magenta,square
123.0,2.0,1.0,0.0,3.0,3.0,396.1686352267861,4.0,1.0,phase_1,,,,,,,,,,,,,gray,diamond
415.0,8.0,4.0,1.0,1.0,1.0,449.9299759045243,4.0,1.0,phase_1,,,,,,,,,,,,,cyan,cross
30.0,1.0,0.5,0.0,3.0,3.0,395.3148471191525,4.0,1.0,phase_1,,,,,,,,,,,,,green,triangle
391.0,8.0,4.0,1.0,2.0,2.0,364.0214093029499,4.0,1.0,phase_1,,,,,,,,,,,,,cyan,cross
72.0,5.0,0.5,1.0,1.0,1.0,447.43570499122137,4.0,1.0,phase_1,,,,,,,,,,,,,orange,circle
112.0,2.0,1.0,0.0,2.0,2.0,410.6759373098612,4.0,1.0,phase_1,,,,,,,,,,,,,gray,diamond
0.0,1.0,0.0,0.0,2.0,2.0,373.4178487211466,4.0,1.0,phase_1,,,,,,,,,,,,,green,triangle
199.0,3.0,2.0,0.0,3.0,3.0,538.6268859729171,4.0,1.0,phase_1,,,,,,,,,,,,,white,flipped triangle
214.0,3.0,2.0,0.0,2.0,2.0,410.5857461690902,4.0,1.0,phase_1,,,,,,,,,,,,,white,flipped triangle
407.0,8.0,4.0,1.0,1.0,1.0,324.9018359929323,4.0,1.0,phase_1,,,,,,,,,,,,,cyan,cross
67.0,5.0,0.5,1.0,3.0,3.0,361.3604605197906,4.0,1.0,phase_1,,,,,,,,,,,,,orange,circle
76.0,6.0,1.0,1.0,2.0,2.0,413.9366028830409,4.0,1.0,phase_1,,,,,,,,,,,,,blue,I
185.0,7.0,2.0,1.0,4.0,4.0,339.5663797855377,4.0,1.0,phase_1,,,,,,,,,,,,,yellow,hexagon
0.0,5.0,0.0,1.0,4.0,4.0,399.2610080167651,4.0,1.0,phase_1,,,,,,,,,,,,,orange,circle
91.0,6.0,1.0,1.0,3.0,3.0,316.9404631480574,4.0,1.0,phase_1,,,,,,,,,,,,,blue,I
176.0,3.0,2.0,0.0,1.0,1.0,345.5190509557724,4.0,1.0,phase_1,,,,,,,,,,,,,white,flipped triangle
107.0,6.0,1.0,1.0,2.0,2.0,332.6856847852468,4.0,1.0,phase_1,,,,,,,,,,,,,blue,I
0.0,1.0,0.0,0.0,1.0,1.0,394.2694356665015,4.0,1.0,phase_1,,,,,,,,,,,,,green,triangle
422.0,4.0,4.0,0.0,4.0,4.0,325.9118301793933,4.0,1.0,phase_1,,,,,,,,,,,,,magenta,square
412.0,4.0,4.0,0.0,1.0,1.0,398.8114763051271,4.0,1.0,phase_1,,,,,,,,,,,,,magenta,square
219.0,7.0,2.0,1.0,4.0,4.0,313.1024809554219,4.0,1.0,phase_1,,,,,,,,,,,,,yellow,hexagon
34.0,1.0,0.5,0.0,4.0,4.0,345.2111147344112,4.0,2.0,phase_1,,,,,,,,,,,,,green,triangle
404.0,4.0,4.0,0.0,3.0,3.0,383.9869704097509,4.0,1.0,phase_1,,,,,,,,,,,,,magenta,square
30.0,5.0,0.5,1.0,3.0,3.0,410.3204356506467,4.0,1.0,phase_1,,,,,,,,,,,,,orange,circle
121.0,6.0,1.0,1.0,3.0,3.0,374.990401789546,4.0,1.0,phase_1,,,,,,,,,,,,,blue,I
404.0,8.0,4.0,1.0,3.0,3.0,351.0827412828803,4.0,1.0,phase_1,,,,,,,,,,,,,cyan,cross
73.0,5.0,0.5,1.0,3.0,3.0,368.902288377285,4.0,1.0,phase_1,,,,,,,,,,,,,orange,circle
394.0,4.0,4.0,0.0,1.0,1.0,461.0657533630728,4.0,1.0,phase_1,,,,,,,,,,,,,magenta,square
187.0,7.0,2.0,1.0,1.0,1.0,353.6880230531096,4.0,1.0,phase_1,,,,,,,,,,,,,yellow,hexagon
0.0,1.0,0.0,0.0,2.0,2.0,450.0544248148799,4.0,1.0,phase_1,,,,,,,,,,,,,green,triangle
219.0,3.0,2.0,0.0,4.0,4.0,333.9924188330769,4.0,1.0,phase_1,,,,,,,,,,,,,white,flipped triangle
52.0,1.0,0.5,0.0,1.0,1.0,496.0131850093603,4.0,1.0,phase_1,,,,,,,,,,,,,green,triangle
112.0,6.0,1.0,1.0,1.0,1.0,366.7175034061074,4.0,1.0,phase_1,,,,,,,,,,,,,blue,I
95.0,6.0,1.0,1.0,2.0,2.0,314.0754718333483,4.0,1.0,phase_1,,,,,,,,,,,,,blue,I
186.0,7.0,2.0,1.0,2.0,2.0,374.5532808825373,4.0,1.0,phase_1,,,,,,,,,,,,,yellow,hexagon
0.0,2.0,1.0,0.0,5.0,5.0,390.3303761035204,1.0,1.0,phase_2,go,250.0,250.0,1.0,,,,,,,,,gray,diamond
0.0,5.0,0.5,1.0,5.0,5.0,571.3407369330525,1.0,1.0,phase_2,stop,250.0,250.0,3.0,,,,,,,,,orange,circle
0.0,7.0,2.0,1.0,6.0,0.0,0.0,1.0,1.0,phase_2,stop,200.0,250.0,4.0,,,,,,,,,yellow,hexagon
0.0,2.0,1.0,0.0,6.0,6.0,398.1904238462448,1.0,1.0,phase_2,go,200.0,300.0,1.0,,,,,,,,,gray,diamond
0.0,8.0,4.0,1.0,5.0,0.0,0.0,1.0,1.0,phase_2,stop,200.0,300.0,4.0,,,,,,,,,cyan,cross
0.0,8.0,4.0,1.0,6.0,0.0,0.0,1.0,1.0,phase_2,stop,250.0,300.0,4.0,,,,,,,,,cyan,cross
0.0,8.0,4.0,1.0,6.0,0.0,0.0,1.0,1.0,phase_2,stop,250.0,350.0,4.0,,,,,,,,,cyan,cross
0.0,7.0,2.0,1.0,5.0,5.0,491.8492874130606,1.0,1.0,phase_2,go,250.0,400.0,1.0,,,,,,,,,yellow,hexagon
0.0,1.0,0.5,0.0,6.0,6.0,663.6559190228581,1.0,1.0,phase_2,go,250.0,400.0,1.0,,,,,,,,,green,triangle
0.0,4.0,4.0,0.0,5.0,5.0,782.9788317903876,1.0,1.0,phase_2,go,250.0,400.0,1.0,,,,,,,,,magenta,square
0.0,5.0,0.5,1.0,5.0,5.0,390.566136687994,1.0,1.0,phase_2,stop,250.0,400.0,3.0,,,,,,,,,orange,circle
0.0,2.0,1.0,0.0,5.0,5.0,640.0698311626911,1.0,1.0,phase_2,go,200.0,400.0,1.0,,,,,,,,,gray,diamond
0.0,8.0,4.0,1.0,6.0,6.0,671.3521620258689,1.0,1.0,phase_2,go,200.0,400.0,1.0,,,,,,,,,cyan,cross
0.0,1.0,0.5,0.0,5.0,5.0,389.961127191782,1.0,1.0,phase_2,go,200.0,400.0,1.0,,,,,,,,,green,triangle
0.0,3.0,2.0,0.0,5.0,5.0,573.113601654768,1.0,1.0,phase_2,go,200.0,400.0,1.0,,,,,,,,,white,flipped triangle
0.0,3.0,2.0,0.0,5.0,5.0,567.7312472835183,1.0,1.0,phase_2,go,200.0,400.0,1.0,,,,,,,,,white,flipped triangle
0.0,4.0,4.0,0.0,5.0,5.0,598.2816414907575,1.0,1.0,phase_2,go,200.0,400.0,1.0,,,,,,,,,magenta,square
0.0,7.0,2.0,1.0,6.0,6.0,533.5836289450526,1.0,1.0,phase_2,stop,200.0,400.0,3.0,,,,,,,,,yellow,hexagon
0.0,1.0,0.5,0.0,6.0,6.0,778.1666368246078,1.0,1.0,phase_2,go,200.0,350.0,1.0,,,,,,,,,green,triangle
0.0,1.0,0.5,0.0,5.0,5.0,385.5225555598736,1.0,1.0,phase_2,go,200.0,350.0,1.0,,,,,,,,,green,triangle
0.0,3.0,2.0,0.0,5.0,5.0,492.8410928696394,1.0,1.0,phase_2,go,200.0,350.0,1.0,,,,,,,,,white,flipped triangle
0.0,8.0,4.0,1.0,5.0,0.0,0.0,1.0,1.0,phase_2,stop,200.0,350.0,4.0,,,,,,,,,cyan,cross
0.0,2.0,1.0,0.0,6.0,6.0,658.4114786237478,1.0,1.0,phase_2,go,250.0,350.0,1.0,,,,,,,,,gray,diamond
0.0,7.0,2.0,1.0,6.0,0.0,0.0,1.0,1.0,phase_2,stop,250.0,350.0,4.0,,,,,,,,,yellow,hexagon
0.0,1.0,0.5,0.0,6.0,6.0,654.3272603303194,1.0,1.0,phase_2,go,250.0,400.0,1.0,,,,,,,,,green,triangle
0.0,8.0,4.0,1.0,5.0,0.0,0.0,1.0,1.0,phase_2,stop,250.0,400.0,4.0,,,,,,,,,cyan,cross
0.0,3.0,2.0,0.0,6.0,6.0,365.2797471731901,1.0,1.0,phase_2,go,300.0,400.0,1.0,,,,,,,,,white,flipped triangle
0.0,5.0,0.5,1.0,6.0,6.0,685.099177993834,1.0,1.0,phase_2,go,300.0,400.0,1.0,,,,,,,,,orange,circle
0.0,4.0,4.0,0.0,5.0,5.0,495.446509681642,1.0,1.0,phase_2,go,300.0,400.0,1.0,,,,,,,,,magenta,square
0.0,8.0,4.0,1.0,6.0,6.0,294.8316168040037,1.0,1.0,phase_2,stop,300.0,400.0,3.0,,,,,,,,,cyan,cross
0.0,1.0,0.5,0.0,6.0,6.0,643.2388005778193,1.0,1.0,phase_2,go,300.0,350.0,1.0,,,,,,,,,green,triangle
0.0,3.0,2.0,0.0,6.0,6.0,429.8859508708119,1.0,1.0,phase_2,go,300.0,350.0,1.0,,,,,,,,,white,flipped triangle
0.0,3.0,2.0,0.0,6.0,6.0,394.9829181656241,1.0,1.0,phase_2,go,300.0,350.0,1.0,,,,,,,,,white,flipped triangle
0.0,2.0,1.0,0.0,5.0,5.0,405.7844616472721,1.0,1.0,phase_2,go,300.0,350.0,1.0,,,,,,,,,gray,diamond
0.0,1.0,0.5,0.0,5.0,5.0,626.4625610783696,1.0,1.0,phase_2,go,300.0,350.0,1.0,,,,,,,,,green,triangle
0.0,5.0,0.5,1.0,6.0,0.0,0.0,1.0,1.0,phase_2,stop,300.0,350.0,4.0,,,,,,,,,orange,circle
0.0,7.0,2.0,1.0,5.0,5.0,475.397921167314,2.0,1.0,phase_2,stop,300.0,400.0,3.0,,,,,,,,,yellow,hexagon
0.0,5.0,0.5,1.0,6.0,6.0,437.7011461183429,2.0,1.0,phase_2,stop,250.0,400.0,3.0,,,,,,,,,orange,circle
0.0,4.0,4.0,0.0,6.0,6.0,563.1833421066403,2.0,1.0,phase_2,go,250.0,350.0,1.0,,,,,,,,,magenta,square
0.0,4.0,4.0,0.0,5.0,5.0,545.656998641789,2.0,1.0,phase_2,go,250.0,350.0,1.0,,,,,,,,,magenta,square
0.0,5.0,0.5,1.0,6.0,6.0,377.7339551597833,2.0,1.0,phase_2,stop,250.0,350.0,3.0,,,,,,,,,orange,circle
0.0,2.0,1.0,0.0,6.0,6.0,641.0672860220075,2.0,1.0,phase_2,go,250.0,300.0,1.0,,,,,,,,,gray,diamond
0.0,1.0,0.5,0.0,5.0,5.0,631.8610673770308,2.0,1.0,phase_2,go,250.0,300.0,1.0,,,,,,,,,green,triangle
0.0,8.0,4.0,1.0,6.0,0.0,0.0,2.0,1.0,phase_2,stop,250.0,300.0,4.0,,,,,,,,,cyan,cross
0.0,8.0,4.0,1.0,5.0,5.0,600.9357795119286,2.0,1.0,phase_2,go,250.0,350.0,1.0,,,,,,,,,cyan,cross
0.0,5.0,0.5,1.0,5.0,5.0,680.7662872597575,2.0,1.0,phase_2,go,250.0,350.0,1.0,,,,,,,,,orange,circle
0.0,6.0,1.0,1.0,6.0,6.0,446.8747237697243,2.0,1.0,phase_2,stop,250.0,350.0,3.0,,,,,,,,,blue,I
0.0,2.0,1.0,0.0,5.0,5.0,365.1810176670551,2.0,1.0,phase_2,go,250.0,300.0,1.0,,,,,,,,,gray,diamond
0.0,3.0,2.0,0.0,5.0,5.0,629.4883554801345,2.0,1.0,phase_2,go,250.0,300.0,1.0,,,,,,,,,white,flipped triangle
0.0,1.0,0.5,0.0,6.0,6.0,756.1284620314837,2.0,1.0,phase_2,go,250.0,300.0,1.0,,,,,,,,,green,triangle
0.0,5.0,0.5,1.0,6.0,0.0,0.0,2.0,1.0,phase_2,stop,250.0,300.0,4.0,,,,,,,,,orange,circle
0.0,7.0,2.0,1.0,5.0,0.0,0.0,2.0,1.0,phase_2,stop,250.0,350.0,4.0,,,,,,,,,yellow,hexagon
0.0,5.0,0.5,1.0,5.0,5.0,564.3786750733852,2.0,1.0,phase_2,go,300.0,350.0,1.0,,,,,,,,,orange,circle
0.0,2.0,1.0,0.0,5.0,5.0,587.6274248585105,2.0,1.0,phase_2,go,300.0,350.0,1.0,,,,,,,,,gray,diamond
0.0,6.0,1.0,1.0,6.0,0.0,0.0,2.0,1.0,phase_2,stop,300.0,350.0,4.0,,,,,,,,,blue,I
0.0,3.0,2.0,0.0,5.0,5.0,1393.381820991635,2.0,1.0,phase_2,go,300.0,400.0,1.0,,,,,,,,,white,flipped triangle
0.0,5.0,0.5,1.0,5.0,5.0,708.0364124849439,2.0,1.0,phase_2,go,300.0,400.0,1.0,,,,,,,,,orange,circle
0.0,5.0,0.5,1.0,5.0,0.0,0.0,2.0,1.0,phase_2,stop,300.0,400.0,4.0,,,,,,,,,orange,circle
0.0,2.0,1.0,0.0,6.0,6.0,399.9654296785593,2.0,1.0,phase_2,go,350.0,400.0,1.0,,,,,,,,,gray,diamond
0.0,1.0,0.5,0.0,6.0,6.0,598.7448962405324,2.0,1.0,phase_2,go,350.0,400.0,1.0,,,,,,,,,green,triangle
0.0,3.0,2.0,0.0,6.0,6.0,360.4160910472274,2.0,1.0,phase_2,go,350.0,400.0,1.0,,,,,,,,,white,flipped triangle
0.0,5.0,0.5,1.0,6.0,6.0,359.8997872322798,2.0,1.0,phase_2,stop,350.0,400.0,3.0,,,,,,,,,orange,circle
0.0,2.0,1.0,0.0,6.0,6.0,621.5186417102814,2.0,1.0,phase_2,go,350.0,350.0,1.0,,,,,,,,,gray,diamond
0.0,5.0,0.5,1.0,5.0,0.0,0.0,2.0,1.0,phase_2,stop,350.0,350.0,4.0,,,,,,,,,orange,circle
0.0,8.0,4.0,1.0,5.0,0.0,0.0,2.0,1.0,phase_2,stop,400.0,350.0,4.0,,,,,,,,,cyan,cross
0.0,8.0,4.0,1.0,5.0,0.0,0.0,2.0,1.0,phase_2,stop,450.0,350.0,4.0,,,,,,,,,cyan,cross
0.0,4.0,4.0,0.0,6.0,6.0,572.682443074882,2.0,1.0,phase_2,go,500.0,350.0,1.0,,,,,,,,,magenta,square
0.0,7.0,2.0,1.0,5.0,5.0,678.3401407301426,2.0,1.0,phase_2,go,500.0,350.0,1.0,,,,,,,,,yellow,hexagon
0.0,6.0,1.0,1.0,5.0,5.0,385.5040287598967,2.0,1.0,phase_2,stop,500.0,350.0,3.0,,,,,,,,,blue,I
0.0,7.0,2.0,1.0,6.0,0.0,0.0,2.0,1.0,phase_2,stop,450.0,350.0,4.0,,,,,,,,,yellow,hexagon
0.0,2.0,1.0,0.0,5.0,5.0,651.1882655322552,2.0,1.0,phase_2,go,450.0,400.0,1.0,,,,,,,,,gray,diamond
0.0,4.0,4.0,0.0,6.0,6.0,728.4517148509622,2.0,1.0,phase_2,go,450.0,400.0,1.0,,,,,,,,,magenta,square
0.0,5.0,0.5,1.0,5.0,5.0,382.3027778416872,3.0,1.0,phase_2,stop,450.0,400.0,3.0,,,,,,,,,orange,circle
0.0,7.0,2.0,1.0,5.0,5.0,613.6288866400719,3.0,1.0,phase_2,go,400.0,400.0,1.0,,,,,,,,,yellow,hexagon
0.0,6.0,1.0,1.0,6.0,6.0,562.5742394477129,3.0,1.0,phase_2,stop,400.0,400.0,3.0,,,,,,,,,blue,I
0.0,5.0,0.5,1.0,5.0,0.0,0.0,3.0,1.0,phase_2,stop,400.0,350.0,4.0,,,,,,,,,orange,circle
0.0,7.0,2.0,1.0,6.0,6.0,817.5118723884225,3.0,1.0,phase_2,go,450.0,350.0,1.0,,,,,,,,,yellow,hexagon
0.0,1.0,0.5,0.0,5.0,5.0,611.6206748411059,3.0,1.0,phase_2,go,450.0,350.0,1.0,,,,,,,,,green,triangle
0.0,5.0,0.5,1.0,5.0,5.0,584.0528402477503,3.0,1.0,phase_2,stop,450.0,350.0,3.0,,,,,,,,,orange,circle
0.0,1.0,0.5,0.0,5.0,5.0,751.9471747800708,3.0,1.0,phase_2,go,400.0,350.0,1.0,,,,,,,,,green,triangle
0.0,5.0,0.5,1.0,5.0,0.0,0.0,3.0,1.0,phase_2,stop,400.0,350.0,4.0,,,,,,,,,orange,circle
0.0,2.0,1.0,0.0,5.0,5.0,687.7804724499583,3.0,1.0,phase_2,go,450.0,350.0,1.0,,,,,,,,,gray,diamond
0.0,8.0,4.0,1.0,6.0,0.0,0.0,3.0,1.0,phase_2,stop,450.0,350.0,4.0,,,,,,,,,cyan,cross
0.0,4.0,4.0,0.0,6.0,6.0,624.7928366065025,3.0,1.0,phase_2,go,450.0,400.0,1.0,,,,,,,,,magenta,square
0.0,7.0,2.0,1.0,6.0,0.0,0.0,3.0,1.0,phase_2,stop,450.0,400.0,4.0,,,,,,,,,yellow,hexagon
0.0,2.0,1.0,0.0,5.0,5.0,646.9470290467143,3.0,1.0,phase_2,go,450.0,450.0,1.0,,,,,,,,,gray,diamond
0.0,6.0,1.0,1.0,6.0,6.0,720.1173901557922,3.0,1.0,phase_2,go,450.0,450.0,1.0,,,,,,,,,blue,I
0.0,4.0,4.0,0.0,6.0,6.0,715.728391893208,3.0,1.0,phase_2,go,450.0,450.0,1.0,,,,,,,,,magenta,square
0.0,6.0,1.0,1.0,5.0,5.0,571.0673546418548,3.0,1.0,phase_2,stop,450.0,450.0,3.0,,,,,,,,,blue,I
0.0,8.0,4.0,1.0,5.0,5.0,627.6723956689239,3.0,1.0,phase_2,go,400.0,450.0,1.0,,,,,,,,,cyan,cross
0.0,8.0,4.0,1.0,6.0,6.0,540.5220780521631,3.0,1.0,phase_2,stop,400.0,450.0,3.0,,,,,,,,,cyan,cross
0.0,6.0,1.0,1.0,5.0,0.0,0.0,3.0,1.0,phase_2,stop,400.0,400.0,4.0,,,,,,,,,blue,I
0.0,7.0,2.0,1.0,5.0,0.0,0.0,3.0,1.0,phase_2,stop,450.0,400.0,4.0,,,,,,,,,yellow,hexagon
0.0,3.0,2.0,0.0,5.0,5.0,690.2594231069088,3.0,1.0,phase_2,go,500.0,400.0,1.0,,,,,,,,,white,flipped triangle
0.0,5.0,0.5,1.0,6.0,0.0,0.0,3.0,1.0,phase_2,stop,500.0,400.0,4.0,,,,,,,,,orange,circle
0.0,2.0,1.0,0.0,6.0,6.0,695.6180278211832,3.0,1.0,phase_2,go,500.0,450.0,1.0,,,,,,,,,gray,diamond
0.0,6.0,1.0,1.0,6.0,0.0,0.0,3.0,1.0,phase_2,stop,500.0,450.0,4.0,,,,,,,,,blue,I
0.0,2.0,1.0,0.0,6.0,6.0,784.7699392586946,3.0,1.0,phase_2,go,500.0,500.0,1.0,,,,,,,,,gray,diamond
0.0,8.0,4.0,1.0,5.0,0.0,0.0,3.0,1.0,phase_2,stop,500.0,500.0,4.0,,,,,,,,,cyan,cross
0.0,8.0,4.0,1.0,5.0,0.0,0.0,3.0,1.0,phase_2,stop,550.0,500.0,4.0,,,,,,,,,cyan,cross
0.0,2.0,1.0,0.0,5.0,5.0,711.6115465760231,3.0,1.0,phase_2,go,600.0,500.0,1.0,,,,,,,,,gray,diamond
0.0,8.0,4.0,1.0,6.0,0.0,0.0,3.0,1.0,phase_2,stop,600.0,500.0,4.0,,,,,,,,,cyan,cross
0.0,6.0,1.0,1.0,5.0,5.0,677.9459826648235,3.0,1.0,phase_2,stop,600.0,550.0,3.0,,,,,,,,,blue,I
0.0,4.0,4.0,0.0,6.0,6.0,868.1978480890393,3.0,1.0,phase_2,go,550.0,550.0,1.0,,,,,,,,,magenta,square
0.0,3.0,2.0,0.0,6.0,6.0,916.4332281798124,3.0,1.0,phase_2,go,550.0,550.0,1.0,,,,,,,,,white,flipped triangle
0.0,7.0,2.0,1.0,6.0,6.0,1049.3308389559388,3.0,1.0,phase_2,go,550.0,550.0,1.0,,,,,,,,,yellow,hexagon
0.0,8.0,4.0,1.0,6.0,6.0,372.3358260467648,3.0,1.0,phase_2,stop,550.0,550.0,3.0,,,,,,,,,cyan,cross
0.0,1.0,0.5,0.0,6.0,6.0,840.3202034533024,3.0,1.0,phase_2,go,550.0,500.0,1.0,,,,,,,,,green,triangle
0.0,8.0,4.0,1.0,6.0,0.0,0.0,4.0,1.0,phase_2,stop,550.0,500.0,4.0,,,,,,,,,cyan,cross
0.0,8.0,4.0,1.0,6.0,6.0,660.5000775307417,4.0,1.0,phase_2,stop,550.0,550.0,3.0,,,,,,,,,cyan,cross
0.0,4.0,4.0,0.0,6.0,6.0,662.8881562501192,4.0,1.0,phase_2,go,550.0,500.0,1.0,,,,,,,,,magenta,square
0.0,3.0,2.0,0.0,6.0,6.0,699.5037402957678,4.0,1.0,phase_2,go,550.0,500.0,1.0,,,,,,,,,white,flipped triangle
0.0,3.0,2.0,0.0,6.0,6.0,715.2534835040569,4.0,1.0,phase_2,go,550.0,500.0,1.0,,,,,,,,,white,flipped triangle
0.0,5.0,0.5,1.0,6.0,6.0,605.7651285082102,4.0,1.0,phase_2,stop,550.0,500.0,3.0,,,,,,,,,orange,circle
0.0,2.0,1.0,0.0,6.0,6.0,771.2168050929904,4.0,1.0,phase_2,go,550.0,450.0,1.0,,,,,,,,,gray,diamond
0.0,5.0,0.5,1.0,5.0,5.0,665.8113142475486,4.0,1.0,phase_2,go,550.0,450.0,1.0,,,,,,,,,orange,circle
0.0,2.0,1.0,0.0,6.0,6.0,325.0094829127192,4.0,1.0,phase_2,go,550.0,450.0,1.0,,,,,,,,,gray,diamond
0.0,1.0,0.5,0.0,5.0,5.0,616.6665069758892,4.0,1.0,phase_2,go,550.0,450.0,1.0,,,,,,,,,green,triangle
0.0,4.0,4.0,0.0,5.0,5.0,711.9006216526031,4.0,1.0,phase_2,go,550.0,450.0,1.0,,,,,,,,,magenta,square
0.0,1.0,0.5,0.0,5.0,5.0,714.2755277454853,4.0,1.0,phase_2,go,550.0,450.0,1.0,,,,,,,,,green,triangle
0.0,8.0,4.0,1.0,5.0,5.0,606.8994831293821,4.0,1.0,phase_2,stop,550.0,450.0,3.0,,,,,,,,,cyan,cross
0.0,6.0,1.0,1.0,5.0,5.0,658.0895325168967,4.0,1.0,phase_2,go,500.0,450.0,1.0,,,,,,,,,blue,I
0.0,8.0,4.0,1.0,6.0,6.0,343.6166914179921,4.0,1.0,phase_2,stop,500.0,450.0,3.0,,,,,,,,,cyan,cross
0.0,4.0,4.0,0.0,6.0,6.0,710.5601308867335,4.0,1.0,phase_2,go,500.0,400.0,1.0,,,,,,,,,magenta,square
0.0,7.0,2.0,1.0,5.0,0.0,0.0,4.0,1.0,phase_2,stop,500.0,400.0,4.0,,,,,,,,,yellow,hexagon
0.0,1.0,0.5,0.0,6.0,6.0,844.0620228648186,4.0,1.0,phase_2,go,550.0,400.0,1.0,,,,,,,,,green,triangle
0.0,7.0,2.0,1.0,5.0,5.0,691.3800789043307,4.0,1.0,phase_2,go,550.0,400.0,1.0,,,,,,,,,yellow,hexagon
0.0,7.0,2.0,1.0,5.0,5.0,606.5040268003941,4.0,1.0,phase_2,stop,550.0,400.0,3.0,,,,,,,,,yellow,hexagon
0.0,7.0,2.0,1.0,6.0,0.0,0.0,4.0,1.0,phase_2,stop,500.0,400.0,4.0,,,,,,,,,yellow,hexagon
0.0,1.0,0.5,0.0,6.0,6.0,725.7135631516576,4.0,1.0,phase_2,go,500.0,450.0,1.0,,,,,,,,,green,triangle
0.0,4.0,4.0,0.0,5.0,5.0,653.2215541228652,4.0,1.0,phase_2,go,500.0,450.0,1.0,,,,,,,,,magenta,square
0.0,1.0,0.5,0.0,5.0,5.0,716.4515312761068,4.0,1.0,phase_2,go,500.0,450.0,1.0,,,,,,,,,green,triangle
0.0,7.0,2.0,1.0,5.0,5.0,353.946166113019,4.0,1.0,phase_2,stop,500.0,450.0,3.0,,,,,,,,,yellow,hexagon
0.0,5.0,0.5,1.0,5.0,5.0,714.174690656364,4.0,1.0,phase_2,go,450.0,450.0,1.0,,,,,,,,,orange,circle
0.0,6.0,1.0,1.0,6.0,6.0,656.9332228973508,4.0,1.0,phase_2,go,450.0,450.0,1.0,,,,,,,,,blue,I
0.0,3.0,2.0,0.0,6.0,6.0,866.2042710930109,4.0,1.0,phase_2,go,450.0,450.0,1.0,,,,,,,,,white,flipped triangle
0.0,3.0,2.0,0.0,6.0,6.0,693.748832680285,4.0,1.0,phase_2,go,450.0,450.0,1.0,,,,,,,,,white,flipped triangle
0.0,8.0,4.0,1.0,5.0,5.0,673.5596172511578,4.0,1.0,phase_2,go,450.0,450.0,1.0,,,,,,,,,cyan,cross
0.0,2.0,1.0,0.0,5.0,5.0,335.5562565848231,4.0,1.0,phase_2,go,450.0,450.0,1.0,,,,,,,,,gray,diamond
0.0,3.0,2.0,0.0,6.0,6.0,655.4834730923176,4.0,1.0,phase_2,go,450.0,450.0,1.0,,,,,,,,,white,flipped triangle
0.0,3.0,2.0,0.0,6.0,6.0,756.8399328738451,4.0,1.0,phase_2,go,450.0,450.0,1.0,,,,,,,,,white,flipped triangle
0.0,6.0,1.0,1.0,6.0,0.0,0.0,4.0,1.0,phase_2,stop,450.0,450.0,4.0,,,,,,,,,blue,I
0.0,7.0,2.0,1.0,5.0,0.0,0.0,4.0,1.0,phase_2,stop,450.0,500.0,4.0,,,,,,,,,yellow,hexagon
0.0,8.0,4.0,1.0,5.0,5.0,684.4135327264667,4.0,1.0,phase_2,go,500.0,500.0,1.0,,,,,,,,,cyan,cross
0.0,2.0,1.0,0.0,5.0,5.0,703.7481497973204,5.0,1.0,phase_2,go,500.0,500.0,1.0,,,,,,,,,gray,diamond
0.0,4.0,4.0,0.0,6.0,6.0,639.166141860187,5.0,1.0,phase_2,go,500.0,500.0,1.0,,,,,,,,,magenta,square
0.0,6.0,1.0,1.0,5.0,5.0,480.074156075716,5.0,1.0,phase_2,stop,500.0,500.0,3.0,,,,,,,,,blue,I
0.0,3.0,2.0,0.0,6.0,6.0,555.6732453405857,5.0,1.0,phase_2,go,450.0,500.0,1.0,,,,,,,,,white,flipped triangle
0.0,7.0,2.0,1.0,5.0,5.0,303.1098311766982,5.0,1.0,phase_2,go,450.0,500.0,1.0,,,,,,,,,yellow,hexagon
0.0,5.0,0.5,1.0,5.0,5.0,349.0434335544705,5.0,1.0,phase_2,stop,450.0,500.0,3.0,,,,,,,,,orange,circle
0.0,8.0,4.0,1.0,6.0,6.0,652.5666955858469,5.0,1.0,phase_2,go,400.0,500.0,1.0,,,,,,,,,cyan,cross
0.0,6.0,1.0,1.0,5.0,0.0,0.0,5.0,1.0,phase_2,stop,400.0,500.0,4.0,,,,,,,,,blue,I
0.0,1.0,0.5,0.0,6.0,6.0,682.4074992910028,5.0,1.0,phase_2,go,450.0,500.0,1.0,,,,,,,,,green,triangle
0.0,1.0,0.5,0.0,5.0,5.0,588.0850339308381,5.0,1.0,phase_2,go,450.0,500.0,1.0,,,,,,,,,green,triangle
0.0,6.0,1.0,1.0,5.0,0.0,0.0,5.0,1.0,phase_2,stop,450.0,500.0,4.0,,,,,,,,,blue,I
0.0,1.0,0.5,0.0,5.0,5.0,746.7525750398636,5.0,1.0,phase_2,go,500.0,500.0,1.0,,,,,,,,,green,triangle
0.0,8.0,4.0,1.0,5.0,5.0,593.0714895948768,5.0,1.0,phase_2,go,500.0,500.0,1.0,,,,,,,,,cyan,cross
0.0,1.0,0.5,0.0,6.0,6.0,654.9201402813196,5.0,1.0,phase_2,go,500.0,500.0,1.0,,,,,,,,,green,triangle
0.0,3.0,2.0,0.0,6.0,6.0,599.8184597119689,5.0,1.0,phase_2,go,500.0,500.0,1.0,,,,,,,,,white,flipped triangle
0.0,4.0,4.0,0.0,5.0,5.0,631.8500731140375,5.0,1.0,phase_2,go,500.0,500.0,1.0,,,,,,,,,magenta,square
0.0,4.0,4.0,0.0,5.0,5.0,551.2648327276111,5.0,1.0,phase_2,go,500.0,500.0,1.0,,,,,,,,,magenta,square
0.0,7.0,2.0,1.0,6.0,6.0,557.7836539596319,5.0,1.0,phase_2,stop,500.0,500.0,3.0,,,,,,,,,yellow,hexagon
0.0,2.0,1.0,0.0,6.0,6.0,700.4975201562047,5.0,1.0,phase_2,go,500.0,450.0,1.0,,,,,,,,,gray,diamond
0.0,1.0,0.5,0.0,6.0,6.0,621.946046128869,5.0,1.0,phase_2,go,500.0,450.0,1.0,,,,,,,,,green,triangle
0.0,8.0,4.0,1.0,6.0,6.0,472.9816783219576,5.0,1.0,phase_2,stop,500.0,450.0,3.0,,,,,,,,,cyan,cross
0.0,6.0,1.0,1.0,6.0,0.0,0.0,5.0,1.0,phase_2,stop,500.0,400.0,4.0,,,,,,,,,blue,I
0.0,2.0,1.0,0.0,5.0,5.0,578.1298354268074,5.0,1.0,phase_2,go,500.0,450.0,1.0,,,,,,,,,gray,diamond
0.0,5.0,0.5,1.0,6.0,0.0,0.0,5.0,1.0,phase_2,stop,500.0,450.0,4.0,,,,,,,,,orange,circle
0.0,4.0,4.0,0.0,5.0,5.0,650.6898673251271,5.0,1.0,phase_2,go,500.0,500.0,1.0,,,,,,,,,magenta,square
0.0,6.0,1.0,1.0,6.0,6.0,616.9280000030994,5.0,1.0,phase_2,stop,500.0,500.0,3.0,,,,,,,,,blue,I
0.0,3.0,2.0,0.0,5.0,5.0,675.0677470117807,5.0,1.0,phase_2,go,500.0,450.0,1.0,,,,,,,,,white,flipped triangle
0.0,4.0,4.0,0.0,5.0,5.0,631.0510002076626,5.0,1.0,phase_2,go,500.0,450.0,1.0,,,,,,,,,magenta,square
0.0,1.0,0.5,0.0,6.0,6.0,345.1200062409043,5.0,1.0,phase_2,go,500.0,450.0,1.0,,,,,,,,,green,triangle
0.0,5.0,0.5,1.0,6.0,6.0,592.857513576746,5.0,1.0,phase_2,stop,500.0,450.0,3.0,,,,,,,,,orange,circle
0.0,8.0,4.0,1.0,6.0,6.0,373.0888981372118,5.0,1.0,phase_2,stop,500.0,400.0,3.0,,,,,,,,,cyan,cross
0.0,8.0,4.0,1.0,5.0,5.0,607.3382152244449,5.0,1.0,phase_2,stop,500.0,350.0,3.0,,,,,,,,,cyan,cross
0.0,4.0,4.0,0.0,6.0,6.0,638.5799190029502,5.0,1.0,phase_2,go,450.0,350.0,1.0,,,,,,,,,magenta,square
0.0,7.0,2.0,1.0,5.0,0.0,0.0,5.0,1.0,phase_2,stop,450.0,350.0,4.0,,,,,,,,,yellow,hexagon
0.0,6.0,1.0,1.0,5.0,0.0,0.0,5.0,1.0,phase_2,stop,500.0,350.0,4.0,,,,,,,,,blue,I
0.0,1.0,0.5,0.0,5.0,5.0,693.4338985010982,5.0,1.0,phase_2,go,550.0,350.0,1.0,,,,,,,,,green,triangle
0.0,4.0,4.0,0.0,5.0,5.0,580.2899207919836,6.0,1.0,phase_2,go,550.0,350.0,1.0,,,,,,,,,magenta,square
0.0,3.0,2.0,0.0,6.0,6.0,322.8098275139928,6.0,1.0,phase_2,go,550.0,350.0,1.0,,,,,,,,,white,flipped triangle
0.0,2.0,1.0,0.0,6.0,6.0,331.5251432359218,6.0,1.0,phase_2,go,550.0,350.0,1.0,,,,,,,,,gray,diamond
0.0,1.0,0.5,0.0,6.0,6.0,633.1269424408674,6.0,1.0,phase_2,go,550.0,350.0,1.0,,,,,,,,,green,triangle
0.0,2.0,1.0,0.0,6.0,6.0,442.8823562338948,6.0,1.0,phase_2,go,550.0,350.0,1.0,,,,,,,,,gray,diamond
0.0,2.0,1.0,0.0,6.0,6.0,700.0812785699964,6.0,1.0,phase_2,go,550.0,350.0,1.0,,,,,,,,,gray,diamond
0.0,1.0,0.5,0.0,5.0,5.0,666.8585622683167,6.0,1.0,phase_2,go,550.0,350.0,1.0,,,,,,,,,green,triangle
0.0,4.0,4.0,0.0,5.0,5.0,576.0048134252429,6.0,1.0,phase_2,go,550.0,350.0,1.0,,,,,,,,,magenta,square
0.0,6.0,1.0,1.0,5.0,5.0,626.517572440207,6.0,1.0,phase_2,stop,550.0,350.0,3.0,,,,,,,,,blue,I
0.0,7.0,2.0,1.0,6.0,0.0,0.0,6.0,1.0,phase_2,stop,500.0,350.0,4.0,,,,,,,,,yellow,hexagon
0.0,4.0,4.0,0.0,5.0,5.0,711.6257064044476,6.0,1.0,phase_2,go,500.0,400.0,1.0,,,,,,,,,magenta,square
0.0,1.0,0.5,0.0,5.0,5.0,629.731017164886,6.0,1.0,phase_2,go,500.0,400.0,1.0,,,,,,,,,green,triangle
0.0,3.0,2.0,0.0,6.0,6.0,316.4876885712147,6.0,1.0,phase_2,go,500.0,400.0,1.0,,,,,,,,,white,flipped triangle
0.0,2.0,1.0,0.0,5.0,5.0,654.2866602540016,6.0,1.0,phase_2,go,500.0,400.0,1.0,,,,,,,,,gray,diamond
0.0,4.0,4.0,0.0,5.0,5.0,348.0262998491525,6.0,1.0,phase_2,go,500.0,400.0,1.0,,,,,,,,,magenta,square
0.0,6.0,1.0,1.0,6.0,6.0,364.4817378371954,6.0,1.0,phase_2,go,500.0,400.0,1.0,,,,,,,,,blue,I
0.0,2.0,1.0,0.0,5.0,5.0,692.7209887653589,6.0,1.0,phase_2,go,500.0,400.0,1.0,,,,,,,,,gray,diamond
0.0,8.0,4.0,1.0,5.0,0.0,0.0,6.0,1.0,phase_2,stop,500.0,400.0,4.0,,,,,,,,,cyan,cross
0.0,4.0,4.0,0.0,6.0,6.0,658.856675028801,6.0,1.0,phase_2,go,550.0,400.0,1.0,,,,,,,,,magenta,square
0.0,3.0,2.0,0.0,5.0,5.0,587.3350007459521,6.0,1.0,phase_2,go,550.0,400.0,1.0,,,,,,,,,white,flipped triangle
0.0,7.0,2.0,1.0,5.0,5.0,595.9683237597346,6.0,1.0,phase_2,stop,550.0,400.0,3.0,,,,,,,,,yellow,hexagon
0.0,4.0,4.0,0.0,6.0,6.0,665.3814865276217,6.0,1.0,phase_2,go,500.0,400.0,1.0,,,,,,,,,magenta,square
0.0,4.0,4.0,0.0,5.0,5.0,718.9357345923781,6.0,1.0,phase_2,go,500.0,400.0,1.0,,,,,,,,,magenta,square
0.0,7.0,2.0,1.0,6.0,0.0,0.0,6.0,1.0,phase_2,stop,500.0,400.0,4.0,,,,,,,,,yellow,hexagon
0.0,8.0,4.0,1.0,5.0,5.0,721.0616515949368,6.0,1.0,phase_2,go,500.0,450.0,1.0,,,,,,,,,cyan,cross
0.0,6.0,1.0,1.0,5.0,0.0,0.0,6.0,1.0,phase_2,stop,500.0,450.0,4.0,,,,,,,,,blue,I
0.0,3.0,2.0,0.0,5.0,5.0,732.5323531404138,6.0,1.0,phase_2,go,550.0,450.0,1.0,,,,,,,,,white,flipped triangle
0.0,7.0,2.0,1.0,6.0,0.0,0.0,6.0,1.0,phase_2,stop,550.0,450.0,4.0,,,,,,,,,yellow,hexagon
0.0,5.0,0.5,1.0,5.0,5.0,675.4131717607379,6.0,1.0,phase_2,go,550.0,500.0,1.0,,,,,,,,,orange,circle
0.0,8.0,4.0,1.0,6.0,0.0,0.0,6.0,1.0,phase_2,stop,550.0,500.0,4.0,,,,,,,,,cyan,cross
0.0,1.0,0.5,0.0,6.0,6.0,754.0267603471875,6.0,1.0,phase_2,go,550.0,550.0,1.0,,,,,,,,,green,triangle
0.0,3.0,2.0,0.0,5.0,5.0,644.4780267775059,6.0,1.0,phase_2,go,550.0,550.0,1.0,,,,,,,,,white,flipped triangle
0.0,6.0,1.0,1.0,5.0,5.0,634.0930042788386,6.0,1.0,phase_2,stop,550.0,550.0,3.0,,,,,,,,,blue,I
0.0,7.0,2.0,1.0,6.0,0.0,0.0,6.0,1.0,phase_2,stop,500.0,550.0,4.0,,,,,,,,,yellow,hexagon
0.0,2.0,1.0,0.0,5.0,5.0,649.3818368762732,6.0,1.0,phase_2,go,500.0,600.0,1.0,,,,,,,,,gray,diamond
0.0,8.0,4.0,1.0,5.0,0.0,0.0,6.0,1.0,phase_2,stop,500.0,600.0,4.0,,,,,,,,,cyan,cross
0.0,6.0,1.0,1.0,6.0,6.0,360.0082220509648,7.0,1.0,phase_2,stop,550.0,600.0,3.0,,,,,,,,,blue,I
0.0,3.0,2.0,0.0,6.0,6.0,672.0001166686416,7.0,1.0,phase_2,go,550.0,550.0,1.0,,,,,,,,,white,flipped triangle
0.0,5.0,0.5,1.0,5.0,5.0,568.719269707799,7.0,1.0,phase_2,stop,550.0,550.0,3.0,,,,,,,,,orange,circle
0.0,3.0,2.0,0.0,5.0,5.0,655.1779685541987,7.0,1.0,phase_2,go,500.0,550.0,1.0,,,,,,,,,white,flipped triangle
0.0,3.0,2.0,0.0,5.0,5.0,641.7717402800918,7.0,1.0,phase_2,go,500.0,550.0,1.0,,,,,,,,,white,flipped triangle
0.0,7.0,2.0,1.0,6.0,6.0,572.3596569150686,7.0,1.0,phase_2,stop,500.0,550.0,3.0,,,,,,,,,yellow,hexagon
0.0,4.0,4.0,0.0,6.0,6.0,588.8847215101123,7.0,1.0,phase_2,go,500.0,500.0,1.0,,,,,,,,,magenta,square
0.0,6.0,1.0,1.0,5.0,5.0,636.7401136085391,7.0,1.0,phase_2,go,500.0,500.0,1.0,,,,,,,,,blue,I
0.0,2.0,1.0,0.0,6.0,6.0,604.1222382336855,7.0,1.0,phase_2,go,500.0,500.0,1.0,,,,,,,,,gray,diamond
0.0,5.0,0.5,1.0,6.0,6.0,659.418735653162,7.0,1.0,phase_2,stop,500.0,500.0,3.0,,,,,,,,,orange,circle
0.0,7.0,2.0,1.0,5.0,0.0,0.0,7.0,1.0,phase_2,stop,500.0,450.0,4.0,,,,,,,,,yellow,hexagon
0.0,3.0,2.0,0.0,6.0,6.0,755.2775572985411,7.0,1.0,phase_2,go,550.0,450.0,1.0,,,,,,,,,white,flipped triangle
0.0,7.0,2.0,1.0,6.0,0.0,0.0,7.0,1.0,phase_2,stop,550.0,450.0,4.0,,,,,,,,,yellow,hexagon
0.0,2.0,1.0,0.0,6.0,6.0,709.247843362391,7.0,1.0,phase_2,go,550.0,500.0,1.0,,,,,,,,,gray,diamond
0.0,5.0,0.5,1.0,6.0,0.0,0.0,7.0,1.0,phase_2,stop,550.0,500.0,4.0,,,,,,,,,orange,circle
0.0,2.0,1.0,0.0,6.0,6.0,681.9981941953301,7.0,1.0,phase_2,go,550.0,550.0,1.0,,,,,,,,,gray,diamond
0.0,6.0,1.0,1.0,6.0,6.0,696.4254397898912,7.0,1.0,phase_2,stop,550.0,550.0,3.0,,,,,,,,,blue,I
0.0,2.0,1.0,0.0,6.0,6.0,814.8501450195909,7.0,1.0,phase_2,go,550.0,500.0,1.0,,,,,,,,,gray,diamond
0.0,2.0,1.0,0.0,5.0,5.0,750.3141388297081,7.0,1.0,phase_2,go,550.0,500.0,1.0,,,,,,,,,gray,diamond
0.0,4.0,4.0,0.0,6.0,6.0,749.9689469113946,7.0,1.0,phase_2,go,550.0,500.0,1.0,,,,,,,,,magenta,square
0.0,2.0,1.0,0.0,5.0,5.0,657.1819204837084,7.0,1.0,phase_2,go,550.0,500.0,1.0,,,,,,,,,gray,diamond
0.0,5.0,0.5,1.0,5.0,0.0,0.0,7.0,1.0,phase_2,stop,550.0,500.0,4.0,,,,,,,,,orange,circle
0.0,5.0,0.5,1.0,6.0,0.0,0.0,7.0,1.0,phase_2,stop,600.0,500.0,4.0,,,,,,,,,orange,circle
0.0,4.0,4.0,0.0,6.0,6.0,670.4603871330619,7.0,1.0,phase_2,go,600.0,550.0,1.0,,,,,,,,,magenta,square
0.0,6.0,1.0,1.0,6.0,0.0,0.0,7.0,1.0,phase_2,stop,600.0,550.0,4.0,,,,,,,,,blue,I
0.0,7.0,2.0,1.0,5.0,5.0,412.5426039099693,7.0,1.0,phase_2,stop,600.0,600.0,3.0,,,,,,,,,yellow,hexagon
0.0,6.0,1.0,1.0,6.0,6.0,715.7073449343443,7.0,1.0,phase_2,go,550.0,600.0,1.0,,,,,,,,,blue,I
0.0,5.0,0.5,1.0,6.0,6.0,891.1167215555906,7.0,1.0,phase_2,go,550.0,600.0,1.0,,,,,,,,,orange,circle
0.0,8.0,4.0,1.0,5.0,0.0,0.0,7.0,1.0,phase_2,stop,550.0,600.0,4.0,,,,,,,,,cyan,cross
0.0,1.0,0.5,0.0,5.0,5.0,755.268101580441,7.0,1.0,phase_2,go,600.0,600.0,1.0,,,,,,,,,green,triangle
0.0,6.0,1.0,1.0,5.0,5.0,683.0837037414312,7.0,1.0,phase_2,stop,600.0,600.0,3.0,,,,,,,,,blue,I
0.0,4.0,4.0,0.0,5.0,5.0,416.0322612151503,7.0,1.0,phase_2,go,550.0,600.0,1.0,,,,,,,,,magenta,square
0.0,6.0,1.0,1.0,5.0,0.0,0.0,7.0,1.0,phase_2,stop,550.0,600.0,4.0,,,,,,,,,blue,I
0.0,2.0,1.0,0.0,5.0,5.0,374.9450333416462,7.0,1.0,phase_2,go,600.0,600.0,1.0,,,,,,,,,gray,diamond
0.0,6.0,1.0,1.0,5.0,0.0,0.0,7.0,1.0,phase_2,stop,600.0,600.0,4.0,,,,,,,,,blue,I
0.0,1.0,0.5,0.0,6.0,6.0,349.9752944335341,7.0,1.0,phase_2,go,650.0,600.0,1.0,,,,,,,,,green,triangle
0.0,1.0,0.5,0.0,6.0,6.0,369.2338755354285,8.0,1.0,phase_2,go,650.0,600.0,1.0,,,,,,,,,green,triangle
0.0,1.0,0.5,0.0,5.0,5.0,345.517904497683,8.0,1.0,phase_2,go,650.0,600.0,1.0,,,,,,,,,green,triangle
0.0,6.0,1.0,1.0,5.0,5.0,313.5446263477206,8.0,1.0,phase_2,go,650.0,600.0,1.0,,,,,,,,,blue,I
0.0,4.0,4.0,0.0,6.0,6.0,575.3676854074001,8.0,1.0,phase_2,go,650.0,600.0,1.0,,,,,,,,,magenta,square
0.0,4.0,4.0,0.0,6.0,6.0,330.2213726565242,8.0,1.0,phase_2,go,650.0,600.0,1.0,,,,,,,,,magenta,square
0.0,3.0,2.0,0.0,5.0,5.0,504.22066636383533,8.0,1.0,phase_2,go,650.0,600.0,1.0,,,,,,,,,white,flipped triangle
0.0,5.0,0.5,1.0,6.0,6.0,304.1400965303182,8.0,1.0,phase_2,stop,650.0,600.0,3.0,,,,,,,,,orange,circle
0.0,5.0,0.5,1.0,6.0,6.0,592.169196344912,8.0,1.0,phase_2,stop,650.0,550.0,3.0,,,,,,,,,orange,circle
0.0,7.0,2.0,1.0,6.0,6.0,630.0984276458621,8.0,1.0,phase_2,stop,650.0,500.0,3.0,,,,,,,,,yellow,hexagon
0.0,7.0,2.0,1.0,5.0,5.0,622.8246465325356,8.0,1.0,phase_2,go,650.0,450.0,1.0,,,,,,,,,yellow,hexagon
0.0,3.0,2.0,0.0,5.0,5.0,620.9336332976818,8.0,1.0,phase_2,go,650.0,450.0,1.0,,,,,,,,,white,flipped triangle
0.0,3.0,2.0,0.0,5.0,5.0,654.1605303063989,8.0,1.0,phase_2,go,650.0,450.0,1.0,,,,,,,,,white,flipped triangle
0.0,8.0,4.0,1.0,6.0,6.0,597.5865228101611,8.0,1.0,phase_2,go,650.0,450.0,1.0,,,,,,,,,cyan,cross
0.0,8.0,4.0,1.0,6.0,6.0,578.0480783432722,8.0,1.0,phase_2,stop,650.0,450.0,3.0,,,,,,,,,cyan,cross
0.0,1.0,0.5,0.0,5.0,5.0,299.5341094210744,8.0,1.0,phase_2,go,650.0,400.0,1.0,,,,,,,,,green,triangle
0.0,6.0,1.0,1.0,5.0,5.0,499.2604032158851,8.0,1.0,phase_2,go,650.0,400.0,1.0,,,,,,,,,blue,I
0.0,2.0,1.0,0.0,6.0,6.0,353.855550289154,8.0,1.0,phase_2,go,650.0,400.0,1.0,,,,,,,,,gray,diamond
0.0,1.0,0.5,0.0,6.0,6.0,353.1821956858039,8.0,1.0,phase_2,go,650.0,400.0,1.0,,,,,,,,,green,triangle
0.0,7.0,2.0,1.0,5.0,5.0,687.4384135007858,8.0,1.0,phase_2,go,650.0,400.0,1.0,,,,,,,,,yellow,hexagon
0.0,3.0,2.0,0.0,5.0,5.0,574.7856637462974,8.0,1.0,phase_2,go,650.0,400.0,1.0,,,,,,,,,white,flipped triangle
0.0,6.0,1.0,1.0,6.0,0.0,0.0,8.0,1.0,phase_2,stop,650.0,400.0,4.0,,,,,,,,,blue,I
0.0,6.0,1.0,1.0,6.0,6.0,744.5345353335142,8.0,1.0,phase_2,go,650.0,450.0,1.0,,,,,,,,,blue,I
0.0,4.0,4.0,0.0,6.0,6.0,614.0482081100345,8.0,1.0,phase_2,go,650.0,450.0,1.0,,,,,,,,,magenta,square
0.0,6.0,1.0,1.0,6.0,0.0,0.0,8.0,1.0,phase_2,stop,650.0,450.0,4.0,,,,,,,,,blue,I
0.0,1.0,0.5,0.0,5.0,5.0,646.9852486625314,8.0,1.0,phase_2,go,650.0,500.0,1.0,,,,,,,,,green,triangle
0.0,3.0,2.0,0.0,5.0,5.0,571.1126709356904,8.0,1.0,phase_2,go,650.0,500.0,1.0,,,,,,,,,white,flipped triangle
0.0,4.0,4.0,0.0,5.0,5.0,315.4980838298797,8.0,1.0,phase_2,go,650.0,500.0,1.0,,,,,,,,,magenta,square
0.0,7.0,2.0,1.0,6.0,6.0,317.4413805827498,8.0,1.0,phase_2,stop,650.0,500.0,3.0,,,,,,,,,yellow,hexagon
0.0,5.0,0.5,1.0,5.0,5.0,564.894181676209,8.0,1.0,phase_2,stop,650.0,450.0,3.0,,,,,,,,,orange,circle
0.0,5.0,0.5,1.0,6.0,6.0,724.8273985460401,8.0,1.0,phase_2,go,600.0,450.0,1.0,,,,,,,,,orange,circle
0.0,7.0,2.0,1.0,6.0,6.0,393.5149814933538,8.0,1.0,phase_2,stop,600.0,450.0,3.0,,,,,,,,,yellow,hexagon
0.0,4.0,4.0,0.0,5.0,5.0,689.5245416089892,8.0,1.0,phase_2,go,600.0,400.0,1.0,,,,,,,,,magenta,square
0.0,6.0,1.0,1.0,6.0,0.0,0.0,8.0,1.0,phase_2,stop,600.0,400.0,4.0,,,,,,,,,blue,I
0.0,3.0,2.0,0.0,6.0,6.0,763.1800398230553,8.0,1.0,phase_2,go,600.0,450.0,1.0,,,,,,,,,white,flipped triangle
0.0,3.0,2.0,0.0,5.0,5.0,342.6638403907418,8.0,1.0,phase_2,go,600.0,450.0,1.0,,,,,,,,,white,flipped triangle
0.0,5.0,0.5,1.0,6.0,0.0,0.0,8.0,1.0,phase_2,stop,600.0,450.0,4.0,,,,,,,,,orange,circle
0.0,4.0,4.0,0.0,7.0,4.0,2369.946447201073,1.0,1.0,phase_3,,,,,108.0,2.0,324.0,216.0,54.0,108.0,270.0,162.0,magenta,square
0.0,5.0,0.5,1.0,7.0,2.0,2042.877963744104,1.0,1.0,phase_3,,,,,68.0,2.0,34.0,68.0,136.0,170.0,204.0,102.0,orange,circle
0.0,1.0,0.5,0.0,7.0,3.0,2236.815296113491,1.0,1.0,phase_3,,,,,245.0,5.0,294.0,49.0,245.0,147.0,98.0,196.0,green,triangle
0.0,7.0,2.0,1.0,7.0,2.0,2327.862654812634,1.0,1.0,phase_3,,,,,204.0,6.0,170.0,204.0,68.0,102.0,136.0,34.0,yellow,hexagon
0.0,8.0,4.0,1.0,7.0,6.0,2239.357258193195,1.0,1.0,phase_3,,,,,234.0,6.0,156.0,39.0,78.0,117.0,195.0,234.0,cyan,cross
0.0,2.0,1.0,0.0,7.0,3.0,2737.325768917799,1.0,1.0,phase_3,,,,,204.0,6.0,34.0,136.0,204.0,170.0,68.0,102.0,gray,diamond
0.0,6.0,1.0,1.0,7.0,2.0,2148.5426612198357,1.0,1.0,phase_3,,,,,264.0,6.0,176.0,264.0,132.0,44.0,220.0,88.0,blue,I
0.0,6.0,1.0,1.0,7.0,1.0,2771.0551684722304,1.0,1.0,phase_3,,,,,204.0,6.0,204.0,136.0,102.0,170.0,68.0,34.0,blue,I
0.0,4.0,4.0,0.0,7.0,5.0,3564.2754985019565,1.0,1.0,phase_3,,,,,117.0,3.0,39.0,156.0,234.0,78.0,117.0,195.0,magenta,square
0.0,3.0,2.0,0.0,7.0,1.0,1448.2722133398056,1.0,1.0,phase_3,,,,,108.0,2.0,108.0,216.0,162.0,324.0,270.0,54.0,white,flipped triangle
0.0,1.0,0.5,0.0,7.0,5.0,2433.1756783649325,1.0,1.0,phase_3,,,,,204.0,6.0,136.0,170.0,68.0,34.0,204.0,102.0,green,triangle
0.0,8.0,4.0,1.0,7.0,3.0,3457.7621342614293,1.0,1.0,phase_3,,,,,270.0,5.0,108.0,162.0,270.0,216.0,324.0,54.0,cyan,cross
0.0,7.0,2.0,1.0,7.0,2.0,2925.589356571436,1.0,1.0,phase_3,,,,,324.0,6.0,108.0,324.0,216.0,162.0,270.0,54.0,yellow,hexagon
0.0,3.0,2.0,0.0,7.0,1.0,1006.065827794373,1.0,1.0,phase_3,,,,,68.0,2.0,68.0,204.0,170.0,34.0,102.0,136.0,white,flipped triangle
0.0,4.0,4.0,0.0,7.0,2.0,3236.2354658544064,1.0,1.0,phase_3,,,,,162.0,3.0,324.0,162.0,270.0,54.0,216.0,108.0,magenta,square
0.0,6.0,1.0,1.0,7.0,4.0,4041.8441593647003,1.0,1.0,phase_3,,,,,132.0,3.0,176.0,44.0,220.0,132.0,264.0,88.0,blue,I
0.0,4.0,4.0,0.0,7.0,2.0,2419.044724665582,1.0,1.0,phase_3,,,,,68.0,2.0,204.0,68.0,136.0,170.0,34.0,102.0,magenta,square
0.0,1.0,0.5,0.0,7.0,5.0,996.624301187694,1.0,1.0,phase_3,,,,,162.0,3.0,216.0,324.0,54.0,108.0,162.0,270.0,green,triangle
0.0,6.0,1.0,1.0,7.0,1.0,1216.0027716308832,1.0,1.0,phase_3,,,,,117.0,3.0,117.0,39.0,78.0,234.0,195.0,156.0,blue,I
0.0,8.0,4.0,1.0,7.0,5.0,1839.427555911243,1.0,1.0,phase_3,,,,,294.0,6.0,98.0,147.0,196.0,245.0,294.0,49.0,cyan,cross
0.0,2.0,1.0,0.0,7.0,2.0,453.2157117500901,2.0,1.0,phase_3,,,,,270.0,5.0,216.0,270.0,324.0,162.0,54.0,108.0,gray,diamond
0.0,4.0,4.0,0.0,7.0,5.0,501.97227858006954,2.0,1.0,phase_3,,,,,156.0,4.0,39.0,234.0,117.0,78.0,156.0,195.0,magenta,square
0.0,6.0,1.0,1.0,7.0,1.0,337.9393639042973,2.0,1.0,phase_3,,,,,234.0,6.0,234.0,156.0,195.0,117.0,78.0,39.0,blue,I
0.0,8.0,4.0,1.0,7.0,6.0,795.0542932376266,2.0,1.0,phase_3,,,,,68.0,2.0,170.0,34.0,204.0,102.0,136.0,68.0,cyan,cross
0.0,8.0,4.0,1.0,7.0,2.0,677.7231823652983,2.0,1.0,phase_3,,,,,136.0,4.0,170.0,136.0,204.0,68.0,102.0,34.0,cyan,cross
0.0,2.0,1.0,0.0,7.0,3.0,630.5350232869387,2.0,1.0,phase_3,,,,,216.0,4.0,54.0,324.0,216.0,270.0,162.0,108.0,gray,diamond
0.0,5.0,0.5,1.0,7.0,6.0,852.5276556611061,2.0,1.0,phase_3,,,,,176.0,4.0,220.0,132.0,44.0,264.0,88.0,176.0,orange,circle
0.0,3.0,2.0,0.0,7.0,3.0,928.481962531805,2.0,1.0,phase_3,,,,,102.0,3.0,68.0,136.0,102.0,34.0,204.0,170.0,white,flipped triangle
0.0,5.0,0.5,1.0,7.0,2.0,984.1403197497128,2.0,1.0,phase_3,,,,,156.0,4.0,117.0,156.0,195.0,78.0,234.0,39.0,orange,circle
0.0,8.0,4.0,1.0,7.0,6.0,1227.1382492035627,2.0,1.0,phase_3,,,,,220.0,5.0,132.0,44.0,264.0,88.0,176.0,220.0,cyan,cross
0.0,7.0,2.0,1.0,7.0,2.0,569.9088126420975,2.0,1.0,phase_3,,,,,132.0,3.0,220.0,132.0,44.0,264.0,176.0,88.0,yellow,hexagon
0.0,7.0,2.0,1.0,7.0,6.0,399.2085373029113,2.0,1.0,phase_3,,,,,136.0,4.0,68.0,102.0,170.0,34.0,204.0,136.0,yellow,hexagon
0.0,6.0,1.0,1.0,7.0,5.0,638.117341324687,2.0,1.0,phase_3,,,,,294.0,6.0,49.0,147.0,98.0,245.0,294.0,196.0,blue,I
0.0,1.0,0.5,0.0,7.0,3.0,1423.9260600879788,2.0,1.0,phase_3,,,,,54.0,1.0,216.0,324.0,54.0,270.0,108.0,162.0,green,triangle
0.0,2.0,1.0,0.0,7.0,1.0,784.1748250648379,2.0,1.0,phase_3,,,,,132.0,3.0,132.0,44.0,88.0,264.0,176.0,220.0,gray,diamond
0.0,8.0,4.0,1.0,7.0,4.0,576.5893869102001,2.0,1.0,phase_3,,,,,156.0,4.0,78.0,39.0,195.0,156.0,234.0,117.0,cyan,cross
0.0,4.0,4.0,0.0,7.0,3.0,565.7100034877658,2.0,1.0,phase_3,,,,,220.0,5.0,176.0,88.0,220.0,44.0,132.0,264.0,magenta,square
0.0,5.0,0.5,1.0,7.0,6.0,838.5292487218976,2.0,1.0,phase_3,,,,,234.0,6.0,195.0,39.0,156.0,78.0,117.0,234.0,orange,circle
0.0,2.0,1.0,0.0,7.0,5.0,573.4743801876903,2.0,1.0,phase_3,,,,,195.0,5.0,234.0,156.0,39.0,78.0,195.0,117.0,gray,diamond
0.0,7.0,2.0,1.0,7.0,2.0,865.1432879269123,2.0,1.0,phase_3,,,,,245.0,5.0,98.0,245.0,147.0,49.0,294.0,196.0,yellow,hexagon
0.0,8.0,4.0,1.0,7.0,3.0,1001.1619152501223,3.0,1.0,phase_3,,,,,196.0,4.0,98.0,147.0,196.0,49.0,245.0,294.0,cyan,cross
0.0,8.0,4.0,1.0,7.0,2.0,928.700165823102,3.0,1.0,phase_3,,,,,220.0,5.0,264.0,220.0,44.0,88.0,132.0,176.0,cyan,cross
0.0,2.0,1.0,0.0,7.0,2.0,1118.0641986429691,3.0,1.0,phase_3,,,,,102.0,3.0,170.0,102.0,68.0,136.0,34.0,204.0,gray,diamond
0.0,6.0,1.0,1.0,7.0,2.0,1615.0164641439917,3.0,1.0,phase_3,,,,,294.0,6.0,245.0,294.0,98.0,196.0,49.0,147.0,blue,I
0.0,7.0,2.0,1.0,7.0,4.0,772.4456954747438,3.0,1.0,phase_3,,,,,234.0,6.0,117.0,78.0,156.0,234.0,39.0,195.0,yellow,hexagon
0.0,3.0,2.0,0.0,7.0,3.0,922.0794355496764,3.0,1.0,phase_3,,,,,44.0,1.0,220.0,88.0,44.0,132.0,264.0,176.0,white,flipped triangle
0.0,3.0,2.0,0.0,7.0,2.0,703.7663273513317,3.0,1.0,phase_3,,,,,98.0,2.0,294.0,98.0,147.0,49.0,245.0,196.0,white,flipped triangle
0.0,5.0,0.5,1.0,7.0,6.0,868.547280319035,3.0,1.0,phase_3,,,,,220.0,5.0,88.0,132.0,176.0,264.0,44.0,220.0,orange,circle
0.0,2.0,1.0,0.0,7.0,4.0,610.5802915990353,3.0,1.0,phase_3,,,,,234.0,6.0,39.0,156.0,195.0,234.0,78.0,117.0,gray,diamond
0.0,5.0,0.5,1.0,7.0,4.0,940.5594943091272,3.0,1.0,phase_3,,,,,324.0,6.0,270.0,216.0,54.0,324.0,162.0,108.0,orange,circle
0.0,5.0,0.5,1.0,7.0,6.0,1542.8374288603663,3.0,1.0,phase_3,,,,,245.0,5.0,49.0,147.0,196.0,294.0,98.0,245.0,orange,circle
0.0,4.0,4.0,0.0,7.0,2.0,1302.422782406211,3.0,1.0,phase_3,,,,,132.0,3.0,176.0,132.0,264.0,44.0,88.0,220.0,magenta,square
0.0,1.0,0.5,0.0,7.0,4.0,1023.456004448235,3.0,1.0,phase_3,,,,,147.0,3.0,196.0,98.0,49.0,147.0,245.0,294.0,green,triangle
0.0,3.0,2.0,0.0,7.0,4.0,1121.421772055328,3.0,1.0,phase_3,,,,,108.0,2.0,324.0,216.0,162.0,108.0,54.0,270.0,white,flipped triangle
0.0,6.0,1.0,1.0,7.0,3.0,1260.6566986069083,3.0,1.0,phase_3,,,,,270.0,5.0,162.0,108.0,270.0,216.0,54.0,324.0,blue,I
0.0,8.0,4.0,1.0,7.0,4.0,1166.4508497342467,3.0,1.0,phase_3,,,,,270.0,5.0,162.0,54.0,324.0,270.0,108.0,216.0,cyan,cross
0.0,6.0,1.0,1.0,7.0,1.0,1438.3237790316343,3.0,1.0,phase_3,,,,,204.0,6.0,204.0,136.0,68.0,102.0,34.0,170.0,blue,I
0.0,4.0,4.0,0.0,7.0,5.0,566.554649733007,3.0,1.0,phase_3,,,,,204.0,6.0,68.0,136.0,170.0,34.0,204.0,102.0,magenta,square
0.0,2.0,1.0,0.0,7.0,1.0,1263.5959424078465,3.0,1.0,phase_3,,,,,196.0,4.0,196.0,49.0,245.0,98.0,294.0,147.0,gray,diamond
0.0,3.0,2.0,0.0,7.0,4.0,659.0510839596391,3.0,1.0,phase_3,,,,,44.0,1.0,88.0,220.0,176.0,44.0,132.0,264.0,white,flipped triangle
0.0,4.0,4.0,0.0,7.0,1.0,1348.5777424648404,4.0,1.0,phase_3,,,,,245.0,5.0,245.0,147.0,49.0,98.0,196.0,294.0,magenta,square
0.0,7.0,2.0,1.0,7.0,5.0,350.3085002303123,4.0,1.0,phase_3,,,,,176.0,4.0,44.0,132.0,220.0,88.0,176.0,264.0,yellow,hexagon
0.0,1.0,0.5,0.0,7.0,2.0,582.8166147693992,4.0,1.0,phase_3,,,,,68.0,2.0,136.0,68.0,204.0,34.0,170.0,102.0,green,triangle
0.0,1.0,0.5,0.0,7.0,2.0,508.1285322085023,4.0,1.0,phase_3,,,,,88.0,2.0,176.0,88.0,220.0,264.0,132.0,44.0,green,triangle
0.0,3.0,2.0,0.0,7.0,2.0,812.9558470100164,4.0,1.0,phase_3,,,,,39.0,1.0,195.0,39.0,78.0,117.0,234.0,156.0,white,flipped triangle
0.0,5.0,0.5,1.0,7.0,6.0,747.3749378696084,4.0,1.0,phase_3,,,,,204.0,6.0,102.0,170.0,68.0,136.0,34.0,204.0,orange,circle
0.0,2.0,1.0,0.0,7.0,5.0,468.3266226202249,4.0,1.0,phase_3,,,,,220.0,5.0,176.0,132.0,264.0,88.0,220.0,44.0,gray,diamond
0.0,7.0,2.0,1.0,7.0,2.0,413.9911336824298,4.0,1.0,phase_3,,,,,195.0,5.0,39.0,195.0,117.0,234.0,156.0,78.0,yellow,hexagon
0.0,6.0,1.0,1.0,7.0,4.0,313.9415727928281,4.0,1.0,phase_3,,,,,324.0,6.0,270.0,216.0,54.0,324.0,108.0,162.0,blue,I
0.0,2.0,1.0,0.0,7.0,3.0,848.6953563988209,4.0,1.0,phase_3,,,,,196.0,4.0,147.0,49.0,196.0,245.0,98.0,294.0,gray,diamond
0.0,1.0,0.5,0.0,7.0,3.0,692.747381515801,4.0,1.0,phase_3,,,,,117.0,3.0,195.0,39.0,117.0,156.0,78.0,234.0,green,triangle
0.0,7.0,2.0,1.0,7.0,4.0,2382.966454140842,4.0,1.0,phase_3,,,,,270.0,5.0,216.0,324.0,162.0,270.0,54.0,108.0,yellow,hexagon
0.0,1.0,0.5,0.0,7.0,3.0,430.7852173224091,4.0,1.0,phase_3,,,,,117.0,3.0,156.0,234.0,117.0,195.0,78.0,39.0,green,triangle
0.0,4.0,4.0,0.0,7.0,5.0,920.8552781492472,4.0,1.0,phase_3,,,,,49.0,1.0,98.0,147.0,294.0,245.0,49.0,196.0,magenta,square
0.0,1.0,0.5,0.0,7.0,4.0,1014.9982860311866,4.0,1.0,phase_3,,,,,176.0,4.0,88.0,132.0,44.0,176.0,220.0,264.0,green,triangle
0.0,3.0,2.0,0.0,7.0,2.0,436.6075834259391,4.0,1.0,phase_3,,,,,49.0,1.0,245.0,49.0,98.0,196.0,294.0,147.0,white,flipped triangle
0.0,5.0,0.5,1.0,7.0,4.0,1050.6393406540155,4.0,1.0,phase_3,,,,,196.0,4.0,49.0,98.0,147.0,196.0,245.0,294.0,orange,circle
0.0,3.0,2.0,0.0,7.0,2.0,1284.366742707789,4.0,1.0,phase_3,,,,,156.0,4.0,117.0,156.0,78.0,39.0,195.0,234.0,white,flipped triangle
0.0,5.0,0.5,1.0,7.0,2.0,856.1685215681791,4.0,1.0,phase_3,,,,,108.0,2.0,216.0,108.0,324.0,270.0,162.0,54.0,orange,circle
0.0,7.0,2.0,1.0,7.0,2.0,537.1131505817175,4.0,1.0,phase_3,,,,,196.0,4.0,49.0,196.0,98.0,245.0,147.0,294.0,yellow,hexagon
