raw_reward_magnitude,stim_reward,stepwise_reward_magnitude,paired_with_stopping,stim_location,response,reaction_time,block,num_trial_presentations,which_phase,stop_signal_trial_type,left_SSD,right_SSD,accuracy,chosen_bidding_amount,chosen_bidding_level,possible_bid_1,possible_bid_2,possible_bid_3,possible_bid_4,possible_bid_5,possible_bid_6,color_text,shape_text
405.0,8.0,4.0,1.0,2.0,2.0,342.9811289533973,1.0,1.0,phase_1,,,,,,,,,,,,,magenta,square
377.0,8.0,4.0,1.0,3.0,3.0,371.6337019577622,1.0,1.0,phase_1,,,,,,,,,,,,,magenta,square
223.0,3.0,3.0,0.0,2.0,2.0,345.7171581685543,1.0,1.0,phase_1,,,,,,,,,,,,,gray,diamond
221.0,3.0,3.0,0.0,4.0,4.0,302.9574314132333,1.0,1.0,phase_1,,,,,,,,,,,,,gray,diamond
29.0,5.0,1.0,1.0,3.0,3.0,282.1947494521737,1.0,1.0,phase_1,,,,,,,,,,,,,orange,hexagon
0.0,2.0,0.0,0.0,4.0,4.0,311.8557250127196,1.0,1.0,phase_1,,,,,,,,,,,,,yellow,circle
178.0,7.0,3.0,1.0,4.0,4.0,326.4023950323462,1.0,1.0,phase_1,,,,,,,,,,,,,white,cross
104.0,6.0,2.0,1.0,4.0,4.0,280.9781031683087,1.0,1.0,phase_1,,,,,,,,,,,,,blue,triangle
209.0,7.0,3.0,1.0,4.0,4.0,263.5533902794122,1.0,1.0,phase_1,,,,,,,,,,,,,white,cross
0.0,3.0,0.0,0.0,2.0,2.0,329.4000141322613,1.0,1.0,phase_1,,,,,,,,,,,,,gray,diamond
74.0,5.0,1.0,1.0,2.0,2.0,300.6280278787017,1.0,1.0,phase_1,,,,,,,,,,,,,orange,hexagon
0.0,5.0,0.0,1.0,1.0,1.0,338.1501585245132,1.0,1.0,phase_1,,,,,,,,,,,,,orange,hexagon
177.0,3.0,3.0,0.0,3.0,3.0,281.6213527694344,1.0,1.0,phase_1,,,,,,,,,,,,,gray,diamond
0.0,7.0,0.0,1.0,4.0,4.0,259.7771063446998,1.0,1.0,phase_1,,,,,,,,,,,,,white,cross
79.0,6.0,2.0,1.0,3.0,3.0,259.0190814808011,1.0,1.0,phase_1,,,,,,,,,,,,,blue,triangle
0.0,6.0,0.0,1.0,4.0,4.0,264.6203693002462,1.0,1.0,phase_1,,,,,,,,,,,,,blue,triangle
54.0,1.0,1.0,0.0,1.0,1.0,260.9035326167941,1.0,1.0,phase_1,,,,,,,,,,,,,green,I
177.0,7.0,3.0,1.0,2.0,2.0,319.6467636153102,1.0,1.0,phase_1,,,,,,,,,,,,,white,cross
410.0,8.0,4.0,1.0,3.0,3.0,251.3591898605227,1.0,1.0,phase_1,,,,,,,,,,,,,magenta,square
75.0,2.0,2.0,0.0,1.0,1.0,297.9698721319437,1.0,1.0,phase_1,,,,,,,,,,,,,yellow,circle
218.0,3.0,3.0,0.0,1.0,1.0,285.4371825233102,1.0,1.0,phase_1,,,,,,,,,,,,,gray,diamond
187.0,3.0,3.0,0.0,2.0,2.0,306.9388531148433,1.0,1.0,phase_1,,,,,,,,,,,,,gray,diamond
101.0,2.0,2.0,0.0,2.0,2.0,317.2954991459846,1.0,1.0,phase_1,,,,,,,,,,,,,yellow,circle
116.0,2.0,2.0,0.0,4.0,4.0,321.6846846044063,1.0,1.0,phase_1,,,,,,,,,,,,,yellow,circle
0.0,6.0,0.0,1.0,1.0,1.0,321.5223476290703,1.0,1.0,phase_1,,,,,,,,,,,,,blue,triangle
77.0,6.0,2.0,1.0,1.0,1.0,317.5100954249501,1.0,1.0,phase_1,,,,,,,,,,,,,blue,triangle
75.0,6.0,2.0,1.0,2.0,2.0,263.6394249275327,1.0,1.0,phase_1,,,,,,,,,,,,,blue,triangle
424.0,8.0,4.0,1.0,2.0,2.0,284.8427528515458,1.0,1.0,phase_1,,,,,,,,,,,,,magenta,square
26.0,1.0,1.0,0.0,1.0,1.0,317.2479663044214,1.0,1.0,phase_1,,,,,,,,,,,,,green,I
62.0,5.0,1.0,1.0,4.0,4.0,285.7955219224095,1.0,1.0,phase_1,,,,,,,,,,,,,orange,hexagon
110.0,2.0,2.0,0.0,4.0,4.0,302.0404549315572,1.0,1.0,phase_1,,,,,,,,,,,,,yellow,circle
214.0,7.0,3.0,1.0,2.0,2.0,281.4656170085072,1.0,1.0,phase_1,,,,,,,,,,,,,white,cross
75.0,2.0,2.0,0.0,1.0,1.0,285.4921920225024,1.0,1.0,phase_1,,,,,,,,,,,,,yellow,circle
221.0,3.0,3.0,0.0,3.0,3.0,284.2399375513196,1.0,1.0,phase_1,,,,,,,,,,,,,gray,diamond
190.0,7.0,3.0,1.0,2.0,2.0,271.0925517603755,1.0,1.0,phase_1,,,,,,,,,,,,,white,cross
31.0,5.0,1.0,1.0,3.0,3.0,300.4775838926434,1.0,1.0,phase_1,,,,,,,,,,,,,orange,hexagon
391.0,8.0,4.0,1.0,2.0,2.0,310.537151992321,1.0,1.0,phase_1,,,,,,,,,,,,,magenta,square
183.0,3.0,3.0,0.0,4.0,4.0,260.1788081228733,1.0,1.0,phase_1,,,,,,,,,,,,,gray,diamond
56.0,1.0,1.0,0.0,3.0,3.0,432.88863170892,1.0,1.0,phase_1,,,,,,,,,,,,,green,I
121.0,6.0,2.0,1.0,2.0,2.0,296.8041067942977,1.0,1.0,phase_1,,,,,,,,,,,,,blue,triangle
415.0,8.0,4.0,1.0,4.0,4.0,253.2546985894441,1.0,1.0,phase_1,,,,,,,,,,,,,magenta,square
112.0,2.0,2.0,0.0,1.0,1.0,280.1418388262391,1.0,1.0,phase_1,,,,,,,,,,,,,yellow,circle
0.0,2.0,0.0,0.0,3.0,3.0,270.4520877450704,1.0,1.0,phase_1,,,,,,,,,,,,,yellow,circle
0.0,4.0,0.0,0.0,3.0,3.0,327.5334639474749,1.0,1.0,phase_1,,,,,,,,,,,,,cyan,flipped triangle
74.0,1.0,1.0,0.0,1.0,1.0,270.0225068256259,1.0,1.0,phase_1,,,,,,,,,,,,,green,I
90.0,6.0,2.0,1.0,3.0,3.0,256.7445421591401,1.0,1.0,phase_1,,,,,,,,,,,,,blue,triangle
79.0,6.0,2.0,1.0,1.0,1.0,249.7464790940284,1.0,1.0,phase_1,,,,,,,,,,,,,blue,triangle
0.0,6.0,0.0,1.0,3.0,3.0,242.1602830290794,1.0,1.0,phase_1,,,,,,,,,,,,,blue,triangle
75.0,2.0,2.0,0.0,2.0,2.0,272.1808105707168,1.0,1.0,phase_1,,,,,,,,,,,,,yellow,circle
178.0,7.0,3.0,1.0,3.0,3.0,254.2021675035357,1.0,1.0,phase_1,,,,,,,,,,,,,white,cross
399.0,4.0,4.0,0.0,3.0,3.0,241.0132717341184,1.0,1.0,phase_1,,,,,,,,,,,,,cyan,flipped triangle
69.0,5.0,1.0,1.0,1.0,1.0,269.2852197214961,1.0,1.0,phase_1,,,,,,,,,,,,,orange,hexagon
413.0,8.0,4.0,1.0,2.0,2.0,242.7938571199774,1.0,1.0,phase_1,,,,,,,,,,,,,magenta,square
400.0,4.0,4.0,0.0,4.0,4.0,215.1708006858825,1.0,1.0,phase_1,,,,,,,,,,,,,cyan,flipped triangle
0.0,6.0,0.0,1.0,3.0,3.0,261.0964979976415,1.0,1.0,phase_1,,,,,,,,,,,,,blue,triangle
409.0,4.0,4.0,0.0,1.0,1.0,280.505153350532,1.0,1.0,phase_1,,,,,,,,,,,,,cyan,flipped triangle
215.0,7.0,3.0,1.0,2.0,2.0,252.7388222515583,1.0,1.0,phase_1,,,,,,,,,,,,,white,cross
119.0,2.0,2.0,0.0,4.0,4.0,251.7162170261144,1.0,1.0,phase_1,,,,,,,,,,,,,yellow,circle
88.0,6.0,2.0,1.0,3.0,3.0,280.8907087892294,1.0,1.0,phase_1,,,,,,,,,,,,,blue,triangle
205.0,3.0,3.0,0.0,3.0,3.0,348.5820721834898,1.0,1.0,phase_1,,,,,,,,,,,,,gray,diamond
408.0,4.0,4.0,0.0,1.0,1.0,331.020237877965,1.0,1.0,phase_1,,,,,,,,,,,,,cyan,flipped triangle
0.0,1.0,0.0,0.0,2.0,2.0,267.5481420010328,1.0,1.0,phase_1,,,,,,,,,,,,,green,I
178.0,3.0,3.0,0.0,4.0,4.0,234.6359379589557,1.0,1.0,phase_1,,,,,,,,,,,,,gray,diamond
26.0,5.0,1.0,1.0,4.0,4.0,280.4493866860866,1.0,1.0,phase_1,,,,,,,,,,,,,orange,hexagon
378.0,4.0,4.0,0.0,4.0,4.0,243.2902958244085,1.0,1.0,phase_1,,,,,,,,,,,,,cyan,flipped triangle
403.0,4.0,4.0,0.0,4.0,4.0,248.0013063177466,1.0,1.0,phase_1,,,,,,,,,,,,,cyan,flipped triangle
199.0,7.0,3.0,1.0,1.0,1.0,310.3118669241667,1.0,1.0,phase_1,,,,,,,,,,,,,white,cross
0.0,8.0,0.0,1.0,1.0,1.0,297.7426582947373,1.0,1.0,phase_1,,,,,,,,,,,,,magenta,square
97.0,6.0,2.0,1.0,3.0,3.0,300.8374385535717,1.0,1.0,phase_1,,,,,,,,,,,,,blue,triangle
109.0,2.0,2.0,0.0,2.0,2.0,309.4142163172364,1.0,1.0,phase_1,,,,,,,,,,,,,yellow,circle
119.0,2.0,2.0,0.0,3.0,3.0,352.4400796741247,1.0,1.0,phase_1,,,,,,,,,,,,,yellow,circle
378.0,4.0,4.0,0.0,4.0,4.0,293.8753170892596,1.0,1.0,phase_1,,,,,,,,,,,,,cyan,flipped triangle
380.0,8.0,4.0,1.0,4.0,4.0,265.6878139823675,1.0,1.0,phase_1,,,,,,,,,,,,,magenta,square
82.0,2.0,2.0,0.0,3.0,3.0,284.6641940996051,1.0,1.0,phase_1,,,,,,,,,,,,,yellow,circle
377.0,4.0,4.0,0.0,2.0,2.0,329.1697427630424,1.0,1.0,phase_1,,,,,,,,,,,,,cyan,flipped triangle
380.0,4.0,4.0,0.0,1.0,1.0,333.8756514713168,1.0,1.0,phase_1,,,,,,,,,,,,,cyan,flipped triangle
0.0,3.0,0.0,0.0,4.0,4.0,286.0176404938102,1.0,1.0,phase_1,,,,,,,,,,,,,gray,diamond
27.0,5.0,1.0,1.0,4.0,4.0,298.2185957953334,1.0,1.0,phase_1,,,,,,,,,,,,,orange,hexagon
0.0,7.0,0.0,1.0,3.0,3.0,267.9015519097447,1.0,1.0,phase_1,,,,,,,,,,,,,white,cross
67.0,1.0,1.0,0.0,4.0,4.0,272.8716693818569,1.0,1.0,phase_1,,,,,,,,,,,,,green,I
220.0,3.0,3.0,0.0,4.0,4.0,277.1131070330739,1.0,1.0,phase_1,,,,,,,,,,,,,gray,diamond
386.0,8.0,4.0,1.0,4.0,4.0,252.8530415147543,1.0,1.0,phase_1,,,,,,,,,,,,,magenta,square
405.0,4.0,4.0,0.0,2.0,2.0,294.7816047817468,1.0,1.0,phase_1,,,,,,,,,,,,,cyan,flipped triangle
104.0,2.0,2.0,0.0,3.0,3.0,301.3714822009206,1.0,1.0,phase_1,,,,,,,,,,,,,yellow,circle
103.0,2.0,2.0,0.0,4.0,4.0,240.9124681726098,1.0,1.0,phase_1,,,,,,,,,,,,,yellow,circle
0.0,1.0,0.0,0.0,3.0,3.0,279.3741654604673,1.0,1.0,phase_1,,,,,,,,,,,,,green,I
106.0,2.0,2.0,0.0,4.0,4.0,253.14015056937927,1.0,1.0,phase_1,,,,,,,,,,,,,yellow,circle
28.0,1.0,1.0,0.0,1.0,1.0,294.3297792226076,1.0,1.0,phase_1,,,,,,,,,,,,,green,I
219.0,3.0,3.0,0.0,2.0,2.0,322.4879298359155,1.0,1.0,phase_1,,,,,,,,,,,,,gray,diamond
394.0,4.0,4.0,0.0,2.0,2.0,314.4521033391356,1.0,1.0,phase_1,,,,,,,,,,,,,cyan,flipped triangle
31.0,1.0,1.0,0.0,2.0,2.0,302.4369413033128,1.0,1.0,phase_1,,,,,,,,,,,,,green,I
90.0,6.0,2.0,1.0,4.0,4.0,289.480622857809,1.0,1.0,phase_1,,,,,,,,,,,,,blue,triangle
406.0,4.0,4.0,0.0,4.0,4.0,327.5199579074979,1.0,1.0,phase_1,,,,,,,,,,,,,cyan,flipped triangle
205.0,7.0,3.0,1.0,2.0,2.0,325.5098154768348,1.0,1.0,phase_1,,,,,,,,,,,,,white,cross
27.0,1.0,1.0,0.0,2.0,2.0,306.03211466223,1.0,1.0,phase_1,,,,,,,,,,,,,green,I
72.0,1.0,1.0,0.0,3.0,3.0,284.5101142302155,1.0,1.0,phase_1,,,,,,,,,,,,,green,I
112.0,6.0,2.0,1.0,1.0,1.0,251.09706167131662,1.0,1.0,phase_1,,,,,,,,,,,,,blue,triangle
406.0,4.0,4.0,0.0,1.0,1.0,284.3054207041859,1.0,2.0,phase_1,,,,,,,,,,,,,cyan,flipped triangle
90.0,2.0,2.0,0.0,1.0,1.0,296.906765550375,1.0,1.0,phase_1,,,,,,,,,,,,,yellow,circle
420.0,4.0,4.0,0.0,3.0,3.0,573.2070961967111,1.0,1.0,phase_1,,,,,,,,,,,,,cyan,flipped triangle
73.0,5.0,1.0,1.0,3.0,3.0,388.227810151875,2.0,1.0,phase_1,,,,,,,,,,,,,orange,hexagon
0.0,1.0,0.0,0.0,2.0,2.0,338.638249784708,2.0,1.0,phase_1,,,,,,,,,,,,,green,I
185.0,3.0,3.0,0.0,2.0,2.0,352.1630279719829,2.0,1.0,phase_1,,,,,,,,,,,,,gray,diamond
90.0,2.0,2.0,0.0,1.0,1.0,317.1801380813122,2.0,1.0,phase_1,,,,,,,,,,,,,yellow,circle
122.0,6.0,2.0,1.0,3.0,3.0,297.4392110481858,2.0,1.0,phase_1,,,,,,,,,,,,,blue,triangle
37.0,5.0,1.0,1.0,1.0,1.0,323.7820044159889,2.0,1.0,phase_1,,,,,,,,,,,,,orange,hexagon
389.0,4.0,4.0,0.0,4.0,4.0,354.8284089192748,2.0,1.0,phase_1,,,,,,,,,,,,,cyan,flipped triangle
29.0,1.0,1.0,0.0,2.0,2.0,285.1269729435444,2.0,1.0,phase_1,,,,,,,,,,,,,green,I
178.0,3.0,3.0,0.0,4.0,4.0,285.6998723000288,2.0,1.0,phase_1,,,,,,,,,,,,,gray,diamond
421.0,4.0,4.0,0.0,1.0,1.0,306.5355867147445,2.0,1.0,phase_1,,,,,,,,,,,,,cyan,flipped triangle
0.0,7.0,0.0,1.0,2.0,2.0,326.0710751637816,2.0,1.0,phase_1,,,,,,,,,,,,,white,cross
0.0,7.0,0.0,1.0,3.0,3.0,314.9319179356098,2.0,1.0,phase_1,,,,,,,,,,,,,white,cross
49.0,5.0,1.0,1.0,2.0,2.0,318.3812014758587,2.0,1.0,phase_1,,,,,,,,,,,,,orange,hexagon
399.0,8.0,4.0,1.0,1.0,1.0,284.120487049222,2.0,1.0,phase_1,,,,,,,,,,,,,magenta,square
56.0,5.0,1.0,1.0,2.0,2.0,318.4145279228687,2.0,1.0,phase_1,,,,,,,,,,,,,orange,hexagon
0.0,6.0,0.0,1.0,1.0,1.0,306.4509173855185,2.0,1.0,phase_1,,,,,,,,,,,,,blue,triangle
79.0,2.0,2.0,0.0,1.0,1.0,313.27504198998207,2.0,1.0,phase_1,,,,,,,,,,,,,yellow,circle
185.0,7.0,3.0,1.0,3.0,3.0,332.7227747067809,2.0,1.0,phase_1,,,,,,,,,,,,,white,cross
425.0,4.0,4.0,0.0,2.0,2.0,298.7863142043352,2.0,1.0,phase_1,,,,,,,,,,,,,cyan,flipped triangle
215.0,3.0,3.0,0.0,3.0,3.0,285.1044293493032,2.0,1.0,phase_1,,,,,,,,,,,,,gray,diamond
63.0,1.0,1.0,0.0,2.0,2.0,298.1604337692261,2.0,1.0,phase_1,,,,,,,,,,,,,green,I
401.0,4.0,4.0,0.0,3.0,3.0,321.2997149676084,2.0,1.0,phase_1,,,,,,,,,,,,,cyan,flipped triangle
102.0,2.0,2.0,0.0,2.0,2.0,310.7099654152989,2.0,1.0,phase_1,,,,,,,,,,,,,yellow,circle
109.0,2.0,2.0,0.0,4.0,4.0,288.1958540529012,2.0,1.0,phase_1,,,,,,,,,,,,,yellow,circle
46.0,1.0,1.0,0.0,2.0,2.0,296.002484858036,2.0,1.0,phase_1,,,,,,,,,,,,,green,I
0.0,5.0,0.0,1.0,2.0,2.0,321.1157564073801,2.0,1.0,phase_1,,,,,,,,,,,,,orange,hexagon
416.0,8.0,4.0,1.0,4.0,4.0,296.5683517977595,2.0,1.0,phase_1,,,,,,,,,,,,,magenta,square
177.0,7.0,3.0,1.0,1.0,1.0,370.94905693084,2.0,1.0,phase_1,,,,,,,,,,,,,white,cross
85.0,6.0,2.0,1.0,1.0,1.0,313.4943349286914,2.0,1.0,phase_1,,,,,,,,,,,,,blue,triangle
191.0,3.0,3.0,0.0,1.0,1.0,292.0299079269171,2.0,1.0,phase_1,,,,,,,,,,,,,gray,diamond
0.0,1.0,0.0,0.0,3.0,3.0,346.6092832386493,2.0,1.0,phase_1,,,,,,,,,,,,,green,I
119.0,6.0,2.0,1.0,2.0,2.0,383.7829399853945,2.0,1.0,phase_1,,,,,,,,,,,,,blue,triangle
424.0,4.0,4.0,0.0,1.0,1.0,339.0943314880132,2.0,1.0,phase_1,,,,,,,,,,,,,cyan,flipped triangle
113.0,2.0,2.0,0.0,3.0,3.0,303.4844854846596,2.0,1.0,phase_1,,,,,,,,,,,,,yellow,circle
113.0,6.0,2.0,1.0,4.0,4.0,318.5368692502379,2.0,1.0,phase_1,,,,,,,,,,,,,blue,triangle
202.0,7.0,3.0,1.0,4.0,4.0,264.5117752254009,2.0,1.0,phase_1,,,,,,,,,,,,,white,cross
56.0,5.0,1.0,1.0,2.0,2.0,316.8629268184304,2.0,1.0,phase_1,,,,,,,,,,,,,orange,hexagon
393.0,4.0,4.0,0.0,4.0,4.0,329.7740370035171,2.0,2.0,phase_1,,,,,,,,,,,,,cyan,flipped triangle
58.0,1.0,1.0,0.0,3.0,3.0,354.8952313140034,2.0,1.0,phase_1,,,,,,,,,,,,,green,I
194.0,7.0,3.0,1.0,3.0,3.0,377.6201540604234,2.0,1.0,phase_1,,,,,,,,,,,,,white,cross
41.0,1.0,1.0,0.0,2.0,2.0,400.165825150907,2.0,1.0,phase_1,,,,,,,,,,,,,green,I
214.0,3.0,3.0,0.0,1.0,1.0,531.8255163729191,2.0,1.0,phase_1,,,,,,,,,,,,,gray,diamond
0.0,4.0,0.0,0.0,4.0,4.0,343.7912035733461,2.0,1.0,phase_1,,,,,,,,,,,,,cyan,flipped triangle
199.0,3.0,3.0,0.0,1.0,1.0,492.5357634201646,2.0,1.0,phase_1,,,,,,,,,,,,,gray,diamond
415.0,4.0,4.0,0.0,4.0,4.0,303.1895840540528,2.0,1.0,phase_1,,,,,,,,,,,,,cyan,flipped triangle
64.0,1.0,1.0,0.0,3.0,3.0,383.8346535339951,2.0,1.0,phase_1,,,,,,,,,,,,,green,I
399.0,4.0,4.0,0.0,2.0,2.0,440.2581285685301,2.0,1.0,phase_1,,,,,,,,,,,,,cyan,flipped triangle
114.0,2.0,2.0,0.0,2.0,2.0,423.2525387778878,2.0,1.0,phase_1,,,,,,,,,,,,,yellow,circle
106.0,2.0,2.0,0.0,3.0,3.0,410.342987626791,2.0,1.0,phase_1,,,,,,,,,,,,,yellow,circle
201.0,3.0,3.0,0.0,3.0,3.0,414.7437186911702,2.0,1.0,phase_1,,,,,,,,,,,,,gray,diamond
384.0,8.0,4.0,1.0,1.0,1.0,445.2838404104113,2.0,1.0,phase_1,,,,,,,,,,,,,magenta,square
65.0,5.0,1.0,1.0,3.0,3.0,322.7934576570987,2.0,1.0,phase_1,,,,,,,,,,,,,orange,hexagon
199.0,7.0,3.0,1.0,4.0,4.0,350.2572998404503,2.0,1.0,phase_1,,,,,,,,,,,,,white,cross
0.0,7.0,0.0,1.0,3.0,3.0,323.0055775493383,2.0,1.0,phase_1,,,,,,,,,,,,,white,cross
0.0,7.0,0.0,1.0,4.0,4.0,290.3063641861081,2.0,1.0,phase_1,,,,,,,,,,,,,white,cross
85.0,2.0,2.0,0.0,2.0,2.0,386.4265140146017,2.0,1.0,phase_1,,,,,,,,,,,,,yellow,circle
200.0,7.0,3.0,1.0,4.0,4.0,288.2834207266569,2.0,1.0,phase_1,,,,,,,,,,,,,white,cross
418.0,8.0,4.0,1.0,3.0,3.0,318.8463794067502,2.0,1.0,phase_1,,,,,,,,,,,,,magenta,square
391.0,4.0,4.0,0.0,3.0,3.0,304.6234343200922,2.0,1.0,phase_1,,,,,,,,,,,,,cyan,flipped triangle
205.0,3.0,3.0,0.0,1.0,1.0,445.4709561541676,2.0,1.0,phase_1,,,,,,,,,,,,,gray,diamond
375.0,4.0,4.0,0.0,3.0,3.0,346.6714881360531,2.0,1.0,phase_1,,,,,,,,,,,,,cyan,flipped triangle
80.0,2.0,2.0,0.0,2.0,2.0,327.2292073816061,2.0,1.0,phase_1,,,,,,,,,,,,,yellow,circle
84.0,6.0,2.0,1.0,1.0,1.0,315.9271758049726,2.0,1.0,phase_1,,,,,,,,,,,,,blue,triangle
109.0,6.0,2.0,1.0,2.0,2.0,401.3435551896691,2.0,1.0,phase_1,,,,,,,,,,,,,blue,triangle
193.0,3.0,3.0,0.0,1.0,1.0,351.8318869173527,2.0,1.0,phase_1,,,,,,,,,,,,,gray,diamond
116.0,6.0,2.0,1.0,2.0,2.0,331.7225454375148,2.0,1.0,phase_1,,,,,,,,,,,,,blue,triangle
393.0,8.0,4.0,1.0,4.0,4.0,310.7715472579002,2.0,1.0,phase_1,,,,,,,,,,,,,magenta,square
0.0,7.0,0.0,1.0,3.0,3.0,316.7613921687007,2.0,1.0,phase_1,,,,,,,,,,,,,white,cross
0.0,3.0,0.0,0.0,4.0,4.0,322.1845040097832,2.0,1.0,phase_1,,,,,,,,,,,,,gray,diamond
58.0,5.0,1.0,1.0,4.0,4.0,318.8931783661246,2.0,1.0,phase_1,,,,,,,,,,,,,orange,hexagon
99.0,2.0,2.0,0.0,4.0,4.0,306.6868260502815,2.0,1.0,phase_1,,,,,,,,,,,,,yellow,circle
0.0,3.0,0.0,0.0,3.0,3.0,293.516076169908,2.0,1.0,phase_1,,,,,,,,,,,,,gray,diamond
0.0,3.0,0.0,0.0,2.0,2.0,332.7647009864449,2.0,1.0,phase_1,,,,,,,,,,,,,gray,diamond
121.0,2.0,2.0,0.0,4.0,4.0,305.932498537004,2.0,1.0,phase_1,,,,,,,,,,,,,yellow,circle
0.0,3.0,0.0,0.0,4.0,4.0,293.6212550848722,2.0,1.0,phase_1,,,,,,,,,,,,,gray,diamond
385.0,4.0,4.0,0.0,4.0,4.0,289.1482673585415,2.0,1.0,phase_1,,,,,,,,,,,,,cyan,flipped triangle
409.0,8.0,4.0,1.0,1.0,1.0,292.7743112668395,2.0,1.0,phase_1,,,,,,,,,,,,,magenta,square
110.0,6.0,2.0,1.0,4.0,4.0,245.44818419963119,2.0,1.0,phase_1,,,,,,,,,,,,,blue,triangle
0.0,6.0,0.0,1.0,3.0,3.0,314.5565660670399,2.0,1.0,phase_1,,,,,,,,,,,,,blue,triangle
84.0,2.0,2.0,0.0,4.0,4.0,270.19764482975,2.0,1.0,phase_1,,,,,,,,,,,,,yellow,circle
0.0,4.0,0.0,0.0,2.0,2.0,289.8411713540554,2.0,1.0,phase_1,,,,,,,,,,,,,cyan,flipped triangle
198.0,7.0,3.0,1.0,1.0,1.0,358.7553976103663,2.0,1.0,phase_1,,,,,,,,,,,,,white,cross
400.0,8.0,4.0,1.0,3.0,3.0,330.3190441802144,2.0,1.0,phase_1,,,,,,,,,,,,,magenta,square
90.0,6.0,2.0,1.0,1.0,1.0,288.7349110096693,2.0,1.0,phase_1,,,,,,,,,,,,,blue,triangle
380.0,4.0,4.0,0.0,1.0,1.0,324.5511753484607,2.0,1.0,phase_1,,,,,,,,,,,,,cyan,flipped triangle
191.0,7.0,3.0,1.0,1.0,1.0,281.1212837696075,2.0,1.0,phase_1,,,,,,,,,,,,,white,cross
182.0,3.0,3.0,0.0,4.0,4.0,300.623519346118,2.0,1.0,phase_1,,,,,,,,,,,,,gray,diamond
55.0,5.0,1.0,1.0,1.0,1.0,296.817940659821,2.0,1.0,phase_1,,,,,,,,,,,,,orange,hexagon
182.0,7.0,3.0,1.0,2.0,2.0,294.1304100677371,2.0,1.0,phase_1,,,,,,,,,,,,,white,cross
0.0,5.0,0.0,1.0,3.0,3.0,309.652947820723,2.0,1.0,phase_1,,,,,,,,,,,,,orange,hexagon
44.0,1.0,1.0,0.0,4.0,4.0,302.7286548167467,2.0,1.0,phase_1,,,,,,,,,,,,,green,I
201.0,3.0,3.0,0.0,2.0,2.0,327.0364999771118,2.0,1.0,phase_1,,,,,,,,,,,,,gray,diamond
208.0,7.0,3.0,1.0,1.0,1.0,346.0934041067958,2.0,1.0,phase_1,,,,,,,,,,,,,white,cross
62.0,1.0,1.0,0.0,1.0,1.0,310.5194857344031,2.0,1.0,phase_1,,,,,,,,,,,,,green,I
73.0,1.0,1.0,0.0,4.0,4.0,341.1458674818277,2.0,1.0,phase_1,,,,,,,,,,,,,green,I
384.0,4.0,4.0,0.0,2.0,2.0,517.7133111283183,2.0,1.0,phase_1,,,,,,,,,,,,,cyan,flipped triangle
0.0,8.0,0.0,1.0,1.0,1.0,306.6742168739438,2.0,1.0,phase_1,,,,,,,,,,,,,magenta,square
390.0,8.0,4.0,1.0,2.0,2.0,367.5853535532951,2.0,1.0,phase_1,,,,,,,,,,,,,magenta,square
0.0,8.0,0.0,1.0,2.0,2.0,343.0948406457901,2.0,1.0,phase_1,,,,,,,,,,,,,magenta,square
0.0,5.0,0.0,1.0,3.0,3.0,348.0524746701121,2.0,1.0,phase_1,,,,,,,,,,,,,orange,hexagon
420.0,8.0,4.0,1.0,3.0,3.0,403.5152280703187,3.0,1.0,phase_1,,,,,,,,,,,,,magenta,square
0.0,3.0,0.0,0.0,1.0,1.0,293.3465261012316,3.0,1.0,phase_1,,,,,,,,,,,,,gray,diamond
41.0,5.0,1.0,1.0,1.0,1.0,322.7114723995328,3.0,1.0,phase_1,,,,,,,,,,,,,orange,hexagon
0.0,8.0,0.0,1.0,3.0,3.0,369.8371686041355,3.0,1.0,phase_1,,,,,,,,,,,,,magenta,square
125.0,2.0,2.0,0.0,1.0,1.0,283.5121257230639,3.0,1.0,phase_1,,,,,,,,,,,,,yellow,circle
125.0,6.0,2.0,1.0,4.0,4.0,306.8574881181121,3.0,1.0,phase_1,,,,,,,,,,,,,blue,triangle
0.0,5.0,0.0,1.0,4.0,4.0,260.9540829434991,3.0,1.0,phase_1,,,,,,,,,,,,,orange,hexagon
56.0,1.0,1.0,0.0,3.0,3.0,306.1347650364041,3.0,1.0,phase_1,,,,,,,,,,,,,green,I
0.0,8.0,0.0,1.0,2.0,2.0,317.9914522916078,3.0,1.0,phase_1,,,,,,,,,,,,,magenta,square
179.0,3.0,3.0,0.0,2.0,2.0,397.2573177888989,3.0,1.0,phase_1,,,,,,,,,,,,,gray,diamond
396.0,4.0,4.0,0.0,3.0,3.0,338.5409014299512,3.0,1.0,phase_1,,,,,,,,,,,,,cyan,flipped triangle
0.0,6.0,0.0,1.0,3.0,3.0,293.1413259357214,3.0,1.0,phase_1,,,,,,,,,,,,,blue,triangle
385.0,8.0,4.0,1.0,1.0,1.0,377.5096638128161,3.0,1.0,phase_1,,,,,,,,,,,,,magenta,square
75.0,6.0,2.0,1.0,4.0,4.0,298.0526490136981,3.0,1.0,phase_1,,,,,,,,,,,,,blue,triangle
64.0,5.0,1.0,1.0,1.0,1.0,322.7364979684353,3.0,1.0,phase_1,,,,,,,,,,,,,orange,hexagon
41.0,1.0,1.0,0.0,1.0,1.0,287.8887057304382,3.0,1.0,phase_1,,,,,,,,,,,,,green,I
73.0,5.0,1.0,1.0,2.0,2.0,275.9491745382547,3.0,1.0,phase_1,,,,,,,,,,,,,orange,hexagon
201.0,7.0,3.0,1.0,3.0,3.0,299.0000238642096,3.0,1.0,phase_1,,,,,,,,,,,,,white,cross
0.0,6.0,0.0,1.0,2.0,2.0,301.5865283086896,3.0,1.0,phase_1,,,,,,,,,,,,,blue,triangle
32.0,5.0,1.0,1.0,3.0,3.0,285.2858463302254,3.0,1.0,phase_1,,,,,,,,,,,,,orange,hexagon
212.0,3.0,3.0,0.0,3.0,3.0,334.4526505097747,3.0,1.0,phase_1,,,,,,,,,,,,,gray,diamond
106.0,6.0,2.0,1.0,1.0,1.0,358.1495843827724,3.0,1.0,phase_1,,,,,,,,,,,,,blue,triangle
114.0,6.0,2.0,1.0,2.0,2.0,355.2904454991221,3.0,1.0,phase_1,,,,,,,,,,,,,blue,triangle
29.0,5.0,1.0,1.0,1.0,1.0,302.2309662774205,3.0,1.0,phase_1,,,,,,,,,,,,,orange,hexagon
209.0,3.0,3.0,0.0,3.0,3.0,346.240765415132,3.0,1.0,phase_1,,,,,,,,,,,,,gray,diamond
75.0,1.0,1.0,0.0,3.0,3.0,325.6707862019539,3.0,1.0,phase_1,,,,,,,,,,,,,green,I
202.0,3.0,3.0,0.0,3.0,3.0,388.4374760091305,3.0,1.0,phase_1,,,,,,,,,,,,,gray,diamond
205.0,7.0,3.0,1.0,2.0,2.0,354.2205402627587,3.0,1.0,phase_1,,,,,,,,,,,,,white,cross
65.0,1.0,1.0,0.0,3.0,3.0,308.7647091597318,3.0,1.0,phase_1,,,,,,,,,,,,,green,I
0.0,8.0,0.0,1.0,4.0,4.0,305.0159104168415,3.0,1.0,phase_1,,,,,,,,,,,,,magenta,square
45.0,5.0,1.0,1.0,4.0,4.0,310.4642461985349,3.0,1.0,phase_1,,,,,,,,,,,,,orange,hexagon
425.0,8.0,4.0,1.0,4.0,4.0,275.707378052175,3.0,1.0,phase_1,,,,,,,,,,,,,magenta,square
36.0,1.0,1.0,0.0,2.0,2.0,337.9363035783171,3.0,1.0,phase_1,,,,,,,,,,,,,green,I
413.0,4.0,4.0,0.0,2.0,2.0,294.032727368176,3.0,1.0,phase_1,,,,,,,,,,,,,cyan,flipped triangle
69.0,1.0,1.0,0.0,1.0,1.0,439.9479432031512,3.0,1.0,phase_1,,,,,,,,,,,,,green,I
416.0,4.0,4.0,0.0,2.0,2.0,326.8876057118177,3.0,1.0,phase_1,,,,,,,,,,,,,cyan,flipped triangle
79.0,2.0,2.0,0.0,1.0,1.0,346.3229797780514,3.0,1.0,phase_1,,,,,,,,,,,,,yellow,circle
212.0,7.0,3.0,1.0,4.0,4.0,282.2352424263954,3.0,1.0,phase_1,,,,,,,,,,,,,white,cross
34.0,5.0,1.0,1.0,3.0,3.0,334.3970170244574,3.0,1.0,phase_1,,,,,,,,,,,,,orange,hexagon
185.0,7.0,3.0,1.0,1.0,1.0,290.0899956002831,3.0,1.0,phase_1,,,,,,,,,,,,,white,cross
421.0,8.0,4.0,1.0,1.0,1.0,364.2290644347667,3.0,1.0,phase_1,,,,,,,,,,,,,magenta,square
199.0,3.0,3.0,0.0,1.0,1.0,393.8023503869772,3.0,1.0,phase_1,,,,,,,,,,,,,gray,diamond
0.0,3.0,0.0,0.0,1.0,1.0,285.8237810432911,3.0,1.0,phase_1,,,,,,,,,,,,,gray,diamond
198.0,3.0,3.0,0.0,4.0,4.0,406.0823349282145,3.0,1.0,phase_1,,,,,,,,,,,,,gray,diamond
177.0,3.0,3.0,0.0,2.0,2.0,287.8241632133722,3.0,1.0,phase_1,,,,,,,,,,,,,gray,diamond
0.0,1.0,0.0,0.0,2.0,2.0,341.805450618267,3.0,1.0,phase_1,,,,,,,,,,,,,green,I
30.0,5.0,1.0,1.0,3.0,3.0,369.2486966028809,3.0,1.0,phase_1,,,,,,,,,,,,,orange,hexagon
389.0,8.0,4.0,1.0,4.0,4.0,399.6191192418337,3.0,1.0,phase_1,,,,,,,,,,,,,magenta,square
0.0,2.0,0.0,0.0,4.0,4.0,301.202961243689,3.0,1.0,phase_1,,,,,,,,,,,,,yellow,circle
0.0,1.0,0.0,0.0,4.0,4.0,305.9664284810424,3.0,1.0,phase_1,,,,,,,,,,,,,green,I
0.0,2.0,0.0,0.0,4.0,4.0,291.2279656156897,3.0,1.0,phase_1,,,,,,,,,,,,,yellow,circle
0.0,2.0,0.0,0.0,3.0,3.0,288.1928281858563,3.0,1.0,phase_1,,,,,,,,,,,,,yellow,circle
0.0,8.0,0.0,1.0,3.0,3.0,300.6129851564765,3.0,1.0,phase_1,,,,,,,,,,,,,magenta,square
106.0,6.0,2.0,1.0,1.0,1.0,300.9787499904632,3.0,1.0,phase_1,,,,,,,,,,,,,blue,triangle
45.0,1.0,1.0,0.0,4.0,4.0,302.7402209118008,3.0,1.0,phase_1,,,,,,,,,,,,,green,I
29.0,1.0,1.0,0.0,3.0,3.0,292.9346915334463,3.0,1.0,phase_1,,,,,,,,,,,,,green,I
121.0,2.0,2.0,0.0,3.0,3.0,408.6439115926623,3.0,1.0,phase_1,,,,,,,,,,,,,yellow,circle
0.0,2.0,0.0,0.0,4.0,4.0,292.257116176188,3.0,1.0,phase_1,,,,,,,,,,,,,yellow,circle
408.0,8.0,4.0,1.0,2.0,2.0,331.2977654859423,3.0,1.0,phase_1,,,,,,,,,,,,,magenta,square
75.0,5.0,1.0,1.0,4.0,4.0,230.4249927401542,3.0,1.0,phase_1,,,,,,,,,,,,,orange,hexagon
41.0,5.0,1.0,1.0,2.0,2.0,315.9352960065007,3.0,1.0,phase_1,,,,,,,,,,,,,orange,hexagon
0.0,5.0,0.0,1.0,1.0,1.0,290.6827311962843,3.0,1.0,phase_1,,,,,,,,,,,,,orange,hexagon
221.0,7.0,3.0,1.0,4.0,4.0,302.141148597002,3.0,1.0,phase_1,,,,,,,,,,,,,white,cross
415.0,8.0,4.0,1.0,1.0,1.0,313.0816053599119,3.0,1.0,phase_1,,,,,,,,,,,,,magenta,square
416.0,4.0,4.0,0.0,3.0,3.0,285.4014281183481,3.0,1.0,phase_1,,,,,,,,,,,,,cyan,flipped triangle
98.0,2.0,2.0,0.0,4.0,4.0,276.83584298938507,3.0,1.0,phase_1,,,,,,,,,,,,,yellow,circle
30.0,1.0,1.0,0.0,2.0,2.0,317.7230954170227,3.0,1.0,phase_1,,,,,,,,,,,,,green,I
0.0,1.0,0.0,0.0,2.0,2.0,333.8695615530014,3.0,1.0,phase_1,,,,,,,,,,,,,green,I
223.0,7.0,3.0,1.0,2.0,2.0,304.1613632813096,3.0,1.0,phase_1,,,,,,,,,,,,,white,cross
220.0,7.0,3.0,1.0,3.0,3.0,292.5680447369814,3.0,1.0,phase_1,,,,,,,,,,,,,white,cross
32.0,1.0,1.0,0.0,3.0,3.0,281.7755751311779,3.0,1.0,phase_1,,,,,,,,,,,,,green,I
0.0,4.0,0.0,0.0,3.0,3.0,288.8138238340616,3.0,1.0,phase_1,,,,,,,,,,,,,cyan,flipped triangle
75.0,6.0,2.0,1.0,3.0,3.0,316.8154284358024,3.0,1.0,phase_1,,,,,,,,,,,,,blue,triangle
71.0,1.0,1.0,0.0,4.0,4.0,264.59476724267,3.0,1.0,phase_1,,,,,,,,,,,,,green,I
386.0,8.0,4.0,1.0,4.0,4.0,263.2134212180972,3.0,1.0,phase_1,,,,,,,,,,,,,magenta,square
41.0,5.0,1.0,1.0,3.0,3.0,312.4677343294024,3.0,1.0,phase_1,,,,,,,,,,,,,orange,hexagon
187.0,7.0,3.0,1.0,1.0,1.0,292.9343609139323,3.0,1.0,phase_1,,,,,,,,,,,,,white,cross
106.0,2.0,2.0,0.0,3.0,3.0,269.0143221989274,3.0,1.0,phase_1,,,,,,,,,,,,,yellow,circle
0.0,8.0,0.0,1.0,3.0,3.0,304.8445554450154,3.0,1.0,phase_1,,,,,,,,,,,,,magenta,square
415.0,4.0,4.0,0.0,2.0,2.0,350.6567375734448,3.0,1.0,phase_1,,,,,,,,,,,,,cyan,flipped triangle
38.0,1.0,1.0,0.0,4.0,4.0,371.2107017636299,3.0,1.0,phase_1,,,,,,,,,,,,,green,I
0.0,2.0,0.0,0.0,4.0,4.0,284.8938349634409,3.0,1.0,phase_1,,,,,,,,,,,,,yellow,circle
97.0,2.0,2.0,0.0,2.0,2.0,328.9264049381017,3.0,1.0,phase_1,,,,,,,,,,,,,yellow,circle
396.0,8.0,4.0,1.0,4.0,4.0,272.8238767012954,3.0,1.0,phase_1,,,,,,,,,,,,,magenta,square
394.0,8.0,4.0,1.0,3.0,3.0,268.3440819382667,3.0,1.0,phase_1,,,,,,,,,,,,,magenta,square
186.0,3.0,3.0,0.0,1.0,1.0,295.525480993092,3.0,1.0,phase_1,,,,,,,,,,,,,gray,diamond
106.0,2.0,2.0,0.0,1.0,1.0,317.5134062767029,3.0,1.0,phase_1,,,,,,,,,,,,,yellow,circle
0.0,4.0,0.0,0.0,2.0,2.0,322.7856578305363,3.0,1.0,phase_1,,,,,,,,,,,,,cyan,flipped triangle
192.0,3.0,3.0,0.0,4.0,4.0,256.3771549612283,3.0,1.0,phase_1,,,,,,,,,,,,,gray,diamond
390.0,4.0,4.0,0.0,3.0,3.0,276.9394544884562,3.0,1.0,phase_1,,,,,,,,,,,,,cyan,flipped triangle
418.0,4.0,4.0,0.0,4.0,4.0,265.8881926909089,3.0,1.0,phase_1,,,,,,,,,,,,,cyan,flipped triangle
44.0,5.0,1.0,1.0,1.0,1.0,309.4498887658119,3.0,1.0,phase_1,,,,,,,,,,,,,orange,hexagon
71.0,5.0,1.0,1.0,1.0,1.0,289.815180003643,3.0,1.0,phase_1,,,,,,,,,,,,,orange,hexagon
122.0,2.0,2.0,0.0,2.0,2.0,300.8493883535266,3.0,1.0,phase_1,,,,,,,,,,,,,yellow,circle
214.0,7.0,3.0,1.0,3.0,3.0,284.9570512771606,3.0,1.0,phase_1,,,,,,,,,,,,,white,cross
399.0,8.0,4.0,1.0,3.0,3.0,317.8677530959248,3.0,1.0,phase_1,,,,,,,,,,,,,magenta,square
0.0,3.0,0.0,0.0,4.0,4.0,291.5249411016702,3.0,1.0,phase_1,,,,,,,,,,,,,gray,diamond
218.0,7.0,3.0,1.0,1.0,1.0,281.4337117597461,3.0,1.0,phase_1,,,,,,,,,,,,,white,cross
0.0,8.0,0.0,1.0,1.0,1.0,276.5284711495042,3.0,1.0,phase_1,,,,,,,,,,,,,magenta,square
0.0,7.0,0.0,1.0,4.0,4.0,354.5543299987912,3.0,1.0,phase_1,,,,,,,,,,,,,white,cross
0.0,3.0,0.0,0.0,1.0,1.0,298.9887315779924,4.0,1.0,phase_1,,,,,,,,,,,,,gray,diamond
65.0,1.0,1.0,0.0,4.0,4.0,255.960444919765,4.0,1.0,phase_1,,,,,,,,,,,,,green,I
0.0,4.0,0.0,0.0,2.0,2.0,338.8986214995384,4.0,1.0,phase_1,,,,,,,,,,,,,cyan,flipped triangle
49.0,1.0,1.0,0.0,1.0,1.0,297.2670933231711,4.0,1.0,phase_1,,,,,,,,,,,,,green,I
37.0,1.0,1.0,0.0,2.0,2.0,260.7102971524,4.0,1.0,phase_1,,,,,,,,,,,,,green,I
106.0,6.0,2.0,1.0,1.0,1.0,275.724015198648,4.0,1.0,phase_1,,,,,,,,,,,,,blue,triangle
403.0,8.0,4.0,1.0,2.0,2.0,297.2454605624079,4.0,1.0,phase_1,,,,,,,,,,,,,magenta,square
0.0,1.0,0.0,0.0,4.0,4.0,276.7418446019292,4.0,1.0,phase_1,,,,,,,,,,,,,green,I
384.0,8.0,4.0,1.0,1.0,1.0,329.8418391495943,4.0,1.0,phase_1,,,,,,,,,,,,,magenta,square
386.0,4.0,4.0,0.0,3.0,3.0,302.5935590267181,4.0,1.0,phase_1,,,,,,,,,,,,,cyan,flipped triangle
63.0,5.0,1.0,1.0,2.0,2.0,256.8180011585355,4.0,1.0,phase_1,,,,,,,,,,,,,orange,hexagon
0.0,6.0,0.0,1.0,4.0,4.0,269.9724687263369,4.0,1.0,phase_1,,,,,,,,,,,,,blue,triangle
109.0,6.0,2.0,1.0,1.0,1.0,281.4840069040656,4.0,1.0,phase_1,,,,,,,,,,,,,blue,triangle
179.0,7.0,3.0,1.0,4.0,4.0,266.4867881685495,4.0,1.0,phase_1,,,,,,,,,,,,,white,cross
410.0,4.0,4.0,0.0,2.0,2.0,262.8402039408684,4.0,1.0,phase_1,,,,,,,,,,,,,cyan,flipped triangle
201.0,7.0,3.0,1.0,3.0,3.0,265.3155960142612,4.0,1.0,phase_1,,,,,,,,,,,,,white,cross
85.0,2.0,2.0,0.0,3.0,3.0,277.4407137185335,4.0,1.0,phase_1,,,,,,,,,,,,,yellow,circle
406.0,8.0,4.0,1.0,3.0,3.0,260.863346979022,4.0,1.0,phase_1,,,,,,,,,,,,,magenta,square
384.0,4.0,4.0,0.0,1.0,1.0,280.9167187660932,4.0,1.0,phase_1,,,,,,,,,,,,,cyan,flipped triangle
208.0,3.0,3.0,0.0,4.0,4.0,261.3348057493567,4.0,1.0,phase_1,,,,,,,,,,,,,gray,diamond
194.0,3.0,3.0,0.0,2.0,2.0,306.5049136057496,4.0,1.0,phase_1,,,,,,,,,,,,,gray,diamond
185.0,3.0,3.0,0.0,4.0,4.0,235.559182241559,4.0,1.0,phase_1,,,,,,,,,,,,,gray,diamond
224.0,3.0,3.0,0.0,1.0,1.0,290.355795994401,4.0,1.0,phase_1,,,,,,,,,,,,,gray,diamond
65.0,5.0,1.0,1.0,2.0,2.0,280.1617672666907,4.0,1.0,phase_1,,,,,,,,,,,,,orange,hexagon
200.0,3.0,3.0,0.0,2.0,2.0,317.5181541591882,4.0,1.0,phase_1,,,,,,,,,,,,,gray,diamond
0.0,4.0,0.0,0.0,1.0,1.0,297.7681020274758,4.0,1.0,phase_1,,,,,,,,,,,,,cyan,flipped triangle
0.0,5.0,0.0,1.0,4.0,4.0,318.9103407785296,4.0,1.0,phase_1,,,,,,,,,,,,,orange,hexagon
56.0,5.0,1.0,1.0,2.0,2.0,281.9632813334465,4.0,1.0,phase_1,,,,,,,,,,,,,orange,hexagon
85.0,6.0,2.0,1.0,4.0,4.0,240.8627169206738,4.0,1.0,phase_1,,,,,,,,,,,,,blue,triangle
98.0,6.0,2.0,1.0,3.0,3.0,277.2178100422025,4.0,1.0,phase_1,,,,,,,,,,,,,blue,triangle
82.0,6.0,2.0,1.0,4.0,4.0,270.0634486973285,4.0,1.0,phase_1,,,,,,,,,,,,,blue,triangle
46.0,5.0,1.0,1.0,2.0,2.0,227.018135599792,4.0,1.0,phase_1,,,,,,,,,,,,,orange,hexagon
28.0,5.0,1.0,1.0,3.0,3.0,305.4625848308205,4.0,1.0,phase_1,,,,,,,,,,,,,orange,hexagon
0.0,2.0,0.0,0.0,2.0,2.0,277.8343912214041,4.0,1.0,phase_1,,,,,,,,,,,,,yellow,circle
119.0,6.0,2.0,1.0,2.0,2.0,265.4662448912859,4.0,1.0,phase_1,,,,,,,,,,,,,blue,triangle
37.0,5.0,1.0,1.0,4.0,4.0,269.2995518445968,4.0,1.0,phase_1,,,,,,,,,,,,,orange,hexagon
398.0,8.0,4.0,1.0,2.0,2.0,251.9567692652344,4.0,1.0,phase_1,,,,,,,,,,,,,magenta,square
68.0,5.0,1.0,1.0,1.0,1.0,289.1391003504395,4.0,1.0,phase_1,,,,,,,,,,,,,orange,hexagon
214.0,3.0,3.0,0.0,1.0,1.0,310.6605419889092,4.0,1.0,phase_1,,,,,,,,,,,,,gray,diamond
106.0,6.0,2.0,1.0,3.0,3.0,298.1353662908077,4.0,1.0,phase_1,,,,,,,,,,,,,blue,triangle
219.0,7.0,3.0,1.0,4.0,4.0,268.7047263607383,4.0,1.0,phase_1,,,,,,,,,,,,,white,cross
56.0,1.0,1.0,0.0,1.0,1.0,268.8158368691802,4.0,1.0,phase_1,,,,,,,,,,,,,green,I
192.0,7.0,3.0,1.0,3.0,3.0,263.6026190593838,4.0,1.0,phase_1,,,,,,,,,,,,,white,cross
55.0,1.0,1.0,0.0,4.0,4.0,284.9923335015774,4.0,1.0,phase_1,,,,,,,,,,,,,green,I
0.0,5.0,0.0,1.0,2.0,2.0,313.5194219648838,4.0,1.0,phase_1,,,,,,,,,,,,,orange,hexagon
101.0,6.0,2.0,1.0,4.0,4.0,272.1539512276649,4.0,1.0,phase_1,,,,,,,,,,,,,blue,triangle
103.0,6.0,2.0,1.0,2.0,2.0,272.4008075892925,4.0,1.0,phase_1,,,,,,,,,,,,,blue,triangle
406.0,8.0,4.0,1.0,3.0,3.0,305.4288644343614,4.0,1.0,phase_1,,,,,,,,,,,,,magenta,square
0.0,6.0,0.0,1.0,2.0,2.0,370.9029722958803,4.0,1.0,phase_1,,,,,,,,,,,,,blue,triangle
77.0,2.0,2.0,0.0,2.0,2.0,321.3714677840471,4.0,1.0,phase_1,,,,,,,,,,,,,yellow,circle
375.0,8.0,4.0,1.0,1.0,1.0,300.6513910368085,4.0,1.0,phase_1,,,,,,,,,,,,,magenta,square
221.0,7.0,3.0,1.0,3.0,3.0,467.6431091502309,4.0,1.0,phase_1,,,,,,,,,,,,,white,cross
224.0,7.0,3.0,1.0,1.0,1.0,285.0886611267924,4.0,1.0,phase_1,,,,,,,,,,,,,white,cross
421.0,8.0,4.0,1.0,1.0,1.0,301.1089023202657,4.0,1.0,phase_1,,,,,,,,,,,,,magenta,square
186.0,7.0,3.0,1.0,3.0,3.0,297.4999956786632,4.0,1.0,phase_1,,,,,,,,,,,,,white,cross
401.0,8.0,4.0,1.0,2.0,2.0,260.0821340456605,4.0,1.0,phase_1,,,,,,,,,,,,,magenta,square
121.0,6.0,2.0,1.0,2.0,2.0,280.1182474941015,4.0,1.0,phase_1,,,,,,,,,,,,,blue,triangle
183.0,7.0,3.0,1.0,4.0,4.0,276.6688726842403,4.0,1.0,phase_1,,,,,,,,,,,,,white,cross
122.0,2.0,2.0,0.0,3.0,3.0,305.9886517003178,4.0,1.0,phase_1,,,,,,,,,,,,,yellow,circle
378.0,8.0,4.0,1.0,3.0,3.0,321.2133152410388,4.0,1.0,phase_1,,,,,,,,,,,,,magenta,square
193.0,7.0,3.0,1.0,1.0,1.0,314.6204249933362,4.0,1.0,phase_1,,,,,,,,,,,,,white,cross
0.0,2.0,0.0,0.0,1.0,1.0,297.4300254136324,4.0,1.0,phase_1,,,,,,,,,,,,,yellow,circle
398.0,4.0,4.0,0.0,3.0,3.0,244.081137701869,4.0,1.0,phase_1,,,,,,,,,,,,,cyan,flipped triangle
37.0,1.0,1.0,0.0,1.0,1.0,281.2315002083778,4.0,1.0,phase_1,,,,,,,,,,,,,green,I
38.0,5.0,1.0,1.0,1.0,1.0,260.9784519299865,4.0,1.0,phase_1,,,,,,,,,,,,,orange,hexagon
34.0,1.0,1.0,0.0,2.0,2.0,331.4773710444569,4.0,1.0,phase_1,,,,,,,,,,,,,green,I
190.0,3.0,3.0,0.0,3.0,3.0,290.1452239602804,4.0,1.0,phase_1,,,,,,,,,,,,,gray,diamond
0.0,5.0,0.0,1.0,1.0,1.0,269.283976405859,4.0,1.0,phase_1,,,,,,,,,,,,,orange,hexagon
219.0,3.0,3.0,0.0,3.0,3.0,256.8431170657277,4.0,1.0,phase_1,,,,,,,,,,,,,gray,diamond
73.0,1.0,1.0,0.0,4.0,4.0,303.2495323568582,4.0,1.0,phase_1,,,,,,,,,,,,,green,I
0.0,5.0,0.0,1.0,4.0,4.0,258.0577367916703,4.0,1.0,phase_1,,,,,,,,,,,,,orange,hexagon
215.0,3.0,3.0,0.0,2.0,2.0,334.8911944776773,4.0,1.0,phase_1,,,,,,,,,,,,,gray,diamond
0.0,1.0,0.0,0.0,4.0,4.0,253.8622841238975,4.0,1.0,phase_1,,,,,,,,,,,,,green,I
67.0,5.0,1.0,1.0,4.0,4.0,280.1464749500155,4.0,1.0,phase_1,,,,,,,,,,,,,orange,hexagon
386.0,4.0,4.0,0.0,1.0,1.0,335.7781255617738,4.0,1.0,phase_1,,,,,,,,,,,,,cyan,flipped triangle
102.0,6.0,2.0,1.0,4.0,4.0,345.2714812010526,4.0,1.0,phase_1,,,,,,,,,,,,,blue,triangle
80.0,6.0,2.0,1.0,2.0,2.0,287.6284532248974,4.0,1.0,phase_1,,,,,,,,,,,,,blue,triangle
380.0,8.0,4.0,1.0,2.0,2.0,289.8045377805829,4.0,1.0,phase_1,,,,,,,,,,,,,magenta,square
0.0,7.0,0.0,1.0,3.0,3.0,272.7258866652846,4.0,1.0,phase_1,,,,,,,,,,,,,white,cross
421.0,4.0,4.0,0.0,1.0,1.0,317.2379462048411,4.0,1.0,phase_1,,,,,,,,,,,,,cyan,flipped triangle
0.0,2.0,0.0,0.0,3.0,3.0,272.474167868495,4.0,1.0,phase_1,,,,,,,,,,,,,yellow,circle
416.0,8.0,4.0,1.0,1.0,1.0,199.5242340490222,4.0,1.0,phase_1,,,,,,,,,,,,,magenta,square
0.0,4.0,0.0,0.0,4.0,4.0,236.3420771434903,4.0,1.0,phase_1,,,,,,,,,,,,,cyan,flipped triangle
215.0,7.0,3.0,1.0,2.0,2.0,289.7466663271189,4.0,1.0,phase_1,,,,,,,,,,,,,white,cross
378.0,8.0,4.0,1.0,4.0,4.0,278.5295555368066,4.0,1.0,phase_1,,,,,,,,,,,,,magenta,square
0.0,4.0,0.0,0.0,2.0,2.0,271.9117403030395,4.0,1.0,phase_1,,,,,,,,,,,,,cyan,flipped triangle
99.0,6.0,2.0,1.0,3.0,3.0,293.272209353745,4.0,1.0,phase_1,,,,,,,,,,,,,blue,triangle
68.0,1.0,1.0,0.0,3.0,3.0,297.8381859138608,4.0,1.0,phase_1,,,,,,,,,,,,,green,I
0.0,7.0,0.0,1.0,4.0,4.0,272.9856362566352,4.0,1.0,phase_1,,,,,,,,,,,,,white,cross
54.0,5.0,1.0,1.0,4.0,4.0,293.5931850224733,4.0,1.0,phase_1,,,,,,,,,,,,,orange,hexagon
219.0,7.0,3.0,1.0,2.0,2.0,336.9300318881869,4.0,1.0,phase_1,,,,,,,,,,,,,white,cross
122.0,6.0,2.0,1.0,3.0,3.0,291.8050568550825,4.0,1.0,phase_1,,,,,,,,,,,,,blue,triangle
0.0,1.0,0.0,0.0,1.0,1.0,313.110914081335,4.0,1.0,phase_1,,,,,,,,,,,,,green,I
41.0,1.0,1.0,0.0,4.0,4.0,272.3665786907077,4.0,1.0,phase_1,,,,,,,,,,,,,green,I
0.0,8.0,0.0,1.0,1.0,1.0,285.953433252871,4.0,1.0,phase_1,,,,,,,,,,,,,magenta,square
90.0,2.0,2.0,0.0,1.0,1.0,342.383112758398,4.0,1.0,phase_1,,,,,,,,,,,,,yellow,circle
88.0,2.0,2.0,0.0,3.0,3.0,333.4808936342597,4.0,1.0,phase_1,,,,,,,,,,,,,yellow,circle
0.0,4.0,0.0,0.0,1.0,1.0,330.1220368593931,4.0,1.0,phase_1,,,,,,,,,,,,,cyan,flipped triangle
36.0,5.0,1.0,1.0,3.0,3.0,310.4099594056606,4.0,1.0,phase_1,,,,,,,,,,,,,orange,hexagon
72.0,5.0,1.0,1.0,4.0,4.0,267.8578533232212,4.0,1.0,phase_1,,,,,,,,,,,,,orange,hexagon
0.0,5.0,1.0,1.0,6.0,0.0,0.0,1.0,1.0,phase_2,stop,250.0,250.0,4.0,,,,,,,,,orange,hexagon
0.0,8.0,4.0,1.0,6.0,6.0,695.5073205754161,1.0,1.0,phase_2,go,250.0,300.0,1.0,,,,,,,,,magenta,square
0.0,1.0,1.0,0.0,5.0,5.0,367.757061496377,1.0,1.0,phase_2,go,250.0,300.0,1.0,,,,,,,,,green,I
0.0,5.0,1.0,1.0,5.0,0.0,0.0,1.0,1.0,phase_2,stop,250.0,300.0,4.0,,,,,,,,,orange,hexagon
0.0,1.0,1.0,0.0,5.0,5.0,774.5583178475499,1.0,1.0,phase_2,go,300.0,300.0,1.0,,,,,,,,,green,I
0.0,7.0,3.0,1.0,6.0,0.0,0.0,1.0,1.0,phase_2,stop,300.0,300.0,4.0,,,,,,,,,white,cross
0.0,2.0,2.0,0.0,5.0,5.0,642.8672941401601,1.0,1.0,phase_2,go,300.0,350.0,1.0,,,,,,,,,yellow,circle
0.0,6.0,2.0,1.0,6.0,0.0,0.0,1.0,1.0,phase_2,stop,300.0,350.0,4.0,,,,,,,,,blue,triangle
0.0,7.0,3.0,1.0,6.0,0.0,0.0,1.0,1.0,phase_2,stop,300.0,400.0,4.0,,,,,,,,,white,cross
0.0,3.0,3.0,0.0,6.0,6.0,704.8332896083593,1.0,1.0,phase_2,go,300.0,450.0,1.0,,,,,,,,,gray,diamond
0.0,6.0,2.0,1.0,6.0,0.0,0.0,1.0,1.0,phase_2,stop,300.0,450.0,4.0,,,,,,,,,blue,triangle
0.0,2.0,2.0,0.0,6.0,6.0,778.6595327779651,1.0,1.0,phase_2,go,300.0,500.0,1.0,,,,,,,,,yellow,circle
0.0,7.0,3.0,1.0,6.0,0.0,0.0,1.0,1.0,phase_2,stop,300.0,500.0,4.0,,,,,,,,,white,cross
0.0,2.0,2.0,0.0,6.0,6.0,846.8450577929616,1.0,1.0,phase_2,go,300.0,550.0,1.0,,,,,,,,,yellow,circle
0.0,3.0,3.0,0.0,5.0,5.0,861.757293343544,1.0,1.0,phase_2,go,300.0,550.0,1.0,,,,,,,,,gray,diamond
0.0,2.0,2.0,0.0,5.0,5.0,774.8132972046733,1.0,1.0,phase_2,go,300.0,550.0,1.0,,,,,,,,,yellow,circle
0.0,6.0,2.0,1.0,5.0,0.0,0.0,1.0,1.0,phase_2,stop,300.0,550.0,4.0,,,,,,,,,blue,triangle
0.0,6.0,2.0,1.0,5.0,0.0,0.0,1.0,1.0,phase_2,stop,350.0,550.0,4.0,,,,,,,,,blue,triangle
0.0,5.0,1.0,1.0,5.0,0.0,0.0,1.0,1.0,phase_2,stop,400.0,550.0,4.0,,,,,,,,,orange,hexagon
0.0,2.0,2.0,0.0,6.0,6.0,586.9127931073308,1.0,1.0,phase_2,go,450.0,550.0,1.0,,,,,,,,,yellow,circle
0.0,4.0,4.0,0.0,5.0,5.0,718.0135250091553,1.0,1.0,phase_2,go,450.0,550.0,1.0,,,,,,,,,cyan,flipped triangle
0.0,3.0,3.0,0.0,5.0,5.0,723.3977159485221,1.0,1.0,phase_2,go,450.0,550.0,1.0,,,,,,,,,gray,diamond
0.0,1.0,1.0,0.0,5.0,5.0,804.2471762746572,1.0,1.0,phase_2,go,450.0,550.0,1.0,,,,,,,,,green,I
0.0,8.0,4.0,1.0,6.0,0.0,0.0,1.0,1.0,phase_2,stop,450.0,550.0,4.0,,,,,,,,,magenta,square
0.0,4.0,4.0,0.0,5.0,5.0,600.6566751748323,1.0,1.0,phase_2,go,450.0,600.0,1.0,,,,,,,,,cyan,flipped triangle
0.0,6.0,2.0,1.0,6.0,6.0,871.8587914481759,1.0,1.0,phase_2,go,450.0,600.0,1.0,,,,,,,,,blue,triangle
0.0,1.0,1.0,0.0,5.0,5.0,863.902835175395,1.0,1.0,phase_2,go,450.0,600.0,1.0,,,,,,,,,green,I
0.0,1.0,1.0,0.0,5.0,5.0,785.037505440414,1.0,1.0,phase_2,go,450.0,600.0,1.0,,,,,,,,,green,I
0.0,8.0,4.0,1.0,6.0,6.0,722.357852384448,1.0,1.0,phase_2,go,450.0,600.0,1.0,,,,,,,,,magenta,square
0.0,3.0,3.0,0.0,6.0,6.0,951.8629973754288,1.0,1.0,phase_2,go,450.0,600.0,1.0,,,,,,,,,gray,diamond
0.0,3.0,3.0,0.0,5.0,5.0,565.8015040680766,1.0,1.0,phase_2,go,450.0,600.0,1.0,,,,,,,,,gray,diamond
0.0,8.0,4.0,1.0,5.0,0.0,0.0,1.0,1.0,phase_2,stop,450.0,600.0,4.0,,,,,,,,,magenta,square
0.0,2.0,2.0,0.0,6.0,6.0,718.2875452563167,1.0,1.0,phase_2,go,500.0,600.0,1.0,,,,,,,,,yellow,circle
0.0,8.0,4.0,1.0,5.0,0.0,0.0,1.0,1.0,phase_2,stop,500.0,600.0,4.0,,,,,,,,,magenta,square
0.0,8.0,4.0,1.0,5.0,5.0,901.0224798694252,1.0,1.0,phase_2,go,550.0,600.0,1.0,,,,,,,,,magenta,square
0.0,7.0,3.0,1.0,6.0,0.0,0.0,1.0,1.0,phase_2,stop,550.0,600.0,4.0,,,,,,,,,white,cross
0.0,6.0,2.0,1.0,6.0,6.0,403.538410551846,2.0,1.0,phase_2,stop,550.0,650.0,3.0,,,,,,,,,blue,triangle
0.0,1.0,1.0,0.0,5.0,5.0,653.6703472957015,2.0,1.0,phase_2,go,550.0,600.0,1.0,,,,,,,,,green,I
0.0,3.0,3.0,0.0,6.0,6.0,605.0349669530988,2.0,1.0,phase_2,go,550.0,600.0,1.0,,,,,,,,,gray,diamond
0.0,7.0,3.0,1.0,6.0,6.0,557.4665581807494,2.0,1.0,phase_2,stop,550.0,600.0,3.0,,,,,,,,,white,cross
0.0,1.0,1.0,0.0,6.0,6.0,874.70727507025,2.0,1.0,phase_2,go,550.0,550.0,1.0,,,,,,,,,green,I
0.0,3.0,3.0,0.0,5.0,5.0,1004.3718796223402,2.0,1.0,phase_2,go,550.0,550.0,1.0,,,,,,,,,gray,diamond
0.0,7.0,3.0,1.0,6.0,0.0,0.0,2.0,1.0,phase_2,stop,550.0,550.0,4.0,,,,,,,,,white,cross
0.0,5.0,1.0,1.0,6.0,6.0,713.7779640033841,2.0,1.0,phase_2,go,550.0,600.0,1.0,,,,,,,,,orange,hexagon
0.0,1.0,1.0,0.0,6.0,6.0,943.4132808819412,2.0,1.0,phase_2,go,550.0,600.0,1.0,,,,,,,,,green,I
0.0,6.0,2.0,1.0,6.0,0.0,0.0,2.0,1.0,phase_2,stop,550.0,600.0,4.0,,,,,,,,,blue,triangle
0.0,8.0,4.0,1.0,6.0,0.0,0.0,2.0,1.0,phase_2,stop,550.0,650.0,4.0,,,,,,,,,magenta,square
0.0,3.0,3.0,0.0,5.0,5.0,530.1690390333533,2.0,1.0,phase_2,go,550.0,700.0,1.0,,,,,,,,,gray,diamond
0.0,1.0,1.0,0.0,5.0,5.0,758.2921544089913,2.0,1.0,phase_2,go,550.0,700.0,1.0,,,,,,,,,green,I
0.0,3.0,3.0,0.0,5.0,5.0,893.59918422997,2.0,1.0,phase_2,go,550.0,700.0,1.0,,,,,,,,,gray,diamond
0.0,5.0,1.0,1.0,5.0,0.0,0.0,2.0,1.0,phase_2,stop,550.0,700.0,4.0,,,,,,,,,orange,hexagon
0.0,1.0,1.0,0.0,6.0,6.0,621.1166549474001,2.0,1.0,phase_2,go,600.0,700.0,1.0,,,,,,,,,green,I
0.0,2.0,2.0,0.0,6.0,6.0,342.9043339565396,2.0,1.0,phase_2,go,600.0,700.0,1.0,,,,,,,,,yellow,circle
0.0,4.0,4.0,0.0,5.0,5.0,579.2296659201384,2.0,1.0,phase_2,go,600.0,700.0,1.0,,,,,,,,,cyan,flipped triangle
0.0,3.0,3.0,0.0,6.0,6.0,603.7045735865831,2.0,1.0,phase_2,go,600.0,700.0,1.0,,,,,,,,,gray,diamond
0.0,5.0,1.0,1.0,5.0,5.0,723.150884732604,2.0,1.0,phase_2,go,600.0,700.0,1.0,,,,,,,,,orange,hexagon
0.0,2.0,2.0,0.0,6.0,6.0,640.6541736796498,2.0,1.0,phase_2,go,600.0,700.0,1.0,,,,,,,,,yellow,circle
0.0,3.0,3.0,0.0,6.0,6.0,504.4702496379614,2.0,1.0,phase_2,go,600.0,700.0,1.0,,,,,,,,,gray,diamond
0.0,8.0,4.0,1.0,6.0,6.0,599.8220788314939,2.0,1.0,phase_2,stop,600.0,700.0,3.0,,,,,,,,,magenta,square
0.0,4.0,4.0,0.0,6.0,6.0,730.0766259431839,2.0,1.0,phase_2,go,600.0,650.0,1.0,,,,,,,,,cyan,flipped triangle
0.0,8.0,4.0,1.0,6.0,6.0,729.4522505253553,2.0,1.0,phase_2,stop,600.0,650.0,3.0,,,,,,,,,magenta,square
0.0,8.0,4.0,1.0,5.0,0.0,0.0,2.0,1.0,phase_2,stop,600.0,600.0,4.0,,,,,,,,,magenta,square
0.0,4.0,4.0,0.0,6.0,6.0,856.8030977621675,2.0,1.0,phase_2,go,650.0,600.0,1.0,,,,,,,,,cyan,flipped triangle
0.0,8.0,4.0,1.0,5.0,0.0,0.0,2.0,1.0,phase_2,stop,650.0,600.0,4.0,,,,,,,,,magenta,square
0.0,8.0,4.0,1.0,6.0,6.0,926.73113476485,2.0,1.0,phase_2,go,700.0,600.0,1.0,,,,,,,,,magenta,square
0.0,6.0,2.0,1.0,5.0,0.0,0.0,2.0,1.0,phase_2,stop,700.0,600.0,4.0,,,,,,,,,blue,triangle
0.0,1.0,1.0,0.0,5.0,5.0,1022.4653156474233,2.0,1.0,phase_2,go,750.0,600.0,1.0,,,,,,,,,green,I
0.0,7.0,3.0,1.0,5.0,0.0,0.0,2.0,1.0,phase_2,stop,750.0,600.0,4.0,,,,,,,,,white,cross
0.0,1.0,1.0,0.0,6.0,6.0,1341.8274587020278,2.0,1.0,phase_2,go,800.0,600.0,1.0,,,,,,,,,green,I
0.0,4.0,4.0,0.0,5.0,5.0,841.4476504549384,2.0,1.0,phase_2,go,800.0,600.0,1.0,,,,,,,,,cyan,flipped triangle
0.0,4.0,4.0,0.0,5.0,5.0,931.0280345380306,2.0,1.0,phase_2,go,800.0,600.0,1.0,,,,,,,,,cyan,flipped triangle
0.0,7.0,3.0,1.0,5.0,5.0,603.8514198735356,2.0,1.0,phase_2,stop,800.0,600.0,3.0,,,,,,,,,white,cross
0.0,2.0,2.0,0.0,5.0,5.0,577.7427302673459,3.0,1.0,phase_2,go,750.0,600.0,1.0,,,,,,,,,yellow,circle
0.0,6.0,2.0,1.0,6.0,6.0,684.0375326573849,3.0,1.0,phase_2,stop,750.0,600.0,3.0,,,,,,,,,blue,triangle
0.0,1.0,1.0,0.0,6.0,6.0,746.7405861243606,3.0,1.0,phase_2,go,750.0,550.0,1.0,,,,,,,,,green,I
0.0,4.0,4.0,0.0,6.0,6.0,1175.941257737577,3.0,1.0,phase_2,go,750.0,550.0,1.0,,,,,,,,,cyan,flipped triangle
0.0,6.0,2.0,1.0,6.0,0.0,0.0,3.0,1.0,phase_2,stop,750.0,550.0,4.0,,,,,,,,,blue,triangle
0.0,4.0,4.0,0.0,5.0,5.0,977.029369212687,3.0,1.0,phase_2,go,750.0,600.0,1.0,,,,,,,,,cyan,flipped triangle
0.0,7.0,3.0,1.0,5.0,0.0,0.0,3.0,1.0,phase_2,stop,750.0,600.0,4.0,,,,,,,,,white,cross
0.0,6.0,2.0,1.0,5.0,0.0,0.0,3.0,1.0,phase_2,stop,800.0,600.0,4.0,,,,,,,,,blue,triangle
0.0,2.0,2.0,0.0,5.0,5.0,855.4380098357797,3.0,1.0,phase_2,go,850.0,600.0,1.0,,,,,,,,,yellow,circle
0.0,5.0,1.0,1.0,5.0,5.0,820.6428652629256,3.0,1.0,phase_2,go,850.0,600.0,1.0,,,,,,,,,orange,hexagon
0.0,5.0,1.0,1.0,5.0,5.0,1070.2591417357326,3.0,1.0,phase_2,go,850.0,600.0,1.0,,,,,,,,,orange,hexagon
0.0,6.0,2.0,1.0,6.0,6.0,828.5300871357322,3.0,1.0,phase_2,go,850.0,600.0,1.0,,,,,,,,,blue,triangle
0.0,3.0,3.0,0.0,5.0,5.0,839.6626766771078,3.0,1.0,phase_2,go,850.0,600.0,1.0,,,,,,,,,gray,diamond
0.0,6.0,2.0,1.0,5.0,5.0,871.1409689858556,3.0,1.0,phase_2,stop,850.0,600.0,3.0,,,,,,,,,blue,triangle
0.0,8.0,4.0,1.0,6.0,6.0,402.3778093978762,3.0,1.0,phase_2,go,800.0,600.0,1.0,,,,,,,,,magenta,square
0.0,6.0,2.0,1.0,5.0,5.0,889.7564932703972,3.0,1.0,phase_2,stop,800.0,600.0,3.0,,,,,,,,,blue,triangle
0.0,1.0,1.0,0.0,6.0,6.0,338.0006616935134,3.0,1.0,phase_2,go,750.0,600.0,1.0,,,,,,,,,green,I
0.0,5.0,1.0,1.0,6.0,6.0,344.1763231530785,3.0,1.0,phase_2,stop,750.0,600.0,3.0,,,,,,,,,orange,hexagon
0.0,5.0,1.0,1.0,6.0,0.0,0.0,3.0,1.0,phase_2,stop,750.0,550.0,4.0,,,,,,,,,orange,hexagon
0.0,2.0,2.0,0.0,6.0,6.0,871.9708258286119,3.0,1.0,phase_2,go,750.0,600.0,1.0,,,,,,,,,yellow,circle
0.0,1.0,1.0,0.0,5.0,5.0,242.4915675073862,3.0,1.0,phase_2,go,750.0,600.0,1.0,,,,,,,,,green,I
0.0,4.0,4.0,0.0,6.0,6.0,366.8210068717599,3.0,1.0,phase_2,go,750.0,600.0,1.0,,,,,,,,,cyan,flipped triangle
0.0,8.0,4.0,1.0,5.0,5.0,678.4151215106249,3.0,1.0,phase_2,stop,750.0,600.0,3.0,,,,,,,,,magenta,square
0.0,2.0,2.0,0.0,5.0,5.0,879.9819508567452,3.0,1.0,phase_2,go,700.0,600.0,1.0,,,,,,,,,yellow,circle
0.0,3.0,3.0,0.0,6.0,6.0,887.6726552844048,3.0,1.0,phase_2,go,700.0,600.0,1.0,,,,,,,,,gray,diamond
0.0,8.0,4.0,1.0,5.0,0.0,0.0,3.0,1.0,phase_2,stop,700.0,600.0,4.0,,,,,,,,,magenta,square
0.0,6.0,2.0,1.0,5.0,5.0,1247.067683376372,3.0,1.0,phase_2,go,750.0,600.0,1.0,,,,,,,,,blue,triangle
0.0,8.0,4.0,1.0,6.0,6.0,596.3573232293129,3.0,1.0,phase_2,stop,750.0,600.0,3.0,,,,,,,,,magenta,square
0.0,6.0,2.0,1.0,5.0,0.0,0.0,3.0,1.0,phase_2,stop,750.0,550.0,4.0,,,,,,,,,blue,triangle
0.0,4.0,4.0,0.0,6.0,6.0,1009.7658233717084,3.0,1.0,phase_2,go,800.0,550.0,1.0,,,,,,,,,cyan,flipped triangle
0.0,2.0,2.0,0.0,5.0,5.0,357.5085401535034,3.0,1.0,phase_2,go,800.0,550.0,1.0,,,,,,,,,yellow,circle
0.0,1.0,1.0,0.0,5.0,5.0,316.9825207442045,3.0,1.0,phase_2,go,800.0,550.0,1.0,,,,,,,,,green,I
0.0,3.0,3.0,0.0,5.0,5.0,331.5900256857276,3.0,1.0,phase_2,go,800.0,550.0,1.0,,,,,,,,,gray,diamond
0.0,3.0,3.0,0.0,6.0,6.0,473.8092795014381,3.0,1.0,phase_2,go,800.0,550.0,1.0,,,,,,,,,gray,diamond
0.0,8.0,4.0,1.0,5.0,5.0,704.7239551320672,3.0,1.0,phase_2,stop,800.0,550.0,3.0,,,,,,,,,magenta,square
0.0,7.0,3.0,1.0,5.0,5.0,1055.5522944778204,3.0,1.0,phase_2,go,750.0,550.0,1.0,,,,,,,,,white,cross
0.0,5.0,1.0,1.0,6.0,0.0,0.0,4.0,1.0,phase_2,go,750.0,550.0,5.0,,,,,,,,,orange,hexagon
0.0,8.0,4.0,1.0,6.0,6.0,384.2108193784952,4.0,1.0,phase_2,stop,750.0,550.0,3.0,,,,,,,,,magenta,square
0.0,1.0,1.0,0.0,6.0,6.0,749.4547413662076,4.0,1.0,phase_2,go,750.0,500.0,1.0,,,,,,,,,green,I
0.0,7.0,3.0,1.0,6.0,6.0,620.0008969753981,4.0,1.0,phase_2,go,750.0,500.0,1.0,,,,,,,,,white,cross
0.0,3.0,3.0,0.0,5.0,5.0,858.9147049933672,4.0,1.0,phase_2,go,750.0,500.0,1.0,,,,,,,,,gray,diamond
0.0,5.0,1.0,1.0,6.0,6.0,405.2868010476231,4.0,1.0,phase_2,go,750.0,500.0,1.0,,,,,,,,,orange,hexagon
0.0,4.0,4.0,0.0,6.0,6.0,546.1609102785587,4.0,1.0,phase_2,go,750.0,500.0,1.0,,,,,,,,,cyan,flipped triangle
0.0,8.0,4.0,1.0,6.0,6.0,466.7862402275204,4.0,1.0,phase_2,stop,750.0,500.0,3.0,,,,,,,,,magenta,square
0.0,5.0,1.0,1.0,6.0,0.0,0.0,4.0,1.0,phase_2,stop,750.0,450.0,4.0,,,,,,,,,orange,hexagon
0.0,8.0,4.0,1.0,5.0,5.0,704.1656905785203,4.0,1.0,phase_2,go,750.0,500.0,1.0,,,,,,,,,magenta,square
0.0,4.0,4.0,0.0,5.0,5.0,833.8364958763123,4.0,1.0,phase_2,go,750.0,500.0,1.0,,,,,,,,,cyan,flipped triangle
0.0,1.0,1.0,0.0,6.0,6.0,939.103662967682,4.0,1.0,phase_2,go,750.0,500.0,1.0,,,,,,,,,green,I
0.0,7.0,3.0,1.0,6.0,6.0,530.288334004581,4.0,1.0,phase_2,go,750.0,500.0,1.0,,,,,,,,,white,cross
0.0,8.0,4.0,1.0,5.0,5.0,737.3946150764823,4.0,1.0,phase_2,go,750.0,500.0,1.0,,,,,,,,,magenta,square
0.0,5.0,1.0,1.0,6.0,6.0,813.3190209046006,4.0,1.0,phase_2,stop,750.0,500.0,3.0,,,,,,,,,orange,hexagon
0.0,5.0,1.0,1.0,6.0,0.0,0.0,4.0,1.0,phase_2,stop,750.0,450.0,4.0,,,,,,,,,orange,hexagon
0.0,8.0,4.0,1.0,6.0,6.0,967.206632718444,4.0,1.0,phase_2,go,750.0,500.0,1.0,,,,,,,,,magenta,square
0.0,2.0,2.0,0.0,5.0,5.0,782.3550794273615,4.0,1.0,phase_2,go,750.0,500.0,1.0,,,,,,,,,yellow,circle
0.0,3.0,3.0,0.0,6.0,6.0,1029.7682443633676,4.0,1.0,phase_2,go,750.0,500.0,1.0,,,,,,,,,gray,diamond
0.0,2.0,2.0,0.0,6.0,6.0,900.6398189812899,4.0,1.0,phase_2,go,750.0,500.0,1.0,,,,,,,,,yellow,circle
0.0,6.0,2.0,1.0,5.0,5.0,595.87905369699,4.0,1.0,phase_2,stop,750.0,500.0,3.0,,,,,,,,,blue,triangle
0.0,7.0,3.0,1.0,5.0,0.0,0.0,4.0,1.0,phase_2,stop,700.0,500.0,4.0,,,,,,,,,white,cross
0.0,7.0,3.0,1.0,6.0,0.0,0.0,4.0,1.0,phase_2,stop,750.0,500.0,4.0,,,,,,,,,white,cross
0.0,2.0,2.0,0.0,5.0,5.0,616.4454882964492,4.0,1.0,phase_2,go,750.0,550.0,1.0,,,,,,,,,yellow,circle
0.0,4.0,4.0,0.0,6.0,6.0,675.8057698607445,4.0,1.0,phase_2,go,750.0,550.0,1.0,,,,,,,,,cyan,flipped triangle
0.0,4.0,4.0,0.0,5.0,5.0,808.5747351869941,4.0,1.0,phase_2,go,750.0,550.0,1.0,,,,,,,,,cyan,flipped triangle
0.0,5.0,1.0,1.0,6.0,0.0,0.0,4.0,1.0,phase_2,stop,750.0,550.0,4.0,,,,,,,,,orange,hexagon
0.0,3.0,3.0,0.0,6.0,6.0,671.386243775487,4.0,1.0,phase_2,go,750.0,600.0,1.0,,,,,,,,,gray,diamond
0.0,5.0,1.0,1.0,5.0,0.0,0.0,4.0,1.0,phase_2,stop,750.0,600.0,4.0,,,,,,,,,orange,hexagon
0.0,4.0,4.0,0.0,5.0,5.0,621.4832430705428,4.0,1.0,phase_2,go,800.0,600.0,1.0,,,,,,,,,cyan,flipped triangle
0.0,7.0,3.0,1.0,5.0,5.0,796.9426475465298,4.0,1.0,phase_2,stop,800.0,600.0,3.0,,,,,,,,,white,cross
0.0,7.0,3.0,1.0,6.0,0.0,0.0,4.0,1.0,phase_2,stop,750.0,600.0,4.0,,,,,,,,,white,cross
0.0,2.0,2.0,0.0,6.0,6.0,837.1418127790093,4.0,1.0,phase_2,go,750.0,650.0,1.0,,,,,,,,,yellow,circle
0.0,6.0,2.0,1.0,5.0,5.0,452.5154363363981,4.0,1.0,phase_2,stop,750.0,650.0,3.0,,,,,,,,,blue,triangle
0.0,4.0,4.0,0.0,6.0,6.0,653.7425769492984,4.0,1.0,phase_2,go,700.0,650.0,1.0,,,,,,,,,cyan,flipped triangle
0.0,7.0,3.0,1.0,5.0,5.0,956.1449643224478,4.0,1.0,phase_2,go,700.0,650.0,1.0,,,,,,,,,white,cross
0.0,4.0,4.0,0.0,5.0,5.0,550.3679718822241,5.0,1.0,phase_2,go,700.0,650.0,1.0,,,,,,,,,cyan,flipped triangle
0.0,4.0,4.0,0.0,5.0,5.0,311.6275891661644,5.0,1.0,phase_2,go,700.0,650.0,1.0,,,,,,,,,cyan,flipped triangle
0.0,3.0,3.0,0.0,6.0,6.0,262.9488725215196,5.0,1.0,phase_2,go,700.0,650.0,1.0,,,,,,,,,gray,diamond
0.0,1.0,1.0,0.0,5.0,5.0,261.923698708415,5.0,1.0,phase_2,go,700.0,650.0,1.0,,,,,,,,,green,I
0.0,7.0,3.0,1.0,6.0,6.0,261.7080425843596,5.0,1.0,phase_2,stop,700.0,650.0,3.0,,,,,,,,,white,cross
0.0,2.0,2.0,0.0,6.0,6.0,346.8532068654895,5.0,1.0,phase_2,go,700.0,600.0,1.0,,,,,,,,,yellow,circle
0.0,8.0,4.0,1.0,6.0,6.0,244.5403076708316,5.0,1.0,phase_2,stop,700.0,600.0,3.0,,,,,,,,,magenta,square
0.0,6.0,2.0,1.0,6.0,6.0,254.0982281789183,5.0,1.0,phase_2,go,700.0,550.0,1.0,,,,,,,,,blue,triangle
0.0,5.0,1.0,1.0,6.0,6.0,265.4465958476066,5.0,1.0,phase_2,stop,700.0,550.0,3.0,,,,,,,,,orange,hexagon
0.0,4.0,4.0,0.0,5.0,5.0,249.436448328197,5.0,1.0,phase_2,go,700.0,500.0,1.0,,,,,,,,,cyan,flipped triangle
0.0,2.0,2.0,0.0,5.0,5.0,257.1631111204624,5.0,1.0,phase_2,go,700.0,500.0,1.0,,,,,,,,,yellow,circle
0.0,8.0,4.0,1.0,5.0,5.0,275.8326604962349,5.0,1.0,phase_2,stop,700.0,500.0,3.0,,,,,,,,,magenta,square
0.0,1.0,1.0,0.0,6.0,6.0,272.6859878748655,5.0,1.0,phase_2,go,650.0,500.0,1.0,,,,,,,,,green,I
0.0,4.0,4.0,0.0,5.0,5.0,232.8731250017881,5.0,1.0,phase_2,go,650.0,500.0,1.0,,,,,,,,,cyan,flipped triangle
0.0,8.0,4.0,1.0,6.0,6.0,237.9048941656947,5.0,1.0,phase_2,stop,650.0,500.0,3.0,,,,,,,,,magenta,square
0.0,4.0,4.0,0.0,5.0,5.0,229.4070431962609,5.0,1.0,phase_2,go,650.0,450.0,1.0,,,,,,,,,cyan,flipped triangle
0.0,7.0,3.0,1.0,5.0,5.0,246.385277248919,5.0,1.0,phase_2,stop,650.0,450.0,3.0,,,,,,,,,white,cross
0.0,4.0,4.0,0.0,6.0,6.0,230.4376643151044,5.0,1.0,phase_2,go,600.0,450.0,1.0,,,,,,,,,cyan,flipped triangle
0.0,6.0,2.0,1.0,6.0,6.0,272.9433113709092,5.0,1.0,phase_2,stop,600.0,450.0,3.0,,,,,,,,,blue,triangle
0.0,8.0,4.0,1.0,6.0,6.0,300.3663886338472,5.0,1.0,phase_2,stop,600.0,400.0,3.0,,,,,,,,,magenta,square
0.0,3.0,3.0,0.0,5.0,5.0,546.6842753812671,5.0,1.0,phase_2,go,600.0,350.0,1.0,,,,,,,,,gray,diamond
0.0,4.0,4.0,0.0,5.0,5.0,301.4875343069434,5.0,1.0,phase_2,go,600.0,350.0,1.0,,,,,,,,,cyan,flipped triangle
0.0,7.0,3.0,1.0,6.0,6.0,267.4429453909397,5.0,1.0,phase_2,stop,600.0,350.0,3.0,,,,,,,,,white,cross
0.0,7.0,3.0,1.0,5.0,5.0,450.4722645506263,5.0,1.0,phase_2,stop,600.0,300.0,3.0,,,,,,,,,white,cross
0.0,8.0,4.0,1.0,5.0,5.0,291.4371937513351,5.0,1.0,phase_2,stop,550.0,300.0,3.0,,,,,,,,,magenta,square
0.0,8.0,4.0,1.0,5.0,5.0,288.1030226126313,5.0,1.0,phase_2,go,500.0,300.0,1.0,,,,,,,,,magenta,square
0.0,6.0,2.0,1.0,6.0,6.0,287.3085429891944,5.0,1.0,phase_2,go,500.0,300.0,1.0,,,,,,,,,blue,triangle
0.0,8.0,4.0,1.0,6.0,6.0,278.6081442609429,5.0,1.0,phase_2,stop,500.0,300.0,3.0,,,,,,,,,magenta,square
0.0,6.0,2.0,1.0,5.0,5.0,295.1489649713039,5.0,1.0,phase_2,stop,500.0,250.0,3.0,,,,,,,,,blue,triangle
0.0,5.0,1.0,1.0,5.0,5.0,241.0071939229965,5.0,1.0,phase_2,stop,450.0,250.0,3.0,,,,,,,,,orange,hexagon
0.0,2.0,2.0,0.0,5.0,5.0,421.2891655042767,5.0,1.0,phase_2,go,400.0,250.0,1.0,,,,,,,,,yellow,circle
0.0,7.0,3.0,1.0,5.0,5.0,292.7623325958848,5.0,1.0,phase_2,go,400.0,250.0,1.0,,,,,,,,,white,cross
0.0,7.0,3.0,1.0,5.0,5.0,304.2256878688931,5.0,1.0,phase_2,stop,400.0,250.0,3.0,,,,,,,,,white,cross
0.0,6.0,2.0,1.0,6.0,6.0,276.6326544806361,5.0,1.0,phase_2,stop,350.0,250.0,3.0,,,,,,,,,blue,triangle
0.0,8.0,4.0,1.0,5.0,5.0,244.5752890780568,5.0,1.0,phase_2,stop,350.0,200.0,3.0,,,,,,,,,magenta,square
0.0,2.0,2.0,0.0,5.0,5.0,283.070552162826,5.0,1.0,phase_2,go,300.0,200.0,1.0,,,,,,,,,yellow,circle
0.0,5.0,1.0,1.0,5.0,5.0,413.718119263649,6.0,1.0,phase_2,stop,300.0,200.0,3.0,,,,,,,,,orange,hexagon
0.0,1.0,1.0,0.0,5.0,5.0,702.3404836654663,6.0,1.0,phase_2,go,250.0,200.0,1.0,,,,,,,,,green,I
0.0,1.0,1.0,0.0,6.0,6.0,606.9923825562,6.0,1.0,phase_2,go,250.0,200.0,1.0,,,,,,,,,green,I
0.0,5.0,1.0,1.0,5.0,5.0,639.0250353142619,6.0,1.0,phase_2,go,250.0,200.0,1.0,,,,,,,,,orange,hexagon
0.0,1.0,1.0,0.0,6.0,6.0,611.6357780992985,6.0,1.0,phase_2,go,250.0,200.0,1.0,,,,,,,,,green,I
0.0,1.0,1.0,0.0,6.0,6.0,549.5009087026119,6.0,1.0,phase_2,go,250.0,200.0,1.0,,,,,,,,,green,I
0.0,6.0,2.0,1.0,5.0,0.0,0.0,6.0,1.0,phase_2,stop,250.0,200.0,4.0,,,,,,,,,blue,triangle
0.0,5.0,1.0,1.0,5.0,0.0,0.0,6.0,1.0,phase_2,stop,300.0,200.0,4.0,,,,,,,,,orange,hexagon
0.0,3.0,3.0,0.0,6.0,6.0,772.7742791175842,6.0,1.0,phase_2,go,350.0,200.0,1.0,,,,,,,,,gray,diamond
0.0,1.0,1.0,0.0,6.0,6.0,688.1174091249704,6.0,1.0,phase_2,go,350.0,200.0,1.0,,,,,,,,,green,I
0.0,3.0,3.0,0.0,5.0,5.0,601.2210696935654,6.0,1.0,phase_2,go,350.0,200.0,1.0,,,,,,,,,gray,diamond
0.0,3.0,3.0,0.0,5.0,5.0,759.1119054704905,6.0,1.0,phase_2,go,350.0,200.0,1.0,,,,,,,,,gray,diamond
0.0,5.0,1.0,1.0,6.0,6.0,407.6629364863038,6.0,1.0,phase_2,go,350.0,200.0,1.0,,,,,,,,,orange,hexagon
0.0,8.0,4.0,1.0,6.0,0.0,0.0,6.0,1.0,phase_2,stop,350.0,200.0,4.0,,,,,,,,,magenta,square
0.0,2.0,2.0,0.0,6.0,6.0,695.6229945644736,6.0,1.0,phase_2,go,350.0,250.0,1.0,,,,,,,,,yellow,circle
0.0,3.0,3.0,0.0,6.0,6.0,416.3723234087229,6.0,1.0,phase_2,go,350.0,250.0,1.0,,,,,,,,,gray,diamond
0.0,7.0,3.0,1.0,5.0,5.0,590.2282940223813,6.0,1.0,phase_2,go,350.0,250.0,1.0,,,,,,,,,white,cross
0.0,8.0,4.0,1.0,5.0,0.0,0.0,6.0,1.0,phase_2,stop,350.0,250.0,4.0,,,,,,,,,magenta,square
0.0,7.0,3.0,1.0,5.0,0.0,0.0,6.0,1.0,phase_2,stop,400.0,250.0,4.0,,,,,,,,,white,cross
0.0,2.0,2.0,0.0,5.0,5.0,683.9971961453557,6.0,1.0,phase_2,go,450.0,250.0,1.0,,,,,,,,,yellow,circle
0.0,1.0,1.0,0.0,6.0,6.0,786.5692330524325,6.0,1.0,phase_2,go,450.0,250.0,1.0,,,,,,,,,green,I
0.0,5.0,1.0,1.0,6.0,0.0,0.0,6.0,1.0,phase_2,stop,450.0,250.0,4.0,,,,,,,,,orange,hexagon
0.0,3.0,3.0,0.0,6.0,6.0,808.8757982477546,6.0,1.0,phase_2,go,450.0,300.0,1.0,,,,,,,,,gray,diamond
0.0,1.0,1.0,0.0,5.0,5.0,500.65834540873766,6.0,1.0,phase_2,go,450.0,300.0,1.0,,,,,,,,,green,I
0.0,2.0,2.0,0.0,5.0,5.0,442.677847109735,6.0,1.0,phase_2,go,450.0,300.0,1.0,,,,,,,,,yellow,circle
0.0,1.0,1.0,0.0,5.0,5.0,311.5905495360493,6.0,1.0,phase_2,go,450.0,300.0,1.0,,,,,,,,,green,I
0.0,6.0,2.0,1.0,6.0,0.0,0.0,6.0,1.0,phase_2,stop,450.0,300.0,4.0,,,,,,,,,blue,triangle
0.0,1.0,1.0,0.0,5.0,5.0,558.23512095958,6.0,1.0,phase_2,go,450.0,350.0,1.0,,,,,,,,,green,I
0.0,1.0,1.0,0.0,6.0,6.0,341.7968908324837,6.0,1.0,phase_2,go,450.0,350.0,1.0,,,,,,,,,green,I
0.0,2.0,2.0,0.0,6.0,6.0,549.1912132129073,6.0,1.0,phase_2,go,450.0,350.0,1.0,,,,,,,,,yellow,circle
0.0,1.0,1.0,0.0,5.0,5.0,655.1787098869681,6.0,1.0,phase_2,go,450.0,350.0,1.0,,,,,,,,,green,I
0.0,7.0,3.0,1.0,5.0,5.0,470.7417339086532,6.0,1.0,phase_2,stop,450.0,350.0,3.0,,,,,,,,,white,cross
0.0,2.0,2.0,0.0,5.0,5.0,741.8070780113339,6.0,1.0,phase_2,go,400.0,350.0,1.0,,,,,,,,,yellow,circle
0.0,3.0,3.0,0.0,5.0,5.0,525.623026303947,6.0,1.0,phase_2,go,400.0,350.0,1.0,,,,,,,,,gray,diamond
0.0,3.0,3.0,0.0,6.0,6.0,596.4578120037913,6.0,1.0,phase_2,go,400.0,350.0,1.0,,,,,,,,,gray,diamond
0.0,5.0,1.0,1.0,5.0,0.0,0.0,6.0,1.0,phase_2,stop,400.0,350.0,4.0,,,,,,,,,orange,hexagon
0.0,4.0,4.0,0.0,5.0,5.0,443.1542037054896,7.0,1.0,phase_2,go,450.0,350.0,1.0,,,,,,,,,cyan,flipped triangle
0.0,4.0,4.0,0.0,6.0,6.0,650.9459633380175,7.0,1.0,phase_2,go,450.0,350.0,1.0,,,,,,,,,cyan,flipped triangle
0.0,5.0,1.0,1.0,5.0,5.0,594.6654304862022,7.0,1.0,phase_2,stop,450.0,350.0,3.0,,,,,,,,,orange,hexagon
0.0,7.0,3.0,1.0,6.0,6.0,890.2252782136202,7.0,1.0,phase_2,go,400.0,350.0,1.0,,,,,,,,,white,cross
0.0,6.0,2.0,1.0,6.0,0.0,0.0,7.0,1.0,phase_2,stop,400.0,350.0,4.0,,,,,,,,,blue,triangle
0.0,2.0,2.0,0.0,6.0,6.0,904.1764391586185,7.0,1.0,phase_2,go,400.0,400.0,1.0,,,,,,,,,yellow,circle
0.0,4.0,4.0,0.0,6.0,6.0,399.7383434325456,7.0,1.0,phase_2,go,400.0,400.0,1.0,,,,,,,,,cyan,flipped triangle
0.0,2.0,2.0,0.0,5.0,5.0,480.3559370338917,7.0,1.0,phase_2,go,400.0,400.0,1.0,,,,,,,,,yellow,circle
0.0,7.0,3.0,1.0,6.0,0.0,0.0,7.0,1.0,phase_2,stop,400.0,400.0,4.0,,,,,,,,,white,cross
0.0,6.0,2.0,1.0,6.0,0.0,0.0,7.0,1.0,phase_2,stop,400.0,450.0,4.0,,,,,,,,,blue,triangle
0.0,3.0,3.0,0.0,6.0,6.0,570.8035761490464,7.0,1.0,phase_2,go,400.0,500.0,1.0,,,,,,,,,gray,diamond
0.0,5.0,1.0,1.0,5.0,0.0,0.0,7.0,1.0,phase_2,stop,400.0,500.0,4.0,,,,,,,,,orange,hexagon
0.0,1.0,1.0,0.0,6.0,6.0,334.0354757383466,7.0,1.0,phase_2,go,450.0,500.0,1.0,,,,,,,,,green,I
0.0,2.0,2.0,0.0,6.0,6.0,689.6692560985684,7.0,1.0,phase_2,go,450.0,500.0,1.0,,,,,,,,,yellow,circle
0.0,4.0,4.0,0.0,6.0,6.0,675.655897706747,7.0,1.0,phase_2,go,450.0,500.0,1.0,,,,,,,,,cyan,flipped triangle
0.0,2.0,2.0,0.0,6.0,6.0,353.9545284584164,7.0,1.0,phase_2,go,450.0,500.0,1.0,,,,,,,,,yellow,circle
0.0,5.0,1.0,1.0,6.0,0.0,0.0,7.0,1.0,phase_2,stop,450.0,500.0,4.0,,,,,,,,,orange,hexagon
0.0,4.0,4.0,0.0,5.0,5.0,313.8069314882159,7.0,1.0,phase_2,go,450.0,550.0,1.0,,,,,,,,,cyan,flipped triangle
0.0,3.0,3.0,0.0,5.0,5.0,567.611375823617,7.0,1.0,phase_2,go,450.0,550.0,1.0,,,,,,,,,gray,diamond
0.0,1.0,1.0,0.0,6.0,6.0,677.8036151081324,7.0,1.0,phase_2,go,450.0,550.0,1.0,,,,,,,,,green,I
0.0,7.0,3.0,1.0,5.0,0.0,0.0,7.0,1.0,phase_2,stop,450.0,550.0,4.0,,,,,,,,,white,cross
0.0,7.0,3.0,1.0,6.0,0.0,0.0,7.0,1.0,phase_2,stop,500.0,550.0,4.0,,,,,,,,,white,cross
0.0,1.0,1.0,0.0,5.0,5.0,454.5876095071435,7.0,1.0,phase_2,go,500.0,600.0,1.0,,,,,,,,,green,I
0.0,7.0,3.0,1.0,5.0,5.0,942.6404666155576,7.0,1.0,phase_2,go,500.0,600.0,1.0,,,,,,,,,white,cross
0.0,3.0,3.0,0.0,6.0,6.0,549.540993757546,7.0,1.0,phase_2,go,500.0,600.0,1.0,,,,,,,,,gray,diamond
0.0,5.0,1.0,1.0,6.0,6.0,382.7891405671835,7.0,1.0,phase_2,stop,500.0,600.0,3.0,,,,,,,,,orange,hexagon
0.0,6.0,2.0,1.0,6.0,6.0,539.206731133163,7.0,1.0,phase_2,stop,500.0,550.0,3.0,,,,,,,,,blue,triangle
0.0,5.0,1.0,1.0,6.0,0.0,0.0,7.0,1.0,phase_2,stop,500.0,500.0,4.0,,,,,,,,,orange,hexagon
0.0,1.0,1.0,0.0,5.0,5.0,592.7844382822514,7.0,1.0,phase_2,go,500.0,550.0,1.0,,,,,,,,,green,I
0.0,2.0,2.0,0.0,6.0,6.0,761.3176526501775,7.0,1.0,phase_2,go,500.0,550.0,1.0,,,,,,,,,yellow,circle
0.0,4.0,4.0,0.0,6.0,6.0,1155.8113871142268,7.0,1.0,phase_2,go,500.0,550.0,1.0,,,,,,,,,cyan,flipped triangle
0.0,7.0,3.0,1.0,6.0,6.0,767.3501120880246,7.0,1.0,phase_2,go,500.0,550.0,1.0,,,,,,,,,white,cross
0.0,6.0,2.0,1.0,5.0,5.0,408.3362575620413,7.0,1.0,phase_2,go,500.0,550.0,1.0,,,,,,,,,blue,triangle
0.0,6.0,2.0,1.0,5.0,0.0,0.0,7.0,1.0,phase_2,stop,500.0,550.0,4.0,,,,,,,,,blue,triangle
0.0,4.0,4.0,0.0,6.0,6.0,576.1331981047988,7.0,1.0,phase_2,go,550.0,550.0,1.0,,,,,,,,,cyan,flipped triangle
0.0,4.0,4.0,0.0,6.0,6.0,759.2367883771658,7.0,1.0,phase_2,go,550.0,550.0,1.0,,,,,,,,,cyan,flipped triangle
0.0,3.0,3.0,0.0,6.0,6.0,471.1864767596125,8.0,1.0,phase_2,go,550.0,550.0,1.0,,,,,,,,,gray,diamond
0.0,8.0,4.0,1.0,5.0,5.0,271.9530612230301,8.0,1.0,phase_2,stop,550.0,550.0,3.0,,,,,,,,,magenta,square
0.0,2.0,2.0,0.0,6.0,6.0,593.135628849268,8.0,1.0,phase_2,go,500.0,550.0,1.0,,,,,,,,,yellow,circle
0.0,6.0,2.0,1.0,5.0,5.0,617.5535218790174,8.0,1.0,phase_2,stop,500.0,550.0,3.0,,,,,,,,,blue,triangle
0.0,4.0,4.0,0.0,6.0,6.0,900.7194759324193,8.0,1.0,phase_2,go,450.0,550.0,1.0,,,,,,,,,cyan,flipped triangle
0.0,6.0,2.0,1.0,5.0,0.0,0.0,8.0,1.0,phase_2,stop,450.0,550.0,4.0,,,,,,,,,blue,triangle
0.0,4.0,4.0,0.0,5.0,5.0,583.739341236651,8.0,1.0,phase_2,go,500.0,550.0,1.0,,,,,,,,,cyan,flipped triangle
0.0,2.0,2.0,0.0,5.0,5.0,275.9436890482902,8.0,1.0,phase_2,go,500.0,550.0,1.0,,,,,,,,,yellow,circle
0.0,7.0,3.0,1.0,5.0,0.0,0.0,8.0,1.0,phase_2,stop,500.0,550.0,4.0,,,,,,,,,white,cross
0.0,3.0,3.0,0.0,5.0,5.0,730.7130685076118,8.0,1.0,phase_2,go,550.0,550.0,1.0,,,,,,,,,gray,diamond
0.0,6.0,2.0,1.0,6.0,0.0,0.0,8.0,1.0,phase_2,stop,550.0,550.0,4.0,,,,,,,,,blue,triangle
0.0,5.0,1.0,1.0,5.0,5.0,661.1967580392957,8.0,1.0,phase_2,stop,550.0,600.0,3.0,,,,,,,,,orange,hexagon
0.0,5.0,1.0,1.0,5.0,0.0,0.0,8.0,1.0,phase_2,stop,500.0,600.0,4.0,,,,,,,,,orange,hexagon
0.0,2.0,2.0,0.0,6.0,6.0,922.4680466577412,8.0,1.0,phase_2,go,550.0,600.0,1.0,,,,,,,,,yellow,circle
0.0,8.0,4.0,1.0,6.0,0.0,0.0,8.0,1.0,phase_2,stop,550.0,600.0,4.0,,,,,,,,,magenta,square
0.0,3.0,3.0,0.0,5.0,5.0,694.5927543565631,8.0,1.0,phase_2,go,550.0,650.0,1.0,,,,,,,,,gray,diamond
0.0,1.0,1.0,0.0,6.0,6.0,370.4797346144914,8.0,1.0,phase_2,go,550.0,650.0,1.0,,,,,,,,,green,I
0.0,3.0,3.0,0.0,5.0,5.0,829.8904364928603,8.0,1.0,phase_2,go,550.0,650.0,1.0,,,,,,,,,gray,diamond
0.0,2.0,2.0,0.0,5.0,5.0,1008.7139932438731,8.0,1.0,phase_2,go,550.0,650.0,1.0,,,,,,,,,yellow,circle
0.0,6.0,2.0,1.0,5.0,5.0,880.8908136561513,8.0,1.0,phase_2,go,550.0,650.0,1.0,,,,,,,,,blue,triangle
0.0,8.0,4.0,1.0,5.0,5.0,700.920395553112,8.0,1.0,phase_2,stop,550.0,650.0,3.0,,,,,,,,,magenta,square
0.0,4.0,4.0,0.0,6.0,6.0,804.4229252263904,8.0,1.0,phase_2,go,500.0,650.0,1.0,,,,,,,,,cyan,flipped triangle
0.0,7.0,3.0,1.0,5.0,0.0,0.0,8.0,1.0,phase_2,stop,500.0,650.0,4.0,,,,,,,,,white,cross
0.0,7.0,3.0,1.0,6.0,6.0,738.3165927603841,8.0,1.0,phase_2,stop,550.0,650.0,3.0,,,,,,,,,white,cross
0.0,3.0,3.0,0.0,6.0,6.0,1124.8525734990835,8.0,1.0,phase_2,go,550.0,600.0,1.0,,,,,,,,,gray,diamond
0.0,6.0,2.0,1.0,5.0,5.0,866.2651190534234,8.0,1.0,phase_2,go,550.0,600.0,1.0,,,,,,,,,blue,triangle
0.0,5.0,1.0,1.0,6.0,0.0,0.0,8.0,1.0,phase_2,stop,550.0,600.0,4.0,,,,,,,,,orange,hexagon
0.0,5.0,1.0,1.0,5.0,5.0,915.2812007814646,8.0,1.0,phase_2,go,550.0,650.0,1.0,,,,,,,,,orange,hexagon
0.0,5.0,1.0,1.0,5.0,0.0,0.0,8.0,1.0,phase_2,stop,550.0,650.0,4.0,,,,,,,,,orange,hexagon
0.0,4.0,4.0,0.0,6.0,6.0,835.1870626211166,8.0,1.0,phase_2,go,600.0,650.0,1.0,,,,,,,,,cyan,flipped triangle
0.0,8.0,4.0,1.0,5.0,0.0,0.0,8.0,1.0,phase_2,stop,600.0,650.0,4.0,,,,,,,,,magenta,square
0.0,2.0,2.0,0.0,5.0,5.0,670.236743055284,8.0,1.0,phase_2,go,650.0,650.0,1.0,,,,,,,,,yellow,circle
0.0,6.0,2.0,1.0,6.0,6.0,893.9999211579561,8.0,1.0,phase_2,go,650.0,650.0,1.0,,,,,,,,,blue,triangle
0.0,3.0,3.0,0.0,5.0,5.0,693.7781423330307,8.0,1.0,phase_2,go,650.0,650.0,1.0,,,,,,,,,gray,diamond
0.0,7.0,3.0,1.0,6.0,6.0,358.6217081174254,8.0,1.0,phase_2,stop,650.0,650.0,3.0,,,,,,,,,white,cross
0.0,5.0,1.0,1.0,6.0,0.0,0.0,8.0,1.0,phase_2,stop,650.0,600.0,4.0,,,,,,,,,orange,hexagon
0.0,3.0,3.0,0.0,7.0,5.0,700.1986429095268,1.0,3.0,phase_3,,,,,102.0,3.0,136.0,68.0,204.0,170.0,102.0,34.0,gray,diamond
0.0,6.0,2.0,1.0,7.0,2.0,703.356085345149,1.0,2.0,phase_3,,,,,78.0,2.0,195.0,78.0,117.0,234.0,39.0,156.0,blue,triangle
0.0,5.0,1.0,1.0,7.0,1.0,3109.319523908198,1.0,1.0,phase_3,,,,,68.0,2.0,68.0,204.0,102.0,136.0,170.0,34.0,orange,hexagon
0.0,7.0,3.0,1.0,7.0,4.0,4910.770706832409,1.0,1.0,phase_3,,,,,132.0,3.0,88.0,44.0,176.0,132.0,220.0,264.0,white,cross
0.0,1.0,1.0,0.0,7.0,2.0,2449.691344052553,1.0,1.0,phase_3,,,,,44.0,1.0,88.0,44.0,220.0,264.0,176.0,132.0,green,I
0.0,1.0,1.0,0.0,7.0,1.0,1706.2051119282842,1.0,1.0,phase_3,,,,,34.0,1.0,34.0,170.0,68.0,102.0,136.0,204.0,green,I
0.0,3.0,3.0,0.0,7.0,1.0,3493.459729477763,1.0,1.0,phase_3,,,,,102.0,3.0,102.0,68.0,204.0,136.0,34.0,170.0,gray,diamond
0.0,8.0,4.0,1.0,7.0,6.0,2862.3159555718303,1.0,1.0,phase_3,,,,,264.0,6.0,176.0,132.0,44.0,220.0,88.0,264.0,magenta,square
0.0,4.0,4.0,0.0,7.0,6.0,2673.516532406211,1.0,1.0,phase_3,,,,,204.0,6.0,170.0,68.0,136.0,102.0,34.0,204.0,cyan,flipped triangle
0.0,5.0,1.0,1.0,7.0,6.0,1251.2659672647717,1.0,2.0,phase_3,,,,,117.0,3.0,234.0,39.0,195.0,78.0,156.0,117.0,orange,hexagon
0.0,2.0,2.0,0.0,7.0,4.0,2444.069971330464,1.0,1.0,phase_3,,,,,78.0,2.0,39.0,234.0,117.0,78.0,195.0,156.0,yellow,circle
0.0,4.0,4.0,0.0,7.0,6.0,3152.343331836164,1.0,2.0,phase_3,,,,,270.0,5.0,54.0,324.0,108.0,162.0,216.0,270.0,cyan,flipped triangle
0.0,2.0,2.0,0.0,7.0,2.0,3005.7914946228266,1.0,1.0,phase_3,,,,,54.0,1.0,324.0,54.0,108.0,216.0,270.0,162.0,yellow,circle
0.0,1.0,1.0,0.0,7.0,3.0,2201.57983712852,1.0,1.0,phase_3,,,,,44.0,1.0,220.0,264.0,44.0,176.0,88.0,132.0,green,I
0.0,3.0,3.0,0.0,7.0,4.0,1616.0218445584178,1.0,1.0,phase_3,,,,,117.0,3.0,234.0,156.0,78.0,117.0,195.0,39.0,gray,diamond
0.0,2.0,2.0,0.0,7.0,5.0,2121.433538384736,1.0,1.0,phase_3,,,,,49.0,1.0,196.0,98.0,294.0,245.0,49.0,147.0,yellow,circle
0.0,7.0,3.0,1.0,7.0,5.0,3061.0751258209348,1.0,1.0,phase_3,,,,,162.0,3.0,216.0,108.0,324.0,54.0,162.0,270.0,white,cross
0.0,3.0,3.0,0.0,7.0,6.0,2085.459442809224,1.0,2.0,phase_3,,,,,156.0,4.0,39.0,117.0,234.0,78.0,195.0,156.0,gray,diamond
0.0,7.0,3.0,1.0,7.0,4.0,2218.921738676727,1.0,1.0,phase_3,,,,,88.0,2.0,132.0,44.0,264.0,88.0,220.0,176.0,white,cross
0.0,4.0,4.0,0.0,7.0,4.0,2688.755161128938,1.0,1.0,phase_3,,,,,245.0,5.0,196.0,98.0,294.0,245.0,147.0,49.0,cyan,flipped triangle
0.0,6.0,2.0,1.0,7.0,3.0,1224.5033998042345,2.0,3.0,phase_3,,,,,108.0,2.0,216.0,162.0,108.0,54.0,324.0,270.0,blue,triangle
0.0,2.0,2.0,0.0,7.0,5.0,2098.02832454443,2.0,1.0,phase_3,,,,,78.0,2.0,234.0,39.0,156.0,117.0,78.0,195.0,yellow,circle
0.0,8.0,4.0,1.0,7.0,6.0,1682.9824279993773,2.0,1.0,phase_3,,,,,204.0,6.0,34.0,102.0,68.0,170.0,136.0,204.0,magenta,square
0.0,5.0,1.0,1.0,7.0,2.0,1828.514575958252,2.0,1.0,phase_3,,,,,88.0,2.0,264.0,88.0,44.0,132.0,220.0,176.0,orange,hexagon
0.0,5.0,1.0,1.0,7.0,2.0,2888.541317544877,2.0,1.0,phase_3,,,,,108.0,2.0,324.0,108.0,162.0,270.0,54.0,216.0,orange,hexagon
0.0,6.0,2.0,1.0,7.0,5.0,3161.698315292597,2.0,1.0,phase_3,,,,,44.0,1.0,264.0,220.0,88.0,176.0,44.0,132.0,blue,triangle
0.0,4.0,4.0,0.0,7.0,3.0,2529.0102465078235,2.0,1.0,phase_3,,,,,264.0,6.0,176.0,44.0,264.0,220.0,88.0,132.0,cyan,flipped triangle
0.0,2.0,2.0,0.0,7.0,4.0,3347.642110660672,2.0,1.0,phase_3,,,,,54.0,1.0,108.0,270.0,324.0,54.0,162.0,216.0,yellow,circle
0.0,6.0,2.0,1.0,7.0,3.0,339.4543314352631,2.0,2.0,phase_3,,,,,49.0,1.0,147.0,196.0,49.0,294.0,245.0,98.0,blue,triangle
0.0,8.0,4.0,1.0,7.0,3.0,2156.7610390484333,2.0,1.0,phase_3,,,,,264.0,6.0,176.0,88.0,264.0,132.0,220.0,44.0,magenta,square
0.0,8.0,4.0,1.0,7.0,2.0,2545.751661993563,2.0,1.0,phase_3,,,,,270.0,5.0,216.0,270.0,54.0,162.0,108.0,324.0,magenta,square
0.0,4.0,4.0,0.0,7.0,4.0,2025.1204101368785,2.0,2.0,phase_3,,,,,234.0,6.0,78.0,195.0,156.0,234.0,117.0,39.0,cyan,flipped triangle
0.0,4.0,4.0,0.0,7.0,1.0,2269.634154625237,2.0,1.0,phase_3,,,,,220.0,5.0,220.0,132.0,176.0,44.0,88.0,264.0,cyan,flipped triangle
0.0,4.0,4.0,0.0,7.0,5.0,2429.470564238727,2.0,1.0,phase_3,,,,,216.0,4.0,54.0,162.0,324.0,270.0,216.0,108.0,cyan,flipped triangle
0.0,3.0,3.0,0.0,7.0,1.0,2517.006767913699,2.0,1.0,phase_3,,,,,108.0,2.0,108.0,162.0,324.0,54.0,216.0,270.0,gray,diamond
0.0,5.0,1.0,1.0,7.0,6.0,4677.7106346562505,2.0,1.0,phase_3,,,,,102.0,3.0,34.0,68.0,170.0,136.0,204.0,102.0,orange,hexagon
0.0,7.0,3.0,1.0,7.0,6.0,1861.0177459195256,2.0,1.0,phase_3,,,,,98.0,2.0,294.0,245.0,196.0,147.0,49.0,98.0,white,cross
0.0,3.0,3.0,0.0,7.0,1.0,4338.513353839517,2.0,1.0,phase_3,,,,,88.0,2.0,88.0,220.0,264.0,132.0,176.0,44.0,gray,diamond
0.0,3.0,3.0,0.0,7.0,4.0,1707.1180874481795,2.0,1.0,phase_3,,,,,88.0,2.0,176.0,132.0,220.0,88.0,264.0,44.0,gray,diamond
0.0,1.0,1.0,0.0,7.0,1.0,1559.2754809185865,2.0,1.0,phase_3,,,,,34.0,1.0,34.0,68.0,170.0,204.0,102.0,136.0,green,I
0.0,7.0,3.0,1.0,7.0,2.0,1018.2359497994184,3.0,2.0,phase_3,,,,,108.0,2.0,216.0,108.0,162.0,270.0,54.0,324.0,white,cross
0.0,1.0,1.0,0.0,7.0,5.0,962.8555290400982,3.0,1.0,phase_3,,,,,39.0,1.0,195.0,156.0,78.0,117.0,39.0,234.0,green,I
0.0,8.0,4.0,1.0,7.0,5.0,1956.9775648415089,3.0,1.0,phase_3,,,,,294.0,6.0,245.0,98.0,196.0,49.0,294.0,147.0,magenta,square
0.0,7.0,3.0,1.0,7.0,2.0,3550.4032634198666,3.0,1.0,phase_3,,,,,78.0,2.0,117.0,78.0,39.0,195.0,234.0,156.0,white,cross
0.0,8.0,4.0,1.0,7.0,5.0,2897.5141551345587,3.0,1.0,phase_3,,,,,234.0,6.0,39.0,156.0,195.0,117.0,234.0,78.0,magenta,square
0.0,4.0,4.0,0.0,7.0,3.0,2922.8234365582466,3.0,1.0,phase_3,,,,,196.0,4.0,245.0,49.0,196.0,98.0,147.0,294.0,cyan,flipped triangle
0.0,7.0,3.0,1.0,7.0,2.0,1802.118219435215,3.0,1.0,phase_3,,,,,102.0,3.0,34.0,102.0,68.0,170.0,136.0,204.0,white,cross
0.0,1.0,1.0,0.0,7.0,3.0,2203.5801988095045,3.0,1.0,phase_3,,,,,49.0,1.0,294.0,196.0,49.0,245.0,98.0,147.0,green,I
0.0,2.0,2.0,0.0,7.0,2.0,2487.9638543352485,3.0,1.0,phase_3,,,,,68.0,2.0,102.0,68.0,136.0,170.0,204.0,34.0,yellow,circle
0.0,8.0,4.0,1.0,7.0,3.0,2032.3740299791098,3.0,1.0,phase_3,,,,,204.0,6.0,68.0,34.0,204.0,102.0,136.0,170.0,magenta,square
0.0,2.0,2.0,0.0,7.0,2.0,1224.9372256919742,3.0,1.0,phase_3,,,,,88.0,2.0,44.0,88.0,264.0,220.0,132.0,176.0,yellow,circle
0.0,2.0,2.0,0.0,7.0,4.0,4202.894511632621,3.0,1.0,phase_3,,,,,98.0,2.0,294.0,49.0,147.0,98.0,196.0,245.0,yellow,circle
0.0,6.0,2.0,1.0,7.0,5.0,3594.627184793353,3.0,1.0,phase_3,,,,,88.0,2.0,44.0,264.0,176.0,220.0,88.0,132.0,blue,triangle
0.0,8.0,4.0,1.0,7.0,3.0,1738.835773430765,3.0,1.0,phase_3,,,,,294.0,6.0,49.0,98.0,294.0,196.0,147.0,245.0,magenta,square
0.0,1.0,1.0,0.0,7.0,5.0,1196.3660577312112,3.0,1.0,phase_3,,,,,49.0,1.0,245.0,294.0,98.0,147.0,49.0,196.0,green,I
0.0,4.0,4.0,0.0,7.0,4.0,3612.8327529877424,3.0,1.0,phase_3,,,,,195.0,5.0,156.0,78.0,234.0,195.0,117.0,39.0,cyan,flipped triangle
0.0,7.0,3.0,1.0,7.0,5.0,1239.4192907959225,3.0,1.0,phase_3,,,,,117.0,3.0,234.0,39.0,78.0,156.0,117.0,195.0,white,cross
0.0,5.0,1.0,1.0,7.0,5.0,1854.9674050882456,3.0,1.0,phase_3,,,,,88.0,2.0,264.0,176.0,132.0,44.0,88.0,220.0,orange,hexagon
0.0,1.0,1.0,0.0,7.0,5.0,1310.68592146039,3.0,1.0,phase_3,,,,,54.0,1.0,108.0,324.0,270.0,162.0,54.0,216.0,green,I
0.0,6.0,2.0,1.0,7.0,5.0,4473.246868699789,3.0,1.0,phase_3,,,,,68.0,2.0,170.0,204.0,34.0,136.0,68.0,102.0,blue,triangle
0.0,6.0,2.0,1.0,7.0,1.0,2180.256241932512,4.0,1.0,phase_3,,,,,78.0,2.0,78.0,156.0,195.0,234.0,39.0,117.0,blue,triangle
0.0,5.0,1.0,1.0,7.0,4.0,2358.132580295205,4.0,1.0,phase_3,,,,,98.0,2.0,196.0,49.0,147.0,98.0,245.0,294.0,orange,hexagon
0.0,3.0,3.0,0.0,7.0,5.0,3359.4537274912,4.0,1.0,phase_3,,,,,147.0,3.0,98.0,196.0,294.0,49.0,147.0,245.0,gray,diamond
0.0,1.0,1.0,0.0,7.0,1.0,1178.2913971692324,4.0,1.0,phase_3,,,,,39.0,1.0,39.0,195.0,117.0,156.0,234.0,78.0,green,I
0.0,2.0,2.0,0.0,7.0,1.0,286.789090372622,4.0,2.0,phase_3,,,,,68.0,2.0,68.0,34.0,170.0,102.0,204.0,136.0,yellow,circle
0.0,4.0,4.0,0.0,7.0,2.0,2511.174324899912,4.0,1.0,phase_3,,,,,204.0,6.0,170.0,204.0,68.0,102.0,136.0,34.0,cyan,flipped triangle
0.0,3.0,3.0,0.0,7.0,6.0,1837.5439690425992,4.0,1.0,phase_3,,,,,108.0,2.0,216.0,270.0,162.0,324.0,54.0,108.0,gray,diamond
0.0,5.0,1.0,1.0,7.0,2.0,3295.1264567673206,4.0,1.0,phase_3,,,,,98.0,2.0,196.0,98.0,49.0,294.0,245.0,147.0,orange,hexagon
0.0,5.0,1.0,1.0,7.0,5.0,2080.709996633232,4.0,1.0,phase_3,,,,,108.0,2.0,54.0,324.0,162.0,216.0,108.0,270.0,orange,hexagon
0.0,7.0,3.0,1.0,7.0,5.0,3386.647192761302,4.0,1.0,phase_3,,,,,49.0,1.0,147.0,294.0,98.0,196.0,49.0,245.0,white,cross
0.0,3.0,3.0,0.0,7.0,3.0,2732.894519343972,4.0,1.0,phase_3,,,,,98.0,2.0,49.0,245.0,98.0,294.0,147.0,196.0,gray,diamond
0.0,2.0,2.0,0.0,7.0,2.0,2758.5793854668736,4.0,1.0,phase_3,,,,,88.0,2.0,132.0,88.0,176.0,220.0,264.0,44.0,yellow,circle
0.0,6.0,2.0,1.0,7.0,2.0,2161.021047271788,4.0,1.0,phase_3,,,,,102.0,3.0,136.0,102.0,68.0,34.0,204.0,170.0,blue,triangle
0.0,7.0,3.0,1.0,7.0,4.0,235.2158231660723,4.0,2.0,phase_3,,,,,68.0,2.0,102.0,34.0,170.0,68.0,136.0,204.0,white,cross
0.0,6.0,2.0,1.0,7.0,1.0,2555.9282265603542,4.0,1.0,phase_3,,,,,108.0,2.0,108.0,324.0,162.0,270.0,216.0,54.0,blue,triangle
0.0,6.0,2.0,1.0,7.0,5.0,2132.2182659059763,4.0,1.0,phase_3,,,,,98.0,2.0,245.0,147.0,196.0,294.0,98.0,49.0,blue,triangle
0.0,5.0,1.0,1.0,7.0,1.0,3998.523522168398,4.0,1.0,phase_3,,,,,117.0,3.0,117.0,156.0,195.0,234.0,78.0,39.0,orange,hexagon
0.0,8.0,4.0,1.0,7.0,5.0,2339.7837821394205,4.0,1.0,phase_3,,,,,234.0,6.0,195.0,39.0,78.0,156.0,234.0,117.0,magenta,square
0.0,1.0,1.0,0.0,7.0,2.0,1543.9551854506135,4.0,1.0,phase_3,,,,,54.0,1.0,270.0,54.0,162.0,108.0,324.0,216.0,green,I
0.0,8.0,4.0,1.0,7.0,4.0,2462.792655453086,4.0,1.0,phase_3,,,,,54.0,1.0,324.0,108.0,162.0,54.0,216.0,270.0,magenta,square
