raw_reward_magnitude,stim_reward,stepwise_reward_magnitude,paired_with_stopping,stim_location,response,reaction_time,block,num_trial_presentations,which_phase,stop_signal_trial_type,left_SSD,right_SSD,accuracy,chosen_bidding_amount,chosen_bidding_level,possible_bid_1,possible_bid_2,possible_bid_3,possible_bid_4,possible_bid_5,possible_bid_6,color_text,shape_text
77.0,2.0,1.0,0.0,3.0,3.0,529.585755430162,1.0,1.0,phase_1,,,,,,,,,,,,,yellow,hexagon
106.0,2.0,1.0,0.0,2.0,2.0,329.606874845922,1.0,1.0,phase_1,,,,,,,,,,,,,yellow,hexagon
211.0,7.0,2.0,1.0,4.0,4.0,344.8359528556466,1.0,1.0,phase_1,,,,,,,,,,,,,blue,I
46.0,5.0,0.5,1.0,4.0,4.0,405.1232943311333,1.0,1.0,phase_1,,,,,,,,,,,,,gray,square
62.0,5.0,0.5,1.0,1.0,1.0,345.7895359024405,1.0,1.0,phase_1,,,,,,,,,,,,,gray,square
211.0,3.0,2.0,0.0,1.0,1.0,350.8952502161264,1.0,1.0,phase_1,,,,,,,,,,,,,cyan,flipped triangle
36.0,1.0,0.5,0.0,2.0,2.0,333.0015391111374,1.0,1.0,phase_1,,,,,,,,,,,,,green,triangle
0.0,2.0,0.0,0.0,2.0,2.0,374.2915913462639,1.0,1.0,phase_1,,,,,,,,,,,,,yellow,hexagon
0.0,2.0,0.0,0.0,4.0,4.0,309.8591202870011,1.0,1.0,phase_1,,,,,,,,,,,,,yellow,hexagon
51.0,1.0,0.5,0.0,2.0,2.0,335.8381912112236,1.0,1.0,phase_1,,,,,,,,,,,,,green,triangle
48.0,5.0,0.5,1.0,2.0,2.0,351.9012415781617,1.0,1.0,phase_1,,,,,,,,,,,,,gray,square
119.0,2.0,1.0,0.0,1.0,1.0,387.5774191692471,1.0,1.0,phase_1,,,,,,,,,,,,,yellow,hexagon
223.0,7.0,2.0,1.0,1.0,1.0,310.0940668955445,1.0,1.0,phase_1,,,,,,,,,,,,,blue,I
406.0,4.0,4.0,0.0,1.0,1.0,412.9129648208618,1.0,1.0,phase_1,,,,,,,,,,,,,orange,circle
200.0,3.0,2.0,0.0,3.0,3.0,399.1649346426129,1.0,1.0,phase_1,,,,,,,,,,,,,cyan,flipped triangle
92.0,6.0,1.0,1.0,3.0,3.0,486.7991851642728,1.0,1.0,phase_1,,,,,,,,,,,,,magenta,cross
78.0,6.0,1.0,1.0,1.0,1.0,396.074702963233,1.0,1.0,phase_1,,,,,,,,,,,,,magenta,cross
423.0,8.0,4.0,1.0,2.0,2.0,350.7955614477396,1.0,1.0,phase_1,,,,,,,,,,,,,white,diamond
0.0,4.0,0.0,0.0,3.0,3.0,453.7164717912674,1.0,1.0,phase_1,,,,,,,,,,,,,orange,circle
220.0,3.0,2.0,0.0,3.0,3.0,502.238548360765,1.0,1.0,phase_1,,,,,,,,,,,,,cyan,flipped triangle
0.0,7.0,0.0,1.0,4.0,4.0,339.4719343632459,1.0,1.0,phase_1,,,,,,,,,,,,,blue,I
63.0,1.0,0.5,0.0,3.0,3.0,359.8306849598884,1.0,1.0,phase_1,,,,,,,,,,,,,green,triangle
75.0,1.0,0.5,0.0,2.0,2.0,413.3064243942499,1.0,1.0,phase_1,,,,,,,,,,,,,green,triangle
88.0,2.0,1.0,0.0,4.0,4.0,337.3061958700418,1.0,1.0,phase_1,,,,,,,,,,,,,yellow,hexagon
42.0,5.0,0.5,1.0,1.0,1.0,453.5015244036913,1.0,1.0,phase_1,,,,,,,,,,,,,gray,square
0.0,3.0,0.0,0.0,3.0,3.0,398.2009636238217,1.0,1.0,phase_1,,,,,,,,,,,,,cyan,flipped triangle
385.0,8.0,4.0,1.0,2.0,2.0,344.3375956267118,1.0,1.0,phase_1,,,,,,,,,,,,,white,diamond
394.0,4.0,4.0,0.0,2.0,2.0,355.6314343586564,1.0,1.0,phase_1,,,,,,,,,,,,,orange,circle
101.0,6.0,1.0,1.0,3.0,3.0,375.7701497524977,1.0,2.0,phase_1,,,,,,,,,,,,,magenta,cross
98.0,6.0,1.0,1.0,2.0,2.0,354.6602018177509,1.0,1.0,phase_1,,,,,,,,,,,,,magenta,cross
220.0,7.0,2.0,1.0,2.0,2.0,394.481036812067,1.0,1.0,phase_1,,,,,,,,,,,,,blue,I
46.0,1.0,0.5,0.0,4.0,4.0,342.9712075740099,1.0,1.0,phase_1,,,,,,,,,,,,,green,triangle
64.0,5.0,0.5,1.0,1.0,1.0,504.10335790365934,1.0,1.0,phase_1,,,,,,,,,,,,,gray,square
199.0,3.0,2.0,0.0,4.0,4.0,359.6764439716935,1.0,1.0,phase_1,,,,,,,,,,,,,cyan,flipped triangle
380.0,8.0,4.0,1.0,4.0,4.0,355.1544714719057,1.0,1.0,phase_1,,,,,,,,,,,,,white,diamond
43.0,1.0,0.5,0.0,1.0,1.0,521.9303015619516,1.0,1.0,phase_1,,,,,,,,,,,,,green,triangle
91.0,2.0,1.0,0.0,2.0,2.0,533.3063211292028,1.0,1.0,phase_1,,,,,,,,,,,,,yellow,hexagon
381.0,8.0,4.0,1.0,3.0,3.0,400.0085033476352,1.0,1.0,phase_1,,,,,,,,,,,,,white,diamond
84.0,6.0,1.0,1.0,2.0,2.0,403.9515610784292,1.0,1.0,phase_1,,,,,,,,,,,,,magenta,cross
192.0,7.0,2.0,1.0,2.0,2.0,392.6990982145071,1.0,1.0,phase_1,,,,,,,,,,,,,blue,I
193.0,7.0,2.0,1.0,3.0,3.0,433.6150847375393,1.0,1.0,phase_1,,,,,,,,,,,,,blue,I
87.0,2.0,1.0,0.0,1.0,1.0,486.2776370719075,1.0,1.0,phase_1,,,,,,,,,,,,,yellow,hexagon
421.0,4.0,4.0,0.0,2.0,2.0,392.918586730957,1.0,1.0,phase_1,,,,,,,,,,,,,orange,circle
77.0,2.0,1.0,0.0,1.0,1.0,310.2150205522775,1.0,1.0,phase_1,,,,,,,,,,,,,yellow,hexagon
76.0,2.0,1.0,0.0,4.0,4.0,400.4335645586252,1.0,1.0,phase_1,,,,,,,,,,,,,yellow,hexagon
217.0,7.0,2.0,1.0,1.0,1.0,391.6573813185096,1.0,1.0,phase_1,,,,,,,,,,,,,blue,I
106.0,2.0,1.0,0.0,2.0,2.0,379.4634826481342,1.0,1.0,phase_1,,,,,,,,,,,,,yellow,hexagon
68.0,1.0,0.5,0.0,2.0,2.0,375.1658424735069,1.0,1.0,phase_1,,,,,,,,,,,,,green,triangle
48.0,1.0,0.5,0.0,4.0,4.0,399.2407079786062,1.0,1.0,phase_1,,,,,,,,,,,,,green,triangle
122.0,6.0,1.0,1.0,2.0,2.0,367.1840857714414,1.0,1.0,phase_1,,,,,,,,,,,,,magenta,cross
0.0,5.0,0.0,1.0,3.0,3.0,445.5627491697669,1.0,1.0,phase_1,,,,,,,,,,,,,gray,square
0.0,8.0,0.0,1.0,2.0,2.0,538.9252528548241,1.0,1.0,phase_1,,,,,,,,,,,,,white,diamond
199.0,7.0,2.0,1.0,4.0,4.0,367.5859961658716,1.0,1.0,phase_1,,,,,,,,,,,,,blue,I
0.0,1.0,0.0,0.0,1.0,1.0,388.4923607110977,1.0,1.0,phase_1,,,,,,,,,,,,,green,triangle
46.0,1.0,0.5,0.0,3.0,3.0,375.5775596946478,1.0,1.0,phase_1,,,,,,,,,,,,,green,triangle
0.0,1.0,0.0,0.0,2.0,2.0,355.7721422985196,1.0,1.0,phase_1,,,,,,,,,,,,,green,triangle
120.0,6.0,1.0,1.0,1.0,1.0,540.4069805517793,1.0,1.0,phase_1,,,,,,,,,,,,,magenta,cross
73.0,1.0,0.5,0.0,2.0,2.0,373.7721927464008,1.0,1.0,phase_1,,,,,,,,,,,,,green,triangle
412.0,8.0,4.0,1.0,4.0,4.0,308.7156470865011,1.0,1.0,phase_1,,,,,,,,,,,,,white,diamond
417.0,4.0,4.0,0.0,2.0,2.0,401.0663777589798,1.0,1.0,phase_1,,,,,,,,,,,,,orange,circle
0.0,2.0,0.0,0.0,3.0,3.0,404.263018630445,1.0,1.0,phase_1,,,,,,,,,,,,,yellow,hexagon
209.0,3.0,2.0,0.0,4.0,4.0,394.5038244128227,1.0,1.0,phase_1,,,,,,,,,,,,,cyan,flipped triangle
0.0,1.0,0.0,0.0,4.0,4.0,400.5656475201249,1.0,1.0,phase_1,,,,,,,,,,,,,green,triangle
195.0,3.0,2.0,0.0,3.0,3.0,425.9338174015283,1.0,1.0,phase_1,,,,,,,,,,,,,cyan,flipped triangle
378.0,4.0,4.0,0.0,4.0,4.0,370.2089013531804,1.0,1.0,phase_1,,,,,,,,,,,,,orange,circle
224.0,7.0,2.0,1.0,2.0,2.0,427.0889787003398,1.0,1.0,phase_1,,,,,,,,,,,,,blue,I
415.0,8.0,4.0,1.0,4.0,4.0,369.8985837399959,1.0,1.0,phase_1,,,,,,,,,,,,,white,diamond
217.0,3.0,2.0,0.0,4.0,4.0,460.134451277554,1.0,1.0,phase_1,,,,,,,,,,,,,cyan,flipped triangle
194.0,3.0,2.0,0.0,4.0,4.0,411.4484870806336,1.0,1.0,phase_1,,,,,,,,,,,,,cyan,flipped triangle
390.0,8.0,4.0,1.0,3.0,3.0,361.6795623674989,1.0,1.0,phase_1,,,,,,,,,,,,,white,diamond
62.0,1.0,0.5,0.0,1.0,1.0,366.1447130143642,1.0,1.0,phase_1,,,,,,,,,,,,,green,triangle
0.0,3.0,0.0,0.0,3.0,3.0,354.7144308686256,1.0,1.0,phase_1,,,,,,,,,,,,,cyan,flipped triangle
76.0,6.0,1.0,1.0,1.0,1.0,475.1967508345842,1.0,1.0,phase_1,,,,,,,,,,,,,magenta,cross
0.0,6.0,0.0,1.0,4.0,4.0,296.1034085601568,1.0,1.0,phase_1,,,,,,,,,,,,,magenta,cross
103.0,2.0,1.0,0.0,3.0,3.0,408.0970603972673,1.0,1.0,phase_1,,,,,,,,,,,,,yellow,hexagon
102.0,2.0,1.0,0.0,2.0,2.0,401.4046229422092,1.0,1.0,phase_1,,,,,,,,,,,,,yellow,hexagon
398.0,4.0,4.0,0.0,3.0,3.0,408.5641829296946,1.0,1.0,phase_1,,,,,,,,,,,,,orange,circle
84.0,2.0,1.0,0.0,3.0,3.0,434.8098691552877,1.0,1.0,phase_1,,,,,,,,,,,,,yellow,hexagon
46.0,5.0,0.5,1.0,1.0,1.0,410.8758540824055,1.0,1.0,phase_1,,,,,,,,,,,,,gray,square
0.0,6.0,0.0,1.0,3.0,3.0,404.373669065535,1.0,1.0,phase_1,,,,,,,,,,,,,magenta,cross
411.0,8.0,4.0,1.0,3.0,3.0,393.4210948646068,1.0,1.0,phase_1,,,,,,,,,,,,,white,diamond
0.0,5.0,0.0,1.0,4.0,4.0,358.3855973556638,1.0,1.0,phase_1,,,,,,,,,,,,,gray,square
0.0,1.0,0.0,0.0,3.0,3.0,380.6755254045129,1.0,1.0,phase_1,,,,,,,,,,,,,green,triangle
0.0,2.0,0.0,0.0,3.0,3.0,367.1791721135378,1.0,1.0,phase_1,,,,,,,,,,,,,yellow,hexagon
79.0,6.0,1.0,1.0,4.0,4.0,397.0453301444649,1.0,1.0,phase_1,,,,,,,,,,,,,magenta,cross
0.0,4.0,0.0,0.0,2.0,2.0,297.0681181177497,1.0,1.0,phase_1,,,,,,,,,,,,,orange,circle
188.0,3.0,2.0,0.0,1.0,1.0,406.6161457449198,1.0,1.0,phase_1,,,,,,,,,,,,,cyan,flipped triangle
106.0,6.0,1.0,1.0,3.0,3.0,476.4122292399406,1.0,1.0,phase_1,,,,,,,,,,,,,magenta,cross
0.0,2.0,0.0,0.0,1.0,1.0,465.9084249287843,1.0,1.0,phase_1,,,,,,,,,,,,,yellow,hexagon
194.0,7.0,2.0,1.0,4.0,4.0,350.7799282670021,1.0,1.0,phase_1,,,,,,,,,,,,,blue,I
0.0,7.0,0.0,1.0,4.0,4.0,395.2752742916345,1.0,1.0,phase_1,,,,,,,,,,,,,blue,I
80.0,2.0,1.0,0.0,2.0,2.0,367.5614427775144,1.0,1.0,phase_1,,,,,,,,,,,,,yellow,hexagon
0.0,4.0,0.0,0.0,4.0,4.0,370.4096954315901,1.0,1.0,phase_1,,,,,,,,,,,,,orange,circle
411.0,4.0,4.0,0.0,2.0,2.0,390.6320789828896,1.0,1.0,phase_1,,,,,,,,,,,,,orange,circle
56.0,1.0,0.5,0.0,4.0,4.0,387.4433636665344,1.0,1.0,phase_1,,,,,,,,,,,,,green,triangle
213.0,3.0,2.0,0.0,1.0,1.0,394.4000555202365,1.0,1.0,phase_1,,,,,,,,,,,,,cyan,flipped triangle
213.0,3.0,2.0,0.0,2.0,2.0,445.7092452794313,1.0,1.0,phase_1,,,,,,,,,,,,,cyan,flipped triangle
380.0,8.0,4.0,1.0,2.0,2.0,386.6161098703742,1.0,1.0,phase_1,,,,,,,,,,,,,white,diamond
86.0,2.0,1.0,0.0,1.0,1.0,400.9467829018831,1.0,1.0,phase_1,,,,,,,,,,,,,yellow,hexagon
187.0,7.0,2.0,1.0,1.0,1.0,420.7918010652065,1.0,1.0,phase_1,,,,,,,,,,,,,blue,I
28.0,5.0,0.5,1.0,4.0,4.0,411.6102689877152,2.0,1.0,phase_1,,,,,,,,,,,,,gray,square
119.0,6.0,1.0,1.0,4.0,4.0,350.9447136893868,2.0,1.0,phase_1,,,,,,,,,,,,,magenta,cross
0.0,5.0,0.0,1.0,2.0,2.0,358.888229355216,2.0,1.0,phase_1,,,,,,,,,,,,,gray,square
0.0,3.0,0.0,0.0,1.0,1.0,370.4050220549106,2.0,1.0,phase_1,,,,,,,,,,,,,cyan,flipped triangle
28.0,1.0,0.5,0.0,3.0,3.0,382.571192458272,2.0,1.0,phase_1,,,,,,,,,,,,,green,triangle
187.0,3.0,2.0,0.0,3.0,3.0,411.73782851546997,2.0,1.0,phase_1,,,,,,,,,,,,,cyan,flipped triangle
31.0,5.0,0.5,1.0,3.0,3.0,407.7270412817597,2.0,1.0,phase_1,,,,,,,,,,,,,gray,square
99.0,2.0,1.0,0.0,4.0,4.0,394.8909314349293,2.0,1.0,phase_1,,,,,,,,,,,,,yellow,hexagon
187.0,3.0,2.0,0.0,4.0,4.0,394.7046613320708,2.0,1.0,phase_1,,,,,,,,,,,,,cyan,flipped triangle
380.0,4.0,4.0,0.0,3.0,3.0,444.3905912339687,2.0,1.0,phase_1,,,,,,,,,,,,,orange,circle
177.0,7.0,2.0,1.0,2.0,2.0,530.72698879987,2.0,1.0,phase_1,,,,,,,,,,,,,blue,I
195.0,7.0,2.0,1.0,3.0,3.0,383.2941111177206,2.0,1.0,phase_1,,,,,,,,,,,,,blue,I
106.0,6.0,1.0,1.0,3.0,3.0,402.470413595438,2.0,1.0,phase_1,,,,,,,,,,,,,magenta,cross
27.0,5.0,0.5,1.0,2.0,2.0,407.0358527824282,2.0,1.0,phase_1,,,,,,,,,,,,,gray,square
414.0,4.0,4.0,0.0,2.0,2.0,510.50148997455835,2.0,1.0,phase_1,,,,,,,,,,,,,orange,circle
405.0,4.0,4.0,0.0,1.0,1.0,347.0220174640417,2.0,1.0,phase_1,,,,,,,,,,,,,orange,circle
0.0,7.0,0.0,1.0,3.0,3.0,374.1256864741444,2.0,1.0,phase_1,,,,,,,,,,,,,blue,I
46.0,1.0,0.5,0.0,4.0,4.0,387.9102226346731,2.0,1.0,phase_1,,,,,,,,,,,,,green,triangle
177.0,3.0,2.0,0.0,2.0,2.0,337.6529477536678,2.0,1.0,phase_1,,,,,,,,,,,,,cyan,flipped triangle
377.0,4.0,4.0,0.0,1.0,1.0,284.0924095362425,2.0,1.0,phase_1,,,,,,,,,,,,,orange,circle
0.0,5.0,0.0,1.0,2.0,2.0,456.772287376225,2.0,1.0,phase_1,,,,,,,,,,,,,gray,square
0.0,3.0,0.0,0.0,3.0,3.0,380.2629867568612,2.0,2.0,phase_1,,,,,,,,,,,,,cyan,flipped triangle
184.0,7.0,2.0,1.0,1.0,1.0,477.6473138481378,2.0,1.0,phase_1,,,,,,,,,,,,,blue,I
56.0,5.0,0.5,1.0,4.0,4.0,350.6248854100704,2.0,1.0,phase_1,,,,,,,,,,,,,gray,square
124.0,2.0,1.0,0.0,3.0,3.0,329.761671833694,2.0,1.0,phase_1,,,,,,,,,,,,,yellow,hexagon
26.0,5.0,0.5,1.0,3.0,3.0,507.9605672508478,2.0,1.0,phase_1,,,,,,,,,,,,,gray,square
71.0,1.0,0.5,0.0,1.0,1.0,427.9196104034781,2.0,1.0,phase_1,,,,,,,,,,,,,green,triangle
67.0,5.0,0.5,1.0,3.0,3.0,358.1213979050517,2.0,1.0,phase_1,,,,,,,,,,,,,gray,square
87.0,6.0,1.0,1.0,4.0,4.0,395.5428581684828,2.0,1.0,phase_1,,,,,,,,,,,,,magenta,cross
65.0,5.0,0.5,1.0,2.0,2.0,374.5062286034226,2.0,1.0,phase_1,,,,,,,,,,,,,gray,square
42.0,5.0,0.5,1.0,4.0,4.0,335.6259660795331,2.0,1.0,phase_1,,,,,,,,,,,,,gray,square
397.0,4.0,4.0,0.0,1.0,1.0,392.0943960547447,2.0,1.0,phase_1,,,,,,,,,,,,,orange,circle
400.0,8.0,4.0,1.0,1.0,1.0,436.6844678297639,2.0,1.0,phase_1,,,,,,,,,,,,,white,diamond
87.0,2.0,1.0,0.0,3.0,3.0,403.3838957548141,2.0,1.0,phase_1,,,,,,,,,,,,,yellow,hexagon
386.0,4.0,4.0,0.0,4.0,4.0,446.8798423185944,2.0,1.0,phase_1,,,,,,,,,,,,,orange,circle
421.0,8.0,4.0,1.0,3.0,3.0,435.2361615747213,2.0,1.0,phase_1,,,,,,,,,,,,,white,diamond
113.0,2.0,1.0,0.0,4.0,4.0,391.2187358364463,2.0,1.0,phase_1,,,,,,,,,,,,,yellow,hexagon
46.0,1.0,0.5,0.0,1.0,1.0,398.9696642383933,2.0,1.0,phase_1,,,,,,,,,,,,,green,triangle
400.0,4.0,4.0,0.0,4.0,4.0,362.9517313092947,2.0,1.0,phase_1,,,,,,,,,,,,,orange,circle
0.0,7.0,0.0,1.0,3.0,3.0,432.5937796384096,2.0,1.0,phase_1,,,,,,,,,,,,,blue,I
397.0,8.0,4.0,1.0,2.0,2.0,333.5823034867644,2.0,1.0,phase_1,,,,,,,,,,,,,white,diamond
411.0,4.0,4.0,0.0,1.0,1.0,408.9489988982677,2.0,1.0,phase_1,,,,,,,,,,,,,orange,circle
84.0,2.0,1.0,0.0,4.0,4.0,327.8729692101478,2.0,1.0,phase_1,,,,,,,,,,,,,yellow,hexagon
0.0,5.0,0.0,1.0,4.0,4.0,433.1427849829197,2.0,1.0,phase_1,,,,,,,,,,,,,gray,square
395.0,4.0,4.0,0.0,4.0,4.0,341.4077162742615,2.0,1.0,phase_1,,,,,,,,,,,,,orange,circle
0.0,8.0,0.0,1.0,4.0,4.0,371.3429784402251,2.0,1.0,phase_1,,,,,,,,,,,,,white,diamond
377.0,4.0,4.0,0.0,3.0,3.0,354.4331882148981,2.0,1.0,phase_1,,,,,,,,,,,,,orange,circle
31.0,1.0,0.5,0.0,3.0,3.0,391.0669665783644,2.0,1.0,phase_1,,,,,,,,,,,,,green,triangle
183.0,3.0,2.0,0.0,3.0,3.0,441.1560408771038,2.0,1.0,phase_1,,,,,,,,,,,,,cyan,flipped triangle
120.0,2.0,1.0,0.0,3.0,3.0,520.6391056999564,2.0,1.0,phase_1,,,,,,,,,,,,,yellow,hexagon
412.0,4.0,4.0,0.0,3.0,3.0,346.8714375048876,2.0,1.0,phase_1,,,,,,,,,,,,,orange,circle
84.0,6.0,1.0,1.0,3.0,3.0,345.8778858184814,2.0,1.0,phase_1,,,,,,,,,,,,,magenta,cross
378.0,8.0,4.0,1.0,4.0,4.0,358.0509191378951,2.0,1.0,phase_1,,,,,,,,,,,,,white,diamond
401.0,4.0,4.0,0.0,1.0,1.0,511.00848242640495,2.0,1.0,phase_1,,,,,,,,,,,,,orange,circle
200.0,3.0,2.0,0.0,1.0,1.0,412.0176043361425,2.0,1.0,phase_1,,,,,,,,,,,,,cyan,flipped triangle
409.0,8.0,4.0,1.0,1.0,1.0,376.6399547457695,2.0,1.0,phase_1,,,,,,,,,,,,,white,diamond
399.0,8.0,4.0,1.0,2.0,2.0,433.0535130575299,2.0,1.0,phase_1,,,,,,,,,,,,,white,diamond
200.0,7.0,2.0,1.0,2.0,2.0,556.6423451527953,2.0,1.0,phase_1,,,,,,,,,,,,,blue,I
122.0,2.0,1.0,0.0,3.0,3.0,383.1629008054733,2.0,1.0,phase_1,,,,,,,,,,,,,yellow,hexagon
414.0,8.0,4.0,1.0,3.0,3.0,379.3784314766526,2.0,1.0,phase_1,,,,,,,,,,,,,white,diamond
26.0,1.0,0.5,0.0,3.0,3.0,569.0863970667124,2.0,1.0,phase_1,,,,,,,,,,,,,green,triangle
58.0,1.0,0.5,0.0,2.0,2.0,622.1851240843534,2.0,1.0,phase_1,,,,,,,,,,,,,green,triangle
121.0,6.0,1.0,1.0,2.0,2.0,490.09192828089,2.0,1.0,phase_1,,,,,,,,,,,,,magenta,cross
391.0,4.0,4.0,0.0,2.0,2.0,519.7959151118994,2.0,1.0,phase_1,,,,,,,,,,,,,orange,circle
58.0,5.0,0.5,1.0,2.0,2.0,546.8297991901636,2.0,1.0,phase_1,,,,,,,,,,,,,gray,square
0.0,4.0,0.0,0.0,3.0,3.0,442.6182555034756,2.0,1.0,phase_1,,,,,,,,,,,,,orange,circle
204.0,7.0,2.0,1.0,3.0,3.0,310.344822704792,2.0,1.0,phase_1,,,,,,,,,,,,,blue,I
0.0,1.0,0.0,0.0,3.0,3.0,353.880787268281,2.0,1.0,phase_1,,,,,,,,,,,,,green,triangle
118.0,6.0,1.0,1.0,1.0,1.0,494.0017526969313,2.0,1.0,phase_1,,,,,,,,,,,,,magenta,cross
0.0,6.0,0.0,1.0,4.0,4.0,358.0217938870191,2.0,1.0,phase_1,,,,,,,,,,,,,magenta,cross
33.0,1.0,0.5,0.0,1.0,1.0,406.8257138133049,2.0,1.0,phase_1,,,,,,,,,,,,,green,triangle
200.0,7.0,2.0,1.0,1.0,1.0,444.3225227296352,2.0,1.0,phase_1,,,,,,,,,,,,,blue,I
177.0,7.0,2.0,1.0,4.0,4.0,371.3165549561381,2.0,1.0,phase_1,,,,,,,,,,,,,blue,I
104.0,6.0,1.0,1.0,3.0,3.0,368.12076158821577,2.0,1.0,phase_1,,,,,,,,,,,,,magenta,cross
0.0,3.0,0.0,0.0,4.0,4.0,337.5045927241444,2.0,1.0,phase_1,,,,,,,,,,,,,cyan,flipped triangle
0.0,8.0,0.0,1.0,3.0,3.0,366.323983296752,2.0,1.0,phase_1,,,,,,,,,,,,,white,diamond
187.0,7.0,2.0,1.0,4.0,4.0,347.3763531073928,2.0,1.0,phase_1,,,,,,,,,,,,,blue,I
0.0,2.0,0.0,0.0,1.0,1.0,383.7183695286512,2.0,1.0,phase_1,,,,,,,,,,,,,yellow,hexagon
213.0,7.0,2.0,1.0,3.0,3.0,296.1601614952087,2.0,1.0,phase_1,,,,,,,,,,,,,blue,I
51.0,5.0,0.5,1.0,3.0,3.0,370.9247214719653,2.0,1.0,phase_1,,,,,,,,,,,,,gray,square
181.0,7.0,2.0,1.0,2.0,2.0,543.5361880809069,2.0,1.0,phase_1,,,,,,,,,,,,,blue,I
98.0,6.0,1.0,1.0,1.0,1.0,378.540001809597,2.0,1.0,phase_1,,,,,,,,,,,,,magenta,cross
188.0,7.0,2.0,1.0,4.0,4.0,395.2794438228011,2.0,1.0,phase_1,,,,,,,,,,,,,blue,I
77.0,6.0,1.0,1.0,3.0,3.0,420.5531245097518,2.0,1.0,phase_1,,,,,,,,,,,,,magenta,cross
415.0,4.0,4.0,0.0,1.0,1.0,432.6064931228757,2.0,1.0,phase_1,,,,,,,,,,,,,orange,circle
414.0,4.0,4.0,0.0,3.0,3.0,469.1454777494073,2.0,1.0,phase_1,,,,,,,,,,,,,orange,circle
0.0,4.0,0.0,0.0,4.0,4.0,331.0016393661499,2.0,1.0,phase_1,,,,,,,,,,,,,orange,circle
0.0,8.0,0.0,1.0,1.0,1.0,328.9071070030331,2.0,1.0,phase_1,,,,,,,,,,,,,white,diamond
391.0,8.0,4.0,1.0,4.0,4.0,379.4082058593631,2.0,1.0,phase_1,,,,,,,,,,,,,white,diamond
402.0,4.0,4.0,0.0,1.0,1.0,511.5940263494849,2.0,1.0,phase_1,,,,,,,,,,,,,orange,circle
0.0,5.0,0.0,1.0,2.0,2.0,404.1770836338401,2.0,1.0,phase_1,,,,,,,,,,,,,gray,square
212.0,7.0,2.0,1.0,3.0,3.0,385.8335502445698,2.0,1.0,phase_1,,,,,,,,,,,,,blue,I
411.0,8.0,4.0,1.0,4.0,4.0,375.5124602466821,2.0,1.0,phase_1,,,,,,,,,,,,,white,diamond
92.0,2.0,1.0,0.0,3.0,3.0,494.4720147177577,2.0,1.0,phase_1,,,,,,,,,,,,,yellow,hexagon
0.0,1.0,0.0,0.0,1.0,1.0,346.4728221297264,2.0,1.0,phase_1,,,,,,,,,,,,,green,triangle
402.0,8.0,4.0,1.0,1.0,1.0,332.2315374389291,2.0,1.0,phase_1,,,,,,,,,,,,,white,diamond
0.0,3.0,0.0,0.0,4.0,4.0,284.0739293023944,2.0,1.0,phase_1,,,,,,,,,,,,,cyan,flipped triangle
401.0,8.0,4.0,1.0,1.0,1.0,542.9608225822449,2.0,1.0,phase_1,,,,,,,,,,,,,white,diamond
0.0,7.0,0.0,1.0,4.0,4.0,316.9746268540621,2.0,1.0,phase_1,,,,,,,,,,,,,blue,I
420.0,4.0,4.0,0.0,4.0,4.0,320.7405526190996,2.0,1.0,phase_1,,,,,,,,,,,,,orange,circle
87.0,6.0,1.0,1.0,2.0,2.0,413.5158378630876,3.0,1.0,phase_1,,,,,,,,,,,,,magenta,cross
0.0,4.0,0.0,0.0,2.0,2.0,347.9262543842196,3.0,1.0,phase_1,,,,,,,,,,,,,orange,circle
75.0,1.0,0.5,0.0,3.0,3.0,425.0799529254436,3.0,1.0,phase_1,,,,,,,,,,,,,green,triangle
75.0,5.0,0.5,1.0,1.0,1.0,365.0719011202454,3.0,1.0,phase_1,,,,,,,,,,,,,gray,square
102.0,6.0,1.0,1.0,1.0,1.0,408.7642822414636,3.0,1.0,phase_1,,,,,,,,,,,,,magenta,cross
417.0,8.0,4.0,1.0,1.0,1.0,356.7166905850172,3.0,1.0,phase_1,,,,,,,,,,,,,white,diamond
113.0,6.0,1.0,1.0,4.0,4.0,337.7660689875483,3.0,1.0,phase_1,,,,,,,,,,,,,magenta,cross
178.0,7.0,2.0,1.0,3.0,3.0,532.8021505847573,3.0,1.0,phase_1,,,,,,,,,,,,,blue,I
65.0,1.0,0.5,0.0,4.0,4.0,721.6077279299498,3.0,1.0,phase_1,,,,,,,,,,,,,green,triangle
414.0,8.0,4.0,1.0,3.0,3.0,438.5172240436077,3.0,1.0,phase_1,,,,,,,,,,,,,white,diamond
0.0,6.0,0.0,1.0,1.0,1.0,386.4342039451003,3.0,1.0,phase_1,,,,,,,,,,,,,magenta,cross
119.0,6.0,1.0,1.0,2.0,2.0,408.8659565895796,3.0,1.0,phase_1,,,,,,,,,,,,,magenta,cross
42.0,1.0,0.5,0.0,4.0,4.0,599.0897277370095,3.0,1.0,phase_1,,,,,,,,,,,,,green,triangle
90.0,2.0,1.0,0.0,4.0,4.0,379.7830864787102,3.0,1.0,phase_1,,,,,,,,,,,,,yellow,hexagon
57.0,1.0,0.5,0.0,3.0,3.0,413.6351160705089,3.0,1.0,phase_1,,,,,,,,,,,,,green,triangle
407.0,4.0,4.0,0.0,3.0,3.0,329.9749670550227,3.0,1.0,phase_1,,,,,,,,,,,,,orange,circle
193.0,3.0,2.0,0.0,2.0,2.0,391.9138349592685,3.0,1.0,phase_1,,,,,,,,,,,,,cyan,flipped triangle
223.0,3.0,2.0,0.0,2.0,2.0,398.4691547229886,3.0,1.0,phase_1,,,,,,,,,,,,,cyan,flipped triangle
27.0,5.0,0.5,1.0,4.0,4.0,337.7882419154048,3.0,1.0,phase_1,,,,,,,,,,,,,gray,square
407.0,8.0,4.0,1.0,3.0,3.0,525.1519763842225,3.0,1.0,phase_1,,,,,,,,,,,,,white,diamond
0.0,3.0,0.0,0.0,4.0,4.0,468.3270528912544,3.0,1.0,phase_1,,,,,,,,,,,,,cyan,flipped triangle
191.0,7.0,2.0,1.0,4.0,4.0,453.7368575111031,3.0,1.0,phase_1,,,,,,,,,,,,,blue,I
217.0,7.0,2.0,1.0,3.0,3.0,339.4173886626959,3.0,1.0,phase_1,,,,,,,,,,,,,blue,I
51.0,5.0,0.5,1.0,1.0,1.0,521.0803607478738,3.0,1.0,phase_1,,,,,,,,,,,,,gray,square
184.0,3.0,2.0,0.0,2.0,2.0,310.5483073741197,3.0,1.0,phase_1,,,,,,,,,,,,,cyan,flipped triangle
201.0,3.0,2.0,0.0,4.0,4.0,281.3139865174889,3.0,1.0,phase_1,,,,,,,,,,,,,cyan,flipped triangle
0.0,5.0,0.0,1.0,3.0,3.0,294.2180791869759,3.0,1.0,phase_1,,,,,,,,,,,,,gray,square
0.0,2.0,0.0,0.0,3.0,3.0,314.3795672804117,3.0,1.0,phase_1,,,,,,,,,,,,,yellow,hexagon
121.0,2.0,1.0,0.0,4.0,4.0,327.3979881778359,3.0,1.0,phase_1,,,,,,,,,,,,,yellow,hexagon
51.0,1.0,0.5,0.0,3.0,3.0,582.8941119834781,3.0,1.0,phase_1,,,,,,,,,,,,,green,triangle
0.0,4.0,0.0,0.0,2.0,2.0,579.5901017263532,3.0,1.0,phase_1,,,,,,,,,,,,,orange,circle
0.0,1.0,0.0,0.0,3.0,3.0,612.5473920255899,3.0,1.0,phase_1,,,,,,,,,,,,,green,triangle
36.0,1.0,0.5,0.0,2.0,2.0,484.0610222890973,3.0,1.0,phase_1,,,,,,,,,,,,,green,triangle
113.0,6.0,1.0,1.0,4.0,4.0,342.3159522935748,3.0,1.0,phase_1,,,,,,,,,,,,,magenta,cross
188.0,3.0,2.0,0.0,3.0,3.0,451.0998660698533,3.0,1.0,phase_1,,,,,,,,,,,,,cyan,flipped triangle
119.0,2.0,1.0,0.0,2.0,2.0,431.544579565525,3.0,1.0,phase_1,,,,,,,,,,,,,yellow,hexagon
395.0,4.0,4.0,0.0,1.0,1.0,350.3702543675899,3.0,1.0,phase_1,,,,,,,,,,,,,orange,circle
204.0,3.0,2.0,0.0,1.0,1.0,354.7353278845548,3.0,1.0,phase_1,,,,,,,,,,,,,cyan,flipped triangle
377.0,8.0,4.0,1.0,1.0,1.0,488.7843253090977,3.0,1.0,phase_1,,,,,,,,,,,,,white,diamond
78.0,2.0,1.0,0.0,3.0,3.0,429.7937722876668,3.0,1.0,phase_1,,,,,,,,,,,,,yellow,hexagon
0.0,1.0,0.0,0.0,3.0,3.0,393.1231256574392,3.0,1.0,phase_1,,,,,,,,,,,,,green,triangle
65.0,1.0,0.5,0.0,1.0,1.0,686.6123769432306,3.0,1.0,phase_1,,,,,,,,,,,,,green,triangle
68.0,5.0,0.5,1.0,2.0,2.0,616.8729541823268,3.0,1.0,phase_1,,,,,,,,,,,,,gray,square
0.0,3.0,0.0,0.0,4.0,4.0,479.5574843883514,3.0,1.0,phase_1,,,,,,,,,,,,,cyan,flipped triangle
43.0,5.0,0.5,1.0,4.0,4.0,409.6072353422642,3.0,1.0,phase_1,,,,,,,,,,,,,gray,square
0.0,8.0,0.0,1.0,1.0,1.0,624.4613183662295,3.0,1.0,phase_1,,,,,,,,,,,,,white,diamond
104.0,2.0,1.0,0.0,2.0,2.0,829.0425045415759,3.0,1.0,phase_1,,,,,,,,,,,,,yellow,hexagon
86.0,6.0,1.0,1.0,2.0,2.0,728.9555752649903,3.0,1.0,phase_1,,,,,,,,,,,,,magenta,cross
0.0,3.0,0.0,0.0,4.0,4.0,527.3282248526812,3.0,1.0,phase_1,,,,,,,,,,,,,cyan,flipped triangle
409.0,4.0,4.0,0.0,4.0,4.0,434.4651317223906,3.0,1.0,phase_1,,,,,,,,,,,,,orange,circle
57.0,5.0,0.5,1.0,3.0,3.0,417.9413244128227,3.0,1.0,phase_1,,,,,,,,,,,,,gray,square
64.0,5.0,0.5,1.0,1.0,1.0,542.16821026057,3.0,1.0,phase_1,,,,,,,,,,,,,gray,square
0.0,5.0,0.0,1.0,4.0,4.0,435.5501625686884,3.0,1.0,phase_1,,,,,,,,,,,,,gray,square
46.0,5.0,0.5,1.0,3.0,3.0,367.9445059970021,3.0,1.0,phase_1,,,,,,,,,,,,,gray,square
390.0,4.0,4.0,0.0,4.0,4.0,425.2343634143471,3.0,1.0,phase_1,,,,,,,,,,,,,orange,circle
0.0,2.0,0.0,0.0,4.0,4.0,466.6487192735076,3.0,2.0,phase_1,,,,,,,,,,,,,yellow,hexagon
118.0,2.0,1.0,0.0,2.0,2.0,497.2893157973885,3.0,1.0,phase_1,,,,,,,,,,,,,yellow,hexagon
35.0,5.0,0.5,1.0,3.0,3.0,363.3075067773461,3.0,1.0,phase_1,,,,,,,,,,,,,gray,square
63.0,5.0,0.5,1.0,2.0,2.0,775.6195720285177,3.0,1.0,phase_1,,,,,,,,,,,,,gray,square
406.0,8.0,4.0,1.0,2.0,2.0,660.6228370219469,3.0,1.0,phase_1,,,,,,,,,,,,,white,diamond
380.0,8.0,4.0,1.0,1.0,1.0,555.8015778660774,3.0,1.0,phase_1,,,,,,,,,,,,,white,diamond
27.0,1.0,0.5,0.0,2.0,2.0,479.7315830364823,3.0,1.0,phase_1,,,,,,,,,,,,,green,triangle
192.0,3.0,2.0,0.0,1.0,1.0,516.7845962569118,3.0,1.0,phase_1,,,,,,,,,,,,,cyan,flipped triangle
220.0,7.0,2.0,1.0,2.0,2.0,383.1403804942965,3.0,1.0,phase_1,,,,,,,,,,,,,blue,I
91.0,6.0,1.0,1.0,1.0,1.0,444.4181602448225,3.0,1.0,phase_1,,,,,,,,,,,,,magenta,cross
0.0,6.0,0.0,1.0,3.0,3.0,424.7054932639003,3.0,1.0,phase_1,,,,,,,,,,,,,magenta,cross
0.0,4.0,0.0,0.0,4.0,4.0,558.1627124920487,3.0,1.0,phase_1,,,,,,,,,,,,,orange,circle
0.0,7.0,0.0,1.0,2.0,2.0,467.8879119455814,3.0,1.0,phase_1,,,,,,,,,,,,,blue,I
26.0,1.0,0.5,0.0,3.0,3.0,470.819535665214,3.0,1.0,phase_1,,,,,,,,,,,,,green,triangle
88.0,6.0,1.0,1.0,4.0,4.0,436.2326534464955,3.0,1.0,phase_1,,,,,,,,,,,,,magenta,cross
35.0,5.0,0.5,1.0,2.0,2.0,449.7207328677177,3.0,1.0,phase_1,,,,,,,,,,,,,gray,square
124.0,6.0,1.0,1.0,3.0,3.0,384.0707233175635,3.0,1.0,phase_1,,,,,,,,,,,,,magenta,cross
176.0,7.0,2.0,1.0,3.0,3.0,417.8225416690111,3.0,1.0,phase_1,,,,,,,,,,,,,blue,I
382.0,4.0,4.0,0.0,4.0,4.0,448.4457895159721,3.0,1.0,phase_1,,,,,,,,,,,,,orange,circle
217.0,3.0,2.0,0.0,2.0,2.0,478.6423053592443,3.0,1.0,phase_1,,,,,,,,,,,,,cyan,flipped triangle
416.0,4.0,4.0,0.0,4.0,4.0,328.0910858884454,3.0,1.0,phase_1,,,,,,,,,,,,,orange,circle
90.0,6.0,1.0,1.0,4.0,4.0,311.3386174663901,3.0,1.0,phase_1,,,,,,,,,,,,,magenta,cross
51.0,5.0,0.5,1.0,1.0,1.0,339.4274860620498,3.0,1.0,phase_1,,,,,,,,,,,,,gray,square
394.0,8.0,4.0,1.0,4.0,4.0,342.3926886171102,3.0,1.0,phase_1,,,,,,,,,,,,,white,diamond
0.0,4.0,0.0,0.0,1.0,1.0,370.5136142671108,3.0,1.0,phase_1,,,,,,,,,,,,,orange,circle
400.0,4.0,4.0,0.0,3.0,3.0,383.4315715357661,3.0,1.0,phase_1,,,,,,,,,,,,,orange,circle
217.0,3.0,2.0,0.0,4.0,4.0,396.1666310206055,3.0,1.0,phase_1,,,,,,,,,,,,,cyan,flipped triangle
107.0,2.0,1.0,0.0,4.0,4.0,323.6205847933888,3.0,1.0,phase_1,,,,,,,,,,,,,yellow,hexagon
67.0,1.0,0.5,0.0,1.0,1.0,375.3187507390976,3.0,1.0,phase_1,,,,,,,,,,,,,green,triangle
212.0,3.0,2.0,0.0,3.0,3.0,421.0500512272119,3.0,1.0,phase_1,,,,,,,,,,,,,cyan,flipped triangle
90.0,2.0,1.0,0.0,2.0,2.0,415.3187032788992,3.0,1.0,phase_1,,,,,,,,,,,,,yellow,hexagon
113.0,2.0,1.0,0.0,1.0,1.0,467.5379525870085,3.0,1.0,phase_1,,,,,,,,,,,,,yellow,hexagon
178.0,3.0,2.0,0.0,1.0,1.0,383.6527103558182,3.0,1.0,phase_1,,,,,,,,,,,,,cyan,flipped triangle
0.0,2.0,0.0,0.0,2.0,2.0,504.4419104233384,3.0,1.0,phase_1,,,,,,,,,,,,,yellow,hexagon
75.0,5.0,0.5,1.0,4.0,4.0,348.4116625040769,3.0,1.0,phase_1,,,,,,,,,,,,,gray,square
101.0,2.0,1.0,0.0,4.0,4.0,342.9949106648564,3.0,1.0,phase_1,,,,,,,,,,,,,yellow,hexagon
179.0,7.0,2.0,1.0,4.0,4.0,362.9300203174352,3.0,1.0,phase_1,,,,,,,,,,,,,blue,I
64.0,1.0,0.5,0.0,4.0,4.0,351.1573653668165,3.0,1.0,phase_1,,,,,,,,,,,,,green,triangle
222.0,7.0,2.0,1.0,4.0,4.0,438.3139656856656,3.0,1.0,phase_1,,,,,,,,,,,,,blue,I
51.0,1.0,0.5,0.0,4.0,4.0,377.2229263558984,3.0,1.0,phase_1,,,,,,,,,,,,,green,triangle
0.0,8.0,0.0,1.0,4.0,4.0,343.8470335677266,3.0,1.0,phase_1,,,,,,,,,,,,,white,diamond
0.0,8.0,0.0,1.0,3.0,3.0,454.1371371597051,3.0,1.0,phase_1,,,,,,,,,,,,,white,diamond
113.0,2.0,1.0,0.0,1.0,1.0,337.8050979226827,3.0,1.0,phase_1,,,,,,,,,,,,,yellow,hexagon
220.0,3.0,2.0,0.0,4.0,4.0,334.5201062038541,3.0,1.0,phase_1,,,,,,,,,,,,,cyan,flipped triangle
121.0,2.0,1.0,0.0,1.0,1.0,356.1307834461331,3.0,1.0,phase_1,,,,,,,,,,,,,yellow,hexagon
73.0,5.0,0.5,1.0,1.0,1.0,372.6967247202992,4.0,1.0,phase_1,,,,,,,,,,,,,gray,square
201.0,7.0,2.0,1.0,1.0,1.0,425.088613294065,4.0,1.0,phase_1,,,,,,,,,,,,,blue,I
118.0,2.0,1.0,0.0,3.0,3.0,471.9530325382948,4.0,1.0,phase_1,,,,,,,,,,,,,yellow,hexagon
209.0,7.0,2.0,1.0,3.0,3.0,501.0963883250952,4.0,1.0,phase_1,,,,,,,,,,,,,blue,I
398.0,8.0,4.0,1.0,2.0,2.0,477.4183547124266,4.0,1.0,phase_1,,,,,,,,,,,,,white,diamond
217.0,7.0,2.0,1.0,4.0,4.0,325.5171971395612,4.0,1.0,phase_1,,,,,,,,,,,,,blue,I
405.0,8.0,4.0,1.0,1.0,1.0,417.6379488781094,4.0,1.0,phase_1,,,,,,,,,,,,,white,diamond
385.0,4.0,4.0,0.0,3.0,3.0,388.3960694074631,4.0,1.0,phase_1,,,,,,,,,,,,,orange,circle
381.0,4.0,4.0,0.0,2.0,2.0,377.625529654324,4.0,1.0,phase_1,,,,,,,,,,,,,orange,circle
0.0,6.0,0.0,1.0,2.0,2.0,405.6748878210783,4.0,1.0,phase_1,,,,,,,,,,,,,magenta,cross
179.0,3.0,2.0,0.0,3.0,3.0,402.6265330612659,4.0,1.0,phase_1,,,,,,,,,,,,,cyan,flipped triangle
183.0,7.0,2.0,1.0,2.0,2.0,398.3957916498184,4.0,1.0,phase_1,,,,,,,,,,,,,blue,I
121.0,6.0,1.0,1.0,2.0,2.0,373.4622364863753,4.0,1.0,phase_1,,,,,,,,,,,,,magenta,cross
0.0,5.0,0.0,1.0,1.0,1.0,385.766327381134,4.0,1.0,phase_1,,,,,,,,,,,,,gray,square
0.0,6.0,0.0,1.0,2.0,2.0,396.091103553772,4.0,1.0,phase_1,,,,,,,,,,,,,magenta,cross
90.0,6.0,1.0,1.0,3.0,3.0,395.6952877342701,4.0,1.0,phase_1,,,,,,,,,,,,,magenta,cross
0.0,7.0,0.0,1.0,4.0,4.0,425.6540676578879,4.0,1.0,phase_1,,,,,,,,,,,,,blue,I
0.0,8.0,0.0,1.0,2.0,2.0,394.956131465733,4.0,1.0,phase_1,,,,,,,,,,,,,white,diamond
26.0,5.0,0.5,1.0,3.0,3.0,370.4628627747297,4.0,1.0,phase_1,,,,,,,,,,,,,gray,square
380.0,4.0,4.0,0.0,1.0,1.0,555.9703782200813,4.0,1.0,phase_1,,,,,,,,,,,,,orange,circle
119.0,2.0,1.0,0.0,2.0,2.0,401.2583596631884,4.0,1.0,phase_1,,,,,,,,,,,,,yellow,hexagon
102.0,6.0,1.0,1.0,1.0,1.0,383.8660744950175,4.0,1.0,phase_1,,,,,,,,,,,,,magenta,cross
217.0,3.0,2.0,0.0,3.0,3.0,428.344783373177,4.0,1.0,phase_1,,,,,,,,,,,,,cyan,flipped triangle
71.0,5.0,0.5,1.0,3.0,3.0,327.2061869502067,4.0,1.0,phase_1,,,,,,,,,,,,,gray,square
191.0,3.0,2.0,0.0,1.0,1.0,483.8117826730013,4.0,1.0,phase_1,,,,,,,,,,,,,cyan,flipped triangle
0.0,1.0,0.0,0.0,2.0,2.0,351.7204923555255,4.0,1.0,phase_1,,,,,,,,,,,,,green,triangle
220.0,3.0,2.0,0.0,2.0,2.0,516.4855606853962,4.0,1.0,phase_1,,,,,,,,,,,,,cyan,flipped triangle
102.0,2.0,1.0,0.0,1.0,1.0,409.8159996792674,4.0,1.0,phase_1,,,,,,,,,,,,,yellow,hexagon
35.0,1.0,0.5,0.0,3.0,3.0,479.7109179198742,4.0,1.0,phase_1,,,,,,,,,,,,,green,triangle
36.0,5.0,0.5,1.0,1.0,1.0,525.2830209210515,4.0,1.0,phase_1,,,,,,,,,,,,,gray,square
33.0,5.0,0.5,1.0,2.0,2.0,354.5687785372138,4.0,1.0,phase_1,,,,,,,,,,,,,gray,square
0.0,7.0,0.0,1.0,2.0,2.0,437.0768154039979,4.0,1.0,phase_1,,,,,,,,,,,,,blue,I
48.0,5.0,0.5,1.0,4.0,4.0,408.8096767663955,4.0,1.0,phase_1,,,,,,,,,,,,,gray,square
217.0,7.0,2.0,1.0,1.0,1.0,463.3232476189732,4.0,1.0,phase_1,,,,,,,,,,,,,blue,I
42.0,1.0,0.5,0.0,1.0,1.0,378.2778037711978,4.0,1.0,phase_1,,,,,,,,,,,,,green,triangle
417.0,8.0,4.0,1.0,3.0,3.0,312.8282120451331,4.0,1.0,phase_1,,,,,,,,,,,,,white,diamond
79.0,2.0,1.0,0.0,1.0,1.0,268.3102358132601,4.0,1.0,phase_1,,,,,,,,,,,,,yellow,hexagon
46.0,5.0,0.5,1.0,2.0,2.0,489.9697164073586,4.0,1.0,phase_1,,,,,,,,,,,,,gray,square
400.0,8.0,4.0,1.0,4.0,4.0,309.6439335495233,4.0,1.0,phase_1,,,,,,,,,,,,,white,diamond
80.0,6.0,1.0,1.0,4.0,4.0,331.4970750361681,4.0,1.0,phase_1,,,,,,,,,,,,,magenta,cross
224.0,3.0,2.0,0.0,2.0,2.0,448.0152996256947,4.0,1.0,phase_1,,,,,,,,,,,,,cyan,flipped triangle
0.0,6.0,0.0,1.0,4.0,4.0,590.6611541286111,4.0,1.0,phase_1,,,,,,,,,,,,,magenta,cross
0.0,6.0,0.0,1.0,2.0,2.0,371.040933765471,4.0,1.0,phase_1,,,,,,,,,,,,,magenta,cross
423.0,4.0,4.0,0.0,2.0,2.0,365.7240271568298,4.0,1.0,phase_1,,,,,,,,,,,,,orange,circle
66.0,1.0,0.5,0.0,2.0,2.0,379.4551091268658,4.0,1.0,phase_1,,,,,,,,,,,,,green,triangle
0.0,5.0,0.0,1.0,1.0,1.0,470.2445706352591,4.0,1.0,phase_1,,,,,,,,,,,,,gray,square
176.0,3.0,2.0,0.0,1.0,1.0,380.4220855236053,4.0,1.0,phase_1,,,,,,,,,,,,,cyan,flipped triangle
77.0,6.0,1.0,1.0,1.0,1.0,439.1531534492969,4.0,1.0,phase_1,,,,,,,,,,,,,magenta,cross
118.0,6.0,1.0,1.0,4.0,4.0,404.3983900919556,4.0,1.0,phase_1,,,,,,,,,,,,,magenta,cross
201.0,3.0,2.0,0.0,2.0,2.0,545.48254981637,4.0,1.0,phase_1,,,,,,,,,,,,,cyan,flipped triangle
0.0,7.0,0.0,1.0,1.0,1.0,332.90786575526,4.0,1.0,phase_1,,,,,,,,,,,,,blue,I
0.0,8.0,0.0,1.0,2.0,2.0,381.2282541766763,4.0,1.0,phase_1,,,,,,,,,,,,,white,diamond
35.0,1.0,0.5,0.0,4.0,4.0,433.4814948961139,4.0,1.0,phase_1,,,,,,,,,,,,,green,triangle
409.0,4.0,4.0,0.0,2.0,2.0,407.0378318428993,4.0,1.0,phase_1,,,,,,,,,,,,,orange,circle
395.0,8.0,4.0,1.0,2.0,2.0,386.2971160560846,4.0,1.0,phase_1,,,,,,,,,,,,,white,diamond
0.0,7.0,0.0,1.0,2.0,2.0,390.1852844282985,4.0,1.0,phase_1,,,,,,,,,,,,,blue,I
416.0,8.0,4.0,1.0,3.0,3.0,370.085259899497,4.0,1.0,phase_1,,,,,,,,,,,,,white,diamond
178.0,7.0,2.0,1.0,1.0,1.0,336.65865752846,4.0,1.0,phase_1,,,,,,,,,,,,,blue,I
395.0,8.0,4.0,1.0,1.0,1.0,548.9994836971164,4.0,1.0,phase_1,,,,,,,,,,,,,white,diamond
382.0,8.0,4.0,1.0,2.0,2.0,504.4539337977767,4.0,1.0,phase_1,,,,,,,,,,,,,white,diamond
0.0,8.0,0.0,1.0,2.0,2.0,460.6099128723144,4.0,1.0,phase_1,,,,,,,,,,,,,white,diamond
98.0,2.0,1.0,0.0,4.0,4.0,402.9973847791552,4.0,1.0,phase_1,,,,,,,,,,,,,yellow,hexagon
399.0,4.0,4.0,0.0,3.0,3.0,477.4518804624676,4.0,1.0,phase_1,,,,,,,,,,,,,orange,circle
27.0,1.0,0.5,0.0,1.0,1.0,338.2008112967014,4.0,1.0,phase_1,,,,,,,,,,,,,green,triangle
220.0,7.0,2.0,1.0,1.0,1.0,448.4431380406022,4.0,1.0,phase_1,,,,,,,,,,,,,blue,I
177.0,3.0,2.0,0.0,1.0,1.0,349.9293467029929,4.0,1.0,phase_1,,,,,,,,,,,,,cyan,flipped triangle
66.0,5.0,0.5,1.0,3.0,3.0,380.0552748143673,4.0,1.0,phase_1,,,,,,,,,,,,,gray,square
0.0,3.0,0.0,0.0,1.0,1.0,359.3686632812023,4.0,1.0,phase_1,,,,,,,,,,,,,cyan,flipped triangle
178.0,3.0,2.0,0.0,4.0,4.0,331.0328936204314,4.0,1.0,phase_1,,,,,,,,,,,,,cyan,flipped triangle
188.0,7.0,2.0,1.0,3.0,3.0,497.3635012283921,4.0,1.0,phase_1,,,,,,,,,,,,,blue,I
222.0,3.0,2.0,0.0,2.0,2.0,475.3609532490372,4.0,1.0,phase_1,,,,,,,,,,,,,cyan,flipped triangle
99.0,6.0,1.0,1.0,4.0,4.0,378.4047681838274,4.0,1.0,phase_1,,,,,,,,,,,,,magenta,cross
420.0,8.0,4.0,1.0,1.0,1.0,421.40844836831087,4.0,1.0,phase_1,,,,,,,,,,,,,white,diamond
103.0,6.0,1.0,1.0,1.0,1.0,416.764298453927,4.0,1.0,phase_1,,,,,,,,,,,,,magenta,cross
0.0,4.0,0.0,0.0,1.0,1.0,431.7477308213711,4.0,1.0,phase_1,,,,,,,,,,,,,orange,circle
65.0,5.0,0.5,1.0,2.0,2.0,450.7333813235163,4.0,1.0,phase_1,,,,,,,,,,,,,gray,square
0.0,6.0,0.0,1.0,1.0,1.0,314.1773762181401,4.0,1.0,phase_1,,,,,,,,,,,,,magenta,cross
107.0,6.0,1.0,1.0,2.0,2.0,429.4226737692952,4.0,1.0,phase_1,,,,,,,,,,,,,magenta,cross
36.0,5.0,0.5,1.0,4.0,4.0,507.3564890772104,4.0,1.0,phase_1,,,,,,,,,,,,,gray,square
213.0,7.0,2.0,1.0,1.0,1.0,432.8174861148,4.0,1.0,phase_1,,,,,,,,,,,,,blue,I
181.0,3.0,2.0,0.0,4.0,4.0,460.3886064141989,4.0,1.0,phase_1,,,,,,,,,,,,,cyan,flipped triangle
201.0,7.0,2.0,1.0,2.0,2.0,449.80991166085,4.0,1.0,phase_1,,,,,,,,,,,,,blue,I
386.0,8.0,4.0,1.0,4.0,4.0,362.9622375592589,4.0,1.0,phase_1,,,,,,,,,,,,,white,diamond
113.0,6.0,1.0,1.0,3.0,3.0,424.7201513499021,4.0,1.0,phase_1,,,,,,,,,,,,,magenta,cross
195.0,7.0,2.0,1.0,2.0,2.0,608.3072079345584,4.0,1.0,phase_1,,,,,,,,,,,,,blue,I
64.0,1.0,0.5,0.0,1.0,1.0,546.1319843307137,4.0,1.0,phase_1,,,,,,,,,,,,,green,triangle
414.0,4.0,4.0,0.0,3.0,3.0,517.713057808578,4.0,1.0,phase_1,,,,,,,,,,,,,orange,circle
417.0,4.0,4.0,0.0,4.0,4.0,468.4690665453672,4.0,1.0,phase_1,,,,,,,,,,,,,orange,circle
414.0,8.0,4.0,1.0,3.0,3.0,394.5065904408693,4.0,1.0,phase_1,,,,,,,,,,,,,white,diamond
119.0,6.0,1.0,1.0,2.0,2.0,343.320700339973,4.0,1.0,phase_1,,,,,,,,,,,,,magenta,cross
409.0,8.0,4.0,1.0,2.0,2.0,338.1777852773666,4.0,1.0,phase_1,,,,,,,,,,,,,white,diamond
0.0,1.0,0.0,0.0,3.0,3.0,502.5712102651596,4.0,1.0,phase_1,,,,,,,,,,,,,green,triangle
98.0,2.0,1.0,0.0,1.0,1.0,540.5943915247917,4.0,1.0,phase_1,,,,,,,,,,,,,yellow,hexagon
48.0,1.0,0.5,0.0,4.0,4.0,360.6896242126822,4.0,1.0,phase_1,,,,,,,,,,,,,green,triangle
55.0,1.0,0.5,0.0,2.0,2.0,380.379986949265,4.0,1.0,phase_1,,,,,,,,,,,,,green,triangle
0.0,2.0,0.0,0.0,4.0,4.0,388.1678357720375,4.0,1.0,phase_1,,,,,,,,,,,,,yellow,hexagon
55.0,5.0,0.5,1.0,4.0,4.0,325.9232742711901,4.0,1.0,phase_1,,,,,,,,,,,,,gray,square
195.0,3.0,2.0,0.0,3.0,3.0,404.867478646338,4.0,1.0,phase_1,,,,,,,,,,,,,cyan,flipped triangle
377.0,8.0,4.0,1.0,4.0,4.0,350.6776597350836,4.0,1.0,phase_1,,,,,,,,,,,,,white,diamond
380.0,4.0,4.0,0.0,2.0,2.0,350.0306624919176,4.0,1.0,phase_1,,,,,,,,,,,,,orange,circle
0.0,6.0,1.0,1.0,6.0,6.0,868.5097750276327,1.0,1.0,phase_2,go,250.0,250.0,1.0,,,,,,,,,magenta,cross
0.0,4.0,4.0,0.0,5.0,5.0,313.573912717402,1.0,1.0,phase_2,go,250.0,250.0,1.0,,,,,,,,,orange,circle
0.0,5.0,0.5,1.0,5.0,5.0,509.692276827991,1.0,1.0,phase_2,stop,250.0,250.0,3.0,,,,,,,,,gray,square
0.0,3.0,2.0,0.0,6.0,6.0,337.9442607983947,1.0,1.0,phase_2,go,200.0,250.0,1.0,,,,,,,,,cyan,flipped triangle
0.0,3.0,2.0,0.0,5.0,5.0,583.5433704778552,1.0,1.0,phase_2,go,200.0,250.0,1.0,,,,,,,,,cyan,flipped triangle
0.0,4.0,4.0,0.0,6.0,6.0,486.8585150688886,1.0,1.0,phase_2,go,200.0,250.0,1.0,,,,,,,,,orange,circle
0.0,4.0,4.0,0.0,5.0,5.0,534.2687964439392,1.0,1.0,phase_2,go,200.0,250.0,1.0,,,,,,,,,orange,circle
0.0,1.0,0.5,0.0,6.0,6.0,381.7944936454296,1.0,1.0,phase_2,go,200.0,250.0,1.0,,,,,,,,,green,triangle
0.0,2.0,1.0,0.0,5.0,5.0,390.222305431962,1.0,1.0,phase_2,go,200.0,250.0,1.0,,,,,,,,,yellow,hexagon
0.0,3.0,2.0,0.0,6.0,6.0,500.74176024645567,1.0,1.0,phase_2,go,200.0,250.0,1.0,,,,,,,,,cyan,flipped triangle
0.0,1.0,0.5,0.0,5.0,5.0,334.3435628339648,1.0,1.0,phase_2,go,200.0,250.0,1.0,,,,,,,,,green,triangle
0.0,2.0,1.0,0.0,6.0,6.0,663.0034670233727,1.0,1.0,phase_2,go,200.0,250.0,1.0,,,,,,,,,yellow,hexagon
0.0,6.0,1.0,1.0,6.0,6.0,398.6830422654748,1.0,1.0,phase_2,stop,200.0,250.0,3.0,,,,,,,,,magenta,cross
0.0,5.0,0.5,1.0,5.0,5.0,485.9730703756213,1.0,1.0,phase_2,stop,200.0,200.0,3.0,,,,,,,,,gray,square
0.0,5.0,0.5,1.0,5.0,5.0,659.7195584326982,1.0,1.0,phase_2,go,150.0,200.0,1.0,,,,,,,,,gray,square
0.0,3.0,2.0,0.0,6.0,6.0,676.2567041441798,1.0,1.0,phase_2,go,150.0,200.0,1.0,,,,,,,,,cyan,flipped triangle
0.0,5.0,0.5,1.0,5.0,0.0,0.0,1.0,1.0,phase_2,stop,150.0,200.0,4.0,,,,,,,,,gray,square
0.0,2.0,1.0,0.0,6.0,6.0,538.7517055496573,1.0,1.0,phase_2,go,200.0,200.0,1.0,,,,,,,,,yellow,hexagon
0.0,1.0,0.5,0.0,6.0,6.0,794.9961079284549,1.0,1.0,phase_2,go,200.0,200.0,1.0,,,,,,,,,green,triangle
0.0,8.0,4.0,1.0,6.0,0.0,0.0,1.0,1.0,phase_2,stop,200.0,200.0,4.0,,,,,,,,,white,diamond
0.0,4.0,4.0,0.0,6.0,6.0,561.9813101366162,1.0,1.0,phase_2,go,200.0,250.0,1.0,,,,,,,,,orange,circle
0.0,2.0,1.0,0.0,6.0,6.0,496.5536007657647,1.0,1.0,phase_2,go,200.0,250.0,1.0,,,,,,,,,yellow,hexagon
0.0,2.0,1.0,0.0,6.0,6.0,646.138490177691,1.0,1.0,phase_2,go,200.0,250.0,1.0,,,,,,,,,yellow,hexagon
0.0,5.0,0.5,1.0,5.0,0.0,0.0,1.0,1.0,phase_2,stop,200.0,250.0,4.0,,,,,,,,,gray,square
0.0,6.0,1.0,1.0,6.0,0.0,0.0,1.0,1.0,phase_2,stop,250.0,250.0,4.0,,,,,,,,,magenta,cross
0.0,7.0,2.0,1.0,5.0,0.0,0.0,1.0,1.0,phase_2,stop,250.0,300.0,4.0,,,,,,,,,blue,I
0.0,4.0,4.0,0.0,6.0,6.0,702.2767085582018,1.0,1.0,phase_2,go,300.0,300.0,1.0,,,,,,,,,orange,circle
0.0,5.0,0.5,1.0,5.0,0.0,0.0,1.0,1.0,phase_2,stop,300.0,300.0,4.0,,,,,,,,,gray,square
0.0,7.0,2.0,1.0,6.0,0.0,0.0,1.0,1.0,phase_2,stop,350.0,300.0,4.0,,,,,,,,,blue,I
0.0,2.0,1.0,0.0,6.0,6.0,962.7768220379947,1.0,1.0,phase_2,go,350.0,350.0,1.0,,,,,,,,,yellow,hexagon
0.0,2.0,1.0,0.0,6.0,6.0,762.8699503839016,1.0,1.0,phase_2,go,350.0,350.0,1.0,,,,,,,,,yellow,hexagon
0.0,8.0,4.0,1.0,5.0,0.0,0.0,1.0,1.0,phase_2,stop,350.0,350.0,4.0,,,,,,,,,white,diamond
0.0,4.0,4.0,0.0,6.0,6.0,704.2045053094625,1.0,1.0,phase_2,go,400.0,350.0,1.0,,,,,,,,,orange,circle
0.0,8.0,4.0,1.0,6.0,6.0,791.6533509269357,1.0,1.0,phase_2,go,400.0,350.0,1.0,,,,,,,,,white,diamond
0.0,6.0,1.0,1.0,6.0,0.0,0.0,1.0,1.0,phase_2,stop,400.0,350.0,4.0,,,,,,,,,magenta,cross
0.0,8.0,4.0,1.0,5.0,0.0,0.0,1.0,1.0,phase_2,stop,400.0,400.0,4.0,,,,,,,,,white,diamond
0.0,2.0,1.0,0.0,5.0,5.0,869.1605189815164,2.0,1.0,phase_2,go,450.0,400.0,1.0,,,,,,,,,yellow,hexagon
0.0,4.0,4.0,0.0,6.0,6.0,274.1460083052516,2.0,1.0,phase_2,go,450.0,400.0,1.0,,,,,,,,,orange,circle
0.0,8.0,4.0,1.0,5.0,5.0,426.7682265490293,2.0,1.0,phase_2,stop,450.0,400.0,3.0,,,,,,,,,white,diamond
0.0,4.0,4.0,0.0,5.0,5.0,651.7987251281738,2.0,1.0,phase_2,go,400.0,400.0,1.0,,,,,,,,,orange,circle
0.0,4.0,4.0,0.0,5.0,5.0,671.7690788209438,2.0,1.0,phase_2,go,400.0,400.0,1.0,,,,,,,,,orange,circle
0.0,6.0,1.0,1.0,6.0,6.0,463.2499506697058,2.0,1.0,phase_2,go,400.0,400.0,1.0,,,,,,,,,magenta,cross
0.0,1.0,0.5,0.0,5.0,5.0,647.1776813268661,2.0,1.0,phase_2,go,400.0,400.0,1.0,,,,,,,,,green,triangle
0.0,2.0,1.0,0.0,5.0,5.0,688.6921692639589,2.0,1.0,phase_2,go,400.0,400.0,1.0,,,,,,,,,yellow,hexagon
0.0,1.0,0.5,0.0,6.0,6.0,519.481623545289,2.0,1.0,phase_2,go,400.0,400.0,1.0,,,,,,,,,green,triangle
0.0,7.0,2.0,1.0,6.0,0.0,0.0,2.0,1.0,phase_2,stop,400.0,400.0,4.0,,,,,,,,,blue,I
0.0,3.0,2.0,0.0,5.0,5.0,750.6884429603815,2.0,1.0,phase_2,go,400.0,450.0,1.0,,,,,,,,,cyan,flipped triangle
0.0,8.0,4.0,1.0,6.0,0.0,0.0,2.0,1.0,phase_2,stop,400.0,450.0,4.0,,,,,,,,,white,diamond
0.0,1.0,0.5,0.0,6.0,6.0,651.7556300386786,2.0,1.0,phase_2,go,400.0,500.0,1.0,,,,,,,,,green,triangle
0.0,6.0,1.0,1.0,5.0,0.0,0.0,2.0,1.0,phase_2,stop,400.0,500.0,4.0,,,,,,,,,magenta,cross
0.0,4.0,4.0,0.0,5.0,5.0,709.7115721553564,2.0,1.0,phase_2,go,450.0,500.0,1.0,,,,,,,,,orange,circle
0.0,2.0,1.0,0.0,5.0,5.0,634.9778734147549,2.0,1.0,phase_2,go,450.0,500.0,1.0,,,,,,,,,yellow,hexagon
0.0,1.0,0.5,0.0,5.0,5.0,416.967268101871,2.0,1.0,phase_2,go,450.0,500.0,1.0,,,,,,,,,green,triangle
0.0,3.0,2.0,0.0,6.0,6.0,544.7875708341599,2.0,1.0,phase_2,go,450.0,500.0,1.0,,,,,,,,,cyan,flipped triangle
0.0,4.0,4.0,0.0,6.0,6.0,578.6673491820693,2.0,1.0,phase_2,go,450.0,500.0,1.0,,,,,,,,,orange,circle
0.0,3.0,2.0,0.0,5.0,5.0,627.6339264586568,2.0,1.0,phase_2,go,450.0,500.0,1.0,,,,,,,,,cyan,flipped triangle
0.0,1.0,0.5,0.0,6.0,6.0,825.6581760942936,2.0,1.0,phase_2,go,450.0,500.0,1.0,,,,,,,,,green,triangle
0.0,2.0,1.0,0.0,5.0,5.0,750.406845472753,2.0,1.0,phase_2,go,450.0,500.0,1.0,,,,,,,,,yellow,hexagon
0.0,5.0,0.5,1.0,5.0,0.0,0.0,2.0,1.0,phase_2,stop,450.0,500.0,4.0,,,,,,,,,gray,square
0.0,6.0,1.0,1.0,6.0,0.0,0.0,2.0,1.0,phase_2,stop,500.0,500.0,4.0,,,,,,,,,magenta,cross
0.0,6.0,1.0,1.0,5.0,5.0,846.7502379789948,2.0,1.0,phase_2,go,500.0,550.0,1.0,,,,,,,,,magenta,cross
0.0,5.0,0.5,1.0,5.0,0.0,0.0,2.0,1.0,phase_2,stop,500.0,550.0,4.0,,,,,,,,,gray,square
0.0,6.0,1.0,1.0,5.0,0.0,0.0,2.0,1.0,phase_2,stop,550.0,550.0,4.0,,,,,,,,,magenta,cross
0.0,3.0,2.0,0.0,5.0,5.0,645.2777702361345,2.0,1.0,phase_2,go,600.0,550.0,1.0,,,,,,,,,cyan,flipped triangle
0.0,2.0,1.0,0.0,5.0,5.0,933.7187288329004,2.0,1.0,phase_2,go,600.0,550.0,1.0,,,,,,,,,yellow,hexagon
0.0,3.0,2.0,0.0,6.0,6.0,909.540006890893,2.0,1.0,phase_2,go,600.0,550.0,1.0,,,,,,,,,cyan,flipped triangle
0.0,1.0,0.5,0.0,5.0,5.0,763.8525776565075,2.0,1.0,phase_2,go,600.0,550.0,1.0,,,,,,,,,green,triangle
0.0,5.0,0.5,1.0,6.0,6.0,760.9737003222108,2.0,1.0,phase_2,go,600.0,550.0,1.0,,,,,,,,,gray,square
0.0,6.0,1.0,1.0,5.0,5.0,491.4029669016599,2.0,1.0,phase_2,stop,600.0,550.0,3.0,,,,,,,,,magenta,cross
0.0,5.0,0.5,1.0,5.0,5.0,1033.9288944378495,2.0,1.0,phase_2,go,550.0,550.0,1.0,,,,,,,,,gray,square
0.0,7.0,2.0,1.0,6.0,6.0,572.4848406389356,2.0,1.0,phase_2,stop,550.0,550.0,3.0,,,,,,,,,blue,I
0.0,2.0,1.0,0.0,6.0,6.0,880.877036601305,2.0,1.0,phase_2,go,550.0,500.0,1.0,,,,,,,,,yellow,hexagon
0.0,7.0,2.0,1.0,5.0,5.0,580.8660322800279,3.0,1.0,phase_2,go,550.0,500.0,1.0,,,,,,,,,blue,I
0.0,4.0,4.0,0.0,5.0,5.0,445.1375091448426,3.0,1.0,phase_2,go,550.0,500.0,1.0,,,,,,,,,orange,circle
0.0,3.0,2.0,0.0,6.0,6.0,338.4369853883981,3.0,1.0,phase_2,go,550.0,500.0,1.0,,,,,,,,,cyan,flipped triangle
0.0,2.0,1.0,0.0,6.0,6.0,555.0711480900645,3.0,1.0,phase_2,go,550.0,500.0,1.0,,,,,,,,,yellow,hexagon
0.0,7.0,2.0,1.0,6.0,6.0,329.8297543078661,3.0,1.0,phase_2,stop,550.0,500.0,3.0,,,,,,,,,blue,I
0.0,3.0,2.0,0.0,5.0,5.0,586.6947518661618,3.0,1.0,phase_2,go,550.0,450.0,1.0,,,,,,,,,cyan,flipped triangle
0.0,6.0,1.0,1.0,6.0,6.0,497.4050521850586,3.0,1.0,phase_2,stop,550.0,450.0,3.0,,,,,,,,,magenta,cross
0.0,2.0,1.0,0.0,5.0,5.0,704.0821434929967,3.0,1.0,phase_2,go,550.0,400.0,1.0,,,,,,,,,yellow,hexagon
0.0,5.0,0.5,1.0,6.0,6.0,417.5074286758899,3.0,1.0,phase_2,go,550.0,400.0,1.0,,,,,,,,,gray,square
0.0,1.0,0.5,0.0,5.0,5.0,735.0297113880515,3.0,1.0,phase_2,go,550.0,400.0,1.0,,,,,,,,,green,triangle
0.0,2.0,1.0,0.0,5.0,5.0,454.9152785912156,3.0,1.0,phase_2,go,550.0,400.0,1.0,,,,,,,,,yellow,hexagon
0.0,1.0,0.5,0.0,5.0,5.0,704.6200595796108,3.0,1.0,phase_2,go,550.0,400.0,1.0,,,,,,,,,green,triangle
0.0,3.0,2.0,0.0,6.0,6.0,695.9991166368127,3.0,1.0,phase_2,go,550.0,400.0,1.0,,,,,,,,,cyan,flipped triangle
0.0,2.0,1.0,0.0,6.0,6.0,483.5527343675494,3.0,1.0,phase_2,go,550.0,400.0,1.0,,,,,,,,,yellow,hexagon
0.0,1.0,0.5,0.0,5.0,5.0,691.2867035716772,3.0,1.0,phase_2,go,550.0,400.0,1.0,,,,,,,,,green,triangle
0.0,8.0,4.0,1.0,6.0,6.0,578.2952690497041,3.0,1.0,phase_2,stop,550.0,400.0,3.0,,,,,,,,,white,diamond
0.0,7.0,2.0,1.0,6.0,0.0,0.0,3.0,1.0,phase_2,stop,550.0,350.0,4.0,,,,,,,,,blue,I
0.0,5.0,0.5,1.0,6.0,6.0,593.8889626413584,3.0,1.0,phase_2,stop,550.0,400.0,3.0,,,,,,,,,gray,square
0.0,6.0,1.0,1.0,6.0,0.0,0.0,3.0,1.0,phase_2,go,550.0,350.0,5.0,,,,,,,,,magenta,cross
0.0,6.0,1.0,1.0,6.0,0.0,0.0,3.0,1.0,phase_2,stop,550.0,350.0,4.0,,,,,,,,,magenta,cross
0.0,5.0,0.5,1.0,6.0,0.0,0.0,3.0,1.0,phase_2,stop,550.0,400.0,4.0,,,,,,,,,gray,square
0.0,3.0,2.0,0.0,5.0,5.0,425.1704532653093,3.0,1.0,phase_2,go,550.0,450.0,1.0,,,,,,,,,cyan,flipped triangle
0.0,6.0,1.0,1.0,6.0,0.0,0.0,3.0,1.0,phase_2,stop,550.0,450.0,4.0,,,,,,,,,magenta,cross
0.0,8.0,4.0,1.0,5.0,5.0,454.3680511415005,3.0,1.0,phase_2,go,550.0,500.0,1.0,,,,,,,,,white,diamond
0.0,6.0,1.0,1.0,6.0,0.0,0.0,3.0,1.0,phase_2,stop,550.0,500.0,4.0,,,,,,,,,magenta,cross
0.0,2.0,1.0,0.0,5.0,5.0,670.7545770332217,3.0,1.0,phase_2,go,550.0,550.0,1.0,,,,,,,,,yellow,hexagon
0.0,7.0,2.0,1.0,5.0,0.0,0.0,3.0,1.0,phase_2,stop,550.0,550.0,4.0,,,,,,,,,blue,I
0.0,4.0,4.0,0.0,6.0,6.0,799.1714738309383,3.0,1.0,phase_2,go,600.0,550.0,1.0,,,,,,,,,orange,circle
0.0,8.0,4.0,1.0,5.0,5.0,691.3892757147551,3.0,1.0,phase_2,stop,600.0,550.0,3.0,,,,,,,,,white,diamond
0.0,6.0,1.0,1.0,6.0,0.0,0.0,3.0,1.0,phase_2,stop,550.0,550.0,4.0,,,,,,,,,magenta,cross
0.0,3.0,2.0,0.0,6.0,6.0,834.7148271277547,3.0,1.0,phase_2,go,550.0,600.0,1.0,,,,,,,,,cyan,flipped triangle
0.0,8.0,4.0,1.0,6.0,6.0,1269.693924114108,3.0,1.0,phase_2,go,550.0,600.0,1.0,,,,,,,,,white,diamond
0.0,7.0,2.0,1.0,6.0,0.0,0.0,3.0,1.0,phase_2,stop,550.0,600.0,4.0,,,,,,,,,blue,I
0.0,8.0,4.0,1.0,6.0,0.0,0.0,3.0,1.0,phase_2,stop,550.0,650.0,4.0,,,,,,,,,white,diamond
0.0,3.0,2.0,0.0,5.0,5.0,665.8973461017013,3.0,1.0,phase_2,go,550.0,700.0,1.0,,,,,,,,,cyan,flipped triangle
0.0,8.0,4.0,1.0,5.0,0.0,0.0,3.0,1.0,phase_2,stop,550.0,700.0,4.0,,,,,,,,,white,diamond
0.0,4.0,4.0,0.0,6.0,6.0,667.0826403424144,4.0,1.0,phase_2,go,600.0,700.0,1.0,,,,,,,,,orange,circle
0.0,2.0,1.0,0.0,6.0,6.0,313.2600160315633,4.0,1.0,phase_2,go,600.0,700.0,1.0,,,,,,,,,yellow,hexagon
0.0,6.0,1.0,1.0,5.0,5.0,631.1012571677566,4.0,1.0,phase_2,stop,600.0,700.0,3.0,,,,,,,,,magenta,cross
0.0,4.0,4.0,0.0,6.0,6.0,711.8634842336178,4.0,1.0,phase_2,go,550.0,700.0,1.0,,,,,,,,,orange,circle
0.0,5.0,0.5,1.0,5.0,0.0,0.0,4.0,1.0,phase_2,stop,550.0,700.0,4.0,,,,,,,,,gray,square
0.0,5.0,0.5,1.0,6.0,6.0,612.4221477657557,4.0,1.0,phase_2,go,600.0,700.0,1.0,,,,,,,,,gray,square
0.0,3.0,2.0,0.0,5.0,5.0,1143.7579039484262,4.0,1.0,phase_2,go,600.0,700.0,1.0,,,,,,,,,cyan,flipped triangle
0.0,1.0,0.5,0.0,6.0,6.0,447.4393045529723,4.0,1.0,phase_2,go,600.0,700.0,1.0,,,,,,,,,green,triangle
0.0,7.0,2.0,1.0,5.0,5.0,475.6909282878041,4.0,1.0,phase_2,stop,600.0,700.0,3.0,,,,,,,,,blue,I
0.0,7.0,2.0,1.0,5.0,0.0,0.0,4.0,1.0,phase_2,stop,550.0,700.0,4.0,,,,,,,,,blue,I
0.0,3.0,2.0,0.0,5.0,5.0,853.5229116678238,4.0,1.0,phase_2,go,600.0,700.0,1.0,,,,,,,,,cyan,flipped triangle
0.0,3.0,2.0,0.0,6.0,6.0,813.9096088707447,4.0,1.0,phase_2,go,600.0,700.0,1.0,,,,,,,,,cyan,flipped triangle
0.0,3.0,2.0,0.0,5.0,5.0,826.3546116650105,4.0,1.0,phase_2,go,600.0,700.0,1.0,,,,,,,,,cyan,flipped triangle
0.0,1.0,0.5,0.0,6.0,6.0,953.5558698698878,4.0,1.0,phase_2,go,600.0,700.0,1.0,,,,,,,,,green,triangle
0.0,7.0,2.0,1.0,5.0,0.0,0.0,4.0,1.0,phase_2,stop,600.0,700.0,4.0,,,,,,,,,blue,I
0.0,7.0,2.0,1.0,6.0,6.0,409.1054210439324,4.0,1.0,phase_2,stop,650.0,700.0,3.0,,,,,,,,,blue,I
0.0,6.0,1.0,1.0,6.0,0.0,0.0,4.0,1.0,phase_2,stop,650.0,650.0,4.0,,,,,,,,,magenta,cross
0.0,4.0,4.0,0.0,6.0,6.0,1065.7629249617455,4.0,1.0,phase_2,go,650.0,700.0,1.0,,,,,,,,,orange,circle
0.0,7.0,2.0,1.0,5.0,5.0,1209.944225847721,4.0,1.0,phase_2,go,650.0,700.0,1.0,,,,,,,,,blue,I
0.0,6.0,1.0,1.0,6.0,6.0,449.3705779314041,4.0,1.0,phase_2,stop,650.0,700.0,3.0,,,,,,,,,magenta,cross
0.0,5.0,0.5,1.0,5.0,5.0,1087.3032733798027,4.0,1.0,phase_2,go,650.0,650.0,1.0,,,,,,,,,gray,square
0.0,8.0,4.0,1.0,6.0,6.0,575.0620383769274,4.0,1.0,phase_2,stop,650.0,650.0,3.0,,,,,,,,,white,diamond
0.0,6.0,1.0,1.0,5.0,0.0,0.0,4.0,1.0,phase_2,stop,650.0,600.0,4.0,,,,,,,,,magenta,cross
0.0,2.0,1.0,0.0,6.0,6.0,899.3232389912009,4.0,1.0,phase_2,go,700.0,600.0,1.0,,,,,,,,,yellow,hexagon
0.0,7.0,2.0,1.0,5.0,0.0,0.0,4.0,1.0,phase_2,stop,700.0,600.0,4.0,,,,,,,,,blue,I
0.0,8.0,4.0,1.0,6.0,0.0,0.0,4.0,1.0,phase_2,stop,750.0,600.0,4.0,,,,,,,,,white,diamond
0.0,7.0,2.0,1.0,6.0,6.0,801.7618786543608,4.0,1.0,phase_2,stop,750.0,650.0,3.0,,,,,,,,,blue,I
0.0,2.0,1.0,0.0,5.0,5.0,733.1509348005056,4.0,1.0,phase_2,go,750.0,600.0,1.0,,,,,,,,,yellow,hexagon
0.0,7.0,2.0,1.0,5.0,0.0,0.0,4.0,1.0,phase_2,stop,750.0,600.0,4.0,,,,,,,,,blue,I
0.0,6.0,1.0,1.0,5.0,0.0,0.0,4.0,1.0,phase_2,stop,800.0,600.0,4.0,,,,,,,,,magenta,cross
0.0,8.0,4.0,1.0,6.0,0.0,0.0,4.0,1.0,phase_2,stop,850.0,600.0,4.0,,,,,,,,,white,diamond
0.0,2.0,1.0,0.0,5.0,5.0,1263.605055399239,4.0,1.0,phase_2,go,850.0,650.0,1.0,,,,,,,,,yellow,hexagon
0.0,7.0,2.0,1.0,5.0,5.0,1256.0571730136871,4.0,1.0,phase_2,go,850.0,650.0,1.0,,,,,,,,,blue,I
0.0,8.0,4.0,1.0,6.0,0.0,0.0,4.0,1.0,phase_2,stop,850.0,650.0,4.0,,,,,,,,,white,diamond
0.0,4.0,4.0,0.0,6.0,6.0,1109.101040288806,4.0,1.0,phase_2,go,850.0,700.0,1.0,,,,,,,,,orange,circle
0.0,3.0,2.0,0.0,5.0,5.0,943.2686259970068,4.0,1.0,phase_2,go,850.0,700.0,1.0,,,,,,,,,cyan,flipped triangle
0.0,8.0,4.0,1.0,6.0,6.0,781.7464778199792,5.0,1.0,phase_2,stop,850.0,700.0,3.0,,,,,,,,,white,diamond
0.0,3.0,2.0,0.0,6.0,6.0,407.1416119113564,5.0,1.0,phase_2,go,850.0,650.0,1.0,,,,,,,,,cyan,flipped triangle
0.0,8.0,4.0,1.0,5.0,5.0,350.9994084015488,5.0,1.0,phase_2,go,850.0,650.0,1.0,,,,,,,,,white,diamond
0.0,4.0,4.0,0.0,6.0,6.0,303.7744015455246,5.0,1.0,phase_2,go,850.0,650.0,1.0,,,,,,,,,orange,circle
0.0,6.0,1.0,1.0,6.0,6.0,366.4657762274146,5.0,1.0,phase_2,stop,850.0,650.0,3.0,,,,,,,,,magenta,cross
0.0,6.0,1.0,1.0,5.0,5.0,845.6118451431394,5.0,1.0,phase_2,stop,850.0,600.0,3.0,,,,,,,,,magenta,cross
0.0,4.0,4.0,0.0,6.0,6.0,796.9356067478657,5.0,1.0,phase_2,go,800.0,600.0,1.0,,,,,,,,,orange,circle
0.0,3.0,2.0,0.0,6.0,6.0,1059.2550048604608,5.0,1.0,phase_2,go,800.0,600.0,1.0,,,,,,,,,cyan,flipped triangle
0.0,5.0,0.5,1.0,6.0,0.0,0.0,5.0,1.0,phase_2,stop,800.0,600.0,4.0,,,,,,,,,gray,square
0.0,5.0,0.5,1.0,6.0,0.0,0.0,5.0,1.0,phase_2,stop,800.0,650.0,4.0,,,,,,,,,gray,square
0.0,7.0,2.0,1.0,5.0,5.0,916.1050859838724,5.0,1.0,phase_2,stop,800.0,700.0,3.0,,,,,,,,,blue,I
0.0,6.0,1.0,1.0,5.0,5.0,1323.13213031739,5.0,1.0,phase_2,go,750.0,700.0,1.0,,,,,,,,,magenta,cross
0.0,8.0,4.0,1.0,5.0,5.0,1431.1800468713043,5.0,1.0,phase_2,go,750.0,700.0,1.0,,,,,,,,,white,diamond
0.0,1.0,0.5,0.0,6.0,6.0,1264.388719573617,5.0,1.0,phase_2,go,750.0,700.0,1.0,,,,,,,,,green,triangle
0.0,6.0,1.0,1.0,5.0,5.0,1270.4411633312702,5.0,1.0,phase_2,go,750.0,700.0,1.0,,,,,,,,,magenta,cross
0.0,3.0,2.0,0.0,5.0,5.0,641.3234416395426,5.0,1.0,phase_2,go,750.0,700.0,1.0,,,,,,,,,cyan,flipped triangle
0.0,8.0,4.0,1.0,5.0,0.0,0.0,5.0,1.0,phase_2,stop,750.0,700.0,4.0,,,,,,,,,white,diamond
0.0,7.0,2.0,1.0,6.0,6.0,1108.9801536872983,5.0,1.0,phase_2,go,800.0,700.0,1.0,,,,,,,,,blue,I
0.0,7.0,2.0,1.0,5.0,0.0,0.0,5.0,1.0,phase_2,stop,800.0,700.0,4.0,,,,,,,,,blue,I
0.0,8.0,4.0,1.0,6.0,0.0,0.0,5.0,1.0,phase_2,stop,850.0,700.0,4.0,,,,,,,,,white,diamond
0.0,4.0,4.0,0.0,6.0,6.0,842.3261446878314,5.0,1.0,phase_2,go,850.0,750.0,1.0,,,,,,,,,orange,circle
0.0,5.0,0.5,1.0,6.0,0.0,0.0,5.0,1.0,phase_2,stop,850.0,750.0,4.0,,,,,,,,,gray,square
0.0,4.0,4.0,0.0,5.0,5.0,963.464768603444,5.0,1.0,phase_2,go,850.0,800.0,1.0,,,,,,,,,orange,circle
0.0,2.0,1.0,0.0,5.0,5.0,1041.8186848983169,5.0,1.0,phase_2,go,850.0,800.0,1.0,,,,,,,,,yellow,hexagon
0.0,5.0,0.5,1.0,5.0,5.0,692.6761465147138,5.0,1.0,phase_2,stop,850.0,800.0,3.0,,,,,,,,,gray,square
0.0,5.0,0.5,1.0,5.0,5.0,1147.8347480297089,5.0,1.0,phase_2,go,800.0,800.0,1.0,,,,,,,,,gray,square
0.0,7.0,2.0,1.0,5.0,0.0,0.0,5.0,1.0,phase_2,stop,800.0,800.0,4.0,,,,,,,,,blue,I
0.0,1.0,0.5,0.0,5.0,5.0,1232.842807658017,5.0,1.0,phase_2,go,850.0,800.0,1.0,,,,,,,,,green,triangle
0.0,1.0,0.5,0.0,5.0,5.0,1137.235889211297,5.0,1.0,phase_2,go,850.0,800.0,1.0,,,,,,,,,green,triangle
0.0,8.0,4.0,1.0,5.0,5.0,885.5451475828886,5.0,1.0,phase_2,stop,850.0,800.0,3.0,,,,,,,,,white,diamond
0.0,8.0,4.0,1.0,5.0,5.0,879.2373919859529,5.0,1.0,phase_2,go,800.0,800.0,1.0,,,,,,,,,white,diamond
0.0,2.0,1.0,0.0,6.0,6.0,901.3686673715712,5.0,1.0,phase_2,go,800.0,800.0,1.0,,,,,,,,,yellow,hexagon
0.0,1.0,0.5,0.0,5.0,5.0,1372.7804413065314,5.0,1.0,phase_2,go,800.0,800.0,1.0,,,,,,,,,green,triangle
0.0,6.0,1.0,1.0,5.0,0.0,0.0,5.0,1.0,phase_2,stop,800.0,800.0,4.0,,,,,,,,,magenta,cross
0.0,7.0,2.0,1.0,6.0,6.0,610.6527401134372,5.0,1.0,phase_2,stop,850.0,800.0,3.0,,,,,,,,,blue,I
0.0,6.0,1.0,1.0,5.0,0.0,0.0,5.0,1.0,phase_2,stop,850.0,750.0,4.0,,,,,,,,,magenta,cross
0.0,6.0,1.0,1.0,5.0,5.0,463.4983278810978,6.0,1.0,phase_2,go,900.0,750.0,1.0,,,,,,,,,magenta,cross
0.0,6.0,1.0,1.0,5.0,5.0,356.3706548884511,6.0,1.0,phase_2,stop,900.0,750.0,3.0,,,,,,,,,magenta,cross
0.0,8.0,4.0,1.0,6.0,6.0,558.1699227914214,6.0,1.0,phase_2,stop,850.0,750.0,3.0,,,,,,,,,white,diamond
0.0,5.0,0.5,1.0,6.0,6.0,797.4239448085427,6.0,1.0,phase_2,go,850.0,700.0,1.0,,,,,,,,,gray,square
0.0,7.0,2.0,1.0,5.0,5.0,501.0722279548645,6.0,1.0,phase_2,stop,850.0,700.0,3.0,,,,,,,,,blue,I
0.0,7.0,2.0,1.0,5.0,5.0,658.7503207847476,6.0,1.0,phase_2,stop,800.0,700.0,3.0,,,,,,,,,blue,I
0.0,3.0,2.0,0.0,6.0,6.0,658.7386438623071,6.0,1.0,phase_2,go,750.0,700.0,1.0,,,,,,,,,cyan,flipped triangle
0.0,3.0,2.0,0.0,6.0,6.0,882.0415735244751,6.0,1.0,phase_2,go,750.0,700.0,1.0,,,,,,,,,cyan,flipped triangle
0.0,4.0,4.0,0.0,5.0,5.0,996.3894914835691,6.0,1.0,phase_2,go,750.0,700.0,1.0,,,,,,,,,orange,circle
0.0,6.0,1.0,1.0,5.0,5.0,778.2242791727185,6.0,1.0,phase_2,stop,750.0,700.0,3.0,,,,,,,,,magenta,cross
0.0,7.0,2.0,1.0,6.0,6.0,721.3653055950999,6.0,1.0,phase_2,go,700.0,700.0,1.0,,,,,,,,,blue,I
0.0,7.0,2.0,1.0,6.0,6.0,985.3887157514692,6.0,1.0,phase_2,go,700.0,700.0,1.0,,,,,,,,,blue,I
0.0,4.0,4.0,0.0,5.0,5.0,761.3833267241716,6.0,1.0,phase_2,go,700.0,700.0,1.0,,,,,,,,,orange,circle
0.0,4.0,4.0,0.0,5.0,5.0,895.6642178818583,6.0,1.0,phase_2,go,700.0,700.0,1.0,,,,,,,,,orange,circle
0.0,8.0,4.0,1.0,5.0,0.0,0.0,6.0,1.0,phase_2,stop,700.0,700.0,4.0,,,,,,,,,white,diamond
0.0,8.0,4.0,1.0,5.0,0.0,0.0,6.0,1.0,phase_2,stop,750.0,700.0,4.0,,,,,,,,,white,diamond
0.0,1.0,0.5,0.0,5.0,5.0,662.8710301592946,6.0,1.0,phase_2,go,800.0,700.0,1.0,,,,,,,,,green,triangle
0.0,1.0,0.5,0.0,6.0,6.0,955.1180796697736,6.0,1.0,phase_2,go,800.0,700.0,1.0,,,,,,,,,green,triangle
0.0,1.0,0.5,0.0,6.0,6.0,709.9367473274469,6.0,1.0,phase_2,go,800.0,700.0,1.0,,,,,,,,,green,triangle
0.0,3.0,2.0,0.0,5.0,5.0,717.2933099791408,6.0,1.0,phase_2,go,800.0,700.0,1.0,,,,,,,,,cyan,flipped triangle
0.0,1.0,0.5,0.0,5.0,5.0,747.5941069424152,6.0,1.0,phase_2,go,800.0,700.0,1.0,,,,,,,,,green,triangle
0.0,6.0,1.0,1.0,5.0,5.0,612.5128101557493,6.0,1.0,phase_2,go,800.0,700.0,1.0,,,,,,,,,magenta,cross
0.0,6.0,1.0,1.0,6.0,6.0,450.0414757058024,6.0,1.0,phase_2,stop,800.0,700.0,3.0,,,,,,,,,magenta,cross
0.0,1.0,0.5,0.0,6.0,6.0,675.1462370157242,6.0,1.0,phase_2,go,800.0,650.0,1.0,,,,,,,,,green,triangle
0.0,1.0,0.5,0.0,6.0,6.0,687.9744352772832,6.0,1.0,phase_2,go,800.0,650.0,1.0,,,,,,,,,green,triangle
0.0,3.0,2.0,0.0,6.0,6.0,655.0657087936997,6.0,1.0,phase_2,go,800.0,650.0,1.0,,,,,,,,,cyan,flipped triangle
0.0,5.0,0.5,1.0,6.0,6.0,392.8010277450084,6.0,1.0,phase_2,go,800.0,650.0,1.0,,,,,,,,,gray,square
0.0,3.0,2.0,0.0,6.0,6.0,391.0141037777066,6.0,1.0,phase_2,go,800.0,650.0,1.0,,,,,,,,,cyan,flipped triangle
0.0,2.0,1.0,0.0,5.0,5.0,533.6406202986836,6.0,1.0,phase_2,go,800.0,650.0,1.0,,,,,,,,,yellow,hexagon
0.0,7.0,2.0,1.0,5.0,5.0,388.9127792790532,6.0,1.0,phase_2,stop,800.0,650.0,3.0,,,,,,,,,blue,I
0.0,2.0,1.0,0.0,5.0,5.0,692.3031061887741,6.0,1.0,phase_2,go,750.0,650.0,1.0,,,,,,,,,yellow,hexagon
0.0,2.0,1.0,0.0,5.0,5.0,608.0362191423774,6.0,1.0,phase_2,go,750.0,650.0,1.0,,,,,,,,,yellow,hexagon
0.0,5.0,0.5,1.0,6.0,6.0,404.8221819102764,6.0,1.0,phase_2,stop,750.0,650.0,3.0,,,,,,,,,gray,square
0.0,3.0,2.0,0.0,6.0,6.0,851.4939453452826,6.0,1.0,phase_2,go,750.0,600.0,1.0,,,,,,,,,cyan,flipped triangle
0.0,2.0,1.0,0.0,6.0,6.0,773.3754832297564,6.0,1.0,phase_2,go,750.0,600.0,1.0,,,,,,,,,yellow,hexagon
0.0,8.0,4.0,1.0,6.0,6.0,588.389870710671,6.0,1.0,phase_2,go,750.0,600.0,1.0,,,,,,,,,white,diamond
0.0,8.0,4.0,1.0,6.0,6.0,432.1368988603353,7.0,1.0,phase_2,stop,750.0,600.0,3.0,,,,,,,,,white,diamond
0.0,2.0,1.0,0.0,6.0,6.0,375.1925732940435,7.0,1.0,phase_2,go,750.0,550.0,1.0,,,,,,,,,yellow,hexagon
0.0,4.0,4.0,0.0,6.0,6.0,345.2812265604734,7.0,1.0,phase_2,go,750.0,550.0,1.0,,,,,,,,,orange,circle
0.0,2.0,1.0,0.0,6.0,6.0,341.2467120215297,7.0,1.0,phase_2,go,750.0,550.0,1.0,,,,,,,,,yellow,hexagon
0.0,4.0,4.0,0.0,5.0,5.0,487.5261727720499,7.0,1.0,phase_2,go,750.0,550.0,1.0,,,,,,,,,orange,circle
0.0,7.0,2.0,1.0,6.0,6.0,350.7076418027282,7.0,1.0,phase_2,go,750.0,550.0,1.0,,,,,,,,,blue,I
0.0,8.0,4.0,1.0,6.0,6.0,291.855975985527,7.0,1.0,phase_2,stop,750.0,550.0,3.0,,,,,,,,,white,diamond
0.0,1.0,0.5,0.0,6.0,6.0,637.9589652642608,7.0,1.0,phase_2,go,750.0,500.0,1.0,,,,,,,,,green,triangle
0.0,4.0,4.0,0.0,6.0,6.0,571.3241519406438,7.0,1.0,phase_2,go,750.0,500.0,1.0,,,,,,,,,orange,circle
0.0,3.0,2.0,0.0,5.0,5.0,549.7512528672814,7.0,1.0,phase_2,go,750.0,500.0,1.0,,,,,,,,,cyan,flipped triangle
0.0,5.0,0.5,1.0,5.0,5.0,405.3238723427057,7.0,1.0,phase_2,stop,750.0,500.0,3.0,,,,,,,,,gray,square
0.0,5.0,0.5,1.0,6.0,6.0,412.2675042599439,7.0,1.0,phase_2,stop,700.0,500.0,3.0,,,,,,,,,gray,square
0.0,1.0,0.5,0.0,5.0,5.0,338.4168930351734,7.0,1.0,phase_2,go,700.0,450.0,1.0,,,,,,,,,green,triangle
0.0,7.0,2.0,1.0,6.0,6.0,473.7149272114038,7.0,1.0,phase_2,stop,700.0,450.0,3.0,,,,,,,,,blue,I
0.0,7.0,2.0,1.0,6.0,0.0,0.0,7.0,1.0,phase_2,stop,700.0,400.0,4.0,,,,,,,,,blue,I
0.0,1.0,0.5,0.0,6.0,6.0,721.6050792485476,7.0,1.0,phase_2,go,700.0,450.0,1.0,,,,,,,,,green,triangle
0.0,4.0,4.0,0.0,5.0,5.0,542.5765970721841,7.0,1.0,phase_2,go,700.0,450.0,1.0,,,,,,,,,orange,circle
0.0,8.0,4.0,1.0,6.0,6.0,487.4263107776642,7.0,1.0,phase_2,stop,700.0,450.0,3.0,,,,,,,,,white,diamond
0.0,1.0,0.5,0.0,5.0,5.0,679.4996419921517,7.0,1.0,phase_2,go,700.0,400.0,1.0,,,,,,,,,green,triangle
0.0,1.0,0.5,0.0,5.0,5.0,1117.5697026774287,7.0,1.0,phase_2,go,700.0,400.0,1.0,,,,,,,,,green,triangle
0.0,8.0,4.0,1.0,6.0,0.0,0.0,7.0,1.0,phase_2,stop,700.0,400.0,4.0,,,,,,,,,white,diamond
0.0,4.0,4.0,0.0,5.0,5.0,684.3242458999157,7.0,1.0,phase_2,go,700.0,450.0,1.0,,,,,,,,,orange,circle
0.0,5.0,0.5,1.0,6.0,0.0,0.0,7.0,1.0,phase_2,stop,700.0,450.0,4.0,,,,,,,,,gray,square
0.0,3.0,2.0,0.0,6.0,6.0,748.4682006761432,7.0,1.0,phase_2,go,700.0,500.0,1.0,,,,,,,,,cyan,flipped triangle
0.0,5.0,0.5,1.0,6.0,0.0,0.0,7.0,1.0,phase_2,stop,700.0,500.0,4.0,,,,,,,,,gray,square
0.0,5.0,0.5,1.0,5.0,5.0,744.9146639555693,7.0,1.0,phase_2,stop,700.0,550.0,3.0,,,,,,,,,gray,square
0.0,1.0,0.5,0.0,6.0,6.0,913.5346636176108,7.0,1.0,phase_2,go,650.0,550.0,1.0,,,,,,,,,green,triangle
0.0,7.0,2.0,1.0,6.0,0.0,0.0,7.0,1.0,phase_2,stop,650.0,550.0,4.0,,,,,,,,,blue,I
0.0,2.0,1.0,0.0,6.0,6.0,703.76639906317,7.0,1.0,phase_2,go,650.0,600.0,1.0,,,,,,,,,yellow,hexagon
0.0,6.0,1.0,1.0,6.0,0.0,0.0,7.0,1.0,phase_2,stop,650.0,600.0,4.0,,,,,,,,,magenta,cross
0.0,4.0,4.0,0.0,5.0,5.0,446.5449256822467,7.0,1.0,phase_2,go,650.0,650.0,1.0,,,,,,,,,orange,circle
0.0,5.0,0.5,1.0,6.0,0.0,0.0,7.0,1.0,phase_2,stop,650.0,650.0,4.0,,,,,,,,,gray,square
0.0,5.0,0.5,1.0,5.0,0.0,0.0,7.0,1.0,phase_2,stop,650.0,700.0,4.0,,,,,,,,,gray,square
0.0,8.0,4.0,1.0,5.0,5.0,1039.4136402755976,7.0,1.0,phase_2,go,700.0,700.0,1.0,,,,,,,,,white,diamond
0.0,4.0,4.0,0.0,5.0,5.0,1108.5069542750716,7.0,1.0,phase_2,go,700.0,700.0,1.0,,,,,,,,,orange,circle
0.0,3.0,2.0,0.0,5.0,5.0,733.3199055865407,7.0,1.0,phase_2,go,700.0,700.0,1.0,,,,,,,,,cyan,flipped triangle
0.0,1.0,0.5,0.0,5.0,5.0,463.1885392591357,8.0,1.0,phase_2,go,700.0,700.0,1.0,,,,,,,,,green,triangle
0.0,4.0,4.0,0.0,5.0,5.0,388.3310910314321,8.0,1.0,phase_2,go,700.0,700.0,1.0,,,,,,,,,orange,circle
0.0,7.0,2.0,1.0,5.0,5.0,419.9438421055674,8.0,1.0,phase_2,stop,700.0,700.0,3.0,,,,,,,,,blue,I
0.0,2.0,1.0,0.0,5.0,5.0,559.3184847384691,8.0,1.0,phase_2,go,650.0,700.0,1.0,,,,,,,,,yellow,hexagon
0.0,4.0,4.0,0.0,6.0,6.0,373.7321915104985,8.0,1.0,phase_2,go,650.0,700.0,1.0,,,,,,,,,orange,circle
0.0,6.0,1.0,1.0,5.0,5.0,445.8007561042905,8.0,1.0,phase_2,stop,650.0,700.0,3.0,,,,,,,,,magenta,cross
0.0,2.0,1.0,0.0,6.0,6.0,737.283474765718,8.0,1.0,phase_2,go,600.0,700.0,1.0,,,,,,,,,yellow,hexagon
0.0,1.0,0.5,0.0,6.0,6.0,594.1216805949807,8.0,1.0,phase_2,go,600.0,700.0,1.0,,,,,,,,,green,triangle
0.0,2.0,1.0,0.0,5.0,5.0,579.3491145595908,8.0,1.0,phase_2,go,600.0,700.0,1.0,,,,,,,,,yellow,hexagon
0.0,7.0,2.0,1.0,6.0,6.0,548.0133006349206,8.0,1.0,phase_2,go,600.0,700.0,1.0,,,,,,,,,blue,I
0.0,1.0,0.5,0.0,6.0,6.0,595.5151496455073,8.0,1.0,phase_2,go,600.0,700.0,1.0,,,,,,,,,green,triangle
0.0,8.0,4.0,1.0,5.0,0.0,0.0,8.0,1.0,phase_2,stop,600.0,700.0,4.0,,,,,,,,,white,diamond
0.0,4.0,4.0,0.0,5.0,5.0,648.2950346544385,8.0,1.0,phase_2,go,650.0,700.0,1.0,,,,,,,,,orange,circle
0.0,7.0,2.0,1.0,5.0,0.0,0.0,8.0,1.0,phase_2,stop,650.0,700.0,4.0,,,,,,,,,blue,I
0.0,5.0,0.5,1.0,6.0,6.0,752.7032243087888,8.0,1.0,phase_2,stop,700.0,700.0,3.0,,,,,,,,,gray,square
0.0,1.0,0.5,0.0,6.0,6.0,1006.1545465141537,8.0,1.0,phase_2,go,700.0,650.0,1.0,,,,,,,,,green,triangle
0.0,6.0,1.0,1.0,5.0,5.0,837.8020068630576,8.0,1.0,phase_2,go,700.0,650.0,1.0,,,,,,,,,magenta,cross
0.0,5.0,0.5,1.0,5.0,0.0,0.0,8.0,1.0,phase_2,stop,700.0,650.0,4.0,,,,,,,,,gray,square
0.0,2.0,1.0,0.0,5.0,5.0,844.8982434347272,8.0,1.0,phase_2,go,750.0,650.0,1.0,,,,,,,,,yellow,hexagon
0.0,7.0,2.0,1.0,6.0,6.0,1038.7045266106725,8.0,1.0,phase_2,go,750.0,650.0,1.0,,,,,,,,,blue,I
0.0,3.0,2.0,0.0,5.0,5.0,1171.8840058892963,8.0,1.0,phase_2,go,750.0,650.0,1.0,,,,,,,,,cyan,flipped triangle
0.0,3.0,2.0,0.0,6.0,6.0,412.2523972764611,8.0,1.0,phase_2,go,750.0,650.0,1.0,,,,,,,,,cyan,flipped triangle
0.0,8.0,4.0,1.0,5.0,5.0,626.7299428582191,8.0,1.0,phase_2,stop,750.0,650.0,3.0,,,,,,,,,white,diamond
0.0,8.0,4.0,1.0,5.0,5.0,717.4997832626104,8.0,1.0,phase_2,stop,700.0,650.0,3.0,,,,,,,,,white,diamond
0.0,6.0,1.0,1.0,6.0,6.0,424.4444742798805,8.0,1.0,phase_2,stop,650.0,650.0,3.0,,,,,,,,,magenta,cross
0.0,8.0,4.0,1.0,5.0,5.0,887.2607536613941,8.0,1.0,phase_2,go,650.0,600.0,1.0,,,,,,,,,white,diamond
0.0,5.0,0.5,1.0,6.0,0.0,0.0,8.0,1.0,phase_2,stop,650.0,600.0,4.0,,,,,,,,,gray,square
0.0,1.0,0.5,0.0,5.0,5.0,392.2071317210793,8.0,1.0,phase_2,go,650.0,650.0,1.0,,,,,,,,,green,triangle
0.0,5.0,0.5,1.0,6.0,0.0,0.0,8.0,1.0,phase_2,stop,650.0,650.0,4.0,,,,,,,,,gray,square
0.0,2.0,1.0,0.0,6.0,6.0,533.5822831839323,8.0,1.0,phase_2,go,650.0,700.0,1.0,,,,,,,,,yellow,hexagon
0.0,3.0,2.0,0.0,5.0,5.0,670.5325832590461,8.0,1.0,phase_2,go,650.0,700.0,1.0,,,,,,,,,cyan,flipped triangle
0.0,4.0,4.0,0.0,6.0,6.0,383.441736921668,8.0,1.0,phase_2,go,650.0,700.0,1.0,,,,,,,,,orange,circle
0.0,1.0,0.5,0.0,5.0,5.0,427.9022198170423,8.0,1.0,phase_2,go,650.0,700.0,1.0,,,,,,,,,green,triangle
0.0,5.0,0.5,1.0,5.0,5.0,469.0705826506018,8.0,1.0,phase_2,stop,650.0,700.0,3.0,,,,,,,,,gray,square
0.0,4.0,4.0,0.0,5.0,5.0,540.1031533256173,8.0,1.0,phase_2,go,600.0,700.0,1.0,,,,,,,,,orange,circle
0.0,3.0,2.0,0.0,5.0,5.0,465.3692068532109,8.0,1.0,phase_2,go,600.0,700.0,1.0,,,,,,,,,cyan,flipped triangle
0.0,7.0,2.0,1.0,7.0,3.0,1162.866149097681,1.0,2.0,phase_3,,,,,78.0,2.0,234.0,156.0,78.0,39.0,195.0,117.0,blue,I
0.0,1.0,0.5,0.0,7.0,4.0,3259.198008105159,1.0,1.0,phase_3,,,,,88.0,2.0,132.0,264.0,176.0,88.0,44.0,220.0,green,triangle
0.0,2.0,1.0,0.0,7.0,3.0,2790.6852401793003,1.0,1.0,phase_3,,,,,196.0,4.0,147.0,49.0,196.0,294.0,245.0,98.0,yellow,hexagon
0.0,3.0,2.0,0.0,7.0,3.0,3975.361322052777,1.0,1.0,phase_3,,,,,34.0,1.0,136.0,68.0,34.0,102.0,204.0,170.0,cyan,flipped triangle
0.0,5.0,0.5,1.0,7.0,2.0,2863.399296067655,1.0,1.0,phase_3,,,,,108.0,2.0,216.0,108.0,324.0,162.0,54.0,270.0,gray,square
0.0,6.0,1.0,1.0,7.0,2.0,3401.3433819636703,1.0,1.0,phase_3,,,,,44.0,1.0,88.0,44.0,264.0,176.0,132.0,220.0,magenta,cross
0.0,8.0,4.0,1.0,7.0,2.0,2617.09048319608,1.0,1.0,phase_3,,,,,102.0,3.0,34.0,102.0,170.0,68.0,136.0,204.0,white,diamond
0.0,8.0,4.0,1.0,7.0,1.0,4669.089902192354,1.0,1.0,phase_3,,,,,108.0,2.0,108.0,324.0,216.0,162.0,54.0,270.0,white,diamond
0.0,7.0,2.0,1.0,7.0,5.0,3678.996055386961,1.0,1.0,phase_3,,,,,49.0,1.0,196.0,294.0,147.0,245.0,49.0,98.0,blue,I
0.0,7.0,2.0,1.0,7.0,1.0,4038.5810751467943,1.0,1.0,phase_3,,,,,78.0,2.0,78.0,234.0,39.0,156.0,117.0,195.0,blue,I
0.0,4.0,4.0,0.0,7.0,6.0,4435.642521828413,1.0,1.0,phase_3,,,,,98.0,2.0,49.0,196.0,294.0,245.0,147.0,98.0,orange,circle
0.0,8.0,4.0,1.0,7.0,4.0,2714.4748102873564,1.0,1.0,phase_3,,,,,78.0,2.0,39.0,195.0,156.0,78.0,234.0,117.0,white,diamond
0.0,2.0,1.0,0.0,7.0,1.0,3049.938322044909,1.0,1.0,phase_3,,,,,136.0,4.0,136.0,204.0,34.0,102.0,68.0,170.0,yellow,hexagon
0.0,5.0,0.5,1.0,7.0,3.0,1455.1561623811722,1.0,1.0,phase_3,,,,,108.0,2.0,162.0,216.0,108.0,54.0,270.0,324.0,gray,square
0.0,7.0,2.0,1.0,7.0,1.0,726.1602692306042,1.0,2.0,phase_3,,,,,68.0,2.0,68.0,136.0,204.0,34.0,170.0,102.0,blue,I
0.0,4.0,4.0,0.0,7.0,3.0,1935.856694355607,1.0,1.0,phase_3,,,,,108.0,2.0,216.0,324.0,108.0,270.0,54.0,162.0,orange,circle
0.0,4.0,4.0,0.0,7.0,4.0,2698.368483223021,1.0,1.0,phase_3,,,,,44.0,1.0,220.0,176.0,132.0,44.0,264.0,88.0,orange,circle
0.0,5.0,0.5,1.0,7.0,2.0,4513.376891613007,1.0,1.0,phase_3,,,,,68.0,2.0,34.0,68.0,136.0,102.0,170.0,204.0,gray,square
0.0,4.0,4.0,0.0,7.0,4.0,3083.931610919535,1.0,1.0,phase_3,,,,,136.0,4.0,34.0,102.0,170.0,136.0,204.0,68.0,orange,circle
0.0,6.0,1.0,1.0,7.0,5.0,2056.2000991776586,1.0,1.0,phase_3,,,,,176.0,4.0,264.0,88.0,132.0,44.0,176.0,220.0,magenta,cross
0.0,4.0,4.0,0.0,7.0,4.0,2185.992991551757,2.0,1.0,phase_3,,,,,78.0,2.0,195.0,156.0,39.0,78.0,117.0,234.0,orange,circle
0.0,5.0,0.5,1.0,7.0,4.0,3272.880751639605,2.0,1.0,phase_3,,,,,98.0,2.0,294.0,49.0,147.0,98.0,196.0,245.0,gray,square
0.0,5.0,0.5,1.0,7.0,6.0,2077.8480861335997,2.0,1.0,phase_3,,,,,98.0,2.0,49.0,245.0,147.0,294.0,196.0,98.0,gray,square
0.0,6.0,1.0,1.0,7.0,4.0,3197.090679779649,2.0,1.0,phase_3,,,,,108.0,2.0,324.0,270.0,216.0,108.0,162.0,54.0,magenta,cross
0.0,3.0,2.0,0.0,7.0,2.0,3216.249890625477,2.0,1.0,phase_3,,,,,88.0,2.0,44.0,88.0,176.0,220.0,264.0,132.0,cyan,flipped triangle
0.0,3.0,2.0,0.0,7.0,3.0,2943.639252334833,2.0,1.0,phase_3,,,,,88.0,2.0,44.0,264.0,88.0,132.0,220.0,176.0,cyan,flipped triangle
0.0,3.0,2.0,0.0,7.0,1.0,2552.743436768651,2.0,1.0,phase_3,,,,,98.0,2.0,98.0,49.0,294.0,147.0,245.0,196.0,cyan,flipped triangle
0.0,8.0,4.0,1.0,7.0,1.0,3763.650021515786,2.0,1.0,phase_3,,,,,108.0,2.0,108.0,216.0,270.0,54.0,324.0,162.0,white,diamond
0.0,5.0,0.5,1.0,7.0,2.0,4966.164742596448,2.0,1.0,phase_3,,,,,78.0,2.0,195.0,78.0,156.0,39.0,117.0,234.0,gray,square
0.0,2.0,1.0,0.0,7.0,1.0,938.5594595223664,2.0,2.0,phase_3,,,,,132.0,3.0,132.0,220.0,176.0,88.0,264.0,44.0,yellow,hexagon
0.0,1.0,0.5,0.0,7.0,1.0,4724.311254918575,2.0,1.0,phase_3,,,,,108.0,2.0,108.0,216.0,54.0,324.0,270.0,162.0,green,triangle
0.0,2.0,1.0,0.0,7.0,5.0,3800.17832107842,2.0,1.0,phase_3,,,,,108.0,2.0,270.0,216.0,324.0,54.0,108.0,162.0,yellow,hexagon
0.0,6.0,1.0,1.0,7.0,3.0,3928.7496972829103,2.0,1.0,phase_3,,,,,147.0,3.0,294.0,196.0,147.0,245.0,49.0,98.0,magenta,cross
0.0,1.0,0.5,0.0,7.0,4.0,2561.9465271010995,2.0,1.0,phase_3,,,,,102.0,3.0,136.0,34.0,170.0,102.0,68.0,204.0,green,triangle
0.0,1.0,0.5,0.0,7.0,5.0,4273.66881351918,2.0,1.0,phase_3,,,,,117.0,3.0,78.0,195.0,39.0,156.0,117.0,234.0,green,triangle
0.0,4.0,4.0,0.0,7.0,2.0,3303.9200734347105,2.0,1.0,phase_3,,,,,54.0,1.0,108.0,54.0,216.0,270.0,162.0,324.0,orange,circle
0.0,8.0,4.0,1.0,7.0,3.0,649.2950012907386,2.0,2.0,phase_3,,,,,88.0,2.0,220.0,264.0,88.0,132.0,176.0,44.0,white,diamond
0.0,6.0,1.0,1.0,7.0,4.0,2602.7150750160217,2.0,1.0,phase_3,,,,,162.0,3.0,324.0,216.0,108.0,162.0,54.0,270.0,magenta,cross
0.0,7.0,2.0,1.0,7.0,3.0,1529.6724401414394,2.0,1.0,phase_3,,,,,132.0,3.0,88.0,44.0,132.0,220.0,176.0,264.0,blue,I
0.0,1.0,0.5,0.0,7.0,4.0,2789.096592925489,2.0,1.0,phase_3,,,,,156.0,4.0,39.0,195.0,234.0,156.0,78.0,117.0,green,triangle
0.0,7.0,2.0,1.0,7.0,4.0,4446.623522788286,3.0,1.0,phase_3,,,,,108.0,2.0,54.0,162.0,270.0,108.0,216.0,324.0,blue,I
0.0,5.0,0.5,1.0,7.0,2.0,1807.1780232712624,3.0,2.0,phase_3,,,,,68.0,2.0,136.0,68.0,102.0,170.0,34.0,204.0,gray,square
0.0,2.0,1.0,0.0,7.0,6.0,4273.07257335633,3.0,1.0,phase_3,,,,,108.0,2.0,324.0,270.0,54.0,162.0,216.0,108.0,yellow,hexagon
0.0,3.0,2.0,0.0,7.0,2.0,2648.957525379956,3.0,1.0,phase_3,,,,,162.0,3.0,216.0,162.0,270.0,108.0,54.0,324.0,cyan,flipped triangle
0.0,2.0,1.0,0.0,7.0,2.0,2258.584516122937,3.0,1.0,phase_3,,,,,132.0,3.0,88.0,132.0,44.0,220.0,264.0,176.0,yellow,hexagon
0.0,8.0,4.0,1.0,7.0,2.0,2852.4071956053376,3.0,1.0,phase_3,,,,,117.0,3.0,39.0,117.0,195.0,156.0,234.0,78.0,white,diamond
0.0,2.0,1.0,0.0,7.0,1.0,2982.3992727324367,3.0,1.0,phase_3,,,,,117.0,3.0,117.0,39.0,234.0,156.0,195.0,78.0,yellow,hexagon
0.0,6.0,1.0,1.0,7.0,4.0,4399.785762652755,3.0,1.0,phase_3,,,,,117.0,3.0,234.0,39.0,195.0,117.0,78.0,156.0,magenta,cross
0.0,1.0,0.5,0.0,7.0,3.0,2062.563009560108,3.0,1.0,phase_3,,,,,270.0,5.0,162.0,324.0,270.0,108.0,54.0,216.0,green,triangle
0.0,8.0,4.0,1.0,7.0,6.0,3712.938603013754,3.0,1.0,phase_3,,,,,147.0,3.0,245.0,196.0,294.0,98.0,49.0,147.0,white,diamond
0.0,8.0,4.0,1.0,7.0,2.0,3121.033763512969,3.0,1.0,phase_3,,,,,170.0,5.0,102.0,170.0,68.0,136.0,34.0,204.0,white,diamond
0.0,1.0,0.5,0.0,7.0,5.0,2553.6408945918083,3.0,1.0,phase_3,,,,,170.0,5.0,136.0,34.0,68.0,204.0,170.0,102.0,green,triangle
0.0,6.0,1.0,1.0,7.0,4.0,2269.4351775571704,3.0,1.0,phase_3,,,,,170.0,5.0,68.0,34.0,102.0,170.0,204.0,136.0,magenta,cross
0.0,3.0,2.0,0.0,7.0,2.0,2632.1554128080606,3.0,1.0,phase_3,,,,,117.0,3.0,39.0,117.0,234.0,195.0,156.0,78.0,cyan,flipped triangle
0.0,6.0,1.0,1.0,7.0,2.0,2798.812059685588,3.0,1.0,phase_3,,,,,102.0,3.0,170.0,102.0,204.0,34.0,68.0,136.0,magenta,cross
0.0,6.0,1.0,1.0,7.0,6.0,2736.804236657917,3.0,1.0,phase_3,,,,,78.0,2.0,117.0,234.0,195.0,156.0,39.0,78.0,magenta,cross
0.0,6.0,1.0,1.0,7.0,3.0,1834.0853918343785,3.0,1.0,phase_3,,,,,196.0,4.0,147.0,98.0,196.0,294.0,49.0,245.0,magenta,cross
0.0,4.0,4.0,0.0,7.0,5.0,3340.629892423749,3.0,1.0,phase_3,,,,,170.0,5.0,102.0,204.0,136.0,68.0,170.0,34.0,orange,circle
0.0,7.0,2.0,1.0,7.0,2.0,4629.872977733612,3.0,1.0,phase_3,,,,,147.0,3.0,294.0,147.0,49.0,245.0,196.0,98.0,blue,I
0.0,7.0,2.0,1.0,7.0,4.0,3571.17310911417,3.0,1.0,phase_3,,,,,162.0,3.0,108.0,270.0,54.0,162.0,324.0,216.0,blue,I
0.0,3.0,2.0,0.0,7.0,4.0,3992.9873468354335,4.0,1.0,phase_3,,,,,245.0,5.0,98.0,147.0,49.0,245.0,196.0,294.0,cyan,flipped triangle
0.0,1.0,0.5,0.0,7.0,4.0,1418.305198661983,4.0,1.0,phase_3,,,,,294.0,6.0,196.0,98.0,245.0,294.0,147.0,49.0,green,triangle
0.0,8.0,4.0,1.0,7.0,5.0,3836.333661340177,4.0,1.0,phase_3,,,,,132.0,3.0,44.0,176.0,264.0,88.0,132.0,220.0,white,diamond
0.0,7.0,2.0,1.0,7.0,3.0,1858.6689056828616,4.0,1.0,phase_3,,,,,176.0,4.0,220.0,264.0,176.0,88.0,132.0,44.0,blue,I
0.0,4.0,4.0,0.0,7.0,2.0,3166.2513175979257,4.0,1.0,phase_3,,,,,132.0,3.0,88.0,132.0,176.0,220.0,44.0,264.0,orange,circle
0.0,2.0,1.0,0.0,7.0,1.0,2017.2681603580718,4.0,1.0,phase_3,,,,,147.0,3.0,147.0,196.0,245.0,98.0,49.0,294.0,yellow,hexagon
0.0,5.0,0.5,1.0,7.0,6.0,2727.240518666804,4.0,1.0,phase_3,,,,,117.0,3.0,156.0,39.0,78.0,195.0,234.0,117.0,gray,square
0.0,4.0,4.0,0.0,7.0,1.0,3180.0954025238752,4.0,1.0,phase_3,,,,,147.0,3.0,147.0,98.0,294.0,49.0,245.0,196.0,orange,circle
0.0,7.0,2.0,1.0,7.0,2.0,2260.294803418219,4.0,1.0,phase_3,,,,,136.0,4.0,170.0,136.0,34.0,204.0,68.0,102.0,blue,I
0.0,8.0,4.0,1.0,7.0,3.0,2902.35785022378,4.0,1.0,phase_3,,,,,147.0,3.0,294.0,196.0,147.0,245.0,98.0,49.0,white,diamond
0.0,1.0,0.5,0.0,7.0,3.0,3189.577931538224,4.0,1.0,phase_3,,,,,132.0,3.0,264.0,220.0,132.0,44.0,88.0,176.0,green,triangle
0.0,3.0,2.0,0.0,7.0,2.0,2070.109767839313,4.0,1.0,phase_3,,,,,162.0,3.0,54.0,162.0,270.0,324.0,216.0,108.0,cyan,flipped triangle
0.0,5.0,0.5,1.0,7.0,5.0,3250.254111364484,4.0,1.0,phase_3,,,,,132.0,3.0,176.0,264.0,88.0,44.0,132.0,220.0,gray,square
0.0,3.0,2.0,0.0,7.0,3.0,3066.289988346398,4.0,1.0,phase_3,,,,,102.0,3.0,68.0,204.0,102.0,170.0,34.0,136.0,cyan,flipped triangle
0.0,3.0,2.0,0.0,7.0,2.0,2117.8778437897563,4.0,1.0,phase_3,,,,,117.0,3.0,78.0,117.0,39.0,234.0,156.0,195.0,cyan,flipped triangle
0.0,1.0,0.5,0.0,7.0,6.0,2358.3156131207943,4.0,1.0,phase_3,,,,,147.0,3.0,49.0,245.0,294.0,98.0,196.0,147.0,green,triangle
0.0,2.0,1.0,0.0,7.0,3.0,1638.0741046741605,4.0,1.0,phase_3,,,,,102.0,3.0,68.0,204.0,102.0,34.0,136.0,170.0,yellow,hexagon
0.0,5.0,0.5,1.0,7.0,1.0,1781.9547466933727,4.0,1.0,phase_3,,,,,176.0,4.0,176.0,44.0,220.0,264.0,88.0,132.0,gray,square
0.0,2.0,1.0,0.0,7.0,3.0,2471.8239111825824,4.0,1.0,phase_3,,,,,117.0,3.0,195.0,39.0,117.0,156.0,234.0,78.0,yellow,hexagon
0.0,4.0,4.0,0.0,7.0,1.0,1459.877640940249,4.0,1.0,phase_3,,,,,117.0,3.0,117.0,39.0,234.0,156.0,78.0,195.0,orange,circle
