raw_reward_magnitude,stim_reward,stepwise_reward_magnitude,paired_with_stopping,stim_location,response,reaction_time,block,num_trial_presentations,which_phase,stop_signal_trial_type,left_SSD,right_SSD,accuracy,chosen_bidding_amount,chosen_bidding_level,possible_bid_1,possible_bid_2,possible_bid_3,possible_bid_4,possible_bid_5,possible_bid_6,color_text,shape_text
114.0,2.0,1.0,0.0,2.0,2.0,458.0762370000002,1.0,1.0,phase_1,,,,,,,,,,,,,cyan,cross
72.0,5.0,0.5,1.0,3.0,3.0,364.6929849999765,1.0,1.0,phase_1,,,,,,,,,,,,,blue,circle
0.0,4.0,0.0,0.0,1.0,1.0,394.9043109999479,1.0,1.0,phase_1,,,,,,,,,,,,,yellow,flipped triangle
81.0,6.0,1.0,1.0,4.0,4.0,408.7516679999794,1.0,1.0,phase_1,,,,,,,,,,,,,white,square
0.0,7.0,0.0,1.0,4.0,4.0,355.6997449999812,1.0,1.0,phase_1,,,,,,,,,,,,,magenta,triangle
0.0,6.0,0.0,1.0,3.0,3.0,399.6127940000065,1.0,1.0,phase_1,,,,,,,,,,,,,white,square
219.0,7.0,2.0,1.0,1.0,1.0,372.9963870000006,1.0,1.0,phase_1,,,,,,,,,,,,,magenta,triangle
0.0,2.0,0.0,0.0,2.0,2.0,345.6291780000242,1.0,1.0,phase_1,,,,,,,,,,,,,cyan,cross
70.0,5.0,0.5,1.0,3.0,3.0,297.7295360000198,1.0,1.0,phase_1,,,,,,,,,,,,,blue,circle
98.0,6.0,1.0,1.0,2.0,2.0,458.387915000003,1.0,1.0,phase_1,,,,,,,,,,,,,white,square
92.0,6.0,1.0,1.0,3.0,3.0,281.4648540000348,1.0,1.0,phase_1,,,,,,,,,,,,,white,square
107.0,6.0,1.0,1.0,1.0,1.0,303.0311289999758,1.0,1.0,phase_1,,,,,,,,,,,,,white,square
31.0,1.0,0.5,0.0,3.0,3.0,283.5566020000328,1.0,1.0,phase_1,,,,,,,,,,,,,orange,I
0.0,8.0,0.0,1.0,4.0,4.0,342.126645999997,1.0,1.0,phase_1,,,,,,,,,,,,,green,diamond
215.0,3.0,2.0,0.0,2.0,2.0,339.8062709999863,1.0,1.0,phase_1,,,,,,,,,,,,,gray,hexagon
191.0,7.0,2.0,1.0,1.0,1.0,297.1099200000253,1.0,1.0,phase_1,,,,,,,,,,,,,magenta,triangle
95.0,6.0,1.0,1.0,4.0,4.0,322.9698910000138,1.0,1.0,phase_1,,,,,,,,,,,,,white,square
0.0,7.0,0.0,1.0,4.0,4.0,314.0950540000062,1.0,1.0,phase_1,,,,,,,,,,,,,magenta,triangle
77.0,2.0,1.0,0.0,4.0,4.0,303.1422039999825,1.0,1.0,phase_1,,,,,,,,,,,,,cyan,cross
89.0,6.0,1.0,1.0,2.0,2.0,315.5405220000489,1.0,1.0,phase_1,,,,,,,,,,,,,white,square
36.0,5.0,0.5,1.0,4.0,4.0,310.1995609999903,1.0,1.0,phase_1,,,,,,,,,,,,,blue,circle
420.0,4.0,4.0,0.0,4.0,4.0,298.5282620000475,1.0,1.0,phase_1,,,,,,,,,,,,,yellow,flipped triangle
57.0,5.0,0.5,1.0,4.0,4.0,297.9273960000341,1.0,1.0,phase_1,,,,,,,,,,,,,blue,circle
92.0,2.0,1.0,0.0,2.0,2.0,268.52962199996,1.0,1.0,phase_1,,,,,,,,,,,,,cyan,cross
70.0,1.0,0.5,0.0,3.0,3.0,321.5181920000418,1.0,1.0,phase_1,,,,,,,,,,,,,orange,I
75.0,1.0,0.5,0.0,3.0,3.0,327.157403000001,1.0,1.0,phase_1,,,,,,,,,,,,,orange,I
0.0,8.0,0.0,1.0,3.0,3.0,507.8472020000504,1.0,1.0,phase_1,,,,,,,,,,,,,green,diamond
55.0,1.0,0.5,0.0,2.0,2.0,322.0867929999826,1.0,1.0,phase_1,,,,,,,,,,,,,orange,I
0.0,6.0,0.0,1.0,2.0,2.0,318.9703890000146,1.0,1.0,phase_1,,,,,,,,,,,,,white,square
56.0,5.0,0.5,1.0,1.0,1.0,416.2225919999969,1.0,1.0,phase_1,,,,,,,,,,,,,blue,circle
0.0,6.0,0.0,1.0,4.0,4.0,312.0509970000285,1.0,1.0,phase_1,,,,,,,,,,,,,white,square
397.0,8.0,4.0,1.0,4.0,4.0,314.8617200000103,1.0,1.0,phase_1,,,,,,,,,,,,,green,diamond
107.0,2.0,1.0,0.0,1.0,1.0,370.3200680000122,1.0,1.0,phase_1,,,,,,,,,,,,,cyan,cross
212.0,7.0,2.0,1.0,2.0,2.0,293.8396430000125,1.0,1.0,phase_1,,,,,,,,,,,,,magenta,triangle
0.0,1.0,0.0,0.0,2.0,2.0,305.2926859999729,1.0,1.0,phase_1,,,,,,,,,,,,,orange,I
414.0,4.0,4.0,0.0,1.0,1.0,316.8164759999854,1.0,1.0,phase_1,,,,,,,,,,,,,yellow,flipped triangle
0.0,4.0,0.0,0.0,1.0,1.0,363.6446059999798,1.0,1.0,phase_1,,,,,,,,,,,,,yellow,flipped triangle
0.0,8.0,0.0,1.0,1.0,1.0,277.6045420000059,1.0,1.0,phase_1,,,,,,,,,,,,,green,diamond
98.0,2.0,1.0,0.0,4.0,4.0,362.4415639999938,1.0,1.0,phase_1,,,,,,,,,,,,,cyan,cross
414.0,8.0,4.0,1.0,4.0,4.0,314.3253910000112,1.0,1.0,phase_1,,,,,,,,,,,,,green,diamond
0.0,6.0,0.0,1.0,2.0,2.0,317.3350910000181,1.0,1.0,phase_1,,,,,,,,,,,,,white,square
87.0,6.0,1.0,1.0,3.0,3.0,331.2494529999981,1.0,1.0,phase_1,,,,,,,,,,,,,white,square
0.0,7.0,0.0,1.0,3.0,3.0,293.530230999977,1.0,1.0,phase_1,,,,,,,,,,,,,magenta,triangle
377.0,8.0,4.0,1.0,4.0,4.0,297.3706220000167,1.0,1.0,phase_1,,,,,,,,,,,,,green,diamond
383.0,8.0,4.0,1.0,2.0,2.0,305.8912010000085,1.0,1.0,phase_1,,,,,,,,,,,,,green,diamond
0.0,1.0,0.0,0.0,3.0,3.0,299.2762549999952,1.0,1.0,phase_1,,,,,,,,,,,,,orange,I
0.0,1.0,0.0,0.0,4.0,4.0,378.1899260000045,1.0,1.0,phase_1,,,,,,,,,,,,,orange,I
0.0,2.0,0.0,0.0,1.0,1.0,319.1313170000285,1.0,1.0,phase_1,,,,,,,,,,,,,cyan,cross
67.0,1.0,0.5,0.0,4.0,4.0,220.181268000033,1.0,1.0,phase_1,,,,,,,,,,,,,orange,I
0.0,7.0,0.0,1.0,4.0,4.0,289.4675640000059,1.0,1.0,phase_1,,,,,,,,,,,,,magenta,triangle
52.0,1.0,0.5,0.0,4.0,4.0,330.5046940000125,1.0,1.0,phase_1,,,,,,,,,,,,,orange,I
50.0,1.0,0.5,0.0,2.0,2.0,272.1837579999828,1.0,1.0,phase_1,,,,,,,,,,,,,orange,I
0.0,1.0,0.0,0.0,3.0,3.0,302.3324580000235,1.0,1.0,phase_1,,,,,,,,,,,,,orange,I
223.0,3.0,2.0,0.0,4.0,4.0,304.4031059999952,1.0,1.0,phase_1,,,,,,,,,,,,,gray,hexagon
404.0,4.0,4.0,0.0,4.0,4.0,302.9063710000059,1.0,1.0,phase_1,,,,,,,,,,,,,yellow,flipped triangle
25.0,5.0,0.5,1.0,1.0,1.0,314.2241770000282,1.0,1.0,phase_1,,,,,,,,,,,,,blue,circle
188.0,3.0,2.0,0.0,3.0,3.0,289.7896489999993,1.0,1.0,phase_1,,,,,,,,,,,,,gray,hexagon
103.0,2.0,1.0,0.0,1.0,1.0,340.3348549999805,1.0,1.0,phase_1,,,,,,,,,,,,,cyan,cross
397.0,4.0,4.0,0.0,1.0,1.0,338.0647239999916,1.0,1.0,phase_1,,,,,,,,,,,,,yellow,flipped triangle
403.0,4.0,4.0,0.0,4.0,4.0,309.2433260000007,1.0,1.0,phase_1,,,,,,,,,,,,,yellow,flipped triangle
68.0,5.0,0.5,1.0,2.0,2.0,297.9427129999976,1.0,1.0,phase_1,,,,,,,,,,,,,blue,circle
0.0,6.0,0.0,1.0,3.0,3.0,287.1013849999713,1.0,1.0,phase_1,,,,,,,,,,,,,white,square
58.0,5.0,0.5,1.0,4.0,4.0,277.4017390000267,1.0,1.0,phase_1,,,,,,,,,,,,,blue,circle
0.0,2.0,0.0,0.0,3.0,3.0,299.1416180000215,1.0,1.0,phase_1,,,,,,,,,,,,,cyan,cross
223.0,3.0,2.0,0.0,2.0,2.0,327.8237669999839,1.0,1.0,phase_1,,,,,,,,,,,,,gray,hexagon
0.0,7.0,0.0,1.0,4.0,4.0,275.2704270000095,1.0,1.0,phase_1,,,,,,,,,,,,,magenta,triangle
48.0,1.0,0.5,0.0,3.0,3.0,278.8933639999982,1.0,1.0,phase_1,,,,,,,,,,,,,orange,I
217.0,3.0,2.0,0.0,2.0,2.0,298.8068060000159,1.0,1.0,phase_1,,,,,,,,,,,,,gray,hexagon
109.0,2.0,1.0,0.0,1.0,1.0,294.5652260000315,1.0,1.0,phase_1,,,,,,,,,,,,,cyan,cross
112.0,6.0,1.0,1.0,2.0,2.0,286.6549119999604,1.0,1.0,phase_1,,,,,,,,,,,,,white,square
114.0,2.0,1.0,0.0,1.0,1.0,313.0355669999858,1.0,1.0,phase_1,,,,,,,,,,,,,cyan,cross
213.0,3.0,2.0,0.0,1.0,1.0,262.7502639999761,1.0,1.0,phase_1,,,,,,,,,,,,,gray,hexagon
377.0,4.0,4.0,0.0,3.0,3.0,266.6109399999641,1.0,1.0,phase_1,,,,,,,,,,,,,yellow,flipped triangle
47.0,5.0,0.5,1.0,1.0,1.0,273.4717279999472,1.0,1.0,phase_1,,,,,,,,,,,,,blue,circle
0.0,5.0,0.0,1.0,1.0,1.0,274.4482090000133,1.0,1.0,phase_1,,,,,,,,,,,,,blue,circle
0.0,1.0,0.0,0.0,1.0,1.0,274.3735820000097,1.0,1.0,phase_1,,,,,,,,,,,,,orange,I
50.0,1.0,0.5,0.0,2.0,2.0,278.7138030000164,1.0,1.0,phase_1,,,,,,,,,,,,,orange,I
103.0,6.0,1.0,1.0,2.0,2.0,274.0762450000034,1.0,1.0,phase_1,,,,,,,,,,,,,white,square
396.0,8.0,4.0,1.0,2.0,2.0,253.7718709999694,1.0,1.0,phase_1,,,,,,,,,,,,,green,diamond
396.0,4.0,4.0,0.0,2.0,2.0,293.2021400000053,1.0,1.0,phase_1,,,,,,,,,,,,,yellow,flipped triangle
50.0,5.0,0.5,1.0,3.0,3.0,279.8776850000308,1.0,1.0,phase_1,,,,,,,,,,,,,blue,circle
0.0,2.0,0.0,0.0,3.0,3.0,269.4971569999893,1.0,1.0,phase_1,,,,,,,,,,,,,cyan,cross
0.0,2.0,0.0,0.0,4.0,4.0,314.775644000008,1.0,1.0,phase_1,,,,,,,,,,,,,cyan,cross
103.0,2.0,1.0,0.0,2.0,2.0,244.8547770000004,1.0,1.0,phase_1,,,,,,,,,,,,,cyan,cross
176.0,7.0,2.0,1.0,3.0,3.0,282.1521860000757,1.0,1.0,phase_1,,,,,,,,,,,,,magenta,triangle
0.0,3.0,0.0,0.0,1.0,1.0,289.7152059999826,1.0,1.0,phase_1,,,,,,,,,,,,,gray,hexagon
103.0,2.0,1.0,0.0,3.0,3.0,287.0211980000476,1.0,1.0,phase_1,,,,,,,,,,,,,cyan,cross
27.0,5.0,0.5,1.0,2.0,2.0,330.6448419999697,1.0,1.0,phase_1,,,,,,,,,,,,,blue,circle
0.0,4.0,0.0,0.0,4.0,4.0,293.285222999998,1.0,1.0,phase_1,,,,,,,,,,,,,yellow,flipped triangle
28.0,5.0,0.5,1.0,1.0,1.0,340.9393800000089,1.0,1.0,phase_1,,,,,,,,,,,,,blue,circle
29.0,5.0,0.5,1.0,3.0,3.0,310.8865709999691,1.0,1.0,phase_1,,,,,,,,,,,,,blue,circle
92.0,6.0,1.0,1.0,1.0,1.0,309.4101929999624,1.0,1.0,phase_1,,,,,,,,,,,,,white,square
178.0,3.0,2.0,0.0,1.0,1.0,305.6009470000163,1.0,1.0,phase_1,,,,,,,,,,,,,gray,hexagon
0.0,6.0,0.0,1.0,2.0,2.0,332.1097039998903,1.0,1.0,phase_1,,,,,,,,,,,,,white,square
91.0,6.0,1.0,1.0,3.0,3.0,296.6773379999949,1.0,1.0,phase_1,,,,,,,,,,,,,white,square
103.0,6.0,1.0,1.0,4.0,4.0,439.013407999937,1.0,1.0,phase_1,,,,,,,,,,,,,white,square
53.0,1.0,0.5,0.0,2.0,2.0,306.0686090000217,1.0,1.0,phase_1,,,,,,,,,,,,,orange,I
223.0,7.0,2.0,1.0,3.0,3.0,290.8445529999426,1.0,1.0,phase_1,,,,,,,,,,,,,magenta,triangle
122.0,6.0,1.0,1.0,2.0,2.0,316.4229600000681,1.0,1.0,phase_1,,,,,,,,,,,,,white,square
0.0,5.0,0.0,1.0,4.0,4.0,361.2411709999605,1.0,1.0,phase_1,,,,,,,,,,,,,blue,circle
0.0,5.0,0.0,1.0,4.0,4.0,406.7427009999846,2.0,1.0,phase_1,,,,,,,,,,,,,blue,circle
121.0,6.0,1.0,1.0,1.0,1.0,275.3462690000106,2.0,1.0,phase_1,,,,,,,,,,,,,white,square
385.0,8.0,4.0,1.0,1.0,1.0,258.86384900002207,2.0,1.0,phase_1,,,,,,,,,,,,,green,diamond
61.0,1.0,0.5,0.0,2.0,2.0,336.0404079999171,2.0,1.0,phase_1,,,,,,,,,,,,,orange,I
25.0,1.0,0.5,0.0,1.0,1.0,273.5161769999195,2.0,1.0,phase_1,,,,,,,,,,,,,orange,I
79.0,2.0,1.0,0.0,3.0,3.0,303.4964569999374,2.0,1.0,phase_1,,,,,,,,,,,,,cyan,cross
0.0,4.0,0.0,0.0,2.0,2.0,275.0864959999717,2.0,1.0,phase_1,,,,,,,,,,,,,yellow,flipped triangle
105.0,6.0,1.0,1.0,3.0,3.0,290.5386940000198,2.0,1.0,phase_1,,,,,,,,,,,,,white,square
58.0,1.0,0.5,0.0,1.0,1.0,279.5660959999395,2.0,1.0,phase_1,,,,,,,,,,,,,orange,I
179.0,3.0,2.0,0.0,1.0,1.0,290.2865190000057,2.0,1.0,phase_1,,,,,,,,,,,,,gray,hexagon
0.0,8.0,0.0,1.0,2.0,2.0,344.1103140000905,2.0,1.0,phase_1,,,,,,,,,,,,,green,diamond
103.0,6.0,1.0,1.0,1.0,1.0,294.1577550000147,2.0,1.0,phase_1,,,,,,,,,,,,,white,square
29.0,1.0,0.5,0.0,4.0,4.0,288.2376930000419,2.0,1.0,phase_1,,,,,,,,,,,,,orange,I
35.0,1.0,0.5,0.0,3.0,3.0,272.010741000031,2.0,1.0,phase_1,,,,,,,,,,,,,orange,I
99.0,2.0,1.0,0.0,1.0,1.0,315.6884279999303,2.0,1.0,phase_1,,,,,,,,,,,,,cyan,cross
0.0,6.0,0.0,1.0,4.0,4.0,318.8497680000637,2.0,1.0,phase_1,,,,,,,,,,,,,white,square
47.0,1.0,0.5,0.0,4.0,4.0,316.8308770000294,2.0,1.0,phase_1,,,,,,,,,,,,,orange,I
90.0,2.0,1.0,0.0,3.0,3.0,257.6813840000795,2.0,1.0,phase_1,,,,,,,,,,,,,cyan,cross
206.0,3.0,2.0,0.0,4.0,4.0,278.824214999986,2.0,1.0,phase_1,,,,,,,,,,,,,gray,hexagon
49.0,5.0,0.5,1.0,1.0,1.0,274.7773559999587,2.0,1.0,phase_1,,,,,,,,,,,,,blue,circle
0.0,4.0,0.0,0.0,1.0,1.0,278.6058520000551,2.0,1.0,phase_1,,,,,,,,,,,,,yellow,flipped triangle
0.0,7.0,0.0,1.0,2.0,2.0,306.9979790000161,2.0,1.0,phase_1,,,,,,,,,,,,,magenta,triangle
28.0,1.0,0.5,0.0,1.0,1.0,288.1573770000614,2.0,1.0,phase_1,,,,,,,,,,,,,orange,I
214.0,3.0,2.0,0.0,2.0,2.0,316.5015179999955,2.0,1.0,phase_1,,,,,,,,,,,,,gray,hexagon
0.0,7.0,0.0,1.0,2.0,2.0,296.1284840000644,2.0,1.0,phase_1,,,,,,,,,,,,,magenta,triangle
225.0,7.0,2.0,1.0,4.0,4.0,332.4562410000453,2.0,1.0,phase_1,,,,,,,,,,,,,magenta,triangle
41.0,5.0,0.5,1.0,2.0,2.0,288.9745219999895,2.0,1.0,phase_1,,,,,,,,,,,,,blue,circle
115.0,2.0,1.0,0.0,4.0,4.0,344.3036109999866,2.0,1.0,phase_1,,,,,,,,,,,,,cyan,cross
77.0,2.0,1.0,0.0,2.0,2.0,324.0428509999447,2.0,1.0,phase_1,,,,,,,,,,,,,cyan,cross
191.0,3.0,2.0,0.0,4.0,4.0,313.096091000034,2.0,1.0,phase_1,,,,,,,,,,,,,gray,hexagon
220.0,7.0,2.0,1.0,4.0,4.0,315.9329690000731,2.0,1.0,phase_1,,,,,,,,,,,,,magenta,triangle
99.0,6.0,1.0,1.0,3.0,3.0,300.281477999988,2.0,1.0,phase_1,,,,,,,,,,,,,white,square
181.0,7.0,2.0,1.0,1.0,1.0,304.3648649999113,2.0,1.0,phase_1,,,,,,,,,,,,,magenta,triangle
409.0,8.0,4.0,1.0,4.0,4.0,300.4856300000256,2.0,1.0,phase_1,,,,,,,,,,,,,green,diamond
0.0,4.0,0.0,0.0,4.0,4.0,303.9018009999381,2.0,1.0,phase_1,,,,,,,,,,,,,yellow,flipped triangle
215.0,7.0,2.0,1.0,1.0,1.0,302.5762580000446,2.0,1.0,phase_1,,,,,,,,,,,,,magenta,triangle
50.0,5.0,0.5,1.0,4.0,4.0,361.9885870000416,2.0,1.0,phase_1,,,,,,,,,,,,,blue,circle
419.0,8.0,4.0,1.0,2.0,2.0,292.13936299993287,2.0,1.0,phase_1,,,,,,,,,,,,,green,diamond
114.0,6.0,1.0,1.0,2.0,2.0,298.536446000071,2.0,1.0,phase_1,,,,,,,,,,,,,white,square
69.0,1.0,0.5,0.0,2.0,2.0,310.1133320000144,2.0,1.0,phase_1,,,,,,,,,,,,,orange,I
417.0,4.0,4.0,0.0,1.0,1.0,315.1547240000809,2.0,1.0,phase_1,,,,,,,,,,,,,yellow,flipped triangle
187.0,7.0,2.0,1.0,4.0,4.0,328.0980829999862,2.0,1.0,phase_1,,,,,,,,,,,,,magenta,triangle
402.0,8.0,4.0,1.0,2.0,2.0,252.38955100007843,2.0,1.0,phase_1,,,,,,,,,,,,,green,diamond
39.0,5.0,0.5,1.0,4.0,4.0,377.908097000045,2.0,1.0,phase_1,,,,,,,,,,,,,blue,circle
67.0,5.0,0.5,1.0,2.0,2.0,302.8986629999508,2.0,1.0,phase_1,,,,,,,,,,,,,blue,circle
0.0,7.0,0.0,1.0,3.0,3.0,289.7400550000384,2.0,1.0,phase_1,,,,,,,,,,,,,magenta,triangle
38.0,5.0,0.5,1.0,3.0,3.0,295.3398759999572,2.0,1.0,phase_1,,,,,,,,,,,,,blue,circle
95.0,2.0,1.0,0.0,4.0,4.0,295.3909040001008,2.0,1.0,phase_1,,,,,,,,,,,,,cyan,cross
375.0,8.0,4.0,1.0,1.0,1.0,275.2268550000281,2.0,1.0,phase_1,,,,,,,,,,,,,green,diamond
107.0,6.0,1.0,1.0,2.0,2.0,287.5430619999406,2.0,1.0,phase_1,,,,,,,,,,,,,white,square
105.0,2.0,1.0,0.0,1.0,1.0,316.0879079999859,2.0,1.0,phase_1,,,,,,,,,,,,,cyan,cross
64.0,1.0,0.5,0.0,3.0,3.0,505.1898080000683,2.0,1.0,phase_1,,,,,,,,,,,,,orange,I
57.0,1.0,0.5,0.0,1.0,1.0,258.5126679999803,2.0,1.0,phase_1,,,,,,,,,,,,,orange,I
0.0,4.0,0.0,0.0,4.0,4.0,307.037527000034,2.0,1.0,phase_1,,,,,,,,,,,,,yellow,flipped triangle
103.0,2.0,1.0,0.0,1.0,1.0,316.8284219999577,2.0,1.0,phase_1,,,,,,,,,,,,,cyan,cross
75.0,5.0,0.5,1.0,2.0,2.0,283.9344689999734,2.0,1.0,phase_1,,,,,,,,,,,,,blue,circle
0.0,8.0,0.0,1.0,3.0,3.0,270.5973299999868,2.0,1.0,phase_1,,,,,,,,,,,,,green,diamond
203.0,3.0,2.0,0.0,1.0,1.0,274.9625590000732,2.0,1.0,phase_1,,,,,,,,,,,,,gray,hexagon
122.0,2.0,1.0,0.0,2.0,2.0,266.088663000005,2.0,1.0,phase_1,,,,,,,,,,,,,cyan,cross
42.0,5.0,0.5,1.0,3.0,3.0,316.1121120000416,2.0,1.0,phase_1,,,,,,,,,,,,,blue,circle
213.0,7.0,2.0,1.0,1.0,1.0,297.2206160000041,2.0,1.0,phase_1,,,,,,,,,,,,,magenta,triangle
181.0,3.0,2.0,0.0,1.0,1.0,301.2804900000674,2.0,1.0,phase_1,,,,,,,,,,,,,gray,hexagon
110.0,6.0,1.0,1.0,1.0,1.0,265.72054199994,2.0,1.0,phase_1,,,,,,,,,,,,,white,square
196.0,7.0,2.0,1.0,4.0,4.0,510.5119909999303,2.0,1.0,phase_1,,,,,,,,,,,,,magenta,triangle
68.0,5.0,0.5,1.0,4.0,4.0,318.2067149999739,2.0,1.0,phase_1,,,,,,,,,,,,,blue,circle
83.0,6.0,1.0,1.0,4.0,4.0,290.1063699999895,2.0,1.0,phase_1,,,,,,,,,,,,,white,square
0.0,8.0,0.0,1.0,1.0,1.0,332.1859940000422,2.0,1.0,phase_1,,,,,,,,,,,,,green,diamond
199.0,7.0,2.0,1.0,3.0,3.0,314.7810309999386,2.0,1.0,phase_1,,,,,,,,,,,,,magenta,triangle
70.0,1.0,0.5,0.0,4.0,4.0,277.7332299999671,2.0,1.0,phase_1,,,,,,,,,,,,,orange,I
392.0,8.0,4.0,1.0,3.0,3.0,322.7216359999829,2.0,1.0,phase_1,,,,,,,,,,,,,green,diamond
69.0,1.0,0.5,0.0,1.0,1.0,286.7304609999337,2.0,1.0,phase_1,,,,,,,,,,,,,orange,I
0.0,1.0,0.0,0.0,3.0,3.0,278.6142310000059,2.0,1.0,phase_1,,,,,,,,,,,,,orange,I
0.0,3.0,0.0,0.0,2.0,2.0,323.7246440000945,2.0,1.0,phase_1,,,,,,,,,,,,,gray,hexagon
0.0,1.0,0.0,0.0,3.0,3.0,313.3541430000832,2.0,1.0,phase_1,,,,,,,,,,,,,orange,I
0.0,5.0,0.0,1.0,3.0,3.0,316.6366159999825,2.0,1.0,phase_1,,,,,,,,,,,,,blue,circle
188.0,3.0,2.0,0.0,3.0,3.0,303.372495000076,2.0,1.0,phase_1,,,,,,,,,,,,,gray,hexagon
179.0,7.0,2.0,1.0,4.0,4.0,340.805261000014,2.0,1.0,phase_1,,,,,,,,,,,,,magenta,triangle
55.0,5.0,0.5,1.0,3.0,3.0,320.4435659999944,2.0,1.0,phase_1,,,,,,,,,,,,,blue,circle
417.0,8.0,4.0,1.0,3.0,3.0,293.8585590000002,2.0,1.0,phase_1,,,,,,,,,,,,,green,diamond
424.0,4.0,4.0,0.0,2.0,2.0,340.677745999983,2.0,1.0,phase_1,,,,,,,,,,,,,yellow,flipped triangle
420.0,8.0,4.0,1.0,2.0,2.0,310.5978529999902,2.0,1.0,phase_1,,,,,,,,,,,,,green,diamond
417.0,4.0,4.0,0.0,4.0,4.0,301.8953970000666,2.0,1.0,phase_1,,,,,,,,,,,,,yellow,flipped triangle
114.0,6.0,1.0,1.0,3.0,3.0,279.5704509999268,2.0,1.0,phase_1,,,,,,,,,,,,,white,square
112.0,2.0,1.0,0.0,4.0,4.0,413.8293190000013,2.0,1.0,phase_1,,,,,,,,,,,,,cyan,cross
181.0,3.0,2.0,0.0,2.0,2.0,361.7702569999892,2.0,1.0,phase_1,,,,,,,,,,,,,gray,hexagon
404.0,8.0,4.0,1.0,4.0,4.0,287.3403140000619,2.0,1.0,phase_1,,,,,,,,,,,,,green,diamond
394.0,4.0,4.0,0.0,1.0,1.0,426.406122000003,2.0,1.0,phase_1,,,,,,,,,,,,,yellow,flipped triangle
180.0,3.0,2.0,0.0,2.0,2.0,321.8114380000543,2.0,1.0,phase_1,,,,,,,,,,,,,gray,hexagon
225.0,3.0,2.0,0.0,1.0,1.0,387.2911439999598,2.0,1.0,phase_1,,,,,,,,,,,,,gray,hexagon
212.0,3.0,2.0,0.0,4.0,4.0,312.4569750000319,2.0,1.0,phase_1,,,,,,,,,,,,,gray,hexagon
68.0,1.0,0.5,0.0,4.0,4.0,333.6843869999484,2.0,1.0,phase_1,,,,,,,,,,,,,orange,I
52.0,5.0,0.5,1.0,4.0,4.0,332.2162619999744,2.0,1.0,phase_1,,,,,,,,,,,,,blue,circle
393.0,8.0,4.0,1.0,2.0,2.0,279.0721029999758,2.0,1.0,phase_1,,,,,,,,,,,,,green,diamond
76.0,2.0,1.0,0.0,1.0,1.0,316.7819880000024,2.0,1.0,phase_1,,,,,,,,,,,,,cyan,cross
57.0,5.0,0.5,1.0,2.0,2.0,337.1311570000443,2.0,1.0,phase_1,,,,,,,,,,,,,blue,circle
97.0,6.0,1.0,1.0,1.0,1.0,328.3594270000094,2.0,1.0,phase_1,,,,,,,,,,,,,white,square
109.0,6.0,1.0,1.0,2.0,2.0,313.0500180000126,2.0,1.0,phase_1,,,,,,,,,,,,,white,square
89.0,2.0,1.0,0.0,4.0,4.0,366.4714789999834,2.0,1.0,phase_1,,,,,,,,,,,,,cyan,cross
41.0,1.0,0.5,0.0,1.0,1.0,349.3979869999748,2.0,1.0,phase_1,,,,,,,,,,,,,orange,I
69.0,5.0,0.5,1.0,4.0,4.0,408.0772239999533,2.0,1.0,phase_1,,,,,,,,,,,,,blue,circle
385.0,4.0,4.0,0.0,4.0,4.0,324.0139559999306,3.0,1.0,phase_1,,,,,,,,,,,,,yellow,flipped triangle
423.0,8.0,4.0,1.0,2.0,2.0,294.9860400000261,3.0,1.0,phase_1,,,,,,,,,,,,,green,diamond
110.0,6.0,1.0,1.0,2.0,2.0,291.7919839999285,3.0,1.0,phase_1,,,,,,,,,,,,,white,square
391.0,8.0,4.0,1.0,1.0,1.0,290.7889750000549,3.0,1.0,phase_1,,,,,,,,,,,,,green,diamond
110.0,2.0,1.0,0.0,4.0,4.0,262.0319210000161,3.0,1.0,phase_1,,,,,,,,,,,,,cyan,cross
389.0,8.0,4.0,1.0,1.0,1.0,274.4681109999192,3.0,1.0,phase_1,,,,,,,,,,,,,green,diamond
0.0,4.0,0.0,0.0,4.0,4.0,249.7898330000225,3.0,1.0,phase_1,,,,,,,,,,,,,yellow,flipped triangle
95.0,2.0,1.0,0.0,2.0,2.0,258.9620769999783,3.0,1.0,phase_1,,,,,,,,,,,,,cyan,cross
382.0,4.0,4.0,0.0,2.0,2.0,303.7949089999756,3.0,1.0,phase_1,,,,,,,,,,,,,yellow,flipped triangle
61.0,5.0,0.5,1.0,1.0,1.0,331.6439320000199,3.0,1.0,phase_1,,,,,,,,,,,,,blue,circle
195.0,7.0,2.0,1.0,2.0,2.0,275.4092089999176,3.0,1.0,phase_1,,,,,,,,,,,,,magenta,triangle
53.0,5.0,0.5,1.0,2.0,2.0,302.9726119999623,3.0,1.0,phase_1,,,,,,,,,,,,,blue,circle
0.0,5.0,0.0,1.0,1.0,1.0,259.4763260000263,3.0,1.0,phase_1,,,,,,,,,,,,,blue,circle
217.0,7.0,2.0,1.0,3.0,3.0,311.9588580000254,3.0,1.0,phase_1,,,,,,,,,,,,,magenta,triangle
194.0,7.0,2.0,1.0,3.0,3.0,381.8209060000299,3.0,1.0,phase_1,,,,,,,,,,,,,magenta,triangle
95.0,2.0,1.0,0.0,3.0,3.0,339.7360430000162,3.0,1.0,phase_1,,,,,,,,,,,,,cyan,cross
410.0,4.0,4.0,0.0,2.0,2.0,284.4261909999659,3.0,1.0,phase_1,,,,,,,,,,,,,yellow,flipped triangle
384.0,8.0,4.0,1.0,2.0,2.0,252.22932600001968,3.0,1.0,phase_1,,,,,,,,,,,,,green,diamond
421.0,8.0,4.0,1.0,4.0,4.0,279.3651900000213,3.0,1.0,phase_1,,,,,,,,,,,,,green,diamond
379.0,8.0,4.0,1.0,3.0,3.0,292.9003819999707,3.0,1.0,phase_1,,,,,,,,,,,,,green,diamond
33.0,1.0,0.5,0.0,3.0,3.0,263.214846999972,3.0,1.0,phase_1,,,,,,,,,,,,,orange,I
192.0,7.0,2.0,1.0,3.0,3.0,269.5992740000292,3.0,1.0,phase_1,,,,,,,,,,,,,magenta,triangle
424.0,8.0,4.0,1.0,3.0,3.0,266.9547800001055,3.0,1.0,phase_1,,,,,,,,,,,,,green,diamond
375.0,4.0,4.0,0.0,3.0,3.0,295.3387609998117,3.0,1.0,phase_1,,,,,,,,,,,,,yellow,flipped triangle
185.0,3.0,2.0,0.0,4.0,4.0,347.4489970001286,3.0,1.0,phase_1,,,,,,,,,,,,,gray,hexagon
72.0,1.0,0.5,0.0,2.0,2.0,311.8174409999028,3.0,1.0,phase_1,,,,,,,,,,,,,orange,I
36.0,1.0,0.5,0.0,2.0,2.0,286.970108000105,3.0,1.0,phase_1,,,,,,,,,,,,,orange,I
108.0,6.0,1.0,1.0,1.0,1.0,258.5050129998762,3.0,1.0,phase_1,,,,,,,,,,,,,white,square
49.0,1.0,0.5,0.0,1.0,1.0,295.8101650001481,3.0,1.0,phase_1,,,,,,,,,,,,,orange,I
197.0,3.0,2.0,0.0,3.0,3.0,274.8693680000542,3.0,1.0,phase_1,,,,,,,,,,,,,gray,hexagon
77.0,6.0,1.0,1.0,3.0,3.0,280.9378289998676,3.0,1.0,phase_1,,,,,,,,,,,,,white,square
91.0,2.0,1.0,0.0,1.0,1.0,299.2810299999746,3.0,1.0,phase_1,,,,,,,,,,,,,cyan,cross
0.0,3.0,0.0,0.0,1.0,1.0,319.4624520001525,3.0,1.0,phase_1,,,,,,,,,,,,,gray,hexagon
0.0,7.0,0.0,1.0,2.0,2.0,262.5162970000474,3.0,1.0,phase_1,,,,,,,,,,,,,magenta,triangle
184.0,7.0,2.0,1.0,1.0,1.0,363.9539939999849,3.0,1.0,phase_1,,,,,,,,,,,,,magenta,triangle
108.0,2.0,1.0,0.0,3.0,3.0,254.22639800012797,3.0,1.0,phase_1,,,,,,,,,,,,,cyan,cross
0.0,3.0,0.0,0.0,3.0,3.0,292.6157859999421,3.0,1.0,phase_1,,,,,,,,,,,,,gray,hexagon
122.0,2.0,1.0,0.0,3.0,3.0,287.0500349999929,3.0,1.0,phase_1,,,,,,,,,,,,,cyan,cross
425.0,4.0,4.0,0.0,2.0,2.0,365.3537870000036,3.0,1.0,phase_1,,,,,,,,,,,,,yellow,flipped triangle
97.0,2.0,1.0,0.0,2.0,2.0,298.947150999993,3.0,1.0,phase_1,,,,,,,,,,,,,cyan,cross
205.0,7.0,2.0,1.0,2.0,2.0,287.4307450001652,3.0,1.0,phase_1,,,,,,,,,,,,,magenta,triangle
403.0,4.0,4.0,0.0,2.0,2.0,226.33564800003109,3.0,1.0,phase_1,,,,,,,,,,,,,yellow,flipped triangle
81.0,2.0,1.0,0.0,3.0,3.0,271.3657580000017,3.0,1.0,phase_1,,,,,,,,,,,,,cyan,cross
0.0,4.0,0.0,0.0,4.0,4.0,311.0720390000097,3.0,1.0,phase_1,,,,,,,,,,,,,yellow,flipped triangle
191.0,7.0,2.0,1.0,1.0,1.0,279.5243599998684,3.0,1.0,phase_1,,,,,,,,,,,,,magenta,triangle
70.0,5.0,0.5,1.0,1.0,1.0,287.3462759998801,3.0,1.0,phase_1,,,,,,,,,,,,,blue,circle
180.0,7.0,2.0,1.0,3.0,3.0,316.3775170000917,3.0,1.0,phase_1,,,,,,,,,,,,,magenta,triangle
415.0,4.0,4.0,0.0,1.0,1.0,257.6998350000394,3.0,1.0,phase_1,,,,,,,,,,,,,yellow,flipped triangle
194.0,3.0,2.0,0.0,2.0,2.0,286.03904900001,3.0,1.0,phase_1,,,,,,,,,,,,,gray,hexagon
378.0,8.0,4.0,1.0,4.0,4.0,310.9602819999963,3.0,1.0,phase_1,,,,,,,,,,,,,green,diamond
0.0,6.0,0.0,1.0,2.0,2.0,295.0670179998269,3.0,1.0,phase_1,,,,,,,,,,,,,white,square
403.0,8.0,4.0,1.0,4.0,4.0,290.7179150001866,3.0,1.0,phase_1,,,,,,,,,,,,,green,diamond
185.0,7.0,2.0,1.0,2.0,2.0,303.3425769999667,3.0,1.0,phase_1,,,,,,,,,,,,,magenta,triangle
0.0,7.0,0.0,1.0,4.0,4.0,290.8704099997976,3.0,1.0,phase_1,,,,,,,,,,,,,magenta,triangle
396.0,4.0,4.0,0.0,2.0,2.0,249.37998999985209,3.0,1.0,phase_1,,,,,,,,,,,,,yellow,flipped triangle
378.0,4.0,4.0,0.0,1.0,1.0,267.0340990000568,3.0,1.0,phase_1,,,,,,,,,,,,,yellow,flipped triangle
413.0,4.0,4.0,0.0,3.0,3.0,332.536558999891,3.0,2.0,phase_1,,,,,,,,,,,,,yellow,flipped triangle
93.0,2.0,1.0,0.0,4.0,4.0,305.426824000051,3.0,1.0,phase_1,,,,,,,,,,,,,cyan,cross
197.0,3.0,2.0,0.0,3.0,3.0,288.5426069999539,3.0,1.0,phase_1,,,,,,,,,,,,,gray,hexagon
47.0,5.0,0.5,1.0,3.0,3.0,330.7622339998488,3.0,1.0,phase_1,,,,,,,,,,,,,blue,circle
384.0,4.0,4.0,0.0,3.0,3.0,267.5253520001206,3.0,1.0,phase_1,,,,,,,,,,,,,yellow,flipped triangle
185.0,7.0,2.0,1.0,4.0,4.0,366.950923999866,3.0,1.0,phase_1,,,,,,,,,,,,,magenta,triangle
205.0,3.0,2.0,0.0,4.0,4.0,265.3570849997777,3.0,1.0,phase_1,,,,,,,,,,,,,gray,hexagon
57.0,1.0,0.5,0.0,2.0,2.0,382.3686139999154,3.0,1.0,phase_1,,,,,,,,,,,,,orange,I
0.0,2.0,0.0,0.0,4.0,4.0,310.466292000001,3.0,1.0,phase_1,,,,,,,,,,,,,cyan,cross
393.0,4.0,4.0,0.0,2.0,2.0,304.0793180000491,3.0,1.0,phase_1,,,,,,,,,,,,,yellow,flipped triangle
0.0,1.0,0.0,0.0,2.0,2.0,334.4162200000937,3.0,1.0,phase_1,,,,,,,,,,,,,orange,I
0.0,2.0,0.0,0.0,3.0,3.0,296.5922149999187,3.0,1.0,phase_1,,,,,,,,,,,,,cyan,cross
0.0,4.0,0.0,0.0,1.0,1.0,382.3053490000347,3.0,1.0,phase_1,,,,,,,,,,,,,yellow,flipped triangle
206.0,7.0,2.0,1.0,2.0,2.0,355.6724009999925,3.0,1.0,phase_1,,,,,,,,,,,,,magenta,triangle
408.0,8.0,4.0,1.0,3.0,3.0,293.9760579999984,3.0,1.0,phase_1,,,,,,,,,,,,,green,diamond
0.0,5.0,0.0,1.0,3.0,3.0,379.0672380000615,3.0,1.0,phase_1,,,,,,,,,,,,,blue,circle
0.0,8.0,0.0,1.0,2.0,2.0,287.8991229999883,3.0,1.0,phase_1,,,,,,,,,,,,,green,diamond
396.0,8.0,4.0,1.0,3.0,3.0,276.3196920000155,3.0,1.0,phase_1,,,,,,,,,,,,,green,diamond
68.0,1.0,0.5,0.0,1.0,1.0,332.2383019999506,3.0,1.0,phase_1,,,,,,,,,,,,,orange,I
0.0,1.0,0.0,0.0,3.0,3.0,301.6203360000418,3.0,1.0,phase_1,,,,,,,,,,,,,orange,I
423.0,4.0,4.0,0.0,3.0,3.0,300.6629020001128,3.0,1.0,phase_1,,,,,,,,,,,,,yellow,flipped triangle
0.0,5.0,0.0,1.0,4.0,4.0,327.1775760001674,3.0,1.0,phase_1,,,,,,,,,,,,,blue,circle
38.0,1.0,0.5,0.0,1.0,1.0,351.2739329999021,3.0,1.0,phase_1,,,,,,,,,,,,,orange,I
0.0,3.0,0.0,0.0,3.0,3.0,314.7239349998472,3.0,1.0,phase_1,,,,,,,,,,,,,gray,hexagon
103.0,6.0,1.0,1.0,4.0,4.0,327.5167160002183,3.0,1.0,phase_1,,,,,,,,,,,,,white,square
0.0,8.0,0.0,1.0,3.0,3.0,289.7949570001401,3.0,1.0,phase_1,,,,,,,,,,,,,green,diamond
396.0,4.0,4.0,0.0,4.0,4.0,327.0887810001568,3.0,1.0,phase_1,,,,,,,,,,,,,yellow,flipped triangle
56.0,1.0,0.5,0.0,1.0,1.0,325.0514429998929,3.0,1.0,phase_1,,,,,,,,,,,,,orange,I
121.0,2.0,1.0,0.0,2.0,2.0,305.9897159998854,3.0,1.0,phase_1,,,,,,,,,,,,,cyan,cross
391.0,4.0,4.0,0.0,4.0,4.0,284.9032910000915,3.0,1.0,phase_1,,,,,,,,,,,,,yellow,flipped triangle
119.0,2.0,1.0,0.0,3.0,3.0,251.8111100000624,3.0,1.0,phase_1,,,,,,,,,,,,,cyan,cross
107.0,2.0,1.0,0.0,1.0,1.0,265.0061020001431,3.0,1.0,phase_1,,,,,,,,,,,,,cyan,cross
425.0,8.0,4.0,1.0,3.0,3.0,285.700223999811,3.0,1.0,phase_1,,,,,,,,,,,,,green,diamond
105.0,2.0,1.0,0.0,4.0,4.0,297.9909849998421,3.0,1.0,phase_1,,,,,,,,,,,,,cyan,cross
197.0,7.0,2.0,1.0,1.0,1.0,334.5991559999675,3.0,1.0,phase_1,,,,,,,,,,,,,magenta,triangle
394.0,8.0,4.0,1.0,2.0,2.0,323.8913899999716,3.0,1.0,phase_1,,,,,,,,,,,,,green,diamond
0.0,3.0,0.0,0.0,1.0,1.0,285.4335059998902,3.0,1.0,phase_1,,,,,,,,,,,,,gray,hexagon
215.0,7.0,2.0,1.0,2.0,2.0,332.2941579999678,3.0,1.0,phase_1,,,,,,,,,,,,,magenta,triangle
214.0,7.0,2.0,1.0,2.0,2.0,401.0045050001736,3.0,1.0,phase_1,,,,,,,,,,,,,magenta,triangle
408.0,4.0,4.0,0.0,1.0,1.0,315.4755919999843,3.0,1.0,phase_1,,,,,,,,,,,,,yellow,flipped triangle
377.0,8.0,4.0,1.0,2.0,2.0,272.9812699999456,3.0,1.0,phase_1,,,,,,,,,,,,,green,diamond
31.0,5.0,0.5,1.0,3.0,3.0,302.5244030000067,3.0,1.0,phase_1,,,,,,,,,,,,,blue,circle
119.0,6.0,1.0,1.0,4.0,4.0,306.1390440000195,3.0,1.0,phase_1,,,,,,,,,,,,,white,square
0.0,5.0,0.0,1.0,4.0,4.0,383.0819929999052,3.0,1.0,phase_1,,,,,,,,,,,,,blue,circle
399.0,8.0,4.0,1.0,1.0,1.0,335.8176260001073,4.0,1.0,phase_1,,,,,,,,,,,,,green,diamond
403.0,8.0,4.0,1.0,1.0,1.0,315.5478240000775,4.0,1.0,phase_1,,,,,,,,,,,,,green,diamond
0.0,1.0,0.0,0.0,4.0,4.0,505.39433300014025,4.0,1.0,phase_1,,,,,,,,,,,,,orange,I
50.0,5.0,0.5,1.0,3.0,3.0,278.9316660000622,4.0,1.0,phase_1,,,,,,,,,,,,,blue,circle
419.0,4.0,4.0,0.0,1.0,1.0,315.6567730000006,4.0,1.0,phase_1,,,,,,,,,,,,,yellow,flipped triangle
225.0,3.0,2.0,0.0,1.0,1.0,385.2250960001129,4.0,1.0,phase_1,,,,,,,,,,,,,gray,hexagon
203.0,7.0,2.0,1.0,4.0,4.0,277.5357460000123,4.0,1.0,phase_1,,,,,,,,,,,,,magenta,triangle
188.0,7.0,2.0,1.0,3.0,3.0,315.2481470001476,4.0,1.0,phase_1,,,,,,,,,,,,,magenta,triangle
0.0,3.0,0.0,0.0,4.0,4.0,373.596052000039,4.0,1.0,phase_1,,,,,,,,,,,,,gray,hexagon
204.0,7.0,2.0,1.0,3.0,3.0,716.8574209999861,4.0,1.0,phase_1,,,,,,,,,,,,,magenta,triangle
44.0,1.0,0.5,0.0,4.0,4.0,326.6934359999141,4.0,1.0,phase_1,,,,,,,,,,,,,orange,I
220.0,3.0,2.0,0.0,2.0,2.0,322.6171399999202,4.0,1.0,phase_1,,,,,,,,,,,,,gray,hexagon
410.0,8.0,4.0,1.0,3.0,3.0,275.038522999921,4.0,1.0,phase_1,,,,,,,,,,,,,green,diamond
27.0,1.0,0.5,0.0,4.0,4.0,302.8402620000179,4.0,1.0,phase_1,,,,,,,,,,,,,orange,I
64.0,5.0,0.5,1.0,2.0,2.0,290.9520850000717,4.0,1.0,phase_1,,,,,,,,,,,,,blue,circle
90.0,6.0,1.0,1.0,4.0,4.0,293.8986300000579,4.0,1.0,phase_1,,,,,,,,,,,,,white,square
0.0,5.0,0.0,1.0,1.0,1.0,293.6733650001315,4.0,1.0,phase_1,,,,,,,,,,,,,blue,circle
181.0,7.0,2.0,1.0,2.0,2.0,270.6010859999423,4.0,1.0,phase_1,,,,,,,,,,,,,magenta,triangle
69.0,5.0,0.5,1.0,4.0,4.0,315.5855920001613,4.0,1.0,phase_1,,,,,,,,,,,,,blue,circle
47.0,1.0,0.5,0.0,4.0,4.0,267.2961319999558,4.0,1.0,phase_1,,,,,,,,,,,,,orange,I
407.0,8.0,4.0,1.0,3.0,3.0,270.0390799998331,4.0,1.0,phase_1,,,,,,,,,,,,,green,diamond
225.0,7.0,2.0,1.0,2.0,2.0,330.3583780000281,4.0,1.0,phase_1,,,,,,,,,,,,,magenta,triangle
32.0,5.0,0.5,1.0,2.0,2.0,286.463349999849,4.0,1.0,phase_1,,,,,,,,,,,,,blue,circle
389.0,4.0,4.0,0.0,3.0,3.0,324.5408729999326,4.0,1.0,phase_1,,,,,,,,,,,,,yellow,flipped triangle
188.0,7.0,2.0,1.0,3.0,3.0,312.5058220000483,4.0,1.0,phase_1,,,,,,,,,,,,,magenta,triangle
196.0,3.0,2.0,0.0,3.0,3.0,325.137107999808,4.0,1.0,phase_1,,,,,,,,,,,,,gray,hexagon
402.0,4.0,4.0,0.0,3.0,3.0,276.3599990000784,4.0,1.0,phase_1,,,,,,,,,,,,,yellow,flipped triangle
187.0,3.0,2.0,0.0,4.0,4.0,321.5549509998254,4.0,1.0,phase_1,,,,,,,,,,,,,gray,hexagon
184.0,3.0,2.0,0.0,3.0,3.0,341.3556540001536,4.0,1.0,phase_1,,,,,,,,,,,,,gray,hexagon
0.0,5.0,0.0,1.0,4.0,4.0,315.1214060001166,4.0,1.0,phase_1,,,,,,,,,,,,,blue,circle
407.0,4.0,4.0,0.0,4.0,4.0,307.5821530001121,4.0,1.0,phase_1,,,,,,,,,,,,,yellow,flipped triangle
0.0,6.0,0.0,1.0,1.0,1.0,323.7497760001133,4.0,1.0,phase_1,,,,,,,,,,,,,white,square
377.0,4.0,4.0,0.0,1.0,1.0,303.3077610000418,4.0,1.0,phase_1,,,,,,,,,,,,,yellow,flipped triangle
48.0,5.0,0.5,1.0,1.0,1.0,290.9593660001519,4.0,1.0,phase_1,,,,,,,,,,,,,blue,circle
88.0,6.0,1.0,1.0,2.0,2.0,287.3278520000895,4.0,1.0,phase_1,,,,,,,,,,,,,white,square
409.0,4.0,4.0,0.0,1.0,1.0,323.4776189999593,4.0,1.0,phase_1,,,,,,,,,,,,,yellow,flipped triangle
191.0,3.0,2.0,0.0,3.0,3.0,299.52575800007247,4.0,1.0,phase_1,,,,,,,,,,,,,gray,hexagon
105.0,6.0,1.0,1.0,1.0,1.0,277.534340999864,4.0,1.0,phase_1,,,,,,,,,,,,,white,square
33.0,5.0,0.5,1.0,2.0,2.0,323.4097209999618,4.0,1.0,phase_1,,,,,,,,,,,,,blue,circle
0.0,2.0,0.0,0.0,2.0,2.0,328.9432690000922,4.0,1.0,phase_1,,,,,,,,,,,,,cyan,cross
92.0,2.0,1.0,0.0,2.0,2.0,346.4848229998551,4.0,1.0,phase_1,,,,,,,,,,,,,cyan,cross
110.0,2.0,1.0,0.0,4.0,4.0,359.4440589999976,4.0,1.0,phase_1,,,,,,,,,,,,,cyan,cross
0.0,8.0,0.0,1.0,2.0,2.0,286.3187339999058,4.0,1.0,phase_1,,,,,,,,,,,,,green,diamond
122.0,6.0,1.0,1.0,3.0,3.0,328.8661979997869,4.0,1.0,phase_1,,,,,,,,,,,,,white,square
95.0,6.0,1.0,1.0,1.0,1.0,305.41775100005,4.0,1.0,phase_1,,,,,,,,,,,,,white,square
35.0,5.0,0.5,1.0,1.0,1.0,298.6072070000318,4.0,1.0,phase_1,,,,,,,,,,,,,blue,circle
39.0,5.0,0.5,1.0,4.0,4.0,432.2520270000041,4.0,1.0,phase_1,,,,,,,,,,,,,blue,circle
39.0,1.0,0.5,0.0,3.0,3.0,299.2022000000816,4.0,1.0,phase_1,,,,,,,,,,,,,orange,I
204.0,3.0,2.0,0.0,4.0,4.0,385.0452710000809,4.0,1.0,phase_1,,,,,,,,,,,,,gray,hexagon
415.0,8.0,4.0,1.0,3.0,3.0,287.1230339999329,4.0,1.0,phase_1,,,,,,,,,,,,,green,diamond
87.0,2.0,1.0,0.0,3.0,3.0,299.4400829998085,4.0,1.0,phase_1,,,,,,,,,,,,,cyan,cross
399.0,4.0,4.0,0.0,2.0,2.0,328.1010419998438,4.0,1.0,phase_1,,,,,,,,,,,,,yellow,flipped triangle
0.0,3.0,0.0,0.0,1.0,1.0,331.7724179999004,4.0,1.0,phase_1,,,,,,,,,,,,,gray,hexagon
197.0,7.0,2.0,1.0,2.0,2.0,327.3526549999133,4.0,1.0,phase_1,,,,,,,,,,,,,magenta,triangle
50.0,1.0,0.5,0.0,2.0,2.0,335.5946540000332,4.0,1.0,phase_1,,,,,,,,,,,,,orange,I
95.0,6.0,1.0,1.0,4.0,4.0,288.7122039999212,4.0,1.0,phase_1,,,,,,,,,,,,,white,square
223.0,7.0,2.0,1.0,1.0,1.0,319.516564999958,4.0,1.0,phase_1,,,,,,,,,,,,,magenta,triangle
88.0,2.0,1.0,0.0,2.0,2.0,266.5605560000585,4.0,1.0,phase_1,,,,,,,,,,,,,cyan,cross
214.0,7.0,2.0,1.0,4.0,4.0,303.7598830001116,4.0,1.0,phase_1,,,,,,,,,,,,,magenta,triangle
192.0,3.0,2.0,0.0,3.0,3.0,331.9281469998714,4.0,1.0,phase_1,,,,,,,,,,,,,gray,hexagon
385.0,8.0,4.0,1.0,1.0,1.0,290.5212529999517,4.0,1.0,phase_1,,,,,,,,,,,,,green,diamond
379.0,4.0,4.0,0.0,3.0,3.0,302.6695220000874,4.0,1.0,phase_1,,,,,,,,,,,,,yellow,flipped triangle
413.0,8.0,4.0,1.0,4.0,4.0,332.5353800000812,4.0,1.0,phase_1,,,,,,,,,,,,,green,diamond
0.0,8.0,0.0,1.0,4.0,4.0,322.3465870000837,4.0,1.0,phase_1,,,,,,,,,,,,,green,diamond
178.0,7.0,2.0,1.0,1.0,1.0,420.0463890001629,4.0,1.0,phase_1,,,,,,,,,,,,,magenta,triangle
187.0,3.0,2.0,0.0,2.0,2.0,296.7700510000668,4.0,1.0,phase_1,,,,,,,,,,,,,gray,hexagon
417.0,8.0,4.0,1.0,1.0,1.0,319.060183999909,4.0,1.0,phase_1,,,,,,,,,,,,,green,diamond
176.0,3.0,2.0,0.0,4.0,4.0,474.9262860000272,4.0,1.0,phase_1,,,,,,,,,,,,,gray,hexagon
79.0,6.0,1.0,1.0,3.0,3.0,326.5733529999579,4.0,1.0,phase_1,,,,,,,,,,,,,white,square
383.0,4.0,4.0,0.0,4.0,4.0,338.7222899998505,4.0,1.0,phase_1,,,,,,,,,,,,,yellow,flipped triangle
44.0,5.0,0.5,1.0,1.0,1.0,376.2791909998668,4.0,1.0,phase_1,,,,,,,,,,,,,blue,circle
0.0,2.0,0.0,0.0,4.0,4.0,335.9695430001466,4.0,1.0,phase_1,,,,,,,,,,,,,cyan,cross
396.0,8.0,4.0,1.0,1.0,1.0,322.8309990001889,4.0,1.0,phase_1,,,,,,,,,,,,,green,diamond
393.0,8.0,4.0,1.0,1.0,1.0,319.9523519999729,4.0,1.0,phase_1,,,,,,,,,,,,,green,diamond
39.0,1.0,0.5,0.0,3.0,3.0,380.7283829999051,4.0,1.0,phase_1,,,,,,,,,,,,,orange,I
93.0,6.0,1.0,1.0,4.0,4.0,358.8579899999331,4.0,1.0,phase_1,,,,,,,,,,,,,white,square
187.0,7.0,2.0,1.0,4.0,4.0,319.6924000001218,4.0,1.0,phase_1,,,,,,,,,,,,,magenta,triangle
219.0,3.0,2.0,0.0,1.0,1.0,312.5078920002124,4.0,1.0,phase_1,,,,,,,,,,,,,gray,hexagon
0.0,3.0,0.0,0.0,3.0,3.0,318.5239030001412,4.0,1.0,phase_1,,,,,,,,,,,,,gray,hexagon
214.0,3.0,2.0,0.0,1.0,1.0,323.93209199995,4.0,1.0,phase_1,,,,,,,,,,,,,gray,hexagon
199.0,3.0,2.0,0.0,3.0,3.0,302.7520119999281,4.0,1.0,phase_1,,,,,,,,,,,,,gray,hexagon
215.0,3.0,2.0,0.0,3.0,3.0,299.3259320001016,4.0,1.0,phase_1,,,,,,,,,,,,,gray,hexagon
185.0,3.0,2.0,0.0,1.0,1.0,410.5467169999883,4.0,1.0,phase_1,,,,,,,,,,,,,gray,hexagon
385.0,4.0,4.0,0.0,3.0,3.0,356.0645300001397,4.0,1.0,phase_1,,,,,,,,,,,,,yellow,flipped triangle
115.0,6.0,1.0,1.0,1.0,1.0,300.4255929999999,4.0,1.0,phase_1,,,,,,,,,,,,,white,square
217.0,3.0,2.0,0.0,4.0,4.0,320.4728570001407,4.0,1.0,phase_1,,,,,,,,,,,,,gray,hexagon
32.0,1.0,0.5,0.0,3.0,3.0,300.2331310001409,4.0,1.0,phase_1,,,,,,,,,,,,,orange,I
0.0,3.0,0.0,0.0,4.0,4.0,311.1929090000558,4.0,1.0,phase_1,,,,,,,,,,,,,gray,hexagon
76.0,6.0,1.0,1.0,3.0,3.0,326.8629550000241,4.0,1.0,phase_1,,,,,,,,,,,,,white,square
421.0,4.0,4.0,0.0,2.0,2.0,329.6688469999935,4.0,1.0,phase_1,,,,,,,,,,,,,yellow,flipped triangle
77.0,6.0,1.0,1.0,4.0,4.0,317.0322070000111,4.0,1.0,phase_1,,,,,,,,,,,,,white,square
0.0,6.0,0.0,1.0,4.0,4.0,322.5751510001373,4.0,1.0,phase_1,,,,,,,,,,,,,white,square
217.0,7.0,2.0,1.0,4.0,4.0,302.595244000031,4.0,1.0,phase_1,,,,,,,,,,,,,magenta,triangle
0.0,2.0,0.0,0.0,3.0,3.0,302.9393089998393,4.0,1.0,phase_1,,,,,,,,,,,,,cyan,cross
42.0,1.0,0.5,0.0,4.0,4.0,306.6031729999849,4.0,1.0,phase_1,,,,,,,,,,,,,orange,I
382.0,8.0,4.0,1.0,4.0,4.0,303.2680110000001,4.0,1.0,phase_1,,,,,,,,,,,,,green,diamond
195.0,3.0,2.0,0.0,2.0,2.0,352.6678199998514,4.0,1.0,phase_1,,,,,,,,,,,,,gray,hexagon
392.0,4.0,4.0,0.0,4.0,4.0,279.5325730000968,4.0,1.0,phase_1,,,,,,,,,,,,,yellow,flipped triangle
83.0,2.0,1.0,0.0,3.0,3.0,299.3066090000411,4.0,1.0,phase_1,,,,,,,,,,,,,cyan,cross
393.0,4.0,4.0,0.0,3.0,3.0,319.2876460000207,4.0,1.0,phase_1,,,,,,,,,,,,,yellow,flipped triangle
0.0,6.0,1.0,1.0,5.0,5.0,623.5727470000256,1.0,1.0,phase_2,go,250.0,250.0,1.0,,,,,,,,,white,square
0.0,5.0,0.5,1.0,6.0,6.0,710.1251329997922,1.0,1.0,phase_2,go,250.0,250.0,1.0,,,,,,,,,blue,circle
0.0,4.0,4.0,0.0,6.0,6.0,988.464611000154,1.0,1.0,phase_2,go,250.0,250.0,1.0,,,,,,,,,yellow,flipped triangle
0.0,7.0,2.0,1.0,5.0,5.0,620.6924709999839,1.0,1.0,phase_2,stop,250.0,250.0,3.0,,,,,,,,,magenta,triangle
0.0,4.0,4.0,0.0,5.0,5.0,1123.05299500008,1.0,1.0,phase_2,go,200.0,250.0,1.0,,,,,,,,,yellow,flipped triangle
0.0,2.0,1.0,0.0,6.0,6.0,612.41820500004,1.0,1.0,phase_2,go,200.0,250.0,1.0,,,,,,,,,cyan,cross
0.0,6.0,1.0,1.0,6.0,6.0,336.7180539999026,1.0,1.0,phase_2,go,200.0,250.0,1.0,,,,,,,,,white,square
0.0,3.0,2.0,0.0,5.0,5.0,351.4332649999687,1.0,1.0,phase_2,go,200.0,250.0,1.0,,,,,,,,,gray,hexagon
0.0,5.0,0.5,1.0,5.0,0.0,0.0,1.0,1.0,phase_2,stop,200.0,250.0,4.0,,,,,,,,,blue,circle
0.0,7.0,2.0,1.0,5.0,5.0,913.297860000057,1.0,1.0,phase_2,go,250.0,250.0,1.0,,,,,,,,,magenta,triangle
0.0,6.0,1.0,1.0,6.0,0.0,0.0,1.0,1.0,phase_2,stop,250.0,250.0,4.0,,,,,,,,,white,square
0.0,6.0,1.0,1.0,6.0,0.0,0.0,1.0,1.0,phase_2,stop,250.0,300.0,4.0,,,,,,,,,white,square
0.0,3.0,2.0,0.0,5.0,5.0,765.781416999971,1.0,1.0,phase_2,go,250.0,350.0,1.0,,,,,,,,,gray,hexagon
0.0,2.0,1.0,0.0,6.0,6.0,895.4396070000712,1.0,1.0,phase_2,go,250.0,350.0,1.0,,,,,,,,,cyan,cross
0.0,8.0,4.0,1.0,6.0,6.0,911.017792999928,1.0,1.0,phase_2,go,250.0,350.0,1.0,,,,,,,,,green,diamond
0.0,6.0,1.0,1.0,6.0,0.0,0.0,1.0,1.0,phase_2,stop,250.0,350.0,4.0,,,,,,,,,white,square
0.0,2.0,1.0,0.0,5.0,5.0,563.232945999971,1.0,1.0,phase_2,go,250.0,400.0,1.0,,,,,,,,,cyan,cross
0.0,5.0,0.5,1.0,5.0,5.0,914.3763879999368,1.0,1.0,phase_2,go,250.0,400.0,1.0,,,,,,,,,blue,circle
0.0,8.0,4.0,1.0,6.0,0.0,0.0,1.0,1.0,phase_2,stop,250.0,400.0,4.0,,,,,,,,,green,diamond
0.0,3.0,2.0,0.0,5.0,5.0,347.8460940000332,1.0,1.0,phase_2,go,250.0,450.0,1.0,,,,,,,,,gray,hexagon
0.0,8.0,4.0,1.0,5.0,0.0,0.0,1.0,1.0,phase_2,stop,250.0,450.0,4.0,,,,,,,,,green,diamond
0.0,2.0,1.0,0.0,6.0,6.0,762.4952730000132,1.0,1.0,phase_2,go,300.0,450.0,1.0,,,,,,,,,cyan,cross
0.0,4.0,4.0,0.0,6.0,6.0,394.8676820000401,1.0,1.0,phase_2,go,300.0,450.0,1.0,,,,,,,,,yellow,flipped triangle
0.0,7.0,2.0,1.0,6.0,0.0,0.0,1.0,1.0,phase_2,stop,300.0,450.0,4.0,,,,,,,,,magenta,triangle
0.0,3.0,2.0,0.0,6.0,6.0,775.359854999806,1.0,1.0,phase_2,go,300.0,500.0,1.0,,,,,,,,,gray,hexagon
0.0,3.0,2.0,0.0,5.0,5.0,807.8269259999615,1.0,1.0,phase_2,go,300.0,500.0,1.0,,,,,,,,,gray,hexagon
0.0,4.0,4.0,0.0,6.0,6.0,717.1173040001122,1.0,1.0,phase_2,go,300.0,500.0,1.0,,,,,,,,,yellow,flipped triangle
0.0,5.0,0.5,1.0,6.0,0.0,0.0,1.0,1.0,phase_2,stop,300.0,500.0,4.0,,,,,,,,,blue,circle
0.0,1.0,0.5,0.0,5.0,5.0,1075.8937699999933,1.0,1.0,phase_2,go,300.0,550.0,1.0,,,,,,,,,orange,I
0.0,7.0,2.0,1.0,6.0,0.0,0.0,1.0,1.0,phase_2,stop,300.0,550.0,4.0,,,,,,,,,magenta,triangle
0.0,8.0,4.0,1.0,5.0,0.0,0.0,1.0,1.0,phase_2,stop,300.0,600.0,4.0,,,,,,,,,green,diamond
0.0,7.0,2.0,1.0,5.0,0.0,0.0,1.0,1.0,phase_2,stop,350.0,600.0,4.0,,,,,,,,,magenta,triangle
0.0,6.0,1.0,1.0,5.0,5.0,770.0929840000299,1.0,1.0,phase_2,go,400.0,600.0,1.0,,,,,,,,,white,square
0.0,1.0,0.5,0.0,6.0,6.0,812.8951979999783,1.0,1.0,phase_2,go,400.0,600.0,1.0,,,,,,,,,orange,I
0.0,8.0,4.0,1.0,5.0,0.0,0.0,1.0,1.0,phase_2,stop,400.0,600.0,4.0,,,,,,,,,green,diamond
0.0,5.0,0.5,1.0,5.0,5.0,832.730975000004,1.0,1.0,phase_2,go,450.0,600.0,1.0,,,,,,,,,blue,circle
0.0,8.0,4.0,1.0,5.0,5.0,328.9525570003206,2.0,1.0,phase_2,stop,450.0,600.0,3.0,,,,,,,,,green,diamond
0.0,7.0,2.0,1.0,6.0,6.0,270.7781389999582,2.0,1.0,phase_2,stop,400.0,600.0,3.0,,,,,,,,,magenta,triangle
0.0,3.0,2.0,0.0,6.0,6.0,470.0139050000871,2.0,1.0,phase_2,go,400.0,550.0,1.0,,,,,,,,,gray,hexagon
0.0,1.0,0.5,0.0,6.0,6.0,352.2449870001765,2.0,1.0,phase_2,go,400.0,550.0,1.0,,,,,,,,,orange,I
0.0,7.0,2.0,1.0,6.0,6.0,388.6026829995899,2.0,1.0,phase_2,stop,400.0,550.0,3.0,,,,,,,,,magenta,triangle
0.0,3.0,2.0,0.0,5.0,5.0,455.4251829999884,2.0,1.0,phase_2,go,400.0,500.0,1.0,,,,,,,,,gray,hexagon
0.0,3.0,2.0,0.0,6.0,6.0,543.000715999824,2.0,1.0,phase_2,go,400.0,500.0,1.0,,,,,,,,,gray,hexagon
0.0,6.0,1.0,1.0,5.0,5.0,526.6707199998564,2.0,1.0,phase_2,stop,400.0,500.0,3.0,,,,,,,,,white,square
0.0,5.0,0.5,1.0,5.0,5.0,654.3827579998833,2.0,1.0,phase_2,go,350.0,500.0,1.0,,,,,,,,,blue,circle
0.0,3.0,2.0,0.0,6.0,6.0,713.4462710000662,2.0,1.0,phase_2,go,350.0,500.0,1.0,,,,,,,,,gray,hexagon
0.0,3.0,2.0,0.0,5.0,5.0,664.8306729998694,2.0,1.0,phase_2,go,350.0,500.0,1.0,,,,,,,,,gray,hexagon
0.0,4.0,4.0,0.0,5.0,5.0,354.0965329998471,2.0,1.0,phase_2,go,350.0,500.0,1.0,,,,,,,,,yellow,flipped triangle
0.0,2.0,1.0,0.0,6.0,6.0,563.1013050001457,2.0,1.0,phase_2,go,350.0,500.0,1.0,,,,,,,,,cyan,cross
0.0,2.0,1.0,0.0,6.0,6.0,600.1407620001373,2.0,1.0,phase_2,go,350.0,500.0,1.0,,,,,,,,,cyan,cross
0.0,2.0,1.0,0.0,5.0,5.0,265.0184200001604,2.0,1.0,phase_2,go,350.0,500.0,1.0,,,,,,,,,cyan,cross
0.0,5.0,0.5,1.0,5.0,5.0,311.9652529999257,2.0,1.0,phase_2,stop,350.0,500.0,3.0,,,,,,,,,blue,circle
0.0,7.0,2.0,1.0,5.0,0.0,0.0,2.0,1.0,phase_2,stop,300.0,500.0,4.0,,,,,,,,,magenta,triangle
0.0,4.0,4.0,0.0,6.0,6.0,301.357815999836,2.0,1.0,phase_2,go,350.0,500.0,1.0,,,,,,,,,yellow,flipped triangle
0.0,2.0,1.0,0.0,5.0,5.0,351.012016000368,2.0,1.0,phase_2,go,350.0,500.0,1.0,,,,,,,,,cyan,cross
0.0,2.0,1.0,0.0,6.0,6.0,606.3484930000413,2.0,1.0,phase_2,go,350.0,500.0,1.0,,,,,,,,,cyan,cross
0.0,1.0,0.5,0.0,5.0,5.0,756.0545859996637,2.0,1.0,phase_2,go,350.0,500.0,1.0,,,,,,,,,orange,I
0.0,1.0,0.5,0.0,5.0,5.0,575.328853999963,2.0,1.0,phase_2,go,350.0,500.0,1.0,,,,,,,,,orange,I
0.0,1.0,0.5,0.0,6.0,6.0,501.00759699989794,2.0,1.0,phase_2,go,350.0,500.0,1.0,,,,,,,,,orange,I
0.0,2.0,1.0,0.0,5.0,5.0,262.0129770002677,2.0,1.0,phase_2,go,350.0,500.0,1.0,,,,,,,,,cyan,cross
0.0,2.0,1.0,0.0,6.0,6.0,562.1342439999353,2.0,1.0,phase_2,go,350.0,500.0,1.0,,,,,,,,,cyan,cross
0.0,6.0,1.0,1.0,5.0,5.0,378.2527469998058,2.0,1.0,phase_2,stop,350.0,500.0,3.0,,,,,,,,,white,square
0.0,3.0,2.0,0.0,6.0,6.0,703.8703029998032,2.0,1.0,phase_2,go,300.0,500.0,1.0,,,,,,,,,gray,hexagon
0.0,8.0,4.0,1.0,6.0,6.0,792.2012569997605,2.0,1.0,phase_2,stop,300.0,500.0,3.0,,,,,,,,,green,diamond
0.0,5.0,0.5,1.0,5.0,5.0,905.1645569998072,2.0,1.0,phase_2,go,300.0,450.0,1.0,,,,,,,,,blue,circle
0.0,1.0,0.5,0.0,6.0,6.0,368.5336470002767,2.0,1.0,phase_2,go,300.0,450.0,1.0,,,,,,,,,orange,I
0.0,2.0,1.0,0.0,6.0,6.0,510.8679380000467,2.0,1.0,phase_2,go,300.0,450.0,1.0,,,,,,,,,cyan,cross
0.0,8.0,4.0,1.0,6.0,0.0,0.0,2.0,1.0,phase_2,stop,300.0,450.0,4.0,,,,,,,,,green,diamond
0.0,5.0,0.5,1.0,5.0,0.0,0.0,2.0,1.0,phase_2,stop,300.0,500.0,4.0,,,,,,,,,blue,circle
0.0,8.0,4.0,1.0,6.0,6.0,581.4142770000217,2.0,1.0,phase_2,stop,350.0,500.0,3.0,,,,,,,,,green,diamond
0.0,2.0,1.0,0.0,6.0,6.0,733.3511729998463,2.0,1.0,phase_2,go,350.0,450.0,1.0,,,,,,,,,cyan,cross
0.0,4.0,4.0,0.0,5.0,5.0,695.4592199999752,2.0,1.0,phase_2,go,350.0,450.0,1.0,,,,,,,,,yellow,flipped triangle
0.0,5.0,0.5,1.0,5.0,5.0,389.7743519996766,3.0,1.0,phase_2,stop,350.0,450.0,3.0,,,,,,,,,blue,circle
0.0,3.0,2.0,0.0,6.0,6.0,422.5435130001642,3.0,1.0,phase_2,go,300.0,450.0,1.0,,,,,,,,,gray,hexagon
0.0,1.0,0.5,0.0,5.0,5.0,554.9553199998627,3.0,1.0,phase_2,go,300.0,450.0,1.0,,,,,,,,,orange,I
0.0,1.0,0.5,0.0,6.0,6.0,427.3915429998851,3.0,1.0,phase_2,go,300.0,450.0,1.0,,,,,,,,,orange,I
0.0,4.0,4.0,0.0,5.0,5.0,577.38914499987,3.0,1.0,phase_2,go,300.0,450.0,1.0,,,,,,,,,yellow,flipped triangle
0.0,7.0,2.0,1.0,6.0,6.0,432.7451809999729,3.0,1.0,phase_2,stop,300.0,450.0,3.0,,,,,,,,,magenta,triangle
0.0,1.0,0.5,0.0,6.0,6.0,1001.9655940000121,3.0,1.0,phase_2,go,300.0,400.0,1.0,,,,,,,,,orange,I
0.0,7.0,2.0,1.0,5.0,0.0,0.0,3.0,1.0,phase_2,stop,300.0,400.0,4.0,,,,,,,,,magenta,triangle
0.0,3.0,2.0,0.0,6.0,6.0,657.7903500001412,3.0,1.0,phase_2,go,350.0,400.0,1.0,,,,,,,,,gray,hexagon
0.0,2.0,1.0,0.0,5.0,5.0,800.7904629998848,3.0,1.0,phase_2,go,350.0,400.0,1.0,,,,,,,,,cyan,cross
0.0,3.0,2.0,0.0,5.0,5.0,741.5870700001506,3.0,1.0,phase_2,go,350.0,400.0,1.0,,,,,,,,,gray,hexagon
0.0,5.0,0.5,1.0,5.0,0.0,0.0,3.0,1.0,phase_2,stop,350.0,400.0,4.0,,,,,,,,,blue,circle
0.0,4.0,4.0,0.0,6.0,6.0,604.6732949998841,3.0,1.0,phase_2,go,400.0,400.0,1.0,,,,,,,,,yellow,flipped triangle
0.0,6.0,1.0,1.0,6.0,0.0,0.0,3.0,1.0,phase_2,stop,400.0,400.0,4.0,,,,,,,,,white,square
0.0,7.0,2.0,1.0,6.0,6.0,702.426935999938,3.0,1.0,phase_2,go,400.0,450.0,1.0,,,,,,,,,magenta,triangle
0.0,4.0,4.0,0.0,6.0,6.0,597.6292589998593,3.0,1.0,phase_2,go,400.0,450.0,1.0,,,,,,,,,yellow,flipped triangle
0.0,6.0,1.0,1.0,6.0,0.0,0.0,3.0,1.0,phase_2,stop,400.0,450.0,4.0,,,,,,,,,white,square
0.0,3.0,2.0,0.0,6.0,6.0,556.125549999706,3.0,1.0,phase_2,go,400.0,500.0,1.0,,,,,,,,,gray,hexagon
0.0,6.0,1.0,1.0,5.0,0.0,0.0,3.0,1.0,phase_2,stop,400.0,500.0,4.0,,,,,,,,,white,square
0.0,3.0,2.0,0.0,5.0,5.0,667.6403649998974,3.0,1.0,phase_2,go,450.0,500.0,1.0,,,,,,,,,gray,hexagon
0.0,3.0,2.0,0.0,5.0,5.0,771.3182370002869,3.0,1.0,phase_2,go,450.0,500.0,1.0,,,,,,,,,gray,hexagon
0.0,8.0,4.0,1.0,6.0,0.0,0.0,3.0,1.0,phase_2,stop,450.0,500.0,4.0,,,,,,,,,green,diamond
0.0,7.0,2.0,1.0,6.0,0.0,0.0,3.0,1.0,phase_2,stop,450.0,550.0,4.0,,,,,,,,,magenta,triangle
0.0,6.0,1.0,1.0,6.0,6.0,534.711217000222,3.0,1.0,phase_2,stop,450.0,600.0,3.0,,,,,,,,,white,square
0.0,1.0,0.5,0.0,6.0,6.0,725.5187830000978,3.0,1.0,phase_2,go,450.0,550.0,1.0,,,,,,,,,orange,I
0.0,5.0,0.5,1.0,5.0,0.0,0.0,3.0,1.0,phase_2,stop,450.0,550.0,4.0,,,,,,,,,blue,circle
0.0,6.0,1.0,1.0,5.0,0.0,0.0,3.0,1.0,phase_2,stop,500.0,550.0,4.0,,,,,,,,,white,square
0.0,1.0,0.5,0.0,5.0,5.0,750.5888030000278,3.0,1.0,phase_2,go,550.0,550.0,1.0,,,,,,,,,orange,I
0.0,2.0,1.0,0.0,5.0,5.0,812.276557000132,3.0,1.0,phase_2,go,550.0,550.0,1.0,,,,,,,,,cyan,cross
0.0,3.0,2.0,0.0,6.0,6.0,813.5492950000298,3.0,1.0,phase_2,go,550.0,550.0,1.0,,,,,,,,,gray,hexagon
0.0,6.0,1.0,1.0,5.0,0.0,0.0,3.0,1.0,phase_2,stop,550.0,550.0,4.0,,,,,,,,,white,square
0.0,1.0,0.5,0.0,6.0,6.0,709.7340880000047,3.0,1.0,phase_2,go,600.0,550.0,1.0,,,,,,,,,orange,I
0.0,4.0,4.0,0.0,6.0,6.0,842.1179869997104,3.0,1.0,phase_2,go,600.0,550.0,1.0,,,,,,,,,yellow,flipped triangle
0.0,8.0,4.0,1.0,6.0,0.0,0.0,3.0,1.0,phase_2,stop,600.0,550.0,4.0,,,,,,,,,green,diamond
0.0,5.0,0.5,1.0,6.0,6.0,807.919227000184,3.0,1.0,phase_2,go,600.0,600.0,1.0,,,,,,,,,blue,circle
0.0,8.0,4.0,1.0,6.0,0.0,0.0,3.0,1.0,phase_2,stop,600.0,600.0,4.0,,,,,,,,,green,diamond
0.0,8.0,4.0,1.0,5.0,5.0,350.9160409998912,4.0,1.0,phase_2,stop,600.0,650.0,3.0,,,,,,,,,green,diamond
0.0,3.0,2.0,0.0,6.0,6.0,461.1674630000379,4.0,1.0,phase_2,go,550.0,650.0,1.0,,,,,,,,,gray,hexagon
0.0,4.0,4.0,0.0,5.0,5.0,572.8071909998107,4.0,1.0,phase_2,go,550.0,650.0,1.0,,,,,,,,,yellow,flipped triangle
0.0,6.0,1.0,1.0,5.0,5.0,634.3001059999551,4.0,1.0,phase_2,stop,550.0,650.0,3.0,,,,,,,,,white,square
0.0,8.0,4.0,1.0,5.0,0.0,0.0,4.0,1.0,phase_2,stop,500.0,650.0,4.0,,,,,,,,,green,diamond
0.0,4.0,4.0,0.0,5.0,5.0,818.8998680002442,4.0,1.0,phase_2,go,550.0,650.0,1.0,,,,,,,,,yellow,flipped triangle
0.0,7.0,2.0,1.0,5.0,5.0,644.0730889999031,4.0,1.0,phase_2,go,550.0,650.0,1.0,,,,,,,,,magenta,triangle
0.0,2.0,1.0,0.0,6.0,6.0,585.2523919998021,4.0,1.0,phase_2,go,550.0,650.0,1.0,,,,,,,,,cyan,cross
0.0,1.0,0.5,0.0,5.0,5.0,563.3530889999747,4.0,1.0,phase_2,go,550.0,650.0,1.0,,,,,,,,,orange,I
0.0,4.0,4.0,0.0,5.0,5.0,697.5373519999266,4.0,1.0,phase_2,go,550.0,650.0,1.0,,,,,,,,,yellow,flipped triangle
0.0,7.0,2.0,1.0,5.0,5.0,572.7525400002378,4.0,1.0,phase_2,stop,550.0,650.0,3.0,,,,,,,,,magenta,triangle
0.0,3.0,2.0,0.0,6.0,6.0,560.3601809998509,4.0,1.0,phase_2,go,500.0,650.0,1.0,,,,,,,,,gray,hexagon
0.0,8.0,4.0,1.0,5.0,0.0,0.0,4.0,1.0,phase_2,stop,500.0,650.0,4.0,,,,,,,,,green,diamond
0.0,7.0,2.0,1.0,6.0,6.0,871.355911000137,4.0,1.0,phase_2,go,550.0,650.0,1.0,,,,,,,,,magenta,triangle
0.0,2.0,1.0,0.0,5.0,5.0,804.2304099999456,4.0,1.0,phase_2,go,550.0,650.0,1.0,,,,,,,,,cyan,cross
0.0,5.0,0.5,1.0,6.0,6.0,683.652498000356,4.0,1.0,phase_2,stop,550.0,650.0,3.0,,,,,,,,,blue,circle
0.0,1.0,0.5,0.0,5.0,5.0,765.0497600002382,4.0,1.0,phase_2,go,550.0,600.0,1.0,,,,,,,,,orange,I
0.0,5.0,0.5,1.0,6.0,6.0,706.4853759998186,4.0,1.0,phase_2,stop,550.0,600.0,3.0,,,,,,,,,blue,circle
0.0,4.0,4.0,0.0,6.0,6.0,809.4634739995854,4.0,1.0,phase_2,go,550.0,550.0,1.0,,,,,,,,,yellow,flipped triangle
0.0,6.0,1.0,1.0,6.0,6.0,349.390652999773,4.0,1.0,phase_2,stop,550.0,550.0,3.0,,,,,,,,,white,square
0.0,8.0,4.0,1.0,5.0,5.0,672.9134239999439,4.0,1.0,phase_2,stop,550.0,500.0,3.0,,,,,,,,,green,diamond
0.0,4.0,4.0,0.0,5.0,5.0,761.3084279996656,4.0,1.0,phase_2,go,500.0,500.0,1.0,,,,,,,,,yellow,flipped triangle
0.0,2.0,1.0,0.0,5.0,5.0,1083.4987840003123,4.0,1.0,phase_2,go,500.0,500.0,1.0,,,,,,,,,cyan,cross
0.0,2.0,1.0,0.0,6.0,6.0,721.280244999889,4.0,1.0,phase_2,go,500.0,500.0,1.0,,,,,,,,,cyan,cross
0.0,6.0,1.0,1.0,6.0,6.0,786.010884999996,4.0,1.0,phase_2,go,500.0,500.0,1.0,,,,,,,,,white,square
0.0,6.0,1.0,1.0,5.0,0.0,0.0,4.0,1.0,phase_2,stop,500.0,500.0,4.0,,,,,,,,,white,square
0.0,4.0,4.0,0.0,6.0,6.0,967.2214369998072,4.0,1.0,phase_2,go,550.0,500.0,1.0,,,,,,,,,yellow,flipped triangle
0.0,4.0,4.0,0.0,5.0,5.0,965.7136999999238,4.0,1.0,phase_2,go,550.0,500.0,1.0,,,,,,,,,yellow,flipped triangle
0.0,7.0,2.0,1.0,6.0,6.0,341.2020599998868,4.0,1.0,phase_2,stop,550.0,500.0,3.0,,,,,,,,,magenta,triangle
0.0,8.0,4.0,1.0,6.0,6.0,734.7574460000033,4.0,1.0,phase_2,go,550.0,450.0,1.0,,,,,,,,,green,diamond
0.0,3.0,2.0,0.0,5.0,5.0,819.2530459996306,4.0,1.0,phase_2,go,550.0,450.0,1.0,,,,,,,,,gray,hexagon
0.0,1.0,0.5,0.0,5.0,5.0,901.37757399998,4.0,1.0,phase_2,go,550.0,450.0,1.0,,,,,,,,,orange,I
0.0,6.0,1.0,1.0,5.0,0.0,0.0,4.0,1.0,phase_2,stop,550.0,450.0,4.0,,,,,,,,,white,square
0.0,6.0,1.0,1.0,6.0,0.0,0.0,4.0,1.0,phase_2,stop,600.0,450.0,4.0,,,,,,,,,white,square
0.0,3.0,2.0,0.0,5.0,5.0,837.435128999914,4.0,1.0,phase_2,go,600.0,500.0,1.0,,,,,,,,,gray,hexagon
0.0,5.0,0.5,1.0,5.0,0.0,0.0,4.0,1.0,phase_2,stop,600.0,500.0,4.0,,,,,,,,,blue,circle
0.0,1.0,0.5,0.0,6.0,6.0,704.7345199998745,5.0,1.0,phase_2,go,650.0,500.0,1.0,,,,,,,,,orange,I
0.0,8.0,4.0,1.0,5.0,5.0,775.8327510000527,5.0,1.0,phase_2,stop,650.0,500.0,3.0,,,,,,,,,green,diamond
0.0,4.0,4.0,0.0,6.0,6.0,719.0477899998768,5.0,1.0,phase_2,go,600.0,500.0,1.0,,,,,,,,,yellow,flipped triangle
0.0,8.0,4.0,1.0,6.0,0.0,0.0,5.0,1.0,phase_2,stop,600.0,500.0,4.0,,,,,,,,,green,diamond
0.0,4.0,4.0,0.0,6.0,6.0,789.9041620003118,5.0,1.0,phase_2,go,600.0,550.0,1.0,,,,,,,,,yellow,flipped triangle
0.0,5.0,0.5,1.0,6.0,0.0,0.0,5.0,1.0,phase_2,stop,600.0,550.0,4.0,,,,,,,,,blue,circle
0.0,6.0,1.0,1.0,6.0,0.0,0.0,5.0,1.0,phase_2,stop,600.0,600.0,4.0,,,,,,,,,white,square
0.0,3.0,2.0,0.0,5.0,5.0,730.7716190002793,5.0,1.0,phase_2,go,600.0,650.0,1.0,,,,,,,,,gray,hexagon
0.0,7.0,2.0,1.0,6.0,0.0,0.0,5.0,1.0,phase_2,stop,600.0,650.0,4.0,,,,,,,,,magenta,triangle
0.0,1.0,0.5,0.0,5.0,5.0,848.3216370000264,5.0,1.0,phase_2,go,600.0,700.0,1.0,,,,,,,,,orange,I
0.0,4.0,4.0,0.0,6.0,6.0,888.0962530001852,5.0,1.0,phase_2,go,600.0,700.0,1.0,,,,,,,,,yellow,flipped triangle
0.0,7.0,2.0,1.0,5.0,0.0,0.0,5.0,1.0,phase_2,stop,600.0,700.0,4.0,,,,,,,,,magenta,triangle
0.0,1.0,0.5,0.0,5.0,5.0,815.0162360002469,5.0,1.0,phase_2,go,650.0,700.0,1.0,,,,,,,,,orange,I
0.0,3.0,2.0,0.0,5.0,5.0,832.0569019997492,5.0,1.0,phase_2,go,650.0,700.0,1.0,,,,,,,,,gray,hexagon
0.0,7.0,2.0,1.0,6.0,6.0,789.8404030001984,5.0,1.0,phase_2,go,650.0,700.0,1.0,,,,,,,,,magenta,triangle
0.0,5.0,0.5,1.0,6.0,6.0,781.2252290000288,5.0,1.0,phase_2,stop,650.0,700.0,3.0,,,,,,,,,blue,circle
0.0,5.0,0.5,1.0,6.0,6.0,725.6827700002759,5.0,1.0,phase_2,stop,650.0,650.0,3.0,,,,,,,,,blue,circle
0.0,8.0,4.0,1.0,6.0,6.0,959.5097189999252,5.0,1.0,phase_2,go,650.0,600.0,1.0,,,,,,,,,green,diamond
0.0,3.0,2.0,0.0,6.0,6.0,891.2331110000196,5.0,1.0,phase_2,go,650.0,600.0,1.0,,,,,,,,,gray,hexagon
0.0,7.0,2.0,1.0,5.0,0.0,0.0,5.0,1.0,phase_2,stop,650.0,600.0,4.0,,,,,,,,,magenta,triangle
0.0,5.0,0.5,1.0,6.0,0.0,0.0,5.0,1.0,phase_2,stop,700.0,600.0,4.0,,,,,,,,,blue,circle
0.0,1.0,0.5,0.0,5.0,5.0,821.490267000172,5.0,1.0,phase_2,go,700.0,650.0,1.0,,,,,,,,,orange,I
0.0,2.0,1.0,0.0,6.0,6.0,800.9395180001775,5.0,1.0,phase_2,go,700.0,650.0,1.0,,,,,,,,,cyan,cross
0.0,3.0,2.0,0.0,6.0,6.0,963.7413310001648,5.0,1.0,phase_2,go,700.0,650.0,1.0,,,,,,,,,gray,hexagon
0.0,6.0,1.0,1.0,5.0,0.0,0.0,5.0,1.0,phase_2,stop,700.0,650.0,4.0,,,,,,,,,white,square
0.0,1.0,0.5,0.0,6.0,6.0,785.3258820000519,5.0,1.0,phase_2,go,750.0,650.0,1.0,,,,,,,,,orange,I
0.0,2.0,1.0,0.0,6.0,6.0,910.8619760004332,5.0,1.0,phase_2,go,750.0,650.0,1.0,,,,,,,,,cyan,cross
0.0,4.0,4.0,0.0,5.0,5.0,794.2406939996545,5.0,1.0,phase_2,go,750.0,650.0,1.0,,,,,,,,,yellow,flipped triangle
0.0,5.0,0.5,1.0,6.0,0.0,0.0,5.0,1.0,phase_2,stop,750.0,650.0,4.0,,,,,,,,,blue,circle
0.0,7.0,2.0,1.0,6.0,6.0,816.1154609997539,5.0,1.0,phase_2,stop,750.0,700.0,3.0,,,,,,,,,magenta,triangle
0.0,3.0,2.0,0.0,5.0,5.0,696.950279000248,5.0,1.0,phase_2,go,750.0,650.0,1.0,,,,,,,,,gray,hexagon
0.0,8.0,4.0,1.0,6.0,6.0,990.6229419998454,5.0,1.0,phase_2,go,750.0,650.0,1.0,,,,,,,,,green,diamond
0.0,1.0,0.5,0.0,5.0,5.0,942.371500000263,5.0,1.0,phase_2,go,750.0,650.0,1.0,,,,,,,,,orange,I
0.0,2.0,1.0,0.0,5.0,5.0,878.0081029999565,5.0,1.0,phase_2,go,750.0,650.0,1.0,,,,,,,,,cyan,cross
0.0,8.0,4.0,1.0,5.0,0.0,0.0,5.0,1.0,phase_2,stop,750.0,650.0,4.0,,,,,,,,,green,diamond
0.0,6.0,1.0,1.0,5.0,0.0,0.0,5.0,1.0,phase_2,stop,800.0,650.0,4.0,,,,,,,,,white,square
0.0,5.0,0.5,1.0,6.0,6.0,1300.8360349999748,6.0,1.0,phase_2,go,850.0,650.0,1.0,,,,,,,,,blue,circle
0.0,5.0,0.5,1.0,5.0,5.0,541.5093729998262,6.0,1.0,phase_2,stop,850.0,650.0,3.0,,,,,,,,,blue,circle
0.0,2.0,1.0,0.0,5.0,5.0,754.9298140002065,6.0,1.0,phase_2,go,800.0,650.0,1.0,,,,,,,,,cyan,cross
0.0,8.0,4.0,1.0,6.0,6.0,834.5751299998483,6.0,1.0,phase_2,stop,800.0,650.0,3.0,,,,,,,,,green,diamond
0.0,8.0,4.0,1.0,5.0,5.0,874.0941339997335,6.0,1.0,phase_2,go,800.0,600.0,1.0,,,,,,,,,green,diamond
0.0,5.0,0.5,1.0,6.0,0.0,0.0,6.0,1.0,phase_2,stop,800.0,600.0,4.0,,,,,,,,,blue,circle
0.0,7.0,2.0,1.0,6.0,6.0,776.2499169998591,6.0,1.0,phase_2,stop,800.0,650.0,3.0,,,,,,,,,magenta,triangle
0.0,3.0,2.0,0.0,6.0,6.0,1033.8584319997608,6.0,1.0,phase_2,go,800.0,600.0,1.0,,,,,,,,,gray,hexagon
0.0,3.0,2.0,0.0,6.0,6.0,1169.2696240002078,6.0,1.0,phase_2,go,800.0,600.0,1.0,,,,,,,,,gray,hexagon
0.0,5.0,0.5,1.0,6.0,0.0,0.0,6.0,1.0,phase_2,stop,800.0,600.0,4.0,,,,,,,,,blue,circle
0.0,5.0,0.5,1.0,6.0,0.0,0.0,6.0,1.0,phase_2,stop,800.0,650.0,4.0,,,,,,,,,blue,circle
0.0,1.0,0.5,0.0,5.0,5.0,1206.579765999777,6.0,1.0,phase_2,go,800.0,700.0,1.0,,,,,,,,,orange,I
0.0,8.0,4.0,1.0,5.0,0.0,0.0,6.0,1.0,phase_2,stop,800.0,700.0,4.0,,,,,,,,,green,diamond
0.0,8.0,4.0,1.0,5.0,5.0,1071.5008860001944,6.0,1.0,phase_2,go,850.0,700.0,1.0,,,,,,,,,green,diamond
0.0,3.0,2.0,0.0,5.0,5.0,1092.6613269998595,6.0,1.0,phase_2,go,850.0,700.0,1.0,,,,,,,,,gray,hexagon
0.0,2.0,1.0,0.0,6.0,6.0,885.1118829998086,6.0,1.0,phase_2,go,850.0,700.0,1.0,,,,,,,,,cyan,cross
0.0,4.0,4.0,0.0,5.0,5.0,1125.7464860000257,6.0,1.0,phase_2,go,850.0,700.0,1.0,,,,,,,,,yellow,flipped triangle
0.0,5.0,0.5,1.0,6.0,0.0,0.0,6.0,1.0,phase_2,stop,850.0,700.0,4.0,,,,,,,,,blue,circle
0.0,3.0,2.0,0.0,6.0,6.0,1017.6120070000252,6.0,1.0,phase_2,go,850.0,750.0,1.0,,,,,,,,,gray,hexagon
0.0,7.0,2.0,1.0,5.0,5.0,834.0506089998598,6.0,1.0,phase_2,stop,850.0,750.0,3.0,,,,,,,,,magenta,triangle
0.0,2.0,1.0,0.0,6.0,6.0,988.4151400001427,6.0,1.0,phase_2,go,800.0,750.0,1.0,,,,,,,,,cyan,cross
0.0,1.0,0.5,0.0,5.0,5.0,1130.6574440000077,6.0,1.0,phase_2,go,800.0,750.0,1.0,,,,,,,,,orange,I
0.0,1.0,0.5,0.0,6.0,6.0,295.7144219999463,6.0,1.0,phase_2,go,800.0,750.0,1.0,,,,,,,,,orange,I
0.0,4.0,4.0,0.0,5.0,5.0,305.7206970001971,6.0,1.0,phase_2,go,800.0,750.0,1.0,,,,,,,,,yellow,flipped triangle
0.0,6.0,1.0,1.0,6.0,6.0,254.70577499982028,6.0,1.0,phase_2,stop,800.0,750.0,3.0,,,,,,,,,white,square
0.0,7.0,2.0,1.0,6.0,0.0,0.0,6.0,1.0,phase_2,stop,800.0,700.0,4.0,,,,,,,,,magenta,triangle
0.0,2.0,1.0,0.0,5.0,5.0,941.2159769999562,6.0,1.0,phase_2,go,800.0,750.0,1.0,,,,,,,,,cyan,cross
0.0,5.0,0.5,1.0,5.0,0.0,0.0,6.0,1.0,phase_2,stop,800.0,750.0,4.0,,,,,,,,,blue,circle
0.0,7.0,2.0,1.0,5.0,5.0,943.532315000084,6.0,1.0,phase_2,stop,850.0,750.0,3.0,,,,,,,,,magenta,triangle
0.0,1.0,0.5,0.0,5.0,5.0,1118.7118759999066,6.0,1.0,phase_2,go,800.0,750.0,1.0,,,,,,,,,orange,I
0.0,7.0,2.0,1.0,6.0,0.0,0.0,6.0,1.0,phase_2,stop,800.0,750.0,4.0,,,,,,,,,magenta,triangle
0.0,3.0,2.0,0.0,5.0,5.0,1122.7130789998228,6.0,1.0,phase_2,go,800.0,800.0,1.0,,,,,,,,,gray,hexagon
0.0,2.0,1.0,0.0,6.0,6.0,1142.318811000223,6.0,1.0,phase_2,go,800.0,800.0,1.0,,,,,,,,,cyan,cross
0.0,8.0,4.0,1.0,5.0,5.0,1113.6391489999369,6.0,1.0,phase_2,go,800.0,800.0,1.0,,,,,,,,,green,diamond
0.0,2.0,1.0,0.0,5.0,5.0,1011.503040000207,6.0,1.0,phase_2,go,800.0,800.0,1.0,,,,,,,,,cyan,cross
0.0,8.0,4.0,1.0,5.0,0.0,0.0,6.0,1.0,phase_2,stop,800.0,800.0,4.0,,,,,,,,,green,diamond
0.0,4.0,4.0,0.0,5.0,5.0,316.2444959998538,7.0,1.0,phase_2,go,850.0,800.0,1.0,,,,,,,,,yellow,flipped triangle
0.0,8.0,4.0,1.0,5.0,5.0,321.2993770002867,7.0,1.0,phase_2,stop,850.0,800.0,3.0,,,,,,,,,green,diamond
0.0,5.0,0.5,1.0,5.0,5.0,608.8016349999634,7.0,1.0,phase_2,stop,800.0,800.0,3.0,,,,,,,,,blue,circle
0.0,6.0,1.0,1.0,5.0,5.0,520.2389040000526,7.0,1.0,phase_2,go,750.0,800.0,1.0,,,,,,,,,white,square
0.0,4.0,4.0,0.0,6.0,6.0,243.0397049997736,7.0,1.0,phase_2,go,750.0,800.0,1.0,,,,,,,,,yellow,flipped triangle
0.0,8.0,4.0,1.0,6.0,6.0,265.3097009997509,7.0,1.0,phase_2,stop,750.0,800.0,3.0,,,,,,,,,green,diamond
0.0,7.0,2.0,1.0,5.0,5.0,592.7356120000695,7.0,1.0,phase_2,stop,750.0,750.0,3.0,,,,,,,,,magenta,triangle
0.0,5.0,0.5,1.0,5.0,5.0,552.0503160000771,7.0,1.0,phase_2,stop,700.0,750.0,3.0,,,,,,,,,blue,circle
0.0,3.0,2.0,0.0,6.0,6.0,297.4238169999808,7.0,1.0,phase_2,go,650.0,750.0,1.0,,,,,,,,,gray,hexagon
0.0,1.0,0.5,0.0,6.0,6.0,815.3791660001843,7.0,1.0,phase_2,go,650.0,750.0,1.0,,,,,,,,,orange,I
0.0,6.0,1.0,1.0,5.0,5.0,774.4028029997025,7.0,1.0,phase_2,stop,650.0,750.0,3.0,,,,,,,,,white,square
0.0,7.0,2.0,1.0,6.0,0.0,0.0,7.0,1.0,phase_2,stop,600.0,750.0,4.0,,,,,,,,,magenta,triangle
0.0,6.0,1.0,1.0,5.0,0.0,0.0,7.0,1.0,phase_2,stop,600.0,800.0,4.0,,,,,,,,,white,square
0.0,5.0,0.5,1.0,6.0,6.0,1276.2284949999412,7.0,1.0,phase_2,go,650.0,800.0,1.0,,,,,,,,,blue,circle
0.0,7.0,2.0,1.0,5.0,0.0,0.0,7.0,1.0,phase_2,stop,650.0,800.0,4.0,,,,,,,,,magenta,triangle
0.0,7.0,2.0,1.0,5.0,5.0,660.9098819999417,7.0,1.0,phase_2,stop,700.0,800.0,3.0,,,,,,,,,magenta,triangle
0.0,2.0,1.0,0.0,5.0,5.0,729.356918999656,7.0,1.0,phase_2,go,650.0,800.0,1.0,,,,,,,,,cyan,cross
0.0,4.0,4.0,0.0,6.0,6.0,256.2412950001089,7.0,1.0,phase_2,go,650.0,800.0,1.0,,,,,,,,,yellow,flipped triangle
0.0,4.0,4.0,0.0,5.0,5.0,794.8055990000285,7.0,1.0,phase_2,go,650.0,800.0,1.0,,,,,,,,,yellow,flipped triangle
0.0,4.0,4.0,0.0,6.0,6.0,795.0624160002917,7.0,1.0,phase_2,go,650.0,800.0,1.0,,,,,,,,,yellow,flipped triangle
0.0,8.0,4.0,1.0,5.0,0.0,0.0,7.0,1.0,phase_2,stop,650.0,800.0,4.0,,,,,,,,,green,diamond
0.0,8.0,4.0,1.0,6.0,6.0,247.0823410003504,7.0,1.0,phase_2,stop,700.0,800.0,3.0,,,,,,,,,green,diamond
0.0,6.0,1.0,1.0,6.0,6.0,581.7274420001013,7.0,1.0,phase_2,go,700.0,750.0,1.0,,,,,,,,,white,square
0.0,5.0,0.5,1.0,6.0,6.0,693.8961249998101,7.0,1.0,phase_2,stop,700.0,750.0,3.0,,,,,,,,,blue,circle
0.0,1.0,0.5,0.0,5.0,5.0,686.149880999892,7.0,1.0,phase_2,go,700.0,700.0,1.0,,,,,,,,,orange,I
0.0,8.0,4.0,1.0,5.0,5.0,892.4797190002209,7.0,1.0,phase_2,go,700.0,700.0,1.0,,,,,,,,,green,diamond
0.0,6.0,1.0,1.0,6.0,0.0,0.0,7.0,1.0,phase_2,stop,700.0,700.0,4.0,,,,,,,,,white,square
0.0,2.0,1.0,0.0,5.0,5.0,963.4425799999916,7.0,1.0,phase_2,go,700.0,750.0,1.0,,,,,,,,,cyan,cross
0.0,4.0,4.0,0.0,5.0,5.0,725.6681220001155,7.0,1.0,phase_2,go,700.0,750.0,1.0,,,,,,,,,yellow,flipped triangle
0.0,7.0,2.0,1.0,5.0,5.0,548.8852779999434,7.0,1.0,phase_2,go,700.0,750.0,1.0,,,,,,,,,magenta,triangle
0.0,1.0,0.5,0.0,6.0,6.0,226.0756290002064,7.0,1.0,phase_2,go,700.0,750.0,1.0,,,,,,,,,orange,I
0.0,4.0,4.0,0.0,5.0,5.0,233.3313479998651,7.0,1.0,phase_2,go,700.0,750.0,1.0,,,,,,,,,yellow,flipped triangle
0.0,8.0,4.0,1.0,6.0,6.0,242.6523350000025,7.0,1.0,phase_2,stop,700.0,750.0,3.0,,,,,,,,,green,diamond
0.0,5.0,0.5,1.0,5.0,5.0,531.6612029996577,7.0,1.0,phase_2,stop,700.0,700.0,3.0,,,,,,,,,blue,circle
0.0,8.0,4.0,1.0,6.0,6.0,1057.0550309998907,7.0,1.0,phase_2,go,650.0,700.0,1.0,,,,,,,,,green,diamond
0.0,4.0,4.0,0.0,5.0,5.0,888.6085030003414,7.0,1.0,phase_2,go,650.0,700.0,1.0,,,,,,,,,yellow,flipped triangle
0.0,4.0,4.0,0.0,5.0,5.0,788.6046220000935,8.0,1.0,phase_2,go,650.0,700.0,1.0,,,,,,,,,yellow,flipped triangle
0.0,1.0,0.5,0.0,5.0,5.0,839.355980000164,8.0,1.0,phase_2,go,650.0,700.0,1.0,,,,,,,,,orange,I
0.0,7.0,2.0,1.0,5.0,5.0,742.0619270001225,8.0,1.0,phase_2,stop,650.0,700.0,3.0,,,,,,,,,magenta,triangle
0.0,4.0,4.0,0.0,6.0,6.0,635.3056150001066,8.0,1.0,phase_2,go,600.0,700.0,1.0,,,,,,,,,yellow,flipped triangle
0.0,2.0,1.0,0.0,5.0,5.0,806.5785540002253,8.0,1.0,phase_2,go,600.0,700.0,1.0,,,,,,,,,cyan,cross
0.0,4.0,4.0,0.0,6.0,6.0,644.1618480002944,8.0,1.0,phase_2,go,600.0,700.0,1.0,,,,,,,,,yellow,flipped triangle
0.0,6.0,1.0,1.0,5.0,5.0,691.0473770003591,8.0,1.0,phase_2,go,600.0,700.0,1.0,,,,,,,,,white,square
0.0,6.0,1.0,1.0,6.0,6.0,681.288651000159,8.0,1.0,phase_2,go,600.0,700.0,1.0,,,,,,,,,white,square
0.0,1.0,0.5,0.0,6.0,6.0,651.406771999973,8.0,1.0,phase_2,go,600.0,700.0,1.0,,,,,,,,,orange,I
0.0,5.0,0.5,1.0,6.0,0.0,0.0,8.0,1.0,phase_2,stop,600.0,700.0,4.0,,,,,,,,,blue,circle
0.0,6.0,1.0,1.0,5.0,0.0,0.0,8.0,1.0,phase_2,stop,600.0,750.0,4.0,,,,,,,,,white,square
0.0,1.0,0.5,0.0,6.0,6.0,898.7648130000707,8.0,1.0,phase_2,go,650.0,750.0,1.0,,,,,,,,,orange,I
0.0,2.0,1.0,0.0,5.0,5.0,1053.8519850001649,8.0,1.0,phase_2,go,650.0,750.0,1.0,,,,,,,,,cyan,cross
0.0,7.0,2.0,1.0,6.0,6.0,864.1374949997953,8.0,1.0,phase_2,stop,650.0,750.0,3.0,,,,,,,,,magenta,triangle
0.0,3.0,2.0,0.0,5.0,5.0,895.8834239997486,8.0,1.0,phase_2,go,650.0,700.0,1.0,,,,,,,,,gray,hexagon
0.0,7.0,2.0,1.0,6.0,6.0,670.1286690004054,8.0,1.0,phase_2,go,650.0,700.0,1.0,,,,,,,,,magenta,triangle
0.0,8.0,4.0,1.0,6.0,6.0,871.648341999844,8.0,1.0,phase_2,stop,650.0,700.0,3.0,,,,,,,,,green,diamond
0.0,4.0,4.0,0.0,6.0,6.0,991.3453359999947,8.0,1.0,phase_2,go,650.0,650.0,1.0,,,,,,,,,yellow,flipped triangle
0.0,5.0,0.5,1.0,5.0,5.0,851.7122120001659,8.0,1.0,phase_2,go,650.0,650.0,1.0,,,,,,,,,blue,circle
0.0,1.0,0.5,0.0,6.0,6.0,922.0722290001504,8.0,1.0,phase_2,go,650.0,650.0,1.0,,,,,,,,,orange,I
0.0,2.0,1.0,0.0,6.0,6.0,762.9496939998717,8.0,1.0,phase_2,go,650.0,650.0,1.0,,,,,,,,,cyan,cross
0.0,6.0,1.0,1.0,6.0,6.0,785.7683860001998,8.0,1.0,phase_2,stop,650.0,650.0,3.0,,,,,,,,,white,square
0.0,6.0,1.0,1.0,5.0,0.0,0.0,8.0,1.0,phase_2,stop,650.0,600.0,4.0,,,,,,,,,white,square
0.0,1.0,0.5,0.0,6.0,6.0,898.1673110001793,8.0,1.0,phase_2,go,700.0,600.0,1.0,,,,,,,,,orange,I
0.0,6.0,1.0,1.0,6.0,0.0,0.0,8.0,1.0,phase_2,stop,700.0,600.0,4.0,,,,,,,,,white,square
0.0,2.0,1.0,0.0,5.0,5.0,775.6947359998776,8.0,1.0,phase_2,go,700.0,650.0,1.0,,,,,,,,,cyan,cross
0.0,5.0,0.5,1.0,5.0,0.0,0.0,8.0,1.0,phase_2,stop,700.0,650.0,4.0,,,,,,,,,blue,circle
0.0,7.0,2.0,1.0,5.0,5.0,801.9412109997575,8.0,1.0,phase_2,go,750.0,650.0,1.0,,,,,,,,,magenta,triangle
0.0,6.0,1.0,1.0,6.0,6.0,1023.6843010002303,8.0,1.0,phase_2,go,750.0,650.0,1.0,,,,,,,,,white,square
0.0,3.0,2.0,0.0,6.0,6.0,717.7864479999698,8.0,1.0,phase_2,go,750.0,650.0,1.0,,,,,,,,,gray,hexagon
0.0,3.0,2.0,0.0,5.0,5.0,692.4186510000254,8.0,1.0,phase_2,go,750.0,650.0,1.0,,,,,,,,,gray,hexagon
0.0,2.0,1.0,0.0,5.0,5.0,692.355174000113,8.0,1.0,phase_2,go,750.0,650.0,1.0,,,,,,,,,cyan,cross
0.0,2.0,1.0,0.0,6.0,6.0,676.7757899997378,8.0,1.0,phase_2,go,750.0,650.0,1.0,,,,,,,,,cyan,cross
0.0,1.0,0.5,0.0,5.0,5.0,667.1875240003828,8.0,1.0,phase_2,go,750.0,650.0,1.0,,,,,,,,,orange,I
0.0,1.0,0.5,0.0,6.0,6.0,242.6589749998129,8.0,1.0,phase_2,go,750.0,650.0,1.0,,,,,,,,,orange,I
0.0,7.0,2.0,1.0,5.0,5.0,714.2410550000022,8.0,1.0,phase_2,go,750.0,650.0,1.0,,,,,,,,,magenta,triangle
0.0,8.0,4.0,1.0,7.0,5.0,3882.515612000134,1.0,1.0,phase_3,,,,,117.0,3.0,78.0,234.0,39.0,195.0,117.0,156.0,green,diamond
0.0,1.0,0.5,0.0,7.0,3.0,3552.877225999964,1.0,1.0,phase_3,,,,,98.0,2.0,147.0,196.0,98.0,245.0,294.0,49.0,orange,I
0.0,7.0,2.0,1.0,7.0,6.0,2159.271448000254,1.0,1.0,phase_3,,,,,39.0,1.0,195.0,78.0,234.0,117.0,156.0,39.0,magenta,triangle
0.0,3.0,2.0,0.0,7.0,5.0,2011.916250000013,1.0,1.0,phase_3,,,,,216.0,4.0,162.0,108.0,270.0,54.0,216.0,324.0,gray,hexagon
0.0,8.0,4.0,1.0,7.0,6.0,2091.035580999687,1.0,1.0,phase_3,,,,,44.0,1.0,88.0,176.0,132.0,220.0,264.0,44.0,green,diamond
0.0,4.0,4.0,0.0,7.0,4.0,2771.500880000076,1.0,1.0,phase_3,,,,,324.0,6.0,270.0,216.0,54.0,324.0,108.0,162.0,yellow,flipped triangle
0.0,2.0,1.0,0.0,7.0,2.0,3134.0945490001104,1.0,1.0,phase_3,,,,,78.0,2.0,156.0,78.0,117.0,39.0,234.0,195.0,cyan,cross
0.0,3.0,2.0,0.0,7.0,1.0,4789.489065999987,1.0,1.0,phase_3,,,,,270.0,5.0,270.0,216.0,54.0,108.0,324.0,162.0,gray,hexagon
0.0,5.0,0.5,1.0,7.0,2.0,3052.1042330001364,1.0,1.0,phase_3,,,,,98.0,2.0,196.0,98.0,294.0,49.0,147.0,245.0,blue,circle
0.0,8.0,4.0,1.0,7.0,4.0,3949.5828229996728,1.0,1.0,phase_3,,,,,170.0,5.0,204.0,34.0,102.0,170.0,136.0,68.0,green,diamond
0.0,8.0,4.0,1.0,7.0,6.0,3161.714788000154,1.0,1.0,phase_3,,,,,216.0,4.0,108.0,270.0,162.0,54.0,324.0,216.0,green,diamond
0.0,2.0,1.0,0.0,7.0,6.0,2713.505495999925,1.0,1.0,phase_3,,,,,88.0,2.0,264.0,44.0,132.0,176.0,220.0,88.0,cyan,cross
0.0,6.0,1.0,1.0,7.0,3.0,3562.553026000387,1.0,1.0,phase_3,,,,,234.0,6.0,78.0,195.0,234.0,39.0,117.0,156.0,white,square
0.0,6.0,1.0,1.0,7.0,1.0,3580.75264099989,1.0,1.0,phase_3,,,,,176.0,4.0,176.0,88.0,44.0,220.0,264.0,132.0,white,square
0.0,3.0,2.0,0.0,7.0,4.0,3822.88834100018,1.0,1.0,phase_3,,,,,195.0,5.0,39.0,117.0,156.0,195.0,234.0,78.0,gray,hexagon
0.0,6.0,1.0,1.0,7.0,2.0,3646.752890999778,1.0,1.0,phase_3,,,,,294.0,6.0,98.0,294.0,49.0,196.0,147.0,245.0,white,square
0.0,1.0,0.5,0.0,7.0,1.0,3761.881635000009,1.0,1.0,phase_3,,,,,220.0,5.0,220.0,132.0,44.0,88.0,176.0,264.0,orange,I
0.0,5.0,0.5,1.0,7.0,4.0,1401.5001809998466,1.0,1.0,phase_3,,,,,39.0,1.0,234.0,78.0,156.0,39.0,117.0,195.0,blue,circle
0.0,2.0,1.0,0.0,7.0,1.0,4105.442285000208,1.0,1.0,phase_3,,,,,147.0,3.0,147.0,294.0,245.0,98.0,196.0,49.0,cyan,cross
0.0,3.0,2.0,0.0,7.0,5.0,3276.475430000118,1.0,1.0,phase_3,,,,,176.0,4.0,88.0,220.0,132.0,264.0,176.0,44.0,gray,hexagon
0.0,8.0,4.0,1.0,7.0,5.0,2824.951348000013,2.0,1.0,phase_3,,,,,170.0,5.0,68.0,34.0,102.0,136.0,170.0,204.0,green,diamond
0.0,3.0,2.0,0.0,7.0,1.0,2658.951531999719,2.0,1.0,phase_3,,,,,220.0,5.0,220.0,44.0,264.0,132.0,88.0,176.0,gray,hexagon
0.0,1.0,0.5,0.0,7.0,6.0,2222.3970260001806,2.0,1.0,phase_3,,,,,102.0,3.0,204.0,170.0,68.0,136.0,34.0,102.0,orange,I
0.0,1.0,0.5,0.0,7.0,5.0,1357.484881000346,2.0,1.0,phase_3,,,,,117.0,3.0,39.0,156.0,234.0,78.0,117.0,195.0,orange,I
0.0,8.0,4.0,1.0,7.0,3.0,1746.133480000026,2.0,1.0,phase_3,,,,,44.0,1.0,220.0,88.0,44.0,176.0,132.0,264.0,green,diamond
0.0,7.0,2.0,1.0,7.0,2.0,2264.518259999932,2.0,1.0,phase_3,,,,,132.0,3.0,220.0,132.0,88.0,176.0,44.0,264.0,magenta,triangle
0.0,6.0,1.0,1.0,7.0,5.0,4099.065852999956,2.0,1.0,phase_3,,,,,216.0,4.0,270.0,108.0,162.0,324.0,216.0,54.0,white,square
0.0,2.0,1.0,0.0,7.0,6.0,3408.597634000216,2.0,1.0,phase_3,,,,,270.0,5.0,54.0,216.0,162.0,324.0,108.0,270.0,cyan,cross
0.0,3.0,2.0,0.0,7.0,1.0,2130.0045930001943,2.0,1.0,phase_3,,,,,170.0,5.0,170.0,68.0,136.0,204.0,34.0,102.0,gray,hexagon
0.0,3.0,2.0,0.0,7.0,5.0,3383.913593000216,2.0,1.0,phase_3,,,,,195.0,5.0,39.0,117.0,234.0,78.0,195.0,156.0,gray,hexagon
0.0,5.0,0.5,1.0,7.0,4.0,4540.499766999801,2.0,1.0,phase_3,,,,,108.0,2.0,54.0,324.0,162.0,108.0,216.0,270.0,blue,circle
0.0,6.0,1.0,1.0,7.0,6.0,675.611452999874,2.0,2.0,phase_3,,,,,147.0,3.0,196.0,49.0,294.0,98.0,245.0,147.0,white,square
0.0,1.0,0.5,0.0,7.0,4.0,2139.5434300002307,2.0,1.0,phase_3,,,,,132.0,3.0,220.0,264.0,176.0,132.0,88.0,44.0,orange,I
0.0,5.0,0.5,1.0,7.0,2.0,2701.1653180002213,2.0,1.0,phase_3,,,,,170.0,5.0,68.0,170.0,136.0,204.0,102.0,34.0,blue,circle
0.0,5.0,0.5,1.0,7.0,4.0,2745.2902650002216,2.0,1.0,phase_3,,,,,102.0,3.0,204.0,34.0,170.0,102.0,136.0,68.0,blue,circle
0.0,7.0,2.0,1.0,7.0,4.0,3617.6030829997217,2.0,1.0,phase_3,,,,,204.0,6.0,68.0,170.0,102.0,204.0,34.0,136.0,magenta,triangle
0.0,4.0,4.0,0.0,7.0,2.0,2331.4927460000945,2.0,1.0,phase_3,,,,,234.0,6.0,78.0,234.0,39.0,195.0,117.0,156.0,yellow,flipped triangle
0.0,7.0,2.0,1.0,7.0,6.0,2748.3036000003267,2.0,1.0,phase_3,,,,,54.0,1.0,162.0,108.0,216.0,270.0,324.0,54.0,magenta,triangle
0.0,1.0,0.5,0.0,7.0,5.0,3439.199922999705,2.0,1.0,phase_3,,,,,108.0,2.0,54.0,270.0,324.0,216.0,108.0,162.0,orange,I
0.0,4.0,4.0,0.0,7.0,5.0,2814.6440269997584,2.0,1.0,phase_3,,,,,195.0,5.0,78.0,39.0,234.0,117.0,195.0,156.0,yellow,flipped triangle
0.0,7.0,2.0,1.0,7.0,2.0,1441.221693999978,3.0,1.0,phase_3,,,,,156.0,4.0,234.0,156.0,39.0,195.0,78.0,117.0,magenta,triangle
0.0,6.0,1.0,1.0,7.0,6.0,2131.2354810002034,3.0,1.0,phase_3,,,,,132.0,3.0,264.0,44.0,88.0,176.0,220.0,132.0,white,square
0.0,2.0,1.0,0.0,7.0,4.0,1915.6866150001408,3.0,1.0,phase_3,,,,,78.0,2.0,156.0,195.0,234.0,78.0,117.0,39.0,cyan,cross
0.0,5.0,0.5,1.0,7.0,6.0,1626.3194639996073,3.0,1.0,phase_3,,,,,78.0,2.0,156.0,39.0,117.0,195.0,234.0,78.0,blue,circle
0.0,7.0,2.0,1.0,7.0,1.0,1717.740559000049,3.0,1.0,phase_3,,,,,196.0,4.0,196.0,245.0,98.0,294.0,49.0,147.0,magenta,triangle
0.0,5.0,0.5,1.0,7.0,5.0,2144.983065999895,3.0,1.0,phase_3,,,,,108.0,2.0,324.0,162.0,216.0,54.0,108.0,270.0,blue,circle
0.0,4.0,4.0,0.0,7.0,6.0,1782.60968099994,3.0,1.0,phase_3,,,,,245.0,5.0,98.0,196.0,294.0,147.0,49.0,245.0,yellow,flipped triangle
0.0,1.0,0.5,0.0,7.0,4.0,2143.582249999781,3.0,1.0,phase_3,,,,,324.0,6.0,270.0,108.0,162.0,324.0,216.0,54.0,orange,I
0.0,3.0,2.0,0.0,7.0,1.0,2282.35310799937,3.0,1.0,phase_3,,,,,170.0,5.0,170.0,204.0,68.0,102.0,136.0,34.0,gray,hexagon
0.0,4.0,4.0,0.0,7.0,5.0,2293.5488849998364,3.0,1.0,phase_3,,,,,68.0,2.0,204.0,170.0,34.0,136.0,68.0,102.0,yellow,flipped triangle
0.0,6.0,1.0,1.0,7.0,5.0,1931.982678000168,3.0,1.0,phase_3,,,,,204.0,6.0,170.0,136.0,102.0,68.0,204.0,34.0,white,square
0.0,8.0,4.0,1.0,7.0,5.0,3102.191199000117,3.0,1.0,phase_3,,,,,147.0,3.0,196.0,98.0,49.0,294.0,147.0,245.0,green,diamond
0.0,6.0,1.0,1.0,7.0,2.0,1618.3176750000712,3.0,1.0,phase_3,,,,,78.0,2.0,39.0,78.0,156.0,195.0,117.0,234.0,white,square
0.0,1.0,0.5,0.0,7.0,6.0,2753.8810739997643,3.0,1.0,phase_3,,,,,196.0,4.0,98.0,49.0,294.0,147.0,245.0,196.0,orange,I
0.0,7.0,2.0,1.0,7.0,1.0,2123.6268669999845,3.0,1.0,phase_3,,,,,204.0,6.0,204.0,34.0,170.0,68.0,136.0,102.0,magenta,triangle
0.0,4.0,4.0,0.0,7.0,1.0,2765.711187999841,3.0,1.0,phase_3,,,,,204.0,6.0,204.0,136.0,34.0,102.0,170.0,68.0,yellow,flipped triangle
0.0,2.0,1.0,0.0,7.0,6.0,3904.47464799945,3.0,1.0,phase_3,,,,,162.0,3.0,324.0,216.0,54.0,108.0,270.0,162.0,cyan,cross
0.0,6.0,1.0,1.0,7.0,4.0,4311.700227000074,3.0,1.0,phase_3,,,,,54.0,1.0,108.0,162.0,324.0,54.0,216.0,270.0,white,square
0.0,8.0,4.0,1.0,7.0,1.0,2072.4784029998773,3.0,1.0,phase_3,,,,,78.0,2.0,78.0,234.0,195.0,117.0,156.0,39.0,green,diamond
0.0,1.0,0.5,0.0,7.0,5.0,1780.7939510003052,3.0,1.0,phase_3,,,,,102.0,3.0,136.0,34.0,68.0,170.0,102.0,204.0,orange,I
0.0,7.0,2.0,1.0,7.0,3.0,998.378822999257,4.0,1.0,phase_3,,,,,132.0,3.0,88.0,264.0,132.0,44.0,176.0,220.0,magenta,triangle
0.0,5.0,0.5,1.0,7.0,1.0,2286.494584999673,4.0,1.0,phase_3,,,,,196.0,4.0,196.0,245.0,49.0,294.0,98.0,147.0,blue,circle
0.0,4.0,4.0,0.0,7.0,5.0,1262.3444390001168,4.0,1.0,phase_3,,,,,270.0,5.0,108.0,324.0,162.0,54.0,270.0,216.0,yellow,flipped triangle
0.0,8.0,4.0,1.0,7.0,2.0,2353.6652720003985,4.0,1.0,phase_3,,,,,196.0,4.0,294.0,196.0,245.0,98.0,147.0,49.0,green,diamond
0.0,2.0,1.0,0.0,7.0,1.0,1136.5902429997732,4.0,1.0,phase_3,,,,,147.0,3.0,147.0,49.0,196.0,294.0,98.0,245.0,cyan,cross
0.0,2.0,1.0,0.0,7.0,3.0,3834.295530999953,4.0,1.0,phase_3,,,,,132.0,3.0,176.0,88.0,132.0,220.0,264.0,44.0,cyan,cross
0.0,6.0,1.0,1.0,7.0,3.0,2147.321184000248,4.0,1.0,phase_3,,,,,170.0,5.0,136.0,68.0,170.0,102.0,34.0,204.0,white,square
0.0,8.0,4.0,1.0,7.0,4.0,1470.1180199999726,4.0,1.0,phase_3,,,,,216.0,4.0,54.0,324.0,162.0,216.0,270.0,108.0,green,diamond
0.0,4.0,4.0,0.0,7.0,3.0,1553.498032999414,4.0,1.0,phase_3,,,,,44.0,1.0,176.0,220.0,44.0,88.0,132.0,264.0,yellow,flipped triangle
0.0,4.0,4.0,0.0,7.0,2.0,1511.7942469996706,4.0,1.0,phase_3,,,,,49.0,1.0,98.0,49.0,294.0,196.0,147.0,245.0,yellow,flipped triangle
0.0,7.0,2.0,1.0,7.0,4.0,1640.3407779998815,4.0,1.0,phase_3,,,,,147.0,3.0,245.0,196.0,49.0,147.0,294.0,98.0,magenta,triangle
0.0,1.0,0.5,0.0,7.0,1.0,2290.887205999752,4.0,1.0,phase_3,,,,,156.0,4.0,156.0,117.0,78.0,234.0,195.0,39.0,orange,I
0.0,2.0,1.0,0.0,7.0,5.0,2603.529093000361,4.0,1.0,phase_3,,,,,34.0,1.0,136.0,170.0,102.0,68.0,34.0,204.0,cyan,cross
0.0,4.0,4.0,0.0,7.0,5.0,1932.729348999601,4.0,1.0,phase_3,,,,,220.0,5.0,176.0,44.0,88.0,132.0,220.0,264.0,yellow,flipped triangle
0.0,5.0,0.5,1.0,7.0,1.0,1687.1616250000443,4.0,1.0,phase_3,,,,,220.0,5.0,220.0,88.0,132.0,44.0,264.0,176.0,blue,circle
0.0,7.0,2.0,1.0,7.0,6.0,1859.083276000092,4.0,1.0,phase_3,,,,,216.0,4.0,54.0,324.0,162.0,108.0,270.0,216.0,magenta,triangle
0.0,3.0,2.0,0.0,7.0,3.0,1196.02464899981,4.0,1.0,phase_3,,,,,245.0,5.0,98.0,196.0,245.0,49.0,147.0,294.0,gray,hexagon
0.0,2.0,1.0,0.0,7.0,4.0,1644.1503369997008,4.0,1.0,phase_3,,,,,34.0,1.0,170.0,68.0,136.0,34.0,102.0,204.0,cyan,cross
0.0,5.0,0.5,1.0,7.0,2.0,1807.62920000052,4.0,1.0,phase_3,,,,,132.0,3.0,264.0,132.0,220.0,44.0,88.0,176.0,blue,circle
0.0,3.0,2.0,0.0,7.0,5.0,2175.199074000375,4.0,1.0,phase_3,,,,,294.0,6.0,49.0,196.0,98.0,147.0,294.0,245.0,gray,hexagon
