raw_reward_magnitude,stim_reward,stepwise_reward_magnitude,paired_with_stopping,quadrant,response,reaction_time,block,num_trial_presentations,which_part,stop_signal_trial_type,left_SSD,right_SSD,accuracy,chosen_bidding_amount,chosen_bidding_level,possible_bid_1,possible_bid_2,possible_bid_3,possible_bid_4,possible_bid_5,possible_bid_6,color_text,shape_text
76.0,6.0,2.0,1.0,2.0,2.0,597.422587001347,1.0,1.0,part_1,,,,,,,,,,,,,yellow,I
193.0,7.0,3.0,1.0,4.0,4.0,867.1498379990226,1.0,23.0,part_1,,,,,,,,,,,,,magenta,square
207.0,3.0,3.0,0.0,1.0,1.0,435.4574119934113,1.0,2.0,part_1,,,,,,,,,,,,,white,cross
207.0,7.0,3.0,1.0,1.0,1.0,534.7232060012175,1.0,1.0,part_1,,,,,,,,,,,,,magenta,square
213.0,3.0,3.0,0.0,1.0,1.0,476.0006870055804,1.0,1.0,part_1,,,,,,,,,,,,,white,cross
220.0,7.0,3.0,1.0,2.0,2.0,737.2249899926828,1.0,1.0,part_1,,,,,,,,,,,,,magenta,square
96.0,6.0,2.0,1.0,1.0,1.0,445.4153390106512,1.0,1.0,part_1,,,,,,,,,,,,,yellow,I
101.0,2.0,2.0,0.0,4.0,4.0,509.4489990005968,1.0,1.0,part_1,,,,,,,,,,,,,orange,hexagon
0.0,2.0,0.0,0.0,4.0,4.0,504.38769700122066,1.0,1.0,part_1,,,,,,,,,,,,,orange,hexagon
383.0,4.0,4.0,0.0,1.0,1.0,430.92833198898,1.0,1.0,part_1,,,,,,,,,,,,,blue,flipped triangle
216.0,7.0,3.0,1.0,3.0,3.0,754.602266009897,1.0,1.0,part_1,,,,,,,,,,,,,magenta,square
53.0,1.0,1.0,0.0,3.0,3.0,454.9044519953895,1.0,1.0,part_1,,,,,,,,,,,,,green,triangle
393.0,8.0,4.0,1.0,2.0,2.0,418.287335007335,1.0,1.0,part_1,,,,,,,,,,,,,cyan,diamond
179.0,3.0,3.0,0.0,3.0,3.0,351.8412739940686,1.0,1.0,part_1,,,,,,,,,,,,,white,cross
396.0,8.0,4.0,1.0,3.0,3.0,565.5374009947991,1.0,1.0,part_1,,,,,,,,,,,,,cyan,diamond
90.0,2.0,2.0,0.0,4.0,4.0,711.1997999891173,1.0,1.0,part_1,,,,,,,,,,,,,orange,hexagon
98.0,2.0,2.0,0.0,4.0,4.0,524.4804449903313,1.0,1.0,part_1,,,,,,,,,,,,,orange,hexagon
65.0,5.0,1.0,1.0,1.0,1.0,505.2119649917586,1.0,1.0,part_1,,,,,,,,,,,,,gray,circle
0.0,6.0,0.0,1.0,4.0,4.0,415.8298170077614,1.0,1.0,part_1,,,,,,,,,,,,,yellow,I
200.0,7.0,3.0,1.0,2.0,2.0,364.5290679996833,1.0,1.0,part_1,,,,,,,,,,,,,magenta,square
39.0,1.0,1.0,0.0,4.0,4.0,393.6737269978039,1.0,1.0,part_1,,,,,,,,,,,,,green,triangle
0.0,7.0,0.0,1.0,3.0,3.0,531.5996040008031,1.0,1.0,part_1,,,,,,,,,,,,,magenta,square
175.0,3.0,3.0,0.0,4.0,4.0,465.7402109878603,1.0,1.0,part_1,,,,,,,,,,,,,white,cross
0.0,6.0,0.0,1.0,3.0,3.0,549.6202409995021,1.0,1.0,part_1,,,,,,,,,,,,,yellow,I
80.0,6.0,2.0,1.0,1.0,1.0,411.4570189994992,1.0,1.0,part_1,,,,,,,,,,,,,yellow,I
214.0,3.0,3.0,0.0,1.0,1.0,544.6023719996447,1.0,1.0,part_1,,,,,,,,,,,,,white,cross
382.0,4.0,4.0,0.0,1.0,1.0,572.6763249986107,1.0,1.0,part_1,,,,,,,,,,,,,blue,flipped triangle
72.0,1.0,1.0,0.0,2.0,2.0,578.7077959976159,1.0,1.0,part_1,,,,,,,,,,,,,green,triangle
99.0,6.0,2.0,1.0,3.0,3.0,511.2695529969642,1.0,1.0,part_1,,,,,,,,,,,,,yellow,I
186.0,7.0,3.0,1.0,3.0,3.0,501.0341619927203,1.0,1.0,part_1,,,,,,,,,,,,,magenta,square
47.0,1.0,1.0,0.0,2.0,2.0,592.3637290106853,1.0,1.0,part_1,,,,,,,,,,,,,green,triangle
67.0,5.0,1.0,1.0,2.0,2.0,587.8706030052854,1.0,1.0,part_1,,,,,,,,,,,,,gray,circle
90.0,6.0,2.0,1.0,3.0,3.0,401.98723100184,1.0,1.0,part_1,,,,,,,,,,,,,yellow,I
72.0,5.0,1.0,1.0,1.0,1.0,638.7869010068243,1.0,1.0,part_1,,,,,,,,,,,,,gray,circle
385.0,4.0,4.0,0.0,1.0,1.0,840.358510002261,1.0,1.0,part_1,,,,,,,,,,,,,blue,flipped triangle
224.0,3.0,3.0,0.0,2.0,2.0,429.7367769904667,1.0,1.0,part_1,,,,,,,,,,,,,white,cross
0.0,8.0,0.0,1.0,1.0,1.0,458.1460339977639,1.0,1.0,part_1,,,,,,,,,,,,,cyan,diamond
36.0,1.0,1.0,0.0,2.0,2.0,353.4804869996151,1.0,1.0,part_1,,,,,,,,,,,,,green,triangle
221.0,3.0,3.0,0.0,2.0,2.0,548.5333849937888,1.0,1.0,part_1,,,,,,,,,,,,,white,cross
0.0,3.0,0.0,0.0,4.0,4.0,458.9037539990386,1.0,1.0,part_1,,,,,,,,,,,,,white,cross
118.0,2.0,2.0,0.0,4.0,4.0,462.6329019956756,1.0,1.0,part_1,,,,,,,,,,,,,orange,hexagon
213.0,7.0,3.0,1.0,4.0,4.0,467.0804030029103,1.0,1.0,part_1,,,,,,,,,,,,,magenta,square
0.0,8.0,0.0,1.0,2.0,2.0,471.0320849990239,1.0,1.0,part_1,,,,,,,,,,,,,cyan,diamond
0.0,4.0,0.0,0.0,3.0,3.0,493.7134250067174,1.0,1.0,part_1,,,,,,,,,,,,,blue,flipped triangle
376.0,8.0,4.0,1.0,4.0,4.0,510.9736919985153,1.0,1.0,part_1,,,,,,,,,,,,,cyan,diamond
110.0,2.0,2.0,0.0,1.0,1.0,604.7388699953444,1.0,1.0,part_1,,,,,,,,,,,,,orange,hexagon
420.0,4.0,4.0,0.0,3.0,3.0,569.4591329956893,1.0,1.0,part_1,,,,,,,,,,,,,blue,flipped triangle
195.0,3.0,3.0,0.0,3.0,3.0,447.72457600629417,1.0,1.0,part_1,,,,,,,,,,,,,white,cross
414.0,4.0,4.0,0.0,4.0,4.0,458.6489079956664,1.0,1.0,part_1,,,,,,,,,,,,,blue,flipped triangle
80.0,2.0,2.0,0.0,2.0,2.0,559.3057790101739,1.0,1.0,part_1,,,,,,,,,,,,,orange,hexagon
408.0,4.0,4.0,0.0,4.0,4.0,414.6187399892369,1.0,1.0,part_1,,,,,,,,,,,,,blue,flipped triangle
0.0,2.0,0.0,0.0,1.0,1.0,425.4947260051267,1.0,1.0,part_1,,,,,,,,,,,,,orange,hexagon
221.0,7.0,3.0,1.0,2.0,2.0,725.4743750090711,1.0,1.0,part_1,,,,,,,,,,,,,magenta,square
51.0,1.0,1.0,0.0,1.0,1.0,645.3302239970071,1.0,1.0,part_1,,,,,,,,,,,,,green,triangle
214.0,7.0,3.0,1.0,4.0,4.0,494.3432180007221,1.0,1.0,part_1,,,,,,,,,,,,,magenta,square
75.0,2.0,2.0,0.0,3.0,3.0,470.4792510019615,1.0,1.0,part_1,,,,,,,,,,,,,orange,hexagon
0.0,6.0,0.0,1.0,4.0,4.0,487.8811980015598,1.0,1.0,part_1,,,,,,,,,,,,,yellow,I
116.0,2.0,2.0,0.0,1.0,1.0,471.1261830088915,1.0,1.0,part_1,,,,,,,,,,,,,orange,hexagon
40.0,5.0,1.0,1.0,2.0,2.0,572.1934220055118,1.0,1.0,part_1,,,,,,,,,,,,,gray,circle
409.0,4.0,4.0,0.0,4.0,4.0,527.6757669926155,1.0,1.0,part_1,,,,,,,,,,,,,blue,flipped triangle
181.0,3.0,3.0,0.0,3.0,3.0,764.7640329960268,1.0,1.0,part_1,,,,,,,,,,,,,white,cross
0.0,3.0,0.0,0.0,3.0,3.0,514.1164809901966,1.0,1.0,part_1,,,,,,,,,,,,,white,cross
175.0,3.0,3.0,0.0,2.0,2.0,589.9699089932255,1.0,1.0,part_1,,,,,,,,,,,,,white,cross
377.0,4.0,4.0,0.0,4.0,4.0,620.0706240051659,1.0,1.0,part_1,,,,,,,,,,,,,blue,flipped triangle
55.0,5.0,1.0,1.0,2.0,2.0,742.4070559936808,1.0,1.0,part_1,,,,,,,,,,,,,gray,circle
396.0,8.0,4.0,1.0,4.0,4.0,458.299801000976,1.0,1.0,part_1,,,,,,,,,,,,,cyan,diamond
382.0,8.0,4.0,1.0,2.0,2.0,393.484633998014,1.0,1.0,part_1,,,,,,,,,,,,,cyan,diamond
107.0,2.0,2.0,0.0,2.0,2.0,661.4125079941005,1.0,1.0,part_1,,,,,,,,,,,,,orange,hexagon
0.0,2.0,0.0,0.0,3.0,3.0,746.7514609888894,1.0,1.0,part_1,,,,,,,,,,,,,orange,hexagon
0.0,4.0,0.0,0.0,3.0,3.0,559.7252330044284,1.0,1.0,part_1,,,,,,,,,,,,,blue,flipped triangle
390.0,4.0,4.0,0.0,3.0,3.0,410.8464720047777,1.0,1.0,part_1,,,,,,,,,,,,,blue,flipped triangle
215.0,3.0,3.0,0.0,1.0,1.0,210.3095220081741,1.0,2.0,part_1,,,,,,,,,,,,,white,cross
0.0,3.0,0.0,0.0,2.0,2.0,607.4621389998356,1.0,1.0,part_1,,,,,,,,,,,,,white,cross
105.0,2.0,2.0,0.0,4.0,4.0,557.9337170056533,1.0,1.0,part_1,,,,,,,,,,,,,orange,hexagon
0.0,2.0,0.0,0.0,3.0,3.0,690.4437560006045,1.0,1.0,part_1,,,,,,,,,,,,,orange,hexagon
76.0,6.0,2.0,1.0,4.0,4.0,414.1345690004527,1.0,1.0,part_1,,,,,,,,,,,,,yellow,I
118.0,6.0,2.0,1.0,3.0,3.0,484.3905640009325,1.0,1.0,part_1,,,,,,,,,,,,,yellow,I
48.0,1.0,1.0,0.0,3.0,3.0,378.7766870082123,1.0,1.0,part_1,,,,,,,,,,,,,green,triangle
121.0,2.0,2.0,0.0,3.0,3.0,406.3892499980284,1.0,1.0,part_1,,,,,,,,,,,,,orange,hexagon
193.0,3.0,3.0,0.0,2.0,2.0,568.1342820025748,1.0,1.0,part_1,,,,,,,,,,,,,white,cross
417.0,4.0,4.0,0.0,1.0,1.0,488.9554190012859,1.0,2.0,part_1,,,,,,,,,,,,,blue,flipped triangle
0.0,8.0,0.0,1.0,3.0,3.0,526.50893900136,1.0,1.0,part_1,,,,,,,,,,,,,cyan,diamond
224.0,3.0,3.0,0.0,3.0,3.0,418.8123499916401,1.0,1.0,part_1,,,,,,,,,,,,,white,cross
376.0,4.0,4.0,0.0,2.0,2.0,386.6487509949365,1.0,1.0,part_1,,,,,,,,,,,,,blue,flipped triangle
47.0,5.0,1.0,1.0,4.0,4.0,806.7608499986818,1.0,1.0,part_1,,,,,,,,,,,,,gray,circle
0.0,7.0,0.0,1.0,1.0,1.0,664.5982019981602,1.0,1.0,part_1,,,,,,,,,,,,,magenta,square
414.0,8.0,4.0,1.0,1.0,1.0,471.5239030047087,1.0,1.0,part_1,,,,,,,,,,,,,cyan,diamond
75.0,6.0,2.0,1.0,1.0,1.0,458.7953000009293,1.0,1.0,part_1,,,,,,,,,,,,,yellow,I
104.0,6.0,2.0,1.0,1.0,1.0,414.6827679942362,1.0,1.0,part_1,,,,,,,,,,,,,yellow,I
0.0,5.0,0.0,1.0,3.0,3.0,967.5354650098598,1.0,1.0,part_1,,,,,,,,,,,,,gray,circle
202.0,7.0,3.0,1.0,3.0,3.0,587.5679660093738,1.0,1.0,part_1,,,,,,,,,,,,,magenta,square
0.0,4.0,0.0,0.0,4.0,4.0,791.1335380049422,1.0,1.0,part_1,,,,,,,,,,,,,blue,flipped triangle
123.0,6.0,2.0,1.0,3.0,3.0,723.9156950090546,1.0,1.0,part_1,,,,,,,,,,,,,yellow,I
111.0,2.0,2.0,0.0,4.0,4.0,754.1644619923318,1.0,1.0,part_1,,,,,,,,,,,,,orange,hexagon
108.0,6.0,2.0,1.0,4.0,4.0,476.5703930024756,1.0,1.0,part_1,,,,,,,,,,,,,yellow,I
382.0,4.0,4.0,0.0,2.0,2.0,762.1809970005415,1.0,1.0,part_1,,,,,,,,,,,,,blue,flipped triangle
0.0,3.0,0.0,0.0,2.0,2.0,404.3456799990963,1.0,1.0,part_1,,,,,,,,,,,,,white,cross
58.0,5.0,1.0,1.0,2.0,2.0,465.1422260067193,1.0,1.0,part_1,,,,,,,,,,,,,gray,circle
87.0,6.0,2.0,1.0,2.0,2.0,368.6998420016607,1.0,1.0,part_1,,,,,,,,,,,,,yellow,I
49.0,1.0,1.0,0.0,3.0,3.0,638.3848269906593,1.0,1.0,part_1,,,,,,,,,,,,,green,triangle
176.0,7.0,3.0,1.0,4.0,4.0,787.7310750045581,2.0,1.0,part_1,,,,,,,,,,,,,magenta,square
59.0,1.0,1.0,0.0,3.0,3.0,736.5309040033026,2.0,1.0,part_1,,,,,,,,,,,,,green,triangle
424.0,4.0,4.0,0.0,3.0,3.0,469.2234990070574,2.0,1.0,part_1,,,,,,,,,,,,,blue,flipped triangle
0.0,1.0,0.0,0.0,2.0,2.0,450.6195790017955,2.0,1.0,part_1,,,,,,,,,,,,,green,triangle
191.0,3.0,3.0,0.0,2.0,2.0,475.5723749985918,2.0,1.0,part_1,,,,,,,,,,,,,white,cross
402.0,4.0,4.0,0.0,3.0,3.0,609.7094810102135,2.0,1.0,part_1,,,,,,,,,,,,,blue,flipped triangle
0.0,1.0,0.0,0.0,3.0,3.0,406.0861319885589,2.0,1.0,part_1,,,,,,,,,,,,,green,triangle
216.0,7.0,3.0,1.0,3.0,3.0,418.6644090077607,2.0,1.0,part_1,,,,,,,,,,,,,magenta,square
207.0,7.0,3.0,1.0,4.0,4.0,502.23652699787635,2.0,1.0,part_1,,,,,,,,,,,,,magenta,square
0.0,4.0,0.0,0.0,3.0,3.0,653.8820659916382,2.0,1.0,part_1,,,,,,,,,,,,,blue,flipped triangle
48.0,5.0,1.0,1.0,3.0,3.0,0.1676730025792,2.0,1.0,part_1,,,,,,,,,,,,,gray,circle
212.0,3.0,3.0,0.0,3.0,3.0,412.416627004859,2.0,1.0,part_1,,,,,,,,,,,,,white,cross
396.0,8.0,4.0,1.0,4.0,4.0,330.6607550039189,2.0,1.0,part_1,,,,,,,,,,,,,cyan,diamond
395.0,4.0,4.0,0.0,4.0,4.0,465.885312994942,2.0,1.0,part_1,,,,,,,,,,,,,blue,flipped triangle
43.0,5.0,1.0,1.0,3.0,3.0,523.2472240022616,2.0,1.0,part_1,,,,,,,,,,,,,gray,circle
39.0,5.0,1.0,1.0,3.0,3.0,369.4658010062994,2.0,1.0,part_1,,,,,,,,,,,,,gray,circle
100.0,6.0,2.0,1.0,2.0,2.0,581.5935400023591,2.0,1.0,part_1,,,,,,,,,,,,,yellow,I
98.0,6.0,2.0,1.0,2.0,2.0,441.6542359977029,2.0,1.0,part_1,,,,,,,,,,,,,yellow,I
0.0,6.0,0.0,1.0,2.0,2.0,344.6764260006603,2.0,1.0,part_1,,,,,,,,,,,,,yellow,I
416.0,8.0,4.0,1.0,4.0,4.0,532.4781109957257,2.0,1.0,part_1,,,,,,,,,,,,,cyan,diamond
85.0,2.0,2.0,0.0,3.0,3.0,576.3440540031297,2.0,1.0,part_1,,,,,,,,,,,,,orange,hexagon
216.0,3.0,3.0,0.0,4.0,4.0,428.257504987414,2.0,1.0,part_1,,,,,,,,,,,,,white,cross
82.0,2.0,2.0,0.0,3.0,3.0,522.1420960006071,2.0,1.0,part_1,,,,,,,,,,,,,orange,hexagon
0.0,6.0,0.0,1.0,3.0,3.0,381.6222730092704,2.0,1.0,part_1,,,,,,,,,,,,,yellow,I
220.0,7.0,3.0,1.0,1.0,1.0,721.2081970064901,2.0,1.0,part_1,,,,,,,,,,,,,magenta,square
413.0,4.0,4.0,0.0,1.0,1.0,574.8410990054253,2.0,1.0,part_1,,,,,,,,,,,,,blue,flipped triangle
117.0,2.0,2.0,0.0,3.0,3.0,782.8719659883063,2.0,1.0,part_1,,,,,,,,,,,,,orange,hexagon
79.0,6.0,2.0,1.0,2.0,2.0,623.5410850058543,2.0,1.0,part_1,,,,,,,,,,,,,yellow,I
388.0,8.0,4.0,1.0,3.0,3.0,615.2245129924268,2.0,1.0,part_1,,,,,,,,,,,,,cyan,diamond
424.0,8.0,4.0,1.0,1.0,1.0,705.5612330004806,2.0,1.0,part_1,,,,,,,,,,,,,cyan,diamond
39.0,1.0,1.0,0.0,1.0,1.0,406.1952549964189,2.0,1.0,part_1,,,,,,,,,,,,,green,triangle
0.0,3.0,0.0,0.0,3.0,3.0,475.1871970074717,2.0,1.0,part_1,,,,,,,,,,,,,white,cross
38.0,5.0,1.0,1.0,2.0,2.0,510.57756699447054,2.0,1.0,part_1,,,,,,,,,,,,,gray,circle
0.0,4.0,0.0,0.0,1.0,1.0,382.4573699967004,2.0,1.0,part_1,,,,,,,,,,,,,blue,flipped triangle
121.0,6.0,2.0,1.0,4.0,4.0,452.067302991054,2.0,1.0,part_1,,,,,,,,,,,,,yellow,I
39.0,5.0,1.0,1.0,2.0,2.0,315.5235220037866,2.0,2.0,part_1,,,,,,,,,,,,,gray,circle
192.0,3.0,3.0,0.0,4.0,4.0,681.1995869938983,2.0,1.0,part_1,,,,,,,,,,,,,white,cross
215.0,7.0,3.0,1.0,2.0,2.0,398.5033350036246,2.0,1.0,part_1,,,,,,,,,,,,,magenta,square
405.0,8.0,4.0,1.0,1.0,1.0,489.6817590051796,2.0,1.0,part_1,,,,,,,,,,,,,cyan,diamond
0.0,5.0,0.0,1.0,4.0,4.0,684.5954629970947,2.0,1.0,part_1,,,,,,,,,,,,,gray,circle
0.0,4.0,0.0,0.0,2.0,2.0,412.0011000049999,2.0,1.0,part_1,,,,,,,,,,,,,blue,flipped triangle
400.0,4.0,4.0,0.0,3.0,3.0,526.080528012244,2.0,1.0,part_1,,,,,,,,,,,,,blue,flipped triangle
184.0,3.0,3.0,0.0,3.0,3.0,531.1373559961794,2.0,1.0,part_1,,,,,,,,,,,,,white,cross
404.0,4.0,4.0,0.0,1.0,1.0,603.1393129960634,2.0,1.0,part_1,,,,,,,,,,,,,blue,flipped triangle
0.0,5.0,0.0,1.0,2.0,2.0,515.4034800070804,2.0,1.0,part_1,,,,,,,,,,,,,gray,circle
54.0,1.0,1.0,0.0,4.0,4.0,561.4527220022865,2.0,1.0,part_1,,,,,,,,,,,,,green,triangle
377.0,4.0,4.0,0.0,2.0,2.0,591.5825099946233,2.0,1.0,part_1,,,,,,,,,,,,,blue,flipped triangle
44.0,5.0,1.0,1.0,2.0,2.0,467.6143459946615,2.0,1.0,part_1,,,,,,,,,,,,,gray,circle
44.0,1.0,1.0,0.0,1.0,1.0,582.1998850005912,2.0,1.0,part_1,,,,,,,,,,,,,green,triangle
419.0,8.0,4.0,1.0,2.0,2.0,499.2559859965695,2.0,1.0,part_1,,,,,,,,,,,,,cyan,diamond
0.0,8.0,0.0,1.0,3.0,3.0,562.5323089916492,2.0,1.0,part_1,,,,,,,,,,,,,cyan,diamond
124.0,6.0,2.0,1.0,1.0,1.0,445.5671559990151,2.0,1.0,part_1,,,,,,,,,,,,,yellow,I
383.0,8.0,4.0,1.0,4.0,4.0,484.8229329945752,2.0,1.0,part_1,,,,,,,,,,,,,cyan,diamond
55.0,5.0,1.0,1.0,4.0,4.0,549.8443660035264,2.0,1.0,part_1,,,,,,,,,,,,,gray,circle
72.0,1.0,1.0,0.0,1.0,1.0,580.2260549971834,2.0,1.0,part_1,,,,,,,,,,,,,green,triangle
0.0,5.0,0.0,1.0,2.0,2.0,617.3030969948741,2.0,1.0,part_1,,,,,,,,,,,,,gray,circle
65.0,1.0,1.0,0.0,2.0,2.0,525.9584260056727,2.0,1.0,part_1,,,,,,,,,,,,,green,triangle
0.0,5.0,0.0,1.0,2.0,2.0,705.5158340081107,2.0,1.0,part_1,,,,,,,,,,,,,gray,circle
123.0,2.0,2.0,0.0,1.0,1.0,669.2025869997451,2.0,1.0,part_1,,,,,,,,,,,,,orange,hexagon
65.0,1.0,1.0,0.0,4.0,4.0,621.799694999936,2.0,1.0,part_1,,,,,,,,,,,,,green,triangle
377.0,8.0,4.0,1.0,4.0,4.0,622.8358689986635,2.0,1.0,part_1,,,,,,,,,,,,,cyan,diamond
0.0,8.0,0.0,1.0,3.0,3.0,597.5726169999689,2.0,1.0,part_1,,,,,,,,,,,,,cyan,diamond
0.0,4.0,0.0,0.0,4.0,4.0,690.0470950058661,2.0,1.0,part_1,,,,,,,,,,,,,blue,flipped triangle
0.0,4.0,0.0,0.0,2.0,2.0,623.7920969870174,2.0,1.0,part_1,,,,,,,,,,,,,blue,flipped triangle
124.0,6.0,2.0,1.0,3.0,3.0,555.8744250010932,2.0,1.0,part_1,,,,,,,,,,,,,yellow,I
181.0,7.0,3.0,1.0,4.0,4.0,423.2116360071813,2.0,1.0,part_1,,,,,,,,,,,,,magenta,square
377.0,8.0,4.0,1.0,2.0,2.0,446.6957719996571,2.0,1.0,part_1,,,,,,,,,,,,,cyan,diamond
28.0,5.0,1.0,1.0,4.0,4.0,514.6830680023413,2.0,1.0,part_1,,,,,,,,,,,,,gray,circle
420.0,8.0,4.0,1.0,1.0,1.0,615.5228159914259,2.0,1.0,part_1,,,,,,,,,,,,,cyan,diamond
106.0,6.0,2.0,1.0,4.0,4.0,524.9443600041559,2.0,1.0,part_1,,,,,,,,,,,,,yellow,I
0.0,2.0,0.0,0.0,2.0,2.0,782.5000070006354,2.0,1.0,part_1,,,,,,,,,,,,,orange,hexagon
101.0,6.0,2.0,1.0,2.0,2.0,425.9747970063472,2.0,1.0,part_1,,,,,,,,,,,,,yellow,I
410.0,4.0,4.0,0.0,3.0,3.0,496.0348710010294,2.0,1.0,part_1,,,,,,,,,,,,,blue,flipped triangle
413.0,8.0,4.0,1.0,2.0,2.0,435.5694460100494,2.0,1.0,part_1,,,,,,,,,,,,,cyan,diamond
67.0,1.0,1.0,0.0,3.0,3.0,464.463602998876,2.0,1.0,part_1,,,,,,,,,,,,,green,triangle
220.0,3.0,3.0,0.0,1.0,1.0,525.1008049963275,2.0,1.0,part_1,,,,,,,,,,,,,white,cross
101.0,6.0,2.0,1.0,1.0,1.0,386.4143999962834,2.0,1.0,part_1,,,,,,,,,,,,,yellow,I
0.0,4.0,0.0,0.0,3.0,3.0,698.3516640029848,2.0,1.0,part_1,,,,,,,,,,,,,blue,flipped triangle
400.0,8.0,4.0,1.0,2.0,2.0,596.9527830020525,2.0,1.0,part_1,,,,,,,,,,,,,cyan,diamond
110.0,6.0,2.0,1.0,4.0,4.0,552.5183279969497,2.0,1.0,part_1,,,,,,,,,,,,,yellow,I
124.0,2.0,2.0,0.0,4.0,4.0,471.0653729998739,2.0,1.0,part_1,,,,,,,,,,,,,orange,hexagon
60.0,5.0,1.0,1.0,1.0,1.0,636.1065800010692,2.0,1.0,part_1,,,,,,,,,,,,,gray,circle
44.0,1.0,1.0,0.0,1.0,1.0,361.7213289981009,2.0,1.0,part_1,,,,,,,,,,,,,green,triangle
64.0,1.0,1.0,0.0,4.0,4.0,443.3613930013962,2.0,1.0,part_1,,,,,,,,,,,,,green,triangle
417.0,8.0,4.0,1.0,2.0,2.0,584.1761629999382,2.0,1.0,part_1,,,,,,,,,,,,,cyan,diamond
49.0,5.0,1.0,1.0,1.0,1.0,485.447565006325,2.0,1.0,part_1,,,,,,,,,,,,,gray,circle
32.0,1.0,1.0,0.0,4.0,4.0,406.91376500763,2.0,1.0,part_1,,,,,,,,,,,,,green,triangle
416.0,8.0,4.0,1.0,3.0,3.0,432.4570090102497,2.0,1.0,part_1,,,,,,,,,,,,,cyan,diamond
98.0,6.0,2.0,1.0,3.0,3.0,538.38252100104,2.0,1.0,part_1,,,,,,,,,,,,,yellow,I
29.0,1.0,1.0,0.0,3.0,3.0,489.4422659999691,2.0,1.0,part_1,,,,,,,,,,,,,green,triangle
0.0,6.0,0.0,1.0,4.0,4.0,693.6573830025736,2.0,1.0,part_1,,,,,,,,,,,,,yellow,I
390.0,8.0,4.0,1.0,3.0,3.0,380.0385729991831,2.0,1.0,part_1,,,,,,,,,,,,,cyan,diamond
85.0,6.0,2.0,1.0,2.0,2.0,397.6026939926669,2.0,1.0,part_1,,,,,,,,,,,,,yellow,I
0.0,2.0,0.0,0.0,3.0,3.0,396.6455869958736,2.0,1.0,part_1,,,,,,,,,,,,,orange,hexagon
224.0,7.0,3.0,1.0,1.0,1.0,576.78944899817,2.0,1.0,part_1,,,,,,,,,,,,,magenta,square
404.0,8.0,4.0,1.0,1.0,1.0,565.0084570079343,2.0,1.0,part_1,,,,,,,,,,,,,cyan,diamond
74.0,5.0,1.0,1.0,3.0,3.0,688.5210729960818,2.0,1.0,part_1,,,,,,,,,,,,,gray,circle
192.0,7.0,3.0,1.0,4.0,4.0,591.1259330023313,2.0,1.0,part_1,,,,,,,,,,,,,magenta,square
117.0,6.0,2.0,1.0,3.0,3.0,689.1033520078054,2.0,1.0,part_1,,,,,,,,,,,,,yellow,I
0.0,5.0,0.0,1.0,2.0,2.0,893.4288000018569,2.0,1.0,part_1,,,,,,,,,,,,,gray,circle
0.0,6.0,0.0,1.0,4.0,4.0,709.2397270025685,3.0,1.0,part_1,,,,,,,,,,,,,yellow,I
120.0,6.0,2.0,1.0,3.0,3.0,385.8499889902305,3.0,1.0,part_1,,,,,,,,,,,,,yellow,I
184.0,7.0,3.0,1.0,2.0,2.0,453.5520089993952,3.0,1.0,part_1,,,,,,,,,,,,,magenta,square
423.0,8.0,4.0,1.0,4.0,4.0,365.8946409996133,3.0,1.0,part_1,,,,,,,,,,,,,cyan,diamond
28.0,1.0,1.0,0.0,2.0,2.0,361.9985910045216,3.0,1.0,part_1,,,,,,,,,,,,,green,triangle
51.0,5.0,1.0,1.0,4.0,4.0,476.0739499906776,3.0,1.0,part_1,,,,,,,,,,,,,gray,circle
85.0,6.0,2.0,1.0,1.0,1.0,394.7873129945947,3.0,1.0,part_1,,,,,,,,,,,,,yellow,I
179.0,3.0,3.0,0.0,4.0,4.0,399.8613610019674,3.0,1.0,part_1,,,,,,,,,,,,,white,cross
0.0,7.0,0.0,1.0,1.0,1.0,427.7325069997459,3.0,1.0,part_1,,,,,,,,,,,,,magenta,square
0.0,1.0,0.0,0.0,2.0,2.0,449.8410189989954,3.0,1.0,part_1,,,,,,,,,,,,,green,triangle
196.0,3.0,3.0,0.0,3.0,3.0,500.32697699498385,3.0,1.0,part_1,,,,,,,,,,,,,white,cross
212.0,7.0,3.0,1.0,1.0,1.0,619.293009993271,3.0,1.0,part_1,,,,,,,,,,,,,magenta,square
419.0,4.0,4.0,0.0,4.0,4.0,605.0335049949354,3.0,1.0,part_1,,,,,,,,,,,,,blue,flipped triangle
60.0,1.0,1.0,0.0,4.0,4.0,657.4773909960641,3.0,1.0,part_1,,,,,,,,,,,,,green,triangle
67.0,1.0,1.0,0.0,1.0,1.0,658.1381069991039,3.0,1.0,part_1,,,,,,,,,,,,,green,triangle
0.0,3.0,0.0,0.0,2.0,2.0,358.7958119896939,3.0,1.0,part_1,,,,,,,,,,,,,white,cross
92.0,2.0,2.0,0.0,1.0,1.0,487.6131530036218,3.0,1.0,part_1,,,,,,,,,,,,,orange,hexagon
72.0,5.0,1.0,1.0,2.0,2.0,396.2392249959521,3.0,1.0,part_1,,,,,,,,,,,,,gray,circle
107.0,6.0,2.0,1.0,3.0,3.0,457.055812003091,3.0,1.0,part_1,,,,,,,,,,,,,yellow,I
176.0,3.0,3.0,0.0,3.0,3.0,510.27229501050897,3.0,1.0,part_1,,,,,,,,,,,,,white,cross
55.0,5.0,1.0,1.0,2.0,2.0,451.7207280005095,3.0,1.0,part_1,,,,,,,,,,,,,gray,circle
399.0,4.0,4.0,0.0,2.0,2.0,569.8410159966443,3.0,1.0,part_1,,,,,,,,,,,,,blue,flipped triangle
43.0,1.0,1.0,0.0,1.0,1.0,775.5357580026612,3.0,1.0,part_1,,,,,,,,,,,,,green,triangle
0.0,1.0,0.0,0.0,1.0,1.0,608.5192559985444,3.0,1.0,part_1,,,,,,,,,,,,,green,triangle
207.0,7.0,3.0,1.0,2.0,2.0,503.0150159873301,3.0,1.0,part_1,,,,,,,,,,,,,magenta,square
0.0,5.0,0.0,1.0,1.0,1.0,438.0668349913321,3.0,2.0,part_1,,,,,,,,,,,,,gray,circle
216.0,3.0,3.0,0.0,1.0,1.0,380.570594992605,3.0,1.0,part_1,,,,,,,,,,,,,white,cross
409.0,8.0,4.0,1.0,4.0,4.0,544.0272590058157,3.0,1.0,part_1,,,,,,,,,,,,,cyan,diamond
0.0,7.0,0.0,1.0,1.0,1.0,576.5019710088382,3.0,1.0,part_1,,,,,,,,,,,,,magenta,square
44.0,5.0,1.0,1.0,1.0,1.0,386.1101380025502,3.0,1.0,part_1,,,,,,,,,,,,,gray,circle
188.0,7.0,3.0,1.0,3.0,3.0,409.8624150065006,3.0,1.0,part_1,,,,,,,,,,,,,magenta,square
414.0,4.0,4.0,0.0,1.0,1.0,499.6324679959798,3.0,1.0,part_1,,,,,,,,,,,,,blue,flipped triangle
107.0,2.0,2.0,0.0,1.0,1.0,495.6044040009146,3.0,1.0,part_1,,,,,,,,,,,,,orange,hexagon
48.0,5.0,1.0,1.0,4.0,4.0,757.8294470004039,3.0,1.0,part_1,,,,,,,,,,,,,gray,circle
0.0,7.0,0.0,1.0,1.0,1.0,578.3590049977647,3.0,1.0,part_1,,,,,,,,,,,,,magenta,square
41.0,1.0,1.0,0.0,4.0,4.0,496.647950989427,3.0,1.0,part_1,,,,,,,,,,,,,green,triangle
188.0,3.0,3.0,0.0,1.0,1.0,578.0404350080062,3.0,1.0,part_1,,,,,,,,,,,,,white,cross
72.0,1.0,1.0,0.0,4.0,4.0,609.2122590052895,3.0,1.0,part_1,,,,,,,,,,,,,green,triangle
179.0,7.0,3.0,1.0,4.0,4.0,516.0116279876092,3.0,1.0,part_1,,,,,,,,,,,,,magenta,square
224.0,7.0,3.0,1.0,3.0,3.0,269.3482860049698,3.0,2.0,part_1,,,,,,,,,,,,,magenta,square
55.0,1.0,1.0,0.0,2.0,2.0,659.5884020061931,3.0,1.0,part_1,,,,,,,,,,,,,green,triangle
381.0,8.0,4.0,1.0,1.0,1.0,518.2737529976293,3.0,1.0,part_1,,,,,,,,,,,,,cyan,diamond
76.0,2.0,2.0,0.0,3.0,3.0,475.9047589905094,3.0,1.0,part_1,,,,,,,,,,,,,orange,hexagon
62.0,1.0,1.0,0.0,2.0,2.0,577.9041200003121,3.0,1.0,part_1,,,,,,,,,,,,,green,triangle
26.0,5.0,1.0,1.0,4.0,4.0,604.8721169936471,3.0,1.0,part_1,,,,,,,,,,,,,gray,circle
124.0,2.0,2.0,0.0,4.0,4.0,504.78508400556166,3.0,1.0,part_1,,,,,,,,,,,,,orange,hexagon
0.0,8.0,0.0,1.0,3.0,3.0,528.425160999177,3.0,1.0,part_1,,,,,,,,,,,,,cyan,diamond
93.0,2.0,2.0,0.0,1.0,1.0,515.6707190035377,3.0,1.0,part_1,,,,,,,,,,,,,orange,hexagon
0.0,2.0,0.0,0.0,2.0,2.0,558.6583749973215,3.0,1.0,part_1,,,,,,,,,,,,,orange,hexagon
62.0,5.0,1.0,1.0,4.0,4.0,455.2683920046547,3.0,1.0,part_1,,,,,,,,,,,,,gray,circle
202.0,3.0,3.0,0.0,4.0,4.0,416.6793129988946,3.0,1.0,part_1,,,,,,,,,,,,,white,cross
395.0,8.0,4.0,1.0,3.0,3.0,472.8100240026833,3.0,1.0,part_1,,,,,,,,,,,,,cyan,diamond
192.0,7.0,3.0,1.0,2.0,2.0,521.6504929994699,3.0,1.0,part_1,,,,,,,,,,,,,magenta,square
404.0,8.0,4.0,1.0,3.0,3.0,442.4818830011645,3.0,1.0,part_1,,,,,,,,,,,,,cyan,diamond
177.0,7.0,3.0,1.0,2.0,2.0,420.8747859956929,3.0,1.0,part_1,,,,,,,,,,,,,magenta,square
0.0,7.0,0.0,1.0,4.0,4.0,369.32835499465,3.0,1.0,part_1,,,,,,,,,,,,,magenta,square
399.0,8.0,4.0,1.0,2.0,2.0,463.715168996714,3.0,1.0,part_1,,,,,,,,,,,,,cyan,diamond
27.0,5.0,1.0,1.0,3.0,3.0,560.9431259945268,3.0,1.0,part_1,,,,,,,,,,,,,gray,circle
0.0,7.0,0.0,1.0,4.0,4.0,536.6905250120908,3.0,1.0,part_1,,,,,,,,,,,,,magenta,square
211.0,7.0,3.0,1.0,1.0,1.0,426.8099780019838,3.0,1.0,part_1,,,,,,,,,,,,,magenta,square
99.0,2.0,2.0,0.0,3.0,3.0,584.3134999886388,3.0,1.0,part_1,,,,,,,,,,,,,orange,hexagon
386.0,4.0,4.0,0.0,3.0,3.0,670.3226899990113,3.0,1.0,part_1,,,,,,,,,,,,,blue,flipped triangle
423.0,4.0,4.0,0.0,3.0,3.0,529.2946219997248,3.0,1.0,part_1,,,,,,,,,,,,,blue,flipped triangle
392.0,8.0,4.0,1.0,3.0,3.0,582.0744480006397,3.0,1.0,part_1,,,,,,,,,,,,,cyan,diamond
220.0,3.0,3.0,0.0,4.0,4.0,484.7407009947346,3.0,1.0,part_1,,,,,,,,,,,,,white,cross
91.0,2.0,2.0,0.0,2.0,2.0,807.3965079966001,3.0,1.0,part_1,,,,,,,,,,,,,orange,hexagon
192.0,3.0,3.0,0.0,3.0,3.0,423.5337540012551,3.0,1.0,part_1,,,,,,,,,,,,,white,cross
402.0,4.0,4.0,0.0,1.0,1.0,631.7756920034299,3.0,1.0,part_1,,,,,,,,,,,,,blue,flipped triangle
0.0,3.0,0.0,0.0,1.0,1.0,525.7335839996813,3.0,1.0,part_1,,,,,,,,,,,,,white,cross
82.0,2.0,2.0,0.0,2.0,2.0,432.9386690078536,3.0,1.0,part_1,,,,,,,,,,,,,orange,hexagon
82.0,6.0,2.0,1.0,4.0,4.0,573.9840129972436,3.0,1.0,part_1,,,,,,,,,,,,,yellow,I
0.0,3.0,0.0,0.0,4.0,4.0,572.8952299978118,3.0,1.0,part_1,,,,,,,,,,,,,white,cross
116.0,6.0,2.0,1.0,1.0,1.0,401.6241140052443,3.0,1.0,part_1,,,,,,,,,,,,,yellow,I
175.0,7.0,3.0,1.0,4.0,4.0,446.0190700046951,3.0,1.0,part_1,,,,,,,,,,,,,magenta,square
53.0,5.0,1.0,1.0,3.0,3.0,412.2865380049916,3.0,1.0,part_1,,,,,,,,,,,,,gray,circle
0.0,1.0,0.0,0.0,3.0,3.0,384.0666180039989,3.0,1.0,part_1,,,,,,,,,,,,,green,triangle
123.0,2.0,2.0,0.0,4.0,4.0,454.1973649902502,3.0,1.0,part_1,,,,,,,,,,,,,orange,hexagon
402.0,8.0,4.0,1.0,3.0,3.0,471.5255690098274,3.0,1.0,part_1,,,,,,,,,,,,,cyan,diamond
29.0,5.0,1.0,1.0,1.0,1.0,484.8345189966494,3.0,1.0,part_1,,,,,,,,,,,,,gray,circle
29.0,5.0,1.0,1.0,1.0,1.0,771.982014994137,3.0,1.0,part_1,,,,,,,,,,,,,gray,circle
0.0,2.0,0.0,0.0,4.0,4.0,758.6634080071235,3.0,1.0,part_1,,,,,,,,,,,,,orange,hexagon
211.0,3.0,3.0,0.0,2.0,2.0,657.2300330008147,3.0,1.0,part_1,,,,,,,,,,,,,white,cross
393.0,4.0,4.0,0.0,4.0,4.0,585.4468780016759,3.0,1.0,part_1,,,,,,,,,,,,,blue,flipped triangle
36.0,5.0,1.0,1.0,4.0,4.0,445.060297002783,3.0,1.0,part_1,,,,,,,,,,,,,gray,circle
382.0,8.0,4.0,1.0,2.0,2.0,650.6221130111953,3.0,1.0,part_1,,,,,,,,,,,,,cyan,diamond
222.0,7.0,3.0,1.0,1.0,1.0,582.7171549899504,3.0,1.0,part_1,,,,,,,,,,,,,magenta,square
123.0,6.0,2.0,1.0,4.0,4.0,531.4668329956476,3.0,1.0,part_1,,,,,,,,,,,,,yellow,I
386.0,8.0,4.0,1.0,4.0,4.0,512.4380939960247,3.0,1.0,part_1,,,,,,,,,,,,,cyan,diamond
199.0,3.0,3.0,0.0,2.0,2.0,770.8289950096514,3.0,1.0,part_1,,,,,,,,,,,,,white,cross
200.0,3.0,3.0,0.0,1.0,1.0,511.40960000338964,3.0,1.0,part_1,,,,,,,,,,,,,white,cross
26.0,1.0,1.0,0.0,1.0,1.0,476.0874239873374,3.0,1.0,part_1,,,,,,,,,,,,,green,triangle
184.0,3.0,3.0,0.0,4.0,4.0,602.3022269946523,3.0,1.0,part_1,,,,,,,,,,,,,white,cross
207.0,3.0,3.0,0.0,3.0,3.0,776.3718220085138,3.0,1.0,part_1,,,,,,,,,,,,,white,cross
193.0,7.0,3.0,1.0,1.0,1.0,461.1900580057408,3.0,1.0,part_1,,,,,,,,,,,,,magenta,square
87.0,2.0,2.0,0.0,1.0,1.0,386.0891859949333,3.0,1.0,part_1,,,,,,,,,,,,,orange,hexagon
0.0,6.0,0.0,1.0,2.0,2.0,371.4870780095225,3.0,1.0,part_1,,,,,,,,,,,,,yellow,I
27.0,1.0,1.0,0.0,2.0,2.0,346.7758820042945,3.0,1.0,part_1,,,,,,,,,,,,,green,triangle
104.0,2.0,2.0,0.0,1.0,1.0,540.6347859970992,3.0,1.0,part_1,,,,,,,,,,,,,orange,hexagon
382.0,4.0,4.0,0.0,2.0,2.0,475.4420829995069,3.0,1.0,part_1,,,,,,,,,,,,,blue,flipped triangle
67.0,5.0,1.0,1.0,3.0,3.0,638.7020759866573,3.0,1.0,part_1,,,,,,,,,,,,,gray,circle
392.0,4.0,4.0,0.0,4.0,4.0,514.9698329914827,4.0,1.0,part_1,,,,,,,,,,,,,blue,flipped triangle
201.0,3.0,3.0,0.0,1.0,1.0,476.3529949996155,4.0,1.0,part_1,,,,,,,,,,,,,white,cross
185.0,3.0,3.0,0.0,2.0,2.0,346.0373060079291,4.0,1.0,part_1,,,,,,,,,,,,,white,cross
76.0,2.0,2.0,0.0,4.0,4.0,919.6847300045192,4.0,1.0,part_1,,,,,,,,,,,,,orange,hexagon
0.0,4.0,0.0,0.0,2.0,2.0,594.2275129928021,4.0,1.0,part_1,,,,,,,,,,,,,blue,flipped triangle
96.0,2.0,2.0,0.0,2.0,2.0,583.1152149912668,4.0,1.0,part_1,,,,,,,,,,,,,orange,hexagon
91.0,6.0,2.0,1.0,4.0,4.0,390.1123699906748,4.0,1.0,part_1,,,,,,,,,,,,,yellow,I
40.0,1.0,1.0,0.0,3.0,3.0,447.9499199951533,4.0,1.0,part_1,,,,,,,,,,,,,green,triangle
0.0,2.0,0.0,0.0,2.0,2.0,484.8430090059992,4.0,1.0,part_1,,,,,,,,,,,,,orange,hexagon
100.0,2.0,2.0,0.0,1.0,1.0,451.6788490000181,4.0,1.0,part_1,,,,,,,,,,,,,orange,hexagon
0.0,8.0,0.0,1.0,2.0,2.0,614.5275329909055,4.0,1.0,part_1,,,,,,,,,,,,,cyan,diamond
385.0,8.0,4.0,1.0,1.0,1.0,443.4958380006719,4.0,1.0,part_1,,,,,,,,,,,,,cyan,diamond
212.0,7.0,3.0,1.0,1.0,1.0,514.4359120022273,4.0,1.0,part_1,,,,,,,,,,,,,magenta,square
196.0,7.0,3.0,1.0,2.0,2.0,422.7893880015472,4.0,1.0,part_1,,,,,,,,,,,,,magenta,square
120.0,2.0,2.0,0.0,3.0,3.0,458.7585879926337,4.0,1.0,part_1,,,,,,,,,,,,,orange,hexagon
408.0,8.0,4.0,1.0,4.0,4.0,369.5473419938935,4.0,1.0,part_1,,,,,,,,,,,,,cyan,diamond
195.0,7.0,3.0,1.0,1.0,1.0,338.2104759948561,4.0,1.0,part_1,,,,,,,,,,,,,magenta,square
0.0,3.0,0.0,0.0,4.0,4.0,510.5499549972592,4.0,1.0,part_1,,,,,,,,,,,,,white,cross
0.0,7.0,0.0,1.0,2.0,2.0,428.2237449951935,4.0,1.0,part_1,,,,,,,,,,,,,magenta,square
409.0,4.0,4.0,0.0,1.0,1.0,699.0203650057083,4.0,1.0,part_1,,,,,,,,,,,,,blue,flipped triangle
107.0,6.0,2.0,1.0,4.0,4.0,582.6846109994221,4.0,1.0,part_1,,,,,,,,,,,,,yellow,I
76.0,2.0,2.0,0.0,2.0,2.0,505.6378220033366,4.0,1.0,part_1,,,,,,,,,,,,,orange,hexagon
212.0,3.0,3.0,0.0,4.0,4.0,553.4708009945462,4.0,1.0,part_1,,,,,,,,,,,,,white,cross
0.0,7.0,0.0,1.0,4.0,4.0,526.272164992406,4.0,1.0,part_1,,,,,,,,,,,,,magenta,square
101.0,2.0,2.0,0.0,2.0,2.0,442.5490819994593,4.0,1.0,part_1,,,,,,,,,,,,,orange,hexagon
416.0,4.0,4.0,0.0,2.0,2.0,452.6256789977196,4.0,1.0,part_1,,,,,,,,,,,,,blue,flipped triangle
414.0,8.0,4.0,1.0,1.0,1.0,299.9329710000893,4.0,1.0,part_1,,,,,,,,,,,,,cyan,diamond
29.0,1.0,1.0,0.0,4.0,4.0,488.6579739977605,4.0,1.0,part_1,,,,,,,,,,,,,green,triangle
207.0,3.0,3.0,0.0,1.0,1.0,394.2588939971756,4.0,1.0,part_1,,,,,,,,,,,,,white,cross
79.0,2.0,2.0,0.0,2.0,2.0,438.7716390046989,4.0,1.0,part_1,,,,,,,,,,,,,orange,hexagon
381.0,4.0,4.0,0.0,4.0,4.0,582.7327279985184,4.0,1.0,part_1,,,,,,,,,,,,,blue,flipped triangle
0.0,7.0,0.0,1.0,1.0,1.0,464.4829180033412,4.0,1.0,part_1,,,,,,,,,,,,,magenta,square
201.0,7.0,3.0,1.0,4.0,4.0,646.7047789919889,4.0,1.0,part_1,,,,,,,,,,,,,magenta,square
0.0,1.0,0.0,0.0,2.0,2.0,291.4223690022481,4.0,1.0,part_1,,,,,,,,,,,,,green,triangle
0.0,8.0,0.0,1.0,2.0,2.0,559.9295479914872,4.0,1.0,part_1,,,,,,,,,,,,,cyan,diamond
179.0,7.0,3.0,1.0,3.0,3.0,599.3636760103982,4.0,1.0,part_1,,,,,,,,,,,,,magenta,square
41.0,5.0,1.0,1.0,4.0,4.0,855.7238549983595,4.0,1.0,part_1,,,,,,,,,,,,,gray,circle
65.0,5.0,1.0,1.0,2.0,2.0,790.2641929977108,4.0,1.0,part_1,,,,,,,,,,,,,gray,circle
222.0,3.0,3.0,0.0,4.0,4.0,332.1958710002946,4.0,1.0,part_1,,,,,,,,,,,,,white,cross
193.0,3.0,3.0,0.0,4.0,4.0,750.80161500955,4.0,1.0,part_1,,,,,,,,,,,,,white,cross
74.0,1.0,1.0,0.0,3.0,3.0,579.5899479999207,4.0,1.0,part_1,,,,,,,,,,,,,green,triangle
396.0,4.0,4.0,0.0,3.0,3.0,503.81830798869487,4.0,1.0,part_1,,,,,,,,,,,,,blue,flipped triangle
191.0,7.0,3.0,1.0,3.0,3.0,581.8641140067484,4.0,1.0,part_1,,,,,,,,,,,,,magenta,square
117.0,2.0,2.0,0.0,2.0,2.0,512.3102700017625,4.0,1.0,part_1,,,,,,,,,,,,,orange,hexagon
184.0,7.0,3.0,1.0,3.0,3.0,431.6555549885379,4.0,1.0,part_1,,,,,,,,,,,,,magenta,square
175.0,7.0,3.0,1.0,2.0,2.0,254.69975399028039,4.0,2.0,part_1,,,,,,,,,,,,,magenta,square
82.0,6.0,2.0,1.0,3.0,3.0,366.3728389947209,4.0,1.0,part_1,,,,,,,,,,,,,yellow,I
55.0,1.0,1.0,0.0,2.0,2.0,450.7626749982591,4.0,1.0,part_1,,,,,,,,,,,,,green,triangle
48.0,1.0,1.0,0.0,4.0,4.0,452.5890119984979,4.0,1.0,part_1,,,,,,,,,,,,,green,triangle
0.0,8.0,0.0,1.0,2.0,2.0,345.868591000908,4.0,1.0,part_1,,,,,,,,,,,,,cyan,diamond
404.0,4.0,4.0,0.0,2.0,2.0,397.9974670073716,4.0,1.0,part_1,,,,,,,,,,,,,blue,flipped triangle
57.0,1.0,1.0,0.0,1.0,1.0,305.0056329957442,4.0,2.0,part_1,,,,,,,,,,,,,green,triangle
58.0,1.0,1.0,0.0,3.0,3.0,406.3371090014698,4.0,1.0,part_1,,,,,,,,,,,,,green,triangle
186.0,3.0,3.0,0.0,2.0,2.0,561.1486690031597,4.0,1.0,part_1,,,,,,,,,,,,,white,cross
0.0,1.0,0.0,0.0,4.0,4.0,559.6268610097468,4.0,1.0,part_1,,,,,,,,,,,,,green,triangle
0.0,1.0,0.0,0.0,3.0,3.0,475.717743000132,4.0,1.0,part_1,,,,,,,,,,,,,green,triangle
72.0,5.0,1.0,1.0,4.0,4.0,505.243278996204,4.0,1.0,part_1,,,,,,,,,,,,,gray,circle
396.0,4.0,4.0,0.0,4.0,4.0,420.4056719900109,4.0,1.0,part_1,,,,,,,,,,,,,blue,flipped triangle
64.0,5.0,1.0,1.0,1.0,1.0,540.2660779946018,4.0,1.0,part_1,,,,,,,,,,,,,gray,circle
32.0,5.0,1.0,1.0,3.0,3.0,218.6269049998372,4.0,2.0,part_1,,,,,,,,,,,,,gray,circle
85.0,2.0,2.0,0.0,2.0,2.0,505.3043960069772,4.0,1.0,part_1,,,,,,,,,,,,,orange,hexagon
0.0,6.0,0.0,1.0,3.0,3.0,543.039490992669,4.0,1.0,part_1,,,,,,,,,,,,,yellow,I
29.0,1.0,1.0,0.0,2.0,2.0,522.5940639938926,4.0,1.0,part_1,,,,,,,,,,,,,green,triangle
409.0,8.0,4.0,1.0,2.0,2.0,526.614126007189,4.0,1.0,part_1,,,,,,,,,,,,,cyan,diamond
105.0,6.0,2.0,1.0,2.0,2.0,484.860252996441,4.0,1.0,part_1,,,,,,,,,,,,,yellow,I
396.0,4.0,4.0,0.0,2.0,2.0,430.33719700179057,4.0,1.0,part_1,,,,,,,,,,,,,blue,flipped triangle
38.0,1.0,1.0,0.0,1.0,1.0,546.7555179930059,4.0,1.0,part_1,,,,,,,,,,,,,green,triangle
410.0,8.0,4.0,1.0,3.0,3.0,553.0067049985519,4.0,1.0,part_1,,,,,,,,,,,,,cyan,diamond
59.0,5.0,1.0,1.0,3.0,3.0,362.4196169985225,4.0,2.0,part_1,,,,,,,,,,,,,gray,circle
98.0,2.0,2.0,0.0,1.0,1.0,557.7277970005525,4.0,1.0,part_1,,,,,,,,,,,,,orange,hexagon
185.0,7.0,3.0,1.0,1.0,1.0,581.3966909918236,4.0,1.0,part_1,,,,,,,,,,,,,magenta,square
177.0,3.0,3.0,0.0,2.0,2.0,382.8253190004034,4.0,1.0,part_1,,,,,,,,,,,,,white,cross
0.0,6.0,0.0,1.0,2.0,2.0,484.4348959886702,4.0,1.0,part_1,,,,,,,,,,,,,yellow,I
106.0,2.0,2.0,0.0,3.0,3.0,705.6213009927887,4.0,1.0,part_1,,,,,,,,,,,,,orange,hexagon
0.0,8.0,0.0,1.0,1.0,1.0,479.5932149863802,4.0,1.0,part_1,,,,,,,,,,,,,cyan,diamond
111.0,6.0,2.0,1.0,1.0,1.0,410.1309520046925,4.0,1.0,part_1,,,,,,,,,,,,,yellow,I
402.0,8.0,4.0,1.0,3.0,3.0,641.2492469971767,4.0,1.0,part_1,,,,,,,,,,,,,cyan,diamond
199.0,7.0,3.0,1.0,3.0,3.0,459.8403230047552,4.0,1.0,part_1,,,,,,,,,,,,,magenta,square
117.0,6.0,2.0,1.0,1.0,1.0,575.7327730098041,4.0,1.0,part_1,,,,,,,,,,,,,yellow,I
76.0,6.0,2.0,1.0,2.0,2.0,628.9838160009822,4.0,1.0,part_1,,,,,,,,,,,,,yellow,I
0.0,1.0,0.0,0.0,4.0,4.0,513.5557870089542,4.0,1.0,part_1,,,,,,,,,,,,,green,triangle
57.0,5.0,1.0,1.0,1.0,1.0,423.4006649930961,4.0,1.0,part_1,,,,,,,,,,,,,gray,circle
382.0,8.0,4.0,1.0,1.0,1.0,372.7944230049616,4.0,1.0,part_1,,,,,,,,,,,,,cyan,diamond
55.0,1.0,1.0,0.0,3.0,3.0,610.9892679960467,4.0,1.0,part_1,,,,,,,,,,,,,green,triangle
388.0,4.0,4.0,0.0,2.0,2.0,413.3869549987139,4.0,1.0,part_1,,,,,,,,,,,,,blue,flipped triangle
0.0,5.0,0.0,1.0,2.0,2.0,376.1186829942744,4.0,1.0,part_1,,,,,,,,,,,,,gray,circle
407.0,4.0,4.0,0.0,2.0,2.0,550.8996150019811,4.0,1.0,part_1,,,,,,,,,,,,,blue,flipped triangle
416.0,4.0,4.0,0.0,1.0,1.0,389.7250279987929,4.0,1.0,part_1,,,,,,,,,,,,,blue,flipped triangle
92.0,6.0,2.0,1.0,4.0,4.0,470.8698429894866,4.0,1.0,part_1,,,,,,,,,,,,,yellow,I
0.0,5.0,0.0,1.0,1.0,1.0,427.4037320137722,4.0,1.0,part_1,,,,,,,,,,,,,gray,circle
407.0,8.0,4.0,1.0,1.0,1.0,402.7913699974306,4.0,1.0,part_1,,,,,,,,,,,,,cyan,diamond
93.0,6.0,2.0,1.0,2.0,2.0,454.3570089881541,4.0,1.0,part_1,,,,,,,,,,,,,yellow,I
29.0,5.0,1.0,1.0,3.0,3.0,745.9051079931669,4.0,1.0,part_1,,,,,,,,,,,,,gray,circle
0.0,5.0,0.0,1.0,3.0,3.0,665.6312240083935,4.0,1.0,part_1,,,,,,,,,,,,,gray,circle
0.0,2.0,0.0,0.0,4.0,4.0,694.1191139922012,4.0,1.0,part_1,,,,,,,,,,,,,orange,hexagon
54.0,5.0,1.0,1.0,1.0,1.0,529.0114180097589,4.0,1.0,part_1,,,,,,,,,,,,,gray,circle
108.0,2.0,2.0,0.0,3.0,3.0,709.5925750036258,4.0,1.0,part_1,,,,,,,,,,,,,orange,hexagon
0.0,1.0,0.0,0.0,3.0,3.0,426.6569419996813,4.0,1.0,part_1,,,,,,,,,,,,,green,triangle
0.0,3.0,0.0,0.0,2.0,2.0,437.1629470115294,4.0,1.0,part_1,,,,,,,,,,,,,white,cross
405.0,4.0,4.0,0.0,3.0,3.0,540.5099909985438,4.0,1.0,part_1,,,,,,,,,,,,,blue,flipped triangle
0.0,4.0,4.0,0.0,5.0,5.0,575.0949059874984,1.0,0.0,part_2,go,250.0,250.0,1.0,,,,,,,,,blue,flipped triangle
0.0,4.0,4.0,0.0,6.0,6.0,1309.3817129993113,1.0,0.0,part_2,go,250.0,250.0,1.0,,,,,,,,,blue,flipped triangle
0.0,8.0,4.0,1.0,6.0,6.0,710.8766029996332,1.0,0.0,part_2,stop,250.0,250.0,3.0,,,,,,,,,cyan,diamond
0.0,1.0,1.0,0.0,5.0,5.0,404.1746879956918,1.0,0.0,part_2,go,250.0,200.0,1.0,,,,,,,,,green,triangle
0.0,6.0,2.0,1.0,5.0,5.0,543.5766380105633,1.0,0.0,part_2,stop,250.0,200.0,3.0,,,,,,,,,yellow,I
0.0,7.0,3.0,1.0,6.0,6.0,491.1260579974623,1.0,0.0,part_2,go,200.0,200.0,1.0,,,,,,,,,magenta,square
0.0,7.0,3.0,1.0,5.0,0.0,0.0,1.0,0.0,part_2,stop,200.0,200.0,4.0,,,,,,,,,magenta,square
0.0,6.0,2.0,1.0,5.0,5.0,881.8075489980401,1.0,0.0,part_2,go,250.0,200.0,1.0,,,,,,,,,yellow,I
0.0,8.0,4.0,1.0,5.0,5.0,721.226323992596,1.0,0.0,part_2,go,250.0,200.0,1.0,,,,,,,,,cyan,diamond
0.0,7.0,3.0,1.0,6.0,6.0,400.8025369985262,1.0,0.0,part_2,stop,250.0,200.0,3.0,,,,,,,,,magenta,square
0.0,6.0,2.0,1.0,5.0,5.0,1032.256154998322,1.0,0.0,part_2,go,250.0,150.0,1.0,,,,,,,,,yellow,I
0.0,2.0,2.0,0.0,6.0,6.0,827.5820530107012,1.0,0.0,part_2,go,250.0,150.0,1.0,,,,,,,,,orange,hexagon
0.0,5.0,1.0,1.0,5.0,0.0,0.0,1.0,0.0,part_2,stop,250.0,150.0,4.0,,,,,,,,,gray,circle
0.0,2.0,2.0,0.0,6.0,6.0,446.7335259978426,1.0,0.0,part_2,go,300.0,150.0,1.0,,,,,,,,,orange,hexagon
0.0,1.0,1.0,0.0,5.0,5.0,886.6788739978801,1.0,0.0,part_2,go,300.0,150.0,1.0,,,,,,,,,green,triangle
0.0,7.0,3.0,1.0,5.0,5.0,448.0068639968522,1.0,0.0,part_2,go,300.0,150.0,1.0,,,,,,,,,magenta,square
0.0,1.0,1.0,0.0,5.0,5.0,676.6971569886664,1.0,0.0,part_2,go,300.0,150.0,1.0,,,,,,,,,green,triangle
0.0,3.0,3.0,0.0,6.0,6.0,516.2886820035055,1.0,0.0,part_2,go,300.0,150.0,1.0,,,,,,,,,white,cross
0.0,7.0,3.0,1.0,6.0,0.0,0.0,1.0,0.0,part_2,stop,300.0,150.0,4.0,,,,,,,,,magenta,square
0.0,7.0,3.0,1.0,6.0,0.0,0.0,1.0,0.0,part_2,stop,300.0,200.0,4.0,,,,,,,,,magenta,square
0.0,1.0,1.0,0.0,6.0,6.0,836.2860139895929,1.0,0.0,part_2,go,300.0,250.0,1.0,,,,,,,,,green,triangle
0.0,3.0,3.0,0.0,6.0,6.0,441.7702450009528,1.0,0.0,part_2,go,300.0,250.0,1.0,,,,,,,,,white,cross
0.0,4.0,4.0,0.0,5.0,5.0,436.5008690074319,1.0,0.0,part_2,go,300.0,250.0,1.0,,,,,,,,,blue,flipped triangle
0.0,2.0,2.0,0.0,6.0,6.0,788.817463995656,1.0,0.0,part_2,go,300.0,250.0,1.0,,,,,,,,,orange,hexagon
0.0,7.0,3.0,1.0,6.0,6.0,512.6721260021441,1.0,0.0,part_2,go,300.0,250.0,1.0,,,,,,,,,magenta,square
0.0,4.0,4.0,0.0,6.0,6.0,409.6577930031344,1.0,0.0,part_2,go,300.0,250.0,1.0,,,,,,,,,blue,flipped triangle
0.0,4.0,4.0,0.0,5.0,5.0,640.18378900073,1.0,0.0,part_2,go,300.0,250.0,1.0,,,,,,,,,blue,flipped triangle
0.0,4.0,4.0,0.0,5.0,5.0,450.9816039935685,1.0,0.0,part_2,go,300.0,250.0,1.0,,,,,,,,,blue,flipped triangle
0.0,7.0,3.0,1.0,6.0,6.0,384.2681489913957,1.0,0.0,part_2,stop,300.0,250.0,3.0,,,,,,,,,magenta,square
0.0,8.0,4.0,1.0,5.0,5.0,800.3665190044558,1.0,0.0,part_2,go,300.0,200.0,1.0,,,,,,,,,cyan,diamond
0.0,4.0,4.0,0.0,5.0,5.0,405.662620003568,1.0,0.0,part_2,go,300.0,200.0,1.0,,,,,,,,,blue,flipped triangle
0.0,3.0,3.0,0.0,5.0,5.0,351.71930299839,1.0,0.0,part_2,go,300.0,200.0,1.0,,,,,,,,,white,cross
0.0,4.0,4.0,0.0,6.0,6.0,756.48804201046,1.0,0.0,part_2,go,300.0,200.0,1.0,,,,,,,,,blue,flipped triangle
0.0,7.0,3.0,1.0,5.0,0.0,0.0,1.0,0.0,part_2,stop,300.0,200.0,4.0,,,,,,,,,magenta,square
0.0,2.0,2.0,0.0,5.0,5.0,675.8692319999682,1.0,0.0,part_2,go,350.0,200.0,1.0,,,,,,,,,orange,hexagon
0.0,2.0,2.0,0.0,6.0,6.0,365.629940002691,1.0,0.0,part_2,go,350.0,200.0,1.0,,,,,,,,,orange,hexagon
0.0,5.0,1.0,1.0,6.0,6.0,803.7670329940738,2.0,0.0,part_2,go,350.0,200.0,1.0,,,,,,,,,gray,circle
0.0,2.0,2.0,0.0,5.0,5.0,489.7626040037721,2.0,0.0,part_2,go,350.0,200.0,1.0,,,,,,,,,orange,hexagon
0.0,6.0,2.0,1.0,6.0,6.0,416.0581879987148,2.0,0.0,part_2,stop,350.0,200.0,3.0,,,,,,,,,yellow,I
0.0,1.0,1.0,0.0,5.0,5.0,535.8576449943939,2.0,0.0,part_2,go,350.0,150.0,1.0,,,,,,,,,green,triangle
0.0,7.0,3.0,1.0,6.0,0.0,0.0,2.0,0.0,part_2,stop,350.0,150.0,4.0,,,,,,,,,magenta,square
0.0,3.0,3.0,0.0,5.0,5.0,544.0272539999569,2.0,0.0,part_2,go,350.0,200.0,1.0,,,,,,,,,white,cross
0.0,6.0,2.0,1.0,6.0,6.0,757.1809359942563,2.0,0.0,part_2,go,350.0,200.0,1.0,,,,,,,,,yellow,I
0.0,7.0,3.0,1.0,5.0,5.0,704.3932030064752,2.0,0.0,part_2,go,350.0,200.0,1.0,,,,,,,,,magenta,square
0.0,1.0,1.0,0.0,6.0,6.0,444.8670050041983,2.0,0.0,part_2,go,350.0,200.0,1.0,,,,,,,,,green,triangle
0.0,6.0,2.0,1.0,6.0,0.0,0.0,2.0,0.0,part_2,stop,350.0,200.0,4.0,,,,,,,,,yellow,I
0.0,8.0,4.0,1.0,6.0,0.0,0.0,2.0,0.0,part_2,stop,350.0,250.0,4.0,,,,,,,,,cyan,diamond
0.0,7.0,3.0,1.0,5.0,0.0,0.0,2.0,0.0,part_2,stop,350.0,300.0,4.0,,,,,,,,,magenta,square
0.0,2.0,2.0,0.0,6.0,5.0,843.4032369987108,2.0,0.0,part_2,go,400.0,300.0,2.0,,,,,,,,,orange,hexagon
0.0,6.0,2.0,1.0,6.0,0.0,0.0,2.0,0.0,part_2,stop,400.0,300.0,4.0,,,,,,,,,yellow,I
0.0,3.0,3.0,0.0,5.0,5.0,760.6873949989676,2.0,0.0,part_2,go,400.0,350.0,1.0,,,,,,,,,white,cross
0.0,8.0,4.0,1.0,5.0,5.0,735.9846449980978,2.0,0.0,part_2,go,400.0,350.0,1.0,,,,,,,,,cyan,diamond
0.0,2.0,2.0,0.0,5.0,5.0,368.6125569947762,2.0,0.0,part_2,go,400.0,350.0,1.0,,,,,,,,,orange,hexagon
0.0,5.0,1.0,1.0,5.0,5.0,378.8449489948107,2.0,0.0,part_2,stop,400.0,350.0,3.0,,,,,,,,,gray,circle
0.0,8.0,4.0,1.0,6.0,0.0,0.0,2.0,0.0,part_2,stop,350.0,350.0,4.0,,,,,,,,,cyan,diamond
0.0,8.0,4.0,1.0,6.0,0.0,0.0,2.0,0.0,part_2,stop,350.0,400.0,4.0,,,,,,,,,cyan,diamond
0.0,8.0,4.0,1.0,5.0,5.0,704.7794569953112,2.0,0.0,part_2,go,350.0,450.0,1.0,,,,,,,,,cyan,diamond
0.0,5.0,1.0,1.0,6.0,6.0,615.4383889952442,2.0,0.0,part_2,go,350.0,450.0,1.0,,,,,,,,,gray,circle
0.0,5.0,1.0,1.0,6.0,6.0,413.0641550000291,2.0,0.0,part_2,stop,350.0,450.0,3.0,,,,,,,,,gray,circle
0.0,3.0,3.0,0.0,5.0,5.0,645.8421620045556,2.0,0.0,part_2,go,350.0,400.0,1.0,,,,,,,,,white,cross
0.0,1.0,1.0,0.0,5.0,5.0,435.5577449896373,2.0,0.0,part_2,go,350.0,400.0,1.0,,,,,,,,,green,triangle
0.0,7.0,3.0,1.0,6.0,0.0,0.0,2.0,0.0,part_2,stop,350.0,400.0,4.0,,,,,,,,,magenta,square
0.0,1.0,1.0,0.0,5.0,5.0,666.818861005595,2.0,0.0,part_2,go,350.0,450.0,1.0,,,,,,,,,green,triangle
0.0,5.0,1.0,1.0,6.0,6.0,659.5085580047453,2.0,0.0,part_2,go,350.0,450.0,1.0,,,,,,,,,gray,circle
0.0,5.0,1.0,1.0,5.0,0.0,0.0,2.0,0.0,part_2,stop,350.0,450.0,4.0,,,,,,,,,gray,circle
0.0,6.0,2.0,1.0,5.0,0.0,0.0,2.0,0.0,part_2,stop,400.0,450.0,4.0,,,,,,,,,yellow,I
0.0,2.0,2.0,0.0,5.0,5.0,778.9139580127085,2.0,0.0,part_2,go,450.0,450.0,1.0,,,,,,,,,orange,hexagon
0.0,4.0,4.0,0.0,5.0,5.0,624.0394810010912,2.0,0.0,part_2,go,450.0,450.0,1.0,,,,,,,,,blue,flipped triangle
0.0,3.0,3.0,0.0,6.0,6.0,696.83367300604,2.0,0.0,part_2,go,450.0,450.0,1.0,,,,,,,,,white,cross
0.0,4.0,4.0,0.0,5.0,5.0,463.1082779960707,2.0,0.0,part_2,go,450.0,450.0,1.0,,,,,,,,,blue,flipped triangle
0.0,8.0,4.0,1.0,5.0,5.0,463.4905319981044,2.0,0.0,part_2,go,450.0,450.0,1.0,,,,,,,,,cyan,diamond
0.0,1.0,1.0,0.0,5.0,5.0,792.4344950006343,2.0,0.0,part_2,go,450.0,450.0,1.0,,,,,,,,,green,triangle
0.0,4.0,4.0,0.0,6.0,6.0,692.76323998929,3.0,0.0,part_2,go,450.0,450.0,1.0,,,,,,,,,blue,flipped triangle
0.0,7.0,3.0,1.0,5.0,5.0,529.8491499997908,3.0,0.0,part_2,stop,450.0,450.0,3.0,,,,,,,,,magenta,square
0.0,1.0,1.0,0.0,5.0,5.0,650.6153890077258,3.0,0.0,part_2,go,400.0,450.0,1.0,,,,,,,,,green,triangle
0.0,5.0,1.0,1.0,6.0,6.0,353.1180270074401,3.0,0.0,part_2,go,400.0,450.0,1.0,,,,,,,,,gray,circle
0.0,6.0,2.0,1.0,5.0,5.0,532.0408459956525,3.0,0.0,part_2,go,400.0,450.0,1.0,,,,,,,,,yellow,I
0.0,1.0,1.0,0.0,6.0,6.0,489.268441000604,3.0,0.0,part_2,go,400.0,450.0,1.0,,,,,,,,,green,triangle
0.0,4.0,4.0,0.0,6.0,6.0,458.5347959946375,3.0,0.0,part_2,go,400.0,450.0,1.0,,,,,,,,,blue,flipped triangle
0.0,3.0,3.0,0.0,6.0,6.0,710.2338319964474,3.0,0.0,part_2,go,400.0,450.0,1.0,,,,,,,,,white,cross
0.0,6.0,2.0,1.0,6.0,6.0,464.8109650006518,3.0,0.0,part_2,stop,400.0,450.0,3.0,,,,,,,,,yellow,I
0.0,3.0,3.0,0.0,5.0,5.0,374.1232700122054,3.0,0.0,part_2,go,400.0,400.0,1.0,,,,,,,,,white,cross
0.0,6.0,2.0,1.0,6.0,6.0,544.0212510002311,3.0,0.0,part_2,go,400.0,400.0,1.0,,,,,,,,,yellow,I
0.0,5.0,1.0,1.0,5.0,0.0,0.0,3.0,0.0,part_2,stop,400.0,400.0,4.0,,,,,,,,,gray,circle
0.0,8.0,4.0,1.0,6.0,0.0,0.0,3.0,0.0,part_2,stop,450.0,400.0,4.0,,,,,,,,,cyan,diamond
0.0,5.0,1.0,1.0,5.0,0.0,0.0,3.0,0.0,part_2,stop,450.0,450.0,4.0,,,,,,,,,gray,circle
0.0,2.0,2.0,0.0,5.0,5.0,674.4459330075188,3.0,0.0,part_2,go,500.0,450.0,1.0,,,,,,,,,orange,hexagon
0.0,3.0,3.0,0.0,5.0,5.0,459.7756089933682,3.0,0.0,part_2,go,500.0,450.0,1.0,,,,,,,,,white,cross
0.0,8.0,4.0,1.0,5.0,5.0,524.3979910010239,3.0,0.0,part_2,stop,500.0,450.0,3.0,,,,,,,,,cyan,diamond
0.0,4.0,4.0,0.0,5.0,5.0,619.8454619880067,3.0,0.0,part_2,go,450.0,450.0,1.0,,,,,,,,,blue,flipped triangle
0.0,1.0,1.0,0.0,6.0,6.0,354.5161100046243,3.0,0.0,part_2,go,450.0,450.0,1.0,,,,,,,,,green,triangle
0.0,2.0,2.0,0.0,5.0,5.0,481.9493380055064,3.0,0.0,part_2,go,450.0,450.0,1.0,,,,,,,,,orange,hexagon
0.0,4.0,4.0,0.0,5.0,5.0,449.499783993815,3.0,0.0,part_2,go,450.0,450.0,1.0,,,,,,,,,blue,flipped triangle
0.0,3.0,3.0,0.0,6.0,6.0,458.0292669998016,3.0,0.0,part_2,go,450.0,450.0,1.0,,,,,,,,,white,cross
0.0,7.0,3.0,1.0,6.0,6.0,376.3049089902779,3.0,0.0,part_2,stop,450.0,450.0,3.0,,,,,,,,,magenta,square
0.0,6.0,2.0,1.0,5.0,5.0,589.6899729996221,3.0,0.0,part_2,go,450.0,400.0,1.0,,,,,,,,,yellow,I
0.0,4.0,4.0,0.0,6.0,6.0,567.3218299925793,3.0,0.0,part_2,go,450.0,400.0,1.0,,,,,,,,,blue,flipped triangle
0.0,3.0,3.0,0.0,5.0,5.0,342.148513009306,3.0,0.0,part_2,go,450.0,400.0,1.0,,,,,,,,,white,cross
0.0,8.0,4.0,1.0,5.0,5.0,404.3427400029031,3.0,0.0,part_2,stop,450.0,400.0,3.0,,,,,,,,,cyan,diamond
0.0,6.0,2.0,1.0,6.0,0.0,0.0,3.0,0.0,part_2,stop,400.0,400.0,4.0,,,,,,,,,yellow,I
0.0,3.0,3.0,0.0,6.0,6.0,579.7202679968905,3.0,0.0,part_2,go,400.0,450.0,1.0,,,,,,,,,white,cross
0.0,5.0,1.0,1.0,5.0,5.0,374.5282910094829,3.0,0.0,part_2,stop,400.0,450.0,3.0,,,,,,,,,gray,circle
0.0,8.0,4.0,1.0,5.0,0.0,0.0,3.0,0.0,part_2,stop,350.0,450.0,4.0,,,,,,,,,cyan,diamond
0.0,3.0,3.0,0.0,6.0,6.0,635.5702279979596,3.0,0.0,part_2,go,400.0,450.0,1.0,,,,,,,,,white,cross
0.0,4.0,4.0,0.0,6.0,6.0,611.5789479954401,3.0,0.0,part_2,go,400.0,450.0,1.0,,,,,,,,,blue,flipped triangle
0.0,5.0,1.0,1.0,5.0,0.0,0.0,3.0,0.0,part_2,stop,400.0,450.0,4.0,,,,,,,,,gray,circle
0.0,2.0,2.0,0.0,5.0,5.0,688.785877006012,3.0,0.0,part_2,go,450.0,450.0,1.0,,,,,,,,,orange,hexagon
0.0,4.0,4.0,0.0,5.0,5.0,666.2383770017186,3.0,0.0,part_2,go,450.0,450.0,1.0,,,,,,,,,blue,flipped triangle
0.0,4.0,4.0,0.0,5.0,5.0,718.1341909890762,4.0,0.0,part_2,go,450.0,450.0,1.0,,,,,,,,,blue,flipped triangle
0.0,6.0,2.0,1.0,5.0,5.0,415.9496159991249,4.0,0.0,part_2,stop,450.0,450.0,3.0,,,,,,,,,yellow,I
0.0,5.0,1.0,1.0,5.0,0.0,0.0,4.0,0.0,part_2,stop,400.0,450.0,4.0,,,,,,,,,gray,circle
0.0,6.0,2.0,1.0,5.0,5.0,638.8305269938428,4.0,0.0,part_2,stop,450.0,450.0,3.0,,,,,,,,,yellow,I
0.0,7.0,3.0,1.0,6.0,6.0,533.7893350078957,4.0,0.0,part_2,go,400.0,450.0,1.0,,,,,,,,,magenta,square
0.0,8.0,4.0,1.0,6.0,6.0,398.5001830005785,4.0,0.0,part_2,stop,400.0,450.0,3.0,,,,,,,,,cyan,diamond
0.0,2.0,2.0,0.0,6.0,6.0,666.8168479955057,4.0,0.0,part_2,go,400.0,400.0,1.0,,,,,,,,,orange,hexagon
0.0,1.0,1.0,0.0,5.0,5.0,745.8082889934303,4.0,0.0,part_2,go,400.0,400.0,1.0,,,,,,,,,green,triangle
0.0,6.0,2.0,1.0,5.0,5.0,433.66555099783,4.0,0.0,part_2,stop,400.0,400.0,3.0,,,,,,,,,yellow,I
0.0,3.0,3.0,0.0,6.0,6.0,717.1171010122634,4.0,0.0,part_2,go,350.0,400.0,1.0,,,,,,,,,white,cross
0.0,8.0,4.0,1.0,5.0,0.0,0.0,4.0,0.0,part_2,stop,350.0,400.0,4.0,,,,,,,,,cyan,diamond
0.0,4.0,4.0,0.0,6.0,6.0,728.5985909984447,4.0,0.0,part_2,go,400.0,400.0,1.0,,,,,,,,,blue,flipped triangle
0.0,3.0,3.0,0.0,5.0,5.0,967.8068200009876,4.0,0.0,part_2,go,400.0,400.0,1.0,,,,,,,,,white,cross
0.0,1.0,1.0,0.0,5.0,5.0,727.7728819899494,4.0,0.0,part_2,go,400.0,400.0,1.0,,,,,,,,,green,triangle
0.0,6.0,2.0,1.0,5.0,0.0,0.0,4.0,0.0,part_2,stop,400.0,400.0,4.0,,,,,,,,,yellow,I
0.0,2.0,2.0,0.0,5.0,5.0,441.1880889965687,4.0,0.0,part_2,go,450.0,400.0,1.0,,,,,,,,,orange,hexagon
0.0,8.0,4.0,1.0,6.0,6.0,975.0666670006468,4.0,0.0,part_2,go,450.0,400.0,1.0,,,,,,,,,cyan,diamond
0.0,3.0,3.0,0.0,5.0,5.0,990.6305939948652,4.0,0.0,part_2,go,450.0,400.0,1.0,,,,,,,,,white,cross
0.0,7.0,3.0,1.0,5.0,5.0,550.6753939989721,4.0,0.0,part_2,stop,450.0,400.0,3.0,,,,,,,,,magenta,square
0.0,4.0,4.0,0.0,6.0,6.0,659.2163539899047,4.0,0.0,part_2,go,400.0,400.0,1.0,,,,,,,,,blue,flipped triangle
0.0,7.0,3.0,1.0,5.0,5.0,477.0498210127698,4.0,0.0,part_2,stop,400.0,400.0,3.0,,,,,,,,,magenta,square
0.0,6.0,2.0,1.0,6.0,6.0,381.5494930022396,4.0,0.0,part_2,stop,350.0,400.0,3.0,,,,,,,,,yellow,I
0.0,2.0,2.0,0.0,5.0,5.0,751.3077970070299,4.0,0.0,part_2,go,350.0,350.0,1.0,,,,,,,,,orange,hexagon
0.0,5.0,1.0,1.0,6.0,0.0,0.0,4.0,0.0,part_2,stop,350.0,350.0,4.0,,,,,,,,,gray,circle
0.0,3.0,3.0,0.0,5.0,5.0,683.1660280004144,4.0,0.0,part_2,go,350.0,400.0,1.0,,,,,,,,,white,cross
0.0,4.0,4.0,0.0,5.0,5.0,675.2165459911339,4.0,0.0,part_2,go,350.0,400.0,1.0,,,,,,,,,blue,flipped triangle
0.0,2.0,2.0,0.0,5.0,5.0,631.710044995998,4.0,0.0,part_2,go,350.0,400.0,1.0,,,,,,,,,orange,hexagon
0.0,1.0,1.0,0.0,6.0,6.0,762.6665059942752,4.0,0.0,part_2,go,350.0,400.0,1.0,,,,,,,,,green,triangle
0.0,8.0,4.0,1.0,5.0,0.0,0.0,4.0,0.0,part_2,stop,350.0,400.0,4.0,,,,,,,,,cyan,diamond
0.0,6.0,2.0,1.0,6.0,0.0,0.0,4.0,0.0,part_2,stop,400.0,400.0,4.0,,,,,,,,,yellow,I
0.0,3.0,3.0,0.0,6.0,6.0,1086.3066210004035,4.0,0.0,part_2,go,400.0,450.0,1.0,,,,,,,,,white,cross
0.0,8.0,4.0,1.0,5.0,0.0,0.0,4.0,0.0,part_2,stop,400.0,450.0,4.0,,,,,,,,,cyan,diamond
0.0,8.0,4.0,1.0,5.0,0.0,0.0,4.0,0.0,part_2,stop,450.0,450.0,4.0,,,,,,,,,cyan,diamond
0.0,4.0,4.0,0.0,6.0,6.0,686.4591769990511,4.0,0.0,part_2,go,500.0,450.0,1.0,,,,,,,,,blue,flipped triangle
0.0,8.0,4.0,1.0,6.0,0.0,0.0,4.0,0.0,part_2,stop,500.0,450.0,4.0,,,,,,,,,cyan,diamond
0.0,5.0,1.0,1.0,6.0,6.0,595.8157470013248,4.0,0.0,part_2,stop,500.0,500.0,3.0,,,,,,,,,gray,circle
0.0,6.0,2.0,1.0,6.0,0.0,0.0,5.0,0.0,part_2,stop,500.0,450.0,4.0,,,,,,,,,yellow,I
0.0,2.0,2.0,0.0,5.0,6.0,1052.851849992294,5.0,0.0,part_2,go,500.0,500.0,2.0,,,,,,,,,orange,hexagon
0.0,6.0,2.0,1.0,5.0,5.0,538.5681399930036,5.0,0.0,part_2,stop,500.0,500.0,3.0,,,,,,,,,yellow,I
0.0,6.0,2.0,1.0,6.0,0.0,0.0,5.0,0.0,part_2,stop,450.0,500.0,4.0,,,,,,,,,yellow,I
0.0,7.0,3.0,1.0,5.0,0.0,0.0,5.0,0.0,part_2,stop,450.0,550.0,4.0,,,,,,,,,magenta,square
0.0,3.0,3.0,0.0,6.0,6.0,648.9964270003838,5.0,0.0,part_2,go,500.0,550.0,1.0,,,,,,,,,white,cross
0.0,1.0,1.0,0.0,6.0,6.0,1282.110747997649,5.0,0.0,part_2,go,500.0,550.0,1.0,,,,,,,,,green,triangle
0.0,8.0,4.0,1.0,5.0,0.0,0.0,5.0,0.0,part_2,stop,500.0,550.0,4.0,,,,,,,,,cyan,diamond
0.0,7.0,3.0,1.0,6.0,0.0,0.0,5.0,0.0,part_2,stop,550.0,550.0,4.0,,,,,,,,,magenta,square
0.0,7.0,3.0,1.0,5.0,0.0,0.0,5.0,0.0,part_2,stop,550.0,600.0,4.0,,,,,,,,,magenta,square
0.0,2.0,2.0,0.0,6.0,6.0,887.4436519981828,5.0,0.0,part_2,go,600.0,600.0,1.0,,,,,,,,,orange,hexagon
0.0,3.0,3.0,0.0,5.0,5.0,791.5881719964091,5.0,0.0,part_2,go,600.0,600.0,1.0,,,,,,,,,white,cross
0.0,7.0,3.0,1.0,5.0,5.0,895.6732750084484,5.0,0.0,part_2,go,600.0,600.0,1.0,,,,,,,,,magenta,square
0.0,3.0,3.0,0.0,6.0,6.0,797.8200689976802,5.0,0.0,part_2,go,600.0,600.0,1.0,,,,,,,,,white,cross
0.0,7.0,3.0,1.0,5.0,5.0,615.2730640023947,5.0,0.0,part_2,go,600.0,600.0,1.0,,,,,,,,,magenta,square
0.0,6.0,2.0,1.0,5.0,5.0,734.1162679949775,5.0,0.0,part_2,go,600.0,600.0,1.0,,,,,,,,,yellow,I
0.0,2.0,2.0,0.0,6.0,6.0,679.0971440059366,5.0,0.0,part_2,go,600.0,600.0,1.0,,,,,,,,,orange,hexagon
0.0,8.0,4.0,1.0,6.0,0.0,0.0,5.0,0.0,part_2,stop,600.0,600.0,4.0,,,,,,,,,cyan,diamond
0.0,4.0,4.0,0.0,5.0,5.0,658.7913580005988,5.0,0.0,part_2,go,600.0,650.0,1.0,,,,,,,,,blue,flipped triangle
0.0,2.0,2.0,0.0,5.0,5.0,733.6910919984803,5.0,0.0,part_2,go,600.0,650.0,1.0,,,,,,,,,orange,hexagon
0.0,7.0,3.0,1.0,6.0,6.0,652.950059986324,5.0,0.0,part_2,go,600.0,650.0,1.0,,,,,,,,,magenta,square
0.0,5.0,1.0,1.0,6.0,6.0,592.4291590054054,5.0,0.0,part_2,stop,600.0,650.0,3.0,,,,,,,,,gray,circle
0.0,1.0,1.0,0.0,6.0,6.0,1016.2598589959089,5.0,0.0,part_2,go,600.0,600.0,1.0,,,,,,,,,green,triangle
0.0,8.0,4.0,1.0,5.0,5.0,705.9097129967995,5.0,0.0,part_2,stop,600.0,600.0,3.0,,,,,,,,,cyan,diamond
0.0,1.0,1.0,0.0,6.0,6.0,782.4314729950856,5.0,0.0,part_2,go,550.0,600.0,1.0,,,,,,,,,green,triangle
0.0,4.0,4.0,0.0,6.0,6.0,766.1889330047416,5.0,0.0,part_2,go,550.0,600.0,1.0,,,,,,,,,blue,flipped triangle
0.0,8.0,4.0,1.0,6.0,0.0,0.0,5.0,0.0,part_2,stop,550.0,600.0,4.0,,,,,,,,,cyan,diamond
0.0,1.0,1.0,0.0,5.0,5.0,704.5516049984144,5.0,0.0,part_2,go,550.0,650.0,1.0,,,,,,,,,green,triangle
0.0,7.0,3.0,1.0,6.0,6.0,708.6821480043,5.0,0.0,part_2,stop,550.0,650.0,3.0,,,,,,,,,magenta,square
0.0,2.0,2.0,0.0,6.0,6.0,1028.372617001878,5.0,0.0,part_2,go,550.0,600.0,1.0,,,,,,,,,orange,hexagon
0.0,8.0,4.0,1.0,6.0,6.0,1101.376243997947,5.0,0.0,part_2,go,550.0,600.0,1.0,,,,,,,,,cyan,diamond
0.0,6.0,2.0,1.0,5.0,5.0,666.9507059996249,5.0,0.0,part_2,stop,550.0,600.0,3.0,,,,,,,,,yellow,I
0.0,7.0,3.0,1.0,6.0,0.0,0.0,5.0,0.0,part_2,stop,500.0,600.0,4.0,,,,,,,,,magenta,square
0.0,1.0,1.0,0.0,6.0,0.0,0.0,5.0,0.0,part_2,go,500.0,650.0,5.0,,,,,,,,,green,triangle
0.0,5.0,1.0,1.0,6.0,6.0,1361.5836829994803,5.0,0.0,part_2,go,500.0,650.0,1.0,,,,,,,,,gray,circle
0.0,2.0,2.0,0.0,6.0,6.0,1108.6555940128164,5.0,0.0,part_2,go,500.0,650.0,1.0,,,,,,,,,orange,hexagon
0.0,5.0,1.0,1.0,6.0,6.0,771.7390719917603,6.0,0.0,part_2,stop,500.0,650.0,3.0,,,,,,,,,gray,circle
0.0,6.0,2.0,1.0,5.0,5.0,600.3440429922193,6.0,0.0,part_2,stop,500.0,600.0,3.0,,,,,,,,,yellow,I
0.0,2.0,2.0,0.0,5.0,5.0,617.0980790047906,6.0,0.0,part_2,go,450.0,600.0,1.0,,,,,,,,,orange,hexagon
0.0,8.0,4.0,1.0,6.0,6.0,289.7049159946618,6.0,0.0,part_2,stop,450.0,600.0,3.0,,,,,,,,,cyan,diamond
0.0,2.0,2.0,0.0,6.0,6.0,471.0012419964187,6.0,0.0,part_2,go,450.0,550.0,1.0,,,,,,,,,orange,hexagon
0.0,3.0,3.0,0.0,5.0,5.0,674.2182909947587,6.0,0.0,part_2,go,450.0,550.0,1.0,,,,,,,,,white,cross
0.0,3.0,3.0,0.0,6.0,6.0,342.0257810066687,6.0,0.0,part_2,go,450.0,550.0,1.0,,,,,,,,,white,cross
0.0,7.0,3.0,1.0,6.0,6.0,375.4002650093753,6.0,0.0,part_2,stop,450.0,550.0,3.0,,,,,,,,,magenta,square
0.0,1.0,1.0,0.0,5.0,5.0,569.1601049911696,6.0,0.0,part_2,go,450.0,500.0,1.0,,,,,,,,,green,triangle
0.0,5.0,1.0,1.0,6.0,6.0,573.970940997242,6.0,0.0,part_2,stop,450.0,500.0,3.0,,,,,,,,,gray,circle
0.0,1.0,1.0,0.0,5.0,5.0,613.9011920022313,6.0,0.0,part_2,go,450.0,450.0,1.0,,,,,,,,,green,triangle
0.0,4.0,4.0,0.0,5.0,5.0,395.8630229899427,6.0,0.0,part_2,go,450.0,450.0,1.0,,,,,,,,,blue,flipped triangle
0.0,5.0,1.0,1.0,5.0,5.0,397.1044549980433,6.0,0.0,part_2,stop,450.0,450.0,3.0,,,,,,,,,gray,circle
0.0,3.0,3.0,0.0,6.0,6.0,467.8138279996346,6.0,0.0,part_2,go,400.0,450.0,1.0,,,,,,,,,white,cross
0.0,2.0,2.0,0.0,5.0,5.0,617.8042760002427,6.0,0.0,part_2,go,400.0,450.0,1.0,,,,,,,,,orange,hexagon
0.0,7.0,3.0,1.0,5.0,0.0,0.0,6.0,0.0,part_2,stop,400.0,450.0,4.0,,,,,,,,,magenta,square
0.0,1.0,1.0,0.0,6.0,6.0,587.0699140068609,6.0,0.0,part_2,go,450.0,450.0,1.0,,,,,,,,,green,triangle
0.0,5.0,1.0,1.0,6.0,0.0,0.0,6.0,0.0,part_2,stop,450.0,450.0,4.0,,,,,,,,,gray,circle
0.0,1.0,1.0,0.0,6.0,6.0,839.9289430089993,6.0,0.0,part_2,go,450.0,500.0,1.0,,,,,,,,,green,triangle
0.0,3.0,3.0,0.0,5.0,5.0,847.5063749938272,6.0,0.0,part_2,go,450.0,500.0,1.0,,,,,,,,,white,cross
0.0,2.0,2.0,0.0,6.0,6.0,704.5395040040603,6.0,0.0,part_2,go,450.0,500.0,1.0,,,,,,,,,orange,hexagon
0.0,6.0,2.0,1.0,6.0,0.0,0.0,6.0,0.0,part_2,stop,450.0,500.0,4.0,,,,,,,,,yellow,I
0.0,1.0,1.0,0.0,5.0,5.0,713.4385219978867,6.0,0.0,part_2,go,450.0,550.0,1.0,,,,,,,,,green,triangle
0.0,6.0,2.0,1.0,6.0,0.0,0.0,6.0,0.0,part_2,stop,450.0,550.0,4.0,,,,,,,,,yellow,I
0.0,2.0,2.0,0.0,6.0,6.0,723.8141039997572,6.0,0.0,part_2,go,450.0,600.0,1.0,,,,,,,,,orange,hexagon
0.0,4.0,4.0,0.0,5.0,5.0,358.5272240015911,6.0,0.0,part_2,go,450.0,600.0,1.0,,,,,,,,,blue,flipped triangle
0.0,4.0,4.0,0.0,5.0,5.0,470.8188910008175,6.0,0.0,part_2,go,450.0,600.0,1.0,,,,,,,,,blue,flipped triangle
0.0,8.0,4.0,1.0,6.0,6.0,651.0212689900072,6.0,0.0,part_2,stop,450.0,600.0,3.0,,,,,,,,,cyan,diamond
0.0,5.0,1.0,1.0,6.0,0.0,0.0,6.0,0.0,part_2,stop,450.0,550.0,4.0,,,,,,,,,gray,circle
0.0,5.0,1.0,1.0,6.0,6.0,1013.5569840058452,6.0,0.0,part_2,go,450.0,600.0,1.0,,,,,,,,,gray,circle
0.0,6.0,2.0,1.0,5.0,0.0,0.0,6.0,0.0,part_2,stop,450.0,600.0,4.0,,,,,,,,,yellow,I
0.0,4.0,4.0,0.0,6.0,6.0,848.2425490074093,6.0,0.0,part_2,go,500.0,600.0,1.0,,,,,,,,,blue,flipped triangle
0.0,5.0,1.0,1.0,6.0,0.0,0.0,6.0,0.0,part_2,stop,500.0,600.0,4.0,,,,,,,,,gray,circle
0.0,8.0,4.0,1.0,6.0,6.0,648.4235669922782,6.0,0.0,part_2,stop,500.0,650.0,3.0,,,,,,,,,cyan,diamond
0.0,6.0,2.0,1.0,6.0,6.0,704.6645619993797,6.0,0.0,part_2,stop,500.0,600.0,3.0,,,,,,,,,yellow,I
0.0,2.0,2.0,0.0,6.0,6.0,702.5833259976935,6.0,0.0,part_2,go,500.0,550.0,1.0,,,,,,,,,orange,hexagon
0.0,6.0,2.0,1.0,5.0,5.0,637.917120999191,7.0,0.0,part_2,go,500.0,550.0,1.0,,,,,,,,,yellow,I
0.0,3.0,3.0,0.0,6.0,6.0,530.6858399999328,7.0,0.0,part_2,go,500.0,550.0,1.0,,,,,,,,,white,cross
0.0,8.0,4.0,1.0,5.0,5.0,620.3049509931589,7.0,0.0,part_2,go,500.0,550.0,1.0,,,,,,,,,cyan,diamond
0.0,8.0,4.0,1.0,6.0,6.0,561.4645489986287,7.0,0.0,part_2,go,500.0,550.0,1.0,,,,,,,,,cyan,diamond
0.0,2.0,2.0,0.0,5.0,5.0,544.4162999920081,7.0,0.0,part_2,go,500.0,550.0,1.0,,,,,,,,,orange,hexagon
0.0,6.0,2.0,1.0,6.0,0.0,0.0,7.0,0.0,part_2,stop,500.0,550.0,4.0,,,,,,,,,yellow,I
0.0,7.0,3.0,1.0,5.0,0.0,0.0,7.0,0.0,part_2,stop,500.0,600.0,4.0,,,,,,,,,magenta,square
0.0,8.0,4.0,1.0,5.0,0.0,0.0,7.0,0.0,part_2,stop,550.0,600.0,4.0,,,,,,,,,cyan,diamond
0.0,4.0,4.0,0.0,5.0,5.0,1079.4684220018098,7.0,0.0,part_2,go,600.0,600.0,1.0,,,,,,,,,blue,flipped triangle
0.0,5.0,1.0,1.0,5.0,0.0,0.0,7.0,0.0,part_2,stop,600.0,600.0,4.0,,,,,,,,,gray,circle
0.0,1.0,1.0,0.0,6.0,6.0,932.8148399945349,7.0,0.0,part_2,go,650.0,600.0,1.0,,,,,,,,,green,triangle
0.0,7.0,3.0,1.0,6.0,6.0,693.078439013334,7.0,0.0,part_2,stop,650.0,600.0,3.0,,,,,,,,,magenta,square
0.0,4.0,4.0,0.0,6.0,6.0,980.5368359957356,7.0,0.0,part_2,go,650.0,550.0,1.0,,,,,,,,,blue,flipped triangle
0.0,8.0,4.0,1.0,5.0,5.0,766.5266060066642,7.0,0.0,part_2,stop,650.0,550.0,3.0,,,,,,,,,cyan,diamond
0.0,1.0,1.0,0.0,6.0,6.0,850.7019130047411,7.0,0.0,part_2,go,600.0,550.0,1.0,,,,,,,,,green,triangle
0.0,7.0,3.0,1.0,5.0,5.0,851.3199629960582,7.0,0.0,part_2,stop,600.0,550.0,3.0,,,,,,,,,magenta,square
0.0,1.0,1.0,0.0,6.0,6.0,578.9204220054671,7.0,0.0,part_2,go,550.0,550.0,1.0,,,,,,,,,green,triangle
0.0,5.0,1.0,1.0,5.0,5.0,785.5870339990361,7.0,0.0,part_2,go,550.0,550.0,1.0,,,,,,,,,gray,circle
0.0,2.0,2.0,0.0,6.0,6.0,761.3522439933149,7.0,0.0,part_2,go,550.0,550.0,1.0,,,,,,,,,orange,hexagon
0.0,3.0,3.0,0.0,6.0,6.0,627.427590006846,7.0,0.0,part_2,go,550.0,550.0,1.0,,,,,,,,,white,cross
0.0,1.0,1.0,0.0,6.0,6.0,480.0983930035727,7.0,0.0,part_2,go,550.0,550.0,1.0,,,,,,,,,green,triangle
0.0,1.0,1.0,0.0,5.0,5.0,662.7196570043452,7.0,0.0,part_2,go,550.0,550.0,1.0,,,,,,,,,green,triangle
0.0,6.0,2.0,1.0,5.0,5.0,586.0622629988939,7.0,0.0,part_2,stop,550.0,550.0,3.0,,,,,,,,,yellow,I
0.0,5.0,1.0,1.0,5.0,0.0,0.0,7.0,0.0,part_2,stop,500.0,550.0,4.0,,,,,,,,,gray,circle
0.0,5.0,1.0,1.0,6.0,6.0,864.271718004602,7.0,0.0,part_2,go,550.0,550.0,1.0,,,,,,,,,gray,circle
0.0,7.0,3.0,1.0,5.0,0.0,0.0,7.0,0.0,part_2,stop,550.0,550.0,4.0,,,,,,,,,magenta,square
0.0,7.0,3.0,1.0,6.0,0.0,0.0,7.0,0.0,part_2,stop,600.0,550.0,4.0,,,,,,,,,magenta,square
0.0,4.0,4.0,0.0,6.0,6.0,883.4392829885473,7.0,0.0,part_2,go,600.0,600.0,1.0,,,,,,,,,blue,flipped triangle
0.0,3.0,3.0,0.0,6.0,6.0,879.2802809912246,7.0,0.0,part_2,go,600.0,600.0,1.0,,,,,,,,,white,cross
0.0,3.0,3.0,0.0,5.0,5.0,442.9078690009191,7.0,0.0,part_2,go,600.0,600.0,1.0,,,,,,,,,white,cross
0.0,6.0,2.0,1.0,6.0,0.0,0.0,7.0,0.0,part_2,stop,600.0,600.0,4.0,,,,,,,,,yellow,I
0.0,8.0,4.0,1.0,6.0,0.0,0.0,7.0,0.0,part_2,stop,600.0,650.0,4.0,,,,,,,,,cyan,diamond
0.0,6.0,2.0,1.0,6.0,6.0,764.3614139960846,7.0,0.0,part_2,go,600.0,700.0,1.0,,,,,,,,,yellow,I
0.0,3.0,3.0,0.0,5.0,5.0,752.5462730118306,7.0,0.0,part_2,go,600.0,700.0,1.0,,,,,,,,,white,cross
0.0,5.0,1.0,1.0,6.0,6.0,680.510845995741,7.0,0.0,part_2,stop,600.0,700.0,3.0,,,,,,,,,gray,circle
0.0,4.0,4.0,0.0,6.0,6.0,690.2576979919104,7.0,0.0,part_2,go,600.0,650.0,1.0,,,,,,,,,blue,flipped triangle
0.0,6.0,2.0,1.0,5.0,5.0,446.5850260021398,8.0,0.0,part_2,stop,600.0,650.0,3.0,,,,,,,,,yellow,I
0.0,2.0,2.0,0.0,5.0,5.0,669.8690589983016,8.0,0.0,part_2,go,550.0,650.0,1.0,,,,,,,,,orange,hexagon
0.0,4.0,4.0,0.0,6.0,6.0,481.926802007365,8.0,0.0,part_2,go,550.0,650.0,1.0,,,,,,,,,blue,flipped triangle
0.0,8.0,4.0,1.0,6.0,6.0,389.1713769990019,8.0,0.0,part_2,stop,550.0,650.0,3.0,,,,,,,,,cyan,diamond
0.0,3.0,3.0,0.0,5.0,5.0,486.1013799963984,8.0,0.0,part_2,go,550.0,600.0,1.0,,,,,,,,,white,cross
0.0,5.0,1.0,1.0,5.0,5.0,1051.6361280024284,8.0,0.0,part_2,go,550.0,600.0,1.0,,,,,,,,,gray,circle
0.0,4.0,4.0,0.0,5.0,5.0,577.7829029975692,8.0,0.0,part_2,go,550.0,600.0,1.0,,,,,,,,,blue,flipped triangle
0.0,7.0,3.0,1.0,6.0,6.0,506.99193400214426,8.0,0.0,part_2,stop,550.0,600.0,3.0,,,,,,,,,magenta,square
0.0,2.0,2.0,0.0,5.0,5.0,471.190229000058,8.0,0.0,part_2,go,550.0,550.0,1.0,,,,,,,,,orange,hexagon
0.0,5.0,1.0,1.0,5.0,5.0,383.4012870065635,8.0,0.0,part_2,stop,550.0,550.0,3.0,,,,,,,,,gray,circle
0.0,5.0,1.0,1.0,5.0,5.0,591.8704869982321,8.0,0.0,part_2,stop,500.0,550.0,3.0,,,,,,,,,gray,circle
0.0,5.0,1.0,1.0,6.0,0.0,0.0,8.0,0.0,part_2,stop,450.0,550.0,4.0,,,,,,,,,gray,circle
0.0,2.0,2.0,0.0,6.0,6.0,783.208448003279,8.0,0.0,part_2,go,450.0,600.0,1.0,,,,,,,,,orange,hexagon
0.0,7.0,3.0,1.0,5.0,0.0,0.0,8.0,0.0,part_2,stop,450.0,600.0,4.0,,,,,,,,,magenta,square
0.0,1.0,1.0,0.0,5.0,5.0,604.5686810102779,8.0,0.0,part_2,go,500.0,600.0,1.0,,,,,,,,,green,triangle
0.0,2.0,2.0,0.0,5.0,5.0,924.0242819942068,8.0,0.0,part_2,go,500.0,600.0,1.0,,,,,,,,,orange,hexagon
0.0,3.0,3.0,0.0,6.0,6.0,522.5555149954744,8.0,0.0,part_2,go,500.0,600.0,1.0,,,,,,,,,white,cross
0.0,1.0,1.0,0.0,5.0,5.0,826.0955559962895,8.0,0.0,part_2,go,500.0,600.0,1.0,,,,,,,,,green,triangle
0.0,1.0,1.0,0.0,6.0,6.0,650.8798809954897,8.0,0.0,part_2,go,500.0,600.0,1.0,,,,,,,,,green,triangle
0.0,5.0,1.0,1.0,5.0,5.0,651.9097560085356,8.0,0.0,part_2,stop,500.0,600.0,3.0,,,,,,,,,gray,circle
0.0,3.0,3.0,0.0,5.0,5.0,361.4193149987841,8.0,0.0,part_2,go,450.0,600.0,1.0,,,,,,,,,white,cross
0.0,2.0,2.0,0.0,6.0,6.0,674.9177849997068,8.0,0.0,part_2,go,450.0,600.0,1.0,,,,,,,,,orange,hexagon
0.0,7.0,3.0,1.0,5.0,5.0,624.8785820062039,8.0,0.0,part_2,go,450.0,600.0,1.0,,,,,,,,,magenta,square
0.0,5.0,1.0,1.0,5.0,5.0,497.5540809973608,8.0,0.0,part_2,stop,450.0,600.0,3.0,,,,,,,,,gray,circle
0.0,2.0,2.0,0.0,6.0,6.0,751.9589310104493,8.0,0.0,part_2,go,400.0,600.0,1.0,,,,,,,,,orange,hexagon
0.0,3.0,3.0,0.0,5.0,5.0,494.4003629934741,8.0,0.0,part_2,go,400.0,600.0,1.0,,,,,,,,,white,cross
0.0,1.0,1.0,0.0,5.0,5.0,584.7088400041685,8.0,0.0,part_2,go,400.0,600.0,1.0,,,,,,,,,green,triangle
0.0,8.0,4.0,1.0,5.0,0.0,0.0,8.0,0.0,part_2,stop,400.0,600.0,4.0,,,,,,,,,cyan,diamond
0.0,8.0,4.0,1.0,6.0,6.0,772.1066439989954,8.0,0.0,part_2,stop,450.0,600.0,3.0,,,,,,,,,cyan,diamond
0.0,6.0,2.0,1.0,6.0,0.0,0.0,8.0,0.0,part_2,stop,450.0,550.0,4.0,,,,,,,,,yellow,I
0.0,4.0,4.0,0.0,6.0,6.0,1141.6133449965855,8.0,0.0,part_2,go,450.0,600.0,1.0,,,,,,,,,blue,flipped triangle
0.0,5.0,1.0,1.0,5.0,0.0,0.0,8.0,0.0,part_2,stop,450.0,600.0,4.0,,,,,,,,,gray,circle
0.0,1.0,1.0,0.0,6.0,6.0,915.7365610008128,8.0,0.0,part_2,go,500.0,600.0,1.0,,,,,,,,,green,triangle
0.0,1.0,1.0,0.0,6.0,6.0,609.1162790107774,8.0,0.0,part_2,go,500.0,600.0,1.0,,,,,,,,,green,triangle
0.0,4.0,4.0,0.0,6.0,6.0,717.7786039974308,8.0,0.0,part_2,go,500.0,600.0,1.0,,,,,,,,,blue,flipped triangle
0.0,3.0,3.0,0.0,6.0,6.0,607.895234003081,8.0,0.0,part_2,go,500.0,600.0,1.0,,,,,,,,,white,cross
0.0,2.0,2.0,0.0,7.0,4.0,3373.2777569966856,1.0,2.0,part_3,go,0.0,0.0,0.0,78.0,2.0,234.0,39.0,195.0,78.0,117.0,156.0,orange,hexagon
0.0,8.0,4.0,1.0,7.0,6.0,3779.411549010547,1.0,1.0,part_3,go,0.0,0.0,0.0,98.0,2.0,245.0,196.0,147.0,49.0,294.0,98.0,cyan,diamond
0.0,8.0,4.0,1.0,7.0,4.0,2271.0974410001654,1.0,2.0,part_3,go,0.0,0.0,0.0,156.0,4.0,195.0,117.0,234.0,156.0,39.0,78.0,cyan,diamond
0.0,2.0,2.0,0.0,7.0,3.0,2559.415480005555,1.0,1.0,part_3,go,0.0,0.0,0.0,170.0,5.0,136.0,204.0,170.0,68.0,102.0,34.0,orange,hexagon
0.0,4.0,4.0,0.0,7.0,5.0,3960.505517999991,1.0,1.0,part_3,go,0.0,0.0,0.0,195.0,5.0,117.0,234.0,39.0,78.0,195.0,156.0,blue,flipped triangle
0.0,6.0,2.0,1.0,7.0,6.0,4026.715083993622,1.0,1.0,part_3,go,0.0,0.0,0.0,204.0,6.0,34.0,102.0,68.0,170.0,136.0,204.0,yellow,I
0.0,3.0,3.0,0.0,7.0,4.0,2785.4358420008793,1.0,1.0,part_3,go,0.0,0.0,0.0,147.0,3.0,98.0,294.0,196.0,147.0,245.0,49.0,white,cross
0.0,7.0,3.0,1.0,7.0,2.0,2657.9038240015507,1.0,1.0,part_3,go,0.0,0.0,0.0,264.0,6.0,176.0,264.0,220.0,44.0,88.0,132.0,magenta,square
0.0,8.0,4.0,1.0,7.0,2.0,2232.8619149920996,1.0,1.0,part_3,go,0.0,0.0,0.0,147.0,3.0,98.0,147.0,294.0,245.0,49.0,196.0,cyan,diamond
0.0,3.0,3.0,0.0,7.0,5.0,2469.1012169932947,1.0,1.0,part_3,go,0.0,0.0,0.0,220.0,5.0,132.0,88.0,44.0,176.0,220.0,264.0,white,cross
0.0,6.0,2.0,1.0,7.0,3.0,2404.426450986648,1.0,1.0,part_3,go,0.0,0.0,0.0,176.0,4.0,220.0,88.0,176.0,132.0,264.0,44.0,yellow,I
0.0,3.0,3.0,0.0,7.0,5.0,3375.2175840054406,1.0,1.0,part_3,go,0.0,0.0,0.0,147.0,3.0,196.0,49.0,245.0,98.0,147.0,294.0,white,cross
0.0,8.0,4.0,1.0,7.0,2.0,2678.3347930031596,1.0,1.0,part_3,go,0.0,0.0,0.0,44.0,1.0,176.0,44.0,264.0,88.0,220.0,132.0,cyan,diamond
0.0,4.0,4.0,0.0,7.0,2.0,1947.5425940036075,1.0,1.0,part_3,go,0.0,0.0,0.0,264.0,6.0,88.0,264.0,220.0,132.0,44.0,176.0,blue,flipped triangle
0.0,4.0,4.0,0.0,7.0,1.0,2242.3254149907734,1.0,1.0,part_3,go,0.0,0.0,0.0,162.0,3.0,162.0,216.0,324.0,108.0,54.0,270.0,blue,flipped triangle
0.0,6.0,2.0,1.0,7.0,5.0,3606.27923400898,1.0,1.0,part_3,go,0.0,0.0,0.0,195.0,5.0,156.0,39.0,78.0,117.0,195.0,234.0,yellow,I
0.0,2.0,2.0,0.0,7.0,1.0,2187.4796060001245,1.0,1.0,part_3,go,0.0,0.0,0.0,220.0,5.0,220.0,132.0,264.0,88.0,176.0,44.0,orange,hexagon
0.0,1.0,1.0,0.0,7.0,4.0,2136.0763080010656,1.0,1.0,part_3,go,0.0,0.0,0.0,196.0,4.0,98.0,245.0,49.0,196.0,147.0,294.0,green,triangle
0.0,6.0,2.0,1.0,7.0,3.0,1273.0177880002884,1.0,1.0,part_3,go,0.0,0.0,0.0,245.0,5.0,49.0,147.0,245.0,294.0,196.0,98.0,yellow,I
0.0,2.0,2.0,0.0,7.0,2.0,1512.856000001193,1.0,1.0,part_3,go,0.0,0.0,0.0,195.0,5.0,78.0,195.0,234.0,117.0,39.0,156.0,orange,hexagon
0.0,3.0,3.0,0.0,7.0,1.0,2742.3089539952343,2.0,1.0,part_3,go,0.0,0.0,0.0,170.0,5.0,170.0,136.0,102.0,34.0,204.0,68.0,white,cross
0.0,7.0,3.0,1.0,7.0,1.0,1377.1143900085008,2.0,1.0,part_3,go,0.0,0.0,0.0,204.0,6.0,204.0,170.0,34.0,102.0,136.0,68.0,magenta,square
0.0,8.0,4.0,1.0,7.0,4.0,1794.5468830002935,2.0,1.0,part_3,go,0.0,0.0,0.0,170.0,5.0,34.0,102.0,68.0,170.0,136.0,204.0,cyan,diamond
0.0,2.0,2.0,0.0,7.0,6.0,2539.9040120100835,2.0,1.0,part_3,go,0.0,0.0,0.0,176.0,4.0,132.0,88.0,44.0,220.0,264.0,176.0,orange,hexagon
0.0,1.0,1.0,0.0,7.0,3.0,2396.1106830101926,2.0,1.0,part_3,go,0.0,0.0,0.0,78.0,2.0,117.0,195.0,78.0,39.0,234.0,156.0,green,triangle
0.0,7.0,3.0,1.0,7.0,3.0,1523.4201850107638,2.0,1.0,part_3,go,0.0,0.0,0.0,196.0,4.0,98.0,294.0,196.0,49.0,245.0,147.0,magenta,square
0.0,7.0,3.0,1.0,7.0,3.0,1575.9719819907332,2.0,1.0,part_3,go,0.0,0.0,0.0,216.0,4.0,324.0,270.0,216.0,108.0,54.0,162.0,magenta,square
0.0,1.0,1.0,0.0,7.0,2.0,2039.6347069909098,2.0,1.0,part_3,go,0.0,0.0,0.0,204.0,6.0,170.0,204.0,34.0,136.0,68.0,102.0,green,triangle
0.0,3.0,3.0,0.0,7.0,6.0,2343.6639939900488,2.0,1.0,part_3,go,0.0,0.0,0.0,170.0,5.0,68.0,204.0,136.0,34.0,102.0,170.0,white,cross
0.0,4.0,4.0,0.0,7.0,3.0,1285.1846519915853,2.0,1.0,part_3,go,0.0,0.0,0.0,170.0,5.0,68.0,102.0,170.0,136.0,34.0,204.0,blue,flipped triangle
0.0,5.0,1.0,1.0,7.0,3.0,1818.7052749999568,2.0,1.0,part_3,go,0.0,0.0,0.0,68.0,2.0,170.0,102.0,68.0,204.0,34.0,136.0,gray,circle
0.0,2.0,2.0,0.0,7.0,4.0,1260.476520008524,2.0,1.0,part_3,go,0.0,0.0,0.0,196.0,4.0,98.0,294.0,49.0,196.0,147.0,245.0,orange,hexagon
0.0,4.0,4.0,0.0,7.0,2.0,1614.2927809996763,2.0,1.0,part_3,go,0.0,0.0,0.0,245.0,5.0,147.0,245.0,98.0,196.0,294.0,49.0,blue,flipped triangle
0.0,2.0,2.0,0.0,7.0,3.0,1823.8040059950436,2.0,1.0,part_3,go,0.0,0.0,0.0,245.0,5.0,147.0,294.0,245.0,49.0,196.0,98.0,orange,hexagon
0.0,2.0,2.0,0.0,7.0,4.0,2227.7822920004837,2.0,1.0,part_3,go,0.0,0.0,0.0,162.0,3.0,324.0,270.0,54.0,162.0,108.0,216.0,orange,hexagon
0.0,1.0,1.0,0.0,7.0,4.0,1620.32204400748,2.0,1.0,part_3,go,0.0,0.0,0.0,220.0,5.0,132.0,44.0,264.0,220.0,176.0,88.0,green,triangle
0.0,7.0,3.0,1.0,7.0,6.0,3902.749874003348,2.0,1.0,part_3,go,0.0,0.0,0.0,132.0,3.0,88.0,176.0,44.0,220.0,264.0,132.0,magenta,square
0.0,1.0,1.0,0.0,7.0,6.0,1422.6504620019114,2.0,1.0,part_3,go,0.0,0.0,0.0,195.0,5.0,234.0,78.0,39.0,117.0,156.0,195.0,green,triangle
0.0,3.0,3.0,0.0,7.0,4.0,1990.002253995044,2.0,1.0,part_3,go,0.0,0.0,0.0,117.0,3.0,234.0,78.0,156.0,117.0,39.0,195.0,white,cross
0.0,5.0,1.0,1.0,7.0,6.0,2215.781414997764,2.0,1.0,part_3,go,0.0,0.0,0.0,264.0,6.0,44.0,132.0,176.0,220.0,88.0,264.0,gray,circle
0.0,7.0,3.0,1.0,7.0,3.0,1953.3441119856432,3.0,1.0,part_3,go,0.0,0.0,0.0,108.0,2.0,270.0,54.0,108.0,162.0,216.0,324.0,magenta,square
0.0,1.0,1.0,0.0,7.0,4.0,2164.4635859993286,3.0,1.0,part_3,go,0.0,0.0,0.0,147.0,3.0,49.0,196.0,294.0,147.0,245.0,98.0,green,triangle
0.0,5.0,1.0,1.0,7.0,3.0,1254.215041990392,3.0,1.0,part_3,go,0.0,0.0,0.0,162.0,3.0,54.0,216.0,162.0,324.0,108.0,270.0,gray,circle
0.0,3.0,3.0,0.0,7.0,4.0,1366.9322729983833,3.0,1.0,part_3,go,0.0,0.0,0.0,108.0,2.0,54.0,162.0,270.0,108.0,324.0,216.0,white,cross
0.0,7.0,3.0,1.0,7.0,5.0,1405.950953005231,3.0,1.0,part_3,go,0.0,0.0,0.0,195.0,5.0,234.0,78.0,156.0,117.0,195.0,39.0,magenta,square
0.0,5.0,1.0,1.0,7.0,5.0,2224.095457000658,3.0,1.0,part_3,go,0.0,0.0,0.0,162.0,3.0,216.0,54.0,270.0,324.0,162.0,108.0,gray,circle
0.0,7.0,3.0,1.0,7.0,4.0,1161.02834699268,3.0,1.0,part_3,go,0.0,0.0,0.0,147.0,3.0,294.0,245.0,196.0,147.0,49.0,98.0,magenta,square
0.0,5.0,1.0,1.0,7.0,5.0,1925.383296998916,3.0,1.0,part_3,go,0.0,0.0,0.0,156.0,4.0,78.0,195.0,117.0,39.0,156.0,234.0,gray,circle
0.0,1.0,1.0,0.0,7.0,5.0,1253.7955309962854,3.0,1.0,part_3,go,0.0,0.0,0.0,216.0,4.0,324.0,270.0,108.0,162.0,216.0,54.0,green,triangle
0.0,5.0,1.0,1.0,7.0,6.0,2024.82749200135,3.0,1.0,part_3,go,0.0,0.0,0.0,196.0,4.0,294.0,245.0,98.0,49.0,147.0,196.0,gray,circle
0.0,6.0,2.0,1.0,7.0,2.0,1522.3253410076725,3.0,1.0,part_3,go,0.0,0.0,0.0,216.0,4.0,162.0,216.0,54.0,270.0,108.0,324.0,yellow,I
0.0,4.0,4.0,0.0,7.0,2.0,1305.0272510008654,3.0,1.0,part_3,go,0.0,0.0,0.0,170.0,5.0,34.0,170.0,136.0,102.0,204.0,68.0,blue,flipped triangle
0.0,2.0,2.0,0.0,7.0,5.0,2627.471252999385,3.0,1.0,part_3,go,0.0,0.0,0.0,162.0,3.0,54.0,216.0,270.0,324.0,162.0,108.0,orange,hexagon
0.0,4.0,4.0,0.0,7.0,5.0,2506.9296229921747,3.0,1.0,part_3,go,0.0,0.0,0.0,54.0,1.0,162.0,216.0,270.0,324.0,54.0,108.0,blue,flipped triangle
0.0,4.0,4.0,0.0,7.0,4.0,2678.9602670032764,3.0,1.0,part_3,go,0.0,0.0,0.0,147.0,3.0,49.0,245.0,196.0,147.0,98.0,294.0,blue,flipped triangle
0.0,6.0,2.0,1.0,7.0,1.0,2520.57707599306,3.0,1.0,part_3,go,0.0,0.0,0.0,204.0,6.0,204.0,136.0,170.0,34.0,102.0,68.0,yellow,I
0.0,6.0,2.0,1.0,7.0,6.0,2615.227132002474,3.0,1.0,part_3,go,0.0,0.0,0.0,147.0,3.0,245.0,294.0,49.0,98.0,196.0,147.0,yellow,I
0.0,3.0,3.0,0.0,7.0,5.0,3026.94490099384,3.0,1.0,part_3,go,0.0,0.0,0.0,39.0,1.0,234.0,78.0,195.0,117.0,39.0,156.0,white,cross
0.0,8.0,4.0,1.0,7.0,2.0,3201.6288320010062,3.0,1.0,part_3,go,0.0,0.0,0.0,136.0,4.0,68.0,136.0,170.0,34.0,102.0,204.0,cyan,diamond
0.0,2.0,2.0,0.0,7.0,3.0,3428.6375470110215,3.0,1.0,part_3,go,0.0,0.0,0.0,136.0,4.0,34.0,170.0,136.0,102.0,204.0,68.0,orange,hexagon
0.0,7.0,3.0,1.0,7.0,2.0,2587.4744009925053,4.0,1.0,part_3,go,0.0,0.0,0.0,136.0,4.0,68.0,136.0,34.0,102.0,204.0,170.0,magenta,square
0.0,5.0,1.0,1.0,7.0,3.0,3116.2530980072916,4.0,1.0,part_3,go,0.0,0.0,0.0,176.0,4.0,44.0,264.0,176.0,88.0,132.0,220.0,gray,circle
0.0,6.0,2.0,1.0,7.0,2.0,1988.29998599831,4.0,1.0,part_3,go,0.0,0.0,0.0,176.0,4.0,220.0,176.0,44.0,132.0,264.0,88.0,yellow,I
0.0,8.0,4.0,1.0,7.0,3.0,1807.7193099888973,4.0,1.0,part_3,go,0.0,0.0,0.0,195.0,5.0,234.0,78.0,195.0,117.0,39.0,156.0,cyan,diamond
0.0,7.0,3.0,1.0,7.0,3.0,2201.392749993829,4.0,1.0,part_3,go,0.0,0.0,0.0,117.0,3.0,234.0,39.0,117.0,156.0,78.0,195.0,magenta,square
0.0,1.0,1.0,0.0,7.0,4.0,2217.5834459922044,4.0,1.0,part_3,go,0.0,0.0,0.0,162.0,3.0,54.0,216.0,108.0,162.0,324.0,270.0,green,triangle
0.0,4.0,4.0,0.0,7.0,5.0,2674.1920729982667,4.0,1.0,part_3,go,0.0,0.0,0.0,195.0,5.0,117.0,78.0,234.0,39.0,195.0,156.0,blue,flipped triangle
0.0,3.0,3.0,0.0,7.0,2.0,1654.9708189995729,4.0,1.0,part_3,go,0.0,0.0,0.0,176.0,4.0,44.0,176.0,220.0,132.0,88.0,264.0,white,cross
0.0,6.0,2.0,1.0,7.0,6.0,2181.8177529930836,4.0,1.0,part_3,go,0.0,0.0,0.0,234.0,6.0,195.0,39.0,78.0,117.0,156.0,234.0,yellow,I
0.0,8.0,4.0,1.0,7.0,5.0,1929.5565390057163,4.0,1.0,part_3,go,0.0,0.0,0.0,216.0,4.0,270.0,324.0,108.0,54.0,216.0,162.0,cyan,diamond
0.0,3.0,3.0,0.0,7.0,5.0,2079.983086005086,4.0,1.0,part_3,go,0.0,0.0,0.0,162.0,3.0,216.0,324.0,270.0,108.0,162.0,54.0,white,cross
0.0,5.0,1.0,1.0,7.0,3.0,1721.0235219972674,4.0,1.0,part_3,go,0.0,0.0,0.0,195.0,5.0,39.0,156.0,195.0,78.0,117.0,234.0,gray,circle
0.0,5.0,1.0,1.0,7.0,2.0,1557.321893007611,4.0,1.0,part_3,go,0.0,0.0,0.0,147.0,3.0,245.0,147.0,196.0,98.0,49.0,294.0,gray,circle
0.0,8.0,4.0,1.0,7.0,4.0,3397.86851099052,4.0,1.0,part_3,go,0.0,0.0,0.0,132.0,3.0,176.0,220.0,88.0,132.0,264.0,44.0,cyan,diamond
0.0,1.0,1.0,0.0,7.0,3.0,1885.6810470024357,4.0,1.0,part_3,go,0.0,0.0,0.0,264.0,6.0,132.0,176.0,264.0,220.0,88.0,44.0,green,triangle
0.0,1.0,1.0,0.0,7.0,4.0,1526.4345909963597,4.0,1.0,part_3,go,0.0,0.0,0.0,204.0,6.0,102.0,136.0,170.0,204.0,68.0,34.0,green,triangle
0.0,6.0,2.0,1.0,7.0,3.0,1802.3541800066596,4.0,1.0,part_3,go,0.0,0.0,0.0,108.0,2.0,324.0,162.0,108.0,54.0,216.0,270.0,yellow,I
0.0,4.0,4.0,0.0,7.0,4.0,2369.0434439922683,4.0,1.0,part_3,go,0.0,0.0,0.0,132.0,3.0,176.0,220.0,44.0,132.0,264.0,88.0,blue,flipped triangle
0.0,8.0,4.0,1.0,7.0,3.0,3052.7690339949913,4.0,1.0,part_3,go,0.0,0.0,0.0,216.0,4.0,324.0,54.0,216.0,270.0,108.0,162.0,cyan,diamond
0.0,5.0,1.0,1.0,7.0,4.0,2044.087476999266,4.0,1.0,part_3,go,0.0,0.0,0.0,170.0,5.0,68.0,102.0,204.0,170.0,136.0,34.0,gray,circle
