raw_reward_magnitude,stim_reward,stepwise_reward_magnitude,paired_with_stopping,stim_location,response,reaction_time,block,num_trial_presentations,which_phase,stop_signal_trial_type,left_SSD,right_SSD,accuracy,chosen_bidding_amount,chosen_bidding_level,possible_bid_1,possible_bid_2,possible_bid_3,possible_bid_4,possible_bid_5,possible_bid_6,color_text,shape_text
420.0,8.0,4.0,1.0,4.0,4.0,408.8163920096122,1.0,1.0,phase_1,,,,,,,,,,,,,yellow,flipped triangle
420.0,8.0,4.0,1.0,3.0,3.0,405.7427299849223,1.0,1.0,phase_1,,,,,,,,,,,,,yellow,flipped triangle
54.0,5.0,0.5,1.0,1.0,1.0,400.5385269992985,1.0,2.0,phase_1,,,,,,,,,,,,,orange,diamond
105.0,6.0,1.0,1.0,1.0,1.0,406.1033749894704,1.0,1.0,phase_1,,,,,,,,,,,,,white,square
53.0,5.0,0.5,1.0,3.0,3.0,361.6479499905836,1.0,1.0,phase_1,,,,,,,,,,,,,orange,diamond
0.0,2.0,0.0,0.0,3.0,3.0,381.5716230019461,1.0,1.0,phase_1,,,,,,,,,,,,,blue,cross
0.0,8.0,0.0,1.0,2.0,2.0,439.6083230094518,1.0,1.0,phase_1,,,,,,,,,,,,,yellow,flipped triangle
412.0,8.0,4.0,1.0,1.0,1.0,455.623337009456,1.0,1.0,phase_1,,,,,,,,,,,,,yellow,flipped triangle
104.0,6.0,1.0,1.0,4.0,4.0,339.643907995196,1.0,1.0,phase_1,,,,,,,,,,,,,white,square
34.0,5.0,0.5,1.0,3.0,3.0,335.7006949954666,1.0,1.0,phase_1,,,,,,,,,,,,,orange,diamond
182.0,7.0,2.0,1.0,4.0,4.0,422.921943012625,1.0,1.0,phase_1,,,,,,,,,,,,,green,triangle
62.0,1.0,0.5,0.0,2.0,2.0,443.3626819809433,1.0,1.0,phase_1,,,,,,,,,,,,,gray,I
53.0,1.0,0.5,0.0,1.0,1.0,364.095686993096,1.0,1.0,phase_1,,,,,,,,,,,,,gray,I
105.0,2.0,1.0,0.0,3.0,3.0,353.4044560219627,1.0,1.0,phase_1,,,,,,,,,,,,,blue,cross
201.0,7.0,2.0,1.0,4.0,4.0,350.1016270020045,1.0,1.0,phase_1,,,,,,,,,,,,,green,triangle
31.0,1.0,0.5,0.0,1.0,1.0,356.3462250167504,1.0,1.0,phase_1,,,,,,,,,,,,,gray,I
117.0,6.0,1.0,1.0,4.0,4.0,327.0924009848386,1.0,1.0,phase_1,,,,,,,,,,,,,white,square
392.0,4.0,4.0,0.0,2.0,2.0,417.2664099896792,1.0,2.0,phase_1,,,,,,,,,,,,,magenta,hexagon
418.0,4.0,4.0,0.0,1.0,1.0,357.9339790157974,1.0,1.0,phase_1,,,,,,,,,,,,,magenta,hexagon
110.0,6.0,1.0,1.0,2.0,2.0,417.5146320194471,1.0,1.0,phase_1,,,,,,,,,,,,,white,square
388.0,4.0,4.0,0.0,2.0,2.0,377.3742959892843,1.0,1.0,phase_1,,,,,,,,,,,,,magenta,hexagon
71.0,1.0,0.5,0.0,4.0,4.0,527.062492998084,1.0,1.0,phase_1,,,,,,,,,,,,,gray,I
111.0,6.0,1.0,1.0,2.0,2.0,375.6002860027365,1.0,1.0,phase_1,,,,,,,,,,,,,white,square
0.0,7.0,0.0,1.0,3.0,3.0,357.3255549999885,1.0,1.0,phase_1,,,,,,,,,,,,,green,triangle
30.0,5.0,0.5,1.0,1.0,1.0,313.0749030096922,1.0,1.0,phase_1,,,,,,,,,,,,,orange,diamond
222.0,3.0,2.0,0.0,1.0,1.0,392.6588449976407,1.0,1.0,phase_1,,,,,,,,,,,,,cyan,circle
211.0,3.0,2.0,0.0,1.0,1.0,373.4094290120993,1.0,1.0,phase_1,,,,,,,,,,,,,cyan,circle
194.0,3.0,2.0,0.0,4.0,4.0,411.300053994637,1.0,1.0,phase_1,,,,,,,,,,,,,cyan,circle
0.0,5.0,0.0,1.0,3.0,3.0,358.0838649941142,1.0,1.0,phase_1,,,,,,,,,,,,,orange,diamond
391.0,4.0,4.0,0.0,3.0,3.0,404.0372209856286,1.0,1.0,phase_1,,,,,,,,,,,,,magenta,hexagon
188.0,7.0,2.0,1.0,1.0,1.0,357.3759229911957,1.0,1.0,phase_1,,,,,,,,,,,,,green,triangle
59.0,1.0,0.5,0.0,4.0,4.0,394.4608150050044,1.0,1.0,phase_1,,,,,,,,,,,,,gray,I
399.0,4.0,4.0,0.0,1.0,1.0,386.3464040041435,1.0,1.0,phase_1,,,,,,,,,,,,,magenta,hexagon
48.0,5.0,0.5,1.0,2.0,2.0,351.1745629948564,1.0,1.0,phase_1,,,,,,,,,,,,,orange,diamond
385.0,4.0,4.0,0.0,2.0,2.0,337.8845220140647,1.0,1.0,phase_1,,,,,,,,,,,,,magenta,hexagon
196.0,7.0,2.0,1.0,2.0,2.0,423.0422470136545,1.0,1.0,phase_1,,,,,,,,,,,,,green,triangle
422.0,8.0,4.0,1.0,1.0,1.0,314.5306600199546,1.0,1.0,phase_1,,,,,,,,,,,,,yellow,flipped triangle
224.0,7.0,2.0,1.0,2.0,2.0,351.040216977708,1.0,1.0,phase_1,,,,,,,,,,,,,green,triangle
32.0,1.0,0.5,0.0,2.0,2.0,378.2970460015349,1.0,1.0,phase_1,,,,,,,,,,,,,gray,I
76.0,6.0,1.0,1.0,3.0,3.0,362.9058049991727,1.0,1.0,phase_1,,,,,,,,,,,,,white,square
199.0,7.0,2.0,1.0,4.0,4.0,388.5407340130768,1.0,1.0,phase_1,,,,,,,,,,,,,green,triangle
0.0,3.0,0.0,0.0,4.0,4.0,436.5679689799435,1.0,1.0,phase_1,,,,,,,,,,,,,cyan,circle
0.0,5.0,0.0,1.0,1.0,1.0,408.474608004326,1.0,1.0,phase_1,,,,,,,,,,,,,orange,diamond
390.0,8.0,4.0,1.0,2.0,2.0,402.9373400262557,1.0,1.0,phase_1,,,,,,,,,,,,,yellow,flipped triangle
92.0,6.0,1.0,1.0,3.0,3.0,354.6777589945122,1.0,1.0,phase_1,,,,,,,,,,,,,white,square
210.0,3.0,2.0,0.0,4.0,4.0,350.8645560068544,1.0,1.0,phase_1,,,,,,,,,,,,,cyan,circle
104.0,6.0,1.0,1.0,3.0,3.0,354.3116159853525,1.0,1.0,phase_1,,,,,,,,,,,,,white,square
114.0,6.0,1.0,1.0,3.0,3.0,341.844783979468,1.0,1.0,phase_1,,,,,,,,,,,,,white,square
0.0,5.0,0.0,1.0,3.0,3.0,387.2031719947699,1.0,1.0,phase_1,,,,,,,,,,,,,orange,diamond
222.0,7.0,2.0,1.0,1.0,1.0,337.6083640032448,1.0,1.0,phase_1,,,,,,,,,,,,,green,triangle
0.0,5.0,0.0,1.0,4.0,4.0,358.2967289839871,1.0,1.0,phase_1,,,,,,,,,,,,,orange,diamond
0.0,2.0,0.0,0.0,3.0,3.0,419.4797599921003,1.0,1.0,phase_1,,,,,,,,,,,,,blue,cross
122.0,6.0,1.0,1.0,2.0,2.0,421.2122729804832,1.0,1.0,phase_1,,,,,,,,,,,,,white,square
99.0,2.0,1.0,0.0,4.0,4.0,354.1685949894599,1.0,1.0,phase_1,,,,,,,,,,,,,blue,cross
381.0,8.0,4.0,1.0,3.0,3.0,296.6862019966356,1.0,1.0,phase_1,,,,,,,,,,,,,yellow,flipped triangle
115.0,6.0,1.0,1.0,2.0,2.0,283.2335979910567,1.0,1.0,phase_1,,,,,,,,,,,,,white,square
184.0,3.0,2.0,0.0,4.0,4.0,361.3973130122758,1.0,1.0,phase_1,,,,,,,,,,,,,cyan,circle
36.0,5.0,0.5,1.0,2.0,2.0,383.8055050000548,1.0,1.0,phase_1,,,,,,,,,,,,,orange,diamond
192.0,7.0,2.0,1.0,1.0,1.0,395.27717500459397,1.0,1.0,phase_1,,,,,,,,,,,,,green,triangle
420.0,4.0,4.0,0.0,2.0,2.0,317.427078000037,1.0,1.0,phase_1,,,,,,,,,,,,,magenta,hexagon
85.0,2.0,1.0,0.0,2.0,2.0,356.9416289974469,1.0,1.0,phase_1,,,,,,,,,,,,,blue,cross
0.0,8.0,0.0,1.0,3.0,3.0,464.7193230048287,1.0,1.0,phase_1,,,,,,,,,,,,,yellow,flipped triangle
0.0,1.0,0.0,0.0,4.0,4.0,325.0438169925473,1.0,1.0,phase_1,,,,,,,,,,,,,gray,I
98.0,6.0,1.0,1.0,4.0,4.0,321.4213509927504,1.0,1.0,phase_1,,,,,,,,,,,,,white,square
187.0,7.0,2.0,1.0,3.0,3.0,301.1606479994952,1.0,1.0,phase_1,,,,,,,,,,,,,green,triangle
76.0,2.0,1.0,0.0,3.0,3.0,357.5296529743355,1.0,1.0,phase_1,,,,,,,,,,,,,blue,cross
76.0,6.0,1.0,1.0,3.0,3.0,342.0579689845908,1.0,1.0,phase_1,,,,,,,,,,,,,white,square
86.0,2.0,1.0,0.0,4.0,4.0,346.8691729940474,1.0,1.0,phase_1,,,,,,,,,,,,,blue,cross
381.0,4.0,4.0,0.0,3.0,3.0,487.431251007365,1.0,1.0,phase_1,,,,,,,,,,,,,magenta,hexagon
193.0,3.0,2.0,0.0,1.0,1.0,324.5074570004362,1.0,1.0,phase_1,,,,,,,,,,,,,cyan,circle
184.0,3.0,2.0,0.0,1.0,1.0,353.4577889950014,1.0,1.0,phase_1,,,,,,,,,,,,,cyan,circle
95.0,2.0,1.0,0.0,3.0,3.0,287.9791400046088,1.0,1.0,phase_1,,,,,,,,,,,,,blue,cross
0.0,6.0,0.0,1.0,1.0,1.0,284.1964899853337,1.0,1.0,phase_1,,,,,,,,,,,,,white,square
0.0,4.0,0.0,0.0,4.0,4.0,338.9737310062628,1.0,1.0,phase_1,,,,,,,,,,,,,magenta,hexagon
27.0,5.0,0.5,1.0,2.0,2.0,420.2051309985108,1.0,1.0,phase_1,,,,,,,,,,,,,orange,diamond
205.0,7.0,2.0,1.0,4.0,4.0,304.4063349952921,1.0,1.0,phase_1,,,,,,,,,,,,,green,triangle
70.0,1.0,0.5,0.0,1.0,1.0,304.097804997582,1.0,1.0,phase_1,,,,,,,,,,,,,gray,I
0.0,3.0,0.0,0.0,3.0,3.0,316.1849689786322,1.0,1.0,phase_1,,,,,,,,,,,,,cyan,circle
204.0,7.0,2.0,1.0,3.0,3.0,366.6929859900847,1.0,1.0,phase_1,,,,,,,,,,,,,green,triangle
77.0,2.0,1.0,0.0,4.0,4.0,299.8507809825241,1.0,1.0,phase_1,,,,,,,,,,,,,blue,cross
36.0,5.0,0.5,1.0,2.0,2.0,320.2627979917452,1.0,1.0,phase_1,,,,,,,,,,,,,orange,diamond
0.0,4.0,0.0,0.0,4.0,4.0,311.6978570178617,1.0,1.0,phase_1,,,,,,,,,,,,,magenta,hexagon
80.0,2.0,1.0,0.0,4.0,4.0,402.0542270154692,1.0,1.0,phase_1,,,,,,,,,,,,,blue,cross
52.0,1.0,0.5,0.0,1.0,1.0,328.905283997301,1.0,1.0,phase_1,,,,,,,,,,,,,gray,I
79.0,2.0,1.0,0.0,1.0,1.0,378.6114199901931,1.0,1.0,phase_1,,,,,,,,,,,,,blue,cross
0.0,1.0,0.0,0.0,1.0,1.0,386.1797580029815,1.0,1.0,phase_1,,,,,,,,,,,,,gray,I
182.0,3.0,2.0,0.0,3.0,3.0,303.9930529776029,1.0,1.0,phase_1,,,,,,,,,,,,,cyan,circle
36.0,1.0,0.5,0.0,1.0,1.0,344.2465130065102,1.0,1.0,phase_1,,,,,,,,,,,,,gray,I
377.0,4.0,4.0,0.0,1.0,1.0,296.0033040144481,1.0,1.0,phase_1,,,,,,,,,,,,,magenta,hexagon
117.0,2.0,1.0,0.0,3.0,3.0,315.7616479729768,1.0,1.0,phase_1,,,,,,,,,,,,,blue,cross
0.0,8.0,0.0,1.0,2.0,2.0,377.4129200028255,1.0,1.0,phase_1,,,,,,,,,,,,,yellow,flipped triangle
85.0,6.0,1.0,1.0,3.0,3.0,422.4124780157581,1.0,1.0,phase_1,,,,,,,,,,,,,white,square
0.0,7.0,0.0,1.0,3.0,3.0,376.2193270085845,1.0,1.0,phase_1,,,,,,,,,,,,,green,triangle
221.0,3.0,2.0,0.0,2.0,2.0,357.5236559845507,1.0,1.0,phase_1,,,,,,,,,,,,,cyan,circle
381.0,4.0,4.0,0.0,3.0,3.0,325.4456029972061,1.0,1.0,phase_1,,,,,,,,,,,,,magenta,hexagon
392.0,8.0,4.0,1.0,3.0,3.0,334.4028359861113,1.0,1.0,phase_1,,,,,,,,,,,,,yellow,flipped triangle
0.0,8.0,0.0,1.0,3.0,3.0,300.2372850023675,1.0,1.0,phase_1,,,,,,,,,,,,,yellow,flipped triangle
104.0,2.0,1.0,0.0,3.0,3.0,305.8168949792161,1.0,1.0,phase_1,,,,,,,,,,,,,blue,cross
117.0,6.0,1.0,1.0,1.0,1.0,342.7137300022878,1.0,1.0,phase_1,,,,,,,,,,,,,white,square
92.0,6.0,1.0,1.0,1.0,1.0,379.3811369978357,1.0,1.0,phase_1,,,,,,,,,,,,,white,square
74.0,1.0,0.5,0.0,3.0,3.0,331.4422219991684,2.0,1.0,phase_1,,,,,,,,,,,,,gray,I
109.0,6.0,1.0,1.0,3.0,3.0,383.1655860121827,2.0,1.0,phase_1,,,,,,,,,,,,,white,square
409.0,4.0,4.0,0.0,4.0,4.0,443.767188990023,2.0,1.0,phase_1,,,,,,,,,,,,,magenta,hexagon
178.0,3.0,2.0,0.0,3.0,3.0,312.5754350039642,2.0,1.0,phase_1,,,,,,,,,,,,,cyan,circle
225.0,7.0,2.0,1.0,1.0,1.0,293.9818579761777,2.0,1.0,phase_1,,,,,,,,,,,,,green,triangle
182.0,3.0,2.0,0.0,3.0,3.0,306.0515710094478,2.0,1.0,phase_1,,,,,,,,,,,,,cyan,circle
215.0,3.0,2.0,0.0,2.0,2.0,362.1660539938602,2.0,1.0,phase_1,,,,,,,,,,,,,cyan,circle
198.0,7.0,2.0,1.0,1.0,1.0,316.9822499912698,2.0,1.0,phase_1,,,,,,,,,,,,,green,triangle
0.0,6.0,0.0,1.0,1.0,1.0,338.0386820062995,2.0,1.0,phase_1,,,,,,,,,,,,,white,square
0.0,4.0,0.0,0.0,2.0,2.0,391.6174740006681,2.0,1.0,phase_1,,,,,,,,,,,,,magenta,hexagon
52.0,5.0,0.5,1.0,3.0,3.0,403.3874629822094,2.0,1.0,phase_1,,,,,,,,,,,,,orange,diamond
107.0,6.0,1.0,1.0,4.0,4.0,406.7627619951963,2.0,1.0,phase_1,,,,,,,,,,,,,white,square
63.0,5.0,0.5,1.0,4.0,4.0,330.6923079944681,2.0,1.0,phase_1,,,,,,,,,,,,,orange,diamond
0.0,5.0,0.0,1.0,3.0,3.0,330.132456991123,2.0,1.0,phase_1,,,,,,,,,,,,,orange,diamond
201.0,3.0,2.0,0.0,1.0,1.0,367.011250986252,2.0,1.0,phase_1,,,,,,,,,,,,,cyan,circle
0.0,2.0,0.0,0.0,4.0,4.0,346.9339330040384,2.0,1.0,phase_1,,,,,,,,,,,,,blue,cross
402.0,8.0,4.0,1.0,1.0,1.0,341.4271090005059,2.0,1.0,phase_1,,,,,,,,,,,,,yellow,flipped triangle
215.0,7.0,2.0,1.0,1.0,1.0,322.8898750094231,2.0,1.0,phase_1,,,,,,,,,,,,,green,triangle
198.0,3.0,2.0,0.0,4.0,4.0,329.9800569948274,2.0,1.0,phase_1,,,,,,,,,,,,,cyan,circle
58.0,5.0,0.5,1.0,4.0,4.0,303.0666550039314,2.0,1.0,phase_1,,,,,,,,,,,,,orange,diamond
193.0,7.0,2.0,1.0,3.0,3.0,337.6623289950657,2.0,1.0,phase_1,,,,,,,,,,,,,green,triangle
406.0,8.0,4.0,1.0,3.0,3.0,368.453731003683,2.0,1.0,phase_1,,,,,,,,,,,,,yellow,flipped triangle
390.0,4.0,4.0,0.0,2.0,2.0,419.8300950229168,2.0,1.0,phase_1,,,,,,,,,,,,,magenta,hexagon
0.0,7.0,0.0,1.0,3.0,3.0,313.3247579971794,2.0,1.0,phase_1,,,,,,,,,,,,,green,triangle
398.0,4.0,4.0,0.0,1.0,1.0,325.4672039765864,2.0,1.0,phase_1,,,,,,,,,,,,,magenta,hexagon
0.0,1.0,0.0,0.0,3.0,3.0,378.7097570020705,2.0,1.0,phase_1,,,,,,,,,,,,,gray,I
188.0,3.0,2.0,0.0,2.0,2.0,420.9346330026164,2.0,1.0,phase_1,,,,,,,,,,,,,cyan,circle
48.0,1.0,0.5,0.0,1.0,1.0,337.9948430228978,2.0,1.0,phase_1,,,,,,,,,,,,,gray,I
194.0,7.0,2.0,1.0,2.0,2.0,400.6038549996447,2.0,1.0,phase_1,,,,,,,,,,,,,green,triangle
0.0,8.0,0.0,1.0,1.0,1.0,374.1392880037892,2.0,1.0,phase_1,,,,,,,,,,,,,yellow,flipped triangle
0.0,4.0,0.0,0.0,3.0,3.0,378.2663609890733,2.0,1.0,phase_1,,,,,,,,,,,,,magenta,hexagon
378.0,4.0,4.0,0.0,3.0,3.0,333.5234049882274,2.0,1.0,phase_1,,,,,,,,,,,,,magenta,hexagon
121.0,6.0,1.0,1.0,2.0,2.0,363.4777890110854,2.0,1.0,phase_1,,,,,,,,,,,,,white,square
0.0,7.0,0.0,1.0,1.0,1.0,272.5194329977967,2.0,1.0,phase_1,,,,,,,,,,,,,green,triangle
26.0,5.0,0.5,1.0,3.0,3.0,360.2590630180202,2.0,2.0,phase_1,,,,,,,,,,,,,orange,diamond
93.0,2.0,1.0,0.0,3.0,3.0,355.0070300116204,2.0,1.0,phase_1,,,,,,,,,,,,,blue,cross
212.0,3.0,2.0,0.0,2.0,2.0,361.9955339818261,2.0,1.0,phase_1,,,,,,,,,,,,,cyan,circle
31.0,1.0,0.5,0.0,3.0,3.0,400.3468599985353,2.0,1.0,phase_1,,,,,,,,,,,,,gray,I
385.0,8.0,4.0,1.0,2.0,2.0,320.8587809931487,2.0,1.0,phase_1,,,,,,,,,,,,,yellow,flipped triangle
0.0,7.0,0.0,1.0,4.0,4.0,408.9691019908059,2.0,1.0,phase_1,,,,,,,,,,,,,green,triangle
0.0,6.0,0.0,1.0,2.0,2.0,300.426953996066,2.0,1.0,phase_1,,,,,,,,,,,,,white,square
76.0,2.0,1.0,0.0,2.0,2.0,440.017844986869,2.0,1.0,phase_1,,,,,,,,,,,,,blue,cross
177.0,3.0,2.0,0.0,3.0,3.0,348.146998003358,2.0,1.0,phase_1,,,,,,,,,,,,,cyan,circle
113.0,6.0,1.0,1.0,1.0,1.0,299.9951420060824,2.0,1.0,phase_1,,,,,,,,,,,,,white,square
31.0,5.0,0.5,1.0,4.0,4.0,440.4892819875385,2.0,1.0,phase_1,,,,,,,,,,,,,orange,diamond
98.0,2.0,1.0,0.0,3.0,3.0,402.0936219894793,2.0,1.0,phase_1,,,,,,,,,,,,,blue,cross
193.0,7.0,2.0,1.0,1.0,1.0,337.8053749911487,2.0,1.0,phase_1,,,,,,,,,,,,,green,triangle
77.0,6.0,1.0,1.0,4.0,4.0,326.016526989406,2.0,1.0,phase_1,,,,,,,,,,,,,white,square
216.0,7.0,2.0,1.0,4.0,4.0,331.3583060225937,2.0,1.0,phase_1,,,,,,,,,,,,,green,triangle
53.0,1.0,0.5,0.0,2.0,2.0,350.4114429815672,2.0,1.0,phase_1,,,,,,,,,,,,,gray,I
114.0,2.0,1.0,0.0,2.0,2.0,354.3618710245937,2.0,1.0,phase_1,,,,,,,,,,,,,blue,cross
0.0,7.0,0.0,1.0,2.0,2.0,350.4738690098747,2.0,1.0,phase_1,,,,,,,,,,,,,green,triangle
87.0,6.0,1.0,1.0,4.0,4.0,363.0161460023373,2.0,1.0,phase_1,,,,,,,,,,,,,white,square
422.0,4.0,4.0,0.0,1.0,1.0,378.8135829963721,2.0,1.0,phase_1,,,,,,,,,,,,,magenta,hexagon
0.0,6.0,0.0,1.0,4.0,4.0,317.1720599930268,2.0,1.0,phase_1,,,,,,,,,,,,,white,square
179.0,7.0,2.0,1.0,3.0,3.0,408.7842970038764,2.0,1.0,phase_1,,,,,,,,,,,,,green,triangle
193.0,3.0,2.0,0.0,4.0,4.0,317.5038069894071,2.0,1.0,phase_1,,,,,,,,,,,,,cyan,circle
388.0,8.0,4.0,1.0,4.0,4.0,322.4985050037503,2.0,1.0,phase_1,,,,,,,,,,,,,yellow,flipped triangle
205.0,7.0,2.0,1.0,2.0,2.0,358.871832024306,2.0,1.0,phase_1,,,,,,,,,,,,,green,triangle
0.0,6.0,0.0,1.0,4.0,4.0,333.8875980116427,2.0,1.0,phase_1,,,,,,,,,,,,,white,square
57.0,5.0,0.5,1.0,2.0,2.0,395.681396999862,2.0,1.0,phase_1,,,,,,,,,,,,,orange,diamond
80.0,6.0,1.0,1.0,3.0,3.0,399.0821269981097,2.0,1.0,phase_1,,,,,,,,,,,,,white,square
182.0,7.0,2.0,1.0,3.0,3.0,353.8197889865841,2.0,1.0,phase_1,,,,,,,,,,,,,green,triangle
419.0,4.0,4.0,0.0,4.0,4.0,394.8960400011856,2.0,1.0,phase_1,,,,,,,,,,,,,magenta,hexagon
0.0,2.0,0.0,0.0,4.0,4.0,412.0289059937931,2.0,1.0,phase_1,,,,,,,,,,,,,blue,cross
99.0,6.0,1.0,1.0,1.0,1.0,392.5173440075014,2.0,1.0,phase_1,,,,,,,,,,,,,white,square
210.0,7.0,2.0,1.0,3.0,3.0,404.2781809985172,2.0,1.0,phase_1,,,,,,,,,,,,,green,triangle
0.0,2.0,0.0,0.0,2.0,2.0,411.1609039828181,2.0,1.0,phase_1,,,,,,,,,,,,,blue,cross
46.0,1.0,0.5,0.0,3.0,3.0,490.6087849813048,2.0,1.0,phase_1,,,,,,,,,,,,,gray,I
406.0,4.0,4.0,0.0,1.0,1.0,341.5453729976434,2.0,1.0,phase_1,,,,,,,,,,,,,magenta,hexagon
406.0,8.0,4.0,1.0,4.0,4.0,322.662730992306,2.0,1.0,phase_1,,,,,,,,,,,,,yellow,flipped triangle
0.0,6.0,0.0,1.0,1.0,1.0,318.0986859952099,2.0,1.0,phase_1,,,,,,,,,,,,,white,square
26.0,1.0,0.5,0.0,1.0,1.0,339.1705079993699,2.0,1.0,phase_1,,,,,,,,,,,,,gray,I
71.0,5.0,0.5,1.0,2.0,2.0,358.1718429923057,2.0,1.0,phase_1,,,,,,,,,,,,,orange,diamond
212.0,7.0,2.0,1.0,1.0,1.0,338.3343240129761,2.0,1.0,phase_1,,,,,,,,,,,,,green,triangle
184.0,7.0,2.0,1.0,3.0,3.0,432.7617849921807,2.0,1.0,phase_1,,,,,,,,,,,,,green,triangle
63.0,5.0,0.5,1.0,1.0,1.0,333.9298209757544,2.0,1.0,phase_1,,,,,,,,,,,,,orange,diamond
43.0,1.0,0.5,0.0,4.0,4.0,346.134688006714,2.0,1.0,phase_1,,,,,,,,,,,,,gray,I
204.0,7.0,2.0,1.0,3.0,3.0,420.7170910085551,2.0,1.0,phase_1,,,,,,,,,,,,,green,triangle
178.0,7.0,2.0,1.0,2.0,2.0,402.8472449863329,2.0,1.0,phase_1,,,,,,,,,,,,,green,triangle
115.0,2.0,1.0,0.0,1.0,1.0,398.6895480193198,2.0,1.0,phase_1,,,,,,,,,,,,,blue,cross
111.0,2.0,1.0,0.0,1.0,1.0,362.9983720020391,2.0,1.0,phase_1,,,,,,,,,,,,,blue,cross
92.0,2.0,1.0,0.0,1.0,1.0,331.0296529962215,2.0,1.0,phase_1,,,,,,,,,,,,,blue,cross
0.0,2.0,0.0,0.0,3.0,3.0,321.2431660213042,2.0,1.0,phase_1,,,,,,,,,,,,,blue,cross
0.0,4.0,0.0,0.0,2.0,2.0,305.7166200014762,2.0,1.0,phase_1,,,,,,,,,,,,,magenta,hexagon
39.0,1.0,0.5,0.0,4.0,4.0,375.7710290083196,2.0,1.0,phase_1,,,,,,,,,,,,,gray,I
120.0,6.0,1.0,1.0,2.0,2.0,339.6734510024544,2.0,1.0,phase_1,,,,,,,,,,,,,white,square
0.0,3.0,0.0,0.0,3.0,3.0,346.5637020126451,2.0,1.0,phase_1,,,,,,,,,,,,,cyan,circle
410.0,8.0,4.0,1.0,3.0,3.0,357.5186059752013,2.0,1.0,phase_1,,,,,,,,,,,,,yellow,flipped triangle
92.0,6.0,1.0,1.0,3.0,3.0,308.1486959999893,2.0,1.0,phase_1,,,,,,,,,,,,,white,square
0.0,2.0,0.0,0.0,3.0,3.0,441.1437429953366,2.0,1.0,phase_1,,,,,,,,,,,,,blue,cross
121.0,2.0,1.0,0.0,1.0,1.0,349.5015660009812,2.0,1.0,phase_1,,,,,,,,,,,,,blue,cross
40.0,5.0,0.5,1.0,1.0,1.0,366.6262370243203,2.0,1.0,phase_1,,,,,,,,,,,,,orange,diamond
92.0,2.0,1.0,0.0,4.0,4.0,307.894920988474,2.0,1.0,phase_1,,,,,,,,,,,,,blue,cross
104.0,2.0,1.0,0.0,4.0,4.0,338.8947960047517,2.0,1.0,phase_1,,,,,,,,,,,,,blue,cross
115.0,2.0,1.0,0.0,2.0,2.0,308.8875110261142,2.0,1.0,phase_1,,,,,,,,,,,,,blue,cross
423.0,4.0,4.0,0.0,4.0,4.0,309.1441440046765,2.0,1.0,phase_1,,,,,,,,,,,,,magenta,hexagon
409.0,8.0,4.0,1.0,2.0,2.0,408.5342519974801,2.0,1.0,phase_1,,,,,,,,,,,,,yellow,flipped triangle
0.0,2.0,0.0,0.0,2.0,2.0,357.5878590054344,2.0,1.0,phase_1,,,,,,,,,,,,,blue,cross
59.0,5.0,0.5,1.0,4.0,4.0,312.0085599948652,2.0,1.0,phase_1,,,,,,,,,,,,,orange,diamond
95.0,6.0,1.0,1.0,4.0,4.0,430.575761012733,3.0,1.0,phase_1,,,,,,,,,,,,,white,square
211.0,7.0,2.0,1.0,4.0,4.0,331.0991970065515,3.0,1.0,phase_1,,,,,,,,,,,,,green,triangle
385.0,8.0,4.0,1.0,2.0,2.0,279.6940169937443,3.0,1.0,phase_1,,,,,,,,,,,,,yellow,flipped triangle
398.0,8.0,4.0,1.0,4.0,4.0,292.6666709827259,3.0,1.0,phase_1,,,,,,,,,,,,,yellow,flipped triangle
68.0,5.0,0.5,1.0,1.0,1.0,320.7104860048275,3.0,1.0,phase_1,,,,,,,,,,,,,orange,diamond
99.0,2.0,1.0,0.0,4.0,4.0,299.3905119947158,3.0,1.0,phase_1,,,,,,,,,,,,,blue,cross
0.0,4.0,0.0,0.0,3.0,3.0,321.7958759923931,3.0,1.0,phase_1,,,,,,,,,,,,,magenta,hexagon
118.0,2.0,1.0,0.0,4.0,4.0,317.6841429958585,3.0,1.0,phase_1,,,,,,,,,,,,,blue,cross
65.0,1.0,0.5,0.0,3.0,3.0,408.6817740171682,3.0,1.0,phase_1,,,,,,,,,,,,,gray,I
48.0,1.0,0.5,0.0,2.0,2.0,349.6152279840316,3.0,1.0,phase_1,,,,,,,,,,,,,gray,I
404.0,8.0,4.0,1.0,2.0,2.0,345.8943550067488,3.0,1.0,phase_1,,,,,,,,,,,,,yellow,flipped triangle
0.0,3.0,0.0,0.0,1.0,1.0,330.32274901052,3.0,1.0,phase_1,,,,,,,,,,,,,cyan,circle
0.0,3.0,0.0,0.0,1.0,1.0,363.4210460004397,3.0,1.0,phase_1,,,,,,,,,,,,,cyan,circle
420.0,4.0,4.0,0.0,2.0,2.0,354.3733449769206,3.0,1.0,phase_1,,,,,,,,,,,,,magenta,hexagon
381.0,4.0,4.0,0.0,4.0,4.0,308.703721006168,3.0,1.0,phase_1,,,,,,,,,,,,,magenta,hexagon
390.0,8.0,4.0,1.0,4.0,4.0,404.5851000119,3.0,1.0,phase_1,,,,,,,,,,,,,yellow,flipped triangle
414.0,8.0,4.0,1.0,2.0,2.0,374.2047229898162,3.0,1.0,phase_1,,,,,,,,,,,,,yellow,flipped triangle
225.0,3.0,2.0,0.0,3.0,3.0,422.1722889924422,3.0,1.0,phase_1,,,,,,,,,,,,,cyan,circle
403.0,4.0,4.0,0.0,3.0,3.0,384.6997980144806,3.0,1.0,phase_1,,,,,,,,,,,,,magenta,hexagon
46.0,5.0,0.5,1.0,2.0,2.0,316.888169007143,3.0,1.0,phase_1,,,,,,,,,,,,,orange,diamond
63.0,1.0,0.5,0.0,1.0,1.0,347.1962710027583,3.0,1.0,phase_1,,,,,,,,,,,,,gray,I
118.0,6.0,1.0,1.0,4.0,4.0,358.7111340020783,3.0,1.0,phase_1,,,,,,,,,,,,,white,square
412.0,4.0,4.0,0.0,4.0,4.0,342.2744659765158,3.0,1.0,phase_1,,,,,,,,,,,,,magenta,hexagon
0.0,2.0,0.0,0.0,1.0,1.0,346.8817200046032,3.0,1.0,phase_1,,,,,,,,,,,,,blue,cross
417.0,8.0,4.0,1.0,1.0,1.0,366.269212012412,3.0,1.0,phase_1,,,,,,,,,,,,,yellow,flipped triangle
222.0,3.0,2.0,0.0,1.0,1.0,344.9970610090531,3.0,1.0,phase_1,,,,,,,,,,,,,cyan,circle
423.0,8.0,4.0,1.0,3.0,3.0,366.1185179953463,3.0,1.0,phase_1,,,,,,,,,,,,,yellow,flipped triangle
221.0,7.0,2.0,1.0,4.0,4.0,413.0431829835288,3.0,1.0,phase_1,,,,,,,,,,,,,green,triangle
0.0,1.0,0.0,0.0,4.0,4.0,391.3781950250268,3.0,1.0,phase_1,,,,,,,,,,,,,gray,I
27.0,1.0,0.5,0.0,2.0,2.0,411.5432329999748,3.0,1.0,phase_1,,,,,,,,,,,,,gray,I
381.0,8.0,4.0,1.0,2.0,2.0,345.6960409821477,3.0,1.0,phase_1,,,,,,,,,,,,,yellow,flipped triangle
403.0,8.0,4.0,1.0,1.0,1.0,300.307019992033,3.0,1.0,phase_1,,,,,,,,,,,,,yellow,flipped triangle
393.0,4.0,4.0,0.0,1.0,1.0,292.2459180117585,3.0,1.0,phase_1,,,,,,,,,,,,,magenta,hexagon
0.0,5.0,0.0,1.0,3.0,3.0,362.209309998434,3.0,1.0,phase_1,,,,,,,,,,,,,orange,diamond
0.0,1.0,0.0,0.0,2.0,2.0,402.7327460062224,3.0,1.0,phase_1,,,,,,,,,,,,,gray,I
417.0,4.0,4.0,0.0,3.0,3.0,384.4717080064583,3.0,1.0,phase_1,,,,,,,,,,,,,magenta,hexagon
0.0,6.0,0.0,1.0,4.0,4.0,429.8782210098579,3.0,1.0,phase_1,,,,,,,,,,,,,white,square
0.0,3.0,0.0,0.0,3.0,3.0,379.4563809933606,3.0,1.0,phase_1,,,,,,,,,,,,,cyan,circle
392.0,4.0,4.0,0.0,4.0,4.0,326.197908987524,3.0,1.0,phase_1,,,,,,,,,,,,,magenta,hexagon
224.0,3.0,2.0,0.0,2.0,2.0,324.4185959920287,3.0,1.0,phase_1,,,,,,,,,,,,,cyan,circle
83.0,2.0,1.0,0.0,3.0,3.0,367.8823520021979,3.0,1.0,phase_1,,,,,,,,,,,,,blue,cross
108.0,6.0,1.0,1.0,1.0,1.0,380.4474789940286,3.0,1.0,phase_1,,,,,,,,,,,,,white,square
74.0,5.0,0.5,1.0,4.0,4.0,361.1257550073787,3.0,1.0,phase_1,,,,,,,,,,,,,orange,diamond
67.0,1.0,0.5,0.0,3.0,3.0,380.9016399900429,3.0,1.0,phase_1,,,,,,,,,,,,,gray,I
377.0,8.0,4.0,1.0,2.0,2.0,364.8302769870497,3.0,1.0,phase_1,,,,,,,,,,,,,yellow,flipped triangle
0.0,5.0,0.0,1.0,1.0,1.0,369.06113399891177,3.0,1.0,phase_1,,,,,,,,,,,,,orange,diamond
215.0,3.0,2.0,0.0,3.0,3.0,389.1309530008584,3.0,1.0,phase_1,,,,,,,,,,,,,cyan,circle
59.0,1.0,0.5,0.0,3.0,3.0,359.5687459746841,3.0,1.0,phase_1,,,,,,,,,,,,,gray,I
188.0,7.0,2.0,1.0,3.0,3.0,320.0337159796618,3.0,1.0,phase_1,,,,,,,,,,,,,green,triangle
188.0,3.0,2.0,0.0,4.0,4.0,384.7839320078492,3.0,1.0,phase_1,,,,,,,,,,,,,cyan,circle
187.0,3.0,2.0,0.0,2.0,2.0,352.3913759854622,3.0,1.0,phase_1,,,,,,,,,,,,,cyan,circle
51.0,5.0,0.5,1.0,4.0,4.0,384.8669989965856,3.0,2.0,phase_1,,,,,,,,,,,,,orange,diamond
97.0,2.0,1.0,0.0,1.0,1.0,355.8644260047003,3.0,1.0,phase_1,,,,,,,,,,,,,blue,cross
0.0,1.0,0.0,0.0,3.0,3.0,356.03362202527927,3.0,1.0,phase_1,,,,,,,,,,,,,gray,I
59.0,5.0,0.5,1.0,2.0,2.0,416.1711189954076,3.0,1.0,phase_1,,,,,,,,,,,,,orange,diamond
0.0,8.0,0.0,1.0,1.0,1.0,307.656343007693,3.0,1.0,phase_1,,,,,,,,,,,,,yellow,flipped triangle
65.0,5.0,0.5,1.0,1.0,1.0,362.5487390090711,3.0,1.0,phase_1,,,,,,,,,,,,,orange,diamond
392.0,8.0,4.0,1.0,1.0,1.0,363.4627920109778,3.0,1.0,phase_1,,,,,,,,,,,,,yellow,flipped triangle
204.0,3.0,2.0,0.0,3.0,3.0,376.3835860008839,3.0,1.0,phase_1,,,,,,,,,,,,,cyan,circle
102.0,6.0,1.0,1.0,2.0,2.0,318.5755599988624,3.0,1.0,phase_1,,,,,,,,,,,,,white,square
0.0,7.0,0.0,1.0,2.0,2.0,322.3322950070724,3.0,1.0,phase_1,,,,,,,,,,,,,green,triangle
179.0,3.0,2.0,0.0,2.0,2.0,368.8320769870188,3.0,1.0,phase_1,,,,,,,,,,,,,cyan,circle
44.0,1.0,0.5,0.0,4.0,4.0,307.139198994264,3.0,1.0,phase_1,,,,,,,,,,,,,gray,I
0.0,5.0,0.0,1.0,2.0,2.0,311.360912019154,3.0,1.0,phase_1,,,,,,,,,,,,,orange,diamond
189.0,7.0,2.0,1.0,2.0,2.0,348.4911099949386,3.0,1.0,phase_1,,,,,,,,,,,,,green,triangle
53.0,5.0,0.5,1.0,2.0,2.0,360.7670500059612,3.0,1.0,phase_1,,,,,,,,,,,,,orange,diamond
205.0,3.0,2.0,0.0,3.0,3.0,429.5933889807202,3.0,1.0,phase_1,,,,,,,,,,,,,cyan,circle
113.0,2.0,1.0,0.0,2.0,2.0,340.4787130129989,3.0,1.0,phase_1,,,,,,,,,,,,,blue,cross
109.0,2.0,1.0,0.0,2.0,2.0,392.6257040002383,3.0,1.0,phase_1,,,,,,,,,,,,,blue,cross
120.0,2.0,1.0,0.0,2.0,2.0,367.1132590097841,3.0,1.0,phase_1,,,,,,,,,,,,,blue,cross
385.0,4.0,4.0,0.0,4.0,4.0,336.567168997135,3.0,1.0,phase_1,,,,,,,,,,,,,magenta,hexagon
399.0,4.0,4.0,0.0,1.0,1.0,356.7537429917138,3.0,1.0,phase_1,,,,,,,,,,,,,magenta,hexagon
387.0,4.0,4.0,0.0,1.0,1.0,401.5321870101616,3.0,1.0,phase_1,,,,,,,,,,,,,magenta,hexagon
57.0,1.0,0.5,0.0,3.0,3.0,376.8318350194022,3.0,1.0,phase_1,,,,,,,,,,,,,gray,I
420.0,4.0,4.0,0.0,3.0,3.0,356.9544210040476,3.0,1.0,phase_1,,,,,,,,,,,,,magenta,hexagon
216.0,7.0,2.0,1.0,2.0,2.0,368.546147015877,3.0,1.0,phase_1,,,,,,,,,,,,,green,triangle
393.0,8.0,4.0,1.0,4.0,4.0,312.1192140097264,3.0,1.0,phase_1,,,,,,,,,,,,,yellow,flipped triangle
62.0,5.0,0.5,1.0,4.0,4.0,401.5965449798386,3.0,1.0,phase_1,,,,,,,,,,,,,orange,diamond
378.0,8.0,4.0,1.0,3.0,3.0,345.5233549757395,3.0,1.0,phase_1,,,,,,,,,,,,,yellow,flipped triangle
32.0,5.0,0.5,1.0,4.0,4.0,346.3394110149238,3.0,1.0,phase_1,,,,,,,,,,,,,orange,diamond
404.0,4.0,4.0,0.0,4.0,4.0,354.734695982188,3.0,1.0,phase_1,,,,,,,,,,,,,magenta,hexagon
407.0,4.0,4.0,0.0,2.0,2.0,428.4110779990442,3.0,1.0,phase_1,,,,,,,,,,,,,magenta,hexagon
51.0,1.0,0.5,0.0,2.0,2.0,522.1603290119674,3.0,1.0,phase_1,,,,,,,,,,,,,gray,I
75.0,2.0,1.0,0.0,2.0,2.0,342.7289079991169,3.0,1.0,phase_1,,,,,,,,,,,,,blue,cross
0.0,4.0,0.0,0.0,3.0,3.0,332.8306170005817,3.0,1.0,phase_1,,,,,,,,,,,,,magenta,hexagon
99.0,6.0,1.0,1.0,2.0,2.0,335.5794450035319,3.0,1.0,phase_1,,,,,,,,,,,,,white,square
75.0,6.0,1.0,1.0,2.0,2.0,314.8834930034354,3.0,1.0,phase_1,,,,,,,,,,,,,white,square
40.0,1.0,0.5,0.0,2.0,2.0,336.8267199839465,3.0,1.0,phase_1,,,,,,,,,,,,,gray,I
97.0,6.0,1.0,1.0,1.0,1.0,341.0180320206564,3.0,1.0,phase_1,,,,,,,,,,,,,white,square
0.0,8.0,0.0,1.0,2.0,2.0,339.3949040037114,3.0,1.0,phase_1,,,,,,,,,,,,,yellow,flipped triangle
406.0,4.0,4.0,0.0,3.0,3.0,352.5340500054881,3.0,1.0,phase_1,,,,,,,,,,,,,magenta,hexagon
59.0,5.0,0.5,1.0,3.0,3.0,324.619172984967,3.0,1.0,phase_1,,,,,,,,,,,,,orange,diamond
30.0,1.0,0.5,0.0,4.0,4.0,346.0809240059461,3.0,1.0,phase_1,,,,,,,,,,,,,gray,I
104.0,2.0,1.0,0.0,2.0,2.0,307.6158729963936,3.0,1.0,phase_1,,,,,,,,,,,,,blue,cross
99.0,2.0,1.0,0.0,1.0,1.0,340.4313810169697,3.0,1.0,phase_1,,,,,,,,,,,,,blue,cross
402.0,4.0,4.0,0.0,2.0,2.0,333.7967630068306,3.0,1.0,phase_1,,,,,,,,,,,,,magenta,hexagon
40.0,1.0,0.5,0.0,4.0,4.0,388.5300319816451,3.0,1.0,phase_1,,,,,,,,,,,,,gray,I
402.0,4.0,4.0,0.0,1.0,1.0,345.6124680233188,3.0,1.0,phase_1,,,,,,,,,,,,,magenta,hexagon
381.0,8.0,4.0,1.0,1.0,1.0,315.2438559918664,3.0,1.0,phase_1,,,,,,,,,,,,,yellow,flipped triangle
212.0,7.0,2.0,1.0,4.0,4.0,308.1336739996914,3.0,1.0,phase_1,,,,,,,,,,,,,green,triangle
115.0,6.0,1.0,1.0,4.0,4.0,331.5197060001082,4.0,1.0,phase_1,,,,,,,,,,,,,white,square
400.0,8.0,4.0,1.0,2.0,2.0,306.7356240062509,4.0,1.0,phase_1,,,,,,,,,,,,,yellow,flipped triangle
379.0,8.0,4.0,1.0,2.0,2.0,359.7060989995952,4.0,1.0,phase_1,,,,,,,,,,,,,yellow,flipped triangle
222.0,7.0,2.0,1.0,2.0,2.0,289.64698300114827,4.0,1.0,phase_1,,,,,,,,,,,,,green,triangle
48.0,5.0,0.5,1.0,3.0,3.0,303.5496409866027,4.0,1.0,phase_1,,,,,,,,,,,,,orange,diamond
53.0,1.0,0.5,0.0,4.0,4.0,334.3105870008003,4.0,1.0,phase_1,,,,,,,,,,,,,gray,I
67.0,5.0,0.5,1.0,1.0,1.0,327.6876859890762,4.0,2.0,phase_1,,,,,,,,,,,,,orange,diamond
0.0,8.0,0.0,1.0,4.0,4.0,355.4167079855688,4.0,1.0,phase_1,,,,,,,,,,,,,yellow,flipped triangle
388.0,4.0,4.0,0.0,4.0,4.0,359.7705970169045,4.0,1.0,phase_1,,,,,,,,,,,,,magenta,hexagon
418.0,8.0,4.0,1.0,4.0,4.0,387.6422230096068,4.0,1.0,phase_1,,,,,,,,,,,,,yellow,flipped triangle
205.0,3.0,2.0,0.0,1.0,1.0,328.2760069996584,4.0,1.0,phase_1,,,,,,,,,,,,,cyan,circle
63.0,1.0,0.5,0.0,4.0,4.0,372.3294749797787,4.0,1.0,phase_1,,,,,,,,,,,,,gray,I
50.0,1.0,0.5,0.0,2.0,2.0,369.2387659975793,4.0,1.0,phase_1,,,,,,,,,,,,,gray,I
53.0,5.0,0.5,1.0,4.0,4.0,311.1741879838519,4.0,1.0,phase_1,,,,,,,,,,,,,orange,diamond
196.0,3.0,2.0,0.0,3.0,3.0,362.243565992685,4.0,1.0,phase_1,,,,,,,,,,,,,cyan,circle
0.0,6.0,0.0,1.0,2.0,2.0,345.3205469995737,4.0,1.0,phase_1,,,,,,,,,,,,,white,square
387.0,8.0,4.0,1.0,3.0,3.0,379.0756899979897,4.0,1.0,phase_1,,,,,,,,,,,,,yellow,flipped triangle
0.0,7.0,0.0,1.0,2.0,2.0,360.8954829978756,4.0,1.0,phase_1,,,,,,,,,,,,,green,triangle
216.0,3.0,2.0,0.0,1.0,1.0,406.6189129953272,4.0,1.0,phase_1,,,,,,,,,,,,,cyan,circle
36.0,1.0,0.5,0.0,3.0,3.0,331.8507150106597,4.0,1.0,phase_1,,,,,,,,,,,,,gray,I
104.0,6.0,1.0,1.0,2.0,2.0,318.2339429913554,4.0,1.0,phase_1,,,,,,,,,,,,,white,square
87.0,2.0,1.0,0.0,3.0,3.0,492.8871059964876,4.0,1.0,phase_1,,,,,,,,,,,,,blue,cross
0.0,8.0,0.0,1.0,4.0,4.0,393.3344690012745,4.0,1.0,phase_1,,,,,,,,,,,,,yellow,flipped triangle
0.0,7.0,0.0,1.0,4.0,4.0,405.4991269949823,4.0,1.0,phase_1,,,,,,,,,,,,,green,triangle
39.0,5.0,0.5,1.0,3.0,3.0,345.5433729977812,4.0,1.0,phase_1,,,,,,,,,,,,,orange,diamond
108.0,2.0,1.0,0.0,4.0,4.0,414.2302370164543,4.0,1.0,phase_1,,,,,,,,,,,,,blue,cross
0.0,2.0,0.0,0.0,3.0,3.0,338.8746199780144,4.0,1.0,phase_1,,,,,,,,,,,,,blue,cross
215.0,7.0,2.0,1.0,2.0,2.0,399.6121800155379,4.0,1.0,phase_1,,,,,,,,,,,,,green,triangle
204.0,3.0,2.0,0.0,4.0,4.0,447.60203000623727,4.0,1.0,phase_1,,,,,,,,,,,,,cyan,circle
50.0,5.0,0.5,1.0,4.0,4.0,377.9181189893279,4.0,1.0,phase_1,,,,,,,,,,,,,orange,diamond
407.0,8.0,4.0,1.0,3.0,3.0,336.7281020036898,4.0,1.0,phase_1,,,,,,,,,,,,,yellow,flipped triangle
192.0,3.0,2.0,0.0,2.0,2.0,323.837865027599,4.0,1.0,phase_1,,,,,,,,,,,,,cyan,circle
0.0,1.0,0.0,0.0,3.0,3.0,345.1290960074402,4.0,1.0,phase_1,,,,,,,,,,,,,gray,I
215.0,7.0,2.0,1.0,1.0,1.0,323.960226989584,4.0,1.0,phase_1,,,,,,,,,,,,,green,triangle
31.0,5.0,0.5,1.0,2.0,2.0,449.858715001028,4.0,1.0,phase_1,,,,,,,,,,,,,orange,diamond
182.0,7.0,2.0,1.0,4.0,4.0,400.4485429904889,4.0,1.0,phase_1,,,,,,,,,,,,,green,triangle
54.0,1.0,0.5,0.0,1.0,1.0,362.5166669953614,4.0,1.0,phase_1,,,,,,,,,,,,,gray,I
399.0,8.0,4.0,1.0,4.0,4.0,479.7847779991571,4.0,1.0,phase_1,,,,,,,,,,,,,yellow,flipped triangle
39.0,5.0,0.5,1.0,1.0,1.0,339.4789749872871,4.0,1.0,phase_1,,,,,,,,,,,,,orange,diamond
414.0,4.0,4.0,0.0,2.0,2.0,383.828109013848,4.0,1.0,phase_1,,,,,,,,,,,,,magenta,hexagon
379.0,4.0,4.0,0.0,3.0,3.0,379.6822329750284,4.0,1.0,phase_1,,,,,,,,,,,,,magenta,hexagon
83.0,6.0,1.0,1.0,3.0,3.0,368.6353209777735,4.0,1.0,phase_1,,,,,,,,,,,,,white,square
93.0,6.0,1.0,1.0,1.0,1.0,349.2763770045712,4.0,1.0,phase_1,,,,,,,,,,,,,white,square
59.0,1.0,0.5,0.0,3.0,3.0,380.9243899886496,4.0,1.0,phase_1,,,,,,,,,,,,,gray,I
390.0,4.0,4.0,0.0,4.0,4.0,361.6786390193738,4.0,1.0,phase_1,,,,,,,,,,,,,magenta,hexagon
102.0,2.0,1.0,0.0,1.0,1.0,397.4836150009651,4.0,1.0,phase_1,,,,,,,,,,,,,blue,cross
0.0,1.0,0.0,0.0,4.0,4.0,360.0532510026824,4.0,1.0,phase_1,,,,,,,,,,,,,gray,I
410.0,4.0,4.0,0.0,3.0,3.0,340.3377099893987,4.0,1.0,phase_1,,,,,,,,,,,,,magenta,hexagon
0.0,4.0,0.0,0.0,3.0,3.0,356.0085810022428,4.0,1.0,phase_1,,,,,,,,,,,,,magenta,hexagon
79.0,6.0,1.0,1.0,1.0,1.0,328.5766679910011,4.0,1.0,phase_1,,,,,,,,,,,,,white,square
388.0,8.0,4.0,1.0,4.0,4.0,364.7060660005081,4.0,1.0,phase_1,,,,,,,,,,,,,yellow,flipped triangle
420.0,8.0,4.0,1.0,4.0,4.0,384.0091959864367,4.0,1.0,phase_1,,,,,,,,,,,,,yellow,flipped triangle
0.0,3.0,0.0,0.0,1.0,1.0,331.9754819967784,4.0,1.0,phase_1,,,,,,,,,,,,,cyan,circle
215.0,3.0,2.0,0.0,2.0,2.0,354.3045529804658,4.0,1.0,phase_1,,,,,,,,,,,,,cyan,circle
70.0,5.0,0.5,1.0,3.0,3.0,344.2367730021942,4.0,1.0,phase_1,,,,,,,,,,,,,orange,diamond
0.0,3.0,0.0,0.0,3.0,3.0,364.7936119814403,4.0,1.0,phase_1,,,,,,,,,,,,,cyan,circle
182.0,3.0,2.0,0.0,1.0,1.0,298.4477410209365,4.0,1.0,phase_1,,,,,,,,,,,,,cyan,circle
391.0,8.0,4.0,1.0,3.0,3.0,323.6248600005638,4.0,1.0,phase_1,,,,,,,,,,,,,yellow,flipped triangle
208.0,3.0,2.0,0.0,3.0,3.0,400.3899800009094,4.0,1.0,phase_1,,,,,,,,,,,,,cyan,circle
117.0,2.0,1.0,0.0,1.0,1.0,352.598911995301,4.0,1.0,phase_1,,,,,,,,,,,,,blue,cross
44.0,5.0,0.5,1.0,3.0,3.0,347.07547101425,4.0,1.0,phase_1,,,,,,,,,,,,,orange,diamond
39.0,1.0,0.5,0.0,3.0,3.0,342.8964569757227,4.0,1.0,phase_1,,,,,,,,,,,,,gray,I
58.0,1.0,0.5,0.0,2.0,2.0,323.245223989943,4.0,1.0,phase_1,,,,,,,,,,,,,gray,I
107.0,2.0,1.0,0.0,4.0,4.0,367.3347579897381,4.0,1.0,phase_1,,,,,,,,,,,,,blue,cross
43.0,5.0,0.5,1.0,1.0,1.0,319.0709170012269,4.0,1.0,phase_1,,,,,,,,,,,,,orange,diamond
0.0,3.0,0.0,0.0,2.0,2.0,306.2826100212987,4.0,1.0,phase_1,,,,,,,,,,,,,cyan,circle
0.0,8.0,0.0,1.0,3.0,3.0,293.8922669854946,4.0,1.0,phase_1,,,,,,,,,,,,,yellow,flipped triangle
71.0,5.0,0.5,1.0,3.0,3.0,301.9560739921871,4.0,1.0,phase_1,,,,,,,,,,,,,orange,diamond
189.0,3.0,2.0,0.0,1.0,1.0,274.861909012543,4.0,1.0,phase_1,,,,,,,,,,,,,cyan,circle
208.0,7.0,2.0,1.0,3.0,3.0,295.1203960110433,4.0,1.0,phase_1,,,,,,,,,,,,,green,triangle
86.0,6.0,1.0,1.0,1.0,1.0,321.4237140200566,4.0,1.0,phase_1,,,,,,,,,,,,,white,square
179.0,3.0,2.0,0.0,2.0,2.0,343.0305329966359,4.0,1.0,phase_1,,,,,,,,,,,,,cyan,circle
99.0,6.0,1.0,1.0,4.0,4.0,346.2715430068783,4.0,1.0,phase_1,,,,,,,,,,,,,white,square
92.0,2.0,1.0,0.0,3.0,3.0,328.3951999910641,4.0,1.0,phase_1,,,,,,,,,,,,,blue,cross
40.0,5.0,0.5,1.0,1.0,1.0,315.3044930077158,4.0,1.0,phase_1,,,,,,,,,,,,,orange,diamond
110.0,2.0,1.0,0.0,1.0,1.0,339.7348099970259,4.0,1.0,phase_1,,,,,,,,,,,,,blue,cross
122.0,2.0,1.0,0.0,2.0,2.0,320.0692610116675,4.0,1.0,phase_1,,,,,,,,,,,,,blue,cross
212.0,3.0,2.0,0.0,4.0,4.0,361.0788070072885,4.0,1.0,phase_1,,,,,,,,,,,,,cyan,circle
0.0,4.0,0.0,0.0,4.0,4.0,390.7516399922315,4.0,1.0,phase_1,,,,,,,,,,,,,magenta,hexagon
177.0,7.0,2.0,1.0,4.0,4.0,356.0903450124897,4.0,1.0,phase_1,,,,,,,,,,,,,green,triangle
0.0,7.0,0.0,1.0,1.0,1.0,346.3378140004352,4.0,1.0,phase_1,,,,,,,,,,,,,green,triangle
0.0,6.0,0.0,1.0,4.0,4.0,413.8910500041675,4.0,1.0,phase_1,,,,,,,,,,,,,white,square
34.0,1.0,0.5,0.0,4.0,4.0,356.474084983347,4.0,1.0,phase_1,,,,,,,,,,,,,gray,I
0.0,5.0,0.0,1.0,3.0,3.0,343.9663180033676,4.0,1.0,phase_1,,,,,,,,,,,,,orange,diamond
71.0,1.0,0.5,0.0,1.0,1.0,339.4941629958339,4.0,1.0,phase_1,,,,,,,,,,,,,gray,I
179.0,7.0,2.0,1.0,2.0,2.0,319.4889969890937,4.0,1.0,phase_1,,,,,,,,,,,,,green,triangle
216.0,3.0,2.0,0.0,4.0,4.0,406.7737459845375,4.0,1.0,phase_1,,,,,,,,,,,,,cyan,circle
199.0,3.0,2.0,0.0,4.0,4.0,419.554964028066,4.0,1.0,phase_1,,,,,,,,,,,,,cyan,circle
0.0,3.0,0.0,0.0,2.0,2.0,351.7497559951152,4.0,1.0,phase_1,,,,,,,,,,,,,cyan,circle
0.0,5.0,0.0,1.0,1.0,1.0,339.2731740023009,4.0,1.0,phase_1,,,,,,,,,,,,,orange,diamond
0.0,6.0,0.0,1.0,4.0,4.0,342.47459701146,4.0,1.0,phase_1,,,,,,,,,,,,,white,square
400.0,4.0,4.0,0.0,2.0,2.0,266.7737159936223,4.0,1.0,phase_1,,,,,,,,,,,,,magenta,hexagon
419.0,8.0,4.0,1.0,1.0,1.0,299.0038350108079,4.0,1.0,phase_1,,,,,,,,,,,,,yellow,flipped triangle
68.0,1.0,0.5,0.0,2.0,2.0,326.2870720063802,4.0,1.0,phase_1,,,,,,,,,,,,,gray,I
0.0,4.0,0.0,0.0,3.0,3.0,365.0494540052023,4.0,1.0,phase_1,,,,,,,,,,,,,magenta,hexagon
0.0,1.0,0.0,0.0,4.0,4.0,376.4277679729275,4.0,1.0,phase_1,,,,,,,,,,,,,gray,I
184.0,7.0,2.0,1.0,1.0,1.0,324.1449540073517,4.0,1.0,phase_1,,,,,,,,,,,,,green,triangle
0.0,1.0,0.0,0.0,3.0,3.0,303.8029299932532,4.0,1.0,phase_1,,,,,,,,,,,,,gray,I
402.0,8.0,4.0,1.0,1.0,1.0,294.4108399969991,4.0,1.0,phase_1,,,,,,,,,,,,,yellow,flipped triangle
399.0,8.0,4.0,1.0,1.0,1.0,296.9039940217044,4.0,1.0,phase_1,,,,,,,,,,,,,yellow,flipped triangle
0.0,6.0,1.0,1.0,6.0,6.0,542.4612250062637,1.0,1.0,phase_2,stop,250.0,250.0,3.0,,,,,,,,,white,square
0.0,2.0,1.0,0.0,5.0,5.0,504.4161560072098,1.0,1.0,phase_2,go,250.0,200.0,1.0,,,,,,,,,blue,cross
0.0,8.0,4.0,1.0,6.0,0.0,0.0,1.0,1.0,phase_2,stop,250.0,200.0,4.0,,,,,,,,,yellow,flipped triangle
0.0,8.0,4.0,1.0,5.0,5.0,668.1175459816586,1.0,1.0,phase_2,stop,250.0,250.0,3.0,,,,,,,,,yellow,flipped triangle
0.0,3.0,2.0,0.0,6.0,6.0,603.5485459724441,1.0,1.0,phase_2,go,200.0,250.0,1.0,,,,,,,,,cyan,circle
0.0,2.0,1.0,0.0,5.0,5.0,678.215571999317,1.0,1.0,phase_2,go,200.0,250.0,1.0,,,,,,,,,blue,cross
0.0,2.0,1.0,0.0,5.0,5.0,666.4693519996945,1.0,1.0,phase_2,go,200.0,250.0,1.0,,,,,,,,,blue,cross
0.0,4.0,4.0,0.0,6.0,6.0,564.9141169851646,1.0,1.0,phase_2,go,200.0,250.0,1.0,,,,,,,,,magenta,hexagon
0.0,7.0,2.0,1.0,6.0,0.0,0.0,1.0,1.0,phase_2,stop,200.0,250.0,4.0,,,,,,,,,green,triangle
0.0,1.0,0.5,0.0,6.0,6.0,771.7465609894134,1.0,1.0,phase_2,go,200.0,300.0,1.0,,,,,,,,,gray,I
0.0,4.0,4.0,0.0,5.0,5.0,787.4152550066356,1.0,1.0,phase_2,go,200.0,300.0,1.0,,,,,,,,,magenta,hexagon
0.0,3.0,2.0,0.0,6.0,6.0,666.9111569935922,1.0,1.0,phase_2,go,200.0,300.0,1.0,,,,,,,,,cyan,circle
0.0,5.0,0.5,1.0,5.0,0.0,0.0,1.0,1.0,phase_2,stop,200.0,300.0,4.0,,,,,,,,,orange,diamond
0.0,2.0,1.0,0.0,6.0,6.0,545.2332360146102,1.0,1.0,phase_2,go,250.0,300.0,1.0,,,,,,,,,blue,cross
0.0,5.0,0.5,1.0,5.0,5.0,649.8257050116081,1.0,1.0,phase_2,go,250.0,300.0,1.0,,,,,,,,,orange,diamond
0.0,5.0,0.5,1.0,6.0,0.0,0.0,1.0,1.0,phase_2,stop,250.0,300.0,4.0,,,,,,,,,orange,diamond
0.0,1.0,0.5,0.0,6.0,6.0,687.6568649895489,1.0,1.0,phase_2,go,250.0,350.0,1.0,,,,,,,,,gray,I
0.0,7.0,2.0,1.0,6.0,0.0,0.0,1.0,1.0,phase_2,stop,250.0,350.0,4.0,,,,,,,,,green,triangle
0.0,3.0,2.0,0.0,5.0,5.0,511.11192800453864,1.0,1.0,phase_2,go,250.0,400.0,1.0,,,,,,,,,cyan,circle
0.0,7.0,2.0,1.0,6.0,0.0,0.0,1.0,1.0,phase_2,stop,250.0,400.0,4.0,,,,,,,,,green,triangle
0.0,4.0,4.0,0.0,5.0,5.0,684.3930559989531,1.0,1.0,phase_2,go,250.0,450.0,1.0,,,,,,,,,magenta,hexagon
0.0,4.0,4.0,0.0,6.0,6.0,757.1634750056546,1.0,1.0,phase_2,go,250.0,450.0,1.0,,,,,,,,,magenta,hexagon
0.0,5.0,0.5,1.0,5.0,0.0,0.0,1.0,1.0,phase_2,stop,250.0,450.0,4.0,,,,,,,,,orange,diamond
0.0,8.0,4.0,1.0,5.0,0.0,0.0,1.0,1.0,phase_2,stop,300.0,450.0,4.0,,,,,,,,,yellow,flipped triangle
0.0,2.0,1.0,0.0,6.0,6.0,523.6697249929421,1.0,1.0,phase_2,go,350.0,450.0,1.0,,,,,,,,,blue,cross
0.0,1.0,0.5,0.0,6.0,6.0,753.9519169949926,1.0,1.0,phase_2,go,350.0,450.0,1.0,,,,,,,,,gray,I
0.0,4.0,4.0,0.0,5.0,5.0,567.4756630032789,1.0,1.0,phase_2,go,350.0,450.0,1.0,,,,,,,,,magenta,hexagon
0.0,8.0,4.0,1.0,5.0,0.0,0.0,1.0,1.0,phase_2,stop,350.0,450.0,4.0,,,,,,,,,yellow,flipped triangle
0.0,3.0,2.0,0.0,5.0,5.0,600.1873349887319,1.0,1.0,phase_2,go,400.0,450.0,1.0,,,,,,,,,cyan,circle
0.0,3.0,2.0,0.0,5.0,5.0,647.7470950048883,1.0,1.0,phase_2,go,400.0,450.0,1.0,,,,,,,,,cyan,circle
0.0,5.0,0.5,1.0,5.0,0.0,0.0,1.0,1.0,phase_2,stop,400.0,450.0,4.0,,,,,,,,,orange,diamond
0.0,3.0,2.0,0.0,6.0,6.0,574.713743000757,1.0,1.0,phase_2,go,450.0,450.0,1.0,,,,,,,,,cyan,circle
0.0,5.0,0.5,1.0,5.0,5.0,704.5051640016027,1.0,1.0,phase_2,go,450.0,450.0,1.0,,,,,,,,,orange,diamond
0.0,2.0,1.0,0.0,6.0,6.0,436.3213350006845,1.0,1.0,phase_2,go,450.0,450.0,1.0,,,,,,,,,blue,cross
0.0,6.0,1.0,1.0,5.0,5.0,398.4679510176647,1.0,1.0,phase_2,stop,450.0,450.0,3.0,,,,,,,,,white,square
0.0,1.0,0.5,0.0,6.0,6.0,684.489494014997,1.0,1.0,phase_2,go,400.0,450.0,1.0,,,,,,,,,gray,I
0.0,7.0,2.0,1.0,5.0,5.0,523.9776629896369,2.0,1.0,phase_2,go,400.0,450.0,1.0,,,,,,,,,green,triangle
0.0,6.0,1.0,1.0,6.0,0.0,0.0,2.0,1.0,phase_2,stop,400.0,450.0,4.0,,,,,,,,,white,square
0.0,7.0,2.0,1.0,5.0,0.0,0.0,2.0,1.0,phase_2,stop,400.0,500.0,4.0,,,,,,,,,green,triangle
0.0,4.0,4.0,0.0,5.0,5.0,673.7172410066705,2.0,1.0,phase_2,go,450.0,500.0,1.0,,,,,,,,,magenta,hexagon
0.0,4.0,4.0,0.0,5.0,5.0,723.0952020036057,2.0,1.0,phase_2,go,450.0,500.0,1.0,,,,,,,,,magenta,hexagon
0.0,8.0,4.0,1.0,5.0,0.0,0.0,2.0,1.0,phase_2,stop,450.0,500.0,4.0,,,,,,,,,yellow,flipped triangle
0.0,1.0,0.5,0.0,5.0,5.0,842.7777529868763,2.0,1.0,phase_2,go,500.0,500.0,1.0,,,,,,,,,gray,I
0.0,8.0,4.0,1.0,5.0,0.0,0.0,2.0,1.0,phase_2,stop,500.0,500.0,4.0,,,,,,,,,yellow,flipped triangle
0.0,3.0,2.0,0.0,5.0,5.0,690.5777080100961,2.0,1.0,phase_2,go,550.0,500.0,1.0,,,,,,,,,cyan,circle
0.0,4.0,4.0,0.0,6.0,6.0,656.2219749903306,2.0,1.0,phase_2,go,550.0,500.0,1.0,,,,,,,,,magenta,hexagon
0.0,8.0,4.0,1.0,6.0,0.0,0.0,2.0,1.0,phase_2,stop,550.0,500.0,4.0,,,,,,,,,yellow,flipped triangle
0.0,8.0,4.0,1.0,6.0,6.0,596.2380720011424,2.0,1.0,phase_2,stop,550.0,550.0,3.0,,,,,,,,,yellow,flipped triangle
0.0,7.0,2.0,1.0,6.0,0.0,0.0,2.0,1.0,phase_2,stop,550.0,500.0,4.0,,,,,,,,,green,triangle
0.0,1.0,0.5,0.0,6.0,6.0,867.7005679928698,2.0,1.0,phase_2,go,550.0,550.0,1.0,,,,,,,,,gray,I
0.0,3.0,2.0,0.0,5.0,5.0,892.7186169894412,2.0,1.0,phase_2,go,550.0,550.0,1.0,,,,,,,,,cyan,circle
0.0,6.0,1.0,1.0,6.0,0.0,0.0,2.0,1.0,phase_2,stop,550.0,550.0,4.0,,,,,,,,,white,square
0.0,8.0,4.0,1.0,6.0,0.0,0.0,2.0,1.0,phase_2,stop,550.0,600.0,4.0,,,,,,,,,yellow,flipped triangle
0.0,1.0,0.5,0.0,5.0,5.0,852.5963230058551,2.0,1.0,phase_2,go,550.0,650.0,1.0,,,,,,,,,gray,I
0.0,2.0,1.0,0.0,5.0,5.0,624.8869690170977,2.0,1.0,phase_2,go,550.0,650.0,1.0,,,,,,,,,blue,cross
0.0,3.0,2.0,0.0,6.0,6.0,514.1602600051556,2.0,1.0,phase_2,go,550.0,650.0,1.0,,,,,,,,,cyan,circle
0.0,6.0,1.0,1.0,6.0,6.0,674.4726340111811,2.0,1.0,phase_2,stop,550.0,650.0,3.0,,,,,,,,,white,square
0.0,6.0,1.0,1.0,6.0,6.0,670.7855659769848,2.0,1.0,phase_2,go,550.0,600.0,1.0,,,,,,,,,white,square
0.0,2.0,1.0,0.0,6.0,6.0,630.498151993379,2.0,1.0,phase_2,go,550.0,600.0,1.0,,,,,,,,,blue,cross
0.0,2.0,1.0,0.0,5.0,5.0,601.3346159888897,2.0,1.0,phase_2,go,550.0,600.0,1.0,,,,,,,,,blue,cross
0.0,7.0,2.0,1.0,5.0,5.0,551.4201490150299,2.0,1.0,phase_2,go,550.0,600.0,1.0,,,,,,,,,green,triangle
0.0,5.0,0.5,1.0,6.0,6.0,496.9608449900988,2.0,1.0,phase_2,stop,550.0,600.0,3.0,,,,,,,,,orange,diamond
0.0,1.0,0.5,0.0,5.0,5.0,796.5228329994716,2.0,1.0,phase_2,go,550.0,550.0,1.0,,,,,,,,,gray,I
0.0,1.0,0.5,0.0,6.0,6.0,740.5088079976849,2.0,1.0,phase_2,go,550.0,550.0,1.0,,,,,,,,,gray,I
0.0,1.0,0.5,0.0,6.0,6.0,694.3044760264456,2.0,1.0,phase_2,go,550.0,550.0,1.0,,,,,,,,,gray,I
0.0,5.0,0.5,1.0,5.0,5.0,540.8126910042483,2.0,1.0,phase_2,stop,550.0,550.0,3.0,,,,,,,,,orange,diamond
0.0,6.0,1.0,1.0,5.0,5.0,972.8076189931016,2.0,1.0,phase_2,go,500.0,550.0,1.0,,,,,,,,,white,square
0.0,1.0,0.5,0.0,5.0,5.0,677.5648859911598,2.0,1.0,phase_2,go,500.0,550.0,1.0,,,,,,,,,gray,I
0.0,1.0,0.5,0.0,5.0,5.0,588.4197989944369,2.0,1.0,phase_2,go,500.0,550.0,1.0,,,,,,,,,gray,I
0.0,1.0,0.5,0.0,5.0,5.0,673.4419180138502,2.0,1.0,phase_2,go,500.0,550.0,1.0,,,,,,,,,gray,I
0.0,7.0,2.0,1.0,5.0,0.0,0.0,2.0,1.0,phase_2,stop,500.0,550.0,4.0,,,,,,,,,green,triangle
0.0,4.0,4.0,0.0,6.0,6.0,736.9644829886965,2.0,1.0,phase_2,go,550.0,550.0,1.0,,,,,,,,,magenta,hexagon
0.0,7.0,2.0,1.0,6.0,0.0,0.0,3.0,1.0,phase_2,stop,550.0,550.0,4.0,,,,,,,,,green,triangle
0.0,7.0,2.0,1.0,6.0,0.0,0.0,3.0,1.0,phase_2,stop,550.0,600.0,4.0,,,,,,,,,green,triangle
0.0,7.0,2.0,1.0,6.0,6.0,728.6550670105498,3.0,1.0,phase_2,go,550.0,650.0,1.0,,,,,,,,,green,triangle
0.0,6.0,1.0,1.0,5.0,5.0,702.9007589735556,3.0,1.0,phase_2,stop,550.0,650.0,3.0,,,,,,,,,white,square
0.0,3.0,2.0,0.0,5.0,5.0,773.756542999763,3.0,1.0,phase_2,go,500.0,650.0,1.0,,,,,,,,,cyan,circle
0.0,6.0,1.0,1.0,5.0,0.0,0.0,3.0,1.0,phase_2,stop,500.0,650.0,4.0,,,,,,,,,white,square
0.0,7.0,2.0,1.0,5.0,5.0,661.0450299922377,3.0,1.0,phase_2,stop,550.0,650.0,3.0,,,,,,,,,green,triangle
0.0,4.0,4.0,0.0,5.0,5.0,820.7897590182256,3.0,1.0,phase_2,go,500.0,650.0,1.0,,,,,,,,,magenta,hexagon
0.0,6.0,1.0,1.0,5.0,5.0,855.1683270197827,3.0,1.0,phase_2,go,500.0,650.0,1.0,,,,,,,,,white,square
0.0,2.0,1.0,0.0,5.0,5.0,494.6499160141684,3.0,1.0,phase_2,go,500.0,650.0,1.0,,,,,,,,,blue,cross
0.0,6.0,1.0,1.0,6.0,6.0,675.7900399970822,3.0,1.0,phase_2,stop,500.0,650.0,3.0,,,,,,,,,white,square
0.0,3.0,2.0,0.0,5.0,5.0,788.9565390069038,3.0,1.0,phase_2,go,500.0,600.0,1.0,,,,,,,,,cyan,circle
0.0,5.0,0.5,1.0,6.0,6.0,794.4255929905921,3.0,1.0,phase_2,go,500.0,600.0,1.0,,,,,,,,,orange,diamond
0.0,7.0,2.0,1.0,6.0,0.0,0.0,3.0,1.0,phase_2,stop,500.0,600.0,4.0,,,,,,,,,green,triangle
0.0,6.0,1.0,1.0,5.0,5.0,858.9532749901991,3.0,1.0,phase_2,go,500.0,650.0,1.0,,,,,,,,,white,square
0.0,1.0,0.5,0.0,5.0,5.0,744.7957959957421,3.0,1.0,phase_2,go,500.0,650.0,1.0,,,,,,,,,gray,I
0.0,3.0,2.0,0.0,6.0,6.0,1048.0067009921186,3.0,1.0,phase_2,go,500.0,650.0,1.0,,,,,,,,,cyan,circle
0.0,2.0,1.0,0.0,5.0,5.0,530.066123988945,3.0,1.0,phase_2,go,500.0,650.0,1.0,,,,,,,,,blue,cross
0.0,3.0,2.0,0.0,5.0,5.0,510.56965099996887,3.0,1.0,phase_2,go,500.0,650.0,1.0,,,,,,,,,cyan,circle
0.0,6.0,1.0,1.0,6.0,6.0,304.9428430094849,3.0,1.0,phase_2,go,500.0,650.0,1.0,,,,,,,,,white,square
0.0,4.0,4.0,0.0,5.0,5.0,351.0269739781506,3.0,1.0,phase_2,go,500.0,650.0,1.0,,,,,,,,,magenta,hexagon
0.0,6.0,1.0,1.0,6.0,6.0,300.5340280069504,3.0,1.0,phase_2,stop,500.0,650.0,3.0,,,,,,,,,white,square
0.0,7.0,2.0,1.0,6.0,6.0,395.7785580132622,3.0,1.0,phase_2,stop,500.0,600.0,3.0,,,,,,,,,green,triangle
0.0,1.0,0.5,0.0,6.0,6.0,595.5598559812643,3.0,1.0,phase_2,go,500.0,550.0,1.0,,,,,,,,,gray,I
0.0,8.0,4.0,1.0,6.0,6.0,613.5917369974777,3.0,1.0,phase_2,stop,500.0,550.0,3.0,,,,,,,,,yellow,flipped triangle
0.0,8.0,4.0,1.0,5.0,5.0,539.4032959884498,3.0,1.0,phase_2,stop,500.0,500.0,3.0,,,,,,,,,yellow,flipped triangle
0.0,3.0,2.0,0.0,6.0,0.0,0.0,3.0,1.0,phase_2,go,450.0,500.0,5.0,,,,,,,,,cyan,circle
0.0,3.0,2.0,0.0,6.0,6.0,473.5327360103838,3.0,1.0,phase_2,go,450.0,500.0,1.0,,,,,,,,,cyan,circle
0.0,5.0,0.5,1.0,5.0,5.0,432.4509020079858,3.0,1.0,phase_2,stop,450.0,500.0,3.0,,,,,,,,,orange,diamond
0.0,7.0,2.0,1.0,5.0,5.0,504.76808100938797,3.0,1.0,phase_2,stop,400.0,500.0,3.0,,,,,,,,,green,triangle
0.0,3.0,2.0,0.0,5.0,5.0,623.4601420001127,3.0,1.0,phase_2,go,350.0,500.0,1.0,,,,,,,,,cyan,circle
0.0,2.0,1.0,0.0,6.0,6.0,601.275708002504,3.0,1.0,phase_2,go,350.0,500.0,1.0,,,,,,,,,blue,cross
0.0,6.0,1.0,1.0,6.0,6.0,344.9252730060834,3.0,1.0,phase_2,stop,350.0,500.0,3.0,,,,,,,,,white,square
0.0,6.0,1.0,1.0,5.0,5.0,288.3156090101693,3.0,1.0,phase_2,go,350.0,450.0,1.0,,,,,,,,,white,square
0.0,6.0,1.0,1.0,5.0,5.0,304.1147280018776,3.0,1.0,phase_2,stop,350.0,450.0,3.0,,,,,,,,,white,square
0.0,4.0,4.0,0.0,6.0,6.0,392.5828040228225,3.0,1.0,phase_2,go,300.0,450.0,1.0,,,,,,,,,magenta,hexagon
0.0,1.0,0.5,0.0,6.0,6.0,461.398982006358,4.0,1.0,phase_2,go,300.0,450.0,1.0,,,,,,,,,gray,I
0.0,5.0,0.5,1.0,6.0,6.0,394.5009789895266,4.0,1.0,phase_2,stop,300.0,450.0,3.0,,,,,,,,,orange,diamond
0.0,8.0,4.0,1.0,6.0,6.0,425.7783729990478,4.0,1.0,phase_2,stop,300.0,400.0,3.0,,,,,,,,,yellow,flipped triangle
0.0,1.0,0.5,0.0,6.0,6.0,581.424440984847,4.0,1.0,phase_2,go,300.0,350.0,1.0,,,,,,,,,gray,I
0.0,7.0,2.0,1.0,5.0,5.0,426.9409849948715,4.0,1.0,phase_2,stop,300.0,350.0,3.0,,,,,,,,,green,triangle
0.0,6.0,1.0,1.0,5.0,5.0,360.6146679958328,4.0,1.0,phase_2,stop,250.0,350.0,3.0,,,,,,,,,white,square
0.0,5.0,0.5,1.0,5.0,5.0,319.6603030082769,4.0,1.0,phase_2,stop,200.0,350.0,3.0,,,,,,,,,orange,diamond
0.0,1.0,0.5,0.0,5.0,5.0,433.7047349836211,4.0,1.0,phase_2,go,150.0,350.0,1.0,,,,,,,,,gray,I
0.0,6.0,1.0,1.0,6.0,0.0,0.0,4.0,1.0,phase_2,stop,150.0,350.0,4.0,,,,,,,,,white,square
0.0,4.0,4.0,0.0,5.0,5.0,309.8454840073827,4.0,1.0,phase_2,go,150.0,400.0,1.0,,,,,,,,,magenta,hexagon
0.0,3.0,2.0,0.0,6.0,6.0,640.2220810123254,4.0,1.0,phase_2,go,150.0,400.0,1.0,,,,,,,,,cyan,circle
0.0,8.0,4.0,1.0,6.0,6.0,535.3407060028985,4.0,1.0,phase_2,go,150.0,400.0,1.0,,,,,,,,,yellow,flipped triangle
0.0,4.0,4.0,0.0,6.0,6.0,357.656667008996,4.0,1.0,phase_2,go,150.0,400.0,1.0,,,,,,,,,magenta,hexagon
0.0,2.0,1.0,0.0,5.0,5.0,503.4103420039173,4.0,1.0,phase_2,go,150.0,400.0,1.0,,,,,,,,,blue,cross
0.0,3.0,2.0,0.0,5.0,5.0,390.8131669741124,4.0,1.0,phase_2,go,150.0,400.0,1.0,,,,,,,,,cyan,circle
0.0,5.0,0.5,1.0,6.0,6.0,354.8744529834948,4.0,1.0,phase_2,stop,150.0,400.0,3.0,,,,,,,,,orange,diamond
0.0,3.0,2.0,0.0,5.0,5.0,532.3051729938015,4.0,1.0,phase_2,go,150.0,350.0,1.0,,,,,,,,,cyan,circle
0.0,4.0,4.0,0.0,6.0,6.0,325.7339459960349,4.0,1.0,phase_2,go,150.0,350.0,1.0,,,,,,,,,magenta,hexagon
0.0,6.0,1.0,1.0,5.0,5.0,292.0340650016442,4.0,1.0,phase_2,stop,150.0,350.0,3.0,,,,,,,,,white,square
0.0,2.0,1.0,0.0,5.0,5.0,459.3310539785307,4.0,1.0,phase_2,go,100.0,350.0,1.0,,,,,,,,,blue,cross
0.0,6.0,1.0,1.0,5.0,5.0,561.7562269908376,4.0,1.0,phase_2,go,100.0,350.0,1.0,,,,,,,,,white,square
0.0,6.0,1.0,1.0,5.0,0.0,0.0,4.0,1.0,phase_2,stop,100.0,350.0,4.0,,,,,,,,,white,square
0.0,5.0,0.5,1.0,5.0,0.0,0.0,4.0,1.0,phase_2,stop,150.0,350.0,4.0,,,,,,,,,orange,diamond
0.0,3.0,2.0,0.0,5.0,5.0,504.91599601809867,4.0,1.0,phase_2,go,200.0,350.0,1.0,,,,,,,,,cyan,circle
0.0,2.0,1.0,0.0,5.0,5.0,589.3403409863822,4.0,1.0,phase_2,go,200.0,350.0,1.0,,,,,,,,,blue,cross
0.0,4.0,4.0,0.0,5.0,5.0,495.1935249846428,4.0,1.0,phase_2,go,200.0,350.0,1.0,,,,,,,,,magenta,hexagon
0.0,1.0,0.5,0.0,6.0,6.0,524.3930160067976,4.0,1.0,phase_2,go,200.0,350.0,1.0,,,,,,,,,gray,I
0.0,5.0,0.5,1.0,5.0,5.0,296.3464579952415,4.0,1.0,phase_2,stop,200.0,350.0,3.0,,,,,,,,,orange,diamond
0.0,4.0,4.0,0.0,5.0,5.0,526.1401479947381,4.0,1.0,phase_2,go,150.0,350.0,1.0,,,,,,,,,magenta,hexagon
0.0,7.0,2.0,1.0,5.0,0.0,0.0,4.0,1.0,phase_2,stop,150.0,350.0,4.0,,,,,,,,,green,triangle
0.0,2.0,1.0,0.0,5.0,5.0,444.8698430205695,4.0,1.0,phase_2,go,200.0,350.0,1.0,,,,,,,,,blue,cross
0.0,7.0,2.0,1.0,6.0,6.0,468.6191089858766,4.0,1.0,phase_2,go,200.0,350.0,1.0,,,,,,,,,green,triangle
0.0,7.0,2.0,1.0,6.0,6.0,516.5582039917354,4.0,1.0,phase_2,go,200.0,350.0,1.0,,,,,,,,,green,triangle
0.0,4.0,4.0,0.0,5.0,5.0,313.6361369979568,4.0,1.0,phase_2,go,200.0,350.0,1.0,,,,,,,,,magenta,hexagon
0.0,8.0,4.0,1.0,6.0,6.0,464.0048840083182,4.0,1.0,phase_2,stop,200.0,350.0,3.0,,,,,,,,,yellow,flipped triangle
0.0,8.0,4.0,1.0,6.0,0.0,0.0,4.0,1.0,phase_2,stop,200.0,300.0,4.0,,,,,,,,,yellow,flipped triangle
0.0,7.0,2.0,1.0,5.0,5.0,534.3809009937104,5.0,1.0,phase_2,stop,200.0,350.0,3.0,,,,,,,,,green,triangle
0.0,1.0,0.5,0.0,5.0,5.0,612.8806740161963,5.0,1.0,phase_2,go,150.0,350.0,1.0,,,,,,,,,gray,I
0.0,1.0,0.5,0.0,5.0,5.0,584.4401650247164,5.0,1.0,phase_2,go,150.0,350.0,1.0,,,,,,,,,gray,I
0.0,3.0,2.0,0.0,5.0,5.0,436.3148169941269,5.0,1.0,phase_2,go,150.0,350.0,1.0,,,,,,,,,cyan,circle
0.0,5.0,0.5,1.0,6.0,6.0,511.20889498270117,5.0,1.0,phase_2,stop,150.0,350.0,3.0,,,,,,,,,orange,diamond
0.0,2.0,1.0,0.0,6.0,6.0,762.8455309895799,5.0,1.0,phase_2,go,150.0,300.0,1.0,,,,,,,,,blue,cross
0.0,6.0,1.0,1.0,5.0,5.0,522.1053510031197,5.0,1.0,phase_2,go,150.0,300.0,1.0,,,,,,,,,white,square
0.0,6.0,1.0,1.0,6.0,0.0,0.0,5.0,1.0,phase_2,stop,150.0,300.0,4.0,,,,,,,,,white,square
0.0,2.0,1.0,0.0,5.0,5.0,571.6241830086801,5.0,1.0,phase_2,go,150.0,350.0,1.0,,,,,,,,,blue,cross
0.0,5.0,0.5,1.0,5.0,0.0,0.0,5.0,1.0,phase_2,stop,150.0,350.0,4.0,,,,,,,,,orange,diamond
0.0,3.0,2.0,0.0,5.0,5.0,536.3912180182524,5.0,1.0,phase_2,go,200.0,350.0,1.0,,,,,,,,,cyan,circle
0.0,6.0,1.0,1.0,5.0,0.0,0.0,5.0,1.0,phase_2,stop,200.0,350.0,4.0,,,,,,,,,white,square
0.0,6.0,1.0,1.0,6.0,6.0,614.7414910083171,5.0,1.0,phase_2,go,250.0,350.0,1.0,,,,,,,,,white,square
0.0,1.0,0.5,0.0,6.0,6.0,409.4818700104952,5.0,1.0,phase_2,go,250.0,350.0,1.0,,,,,,,,,gray,I
0.0,3.0,2.0,0.0,6.0,6.0,456.7653370031621,5.0,1.0,phase_2,go,250.0,350.0,1.0,,,,,,,,,cyan,circle
0.0,5.0,0.5,1.0,5.0,5.0,686.5594069822691,5.0,1.0,phase_2,go,250.0,350.0,1.0,,,,,,,,,orange,diamond
0.0,6.0,1.0,1.0,5.0,0.0,0.0,5.0,1.0,phase_2,stop,250.0,350.0,4.0,,,,,,,,,white,square
0.0,4.0,4.0,0.0,6.0,6.0,507.9328439896926,5.0,1.0,phase_2,go,300.0,350.0,1.0,,,,,,,,,magenta,hexagon
0.0,5.0,0.5,1.0,5.0,0.0,0.0,5.0,1.0,phase_2,stop,300.0,350.0,4.0,,,,,,,,,orange,diamond
0.0,1.0,0.5,0.0,5.0,5.0,598.1160340015776,5.0,1.0,phase_2,go,350.0,350.0,1.0,,,,,,,,,gray,I
0.0,2.0,1.0,0.0,6.0,6.0,533.1017660209909,5.0,1.0,phase_2,go,350.0,350.0,1.0,,,,,,,,,blue,cross
0.0,7.0,2.0,1.0,5.0,0.0,0.0,5.0,1.0,phase_2,stop,350.0,350.0,4.0,,,,,,,,,green,triangle
0.0,2.0,1.0,0.0,5.0,5.0,490.9078989876434,5.0,1.0,phase_2,go,400.0,350.0,1.0,,,,,,,,,blue,cross
0.0,8.0,4.0,1.0,6.0,0.0,0.0,5.0,1.0,phase_2,stop,400.0,350.0,4.0,,,,,,,,,yellow,flipped triangle
0.0,2.0,1.0,0.0,6.0,6.0,474.0469149837736,5.0,1.0,phase_2,go,400.0,400.0,1.0,,,,,,,,,blue,cross
0.0,4.0,4.0,0.0,6.0,6.0,567.8795810090378,5.0,1.0,phase_2,go,400.0,400.0,1.0,,,,,,,,,magenta,hexagon
0.0,5.0,0.5,1.0,6.0,6.0,518.6686200031545,5.0,1.0,phase_2,stop,400.0,400.0,3.0,,,,,,,,,orange,diamond
0.0,7.0,2.0,1.0,6.0,6.0,607.1133840014227,5.0,1.0,phase_2,go,400.0,350.0,1.0,,,,,,,,,green,triangle
0.0,1.0,0.5,0.0,6.0,6.0,581.9949010037817,5.0,1.0,phase_2,go,400.0,350.0,1.0,,,,,,,,,gray,I
0.0,6.0,1.0,1.0,5.0,5.0,488.8508709846064,5.0,1.0,phase_2,stop,400.0,350.0,3.0,,,,,,,,,white,square
0.0,7.0,2.0,1.0,6.0,0.0,0.0,5.0,1.0,phase_2,stop,350.0,350.0,4.0,,,,,,,,,green,triangle
0.0,5.0,0.5,1.0,5.0,0.0,0.0,5.0,1.0,phase_2,stop,350.0,400.0,4.0,,,,,,,,,orange,diamond
0.0,4.0,4.0,0.0,6.0,6.0,479.6621509885881,5.0,1.0,phase_2,go,400.0,400.0,1.0,,,,,,,,,magenta,hexagon
0.0,3.0,2.0,0.0,6.0,6.0,475.0462119991425,5.0,1.0,phase_2,go,400.0,400.0,1.0,,,,,,,,,cyan,circle
0.0,2.0,1.0,0.0,6.0,6.0,490.7698839961085,5.0,1.0,phase_2,go,400.0,400.0,1.0,,,,,,,,,blue,cross
0.0,8.0,4.0,1.0,5.0,5.0,610.7838029856794,5.0,1.0,phase_2,go,400.0,400.0,1.0,,,,,,,,,yellow,flipped triangle
0.0,4.0,4.0,0.0,5.0,5.0,435.6623390049208,6.0,1.0,phase_2,go,400.0,400.0,1.0,,,,,,,,,magenta,hexagon
0.0,7.0,2.0,1.0,5.0,5.0,320.8988230035174,6.0,1.0,phase_2,stop,400.0,400.0,3.0,,,,,,,,,green,triangle
0.0,8.0,4.0,1.0,5.0,5.0,585.5801689904183,6.0,1.0,phase_2,go,350.0,400.0,1.0,,,,,,,,,yellow,flipped triangle
0.0,8.0,4.0,1.0,5.0,5.0,374.3152510141954,6.0,1.0,phase_2,stop,350.0,400.0,3.0,,,,,,,,,yellow,flipped triangle
0.0,5.0,0.5,1.0,6.0,6.0,497.9995809844695,6.0,1.0,phase_2,stop,300.0,400.0,3.0,,,,,,,,,orange,diamond
0.0,3.0,2.0,0.0,6.0,6.0,567.8220600239001,6.0,1.0,phase_2,go,300.0,350.0,1.0,,,,,,,,,cyan,circle
0.0,1.0,0.5,0.0,5.0,5.0,589.1973370162304,6.0,1.0,phase_2,go,300.0,350.0,1.0,,,,,,,,,gray,I
0.0,6.0,1.0,1.0,6.0,6.0,375.0974379945546,6.0,1.0,phase_2,stop,300.0,350.0,3.0,,,,,,,,,white,square
0.0,3.0,2.0,0.0,6.0,6.0,613.3324919792358,6.0,1.0,phase_2,go,300.0,300.0,1.0,,,,,,,,,cyan,circle
0.0,8.0,4.0,1.0,5.0,0.0,0.0,6.0,1.0,phase_2,stop,300.0,300.0,4.0,,,,,,,,,yellow,flipped triangle
0.0,3.0,2.0,0.0,5.0,5.0,564.979268994648,6.0,1.0,phase_2,go,350.0,300.0,1.0,,,,,,,,,cyan,circle
0.0,8.0,4.0,1.0,6.0,0.0,0.0,6.0,1.0,phase_2,stop,350.0,300.0,4.0,,,,,,,,,yellow,flipped triangle
0.0,2.0,1.0,0.0,5.0,5.0,507.0760810049251,6.0,1.0,phase_2,go,350.0,350.0,1.0,,,,,,,,,blue,cross
0.0,2.0,1.0,0.0,6.0,6.0,617.9125780181494,6.0,1.0,phase_2,go,350.0,350.0,1.0,,,,,,,,,blue,cross
0.0,7.0,2.0,1.0,5.0,5.0,507.66438801656477,6.0,1.0,phase_2,go,350.0,350.0,1.0,,,,,,,,,green,triangle
0.0,7.0,2.0,1.0,5.0,5.0,512.6771639916115,6.0,1.0,phase_2,stop,350.0,350.0,3.0,,,,,,,,,green,triangle
0.0,5.0,0.5,1.0,5.0,0.0,0.0,6.0,1.0,phase_2,stop,300.0,350.0,4.0,,,,,,,,,orange,diamond
0.0,1.0,0.5,0.0,5.0,5.0,537.8936690103728,6.0,1.0,phase_2,go,350.0,350.0,1.0,,,,,,,,,gray,I
0.0,7.0,2.0,1.0,6.0,0.0,0.0,6.0,1.0,phase_2,stop,350.0,350.0,4.0,,,,,,,,,green,triangle
0.0,3.0,2.0,0.0,6.0,6.0,641.456687997561,6.0,1.0,phase_2,go,350.0,400.0,1.0,,,,,,,,,cyan,circle
0.0,6.0,1.0,1.0,5.0,5.0,759.9918920022901,6.0,1.0,phase_2,stop,350.0,400.0,3.0,,,,,,,,,white,square
0.0,1.0,0.5,0.0,5.0,5.0,551.3340120087378,6.0,1.0,phase_2,go,300.0,400.0,1.0,,,,,,,,,gray,I
0.0,1.0,0.5,0.0,5.0,5.0,711.7654249886982,6.0,1.0,phase_2,go,300.0,400.0,1.0,,,,,,,,,gray,I
0.0,1.0,0.5,0.0,6.0,6.0,567.5346700008959,6.0,1.0,phase_2,go,300.0,400.0,1.0,,,,,,,,,gray,I
0.0,8.0,4.0,1.0,6.0,6.0,507.99084300524555,6.0,1.0,phase_2,stop,300.0,400.0,3.0,,,,,,,,,yellow,flipped triangle
0.0,5.0,0.5,1.0,6.0,0.0,0.0,6.0,1.0,phase_2,stop,300.0,350.0,4.0,,,,,,,,,orange,diamond
0.0,5.0,0.5,1.0,6.0,6.0,717.3668070172425,6.0,1.0,phase_2,go,300.0,400.0,1.0,,,,,,,,,orange,diamond
0.0,6.0,1.0,1.0,6.0,0.0,0.0,6.0,1.0,phase_2,stop,300.0,400.0,4.0,,,,,,,,,white,square
0.0,7.0,2.0,1.0,5.0,5.0,995.2648740145378,6.0,1.0,phase_2,stop,300.0,450.0,3.0,,,,,,,,,green,triangle
0.0,2.0,1.0,0.0,5.0,5.0,603.9608000137378,6.0,1.0,phase_2,go,250.0,450.0,1.0,,,,,,,,,blue,cross
0.0,8.0,4.0,1.0,5.0,0.0,0.0,6.0,1.0,phase_2,stop,250.0,450.0,4.0,,,,,,,,,yellow,flipped triangle
0.0,3.0,2.0,0.0,6.0,6.0,711.881873983657,6.0,1.0,phase_2,go,300.0,450.0,1.0,,,,,,,,,cyan,circle
0.0,4.0,4.0,0.0,6.0,6.0,506.21190399397165,6.0,1.0,phase_2,go,300.0,450.0,1.0,,,,,,,,,magenta,hexagon
0.0,4.0,4.0,0.0,6.0,6.0,433.2775879884138,6.0,1.0,phase_2,go,300.0,450.0,1.0,,,,,,,,,magenta,hexagon
0.0,4.0,4.0,0.0,6.0,6.0,479.5087539823726,6.0,1.0,phase_2,go,300.0,450.0,1.0,,,,,,,,,magenta,hexagon
0.0,3.0,2.0,0.0,6.0,6.0,488.0798090016469,6.0,1.0,phase_2,go,300.0,450.0,1.0,,,,,,,,,cyan,circle
0.0,1.0,0.5,0.0,6.0,6.0,425.1129650219809,7.0,1.0,phase_2,go,300.0,450.0,1.0,,,,,,,,,gray,I
0.0,5.0,0.5,1.0,6.0,6.0,544.4546509825159,7.0,1.0,phase_2,stop,300.0,450.0,3.0,,,,,,,,,orange,diamond
0.0,1.0,0.5,0.0,5.0,5.0,536.1903010052629,7.0,1.0,phase_2,go,300.0,400.0,1.0,,,,,,,,,gray,I
0.0,7.0,2.0,1.0,6.0,0.0,0.0,7.0,1.0,phase_2,stop,300.0,400.0,4.0,,,,,,,,,green,triangle
0.0,8.0,4.0,1.0,6.0,6.0,583.4736510005314,7.0,1.0,phase_2,go,300.0,450.0,1.0,,,,,,,,,yellow,flipped triangle
0.0,3.0,2.0,0.0,6.0,6.0,581.1857910011895,7.0,1.0,phase_2,go,300.0,450.0,1.0,,,,,,,,,cyan,circle
0.0,8.0,4.0,1.0,6.0,6.0,373.8961589988321,7.0,1.0,phase_2,stop,300.0,450.0,3.0,,,,,,,,,yellow,flipped triangle
0.0,5.0,0.5,1.0,6.0,0.0,0.0,7.0,1.0,phase_2,stop,300.0,400.0,4.0,,,,,,,,,orange,diamond
0.0,4.0,4.0,0.0,5.0,5.0,532.6768569939304,7.0,1.0,phase_2,go,300.0,450.0,1.0,,,,,,,,,magenta,hexagon
0.0,6.0,1.0,1.0,6.0,0.0,0.0,7.0,1.0,phase_2,stop,300.0,450.0,4.0,,,,,,,,,white,square
0.0,1.0,0.5,0.0,6.0,6.0,676.2513729918282,7.0,1.0,phase_2,go,300.0,500.0,1.0,,,,,,,,,gray,I
0.0,3.0,2.0,0.0,5.0,5.0,547.3233429947868,7.0,1.0,phase_2,go,300.0,500.0,1.0,,,,,,,,,cyan,circle
0.0,7.0,2.0,1.0,6.0,6.0,650.454512971919,7.0,1.0,phase_2,go,300.0,500.0,1.0,,,,,,,,,green,triangle
0.0,5.0,0.5,1.0,6.0,6.0,579.5506309950724,7.0,1.0,phase_2,go,300.0,500.0,1.0,,,,,,,,,orange,diamond
0.0,2.0,1.0,0.0,6.0,6.0,440.0299270055257,7.0,1.0,phase_2,go,300.0,500.0,1.0,,,,,,,,,blue,cross
0.0,1.0,0.5,0.0,6.0,6.0,593.4679990168661,7.0,1.0,phase_2,go,300.0,500.0,1.0,,,,,,,,,gray,I
0.0,7.0,2.0,1.0,5.0,5.0,455.4854230082128,7.0,1.0,phase_2,stop,300.0,500.0,3.0,,,,,,,,,green,triangle
0.0,5.0,0.5,1.0,5.0,0.0,0.0,7.0,1.0,phase_2,stop,250.0,500.0,4.0,,,,,,,,,orange,diamond
0.0,3.0,2.0,0.0,6.0,6.0,469.6710020070895,7.0,1.0,phase_2,go,300.0,500.0,1.0,,,,,,,,,cyan,circle
0.0,8.0,4.0,1.0,5.0,5.0,559.0863509860355,7.0,1.0,phase_2,go,300.0,500.0,1.0,,,,,,,,,yellow,flipped triangle
0.0,4.0,4.0,0.0,5.0,5.0,509.5143469807226,7.0,1.0,phase_2,go,300.0,500.0,1.0,,,,,,,,,magenta,hexagon
0.0,5.0,0.5,1.0,5.0,5.0,420.2180569991469,7.0,1.0,phase_2,go,300.0,500.0,1.0,,,,,,,,,orange,diamond
0.0,2.0,1.0,0.0,6.0,6.0,429.0747400082182,7.0,1.0,phase_2,go,300.0,500.0,1.0,,,,,,,,,blue,cross
0.0,8.0,4.0,1.0,6.0,6.0,468.9098450180609,7.0,1.0,phase_2,go,300.0,500.0,1.0,,,,,,,,,yellow,flipped triangle
0.0,1.0,0.5,0.0,5.0,5.0,369.9973789916839,7.0,1.0,phase_2,go,300.0,500.0,1.0,,,,,,,,,gray,I
0.0,7.0,2.0,1.0,5.0,5.0,380.6757070124149,7.0,1.0,phase_2,stop,300.0,500.0,3.0,,,,,,,,,green,triangle
0.0,5.0,0.5,1.0,6.0,6.0,498.2012420077808,7.0,1.0,phase_2,go,250.0,500.0,1.0,,,,,,,,,orange,diamond
0.0,7.0,2.0,1.0,6.0,6.0,539.3538499774877,7.0,1.0,phase_2,stop,250.0,500.0,3.0,,,,,,,,,green,triangle
0.0,8.0,4.0,1.0,6.0,6.0,608.838077983819,7.0,1.0,phase_2,go,250.0,450.0,1.0,,,,,,,,,yellow,flipped triangle
0.0,8.0,4.0,1.0,5.0,0.0,0.0,7.0,1.0,phase_2,stop,250.0,450.0,4.0,,,,,,,,,yellow,flipped triangle
0.0,6.0,1.0,1.0,6.0,6.0,447.3661049851216,7.0,1.0,phase_2,stop,300.0,450.0,3.0,,,,,,,,,white,square
0.0,8.0,4.0,1.0,5.0,5.0,541.9666139932815,7.0,1.0,phase_2,go,300.0,400.0,1.0,,,,,,,,,yellow,flipped triangle
0.0,5.0,0.5,1.0,6.0,0.0,0.0,7.0,1.0,phase_2,stop,300.0,400.0,4.0,,,,,,,,,orange,diamond
0.0,4.0,4.0,0.0,5.0,5.0,600.3513129835483,7.0,1.0,phase_2,go,300.0,450.0,1.0,,,,,,,,,magenta,hexagon
0.0,6.0,1.0,1.0,5.0,0.0,0.0,7.0,1.0,phase_2,stop,300.0,450.0,4.0,,,,,,,,,white,square
0.0,6.0,1.0,1.0,6.0,0.0,0.0,7.0,1.0,phase_2,stop,350.0,450.0,4.0,,,,,,,,,white,square
0.0,5.0,0.5,1.0,5.0,5.0,439.2959609976969,8.0,1.0,phase_2,go,350.0,500.0,1.0,,,,,,,,,orange,diamond
0.0,8.0,4.0,1.0,5.0,5.0,383.0784680030774,8.0,1.0,phase_2,stop,350.0,500.0,3.0,,,,,,,,,yellow,flipped triangle
0.0,8.0,4.0,1.0,5.0,0.0,0.0,8.0,1.0,phase_2,stop,300.0,500.0,4.0,,,,,,,,,yellow,flipped triangle
0.0,2.0,1.0,0.0,6.0,6.0,566.1121709854342,8.0,1.0,phase_2,go,350.0,500.0,1.0,,,,,,,,,blue,cross
0.0,7.0,2.0,1.0,5.0,5.0,598.0876180110499,8.0,1.0,phase_2,go,350.0,500.0,1.0,,,,,,,,,green,triangle
0.0,4.0,4.0,0.0,6.0,6.0,637.310913996771,8.0,1.0,phase_2,go,350.0,500.0,1.0,,,,,,,,,magenta,hexagon
0.0,2.0,1.0,0.0,6.0,6.0,555.9984819847159,8.0,1.0,phase_2,go,350.0,500.0,1.0,,,,,,,,,blue,cross
0.0,5.0,0.5,1.0,6.0,6.0,528.8271839963272,8.0,1.0,phase_2,stop,350.0,500.0,3.0,,,,,,,,,orange,diamond
0.0,2.0,1.0,0.0,6.0,6.0,488.2044759870041,8.0,1.0,phase_2,go,350.0,450.0,1.0,,,,,,,,,blue,cross
0.0,8.0,4.0,1.0,6.0,6.0,522.5027759734076,8.0,1.0,phase_2,stop,350.0,450.0,3.0,,,,,,,,,yellow,flipped triangle
0.0,2.0,1.0,0.0,5.0,5.0,553.7876930029597,8.0,1.0,phase_2,go,350.0,400.0,1.0,,,,,,,,,blue,cross
0.0,2.0,1.0,0.0,5.0,5.0,589.8569869750645,8.0,1.0,phase_2,go,350.0,400.0,1.0,,,,,,,,,blue,cross
0.0,1.0,0.5,0.0,6.0,6.0,461.5285589825362,8.0,1.0,phase_2,go,350.0,400.0,1.0,,,,,,,,,gray,I
0.0,6.0,1.0,1.0,6.0,6.0,422.9179150133859,8.0,1.0,phase_2,stop,350.0,400.0,3.0,,,,,,,,,white,square
0.0,7.0,2.0,1.0,6.0,0.0,0.0,8.0,1.0,phase_2,stop,350.0,350.0,4.0,,,,,,,,,green,triangle
0.0,4.0,4.0,0.0,6.0,6.0,589.2391079978552,8.0,1.0,phase_2,go,350.0,400.0,1.0,,,,,,,,,magenta,hexagon
0.0,2.0,1.0,0.0,6.0,6.0,613.5795520094689,8.0,1.0,phase_2,go,350.0,400.0,1.0,,,,,,,,,blue,cross
0.0,7.0,2.0,1.0,5.0,0.0,0.0,8.0,1.0,phase_2,stop,350.0,400.0,4.0,,,,,,,,,green,triangle
0.0,8.0,4.0,1.0,6.0,0.0,0.0,8.0,1.0,phase_2,stop,400.0,400.0,4.0,,,,,,,,,yellow,flipped triangle
0.0,3.0,2.0,0.0,5.0,5.0,563.799305993598,8.0,1.0,phase_2,go,400.0,450.0,1.0,,,,,,,,,cyan,circle
0.0,5.0,0.5,1.0,6.0,0.0,0.0,8.0,1.0,phase_2,stop,400.0,450.0,4.0,,,,,,,,,orange,diamond
0.0,3.0,2.0,0.0,5.0,5.0,635.2633349888492,8.0,1.0,phase_2,go,400.0,500.0,1.0,,,,,,,,,cyan,circle
0.0,4.0,4.0,0.0,6.0,6.0,619.1104039899074,8.0,1.0,phase_2,go,400.0,500.0,1.0,,,,,,,,,magenta,hexagon
0.0,2.0,1.0,0.0,6.0,6.0,592.4880309903529,8.0,1.0,phase_2,go,400.0,500.0,1.0,,,,,,,,,blue,cross
0.0,4.0,4.0,0.0,5.0,5.0,433.8563930068631,8.0,1.0,phase_2,go,400.0,500.0,1.0,,,,,,,,,magenta,hexagon
0.0,8.0,4.0,1.0,5.0,0.0,0.0,8.0,1.0,phase_2,stop,400.0,500.0,4.0,,,,,,,,,yellow,flipped triangle
0.0,3.0,2.0,0.0,6.0,6.0,647.0965339976829,8.0,1.0,phase_2,go,450.0,500.0,1.0,,,,,,,,,cyan,circle
0.0,2.0,1.0,0.0,5.0,5.0,487.4210680136457,8.0,1.0,phase_2,go,450.0,500.0,1.0,,,,,,,,,blue,cross
0.0,5.0,0.5,1.0,6.0,6.0,521.3747929956298,8.0,1.0,phase_2,stop,450.0,500.0,3.0,,,,,,,,,orange,diamond
0.0,1.0,0.5,0.0,5.0,5.0,478.98880601860577,8.0,1.0,phase_2,go,450.0,450.0,1.0,,,,,,,,,gray,I
0.0,4.0,4.0,0.0,5.0,5.0,711.2751460226718,8.0,1.0,phase_2,go,450.0,450.0,1.0,,,,,,,,,magenta,hexagon
0.0,4.0,4.0,0.0,5.0,5.0,350.9096720081288,8.0,1.0,phase_2,go,450.0,450.0,1.0,,,,,,,,,magenta,hexagon
0.0,8.0,4.0,1.0,5.0,5.0,422.5742369890213,8.0,1.0,phase_2,go,450.0,450.0,1.0,,,,,,,,,yellow,flipped triangle
0.0,4.0,4.0,0.0,6.0,6.0,549.8701320029795,8.0,1.0,phase_2,go,450.0,450.0,1.0,,,,,,,,,magenta,hexagon
0.0,4.0,4.0,0.0,6.0,6.0,379.9730580067262,8.0,1.0,phase_2,go,450.0,450.0,1.0,,,,,,,,,magenta,hexagon
0.0,2.0,1.0,0.0,6.0,6.0,339.4057289988268,8.0,1.0,phase_2,go,450.0,450.0,1.0,,,,,,,,,blue,cross
0.0,6.0,1.0,1.0,7.0,1.0,1016.8503599998076,1.0,2.0,phase_3,,,,,44.0,1.0,44.0,132.0,264.0,88.0,176.0,220.0,white,square
0.0,6.0,1.0,1.0,7.0,4.0,1945.2042240009175,1.0,1.0,phase_3,,,,,39.0,1.0,156.0,195.0,78.0,39.0,234.0,117.0,white,square
0.0,2.0,1.0,0.0,7.0,6.0,1580.4668570053764,1.0,1.0,phase_3,,,,,195.0,5.0,234.0,39.0,78.0,117.0,156.0,195.0,blue,cross
0.0,6.0,1.0,1.0,7.0,2.0,1331.120924995048,1.0,1.0,phase_3,,,,,324.0,6.0,162.0,324.0,108.0,270.0,216.0,54.0,white,square
0.0,4.0,4.0,0.0,7.0,5.0,3398.8423380069435,1.0,1.0,phase_3,,,,,324.0,6.0,216.0,162.0,54.0,108.0,324.0,270.0,magenta,hexagon
0.0,4.0,4.0,0.0,7.0,6.0,1817.6686549850276,1.0,1.0,phase_3,,,,,234.0,6.0,78.0,39.0,195.0,156.0,117.0,234.0,magenta,hexagon
0.0,7.0,2.0,1.0,7.0,1.0,2399.550251022447,1.0,1.0,phase_3,,,,,117.0,3.0,117.0,78.0,156.0,39.0,195.0,234.0,green,triangle
0.0,5.0,0.5,1.0,7.0,5.0,2498.8833859970327,1.0,1.0,phase_3,,,,,196.0,4.0,245.0,294.0,147.0,49.0,196.0,98.0,orange,diamond
0.0,7.0,2.0,1.0,7.0,2.0,2437.658032984473,1.0,1.0,phase_3,,,,,132.0,3.0,176.0,132.0,264.0,88.0,44.0,220.0,green,triangle
0.0,2.0,1.0,0.0,7.0,5.0,1565.7493929902555,1.0,1.0,phase_3,,,,,108.0,2.0,216.0,54.0,162.0,270.0,108.0,324.0,blue,cross
0.0,5.0,0.5,1.0,7.0,1.0,871.7565400002059,1.0,1.0,phase_3,,,,,68.0,2.0,68.0,102.0,34.0,204.0,170.0,136.0,orange,diamond
0.0,5.0,0.5,1.0,7.0,2.0,2159.786248987075,1.0,1.0,phase_3,,,,,270.0,5.0,108.0,270.0,54.0,216.0,162.0,324.0,orange,diamond
0.0,1.0,0.5,0.0,7.0,2.0,2657.046582986368,1.0,1.0,phase_3,,,,,108.0,2.0,324.0,108.0,162.0,54.0,270.0,216.0,gray,I
0.0,1.0,0.5,0.0,7.0,1.0,1644.5224329945631,1.0,1.0,phase_3,,,,,44.0,1.0,44.0,176.0,264.0,220.0,132.0,88.0,gray,I
0.0,4.0,4.0,0.0,7.0,1.0,3674.351452995325,1.0,1.0,phase_3,,,,,264.0,6.0,264.0,220.0,44.0,132.0,176.0,88.0,magenta,hexagon
0.0,2.0,1.0,0.0,7.0,6.0,1422.7069730113726,1.0,1.0,phase_3,,,,,49.0,1.0,147.0,98.0,196.0,245.0,294.0,49.0,blue,cross
0.0,8.0,4.0,1.0,7.0,5.0,3310.4225159913767,1.0,1.0,phase_3,,,,,204.0,6.0,170.0,102.0,136.0,34.0,204.0,68.0,yellow,flipped triangle
0.0,8.0,4.0,1.0,7.0,5.0,783.6050070181955,1.0,1.0,phase_3,,,,,270.0,5.0,54.0,162.0,108.0,216.0,270.0,324.0,yellow,flipped triangle
0.0,2.0,1.0,0.0,7.0,2.0,1713.9856730063912,1.0,1.0,phase_3,,,,,132.0,3.0,220.0,132.0,176.0,44.0,88.0,264.0,blue,cross
0.0,4.0,4.0,0.0,7.0,4.0,1705.6490870018024,1.0,1.0,phase_3,,,,,54.0,1.0,216.0,162.0,324.0,54.0,108.0,270.0,magenta,hexagon
0.0,7.0,2.0,1.0,7.0,5.0,1862.2997989878056,2.0,1.0,phase_3,,,,,245.0,5.0,294.0,49.0,196.0,98.0,245.0,147.0,green,triangle
0.0,7.0,2.0,1.0,7.0,5.0,1935.0475700048264,2.0,1.0,phase_3,,,,,195.0,5.0,156.0,39.0,234.0,117.0,195.0,78.0,green,triangle
0.0,5.0,0.5,1.0,7.0,2.0,3139.409566007089,2.0,1.0,phase_3,,,,,156.0,4.0,117.0,156.0,78.0,39.0,234.0,195.0,orange,diamond
0.0,2.0,1.0,0.0,7.0,3.0,3169.657830003416,2.0,1.0,phase_3,,,,,34.0,1.0,136.0,102.0,34.0,170.0,68.0,204.0,blue,cross
0.0,2.0,1.0,0.0,7.0,2.0,1709.231599990744,2.0,1.0,phase_3,,,,,88.0,2.0,264.0,88.0,132.0,176.0,220.0,44.0,blue,cross
0.0,8.0,4.0,1.0,7.0,6.0,1995.952261990169,2.0,1.0,phase_3,,,,,294.0,6.0,196.0,49.0,98.0,245.0,147.0,294.0,yellow,flipped triangle
0.0,3.0,2.0,0.0,7.0,2.0,3094.544125982793,2.0,1.0,phase_3,,,,,102.0,3.0,34.0,102.0,204.0,136.0,170.0,68.0,cyan,circle
0.0,3.0,2.0,0.0,7.0,5.0,2594.128735014237,2.0,1.0,phase_3,,,,,108.0,2.0,54.0,324.0,162.0,216.0,108.0,270.0,cyan,circle
0.0,1.0,0.5,0.0,7.0,2.0,2795.2634139801376,2.0,1.0,phase_3,,,,,234.0,6.0,78.0,234.0,156.0,39.0,195.0,117.0,gray,I
0.0,7.0,2.0,1.0,7.0,6.0,2691.632978996495,2.0,1.0,phase_3,,,,,220.0,5.0,44.0,264.0,132.0,176.0,88.0,220.0,green,triangle
0.0,4.0,4.0,0.0,7.0,1.0,2022.2962129919324,2.0,1.0,phase_3,,,,,49.0,1.0,49.0,98.0,245.0,147.0,294.0,196.0,magenta,hexagon
0.0,6.0,1.0,1.0,7.0,2.0,2886.351592984284,2.0,1.0,phase_3,,,,,294.0,6.0,147.0,294.0,196.0,98.0,245.0,49.0,white,square
0.0,3.0,2.0,0.0,7.0,6.0,2409.0885400073603,2.0,1.0,phase_3,,,,,294.0,6.0,196.0,49.0,147.0,245.0,98.0,294.0,cyan,circle
0.0,7.0,2.0,1.0,7.0,4.0,2792.844668001635,2.0,1.0,phase_3,,,,,216.0,4.0,54.0,162.0,270.0,216.0,108.0,324.0,green,triangle
0.0,3.0,2.0,0.0,7.0,2.0,2211.9386900158133,2.0,1.0,phase_3,,,,,234.0,6.0,39.0,234.0,156.0,78.0,117.0,195.0,cyan,circle
0.0,7.0,2.0,1.0,7.0,2.0,3314.3328910227865,2.0,1.0,phase_3,,,,,147.0,3.0,98.0,147.0,294.0,49.0,196.0,245.0,green,triangle
0.0,5.0,0.5,1.0,7.0,2.0,2723.550818976946,2.0,1.0,phase_3,,,,,34.0,1.0,102.0,34.0,204.0,136.0,68.0,170.0,orange,diamond
0.0,1.0,0.5,0.0,7.0,5.0,2204.6822960255668,2.0,1.0,phase_3,,,,,54.0,1.0,216.0,324.0,162.0,270.0,54.0,108.0,gray,I
0.0,7.0,2.0,1.0,7.0,2.0,2632.039470016025,2.0,1.0,phase_3,,,,,136.0,4.0,68.0,136.0,204.0,170.0,102.0,34.0,green,triangle
0.0,2.0,1.0,0.0,7.0,4.0,1650.0931910122745,2.0,1.0,phase_3,,,,,54.0,1.0,108.0,324.0,216.0,54.0,162.0,270.0,blue,cross
0.0,5.0,0.5,1.0,7.0,2.0,3927.870602987241,3.0,1.0,phase_3,,,,,147.0,3.0,49.0,147.0,98.0,245.0,196.0,294.0,orange,diamond
0.0,5.0,0.5,1.0,7.0,2.0,1412.7090520050842,3.0,1.0,phase_3,,,,,132.0,3.0,264.0,132.0,88.0,176.0,44.0,220.0,orange,diamond
0.0,6.0,1.0,1.0,7.0,6.0,1190.601320005953,3.0,1.0,phase_3,,,,,324.0,6.0,216.0,54.0,270.0,162.0,108.0,324.0,white,square
0.0,4.0,4.0,0.0,7.0,4.0,2533.660720015177,3.0,1.0,phase_3,,,,,245.0,5.0,147.0,98.0,294.0,245.0,196.0,49.0,magenta,hexagon
0.0,7.0,2.0,1.0,7.0,3.0,3094.0666440001223,3.0,1.0,phase_3,,,,,324.0,6.0,108.0,54.0,324.0,216.0,162.0,270.0,green,triangle
0.0,5.0,0.5,1.0,7.0,2.0,4449.936179997167,3.0,1.0,phase_3,,,,,108.0,2.0,162.0,108.0,54.0,270.0,216.0,324.0,orange,diamond
0.0,3.0,2.0,0.0,7.0,3.0,1901.349246996688,3.0,1.0,phase_3,,,,,264.0,6.0,44.0,88.0,264.0,176.0,220.0,132.0,cyan,circle
0.0,6.0,1.0,1.0,7.0,1.0,2911.8200590019114,3.0,1.0,phase_3,,,,,234.0,6.0,234.0,156.0,78.0,195.0,39.0,117.0,white,square
0.0,4.0,4.0,0.0,7.0,6.0,3701.941431005253,3.0,1.0,phase_3,,,,,136.0,4.0,102.0,68.0,204.0,170.0,34.0,136.0,magenta,hexagon
0.0,8.0,4.0,1.0,7.0,5.0,3785.574781009928,3.0,1.0,phase_3,,,,,98.0,2.0,294.0,147.0,196.0,245.0,98.0,49.0,yellow,flipped triangle
0.0,8.0,4.0,1.0,7.0,6.0,2259.9189920001663,3.0,1.0,phase_3,,,,,88.0,2.0,220.0,264.0,176.0,44.0,132.0,88.0,yellow,flipped triangle
0.0,2.0,1.0,0.0,7.0,5.0,2618.3311970089558,3.0,1.0,phase_3,,,,,117.0,3.0,39.0,195.0,78.0,234.0,117.0,156.0,blue,cross
0.0,8.0,4.0,1.0,7.0,6.0,1740.5400089919567,3.0,1.0,phase_3,,,,,39.0,1.0,234.0,195.0,117.0,156.0,78.0,39.0,yellow,flipped triangle
0.0,8.0,4.0,1.0,7.0,4.0,1407.8202999953646,3.0,1.0,phase_3,,,,,34.0,1.0,102.0,204.0,136.0,34.0,68.0,170.0,yellow,flipped triangle
0.0,8.0,4.0,1.0,7.0,4.0,1930.270473996643,3.0,1.0,phase_3,,,,,132.0,3.0,176.0,44.0,220.0,132.0,264.0,88.0,yellow,flipped triangle
0.0,8.0,4.0,1.0,7.0,3.0,1904.711256007431,3.0,1.0,phase_3,,,,,39.0,1.0,234.0,78.0,39.0,156.0,195.0,117.0,yellow,flipped triangle
0.0,3.0,2.0,0.0,7.0,3.0,1731.1116570199374,3.0,1.0,phase_3,,,,,264.0,6.0,132.0,176.0,264.0,88.0,44.0,220.0,cyan,circle
0.0,3.0,2.0,0.0,7.0,6.0,2517.890796996653,3.0,1.0,phase_3,,,,,234.0,6.0,195.0,156.0,117.0,39.0,78.0,234.0,cyan,circle
0.0,6.0,1.0,1.0,7.0,5.0,1989.1671369841788,3.0,1.0,phase_3,,,,,245.0,5.0,147.0,49.0,98.0,196.0,245.0,294.0,white,square
0.0,6.0,1.0,1.0,7.0,4.0,3424.5914310158696,3.0,1.0,phase_3,,,,,264.0,6.0,132.0,176.0,220.0,264.0,44.0,88.0,white,square
0.0,1.0,0.5,0.0,7.0,1.0,3882.058410003083,4.0,1.0,phase_3,,,,,88.0,2.0,88.0,132.0,44.0,220.0,264.0,176.0,gray,I
0.0,8.0,4.0,1.0,7.0,1.0,2165.6207390187774,4.0,1.0,phase_3,,,,,54.0,1.0,54.0,324.0,162.0,270.0,216.0,108.0,yellow,flipped triangle
0.0,7.0,2.0,1.0,7.0,2.0,3336.473514995305,4.0,1.0,phase_3,,,,,170.0,5.0,102.0,170.0,68.0,136.0,34.0,204.0,green,triangle
0.0,6.0,1.0,1.0,7.0,3.0,2296.659180981805,4.0,1.0,phase_3,,,,,204.0,6.0,102.0,68.0,204.0,136.0,170.0,34.0,white,square
0.0,1.0,0.5,0.0,7.0,4.0,2962.434108980233,4.0,1.0,phase_3,,,,,98.0,2.0,294.0,147.0,245.0,98.0,49.0,196.0,gray,I
0.0,3.0,2.0,0.0,7.0,1.0,1738.4070359985344,4.0,1.0,phase_3,,,,,204.0,6.0,204.0,136.0,170.0,68.0,34.0,102.0,cyan,circle
0.0,5.0,0.5,1.0,7.0,3.0,2596.6512380109634,4.0,1.0,phase_3,,,,,156.0,4.0,78.0,234.0,156.0,195.0,117.0,39.0,orange,diamond
0.0,5.0,0.5,1.0,7.0,3.0,4845.415702002356,4.0,1.0,phase_3,,,,,176.0,4.0,132.0,220.0,176.0,44.0,88.0,264.0,orange,diamond
0.0,2.0,1.0,0.0,7.0,1.0,2992.4951999855693,4.0,1.0,phase_3,,,,,102.0,3.0,102.0,68.0,136.0,34.0,170.0,204.0,blue,cross
0.0,3.0,2.0,0.0,7.0,3.0,2553.7770740047563,4.0,1.0,phase_3,,,,,270.0,5.0,324.0,54.0,270.0,216.0,108.0,162.0,cyan,circle
0.0,6.0,1.0,1.0,7.0,1.0,1989.6943460043983,4.0,1.0,phase_3,,,,,204.0,6.0,204.0,102.0,136.0,170.0,68.0,34.0,white,square
0.0,1.0,0.5,0.0,7.0,6.0,4468.482572003268,4.0,1.0,phase_3,,,,,98.0,2.0,147.0,196.0,49.0,294.0,245.0,98.0,gray,I
0.0,4.0,4.0,0.0,7.0,2.0,3113.5015799955,4.0,1.0,phase_3,,,,,132.0,3.0,88.0,132.0,264.0,176.0,220.0,44.0,magenta,hexagon
0.0,3.0,2.0,0.0,7.0,5.0,3619.217825995293,4.0,1.0,phase_3,,,,,245.0,5.0,147.0,98.0,294.0,196.0,245.0,49.0,cyan,circle
0.0,1.0,0.5,0.0,7.0,3.0,4882.315652997932,4.0,1.0,phase_3,,,,,78.0,2.0,234.0,156.0,78.0,39.0,195.0,117.0,gray,I
0.0,4.0,4.0,0.0,7.0,4.0,4069.482251012232,4.0,1.0,phase_3,,,,,117.0,3.0,78.0,39.0,156.0,117.0,195.0,234.0,magenta,hexagon
0.0,2.0,1.0,0.0,7.0,2.0,3724.095001991373,4.0,1.0,phase_3,,,,,98.0,2.0,147.0,98.0,49.0,196.0,294.0,245.0,blue,cross
0.0,1.0,0.5,0.0,7.0,5.0,3533.468222012744,4.0,1.0,phase_3,,,,,102.0,3.0,136.0,68.0,170.0,204.0,102.0,34.0,gray,I
0.0,4.0,4.0,0.0,7.0,4.0,2875.750095001422,4.0,1.0,phase_3,,,,,102.0,3.0,204.0,170.0,136.0,102.0,68.0,34.0,magenta,hexagon
0.0,1.0,0.5,0.0,7.0,1.0,2589.1921790025663,4.0,1.0,phase_3,,,,,102.0,3.0,102.0,68.0,136.0,170.0,34.0,204.0,gray,I
