raw_reward_magnitude,stim_reward,stepwise_reward_magnitude,paired_with_stopping,stim_location,response,reaction_time,block,num_trial_presentations,which_phase,stop_signal_trial_type,left_SSD,right_SSD,accuracy,chosen_bidding_amount,chosen_bidding_level,possible_bid_1,possible_bid_2,possible_bid_3,possible_bid_4,possible_bid_5,possible_bid_6,color_text,shape_text
205.0,3.0,2.0,0.0,4.0,4.0,636.9229459960479,1.0,1.0,phase_1,,,,,,,,,,,,,green,diamond
0.0,1.0,0.0,0.0,2.0,2.0,549.6742129907943,1.0,1.0,phase_1,,,,,,,,,,,,,gray,triangle
122.0,2.0,1.0,0.0,3.0,3.0,530.9170899854507,1.0,1.0,phase_1,,,,,,,,,,,,,yellow,I
0.0,4.0,0.0,0.0,4.0,4.0,386.1956059990916,1.0,1.0,phase_1,,,,,,,,,,,,,blue,cross
377.0,4.0,4.0,0.0,3.0,3.0,404.2575069761369,1.0,1.0,phase_1,,,,,,,,,,,,,blue,cross
115.0,6.0,1.0,1.0,1.0,1.0,385.4165310040116,1.0,1.0,phase_1,,,,,,,,,,,,,magenta,circle
57.0,5.0,0.5,1.0,2.0,2.0,431.149693991756,1.0,1.0,phase_1,,,,,,,,,,,,,white,square
0.0,6.0,0.0,1.0,3.0,3.0,469.2451750161126,1.0,1.0,phase_1,,,,,,,,,,,,,magenta,circle
210.0,3.0,2.0,0.0,1.0,1.0,495.2598939999006,1.0,1.0,phase_1,,,,,,,,,,,,,green,diamond
183.0,3.0,2.0,0.0,3.0,3.0,541.9001019909047,1.0,1.0,phase_1,,,,,,,,,,,,,green,diamond
224.0,7.0,2.0,1.0,1.0,1.0,395.8089020161424,1.0,1.0,phase_1,,,,,,,,,,,,,orange,hexagon
0.0,4.0,0.0,0.0,4.0,4.0,383.36077099666,1.0,1.0,phase_1,,,,,,,,,,,,,blue,cross
0.0,4.0,0.0,0.0,2.0,2.0,437.0882860093843,1.0,1.0,phase_1,,,,,,,,,,,,,blue,cross
189.0,3.0,2.0,0.0,1.0,1.0,446.9607040227856,1.0,1.0,phase_1,,,,,,,,,,,,,green,diamond
66.0,1.0,0.5,0.0,4.0,4.0,330.6606750120409,1.0,1.0,phase_1,,,,,,,,,,,,,gray,triangle
0.0,3.0,0.0,0.0,3.0,3.0,378.1631370075047,1.0,1.0,phase_1,,,,,,,,,,,,,green,diamond
205.0,7.0,2.0,1.0,3.0,3.0,479.974130023038,1.0,1.0,phase_1,,,,,,,,,,,,,orange,hexagon
0.0,1.0,0.0,0.0,2.0,2.0,456.9783760234713,1.0,1.0,phase_1,,,,,,,,,,,,,gray,triangle
199.0,3.0,2.0,0.0,3.0,3.0,455.7821360067464,1.0,1.0,phase_1,,,,,,,,,,,,,green,diamond
26.0,1.0,0.5,0.0,1.0,1.0,404.7437609988265,1.0,1.0,phase_1,,,,,,,,,,,,,gray,triangle
95.0,6.0,1.0,1.0,3.0,3.0,435.0843779975548,1.0,1.0,phase_1,,,,,,,,,,,,,magenta,circle
60.0,1.0,0.5,0.0,2.0,2.0,339.6147960156668,1.0,1.0,phase_1,,,,,,,,,,,,,gray,triangle
194.0,7.0,2.0,1.0,2.0,2.0,368.4872259909753,1.0,1.0,phase_1,,,,,,,,,,,,,orange,hexagon
177.0,3.0,2.0,0.0,1.0,1.0,375.6626720132772,1.0,1.0,phase_1,,,,,,,,,,,,,green,diamond
107.0,2.0,1.0,0.0,2.0,2.0,395.8720410009846,1.0,1.0,phase_1,,,,,,,,,,,,,yellow,I
377.0,8.0,4.0,1.0,4.0,4.0,345.121742982883,1.0,1.0,phase_1,,,,,,,,,,,,,cyan,flipped triangle
400.0,4.0,4.0,0.0,2.0,2.0,365.6559259979985,1.0,1.0,phase_1,,,,,,,,,,,,,blue,cross
47.0,1.0,0.5,0.0,4.0,4.0,327.6630740147084,1.0,1.0,phase_1,,,,,,,,,,,,,gray,triangle
0.0,8.0,0.0,1.0,4.0,4.0,540.855889004888,1.0,1.0,phase_1,,,,,,,,,,,,,cyan,flipped triangle
207.0,7.0,2.0,1.0,4.0,4.0,501.09137999243103,1.0,1.0,phase_1,,,,,,,,,,,,,orange,hexagon
120.0,6.0,1.0,1.0,4.0,4.0,417.7110750169959,1.0,1.0,phase_1,,,,,,,,,,,,,magenta,circle
86.0,6.0,1.0,1.0,4.0,4.0,421.9682920083869,1.0,1.0,phase_1,,,,,,,,,,,,,magenta,circle
0.0,8.0,0.0,1.0,1.0,1.0,441.4260920020751,1.0,1.0,phase_1,,,,,,,,,,,,,cyan,flipped triangle
200.0,3.0,2.0,0.0,4.0,4.0,430.6841090146918,1.0,1.0,phase_1,,,,,,,,,,,,,green,diamond
32.0,1.0,0.5,0.0,2.0,2.0,482.2027040063403,1.0,1.0,phase_1,,,,,,,,,,,,,gray,triangle
80.0,2.0,1.0,0.0,2.0,2.0,454.0856620005797,1.0,1.0,phase_1,,,,,,,,,,,,,yellow,I
29.0,1.0,0.5,0.0,1.0,1.0,409.5383579842746,1.0,1.0,phase_1,,,,,,,,,,,,,gray,triangle
0.0,4.0,0.0,0.0,2.0,2.0,369.7216619912069,1.0,1.0,phase_1,,,,,,,,,,,,,blue,cross
0.0,2.0,0.0,0.0,2.0,2.0,390.1461990026291,1.0,1.0,phase_1,,,,,,,,,,,,,yellow,I
42.0,1.0,0.5,0.0,4.0,4.0,419.9160179996397,1.0,1.0,phase_1,,,,,,,,,,,,,gray,triangle
205.0,7.0,2.0,1.0,3.0,3.0,517.2332820075098,1.0,1.0,phase_1,,,,,,,,,,,,,orange,hexagon
222.0,7.0,2.0,1.0,1.0,1.0,388.282441010233,1.0,1.0,phase_1,,,,,,,,,,,,,orange,hexagon
0.0,5.0,0.0,1.0,1.0,1.0,551.9152519991621,1.0,1.0,phase_1,,,,,,,,,,,,,white,square
411.0,4.0,4.0,0.0,2.0,2.0,435.2643210149836,1.0,1.0,phase_1,,,,,,,,,,,,,blue,cross
119.0,6.0,1.0,1.0,2.0,2.0,361.7813060118351,1.0,1.0,phase_1,,,,,,,,,,,,,magenta,circle
0.0,4.0,0.0,0.0,3.0,3.0,526.0408479953185,1.0,1.0,phase_1,,,,,,,,,,,,,blue,cross
91.0,6.0,1.0,1.0,4.0,4.0,553.541534987744,1.0,1.0,phase_1,,,,,,,,,,,,,magenta,circle
45.0,1.0,0.5,0.0,3.0,3.0,625.3157260071021,1.0,1.0,phase_1,,,,,,,,,,,,,gray,triangle
56.0,1.0,0.5,0.0,4.0,4.0,522.3181969777215,1.0,1.0,phase_1,,,,,,,,,,,,,gray,triangle
0.0,3.0,0.0,0.0,3.0,3.0,505.6050500134006,1.0,1.0,phase_1,,,,,,,,,,,,,green,diamond
109.0,2.0,1.0,0.0,2.0,2.0,533.2937900093384,1.0,1.0,phase_1,,,,,,,,,,,,,yellow,I
116.0,2.0,1.0,0.0,2.0,2.0,377.5843549810815,1.0,1.0,phase_1,,,,,,,,,,,,,yellow,I
411.0,8.0,4.0,1.0,4.0,4.0,513.2258350204211,1.0,1.0,phase_1,,,,,,,,,,,,,cyan,flipped triangle
196.0,3.0,2.0,0.0,4.0,4.0,537.7425519982353,1.0,1.0,phase_1,,,,,,,,,,,,,green,diamond
190.0,7.0,2.0,1.0,2.0,2.0,472.1999409957789,1.0,1.0,phase_1,,,,,,,,,,,,,orange,hexagon
412.0,8.0,4.0,1.0,1.0,1.0,556.687509000767,1.0,1.0,phase_1,,,,,,,,,,,,,cyan,flipped triangle
91.0,2.0,1.0,0.0,1.0,1.0,434.6854980103671,1.0,1.0,phase_1,,,,,,,,,,,,,yellow,I
81.0,6.0,1.0,1.0,1.0,1.0,471.4435540081467,1.0,1.0,phase_1,,,,,,,,,,,,,magenta,circle
87.0,6.0,1.0,1.0,2.0,2.0,394.6952979895286,1.0,1.0,phase_1,,,,,,,,,,,,,magenta,circle
0.0,6.0,0.0,1.0,2.0,2.0,448.844331986038,1.0,1.0,phase_1,,,,,,,,,,,,,magenta,circle
0.0,6.0,0.0,1.0,2.0,2.0,396.9041600066703,1.0,1.0,phase_1,,,,,,,,,,,,,magenta,circle
97.0,2.0,1.0,0.0,3.0,3.0,400.9298989840317,1.0,1.0,phase_1,,,,,,,,,,,,,yellow,I
0.0,2.0,0.0,0.0,4.0,4.0,462.8591460059397,1.0,1.0,phase_1,,,,,,,,,,,,,yellow,I
119.0,2.0,1.0,0.0,2.0,2.0,400.5329679930582,1.0,1.0,phase_1,,,,,,,,,,,,,yellow,I
0.0,4.0,0.0,0.0,1.0,1.0,406.0989930003416,1.0,1.0,phase_1,,,,,,,,,,,,,blue,cross
40.0,5.0,0.5,1.0,3.0,3.0,298.3315069868695,1.0,1.0,phase_1,,,,,,,,,,,,,white,square
222.0,3.0,2.0,0.0,2.0,2.0,321.1022069735918,1.0,1.0,phase_1,,,,,,,,,,,,,green,diamond
183.0,7.0,2.0,1.0,3.0,3.0,414.4305459922179,1.0,1.0,phase_1,,,,,,,,,,,,,orange,hexagon
60.0,5.0,0.5,1.0,2.0,2.0,424.5760390185751,1.0,1.0,phase_1,,,,,,,,,,,,,white,square
0.0,6.0,0.0,1.0,4.0,4.0,388.697841000976,1.0,1.0,phase_1,,,,,,,,,,,,,magenta,circle
123.0,2.0,1.0,0.0,3.0,3.0,555.1666139799636,1.0,1.0,phase_1,,,,,,,,,,,,,yellow,I
0.0,8.0,0.0,1.0,4.0,4.0,400.529117003316,1.0,1.0,phase_1,,,,,,,,,,,,,cyan,flipped triangle
0.0,5.0,0.0,1.0,4.0,4.0,450.6553400133271,1.0,1.0,phase_1,,,,,,,,,,,,,white,square
412.0,4.0,4.0,0.0,4.0,4.0,447.5742630020249,1.0,1.0,phase_1,,,,,,,,,,,,,blue,cross
0.0,7.0,0.0,1.0,3.0,3.0,366.6822540108114,1.0,1.0,phase_1,,,,,,,,,,,,,orange,hexagon
407.0,4.0,4.0,0.0,4.0,4.0,392.8238590015098,1.0,1.0,phase_1,,,,,,,,,,,,,blue,cross
53.0,1.0,0.5,0.0,3.0,3.0,342.4217110150493,1.0,1.0,phase_1,,,,,,,,,,,,,gray,triangle
122.0,6.0,1.0,1.0,1.0,1.0,572.0656729827169,1.0,1.0,phase_1,,,,,,,,,,,,,magenta,circle
89.0,2.0,1.0,0.0,3.0,3.0,447.427589999279,1.0,1.0,phase_1,,,,,,,,,,,,,yellow,I
199.0,7.0,2.0,1.0,1.0,1.0,460.4195619758684,1.0,1.0,phase_1,,,,,,,,,,,,,orange,hexagon
27.0,5.0,0.5,1.0,1.0,1.0,408.7911710084881,1.0,1.0,phase_1,,,,,,,,,,,,,white,square
179.0,7.0,2.0,1.0,3.0,3.0,367.8133839857764,1.0,1.0,phase_1,,,,,,,,,,,,,orange,hexagon
104.0,6.0,1.0,1.0,2.0,2.0,387.8188189992215,1.0,1.0,phase_1,,,,,,,,,,,,,magenta,circle
109.0,6.0,1.0,1.0,2.0,2.0,414.3804989871569,1.0,1.0,phase_1,,,,,,,,,,,,,magenta,circle
410.0,8.0,4.0,1.0,2.0,2.0,354.6894629835151,1.0,1.0,phase_1,,,,,,,,,,,,,cyan,flipped triangle
40.0,1.0,0.5,0.0,1.0,1.0,444.5891570067033,1.0,2.0,phase_1,,,,,,,,,,,,,gray,triangle
405.0,8.0,4.0,1.0,1.0,1.0,435.3337599895894,1.0,1.0,phase_1,,,,,,,,,,,,,cyan,flipped triangle
418.0,4.0,4.0,0.0,4.0,4.0,519.6546360093635,1.0,1.0,phase_1,,,,,,,,,,,,,blue,cross
389.0,4.0,4.0,0.0,2.0,2.0,499.4734499778133,1.0,1.0,phase_1,,,,,,,,,,,,,blue,cross
219.0,7.0,2.0,1.0,4.0,4.0,442.3199349839706,1.0,1.0,phase_1,,,,,,,,,,,,,orange,hexagon
0.0,4.0,0.0,0.0,4.0,4.0,508.55417098500766,1.0,1.0,phase_1,,,,,,,,,,,,,blue,cross
0.0,3.0,0.0,0.0,2.0,2.0,459.1509070014581,1.0,1.0,phase_1,,,,,,,,,,,,,green,diamond
0.0,3.0,0.0,0.0,3.0,3.0,413.686112005962,1.0,1.0,phase_1,,,,,,,,,,,,,green,diamond
72.0,1.0,0.5,0.0,3.0,3.0,611.8476100091357,1.0,1.0,phase_1,,,,,,,,,,,,,gray,triangle
389.0,8.0,4.0,1.0,2.0,2.0,493.9981830248143,1.0,1.0,phase_1,,,,,,,,,,,,,cyan,flipped triangle
0.0,8.0,0.0,1.0,2.0,2.0,405.8063690026756,1.0,1.0,phase_1,,,,,,,,,,,,,cyan,flipped triangle
75.0,6.0,1.0,1.0,3.0,3.0,449.4088960054796,1.0,1.0,phase_1,,,,,,,,,,,,,magenta,circle
0.0,3.0,0.0,0.0,3.0,3.0,463.5962279862724,1.0,1.0,phase_1,,,,,,,,,,,,,green,diamond
0.0,4.0,0.0,0.0,1.0,1.0,577.9906320094597,1.0,1.0,phase_1,,,,,,,,,,,,,blue,cross
45.0,1.0,0.5,0.0,3.0,3.0,441.8908380030188,1.0,1.0,phase_1,,,,,,,,,,,,,gray,triangle
38.0,5.0,0.5,1.0,4.0,4.0,637.9447249928489,2.0,1.0,phase_1,,,,,,,,,,,,,white,square
389.0,4.0,4.0,0.0,4.0,4.0,514.6847669966519,2.0,1.0,phase_1,,,,,,,,,,,,,blue,cross
405.0,8.0,4.0,1.0,1.0,1.0,450.542090984527,2.0,1.0,phase_1,,,,,,,,,,,,,cyan,flipped triangle
68.0,5.0,0.5,1.0,3.0,3.0,413.98917499464,2.0,1.0,phase_1,,,,,,,,,,,,,white,square
405.0,4.0,4.0,0.0,2.0,2.0,410.6310770148411,2.0,1.0,phase_1,,,,,,,,,,,,,blue,cross
28.0,5.0,0.5,1.0,4.0,4.0,392.4898279947229,2.0,1.0,phase_1,,,,,,,,,,,,,white,square
390.0,4.0,4.0,0.0,2.0,2.0,340.2502850221935,2.0,1.0,phase_1,,,,,,,,,,,,,blue,cross
94.0,6.0,1.0,1.0,3.0,3.0,374.9919410038274,2.0,1.0,phase_1,,,,,,,,,,,,,magenta,circle
0.0,7.0,0.0,1.0,1.0,1.0,549.6102139877621,2.0,1.0,phase_1,,,,,,,,,,,,,orange,hexagon
179.0,7.0,2.0,1.0,4.0,4.0,488.2210929936263,2.0,1.0,phase_1,,,,,,,,,,,,,orange,hexagon
71.0,5.0,0.5,1.0,1.0,1.0,430.3892390162218,2.0,1.0,phase_1,,,,,,,,,,,,,white,square
375.0,4.0,4.0,0.0,4.0,4.0,412.9328689887188,2.0,1.0,phase_1,,,,,,,,,,,,,blue,cross
114.0,6.0,1.0,1.0,2.0,2.0,334.9954040022567,2.0,1.0,phase_1,,,,,,,,,,,,,magenta,circle
75.0,2.0,1.0,0.0,1.0,1.0,475.5770130141172,2.0,1.0,phase_1,,,,,,,,,,,,,yellow,I
52.0,1.0,0.5,0.0,3.0,3.0,287.4970969860442,2.0,1.0,phase_1,,,,,,,,,,,,,gray,triangle
33.0,5.0,0.5,1.0,1.0,1.0,591.4007129904348,2.0,1.0,phase_1,,,,,,,,,,,,,white,square
97.0,2.0,1.0,0.0,4.0,4.0,504.90226698457263,2.0,1.0,phase_1,,,,,,,,,,,,,yellow,I
202.0,7.0,2.0,1.0,4.0,4.0,601.433405012358,2.0,1.0,phase_1,,,,,,,,,,,,,orange,hexagon
184.0,3.0,2.0,0.0,1.0,1.0,435.8406719984486,2.0,1.0,phase_1,,,,,,,,,,,,,green,diamond
200.0,7.0,2.0,1.0,1.0,1.0,495.7211579894647,2.0,1.0,phase_1,,,,,,,,,,,,,orange,hexagon
42.0,5.0,0.5,1.0,2.0,2.0,436.5038510004524,2.0,1.0,phase_1,,,,,,,,,,,,,white,square
31.0,5.0,0.5,1.0,4.0,4.0,417.2629090026021,2.0,1.0,phase_1,,,,,,,,,,,,,white,square
389.0,4.0,4.0,0.0,2.0,2.0,384.8907659994438,2.0,1.0,phase_1,,,,,,,,,,,,,blue,cross
211.0,7.0,2.0,1.0,4.0,4.0,364.5146200142335,2.0,1.0,phase_1,,,,,,,,,,,,,orange,hexagon
390.0,8.0,4.0,1.0,2.0,2.0,470.9744870197028,2.0,1.0,phase_1,,,,,,,,,,,,,cyan,flipped triangle
179.0,3.0,2.0,0.0,2.0,2.0,420.8391439751722,2.0,1.0,phase_1,,,,,,,,,,,,,green,diamond
0.0,7.0,0.0,1.0,2.0,2.0,506.3412709860131,2.0,1.0,phase_1,,,,,,,,,,,,,orange,hexagon
95.0,2.0,1.0,0.0,4.0,4.0,413.2078220136463,2.0,1.0,phase_1,,,,,,,,,,,,,yellow,I
60.0,1.0,0.5,0.0,2.0,2.0,338.5849839833099,2.0,1.0,phase_1,,,,,,,,,,,,,gray,triangle
223.0,7.0,2.0,1.0,3.0,3.0,409.7093529999256,2.0,1.0,phase_1,,,,,,,,,,,,,orange,hexagon
189.0,3.0,2.0,0.0,3.0,3.0,446.8020540080033,2.0,1.0,phase_1,,,,,,,,,,,,,green,diamond
389.0,8.0,4.0,1.0,3.0,3.0,359.4959960028063,2.0,1.0,phase_1,,,,,,,,,,,,,cyan,flipped triangle
73.0,1.0,0.5,0.0,4.0,4.0,462.315046985168,2.0,1.0,phase_1,,,,,,,,,,,,,gray,triangle
222.0,7.0,2.0,1.0,2.0,2.0,444.1557730024215,2.0,1.0,phase_1,,,,,,,,,,,,,orange,hexagon
190.0,3.0,2.0,0.0,4.0,4.0,461.1022990138735,2.0,1.0,phase_1,,,,,,,,,,,,,green,diamond
88.0,6.0,1.0,1.0,4.0,4.0,428.8834840117488,2.0,1.0,phase_1,,,,,,,,,,,,,magenta,circle
0.0,2.0,0.0,0.0,1.0,1.0,536.0834859893657,2.0,1.0,phase_1,,,,,,,,,,,,,yellow,I
73.0,5.0,0.5,1.0,2.0,2.0,405.647609004518,2.0,1.0,phase_1,,,,,,,,,,,,,white,square
395.0,4.0,4.0,0.0,1.0,1.0,532.1776710043196,2.0,1.0,phase_1,,,,,,,,,,,,,blue,cross
424.0,4.0,4.0,0.0,2.0,2.0,468.3534030045848,2.0,1.0,phase_1,,,,,,,,,,,,,blue,cross
183.0,7.0,2.0,1.0,4.0,4.0,385.3083029971458,2.0,1.0,phase_1,,,,,,,,,,,,,orange,hexagon
395.0,8.0,4.0,1.0,4.0,4.0,463.1099920079577,2.0,1.0,phase_1,,,,,,,,,,,,,cyan,flipped triangle
87.0,2.0,1.0,0.0,2.0,2.0,426.9808609969914,2.0,1.0,phase_1,,,,,,,,,,,,,yellow,I
400.0,8.0,4.0,1.0,4.0,4.0,361.1296059971209,2.0,1.0,phase_1,,,,,,,,,,,,,cyan,flipped triangle
102.0,2.0,1.0,0.0,4.0,4.0,438.16611400689,2.0,1.0,phase_1,,,,,,,,,,,,,yellow,I
223.0,3.0,2.0,0.0,2.0,2.0,738.7376419792417,2.0,1.0,phase_1,,,,,,,,,,,,,green,diamond
0.0,2.0,0.0,0.0,1.0,1.0,445.5573570157867,2.0,1.0,phase_1,,,,,,,,,,,,,yellow,I
218.0,3.0,2.0,0.0,2.0,2.0,595.8790879813023,2.0,1.0,phase_1,,,,,,,,,,,,,green,diamond
73.0,5.0,0.5,1.0,2.0,2.0,400.4638999758754,2.0,1.0,phase_1,,,,,,,,,,,,,white,square
109.0,6.0,1.0,1.0,3.0,3.0,518.7487549846992,2.0,1.0,phase_1,,,,,,,,,,,,,magenta,circle
102.0,6.0,1.0,1.0,1.0,1.0,400.246278004488,2.0,1.0,phase_1,,,,,,,,,,,,,magenta,circle
394.0,4.0,4.0,0.0,3.0,3.0,417.0966000237968,2.0,1.0,phase_1,,,,,,,,,,,,,blue,cross
398.0,4.0,4.0,0.0,2.0,2.0,483.6578549875412,2.0,1.0,phase_1,,,,,,,,,,,,,blue,cross
384.0,4.0,4.0,0.0,1.0,1.0,562.1952759975102,2.0,1.0,phase_1,,,,,,,,,,,,,blue,cross
0.0,3.0,0.0,0.0,1.0,1.0,590.6852250045631,2.0,1.0,phase_1,,,,,,,,,,,,,green,diamond
52.0,5.0,0.5,1.0,4.0,4.0,658.8372449914459,2.0,1.0,phase_1,,,,,,,,,,,,,white,square
212.0,3.0,2.0,0.0,4.0,4.0,356.4128349826205,2.0,1.0,phase_1,,,,,,,,,,,,,green,diamond
29.0,5.0,0.5,1.0,4.0,4.0,442.5794830021914,2.0,1.0,phase_1,,,,,,,,,,,,,white,square
94.0,2.0,1.0,0.0,2.0,2.0,373.6683840106707,2.0,1.0,phase_1,,,,,,,,,,,,,yellow,I
418.0,8.0,4.0,1.0,2.0,2.0,420.2593290247023,2.0,1.0,phase_1,,,,,,,,,,,,,cyan,flipped triangle
109.0,2.0,1.0,0.0,3.0,3.0,451.0020909947343,2.0,1.0,phase_1,,,,,,,,,,,,,yellow,I
423.0,4.0,4.0,0.0,1.0,1.0,430.7754089822992,2.0,1.0,phase_1,,,,,,,,,,,,,blue,cross
177.0,7.0,2.0,1.0,4.0,4.0,355.5866800015792,2.0,1.0,phase_1,,,,,,,,,,,,,orange,hexagon
189.0,7.0,2.0,1.0,2.0,2.0,430.36916400888,2.0,1.0,phase_1,,,,,,,,,,,,,orange,hexagon
115.0,2.0,1.0,0.0,4.0,4.0,412.2878589842003,2.0,1.0,phase_1,,,,,,,,,,,,,yellow,I
103.0,2.0,1.0,0.0,1.0,1.0,439.2734720022417,2.0,1.0,phase_1,,,,,,,,,,,,,yellow,I
114.0,2.0,1.0,0.0,1.0,1.0,388.8162469957024,2.0,1.0,phase_1,,,,,,,,,,,,,yellow,I
0.0,3.0,0.0,0.0,4.0,4.0,292.2240489860996,2.0,1.0,phase_1,,,,,,,,,,,,,green,diamond
220.0,3.0,2.0,0.0,3.0,3.0,472.8853169945068,2.0,1.0,phase_1,,,,,,,,,,,,,green,diamond
0.0,1.0,0.0,0.0,1.0,1.0,397.1285990264732,2.0,1.0,phase_1,,,,,,,,,,,,,gray,triangle
79.0,2.0,1.0,0.0,2.0,2.0,390.2458989759907,2.0,1.0,phase_1,,,,,,,,,,,,,yellow,I
410.0,8.0,4.0,1.0,3.0,3.0,363.1653409975115,2.0,1.0,phase_1,,,,,,,,,,,,,cyan,flipped triangle
0.0,5.0,0.0,1.0,2.0,2.0,433.9419649913907,2.0,1.0,phase_1,,,,,,,,,,,,,white,square
80.0,6.0,1.0,1.0,1.0,1.0,396.7362719995435,2.0,1.0,phase_1,,,,,,,,,,,,,magenta,circle
388.0,8.0,4.0,1.0,1.0,1.0,424.7121070220601,2.0,1.0,phase_1,,,,,,,,,,,,,cyan,flipped triangle
420.0,8.0,4.0,1.0,1.0,1.0,407.3173540236894,2.0,1.0,phase_1,,,,,,,,,,,,,cyan,flipped triangle
0.0,4.0,0.0,0.0,1.0,1.0,380.4602469899691,2.0,1.0,phase_1,,,,,,,,,,,,,blue,cross
210.0,7.0,2.0,1.0,2.0,2.0,393.1718019885011,2.0,1.0,phase_1,,,,,,,,,,,,,orange,hexagon
399.0,8.0,4.0,1.0,4.0,4.0,445.9880299982615,2.0,1.0,phase_1,,,,,,,,,,,,,cyan,flipped triangle
73.0,1.0,0.5,0.0,4.0,4.0,396.4687999978196,2.0,1.0,phase_1,,,,,,,,,,,,,gray,triangle
196.0,7.0,2.0,1.0,1.0,1.0,504.0303079877049,2.0,1.0,phase_1,,,,,,,,,,,,,orange,hexagon
74.0,5.0,0.5,1.0,2.0,2.0,372.3415280110203,2.0,1.0,phase_1,,,,,,,,,,,,,white,square
0.0,6.0,0.0,1.0,1.0,1.0,430.7977280113846,2.0,1.0,phase_1,,,,,,,,,,,,,magenta,circle
78.0,6.0,1.0,1.0,1.0,1.0,455.0978270126506,2.0,1.0,phase_1,,,,,,,,,,,,,magenta,circle
0.0,5.0,0.0,1.0,1.0,1.0,362.5668579770718,2.0,1.0,phase_1,,,,,,,,,,,,,white,square
0.0,7.0,0.0,1.0,4.0,4.0,454.3144850176759,2.0,1.0,phase_1,,,,,,,,,,,,,orange,hexagon
78.0,6.0,1.0,1.0,3.0,3.0,425.6781809963286,2.0,1.0,phase_1,,,,,,,,,,,,,magenta,circle
386.0,4.0,4.0,0.0,4.0,4.0,463.4738859895151,2.0,1.0,phase_1,,,,,,,,,,,,,blue,cross
97.0,6.0,1.0,1.0,3.0,3.0,394.7230739868246,2.0,1.0,phase_1,,,,,,,,,,,,,magenta,circle
89.0,6.0,1.0,1.0,3.0,3.0,449.9476999917533,2.0,1.0,phase_1,,,,,,,,,,,,,magenta,circle
0.0,7.0,0.0,1.0,3.0,3.0,413.6899049917701,2.0,1.0,phase_1,,,,,,,,,,,,,orange,hexagon
57.0,1.0,0.5,0.0,3.0,3.0,506.6161610011477,2.0,1.0,phase_1,,,,,,,,,,,,,gray,triangle
189.0,7.0,2.0,1.0,4.0,4.0,557.6576100138482,2.0,1.0,phase_1,,,,,,,,,,,,,orange,hexagon
72.0,5.0,0.5,1.0,2.0,2.0,435.8936659991741,2.0,1.0,phase_1,,,,,,,,,,,,,white,square
28.0,1.0,0.5,0.0,4.0,4.0,426.7969809880014,2.0,1.0,phase_1,,,,,,,,,,,,,gray,triangle
78.0,2.0,1.0,0.0,1.0,1.0,422.338005999336,2.0,1.0,phase_1,,,,,,,,,,,,,yellow,I
403.0,4.0,4.0,0.0,3.0,3.0,400.3494619973935,2.0,1.0,phase_1,,,,,,,,,,,,,blue,cross
0.0,8.0,0.0,1.0,3.0,3.0,392.4648229731247,2.0,1.0,phase_1,,,,,,,,,,,,,cyan,flipped triangle
422.0,8.0,4.0,1.0,2.0,2.0,426.1481810244731,2.0,1.0,phase_1,,,,,,,,,,,,,cyan,flipped triangle
116.0,6.0,1.0,1.0,4.0,4.0,408.8234769878909,2.0,1.0,phase_1,,,,,,,,,,,,,magenta,circle
79.0,6.0,1.0,1.0,2.0,2.0,612.8447520022746,3.0,1.0,phase_1,,,,,,,,,,,,,magenta,circle
108.0,6.0,1.0,1.0,2.0,2.0,423.3075999945868,3.0,1.0,phase_1,,,,,,,,,,,,,magenta,circle
97.0,6.0,1.0,1.0,2.0,2.0,366.1718289949931,3.0,1.0,phase_1,,,,,,,,,,,,,magenta,circle
388.0,4.0,4.0,0.0,3.0,3.0,370.4223910172004,3.0,1.0,phase_1,,,,,,,,,,,,,blue,cross
55.0,5.0,0.5,1.0,2.0,2.0,381.1641380016226,3.0,1.0,phase_1,,,,,,,,,,,,,white,square
0.0,3.0,0.0,0.0,4.0,4.0,445.5982400104403,3.0,1.0,phase_1,,,,,,,,,,,,,green,diamond
425.0,4.0,4.0,0.0,3.0,3.0,430.7402489939704,3.0,1.0,phase_1,,,,,,,,,,,,,blue,cross
47.0,5.0,0.5,1.0,4.0,4.0,405.6808479945175,3.0,1.0,phase_1,,,,,,,,,,,,,white,square
81.0,2.0,1.0,0.0,2.0,2.0,463.9715380035341,3.0,1.0,phase_1,,,,,,,,,,,,,yellow,I
220.0,7.0,2.0,1.0,2.0,2.0,468.7215450103394,3.0,1.0,phase_1,,,,,,,,,,,,,orange,hexagon
410.0,4.0,4.0,0.0,1.0,1.0,425.360555993393,3.0,1.0,phase_1,,,,,,,,,,,,,blue,cross
107.0,6.0,1.0,1.0,4.0,4.0,545.3617239836603,3.0,1.0,phase_1,,,,,,,,,,,,,magenta,circle
376.0,4.0,4.0,0.0,4.0,4.0,499.1835729742888,3.0,1.0,phase_1,,,,,,,,,,,,,blue,cross
198.0,3.0,2.0,0.0,2.0,2.0,425.2884379820898,3.0,1.0,phase_1,,,,,,,,,,,,,green,diamond
104.0,2.0,1.0,0.0,4.0,4.0,431.6552719974424,3.0,1.0,phase_1,,,,,,,,,,,,,yellow,I
68.0,1.0,0.5,0.0,2.0,2.0,474.5981440064497,3.0,1.0,phase_1,,,,,,,,,,,,,gray,triangle
0.0,7.0,0.0,1.0,2.0,2.0,397.8015720203984,3.0,1.0,phase_1,,,,,,,,,,,,,orange,hexagon
68.0,1.0,0.5,0.0,3.0,3.0,644.1062510129996,3.0,1.0,phase_1,,,,,,,,,,,,,gray,triangle
0.0,3.0,0.0,0.0,3.0,3.0,410.7915060012601,3.0,1.0,phase_1,,,,,,,,,,,,,green,diamond
45.0,5.0,0.5,1.0,2.0,2.0,443.3406659809407,3.0,1.0,phase_1,,,,,,,,,,,,,white,square
110.0,2.0,1.0,0.0,1.0,1.0,483.4054200036917,3.0,1.0,phase_1,,,,,,,,,,,,,yellow,I
114.0,6.0,1.0,1.0,4.0,4.0,431.0327410057653,3.0,1.0,phase_1,,,,,,,,,,,,,magenta,circle
89.0,6.0,1.0,1.0,2.0,2.0,442.3875749926083,3.0,1.0,phase_1,,,,,,,,,,,,,magenta,circle
424.0,8.0,4.0,1.0,2.0,2.0,397.8173079958651,3.0,1.0,phase_1,,,,,,,,,,,,,cyan,flipped triangle
0.0,3.0,0.0,0.0,4.0,4.0,419.5229219913017,3.0,1.0,phase_1,,,,,,,,,,,,,green,diamond
94.0,2.0,1.0,0.0,3.0,3.0,402.589083998464,3.0,1.0,phase_1,,,,,,,,,,,,,yellow,I
205.0,7.0,2.0,1.0,1.0,1.0,381.3195380207617,3.0,1.0,phase_1,,,,,,,,,,,,,orange,hexagon
183.0,3.0,2.0,0.0,2.0,2.0,394.740166986594,3.0,1.0,phase_1,,,,,,,,,,,,,green,diamond
89.0,2.0,1.0,0.0,4.0,4.0,385.3364799870178,3.0,1.0,phase_1,,,,,,,,,,,,,yellow,I
405.0,4.0,4.0,0.0,1.0,1.0,426.3544279965572,3.0,1.0,phase_1,,,,,,,,,,,,,blue,cross
31.0,1.0,0.5,0.0,2.0,2.0,474.7315430140588,3.0,1.0,phase_1,,,,,,,,,,,,,gray,triangle
211.0,3.0,2.0,0.0,1.0,1.0,431.4044030033983,3.0,1.0,phase_1,,,,,,,,,,,,,green,diamond
0.0,1.0,0.0,0.0,1.0,1.0,497.1593579975888,3.0,1.0,phase_1,,,,,,,,,,,,,gray,triangle
92.0,6.0,1.0,1.0,1.0,1.0,430.1885190070607,3.0,1.0,phase_1,,,,,,,,,,,,,magenta,circle
386.0,8.0,4.0,1.0,1.0,1.0,372.6674600038677,3.0,1.0,phase_1,,,,,,,,,,,,,cyan,flipped triangle
399.0,4.0,4.0,0.0,1.0,1.0,343.0781619972549,3.0,1.0,phase_1,,,,,,,,,,,,,blue,cross
92.0,2.0,1.0,0.0,4.0,4.0,445.8201160014141,3.0,1.0,phase_1,,,,,,,,,,,,,yellow,I
407.0,8.0,4.0,1.0,4.0,4.0,484.039724979084,3.0,1.0,phase_1,,,,,,,,,,,,,cyan,flipped triangle
212.0,7.0,2.0,1.0,3.0,3.0,597.5970339786727,3.0,1.0,phase_1,,,,,,,,,,,,,orange,hexagon
0.0,7.0,0.0,1.0,3.0,3.0,354.673929978162,3.0,1.0,phase_1,,,,,,,,,,,,,orange,hexagon
400.0,8.0,4.0,1.0,1.0,1.0,457.171134010423,3.0,1.0,phase_1,,,,,,,,,,,,,cyan,flipped triangle
119.0,6.0,1.0,1.0,4.0,4.0,442.3779280041344,3.0,1.0,phase_1,,,,,,,,,,,,,magenta,circle
184.0,7.0,2.0,1.0,1.0,1.0,295.1420110184699,3.0,1.0,phase_1,,,,,,,,,,,,,orange,hexagon
60.0,1.0,0.5,0.0,2.0,2.0,438.6802079970948,3.0,1.0,phase_1,,,,,,,,,,,,,gray,triangle
95.0,2.0,1.0,0.0,2.0,2.0,459.1129949840251,3.0,1.0,phase_1,,,,,,,,,,,,,yellow,I
45.0,5.0,0.5,1.0,1.0,1.0,453.6695489950944,3.0,1.0,phase_1,,,,,,,,,,,,,white,square
188.0,7.0,2.0,1.0,3.0,3.0,434.4904169847723,3.0,1.0,phase_1,,,,,,,,,,,,,orange,hexagon
32.0,5.0,0.5,1.0,1.0,1.0,359.7965599910822,3.0,1.0,phase_1,,,,,,,,,,,,,white,square
393.0,8.0,4.0,1.0,3.0,3.0,380.7611489901319,3.0,1.0,phase_1,,,,,,,,,,,,,cyan,flipped triangle
425.0,8.0,4.0,1.0,4.0,4.0,376.1936610098928,3.0,1.0,phase_1,,,,,,,,,,,,,cyan,flipped triangle
410.0,4.0,4.0,0.0,3.0,3.0,430.8192030002828,3.0,1.0,phase_1,,,,,,,,,,,,,blue,cross
108.0,6.0,1.0,1.0,3.0,3.0,491.7679099889938,3.0,1.0,phase_1,,,,,,,,,,,,,magenta,circle
94.0,6.0,1.0,1.0,1.0,1.0,511.72838200000115,3.0,1.0,phase_1,,,,,,,,,,,,,magenta,circle
56.0,5.0,0.5,1.0,1.0,1.0,406.0245760192629,3.0,1.0,phase_1,,,,,,,,,,,,,white,square
0.0,6.0,0.0,1.0,3.0,3.0,514.4107670057565,3.0,1.0,phase_1,,,,,,,,,,,,,magenta,circle
199.0,3.0,2.0,0.0,3.0,3.0,699.9898310168646,3.0,1.0,phase_1,,,,,,,,,,,,,green,diamond
44.0,5.0,0.5,1.0,4.0,4.0,434.7569910169113,3.0,1.0,phase_1,,,,,,,,,,,,,white,square
422.0,4.0,4.0,0.0,3.0,3.0,477.5751300039701,3.0,1.0,phase_1,,,,,,,,,,,,,blue,cross
78.0,2.0,1.0,0.0,3.0,3.0,381.1559480091091,3.0,1.0,phase_1,,,,,,,,,,,,,yellow,I
0.0,1.0,0.0,0.0,3.0,3.0,351.2195070215966,3.0,1.0,phase_1,,,,,,,,,,,,,gray,triangle
200.0,3.0,2.0,0.0,4.0,4.0,483.4573040134273,3.0,1.0,phase_1,,,,,,,,,,,,,green,diamond
392.0,8.0,4.0,1.0,3.0,3.0,387.7450400032103,3.0,1.0,phase_1,,,,,,,,,,,,,cyan,flipped triangle
376.0,8.0,4.0,1.0,2.0,2.0,544.232368003577,3.0,1.0,phase_1,,,,,,,,,,,,,cyan,flipped triangle
398.0,8.0,4.0,1.0,3.0,3.0,388.0659580172505,3.0,1.0,phase_1,,,,,,,,,,,,,cyan,flipped triangle
0.0,1.0,0.0,0.0,2.0,2.0,409.1690740024205,3.0,1.0,phase_1,,,,,,,,,,,,,gray,triangle
186.0,3.0,2.0,0.0,4.0,4.0,436.6846790071577,3.0,1.0,phase_1,,,,,,,,,,,,,green,diamond
202.0,3.0,2.0,0.0,3.0,3.0,449.8566880065482,3.0,1.0,phase_1,,,,,,,,,,,,,green,diamond
394.0,8.0,4.0,1.0,3.0,3.0,406.6468769742641,3.0,1.0,phase_1,,,,,,,,,,,,,cyan,flipped triangle
0.0,1.0,0.0,0.0,1.0,1.0,409.1520049842074,3.0,1.0,phase_1,,,,,,,,,,,,,gray,triangle
95.0,6.0,1.0,1.0,4.0,4.0,489.5968369964976,3.0,1.0,phase_1,,,,,,,,,,,,,magenta,circle
26.0,5.0,0.5,1.0,1.0,1.0,390.16688699484797,3.0,1.0,phase_1,,,,,,,,,,,,,white,square
60.0,1.0,0.5,0.0,1.0,1.0,392.9175250232219,3.0,1.0,phase_1,,,,,,,,,,,,,gray,triangle
0.0,5.0,0.0,1.0,4.0,4.0,479.2471649998333,3.0,1.0,phase_1,,,,,,,,,,,,,white,square
38.0,1.0,0.5,0.0,3.0,3.0,499.490785994567,3.0,1.0,phase_1,,,,,,,,,,,,,gray,triangle
400.0,8.0,4.0,1.0,1.0,1.0,408.4683089749887,3.0,1.0,phase_1,,,,,,,,,,,,,cyan,flipped triangle
218.0,7.0,2.0,1.0,1.0,1.0,532.5661360111553,3.0,1.0,phase_1,,,,,,,,,,,,,orange,hexagon
71.0,1.0,0.5,0.0,4.0,4.0,456.3134419731796,3.0,1.0,phase_1,,,,,,,,,,,,,gray,triangle
0.0,6.0,0.0,1.0,4.0,4.0,420.6842009734828,3.0,1.0,phase_1,,,,,,,,,,,,,magenta,circle
219.0,3.0,2.0,0.0,4.0,4.0,360.3489660017658,3.0,1.0,phase_1,,,,,,,,,,,,,green,diamond
44.0,1.0,0.5,0.0,4.0,4.0,420.8892229944467,3.0,1.0,phase_1,,,,,,,,,,,,,gray,triangle
188.0,3.0,2.0,0.0,1.0,1.0,403.5359179833904,3.0,1.0,phase_1,,,,,,,,,,,,,green,diamond
0.0,2.0,0.0,0.0,1.0,1.0,367.9108779761009,3.0,1.0,phase_1,,,,,,,,,,,,,yellow,I
387.0,4.0,4.0,0.0,1.0,1.0,413.6593480070587,3.0,1.0,phase_1,,,,,,,,,,,,,blue,cross
391.0,4.0,4.0,0.0,3.0,3.0,383.3335640083533,3.0,1.0,phase_1,,,,,,,,,,,,,blue,cross
0.0,8.0,0.0,1.0,3.0,3.0,318.2308649993501,3.0,1.0,phase_1,,,,,,,,,,,,,cyan,flipped triangle
199.0,7.0,2.0,1.0,4.0,4.0,379.6987769892439,3.0,1.0,phase_1,,,,,,,,,,,,,orange,hexagon
74.0,1.0,0.5,0.0,2.0,2.0,325.0830169999972,3.0,1.0,phase_1,,,,,,,,,,,,,gray,triangle
29.0,1.0,0.5,0.0,1.0,1.0,409.8114289809018,3.0,1.0,phase_1,,,,,,,,,,,,,gray,triangle
391.0,8.0,4.0,1.0,4.0,4.0,392.9214250238146,3.0,1.0,phase_1,,,,,,,,,,,,,cyan,flipped triangle
0.0,4.0,0.0,0.0,3.0,3.0,405.95614298945287,3.0,1.0,phase_1,,,,,,,,,,,,,blue,cross
194.0,3.0,2.0,0.0,2.0,2.0,459.3450200045481,3.0,1.0,phase_1,,,,,,,,,,,,,green,diamond
66.0,5.0,0.5,1.0,4.0,4.0,423.2431449927389,3.0,1.0,phase_1,,,,,,,,,,,,,white,square
0.0,7.0,0.0,1.0,4.0,4.0,378.5671259975061,3.0,1.0,phase_1,,,,,,,,,,,,,orange,hexagon
202.0,3.0,2.0,0.0,3.0,3.0,446.33099698694417,3.0,1.0,phase_1,,,,,,,,,,,,,green,diamond
0.0,6.0,0.0,1.0,4.0,4.0,356.9716500060167,3.0,1.0,phase_1,,,,,,,,,,,,,magenta,circle
88.0,2.0,1.0,0.0,1.0,1.0,569.7655550029594,3.0,1.0,phase_1,,,,,,,,,,,,,yellow,I
60.0,5.0,0.5,1.0,3.0,3.0,404.8485090024769,3.0,1.0,phase_1,,,,,,,,,,,,,white,square
0.0,5.0,0.0,1.0,3.0,3.0,355.5740220181178,3.0,1.0,phase_1,,,,,,,,,,,,,white,square
60.0,5.0,0.5,1.0,1.0,1.0,392.798340995796,3.0,1.0,phase_1,,,,,,,,,,,,,white,square
205.0,3.0,2.0,0.0,3.0,3.0,299.1442359925713,3.0,1.0,phase_1,,,,,,,,,,,,,green,diamond
416.0,4.0,4.0,0.0,1.0,1.0,546.5290589781944,4.0,1.0,phase_1,,,,,,,,,,,,,blue,cross
0.0,8.0,0.0,1.0,2.0,2.0,368.170795001788,4.0,1.0,phase_1,,,,,,,,,,,,,cyan,flipped triangle
52.0,5.0,0.5,1.0,3.0,3.0,466.9588000106159,4.0,1.0,phase_1,,,,,,,,,,,,,white,square
194.0,3.0,2.0,0.0,4.0,4.0,329.3924889876507,4.0,1.0,phase_1,,,,,,,,,,,,,green,diamond
384.0,8.0,4.0,1.0,3.0,3.0,349.0851339884102,4.0,1.0,phase_1,,,,,,,,,,,,,cyan,flipped triangle
50.0,1.0,0.5,0.0,1.0,1.0,299.7204370039981,4.0,1.0,phase_1,,,,,,,,,,,,,gray,triangle
384.0,8.0,4.0,1.0,4.0,4.0,447.4796889990102,4.0,1.0,phase_1,,,,,,,,,,,,,cyan,flipped triangle
186.0,7.0,2.0,1.0,1.0,1.0,411.3054159970488,4.0,1.0,phase_1,,,,,,,,,,,,,orange,hexagon
194.0,7.0,2.0,1.0,3.0,3.0,495.6154109968338,4.0,1.0,phase_1,,,,,,,,,,,,,orange,hexagon
405.0,8.0,4.0,1.0,2.0,2.0,404.6699230093509,4.0,1.0,phase_1,,,,,,,,,,,,,cyan,flipped triangle
202.0,7.0,2.0,1.0,2.0,2.0,385.6223869952373,4.0,1.0,phase_1,,,,,,,,,,,,,orange,hexagon
384.0,4.0,4.0,0.0,4.0,4.0,339.7135759878438,4.0,1.0,phase_1,,,,,,,,,,,,,blue,cross
399.0,4.0,4.0,0.0,4.0,4.0,441.3644550077151,4.0,1.0,phase_1,,,,,,,,,,,,,blue,cross
44.0,5.0,0.5,1.0,3.0,3.0,377.0872669992968,4.0,1.0,phase_1,,,,,,,,,,,,,white,square
120.0,2.0,1.0,0.0,3.0,3.0,305.9884890099056,4.0,1.0,phase_1,,,,,,,,,,,,,yellow,I
86.0,2.0,1.0,0.0,1.0,1.0,327.8246319969184,4.0,1.0,phase_1,,,,,,,,,,,,,yellow,I
0.0,1.0,0.0,0.0,1.0,1.0,477.5217860005796,4.0,1.0,phase_1,,,,,,,,,,,,,gray,triangle
389.0,8.0,4.0,1.0,3.0,3.0,458.9885690074879,4.0,1.0,phase_1,,,,,,,,,,,,,cyan,flipped triangle
205.0,7.0,2.0,1.0,3.0,3.0,408.2360719912685,4.0,1.0,phase_1,,,,,,,,,,,,,orange,hexagon
0.0,7.0,0.0,1.0,1.0,1.0,458.7805269984528,4.0,1.0,phase_1,,,,,,,,,,,,,orange,hexagon
198.0,7.0,2.0,1.0,2.0,2.0,433.169325988274,4.0,1.0,phase_1,,,,,,,,,,,,,orange,hexagon
399.0,8.0,4.0,1.0,1.0,1.0,403.6393930146005,4.0,1.0,phase_1,,,,,,,,,,,,,cyan,flipped triangle
59.0,1.0,0.5,0.0,3.0,3.0,417.4393450084608,4.0,1.0,phase_1,,,,,,,,,,,,,gray,triangle
58.0,5.0,0.5,1.0,4.0,4.0,391.132574994117,4.0,1.0,phase_1,,,,,,,,,,,,,white,square
410.0,4.0,4.0,0.0,3.0,3.0,441.1133810062893,4.0,1.0,phase_1,,,,,,,,,,,,,blue,cross
52.0,1.0,0.5,0.0,4.0,4.0,432.7232220093719,4.0,1.0,phase_1,,,,,,,,,,,,,gray,triangle
55.0,1.0,0.5,0.0,2.0,2.0,433.7548570183571,4.0,1.0,phase_1,,,,,,,,,,,,,gray,triangle
0.0,2.0,0.0,0.0,4.0,4.0,474.4385119993239,4.0,1.0,phase_1,,,,,,,,,,,,,yellow,I
202.0,3.0,2.0,0.0,1.0,1.0,685.7127569965087,4.0,1.0,phase_1,,,,,,,,,,,,,green,diamond
59.0,5.0,0.5,1.0,3.0,3.0,433.8435370009392,4.0,1.0,phase_1,,,,,,,,,,,,,white,square
78.0,6.0,1.0,1.0,2.0,2.0,453.7573679990601,4.0,1.0,phase_1,,,,,,,,,,,,,magenta,circle
420.0,4.0,4.0,0.0,2.0,2.0,475.2285550057422,4.0,1.0,phase_1,,,,,,,,,,,,,blue,cross
224.0,3.0,2.0,0.0,3.0,3.0,568.3221090002917,4.0,1.0,phase_1,,,,,,,,,,,,,green,diamond
392.0,4.0,4.0,0.0,1.0,1.0,435.0555679993704,4.0,1.0,phase_1,,,,,,,,,,,,,blue,cross
0.0,8.0,0.0,1.0,4.0,4.0,519.987117004348,4.0,1.0,phase_1,,,,,,,,,,,,,cyan,flipped triangle
0.0,1.0,0.0,0.0,2.0,2.0,412.450429983437,4.0,1.0,phase_1,,,,,,,,,,,,,gray,triangle
196.0,3.0,2.0,0.0,1.0,1.0,450.6722200021613,4.0,1.0,phase_1,,,,,,,,,,,,,green,diamond
29.0,5.0,0.5,1.0,1.0,1.0,432.1214139927178,4.0,1.0,phase_1,,,,,,,,,,,,,white,square
45.0,5.0,0.5,1.0,4.0,4.0,309.4618500035722,4.0,1.0,phase_1,,,,,,,,,,,,,white,square
0.0,2.0,0.0,0.0,1.0,1.0,431.1998229823075,4.0,1.0,phase_1,,,,,,,,,,,,,yellow,I
387.0,8.0,4.0,1.0,1.0,1.0,372.5054420065135,4.0,1.0,phase_1,,,,,,,,,,,,,cyan,flipped triangle
205.0,3.0,2.0,0.0,2.0,2.0,376.347387995338,4.0,1.0,phase_1,,,,,,,,,,,,,green,diamond
0.0,2.0,0.0,0.0,3.0,3.0,384.3424019869417,4.0,1.0,phase_1,,,,,,,,,,,,,yellow,I
110.0,6.0,1.0,1.0,1.0,1.0,437.6440450141672,4.0,1.0,phase_1,,,,,,,,,,,,,magenta,circle
403.0,8.0,4.0,1.0,2.0,2.0,528.1379820080474,4.0,1.0,phase_1,,,,,,,,,,,,,cyan,flipped triangle
400.0,4.0,4.0,0.0,1.0,1.0,421.2037760007661,4.0,1.0,phase_1,,,,,,,,,,,,,blue,cross
0.0,8.0,0.0,1.0,4.0,4.0,359.8817400052212,4.0,1.0,phase_1,,,,,,,,,,,,,cyan,flipped triangle
103.0,6.0,1.0,1.0,1.0,1.0,454.1306189785246,4.0,1.0,phase_1,,,,,,,,,,,,,magenta,circle
200.0,7.0,2.0,1.0,2.0,2.0,449.667868000688,4.0,2.0,phase_1,,,,,,,,,,,,,orange,hexagon
36.0,1.0,0.5,0.0,1.0,1.0,435.1003589981701,4.0,1.0,phase_1,,,,,,,,,,,,,gray,triangle
53.0,5.0,0.5,1.0,1.0,1.0,527.596968022408,4.0,1.0,phase_1,,,,,,,,,,,,,white,square
33.0,1.0,0.5,0.0,3.0,3.0,428.033742995467,4.0,1.0,phase_1,,,,,,,,,,,,,gray,triangle
36.0,5.0,0.5,1.0,3.0,3.0,467.0832460105885,4.0,1.0,phase_1,,,,,,,,,,,,,white,square
186.0,7.0,2.0,1.0,1.0,1.0,389.3825900158845,4.0,1.0,phase_1,,,,,,,,,,,,,orange,hexagon
60.0,5.0,0.5,1.0,2.0,2.0,467.7953000064008,4.0,1.0,phase_1,,,,,,,,,,,,,white,square
0.0,6.0,0.0,1.0,1.0,1.0,462.9606190137565,4.0,1.0,phase_1,,,,,,,,,,,,,magenta,circle
114.0,2.0,1.0,0.0,1.0,1.0,459.3426300270948,4.0,1.0,phase_1,,,,,,,,,,,,,yellow,I
205.0,3.0,2.0,0.0,3.0,3.0,672.3770399985369,4.0,1.0,phase_1,,,,,,,,,,,,,green,diamond
0.0,5.0,0.0,1.0,2.0,2.0,463.530766981421,4.0,1.0,phase_1,,,,,,,,,,,,,white,square
101.0,2.0,1.0,0.0,3.0,3.0,377.6665170153137,4.0,1.0,phase_1,,,,,,,,,,,,,yellow,I
108.0,2.0,1.0,0.0,3.0,3.0,433.3664500154555,4.0,1.0,phase_1,,,,,,,,,,,,,yellow,I
188.0,7.0,2.0,1.0,3.0,3.0,523.9991169946734,4.0,1.0,phase_1,,,,,,,,,,,,,orange,hexagon
108.0,2.0,1.0,0.0,4.0,4.0,344.012087007286,4.0,1.0,phase_1,,,,,,,,,,,,,yellow,I
179.0,3.0,2.0,0.0,4.0,4.0,461.8117920181248,4.0,1.0,phase_1,,,,,,,,,,,,,green,diamond
0.0,8.0,0.0,1.0,4.0,4.0,373.2404070033226,4.0,1.0,phase_1,,,,,,,,,,,,,cyan,flipped triangle
68.0,5.0,0.5,1.0,3.0,3.0,373.552233009832,4.0,1.0,phase_1,,,,,,,,,,,,,white,square
0.0,7.0,0.0,1.0,2.0,2.0,437.2209590219427,4.0,1.0,phase_1,,,,,,,,,,,,,orange,hexagon
57.0,1.0,0.5,0.0,2.0,2.0,385.7242339872755,4.0,1.0,phase_1,,,,,,,,,,,,,gray,triangle
400.0,4.0,4.0,0.0,2.0,2.0,485.240256995894,4.0,1.0,phase_1,,,,,,,,,,,,,blue,cross
58.0,1.0,0.5,0.0,1.0,1.0,602.2247360087931,4.0,1.0,phase_1,,,,,,,,,,,,,gray,triangle
57.0,5.0,0.5,1.0,3.0,3.0,430.7442620047368,4.0,1.0,phase_1,,,,,,,,,,,,,white,square
119.0,2.0,1.0,0.0,4.0,4.0,401.9483709998894,4.0,1.0,phase_1,,,,,,,,,,,,,yellow,I
416.0,8.0,4.0,1.0,3.0,3.0,410.7286040089093,4.0,1.0,phase_1,,,,,,,,,,,,,cyan,flipped triangle
123.0,6.0,1.0,1.0,3.0,3.0,405.6896500114817,4.0,1.0,phase_1,,,,,,,,,,,,,magenta,circle
393.0,4.0,4.0,0.0,4.0,4.0,376.7026929999701,4.0,1.0,phase_1,,,,,,,,,,,,,blue,cross
0.0,5.0,0.0,1.0,1.0,1.0,508.1536739889998,4.0,1.0,phase_1,,,,,,,,,,,,,white,square
202.0,7.0,2.0,1.0,2.0,2.0,420.8983349963091,4.0,1.0,phase_1,,,,,,,,,,,,,orange,hexagon
0.0,2.0,0.0,0.0,2.0,2.0,592.9770899820141,4.0,1.0,phase_1,,,,,,,,,,,,,yellow,I
410.0,8.0,4.0,1.0,4.0,4.0,428.6062460159883,4.0,1.0,phase_1,,,,,,,,,,,,,cyan,flipped triangle
186.0,3.0,2.0,0.0,2.0,2.0,401.2324099894613,4.0,1.0,phase_1,,,,,,,,,,,,,green,diamond
101.0,6.0,1.0,1.0,4.0,4.0,356.8910100148059,4.0,1.0,phase_1,,,,,,,,,,,,,magenta,circle
188.0,3.0,2.0,0.0,1.0,1.0,321.561730990652,4.0,1.0,phase_1,,,,,,,,,,,,,green,diamond
196.0,7.0,2.0,1.0,4.0,4.0,423.0703279899899,4.0,1.0,phase_1,,,,,,,,,,,,,orange,hexagon
0.0,5.0,0.0,1.0,2.0,2.0,348.4589080035221,4.0,1.0,phase_1,,,,,,,,,,,,,white,square
375.0,8.0,4.0,1.0,2.0,2.0,480.4952050035354,4.0,1.0,phase_1,,,,,,,,,,,,,cyan,flipped triangle
50.0,5.0,0.5,1.0,3.0,3.0,439.5365900127217,4.0,1.0,phase_1,,,,,,,,,,,,,white,square
222.0,3.0,2.0,0.0,1.0,1.0,537.0930850040168,4.0,1.0,phase_1,,,,,,,,,,,,,green,diamond
0.0,1.0,0.0,0.0,1.0,1.0,405.609228007961,4.0,1.0,phase_1,,,,,,,,,,,,,gray,triangle
78.0,2.0,1.0,0.0,1.0,1.0,458.1776109989732,4.0,1.0,phase_1,,,,,,,,,,,,,yellow,I
115.0,6.0,1.0,1.0,3.0,3.0,506.1354789941106,4.0,1.0,phase_1,,,,,,,,,,,,,magenta,circle
44.0,1.0,0.5,0.0,1.0,1.0,606.4799650048371,4.0,1.0,phase_1,,,,,,,,,,,,,gray,triangle
405.0,4.0,4.0,0.0,3.0,3.0,594.3176900036633,4.0,1.0,phase_1,,,,,,,,,,,,,blue,cross
0.0,2.0,0.0,0.0,3.0,3.0,468.3419119974132,4.0,1.0,phase_1,,,,,,,,,,,,,yellow,I
0.0,6.0,0.0,1.0,2.0,2.0,763.1939260172658,4.0,1.0,phase_1,,,,,,,,,,,,,magenta,circle
27.0,1.0,0.5,0.0,2.0,2.0,398.2077339896932,4.0,1.0,phase_1,,,,,,,,,,,,,gray,triangle
45.0,1.0,0.5,0.0,1.0,1.0,442.2051130095497,4.0,1.0,phase_1,,,,,,,,,,,,,gray,triangle
0.0,5.0,0.0,1.0,4.0,4.0,470.9655969927553,4.0,1.0,phase_1,,,,,,,,,,,,,white,square
207.0,3.0,2.0,0.0,2.0,2.0,565.3214470075909,4.0,1.0,phase_1,,,,,,,,,,,,,green,diamond
423.0,8.0,4.0,1.0,3.0,3.0,400.7648050028365,4.0,1.0,phase_1,,,,,,,,,,,,,cyan,flipped triangle
115.0,2.0,1.0,0.0,4.0,4.0,369.3045690015424,4.0,1.0,phase_1,,,,,,,,,,,,,yellow,I
0.0,4.0,4.0,0.0,5.0,5.0,572.5745290110353,1.0,1.0,phase_2,go,250.0,250.0,1.0,,,,,,,,,blue,cross
0.0,2.0,1.0,0.0,5.0,5.0,434.8534930031746,1.0,1.0,phase_2,go,250.0,250.0,1.0,,,,,,,,,yellow,I
0.0,7.0,2.0,1.0,6.0,6.0,512.7989370084833,1.0,1.0,phase_2,stop,250.0,250.0,3.0,,,,,,,,,orange,hexagon
0.0,6.0,1.0,1.0,5.0,0.0,0.0,1.0,1.0,phase_2,stop,250.0,200.0,4.0,,,,,,,,,magenta,circle
0.0,1.0,0.5,0.0,5.0,5.0,665.2412990224548,1.0,1.0,phase_2,go,300.0,200.0,1.0,,,,,,,,,gray,triangle
0.0,8.0,4.0,1.0,5.0,5.0,498.8104079966433,1.0,1.0,phase_2,stop,300.0,200.0,3.0,,,,,,,,,cyan,flipped triangle
0.0,5.0,0.5,1.0,5.0,0.0,0.0,1.0,1.0,phase_2,stop,250.0,200.0,4.0,,,,,,,,,white,square
0.0,4.0,4.0,0.0,5.0,5.0,366.6443639958743,1.0,1.0,phase_2,go,300.0,200.0,1.0,,,,,,,,,blue,cross
0.0,7.0,2.0,1.0,5.0,5.0,712.3420690186322,1.0,1.0,phase_2,go,300.0,200.0,1.0,,,,,,,,,orange,hexagon
0.0,4.0,4.0,0.0,6.0,6.0,657.4197050067596,1.0,1.0,phase_2,go,300.0,200.0,1.0,,,,,,,,,blue,cross
0.0,5.0,0.5,1.0,5.0,0.0,0.0,1.0,1.0,phase_2,stop,300.0,200.0,4.0,,,,,,,,,white,square
0.0,8.0,4.0,1.0,6.0,0.0,0.0,1.0,1.0,phase_2,stop,350.0,200.0,4.0,,,,,,,,,cyan,flipped triangle
0.0,7.0,2.0,1.0,6.0,0.0,0.0,1.0,1.0,phase_2,stop,350.0,250.0,4.0,,,,,,,,,orange,hexagon
0.0,8.0,4.0,1.0,5.0,5.0,773.1523920083418,1.0,1.0,phase_2,go,350.0,300.0,1.0,,,,,,,,,cyan,flipped triangle
0.0,6.0,1.0,1.0,6.0,6.0,397.4601759982761,1.0,1.0,phase_2,stop,350.0,300.0,3.0,,,,,,,,,magenta,circle
0.0,6.0,1.0,1.0,5.0,0.0,0.0,1.0,1.0,phase_2,stop,350.0,250.0,4.0,,,,,,,,,magenta,circle
0.0,7.0,2.0,1.0,5.0,5.0,755.0364229828119,1.0,1.0,phase_2,go,400.0,250.0,1.0,,,,,,,,,orange,hexagon
0.0,7.0,2.0,1.0,6.0,0.0,0.0,1.0,1.0,phase_2,stop,400.0,250.0,4.0,,,,,,,,,orange,hexagon
0.0,5.0,0.5,1.0,5.0,0.0,0.0,1.0,1.0,phase_2,stop,400.0,300.0,4.0,,,,,,,,,white,square
0.0,4.0,4.0,0.0,5.0,5.0,865.5768750177231,1.0,1.0,phase_2,go,450.0,300.0,1.0,,,,,,,,,blue,cross
0.0,1.0,0.5,0.0,6.0,6.0,803.6344940192066,1.0,1.0,phase_2,go,450.0,300.0,1.0,,,,,,,,,gray,triangle
0.0,1.0,0.5,0.0,6.0,6.0,719.196712016128,1.0,1.0,phase_2,go,450.0,300.0,1.0,,,,,,,,,gray,triangle
0.0,6.0,1.0,1.0,5.0,0.0,0.0,1.0,1.0,phase_2,stop,450.0,300.0,4.0,,,,,,,,,magenta,circle
0.0,4.0,4.0,0.0,6.0,6.0,646.6928560112137,1.0,1.0,phase_2,go,500.0,300.0,1.0,,,,,,,,,blue,cross
0.0,4.0,4.0,0.0,6.0,6.0,669.1817300161347,1.0,1.0,phase_2,go,500.0,300.0,1.0,,,,,,,,,blue,cross
0.0,3.0,2.0,0.0,6.0,6.0,678.7399890017696,1.0,1.0,phase_2,go,500.0,300.0,1.0,,,,,,,,,green,diamond
0.0,5.0,0.5,1.0,5.0,0.0,0.0,1.0,1.0,phase_2,stop,500.0,300.0,4.0,,,,,,,,,white,square
0.0,7.0,2.0,1.0,6.0,0.0,0.0,1.0,1.0,phase_2,stop,550.0,300.0,4.0,,,,,,,,,orange,hexagon
0.0,7.0,2.0,1.0,6.0,6.0,813.3528089965694,1.0,1.0,phase_2,go,550.0,350.0,1.0,,,,,,,,,orange,hexagon
0.0,1.0,0.5,0.0,6.0,6.0,690.4666800110135,1.0,1.0,phase_2,go,550.0,350.0,1.0,,,,,,,,,gray,triangle
0.0,8.0,4.0,1.0,5.0,0.0,0.0,1.0,1.0,phase_2,stop,550.0,350.0,4.0,,,,,,,,,cyan,flipped triangle
0.0,3.0,2.0,0.0,6.0,6.0,723.6277190095279,1.0,1.0,phase_2,go,600.0,350.0,1.0,,,,,,,,,green,diamond
0.0,8.0,4.0,1.0,6.0,6.0,627.7889429766219,1.0,1.0,phase_2,go,600.0,350.0,1.0,,,,,,,,,cyan,flipped triangle
0.0,2.0,1.0,0.0,5.0,5.0,768.4264029958285,1.0,1.0,phase_2,go,600.0,350.0,1.0,,,,,,,,,yellow,I
0.0,5.0,0.5,1.0,5.0,5.0,712.2576329857111,1.0,1.0,phase_2,go,600.0,350.0,1.0,,,,,,,,,white,square
0.0,3.0,2.0,0.0,5.0,5.0,778.5560469783377,1.0,1.0,phase_2,go,600.0,350.0,1.0,,,,,,,,,green,diamond
0.0,2.0,1.0,0.0,6.0,0.0,0.0,2.0,1.0,phase_2,go,600.0,350.0,5.0,,,,,,,,,yellow,I
0.0,3.0,2.0,0.0,5.0,5.0,546.6112990106922,2.0,1.0,phase_2,go,600.0,350.0,1.0,,,,,,,,,green,diamond
0.0,5.0,0.5,1.0,6.0,6.0,338.6356800037902,2.0,1.0,phase_2,stop,600.0,350.0,3.0,,,,,,,,,white,square
0.0,7.0,2.0,1.0,5.0,5.0,335.5524229991715,2.0,1.0,phase_2,go,600.0,300.0,1.0,,,,,,,,,orange,hexagon
0.0,5.0,0.5,1.0,6.0,6.0,327.1917990059592,2.0,1.0,phase_2,go,600.0,300.0,1.0,,,,,,,,,white,square
0.0,4.0,4.0,0.0,5.0,5.0,438.9410260191653,2.0,1.0,phase_2,go,600.0,300.0,1.0,,,,,,,,,blue,cross
0.0,5.0,0.5,1.0,5.0,5.0,393.7676459900103,2.0,1.0,phase_2,stop,600.0,300.0,3.0,,,,,,,,,white,square
0.0,6.0,1.0,1.0,5.0,5.0,350.4214209970087,2.0,1.0,phase_2,stop,550.0,300.0,3.0,,,,,,,,,magenta,circle
0.0,3.0,2.0,0.0,6.0,6.0,284.877325000707,2.0,1.0,phase_2,go,500.0,300.0,1.0,,,,,,,,,green,diamond
0.0,8.0,4.0,1.0,5.0,5.0,318.5184269968886,2.0,1.0,phase_2,stop,500.0,300.0,3.0,,,,,,,,,cyan,flipped triangle
0.0,2.0,1.0,0.0,5.0,5.0,429.5021629950497,2.0,1.0,phase_2,go,450.0,300.0,1.0,,,,,,,,,yellow,I
0.0,6.0,1.0,1.0,6.0,6.0,342.3155740019865,2.0,1.0,phase_2,go,450.0,300.0,1.0,,,,,,,,,magenta,circle
0.0,8.0,4.0,1.0,6.0,6.0,326.4333340048324,2.0,1.0,phase_2,stop,450.0,300.0,3.0,,,,,,,,,cyan,flipped triangle
0.0,6.0,1.0,1.0,5.0,5.0,313.6151529906783,2.0,1.0,phase_2,go,450.0,250.0,1.0,,,,,,,,,magenta,circle
0.0,7.0,2.0,1.0,6.0,6.0,299.8750550032127,2.0,1.0,phase_2,stop,450.0,250.0,3.0,,,,,,,,,orange,hexagon
0.0,3.0,2.0,0.0,5.0,5.0,396.0646470077336,2.0,1.0,phase_2,go,450.0,200.0,1.0,,,,,,,,,green,diamond
0.0,2.0,1.0,0.0,5.0,5.0,392.0125000004191,2.0,1.0,phase_2,go,450.0,200.0,1.0,,,,,,,,,yellow,I
0.0,3.0,2.0,0.0,5.0,5.0,418.0258899868931,2.0,1.0,phase_2,go,450.0,200.0,1.0,,,,,,,,,green,diamond
0.0,8.0,4.0,1.0,6.0,6.0,295.728297001915,2.0,1.0,phase_2,stop,450.0,200.0,3.0,,,,,,,,,cyan,flipped triangle
0.0,6.0,1.0,1.0,6.0,6.0,592.0916400209535,2.0,1.0,phase_2,stop,450.0,150.0,3.0,,,,,,,,,magenta,circle
0.0,1.0,0.5,0.0,5.0,5.0,487.6692430116236,2.0,1.0,phase_2,go,450.0,100.0,1.0,,,,,,,,,gray,triangle
0.0,2.0,1.0,0.0,6.0,6.0,313.0832769966218,2.0,1.0,phase_2,go,450.0,100.0,1.0,,,,,,,,,yellow,I
0.0,8.0,4.0,1.0,6.0,6.0,677.3625279893167,2.0,1.0,phase_2,stop,450.0,100.0,3.0,,,,,,,,,cyan,flipped triangle
0.0,5.0,0.5,1.0,5.0,5.0,470.6162880174815,2.0,1.0,phase_2,stop,450.0,50.0,3.0,,,,,,,,,white,square
0.0,7.0,2.0,1.0,5.0,0.0,0.0,2.0,1.0,phase_2,stop,400.0,50.0,4.0,,,,,,,,,orange,hexagon
0.0,2.0,1.0,0.0,6.0,6.0,595.9761699778028,2.0,1.0,phase_2,go,450.0,50.0,1.0,,,,,,,,,yellow,I
0.0,4.0,4.0,0.0,5.0,5.0,620.6247540249024,2.0,1.0,phase_2,go,450.0,50.0,1.0,,,,,,,,,blue,cross
0.0,7.0,2.0,1.0,5.0,5.0,380.5991830013226,2.0,1.0,phase_2,stop,450.0,50.0,3.0,,,,,,,,,orange,hexagon
0.0,3.0,2.0,0.0,5.0,5.0,601.0803029930685,2.0,1.0,phase_2,go,400.0,50.0,1.0,,,,,,,,,green,diamond
0.0,6.0,1.0,1.0,6.0,6.0,513.4384529956151,2.0,1.0,phase_2,go,400.0,50.0,1.0,,,,,,,,,magenta,circle
0.0,4.0,4.0,0.0,5.0,5.0,306.1864780029282,2.0,1.0,phase_2,go,400.0,50.0,1.0,,,,,,,,,blue,cross
0.0,2.0,1.0,0.0,5.0,5.0,359.972904989263,2.0,1.0,phase_2,go,400.0,50.0,1.0,,,,,,,,,yellow,I
0.0,6.0,1.0,1.0,5.0,5.0,282.571973017184,2.0,1.0,phase_2,stop,400.0,50.0,3.0,,,,,,,,,magenta,circle
0.0,1.0,0.5,0.0,5.0,5.0,631.2161120004021,2.0,1.0,phase_2,go,350.0,50.0,1.0,,,,,,,,,gray,triangle
0.0,3.0,2.0,0.0,5.0,5.0,390.1770010124892,2.0,1.0,phase_2,go,350.0,50.0,1.0,,,,,,,,,green,diamond
0.0,8.0,4.0,1.0,6.0,0.0,0.0,2.0,1.0,phase_2,stop,350.0,50.0,4.0,,,,,,,,,cyan,flipped triangle
0.0,1.0,0.5,0.0,5.0,5.0,1163.844689988764,3.0,1.0,phase_2,go,350.0,100.0,1.0,,,,,,,,,gray,triangle
0.0,5.0,0.5,1.0,6.0,0.0,0.0,3.0,1.0,phase_2,stop,350.0,100.0,4.0,,,,,,,,,white,square
0.0,6.0,1.0,1.0,5.0,5.0,433.7956079980358,3.0,1.0,phase_2,go,350.0,150.0,1.0,,,,,,,,,magenta,circle
0.0,5.0,0.5,1.0,5.0,5.0,453.4651340218261,3.0,1.0,phase_2,go,350.0,150.0,1.0,,,,,,,,,white,square
0.0,7.0,2.0,1.0,6.0,6.0,561.7946470156312,3.0,1.0,phase_2,go,350.0,150.0,1.0,,,,,,,,,orange,hexagon
0.0,4.0,4.0,0.0,5.0,5.0,425.4899799998384,3.0,1.0,phase_2,go,350.0,150.0,1.0,,,,,,,,,blue,cross
0.0,7.0,2.0,1.0,5.0,5.0,491.424559004372,3.0,1.0,phase_2,stop,350.0,150.0,3.0,,,,,,,,,orange,hexagon
0.0,1.0,0.5,0.0,6.0,6.0,655.9059149876703,3.0,1.0,phase_2,go,300.0,150.0,1.0,,,,,,,,,gray,triangle
0.0,1.0,0.5,0.0,6.0,6.0,554.898250993574,3.0,1.0,phase_2,go,300.0,150.0,1.0,,,,,,,,,gray,triangle
0.0,1.0,0.5,0.0,6.0,6.0,606.3673009921331,3.0,1.0,phase_2,go,300.0,150.0,1.0,,,,,,,,,gray,triangle
0.0,5.0,0.5,1.0,5.0,5.0,551.3818710169289,3.0,1.0,phase_2,go,300.0,150.0,1.0,,,,,,,,,white,square
0.0,1.0,0.5,0.0,6.0,6.0,557.0657560019754,3.0,1.0,phase_2,go,300.0,150.0,1.0,,,,,,,,,gray,triangle
0.0,8.0,4.0,1.0,6.0,6.0,640.6626850075554,3.0,1.0,phase_2,stop,300.0,150.0,3.0,,,,,,,,,cyan,flipped triangle
0.0,7.0,2.0,1.0,6.0,6.0,631.0835889889859,3.0,1.0,phase_2,go,300.0,100.0,1.0,,,,,,,,,orange,hexagon
0.0,2.0,1.0,0.0,6.0,6.0,563.5580029920675,3.0,1.0,phase_2,go,300.0,100.0,1.0,,,,,,,,,yellow,I
0.0,4.0,4.0,0.0,5.0,5.0,565.6039179884829,3.0,1.0,phase_2,go,300.0,100.0,1.0,,,,,,,,,blue,cross
0.0,3.0,2.0,0.0,5.0,5.0,587.3182280047331,3.0,1.0,phase_2,go,300.0,100.0,1.0,,,,,,,,,green,diamond
0.0,2.0,1.0,0.0,6.0,6.0,500.506997021148,3.0,1.0,phase_2,go,300.0,100.0,1.0,,,,,,,,,yellow,I
0.0,8.0,4.0,1.0,6.0,0.0,0.0,3.0,1.0,phase_2,stop,300.0,100.0,4.0,,,,,,,,,cyan,flipped triangle
0.0,3.0,2.0,0.0,6.0,6.0,561.7497329949401,3.0,1.0,phase_2,go,300.0,150.0,1.0,,,,,,,,,green,diamond
0.0,2.0,1.0,0.0,5.0,5.0,538.6881899903528,3.0,1.0,phase_2,go,300.0,150.0,1.0,,,,,,,,,yellow,I
0.0,4.0,4.0,0.0,6.0,6.0,471.5186279790941,3.0,1.0,phase_2,go,300.0,150.0,1.0,,,,,,,,,blue,cross
0.0,2.0,1.0,0.0,6.0,6.0,416.4272510097362,3.0,1.0,phase_2,go,300.0,150.0,1.0,,,,,,,,,yellow,I
0.0,2.0,1.0,0.0,6.0,6.0,430.2126039983704,3.0,1.0,phase_2,go,300.0,150.0,1.0,,,,,,,,,yellow,I
0.0,6.0,1.0,1.0,5.0,5.0,583.784629998263,3.0,1.0,phase_2,go,300.0,150.0,1.0,,,,,,,,,magenta,circle
0.0,6.0,1.0,1.0,6.0,0.0,0.0,3.0,1.0,phase_2,stop,300.0,150.0,4.0,,,,,,,,,magenta,circle
0.0,1.0,0.5,0.0,5.0,5.0,500.5252900009509,3.0,1.0,phase_2,go,300.0,200.0,1.0,,,,,,,,,gray,triangle
0.0,8.0,4.0,1.0,6.0,0.0,0.0,3.0,1.0,phase_2,stop,300.0,200.0,4.0,,,,,,,,,cyan,flipped triangle
0.0,3.0,2.0,0.0,6.0,6.0,606.9274430046789,3.0,1.0,phase_2,go,300.0,250.0,1.0,,,,,,,,,green,diamond
0.0,8.0,4.0,1.0,6.0,0.0,0.0,3.0,1.0,phase_2,stop,300.0,250.0,4.0,,,,,,,,,cyan,flipped triangle
0.0,4.0,4.0,0.0,5.0,5.0,483.783786999993,3.0,1.0,phase_2,go,300.0,300.0,1.0,,,,,,,,,blue,cross
0.0,6.0,1.0,1.0,6.0,6.0,725.0132449844386,3.0,1.0,phase_2,go,300.0,300.0,1.0,,,,,,,,,magenta,circle
0.0,1.0,0.5,0.0,6.0,6.0,418.2363750005606,3.0,1.0,phase_2,go,300.0,300.0,1.0,,,,,,,,,gray,triangle
0.0,1.0,0.5,0.0,5.0,5.0,514.6520879934542,3.0,1.0,phase_2,go,300.0,300.0,1.0,,,,,,,,,gray,triangle
0.0,7.0,2.0,1.0,5.0,0.0,0.0,3.0,1.0,phase_2,stop,300.0,300.0,4.0,,,,,,,,,orange,hexagon
0.0,4.0,4.0,0.0,6.0,6.0,403.1933629885316,3.0,1.0,phase_2,go,350.0,300.0,1.0,,,,,,,,,blue,cross
0.0,1.0,0.5,0.0,6.0,6.0,1239.5274429873098,4.0,1.0,phase_2,go,350.0,300.0,1.0,,,,,,,,,gray,triangle
0.0,8.0,4.0,1.0,6.0,0.0,0.0,4.0,1.0,phase_2,stop,350.0,300.0,4.0,,,,,,,,,cyan,flipped triangle
0.0,2.0,1.0,0.0,6.0,6.0,511.2755849841051,4.0,1.0,phase_2,go,350.0,350.0,1.0,,,,,,,,,yellow,I
0.0,8.0,4.0,1.0,5.0,5.0,484.8371160042006,4.0,1.0,phase_2,stop,350.0,350.0,3.0,,,,,,,,,cyan,flipped triangle
0.0,5.0,0.5,1.0,6.0,0.0,0.0,4.0,1.0,phase_2,stop,300.0,350.0,4.0,,,,,,,,,white,square
0.0,2.0,1.0,0.0,5.0,5.0,450.8400089980569,4.0,1.0,phase_2,go,300.0,400.0,1.0,,,,,,,,,yellow,I
0.0,8.0,4.0,1.0,6.0,6.0,610.6174470041879,4.0,1.0,phase_2,go,300.0,400.0,1.0,,,,,,,,,cyan,flipped triangle
0.0,2.0,1.0,0.0,5.0,5.0,594.2363369977102,4.0,1.0,phase_2,go,300.0,400.0,1.0,,,,,,,,,yellow,I
0.0,8.0,4.0,1.0,5.0,0.0,0.0,4.0,1.0,phase_2,stop,300.0,400.0,4.0,,,,,,,,,cyan,flipped triangle
0.0,5.0,0.5,1.0,6.0,6.0,459.8021069832612,4.0,1.0,phase_2,stop,350.0,400.0,3.0,,,,,,,,,white,square
0.0,7.0,2.0,1.0,6.0,0.0,0.0,4.0,1.0,phase_2,stop,350.0,350.0,4.0,,,,,,,,,orange,hexagon
0.0,1.0,0.5,0.0,5.0,5.0,650.8356730046216,4.0,1.0,phase_2,go,350.0,400.0,1.0,,,,,,,,,gray,triangle
0.0,7.0,2.0,1.0,5.0,5.0,401.168176002102,4.0,1.0,phase_2,stop,350.0,400.0,3.0,,,,,,,,,orange,hexagon
0.0,2.0,1.0,0.0,5.0,5.0,648.9645800029393,4.0,1.0,phase_2,go,300.0,400.0,1.0,,,,,,,,,yellow,I
0.0,3.0,2.0,0.0,5.0,5.0,528.9483910019044,4.0,1.0,phase_2,go,300.0,400.0,1.0,,,,,,,,,green,diamond
0.0,7.0,2.0,1.0,6.0,0.0,0.0,4.0,1.0,phase_2,stop,300.0,400.0,4.0,,,,,,,,,orange,hexagon
0.0,4.0,4.0,0.0,6.0,6.0,693.8202680030372,4.0,1.0,phase_2,go,300.0,450.0,1.0,,,,,,,,,blue,cross
0.0,8.0,4.0,1.0,6.0,0.0,0.0,4.0,1.0,phase_2,stop,300.0,450.0,4.0,,,,,,,,,cyan,flipped triangle
0.0,8.0,4.0,1.0,6.0,6.0,630.2328319870867,4.0,1.0,phase_2,stop,300.0,500.0,3.0,,,,,,,,,cyan,flipped triangle
0.0,2.0,1.0,0.0,6.0,6.0,708.3300790109206,4.0,1.0,phase_2,go,300.0,450.0,1.0,,,,,,,,,yellow,I
0.0,1.0,0.5,0.0,5.0,5.0,613.143950002268,4.0,1.0,phase_2,go,300.0,450.0,1.0,,,,,,,,,gray,triangle
0.0,6.0,1.0,1.0,6.0,0.0,0.0,4.0,1.0,phase_2,stop,300.0,450.0,4.0,,,,,,,,,magenta,circle
0.0,5.0,0.5,1.0,6.0,6.0,1138.1251930142753,4.0,1.0,phase_2,go,300.0,500.0,1.0,,,,,,,,,white,square
0.0,1.0,0.5,0.0,6.0,6.0,612.2797960124444,4.0,1.0,phase_2,go,300.0,500.0,1.0,,,,,,,,,gray,triangle
0.0,1.0,0.5,0.0,5.0,5.0,424.6154700231273,4.0,1.0,phase_2,go,300.0,500.0,1.0,,,,,,,,,gray,triangle
0.0,6.0,1.0,1.0,6.0,6.0,348.0855789966881,4.0,1.0,phase_2,stop,300.0,500.0,3.0,,,,,,,,,magenta,circle
0.0,7.0,2.0,1.0,5.0,5.0,585.8445900084917,4.0,1.0,phase_2,go,300.0,450.0,1.0,,,,,,,,,orange,hexagon
0.0,6.0,1.0,1.0,5.0,0.0,0.0,4.0,1.0,phase_2,stop,300.0,450.0,4.0,,,,,,,,,magenta,circle
0.0,8.0,4.0,1.0,5.0,5.0,774.7220860037487,4.0,1.0,phase_2,go,350.0,450.0,1.0,,,,,,,,,cyan,flipped triangle
0.0,7.0,2.0,1.0,5.0,5.0,582.3897499940358,4.0,1.0,phase_2,stop,350.0,450.0,3.0,,,,,,,,,orange,hexagon
0.0,7.0,2.0,1.0,6.0,0.0,0.0,4.0,1.0,phase_2,stop,300.0,450.0,4.0,,,,,,,,,orange,hexagon
0.0,4.0,4.0,0.0,5.0,5.0,621.2287959933747,4.0,1.0,phase_2,go,300.0,500.0,1.0,,,,,,,,,blue,cross
0.0,6.0,1.0,1.0,6.0,6.0,604.3821269995533,4.0,1.0,phase_2,stop,300.0,500.0,3.0,,,,,,,,,magenta,circle
0.0,7.0,2.0,1.0,6.0,0.0,0.0,4.0,1.0,phase_2,stop,300.0,450.0,4.0,,,,,,,,,orange,hexagon
0.0,6.0,1.0,1.0,5.0,0.0,0.0,4.0,1.0,phase_2,stop,300.0,500.0,4.0,,,,,,,,,magenta,circle
0.0,4.0,4.0,0.0,6.0,6.0,714.5500530023128,4.0,1.0,phase_2,go,350.0,500.0,1.0,,,,,,,,,blue,cross
0.0,4.0,4.0,0.0,5.0,5.0,892.068064014893,5.0,1.0,phase_2,go,350.0,500.0,1.0,,,,,,,,,blue,cross
0.0,5.0,0.5,1.0,6.0,6.0,577.9684979934245,5.0,1.0,phase_2,stop,350.0,500.0,3.0,,,,,,,,,white,square
0.0,7.0,2.0,1.0,6.0,6.0,516.8769329902716,5.0,1.0,phase_2,stop,350.0,450.0,3.0,,,,,,,,,orange,hexagon
0.0,6.0,1.0,1.0,5.0,0.0,0.0,5.0,1.0,phase_2,stop,350.0,400.0,4.0,,,,,,,,,magenta,circle
0.0,3.0,2.0,0.0,5.0,5.0,851.2876800086815,5.0,1.0,phase_2,go,400.0,400.0,1.0,,,,,,,,,green,diamond
0.0,1.0,0.5,0.0,5.0,5.0,650.1383369904943,5.0,1.0,phase_2,go,400.0,400.0,1.0,,,,,,,,,gray,triangle
0.0,5.0,0.5,1.0,5.0,5.0,467.247374006547,5.0,1.0,phase_2,stop,400.0,400.0,3.0,,,,,,,,,white,square
0.0,1.0,0.5,0.0,6.0,6.0,672.7042229904328,5.0,1.0,phase_2,go,350.0,400.0,1.0,,,,,,,,,gray,triangle
0.0,4.0,4.0,0.0,5.0,5.0,671.7332529951818,5.0,1.0,phase_2,go,350.0,400.0,1.0,,,,,,,,,blue,cross
0.0,2.0,1.0,0.0,5.0,5.0,598.701209994033,5.0,1.0,phase_2,go,350.0,400.0,1.0,,,,,,,,,yellow,I
0.0,4.0,4.0,0.0,6.0,6.0,583.0891710065771,5.0,1.0,phase_2,go,350.0,400.0,1.0,,,,,,,,,blue,cross
0.0,3.0,2.0,0.0,5.0,5.0,684.6238519938197,5.0,1.0,phase_2,go,350.0,400.0,1.0,,,,,,,,,green,diamond
0.0,7.0,2.0,1.0,5.0,5.0,456.0534440097399,5.0,1.0,phase_2,go,350.0,400.0,1.0,,,,,,,,,orange,hexagon
0.0,5.0,0.5,1.0,6.0,6.0,438.9618010027334,5.0,1.0,phase_2,stop,350.0,400.0,3.0,,,,,,,,,white,square
0.0,4.0,4.0,0.0,5.0,5.0,486.4722930069547,5.0,1.0,phase_2,go,350.0,350.0,1.0,,,,,,,,,blue,cross
0.0,6.0,1.0,1.0,6.0,0.0,0.0,5.0,1.0,phase_2,stop,350.0,350.0,4.0,,,,,,,,,magenta,circle
0.0,6.0,1.0,1.0,5.0,0.0,0.0,5.0,1.0,phase_2,stop,350.0,400.0,4.0,,,,,,,,,magenta,circle
0.0,2.0,1.0,0.0,5.0,5.0,661.2929950060789,5.0,1.0,phase_2,go,400.0,400.0,1.0,,,,,,,,,yellow,I
0.0,3.0,2.0,0.0,6.0,6.0,673.795770999277,5.0,1.0,phase_2,go,400.0,400.0,1.0,,,,,,,,,green,diamond
0.0,7.0,2.0,1.0,6.0,6.0,571.4593559969217,5.0,1.0,phase_2,stop,400.0,400.0,3.0,,,,,,,,,orange,hexagon
0.0,2.0,1.0,0.0,6.0,6.0,744.3840310152154,5.0,1.0,phase_2,go,400.0,350.0,1.0,,,,,,,,,yellow,I
0.0,7.0,2.0,1.0,6.0,0.0,0.0,5.0,1.0,phase_2,stop,400.0,350.0,4.0,,,,,,,,,orange,hexagon
0.0,2.0,1.0,0.0,5.0,5.0,559.5434629940428,5.0,1.0,phase_2,go,400.0,400.0,1.0,,,,,,,,,yellow,I
0.0,3.0,2.0,0.0,6.0,6.0,554.1509960021358,5.0,1.0,phase_2,go,400.0,400.0,1.0,,,,,,,,,green,diamond
0.0,1.0,0.5,0.0,5.0,5.0,384.2986809904687,5.0,1.0,phase_2,go,400.0,400.0,1.0,,,,,,,,,gray,triangle
0.0,5.0,0.5,1.0,5.0,0.0,0.0,5.0,1.0,phase_2,stop,400.0,400.0,4.0,,,,,,,,,white,square
0.0,7.0,2.0,1.0,5.0,5.0,599.3633749894798,5.0,1.0,phase_2,stop,450.0,400.0,3.0,,,,,,,,,orange,hexagon
0.0,4.0,4.0,0.0,5.0,5.0,748.0457720230334,5.0,1.0,phase_2,go,400.0,400.0,1.0,,,,,,,,,blue,cross
0.0,8.0,4.0,1.0,5.0,0.0,0.0,5.0,1.0,phase_2,stop,400.0,400.0,4.0,,,,,,,,,cyan,flipped triangle
0.0,5.0,0.5,1.0,5.0,0.0,0.0,5.0,1.0,phase_2,stop,450.0,400.0,4.0,,,,,,,,,white,square
0.0,3.0,2.0,0.0,6.0,6.0,626.2864310119767,5.0,1.0,phase_2,go,500.0,400.0,1.0,,,,,,,,,green,diamond
0.0,6.0,1.0,1.0,6.0,0.0,0.0,5.0,1.0,phase_2,stop,500.0,400.0,4.0,,,,,,,,,magenta,circle
0.0,1.0,0.5,0.0,5.0,5.0,717.1653829864226,5.0,1.0,phase_2,go,500.0,450.0,1.0,,,,,,,,,gray,triangle
0.0,8.0,4.0,1.0,5.0,5.0,552.7020909939893,5.0,1.0,phase_2,go,500.0,450.0,1.0,,,,,,,,,cyan,flipped triangle
0.0,6.0,1.0,1.0,5.0,5.0,801.2014410051052,5.0,1.0,phase_2,go,500.0,450.0,1.0,,,,,,,,,magenta,circle
0.0,5.0,0.5,1.0,5.0,5.0,434.5807030040305,5.0,1.0,phase_2,stop,500.0,450.0,3.0,,,,,,,,,white,square
0.0,4.0,4.0,0.0,6.0,6.0,855.7308309827931,6.0,1.0,phase_2,go,450.0,450.0,1.0,,,,,,,,,blue,cross
0.0,4.0,4.0,0.0,5.0,5.0,616.4059570000973,6.0,1.0,phase_2,go,450.0,450.0,1.0,,,,,,,,,blue,cross
0.0,8.0,4.0,1.0,5.0,5.0,486.5084299817681,6.0,1.0,phase_2,stop,450.0,450.0,3.0,,,,,,,,,cyan,flipped triangle
0.0,5.0,0.5,1.0,6.0,6.0,541.2315109861083,6.0,1.0,phase_2,stop,400.0,450.0,3.0,,,,,,,,,white,square
0.0,6.0,1.0,1.0,6.0,0.0,0.0,6.0,1.0,phase_2,stop,400.0,400.0,4.0,,,,,,,,,magenta,circle
0.0,3.0,2.0,0.0,6.0,6.0,747.8048640186898,6.0,1.0,phase_2,go,400.0,450.0,1.0,,,,,,,,,green,diamond
0.0,7.0,2.0,1.0,6.0,6.0,610.7455370074604,6.0,1.0,phase_2,stop,400.0,450.0,3.0,,,,,,,,,orange,hexagon
0.0,3.0,2.0,0.0,5.0,5.0,676.82133501512,6.0,1.0,phase_2,go,400.0,400.0,1.0,,,,,,,,,green,diamond
0.0,5.0,0.5,1.0,6.0,6.0,610.6944089988247,6.0,1.0,phase_2,go,400.0,400.0,1.0,,,,,,,,,white,square
0.0,7.0,2.0,1.0,5.0,5.0,432.4745869962498,6.0,1.0,phase_2,stop,400.0,400.0,3.0,,,,,,,,,orange,hexagon
0.0,1.0,0.5,0.0,5.0,5.0,640.3161339985672,6.0,1.0,phase_2,go,350.0,400.0,1.0,,,,,,,,,gray,triangle
0.0,1.0,0.5,0.0,6.0,6.0,671.2654689908959,6.0,1.0,phase_2,go,350.0,400.0,1.0,,,,,,,,,gray,triangle
0.0,7.0,2.0,1.0,5.0,5.0,376.7136709939223,6.0,1.0,phase_2,stop,350.0,400.0,3.0,,,,,,,,,orange,hexagon
0.0,3.0,2.0,0.0,6.0,6.0,657.3842439975124,6.0,1.0,phase_2,go,300.0,400.0,1.0,,,,,,,,,green,diamond
0.0,1.0,0.5,0.0,5.0,5.0,623.1784140109085,6.0,1.0,phase_2,go,300.0,400.0,1.0,,,,,,,,,gray,triangle
0.0,8.0,4.0,1.0,5.0,0.0,0.0,6.0,1.0,phase_2,stop,300.0,400.0,4.0,,,,,,,,,cyan,flipped triangle
0.0,6.0,1.0,1.0,6.0,6.0,520.0271320063621,6.0,1.0,phase_2,stop,350.0,400.0,3.0,,,,,,,,,magenta,circle
0.0,2.0,1.0,0.0,5.0,5.0,652.8534390090499,6.0,1.0,phase_2,go,350.0,350.0,1.0,,,,,,,,,yellow,I
0.0,6.0,1.0,1.0,5.0,0.0,0.0,6.0,1.0,phase_2,stop,350.0,350.0,4.0,,,,,,,,,magenta,circle
0.0,1.0,0.5,0.0,6.0,6.0,715.5754739942495,6.0,1.0,phase_2,go,400.0,350.0,1.0,,,,,,,,,gray,triangle
0.0,1.0,0.5,0.0,6.0,6.0,681.3160849851556,6.0,1.0,phase_2,go,400.0,350.0,1.0,,,,,,,,,gray,triangle
0.0,4.0,4.0,0.0,6.0,6.0,665.1470949873328,6.0,1.0,phase_2,go,400.0,350.0,1.0,,,,,,,,,blue,cross
0.0,8.0,4.0,1.0,5.0,5.0,338.867658021627,6.0,1.0,phase_2,go,400.0,350.0,1.0,,,,,,,,,cyan,flipped triangle
0.0,5.0,0.5,1.0,6.0,6.0,674.6354150236584,6.0,1.0,phase_2,go,400.0,350.0,1.0,,,,,,,,,white,square
0.0,8.0,4.0,1.0,6.0,6.0,617.5302980118431,6.0,1.0,phase_2,go,400.0,350.0,1.0,,,,,,,,,cyan,flipped triangle
0.0,6.0,1.0,1.0,6.0,0.0,0.0,6.0,1.0,phase_2,stop,400.0,350.0,4.0,,,,,,,,,magenta,circle
0.0,8.0,4.0,1.0,5.0,5.0,360.9669590077828,6.0,1.0,phase_2,stop,400.0,400.0,3.0,,,,,,,,,cyan,flipped triangle
0.0,8.0,4.0,1.0,5.0,0.0,0.0,6.0,1.0,phase_2,stop,350.0,400.0,4.0,,,,,,,,,cyan,flipped triangle
0.0,2.0,1.0,0.0,6.0,6.0,608.1555880082306,6.0,1.0,phase_2,go,400.0,400.0,1.0,,,,,,,,,yellow,I
0.0,7.0,2.0,1.0,5.0,0.0,0.0,6.0,1.0,phase_2,stop,400.0,400.0,4.0,,,,,,,,,orange,hexagon
0.0,7.0,2.0,1.0,5.0,0.0,0.0,6.0,1.0,phase_2,stop,450.0,400.0,4.0,,,,,,,,,orange,hexagon
0.0,8.0,4.0,1.0,6.0,0.0,0.0,6.0,1.0,phase_2,stop,500.0,400.0,4.0,,,,,,,,,cyan,flipped triangle
0.0,4.0,4.0,0.0,6.0,6.0,764.204803010216,6.0,1.0,phase_2,go,500.0,450.0,1.0,,,,,,,,,blue,cross
0.0,5.0,0.5,1.0,5.0,0.0,0.0,6.0,1.0,phase_2,stop,500.0,450.0,4.0,,,,,,,,,white,square
0.0,1.0,0.5,0.0,6.0,6.0,665.5779650027398,6.0,1.0,phase_2,go,550.0,450.0,1.0,,,,,,,,,gray,triangle
0.0,3.0,2.0,0.0,6.0,6.0,961.4989689725916,6.0,1.0,phase_2,go,550.0,450.0,1.0,,,,,,,,,green,diamond
0.0,4.0,4.0,0.0,6.0,0.0,0.0,7.0,1.0,phase_2,go,550.0,450.0,5.0,,,,,,,,,blue,cross
0.0,3.0,2.0,0.0,5.0,5.0,608.2057979947422,7.0,1.0,phase_2,go,550.0,450.0,1.0,,,,,,,,,green,diamond
0.0,2.0,1.0,0.0,6.0,6.0,816.5714830101933,7.0,1.0,phase_2,go,550.0,450.0,1.0,,,,,,,,,yellow,I
0.0,5.0,0.5,1.0,5.0,5.0,456.0814350261353,7.0,1.0,phase_2,stop,550.0,450.0,3.0,,,,,,,,,white,square
0.0,1.0,0.5,0.0,6.0,6.0,503.50218298262917,7.0,1.0,phase_2,go,500.0,450.0,1.0,,,,,,,,,gray,triangle
0.0,6.0,1.0,1.0,5.0,5.0,412.2062880196608,7.0,1.0,phase_2,stop,500.0,450.0,3.0,,,,,,,,,magenta,circle
0.0,3.0,2.0,0.0,5.0,5.0,547.5010499940254,7.0,1.0,phase_2,go,450.0,450.0,1.0,,,,,,,,,green,diamond
0.0,1.0,0.5,0.0,5.0,5.0,534.9028139899019,7.0,1.0,phase_2,go,450.0,450.0,1.0,,,,,,,,,gray,triangle
0.0,2.0,1.0,0.0,6.0,6.0,492.3543400072958,7.0,1.0,phase_2,go,450.0,450.0,1.0,,,,,,,,,yellow,I
0.0,4.0,4.0,0.0,6.0,6.0,657.3140739928931,7.0,1.0,phase_2,go,450.0,450.0,1.0,,,,,,,,,blue,cross
0.0,8.0,4.0,1.0,5.0,5.0,547.128321020864,7.0,1.0,phase_2,stop,450.0,450.0,3.0,,,,,,,,,cyan,flipped triangle
0.0,3.0,2.0,0.0,5.0,5.0,640.2646760107018,7.0,1.0,phase_2,go,400.0,450.0,1.0,,,,,,,,,green,diamond
0.0,4.0,4.0,0.0,5.0,5.0,703.8469169929158,7.0,1.0,phase_2,go,400.0,450.0,1.0,,,,,,,,,blue,cross
0.0,6.0,1.0,1.0,6.0,6.0,568.6341200198513,7.0,1.0,phase_2,go,400.0,450.0,1.0,,,,,,,,,magenta,circle
0.0,2.0,1.0,0.0,6.0,6.0,951.5970140055288,7.0,1.0,phase_2,go,400.0,450.0,1.0,,,,,,,,,yellow,I
0.0,1.0,0.5,0.0,6.0,6.0,498.1657520111184,7.0,1.0,phase_2,go,400.0,450.0,1.0,,,,,,,,,gray,triangle
0.0,8.0,4.0,1.0,6.0,6.0,482.6006559887901,7.0,1.0,phase_2,go,400.0,450.0,1.0,,,,,,,,,cyan,flipped triangle
0.0,8.0,4.0,1.0,6.0,6.0,445.1352260075509,7.0,1.0,phase_2,stop,400.0,450.0,3.0,,,,,,,,,cyan,flipped triangle
0.0,1.0,0.5,0.0,5.0,5.0,623.3597230166197,7.0,1.0,phase_2,go,400.0,400.0,1.0,,,,,,,,,gray,triangle
0.0,4.0,4.0,0.0,6.0,6.0,661.9458500063047,7.0,1.0,phase_2,go,400.0,400.0,1.0,,,,,,,,,blue,cross
0.0,3.0,2.0,0.0,6.0,6.0,524.1356570040807,7.0,1.0,phase_2,go,400.0,400.0,1.0,,,,,,,,,green,diamond
0.0,2.0,1.0,0.0,6.0,6.0,516.7407809931319,7.0,1.0,phase_2,go,400.0,400.0,1.0,,,,,,,,,yellow,I
0.0,1.0,0.5,0.0,5.0,5.0,594.1865869972389,7.0,1.0,phase_2,go,400.0,400.0,1.0,,,,,,,,,gray,triangle
0.0,2.0,1.0,0.0,5.0,5.0,350.2617899794131,7.0,1.0,phase_2,go,400.0,400.0,1.0,,,,,,,,,yellow,I
0.0,8.0,4.0,1.0,5.0,5.0,442.3340869834646,7.0,1.0,phase_2,stop,400.0,400.0,3.0,,,,,,,,,cyan,flipped triangle
0.0,7.0,2.0,1.0,6.0,6.0,561.2307249975856,7.0,1.0,phase_2,go,350.0,400.0,1.0,,,,,,,,,orange,hexagon
0.0,8.0,4.0,1.0,5.0,5.0,608.7567000067793,7.0,1.0,phase_2,go,350.0,400.0,1.0,,,,,,,,,cyan,flipped triangle
0.0,4.0,4.0,0.0,5.0,5.0,442.8003739740234,7.0,1.0,phase_2,go,350.0,400.0,1.0,,,,,,,,,blue,cross
0.0,6.0,1.0,1.0,6.0,0.0,0.0,7.0,1.0,phase_2,stop,350.0,400.0,4.0,,,,,,,,,magenta,circle
0.0,6.0,1.0,1.0,5.0,5.0,392.5293250067625,7.0,1.0,phase_2,go,350.0,450.0,1.0,,,,,,,,,magenta,circle
0.0,5.0,0.5,1.0,6.0,6.0,476.0339840140659,7.0,1.0,phase_2,stop,350.0,450.0,3.0,,,,,,,,,white,square
0.0,5.0,0.5,1.0,6.0,0.0,0.0,7.0,1.0,phase_2,stop,350.0,400.0,4.0,,,,,,,,,white,square
0.0,3.0,2.0,0.0,5.0,5.0,560.6376029900275,7.0,1.0,phase_2,go,350.0,450.0,1.0,,,,,,,,,green,diamond
0.0,5.0,0.5,1.0,6.0,0.0,0.0,7.0,1.0,phase_2,stop,350.0,450.0,4.0,,,,,,,,,white,square
0.0,6.0,1.0,1.0,6.0,6.0,539.7680989990477,7.0,1.0,phase_2,stop,350.0,500.0,3.0,,,,,,,,,magenta,circle
0.0,7.0,2.0,1.0,5.0,0.0,0.0,7.0,1.0,phase_2,stop,350.0,450.0,4.0,,,,,,,,,orange,hexagon
0.0,3.0,2.0,0.0,5.0,5.0,497.2666350076906,8.0,1.0,phase_2,go,400.0,450.0,1.0,,,,,,,,,green,diamond
0.0,7.0,2.0,1.0,5.0,5.0,472.896552993916,8.0,1.0,phase_2,stop,400.0,450.0,3.0,,,,,,,,,orange,hexagon
0.0,2.0,1.0,0.0,5.0,5.0,499.0120860165916,8.0,1.0,phase_2,go,350.0,450.0,1.0,,,,,,,,,yellow,I
0.0,3.0,2.0,0.0,5.0,5.0,458.4871510160155,8.0,1.0,phase_2,go,350.0,450.0,1.0,,,,,,,,,green,diamond
0.0,2.0,1.0,0.0,5.0,5.0,583.9816450024955,8.0,1.0,phase_2,go,350.0,450.0,1.0,,,,,,,,,yellow,I
0.0,2.0,1.0,0.0,6.0,6.0,526.2588139739819,8.0,1.0,phase_2,go,350.0,450.0,1.0,,,,,,,,,yellow,I
0.0,6.0,1.0,1.0,6.0,6.0,551.7970010114368,8.0,1.0,phase_2,stop,350.0,450.0,3.0,,,,,,,,,magenta,circle
0.0,6.0,1.0,1.0,5.0,0.0,0.0,8.0,1.0,phase_2,stop,350.0,400.0,4.0,,,,,,,,,magenta,circle
0.0,2.0,1.0,0.0,5.0,5.0,637.8454770019744,8.0,1.0,phase_2,go,400.0,400.0,1.0,,,,,,,,,yellow,I
0.0,4.0,4.0,0.0,6.0,6.0,740.2803399891127,8.0,1.0,phase_2,go,400.0,400.0,1.0,,,,,,,,,blue,cross
0.0,5.0,0.5,1.0,5.0,5.0,581.5113039861899,8.0,1.0,phase_2,go,400.0,400.0,1.0,,,,,,,,,white,square
0.0,5.0,0.5,1.0,6.0,0.0,0.0,8.0,1.0,phase_2,stop,400.0,400.0,4.0,,,,,,,,,white,square
0.0,2.0,1.0,0.0,5.0,5.0,442.3539669951424,8.0,1.0,phase_2,go,400.0,450.0,1.0,,,,,,,,,yellow,I
0.0,1.0,0.5,0.0,6.0,6.0,642.0359939802438,8.0,1.0,phase_2,go,400.0,450.0,1.0,,,,,,,,,gray,triangle
0.0,4.0,4.0,0.0,6.0,6.0,721.938864007825,8.0,1.0,phase_2,go,400.0,450.0,1.0,,,,,,,,,blue,cross
0.0,5.0,0.5,1.0,6.0,0.0,0.0,8.0,1.0,phase_2,stop,400.0,450.0,4.0,,,,,,,,,white,square
0.0,3.0,2.0,0.0,6.0,6.0,674.821364984382,8.0,1.0,phase_2,go,400.0,500.0,1.0,,,,,,,,,green,diamond
0.0,3.0,2.0,0.0,5.0,5.0,746.9683979870752,8.0,1.0,phase_2,go,400.0,500.0,1.0,,,,,,,,,green,diamond
0.0,5.0,0.5,1.0,5.0,0.0,0.0,8.0,1.0,phase_2,stop,400.0,500.0,4.0,,,,,,,,,white,square
0.0,4.0,4.0,0.0,6.0,6.0,623.326584987808,8.0,1.0,phase_2,go,450.0,500.0,1.0,,,,,,,,,blue,cross
0.0,5.0,0.5,1.0,5.0,0.0,0.0,8.0,1.0,phase_2,stop,450.0,500.0,4.0,,,,,,,,,white,square
0.0,4.0,4.0,0.0,5.0,5.0,677.5079930084758,8.0,1.0,phase_2,go,500.0,500.0,1.0,,,,,,,,,blue,cross
0.0,4.0,4.0,0.0,6.0,6.0,606.1385440116283,8.0,1.0,phase_2,go,500.0,500.0,1.0,,,,,,,,,blue,cross
0.0,3.0,2.0,0.0,6.0,6.0,711.7732999904547,8.0,1.0,phase_2,go,500.0,500.0,1.0,,,,,,,,,green,diamond
0.0,3.0,2.0,0.0,6.0,6.0,549.5314459840301,8.0,1.0,phase_2,go,500.0,500.0,1.0,,,,,,,,,green,diamond
0.0,6.0,1.0,1.0,5.0,5.0,619.0270079823676,8.0,1.0,phase_2,stop,500.0,500.0,3.0,,,,,,,,,magenta,circle
0.0,1.0,0.5,0.0,5.0,5.0,706.45956901717,8.0,1.0,phase_2,go,450.0,500.0,1.0,,,,,,,,,gray,triangle
0.0,2.0,1.0,0.0,6.0,6.0,709.7370480187237,8.0,1.0,phase_2,go,450.0,500.0,1.0,,,,,,,,,yellow,I
0.0,3.0,2.0,0.0,6.0,6.0,610.5095900129527,8.0,1.0,phase_2,go,450.0,500.0,1.0,,,,,,,,,green,diamond
0.0,3.0,2.0,0.0,6.0,6.0,698.1226979987696,8.0,1.0,phase_2,go,450.0,500.0,1.0,,,,,,,,,green,diamond
0.0,5.0,0.5,1.0,6.0,0.0,0.0,8.0,1.0,phase_2,stop,450.0,500.0,4.0,,,,,,,,,white,square
0.0,8.0,4.0,1.0,5.0,0.0,0.0,8.0,1.0,phase_2,stop,450.0,550.0,4.0,,,,,,,,,cyan,flipped triangle
0.0,5.0,0.5,1.0,6.0,6.0,943.324052990647,8.0,1.0,phase_2,go,500.0,550.0,1.0,,,,,,,,,white,square
0.0,2.0,1.0,0.0,6.0,6.0,648.9543750067241,8.0,1.0,phase_2,go,500.0,550.0,1.0,,,,,,,,,yellow,I
0.0,7.0,2.0,1.0,6.0,6.0,456.3838579924777,8.0,1.0,phase_2,stop,500.0,550.0,3.0,,,,,,,,,orange,hexagon
0.0,3.0,2.0,0.0,6.0,6.0,677.3550880025141,8.0,1.0,phase_2,go,500.0,500.0,1.0,,,,,,,,,green,diamond
0.0,1.0,0.5,0.0,7.0,6.0,4209.643267997308,1.0,2.0,phase_3,,,,,195.0,5.0,117.0,234.0,156.0,78.0,39.0,195.0,gray,triangle
0.0,5.0,0.5,1.0,7.0,2.0,496.0038959980011,1.0,3.0,phase_3,,,,,220.0,5.0,44.0,220.0,88.0,176.0,132.0,264.0,white,square
0.0,1.0,0.5,0.0,7.0,6.0,529.6946299786214,1.0,2.0,phase_3,,,,,216.0,4.0,324.0,270.0,162.0,54.0,108.0,216.0,gray,triangle
0.0,2.0,1.0,0.0,7.0,5.0,4589.135096990503,1.0,1.0,phase_3,,,,,245.0,5.0,49.0,294.0,98.0,196.0,245.0,147.0,yellow,I
0.0,6.0,1.0,1.0,7.0,6.0,458.0959879967849,1.0,2.0,phase_3,,,,,220.0,5.0,176.0,88.0,132.0,264.0,44.0,220.0,magenta,circle
0.0,4.0,4.0,0.0,7.0,6.0,3274.4447970180768,1.0,2.0,phase_3,,,,,245.0,5.0,147.0,49.0,98.0,294.0,196.0,245.0,blue,cross
0.0,2.0,1.0,0.0,7.0,6.0,1182.1770789974837,1.0,2.0,phase_3,,,,,216.0,4.0,108.0,270.0,54.0,324.0,162.0,216.0,yellow,I
0.0,6.0,1.0,1.0,7.0,3.0,4882.511570001952,1.0,2.0,phase_3,,,,,196.0,4.0,245.0,98.0,196.0,294.0,49.0,147.0,magenta,circle
0.0,6.0,1.0,1.0,7.0,3.0,1825.704200018663,1.0,1.0,phase_3,,,,,156.0,4.0,78.0,234.0,156.0,195.0,117.0,39.0,magenta,circle
0.0,2.0,1.0,0.0,7.0,2.0,569.0925380040426,1.0,3.0,phase_3,,,,,176.0,4.0,88.0,176.0,132.0,220.0,44.0,264.0,yellow,I
0.0,3.0,2.0,0.0,7.0,3.0,3112.7460120187607,1.0,1.0,phase_3,,,,,195.0,5.0,234.0,117.0,195.0,156.0,39.0,78.0,green,diamond
0.0,2.0,1.0,0.0,7.0,2.0,3849.262024014024,1.0,1.0,phase_3,,,,,204.0,6.0,102.0,204.0,170.0,68.0,34.0,136.0,yellow,I
0.0,7.0,2.0,1.0,7.0,2.0,3562.726317002671,1.0,2.0,phase_3,,,,,170.0,5.0,68.0,170.0,136.0,204.0,102.0,34.0,orange,hexagon
0.0,6.0,1.0,1.0,7.0,5.0,4237.090907001402,1.0,1.0,phase_3,,,,,204.0,6.0,34.0,102.0,136.0,170.0,204.0,68.0,magenta,circle
0.0,7.0,2.0,1.0,7.0,3.0,4624.636464985088,1.0,1.0,phase_3,,,,,216.0,4.0,270.0,54.0,216.0,108.0,324.0,162.0,orange,hexagon
0.0,8.0,4.0,1.0,7.0,6.0,3264.6921980194747,1.0,1.0,phase_3,,,,,216.0,4.0,270.0,54.0,162.0,324.0,108.0,216.0,cyan,flipped triangle
0.0,8.0,4.0,1.0,7.0,6.0,4928.959780023433,1.0,1.0,phase_3,,,,,216.0,4.0,162.0,324.0,54.0,108.0,270.0,216.0,cyan,flipped triangle
0.0,3.0,2.0,0.0,7.0,1.0,3880.213520984398,1.0,1.0,phase_3,,,,,195.0,5.0,195.0,117.0,39.0,234.0,78.0,156.0,green,diamond
0.0,5.0,0.5,1.0,7.0,6.0,3509.5875700062606,1.0,1.0,phase_3,,,,,195.0,5.0,78.0,156.0,234.0,117.0,39.0,195.0,white,square
0.0,4.0,4.0,0.0,7.0,4.0,4268.688899988774,1.0,1.0,phase_3,,,,,216.0,4.0,108.0,270.0,162.0,216.0,54.0,324.0,blue,cross
0.0,1.0,0.5,0.0,7.0,6.0,2596.524246997433,2.0,1.0,phase_3,,,,,170.0,5.0,204.0,68.0,102.0,136.0,34.0,170.0,gray,triangle
0.0,8.0,4.0,1.0,7.0,5.0,3487.452779983869,2.0,1.0,phase_3,,,,,204.0,6.0,68.0,170.0,136.0,102.0,204.0,34.0,cyan,flipped triangle
0.0,3.0,2.0,0.0,7.0,2.0,1999.0131339873187,2.0,2.0,phase_3,,,,,220.0,5.0,44.0,220.0,132.0,88.0,264.0,176.0,green,diamond
0.0,5.0,0.5,1.0,7.0,5.0,2418.507926980965,2.0,1.0,phase_3,,,,,204.0,6.0,34.0,68.0,102.0,136.0,204.0,170.0,white,square
0.0,1.0,0.5,0.0,7.0,3.0,2316.552240983583,2.0,2.0,phase_3,,,,,220.0,5.0,44.0,132.0,220.0,264.0,176.0,88.0,gray,triangle
0.0,4.0,4.0,0.0,7.0,1.0,367.7421100146603,2.0,2.0,phase_3,,,,,234.0,6.0,234.0,156.0,78.0,195.0,39.0,117.0,blue,cross
0.0,6.0,1.0,1.0,7.0,3.0,1638.1221699994055,2.0,1.0,phase_3,,,,,68.0,2.0,136.0,204.0,68.0,102.0,170.0,34.0,magenta,circle
0.0,3.0,2.0,0.0,7.0,3.0,4241.650790994754,2.0,1.0,phase_3,,,,,216.0,4.0,162.0,108.0,216.0,54.0,324.0,270.0,green,diamond
0.0,8.0,4.0,1.0,7.0,4.0,3318.6075830017217,2.0,1.0,phase_3,,,,,195.0,5.0,78.0,156.0,234.0,195.0,39.0,117.0,cyan,flipped triangle
0.0,5.0,0.5,1.0,7.0,3.0,1604.9305420019664,2.0,1.0,phase_3,,,,,195.0,5.0,156.0,117.0,195.0,78.0,39.0,234.0,white,square
0.0,3.0,2.0,0.0,7.0,2.0,2360.2420649840496,2.0,1.0,phase_3,,,,,196.0,4.0,147.0,196.0,294.0,98.0,245.0,49.0,green,diamond
0.0,2.0,1.0,0.0,7.0,6.0,3313.880725996569,2.0,1.0,phase_3,,,,,196.0,4.0,245.0,49.0,98.0,294.0,147.0,196.0,yellow,I
0.0,6.0,1.0,1.0,7.0,6.0,4010.8095389732634,2.0,1.0,phase_3,,,,,216.0,4.0,54.0,270.0,108.0,162.0,324.0,216.0,magenta,circle
0.0,1.0,0.5,0.0,7.0,2.0,1898.7924520042725,2.0,1.0,phase_3,,,,,204.0,6.0,68.0,204.0,102.0,34.0,136.0,170.0,gray,triangle
0.0,8.0,4.0,1.0,7.0,2.0,1699.7092269884888,2.0,1.0,phase_3,,,,,196.0,4.0,49.0,196.0,245.0,147.0,98.0,294.0,cyan,flipped triangle
0.0,4.0,4.0,0.0,7.0,2.0,2914.7042199911084,2.0,1.0,phase_3,,,,,234.0,6.0,39.0,234.0,78.0,156.0,195.0,117.0,blue,cross
0.0,5.0,0.5,1.0,7.0,6.0,2887.880164984381,2.0,1.0,phase_3,,,,,220.0,5.0,132.0,44.0,88.0,264.0,176.0,220.0,white,square
0.0,2.0,1.0,0.0,7.0,6.0,3104.7137299901806,2.0,1.0,phase_3,,,,,216.0,4.0,54.0,108.0,270.0,162.0,324.0,216.0,yellow,I
0.0,7.0,2.0,1.0,7.0,5.0,2608.7440550036263,2.0,1.0,phase_3,,,,,220.0,5.0,176.0,132.0,44.0,88.0,220.0,264.0,orange,hexagon
0.0,8.0,4.0,1.0,7.0,4.0,3808.8629950070754,2.0,1.0,phase_3,,,,,196.0,4.0,294.0,245.0,98.0,196.0,49.0,147.0,cyan,flipped triangle
0.0,7.0,2.0,1.0,7.0,1.0,2899.439986998914,3.0,1.0,phase_3,,,,,204.0,6.0,204.0,102.0,68.0,34.0,170.0,136.0,orange,hexagon
0.0,8.0,4.0,1.0,7.0,3.0,2743.055038008606,3.0,1.0,phase_3,,,,,220.0,5.0,264.0,88.0,220.0,132.0,44.0,176.0,cyan,flipped triangle
0.0,2.0,1.0,0.0,7.0,3.0,3834.079769003438,3.0,1.0,phase_3,,,,,220.0,5.0,44.0,132.0,220.0,264.0,176.0,88.0,yellow,I
0.0,5.0,0.5,1.0,7.0,5.0,4871.962635021191,3.0,1.0,phase_3,,,,,245.0,5.0,147.0,98.0,294.0,196.0,245.0,49.0,white,square
0.0,4.0,4.0,0.0,7.0,3.0,2125.4072060110047,3.0,1.0,phase_3,,,,,204.0,6.0,102.0,136.0,204.0,34.0,68.0,170.0,blue,cross
0.0,1.0,0.5,0.0,7.0,6.0,4446.8125690182205,3.0,1.0,phase_3,,,,,245.0,5.0,98.0,147.0,294.0,49.0,196.0,245.0,gray,triangle
0.0,2.0,1.0,0.0,7.0,6.0,3425.2316589991096,3.0,1.0,phase_3,,,,,102.0,3.0,34.0,68.0,204.0,170.0,136.0,102.0,yellow,I
0.0,6.0,1.0,1.0,7.0,1.0,4762.4744969944,3.0,1.0,phase_3,,,,,216.0,4.0,216.0,54.0,324.0,270.0,108.0,162.0,magenta,circle
0.0,1.0,0.5,0.0,7.0,1.0,4573.74105299823,3.0,1.0,phase_3,,,,,234.0,6.0,234.0,195.0,156.0,117.0,78.0,39.0,gray,triangle
0.0,7.0,2.0,1.0,7.0,1.0,4035.073053993983,3.0,1.0,phase_3,,,,,216.0,4.0,216.0,270.0,162.0,108.0,324.0,54.0,orange,hexagon
0.0,3.0,2.0,0.0,7.0,2.0,4201.951734983595,3.0,1.0,phase_3,,,,,204.0,6.0,102.0,204.0,170.0,68.0,136.0,34.0,green,diamond
0.0,4.0,4.0,0.0,7.0,3.0,2942.065909999656,3.0,1.0,phase_3,,,,,220.0,5.0,132.0,44.0,220.0,176.0,88.0,264.0,blue,cross
0.0,8.0,4.0,1.0,7.0,2.0,2520.557745010592,3.0,1.0,phase_3,,,,,204.0,6.0,170.0,204.0,34.0,68.0,102.0,136.0,cyan,flipped triangle
0.0,4.0,4.0,0.0,7.0,2.0,2095.852811005898,3.0,1.0,phase_3,,,,,204.0,6.0,102.0,204.0,68.0,136.0,170.0,34.0,blue,cross
0.0,1.0,0.5,0.0,7.0,5.0,2740.4538450064138,3.0,1.0,phase_3,,,,,216.0,4.0,270.0,324.0,54.0,162.0,216.0,108.0,gray,triangle
0.0,4.0,4.0,0.0,7.0,6.0,2587.025285989512,3.0,1.0,phase_3,,,,,220.0,5.0,264.0,132.0,88.0,176.0,44.0,220.0,blue,cross
0.0,1.0,0.5,0.0,7.0,5.0,4271.913118980592,3.0,1.0,phase_3,,,,,220.0,5.0,44.0,264.0,176.0,88.0,220.0,132.0,gray,triangle
0.0,8.0,4.0,1.0,7.0,1.0,3032.357895019232,3.0,1.0,phase_3,,,,,220.0,5.0,220.0,44.0,176.0,88.0,132.0,264.0,cyan,flipped triangle
0.0,6.0,1.0,1.0,7.0,3.0,2756.1924399924465,3.0,2.0,phase_3,,,,,245.0,5.0,49.0,98.0,245.0,294.0,196.0,147.0,magenta,circle
0.0,1.0,0.5,0.0,7.0,6.0,4694.079222012078,3.0,1.0,phase_3,,,,,245.0,5.0,49.0,147.0,196.0,294.0,98.0,245.0,gray,triangle
0.0,3.0,2.0,0.0,7.0,1.0,4498.632881994126,4.0,1.0,phase_3,,,,,245.0,5.0,245.0,49.0,98.0,294.0,147.0,196.0,green,diamond
0.0,7.0,2.0,1.0,7.0,3.0,3643.5825359949376,4.0,1.0,phase_3,,,,,234.0,6.0,156.0,117.0,234.0,39.0,195.0,78.0,orange,hexagon
0.0,7.0,2.0,1.0,7.0,4.0,4791.929819999496,4.0,1.0,phase_3,,,,,234.0,6.0,78.0,195.0,117.0,234.0,39.0,156.0,orange,hexagon
0.0,5.0,0.5,1.0,7.0,6.0,3261.6880040150136,4.0,1.0,phase_3,,,,,216.0,4.0,162.0,270.0,108.0,54.0,324.0,216.0,white,square
0.0,3.0,2.0,0.0,7.0,2.0,4861.723947018618,4.0,2.0,phase_3,,,,,216.0,4.0,270.0,216.0,108.0,324.0,162.0,54.0,green,diamond
0.0,7.0,2.0,1.0,7.0,6.0,3045.6962490279693,4.0,2.0,phase_3,,,,,245.0,5.0,147.0,294.0,49.0,98.0,196.0,245.0,orange,hexagon
0.0,2.0,1.0,0.0,7.0,2.0,941.3041929947212,4.0,2.0,phase_3,,,,,195.0,5.0,78.0,195.0,234.0,39.0,117.0,156.0,yellow,I
0.0,4.0,4.0,0.0,7.0,1.0,4233.179183007451,4.0,1.0,phase_3,,,,,245.0,5.0,245.0,196.0,147.0,98.0,294.0,49.0,blue,cross
0.0,4.0,4.0,0.0,7.0,6.0,3717.410326993559,4.0,1.0,phase_3,,,,,216.0,4.0,108.0,162.0,324.0,270.0,54.0,216.0,blue,cross
0.0,6.0,1.0,1.0,7.0,1.0,4168.335307011148,4.0,1.0,phase_3,,,,,156.0,4.0,156.0,117.0,234.0,39.0,195.0,78.0,magenta,circle
0.0,5.0,0.5,1.0,7.0,4.0,3980.751536990283,4.0,1.0,phase_3,,,,,216.0,4.0,108.0,54.0,324.0,216.0,162.0,270.0,white,square
0.0,8.0,4.0,1.0,7.0,6.0,773.1807490054052,4.0,2.0,phase_3,,,,,195.0,5.0,156.0,78.0,117.0,39.0,234.0,195.0,cyan,flipped triangle
0.0,2.0,1.0,0.0,7.0,3.0,690.5738550121896,4.0,2.0,phase_3,,,,,195.0,5.0,117.0,39.0,195.0,234.0,156.0,78.0,yellow,I
0.0,3.0,2.0,0.0,7.0,1.0,637.3170470178593,4.0,2.0,phase_3,,,,,170.0,5.0,170.0,102.0,136.0,204.0,68.0,34.0,green,diamond
0.0,7.0,2.0,1.0,7.0,2.0,3485.309050010983,4.0,2.0,phase_3,,,,,220.0,5.0,264.0,220.0,88.0,176.0,44.0,132.0,orange,hexagon
0.0,7.0,2.0,1.0,7.0,3.0,3669.1967160149934,4.0,1.0,phase_3,,,,,196.0,4.0,147.0,294.0,196.0,98.0,49.0,245.0,orange,hexagon
0.0,6.0,1.0,1.0,7.0,2.0,4042.1184260048904,4.0,1.0,phase_3,,,,,220.0,5.0,264.0,220.0,176.0,44.0,132.0,88.0,magenta,circle
0.0,5.0,0.5,1.0,7.0,4.0,685.2860720246099,4.0,3.0,phase_3,,,,,196.0,4.0,294.0,147.0,49.0,196.0,245.0,98.0,white,square
0.0,5.0,0.5,1.0,7.0,5.0,1857.4272989935707,4.0,2.0,phase_3,,,,,204.0,6.0,34.0,170.0,136.0,68.0,204.0,102.0,white,square
0.0,3.0,2.0,0.0,7.0,2.0,3163.786083983723,4.0,1.0,phase_3,,,,,220.0,5.0,176.0,220.0,132.0,88.0,264.0,44.0,green,diamond
