raw_reward_magnitude,stim_reward,stepwise_reward_magnitude,paired_with_stopping,stim_location,response,reaction_time,block,num_trial_presentations,which_phase,stop_signal_trial_type,left_SSD,right_SSD,accuracy,chosen_bidding_amount,chosen_bidding_level,possible_bid_1,possible_bid_2,possible_bid_3,possible_bid_4,possible_bid_5,possible_bid_6,color_text,shape_text
40.0,1.0,0.5,0.0,3.0,3.0,296.2197950109839,1.0,1.0,phase_1,,,,,,,,,,,,,yellow,diamond
0.0,4.0,0.0,0.0,2.0,2.0,364.5080330315977,1.0,1.0,phase_1,,,,,,,,,,,,,cyan,I
0.0,4.0,0.0,0.0,3.0,3.0,265.5098070390522,1.0,1.0,phase_1,,,,,,,,,,,,,cyan,I
0.0,7.0,0.0,1.0,4.0,4.0,234.2228770139627,1.0,1.0,phase_1,,,,,,,,,,,,,green,cross
207.0,3.0,2.0,0.0,3.0,3.0,278.968769009225,1.0,1.0,phase_1,,,,,,,,,,,,,gray,hexagon
0.0,1.0,0.0,0.0,3.0,3.0,256.7494380054995,1.0,1.0,phase_1,,,,,,,,,,,,,yellow,diamond
0.0,5.0,0.0,1.0,1.0,1.0,292.2151889652014,1.0,1.0,phase_1,,,,,,,,,,,,,magenta,circle
45.0,1.0,0.5,0.0,4.0,4.0,291.6270220302976,1.0,1.0,phase_1,,,,,,,,,,,,,yellow,diamond
411.0,4.0,4.0,0.0,4.0,4.0,311.8371479795314,1.0,1.0,phase_1,,,,,,,,,,,,,cyan,I
87.0,6.0,1.0,1.0,1.0,1.0,333.4980189683847,1.0,1.0,phase_1,,,,,,,,,,,,,orange,triangle
0.0,2.0,0.0,0.0,1.0,1.0,336.9861069950275,1.0,1.0,phase_1,,,,,,,,,,,,,blue,flipped triangle
119.0,2.0,1.0,0.0,2.0,2.0,269.8135270038619,1.0,1.0,phase_1,,,,,,,,,,,,,blue,flipped triangle
394.0,8.0,4.0,1.0,1.0,1.0,298.4072280232794,1.0,1.0,phase_1,,,,,,,,,,,,,white,square
0.0,2.0,0.0,0.0,3.0,3.0,287.1178349596448,1.0,1.0,phase_1,,,,,,,,,,,,,blue,flipped triangle
54.0,5.0,0.5,1.0,1.0,1.0,301.2645219569094,1.0,1.0,phase_1,,,,,,,,,,,,,magenta,circle
213.0,7.0,2.0,1.0,3.0,3.0,241.7231370345689,1.0,1.0,phase_1,,,,,,,,,,,,,green,cross
0.0,6.0,0.0,1.0,4.0,4.0,340.071138984058,1.0,1.0,phase_1,,,,,,,,,,,,,orange,triangle
0.0,1.0,0.0,0.0,1.0,1.0,290.0337259634398,1.0,1.0,phase_1,,,,,,,,,,,,,yellow,diamond
379.0,8.0,4.0,1.0,3.0,3.0,253.13007301883772,1.0,1.0,phase_1,,,,,,,,,,,,,white,square
199.0,3.0,2.0,0.0,4.0,4.0,349.4089110172353,1.0,1.0,phase_1,,,,,,,,,,,,,gray,hexagon
45.0,1.0,0.5,0.0,2.0,2.0,254.2703030048869,1.0,1.0,phase_1,,,,,,,,,,,,,yellow,diamond
413.0,8.0,4.0,1.0,4.0,4.0,286.9594909716397,1.0,1.0,phase_1,,,,,,,,,,,,,white,square
404.0,4.0,4.0,0.0,4.0,4.0,275.0125780003145,1.0,1.0,phase_1,,,,,,,,,,,,,cyan,I
221.0,3.0,2.0,0.0,1.0,1.0,292.8409969899803,1.0,1.0,phase_1,,,,,,,,,,,,,gray,hexagon
216.0,3.0,2.0,0.0,2.0,2.0,344.5187920005992,1.0,1.0,phase_1,,,,,,,,,,,,,gray,hexagon
0.0,2.0,0.0,0.0,4.0,4.0,303.614510979969,1.0,1.0,phase_1,,,,,,,,,,,,,blue,flipped triangle
194.0,7.0,2.0,1.0,3.0,3.0,266.0955800092779,1.0,1.0,phase_1,,,,,,,,,,,,,green,cross
91.0,2.0,1.0,0.0,3.0,3.0,249.4142579962499,1.0,1.0,phase_1,,,,,,,,,,,,,blue,flipped triangle
99.0,2.0,1.0,0.0,1.0,1.0,254.22919500851998,1.0,1.0,phase_1,,,,,,,,,,,,,blue,flipped triangle
55.0,1.0,0.5,0.0,1.0,1.0,299.4265820016153,1.0,1.0,phase_1,,,,,,,,,,,,,yellow,diamond
107.0,6.0,1.0,1.0,2.0,2.0,320.2027889783494,1.0,1.0,phase_1,,,,,,,,,,,,,orange,triangle
416.0,8.0,4.0,1.0,1.0,1.0,267.2969290288165,1.0,1.0,phase_1,,,,,,,,,,,,,white,square
57.0,1.0,0.5,0.0,2.0,2.0,222.175118047744,1.0,1.0,phase_1,,,,,,,,,,,,,yellow,diamond
408.0,4.0,4.0,0.0,2.0,2.0,278.130577004049,1.0,1.0,phase_1,,,,,,,,,,,,,cyan,I
38.0,5.0,0.5,1.0,4.0,4.0,314.7756720427423,1.0,1.0,phase_1,,,,,,,,,,,,,magenta,circle
65.0,5.0,0.5,1.0,1.0,1.0,280.3106209612451,1.0,1.0,phase_1,,,,,,,,,,,,,magenta,circle
0.0,5.0,0.0,1.0,4.0,4.0,314.0062029706314,1.0,1.0,phase_1,,,,,,,,,,,,,magenta,circle
0.0,3.0,0.0,0.0,1.0,1.0,269.4161150138825,1.0,1.0,phase_1,,,,,,,,,,,,,gray,hexagon
0.0,3.0,0.0,0.0,4.0,4.0,282.4145620106719,1.0,1.0,phase_1,,,,,,,,,,,,,gray,hexagon
65.0,5.0,0.5,1.0,2.0,2.0,249.7945329523645,1.0,1.0,phase_1,,,,,,,,,,,,,magenta,circle
222.0,3.0,2.0,0.0,4.0,4.0,269.7658810066059,1.0,1.0,phase_1,,,,,,,,,,,,,gray,hexagon
394.0,4.0,4.0,0.0,3.0,3.0,283.265256031882,1.0,1.0,phase_1,,,,,,,,,,,,,cyan,I
421.0,4.0,4.0,0.0,1.0,1.0,253.50294698728248,1.0,1.0,phase_1,,,,,,,,,,,,,cyan,I
54.0,5.0,0.5,1.0,1.0,1.0,274.8383129946887,1.0,1.0,phase_1,,,,,,,,,,,,,magenta,circle
63.0,5.0,0.5,1.0,2.0,2.0,217.53709198674179,1.0,1.0,phase_1,,,,,,,,,,,,,magenta,circle
101.0,2.0,1.0,0.0,2.0,2.0,327.0358580048196,1.0,1.0,phase_1,,,,,,,,,,,,,blue,flipped triangle
206.0,3.0,2.0,0.0,4.0,4.0,368.6024580383673,1.0,1.0,phase_1,,,,,,,,,,,,,gray,hexagon
194.0,7.0,2.0,1.0,4.0,4.0,470.5128879868425,1.0,1.0,phase_1,,,,,,,,,,,,,green,cross
411.0,4.0,4.0,0.0,1.0,1.0,283.7762159761041,1.0,1.0,phase_1,,,,,,,,,,,,,cyan,I
0.0,2.0,0.0,0.0,1.0,1.0,249.5633669896051,1.0,1.0,phase_1,,,,,,,,,,,,,blue,flipped triangle
43.0,1.0,0.5,0.0,4.0,4.0,291.3634980213828,1.0,1.0,phase_1,,,,,,,,,,,,,yellow,diamond
89.0,2.0,1.0,0.0,4.0,4.0,402.0139359636232,1.0,1.0,phase_1,,,,,,,,,,,,,blue,flipped triangle
394.0,8.0,4.0,1.0,2.0,2.0,246.6568120289594,1.0,1.0,phase_1,,,,,,,,,,,,,white,square
0.0,8.0,0.0,1.0,3.0,3.0,299.6688060229644,1.0,1.0,phase_1,,,,,,,,,,,,,white,square
377.0,4.0,4.0,0.0,3.0,3.0,401.7437949660234,1.0,1.0,phase_1,,,,,,,,,,,,,cyan,I
97.0,2.0,1.0,0.0,2.0,2.0,260.6321320054121,1.0,1.0,phase_1,,,,,,,,,,,,,blue,flipped triangle
122.0,2.0,1.0,0.0,2.0,2.0,238.4746259776875,1.0,1.0,phase_1,,,,,,,,,,,,,blue,flipped triangle
0.0,3.0,0.0,0.0,3.0,3.0,259.5705830026418,1.0,1.0,phase_1,,,,,,,,,,,,,gray,hexagon
68.0,1.0,0.5,0.0,3.0,3.0,259.2555370065383,1.0,1.0,phase_1,,,,,,,,,,,,,yellow,diamond
113.0,6.0,1.0,1.0,3.0,3.0,220.8353890455328,1.0,1.0,phase_1,,,,,,,,,,,,,orange,triangle
380.0,8.0,4.0,1.0,2.0,2.0,251.54981901869178,1.0,1.0,phase_1,,,,,,,,,,,,,white,square
183.0,3.0,2.0,0.0,1.0,1.0,291.2713139667175,1.0,2.0,phase_1,,,,,,,,,,,,,gray,hexagon
189.0,3.0,2.0,0.0,1.0,1.0,311.5658009774051,1.0,1.0,phase_1,,,,,,,,,,,,,gray,hexagon
400.0,4.0,4.0,0.0,4.0,4.0,246.5952190104872,1.0,1.0,phase_1,,,,,,,,,,,,,cyan,I
0.0,6.0,0.0,1.0,4.0,4.0,305.4988310323097,1.0,1.0,phase_1,,,,,,,,,,,,,orange,triangle
89.0,6.0,1.0,1.0,2.0,2.0,231.3554990105331,1.0,1.0,phase_1,,,,,,,,,,,,,orange,triangle
75.0,6.0,1.0,1.0,4.0,4.0,227.2643159958534,1.0,1.0,phase_1,,,,,,,,,,,,,orange,triangle
214.0,3.0,2.0,0.0,4.0,4.0,304.7282429761253,1.0,1.0,phase_1,,,,,,,,,,,,,gray,hexagon
382.0,4.0,4.0,0.0,3.0,3.0,275.4936920246109,1.0,1.0,phase_1,,,,,,,,,,,,,cyan,I
0.0,8.0,0.0,1.0,1.0,1.0,329.2496890062466,1.0,1.0,phase_1,,,,,,,,,,,,,white,square
202.0,3.0,2.0,0.0,1.0,1.0,246.8193129752762,1.0,1.0,phase_1,,,,,,,,,,,,,gray,hexagon
119.0,6.0,1.0,1.0,4.0,4.0,281.9963329820893,1.0,1.0,phase_1,,,,,,,,,,,,,orange,triangle
0.0,7.0,0.0,1.0,1.0,1.0,554.2341530090198,1.0,1.0,phase_1,,,,,,,,,,,,,green,cross
45.0,5.0,0.5,1.0,4.0,4.0,307.6894120313227,1.0,1.0,phase_1,,,,,,,,,,,,,magenta,circle
381.0,8.0,4.0,1.0,4.0,4.0,258.3690489991568,1.0,1.0,phase_1,,,,,,,,,,,,,white,square
0.0,5.0,0.0,1.0,2.0,2.0,358.3853699965402,1.0,1.0,phase_1,,,,,,,,,,,,,magenta,circle
100.0,2.0,1.0,0.0,1.0,1.0,376.900919014588,1.0,1.0,phase_1,,,,,,,,,,,,,blue,flipped triangle
0.0,1.0,0.0,0.0,1.0,1.0,333.8447209680453,1.0,1.0,phase_1,,,,,,,,,,,,,yellow,diamond
105.0,6.0,1.0,1.0,1.0,1.0,253.6470530321821,1.0,1.0,phase_1,,,,,,,,,,,,,orange,triangle
415.0,4.0,4.0,0.0,4.0,4.0,274.9147149734199,1.0,1.0,phase_1,,,,,,,,,,,,,cyan,I
122.0,6.0,1.0,1.0,1.0,1.0,284.8618680145591,1.0,1.0,phase_1,,,,,,,,,,,,,orange,triangle
0.0,3.0,0.0,0.0,3.0,3.0,293.8767190207727,1.0,2.0,phase_1,,,,,,,,,,,,,gray,hexagon
421.0,8.0,4.0,1.0,2.0,2.0,277.1528490120545,1.0,1.0,phase_1,,,,,,,,,,,,,white,square
115.0,2.0,1.0,0.0,1.0,1.0,351.3234879937954,1.0,1.0,phase_1,,,,,,,,,,,,,blue,flipped triangle
84.0,6.0,1.0,1.0,3.0,3.0,318.8323730137199,1.0,1.0,phase_1,,,,,,,,,,,,,orange,triangle
82.0,6.0,1.0,1.0,3.0,3.0,354.4027250027284,1.0,1.0,phase_1,,,,,,,,,,,,,orange,triangle
206.0,3.0,2.0,0.0,4.0,4.0,326.6837589908391,1.0,1.0,phase_1,,,,,,,,,,,,,gray,hexagon
199.0,7.0,2.0,1.0,4.0,4.0,290.3614640235901,1.0,1.0,phase_1,,,,,,,,,,,,,green,cross
0.0,7.0,0.0,1.0,4.0,4.0,342.9563629906624,1.0,1.0,phase_1,,,,,,,,,,,,,green,cross
110.0,6.0,1.0,1.0,4.0,4.0,293.1334410095587,1.0,1.0,phase_1,,,,,,,,,,,,,orange,triangle
101.0,2.0,1.0,0.0,1.0,1.0,419.12844398757437,1.0,1.0,phase_1,,,,,,,,,,,,,blue,flipped triangle
55.0,5.0,0.5,1.0,4.0,4.0,332.1889680228196,1.0,1.0,phase_1,,,,,,,,,,,,,magenta,circle
200.0,7.0,2.0,1.0,2.0,2.0,243.804476049263,1.0,1.0,phase_1,,,,,,,,,,,,,green,cross
201.0,7.0,2.0,1.0,2.0,2.0,287.4200469814241,1.0,1.0,phase_1,,,,,,,,,,,,,green,cross
38.0,1.0,0.5,0.0,3.0,3.0,355.3237739834003,1.0,1.0,phase_1,,,,,,,,,,,,,yellow,diamond
0.0,8.0,0.0,1.0,1.0,1.0,343.987611006014,1.0,1.0,phase_1,,,,,,,,,,,,,white,square
0.0,5.0,0.0,1.0,2.0,2.0,283.8012489955872,1.0,1.0,phase_1,,,,,,,,,,,,,magenta,circle
0.0,6.0,0.0,1.0,4.0,4.0,267.0304640196264,1.0,1.0,phase_1,,,,,,,,,,,,,orange,triangle
177.0,3.0,2.0,0.0,4.0,4.0,320.9394439472817,1.0,1.0,phase_1,,,,,,,,,,,,,gray,hexagon
395.0,8.0,4.0,1.0,2.0,2.0,276.228828006424,1.0,1.0,phase_1,,,,,,,,,,,,,white,square
33.0,1.0,0.5,0.0,3.0,3.0,285.7953039929271,2.0,1.0,phase_1,,,,,,,,,,,,,yellow,diamond
410.0,8.0,4.0,1.0,4.0,4.0,294.1411990323104,2.0,1.0,phase_1,,,,,,,,,,,,,white,square
0.0,6.0,0.0,1.0,4.0,4.0,281.8406030419282,2.0,1.0,phase_1,,,,,,,,,,,,,orange,triangle
394.0,4.0,4.0,0.0,4.0,4.0,260.3324630181305,2.0,1.0,phase_1,,,,,,,,,,,,,cyan,I
0.0,8.0,0.0,1.0,1.0,1.0,297.7605350315571,2.0,1.0,phase_1,,,,,,,,,,,,,white,square
61.0,1.0,0.5,0.0,4.0,4.0,294.4813380017876,2.0,1.0,phase_1,,,,,,,,,,,,,yellow,diamond
0.0,4.0,0.0,0.0,4.0,4.0,282.4265729868784,2.0,1.0,phase_1,,,,,,,,,,,,,cyan,I
68.0,1.0,0.5,0.0,2.0,2.0,289.0095370239578,2.0,1.0,phase_1,,,,,,,,,,,,,yellow,diamond
0.0,4.0,0.0,0.0,2.0,2.0,355.7808820041828,2.0,1.0,phase_1,,,,,,,,,,,,,cyan,I
0.0,5.0,0.0,1.0,1.0,1.0,308.3147719735279,2.0,2.0,phase_1,,,,,,,,,,,,,magenta,circle
206.0,3.0,2.0,0.0,1.0,1.0,332.3577960254624,2.0,1.0,phase_1,,,,,,,,,,,,,gray,hexagon
0.0,5.0,0.0,1.0,3.0,3.0,365.2512190164998,2.0,1.0,phase_1,,,,,,,,,,,,,magenta,circle
55.0,5.0,0.5,1.0,1.0,1.0,306.9301819778047,2.0,1.0,phase_1,,,,,,,,,,,,,magenta,circle
380.0,8.0,4.0,1.0,2.0,2.0,290.1484449976124,2.0,1.0,phase_1,,,,,,,,,,,,,white,square
177.0,7.0,2.0,1.0,3.0,3.0,284.0901060262695,2.0,1.0,phase_1,,,,,,,,,,,,,green,cross
47.0,1.0,0.5,0.0,1.0,1.0,410.2514049736783,2.0,1.0,phase_1,,,,,,,,,,,,,yellow,diamond
37.0,5.0,0.5,1.0,4.0,4.0,372.7547360467724,2.0,1.0,phase_1,,,,,,,,,,,,,magenta,circle
377.0,8.0,4.0,1.0,4.0,4.0,332.0964170270599,2.0,1.0,phase_1,,,,,,,,,,,,,white,square
0.0,7.0,0.0,1.0,2.0,2.0,285.8899270067923,2.0,1.0,phase_1,,,,,,,,,,,,,green,cross
105.0,6.0,1.0,1.0,1.0,1.0,653.9581749821082,2.0,1.0,phase_1,,,,,,,,,,,,,orange,triangle
65.0,1.0,0.5,0.0,4.0,4.0,305.8759359992109,2.0,1.0,phase_1,,,,,,,,,,,,,yellow,diamond
83.0,2.0,1.0,0.0,3.0,3.0,285.4101600241847,2.0,1.0,phase_1,,,,,,,,,,,,,blue,flipped triangle
0.0,4.0,0.0,0.0,3.0,3.0,291.0473680240102,2.0,1.0,phase_1,,,,,,,,,,,,,cyan,I
72.0,1.0,0.5,0.0,3.0,3.0,265.3377850074321,2.0,1.0,phase_1,,,,,,,,,,,,,yellow,diamond
85.0,6.0,1.0,1.0,2.0,2.0,317.9749110131524,2.0,1.0,phase_1,,,,,,,,,,,,,orange,triangle
33.0,5.0,0.5,1.0,2.0,2.0,374.6984860044904,2.0,1.0,phase_1,,,,,,,,,,,,,magenta,circle
181.0,7.0,2.0,1.0,2.0,2.0,261.7938219918869,2.0,1.0,phase_1,,,,,,,,,,,,,green,cross
176.0,7.0,2.0,1.0,3.0,3.0,401.0892770020291,2.0,1.0,phase_1,,,,,,,,,,,,,green,cross
39.0,5.0,0.5,1.0,4.0,4.0,302.5747099891305,2.0,1.0,phase_1,,,,,,,,,,,,,magenta,circle
188.0,3.0,2.0,0.0,3.0,3.0,301.7312029842287,2.0,1.0,phase_1,,,,,,,,,,,,,gray,hexagon
122.0,6.0,1.0,1.0,4.0,4.0,302.5930380099453,2.0,1.0,phase_1,,,,,,,,,,,,,orange,triangle
85.0,2.0,1.0,0.0,3.0,3.0,294.6451620082371,2.0,1.0,phase_1,,,,,,,,,,,,,blue,flipped triangle
30.0,1.0,0.5,0.0,4.0,4.0,304.4550009653903,2.0,1.0,phase_1,,,,,,,,,,,,,yellow,diamond
0.0,2.0,0.0,0.0,2.0,2.0,285.4985659942031,2.0,1.0,phase_1,,,,,,,,,,,,,blue,flipped triangle
120.0,6.0,1.0,1.0,4.0,4.0,308.9070169953629,2.0,1.0,phase_1,,,,,,,,,,,,,orange,triangle
54.0,1.0,0.5,0.0,1.0,1.0,353.096324019134,2.0,1.0,phase_1,,,,,,,,,,,,,yellow,diamond
411.0,8.0,4.0,1.0,3.0,3.0,325.7825750042684,2.0,1.0,phase_1,,,,,,,,,,,,,white,square
409.0,8.0,4.0,1.0,4.0,4.0,315.0163380196318,2.0,1.0,phase_1,,,,,,,,,,,,,white,square
181.0,7.0,2.0,1.0,4.0,4.0,307.8876189538277,2.0,1.0,phase_1,,,,,,,,,,,,,green,cross
0.0,3.0,0.0,0.0,4.0,4.0,314.42747998517,2.0,1.0,phase_1,,,,,,,,,,,,,gray,hexagon
118.0,6.0,1.0,1.0,1.0,1.0,344.9521890142932,2.0,1.0,phase_1,,,,,,,,,,,,,orange,triangle
122.0,2.0,1.0,0.0,3.0,3.0,266.9096359750256,2.0,1.0,phase_1,,,,,,,,,,,,,blue,flipped triangle
0.0,1.0,0.0,0.0,3.0,3.0,377.3672280367464,2.0,1.0,phase_1,,,,,,,,,,,,,yellow,diamond
0.0,1.0,0.0,0.0,2.0,2.0,604.4742729864083,2.0,1.0,phase_1,,,,,,,,,,,,,yellow,diamond
100.0,2.0,1.0,0.0,3.0,3.0,368.4829470003024,2.0,1.0,phase_1,,,,,,,,,,,,,blue,flipped triangle
179.0,3.0,2.0,0.0,2.0,2.0,540.7087479834445,2.0,1.0,phase_1,,,,,,,,,,,,,gray,hexagon
377.0,4.0,4.0,0.0,1.0,1.0,371.9941780436784,2.0,1.0,phase_1,,,,,,,,,,,,,cyan,I
0.0,1.0,0.0,0.0,3.0,3.0,353.1251509557478,2.0,1.0,phase_1,,,,,,,,,,,,,yellow,diamond
110.0,2.0,1.0,0.0,4.0,4.0,342.2097630100325,2.0,1.0,phase_1,,,,,,,,,,,,,blue,flipped triangle
60.0,5.0,0.5,1.0,2.0,2.0,471.2673840112984,2.0,1.0,phase_1,,,,,,,,,,,,,magenta,circle
63.0,5.0,0.5,1.0,1.0,1.0,277.2333020111546,2.0,1.0,phase_1,,,,,,,,,,,,,magenta,circle
109.0,6.0,1.0,1.0,2.0,2.0,304.486573964823,2.0,1.0,phase_1,,,,,,,,,,,,,orange,triangle
28.0,1.0,0.5,0.0,3.0,3.0,301.516888954211,2.0,1.0,phase_1,,,,,,,,,,,,,yellow,diamond
377.0,8.0,4.0,1.0,1.0,1.0,314.4949399866164,2.0,1.0,phase_1,,,,,,,,,,,,,white,square
180.0,3.0,2.0,0.0,3.0,3.0,265.4389349627308,2.0,1.0,phase_1,,,,,,,,,,,,,gray,hexagon
402.0,4.0,4.0,0.0,3.0,3.0,318.8321809866465,2.0,1.0,phase_1,,,,,,,,,,,,,cyan,I
45.0,1.0,0.5,0.0,1.0,1.0,307.3062779731117,2.0,1.0,phase_1,,,,,,,,,,,,,yellow,diamond
79.0,6.0,1.0,1.0,4.0,4.0,289.2465310287662,2.0,1.0,phase_1,,,,,,,,,,,,,orange,triangle
394.0,8.0,4.0,1.0,3.0,3.0,283.6025499855168,2.0,1.0,phase_1,,,,,,,,,,,,,white,square
0.0,4.0,0.0,0.0,3.0,3.0,319.1774509614333,2.0,1.0,phase_1,,,,,,,,,,,,,cyan,I
187.0,7.0,2.0,1.0,1.0,1.0,491.9050469761714,2.0,1.0,phase_1,,,,,,,,,,,,,green,cross
0.0,6.0,0.0,1.0,2.0,2.0,306.7415379919112,2.0,1.0,phase_1,,,,,,,,,,,,,orange,triangle
418.0,4.0,4.0,0.0,1.0,1.0,352.438086993061,2.0,1.0,phase_1,,,,,,,,,,,,,cyan,I
115.0,6.0,1.0,1.0,3.0,3.0,313.5993800242431,2.0,1.0,phase_1,,,,,,,,,,,,,orange,triangle
27.0,1.0,0.5,0.0,2.0,2.0,294.1697469796054,2.0,1.0,phase_1,,,,,,,,,,,,,yellow,diamond
178.0,3.0,2.0,0.0,2.0,2.0,310.1246989681385,2.0,1.0,phase_1,,,,,,,,,,,,,gray,hexagon
407.0,8.0,4.0,1.0,1.0,1.0,334.9121770006604,2.0,1.0,phase_1,,,,,,,,,,,,,white,square
394.0,4.0,4.0,0.0,2.0,2.0,294.9651880189776,2.0,1.0,phase_1,,,,,,,,,,,,,cyan,I
387.0,8.0,4.0,1.0,2.0,2.0,344.6468859910965,2.0,1.0,phase_1,,,,,,,,,,,,,white,square
219.0,7.0,2.0,1.0,1.0,1.0,309.6560260164551,2.0,1.0,phase_1,,,,,,,,,,,,,green,cross
29.0,1.0,0.5,0.0,3.0,3.0,284.6247230190784,2.0,1.0,phase_1,,,,,,,,,,,,,yellow,diamond
410.0,4.0,4.0,0.0,3.0,3.0,346.9256050302647,2.0,1.0,phase_1,,,,,,,,,,,,,cyan,I
200.0,3.0,2.0,0.0,2.0,2.0,291.2773219868541,2.0,1.0,phase_1,,,,,,,,,,,,,gray,hexagon
101.0,6.0,1.0,1.0,2.0,2.0,279.5993720064871,2.0,1.0,phase_1,,,,,,,,,,,,,orange,triangle
54.0,1.0,0.5,0.0,2.0,2.0,279.7256199992262,2.0,1.0,phase_1,,,,,,,,,,,,,yellow,diamond
0.0,6.0,0.0,1.0,1.0,1.0,332.1290349704213,2.0,1.0,phase_1,,,,,,,,,,,,,orange,triangle
74.0,1.0,0.5,0.0,2.0,2.0,264.2623739666305,2.0,1.0,phase_1,,,,,,,,,,,,,yellow,diamond
122.0,2.0,1.0,0.0,3.0,3.0,290.6005359836854,2.0,1.0,phase_1,,,,,,,,,,,,,blue,flipped triangle
0.0,6.0,0.0,1.0,1.0,1.0,403.2680179807357,2.0,1.0,phase_1,,,,,,,,,,,,,orange,triangle
0.0,5.0,0.0,1.0,4.0,4.0,321.2997550144791,2.0,2.0,phase_1,,,,,,,,,,,,,magenta,circle
178.0,7.0,2.0,1.0,2.0,2.0,277.1292729885317,2.0,1.0,phase_1,,,,,,,,,,,,,green,cross
77.0,6.0,1.0,1.0,1.0,1.0,345.932022028137,2.0,1.0,phase_1,,,,,,,,,,,,,orange,triangle
44.0,1.0,0.5,0.0,1.0,1.0,320.9458180353977,2.0,1.0,phase_1,,,,,,,,,,,,,yellow,diamond
219.0,3.0,2.0,0.0,2.0,2.0,394.288029987365,2.0,2.0,phase_1,,,,,,,,,,,,,gray,hexagon
97.0,6.0,1.0,1.0,3.0,3.0,406.4551250194199,2.0,1.0,phase_1,,,,,,,,,,,,,orange,triangle
0.0,2.0,0.0,0.0,3.0,3.0,309.347397997044,2.0,1.0,phase_1,,,,,,,,,,,,,blue,flipped triangle
0.0,3.0,0.0,0.0,2.0,2.0,337.5390800065361,2.0,1.0,phase_1,,,,,,,,,,,,,gray,hexagon
407.0,4.0,4.0,0.0,3.0,3.0,324.7633610153571,2.0,1.0,phase_1,,,,,,,,,,,,,cyan,I
0.0,4.0,0.0,0.0,3.0,3.0,279.7437020344659,2.0,1.0,phase_1,,,,,,,,,,,,,cyan,I
415.0,8.0,4.0,1.0,1.0,1.0,326.4290810329839,2.0,1.0,phase_1,,,,,,,,,,,,,white,square
79.0,6.0,1.0,1.0,3.0,3.0,337.5727020320482,2.0,1.0,phase_1,,,,,,,,,,,,,orange,triangle
197.0,7.0,2.0,1.0,1.0,1.0,311.851973994635,2.0,1.0,phase_1,,,,,,,,,,,,,green,cross
55.0,1.0,0.5,0.0,4.0,4.0,373.3087350265123,2.0,1.0,phase_1,,,,,,,,,,,,,yellow,diamond
109.0,2.0,1.0,0.0,3.0,3.0,329.6129379887134,2.0,1.0,phase_1,,,,,,,,,,,,,blue,flipped triangle
200.0,3.0,2.0,0.0,4.0,4.0,388.7342460220679,2.0,1.0,phase_1,,,,,,,,,,,,,gray,hexagon
181.0,3.0,2.0,0.0,3.0,3.0,304.5298829674721,2.0,1.0,phase_1,,,,,,,,,,,,,gray,hexagon
79.0,2.0,1.0,0.0,1.0,1.0,399.8378310352564,2.0,1.0,phase_1,,,,,,,,,,,,,blue,flipped triangle
197.0,3.0,2.0,0.0,2.0,2.0,365.452968981117,2.0,1.0,phase_1,,,,,,,,,,,,,gray,hexagon
407.0,4.0,4.0,0.0,1.0,1.0,393.0982159799896,2.0,1.0,phase_1,,,,,,,,,,,,,cyan,I
84.0,2.0,1.0,0.0,4.0,4.0,262.2098980355076,2.0,1.0,phase_1,,,,,,,,,,,,,blue,flipped triangle
0.0,3.0,0.0,0.0,4.0,4.0,355.7870779768564,3.0,1.0,phase_1,,,,,,,,,,,,,gray,hexagon
0.0,1.0,0.0,0.0,3.0,3.0,232.7607289771549,3.0,1.0,phase_1,,,,,,,,,,,,,yellow,diamond
29.0,5.0,0.5,1.0,4.0,4.0,285.8741580275818,3.0,1.0,phase_1,,,,,,,,,,,,,magenta,circle
0.0,6.0,0.0,1.0,2.0,2.0,249.8484730022028,3.0,1.0,phase_1,,,,,,,,,,,,,orange,triangle
0.0,8.0,0.0,1.0,2.0,2.0,297.3025469691492,3.0,1.0,phase_1,,,,,,,,,,,,,white,square
112.0,2.0,1.0,0.0,1.0,1.0,262.8020839765668,3.0,1.0,phase_1,,,,,,,,,,,,,blue,flipped triangle
72.0,5.0,0.5,1.0,3.0,3.0,274.9709049821831,3.0,1.0,phase_1,,,,,,,,,,,,,magenta,circle
394.0,8.0,4.0,1.0,3.0,3.0,285.5743220425211,3.0,1.0,phase_1,,,,,,,,,,,,,white,square
100.0,6.0,1.0,1.0,2.0,2.0,356.3459299621172,3.0,1.0,phase_1,,,,,,,,,,,,,orange,triangle
88.0,6.0,1.0,1.0,3.0,3.0,270.1813040184788,3.0,1.0,phase_1,,,,,,,,,,,,,orange,triangle
83.0,6.0,1.0,1.0,2.0,2.0,277.8335889452137,3.0,1.0,phase_1,,,,,,,,,,,,,orange,triangle
86.0,2.0,1.0,0.0,4.0,4.0,298.3631350216456,3.0,1.0,phase_1,,,,,,,,,,,,,blue,flipped triangle
0.0,2.0,0.0,0.0,4.0,4.0,582.4143599602394,3.0,1.0,phase_1,,,,,,,,,,,,,blue,flipped triangle
194.0,3.0,2.0,0.0,3.0,3.0,314.4129640422761,3.0,1.0,phase_1,,,,,,,,,,,,,gray,hexagon
97.0,6.0,1.0,1.0,4.0,4.0,319.3489189725369,3.0,1.0,phase_1,,,,,,,,,,,,,orange,triangle
30.0,5.0,0.5,1.0,2.0,2.0,257.7381110168062,3.0,1.0,phase_1,,,,,,,,,,,,,magenta,circle
0.0,4.0,0.0,0.0,1.0,1.0,431.1711270129308,3.0,1.0,phase_1,,,,,,,,,,,,,cyan,I
63.0,1.0,0.5,0.0,2.0,2.0,270.5854459782131,3.0,1.0,phase_1,,,,,,,,,,,,,yellow,diamond
0.0,8.0,0.0,1.0,4.0,4.0,264.3903789576143,3.0,1.0,phase_1,,,,,,,,,,,,,white,square
188.0,7.0,2.0,1.0,3.0,3.0,296.8950549839064,3.0,1.0,phase_1,,,,,,,,,,,,,green,cross
382.0,8.0,4.0,1.0,1.0,1.0,274.2355809896253,3.0,1.0,phase_1,,,,,,,,,,,,,white,square
37.0,1.0,0.5,0.0,4.0,4.0,304.6971759758889,3.0,1.0,phase_1,,,,,,,,,,,,,yellow,diamond
36.0,5.0,0.5,1.0,3.0,3.0,275.8120340295136,3.0,1.0,phase_1,,,,,,,,,,,,,magenta,circle
0.0,7.0,0.0,1.0,3.0,3.0,340.4936960432678,3.0,2.0,phase_1,,,,,,,,,,,,,green,cross
380.0,4.0,4.0,0.0,2.0,2.0,284.1650039772503,3.0,1.0,phase_1,,,,,,,,,,,,,cyan,I
55.0,5.0,0.5,1.0,4.0,4.0,317.7845599711872,3.0,1.0,phase_1,,,,,,,,,,,,,magenta,circle
77.0,2.0,1.0,0.0,2.0,2.0,325.8444769890047,3.0,1.0,phase_1,,,,,,,,,,,,,blue,flipped triangle
413.0,4.0,4.0,0.0,1.0,1.0,335.2706959703937,3.0,1.0,phase_1,,,,,,,,,,,,,cyan,I
218.0,7.0,2.0,1.0,2.0,2.0,341.2825179984793,3.0,1.0,phase_1,,,,,,,,,,,,,green,cross
33.0,1.0,0.5,0.0,4.0,4.0,308.6250229971483,3.0,1.0,phase_1,,,,,,,,,,,,,yellow,diamond
379.0,4.0,4.0,0.0,4.0,4.0,297.0110509777441,3.0,1.0,phase_1,,,,,,,,,,,,,cyan,I
417.0,8.0,4.0,1.0,3.0,3.0,276.365309022367,3.0,1.0,phase_1,,,,,,,,,,,,,white,square
99.0,6.0,1.0,1.0,1.0,1.0,230.780792015139,3.0,1.0,phase_1,,,,,,,,,,,,,orange,triangle
206.0,7.0,2.0,1.0,4.0,4.0,350.3303290344775,3.0,1.0,phase_1,,,,,,,,,,,,,green,cross
109.0,6.0,1.0,1.0,1.0,1.0,362.3467370052822,3.0,1.0,phase_1,,,,,,,,,,,,,orange,triangle
198.0,3.0,2.0,0.0,2.0,2.0,336.5323879988864,3.0,1.0,phase_1,,,,,,,,,,,,,gray,hexagon
183.0,7.0,2.0,1.0,2.0,2.0,340.5201249988749,3.0,1.0,phase_1,,,,,,,,,,,,,green,cross
199.0,7.0,2.0,1.0,4.0,4.0,309.9302100017667,3.0,1.0,phase_1,,,,,,,,,,,,,green,cross
417.0,4.0,4.0,0.0,3.0,3.0,254.7671549837105,3.0,1.0,phase_1,,,,,,,,,,,,,cyan,I
105.0,2.0,1.0,0.0,3.0,3.0,279.1858499986119,3.0,1.0,phase_1,,,,,,,,,,,,,blue,flipped triangle
107.0,6.0,1.0,1.0,1.0,1.0,319.720967032481,3.0,1.0,phase_1,,,,,,,,,,,,,orange,triangle
68.0,5.0,0.5,1.0,3.0,3.0,323.8822930143215,3.0,1.0,phase_1,,,,,,,,,,,,,magenta,circle
393.0,4.0,4.0,0.0,3.0,3.0,285.6418920564465,3.0,1.0,phase_1,,,,,,,,,,,,,cyan,I
381.0,8.0,4.0,1.0,1.0,1.0,290.2539049973711,3.0,1.0,phase_1,,,,,,,,,,,,,white,square
113.0,2.0,1.0,0.0,3.0,3.0,303.5138830309734,3.0,1.0,phase_1,,,,,,,,,,,,,blue,flipped triangle
107.0,2.0,1.0,0.0,4.0,4.0,327.7718700119294,3.0,1.0,phase_1,,,,,,,,,,,,,blue,flipped triangle
393.0,8.0,4.0,1.0,1.0,1.0,432.3220559745095,3.0,1.0,phase_1,,,,,,,,,,,,,white,square
216.0,7.0,2.0,1.0,1.0,1.0,312.3735139961354,3.0,1.0,phase_1,,,,,,,,,,,,,green,cross
213.0,3.0,2.0,0.0,3.0,3.0,290.3033919865265,3.0,1.0,phase_1,,,,,,,,,,,,,gray,hexagon
62.0,1.0,0.5,0.0,1.0,1.0,294.7323420085013,3.0,1.0,phase_1,,,,,,,,,,,,,yellow,diamond
111.0,2.0,1.0,0.0,1.0,1.0,270.785137952771,3.0,1.0,phase_1,,,,,,,,,,,,,blue,flipped triangle
119.0,6.0,1.0,1.0,3.0,3.0,315.331744030118,3.0,1.0,phase_1,,,,,,,,,,,,,orange,triangle
213.0,3.0,2.0,0.0,4.0,4.0,311.341069987975,3.0,1.0,phase_1,,,,,,,,,,,,,gray,hexagon
401.0,4.0,4.0,0.0,3.0,3.0,265.6923130271025,3.0,1.0,phase_1,,,,,,,,,,,,,cyan,I
217.0,3.0,2.0,0.0,2.0,2.0,288.9077369472943,3.0,1.0,phase_1,,,,,,,,,,,,,gray,hexagon
97.0,2.0,1.0,0.0,1.0,1.0,250.4858400207013,3.0,1.0,phase_1,,,,,,,,,,,,,blue,flipped triangle
107.0,2.0,1.0,0.0,4.0,4.0,295.3781599644571,3.0,1.0,phase_1,,,,,,,,,,,,,blue,flipped triangle
418.0,4.0,4.0,0.0,2.0,2.0,291.6206060326658,3.0,1.0,phase_1,,,,,,,,,,,,,cyan,I
407.0,8.0,4.0,1.0,2.0,2.0,284.1860990156419,3.0,1.0,phase_1,,,,,,,,,,,,,white,square
0.0,1.0,0.0,0.0,3.0,3.0,280.1319659920409,3.0,1.0,phase_1,,,,,,,,,,,,,yellow,diamond
0.0,8.0,0.0,1.0,1.0,1.0,291.0880459821783,3.0,1.0,phase_1,,,,,,,,,,,,,white,square
180.0,7.0,2.0,1.0,3.0,3.0,304.0876360028051,3.0,1.0,phase_1,,,,,,,,,,,,,green,cross
118.0,2.0,1.0,0.0,4.0,4.0,291.4827500353567,3.0,1.0,phase_1,,,,,,,,,,,,,blue,flipped triangle
0.0,8.0,0.0,1.0,1.0,1.0,255.67287299782038,3.0,1.0,phase_1,,,,,,,,,,,,,white,square
179.0,7.0,2.0,1.0,1.0,1.0,316.4366750279441,3.0,1.0,phase_1,,,,,,,,,,,,,green,cross
185.0,7.0,2.0,1.0,1.0,1.0,420.13201297959307,3.0,1.0,phase_1,,,,,,,,,,,,,green,cross
208.0,7.0,2.0,1.0,1.0,1.0,305.3074970375746,3.0,1.0,phase_1,,,,,,,,,,,,,green,cross
113.0,2.0,1.0,0.0,2.0,2.0,291.4533269940875,3.0,1.0,phase_1,,,,,,,,,,,,,blue,flipped triangle
0.0,2.0,0.0,0.0,2.0,2.0,255.4860590025782,3.0,1.0,phase_1,,,,,,,,,,,,,blue,flipped triangle
0.0,5.0,0.0,1.0,2.0,2.0,251.6058820183389,3.0,1.0,phase_1,,,,,,,,,,,,,magenta,circle
222.0,7.0,2.0,1.0,1.0,1.0,313.3617280400358,3.0,1.0,phase_1,,,,,,,,,,,,,green,cross
33.0,5.0,0.5,1.0,4.0,4.0,329.7045879880897,3.0,1.0,phase_1,,,,,,,,,,,,,magenta,circle
34.0,1.0,0.5,0.0,1.0,1.0,330.1729239756241,3.0,1.0,phase_1,,,,,,,,,,,,,yellow,diamond
87.0,2.0,1.0,0.0,4.0,4.0,329.6912090154364,3.0,1.0,phase_1,,,,,,,,,,,,,blue,flipped triangle
213.0,7.0,2.0,1.0,1.0,1.0,291.413297993131,3.0,1.0,phase_1,,,,,,,,,,,,,green,cross
27.0,5.0,0.5,1.0,3.0,3.0,250.2696470473893,3.0,1.0,phase_1,,,,,,,,,,,,,magenta,circle
119.0,2.0,1.0,0.0,1.0,1.0,262.1753599960357,3.0,1.0,phase_1,,,,,,,,,,,,,blue,flipped triangle
408.0,8.0,4.0,1.0,1.0,1.0,290.7186039956286,3.0,1.0,phase_1,,,,,,,,,,,,,white,square
91.0,6.0,1.0,1.0,4.0,4.0,294.81664695777,3.0,1.0,phase_1,,,,,,,,,,,,,orange,triangle
74.0,5.0,0.5,1.0,3.0,3.0,287.0460150297731,3.0,1.0,phase_1,,,,,,,,,,,,,magenta,circle
221.0,3.0,2.0,0.0,1.0,1.0,258.5807249997742,3.0,1.0,phase_1,,,,,,,,,,,,,gray,hexagon
0.0,3.0,0.0,0.0,2.0,2.0,421.6080959886312,3.0,1.0,phase_1,,,,,,,,,,,,,gray,hexagon
385.0,8.0,4.0,1.0,2.0,2.0,323.1884799897671,3.0,1.0,phase_1,,,,,,,,,,,,,white,square
75.0,2.0,1.0,0.0,4.0,4.0,327.6159269735217,3.0,1.0,phase_1,,,,,,,,,,,,,blue,flipped triangle
0.0,3.0,0.0,0.0,2.0,2.0,286.0473439795896,3.0,1.0,phase_1,,,,,,,,,,,,,gray,hexagon
381.0,4.0,4.0,0.0,3.0,3.0,274.0470300195738,3.0,1.0,phase_1,,,,,,,,,,,,,cyan,I
120.0,2.0,1.0,0.0,3.0,3.0,285.7721699983813,3.0,1.0,phase_1,,,,,,,,,,,,,blue,flipped triangle
0.0,7.0,0.0,1.0,4.0,4.0,282.74545900058,3.0,1.0,phase_1,,,,,,,,,,,,,green,cross
221.0,7.0,2.0,1.0,2.0,2.0,269.9589060503058,3.0,1.0,phase_1,,,,,,,,,,,,,green,cross
34.0,5.0,0.5,1.0,2.0,2.0,282.3866269900463,3.0,1.0,phase_1,,,,,,,,,,,,,magenta,circle
68.0,5.0,0.5,1.0,2.0,2.0,265.1012550340965,3.0,1.0,phase_1,,,,,,,,,,,,,magenta,circle
101.0,6.0,1.0,1.0,2.0,2.0,259.1387669672258,3.0,1.0,phase_1,,,,,,,,,,,,,orange,triangle
0.0,1.0,0.0,0.0,1.0,1.0,340.3721119975671,3.0,2.0,phase_1,,,,,,,,,,,,,yellow,diamond
224.0,7.0,2.0,1.0,3.0,3.0,403.2254789490253,3.0,1.0,phase_1,,,,,,,,,,,,,green,cross
0.0,2.0,0.0,0.0,1.0,1.0,406.45557298557827,3.0,1.0,phase_1,,,,,,,,,,,,,blue,flipped triangle
206.0,7.0,2.0,1.0,2.0,2.0,291.0242979996837,3.0,1.0,phase_1,,,,,,,,,,,,,green,cross
0.0,6.0,0.0,1.0,2.0,2.0,272.0632150303572,3.0,1.0,phase_1,,,,,,,,,,,,,orange,triangle
381.0,4.0,4.0,0.0,4.0,4.0,495.5776369897648,3.0,1.0,phase_1,,,,,,,,,,,,,cyan,I
0.0,5.0,0.0,1.0,4.0,4.0,329.4539990019984,3.0,1.0,phase_1,,,,,,,,,,,,,magenta,circle
404.0,8.0,4.0,1.0,3.0,3.0,288.4189499891363,3.0,1.0,phase_1,,,,,,,,,,,,,white,square
202.0,7.0,2.0,1.0,3.0,3.0,317.5786180072464,4.0,1.0,phase_1,,,,,,,,,,,,,green,cross
0.0,7.0,0.0,1.0,4.0,4.0,279.5876709860749,4.0,1.0,phase_1,,,,,,,,,,,,,green,cross
28.0,5.0,0.5,1.0,2.0,2.0,284.4399600289762,4.0,1.0,phase_1,,,,,,,,,,,,,magenta,circle
0.0,7.0,0.0,1.0,2.0,2.0,267.5004240009002,4.0,1.0,phase_1,,,,,,,,,,,,,green,cross
0.0,8.0,0.0,1.0,3.0,3.0,279.4072349788621,4.0,1.0,phase_1,,,,,,,,,,,,,white,square
122.0,6.0,1.0,1.0,3.0,3.0,308.87249199440697,4.0,1.0,phase_1,,,,,,,,,,,,,orange,triangle
45.0,5.0,0.5,1.0,3.0,3.0,312.6499310019426,4.0,1.0,phase_1,,,,,,,,,,,,,magenta,circle
380.0,4.0,4.0,0.0,2.0,2.0,349.6241740067489,4.0,1.0,phase_1,,,,,,,,,,,,,cyan,I
44.0,5.0,0.5,1.0,2.0,2.0,423.4917290159501,4.0,1.0,phase_1,,,,,,,,,,,,,magenta,circle
219.0,3.0,2.0,0.0,2.0,2.0,272.2341599874198,4.0,1.0,phase_1,,,,,,,,,,,,,gray,hexagon
407.0,8.0,4.0,1.0,3.0,3.0,283.5432749707252,4.0,1.0,phase_1,,,,,,,,,,,,,white,square
112.0,6.0,1.0,1.0,2.0,2.0,247.7543010027147,4.0,1.0,phase_1,,,,,,,,,,,,,orange,triangle
71.0,1.0,0.5,0.0,3.0,3.0,258.9062270126305,4.0,1.0,phase_1,,,,,,,,,,,,,yellow,diamond
43.0,5.0,0.5,1.0,3.0,3.0,328.2999339862726,4.0,1.0,phase_1,,,,,,,,,,,,,magenta,circle
411.0,8.0,4.0,1.0,4.0,4.0,300.9494979633018,4.0,1.0,phase_1,,,,,,,,,,,,,white,square
179.0,7.0,2.0,1.0,1.0,1.0,328.72991199838,4.0,1.0,phase_1,,,,,,,,,,,,,green,cross
198.0,7.0,2.0,1.0,4.0,4.0,336.4429179928265,4.0,1.0,phase_1,,,,,,,,,,,,,green,cross
55.0,1.0,0.5,0.0,1.0,1.0,324.7231030254625,4.0,1.0,phase_1,,,,,,,,,,,,,yellow,diamond
34.0,1.0,0.5,0.0,3.0,3.0,338.6269840411842,4.0,1.0,phase_1,,,,,,,,,,,,,yellow,diamond
179.0,3.0,2.0,0.0,1.0,1.0,390.113751986064,4.0,1.0,phase_1,,,,,,,,,,,,,gray,hexagon
217.0,7.0,2.0,1.0,2.0,2.0,273.9452290115878,4.0,1.0,phase_1,,,,,,,,,,,,,green,cross
33.0,1.0,0.5,0.0,1.0,1.0,364.6893589757383,4.0,1.0,phase_1,,,,,,,,,,,,,yellow,diamond
55.0,5.0,0.5,1.0,1.0,1.0,290.3640950098634,4.0,1.0,phase_1,,,,,,,,,,,,,magenta,circle
396.0,4.0,4.0,0.0,1.0,1.0,266.1447030259296,4.0,1.0,phase_1,,,,,,,,,,,,,cyan,I
109.0,2.0,1.0,0.0,2.0,2.0,290.5618029762991,4.0,1.0,phase_1,,,,,,,,,,,,,blue,flipped triangle
418.0,8.0,4.0,1.0,1.0,1.0,323.2698389911093,4.0,1.0,phase_1,,,,,,,,,,,,,white,square
0.0,8.0,0.0,1.0,2.0,2.0,335.5483469786122,4.0,1.0,phase_1,,,,,,,,,,,,,white,square
200.0,7.0,2.0,1.0,3.0,3.0,283.0150679801591,4.0,1.0,phase_1,,,,,,,,,,,,,green,cross
214.0,7.0,2.0,1.0,4.0,4.0,286.0064600245096,4.0,1.0,phase_1,,,,,,,,,,,,,green,cross
88.0,2.0,1.0,0.0,1.0,1.0,291.0787179716863,4.0,1.0,phase_1,,,,,,,,,,,,,blue,flipped triangle
62.0,5.0,0.5,1.0,1.0,1.0,314.2250659875572,4.0,1.0,phase_1,,,,,,,,,,,,,magenta,circle
411.0,4.0,4.0,0.0,2.0,2.0,317.470972018782,4.0,1.0,phase_1,,,,,,,,,,,,,cyan,I
55.0,1.0,0.5,0.0,1.0,1.0,299.4205419672653,4.0,1.0,phase_1,,,,,,,,,,,,,yellow,diamond
45.0,5.0,0.5,1.0,2.0,2.0,316.5334789664484,4.0,1.0,phase_1,,,,,,,,,,,,,magenta,circle
47.0,5.0,0.5,1.0,3.0,3.0,308.86310199275607,4.0,1.0,phase_1,,,,,,,,,,,,,magenta,circle
61.0,5.0,0.5,1.0,1.0,1.0,407.9456710023805,4.0,1.0,phase_1,,,,,,,,,,,,,magenta,circle
100.0,6.0,1.0,1.0,4.0,4.0,422.9860660270788,4.0,1.0,phase_1,,,,,,,,,,,,,orange,triangle
0.0,2.0,0.0,0.0,1.0,1.0,320.8325279993005,4.0,1.0,phase_1,,,,,,,,,,,,,blue,flipped triangle
218.0,3.0,2.0,0.0,3.0,3.0,397.71974098403,4.0,1.0,phase_1,,,,,,,,,,,,,gray,hexagon
407.0,4.0,4.0,0.0,2.0,2.0,284.3896939884871,4.0,1.0,phase_1,,,,,,,,,,,,,cyan,I
385.0,4.0,4.0,0.0,2.0,2.0,448.9836670109071,4.0,1.0,phase_1,,,,,,,,,,,,,cyan,I
207.0,7.0,2.0,1.0,4.0,4.0,309.359482023865,4.0,1.0,phase_1,,,,,,,,,,,,,green,cross
60.0,1.0,0.5,0.0,2.0,2.0,255.35840902011842,4.0,1.0,phase_1,,,,,,,,,,,,,yellow,diamond
395.0,4.0,4.0,0.0,2.0,2.0,308.3384729688987,4.0,1.0,phase_1,,,,,,,,,,,,,cyan,I
418.0,8.0,4.0,1.0,4.0,4.0,328.3092339988798,4.0,1.0,phase_1,,,,,,,,,,,,,white,square
0.0,6.0,0.0,1.0,3.0,3.0,287.8922619856894,4.0,1.0,phase_1,,,,,,,,,,,,,orange,triangle
39.0,1.0,0.5,0.0,3.0,3.0,299.6881899889558,4.0,1.0,phase_1,,,,,,,,,,,,,yellow,diamond
0.0,7.0,0.0,1.0,1.0,1.0,314.3325030105188,4.0,1.0,phase_1,,,,,,,,,,,,,green,cross
187.0,3.0,2.0,0.0,3.0,3.0,299.4643989950418,4.0,1.0,phase_1,,,,,,,,,,,,,gray,hexagon
79.0,6.0,1.0,1.0,2.0,2.0,296.6840580338612,4.0,1.0,phase_1,,,,,,,,,,,,,orange,triangle
86.0,6.0,1.0,1.0,4.0,4.0,292.6601879880763,4.0,1.0,phase_1,,,,,,,,,,,,,orange,triangle
63.0,1.0,0.5,0.0,2.0,2.0,280.2887799916789,4.0,2.0,phase_1,,,,,,,,,,,,,yellow,diamond
0.0,1.0,0.0,0.0,3.0,3.0,354.5402089948766,4.0,1.0,phase_1,,,,,,,,,,,,,yellow,diamond
396.0,8.0,4.0,1.0,4.0,4.0,362.0320990448817,4.0,1.0,phase_1,,,,,,,,,,,,,white,square
0.0,5.0,0.0,1.0,1.0,1.0,340.9211440011859,4.0,1.0,phase_1,,,,,,,,,,,,,magenta,circle
71.0,5.0,0.5,1.0,4.0,4.0,314.7342869779095,4.0,1.0,phase_1,,,,,,,,,,,,,magenta,circle
405.0,8.0,4.0,1.0,3.0,3.0,312.4547679908573,4.0,1.0,phase_1,,,,,,,,,,,,,white,square
181.0,3.0,2.0,0.0,3.0,3.0,306.3834620406851,4.0,1.0,phase_1,,,,,,,,,,,,,gray,hexagon
36.0,1.0,0.5,0.0,4.0,4.0,286.6625899914652,4.0,1.0,phase_1,,,,,,,,,,,,,yellow,diamond
105.0,2.0,1.0,0.0,4.0,4.0,331.6975819761865,4.0,1.0,phase_1,,,,,,,,,,,,,blue,flipped triangle
416.0,4.0,4.0,0.0,1.0,1.0,498.5068759997375,4.0,1.0,phase_1,,,,,,,,,,,,,cyan,I
387.0,4.0,4.0,0.0,1.0,1.0,254.891468968708,4.0,1.0,phase_1,,,,,,,,,,,,,cyan,I
185.0,3.0,2.0,0.0,1.0,1.0,257.89976096712047,4.0,1.0,phase_1,,,,,,,,,,,,,gray,hexagon
33.0,5.0,0.5,1.0,1.0,1.0,257.8460690565407,4.0,1.0,phase_1,,,,,,,,,,,,,magenta,circle
113.0,6.0,1.0,1.0,3.0,3.0,270.5683459644206,4.0,1.0,phase_1,,,,,,,,,,,,,orange,triangle
387.0,4.0,4.0,0.0,4.0,4.0,314.2514339997433,4.0,1.0,phase_1,,,,,,,,,,,,,cyan,I
0.0,4.0,0.0,0.0,3.0,3.0,336.6515099769458,4.0,1.0,phase_1,,,,,,,,,,,,,cyan,I
394.0,4.0,4.0,0.0,4.0,4.0,332.7297609648667,4.0,1.0,phase_1,,,,,,,,,,,,,cyan,I
194.0,3.0,2.0,0.0,1.0,1.0,333.6926909978501,4.0,1.0,phase_1,,,,,,,,,,,,,gray,hexagon
0.0,4.0,0.0,0.0,3.0,3.0,275.9788159746676,4.0,1.0,phase_1,,,,,,,,,,,,,cyan,I
82.0,2.0,1.0,0.0,2.0,2.0,271.2791599915363,4.0,1.0,phase_1,,,,,,,,,,,,,blue,flipped triangle
421.0,8.0,4.0,1.0,4.0,4.0,300.4608930204995,4.0,1.0,phase_1,,,,,,,,,,,,,white,square
224.0,3.0,2.0,0.0,4.0,4.0,296.9606180558912,4.0,1.0,phase_1,,,,,,,,,,,,,gray,hexagon
73.0,1.0,0.5,0.0,2.0,2.0,288.4145999560132,4.0,1.0,phase_1,,,,,,,,,,,,,yellow,diamond
176.0,3.0,2.0,0.0,1.0,1.0,325.3634090069681,4.0,1.0,phase_1,,,,,,,,,,,,,gray,hexagon
57.0,5.0,0.5,1.0,1.0,1.0,344.681849994231,4.0,1.0,phase_1,,,,,,,,,,,,,magenta,circle
400.0,8.0,4.0,1.0,3.0,3.0,284.0464639593847,4.0,1.0,phase_1,,,,,,,,,,,,,white,square
199.0,3.0,2.0,0.0,2.0,2.0,303.9217179757543,4.0,1.0,phase_1,,,,,,,,,,,,,gray,hexagon
79.0,2.0,1.0,0.0,2.0,2.0,324.858435022179,4.0,1.0,phase_1,,,,,,,,,,,,,blue,flipped triangle
73.0,5.0,0.5,1.0,3.0,3.0,386.150034959428,4.0,1.0,phase_1,,,,,,,,,,,,,magenta,circle
405.0,4.0,4.0,0.0,1.0,1.0,328.835541033186,4.0,1.0,phase_1,,,,,,,,,,,,,cyan,I
79.0,2.0,1.0,0.0,2.0,2.0,306.9095370010473,4.0,1.0,phase_1,,,,,,,,,,,,,blue,flipped triangle
409.0,4.0,4.0,0.0,2.0,2.0,275.2625530119985,4.0,1.0,phase_1,,,,,,,,,,,,,cyan,I
40.0,5.0,0.5,1.0,3.0,3.0,267.9700530134141,4.0,1.0,phase_1,,,,,,,,,,,,,magenta,circle
411.0,8.0,4.0,1.0,2.0,2.0,300.2249340061098,4.0,1.0,phase_1,,,,,,,,,,,,,white,square
208.0,3.0,2.0,0.0,4.0,4.0,343.2799240108579,4.0,1.0,phase_1,,,,,,,,,,,,,gray,hexagon
0.0,3.0,0.0,0.0,3.0,3.0,290.0899809901602,4.0,1.0,phase_1,,,,,,,,,,,,,gray,hexagon
65.0,1.0,0.5,0.0,4.0,4.0,328.7507829954847,4.0,1.0,phase_1,,,,,,,,,,,,,yellow,diamond
402.0,8.0,4.0,1.0,4.0,4.0,359.4498060410842,4.0,1.0,phase_1,,,,,,,,,,,,,white,square
219.0,7.0,2.0,1.0,4.0,4.0,290.3691150131635,4.0,1.0,phase_1,,,,,,,,,,,,,green,cross
387.0,8.0,4.0,1.0,3.0,3.0,262.5057760160416,4.0,1.0,phase_1,,,,,,,,,,,,,white,square
34.0,5.0,0.5,1.0,4.0,4.0,291.22437100159,4.0,1.0,phase_1,,,,,,,,,,,,,magenta,circle
221.0,7.0,2.0,1.0,4.0,4.0,257.7327749459073,4.0,1.0,phase_1,,,,,,,,,,,,,green,cross
201.0,3.0,2.0,0.0,3.0,3.0,294.0205920021981,4.0,1.0,phase_1,,,,,,,,,,,,,gray,hexagon
206.0,7.0,2.0,1.0,3.0,3.0,265.8952379715629,4.0,1.0,phase_1,,,,,,,,,,,,,green,cross
0.0,7.0,0.0,1.0,1.0,1.0,312.3108720174059,4.0,1.0,phase_1,,,,,,,,,,,,,green,cross
111.0,6.0,1.0,1.0,1.0,1.0,331.6814179997891,4.0,1.0,phase_1,,,,,,,,,,,,,orange,triangle
189.0,7.0,2.0,1.0,2.0,2.0,264.78499098448077,4.0,1.0,phase_1,,,,,,,,,,,,,green,cross
421.0,4.0,4.0,0.0,4.0,4.0,258.6857539718039,4.0,1.0,phase_1,,,,,,,,,,,,,cyan,I
401.0,8.0,4.0,1.0,2.0,2.0,230.8378460002131,4.0,1.0,phase_1,,,,,,,,,,,,,white,square
0.0,1.0,0.5,0.0,5.0,5.0,361.4915490034036,1.0,1.0,phase_2,go,250.0,250.0,1.0,,,,,,,,,yellow,diamond
0.0,5.0,0.5,1.0,5.0,0.0,0.0,1.0,1.0,phase_2,stop,250.0,250.0,4.0,,,,,,,,,magenta,circle
0.0,1.0,0.5,0.0,5.0,5.0,602.3134450078942,1.0,1.0,phase_2,go,300.0,250.0,1.0,,,,,,,,,yellow,diamond
0.0,1.0,0.5,0.0,5.0,5.0,506.06729002902284,1.0,1.0,phase_2,go,300.0,250.0,1.0,,,,,,,,,yellow,diamond
0.0,7.0,2.0,1.0,6.0,0.0,0.0,1.0,1.0,phase_2,stop,300.0,250.0,4.0,,,,,,,,,green,cross
0.0,7.0,2.0,1.0,5.0,5.0,566.7283330112696,1.0,1.0,phase_2,go,300.0,300.0,1.0,,,,,,,,,green,cross
0.0,1.0,0.5,0.0,6.0,6.0,512.0316530228592,1.0,1.0,phase_2,go,300.0,300.0,1.0,,,,,,,,,yellow,diamond
0.0,3.0,2.0,0.0,5.0,5.0,420.975943969097,1.0,1.0,phase_2,go,300.0,300.0,1.0,,,,,,,,,gray,hexagon
0.0,2.0,1.0,0.0,5.0,5.0,392.6547159790061,1.0,1.0,phase_2,go,300.0,300.0,1.0,,,,,,,,,blue,flipped triangle
0.0,3.0,2.0,0.0,6.0,6.0,379.5379440416582,1.0,1.0,phase_2,go,300.0,300.0,1.0,,,,,,,,,gray,hexagon
0.0,6.0,1.0,1.0,5.0,5.0,501.9231309997849,1.0,1.0,phase_2,go,300.0,300.0,1.0,,,,,,,,,orange,triangle
0.0,4.0,4.0,0.0,5.0,5.0,572.7789520169608,1.0,1.0,phase_2,go,300.0,300.0,1.0,,,,,,,,,cyan,I
0.0,5.0,0.5,1.0,6.0,0.0,0.0,1.0,1.0,phase_2,stop,300.0,300.0,4.0,,,,,,,,,magenta,circle
0.0,7.0,2.0,1.0,5.0,5.0,436.904416012112,1.0,1.0,phase_2,stop,300.0,350.0,3.0,,,,,,,,,green,cross
0.0,3.0,2.0,0.0,6.0,6.0,644.0305139985867,1.0,1.0,phase_2,go,250.0,350.0,1.0,,,,,,,,,gray,hexagon
0.0,4.0,4.0,0.0,5.0,5.0,618.3040359755978,1.0,1.0,phase_2,go,250.0,350.0,1.0,,,,,,,,,cyan,I
0.0,4.0,4.0,0.0,5.0,5.0,441.0309569793753,1.0,1.0,phase_2,go,250.0,350.0,1.0,,,,,,,,,cyan,I
0.0,8.0,4.0,1.0,5.0,0.0,0.0,1.0,1.0,phase_2,stop,250.0,350.0,4.0,,,,,,,,,white,square
0.0,5.0,0.5,1.0,6.0,6.0,575.4855379927903,1.0,1.0,phase_2,go,300.0,350.0,1.0,,,,,,,,,magenta,circle
0.0,2.0,1.0,0.0,6.0,6.0,441.2754939985461,1.0,1.0,phase_2,go,300.0,350.0,1.0,,,,,,,,,blue,flipped triangle
0.0,4.0,4.0,0.0,6.0,6.0,477.5331200216897,1.0,1.0,phase_2,go,300.0,350.0,1.0,,,,,,,,,cyan,I
0.0,1.0,0.5,0.0,6.0,6.0,469.3556600250304,1.0,1.0,phase_2,go,300.0,350.0,1.0,,,,,,,,,yellow,diamond
0.0,8.0,4.0,1.0,5.0,0.0,0.0,1.0,1.0,phase_2,stop,300.0,350.0,4.0,,,,,,,,,white,square
0.0,6.0,1.0,1.0,6.0,6.0,463.2071109954268,1.0,1.0,phase_2,go,350.0,350.0,1.0,,,,,,,,,orange,triangle
0.0,5.0,0.5,1.0,6.0,6.0,463.4829249698668,1.0,1.0,phase_2,stop,350.0,350.0,3.0,,,,,,,,,magenta,circle
0.0,7.0,2.0,1.0,6.0,0.0,0.0,1.0,1.0,phase_2,stop,350.0,300.0,4.0,,,,,,,,,green,cross
0.0,8.0,4.0,1.0,6.0,6.0,586.7818020051345,1.0,1.0,phase_2,go,350.0,350.0,1.0,,,,,,,,,white,square
0.0,4.0,4.0,0.0,5.0,5.0,771.6656580450945,1.0,1.0,phase_2,go,350.0,350.0,1.0,,,,,,,,,cyan,I
0.0,3.0,2.0,0.0,5.0,5.0,609.1368510387838,1.0,1.0,phase_2,go,350.0,350.0,1.0,,,,,,,,,gray,hexagon
0.0,5.0,0.5,1.0,5.0,0.0,0.0,1.0,1.0,phase_2,stop,350.0,350.0,4.0,,,,,,,,,magenta,circle
0.0,3.0,2.0,0.0,6.0,6.0,562.017981952522,1.0,1.0,phase_2,go,400.0,350.0,1.0,,,,,,,,,gray,hexagon
0.0,2.0,1.0,0.0,5.0,5.0,511.79221202619374,1.0,1.0,phase_2,go,400.0,350.0,1.0,,,,,,,,,blue,flipped triangle
0.0,6.0,1.0,1.0,5.0,5.0,416.1144170211628,1.0,1.0,phase_2,go,400.0,350.0,1.0,,,,,,,,,orange,triangle
0.0,5.0,0.5,1.0,5.0,5.0,423.7713820184581,1.0,1.0,phase_2,stop,400.0,350.0,3.0,,,,,,,,,magenta,circle
0.0,8.0,4.0,1.0,6.0,0.0,0.0,1.0,1.0,phase_2,stop,350.0,350.0,4.0,,,,,,,,,white,square
0.0,8.0,4.0,1.0,5.0,0.0,0.0,1.0,1.0,phase_2,stop,350.0,400.0,4.0,,,,,,,,,white,square
0.0,3.0,2.0,0.0,5.0,5.0,723.9869990153238,2.0,1.0,phase_2,go,400.0,400.0,1.0,,,,,,,,,gray,hexagon
0.0,7.0,2.0,1.0,6.0,6.0,403.0813360004686,2.0,1.0,phase_2,go,400.0,400.0,1.0,,,,,,,,,green,cross
0.0,2.0,1.0,0.0,5.0,5.0,430.3818790358491,2.0,1.0,phase_2,go,400.0,400.0,1.0,,,,,,,,,blue,flipped triangle
0.0,6.0,1.0,1.0,6.0,6.0,460.7176769641228,2.0,1.0,phase_2,stop,400.0,400.0,3.0,,,,,,,,,orange,triangle
0.0,3.0,2.0,0.0,5.0,5.0,586.0855710343458,2.0,1.0,phase_2,go,400.0,350.0,1.0,,,,,,,,,gray,hexagon
0.0,7.0,2.0,1.0,6.0,0.0,0.0,2.0,1.0,phase_2,stop,400.0,350.0,4.0,,,,,,,,,green,cross
0.0,2.0,1.0,0.0,6.0,6.0,547.2614860045724,2.0,1.0,phase_2,go,400.0,400.0,1.0,,,,,,,,,blue,flipped triangle
0.0,3.0,2.0,0.0,6.0,6.0,600.5647369893268,2.0,1.0,phase_2,go,400.0,400.0,1.0,,,,,,,,,gray,hexagon
0.0,8.0,4.0,1.0,5.0,0.0,0.0,2.0,1.0,phase_2,stop,400.0,400.0,4.0,,,,,,,,,white,square
0.0,2.0,1.0,0.0,6.0,6.0,562.678472022526,2.0,1.0,phase_2,go,450.0,400.0,1.0,,,,,,,,,blue,flipped triangle
0.0,5.0,0.5,1.0,6.0,0.0,0.0,2.0,1.0,phase_2,stop,450.0,400.0,4.0,,,,,,,,,magenta,circle
0.0,7.0,2.0,1.0,5.0,5.0,405.8873819885775,2.0,1.0,phase_2,stop,450.0,450.0,3.0,,,,,,,,,green,cross
0.0,8.0,4.0,1.0,6.0,0.0,0.0,2.0,1.0,phase_2,stop,400.0,450.0,4.0,,,,,,,,,white,square
0.0,1.0,0.5,0.0,6.0,6.0,734.9828099831939,2.0,1.0,phase_2,go,400.0,500.0,1.0,,,,,,,,,yellow,diamond
0.0,8.0,4.0,1.0,5.0,5.0,596.3524709804915,2.0,1.0,phase_2,go,400.0,500.0,1.0,,,,,,,,,white,square
0.0,3.0,2.0,0.0,5.0,5.0,699.4759030058049,2.0,1.0,phase_2,go,400.0,500.0,1.0,,,,,,,,,gray,hexagon
0.0,3.0,2.0,0.0,6.0,6.0,628.6618110025302,2.0,1.0,phase_2,go,400.0,500.0,1.0,,,,,,,,,gray,hexagon
0.0,5.0,0.5,1.0,6.0,6.0,564.1405470087193,2.0,1.0,phase_2,stop,400.0,500.0,3.0,,,,,,,,,magenta,circle
0.0,7.0,2.0,1.0,6.0,6.0,668.9839999889955,2.0,1.0,phase_2,go,400.0,450.0,1.0,,,,,,,,,green,cross
0.0,6.0,1.0,1.0,5.0,0.0,0.0,2.0,1.0,phase_2,stop,400.0,450.0,4.0,,,,,,,,,orange,triangle
0.0,7.0,2.0,1.0,5.0,0.0,0.0,2.0,1.0,phase_2,stop,450.0,450.0,4.0,,,,,,,,,green,cross
0.0,4.0,4.0,0.0,6.0,6.0,672.2217590431683,2.0,1.0,phase_2,go,500.0,450.0,1.0,,,,,,,,,cyan,I
0.0,8.0,4.0,1.0,5.0,5.0,578.0958489631303,2.0,1.0,phase_2,stop,500.0,450.0,3.0,,,,,,,,,white,square
0.0,1.0,0.5,0.0,5.0,5.0,640.8588340273127,2.0,1.0,phase_2,go,450.0,450.0,1.0,,,,,,,,,yellow,diamond
0.0,5.0,0.5,1.0,6.0,6.0,609.3653260031715,2.0,1.0,phase_2,stop,450.0,450.0,3.0,,,,,,,,,magenta,circle
0.0,5.0,0.5,1.0,6.0,0.0,0.0,2.0,1.0,phase_2,stop,450.0,400.0,4.0,,,,,,,,,magenta,circle
0.0,7.0,2.0,1.0,6.0,0.0,0.0,2.0,1.0,phase_2,stop,450.0,450.0,4.0,,,,,,,,,green,cross
0.0,4.0,4.0,0.0,5.0,5.0,892.6132320193574,2.0,1.0,phase_2,go,450.0,500.0,1.0,,,,,,,,,cyan,I
0.0,3.0,2.0,0.0,6.0,6.0,668.4650409733877,2.0,1.0,phase_2,go,450.0,500.0,1.0,,,,,,,,,gray,hexagon
0.0,8.0,4.0,1.0,5.0,5.0,478.3103080117143,2.0,1.0,phase_2,stop,450.0,500.0,3.0,,,,,,,,,white,square
0.0,7.0,2.0,1.0,6.0,6.0,734.4312579953112,2.0,1.0,phase_2,go,400.0,500.0,1.0,,,,,,,,,green,cross
0.0,6.0,1.0,1.0,6.0,0.0,0.0,2.0,1.0,phase_2,stop,400.0,500.0,4.0,,,,,,,,,orange,triangle
0.0,8.0,4.0,1.0,6.0,6.0,661.2799339927733,2.0,1.0,phase_2,stop,400.0,550.0,3.0,,,,,,,,,white,square
0.0,3.0,2.0,0.0,5.0,5.0,705.0933620193973,2.0,1.0,phase_2,go,400.0,500.0,1.0,,,,,,,,,gray,hexagon
0.0,6.0,1.0,1.0,5.0,5.0,592.627192963846,2.0,1.0,phase_2,go,400.0,500.0,1.0,,,,,,,,,orange,triangle
0.0,2.0,1.0,0.0,6.0,6.0,632.1598259964958,2.0,1.0,phase_2,go,400.0,500.0,1.0,,,,,,,,,blue,flipped triangle
0.0,8.0,4.0,1.0,5.0,5.0,545.4201839747839,3.0,1.0,phase_2,go,400.0,500.0,1.0,,,,,,,,,white,square
0.0,8.0,4.0,1.0,5.0,5.0,398.7199910334311,3.0,1.0,phase_2,stop,400.0,500.0,3.0,,,,,,,,,white,square
0.0,6.0,1.0,1.0,5.0,5.0,617.5702160107903,3.0,1.0,phase_2,stop,350.0,500.0,3.0,,,,,,,,,orange,triangle
0.0,1.0,0.5,0.0,5.0,5.0,677.3845450370573,3.0,1.0,phase_2,go,300.0,500.0,1.0,,,,,,,,,yellow,diamond
0.0,5.0,0.5,1.0,6.0,0.0,0.0,3.0,1.0,phase_2,stop,300.0,500.0,4.0,,,,,,,,,magenta,circle
0.0,1.0,0.5,0.0,5.0,5.0,686.3536449964158,3.0,1.0,phase_2,go,300.0,550.0,1.0,,,,,,,,,yellow,diamond
0.0,5.0,0.5,1.0,5.0,0.0,0.0,3.0,1.0,phase_2,stop,300.0,550.0,4.0,,,,,,,,,magenta,circle
0.0,6.0,1.0,1.0,6.0,6.0,579.9603869672865,3.0,1.0,phase_2,stop,350.0,550.0,3.0,,,,,,,,,orange,triangle
0.0,8.0,4.0,1.0,6.0,0.0,0.0,3.0,1.0,phase_2,stop,350.0,500.0,4.0,,,,,,,,,white,square
0.0,3.0,2.0,0.0,6.0,6.0,738.8414269662462,3.0,1.0,phase_2,go,350.0,550.0,1.0,,,,,,,,,gray,hexagon
0.0,3.0,2.0,0.0,5.0,5.0,649.061381991487,3.0,1.0,phase_2,go,350.0,550.0,1.0,,,,,,,,,gray,hexagon
0.0,2.0,1.0,0.0,6.0,6.0,330.554906046018,3.0,1.0,phase_2,go,350.0,550.0,1.0,,,,,,,,,blue,flipped triangle
0.0,4.0,4.0,0.0,5.0,5.0,505.9840700123459,3.0,1.0,phase_2,go,350.0,550.0,1.0,,,,,,,,,cyan,I
0.0,8.0,4.0,1.0,5.0,0.0,0.0,3.0,1.0,phase_2,stop,350.0,550.0,4.0,,,,,,,,,white,square
0.0,2.0,1.0,0.0,5.0,5.0,649.3827130179852,3.0,1.0,phase_2,go,400.0,550.0,1.0,,,,,,,,,blue,flipped triangle
0.0,4.0,4.0,0.0,6.0,6.0,631.9478690274991,3.0,1.0,phase_2,go,400.0,550.0,1.0,,,,,,,,,cyan,I
0.0,7.0,2.0,1.0,5.0,5.0,552.1318090031855,3.0,1.0,phase_2,stop,400.0,550.0,3.0,,,,,,,,,green,cross
0.0,3.0,2.0,0.0,5.0,5.0,568.8881819951348,3.0,1.0,phase_2,go,350.0,550.0,1.0,,,,,,,,,gray,hexagon
0.0,7.0,2.0,1.0,6.0,6.0,608.3039119839668,3.0,1.0,phase_2,stop,350.0,550.0,3.0,,,,,,,,,green,cross
0.0,1.0,0.5,0.0,5.0,5.0,541.2972769699991,3.0,1.0,phase_2,go,350.0,500.0,1.0,,,,,,,,,yellow,diamond
0.0,7.0,2.0,1.0,5.0,5.0,391.9972180156037,3.0,1.0,phase_2,stop,350.0,500.0,3.0,,,,,,,,,green,cross
0.0,3.0,2.0,0.0,6.0,6.0,715.2775540016592,3.0,1.0,phase_2,go,300.0,500.0,1.0,,,,,,,,,gray,hexagon
0.0,2.0,1.0,0.0,6.0,6.0,674.4040910270996,3.0,1.0,phase_2,go,300.0,500.0,1.0,,,,,,,,,blue,flipped triangle
0.0,7.0,2.0,1.0,5.0,0.0,0.0,3.0,1.0,phase_2,stop,300.0,500.0,4.0,,,,,,,,,green,cross
0.0,2.0,1.0,0.0,6.0,6.0,556.8665970349684,3.0,1.0,phase_2,go,350.0,500.0,1.0,,,,,,,,,blue,flipped triangle
0.0,7.0,2.0,1.0,6.0,6.0,527.019148983527,3.0,1.0,phase_2,stop,350.0,500.0,3.0,,,,,,,,,green,cross
0.0,4.0,4.0,0.0,5.0,5.0,594.4175850017928,3.0,1.0,phase_2,go,350.0,450.0,1.0,,,,,,,,,cyan,I
0.0,5.0,0.5,1.0,5.0,0.0,0.0,3.0,1.0,phase_2,stop,350.0,450.0,4.0,,,,,,,,,magenta,circle
0.0,1.0,0.5,0.0,5.0,5.0,617.3773930058815,3.0,1.0,phase_2,go,400.0,450.0,1.0,,,,,,,,,yellow,diamond
0.0,2.0,1.0,0.0,5.0,5.0,577.6192100020126,3.0,1.0,phase_2,go,400.0,450.0,1.0,,,,,,,,,blue,flipped triangle
0.0,1.0,0.5,0.0,5.0,5.0,617.4762599985115,3.0,1.0,phase_2,go,400.0,450.0,1.0,,,,,,,,,yellow,diamond
0.0,2.0,1.0,0.0,5.0,5.0,656.5965660265647,3.0,1.0,phase_2,go,400.0,450.0,1.0,,,,,,,,,blue,flipped triangle
0.0,5.0,0.5,1.0,6.0,0.0,0.0,3.0,1.0,phase_2,stop,400.0,450.0,4.0,,,,,,,,,magenta,circle
0.0,2.0,1.0,0.0,5.0,5.0,598.6477570259012,3.0,1.0,phase_2,go,400.0,500.0,1.0,,,,,,,,,blue,flipped triangle
0.0,4.0,4.0,0.0,5.0,5.0,710.8407449559309,3.0,1.0,phase_2,go,400.0,500.0,1.0,,,,,,,,,cyan,I
0.0,4.0,4.0,0.0,5.0,5.0,595.606213028077,3.0,1.0,phase_2,go,400.0,500.0,1.0,,,,,,,,,cyan,I
0.0,3.0,2.0,0.0,6.0,6.0,520.6251889467239,4.0,1.0,phase_2,go,400.0,500.0,1.0,,,,,,,,,gray,hexagon
0.0,8.0,4.0,1.0,6.0,6.0,440.1502439868636,4.0,1.0,phase_2,go,400.0,500.0,1.0,,,,,,,,,white,square
0.0,5.0,0.5,1.0,5.0,5.0,558.551064983476,4.0,1.0,phase_2,go,400.0,500.0,1.0,,,,,,,,,magenta,circle
0.0,8.0,4.0,1.0,5.0,5.0,461.4695470081642,4.0,1.0,phase_2,stop,400.0,500.0,3.0,,,,,,,,,white,square
0.0,3.0,2.0,0.0,5.0,5.0,639.2301109735854,4.0,1.0,phase_2,go,350.0,500.0,1.0,,,,,,,,,gray,hexagon
0.0,6.0,1.0,1.0,6.0,6.0,563.7751450412907,4.0,1.0,phase_2,stop,350.0,500.0,3.0,,,,,,,,,orange,triangle
0.0,4.0,4.0,0.0,6.0,6.0,637.4235679977573,4.0,1.0,phase_2,go,350.0,450.0,1.0,,,,,,,,,cyan,I
0.0,6.0,1.0,1.0,6.0,0.0,0.0,4.0,1.0,phase_2,stop,350.0,450.0,4.0,,,,,,,,,orange,triangle
0.0,6.0,1.0,1.0,6.0,0.0,0.0,4.0,1.0,phase_2,stop,350.0,500.0,4.0,,,,,,,,,orange,triangle
0.0,1.0,0.5,0.0,5.0,5.0,824.8253330239095,4.0,1.0,phase_2,go,350.0,550.0,1.0,,,,,,,,,yellow,diamond
0.0,1.0,0.5,0.0,6.0,6.0,640.1763669564389,4.0,1.0,phase_2,go,350.0,550.0,1.0,,,,,,,,,yellow,diamond
0.0,5.0,0.5,1.0,5.0,0.0,0.0,4.0,1.0,phase_2,stop,350.0,550.0,4.0,,,,,,,,,magenta,circle
0.0,4.0,4.0,0.0,5.0,5.0,649.545249005314,4.0,1.0,phase_2,go,400.0,550.0,1.0,,,,,,,,,cyan,I
0.0,1.0,0.5,0.0,6.0,6.0,593.9824539818801,4.0,1.0,phase_2,go,400.0,550.0,1.0,,,,,,,,,yellow,diamond
0.0,6.0,1.0,1.0,5.0,5.0,536.3440689980052,4.0,1.0,phase_2,go,400.0,550.0,1.0,,,,,,,,,orange,triangle
0.0,3.0,2.0,0.0,6.0,6.0,640.2670919778757,4.0,1.0,phase_2,go,400.0,550.0,1.0,,,,,,,,,gray,hexagon
0.0,8.0,4.0,1.0,6.0,6.0,577.9943609959446,4.0,1.0,phase_2,stop,400.0,550.0,3.0,,,,,,,,,white,square
0.0,3.0,2.0,0.0,6.0,6.0,756.3660610467196,4.0,1.0,phase_2,go,400.0,500.0,1.0,,,,,,,,,gray,hexagon
0.0,4.0,4.0,0.0,6.0,6.0,605.9340249630623,4.0,1.0,phase_2,go,400.0,500.0,1.0,,,,,,,,,cyan,I
0.0,3.0,2.0,0.0,5.0,5.0,556.4645759877749,4.0,1.0,phase_2,go,400.0,500.0,1.0,,,,,,,,,gray,hexagon
0.0,2.0,1.0,0.0,5.0,5.0,652.379592997022,4.0,1.0,phase_2,go,400.0,500.0,1.0,,,,,,,,,blue,flipped triangle
0.0,4.0,4.0,0.0,5.0,5.0,338.3665179717354,4.0,1.0,phase_2,go,400.0,500.0,1.0,,,,,,,,,cyan,I
0.0,5.0,0.5,1.0,6.0,6.0,459.67389998259017,4.0,1.0,phase_2,go,400.0,500.0,1.0,,,,,,,,,magenta,circle
0.0,4.0,4.0,0.0,6.0,6.0,355.3516939864494,4.0,1.0,phase_2,go,400.0,500.0,1.0,,,,,,,,,cyan,I
0.0,8.0,4.0,1.0,6.0,6.0,627.7834699722007,4.0,1.0,phase_2,go,400.0,500.0,1.0,,,,,,,,,white,square
0.0,7.0,2.0,1.0,5.0,0.0,0.0,4.0,1.0,phase_2,stop,400.0,500.0,4.0,,,,,,,,,green,cross
0.0,2.0,1.0,0.0,6.0,6.0,786.4616939914413,4.0,1.0,phase_2,go,450.0,500.0,1.0,,,,,,,,,blue,flipped triangle
0.0,3.0,2.0,0.0,5.0,5.0,446.7010920052416,4.0,1.0,phase_2,go,450.0,500.0,1.0,,,,,,,,,gray,hexagon
0.0,8.0,4.0,1.0,5.0,5.0,439.1121679800562,4.0,1.0,phase_2,stop,450.0,500.0,3.0,,,,,,,,,white,square
0.0,6.0,1.0,1.0,6.0,6.0,581.6640360280871,4.0,1.0,phase_2,go,400.0,500.0,1.0,,,,,,,,,orange,triangle
0.0,5.0,0.5,1.0,5.0,5.0,629.0342499851249,4.0,1.0,phase_2,go,400.0,500.0,1.0,,,,,,,,,magenta,circle
0.0,1.0,0.5,0.0,5.0,5.0,631.9102640263736,4.0,1.0,phase_2,go,400.0,500.0,1.0,,,,,,,,,yellow,diamond
0.0,4.0,4.0,0.0,6.0,6.0,598.5933320480399,4.0,1.0,phase_2,go,400.0,500.0,1.0,,,,,,,,,cyan,I
0.0,6.0,1.0,1.0,6.0,6.0,413.7215480441227,4.0,1.0,phase_2,stop,400.0,500.0,3.0,,,,,,,,,orange,triangle
0.0,5.0,0.5,1.0,6.0,6.0,516.4828289998695,4.0,1.0,phase_2,stop,400.0,450.0,3.0,,,,,,,,,magenta,circle
0.0,1.0,0.5,0.0,6.0,6.0,597.8648830205202,4.0,1.0,phase_2,go,400.0,400.0,1.0,,,,,,,,,yellow,diamond
0.0,1.0,0.5,0.0,5.0,5.0,511.84599002590403,5.0,1.0,phase_2,go,400.0,400.0,1.0,,,,,,,,,yellow,diamond
0.0,7.0,2.0,1.0,6.0,6.0,412.5024909735657,5.0,1.0,phase_2,go,400.0,400.0,1.0,,,,,,,,,green,cross
0.0,1.0,0.5,0.0,5.0,5.0,471.4340799837373,5.0,1.0,phase_2,go,400.0,400.0,1.0,,,,,,,,,yellow,diamond
0.0,6.0,1.0,1.0,6.0,6.0,461.284515040461,5.0,1.0,phase_2,stop,400.0,400.0,3.0,,,,,,,,,orange,triangle
0.0,6.0,1.0,1.0,5.0,5.0,492.1645739814266,5.0,1.0,phase_2,stop,400.0,350.0,3.0,,,,,,,,,orange,triangle
0.0,6.0,1.0,1.0,6.0,0.0,0.0,5.0,1.0,phase_2,stop,350.0,350.0,4.0,,,,,,,,,orange,triangle
0.0,3.0,2.0,0.0,5.0,5.0,691.5578600019217,5.0,1.0,phase_2,go,350.0,400.0,1.0,,,,,,,,,gray,hexagon
0.0,4.0,4.0,0.0,6.0,6.0,603.5903969896026,5.0,1.0,phase_2,go,350.0,400.0,1.0,,,,,,,,,cyan,I
0.0,4.0,4.0,0.0,6.0,6.0,460.0588679895736,5.0,1.0,phase_2,go,350.0,400.0,1.0,,,,,,,,,cyan,I
0.0,8.0,4.0,1.0,6.0,0.0,0.0,5.0,1.0,phase_2,stop,350.0,400.0,4.0,,,,,,,,,white,square
0.0,1.0,0.5,0.0,5.0,5.0,826.535728003364,5.0,1.0,phase_2,go,350.0,450.0,1.0,,,,,,,,,yellow,diamond
0.0,3.0,2.0,0.0,5.0,5.0,401.1684859870001,5.0,1.0,phase_2,go,350.0,450.0,1.0,,,,,,,,,gray,hexagon
0.0,8.0,4.0,1.0,6.0,0.0,0.0,5.0,1.0,phase_2,stop,350.0,450.0,4.0,,,,,,,,,white,square
0.0,8.0,4.0,1.0,5.0,0.0,0.0,5.0,1.0,phase_2,stop,350.0,500.0,4.0,,,,,,,,,white,square
0.0,5.0,0.5,1.0,6.0,6.0,381.4109970116988,5.0,1.0,phase_2,stop,400.0,500.0,3.0,,,,,,,,,magenta,circle
0.0,5.0,0.5,1.0,5.0,5.0,583.1790619995445,5.0,1.0,phase_2,go,400.0,450.0,1.0,,,,,,,,,magenta,circle
0.0,8.0,4.0,1.0,6.0,6.0,720.3800719580613,5.0,1.0,phase_2,go,400.0,450.0,1.0,,,,,,,,,white,square
0.0,7.0,2.0,1.0,5.0,5.0,445.7525230245664,5.0,1.0,phase_2,stop,400.0,450.0,3.0,,,,,,,,,green,cross
0.0,4.0,4.0,0.0,6.0,6.0,636.7191500030458,5.0,1.0,phase_2,go,350.0,450.0,1.0,,,,,,,,,cyan,I
0.0,5.0,0.5,1.0,5.0,5.0,804.304265009705,5.0,1.0,phase_2,go,350.0,450.0,1.0,,,,,,,,,magenta,circle
0.0,2.0,1.0,0.0,6.0,6.0,658.0506470054388,5.0,1.0,phase_2,go,350.0,450.0,1.0,,,,,,,,,blue,flipped triangle
0.0,7.0,2.0,1.0,6.0,0.0,0.0,5.0,1.0,phase_2,stop,350.0,450.0,4.0,,,,,,,,,green,cross
0.0,2.0,1.0,0.0,5.0,5.0,617.3692269949242,5.0,1.0,phase_2,go,350.0,500.0,1.0,,,,,,,,,blue,flipped triangle
0.0,2.0,1.0,0.0,6.0,6.0,747.5404140423052,5.0,1.0,phase_2,go,350.0,500.0,1.0,,,,,,,,,blue,flipped triangle
0.0,4.0,4.0,0.0,6.0,6.0,787.4925559735857,5.0,1.0,phase_2,go,350.0,500.0,1.0,,,,,,,,,cyan,I
0.0,2.0,1.0,0.0,6.0,6.0,391.6495339944958,5.0,1.0,phase_2,go,350.0,500.0,1.0,,,,,,,,,blue,flipped triangle
0.0,5.0,0.5,1.0,5.0,0.0,0.0,5.0,1.0,phase_2,stop,350.0,500.0,4.0,,,,,,,,,magenta,circle
0.0,2.0,1.0,0.0,5.0,5.0,696.8209439655766,5.0,1.0,phase_2,go,400.0,500.0,1.0,,,,,,,,,blue,flipped triangle
0.0,2.0,1.0,0.0,5.0,5.0,693.8719620229676,5.0,1.0,phase_2,go,400.0,500.0,1.0,,,,,,,,,blue,flipped triangle
0.0,1.0,0.5,0.0,6.0,6.0,621.8837469932623,5.0,1.0,phase_2,go,400.0,500.0,1.0,,,,,,,,,yellow,diamond
0.0,5.0,0.5,1.0,5.0,0.0,0.0,5.0,1.0,phase_2,stop,400.0,500.0,4.0,,,,,,,,,magenta,circle
0.0,4.0,4.0,0.0,6.0,6.0,574.9192830407992,5.0,1.0,phase_2,go,450.0,500.0,1.0,,,,,,,,,cyan,I
0.0,3.0,2.0,0.0,5.0,5.0,550.153301039245,5.0,1.0,phase_2,go,450.0,500.0,1.0,,,,,,,,,gray,hexagon
0.0,4.0,4.0,0.0,6.0,6.0,476.2054319726303,5.0,1.0,phase_2,go,450.0,500.0,1.0,,,,,,,,,cyan,I
0.0,5.0,0.5,1.0,5.0,0.0,0.0,5.0,1.0,phase_2,stop,450.0,500.0,4.0,,,,,,,,,magenta,circle
0.0,4.0,4.0,0.0,6.0,6.0,754.6454420080408,5.0,1.0,phase_2,go,500.0,500.0,1.0,,,,,,,,,cyan,I
0.0,2.0,1.0,0.0,6.0,6.0,522.5344959762879,6.0,1.0,phase_2,go,500.0,500.0,1.0,,,,,,,,,blue,flipped triangle
0.0,6.0,1.0,1.0,5.0,5.0,549.788374977652,6.0,1.0,phase_2,stop,500.0,500.0,3.0,,,,,,,,,orange,triangle
0.0,8.0,4.0,1.0,6.0,6.0,347.8810290107503,6.0,1.0,phase_2,stop,450.0,500.0,3.0,,,,,,,,,white,square
0.0,3.0,2.0,0.0,5.0,5.0,464.8264549905434,6.0,1.0,phase_2,go,450.0,450.0,1.0,,,,,,,,,gray,hexagon
0.0,3.0,2.0,0.0,6.0,6.0,624.2945030098781,6.0,1.0,phase_2,go,450.0,450.0,1.0,,,,,,,,,gray,hexagon
0.0,3.0,2.0,0.0,6.0,6.0,666.8679290451109,6.0,1.0,phase_2,go,450.0,450.0,1.0,,,,,,,,,gray,hexagon
0.0,1.0,0.5,0.0,6.0,6.0,321.6023959685117,6.0,1.0,phase_2,go,450.0,450.0,1.0,,,,,,,,,yellow,diamond
0.0,2.0,1.0,0.0,6.0,6.0,528.6014389712363,6.0,1.0,phase_2,go,450.0,450.0,1.0,,,,,,,,,blue,flipped triangle
0.0,6.0,1.0,1.0,6.0,6.0,309.8445790237747,6.0,1.0,phase_2,stop,450.0,450.0,3.0,,,,,,,,,orange,triangle
0.0,3.0,2.0,0.0,6.0,6.0,517.5490179681219,6.0,1.0,phase_2,go,450.0,400.0,1.0,,,,,,,,,gray,hexagon
0.0,6.0,1.0,1.0,6.0,0.0,0.0,6.0,1.0,phase_2,stop,450.0,400.0,4.0,,,,,,,,,orange,triangle
0.0,1.0,0.5,0.0,6.0,6.0,608.6020449874923,6.0,1.0,phase_2,go,450.0,450.0,1.0,,,,,,,,,yellow,diamond
0.0,2.0,1.0,0.0,5.0,5.0,605.0012159976177,6.0,1.0,phase_2,go,450.0,450.0,1.0,,,,,,,,,blue,flipped triangle
0.0,5.0,0.5,1.0,5.0,5.0,548.0009699822403,6.0,1.0,phase_2,stop,450.0,450.0,3.0,,,,,,,,,magenta,circle
0.0,7.0,2.0,1.0,5.0,5.0,691.4680470363237,6.0,1.0,phase_2,go,400.0,450.0,1.0,,,,,,,,,green,cross
0.0,6.0,1.0,1.0,6.0,0.0,0.0,6.0,1.0,phase_2,stop,400.0,450.0,4.0,,,,,,,,,orange,triangle
0.0,6.0,1.0,1.0,5.0,0.0,0.0,6.0,1.0,phase_2,stop,400.0,500.0,4.0,,,,,,,,,orange,triangle
0.0,1.0,0.5,0.0,5.0,5.0,693.0125450016931,6.0,1.0,phase_2,go,450.0,500.0,1.0,,,,,,,,,yellow,diamond
0.0,1.0,0.5,0.0,5.0,5.0,648.5032369964756,6.0,1.0,phase_2,go,450.0,500.0,1.0,,,,,,,,,yellow,diamond
0.0,2.0,1.0,0.0,5.0,5.0,571.1142140207812,6.0,1.0,phase_2,go,450.0,500.0,1.0,,,,,,,,,blue,flipped triangle
0.0,5.0,0.5,1.0,6.0,0.0,0.0,6.0,1.0,phase_2,stop,450.0,500.0,4.0,,,,,,,,,magenta,circle
0.0,2.0,1.0,0.0,6.0,6.0,607.9291069763713,6.0,1.0,phase_2,go,450.0,550.0,1.0,,,,,,,,,blue,flipped triangle
0.0,8.0,4.0,1.0,6.0,6.0,609.5101110404357,6.0,1.0,phase_2,stop,450.0,550.0,3.0,,,,,,,,,white,square
0.0,5.0,0.5,1.0,5.0,0.0,0.0,6.0,1.0,phase_2,stop,450.0,500.0,4.0,,,,,,,,,magenta,circle
0.0,5.0,0.5,1.0,6.0,0.0,0.0,6.0,1.0,phase_2,stop,500.0,500.0,4.0,,,,,,,,,magenta,circle
0.0,1.0,0.5,0.0,6.0,6.0,1308.9443430071697,6.0,1.0,phase_2,go,500.0,550.0,1.0,,,,,,,,,yellow,diamond
0.0,8.0,4.0,1.0,6.0,6.0,389.2613769858144,6.0,1.0,phase_2,stop,500.0,550.0,3.0,,,,,,,,,white,square
0.0,2.0,1.0,0.0,5.0,5.0,582.665788999293,6.0,1.0,phase_2,go,500.0,500.0,1.0,,,,,,,,,blue,flipped triangle
0.0,7.0,2.0,1.0,5.0,0.0,0.0,6.0,1.0,phase_2,stop,500.0,500.0,4.0,,,,,,,,,green,cross
0.0,4.0,4.0,0.0,5.0,5.0,710.8104830258526,6.0,1.0,phase_2,go,550.0,500.0,1.0,,,,,,,,,cyan,I
0.0,3.0,2.0,0.0,6.0,6.0,698.293409019243,6.0,1.0,phase_2,go,550.0,500.0,1.0,,,,,,,,,gray,hexagon
0.0,2.0,1.0,0.0,5.0,5.0,538.2826650165953,6.0,1.0,phase_2,go,550.0,500.0,1.0,,,,,,,,,blue,flipped triangle
0.0,1.0,0.5,0.0,6.0,6.0,530.3097660071217,6.0,1.0,phase_2,go,550.0,500.0,1.0,,,,,,,,,yellow,diamond
0.0,4.0,4.0,0.0,5.0,5.0,579.1968639823608,6.0,1.0,phase_2,go,550.0,500.0,1.0,,,,,,,,,cyan,I
0.0,3.0,2.0,0.0,6.0,6.0,281.2325810082257,6.0,1.0,phase_2,go,550.0,500.0,1.0,,,,,,,,,gray,hexagon
0.0,6.0,1.0,1.0,5.0,5.0,487.8006140352227,6.0,1.0,phase_2,stop,550.0,500.0,3.0,,,,,,,,,orange,triangle
0.0,5.0,0.5,1.0,6.0,6.0,341.0719489911571,7.0,1.0,phase_2,go,500.0,500.0,1.0,,,,,,,,,magenta,circle
0.0,4.0,4.0,0.0,5.0,5.0,349.9460569582879,7.0,1.0,phase_2,go,500.0,500.0,1.0,,,,,,,,,cyan,I
0.0,4.0,4.0,0.0,6.0,6.0,559.3992240028456,7.0,1.0,phase_2,go,500.0,500.0,1.0,,,,,,,,,cyan,I
0.0,6.0,1.0,1.0,6.0,6.0,594.8445950052701,7.0,1.0,phase_2,stop,500.0,500.0,3.0,,,,,,,,,orange,triangle
0.0,1.0,0.5,0.0,5.0,5.0,650.353292003274,7.0,1.0,phase_2,go,500.0,450.0,1.0,,,,,,,,,yellow,diamond
0.0,1.0,0.5,0.0,5.0,5.0,412.9843589616939,7.0,1.0,phase_2,go,500.0,450.0,1.0,,,,,,,,,yellow,diamond
0.0,4.0,4.0,0.0,5.0,5.0,633.1184830050915,7.0,1.0,phase_2,go,500.0,450.0,1.0,,,,,,,,,cyan,I
0.0,8.0,4.0,1.0,6.0,0.0,0.0,7.0,1.0,phase_2,stop,500.0,450.0,4.0,,,,,,,,,white,square
0.0,1.0,0.5,0.0,6.0,6.0,787.2864989913069,7.0,1.0,phase_2,go,500.0,500.0,1.0,,,,,,,,,yellow,diamond
0.0,1.0,0.5,0.0,6.0,6.0,753.621481009759,7.0,1.0,phase_2,go,500.0,500.0,1.0,,,,,,,,,yellow,diamond
0.0,1.0,0.5,0.0,6.0,6.0,513.8144619995728,7.0,1.0,phase_2,go,500.0,500.0,1.0,,,,,,,,,yellow,diamond
0.0,5.0,0.5,1.0,5.0,5.0,640.0480000302196,7.0,1.0,phase_2,stop,500.0,500.0,3.0,,,,,,,,,magenta,circle
0.0,3.0,2.0,0.0,5.0,5.0,734.2808530083857,7.0,1.0,phase_2,go,450.0,500.0,1.0,,,,,,,,,gray,hexagon
0.0,4.0,4.0,0.0,5.0,5.0,656.2861150014214,7.0,1.0,phase_2,go,450.0,500.0,1.0,,,,,,,,,cyan,I
0.0,2.0,1.0,0.0,6.0,6.0,605.8540410012938,7.0,1.0,phase_2,go,450.0,500.0,1.0,,,,,,,,,blue,flipped triangle
0.0,5.0,0.5,1.0,6.0,6.0,630.6497249752283,7.0,1.0,phase_2,stop,450.0,500.0,3.0,,,,,,,,,magenta,circle
0.0,7.0,2.0,1.0,5.0,5.0,536.3102359697223,7.0,1.0,phase_2,stop,450.0,450.0,3.0,,,,,,,,,green,cross
0.0,6.0,1.0,1.0,5.0,0.0,0.0,7.0,1.0,phase_2,stop,400.0,450.0,4.0,,,,,,,,,orange,triangle
0.0,2.0,1.0,0.0,5.0,5.0,690.5441579874605,7.0,1.0,phase_2,go,450.0,450.0,1.0,,,,,,,,,blue,flipped triangle
0.0,5.0,0.5,1.0,5.0,0.0,0.0,7.0,1.0,phase_2,stop,450.0,450.0,4.0,,,,,,,,,magenta,circle
0.0,7.0,2.0,1.0,6.0,0.0,0.0,7.0,1.0,phase_2,stop,500.0,450.0,4.0,,,,,,,,,green,cross
0.0,1.0,0.5,0.0,6.0,6.0,772.0392229966819,7.0,1.0,phase_2,go,500.0,500.0,1.0,,,,,,,,,yellow,diamond
0.0,3.0,2.0,0.0,5.0,5.0,780.0424509914592,7.0,1.0,phase_2,go,500.0,500.0,1.0,,,,,,,,,gray,hexagon
0.0,7.0,2.0,1.0,5.0,5.0,1040.1802730048075,7.0,1.0,phase_2,stop,500.0,500.0,3.0,,,,,,,,,green,cross
0.0,8.0,4.0,1.0,6.0,0.0,0.0,7.0,1.0,phase_2,stop,450.0,500.0,4.0,,,,,,,,,white,square
0.0,2.0,1.0,0.0,6.0,6.0,647.7947870153002,7.0,1.0,phase_2,go,450.0,550.0,1.0,,,,,,,,,blue,flipped triangle
0.0,5.0,0.5,1.0,6.0,6.0,735.9943040064536,7.0,1.0,phase_2,go,450.0,550.0,1.0,,,,,,,,,magenta,circle
0.0,4.0,4.0,0.0,6.0,6.0,720.0221350067295,7.0,1.0,phase_2,go,450.0,550.0,1.0,,,,,,,,,cyan,I
0.0,8.0,4.0,1.0,5.0,5.0,629.5094810193405,7.0,1.0,phase_2,go,450.0,550.0,1.0,,,,,,,,,white,square
0.0,6.0,1.0,1.0,5.0,5.0,662.0881379931234,7.0,1.0,phase_2,go,450.0,550.0,1.0,,,,,,,,,orange,triangle
0.0,8.0,4.0,1.0,5.0,5.0,326.9312519696541,7.0,1.0,phase_2,go,450.0,550.0,1.0,,,,,,,,,white,square
0.0,8.0,4.0,1.0,5.0,0.0,0.0,7.0,1.0,phase_2,stop,450.0,550.0,4.0,,,,,,,,,white,square
0.0,6.0,1.0,1.0,6.0,6.0,659.5688880188391,7.0,1.0,phase_2,stop,500.0,550.0,3.0,,,,,,,,,orange,triangle
0.0,2.0,1.0,0.0,5.0,5.0,836.5715880063362,7.0,1.0,phase_2,go,500.0,500.0,1.0,,,,,,,,,blue,flipped triangle
0.0,1.0,0.5,0.0,6.0,6.0,682.7166330185719,7.0,1.0,phase_2,go,500.0,500.0,1.0,,,,,,,,,yellow,diamond
0.0,3.0,2.0,0.0,6.0,6.0,771.3130040210672,7.0,1.0,phase_2,go,500.0,500.0,1.0,,,,,,,,,gray,hexagon
0.0,7.0,2.0,1.0,6.0,6.0,280.8256369899027,8.0,1.0,phase_2,stop,500.0,500.0,3.0,,,,,,,,,green,cross
0.0,2.0,1.0,0.0,6.0,6.0,554.0694809751585,8.0,1.0,phase_2,go,500.0,450.0,1.0,,,,,,,,,blue,flipped triangle
0.0,1.0,0.5,0.0,6.0,6.0,642.7359260269441,8.0,1.0,phase_2,go,500.0,450.0,1.0,,,,,,,,,yellow,diamond
0.0,7.0,2.0,1.0,6.0,6.0,410.1809459971264,8.0,1.0,phase_2,stop,500.0,450.0,3.0,,,,,,,,,green,cross
0.0,7.0,2.0,1.0,5.0,5.0,776.6100899898447,8.0,1.0,phase_2,go,500.0,400.0,1.0,,,,,,,,,green,cross
0.0,7.0,2.0,1.0,5.0,5.0,537.666646996513,8.0,1.0,phase_2,stop,500.0,400.0,3.0,,,,,,,,,green,cross
0.0,6.0,1.0,1.0,5.0,0.0,0.0,8.0,1.0,phase_2,stop,450.0,400.0,4.0,,,,,,,,,orange,triangle
0.0,4.0,4.0,0.0,5.0,5.0,664.1055850195698,8.0,1.0,phase_2,go,500.0,400.0,1.0,,,,,,,,,cyan,I
0.0,8.0,4.0,1.0,6.0,0.0,0.0,8.0,1.0,phase_2,stop,500.0,400.0,4.0,,,,,,,,,white,square
0.0,7.0,2.0,1.0,5.0,0.0,0.0,8.0,1.0,phase_2,stop,500.0,450.0,4.0,,,,,,,,,green,cross
0.0,6.0,1.0,1.0,5.0,0.0,0.0,8.0,1.0,phase_2,stop,550.0,450.0,4.0,,,,,,,,,orange,triangle
0.0,7.0,2.0,1.0,6.0,6.0,620.2182829729281,8.0,1.0,phase_2,go,600.0,450.0,1.0,,,,,,,,,green,cross
0.0,6.0,1.0,1.0,5.0,5.0,637.7993209753186,8.0,1.0,phase_2,stop,600.0,450.0,3.0,,,,,,,,,orange,triangle
0.0,3.0,2.0,0.0,6.0,6.0,778.2393629895523,8.0,1.0,phase_2,go,550.0,450.0,1.0,,,,,,,,,gray,hexagon
0.0,6.0,1.0,1.0,5.0,0.0,0.0,8.0,1.0,phase_2,stop,550.0,450.0,4.0,,,,,,,,,orange,triangle
0.0,6.0,1.0,1.0,5.0,5.0,832.4481879826635,8.0,1.0,phase_2,go,600.0,450.0,1.0,,,,,,,,,orange,triangle
0.0,7.0,2.0,1.0,6.0,0.0,0.0,8.0,1.0,phase_2,stop,600.0,450.0,4.0,,,,,,,,,green,cross
0.0,3.0,2.0,0.0,5.0,5.0,385.3155050310306,8.0,1.0,phase_2,go,600.0,500.0,1.0,,,,,,,,,gray,hexagon
0.0,7.0,2.0,1.0,5.0,5.0,702.8057299903594,8.0,1.0,phase_2,stop,600.0,500.0,3.0,,,,,,,,,green,cross
0.0,7.0,2.0,1.0,5.0,5.0,790.6448250287212,8.0,1.0,phase_2,go,550.0,500.0,1.0,,,,,,,,,green,cross
0.0,4.0,4.0,0.0,6.0,6.0,672.8958209860139,8.0,1.0,phase_2,go,550.0,500.0,1.0,,,,,,,,,cyan,I
0.0,4.0,4.0,0.0,6.0,6.0,631.9395530153997,8.0,1.0,phase_2,go,550.0,500.0,1.0,,,,,,,,,cyan,I
0.0,7.0,2.0,1.0,6.0,0.0,0.0,8.0,1.0,phase_2,stop,550.0,500.0,4.0,,,,,,,,,green,cross
0.0,7.0,2.0,1.0,6.0,0.0,0.0,8.0,1.0,phase_2,stop,550.0,550.0,4.0,,,,,,,,,green,cross
0.0,6.0,1.0,1.0,5.0,5.0,1029.9403659882955,8.0,1.0,phase_2,go,550.0,600.0,1.0,,,,,,,,,orange,triangle
0.0,4.0,4.0,0.0,5.0,5.0,699.9180240090936,8.0,1.0,phase_2,go,550.0,600.0,1.0,,,,,,,,,cyan,I
0.0,2.0,1.0,0.0,5.0,5.0,747.4603650043719,8.0,1.0,phase_2,go,550.0,600.0,1.0,,,,,,,,,blue,flipped triangle
0.0,6.0,1.0,1.0,6.0,6.0,697.686372033786,8.0,1.0,phase_2,stop,550.0,600.0,3.0,,,,,,,,,orange,triangle
0.0,1.0,0.5,0.0,6.0,6.0,931.1936320154928,8.0,1.0,phase_2,go,550.0,550.0,1.0,,,,,,,,,yellow,diamond
0.0,8.0,4.0,1.0,5.0,0.0,0.0,8.0,1.0,phase_2,stop,550.0,550.0,4.0,,,,,,,,,white,square
0.0,8.0,4.0,1.0,6.0,0.0,0.0,8.0,1.0,phase_2,stop,600.0,550.0,4.0,,,,,,,,,white,square
0.0,5.0,0.5,1.0,5.0,5.0,776.4891150291078,8.0,1.0,phase_2,go,600.0,600.0,1.0,,,,,,,,,magenta,circle
0.0,5.0,0.5,1.0,6.0,0.0,0.0,8.0,1.0,phase_2,stop,600.0,600.0,4.0,,,,,,,,,magenta,circle
0.0,2.0,1.0,0.0,6.0,6.0,945.0492750038392,8.0,1.0,phase_2,go,600.0,650.0,1.0,,,,,,,,,blue,flipped triangle
0.0,6.0,1.0,1.0,6.0,0.0,0.0,8.0,1.0,phase_2,stop,600.0,650.0,4.0,,,,,,,,,orange,triangle
0.0,8.0,4.0,1.0,5.0,5.0,797.3703509778716,8.0,1.0,phase_2,go,600.0,700.0,1.0,,,,,,,,,white,square
0.0,4.0,4.0,0.0,7.0,6.0,1407.8453839756548,1.0,2.0,phase_3,,,,,216.0,4.0,108.0,54.0,270.0,324.0,162.0,216.0,cyan,I
0.0,7.0,2.0,1.0,7.0,1.0,1287.3853049823083,1.0,1.0,phase_3,,,,,324.0,6.0,324.0,108.0,54.0,162.0,270.0,216.0,green,cross
0.0,5.0,0.5,1.0,7.0,1.0,1588.5028829798102,1.0,1.0,phase_3,,,,,88.0,2.0,88.0,176.0,264.0,220.0,132.0,44.0,magenta,circle
0.0,3.0,2.0,0.0,7.0,1.0,1322.481355979107,1.0,1.0,phase_3,,,,,204.0,6.0,204.0,68.0,170.0,34.0,102.0,136.0,gray,hexagon
0.0,4.0,4.0,0.0,7.0,2.0,1252.484757977072,1.0,1.0,phase_3,,,,,117.0,3.0,195.0,117.0,234.0,78.0,156.0,39.0,cyan,I
0.0,8.0,4.0,1.0,7.0,6.0,990.821765968576,1.0,1.0,phase_3,,,,,195.0,5.0,156.0,234.0,117.0,39.0,78.0,195.0,white,square
0.0,1.0,0.5,0.0,7.0,1.0,545.0213540461846,1.0,1.0,phase_3,,,,,117.0,3.0,117.0,78.0,195.0,39.0,156.0,234.0,yellow,diamond
0.0,7.0,2.0,1.0,7.0,4.0,1175.622766953893,1.0,1.0,phase_3,,,,,294.0,6.0,49.0,98.0,147.0,294.0,245.0,196.0,green,cross
0.0,5.0,0.5,1.0,7.0,1.0,626.0580239468254,1.0,1.0,phase_3,,,,,54.0,1.0,54.0,108.0,162.0,324.0,270.0,216.0,magenta,circle
0.0,2.0,1.0,0.0,7.0,5.0,1069.1692989785224,1.0,1.0,phase_3,,,,,234.0,6.0,78.0,195.0,39.0,117.0,234.0,156.0,blue,flipped triangle
0.0,3.0,2.0,0.0,7.0,2.0,1022.8255689726211,1.0,1.0,phase_3,,,,,196.0,4.0,294.0,196.0,49.0,147.0,245.0,98.0,gray,hexagon
0.0,8.0,4.0,1.0,7.0,6.0,462.2649819939397,1.0,1.0,phase_3,,,,,136.0,4.0,170.0,102.0,68.0,204.0,34.0,136.0,white,square
0.0,1.0,0.5,0.0,7.0,4.0,1110.3828360210173,1.0,1.0,phase_3,,,,,204.0,6.0,68.0,34.0,136.0,204.0,102.0,170.0,yellow,diamond
0.0,7.0,2.0,1.0,7.0,1.0,801.6277499846183,1.0,1.0,phase_3,,,,,102.0,3.0,102.0,68.0,204.0,136.0,34.0,170.0,green,cross
0.0,4.0,4.0,0.0,7.0,3.0,1098.4037679736502,1.0,1.0,phase_3,,,,,204.0,6.0,34.0,68.0,204.0,170.0,102.0,136.0,cyan,I
0.0,2.0,1.0,0.0,7.0,4.0,789.3244400038384,1.0,1.0,phase_3,,,,,34.0,1.0,102.0,136.0,68.0,34.0,204.0,170.0,blue,flipped triangle
0.0,8.0,4.0,1.0,7.0,2.0,630.1639449666254,1.0,1.0,phase_3,,,,,216.0,4.0,108.0,216.0,324.0,54.0,162.0,270.0,white,square
0.0,7.0,2.0,1.0,7.0,6.0,902.2159760352224,1.0,1.0,phase_3,,,,,39.0,1.0,195.0,117.0,234.0,78.0,156.0,39.0,green,cross
0.0,2.0,1.0,0.0,7.0,1.0,753.190305957105,1.0,1.0,phase_3,,,,,196.0,4.0,196.0,245.0,147.0,294.0,98.0,49.0,blue,flipped triangle
0.0,2.0,1.0,0.0,7.0,6.0,834.4617919647135,1.0,1.0,phase_3,,,,,196.0,4.0,245.0,147.0,49.0,294.0,98.0,196.0,blue,flipped triangle
0.0,6.0,1.0,1.0,7.0,1.0,783.8856989983469,2.0,1.0,phase_3,,,,,117.0,3.0,117.0,234.0,156.0,195.0,78.0,39.0,orange,triangle
0.0,4.0,4.0,0.0,7.0,3.0,1348.627850995399,2.0,1.0,phase_3,,,,,176.0,4.0,220.0,132.0,176.0,44.0,264.0,88.0,cyan,I
0.0,3.0,2.0,0.0,7.0,5.0,1077.8542690095492,2.0,1.0,phase_3,,,,,162.0,3.0,54.0,108.0,216.0,324.0,162.0,270.0,gray,hexagon
0.0,8.0,4.0,1.0,7.0,2.0,732.8145650099032,2.0,1.0,phase_3,,,,,108.0,2.0,54.0,108.0,162.0,324.0,216.0,270.0,white,square
0.0,4.0,4.0,0.0,7.0,4.0,1481.5877829678357,2.0,1.0,phase_3,,,,,270.0,5.0,162.0,324.0,54.0,270.0,216.0,108.0,cyan,I
0.0,3.0,2.0,0.0,7.0,1.0,826.8994740210474,2.0,1.0,phase_3,,,,,195.0,5.0,195.0,39.0,234.0,156.0,117.0,78.0,gray,hexagon
0.0,4.0,4.0,0.0,7.0,6.0,1395.1328090042807,2.0,1.0,phase_3,,,,,68.0,2.0,102.0,170.0,204.0,136.0,34.0,68.0,cyan,I
0.0,7.0,2.0,1.0,7.0,2.0,1177.4481660104357,2.0,1.0,phase_3,,,,,162.0,3.0,324.0,162.0,216.0,54.0,108.0,270.0,green,cross
0.0,7.0,2.0,1.0,7.0,1.0,806.458325998392,2.0,1.0,phase_3,,,,,220.0,5.0,220.0,264.0,176.0,132.0,44.0,88.0,green,cross
0.0,2.0,1.0,0.0,7.0,3.0,1022.8835850139149,2.0,1.0,phase_3,,,,,162.0,3.0,216.0,324.0,162.0,270.0,54.0,108.0,blue,flipped triangle
0.0,3.0,2.0,0.0,7.0,4.0,1006.7421299754642,2.0,1.0,phase_3,,,,,34.0,1.0,68.0,204.0,170.0,34.0,102.0,136.0,gray,hexagon
0.0,8.0,4.0,1.0,7.0,1.0,593.5491469572298,2.0,1.0,phase_3,,,,,98.0,2.0,98.0,49.0,147.0,294.0,245.0,196.0,white,square
0.0,2.0,1.0,0.0,7.0,1.0,739.6810080390424,2.0,1.0,phase_3,,,,,176.0,4.0,176.0,264.0,220.0,88.0,44.0,132.0,blue,flipped triangle
0.0,6.0,1.0,1.0,7.0,1.0,725.322657963261,2.0,1.0,phase_3,,,,,176.0,4.0,176.0,44.0,132.0,88.0,264.0,220.0,orange,triangle
0.0,5.0,0.5,1.0,7.0,4.0,860.7262750156224,2.0,1.0,phase_3,,,,,49.0,1.0,196.0,98.0,245.0,49.0,294.0,147.0,magenta,circle
0.0,6.0,1.0,1.0,7.0,4.0,741.4989859680645,2.0,1.0,phase_3,,,,,34.0,1.0,136.0,170.0,102.0,34.0,68.0,204.0,orange,triangle
0.0,1.0,0.5,0.0,7.0,4.0,775.1764149870723,2.0,1.0,phase_3,,,,,220.0,5.0,176.0,264.0,132.0,220.0,44.0,88.0,yellow,diamond
0.0,4.0,4.0,0.0,7.0,2.0,490.8874190296046,2.0,1.0,phase_3,,,,,78.0,2.0,156.0,78.0,234.0,117.0,195.0,39.0,cyan,I
0.0,4.0,4.0,0.0,7.0,3.0,754.3478540028445,2.0,1.0,phase_3,,,,,294.0,6.0,245.0,147.0,294.0,98.0,196.0,49.0,cyan,I
0.0,6.0,1.0,1.0,7.0,5.0,978.0521919601596,2.0,1.0,phase_3,,,,,147.0,3.0,49.0,294.0,196.0,245.0,147.0,98.0,orange,triangle
0.0,8.0,4.0,1.0,7.0,5.0,1412.1001260355115,3.0,1.0,phase_3,,,,,176.0,4.0,264.0,88.0,220.0,44.0,176.0,132.0,white,square
0.0,3.0,2.0,0.0,7.0,5.0,1205.9275939827785,3.0,1.0,phase_3,,,,,108.0,2.0,162.0,324.0,216.0,54.0,108.0,270.0,gray,hexagon
0.0,1.0,0.5,0.0,7.0,2.0,657.8440140001476,3.0,1.0,phase_3,,,,,147.0,3.0,49.0,147.0,98.0,294.0,245.0,196.0,yellow,diamond
0.0,5.0,0.5,1.0,7.0,6.0,891.0656390362419,3.0,1.0,phase_3,,,,,270.0,5.0,324.0,54.0,108.0,216.0,162.0,270.0,magenta,circle
0.0,3.0,2.0,0.0,7.0,4.0,873.1413600035012,3.0,1.0,phase_3,,,,,294.0,6.0,245.0,98.0,147.0,294.0,196.0,49.0,gray,hexagon
0.0,4.0,4.0,0.0,7.0,1.0,677.5701260194182,3.0,1.0,phase_3,,,,,176.0,4.0,176.0,88.0,132.0,220.0,44.0,264.0,cyan,I
0.0,5.0,0.5,1.0,7.0,3.0,934.3558890395798,3.0,1.0,phase_3,,,,,68.0,2.0,102.0,34.0,68.0,204.0,170.0,136.0,magenta,circle
0.0,1.0,0.5,0.0,7.0,5.0,1144.615983008407,3.0,1.0,phase_3,,,,,324.0,6.0,108.0,162.0,54.0,270.0,324.0,216.0,yellow,diamond
0.0,5.0,0.5,1.0,7.0,5.0,1248.7111230148005,3.0,1.0,phase_3,,,,,68.0,2.0,102.0,136.0,204.0,170.0,68.0,34.0,magenta,circle
0.0,6.0,1.0,1.0,7.0,1.0,681.8232189980336,3.0,1.0,phase_3,,,,,216.0,4.0,216.0,270.0,54.0,162.0,108.0,324.0,orange,triangle
0.0,2.0,1.0,0.0,7.0,3.0,930.7653740397654,3.0,1.0,phase_3,,,,,234.0,6.0,117.0,39.0,234.0,195.0,78.0,156.0,blue,flipped triangle
0.0,7.0,2.0,1.0,7.0,4.0,539.9989300058223,3.0,1.0,phase_3,,,,,294.0,6.0,245.0,147.0,98.0,294.0,49.0,196.0,green,cross
0.0,3.0,2.0,0.0,7.0,5.0,607.3081170325167,3.0,1.0,phase_3,,,,,195.0,5.0,156.0,39.0,117.0,234.0,195.0,78.0,gray,hexagon
0.0,5.0,0.5,1.0,7.0,2.0,518.6244230135344,3.0,1.0,phase_3,,,,,117.0,3.0,39.0,117.0,195.0,234.0,78.0,156.0,magenta,circle
0.0,1.0,0.5,0.0,7.0,3.0,880.3641929989681,3.0,1.0,phase_3,,,,,147.0,3.0,245.0,196.0,147.0,49.0,294.0,98.0,yellow,diamond
0.0,6.0,1.0,1.0,7.0,5.0,1328.84745701449,3.0,1.0,phase_3,,,,,162.0,3.0,270.0,216.0,108.0,54.0,162.0,324.0,orange,triangle
0.0,6.0,1.0,1.0,7.0,2.0,1105.9323020162992,3.0,1.0,phase_3,,,,,204.0,6.0,170.0,204.0,34.0,102.0,136.0,68.0,orange,triangle
0.0,4.0,4.0,0.0,7.0,6.0,1118.1701149907894,3.0,1.0,phase_3,,,,,245.0,5.0,98.0,147.0,49.0,196.0,294.0,245.0,cyan,I
0.0,2.0,1.0,0.0,7.0,2.0,679.6805280027911,3.0,1.0,phase_3,,,,,324.0,6.0,108.0,324.0,216.0,54.0,270.0,162.0,blue,flipped triangle
0.0,1.0,0.5,0.0,7.0,2.0,969.0317829954438,3.0,1.0,phase_3,,,,,270.0,5.0,324.0,270.0,216.0,54.0,108.0,162.0,yellow,diamond
0.0,8.0,4.0,1.0,7.0,2.0,976.8689030315728,4.0,1.0,phase_3,,,,,49.0,1.0,98.0,49.0,196.0,294.0,147.0,245.0,white,square
0.0,6.0,1.0,1.0,7.0,5.0,553.7463670480065,4.0,1.0,phase_3,,,,,234.0,6.0,195.0,156.0,39.0,78.0,234.0,117.0,orange,triangle
0.0,2.0,1.0,0.0,7.0,3.0,831.4728490076959,4.0,1.0,phase_3,,,,,220.0,5.0,44.0,176.0,220.0,132.0,88.0,264.0,blue,flipped triangle
0.0,6.0,1.0,1.0,7.0,2.0,1218.7793620396403,4.0,1.0,phase_3,,,,,294.0,6.0,196.0,294.0,49.0,147.0,245.0,98.0,orange,triangle
0.0,1.0,0.5,0.0,7.0,1.0,1178.6263429676185,4.0,1.0,phase_3,,,,,88.0,2.0,88.0,220.0,44.0,132.0,176.0,264.0,yellow,diamond
0.0,3.0,2.0,0.0,7.0,6.0,739.8241510381922,4.0,1.0,phase_3,,,,,88.0,2.0,176.0,132.0,44.0,264.0,220.0,88.0,gray,hexagon
0.0,7.0,2.0,1.0,7.0,3.0,721.270142996218,4.0,1.0,phase_3,,,,,102.0,3.0,68.0,204.0,102.0,136.0,34.0,170.0,green,cross
0.0,8.0,4.0,1.0,7.0,5.0,633.4716929704882,4.0,1.0,phase_3,,,,,234.0,6.0,78.0,117.0,195.0,156.0,234.0,39.0,white,square
0.0,6.0,1.0,1.0,7.0,1.0,787.536429008469,4.0,1.0,phase_3,,,,,132.0,3.0,132.0,88.0,176.0,220.0,264.0,44.0,orange,triangle
0.0,8.0,4.0,1.0,7.0,4.0,602.5149170309305,4.0,1.0,phase_3,,,,,34.0,1.0,102.0,136.0,68.0,34.0,204.0,170.0,white,square
0.0,5.0,0.5,1.0,7.0,1.0,715.5540910316631,4.0,1.0,phase_3,,,,,117.0,3.0,117.0,234.0,156.0,78.0,39.0,195.0,magenta,circle
0.0,1.0,0.5,0.0,7.0,5.0,438.2025910308584,4.0,1.0,phase_3,,,,,234.0,6.0,78.0,156.0,195.0,39.0,234.0,117.0,yellow,diamond
0.0,7.0,2.0,1.0,7.0,2.0,848.394274013117,4.0,1.0,phase_3,,,,,176.0,4.0,44.0,176.0,132.0,264.0,88.0,220.0,green,cross
0.0,2.0,1.0,0.0,7.0,4.0,1554.687711992301,4.0,1.0,phase_3,,,,,102.0,3.0,68.0,34.0,136.0,102.0,170.0,204.0,blue,flipped triangle
0.0,1.0,0.5,0.0,7.0,6.0,1451.8045169534162,4.0,1.0,phase_3,,,,,170.0,5.0,68.0,136.0,102.0,204.0,34.0,170.0,yellow,diamond
0.0,5.0,0.5,1.0,7.0,5.0,1585.3630919591524,4.0,1.0,phase_3,,,,,294.0,6.0,147.0,196.0,98.0,49.0,294.0,245.0,magenta,circle
0.0,5.0,0.5,1.0,7.0,4.0,1789.2736629582942,4.0,1.0,phase_3,,,,,132.0,3.0,220.0,88.0,176.0,132.0,264.0,44.0,magenta,circle
0.0,3.0,2.0,0.0,7.0,5.0,1534.401764976792,4.0,1.0,phase_3,,,,,176.0,4.0,88.0,264.0,44.0,220.0,176.0,132.0,gray,hexagon
0.0,8.0,4.0,1.0,7.0,5.0,1856.192256032955,4.0,1.0,phase_3,,,,,44.0,1.0,264.0,132.0,220.0,88.0,44.0,176.0,white,square
0.0,7.0,2.0,1.0,7.0,1.0,1194.9310479685664,4.0,1.0,phase_3,,,,,39.0,1.0,39.0,195.0,78.0,117.0,234.0,156.0,green,cross
