raw_reward_magnitude,stim_reward,stepwise_reward_magnitude,paired_with_stopping,stim_location,response,reaction_time,block,num_trial_presentations,which_phase,stop_signal_trial_type,left_SSD,right_SSD,accuracy,chosen_bidding_amount,chosen_bidding_level,possible_bid_1,possible_bid_2,possible_bid_3,possible_bid_4,possible_bid_5,possible_bid_6,color_text,shape_text
102.0,2.0,1.0,0.0,1.0,1.0,312.1498670079745,1.0,1.0,phase_1,,,,,,,,,,,,,magenta,I
101.0,6.0,1.0,1.0,4.0,4.0,365.3576749784406,1.0,1.0,phase_1,,,,,,,,,,,,,gray,diamond
391.0,4.0,4.0,0.0,1.0,1.0,328.7636589957401,1.0,1.0,phase_1,,,,,,,,,,,,,orange,cross
43.0,5.0,0.5,1.0,4.0,4.0,382.7569179993588,1.0,1.0,phase_1,,,,,,,,,,,,,white,circle
117.0,6.0,1.0,1.0,4.0,4.0,316.3414250011556,1.0,2.0,phase_1,,,,,,,,,,,,,gray,diamond
413.0,8.0,4.0,1.0,1.0,1.0,381.0078070091549,1.0,1.0,phase_1,,,,,,,,,,,,,green,triangle
379.0,4.0,4.0,0.0,2.0,2.0,337.0161950006149,1.0,1.0,phase_1,,,,,,,,,,,,,orange,cross
46.0,5.0,0.5,1.0,3.0,3.0,307.1886489924509,1.0,1.0,phase_1,,,,,,,,,,,,,white,circle
0.0,2.0,0.0,0.0,1.0,1.0,313.0796299956273,1.0,1.0,phase_1,,,,,,,,,,,,,magenta,I
102.0,6.0,1.0,1.0,1.0,1.0,443.5196389968041,1.0,1.0,phase_1,,,,,,,,,,,,,gray,diamond
70.0,1.0,0.5,0.0,2.0,2.0,321.3798859796952,1.0,1.0,phase_1,,,,,,,,,,,,,blue,flipped triangle
52.0,5.0,0.5,1.0,3.0,3.0,271.4124920021277,1.0,1.0,phase_1,,,,,,,,,,,,,white,circle
0.0,2.0,0.0,0.0,3.0,3.0,324.0481310058385,1.0,1.0,phase_1,,,,,,,,,,,,,magenta,I
0.0,8.0,0.0,1.0,2.0,2.0,328.7836840027012,1.0,1.0,phase_1,,,,,,,,,,,,,green,triangle
181.0,7.0,2.0,1.0,3.0,3.0,287.1274500212166,1.0,1.0,phase_1,,,,,,,,,,,,,yellow,hexagon
70.0,5.0,0.5,1.0,1.0,1.0,288.30251499312,1.0,1.0,phase_1,,,,,,,,,,,,,white,circle
0.0,3.0,0.0,0.0,3.0,3.0,279.960301995743,1.0,1.0,phase_1,,,,,,,,,,,,,cyan,square
58.0,1.0,0.5,0.0,3.0,3.0,307.9228280112147,1.0,1.0,phase_1,,,,,,,,,,,,,blue,flipped triangle
98.0,2.0,1.0,0.0,3.0,3.0,287.0549979852512,1.0,1.0,phase_1,,,,,,,,,,,,,magenta,I
390.0,8.0,4.0,1.0,1.0,1.0,315.1137100066989,1.0,1.0,phase_1,,,,,,,,,,,,,green,triangle
0.0,3.0,0.0,0.0,3.0,3.0,271.3393480225932,1.0,1.0,phase_1,,,,,,,,,,,,,cyan,square
50.0,1.0,0.5,0.0,1.0,1.0,286.8485400103964,1.0,1.0,phase_1,,,,,,,,,,,,,blue,flipped triangle
49.0,5.0,0.5,1.0,3.0,3.0,299.9537599971518,1.0,1.0,phase_1,,,,,,,,,,,,,white,circle
78.0,2.0,1.0,0.0,2.0,2.0,271.5899150061887,1.0,1.0,phase_1,,,,,,,,,,,,,magenta,I
0.0,1.0,0.0,0.0,3.0,3.0,291.7965640081092,1.0,1.0,phase_1,,,,,,,,,,,,,blue,flipped triangle
0.0,4.0,0.0,0.0,2.0,2.0,312.0114410121459,1.0,1.0,phase_1,,,,,,,,,,,,,orange,cross
111.0,2.0,1.0,0.0,3.0,3.0,283.5367410152685,1.0,1.0,phase_1,,,,,,,,,,,,,magenta,I
178.0,7.0,2.0,1.0,3.0,3.0,369.0800759941339,1.0,1.0,phase_1,,,,,,,,,,,,,yellow,hexagon
412.0,8.0,4.0,1.0,4.0,4.0,263.4600980090908,1.0,1.0,phase_1,,,,,,,,,,,,,green,triangle
203.0,7.0,2.0,1.0,2.0,2.0,300.1551829802338,1.0,1.0,phase_1,,,,,,,,,,,,,yellow,hexagon
0.0,5.0,0.0,1.0,2.0,2.0,319.1976369998883,1.0,1.0,phase_1,,,,,,,,,,,,,white,circle
381.0,8.0,4.0,1.0,1.0,1.0,324.3287770019378,1.0,1.0,phase_1,,,,,,,,,,,,,green,triangle
76.0,6.0,1.0,1.0,2.0,2.0,303.2878929807339,1.0,1.0,phase_1,,,,,,,,,,,,,gray,diamond
89.0,2.0,1.0,0.0,2.0,2.0,356.0940960014704,1.0,1.0,phase_1,,,,,,,,,,,,,magenta,I
0.0,7.0,0.0,1.0,2.0,2.0,355.693646997679,1.0,1.0,phase_1,,,,,,,,,,,,,yellow,hexagon
33.0,1.0,0.5,0.0,4.0,4.0,344.7787429904565,1.0,1.0,phase_1,,,,,,,,,,,,,blue,flipped triangle
48.0,5.0,0.5,1.0,4.0,4.0,331.340517004719,1.0,1.0,phase_1,,,,,,,,,,,,,white,circle
209.0,7.0,2.0,1.0,3.0,3.0,330.9163069934584,1.0,1.0,phase_1,,,,,,,,,,,,,yellow,hexagon
93.0,6.0,1.0,1.0,4.0,4.0,301.5391349908896,1.0,1.0,phase_1,,,,,,,,,,,,,gray,diamond
0.0,3.0,0.0,0.0,3.0,3.0,316.6498899809085,1.0,1.0,phase_1,,,,,,,,,,,,,cyan,square
391.0,8.0,4.0,1.0,1.0,1.0,373.7576830026228,1.0,1.0,phase_1,,,,,,,,,,,,,green,triangle
191.0,3.0,2.0,0.0,4.0,4.0,340.1221160020213,1.0,1.0,phase_1,,,,,,,,,,,,,cyan,square
101.0,2.0,1.0,0.0,4.0,4.0,327.3688059998676,1.0,1.0,phase_1,,,,,,,,,,,,,magenta,I
51.0,5.0,0.5,1.0,3.0,3.0,318.3244020037818,1.0,1.0,phase_1,,,,,,,,,,,,,white,circle
28.0,5.0,0.5,1.0,1.0,1.0,328.4181760100182,1.0,1.0,phase_1,,,,,,,,,,,,,white,circle
176.0,3.0,2.0,0.0,2.0,2.0,327.4068330065347,1.0,1.0,phase_1,,,,,,,,,,,,,cyan,square
187.0,3.0,2.0,0.0,1.0,1.0,356.0446129995398,1.0,1.0,phase_1,,,,,,,,,,,,,cyan,square
93.0,2.0,1.0,0.0,1.0,1.0,390.3682169911917,1.0,1.0,phase_1,,,,,,,,,,,,,magenta,I
0.0,8.0,0.0,1.0,4.0,4.0,390.9700999793131,1.0,1.0,phase_1,,,,,,,,,,,,,green,triangle
30.0,1.0,0.5,0.0,2.0,2.0,310.8848299889359,1.0,1.0,phase_1,,,,,,,,,,,,,blue,flipped triangle
65.0,1.0,0.5,0.0,3.0,3.0,319.2108379735145,1.0,1.0,phase_1,,,,,,,,,,,,,blue,flipped triangle
221.0,3.0,2.0,0.0,4.0,4.0,314.8495499917771,1.0,1.0,phase_1,,,,,,,,,,,,,cyan,square
88.0,2.0,1.0,0.0,2.0,2.0,318.3623779914342,1.0,1.0,phase_1,,,,,,,,,,,,,magenta,I
391.0,4.0,4.0,0.0,3.0,3.0,266.058551002061,1.0,1.0,phase_1,,,,,,,,,,,,,orange,cross
49.0,1.0,0.5,0.0,3.0,3.0,335.3740860184189,1.0,1.0,phase_1,,,,,,,,,,,,,blue,flipped triangle
0.0,7.0,0.0,1.0,1.0,1.0,326.7257410043385,1.0,1.0,phase_1,,,,,,,,,,,,,yellow,hexagon
0.0,1.0,0.0,0.0,4.0,4.0,491.3207479985431,1.0,1.0,phase_1,,,,,,,,,,,,,blue,flipped triangle
203.0,7.0,2.0,1.0,4.0,4.0,321.1666629940737,1.0,1.0,phase_1,,,,,,,,,,,,,yellow,hexagon
89.0,2.0,1.0,0.0,1.0,1.0,307.9125270014629,1.0,1.0,phase_1,,,,,,,,,,,,,magenta,I
66.0,5.0,0.5,1.0,3.0,3.0,270.208684989484,1.0,1.0,phase_1,,,,,,,,,,,,,white,circle
0.0,5.0,0.0,1.0,4.0,4.0,299.4585639971774,1.0,1.0,phase_1,,,,,,,,,,,,,white,circle
91.0,2.0,1.0,0.0,4.0,4.0,315.2940389991272,1.0,1.0,phase_1,,,,,,,,,,,,,magenta,I
400.0,8.0,4.0,1.0,3.0,3.0,336.1591199936811,1.0,1.0,phase_1,,,,,,,,,,,,,green,triangle
210.0,3.0,2.0,0.0,4.0,4.0,321.7796530225314,1.0,1.0,phase_1,,,,,,,,,,,,,cyan,square
0.0,6.0,0.0,1.0,2.0,2.0,311.8247110105585,1.0,1.0,phase_1,,,,,,,,,,,,,gray,diamond
0.0,8.0,0.0,1.0,2.0,2.0,364.6292379999067,1.0,1.0,phase_1,,,,,,,,,,,,,green,triangle
221.0,7.0,2.0,1.0,3.0,3.0,302.8824850043747,1.0,1.0,phase_1,,,,,,,,,,,,,yellow,hexagon
91.0,6.0,1.0,1.0,2.0,2.0,390.7492150028702,1.0,1.0,phase_1,,,,,,,,,,,,,gray,diamond
404.0,8.0,4.0,1.0,2.0,2.0,449.4543059845455,1.0,1.0,phase_1,,,,,,,,,,,,,green,triangle
205.0,3.0,2.0,0.0,2.0,2.0,312.2445640037767,1.0,1.0,phase_1,,,,,,,,,,,,,cyan,square
0.0,5.0,0.0,1.0,2.0,2.0,316.3717849820386,1.0,1.0,phase_1,,,,,,,,,,,,,white,circle
65.0,5.0,0.5,1.0,3.0,3.0,329.0605530200992,1.0,1.0,phase_1,,,,,,,,,,,,,white,circle
48.0,5.0,0.5,1.0,4.0,4.0,286.8147210101597,1.0,1.0,phase_1,,,,,,,,,,,,,white,circle
405.0,8.0,4.0,1.0,3.0,3.0,298.7962629995309,1.0,1.0,phase_1,,,,,,,,,,,,,green,triangle
208.0,3.0,2.0,0.0,4.0,4.0,311.5770220174454,1.0,1.0,phase_1,,,,,,,,,,,,,cyan,square
52.0,1.0,0.5,0.0,3.0,3.0,297.1089470083825,1.0,1.0,phase_1,,,,,,,,,,,,,blue,flipped triangle
59.0,1.0,0.5,0.0,1.0,1.0,285.6498039909638,1.0,1.0,phase_1,,,,,,,,,,,,,blue,flipped triangle
67.0,1.0,0.5,0.0,4.0,4.0,262.0587949932087,1.0,1.0,phase_1,,,,,,,,,,,,,blue,flipped triangle
0.0,3.0,0.0,0.0,3.0,3.0,274.6824610221665,1.0,1.0,phase_1,,,,,,,,,,,,,cyan,square
205.0,7.0,2.0,1.0,2.0,2.0,319.3443140189629,1.0,1.0,phase_1,,,,,,,,,,,,,yellow,hexagon
416.0,4.0,4.0,0.0,2.0,2.0,339.7395219944883,1.0,1.0,phase_1,,,,,,,,,,,,,orange,cross
389.0,4.0,4.0,0.0,4.0,4.0,345.1505189877935,1.0,1.0,phase_1,,,,,,,,,,,,,orange,cross
109.0,2.0,1.0,0.0,4.0,4.0,306.4193059981335,1.0,1.0,phase_1,,,,,,,,,,,,,magenta,I
180.0,7.0,2.0,1.0,1.0,1.0,362.0379070052877,1.0,1.0,phase_1,,,,,,,,,,,,,yellow,hexagon
35.0,1.0,0.5,0.0,2.0,2.0,294.8436730075627,1.0,1.0,phase_1,,,,,,,,,,,,,blue,flipped triangle
175.0,7.0,2.0,1.0,4.0,4.0,283.238193980651,1.0,1.0,phase_1,,,,,,,,,,,,,yellow,hexagon
379.0,8.0,4.0,1.0,1.0,1.0,272.0881369896233,1.0,1.0,phase_1,,,,,,,,,,,,,green,triangle
44.0,5.0,0.5,1.0,2.0,2.0,345.5671160190832,1.0,1.0,phase_1,,,,,,,,,,,,,white,circle
94.0,6.0,1.0,1.0,3.0,3.0,438.4246630070265,1.0,1.0,phase_1,,,,,,,,,,,,,gray,diamond
377.0,4.0,4.0,0.0,3.0,3.0,373.359519027872,1.0,1.0,phase_1,,,,,,,,,,,,,orange,cross
122.0,2.0,1.0,0.0,1.0,1.0,298.9196249982342,1.0,1.0,phase_1,,,,,,,,,,,,,magenta,I
201.0,7.0,2.0,1.0,1.0,1.0,347.9832980083301,1.0,1.0,phase_1,,,,,,,,,,,,,yellow,hexagon
406.0,8.0,4.0,1.0,2.0,2.0,353.2530429947655,1.0,1.0,phase_1,,,,,,,,,,,,,green,triangle
38.0,1.0,0.5,0.0,1.0,1.0,286.7013999784831,1.0,1.0,phase_1,,,,,,,,,,,,,blue,flipped triangle
46.0,5.0,0.5,1.0,2.0,2.0,356.509786011884,1.0,1.0,phase_1,,,,,,,,,,,,,white,circle
185.0,3.0,2.0,0.0,4.0,4.0,345.6004009931348,1.0,1.0,phase_1,,,,,,,,,,,,,cyan,square
70.0,1.0,0.5,0.0,4.0,4.0,287.9246029770002,1.0,1.0,phase_1,,,,,,,,,,,,,blue,flipped triangle
418.0,4.0,4.0,0.0,4.0,4.0,323.5167620005086,1.0,1.0,phase_1,,,,,,,,,,,,,orange,cross
96.0,2.0,1.0,0.0,4.0,4.0,313.9677789877169,1.0,1.0,phase_1,,,,,,,,,,,,,magenta,I
98.0,6.0,1.0,1.0,4.0,4.0,282.5051870022435,1.0,1.0,phase_1,,,,,,,,,,,,,gray,diamond
103.0,6.0,1.0,1.0,3.0,3.0,336.4223660028074,2.0,1.0,phase_1,,,,,,,,,,,,,gray,diamond
0.0,6.0,0.0,1.0,4.0,4.0,324.2570449947379,2.0,1.0,phase_1,,,,,,,,,,,,,gray,diamond
0.0,3.0,0.0,0.0,3.0,3.0,307.8074320219457,2.0,1.0,phase_1,,,,,,,,,,,,,cyan,square
0.0,7.0,0.0,1.0,1.0,1.0,392.8383909806143,2.0,1.0,phase_1,,,,,,,,,,,,,yellow,hexagon
46.0,5.0,0.5,1.0,3.0,3.0,299.323554005241,2.0,1.0,phase_1,,,,,,,,,,,,,white,circle
215.0,7.0,2.0,1.0,2.0,2.0,311.5800259984098,2.0,1.0,phase_1,,,,,,,,,,,,,yellow,hexagon
0.0,6.0,0.0,1.0,1.0,1.0,357.4730319960508,2.0,1.0,phase_1,,,,,,,,,,,,,gray,diamond
59.0,5.0,0.5,1.0,3.0,3.0,290.9166419995017,2.0,1.0,phase_1,,,,,,,,,,,,,white,circle
420.0,8.0,4.0,1.0,4.0,4.0,303.8256720174104,2.0,1.0,phase_1,,,,,,,,,,,,,green,triangle
122.0,6.0,1.0,1.0,1.0,1.0,333.0037189880386,2.0,1.0,phase_1,,,,,,,,,,,,,gray,diamond
407.0,4.0,4.0,0.0,2.0,2.0,426.0486639977898,2.0,1.0,phase_1,,,,,,,,,,,,,orange,cross
0.0,4.0,0.0,0.0,3.0,3.0,339.5654890045989,2.0,1.0,phase_1,,,,,,,,,,,,,orange,cross
410.0,8.0,4.0,1.0,4.0,4.0,299.8951280023902,2.0,1.0,phase_1,,,,,,,,,,,,,green,triangle
117.0,6.0,1.0,1.0,3.0,3.0,334.8658790055197,2.0,1.0,phase_1,,,,,,,,,,,,,gray,diamond
394.0,8.0,4.0,1.0,1.0,1.0,282.3607450118288,2.0,1.0,phase_1,,,,,,,,,,,,,green,triangle
386.0,8.0,4.0,1.0,4.0,4.0,294.5198199886363,2.0,1.0,phase_1,,,,,,,,,,,,,green,triangle
394.0,4.0,4.0,0.0,3.0,3.0,282.4651850096416,2.0,1.0,phase_1,,,,,,,,,,,,,orange,cross
0.0,1.0,0.0,0.0,3.0,3.0,320.1554839906748,2.0,1.0,phase_1,,,,,,,,,,,,,blue,flipped triangle
221.0,7.0,2.0,1.0,3.0,3.0,364.017676009098,2.0,1.0,phase_1,,,,,,,,,,,,,yellow,hexagon
96.0,6.0,1.0,1.0,3.0,3.0,330.4090200108476,2.0,1.0,phase_1,,,,,,,,,,,,,gray,diamond
181.0,3.0,2.0,0.0,2.0,2.0,310.1571000006515,2.0,1.0,phase_1,,,,,,,,,,,,,cyan,square
385.0,8.0,4.0,1.0,4.0,4.0,306.7490470129996,2.0,1.0,phase_1,,,,,,,,,,,,,green,triangle
83.0,2.0,1.0,0.0,3.0,3.0,303.1572850013617,2.0,1.0,phase_1,,,,,,,,,,,,,magenta,I
48.0,1.0,0.5,0.0,4.0,4.0,342.9180090024601,2.0,1.0,phase_1,,,,,,,,,,,,,blue,flipped triangle
397.0,8.0,4.0,1.0,3.0,3.0,258.0752930080052,2.0,1.0,phase_1,,,,,,,,,,,,,green,triangle
0.0,5.0,0.0,1.0,3.0,3.0,295.5286860233173,2.0,1.0,phase_1,,,,,,,,,,,,,white,circle
38.0,5.0,0.5,1.0,4.0,4.0,289.9805930210277,2.0,1.0,phase_1,,,,,,,,,,,,,white,circle
416.0,8.0,4.0,1.0,4.0,4.0,328.1838389812037,2.0,1.0,phase_1,,,,,,,,,,,,,green,triangle
117.0,2.0,1.0,0.0,2.0,2.0,347.7852760115638,2.0,1.0,phase_1,,,,,,,,,,,,,magenta,I
185.0,7.0,2.0,1.0,1.0,1.0,265.4527180129662,2.0,1.0,phase_1,,,,,,,,,,,,,yellow,hexagon
209.0,7.0,2.0,1.0,3.0,3.0,324.488524987828,2.0,1.0,phase_1,,,,,,,,,,,,,yellow,hexagon
88.0,6.0,1.0,1.0,1.0,1.0,460.3050889854785,2.0,1.0,phase_1,,,,,,,,,,,,,gray,diamond
0.0,8.0,0.0,1.0,2.0,2.0,389.4558239844627,2.0,1.0,phase_1,,,,,,,,,,,,,green,triangle
87.0,6.0,1.0,1.0,1.0,1.0,298.483140009921,2.0,1.0,phase_1,,,,,,,,,,,,,gray,diamond
111.0,6.0,1.0,1.0,2.0,2.0,502.5760450225789,2.0,1.0,phase_1,,,,,,,,,,,,,gray,diamond
0.0,7.0,0.0,1.0,2.0,2.0,340.44982699560927,2.0,1.0,phase_1,,,,,,,,,,,,,yellow,hexagon
65.0,1.0,0.5,0.0,1.0,1.0,408.4876249835361,2.0,1.0,phase_1,,,,,,,,,,,,,blue,flipped triangle
178.0,3.0,2.0,0.0,3.0,3.0,269.197619985789,2.0,1.0,phase_1,,,,,,,,,,,,,cyan,square
43.0,5.0,0.5,1.0,4.0,4.0,297.716761007905,2.0,1.0,phase_1,,,,,,,,,,,,,white,circle
202.0,3.0,2.0,0.0,1.0,1.0,409.0970429824665,2.0,1.0,phase_1,,,,,,,,,,,,,cyan,square
212.0,7.0,2.0,1.0,2.0,2.0,306.7051550024189,2.0,1.0,phase_1,,,,,,,,,,,,,yellow,hexagon
38.0,5.0,0.5,1.0,2.0,2.0,338.9079890039284,2.0,1.0,phase_1,,,,,,,,,,,,,white,circle
46.0,1.0,0.5,0.0,3.0,3.0,311.2299100030213,2.0,1.0,phase_1,,,,,,,,,,,,,blue,flipped triangle
201.0,3.0,2.0,0.0,1.0,1.0,331.890725006815,2.0,1.0,phase_1,,,,,,,,,,,,,cyan,square
67.0,5.0,0.5,1.0,2.0,2.0,270.2762190019712,2.0,1.0,phase_1,,,,,,,,,,,,,white,circle
405.0,4.0,4.0,0.0,4.0,4.0,290.6187110056635,2.0,1.0,phase_1,,,,,,,,,,,,,orange,cross
190.0,3.0,2.0,0.0,4.0,4.0,283.1242710235528,2.0,1.0,phase_1,,,,,,,,,,,,,cyan,square
0.0,6.0,0.0,1.0,2.0,2.0,303.5629590158351,2.0,1.0,phase_1,,,,,,,,,,,,,gray,diamond
0.0,5.0,0.0,1.0,2.0,2.0,315.9322870196774,2.0,1.0,phase_1,,,,,,,,,,,,,white,circle
390.0,4.0,4.0,0.0,4.0,4.0,294.9957200034987,2.0,1.0,phase_1,,,,,,,,,,,,,orange,cross
218.0,3.0,2.0,0.0,3.0,3.0,418.8065740163438,2.0,1.0,phase_1,,,,,,,,,,,,,cyan,square
381.0,4.0,4.0,0.0,1.0,1.0,831.5577899920754,2.0,1.0,phase_1,,,,,,,,,,,,,orange,cross
71.0,1.0,0.5,0.0,1.0,1.0,373.9655160170514,2.0,1.0,phase_1,,,,,,,,,,,,,blue,flipped triangle
0.0,8.0,0.0,1.0,2.0,2.0,360.7355239801109,2.0,1.0,phase_1,,,,,,,,,,,,,green,triangle
43.0,1.0,0.5,0.0,2.0,2.0,316.8569430126808,2.0,1.0,phase_1,,,,,,,,,,,,,blue,flipped triangle
403.0,8.0,4.0,1.0,3.0,3.0,308.3303369930945,2.0,1.0,phase_1,,,,,,,,,,,,,green,triangle
203.0,3.0,2.0,0.0,3.0,3.0,328.7206499953754,2.0,1.0,phase_1,,,,,,,,,,,,,cyan,square
0.0,4.0,0.0,0.0,1.0,1.0,370.8598979865201,2.0,1.0,phase_1,,,,,,,,,,,,,orange,cross
98.0,2.0,1.0,0.0,4.0,4.0,328.4032339870464,2.0,1.0,phase_1,,,,,,,,,,,,,magenta,I
44.0,5.0,0.5,1.0,2.0,2.0,380.0584550190251,2.0,1.0,phase_1,,,,,,,,,,,,,white,circle
189.0,7.0,2.0,1.0,3.0,3.0,321.2258279963862,2.0,1.0,phase_1,,,,,,,,,,,,,yellow,hexagon
80.0,2.0,1.0,0.0,2.0,2.0,311.4015980099793,2.0,1.0,phase_1,,,,,,,,,,,,,magenta,I
396.0,8.0,4.0,1.0,2.0,2.0,337.7090949798003,2.0,1.0,phase_1,,,,,,,,,,,,,green,triangle
388.0,8.0,4.0,1.0,2.0,2.0,354.0679650031961,2.0,1.0,phase_1,,,,,,,,,,,,,green,triangle
0.0,7.0,0.0,1.0,2.0,2.0,444.5947830099612,2.0,1.0,phase_1,,,,,,,,,,,,,yellow,hexagon
0.0,2.0,0.0,0.0,2.0,2.0,300.0240710098296,2.0,1.0,phase_1,,,,,,,,,,,,,magenta,I
0.0,4.0,0.0,0.0,3.0,3.0,352.0363039860967,2.0,1.0,phase_1,,,,,,,,,,,,,orange,cross
216.0,3.0,2.0,0.0,3.0,3.0,316.3378830067813,2.0,1.0,phase_1,,,,,,,,,,,,,cyan,square
0.0,3.0,0.0,0.0,1.0,1.0,326.8257559975609,2.0,1.0,phase_1,,,,,,,,,,,,,cyan,square
0.0,2.0,0.0,0.0,4.0,4.0,315.3227169823367,2.0,1.0,phase_1,,,,,,,,,,,,,magenta,I
0.0,5.0,0.0,1.0,1.0,1.0,369.7814010083675,2.0,1.0,phase_1,,,,,,,,,,,,,white,circle
209.0,3.0,2.0,0.0,2.0,2.0,373.0692410026677,2.0,1.0,phase_1,,,,,,,,,,,,,cyan,square
420.0,8.0,4.0,1.0,3.0,3.0,325.0439430121332,2.0,1.0,phase_1,,,,,,,,,,,,,green,triangle
378.0,4.0,4.0,0.0,4.0,4.0,337.6669989957008,2.0,1.0,phase_1,,,,,,,,,,,,,orange,cross
91.0,2.0,1.0,0.0,3.0,3.0,325.5462879897095,2.0,1.0,phase_1,,,,,,,,,,,,,magenta,I
204.0,7.0,2.0,1.0,2.0,2.0,303.4659670083783,2.0,1.0,phase_1,,,,,,,,,,,,,yellow,hexagon
412.0,4.0,4.0,0.0,3.0,3.0,308.6765019979793,2.0,1.0,phase_1,,,,,,,,,,,,,orange,cross
46.0,1.0,0.5,0.0,3.0,3.0,259.5851729856804,2.0,1.0,phase_1,,,,,,,,,,,,,blue,flipped triangle
114.0,6.0,1.0,1.0,3.0,3.0,327.6558490179013,2.0,1.0,phase_1,,,,,,,,,,,,,gray,diamond
107.0,6.0,1.0,1.0,2.0,2.0,387.6943429931998,2.0,1.0,phase_1,,,,,,,,,,,,,gray,diamond
209.0,7.0,2.0,1.0,4.0,4.0,286.8127810070291,2.0,1.0,phase_1,,,,,,,,,,,,,yellow,hexagon
62.0,5.0,0.5,1.0,1.0,1.0,446.6745739919133,2.0,1.0,phase_1,,,,,,,,,,,,,white,circle
0.0,6.0,0.0,1.0,1.0,1.0,394.2759289930109,2.0,1.0,phase_1,,,,,,,,,,,,,gray,diamond
95.0,6.0,1.0,1.0,3.0,3.0,285.4973100183997,2.0,1.0,phase_1,,,,,,,,,,,,,gray,diamond
62.0,1.0,0.5,0.0,2.0,2.0,307.1774199779611,2.0,1.0,phase_1,,,,,,,,,,,,,blue,flipped triangle
87.0,2.0,1.0,0.0,4.0,4.0,336.9270900147967,2.0,1.0,phase_1,,,,,,,,,,,,,magenta,I
199.0,7.0,2.0,1.0,4.0,4.0,356.4770350058097,2.0,1.0,phase_1,,,,,,,,,,,,,yellow,hexagon
0.0,1.0,0.0,0.0,4.0,4.0,327.52008800162,2.0,1.0,phase_1,,,,,,,,,,,,,blue,flipped triangle
203.0,3.0,2.0,0.0,2.0,2.0,371.6734499903396,2.0,1.0,phase_1,,,,,,,,,,,,,cyan,square
114.0,2.0,1.0,0.0,4.0,4.0,331.4617880096193,2.0,1.0,phase_1,,,,,,,,,,,,,magenta,I
202.0,7.0,2.0,1.0,4.0,4.0,327.6857080054469,2.0,1.0,phase_1,,,,,,,,,,,,,yellow,hexagon
396.0,4.0,4.0,0.0,2.0,2.0,388.191462989198,2.0,1.0,phase_1,,,,,,,,,,,,,orange,cross
122.0,6.0,1.0,1.0,2.0,2.0,375.4955040058121,2.0,1.0,phase_1,,,,,,,,,,,,,gray,diamond
221.0,3.0,2.0,0.0,2.0,2.0,387.7404609811492,2.0,1.0,phase_1,,,,,,,,,,,,,cyan,square
189.0,3.0,2.0,0.0,1.0,1.0,426.323958003195,2.0,1.0,phase_1,,,,,,,,,,,,,cyan,square
199.0,7.0,2.0,1.0,4.0,4.0,327.393239014782,2.0,1.0,phase_1,,,,,,,,,,,,,yellow,hexagon
89.0,6.0,1.0,1.0,2.0,2.0,315.5056970135774,2.0,1.0,phase_1,,,,,,,,,,,,,gray,diamond
119.0,6.0,1.0,1.0,4.0,4.0,335.7679650071077,2.0,1.0,phase_1,,,,,,,,,,,,,gray,diamond
0.0,2.0,0.0,0.0,3.0,3.0,450.7681039976887,2.0,1.0,phase_1,,,,,,,,,,,,,magenta,I
0.0,8.0,0.0,1.0,1.0,1.0,376.0903689835686,2.0,1.0,phase_1,,,,,,,,,,,,,green,triangle
76.0,2.0,1.0,0.0,3.0,3.0,402.2062429867219,3.0,1.0,phase_1,,,,,,,,,,,,,magenta,I
406.0,8.0,4.0,1.0,3.0,3.0,340.5695219989866,3.0,1.0,phase_1,,,,,,,,,,,,,green,triangle
89.0,6.0,1.0,1.0,1.0,1.0,393.5066320118494,3.0,1.0,phase_1,,,,,,,,,,,,,gray,diamond
0.0,1.0,0.0,0.0,3.0,3.0,296.6292009805329,3.0,1.0,phase_1,,,,,,,,,,,,,blue,flipped triangle
407.0,4.0,4.0,0.0,1.0,1.0,340.6409500166774,3.0,1.0,phase_1,,,,,,,,,,,,,orange,cross
30.0,5.0,0.5,1.0,3.0,3.0,306.9449809845537,3.0,1.0,phase_1,,,,,,,,,,,,,white,circle
180.0,3.0,2.0,0.0,2.0,2.0,284.7038790059741,3.0,1.0,phase_1,,,,,,,,,,,,,cyan,square
383.0,4.0,4.0,0.0,4.0,4.0,299.1911840217653,3.0,1.0,phase_1,,,,,,,,,,,,,orange,cross
0.0,6.0,0.0,1.0,2.0,2.0,286.1900799907744,3.0,1.0,phase_1,,,,,,,,,,,,,gray,diamond
45.0,1.0,0.5,0.0,1.0,1.0,282.6651989889797,3.0,1.0,phase_1,,,,,,,,,,,,,blue,flipped triangle
44.0,1.0,0.5,0.0,2.0,2.0,353.4822579822503,3.0,1.0,phase_1,,,,,,,,,,,,,blue,flipped triangle
98.0,6.0,1.0,1.0,3.0,3.0,274.4000270031392,3.0,2.0,phase_1,,,,,,,,,,,,,gray,diamond
28.0,1.0,0.5,0.0,4.0,4.0,356.6929909866303,3.0,1.0,phase_1,,,,,,,,,,,,,blue,flipped triangle
0.0,7.0,0.0,1.0,2.0,2.0,321.0667849925812,3.0,1.0,phase_1,,,,,,,,,,,,,yellow,hexagon
35.0,5.0,0.5,1.0,1.0,1.0,369.2872450046707,3.0,1.0,phase_1,,,,,,,,,,,,,white,circle
60.0,1.0,0.5,0.0,1.0,1.0,323.3835220162291,3.0,1.0,phase_1,,,,,,,,,,,,,blue,flipped triangle
94.0,6.0,1.0,1.0,3.0,3.0,369.637664000038,3.0,1.0,phase_1,,,,,,,,,,,,,gray,diamond
194.0,7.0,2.0,1.0,4.0,4.0,324.7356149950064,3.0,1.0,phase_1,,,,,,,,,,,,,yellow,hexagon
65.0,5.0,0.5,1.0,1.0,1.0,264.6226000215392,3.0,1.0,phase_1,,,,,,,,,,,,,white,circle
389.0,8.0,4.0,1.0,1.0,1.0,541.5070279850625,3.0,1.0,phase_1,,,,,,,,,,,,,green,triangle
0.0,1.0,0.0,0.0,2.0,2.0,435.702794988174,3.0,1.0,phase_1,,,,,,,,,,,,,blue,flipped triangle
0.0,8.0,0.0,1.0,3.0,3.0,335.6873290031217,3.0,1.0,phase_1,,,,,,,,,,,,,green,triangle
61.0,5.0,0.5,1.0,2.0,2.0,308.071823004866,3.0,1.0,phase_1,,,,,,,,,,,,,white,circle
418.0,8.0,4.0,1.0,3.0,3.0,339.839608001057,3.0,1.0,phase_1,,,,,,,,,,,,,green,triangle
400.0,4.0,4.0,0.0,2.0,2.0,406.8366550200153,3.0,1.0,phase_1,,,,,,,,,,,,,orange,cross
0.0,2.0,0.0,0.0,2.0,2.0,362.1354310016613,3.0,1.0,phase_1,,,,,,,,,,,,,magenta,I
406.0,4.0,4.0,0.0,1.0,1.0,312.2472690010909,3.0,1.0,phase_1,,,,,,,,,,,,,orange,cross
103.0,2.0,1.0,0.0,3.0,3.0,291.1023700144142,3.0,1.0,phase_1,,,,,,,,,,,,,magenta,I
0.0,3.0,0.0,0.0,3.0,3.0,343.8310619967524,3.0,1.0,phase_1,,,,,,,,,,,,,cyan,square
122.0,6.0,1.0,1.0,2.0,2.0,286.6470709850546,3.0,1.0,phase_1,,,,,,,,,,,,,gray,diamond
0.0,6.0,0.0,1.0,4.0,4.0,372.1032380126416,3.0,1.0,phase_1,,,,,,,,,,,,,gray,diamond
202.0,3.0,2.0,0.0,3.0,3.0,303.8160070136655,3.0,1.0,phase_1,,,,,,,,,,,,,cyan,square
0.0,3.0,0.0,0.0,4.0,4.0,298.7003769958392,3.0,1.0,phase_1,,,,,,,,,,,,,cyan,square
0.0,5.0,0.0,1.0,3.0,3.0,343.2696530071553,3.0,1.0,phase_1,,,,,,,,,,,,,white,circle
415.0,8.0,4.0,1.0,2.0,2.0,373.8192239834461,3.0,1.0,phase_1,,,,,,,,,,,,,green,triangle
0.0,4.0,0.0,0.0,4.0,4.0,348.4421819739509,3.0,1.0,phase_1,,,,,,,,,,,,,orange,cross
204.0,3.0,2.0,0.0,1.0,1.0,361.0727099876385,3.0,1.0,phase_1,,,,,,,,,,,,,cyan,square
391.0,8.0,4.0,1.0,1.0,1.0,508.44155898084864,3.0,1.0,phase_1,,,,,,,,,,,,,green,triangle
413.0,4.0,4.0,0.0,2.0,2.0,319.9457809969317,3.0,1.0,phase_1,,,,,,,,,,,,,orange,cross
26.0,5.0,0.5,1.0,4.0,4.0,471.0439220070839,3.0,1.0,phase_1,,,,,,,,,,,,,white,circle
219.0,7.0,2.0,1.0,4.0,4.0,370.6673109845724,3.0,1.0,phase_1,,,,,,,,,,,,,yellow,hexagon
0.0,2.0,0.0,0.0,1.0,1.0,397.6988260110374,3.0,1.0,phase_1,,,,,,,,,,,,,magenta,I
215.0,3.0,2.0,0.0,4.0,4.0,387.7345570072066,3.0,1.0,phase_1,,,,,,,,,,,,,cyan,square
0.0,6.0,0.0,1.0,4.0,4.0,320.6198279804084,3.0,1.0,phase_1,,,,,,,,,,,,,gray,diamond
420.0,4.0,4.0,0.0,4.0,4.0,338.9090099954046,3.0,1.0,phase_1,,,,,,,,,,,,,orange,cross
0.0,7.0,0.0,1.0,2.0,2.0,354.9348100204952,3.0,1.0,phase_1,,,,,,,,,,,,,yellow,hexagon
402.0,4.0,4.0,0.0,2.0,2.0,316.0243130114395,3.0,1.0,phase_1,,,,,,,,,,,,,orange,cross
106.0,6.0,1.0,1.0,1.0,1.0,496.5960900008213,3.0,1.0,phase_1,,,,,,,,,,,,,gray,diamond
0.0,3.0,0.0,0.0,4.0,4.0,320.9510729939211,3.0,1.0,phase_1,,,,,,,,,,,,,cyan,square
122.0,2.0,1.0,0.0,1.0,1.0,386.0176049929578,3.0,1.0,phase_1,,,,,,,,,,,,,magenta,I
386.0,4.0,4.0,0.0,3.0,3.0,335.8052299881819,3.0,1.0,phase_1,,,,,,,,,,,,,orange,cross
178.0,3.0,2.0,0.0,3.0,3.0,357.1061810071114,3.0,1.0,phase_1,,,,,,,,,,,,,cyan,square
78.0,6.0,1.0,1.0,2.0,2.0,336.4696259959601,3.0,1.0,phase_1,,,,,,,,,,,,,gray,diamond
122.0,2.0,1.0,0.0,3.0,3.0,348.6552539980039,3.0,1.0,phase_1,,,,,,,,,,,,,magenta,I
0.0,8.0,0.0,1.0,2.0,2.0,345.1475460024085,3.0,1.0,phase_1,,,,,,,,,,,,,green,triangle
381.0,4.0,4.0,0.0,3.0,3.0,322.0269469893537,3.0,1.0,phase_1,,,,,,,,,,,,,orange,cross
45.0,5.0,0.5,1.0,4.0,4.0,340.8776440192014,3.0,1.0,phase_1,,,,,,,,,,,,,white,circle
225.0,3.0,2.0,0.0,2.0,2.0,330.0261159893125,3.0,1.0,phase_1,,,,,,,,,,,,,cyan,square
50.0,5.0,0.5,1.0,1.0,1.0,557.8449609747622,3.0,1.0,phase_1,,,,,,,,,,,,,white,circle
180.0,7.0,2.0,1.0,1.0,1.0,493.1901480013039,3.0,1.0,phase_1,,,,,,,,,,,,,yellow,hexagon
208.0,7.0,2.0,1.0,4.0,4.0,343.79485101089807,3.0,1.0,phase_1,,,,,,,,,,,,,yellow,hexagon
26.0,1.0,0.5,0.0,1.0,1.0,437.5796880049165,3.0,1.0,phase_1,,,,,,,,,,,,,blue,flipped triangle
213.0,3.0,2.0,0.0,1.0,1.0,362.8944860247429,3.0,1.0,phase_1,,,,,,,,,,,,,cyan,square
0.0,4.0,0.0,0.0,1.0,1.0,460.4398449882865,3.0,1.0,phase_1,,,,,,,,,,,,,orange,cross
213.0,7.0,2.0,1.0,1.0,1.0,324.1430740163196,3.0,1.0,phase_1,,,,,,,,,,,,,yellow,hexagon
192.0,3.0,2.0,0.0,4.0,4.0,304.6257710084319,3.0,1.0,phase_1,,,,,,,,,,,,,cyan,square
35.0,1.0,0.5,0.0,4.0,4.0,340.0252109859139,3.0,1.0,phase_1,,,,,,,,,,,,,blue,flipped triangle
33.0,5.0,0.5,1.0,1.0,1.0,335.2748839824926,3.0,1.0,phase_1,,,,,,,,,,,,,white,circle
376.0,8.0,4.0,1.0,2.0,2.0,435.7888939848635,3.0,1.0,phase_1,,,,,,,,,,,,,green,triangle
202.0,7.0,2.0,1.0,2.0,2.0,344.1304730076808,3.0,1.0,phase_1,,,,,,,,,,,,,yellow,hexagon
66.0,1.0,0.5,0.0,4.0,4.0,341.7017789906822,3.0,1.0,phase_1,,,,,,,,,,,,,blue,flipped triangle
401.0,8.0,4.0,1.0,4.0,4.0,337.6343570125755,3.0,1.0,phase_1,,,,,,,,,,,,,green,triangle
420.0,8.0,4.0,1.0,2.0,2.0,320.3534630010836,3.0,1.0,phase_1,,,,,,,,,,,,,green,triangle
44.0,1.0,0.5,0.0,3.0,3.0,411.3143870199565,3.0,1.0,phase_1,,,,,,,,,,,,,blue,flipped triangle
100.0,6.0,1.0,1.0,4.0,4.0,320.1859659748152,3.0,1.0,phase_1,,,,,,,,,,,,,gray,diamond
406.0,4.0,4.0,0.0,1.0,1.0,284.6618259791285,3.0,1.0,phase_1,,,,,,,,,,,,,orange,cross
33.0,5.0,0.5,1.0,1.0,1.0,332.553487009136,3.0,1.0,phase_1,,,,,,,,,,,,,white,circle
420.0,4.0,4.0,0.0,1.0,1.0,375.7300929864868,3.0,1.0,phase_1,,,,,,,,,,,,,orange,cross
212.0,3.0,2.0,0.0,3.0,3.0,308.5748190060258,3.0,1.0,phase_1,,,,,,,,,,,,,cyan,square
122.0,2.0,1.0,0.0,1.0,1.0,321.3821569806896,3.0,1.0,phase_1,,,,,,,,,,,,,magenta,I
0.0,2.0,0.0,0.0,4.0,4.0,309.1658260091208,3.0,1.0,phase_1,,,,,,,,,,,,,magenta,I
407.0,8.0,4.0,1.0,3.0,3.0,332.2713689994998,3.0,1.0,phase_1,,,,,,,,,,,,,green,triangle
210.0,7.0,2.0,1.0,1.0,1.0,302.2070069855544,3.0,1.0,phase_1,,,,,,,,,,,,,yellow,hexagon
71.0,5.0,0.5,1.0,4.0,4.0,333.2029079901986,3.0,1.0,phase_1,,,,,,,,,,,,,white,circle
412.0,4.0,4.0,0.0,2.0,2.0,429.6824390185065,3.0,1.0,phase_1,,,,,,,,,,,,,orange,cross
100.0,2.0,1.0,0.0,3.0,3.0,365.4783090169076,3.0,1.0,phase_1,,,,,,,,,,,,,magenta,I
410.0,4.0,4.0,0.0,3.0,3.0,329.4114790041931,3.0,1.0,phase_1,,,,,,,,,,,,,orange,cross
119.0,2.0,1.0,0.0,2.0,2.0,310.266999003943,3.0,1.0,phase_1,,,,,,,,,,,,,magenta,I
397.0,4.0,4.0,0.0,3.0,3.0,443.9345469872933,3.0,1.0,phase_1,,,,,,,,,,,,,orange,cross
116.0,2.0,1.0,0.0,3.0,3.0,382.0801440160721,3.0,1.0,phase_1,,,,,,,,,,,,,magenta,I
388.0,4.0,4.0,0.0,4.0,4.0,434.3366970133502,3.0,1.0,phase_1,,,,,,,,,,,,,orange,cross
61.0,1.0,0.5,0.0,3.0,3.0,416.636913025286,3.0,1.0,phase_1,,,,,,,,,,,,,blue,flipped triangle
199.0,3.0,2.0,0.0,3.0,3.0,358.0887989955954,3.0,1.0,phase_1,,,,,,,,,,,,,cyan,square
103.0,2.0,1.0,0.0,1.0,1.0,336.7379880219232,3.0,1.0,phase_1,,,,,,,,,,,,,magenta,I
0.0,4.0,0.0,0.0,1.0,1.0,365.4357949853875,3.0,1.0,phase_1,,,,,,,,,,,,,orange,cross
48.0,1.0,0.5,0.0,4.0,4.0,385.715506010456,3.0,1.0,phase_1,,,,,,,,,,,,,blue,flipped triangle
111.0,2.0,1.0,0.0,4.0,4.0,344.6902529976796,3.0,1.0,phase_1,,,,,,,,,,,,,magenta,I
122.0,6.0,1.0,1.0,4.0,4.0,324.222135997843,3.0,1.0,phase_1,,,,,,,,,,,,,gray,diamond
378.0,8.0,4.0,1.0,3.0,3.0,362.1533449913841,3.0,1.0,phase_1,,,,,,,,,,,,,green,triangle
216.0,7.0,2.0,1.0,3.0,3.0,268.1963020004332,3.0,1.0,phase_1,,,,,,,,,,,,,yellow,hexagon
87.0,2.0,1.0,0.0,1.0,1.0,353.6657310032751,4.0,1.0,phase_1,,,,,,,,,,,,,magenta,I
197.0,7.0,2.0,1.0,2.0,2.0,300.4399120109156,4.0,1.0,phase_1,,,,,,,,,,,,,yellow,hexagon
409.0,8.0,4.0,1.0,4.0,4.0,341.2225800275337,4.0,1.0,phase_1,,,,,,,,,,,,,green,triangle
95.0,2.0,1.0,0.0,2.0,2.0,272.0284509996418,4.0,1.0,phase_1,,,,,,,,,,,,,magenta,I
182.0,7.0,2.0,1.0,2.0,2.0,283.7933380214963,4.0,1.0,phase_1,,,,,,,,,,,,,yellow,hexagon
87.0,6.0,1.0,1.0,1.0,1.0,263.4274229931179,4.0,1.0,phase_1,,,,,,,,,,,,,gray,diamond
76.0,2.0,1.0,0.0,3.0,3.0,324.7280559735372,4.0,1.0,phase_1,,,,,,,,,,,,,magenta,I
0.0,4.0,0.0,0.0,1.0,1.0,315.7926929998211,4.0,1.0,phase_1,,,,,,,,,,,,,orange,cross
0.0,1.0,0.0,0.0,4.0,4.0,328.7073800165672,4.0,1.0,phase_1,,,,,,,,,,,,,blue,flipped triangle
222.0,7.0,2.0,1.0,4.0,4.0,290.7450890052132,4.0,1.0,phase_1,,,,,,,,,,,,,yellow,hexagon
377.0,8.0,4.0,1.0,2.0,2.0,383.8163180043921,4.0,1.0,phase_1,,,,,,,,,,,,,green,triangle
178.0,7.0,2.0,1.0,1.0,1.0,350.5282319965772,4.0,1.0,phase_1,,,,,,,,,,,,,yellow,hexagon
63.0,5.0,0.5,1.0,3.0,3.0,320.3441860096063,4.0,1.0,phase_1,,,,,,,,,,,,,white,circle
63.0,1.0,0.5,0.0,3.0,3.0,335.514748992864,4.0,1.0,phase_1,,,,,,,,,,,,,blue,flipped triangle
376.0,4.0,4.0,0.0,1.0,1.0,393.4099409962073,4.0,1.0,phase_1,,,,,,,,,,,,,orange,cross
0.0,7.0,0.0,1.0,3.0,3.0,353.0854370037559,4.0,1.0,phase_1,,,,,,,,,,,,,yellow,hexagon
106.0,2.0,1.0,0.0,2.0,2.0,365.0374760036357,4.0,1.0,phase_1,,,,,,,,,,,,,magenta,I
0.0,2.0,0.0,0.0,1.0,1.0,409.4548209977802,4.0,1.0,phase_1,,,,,,,,,,,,,magenta,I
96.0,6.0,1.0,1.0,3.0,3.0,382.8802930074744,4.0,1.0,phase_1,,,,,,,,,,,,,gray,diamond
192.0,7.0,2.0,1.0,1.0,1.0,328.6855230107903,4.0,1.0,phase_1,,,,,,,,,,,,,yellow,hexagon
61.0,5.0,0.5,1.0,4.0,4.0,456.4301770005841,4.0,1.0,phase_1,,,,,,,,,,,,,white,circle
187.0,7.0,2.0,1.0,2.0,2.0,299.7357919812202,4.0,1.0,phase_1,,,,,,,,,,,,,yellow,hexagon
0.0,4.0,0.0,0.0,4.0,4.0,320.6442249938845,4.0,1.0,phase_1,,,,,,,,,,,,,orange,cross
219.0,3.0,2.0,0.0,2.0,2.0,308.414540020749,4.0,1.0,phase_1,,,,,,,,,,,,,cyan,square
29.0,1.0,0.5,0.0,2.0,2.0,275.0684779894072,4.0,1.0,phase_1,,,,,,,,,,,,,blue,flipped triangle
395.0,4.0,4.0,0.0,2.0,2.0,357.0801820023916,4.0,1.0,phase_1,,,,,,,,,,,,,orange,cross
93.0,6.0,1.0,1.0,1.0,1.0,365.7309499976691,4.0,1.0,phase_1,,,,,,,,,,,,,gray,diamond
96.0,2.0,1.0,0.0,2.0,2.0,360.6957879965193,4.0,1.0,phase_1,,,,,,,,,,,,,magenta,I
0.0,6.0,0.0,1.0,3.0,3.0,499.0771889861207,4.0,1.0,phase_1,,,,,,,,,,,,,gray,diamond
0.0,2.0,0.0,0.0,4.0,4.0,345.4553270130418,4.0,1.0,phase_1,,,,,,,,,,,,,magenta,I
91.0,6.0,1.0,1.0,2.0,2.0,400.2287320035975,4.0,1.0,phase_1,,,,,,,,,,,,,gray,diamond
0.0,5.0,0.0,1.0,2.0,2.0,376.9935040036216,4.0,1.0,phase_1,,,,,,,,,,,,,white,circle
225.0,7.0,2.0,1.0,2.0,2.0,369.6464170061517,4.0,1.0,phase_1,,,,,,,,,,,,,yellow,hexagon
58.0,5.0,0.5,1.0,4.0,4.0,404.5225059962831,4.0,1.0,phase_1,,,,,,,,,,,,,white,circle
80.0,6.0,1.0,1.0,4.0,4.0,337.347057997249,4.0,1.0,phase_1,,,,,,,,,,,,,gray,diamond
401.0,4.0,4.0,0.0,1.0,1.0,415.8244399877731,4.0,1.0,phase_1,,,,,,,,,,,,,orange,cross
422.0,8.0,4.0,1.0,2.0,2.0,328.1885220203548,4.0,1.0,phase_1,,,,,,,,,,,,,green,triangle
402.0,8.0,4.0,1.0,4.0,4.0,325.8016050094738,4.0,1.0,phase_1,,,,,,,,,,,,,green,triangle
51.0,1.0,0.5,0.0,1.0,1.0,275.5230370094068,4.0,1.0,phase_1,,,,,,,,,,,,,blue,flipped triangle
61.0,1.0,0.5,0.0,4.0,4.0,295.1511330029461,4.0,1.0,phase_1,,,,,,,,,,,,,blue,flipped triangle
107.0,2.0,1.0,0.0,4.0,4.0,299.997275986243,4.0,1.0,phase_1,,,,,,,,,,,,,magenta,I
0.0,4.0,0.0,0.0,3.0,3.0,296.2640120240394,4.0,1.0,phase_1,,,,,,,,,,,,,orange,cross
176.0,7.0,2.0,1.0,3.0,3.0,304.1362279909663,4.0,1.0,phase_1,,,,,,,,,,,,,yellow,hexagon
381.0,8.0,4.0,1.0,4.0,4.0,309.0275870054029,4.0,1.0,phase_1,,,,,,,,,,,,,green,triangle
420.0,4.0,4.0,0.0,1.0,1.0,337.9181350173894,4.0,1.0,phase_1,,,,,,,,,,,,,orange,cross
197.0,3.0,2.0,0.0,1.0,1.0,443.8963270222302,4.0,1.0,phase_1,,,,,,,,,,,,,cyan,square
0.0,7.0,0.0,1.0,1.0,1.0,321.301943011349,4.0,1.0,phase_1,,,,,,,,,,,,,yellow,hexagon
422.0,4.0,4.0,0.0,3.0,3.0,277.4126279982738,4.0,1.0,phase_1,,,,,,,,,,,,,orange,cross
0.0,8.0,0.0,1.0,3.0,3.0,308.3565259876195,4.0,1.0,phase_1,,,,,,,,,,,,,green,triangle
116.0,6.0,1.0,1.0,1.0,1.0,309.5459920004941,4.0,1.0,phase_1,,,,,,,,,,,,,gray,diamond
0.0,6.0,0.0,1.0,1.0,1.0,332.2928840061649,4.0,1.0,phase_1,,,,,,,,,,,,,gray,diamond
403.0,4.0,4.0,0.0,3.0,3.0,288.8348179985769,4.0,1.0,phase_1,,,,,,,,,,,,,orange,cross
404.0,4.0,4.0,0.0,1.0,1.0,292.1441489888821,4.0,1.0,phase_1,,,,,,,,,,,,,orange,cross
43.0,1.0,0.5,0.0,4.0,4.0,304.4902470137458,4.0,1.0,phase_1,,,,,,,,,,,,,blue,flipped triangle
70.0,5.0,0.5,1.0,2.0,2.0,320.3633659868501,4.0,1.0,phase_1,,,,,,,,,,,,,white,circle
94.0,2.0,1.0,0.0,2.0,2.0,297.3266420012805,4.0,1.0,phase_1,,,,,,,,,,,,,magenta,I
0.0,5.0,0.0,1.0,4.0,4.0,329.1008190135471,4.0,1.0,phase_1,,,,,,,,,,,,,white,circle
29.0,5.0,0.5,1.0,1.0,1.0,269.7139710071496,4.0,1.0,phase_1,,,,,,,,,,,,,white,circle
412.0,8.0,4.0,1.0,1.0,1.0,311.8556739937048,4.0,1.0,phase_1,,,,,,,,,,,,,green,triangle
415.0,4.0,4.0,0.0,2.0,2.0,340.5833810102194,4.0,1.0,phase_1,,,,,,,,,,,,,orange,cross
0.0,1.0,0.0,0.0,1.0,1.0,291.1174019973259,4.0,1.0,phase_1,,,,,,,,,,,,,blue,flipped triangle
35.0,5.0,0.5,1.0,1.0,1.0,369.7798690118361,4.0,1.0,phase_1,,,,,,,,,,,,,white,circle
76.0,6.0,1.0,1.0,2.0,2.0,332.1118260209914,4.0,1.0,phase_1,,,,,,,,,,,,,gray,diamond
0.0,7.0,0.0,1.0,4.0,4.0,376.3346839987207,4.0,1.0,phase_1,,,,,,,,,,,,,yellow,hexagon
109.0,6.0,1.0,1.0,4.0,4.0,366.0045149736106,4.0,1.0,phase_1,,,,,,,,,,,,,gray,diamond
222.0,3.0,2.0,0.0,1.0,1.0,488.5163040016778,4.0,1.0,phase_1,,,,,,,,,,,,,cyan,square
38.0,1.0,0.5,0.0,2.0,2.0,303.8291900011245,4.0,1.0,phase_1,,,,,,,,,,,,,blue,flipped triangle
111.0,6.0,1.0,1.0,3.0,3.0,341.6373050131369,4.0,1.0,phase_1,,,,,,,,,,,,,gray,diamond
191.0,7.0,2.0,1.0,1.0,1.0,362.5954120070673,4.0,1.0,phase_1,,,,,,,,,,,,,yellow,hexagon
175.0,3.0,2.0,0.0,4.0,4.0,279.5836210134439,4.0,1.0,phase_1,,,,,,,,,,,,,cyan,square
60.0,5.0,0.5,1.0,2.0,2.0,272.0773920009378,4.0,1.0,phase_1,,,,,,,,,,,,,white,circle
0.0,5.0,0.0,1.0,1.0,1.0,303.6950030073058,4.0,1.0,phase_1,,,,,,,,,,,,,white,circle
0.0,1.0,0.0,0.0,4.0,4.0,394.9613069999032,4.0,1.0,phase_1,,,,,,,,,,,,,blue,flipped triangle
0.0,3.0,0.0,0.0,1.0,1.0,320.2671780018136,4.0,1.0,phase_1,,,,,,,,,,,,,cyan,square
218.0,7.0,2.0,1.0,1.0,1.0,309.0672020043712,4.0,1.0,phase_1,,,,,,,,,,,,,yellow,hexagon
180.0,3.0,2.0,0.0,3.0,3.0,295.9420800034422,4.0,1.0,phase_1,,,,,,,,,,,,,cyan,square
0.0,8.0,0.0,1.0,1.0,1.0,300.3689429897349,4.0,1.0,phase_1,,,,,,,,,,,,,green,triangle
190.0,7.0,2.0,1.0,3.0,3.0,306.4566969987936,4.0,1.0,phase_1,,,,,,,,,,,,,yellow,hexagon
37.0,1.0,0.5,0.0,3.0,3.0,389.4859960128087,4.0,1.0,phase_1,,,,,,,,,,,,,blue,flipped triangle
46.0,1.0,0.5,0.0,2.0,2.0,307.9072580148931,4.0,1.0,phase_1,,,,,,,,,,,,,blue,flipped triangle
182.0,3.0,2.0,0.0,1.0,1.0,342.5426939793397,4.0,1.0,phase_1,,,,,,,,,,,,,cyan,square
407.0,8.0,4.0,1.0,3.0,3.0,325.1595099864062,4.0,1.0,phase_1,,,,,,,,,,,,,green,triangle
385.0,4.0,4.0,0.0,4.0,4.0,395.2790439943783,4.0,1.0,phase_1,,,,,,,,,,,,,orange,cross
93.0,2.0,1.0,0.0,1.0,1.0,293.257662007818,4.0,1.0,phase_1,,,,,,,,,,,,,magenta,I
83.0,6.0,1.0,1.0,1.0,1.0,318.0069210065994,4.0,1.0,phase_1,,,,,,,,,,,,,gray,diamond
194.0,3.0,2.0,0.0,4.0,4.0,288.5209129890427,4.0,1.0,phase_1,,,,,,,,,,,,,cyan,square
209.0,3.0,2.0,0.0,2.0,2.0,283.4174369927495,4.0,1.0,phase_1,,,,,,,,,,,,,cyan,square
37.0,5.0,0.5,1.0,2.0,2.0,314.2274879792239,4.0,1.0,phase_1,,,,,,,,,,,,,white,circle
395.0,8.0,4.0,1.0,2.0,2.0,300.9730440098792,4.0,1.0,phase_1,,,,,,,,,,,,,green,triangle
383.0,8.0,4.0,1.0,1.0,1.0,283.371088997228,4.0,1.0,phase_1,,,,,,,,,,,,,green,triangle
117.0,2.0,1.0,0.0,1.0,1.0,320.8772770012729,4.0,1.0,phase_1,,,,,,,,,,,,,magenta,I
33.0,1.0,0.5,0.0,2.0,2.0,348.647675011307,4.0,1.0,phase_1,,,,,,,,,,,,,blue,flipped triangle
94.0,2.0,1.0,0.0,4.0,4.0,282.9416029853746,4.0,1.0,phase_1,,,,,,,,,,,,,magenta,I
209.0,3.0,2.0,0.0,3.0,3.0,300.0279300031252,4.0,1.0,phase_1,,,,,,,,,,,,,cyan,square
409.0,4.0,4.0,0.0,4.0,4.0,288.3099370228592,4.0,1.0,phase_1,,,,,,,,,,,,,orange,cross
103.0,6.0,1.0,1.0,4.0,4.0,335.8163719822187,4.0,1.0,phase_1,,,,,,,,,,,,,gray,diamond
199.0,3.0,2.0,0.0,1.0,1.0,300.0453870045021,4.0,1.0,phase_1,,,,,,,,,,,,,cyan,square
70.0,1.0,0.5,0.0,1.0,1.0,345.1190660125576,4.0,1.0,phase_1,,,,,,,,,,,,,blue,flipped triangle
0.0,1.0,0.0,0.0,2.0,2.0,300.0678269891068,4.0,1.0,phase_1,,,,,,,,,,,,,blue,flipped triangle
70.0,5.0,0.5,1.0,2.0,2.0,287.4735659861471,4.0,1.0,phase_1,,,,,,,,,,,,,white,circle
0.0,7.0,2.0,1.0,6.0,6.0,511.39069299097173,1.0,1.0,phase_2,stop,250.0,250.0,3.0,,,,,,,,,yellow,hexagon
0.0,6.0,1.0,1.0,6.0,0.0,0.0,1.0,1.0,phase_2,stop,250.0,200.0,4.0,,,,,,,,,gray,diamond
0.0,3.0,2.0,0.0,6.0,6.0,471.0670229978859,1.0,1.0,phase_2,go,250.0,250.0,1.0,,,,,,,,,cyan,square
0.0,6.0,1.0,1.0,5.0,0.0,0.0,1.0,1.0,phase_2,stop,250.0,250.0,4.0,,,,,,,,,gray,diamond
0.0,1.0,0.5,0.0,6.0,6.0,674.5314840227365,1.0,1.0,phase_2,go,300.0,250.0,1.0,,,,,,,,,blue,flipped triangle
0.0,1.0,0.5,0.0,5.0,5.0,579.4662920234259,1.0,1.0,phase_2,go,300.0,250.0,1.0,,,,,,,,,blue,flipped triangle
0.0,7.0,2.0,1.0,5.0,5.0,411.5557190089021,1.0,1.0,phase_2,stop,300.0,250.0,3.0,,,,,,,,,yellow,hexagon
0.0,6.0,1.0,1.0,6.0,0.0,0.0,1.0,1.0,phase_2,stop,250.0,250.0,4.0,,,,,,,,,gray,diamond
0.0,8.0,4.0,1.0,5.0,5.0,498.5919570026453,1.0,1.0,phase_2,go,250.0,300.0,1.0,,,,,,,,,green,triangle
0.0,5.0,0.5,1.0,6.0,6.0,521.6749520041049,1.0,1.0,phase_2,go,250.0,300.0,1.0,,,,,,,,,white,circle
0.0,6.0,1.0,1.0,6.0,0.0,0.0,1.0,1.0,phase_2,stop,250.0,300.0,4.0,,,,,,,,,gray,diamond
0.0,6.0,1.0,1.0,5.0,0.0,0.0,1.0,1.0,phase_2,stop,250.0,350.0,4.0,,,,,,,,,gray,diamond
0.0,6.0,1.0,1.0,6.0,0.0,0.0,1.0,1.0,phase_2,stop,300.0,350.0,4.0,,,,,,,,,gray,diamond
0.0,2.0,1.0,0.0,6.0,6.0,549.6664549864363,1.0,1.0,phase_2,go,300.0,400.0,1.0,,,,,,,,,magenta,I
0.0,5.0,0.5,1.0,6.0,6.0,560.3111620002892,1.0,1.0,phase_2,go,300.0,400.0,1.0,,,,,,,,,white,circle
0.0,3.0,2.0,0.0,6.0,6.0,612.2357670101337,1.0,1.0,phase_2,go,300.0,400.0,1.0,,,,,,,,,cyan,square
0.0,2.0,1.0,0.0,5.0,5.0,596.7189990042243,1.0,1.0,phase_2,go,300.0,400.0,1.0,,,,,,,,,magenta,I
0.0,7.0,2.0,1.0,5.0,0.0,0.0,1.0,1.0,phase_2,stop,300.0,400.0,4.0,,,,,,,,,yellow,hexagon
0.0,7.0,2.0,1.0,5.0,0.0,0.0,1.0,1.0,phase_2,stop,350.0,400.0,4.0,,,,,,,,,yellow,hexagon
0.0,6.0,1.0,1.0,5.0,0.0,0.0,1.0,1.0,phase_2,stop,400.0,400.0,4.0,,,,,,,,,gray,diamond
0.0,4.0,4.0,0.0,5.0,5.0,697.8067939926405,1.0,1.0,phase_2,go,450.0,400.0,1.0,,,,,,,,,orange,cross
0.0,2.0,1.0,0.0,5.0,5.0,707.9821079969406,1.0,1.0,phase_2,go,450.0,400.0,1.0,,,,,,,,,magenta,I
0.0,2.0,1.0,0.0,6.0,6.0,596.634586021537,1.0,1.0,phase_2,go,450.0,400.0,1.0,,,,,,,,,magenta,I
0.0,2.0,1.0,0.0,5.0,5.0,564.1120390209835,1.0,1.0,phase_2,go,450.0,400.0,1.0,,,,,,,,,magenta,I
0.0,8.0,4.0,1.0,6.0,0.0,0.0,1.0,1.0,phase_2,stop,450.0,400.0,4.0,,,,,,,,,green,triangle
0.0,7.0,2.0,1.0,6.0,0.0,0.0,1.0,1.0,phase_2,stop,450.0,450.0,4.0,,,,,,,,,yellow,hexagon
0.0,2.0,1.0,0.0,5.0,5.0,743.2236630120315,1.0,1.0,phase_2,go,450.0,500.0,1.0,,,,,,,,,magenta,I
0.0,6.0,1.0,1.0,5.0,0.0,0.0,1.0,1.0,phase_2,stop,450.0,500.0,4.0,,,,,,,,,gray,diamond
0.0,1.0,0.5,0.0,5.0,5.0,765.0583499926142,1.0,1.0,phase_2,go,500.0,500.0,1.0,,,,,,,,,blue,flipped triangle
0.0,5.0,0.5,1.0,6.0,6.0,638.291390001541,1.0,1.0,phase_2,stop,500.0,500.0,3.0,,,,,,,,,white,circle
0.0,3.0,2.0,0.0,6.0,6.0,806.9674310099799,1.0,1.0,phase_2,go,500.0,450.0,1.0,,,,,,,,,cyan,square
0.0,1.0,0.5,0.0,6.0,6.0,766.2167709786445,1.0,1.0,phase_2,go,500.0,450.0,1.0,,,,,,,,,blue,flipped triangle
0.0,8.0,4.0,1.0,5.0,0.0,0.0,1.0,1.0,phase_2,stop,500.0,450.0,4.0,,,,,,,,,green,triangle
0.0,8.0,4.0,1.0,5.0,0.0,0.0,1.0,1.0,phase_2,stop,550.0,450.0,4.0,,,,,,,,,green,triangle
0.0,3.0,2.0,0.0,6.0,6.0,709.129122988088,1.0,1.0,phase_2,go,600.0,450.0,1.0,,,,,,,,,cyan,square
0.0,3.0,2.0,0.0,6.0,6.0,819.4341060006991,1.0,1.0,phase_2,go,600.0,450.0,1.0,,,,,,,,,cyan,square
0.0,6.0,1.0,1.0,5.0,0.0,0.0,2.0,1.0,phase_2,stop,600.0,450.0,4.0,,,,,,,,,gray,diamond
0.0,3.0,2.0,0.0,6.0,6.0,768.9983780146576,2.0,1.0,phase_2,go,650.0,450.0,1.0,,,,,,,,,cyan,square
0.0,6.0,1.0,1.0,6.0,0.0,0.0,2.0,1.0,phase_2,stop,650.0,450.0,4.0,,,,,,,,,gray,diamond
0.0,3.0,2.0,0.0,6.0,6.0,794.0385259862524,2.0,1.0,phase_2,go,650.0,500.0,1.0,,,,,,,,,cyan,square
0.0,6.0,1.0,1.0,5.0,5.0,824.6340120094828,2.0,1.0,phase_2,go,650.0,500.0,1.0,,,,,,,,,gray,diamond
0.0,8.0,4.0,1.0,5.0,5.0,686.4990099857096,2.0,1.0,phase_2,stop,650.0,500.0,3.0,,,,,,,,,green,triangle
0.0,7.0,2.0,1.0,5.0,5.0,767.7310989820398,2.0,1.0,phase_2,go,600.0,500.0,1.0,,,,,,,,,yellow,hexagon
0.0,3.0,2.0,0.0,5.0,5.0,839.5852970134001,2.0,1.0,phase_2,go,600.0,500.0,1.0,,,,,,,,,cyan,square
0.0,7.0,2.0,1.0,5.0,5.0,757.6195889851078,2.0,1.0,phase_2,go,600.0,500.0,1.0,,,,,,,,,yellow,hexagon
0.0,8.0,4.0,1.0,6.0,0.0,0.0,2.0,1.0,phase_2,stop,600.0,500.0,4.0,,,,,,,,,green,triangle
0.0,6.0,1.0,1.0,5.0,0.0,0.0,2.0,1.0,phase_2,stop,600.0,550.0,4.0,,,,,,,,,gray,diamond
0.0,2.0,1.0,0.0,5.0,5.0,829.3992299877573,2.0,1.0,phase_2,go,650.0,550.0,1.0,,,,,,,,,magenta,I
0.0,1.0,0.5,0.0,5.0,5.0,691.3599920226261,2.0,1.0,phase_2,go,650.0,550.0,1.0,,,,,,,,,blue,flipped triangle
0.0,1.0,0.5,0.0,5.0,5.0,965.499922982417,2.0,1.0,phase_2,go,650.0,550.0,1.0,,,,,,,,,blue,flipped triangle
0.0,8.0,4.0,1.0,6.0,0.0,0.0,2.0,1.0,phase_2,stop,650.0,550.0,4.0,,,,,,,,,green,triangle
0.0,4.0,4.0,0.0,5.0,5.0,827.2617800103035,2.0,1.0,phase_2,go,650.0,600.0,1.0,,,,,,,,,orange,cross
0.0,8.0,4.0,1.0,6.0,6.0,716.3200739887543,2.0,1.0,phase_2,stop,650.0,600.0,3.0,,,,,,,,,green,triangle
0.0,7.0,2.0,1.0,6.0,0.0,0.0,2.0,1.0,phase_2,stop,650.0,550.0,4.0,,,,,,,,,yellow,hexagon
0.0,5.0,0.5,1.0,6.0,0.0,0.0,2.0,1.0,phase_2,stop,650.0,600.0,4.0,,,,,,,,,white,circle
0.0,4.0,4.0,0.0,5.0,5.0,823.0999140068889,2.0,1.0,phase_2,go,650.0,650.0,1.0,,,,,,,,,orange,cross
0.0,7.0,2.0,1.0,6.0,0.0,0.0,2.0,1.0,phase_2,stop,650.0,650.0,4.0,,,,,,,,,yellow,hexagon
0.0,3.0,2.0,0.0,6.0,6.0,935.358880989952,2.0,1.0,phase_2,go,650.0,700.0,1.0,,,,,,,,,cyan,square
0.0,4.0,4.0,0.0,5.0,5.0,750.1232459908351,2.0,1.0,phase_2,go,650.0,700.0,1.0,,,,,,,,,orange,cross
0.0,8.0,4.0,1.0,5.0,5.0,782.5040789903142,2.0,1.0,phase_2,stop,650.0,700.0,3.0,,,,,,,,,green,triangle
0.0,5.0,0.5,1.0,5.0,0.0,0.0,2.0,1.0,phase_2,stop,600.0,700.0,4.0,,,,,,,,,white,circle
0.0,3.0,2.0,0.0,5.0,5.0,751.8148010130972,2.0,1.0,phase_2,go,650.0,700.0,1.0,,,,,,,,,cyan,square
0.0,2.0,1.0,0.0,6.0,6.0,677.3692969873082,2.0,1.0,phase_2,go,650.0,700.0,1.0,,,,,,,,,magenta,I
0.0,7.0,2.0,1.0,6.0,6.0,804.6423220075667,2.0,1.0,phase_2,stop,650.0,700.0,3.0,,,,,,,,,yellow,hexagon
0.0,1.0,0.5,0.0,6.0,6.0,990.1280080084688,2.0,1.0,phase_2,go,650.0,650.0,1.0,,,,,,,,,blue,flipped triangle
0.0,3.0,2.0,0.0,5.0,5.0,636.4918399776798,2.0,1.0,phase_2,go,650.0,650.0,1.0,,,,,,,,,cyan,square
0.0,4.0,4.0,0.0,6.0,6.0,884.1823360126,2.0,1.0,phase_2,go,650.0,650.0,1.0,,,,,,,,,orange,cross
0.0,7.0,2.0,1.0,6.0,0.0,0.0,2.0,1.0,phase_2,stop,650.0,650.0,4.0,,,,,,,,,yellow,hexagon
0.0,2.0,1.0,0.0,5.0,5.0,896.0504740243778,2.0,1.0,phase_2,go,650.0,700.0,1.0,,,,,,,,,magenta,I
0.0,4.0,4.0,0.0,6.0,6.0,1042.5038090033922,2.0,1.0,phase_2,go,650.0,700.0,1.0,,,,,,,,,orange,cross
0.0,5.0,0.5,1.0,6.0,6.0,872.6682130072732,2.0,1.0,phase_2,go,650.0,700.0,1.0,,,,,,,,,white,circle
0.0,7.0,2.0,1.0,5.0,0.0,0.0,2.0,1.0,phase_2,stop,650.0,700.0,4.0,,,,,,,,,yellow,hexagon
0.0,4.0,4.0,0.0,5.0,5.0,522.4177560012322,3.0,1.0,phase_2,go,700.0,700.0,1.0,,,,,,,,,orange,cross
0.0,8.0,4.0,1.0,5.0,5.0,812.5588199764024,3.0,1.0,phase_2,stop,700.0,700.0,3.0,,,,,,,,,green,triangle
0.0,8.0,4.0,1.0,5.0,0.0,0.0,3.0,1.0,phase_2,stop,650.0,700.0,4.0,,,,,,,,,green,triangle
0.0,2.0,1.0,0.0,6.0,6.0,986.9433940039016,3.0,1.0,phase_2,go,700.0,700.0,1.0,,,,,,,,,magenta,I
0.0,3.0,2.0,0.0,5.0,5.0,867.1995819895528,3.0,1.0,phase_2,go,700.0,700.0,1.0,,,,,,,,,cyan,square
0.0,7.0,2.0,1.0,6.0,0.0,0.0,3.0,1.0,phase_2,stop,700.0,700.0,4.0,,,,,,,,,yellow,hexagon
0.0,2.0,1.0,0.0,6.0,6.0,873.3887099951971,3.0,1.0,phase_2,go,700.0,750.0,1.0,,,,,,,,,magenta,I
0.0,3.0,2.0,0.0,5.0,5.0,734.3735219910741,3.0,1.0,phase_2,go,700.0,750.0,1.0,,,,,,,,,cyan,square
0.0,1.0,0.5,0.0,5.0,5.0,869.92463900242,3.0,1.0,phase_2,go,700.0,750.0,1.0,,,,,,,,,blue,flipped triangle
0.0,5.0,0.5,1.0,6.0,0.0,0.0,3.0,1.0,phase_2,stop,700.0,750.0,4.0,,,,,,,,,white,circle
0.0,8.0,4.0,1.0,6.0,0.0,0.0,3.0,1.0,phase_2,stop,700.0,800.0,4.0,,,,,,,,,green,triangle
0.0,4.0,4.0,0.0,6.0,6.0,1030.304558982607,3.0,1.0,phase_2,go,700.0,850.0,1.0,,,,,,,,,orange,cross
0.0,6.0,1.0,1.0,6.0,0.0,0.0,3.0,1.0,phase_2,stop,700.0,850.0,4.0,,,,,,,,,gray,diamond
0.0,3.0,2.0,0.0,5.0,5.0,1070.4777810024098,3.0,1.0,phase_2,go,700.0,900.0,1.0,,,,,,,,,cyan,square
0.0,2.0,1.0,0.0,6.0,6.0,1060.020450007869,3.0,1.0,phase_2,go,700.0,900.0,1.0,,,,,,,,,magenta,I
0.0,1.0,0.5,0.0,6.0,6.0,1005.3157149814069,3.0,1.0,phase_2,go,700.0,900.0,1.0,,,,,,,,,blue,flipped triangle
0.0,7.0,2.0,1.0,6.0,0.0,0.0,3.0,1.0,phase_2,stop,700.0,900.0,4.0,,,,,,,,,yellow,hexagon
0.0,3.0,2.0,0.0,6.0,6.0,1171.4053630130363,3.0,1.0,phase_2,go,700.0,950.0,1.0,,,,,,,,,cyan,square
0.0,8.0,4.0,1.0,6.0,6.0,858.4933399979491,3.0,1.0,phase_2,go,700.0,950.0,1.0,,,,,,,,,green,triangle
0.0,5.0,0.5,1.0,6.0,6.0,903.6579119856468,3.0,1.0,phase_2,stop,700.0,950.0,3.0,,,,,,,,,white,circle
0.0,8.0,4.0,1.0,5.0,0.0,0.0,3.0,1.0,phase_2,stop,700.0,900.0,4.0,,,,,,,,,green,triangle
0.0,4.0,4.0,0.0,5.0,5.0,1216.1968309956137,3.0,1.0,phase_2,go,750.0,900.0,1.0,,,,,,,,,orange,cross
0.0,5.0,0.5,1.0,6.0,6.0,925.974739016965,3.0,1.0,phase_2,go,750.0,900.0,1.0,,,,,,,,,white,circle
0.0,7.0,2.0,1.0,6.0,6.0,861.5148620156106,3.0,1.0,phase_2,stop,750.0,900.0,3.0,,,,,,,,,yellow,hexagon
0.0,1.0,0.5,0.0,6.0,6.0,1133.7441149808,3.0,1.0,phase_2,go,750.0,850.0,1.0,,,,,,,,,blue,flipped triangle
0.0,4.0,4.0,0.0,5.0,5.0,1156.3611930178013,3.0,1.0,phase_2,go,750.0,850.0,1.0,,,,,,,,,orange,cross
0.0,6.0,1.0,1.0,6.0,6.0,931.7851240048184,3.0,1.0,phase_2,go,750.0,850.0,1.0,,,,,,,,,gray,diamond
0.0,6.0,1.0,1.0,5.0,5.0,1070.8480679895729,3.0,1.0,phase_2,go,750.0,850.0,1.0,,,,,,,,,gray,diamond
0.0,5.0,0.5,1.0,5.0,0.0,0.0,3.0,1.0,phase_2,stop,750.0,850.0,4.0,,,,,,,,,white,circle
0.0,3.0,2.0,0.0,5.0,5.0,1108.207460027188,3.0,1.0,phase_2,go,800.0,850.0,1.0,,,,,,,,,cyan,square
0.0,7.0,2.0,1.0,5.0,0.0,0.0,3.0,1.0,phase_2,stop,800.0,850.0,4.0,,,,,,,,,yellow,hexagon
0.0,4.0,4.0,0.0,6.0,6.0,1156.6988860140557,3.0,1.0,phase_2,go,850.0,850.0,1.0,,,,,,,,,orange,cross
0.0,1.0,0.5,0.0,6.0,6.0,1160.5414520017805,3.0,1.0,phase_2,go,850.0,850.0,1.0,,,,,,,,,blue,flipped triangle
0.0,5.0,0.5,1.0,6.0,6.0,944.1699759918264,3.0,1.0,phase_2,stop,850.0,850.0,3.0,,,,,,,,,white,circle
0.0,7.0,2.0,1.0,5.0,0.0,0.0,3.0,1.0,phase_2,stop,850.0,800.0,4.0,,,,,,,,,yellow,hexagon
0.0,6.0,1.0,1.0,6.0,0.0,0.0,3.0,1.0,phase_2,stop,900.0,800.0,4.0,,,,,,,,,gray,diamond
0.0,1.0,0.5,0.0,6.0,6.0,892.0242359745316,4.0,1.0,phase_2,go,900.0,850.0,1.0,,,,,,,,,blue,flipped triangle
0.0,1.0,0.5,0.0,5.0,5.0,868.4718339936808,4.0,1.0,phase_2,go,900.0,850.0,1.0,,,,,,,,,blue,flipped triangle
0.0,2.0,1.0,0.0,6.0,6.0,923.4476269921288,4.0,1.0,phase_2,go,900.0,850.0,1.0,,,,,,,,,magenta,I
0.0,3.0,2.0,0.0,5.0,5.0,946.6281250061002,4.0,1.0,phase_2,go,900.0,850.0,1.0,,,,,,,,,cyan,square
0.0,7.0,2.0,1.0,5.0,5.0,760.8294059755281,4.0,1.0,phase_2,go,900.0,850.0,1.0,,,,,,,,,yellow,hexagon
0.0,7.0,2.0,1.0,6.0,6.0,545.4629139858298,4.0,1.0,phase_2,stop,900.0,850.0,3.0,,,,,,,,,yellow,hexagon
0.0,8.0,4.0,1.0,5.0,0.0,0.0,4.0,1.0,phase_2,stop,900.0,800.0,4.0,,,,,,,,,green,triangle
0.0,7.0,2.0,1.0,6.0,0.0,0.0,4.0,1.0,phase_2,stop,950.0,800.0,4.0,,,,,,,,,yellow,hexagon
0.0,4.0,4.0,0.0,6.0,6.0,1161.641871003667,4.0,1.0,phase_2,go,950.0,850.0,1.0,,,,,,,,,orange,cross
0.0,7.0,2.0,1.0,5.0,5.0,976.7621660139412,4.0,1.0,phase_2,stop,950.0,850.0,3.0,,,,,,,,,yellow,hexagon
0.0,1.0,0.5,0.0,6.0,6.0,1041.914628003724,4.0,1.0,phase_2,go,900.0,850.0,1.0,,,,,,,,,blue,flipped triangle
0.0,1.0,0.5,0.0,5.0,5.0,1069.9654589989225,4.0,1.0,phase_2,go,900.0,850.0,1.0,,,,,,,,,blue,flipped triangle
0.0,3.0,2.0,0.0,6.0,6.0,852.664102014387,4.0,1.0,phase_2,go,900.0,850.0,1.0,,,,,,,,,cyan,square
0.0,4.0,4.0,0.0,6.0,6.0,726.923240988981,4.0,1.0,phase_2,go,900.0,850.0,1.0,,,,,,,,,orange,cross
0.0,5.0,0.5,1.0,6.0,6.0,703.1992970150895,4.0,1.0,phase_2,stop,900.0,850.0,3.0,,,,,,,,,white,circle
0.0,3.0,2.0,0.0,5.0,5.0,747.9824849870056,4.0,1.0,phase_2,go,900.0,800.0,1.0,,,,,,,,,cyan,square
0.0,3.0,2.0,0.0,5.0,5.0,908.3567319903524,4.0,1.0,phase_2,go,900.0,800.0,1.0,,,,,,,,,cyan,square
0.0,3.0,2.0,0.0,6.0,6.0,932.214025000576,4.0,1.0,phase_2,go,900.0,800.0,1.0,,,,,,,,,cyan,square
0.0,2.0,1.0,0.0,6.0,6.0,875.8004819974303,4.0,1.0,phase_2,go,900.0,800.0,1.0,,,,,,,,,magenta,I
0.0,5.0,0.5,1.0,6.0,6.0,824.756324000191,4.0,1.0,phase_2,stop,900.0,800.0,3.0,,,,,,,,,white,circle
0.0,8.0,4.0,1.0,5.0,5.0,955.8783999818844,4.0,1.0,phase_2,stop,900.0,750.0,3.0,,,,,,,,,green,triangle
0.0,2.0,1.0,0.0,6.0,6.0,1143.7849799985995,4.0,1.0,phase_2,go,850.0,750.0,1.0,,,,,,,,,magenta,I
0.0,8.0,4.0,1.0,6.0,6.0,1010.7292399916332,4.0,1.0,phase_2,go,850.0,750.0,1.0,,,,,,,,,green,triangle
0.0,2.0,1.0,0.0,6.0,6.0,848.5312210104894,4.0,1.0,phase_2,go,850.0,750.0,1.0,,,,,,,,,magenta,I
0.0,1.0,0.5,0.0,5.0,5.0,880.5370699847117,4.0,1.0,phase_2,go,850.0,750.0,1.0,,,,,,,,,blue,flipped triangle
0.0,8.0,4.0,1.0,6.0,6.0,960.2345319872256,4.0,1.0,phase_2,go,850.0,750.0,1.0,,,,,,,,,green,triangle
0.0,6.0,1.0,1.0,5.0,5.0,925.3659179958048,4.0,1.0,phase_2,stop,850.0,750.0,3.0,,,,,,,,,gray,diamond
0.0,1.0,0.5,0.0,6.0,6.0,924.1351259988731,4.0,1.0,phase_2,go,800.0,750.0,1.0,,,,,,,,,blue,flipped triangle
0.0,4.0,4.0,0.0,5.0,5.0,987.9459269868676,4.0,1.0,phase_2,go,800.0,750.0,1.0,,,,,,,,,orange,cross
0.0,2.0,1.0,0.0,5.0,5.0,1103.4838909981772,4.0,1.0,phase_2,go,800.0,750.0,1.0,,,,,,,,,magenta,I
0.0,4.0,4.0,0.0,5.0,5.0,826.795151020633,4.0,1.0,phase_2,go,800.0,750.0,1.0,,,,,,,,,orange,cross
0.0,1.0,0.5,0.0,5.0,5.0,699.642926978413,4.0,1.0,phase_2,go,800.0,750.0,1.0,,,,,,,,,blue,flipped triangle
0.0,6.0,1.0,1.0,5.0,5.0,853.8791910104919,4.0,1.0,phase_2,stop,800.0,750.0,3.0,,,,,,,,,gray,diamond
0.0,5.0,0.5,1.0,6.0,6.0,841.899402992567,4.0,1.0,phase_2,go,750.0,750.0,1.0,,,,,,,,,white,circle
0.0,3.0,2.0,0.0,5.0,5.0,1010.1616640167776,4.0,1.0,phase_2,go,750.0,750.0,1.0,,,,,,,,,cyan,square
0.0,8.0,4.0,1.0,6.0,0.0,0.0,4.0,1.0,phase_2,stop,750.0,750.0,4.0,,,,,,,,,green,triangle
0.0,5.0,0.5,1.0,6.0,6.0,528.1637209991459,5.0,1.0,phase_2,stop,750.0,800.0,3.0,,,,,,,,,white,circle
0.0,6.0,1.0,1.0,6.0,6.0,727.7253070205916,5.0,1.0,phase_2,go,750.0,750.0,1.0,,,,,,,,,gray,diamond
0.0,2.0,1.0,0.0,5.0,5.0,623.0979829852004,5.0,1.0,phase_2,go,750.0,750.0,1.0,,,,,,,,,magenta,I
0.0,2.0,1.0,0.0,6.0,6.0,487.5811959791463,5.0,1.0,phase_2,go,750.0,750.0,1.0,,,,,,,,,magenta,I
0.0,6.0,1.0,1.0,6.0,6.0,772.325374011416,5.0,1.0,phase_2,stop,750.0,750.0,3.0,,,,,,,,,gray,diamond
0.0,1.0,0.5,0.0,6.0,6.0,935.0571410031988,5.0,1.0,phase_2,go,750.0,700.0,1.0,,,,,,,,,blue,flipped triangle
0.0,6.0,1.0,1.0,5.0,5.0,997.6174240000546,5.0,1.0,phase_2,go,750.0,700.0,1.0,,,,,,,,,gray,diamond
0.0,4.0,4.0,0.0,5.0,5.0,1022.9762580129318,5.0,1.0,phase_2,go,750.0,700.0,1.0,,,,,,,,,orange,cross
0.0,2.0,1.0,0.0,5.0,5.0,876.9478010071907,5.0,1.0,phase_2,go,750.0,700.0,1.0,,,,,,,,,magenta,I
0.0,1.0,0.5,0.0,5.0,5.0,827.0877859904431,5.0,1.0,phase_2,go,750.0,700.0,1.0,,,,,,,,,blue,flipped triangle
0.0,5.0,0.5,1.0,5.0,5.0,741.0502629936673,5.0,1.0,phase_2,stop,750.0,700.0,3.0,,,,,,,,,white,circle
0.0,2.0,1.0,0.0,5.0,5.0,1050.8066390175372,5.0,1.0,phase_2,go,700.0,700.0,1.0,,,,,,,,,magenta,I
0.0,6.0,1.0,1.0,5.0,5.0,953.2622919941788,5.0,1.0,phase_2,go,700.0,700.0,1.0,,,,,,,,,gray,diamond
0.0,2.0,1.0,0.0,5.0,5.0,1048.9065419824328,5.0,1.0,phase_2,go,700.0,700.0,1.0,,,,,,,,,magenta,I
0.0,3.0,2.0,0.0,5.0,5.0,1073.6450910044368,5.0,1.0,phase_2,go,700.0,700.0,1.0,,,,,,,,,cyan,square
0.0,7.0,2.0,1.0,5.0,5.0,1047.339362005005,5.0,1.0,phase_2,go,700.0,700.0,1.0,,,,,,,,,yellow,hexagon
0.0,5.0,0.5,1.0,5.0,5.0,958.8059920060914,5.0,1.0,phase_2,go,700.0,700.0,1.0,,,,,,,,,white,circle
0.0,8.0,4.0,1.0,5.0,0.0,0.0,5.0,1.0,phase_2,stop,700.0,700.0,4.0,,,,,,,,,green,triangle
0.0,5.0,0.5,1.0,5.0,5.0,815.1800589985214,5.0,1.0,phase_2,stop,750.0,700.0,3.0,,,,,,,,,white,circle
0.0,7.0,2.0,1.0,6.0,6.0,1078.905484988354,5.0,1.0,phase_2,go,700.0,700.0,1.0,,,,,,,,,yellow,hexagon
0.0,8.0,4.0,1.0,6.0,6.0,1144.2910970072262,5.0,1.0,phase_2,go,700.0,700.0,1.0,,,,,,,,,green,triangle
0.0,4.0,4.0,0.0,5.0,5.0,1030.7320859865283,5.0,1.0,phase_2,go,700.0,700.0,1.0,,,,,,,,,orange,cross
0.0,6.0,1.0,1.0,6.0,0.0,0.0,5.0,1.0,phase_2,stop,700.0,700.0,4.0,,,,,,,,,gray,diamond
0.0,6.0,1.0,1.0,5.0,5.0,947.0819089910948,5.0,1.0,phase_2,stop,700.0,750.0,3.0,,,,,,,,,gray,diamond
0.0,4.0,4.0,0.0,5.0,5.0,1142.5147159898188,5.0,1.0,phase_2,go,650.0,750.0,1.0,,,,,,,,,orange,cross
0.0,8.0,4.0,1.0,6.0,0.0,0.0,5.0,1.0,phase_2,stop,650.0,750.0,4.0,,,,,,,,,green,triangle
0.0,2.0,1.0,0.0,5.0,5.0,1314.646281010937,5.0,1.0,phase_2,go,650.0,800.0,1.0,,,,,,,,,magenta,I
0.0,7.0,2.0,1.0,5.0,0.0,0.0,5.0,1.0,phase_2,stop,650.0,800.0,4.0,,,,,,,,,yellow,hexagon
0.0,1.0,0.5,0.0,5.0,5.0,896.4596739970148,5.0,1.0,phase_2,go,700.0,800.0,1.0,,,,,,,,,blue,flipped triangle
0.0,6.0,1.0,1.0,5.0,0.0,0.0,5.0,1.0,phase_2,stop,700.0,800.0,4.0,,,,,,,,,gray,diamond
0.0,8.0,4.0,1.0,5.0,5.0,863.0255900206976,5.0,1.0,phase_2,go,750.0,800.0,1.0,,,,,,,,,green,triangle
0.0,4.0,4.0,0.0,6.0,6.0,1087.258348998148,5.0,1.0,phase_2,go,750.0,800.0,1.0,,,,,,,,,orange,cross
0.0,4.0,4.0,0.0,6.0,6.0,872.897107998142,5.0,1.0,phase_2,go,750.0,800.0,1.0,,,,,,,,,orange,cross
0.0,5.0,0.5,1.0,5.0,0.0,0.0,5.0,1.0,phase_2,stop,750.0,800.0,4.0,,,,,,,,,white,circle
0.0,5.0,0.5,1.0,5.0,0.0,0.0,5.0,1.0,phase_2,stop,800.0,800.0,4.0,,,,,,,,,white,circle
0.0,6.0,1.0,1.0,5.0,0.0,0.0,5.0,1.0,phase_2,stop,850.0,800.0,4.0,,,,,,,,,gray,diamond
0.0,4.0,4.0,0.0,6.0,6.0,971.4948720065876,6.0,1.0,phase_2,go,900.0,800.0,1.0,,,,,,,,,orange,cross
0.0,8.0,4.0,1.0,5.0,0.0,0.0,6.0,1.0,phase_2,stop,900.0,800.0,4.0,,,,,,,,,green,triangle
0.0,4.0,4.0,0.0,5.0,5.0,1179.1872460162267,6.0,1.0,phase_2,go,950.0,800.0,1.0,,,,,,,,,orange,cross
0.0,7.0,2.0,1.0,5.0,5.0,1007.6076569966972,6.0,1.0,phase_2,stop,950.0,800.0,3.0,,,,,,,,,yellow,hexagon
0.0,1.0,0.5,0.0,6.0,6.0,1000.4566329880618,6.0,1.0,phase_2,go,900.0,800.0,1.0,,,,,,,,,blue,flipped triangle
0.0,1.0,0.5,0.0,5.0,5.0,1010.3571309882682,6.0,1.0,phase_2,go,900.0,800.0,1.0,,,,,,,,,blue,flipped triangle
0.0,4.0,4.0,0.0,6.0,6.0,1025.88249600376,6.0,1.0,phase_2,go,900.0,800.0,1.0,,,,,,,,,orange,cross
0.0,5.0,0.5,1.0,5.0,5.0,878.6328549904283,6.0,1.0,phase_2,go,900.0,800.0,1.0,,,,,,,,,white,circle
0.0,5.0,0.5,1.0,5.0,0.0,0.0,6.0,1.0,phase_2,stop,900.0,800.0,4.0,,,,,,,,,white,circle
0.0,5.0,0.5,1.0,6.0,0.0,0.0,6.0,1.0,phase_2,stop,950.0,800.0,4.0,,,,,,,,,white,circle
0.0,2.0,1.0,0.0,5.0,5.0,903.7544390012044,6.0,1.0,phase_2,go,950.0,850.0,1.0,,,,,,,,,magenta,I
0.0,8.0,4.0,1.0,6.0,6.0,829.2043819965329,6.0,1.0,phase_2,go,950.0,850.0,1.0,,,,,,,,,green,triangle
0.0,1.0,0.5,0.0,5.0,5.0,771.1553650151473,6.0,1.0,phase_2,go,950.0,850.0,1.0,,,,,,,,,blue,flipped triangle
0.0,1.0,0.5,0.0,6.0,6.0,531.5232919820119,6.0,1.0,phase_2,go,950.0,850.0,1.0,,,,,,,,,blue,flipped triangle
0.0,3.0,2.0,0.0,5.0,5.0,989.5925369928592,6.0,1.0,phase_2,go,950.0,850.0,1.0,,,,,,,,,cyan,square
0.0,8.0,4.0,1.0,6.0,6.0,640.4948080016766,6.0,1.0,phase_2,stop,950.0,850.0,3.0,,,,,,,,,green,triangle
0.0,2.0,1.0,0.0,5.0,5.0,1232.520643970929,6.0,1.0,phase_2,go,950.0,800.0,1.0,,,,,,,,,magenta,I
0.0,7.0,2.0,1.0,6.0,0.0,0.0,6.0,1.0,phase_2,stop,950.0,800.0,4.0,,,,,,,,,yellow,hexagon
0.0,2.0,1.0,0.0,6.0,6.0,1377.3429269785993,6.0,1.0,phase_2,go,950.0,850.0,1.0,,,,,,,,,magenta,I
0.0,4.0,4.0,0.0,5.0,5.0,961.2118309596552,6.0,1.0,phase_2,go,950.0,850.0,1.0,,,,,,,,,orange,cross
0.0,2.0,1.0,0.0,5.0,5.0,1104.8371409997344,6.0,1.0,phase_2,go,950.0,850.0,1.0,,,,,,,,,magenta,I
0.0,8.0,4.0,1.0,6.0,6.0,925.3169589792378,6.0,1.0,phase_2,stop,950.0,850.0,3.0,,,,,,,,,green,triangle
0.0,7.0,2.0,1.0,6.0,6.0,1367.9528139764443,6.0,1.0,phase_2,go,950.0,800.0,1.0,,,,,,,,,yellow,hexagon
0.0,7.0,2.0,1.0,5.0,5.0,1071.9185560010374,6.0,1.0,phase_2,go,950.0,800.0,1.0,,,,,,,,,yellow,hexagon
0.0,5.0,0.5,1.0,5.0,5.0,1007.2270529926757,6.0,1.0,phase_2,go,950.0,800.0,1.0,,,,,,,,,white,circle
0.0,1.0,0.5,0.0,6.0,6.0,963.5257020127028,6.0,1.0,phase_2,go,950.0,800.0,1.0,,,,,,,,,blue,flipped triangle
0.0,5.0,0.5,1.0,5.0,5.0,941.6173369972968,6.0,1.0,phase_2,stop,950.0,800.0,3.0,,,,,,,,,white,circle
0.0,2.0,1.0,0.0,6.0,6.0,1027.2272899746897,6.0,1.0,phase_2,go,900.0,800.0,1.0,,,,,,,,,magenta,I
0.0,4.0,4.0,0.0,6.0,6.0,1001.3771440135315,6.0,1.0,phase_2,go,900.0,800.0,1.0,,,,,,,,,orange,cross
0.0,7.0,2.0,1.0,6.0,6.0,732.0767210330814,6.0,1.0,phase_2,stop,900.0,800.0,3.0,,,,,,,,,yellow,hexagon
0.0,4.0,4.0,0.0,5.0,5.0,976.425038999878,6.0,1.0,phase_2,go,900.0,750.0,1.0,,,,,,,,,orange,cross
0.0,8.0,4.0,1.0,5.0,5.0,898.6345889861695,6.0,1.0,phase_2,stop,900.0,750.0,3.0,,,,,,,,,green,triangle
0.0,7.0,2.0,1.0,6.0,6.0,671.5675609884784,6.0,1.0,phase_2,stop,850.0,750.0,3.0,,,,,,,,,yellow,hexagon
0.0,5.0,0.5,1.0,6.0,0.0,0.0,6.0,1.0,phase_2,stop,850.0,700.0,4.0,,,,,,,,,white,circle
0.0,4.0,4.0,0.0,6.0,6.0,1007.1363730239682,6.0,1.0,phase_2,go,850.0,750.0,1.0,,,,,,,,,orange,cross
0.0,2.0,1.0,0.0,5.0,5.0,1114.2906160093844,6.0,1.0,phase_2,go,850.0,750.0,1.0,,,,,,,,,magenta,I
0.0,8.0,4.0,1.0,6.0,6.0,408.0953060183674,7.0,1.0,phase_2,stop,850.0,750.0,3.0,,,,,,,,,green,triangle
0.0,2.0,1.0,0.0,6.0,6.0,897.2200670395978,7.0,1.0,phase_2,go,850.0,700.0,1.0,,,,,,,,,magenta,I
0.0,3.0,2.0,0.0,5.0,5.0,712.4629400204867,7.0,1.0,phase_2,go,850.0,700.0,1.0,,,,,,,,,cyan,square
0.0,7.0,2.0,1.0,5.0,5.0,1006.3357439939864,7.0,1.0,phase_2,stop,850.0,700.0,3.0,,,,,,,,,yellow,hexagon
0.0,5.0,0.5,1.0,6.0,6.0,1280.7783979806118,7.0,1.0,phase_2,go,800.0,700.0,1.0,,,,,,,,,white,circle
0.0,1.0,0.5,0.0,6.0,6.0,1215.0263179792091,7.0,1.0,phase_2,go,800.0,700.0,1.0,,,,,,,,,blue,flipped triangle
0.0,1.0,0.5,0.0,5.0,5.0,1014.7781079867857,7.0,1.0,phase_2,go,800.0,700.0,1.0,,,,,,,,,blue,flipped triangle
0.0,6.0,1.0,1.0,5.0,5.0,1075.0354289775714,7.0,1.0,phase_2,go,800.0,700.0,1.0,,,,,,,,,gray,diamond
0.0,5.0,0.5,1.0,5.0,0.0,0.0,7.0,1.0,phase_2,stop,800.0,700.0,4.0,,,,,,,,,white,circle
0.0,4.0,4.0,0.0,6.0,6.0,1268.7546410015784,7.0,1.0,phase_2,go,850.0,700.0,1.0,,,,,,,,,orange,cross
0.0,1.0,0.5,0.0,5.0,5.0,1157.1856120135635,7.0,1.0,phase_2,go,850.0,700.0,1.0,,,,,,,,,blue,flipped triangle
0.0,5.0,0.5,1.0,6.0,0.0,0.0,7.0,1.0,phase_2,stop,850.0,700.0,4.0,,,,,,,,,white,circle
0.0,4.0,4.0,0.0,5.0,5.0,1115.8645590185188,7.0,1.0,phase_2,go,850.0,750.0,1.0,,,,,,,,,orange,cross
0.0,3.0,2.0,0.0,5.0,5.0,987.682334962301,7.0,1.0,phase_2,go,850.0,750.0,1.0,,,,,,,,,cyan,square
0.0,3.0,2.0,0.0,6.0,6.0,906.1563549912536,7.0,1.0,phase_2,go,850.0,750.0,1.0,,,,,,,,,cyan,square
0.0,5.0,0.5,1.0,5.0,0.0,0.0,7.0,1.0,phase_2,stop,850.0,750.0,4.0,,,,,,,,,white,circle
0.0,2.0,1.0,0.0,6.0,0.0,0.0,7.0,1.0,phase_2,go,900.0,750.0,5.0,,,,,,,,,magenta,I
0.0,7.0,2.0,1.0,6.0,6.0,1157.196796964854,7.0,1.0,phase_2,go,900.0,750.0,1.0,,,,,,,,,yellow,hexagon
0.0,8.0,4.0,1.0,5.0,5.0,903.874056006316,7.0,1.0,phase_2,go,900.0,750.0,1.0,,,,,,,,,green,triangle
0.0,2.0,1.0,0.0,6.0,6.0,741.3209029473364,7.0,1.0,phase_2,go,900.0,750.0,1.0,,,,,,,,,magenta,I
0.0,4.0,4.0,0.0,6.0,6.0,950.899560994003,7.0,1.0,phase_2,go,900.0,750.0,1.0,,,,,,,,,orange,cross
0.0,3.0,2.0,0.0,5.0,5.0,1036.0536269727163,7.0,1.0,phase_2,go,900.0,750.0,1.0,,,,,,,,,cyan,square
0.0,8.0,4.0,1.0,6.0,6.0,678.8817920023575,7.0,1.0,phase_2,stop,900.0,750.0,3.0,,,,,,,,,green,triangle
0.0,4.0,4.0,0.0,6.0,6.0,834.8181549808942,7.0,1.0,phase_2,go,900.0,700.0,1.0,,,,,,,,,orange,cross
0.0,6.0,1.0,1.0,6.0,6.0,794.3314259755425,7.0,1.0,phase_2,stop,900.0,700.0,3.0,,,,,,,,,gray,diamond
0.0,2.0,1.0,0.0,6.0,6.0,1169.824560987763,7.0,1.0,phase_2,go,900.0,650.0,1.0,,,,,,,,,magenta,I
0.0,8.0,4.0,1.0,5.0,5.0,880.9761109878309,7.0,1.0,phase_2,go,900.0,650.0,1.0,,,,,,,,,green,triangle
0.0,5.0,0.5,1.0,6.0,0.0,0.0,7.0,1.0,phase_2,stop,900.0,650.0,4.0,,,,,,,,,white,circle
0.0,6.0,1.0,1.0,6.0,0.0,0.0,7.0,1.0,phase_2,stop,900.0,700.0,4.0,,,,,,,,,gray,diamond
0.0,1.0,0.5,0.0,6.0,6.0,871.626106032636,7.0,1.0,phase_2,go,900.0,750.0,1.0,,,,,,,,,blue,flipped triangle
0.0,4.0,4.0,0.0,6.0,6.0,1262.466230953578,7.0,1.0,phase_2,go,900.0,750.0,1.0,,,,,,,,,orange,cross
0.0,1.0,0.5,0.0,6.0,6.0,721.7436389764771,7.0,1.0,phase_2,go,900.0,750.0,1.0,,,,,,,,,blue,flipped triangle
0.0,3.0,2.0,0.0,5.0,5.0,828.9912519976497,7.0,1.0,phase_2,go,900.0,750.0,1.0,,,,,,,,,cyan,square
0.0,2.0,1.0,0.0,6.0,6.0,1048.4725639689714,7.0,1.0,phase_2,go,900.0,750.0,1.0,,,,,,,,,magenta,I
0.0,6.0,1.0,1.0,6.0,0.0,0.0,7.0,1.0,phase_2,stop,900.0,750.0,4.0,,,,,,,,,gray,diamond
0.0,1.0,0.5,0.0,5.0,5.0,699.3489029700868,7.0,1.0,phase_2,go,900.0,800.0,1.0,,,,,,,,,blue,flipped triangle
0.0,3.0,2.0,0.0,6.0,6.0,1025.8217950467952,8.0,1.0,phase_2,go,900.0,800.0,1.0,,,,,,,,,cyan,square
0.0,8.0,4.0,1.0,6.0,0.0,0.0,8.0,1.0,phase_2,stop,900.0,800.0,4.0,,,,,,,,,green,triangle
0.0,4.0,4.0,0.0,6.0,6.0,1226.0870460304432,8.0,1.0,phase_2,go,900.0,850.0,1.0,,,,,,,,,orange,cross
0.0,3.0,2.0,0.0,6.0,6.0,1161.1655169981532,8.0,1.0,phase_2,go,900.0,850.0,1.0,,,,,,,,,cyan,square
0.0,1.0,0.5,0.0,6.0,6.0,1134.178232983686,8.0,1.0,phase_2,go,900.0,850.0,1.0,,,,,,,,,blue,flipped triangle
0.0,8.0,4.0,1.0,6.0,6.0,974.2241639760324,8.0,1.0,phase_2,stop,900.0,850.0,3.0,,,,,,,,,green,triangle
0.0,6.0,1.0,1.0,6.0,6.0,1279.1778839891776,8.0,1.0,phase_2,go,900.0,800.0,1.0,,,,,,,,,gray,diamond
0.0,4.0,4.0,0.0,5.0,5.0,1092.2640889766626,8.0,1.0,phase_2,go,900.0,800.0,1.0,,,,,,,,,orange,cross
0.0,3.0,2.0,0.0,6.0,6.0,1179.443619039375,8.0,1.0,phase_2,go,900.0,800.0,1.0,,,,,,,,,cyan,square
0.0,6.0,1.0,1.0,6.0,0.0,0.0,8.0,1.0,phase_2,stop,900.0,800.0,4.0,,,,,,,,,gray,diamond
0.0,7.0,2.0,1.0,5.0,0.0,0.0,8.0,1.0,phase_2,stop,900.0,850.0,4.0,,,,,,,,,yellow,hexagon
0.0,5.0,0.5,1.0,5.0,5.0,975.0157369999216,8.0,1.0,phase_2,stop,950.0,850.0,3.0,,,,,,,,,white,circle
0.0,2.0,1.0,0.0,5.0,5.0,1250.4072519950569,8.0,1.0,phase_2,go,900.0,850.0,1.0,,,,,,,,,magenta,I
0.0,3.0,2.0,0.0,6.0,6.0,920.4890470136888,8.0,1.0,phase_2,go,900.0,850.0,1.0,,,,,,,,,cyan,square
0.0,4.0,4.0,0.0,6.0,6.0,995.0253569986672,8.0,1.0,phase_2,go,900.0,850.0,1.0,,,,,,,,,orange,cross
0.0,6.0,1.0,1.0,5.0,5.0,873.0584910372272,8.0,1.0,phase_2,stop,900.0,850.0,3.0,,,,,,,,,gray,diamond
0.0,7.0,2.0,1.0,6.0,6.0,1039.0433360007592,8.0,1.0,phase_2,go,850.0,850.0,1.0,,,,,,,,,yellow,hexagon
0.0,6.0,1.0,1.0,6.0,6.0,817.8552150493488,8.0,1.0,phase_2,stop,850.0,850.0,3.0,,,,,,,,,gray,diamond
0.0,8.0,4.0,1.0,5.0,5.0,895.5975759890862,8.0,1.0,phase_2,stop,850.0,800.0,3.0,,,,,,,,,green,triangle
0.0,3.0,2.0,0.0,5.0,5.0,1142.3534600180574,8.0,1.0,phase_2,go,800.0,800.0,1.0,,,,,,,,,cyan,square
0.0,3.0,2.0,0.0,6.0,6.0,974.4840699713676,8.0,1.0,phase_2,go,800.0,800.0,1.0,,,,,,,,,cyan,square
0.0,1.0,0.5,0.0,6.0,6.0,910.614519030787,8.0,1.0,phase_2,go,800.0,800.0,1.0,,,,,,,,,blue,flipped triangle
0.0,7.0,2.0,1.0,5.0,5.0,862.4077439890243,8.0,1.0,phase_2,stop,800.0,800.0,3.0,,,,,,,,,yellow,hexagon
0.0,1.0,0.5,0.0,5.0,5.0,1110.1512720342726,8.0,1.0,phase_2,go,750.0,800.0,1.0,,,,,,,,,blue,flipped triangle
0.0,6.0,1.0,1.0,5.0,0.0,0.0,8.0,1.0,phase_2,stop,750.0,800.0,4.0,,,,,,,,,gray,diamond
0.0,2.0,1.0,0.0,5.0,5.0,1234.7848889767192,8.0,1.0,phase_2,go,800.0,800.0,1.0,,,,,,,,,magenta,I
0.0,5.0,0.5,1.0,5.0,0.0,0.0,8.0,1.0,phase_2,stop,800.0,800.0,4.0,,,,,,,,,white,circle
0.0,5.0,0.5,1.0,5.0,0.0,0.0,8.0,1.0,phase_2,stop,850.0,800.0,4.0,,,,,,,,,white,circle
0.0,5.0,0.5,1.0,5.0,0.0,0.0,8.0,1.0,phase_2,stop,900.0,800.0,4.0,,,,,,,,,white,circle
0.0,3.0,2.0,0.0,6.0,6.0,1266.9604229740798,8.0,1.0,phase_2,go,950.0,800.0,1.0,,,,,,,,,cyan,square
0.0,6.0,1.0,1.0,6.0,6.0,1199.3187500047495,8.0,1.0,phase_2,go,950.0,800.0,1.0,,,,,,,,,gray,diamond
0.0,8.0,4.0,1.0,5.0,5.0,943.2921939878725,8.0,1.0,phase_2,stop,950.0,800.0,3.0,,,,,,,,,green,triangle
0.0,4.0,4.0,0.0,5.0,5.0,1216.6156249586493,8.0,1.0,phase_2,go,900.0,800.0,1.0,,,,,,,,,orange,cross
0.0,1.0,0.5,0.0,5.0,5.0,904.5343630132264,8.0,1.0,phase_2,go,900.0,800.0,1.0,,,,,,,,,blue,flipped triangle
0.0,7.0,2.0,1.0,5.0,5.0,1022.6480749552138,8.0,1.0,phase_2,stop,900.0,800.0,3.0,,,,,,,,,yellow,hexagon
0.0,5.0,0.5,1.0,5.0,0.0,0.0,8.0,1.0,phase_2,stop,850.0,800.0,4.0,,,,,,,,,white,circle
0.0,8.0,4.0,1.0,7.0,1.0,4396.615876001306,1.0,1.0,phase_3,,,,,196.0,4.0,196.0,98.0,294.0,49.0,147.0,245.0,green,triangle
0.0,8.0,4.0,1.0,7.0,5.0,4539.723095018417,1.0,1.0,phase_3,,,,,170.0,5.0,34.0,68.0,204.0,102.0,170.0,136.0,green,triangle
0.0,1.0,0.5,0.0,7.0,6.0,4268.644975032657,1.0,1.0,phase_3,,,,,245.0,5.0,49.0,98.0,196.0,294.0,147.0,245.0,blue,flipped triangle
0.0,4.0,4.0,0.0,7.0,5.0,2199.628476984799,1.0,1.0,phase_3,,,,,39.0,1.0,234.0,117.0,78.0,156.0,39.0,195.0,orange,cross
0.0,4.0,4.0,0.0,7.0,2.0,2966.8605879996903,1.0,1.0,phase_3,,,,,49.0,1.0,294.0,49.0,245.0,147.0,196.0,98.0,orange,cross
0.0,6.0,1.0,1.0,7.0,1.0,2209.046044969,1.0,1.0,phase_3,,,,,54.0,1.0,54.0,162.0,216.0,270.0,324.0,108.0,gray,diamond
0.0,5.0,0.5,1.0,7.0,1.0,2369.5386319886893,1.0,1.0,phase_3,,,,,34.0,1.0,34.0,102.0,68.0,136.0,170.0,204.0,white,circle
0.0,3.0,2.0,0.0,7.0,4.0,4027.915871993173,1.0,1.0,phase_3,,,,,117.0,3.0,195.0,156.0,78.0,117.0,39.0,234.0,cyan,square
0.0,8.0,4.0,1.0,7.0,2.0,1714.8211780004203,1.0,1.0,phase_3,,,,,108.0,2.0,324.0,108.0,216.0,270.0,54.0,162.0,green,triangle
0.0,8.0,4.0,1.0,7.0,1.0,1228.8318689679727,1.0,1.0,phase_3,,,,,170.0,5.0,170.0,68.0,102.0,204.0,136.0,34.0,green,triangle
0.0,2.0,1.0,0.0,7.0,4.0,2637.327508011367,1.0,1.0,phase_3,,,,,88.0,2.0,220.0,132.0,44.0,88.0,176.0,264.0,magenta,I
0.0,5.0,0.5,1.0,7.0,1.0,3214.843323046807,1.0,1.0,phase_3,,,,,195.0,5.0,195.0,78.0,117.0,156.0,39.0,234.0,white,circle
0.0,1.0,0.5,0.0,7.0,6.0,2672.528375987895,1.0,1.0,phase_3,,,,,234.0,6.0,117.0,39.0,78.0,156.0,195.0,234.0,blue,flipped triangle
0.0,7.0,2.0,1.0,7.0,5.0,3899.587794963736,1.0,1.0,phase_3,,,,,204.0,6.0,170.0,136.0,102.0,68.0,204.0,34.0,yellow,hexagon
0.0,6.0,1.0,1.0,7.0,2.0,3898.123482998926,1.0,1.0,phase_3,,,,,102.0,3.0,68.0,102.0,170.0,136.0,34.0,204.0,gray,diamond
0.0,6.0,1.0,1.0,7.0,1.0,2748.653825954534,1.0,1.0,phase_3,,,,,132.0,3.0,132.0,264.0,88.0,220.0,44.0,176.0,gray,diamond
0.0,2.0,1.0,0.0,7.0,2.0,1495.5995720229112,1.0,1.0,phase_3,,,,,162.0,3.0,270.0,162.0,54.0,108.0,324.0,216.0,magenta,I
0.0,6.0,1.0,1.0,7.0,5.0,902.66151499236,1.0,2.0,phase_3,,,,,117.0,3.0,78.0,39.0,195.0,234.0,117.0,156.0,gray,diamond
0.0,1.0,0.5,0.0,7.0,2.0,1343.3453689794987,1.0,1.0,phase_3,,,,,204.0,6.0,102.0,204.0,34.0,68.0,136.0,170.0,blue,flipped triangle
0.0,3.0,2.0,0.0,7.0,3.0,2280.983337026555,1.0,1.0,phase_3,,,,,324.0,6.0,162.0,54.0,324.0,270.0,216.0,108.0,cyan,square
0.0,6.0,1.0,1.0,7.0,2.0,1758.988250978291,2.0,1.0,phase_3,,,,,196.0,4.0,147.0,196.0,245.0,49.0,294.0,98.0,gray,diamond
0.0,7.0,2.0,1.0,7.0,5.0,1477.6183150243014,2.0,1.0,phase_3,,,,,216.0,4.0,108.0,54.0,162.0,324.0,216.0,270.0,yellow,hexagon
0.0,8.0,4.0,1.0,7.0,3.0,1561.3255619537083,2.0,1.0,phase_3,,,,,234.0,6.0,39.0,78.0,234.0,195.0,156.0,117.0,green,triangle
0.0,2.0,1.0,0.0,7.0,3.0,2426.916344964411,2.0,1.0,phase_3,,,,,195.0,5.0,78.0,156.0,195.0,39.0,234.0,117.0,magenta,I
0.0,5.0,0.5,1.0,7.0,4.0,3578.5993049503304,2.0,1.0,phase_3,,,,,108.0,2.0,324.0,162.0,216.0,108.0,270.0,54.0,white,circle
0.0,7.0,2.0,1.0,7.0,2.0,4268.764736014418,2.0,1.0,phase_3,,,,,264.0,6.0,44.0,264.0,88.0,132.0,176.0,220.0,yellow,hexagon
0.0,7.0,2.0,1.0,7.0,6.0,3110.2571280207485,2.0,1.0,phase_3,,,,,196.0,4.0,98.0,49.0,147.0,245.0,294.0,196.0,yellow,hexagon
0.0,3.0,2.0,0.0,7.0,5.0,1913.148787978571,2.0,1.0,phase_3,,,,,245.0,5.0,196.0,147.0,98.0,49.0,245.0,294.0,cyan,square
0.0,2.0,1.0,0.0,7.0,3.0,1233.31090901047,2.0,1.0,phase_3,,,,,147.0,3.0,98.0,245.0,147.0,49.0,294.0,196.0,magenta,I
0.0,6.0,1.0,1.0,7.0,3.0,1435.5334599968046,2.0,1.0,phase_3,,,,,49.0,1.0,294.0,98.0,49.0,245.0,147.0,196.0,gray,diamond
0.0,8.0,4.0,1.0,7.0,1.0,1795.331111003179,2.0,1.0,phase_3,,,,,147.0,3.0,147.0,196.0,98.0,49.0,245.0,294.0,green,triangle
0.0,2.0,1.0,0.0,7.0,5.0,533.4911909885705,2.0,1.0,phase_3,,,,,108.0,2.0,216.0,162.0,324.0,54.0,108.0,270.0,magenta,I
0.0,1.0,0.5,0.0,7.0,1.0,1389.9785869871266,2.0,1.0,phase_3,,,,,195.0,5.0,195.0,39.0,78.0,117.0,234.0,156.0,blue,flipped triangle
0.0,3.0,2.0,0.0,7.0,6.0,1011.1322249867951,2.0,1.0,phase_3,,,,,245.0,5.0,147.0,49.0,98.0,294.0,196.0,245.0,cyan,square
0.0,5.0,0.5,1.0,7.0,6.0,1993.4695760020984,2.0,1.0,phase_3,,,,,108.0,2.0,162.0,270.0,324.0,54.0,216.0,108.0,white,circle
0.0,3.0,2.0,0.0,7.0,2.0,1170.553689007647,2.0,1.0,phase_3,,,,,132.0,3.0,44.0,132.0,88.0,176.0,220.0,264.0,cyan,square
0.0,6.0,1.0,1.0,7.0,4.0,1134.7030770266429,2.0,1.0,phase_3,,,,,44.0,1.0,132.0,176.0,88.0,44.0,220.0,264.0,gray,diamond
0.0,2.0,1.0,0.0,7.0,5.0,1439.8579240078109,2.0,1.0,phase_3,,,,,44.0,1.0,132.0,88.0,176.0,220.0,44.0,264.0,magenta,I
0.0,4.0,4.0,0.0,7.0,2.0,1302.4486469803378,2.0,1.0,phase_3,,,,,117.0,3.0,39.0,117.0,78.0,234.0,156.0,195.0,orange,cross
0.0,4.0,4.0,0.0,7.0,1.0,826.4670200296678,2.0,1.0,phase_3,,,,,196.0,4.0,196.0,294.0,147.0,49.0,245.0,98.0,orange,cross
0.0,5.0,0.5,1.0,7.0,5.0,1239.1519829980098,3.0,1.0,phase_3,,,,,78.0,2.0,195.0,117.0,156.0,39.0,78.0,234.0,white,circle
0.0,6.0,1.0,1.0,7.0,2.0,1389.6358479978517,3.0,1.0,phase_3,,,,,39.0,1.0,117.0,39.0,234.0,156.0,78.0,195.0,gray,diamond
0.0,8.0,4.0,1.0,7.0,6.0,1793.687288009096,3.0,1.0,phase_3,,,,,176.0,4.0,44.0,88.0,264.0,220.0,132.0,176.0,green,triangle
0.0,7.0,2.0,1.0,7.0,2.0,1720.5248970421962,3.0,1.0,phase_3,,,,,264.0,6.0,44.0,264.0,88.0,132.0,176.0,220.0,yellow,hexagon
0.0,7.0,2.0,1.0,7.0,4.0,1169.333845959045,3.0,1.0,phase_3,,,,,136.0,4.0,170.0,102.0,204.0,136.0,68.0,34.0,yellow,hexagon
0.0,1.0,0.5,0.0,7.0,4.0,1283.2218789844774,3.0,1.0,phase_3,,,,,176.0,4.0,88.0,44.0,132.0,176.0,220.0,264.0,blue,flipped triangle
0.0,5.0,0.5,1.0,7.0,2.0,1150.4422569996675,3.0,1.0,phase_3,,,,,196.0,4.0,49.0,196.0,294.0,245.0,147.0,98.0,white,circle
0.0,8.0,4.0,1.0,7.0,4.0,1199.2706279852428,3.0,1.0,phase_3,,,,,156.0,4.0,234.0,39.0,195.0,156.0,78.0,117.0,green,triangle
0.0,3.0,2.0,0.0,7.0,3.0,1671.7280699522234,3.0,1.0,phase_3,,,,,204.0,6.0,34.0,102.0,204.0,68.0,170.0,136.0,cyan,square
0.0,6.0,1.0,1.0,7.0,2.0,1665.1973639964126,3.0,1.0,phase_3,,,,,108.0,2.0,324.0,108.0,162.0,216.0,54.0,270.0,gray,diamond
0.0,7.0,2.0,1.0,7.0,5.0,3081.645069003571,3.0,1.0,phase_3,,,,,270.0,5.0,324.0,162.0,108.0,54.0,270.0,216.0,yellow,hexagon
0.0,2.0,1.0,0.0,7.0,3.0,1483.693960995879,3.0,1.0,phase_3,,,,,117.0,3.0,78.0,234.0,117.0,195.0,39.0,156.0,magenta,I
0.0,5.0,0.5,1.0,7.0,6.0,2156.448065012228,3.0,1.0,phase_3,,,,,170.0,5.0,136.0,204.0,68.0,34.0,102.0,170.0,white,circle
0.0,3.0,2.0,0.0,7.0,5.0,2511.9745960109867,3.0,1.0,phase_3,,,,,195.0,5.0,156.0,234.0,78.0,39.0,195.0,117.0,cyan,square
0.0,3.0,2.0,0.0,7.0,3.0,1856.1555580236015,3.0,1.0,phase_3,,,,,132.0,3.0,220.0,88.0,132.0,264.0,176.0,44.0,cyan,square
0.0,4.0,4.0,0.0,7.0,5.0,2857.5043119490147,3.0,1.0,phase_3,,,,,162.0,3.0,324.0,216.0,270.0,54.0,162.0,108.0,orange,cross
0.0,2.0,1.0,0.0,7.0,4.0,2579.25265096128,3.0,1.0,phase_3,,,,,102.0,3.0,170.0,204.0,68.0,102.0,136.0,34.0,magenta,I
0.0,2.0,1.0,0.0,7.0,3.0,3509.360796015244,3.0,1.0,phase_3,,,,,147.0,3.0,245.0,98.0,147.0,196.0,49.0,294.0,magenta,I
0.0,8.0,4.0,1.0,7.0,2.0,1271.070051996503,3.0,1.0,phase_3,,,,,162.0,3.0,54.0,162.0,108.0,270.0,324.0,216.0,green,triangle
0.0,4.0,4.0,0.0,7.0,6.0,1288.3347800234333,3.0,1.0,phase_3,,,,,136.0,4.0,170.0,102.0,34.0,204.0,68.0,136.0,orange,cross
0.0,1.0,0.5,0.0,7.0,4.0,865.5187970143743,4.0,1.0,phase_3,,,,,108.0,2.0,324.0,162.0,270.0,108.0,54.0,216.0,blue,flipped triangle
0.0,5.0,0.5,1.0,7.0,6.0,1619.475587969646,4.0,1.0,phase_3,,,,,44.0,1.0,88.0,264.0,220.0,132.0,176.0,44.0,white,circle
0.0,4.0,4.0,0.0,7.0,6.0,1950.232180999592,4.0,1.0,phase_3,,,,,176.0,4.0,44.0,88.0,264.0,132.0,220.0,176.0,orange,cross
0.0,1.0,0.5,0.0,7.0,2.0,1323.3973780297674,4.0,1.0,phase_3,,,,,132.0,3.0,264.0,132.0,220.0,88.0,44.0,176.0,blue,flipped triangle
0.0,5.0,0.5,1.0,7.0,6.0,1998.8895099959336,4.0,1.0,phase_3,,,,,294.0,6.0,147.0,245.0,49.0,98.0,196.0,294.0,white,circle
0.0,7.0,2.0,1.0,7.0,2.0,1432.384007028304,4.0,1.0,phase_3,,,,,117.0,3.0,195.0,117.0,156.0,39.0,234.0,78.0,yellow,hexagon
0.0,1.0,0.5,0.0,7.0,3.0,1145.2771699987352,4.0,1.0,phase_3,,,,,170.0,5.0,136.0,68.0,170.0,102.0,204.0,34.0,blue,flipped triangle
0.0,7.0,2.0,1.0,7.0,5.0,1219.0933840465732,4.0,1.0,phase_3,,,,,147.0,3.0,49.0,294.0,98.0,245.0,147.0,196.0,yellow,hexagon
0.0,3.0,2.0,0.0,7.0,1.0,1406.3302429858595,4.0,1.0,phase_3,,,,,108.0,2.0,108.0,216.0,324.0,270.0,54.0,162.0,cyan,square
0.0,6.0,1.0,1.0,7.0,6.0,1740.7184739713557,4.0,1.0,phase_3,,,,,102.0,3.0,204.0,136.0,170.0,68.0,34.0,102.0,gray,diamond
0.0,7.0,2.0,1.0,7.0,3.0,1805.592781980522,4.0,1.0,phase_3,,,,,117.0,3.0,39.0,156.0,117.0,78.0,234.0,195.0,yellow,hexagon
0.0,3.0,2.0,0.0,7.0,1.0,2054.634489992168,4.0,1.0,phase_3,,,,,136.0,4.0,136.0,68.0,204.0,170.0,34.0,102.0,cyan,square
0.0,1.0,0.5,0.0,7.0,4.0,1768.9459439716302,4.0,1.0,phase_3,,,,,196.0,4.0,294.0,98.0,49.0,196.0,147.0,245.0,blue,flipped triangle
0.0,4.0,4.0,0.0,7.0,6.0,1909.5913989585824,4.0,1.0,phase_3,,,,,216.0,4.0,324.0,162.0,108.0,54.0,270.0,216.0,orange,cross
0.0,5.0,0.5,1.0,7.0,3.0,2690.398123988416,4.0,1.0,phase_3,,,,,132.0,3.0,176.0,44.0,132.0,264.0,220.0,88.0,white,circle
0.0,4.0,4.0,0.0,7.0,5.0,2550.113627978135,4.0,1.0,phase_3,,,,,136.0,4.0,68.0,204.0,34.0,102.0,136.0,170.0,orange,cross
0.0,4.0,4.0,0.0,7.0,1.0,1440.9260239917785,4.0,1.0,phase_3,,,,,176.0,4.0,176.0,220.0,88.0,132.0,44.0,264.0,orange,cross
0.0,2.0,1.0,0.0,7.0,6.0,2042.6264349953271,4.0,1.0,phase_3,,,,,170.0,5.0,136.0,204.0,68.0,102.0,34.0,170.0,magenta,I
0.0,8.0,4.0,1.0,7.0,4.0,745.1633960008621,4.0,1.0,phase_3,,,,,220.0,5.0,176.0,88.0,44.0,220.0,264.0,132.0,green,triangle
0.0,1.0,0.5,0.0,7.0,1.0,1170.5129590118304,4.0,1.0,phase_3,,,,,162.0,3.0,162.0,54.0,216.0,270.0,108.0,324.0,blue,flipped triangle
