raw_reward_magnitude,stim_reward,stepwise_reward_magnitude,paired_with_stopping,stim_location,response,reaction_time,block,num_trial_presentations,which_phase,stop_signal_trial_type,left_SSD,right_SSD,accuracy,chosen_bidding_amount,chosen_bidding_level,possible_bid_1,possible_bid_2,possible_bid_3,possible_bid_4,possible_bid_5,possible_bid_6,color_text,shape_text
0.0,4.0,0.0,0.0,2.0,2.0,252.4462019791826,1.0,1.0,phase_1,,,,,,,,,,,,,cyan,cross
0.0,4.0,0.0,0.0,4.0,4.0,227.3921730229631,1.0,1.0,phase_1,,,,,,,,,,,,,cyan,cross
191.0,3.0,3.0,0.0,4.0,4.0,288.1803859490901,1.0,1.0,phase_1,,,,,,,,,,,,,magenta,circle
0.0,6.0,0.0,1.0,4.0,4.0,267.0105430297553,1.0,1.0,phase_1,,,,,,,,,,,,,gray,diamond
382.0,8.0,4.0,1.0,1.0,1.0,247.2510249353945,1.0,1.0,phase_1,,,,,,,,,,,,,blue,hexagon
408.0,4.0,4.0,0.0,3.0,3.0,268.6661470215767,1.0,1.0,phase_1,,,,,,,,,,,,,cyan,cross
100.0,2.0,2.0,0.0,2.0,2.0,248.3620399143546,1.0,1.0,phase_1,,,,,,,,,,,,,white,square
0.0,5.0,0.0,1.0,4.0,4.0,247.5739659275859,1.0,1.0,phase_1,,,,,,,,,,,,,orange,flipped triangle
0.0,2.0,0.0,0.0,1.0,1.0,226.0204809717834,1.0,1.0,phase_1,,,,,,,,,,,,,white,square
118.0,2.0,2.0,0.0,2.0,2.0,226.3730419799685,1.0,1.0,phase_1,,,,,,,,,,,,,white,square
418.0,8.0,4.0,1.0,1.0,1.0,222.6194960530847,1.0,1.0,phase_1,,,,,,,,,,,,,blue,hexagon
385.0,8.0,4.0,1.0,3.0,3.0,251.26314593944699,1.0,1.0,phase_1,,,,,,,,,,,,,blue,hexagon
116.0,2.0,2.0,0.0,3.0,3.0,293.7674849526956,1.0,1.0,phase_1,,,,,,,,,,,,,white,square
95.0,6.0,2.0,1.0,3.0,3.0,250.35427405964577,1.0,1.0,phase_1,,,,,,,,,,,,,gray,diamond
0.0,3.0,0.0,0.0,3.0,3.0,278.4645389765501,1.0,1.0,phase_1,,,,,,,,,,,,,magenta,circle
208.0,7.0,3.0,1.0,3.0,3.0,246.1309860227629,1.0,1.0,phase_1,,,,,,,,,,,,,yellow,triangle
422.0,8.0,4.0,1.0,4.0,4.0,242.9770010057836,1.0,1.0,phase_1,,,,,,,,,,,,,blue,hexagon
210.0,7.0,3.0,1.0,3.0,3.0,238.3768609724939,1.0,1.0,phase_1,,,,,,,,,,,,,yellow,triangle
380.0,8.0,4.0,1.0,2.0,2.0,233.5365010658279,1.0,1.0,phase_1,,,,,,,,,,,,,blue,hexagon
220.0,3.0,3.0,0.0,3.0,3.0,214.0349299879744,1.0,1.0,phase_1,,,,,,,,,,,,,magenta,circle
75.0,1.0,1.0,0.0,3.0,3.0,250.5848100408911,1.0,1.0,phase_1,,,,,,,,,,,,,green,I
386.0,4.0,4.0,0.0,1.0,1.0,263.382272911258,1.0,1.0,phase_1,,,,,,,,,,,,,cyan,cross
208.0,3.0,3.0,0.0,1.0,1.0,324.6391350403428,1.0,1.0,phase_1,,,,,,,,,,,,,magenta,circle
409.0,8.0,4.0,1.0,2.0,2.0,217.7454909542575,1.0,1.0,phase_1,,,,,,,,,,,,,blue,hexagon
206.0,7.0,3.0,1.0,2.0,2.0,246.8026570277288,1.0,1.0,phase_1,,,,,,,,,,,,,yellow,triangle
176.0,7.0,3.0,1.0,2.0,2.0,250.16954296734178,1.0,1.0,phase_1,,,,,,,,,,,,,yellow,triangle
0.0,1.0,0.0,0.0,3.0,3.0,241.691022994928,1.0,1.0,phase_1,,,,,,,,,,,,,green,I
218.0,7.0,3.0,1.0,2.0,2.0,254.7321430174634,1.0,1.0,phase_1,,,,,,,,,,,,,yellow,triangle
421.0,8.0,4.0,1.0,4.0,4.0,227.0406690659001,1.0,1.0,phase_1,,,,,,,,,,,,,blue,hexagon
396.0,4.0,4.0,0.0,2.0,2.0,302.8752380050719,1.0,1.0,phase_1,,,,,,,,,,,,,cyan,cross
120.0,6.0,2.0,1.0,1.0,1.0,284.1895089950412,1.0,1.0,phase_1,,,,,,,,,,,,,gray,diamond
71.0,1.0,1.0,0.0,4.0,4.0,247.219389071688,1.0,1.0,phase_1,,,,,,,,,,,,,green,I
390.0,8.0,4.0,1.0,2.0,2.0,226.4801389537751,1.0,1.0,phase_1,,,,,,,,,,,,,blue,hexagon
391.0,8.0,4.0,1.0,2.0,2.0,290.7075770199299,1.0,1.0,phase_1,,,,,,,,,,,,,blue,hexagon
56.0,5.0,1.0,1.0,2.0,2.0,264.3262279452756,1.0,2.0,phase_1,,,,,,,,,,,,,orange,flipped triangle
70.0,5.0,1.0,1.0,3.0,3.0,309.3635219847783,1.0,1.0,phase_1,,,,,,,,,,,,,orange,flipped triangle
414.0,4.0,4.0,0.0,2.0,2.0,275.1408660551533,1.0,1.0,phase_1,,,,,,,,,,,,,cyan,cross
206.0,3.0,3.0,0.0,1.0,1.0,298.3845190610736,1.0,1.0,phase_1,,,,,,,,,,,,,magenta,circle
390.0,4.0,4.0,0.0,1.0,1.0,391.7088829912245,1.0,1.0,phase_1,,,,,,,,,,,,,cyan,cross
38.0,1.0,1.0,0.0,1.0,1.0,304.4531350024044,1.0,1.0,phase_1,,,,,,,,,,,,,green,I
102.0,6.0,2.0,1.0,1.0,1.0,287.0170340174809,1.0,1.0,phase_1,,,,,,,,,,,,,gray,diamond
0.0,7.0,0.0,1.0,1.0,1.0,251.4031629543751,1.0,1.0,phase_1,,,,,,,,,,,,,yellow,triangle
0.0,6.0,0.0,1.0,3.0,3.0,272.4723849678412,1.0,1.0,phase_1,,,,,,,,,,,,,gray,diamond
114.0,6.0,2.0,1.0,3.0,3.0,283.2379599567503,1.0,1.0,phase_1,,,,,,,,,,,,,gray,diamond
401.0,8.0,4.0,1.0,3.0,3.0,264.2051879083738,1.0,1.0,phase_1,,,,,,,,,,,,,blue,hexagon
419.0,8.0,4.0,1.0,4.0,4.0,264.1191809670999,1.0,1.0,phase_1,,,,,,,,,,,,,blue,hexagon
35.0,5.0,1.0,1.0,2.0,2.0,252.0362670766189,1.0,1.0,phase_1,,,,,,,,,,,,,orange,flipped triangle
0.0,8.0,0.0,1.0,1.0,1.0,280.3071039961651,1.0,1.0,phase_1,,,,,,,,,,,,,blue,hexagon
222.0,3.0,3.0,0.0,3.0,3.0,244.0842749783769,1.0,1.0,phase_1,,,,,,,,,,,,,magenta,circle
48.0,1.0,1.0,0.0,3.0,3.0,255.6950260186568,1.0,1.0,phase_1,,,,,,,,,,,,,green,I
422.0,4.0,4.0,0.0,1.0,1.0,271.6416830662638,1.0,1.0,phase_1,,,,,,,,,,,,,cyan,cross
67.0,1.0,1.0,0.0,4.0,4.0,250.6568719400093,1.0,1.0,phase_1,,,,,,,,,,,,,green,I
405.0,8.0,4.0,1.0,4.0,4.0,271.3672640966251,1.0,1.0,phase_1,,,,,,,,,,,,,blue,hexagon
87.0,2.0,2.0,0.0,2.0,2.0,242.5368410767987,1.0,1.0,phase_1,,,,,,,,,,,,,white,square
0.0,3.0,0.0,0.0,3.0,3.0,296.0470960242674,1.0,1.0,phase_1,,,,,,,,,,,,,magenta,circle
0.0,3.0,0.0,0.0,1.0,1.0,260.2211919147521,1.0,1.0,phase_1,,,,,,,,,,,,,magenta,circle
219.0,7.0,3.0,1.0,4.0,4.0,243.8839359674602,1.0,1.0,phase_1,,,,,,,,,,,,,yellow,triangle
123.0,6.0,2.0,1.0,2.0,2.0,247.8138349251821,1.0,1.0,phase_1,,,,,,,,,,,,,gray,diamond
66.0,1.0,1.0,0.0,1.0,1.0,276.0898560518399,1.0,1.0,phase_1,,,,,,,,,,,,,green,I
0.0,4.0,0.0,0.0,1.0,1.0,280.9799269307405,1.0,1.0,phase_1,,,,,,,,,,,,,cyan,cross
0.0,8.0,0.0,1.0,4.0,4.0,222.29668102227149,1.0,1.0,phase_1,,,,,,,,,,,,,blue,hexagon
70.0,1.0,1.0,0.0,2.0,2.0,264.2409679247066,1.0,1.0,phase_1,,,,,,,,,,,,,green,I
220.0,7.0,3.0,1.0,1.0,1.0,268.0915070232004,1.0,1.0,phase_1,,,,,,,,,,,,,yellow,triangle
181.0,3.0,3.0,0.0,2.0,2.0,259.1356270713731,1.0,1.0,phase_1,,,,,,,,,,,,,magenta,circle
398.0,8.0,4.0,1.0,1.0,1.0,285.089468001388,1.0,1.0,phase_1,,,,,,,,,,,,,blue,hexagon
380.0,8.0,4.0,1.0,1.0,1.0,325.228730100207,1.0,1.0,phase_1,,,,,,,,,,,,,blue,hexagon
52.0,1.0,1.0,0.0,2.0,2.0,279.7055160626769,1.0,1.0,phase_1,,,,,,,,,,,,,green,I
187.0,3.0,3.0,0.0,4.0,4.0,315.6164059182629,1.0,1.0,phase_1,,,,,,,,,,,,,magenta,circle
32.0,5.0,1.0,1.0,2.0,2.0,274.9960300279781,1.0,1.0,phase_1,,,,,,,,,,,,,orange,flipped triangle
111.0,2.0,2.0,0.0,4.0,4.0,280.6031169602647,1.0,1.0,phase_1,,,,,,,,,,,,,white,square
79.0,6.0,2.0,1.0,4.0,4.0,267.5612149760127,1.0,1.0,phase_1,,,,,,,,,,,,,gray,diamond
400.0,4.0,4.0,0.0,2.0,2.0,222.3063489655032,1.0,1.0,phase_1,,,,,,,,,,,,,cyan,cross
414.0,4.0,4.0,0.0,4.0,4.0,242.7799149882048,1.0,1.0,phase_1,,,,,,,,,,,,,cyan,cross
403.0,4.0,4.0,0.0,2.0,2.0,255.82750898320228,1.0,1.0,phase_1,,,,,,,,,,,,,cyan,cross
376.0,8.0,4.0,1.0,4.0,4.0,268.091861042194,1.0,1.0,phase_1,,,,,,,,,,,,,blue,hexagon
421.0,8.0,4.0,1.0,4.0,4.0,275.5850509274751,1.0,1.0,phase_1,,,,,,,,,,,,,blue,hexagon
27.0,5.0,1.0,1.0,3.0,3.0,256.2921370845288,1.0,1.0,phase_1,,,,,,,,,,,,,orange,flipped triangle
403.0,8.0,4.0,1.0,1.0,1.0,258.918258943595,1.0,1.0,phase_1,,,,,,,,,,,,,blue,hexagon
111.0,6.0,2.0,1.0,3.0,3.0,241.5947499684989,1.0,1.0,phase_1,,,,,,,,,,,,,gray,diamond
0.0,4.0,0.0,0.0,4.0,4.0,247.3402449395507,1.0,1.0,phase_1,,,,,,,,,,,,,cyan,cross
0.0,6.0,0.0,1.0,2.0,2.0,258.900840068236,1.0,1.0,phase_1,,,,,,,,,,,,,gray,diamond
384.0,4.0,4.0,0.0,3.0,3.0,239.0787800541147,1.0,1.0,phase_1,,,,,,,,,,,,,cyan,cross
48.0,5.0,1.0,1.0,3.0,3.0,259.9464579252526,1.0,1.0,phase_1,,,,,,,,,,,,,orange,flipped triangle
210.0,7.0,3.0,1.0,3.0,3.0,230.5014770245179,1.0,1.0,phase_1,,,,,,,,,,,,,yellow,triangle
222.0,7.0,3.0,1.0,2.0,2.0,243.1832769652828,1.0,1.0,phase_1,,,,,,,,,,,,,yellow,triangle
36.0,1.0,1.0,0.0,4.0,4.0,216.3219799986109,1.0,1.0,phase_1,,,,,,,,,,,,,green,I
406.0,4.0,4.0,0.0,4.0,4.0,288.2349980063736,1.0,1.0,phase_1,,,,,,,,,,,,,cyan,cross
41.0,5.0,1.0,1.0,3.0,3.0,235.5344039388001,1.0,1.0,phase_1,,,,,,,,,,,,,orange,flipped triangle
0.0,2.0,0.0,0.0,4.0,4.0,304.3488849652931,1.0,1.0,phase_1,,,,,,,,,,,,,white,square
0.0,4.0,0.0,0.0,1.0,1.0,325.0020330306142,1.0,1.0,phase_1,,,,,,,,,,,,,cyan,cross
87.0,6.0,2.0,1.0,1.0,1.0,297.9660589480772,1.0,1.0,phase_1,,,,,,,,,,,,,gray,diamond
40.0,5.0,1.0,1.0,1.0,1.0,267.9970210883766,1.0,1.0,phase_1,,,,,,,,,,,,,orange,flipped triangle
104.0,2.0,2.0,0.0,1.0,1.0,274.858588934876,1.0,1.0,phase_1,,,,,,,,,,,,,white,square
196.0,7.0,3.0,1.0,3.0,3.0,229.2296700179577,1.0,1.0,phase_1,,,,,,,,,,,,,yellow,triangle
26.0,5.0,1.0,1.0,4.0,4.0,243.0854649282992,1.0,1.0,phase_1,,,,,,,,,,,,,orange,flipped triangle
415.0,8.0,4.0,1.0,3.0,3.0,230.8953119209036,1.0,1.0,phase_1,,,,,,,,,,,,,blue,hexagon
0.0,5.0,0.0,1.0,1.0,1.0,270.8815829828381,1.0,1.0,phase_1,,,,,,,,,,,,,orange,flipped triangle
382.0,4.0,4.0,0.0,2.0,2.0,251.8228349508717,1.0,1.0,phase_1,,,,,,,,,,,,,cyan,cross
66.0,1.0,1.0,0.0,3.0,3.0,247.6125319954008,1.0,1.0,phase_1,,,,,,,,,,,,,green,I
203.0,7.0,3.0,1.0,3.0,3.0,250.968124018982,1.0,1.0,phase_1,,,,,,,,,,,,,yellow,triangle
395.0,4.0,4.0,0.0,4.0,4.0,381.008532945998,2.0,1.0,phase_1,,,,,,,,,,,,,cyan,cross
376.0,4.0,4.0,0.0,1.0,1.0,279.6558139380067,2.0,1.0,phase_1,,,,,,,,,,,,,cyan,cross
87.0,6.0,2.0,1.0,1.0,1.0,288.0668650614097,2.0,1.0,phase_1,,,,,,,,,,,,,gray,diamond
0.0,6.0,0.0,1.0,4.0,4.0,300.8301180088892,2.0,1.0,phase_1,,,,,,,,,,,,,gray,diamond
75.0,2.0,2.0,0.0,2.0,2.0,271.0086500737816,2.0,1.0,phase_1,,,,,,,,,,,,,white,square
0.0,3.0,0.0,0.0,2.0,2.0,267.9922140669077,2.0,1.0,phase_1,,,,,,,,,,,,,magenta,circle
31.0,5.0,1.0,1.0,4.0,4.0,267.5729099428281,2.0,1.0,phase_1,,,,,,,,,,,,,orange,flipped triangle
88.0,2.0,2.0,0.0,4.0,4.0,311.0213569598272,2.0,1.0,phase_1,,,,,,,,,,,,,white,square
33.0,5.0,1.0,1.0,3.0,3.0,275.841174996458,2.0,1.0,phase_1,,,,,,,,,,,,,orange,flipped triangle
100.0,6.0,2.0,1.0,2.0,2.0,238.3746729465201,2.0,1.0,phase_1,,,,,,,,,,,,,gray,diamond
419.0,4.0,4.0,0.0,2.0,2.0,258.8909240439534,2.0,1.0,phase_1,,,,,,,,,,,,,cyan,cross
0.0,8.0,0.0,1.0,4.0,4.0,255.16006303951139,2.0,1.0,phase_1,,,,,,,,,,,,,blue,hexagon
175.0,3.0,3.0,0.0,4.0,4.0,238.011170993559,2.0,1.0,phase_1,,,,,,,,,,,,,magenta,circle
183.0,7.0,3.0,1.0,1.0,1.0,304.3287229957059,2.0,1.0,phase_1,,,,,,,,,,,,,yellow,triangle
63.0,5.0,1.0,1.0,1.0,1.0,328.2741650473326,2.0,1.0,phase_1,,,,,,,,,,,,,orange,flipped triangle
189.0,7.0,3.0,1.0,1.0,1.0,306.4556359313428,2.0,1.0,phase_1,,,,,,,,,,,,,yellow,triangle
384.0,8.0,4.0,1.0,2.0,2.0,246.1347000207752,2.0,1.0,phase_1,,,,,,,,,,,,,blue,hexagon
400.0,4.0,4.0,0.0,4.0,4.0,243.4275089763105,2.0,1.0,phase_1,,,,,,,,,,,,,cyan,cross
26.0,5.0,1.0,1.0,4.0,4.0,263.8065420323983,2.0,1.0,phase_1,,,,,,,,,,,,,orange,flipped triangle
0.0,4.0,0.0,0.0,4.0,4.0,260.0784220267087,2.0,1.0,phase_1,,,,,,,,,,,,,cyan,cross
39.0,1.0,1.0,0.0,4.0,4.0,234.0886290185153,2.0,1.0,phase_1,,,,,,,,,,,,,green,I
193.0,7.0,3.0,1.0,4.0,4.0,239.6055059507489,2.0,1.0,phase_1,,,,,,,,,,,,,yellow,triangle
37.0,5.0,1.0,1.0,4.0,4.0,275.0005050329491,2.0,1.0,phase_1,,,,,,,,,,,,,orange,flipped triangle
0.0,8.0,0.0,1.0,1.0,1.0,279.5672930078581,2.0,1.0,phase_1,,,,,,,,,,,,,blue,hexagon
0.0,5.0,0.0,1.0,2.0,2.0,275.2989620203152,2.0,1.0,phase_1,,,,,,,,,,,,,orange,flipped triangle
195.0,3.0,3.0,0.0,3.0,3.0,225.2737339586019,2.0,1.0,phase_1,,,,,,,,,,,,,magenta,circle
0.0,7.0,0.0,1.0,2.0,2.0,262.9912029951811,2.0,1.0,phase_1,,,,,,,,,,,,,yellow,triangle
418.0,8.0,4.0,1.0,4.0,4.0,269.6406400064006,2.0,1.0,phase_1,,,,,,,,,,,,,blue,hexagon
74.0,5.0,1.0,1.0,3.0,3.0,209.6873479895293,2.0,1.0,phase_1,,,,,,,,,,,,,orange,flipped triangle
0.0,4.0,0.0,0.0,4.0,4.0,230.3562049055472,2.0,1.0,phase_1,,,,,,,,,,,,,cyan,cross
41.0,1.0,1.0,0.0,3.0,3.0,251.6422460321337,2.0,1.0,phase_1,,,,,,,,,,,,,green,I
0.0,1.0,0.0,0.0,1.0,1.0,446.502448990941,2.0,1.0,phase_1,,,,,,,,,,,,,green,I
63.0,1.0,1.0,0.0,1.0,1.0,300.2754360204562,2.0,1.0,phase_1,,,,,,,,,,,,,green,I
0.0,3.0,0.0,0.0,3.0,3.0,279.9043930135667,2.0,1.0,phase_1,,,,,,,,,,,,,magenta,circle
380.0,4.0,4.0,0.0,1.0,1.0,274.2863619932905,2.0,1.0,phase_1,,,,,,,,,,,,,cyan,cross
26.0,1.0,1.0,0.0,3.0,3.0,242.2811620635911,2.0,1.0,phase_1,,,,,,,,,,,,,green,I
191.0,3.0,3.0,0.0,1.0,1.0,255.1368189742788,2.0,1.0,phase_1,,,,,,,,,,,,,magenta,circle
83.0,6.0,2.0,1.0,4.0,4.0,251.591639011167,2.0,1.0,phase_1,,,,,,,,,,,,,gray,diamond
0.0,1.0,0.0,0.0,3.0,3.0,230.1226129056885,2.0,1.0,phase_1,,,,,,,,,,,,,green,I
0.0,2.0,0.0,0.0,3.0,3.0,237.8430049866438,2.0,1.0,phase_1,,,,,,,,,,,,,white,square
0.0,6.0,0.0,1.0,2.0,2.0,280.3088659420609,2.0,1.0,phase_1,,,,,,,,,,,,,gray,diamond
98.0,6.0,2.0,1.0,4.0,4.0,221.9066949328407,2.0,1.0,phase_1,,,,,,,,,,,,,gray,diamond
180.0,7.0,3.0,1.0,4.0,4.0,251.1022259714082,2.0,1.0,phase_1,,,,,,,,,,,,,yellow,triangle
422.0,4.0,4.0,0.0,3.0,3.0,204.8687669448554,2.0,1.0,phase_1,,,,,,,,,,,,,cyan,cross
95.0,2.0,2.0,0.0,1.0,1.0,299.5658389991149,2.0,1.0,phase_1,,,,,,,,,,,,,white,square
0.0,5.0,0.0,1.0,4.0,4.0,287.312209024094,2.0,1.0,phase_1,,,,,,,,,,,,,orange,flipped triangle
399.0,8.0,4.0,1.0,2.0,2.0,266.3855740102008,2.0,1.0,phase_1,,,,,,,,,,,,,blue,hexagon
215.0,3.0,3.0,0.0,3.0,3.0,267.4138960428536,2.0,1.0,phase_1,,,,,,,,,,,,,magenta,circle
180.0,3.0,3.0,0.0,2.0,2.0,264.0039169928059,2.0,1.0,phase_1,,,,,,,,,,,,,magenta,circle
0.0,3.0,0.0,0.0,2.0,2.0,267.1200259355828,2.0,1.0,phase_1,,,,,,,,,,,,,magenta,circle
103.0,2.0,2.0,0.0,3.0,3.0,247.6470619440078,2.0,1.0,phase_1,,,,,,,,,,,,,white,square
0.0,5.0,0.0,1.0,2.0,2.0,291.3225159281865,2.0,1.0,phase_1,,,,,,,,,,,,,orange,flipped triangle
395.0,8.0,4.0,1.0,1.0,1.0,287.2473170282319,2.0,1.0,phase_1,,,,,,,,,,,,,blue,hexagon
382.0,4.0,4.0,0.0,2.0,2.0,231.1077780323103,2.0,1.0,phase_1,,,,,,,,,,,,,cyan,cross
85.0,6.0,2.0,1.0,4.0,4.0,283.7151779094711,2.0,1.0,phase_1,,,,,,,,,,,,,gray,diamond
0.0,7.0,0.0,1.0,2.0,2.0,237.2647180454805,2.0,1.0,phase_1,,,,,,,,,,,,,yellow,triangle
67.0,5.0,1.0,1.0,3.0,3.0,234.2935169581324,2.0,1.0,phase_1,,,,,,,,,,,,,orange,flipped triangle
27.0,1.0,1.0,0.0,1.0,1.0,273.1510760495439,2.0,1.0,phase_1,,,,,,,,,,,,,green,I
104.0,6.0,2.0,1.0,1.0,1.0,292.0230409363284,2.0,1.0,phase_1,,,,,,,,,,,,,gray,diamond
185.0,7.0,3.0,1.0,1.0,1.0,290.7734679756686,2.0,1.0,phase_1,,,,,,,,,,,,,yellow,triangle
193.0,3.0,3.0,0.0,3.0,3.0,271.8174980254844,2.0,1.0,phase_1,,,,,,,,,,,,,magenta,circle
54.0,1.0,1.0,0.0,2.0,2.0,282.9385069198906,2.0,1.0,phase_1,,,,,,,,,,,,,green,I
409.0,4.0,4.0,0.0,4.0,4.0,272.8761020116508,2.0,1.0,phase_1,,,,,,,,,,,,,cyan,cross
91.0,2.0,2.0,0.0,4.0,4.0,276.42276603728527,2.0,1.0,phase_1,,,,,,,,,,,,,white,square
0.0,7.0,0.0,1.0,3.0,3.0,303.3816840033978,2.0,1.0,phase_1,,,,,,,,,,,,,yellow,triangle
39.0,5.0,1.0,1.0,1.0,1.0,235.9711430035531,2.0,1.0,phase_1,,,,,,,,,,,,,orange,flipped triangle
44.0,1.0,1.0,0.0,3.0,3.0,217.3588059376925,2.0,1.0,phase_1,,,,,,,,,,,,,green,I
223.0,3.0,3.0,0.0,4.0,4.0,246.9453669618815,2.0,1.0,phase_1,,,,,,,,,,,,,magenta,circle
408.0,8.0,4.0,1.0,1.0,1.0,356.9143359782174,2.0,1.0,phase_1,,,,,,,,,,,,,blue,hexagon
37.0,1.0,1.0,0.0,2.0,2.0,270.7787819672376,2.0,1.0,phase_1,,,,,,,,,,,,,green,I
0.0,6.0,0.0,1.0,1.0,1.0,270.4264050116762,2.0,1.0,phase_1,,,,,,,,,,,,,gray,diamond
74.0,1.0,1.0,0.0,3.0,3.0,233.5817459970712,2.0,1.0,phase_1,,,,,,,,,,,,,green,I
396.0,8.0,4.0,1.0,4.0,4.0,278.1095909886062,2.0,1.0,phase_1,,,,,,,,,,,,,blue,hexagon
94.0,2.0,2.0,0.0,3.0,3.0,284.1546699637547,2.0,1.0,phase_1,,,,,,,,,,,,,white,square
0.0,4.0,0.0,0.0,2.0,2.0,254.84767998568708,2.0,1.0,phase_1,,,,,,,,,,,,,cyan,cross
50.0,5.0,1.0,1.0,1.0,1.0,307.2836810024455,2.0,1.0,phase_1,,,,,,,,,,,,,orange,flipped triangle
122.0,2.0,2.0,0.0,3.0,3.0,315.3252940392121,2.0,1.0,phase_1,,,,,,,,,,,,,white,square
203.0,3.0,3.0,0.0,2.0,2.0,247.3935319576412,2.0,1.0,phase_1,,,,,,,,,,,,,magenta,circle
0.0,8.0,0.0,1.0,3.0,3.0,258.5084929596632,2.0,1.0,phase_1,,,,,,,,,,,,,blue,hexagon
66.0,1.0,1.0,0.0,2.0,2.0,246.5994149679318,2.0,1.0,phase_1,,,,,,,,,,,,,green,I
198.0,7.0,3.0,1.0,3.0,3.0,299.5443090330809,2.0,1.0,phase_1,,,,,,,,,,,,,yellow,triangle
213.0,3.0,3.0,0.0,4.0,4.0,271.689897053875,2.0,1.0,phase_1,,,,,,,,,,,,,magenta,circle
220.0,3.0,3.0,0.0,1.0,1.0,333.7733250809833,2.0,1.0,phase_1,,,,,,,,,,,,,magenta,circle
414.0,8.0,4.0,1.0,2.0,2.0,243.8372810138389,2.0,1.0,phase_1,,,,,,,,,,,,,blue,hexagon
213.0,7.0,3.0,1.0,4.0,4.0,288.2115610409528,2.0,1.0,phase_1,,,,,,,,,,,,,yellow,triangle
115.0,2.0,2.0,0.0,1.0,1.0,321.3545540347695,2.0,1.0,phase_1,,,,,,,,,,,,,white,square
27.0,5.0,1.0,1.0,1.0,1.0,390.1338430587202,2.0,1.0,phase_1,,,,,,,,,,,,,orange,flipped triangle
223.0,7.0,3.0,1.0,1.0,1.0,291.826430009678,2.0,1.0,phase_1,,,,,,,,,,,,,yellow,triangle
117.0,2.0,2.0,0.0,2.0,2.0,263.4330949513241,2.0,1.0,phase_1,,,,,,,,,,,,,white,square
46.0,5.0,1.0,1.0,1.0,1.0,280.3599999751895,2.0,1.0,phase_1,,,,,,,,,,,,,orange,flipped triangle
180.0,3.0,3.0,0.0,4.0,4.0,267.5100839696824,2.0,1.0,phase_1,,,,,,,,,,,,,magenta,circle
66.0,5.0,1.0,1.0,2.0,2.0,256.5191839821636,2.0,1.0,phase_1,,,,,,,,,,,,,orange,flipped triangle
79.0,2.0,2.0,0.0,3.0,3.0,258.4437229670584,2.0,1.0,phase_1,,,,,,,,,,,,,white,square
71.0,1.0,1.0,0.0,1.0,1.0,250.7626239676028,2.0,1.0,phase_1,,,,,,,,,,,,,green,I
178.0,7.0,3.0,1.0,1.0,1.0,323.8612959394231,2.0,1.0,phase_1,,,,,,,,,,,,,yellow,triangle
0.0,3.0,0.0,0.0,2.0,2.0,224.4519280502572,2.0,1.0,phase_1,,,,,,,,,,,,,magenta,circle
96.0,6.0,2.0,1.0,1.0,1.0,320.5619580112397,2.0,1.0,phase_1,,,,,,,,,,,,,gray,diamond
63.0,1.0,1.0,0.0,2.0,2.0,298.8369490485638,2.0,1.0,phase_1,,,,,,,,,,,,,green,I
210.0,3.0,3.0,0.0,4.0,4.0,294.6945710573345,2.0,1.0,phase_1,,,,,,,,,,,,,magenta,circle
410.0,8.0,4.0,1.0,3.0,3.0,245.8146919962018,2.0,1.0,phase_1,,,,,,,,,,,,,blue,hexagon
75.0,6.0,2.0,1.0,2.0,2.0,350.2348950132727,3.0,1.0,phase_1,,,,,,,,,,,,,gray,diamond
75.0,5.0,1.0,1.0,4.0,4.0,283.8414099533111,3.0,1.0,phase_1,,,,,,,,,,,,,orange,flipped triangle
409.0,8.0,4.0,1.0,3.0,3.0,242.4300429411232,3.0,1.0,phase_1,,,,,,,,,,,,,blue,hexagon
0.0,3.0,0.0,0.0,2.0,2.0,254.84765600413078,3.0,1.0,phase_1,,,,,,,,,,,,,magenta,circle
213.0,7.0,3.0,1.0,1.0,1.0,276.563745108433,3.0,1.0,phase_1,,,,,,,,,,,,,yellow,triangle
391.0,4.0,4.0,0.0,4.0,4.0,279.8875550506636,3.0,1.0,phase_1,,,,,,,,,,,,,cyan,cross
421.0,4.0,4.0,0.0,1.0,1.0,292.5712040159851,3.0,1.0,phase_1,,,,,,,,,,,,,cyan,cross
120.0,2.0,2.0,0.0,1.0,1.0,313.6548759648576,3.0,1.0,phase_1,,,,,,,,,,,,,white,square
87.0,2.0,2.0,0.0,1.0,1.0,308.0283279996365,3.0,1.0,phase_1,,,,,,,,,,,,,white,square
405.0,4.0,4.0,0.0,3.0,3.0,264.6833630278706,3.0,1.0,phase_1,,,,,,,,,,,,,cyan,cross
196.0,3.0,3.0,0.0,4.0,4.0,305.0714170094579,3.0,1.0,phase_1,,,,,,,,,,,,,magenta,circle
98.0,2.0,2.0,0.0,2.0,2.0,236.6423730272799,3.0,1.0,phase_1,,,,,,,,,,,,,white,square
0.0,8.0,0.0,1.0,4.0,4.0,243.5527560301125,3.0,2.0,phase_1,,,,,,,,,,,,,blue,hexagon
121.0,2.0,2.0,0.0,4.0,4.0,255.44879701919848,3.0,1.0,phase_1,,,,,,,,,,,,,white,square
124.0,2.0,2.0,0.0,2.0,2.0,272.1236430807039,3.0,1.0,phase_1,,,,,,,,,,,,,white,square
0.0,5.0,0.0,1.0,2.0,2.0,321.1419699946418,3.0,1.0,phase_1,,,,,,,,,,,,,orange,flipped triangle
83.0,2.0,2.0,0.0,2.0,2.0,277.2038159891963,3.0,1.0,phase_1,,,,,,,,,,,,,white,square
83.0,6.0,2.0,1.0,1.0,1.0,267.3760139150545,3.0,1.0,phase_1,,,,,,,,,,,,,gray,diamond
0.0,8.0,0.0,1.0,1.0,1.0,335.8024790650233,3.0,1.0,phase_1,,,,,,,,,,,,,blue,hexagon
0.0,2.0,0.0,0.0,4.0,4.0,259.4754709862172,3.0,1.0,phase_1,,,,,,,,,,,,,white,square
116.0,6.0,2.0,1.0,2.0,2.0,242.6101058954373,3.0,1.0,phase_1,,,,,,,,,,,,,gray,diamond
113.0,6.0,2.0,1.0,3.0,3.0,261.7082539945841,3.0,1.0,phase_1,,,,,,,,,,,,,gray,diamond
198.0,3.0,3.0,0.0,3.0,3.0,290.4671709984541,3.0,1.0,phase_1,,,,,,,,,,,,,magenta,circle
78.0,2.0,2.0,0.0,1.0,1.0,314.1310509527102,3.0,1.0,phase_1,,,,,,,,,,,,,white,square
0.0,2.0,0.0,0.0,3.0,3.0,275.2095049945637,3.0,1.0,phase_1,,,,,,,,,,,,,white,square
79.0,2.0,2.0,0.0,1.0,1.0,282.2585969697684,3.0,1.0,phase_1,,,,,,,,,,,,,white,square
380.0,4.0,4.0,0.0,2.0,2.0,263.8475160347298,3.0,1.0,phase_1,,,,,,,,,,,,,cyan,cross
385.0,4.0,4.0,0.0,2.0,2.0,252.3394559975713,3.0,1.0,phase_1,,,,,,,,,,,,,cyan,cross
176.0,3.0,3.0,0.0,3.0,3.0,280.6479560676962,3.0,1.0,phase_1,,,,,,,,,,,,,magenta,circle
0.0,8.0,0.0,1.0,3.0,3.0,244.4843099219724,3.0,1.0,phase_1,,,,,,,,,,,,,blue,hexagon
83.0,2.0,2.0,0.0,3.0,3.0,263.4060810087248,3.0,1.0,phase_1,,,,,,,,,,,,,white,square
185.0,3.0,3.0,0.0,1.0,1.0,287.0834679342806,3.0,1.0,phase_1,,,,,,,,,,,,,magenta,circle
98.0,2.0,2.0,0.0,4.0,4.0,288.6000429280102,3.0,1.0,phase_1,,,,,,,,,,,,,white,square
31.0,1.0,1.0,0.0,1.0,1.0,264.6479489048943,3.0,1.0,phase_1,,,,,,,,,,,,,green,I
80.0,2.0,2.0,0.0,4.0,4.0,273.8403860712424,3.0,1.0,phase_1,,,,,,,,,,,,,white,square
399.0,4.0,4.0,0.0,3.0,3.0,210.8438480645418,3.0,1.0,phase_1,,,,,,,,,,,,,cyan,cross
0.0,6.0,0.0,1.0,2.0,2.0,261.1224389402196,3.0,1.0,phase_1,,,,,,,,,,,,,gray,diamond
43.0,5.0,1.0,1.0,1.0,1.0,252.14490306098008,3.0,1.0,phase_1,,,,,,,,,,,,,orange,flipped triangle
0.0,1.0,0.0,0.0,4.0,4.0,251.2801688862964,3.0,2.0,phase_1,,,,,,,,,,,,,green,I
83.0,2.0,2.0,0.0,4.0,4.0,256.0674559790641,3.0,1.0,phase_1,,,,,,,,,,,,,white,square
0.0,6.0,0.0,1.0,4.0,4.0,268.763073021546,3.0,1.0,phase_1,,,,,,,,,,,,,gray,diamond
67.0,1.0,1.0,0.0,4.0,4.0,288.865927956067,3.0,1.0,phase_1,,,,,,,,,,,,,green,I
0.0,4.0,0.0,0.0,2.0,2.0,331.9097480271011,3.0,1.0,phase_1,,,,,,,,,,,,,cyan,cross
422.0,8.0,4.0,1.0,4.0,4.0,306.9637120934203,3.0,1.0,phase_1,,,,,,,,,,,,,blue,hexagon
56.0,1.0,1.0,0.0,4.0,4.0,303.5439359955489,3.0,1.0,phase_1,,,,,,,,,,,,,green,I
124.0,6.0,2.0,1.0,3.0,3.0,242.0784540008753,3.0,1.0,phase_1,,,,,,,,,,,,,gray,diamond
54.0,5.0,1.0,1.0,4.0,4.0,218.02621090319,3.0,1.0,phase_1,,,,,,,,,,,,,orange,flipped triangle
376.0,8.0,4.0,1.0,2.0,2.0,286.795879015699,3.0,1.0,phase_1,,,,,,,,,,,,,blue,hexagon
121.0,6.0,2.0,1.0,1.0,1.0,297.5397940026596,3.0,1.0,phase_1,,,,,,,,,,,,,gray,diamond
98.0,6.0,2.0,1.0,2.0,2.0,254.8094110097736,3.0,1.0,phase_1,,,,,,,,,,,,,gray,diamond
225.0,7.0,3.0,1.0,2.0,2.0,282.6147980522364,3.0,1.0,phase_1,,,,,,,,,,,,,yellow,triangle
178.0,7.0,3.0,1.0,4.0,4.0,271.2096750037744,3.0,1.0,phase_1,,,,,,,,,,,,,yellow,triangle
208.0,3.0,3.0,0.0,2.0,2.0,268.0216520093381,3.0,1.0,phase_1,,,,,,,,,,,,,magenta,circle
0.0,1.0,0.0,0.0,4.0,4.0,291.0138360457495,3.0,1.0,phase_1,,,,,,,,,,,,,green,I
418.0,4.0,4.0,0.0,4.0,4.0,260.6292619602754,3.0,1.0,phase_1,,,,,,,,,,,,,cyan,cross
52.0,1.0,1.0,0.0,3.0,3.0,434.0021450771019,3.0,1.0,phase_1,,,,,,,,,,,,,green,I
67.0,1.0,1.0,0.0,2.0,2.0,241.577090928331,3.0,1.0,phase_1,,,,,,,,,,,,,green,I
0.0,2.0,0.0,0.0,1.0,1.0,306.2171000055969,3.0,1.0,phase_1,,,,,,,,,,,,,white,square
103.0,6.0,2.0,1.0,3.0,3.0,279.8347439384088,3.0,1.0,phase_1,,,,,,,,,,,,,gray,diamond
208.0,7.0,3.0,1.0,1.0,1.0,301.501811016351,3.0,1.0,phase_1,,,,,,,,,,,,,yellow,triangle
107.0,6.0,2.0,1.0,3.0,3.0,248.6263429746031,3.0,1.0,phase_1,,,,,,,,,,,,,gray,diamond
52.0,5.0,1.0,1.0,2.0,2.0,280.4679110413417,3.0,1.0,phase_1,,,,,,,,,,,,,orange,flipped triangle
66.0,5.0,1.0,1.0,3.0,3.0,292.4649550113827,3.0,1.0,phase_1,,,,,,,,,,,,,orange,flipped triangle
47.0,5.0,1.0,1.0,3.0,3.0,256.6346520325169,3.0,1.0,phase_1,,,,,,,,,,,,,orange,flipped triangle
387.0,4.0,4.0,0.0,1.0,1.0,292.8816300118342,3.0,1.0,phase_1,,,,,,,,,,,,,cyan,cross
0.0,2.0,0.0,0.0,4.0,4.0,272.2775400616228,3.0,1.0,phase_1,,,,,,,,,,,,,white,square
98.0,6.0,2.0,1.0,3.0,3.0,256.4823490101844,3.0,1.0,phase_1,,,,,,,,,,,,,gray,diamond
0.0,5.0,0.0,1.0,3.0,3.0,252.3360609775409,3.0,1.0,phase_1,,,,,,,,,,,,,orange,flipped triangle
102.0,2.0,2.0,0.0,1.0,1.0,273.2973099919036,3.0,1.0,phase_1,,,,,,,,,,,,,white,square
190.0,7.0,3.0,1.0,2.0,2.0,268.769304966554,3.0,1.0,phase_1,,,,,,,,,,,,,yellow,triangle
115.0,6.0,2.0,1.0,4.0,4.0,279.8024259973317,3.0,1.0,phase_1,,,,,,,,,,,,,gray,diamond
100.0,2.0,2.0,0.0,3.0,3.0,239.1501569654792,3.0,1.0,phase_1,,,,,,,,,,,,,white,square
0.0,7.0,0.0,1.0,1.0,1.0,275.2018478931859,3.0,1.0,phase_1,,,,,,,,,,,,,yellow,triangle
114.0,2.0,2.0,0.0,3.0,3.0,230.1053559640422,3.0,1.0,phase_1,,,,,,,,,,,,,white,square
63.0,5.0,1.0,1.0,4.0,4.0,249.9230119865387,3.0,1.0,phase_1,,,,,,,,,,,,,orange,flipped triangle
213.0,3.0,3.0,0.0,4.0,4.0,271.4935920666903,3.0,1.0,phase_1,,,,,,,,,,,,,magenta,circle
0.0,7.0,0.0,1.0,1.0,1.0,269.2851519677788,3.0,1.0,phase_1,,,,,,,,,,,,,yellow,triangle
44.0,5.0,1.0,1.0,1.0,1.0,275.515842018649,3.0,1.0,phase_1,,,,,,,,,,,,,orange,flipped triangle
181.0,3.0,3.0,0.0,4.0,4.0,285.9804419567808,3.0,1.0,phase_1,,,,,,,,,,,,,magenta,circle
36.0,5.0,1.0,1.0,4.0,4.0,289.4285989459604,3.0,1.0,phase_1,,,,,,,,,,,,,orange,flipped triangle
80.0,6.0,2.0,1.0,2.0,2.0,256.2675219960511,3.0,1.0,phase_1,,,,,,,,,,,,,gray,diamond
71.0,5.0,1.0,1.0,1.0,1.0,254.3530209222808,3.0,1.0,phase_1,,,,,,,,,,,,,orange,flipped triangle
116.0,2.0,2.0,0.0,1.0,1.0,337.6809800975024,3.0,1.0,phase_1,,,,,,,,,,,,,white,square
178.0,3.0,3.0,0.0,3.0,3.0,240.547721972689,3.0,1.0,phase_1,,,,,,,,,,,,,magenta,circle
210.0,3.0,3.0,0.0,2.0,2.0,293.5827519977465,3.0,2.0,phase_1,,,,,,,,,,,,,magenta,circle
0.0,2.0,0.0,0.0,3.0,3.0,283.6404569679871,3.0,1.0,phase_1,,,,,,,,,,,,,white,square
0.0,1.0,0.0,0.0,1.0,1.0,312.6906560501084,3.0,1.0,phase_1,,,,,,,,,,,,,green,I
207.0,7.0,3.0,1.0,1.0,1.0,302.7403749292716,3.0,1.0,phase_1,,,,,,,,,,,,,yellow,triangle
118.0,6.0,2.0,1.0,1.0,1.0,312.5448599457741,3.0,1.0,phase_1,,,,,,,,,,,,,gray,diamond
191.0,7.0,3.0,1.0,2.0,2.0,381.298282998614,3.0,1.0,phase_1,,,,,,,,,,,,,yellow,triangle
113.0,6.0,2.0,1.0,4.0,4.0,306.8089110311121,3.0,1.0,phase_1,,,,,,,,,,,,,gray,diamond
107.0,2.0,2.0,0.0,2.0,2.0,238.120570895262,3.0,1.0,phase_1,,,,,,,,,,,,,white,square
387.0,8.0,4.0,1.0,2.0,2.0,270.7860870286822,3.0,1.0,phase_1,,,,,,,,,,,,,blue,hexagon
220.0,7.0,3.0,1.0,2.0,2.0,306.6749459831044,3.0,1.0,phase_1,,,,,,,,,,,,,yellow,triangle
405.0,4.0,4.0,0.0,3.0,3.0,300.6409730296582,3.0,1.0,phase_1,,,,,,,,,,,,,cyan,cross
88.0,6.0,2.0,1.0,3.0,3.0,277.15578104835,3.0,1.0,phase_1,,,,,,,,,,,,,gray,diamond
35.0,1.0,1.0,0.0,4.0,4.0,281.0313369845971,3.0,1.0,phase_1,,,,,,,,,,,,,green,I
183.0,3.0,3.0,0.0,1.0,1.0,341.7196910595521,3.0,1.0,phase_1,,,,,,,,,,,,,magenta,circle
83.0,6.0,2.0,1.0,3.0,3.0,257.2927100118249,3.0,1.0,phase_1,,,,,,,,,,,,,gray,diamond
0.0,7.0,0.0,1.0,2.0,2.0,239.8556630359962,3.0,1.0,phase_1,,,,,,,,,,,,,yellow,triangle
389.0,4.0,4.0,0.0,4.0,4.0,344.8748949449509,4.0,1.0,phase_1,,,,,,,,,,,,,cyan,cross
0.0,3.0,0.0,0.0,4.0,4.0,258.8479900732636,4.0,1.0,phase_1,,,,,,,,,,,,,magenta,circle
79.0,6.0,2.0,1.0,1.0,1.0,273.6725150607526,4.0,1.0,phase_1,,,,,,,,,,,,,gray,diamond
195.0,7.0,3.0,1.0,4.0,4.0,284.490154008381,4.0,1.0,phase_1,,,,,,,,,,,,,yellow,triangle
61.0,5.0,1.0,1.0,4.0,4.0,457.0709189865738,4.0,1.0,phase_1,,,,,,,,,,,,,orange,flipped triangle
123.0,2.0,2.0,0.0,4.0,4.0,247.5134239066392,4.0,1.0,phase_1,,,,,,,,,,,,,white,square
220.0,7.0,3.0,1.0,3.0,3.0,236.7592029040679,4.0,1.0,phase_1,,,,,,,,,,,,,yellow,triangle
376.0,4.0,4.0,0.0,3.0,3.0,265.7426770310849,4.0,1.0,phase_1,,,,,,,,,,,,,cyan,cross
410.0,4.0,4.0,0.0,3.0,3.0,235.6549298856407,4.0,1.0,phase_1,,,,,,,,,,,,,cyan,cross
0.0,6.0,0.0,1.0,4.0,4.0,288.8541270513087,4.0,1.0,phase_1,,,,,,,,,,,,,gray,diamond
187.0,7.0,3.0,1.0,2.0,2.0,215.6594570260495,4.0,1.0,phase_1,,,,,,,,,,,,,yellow,triangle
117.0,6.0,2.0,1.0,4.0,4.0,277.9565339442342,4.0,1.0,phase_1,,,,,,,,,,,,,gray,diamond
376.0,4.0,4.0,0.0,1.0,1.0,318.2672850089147,4.0,1.0,phase_1,,,,,,,,,,,,,cyan,cross
94.0,6.0,2.0,1.0,2.0,2.0,285.4390849824995,4.0,1.0,phase_1,,,,,,,,,,,,,gray,diamond
89.0,2.0,2.0,0.0,3.0,3.0,386.9108789367601,4.0,1.0,phase_1,,,,,,,,,,,,,white,square
27.0,1.0,1.0,0.0,2.0,2.0,266.0432570846751,4.0,2.0,phase_1,,,,,,,,,,,,,green,I
32.0,1.0,1.0,0.0,2.0,2.0,270.8236159523949,4.0,1.0,phase_1,,,,,,,,,,,,,green,I
100.0,6.0,2.0,1.0,4.0,4.0,250.5345550598576,4.0,1.0,phase_1,,,,,,,,,,,,,gray,diamond
33.0,1.0,1.0,0.0,2.0,2.0,286.9638430420309,4.0,1.0,phase_1,,,,,,,,,,,,,green,I
203.0,7.0,3.0,1.0,4.0,4.0,278.9942700183019,4.0,1.0,phase_1,,,,,,,,,,,,,yellow,triangle
53.0,1.0,1.0,0.0,4.0,4.0,274.2298369994387,4.0,1.0,phase_1,,,,,,,,,,,,,green,I
0.0,5.0,0.0,1.0,2.0,2.0,295.485851005651,4.0,1.0,phase_1,,,,,,,,,,,,,orange,flipped triangle
66.0,5.0,1.0,1.0,3.0,3.0,299.1031958954409,4.0,1.0,phase_1,,,,,,,,,,,,,orange,flipped triangle
418.0,4.0,4.0,0.0,3.0,3.0,327.8950230451301,4.0,1.0,phase_1,,,,,,,,,,,,,cyan,cross
0.0,6.0,0.0,1.0,4.0,4.0,279.6087809838354,4.0,1.0,phase_1,,,,,,,,,,,,,gray,diamond
225.0,3.0,3.0,0.0,2.0,2.0,304.9229789758101,4.0,1.0,phase_1,,,,,,,,,,,,,magenta,circle
0.0,1.0,0.0,0.0,3.0,3.0,262.8367339493707,4.0,1.0,phase_1,,,,,,,,,,,,,green,I
180.0,7.0,3.0,1.0,3.0,3.0,266.421951004304,4.0,1.0,phase_1,,,,,,,,,,,,,yellow,triangle
0.0,3.0,0.0,0.0,3.0,3.0,278.3418439794332,4.0,1.0,phase_1,,,,,,,,,,,,,magenta,circle
394.0,8.0,4.0,1.0,3.0,3.0,255.28782105538988,4.0,1.0,phase_1,,,,,,,,,,,,,blue,hexagon
0.0,5.0,0.0,1.0,1.0,1.0,319.876346969977,4.0,1.0,phase_1,,,,,,,,,,,,,orange,flipped triangle
415.0,4.0,4.0,0.0,4.0,4.0,280.229520983994,4.0,1.0,phase_1,,,,,,,,,,,,,cyan,cross
0.0,1.0,0.0,0.0,1.0,1.0,261.0342280240729,4.0,1.0,phase_1,,,,,,,,,,,,,green,I
67.0,5.0,1.0,1.0,4.0,4.0,256.8231599871069,4.0,1.0,phase_1,,,,,,,,,,,,,orange,flipped triangle
78.0,6.0,2.0,1.0,2.0,2.0,245.2251609647646,4.0,1.0,phase_1,,,,,,,,,,,,,gray,diamond
89.0,6.0,2.0,1.0,4.0,4.0,296.9576810719445,4.0,1.0,phase_1,,,,,,,,,,,,,gray,diamond
181.0,7.0,3.0,1.0,4.0,4.0,302.7761050034314,4.0,1.0,phase_1,,,,,,,,,,,,,yellow,triangle
414.0,8.0,4.0,1.0,3.0,3.0,345.6163629889488,4.0,1.0,phase_1,,,,,,,,,,,,,blue,hexagon
0.0,2.0,0.0,0.0,1.0,1.0,271.8336479738354,4.0,1.0,phase_1,,,,,,,,,,,,,white,square
43.0,1.0,1.0,0.0,1.0,1.0,468.1931430241093,4.0,1.0,phase_1,,,,,,,,,,,,,green,I
210.0,7.0,3.0,1.0,1.0,1.0,343.2358680292964,4.0,1.0,phase_1,,,,,,,,,,,,,yellow,triangle
52.0,5.0,1.0,1.0,2.0,2.0,316.6473039891571,4.0,1.0,phase_1,,,,,,,,,,,,,orange,flipped triangle
186.0,3.0,3.0,0.0,1.0,1.0,323.5674720490351,4.0,1.0,phase_1,,,,,,,,,,,,,magenta,circle
400.0,8.0,4.0,1.0,1.0,1.0,741.4193630684167,4.0,1.0,phase_1,,,,,,,,,,,,,blue,hexagon
47.0,1.0,1.0,0.0,1.0,1.0,312.9152080509811,4.0,1.0,phase_1,,,,,,,,,,,,,green,I
376.0,8.0,4.0,1.0,3.0,3.0,264.4647189881652,4.0,1.0,phase_1,,,,,,,,,,,,,blue,hexagon
85.0,2.0,2.0,0.0,1.0,1.0,261.3030740758404,4.0,1.0,phase_1,,,,,,,,,,,,,white,square
421.0,4.0,4.0,0.0,4.0,4.0,251.2410549679771,4.0,1.0,phase_1,,,,,,,,,,,,,cyan,cross
37.0,5.0,1.0,1.0,2.0,2.0,276.4500209596008,4.0,1.0,phase_1,,,,,,,,,,,,,orange,flipped triangle
116.0,6.0,2.0,1.0,2.0,2.0,273.3732680790126,4.0,1.0,phase_1,,,,,,,,,,,,,gray,diamond
386.0,8.0,4.0,1.0,4.0,4.0,374.3491419591009,4.0,1.0,phase_1,,,,,,,,,,,,,blue,hexagon
203.0,3.0,3.0,0.0,1.0,1.0,326.2746250256896,4.0,1.0,phase_1,,,,,,,,,,,,,magenta,circle
50.0,1.0,1.0,0.0,3.0,3.0,473.5767999663949,4.0,1.0,phase_1,,,,,,,,,,,,,green,I
0.0,1.0,0.0,0.0,3.0,3.0,326.4693490928039,4.0,1.0,phase_1,,,,,,,,,,,,,green,I
175.0,7.0,3.0,1.0,3.0,3.0,298.5772410174832,4.0,1.0,phase_1,,,,,,,,,,,,,yellow,triangle
218.0,3.0,3.0,0.0,2.0,2.0,477.4623530684039,4.0,1.0,phase_1,,,,,,,,,,,,,magenta,circle
0.0,7.0,0.0,1.0,2.0,2.0,334.1205040924251,4.0,1.0,phase_1,,,,,,,,,,,,,yellow,triangle
0.0,7.0,0.0,1.0,2.0,2.0,286.9757069274783,4.0,1.0,phase_1,,,,,,,,,,,,,yellow,triangle
382.0,8.0,4.0,1.0,1.0,1.0,347.7110180538147,4.0,1.0,phase_1,,,,,,,,,,,,,blue,hexagon
189.0,3.0,3.0,0.0,2.0,2.0,267.3891730373725,4.0,1.0,phase_1,,,,,,,,,,,,,magenta,circle
406.0,8.0,4.0,1.0,3.0,3.0,318.6693480238318,4.0,1.0,phase_1,,,,,,,,,,,,,blue,hexagon
215.0,7.0,3.0,1.0,4.0,4.0,658.1727740122005,4.0,1.0,phase_1,,,,,,,,,,,,,yellow,triangle
181.0,7.0,3.0,1.0,4.0,4.0,263.4796480415389,4.0,1.0,phase_1,,,,,,,,,,,,,yellow,triangle
389.0,8.0,4.0,1.0,2.0,2.0,229.66782795265308,4.0,1.0,phase_1,,,,,,,,,,,,,blue,hexagon
394.0,4.0,4.0,0.0,1.0,1.0,258.6942060152069,4.0,1.0,phase_1,,,,,,,,,,,,,cyan,cross
186.0,7.0,3.0,1.0,2.0,2.0,246.0808380274102,4.0,1.0,phase_1,,,,,,,,,,,,,yellow,triangle
409.0,4.0,4.0,0.0,3.0,3.0,258.0841450253501,4.0,1.0,phase_1,,,,,,,,,,,,,cyan,cross
0.0,5.0,0.0,1.0,2.0,2.0,262.2332479804754,4.0,1.0,phase_1,,,,,,,,,,,,,orange,flipped triangle
0.0,8.0,0.0,1.0,2.0,2.0,299.177949083969,4.0,1.0,phase_1,,,,,,,,,,,,,blue,hexagon
113.0,2.0,2.0,0.0,3.0,3.0,274.4109909981489,4.0,1.0,phase_1,,,,,,,,,,,,,white,square
0.0,8.0,0.0,1.0,1.0,1.0,350.0643119914457,4.0,1.0,phase_1,,,,,,,,,,,,,blue,hexagon
401.0,4.0,4.0,0.0,1.0,1.0,498.8603889942169,4.0,1.0,phase_1,,,,,,,,,,,,,cyan,cross
0.0,2.0,0.0,0.0,1.0,1.0,869.5038949372247,4.0,1.0,phase_1,,,,,,,,,,,,,white,square
46.0,1.0,1.0,0.0,1.0,1.0,337.327123968862,4.0,1.0,phase_1,,,,,,,,,,,,,green,I
96.0,2.0,2.0,0.0,2.0,2.0,289.0475010499358,4.0,1.0,phase_1,,,,,,,,,,,,,white,square
53.0,5.0,1.0,1.0,2.0,2.0,266.9130039867013,4.0,1.0,phase_1,,,,,,,,,,,,,orange,flipped triangle
398.0,4.0,4.0,0.0,2.0,2.0,272.160765947774,4.0,1.0,phase_1,,,,,,,,,,,,,cyan,cross
61.0,1.0,1.0,0.0,1.0,1.0,231.8554540397599,4.0,1.0,phase_1,,,,,,,,,,,,,green,I
26.0,1.0,1.0,0.0,4.0,4.0,330.536579946056,4.0,1.0,phase_1,,,,,,,,,,,,,green,I
40.0,1.0,1.0,0.0,4.0,4.0,537.0061049470678,4.0,1.0,phase_1,,,,,,,,,,,,,green,I
400.0,8.0,4.0,1.0,3.0,3.0,268.2621250860393,4.0,1.0,phase_1,,,,,,,,,,,,,blue,hexagon
190.0,3.0,3.0,0.0,3.0,3.0,276.2300990289077,4.0,2.0,phase_1,,,,,,,,,,,,,magenta,circle
122.0,6.0,2.0,1.0,4.0,4.0,259.9378960439935,4.0,1.0,phase_1,,,,,,,,,,,,,gray,diamond
0.0,1.0,0.0,0.0,3.0,3.0,268.5614899965003,4.0,1.0,phase_1,,,,,,,,,,,,,green,I
113.0,2.0,2.0,0.0,4.0,4.0,301.6377700259909,4.0,1.0,phase_1,,,,,,,,,,,,,white,square
91.0,6.0,2.0,1.0,2.0,2.0,246.9486129703,4.0,1.0,phase_1,,,,,,,,,,,,,gray,diamond
207.0,3.0,3.0,0.0,2.0,2.0,250.4115609917789,4.0,1.0,phase_1,,,,,,,,,,,,,magenta,circle
37.0,1.0,1.0,0.0,3.0,3.0,433.1894790520891,4.0,1.0,phase_1,,,,,,,,,,,,,green,I
71.0,5.0,1.0,1.0,1.0,1.0,294.393279007636,4.0,1.0,phase_1,,,,,,,,,,,,,orange,flipped triangle
210.0,3.0,3.0,0.0,2.0,2.0,241.4033799432218,4.0,1.0,phase_1,,,,,,,,,,,,,magenta,circle
67.0,5.0,1.0,1.0,2.0,2.0,262.7369910478592,4.0,1.0,phase_1,,,,,,,,,,,,,orange,flipped triangle
220.0,3.0,3.0,0.0,1.0,1.0,277.3512380663305,4.0,1.0,phase_1,,,,,,,,,,,,,magenta,circle
0.0,4.0,0.0,0.0,2.0,2.0,224.5756520424038,4.0,1.0,phase_1,,,,,,,,,,,,,cyan,cross
0.0,7.0,0.0,1.0,1.0,1.0,295.4545200336724,4.0,1.0,phase_1,,,,,,,,,,,,,yellow,triangle
191.0,7.0,3.0,1.0,3.0,3.0,250.68009598180652,4.0,1.0,phase_1,,,,,,,,,,,,,yellow,triangle
38.0,5.0,1.0,1.0,2.0,2.0,271.3310869876295,4.0,1.0,phase_1,,,,,,,,,,,,,orange,flipped triangle
219.0,3.0,3.0,0.0,3.0,3.0,226.3853929471224,4.0,1.0,phase_1,,,,,,,,,,,,,magenta,circle
178.0,3.0,3.0,0.0,1.0,1.0,278.1841160031035,4.0,1.0,phase_1,,,,,,,,,,,,,magenta,circle
98.0,2.0,2.0,0.0,4.0,4.0,237.8347999183461,4.0,1.0,phase_1,,,,,,,,,,,,,white,square
405.0,8.0,4.0,1.0,1.0,1.0,290.5909939436242,4.0,1.0,phase_1,,,,,,,,,,,,,blue,hexagon
0.0,6.0,2.0,1.0,6.0,0.0,0.0,1.0,1.0,phase_2,stop,250.0,250.0,4.0,,,,,,,,,gray,diamond
0.0,3.0,3.0,0.0,6.0,6.0,293.7214740086347,1.0,1.0,phase_2,go,250.0,300.0,1.0,,,,,,,,,magenta,circle
0.0,1.0,1.0,0.0,6.0,6.0,277.5937110418454,1.0,1.0,phase_2,go,250.0,300.0,1.0,,,,,,,,,green,I
0.0,6.0,2.0,1.0,5.0,5.0,274.8841530410573,1.0,1.0,phase_2,stop,250.0,300.0,3.0,,,,,,,,,gray,diamond
0.0,1.0,1.0,0.0,5.0,5.0,260.9418330248445,1.0,1.0,phase_2,go,200.0,300.0,1.0,,,,,,,,,green,I
0.0,4.0,4.0,0.0,5.0,5.0,261.5170829230919,1.0,1.0,phase_2,go,200.0,300.0,1.0,,,,,,,,,cyan,cross
0.0,6.0,2.0,1.0,6.0,6.0,294.1114020068198,1.0,1.0,phase_2,stop,200.0,300.0,3.0,,,,,,,,,gray,diamond
0.0,6.0,2.0,1.0,6.0,0.0,0.0,1.0,1.0,phase_2,stop,200.0,250.0,4.0,,,,,,,,,gray,diamond
0.0,4.0,4.0,0.0,6.0,6.0,452.4831229355186,1.0,1.0,phase_2,go,200.0,300.0,1.0,,,,,,,,,cyan,cross
0.0,5.0,1.0,1.0,6.0,6.0,290.3899169759825,1.0,1.0,phase_2,stop,200.0,300.0,3.0,,,,,,,,,orange,flipped triangle
0.0,7.0,3.0,1.0,6.0,6.0,278.8206209661439,1.0,1.0,phase_2,stop,200.0,250.0,3.0,,,,,,,,,yellow,triangle
0.0,7.0,3.0,1.0,6.0,0.0,0.0,1.0,1.0,phase_2,stop,200.0,200.0,4.0,,,,,,,,,yellow,triangle
0.0,4.0,4.0,0.0,5.0,5.0,256.6202731104567,1.0,1.0,phase_2,go,200.0,250.0,1.0,,,,,,,,,cyan,cross
0.0,3.0,3.0,0.0,6.0,6.0,331.21158904396,1.0,1.0,phase_2,go,200.0,250.0,1.0,,,,,,,,,magenta,circle
0.0,4.0,4.0,0.0,6.0,6.0,423.6132799414918,1.0,1.0,phase_2,go,200.0,250.0,1.0,,,,,,,,,cyan,cross
0.0,5.0,1.0,1.0,5.0,5.0,298.0313280131668,1.0,1.0,phase_2,stop,200.0,250.0,3.0,,,,,,,,,orange,flipped triangle
0.0,6.0,2.0,1.0,6.0,6.0,718.5458210296929,1.0,1.0,phase_2,go,150.0,250.0,1.0,,,,,,,,,gray,diamond
0.0,4.0,4.0,0.0,6.0,6.0,415.642054984346,1.0,1.0,phase_2,go,150.0,250.0,1.0,,,,,,,,,cyan,cross
0.0,8.0,4.0,1.0,5.0,5.0,336.3502110587433,1.0,1.0,phase_2,go,150.0,250.0,1.0,,,,,,,,,blue,hexagon
0.0,2.0,2.0,0.0,6.0,6.0,292.7603210555389,1.0,1.0,phase_2,go,150.0,250.0,1.0,,,,,,,,,white,square
0.0,7.0,3.0,1.0,6.0,6.0,274.9704939778894,1.0,1.0,phase_2,stop,150.0,250.0,3.0,,,,,,,,,yellow,triangle
0.0,2.0,2.0,0.0,5.0,5.0,350.287321023643,1.0,1.0,phase_2,go,150.0,200.0,1.0,,,,,,,,,white,square
0.0,2.0,2.0,0.0,5.0,5.0,322.8817390045151,1.0,1.0,phase_2,go,150.0,200.0,1.0,,,,,,,,,white,square
0.0,2.0,2.0,0.0,6.0,6.0,395.2096430584788,1.0,1.0,phase_2,go,150.0,200.0,1.0,,,,,,,,,white,square
0.0,8.0,4.0,1.0,5.0,5.0,209.2583349440246,1.0,1.0,phase_2,stop,150.0,200.0,3.0,,,,,,,,,blue,hexagon
0.0,4.0,4.0,0.0,6.0,6.0,257.86692008841777,1.0,1.0,phase_2,go,100.0,200.0,1.0,,,,,,,,,cyan,cross
0.0,1.0,1.0,0.0,5.0,5.0,290.1743600377813,1.0,1.0,phase_2,go,100.0,200.0,1.0,,,,,,,,,green,I
0.0,7.0,3.0,1.0,6.0,6.0,287.8210400231182,1.0,1.0,phase_2,stop,100.0,200.0,3.0,,,,,,,,,yellow,triangle
0.0,3.0,3.0,0.0,6.0,6.0,399.1262179333716,1.0,1.0,phase_2,go,100.0,150.0,1.0,,,,,,,,,magenta,circle
0.0,3.0,3.0,0.0,5.0,5.0,281.0877339215949,1.0,1.0,phase_2,go,100.0,150.0,1.0,,,,,,,,,magenta,circle
0.0,1.0,1.0,0.0,5.0,5.0,303.9465530309826,1.0,1.0,phase_2,go,100.0,150.0,1.0,,,,,,,,,green,I
0.0,3.0,3.0,0.0,5.0,5.0,311.5270789712667,1.0,1.0,phase_2,go,100.0,150.0,1.0,,,,,,,,,magenta,circle
0.0,7.0,3.0,1.0,5.0,5.0,237.7547639189288,1.0,1.0,phase_2,stop,100.0,150.0,3.0,,,,,,,,,yellow,triangle
0.0,5.0,1.0,1.0,5.0,5.0,436.7582170525566,1.0,1.0,phase_2,stop,50.0,150.0,3.0,,,,,,,,,orange,flipped triangle
0.0,4.0,4.0,0.0,6.0,6.0,299.5507890591398,1.0,1.0,phase_2,go,0.0,150.0,1.0,,,,,,,,,cyan,cross
0.0,4.0,4.0,0.0,6.0,6.0,453.2175770727917,1.0,1.0,phase_2,go,0.0,150.0,1.0,,,,,,,,,cyan,cross
0.0,4.0,4.0,0.0,6.0,6.0,432.8431299654767,2.0,1.0,phase_2,go,0.0,150.0,1.0,,,,,,,,,cyan,cross
0.0,3.0,3.0,0.0,5.0,5.0,545.1589939184487,2.0,1.0,phase_2,go,0.0,150.0,1.0,,,,,,,,,magenta,circle
0.0,3.0,3.0,0.0,6.0,6.0,385.5203989660367,2.0,1.0,phase_2,go,0.0,150.0,1.0,,,,,,,,,magenta,circle
0.0,4.0,4.0,0.0,5.0,5.0,330.0039040623232,2.0,1.0,phase_2,go,0.0,150.0,1.0,,,,,,,,,cyan,cross
0.0,7.0,3.0,1.0,5.0,5.0,648.7798910820857,2.0,1.0,phase_2,go,0.0,150.0,1.0,,,,,,,,,yellow,triangle
0.0,5.0,1.0,1.0,5.0,0.0,0.0,2.0,1.0,phase_2,stop,0.0,150.0,4.0,,,,,,,,,orange,flipped triangle
0.0,6.0,2.0,1.0,5.0,0.0,0.0,2.0,1.0,phase_2,stop,50.0,150.0,4.0,,,,,,,,,gray,diamond
0.0,1.0,1.0,0.0,5.0,5.0,318.2901829713955,2.0,1.0,phase_2,go,100.0,150.0,1.0,,,,,,,,,green,I
0.0,6.0,2.0,1.0,6.0,0.0,0.0,2.0,1.0,phase_2,stop,100.0,150.0,4.0,,,,,,,,,gray,diamond
0.0,2.0,2.0,0.0,6.0,6.0,540.1844989974052,2.0,1.0,phase_2,go,100.0,200.0,1.0,,,,,,,,,white,square
0.0,4.0,4.0,0.0,5.0,5.0,526.8829370616004,2.0,1.0,phase_2,go,100.0,200.0,1.0,,,,,,,,,cyan,cross
0.0,3.0,3.0,0.0,6.0,6.0,358.3985479781404,2.0,1.0,phase_2,go,100.0,200.0,1.0,,,,,,,,,magenta,circle
0.0,7.0,3.0,1.0,5.0,0.0,0.0,2.0,1.0,phase_2,stop,100.0,200.0,4.0,,,,,,,,,yellow,triangle
0.0,5.0,1.0,1.0,6.0,6.0,401.9002800341695,2.0,1.0,phase_2,go,150.0,200.0,1.0,,,,,,,,,orange,flipped triangle
0.0,5.0,1.0,1.0,6.0,6.0,314.9065740872174,2.0,1.0,phase_2,stop,150.0,200.0,3.0,,,,,,,,,orange,flipped triangle
0.0,7.0,3.0,1.0,5.0,5.0,274.120070040226,2.0,1.0,phase_2,stop,150.0,150.0,3.0,,,,,,,,,yellow,triangle
0.0,6.0,2.0,1.0,5.0,0.0,0.0,2.0,1.0,phase_2,stop,100.0,150.0,4.0,,,,,,,,,gray,diamond
0.0,4.0,4.0,0.0,6.0,6.0,385.8901630155742,2.0,1.0,phase_2,go,150.0,150.0,1.0,,,,,,,,,cyan,cross
0.0,3.0,3.0,0.0,6.0,6.0,498.1082659214735,2.0,1.0,phase_2,go,150.0,150.0,1.0,,,,,,,,,magenta,circle
0.0,8.0,4.0,1.0,6.0,0.0,0.0,2.0,1.0,phase_2,stop,150.0,150.0,4.0,,,,,,,,,blue,hexagon
0.0,5.0,1.0,1.0,5.0,5.0,486.1990669742226,2.0,1.0,phase_2,go,150.0,200.0,1.0,,,,,,,,,orange,flipped triangle
0.0,8.0,4.0,1.0,5.0,0.0,0.0,2.0,1.0,phase_2,stop,150.0,200.0,4.0,,,,,,,,,blue,hexagon
0.0,5.0,1.0,1.0,5.0,0.0,0.0,2.0,1.0,phase_2,stop,200.0,200.0,4.0,,,,,,,,,orange,flipped triangle
0.0,3.0,3.0,0.0,6.0,6.0,407.3161059059202,2.0,1.0,phase_2,go,250.0,200.0,1.0,,,,,,,,,magenta,circle
0.0,7.0,3.0,1.0,5.0,5.0,270.312868990004,2.0,1.0,phase_2,stop,250.0,200.0,3.0,,,,,,,,,yellow,triangle
0.0,6.0,2.0,1.0,6.0,6.0,316.281147999689,2.0,1.0,phase_2,stop,200.0,200.0,3.0,,,,,,,,,gray,diamond
0.0,2.0,2.0,0.0,6.0,6.0,530.7197360089049,2.0,1.0,phase_2,go,200.0,150.0,1.0,,,,,,,,,white,square
0.0,4.0,4.0,0.0,6.0,6.0,474.6890519745648,2.0,1.0,phase_2,go,200.0,150.0,1.0,,,,,,,,,cyan,cross
0.0,1.0,1.0,0.0,6.0,6.0,594.1005059285089,2.0,1.0,phase_2,go,200.0,150.0,1.0,,,,,,,,,green,I
0.0,8.0,4.0,1.0,6.0,0.0,0.0,2.0,1.0,phase_2,stop,200.0,150.0,4.0,,,,,,,,,blue,hexagon
0.0,3.0,3.0,0.0,6.0,6.0,568.805351969786,2.0,1.0,phase_2,go,200.0,200.0,1.0,,,,,,,,,magenta,circle
0.0,6.0,2.0,1.0,5.0,0.0,0.0,2.0,1.0,phase_2,stop,200.0,200.0,4.0,,,,,,,,,gray,diamond
0.0,2.0,2.0,0.0,6.0,6.0,592.4809640273452,2.0,1.0,phase_2,go,250.0,200.0,1.0,,,,,,,,,white,square
0.0,6.0,2.0,1.0,6.0,0.0,0.0,2.0,1.0,phase_2,stop,250.0,200.0,4.0,,,,,,,,,gray,diamond
0.0,5.0,1.0,1.0,5.0,0.0,0.0,2.0,1.0,phase_2,stop,250.0,250.0,4.0,,,,,,,,,orange,flipped triangle
0.0,4.0,4.0,0.0,6.0,6.0,630.2926030475646,2.0,1.0,phase_2,go,300.0,250.0,1.0,,,,,,,,,cyan,cross
0.0,5.0,1.0,1.0,5.0,0.0,0.0,3.0,1.0,phase_2,stop,300.0,250.0,4.0,,,,,,,,,orange,flipped triangle
0.0,4.0,4.0,0.0,5.0,5.0,460.4767119744792,3.0,1.0,phase_2,go,350.0,250.0,1.0,,,,,,,,,cyan,cross
0.0,8.0,4.0,1.0,6.0,0.0,0.0,3.0,1.0,phase_2,stop,350.0,250.0,4.0,,,,,,,,,blue,hexagon
0.0,4.0,4.0,0.0,5.0,5.0,460.9718940919265,3.0,1.0,phase_2,go,350.0,300.0,1.0,,,,,,,,,cyan,cross
0.0,2.0,2.0,0.0,6.0,6.0,397.9349989676848,3.0,1.0,phase_2,go,350.0,300.0,1.0,,,,,,,,,white,square
0.0,7.0,3.0,1.0,6.0,6.0,413.7875590240583,3.0,1.0,phase_2,stop,350.0,300.0,3.0,,,,,,,,,yellow,triangle
0.0,6.0,2.0,1.0,6.0,0.0,0.0,3.0,1.0,phase_2,stop,350.0,250.0,4.0,,,,,,,,,gray,diamond
0.0,3.0,3.0,0.0,5.0,5.0,493.5602899640798,3.0,1.0,phase_2,go,350.0,300.0,1.0,,,,,,,,,magenta,circle
0.0,3.0,3.0,0.0,6.0,6.0,672.4943219451234,3.0,1.0,phase_2,go,350.0,300.0,1.0,,,,,,,,,magenta,circle
0.0,6.0,2.0,1.0,5.0,5.0,764.2958959331736,3.0,1.0,phase_2,go,350.0,300.0,1.0,,,,,,,,,gray,diamond
0.0,2.0,2.0,0.0,6.0,6.0,439.635858987458,3.0,1.0,phase_2,go,350.0,300.0,1.0,,,,,,,,,white,square
0.0,6.0,2.0,1.0,5.0,5.0,407.5660959351808,3.0,1.0,phase_2,stop,350.0,300.0,3.0,,,,,,,,,gray,diamond
0.0,8.0,4.0,1.0,5.0,0.0,0.0,3.0,1.0,phase_2,stop,300.0,300.0,4.0,,,,,,,,,blue,hexagon
0.0,1.0,1.0,0.0,6.0,6.0,448.1529189506545,3.0,1.0,phase_2,go,350.0,300.0,1.0,,,,,,,,,green,I
0.0,8.0,4.0,1.0,6.0,0.0,0.0,3.0,1.0,phase_2,stop,350.0,300.0,4.0,,,,,,,,,blue,hexagon
0.0,8.0,4.0,1.0,5.0,5.0,569.1315239528194,3.0,1.0,phase_2,go,350.0,350.0,1.0,,,,,,,,,blue,hexagon
0.0,1.0,1.0,0.0,5.0,5.0,580.2808369044214,3.0,1.0,phase_2,go,350.0,350.0,1.0,,,,,,,,,green,I
0.0,5.0,1.0,1.0,5.0,0.0,0.0,3.0,1.0,phase_2,stop,350.0,350.0,4.0,,,,,,,,,orange,flipped triangle
0.0,1.0,1.0,0.0,5.0,5.0,357.3611589381471,3.0,1.0,phase_2,go,400.0,350.0,1.0,,,,,,,,,green,I
0.0,6.0,2.0,1.0,6.0,6.0,375.9618079056963,3.0,1.0,phase_2,stop,400.0,350.0,3.0,,,,,,,,,gray,diamond
0.0,1.0,1.0,0.0,6.0,6.0,444.9662959668785,3.0,1.0,phase_2,go,400.0,300.0,1.0,,,,,,,,,green,I
0.0,4.0,4.0,0.0,5.0,5.0,468.9148881006986,3.0,1.0,phase_2,go,400.0,300.0,1.0,,,,,,,,,cyan,cross
0.0,8.0,4.0,1.0,6.0,6.0,450.6332830060273,3.0,1.0,phase_2,stop,400.0,300.0,3.0,,,,,,,,,blue,hexagon
0.0,1.0,1.0,0.0,6.0,6.0,466.5036570513621,3.0,1.0,phase_2,go,400.0,250.0,1.0,,,,,,,,,green,I
0.0,6.0,2.0,1.0,5.0,0.0,0.0,3.0,1.0,phase_2,stop,400.0,250.0,4.0,,,,,,,,,gray,diamond
0.0,2.0,2.0,0.0,5.0,5.0,511.0352010233328,3.0,1.0,phase_2,go,450.0,250.0,1.0,,,,,,,,,white,square
0.0,2.0,2.0,0.0,6.0,6.0,527.4283770704642,3.0,1.0,phase_2,go,450.0,250.0,1.0,,,,,,,,,white,square
0.0,4.0,4.0,0.0,5.0,5.0,577.6148439617828,3.0,1.0,phase_2,go,450.0,250.0,1.0,,,,,,,,,cyan,cross
0.0,2.0,2.0,0.0,6.0,6.0,263.4257660247385,3.0,1.0,phase_2,go,450.0,250.0,1.0,,,,,,,,,white,square
0.0,3.0,3.0,0.0,6.0,6.0,479.0389291010797,3.0,1.0,phase_2,go,450.0,250.0,1.0,,,,,,,,,magenta,circle
0.0,1.0,1.0,0.0,5.0,5.0,300.7209239294752,3.0,1.0,phase_2,go,450.0,250.0,1.0,,,,,,,,,green,I
0.0,8.0,4.0,1.0,5.0,5.0,288.5724899824708,3.0,1.0,phase_2,stop,450.0,250.0,3.0,,,,,,,,,blue,hexagon
0.0,1.0,1.0,0.0,6.0,6.0,487.2350399382412,3.0,1.0,phase_2,go,400.0,250.0,1.0,,,,,,,,,green,I
0.0,4.0,4.0,0.0,6.0,6.0,306.8015720928088,3.0,1.0,phase_2,go,400.0,250.0,1.0,,,,,,,,,cyan,cross
0.0,1.0,1.0,0.0,5.0,5.0,436.2830049358308,3.0,1.0,phase_2,go,400.0,250.0,1.0,,,,,,,,,green,I
0.0,6.0,2.0,1.0,6.0,6.0,354.2120580095798,3.0,1.0,phase_2,stop,400.0,250.0,3.0,,,,,,,,,gray,diamond
0.0,1.0,1.0,0.0,6.0,6.0,736.2234439933673,4.0,1.0,phase_2,go,400.0,200.0,1.0,,,,,,,,,green,I
0.0,7.0,3.0,1.0,6.0,6.0,287.7015999983996,4.0,1.0,phase_2,stop,400.0,200.0,3.0,,,,,,,,,yellow,triangle
0.0,5.0,1.0,1.0,6.0,0.0,0.0,4.0,1.0,phase_2,stop,400.0,150.0,4.0,,,,,,,,,orange,flipped triangle
0.0,8.0,4.0,1.0,5.0,5.0,302.4999569170177,4.0,1.0,phase_2,stop,400.0,200.0,3.0,,,,,,,,,blue,hexagon
0.0,3.0,3.0,0.0,6.0,6.0,597.2689460031688,4.0,1.0,phase_2,go,350.0,200.0,1.0,,,,,,,,,magenta,circle
0.0,5.0,1.0,1.0,6.0,0.0,0.0,4.0,1.0,phase_2,stop,350.0,200.0,4.0,,,,,,,,,orange,flipped triangle
0.0,6.0,2.0,1.0,6.0,6.0,326.6270969761535,4.0,1.0,phase_2,stop,350.0,250.0,3.0,,,,,,,,,gray,diamond
0.0,7.0,3.0,1.0,5.0,5.0,509.5928389346227,4.0,1.0,phase_2,go,350.0,200.0,1.0,,,,,,,,,yellow,triangle
0.0,3.0,3.0,0.0,6.0,6.0,469.8625690070912,4.0,1.0,phase_2,go,350.0,200.0,1.0,,,,,,,,,magenta,circle
0.0,8.0,4.0,1.0,6.0,6.0,659.1262579895556,4.0,1.0,phase_2,go,350.0,200.0,1.0,,,,,,,,,blue,hexagon
0.0,7.0,3.0,1.0,5.0,5.0,613.171064062044,4.0,1.0,phase_2,go,350.0,200.0,1.0,,,,,,,,,yellow,triangle
0.0,3.0,3.0,0.0,6.0,6.0,333.5162419825792,4.0,1.0,phase_2,go,350.0,200.0,1.0,,,,,,,,,magenta,circle
0.0,2.0,2.0,0.0,5.0,5.0,585.7803240651265,4.0,1.0,phase_2,go,350.0,200.0,1.0,,,,,,,,,white,square
0.0,8.0,4.0,1.0,6.0,6.0,378.3087019110098,4.0,1.0,phase_2,go,350.0,200.0,1.0,,,,,,,,,blue,hexagon
0.0,7.0,3.0,1.0,5.0,5.0,487.8444990608841,4.0,1.0,phase_2,stop,350.0,200.0,3.0,,,,,,,,,yellow,triangle
0.0,1.0,1.0,0.0,6.0,6.0,455.2418059902265,4.0,1.0,phase_2,go,300.0,200.0,1.0,,,,,,,,,green,I
0.0,5.0,1.0,1.0,5.0,0.0,0.0,4.0,1.0,phase_2,stop,300.0,200.0,4.0,,,,,,,,,orange,flipped triangle
0.0,7.0,3.0,1.0,5.0,0.0,0.0,4.0,1.0,phase_2,stop,350.0,200.0,4.0,,,,,,,,,yellow,triangle
0.0,5.0,1.0,1.0,6.0,6.0,639.27900895942,4.0,1.0,phase_2,go,400.0,200.0,1.0,,,,,,,,,orange,flipped triangle
0.0,7.0,3.0,1.0,5.0,0.0,0.0,4.0,1.0,phase_2,stop,400.0,200.0,4.0,,,,,,,,,yellow,triangle
0.0,5.0,1.0,1.0,5.0,0.0,0.0,4.0,1.0,phase_2,stop,450.0,200.0,4.0,,,,,,,,,orange,flipped triangle
0.0,2.0,2.0,0.0,5.0,5.0,655.8084969874471,4.0,1.0,phase_2,go,500.0,200.0,1.0,,,,,,,,,white,square
0.0,5.0,1.0,1.0,5.0,0.0,0.0,4.0,1.0,phase_2,stop,500.0,200.0,4.0,,,,,,,,,orange,flipped triangle
0.0,5.0,1.0,1.0,5.0,0.0,0.0,4.0,1.0,phase_2,stop,550.0,200.0,4.0,,,,,,,,,orange,flipped triangle
0.0,2.0,2.0,0.0,5.0,5.0,597.1980860922486,4.0,1.0,phase_2,go,600.0,200.0,1.0,,,,,,,,,white,square
0.0,1.0,1.0,0.0,5.0,5.0,348.4098870540038,4.0,1.0,phase_2,go,600.0,200.0,1.0,,,,,,,,,green,I
0.0,3.0,3.0,0.0,5.0,5.0,810.2616089163348,4.0,1.0,phase_2,go,600.0,200.0,1.0,,,,,,,,,magenta,circle
0.0,4.0,4.0,0.0,6.0,6.0,528.7124230526388,4.0,1.0,phase_2,go,600.0,200.0,1.0,,,,,,,,,cyan,cross
0.0,6.0,2.0,1.0,5.0,0.0,0.0,4.0,1.0,phase_2,stop,600.0,200.0,4.0,,,,,,,,,gray,diamond
0.0,8.0,4.0,1.0,6.0,0.0,0.0,4.0,1.0,phase_2,stop,650.0,200.0,4.0,,,,,,,,,blue,hexagon
0.0,2.0,2.0,0.0,6.0,6.0,553.5747619578615,4.0,1.0,phase_2,go,650.0,250.0,1.0,,,,,,,,,white,square
0.0,4.0,4.0,0.0,5.0,5.0,494.301914004609,4.0,1.0,phase_2,go,650.0,250.0,1.0,,,,,,,,,cyan,cross
0.0,8.0,4.0,1.0,5.0,5.0,352.7838269947096,4.0,1.0,phase_2,stop,650.0,250.0,3.0,,,,,,,,,blue,hexagon
0.0,2.0,2.0,0.0,5.0,5.0,526.8633019877598,4.0,1.0,phase_2,go,600.0,250.0,1.0,,,,,,,,,white,square
0.0,4.0,4.0,0.0,5.0,5.0,415.1318520307541,4.0,1.0,phase_2,go,600.0,250.0,1.0,,,,,,,,,cyan,cross
0.0,3.0,3.0,0.0,5.0,5.0,327.4990110658109,4.0,1.0,phase_2,go,600.0,250.0,1.0,,,,,,,,,magenta,circle
0.0,1.0,1.0,0.0,5.0,5.0,479.1996909771114,5.0,1.0,phase_2,go,600.0,250.0,1.0,,,,,,,,,green,I
0.0,3.0,3.0,0.0,6.0,6.0,281.7534179193899,5.0,1.0,phase_2,go,600.0,250.0,1.0,,,,,,,,,magenta,circle
0.0,3.0,3.0,0.0,5.0,5.0,294.0280380425975,5.0,1.0,phase_2,go,600.0,250.0,1.0,,,,,,,,,magenta,circle
0.0,2.0,2.0,0.0,6.0,6.0,368.0660690879449,5.0,1.0,phase_2,go,600.0,250.0,1.0,,,,,,,,,white,square
0.0,6.0,2.0,1.0,6.0,6.0,319.0583910327405,5.0,1.0,phase_2,stop,600.0,250.0,3.0,,,,,,,,,gray,diamond
0.0,6.0,2.0,1.0,6.0,6.0,800.3454860299826,5.0,1.0,phase_2,go,600.0,200.0,1.0,,,,,,,,,gray,diamond
0.0,1.0,1.0,0.0,5.0,5.0,324.8348420020193,5.0,1.0,phase_2,go,600.0,200.0,1.0,,,,,,,,,green,I
0.0,6.0,2.0,1.0,6.0,0.0,0.0,5.0,1.0,phase_2,stop,600.0,200.0,4.0,,,,,,,,,gray,diamond
0.0,2.0,2.0,0.0,5.0,5.0,581.0711620142683,5.0,1.0,phase_2,go,600.0,250.0,1.0,,,,,,,,,white,square
0.0,6.0,2.0,1.0,5.0,5.0,329.9366700230166,5.0,1.0,phase_2,stop,600.0,250.0,3.0,,,,,,,,,gray,diamond
0.0,8.0,4.0,1.0,5.0,5.0,619.5691409520805,5.0,1.0,phase_2,stop,550.0,250.0,3.0,,,,,,,,,blue,hexagon
0.0,7.0,3.0,1.0,5.0,5.0,588.1126309977844,5.0,1.0,phase_2,go,500.0,250.0,1.0,,,,,,,,,yellow,triangle
0.0,3.0,3.0,0.0,6.0,6.0,499.6950950007885,5.0,1.0,phase_2,go,500.0,250.0,1.0,,,,,,,,,magenta,circle
0.0,8.0,4.0,1.0,6.0,6.0,635.5322320014238,5.0,1.0,phase_2,go,500.0,250.0,1.0,,,,,,,,,blue,hexagon
0.0,8.0,4.0,1.0,5.0,5.0,641.1845750408247,5.0,1.0,phase_2,go,500.0,250.0,1.0,,,,,,,,,blue,hexagon
0.0,5.0,1.0,1.0,5.0,5.0,369.3458769703284,5.0,1.0,phase_2,go,500.0,250.0,1.0,,,,,,,,,orange,flipped triangle
0.0,4.0,4.0,0.0,5.0,5.0,432.9346430022269,5.0,1.0,phase_2,go,500.0,250.0,1.0,,,,,,,,,cyan,cross
0.0,4.0,4.0,0.0,6.0,6.0,343.8484529033303,5.0,1.0,phase_2,go,500.0,250.0,1.0,,,,,,,,,cyan,cross
0.0,8.0,4.0,1.0,6.0,0.0,0.0,5.0,1.0,phase_2,stop,500.0,250.0,4.0,,,,,,,,,blue,hexagon
0.0,7.0,3.0,1.0,5.0,5.0,614.2983570462093,5.0,1.0,phase_2,stop,500.0,300.0,3.0,,,,,,,,,yellow,triangle
0.0,3.0,3.0,0.0,5.0,5.0,494.5823079906404,5.0,1.0,phase_2,go,450.0,300.0,1.0,,,,,,,,,magenta,circle
0.0,6.0,2.0,1.0,6.0,0.0,0.0,5.0,1.0,phase_2,stop,450.0,300.0,4.0,,,,,,,,,gray,diamond
0.0,8.0,4.0,1.0,6.0,0.0,0.0,5.0,1.0,phase_2,stop,450.0,350.0,4.0,,,,,,,,,blue,hexagon
0.0,5.0,1.0,1.0,6.0,0.0,0.0,5.0,1.0,phase_2,stop,450.0,400.0,4.0,,,,,,,,,orange,flipped triangle
0.0,4.0,4.0,0.0,5.0,5.0,443.3129410026595,5.0,1.0,phase_2,go,450.0,450.0,1.0,,,,,,,,,cyan,cross
0.0,2.0,2.0,0.0,6.0,6.0,508.87808995321393,5.0,1.0,phase_2,go,450.0,450.0,1.0,,,,,,,,,white,square
0.0,6.0,2.0,1.0,5.0,0.0,0.0,5.0,1.0,phase_2,stop,450.0,450.0,4.0,,,,,,,,,gray,diamond
0.0,8.0,4.0,1.0,6.0,0.0,0.0,5.0,1.0,phase_2,stop,500.0,450.0,4.0,,,,,,,,,blue,hexagon
0.0,2.0,2.0,0.0,6.0,6.0,585.4030029149726,5.0,1.0,phase_2,go,500.0,500.0,1.0,,,,,,,,,white,square
0.0,3.0,3.0,0.0,5.0,5.0,498.1938899727538,5.0,1.0,phase_2,go,500.0,500.0,1.0,,,,,,,,,magenta,circle
0.0,7.0,3.0,1.0,5.0,5.0,614.3943220376968,5.0,1.0,phase_2,stop,500.0,500.0,3.0,,,,,,,,,yellow,triangle
0.0,7.0,3.0,1.0,6.0,6.0,520.8852019859478,5.0,1.0,phase_2,stop,450.0,500.0,3.0,,,,,,,,,yellow,triangle
0.0,2.0,2.0,0.0,5.0,5.0,573.2703880639747,5.0,1.0,phase_2,go,450.0,450.0,1.0,,,,,,,,,white,square
0.0,4.0,4.0,0.0,6.0,6.0,535.734953940846,5.0,1.0,phase_2,go,450.0,450.0,1.0,,,,,,,,,cyan,cross
0.0,1.0,1.0,0.0,6.0,6.0,484.2787659727037,5.0,1.0,phase_2,go,450.0,450.0,1.0,,,,,,,,,green,I
0.0,7.0,3.0,1.0,6.0,6.0,365.7669549575075,5.0,1.0,phase_2,go,450.0,450.0,1.0,,,,,,,,,yellow,triangle
0.0,7.0,3.0,1.0,6.0,6.0,507.8076960053295,6.0,1.0,phase_2,stop,450.0,450.0,3.0,,,,,,,,,yellow,triangle
0.0,3.0,3.0,0.0,5.0,5.0,314.6699731005355,6.0,1.0,phase_2,go,450.0,400.0,1.0,,,,,,,,,magenta,circle
0.0,5.0,1.0,1.0,5.0,5.0,336.6723189828917,6.0,1.0,phase_2,stop,450.0,400.0,3.0,,,,,,,,,orange,flipped triangle
0.0,7.0,3.0,1.0,6.0,0.0,0.0,6.0,1.0,phase_2,stop,400.0,400.0,4.0,,,,,,,,,yellow,triangle
0.0,6.0,2.0,1.0,5.0,5.0,791.220412007533,6.0,1.0,phase_2,go,400.0,450.0,1.0,,,,,,,,,gray,diamond
0.0,2.0,2.0,0.0,5.0,5.0,398.2665570219978,6.0,1.0,phase_2,go,400.0,450.0,1.0,,,,,,,,,white,square
0.0,7.0,3.0,1.0,5.0,0.0,0.0,6.0,1.0,phase_2,stop,400.0,450.0,4.0,,,,,,,,,yellow,triangle
0.0,2.0,2.0,0.0,5.0,5.0,543.8253750326112,6.0,1.0,phase_2,go,450.0,450.0,1.0,,,,,,,,,white,square
0.0,2.0,2.0,0.0,6.0,6.0,605.351620935835,6.0,1.0,phase_2,go,450.0,450.0,1.0,,,,,,,,,white,square
0.0,7.0,3.0,1.0,6.0,6.0,853.1076830113307,6.0,1.0,phase_2,go,450.0,450.0,1.0,,,,,,,,,yellow,triangle
0.0,6.0,2.0,1.0,5.0,5.0,863.4020810713992,6.0,1.0,phase_2,go,450.0,450.0,1.0,,,,,,,,,gray,diamond
0.0,5.0,1.0,1.0,6.0,6.0,587.214938015677,6.0,1.0,phase_2,stop,450.0,450.0,3.0,,,,,,,,,orange,flipped triangle
0.0,5.0,1.0,1.0,6.0,0.0,0.0,6.0,1.0,phase_2,stop,450.0,400.0,4.0,,,,,,,,,orange,flipped triangle
0.0,3.0,3.0,0.0,5.0,5.0,482.0467201061547,6.0,1.0,phase_2,go,450.0,450.0,1.0,,,,,,,,,magenta,circle
0.0,2.0,2.0,0.0,5.0,5.0,740.668331971392,6.0,1.0,phase_2,go,450.0,450.0,1.0,,,,,,,,,white,square
0.0,2.0,2.0,0.0,6.0,6.0,482.916989014484,6.0,1.0,phase_2,go,450.0,450.0,1.0,,,,,,,,,white,square
0.0,3.0,3.0,0.0,5.0,5.0,328.0757849570364,6.0,1.0,phase_2,go,450.0,450.0,1.0,,,,,,,,,magenta,circle
0.0,2.0,2.0,0.0,5.0,5.0,634.3409779947251,6.0,1.0,phase_2,go,450.0,450.0,1.0,,,,,,,,,white,square
0.0,6.0,2.0,1.0,5.0,5.0,335.5924440547824,6.0,1.0,phase_2,stop,450.0,450.0,3.0,,,,,,,,,gray,diamond
0.0,5.0,1.0,1.0,6.0,6.0,834.9468500819057,6.0,1.0,phase_2,go,400.0,450.0,1.0,,,,,,,,,orange,flipped triangle
0.0,1.0,1.0,0.0,5.0,5.0,486.2297049257904,6.0,1.0,phase_2,go,400.0,450.0,1.0,,,,,,,,,green,I
0.0,1.0,1.0,0.0,5.0,5.0,471.0263579618186,6.0,1.0,phase_2,go,400.0,450.0,1.0,,,,,,,,,green,I
0.0,6.0,2.0,1.0,6.0,6.0,606.1341989552602,6.0,1.0,phase_2,go,400.0,450.0,1.0,,,,,,,,,gray,diamond
0.0,4.0,4.0,0.0,5.0,5.0,448.341506998986,6.0,1.0,phase_2,go,400.0,450.0,1.0,,,,,,,,,cyan,cross
0.0,6.0,2.0,1.0,5.0,0.0,0.0,6.0,1.0,phase_2,stop,400.0,450.0,4.0,,,,,,,,,gray,diamond
0.0,1.0,1.0,0.0,6.0,6.0,555.4158899467438,6.0,1.0,phase_2,go,450.0,450.0,1.0,,,,,,,,,green,I
0.0,7.0,3.0,1.0,5.0,5.0,564.2212319653481,6.0,1.0,phase_2,stop,450.0,450.0,3.0,,,,,,,,,yellow,triangle
0.0,7.0,3.0,1.0,6.0,0.0,0.0,6.0,1.0,phase_2,stop,400.0,450.0,4.0,,,,,,,,,yellow,triangle
0.0,6.0,2.0,1.0,5.0,5.0,765.1375710265711,6.0,1.0,phase_2,go,400.0,500.0,1.0,,,,,,,,,gray,diamond
0.0,3.0,3.0,0.0,6.0,6.0,469.0854860236868,6.0,1.0,phase_2,go,400.0,500.0,1.0,,,,,,,,,magenta,circle
0.0,2.0,2.0,0.0,5.0,5.0,587.9849559860304,6.0,1.0,phase_2,go,400.0,500.0,1.0,,,,,,,,,white,square
0.0,1.0,1.0,0.0,5.0,5.0,426.3854210730642,6.0,1.0,phase_2,go,400.0,500.0,1.0,,,,,,,,,green,I
0.0,7.0,3.0,1.0,6.0,0.0,0.0,6.0,1.0,phase_2,stop,400.0,500.0,4.0,,,,,,,,,yellow,triangle
0.0,7.0,3.0,1.0,6.0,6.0,922.3573789931834,6.0,1.0,phase_2,go,400.0,550.0,1.0,,,,,,,,,yellow,triangle
0.0,2.0,2.0,0.0,6.0,6.0,393.1831270456314,6.0,1.0,phase_2,go,400.0,550.0,1.0,,,,,,,,,white,square
0.0,4.0,4.0,0.0,6.0,6.0,335.3009619750082,6.0,1.0,phase_2,go,400.0,550.0,1.0,,,,,,,,,cyan,cross
0.0,8.0,4.0,1.0,6.0,6.0,436.7304050829261,7.0,1.0,phase_2,stop,400.0,550.0,3.0,,,,,,,,,blue,hexagon
0.0,3.0,3.0,0.0,5.0,5.0,458.6394929792732,7.0,1.0,phase_2,go,400.0,500.0,1.0,,,,,,,,,magenta,circle
0.0,7.0,3.0,1.0,5.0,5.0,348.4907139791176,7.0,1.0,phase_2,stop,400.0,500.0,3.0,,,,,,,,,yellow,triangle
0.0,7.0,3.0,1.0,6.0,6.0,636.7182319518179,7.0,1.0,phase_2,go,350.0,500.0,1.0,,,,,,,,,yellow,triangle
0.0,1.0,1.0,0.0,6.0,6.0,506.9347630487755,7.0,1.0,phase_2,go,350.0,500.0,1.0,,,,,,,,,green,I
0.0,8.0,4.0,1.0,6.0,6.0,490.264478023164,7.0,1.0,phase_2,stop,350.0,500.0,3.0,,,,,,,,,blue,hexagon
0.0,2.0,2.0,0.0,5.0,5.0,498.0167740723118,7.0,1.0,phase_2,go,350.0,450.0,1.0,,,,,,,,,white,square
0.0,4.0,4.0,0.0,5.0,5.0,443.4101319639012,7.0,1.0,phase_2,go,350.0,450.0,1.0,,,,,,,,,cyan,cross
0.0,1.0,1.0,0.0,6.0,6.0,480.3609580267221,7.0,1.0,phase_2,go,350.0,450.0,1.0,,,,,,,,,green,I
0.0,6.0,2.0,1.0,6.0,0.0,0.0,7.0,1.0,phase_2,stop,350.0,450.0,4.0,,,,,,,,,gray,diamond
0.0,5.0,1.0,1.0,6.0,6.0,752.7797390939668,7.0,1.0,phase_2,go,350.0,500.0,1.0,,,,,,,,,orange,flipped triangle
0.0,8.0,4.0,1.0,5.0,5.0,758.9278599480167,7.0,1.0,phase_2,go,350.0,500.0,1.0,,,,,,,,,blue,hexagon
0.0,3.0,3.0,0.0,5.0,5.0,422.9396979790181,7.0,1.0,phase_2,go,350.0,500.0,1.0,,,,,,,,,magenta,circle
0.0,5.0,1.0,1.0,5.0,5.0,302.7877510758117,7.0,1.0,phase_2,stop,350.0,500.0,3.0,,,,,,,,,orange,flipped triangle
0.0,3.0,3.0,0.0,6.0,6.0,467.5830109044909,7.0,1.0,phase_2,go,300.0,500.0,1.0,,,,,,,,,magenta,circle
0.0,5.0,1.0,1.0,5.0,0.0,0.0,7.0,1.0,phase_2,stop,300.0,500.0,4.0,,,,,,,,,orange,flipped triangle
0.0,3.0,3.0,0.0,6.0,6.0,410.8935240656137,7.0,1.0,phase_2,go,350.0,500.0,1.0,,,,,,,,,magenta,circle
0.0,5.0,1.0,1.0,6.0,0.0,0.0,7.0,1.0,phase_2,stop,350.0,500.0,4.0,,,,,,,,,orange,flipped triangle
0.0,3.0,3.0,0.0,5.0,5.0,481.6832209471613,7.0,1.0,phase_2,go,350.0,550.0,1.0,,,,,,,,,magenta,circle
0.0,7.0,3.0,1.0,6.0,0.0,0.0,7.0,1.0,phase_2,stop,350.0,550.0,4.0,,,,,,,,,yellow,triangle
0.0,5.0,1.0,1.0,6.0,6.0,976.5896149910986,7.0,1.0,phase_2,go,350.0,600.0,1.0,,,,,,,,,orange,flipped triangle
0.0,8.0,4.0,1.0,6.0,0.0,0.0,7.0,1.0,phase_2,stop,350.0,600.0,4.0,,,,,,,,,blue,hexagon
0.0,4.0,4.0,0.0,5.0,5.0,464.39851494506,7.0,1.0,phase_2,go,350.0,650.0,1.0,,,,,,,,,cyan,cross
0.0,4.0,4.0,0.0,6.0,6.0,520.6330260261893,7.0,1.0,phase_2,go,350.0,650.0,1.0,,,,,,,,,cyan,cross
0.0,1.0,1.0,0.0,5.0,5.0,552.8276489349082,7.0,1.0,phase_2,go,350.0,650.0,1.0,,,,,,,,,green,I
0.0,6.0,2.0,1.0,5.0,0.0,0.0,7.0,1.0,phase_2,stop,350.0,650.0,4.0,,,,,,,,,gray,diamond
0.0,8.0,4.0,1.0,5.0,5.0,750.6234720349312,7.0,1.0,phase_2,go,400.0,650.0,1.0,,,,,,,,,blue,hexagon
0.0,4.0,4.0,0.0,5.0,5.0,308.2273389445618,7.0,1.0,phase_2,go,400.0,650.0,1.0,,,,,,,,,cyan,cross
0.0,8.0,4.0,1.0,5.0,0.0,0.0,7.0,1.0,phase_2,stop,400.0,650.0,4.0,,,,,,,,,blue,hexagon
0.0,7.0,3.0,1.0,6.0,6.0,358.0442229285836,7.0,1.0,phase_2,stop,450.0,650.0,3.0,,,,,,,,,yellow,triangle
0.0,2.0,2.0,0.0,6.0,6.0,571.5186949819326,7.0,1.0,phase_2,go,450.0,600.0,1.0,,,,,,,,,white,square
0.0,1.0,1.0,0.0,6.0,6.0,523.8081030547619,7.0,1.0,phase_2,go,450.0,600.0,1.0,,,,,,,,,green,I
0.0,8.0,4.0,1.0,5.0,0.0,0.0,7.0,1.0,phase_2,stop,450.0,600.0,4.0,,,,,,,,,blue,hexagon
0.0,6.0,2.0,1.0,5.0,5.0,681.7067930242047,7.0,1.0,phase_2,go,500.0,600.0,1.0,,,,,,,,,gray,diamond
0.0,5.0,1.0,1.0,5.0,0.0,0.0,7.0,1.0,phase_2,stop,500.0,600.0,4.0,,,,,,,,,orange,flipped triangle
0.0,6.0,2.0,1.0,6.0,6.0,617.9795359494165,7.0,1.0,phase_2,stop,550.0,600.0,3.0,,,,,,,,,gray,diamond
0.0,5.0,1.0,1.0,6.0,6.0,483.5057120071724,8.0,1.0,phase_2,stop,550.0,550.0,3.0,,,,,,,,,orange,flipped triangle
0.0,2.0,2.0,0.0,5.0,5.0,475.5726529983803,8.0,1.0,phase_2,go,550.0,500.0,1.0,,,,,,,,,white,square
0.0,8.0,4.0,1.0,5.0,5.0,675.2503491006792,8.0,1.0,phase_2,go,550.0,500.0,1.0,,,,,,,,,blue,hexagon
0.0,8.0,4.0,1.0,5.0,5.0,600.1122160814703,8.0,1.0,phase_2,stop,550.0,500.0,3.0,,,,,,,,,blue,hexagon
0.0,8.0,4.0,1.0,6.0,6.0,570.9061439847574,8.0,1.0,phase_2,stop,500.0,500.0,3.0,,,,,,,,,blue,hexagon
0.0,3.0,3.0,0.0,5.0,5.0,455.2955880062654,8.0,1.0,phase_2,go,500.0,450.0,1.0,,,,,,,,,magenta,circle
0.0,8.0,4.0,1.0,5.0,0.0,0.0,8.0,1.0,phase_2,stop,500.0,450.0,4.0,,,,,,,,,blue,hexagon
0.0,4.0,4.0,0.0,5.0,5.0,536.3560629775748,8.0,1.0,phase_2,go,550.0,450.0,1.0,,,,,,,,,cyan,cross
0.0,3.0,3.0,0.0,5.0,5.0,630.2388830808923,8.0,1.0,phase_2,go,550.0,450.0,1.0,,,,,,,,,magenta,circle
0.0,7.0,3.0,1.0,6.0,0.0,0.0,8.0,1.0,phase_2,stop,550.0,450.0,4.0,,,,,,,,,yellow,triangle
0.0,5.0,1.0,1.0,6.0,0.0,0.0,8.0,1.0,phase_2,stop,550.0,500.0,4.0,,,,,,,,,orange,flipped triangle
0.0,6.0,2.0,1.0,5.0,5.0,676.4075789833441,8.0,1.0,phase_2,go,550.0,550.0,1.0,,,,,,,,,gray,diamond
0.0,4.0,4.0,0.0,6.0,6.0,806.5921670058742,8.0,1.0,phase_2,go,550.0,550.0,1.0,,,,,,,,,cyan,cross
0.0,5.0,1.0,1.0,6.0,0.0,0.0,8.0,1.0,phase_2,stop,550.0,550.0,4.0,,,,,,,,,orange,flipped triangle
0.0,7.0,3.0,1.0,5.0,5.0,675.1912330510095,8.0,1.0,phase_2,stop,550.0,600.0,3.0,,,,,,,,,yellow,triangle
0.0,2.0,2.0,0.0,5.0,5.0,949.8397629940882,8.0,1.0,phase_2,go,500.0,600.0,1.0,,,,,,,,,white,square
0.0,4.0,4.0,0.0,6.0,6.0,763.4884408907965,8.0,1.0,phase_2,go,500.0,600.0,1.0,,,,,,,,,cyan,cross
0.0,1.0,1.0,0.0,5.0,5.0,576.3614360475913,8.0,1.0,phase_2,go,500.0,600.0,1.0,,,,,,,,,green,I
0.0,8.0,4.0,1.0,5.0,0.0,0.0,8.0,1.0,phase_2,stop,500.0,600.0,4.0,,,,,,,,,blue,hexagon
0.0,7.0,3.0,1.0,5.0,5.0,784.668956999667,8.0,1.0,phase_2,go,550.0,600.0,1.0,,,,,,,,,yellow,triangle
0.0,1.0,1.0,0.0,6.0,6.0,736.4212760003284,8.0,1.0,phase_2,go,550.0,600.0,1.0,,,,,,,,,green,I
0.0,2.0,2.0,0.0,5.0,5.0,647.1092090941966,8.0,1.0,phase_2,go,550.0,600.0,1.0,,,,,,,,,white,square
0.0,1.0,1.0,0.0,6.0,6.0,488.4728860342875,8.0,1.0,phase_2,go,550.0,600.0,1.0,,,,,,,,,green,I
0.0,2.0,2.0,0.0,6.0,6.0,369.5380190620199,8.0,1.0,phase_2,go,550.0,600.0,1.0,,,,,,,,,white,square
0.0,3.0,3.0,0.0,5.0,5.0,548.8399360328913,8.0,1.0,phase_2,go,550.0,600.0,1.0,,,,,,,,,magenta,circle
0.0,1.0,1.0,0.0,6.0,6.0,453.3440649975091,8.0,1.0,phase_2,go,550.0,600.0,1.0,,,,,,,,,green,I
0.0,5.0,1.0,1.0,6.0,6.0,772.3242429783568,8.0,1.0,phase_2,go,550.0,600.0,1.0,,,,,,,,,orange,flipped triangle
0.0,5.0,1.0,1.0,6.0,6.0,315.9974690061062,8.0,1.0,phase_2,stop,550.0,600.0,3.0,,,,,,,,,orange,flipped triangle
0.0,1.0,1.0,0.0,5.0,5.0,476.835727924481,8.0,1.0,phase_2,go,550.0,550.0,1.0,,,,,,,,,green,I
0.0,8.0,4.0,1.0,6.0,0.0,0.0,8.0,1.0,phase_2,stop,550.0,550.0,4.0,,,,,,,,,blue,hexagon
0.0,1.0,1.0,0.0,6.0,6.0,514.1664689872414,8.0,1.0,phase_2,go,550.0,600.0,1.0,,,,,,,,,green,I
0.0,1.0,1.0,0.0,5.0,5.0,532.0373240392655,8.0,1.0,phase_2,go,550.0,600.0,1.0,,,,,,,,,green,I
0.0,4.0,4.0,0.0,5.0,5.0,472.4011799553409,8.0,1.0,phase_2,go,550.0,600.0,1.0,,,,,,,,,cyan,cross
0.0,8.0,4.0,1.0,6.0,0.0,0.0,8.0,1.0,phase_2,stop,550.0,600.0,4.0,,,,,,,,,blue,hexagon
0.0,1.0,1.0,0.0,6.0,6.0,345.9050089586526,8.0,1.0,phase_2,go,550.0,650.0,1.0,,,,,,,,,green,I
0.0,5.0,1.0,1.0,5.0,5.0,793.8620620407164,8.0,1.0,phase_2,go,550.0,650.0,1.0,,,,,,,,,orange,flipped triangle
0.0,6.0,2.0,1.0,7.0,5.0,2607.7574159717187,1.0,1.0,phase_3,,,,,108.0,2.0,216.0,324.0,270.0,54.0,108.0,162.0,gray,diamond
0.0,2.0,2.0,0.0,7.0,3.0,1837.1460769558323,1.0,1.0,phase_3,,,,,170.0,5.0,68.0,34.0,170.0,136.0,102.0,204.0,white,square
0.0,7.0,3.0,1.0,7.0,4.0,1277.7868860866874,1.0,1.0,phase_3,,,,,216.0,4.0,270.0,162.0,54.0,216.0,108.0,324.0,yellow,triangle
0.0,4.0,4.0,0.0,7.0,5.0,1196.0328159620983,1.0,1.0,phase_3,,,,,220.0,5.0,132.0,264.0,44.0,88.0,220.0,176.0,cyan,cross
0.0,1.0,1.0,0.0,7.0,2.0,1589.2702419077978,1.0,1.0,phase_3,,,,,136.0,4.0,102.0,136.0,170.0,68.0,34.0,204.0,green,I
0.0,3.0,3.0,0.0,7.0,1.0,1446.9115460524336,1.0,1.0,phase_3,,,,,147.0,3.0,147.0,98.0,294.0,49.0,245.0,196.0,magenta,circle
0.0,4.0,4.0,0.0,7.0,3.0,867.2564210137352,1.0,1.0,phase_3,,,,,324.0,6.0,108.0,216.0,324.0,162.0,54.0,270.0,cyan,cross
0.0,6.0,2.0,1.0,7.0,3.0,1066.6898150229829,1.0,1.0,phase_3,,,,,78.0,2.0,39.0,195.0,78.0,156.0,234.0,117.0,gray,diamond
0.0,3.0,3.0,0.0,7.0,5.0,810.7124670641497,1.0,1.0,phase_3,,,,,147.0,3.0,245.0,49.0,196.0,98.0,147.0,294.0,magenta,circle
0.0,6.0,2.0,1.0,7.0,2.0,910.5355030624196,1.0,1.0,phase_3,,,,,170.0,5.0,68.0,170.0,102.0,204.0,136.0,34.0,gray,diamond
0.0,1.0,1.0,0.0,7.0,1.0,1375.9555410360915,1.0,1.0,phase_3,,,,,216.0,4.0,216.0,162.0,270.0,54.0,324.0,108.0,green,I
0.0,5.0,1.0,1.0,7.0,2.0,1978.4875189652664,1.0,1.0,phase_3,,,,,98.0,2.0,245.0,98.0,196.0,147.0,49.0,294.0,orange,flipped triangle
0.0,2.0,2.0,0.0,7.0,3.0,1385.7238319469616,1.0,1.0,phase_3,,,,,98.0,2.0,245.0,196.0,98.0,147.0,49.0,294.0,white,square
0.0,7.0,3.0,1.0,7.0,3.0,1644.417852978222,1.0,1.0,phase_3,,,,,147.0,3.0,245.0,49.0,147.0,196.0,294.0,98.0,yellow,triangle
0.0,8.0,4.0,1.0,7.0,3.0,1996.899930993095,1.0,1.0,phase_3,,,,,156.0,4.0,234.0,195.0,156.0,117.0,39.0,78.0,blue,hexagon
0.0,5.0,1.0,1.0,7.0,4.0,2598.9596229046583,1.0,1.0,phase_3,,,,,147.0,3.0,294.0,98.0,245.0,147.0,49.0,196.0,orange,flipped triangle
0.0,7.0,3.0,1.0,7.0,2.0,1944.6778189158067,1.0,1.0,phase_3,,,,,156.0,4.0,78.0,156.0,39.0,195.0,234.0,117.0,yellow,triangle
0.0,4.0,4.0,0.0,7.0,3.0,1158.7981500197202,1.0,1.0,phase_3,,,,,324.0,6.0,54.0,108.0,324.0,270.0,216.0,162.0,cyan,cross
0.0,6.0,2.0,1.0,7.0,2.0,945.3772719716652,1.0,1.0,phase_3,,,,,88.0,2.0,220.0,88.0,44.0,176.0,264.0,132.0,gray,diamond
0.0,1.0,1.0,0.0,7.0,4.0,2244.892080081627,1.0,1.0,phase_3,,,,,196.0,4.0,294.0,245.0,49.0,196.0,98.0,147.0,green,I
0.0,4.0,4.0,0.0,7.0,2.0,1112.0856299530717,2.0,1.0,phase_3,,,,,245.0,5.0,49.0,245.0,147.0,196.0,98.0,294.0,cyan,cross
0.0,1.0,1.0,0.0,7.0,2.0,2412.5718839932238,2.0,1.0,phase_3,,,,,176.0,4.0,44.0,176.0,132.0,264.0,88.0,220.0,green,I
0.0,5.0,1.0,1.0,7.0,1.0,1651.9627310335636,2.0,1.0,phase_3,,,,,68.0,2.0,68.0,170.0,136.0,34.0,102.0,204.0,orange,flipped triangle
0.0,7.0,3.0,1.0,7.0,2.0,2515.4366780770943,2.0,1.0,phase_3,,,,,147.0,3.0,245.0,147.0,49.0,196.0,294.0,98.0,yellow,triangle
0.0,3.0,3.0,0.0,7.0,5.0,2599.9350120546296,2.0,1.0,phase_3,,,,,132.0,3.0,88.0,264.0,220.0,44.0,132.0,176.0,magenta,circle
0.0,4.0,4.0,0.0,7.0,2.0,2134.535012068227,2.0,1.0,phase_3,,,,,195.0,5.0,78.0,195.0,156.0,39.0,117.0,234.0,cyan,cross
0.0,4.0,4.0,0.0,7.0,3.0,2626.185609959066,2.0,1.0,phase_3,,,,,245.0,5.0,98.0,147.0,245.0,196.0,294.0,49.0,cyan,cross
0.0,8.0,4.0,1.0,7.0,3.0,2328.5253209760413,2.0,1.0,phase_3,,,,,196.0,4.0,147.0,98.0,196.0,49.0,245.0,294.0,blue,hexagon
0.0,3.0,3.0,0.0,7.0,4.0,2206.16214198526,2.0,1.0,phase_3,,,,,34.0,1.0,68.0,204.0,136.0,34.0,102.0,170.0,magenta,circle
0.0,1.0,1.0,0.0,7.0,5.0,2211.6801380179822,2.0,1.0,phase_3,,,,,216.0,4.0,324.0,54.0,162.0,108.0,216.0,270.0,green,I
0.0,3.0,3.0,0.0,7.0,6.0,3477.1215789951384,2.0,1.0,phase_3,,,,,132.0,3.0,44.0,88.0,220.0,264.0,176.0,132.0,magenta,circle
0.0,5.0,1.0,1.0,7.0,1.0,3680.871922988445,2.0,1.0,phase_3,,,,,162.0,3.0,162.0,54.0,324.0,216.0,270.0,108.0,orange,flipped triangle
0.0,4.0,4.0,0.0,7.0,1.0,1688.5708590270951,2.0,1.0,phase_3,,,,,204.0,6.0,204.0,68.0,102.0,170.0,34.0,136.0,cyan,cross
0.0,3.0,3.0,0.0,7.0,6.0,2937.4797240598127,2.0,1.0,phase_3,,,,,117.0,3.0,195.0,78.0,156.0,39.0,234.0,117.0,magenta,circle
0.0,1.0,1.0,0.0,7.0,1.0,3173.555434914306,2.0,1.0,phase_3,,,,,204.0,6.0,204.0,170.0,102.0,34.0,136.0,68.0,green,I
0.0,3.0,3.0,0.0,7.0,5.0,2196.434084908105,2.0,1.0,phase_3,,,,,108.0,2.0,216.0,270.0,54.0,162.0,108.0,324.0,magenta,circle
0.0,6.0,2.0,1.0,7.0,1.0,1492.7915710723028,2.0,1.0,phase_3,,,,,54.0,1.0,54.0,324.0,108.0,216.0,270.0,162.0,gray,diamond
0.0,8.0,4.0,1.0,7.0,5.0,3242.058608913794,2.0,1.0,phase_3,,,,,216.0,4.0,108.0,324.0,270.0,54.0,216.0,162.0,blue,hexagon
0.0,4.0,4.0,0.0,7.0,6.0,1266.4270249661058,2.0,1.0,phase_3,,,,,204.0,6.0,34.0,136.0,102.0,170.0,68.0,204.0,cyan,cross
0.0,1.0,1.0,0.0,7.0,4.0,2612.203945987858,2.0,1.0,phase_3,,,,,220.0,5.0,264.0,88.0,44.0,220.0,132.0,176.0,green,I
0.0,7.0,3.0,1.0,7.0,6.0,2533.4928850643337,3.0,1.0,phase_3,,,,,108.0,2.0,162.0,324.0,270.0,54.0,216.0,108.0,yellow,triangle
0.0,2.0,2.0,0.0,7.0,5.0,1439.9535320699215,3.0,1.0,phase_3,,,,,156.0,4.0,234.0,78.0,117.0,39.0,156.0,195.0,white,square
0.0,2.0,2.0,0.0,7.0,6.0,1536.4825170254337,3.0,1.0,phase_3,,,,,136.0,4.0,34.0,204.0,170.0,102.0,68.0,136.0,white,square
0.0,4.0,4.0,0.0,7.0,6.0,1852.8877570061013,3.0,1.0,phase_3,,,,,195.0,5.0,156.0,234.0,117.0,78.0,39.0,195.0,cyan,cross
0.0,6.0,2.0,1.0,7.0,4.0,2581.673098029569,3.0,1.0,phase_3,,,,,78.0,2.0,156.0,117.0,195.0,78.0,39.0,234.0,gray,diamond
0.0,8.0,4.0,1.0,7.0,3.0,1901.3169649988413,3.0,1.0,phase_3,,,,,132.0,3.0,44.0,264.0,132.0,220.0,88.0,176.0,blue,hexagon
0.0,1.0,1.0,0.0,7.0,5.0,3079.7629839507863,3.0,1.0,phase_3,,,,,195.0,5.0,39.0,78.0,234.0,117.0,195.0,156.0,green,I
0.0,8.0,4.0,1.0,7.0,5.0,2658.8283180026338,3.0,1.0,phase_3,,,,,156.0,4.0,195.0,39.0,117.0,78.0,156.0,234.0,blue,hexagon
0.0,1.0,1.0,0.0,7.0,6.0,1480.2642849972472,3.0,1.0,phase_3,,,,,156.0,4.0,234.0,78.0,117.0,195.0,39.0,156.0,green,I
0.0,2.0,2.0,0.0,7.0,5.0,1913.9156399760395,3.0,1.0,phase_3,,,,,132.0,3.0,44.0,176.0,264.0,88.0,132.0,220.0,white,square
0.0,8.0,4.0,1.0,7.0,2.0,1771.6639630962163,3.0,1.0,phase_3,,,,,136.0,4.0,68.0,136.0,204.0,102.0,34.0,170.0,blue,hexagon
0.0,5.0,1.0,1.0,7.0,2.0,2860.849188058637,3.0,1.0,phase_3,,,,,220.0,5.0,264.0,220.0,132.0,88.0,44.0,176.0,orange,flipped triangle
0.0,8.0,4.0,1.0,7.0,5.0,937.4726361129432,3.0,1.0,phase_3,,,,,176.0,4.0,132.0,264.0,220.0,88.0,176.0,44.0,blue,hexagon
0.0,4.0,4.0,0.0,7.0,5.0,3003.099046996794,3.0,1.0,phase_3,,,,,264.0,6.0,176.0,88.0,220.0,44.0,264.0,132.0,cyan,cross
0.0,2.0,2.0,0.0,7.0,5.0,2355.401839944534,3.0,1.0,phase_3,,,,,132.0,3.0,264.0,176.0,88.0,220.0,132.0,44.0,white,square
0.0,2.0,2.0,0.0,7.0,3.0,1619.9658020632342,3.0,1.0,phase_3,,,,,147.0,3.0,245.0,294.0,147.0,196.0,49.0,98.0,white,square
0.0,8.0,4.0,1.0,7.0,3.0,2358.1002090359107,3.0,1.0,phase_3,,,,,147.0,3.0,294.0,196.0,147.0,49.0,98.0,245.0,blue,hexagon
0.0,3.0,3.0,0.0,7.0,5.0,1344.8312809923664,3.0,1.0,phase_3,,,,,108.0,2.0,324.0,270.0,54.0,216.0,108.0,162.0,magenta,circle
0.0,5.0,1.0,1.0,7.0,3.0,1998.757228953764,3.0,1.0,phase_3,,,,,176.0,4.0,44.0,220.0,176.0,88.0,264.0,132.0,orange,flipped triangle
0.0,2.0,2.0,0.0,7.0,3.0,3263.424582080916,3.0,1.0,phase_3,,,,,162.0,3.0,54.0,324.0,162.0,216.0,270.0,108.0,white,square
0.0,6.0,2.0,1.0,7.0,4.0,2012.8780599916354,4.0,1.0,phase_3,,,,,44.0,1.0,220.0,132.0,176.0,44.0,264.0,88.0,gray,diamond
0.0,5.0,1.0,1.0,7.0,1.0,3079.38636909239,4.0,1.0,phase_3,,,,,117.0,3.0,117.0,156.0,234.0,78.0,39.0,195.0,orange,flipped triangle
0.0,3.0,3.0,0.0,7.0,4.0,4955.151006928645,4.0,1.0,phase_3,,,,,195.0,5.0,117.0,156.0,78.0,195.0,39.0,234.0,magenta,circle
0.0,7.0,3.0,1.0,7.0,4.0,384.825223009102,4.0,2.0,phase_3,,,,,156.0,4.0,195.0,78.0,39.0,156.0,117.0,234.0,yellow,triangle
0.0,2.0,2.0,0.0,7.0,6.0,2402.5894550140947,4.0,1.0,phase_3,,,,,117.0,3.0,78.0,234.0,39.0,195.0,156.0,117.0,white,square
0.0,6.0,2.0,1.0,7.0,6.0,1581.736196996644,4.0,1.0,phase_3,,,,,68.0,2.0,170.0,204.0,136.0,102.0,34.0,68.0,gray,diamond
0.0,2.0,2.0,0.0,7.0,4.0,2788.390453904867,4.0,1.0,phase_3,,,,,162.0,3.0,54.0,108.0,324.0,162.0,270.0,216.0,white,square
0.0,5.0,1.0,1.0,7.0,5.0,1865.2291219914327,4.0,1.0,phase_3,,,,,162.0,3.0,54.0,324.0,270.0,108.0,162.0,216.0,orange,flipped triangle
0.0,7.0,3.0,1.0,7.0,6.0,1817.714427015744,4.0,1.0,phase_3,,,,,176.0,4.0,44.0,132.0,220.0,264.0,88.0,176.0,yellow,triangle
0.0,7.0,3.0,1.0,7.0,2.0,2120.9200769662857,4.0,1.0,phase_3,,,,,136.0,4.0,170.0,136.0,102.0,34.0,204.0,68.0,yellow,triangle
0.0,5.0,1.0,1.0,7.0,4.0,3860.295017017052,4.0,1.0,phase_3,,,,,156.0,4.0,117.0,78.0,234.0,156.0,39.0,195.0,orange,flipped triangle
0.0,8.0,4.0,1.0,7.0,5.0,2666.5357860038057,4.0,1.0,phase_3,,,,,324.0,6.0,270.0,108.0,54.0,162.0,324.0,216.0,blue,hexagon
0.0,7.0,3.0,1.0,7.0,1.0,3374.998377985321,4.0,1.0,phase_3,,,,,170.0,5.0,170.0,68.0,34.0,136.0,204.0,102.0,yellow,triangle
0.0,3.0,3.0,0.0,7.0,5.0,1728.61313004978,4.0,1.0,phase_3,,,,,136.0,4.0,204.0,102.0,170.0,68.0,136.0,34.0,magenta,circle
0.0,7.0,3.0,1.0,7.0,4.0,2031.208899919875,4.0,1.0,phase_3,,,,,176.0,4.0,44.0,132.0,220.0,176.0,264.0,88.0,yellow,triangle
0.0,8.0,4.0,1.0,7.0,2.0,1602.66115993727,4.0,1.0,phase_3,,,,,170.0,5.0,102.0,170.0,68.0,136.0,204.0,34.0,blue,hexagon
0.0,5.0,1.0,1.0,7.0,5.0,2385.616443003528,4.0,1.0,phase_3,,,,,136.0,4.0,102.0,170.0,68.0,34.0,136.0,204.0,orange,flipped triangle
0.0,6.0,2.0,1.0,7.0,4.0,1309.2197410296649,4.0,1.0,phase_3,,,,,49.0,1.0,196.0,245.0,98.0,49.0,294.0,147.0,gray,diamond
0.0,1.0,1.0,0.0,7.0,3.0,2142.126247053966,4.0,1.0,phase_3,,,,,245.0,5.0,147.0,294.0,245.0,196.0,98.0,49.0,green,I
0.0,6.0,2.0,1.0,7.0,1.0,2429.477169993333,4.0,1.0,phase_3,,,,,196.0,4.0,196.0,245.0,147.0,294.0,98.0,49.0,gray,diamond
