raw_reward_magnitude,stim_reward,stepwise_reward_magnitude,paired_with_stopping,stim_location,response,reaction_time,block,num_trial_presentations,which_phase,stop_signal_trial_type,left_SSD,right_SSD,accuracy,chosen_bidding_amount,chosen_bidding_level,possible_bid_1,possible_bid_2,possible_bid_3,possible_bid_4,possible_bid_5,possible_bid_6,color_text,shape_text
0.0,1.0,0.0,0.0,3.0,3.0,562.5011579832062,1.0,1.0,phase_1,,,,,,,,,,,,,cyan,triangle
181.0,3.0,2.0,0.0,3.0,3.0,508.19058902561665,1.0,1.0,phase_1,,,,,,,,,,,,,orange,diamond
25.0,1.0,0.5,0.0,1.0,1.0,472.4993439158425,1.0,1.0,phase_1,,,,,,,,,,,,,cyan,triangle
61.0,5.0,0.5,1.0,4.0,4.0,439.7886169608682,1.0,1.0,phase_1,,,,,,,,,,,,,white,cross
0.0,6.0,0.0,1.0,4.0,4.0,389.8687319597229,1.0,1.0,phase_1,,,,,,,,,,,,,green,circle
124.0,6.0,1.0,1.0,1.0,1.0,463.0030660191551,1.0,1.0,phase_1,,,,,,,,,,,,,green,circle
381.0,8.0,4.0,1.0,2.0,2.0,447.2370789153501,1.0,1.0,phase_1,,,,,,,,,,,,,yellow,hexagon
208.0,7.0,2.0,1.0,4.0,4.0,409.8392820451408,1.0,1.0,phase_1,,,,,,,,,,,,,blue,flipped triangle
57.0,1.0,0.5,0.0,3.0,3.0,453.9805819513276,1.0,1.0,phase_1,,,,,,,,,,,,,cyan,triangle
82.0,6.0,1.0,1.0,1.0,1.0,298.4723780537024,1.0,1.0,phase_1,,,,,,,,,,,,,green,circle
94.0,6.0,1.0,1.0,2.0,2.0,398.0395259568468,1.0,1.0,phase_1,,,,,,,,,,,,,green,circle
181.0,7.0,2.0,1.0,2.0,2.0,435.5559829855338,1.0,1.0,phase_1,,,,,,,,,,,,,blue,flipped triangle
416.0,4.0,4.0,0.0,1.0,1.0,577.369153033942,1.0,1.0,phase_1,,,,,,,,,,,,,gray,square
90.0,6.0,1.0,1.0,3.0,3.0,548.1909939553589,1.0,1.0,phase_1,,,,,,,,,,,,,green,circle
389.0,4.0,4.0,0.0,2.0,2.0,377.1609250688925,1.0,1.0,phase_1,,,,,,,,,,,,,gray,square
0.0,4.0,0.0,0.0,2.0,2.0,397.4397259298712,1.0,1.0,phase_1,,,,,,,,,,,,,gray,square
0.0,6.0,0.0,1.0,1.0,1.0,426.5794580569491,1.0,1.0,phase_1,,,,,,,,,,,,,green,circle
119.0,6.0,1.0,1.0,1.0,1.0,537.4017930589616,1.0,1.0,phase_1,,,,,,,,,,,,,green,circle
0.0,3.0,0.0,0.0,3.0,3.0,557.7005940722302,1.0,1.0,phase_1,,,,,,,,,,,,,orange,diamond
26.0,5.0,0.5,1.0,1.0,1.0,441.0729249939322,1.0,1.0,phase_1,,,,,,,,,,,,,white,cross
395.0,8.0,4.0,1.0,3.0,3.0,336.4743740530684,1.0,1.0,phase_1,,,,,,,,,,,,,yellow,hexagon
116.0,6.0,1.0,1.0,4.0,4.0,443.4452260611579,1.0,1.0,phase_1,,,,,,,,,,,,,green,circle
104.0,2.0,1.0,0.0,3.0,3.0,423.3376160264015,1.0,1.0,phase_1,,,,,,,,,,,,,magenta,I
46.0,5.0,0.5,1.0,4.0,4.0,397.6982410531491,1.0,1.0,phase_1,,,,,,,,,,,,,white,cross
180.0,7.0,2.0,1.0,4.0,4.0,403.2210499281063,1.0,1.0,phase_1,,,,,,,,,,,,,blue,flipped triangle
77.0,2.0,1.0,0.0,1.0,1.0,501.25013501383364,1.0,1.0,phase_1,,,,,,,,,,,,,magenta,I
0.0,4.0,0.0,0.0,1.0,1.0,459.2957900604233,1.0,1.0,phase_1,,,,,,,,,,,,,gray,square
75.0,5.0,0.5,1.0,2.0,2.0,365.5518220039084,1.0,1.0,phase_1,,,,,,,,,,,,,white,cross
219.0,3.0,2.0,0.0,1.0,1.0,524.6330000227317,1.0,1.0,phase_1,,,,,,,,,,,,,orange,diamond
0.0,1.0,0.0,0.0,4.0,4.0,410.5275550391525,1.0,1.0,phase_1,,,,,,,,,,,,,cyan,triangle
73.0,5.0,0.5,1.0,4.0,4.0,343.9774679718539,1.0,1.0,phase_1,,,,,,,,,,,,,white,cross
387.0,4.0,4.0,0.0,2.0,2.0,473.1504039373249,1.0,1.0,phase_1,,,,,,,,,,,,,gray,square
197.0,7.0,2.0,1.0,1.0,1.0,405.7451809057966,1.0,1.0,phase_1,,,,,,,,,,,,,blue,flipped triangle
124.0,2.0,1.0,0.0,1.0,1.0,417.954612057656,1.0,1.0,phase_1,,,,,,,,,,,,,magenta,I
44.0,1.0,0.5,0.0,3.0,3.0,320.7175859715789,1.0,1.0,phase_1,,,,,,,,,,,,,cyan,triangle
201.0,3.0,2.0,0.0,1.0,1.0,414.9071569554508,1.0,1.0,phase_1,,,,,,,,,,,,,orange,diamond
403.0,8.0,4.0,1.0,1.0,1.0,512.6865539932624,1.0,1.0,phase_1,,,,,,,,,,,,,yellow,hexagon
30.0,1.0,0.5,0.0,2.0,2.0,455.0980009371415,1.0,1.0,phase_1,,,,,,,,,,,,,cyan,triangle
65.0,5.0,0.5,1.0,2.0,2.0,402.692245086655,1.0,1.0,phase_1,,,,,,,,,,,,,white,cross
403.0,4.0,4.0,0.0,4.0,4.0,369.143542018719,1.0,1.0,phase_1,,,,,,,,,,,,,gray,square
38.0,1.0,0.5,0.0,2.0,2.0,388.9588710153475,1.0,1.0,phase_1,,,,,,,,,,,,,cyan,triangle
106.0,2.0,1.0,0.0,4.0,4.0,911.7159011075272,1.0,1.0,phase_1,,,,,,,,,,,,,magenta,I
77.0,6.0,1.0,1.0,4.0,4.0,488.1392900133505,1.0,1.0,phase_1,,,,,,,,,,,,,green,circle
49.0,1.0,0.5,0.0,3.0,3.0,378.902236931026,1.0,1.0,phase_1,,,,,,,,,,,,,cyan,triangle
33.0,5.0,0.5,1.0,3.0,3.0,480.6353020248934,1.0,1.0,phase_1,,,,,,,,,,,,,white,cross
0.0,5.0,0.0,1.0,2.0,2.0,517.0345950173214,1.0,1.0,phase_1,,,,,,,,,,,,,white,cross
41.0,5.0,0.5,1.0,3.0,3.0,503.47266800235957,1.0,1.0,phase_1,,,,,,,,,,,,,white,cross
0.0,4.0,0.0,0.0,2.0,2.0,422.9187370510772,1.0,1.0,phase_1,,,,,,,,,,,,,gray,square
401.0,8.0,4.0,1.0,2.0,2.0,492.2236939892173,1.0,1.0,phase_1,,,,,,,,,,,,,yellow,hexagon
84.0,6.0,1.0,1.0,2.0,2.0,598.0683930683881,1.0,1.0,phase_1,,,,,,,,,,,,,green,circle
62.0,1.0,0.5,0.0,3.0,3.0,573.9553140010685,1.0,1.0,phase_1,,,,,,,,,,,,,cyan,triangle
88.0,6.0,1.0,1.0,3.0,3.0,370.5389889655635,1.0,1.0,phase_1,,,,,,,,,,,,,green,circle
201.0,7.0,2.0,1.0,4.0,4.0,476.2484949314967,1.0,1.0,phase_1,,,,,,,,,,,,,blue,flipped triangle
57.0,5.0,0.5,1.0,1.0,1.0,387.69212202169,1.0,1.0,phase_1,,,,,,,,,,,,,white,cross
376.0,8.0,4.0,1.0,3.0,3.0,400.8352699456736,1.0,1.0,phase_1,,,,,,,,,,,,,yellow,hexagon
193.0,7.0,2.0,1.0,4.0,4.0,468.2876609731465,1.0,1.0,phase_1,,,,,,,,,,,,,blue,flipped triangle
0.0,3.0,0.0,0.0,3.0,3.0,358.9366340311244,1.0,1.0,phase_1,,,,,,,,,,,,,orange,diamond
0.0,1.0,0.0,0.0,3.0,3.0,397.4621180677786,1.0,1.0,phase_1,,,,,,,,,,,,,cyan,triangle
40.0,1.0,0.5,0.0,4.0,4.0,409.7872619749978,1.0,1.0,phase_1,,,,,,,,,,,,,cyan,triangle
74.0,1.0,0.5,0.0,1.0,1.0,478.8612830452621,1.0,1.0,phase_1,,,,,,,,,,,,,cyan,triangle
60.0,5.0,0.5,1.0,3.0,3.0,360.9429670032114,1.0,1.0,phase_1,,,,,,,,,,,,,white,cross
0.0,7.0,0.0,1.0,4.0,4.0,406.1943329870701,1.0,1.0,phase_1,,,,,,,,,,,,,blue,flipped triangle
0.0,2.0,0.0,0.0,4.0,4.0,404.873835039325,1.0,1.0,phase_1,,,,,,,,,,,,,magenta,I
54.0,1.0,0.5,0.0,1.0,1.0,463.3264119038358,1.0,1.0,phase_1,,,,,,,,,,,,,cyan,triangle
0.0,4.0,0.0,0.0,2.0,2.0,595.3764670994133,1.0,1.0,phase_1,,,,,,,,,,,,,gray,square
62.0,5.0,0.5,1.0,4.0,4.0,448.7293440615758,1.0,1.0,phase_1,,,,,,,,,,,,,white,cross
376.0,8.0,4.0,1.0,4.0,4.0,444.8461199644953,1.0,1.0,phase_1,,,,,,,,,,,,,yellow,hexagon
184.0,7.0,2.0,1.0,2.0,2.0,409.1546849813312,1.0,1.0,phase_1,,,,,,,,,,,,,blue,flipped triangle
419.0,4.0,4.0,0.0,1.0,1.0,418.2816409738734,1.0,1.0,phase_1,,,,,,,,,,,,,gray,square
123.0,2.0,1.0,0.0,4.0,4.0,429.9471380654722,1.0,1.0,phase_1,,,,,,,,,,,,,magenta,I
415.0,4.0,4.0,0.0,1.0,1.0,371.4758460409939,1.0,1.0,phase_1,,,,,,,,,,,,,gray,square
0.0,5.0,0.0,1.0,2.0,2.0,373.2750749913975,1.0,1.0,phase_1,,,,,,,,,,,,,white,cross
201.0,7.0,2.0,1.0,3.0,3.0,515.2930619660765,1.0,1.0,phase_1,,,,,,,,,,,,,blue,flipped triangle
184.0,3.0,2.0,0.0,2.0,2.0,535.0673189386725,1.0,1.0,phase_1,,,,,,,,,,,,,orange,diamond
380.0,4.0,4.0,0.0,3.0,3.0,444.5164180360734,1.0,1.0,phase_1,,,,,,,,,,,,,gray,square
73.0,1.0,0.5,0.0,2.0,2.0,529.0074719814584,1.0,1.0,phase_1,,,,,,,,,,,,,cyan,triangle
198.0,7.0,2.0,1.0,4.0,4.0,452.1879059029743,1.0,1.0,phase_1,,,,,,,,,,,,,blue,flipped triangle
114.0,2.0,1.0,0.0,4.0,4.0,516.4066250436008,1.0,1.0,phase_1,,,,,,,,,,,,,magenta,I
224.0,7.0,2.0,1.0,1.0,1.0,360.7134370831772,1.0,1.0,phase_1,,,,,,,,,,,,,blue,flipped triangle
423.0,8.0,4.0,1.0,4.0,4.0,388.7194989947602,1.0,1.0,phase_1,,,,,,,,,,,,,yellow,hexagon
98.0,6.0,1.0,1.0,1.0,1.0,534.5303990179673,1.0,1.0,phase_1,,,,,,,,,,,,,green,circle
0.0,3.0,0.0,0.0,1.0,1.0,517.0318470336497,1.0,1.0,phase_1,,,,,,,,,,,,,orange,diamond
185.0,3.0,2.0,0.0,2.0,2.0,545.5964779248461,1.0,1.0,phase_1,,,,,,,,,,,,,orange,diamond
194.0,3.0,2.0,0.0,3.0,3.0,392.635395983234,1.0,1.0,phase_1,,,,,,,,,,,,,orange,diamond
185.0,7.0,2.0,1.0,1.0,1.0,323.9680770784616,1.0,1.0,phase_1,,,,,,,,,,,,,blue,flipped triangle
0.0,8.0,0.0,1.0,4.0,4.0,431.028309976682,1.0,1.0,phase_1,,,,,,,,,,,,,yellow,hexagon
89.0,6.0,1.0,1.0,1.0,1.0,386.1924220109358,1.0,1.0,phase_1,,,,,,,,,,,,,green,circle
0.0,2.0,0.0,0.0,1.0,1.0,495.0433570193127,1.0,1.0,phase_1,,,,,,,,,,,,,magenta,I
0.0,8.0,0.0,1.0,2.0,2.0,438.8102849479764,1.0,1.0,phase_1,,,,,,,,,,,,,yellow,hexagon
375.0,4.0,4.0,0.0,4.0,4.0,380.562066915445,1.0,1.0,phase_1,,,,,,,,,,,,,gray,square
381.0,4.0,4.0,0.0,3.0,3.0,781.562021933496,1.0,1.0,phase_1,,,,,,,,,,,,,gray,square
381.0,8.0,4.0,1.0,2.0,2.0,465.6239229952916,1.0,1.0,phase_1,,,,,,,,,,,,,yellow,hexagon
0.0,3.0,0.0,0.0,1.0,1.0,294.2856739973649,1.0,1.0,phase_1,,,,,,,,,,,,,orange,diamond
37.0,1.0,0.5,0.0,1.0,1.0,363.6419179383665,1.0,1.0,phase_1,,,,,,,,,,,,,cyan,triangle
0.0,8.0,0.0,1.0,1.0,1.0,433.1178580177948,1.0,1.0,phase_1,,,,,,,,,,,,,yellow,hexagon
113.0,6.0,1.0,1.0,3.0,3.0,333.6151909315958,1.0,1.0,phase_1,,,,,,,,,,,,,green,circle
33.0,1.0,0.5,0.0,3.0,3.0,372.8410110343247,1.0,1.0,phase_1,,,,,,,,,,,,,cyan,triangle
96.0,2.0,1.0,0.0,2.0,2.0,389.5598349627107,1.0,1.0,phase_1,,,,,,,,,,,,,magenta,I
423.0,4.0,4.0,0.0,1.0,1.0,547.5663059623912,1.0,1.0,phase_1,,,,,,,,,,,,,gray,square
37.0,5.0,0.5,1.0,4.0,4.0,329.1702850256115,1.0,1.0,phase_1,,,,,,,,,,,,,white,cross
0.0,8.0,0.0,1.0,1.0,1.0,344.5656660478562,2.0,1.0,phase_1,,,,,,,,,,,,,yellow,hexagon
104.0,6.0,1.0,1.0,4.0,4.0,328.2753470120951,2.0,1.0,phase_1,,,,,,,,,,,,,green,circle
208.0,3.0,2.0,0.0,2.0,2.0,306.8074630573392,2.0,1.0,phase_1,,,,,,,,,,,,,orange,diamond
405.0,8.0,4.0,1.0,2.0,2.0,535.3230169275776,2.0,1.0,phase_1,,,,,,,,,,,,,yellow,hexagon
106.0,2.0,1.0,0.0,2.0,2.0,419.8120549554005,2.0,1.0,phase_1,,,,,,,,,,,,,magenta,I
206.0,3.0,2.0,0.0,1.0,1.0,299.250851967372,2.0,1.0,phase_1,,,,,,,,,,,,,orange,diamond
0.0,2.0,0.0,0.0,1.0,1.0,304.9026499502361,2.0,1.0,phase_1,,,,,,,,,,,,,magenta,I
87.0,6.0,1.0,1.0,4.0,4.0,364.6864149486646,2.0,1.0,phase_1,,,,,,,,,,,,,green,circle
385.0,8.0,4.0,1.0,4.0,4.0,528.5727320006117,2.0,1.0,phase_1,,,,,,,,,,,,,yellow,hexagon
410.0,4.0,4.0,0.0,3.0,3.0,389.6495510125533,2.0,1.0,phase_1,,,,,,,,,,,,,gray,square
43.0,1.0,0.5,0.0,1.0,1.0,299.705876968801,2.0,1.0,phase_1,,,,,,,,,,,,,cyan,triangle
113.0,2.0,1.0,0.0,2.0,2.0,388.8440539594739,2.0,1.0,phase_1,,,,,,,,,,,,,magenta,I
116.0,2.0,1.0,0.0,3.0,3.0,356.4193040365353,2.0,1.0,phase_1,,,,,,,,,,,,,magenta,I
420.0,4.0,4.0,0.0,1.0,1.0,441.6804789798334,2.0,1.0,phase_1,,,,,,,,,,,,,gray,square
0.0,5.0,0.0,1.0,4.0,4.0,402.3405549814924,2.0,1.0,phase_1,,,,,,,,,,,,,white,cross
81.0,2.0,1.0,0.0,3.0,3.0,441.3146279985085,2.0,1.0,phase_1,,,,,,,,,,,,,magenta,I
0.0,8.0,0.0,1.0,1.0,1.0,475.9654310764745,2.0,1.0,phase_1,,,,,,,,,,,,,yellow,hexagon
60.0,5.0,0.5,1.0,3.0,3.0,410.1373250596225,2.0,1.0,phase_1,,,,,,,,,,,,,white,cross
65.0,1.0,0.5,0.0,3.0,3.0,336.1004940234124,2.0,1.0,phase_1,,,,,,,,,,,,,cyan,triangle
185.0,3.0,2.0,0.0,1.0,1.0,410.850755055435,2.0,1.0,phase_1,,,,,,,,,,,,,orange,diamond
119.0,2.0,1.0,0.0,1.0,1.0,358.2410709932446,2.0,1.0,phase_1,,,,,,,,,,,,,magenta,I
422.0,8.0,4.0,1.0,4.0,4.0,478.2661780482158,2.0,1.0,phase_1,,,,,,,,,,,,,yellow,hexagon
106.0,6.0,1.0,1.0,1.0,1.0,497.3468639655038,2.0,1.0,phase_1,,,,,,,,,,,,,green,circle
0.0,6.0,0.0,1.0,2.0,2.0,686.3814339740202,2.0,1.0,phase_1,,,,,,,,,,,,,green,circle
114.0,6.0,1.0,1.0,3.0,3.0,357.8694750322029,2.0,2.0,phase_1,,,,,,,,,,,,,green,circle
0.0,8.0,0.0,1.0,4.0,4.0,418.6639490071684,2.0,1.0,phase_1,,,,,,,,,,,,,yellow,hexagon
381.0,8.0,4.0,1.0,3.0,3.0,327.67747691832477,2.0,1.0,phase_1,,,,,,,,,,,,,yellow,hexagon
122.0,6.0,1.0,1.0,3.0,3.0,348.4667579177767,2.0,1.0,phase_1,,,,,,,,,,,,,green,circle
422.0,4.0,4.0,0.0,3.0,3.0,371.861559106037,2.0,1.0,phase_1,,,,,,,,,,,,,gray,square
394.0,4.0,4.0,0.0,4.0,4.0,417.352780001238,2.0,1.0,phase_1,,,,,,,,,,,,,gray,square
423.0,8.0,4.0,1.0,2.0,2.0,389.4034660188481,2.0,1.0,phase_1,,,,,,,,,,,,,yellow,hexagon
193.0,3.0,2.0,0.0,4.0,4.0,399.4062839774415,2.0,1.0,phase_1,,,,,,,,,,,,,orange,diamond
225.0,7.0,2.0,1.0,1.0,1.0,477.8210840886459,2.0,1.0,phase_1,,,,,,,,,,,,,blue,flipped triangle
72.0,5.0,0.5,1.0,1.0,1.0,393.0964539758861,2.0,1.0,phase_1,,,,,,,,,,,,,white,cross
0.0,1.0,0.0,0.0,1.0,1.0,524.8842269647866,2.0,1.0,phase_1,,,,,,,,,,,,,cyan,triangle
205.0,7.0,2.0,1.0,4.0,4.0,409.9651488941163,2.0,1.0,phase_1,,,,,,,,,,,,,blue,flipped triangle
0.0,4.0,0.0,0.0,2.0,2.0,534.24350800924,2.0,1.0,phase_1,,,,,,,,,,,,,gray,square
111.0,2.0,1.0,0.0,3.0,3.0,390.427034930326,2.0,1.0,phase_1,,,,,,,,,,,,,magenta,I
0.0,3.0,0.0,0.0,4.0,4.0,465.2027399279177,2.0,1.0,phase_1,,,,,,,,,,,,,orange,diamond
0.0,5.0,0.0,1.0,3.0,3.0,447.4745560437441,2.0,1.0,phase_1,,,,,,,,,,,,,white,cross
0.0,4.0,0.0,0.0,4.0,4.0,540.7917259726673,2.0,1.0,phase_1,,,,,,,,,,,,,gray,square
114.0,6.0,1.0,1.0,3.0,3.0,329.292367096059,2.0,1.0,phase_1,,,,,,,,,,,,,green,circle
55.0,1.0,0.5,0.0,2.0,2.0,522.5105170393363,2.0,1.0,phase_1,,,,,,,,,,,,,cyan,triangle
390.0,8.0,4.0,1.0,1.0,1.0,385.1977819576859,2.0,1.0,phase_1,,,,,,,,,,,,,yellow,hexagon
0.0,3.0,0.0,0.0,1.0,1.0,397.5984950084239,2.0,1.0,phase_1,,,,,,,,,,,,,orange,diamond
394.0,8.0,4.0,1.0,3.0,3.0,441.937404917553,2.0,1.0,phase_1,,,,,,,,,,,,,yellow,hexagon
96.0,6.0,1.0,1.0,4.0,4.0,495.606190059334,2.0,1.0,phase_1,,,,,,,,,,,,,green,circle
85.0,2.0,1.0,0.0,2.0,2.0,401.5691890381276,2.0,1.0,phase_1,,,,,,,,,,,,,magenta,I
387.0,8.0,4.0,1.0,1.0,1.0,374.7226899722591,2.0,1.0,phase_1,,,,,,,,,,,,,yellow,hexagon
422.0,8.0,4.0,1.0,4.0,4.0,389.7429490461945,2.0,1.0,phase_1,,,,,,,,,,,,,yellow,hexagon
62.0,1.0,0.5,0.0,1.0,1.0,442.9813351016491,2.0,1.0,phase_1,,,,,,,,,,,,,cyan,triangle
32.0,1.0,0.5,0.0,2.0,2.0,462.776146014221,2.0,1.0,phase_1,,,,,,,,,,,,,cyan,triangle
221.0,3.0,2.0,0.0,4.0,4.0,283.5018259938806,2.0,1.0,phase_1,,,,,,,,,,,,,orange,diamond
223.0,3.0,2.0,0.0,4.0,4.0,407.5053930282593,2.0,1.0,phase_1,,,,,,,,,,,,,orange,diamond
184.0,7.0,2.0,1.0,4.0,4.0,387.3589349677786,2.0,1.0,phase_1,,,,,,,,,,,,,blue,flipped triangle
0.0,3.0,0.0,0.0,3.0,3.0,443.4123130049556,2.0,1.0,phase_1,,,,,,,,,,,,,orange,diamond
376.0,4.0,4.0,0.0,2.0,2.0,451.733470079489,2.0,1.0,phase_1,,,,,,,,,,,,,gray,square
396.0,4.0,4.0,0.0,1.0,1.0,668.0130520835519,2.0,1.0,phase_1,,,,,,,,,,,,,gray,square
395.0,4.0,4.0,0.0,4.0,4.0,439.4798340508714,2.0,1.0,phase_1,,,,,,,,,,,,,gray,square
74.0,5.0,0.5,1.0,2.0,2.0,386.7057479219511,2.0,1.0,phase_1,,,,,,,,,,,,,white,cross
396.0,8.0,4.0,1.0,1.0,1.0,530.31910804566,2.0,1.0,phase_1,,,,,,,,,,,,,yellow,hexagon
410.0,4.0,4.0,0.0,4.0,4.0,327.4079209659248,2.0,1.0,phase_1,,,,,,,,,,,,,gray,square
0.0,6.0,0.0,1.0,2.0,2.0,523.5442880075425,2.0,1.0,phase_1,,,,,,,,,,,,,green,circle
39.0,5.0,0.5,1.0,3.0,3.0,575.7907439256087,2.0,1.0,phase_1,,,,,,,,,,,,,white,cross
92.0,2.0,1.0,0.0,3.0,3.0,849.4035779731348,2.0,1.0,phase_1,,,,,,,,,,,,,magenta,I
212.0,3.0,2.0,0.0,3.0,3.0,464.2514829756692,2.0,1.0,phase_1,,,,,,,,,,,,,orange,diamond
61.0,5.0,0.5,1.0,1.0,1.0,436.0955549636855,2.0,1.0,phase_1,,,,,,,,,,,,,white,cross
203.0,3.0,2.0,0.0,2.0,2.0,480.305852019228,2.0,1.0,phase_1,,,,,,,,,,,,,orange,diamond
0.0,2.0,0.0,0.0,4.0,4.0,406.0251949122175,2.0,1.0,phase_1,,,,,,,,,,,,,magenta,I
44.0,5.0,0.5,1.0,3.0,3.0,457.5027419487014,2.0,1.0,phase_1,,,,,,,,,,,,,white,cross
0.0,7.0,0.0,1.0,4.0,4.0,401.6446570167318,2.0,1.0,phase_1,,,,,,,,,,,,,blue,flipped triangle
0.0,1.0,0.0,0.0,4.0,4.0,717.0699239941314,2.0,1.0,phase_1,,,,,,,,,,,,,cyan,triangle
0.0,7.0,0.0,1.0,2.0,2.0,631.6341880010441,2.0,1.0,phase_1,,,,,,,,,,,,,blue,flipped triangle
89.0,2.0,1.0,0.0,2.0,2.0,759.2971990816295,2.0,1.0,phase_1,,,,,,,,,,,,,magenta,I
194.0,7.0,2.0,1.0,2.0,2.0,427.0370419835672,2.0,1.0,phase_1,,,,,,,,,,,,,blue,flipped triangle
176.0,3.0,2.0,0.0,3.0,3.0,390.82085294649,2.0,1.0,phase_1,,,,,,,,,,,,,orange,diamond
205.0,7.0,2.0,1.0,3.0,3.0,402.4908780120313,2.0,1.0,phase_1,,,,,,,,,,,,,blue,flipped triangle
123.0,6.0,1.0,1.0,4.0,4.0,526.191707001999,2.0,1.0,phase_1,,,,,,,,,,,,,green,circle
47.0,5.0,0.5,1.0,1.0,1.0,333.697541966103,2.0,1.0,phase_1,,,,,,,,,,,,,white,cross
85.0,6.0,1.0,1.0,2.0,2.0,442.1382889850065,2.0,1.0,phase_1,,,,,,,,,,,,,green,circle
214.0,7.0,2.0,1.0,1.0,1.0,388.3098999504,2.0,1.0,phase_1,,,,,,,,,,,,,blue,flipped triangle
67.0,5.0,0.5,1.0,2.0,2.0,651.9180269679055,2.0,1.0,phase_1,,,,,,,,,,,,,white,cross
0.0,1.0,0.0,0.0,1.0,1.0,566.8953240383416,2.0,1.0,phase_1,,,,,,,,,,,,,cyan,triangle
0.0,2.0,0.0,0.0,3.0,3.0,957.2316809790208,2.0,1.0,phase_1,,,,,,,,,,,,,magenta,I
401.0,8.0,4.0,1.0,2.0,2.0,889.3076429376379,2.0,1.0,phase_1,,,,,,,,,,,,,yellow,hexagon
90.0,2.0,1.0,0.0,1.0,1.0,510.7045880286023,2.0,1.0,phase_1,,,,,,,,,,,,,magenta,I
0.0,1.0,0.0,0.0,2.0,2.0,416.1433969857171,2.0,1.0,phase_1,,,,,,,,,,,,,cyan,triangle
57.0,1.0,0.5,0.0,1.0,1.0,397.7018289733678,2.0,1.0,phase_1,,,,,,,,,,,,,cyan,triangle
110.0,2.0,1.0,0.0,3.0,3.0,331.8255429621786,2.0,1.0,phase_1,,,,,,,,,,,,,magenta,I
75.0,1.0,0.5,0.0,2.0,2.0,369.9811879778281,2.0,1.0,phase_1,,,,,,,,,,,,,cyan,triangle
387.0,8.0,4.0,1.0,1.0,1.0,462.4638709938153,2.0,1.0,phase_1,,,,,,,,,,,,,yellow,hexagon
0.0,3.0,0.0,0.0,1.0,1.0,567.5941979279742,2.0,1.0,phase_1,,,,,,,,,,,,,orange,diamond
43.0,5.0,0.5,1.0,2.0,2.0,772.2148300381377,2.0,1.0,phase_1,,,,,,,,,,,,,white,cross
68.0,1.0,0.5,0.0,3.0,3.0,474.7318989830091,2.0,1.0,phase_1,,,,,,,,,,,,,cyan,triangle
39.0,1.0,0.5,0.0,4.0,4.0,520.2334229834378,2.0,1.0,phase_1,,,,,,,,,,,,,cyan,triangle
0.0,1.0,0.0,0.0,3.0,3.0,332.8410160029307,2.0,1.0,phase_1,,,,,,,,,,,,,cyan,triangle
114.0,2.0,1.0,0.0,3.0,3.0,346.1636019637808,2.0,1.0,phase_1,,,,,,,,,,,,,magenta,I
380.0,8.0,4.0,1.0,2.0,2.0,532.9758810112253,2.0,1.0,phase_1,,,,,,,,,,,,,yellow,hexagon
81.0,6.0,1.0,1.0,3.0,3.0,468.6270179226994,2.0,1.0,phase_1,,,,,,,,,,,,,green,circle
189.0,7.0,2.0,1.0,2.0,2.0,480.2581300027668,2.0,1.0,phase_1,,,,,,,,,,,,,blue,flipped triangle
116.0,6.0,1.0,1.0,2.0,2.0,297.7590550435707,3.0,1.0,phase_1,,,,,,,,,,,,,green,circle
419.0,8.0,4.0,1.0,3.0,3.0,303.1640090048313,3.0,1.0,phase_1,,,,,,,,,,,,,yellow,hexagon
0.0,4.0,0.0,0.0,1.0,1.0,375.126710976474,3.0,1.0,phase_1,,,,,,,,,,,,,gray,square
57.0,5.0,0.5,1.0,1.0,1.0,448.0839639436453,3.0,1.0,phase_1,,,,,,,,,,,,,white,cross
409.0,4.0,4.0,0.0,4.0,4.0,286.1490690847859,3.0,1.0,phase_1,,,,,,,,,,,,,gray,square
415.0,8.0,4.0,1.0,2.0,2.0,290.4668119736016,3.0,1.0,phase_1,,,,,,,,,,,,,yellow,hexagon
32.0,5.0,0.5,1.0,1.0,1.0,384.1917840763926,3.0,1.0,phase_1,,,,,,,,,,,,,white,cross
416.0,8.0,4.0,1.0,4.0,4.0,314.6082099992782,3.0,1.0,phase_1,,,,,,,,,,,,,yellow,hexagon
212.0,7.0,2.0,1.0,4.0,4.0,448.8582749618217,3.0,1.0,phase_1,,,,,,,,,,,,,blue,flipped triangle
198.0,3.0,2.0,0.0,4.0,4.0,444.2677539773285,3.0,1.0,phase_1,,,,,,,,,,,,,orange,diamond
381.0,4.0,4.0,0.0,2.0,2.0,400.3829819848761,3.0,1.0,phase_1,,,,,,,,,,,,,gray,square
395.0,8.0,4.0,1.0,3.0,3.0,335.6115940259769,3.0,1.0,phase_1,,,,,,,,,,,,,yellow,hexagon
82.0,2.0,1.0,0.0,4.0,4.0,411.6348270326853,3.0,1.0,phase_1,,,,,,,,,,,,,magenta,I
422.0,4.0,4.0,0.0,1.0,1.0,454.8199758864939,3.0,1.0,phase_1,,,,,,,,,,,,,gray,square
410.0,8.0,4.0,1.0,2.0,2.0,469.3715230096131,3.0,1.0,phase_1,,,,,,,,,,,,,yellow,hexagon
409.0,8.0,4.0,1.0,1.0,1.0,330.6193359894678,3.0,1.0,phase_1,,,,,,,,,,,,,yellow,hexagon
0.0,4.0,0.0,0.0,3.0,3.0,326.4051380101591,3.0,1.0,phase_1,,,,,,,,,,,,,gray,square
414.0,4.0,4.0,0.0,1.0,1.0,562.5281450338662,3.0,1.0,phase_1,,,,,,,,,,,,,gray,square
0.0,5.0,0.0,1.0,2.0,2.0,342.8218381013721,3.0,1.0,phase_1,,,,,,,,,,,,,white,cross
0.0,5.0,0.0,1.0,2.0,2.0,388.7781529920175,3.0,1.0,phase_1,,,,,,,,,,,,,white,cross
197.0,3.0,2.0,0.0,3.0,3.0,419.047110946849,3.0,1.0,phase_1,,,,,,,,,,,,,orange,diamond
68.0,5.0,0.5,1.0,2.0,2.0,415.4652740107849,3.0,1.0,phase_1,,,,,,,,,,,,,white,cross
0.0,6.0,0.0,1.0,3.0,3.0,379.1012790752575,3.0,1.0,phase_1,,,,,,,,,,,,,green,circle
0.0,2.0,0.0,0.0,2.0,2.0,317.417545011267,3.0,1.0,phase_1,,,,,,,,,,,,,magenta,I
0.0,1.0,0.0,0.0,3.0,3.0,358.1623840145767,3.0,1.0,phase_1,,,,,,,,,,,,,cyan,triangle
103.0,2.0,1.0,0.0,1.0,1.0,329.9894939409569,3.0,1.0,phase_1,,,,,,,,,,,,,magenta,I
0.0,7.0,0.0,1.0,4.0,4.0,275.4921750165522,3.0,1.0,phase_1,,,,,,,,,,,,,blue,flipped triangle
38.0,5.0,0.5,1.0,1.0,1.0,508.15004005562514,3.0,1.0,phase_1,,,,,,,,,,,,,white,cross
87.0,2.0,1.0,0.0,2.0,2.0,304.6888509998098,3.0,1.0,phase_1,,,,,,,,,,,,,magenta,I
420.0,8.0,4.0,1.0,1.0,1.0,417.9044889751822,3.0,1.0,phase_1,,,,,,,,,,,,,yellow,hexagon
396.0,8.0,4.0,1.0,4.0,4.0,386.0289730364457,3.0,1.0,phase_1,,,,,,,,,,,,,yellow,hexagon
0.0,5.0,0.0,1.0,2.0,2.0,420.2294129645452,3.0,1.0,phase_1,,,,,,,,,,,,,white,cross
201.0,3.0,2.0,0.0,2.0,2.0,424.5358870830387,3.0,1.0,phase_1,,,,,,,,,,,,,orange,diamond
407.0,4.0,4.0,0.0,3.0,3.0,436.1857689218595,3.0,1.0,phase_1,,,,,,,,,,,,,gray,square
396.0,4.0,4.0,0.0,4.0,4.0,356.9901229348033,3.0,1.0,phase_1,,,,,,,,,,,,,gray,square
32.0,1.0,0.5,0.0,2.0,2.0,431.6463490249589,3.0,1.0,phase_1,,,,,,,,,,,,,cyan,triangle
197.0,7.0,2.0,1.0,2.0,2.0,341.7243219446391,3.0,1.0,phase_1,,,,,,,,,,,,,blue,flipped triangle
100.0,6.0,1.0,1.0,2.0,2.0,337.381834979169,3.0,1.0,phase_1,,,,,,,,,,,,,green,circle
190.0,7.0,2.0,1.0,1.0,1.0,406.8898409605026,3.0,1.0,phase_1,,,,,,,,,,,,,blue,flipped triangle
390.0,4.0,4.0,0.0,2.0,2.0,328.402851941064,3.0,1.0,phase_1,,,,,,,,,,,,,gray,square
0.0,1.0,0.0,0.0,1.0,1.0,301.7583870096132,3.0,1.0,phase_1,,,,,,,,,,,,,cyan,triangle
203.0,7.0,2.0,1.0,2.0,2.0,449.7164890635758,3.0,1.0,phase_1,,,,,,,,,,,,,blue,flipped triangle
119.0,6.0,1.0,1.0,3.0,3.0,378.0785669805482,3.0,1.0,phase_1,,,,,,,,,,,,,green,circle
57.0,5.0,0.5,1.0,3.0,3.0,315.4862009687349,3.0,1.0,phase_1,,,,,,,,,,,,,white,cross
423.0,4.0,4.0,0.0,3.0,3.0,336.0850680619478,3.0,1.0,phase_1,,,,,,,,,,,,,gray,square
76.0,2.0,1.0,0.0,4.0,4.0,340.6333310995251,3.0,1.0,phase_1,,,,,,,,,,,,,magenta,I
375.0,8.0,4.0,1.0,1.0,1.0,313.5644800495356,3.0,1.0,phase_1,,,,,,,,,,,,,yellow,hexagon
225.0,3.0,2.0,0.0,1.0,1.0,349.9566810205579,3.0,1.0,phase_1,,,,,,,,,,,,,orange,diamond
116.0,2.0,1.0,0.0,1.0,1.0,342.7163669839501,3.0,1.0,phase_1,,,,,,,,,,,,,magenta,I
0.0,6.0,0.0,1.0,4.0,4.0,313.46723798196757,3.0,1.0,phase_1,,,,,,,,,,,,,green,circle
0.0,4.0,0.0,0.0,2.0,2.0,308.9676899835467,3.0,1.0,phase_1,,,,,,,,,,,,,gray,square
0.0,6.0,0.0,1.0,3.0,3.0,291.4424790069461,3.0,1.0,phase_1,,,,,,,,,,,,,green,circle
198.0,7.0,2.0,1.0,2.0,2.0,489.3308769678697,3.0,1.0,phase_1,,,,,,,,,,,,,blue,flipped triangle
46.0,1.0,0.5,0.0,4.0,4.0,355.0295220920816,3.0,1.0,phase_1,,,,,,,,,,,,,cyan,triangle
83.0,2.0,1.0,0.0,1.0,1.0,313.4693730389699,3.0,1.0,phase_1,,,,,,,,,,,,,magenta,I
407.0,8.0,4.0,1.0,1.0,1.0,324.5274970540777,3.0,1.0,phase_1,,,,,,,,,,,,,yellow,hexagon
423.0,4.0,4.0,0.0,2.0,2.0,371.3242230005562,3.0,1.0,phase_1,,,,,,,,,,,,,gray,square
76.0,6.0,1.0,1.0,1.0,1.0,366.774661000818,3.0,1.0,phase_1,,,,,,,,,,,,,green,circle
416.0,4.0,4.0,0.0,1.0,1.0,532.2895050048828,3.0,1.0,phase_1,,,,,,,,,,,,,gray,square
89.0,2.0,1.0,0.0,3.0,3.0,350.0181109411642,3.0,1.0,phase_1,,,,,,,,,,,,,magenta,I
61.0,1.0,0.5,0.0,4.0,4.0,343.1069259531796,3.0,1.0,phase_1,,,,,,,,,,,,,cyan,triangle
67.0,1.0,0.5,0.0,2.0,2.0,345.5765569815412,3.0,1.0,phase_1,,,,,,,,,,,,,cyan,triangle
49.0,5.0,0.5,1.0,2.0,2.0,366.8550919974223,3.0,1.0,phase_1,,,,,,,,,,,,,white,cross
0.0,8.0,0.0,1.0,1.0,1.0,331.0172070050612,3.0,1.0,phase_1,,,,,,,,,,,,,yellow,hexagon
219.0,3.0,2.0,0.0,3.0,3.0,280.2506550215184,3.0,1.0,phase_1,,,,,,,,,,,,,orange,diamond
0.0,7.0,0.0,1.0,3.0,3.0,324.486008961685,3.0,1.0,phase_1,,,,,,,,,,,,,blue,flipped triangle
176.0,7.0,2.0,1.0,2.0,2.0,393.7112980056554,3.0,1.0,phase_1,,,,,,,,,,,,,blue,flipped triangle
376.0,4.0,4.0,0.0,1.0,1.0,509.4851979520172,3.0,1.0,phase_1,,,,,,,,,,,,,gray,square
0.0,7.0,0.0,1.0,2.0,2.0,497.0559810753912,3.0,1.0,phase_1,,,,,,,,,,,,,blue,flipped triangle
223.0,3.0,2.0,0.0,2.0,2.0,376.9640849204734,3.0,1.0,phase_1,,,,,,,,,,,,,orange,diamond
25.0,5.0,0.5,1.0,4.0,4.0,356.4315940020606,3.0,1.0,phase_1,,,,,,,,,,,,,white,cross
197.0,3.0,2.0,0.0,4.0,4.0,423.6772240838036,3.0,1.0,phase_1,,,,,,,,,,,,,orange,diamond
0.0,8.0,0.0,1.0,1.0,1.0,287.2430010465905,3.0,1.0,phase_1,,,,,,,,,,,,,yellow,hexagon
83.0,6.0,1.0,1.0,2.0,2.0,384.6782200271263,3.0,1.0,phase_1,,,,,,,,,,,,,green,circle
40.0,5.0,0.5,1.0,4.0,4.0,343.5121150687337,3.0,1.0,phase_1,,,,,,,,,,,,,white,cross
0.0,3.0,0.0,0.0,2.0,2.0,380.8744410052895,3.0,1.0,phase_1,,,,,,,,,,,,,orange,diamond
219.0,7.0,2.0,1.0,2.0,2.0,336.8453650036827,3.0,1.0,phase_1,,,,,,,,,,,,,blue,flipped triangle
120.0,2.0,1.0,0.0,1.0,1.0,413.5045879520476,3.0,1.0,phase_1,,,,,,,,,,,,,magenta,I
0.0,2.0,0.0,0.0,2.0,2.0,290.2204350102693,3.0,1.0,phase_1,,,,,,,,,,,,,magenta,I
198.0,3.0,2.0,0.0,3.0,3.0,492.6668140105903,3.0,1.0,phase_1,,,,,,,,,,,,,orange,diamond
416.0,8.0,4.0,1.0,4.0,4.0,387.6398470019921,3.0,1.0,phase_1,,,,,,,,,,,,,yellow,hexagon
0.0,2.0,0.0,0.0,3.0,3.0,480.4678549990058,3.0,1.0,phase_1,,,,,,,,,,,,,magenta,I
205.0,3.0,2.0,0.0,1.0,1.0,565.2659559855238,3.0,1.0,phase_1,,,,,,,,,,,,,orange,diamond
57.0,1.0,0.5,0.0,4.0,4.0,312.5971050467342,3.0,1.0,phase_1,,,,,,,,,,,,,cyan,triangle
0.0,2.0,0.0,0.0,1.0,1.0,534.0794799849391,3.0,1.0,phase_1,,,,,,,,,,,,,magenta,I
193.0,3.0,2.0,0.0,4.0,4.0,396.385703003034,3.0,1.0,phase_1,,,,,,,,,,,,,orange,diamond
120.0,6.0,1.0,1.0,4.0,4.0,400.2899299375713,3.0,1.0,phase_1,,,,,,,,,,,,,green,circle
36.0,5.0,0.5,1.0,1.0,1.0,434.8780839936808,3.0,1.0,phase_1,,,,,,,,,,,,,white,cross
96.0,2.0,1.0,0.0,1.0,1.0,407.0100879762321,3.0,1.0,phase_1,,,,,,,,,,,,,magenta,I
186.0,7.0,2.0,1.0,1.0,1.0,530.8244649786502,3.0,1.0,phase_1,,,,,,,,,,,,,blue,flipped triangle
47.0,1.0,0.5,0.0,3.0,3.0,369.4774250034243,3.0,1.0,phase_1,,,,,,,,,,,,,cyan,triangle
43.0,5.0,0.5,1.0,4.0,4.0,412.3936359537765,3.0,1.0,phase_1,,,,,,,,,,,,,white,cross
400.0,4.0,4.0,0.0,4.0,4.0,386.7576119955629,3.0,1.0,phase_1,,,,,,,,,,,,,gray,square
106.0,6.0,1.0,1.0,3.0,3.0,334.3472640262916,3.0,1.0,phase_1,,,,,,,,,,,,,green,circle
206.0,3.0,2.0,0.0,4.0,4.0,508.7242550216615,3.0,1.0,phase_1,,,,,,,,,,,,,orange,diamond
202.0,3.0,2.0,0.0,3.0,3.0,426.7960198922083,3.0,1.0,phase_1,,,,,,,,,,,,,orange,diamond
0.0,2.0,0.0,0.0,4.0,4.0,422.7052619680762,3.0,1.0,phase_1,,,,,,,,,,,,,magenta,I
185.0,7.0,2.0,1.0,2.0,2.0,537.5527560245246,3.0,1.0,phase_1,,,,,,,,,,,,,blue,flipped triangle
381.0,4.0,4.0,0.0,2.0,2.0,398.9232400199398,3.0,1.0,phase_1,,,,,,,,,,,,,gray,square
55.0,5.0,0.5,1.0,4.0,4.0,349.9692699406296,3.0,1.0,phase_1,,,,,,,,,,,,,white,cross
202.0,7.0,2.0,1.0,3.0,3.0,378.1568739796057,4.0,1.0,phase_1,,,,,,,,,,,,,blue,flipped triangle
60.0,1.0,0.5,0.0,2.0,2.0,395.2864329330623,4.0,1.0,phase_1,,,,,,,,,,,,,cyan,triangle
214.0,7.0,2.0,1.0,4.0,4.0,296.7673339881003,4.0,1.0,phase_1,,,,,,,,,,,,,blue,flipped triangle
123.0,2.0,1.0,0.0,3.0,3.0,358.3701010793447,4.0,1.0,phase_1,,,,,,,,,,,,,magenta,I
0.0,5.0,0.0,1.0,1.0,1.0,394.1672169603407,4.0,1.0,phase_1,,,,,,,,,,,,,white,cross
43.0,1.0,0.5,0.0,4.0,4.0,313.0327760009095,4.0,1.0,phase_1,,,,,,,,,,,,,cyan,triangle
405.0,4.0,4.0,0.0,3.0,3.0,308.8352070190012,4.0,1.0,phase_1,,,,,,,,,,,,,gray,square
61.0,1.0,0.5,0.0,4.0,4.0,422.9316459968686,4.0,1.0,phase_1,,,,,,,,,,,,,cyan,triangle
60.0,1.0,0.5,0.0,3.0,3.0,382.7584870159626,4.0,1.0,phase_1,,,,,,,,,,,,,cyan,triangle
223.0,7.0,2.0,1.0,3.0,3.0,313.008495955728,4.0,1.0,phase_1,,,,,,,,,,,,,blue,flipped triangle
0.0,6.0,0.0,1.0,1.0,1.0,432.2743120137602,4.0,1.0,phase_1,,,,,,,,,,,,,green,circle
224.0,3.0,2.0,0.0,1.0,1.0,578.297373955138,4.0,1.0,phase_1,,,,,,,,,,,,,orange,diamond
36.0,1.0,0.5,0.0,3.0,3.0,326.4374859863892,4.0,1.0,phase_1,,,,,,,,,,,,,cyan,triangle
395.0,4.0,4.0,0.0,3.0,3.0,349.8002970591187,4.0,1.0,phase_1,,,,,,,,,,,,,gray,square
0.0,8.0,0.0,1.0,1.0,1.0,324.0120339905843,4.0,1.0,phase_1,,,,,,,,,,,,,yellow,hexagon
390.0,8.0,4.0,1.0,2.0,2.0,431.5144310239702,4.0,1.0,phase_1,,,,,,,,,,,,,yellow,hexagon
186.0,3.0,2.0,0.0,4.0,4.0,461.0019100364297,4.0,1.0,phase_1,,,,,,,,,,,,,orange,diamond
54.0,5.0,0.5,1.0,3.0,3.0,351.1333069764077,4.0,1.0,phase_1,,,,,,,,,,,,,white,cross
0.0,5.0,0.0,1.0,1.0,1.0,403.267411980778,4.0,1.0,phase_1,,,,,,,,,,,,,white,cross
111.0,6.0,1.0,1.0,4.0,4.0,442.4169369740411,4.0,1.0,phase_1,,,,,,,,,,,,,green,circle
180.0,3.0,2.0,0.0,3.0,3.0,343.3839649660513,4.0,1.0,phase_1,,,,,,,,,,,,,orange,diamond
410.0,8.0,4.0,1.0,3.0,3.0,440.5217349994927,4.0,1.0,phase_1,,,,,,,,,,,,,yellow,hexagon
62.0,5.0,0.5,1.0,2.0,2.0,479.3421890353784,4.0,1.0,phase_1,,,,,,,,,,,,,white,cross
395.0,8.0,4.0,1.0,3.0,3.0,396.4162749471143,4.0,1.0,phase_1,,,,,,,,,,,,,yellow,hexagon
50.0,5.0,0.5,1.0,3.0,3.0,319.4492460461333,4.0,1.0,phase_1,,,,,,,,,,,,,white,cross
180.0,3.0,2.0,0.0,2.0,2.0,380.0038619665429,4.0,1.0,phase_1,,,,,,,,,,,,,orange,diamond
223.0,7.0,2.0,1.0,3.0,3.0,520.5535080749542,4.0,1.0,phase_1,,,,,,,,,,,,,blue,flipped triangle
401.0,4.0,4.0,0.0,3.0,3.0,407.1017920505255,4.0,1.0,phase_1,,,,,,,,,,,,,gray,square
72.0,1.0,0.5,0.0,1.0,1.0,395.4880270175636,4.0,1.0,phase_1,,,,,,,,,,,,,cyan,triangle
423.0,8.0,4.0,1.0,4.0,4.0,455.3143259836361,4.0,1.0,phase_1,,,,,,,,,,,,,yellow,hexagon
186.0,7.0,2.0,1.0,3.0,3.0,357.7393310843035,4.0,1.0,phase_1,,,,,,,,,,,,,blue,flipped triangle
390.0,4.0,4.0,0.0,2.0,2.0,383.1349440151825,4.0,1.0,phase_1,,,,,,,,,,,,,gray,square
25.0,1.0,0.5,0.0,1.0,1.0,292.0822269516065,4.0,1.0,phase_1,,,,,,,,,,,,,cyan,triangle
110.0,6.0,1.0,1.0,2.0,2.0,386.6661230567842,4.0,1.0,phase_1,,,,,,,,,,,,,green,circle
84.0,2.0,1.0,0.0,4.0,4.0,289.582550060004,4.0,1.0,phase_1,,,,,,,,,,,,,magenta,I
180.0,7.0,2.0,1.0,1.0,1.0,356.7984119290486,4.0,1.0,phase_1,,,,,,,,,,,,,blue,flipped triangle
214.0,3.0,2.0,0.0,2.0,2.0,378.1209660228342,4.0,1.0,phase_1,,,,,,,,,,,,,orange,diamond
122.0,2.0,1.0,0.0,2.0,2.0,439.0333310002461,4.0,1.0,phase_1,,,,,,,,,,,,,magenta,I
43.0,5.0,0.5,1.0,1.0,1.0,451.2776349438354,4.0,1.0,phase_1,,,,,,,,,,,,,white,cross
78.0,2.0,1.0,0.0,4.0,4.0,308.4092909703031,4.0,2.0,phase_1,,,,,,,,,,,,,magenta,I
119.0,2.0,1.0,0.0,2.0,2.0,447.361720027402,4.0,1.0,phase_1,,,,,,,,,,,,,magenta,I
187.0,3.0,2.0,0.0,4.0,4.0,358.1767939031124,4.0,1.0,phase_1,,,,,,,,,,,,,orange,diamond
385.0,4.0,4.0,0.0,3.0,3.0,410.8834839425981,4.0,1.0,phase_1,,,,,,,,,,,,,gray,square
43.0,1.0,0.5,0.0,1.0,1.0,590.4879840090871,4.0,1.0,phase_1,,,,,,,,,,,,,cyan,triangle
197.0,3.0,2.0,0.0,3.0,3.0,325.107105076313,4.0,1.0,phase_1,,,,,,,,,,,,,orange,diamond
123.0,6.0,1.0,1.0,2.0,2.0,457.0676649454981,4.0,1.0,phase_1,,,,,,,,,,,,,green,circle
0.0,7.0,0.0,1.0,1.0,1.0,476.6664759954437,4.0,1.0,phase_1,,,,,,,,,,,,,blue,flipped triangle
0.0,7.0,0.0,1.0,3.0,3.0,266.1204040050506,4.0,1.0,phase_1,,,,,,,,,,,,,blue,flipped triangle
0.0,8.0,0.0,1.0,2.0,2.0,385.7433040393516,4.0,1.0,phase_1,,,,,,,,,,,,,yellow,hexagon
0.0,5.0,0.0,1.0,3.0,3.0,363.7068049283698,4.0,1.0,phase_1,,,,,,,,,,,,,white,cross
41.0,1.0,0.5,0.0,4.0,4.0,344.081299030222,4.0,1.0,phase_1,,,,,,,,,,,,,cyan,triangle
401.0,4.0,4.0,0.0,2.0,2.0,356.6389030311256,4.0,1.0,phase_1,,,,,,,,,,,,,gray,square
0.0,4.0,0.0,0.0,1.0,1.0,329.5982020208612,4.0,1.0,phase_1,,,,,,,,,,,,,gray,square
187.0,7.0,2.0,1.0,3.0,3.0,253.46406397875398,4.0,1.0,phase_1,,,,,,,,,,,,,blue,flipped triangle
78.0,6.0,1.0,1.0,3.0,3.0,391.9841579627245,4.0,1.0,phase_1,,,,,,,,,,,,,green,circle
0.0,7.0,0.0,1.0,2.0,2.0,509.7034339560196,4.0,1.0,phase_1,,,,,,,,,,,,,blue,flipped triangle
414.0,8.0,4.0,1.0,3.0,3.0,348.5977849923074,4.0,1.0,phase_1,,,,,,,,,,,,,yellow,hexagon
100.0,2.0,1.0,0.0,1.0,1.0,297.7928749751299,4.0,1.0,phase_1,,,,,,,,,,,,,magenta,I
221.0,7.0,2.0,1.0,3.0,3.0,269.7906940011307,4.0,1.0,phase_1,,,,,,,,,,,,,blue,flipped triangle
76.0,6.0,1.0,1.0,4.0,4.0,336.3052299246192,4.0,1.0,phase_1,,,,,,,,,,,,,green,circle
86.0,6.0,1.0,1.0,4.0,4.0,350.3728049108758,4.0,1.0,phase_1,,,,,,,,,,,,,green,circle
189.0,3.0,2.0,0.0,4.0,4.0,276.229714974761,4.0,1.0,phase_1,,,,,,,,,,,,,orange,diamond
395.0,4.0,4.0,0.0,2.0,2.0,350.2790089696646,4.0,1.0,phase_1,,,,,,,,,,,,,gray,square
389.0,8.0,4.0,1.0,1.0,1.0,350.4368669819087,4.0,1.0,phase_1,,,,,,,,,,,,,yellow,hexagon
197.0,7.0,2.0,1.0,4.0,4.0,442.4722060794011,4.0,1.0,phase_1,,,,,,,,,,,,,blue,flipped triangle
193.0,7.0,2.0,1.0,1.0,1.0,358.095214003697,4.0,1.0,phase_1,,,,,,,,,,,,,blue,flipped triangle
184.0,3.0,2.0,0.0,1.0,1.0,355.349006014876,4.0,1.0,phase_1,,,,,,,,,,,,,orange,diamond
96.0,6.0,1.0,1.0,2.0,2.0,317.2930320724845,4.0,1.0,phase_1,,,,,,,,,,,,,green,circle
98.0,2.0,1.0,0.0,2.0,2.0,355.7751229964196,4.0,1.0,phase_1,,,,,,,,,,,,,magenta,I
88.0,2.0,1.0,0.0,3.0,3.0,367.3407399328425,4.0,1.0,phase_1,,,,,,,,,,,,,magenta,I
400.0,8.0,4.0,1.0,4.0,4.0,341.4469029521569,4.0,1.0,phase_1,,,,,,,,,,,,,yellow,hexagon
63.0,1.0,0.5,0.0,2.0,2.0,336.8876590393483,4.0,1.0,phase_1,,,,,,,,,,,,,cyan,triangle
25.0,5.0,0.5,1.0,3.0,3.0,381.2909460393712,4.0,1.0,phase_1,,,,,,,,,,,,,white,cross
206.0,7.0,2.0,1.0,3.0,3.0,377.495442982763,4.0,1.0,phase_1,,,,,,,,,,,,,blue,flipped triangle
121.0,2.0,1.0,0.0,2.0,2.0,439.605772960931,4.0,1.0,phase_1,,,,,,,,,,,,,magenta,I
30.0,5.0,0.5,1.0,2.0,2.0,468.5070280684158,4.0,1.0,phase_1,,,,,,,,,,,,,white,cross
103.0,6.0,1.0,1.0,1.0,1.0,464.8299800464883,4.0,1.0,phase_1,,,,,,,,,,,,,green,circle
0.0,7.0,0.0,1.0,4.0,4.0,357.5328190345317,4.0,1.0,phase_1,,,,,,,,,,,,,blue,flipped triangle
409.0,8.0,4.0,1.0,3.0,3.0,274.0226130699739,4.0,1.0,phase_1,,,,,,,,,,,,,yellow,hexagon
0.0,6.0,0.0,1.0,4.0,4.0,489.3323970027268,4.0,1.0,phase_1,,,,,,,,,,,,,green,circle
219.0,7.0,2.0,1.0,1.0,1.0,459.8308709682897,4.0,1.0,phase_1,,,,,,,,,,,,,blue,flipped triangle
86.0,2.0,1.0,0.0,4.0,4.0,410.7491370523348,4.0,1.0,phase_1,,,,,,,,,,,,,magenta,I
387.0,4.0,4.0,0.0,4.0,4.0,339.0955980867147,4.0,1.0,phase_1,,,,,,,,,,,,,gray,square
89.0,6.0,1.0,1.0,2.0,2.0,344.3477099062875,4.0,2.0,phase_1,,,,,,,,,,,,,green,circle
409.0,4.0,4.0,0.0,4.0,4.0,357.4734290596097,4.0,1.0,phase_1,,,,,,,,,,,,,gray,square
63.0,5.0,0.5,1.0,4.0,4.0,344.6039950940758,4.0,1.0,phase_1,,,,,,,,,,,,,white,cross
26.0,1.0,0.5,0.0,4.0,4.0,349.4398259790614,4.0,1.0,phase_1,,,,,,,,,,,,,cyan,triangle
190.0,3.0,2.0,0.0,2.0,2.0,386.8027409771457,4.0,1.0,phase_1,,,,,,,,,,,,,orange,diamond
205.0,3.0,2.0,0.0,2.0,2.0,316.1001210100949,4.0,1.0,phase_1,,,,,,,,,,,,,orange,diamond
0.0,6.0,0.0,1.0,4.0,4.0,388.5475629940629,4.0,1.0,phase_1,,,,,,,,,,,,,green,circle
92.0,6.0,1.0,1.0,1.0,1.0,301.3414470478892,4.0,1.0,phase_1,,,,,,,,,,,,,green,circle
214.0,3.0,2.0,0.0,1.0,1.0,330.156201031059,4.0,1.0,phase_1,,,,,,,,,,,,,orange,diamond
32.0,5.0,0.5,1.0,2.0,2.0,330.4706169292331,4.0,1.0,phase_1,,,,,,,,,,,,,white,cross
206.0,7.0,2.0,1.0,3.0,3.0,451.6171229770407,4.0,1.0,phase_1,,,,,,,,,,,,,blue,flipped triangle
121.0,6.0,1.0,1.0,1.0,1.0,480.4057730361819,4.0,1.0,phase_1,,,,,,,,,,,,,green,circle
94.0,2.0,1.0,0.0,4.0,4.0,373.6117250518873,4.0,1.0,phase_1,,,,,,,,,,,,,magenta,I
50.0,1.0,0.5,0.0,4.0,4.0,756.3610370270908,4.0,1.0,phase_1,,,,,,,,,,,,,cyan,triangle
76.0,2.0,1.0,0.0,4.0,4.0,321.3936509564519,4.0,1.0,phase_1,,,,,,,,,,,,,magenta,I
0.0,3.0,0.0,0.0,1.0,1.0,291.4680680260062,4.0,1.0,phase_1,,,,,,,,,,,,,orange,diamond
186.0,3.0,2.0,0.0,1.0,1.0,497.5930890068412,4.0,1.0,phase_1,,,,,,,,,,,,,orange,diamond
0.0,5.0,0.5,1.0,5.0,5.0,509.5527310622856,1.0,1.0,phase_2,stop,250.0,250.0,3.0,,,,,,,,,white,cross
0.0,1.0,0.5,0.0,6.0,6.0,308.7747680256143,1.0,1.0,phase_2,go,200.0,250.0,1.0,,,,,,,,,cyan,triangle
0.0,4.0,4.0,0.0,6.0,6.0,364.2098109703511,1.0,1.0,phase_2,go,200.0,250.0,1.0,,,,,,,,,gray,square
0.0,1.0,0.5,0.0,5.0,5.0,339.6486949641257,1.0,1.0,phase_2,go,200.0,250.0,1.0,,,,,,,,,cyan,triangle
0.0,5.0,0.5,1.0,6.0,0.0,0.0,1.0,1.0,phase_2,stop,200.0,250.0,4.0,,,,,,,,,white,cross
0.0,8.0,4.0,1.0,6.0,0.0,0.0,1.0,1.0,phase_2,stop,200.0,300.0,4.0,,,,,,,,,yellow,hexagon
0.0,1.0,0.5,0.0,6.0,6.0,608.7393970228732,1.0,1.0,phase_2,go,200.0,350.0,1.0,,,,,,,,,cyan,triangle
0.0,3.0,2.0,0.0,5.0,5.0,338.2397319655865,1.0,1.0,phase_2,go,200.0,350.0,1.0,,,,,,,,,orange,diamond
0.0,5.0,0.5,1.0,6.0,6.0,398.9205290563404,1.0,1.0,phase_2,go,200.0,350.0,1.0,,,,,,,,,white,cross
0.0,3.0,2.0,0.0,6.0,6.0,502.1946979686618,1.0,1.0,phase_2,go,200.0,350.0,1.0,,,,,,,,,orange,diamond
0.0,4.0,4.0,0.0,6.0,6.0,782.6645029708743,1.0,1.0,phase_2,go,200.0,350.0,1.0,,,,,,,,,gray,square
0.0,7.0,2.0,1.0,5.0,0.0,0.0,1.0,1.0,phase_2,stop,200.0,350.0,4.0,,,,,,,,,blue,flipped triangle
0.0,7.0,2.0,1.0,5.0,5.0,540.215460001491,1.0,1.0,phase_2,go,250.0,350.0,1.0,,,,,,,,,blue,flipped triangle
0.0,7.0,2.0,1.0,6.0,6.0,343.1829600594938,1.0,1.0,phase_2,stop,250.0,350.0,3.0,,,,,,,,,blue,flipped triangle
0.0,4.0,4.0,0.0,5.0,5.0,603.161450009793,1.0,1.0,phase_2,go,250.0,300.0,1.0,,,,,,,,,gray,square
0.0,8.0,4.0,1.0,6.0,0.0,0.0,1.0,1.0,phase_2,stop,250.0,300.0,4.0,,,,,,,,,yellow,hexagon
0.0,7.0,2.0,1.0,5.0,0.0,0.0,1.0,1.0,phase_2,stop,250.0,350.0,4.0,,,,,,,,,blue,flipped triangle
0.0,5.0,0.5,1.0,5.0,0.0,0.0,1.0,1.0,phase_2,stop,300.0,350.0,4.0,,,,,,,,,white,cross
0.0,3.0,2.0,0.0,6.0,6.0,609.1198569629341,1.0,1.0,phase_2,go,350.0,350.0,1.0,,,,,,,,,orange,diamond
0.0,5.0,0.5,1.0,6.0,6.0,435.8563610585406,1.0,1.0,phase_2,go,350.0,350.0,1.0,,,,,,,,,white,cross
0.0,7.0,2.0,1.0,5.0,0.0,0.0,1.0,1.0,phase_2,stop,350.0,350.0,4.0,,,,,,,,,blue,flipped triangle
0.0,7.0,2.0,1.0,6.0,0.0,0.0,1.0,1.0,phase_2,stop,400.0,350.0,4.0,,,,,,,,,blue,flipped triangle
0.0,2.0,1.0,0.0,5.0,5.0,679.5432199724019,1.0,1.0,phase_2,go,400.0,400.0,1.0,,,,,,,,,magenta,I
0.0,1.0,0.5,0.0,6.0,6.0,815.4198779957369,1.0,1.0,phase_2,go,400.0,400.0,1.0,,,,,,,,,cyan,triangle
0.0,4.0,4.0,0.0,5.0,5.0,768.4581259964034,1.0,1.0,phase_2,go,400.0,400.0,1.0,,,,,,,,,gray,square
0.0,5.0,0.5,1.0,5.0,5.0,720.811715000309,1.0,1.0,phase_2,go,400.0,400.0,1.0,,,,,,,,,white,cross
0.0,2.0,1.0,0.0,5.0,5.0,772.5601650308818,1.0,1.0,phase_2,go,400.0,400.0,1.0,,,,,,,,,magenta,I
0.0,7.0,2.0,1.0,6.0,0.0,0.0,1.0,1.0,phase_2,stop,400.0,400.0,4.0,,,,,,,,,blue,flipped triangle
0.0,3.0,2.0,0.0,6.0,6.0,783.3463130518794,1.0,1.0,phase_2,go,400.0,450.0,1.0,,,,,,,,,orange,diamond
0.0,1.0,0.5,0.0,6.0,6.0,1198.537701042369,1.0,1.0,phase_2,go,400.0,450.0,1.0,,,,,,,,,cyan,triangle
0.0,8.0,4.0,1.0,6.0,0.0,0.0,1.0,1.0,phase_2,stop,400.0,450.0,4.0,,,,,,,,,yellow,hexagon
0.0,3.0,2.0,0.0,6.0,6.0,754.5808630529791,1.0,1.0,phase_2,go,400.0,500.0,1.0,,,,,,,,,orange,diamond
0.0,5.0,0.5,1.0,6.0,0.0,0.0,1.0,1.0,phase_2,stop,400.0,500.0,4.0,,,,,,,,,white,cross
0.0,3.0,2.0,0.0,5.0,5.0,865.8034920226783,1.0,1.0,phase_2,go,400.0,550.0,1.0,,,,,,,,,orange,diamond
0.0,1.0,0.5,0.0,6.0,6.0,1195.6847860710695,1.0,1.0,phase_2,go,400.0,550.0,1.0,,,,,,,,,cyan,triangle
0.0,2.0,1.0,0.0,6.0,6.0,683.6737290723249,1.0,1.0,phase_2,go,400.0,550.0,1.0,,,,,,,,,magenta,I
0.0,4.0,4.0,0.0,5.0,5.0,459.7663369495421,2.0,1.0,phase_2,go,400.0,550.0,1.0,,,,,,,,,gray,square
0.0,5.0,0.5,1.0,5.0,5.0,363.6871579801664,2.0,1.0,phase_2,stop,400.0,550.0,3.0,,,,,,,,,white,cross
0.0,4.0,4.0,0.0,5.0,5.0,323.4009719453752,2.0,1.0,phase_2,go,350.0,550.0,1.0,,,,,,,,,gray,square
0.0,7.0,2.0,1.0,5.0,5.0,295.8687220234424,2.0,1.0,phase_2,stop,350.0,550.0,3.0,,,,,,,,,blue,flipped triangle
0.0,1.0,0.5,0.0,5.0,5.0,537.1245100395754,2.0,1.0,phase_2,go,300.0,550.0,1.0,,,,,,,,,cyan,triangle
0.0,4.0,4.0,0.0,6.0,6.0,277.960081002675,2.0,1.0,phase_2,go,300.0,550.0,1.0,,,,,,,,,gray,square
0.0,4.0,4.0,0.0,6.0,6.0,320.143471006304,2.0,1.0,phase_2,go,300.0,550.0,1.0,,,,,,,,,gray,square
0.0,6.0,1.0,1.0,5.0,0.0,0.0,2.0,1.0,phase_2,stop,300.0,550.0,4.0,,,,,,,,,green,circle
0.0,8.0,4.0,1.0,5.0,5.0,695.5790990032256,2.0,1.0,phase_2,go,350.0,550.0,1.0,,,,,,,,,yellow,hexagon
0.0,2.0,1.0,0.0,6.0,6.0,270.4255819553509,2.0,1.0,phase_2,go,350.0,550.0,1.0,,,,,,,,,magenta,I
0.0,6.0,1.0,1.0,6.0,6.0,318.0128820240497,2.0,1.0,phase_2,go,350.0,550.0,1.0,,,,,,,,,green,circle
0.0,8.0,4.0,1.0,5.0,5.0,635.7350880280137,2.0,1.0,phase_2,go,350.0,550.0,1.0,,,,,,,,,yellow,hexagon
0.0,6.0,1.0,1.0,5.0,5.0,330.9619289357215,2.0,1.0,phase_2,stop,350.0,550.0,3.0,,,,,,,,,green,circle
0.0,1.0,0.5,0.0,5.0,5.0,405.8945920551196,2.0,1.0,phase_2,go,300.0,550.0,1.0,,,,,,,,,cyan,triangle
0.0,7.0,2.0,1.0,5.0,5.0,443.0632449220866,2.0,1.0,phase_2,stop,300.0,550.0,3.0,,,,,,,,,blue,flipped triangle
0.0,8.0,4.0,1.0,5.0,0.0,0.0,2.0,1.0,phase_2,stop,250.0,550.0,4.0,,,,,,,,,yellow,hexagon
0.0,8.0,4.0,1.0,6.0,6.0,360.367264947854,2.0,1.0,phase_2,go,300.0,550.0,1.0,,,,,,,,,yellow,hexagon
0.0,6.0,1.0,1.0,5.0,0.0,0.0,2.0,1.0,phase_2,stop,300.0,550.0,4.0,,,,,,,,,green,circle
0.0,1.0,0.5,0.0,6.0,6.0,497.5774809718132,2.0,1.0,phase_2,go,350.0,550.0,1.0,,,,,,,,,cyan,triangle
0.0,3.0,2.0,0.0,5.0,5.0,775.6996219977736,2.0,1.0,phase_2,go,350.0,550.0,1.0,,,,,,,,,orange,diamond
0.0,1.0,0.5,0.0,5.0,5.0,319.1121179843321,2.0,1.0,phase_2,go,350.0,550.0,1.0,,,,,,,,,cyan,triangle
0.0,1.0,0.5,0.0,5.0,5.0,334.0218720259145,2.0,1.0,phase_2,go,350.0,550.0,1.0,,,,,,,,,cyan,triangle
0.0,5.0,0.5,1.0,6.0,6.0,432.032098993659,2.0,1.0,phase_2,stop,350.0,550.0,3.0,,,,,,,,,white,cross
0.0,1.0,0.5,0.0,5.0,5.0,582.9533489886671,2.0,1.0,phase_2,go,350.0,500.0,1.0,,,,,,,,,cyan,triangle
0.0,6.0,1.0,1.0,6.0,6.0,476.7289120936766,2.0,1.0,phase_2,stop,350.0,500.0,3.0,,,,,,,,,green,circle
0.0,7.0,2.0,1.0,5.0,5.0,411.0991089837625,2.0,1.0,phase_2,stop,350.0,450.0,3.0,,,,,,,,,blue,flipped triangle
0.0,6.0,1.0,1.0,6.0,6.0,509.10162297077477,2.0,1.0,phase_2,stop,300.0,450.0,3.0,,,,,,,,,green,circle
0.0,3.0,2.0,0.0,6.0,6.0,612.8388360375538,2.0,1.0,phase_2,go,300.0,400.0,1.0,,,,,,,,,orange,diamond
0.0,8.0,4.0,1.0,6.0,6.0,373.423638055101,2.0,1.0,phase_2,stop,300.0,400.0,3.0,,,,,,,,,yellow,hexagon
0.0,4.0,4.0,0.0,5.0,5.0,688.6275539873168,2.0,1.0,phase_2,go,300.0,350.0,1.0,,,,,,,,,gray,square
0.0,8.0,4.0,1.0,5.0,0.0,0.0,2.0,1.0,phase_2,stop,300.0,350.0,4.0,,,,,,,,,yellow,hexagon
0.0,7.0,2.0,1.0,6.0,6.0,479.6545399585739,2.0,1.0,phase_2,stop,350.0,350.0,3.0,,,,,,,,,blue,flipped triangle
0.0,3.0,2.0,0.0,5.0,5.0,823.4572310466319,2.0,1.0,phase_2,go,350.0,300.0,1.0,,,,,,,,,orange,diamond
0.0,3.0,2.0,0.0,6.0,6.0,710.469176992774,2.0,1.0,phase_2,go,350.0,300.0,1.0,,,,,,,,,orange,diamond
0.0,7.0,2.0,1.0,5.0,5.0,439.8800099734217,2.0,1.0,phase_2,stop,350.0,300.0,3.0,,,,,,,,,blue,flipped triangle
0.0,6.0,1.0,1.0,5.0,5.0,688.8684789882973,2.0,1.0,phase_2,go,300.0,300.0,1.0,,,,,,,,,green,circle
0.0,6.0,1.0,1.0,5.0,5.0,509.3204480363056,3.0,1.0,phase_2,stop,300.0,300.0,3.0,,,,,,,,,green,circle
0.0,7.0,2.0,1.0,6.0,0.0,0.0,3.0,1.0,phase_2,stop,250.0,300.0,4.0,,,,,,,,,blue,flipped triangle
0.0,3.0,2.0,0.0,5.0,5.0,419.2653669742867,3.0,1.0,phase_2,go,250.0,350.0,1.0,,,,,,,,,orange,diamond
0.0,6.0,1.0,1.0,6.0,6.0,430.1193110877648,3.0,1.0,phase_2,go,250.0,350.0,1.0,,,,,,,,,green,circle
0.0,2.0,1.0,0.0,5.0,5.0,347.91652800049627,3.0,1.0,phase_2,go,250.0,350.0,1.0,,,,,,,,,magenta,I
0.0,1.0,0.5,0.0,5.0,5.0,330.0732260104269,3.0,1.0,phase_2,go,250.0,350.0,1.0,,,,,,,,,cyan,triangle
0.0,4.0,4.0,0.0,6.0,6.0,435.2942010154947,3.0,1.0,phase_2,go,250.0,350.0,1.0,,,,,,,,,gray,square
0.0,8.0,4.0,1.0,6.0,0.0,0.0,3.0,1.0,phase_2,stop,250.0,350.0,4.0,,,,,,,,,yellow,hexagon
0.0,8.0,4.0,1.0,5.0,0.0,0.0,3.0,1.0,phase_2,stop,250.0,400.0,4.0,,,,,,,,,yellow,hexagon
0.0,3.0,2.0,0.0,6.0,6.0,742.8528310265392,3.0,1.0,phase_2,go,300.0,400.0,1.0,,,,,,,,,orange,diamond
0.0,6.0,1.0,1.0,6.0,0.0,0.0,3.0,1.0,phase_2,stop,300.0,400.0,4.0,,,,,,,,,green,circle
0.0,2.0,1.0,0.0,6.0,6.0,608.3343320060521,3.0,1.0,phase_2,go,300.0,450.0,1.0,,,,,,,,,magenta,I
0.0,2.0,1.0,0.0,6.0,6.0,574.1540970047936,3.0,1.0,phase_2,go,300.0,450.0,1.0,,,,,,,,,magenta,I
0.0,2.0,1.0,0.0,6.0,6.0,564.4466490484774,3.0,1.0,phase_2,go,300.0,450.0,1.0,,,,,,,,,magenta,I
0.0,3.0,2.0,0.0,6.0,6.0,517.6664129830897,3.0,1.0,phase_2,go,300.0,450.0,1.0,,,,,,,,,orange,diamond
0.0,3.0,2.0,0.0,5.0,5.0,550.0715969828889,3.0,1.0,phase_2,go,300.0,450.0,1.0,,,,,,,,,orange,diamond
0.0,1.0,0.5,0.0,6.0,6.0,459.8378910450265,3.0,1.0,phase_2,go,300.0,450.0,1.0,,,,,,,,,cyan,triangle
0.0,5.0,0.5,1.0,5.0,0.0,0.0,3.0,1.0,phase_2,stop,300.0,450.0,4.0,,,,,,,,,white,cross
0.0,1.0,0.5,0.0,5.0,5.0,533.3215489517897,3.0,1.0,phase_2,go,350.0,450.0,1.0,,,,,,,,,cyan,triangle
0.0,1.0,0.5,0.0,6.0,6.0,347.4143410567194,3.0,1.0,phase_2,go,350.0,450.0,1.0,,,,,,,,,cyan,triangle
0.0,5.0,0.5,1.0,6.0,6.0,657.695105066523,3.0,1.0,phase_2,go,350.0,450.0,1.0,,,,,,,,,white,cross
0.0,8.0,4.0,1.0,5.0,5.0,376.1367670958861,3.0,1.0,phase_2,stop,350.0,450.0,3.0,,,,,,,,,yellow,hexagon
0.0,4.0,4.0,0.0,5.0,5.0,496.1172689218074,3.0,1.0,phase_2,go,300.0,450.0,1.0,,,,,,,,,gray,square
0.0,5.0,0.5,1.0,5.0,5.0,395.0141950044781,3.0,1.0,phase_2,stop,300.0,450.0,3.0,,,,,,,,,white,cross
0.0,4.0,4.0,0.0,6.0,6.0,377.7023740112781,3.0,1.0,phase_2,go,250.0,450.0,1.0,,,,,,,,,gray,square
0.0,4.0,4.0,0.0,5.0,5.0,406.4340870827436,3.0,1.0,phase_2,go,250.0,450.0,1.0,,,,,,,,,gray,square
0.0,7.0,2.0,1.0,5.0,5.0,377.9255779227242,3.0,1.0,phase_2,go,250.0,450.0,1.0,,,,,,,,,blue,flipped triangle
0.0,4.0,4.0,0.0,6.0,6.0,285.2931660600006,3.0,1.0,phase_2,go,250.0,450.0,1.0,,,,,,,,,gray,square
0.0,8.0,4.0,1.0,5.0,0.0,0.0,3.0,1.0,phase_2,stop,250.0,450.0,4.0,,,,,,,,,yellow,hexagon
0.0,7.0,2.0,1.0,5.0,5.0,334.9783739540726,3.0,1.0,phase_2,stop,300.0,450.0,3.0,,,,,,,,,blue,flipped triangle
0.0,1.0,0.5,0.0,6.0,6.0,335.5714930221438,3.0,1.0,phase_2,go,250.0,450.0,1.0,,,,,,,,,cyan,triangle
0.0,5.0,0.5,1.0,6.0,6.0,373.6869459971785,3.0,1.0,phase_2,stop,250.0,450.0,3.0,,,,,,,,,white,cross
0.0,5.0,0.5,1.0,6.0,0.0,0.0,3.0,1.0,phase_2,stop,250.0,400.0,4.0,,,,,,,,,white,cross
0.0,4.0,4.0,0.0,6.0,6.0,508.95244802813977,3.0,1.0,phase_2,go,250.0,450.0,1.0,,,,,,,,,gray,square
0.0,8.0,4.0,1.0,6.0,6.0,442.785904975608,3.0,1.0,phase_2,stop,250.0,450.0,3.0,,,,,,,,,yellow,hexagon
0.0,3.0,2.0,0.0,6.0,6.0,722.5532120792195,3.0,1.0,phase_2,go,250.0,400.0,1.0,,,,,,,,,orange,diamond
0.0,7.0,2.0,1.0,6.0,6.0,423.8679389236495,4.0,1.0,phase_2,stop,250.0,400.0,3.0,,,,,,,,,blue,flipped triangle
0.0,4.0,4.0,0.0,5.0,5.0,309.7967479843646,4.0,1.0,phase_2,go,250.0,350.0,1.0,,,,,,,,,gray,square
0.0,3.0,2.0,0.0,6.0,6.0,373.1216699816286,4.0,1.0,phase_2,go,250.0,350.0,1.0,,,,,,,,,orange,diamond
0.0,8.0,4.0,1.0,5.0,5.0,335.3411810239777,4.0,1.0,phase_2,stop,250.0,350.0,3.0,,,,,,,,,yellow,hexagon
0.0,2.0,1.0,0.0,5.0,5.0,541.8660580180585,4.0,1.0,phase_2,go,200.0,350.0,1.0,,,,,,,,,magenta,I
0.0,6.0,1.0,1.0,6.0,6.0,251.68824603315437,4.0,1.0,phase_2,stop,200.0,350.0,3.0,,,,,,,,,green,circle
0.0,1.0,0.5,0.0,6.0,6.0,378.7869639927521,4.0,1.0,phase_2,go,200.0,300.0,1.0,,,,,,,,,cyan,triangle
0.0,6.0,1.0,1.0,6.0,6.0,369.5624429965392,4.0,1.0,phase_2,stop,200.0,300.0,3.0,,,,,,,,,green,circle
0.0,1.0,0.5,0.0,5.0,5.0,794.0865569980815,4.0,1.0,phase_2,go,200.0,250.0,1.0,,,,,,,,,cyan,triangle
0.0,1.0,0.5,0.0,5.0,5.0,338.1419300567359,4.0,1.0,phase_2,go,200.0,250.0,1.0,,,,,,,,,cyan,triangle
0.0,3.0,2.0,0.0,5.0,5.0,374.995224061422,4.0,1.0,phase_2,go,200.0,250.0,1.0,,,,,,,,,orange,diamond
0.0,8.0,4.0,1.0,5.0,5.0,335.4225939838215,4.0,1.0,phase_2,stop,200.0,250.0,3.0,,,,,,,,,yellow,hexagon
0.0,7.0,2.0,1.0,6.0,6.0,353.42156002298,4.0,1.0,phase_2,stop,150.0,250.0,3.0,,,,,,,,,blue,flipped triangle
0.0,2.0,1.0,0.0,5.0,5.0,327.1483680000528,4.0,1.0,phase_2,go,150.0,200.0,1.0,,,,,,,,,magenta,I
0.0,4.0,4.0,0.0,5.0,5.0,335.0475979968905,4.0,1.0,phase_2,go,150.0,200.0,1.0,,,,,,,,,gray,square
0.0,4.0,4.0,0.0,6.0,6.0,275.8415209827944,4.0,1.0,phase_2,go,150.0,200.0,1.0,,,,,,,,,gray,square
0.0,5.0,0.5,1.0,5.0,5.0,278.7314420565963,4.0,1.0,phase_2,go,150.0,200.0,1.0,,,,,,,,,white,cross
0.0,1.0,0.5,0.0,5.0,5.0,532.8832940431312,4.0,1.0,phase_2,go,150.0,200.0,1.0,,,,,,,,,cyan,triangle
0.0,3.0,2.0,0.0,5.0,5.0,322.8634350234642,4.0,1.0,phase_2,go,150.0,200.0,1.0,,,,,,,,,orange,diamond
0.0,4.0,4.0,0.0,6.0,6.0,298.2551369350403,4.0,1.0,phase_2,go,150.0,200.0,1.0,,,,,,,,,gray,square
0.0,7.0,2.0,1.0,6.0,6.0,313.8590280432254,4.0,1.0,phase_2,go,150.0,200.0,1.0,,,,,,,,,blue,flipped triangle
0.0,8.0,4.0,1.0,5.0,5.0,267.0920829987153,4.0,1.0,phase_2,stop,150.0,200.0,3.0,,,,,,,,,yellow,hexagon
0.0,5.0,0.5,1.0,6.0,6.0,352.7278751134872,4.0,1.0,phase_2,stop,100.0,200.0,3.0,,,,,,,,,white,cross
0.0,4.0,4.0,0.0,6.0,6.0,320.3262500464916,4.0,1.0,phase_2,go,100.0,150.0,1.0,,,,,,,,,gray,square
0.0,5.0,0.5,1.0,6.0,6.0,295.3282530652359,4.0,1.0,phase_2,go,100.0,150.0,1.0,,,,,,,,,white,cross
0.0,2.0,1.0,0.0,5.0,5.0,265.2637190185487,4.0,1.0,phase_2,go,100.0,150.0,1.0,,,,,,,,,magenta,I
0.0,8.0,4.0,1.0,6.0,6.0,264.6797869820148,4.0,1.0,phase_2,go,100.0,150.0,1.0,,,,,,,,,yellow,hexagon
0.0,5.0,0.5,1.0,5.0,5.0,327.9270170023665,4.0,1.0,phase_2,stop,100.0,150.0,3.0,,,,,,,,,white,cross
0.0,2.0,1.0,0.0,6.0,6.0,294.6324739605188,4.0,1.0,phase_2,go,50.0,150.0,1.0,,,,,,,,,magenta,I
0.0,5.0,0.5,1.0,6.0,6.0,340.647853910923,4.0,1.0,phase_2,go,50.0,150.0,1.0,,,,,,,,,white,cross
0.0,3.0,2.0,0.0,6.0,6.0,270.406965049915,4.0,1.0,phase_2,go,50.0,150.0,1.0,,,,,,,,,orange,diamond
0.0,6.0,1.0,1.0,6.0,6.0,347.3424960393458,4.0,1.0,phase_2,stop,50.0,150.0,3.0,,,,,,,,,green,circle
0.0,8.0,4.0,1.0,6.0,0.0,0.0,4.0,1.0,phase_2,stop,50.0,100.0,4.0,,,,,,,,,yellow,hexagon
0.0,7.0,2.0,1.0,5.0,5.0,318.633976043202,4.0,1.0,phase_2,go,50.0,150.0,1.0,,,,,,,,,blue,flipped triangle
0.0,6.0,1.0,1.0,6.0,6.0,313.9407240087166,4.0,1.0,phase_2,stop,50.0,150.0,3.0,,,,,,,,,green,circle
0.0,8.0,4.0,1.0,6.0,0.0,0.0,4.0,1.0,phase_2,stop,50.0,100.0,4.0,,,,,,,,,yellow,hexagon
0.0,2.0,1.0,0.0,5.0,5.0,427.032831008546,5.0,1.0,phase_2,go,50.0,150.0,1.0,,,,,,,,,magenta,I
0.0,6.0,1.0,1.0,6.0,0.0,0.0,5.0,1.0,phase_2,stop,50.0,150.0,4.0,,,,,,,,,green,circle
0.0,6.0,1.0,1.0,6.0,0.0,0.0,5.0,1.0,phase_2,stop,50.0,200.0,4.0,,,,,,,,,green,circle
0.0,2.0,1.0,0.0,6.0,6.0,479.718460002914,5.0,1.0,phase_2,go,50.0,250.0,1.0,,,,,,,,,magenta,I
0.0,1.0,0.5,0.0,5.0,5.0,285.0841709878295,5.0,1.0,phase_2,go,50.0,250.0,1.0,,,,,,,,,cyan,triangle
0.0,6.0,1.0,1.0,6.0,0.0,0.0,5.0,1.0,phase_2,stop,50.0,250.0,4.0,,,,,,,,,green,circle
0.0,3.0,2.0,0.0,6.0,6.0,476.4614410232752,5.0,1.0,phase_2,go,50.0,300.0,1.0,,,,,,,,,orange,diamond
0.0,5.0,0.5,1.0,6.0,6.0,364.2163220793009,5.0,1.0,phase_2,go,50.0,300.0,1.0,,,,,,,,,white,cross
0.0,1.0,0.5,0.0,6.0,6.0,499.500575941056,5.0,1.0,phase_2,go,50.0,300.0,1.0,,,,,,,,,cyan,triangle
0.0,5.0,0.5,1.0,5.0,0.0,0.0,5.0,1.0,phase_2,stop,50.0,300.0,4.0,,,,,,,,,white,cross
0.0,8.0,4.0,1.0,6.0,0.0,0.0,5.0,1.0,phase_2,stop,100.0,300.0,4.0,,,,,,,,,yellow,hexagon
0.0,4.0,4.0,0.0,5.0,5.0,553.1503489473835,5.0,1.0,phase_2,go,100.0,350.0,1.0,,,,,,,,,gray,square
0.0,3.0,2.0,0.0,6.0,6.0,763.2003619801253,5.0,1.0,phase_2,go,100.0,350.0,1.0,,,,,,,,,orange,diamond
0.0,8.0,4.0,1.0,6.0,6.0,322.5013529881835,5.0,1.0,phase_2,go,100.0,350.0,1.0,,,,,,,,,yellow,hexagon
0.0,5.0,0.5,1.0,5.0,0.0,0.0,5.0,1.0,phase_2,stop,100.0,350.0,4.0,,,,,,,,,white,cross
0.0,4.0,4.0,0.0,6.0,6.0,369.9622279964387,5.0,1.0,phase_2,go,150.0,350.0,1.0,,,,,,,,,gray,square
0.0,3.0,2.0,0.0,5.0,5.0,281.7850999999791,5.0,1.0,phase_2,go,150.0,350.0,1.0,,,,,,,,,orange,diamond
0.0,6.0,1.0,1.0,5.0,5.0,368.3470149990171,5.0,1.0,phase_2,stop,150.0,350.0,3.0,,,,,,,,,green,circle
0.0,6.0,1.0,1.0,6.0,6.0,277.7387150563299,5.0,1.0,phase_2,go,100.0,350.0,1.0,,,,,,,,,green,circle
0.0,5.0,0.5,1.0,6.0,6.0,422.6287349592894,5.0,1.0,phase_2,stop,100.0,350.0,3.0,,,,,,,,,white,cross
0.0,4.0,4.0,0.0,5.0,5.0,516.2581320619211,5.0,1.0,phase_2,go,100.0,300.0,1.0,,,,,,,,,gray,square
0.0,6.0,1.0,1.0,6.0,6.0,379.4333640253171,5.0,1.0,phase_2,stop,100.0,300.0,3.0,,,,,,,,,green,circle
0.0,5.0,0.5,1.0,5.0,0.0,0.0,5.0,1.0,phase_2,stop,100.0,250.0,4.0,,,,,,,,,white,cross
0.0,7.0,2.0,1.0,5.0,0.0,0.0,5.0,1.0,phase_2,stop,150.0,250.0,4.0,,,,,,,,,blue,flipped triangle
0.0,2.0,1.0,0.0,6.0,6.0,347.3805940011516,5.0,1.0,phase_2,go,200.0,250.0,1.0,,,,,,,,,magenta,I
0.0,7.0,2.0,1.0,5.0,5.0,572.3415788961574,5.0,1.0,phase_2,go,200.0,250.0,1.0,,,,,,,,,blue,flipped triangle
0.0,3.0,2.0,0.0,5.0,5.0,410.5299839284271,5.0,1.0,phase_2,go,200.0,250.0,1.0,,,,,,,,,orange,diamond
0.0,7.0,2.0,1.0,6.0,6.0,474.7896089684218,5.0,1.0,phase_2,go,200.0,250.0,1.0,,,,,,,,,blue,flipped triangle
0.0,4.0,4.0,0.0,5.0,5.0,466.3008030038327,5.0,1.0,phase_2,go,200.0,250.0,1.0,,,,,,,,,gray,square
0.0,5.0,0.5,1.0,6.0,6.0,331.5298520028591,5.0,1.0,phase_2,stop,200.0,250.0,3.0,,,,,,,,,white,cross
0.0,2.0,1.0,0.0,5.0,5.0,394.6137669263407,5.0,1.0,phase_2,go,200.0,200.0,1.0,,,,,,,,,magenta,I
0.0,6.0,1.0,1.0,5.0,5.0,377.6647809427231,5.0,1.0,phase_2,go,200.0,200.0,1.0,,,,,,,,,green,circle
0.0,4.0,4.0,0.0,5.0,5.0,345.2836739597842,5.0,1.0,phase_2,go,200.0,200.0,1.0,,,,,,,,,gray,square
0.0,2.0,1.0,0.0,6.0,6.0,438.0765339592471,5.0,1.0,phase_2,go,200.0,200.0,1.0,,,,,,,,,magenta,I
0.0,5.0,0.5,1.0,6.0,0.0,0.0,5.0,1.0,phase_2,stop,200.0,200.0,4.0,,,,,,,,,white,cross
0.0,7.0,2.0,1.0,5.0,0.0,0.0,5.0,1.0,phase_2,stop,200.0,250.0,4.0,,,,,,,,,blue,flipped triangle
0.0,7.0,2.0,1.0,6.0,0.0,0.0,6.0,1.0,phase_2,stop,250.0,250.0,4.0,,,,,,,,,blue,flipped triangle
0.0,2.0,1.0,0.0,5.0,5.0,388.9265500474721,6.0,1.0,phase_2,go,250.0,300.0,1.0,,,,,,,,,magenta,I
0.0,3.0,2.0,0.0,6.0,6.0,513.9324830379337,6.0,1.0,phase_2,go,250.0,300.0,1.0,,,,,,,,,orange,diamond
0.0,7.0,2.0,1.0,5.0,0.0,0.0,6.0,1.0,phase_2,stop,250.0,300.0,4.0,,,,,,,,,blue,flipped triangle
0.0,2.0,1.0,0.0,6.0,6.0,523.8477580714971,6.0,1.0,phase_2,go,300.0,300.0,1.0,,,,,,,,,magenta,I
0.0,6.0,1.0,1.0,5.0,0.0,0.0,6.0,1.0,phase_2,stop,300.0,300.0,4.0,,,,,,,,,green,circle
0.0,2.0,1.0,0.0,5.0,5.0,561.1016439506784,6.0,1.0,phase_2,go,350.0,300.0,1.0,,,,,,,,,magenta,I
0.0,5.0,0.5,1.0,6.0,6.0,383.5650869878009,6.0,1.0,phase_2,stop,350.0,300.0,3.0,,,,,,,,,white,cross
0.0,3.0,2.0,0.0,5.0,5.0,646.6520800022408,6.0,1.0,phase_2,go,350.0,250.0,1.0,,,,,,,,,orange,diamond
0.0,1.0,0.5,0.0,5.0,5.0,390.0754119968042,6.0,1.0,phase_2,go,350.0,250.0,1.0,,,,,,,,,cyan,triangle
0.0,2.0,1.0,0.0,5.0,5.0,369.2487690132111,6.0,1.0,phase_2,go,350.0,250.0,1.0,,,,,,,,,magenta,I
0.0,1.0,0.5,0.0,5.0,5.0,420.6466759787872,6.0,1.0,phase_2,go,350.0,250.0,1.0,,,,,,,,,cyan,triangle
0.0,7.0,2.0,1.0,6.0,6.0,399.7257960727438,6.0,1.0,phase_2,go,350.0,250.0,1.0,,,,,,,,,blue,flipped triangle
0.0,5.0,0.5,1.0,5.0,5.0,468.7861689599231,6.0,1.0,phase_2,stop,350.0,250.0,3.0,,,,,,,,,white,cross
0.0,1.0,0.5,0.0,6.0,6.0,550.4667870700359,6.0,1.0,phase_2,go,300.0,250.0,1.0,,,,,,,,,cyan,triangle
0.0,1.0,0.5,0.0,6.0,6.0,725.995406974107,6.0,1.0,phase_2,go,300.0,250.0,1.0,,,,,,,,,cyan,triangle
0.0,6.0,1.0,1.0,5.0,0.0,0.0,6.0,1.0,phase_2,stop,300.0,250.0,4.0,,,,,,,,,green,circle
0.0,7.0,2.0,1.0,5.0,0.0,0.0,6.0,1.0,phase_2,stop,350.0,250.0,4.0,,,,,,,,,blue,flipped triangle
0.0,7.0,2.0,1.0,6.0,6.0,329.4872159603983,6.0,1.0,phase_2,stop,400.0,250.0,3.0,,,,,,,,,blue,flipped triangle
0.0,1.0,0.5,0.0,5.0,5.0,560.7623260002583,6.0,1.0,phase_2,go,400.0,200.0,1.0,,,,,,,,,cyan,triangle
0.0,7.0,2.0,1.0,6.0,0.0,0.0,6.0,1.0,phase_2,stop,400.0,200.0,4.0,,,,,,,,,blue,flipped triangle
0.0,2.0,1.0,0.0,5.0,5.0,711.7524149361998,6.0,1.0,phase_2,go,400.0,250.0,1.0,,,,,,,,,magenta,I
0.0,4.0,4.0,0.0,6.0,6.0,634.6008069813251,6.0,1.0,phase_2,go,400.0,250.0,1.0,,,,,,,,,gray,square
0.0,2.0,1.0,0.0,6.0,6.0,513.3761710021645,6.0,1.0,phase_2,go,400.0,250.0,1.0,,,,,,,,,magenta,I
0.0,4.0,4.0,0.0,6.0,6.0,495.319077046588,6.0,1.0,phase_2,go,400.0,250.0,1.0,,,,,,,,,gray,square
0.0,7.0,2.0,1.0,6.0,0.0,0.0,6.0,1.0,phase_2,stop,400.0,250.0,4.0,,,,,,,,,blue,flipped triangle
0.0,4.0,4.0,0.0,6.0,6.0,790.84738495294,6.0,1.0,phase_2,go,400.0,300.0,1.0,,,,,,,,,gray,square
0.0,4.0,4.0,0.0,5.0,5.0,724.1849539568648,6.0,1.0,phase_2,go,400.0,300.0,1.0,,,,,,,,,gray,square
0.0,2.0,1.0,0.0,5.0,5.0,582.8531810548156,6.0,1.0,phase_2,go,400.0,300.0,1.0,,,,,,,,,magenta,I
0.0,8.0,4.0,1.0,6.0,0.0,0.0,6.0,1.0,phase_2,stop,400.0,300.0,4.0,,,,,,,,,yellow,hexagon
0.0,2.0,1.0,0.0,5.0,5.0,562.4861710239202,6.0,1.0,phase_2,go,400.0,350.0,1.0,,,,,,,,,magenta,I
0.0,5.0,0.5,1.0,5.0,0.0,0.0,6.0,1.0,phase_2,stop,400.0,350.0,4.0,,,,,,,,,white,cross
0.0,7.0,2.0,1.0,6.0,6.0,570.2710300683975,6.0,1.0,phase_2,go,450.0,350.0,1.0,,,,,,,,,blue,flipped triangle
0.0,1.0,0.5,0.0,5.0,5.0,552.6775219477713,6.0,1.0,phase_2,go,450.0,350.0,1.0,,,,,,,,,cyan,triangle
0.0,7.0,2.0,1.0,5.0,5.0,504.79842093773186,6.0,1.0,phase_2,go,450.0,350.0,1.0,,,,,,,,,blue,flipped triangle
0.0,2.0,1.0,0.0,6.0,6.0,447.8277650196105,6.0,1.0,phase_2,go,450.0,350.0,1.0,,,,,,,,,magenta,I
0.0,3.0,2.0,0.0,5.0,5.0,695.0184779707342,7.0,1.0,phase_2,go,450.0,350.0,1.0,,,,,,,,,orange,diamond
0.0,2.0,1.0,0.0,6.0,6.0,406.2971300445497,7.0,1.0,phase_2,go,450.0,350.0,1.0,,,,,,,,,magenta,I
0.0,6.0,1.0,1.0,5.0,0.0,0.0,7.0,1.0,phase_2,stop,450.0,350.0,4.0,,,,,,,,,green,circle
0.0,2.0,1.0,0.0,6.0,6.0,484.3018420506269,7.0,1.0,phase_2,go,500.0,350.0,1.0,,,,,,,,,magenta,I
0.0,2.0,1.0,0.0,5.0,5.0,409.8702790215611,7.0,1.0,phase_2,go,500.0,350.0,1.0,,,,,,,,,magenta,I
0.0,3.0,2.0,0.0,6.0,6.0,364.2316240584478,7.0,1.0,phase_2,go,500.0,350.0,1.0,,,,,,,,,orange,diamond
0.0,5.0,0.5,1.0,5.0,5.0,466.9944719644263,7.0,1.0,phase_2,stop,500.0,350.0,3.0,,,,,,,,,white,cross
0.0,6.0,1.0,1.0,5.0,5.0,569.8673820588738,7.0,1.0,phase_2,stop,450.0,350.0,3.0,,,,,,,,,green,circle
0.0,2.0,1.0,0.0,6.0,6.0,409.6174940932542,7.0,1.0,phase_2,go,400.0,350.0,1.0,,,,,,,,,magenta,I
0.0,5.0,0.5,1.0,5.0,0.0,0.0,7.0,1.0,phase_2,stop,400.0,350.0,4.0,,,,,,,,,white,cross
0.0,6.0,1.0,1.0,5.0,0.0,0.0,7.0,1.0,phase_2,stop,450.0,350.0,4.0,,,,,,,,,green,circle
0.0,1.0,0.5,0.0,5.0,5.0,621.4383919723332,7.0,1.0,phase_2,go,500.0,350.0,1.0,,,,,,,,,cyan,triangle
0.0,2.0,1.0,0.0,6.0,6.0,911.1766340211034,7.0,1.0,phase_2,go,500.0,350.0,1.0,,,,,,,,,magenta,I
0.0,4.0,4.0,0.0,5.0,5.0,748.9529990125448,7.0,1.0,phase_2,go,500.0,350.0,1.0,,,,,,,,,gray,square
0.0,1.0,0.5,0.0,6.0,6.0,596.8630489660427,7.0,1.0,phase_2,go,500.0,350.0,1.0,,,,,,,,,cyan,triangle
0.0,8.0,4.0,1.0,6.0,0.0,0.0,7.0,1.0,phase_2,stop,500.0,350.0,4.0,,,,,,,,,yellow,hexagon
0.0,2.0,1.0,0.0,6.0,6.0,638.9623449649662,7.0,1.0,phase_2,go,500.0,400.0,1.0,,,,,,,,,magenta,I
0.0,5.0,0.5,1.0,5.0,5.0,612.2255140217021,7.0,1.0,phase_2,stop,500.0,400.0,3.0,,,,,,,,,white,cross
0.0,3.0,2.0,0.0,5.0,5.0,945.3652850352228,7.0,1.0,phase_2,go,450.0,400.0,1.0,,,,,,,,,orange,diamond
0.0,1.0,0.5,0.0,6.0,6.0,499.8287779744714,7.0,1.0,phase_2,go,450.0,400.0,1.0,,,,,,,,,cyan,triangle
0.0,4.0,4.0,0.0,5.0,5.0,624.658849905245,7.0,1.0,phase_2,go,450.0,400.0,1.0,,,,,,,,,gray,square
0.0,6.0,1.0,1.0,5.0,0.0,0.0,7.0,1.0,phase_2,stop,450.0,400.0,4.0,,,,,,,,,green,circle
0.0,8.0,4.0,1.0,5.0,5.0,769.0526730148122,7.0,1.0,phase_2,go,500.0,400.0,1.0,,,,,,,,,yellow,hexagon
0.0,2.0,1.0,0.0,5.0,5.0,521.743729012087,7.0,1.0,phase_2,go,500.0,400.0,1.0,,,,,,,,,magenta,I
0.0,8.0,4.0,1.0,5.0,5.0,928.2356669427828,7.0,1.0,phase_2,go,500.0,400.0,1.0,,,,,,,,,yellow,hexagon
0.0,8.0,4.0,1.0,5.0,5.0,294.1103359917179,7.0,1.0,phase_2,stop,500.0,400.0,3.0,,,,,,,,,yellow,hexagon
0.0,6.0,1.0,1.0,5.0,0.0,0.0,7.0,1.0,phase_2,stop,450.0,400.0,4.0,,,,,,,,,green,circle
0.0,3.0,2.0,0.0,5.0,5.0,496.9679539790377,7.0,1.0,phase_2,go,500.0,400.0,1.0,,,,,,,,,orange,diamond
0.0,3.0,2.0,0.0,6.0,6.0,356.3198470510542,7.0,1.0,phase_2,go,500.0,400.0,1.0,,,,,,,,,orange,diamond
0.0,1.0,0.5,0.0,6.0,6.0,678.5209940280765,7.0,1.0,phase_2,go,500.0,400.0,1.0,,,,,,,,,cyan,triangle
0.0,7.0,2.0,1.0,6.0,0.0,0.0,7.0,1.0,phase_2,stop,500.0,400.0,4.0,,,,,,,,,blue,flipped triangle
0.0,4.0,4.0,0.0,6.0,6.0,692.5396710867062,7.0,1.0,phase_2,go,500.0,450.0,1.0,,,,,,,,,gray,square
0.0,4.0,4.0,0.0,5.0,5.0,724.6302340645343,7.0,1.0,phase_2,go,500.0,450.0,1.0,,,,,,,,,gray,square
0.0,8.0,4.0,1.0,6.0,6.0,681.4300609985366,7.0,1.0,phase_2,go,500.0,450.0,1.0,,,,,,,,,yellow,hexagon
0.0,3.0,2.0,0.0,5.0,5.0,676.0181010467932,7.0,1.0,phase_2,go,500.0,450.0,1.0,,,,,,,,,orange,diamond
0.0,4.0,4.0,0.0,6.0,6.0,602.9321099631488,7.0,1.0,phase_2,go,500.0,450.0,1.0,,,,,,,,,gray,square
0.0,5.0,0.5,1.0,5.0,5.0,306.2672319356352,8.0,1.0,phase_2,stop,500.0,450.0,3.0,,,,,,,,,white,cross
0.0,3.0,2.0,0.0,6.0,6.0,352.6637959294021,8.0,1.0,phase_2,go,450.0,450.0,1.0,,,,,,,,,orange,diamond
0.0,7.0,2.0,1.0,6.0,6.0,369.0299890004098,8.0,1.0,phase_2,stop,450.0,450.0,3.0,,,,,,,,,blue,flipped triangle
0.0,6.0,1.0,1.0,6.0,6.0,632.693822029978,8.0,1.0,phase_2,go,450.0,400.0,1.0,,,,,,,,,green,circle
0.0,6.0,1.0,1.0,5.0,5.0,504.78272791951895,8.0,1.0,phase_2,stop,450.0,400.0,3.0,,,,,,,,,green,circle
0.0,6.0,1.0,1.0,5.0,0.0,0.0,8.0,1.0,phase_2,stop,400.0,400.0,4.0,,,,,,,,,green,circle
0.0,3.0,2.0,0.0,5.0,5.0,528.3871060237288,8.0,1.0,phase_2,go,450.0,400.0,1.0,,,,,,,,,orange,diamond
0.0,8.0,4.0,1.0,6.0,6.0,486.7461889516562,8.0,1.0,phase_2,stop,450.0,400.0,3.0,,,,,,,,,yellow,hexagon
0.0,1.0,0.5,0.0,6.0,6.0,836.4106100052595,8.0,1.0,phase_2,go,450.0,350.0,1.0,,,,,,,,,cyan,triangle
0.0,5.0,0.5,1.0,6.0,6.0,675.7936599897221,8.0,1.0,phase_2,go,450.0,350.0,1.0,,,,,,,,,white,cross
0.0,6.0,1.0,1.0,5.0,5.0,642.8747810423374,8.0,1.0,phase_2,go,450.0,350.0,1.0,,,,,,,,,green,circle
0.0,4.0,4.0,0.0,6.0,6.0,674.2092889035121,8.0,1.0,phase_2,go,450.0,350.0,1.0,,,,,,,,,gray,square
0.0,7.0,2.0,1.0,6.0,0.0,0.0,8.0,1.0,phase_2,stop,450.0,350.0,4.0,,,,,,,,,blue,flipped triangle
0.0,6.0,1.0,1.0,6.0,6.0,843.2526950491592,8.0,1.0,phase_2,go,450.0,400.0,1.0,,,,,,,,,green,circle
0.0,2.0,1.0,0.0,6.0,6.0,603.6090449197218,8.0,1.0,phase_2,go,450.0,400.0,1.0,,,,,,,,,magenta,I
0.0,3.0,2.0,0.0,6.0,6.0,672.2544110380113,8.0,1.0,phase_2,go,450.0,400.0,1.0,,,,,,,,,orange,diamond
0.0,8.0,4.0,1.0,5.0,0.0,0.0,8.0,1.0,phase_2,stop,450.0,400.0,4.0,,,,,,,,,yellow,hexagon
0.0,5.0,0.5,1.0,5.0,5.0,497.488928027451,8.0,1.0,phase_2,stop,500.0,400.0,3.0,,,,,,,,,white,cross
0.0,4.0,4.0,0.0,5.0,5.0,833.3598109893501,8.0,1.0,phase_2,go,450.0,400.0,1.0,,,,,,,,,gray,square
0.0,8.0,4.0,1.0,5.0,5.0,510.3894389467314,8.0,1.0,phase_2,stop,450.0,400.0,3.0,,,,,,,,,yellow,hexagon
0.0,3.0,2.0,0.0,5.0,5.0,864.0656460775062,8.0,1.0,phase_2,go,400.0,400.0,1.0,,,,,,,,,orange,diamond
0.0,7.0,2.0,1.0,5.0,0.0,0.0,8.0,1.0,phase_2,stop,400.0,400.0,4.0,,,,,,,,,blue,flipped triangle
0.0,1.0,0.5,0.0,6.0,6.0,703.7851229542866,8.0,1.0,phase_2,go,450.0,400.0,1.0,,,,,,,,,cyan,triangle
0.0,6.0,1.0,1.0,6.0,0.0,0.0,8.0,1.0,phase_2,stop,450.0,400.0,4.0,,,,,,,,,green,circle
0.0,2.0,1.0,0.0,5.0,5.0,563.0793600575998,8.0,1.0,phase_2,go,450.0,450.0,1.0,,,,,,,,,magenta,I
0.0,8.0,4.0,1.0,5.0,0.0,0.0,8.0,1.0,phase_2,stop,450.0,450.0,4.0,,,,,,,,,yellow,hexagon
0.0,2.0,1.0,0.0,5.0,5.0,644.6250480366871,8.0,1.0,phase_2,go,500.0,450.0,1.0,,,,,,,,,magenta,I
0.0,5.0,0.5,1.0,6.0,0.0,0.0,8.0,1.0,phase_2,stop,500.0,450.0,4.0,,,,,,,,,white,cross
0.0,6.0,1.0,1.0,5.0,0.0,0.0,8.0,1.0,phase_2,stop,500.0,500.0,4.0,,,,,,,,,green,circle
0.0,1.0,0.5,0.0,5.0,5.0,628.2221080036834,8.0,1.0,phase_2,go,550.0,500.0,1.0,,,,,,,,,cyan,triangle
0.0,8.0,4.0,1.0,5.0,5.0,698.2833860674873,8.0,1.0,phase_2,go,550.0,500.0,1.0,,,,,,,,,yellow,hexagon
0.0,8.0,4.0,1.0,6.0,6.0,473.3368280576542,8.0,1.0,phase_2,stop,550.0,500.0,3.0,,,,,,,,,yellow,hexagon
0.0,6.0,1.0,1.0,6.0,6.0,734.6393748885021,8.0,1.0,phase_2,go,550.0,450.0,1.0,,,,,,,,,green,circle
0.0,8.0,4.0,1.0,6.0,0.0,0.0,8.0,1.0,phase_2,stop,550.0,450.0,4.0,,,,,,,,,yellow,hexagon
0.0,3.0,2.0,0.0,5.0,5.0,557.9157879110426,8.0,1.0,phase_2,go,550.0,500.0,1.0,,,,,,,,,orange,diamond
0.0,8.0,4.0,1.0,5.0,0.0,0.0,8.0,1.0,phase_2,stop,550.0,500.0,4.0,,,,,,,,,yellow,hexagon
0.0,8.0,4.0,1.0,7.0,3.0,4098.6763020046055,1.0,1.0,phase_3,,,,,196.0,4.0,245.0,294.0,196.0,49.0,98.0,147.0,yellow,hexagon
0.0,1.0,0.5,0.0,7.0,5.0,3684.223092044704,1.0,1.0,phase_3,,,,,270.0,5.0,324.0,108.0,54.0,162.0,270.0,216.0,cyan,triangle
0.0,6.0,1.0,1.0,7.0,6.0,2294.670926989056,1.0,1.0,phase_3,,,,,54.0,1.0,162.0,324.0,270.0,108.0,216.0,54.0,green,circle
0.0,5.0,0.5,1.0,7.0,1.0,2985.5683610076085,1.0,1.0,phase_3,,,,,234.0,6.0,234.0,117.0,195.0,78.0,156.0,39.0,white,cross
0.0,6.0,1.0,1.0,7.0,3.0,2385.8541189692914,1.0,1.0,phase_3,,,,,132.0,3.0,44.0,176.0,132.0,88.0,264.0,220.0,green,circle
0.0,6.0,1.0,1.0,7.0,4.0,2373.787504038773,1.0,1.0,phase_3,,,,,176.0,4.0,88.0,264.0,220.0,176.0,44.0,132.0,green,circle
0.0,5.0,0.5,1.0,7.0,3.0,4926.882636966184,1.0,1.0,phase_3,,,,,132.0,3.0,88.0,264.0,132.0,220.0,176.0,44.0,white,cross
0.0,7.0,2.0,1.0,7.0,2.0,3758.583493065089,1.0,1.0,phase_3,,,,,245.0,5.0,147.0,245.0,98.0,196.0,294.0,49.0,blue,flipped triangle
0.0,1.0,0.5,0.0,7.0,4.0,4213.78975501284,1.0,1.0,phase_3,,,,,176.0,4.0,132.0,220.0,88.0,176.0,44.0,264.0,cyan,triangle
0.0,3.0,2.0,0.0,7.0,5.0,3077.185786096379,1.0,1.0,phase_3,,,,,195.0,5.0,234.0,117.0,78.0,39.0,195.0,156.0,orange,diamond
0.0,5.0,0.5,1.0,7.0,3.0,4719.206494046375,1.0,1.0,phase_3,,,,,136.0,4.0,204.0,68.0,136.0,34.0,102.0,170.0,white,cross
0.0,1.0,0.5,0.0,7.0,6.0,3719.893284025602,1.0,1.0,phase_3,,,,,117.0,3.0,39.0,156.0,78.0,195.0,234.0,117.0,cyan,triangle
0.0,1.0,0.5,0.0,7.0,6.0,4201.9000760046765,1.0,1.0,phase_3,,,,,78.0,2.0,39.0,117.0,234.0,156.0,195.0,78.0,cyan,triangle
0.0,4.0,4.0,0.0,7.0,6.0,1918.76243497245,1.0,1.0,phase_3,,,,,54.0,1.0,162.0,270.0,108.0,216.0,324.0,54.0,gray,square
0.0,8.0,4.0,1.0,7.0,4.0,3209.8259230842814,1.0,1.0,phase_3,,,,,195.0,5.0,156.0,117.0,234.0,195.0,78.0,39.0,yellow,hexagon
0.0,2.0,1.0,0.0,7.0,1.0,4035.7316420413554,1.0,1.0,phase_3,,,,,176.0,4.0,176.0,44.0,88.0,132.0,264.0,220.0,magenta,I
0.0,6.0,1.0,1.0,7.0,4.0,4127.299231942743,1.0,1.0,phase_3,,,,,196.0,4.0,245.0,294.0,98.0,196.0,49.0,147.0,green,circle
0.0,2.0,1.0,0.0,7.0,6.0,2056.1113790608943,1.0,1.0,phase_3,,,,,147.0,3.0,49.0,245.0,196.0,294.0,98.0,147.0,magenta,I
0.0,1.0,0.5,0.0,7.0,4.0,2138.8188240816817,1.0,2.0,phase_3,,,,,147.0,3.0,49.0,245.0,98.0,147.0,196.0,294.0,cyan,triangle
0.0,3.0,2.0,0.0,7.0,3.0,3679.10467798356,1.0,1.0,phase_3,,,,,156.0,4.0,117.0,234.0,156.0,195.0,39.0,78.0,orange,diamond
0.0,5.0,0.5,1.0,7.0,4.0,2790.6335089355707,2.0,1.0,phase_3,,,,,98.0,2.0,245.0,49.0,196.0,98.0,147.0,294.0,white,cross
0.0,3.0,2.0,0.0,7.0,3.0,1817.3248110106213,2.0,1.0,phase_3,,,,,54.0,1.0,108.0,324.0,54.0,162.0,270.0,216.0,orange,diamond
0.0,8.0,4.0,1.0,7.0,2.0,2794.4561800686643,2.0,1.0,phase_3,,,,,170.0,5.0,34.0,170.0,68.0,136.0,204.0,102.0,yellow,hexagon
0.0,2.0,1.0,0.0,7.0,5.0,2081.1519291019067,2.0,1.0,phase_3,,,,,147.0,3.0,196.0,245.0,49.0,294.0,147.0,98.0,magenta,I
0.0,4.0,4.0,0.0,7.0,4.0,1411.0538760432974,2.0,1.0,phase_3,,,,,44.0,1.0,88.0,176.0,264.0,44.0,220.0,132.0,gray,square
0.0,6.0,1.0,1.0,7.0,5.0,1926.257413928397,2.0,1.0,phase_3,,,,,117.0,3.0,78.0,156.0,234.0,195.0,117.0,39.0,green,circle
0.0,7.0,2.0,1.0,7.0,1.0,2806.7084799986333,2.0,1.0,phase_3,,,,,294.0,6.0,294.0,147.0,49.0,245.0,196.0,98.0,blue,flipped triangle
0.0,8.0,4.0,1.0,7.0,4.0,4305.325594032183,2.0,1.0,phase_3,,,,,78.0,2.0,195.0,39.0,156.0,78.0,234.0,117.0,yellow,hexagon
0.0,1.0,0.5,0.0,7.0,6.0,1339.114089962095,2.0,1.0,phase_3,,,,,147.0,3.0,98.0,49.0,196.0,294.0,245.0,147.0,cyan,triangle
0.0,6.0,1.0,1.0,7.0,1.0,3869.270898983814,2.0,1.0,phase_3,,,,,117.0,3.0,117.0,39.0,234.0,195.0,156.0,78.0,green,circle
0.0,7.0,2.0,1.0,7.0,4.0,2413.7952129822224,2.0,1.0,phase_3,,,,,176.0,4.0,132.0,264.0,220.0,176.0,44.0,88.0,blue,flipped triangle
0.0,4.0,4.0,0.0,7.0,1.0,2614.4994060741737,2.0,1.0,phase_3,,,,,49.0,1.0,49.0,98.0,294.0,147.0,245.0,196.0,gray,square
0.0,5.0,0.5,1.0,7.0,3.0,1096.2953079724684,2.0,2.0,phase_3,,,,,162.0,3.0,54.0,108.0,162.0,324.0,270.0,216.0,white,cross
0.0,5.0,0.5,1.0,7.0,1.0,1915.4680570354683,2.0,1.0,phase_3,,,,,162.0,3.0,162.0,270.0,54.0,324.0,108.0,216.0,white,cross
0.0,4.0,4.0,0.0,7.0,4.0,2633.300799061544,2.0,1.0,phase_3,,,,,117.0,3.0,78.0,39.0,234.0,117.0,195.0,156.0,gray,square
0.0,4.0,4.0,0.0,7.0,2.0,1885.7324349228293,2.0,1.0,phase_3,,,,,108.0,2.0,216.0,108.0,324.0,270.0,54.0,162.0,gray,square
0.0,8.0,4.0,1.0,7.0,4.0,1933.9905640808863,2.0,1.0,phase_3,,,,,88.0,2.0,44.0,176.0,132.0,88.0,264.0,220.0,yellow,hexagon
0.0,8.0,4.0,1.0,7.0,2.0,2943.605470005423,2.0,1.0,phase_3,,,,,162.0,3.0,270.0,162.0,216.0,108.0,324.0,54.0,yellow,hexagon
0.0,4.0,4.0,0.0,7.0,2.0,3375.071524991654,2.0,1.0,phase_3,,,,,195.0,5.0,39.0,195.0,78.0,117.0,156.0,234.0,gray,square
0.0,7.0,2.0,1.0,7.0,3.0,4402.626974973828,2.0,1.0,phase_3,,,,,324.0,6.0,216.0,108.0,324.0,270.0,54.0,162.0,blue,flipped triangle
0.0,3.0,2.0,0.0,7.0,3.0,1530.6979450397191,3.0,1.0,phase_3,,,,,136.0,4.0,68.0,170.0,136.0,204.0,102.0,34.0,orange,diamond
0.0,8.0,4.0,1.0,7.0,2.0,1874.53856295906,3.0,1.0,phase_3,,,,,49.0,1.0,196.0,49.0,245.0,147.0,98.0,294.0,yellow,hexagon
0.0,3.0,2.0,0.0,7.0,6.0,1570.5021939938888,3.0,1.0,phase_3,,,,,98.0,2.0,49.0,294.0,196.0,245.0,147.0,98.0,orange,diamond
0.0,8.0,4.0,1.0,7.0,6.0,2173.7820140551776,3.0,1.0,phase_3,,,,,34.0,1.0,170.0,68.0,136.0,204.0,102.0,34.0,yellow,hexagon
0.0,4.0,4.0,0.0,7.0,4.0,2301.492332946509,3.0,1.0,phase_3,,,,,88.0,2.0,264.0,44.0,220.0,88.0,176.0,132.0,gray,square
0.0,5.0,0.5,1.0,7.0,2.0,2991.937933024019,3.0,1.0,phase_3,,,,,156.0,4.0,117.0,156.0,195.0,78.0,39.0,234.0,white,cross
0.0,5.0,0.5,1.0,7.0,5.0,1615.6984390690925,3.0,1.0,phase_3,,,,,102.0,3.0,204.0,68.0,136.0,170.0,102.0,34.0,white,cross
0.0,2.0,1.0,0.0,7.0,1.0,2044.7369180619721,3.0,1.0,phase_3,,,,,102.0,3.0,102.0,68.0,136.0,204.0,34.0,170.0,magenta,I
0.0,6.0,1.0,1.0,7.0,6.0,3725.22837202996,3.0,1.0,phase_3,,,,,136.0,4.0,102.0,204.0,170.0,68.0,34.0,136.0,green,circle
0.0,7.0,2.0,1.0,7.0,1.0,2892.251969082281,3.0,1.0,phase_3,,,,,39.0,1.0,39.0,78.0,117.0,234.0,195.0,156.0,blue,flipped triangle
0.0,7.0,2.0,1.0,7.0,2.0,2598.947310005314,3.0,1.0,phase_3,,,,,102.0,3.0,136.0,102.0,34.0,204.0,170.0,68.0,blue,flipped triangle
0.0,2.0,1.0,0.0,7.0,4.0,2791.2567309103906,3.0,1.0,phase_3,,,,,156.0,4.0,195.0,117.0,78.0,156.0,39.0,234.0,magenta,I
0.0,3.0,2.0,0.0,7.0,5.0,2703.879171051085,3.0,1.0,phase_3,,,,,216.0,4.0,162.0,108.0,324.0,54.0,216.0,270.0,orange,diamond
0.0,1.0,0.5,0.0,7.0,2.0,2121.6351010371,3.0,1.0,phase_3,,,,,68.0,2.0,102.0,68.0,136.0,204.0,34.0,170.0,cyan,triangle
0.0,7.0,2.0,1.0,7.0,3.0,2170.580678037368,3.0,1.0,phase_3,,,,,324.0,6.0,270.0,108.0,324.0,216.0,162.0,54.0,blue,flipped triangle
0.0,5.0,0.5,1.0,7.0,2.0,3262.6135089667514,3.0,1.0,phase_3,,,,,98.0,2.0,147.0,98.0,245.0,49.0,294.0,196.0,white,cross
0.0,8.0,4.0,1.0,7.0,2.0,3093.885075999424,3.0,1.0,phase_3,,,,,216.0,4.0,54.0,216.0,162.0,324.0,270.0,108.0,yellow,hexagon
0.0,7.0,2.0,1.0,7.0,3.0,1871.5491279726848,3.0,1.0,phase_3,,,,,195.0,5.0,117.0,78.0,195.0,156.0,234.0,39.0,blue,flipped triangle
0.0,3.0,2.0,0.0,7.0,4.0,2691.8978919275105,3.0,1.0,phase_3,,,,,147.0,3.0,294.0,245.0,49.0,147.0,98.0,196.0,orange,diamond
0.0,2.0,1.0,0.0,7.0,3.0,2649.3918639607728,3.0,1.0,phase_3,,,,,136.0,4.0,68.0,102.0,136.0,34.0,170.0,204.0,magenta,I
0.0,6.0,1.0,1.0,7.0,6.0,869.9183879652992,4.0,1.0,phase_3,,,,,162.0,3.0,324.0,108.0,54.0,216.0,270.0,162.0,green,circle
0.0,2.0,1.0,0.0,7.0,2.0,1263.0085720447823,4.0,1.0,phase_3,,,,,162.0,3.0,216.0,162.0,270.0,324.0,54.0,108.0,magenta,I
0.0,6.0,1.0,1.0,7.0,3.0,1894.8083230061457,4.0,1.0,phase_3,,,,,245.0,5.0,98.0,294.0,245.0,196.0,49.0,147.0,green,circle
0.0,4.0,4.0,0.0,7.0,5.0,1856.424884987064,4.0,1.0,phase_3,,,,,204.0,6.0,68.0,34.0,102.0,136.0,204.0,170.0,gray,square
0.0,3.0,2.0,0.0,7.0,4.0,1256.6475949715823,4.0,1.0,phase_3,,,,,204.0,6.0,170.0,34.0,136.0,204.0,68.0,102.0,orange,diamond
0.0,4.0,4.0,0.0,7.0,2.0,2276.329301996157,4.0,1.0,phase_3,,,,,294.0,6.0,49.0,294.0,98.0,245.0,196.0,147.0,gray,square
0.0,2.0,1.0,0.0,7.0,6.0,3523.9580160705373,4.0,1.0,phase_3,,,,,324.0,6.0,108.0,216.0,54.0,162.0,270.0,324.0,magenta,I
0.0,4.0,4.0,0.0,7.0,4.0,3687.7846060087904,4.0,1.0,phase_3,,,,,34.0,1.0,68.0,136.0,170.0,34.0,102.0,204.0,gray,square
0.0,2.0,1.0,0.0,7.0,4.0,4464.374216971919,4.0,1.0,phase_3,,,,,195.0,5.0,117.0,39.0,234.0,195.0,156.0,78.0,magenta,I
0.0,5.0,0.5,1.0,7.0,3.0,3717.4412879394367,4.0,1.0,phase_3,,,,,176.0,4.0,264.0,88.0,176.0,132.0,44.0,220.0,white,cross
0.0,3.0,2.0,0.0,7.0,3.0,3899.361067917198,4.0,1.0,phase_3,,,,,220.0,5.0,132.0,88.0,220.0,44.0,264.0,176.0,orange,diamond
0.0,1.0,0.5,0.0,7.0,5.0,1542.9315010551363,4.0,1.0,phase_3,,,,,176.0,4.0,88.0,132.0,44.0,220.0,176.0,264.0,cyan,triangle
0.0,1.0,0.5,0.0,7.0,2.0,3288.757920032367,4.0,1.0,phase_3,,,,,108.0,2.0,54.0,108.0,270.0,324.0,216.0,162.0,cyan,triangle
0.0,3.0,2.0,0.0,7.0,4.0,3273.870389908552,4.0,1.0,phase_3,,,,,220.0,5.0,132.0,176.0,44.0,220.0,264.0,88.0,orange,diamond
0.0,7.0,2.0,1.0,7.0,6.0,3610.979838995263,4.0,1.0,phase_3,,,,,176.0,4.0,220.0,132.0,88.0,264.0,44.0,176.0,blue,flipped triangle
0.0,2.0,1.0,0.0,7.0,4.0,1566.4178009610623,4.0,1.0,phase_3,,,,,44.0,1.0,88.0,220.0,264.0,44.0,132.0,176.0,magenta,I
0.0,1.0,0.5,0.0,7.0,3.0,2790.885041002184,4.0,1.0,phase_3,,,,,68.0,2.0,170.0,34.0,68.0,102.0,136.0,204.0,cyan,triangle
0.0,8.0,4.0,1.0,7.0,4.0,2729.237401043065,4.0,1.0,phase_3,,,,,88.0,2.0,132.0,44.0,264.0,88.0,176.0,220.0,yellow,hexagon
0.0,7.0,2.0,1.0,7.0,4.0,2874.501849990338,4.0,1.0,phase_3,,,,,102.0,3.0,204.0,34.0,136.0,102.0,68.0,170.0,blue,flipped triangle
0.0,6.0,1.0,1.0,7.0,6.0,3258.5755810141563,4.0,1.0,phase_3,,,,,136.0,4.0,204.0,34.0,170.0,102.0,68.0,136.0,green,circle
