raw_reward_magnitude,stim_reward,stepwise_reward_magnitude,paired_with_stopping,stim_location,response,reaction_time,block,num_trial_presentations,which_phase,stop_signal_trial_type,left_SSD,right_SSD,accuracy,chosen_bidding_amount,chosen_bidding_level,possible_bid_1,possible_bid_2,possible_bid_3,possible_bid_4,possible_bid_5,possible_bid_6,color_text,shape_text
187.0,3.0,2.0,0.0,1.0,1.0,464.5050250692293,1.0,1.0,phase_1,,,,,,,,,,,,,magenta,hexagon
78.0,2.0,1.0,0.0,4.0,4.0,431.590253021568,1.0,1.0,phase_1,,,,,,,,,,,,,blue,diamond
38.0,1.0,0.5,0.0,2.0,2.0,316.8801940046251,1.0,1.0,phase_1,,,,,,,,,,,,,white,square
121.0,2.0,1.0,0.0,4.0,4.0,378.0484850285575,1.0,1.0,phase_1,,,,,,,,,,,,,blue,diamond
409.0,8.0,4.0,1.0,2.0,2.0,299.224270042032,1.0,1.0,phase_1,,,,,,,,,,,,,green,circle
92.0,2.0,1.0,0.0,4.0,4.0,307.4027369730174,1.0,1.0,phase_1,,,,,,,,,,,,,blue,diamond
114.0,6.0,1.0,1.0,3.0,3.0,380.8005430037156,1.0,1.0,phase_1,,,,,,,,,,,,,gray,flipped triangle
379.0,4.0,4.0,0.0,3.0,3.0,336.8070259457454,1.0,1.0,phase_1,,,,,,,,,,,,,yellow,I
45.0,5.0,0.5,1.0,2.0,2.0,285.2650540880859,1.0,1.0,phase_1,,,,,,,,,,,,,cyan,cross
388.0,8.0,4.0,1.0,1.0,1.0,348.6429969780147,1.0,1.0,phase_1,,,,,,,,,,,,,green,circle
57.0,5.0,0.5,1.0,3.0,3.0,344.2960310494527,1.0,1.0,phase_1,,,,,,,,,,,,,cyan,cross
90.0,2.0,1.0,0.0,1.0,1.0,339.4758029608056,1.0,1.0,phase_1,,,,,,,,,,,,,blue,diamond
73.0,1.0,0.5,0.0,1.0,1.0,359.9266119999811,1.0,2.0,phase_1,,,,,,,,,,,,,white,square
92.0,6.0,1.0,1.0,4.0,4.0,376.6630720347166,1.0,1.0,phase_1,,,,,,,,,,,,,gray,flipped triangle
119.0,6.0,1.0,1.0,1.0,1.0,327.7865879936144,1.0,1.0,phase_1,,,,,,,,,,,,,gray,flipped triangle
53.0,1.0,0.5,0.0,2.0,2.0,323.4758150065318,1.0,1.0,phase_1,,,,,,,,,,,,,white,square
204.0,7.0,2.0,1.0,4.0,4.0,361.5163480862975,1.0,1.0,phase_1,,,,,,,,,,,,,orange,triangle
0.0,1.0,0.0,0.0,1.0,1.0,287.2673250967636,1.0,1.0,phase_1,,,,,,,,,,,,,white,square
105.0,6.0,1.0,1.0,4.0,4.0,323.6044090008363,1.0,1.0,phase_1,,,,,,,,,,,,,gray,flipped triangle
109.0,6.0,1.0,1.0,4.0,4.0,357.972441939637,1.0,1.0,phase_1,,,,,,,,,,,,,gray,flipped triangle
61.0,1.0,0.5,0.0,4.0,4.0,386.0313250916078,1.0,1.0,phase_1,,,,,,,,,,,,,white,square
104.0,6.0,1.0,1.0,1.0,1.0,328.0758770415559,1.0,1.0,phase_1,,,,,,,,,,,,,gray,flipped triangle
401.0,8.0,4.0,1.0,4.0,4.0,356.9837419781834,1.0,1.0,phase_1,,,,,,,,,,,,,green,circle
0.0,7.0,0.0,1.0,3.0,3.0,434.6780170453712,1.0,1.0,phase_1,,,,,,,,,,,,,orange,triangle
119.0,2.0,1.0,0.0,2.0,2.0,376.6008589882403,1.0,1.0,phase_1,,,,,,,,,,,,,blue,diamond
207.0,3.0,2.0,0.0,3.0,3.0,386.2156050745398,1.0,1.0,phase_1,,,,,,,,,,,,,magenta,hexagon
391.0,8.0,4.0,1.0,2.0,2.0,366.0269810352474,1.0,1.0,phase_1,,,,,,,,,,,,,green,circle
62.0,5.0,0.5,1.0,3.0,3.0,364.9048350052908,1.0,1.0,phase_1,,,,,,,,,,,,,cyan,cross
388.0,4.0,4.0,0.0,1.0,1.0,337.508513010107,1.0,1.0,phase_1,,,,,,,,,,,,,yellow,I
218.0,3.0,2.0,0.0,4.0,4.0,374.5260760188102,1.0,1.0,phase_1,,,,,,,,,,,,,magenta,hexagon
42.0,5.0,0.5,1.0,1.0,1.0,467.4748420948162,1.0,1.0,phase_1,,,,,,,,,,,,,cyan,cross
113.0,2.0,1.0,0.0,2.0,2.0,329.0253829909488,1.0,1.0,phase_1,,,,,,,,,,,,,blue,diamond
56.0,5.0,0.5,1.0,4.0,4.0,362.2080310015008,1.0,1.0,phase_1,,,,,,,,,,,,,cyan,cross
0.0,4.0,0.0,0.0,3.0,3.0,335.4452750645578,1.0,1.0,phase_1,,,,,,,,,,,,,yellow,I
39.0,1.0,0.5,0.0,1.0,1.0,301.6256410628557,1.0,1.0,phase_1,,,,,,,,,,,,,white,square
0.0,8.0,0.0,1.0,4.0,4.0,283.688007039018,1.0,1.0,phase_1,,,,,,,,,,,,,green,circle
76.0,2.0,1.0,0.0,2.0,2.0,303.2406310085207,1.0,1.0,phase_1,,,,,,,,,,,,,blue,diamond
83.0,6.0,1.0,1.0,1.0,1.0,330.4209959460422,1.0,1.0,phase_1,,,,,,,,,,,,,gray,flipped triangle
388.0,8.0,4.0,1.0,3.0,3.0,338.6025700019672,1.0,1.0,phase_1,,,,,,,,,,,,,green,circle
385.0,8.0,4.0,1.0,4.0,4.0,412.0518600102514,1.0,1.0,phase_1,,,,,,,,,,,,,green,circle
0.0,2.0,0.0,0.0,1.0,1.0,305.4504570318386,1.0,1.0,phase_1,,,,,,,,,,,,,blue,diamond
410.0,8.0,4.0,1.0,2.0,2.0,296.4654470561072,1.0,1.0,phase_1,,,,,,,,,,,,,green,circle
0.0,1.0,0.0,0.0,1.0,1.0,363.8355979928747,1.0,1.0,phase_1,,,,,,,,,,,,,white,square
109.0,2.0,1.0,0.0,2.0,2.0,317.3700129846111,1.0,1.0,phase_1,,,,,,,,,,,,,blue,diamond
55.0,1.0,0.5,0.0,3.0,3.0,349.2221269989386,1.0,1.0,phase_1,,,,,,,,,,,,,white,square
72.0,1.0,0.5,0.0,1.0,1.0,353.2775860512629,1.0,1.0,phase_1,,,,,,,,,,,,,white,square
84.0,6.0,1.0,1.0,2.0,2.0,324.7364490525797,1.0,1.0,phase_1,,,,,,,,,,,,,gray,flipped triangle
67.0,5.0,0.5,1.0,3.0,3.0,324.3649300420657,1.0,1.0,phase_1,,,,,,,,,,,,,cyan,cross
212.0,7.0,2.0,1.0,1.0,1.0,337.3821360291913,1.0,1.0,phase_1,,,,,,,,,,,,,orange,triangle
66.0,5.0,0.5,1.0,4.0,4.0,316.6919250506907,1.0,1.0,phase_1,,,,,,,,,,,,,cyan,cross
66.0,5.0,0.5,1.0,1.0,1.0,278.5191129660234,1.0,1.0,phase_1,,,,,,,,,,,,,cyan,cross
29.0,1.0,0.5,0.0,2.0,2.0,316.2665020208806,1.0,1.0,phase_1,,,,,,,,,,,,,white,square
0.0,4.0,0.0,0.0,4.0,4.0,345.049788011238,1.0,1.0,phase_1,,,,,,,,,,,,,yellow,I
414.0,4.0,4.0,0.0,3.0,3.0,341.6927339276299,1.0,1.0,phase_1,,,,,,,,,,,,,yellow,I
39.0,5.0,0.5,1.0,2.0,2.0,410.2551129180938,1.0,1.0,phase_1,,,,,,,,,,,,,cyan,cross
424.0,4.0,4.0,0.0,3.0,3.0,319.917036104016,1.0,1.0,phase_1,,,,,,,,,,,,,yellow,I
66.0,1.0,0.5,0.0,2.0,2.0,387.0372750097886,1.0,1.0,phase_1,,,,,,,,,,,,,white,square
97.0,2.0,1.0,0.0,1.0,1.0,368.5978769790381,1.0,1.0,phase_1,,,,,,,,,,,,,blue,diamond
216.0,7.0,2.0,1.0,4.0,4.0,430.6036279303953,1.0,1.0,phase_1,,,,,,,,,,,,,orange,triangle
77.0,2.0,1.0,0.0,2.0,2.0,353.0680700205266,1.0,1.0,phase_1,,,,,,,,,,,,,blue,diamond
397.0,8.0,4.0,1.0,1.0,1.0,285.4996259557083,1.0,1.0,phase_1,,,,,,,,,,,,,green,circle
224.0,3.0,2.0,0.0,1.0,1.0,373.4503489686176,1.0,1.0,phase_1,,,,,,,,,,,,,magenta,hexagon
109.0,6.0,1.0,1.0,3.0,3.0,361.2299690721556,1.0,1.0,phase_1,,,,,,,,,,,,,gray,flipped triangle
0.0,2.0,0.0,0.0,2.0,2.0,309.6726519288495,1.0,1.0,phase_1,,,,,,,,,,,,,blue,diamond
118.0,6.0,1.0,1.0,2.0,2.0,312.1931740315631,1.0,1.0,phase_1,,,,,,,,,,,,,gray,flipped triangle
410.0,8.0,4.0,1.0,1.0,1.0,343.3594860835001,1.0,1.0,phase_1,,,,,,,,,,,,,green,circle
212.0,3.0,2.0,0.0,1.0,1.0,323.308217106387,1.0,1.0,phase_1,,,,,,,,,,,,,magenta,hexagon
0.0,8.0,0.0,1.0,3.0,3.0,376.3587799621746,1.0,1.0,phase_1,,,,,,,,,,,,,green,circle
206.0,3.0,2.0,0.0,4.0,4.0,323.2328939484432,1.0,1.0,phase_1,,,,,,,,,,,,,magenta,hexagon
383.0,4.0,4.0,0.0,1.0,1.0,354.8682710388675,1.0,1.0,phase_1,,,,,,,,,,,,,yellow,I
96.0,2.0,1.0,0.0,1.0,1.0,319.6754209930077,1.0,1.0,phase_1,,,,,,,,,,,,,blue,diamond
43.0,5.0,0.5,1.0,2.0,2.0,323.8208909751847,1.0,1.0,phase_1,,,,,,,,,,,,,cyan,cross
408.0,8.0,4.0,1.0,2.0,2.0,319.7775229346007,1.0,1.0,phase_1,,,,,,,,,,,,,green,circle
28.0,1.0,0.5,0.0,2.0,2.0,332.8163999831304,1.0,1.0,phase_1,,,,,,,,,,,,,white,square
0.0,3.0,0.0,0.0,2.0,2.0,383.4795139264315,1.0,1.0,phase_1,,,,,,,,,,,,,magenta,hexagon
93.0,6.0,1.0,1.0,1.0,1.0,316.8646650156006,1.0,1.0,phase_1,,,,,,,,,,,,,gray,flipped triangle
114.0,2.0,1.0,0.0,1.0,1.0,465.4349510092288,1.0,1.0,phase_1,,,,,,,,,,,,,blue,diamond
50.0,5.0,0.5,1.0,1.0,1.0,399.4517819955945,1.0,1.0,phase_1,,,,,,,,,,,,,cyan,cross
0.0,7.0,0.0,1.0,3.0,3.0,366.2435889709741,1.0,1.0,phase_1,,,,,,,,,,,,,orange,triangle
53.0,5.0,0.5,1.0,2.0,2.0,321.6990799410268,1.0,1.0,phase_1,,,,,,,,,,,,,cyan,cross
84.0,2.0,1.0,0.0,3.0,3.0,403.4027309389785,1.0,1.0,phase_1,,,,,,,,,,,,,blue,diamond
203.0,7.0,2.0,1.0,2.0,2.0,320.4222799977287,1.0,1.0,phase_1,,,,,,,,,,,,,orange,triangle
400.0,8.0,4.0,1.0,1.0,1.0,296.0832390235737,1.0,1.0,phase_1,,,,,,,,,,,,,green,circle
392.0,8.0,4.0,1.0,3.0,3.0,353.7369039840996,1.0,1.0,phase_1,,,,,,,,,,,,,green,circle
392.0,4.0,4.0,0.0,3.0,3.0,328.7276369519532,1.0,1.0,phase_1,,,,,,,,,,,,,yellow,I
0.0,3.0,0.0,0.0,2.0,2.0,298.5387039370835,1.0,1.0,phase_1,,,,,,,,,,,,,magenta,hexagon
62.0,5.0,0.5,1.0,4.0,4.0,327.5811959756538,1.0,1.0,phase_1,,,,,,,,,,,,,cyan,cross
27.0,5.0,0.5,1.0,2.0,2.0,311.1245220061391,1.0,1.0,phase_1,,,,,,,,,,,,,cyan,cross
30.0,5.0,0.5,1.0,1.0,1.0,402.9747800668701,1.0,1.0,phase_1,,,,,,,,,,,,,cyan,cross
204.0,7.0,2.0,1.0,3.0,3.0,424.6653750305995,1.0,1.0,phase_1,,,,,,,,,,,,,orange,triangle
396.0,4.0,4.0,0.0,2.0,2.0,396.9747349619865,1.0,1.0,phase_1,,,,,,,,,,,,,yellow,I
52.0,5.0,0.5,1.0,2.0,2.0,335.6112700421363,1.0,1.0,phase_1,,,,,,,,,,,,,cyan,cross
118.0,2.0,1.0,0.0,1.0,1.0,317.6189389778301,1.0,1.0,phase_1,,,,,,,,,,,,,blue,diamond
69.0,5.0,0.5,1.0,3.0,3.0,347.5615170318633,1.0,1.0,phase_1,,,,,,,,,,,,,cyan,cross
36.0,5.0,0.5,1.0,4.0,4.0,319.5880290586501,1.0,1.0,phase_1,,,,,,,,,,,,,cyan,cross
39.0,5.0,0.5,1.0,1.0,1.0,307.3368970071897,1.0,1.0,phase_1,,,,,,,,,,,,,cyan,cross
112.0,6.0,1.0,1.0,2.0,2.0,334.2408429598436,1.0,1.0,phase_1,,,,,,,,,,,,,gray,flipped triangle
220.0,3.0,2.0,0.0,1.0,1.0,381.5142199164256,1.0,1.0,phase_1,,,,,,,,,,,,,magenta,hexagon
204.0,3.0,2.0,0.0,3.0,3.0,443.9918179996311,1.0,1.0,phase_1,,,,,,,,,,,,,magenta,hexagon
224.0,7.0,2.0,1.0,1.0,1.0,343.2971490547061,1.0,1.0,phase_1,,,,,,,,,,,,,orange,triangle
0.0,4.0,0.0,0.0,3.0,3.0,393.2355779688805,2.0,1.0,phase_1,,,,,,,,,,,,,yellow,I
395.0,8.0,4.0,1.0,2.0,2.0,307.2602889733389,2.0,1.0,phase_1,,,,,,,,,,,,,green,circle
99.0,6.0,1.0,1.0,3.0,3.0,361.4357369951904,2.0,1.0,phase_1,,,,,,,,,,,,,gray,flipped triangle
43.0,1.0,0.5,0.0,1.0,1.0,380.9288389747962,2.0,1.0,phase_1,,,,,,,,,,,,,white,square
189.0,7.0,2.0,1.0,2.0,2.0,296.4889699360356,2.0,1.0,phase_1,,,,,,,,,,,,,orange,triangle
112.0,2.0,1.0,0.0,2.0,2.0,325.1543149817735,2.0,1.0,phase_1,,,,,,,,,,,,,blue,diamond
383.0,8.0,4.0,1.0,4.0,4.0,346.1578269489109,2.0,1.0,phase_1,,,,,,,,,,,,,green,circle
395.0,4.0,4.0,0.0,2.0,2.0,294.4705310510471,2.0,1.0,phase_1,,,,,,,,,,,,,yellow,I
98.0,2.0,1.0,0.0,3.0,3.0,391.6235640645027,2.0,1.0,phase_1,,,,,,,,,,,,,blue,diamond
381.0,8.0,4.0,1.0,1.0,1.0,297.2626619739458,2.0,1.0,phase_1,,,,,,,,,,,,,green,circle
201.0,7.0,2.0,1.0,4.0,4.0,368.9010029193014,2.0,1.0,phase_1,,,,,,,,,,,,,orange,triangle
199.0,7.0,2.0,1.0,1.0,1.0,332.2588040027767,2.0,1.0,phase_1,,,,,,,,,,,,,orange,triangle
181.0,3.0,2.0,0.0,4.0,4.0,360.7206140877679,2.0,1.0,phase_1,,,,,,,,,,,,,magenta,hexagon
215.0,3.0,2.0,0.0,3.0,3.0,356.0829060152173,2.0,1.0,phase_1,,,,,,,,,,,,,magenta,hexagon
176.0,3.0,2.0,0.0,2.0,2.0,359.5721139572561,2.0,1.0,phase_1,,,,,,,,,,,,,magenta,hexagon
61.0,5.0,0.5,1.0,3.0,3.0,332.5043370714411,2.0,1.0,phase_1,,,,,,,,,,,,,cyan,cross
394.0,4.0,4.0,0.0,2.0,2.0,377.7918179985136,2.0,1.0,phase_1,,,,,,,,,,,,,yellow,I
57.0,1.0,0.5,0.0,4.0,4.0,344.6049969643354,2.0,1.0,phase_1,,,,,,,,,,,,,white,square
30.0,1.0,0.5,0.0,4.0,4.0,395.6444410141557,2.0,1.0,phase_1,,,,,,,,,,,,,white,square
83.0,6.0,1.0,1.0,1.0,1.0,608.2060489570722,2.0,1.0,phase_1,,,,,,,,,,,,,gray,flipped triangle
38.0,5.0,0.5,1.0,3.0,3.0,403.6399810574949,2.0,1.0,phase_1,,,,,,,,,,,,,cyan,cross
108.0,6.0,1.0,1.0,1.0,1.0,312.3521929373964,2.0,1.0,phase_1,,,,,,,,,,,,,gray,flipped triangle
0.0,5.0,0.0,1.0,1.0,1.0,365.1180270826444,2.0,1.0,phase_1,,,,,,,,,,,,,cyan,cross
413.0,4.0,4.0,0.0,2.0,2.0,324.9339309986681,2.0,1.0,phase_1,,,,,,,,,,,,,yellow,I
199.0,3.0,2.0,0.0,1.0,1.0,280.0327590666711,2.0,1.0,phase_1,,,,,,,,,,,,,magenta,hexagon
121.0,6.0,1.0,1.0,3.0,3.0,437.3573570046574,2.0,1.0,phase_1,,,,,,,,,,,,,gray,flipped triangle
396.0,8.0,4.0,1.0,1.0,1.0,353.57147501781577,2.0,1.0,phase_1,,,,,,,,,,,,,green,circle
118.0,6.0,1.0,1.0,3.0,3.0,357.6490599662065,2.0,1.0,phase_1,,,,,,,,,,,,,gray,flipped triangle
423.0,4.0,4.0,0.0,4.0,4.0,516.2703420501202,2.0,1.0,phase_1,,,,,,,,,,,,,yellow,I
0.0,1.0,0.0,0.0,2.0,2.0,311.915508005768,2.0,1.0,phase_1,,,,,,,,,,,,,white,square
118.0,2.0,1.0,0.0,4.0,4.0,612.7277390332893,2.0,1.0,phase_1,,,,,,,,,,,,,blue,diamond
72.0,5.0,0.5,1.0,3.0,3.0,378.0203548958525,2.0,1.0,phase_1,,,,,,,,,,,,,cyan,cross
121.0,2.0,1.0,0.0,3.0,3.0,358.2910150289535,2.0,1.0,phase_1,,,,,,,,,,,,,blue,diamond
225.0,3.0,2.0,0.0,3.0,3.0,388.3564419811591,2.0,1.0,phase_1,,,,,,,,,,,,,magenta,hexagon
78.0,2.0,1.0,0.0,2.0,2.0,318.3180170599371,2.0,1.0,phase_1,,,,,,,,,,,,,blue,diamond
0.0,6.0,0.0,1.0,3.0,3.0,476.6495969379321,2.0,1.0,phase_1,,,,,,,,,,,,,gray,flipped triangle
0.0,8.0,0.0,1.0,4.0,4.0,359.3284439994022,2.0,1.0,phase_1,,,,,,,,,,,,,green,circle
105.0,2.0,1.0,0.0,1.0,1.0,315.6794370152056,2.0,1.0,phase_1,,,,,,,,,,,,,blue,diamond
118.0,2.0,1.0,0.0,1.0,1.0,344.0540499286726,2.0,1.0,phase_1,,,,,,,,,,,,,blue,diamond
114.0,6.0,1.0,1.0,3.0,3.0,405.3582539781928,2.0,1.0,phase_1,,,,,,,,,,,,,gray,flipped triangle
410.0,8.0,4.0,1.0,4.0,4.0,349.5233840076253,2.0,1.0,phase_1,,,,,,,,,,,,,green,circle
421.0,8.0,4.0,1.0,4.0,4.0,352.2516990778968,2.0,1.0,phase_1,,,,,,,,,,,,,green,circle
0.0,4.0,0.0,0.0,3.0,3.0,395.1390599831939,2.0,1.0,phase_1,,,,,,,,,,,,,yellow,I
423.0,8.0,4.0,1.0,4.0,4.0,344.6032550418749,2.0,1.0,phase_1,,,,,,,,,,,,,green,circle
109.0,2.0,1.0,0.0,4.0,4.0,367.8690500091761,2.0,1.0,phase_1,,,,,,,,,,,,,blue,diamond
109.0,2.0,1.0,0.0,2.0,2.0,321.1595240281895,2.0,1.0,phase_1,,,,,,,,,,,,,blue,diamond
424.0,8.0,4.0,1.0,2.0,2.0,317.3563530435785,2.0,1.0,phase_1,,,,,,,,,,,,,green,circle
90.0,6.0,1.0,1.0,2.0,2.0,317.4579620826989,2.0,1.0,phase_1,,,,,,,,,,,,,gray,flipped triangle
36.0,1.0,0.5,0.0,1.0,1.0,499.0627209190279,2.0,1.0,phase_1,,,,,,,,,,,,,white,square
0.0,5.0,0.0,1.0,3.0,3.0,371.8889110023156,2.0,1.0,phase_1,,,,,,,,,,,,,cyan,cross
218.0,7.0,2.0,1.0,3.0,3.0,347.3049830645323,2.0,1.0,phase_1,,,,,,,,,,,,,orange,triangle
216.0,3.0,2.0,0.0,2.0,2.0,310.0228519178927,2.0,1.0,phase_1,,,,,,,,,,,,,magenta,hexagon
0.0,4.0,0.0,0.0,2.0,2.0,305.5431341053918,2.0,1.0,phase_1,,,,,,,,,,,,,yellow,I
0.0,6.0,0.0,1.0,4.0,4.0,370.3229730017483,2.0,1.0,phase_1,,,,,,,,,,,,,gray,flipped triangle
52.0,1.0,0.5,0.0,3.0,3.0,395.4796839971095,2.0,1.0,phase_1,,,,,,,,,,,,,white,square
62.0,1.0,0.5,0.0,4.0,4.0,407.7497810358181,2.0,1.0,phase_1,,,,,,,,,,,,,white,square
56.0,5.0,0.5,1.0,4.0,4.0,375.8535389788449,2.0,1.0,phase_1,,,,,,,,,,,,,cyan,cross
406.0,4.0,4.0,0.0,4.0,4.0,410.5252749286592,2.0,1.0,phase_1,,,,,,,,,,,,,yellow,I
104.0,2.0,1.0,0.0,3.0,3.0,441.2462170002982,2.0,1.0,phase_1,,,,,,,,,,,,,blue,diamond
0.0,6.0,0.0,1.0,3.0,3.0,413.1107670255005,2.0,1.0,phase_1,,,,,,,,,,,,,gray,flipped triangle
48.0,5.0,0.5,1.0,1.0,1.0,359.0584150515497,2.0,1.0,phase_1,,,,,,,,,,,,,cyan,cross
119.0,2.0,1.0,0.0,4.0,4.0,350.8714700583368,2.0,1.0,phase_1,,,,,,,,,,,,,blue,diamond
91.0,6.0,1.0,1.0,3.0,3.0,418.47587807569647,2.0,1.0,phase_1,,,,,,,,,,,,,gray,flipped triangle
73.0,5.0,0.5,1.0,4.0,4.0,544.6700690081343,2.0,1.0,phase_1,,,,,,,,,,,,,cyan,cross
77.0,6.0,1.0,1.0,2.0,2.0,332.6706010848284,2.0,1.0,phase_1,,,,,,,,,,,,,gray,flipped triangle
0.0,4.0,0.0,0.0,1.0,1.0,353.4779009642079,2.0,1.0,phase_1,,,,,,,,,,,,,yellow,I
73.0,5.0,0.5,1.0,1.0,1.0,371.9881520373747,2.0,1.0,phase_1,,,,,,,,,,,,,cyan,cross
197.0,7.0,2.0,1.0,3.0,3.0,344.9002329725772,2.0,1.0,phase_1,,,,,,,,,,,,,orange,triangle
0.0,6.0,0.0,1.0,4.0,4.0,484.9759889766574,2.0,1.0,phase_1,,,,,,,,,,,,,gray,flipped triangle
48.0,1.0,0.5,0.0,4.0,4.0,404.9434500047937,2.0,1.0,phase_1,,,,,,,,,,,,,white,square
0.0,8.0,0.0,1.0,2.0,2.0,326.5029690228402,2.0,1.0,phase_1,,,,,,,,,,,,,green,circle
218.0,7.0,2.0,1.0,3.0,3.0,346.9065100653097,2.0,1.0,phase_1,,,,,,,,,,,,,orange,triangle
28.0,5.0,0.5,1.0,3.0,3.0,384.0127439470961,2.0,1.0,phase_1,,,,,,,,,,,,,cyan,cross
413.0,8.0,4.0,1.0,4.0,4.0,447.5762989604845,2.0,1.0,phase_1,,,,,,,,,,,,,green,circle
198.0,3.0,2.0,0.0,4.0,4.0,331.1308639822528,2.0,1.0,phase_1,,,,,,,,,,,,,magenta,hexagon
0.0,1.0,0.0,0.0,3.0,3.0,424.0274529438466,2.0,1.0,phase_1,,,,,,,,,,,,,white,square
424.0,8.0,4.0,1.0,4.0,4.0,390.6494859838858,2.0,1.0,phase_1,,,,,,,,,,,,,green,circle
179.0,7.0,2.0,1.0,3.0,3.0,343.8771789660677,2.0,1.0,phase_1,,,,,,,,,,,,,orange,triangle
114.0,2.0,1.0,0.0,2.0,2.0,342.292117071338,2.0,1.0,phase_1,,,,,,,,,,,,,blue,diamond
185.0,7.0,2.0,1.0,1.0,1.0,320.3981108963489,2.0,1.0,phase_1,,,,,,,,,,,,,orange,triangle
0.0,6.0,0.0,1.0,4.0,4.0,320.8773749647662,2.0,1.0,phase_1,,,,,,,,,,,,,gray,flipped triangle
41.0,1.0,0.5,0.0,3.0,3.0,354.0552610065788,2.0,1.0,phase_1,,,,,,,,,,,,,white,square
66.0,1.0,0.5,0.0,1.0,1.0,354.0968560846522,2.0,1.0,phase_1,,,,,,,,,,,,,white,square
399.0,8.0,4.0,1.0,2.0,2.0,308.7035160278901,2.0,1.0,phase_1,,,,,,,,,,,,,green,circle
78.0,6.0,1.0,1.0,1.0,1.0,370.941870030947,2.0,1.0,phase_1,,,,,,,,,,,,,gray,flipped triangle
187.0,7.0,2.0,1.0,3.0,3.0,364.3986119423061,2.0,1.0,phase_1,,,,,,,,,,,,,orange,triangle
55.0,5.0,0.5,1.0,3.0,3.0,412.1263340348378,2.0,1.0,phase_1,,,,,,,,,,,,,cyan,cross
0.0,6.0,0.0,1.0,3.0,3.0,345.9973559947684,2.0,1.0,phase_1,,,,,,,,,,,,,gray,flipped triangle
400.0,4.0,4.0,0.0,2.0,2.0,340.5863670632243,2.0,1.0,phase_1,,,,,,,,,,,,,yellow,I
83.0,2.0,1.0,0.0,1.0,1.0,362.6373949227854,2.0,1.0,phase_1,,,,,,,,,,,,,blue,diamond
99.0,2.0,1.0,0.0,3.0,3.0,332.1448139613494,2.0,1.0,phase_1,,,,,,,,,,,,,blue,diamond
0.0,1.0,0.0,0.0,2.0,2.0,368.9342449652031,2.0,1.0,phase_1,,,,,,,,,,,,,white,square
400.0,8.0,4.0,1.0,3.0,3.0,357.3170689633116,2.0,1.0,phase_1,,,,,,,,,,,,,green,circle
0.0,2.0,0.0,0.0,2.0,2.0,317.196988966316,2.0,1.0,phase_1,,,,,,,,,,,,,blue,diamond
220.0,7.0,2.0,1.0,4.0,4.0,408.3864770364016,2.0,1.0,phase_1,,,,,,,,,,,,,orange,triangle
0.0,4.0,0.0,0.0,3.0,3.0,363.1483059143647,2.0,1.0,phase_1,,,,,,,,,,,,,yellow,I
0.0,2.0,0.0,0.0,2.0,2.0,312.4033469939604,2.0,1.0,phase_1,,,,,,,,,,,,,blue,diamond
182.0,3.0,2.0,0.0,3.0,3.0,342.541599064134,2.0,1.0,phase_1,,,,,,,,,,,,,magenta,hexagon
399.0,4.0,4.0,0.0,4.0,4.0,444.0804459154606,2.0,1.0,phase_1,,,,,,,,,,,,,yellow,I
0.0,7.0,0.0,1.0,3.0,3.0,462.7681649290025,2.0,2.0,phase_1,,,,,,,,,,,,,orange,triangle
76.0,6.0,1.0,1.0,2.0,2.0,496.88115704339,3.0,1.0,phase_1,,,,,,,,,,,,,gray,flipped triangle
0.0,7.0,0.0,1.0,2.0,2.0,328.1830650521442,3.0,1.0,phase_1,,,,,,,,,,,,,orange,triangle
212.0,7.0,2.0,1.0,4.0,4.0,403.8201000075787,3.0,1.0,phase_1,,,,,,,,,,,,,orange,triangle
399.0,8.0,4.0,1.0,2.0,2.0,374.7224269900471,3.0,1.0,phase_1,,,,,,,,,,,,,green,circle
200.0,3.0,2.0,0.0,2.0,2.0,332.1342410054058,3.0,1.0,phase_1,,,,,,,,,,,,,magenta,hexagon
0.0,5.0,0.0,1.0,2.0,2.0,338.0192129407078,3.0,1.0,phase_1,,,,,,,,,,,,,cyan,cross
73.0,1.0,0.5,0.0,3.0,3.0,414.8297819774598,3.0,1.0,phase_1,,,,,,,,,,,,,white,square
61.0,5.0,0.5,1.0,2.0,2.0,305.7213859865442,3.0,1.0,phase_1,,,,,,,,,,,,,cyan,cross
397.0,4.0,4.0,0.0,1.0,1.0,416.7931609554216,3.0,1.0,phase_1,,,,,,,,,,,,,yellow,I
36.0,1.0,0.5,0.0,4.0,4.0,435.733707039617,3.0,1.0,phase_1,,,,,,,,,,,,,white,square
177.0,3.0,2.0,0.0,4.0,4.0,346.2986510712653,3.0,1.0,phase_1,,,,,,,,,,,,,magenta,hexagon
194.0,7.0,2.0,1.0,1.0,1.0,387.71692104637617,3.0,1.0,phase_1,,,,,,,,,,,,,orange,triangle
50.0,1.0,0.5,0.0,2.0,2.0,322.5960100535303,3.0,1.0,phase_1,,,,,,,,,,,,,white,square
0.0,5.0,0.0,1.0,3.0,3.0,390.1923729572445,3.0,1.0,phase_1,,,,,,,,,,,,,cyan,cross
43.0,1.0,0.5,0.0,1.0,1.0,403.4743260126561,3.0,1.0,phase_1,,,,,,,,,,,,,white,square
0.0,4.0,0.0,0.0,3.0,3.0,400.0685239443555,3.0,1.0,phase_1,,,,,,,,,,,,,yellow,I
198.0,7.0,2.0,1.0,1.0,1.0,333.444154006429,3.0,1.0,phase_1,,,,,,,,,,,,,orange,triangle
87.0,6.0,1.0,1.0,4.0,4.0,391.4313178975135,3.0,1.0,phase_1,,,,,,,,,,,,,gray,flipped triangle
77.0,2.0,1.0,0.0,3.0,3.0,403.8785320008173,3.0,1.0,phase_1,,,,,,,,,,,,,blue,diamond
108.0,2.0,1.0,0.0,4.0,4.0,370.879289926961,3.0,1.0,phase_1,,,,,,,,,,,,,blue,diamond
197.0,3.0,2.0,0.0,3.0,3.0,473.4672720078379,3.0,1.0,phase_1,,,,,,,,,,,,,magenta,hexagon
0.0,3.0,0.0,0.0,4.0,4.0,398.0459290323779,3.0,1.0,phase_1,,,,,,,,,,,,,magenta,hexagon
0.0,6.0,0.0,1.0,4.0,4.0,343.3549279579893,3.0,1.0,phase_1,,,,,,,,,,,,,gray,flipped triangle
121.0,6.0,1.0,1.0,4.0,4.0,387.4332080595195,3.0,1.0,phase_1,,,,,,,,,,,,,gray,flipped triangle
409.0,4.0,4.0,0.0,4.0,4.0,432.2414819616824,3.0,1.0,phase_1,,,,,,,,,,,,,yellow,I
32.0,5.0,0.5,1.0,1.0,1.0,407.5090879341587,3.0,1.0,phase_1,,,,,,,,,,,,,cyan,cross
93.0,2.0,1.0,0.0,3.0,3.0,491.9971189228818,3.0,1.0,phase_1,,,,,,,,,,,,,blue,diamond
187.0,7.0,2.0,1.0,1.0,1.0,409.593945951201,3.0,1.0,phase_1,,,,,,,,,,,,,orange,triangle
212.0,3.0,2.0,0.0,4.0,4.0,395.1291650300845,3.0,1.0,phase_1,,,,,,,,,,,,,magenta,hexagon
78.0,6.0,1.0,1.0,4.0,4.0,399.6114979963749,3.0,1.0,phase_1,,,,,,,,,,,,,gray,flipped triangle
42.0,1.0,0.5,0.0,3.0,3.0,423.3611839590594,3.0,1.0,phase_1,,,,,,,,,,,,,white,square
118.0,6.0,1.0,1.0,2.0,2.0,337.6133720157668,3.0,1.0,phase_1,,,,,,,,,,,,,gray,flipped triangle
177.0,7.0,2.0,1.0,4.0,4.0,400.5961380898952,3.0,1.0,phase_1,,,,,,,,,,,,,orange,triangle
0.0,7.0,0.0,1.0,2.0,2.0,378.6166830686852,3.0,1.0,phase_1,,,,,,,,,,,,,orange,triangle
0.0,1.0,0.0,0.0,4.0,4.0,394.3646979751065,3.0,1.0,phase_1,,,,,,,,,,,,,white,square
397.0,8.0,4.0,1.0,3.0,3.0,548.3182840980589,3.0,1.0,phase_1,,,,,,,,,,,,,green,circle
91.0,2.0,1.0,0.0,2.0,2.0,344.396855100058,3.0,1.0,phase_1,,,,,,,,,,,,,blue,diamond
104.0,2.0,1.0,0.0,1.0,1.0,479.0879470529035,3.0,1.0,phase_1,,,,,,,,,,,,,blue,diamond
390.0,4.0,4.0,0.0,1.0,1.0,506.2639090465382,3.0,1.0,phase_1,,,,,,,,,,,,,yellow,I
36.0,5.0,0.5,1.0,1.0,1.0,423.0374939506873,3.0,1.0,phase_1,,,,,,,,,,,,,cyan,cross
56.0,1.0,0.5,0.0,2.0,2.0,349.4600030826404,3.0,1.0,phase_1,,,,,,,,,,,,,white,square
0.0,8.0,0.0,1.0,4.0,4.0,363.798956037499,3.0,1.0,phase_1,,,,,,,,,,,,,green,circle
204.0,3.0,2.0,0.0,2.0,2.0,316.7281110072508,3.0,1.0,phase_1,,,,,,,,,,,,,magenta,hexagon
397.0,4.0,4.0,0.0,3.0,3.0,395.4860889352858,3.0,1.0,phase_1,,,,,,,,,,,,,yellow,I
394.0,8.0,4.0,1.0,2.0,2.0,334.3986039981246,3.0,1.0,phase_1,,,,,,,,,,,,,green,circle
60.0,1.0,0.5,0.0,3.0,3.0,371.3654440362006,3.0,1.0,phase_1,,,,,,,,,,,,,white,square
0.0,3.0,0.0,0.0,3.0,3.0,441.9381190091371,3.0,1.0,phase_1,,,,,,,,,,,,,magenta,hexagon
51.0,5.0,0.5,1.0,1.0,1.0,364.2598959850147,3.0,1.0,phase_1,,,,,,,,,,,,,cyan,cross
195.0,3.0,2.0,0.0,4.0,4.0,476.8237540265545,3.0,1.0,phase_1,,,,,,,,,,,,,magenta,hexagon
96.0,6.0,1.0,1.0,4.0,4.0,389.7187509573996,3.0,1.0,phase_1,,,,,,,,,,,,,gray,flipped triangle
392.0,4.0,4.0,0.0,2.0,2.0,340.3189330128953,3.0,1.0,phase_1,,,,,,,,,,,,,yellow,I
189.0,3.0,2.0,0.0,2.0,2.0,359.8297770367935,3.0,1.0,phase_1,,,,,,,,,,,,,magenta,hexagon
0.0,2.0,0.0,0.0,3.0,3.0,373.553761979565,3.0,1.0,phase_1,,,,,,,,,,,,,blue,diamond
424.0,4.0,4.0,0.0,4.0,4.0,420.3200910706073,3.0,1.0,phase_1,,,,,,,,,,,,,yellow,I
0.0,6.0,0.0,1.0,4.0,4.0,415.417035925202,3.0,1.0,phase_1,,,,,,,,,,,,,gray,flipped triangle
67.0,1.0,0.5,0.0,3.0,3.0,403.3235179958865,3.0,1.0,phase_1,,,,,,,,,,,,,white,square
0.0,3.0,0.0,0.0,3.0,3.0,497.0504749799147,3.0,1.0,phase_1,,,,,,,,,,,,,magenta,hexagon
379.0,8.0,4.0,1.0,3.0,3.0,366.8712090002373,3.0,1.0,phase_1,,,,,,,,,,,,,green,circle
379.0,4.0,4.0,0.0,4.0,4.0,458.0223900265991,3.0,1.0,phase_1,,,,,,,,,,,,,yellow,I
0.0,1.0,0.0,0.0,4.0,4.0,415.9624770982191,3.0,1.0,phase_1,,,,,,,,,,,,,white,square
379.0,8.0,4.0,1.0,3.0,3.0,427.7241249801591,3.0,1.0,phase_1,,,,,,,,,,,,,green,circle
194.0,3.0,2.0,0.0,1.0,1.0,407.2484079515561,3.0,1.0,phase_1,,,,,,,,,,,,,magenta,hexagon
388.0,4.0,4.0,0.0,1.0,1.0,451.8277520546689,3.0,1.0,phase_1,,,,,,,,,,,,,yellow,I
0.0,1.0,0.0,0.0,2.0,2.0,454.6682049985975,3.0,1.0,phase_1,,,,,,,,,,,,,white,square
207.0,7.0,2.0,1.0,2.0,2.0,365.9593000775203,3.0,1.0,phase_1,,,,,,,,,,,,,orange,triangle
0.0,5.0,0.0,1.0,2.0,2.0,370.2477359911427,3.0,1.0,phase_1,,,,,,,,,,,,,cyan,cross
193.0,7.0,2.0,1.0,3.0,3.0,413.8570360373705,3.0,1.0,phase_1,,,,,,,,,,,,,orange,triangle
0.0,4.0,0.0,0.0,4.0,4.0,482.9745250754058,3.0,1.0,phase_1,,,,,,,,,,,,,yellow,I
55.0,1.0,0.5,0.0,2.0,2.0,374.4197949999943,3.0,1.0,phase_1,,,,,,,,,,,,,white,square
410.0,4.0,4.0,0.0,2.0,2.0,406.3112479634583,3.0,1.0,phase_1,,,,,,,,,,,,,yellow,I
198.0,3.0,2.0,0.0,2.0,2.0,410.6371449306607,3.0,1.0,phase_1,,,,,,,,,,,,,magenta,hexagon
112.0,6.0,1.0,1.0,1.0,1.0,461.1478860024363,3.0,1.0,phase_1,,,,,,,,,,,,,gray,flipped triangle
204.0,3.0,2.0,0.0,2.0,2.0,332.23472395911807,3.0,1.0,phase_1,,,,,,,,,,,,,magenta,hexagon
0.0,8.0,0.0,1.0,3.0,3.0,430.1592109259218,3.0,1.0,phase_1,,,,,,,,,,,,,green,circle
180.0,7.0,2.0,1.0,3.0,3.0,414.045462035574,3.0,1.0,phase_1,,,,,,,,,,,,,orange,triangle
87.0,2.0,1.0,0.0,3.0,3.0,399.9343740288168,3.0,1.0,phase_1,,,,,,,,,,,,,blue,diamond
56.0,1.0,0.5,0.0,1.0,1.0,372.5386860314756,3.0,1.0,phase_1,,,,,,,,,,,,,white,square
34.0,5.0,0.5,1.0,2.0,2.0,306.7530560074374,3.0,1.0,phase_1,,,,,,,,,,,,,cyan,cross
77.0,6.0,1.0,1.0,4.0,4.0,382.1491680573672,3.0,1.0,phase_1,,,,,,,,,,,,,gray,flipped triangle
176.0,7.0,2.0,1.0,2.0,2.0,314.4683350110426,3.0,1.0,phase_1,,,,,,,,,,,,,orange,triangle
55.0,5.0,0.5,1.0,2.0,2.0,377.5215269997716,3.0,1.0,phase_1,,,,,,,,,,,,,cyan,cross
193.0,3.0,2.0,0.0,1.0,1.0,341.4586039725691,3.0,1.0,phase_1,,,,,,,,,,,,,magenta,hexagon
62.0,1.0,0.5,0.0,4.0,4.0,369.7549609933048,3.0,1.0,phase_1,,,,,,,,,,,,,white,square
390.0,8.0,4.0,1.0,3.0,3.0,479.9606429878622,3.0,1.0,phase_1,,,,,,,,,,,,,green,circle
0.0,3.0,0.0,0.0,2.0,2.0,385.814698995091,3.0,1.0,phase_1,,,,,,,,,,,,,magenta,hexagon
195.0,7.0,2.0,1.0,2.0,2.0,358.2194559276104,3.0,1.0,phase_1,,,,,,,,,,,,,orange,triangle
198.0,7.0,2.0,1.0,4.0,4.0,442.9076489759609,3.0,1.0,phase_1,,,,,,,,,,,,,orange,triangle
0.0,7.0,0.0,1.0,2.0,2.0,362.3637160053476,3.0,1.0,phase_1,,,,,,,,,,,,,orange,triangle
42.0,1.0,0.5,0.0,4.0,4.0,444.9597689090296,3.0,1.0,phase_1,,,,,,,,,,,,,white,square
89.0,6.0,1.0,1.0,1.0,1.0,378.5964980488643,3.0,1.0,phase_1,,,,,,,,,,,,,gray,flipped triangle
0.0,1.0,0.0,0.0,2.0,2.0,329.0032169315964,3.0,1.0,phase_1,,,,,,,,,,,,,white,square
0.0,4.0,0.0,0.0,3.0,3.0,381.0629399958998,3.0,1.0,phase_1,,,,,,,,,,,,,yellow,I
417.0,4.0,4.0,0.0,4.0,4.0,398.9657539641484,3.0,1.0,phase_1,,,,,,,,,,,,,yellow,I
0.0,2.0,0.0,0.0,2.0,2.0,310.8196690445766,3.0,1.0,phase_1,,,,,,,,,,,,,blue,diamond
389.0,8.0,4.0,1.0,3.0,3.0,426.185954012908,3.0,1.0,phase_1,,,,,,,,,,,,,green,circle
34.0,1.0,0.5,0.0,3.0,3.0,383.4483990212902,3.0,1.0,phase_1,,,,,,,,,,,,,white,square
0.0,3.0,0.0,0.0,3.0,3.0,402.1760129835456,3.0,1.0,phase_1,,,,,,,,,,,,,magenta,hexagon
69.0,1.0,0.5,0.0,4.0,4.0,423.223812947981,3.0,1.0,phase_1,,,,,,,,,,,,,white,square
186.0,7.0,2.0,1.0,1.0,1.0,357.3004690697416,3.0,1.0,phase_1,,,,,,,,,,,,,orange,triangle
0.0,6.0,0.0,1.0,2.0,2.0,347.7471949299797,3.0,1.0,phase_1,,,,,,,,,,,,,gray,flipped triangle
41.0,5.0,0.5,1.0,4.0,4.0,635.0981569848955,4.0,1.0,phase_1,,,,,,,,,,,,,cyan,cross
0.0,5.0,0.0,1.0,1.0,1.0,439.2688201041892,4.0,1.0,phase_1,,,,,,,,,,,,,cyan,cross
177.0,3.0,2.0,0.0,2.0,2.0,310.6505379546433,4.0,1.0,phase_1,,,,,,,,,,,,,magenta,hexagon
89.0,2.0,1.0,0.0,1.0,1.0,363.928192993626,4.0,1.0,phase_1,,,,,,,,,,,,,blue,diamond
181.0,7.0,2.0,1.0,2.0,2.0,293.6828089877963,4.0,1.0,phase_1,,,,,,,,,,,,,orange,triangle
0.0,2.0,0.0,0.0,1.0,1.0,300.6809540092945,4.0,1.0,phase_1,,,,,,,,,,,,,blue,diamond
185.0,3.0,2.0,0.0,2.0,2.0,295.4618269577622,4.0,1.0,phase_1,,,,,,,,,,,,,magenta,hexagon
417.0,8.0,4.0,1.0,4.0,4.0,388.8711479958147,4.0,1.0,phase_1,,,,,,,,,,,,,green,circle
214.0,7.0,2.0,1.0,2.0,2.0,299.8776249587536,4.0,1.0,phase_1,,,,,,,,,,,,,orange,triangle
84.0,2.0,1.0,0.0,4.0,4.0,480.785603984259,4.0,1.0,phase_1,,,,,,,,,,,,,blue,diamond
113.0,6.0,1.0,1.0,3.0,3.0,435.9654820291325,4.0,1.0,phase_1,,,,,,,,,,,,,gray,flipped triangle
98.0,6.0,1.0,1.0,2.0,2.0,337.3012379743159,4.0,1.0,phase_1,,,,,,,,,,,,,gray,flipped triangle
379.0,8.0,4.0,1.0,1.0,1.0,397.9268650291487,4.0,1.0,phase_1,,,,,,,,,,,,,green,circle
214.0,3.0,2.0,0.0,3.0,3.0,434.7536970162764,4.0,1.0,phase_1,,,,,,,,,,,,,magenta,hexagon
48.0,1.0,0.5,0.0,2.0,2.0,284.2904870631173,4.0,1.0,phase_1,,,,,,,,,,,,,white,square
416.0,4.0,4.0,0.0,3.0,3.0,410.0110499421134,4.0,1.0,phase_1,,,,,,,,,,,,,yellow,I
186.0,3.0,2.0,0.0,1.0,1.0,365.8281059470027,4.0,1.0,phase_1,,,,,,,,,,,,,magenta,hexagon
392.0,8.0,4.0,1.0,1.0,1.0,357.3599399533123,4.0,1.0,phase_1,,,,,,,,,,,,,green,circle
0.0,2.0,0.0,0.0,4.0,4.0,386.7410420207307,4.0,1.0,phase_1,,,,,,,,,,,,,blue,diamond
383.0,4.0,4.0,0.0,1.0,1.0,348.7180239753797,4.0,1.0,phase_1,,,,,,,,,,,,,yellow,I
112.0,2.0,1.0,0.0,4.0,4.0,394.7194720385596,4.0,1.0,phase_1,,,,,,,,,,,,,blue,diamond
408.0,4.0,4.0,0.0,1.0,1.0,320.2100319322198,4.0,1.0,phase_1,,,,,,,,,,,,,yellow,I
221.0,7.0,2.0,1.0,2.0,2.0,340.7351319910958,4.0,1.0,phase_1,,,,,,,,,,,,,orange,triangle
60.0,5.0,0.5,1.0,4.0,4.0,383.3778869593516,4.0,1.0,phase_1,,,,,,,,,,,,,cyan,cross
39.0,1.0,0.5,0.0,1.0,1.0,331.3561220420524,4.0,1.0,phase_1,,,,,,,,,,,,,white,square
0.0,7.0,0.0,1.0,1.0,1.0,369.4411739706993,4.0,1.0,phase_1,,,,,,,,,,,,,orange,triangle
29.0,5.0,0.5,1.0,4.0,4.0,390.7098469790071,4.0,1.0,phase_1,,,,,,,,,,,,,cyan,cross
109.0,6.0,1.0,1.0,3.0,3.0,492.0156040461734,4.0,1.0,phase_1,,,,,,,,,,,,,gray,flipped triangle
184.0,7.0,2.0,1.0,2.0,2.0,320.2281709527597,4.0,1.0,phase_1,,,,,,,,,,,,,orange,triangle
379.0,4.0,4.0,0.0,4.0,4.0,421.3926449883729,4.0,1.0,phase_1,,,,,,,,,,,,,yellow,I
203.0,3.0,2.0,0.0,2.0,2.0,369.7457279777154,4.0,1.0,phase_1,,,,,,,,,,,,,magenta,hexagon
82.0,2.0,1.0,0.0,3.0,3.0,364.5228010136634,4.0,1.0,phase_1,,,,,,,,,,,,,blue,diamond
0.0,2.0,0.0,0.0,4.0,4.0,394.0954679856077,4.0,1.0,phase_1,,,,,,,,,,,,,blue,diamond
0.0,8.0,0.0,1.0,1.0,1.0,345.6991820130497,4.0,1.0,phase_1,,,,,,,,,,,,,green,circle
390.0,4.0,4.0,0.0,4.0,4.0,370.1066870708018,4.0,1.0,phase_1,,,,,,,,,,,,,yellow,I
406.0,8.0,4.0,1.0,4.0,4.0,399.465536000207,4.0,1.0,phase_1,,,,,,,,,,,,,green,circle
97.0,6.0,1.0,1.0,4.0,4.0,390.4033069266006,4.0,1.0,phase_1,,,,,,,,,,,,,gray,flipped triangle
421.0,4.0,4.0,0.0,4.0,4.0,362.8411700483411,4.0,1.0,phase_1,,,,,,,,,,,,,yellow,I
225.0,7.0,2.0,1.0,4.0,4.0,358.9204170275479,4.0,1.0,phase_1,,,,,,,,,,,,,orange,triangle
184.0,3.0,2.0,0.0,4.0,4.0,386.3457129336893,4.0,1.0,phase_1,,,,,,,,,,,,,magenta,hexagon
182.0,7.0,2.0,1.0,2.0,2.0,383.1434369785711,4.0,1.0,phase_1,,,,,,,,,,,,,orange,triangle
223.0,3.0,2.0,0.0,3.0,3.0,391.1732889246195,4.0,1.0,phase_1,,,,,,,,,,,,,magenta,hexagon
414.0,8.0,4.0,1.0,3.0,3.0,426.238224026747,4.0,1.0,phase_1,,,,,,,,,,,,,green,circle
0.0,7.0,0.0,1.0,3.0,3.0,368.7045329716056,4.0,1.0,phase_1,,,,,,,,,,,,,orange,triangle
200.0,7.0,2.0,1.0,4.0,4.0,449.1982179461047,4.0,1.0,phase_1,,,,,,,,,,,,,orange,triangle
400.0,4.0,4.0,0.0,3.0,3.0,477.8628130443394,4.0,1.0,phase_1,,,,,,,,,,,,,yellow,I
0.0,3.0,0.0,0.0,4.0,4.0,396.4395639486611,4.0,1.0,phase_1,,,,,,,,,,,,,magenta,hexagon
104.0,6.0,1.0,1.0,3.0,3.0,351.2048880802467,4.0,1.0,phase_1,,,,,,,,,,,,,gray,flipped triangle
0.0,5.0,0.0,1.0,1.0,1.0,423.1355609372258,4.0,1.0,phase_1,,,,,,,,,,,,,cyan,cross
399.0,4.0,4.0,0.0,2.0,2.0,339.4035119563341,4.0,1.0,phase_1,,,,,,,,,,,,,yellow,I
45.0,1.0,0.5,0.0,3.0,3.0,353.398720966652,4.0,1.0,phase_1,,,,,,,,,,,,,white,square
391.0,4.0,4.0,0.0,3.0,3.0,364.2897700192407,4.0,1.0,phase_1,,,,,,,,,,,,,yellow,I
0.0,7.0,0.0,1.0,2.0,2.0,334.2912530060857,4.0,1.0,phase_1,,,,,,,,,,,,,orange,triangle
389.0,4.0,4.0,0.0,1.0,1.0,372.636527987197,4.0,1.0,phase_1,,,,,,,,,,,,,yellow,I
179.0,3.0,2.0,0.0,4.0,4.0,343.7979710288346,4.0,1.0,phase_1,,,,,,,,,,,,,magenta,hexagon
0.0,8.0,0.0,1.0,3.0,3.0,447.1707640914246,4.0,1.0,phase_1,,,,,,,,,,,,,green,circle
187.0,3.0,2.0,0.0,3.0,3.0,362.4706820119172,4.0,1.0,phase_1,,,,,,,,,,,,,magenta,hexagon
412.0,8.0,4.0,1.0,2.0,2.0,304.2305359849706,4.0,1.0,phase_1,,,,,,,,,,,,,green,circle
416.0,8.0,4.0,1.0,1.0,1.0,372.4406830733642,4.0,1.0,phase_1,,,,,,,,,,,,,green,circle
206.0,7.0,2.0,1.0,3.0,3.0,361.5721869282424,4.0,1.0,phase_1,,,,,,,,,,,,,orange,triangle
0.0,3.0,0.0,0.0,1.0,1.0,373.7428010208532,4.0,1.0,phase_1,,,,,,,,,,,,,magenta,hexagon
390.0,8.0,4.0,1.0,1.0,1.0,393.8382199266925,4.0,1.0,phase_1,,,,,,,,,,,,,green,circle
0.0,7.0,0.0,1.0,2.0,2.0,381.1027529882267,4.0,1.0,phase_1,,,,,,,,,,,,,orange,triangle
119.0,6.0,1.0,1.0,4.0,4.0,325.3887559985742,4.0,1.0,phase_1,,,,,,,,,,,,,gray,flipped triangle
201.0,3.0,2.0,0.0,1.0,1.0,344.771791016683,4.0,1.0,phase_1,,,,,,,,,,,,,magenta,hexagon
121.0,6.0,1.0,1.0,2.0,2.0,365.5642990488559,4.0,1.0,phase_1,,,,,,,,,,,,,gray,flipped triangle
412.0,4.0,4.0,0.0,2.0,2.0,336.5268280031159,4.0,1.0,phase_1,,,,,,,,,,,,,yellow,I
0.0,1.0,0.0,0.0,2.0,2.0,336.6543899755925,4.0,1.0,phase_1,,,,,,,,,,,,,white,square
42.0,5.0,0.5,1.0,3.0,3.0,457.7001410070807,4.0,1.0,phase_1,,,,,,,,,,,,,cyan,cross
0.0,5.0,0.0,1.0,3.0,3.0,342.8524819901213,4.0,1.0,phase_1,,,,,,,,,,,,,cyan,cross
27.0,1.0,0.5,0.0,2.0,2.0,290.9627680201083,4.0,1.0,phase_1,,,,,,,,,,,,,white,square
0.0,8.0,0.0,1.0,3.0,3.0,369.7184530319646,4.0,1.0,phase_1,,,,,,,,,,,,,green,circle
61.0,1.0,0.5,0.0,3.0,3.0,380.3918469930067,4.0,1.0,phase_1,,,,,,,,,,,,,white,square
43.0,5.0,0.5,1.0,4.0,4.0,436.804210068658,4.0,1.0,phase_1,,,,,,,,,,,,,cyan,cross
410.0,4.0,4.0,0.0,2.0,2.0,542.7460750797763,4.0,1.0,phase_1,,,,,,,,,,,,,yellow,I
121.0,2.0,1.0,0.0,4.0,4.0,435.5847189435735,4.0,1.0,phase_1,,,,,,,,,,,,,blue,diamond
32.0,1.0,0.5,0.0,4.0,4.0,432.9524040222168,4.0,1.0,phase_1,,,,,,,,,,,,,white,square
0.0,8.0,0.0,1.0,1.0,1.0,431.33242696058,4.0,1.0,phase_1,,,,,,,,,,,,,green,circle
82.0,6.0,1.0,1.0,2.0,2.0,392.3803530633449,4.0,1.0,phase_1,,,,,,,,,,,,,gray,flipped triangle
0.0,5.0,0.0,1.0,3.0,3.0,357.95173898804927,4.0,1.0,phase_1,,,,,,,,,,,,,cyan,cross
177.0,7.0,2.0,1.0,1.0,1.0,362.6265740022063,4.0,1.0,phase_1,,,,,,,,,,,,,orange,triangle
381.0,4.0,4.0,0.0,1.0,1.0,361.4233839325607,4.0,1.0,phase_1,,,,,,,,,,,,,yellow,I
0.0,2.0,0.0,0.0,1.0,1.0,422.4625199567526,4.0,1.0,phase_1,,,,,,,,,,,,,blue,diamond
83.0,2.0,1.0,0.0,3.0,3.0,367.7448909729719,4.0,1.0,phase_1,,,,,,,,,,,,,blue,diamond
410.0,4.0,4.0,0.0,3.0,3.0,373.6959309317171,4.0,1.0,phase_1,,,,,,,,,,,,,yellow,I
0.0,5.0,0.0,1.0,3.0,3.0,476.2197310337797,4.0,1.0,phase_1,,,,,,,,,,,,,cyan,cross
0.0,6.0,0.0,1.0,3.0,3.0,350.6603739224374,4.0,1.0,phase_1,,,,,,,,,,,,,gray,flipped triangle
204.0,7.0,2.0,1.0,3.0,3.0,366.8885780498385,4.0,1.0,phase_1,,,,,,,,,,,,,orange,triangle
221.0,3.0,2.0,0.0,3.0,3.0,289.3076170003041,4.0,1.0,phase_1,,,,,,,,,,,,,magenta,hexagon
385.0,4.0,4.0,0.0,1.0,1.0,316.4264350198209,4.0,1.0,phase_1,,,,,,,,,,,,,yellow,I
223.0,7.0,2.0,1.0,4.0,4.0,416.5751009713858,4.0,1.0,phase_1,,,,,,,,,,,,,orange,triangle
84.0,6.0,1.0,1.0,1.0,1.0,327.0646659657359,4.0,1.0,phase_1,,,,,,,,,,,,,gray,flipped triangle
218.0,3.0,2.0,0.0,4.0,4.0,369.987074052915,4.0,1.0,phase_1,,,,,,,,,,,,,magenta,hexagon
401.0,4.0,4.0,0.0,3.0,3.0,361.7324689403176,4.0,1.0,phase_1,,,,,,,,,,,,,yellow,I
0.0,3.0,0.0,0.0,1.0,1.0,295.263931970112,4.0,1.0,phase_1,,,,,,,,,,,,,magenta,hexagon
51.0,1.0,0.5,0.0,1.0,1.0,344.2530260654166,4.0,1.0,phase_1,,,,,,,,,,,,,white,square
48.0,5.0,0.5,1.0,2.0,2.0,440.3655669884756,4.0,1.0,phase_1,,,,,,,,,,,,,cyan,cross
383.0,8.0,4.0,1.0,3.0,3.0,356.8925260333344,4.0,1.0,phase_1,,,,,,,,,,,,,green,circle
180.0,3.0,2.0,0.0,1.0,1.0,402.3242609109729,4.0,1.0,phase_1,,,,,,,,,,,,,magenta,hexagon
215.0,7.0,2.0,1.0,1.0,1.0,355.8095470070839,4.0,1.0,phase_1,,,,,,,,,,,,,orange,triangle
0.0,2.0,1.0,0.0,5.0,5.0,387.3928319662809,1.0,1.0,phase_2,go,250.0,250.0,1.0,,,,,,,,,blue,diamond
0.0,5.0,0.5,1.0,5.0,5.0,509.2091689584777,1.0,1.0,phase_2,stop,250.0,250.0,3.0,,,,,,,,,cyan,cross
0.0,8.0,4.0,1.0,6.0,6.0,339.88506894093,1.0,1.0,phase_2,go,200.0,250.0,1.0,,,,,,,,,green,circle
0.0,6.0,1.0,1.0,6.0,6.0,594.4147430127487,1.0,1.0,phase_2,stop,200.0,250.0,3.0,,,,,,,,,gray,flipped triangle
0.0,4.0,4.0,0.0,5.0,5.0,780.1136010093614,1.0,1.0,phase_2,go,200.0,200.0,1.0,,,,,,,,,yellow,I
0.0,4.0,4.0,0.0,6.0,6.0,872.5974949775264,1.0,1.0,phase_2,go,200.0,200.0,1.0,,,,,,,,,yellow,I
0.0,8.0,4.0,1.0,5.0,5.0,1000.8609200594949,1.0,1.0,phase_2,go,200.0,200.0,1.0,,,,,,,,,green,circle
0.0,8.0,4.0,1.0,5.0,0.0,0.0,1.0,1.0,phase_2,stop,200.0,200.0,4.0,,,,,,,,,green,circle
0.0,4.0,4.0,0.0,6.0,6.0,842.5916180713102,1.0,1.0,phase_2,go,250.0,200.0,1.0,,,,,,,,,yellow,I
0.0,6.0,1.0,1.0,5.0,5.0,847.2504409728572,1.0,1.0,phase_2,go,250.0,200.0,1.0,,,,,,,,,gray,flipped triangle
0.0,1.0,0.5,0.0,6.0,6.0,920.8631899673492,1.0,1.0,phase_2,go,250.0,200.0,1.0,,,,,,,,,white,square
0.0,6.0,1.0,1.0,5.0,5.0,1061.8333399761468,1.0,1.0,phase_2,go,250.0,200.0,1.0,,,,,,,,,gray,flipped triangle
0.0,2.0,1.0,0.0,6.0,6.0,1215.1277350494638,1.0,1.0,phase_2,go,250.0,200.0,1.0,,,,,,,,,blue,diamond
0.0,1.0,0.5,0.0,5.0,5.0,1109.9887859309092,1.0,1.0,phase_2,go,250.0,200.0,1.0,,,,,,,,,white,square
0.0,1.0,0.5,0.0,5.0,5.0,1051.5891970135272,1.0,1.0,phase_2,go,250.0,200.0,1.0,,,,,,,,,white,square
0.0,8.0,4.0,1.0,5.0,0.0,0.0,1.0,1.0,phase_2,stop,250.0,200.0,4.0,,,,,,,,,green,circle
0.0,7.0,2.0,1.0,6.0,6.0,468.3583360165357,1.0,1.0,phase_2,go,300.0,200.0,1.0,,,,,,,,,orange,triangle
0.0,6.0,1.0,1.0,6.0,0.0,0.0,1.0,1.0,phase_2,stop,300.0,200.0,4.0,,,,,,,,,gray,flipped triangle
0.0,1.0,0.5,0.0,6.0,6.0,640.980222960934,1.0,1.0,phase_2,go,300.0,250.0,1.0,,,,,,,,,white,square
0.0,7.0,2.0,1.0,6.0,6.0,856.881019892171,1.0,1.0,phase_2,go,300.0,250.0,1.0,,,,,,,,,orange,triangle
0.0,2.0,1.0,0.0,6.0,6.0,594.7951329872012,1.0,1.0,phase_2,go,300.0,250.0,1.0,,,,,,,,,blue,diamond
0.0,4.0,4.0,0.0,6.0,6.0,648.9401450380683,1.0,1.0,phase_2,go,300.0,250.0,1.0,,,,,,,,,yellow,I
0.0,6.0,1.0,1.0,5.0,0.0,0.0,1.0,1.0,phase_2,stop,300.0,250.0,4.0,,,,,,,,,gray,flipped triangle
0.0,4.0,4.0,0.0,6.0,6.0,472.935048979707,1.0,1.0,phase_2,go,350.0,250.0,1.0,,,,,,,,,yellow,I
0.0,8.0,4.0,1.0,6.0,6.0,392.8601039806381,1.0,1.0,phase_2,stop,350.0,250.0,3.0,,,,,,,,,green,circle
0.0,2.0,1.0,0.0,5.0,5.0,591.2168059730902,1.0,1.0,phase_2,go,350.0,200.0,1.0,,,,,,,,,blue,diamond
0.0,3.0,2.0,0.0,6.0,6.0,365.644525969401,1.0,1.0,phase_2,go,350.0,200.0,1.0,,,,,,,,,magenta,hexagon
0.0,5.0,0.5,1.0,6.0,6.0,341.4707490010187,1.0,1.0,phase_2,go,350.0,200.0,1.0,,,,,,,,,cyan,cross
0.0,1.0,0.5,0.0,5.0,5.0,355.9722029604018,1.0,1.0,phase_2,go,350.0,200.0,1.0,,,,,,,,,white,square
0.0,3.0,2.0,0.0,5.0,5.0,395.3995070187375,1.0,1.0,phase_2,go,350.0,200.0,1.0,,,,,,,,,magenta,hexagon
0.0,1.0,0.5,0.0,6.0,6.0,491.4054389810189,1.0,1.0,phase_2,go,350.0,200.0,1.0,,,,,,,,,white,square
0.0,6.0,1.0,1.0,5.0,5.0,533.5066670086235,1.0,1.0,phase_2,go,350.0,200.0,1.0,,,,,,,,,gray,flipped triangle
0.0,4.0,4.0,0.0,5.0,5.0,724.4802120840177,1.0,1.0,phase_2,go,350.0,200.0,1.0,,,,,,,,,yellow,I
0.0,7.0,2.0,1.0,6.0,0.0,0.0,1.0,1.0,phase_2,stop,350.0,200.0,4.0,,,,,,,,,orange,triangle
0.0,7.0,2.0,1.0,6.0,0.0,0.0,1.0,1.0,phase_2,stop,350.0,250.0,4.0,,,,,,,,,orange,triangle
0.0,5.0,0.5,1.0,6.0,0.0,0.0,1.0,1.0,phase_2,stop,350.0,300.0,4.0,,,,,,,,,cyan,cross
0.0,1.0,0.5,0.0,5.0,5.0,428.4453069558367,2.0,1.0,phase_2,go,350.0,350.0,1.0,,,,,,,,,white,square
0.0,8.0,4.0,1.0,5.0,5.0,323.6846420913934,2.0,1.0,phase_2,stop,350.0,350.0,3.0,,,,,,,,,green,circle
0.0,1.0,0.5,0.0,5.0,5.0,302.8471519937739,2.0,1.0,phase_2,go,300.0,350.0,1.0,,,,,,,,,white,square
0.0,4.0,4.0,0.0,5.0,5.0,317.7817350951954,2.0,1.0,phase_2,go,300.0,350.0,1.0,,,,,,,,,yellow,I
0.0,2.0,1.0,0.0,6.0,6.0,348.3744210097939,2.0,1.0,phase_2,go,300.0,350.0,1.0,,,,,,,,,blue,diamond
0.0,3.0,2.0,0.0,5.0,5.0,435.2873519528657,2.0,1.0,phase_2,go,300.0,350.0,1.0,,,,,,,,,magenta,hexagon
0.0,6.0,1.0,1.0,5.0,5.0,307.4770410312339,2.0,1.0,phase_2,go,300.0,350.0,1.0,,,,,,,,,gray,flipped triangle
0.0,4.0,4.0,0.0,6.0,6.0,264.2124179983511,2.0,1.0,phase_2,go,300.0,350.0,1.0,,,,,,,,,yellow,I
0.0,8.0,4.0,1.0,6.0,6.0,377.3918070364743,2.0,1.0,phase_2,stop,300.0,350.0,3.0,,,,,,,,,green,circle
0.0,3.0,2.0,0.0,6.0,6.0,351.5787310898304,2.0,1.0,phase_2,go,300.0,300.0,1.0,,,,,,,,,magenta,hexagon
0.0,6.0,1.0,1.0,6.0,6.0,325.4777989350259,2.0,1.0,phase_2,stop,300.0,300.0,3.0,,,,,,,,,gray,flipped triangle
0.0,1.0,0.5,0.0,6.0,6.0,345.1081650564447,2.0,1.0,phase_2,go,300.0,250.0,1.0,,,,,,,,,white,square
0.0,7.0,2.0,1.0,6.0,6.0,310.6151890242472,2.0,1.0,phase_2,stop,300.0,250.0,3.0,,,,,,,,,orange,triangle
0.0,3.0,2.0,0.0,6.0,6.0,367.7075169980526,2.0,1.0,phase_2,go,300.0,200.0,1.0,,,,,,,,,magenta,hexagon
0.0,6.0,1.0,1.0,6.0,6.0,366.1594139412045,2.0,1.0,phase_2,go,300.0,200.0,1.0,,,,,,,,,gray,flipped triangle
0.0,6.0,1.0,1.0,5.0,5.0,447.9917900171131,2.0,1.0,phase_2,stop,300.0,200.0,3.0,,,,,,,,,gray,flipped triangle
0.0,1.0,0.5,0.0,5.0,5.0,635.5746079934761,2.0,1.0,phase_2,go,250.0,200.0,1.0,,,,,,,,,white,square
0.0,6.0,1.0,1.0,5.0,5.0,347.0313380239531,2.0,1.0,phase_2,stop,250.0,200.0,3.0,,,,,,,,,gray,flipped triangle
0.0,2.0,1.0,0.0,5.0,5.0,330.2012080093846,2.0,1.0,phase_2,go,200.0,200.0,1.0,,,,,,,,,blue,diamond
0.0,8.0,4.0,1.0,6.0,6.0,309.4801979605108,2.0,1.0,phase_2,go,200.0,200.0,1.0,,,,,,,,,green,circle
0.0,7.0,2.0,1.0,5.0,5.0,304.6635780483484,2.0,1.0,phase_2,stop,200.0,200.0,3.0,,,,,,,,,orange,triangle
0.0,2.0,1.0,0.0,5.0,5.0,409.7592110047117,2.0,1.0,phase_2,go,150.0,200.0,1.0,,,,,,,,,blue,diamond
0.0,7.0,2.0,1.0,5.0,5.0,288.7085160473361,2.0,1.0,phase_2,stop,150.0,200.0,3.0,,,,,,,,,orange,triangle
0.0,6.0,1.0,1.0,6.0,6.0,402.0557409385219,2.0,1.0,phase_2,go,100.0,200.0,1.0,,,,,,,,,gray,flipped triangle
0.0,7.0,2.0,1.0,6.0,6.0,345.9153259173035,2.0,1.0,phase_2,stop,100.0,200.0,3.0,,,,,,,,,orange,triangle
0.0,7.0,2.0,1.0,6.0,6.0,590.5748660443351,2.0,1.0,phase_2,go,100.0,150.0,1.0,,,,,,,,,orange,triangle
0.0,8.0,4.0,1.0,6.0,0.0,0.0,2.0,1.0,phase_2,stop,100.0,150.0,4.0,,,,,,,,,green,circle
0.0,7.0,2.0,1.0,6.0,0.0,0.0,2.0,1.0,phase_2,stop,100.0,200.0,4.0,,,,,,,,,orange,triangle
0.0,4.0,4.0,0.0,6.0,6.0,668.7216670252383,2.0,1.0,phase_2,go,100.0,250.0,1.0,,,,,,,,,yellow,I
0.0,6.0,1.0,1.0,6.0,6.0,359.8554210038855,2.0,1.0,phase_2,go,100.0,250.0,1.0,,,,,,,,,gray,flipped triangle
0.0,6.0,1.0,1.0,6.0,6.0,308.8653819868341,2.0,1.0,phase_2,stop,100.0,250.0,3.0,,,,,,,,,gray,flipped triangle
0.0,5.0,0.5,1.0,6.0,6.0,579.1985129471868,2.0,1.0,phase_2,stop,100.0,200.0,3.0,,,,,,,,,cyan,cross
0.0,4.0,4.0,0.0,6.0,6.0,499.979765038006,2.0,1.0,phase_2,go,100.0,150.0,1.0,,,,,,,,,yellow,I
0.0,4.0,4.0,0.0,5.0,5.0,300.9778209961951,2.0,1.0,phase_2,go,100.0,150.0,1.0,,,,,,,,,yellow,I
0.0,3.0,2.0,0.0,5.0,5.0,474.8576820129528,2.0,1.0,phase_2,go,100.0,150.0,1.0,,,,,,,,,magenta,hexagon
0.0,3.0,2.0,0.0,5.0,5.0,418.3169960742816,2.0,1.0,phase_2,go,100.0,150.0,1.0,,,,,,,,,magenta,hexagon
0.0,8.0,4.0,1.0,5.0,5.0,429.6408200170845,3.0,1.0,phase_2,stop,100.0,150.0,3.0,,,,,,,,,green,circle
0.0,3.0,2.0,0.0,5.0,5.0,573.2105809729546,3.0,1.0,phase_2,go,50.0,150.0,1.0,,,,,,,,,magenta,hexagon
0.0,6.0,1.0,1.0,6.0,6.0,293.0581090040505,3.0,1.0,phase_2,stop,50.0,150.0,3.0,,,,,,,,,gray,flipped triangle
0.0,1.0,0.5,0.0,6.0,6.0,470.8292650757357,3.0,1.0,phase_2,go,50.0,100.0,1.0,,,,,,,,,white,square
0.0,7.0,2.0,1.0,5.0,5.0,300.9772939840331,3.0,1.0,phase_2,stop,50.0,100.0,3.0,,,,,,,,,orange,triangle
0.0,5.0,0.5,1.0,5.0,0.0,0.0,3.0,1.0,phase_2,stop,0.0,100.0,4.0,,,,,,,,,cyan,cross
0.0,5.0,0.5,1.0,5.0,0.0,0.0,3.0,1.0,phase_2,stop,50.0,100.0,4.0,,,,,,,,,cyan,cross
0.0,4.0,4.0,0.0,6.0,6.0,380.0210299668833,3.0,1.0,phase_2,go,100.0,100.0,1.0,,,,,,,,,yellow,I
0.0,7.0,2.0,1.0,6.0,0.0,0.0,3.0,1.0,phase_2,stop,100.0,100.0,4.0,,,,,,,,,orange,triangle
0.0,1.0,0.5,0.0,5.0,5.0,368.3275419753045,3.0,1.0,phase_2,go,100.0,150.0,1.0,,,,,,,,,white,square
0.0,4.0,4.0,0.0,5.0,5.0,352.4397100554779,3.0,1.0,phase_2,go,100.0,150.0,1.0,,,,,,,,,yellow,I
0.0,3.0,2.0,0.0,5.0,5.0,403.369078063406,3.0,1.0,phase_2,go,100.0,150.0,1.0,,,,,,,,,magenta,hexagon
0.0,2.0,1.0,0.0,5.0,5.0,305.5283980211243,3.0,1.0,phase_2,go,100.0,150.0,1.0,,,,,,,,,blue,diamond
0.0,7.0,2.0,1.0,5.0,0.0,0.0,3.0,1.0,phase_2,stop,100.0,150.0,4.0,,,,,,,,,orange,triangle
0.0,7.0,2.0,1.0,6.0,0.0,0.0,3.0,1.0,phase_2,stop,150.0,150.0,4.0,,,,,,,,,orange,triangle
0.0,6.0,1.0,1.0,5.0,0.0,0.0,3.0,1.0,phase_2,stop,150.0,200.0,4.0,,,,,,,,,gray,flipped triangle
0.0,3.0,2.0,0.0,6.0,6.0,388.8115199515596,3.0,1.0,phase_2,go,200.0,200.0,1.0,,,,,,,,,magenta,hexagon
0.0,5.0,0.5,1.0,6.0,0.0,0.0,3.0,1.0,phase_2,stop,200.0,200.0,4.0,,,,,,,,,cyan,cross
0.0,4.0,4.0,0.0,5.0,5.0,421.8773220200091,3.0,1.0,phase_2,go,200.0,250.0,1.0,,,,,,,,,yellow,I
0.0,7.0,2.0,1.0,6.0,6.0,645.0099169742316,3.0,1.0,phase_2,go,200.0,250.0,1.0,,,,,,,,,orange,triangle
0.0,3.0,2.0,0.0,5.0,5.0,268.4978529578075,3.0,1.0,phase_2,go,200.0,250.0,1.0,,,,,,,,,magenta,hexagon
0.0,5.0,0.5,1.0,6.0,6.0,317.326319986023,3.0,1.0,phase_2,stop,200.0,250.0,3.0,,,,,,,,,cyan,cross
0.0,1.0,0.5,0.0,6.0,6.0,483.4115880075842,3.0,1.0,phase_2,go,200.0,200.0,1.0,,,,,,,,,white,square
0.0,5.0,0.5,1.0,6.0,0.0,0.0,3.0,1.0,phase_2,stop,200.0,200.0,4.0,,,,,,,,,cyan,cross
0.0,5.0,0.5,1.0,5.0,5.0,347.908994066529,3.0,1.0,phase_2,stop,200.0,250.0,3.0,,,,,,,,,cyan,cross
0.0,2.0,1.0,0.0,5.0,5.0,383.6254260968417,3.0,1.0,phase_2,go,150.0,250.0,1.0,,,,,,,,,blue,diamond
0.0,5.0,0.5,1.0,5.0,0.0,0.0,3.0,1.0,phase_2,stop,150.0,250.0,4.0,,,,,,,,,cyan,cross
0.0,4.0,4.0,0.0,5.0,5.0,446.3617269648239,3.0,1.0,phase_2,go,200.0,250.0,1.0,,,,,,,,,yellow,I
0.0,7.0,2.0,1.0,5.0,5.0,335.7123780297115,3.0,1.0,phase_2,stop,200.0,250.0,3.0,,,,,,,,,orange,triangle
0.0,2.0,1.0,0.0,6.0,6.0,472.0600210130214,3.0,1.0,phase_2,go,150.0,250.0,1.0,,,,,,,,,blue,diamond
0.0,6.0,1.0,1.0,5.0,0.0,0.0,3.0,1.0,phase_2,stop,150.0,250.0,4.0,,,,,,,,,gray,flipped triangle
0.0,4.0,4.0,0.0,5.0,5.0,461.9321960490197,3.0,1.0,phase_2,go,200.0,250.0,1.0,,,,,,,,,yellow,I
0.0,1.0,0.5,0.0,5.0,5.0,333.4371290402487,3.0,1.0,phase_2,go,200.0,250.0,1.0,,,,,,,,,white,square
0.0,5.0,0.5,1.0,6.0,0.0,0.0,3.0,1.0,phase_2,stop,200.0,250.0,4.0,,,,,,,,,cyan,cross
0.0,6.0,1.0,1.0,5.0,0.0,0.0,3.0,1.0,phase_2,stop,200.0,300.0,4.0,,,,,,,,,gray,flipped triangle
0.0,8.0,4.0,1.0,5.0,5.0,452.8511289972812,3.0,1.0,phase_2,stop,250.0,300.0,3.0,,,,,,,,,green,circle
0.0,3.0,2.0,0.0,6.0,6.0,673.772756010294,4.0,1.0,phase_2,go,200.0,300.0,1.0,,,,,,,,,magenta,hexagon
0.0,8.0,4.0,1.0,6.0,6.0,361.978281987831,4.0,1.0,phase_2,go,200.0,300.0,1.0,,,,,,,,,green,circle
0.0,2.0,1.0,0.0,5.0,5.0,320.577671052888,4.0,1.0,phase_2,go,200.0,300.0,1.0,,,,,,,,,blue,diamond
0.0,3.0,2.0,0.0,5.0,5.0,326.382938073948,4.0,1.0,phase_2,go,200.0,300.0,1.0,,,,,,,,,magenta,hexagon
0.0,6.0,1.0,1.0,6.0,6.0,342.3451170092448,4.0,1.0,phase_2,stop,200.0,300.0,3.0,,,,,,,,,gray,flipped triangle
0.0,4.0,4.0,0.0,5.0,5.0,317.5450609996915,4.0,1.0,phase_2,go,200.0,250.0,1.0,,,,,,,,,yellow,I
0.0,3.0,2.0,0.0,5.0,5.0,412.8754639532417,4.0,1.0,phase_2,go,200.0,250.0,1.0,,,,,,,,,magenta,hexagon
0.0,3.0,2.0,0.0,5.0,5.0,399.1734599694609,4.0,1.0,phase_2,go,200.0,250.0,1.0,,,,,,,,,magenta,hexagon
0.0,7.0,2.0,1.0,6.0,6.0,380.9835800202563,4.0,1.0,phase_2,go,200.0,250.0,1.0,,,,,,,,,orange,triangle
0.0,4.0,4.0,0.0,5.0,5.0,341.2666149670258,4.0,1.0,phase_2,go,200.0,250.0,1.0,,,,,,,,,yellow,I
0.0,1.0,0.5,0.0,5.0,5.0,362.6913160551339,4.0,1.0,phase_2,go,200.0,250.0,1.0,,,,,,,,,white,square
0.0,1.0,0.5,0.0,5.0,5.0,372.8194299619645,4.0,1.0,phase_2,go,200.0,250.0,1.0,,,,,,,,,white,square
0.0,2.0,1.0,0.0,6.0,6.0,392.6218319684267,4.0,1.0,phase_2,go,200.0,250.0,1.0,,,,,,,,,blue,diamond
0.0,2.0,1.0,0.0,6.0,6.0,362.109531997703,4.0,1.0,phase_2,go,200.0,250.0,1.0,,,,,,,,,blue,diamond
0.0,8.0,4.0,1.0,6.0,6.0,370.1704499544576,4.0,1.0,phase_2,stop,200.0,250.0,3.0,,,,,,,,,green,circle
0.0,3.0,2.0,0.0,6.0,6.0,491.2910950370133,4.0,1.0,phase_2,go,200.0,200.0,1.0,,,,,,,,,magenta,hexagon
0.0,8.0,4.0,1.0,6.0,6.0,358.5413349792361,4.0,1.0,phase_2,stop,200.0,200.0,3.0,,,,,,,,,green,circle
0.0,1.0,0.5,0.0,6.0,6.0,489.249326987192,4.0,1.0,phase_2,go,200.0,150.0,1.0,,,,,,,,,white,square
0.0,5.0,0.5,1.0,5.0,5.0,320.7910959608853,4.0,1.0,phase_2,stop,200.0,150.0,3.0,,,,,,,,,cyan,cross
0.0,3.0,2.0,0.0,6.0,6.0,623.6818420002237,4.0,1.0,phase_2,go,150.0,150.0,1.0,,,,,,,,,magenta,hexagon
0.0,7.0,2.0,1.0,6.0,0.0,0.0,4.0,1.0,phase_2,stop,150.0,150.0,4.0,,,,,,,,,orange,triangle
0.0,1.0,0.5,0.0,6.0,6.0,517.7091379882768,4.0,1.0,phase_2,go,150.0,200.0,1.0,,,,,,,,,white,square
0.0,5.0,0.5,1.0,5.0,0.0,0.0,4.0,1.0,phase_2,stop,150.0,200.0,4.0,,,,,,,,,cyan,cross
0.0,8.0,4.0,1.0,5.0,0.0,0.0,4.0,1.0,phase_2,stop,200.0,200.0,4.0,,,,,,,,,green,circle
0.0,8.0,4.0,1.0,5.0,5.0,587.7299560233951,4.0,1.0,phase_2,go,250.0,200.0,1.0,,,,,,,,,green,circle
0.0,7.0,2.0,1.0,6.0,0.0,0.0,4.0,1.0,phase_2,stop,250.0,200.0,4.0,,,,,,,,,orange,triangle
0.0,1.0,0.5,0.0,6.0,6.0,433.2893081009388,4.0,1.0,phase_2,go,250.0,250.0,1.0,,,,,,,,,white,square
0.0,6.0,1.0,1.0,6.0,0.0,0.0,4.0,1.0,phase_2,stop,250.0,250.0,4.0,,,,,,,,,gray,flipped triangle
0.0,7.0,2.0,1.0,6.0,0.0,0.0,4.0,1.0,phase_2,stop,250.0,300.0,4.0,,,,,,,,,orange,triangle
0.0,4.0,4.0,0.0,6.0,6.0,554.5685220276937,4.0,1.0,phase_2,go,250.0,350.0,1.0,,,,,,,,,yellow,I
0.0,5.0,0.5,1.0,5.0,5.0,311.4305259659886,4.0,1.0,phase_2,stop,250.0,350.0,3.0,,,,,,,,,cyan,cross
0.0,2.0,1.0,0.0,5.0,5.0,345.1825299998745,4.0,1.0,phase_2,go,200.0,350.0,1.0,,,,,,,,,blue,diamond
0.0,5.0,0.5,1.0,5.0,5.0,334.48075002525,4.0,1.0,phase_2,stop,200.0,350.0,3.0,,,,,,,,,cyan,cross
0.0,7.0,2.0,1.0,5.0,0.0,0.0,4.0,1.0,phase_2,stop,150.0,350.0,4.0,,,,,,,,,orange,triangle
0.0,3.0,2.0,0.0,6.0,6.0,445.3719139564782,4.0,1.0,phase_2,go,200.0,350.0,1.0,,,,,,,,,magenta,hexagon
0.0,1.0,0.5,0.0,6.0,6.0,344.2663230234757,4.0,1.0,phase_2,go,200.0,350.0,1.0,,,,,,,,,white,square
0.0,6.0,1.0,1.0,5.0,5.0,396.5086600510403,5.0,1.0,phase_2,go,200.0,350.0,1.0,,,,,,,,,gray,flipped triangle
0.0,2.0,1.0,0.0,5.0,5.0,334.9846840137616,5.0,1.0,phase_2,go,200.0,350.0,1.0,,,,,,,,,blue,diamond
0.0,2.0,1.0,0.0,6.0,6.0,366.4814840303734,5.0,1.0,phase_2,go,200.0,350.0,1.0,,,,,,,,,blue,diamond
0.0,5.0,0.5,1.0,5.0,5.0,335.8252720208838,5.0,1.0,phase_2,go,200.0,350.0,1.0,,,,,,,,,cyan,cross
0.0,7.0,2.0,1.0,6.0,6.0,302.1661009406671,5.0,1.0,phase_2,stop,200.0,350.0,3.0,,,,,,,,,orange,triangle
0.0,4.0,4.0,0.0,6.0,6.0,328.045165981166,5.0,1.0,phase_2,go,200.0,300.0,1.0,,,,,,,,,yellow,I
0.0,3.0,2.0,0.0,5.0,5.0,308.9178409427404,5.0,1.0,phase_2,go,200.0,300.0,1.0,,,,,,,,,magenta,hexagon
0.0,6.0,1.0,1.0,6.0,6.0,317.6693969871849,5.0,1.0,phase_2,stop,200.0,300.0,3.0,,,,,,,,,gray,flipped triangle
0.0,5.0,0.5,1.0,6.0,6.0,339.7579049924388,5.0,1.0,phase_2,go,200.0,250.0,1.0,,,,,,,,,cyan,cross
0.0,2.0,1.0,0.0,6.0,6.0,346.8344920547679,5.0,1.0,phase_2,go,200.0,250.0,1.0,,,,,,,,,blue,diamond
0.0,4.0,4.0,0.0,6.0,6.0,322.857609950006,5.0,1.0,phase_2,go,200.0,250.0,1.0,,,,,,,,,yellow,I
0.0,4.0,4.0,0.0,6.0,6.0,338.1011709570884,5.0,1.0,phase_2,go,200.0,250.0,1.0,,,,,,,,,yellow,I
0.0,5.0,0.5,1.0,6.0,6.0,426.123287063092,5.0,1.0,phase_2,go,200.0,250.0,1.0,,,,,,,,,cyan,cross
0.0,2.0,1.0,0.0,5.0,5.0,323.3191790059209,5.0,1.0,phase_2,go,200.0,250.0,1.0,,,,,,,,,blue,diamond
0.0,3.0,2.0,0.0,6.0,6.0,363.5095580248162,5.0,1.0,phase_2,go,200.0,250.0,1.0,,,,,,,,,magenta,hexagon
0.0,8.0,4.0,1.0,6.0,6.0,306.3191541004926,5.0,1.0,phase_2,stop,200.0,250.0,3.0,,,,,,,,,green,circle
0.0,8.0,4.0,1.0,5.0,5.0,318.8706639921292,5.0,1.0,phase_2,stop,200.0,200.0,3.0,,,,,,,,,green,circle
0.0,1.0,0.5,0.0,5.0,5.0,454.7267640009522,5.0,1.0,phase_2,go,150.0,200.0,1.0,,,,,,,,,white,square
0.0,7.0,2.0,1.0,5.0,5.0,496.9961179886013,5.0,1.0,phase_2,go,150.0,200.0,1.0,,,,,,,,,orange,triangle
0.0,5.0,0.5,1.0,6.0,6.0,343.0691299727186,5.0,1.0,phase_2,stop,150.0,200.0,3.0,,,,,,,,,cyan,cross
0.0,3.0,2.0,0.0,6.0,6.0,431.6104030003771,5.0,1.0,phase_2,go,150.0,150.0,1.0,,,,,,,,,magenta,hexagon
0.0,4.0,4.0,0.0,5.0,5.0,343.2660030666739,5.0,1.0,phase_2,go,150.0,150.0,1.0,,,,,,,,,yellow,I
0.0,2.0,1.0,0.0,5.0,5.0,326.6416589030996,5.0,1.0,phase_2,go,150.0,150.0,1.0,,,,,,,,,blue,diamond
0.0,4.0,4.0,0.0,6.0,6.0,354.6832969877869,5.0,1.0,phase_2,go,150.0,150.0,1.0,,,,,,,,,yellow,I
0.0,3.0,2.0,0.0,6.0,6.0,330.5709160631522,5.0,1.0,phase_2,go,150.0,150.0,1.0,,,,,,,,,magenta,hexagon
0.0,4.0,4.0,0.0,6.0,6.0,372.1138389082625,5.0,1.0,phase_2,go,150.0,150.0,1.0,,,,,,,,,yellow,I
0.0,7.0,2.0,1.0,6.0,6.0,306.0799180530011,5.0,1.0,phase_2,stop,150.0,150.0,3.0,,,,,,,,,orange,triangle
0.0,1.0,0.5,0.0,5.0,5.0,450.6534360116347,5.0,1.0,phase_2,go,150.0,100.0,1.0,,,,,,,,,white,square
0.0,1.0,0.5,0.0,6.0,6.0,538.5095489909872,5.0,1.0,phase_2,go,150.0,100.0,1.0,,,,,,,,,white,square
0.0,3.0,2.0,0.0,5.0,5.0,451.5600400045514,5.0,1.0,phase_2,go,150.0,100.0,1.0,,,,,,,,,magenta,hexagon
0.0,4.0,4.0,0.0,6.0,6.0,385.9919380629435,5.0,1.0,phase_2,go,150.0,100.0,1.0,,,,,,,,,yellow,I
0.0,6.0,1.0,1.0,6.0,6.0,401.1112300213426,5.0,1.0,phase_2,stop,150.0,100.0,3.0,,,,,,,,,gray,flipped triangle
0.0,7.0,2.0,1.0,5.0,5.0,447.7210419718176,5.0,1.0,phase_2,go,150.0,50.0,1.0,,,,,,,,,orange,triangle
0.0,6.0,1.0,1.0,5.0,0.0,0.0,5.0,1.0,phase_2,stop,150.0,50.0,4.0,,,,,,,,,gray,flipped triangle
0.0,5.0,0.5,1.0,6.0,0.0,0.0,5.0,1.0,phase_2,stop,200.0,50.0,4.0,,,,,,,,,cyan,cross
0.0,3.0,2.0,0.0,6.0,6.0,629.5244769426063,5.0,1.0,phase_2,go,200.0,100.0,1.0,,,,,,,,,magenta,hexagon
0.0,3.0,2.0,0.0,6.0,6.0,503.21415392681956,6.0,1.0,phase_2,go,200.0,100.0,1.0,,,,,,,,,magenta,hexagon
0.0,6.0,1.0,1.0,6.0,0.0,0.0,6.0,1.0,phase_2,stop,200.0,100.0,4.0,,,,,,,,,gray,flipped triangle
0.0,8.0,4.0,1.0,6.0,6.0,375.6633580196649,6.0,1.0,phase_2,go,200.0,150.0,1.0,,,,,,,,,green,circle
0.0,2.0,1.0,0.0,6.0,6.0,335.3825400117785,6.0,1.0,phase_2,go,200.0,150.0,1.0,,,,,,,,,blue,diamond
0.0,6.0,1.0,1.0,6.0,0.0,0.0,6.0,1.0,phase_2,stop,200.0,150.0,4.0,,,,,,,,,gray,flipped triangle
0.0,4.0,4.0,0.0,6.0,6.0,421.9449739903211,6.0,1.0,phase_2,go,200.0,200.0,1.0,,,,,,,,,yellow,I
0.0,6.0,1.0,1.0,6.0,0.0,0.0,6.0,1.0,phase_2,stop,200.0,200.0,4.0,,,,,,,,,gray,flipped triangle
0.0,6.0,1.0,1.0,6.0,6.0,482.5567229418084,6.0,1.0,phase_2,go,200.0,250.0,1.0,,,,,,,,,gray,flipped triangle
0.0,1.0,0.5,0.0,6.0,6.0,388.9305400662124,6.0,1.0,phase_2,go,200.0,250.0,1.0,,,,,,,,,white,square
0.0,8.0,4.0,1.0,5.0,5.0,433.8542789919302,6.0,1.0,phase_2,go,200.0,250.0,1.0,,,,,,,,,green,circle
0.0,6.0,1.0,1.0,6.0,6.0,449.4129919912666,6.0,1.0,phase_2,stop,200.0,250.0,3.0,,,,,,,,,gray,flipped triangle
0.0,8.0,4.0,1.0,5.0,0.0,0.0,6.0,1.0,phase_2,stop,200.0,200.0,4.0,,,,,,,,,green,circle
0.0,6.0,1.0,1.0,6.0,0.0,0.0,6.0,1.0,phase_2,stop,250.0,200.0,4.0,,,,,,,,,gray,flipped triangle
0.0,2.0,1.0,0.0,6.0,6.0,531.1568069737405,6.0,1.0,phase_2,go,250.0,250.0,1.0,,,,,,,,,blue,diamond
0.0,8.0,4.0,1.0,5.0,0.0,0.0,6.0,1.0,phase_2,stop,250.0,250.0,4.0,,,,,,,,,green,circle
0.0,2.0,1.0,0.0,5.0,5.0,489.5384770352393,6.0,1.0,phase_2,go,300.0,250.0,1.0,,,,,,,,,blue,diamond
0.0,1.0,0.5,0.0,6.0,6.0,446.1502919439226,6.0,1.0,phase_2,go,300.0,250.0,1.0,,,,,,,,,white,square
0.0,6.0,1.0,1.0,5.0,5.0,374.2713099345565,6.0,1.0,phase_2,stop,300.0,250.0,3.0,,,,,,,,,gray,flipped triangle
0.0,3.0,2.0,0.0,5.0,5.0,460.9064200194552,6.0,1.0,phase_2,go,250.0,250.0,1.0,,,,,,,,,magenta,hexagon
0.0,5.0,0.5,1.0,5.0,5.0,431.5638609696179,6.0,1.0,phase_2,go,250.0,250.0,1.0,,,,,,,,,cyan,cross
0.0,8.0,4.0,1.0,5.0,0.0,0.0,6.0,1.0,phase_2,stop,250.0,250.0,4.0,,,,,,,,,green,circle
0.0,7.0,2.0,1.0,5.0,5.0,445.5826079938561,6.0,1.0,phase_2,stop,300.0,250.0,3.0,,,,,,,,,orange,triangle
0.0,1.0,0.5,0.0,6.0,6.0,452.6758689898997,6.0,1.0,phase_2,go,250.0,250.0,1.0,,,,,,,,,white,square
0.0,1.0,0.5,0.0,5.0,5.0,530.1601380342618,6.0,1.0,phase_2,go,250.0,250.0,1.0,,,,,,,,,white,square
0.0,2.0,1.0,0.0,5.0,5.0,658.9377410709858,6.0,1.0,phase_2,go,250.0,250.0,1.0,,,,,,,,,blue,diamond
0.0,8.0,4.0,1.0,6.0,6.0,428.0479389708489,6.0,1.0,phase_2,go,250.0,250.0,1.0,,,,,,,,,green,circle
0.0,5.0,0.5,1.0,5.0,0.0,0.0,6.0,1.0,phase_2,stop,250.0,250.0,4.0,,,,,,,,,cyan,cross
0.0,3.0,2.0,0.0,5.0,5.0,697.755247936584,6.0,1.0,phase_2,go,300.0,250.0,1.0,,,,,,,,,magenta,hexagon
0.0,8.0,4.0,1.0,5.0,0.0,0.0,6.0,1.0,phase_2,stop,300.0,250.0,4.0,,,,,,,,,green,circle
0.0,7.0,2.0,1.0,5.0,0.0,0.0,6.0,1.0,phase_2,stop,350.0,250.0,4.0,,,,,,,,,orange,triangle
0.0,4.0,4.0,0.0,5.0,5.0,600.059894961305,6.0,1.0,phase_2,go,400.0,250.0,1.0,,,,,,,,,yellow,I
0.0,5.0,0.5,1.0,5.0,5.0,373.5860380111262,6.0,1.0,phase_2,stop,400.0,250.0,3.0,,,,,,,,,cyan,cross
0.0,8.0,4.0,1.0,5.0,5.0,477.084685000591,6.0,1.0,phase_2,stop,350.0,250.0,3.0,,,,,,,,,green,circle
0.0,4.0,4.0,0.0,6.0,6.0,516.9711010530591,6.0,1.0,phase_2,go,300.0,250.0,1.0,,,,,,,,,yellow,I
0.0,5.0,0.5,1.0,6.0,6.0,510.7613290892914,6.0,1.0,phase_2,go,300.0,250.0,1.0,,,,,,,,,cyan,cross
0.0,7.0,2.0,1.0,5.0,5.0,459.6369059290737,6.0,1.0,phase_2,go,300.0,250.0,1.0,,,,,,,,,orange,triangle
0.0,6.0,1.0,1.0,5.0,5.0,611.6356590064242,7.0,1.0,phase_2,stop,300.0,250.0,3.0,,,,,,,,,gray,flipped triangle
0.0,2.0,1.0,0.0,6.0,6.0,416.6741850785911,7.0,1.0,phase_2,go,250.0,250.0,1.0,,,,,,,,,blue,diamond
0.0,6.0,1.0,1.0,5.0,5.0,369.48194692377,7.0,1.0,phase_2,stop,250.0,250.0,3.0,,,,,,,,,gray,flipped triangle
0.0,2.0,1.0,0.0,6.0,6.0,505.582790938206,7.0,1.0,phase_2,go,200.0,250.0,1.0,,,,,,,,,blue,diamond
0.0,2.0,1.0,0.0,5.0,5.0,416.9113520765677,7.0,1.0,phase_2,go,200.0,250.0,1.0,,,,,,,,,blue,diamond
0.0,8.0,4.0,1.0,6.0,0.0,0.0,7.0,1.0,phase_2,stop,200.0,250.0,4.0,,,,,,,,,green,circle
0.0,2.0,1.0,0.0,6.0,6.0,437.3408840037882,7.0,1.0,phase_2,go,200.0,300.0,1.0,,,,,,,,,blue,diamond
0.0,4.0,4.0,0.0,5.0,5.0,430.2935219602659,7.0,1.0,phase_2,go,200.0,300.0,1.0,,,,,,,,,yellow,I
0.0,4.0,4.0,0.0,5.0,5.0,534.1745220357552,7.0,1.0,phase_2,go,200.0,300.0,1.0,,,,,,,,,yellow,I
0.0,8.0,4.0,1.0,5.0,5.0,557.7906740363687,7.0,1.0,phase_2,go,200.0,300.0,1.0,,,,,,,,,green,circle
0.0,2.0,1.0,0.0,5.0,5.0,411.4404619904235,7.0,1.0,phase_2,go,200.0,300.0,1.0,,,,,,,,,blue,diamond
0.0,7.0,2.0,1.0,5.0,0.0,0.0,7.0,1.0,phase_2,stop,200.0,300.0,4.0,,,,,,,,,orange,triangle
0.0,3.0,2.0,0.0,5.0,5.0,450.3784569678828,7.0,1.0,phase_2,go,250.0,300.0,1.0,,,,,,,,,magenta,hexagon
0.0,3.0,2.0,0.0,5.0,5.0,532.4631609255448,7.0,1.0,phase_2,go,250.0,300.0,1.0,,,,,,,,,magenta,hexagon
0.0,2.0,1.0,0.0,6.0,6.0,530.5772320134565,7.0,1.0,phase_2,go,250.0,300.0,1.0,,,,,,,,,blue,diamond
0.0,2.0,1.0,0.0,6.0,6.0,346.4469240279868,7.0,1.0,phase_2,go,250.0,300.0,1.0,,,,,,,,,blue,diamond
0.0,6.0,1.0,1.0,5.0,0.0,0.0,7.0,1.0,phase_2,stop,250.0,300.0,4.0,,,,,,,,,gray,flipped triangle
0.0,4.0,4.0,0.0,5.0,5.0,481.4870089758187,7.0,1.0,phase_2,go,300.0,300.0,1.0,,,,,,,,,yellow,I
0.0,7.0,2.0,1.0,5.0,5.0,402.701626997441,7.0,1.0,phase_2,stop,300.0,300.0,3.0,,,,,,,,,orange,triangle
0.0,8.0,4.0,1.0,6.0,6.0,328.1519958982244,7.0,1.0,phase_2,stop,250.0,300.0,3.0,,,,,,,,,green,circle
0.0,2.0,1.0,0.0,6.0,6.0,510.6041590915993,7.0,1.0,phase_2,go,250.0,250.0,1.0,,,,,,,,,blue,diamond
0.0,2.0,1.0,0.0,5.0,5.0,447.0911619719118,7.0,1.0,phase_2,go,250.0,250.0,1.0,,,,,,,,,blue,diamond
0.0,3.0,2.0,0.0,6.0,6.0,472.6398990023881,7.0,1.0,phase_2,go,250.0,250.0,1.0,,,,,,,,,magenta,hexagon
0.0,6.0,1.0,1.0,5.0,0.0,0.0,7.0,1.0,phase_2,stop,250.0,250.0,4.0,,,,,,,,,gray,flipped triangle
0.0,1.0,0.5,0.0,6.0,6.0,558.0001379130408,7.0,1.0,phase_2,go,300.0,250.0,1.0,,,,,,,,,white,square
0.0,5.0,0.5,1.0,5.0,0.0,0.0,7.0,1.0,phase_2,stop,300.0,250.0,4.0,,,,,,,,,cyan,cross
0.0,3.0,2.0,0.0,5.0,5.0,612.1635889867321,7.0,1.0,phase_2,go,350.0,250.0,1.0,,,,,,,,,magenta,hexagon
0.0,3.0,2.0,0.0,6.0,6.0,532.7078679110855,7.0,1.0,phase_2,go,350.0,250.0,1.0,,,,,,,,,magenta,hexagon
0.0,5.0,0.5,1.0,6.0,0.0,0.0,7.0,1.0,phase_2,stop,350.0,250.0,4.0,,,,,,,,,cyan,cross
0.0,5.0,0.5,1.0,6.0,0.0,0.0,7.0,1.0,phase_2,stop,350.0,300.0,4.0,,,,,,,,,cyan,cross
0.0,8.0,4.0,1.0,6.0,0.0,0.0,7.0,1.0,phase_2,stop,350.0,350.0,4.0,,,,,,,,,green,circle
0.0,1.0,0.5,0.0,6.0,6.0,650.0409779837355,7.0,1.0,phase_2,go,350.0,400.0,1.0,,,,,,,,,white,square
0.0,8.0,4.0,1.0,5.0,5.0,369.4822239922359,7.0,1.0,phase_2,stop,350.0,400.0,3.0,,,,,,,,,green,circle
0.0,7.0,2.0,1.0,5.0,0.0,0.0,7.0,1.0,phase_2,stop,300.0,400.0,4.0,,,,,,,,,orange,triangle
0.0,7.0,2.0,1.0,5.0,0.0,0.0,7.0,1.0,phase_2,stop,350.0,400.0,4.0,,,,,,,,,orange,triangle
0.0,5.0,0.5,1.0,6.0,6.0,558.3233749493957,7.0,1.0,phase_2,go,400.0,400.0,1.0,,,,,,,,,cyan,cross
0.0,3.0,2.0,0.0,6.0,0.0,0.0,8.0,1.0,phase_2,go,400.0,400.0,5.0,,,,,,,,,magenta,hexagon
0.0,8.0,4.0,1.0,6.0,0.0,0.0,8.0,1.0,phase_2,stop,400.0,400.0,4.0,,,,,,,,,green,circle
0.0,4.0,4.0,0.0,5.0,5.0,414.0417010057717,8.0,1.0,phase_2,go,400.0,450.0,1.0,,,,,,,,,yellow,I
0.0,5.0,0.5,1.0,5.0,5.0,435.2718249429017,8.0,1.0,phase_2,stop,400.0,450.0,3.0,,,,,,,,,cyan,cross
0.0,3.0,2.0,0.0,6.0,6.0,476.9705230137333,8.0,1.0,phase_2,go,350.0,450.0,1.0,,,,,,,,,magenta,hexagon
0.0,5.0,0.5,1.0,5.0,5.0,412.3934169765562,8.0,1.0,phase_2,stop,350.0,450.0,3.0,,,,,,,,,cyan,cross
0.0,7.0,2.0,1.0,5.0,5.0,612.8388720098883,8.0,1.0,phase_2,go,300.0,450.0,1.0,,,,,,,,,orange,triangle
0.0,4.0,4.0,0.0,5.0,5.0,569.8437469545752,8.0,1.0,phase_2,go,300.0,450.0,1.0,,,,,,,,,yellow,I
0.0,1.0,0.5,0.0,6.0,6.0,579.306602012366,8.0,1.0,phase_2,go,300.0,450.0,1.0,,,,,,,,,white,square
0.0,8.0,4.0,1.0,6.0,6.0,471.9215170480311,8.0,1.0,phase_2,stop,300.0,450.0,3.0,,,,,,,,,green,circle
0.0,1.0,0.5,0.0,5.0,5.0,497.3451519617811,8.0,1.0,phase_2,go,300.0,400.0,1.0,,,,,,,,,white,square
0.0,1.0,0.5,0.0,6.0,6.0,439.8079439997673,8.0,1.0,phase_2,go,300.0,400.0,1.0,,,,,,,,,white,square
0.0,8.0,4.0,1.0,5.0,0.0,0.0,8.0,1.0,phase_2,stop,300.0,400.0,4.0,,,,,,,,,green,circle
0.0,2.0,1.0,0.0,6.0,6.0,640.6652190489694,8.0,1.0,phase_2,go,350.0,400.0,1.0,,,,,,,,,blue,diamond
0.0,2.0,1.0,0.0,6.0,6.0,663.2270299596712,8.0,1.0,phase_2,go,350.0,400.0,1.0,,,,,,,,,blue,diamond
0.0,8.0,4.0,1.0,6.0,0.0,0.0,8.0,1.0,phase_2,stop,350.0,400.0,4.0,,,,,,,,,green,circle
0.0,5.0,0.5,1.0,6.0,6.0,548.9858809160069,8.0,1.0,phase_2,go,350.0,450.0,1.0,,,,,,,,,cyan,cross
0.0,2.0,1.0,0.0,5.0,5.0,571.4853609679267,8.0,1.0,phase_2,go,350.0,450.0,1.0,,,,,,,,,blue,diamond
0.0,5.0,0.5,1.0,6.0,6.0,604.0383640211076,8.0,1.0,phase_2,stop,350.0,450.0,3.0,,,,,,,,,cyan,cross
0.0,8.0,4.0,1.0,6.0,0.0,0.0,8.0,1.0,phase_2,stop,350.0,400.0,4.0,,,,,,,,,green,circle
0.0,1.0,0.5,0.0,5.0,5.0,468.0908559821546,8.0,1.0,phase_2,go,350.0,450.0,1.0,,,,,,,,,white,square
0.0,4.0,4.0,0.0,6.0,6.0,777.890803059563,8.0,1.0,phase_2,go,350.0,450.0,1.0,,,,,,,,,yellow,I
0.0,4.0,4.0,0.0,5.0,5.0,516.494665062055,8.0,1.0,phase_2,go,350.0,450.0,1.0,,,,,,,,,yellow,I
0.0,7.0,2.0,1.0,6.0,0.0,0.0,8.0,1.0,phase_2,stop,350.0,450.0,4.0,,,,,,,,,orange,triangle
0.0,2.0,1.0,0.0,5.0,5.0,546.4377829339355,8.0,1.0,phase_2,go,350.0,500.0,1.0,,,,,,,,,blue,diamond
0.0,5.0,0.5,1.0,5.0,0.0,0.0,8.0,1.0,phase_2,stop,350.0,500.0,4.0,,,,,,,,,cyan,cross
0.0,1.0,0.5,0.0,5.0,5.0,576.5981910517439,8.0,1.0,phase_2,go,400.0,500.0,1.0,,,,,,,,,white,square
0.0,6.0,1.0,1.0,5.0,5.0,519.4736419944093,8.0,1.0,phase_2,stop,400.0,500.0,3.0,,,,,,,,,gray,flipped triangle
0.0,3.0,2.0,0.0,6.0,6.0,605.9014030033723,8.0,1.0,phase_2,go,350.0,500.0,1.0,,,,,,,,,magenta,hexagon
0.0,5.0,0.5,1.0,6.0,6.0,558.7173060048372,8.0,1.0,phase_2,go,350.0,500.0,1.0,,,,,,,,,cyan,cross
0.0,1.0,0.5,0.0,5.0,5.0,517.9951260797679,8.0,1.0,phase_2,go,350.0,500.0,1.0,,,,,,,,,white,square
0.0,7.0,2.0,1.0,5.0,0.0,0.0,8.0,1.0,phase_2,stop,350.0,500.0,4.0,,,,,,,,,orange,triangle
0.0,3.0,2.0,0.0,5.0,5.0,595.5897810636088,8.0,1.0,phase_2,go,400.0,500.0,1.0,,,,,,,,,magenta,hexagon
0.0,7.0,2.0,1.0,5.0,5.0,542.6010399824008,8.0,1.0,phase_2,stop,400.0,500.0,3.0,,,,,,,,,orange,triangle
0.0,1.0,0.5,0.0,5.0,5.0,749.3625760544091,8.0,1.0,phase_2,go,350.0,500.0,1.0,,,,,,,,,white,square
0.0,5.0,0.5,1.0,5.0,0.0,0.0,8.0,1.0,phase_2,stop,350.0,500.0,4.0,,,,,,,,,cyan,cross
0.0,5.0,0.5,1.0,7.0,5.0,2580.9507169760764,1.0,1.0,phase_3,,,,,147.0,3.0,49.0,98.0,294.0,245.0,147.0,196.0,cyan,cross
0.0,5.0,0.5,1.0,7.0,6.0,1603.2053480157629,1.0,1.0,phase_3,,,,,156.0,4.0,117.0,39.0,195.0,234.0,78.0,156.0,cyan,cross
0.0,5.0,0.5,1.0,7.0,1.0,3940.5764440307394,1.0,1.0,phase_3,,,,,132.0,3.0,132.0,176.0,220.0,264.0,44.0,88.0,cyan,cross
0.0,5.0,0.5,1.0,7.0,3.0,3998.78507910762,1.0,1.0,phase_3,,,,,170.0,5.0,68.0,204.0,170.0,136.0,34.0,102.0,cyan,cross
0.0,2.0,1.0,0.0,7.0,2.0,4248.407213948667,1.0,2.0,phase_3,,,,,196.0,4.0,147.0,196.0,294.0,49.0,98.0,245.0,blue,diamond
0.0,1.0,0.5,0.0,7.0,5.0,2693.8339199405164,1.0,2.0,phase_3,,,,,136.0,4.0,68.0,170.0,204.0,102.0,136.0,34.0,white,square
0.0,7.0,2.0,1.0,7.0,5.0,2167.121317004785,1.0,1.0,phase_3,,,,,34.0,1.0,136.0,170.0,102.0,68.0,34.0,204.0,orange,triangle
0.0,5.0,0.5,1.0,7.0,5.0,3697.928812005557,1.0,1.0,phase_3,,,,,162.0,3.0,324.0,54.0,108.0,270.0,162.0,216.0,cyan,cross
0.0,3.0,2.0,0.0,7.0,1.0,1314.288444002159,1.0,1.0,phase_3,,,,,117.0,3.0,117.0,234.0,195.0,78.0,156.0,39.0,magenta,hexagon
0.0,3.0,2.0,0.0,7.0,5.0,3610.781730967574,1.0,1.0,phase_3,,,,,102.0,3.0,34.0,68.0,170.0,204.0,102.0,136.0,magenta,hexagon
0.0,6.0,1.0,1.0,7.0,4.0,2826.669736998156,1.0,1.0,phase_3,,,,,39.0,1.0,195.0,117.0,156.0,39.0,234.0,78.0,gray,flipped triangle
0.0,4.0,4.0,0.0,7.0,2.0,4811.653261072934,1.0,1.0,phase_3,,,,,195.0,5.0,39.0,195.0,117.0,156.0,78.0,234.0,yellow,I
0.0,4.0,4.0,0.0,7.0,6.0,2300.037435023114,1.0,1.0,phase_3,,,,,196.0,4.0,98.0,49.0,294.0,245.0,147.0,196.0,yellow,I
0.0,7.0,2.0,1.0,7.0,5.0,2331.989179947413,1.0,1.0,phase_3,,,,,147.0,3.0,49.0,245.0,294.0,196.0,147.0,98.0,orange,triangle
0.0,7.0,2.0,1.0,7.0,6.0,1576.5121009899303,1.0,1.0,phase_3,,,,,132.0,3.0,88.0,176.0,44.0,220.0,264.0,132.0,orange,triangle
0.0,3.0,2.0,0.0,7.0,5.0,3079.52165894676,1.0,1.0,phase_3,,,,,162.0,3.0,270.0,324.0,216.0,108.0,162.0,54.0,magenta,hexagon
0.0,4.0,4.0,0.0,7.0,6.0,2913.335141958669,1.0,1.0,phase_3,,,,,324.0,6.0,216.0,270.0,108.0,162.0,54.0,324.0,yellow,I
0.0,2.0,1.0,0.0,7.0,6.0,1562.7505918964744,1.0,1.0,phase_3,,,,,245.0,5.0,294.0,98.0,49.0,196.0,147.0,245.0,blue,diamond
0.0,1.0,0.5,0.0,7.0,4.0,1179.4913170160726,1.0,1.0,phase_3,,,,,78.0,2.0,117.0,195.0,234.0,78.0,39.0,156.0,white,square
0.0,4.0,4.0,0.0,7.0,3.0,1651.889625005424,1.0,1.0,phase_3,,,,,204.0,6.0,170.0,136.0,204.0,68.0,102.0,34.0,yellow,I
0.0,7.0,2.0,1.0,7.0,5.0,1485.0377209950238,2.0,1.0,phase_3,,,,,147.0,3.0,294.0,49.0,245.0,98.0,147.0,196.0,orange,triangle
0.0,8.0,4.0,1.0,7.0,1.0,2774.395161075517,2.0,1.0,phase_3,,,,,294.0,6.0,294.0,245.0,147.0,49.0,196.0,98.0,green,circle
0.0,6.0,1.0,1.0,7.0,3.0,1207.6190049992874,2.0,1.0,phase_3,,,,,39.0,1.0,234.0,156.0,39.0,117.0,78.0,195.0,gray,flipped triangle
0.0,7.0,2.0,1.0,7.0,4.0,1248.8247089786455,2.0,1.0,phase_3,,,,,117.0,3.0,234.0,195.0,39.0,117.0,156.0,78.0,orange,triangle
0.0,3.0,2.0,0.0,7.0,6.0,1929.9304110463709,2.0,1.0,phase_3,,,,,156.0,4.0,78.0,39.0,195.0,117.0,234.0,156.0,magenta,hexagon
0.0,3.0,2.0,0.0,7.0,4.0,2244.01016405318,2.0,1.0,phase_3,,,,,136.0,4.0,68.0,170.0,102.0,136.0,34.0,204.0,magenta,hexagon
0.0,2.0,1.0,0.0,7.0,4.0,1742.665661033243,2.0,1.0,phase_3,,,,,204.0,6.0,34.0,68.0,136.0,204.0,170.0,102.0,blue,diamond
0.0,3.0,2.0,0.0,7.0,2.0,2320.8856470882893,2.0,1.0,phase_3,,,,,147.0,3.0,98.0,147.0,245.0,49.0,294.0,196.0,magenta,hexagon
0.0,1.0,0.5,0.0,7.0,1.0,2305.05974998232,2.0,1.0,phase_3,,,,,196.0,4.0,196.0,49.0,245.0,147.0,98.0,294.0,white,square
0.0,3.0,2.0,0.0,7.0,5.0,2058.645828976296,2.0,1.0,phase_3,,,,,147.0,3.0,294.0,245.0,98.0,196.0,147.0,49.0,magenta,hexagon
0.0,4.0,4.0,0.0,7.0,1.0,1788.510888000019,2.0,1.0,phase_3,,,,,234.0,6.0,234.0,117.0,39.0,78.0,156.0,195.0,yellow,I
0.0,4.0,4.0,0.0,7.0,5.0,1947.9794029612092,2.0,1.0,phase_3,,,,,264.0,6.0,220.0,88.0,44.0,132.0,264.0,176.0,yellow,I
0.0,1.0,0.5,0.0,7.0,5.0,3742.2624409664418,2.0,1.0,phase_3,,,,,270.0,5.0,216.0,108.0,54.0,162.0,270.0,324.0,white,square
0.0,7.0,2.0,1.0,7.0,1.0,2567.2580930404365,2.0,1.0,phase_3,,,,,156.0,4.0,156.0,117.0,195.0,78.0,39.0,234.0,orange,triangle
0.0,4.0,4.0,0.0,7.0,5.0,993.354839971289,2.0,1.0,phase_3,,,,,220.0,5.0,88.0,176.0,264.0,132.0,220.0,44.0,yellow,I
0.0,8.0,4.0,1.0,7.0,3.0,1435.3073049569502,2.0,1.0,phase_3,,,,,324.0,6.0,216.0,270.0,324.0,108.0,54.0,162.0,green,circle
0.0,8.0,4.0,1.0,7.0,1.0,1707.868931000121,2.0,1.0,phase_3,,,,,234.0,6.0,234.0,156.0,117.0,39.0,78.0,195.0,green,circle
0.0,5.0,0.5,1.0,7.0,6.0,1566.890529007651,2.0,1.0,phase_3,,,,,294.0,6.0,98.0,49.0,245.0,147.0,196.0,294.0,cyan,cross
0.0,3.0,2.0,0.0,7.0,3.0,2388.645343016833,2.0,1.0,phase_3,,,,,176.0,4.0,220.0,264.0,176.0,88.0,132.0,44.0,magenta,hexagon
0.0,5.0,0.5,1.0,7.0,6.0,2178.462765063159,2.0,1.0,phase_3,,,,,170.0,5.0,68.0,136.0,204.0,102.0,34.0,170.0,cyan,cross
0.0,1.0,0.5,0.0,7.0,1.0,2232.708274037577,3.0,1.0,phase_3,,,,,220.0,5.0,220.0,88.0,44.0,264.0,176.0,132.0,white,square
0.0,8.0,4.0,1.0,7.0,2.0,2242.445335024968,3.0,1.0,phase_3,,,,,195.0,5.0,234.0,195.0,78.0,117.0,39.0,156.0,green,circle
0.0,2.0,1.0,0.0,7.0,6.0,1837.0459059951827,3.0,1.0,phase_3,,,,,234.0,6.0,117.0,39.0,156.0,195.0,78.0,234.0,blue,diamond
0.0,4.0,4.0,0.0,7.0,6.0,2206.09033794608,3.0,1.0,phase_3,,,,,170.0,5.0,102.0,68.0,136.0,34.0,204.0,170.0,yellow,I
0.0,2.0,1.0,0.0,7.0,6.0,1503.4572860458866,3.0,1.0,phase_3,,,,,216.0,4.0,108.0,270.0,162.0,324.0,54.0,216.0,blue,diamond
0.0,1.0,0.5,0.0,7.0,5.0,1855.5820069741455,3.0,1.0,phase_3,,,,,220.0,5.0,176.0,44.0,88.0,264.0,220.0,132.0,white,square
0.0,7.0,2.0,1.0,7.0,1.0,1295.4777779523283,3.0,1.0,phase_3,,,,,170.0,5.0,170.0,34.0,68.0,136.0,102.0,204.0,orange,triangle
0.0,6.0,1.0,1.0,7.0,6.0,1555.679471930489,3.0,1.0,phase_3,,,,,54.0,1.0,270.0,162.0,108.0,324.0,216.0,54.0,gray,flipped triangle
0.0,7.0,2.0,1.0,7.0,2.0,3555.75174104888,3.0,1.0,phase_3,,,,,108.0,2.0,54.0,108.0,270.0,162.0,216.0,324.0,orange,triangle
0.0,1.0,0.5,0.0,7.0,6.0,2309.7262599039823,3.0,1.0,phase_3,,,,,195.0,5.0,78.0,39.0,117.0,234.0,156.0,195.0,white,square
0.0,8.0,4.0,1.0,7.0,1.0,3174.5939640095457,3.0,1.0,phase_3,,,,,220.0,5.0,220.0,88.0,264.0,44.0,176.0,132.0,green,circle
0.0,6.0,1.0,1.0,7.0,5.0,1143.4791249921543,3.0,1.0,phase_3,,,,,34.0,1.0,136.0,170.0,204.0,68.0,34.0,102.0,gray,flipped triangle
0.0,4.0,4.0,0.0,7.0,6.0,1992.096864967607,3.0,1.0,phase_3,,,,,196.0,4.0,245.0,147.0,294.0,49.0,98.0,196.0,yellow,I
0.0,2.0,1.0,0.0,7.0,3.0,1554.7139149857685,3.0,1.0,phase_3,,,,,324.0,6.0,216.0,162.0,324.0,108.0,270.0,54.0,blue,diamond
0.0,1.0,0.5,0.0,7.0,4.0,2178.6289329174906,3.0,1.0,phase_3,,,,,324.0,6.0,162.0,216.0,54.0,324.0,270.0,108.0,white,square
0.0,2.0,1.0,0.0,7.0,5.0,1836.3749369746076,3.0,1.0,phase_3,,,,,132.0,3.0,220.0,44.0,88.0,176.0,132.0,264.0,blue,diamond
0.0,3.0,2.0,0.0,7.0,2.0,1501.3751719379798,3.0,1.0,phase_3,,,,,132.0,3.0,264.0,132.0,44.0,220.0,176.0,88.0,magenta,hexagon
0.0,2.0,1.0,0.0,7.0,1.0,1584.6652659820393,3.0,1.0,phase_3,,,,,195.0,5.0,195.0,78.0,117.0,156.0,234.0,39.0,blue,diamond
0.0,2.0,1.0,0.0,7.0,1.0,1673.928112955764,3.0,1.0,phase_3,,,,,204.0,6.0,204.0,68.0,34.0,170.0,102.0,136.0,blue,diamond
0.0,6.0,1.0,1.0,7.0,6.0,1738.3484200108796,3.0,1.0,phase_3,,,,,49.0,1.0,147.0,294.0,245.0,98.0,196.0,49.0,gray,flipped triangle
0.0,3.0,2.0,0.0,7.0,6.0,1933.6593160405755,4.0,1.0,phase_3,,,,,108.0,2.0,54.0,162.0,216.0,324.0,270.0,108.0,magenta,hexagon
0.0,6.0,1.0,1.0,7.0,2.0,1629.1844089282677,4.0,1.0,phase_3,,,,,44.0,1.0,88.0,44.0,264.0,176.0,132.0,220.0,gray,flipped triangle
0.0,8.0,4.0,1.0,7.0,5.0,1650.9937209775671,4.0,1.0,phase_3,,,,,264.0,6.0,44.0,220.0,132.0,176.0,264.0,88.0,green,circle
0.0,5.0,0.5,1.0,7.0,3.0,1106.3520199386403,4.0,1.0,phase_3,,,,,324.0,6.0,54.0,216.0,324.0,162.0,108.0,270.0,cyan,cross
0.0,4.0,4.0,0.0,7.0,6.0,1489.7386669181287,4.0,1.0,phase_3,,,,,162.0,3.0,270.0,324.0,108.0,216.0,54.0,162.0,yellow,I
0.0,8.0,4.0,1.0,7.0,3.0,1347.156272968277,4.0,1.0,phase_3,,,,,204.0,6.0,102.0,136.0,204.0,68.0,34.0,170.0,green,circle
0.0,6.0,1.0,1.0,7.0,6.0,1093.1987799704077,4.0,1.0,phase_3,,,,,68.0,2.0,102.0,204.0,34.0,136.0,170.0,68.0,gray,flipped triangle
0.0,6.0,1.0,1.0,7.0,1.0,1029.3777639744803,4.0,1.0,phase_3,,,,,88.0,2.0,88.0,220.0,132.0,44.0,176.0,264.0,gray,flipped triangle
0.0,8.0,4.0,1.0,7.0,3.0,2384.137996006757,4.0,1.0,phase_3,,,,,270.0,5.0,108.0,216.0,270.0,54.0,324.0,162.0,green,circle
0.0,1.0,0.5,0.0,7.0,1.0,2655.813390039839,4.0,1.0,phase_3,,,,,170.0,5.0,170.0,136.0,102.0,204.0,68.0,34.0,white,square
0.0,1.0,0.5,0.0,7.0,5.0,2332.6643380569294,4.0,1.0,phase_3,,,,,245.0,5.0,98.0,294.0,147.0,49.0,245.0,196.0,white,square
0.0,5.0,0.5,1.0,7.0,3.0,1251.084733987227,4.0,1.0,phase_3,,,,,264.0,6.0,132.0,44.0,264.0,88.0,220.0,176.0,cyan,cross
0.0,6.0,1.0,1.0,7.0,6.0,1476.2063549133018,4.0,1.0,phase_3,,,,,98.0,2.0,245.0,196.0,49.0,147.0,294.0,98.0,gray,flipped triangle
0.0,2.0,1.0,0.0,7.0,6.0,1377.0393070299178,4.0,1.0,phase_3,,,,,264.0,6.0,176.0,220.0,132.0,44.0,88.0,264.0,blue,diamond
0.0,7.0,2.0,1.0,7.0,5.0,1929.2489140061664,4.0,1.0,phase_3,,,,,132.0,3.0,176.0,264.0,88.0,44.0,132.0,220.0,orange,triangle
0.0,6.0,1.0,1.0,7.0,2.0,2464.231831021607,4.0,1.0,phase_3,,,,,108.0,2.0,162.0,108.0,324.0,270.0,54.0,216.0,gray,flipped triangle
0.0,8.0,4.0,1.0,7.0,4.0,1561.8090119678527,4.0,1.0,phase_3,,,,,204.0,6.0,68.0,102.0,170.0,204.0,136.0,34.0,green,circle
0.0,8.0,4.0,1.0,7.0,3.0,2244.7278989711776,4.0,1.0,phase_3,,,,,147.0,3.0,245.0,196.0,147.0,294.0,49.0,98.0,green,circle
0.0,5.0,0.5,1.0,7.0,6.0,1790.2951679425314,4.0,1.0,phase_3,,,,,156.0,4.0,117.0,195.0,234.0,39.0,78.0,156.0,cyan,cross
0.0,7.0,2.0,1.0,7.0,2.0,2461.83230902534,4.0,1.0,phase_3,,,,,216.0,4.0,270.0,216.0,108.0,54.0,162.0,324.0,orange,triangle
