raw_reward_magnitude,stim_reward,stepwise_reward_magnitude,paired_with_stopping,quadrant,response,reaction_time,block,num_trial_presentations,which_part,stop_signal_trial_type,left_SSD,right_SSD,accuracy,chosen_bidding_amount,chosen_bidding_level,possible_bid_1,possible_bid_2,possible_bid_3,possible_bid_4,possible_bid_5,possible_bid_6,color_text,shape_text
95.0,2.0,2.0,0.0,4.0,4.0,320.5202920071315,1.0,1.0,part_1,,,,,,,,,,,,,magenta,triangle
0.0,8.0,0.0,1.0,1.0,1.0,357.3693229991477,1.0,1.0,part_1,,,,,,,,,,,,,green,hexagon
409.0,4.0,4.0,0.0,4.0,4.0,300.9861489990726,1.0,1.0,part_1,,,,,,,,,,,,,yellow,diamond
0.0,6.0,0.0,1.0,4.0,4.0,366.968939997605,1.0,1.0,part_1,,,,,,,,,,,,,white,circle
0.0,5.0,0.0,1.0,3.0,3.0,309.1050530056236,1.0,1.0,part_1,,,,,,,,,,,,,orange,square
212.0,7.0,3.0,1.0,4.0,4.0,371.4401030010776,1.0,1.0,part_1,,,,,,,,,,,,,cyan,I
187.0,3.0,3.0,0.0,2.0,2.0,311.9424909964436,1.0,1.0,part_1,,,,,,,,,,,,,gray,flipped triangle
0.0,6.0,0.0,1.0,1.0,1.0,332.7025789913023,1.0,1.0,part_1,,,,,,,,,,,,,white,circle
0.0,4.0,0.0,0.0,1.0,1.0,319.3787750060437,1.0,1.0,part_1,,,,,,,,,,,,,yellow,diamond
406.0,4.0,4.0,0.0,1.0,1.0,338.9693479984998,1.0,1.0,part_1,,,,,,,,,,,,,yellow,diamond
86.0,6.0,2.0,1.0,1.0,1.0,323.4096100059105,1.0,1.0,part_1,,,,,,,,,,,,,white,circle
36.0,1.0,1.0,0.0,1.0,1.0,286.6549749887781,1.0,1.0,part_1,,,,,,,,,,,,,blue,cross
107.0,6.0,2.0,1.0,1.0,1.0,315.1580650010146,1.0,1.0,part_1,,,,,,,,,,,,,white,circle
121.0,2.0,2.0,0.0,4.0,4.0,334.5041030115681,1.0,1.0,part_1,,,,,,,,,,,,,magenta,triangle
0.0,7.0,0.0,1.0,2.0,2.0,300.053293001838,1.0,1.0,part_1,,,,,,,,,,,,,cyan,I
72.0,5.0,1.0,1.0,2.0,2.0,298.7828580080531,1.0,1.0,part_1,,,,,,,,,,,,,orange,square
48.0,1.0,1.0,0.0,3.0,3.0,246.0705460107419,1.0,1.0,part_1,,,,,,,,,,,,,blue,cross
0.0,6.0,0.0,1.0,4.0,4.0,352.4197259976063,1.0,1.0,part_1,,,,,,,,,,,,,white,circle
103.0,6.0,2.0,1.0,4.0,4.0,327.1035390062025,1.0,1.0,part_1,,,,,,,,,,,,,white,circle
184.0,7.0,3.0,1.0,1.0,1.0,314.848362992052,1.0,1.0,part_1,,,,,,,,,,,,,cyan,I
201.0,7.0,3.0,1.0,2.0,2.0,473.2187909976346,1.0,1.0,part_1,,,,,,,,,,,,,cyan,I
399.0,4.0,4.0,0.0,2.0,2.0,307.2923030122183,1.0,1.0,part_1,,,,,,,,,,,,,yellow,diamond
0.0,7.0,0.0,1.0,1.0,1.0,346.8534109997563,1.0,1.0,part_1,,,,,,,,,,,,,cyan,I
114.0,6.0,2.0,1.0,2.0,2.0,303.8501160044689,1.0,1.0,part_1,,,,,,,,,,,,,white,circle
71.0,5.0,1.0,1.0,2.0,2.0,257.2887779970187,1.0,1.0,part_1,,,,,,,,,,,,,orange,square
0.0,2.0,0.0,0.0,1.0,1.0,270.6472560093971,1.0,1.0,part_1,,,,,,,,,,,,,magenta,triangle
0.0,5.0,0.0,1.0,4.0,4.0,314.811860996997,1.0,1.0,part_1,,,,,,,,,,,,,orange,square
403.0,8.0,4.0,1.0,1.0,1.0,287.3296980105806,1.0,1.0,part_1,,,,,,,,,,,,,green,hexagon
0.0,7.0,0.0,1.0,2.0,2.0,278.1324950046837,1.0,1.0,part_1,,,,,,,,,,,,,cyan,I
75.0,1.0,1.0,0.0,2.0,2.0,256.9426609989023,1.0,1.0,part_1,,,,,,,,,,,,,blue,cross
415.0,8.0,4.0,1.0,2.0,2.0,295.4987130069639,1.0,1.0,part_1,,,,,,,,,,,,,green,hexagon
0.0,2.0,0.0,0.0,4.0,4.0,299.2989919875981,1.0,1.0,part_1,,,,,,,,,,,,,magenta,triangle
0.0,8.0,0.0,1.0,4.0,4.0,288.6479870066978,1.0,1.0,part_1,,,,,,,,,,,,,green,hexagon
221.0,3.0,3.0,0.0,4.0,4.0,263.363064994337,1.0,1.0,part_1,,,,,,,,,,,,,gray,flipped triangle
206.0,7.0,3.0,1.0,3.0,3.0,250.6265620031627,1.0,1.0,part_1,,,,,,,,,,,,,cyan,I
179.0,7.0,3.0,1.0,1.0,1.0,295.2237629942829,1.0,1.0,part_1,,,,,,,,,,,,,cyan,I
403.0,4.0,4.0,0.0,4.0,4.0,347.8097540064482,1.0,1.0,part_1,,,,,,,,,,,,,yellow,diamond
121.0,6.0,2.0,1.0,4.0,4.0,382.3722200031625,1.0,1.0,part_1,,,,,,,,,,,,,white,circle
207.0,7.0,3.0,1.0,3.0,3.0,316.8031399982283,1.0,1.0,part_1,,,,,,,,,,,,,cyan,I
409.0,8.0,4.0,1.0,2.0,2.0,288.2470299955457,1.0,1.0,part_1,,,,,,,,,,,,,green,hexagon
376.0,4.0,4.0,0.0,2.0,2.0,317.0005369902355,1.0,1.0,part_1,,,,,,,,,,,,,yellow,diamond
38.0,1.0,1.0,0.0,2.0,2.0,275.5807880021166,1.0,1.0,part_1,,,,,,,,,,,,,blue,cross
30.0,1.0,1.0,0.0,2.0,2.0,312.831510003889,1.0,1.0,part_1,,,,,,,,,,,,,blue,cross
43.0,5.0,1.0,1.0,2.0,2.0,338.5397030069725,1.0,1.0,part_1,,,,,,,,,,,,,orange,square
117.0,2.0,2.0,0.0,2.0,2.0,295.1926160021685,1.0,1.0,part_1,,,,,,,,,,,,,magenta,triangle
30.0,5.0,1.0,1.0,1.0,1.0,286.5708729950711,1.0,1.0,part_1,,,,,,,,,,,,,orange,square
381.0,8.0,4.0,1.0,1.0,1.0,299.5884070114698,1.0,1.0,part_1,,,,,,,,,,,,,green,hexagon
415.0,4.0,4.0,0.0,3.0,3.0,304.1780019993894,1.0,1.0,part_1,,,,,,,,,,,,,yellow,diamond
96.0,2.0,2.0,0.0,2.0,2.0,292.9569240077398,1.0,1.0,part_1,,,,,,,,,,,,,magenta,triangle
413.0,8.0,4.0,1.0,3.0,3.0,299.3326879950473,1.0,2.0,part_1,,,,,,,,,,,,,green,hexagon
62.0,1.0,1.0,0.0,3.0,3.0,275.971491006203,1.0,1.0,part_1,,,,,,,,,,,,,blue,cross
67.0,1.0,1.0,0.0,4.0,4.0,324.6375519956928,1.0,1.0,part_1,,,,,,,,,,,,,blue,cross
119.0,2.0,2.0,0.0,3.0,3.0,329.9625770014245,1.0,1.0,part_1,,,,,,,,,,,,,magenta,triangle
383.0,8.0,4.0,1.0,2.0,2.0,456.5530230029253,1.0,1.0,part_1,,,,,,,,,,,,,green,hexagon
184.0,7.0,3.0,1.0,3.0,3.0,306.580243006465,1.0,1.0,part_1,,,,,,,,,,,,,cyan,I
0.0,3.0,0.0,0.0,4.0,4.0,337.0768010063329,1.0,1.0,part_1,,,,,,,,,,,,,gray,flipped triangle
65.0,5.0,1.0,1.0,4.0,4.0,374.3971810035873,1.0,1.0,part_1,,,,,,,,,,,,,orange,square
391.0,8.0,4.0,1.0,1.0,1.0,316.5740749973338,1.0,1.0,part_1,,,,,,,,,,,,,green,hexagon
0.0,4.0,0.0,0.0,2.0,2.0,303.6377939861268,1.0,1.0,part_1,,,,,,,,,,,,,yellow,diamond
0.0,5.0,0.0,1.0,2.0,2.0,290.0436130003072,1.0,1.0,part_1,,,,,,,,,,,,,orange,square
191.0,7.0,3.0,1.0,2.0,2.0,374.2411489947699,1.0,1.0,part_1,,,,,,,,,,,,,cyan,I
383.0,8.0,4.0,1.0,2.0,2.0,285.9973209997406,1.0,1.0,part_1,,,,,,,,,,,,,green,hexagon
33.0,5.0,1.0,1.0,1.0,1.0,290.2087950060377,1.0,1.0,part_1,,,,,,,,,,,,,orange,square
106.0,2.0,2.0,0.0,3.0,3.0,269.6122720080893,1.0,1.0,part_1,,,,,,,,,,,,,magenta,triangle
41.0,1.0,1.0,0.0,2.0,2.0,257.1914270083653,1.0,1.0,part_1,,,,,,,,,,,,,blue,cross
26.0,1.0,1.0,0.0,4.0,4.0,287.6227590022608,1.0,1.0,part_1,,,,,,,,,,,,,blue,cross
0.0,7.0,0.0,1.0,4.0,4.0,306.9308509875554,1.0,1.0,part_1,,,,,,,,,,,,,cyan,I
0.0,2.0,0.0,0.0,2.0,2.0,335.1624589995481,1.0,1.0,part_1,,,,,,,,,,,,,magenta,triangle
50.0,1.0,1.0,0.0,3.0,3.0,303.092991001904,1.0,1.0,part_1,,,,,,,,,,,,,blue,cross
394.0,8.0,4.0,1.0,3.0,3.0,355.6553749949671,1.0,1.0,part_1,,,,,,,,,,,,,green,hexagon
425.0,8.0,4.0,1.0,3.0,3.0,328.2387579965871,1.0,1.0,part_1,,,,,,,,,,,,,green,hexagon
38.0,5.0,1.0,1.0,4.0,4.0,308.0422909988556,1.0,1.0,part_1,,,,,,,,,,,,,orange,square
57.0,1.0,1.0,0.0,4.0,4.0,303.3811249915743,1.0,1.0,part_1,,,,,,,,,,,,,blue,cross
0.0,3.0,0.0,0.0,1.0,1.0,275.4037920094561,1.0,1.0,part_1,,,,,,,,,,,,,gray,flipped triangle
0.0,6.0,0.0,1.0,1.0,1.0,313.4065720078069,1.0,1.0,part_1,,,,,,,,,,,,,white,circle
70.0,5.0,1.0,1.0,4.0,4.0,278.6909630085574,1.0,1.0,part_1,,,,,,,,,,,,,orange,square
395.0,8.0,4.0,1.0,2.0,2.0,284.7487240069313,1.0,1.0,part_1,,,,,,,,,,,,,green,hexagon
0.0,4.0,0.0,0.0,2.0,2.0,313.4438800043426,1.0,1.0,part_1,,,,,,,,,,,,,yellow,diamond
85.0,6.0,2.0,1.0,4.0,4.0,307.2507900069468,1.0,1.0,part_1,,,,,,,,,,,,,white,circle
30.0,5.0,1.0,1.0,2.0,2.0,259.2694899940397,1.0,1.0,part_1,,,,,,,,,,,,,orange,square
0.0,3.0,0.0,0.0,2.0,2.0,294.3079969991231,1.0,1.0,part_1,,,,,,,,,,,,,gray,flipped triangle
417.0,4.0,4.0,0.0,1.0,1.0,337.2943620051956,1.0,1.0,part_1,,,,,,,,,,,,,yellow,diamond
57.0,5.0,1.0,1.0,2.0,2.0,317.2697499976493,1.0,1.0,part_1,,,,,,,,,,,,,orange,square
31.0,5.0,1.0,1.0,4.0,4.0,315.3053319983883,1.0,1.0,part_1,,,,,,,,,,,,,orange,square
114.0,2.0,2.0,0.0,2.0,2.0,278.9513440075097,1.0,1.0,part_1,,,,,,,,,,,,,magenta,triangle
43.0,1.0,1.0,0.0,2.0,2.0,285.5699960055062,1.0,1.0,part_1,,,,,,,,,,,,,blue,cross
103.0,6.0,2.0,1.0,2.0,2.0,273.6438400024781,1.0,1.0,part_1,,,,,,,,,,,,,white,circle
110.0,6.0,2.0,1.0,4.0,4.0,334.741024998948,1.0,1.0,part_1,,,,,,,,,,,,,white,circle
92.0,6.0,2.0,1.0,1.0,1.0,324.7768309956882,1.0,1.0,part_1,,,,,,,,,,,,,white,circle
57.0,1.0,1.0,0.0,1.0,1.0,343.7700789945666,1.0,1.0,part_1,,,,,,,,,,,,,blue,cross
107.0,2.0,2.0,0.0,4.0,4.0,356.1447609972674,1.0,1.0,part_1,,,,,,,,,,,,,magenta,triangle
0.0,6.0,0.0,1.0,2.0,2.0,311.8338810018031,1.0,1.0,part_1,,,,,,,,,,,,,white,circle
98.0,2.0,2.0,0.0,4.0,4.0,302.5611990015022,1.0,1.0,part_1,,,,,,,,,,,,,magenta,triangle
48.0,5.0,1.0,1.0,2.0,2.0,285.3097650076961,1.0,1.0,part_1,,,,,,,,,,,,,orange,square
33.0,1.0,1.0,0.0,3.0,3.0,318.4587270079646,1.0,1.0,part_1,,,,,,,,,,,,,blue,cross
399.0,8.0,4.0,1.0,4.0,4.0,317.7120369946351,1.0,1.0,part_1,,,,,,,,,,,,,green,hexagon
180.0,7.0,3.0,1.0,2.0,2.0,304.020985000534,1.0,1.0,part_1,,,,,,,,,,,,,cyan,I
0.0,5.0,0.0,1.0,4.0,4.0,341.8187670031329,1.0,1.0,part_1,,,,,,,,,,,,,orange,square
86.0,6.0,2.0,1.0,1.0,1.0,300.4033990000607,1.0,1.0,part_1,,,,,,,,,,,,,white,circle
201.0,3.0,3.0,0.0,1.0,1.0,304.8573760024737,1.0,1.0,part_1,,,,,,,,,,,,,gray,flipped triangle
86.0,2.0,2.0,0.0,1.0,1.0,270.2124630013713,2.0,1.0,part_1,,,,,,,,,,,,,magenta,triangle
115.0,2.0,2.0,0.0,1.0,1.0,268.6129319918109,2.0,1.0,part_1,,,,,,,,,,,,,magenta,triangle
376.0,8.0,4.0,1.0,1.0,1.0,320.5313560029026,2.0,1.0,part_1,,,,,,,,,,,,,green,hexagon
111.0,2.0,2.0,0.0,1.0,1.0,284.8547719913767,2.0,1.0,part_1,,,,,,,,,,,,,magenta,triangle
0.0,2.0,0.0,0.0,3.0,3.0,307.8882029949454,2.0,1.0,part_1,,,,,,,,,,,,,magenta,triangle
223.0,7.0,3.0,1.0,3.0,3.0,310.4564600071171,2.0,1.0,part_1,,,,,,,,,,,,,cyan,I
389.0,4.0,4.0,0.0,1.0,1.0,285.3342360031092,2.0,1.0,part_1,,,,,,,,,,,,,yellow,diamond
106.0,2.0,2.0,0.0,1.0,1.0,328.6322390049463,2.0,1.0,part_1,,,,,,,,,,,,,magenta,triangle
194.0,7.0,3.0,1.0,1.0,1.0,309.8385119956219,2.0,1.0,part_1,,,,,,,,,,,,,cyan,I
111.0,6.0,2.0,1.0,1.0,1.0,305.1494739920599,2.0,1.0,part_1,,,,,,,,,,,,,white,circle
205.0,7.0,3.0,1.0,1.0,1.0,285.1350780110806,2.0,1.0,part_1,,,,,,,,,,,,,cyan,I
64.0,5.0,1.0,1.0,4.0,4.0,345.3137010073988,2.0,2.0,part_1,,,,,,,,,,,,,orange,square
62.0,5.0,1.0,1.0,2.0,2.0,633.9768970065052,2.0,1.0,part_1,,,,,,,,,,,,,orange,square
415.0,4.0,4.0,0.0,1.0,1.0,384.0171159972669,2.0,1.0,part_1,,,,,,,,,,,,,yellow,diamond
0.0,4.0,0.0,0.0,4.0,4.0,342.097664004541,2.0,1.0,part_1,,,,,,,,,,,,,yellow,diamond
0.0,1.0,0.0,0.0,4.0,4.0,352.5166189938318,2.0,1.0,part_1,,,,,,,,,,,,,blue,cross
36.0,5.0,1.0,1.0,3.0,3.0,320.1997350115562,2.0,1.0,part_1,,,,,,,,,,,,,orange,square
0.0,5.0,0.0,1.0,4.0,4.0,332.5487099937163,2.0,1.0,part_1,,,,,,,,,,,,,orange,square
0.0,6.0,0.0,1.0,3.0,3.0,303.2180949958274,2.0,1.0,part_1,,,,,,,,,,,,,white,circle
0.0,2.0,0.0,0.0,4.0,4.0,318.2179040013579,2.0,1.0,part_1,,,,,,,,,,,,,magenta,triangle
103.0,2.0,2.0,0.0,1.0,1.0,295.7986390101723,2.0,1.0,part_1,,,,,,,,,,,,,magenta,triangle
388.0,4.0,4.0,0.0,4.0,4.0,399.3631899938918,2.0,1.0,part_1,,,,,,,,,,,,,yellow,diamond
219.0,7.0,3.0,1.0,3.0,3.0,323.143526999047,2.0,1.0,part_1,,,,,,,,,,,,,cyan,I
102.0,6.0,2.0,1.0,2.0,2.0,319.8497939883964,2.0,1.0,part_1,,,,,,,,,,,,,white,circle
196.0,7.0,3.0,1.0,4.0,4.0,323.3794270054204,2.0,1.0,part_1,,,,,,,,,,,,,cyan,I
415.0,8.0,4.0,1.0,3.0,3.0,323.1308370013721,2.0,1.0,part_1,,,,,,,,,,,,,green,hexagon
52.0,1.0,1.0,0.0,2.0,2.0,307.3437169950921,2.0,1.0,part_1,,,,,,,,,,,,,blue,cross
219.0,7.0,3.0,1.0,2.0,2.0,312.1099370036972,2.0,1.0,part_1,,,,,,,,,,,,,cyan,I
77.0,2.0,2.0,0.0,4.0,4.0,296.3788689958164,2.0,1.0,part_1,,,,,,,,,,,,,magenta,triangle
198.0,7.0,3.0,1.0,2.0,2.0,323.8724610127974,2.0,1.0,part_1,,,,,,,,,,,,,cyan,I
421.0,8.0,4.0,1.0,4.0,4.0,367.8153320070123,2.0,1.0,part_1,,,,,,,,,,,,,green,hexagon
201.0,3.0,3.0,0.0,4.0,4.0,347.3408860008931,2.0,1.0,part_1,,,,,,,,,,,,,gray,flipped triangle
383.0,8.0,4.0,1.0,4.0,4.0,391.8272919981973,2.0,1.0,part_1,,,,,,,,,,,,,green,hexagon
52.0,5.0,1.0,1.0,3.0,3.0,286.5069690014934,2.0,1.0,part_1,,,,,,,,,,,,,orange,square
383.0,4.0,4.0,0.0,3.0,3.0,340.2583819988649,2.0,1.0,part_1,,,,,,,,,,,,,yellow,diamond
0.0,8.0,0.0,1.0,3.0,3.0,317.7236939955037,2.0,1.0,part_1,,,,,,,,,,,,,green,hexagon
391.0,4.0,4.0,0.0,3.0,3.0,291.5482739917934,2.0,1.0,part_1,,,,,,,,,,,,,yellow,diamond
103.0,2.0,2.0,0.0,2.0,2.0,352.0798789977561,2.0,1.0,part_1,,,,,,,,,,,,,magenta,triangle
183.0,3.0,3.0,0.0,3.0,3.0,316.6923990065697,2.0,1.0,part_1,,,,,,,,,,,,,gray,flipped triangle
81.0,2.0,2.0,0.0,3.0,3.0,323.2845269958488,2.0,1.0,part_1,,,,,,,,,,,,,magenta,triangle
197.0,3.0,3.0,0.0,4.0,4.0,320.335137002985,2.0,1.0,part_1,,,,,,,,,,,,,gray,flipped triangle
196.0,3.0,3.0,0.0,1.0,1.0,309.7123620100319,2.0,1.0,part_1,,,,,,,,,,,,,gray,flipped triangle
75.0,5.0,1.0,1.0,3.0,3.0,281.6692019987385,2.0,1.0,part_1,,,,,,,,,,,,,orange,square
26.0,5.0,1.0,1.0,4.0,4.0,366.8836279975949,2.0,1.0,part_1,,,,,,,,,,,,,orange,square
210.0,3.0,3.0,0.0,1.0,1.0,376.1176490079378,2.0,1.0,part_1,,,,,,,,,,,,,gray,flipped triangle
33.0,1.0,1.0,0.0,4.0,4.0,437.2628120036097,2.0,1.0,part_1,,,,,,,,,,,,,blue,cross
414.0,4.0,4.0,0.0,4.0,4.0,297.6403999928152,2.0,1.0,part_1,,,,,,,,,,,,,yellow,diamond
62.0,5.0,1.0,1.0,3.0,3.0,294.4058699940797,2.0,1.0,part_1,,,,,,,,,,,,,orange,square
0.0,1.0,0.0,0.0,4.0,4.0,322.6521799952024,2.0,1.0,part_1,,,,,,,,,,,,,blue,cross
0.0,1.0,0.0,0.0,2.0,2.0,375.035762990592,2.0,1.0,part_1,,,,,,,,,,,,,blue,cross
413.0,4.0,4.0,0.0,4.0,4.0,372.6270869956352,2.0,1.0,part_1,,,,,,,,,,,,,yellow,diamond
31.0,5.0,1.0,1.0,3.0,3.0,348.5000219952781,2.0,1.0,part_1,,,,,,,,,,,,,orange,square
399.0,8.0,4.0,1.0,4.0,4.0,351.3355339964619,2.0,1.0,part_1,,,,,,,,,,,,,green,hexagon
106.0,6.0,2.0,1.0,3.0,3.0,322.1532500028843,2.0,1.0,part_1,,,,,,,,,,,,,white,circle
84.0,6.0,2.0,1.0,2.0,2.0,313.3119470003294,2.0,1.0,part_1,,,,,,,,,,,,,white,circle
75.0,5.0,1.0,1.0,4.0,4.0,318.4144230035599,2.0,1.0,part_1,,,,,,,,,,,,,orange,square
61.0,5.0,1.0,1.0,2.0,2.0,354.17613400204567,2.0,1.0,part_1,,,,,,,,,,,,,orange,square
198.0,3.0,3.0,0.0,3.0,3.0,301.8477349978639,2.0,1.0,part_1,,,,,,,,,,,,,gray,flipped triangle
117.0,6.0,2.0,1.0,4.0,4.0,361.7972829961218,2.0,1.0,part_1,,,,,,,,,,,,,white,circle
37.0,1.0,1.0,0.0,4.0,4.0,343.3176359976642,2.0,1.0,part_1,,,,,,,,,,,,,blue,cross
405.0,4.0,4.0,0.0,1.0,1.0,317.140875995392,2.0,1.0,part_1,,,,,,,,,,,,,yellow,diamond
95.0,6.0,2.0,1.0,4.0,4.0,344.9082190054469,2.0,1.0,part_1,,,,,,,,,,,,,white,circle
52.0,5.0,1.0,1.0,3.0,3.0,512.1030430018436,2.0,1.0,part_1,,,,,,,,,,,,,orange,square
40.0,1.0,1.0,0.0,3.0,3.0,292.250281010638,2.0,1.0,part_1,,,,,,,,,,,,,blue,cross
383.0,4.0,4.0,0.0,1.0,1.0,273.1367589876754,2.0,1.0,part_1,,,,,,,,,,,,,yellow,diamond
91.0,6.0,2.0,1.0,3.0,3.0,329.4151250011055,2.0,2.0,part_1,,,,,,,,,,,,,white,circle
67.0,5.0,1.0,1.0,3.0,3.0,276.0601220070384,2.0,1.0,part_1,,,,,,,,,,,,,orange,square
0.0,4.0,0.0,0.0,2.0,2.0,267.843615001766,2.0,1.0,part_1,,,,,,,,,,,,,yellow,diamond
0.0,3.0,0.0,0.0,4.0,4.0,334.1526549920672,2.0,1.0,part_1,,,,,,,,,,,,,gray,flipped triangle
121.0,2.0,2.0,0.0,4.0,4.0,338.3638090017484,2.0,1.0,part_1,,,,,,,,,,,,,magenta,triangle
0.0,4.0,0.0,0.0,1.0,1.0,280.3435870009707,2.0,1.0,part_1,,,,,,,,,,,,,yellow,diamond
381.0,4.0,4.0,0.0,4.0,4.0,358.1569740053965,2.0,1.0,part_1,,,,,,,,,,,,,yellow,diamond
0.0,2.0,0.0,0.0,3.0,3.0,298.9009570010239,2.0,1.0,part_1,,,,,,,,,,,,,magenta,triangle
403.0,8.0,4.0,1.0,1.0,1.0,278.5204019892262,2.0,1.0,part_1,,,,,,,,,,,,,green,hexagon
0.0,4.0,0.0,0.0,2.0,2.0,331.3883709924994,2.0,1.0,part_1,,,,,,,,,,,,,yellow,diamond
399.0,4.0,4.0,0.0,1.0,1.0,304.5670209976379,2.0,1.0,part_1,,,,,,,,,,,,,yellow,diamond
0.0,6.0,0.0,1.0,1.0,1.0,315.6353859958472,2.0,1.0,part_1,,,,,,,,,,,,,white,circle
0.0,5.0,0.0,1.0,3.0,3.0,265.9472749946872,2.0,1.0,part_1,,,,,,,,,,,,,orange,square
190.0,3.0,3.0,0.0,1.0,1.0,268.8173770002322,2.0,1.0,part_1,,,,,,,,,,,,,gray,flipped triangle
201.0,3.0,3.0,0.0,4.0,4.0,331.1794049950549,2.0,1.0,part_1,,,,,,,,,,,,,gray,flipped triangle
108.0,6.0,2.0,1.0,4.0,4.0,335.2616880001733,2.0,1.0,part_1,,,,,,,,,,,,,white,circle
106.0,6.0,2.0,1.0,2.0,2.0,258.658809994813,2.0,1.0,part_1,,,,,,,,,,,,,white,circle
111.0,6.0,2.0,1.0,3.0,3.0,280.9143260092241,2.0,1.0,part_1,,,,,,,,,,,,,white,circle
33.0,5.0,1.0,1.0,2.0,2.0,294.2088330019032,2.0,1.0,part_1,,,,,,,,,,,,,orange,square
122.0,6.0,2.0,1.0,1.0,1.0,260.0576420081779,2.0,1.0,part_1,,,,,,,,,,,,,white,circle
0.0,3.0,0.0,0.0,2.0,2.0,424.6794329956174,2.0,1.0,part_1,,,,,,,,,,,,,gray,flipped triangle
207.0,3.0,3.0,0.0,4.0,4.0,321.69124099891627,2.0,1.0,part_1,,,,,,,,,,,,,gray,flipped triangle
417.0,8.0,4.0,1.0,2.0,2.0,326.0224639961961,2.0,1.0,part_1,,,,,,,,,,,,,green,hexagon
68.0,5.0,1.0,1.0,1.0,1.0,287.130116004846,2.0,1.0,part_1,,,,,,,,,,,,,orange,square
98.0,6.0,2.0,1.0,3.0,3.0,271.8477029993664,2.0,1.0,part_1,,,,,,,,,,,,,white,circle
65.0,1.0,1.0,0.0,3.0,3.0,302.9080960113788,2.0,1.0,part_1,,,,,,,,,,,,,blue,cross
0.0,1.0,0.0,0.0,2.0,2.0,316.3902329979464,2.0,1.0,part_1,,,,,,,,,,,,,blue,cross
425.0,4.0,4.0,0.0,2.0,2.0,312.0196559902979,2.0,1.0,part_1,,,,,,,,,,,,,yellow,diamond
0.0,1.0,0.0,0.0,4.0,4.0,332.8130279987817,2.0,1.0,part_1,,,,,,,,,,,,,blue,cross
29.0,5.0,1.0,1.0,3.0,3.0,311.5262380015338,2.0,1.0,part_1,,,,,,,,,,,,,orange,square
0.0,7.0,0.0,1.0,3.0,3.0,315.6955559970811,2.0,1.0,part_1,,,,,,,,,,,,,cyan,I
64.0,1.0,1.0,0.0,3.0,3.0,312.303715996677,2.0,1.0,part_1,,,,,,,,,,,,,blue,cross
221.0,7.0,3.0,1.0,2.0,2.0,392.1736749907722,2.0,1.0,part_1,,,,,,,,,,,,,cyan,I
57.0,5.0,1.0,1.0,4.0,4.0,364.4089860026724,2.0,1.0,part_1,,,,,,,,,,,,,orange,square
29.0,1.0,1.0,0.0,1.0,1.0,295.8257449936354,2.0,1.0,part_1,,,,,,,,,,,,,blue,cross
185.0,7.0,3.0,1.0,3.0,3.0,337.0782629936002,3.0,1.0,part_1,,,,,,,,,,,,,cyan,I
201.0,7.0,3.0,1.0,1.0,1.0,278.740444991854,3.0,1.0,part_1,,,,,,,,,,,,,cyan,I
189.0,7.0,3.0,1.0,3.0,3.0,291.0579089948442,3.0,1.0,part_1,,,,,,,,,,,,,cyan,I
85.0,2.0,2.0,0.0,2.0,2.0,325.4631769959815,3.0,1.0,part_1,,,,,,,,,,,,,magenta,triangle
202.0,3.0,3.0,0.0,3.0,3.0,332.1193419978954,3.0,1.0,part_1,,,,,,,,,,,,,gray,flipped triangle
190.0,7.0,3.0,1.0,4.0,4.0,311.0794660024112,3.0,1.0,part_1,,,,,,,,,,,,,cyan,I
84.0,2.0,2.0,0.0,4.0,4.0,347.179574004258,3.0,1.0,part_1,,,,,,,,,,,,,magenta,triangle
81.0,6.0,2.0,1.0,1.0,1.0,353.3103349909652,3.0,1.0,part_1,,,,,,,,,,,,,white,circle
217.0,3.0,3.0,0.0,3.0,3.0,270.4463600093731,3.0,1.0,part_1,,,,,,,,,,,,,gray,flipped triangle
385.0,8.0,4.0,1.0,1.0,1.0,265.9889460046543,3.0,1.0,part_1,,,,,,,,,,,,,green,hexagon
403.0,4.0,4.0,0.0,4.0,4.0,342.7067709999392,3.0,1.0,part_1,,,,,,,,,,,,,yellow,diamond
119.0,6.0,2.0,1.0,3.0,3.0,290.8866020006826,3.0,1.0,part_1,,,,,,,,,,,,,white,circle
217.0,7.0,3.0,1.0,1.0,1.0,282.4579010048182,3.0,1.0,part_1,,,,,,,,,,,,,cyan,I
0.0,2.0,0.0,0.0,1.0,1.0,324.1860940033803,3.0,2.0,part_1,,,,,,,,,,,,,magenta,triangle
423.0,4.0,4.0,0.0,2.0,2.0,333.4889209945686,3.0,1.0,part_1,,,,,,,,,,,,,yellow,diamond
36.0,1.0,1.0,0.0,4.0,4.0,300.2358009980526,3.0,1.0,part_1,,,,,,,,,,,,,blue,cross
0.0,5.0,0.0,1.0,2.0,2.0,313.457855998422,3.0,1.0,part_1,,,,,,,,,,,,,orange,square
181.0,3.0,3.0,0.0,1.0,1.0,292.055634999997,3.0,1.0,part_1,,,,,,,,,,,,,gray,flipped triangle
221.0,7.0,3.0,1.0,4.0,4.0,304.3403210031101,3.0,1.0,part_1,,,,,,,,,,,,,cyan,I
0.0,2.0,0.0,0.0,3.0,3.0,296.8403809936717,3.0,1.0,part_1,,,,,,,,,,,,,magenta,triangle
43.0,5.0,1.0,1.0,1.0,1.0,290.2193610061658,3.0,1.0,part_1,,,,,,,,,,,,,orange,square
190.0,3.0,3.0,0.0,4.0,4.0,318.7215770012699,3.0,1.0,part_1,,,,,,,,,,,,,gray,flipped triangle
39.0,5.0,1.0,1.0,1.0,1.0,293.6449400003766,3.0,1.0,part_1,,,,,,,,,,,,,orange,square
91.0,2.0,2.0,0.0,2.0,2.0,562.3902189981891,3.0,1.0,part_1,,,,,,,,,,,,,magenta,triangle
68.0,1.0,1.0,0.0,2.0,2.0,276.197349987342,3.0,1.0,part_1,,,,,,,,,,,,,blue,cross
62.0,1.0,1.0,0.0,3.0,3.0,308.4966930036898,3.0,1.0,part_1,,,,,,,,,,,,,blue,cross
383.0,4.0,4.0,0.0,2.0,2.0,279.1441220033448,3.0,1.0,part_1,,,,,,,,,,,,,yellow,diamond
191.0,3.0,3.0,0.0,2.0,2.0,317.5043830124195,3.0,1.0,part_1,,,,,,,,,,,,,gray,flipped triangle
0.0,1.0,0.0,0.0,3.0,3.0,312.9555500054266,3.0,1.0,part_1,,,,,,,,,,,,,blue,cross
377.0,4.0,4.0,0.0,2.0,2.0,302.1551730053033,3.0,1.0,part_1,,,,,,,,,,,,,yellow,diamond
182.0,7.0,3.0,1.0,2.0,2.0,249.2305630003102,3.0,1.0,part_1,,,,,,,,,,,,,cyan,I
178.0,3.0,3.0,0.0,1.0,1.0,286.5568609995534,3.0,1.0,part_1,,,,,,,,,,,,,gray,flipped triangle
117.0,6.0,2.0,1.0,3.0,3.0,337.4796660064021,3.0,1.0,part_1,,,,,,,,,,,,,white,circle
420.0,4.0,4.0,0.0,3.0,3.0,278.8460950105218,3.0,1.0,part_1,,,,,,,,,,,,,yellow,diamond
0.0,8.0,0.0,1.0,3.0,3.0,339.4795560016064,3.0,1.0,part_1,,,,,,,,,,,,,green,hexagon
0.0,5.0,0.0,1.0,3.0,3.0,360.3209699940635,3.0,1.0,part_1,,,,,,,,,,,,,orange,square
222.0,7.0,3.0,1.0,3.0,3.0,287.6731569995172,3.0,1.0,part_1,,,,,,,,,,,,,cyan,I
202.0,3.0,3.0,0.0,3.0,3.0,305.4645520023769,3.0,1.0,part_1,,,,,,,,,,,,,gray,flipped triangle
117.0,2.0,2.0,0.0,2.0,2.0,335.894071002258,3.0,1.0,part_1,,,,,,,,,,,,,magenta,triangle
222.0,3.0,3.0,0.0,1.0,1.0,562.6195940130856,3.0,1.0,part_1,,,,,,,,,,,,,gray,flipped triangle
75.0,1.0,1.0,0.0,2.0,2.0,371.0914410039549,3.0,1.0,part_1,,,,,,,,,,,,,blue,cross
107.0,2.0,2.0,0.0,2.0,2.0,277.018421998946,3.0,1.0,part_1,,,,,,,,,,,,,magenta,triangle
406.0,8.0,4.0,1.0,3.0,3.0,259.3546089919982,3.0,1.0,part_1,,,,,,,,,,,,,green,hexagon
115.0,6.0,2.0,1.0,2.0,2.0,309.9049799930071,3.0,1.0,part_1,,,,,,,,,,,,,white,circle
385.0,4.0,4.0,0.0,4.0,4.0,325.5547949956963,3.0,1.0,part_1,,,,,,,,,,,,,yellow,diamond
46.0,1.0,1.0,0.0,2.0,2.0,520.7457780052209,3.0,1.0,part_1,,,,,,,,,,,,,blue,cross
397.0,4.0,4.0,0.0,2.0,2.0,283.6995230027241,3.0,1.0,part_1,,,,,,,,,,,,,yellow,diamond
0.0,8.0,0.0,1.0,2.0,2.0,312.3459269991144,3.0,1.0,part_1,,,,,,,,,,,,,green,hexagon
72.0,1.0,1.0,0.0,3.0,3.0,280.7349840004463,3.0,1.0,part_1,,,,,,,,,,,,,blue,cross
70.0,1.0,1.0,0.0,4.0,4.0,300.4539120011031,3.0,1.0,part_1,,,,,,,,,,,,,blue,cross
213.0,3.0,3.0,0.0,2.0,2.0,313.0471389886224,3.0,1.0,part_1,,,,,,,,,,,,,gray,flipped triangle
397.0,8.0,4.0,1.0,2.0,2.0,300.904232004541,3.0,1.0,part_1,,,,,,,,,,,,,green,hexagon
37.0,5.0,1.0,1.0,1.0,1.0,247.5286959961522,3.0,1.0,part_1,,,,,,,,,,,,,orange,square
96.0,2.0,2.0,0.0,1.0,1.0,275.929821000318,3.0,1.0,part_1,,,,,,,,,,,,,magenta,triangle
80.0,6.0,2.0,1.0,1.0,1.0,283.8856450107414,3.0,1.0,part_1,,,,,,,,,,,,,white,circle
389.0,8.0,4.0,1.0,2.0,2.0,273.2904010044876,3.0,1.0,part_1,,,,,,,,,,,,,green,hexagon
39.0,1.0,1.0,0.0,2.0,2.0,274.4441729882965,3.0,1.0,part_1,,,,,,,,,,,,,blue,cross
197.0,7.0,3.0,1.0,2.0,2.0,274.7389629948884,3.0,1.0,part_1,,,,,,,,,,,,,cyan,I
41.0,5.0,1.0,1.0,2.0,2.0,300.1973289938178,3.0,1.0,part_1,,,,,,,,,,,,,orange,square
63.0,1.0,1.0,0.0,4.0,4.0,315.1294739946024,3.0,1.0,part_1,,,,,,,,,,,,,blue,cross
0.0,6.0,0.0,1.0,3.0,3.0,296.8017810053425,3.0,1.0,part_1,,,,,,,,,,,,,white,circle
390.0,4.0,4.0,0.0,1.0,1.0,274.737288011238,3.0,1.0,part_1,,,,,,,,,,,,,yellow,diamond
113.0,6.0,2.0,1.0,1.0,1.0,295.9271630097646,3.0,1.0,part_1,,,,,,,,,,,,,white,circle
77.0,2.0,2.0,0.0,1.0,1.0,355.9850820020074,3.0,1.0,part_1,,,,,,,,,,,,,magenta,triangle
207.0,7.0,3.0,1.0,4.0,4.0,351.9484580028802,3.0,1.0,part_1,,,,,,,,,,,,,cyan,I
121.0,6.0,2.0,1.0,4.0,4.0,309.4237509940285,3.0,1.0,part_1,,,,,,,,,,,,,white,circle
397.0,4.0,4.0,0.0,3.0,3.0,324.1264509997563,3.0,1.0,part_1,,,,,,,,,,,,,yellow,diamond
107.0,6.0,2.0,1.0,2.0,2.0,303.840841006604,3.0,1.0,part_1,,,,,,,,,,,,,white,circle
383.0,4.0,4.0,0.0,3.0,3.0,270.0692970101954,3.0,1.0,part_1,,,,,,,,,,,,,yellow,diamond
0.0,3.0,0.0,0.0,1.0,1.0,258.3644510013982,3.0,1.0,part_1,,,,,,,,,,,,,gray,flipped triangle
0.0,4.0,0.0,0.0,3.0,3.0,301.1590690002776,3.0,1.0,part_1,,,,,,,,,,,,,yellow,diamond
113.0,2.0,2.0,0.0,3.0,3.0,312.8864509926643,3.0,1.0,part_1,,,,,,,,,,,,,magenta,triangle
52.0,1.0,1.0,0.0,1.0,1.0,280.6456590042216,3.0,1.0,part_1,,,,,,,,,,,,,blue,cross
0.0,1.0,0.0,0.0,2.0,2.0,277.0031670079333,3.0,1.0,part_1,,,,,,,,,,,,,blue,cross
108.0,2.0,2.0,0.0,2.0,2.0,335.0449290010147,3.0,1.0,part_1,,,,,,,,,,,,,magenta,triangle
0.0,2.0,0.0,0.0,1.0,1.0,274.9597509973682,3.0,1.0,part_1,,,,,,,,,,,,,magenta,triangle
0.0,2.0,0.0,0.0,3.0,3.0,271.9803840009263,3.0,1.0,part_1,,,,,,,,,,,,,magenta,triangle
187.0,7.0,3.0,1.0,4.0,4.0,292.915719008306,3.0,1.0,part_1,,,,,,,,,,,,,cyan,I
408.0,8.0,4.0,1.0,4.0,4.0,298.0191590031609,3.0,2.0,part_1,,,,,,,,,,,,,green,hexagon
87.0,6.0,2.0,1.0,4.0,4.0,334.5801860123174,3.0,1.0,part_1,,,,,,,,,,,,,white,circle
0.0,5.0,0.0,1.0,2.0,2.0,321.2575369980186,3.0,1.0,part_1,,,,,,,,,,,,,orange,square
0.0,3.0,0.0,0.0,2.0,2.0,316.8884850019822,3.0,1.0,part_1,,,,,,,,,,,,,gray,flipped triangle
0.0,3.0,0.0,0.0,3.0,3.0,345.8641780016478,3.0,1.0,part_1,,,,,,,,,,,,,gray,flipped triangle
0.0,8.0,0.0,1.0,2.0,2.0,312.6695730024948,3.0,1.0,part_1,,,,,,,,,,,,,green,hexagon
394.0,4.0,4.0,0.0,1.0,1.0,277.7653780067339,3.0,1.0,part_1,,,,,,,,,,,,,yellow,diamond
63.0,5.0,1.0,1.0,4.0,4.0,334.8518569982843,3.0,1.0,part_1,,,,,,,,,,,,,orange,square
219.0,3.0,3.0,0.0,4.0,4.0,339.6049540024251,3.0,1.0,part_1,,,,,,,,,,,,,gray,flipped triangle
183.0,7.0,3.0,1.0,4.0,4.0,340.4577650071587,3.0,1.0,part_1,,,,,,,,,,,,,cyan,I
0.0,7.0,0.0,1.0,2.0,2.0,335.7928069890477,3.0,1.0,part_1,,,,,,,,,,,,,cyan,I
388.0,8.0,4.0,1.0,1.0,1.0,276.1968519916991,3.0,1.0,part_1,,,,,,,,,,,,,green,hexagon
30.0,1.0,1.0,0.0,3.0,3.0,287.1233219921123,3.0,1.0,part_1,,,,,,,,,,,,,blue,cross
414.0,8.0,4.0,1.0,3.0,3.0,315.7545139983995,3.0,1.0,part_1,,,,,,,,,,,,,green,hexagon
122.0,2.0,2.0,0.0,1.0,1.0,275.3167720074998,3.0,1.0,part_1,,,,,,,,,,,,,magenta,triangle
181.0,7.0,3.0,1.0,4.0,4.0,326.4485280087683,3.0,1.0,part_1,,,,,,,,,,,,,cyan,I
184.0,3.0,3.0,0.0,2.0,2.0,332.1079299930716,3.0,1.0,part_1,,,,,,,,,,,,,gray,flipped triangle
77.0,6.0,2.0,1.0,2.0,2.0,309.907734990702,3.0,1.0,part_1,,,,,,,,,,,,,white,circle
395.0,4.0,4.0,0.0,2.0,2.0,297.9646660096477,3.0,1.0,part_1,,,,,,,,,,,,,yellow,diamond
0.0,1.0,0.0,0.0,1.0,1.0,255.83957599883428,3.0,1.0,part_1,,,,,,,,,,,,,blue,cross
391.0,8.0,4.0,1.0,3.0,3.0,294.3600209982833,3.0,1.0,part_1,,,,,,,,,,,,,green,hexagon
88.0,2.0,2.0,0.0,4.0,4.0,354.6201209974242,3.0,1.0,part_1,,,,,,,,,,,,,magenta,triangle
194.0,3.0,3.0,0.0,2.0,2.0,351.1882330058142,4.0,1.0,part_1,,,,,,,,,,,,,gray,flipped triangle
415.0,4.0,4.0,0.0,3.0,3.0,291.2582040007692,4.0,1.0,part_1,,,,,,,,,,,,,yellow,diamond
0.0,7.0,0.0,1.0,3.0,3.0,280.6925429904368,4.0,1.0,part_1,,,,,,,,,,,,,cyan,I
221.0,3.0,3.0,0.0,3.0,3.0,343.8300959969638,4.0,1.0,part_1,,,,,,,,,,,,,gray,flipped triangle
106.0,2.0,2.0,0.0,4.0,4.0,336.9794350001029,4.0,1.0,part_1,,,,,,,,,,,,,magenta,triangle
189.0,3.0,3.0,0.0,2.0,2.0,334.7145500010811,4.0,1.0,part_1,,,,,,,,,,,,,gray,flipped triangle
413.0,8.0,4.0,1.0,3.0,3.0,309.1483489988604,4.0,1.0,part_1,,,,,,,,,,,,,green,hexagon
408.0,4.0,4.0,0.0,2.0,2.0,262.9810140060726,4.0,1.0,part_1,,,,,,,,,,,,,yellow,diamond
102.0,2.0,2.0,0.0,3.0,3.0,300.1750240073306,4.0,1.0,part_1,,,,,,,,,,,,,magenta,triangle
403.0,8.0,4.0,1.0,2.0,2.0,296.6398930002469,4.0,1.0,part_1,,,,,,,,,,,,,green,hexagon
31.0,1.0,1.0,0.0,1.0,1.0,321.3132939999923,4.0,1.0,part_1,,,,,,,,,,,,,blue,cross
391.0,4.0,4.0,0.0,3.0,3.0,341.972740003257,4.0,1.0,part_1,,,,,,,,,,,,,yellow,diamond
213.0,7.0,3.0,1.0,2.0,2.0,329.6912850055378,4.0,1.0,part_1,,,,,,,,,,,,,cyan,I
423.0,8.0,4.0,1.0,4.0,4.0,308.2604620140046,4.0,1.0,part_1,,,,,,,,,,,,,green,hexagon
84.0,6.0,2.0,1.0,3.0,3.0,427.70646099234,4.0,1.0,part_1,,,,,,,,,,,,,white,circle
111.0,2.0,2.0,0.0,3.0,3.0,325.9345980040962,4.0,1.0,part_1,,,,,,,,,,,,,magenta,triangle
417.0,8.0,4.0,1.0,4.0,4.0,371.0432789957849,4.0,1.0,part_1,,,,,,,,,,,,,green,hexagon
0.0,5.0,0.0,1.0,4.0,4.0,360.8620750019327,4.0,1.0,part_1,,,,,,,,,,,,,orange,square
43.0,1.0,1.0,0.0,1.0,1.0,228.9423059992259,4.0,1.0,part_1,,,,,,,,,,,,,blue,cross
201.0,7.0,3.0,1.0,1.0,1.0,266.8068850034615,4.0,1.0,part_1,,,,,,,,,,,,,cyan,I
31.0,1.0,1.0,0.0,4.0,4.0,319.4499959936365,4.0,1.0,part_1,,,,,,,,,,,,,blue,cross
223.0,3.0,3.0,0.0,4.0,4.0,356.8760269990889,4.0,1.0,part_1,,,,,,,,,,,,,gray,flipped triangle
0.0,8.0,0.0,1.0,3.0,3.0,321.25380900106387,4.0,1.0,part_1,,,,,,,,,,,,,green,hexagon
92.0,2.0,2.0,0.0,2.0,2.0,282.0870809955522,4.0,1.0,part_1,,,,,,,,,,,,,magenta,triangle
60.0,5.0,1.0,1.0,4.0,4.0,314.6082750026835,4.0,1.0,part_1,,,,,,,,,,,,,orange,square
0.0,8.0,0.0,1.0,2.0,2.0,318.7844370113453,4.0,1.0,part_1,,,,,,,,,,,,,green,hexagon
84.0,2.0,2.0,0.0,3.0,3.0,283.5633240028983,4.0,1.0,part_1,,,,,,,,,,,,,magenta,triangle
210.0,7.0,3.0,1.0,4.0,4.0,312.0781650068238,4.0,1.0,part_1,,,,,,,,,,,,,cyan,I
205.0,3.0,3.0,0.0,1.0,1.0,248.9578140084631,4.0,1.0,part_1,,,,,,,,,,,,,gray,flipped triangle
46.0,5.0,1.0,1.0,1.0,1.0,313.0680759932147,4.0,1.0,part_1,,,,,,,,,,,,,orange,square
40.0,5.0,1.0,1.0,3.0,3.0,292.694327989011,4.0,1.0,part_1,,,,,,,,,,,,,orange,square
80.0,2.0,2.0,0.0,1.0,1.0,255.37982099922368,4.0,1.0,part_1,,,,,,,,,,,,,magenta,triangle
36.0,5.0,1.0,1.0,1.0,1.0,262.9786879988387,4.0,1.0,part_1,,,,,,,,,,,,,orange,square
417.0,4.0,4.0,0.0,4.0,4.0,361.4884039998287,4.0,1.0,part_1,,,,,,,,,,,,,yellow,diamond
219.0,3.0,3.0,0.0,2.0,2.0,293.2800190028501,4.0,1.0,part_1,,,,,,,,,,,,,gray,flipped triangle
178.0,7.0,3.0,1.0,3.0,3.0,317.6741439965553,4.0,1.0,part_1,,,,,,,,,,,,,cyan,I
0.0,4.0,0.0,0.0,3.0,3.0,287.7178830094635,4.0,1.0,part_1,,,,,,,,,,,,,yellow,diamond
87.0,2.0,2.0,0.0,4.0,4.0,342.1305200026836,4.0,1.0,part_1,,,,,,,,,,,,,magenta,triangle
96.0,6.0,2.0,1.0,2.0,2.0,275.4723859980004,4.0,1.0,part_1,,,,,,,,,,,,,white,circle
0.0,7.0,0.0,1.0,2.0,2.0,292.0543700020062,4.0,1.0,part_1,,,,,,,,,,,,,cyan,I
0.0,7.0,0.0,1.0,2.0,2.0,377.9368600080488,4.0,1.0,part_1,,,,,,,,,,,,,cyan,I
177.0,3.0,3.0,0.0,2.0,2.0,286.6602040012367,4.0,1.0,part_1,,,,,,,,,,,,,gray,flipped triangle
0.0,1.0,0.0,0.0,1.0,1.0,298.7712139874929,4.0,1.0,part_1,,,,,,,,,,,,,blue,cross
377.0,8.0,4.0,1.0,1.0,1.0,282.2373219969449,4.0,1.0,part_1,,,,,,,,,,,,,green,hexagon
397.0,4.0,4.0,0.0,3.0,3.0,302.9984940076247,4.0,1.0,part_1,,,,,,,,,,,,,yellow,diamond
60.0,1.0,1.0,0.0,1.0,1.0,282.6163900026586,4.0,1.0,part_1,,,,,,,,,,,,,blue,cross
421.0,4.0,4.0,0.0,1.0,1.0,262.4899160000495,4.0,1.0,part_1,,,,,,,,,,,,,yellow,diamond
184.0,3.0,3.0,0.0,4.0,4.0,322.7614659990649,4.0,1.0,part_1,,,,,,,,,,,,,gray,flipped triangle
415.0,8.0,4.0,1.0,3.0,3.0,377.0598420087481,4.0,1.0,part_1,,,,,,,,,,,,,green,hexagon
50.0,5.0,1.0,1.0,1.0,1.0,269.8273499991046,4.0,1.0,part_1,,,,,,,,,,,,,orange,square
0.0,3.0,0.0,0.0,2.0,2.0,315.2892420039279,4.0,1.0,part_1,,,,,,,,,,,,,gray,flipped triangle
403.0,4.0,4.0,0.0,4.0,4.0,336.6343999950913,4.0,1.0,part_1,,,,,,,,,,,,,yellow,diamond
110.0,2.0,2.0,0.0,3.0,3.0,307.4788179947063,4.0,1.0,part_1,,,,,,,,,,,,,magenta,triangle
77.0,6.0,2.0,1.0,3.0,3.0,353.936662999331,4.0,1.0,part_1,,,,,,,,,,,,,white,circle
222.0,3.0,3.0,0.0,1.0,1.0,301.3975899957586,4.0,1.0,part_1,,,,,,,,,,,,,gray,flipped triangle
71.0,1.0,1.0,0.0,1.0,1.0,296.4232490048744,4.0,1.0,part_1,,,,,,,,,,,,,blue,cross
86.0,2.0,2.0,0.0,3.0,3.0,292.5468079920392,4.0,1.0,part_1,,,,,,,,,,,,,magenta,triangle
397.0,8.0,4.0,1.0,4.0,4.0,427.8956710040802,4.0,1.0,part_1,,,,,,,,,,,,,green,hexagon
202.0,7.0,3.0,1.0,4.0,4.0,335.3998319944367,4.0,1.0,part_1,,,,,,,,,,,,,cyan,I
179.0,3.0,3.0,0.0,3.0,3.0,338.2249979913467,4.0,1.0,part_1,,,,,,,,,,,,,gray,flipped triangle
206.0,3.0,3.0,0.0,2.0,2.0,465.5956420028815,4.0,1.0,part_1,,,,,,,,,,,,,gray,flipped triangle
0.0,8.0,0.0,1.0,3.0,3.0,283.6925420124316,4.0,1.0,part_1,,,,,,,,,,,,,green,hexagon
177.0,7.0,3.0,1.0,3.0,3.0,296.63889200310217,4.0,1.0,part_1,,,,,,,,,,,,,cyan,I
49.0,5.0,1.0,1.0,3.0,3.0,255.0873729924205,4.0,1.0,part_1,,,,,,,,,,,,,orange,square
96.0,6.0,2.0,1.0,1.0,1.0,261.945681006182,4.0,1.0,part_1,,,,,,,,,,,,,white,circle
413.0,4.0,4.0,0.0,3.0,3.0,290.0990019988967,4.0,1.0,part_1,,,,,,,,,,,,,yellow,diamond
0.0,6.0,0.0,1.0,2.0,2.0,332.6760819909395,4.0,1.0,part_1,,,,,,,,,,,,,white,circle
391.0,4.0,4.0,0.0,2.0,2.0,315.6046959920786,4.0,1.0,part_1,,,,,,,,,,,,,yellow,diamond
106.0,6.0,2.0,1.0,2.0,2.0,320.16737399681,4.0,1.0,part_1,,,,,,,,,,,,,white,circle
383.0,8.0,4.0,1.0,2.0,2.0,290.1000720012234,4.0,1.0,part_1,,,,,,,,,,,,,green,hexagon
0.0,1.0,0.0,0.0,4.0,4.0,402.0679799868958,4.0,1.0,part_1,,,,,,,,,,,,,blue,cross
180.0,3.0,3.0,0.0,4.0,4.0,332.3472350020893,4.0,1.0,part_1,,,,,,,,,,,,,gray,flipped triangle
207.0,3.0,3.0,0.0,3.0,3.0,327.5978599995142,4.0,1.0,part_1,,,,,,,,,,,,,gray,flipped triangle
222.0,7.0,3.0,1.0,1.0,1.0,262.7224460011348,4.0,1.0,part_1,,,,,,,,,,,,,cyan,I
207.0,3.0,3.0,0.0,1.0,1.0,315.4835949972039,4.0,1.0,part_1,,,,,,,,,,,,,gray,flipped triangle
420.0,8.0,4.0,1.0,1.0,1.0,329.1779689898249,4.0,1.0,part_1,,,,,,,,,,,,,green,hexagon
92.0,6.0,2.0,1.0,4.0,4.0,356.9382970017614,4.0,1.0,part_1,,,,,,,,,,,,,white,circle
390.0,8.0,4.0,1.0,1.0,1.0,312.3559070081683,4.0,1.0,part_1,,,,,,,,,,,,,green,hexagon
49.0,1.0,1.0,0.0,1.0,1.0,333.3668300037971,4.0,1.0,part_1,,,,,,,,,,,,,blue,cross
88.0,6.0,2.0,1.0,3.0,3.0,289.5057990099303,4.0,1.0,part_1,,,,,,,,,,,,,white,circle
397.0,8.0,4.0,1.0,3.0,3.0,320.8564169908641,4.0,1.0,part_1,,,,,,,,,,,,,green,hexagon
96.0,6.0,2.0,1.0,3.0,3.0,308.5741380054969,4.0,1.0,part_1,,,,,,,,,,,,,white,circle
92.0,2.0,2.0,0.0,3.0,3.0,296.7878600029507,4.0,1.0,part_1,,,,,,,,,,,,,magenta,triangle
405.0,8.0,4.0,1.0,4.0,4.0,364.8774620087351,4.0,1.0,part_1,,,,,,,,,,,,,green,hexagon
202.0,7.0,3.0,1.0,1.0,1.0,263.3189269981812,4.0,1.0,part_1,,,,,,,,,,,,,cyan,I
61.0,1.0,1.0,0.0,1.0,1.0,300.4634810058633,4.0,1.0,part_1,,,,,,,,,,,,,blue,cross
0.0,7.0,0.0,1.0,3.0,3.0,305.5129480053438,4.0,1.0,part_1,,,,,,,,,,,,,cyan,I
207.0,7.0,3.0,1.0,1.0,1.0,320.5328549956903,4.0,1.0,part_1,,,,,,,,,,,,,cyan,I
391.0,8.0,4.0,1.0,4.0,4.0,374.1011319943936,4.0,1.0,part_1,,,,,,,,,,,,,green,hexagon
190.0,7.0,3.0,1.0,2.0,2.0,303.0036650015972,4.0,1.0,part_1,,,,,,,,,,,,,cyan,I
96.0,2.0,2.0,0.0,1.0,1.0,326.6555010050069,4.0,1.0,part_1,,,,,,,,,,,,,magenta,triangle
0.0,6.0,0.0,1.0,1.0,1.0,274.033572000917,4.0,1.0,part_1,,,,,,,,,,,,,white,circle
45.0,1.0,1.0,0.0,4.0,4.0,344.1946299863048,4.0,1.0,part_1,,,,,,,,,,,,,blue,cross
45.0,5.0,1.0,1.0,1.0,1.0,244.817900005728,4.0,1.0,part_1,,,,,,,,,,,,,orange,square
0.0,3.0,0.0,0.0,3.0,3.0,351.2944320100359,4.0,1.0,part_1,,,,,,,,,,,,,gray,flipped triangle
182.0,3.0,3.0,0.0,3.0,3.0,315.724574989872,4.0,1.0,part_1,,,,,,,,,,,,,gray,flipped triangle
0.0,4.0,0.0,0.0,2.0,2.0,359.2359049944207,4.0,1.0,part_1,,,,,,,,,,,,,yellow,diamond
185.0,3.0,3.0,0.0,2.0,2.0,303.8413750036852,4.0,1.0,part_1,,,,,,,,,,,,,gray,flipped triangle
212.0,3.0,3.0,0.0,3.0,3.0,332.7489170042099,4.0,1.0,part_1,,,,,,,,,,,,,gray,flipped triangle
0.0,8.0,0.0,1.0,2.0,2.0,280.8263049955712,4.0,1.0,part_1,,,,,,,,,,,,,green,hexagon
0.0,2.0,2.0,0.0,6.0,6.0,377.5772689987207,1.0,0.0,part_2,go,250.0,250.0,1.0,,,,,,,,,magenta,triangle
0.0,7.0,3.0,1.0,6.0,0.0,0.0,1.0,0.0,part_2,stop,250.0,250.0,4.0,,,,,,,,,cyan,I
0.0,3.0,3.0,0.0,6.0,6.0,318.9938589930534,1.0,0.0,part_2,go,250.0,300.0,1.0,,,,,,,,,gray,flipped triangle
0.0,7.0,3.0,1.0,5.0,5.0,481.0369439946953,1.0,0.0,part_2,stop,250.0,300.0,3.0,,,,,,,,,cyan,I
0.0,1.0,1.0,0.0,5.0,5.0,351.7704270052491,1.0,0.0,part_2,go,200.0,300.0,1.0,,,,,,,,,blue,cross
0.0,1.0,1.0,0.0,5.0,5.0,336.6328390111448,1.0,0.0,part_2,go,200.0,300.0,1.0,,,,,,,,,blue,cross
0.0,2.0,2.0,0.0,5.0,5.0,335.2091800043126,1.0,0.0,part_2,go,200.0,300.0,1.0,,,,,,,,,magenta,triangle
0.0,2.0,2.0,0.0,5.0,5.0,367.3198180040344,1.0,0.0,part_2,go,200.0,300.0,1.0,,,,,,,,,magenta,triangle
0.0,7.0,3.0,1.0,6.0,6.0,459.7446999978274,1.0,0.0,part_2,stop,200.0,300.0,3.0,,,,,,,,,cyan,I
0.0,2.0,2.0,0.0,5.0,5.0,395.3341239975998,1.0,0.0,part_2,go,200.0,250.0,1.0,,,,,,,,,magenta,triangle
0.0,6.0,2.0,1.0,6.0,0.0,0.0,1.0,0.0,part_2,stop,200.0,250.0,4.0,,,,,,,,,white,circle
0.0,1.0,1.0,0.0,5.0,5.0,365.4450579924742,1.0,0.0,part_2,go,200.0,300.0,1.0,,,,,,,,,blue,cross
0.0,7.0,3.0,1.0,5.0,0.0,0.0,1.0,0.0,part_2,stop,200.0,300.0,4.0,,,,,,,,,cyan,I
0.0,5.0,1.0,1.0,6.0,0.0,0.0,1.0,0.0,part_2,stop,250.0,300.0,4.0,,,,,,,,,orange,square
0.0,5.0,1.0,1.0,6.0,0.0,0.0,1.0,0.0,part_2,stop,250.0,350.0,4.0,,,,,,,,,orange,square
0.0,2.0,2.0,0.0,5.0,5.0,554.7867940040305,1.0,0.0,part_2,go,250.0,400.0,1.0,,,,,,,,,magenta,triangle
0.0,2.0,2.0,0.0,6.0,6.0,545.3985089989146,1.0,0.0,part_2,go,250.0,400.0,1.0,,,,,,,,,magenta,triangle
0.0,8.0,4.0,1.0,5.0,5.0,726.8425100046443,1.0,0.0,part_2,go,250.0,400.0,1.0,,,,,,,,,green,hexagon
0.0,4.0,4.0,0.0,5.0,5.0,410.2669510029955,1.0,0.0,part_2,go,250.0,400.0,1.0,,,,,,,,,yellow,diamond
0.0,3.0,3.0,0.0,5.0,5.0,336.2855620071059,1.0,0.0,part_2,go,250.0,400.0,1.0,,,,,,,,,gray,flipped triangle
0.0,3.0,3.0,0.0,5.0,5.0,365.8125599904451,1.0,0.0,part_2,go,250.0,400.0,1.0,,,,,,,,,gray,flipped triangle
0.0,8.0,4.0,1.0,6.0,6.0,444.9865399947157,1.0,0.0,part_2,stop,250.0,400.0,3.0,,,,,,,,,green,hexagon
0.0,6.0,2.0,1.0,6.0,6.0,387.5484479940496,1.0,0.0,part_2,stop,250.0,350.0,3.0,,,,,,,,,white,circle
0.0,5.0,1.0,1.0,5.0,5.0,470.7141079998109,1.0,0.0,part_2,go,250.0,300.0,1.0,,,,,,,,,orange,square
0.0,2.0,2.0,0.0,6.0,6.0,381.8327089975355,1.0,0.0,part_2,go,250.0,300.0,1.0,,,,,,,,,magenta,triangle
0.0,3.0,3.0,0.0,5.0,5.0,354.6066400012932,1.0,0.0,part_2,go,250.0,300.0,1.0,,,,,,,,,gray,flipped triangle
0.0,7.0,3.0,1.0,6.0,6.0,389.5763110049302,1.0,0.0,part_2,stop,250.0,300.0,3.0,,,,,,,,,cyan,I
0.0,3.0,3.0,0.0,6.0,6.0,280.8702549955342,1.0,0.0,part_2,go,250.0,250.0,1.0,,,,,,,,,gray,flipped triangle
0.0,6.0,2.0,1.0,6.0,6.0,372.1671499952208,1.0,0.0,part_2,stop,250.0,250.0,3.0,,,,,,,,,white,circle
0.0,6.0,2.0,1.0,6.0,6.0,307.8030390024651,1.0,0.0,part_2,stop,250.0,200.0,3.0,,,,,,,,,white,circle
0.0,4.0,4.0,0.0,5.0,5.0,323.6887800012482,1.0,0.0,part_2,go,250.0,150.0,1.0,,,,,,,,,yellow,diamond
0.0,3.0,3.0,0.0,6.0,6.0,287.4394949903944,1.0,0.0,part_2,go,250.0,150.0,1.0,,,,,,,,,gray,flipped triangle
0.0,4.0,4.0,0.0,5.0,5.0,306.4527199894655,1.0,0.0,part_2,go,250.0,150.0,1.0,,,,,,,,,yellow,diamond
0.0,7.0,3.0,1.0,6.0,0.0,0.0,1.0,0.0,part_2,stop,250.0,150.0,4.0,,,,,,,,,cyan,I
0.0,3.0,3.0,0.0,6.0,6.0,477.3385379958199,1.0,0.0,part_2,go,250.0,200.0,1.0,,,,,,,,,gray,flipped triangle
0.0,2.0,2.0,0.0,5.0,5.0,271.8911720003234,1.0,0.0,part_2,go,250.0,200.0,1.0,,,,,,,,,magenta,triangle
0.0,8.0,4.0,1.0,5.0,5.0,494.4922770082485,2.0,0.0,part_2,stop,250.0,200.0,3.0,,,,,,,,,green,hexagon
0.0,5.0,1.0,1.0,5.0,0.0,0.0,2.0,0.0,part_2,stop,200.0,200.0,4.0,,,,,,,,,orange,square
0.0,2.0,2.0,0.0,5.0,5.0,645.418130006874,2.0,0.0,part_2,go,250.0,200.0,1.0,,,,,,,,,magenta,triangle
0.0,7.0,3.0,1.0,5.0,0.0,0.0,2.0,0.0,part_2,stop,250.0,200.0,4.0,,,,,,,,,cyan,I
0.0,4.0,4.0,0.0,6.0,6.0,532.0185759919696,2.0,0.0,part_2,go,300.0,200.0,1.0,,,,,,,,,yellow,diamond
0.0,7.0,3.0,1.0,5.0,5.0,396.2332969967974,2.0,0.0,part_2,stop,300.0,200.0,3.0,,,,,,,,,cyan,I
0.0,8.0,4.0,1.0,5.0,0.0,0.0,2.0,0.0,part_2,stop,250.0,200.0,4.0,,,,,,,,,green,hexagon
0.0,4.0,4.0,0.0,5.0,5.0,485.0329799955943,2.0,0.0,part_2,go,300.0,200.0,1.0,,,,,,,,,yellow,diamond
0.0,1.0,1.0,0.0,5.0,5.0,378.3317640045425,2.0,0.0,part_2,go,300.0,200.0,1.0,,,,,,,,,blue,cross
0.0,1.0,1.0,0.0,6.0,6.0,429.0391210088273,2.0,0.0,part_2,go,300.0,200.0,1.0,,,,,,,,,blue,cross
0.0,8.0,4.0,1.0,6.0,6.0,362.7145139907952,2.0,0.0,part_2,go,300.0,200.0,1.0,,,,,,,,,green,hexagon
0.0,1.0,1.0,0.0,6.0,6.0,346.6425689985044,2.0,0.0,part_2,go,300.0,200.0,1.0,,,,,,,,,blue,cross
0.0,5.0,1.0,1.0,6.0,6.0,338.2520699960878,2.0,0.0,part_2,stop,300.0,200.0,3.0,,,,,,,,,orange,square
0.0,6.0,2.0,1.0,5.0,5.0,337.8248830122174,2.0,0.0,part_2,go,300.0,150.0,1.0,,,,,,,,,white,circle
0.0,3.0,3.0,0.0,6.0,6.0,318.6626740061911,2.0,0.0,part_2,go,300.0,150.0,1.0,,,,,,,,,gray,flipped triangle
0.0,1.0,1.0,0.0,5.0,5.0,336.9079399999464,2.0,0.0,part_2,go,300.0,150.0,1.0,,,,,,,,,blue,cross
0.0,5.0,1.0,1.0,6.0,6.0,304.7548350004945,2.0,0.0,part_2,stop,300.0,150.0,3.0,,,,,,,,,orange,square
0.0,6.0,2.0,1.0,6.0,0.0,0.0,2.0,0.0,part_2,stop,300.0,100.0,4.0,,,,,,,,,white,circle
0.0,3.0,3.0,0.0,5.0,5.0,342.164784000488,2.0,0.0,part_2,go,300.0,150.0,1.0,,,,,,,,,gray,flipped triangle
0.0,3.0,3.0,0.0,6.0,6.0,509.8380170093151,2.0,0.0,part_2,go,300.0,150.0,1.0,,,,,,,,,gray,flipped triangle
0.0,7.0,3.0,1.0,5.0,0.0,0.0,2.0,0.0,part_2,stop,300.0,150.0,4.0,,,,,,,,,cyan,I
0.0,3.0,3.0,0.0,6.0,6.0,325.6551179947564,2.0,0.0,part_2,go,350.0,150.0,1.0,,,,,,,,,gray,flipped triangle
0.0,5.0,1.0,1.0,6.0,0.0,0.0,2.0,0.0,part_2,stop,350.0,150.0,4.0,,,,,,,,,orange,square
0.0,4.0,4.0,0.0,5.0,5.0,324.3885580013739,2.0,0.0,part_2,go,350.0,200.0,1.0,,,,,,,,,yellow,diamond
0.0,7.0,3.0,1.0,6.0,0.0,0.0,2.0,0.0,part_2,stop,350.0,200.0,4.0,,,,,,,,,cyan,I
0.0,2.0,2.0,0.0,6.0,6.0,378.4645279956748,2.0,0.0,part_2,go,350.0,250.0,1.0,,,,,,,,,magenta,triangle
0.0,5.0,1.0,1.0,5.0,5.0,482.7795029996196,2.0,0.0,part_2,stop,350.0,250.0,3.0,,,,,,,,,orange,square
0.0,6.0,2.0,1.0,6.0,0.0,0.0,2.0,0.0,part_2,stop,300.0,250.0,4.0,,,,,,,,,white,circle
0.0,1.0,1.0,0.0,6.0,6.0,502.62140299309976,2.0,0.0,part_2,go,300.0,300.0,1.0,,,,,,,,,blue,cross
0.0,8.0,4.0,1.0,5.0,5.0,350.7616059941938,2.0,0.0,part_2,stop,300.0,300.0,3.0,,,,,,,,,green,hexagon
0.0,3.0,3.0,0.0,6.0,6.0,455.8328199927928,2.0,0.0,part_2,go,250.0,300.0,1.0,,,,,,,,,gray,flipped triangle
0.0,3.0,3.0,0.0,5.0,5.0,525.1228669949342,2.0,0.0,part_2,go,250.0,300.0,1.0,,,,,,,,,gray,flipped triangle
0.0,8.0,4.0,1.0,5.0,5.0,388.8574699958553,2.0,0.0,part_2,go,250.0,300.0,1.0,,,,,,,,,green,hexagon
0.0,1.0,1.0,0.0,6.0,6.0,372.3140860092826,2.0,0.0,part_2,go,250.0,300.0,1.0,,,,,,,,,blue,cross
0.0,6.0,2.0,1.0,5.0,5.0,439.1459659964312,2.0,0.0,part_2,go,250.0,300.0,1.0,,,,,,,,,white,circle
0.0,4.0,4.0,0.0,6.0,6.0,451.5575309924315,2.0,0.0,part_2,go,250.0,300.0,1.0,,,,,,,,,yellow,diamond
0.0,1.0,1.0,0.0,5.0,5.0,640.949073000229,3.0,0.0,part_2,go,250.0,300.0,1.0,,,,,,,,,blue,cross
0.0,5.0,1.0,1.0,6.0,6.0,317.8731590014649,3.0,0.0,part_2,go,250.0,300.0,1.0,,,,,,,,,orange,square
0.0,2.0,2.0,0.0,6.0,6.0,564.7205099958228,3.0,0.0,part_2,go,250.0,300.0,1.0,,,,,,,,,magenta,triangle
0.0,5.0,1.0,1.0,5.0,5.0,320.5562750081299,3.0,0.0,part_2,stop,250.0,300.0,3.0,,,,,,,,,orange,square
0.0,7.0,3.0,1.0,6.0,6.0,299.8280239989981,3.0,0.0,part_2,go,200.0,300.0,1.0,,,,,,,,,cyan,I
0.0,1.0,1.0,0.0,5.0,5.0,515.7590239978163,3.0,0.0,part_2,go,200.0,300.0,1.0,,,,,,,,,blue,cross
0.0,2.0,2.0,0.0,6.0,6.0,403.3504230028484,3.0,0.0,part_2,go,200.0,300.0,1.0,,,,,,,,,magenta,triangle
0.0,4.0,4.0,0.0,6.0,6.0,427.1908030059421,3.0,0.0,part_2,go,200.0,300.0,1.0,,,,,,,,,yellow,diamond
0.0,7.0,3.0,1.0,5.0,5.0,547.8175669995835,3.0,0.0,part_2,go,200.0,300.0,1.0,,,,,,,,,cyan,I
0.0,5.0,1.0,1.0,5.0,0.0,0.0,3.0,0.0,part_2,stop,200.0,300.0,4.0,,,,,,,,,orange,square
0.0,5.0,1.0,1.0,5.0,0.0,0.0,3.0,0.0,part_2,stop,250.0,300.0,4.0,,,,,,,,,orange,square
0.0,4.0,4.0,0.0,6.0,6.0,408.4892419923562,3.0,0.0,part_2,go,300.0,300.0,1.0,,,,,,,,,yellow,diamond
0.0,8.0,4.0,1.0,5.0,5.0,521.0906589927617,3.0,0.0,part_2,stop,300.0,300.0,3.0,,,,,,,,,green,hexagon
0.0,1.0,1.0,0.0,5.0,5.0,385.2709410130046,3.0,0.0,part_2,go,250.0,300.0,1.0,,,,,,,,,blue,cross
0.0,7.0,3.0,1.0,5.0,5.0,344.6747530106222,3.0,0.0,part_2,stop,250.0,300.0,3.0,,,,,,,,,cyan,I
0.0,4.0,4.0,0.0,6.0,6.0,494.1434389911592,3.0,0.0,part_2,go,200.0,300.0,1.0,,,,,,,,,yellow,diamond
0.0,6.0,2.0,1.0,6.0,6.0,416.5461570082698,3.0,0.0,part_2,go,200.0,300.0,1.0,,,,,,,,,white,circle
0.0,8.0,4.0,1.0,5.0,0.0,0.0,3.0,0.0,part_2,stop,200.0,300.0,4.0,,,,,,,,,green,hexagon
0.0,5.0,1.0,1.0,6.0,6.0,333.795058002579,3.0,0.0,part_2,stop,250.0,300.0,3.0,,,,,,,,,orange,square
0.0,7.0,3.0,1.0,5.0,5.0,564.608500993927,3.0,0.0,part_2,go,250.0,250.0,1.0,,,,,,,,,cyan,I
0.0,3.0,3.0,0.0,5.0,5.0,469.0005830052541,3.0,0.0,part_2,go,250.0,250.0,1.0,,,,,,,,,gray,flipped triangle
0.0,4.0,4.0,0.0,5.0,5.0,514.0979790012352,3.0,0.0,part_2,go,250.0,250.0,1.0,,,,,,,,,yellow,diamond
0.0,4.0,4.0,0.0,6.0,6.0,434.5646349975141,3.0,0.0,part_2,go,250.0,250.0,1.0,,,,,,,,,yellow,diamond
0.0,2.0,2.0,0.0,6.0,6.0,314.4087319960817,3.0,0.0,part_2,go,250.0,250.0,1.0,,,,,,,,,magenta,triangle
0.0,4.0,4.0,0.0,6.0,6.0,292.9195780016016,3.0,0.0,part_2,go,250.0,250.0,1.0,,,,,,,,,yellow,diamond
0.0,8.0,4.0,1.0,6.0,6.0,268.0529920035042,3.0,0.0,part_2,stop,250.0,250.0,3.0,,,,,,,,,green,hexagon
0.0,4.0,4.0,0.0,5.0,5.0,457.3595999972895,3.0,0.0,part_2,go,250.0,200.0,1.0,,,,,,,,,yellow,diamond
0.0,7.0,3.0,1.0,5.0,5.0,327.7599680004641,3.0,0.0,part_2,stop,250.0,200.0,3.0,,,,,,,,,cyan,I
0.0,1.0,1.0,0.0,6.0,6.0,262.6704459980828,3.0,0.0,part_2,go,200.0,200.0,1.0,,,,,,,,,blue,cross
0.0,1.0,1.0,0.0,5.0,5.0,552.6371229934739,3.0,0.0,part_2,go,200.0,200.0,1.0,,,,,,,,,blue,cross
0.0,3.0,3.0,0.0,5.0,5.0,352.2594060050323,3.0,0.0,part_2,go,200.0,200.0,1.0,,,,,,,,,gray,flipped triangle
0.0,3.0,3.0,0.0,6.0,6.0,312.7204960037488,3.0,0.0,part_2,go,200.0,200.0,1.0,,,,,,,,,gray,flipped triangle
0.0,7.0,3.0,1.0,6.0,0.0,0.0,3.0,0.0,part_2,stop,200.0,200.0,4.0,,,,,,,,,cyan,I
0.0,8.0,4.0,1.0,6.0,6.0,379.9381459975848,3.0,0.0,part_2,stop,200.0,250.0,3.0,,,,,,,,,green,hexagon
0.0,6.0,2.0,1.0,5.0,0.0,0.0,3.0,0.0,part_2,stop,200.0,200.0,4.0,,,,,,,,,white,circle
0.0,7.0,3.0,1.0,6.0,6.0,325.9906300081638,3.0,0.0,part_2,go,250.0,200.0,1.0,,,,,,,,,cyan,I
0.0,5.0,1.0,1.0,5.0,5.0,280.5005730042467,4.0,0.0,part_2,stop,250.0,200.0,3.0,,,,,,,,,orange,square
0.0,8.0,4.0,1.0,5.0,0.0,0.0,4.0,0.0,part_2,stop,200.0,200.0,4.0,,,,,,,,,green,hexagon
0.0,5.0,1.0,1.0,6.0,6.0,452.7301829948555,4.0,0.0,part_2,go,250.0,200.0,1.0,,,,,,,,,orange,square
0.0,6.0,2.0,1.0,5.0,5.0,365.7655529968906,4.0,0.0,part_2,stop,250.0,200.0,3.0,,,,,,,,,white,circle
0.0,4.0,4.0,0.0,5.0,5.0,468.3225410117302,4.0,0.0,part_2,go,200.0,200.0,1.0,,,,,,,,,yellow,diamond
0.0,6.0,2.0,1.0,5.0,0.0,0.0,4.0,0.0,part_2,stop,200.0,200.0,4.0,,,,,,,,,white,circle
0.0,1.0,1.0,0.0,6.0,6.0,365.7221290050074,4.0,0.0,part_2,go,250.0,200.0,1.0,,,,,,,,,blue,cross
0.0,6.0,2.0,1.0,6.0,6.0,328.8265180017333,4.0,0.0,part_2,stop,250.0,200.0,3.0,,,,,,,,,white,circle
0.0,3.0,3.0,0.0,5.0,5.0,377.2488600079668,4.0,0.0,part_2,go,250.0,150.0,1.0,,,,,,,,,gray,flipped triangle
0.0,1.0,1.0,0.0,6.0,6.0,514.4295609934488,4.0,0.0,part_2,go,250.0,150.0,1.0,,,,,,,,,blue,cross
0.0,8.0,4.0,1.0,5.0,5.0,465.98437501234,4.0,0.0,part_2,go,250.0,150.0,1.0,,,,,,,,,green,hexagon
0.0,6.0,2.0,1.0,5.0,5.0,310.591294997721,4.0,0.0,part_2,stop,250.0,150.0,3.0,,,,,,,,,white,circle
0.0,1.0,1.0,0.0,6.0,6.0,280.2475650096312,4.0,0.0,part_2,go,200.0,150.0,1.0,,,,,,,,,blue,cross
0.0,2.0,2.0,0.0,6.0,6.0,375.2184769982705,4.0,0.0,part_2,go,200.0,150.0,1.0,,,,,,,,,magenta,triangle
0.0,6.0,2.0,1.0,6.0,6.0,270.7909349992405,4.0,0.0,part_2,stop,200.0,150.0,3.0,,,,,,,,,white,circle
0.0,8.0,4.0,1.0,6.0,0.0,0.0,4.0,0.0,part_2,stop,200.0,100.0,4.0,,,,,,,,,green,hexagon
0.0,5.0,1.0,1.0,5.0,5.0,459.9575430038385,4.0,0.0,part_2,go,200.0,150.0,1.0,,,,,,,,,orange,square
0.0,1.0,1.0,0.0,6.0,6.0,389.6486860030563,4.0,0.0,part_2,go,200.0,150.0,1.0,,,,,,,,,blue,cross
0.0,8.0,4.0,1.0,5.0,0.0,0.0,4.0,0.0,part_2,stop,200.0,150.0,4.0,,,,,,,,,green,hexagon
0.0,7.0,3.0,1.0,5.0,5.0,422.5894519913709,4.0,0.0,part_2,stop,250.0,150.0,3.0,,,,,,,,,cyan,I
0.0,3.0,3.0,0.0,5.0,5.0,460.9488679998321,4.0,0.0,part_2,go,200.0,150.0,1.0,,,,,,,,,gray,flipped triangle
0.0,2.0,2.0,0.0,6.0,6.0,291.9093180098571,4.0,0.0,part_2,go,200.0,150.0,1.0,,,,,,,,,magenta,triangle
0.0,6.0,2.0,1.0,6.0,0.0,0.0,4.0,0.0,part_2,stop,200.0,150.0,4.0,,,,,,,,,white,circle
0.0,7.0,3.0,1.0,6.0,0.0,0.0,4.0,0.0,part_2,stop,200.0,200.0,4.0,,,,,,,,,cyan,I
0.0,3.0,3.0,0.0,6.0,6.0,658.048987010261,4.0,0.0,part_2,go,200.0,250.0,1.0,,,,,,,,,gray,flipped triangle
0.0,8.0,4.0,1.0,6.0,6.0,298.2359279994853,4.0,0.0,part_2,stop,200.0,250.0,3.0,,,,,,,,,green,hexagon
0.0,6.0,2.0,1.0,5.0,5.0,368.6689979949733,4.0,0.0,part_2,stop,200.0,200.0,3.0,,,,,,,,,white,circle
0.0,4.0,4.0,0.0,5.0,5.0,390.859620005358,4.0,0.0,part_2,go,150.0,200.0,1.0,,,,,,,,,yellow,diamond
0.0,1.0,1.0,0.0,6.0,6.0,301.1694440065184,4.0,0.0,part_2,go,150.0,200.0,1.0,,,,,,,,,blue,cross
0.0,2.0,2.0,0.0,6.0,6.0,348.7276119994931,4.0,0.0,part_2,go,150.0,200.0,1.0,,,,,,,,,magenta,triangle
0.0,4.0,4.0,0.0,6.0,6.0,316.4197440055432,4.0,0.0,part_2,go,150.0,200.0,1.0,,,,,,,,,yellow,diamond
0.0,3.0,3.0,0.0,6.0,6.0,375.4439740005182,4.0,0.0,part_2,go,150.0,200.0,1.0,,,,,,,,,gray,flipped triangle
0.0,5.0,1.0,1.0,6.0,6.0,270.1102889986941,4.0,0.0,part_2,stop,150.0,200.0,3.0,,,,,,,,,orange,square
0.0,1.0,1.0,0.0,5.0,5.0,572.2319070046069,4.0,0.0,part_2,go,150.0,150.0,1.0,,,,,,,,,blue,cross
0.0,1.0,1.0,0.0,6.0,6.0,428.6061849998077,4.0,0.0,part_2,go,150.0,150.0,1.0,,,,,,,,,blue,cross
0.0,8.0,4.0,1.0,5.0,0.0,0.0,4.0,0.0,part_2,stop,150.0,150.0,4.0,,,,,,,,,green,hexagon
0.0,2.0,2.0,0.0,6.0,6.0,448.1831279990729,5.0,0.0,part_2,go,200.0,150.0,1.0,,,,,,,,,magenta,triangle
0.0,4.0,4.0,0.0,5.0,5.0,407.9745799972443,5.0,0.0,part_2,go,200.0,150.0,1.0,,,,,,,,,yellow,diamond
0.0,2.0,2.0,0.0,5.0,5.0,337.6486100023612,5.0,0.0,part_2,go,200.0,150.0,1.0,,,,,,,,,magenta,triangle
0.0,4.0,4.0,0.0,6.0,6.0,414.7920460090972,5.0,0.0,part_2,go,200.0,150.0,1.0,,,,,,,,,yellow,diamond
0.0,2.0,2.0,0.0,5.0,5.0,367.0705319964327,5.0,0.0,part_2,go,200.0,150.0,1.0,,,,,,,,,magenta,triangle
0.0,3.0,3.0,0.0,5.0,5.0,381.2599680095445,5.0,0.0,part_2,go,200.0,150.0,1.0,,,,,,,,,gray,flipped triangle
0.0,7.0,3.0,1.0,5.0,5.0,332.9038130032131,5.0,0.0,part_2,go,200.0,150.0,1.0,,,,,,,,,cyan,I
0.0,7.0,3.0,1.0,5.0,0.0,0.0,5.0,0.0,part_2,stop,200.0,150.0,4.0,,,,,,,,,cyan,I
0.0,4.0,4.0,0.0,6.0,6.0,460.1276269968366,5.0,0.0,part_2,go,250.0,150.0,1.0,,,,,,,,,yellow,diamond
0.0,8.0,4.0,1.0,6.0,6.0,282.7510249917395,5.0,0.0,part_2,go,250.0,150.0,1.0,,,,,,,,,green,hexagon
0.0,1.0,1.0,0.0,6.0,6.0,316.3621230050921,5.0,0.0,part_2,go,250.0,150.0,1.0,,,,,,,,,blue,cross
0.0,6.0,2.0,1.0,6.0,6.0,325.2367799868807,5.0,0.0,part_2,stop,250.0,150.0,3.0,,,,,,,,,white,circle
0.0,2.0,2.0,0.0,5.0,5.0,387.9947050008923,5.0,0.0,part_2,go,250.0,100.0,1.0,,,,,,,,,magenta,triangle
0.0,5.0,1.0,1.0,6.0,0.0,0.0,5.0,0.0,part_2,stop,250.0,100.0,4.0,,,,,,,,,orange,square
0.0,8.0,4.0,1.0,5.0,5.0,297.7712849969975,5.0,0.0,part_2,stop,250.0,150.0,3.0,,,,,,,,,green,hexagon
0.0,6.0,2.0,1.0,6.0,6.0,295.5395970056997,5.0,0.0,part_2,go,200.0,150.0,1.0,,,,,,,,,white,circle
0.0,8.0,4.0,1.0,6.0,6.0,318.5447470023064,5.0,0.0,part_2,stop,200.0,150.0,3.0,,,,,,,,,green,hexagon
0.0,5.0,1.0,1.0,5.0,0.0,0.0,5.0,0.0,part_2,stop,200.0,100.0,4.0,,,,,,,,,orange,square
0.0,7.0,3.0,1.0,6.0,0.0,0.0,5.0,0.0,part_2,stop,250.0,100.0,4.0,,,,,,,,,cyan,I
0.0,4.0,4.0,0.0,5.0,5.0,255.1496369997039,5.0,0.0,part_2,go,250.0,150.0,1.0,,,,,,,,,yellow,diamond
0.0,8.0,4.0,1.0,6.0,6.0,413.9485539926681,5.0,0.0,part_2,go,250.0,150.0,1.0,,,,,,,,,green,hexagon
0.0,5.0,1.0,1.0,5.0,5.0,398.0142270011129,5.0,0.0,part_2,go,250.0,150.0,1.0,,,,,,,,,orange,square
0.0,7.0,3.0,1.0,5.0,5.0,340.3520949941594,5.0,0.0,part_2,stop,250.0,150.0,3.0,,,,,,,,,cyan,I
0.0,6.0,2.0,1.0,5.0,0.0,0.0,5.0,0.0,part_2,stop,200.0,150.0,4.0,,,,,,,,,white,circle
0.0,6.0,2.0,1.0,5.0,0.0,0.0,5.0,0.0,part_2,stop,250.0,150.0,4.0,,,,,,,,,white,circle
0.0,2.0,2.0,0.0,5.0,5.0,449.9361250054789,5.0,0.0,part_2,go,300.0,150.0,1.0,,,,,,,,,magenta,triangle
0.0,3.0,3.0,0.0,6.0,6.0,401.4288150065113,5.0,0.0,part_2,go,300.0,150.0,1.0,,,,,,,,,gray,flipped triangle
0.0,1.0,1.0,0.0,5.0,5.0,330.7797440065769,5.0,0.0,part_2,go,300.0,150.0,1.0,,,,,,,,,blue,cross
0.0,3.0,3.0,0.0,5.0,5.0,563.7468289933167,5.0,0.0,part_2,go,300.0,150.0,1.0,,,,,,,,,gray,flipped triangle
0.0,8.0,4.0,1.0,6.0,0.0,0.0,5.0,0.0,part_2,stop,300.0,150.0,4.0,,,,,,,,,green,hexagon
0.0,3.0,3.0,0.0,5.0,5.0,274.7581449948484,5.0,0.0,part_2,go,300.0,200.0,1.0,,,,,,,,,gray,flipped triangle
0.0,3.0,3.0,0.0,5.0,5.0,297.3959639930399,5.0,0.0,part_2,go,300.0,200.0,1.0,,,,,,,,,gray,flipped triangle
0.0,2.0,2.0,0.0,5.0,5.0,337.1967900020536,5.0,0.0,part_2,go,300.0,200.0,1.0,,,,,,,,,magenta,triangle
0.0,7.0,3.0,1.0,6.0,6.0,327.0236230018781,5.0,0.0,part_2,stop,300.0,200.0,3.0,,,,,,,,,cyan,I
0.0,7.0,3.0,1.0,6.0,0.0,0.0,5.0,0.0,part_2,stop,300.0,150.0,4.0,,,,,,,,,cyan,I
0.0,5.0,1.0,1.0,5.0,5.0,317.9560489952564,5.0,0.0,part_2,go,300.0,200.0,1.0,,,,,,,,,orange,square
0.0,2.0,2.0,0.0,5.0,5.0,384.05814301222557,6.0,0.0,part_2,go,300.0,200.0,1.0,,,,,,,,,magenta,triangle
0.0,5.0,1.0,1.0,5.0,5.0,349.069932999555,6.0,0.0,part_2,stop,300.0,200.0,3.0,,,,,,,,,orange,square
0.0,6.0,2.0,1.0,5.0,0.0,0.0,6.0,0.0,part_2,stop,250.0,200.0,4.0,,,,,,,,,white,circle
0.0,8.0,4.0,1.0,6.0,0.0,0.0,6.0,0.0,part_2,stop,300.0,200.0,4.0,,,,,,,,,green,hexagon
0.0,8.0,4.0,1.0,6.0,6.0,420.1685290026944,6.0,0.0,part_2,go,300.0,250.0,1.0,,,,,,,,,green,hexagon
0.0,5.0,1.0,1.0,5.0,5.0,443.6673419986618,6.0,0.0,part_2,stop,300.0,250.0,3.0,,,,,,,,,orange,square
0.0,2.0,2.0,0.0,6.0,6.0,506.0915549984202,6.0,0.0,part_2,go,250.0,250.0,1.0,,,,,,,,,magenta,triangle
0.0,3.0,3.0,0.0,5.0,5.0,493.2144839985994,6.0,0.0,part_2,go,250.0,250.0,1.0,,,,,,,,,gray,flipped triangle
0.0,7.0,3.0,1.0,6.0,6.0,515.6968829978723,6.0,0.0,part_2,go,250.0,250.0,1.0,,,,,,,,,cyan,I
0.0,2.0,2.0,0.0,6.0,6.0,427.9268590034917,6.0,0.0,part_2,go,250.0,250.0,1.0,,,,,,,,,magenta,triangle
0.0,6.0,2.0,1.0,5.0,5.0,387.392861986882,6.0,0.0,part_2,stop,250.0,250.0,3.0,,,,,,,,,white,circle
0.0,2.0,2.0,0.0,5.0,5.0,362.965959997382,6.0,0.0,part_2,go,200.0,250.0,1.0,,,,,,,,,magenta,triangle
0.0,4.0,4.0,0.0,5.0,5.0,399.1536100074881,6.0,0.0,part_2,go,200.0,250.0,1.0,,,,,,,,,yellow,diamond
0.0,6.0,2.0,1.0,6.0,6.0,390.1113510073628,6.0,0.0,part_2,go,200.0,250.0,1.0,,,,,,,,,white,circle
0.0,4.0,4.0,0.0,5.0,5.0,366.1879019928165,6.0,0.0,part_2,go,200.0,250.0,1.0,,,,,,,,,yellow,diamond
0.0,5.0,1.0,1.0,6.0,6.0,381.2258820107672,6.0,0.0,part_2,stop,200.0,250.0,3.0,,,,,,,,,orange,square
0.0,7.0,3.0,1.0,6.0,0.0,0.0,6.0,0.0,part_2,stop,200.0,200.0,4.0,,,,,,,,,cyan,I
0.0,7.0,3.0,1.0,6.0,0.0,0.0,6.0,0.0,part_2,stop,200.0,250.0,4.0,,,,,,,,,cyan,I
0.0,7.0,3.0,1.0,6.0,6.0,557.3050679959124,6.0,0.0,part_2,go,200.0,300.0,1.0,,,,,,,,,cyan,I
0.0,3.0,3.0,0.0,5.0,5.0,452.8307469881838,6.0,0.0,part_2,go,200.0,300.0,1.0,,,,,,,,,gray,flipped triangle
0.0,1.0,1.0,0.0,5.0,5.0,370.7046909985365,6.0,0.0,part_2,go,200.0,300.0,1.0,,,,,,,,,blue,cross
0.0,1.0,1.0,0.0,5.0,5.0,337.7808499935781,6.0,0.0,part_2,go,200.0,300.0,1.0,,,,,,,,,blue,cross
0.0,1.0,1.0,0.0,5.0,5.0,420.3211610001744,6.0,0.0,part_2,go,200.0,300.0,1.0,,,,,,,,,blue,cross
0.0,8.0,4.0,1.0,6.0,0.0,0.0,6.0,0.0,part_2,stop,200.0,300.0,4.0,,,,,,,,,green,hexagon
0.0,4.0,4.0,0.0,6.0,6.0,553.448284001206,6.0,0.0,part_2,go,200.0,350.0,1.0,,,,,,,,,yellow,diamond
0.0,5.0,1.0,1.0,6.0,0.0,0.0,6.0,0.0,part_2,stop,200.0,350.0,4.0,,,,,,,,,orange,square
0.0,2.0,2.0,0.0,6.0,6.0,616.8758330022683,6.0,0.0,part_2,go,200.0,400.0,1.0,,,,,,,,,magenta,triangle
0.0,6.0,2.0,1.0,6.0,6.0,526.1642430123175,6.0,0.0,part_2,stop,200.0,400.0,3.0,,,,,,,,,white,circle
0.0,4.0,4.0,0.0,6.0,6.0,448.1961479905294,6.0,0.0,part_2,go,200.0,350.0,1.0,,,,,,,,,yellow,diamond
0.0,3.0,3.0,0.0,6.0,6.0,621.971754997503,6.0,0.0,part_2,go,200.0,350.0,1.0,,,,,,,,,gray,flipped triangle
0.0,8.0,4.0,1.0,5.0,0.0,0.0,6.0,0.0,part_2,stop,200.0,350.0,4.0,,,,,,,,,green,hexagon
0.0,5.0,1.0,1.0,5.0,5.0,374.5158539968543,6.0,0.0,part_2,go,250.0,350.0,1.0,,,,,,,,,orange,square
0.0,5.0,1.0,1.0,6.0,6.0,342.026343991165,6.0,0.0,part_2,stop,250.0,350.0,3.0,,,,,,,,,orange,square
0.0,4.0,4.0,0.0,6.0,6.0,500.296635000268,6.0,0.0,part_2,go,250.0,300.0,1.0,,,,,,,,,yellow,diamond
0.0,4.0,4.0,0.0,6.0,6.0,315.1398849877296,6.0,0.0,part_2,go,250.0,300.0,1.0,,,,,,,,,yellow,diamond
0.0,3.0,3.0,0.0,6.0,6.0,453.4466089971829,6.0,0.0,part_2,go,250.0,300.0,1.0,,,,,,,,,gray,flipped triangle
0.0,3.0,3.0,0.0,5.0,5.0,391.3574070029426,7.0,0.0,part_2,go,250.0,300.0,1.0,,,,,,,,,gray,flipped triangle
0.0,2.0,2.0,0.0,5.0,5.0,509.82739399478305,7.0,0.0,part_2,go,250.0,300.0,1.0,,,,,,,,,magenta,triangle
0.0,1.0,1.0,0.0,5.0,5.0,524.6943420061143,7.0,0.0,part_2,go,250.0,300.0,1.0,,,,,,,,,blue,cross
0.0,1.0,1.0,0.0,5.0,5.0,430.6356940069236,7.0,0.0,part_2,go,250.0,300.0,1.0,,,,,,,,,blue,cross
0.0,3.0,3.0,0.0,6.0,6.0,406.3961250067223,7.0,0.0,part_2,go,250.0,300.0,1.0,,,,,,,,,gray,flipped triangle
0.0,7.0,3.0,1.0,6.0,6.0,316.3966019928921,7.0,0.0,part_2,stop,250.0,300.0,3.0,,,,,,,,,cyan,I
0.0,8.0,4.0,1.0,5.0,0.0,0.0,7.0,0.0,part_2,stop,250.0,250.0,4.0,,,,,,,,,green,hexagon
0.0,5.0,1.0,1.0,6.0,0.0,0.0,7.0,0.0,part_2,stop,300.0,250.0,4.0,,,,,,,,,orange,square
0.0,3.0,3.0,0.0,6.0,6.0,363.2365200028289,7.0,0.0,part_2,go,300.0,300.0,1.0,,,,,,,,,gray,flipped triangle
0.0,2.0,2.0,0.0,5.0,5.0,330.6848810025258,7.0,0.0,part_2,go,300.0,300.0,1.0,,,,,,,,,magenta,triangle
0.0,2.0,2.0,0.0,5.0,5.0,435.0439389963867,7.0,0.0,part_2,go,300.0,300.0,1.0,,,,,,,,,magenta,triangle
0.0,8.0,4.0,1.0,6.0,6.0,441.7772349988809,7.0,0.0,part_2,go,300.0,300.0,1.0,,,,,,,,,green,hexagon
0.0,6.0,2.0,1.0,5.0,5.0,449.5620130037423,7.0,0.0,part_2,stop,300.0,300.0,3.0,,,,,,,,,white,circle
0.0,2.0,2.0,0.0,6.0,6.0,526.7404840124073,7.0,0.0,part_2,go,250.0,300.0,1.0,,,,,,,,,magenta,triangle
0.0,5.0,1.0,1.0,6.0,0.0,0.0,7.0,0.0,part_2,stop,250.0,300.0,4.0,,,,,,,,,orange,square
0.0,7.0,3.0,1.0,6.0,6.0,576.9810060010059,7.0,0.0,part_2,stop,250.0,350.0,3.0,,,,,,,,,cyan,I
0.0,6.0,2.0,1.0,5.0,0.0,0.0,7.0,0.0,part_2,stop,250.0,300.0,4.0,,,,,,,,,white,circle
0.0,4.0,4.0,0.0,6.0,6.0,427.9315649910131,7.0,0.0,part_2,go,300.0,300.0,1.0,,,,,,,,,yellow,diamond
0.0,3.0,3.0,0.0,5.0,5.0,379.7899970086291,7.0,0.0,part_2,go,300.0,300.0,1.0,,,,,,,,,gray,flipped triangle
0.0,5.0,1.0,1.0,6.0,6.0,453.596904000733,7.0,0.0,part_2,stop,300.0,300.0,3.0,,,,,,,,,orange,square
0.0,4.0,4.0,0.0,6.0,6.0,546.6749249899294,7.0,0.0,part_2,go,300.0,250.0,1.0,,,,,,,,,yellow,diamond
0.0,2.0,2.0,0.0,5.0,5.0,457.9184769972926,7.0,0.0,part_2,go,300.0,250.0,1.0,,,,,,,,,magenta,triangle
0.0,7.0,3.0,1.0,5.0,5.0,403.4543489979114,7.0,0.0,part_2,stop,300.0,250.0,3.0,,,,,,,,,cyan,I
0.0,1.0,1.0,0.0,6.0,6.0,440.9661279933061,7.0,0.0,part_2,go,250.0,250.0,1.0,,,,,,,,,blue,cross
0.0,2.0,2.0,0.0,6.0,6.0,419.2770179943181,7.0,0.0,part_2,go,250.0,250.0,1.0,,,,,,,,,magenta,triangle
0.0,5.0,1.0,1.0,5.0,5.0,368.0333249940304,7.0,0.0,part_2,stop,250.0,250.0,3.0,,,,,,,,,orange,square
0.0,7.0,3.0,1.0,5.0,0.0,0.0,7.0,0.0,part_2,stop,200.0,250.0,4.0,,,,,,,,,cyan,I
0.0,8.0,4.0,1.0,6.0,6.0,346.822842999245,7.0,0.0,part_2,stop,250.0,250.0,3.0,,,,,,,,,green,hexagon
0.0,5.0,1.0,1.0,6.0,6.0,481.4344799960963,7.0,0.0,part_2,go,250.0,200.0,1.0,,,,,,,,,orange,square
0.0,5.0,1.0,1.0,5.0,0.0,0.0,7.0,0.0,part_2,stop,250.0,200.0,4.0,,,,,,,,,orange,square
0.0,5.0,1.0,1.0,5.0,5.0,453.8730570056941,7.0,0.0,part_2,stop,300.0,200.0,3.0,,,,,,,,,orange,square
0.0,1.0,1.0,0.0,6.0,6.0,431.7691279866267,7.0,0.0,part_2,go,250.0,200.0,1.0,,,,,,,,,blue,cross
0.0,2.0,2.0,0.0,6.0,6.0,340.0692750001326,7.0,0.0,part_2,go,250.0,200.0,1.0,,,,,,,,,magenta,triangle
0.0,6.0,2.0,1.0,6.0,6.0,357.5889149942668,7.0,0.0,part_2,stop,250.0,200.0,3.0,,,,,,,,,white,circle
0.0,6.0,2.0,1.0,5.0,5.0,346.8394730007276,7.0,0.0,part_2,stop,250.0,150.0,3.0,,,,,,,,,white,circle
0.0,2.0,2.0,0.0,6.0,6.0,514.0002319967607,7.0,0.0,part_2,go,200.0,150.0,1.0,,,,,,,,,magenta,triangle
0.0,1.0,1.0,0.0,6.0,6.0,328.5728539922274,8.0,0.0,part_2,go,200.0,150.0,1.0,,,,,,,,,blue,cross
0.0,8.0,4.0,1.0,5.0,0.0,0.0,8.0,0.0,part_2,stop,200.0,150.0,4.0,,,,,,,,,green,hexagon
0.0,3.0,3.0,0.0,6.0,6.0,456.1960249993717,8.0,0.0,part_2,go,250.0,150.0,1.0,,,,,,,,,gray,flipped triangle
0.0,6.0,2.0,1.0,6.0,6.0,427.9434659983963,8.0,0.0,part_2,go,250.0,150.0,1.0,,,,,,,,,white,circle
0.0,4.0,4.0,0.0,5.0,5.0,420.5206369952066,8.0,0.0,part_2,go,250.0,150.0,1.0,,,,,,,,,yellow,diamond
0.0,4.0,4.0,0.0,5.0,5.0,366.7716380005004,8.0,0.0,part_2,go,250.0,150.0,1.0,,,,,,,,,yellow,diamond
0.0,6.0,2.0,1.0,5.0,5.0,366.5162580000469,8.0,0.0,part_2,go,250.0,150.0,1.0,,,,,,,,,white,circle
0.0,7.0,3.0,1.0,5.0,5.0,345.7400119950762,8.0,0.0,part_2,go,250.0,150.0,1.0,,,,,,,,,cyan,I
0.0,6.0,2.0,1.0,6.0,0.0,0.0,8.0,0.0,part_2,stop,250.0,150.0,4.0,,,,,,,,,white,circle
0.0,3.0,3.0,0.0,6.0,6.0,465.0704740051878,8.0,0.0,part_2,go,250.0,200.0,1.0,,,,,,,,,gray,flipped triangle
0.0,8.0,4.0,1.0,5.0,0.0,0.0,8.0,0.0,part_2,stop,250.0,200.0,4.0,,,,,,,,,green,hexagon
0.0,4.0,4.0,0.0,6.0,6.0,524.0772510005627,8.0,0.0,part_2,go,300.0,200.0,1.0,,,,,,,,,yellow,diamond
0.0,7.0,3.0,1.0,5.0,5.0,513.14383999852,8.0,0.0,part_2,stop,300.0,200.0,3.0,,,,,,,,,cyan,I
0.0,8.0,4.0,1.0,6.0,0.0,0.0,8.0,0.0,part_2,stop,250.0,200.0,4.0,,,,,,,,,green,hexagon
0.0,1.0,1.0,0.0,5.0,5.0,518.4948090027319,8.0,0.0,part_2,go,250.0,250.0,1.0,,,,,,,,,blue,cross
0.0,4.0,4.0,0.0,5.0,5.0,519.6611439896515,8.0,0.0,part_2,go,250.0,250.0,1.0,,,,,,,,,yellow,diamond
0.0,2.0,2.0,0.0,5.0,5.0,536.3384660013253,8.0,0.0,part_2,go,250.0,250.0,1.0,,,,,,,,,magenta,triangle
0.0,8.0,4.0,1.0,5.0,5.0,384.3564240087289,8.0,0.0,part_2,stop,250.0,250.0,3.0,,,,,,,,,green,hexagon
0.0,5.0,1.0,1.0,6.0,6.0,423.4166370006278,8.0,0.0,part_2,go,200.0,250.0,1.0,,,,,,,,,orange,square
0.0,4.0,4.0,0.0,5.0,5.0,446.3540600117994,8.0,0.0,part_2,go,200.0,250.0,1.0,,,,,,,,,yellow,diamond
0.0,1.0,1.0,0.0,6.0,6.0,468.9879009965807,8.0,0.0,part_2,go,200.0,250.0,1.0,,,,,,,,,blue,cross
0.0,8.0,4.0,1.0,6.0,0.0,0.0,8.0,0.0,part_2,stop,200.0,250.0,4.0,,,,,,,,,green,hexagon
0.0,1.0,1.0,0.0,5.0,5.0,513.744576004683,8.0,0.0,part_2,go,200.0,300.0,1.0,,,,,,,,,blue,cross
0.0,1.0,1.0,0.0,6.0,6.0,418.3108869910938,8.0,0.0,part_2,go,200.0,300.0,1.0,,,,,,,,,blue,cross
0.0,1.0,1.0,0.0,6.0,6.0,385.8530220022658,8.0,0.0,part_2,go,200.0,300.0,1.0,,,,,,,,,blue,cross
0.0,6.0,2.0,1.0,5.0,0.0,0.0,8.0,0.0,part_2,stop,200.0,300.0,4.0,,,,,,,,,white,circle
0.0,3.0,3.0,0.0,5.0,5.0,512.6189180009533,8.0,0.0,part_2,go,250.0,300.0,1.0,,,,,,,,,gray,flipped triangle
0.0,6.0,2.0,1.0,5.0,0.0,0.0,8.0,0.0,part_2,stop,250.0,300.0,4.0,,,,,,,,,white,circle
0.0,5.0,1.0,1.0,5.0,0.0,0.0,8.0,0.0,part_2,stop,300.0,300.0,4.0,,,,,,,,,orange,square
0.0,4.0,4.0,0.0,5.0,5.0,537.0081840083003,8.0,0.0,part_2,go,350.0,300.0,1.0,,,,,,,,,yellow,diamond
0.0,4.0,4.0,0.0,6.0,6.0,374.183482999797,8.0,0.0,part_2,go,350.0,300.0,1.0,,,,,,,,,yellow,diamond
0.0,6.0,2.0,1.0,5.0,5.0,342.9338440037099,8.0,0.0,part_2,go,350.0,300.0,1.0,,,,,,,,,white,circle
0.0,6.0,2.0,1.0,6.0,6.0,326.2417689984431,8.0,0.0,part_2,go,350.0,300.0,1.0,,,,,,,,,white,circle
0.0,8.0,4.0,1.0,6.0,6.0,423.9501100091729,8.0,0.0,part_2,go,350.0,300.0,1.0,,,,,,,,,green,hexagon
0.0,7.0,3.0,1.0,5.0,5.0,430.2203749975888,8.0,0.0,part_2,go,350.0,300.0,1.0,,,,,,,,,cyan,I
0.0,8.0,4.0,1.0,5.0,5.0,458.8995819940464,8.0,0.0,part_2,stop,350.0,300.0,3.0,,,,,,,,,green,hexagon
0.0,8.0,4.0,1.0,7.0,5.0,2065.2658180042636,1.0,2.0,part_3,go,0.0,0.0,0.0,176.0,4.0,44.0,132.0,220.0,88.0,176.0,264.0,green,hexagon
0.0,8.0,4.0,1.0,7.0,6.0,2652.075143996626,1.0,1.0,part_3,go,0.0,0.0,0.0,270.0,5.0,324.0,216.0,162.0,54.0,108.0,270.0,green,hexagon
0.0,3.0,3.0,0.0,7.0,2.0,2783.052528000553,1.0,1.0,part_3,go,0.0,0.0,0.0,220.0,5.0,132.0,220.0,176.0,44.0,264.0,88.0,gray,flipped triangle
0.0,1.0,1.0,0.0,7.0,2.0,2070.4895990056684,1.0,1.0,part_3,go,0.0,0.0,0.0,156.0,4.0,78.0,156.0,195.0,117.0,39.0,234.0,blue,cross
0.0,7.0,3.0,1.0,7.0,4.0,993.056441002409,1.0,1.0,part_3,go,0.0,0.0,0.0,294.0,6.0,49.0,196.0,245.0,294.0,98.0,147.0,cyan,I
0.0,5.0,1.0,1.0,7.0,1.0,490.1855690113734,1.0,1.0,part_3,go,0.0,0.0,0.0,108.0,2.0,108.0,54.0,324.0,270.0,162.0,216.0,orange,square
0.0,1.0,1.0,0.0,7.0,6.0,1009.295943993493,1.0,1.0,part_3,go,0.0,0.0,0.0,147.0,3.0,294.0,245.0,196.0,49.0,98.0,147.0,blue,cross
0.0,2.0,2.0,0.0,7.0,3.0,645.7311490084976,1.0,1.0,part_3,go,0.0,0.0,0.0,170.0,5.0,68.0,136.0,170.0,34.0,102.0,204.0,magenta,triangle
0.0,3.0,3.0,0.0,7.0,4.0,484.4215530029032,1.0,1.0,part_3,go,0.0,0.0,0.0,170.0,5.0,204.0,34.0,68.0,170.0,136.0,102.0,gray,flipped triangle
0.0,8.0,4.0,1.0,7.0,5.0,552.6643280027201,1.0,1.0,part_3,go,0.0,0.0,0.0,136.0,4.0,34.0,68.0,170.0,102.0,136.0,204.0,green,hexagon
0.0,8.0,4.0,1.0,7.0,6.0,446.909983002115,1.0,1.0,part_3,go,0.0,0.0,0.0,294.0,6.0,147.0,245.0,196.0,49.0,98.0,294.0,green,hexagon
0.0,2.0,2.0,0.0,7.0,2.0,328.4459599963156,1.0,1.0,part_3,go,0.0,0.0,0.0,195.0,5.0,234.0,195.0,117.0,39.0,78.0,156.0,magenta,triangle
0.0,7.0,3.0,1.0,7.0,3.0,425.181168000563,1.0,1.0,part_3,go,0.0,0.0,0.0,108.0,2.0,216.0,162.0,108.0,324.0,54.0,270.0,cyan,I
0.0,5.0,1.0,1.0,7.0,5.0,250.9306050051236,1.0,1.0,part_3,go,0.0,0.0,0.0,108.0,2.0,162.0,324.0,270.0,216.0,108.0,54.0,orange,square
0.0,2.0,2.0,0.0,7.0,3.0,703.7714920006692,1.0,1.0,part_3,go,0.0,0.0,0.0,324.0,6.0,54.0,216.0,324.0,270.0,162.0,108.0,magenta,triangle
0.0,1.0,1.0,0.0,7.0,2.0,528.9192960044602,1.0,1.0,part_3,go,0.0,0.0,0.0,220.0,5.0,88.0,220.0,132.0,176.0,44.0,264.0,blue,cross
0.0,6.0,2.0,1.0,7.0,5.0,385.3095910017146,1.0,1.0,part_3,go,0.0,0.0,0.0,204.0,6.0,136.0,170.0,68.0,34.0,204.0,102.0,white,circle
0.0,2.0,2.0,0.0,7.0,6.0,384.462079993682,1.0,1.0,part_3,go,0.0,0.0,0.0,98.0,2.0,245.0,147.0,196.0,49.0,294.0,98.0,magenta,triangle
0.0,6.0,2.0,1.0,7.0,2.0,579.792267002631,1.0,1.0,part_3,go,0.0,0.0,0.0,196.0,4.0,98.0,196.0,49.0,245.0,147.0,294.0,white,circle
0.0,4.0,4.0,0.0,7.0,4.0,836.8797059956705,1.0,1.0,part_3,go,0.0,0.0,0.0,170.0,5.0,68.0,204.0,102.0,170.0,136.0,34.0,yellow,diamond
0.0,4.0,4.0,0.0,7.0,2.0,389.2596200021216,2.0,1.0,part_3,go,0.0,0.0,0.0,117.0,3.0,39.0,117.0,234.0,78.0,195.0,156.0,yellow,diamond
0.0,5.0,1.0,1.0,7.0,5.0,376.6110290016513,2.0,1.0,part_3,go,0.0,0.0,0.0,264.0,6.0,220.0,176.0,44.0,132.0,264.0,88.0,orange,square
0.0,5.0,1.0,1.0,7.0,6.0,928.0813730001682,2.0,1.0,part_3,go,0.0,0.0,0.0,204.0,6.0,68.0,170.0,136.0,102.0,34.0,204.0,orange,square
0.0,4.0,4.0,0.0,7.0,4.0,699.1468100022757,2.0,1.0,part_3,go,0.0,0.0,0.0,156.0,4.0,195.0,39.0,234.0,156.0,78.0,117.0,yellow,diamond
0.0,3.0,3.0,0.0,7.0,2.0,490.9719770075753,2.0,1.0,part_3,go,0.0,0.0,0.0,234.0,6.0,156.0,234.0,117.0,78.0,39.0,195.0,gray,flipped triangle
0.0,1.0,1.0,0.0,7.0,6.0,759.3114750052337,2.0,1.0,part_3,go,0.0,0.0,0.0,136.0,4.0,68.0,34.0,170.0,102.0,204.0,136.0,blue,cross
0.0,4.0,4.0,0.0,7.0,2.0,574.9345539952628,2.0,1.0,part_3,go,0.0,0.0,0.0,176.0,4.0,132.0,176.0,88.0,264.0,220.0,44.0,yellow,diamond
0.0,3.0,3.0,0.0,7.0,4.0,338.2382109994069,2.0,1.0,part_3,go,0.0,0.0,0.0,162.0,3.0,108.0,324.0,270.0,162.0,54.0,216.0,gray,flipped triangle
0.0,7.0,3.0,1.0,7.0,5.0,659.0709870069986,2.0,1.0,part_3,go,0.0,0.0,0.0,39.0,1.0,234.0,156.0,195.0,117.0,39.0,78.0,cyan,I
0.0,8.0,4.0,1.0,7.0,4.0,499.9930140038486,2.0,1.0,part_3,go,0.0,0.0,0.0,132.0,3.0,44.0,264.0,220.0,132.0,176.0,88.0,green,hexagon
0.0,4.0,4.0,0.0,7.0,3.0,604.6577810047893,2.0,1.0,part_3,go,0.0,0.0,0.0,176.0,4.0,88.0,264.0,176.0,220.0,132.0,44.0,yellow,diamond
0.0,5.0,1.0,1.0,7.0,6.0,492.8600470011588,2.0,1.0,part_3,go,0.0,0.0,0.0,195.0,5.0,39.0,117.0,234.0,156.0,78.0,195.0,orange,square
0.0,2.0,2.0,0.0,7.0,2.0,574.7531740053091,2.0,1.0,part_3,go,0.0,0.0,0.0,136.0,4.0,102.0,136.0,34.0,170.0,68.0,204.0,magenta,triangle
0.0,4.0,4.0,0.0,7.0,4.0,529.5918989868369,2.0,1.0,part_3,go,0.0,0.0,0.0,162.0,3.0,216.0,324.0,108.0,162.0,270.0,54.0,yellow,diamond
0.0,5.0,1.0,1.0,7.0,4.0,426.8520570039982,2.0,1.0,part_3,go,0.0,0.0,0.0,294.0,6.0,196.0,245.0,49.0,294.0,98.0,147.0,orange,square
0.0,8.0,4.0,1.0,7.0,4.0,597.1975190041121,2.0,1.0,part_3,go,0.0,0.0,0.0,195.0,5.0,156.0,78.0,117.0,195.0,234.0,39.0,green,hexagon
0.0,5.0,1.0,1.0,7.0,4.0,750.2795830077957,2.0,1.0,part_3,go,0.0,0.0,0.0,294.0,6.0,245.0,98.0,147.0,294.0,49.0,196.0,orange,square
0.0,4.0,4.0,0.0,7.0,6.0,670.5572089995258,2.0,1.0,part_3,go,0.0,0.0,0.0,196.0,4.0,49.0,147.0,98.0,245.0,294.0,196.0,yellow,diamond
0.0,7.0,3.0,1.0,7.0,4.0,1064.504900001339,2.0,1.0,part_3,go,0.0,0.0,0.0,270.0,5.0,216.0,54.0,324.0,270.0,162.0,108.0,cyan,I
0.0,2.0,2.0,0.0,7.0,2.0,601.6252699919278,2.0,1.0,part_3,go,0.0,0.0,0.0,264.0,6.0,220.0,264.0,132.0,176.0,44.0,88.0,magenta,triangle
0.0,3.0,3.0,0.0,7.0,5.0,781.7148320027627,3.0,1.0,part_3,go,0.0,0.0,0.0,162.0,3.0,216.0,270.0,324.0,54.0,162.0,108.0,gray,flipped triangle
0.0,1.0,1.0,0.0,7.0,4.0,592.5974199926713,3.0,1.0,part_3,go,0.0,0.0,0.0,216.0,4.0,108.0,324.0,54.0,216.0,162.0,270.0,blue,cross
0.0,1.0,1.0,0.0,7.0,5.0,814.9491509975633,3.0,1.0,part_3,go,0.0,0.0,0.0,196.0,4.0,245.0,294.0,147.0,98.0,196.0,49.0,blue,cross
0.0,5.0,1.0,1.0,7.0,4.0,1139.5365119969938,3.0,1.0,part_3,go,0.0,0.0,0.0,156.0,4.0,78.0,39.0,195.0,156.0,234.0,117.0,orange,square
0.0,2.0,2.0,0.0,7.0,3.0,748.3528619923163,3.0,1.0,part_3,go,0.0,0.0,0.0,162.0,3.0,54.0,216.0,162.0,108.0,324.0,270.0,magenta,triangle
0.0,6.0,2.0,1.0,7.0,2.0,1274.6355179988311,3.0,1.0,part_3,go,0.0,0.0,0.0,170.0,5.0,102.0,170.0,34.0,68.0,204.0,136.0,white,circle
0.0,2.0,2.0,0.0,7.0,4.0,743.0676719959592,3.0,1.0,part_3,go,0.0,0.0,0.0,176.0,4.0,264.0,132.0,220.0,176.0,88.0,44.0,magenta,triangle
0.0,5.0,1.0,1.0,7.0,2.0,685.5253499961691,3.0,1.0,part_3,go,0.0,0.0,0.0,264.0,6.0,88.0,264.0,176.0,44.0,132.0,220.0,orange,square
0.0,8.0,4.0,1.0,7.0,4.0,991.93403001118,3.0,1.0,part_3,go,0.0,0.0,0.0,147.0,3.0,49.0,98.0,196.0,147.0,245.0,294.0,green,hexagon
0.0,8.0,4.0,1.0,7.0,4.0,928.3738430094672,3.0,1.0,part_3,go,0.0,0.0,0.0,234.0,6.0,78.0,156.0,117.0,234.0,39.0,195.0,green,hexagon
0.0,7.0,3.0,1.0,7.0,6.0,601.6782179940492,3.0,1.0,part_3,go,0.0,0.0,0.0,68.0,2.0,34.0,204.0,102.0,170.0,136.0,68.0,cyan,I
0.0,3.0,3.0,0.0,7.0,2.0,723.383971999283,3.0,1.0,part_3,go,0.0,0.0,0.0,147.0,3.0,196.0,147.0,294.0,49.0,98.0,245.0,gray,flipped triangle
0.0,2.0,2.0,0.0,7.0,1.0,572.3458230058895,3.0,1.0,part_3,go,0.0,0.0,0.0,147.0,3.0,147.0,98.0,196.0,49.0,294.0,245.0,magenta,triangle
0.0,7.0,3.0,1.0,7.0,6.0,1135.706677014241,3.0,1.0,part_3,go,0.0,0.0,0.0,147.0,3.0,98.0,245.0,294.0,49.0,196.0,147.0,cyan,I
0.0,7.0,3.0,1.0,7.0,1.0,944.6837169962236,3.0,1.0,part_3,go,0.0,0.0,0.0,132.0,3.0,132.0,220.0,264.0,44.0,88.0,176.0,cyan,I
0.0,7.0,3.0,1.0,7.0,1.0,602.2894289926626,3.0,1.0,part_3,go,0.0,0.0,0.0,132.0,3.0,132.0,220.0,44.0,88.0,176.0,264.0,cyan,I
0.0,6.0,2.0,1.0,7.0,3.0,693.0179019982461,3.0,1.0,part_3,go,0.0,0.0,0.0,117.0,3.0,195.0,78.0,117.0,156.0,39.0,234.0,white,circle
0.0,3.0,3.0,0.0,7.0,6.0,765.337710006861,3.0,1.0,part_3,go,0.0,0.0,0.0,170.0,5.0,204.0,68.0,102.0,136.0,34.0,170.0,gray,flipped triangle
0.0,4.0,4.0,0.0,7.0,4.0,1087.68271599547,3.0,1.0,part_3,go,0.0,0.0,0.0,270.0,5.0,108.0,324.0,162.0,270.0,54.0,216.0,yellow,diamond
0.0,3.0,3.0,0.0,7.0,2.0,520.8050180081045,3.0,1.0,part_3,go,0.0,0.0,0.0,176.0,4.0,132.0,176.0,220.0,264.0,44.0,88.0,gray,flipped triangle
0.0,6.0,2.0,1.0,7.0,2.0,867.9234969895333,4.0,1.0,part_3,go,0.0,0.0,0.0,156.0,4.0,195.0,156.0,78.0,117.0,39.0,234.0,white,circle
0.0,6.0,2.0,1.0,7.0,5.0,914.703186994302,4.0,1.0,part_3,go,0.0,0.0,0.0,162.0,3.0,216.0,108.0,324.0,270.0,162.0,54.0,white,circle
0.0,1.0,1.0,0.0,7.0,2.0,920.3295719926246,4.0,1.0,part_3,go,0.0,0.0,0.0,156.0,4.0,39.0,156.0,78.0,195.0,234.0,117.0,blue,cross
0.0,1.0,1.0,0.0,7.0,4.0,1144.995099006337,4.0,1.0,part_3,go,0.0,0.0,0.0,170.0,5.0,136.0,68.0,102.0,170.0,34.0,204.0,blue,cross
0.0,1.0,1.0,0.0,7.0,4.0,815.4400619969238,4.0,1.0,part_3,go,0.0,0.0,0.0,162.0,3.0,108.0,216.0,54.0,162.0,270.0,324.0,blue,cross
0.0,7.0,3.0,1.0,7.0,1.0,568.2869989977917,4.0,1.0,part_3,go,0.0,0.0,0.0,68.0,2.0,68.0,34.0,170.0,102.0,204.0,136.0,cyan,I
0.0,4.0,4.0,0.0,7.0,4.0,806.023091005045,4.0,1.0,part_3,go,0.0,0.0,0.0,147.0,3.0,196.0,294.0,245.0,147.0,49.0,98.0,yellow,diamond
0.0,3.0,3.0,0.0,7.0,5.0,1174.4555510085777,4.0,1.0,part_3,go,0.0,0.0,0.0,196.0,4.0,245.0,98.0,294.0,147.0,196.0,49.0,gray,flipped triangle
0.0,2.0,2.0,0.0,7.0,1.0,1215.2489139989484,4.0,1.0,part_3,go,0.0,0.0,0.0,156.0,4.0,156.0,234.0,195.0,78.0,39.0,117.0,magenta,triangle
0.0,6.0,2.0,1.0,7.0,5.0,1103.9309149928158,4.0,1.0,part_3,go,0.0,0.0,0.0,264.0,6.0,176.0,44.0,220.0,88.0,264.0,132.0,white,circle
0.0,6.0,2.0,1.0,7.0,2.0,688.5415790020488,4.0,1.0,part_3,go,0.0,0.0,0.0,108.0,2.0,324.0,108.0,162.0,216.0,54.0,270.0,white,circle
0.0,3.0,3.0,0.0,7.0,3.0,475.7620390009833,4.0,1.0,part_3,go,0.0,0.0,0.0,234.0,6.0,195.0,39.0,234.0,117.0,78.0,156.0,gray,flipped triangle
0.0,6.0,2.0,1.0,7.0,2.0,515.2494169888087,4.0,1.0,part_3,go,0.0,0.0,0.0,220.0,5.0,176.0,220.0,44.0,88.0,132.0,264.0,white,circle
0.0,5.0,1.0,1.0,7.0,2.0,797.2750330081908,4.0,1.0,part_3,go,0.0,0.0,0.0,170.0,5.0,68.0,170.0,204.0,136.0,102.0,34.0,orange,square
0.0,4.0,4.0,0.0,7.0,6.0,652.7743229962653,4.0,1.0,part_3,go,0.0,0.0,0.0,136.0,4.0,204.0,102.0,68.0,170.0,34.0,136.0,yellow,diamond
0.0,6.0,2.0,1.0,7.0,1.0,590.2418429905083,4.0,1.0,part_3,go,0.0,0.0,0.0,98.0,2.0,98.0,196.0,245.0,49.0,294.0,147.0,white,circle
0.0,1.0,1.0,0.0,7.0,4.0,690.5888079927536,4.0,1.0,part_3,go,0.0,0.0,0.0,132.0,3.0,88.0,220.0,264.0,132.0,176.0,44.0,blue,cross
0.0,8.0,4.0,1.0,7.0,6.0,604.5150179998018,4.0,1.0,part_3,go,0.0,0.0,0.0,136.0,4.0,34.0,68.0,170.0,204.0,102.0,136.0,green,hexagon
0.0,7.0,3.0,1.0,7.0,2.0,462.4830849934369,4.0,1.0,part_3,go,0.0,0.0,0.0,195.0,5.0,234.0,195.0,156.0,78.0,39.0,117.0,cyan,I
0.0,8.0,4.0,1.0,7.0,4.0,751.5188569959719,4.0,1.0,part_3,go,0.0,0.0,0.0,216.0,4.0,54.0,324.0,162.0,216.0,108.0,270.0,green,hexagon
