raw_reward_magnitude,stim_reward,stepwise_reward_magnitude,paired_with_stopping,quadrant,response,reaction_time,block,num_trial_presentations,which_part,stop_signal_trial_type,left_SSD,right_SSD,accuracy,chosen_bidding_amount,chosen_bidding_level,possible_bid_1,possible_bid_2,possible_bid_3,possible_bid_4,possible_bid_5,possible_bid_6,color_text,shape_text
205.0,7.0,3.0,1.0,3.0,3.0,478.3251849999033,1.0,2.0,part_1,,,,,,,,,,,,,gray,flipped triangle
419.0,8.0,4.0,1.0,4.0,4.0,488.7789280001016,1.0,1.0,part_1,,,,,,,,,,,,,white,diamond
386.0,8.0,4.0,1.0,1.0,1.0,437.4975009995978,1.0,1.0,part_1,,,,,,,,,,,,,white,diamond
88.0,6.0,2.0,1.0,2.0,2.0,582.7725570002258,1.0,3.0,part_1,,,,,,,,,,,,,blue,circle
405.0,8.0,4.0,1.0,2.0,2.0,503.8092559998404,1.0,1.0,part_1,,,,,,,,,,,,,white,diamond
0.0,5.0,0.0,1.0,1.0,1.0,350.6666070002211,1.0,1.0,part_1,,,,,,,,,,,,,yellow,cross
107.0,6.0,2.0,1.0,4.0,4.0,363.2819929998732,1.0,1.0,part_1,,,,,,,,,,,,,blue,circle
399.0,8.0,4.0,1.0,3.0,3.0,486.4778099999967,1.0,1.0,part_1,,,,,,,,,,,,,white,diamond
75.0,5.0,1.0,1.0,3.0,3.0,798.1582319998779,1.0,1.0,part_1,,,,,,,,,,,,,yellow,cross
68.0,1.0,1.0,0.0,4.0,4.0,529.0119850005794,1.0,1.0,part_1,,,,,,,,,,,,,orange,hexagon
0.0,8.0,0.0,1.0,2.0,2.0,508.24404299964954,1.0,1.0,part_1,,,,,,,,,,,,,white,diamond
64.0,1.0,1.0,0.0,2.0,2.0,696.4816169993355,1.0,1.0,part_1,,,,,,,,,,,,,orange,hexagon
0.0,8.0,0.0,1.0,2.0,2.0,464.9500609993993,1.0,1.0,part_1,,,,,,,,,,,,,white,diamond
72.0,5.0,1.0,1.0,4.0,4.0,387.7517580003768,1.0,1.0,part_1,,,,,,,,,,,,,yellow,cross
0.0,3.0,0.0,0.0,4.0,4.0,391.2666819996957,1.0,1.0,part_1,,,,,,,,,,,,,magenta,I
419.0,8.0,4.0,1.0,1.0,1.0,507.4206499994034,1.0,1.0,part_1,,,,,,,,,,,,,white,diamond
50.0,5.0,1.0,1.0,2.0,2.0,680.2081339992583,1.0,1.0,part_1,,,,,,,,,,,,,yellow,cross
195.0,7.0,3.0,1.0,1.0,1.0,636.9457089995194,1.0,2.0,part_1,,,,,,,,,,,,,gray,flipped triangle
0.0,1.0,0.0,0.0,1.0,1.0,687.839520000125,1.0,1.0,part_1,,,,,,,,,,,,,orange,hexagon
201.0,3.0,3.0,0.0,3.0,3.0,924.4266969999444,1.0,1.0,part_1,,,,,,,,,,,,,magenta,I
225.0,3.0,3.0,0.0,1.0,1.0,675.1571090007928,1.0,1.0,part_1,,,,,,,,,,,,,magenta,I
0.0,1.0,0.0,0.0,3.0,3.0,276.2953929996001,1.0,1.0,part_1,,,,,,,,,,,,,orange,hexagon
408.0,8.0,4.0,1.0,4.0,4.0,288.6843450005472,1.0,1.0,part_1,,,,,,,,,,,,,white,diamond
107.0,2.0,2.0,0.0,3.0,3.0,439.1635410001981,1.0,1.0,part_1,,,,,,,,,,,,,green,triangle
89.0,2.0,2.0,0.0,4.0,4.0,410.4137249996711,1.0,1.0,part_1,,,,,,,,,,,,,green,triangle
207.0,7.0,3.0,1.0,3.0,3.0,330.3770319998875,1.0,1.0,part_1,,,,,,,,,,,,,gray,flipped triangle
0.0,2.0,0.0,0.0,2.0,2.0,421.7417780000687,1.0,1.0,part_1,,,,,,,,,,,,,green,triangle
175.0,3.0,3.0,0.0,2.0,2.0,368.4884890008106,1.0,1.0,part_1,,,,,,,,,,,,,magenta,I
117.0,6.0,2.0,1.0,1.0,1.0,358.3397499996863,1.0,1.0,part_1,,,,,,,,,,,,,blue,circle
225.0,7.0,3.0,1.0,4.0,4.0,699.666487000286,1.0,1.0,part_1,,,,,,,,,,,,,gray,flipped triangle
102.0,2.0,2.0,0.0,1.0,1.0,352.844372000618,1.0,1.0,part_1,,,,,,,,,,,,,green,triangle
413.0,8.0,4.0,1.0,4.0,4.0,244.1194869998071,1.0,1.0,part_1,,,,,,,,,,,,,white,diamond
78.0,2.0,2.0,0.0,4.0,4.0,336.170337999647,1.0,1.0,part_1,,,,,,,,,,,,,green,triangle
175.0,7.0,3.0,1.0,1.0,1.0,720.3291670002727,1.0,1.0,part_1,,,,,,,,,,,,,gray,flipped triangle
0.0,2.0,0.0,0.0,1.0,1.0,368.6525419998361,1.0,1.0,part_1,,,,,,,,,,,,,green,triangle
96.0,2.0,2.0,0.0,4.0,4.0,279.0026309994573,1.0,1.0,part_1,,,,,,,,,,,,,green,triangle
0.0,3.0,0.0,0.0,1.0,1.0,405.3563739998935,1.0,1.0,part_1,,,,,,,,,,,,,magenta,I
386.0,4.0,4.0,0.0,4.0,4.0,527.3948359999849,1.0,1.0,part_1,,,,,,,,,,,,,cyan,square
59.0,5.0,1.0,1.0,3.0,3.0,604.462280000007,1.0,1.0,part_1,,,,,,,,,,,,,yellow,cross
177.0,7.0,3.0,1.0,2.0,2.0,440.4020709998804,1.0,1.0,part_1,,,,,,,,,,,,,gray,flipped triangle
397.0,4.0,4.0,0.0,3.0,3.0,325.8074709992797,1.0,1.0,part_1,,,,,,,,,,,,,cyan,square
95.0,2.0,2.0,0.0,4.0,4.0,244.0034219998779,1.0,1.0,part_1,,,,,,,,,,,,,green,triangle
0.0,4.0,0.0,0.0,3.0,3.0,287.2139789997163,1.0,1.0,part_1,,,,,,,,,,,,,cyan,square
419.0,4.0,4.0,0.0,4.0,4.0,323.487994000061,1.0,1.0,part_1,,,,,,,,,,,,,cyan,square
103.0,6.0,2.0,1.0,3.0,3.0,303.8577190000069,1.0,1.0,part_1,,,,,,,,,,,,,blue,circle
223.0,3.0,3.0,0.0,2.0,2.0,366.2832869995327,1.0,1.0,part_1,,,,,,,,,,,,,magenta,I
0.0,3.0,0.0,0.0,1.0,1.0,338.9641040002971,1.0,1.0,part_1,,,,,,,,,,,,,magenta,I
50.0,5.0,1.0,1.0,3.0,3.0,289.8743740006466,1.0,1.0,part_1,,,,,,,,,,,,,yellow,cross
223.0,7.0,3.0,1.0,2.0,2.0,418.591792999905,1.0,1.0,part_1,,,,,,,,,,,,,gray,flipped triangle
217.0,7.0,3.0,1.0,1.0,1.0,626.1136109997096,1.0,1.0,part_1,,,,,,,,,,,,,gray,flipped triangle
387.0,8.0,4.0,1.0,1.0,1.0,364.5056630002727,1.0,1.0,part_1,,,,,,,,,,,,,white,diamond
110.0,6.0,2.0,1.0,2.0,2.0,552.5858959999823,1.0,1.0,part_1,,,,,,,,,,,,,blue,circle
99.0,2.0,2.0,0.0,4.0,4.0,439.559303000351,1.0,1.0,part_1,,,,,,,,,,,,,green,triangle
200.0,7.0,3.0,1.0,2.0,2.0,548.1248449996201,1.0,1.0,part_1,,,,,,,,,,,,,gray,flipped triangle
53.0,1.0,1.0,0.0,4.0,4.0,321.1021710003479,1.0,1.0,part_1,,,,,,,,,,,,,orange,hexagon
28.0,1.0,1.0,0.0,3.0,3.0,614.2504990002635,1.0,1.0,part_1,,,,,,,,,,,,,orange,hexagon
50.0,1.0,1.0,0.0,4.0,4.0,729.2424769993886,1.0,1.0,part_1,,,,,,,,,,,,,orange,hexagon
111.0,6.0,2.0,1.0,2.0,2.0,380.7794969998213,1.0,1.0,part_1,,,,,,,,,,,,,blue,circle
0.0,8.0,0.0,1.0,2.0,2.0,329.7266620002119,1.0,1.0,part_1,,,,,,,,,,,,,white,diamond
223.0,7.0,3.0,1.0,1.0,1.0,447.1575200004736,1.0,1.0,part_1,,,,,,,,,,,,,gray,flipped triangle
183.0,3.0,3.0,0.0,4.0,4.0,430.7742600003621,1.0,1.0,part_1,,,,,,,,,,,,,magenta,I
106.0,6.0,2.0,1.0,1.0,1.0,481.6615939998883,1.0,1.0,part_1,,,,,,,,,,,,,blue,circle
414.0,4.0,4.0,0.0,3.0,3.0,283.9003959998081,1.0,1.0,part_1,,,,,,,,,,,,,cyan,square
385.0,4.0,4.0,0.0,4.0,4.0,378.6145849999229,1.0,1.0,part_1,,,,,,,,,,,,,cyan,square
53.0,5.0,1.0,1.0,4.0,4.0,365.3836319999755,1.0,1.0,part_1,,,,,,,,,,,,,yellow,cross
414.0,8.0,4.0,1.0,1.0,1.0,330.0702309998087,1.0,1.0,part_1,,,,,,,,,,,,,white,diamond
72.0,1.0,1.0,0.0,3.0,3.0,352.1343310003431,1.0,1.0,part_1,,,,,,,,,,,,,orange,hexagon
197.0,7.0,3.0,1.0,1.0,1.0,725.4923500004224,1.0,1.0,part_1,,,,,,,,,,,,,gray,flipped triangle
188.0,7.0,3.0,1.0,2.0,2.0,427.2328039996864,1.0,1.0,part_1,,,,,,,,,,,,,gray,flipped triangle
175.0,3.0,3.0,0.0,3.0,3.0,333.6481360001926,1.0,1.0,part_1,,,,,,,,,,,,,magenta,I
218.0,3.0,3.0,0.0,3.0,3.0,284.7842719993423,1.0,1.0,part_1,,,,,,,,,,,,,magenta,I
206.0,3.0,3.0,0.0,3.0,3.0,257.0327769999494,1.0,1.0,part_1,,,,,,,,,,,,,magenta,I
187.0,7.0,3.0,1.0,4.0,4.0,275.971030000619,1.0,1.0,part_1,,,,,,,,,,,,,gray,flipped triangle
0.0,6.0,0.0,1.0,2.0,2.0,292.5179000003481,1.0,2.0,part_1,,,,,,,,,,,,,blue,circle
199.0,3.0,3.0,0.0,4.0,4.0,321.524615999806,1.0,1.0,part_1,,,,,,,,,,,,,magenta,I
383.0,8.0,4.0,1.0,3.0,3.0,303.61231400002,1.0,1.0,part_1,,,,,,,,,,,,,white,diamond
57.0,1.0,1.0,0.0,3.0,3.0,403.1225250000716,1.0,1.0,part_1,,,,,,,,,,,,,orange,hexagon
59.0,1.0,1.0,0.0,2.0,2.0,377.0133020007051,1.0,1.0,part_1,,,,,,,,,,,,,orange,hexagon
58.0,1.0,1.0,0.0,1.0,1.0,477.833240000109,1.0,1.0,part_1,,,,,,,,,,,,,orange,hexagon
209.0,3.0,3.0,0.0,1.0,1.0,497.2620039998219,1.0,1.0,part_1,,,,,,,,,,,,,magenta,I
207.0,3.0,3.0,0.0,3.0,3.0,389.8185620000731,1.0,1.0,part_1,,,,,,,,,,,,,magenta,I
0.0,7.0,0.0,1.0,2.0,2.0,675.3905819996362,1.0,1.0,part_1,,,,,,,,,,,,,gray,flipped triangle
212.0,7.0,3.0,1.0,3.0,3.0,408.1569519994446,1.0,1.0,part_1,,,,,,,,,,,,,gray,flipped triangle
84.0,6.0,2.0,1.0,4.0,4.0,710.5557579998276,1.0,1.0,part_1,,,,,,,,,,,,,blue,circle
96.0,2.0,2.0,0.0,3.0,3.0,601.4201869993485,1.0,1.0,part_1,,,,,,,,,,,,,green,triangle
37.0,1.0,1.0,0.0,1.0,1.0,711.788458999763,1.0,1.0,part_1,,,,,,,,,,,,,orange,hexagon
38.0,1.0,1.0,0.0,2.0,2.0,428.0912220001482,1.0,1.0,part_1,,,,,,,,,,,,,orange,hexagon
0.0,7.0,0.0,1.0,2.0,2.0,446.6428169998835,1.0,1.0,part_1,,,,,,,,,,,,,gray,flipped triangle
395.0,8.0,4.0,1.0,1.0,1.0,390.4688259999602,1.0,1.0,part_1,,,,,,,,,,,,,white,diamond
61.0,5.0,1.0,1.0,4.0,4.0,298.2796400001462,1.0,1.0,part_1,,,,,,,,,,,,,yellow,cross
0.0,6.0,0.0,1.0,4.0,4.0,332.898749999913,1.0,1.0,part_1,,,,,,,,,,,,,blue,circle
217.0,3.0,3.0,0.0,4.0,4.0,328.3807329999035,1.0,2.0,part_1,,,,,,,,,,,,,magenta,I
382.0,4.0,4.0,0.0,3.0,3.0,338.1199089999427,1.0,1.0,part_1,,,,,,,,,,,,,cyan,square
82.0,2.0,2.0,0.0,2.0,2.0,430.6498759997339,1.0,1.0,part_1,,,,,,,,,,,,,green,triangle
394.0,8.0,4.0,1.0,2.0,2.0,382.2843800007831,1.0,1.0,part_1,,,,,,,,,,,,,white,diamond
89.0,6.0,2.0,1.0,2.0,2.0,448.9885090006282,1.0,1.0,part_1,,,,,,,,,,,,,blue,circle
0.0,3.0,0.0,0.0,2.0,2.0,405.4326859995854,1.0,1.0,part_1,,,,,,,,,,,,,magenta,I
118.0,6.0,2.0,1.0,2.0,2.0,388.2706089998464,1.0,1.0,part_1,,,,,,,,,,,,,blue,circle
0.0,8.0,0.0,1.0,1.0,1.0,631.8422809999902,1.0,1.0,part_1,,,,,,,,,,,,,white,diamond
402.0,8.0,4.0,1.0,2.0,2.0,315.4541829999289,1.0,1.0,part_1,,,,,,,,,,,,,white,diamond
221.0,3.0,3.0,0.0,1.0,1.0,355.4530709998289,2.0,1.0,part_1,,,,,,,,,,,,,magenta,I
0.0,5.0,0.0,1.0,2.0,2.0,350.1993560003029,2.0,1.0,part_1,,,,,,,,,,,,,yellow,cross
0.0,1.0,0.0,0.0,1.0,1.0,441.760783999598,2.0,1.0,part_1,,,,,,,,,,,,,orange,hexagon
379.0,4.0,4.0,0.0,2.0,2.0,383.8364399998681,2.0,1.0,part_1,,,,,,,,,,,,,cyan,square
223.0,7.0,3.0,1.0,4.0,4.0,418.878561999918,2.0,1.0,part_1,,,,,,,,,,,,,gray,flipped triangle
28.0,1.0,1.0,0.0,3.0,3.0,399.6058630000334,2.0,1.0,part_1,,,,,,,,,,,,,orange,hexagon
398.0,4.0,4.0,0.0,4.0,4.0,327.7741530000639,2.0,1.0,part_1,,,,,,,,,,,,,cyan,square
71.0,1.0,1.0,0.0,4.0,4.0,408.2756170000721,2.0,1.0,part_1,,,,,,,,,,,,,orange,hexagon
184.0,3.0,3.0,0.0,3.0,3.0,556.8668559999423,2.0,1.0,part_1,,,,,,,,,,,,,magenta,I
94.0,2.0,2.0,0.0,3.0,3.0,425.6011919997036,2.0,1.0,part_1,,,,,,,,,,,,,green,triangle
393.0,8.0,4.0,1.0,2.0,2.0,520.6610209997962,2.0,1.0,part_1,,,,,,,,,,,,,white,diamond
110.0,2.0,2.0,0.0,1.0,1.0,482.6910230003705,2.0,1.0,part_1,,,,,,,,,,,,,green,triangle
111.0,6.0,2.0,1.0,1.0,1.0,488.535671000136,2.0,1.0,part_1,,,,,,,,,,,,,blue,circle
195.0,3.0,3.0,0.0,3.0,3.0,420.6798320001326,2.0,1.0,part_1,,,,,,,,,,,,,magenta,I
218.0,7.0,3.0,1.0,2.0,2.0,435.1026089998413,2.0,1.0,part_1,,,,,,,,,,,,,gray,flipped triangle
405.0,4.0,4.0,0.0,1.0,1.0,413.5287620001691,2.0,1.0,part_1,,,,,,,,,,,,,cyan,square
78.0,2.0,2.0,0.0,3.0,3.0,386.2466900000072,2.0,1.0,part_1,,,,,,,,,,,,,green,triangle
393.0,4.0,4.0,0.0,2.0,2.0,359.7229530005279,2.0,1.0,part_1,,,,,,,,,,,,,cyan,square
82.0,6.0,2.0,1.0,3.0,3.0,382.6690870000675,2.0,1.0,part_1,,,,,,,,,,,,,blue,circle
387.0,4.0,4.0,0.0,1.0,1.0,425.4408469996633,2.0,1.0,part_1,,,,,,,,,,,,,cyan,square
0.0,5.0,0.0,1.0,4.0,4.0,496.5489440000965,2.0,1.0,part_1,,,,,,,,,,,,,yellow,cross
47.0,5.0,1.0,1.0,3.0,3.0,401.6756149994762,2.0,1.0,part_1,,,,,,,,,,,,,yellow,cross
68.0,5.0,1.0,1.0,4.0,4.0,490.7036510003308,2.0,1.0,part_1,,,,,,,,,,,,,yellow,cross
0.0,1.0,0.0,0.0,3.0,3.0,741.1068890005481,2.0,1.0,part_1,,,,,,,,,,,,,orange,hexagon
48.0,1.0,1.0,0.0,2.0,2.0,575.8518009997715,2.0,1.0,part_1,,,,,,,,,,,,,orange,hexagon
0.0,1.0,0.0,0.0,3.0,3.0,509.18949199967756,2.0,1.0,part_1,,,,,,,,,,,,,orange,hexagon
0.0,4.0,0.0,0.0,4.0,4.0,275.8480800002871,2.0,1.0,part_1,,,,,,,,,,,,,cyan,square
190.0,3.0,3.0,0.0,4.0,4.0,278.4293080003408,2.0,1.0,part_1,,,,,,,,,,,,,magenta,I
0.0,6.0,0.0,1.0,2.0,2.0,452.6227400001517,2.0,1.0,part_1,,,,,,,,,,,,,blue,circle
194.0,3.0,3.0,0.0,2.0,2.0,418.0938079998668,2.0,1.0,part_1,,,,,,,,,,,,,magenta,I
185.0,7.0,3.0,1.0,2.0,2.0,420.614155000294,2.0,1.0,part_1,,,,,,,,,,,,,gray,flipped triangle
377.0,8.0,4.0,1.0,4.0,4.0,345.311527999911,2.0,1.0,part_1,,,,,,,,,,,,,white,diamond
421.0,8.0,4.0,1.0,1.0,1.0,326.9982430001619,2.0,1.0,part_1,,,,,,,,,,,,,white,diamond
223.0,3.0,3.0,0.0,4.0,4.0,330.6458529996234,2.0,1.0,part_1,,,,,,,,,,,,,magenta,I
106.0,2.0,2.0,0.0,2.0,2.0,383.4656160006489,2.0,1.0,part_1,,,,,,,,,,,,,green,triangle
59.0,5.0,1.0,1.0,4.0,4.0,794.071972999518,2.0,2.0,part_1,,,,,,,,,,,,,yellow,cross
188.0,7.0,3.0,1.0,4.0,4.0,479.4168710004669,2.0,1.0,part_1,,,,,,,,,,,,,gray,flipped triangle
0.0,5.0,0.0,1.0,2.0,2.0,428.7708400006522,2.0,1.0,part_1,,,,,,,,,,,,,yellow,cross
30.0,1.0,1.0,0.0,1.0,1.0,464.5904079998217,2.0,1.0,part_1,,,,,,,,,,,,,orange,hexagon
188.0,3.0,3.0,0.0,2.0,2.0,476.3964300000225,2.0,1.0,part_1,,,,,,,,,,,,,magenta,I
0.0,2.0,0.0,0.0,4.0,4.0,552.353860999574,2.0,1.0,part_1,,,,,,,,,,,,,green,triangle
200.0,7.0,3.0,1.0,1.0,1.0,374.1875489995436,2.0,1.0,part_1,,,,,,,,,,,,,gray,flipped triangle
405.0,4.0,4.0,0.0,1.0,1.0,409.0694079995955,2.0,1.0,part_1,,,,,,,,,,,,,cyan,square
402.0,4.0,4.0,0.0,4.0,4.0,320.5118879996007,2.0,1.0,part_1,,,,,,,,,,,,,cyan,square
94.0,6.0,2.0,1.0,4.0,4.0,346.3811580004403,2.0,1.0,part_1,,,,,,,,,,,,,blue,circle
0.0,3.0,0.0,0.0,4.0,4.0,479.8648759997377,2.0,1.0,part_1,,,,,,,,,,,,,magenta,I
102.0,2.0,2.0,0.0,1.0,1.0,422.0197840004402,2.0,1.0,part_1,,,,,,,,,,,,,green,triangle
111.0,2.0,2.0,0.0,3.0,3.0,321.1489999994228,2.0,1.0,part_1,,,,,,,,,,,,,green,triangle
383.0,4.0,4.0,0.0,2.0,2.0,717.7103819994954,2.0,1.0,part_1,,,,,,,,,,,,,cyan,square
48.0,1.0,1.0,0.0,1.0,1.0,577.8495140002633,2.0,1.0,part_1,,,,,,,,,,,,,orange,hexagon
123.0,6.0,2.0,1.0,1.0,1.0,464.5584950003467,2.0,1.0,part_1,,,,,,,,,,,,,blue,circle
187.0,3.0,3.0,0.0,2.0,2.0,331.743390000156,2.0,1.0,part_1,,,,,,,,,,,,,magenta,I
114.0,2.0,2.0,0.0,3.0,3.0,320.5336820001321,2.0,1.0,part_1,,,,,,,,,,,,,green,triangle
62.0,5.0,1.0,1.0,2.0,2.0,373.6276879999423,2.0,1.0,part_1,,,,,,,,,,,,,yellow,cross
54.0,1.0,1.0,0.0,4.0,4.0,379.2934149996654,2.0,1.0,part_1,,,,,,,,,,,,,orange,hexagon
414.0,8.0,4.0,1.0,4.0,4.0,392.3996120001902,2.0,1.0,part_1,,,,,,,,,,,,,white,diamond
196.0,3.0,3.0,0.0,4.0,4.0,446.7303230003381,2.0,1.0,part_1,,,,,,,,,,,,,magenta,I
0.0,3.0,0.0,0.0,3.0,3.0,441.6906989999916,2.0,1.0,part_1,,,,,,,,,,,,,magenta,I
0.0,5.0,0.0,1.0,2.0,2.0,308.2639079993896,2.0,1.0,part_1,,,,,,,,,,,,,yellow,cross
0.0,5.0,0.0,1.0,4.0,4.0,324.1242340000099,2.0,1.0,part_1,,,,,,,,,,,,,yellow,cross
111.0,2.0,2.0,0.0,2.0,2.0,480.7086219998382,2.0,1.0,part_1,,,,,,,,,,,,,green,triangle
200.0,3.0,3.0,0.0,2.0,2.0,355.8635010003854,2.0,1.0,part_1,,,,,,,,,,,,,magenta,I
188.0,3.0,3.0,0.0,3.0,3.0,347.6297269999122,2.0,2.0,part_1,,,,,,,,,,,,,magenta,I
84.0,2.0,2.0,0.0,2.0,2.0,336.6288039997016,2.0,1.0,part_1,,,,,,,,,,,,,green,triangle
199.0,7.0,3.0,1.0,2.0,2.0,380.8335339999757,2.0,1.0,part_1,,,,,,,,,,,,,gray,flipped triangle
77.0,6.0,2.0,1.0,3.0,3.0,323.0187589997513,2.0,1.0,part_1,,,,,,,,,,,,,blue,circle
411.0,8.0,4.0,1.0,3.0,3.0,351.9380540001293,2.0,1.0,part_1,,,,,,,,,,,,,white,diamond
44.0,1.0,1.0,0.0,2.0,2.0,363.3731519994398,2.0,1.0,part_1,,,,,,,,,,,,,orange,hexagon
416.0,8.0,4.0,1.0,4.0,4.0,338.686267000412,2.0,1.0,part_1,,,,,,,,,,,,,white,diamond
404.0,8.0,4.0,1.0,2.0,2.0,341.2705359996835,2.0,1.0,part_1,,,,,,,,,,,,,white,diamond
85.0,6.0,2.0,1.0,4.0,4.0,296.6690449993621,2.0,1.0,part_1,,,,,,,,,,,,,blue,circle
89.0,2.0,2.0,0.0,4.0,4.0,417.7259439993577,2.0,1.0,part_1,,,,,,,,,,,,,green,triangle
54.0,5.0,1.0,1.0,3.0,3.0,356.8434110002272,2.0,1.0,part_1,,,,,,,,,,,,,yellow,cross
0.0,6.0,0.0,1.0,1.0,1.0,585.736961999828,2.0,1.0,part_1,,,,,,,,,,,,,blue,circle
416.0,4.0,4.0,0.0,4.0,4.0,662.1891250006229,2.0,1.0,part_1,,,,,,,,,,,,,cyan,square
0.0,3.0,0.0,0.0,4.0,4.0,356.3575769994713,2.0,1.0,part_1,,,,,,,,,,,,,magenta,I
104.0,2.0,2.0,0.0,4.0,4.0,327.1201930001552,2.0,1.0,part_1,,,,,,,,,,,,,green,triangle
63.0,1.0,1.0,0.0,1.0,1.0,457.5273319996995,2.0,1.0,part_1,,,,,,,,,,,,,orange,hexagon
84.0,6.0,2.0,1.0,2.0,2.0,377.4162609997802,2.0,1.0,part_1,,,,,,,,,,,,,blue,circle
0.0,7.0,0.0,1.0,1.0,1.0,366.9499630004793,2.0,1.0,part_1,,,,,,,,,,,,,gray,flipped triangle
98.0,6.0,2.0,1.0,4.0,4.0,337.5073810002504,2.0,1.0,part_1,,,,,,,,,,,,,blue,circle
0.0,6.0,0.0,1.0,3.0,3.0,262.1409190005579,2.0,1.0,part_1,,,,,,,,,,,,,blue,circle
94.0,2.0,2.0,0.0,3.0,3.0,349.0673989999777,2.0,1.0,part_1,,,,,,,,,,,,,green,triangle
0.0,5.0,0.0,1.0,2.0,2.0,417.2707829993669,2.0,1.0,part_1,,,,,,,,,,,,,yellow,cross
419.0,4.0,4.0,0.0,1.0,1.0,404.0644280003107,2.0,1.0,part_1,,,,,,,,,,,,,cyan,square
220.0,3.0,3.0,0.0,1.0,1.0,327.8993020003327,2.0,1.0,part_1,,,,,,,,,,,,,magenta,I
35.0,1.0,1.0,0.0,3.0,3.0,629.6254479993877,2.0,1.0,part_1,,,,,,,,,,,,,orange,hexagon
407.0,8.0,4.0,1.0,4.0,4.0,386.8692099995314,2.0,1.0,part_1,,,,,,,,,,,,,white,diamond
417.0,8.0,4.0,1.0,2.0,2.0,461.4105189994006,2.0,1.0,part_1,,,,,,,,,,,,,white,diamond
102.0,6.0,2.0,1.0,1.0,1.0,529.5603869999468,2.0,1.0,part_1,,,,,,,,,,,,,blue,circle
0.0,3.0,0.0,0.0,3.0,3.0,450.8946759997343,2.0,1.0,part_1,,,,,,,,,,,,,magenta,I
205.0,3.0,3.0,0.0,4.0,4.0,371.7341120000128,2.0,1.0,part_1,,,,,,,,,,,,,magenta,I
376.0,4.0,4.0,0.0,2.0,2.0,338.352273000055,2.0,1.0,part_1,,,,,,,,,,,,,cyan,square
394.0,8.0,4.0,1.0,2.0,2.0,410.7685680000941,2.0,2.0,part_1,,,,,,,,,,,,,white,diamond
98.0,2.0,2.0,0.0,4.0,4.0,272.8557979999095,2.0,1.0,part_1,,,,,,,,,,,,,green,triangle
0.0,3.0,0.0,0.0,2.0,2.0,323.0431060001137,2.0,1.0,part_1,,,,,,,,,,,,,magenta,I
223.0,3.0,3.0,0.0,3.0,3.0,311.7248970002038,2.0,1.0,part_1,,,,,,,,,,,,,magenta,I
48.0,5.0,1.0,1.0,4.0,4.0,356.7317450006158,2.0,1.0,part_1,,,,,,,,,,,,,yellow,cross
102.0,6.0,2.0,1.0,3.0,3.0,386.8387019992951,2.0,1.0,part_1,,,,,,,,,,,,,blue,circle
35.0,5.0,1.0,1.0,2.0,2.0,398.7089789998208,2.0,1.0,part_1,,,,,,,,,,,,,yellow,cross
0.0,7.0,0.0,1.0,3.0,3.0,314.81584499942977,3.0,1.0,part_1,,,,,,,,,,,,,gray,flipped triangle
379.0,8.0,4.0,1.0,2.0,2.0,337.8363479996551,3.0,1.0,part_1,,,,,,,,,,,,,white,diamond
214.0,7.0,3.0,1.0,3.0,3.0,343.9686929996242,3.0,1.0,part_1,,,,,,,,,,,,,gray,flipped triangle
76.0,2.0,2.0,0.0,2.0,2.0,305.0084550004612,3.0,1.0,part_1,,,,,,,,,,,,,green,triangle
111.0,6.0,2.0,1.0,1.0,1.0,349.4556240002566,3.0,1.0,part_1,,,,,,,,,,,,,blue,circle
201.0,7.0,3.0,1.0,4.0,4.0,382.4986400004491,3.0,1.0,part_1,,,,,,,,,,,,,gray,flipped triangle
0.0,8.0,0.0,1.0,2.0,2.0,367.647245999251,3.0,1.0,part_1,,,,,,,,,,,,,white,diamond
77.0,2.0,2.0,0.0,4.0,4.0,339.6114349998242,3.0,1.0,part_1,,,,,,,,,,,,,green,triangle
199.0,3.0,3.0,0.0,2.0,2.0,344.1229219997694,3.0,1.0,part_1,,,,,,,,,,,,,magenta,I
220.0,7.0,3.0,1.0,1.0,1.0,316.8649469998854,3.0,1.0,part_1,,,,,,,,,,,,,gray,flipped triangle
200.0,3.0,3.0,0.0,2.0,2.0,332.35848599997547,3.0,1.0,part_1,,,,,,,,,,,,,magenta,I
38.0,1.0,1.0,0.0,1.0,1.0,352.1806859998833,3.0,1.0,part_1,,,,,,,,,,,,,orange,hexagon
28.0,5.0,1.0,1.0,3.0,3.0,300.9337739995317,3.0,1.0,part_1,,,,,,,,,,,,,yellow,cross
27.0,1.0,1.0,0.0,2.0,2.0,299.8002030008138,3.0,1.0,part_1,,,,,,,,,,,,,orange,hexagon
216.0,3.0,3.0,0.0,4.0,4.0,405.1104449999911,3.0,1.0,part_1,,,,,,,,,,,,,magenta,I
394.0,4.0,4.0,0.0,3.0,3.0,394.1731229997458,3.0,1.0,part_1,,,,,,,,,,,,,cyan,square
44.0,5.0,1.0,1.0,3.0,3.0,328.462887000569,3.0,1.0,part_1,,,,,,,,,,,,,yellow,cross
376.0,8.0,4.0,1.0,3.0,3.0,349.6242420005728,3.0,1.0,part_1,,,,,,,,,,,,,white,diamond
0.0,4.0,0.0,0.0,3.0,3.0,418.3238960004019,3.0,1.0,part_1,,,,,,,,,,,,,cyan,square
194.0,7.0,3.0,1.0,3.0,3.0,319.6307490006802,3.0,1.0,part_1,,,,,,,,,,,,,gray,flipped triangle
0.0,4.0,0.0,0.0,1.0,1.0,315.7289130003846,3.0,1.0,part_1,,,,,,,,,,,,,cyan,square
64.0,5.0,1.0,1.0,1.0,1.0,277.3554019995572,3.0,1.0,part_1,,,,,,,,,,,,,yellow,cross
111.0,2.0,2.0,0.0,2.0,2.0,333.8773260002199,3.0,1.0,part_1,,,,,,,,,,,,,green,triangle
397.0,8.0,4.0,1.0,3.0,3.0,320.5019569995784,3.0,1.0,part_1,,,,,,,,,,,,,white,diamond
32.0,5.0,1.0,1.0,2.0,2.0,389.7808869996879,3.0,1.0,part_1,,,,,,,,,,,,,yellow,cross
398.0,8.0,4.0,1.0,3.0,3.0,323.9378349999242,3.0,1.0,part_1,,,,,,,,,,,,,white,diamond
183.0,7.0,3.0,1.0,4.0,4.0,340.7613860008496,3.0,1.0,part_1,,,,,,,,,,,,,gray,flipped triangle
119.0,6.0,2.0,1.0,4.0,4.0,349.6150220007621,3.0,1.0,part_1,,,,,,,,,,,,,blue,circle
34.0,1.0,1.0,0.0,3.0,3.0,326.1092919992734,3.0,1.0,part_1,,,,,,,,,,,,,orange,hexagon
0.0,5.0,0.0,1.0,4.0,4.0,379.4826069997725,3.0,1.0,part_1,,,,,,,,,,,,,yellow,cross
44.0,1.0,1.0,0.0,1.0,1.0,383.4717930003535,3.0,1.0,part_1,,,,,,,,,,,,,orange,hexagon
32.0,1.0,1.0,0.0,2.0,2.0,511.53280200014706,3.0,1.0,part_1,,,,,,,,,,,,,orange,hexagon
96.0,6.0,2.0,1.0,3.0,3.0,475.0901870002053,3.0,1.0,part_1,,,,,,,,,,,,,blue,circle
37.0,5.0,1.0,1.0,1.0,1.0,550.869488999524,3.0,1.0,part_1,,,,,,,,,,,,,yellow,cross
183.0,3.0,3.0,0.0,1.0,1.0,325.7280730003913,3.0,1.0,part_1,,,,,,,,,,,,,magenta,I
407.0,4.0,4.0,0.0,3.0,3.0,297.086068999306,3.0,1.0,part_1,,,,,,,,,,,,,cyan,square
0.0,2.0,0.0,0.0,1.0,1.0,307.7564720006194,3.0,1.0,part_1,,,,,,,,,,,,,green,triangle
117.0,2.0,2.0,0.0,2.0,2.0,352.5510640001812,3.0,1.0,part_1,,,,,,,,,,,,,green,triangle
69.0,1.0,1.0,0.0,1.0,1.0,285.938640000495,3.0,1.0,part_1,,,,,,,,,,,,,orange,hexagon
34.0,5.0,1.0,1.0,1.0,1.0,324.6485640001992,3.0,1.0,part_1,,,,,,,,,,,,,yellow,cross
122.0,2.0,2.0,0.0,3.0,3.0,299.9642009999661,3.0,2.0,part_1,,,,,,,,,,,,,green,triangle
199.0,7.0,3.0,1.0,3.0,3.0,344.2279759992743,3.0,1.0,part_1,,,,,,,,,,,,,gray,flipped triangle
190.0,7.0,3.0,1.0,2.0,2.0,422.6528890003465,3.0,1.0,part_1,,,,,,,,,,,,,gray,flipped triangle
89.0,6.0,2.0,1.0,2.0,2.0,338.3593710004788,3.0,1.0,part_1,,,,,,,,,,,,,blue,circle
204.0,3.0,3.0,0.0,1.0,1.0,374.0537019994008,3.0,1.0,part_1,,,,,,,,,,,,,magenta,I
406.0,4.0,4.0,0.0,4.0,4.0,348.7825259999226,3.0,1.0,part_1,,,,,,,,,,,,,cyan,square
411.0,4.0,4.0,0.0,2.0,2.0,440.3989809998165,3.0,1.0,part_1,,,,,,,,,,,,,cyan,square
395.0,4.0,4.0,0.0,2.0,2.0,343.1587810000565,3.0,1.0,part_1,,,,,,,,,,,,,cyan,square
0.0,6.0,0.0,1.0,3.0,3.0,337.1595499993418,3.0,1.0,part_1,,,,,,,,,,,,,blue,circle
111.0,2.0,2.0,0.0,1.0,1.0,328.8985789995422,3.0,1.0,part_1,,,,,,,,,,,,,green,triangle
0.0,7.0,0.0,1.0,2.0,2.0,355.7652330000564,3.0,1.0,part_1,,,,,,,,,,,,,gray,flipped triangle
0.0,7.0,0.0,1.0,2.0,2.0,377.8561459994307,3.0,1.0,part_1,,,,,,,,,,,,,gray,flipped triangle
103.0,2.0,2.0,0.0,1.0,1.0,331.5143069994519,3.0,1.0,part_1,,,,,,,,,,,,,green,triangle
406.0,8.0,4.0,1.0,3.0,3.0,299.2749120003282,3.0,1.0,part_1,,,,,,,,,,,,,white,diamond
33.0,5.0,1.0,1.0,2.0,2.0,404.8548840000876,3.0,1.0,part_1,,,,,,,,,,,,,yellow,cross
72.0,1.0,1.0,0.0,4.0,4.0,403.9824120000048,3.0,1.0,part_1,,,,,,,,,,,,,orange,hexagon
117.0,2.0,2.0,0.0,1.0,1.0,336.3039699997898,3.0,1.0,part_1,,,,,,,,,,,,,green,triangle
0.0,2.0,0.0,0.0,2.0,2.0,323.4674939994875,3.0,1.0,part_1,,,,,,,,,,,,,green,triangle
221.0,7.0,3.0,1.0,2.0,2.0,384.3519760002891,3.0,1.0,part_1,,,,,,,,,,,,,gray,flipped triangle
48.0,5.0,1.0,1.0,3.0,3.0,340.2917209996303,3.0,1.0,part_1,,,,,,,,,,,,,yellow,cross
396.0,4.0,4.0,0.0,3.0,3.0,348.6614209996332,3.0,1.0,part_1,,,,,,,,,,,,,cyan,square
102.0,2.0,2.0,0.0,2.0,2.0,312.110302000292,3.0,1.0,part_1,,,,,,,,,,,,,green,triangle
0.0,4.0,0.0,0.0,4.0,4.0,282.2449920004146,3.0,1.0,part_1,,,,,,,,,,,,,cyan,square
382.0,8.0,4.0,1.0,3.0,3.0,384.7510940004213,3.0,1.0,part_1,,,,,,,,,,,,,white,diamond
209.0,7.0,3.0,1.0,4.0,4.0,590.4392760003248,3.0,1.0,part_1,,,,,,,,,,,,,gray,flipped triangle
0.0,6.0,0.0,1.0,4.0,4.0,440.2445879995866,3.0,1.0,part_1,,,,,,,,,,,,,blue,circle
88.0,2.0,2.0,0.0,1.0,1.0,319.7171419997175,3.0,1.0,part_1,,,,,,,,,,,,,green,triangle
402.0,8.0,4.0,1.0,3.0,3.0,372.4329490005402,3.0,1.0,part_1,,,,,,,,,,,,,white,diamond
214.0,3.0,3.0,0.0,1.0,1.0,342.3721649996878,3.0,1.0,part_1,,,,,,,,,,,,,magenta,I
123.0,2.0,2.0,0.0,3.0,3.0,508.3522720005931,3.0,1.0,part_1,,,,,,,,,,,,,green,triangle
212.0,3.0,3.0,0.0,2.0,2.0,368.4085049999339,3.0,1.0,part_1,,,,,,,,,,,,,magenta,I
35.0,1.0,1.0,0.0,2.0,2.0,716.5093289995639,3.0,1.0,part_1,,,,,,,,,,,,,orange,hexagon
0.0,4.0,0.0,0.0,2.0,2.0,345.9282960002383,3.0,1.0,part_1,,,,,,,,,,,,,cyan,square
422.0,8.0,4.0,1.0,1.0,1.0,336.5408710005795,3.0,1.0,part_1,,,,,,,,,,,,,white,diamond
194.0,7.0,3.0,1.0,1.0,1.0,381.6938809995918,3.0,1.0,part_1,,,,,,,,,,,,,gray,flipped triangle
111.0,6.0,2.0,1.0,2.0,2.0,390.927823000311,3.0,1.0,part_1,,,,,,,,,,,,,blue,circle
57.0,5.0,1.0,1.0,1.0,1.0,589.7250350008107,3.0,1.0,part_1,,,,,,,,,,,,,yellow,cross
377.0,4.0,4.0,0.0,4.0,4.0,548.716708000029,3.0,1.0,part_1,,,,,,,,,,,,,cyan,square
197.0,3.0,3.0,0.0,2.0,2.0,397.2166000003199,3.0,1.0,part_1,,,,,,,,,,,,,magenta,I
0.0,2.0,0.0,0.0,2.0,2.0,308.9238229995317,3.0,1.0,part_1,,,,,,,,,,,,,green,triangle
40.0,1.0,1.0,0.0,4.0,4.0,361.7534100003468,3.0,1.0,part_1,,,,,,,,,,,,,orange,hexagon
118.0,2.0,2.0,0.0,1.0,1.0,340.2888809996511,3.0,1.0,part_1,,,,,,,,,,,,,green,triangle
78.0,6.0,2.0,1.0,4.0,4.0,344.7062649993313,3.0,1.0,part_1,,,,,,,,,,,,,blue,circle
405.0,8.0,4.0,1.0,1.0,1.0,375.3036910002265,3.0,1.0,part_1,,,,,,,,,,,,,white,diamond
183.0,7.0,3.0,1.0,4.0,4.0,353.4798410000803,3.0,1.0,part_1,,,,,,,,,,,,,gray,flipped triangle
38.0,5.0,1.0,1.0,2.0,2.0,350.9219329998814,3.0,1.0,part_1,,,,,,,,,,,,,yellow,cross
177.0,3.0,3.0,0.0,1.0,1.0,348.485729999993,3.0,1.0,part_1,,,,,,,,,,,,,magenta,I
421.0,4.0,4.0,0.0,3.0,3.0,346.418518000064,3.0,1.0,part_1,,,,,,,,,,,,,cyan,square
84.0,6.0,2.0,1.0,3.0,3.0,429.3824559999848,3.0,1.0,part_1,,,,,,,,,,,,,blue,circle
58.0,5.0,1.0,1.0,1.0,1.0,330.82470299996197,3.0,1.0,part_1,,,,,,,,,,,,,yellow,cross
216.0,7.0,3.0,1.0,3.0,3.0,271.4248859992949,3.0,1.0,part_1,,,,,,,,,,,,,gray,flipped triangle
0.0,6.0,0.0,1.0,2.0,2.0,330.7727490000616,3.0,1.0,part_1,,,,,,,,,,,,,blue,circle
0.0,4.0,0.0,0.0,4.0,4.0,440.5456929998763,3.0,1.0,part_1,,,,,,,,,,,,,cyan,square
0.0,5.0,0.0,1.0,1.0,1.0,315.8010670003932,3.0,1.0,part_1,,,,,,,,,,,,,yellow,cross
0.0,8.0,0.0,1.0,4.0,4.0,355.3226420008286,3.0,1.0,part_1,,,,,,,,,,,,,white,diamond
38.0,5.0,1.0,1.0,3.0,3.0,309.5413809996898,3.0,1.0,part_1,,,,,,,,,,,,,yellow,cross
99.0,6.0,2.0,1.0,3.0,3.0,364.1893240001081,3.0,1.0,part_1,,,,,,,,,,,,,blue,circle
383.0,4.0,4.0,0.0,2.0,2.0,398.0912320002971,3.0,1.0,part_1,,,,,,,,,,,,,cyan,square
76.0,6.0,2.0,1.0,2.0,2.0,323.6286789997393,3.0,1.0,part_1,,,,,,,,,,,,,blue,circle
84.0,2.0,2.0,0.0,3.0,3.0,307.1305929997834,3.0,1.0,part_1,,,,,,,,,,,,,green,triangle
185.0,3.0,3.0,0.0,4.0,4.0,325.8079170000201,4.0,1.0,part_1,,,,,,,,,,,,,magenta,I
399.0,4.0,4.0,0.0,3.0,3.0,276.8109700000423,4.0,1.0,part_1,,,,,,,,,,,,,cyan,square
404.0,4.0,4.0,0.0,2.0,2.0,289.3475090004358,4.0,1.0,part_1,,,,,,,,,,,,,cyan,square
184.0,7.0,3.0,1.0,4.0,4.0,251.2052769998263,4.0,1.0,part_1,,,,,,,,,,,,,gray,flipped triangle
33.0,1.0,1.0,0.0,1.0,1.0,267.9244870005277,4.0,1.0,part_1,,,,,,,,,,,,,orange,hexagon
385.0,8.0,4.0,1.0,1.0,1.0,308.858248999968,4.0,1.0,part_1,,,,,,,,,,,,,white,diamond
0.0,8.0,0.0,1.0,4.0,4.0,306.413928999973,4.0,1.0,part_1,,,,,,,,,,,,,white,diamond
0.0,4.0,0.0,0.0,2.0,2.0,357.4199220001901,4.0,2.0,part_1,,,,,,,,,,,,,cyan,square
44.0,5.0,1.0,1.0,2.0,2.0,278.8873749996128,4.0,1.0,part_1,,,,,,,,,,,,,yellow,cross
92.0,2.0,2.0,0.0,2.0,2.0,287.5548279998838,4.0,1.0,part_1,,,,,,,,,,,,,green,triangle
0.0,2.0,0.0,0.0,3.0,3.0,468.5118670004158,4.0,1.0,part_1,,,,,,,,,,,,,green,triangle
0.0,1.0,0.0,0.0,1.0,1.0,359.3928419995791,4.0,1.0,part_1,,,,,,,,,,,,,orange,hexagon
396.0,8.0,4.0,1.0,4.0,4.0,354.2320040005506,4.0,1.0,part_1,,,,,,,,,,,,,white,diamond
64.0,5.0,1.0,1.0,2.0,2.0,303.4499289997256,4.0,1.0,part_1,,,,,,,,,,,,,yellow,cross
375.0,8.0,4.0,1.0,4.0,4.0,366.7333310004323,4.0,1.0,part_1,,,,,,,,,,,,,white,diamond
102.0,6.0,2.0,1.0,3.0,3.0,315.370559999792,4.0,1.0,part_1,,,,,,,,,,,,,blue,circle
30.0,5.0,1.0,1.0,2.0,2.0,343.2715550006833,4.0,1.0,part_1,,,,,,,,,,,,,yellow,cross
184.0,3.0,3.0,0.0,4.0,4.0,377.5298219998149,4.0,1.0,part_1,,,,,,,,,,,,,magenta,I
0.0,4.0,0.0,0.0,3.0,3.0,286.9484589991771,4.0,1.0,part_1,,,,,,,,,,,,,cyan,square
59.0,1.0,1.0,0.0,2.0,2.0,340.0122450002527,4.0,1.0,part_1,,,,,,,,,,,,,orange,hexagon
184.0,7.0,3.0,1.0,4.0,4.0,336.3505609995627,4.0,1.0,part_1,,,,,,,,,,,,,gray,flipped triangle
85.0,2.0,2.0,0.0,2.0,2.0,342.9969399994661,4.0,1.0,part_1,,,,,,,,,,,,,green,triangle
104.0,6.0,2.0,1.0,4.0,4.0,308.6819590007508,4.0,1.0,part_1,,,,,,,,,,,,,blue,circle
0.0,8.0,0.0,1.0,4.0,4.0,319.4041269998706,4.0,1.0,part_1,,,,,,,,,,,,,white,diamond
417.0,4.0,4.0,0.0,1.0,1.0,275.7861310001317,4.0,1.0,part_1,,,,,,,,,,,,,cyan,square
27.0,5.0,1.0,1.0,1.0,1.0,313.843445999737,4.0,1.0,part_1,,,,,,,,,,,,,yellow,cross
0.0,1.0,0.0,0.0,4.0,4.0,307.6102770000943,4.0,1.0,part_1,,,,,,,,,,,,,orange,hexagon
61.0,1.0,1.0,0.0,3.0,3.0,298.7922539996361,4.0,1.0,part_1,,,,,,,,,,,,,orange,hexagon
414.0,4.0,4.0,0.0,1.0,1.0,343.9352980003605,4.0,1.0,part_1,,,,,,,,,,,,,cyan,square
175.0,7.0,3.0,1.0,1.0,1.0,346.4058790004856,4.0,1.0,part_1,,,,,,,,,,,,,gray,flipped triangle
96.0,6.0,2.0,1.0,4.0,4.0,289.5917989999361,4.0,1.0,part_1,,,,,,,,,,,,,blue,circle
119.0,2.0,2.0,0.0,4.0,4.0,326.3067249999949,4.0,1.0,part_1,,,,,,,,,,,,,green,triangle
423.0,4.0,4.0,0.0,3.0,3.0,260.0321810004971,4.0,1.0,part_1,,,,,,,,,,,,,cyan,square
0.0,2.0,0.0,0.0,1.0,1.0,324.5313239995084,4.0,1.0,part_1,,,,,,,,,,,,,green,triangle
0.0,1.0,0.0,0.0,3.0,3.0,489.5789289994354,4.0,1.0,part_1,,,,,,,,,,,,,orange,hexagon
0.0,2.0,0.0,0.0,2.0,2.0,318.7643100000059,4.0,1.0,part_1,,,,,,,,,,,,,green,triangle
383.0,8.0,4.0,1.0,3.0,3.0,306.4407129995743,4.0,1.0,part_1,,,,,,,,,,,,,white,diamond
0.0,7.0,0.0,1.0,2.0,2.0,311.0999949994948,4.0,1.0,part_1,,,,,,,,,,,,,gray,flipped triangle
64.0,1.0,1.0,0.0,2.0,2.0,340.591050000512,4.0,1.0,part_1,,,,,,,,,,,,,orange,hexagon
0.0,3.0,0.0,0.0,1.0,1.0,331.3911420000295,4.0,1.0,part_1,,,,,,,,,,,,,magenta,I
28.0,5.0,1.0,1.0,1.0,1.0,286.289193999437,4.0,1.0,part_1,,,,,,,,,,,,,yellow,cross
54.0,1.0,1.0,0.0,4.0,4.0,301.2556960002257,4.0,1.0,part_1,,,,,,,,,,,,,orange,hexagon
0.0,6.0,0.0,1.0,2.0,2.0,416.7765379997945,4.0,1.0,part_1,,,,,,,,,,,,,blue,circle
0.0,7.0,0.0,1.0,1.0,1.0,438.2982749993971,4.0,1.0,part_1,,,,,,,,,,,,,gray,flipped triangle
408.0,4.0,4.0,0.0,1.0,1.0,306.6787470006602,4.0,1.0,part_1,,,,,,,,,,,,,cyan,square
0.0,8.0,0.0,1.0,4.0,4.0,313.0470300002343,4.0,1.0,part_1,,,,,,,,,,,,,white,diamond
413.0,4.0,4.0,0.0,1.0,1.0,306.2853930005076,4.0,1.0,part_1,,,,,,,,,,,,,cyan,square
75.0,1.0,1.0,0.0,3.0,3.0,393.1195160002971,4.0,1.0,part_1,,,,,,,,,,,,,orange,hexagon
386.0,4.0,4.0,0.0,3.0,3.0,322.7906109996183,4.0,1.0,part_1,,,,,,,,,,,,,cyan,square
32.0,1.0,1.0,0.0,4.0,4.0,473.4234090001337,4.0,1.0,part_1,,,,,,,,,,,,,orange,hexagon
206.0,7.0,3.0,1.0,1.0,1.0,509.12692899964895,4.0,1.0,part_1,,,,,,,,,,,,,gray,flipped triangle
55.0,5.0,1.0,1.0,4.0,4.0,267.5038329998642,4.0,1.0,part_1,,,,,,,,,,,,,yellow,cross
382.0,4.0,4.0,0.0,4.0,4.0,272.4579710002217,4.0,1.0,part_1,,,,,,,,,,,,,cyan,square
195.0,3.0,3.0,0.0,1.0,1.0,274.8967580000681,4.0,1.0,part_1,,,,,,,,,,,,,magenta,I
84.0,2.0,2.0,0.0,1.0,1.0,278.9513830002761,4.0,1.0,part_1,,,,,,,,,,,,,green,triangle
62.0,1.0,1.0,0.0,3.0,3.0,238.5066020005979,4.0,1.0,part_1,,,,,,,,,,,,,orange,hexagon
422.0,4.0,4.0,0.0,2.0,2.0,234.5591260000219,4.0,1.0,part_1,,,,,,,,,,,,,cyan,square
69.0,5.0,1.0,1.0,1.0,1.0,290.0338819999888,4.0,2.0,part_1,,,,,,,,,,,,,yellow,cross
194.0,3.0,3.0,0.0,1.0,1.0,306.3402730003872,4.0,1.0,part_1,,,,,,,,,,,,,magenta,I
94.0,6.0,2.0,1.0,2.0,2.0,259.7250469998471,4.0,1.0,part_1,,,,,,,,,,,,,blue,circle
47.0,1.0,1.0,0.0,1.0,1.0,258.8073050001185,4.0,1.0,part_1,,,,,,,,,,,,,orange,hexagon
117.0,6.0,2.0,1.0,4.0,4.0,254.58314400020748,4.0,1.0,part_1,,,,,,,,,,,,,blue,circle
0.0,6.0,0.0,1.0,1.0,1.0,268.3105609994527,4.0,1.0,part_1,,,,,,,,,,,,,blue,circle
72.0,5.0,1.0,1.0,2.0,2.0,288.6429239997596,4.0,1.0,part_1,,,,,,,,,,,,,yellow,cross
122.0,2.0,2.0,0.0,1.0,1.0,235.3458039997349,4.0,1.0,part_1,,,,,,,,,,,,,green,triangle
382.0,8.0,4.0,1.0,2.0,2.0,256.9287140004235,4.0,1.0,part_1,,,,,,,,,,,,,white,diamond
423.0,8.0,4.0,1.0,2.0,2.0,251.4276379997682,4.0,1.0,part_1,,,,,,,,,,,,,white,diamond
386.0,8.0,4.0,1.0,4.0,4.0,276.7771799999536,4.0,1.0,part_1,,,,,,,,,,,,,white,diamond
196.0,7.0,3.0,1.0,3.0,3.0,305.315771000096,4.0,1.0,part_1,,,,,,,,,,,,,gray,flipped triangle
419.0,8.0,4.0,1.0,1.0,1.0,290.2950150000833,4.0,1.0,part_1,,,,,,,,,,,,,white,diamond
54.0,5.0,1.0,1.0,1.0,1.0,274.5134820006569,4.0,1.0,part_1,,,,,,,,,,,,,yellow,cross
55.0,1.0,1.0,0.0,4.0,4.0,385.1738989997102,4.0,2.0,part_1,,,,,,,,,,,,,orange,hexagon
40.0,5.0,1.0,1.0,3.0,3.0,310.0594140005341,4.0,1.0,part_1,,,,,,,,,,,,,yellow,cross
122.0,6.0,2.0,1.0,1.0,1.0,353.4465259999706,4.0,1.0,part_1,,,,,,,,,,,,,blue,circle
35.0,5.0,1.0,1.0,4.0,4.0,378.4023030002572,4.0,1.0,part_1,,,,,,,,,,,,,yellow,cross
32.0,5.0,1.0,1.0,4.0,4.0,315.4511149996324,4.0,1.0,part_1,,,,,,,,,,,,,yellow,cross
63.0,5.0,1.0,1.0,4.0,4.0,378.758351000215,4.0,1.0,part_1,,,,,,,,,,,,,yellow,cross
0.0,7.0,0.0,1.0,1.0,1.0,372.3082750002504,4.0,1.0,part_1,,,,,,,,,,,,,gray,flipped triangle
195.0,7.0,3.0,1.0,3.0,3.0,649.651165999785,4.0,1.0,part_1,,,,,,,,,,,,,gray,flipped triangle
0.0,2.0,0.0,0.0,1.0,1.0,406.4581419997921,4.0,1.0,part_1,,,,,,,,,,,,,green,triangle
95.0,6.0,2.0,1.0,3.0,3.0,516.3945300000705,4.0,1.0,part_1,,,,,,,,,,,,,blue,circle
200.0,7.0,3.0,1.0,3.0,3.0,360.5988389999766,4.0,1.0,part_1,,,,,,,,,,,,,gray,flipped triangle
0.0,4.0,0.0,0.0,2.0,2.0,325.580300999718,4.0,1.0,part_1,,,,,,,,,,,,,cyan,square
0.0,5.0,0.0,1.0,1.0,1.0,287.1512679994339,4.0,2.0,part_1,,,,,,,,,,,,,yellow,cross
114.0,6.0,2.0,1.0,1.0,1.0,321.6246100000717,4.0,1.0,part_1,,,,,,,,,,,,,blue,circle
71.0,5.0,1.0,1.0,1.0,1.0,312.412274000053,4.0,1.0,part_1,,,,,,,,,,,,,yellow,cross
0.0,8.0,0.0,1.0,3.0,3.0,315.8656240002528,4.0,1.0,part_1,,,,,,,,,,,,,white,diamond
394.0,4.0,4.0,0.0,2.0,2.0,272.2635489999447,4.0,1.0,part_1,,,,,,,,,,,,,cyan,square
122.0,6.0,2.0,1.0,1.0,1.0,292.150390999268,4.0,1.0,part_1,,,,,,,,,,,,,blue,circle
92.0,6.0,2.0,1.0,1.0,1.0,315.7215219998761,4.0,1.0,part_1,,,,,,,,,,,,,blue,circle
0.0,1.0,0.0,0.0,1.0,1.0,409.7958729998936,4.0,1.0,part_1,,,,,,,,,,,,,orange,hexagon
50.0,1.0,1.0,0.0,3.0,3.0,298.6405960000411,4.0,1.0,part_1,,,,,,,,,,,,,orange,hexagon
402.0,4.0,4.0,0.0,1.0,1.0,370.1319960000546,4.0,1.0,part_1,,,,,,,,,,,,,cyan,square
419.0,4.0,4.0,0.0,1.0,1.0,299.6302029996514,4.0,1.0,part_1,,,,,,,,,,,,,cyan,square
78.0,6.0,2.0,1.0,3.0,3.0,330.2786570002354,4.0,1.0,part_1,,,,,,,,,,,,,blue,circle
200.0,3.0,3.0,0.0,3.0,3.0,302.1093570005178,4.0,1.0,part_1,,,,,,,,,,,,,magenta,I
204.0,7.0,3.0,1.0,2.0,2.0,324.8676679995697,4.0,1.0,part_1,,,,,,,,,,,,,gray,flipped triangle
0.0,7.0,0.0,1.0,4.0,4.0,401.79709699987137,4.0,1.0,part_1,,,,,,,,,,,,,gray,flipped triangle
0.0,1.0,0.0,0.0,1.0,1.0,283.1367290000344,4.0,1.0,part_1,,,,,,,,,,,,,orange,hexagon
375.0,4.0,4.0,0.0,4.0,4.0,344.4156279992967,4.0,1.0,part_1,,,,,,,,,,,,,cyan,square
0.0,8.0,4.0,1.0,6.0,0.0,0.0,1.0,0.0,part_2,stop,250.0,250.0,4.0,,,,,,,,,white,diamond
0.0,2.0,2.0,0.0,5.0,5.0,245.00223800077939,1.0,0.0,part_2,go,250.0,300.0,1.0,,,,,,,,,green,triangle
0.0,8.0,4.0,1.0,5.0,5.0,388.1900599999426,1.0,0.0,part_2,stop,250.0,300.0,3.0,,,,,,,,,white,diamond
0.0,2.0,2.0,0.0,5.0,5.0,452.0141920002061,1.0,0.0,part_2,go,200.0,300.0,1.0,,,,,,,,,green,triangle
0.0,6.0,2.0,1.0,6.0,6.0,318.646415999865,1.0,0.0,part_2,stop,200.0,300.0,3.0,,,,,,,,,blue,circle
0.0,8.0,4.0,1.0,6.0,6.0,323.9381590001358,1.0,0.0,part_2,stop,200.0,250.0,3.0,,,,,,,,,white,diamond
0.0,8.0,4.0,1.0,5.0,0.0,0.0,1.0,0.0,part_2,stop,200.0,200.0,4.0,,,,,,,,,white,diamond
0.0,5.0,1.0,1.0,5.0,5.0,596.4514369998142,1.0,0.0,part_2,go,250.0,200.0,1.0,,,,,,,,,yellow,cross
0.0,3.0,3.0,0.0,5.0,5.0,784.6398490000865,1.0,0.0,part_2,go,250.0,200.0,1.0,,,,,,,,,magenta,I
0.0,4.0,4.0,0.0,5.0,5.0,352.1164039993891,1.0,0.0,part_2,go,250.0,200.0,1.0,,,,,,,,,cyan,square
0.0,2.0,2.0,0.0,5.0,5.0,370.3774819996397,1.0,0.0,part_2,go,250.0,200.0,1.0,,,,,,,,,green,triangle
0.0,4.0,4.0,0.0,6.0,6.0,393.526261000261,1.0,0.0,part_2,go,250.0,200.0,1.0,,,,,,,,,cyan,square
0.0,1.0,1.0,0.0,5.0,6.0,736.1567530006141,1.0,0.0,part_2,go,250.0,200.0,2.0,,,,,,,,,orange,hexagon
0.0,1.0,1.0,0.0,6.0,6.0,575.7113230001778,1.0,0.0,part_2,go,250.0,200.0,1.0,,,,,,,,,orange,hexagon
0.0,3.0,3.0,0.0,5.0,5.0,287.5177599999006,1.0,0.0,part_2,go,250.0,200.0,1.0,,,,,,,,,magenta,I
0.0,2.0,2.0,0.0,6.0,6.0,376.8372909999016,1.0,0.0,part_2,go,250.0,200.0,1.0,,,,,,,,,green,triangle
0.0,8.0,4.0,1.0,6.0,0.0,0.0,1.0,0.0,part_2,stop,250.0,200.0,4.0,,,,,,,,,white,diamond
0.0,3.0,3.0,0.0,6.0,6.0,492.4064160004491,1.0,0.0,part_2,go,250.0,250.0,1.0,,,,,,,,,magenta,I
0.0,1.0,1.0,0.0,6.0,6.0,763.0230720005784,1.0,0.0,part_2,go,250.0,250.0,1.0,,,,,,,,,orange,hexagon
0.0,6.0,2.0,1.0,6.0,0.0,0.0,1.0,0.0,part_2,stop,250.0,250.0,4.0,,,,,,,,,blue,circle
0.0,6.0,2.0,1.0,6.0,0.0,0.0,1.0,0.0,part_2,stop,250.0,300.0,4.0,,,,,,,,,blue,circle
0.0,5.0,1.0,1.0,5.0,5.0,449.5745280000847,1.0,0.0,part_2,go,250.0,350.0,1.0,,,,,,,,,yellow,cross
0.0,3.0,3.0,0.0,5.0,5.0,618.5042590004741,1.0,0.0,part_2,go,250.0,350.0,1.0,,,,,,,,,magenta,I
0.0,6.0,2.0,1.0,6.0,0.0,0.0,1.0,0.0,part_2,stop,250.0,350.0,4.0,,,,,,,,,blue,circle
0.0,2.0,2.0,0.0,5.0,5.0,834.6415400001206,1.0,0.0,part_2,go,250.0,400.0,1.0,,,,,,,,,green,triangle
0.0,6.0,2.0,1.0,6.0,6.0,810.4425629999241,1.0,0.0,part_2,go,250.0,400.0,1.0,,,,,,,,,blue,circle
0.0,7.0,3.0,1.0,6.0,6.0,912.6295639998716,1.0,0.0,part_2,go,250.0,400.0,1.0,,,,,,,,,gray,flipped triangle
0.0,5.0,1.0,1.0,6.0,0.0,0.0,1.0,0.0,part_2,stop,250.0,400.0,4.0,,,,,,,,,yellow,cross
0.0,8.0,4.0,1.0,5.0,0.0,0.0,1.0,0.0,part_2,stop,250.0,450.0,4.0,,,,,,,,,white,diamond
0.0,7.0,3.0,1.0,5.0,5.0,576.7411110000467,1.0,0.0,part_2,go,300.0,450.0,1.0,,,,,,,,,gray,flipped triangle
0.0,8.0,4.0,1.0,5.0,0.0,0.0,1.0,0.0,part_2,stop,300.0,450.0,4.0,,,,,,,,,white,diamond
0.0,8.0,4.0,1.0,6.0,6.0,558.6246129996653,1.0,0.0,part_2,stop,350.0,450.0,3.0,,,,,,,,,white,diamond
0.0,4.0,4.0,0.0,5.0,5.0,652.4188729999878,1.0,0.0,part_2,go,350.0,400.0,1.0,,,,,,,,,cyan,square
0.0,4.0,4.0,0.0,5.0,5.0,981.3278120000176,1.0,0.0,part_2,go,350.0,400.0,1.0,,,,,,,,,cyan,square
0.0,3.0,3.0,0.0,5.0,5.0,1117.2879690002446,1.0,0.0,part_2,go,350.0,400.0,1.0,,,,,,,,,magenta,I
0.0,5.0,1.0,1.0,6.0,0.0,0.0,1.0,0.0,part_2,stop,350.0,400.0,4.0,,,,,,,,,yellow,cross
0.0,8.0,4.0,1.0,6.0,6.0,1102.7719209996576,2.0,0.0,part_2,stop,350.0,450.0,3.0,,,,,,,,,white,diamond
0.0,1.0,1.0,0.0,5.0,5.0,707.9998219996924,2.0,0.0,part_2,go,350.0,400.0,1.0,,,,,,,,,orange,hexagon
0.0,3.0,3.0,0.0,6.0,6.0,748.6245620002592,2.0,0.0,part_2,go,350.0,400.0,1.0,,,,,,,,,magenta,I
0.0,1.0,1.0,0.0,5.0,5.0,236.066708999715,2.0,0.0,part_2,go,350.0,400.0,1.0,,,,,,,,,orange,hexagon
0.0,2.0,2.0,0.0,6.0,6.0,707.1898670001247,2.0,0.0,part_2,go,350.0,400.0,1.0,,,,,,,,,green,triangle
0.0,6.0,2.0,1.0,6.0,0.0,0.0,2.0,0.0,part_2,stop,350.0,400.0,4.0,,,,,,,,,blue,circle
0.0,2.0,2.0,0.0,6.0,6.0,418.0104629995185,2.0,0.0,part_2,go,350.0,450.0,1.0,,,,,,,,,green,triangle
0.0,1.0,1.0,0.0,6.0,6.0,569.2866819999836,2.0,0.0,part_2,go,350.0,450.0,1.0,,,,,,,,,orange,hexagon
0.0,8.0,4.0,1.0,5.0,5.0,376.2924829998155,2.0,0.0,part_2,stop,350.0,450.0,3.0,,,,,,,,,white,diamond
0.0,7.0,3.0,1.0,5.0,0.0,0.0,2.0,0.0,part_2,stop,300.0,450.0,4.0,,,,,,,,,gray,flipped triangle
0.0,4.0,4.0,0.0,6.0,6.0,1118.443999000192,2.0,0.0,part_2,go,350.0,450.0,1.0,,,,,,,,,cyan,square
0.0,4.0,4.0,0.0,5.0,5.0,905.7750219999434,2.0,0.0,part_2,go,350.0,450.0,1.0,,,,,,,,,cyan,square
0.0,4.0,4.0,0.0,5.0,5.0,680.1762670002063,2.0,0.0,part_2,go,350.0,450.0,1.0,,,,,,,,,cyan,square
0.0,3.0,3.0,0.0,5.0,5.0,324.6677859997362,2.0,0.0,part_2,go,350.0,450.0,1.0,,,,,,,,,magenta,I
0.0,2.0,2.0,0.0,6.0,6.0,332.7038850002282,2.0,0.0,part_2,go,350.0,450.0,1.0,,,,,,,,,green,triangle
0.0,5.0,1.0,1.0,6.0,6.0,579.25193400024,2.0,0.0,part_2,stop,350.0,450.0,3.0,,,,,,,,,yellow,cross
0.0,1.0,1.0,0.0,5.0,5.0,653.522243000225,2.0,0.0,part_2,go,350.0,400.0,1.0,,,,,,,,,orange,hexagon
0.0,2.0,2.0,0.0,6.0,6.0,820.3499909996026,2.0,0.0,part_2,go,350.0,400.0,1.0,,,,,,,,,green,triangle
0.0,1.0,1.0,0.0,6.0,6.0,530.7797880004728,2.0,0.0,part_2,go,350.0,400.0,1.0,,,,,,,,,orange,hexagon
0.0,8.0,4.0,1.0,5.0,0.0,0.0,2.0,0.0,part_2,stop,350.0,400.0,4.0,,,,,,,,,white,diamond
0.0,4.0,4.0,0.0,6.0,6.0,370.4464309994364,2.0,0.0,part_2,go,400.0,400.0,1.0,,,,,,,,,cyan,square
0.0,2.0,2.0,0.0,6.0,6.0,857.8809450000335,2.0,0.0,part_2,go,400.0,400.0,1.0,,,,,,,,,green,triangle
0.0,4.0,4.0,0.0,5.0,5.0,1162.9388740002469,2.0,0.0,part_2,go,400.0,400.0,1.0,,,,,,,,,cyan,square
0.0,1.0,1.0,0.0,5.0,5.0,451.1014509998858,2.0,0.0,part_2,go,400.0,400.0,1.0,,,,,,,,,orange,hexagon
0.0,4.0,4.0,0.0,5.0,5.0,729.0910370002166,2.0,0.0,part_2,go,400.0,400.0,1.0,,,,,,,,,cyan,square
0.0,6.0,2.0,1.0,6.0,0.0,0.0,2.0,0.0,part_2,stop,400.0,400.0,4.0,,,,,,,,,blue,circle
0.0,5.0,1.0,1.0,5.0,5.0,265.7119789992066,2.0,0.0,part_2,stop,400.0,450.0,3.0,,,,,,,,,yellow,cross
0.0,7.0,3.0,1.0,6.0,6.0,607.4213729998519,2.0,0.0,part_2,go,350.0,450.0,1.0,,,,,,,,,gray,flipped triangle
0.0,7.0,3.0,1.0,5.0,0.0,0.0,2.0,0.0,part_2,stop,350.0,450.0,4.0,,,,,,,,,gray,flipped triangle
0.0,6.0,2.0,1.0,5.0,0.0,0.0,2.0,0.0,part_2,stop,400.0,450.0,4.0,,,,,,,,,blue,circle
0.0,6.0,2.0,1.0,5.0,5.0,559.4795990000421,2.0,0.0,part_2,go,450.0,450.0,1.0,,,,,,,,,blue,circle
0.0,6.0,2.0,1.0,5.0,5.0,558.9319289993,2.0,0.0,part_2,go,450.0,450.0,1.0,,,,,,,,,blue,circle
0.0,7.0,3.0,1.0,6.0,0.0,0.0,2.0,0.0,part_2,stop,450.0,450.0,4.0,,,,,,,,,gray,flipped triangle
0.0,5.0,1.0,1.0,5.0,0.0,0.0,2.0,0.0,part_2,stop,450.0,500.0,4.0,,,,,,,,,yellow,cross
0.0,4.0,4.0,0.0,6.0,6.0,892.8780440000992,2.0,0.0,part_2,go,500.0,500.0,1.0,,,,,,,,,cyan,square
0.0,4.0,4.0,0.0,5.0,5.0,809.6243609998055,2.0,0.0,part_2,go,500.0,500.0,1.0,,,,,,,,,cyan,square
0.0,5.0,1.0,1.0,5.0,5.0,308.5667249997641,3.0,0.0,part_2,stop,500.0,500.0,3.0,,,,,,,,,yellow,cross
0.0,4.0,4.0,0.0,5.0,5.0,724.2641250004453,3.0,0.0,part_2,go,450.0,500.0,1.0,,,,,,,,,cyan,square
0.0,4.0,4.0,0.0,6.0,6.0,705.469049000385,3.0,0.0,part_2,go,450.0,500.0,1.0,,,,,,,,,cyan,square
0.0,3.0,3.0,0.0,6.0,6.0,546.1016300005213,3.0,0.0,part_2,go,450.0,500.0,1.0,,,,,,,,,magenta,I
0.0,2.0,2.0,0.0,6.0,6.0,634.7735869994722,3.0,0.0,part_2,go,450.0,500.0,1.0,,,,,,,,,green,triangle
0.0,3.0,3.0,0.0,5.0,5.0,510.61519399991084,3.0,0.0,part_2,go,450.0,500.0,1.0,,,,,,,,,magenta,I
0.0,4.0,4.0,0.0,6.0,6.0,318.203462999918,3.0,0.0,part_2,go,450.0,500.0,1.0,,,,,,,,,cyan,square
0.0,8.0,4.0,1.0,5.0,5.0,719.9646130002293,3.0,0.0,part_2,go,450.0,500.0,1.0,,,,,,,,,white,diamond
0.0,5.0,1.0,1.0,5.0,5.0,415.82730600021017,3.0,0.0,part_2,stop,450.0,500.0,3.0,,,,,,,,,yellow,cross
0.0,6.0,2.0,1.0,6.0,6.0,765.2222679998886,3.0,0.0,part_2,go,400.0,500.0,1.0,,,,,,,,,blue,circle
0.0,2.0,2.0,0.0,5.0,5.0,828.1840270001339,3.0,0.0,part_2,go,400.0,500.0,1.0,,,,,,,,,green,triangle
0.0,6.0,2.0,1.0,5.0,0.0,0.0,3.0,0.0,part_2,stop,400.0,500.0,4.0,,,,,,,,,blue,circle
0.0,2.0,2.0,0.0,5.0,5.0,1077.5974569996831,3.0,0.0,part_2,go,450.0,500.0,1.0,,,,,,,,,green,triangle
0.0,1.0,1.0,0.0,6.0,6.0,365.1757479992739,3.0,0.0,part_2,go,450.0,500.0,1.0,,,,,,,,,orange,hexagon
0.0,3.0,3.0,0.0,6.0,6.0,690.7229669996013,3.0,0.0,part_2,go,450.0,500.0,1.0,,,,,,,,,magenta,I
0.0,8.0,4.0,1.0,5.0,5.0,531.2072289998468,3.0,0.0,part_2,stop,450.0,500.0,3.0,,,,,,,,,white,diamond
0.0,5.0,1.0,1.0,5.0,0.0,0.0,3.0,0.0,part_2,stop,400.0,500.0,4.0,,,,,,,,,yellow,cross
0.0,7.0,3.0,1.0,5.0,0.0,0.0,3.0,0.0,part_2,stop,450.0,500.0,4.0,,,,,,,,,gray,flipped triangle
0.0,2.0,2.0,0.0,6.0,6.0,681.2652429998707,3.0,0.0,part_2,go,500.0,500.0,1.0,,,,,,,,,green,triangle
0.0,3.0,3.0,0.0,5.0,5.0,607.3282749994178,3.0,0.0,part_2,go,500.0,500.0,1.0,,,,,,,,,magenta,I
0.0,1.0,1.0,0.0,6.0,6.0,983.4269709999716,3.0,0.0,part_2,go,500.0,500.0,1.0,,,,,,,,,orange,hexagon
0.0,5.0,1.0,1.0,6.0,0.0,0.0,3.0,0.0,part_2,stop,500.0,500.0,4.0,,,,,,,,,yellow,cross
0.0,3.0,3.0,0.0,6.0,6.0,829.375827000149,3.0,0.0,part_2,go,500.0,550.0,1.0,,,,,,,,,magenta,I
0.0,7.0,3.0,1.0,6.0,0.0,0.0,3.0,0.0,part_2,stop,500.0,550.0,4.0,,,,,,,,,gray,flipped triangle
0.0,3.0,3.0,0.0,5.0,5.0,828.485706999345,3.0,0.0,part_2,go,500.0,600.0,1.0,,,,,,,,,magenta,I
0.0,7.0,3.0,1.0,5.0,0.0,0.0,3.0,0.0,part_2,stop,500.0,600.0,4.0,,,,,,,,,gray,flipped triangle
0.0,8.0,4.0,1.0,5.0,5.0,806.17600900041,3.0,0.0,part_2,go,550.0,600.0,1.0,,,,,,,,,white,diamond
0.0,6.0,2.0,1.0,6.0,0.0,0.0,3.0,0.0,part_2,stop,550.0,600.0,4.0,,,,,,,,,blue,circle
0.0,8.0,4.0,1.0,6.0,6.0,694.2576090004877,3.0,0.0,part_2,go,550.0,650.0,1.0,,,,,,,,,white,diamond
0.0,5.0,1.0,1.0,5.0,0.0,0.0,3.0,0.0,part_2,stop,550.0,650.0,4.0,,,,,,,,,yellow,cross
0.0,7.0,3.0,1.0,5.0,5.0,747.6807800003371,3.0,0.0,part_2,stop,600.0,650.0,3.0,,,,,,,,,gray,flipped triangle
0.0,1.0,1.0,0.0,5.0,5.0,676.6068659999291,3.0,0.0,part_2,go,550.0,650.0,1.0,,,,,,,,,orange,hexagon
0.0,2.0,2.0,0.0,5.0,5.0,330.0354730008621,3.0,0.0,part_2,go,550.0,650.0,1.0,,,,,,,,,green,triangle
0.0,1.0,1.0,0.0,6.0,6.0,625.6520870001623,3.0,0.0,part_2,go,550.0,650.0,1.0,,,,,,,,,orange,hexagon
0.0,7.0,3.0,1.0,6.0,6.0,617.6879329996154,3.0,0.0,part_2,stop,550.0,650.0,3.0,,,,,,,,,gray,flipped triangle
0.0,2.0,2.0,0.0,5.0,5.0,953.434844000185,3.0,0.0,part_2,go,550.0,600.0,1.0,,,,,,,,,green,triangle
0.0,4.0,4.0,0.0,5.0,5.0,585.7153269998889,4.0,0.0,part_2,go,550.0,600.0,1.0,,,,,,,,,cyan,square
0.0,6.0,2.0,1.0,5.0,5.0,296.6732459999548,4.0,0.0,part_2,stop,550.0,600.0,3.0,,,,,,,,,blue,circle
0.0,5.0,1.0,1.0,6.0,6.0,634.0740919995369,4.0,0.0,part_2,go,500.0,600.0,1.0,,,,,,,,,yellow,cross
0.0,2.0,2.0,0.0,6.0,6.0,615.1159020000705,4.0,0.0,part_2,go,500.0,600.0,1.0,,,,,,,,,green,triangle
0.0,5.0,1.0,1.0,5.0,5.0,616.7359000000943,4.0,0.0,part_2,stop,500.0,600.0,3.0,,,,,,,,,yellow,cross
0.0,7.0,3.0,1.0,5.0,0.0,0.0,4.0,0.0,part_2,stop,450.0,600.0,4.0,,,,,,,,,gray,flipped triangle
0.0,7.0,3.0,1.0,6.0,6.0,679.7146319995591,4.0,0.0,part_2,stop,500.0,600.0,3.0,,,,,,,,,gray,flipped triangle
0.0,3.0,3.0,0.0,6.0,6.0,695.516077999855,4.0,0.0,part_2,go,500.0,550.0,1.0,,,,,,,,,magenta,I
0.0,7.0,3.0,1.0,5.0,5.0,765.9733069995127,4.0,0.0,part_2,go,500.0,550.0,1.0,,,,,,,,,gray,flipped triangle
0.0,2.0,2.0,0.0,5.0,5.0,678.4709190005742,4.0,0.0,part_2,go,500.0,550.0,1.0,,,,,,,,,green,triangle
0.0,5.0,1.0,1.0,5.0,0.0,0.0,4.0,0.0,part_2,stop,500.0,550.0,4.0,,,,,,,,,yellow,cross
0.0,6.0,2.0,1.0,5.0,0.0,0.0,4.0,0.0,part_2,stop,550.0,550.0,4.0,,,,,,,,,blue,circle
0.0,5.0,1.0,1.0,6.0,0.0,0.0,4.0,0.0,part_2,stop,600.0,550.0,4.0,,,,,,,,,yellow,cross
0.0,4.0,4.0,0.0,5.0,5.0,497.7299969996238,4.0,0.0,part_2,go,600.0,600.0,1.0,,,,,,,,,cyan,square
0.0,1.0,1.0,0.0,6.0,6.0,729.4602370002394,4.0,0.0,part_2,go,600.0,600.0,1.0,,,,,,,,,orange,hexagon
0.0,7.0,3.0,1.0,6.0,6.0,650.6166580002173,4.0,0.0,part_2,stop,600.0,600.0,3.0,,,,,,,,,gray,flipped triangle
0.0,7.0,3.0,1.0,6.0,6.0,608.6421079999127,4.0,0.0,part_2,stop,600.0,550.0,3.0,,,,,,,,,gray,flipped triangle
0.0,2.0,2.0,0.0,6.0,6.0,888.474739999765,4.0,0.0,part_2,go,600.0,500.0,1.0,,,,,,,,,green,triangle
0.0,5.0,1.0,1.0,6.0,6.0,545.013141999334,4.0,0.0,part_2,stop,600.0,500.0,3.0,,,,,,,,,yellow,cross
0.0,2.0,2.0,0.0,5.0,5.0,918.4532939998462,4.0,0.0,part_2,go,600.0,450.0,1.0,,,,,,,,,green,triangle
0.0,3.0,3.0,0.0,6.0,6.0,1160.1944300000469,4.0,0.0,part_2,go,600.0,450.0,1.0,,,,,,,,,magenta,I
0.0,7.0,3.0,1.0,6.0,6.0,1407.646560000103,4.0,0.0,part_2,go,600.0,450.0,1.0,,,,,,,,,gray,flipped triangle
0.0,5.0,1.0,1.0,5.0,5.0,1158.7894670001333,4.0,0.0,part_2,go,600.0,450.0,1.0,,,,,,,,,yellow,cross
0.0,8.0,4.0,1.0,6.0,6.0,467.8352830005678,4.0,0.0,part_2,stop,600.0,450.0,3.0,,,,,,,,,white,diamond
0.0,8.0,4.0,1.0,6.0,6.0,685.3277260006507,4.0,0.0,part_2,go,600.0,400.0,1.0,,,,,,,,,white,diamond
0.0,5.0,1.0,1.0,6.0,0.0,0.0,4.0,0.0,part_2,stop,600.0,400.0,4.0,,,,,,,,,yellow,cross
0.0,3.0,3.0,0.0,6.0,6.0,829.0449810001519,4.0,0.0,part_2,go,600.0,450.0,1.0,,,,,,,,,magenta,I
0.0,7.0,3.0,1.0,6.0,0.0,0.0,4.0,0.0,part_2,stop,600.0,450.0,4.0,,,,,,,,,gray,flipped triangle
0.0,8.0,4.0,1.0,6.0,0.0,0.0,4.0,0.0,part_2,stop,600.0,500.0,4.0,,,,,,,,,white,diamond
0.0,8.0,4.0,1.0,5.0,0.0,0.0,4.0,0.0,part_2,stop,600.0,550.0,4.0,,,,,,,,,white,diamond
0.0,4.0,4.0,0.0,6.0,6.0,682.6414100005422,4.0,0.0,part_2,go,650.0,550.0,1.0,,,,,,,,,cyan,square
0.0,4.0,4.0,0.0,5.0,5.0,823.8576280000416,4.0,0.0,part_2,go,650.0,550.0,1.0,,,,,,,,,cyan,square
0.0,6.0,2.0,1.0,6.0,0.0,0.0,4.0,0.0,part_2,stop,650.0,550.0,4.0,,,,,,,,,blue,circle
0.0,3.0,3.0,0.0,6.0,6.0,1102.809201999662,4.0,0.0,part_2,go,650.0,600.0,1.0,,,,,,,,,magenta,I
0.0,6.0,2.0,1.0,5.0,5.0,880.9605119995467,4.0,0.0,part_2,go,650.0,600.0,1.0,,,,,,,,,blue,circle
0.0,1.0,1.0,0.0,5.0,5.0,809.5919500001401,4.0,0.0,part_2,go,650.0,600.0,1.0,,,,,,,,,orange,hexagon
0.0,8.0,4.0,1.0,5.0,5.0,807.1646440002951,5.0,0.0,part_2,go,650.0,600.0,1.0,,,,,,,,,white,diamond
0.0,4.0,4.0,0.0,5.0,5.0,294.3111249996946,5.0,0.0,part_2,go,650.0,600.0,1.0,,,,,,,,,cyan,square
0.0,8.0,4.0,1.0,5.0,5.0,477.6754910008094,5.0,0.0,part_2,stop,650.0,600.0,3.0,,,,,,,,,white,diamond
0.0,7.0,3.0,1.0,5.0,5.0,340.5530189993442,5.0,0.0,part_2,go,600.0,600.0,1.0,,,,,,,,,gray,flipped triangle
0.0,6.0,2.0,1.0,6.0,6.0,265.6298480005716,5.0,0.0,part_2,stop,600.0,600.0,3.0,,,,,,,,,blue,circle
0.0,8.0,4.0,1.0,6.0,6.0,353.8375150001229,5.0,0.0,part_2,stop,600.0,550.0,3.0,,,,,,,,,white,diamond
0.0,1.0,1.0,0.0,6.0,6.0,408.8894639999125,5.0,0.0,part_2,go,600.0,500.0,1.0,,,,,,,,,orange,hexagon
0.0,1.0,1.0,0.0,6.0,6.0,415.8395839995137,5.0,0.0,part_2,go,600.0,500.0,1.0,,,,,,,,,orange,hexagon
0.0,7.0,3.0,1.0,5.0,5.0,223.464640000202,5.0,0.0,part_2,stop,600.0,500.0,3.0,,,,,,,,,gray,flipped triangle
0.0,8.0,4.0,1.0,5.0,5.0,303.9798009995138,5.0,0.0,part_2,stop,550.0,500.0,3.0,,,,,,,,,white,diamond
0.0,4.0,4.0,0.0,6.0,6.0,590.7182240007387,5.0,0.0,part_2,go,500.0,500.0,1.0,,,,,,,,,cyan,square
0.0,3.0,3.0,0.0,6.0,6.0,534.5732220002901,5.0,0.0,part_2,go,500.0,500.0,1.0,,,,,,,,,magenta,I
0.0,7.0,3.0,1.0,5.0,5.0,543.2290779999676,5.0,0.0,part_2,stop,500.0,500.0,3.0,,,,,,,,,gray,flipped triangle
0.0,2.0,2.0,0.0,5.0,5.0,678.6418760002562,5.0,0.0,part_2,go,450.0,500.0,1.0,,,,,,,,,green,triangle
0.0,5.0,1.0,1.0,5.0,5.0,415.7820150003317,5.0,0.0,part_2,stop,450.0,500.0,3.0,,,,,,,,,yellow,cross
0.0,1.0,1.0,0.0,5.0,5.0,302.4599720001788,5.0,0.0,part_2,go,400.0,500.0,1.0,,,,,,,,,orange,hexagon
0.0,2.0,2.0,0.0,6.0,6.0,499.8384390000865,5.0,0.0,part_2,go,400.0,500.0,1.0,,,,,,,,,green,triangle
0.0,3.0,3.0,0.0,6.0,6.0,630.0545049998618,5.0,0.0,part_2,go,400.0,500.0,1.0,,,,,,,,,magenta,I
0.0,2.0,2.0,0.0,6.0,6.0,499.72499599971337,5.0,0.0,part_2,go,400.0,500.0,1.0,,,,,,,,,green,triangle
0.0,6.0,2.0,1.0,6.0,6.0,548.1552550008928,5.0,0.0,part_2,stop,400.0,500.0,3.0,,,,,,,,,blue,circle
0.0,3.0,3.0,0.0,5.0,5.0,377.9968379994898,5.0,0.0,part_2,go,400.0,450.0,1.0,,,,,,,,,magenta,I
0.0,5.0,1.0,1.0,5.0,5.0,483.5923820000971,5.0,0.0,part_2,go,400.0,450.0,1.0,,,,,,,,,yellow,cross
0.0,5.0,1.0,1.0,5.0,0.0,0.0,5.0,0.0,part_2,stop,400.0,450.0,4.0,,,,,,,,,yellow,cross
0.0,5.0,1.0,1.0,6.0,6.0,306.1317789997702,5.0,0.0,part_2,stop,450.0,450.0,3.0,,,,,,,,,yellow,cross
0.0,7.0,3.0,1.0,5.0,5.0,222.3828420001155,5.0,0.0,part_2,go,450.0,400.0,1.0,,,,,,,,,gray,flipped triangle
0.0,1.0,1.0,0.0,6.0,6.0,326.284824999675,5.0,0.0,part_2,go,450.0,400.0,1.0,,,,,,,,,orange,hexagon
0.0,8.0,4.0,1.0,6.0,6.0,426.1103870003353,5.0,0.0,part_2,stop,450.0,400.0,3.0,,,,,,,,,white,diamond
0.0,3.0,3.0,0.0,5.0,5.0,526.3540010000725,5.0,0.0,part_2,go,450.0,350.0,1.0,,,,,,,,,magenta,I
0.0,6.0,2.0,1.0,6.0,6.0,920.1314169995384,5.0,0.0,part_2,stop,450.0,350.0,3.0,,,,,,,,,blue,circle
0.0,4.0,4.0,0.0,6.0,6.0,589.8487340000429,5.0,0.0,part_2,go,450.0,300.0,1.0,,,,,,,,,cyan,square
0.0,4.0,4.0,0.0,5.0,5.0,583.4796710005321,5.0,0.0,part_2,go,450.0,300.0,1.0,,,,,,,,,cyan,square
0.0,5.0,1.0,1.0,6.0,6.0,811.4211389993216,5.0,0.0,part_2,go,450.0,300.0,1.0,,,,,,,,,yellow,cross
0.0,7.0,3.0,1.0,6.0,6.0,606.4131510001971,5.0,0.0,part_2,stop,450.0,300.0,3.0,,,,,,,,,gray,flipped triangle
0.0,1.0,1.0,0.0,5.0,5.0,525.3090719997999,5.0,0.0,part_2,go,450.0,250.0,1.0,,,,,,,,,orange,hexagon
0.0,4.0,4.0,0.0,6.0,6.0,461.000798999521,5.0,0.0,part_2,go,450.0,250.0,1.0,,,,,,,,,cyan,square
0.0,6.0,2.0,1.0,6.0,6.0,404.531365999901,5.0,0.0,part_2,stop,450.0,250.0,3.0,,,,,,,,,blue,circle
0.0,2.0,2.0,0.0,6.0,5.0,764.1342229999282,6.0,0.0,part_2,go,450.0,200.0,2.0,,,,,,,,,green,triangle
0.0,8.0,4.0,1.0,6.0,6.0,323.4926830000404,6.0,0.0,part_2,stop,450.0,200.0,3.0,,,,,,,,,white,diamond
0.0,1.0,1.0,0.0,5.0,5.0,299.9003559998527,6.0,0.0,part_2,go,450.0,150.0,1.0,,,,,,,,,orange,hexagon
0.0,1.0,1.0,0.0,6.0,6.0,248.8969460000589,6.0,0.0,part_2,go,450.0,150.0,1.0,,,,,,,,,orange,hexagon
0.0,3.0,3.0,0.0,6.0,6.0,320.1061689997004,6.0,0.0,part_2,go,450.0,150.0,1.0,,,,,,,,,magenta,I
0.0,1.0,1.0,0.0,6.0,6.0,335.1829889998043,6.0,0.0,part_2,go,450.0,150.0,1.0,,,,,,,,,orange,hexagon
0.0,7.0,3.0,1.0,6.0,0.0,0.0,6.0,0.0,part_2,stop,450.0,150.0,4.0,,,,,,,,,gray,flipped triangle
0.0,8.0,4.0,1.0,6.0,6.0,472.9560400000991,6.0,0.0,part_2,go,450.0,200.0,1.0,,,,,,,,,white,diamond
0.0,1.0,1.0,0.0,5.0,5.0,349.6785500001351,6.0,0.0,part_2,go,450.0,200.0,1.0,,,,,,,,,orange,hexagon
0.0,1.0,1.0,0.0,6.0,6.0,376.9590780002545,6.0,0.0,part_2,go,450.0,200.0,1.0,,,,,,,,,orange,hexagon
0.0,8.0,4.0,1.0,5.0,5.0,392.4652320001769,6.0,0.0,part_2,stop,450.0,200.0,3.0,,,,,,,,,white,diamond
0.0,5.0,1.0,1.0,6.0,6.0,309.843271000318,6.0,0.0,part_2,go,400.0,200.0,1.0,,,,,,,,,yellow,cross
0.0,6.0,2.0,1.0,5.0,5.0,331.7107950006175,6.0,0.0,part_2,stop,400.0,200.0,3.0,,,,,,,,,blue,circle
0.0,4.0,4.0,0.0,5.0,5.0,378.742830000192,6.0,0.0,part_2,go,350.0,200.0,1.0,,,,,,,,,cyan,square
0.0,8.0,4.0,1.0,6.0,0.0,0.0,6.0,0.0,part_2,stop,350.0,200.0,4.0,,,,,,,,,white,diamond
0.0,3.0,3.0,0.0,5.0,5.0,305.9473519997482,6.0,0.0,part_2,go,350.0,250.0,1.0,,,,,,,,,magenta,I
0.0,7.0,3.0,1.0,6.0,0.0,0.0,6.0,0.0,part_2,stop,350.0,250.0,4.0,,,,,,,,,gray,flipped triangle
0.0,6.0,2.0,1.0,5.0,5.0,375.6372450006893,6.0,0.0,part_2,stop,350.0,300.0,3.0,,,,,,,,,blue,circle
0.0,6.0,2.0,1.0,5.0,0.0,0.0,6.0,0.0,part_2,stop,300.0,300.0,4.0,,,,,,,,,blue,circle
0.0,4.0,4.0,0.0,6.0,6.0,808.1714770005419,6.0,0.0,part_2,go,350.0,300.0,1.0,,,,,,,,,cyan,square
0.0,6.0,2.0,1.0,6.0,0.0,0.0,6.0,0.0,part_2,stop,350.0,300.0,4.0,,,,,,,,,blue,circle
0.0,1.0,1.0,0.0,6.0,6.0,745.1217889993131,6.0,0.0,part_2,go,350.0,350.0,1.0,,,,,,,,,orange,hexagon
0.0,4.0,4.0,0.0,6.0,6.0,761.3056740001412,6.0,0.0,part_2,go,350.0,350.0,1.0,,,,,,,,,cyan,square
0.0,3.0,3.0,0.0,5.0,5.0,317.8609189999406,6.0,0.0,part_2,go,350.0,350.0,1.0,,,,,,,,,magenta,I
0.0,4.0,4.0,0.0,6.0,6.0,470.8663470000829,6.0,0.0,part_2,go,350.0,350.0,1.0,,,,,,,,,cyan,square
0.0,5.0,1.0,1.0,5.0,5.0,454.9734050006009,6.0,0.0,part_2,stop,350.0,350.0,3.0,,,,,,,,,yellow,cross
0.0,8.0,4.0,1.0,5.0,5.0,364.423734000411,6.0,0.0,part_2,stop,300.0,350.0,3.0,,,,,,,,,white,diamond
0.0,1.0,1.0,0.0,5.0,5.0,581.2227960004748,6.0,0.0,part_2,go,250.0,350.0,1.0,,,,,,,,,orange,hexagon
0.0,5.0,1.0,1.0,5.0,0.0,0.0,6.0,0.0,part_2,stop,250.0,350.0,4.0,,,,,,,,,yellow,cross
0.0,5.0,1.0,1.0,6.0,6.0,394.7606130004715,6.0,0.0,part_2,go,300.0,350.0,1.0,,,,,,,,,yellow,cross
0.0,5.0,1.0,1.0,6.0,0.0,0.0,6.0,0.0,part_2,stop,300.0,350.0,4.0,,,,,,,,,yellow,cross
0.0,2.0,2.0,0.0,5.0,5.0,546.5122169998722,6.0,0.0,part_2,go,300.0,400.0,1.0,,,,,,,,,green,triangle
0.0,3.0,3.0,0.0,6.0,6.0,552.5075420000576,6.0,0.0,part_2,go,300.0,400.0,1.0,,,,,,,,,magenta,I
0.0,3.0,3.0,0.0,5.0,5.0,559.908551999797,6.0,0.0,part_2,go,300.0,400.0,1.0,,,,,,,,,magenta,I
0.0,3.0,3.0,0.0,5.0,5.0,386.5275609996388,6.0,0.0,part_2,go,300.0,400.0,1.0,,,,,,,,,magenta,I
0.0,2.0,2.0,0.0,6.0,6.0,567.3248549992422,6.0,0.0,part_2,go,300.0,400.0,1.0,,,,,,,,,green,triangle
0.0,5.0,1.0,1.0,6.0,6.0,483.7303550002616,7.0,0.0,part_2,go,300.0,400.0,1.0,,,,,,,,,yellow,cross
0.0,6.0,2.0,1.0,6.0,6.0,313.6994219994449,7.0,0.0,part_2,stop,300.0,400.0,3.0,,,,,,,,,blue,circle
0.0,5.0,1.0,1.0,6.0,6.0,304.6947140001066,7.0,0.0,part_2,stop,300.0,350.0,3.0,,,,,,,,,yellow,cross
0.0,2.0,2.0,0.0,5.0,5.0,351.3199660001191,7.0,0.0,part_2,go,300.0,300.0,1.0,,,,,,,,,green,triangle
0.0,8.0,4.0,1.0,6.0,0.0,0.0,7.0,0.0,part_2,stop,300.0,300.0,4.0,,,,,,,,,white,diamond
0.0,5.0,1.0,1.0,6.0,6.0,309.5832570006678,7.0,0.0,part_2,stop,300.0,350.0,3.0,,,,,,,,,yellow,cross
0.0,5.0,1.0,1.0,6.0,6.0,389.3505740006731,7.0,0.0,part_2,stop,300.0,300.0,3.0,,,,,,,,,yellow,cross
0.0,4.0,4.0,0.0,5.0,5.0,424.3963609997081,7.0,0.0,part_2,go,300.0,250.0,1.0,,,,,,,,,cyan,square
0.0,3.0,3.0,0.0,6.0,6.0,477.5019030003022,7.0,0.0,part_2,go,300.0,250.0,1.0,,,,,,,,,magenta,I
0.0,6.0,2.0,1.0,5.0,5.0,348.1297890002679,7.0,0.0,part_2,stop,300.0,250.0,3.0,,,,,,,,,blue,circle
0.0,7.0,3.0,1.0,6.0,6.0,659.428630999173,7.0,0.0,part_2,stop,250.0,250.0,3.0,,,,,,,,,gray,flipped triangle
0.0,4.0,4.0,0.0,6.0,6.0,341.3464420000309,7.0,0.0,part_2,go,250.0,200.0,1.0,,,,,,,,,cyan,square
0.0,8.0,4.0,1.0,5.0,5.0,325.3917800002455,7.0,0.0,part_2,go,250.0,200.0,1.0,,,,,,,,,white,diamond
0.0,6.0,2.0,1.0,5.0,5.0,389.1721669997423,7.0,0.0,part_2,go,250.0,200.0,1.0,,,,,,,,,blue,circle
0.0,1.0,1.0,0.0,5.0,5.0,243.6301200004891,7.0,0.0,part_2,go,250.0,200.0,1.0,,,,,,,,,orange,hexagon
0.0,5.0,1.0,1.0,5.0,5.0,280.4276260003462,7.0,0.0,part_2,stop,250.0,200.0,3.0,,,,,,,,,yellow,cross
0.0,7.0,3.0,1.0,5.0,5.0,320.3459810001732,7.0,0.0,part_2,stop,200.0,200.0,3.0,,,,,,,,,gray,flipped triangle
0.0,6.0,2.0,1.0,5.0,5.0,288.47235000012,7.0,0.0,part_2,go,150.0,200.0,1.0,,,,,,,,,blue,circle
0.0,2.0,2.0,0.0,6.0,6.0,329.6477580006467,7.0,0.0,part_2,go,150.0,200.0,1.0,,,,,,,,,green,triangle
0.0,4.0,4.0,0.0,6.0,6.0,349.5087790006437,7.0,0.0,part_2,go,150.0,200.0,1.0,,,,,,,,,cyan,square
0.0,3.0,3.0,0.0,5.0,6.0,597.9085230001147,7.0,0.0,part_2,go,150.0,200.0,2.0,,,,,,,,,magenta,I
0.0,2.0,2.0,0.0,5.0,5.0,580.4337339995982,7.0,0.0,part_2,go,150.0,200.0,1.0,,,,,,,,,green,triangle
0.0,6.0,2.0,1.0,5.0,0.0,0.0,7.0,0.0,part_2,stop,150.0,200.0,4.0,,,,,,,,,blue,circle
0.0,2.0,2.0,0.0,5.0,5.0,415.6170160003967,7.0,0.0,part_2,go,200.0,200.0,1.0,,,,,,,,,green,triangle
0.0,6.0,2.0,1.0,6.0,6.0,391.0675759998412,7.0,0.0,part_2,stop,200.0,200.0,3.0,,,,,,,,,blue,circle
0.0,7.0,3.0,1.0,6.0,6.0,507.32485100070335,7.0,0.0,part_2,go,200.0,150.0,1.0,,,,,,,,,gray,flipped triangle
0.0,4.0,4.0,0.0,6.0,6.0,524.9226480000289,7.0,0.0,part_2,go,200.0,150.0,1.0,,,,,,,,,cyan,square
0.0,8.0,4.0,1.0,5.0,0.0,0.0,7.0,0.0,part_2,stop,200.0,150.0,4.0,,,,,,,,,white,diamond
0.0,4.0,4.0,0.0,6.0,6.0,498.2667519998358,7.0,0.0,part_2,go,250.0,150.0,1.0,,,,,,,,,cyan,square
0.0,1.0,1.0,0.0,5.0,5.0,610.4983270006414,7.0,0.0,part_2,go,250.0,150.0,1.0,,,,,,,,,orange,hexagon
0.0,7.0,3.0,1.0,6.0,5.0,728.0932519997805,7.0,0.0,part_2,stop,250.0,150.0,3.0,,,,,,,,,gray,flipped triangle
0.0,1.0,1.0,0.0,6.0,6.0,346.2655739995171,7.0,0.0,part_2,go,250.0,100.0,1.0,,,,,,,,,orange,hexagon
0.0,3.0,3.0,0.0,6.0,6.0,377.66016400019,7.0,0.0,part_2,go,250.0,100.0,1.0,,,,,,,,,magenta,I
0.0,4.0,4.0,0.0,5.0,5.0,545.0730799993835,7.0,0.0,part_2,go,250.0,100.0,1.0,,,,,,,,,cyan,square
0.0,3.0,3.0,0.0,6.0,6.0,768.8063049999982,7.0,0.0,part_2,go,250.0,100.0,1.0,,,,,,,,,magenta,I
0.0,4.0,4.0,0.0,6.0,6.0,452.7572549995966,7.0,0.0,part_2,go,250.0,100.0,1.0,,,,,,,,,cyan,square
0.0,6.0,2.0,1.0,5.0,5.0,285.8346040002288,8.0,0.0,part_2,go,250.0,100.0,1.0,,,,,,,,,blue,circle
0.0,3.0,3.0,0.0,5.0,5.0,291.7054819999976,8.0,0.0,part_2,go,250.0,100.0,1.0,,,,,,,,,magenta,I
0.0,6.0,2.0,1.0,5.0,5.0,307.5013030002083,8.0,0.0,part_2,stop,250.0,100.0,3.0,,,,,,,,,blue,circle
0.0,3.0,3.0,0.0,6.0,6.0,640.1792070000738,8.0,0.0,part_2,go,200.0,100.0,1.0,,,,,,,,,magenta,I
0.0,3.0,3.0,0.0,6.0,6.0,321.1916430000201,8.0,0.0,part_2,go,200.0,100.0,1.0,,,,,,,,,magenta,I
0.0,3.0,3.0,0.0,5.0,5.0,223.7540980004269,8.0,0.0,part_2,go,200.0,100.0,1.0,,,,,,,,,magenta,I
0.0,8.0,4.0,1.0,5.0,5.0,489.259325000603,8.0,0.0,part_2,stop,200.0,100.0,3.0,,,,,,,,,white,diamond
0.0,5.0,1.0,1.0,5.0,0.0,0.0,8.0,0.0,part_2,stop,150.0,100.0,4.0,,,,,,,,,yellow,cross
0.0,7.0,3.0,1.0,5.0,0.0,0.0,8.0,0.0,part_2,stop,200.0,100.0,4.0,,,,,,,,,gray,flipped triangle
0.0,1.0,1.0,0.0,6.0,6.0,461.9004750002204,8.0,0.0,part_2,go,250.0,100.0,1.0,,,,,,,,,orange,hexagon
0.0,8.0,4.0,1.0,6.0,6.0,371.9859840002755,8.0,0.0,part_2,go,250.0,100.0,1.0,,,,,,,,,white,diamond
0.0,1.0,1.0,0.0,5.0,5.0,398.2033319998663,8.0,0.0,part_2,go,250.0,100.0,1.0,,,,,,,,,orange,hexagon
0.0,1.0,1.0,0.0,5.0,5.0,542.5733679994664,8.0,0.0,part_2,go,250.0,100.0,1.0,,,,,,,,,orange,hexagon
0.0,2.0,2.0,0.0,5.0,5.0,419.4625300006009,8.0,0.0,part_2,go,250.0,100.0,1.0,,,,,,,,,green,triangle
0.0,2.0,2.0,0.0,6.0,6.0,493.4351510000851,8.0,0.0,part_2,go,250.0,100.0,1.0,,,,,,,,,green,triangle
0.0,1.0,1.0,0.0,6.0,6.0,466.3347080004314,8.0,0.0,part_2,go,250.0,100.0,1.0,,,,,,,,,orange,hexagon
0.0,3.0,3.0,0.0,5.0,5.0,570.7617490006669,8.0,0.0,part_2,go,250.0,100.0,1.0,,,,,,,,,magenta,I
0.0,6.0,2.0,1.0,5.0,5.0,584.4940550005049,8.0,0.0,part_2,go,250.0,100.0,1.0,,,,,,,,,blue,circle
0.0,7.0,3.0,1.0,5.0,0.0,0.0,8.0,0.0,part_2,stop,250.0,100.0,4.0,,,,,,,,,gray,flipped triangle
0.0,1.0,1.0,0.0,5.0,5.0,553.712168999482,8.0,0.0,part_2,go,300.0,100.0,1.0,,,,,,,,,orange,hexagon
0.0,6.0,2.0,1.0,5.0,0.0,0.0,8.0,0.0,part_2,stop,300.0,100.0,4.0,,,,,,,,,blue,circle
0.0,2.0,2.0,0.0,5.0,5.0,544.4412530005138,8.0,0.0,part_2,go,350.0,100.0,1.0,,,,,,,,,green,triangle
0.0,7.0,3.0,1.0,5.0,5.0,493.433167999683,8.0,0.0,part_2,go,350.0,100.0,1.0,,,,,,,,,gray,flipped triangle
0.0,1.0,1.0,0.0,5.0,5.0,541.852401000142,8.0,0.0,part_2,go,350.0,100.0,1.0,,,,,,,,,orange,hexagon
0.0,8.0,4.0,1.0,6.0,6.0,372.6031209998837,8.0,0.0,part_2,go,350.0,100.0,1.0,,,,,,,,,white,diamond
0.0,7.0,3.0,1.0,6.0,6.0,348.2523009997749,8.0,0.0,part_2,stop,350.0,100.0,3.0,,,,,,,,,gray,flipped triangle
0.0,7.0,3.0,1.0,6.0,6.0,382.9042000006666,8.0,0.0,part_2,stop,350.0,50.0,3.0,,,,,,,,,gray,flipped triangle
0.0,2.0,2.0,0.0,6.0,6.0,491.5637750000314,8.0,0.0,part_2,go,350.0,0.0,1.0,,,,,,,,,green,triangle
0.0,7.0,3.0,1.0,5.0,5.0,298.5690040004556,8.0,0.0,part_2,stop,350.0,0.0,3.0,,,,,,,,,gray,flipped triangle
0.0,4.0,4.0,0.0,5.0,5.0,387.792938999155,8.0,0.0,part_2,go,300.0,0.0,1.0,,,,,,,,,cyan,square
0.0,5.0,1.0,1.0,6.0,6.0,321.7885209996893,8.0,0.0,part_2,stop,300.0,0.0,3.0,,,,,,,,,yellow,cross
0.0,2.0,2.0,0.0,6.0,6.0,387.2036110005865,8.0,0.0,part_2,go,300.0,0.0,1.0,,,,,,,,,green,triangle
0.0,2.0,2.0,0.0,5.0,5.0,329.0395129997705,8.0,0.0,part_2,go,300.0,0.0,1.0,,,,,,,,,green,triangle
0.0,6.0,2.0,1.0,6.0,6.0,504.59357899944735,8.0,0.0,part_2,stop,300.0,0.0,3.0,,,,,,,,,blue,circle
0.0,7.0,3.0,1.0,5.0,5.0,415.8861669993712,8.0,0.0,part_2,stop,300.0,0.0,3.0,,,,,,,,,gray,flipped triangle
0.0,8.0,4.0,1.0,6.0,6.0,304.4787729995732,8.0,0.0,part_2,stop,250.0,0.0,3.0,,,,,,,,,white,diamond
0.0,8.0,4.0,1.0,7.0,3.0,3539.3558589994427,1.0,2.0,part_3,go,0.0,0.0,0.0,49.0,1.0,147.0,196.0,49.0,294.0,98.0,245.0,white,diamond
0.0,4.0,4.0,0.0,7.0,5.0,3045.9156200004145,1.0,1.0,part_3,go,0.0,0.0,0.0,98.0,2.0,245.0,49.0,147.0,196.0,98.0,294.0,cyan,square
0.0,1.0,1.0,0.0,7.0,6.0,3068.354809000084,1.0,1.0,part_3,go,0.0,0.0,0.0,216.0,4.0,324.0,108.0,162.0,270.0,54.0,216.0,orange,hexagon
0.0,3.0,3.0,0.0,7.0,1.0,2638.2310560002225,1.0,1.0,part_3,go,0.0,0.0,0.0,216.0,4.0,216.0,108.0,270.0,54.0,162.0,324.0,magenta,I
0.0,1.0,1.0,0.0,7.0,2.0,1705.9271059997627,1.0,1.0,part_3,go,0.0,0.0,0.0,220.0,5.0,44.0,220.0,176.0,132.0,88.0,264.0,orange,hexagon
0.0,8.0,4.0,1.0,7.0,5.0,2922.661472999607,1.0,1.0,part_3,go,0.0,0.0,0.0,132.0,3.0,264.0,220.0,44.0,88.0,132.0,176.0,white,diamond
0.0,6.0,2.0,1.0,7.0,1.0,2874.348841000028,1.0,1.0,part_3,go,0.0,0.0,0.0,176.0,4.0,176.0,44.0,88.0,220.0,264.0,132.0,blue,circle
0.0,5.0,1.0,1.0,7.0,4.0,3147.5235269999757,1.0,1.0,part_3,go,0.0,0.0,0.0,136.0,4.0,170.0,204.0,68.0,136.0,102.0,34.0,yellow,cross
0.0,2.0,2.0,0.0,7.0,1.0,2524.858513000254,1.0,1.0,part_3,go,0.0,0.0,0.0,88.0,2.0,88.0,132.0,176.0,44.0,220.0,264.0,green,triangle
0.0,6.0,2.0,1.0,7.0,2.0,3448.4888709994266,1.0,1.0,part_3,go,0.0,0.0,0.0,44.0,1.0,220.0,44.0,264.0,176.0,132.0,88.0,blue,circle
0.0,2.0,2.0,0.0,7.0,5.0,3471.560461000081,1.0,1.0,part_3,go,0.0,0.0,0.0,324.0,6.0,162.0,216.0,270.0,54.0,324.0,108.0,green,triangle
0.0,2.0,2.0,0.0,7.0,4.0,3291.264016000241,1.0,1.0,part_3,go,0.0,0.0,0.0,102.0,3.0,170.0,68.0,204.0,102.0,34.0,136.0,green,triangle
0.0,8.0,4.0,1.0,7.0,2.0,1933.8239529997736,1.0,1.0,part_3,go,0.0,0.0,0.0,264.0,6.0,176.0,264.0,88.0,44.0,132.0,220.0,white,diamond
0.0,5.0,1.0,1.0,7.0,3.0,1868.510676999904,1.0,1.0,part_3,go,0.0,0.0,0.0,264.0,6.0,132.0,176.0,264.0,220.0,44.0,88.0,yellow,cross
0.0,2.0,2.0,0.0,7.0,4.0,3077.1080369995616,1.0,1.0,part_3,go,0.0,0.0,0.0,270.0,5.0,108.0,216.0,162.0,270.0,324.0,54.0,green,triangle
0.0,7.0,3.0,1.0,7.0,5.0,2943.1241980000777,1.0,1.0,part_3,go,0.0,0.0,0.0,176.0,4.0,220.0,44.0,88.0,264.0,176.0,132.0,gray,flipped triangle
0.0,4.0,4.0,0.0,7.0,5.0,2040.201609000178,1.0,1.0,part_3,go,0.0,0.0,0.0,170.0,5.0,204.0,34.0,136.0,68.0,170.0,102.0,cyan,square
0.0,7.0,3.0,1.0,7.0,5.0,1794.4626549997338,1.0,1.0,part_3,go,0.0,0.0,0.0,132.0,3.0,220.0,264.0,44.0,176.0,132.0,88.0,gray,flipped triangle
0.0,5.0,1.0,1.0,7.0,2.0,2493.953569999576,1.0,1.0,part_3,go,0.0,0.0,0.0,147.0,3.0,98.0,147.0,294.0,196.0,49.0,245.0,yellow,cross
0.0,2.0,2.0,0.0,7.0,5.0,3229.421595000531,1.0,1.0,part_3,go,0.0,0.0,0.0,147.0,3.0,245.0,196.0,294.0,49.0,147.0,98.0,green,triangle
0.0,2.0,2.0,0.0,7.0,3.0,2545.068985999933,2.0,1.0,part_3,go,0.0,0.0,0.0,156.0,4.0,78.0,117.0,156.0,39.0,195.0,234.0,green,triangle
0.0,8.0,4.0,1.0,7.0,4.0,2451.9008650004253,2.0,1.0,part_3,go,0.0,0.0,0.0,170.0,5.0,34.0,102.0,136.0,170.0,68.0,204.0,white,diamond
0.0,2.0,2.0,0.0,7.0,2.0,3126.651006999964,2.0,1.0,part_3,go,0.0,0.0,0.0,234.0,6.0,156.0,234.0,39.0,195.0,117.0,78.0,green,triangle
0.0,4.0,4.0,0.0,7.0,5.0,2836.043033000351,2.0,1.0,part_3,go,0.0,0.0,0.0,195.0,5.0,117.0,78.0,234.0,39.0,195.0,156.0,cyan,square
0.0,4.0,4.0,0.0,7.0,4.0,2405.3365210002084,2.0,1.0,part_3,go,0.0,0.0,0.0,294.0,6.0,196.0,245.0,49.0,294.0,98.0,147.0,cyan,square
0.0,7.0,3.0,1.0,7.0,5.0,2706.0227960000702,2.0,1.0,part_3,go,0.0,0.0,0.0,270.0,5.0,162.0,54.0,324.0,108.0,270.0,216.0,gray,flipped triangle
0.0,6.0,2.0,1.0,7.0,4.0,2753.9894319997984,2.0,1.0,part_3,go,0.0,0.0,0.0,294.0,6.0,147.0,98.0,49.0,294.0,245.0,196.0,blue,circle
0.0,1.0,1.0,0.0,7.0,4.0,1876.3030079999223,2.0,1.0,part_3,go,0.0,0.0,0.0,54.0,1.0,216.0,108.0,270.0,54.0,324.0,162.0,orange,hexagon
0.0,6.0,2.0,1.0,7.0,2.0,2204.187794000063,2.0,1.0,part_3,go,0.0,0.0,0.0,39.0,1.0,195.0,39.0,156.0,117.0,78.0,234.0,blue,circle
0.0,3.0,3.0,0.0,7.0,3.0,2558.5987949998525,2.0,1.0,part_3,go,0.0,0.0,0.0,264.0,6.0,220.0,88.0,264.0,44.0,176.0,132.0,magenta,I
0.0,8.0,4.0,1.0,7.0,2.0,2511.1318350000147,2.0,1.0,part_3,go,0.0,0.0,0.0,156.0,4.0,234.0,156.0,195.0,78.0,117.0,39.0,white,diamond
0.0,3.0,3.0,0.0,7.0,4.0,1767.041101000359,2.0,1.0,part_3,go,0.0,0.0,0.0,294.0,6.0,196.0,147.0,49.0,294.0,98.0,245.0,magenta,I
0.0,8.0,4.0,1.0,7.0,3.0,2643.9110410001376,2.0,1.0,part_3,go,0.0,0.0,0.0,204.0,6.0,136.0,102.0,204.0,68.0,34.0,170.0,white,diamond
0.0,3.0,3.0,0.0,7.0,1.0,1754.3533139996723,2.0,1.0,part_3,go,0.0,0.0,0.0,204.0,6.0,204.0,170.0,136.0,34.0,102.0,68.0,magenta,I
0.0,7.0,3.0,1.0,7.0,5.0,2676.1334790007822,2.0,1.0,part_3,go,0.0,0.0,0.0,170.0,5.0,68.0,34.0,136.0,102.0,170.0,204.0,gray,flipped triangle
0.0,6.0,2.0,1.0,7.0,6.0,2510.641709000083,2.0,1.0,part_3,go,0.0,0.0,0.0,204.0,6.0,170.0,102.0,68.0,136.0,34.0,204.0,blue,circle
0.0,3.0,3.0,0.0,7.0,3.0,2966.436361999513,2.0,1.0,part_3,go,0.0,0.0,0.0,176.0,4.0,220.0,132.0,176.0,44.0,88.0,264.0,magenta,I
0.0,1.0,1.0,0.0,7.0,5.0,1945.210247000432,2.0,1.0,part_3,go,0.0,0.0,0.0,117.0,3.0,195.0,39.0,234.0,156.0,117.0,78.0,orange,hexagon
0.0,1.0,1.0,0.0,7.0,2.0,2969.283505999556,2.0,1.0,part_3,go,0.0,0.0,0.0,102.0,3.0,68.0,102.0,34.0,136.0,170.0,204.0,orange,hexagon
0.0,3.0,3.0,0.0,7.0,6.0,2709.456118000162,2.0,1.0,part_3,go,0.0,0.0,0.0,147.0,3.0,294.0,196.0,245.0,98.0,49.0,147.0,magenta,I
0.0,8.0,4.0,1.0,7.0,3.0,900.2718010005992,3.0,1.0,part_3,go,0.0,0.0,0.0,270.0,5.0,216.0,324.0,270.0,162.0,108.0,54.0,white,diamond
0.0,6.0,2.0,1.0,7.0,5.0,1465.2269649996017,3.0,1.0,part_3,go,0.0,0.0,0.0,39.0,1.0,117.0,156.0,78.0,195.0,39.0,234.0,blue,circle
0.0,5.0,1.0,1.0,7.0,3.0,1537.394253000457,3.0,1.0,part_3,go,0.0,0.0,0.0,216.0,4.0,54.0,270.0,216.0,108.0,162.0,324.0,yellow,cross
0.0,4.0,4.0,0.0,7.0,4.0,1666.9356350003,3.0,1.0,part_3,go,0.0,0.0,0.0,204.0,6.0,136.0,68.0,102.0,204.0,34.0,170.0,cyan,square
0.0,6.0,2.0,1.0,7.0,1.0,1634.1879290002908,3.0,1.0,part_3,go,0.0,0.0,0.0,294.0,6.0,294.0,98.0,49.0,245.0,196.0,147.0,blue,circle
0.0,1.0,1.0,0.0,7.0,2.0,1644.176482000148,3.0,1.0,part_3,go,0.0,0.0,0.0,220.0,5.0,176.0,220.0,264.0,44.0,88.0,132.0,orange,hexagon
0.0,7.0,3.0,1.0,7.0,5.0,2263.5957000002236,3.0,1.0,part_3,go,0.0,0.0,0.0,234.0,6.0,156.0,195.0,39.0,117.0,234.0,78.0,gray,flipped triangle
0.0,7.0,3.0,1.0,7.0,3.0,3456.9733980006276,3.0,1.0,part_3,go,0.0,0.0,0.0,245.0,5.0,196.0,49.0,245.0,98.0,294.0,147.0,gray,flipped triangle
0.0,2.0,2.0,0.0,7.0,3.0,3057.530117999704,3.0,1.0,part_3,go,0.0,0.0,0.0,132.0,3.0,44.0,88.0,132.0,264.0,220.0,176.0,green,triangle
0.0,4.0,4.0,0.0,7.0,4.0,3392.987539999922,3.0,1.0,part_3,go,0.0,0.0,0.0,195.0,5.0,156.0,234.0,117.0,195.0,39.0,78.0,cyan,square
0.0,7.0,3.0,1.0,7.0,6.0,2883.017318999918,3.0,1.0,part_3,go,0.0,0.0,0.0,204.0,6.0,102.0,136.0,170.0,68.0,34.0,204.0,gray,flipped triangle
0.0,7.0,3.0,1.0,7.0,2.0,2828.0794510001215,3.0,1.0,part_3,go,0.0,0.0,0.0,195.0,5.0,39.0,195.0,156.0,78.0,117.0,234.0,gray,flipped triangle
0.0,5.0,1.0,1.0,7.0,3.0,1751.8466130004526,3.0,1.0,part_3,go,0.0,0.0,0.0,136.0,4.0,204.0,102.0,136.0,68.0,34.0,170.0,yellow,cross
0.0,1.0,1.0,0.0,7.0,4.0,2264.537001000462,3.0,1.0,part_3,go,0.0,0.0,0.0,147.0,3.0,294.0,98.0,49.0,147.0,245.0,196.0,orange,hexagon
0.0,4.0,4.0,0.0,7.0,4.0,2259.8876579995704,3.0,1.0,part_3,go,0.0,0.0,0.0,216.0,4.0,324.0,54.0,108.0,216.0,270.0,162.0,cyan,square
0.0,2.0,2.0,0.0,7.0,4.0,1763.9151900002616,3.0,1.0,part_3,go,0.0,0.0,0.0,196.0,4.0,245.0,147.0,294.0,196.0,98.0,49.0,green,triangle
0.0,1.0,1.0,0.0,7.0,5.0,1714.7733110004992,3.0,1.0,part_3,go,0.0,0.0,0.0,294.0,6.0,49.0,98.0,245.0,196.0,294.0,147.0,orange,hexagon
0.0,8.0,4.0,1.0,7.0,2.0,2174.7962639992693,3.0,1.0,part_3,go,0.0,0.0,0.0,245.0,5.0,98.0,245.0,147.0,49.0,196.0,294.0,white,diamond
0.0,4.0,4.0,0.0,7.0,2.0,2408.5103469997193,3.0,1.0,part_3,go,0.0,0.0,0.0,220.0,5.0,88.0,220.0,44.0,132.0,176.0,264.0,cyan,square
0.0,4.0,4.0,0.0,7.0,5.0,1650.714956000229,3.0,1.0,part_3,go,0.0,0.0,0.0,216.0,4.0,54.0,270.0,162.0,108.0,216.0,324.0,cyan,square
0.0,6.0,2.0,1.0,7.0,4.0,1824.156711998512,4.0,1.0,part_3,go,0.0,0.0,0.0,108.0,2.0,162.0,324.0,54.0,108.0,216.0,270.0,blue,circle
0.0,5.0,1.0,1.0,7.0,5.0,2408.669980999548,4.0,1.0,part_3,go,0.0,0.0,0.0,264.0,6.0,132.0,44.0,176.0,88.0,264.0,220.0,yellow,cross
0.0,3.0,3.0,0.0,7.0,6.0,2140.4238420000183,4.0,1.0,part_3,go,0.0,0.0,0.0,117.0,3.0,195.0,39.0,234.0,78.0,156.0,117.0,magenta,I
0.0,3.0,3.0,0.0,7.0,5.0,2342.850000999533,4.0,1.0,part_3,go,0.0,0.0,0.0,195.0,5.0,78.0,117.0,156.0,39.0,195.0,234.0,magenta,I
0.0,1.0,1.0,0.0,7.0,1.0,2524.883054999009,4.0,1.0,part_3,go,0.0,0.0,0.0,156.0,4.0,156.0,195.0,234.0,117.0,78.0,39.0,orange,hexagon
0.0,4.0,4.0,0.0,7.0,3.0,1792.420616000527,4.0,1.0,part_3,go,0.0,0.0,0.0,264.0,6.0,220.0,176.0,264.0,132.0,88.0,44.0,cyan,square
0.0,6.0,2.0,1.0,7.0,2.0,1795.498225999836,4.0,1.0,part_3,go,0.0,0.0,0.0,34.0,1.0,136.0,34.0,68.0,102.0,204.0,170.0,blue,circle
0.0,3.0,3.0,0.0,7.0,6.0,1088.8448440000502,4.0,1.0,part_3,go,0.0,0.0,0.0,324.0,6.0,270.0,108.0,216.0,54.0,162.0,324.0,magenta,I
0.0,5.0,1.0,1.0,7.0,3.0,1370.5912949990309,4.0,1.0,part_3,go,0.0,0.0,0.0,196.0,4.0,49.0,98.0,196.0,147.0,245.0,294.0,yellow,cross
0.0,5.0,1.0,1.0,7.0,4.0,1460.7437340000615,4.0,1.0,part_3,go,0.0,0.0,0.0,324.0,6.0,54.0,162.0,108.0,324.0,270.0,216.0,yellow,cross
0.0,8.0,4.0,1.0,7.0,5.0,821.0983879998821,4.0,1.0,part_3,go,0.0,0.0,0.0,234.0,6.0,78.0,156.0,39.0,117.0,234.0,195.0,white,diamond
0.0,3.0,3.0,0.0,7.0,6.0,1471.262757999284,4.0,1.0,part_3,go,0.0,0.0,0.0,204.0,6.0,136.0,170.0,68.0,102.0,34.0,204.0,magenta,I
0.0,1.0,1.0,0.0,7.0,5.0,2832.66845199978,4.0,1.0,part_3,go,0.0,0.0,0.0,204.0,6.0,34.0,136.0,102.0,68.0,204.0,170.0,orange,hexagon
0.0,5.0,1.0,1.0,7.0,4.0,1611.9716860011977,4.0,1.0,part_3,go,0.0,0.0,0.0,234.0,6.0,117.0,195.0,156.0,234.0,39.0,78.0,yellow,cross
0.0,6.0,2.0,1.0,7.0,1.0,1962.6083860002836,4.0,1.0,part_3,go,0.0,0.0,0.0,324.0,6.0,324.0,216.0,54.0,162.0,108.0,270.0,blue,circle
0.0,7.0,3.0,1.0,7.0,5.0,3384.20266400135,4.0,1.0,part_3,go,0.0,0.0,0.0,324.0,6.0,54.0,162.0,270.0,108.0,324.0,216.0,gray,flipped triangle
0.0,8.0,4.0,1.0,7.0,3.0,2648.544710000351,4.0,1.0,part_3,go,0.0,0.0,0.0,270.0,5.0,108.0,54.0,270.0,162.0,324.0,216.0,white,diamond
0.0,7.0,3.0,1.0,7.0,6.0,1457.5941000002786,4.0,1.0,part_3,go,0.0,0.0,0.0,245.0,5.0,147.0,196.0,294.0,49.0,98.0,245.0,gray,flipped triangle
0.0,5.0,1.0,1.0,7.0,5.0,2056.7202210004325,4.0,1.0,part_3,go,0.0,0.0,0.0,234.0,6.0,39.0,195.0,117.0,156.0,234.0,78.0,yellow,cross
0.0,2.0,2.0,0.0,7.0,6.0,1043.6586190007802,4.0,1.0,part_3,go,0.0,0.0,0.0,136.0,4.0,34.0,204.0,170.0,102.0,68.0,136.0,green,triangle
