raw_reward_magnitude,stim_reward,stepwise_reward_magnitude,paired_with_stopping,stim_location,response,reaction_time,block,num_trial_presentations,which_phase,stop_signal_trial_type,left_SSD,right_SSD,accuracy,chosen_bidding_amount,chosen_bidding_level,possible_bid_1,possible_bid_2,possible_bid_3,possible_bid_4,possible_bid_5,possible_bid_6,color_text,shape_text
193.0,7.0,2.0,1.0,1.0,1.0,525.0644350000186,1.0,1.0,phase_1,,,,,,,,,,,,,yellow,triangle
30.0,1.0,0.5,0.0,1.0,1.0,386.9664500000169,1.0,1.0,phase_1,,,,,,,,,,,,,cyan,circle
116.0,2.0,1.0,0.0,4.0,4.0,325.642954999978,1.0,1.0,phase_1,,,,,,,,,,,,,blue,hexagon
203.0,3.0,2.0,0.0,3.0,3.0,318.4448760000009,1.0,1.0,phase_1,,,,,,,,,,,,,gray,cross
41.0,1.0,0.5,0.0,2.0,2.0,374.5143919999805,1.0,1.0,phase_1,,,,,,,,,,,,,cyan,circle
36.0,1.0,0.5,0.0,3.0,3.0,326.2852510000016,1.0,1.0,phase_1,,,,,,,,,,,,,cyan,circle
183.0,7.0,2.0,1.0,1.0,1.0,643.2762740000157,1.0,1.0,phase_1,,,,,,,,,,,,,yellow,triangle
0.0,7.0,0.0,1.0,3.0,3.0,400.7862859999989,1.0,1.0,phase_1,,,,,,,,,,,,,yellow,triangle
385.0,4.0,4.0,0.0,3.0,3.0,402.3083459999839,1.0,1.0,phase_1,,,,,,,,,,,,,green,square
200.0,7.0,2.0,1.0,2.0,2.0,383.1446670000105,1.0,1.0,phase_1,,,,,,,,,,,,,yellow,triangle
0.0,5.0,0.0,1.0,1.0,1.0,486.2333560000138,1.0,1.0,phase_1,,,,,,,,,,,,,orange,diamond
188.0,3.0,2.0,0.0,2.0,2.0,737.3390449999988,1.0,1.0,phase_1,,,,,,,,,,,,,gray,cross
0.0,2.0,0.0,0.0,3.0,3.0,436.2025430000074,1.0,1.0,phase_1,,,,,,,,,,,,,blue,hexagon
48.0,5.0,0.5,1.0,4.0,4.0,378.2764130000089,1.0,1.0,phase_1,,,,,,,,,,,,,orange,diamond
33.0,5.0,0.5,1.0,3.0,3.0,536.1312569999939,1.0,1.0,phase_1,,,,,,,,,,,,,orange,diamond
0.0,7.0,0.0,1.0,4.0,4.0,484.3759629999908,1.0,1.0,phase_1,,,,,,,,,,,,,yellow,triangle
81.0,6.0,1.0,1.0,4.0,4.0,402.8365750000091,1.0,1.0,phase_1,,,,,,,,,,,,,magenta,I
216.0,3.0,2.0,0.0,3.0,3.0,670.6275989999995,1.0,1.0,phase_1,,,,,,,,,,,,,gray,cross
48.0,1.0,0.5,0.0,3.0,3.0,480.2598239999724,1.0,1.0,phase_1,,,,,,,,,,,,,cyan,circle
0.0,8.0,0.0,1.0,2.0,2.0,568.1674820000069,1.0,1.0,phase_1,,,,,,,,,,,,,white,flipped triangle
179.0,3.0,2.0,0.0,3.0,3.0,419.5741080000061,1.0,1.0,phase_1,,,,,,,,,,,,,gray,cross
124.0,2.0,1.0,0.0,2.0,2.0,542.1032859999855,1.0,1.0,phase_1,,,,,,,,,,,,,blue,hexagon
125.0,2.0,1.0,0.0,1.0,1.0,420.7342210000035,1.0,1.0,phase_1,,,,,,,,,,,,,blue,hexagon
46.0,5.0,0.5,1.0,4.0,4.0,487.8418399999873,1.0,1.0,phase_1,,,,,,,,,,,,,orange,diamond
377.0,4.0,4.0,0.0,2.0,2.0,520.5038779999995,1.0,1.0,phase_1,,,,,,,,,,,,,green,square
0.0,8.0,0.0,1.0,3.0,3.0,564.8193929999934,1.0,1.0,phase_1,,,,,,,,,,,,,white,flipped triangle
61.0,5.0,0.5,1.0,4.0,4.0,546.2329199999942,1.0,1.0,phase_1,,,,,,,,,,,,,orange,diamond
212.0,3.0,2.0,0.0,4.0,4.0,492.8256279999914,1.0,1.0,phase_1,,,,,,,,,,,,,gray,cross
0.0,4.0,0.0,0.0,4.0,4.0,441.7596859999833,1.0,1.0,phase_1,,,,,,,,,,,,,green,square
420.0,8.0,4.0,1.0,1.0,1.0,438.4280840000087,1.0,1.0,phase_1,,,,,,,,,,,,,white,flipped triangle
115.0,6.0,1.0,1.0,3.0,3.0,480.8307689999935,1.0,1.0,phase_1,,,,,,,,,,,,,magenta,I
203.0,7.0,2.0,1.0,3.0,3.0,607.3882149999861,1.0,1.0,phase_1,,,,,,,,,,,,,yellow,triangle
381.0,4.0,4.0,0.0,4.0,4.0,362.2799310000175,1.0,1.0,phase_1,,,,,,,,,,,,,green,square
0.0,5.0,0.0,1.0,1.0,1.0,546.1042899999882,1.0,1.0,phase_1,,,,,,,,,,,,,orange,diamond
420.0,8.0,4.0,1.0,3.0,3.0,507.3433000000023,1.0,1.0,phase_1,,,,,,,,,,,,,white,flipped triangle
424.0,8.0,4.0,1.0,3.0,3.0,403.4170050000227,1.0,1.0,phase_1,,,,,,,,,,,,,white,flipped triangle
212.0,7.0,2.0,1.0,2.0,2.0,447.2956439999791,1.0,1.0,phase_1,,,,,,,,,,,,,yellow,triangle
72.0,1.0,0.5,0.0,2.0,2.0,364.6794640000053,1.0,1.0,phase_1,,,,,,,,,,,,,cyan,circle
61.0,1.0,0.5,0.0,2.0,2.0,465.9501209999916,1.0,1.0,phase_1,,,,,,,,,,,,,cyan,circle
377.0,8.0,4.0,1.0,4.0,4.0,485.2187409999828,1.0,1.0,phase_1,,,,,,,,,,,,,white,flipped triangle
123.0,2.0,1.0,0.0,1.0,1.0,488.4636069999999,1.0,1.0,phase_1,,,,,,,,,,,,,blue,hexagon
69.0,1.0,0.5,0.0,3.0,3.0,397.7466739999897,1.0,1.0,phase_1,,,,,,,,,,,,,cyan,circle
107.0,2.0,1.0,0.0,2.0,2.0,434.4952380000109,1.0,1.0,phase_1,,,,,,,,,,,,,blue,hexagon
217.0,3.0,2.0,0.0,2.0,2.0,573.8517489999708,1.0,1.0,phase_1,,,,,,,,,,,,,gray,cross
0.0,8.0,0.0,1.0,2.0,2.0,482.5416240000209,1.0,1.0,phase_1,,,,,,,,,,,,,white,flipped triangle
187.0,7.0,2.0,1.0,2.0,2.0,535.1036409999779,1.0,1.0,phase_1,,,,,,,,,,,,,yellow,triangle
407.0,8.0,4.0,1.0,2.0,2.0,492.5327469999843,1.0,1.0,phase_1,,,,,,,,,,,,,white,flipped triangle
206.0,7.0,2.0,1.0,4.0,4.0,395.9945849999826,1.0,1.0,phase_1,,,,,,,,,,,,,yellow,triangle
45.0,5.0,0.5,1.0,4.0,4.0,421.6984889999935,1.0,1.0,phase_1,,,,,,,,,,,,,orange,diamond
103.0,6.0,1.0,1.0,3.0,3.0,433.817246999979,1.0,1.0,phase_1,,,,,,,,,,,,,magenta,I
0.0,6.0,0.0,1.0,1.0,1.0,495.9038339999893,1.0,1.0,phase_1,,,,,,,,,,,,,magenta,I
111.0,2.0,1.0,0.0,3.0,3.0,666.8550709999863,1.0,2.0,phase_1,,,,,,,,,,,,,blue,hexagon
62.0,5.0,0.5,1.0,2.0,2.0,550.6260259999749,1.0,1.0,phase_1,,,,,,,,,,,,,orange,diamond
45.0,1.0,0.5,0.0,3.0,3.0,378.1205149999778,1.0,1.0,phase_1,,,,,,,,,,,,,cyan,circle
385.0,4.0,4.0,0.0,2.0,2.0,374.0096409999864,1.0,1.0,phase_1,,,,,,,,,,,,,green,square
97.0,2.0,1.0,0.0,2.0,2.0,468.0860189999976,1.0,1.0,phase_1,,,,,,,,,,,,,blue,hexagon
93.0,6.0,1.0,1.0,1.0,1.0,697.8102440000384,1.0,1.0,phase_1,,,,,,,,,,,,,magenta,I
396.0,8.0,4.0,1.0,2.0,2.0,718.7607649999563,1.0,1.0,phase_1,,,,,,,,,,,,,white,flipped triangle
0.0,7.0,0.0,1.0,1.0,1.0,472.485244999973,1.0,1.0,phase_1,,,,,,,,,,,,,yellow,triangle
224.0,3.0,2.0,0.0,1.0,1.0,495.5893640000113,1.0,1.0,phase_1,,,,,,,,,,,,,gray,cross
406.0,8.0,4.0,1.0,1.0,1.0,433.9087239999912,1.0,1.0,phase_1,,,,,,,,,,,,,white,flipped triangle
0.0,7.0,0.0,1.0,3.0,3.0,578.3591339999816,1.0,1.0,phase_1,,,,,,,,,,,,,yellow,triangle
386.0,4.0,4.0,0.0,3.0,3.0,483.5063329999798,1.0,1.0,phase_1,,,,,,,,,,,,,green,square
195.0,7.0,2.0,1.0,2.0,2.0,394.6271140000021,1.0,1.0,phase_1,,,,,,,,,,,,,yellow,triangle
403.0,4.0,4.0,0.0,2.0,2.0,351.9381529999918,1.0,1.0,phase_1,,,,,,,,,,,,,green,square
414.0,8.0,4.0,1.0,2.0,2.0,444.4349839999972,1.0,1.0,phase_1,,,,,,,,,,,,,white,flipped triangle
87.0,2.0,1.0,0.0,4.0,4.0,359.2203380000001,1.0,1.0,phase_1,,,,,,,,,,,,,blue,hexagon
396.0,8.0,4.0,1.0,4.0,4.0,412.7001960000029,1.0,1.0,phase_1,,,,,,,,,,,,,white,flipped triangle
424.0,4.0,4.0,0.0,2.0,2.0,329.8038190000056,1.0,1.0,phase_1,,,,,,,,,,,,,green,square
394.0,4.0,4.0,0.0,2.0,2.0,316.4096309999991,1.0,1.0,phase_1,,,,,,,,,,,,,green,square
392.0,8.0,4.0,1.0,3.0,3.0,564.7680509999873,1.0,1.0,phase_1,,,,,,,,,,,,,white,flipped triangle
66.0,1.0,0.5,0.0,3.0,3.0,415.2373669999747,1.0,1.0,phase_1,,,,,,,,,,,,,cyan,circle
0.0,7.0,0.0,1.0,2.0,2.0,365.3155509999806,1.0,1.0,phase_1,,,,,,,,,,,,,yellow,triangle
215.0,7.0,2.0,1.0,1.0,1.0,398.641385000019,1.0,1.0,phase_1,,,,,,,,,,,,,yellow,triangle
100.0,2.0,1.0,0.0,3.0,3.0,572.5291470000116,1.0,1.0,phase_1,,,,,,,,,,,,,blue,hexagon
33.0,1.0,0.5,0.0,2.0,2.0,387.205893999976,1.0,1.0,phase_1,,,,,,,,,,,,,cyan,circle
0.0,5.0,0.0,1.0,1.0,1.0,533.8919069999974,1.0,1.0,phase_1,,,,,,,,,,,,,orange,diamond
0.0,2.0,0.0,0.0,2.0,2.0,490.4227139999761,1.0,1.0,phase_1,,,,,,,,,,,,,blue,hexagon
100.0,6.0,1.0,1.0,2.0,2.0,417.1838099999831,1.0,1.0,phase_1,,,,,,,,,,,,,magenta,I
85.0,2.0,1.0,0.0,1.0,1.0,422.2560729999713,1.0,1.0,phase_1,,,,,,,,,,,,,blue,hexagon
381.0,8.0,4.0,1.0,1.0,1.0,411.8490189999875,1.0,1.0,phase_1,,,,,,,,,,,,,white,flipped triangle
30.0,1.0,0.5,0.0,2.0,2.0,500.33240800001977,1.0,1.0,phase_1,,,,,,,,,,,,,cyan,circle
76.0,2.0,1.0,0.0,2.0,2.0,348.2936139999992,1.0,1.0,phase_1,,,,,,,,,,,,,blue,hexagon
114.0,6.0,1.0,1.0,1.0,1.0,513.0178250000199,1.0,1.0,phase_1,,,,,,,,,,,,,magenta,I
409.0,4.0,4.0,0.0,4.0,4.0,404.3819070000154,1.0,1.0,phase_1,,,,,,,,,,,,,green,square
180.0,3.0,2.0,0.0,2.0,2.0,434.3931020000013,1.0,1.0,phase_1,,,,,,,,,,,,,gray,cross
85.0,6.0,1.0,1.0,2.0,2.0,622.8243510000198,1.0,1.0,phase_1,,,,,,,,,,,,,magenta,I
45.0,1.0,0.5,0.0,1.0,1.0,448.6314760000027,1.0,1.0,phase_1,,,,,,,,,,,,,cyan,circle
114.0,2.0,1.0,0.0,3.0,3.0,340.903451000031,1.0,2.0,phase_1,,,,,,,,,,,,,blue,hexagon
61.0,5.0,0.5,1.0,1.0,1.0,606.2283019999768,1.0,1.0,phase_1,,,,,,,,,,,,,orange,diamond
0.0,8.0,0.0,1.0,4.0,4.0,567.0461980000141,1.0,1.0,phase_1,,,,,,,,,,,,,white,flipped triangle
213.0,3.0,2.0,0.0,3.0,3.0,528.2154089999835,1.0,1.0,phase_1,,,,,,,,,,,,,gray,cross
0.0,8.0,0.0,1.0,2.0,2.0,574.6097859999963,1.0,1.0,phase_1,,,,,,,,,,,,,white,flipped triangle
83.0,2.0,1.0,0.0,2.0,2.0,482.0104449999576,1.0,1.0,phase_1,,,,,,,,,,,,,blue,hexagon
200.0,3.0,2.0,0.0,1.0,1.0,465.1056160000166,1.0,1.0,phase_1,,,,,,,,,,,,,gray,cross
61.0,1.0,0.5,0.0,2.0,2.0,394.88338900002867,1.0,1.0,phase_1,,,,,,,,,,,,,cyan,circle
90.0,6.0,1.0,1.0,1.0,1.0,512.0655329999977,1.0,1.0,phase_1,,,,,,,,,,,,,magenta,I
0.0,5.0,0.0,1.0,2.0,2.0,444.713886000045,1.0,1.0,phase_1,,,,,,,,,,,,,orange,diamond
199.0,7.0,2.0,1.0,3.0,3.0,412.4639240000078,1.0,1.0,phase_1,,,,,,,,,,,,,yellow,triangle
392.0,4.0,4.0,0.0,1.0,1.0,590.3442190000305,1.0,1.0,phase_1,,,,,,,,,,,,,green,square
119.0,2.0,1.0,0.0,1.0,1.0,516.2505679999754,2.0,1.0,phase_1,,,,,,,,,,,,,blue,hexagon
0.0,6.0,0.0,1.0,1.0,1.0,312.4396660000457,2.0,1.0,phase_1,,,,,,,,,,,,,magenta,I
0.0,2.0,0.0,0.0,1.0,1.0,413.8042490000089,2.0,1.0,phase_1,,,,,,,,,,,,,blue,hexagon
91.0,6.0,1.0,1.0,3.0,3.0,449.1618239999866,2.0,1.0,phase_1,,,,,,,,,,,,,magenta,I
0.0,2.0,0.0,0.0,3.0,3.0,437.9047779999609,2.0,1.0,phase_1,,,,,,,,,,,,,blue,hexagon
188.0,7.0,2.0,1.0,3.0,3.0,424.8114999999757,2.0,1.0,phase_1,,,,,,,,,,,,,yellow,triangle
0.0,3.0,0.0,0.0,2.0,2.0,494.8548539999819,2.0,1.0,phase_1,,,,,,,,,,,,,gray,cross
44.0,1.0,0.5,0.0,2.0,2.0,497.5822739999671,2.0,1.0,phase_1,,,,,,,,,,,,,cyan,circle
204.0,7.0,2.0,1.0,2.0,2.0,591.1825969999995,2.0,1.0,phase_1,,,,,,,,,,,,,yellow,triangle
390.0,8.0,4.0,1.0,1.0,1.0,659.6329280000077,2.0,1.0,phase_1,,,,,,,,,,,,,white,flipped triangle
188.0,3.0,2.0,0.0,3.0,3.0,483.026561000031,2.0,1.0,phase_1,,,,,,,,,,,,,gray,cross
118.0,2.0,1.0,0.0,3.0,3.0,543.9731660000007,2.0,1.0,phase_1,,,,,,,,,,,,,blue,hexagon
0.0,3.0,0.0,0.0,2.0,2.0,380.769454000017,2.0,1.0,phase_1,,,,,,,,,,,,,gray,cross
199.0,7.0,2.0,1.0,2.0,2.0,533.2833389999792,2.0,1.0,phase_1,,,,,,,,,,,,,yellow,triangle
61.0,5.0,0.5,1.0,4.0,4.0,420.6501589999902,2.0,1.0,phase_1,,,,,,,,,,,,,orange,diamond
0.0,4.0,0.0,0.0,4.0,4.0,641.0709979999751,2.0,1.0,phase_1,,,,,,,,,,,,,green,square
123.0,6.0,1.0,1.0,1.0,1.0,622.7031079999961,2.0,1.0,phase_1,,,,,,,,,,,,,magenta,I
96.0,2.0,1.0,0.0,3.0,3.0,498.6806719999777,2.0,1.0,phase_1,,,,,,,,,,,,,blue,hexagon
394.0,8.0,4.0,1.0,4.0,4.0,525.7596449999937,2.0,1.0,phase_1,,,,,,,,,,,,,white,flipped triangle
66.0,5.0,0.5,1.0,3.0,3.0,493.1281010000248,2.0,1.0,phase_1,,,,,,,,,,,,,orange,diamond
25.0,5.0,0.5,1.0,1.0,1.0,542.8821210000478,2.0,1.0,phase_1,,,,,,,,,,,,,orange,diamond
403.0,8.0,4.0,1.0,1.0,1.0,763.0693230000816,2.0,1.0,phase_1,,,,,,,,,,,,,white,flipped triangle
37.0,1.0,0.5,0.0,4.0,4.0,810.8419799999638,2.0,1.0,phase_1,,,,,,,,,,,,,cyan,circle
113.0,6.0,1.0,1.0,4.0,4.0,389.4158890000199,2.0,1.0,phase_1,,,,,,,,,,,,,magenta,I
225.0,7.0,2.0,1.0,3.0,3.0,579.3049169999449,2.0,1.0,phase_1,,,,,,,,,,,,,yellow,triangle
88.0,2.0,1.0,0.0,4.0,4.0,465.0858249999601,2.0,1.0,phase_1,,,,,,,,,,,,,blue,hexagon
0.0,6.0,0.0,1.0,3.0,3.0,437.4825889999556,2.0,1.0,phase_1,,,,,,,,,,,,,magenta,I
37.0,5.0,0.5,1.0,2.0,2.0,376.0424980000607,2.0,1.0,phase_1,,,,,,,,,,,,,orange,diamond
0.0,6.0,0.0,1.0,3.0,3.0,671.5460970000322,2.0,1.0,phase_1,,,,,,,,,,,,,magenta,I
408.0,4.0,4.0,0.0,1.0,1.0,593.3831969999801,2.0,1.0,phase_1,,,,,,,,,,,,,green,square
0.0,5.0,0.0,1.0,2.0,2.0,543.4200419999797,2.0,1.0,phase_1,,,,,,,,,,,,,orange,diamond
112.0,6.0,1.0,1.0,1.0,1.0,357.4548830000594,2.0,1.0,phase_1,,,,,,,,,,,,,magenta,I
105.0,6.0,1.0,1.0,4.0,4.0,424.4833619999326,2.0,1.0,phase_1,,,,,,,,,,,,,magenta,I
32.0,5.0,0.5,1.0,4.0,4.0,492.0330229999763,2.0,1.0,phase_1,,,,,,,,,,,,,orange,diamond
0.0,3.0,0.0,0.0,2.0,2.0,601.6714500000262,2.0,1.0,phase_1,,,,,,,,,,,,,gray,cross
76.0,6.0,1.0,1.0,4.0,4.0,533.4526990000086,2.0,1.0,phase_1,,,,,,,,,,,,,magenta,I
42.0,1.0,0.5,0.0,3.0,3.0,445.5341350000026,2.0,1.0,phase_1,,,,,,,,,,,,,cyan,circle
98.0,2.0,1.0,0.0,4.0,4.0,398.69950100001,2.0,1.0,phase_1,,,,,,,,,,,,,blue,hexagon
120.0,2.0,1.0,0.0,1.0,1.0,476.828380000029,2.0,1.0,phase_1,,,,,,,,,,,,,blue,hexagon
417.0,4.0,4.0,0.0,4.0,4.0,393.47069300004017,2.0,1.0,phase_1,,,,,,,,,,,,,green,square
207.0,3.0,2.0,0.0,1.0,1.0,764.8635640000521,2.0,1.0,phase_1,,,,,,,,,,,,,gray,cross
405.0,8.0,4.0,1.0,3.0,3.0,604.4984069999373,2.0,1.0,phase_1,,,,,,,,,,,,,white,flipped triangle
401.0,8.0,4.0,1.0,4.0,4.0,657.4576640000487,2.0,1.0,phase_1,,,,,,,,,,,,,white,flipped triangle
0.0,3.0,0.0,0.0,2.0,2.0,507.0025439999881,2.0,1.0,phase_1,,,,,,,,,,,,,gray,cross
46.0,1.0,0.5,0.0,2.0,2.0,593.7770799999953,2.0,1.0,phase_1,,,,,,,,,,,,,cyan,circle
72.0,5.0,0.5,1.0,2.0,2.0,741.5774219999776,2.0,1.0,phase_1,,,,,,,,,,,,,orange,diamond
116.0,6.0,1.0,1.0,1.0,1.0,667.3324450000564,2.0,1.0,phase_1,,,,,,,,,,,,,magenta,I
0.0,8.0,0.0,1.0,3.0,3.0,695.3423439999824,2.0,1.0,phase_1,,,,,,,,,,,,,white,flipped triangle
107.0,6.0,1.0,1.0,2.0,2.0,652.8621840000142,2.0,1.0,phase_1,,,,,,,,,,,,,magenta,I
0.0,2.0,0.0,0.0,3.0,3.0,402.2012240000094,2.0,1.0,phase_1,,,,,,,,,,,,,blue,hexagon
385.0,8.0,4.0,1.0,2.0,2.0,724.2556059999288,2.0,1.0,phase_1,,,,,,,,,,,,,white,flipped triangle
25.0,1.0,0.5,0.0,4.0,4.0,866.3301199999296,2.0,1.0,phase_1,,,,,,,,,,,,,cyan,circle
42.0,5.0,0.5,1.0,2.0,2.0,700.7525179999448,2.0,1.0,phase_1,,,,,,,,,,,,,orange,diamond
385.0,8.0,4.0,1.0,2.0,2.0,636.8727090000448,2.0,1.0,phase_1,,,,,,,,,,,,,white,flipped triangle
80.0,2.0,1.0,0.0,3.0,3.0,541.6371979999894,2.0,1.0,phase_1,,,,,,,,,,,,,blue,hexagon
25.0,1.0,0.5,0.0,1.0,1.0,486.4254719999508,2.0,1.0,phase_1,,,,,,,,,,,,,cyan,circle
0.0,5.0,0.0,1.0,2.0,2.0,409.7531290000233,2.0,1.0,phase_1,,,,,,,,,,,,,orange,diamond
55.0,5.0,0.5,1.0,2.0,2.0,487.5698839999813,2.0,1.0,phase_1,,,,,,,,,,,,,orange,diamond
400.0,4.0,4.0,0.0,3.0,3.0,386.8917869999677,2.0,1.0,phase_1,,,,,,,,,,,,,green,square
206.0,3.0,2.0,0.0,2.0,2.0,262.3554670000203,2.0,1.0,phase_1,,,,,,,,,,,,,gray,cross
111.0,6.0,1.0,1.0,3.0,3.0,514.0663980000681,2.0,1.0,phase_1,,,,,,,,,,,,,magenta,I
0.0,1.0,0.0,0.0,1.0,1.0,447.3972670000421,2.0,1.0,phase_1,,,,,,,,,,,,,cyan,circle
0.0,1.0,0.0,0.0,3.0,3.0,541.5270910000345,2.0,1.0,phase_1,,,,,,,,,,,,,cyan,circle
0.0,3.0,0.0,0.0,2.0,2.0,675.3146409999999,2.0,1.0,phase_1,,,,,,,,,,,,,gray,cross
425.0,8.0,4.0,1.0,4.0,4.0,525.20235399993,2.0,1.0,phase_1,,,,,,,,,,,,,white,flipped triangle
0.0,1.0,0.0,0.0,4.0,4.0,618.441358000041,2.0,1.0,phase_1,,,,,,,,,,,,,cyan,circle
406.0,4.0,4.0,0.0,2.0,2.0,478.6519759999237,2.0,1.0,phase_1,,,,,,,,,,,,,green,square
52.0,1.0,0.5,0.0,4.0,4.0,637.7551900000071,2.0,1.0,phase_1,,,,,,,,,,,,,cyan,circle
188.0,7.0,2.0,1.0,1.0,1.0,562.4776250000423,2.0,1.0,phase_1,,,,,,,,,,,,,yellow,triangle
216.0,3.0,2.0,0.0,2.0,2.0,613.5959939999793,2.0,1.0,phase_1,,,,,,,,,,,,,gray,cross
385.0,8.0,4.0,1.0,1.0,1.0,528.709823999975,2.0,1.0,phase_1,,,,,,,,,,,,,white,flipped triangle
31.0,5.0,0.5,1.0,3.0,3.0,335.437967999951,2.0,1.0,phase_1,,,,,,,,,,,,,orange,diamond
389.0,4.0,4.0,0.0,3.0,3.0,388.2194340000069,2.0,1.0,phase_1,,,,,,,,,,,,,green,square
49.0,1.0,0.5,0.0,1.0,1.0,482.0238700000345,2.0,1.0,phase_1,,,,,,,,,,,,,cyan,circle
0.0,2.0,0.0,0.0,3.0,3.0,643.6677319999262,2.0,1.0,phase_1,,,,,,,,,,,,,blue,hexagon
76.0,6.0,1.0,1.0,2.0,2.0,530.8592879999878,2.0,1.0,phase_1,,,,,,,,,,,,,magenta,I
422.0,8.0,4.0,1.0,1.0,1.0,508.88482900006693,2.0,1.0,phase_1,,,,,,,,,,,,,white,flipped triangle
55.0,1.0,0.5,0.0,3.0,3.0,377.4859270000661,2.0,1.0,phase_1,,,,,,,,,,,,,cyan,circle
98.0,6.0,1.0,1.0,2.0,2.0,560.2113380000446,2.0,1.0,phase_1,,,,,,,,,,,,,magenta,I
38.0,1.0,0.5,0.0,1.0,1.0,566.7564950000497,2.0,1.0,phase_1,,,,,,,,,,,,,cyan,circle
377.0,8.0,4.0,1.0,2.0,2.0,440.7586690000471,2.0,1.0,phase_1,,,,,,,,,,,,,white,flipped triangle
0.0,8.0,0.0,1.0,4.0,4.0,479.4134219999932,2.0,1.0,phase_1,,,,,,,,,,,,,white,flipped triangle
0.0,4.0,0.0,0.0,2.0,2.0,569.3596810000372,2.0,1.0,phase_1,,,,,,,,,,,,,green,square
215.0,3.0,2.0,0.0,3.0,3.0,504.2620230000239,2.0,1.0,phase_1,,,,,,,,,,,,,gray,cross
213.0,7.0,2.0,1.0,1.0,1.0,598.0845760000193,2.0,1.0,phase_1,,,,,,,,,,,,,yellow,triangle
193.0,3.0,2.0,0.0,1.0,1.0,434.3603390000226,2.0,1.0,phase_1,,,,,,,,,,,,,gray,cross
414.0,4.0,4.0,0.0,4.0,4.0,510.2835720000485,2.0,1.0,phase_1,,,,,,,,,,,,,green,square
105.0,2.0,1.0,0.0,4.0,4.0,396.0521159999643,2.0,1.0,phase_1,,,,,,,,,,,,,blue,hexagon
415.0,8.0,4.0,1.0,3.0,3.0,333.9275660000567,2.0,1.0,phase_1,,,,,,,,,,,,,white,flipped triangle
183.0,3.0,2.0,0.0,3.0,3.0,314.6017310000388,2.0,1.0,phase_1,,,,,,,,,,,,,gray,cross
0.0,6.0,0.0,1.0,2.0,2.0,601.7507760000171,2.0,1.0,phase_1,,,,,,,,,,,,,magenta,I
124.0,6.0,1.0,1.0,2.0,2.0,451.3316379999423,2.0,1.0,phase_1,,,,,,,,,,,,,magenta,I
36.0,1.0,0.5,0.0,2.0,2.0,440.5409729999974,2.0,1.0,phase_1,,,,,,,,,,,,,cyan,circle
83.0,6.0,1.0,1.0,2.0,2.0,399.451253000052,2.0,1.0,phase_1,,,,,,,,,,,,,magenta,I
0.0,4.0,0.0,0.0,3.0,3.0,300.4298250000374,2.0,1.0,phase_1,,,,,,,,,,,,,green,square
76.0,2.0,1.0,0.0,2.0,2.0,528.1612989999758,2.0,1.0,phase_1,,,,,,,,,,,,,blue,hexagon
93.0,6.0,1.0,1.0,4.0,4.0,532.8847140000335,2.0,1.0,phase_1,,,,,,,,,,,,,magenta,I
182.0,7.0,2.0,1.0,4.0,4.0,584.3403930000477,2.0,1.0,phase_1,,,,,,,,,,,,,yellow,triangle
76.0,2.0,1.0,0.0,3.0,3.0,378.6673480000218,2.0,2.0,phase_1,,,,,,,,,,,,,blue,hexagon
0.0,3.0,0.0,0.0,2.0,2.0,559.9348299999747,2.0,1.0,phase_1,,,,,,,,,,,,,gray,cross
176.0,3.0,2.0,0.0,3.0,3.0,401.1734199999637,3.0,1.0,phase_1,,,,,,,,,,,,,gray,cross
376.0,8.0,4.0,1.0,4.0,4.0,502.4999710000202,3.0,1.0,phase_1,,,,,,,,,,,,,white,flipped triangle
88.0,6.0,1.0,1.0,3.0,3.0,448.4688669999741,3.0,1.0,phase_1,,,,,,,,,,,,,magenta,I
97.0,6.0,1.0,1.0,3.0,3.0,756.3451779999468,3.0,1.0,phase_1,,,,,,,,,,,,,magenta,I
33.0,5.0,0.5,1.0,1.0,1.0,746.2837759999275,3.0,1.0,phase_1,,,,,,,,,,,,,orange,diamond
0.0,8.0,0.0,1.0,4.0,4.0,437.8463350000174,3.0,1.0,phase_1,,,,,,,,,,,,,white,flipped triangle
180.0,7.0,2.0,1.0,4.0,4.0,437.9576699999461,3.0,1.0,phase_1,,,,,,,,,,,,,yellow,triangle
0.0,1.0,0.0,0.0,3.0,3.0,383.4374519999528,3.0,1.0,phase_1,,,,,,,,,,,,,cyan,circle
87.0,6.0,1.0,1.0,4.0,4.0,484.2939619999242,3.0,1.0,phase_1,,,,,,,,,,,,,magenta,I
0.0,2.0,0.0,0.0,2.0,2.0,633.2665549999774,3.0,1.0,phase_1,,,,,,,,,,,,,blue,hexagon
96.0,6.0,1.0,1.0,3.0,3.0,351.4803820000907,3.0,1.0,phase_1,,,,,,,,,,,,,magenta,I
0.0,5.0,0.0,1.0,4.0,4.0,561.50926600003,3.0,1.0,phase_1,,,,,,,,,,,,,orange,diamond
219.0,3.0,2.0,0.0,4.0,4.0,543.582291000007,3.0,1.0,phase_1,,,,,,,,,,,,,gray,cross
207.0,7.0,2.0,1.0,4.0,4.0,391.517322000027,3.0,1.0,phase_1,,,,,,,,,,,,,yellow,triangle
412.0,8.0,4.0,1.0,4.0,4.0,498.5178439999345,3.0,1.0,phase_1,,,,,,,,,,,,,white,flipped triangle
184.0,3.0,2.0,0.0,1.0,1.0,679.8096219999934,3.0,1.0,phase_1,,,,,,,,,,,,,gray,cross
125.0,6.0,1.0,1.0,2.0,2.0,451.4159430000291,3.0,1.0,phase_1,,,,,,,,,,,,,magenta,I
394.0,8.0,4.0,1.0,1.0,1.0,704.1383210000731,3.0,1.0,phase_1,,,,,,,,,,,,,white,flipped triangle
210.0,3.0,2.0,0.0,1.0,1.0,580.2986279999232,3.0,1.0,phase_1,,,,,,,,,,,,,gray,cross
180.0,3.0,2.0,0.0,2.0,2.0,410.743937999996,3.0,1.0,phase_1,,,,,,,,,,,,,gray,cross
58.0,5.0,0.5,1.0,1.0,1.0,455.7616749999624,3.0,1.0,phase_1,,,,,,,,,,,,,orange,diamond
102.0,6.0,1.0,1.0,4.0,4.0,433.3167849999881,3.0,1.0,phase_1,,,,,,,,,,,,,magenta,I
208.0,7.0,2.0,1.0,3.0,3.0,447.7953599999864,3.0,1.0,phase_1,,,,,,,,,,,,,yellow,triangle
45.0,5.0,0.5,1.0,3.0,3.0,387.5490279999667,3.0,1.0,phase_1,,,,,,,,,,,,,orange,diamond
418.0,8.0,4.0,1.0,4.0,4.0,481.3432140000486,3.0,1.0,phase_1,,,,,,,,,,,,,white,flipped triangle
380.0,4.0,4.0,0.0,3.0,3.0,356.43927699993577,3.0,1.0,phase_1,,,,,,,,,,,,,green,square
399.0,8.0,4.0,1.0,2.0,2.0,882.7304469999717,3.0,1.0,phase_1,,,,,,,,,,,,,white,flipped triangle
62.0,1.0,0.5,0.0,4.0,4.0,519.0946650000114,3.0,1.0,phase_1,,,,,,,,,,,,,cyan,circle
193.0,7.0,2.0,1.0,2.0,2.0,489.2481429999407,3.0,1.0,phase_1,,,,,,,,,,,,,yellow,triangle
187.0,3.0,2.0,0.0,1.0,1.0,736.4260440000407,3.0,1.0,phase_1,,,,,,,,,,,,,gray,cross
396.0,4.0,4.0,0.0,4.0,4.0,373.5213110001041,3.0,1.0,phase_1,,,,,,,,,,,,,green,square
225.0,3.0,2.0,0.0,3.0,3.0,319.6303339999531,3.0,1.0,phase_1,,,,,,,,,,,,,gray,cross
25.0,5.0,0.5,1.0,3.0,3.0,581.2597350000033,3.0,1.0,phase_1,,,,,,,,,,,,,orange,diamond
57.0,5.0,0.5,1.0,1.0,1.0,699.1654969999672,3.0,1.0,phase_1,,,,,,,,,,,,,orange,diamond
216.0,7.0,2.0,1.0,4.0,4.0,458.1613599999627,3.0,1.0,phase_1,,,,,,,,,,,,,yellow,triangle
415.0,4.0,4.0,0.0,4.0,4.0,342.7400819999775,3.0,1.0,phase_1,,,,,,,,,,,,,green,square
407.0,4.0,4.0,0.0,3.0,3.0,559.1297060000215,3.0,1.0,phase_1,,,,,,,,,,,,,green,square
0.0,2.0,0.0,0.0,2.0,2.0,535.7362830000056,3.0,1.0,phase_1,,,,,,,,,,,,,blue,hexagon
125.0,6.0,1.0,1.0,4.0,4.0,376.6361360000019,3.0,1.0,phase_1,,,,,,,,,,,,,magenta,I
95.0,2.0,1.0,0.0,2.0,2.0,317.036704999964,3.0,1.0,phase_1,,,,,,,,,,,,,blue,hexagon
73.0,1.0,0.5,0.0,4.0,4.0,581.2152060000244,3.0,1.0,phase_1,,,,,,,,,,,,,cyan,circle
0.0,3.0,0.0,0.0,2.0,2.0,512.53469400001,3.0,1.0,phase_1,,,,,,,,,,,,,gray,cross
0.0,6.0,0.0,1.0,4.0,4.0,531.500895000022,3.0,1.0,phase_1,,,,,,,,,,,,,magenta,I
0.0,4.0,0.0,0.0,2.0,2.0,490.2493659999436,3.0,1.0,phase_1,,,,,,,,,,,,,green,square
49.0,5.0,0.5,1.0,1.0,1.0,455.8404829999745,3.0,1.0,phase_1,,,,,,,,,,,,,orange,diamond
73.0,5.0,0.5,1.0,3.0,3.0,427.8957860000218,3.0,1.0,phase_1,,,,,,,,,,,,,orange,diamond
207.0,7.0,2.0,1.0,3.0,3.0,681.0372959999995,3.0,1.0,phase_1,,,,,,,,,,,,,yellow,triangle
193.0,7.0,2.0,1.0,2.0,2.0,405.7928710000169,3.0,1.0,phase_1,,,,,,,,,,,,,yellow,triangle
32.0,1.0,0.5,0.0,3.0,3.0,375.636428000007,3.0,1.0,phase_1,,,,,,,,,,,,,cyan,circle
85.0,2.0,1.0,0.0,3.0,3.0,774.5327310000221,3.0,1.0,phase_1,,,,,,,,,,,,,blue,hexagon
193.0,3.0,2.0,0.0,4.0,4.0,420.113305999962,3.0,1.0,phase_1,,,,,,,,,,,,,gray,cross
394.0,4.0,4.0,0.0,3.0,3.0,429.3499599999677,3.0,1.0,phase_1,,,,,,,,,,,,,green,square
69.0,5.0,0.5,1.0,3.0,3.0,452.6807080000026,3.0,1.0,phase_1,,,,,,,,,,,,,orange,diamond
52.0,5.0,0.5,1.0,2.0,2.0,513.7198089998947,3.0,1.0,phase_1,,,,,,,,,,,,,orange,diamond
401.0,4.0,4.0,0.0,3.0,3.0,446.8295769999031,3.0,1.0,phase_1,,,,,,,,,,,,,green,square
0.0,5.0,0.0,1.0,3.0,3.0,361.7997879999848,3.0,1.0,phase_1,,,,,,,,,,,,,orange,diamond
184.0,7.0,2.0,1.0,2.0,2.0,445.2008310000792,3.0,1.0,phase_1,,,,,,,,,,,,,yellow,triangle
0.0,6.0,0.0,1.0,1.0,1.0,309.5958689999634,3.0,1.0,phase_1,,,,,,,,,,,,,magenta,I
217.0,7.0,2.0,1.0,4.0,4.0,328.5412280000628,3.0,1.0,phase_1,,,,,,,,,,,,,yellow,triangle
0.0,1.0,0.0,0.0,3.0,3.0,373.2428609999942,3.0,1.0,phase_1,,,,,,,,,,,,,cyan,circle
408.0,8.0,4.0,1.0,3.0,3.0,433.382134999988,3.0,1.0,phase_1,,,,,,,,,,,,,white,flipped triangle
206.0,3.0,2.0,0.0,4.0,4.0,422.7528039999697,3.0,1.0,phase_1,,,,,,,,,,,,,gray,cross
79.0,2.0,1.0,0.0,1.0,1.0,468.595341000082,3.0,1.0,phase_1,,,,,,,,,,,,,blue,hexagon
85.0,6.0,1.0,1.0,2.0,2.0,453.3396139999013,3.0,1.0,phase_1,,,,,,,,,,,,,magenta,I
200.0,7.0,2.0,1.0,4.0,4.0,445.7582030000822,3.0,1.0,phase_1,,,,,,,,,,,,,yellow,triangle
407.0,8.0,4.0,1.0,3.0,3.0,466.8156910000789,3.0,1.0,phase_1,,,,,,,,,,,,,white,flipped triangle
396.0,4.0,4.0,0.0,1.0,1.0,508.2740290000629,3.0,1.0,phase_1,,,,,,,,,,,,,green,square
71.0,5.0,0.5,1.0,3.0,3.0,417.2969400000283,3.0,1.0,phase_1,,,,,,,,,,,,,orange,diamond
386.0,8.0,4.0,1.0,1.0,1.0,544.2354399999658,3.0,1.0,phase_1,,,,,,,,,,,,,white,flipped triangle
0.0,6.0,0.0,1.0,1.0,1.0,388.2852149999962,3.0,1.0,phase_1,,,,,,,,,,,,,magenta,I
72.0,5.0,0.5,1.0,3.0,3.0,442.5001880000536,3.0,1.0,phase_1,,,,,,,,,,,,,orange,diamond
98.0,2.0,1.0,0.0,4.0,4.0,629.5037730000104,3.0,1.0,phase_1,,,,,,,,,,,,,blue,hexagon
187.0,3.0,2.0,0.0,3.0,3.0,410.9582449999607,3.0,1.0,phase_1,,,,,,,,,,,,,gray,cross
425.0,4.0,4.0,0.0,1.0,1.0,511.18279000002076,3.0,1.0,phase_1,,,,,,,,,,,,,green,square
176.0,7.0,2.0,1.0,1.0,1.0,514.9264739999353,3.0,1.0,phase_1,,,,,,,,,,,,,yellow,triangle
0.0,7.0,0.0,1.0,3.0,3.0,439.8837429999958,3.0,1.0,phase_1,,,,,,,,,,,,,yellow,triangle
0.0,3.0,0.0,0.0,2.0,2.0,589.432286000033,3.0,1.0,phase_1,,,,,,,,,,,,,gray,cross
125.0,2.0,1.0,0.0,1.0,1.0,401.5359620000254,3.0,1.0,phase_1,,,,,,,,,,,,,blue,hexagon
79.0,6.0,1.0,1.0,3.0,3.0,340.3686970000308,3.0,1.0,phase_1,,,,,,,,,,,,,magenta,I
224.0,7.0,2.0,1.0,3.0,3.0,624.7874749999482,3.0,1.0,phase_1,,,,,,,,,,,,,yellow,triangle
0.0,4.0,0.0,0.0,3.0,3.0,496.7484590000595,3.0,1.0,phase_1,,,,,,,,,,,,,green,square
59.0,5.0,0.5,1.0,1.0,1.0,394.4274130000167,3.0,1.0,phase_1,,,,,,,,,,,,,orange,diamond
36.0,5.0,0.5,1.0,2.0,2.0,415.6988180000098,3.0,1.0,phase_1,,,,,,,,,,,,,orange,diamond
187.0,7.0,2.0,1.0,4.0,4.0,469.8583669999152,3.0,1.0,phase_1,,,,,,,,,,,,,yellow,triangle
0.0,2.0,0.0,0.0,2.0,2.0,642.2840820000602,3.0,1.0,phase_1,,,,,,,,,,,,,blue,hexagon
80.0,6.0,1.0,1.0,1.0,1.0,592.2512839999854,3.0,1.0,phase_1,,,,,,,,,,,,,magenta,I
55.0,1.0,0.5,0.0,4.0,4.0,565.2892799998881,3.0,1.0,phase_1,,,,,,,,,,,,,cyan,circle
0.0,7.0,0.0,1.0,2.0,2.0,458.024764999891,3.0,1.0,phase_1,,,,,,,,,,,,,yellow,triangle
216.0,7.0,2.0,1.0,1.0,1.0,493.7320369999725,3.0,1.0,phase_1,,,,,,,,,,,,,yellow,triangle
195.0,3.0,2.0,0.0,2.0,2.0,457.7087479999591,3.0,1.0,phase_1,,,,,,,,,,,,,gray,cross
49.0,5.0,0.5,1.0,4.0,4.0,476.2984080000478,3.0,1.0,phase_1,,,,,,,,,,,,,orange,diamond
384.0,8.0,4.0,1.0,2.0,2.0,508.2372699998814,3.0,1.0,phase_1,,,,,,,,,,,,,white,flipped triangle
380.0,8.0,4.0,1.0,2.0,2.0,470.4355410001426,3.0,1.0,phase_1,,,,,,,,,,,,,white,flipped triangle
54.0,5.0,0.5,1.0,4.0,4.0,453.9543680000406,3.0,1.0,phase_1,,,,,,,,,,,,,orange,diamond
422.0,4.0,4.0,0.0,4.0,4.0,552.2947109998313,3.0,1.0,phase_1,,,,,,,,,,,,,green,square
390.0,4.0,4.0,0.0,1.0,1.0,476.0488899999018,3.0,1.0,phase_1,,,,,,,,,,,,,green,square
33.0,1.0,0.5,0.0,1.0,1.0,633.6437340000884,3.0,1.0,phase_1,,,,,,,,,,,,,cyan,circle
204.0,3.0,2.0,0.0,4.0,4.0,575.3652280000097,3.0,1.0,phase_1,,,,,,,,,,,,,gray,cross
74.0,5.0,0.5,1.0,2.0,2.0,507.9625590001342,3.0,1.0,phase_1,,,,,,,,,,,,,orange,diamond
423.0,4.0,4.0,0.0,1.0,1.0,359.3703529998038,3.0,1.0,phase_1,,,,,,,,,,,,,green,square
57.0,1.0,0.5,0.0,3.0,3.0,412.8660769999897,4.0,1.0,phase_1,,,,,,,,,,,,,cyan,circle
119.0,6.0,1.0,1.0,3.0,3.0,400.5818660000386,4.0,1.0,phase_1,,,,,,,,,,,,,magenta,I
199.0,3.0,2.0,0.0,1.0,1.0,621.0619869998482,4.0,1.0,phase_1,,,,,,,,,,,,,gray,cross
423.0,8.0,4.0,1.0,3.0,3.0,337.8895499999998,4.0,1.0,phase_1,,,,,,,,,,,,,white,flipped triangle
72.0,1.0,0.5,0.0,1.0,1.0,397.7610990000357,4.0,1.0,phase_1,,,,,,,,,,,,,cyan,circle
0.0,8.0,0.0,1.0,2.0,2.0,536.9017489999806,4.0,1.0,phase_1,,,,,,,,,,,,,white,flipped triangle
383.0,4.0,4.0,0.0,1.0,1.0,863.8112290000208,4.0,1.0,phase_1,,,,,,,,,,,,,green,square
0.0,7.0,0.0,1.0,1.0,1.0,593.6633659998733,4.0,1.0,phase_1,,,,,,,,,,,,,yellow,triangle
54.0,1.0,0.5,0.0,4.0,4.0,534.8885159999099,4.0,1.0,phase_1,,,,,,,,,,,,,cyan,circle
36.0,5.0,0.5,1.0,2.0,2.0,619.7192150000319,4.0,1.0,phase_1,,,,,,,,,,,,,orange,diamond
385.0,4.0,4.0,0.0,4.0,4.0,394.7081559999787,4.0,1.0,phase_1,,,,,,,,,,,,,green,square
61.0,1.0,0.5,0.0,2.0,2.0,317.666618999965,4.0,1.0,phase_1,,,,,,,,,,,,,cyan,circle
399.0,4.0,4.0,0.0,2.0,2.0,308.3675220000259,4.0,1.0,phase_1,,,,,,,,,,,,,green,square
81.0,2.0,1.0,0.0,1.0,1.0,321.6280230001302,4.0,1.0,phase_1,,,,,,,,,,,,,blue,hexagon
97.0,2.0,1.0,0.0,3.0,3.0,428.869805999966,4.0,1.0,phase_1,,,,,,,,,,,,,blue,hexagon
420.0,4.0,4.0,0.0,3.0,3.0,359.8039460000564,4.0,1.0,phase_1,,,,,,,,,,,,,green,square
38.0,5.0,0.5,1.0,4.0,4.0,422.86795300015,4.0,1.0,phase_1,,,,,,,,,,,,,orange,diamond
102.0,2.0,1.0,0.0,4.0,4.0,449.5842310000171,4.0,1.0,phase_1,,,,,,,,,,,,,blue,hexagon
41.0,5.0,0.5,1.0,4.0,4.0,573.2249079999292,4.0,1.0,phase_1,,,,,,,,,,,,,orange,diamond
98.0,6.0,1.0,1.0,1.0,1.0,570.7387560000825,4.0,1.0,phase_1,,,,,,,,,,,,,magenta,I
208.0,3.0,2.0,0.0,4.0,4.0,638.954904000002,4.0,1.0,phase_1,,,,,,,,,,,,,gray,cross
193.0,3.0,2.0,0.0,4.0,4.0,435.4413849998764,4.0,1.0,phase_1,,,,,,,,,,,,,gray,cross
207.0,3.0,2.0,0.0,2.0,2.0,466.8522439999378,4.0,1.0,phase_1,,,,,,,,,,,,,gray,cross
55.0,5.0,0.5,1.0,1.0,1.0,533.5038570001416,4.0,1.0,phase_1,,,,,,,,,,,,,orange,diamond
118.0,6.0,1.0,1.0,1.0,1.0,513.6715619998995,4.0,1.0,phase_1,,,,,,,,,,,,,magenta,I
197.0,7.0,2.0,1.0,1.0,1.0,325.7597799999985,4.0,1.0,phase_1,,,,,,,,,,,,,yellow,triangle
71.0,1.0,0.5,0.0,1.0,1.0,475.4055939999944,4.0,1.0,phase_1,,,,,,,,,,,,,cyan,circle
30.0,5.0,0.5,1.0,2.0,2.0,512.1294939999643,4.0,1.0,phase_1,,,,,,,,,,,,,orange,diamond
400.0,8.0,4.0,1.0,3.0,3.0,582.7627859998756,4.0,1.0,phase_1,,,,,,,,,,,,,white,flipped triangle
103.0,2.0,1.0,0.0,3.0,3.0,444.2417289999412,4.0,1.0,phase_1,,,,,,,,,,,,,blue,hexagon
405.0,4.0,4.0,0.0,4.0,4.0,357.8887580001719,4.0,1.0,phase_1,,,,,,,,,,,,,green,square
389.0,4.0,4.0,0.0,2.0,2.0,332.9098809999777,4.0,1.0,phase_1,,,,,,,,,,,,,green,square
120.0,6.0,1.0,1.0,3.0,3.0,370.2633939999487,4.0,1.0,phase_1,,,,,,,,,,,,,magenta,I
49.0,1.0,0.5,0.0,4.0,4.0,411.9292370000948,4.0,1.0,phase_1,,,,,,,,,,,,,cyan,circle
95.0,6.0,1.0,1.0,4.0,4.0,430.0079859999641,4.0,2.0,phase_1,,,,,,,,,,,,,magenta,I
197.0,3.0,2.0,0.0,4.0,4.0,379.8479449999377,4.0,1.0,phase_1,,,,,,,,,,,,,gray,cross
0.0,4.0,0.0,0.0,2.0,2.0,346.1784629998874,4.0,1.0,phase_1,,,,,,,,,,,,,green,square
221.0,3.0,2.0,0.0,4.0,4.0,430.4602390000127,4.0,1.0,phase_1,,,,,,,,,,,,,gray,cross
389.0,8.0,4.0,1.0,4.0,4.0,511.59268200012775,4.0,1.0,phase_1,,,,,,,,,,,,,white,flipped triangle
210.0,7.0,2.0,1.0,3.0,3.0,389.9340829998436,4.0,1.0,phase_1,,,,,,,,,,,,,yellow,triangle
0.0,3.0,0.0,0.0,1.0,1.0,633.5345429999961,4.0,1.0,phase_1,,,,,,,,,,,,,gray,cross
0.0,3.0,0.0,0.0,3.0,3.0,385.7545900000332,4.0,1.0,phase_1,,,,,,,,,,,,,gray,cross
58.0,1.0,0.5,0.0,1.0,1.0,389.9627859998418,4.0,1.0,phase_1,,,,,,,,,,,,,cyan,circle
221.0,7.0,2.0,1.0,2.0,2.0,334.9326499999279,4.0,1.0,phase_1,,,,,,,,,,,,,yellow,triangle
116.0,6.0,1.0,1.0,2.0,2.0,420.314062999978,4.0,1.0,phase_1,,,,,,,,,,,,,magenta,I
184.0,3.0,2.0,0.0,1.0,1.0,346.4506489999621,4.0,1.0,phase_1,,,,,,,,,,,,,gray,cross
112.0,2.0,1.0,0.0,4.0,4.0,447.5144020000243,4.0,1.0,phase_1,,,,,,,,,,,,,blue,hexagon
76.0,6.0,1.0,1.0,4.0,4.0,691.6471510000974,4.0,1.0,phase_1,,,,,,,,,,,,,magenta,I
115.0,2.0,1.0,0.0,4.0,4.0,775.753578999911,4.0,1.0,phase_1,,,,,,,,,,,,,blue,hexagon
0.0,4.0,0.0,0.0,4.0,4.0,467.2718169999825,4.0,1.0,phase_1,,,,,,,,,,,,,green,square
93.0,2.0,1.0,0.0,2.0,2.0,369.7732690000066,4.0,1.0,phase_1,,,,,,,,,,,,,blue,hexagon
409.0,8.0,4.0,1.0,3.0,3.0,552.4677369999154,4.0,1.0,phase_1,,,,,,,,,,,,,white,flipped triangle
0.0,7.0,0.0,1.0,3.0,3.0,379.1216659999463,4.0,1.0,phase_1,,,,,,,,,,,,,yellow,triangle
420.0,4.0,4.0,0.0,1.0,1.0,486.1870769998404,4.0,1.0,phase_1,,,,,,,,,,,,,green,square
59.0,1.0,0.5,0.0,3.0,3.0,507.5046020001537,4.0,1.0,phase_1,,,,,,,,,,,,,cyan,circle
0.0,4.0,0.0,0.0,2.0,2.0,536.2820480002028,4.0,1.0,phase_1,,,,,,,,,,,,,green,square
0.0,1.0,0.0,0.0,2.0,2.0,395.6108019999647,4.0,1.0,phase_1,,,,,,,,,,,,,cyan,circle
389.0,8.0,4.0,1.0,1.0,1.0,641.865480999968,4.0,1.0,phase_1,,,,,,,,,,,,,white,flipped triangle
91.0,2.0,1.0,0.0,2.0,2.0,753.0912580000404,4.0,1.0,phase_1,,,,,,,,,,,,,blue,hexagon
97.0,6.0,1.0,1.0,1.0,1.0,626.5807800000402,4.0,1.0,phase_1,,,,,,,,,,,,,magenta,I
116.0,2.0,1.0,0.0,1.0,1.0,470.5637780000415,4.0,1.0,phase_1,,,,,,,,,,,,,blue,hexagon
195.0,3.0,2.0,0.0,4.0,4.0,508.264957999927,4.0,1.0,phase_1,,,,,,,,,,,,,gray,cross
200.0,3.0,2.0,0.0,2.0,2.0,546.6042830000788,4.0,1.0,phase_1,,,,,,,,,,,,,gray,cross
65.0,5.0,0.5,1.0,1.0,1.0,436.7318150000301,4.0,1.0,phase_1,,,,,,,,,,,,,orange,diamond
0.0,1.0,0.0,0.0,1.0,1.0,481.9795550001799,4.0,1.0,phase_1,,,,,,,,,,,,,cyan,circle
44.0,5.0,0.5,1.0,1.0,1.0,550.7251040000938,4.0,1.0,phase_1,,,,,,,,,,,,,orange,diamond
383.0,8.0,4.0,1.0,2.0,2.0,557.3935899999469,4.0,1.0,phase_1,,,,,,,,,,,,,white,flipped triangle
376.0,4.0,4.0,0.0,4.0,4.0,571.0356139998112,4.0,1.0,phase_1,,,,,,,,,,,,,green,square
93.0,2.0,1.0,0.0,4.0,4.0,463.2861089999096,4.0,1.0,phase_1,,,,,,,,,,,,,blue,hexagon
74.0,1.0,0.5,0.0,4.0,4.0,610.1593649998449,4.0,1.0,phase_1,,,,,,,,,,,,,cyan,circle
199.0,3.0,2.0,0.0,2.0,2.0,360.8539840001867,4.0,1.0,phase_1,,,,,,,,,,,,,gray,cross
219.0,7.0,2.0,1.0,1.0,1.0,501.1345469999924,4.0,1.0,phase_1,,,,,,,,,,,,,yellow,triangle
0.0,5.0,0.0,1.0,2.0,2.0,346.6053279998959,4.0,1.0,phase_1,,,,,,,,,,,,,orange,diamond
90.0,2.0,1.0,0.0,2.0,2.0,701.0141640000711,4.0,1.0,phase_1,,,,,,,,,,,,,blue,hexagon
417.0,8.0,4.0,1.0,4.0,4.0,697.1944909998911,4.0,1.0,phase_1,,,,,,,,,,,,,white,flipped triangle
180.0,7.0,2.0,1.0,4.0,4.0,535.6309859998873,4.0,1.0,phase_1,,,,,,,,,,,,,yellow,triangle
206.0,7.0,2.0,1.0,3.0,3.0,597.5234520001322,4.0,1.0,phase_1,,,,,,,,,,,,,yellow,triangle
184.0,7.0,2.0,1.0,4.0,4.0,671.4294660000633,4.0,1.0,phase_1,,,,,,,,,,,,,yellow,triangle
182.0,3.0,2.0,0.0,1.0,1.0,549.3381769999814,4.0,1.0,phase_1,,,,,,,,,,,,,gray,cross
179.0,7.0,2.0,1.0,1.0,1.0,448.62217900004,4.0,1.0,phase_1,,,,,,,,,,,,,yellow,triangle
113.0,2.0,1.0,0.0,1.0,1.0,678.9280990001316,4.0,1.0,phase_1,,,,,,,,,,,,,blue,hexagon
0.0,7.0,0.0,1.0,3.0,3.0,467.4633500001164,4.0,1.0,phase_1,,,,,,,,,,,,,yellow,triangle
0.0,8.0,0.0,1.0,3.0,3.0,406.5238870000485,4.0,1.0,phase_1,,,,,,,,,,,,,white,flipped triangle
407.0,4.0,4.0,0.0,2.0,2.0,522.3807859999852,4.0,1.0,phase_1,,,,,,,,,,,,,green,square
0.0,4.0,0.0,0.0,1.0,1.0,490.0161020000269,4.0,1.0,phase_1,,,,,,,,,,,,,green,square
0.0,6.0,0.0,1.0,1.0,1.0,444.3532909999703,4.0,1.0,phase_1,,,,,,,,,,,,,magenta,I
0.0,6.0,0.0,1.0,3.0,3.0,512.3950529998638,4.0,1.0,phase_1,,,,,,,,,,,,,magenta,I
0.0,5.0,0.0,1.0,1.0,1.0,407.454639999969,4.0,1.0,phase_1,,,,,,,,,,,,,orange,diamond
0.0,1.0,0.0,0.0,2.0,2.0,457.8445080001074,4.0,1.0,phase_1,,,,,,,,,,,,,cyan,circle
384.0,4.0,4.0,0.0,2.0,2.0,321.1098540000421,4.0,1.0,phase_1,,,,,,,,,,,,,green,square
0.0,1.0,0.0,0.0,1.0,1.0,460.2788459999374,4.0,1.0,phase_1,,,,,,,,,,,,,cyan,circle
0.0,2.0,0.0,0.0,4.0,4.0,408.0779600001278,4.0,1.0,phase_1,,,,,,,,,,,,,blue,hexagon
195.0,7.0,2.0,1.0,3.0,3.0,460.599061000039,4.0,1.0,phase_1,,,,,,,,,,,,,yellow,triangle
377.0,4.0,4.0,0.0,1.0,1.0,516.8841689999226,4.0,1.0,phase_1,,,,,,,,,,,,,green,square
30.0,5.0,0.5,1.0,3.0,3.0,607.9882849999194,4.0,1.0,phase_1,,,,,,,,,,,,,orange,diamond
418.0,4.0,4.0,0.0,1.0,1.0,435.3529530001196,4.0,1.0,phase_1,,,,,,,,,,,,,green,square
31.0,1.0,0.5,0.0,1.0,1.0,426.1225699999613,4.0,1.0,phase_1,,,,,,,,,,,,,cyan,circle
0.0,1.0,0.0,0.0,3.0,3.0,349.0608140000404,4.0,1.0,phase_1,,,,,,,,,,,,,cyan,circle
412.0,4.0,4.0,0.0,3.0,3.0,648.6802540000554,4.0,1.0,phase_1,,,,,,,,,,,,,green,square
65.0,1.0,0.5,0.0,4.0,4.0,559.5200429997931,4.0,1.0,phase_1,,,,,,,,,,,,,cyan,circle
0.0,3.0,2.0,0.0,6.0,6.0,523.781289000226,1.0,1.0,phase_2,go,250.0,250.0,1.0,,,,,,,,,gray,cross
0.0,8.0,4.0,1.0,5.0,0.0,0.0,1.0,1.0,phase_2,stop,250.0,250.0,4.0,,,,,,,,,white,flipped triangle
0.0,1.0,0.5,0.0,6.0,6.0,395.9692749999703,1.0,1.0,phase_2,go,300.0,250.0,1.0,,,,,,,,,cyan,circle
0.0,6.0,1.0,1.0,6.0,6.0,373.826180000151,1.0,1.0,phase_2,stop,300.0,250.0,3.0,,,,,,,,,magenta,I
0.0,6.0,1.0,1.0,5.0,5.0,548.5432290001881,1.0,1.0,phase_2,go,300.0,200.0,1.0,,,,,,,,,magenta,I
0.0,7.0,2.0,1.0,6.0,0.0,0.0,1.0,1.0,phase_2,stop,300.0,200.0,4.0,,,,,,,,,yellow,triangle
0.0,6.0,1.0,1.0,6.0,0.0,0.0,1.0,1.0,phase_2,stop,300.0,250.0,4.0,,,,,,,,,magenta,I
0.0,8.0,4.0,1.0,6.0,6.0,367.783301999907,1.0,1.0,phase_2,stop,300.0,300.0,3.0,,,,,,,,,white,flipped triangle
0.0,3.0,2.0,0.0,5.0,5.0,714.5003499999802,1.0,1.0,phase_2,go,300.0,250.0,1.0,,,,,,,,,gray,cross
0.0,8.0,4.0,1.0,6.0,0.0,0.0,1.0,1.0,phase_2,stop,300.0,250.0,4.0,,,,,,,,,white,flipped triangle
0.0,1.0,0.5,0.0,6.0,6.0,721.6701690001628,1.0,1.0,phase_2,go,300.0,300.0,1.0,,,,,,,,,cyan,circle
0.0,3.0,2.0,0.0,5.0,5.0,438.2904510000571,1.0,1.0,phase_2,go,300.0,300.0,1.0,,,,,,,,,gray,cross
0.0,8.0,4.0,1.0,5.0,0.0,0.0,1.0,1.0,phase_2,stop,300.0,300.0,4.0,,,,,,,,,white,flipped triangle
0.0,8.0,4.0,1.0,5.0,5.0,725.2213070000835,1.0,1.0,phase_2,go,350.0,300.0,1.0,,,,,,,,,white,flipped triangle
0.0,6.0,1.0,1.0,6.0,0.0,0.0,1.0,1.0,phase_2,stop,350.0,300.0,4.0,,,,,,,,,magenta,I
0.0,7.0,2.0,1.0,6.0,0.0,0.0,1.0,1.0,phase_2,stop,350.0,350.0,4.0,,,,,,,,,yellow,triangle
0.0,8.0,4.0,1.0,6.0,0.0,0.0,1.0,1.0,phase_2,stop,350.0,400.0,4.0,,,,,,,,,white,flipped triangle
0.0,6.0,1.0,1.0,6.0,6.0,692.775920000031,1.0,1.0,phase_2,go,350.0,450.0,1.0,,,,,,,,,magenta,I
0.0,2.0,1.0,0.0,6.0,6.0,677.3572429999604,1.0,1.0,phase_2,go,350.0,450.0,1.0,,,,,,,,,blue,hexagon
0.0,3.0,2.0,0.0,5.0,5.0,700.8498949999193,1.0,1.0,phase_2,go,350.0,450.0,1.0,,,,,,,,,gray,cross
0.0,5.0,0.5,1.0,5.0,5.0,475.0044550000893,1.0,1.0,phase_2,go,350.0,450.0,1.0,,,,,,,,,orange,diamond
0.0,1.0,0.5,0.0,6.0,6.0,970.6462530000408,1.0,1.0,phase_2,go,350.0,450.0,1.0,,,,,,,,,cyan,circle
0.0,5.0,0.5,1.0,5.0,0.0,0.0,1.0,1.0,phase_2,stop,350.0,450.0,4.0,,,,,,,,,orange,diamond
0.0,7.0,2.0,1.0,5.0,5.0,777.639254000178,1.0,1.0,phase_2,go,400.0,450.0,1.0,,,,,,,,,yellow,triangle
0.0,3.0,2.0,0.0,5.0,5.0,721.0510600000362,1.0,1.0,phase_2,go,400.0,450.0,1.0,,,,,,,,,gray,cross
0.0,2.0,1.0,0.0,5.0,5.0,416.0912970000936,1.0,1.0,phase_2,go,400.0,450.0,1.0,,,,,,,,,blue,hexagon
0.0,1.0,0.5,0.0,6.0,6.0,743.2051839998621,1.0,1.0,phase_2,go,400.0,450.0,1.0,,,,,,,,,cyan,circle
0.0,4.0,4.0,0.0,6.0,6.0,637.808189999987,1.0,1.0,phase_2,go,400.0,450.0,1.0,,,,,,,,,green,square
0.0,8.0,4.0,1.0,6.0,6.0,494.748780000009,1.0,1.0,phase_2,stop,400.0,450.0,3.0,,,,,,,,,white,flipped triangle
0.0,1.0,0.5,0.0,6.0,6.0,365.4346790001455,1.0,1.0,phase_2,go,400.0,400.0,1.0,,,,,,,,,cyan,circle
0.0,6.0,1.0,1.0,5.0,5.0,550.7969400000547,1.0,1.0,phase_2,go,400.0,400.0,1.0,,,,,,,,,magenta,I
0.0,1.0,0.5,0.0,5.0,5.0,468.4586639998542,1.0,1.0,phase_2,go,400.0,400.0,1.0,,,,,,,,,cyan,circle
0.0,3.0,2.0,0.0,5.0,5.0,574.0585630001078,1.0,1.0,phase_2,go,400.0,400.0,1.0,,,,,,,,,gray,cross
0.0,6.0,1.0,1.0,6.0,0.0,0.0,1.0,1.0,phase_2,stop,400.0,400.0,4.0,,,,,,,,,magenta,I
0.0,2.0,1.0,0.0,6.0,6.0,473.5463060001166,1.0,1.0,phase_2,go,400.0,450.0,1.0,,,,,,,,,blue,hexagon
0.0,4.0,4.0,0.0,5.0,5.0,395.7183210000039,1.0,1.0,phase_2,go,400.0,450.0,1.0,,,,,,,,,green,square
0.0,3.0,2.0,0.0,6.0,0.0,0.0,2.0,1.0,phase_2,go,400.0,450.0,5.0,,,,,,,,,gray,cross
0.0,3.0,2.0,0.0,6.0,6.0,411.9500150000021,2.0,1.0,phase_2,go,400.0,450.0,1.0,,,,,,,,,gray,cross
0.0,2.0,1.0,0.0,6.0,6.0,397.7970670000559,2.0,1.0,phase_2,go,400.0,450.0,1.0,,,,,,,,,blue,hexagon
0.0,7.0,2.0,1.0,6.0,6.0,285.0372660000175,2.0,1.0,phase_2,go,400.0,450.0,1.0,,,,,,,,,yellow,triangle
0.0,4.0,4.0,0.0,6.0,6.0,268.6444969999684,2.0,1.0,phase_2,go,400.0,450.0,1.0,,,,,,,,,green,square
0.0,3.0,2.0,0.0,5.0,5.0,417.1201770000152,2.0,1.0,phase_2,go,400.0,450.0,1.0,,,,,,,,,gray,cross
0.0,1.0,0.5,0.0,6.0,6.0,425.0064429998019,2.0,1.0,phase_2,go,400.0,450.0,1.0,,,,,,,,,cyan,circle
0.0,7.0,2.0,1.0,5.0,5.0,419.9722509999901,2.0,1.0,phase_2,stop,400.0,450.0,3.0,,,,,,,,,yellow,triangle
0.0,5.0,0.5,1.0,5.0,0.0,0.0,2.0,1.0,phase_2,stop,350.0,450.0,4.0,,,,,,,,,orange,diamond
0.0,4.0,4.0,0.0,5.0,5.0,408.6806249999881,2.0,1.0,phase_2,go,400.0,450.0,1.0,,,,,,,,,green,square
0.0,7.0,2.0,1.0,6.0,6.0,478.0532659999608,2.0,1.0,phase_2,stop,400.0,450.0,3.0,,,,,,,,,yellow,triangle
0.0,6.0,1.0,1.0,5.0,0.0,0.0,2.0,1.0,phase_2,stop,400.0,400.0,4.0,,,,,,,,,magenta,I
0.0,5.0,0.5,1.0,6.0,6.0,529.1997449999144,2.0,1.0,phase_2,stop,450.0,400.0,3.0,,,,,,,,,orange,diamond
0.0,5.0,0.5,1.0,5.0,5.0,661.0548129999643,2.0,1.0,phase_2,go,450.0,350.0,1.0,,,,,,,,,orange,diamond
0.0,5.0,0.5,1.0,5.0,0.0,0.0,2.0,1.0,phase_2,stop,450.0,350.0,4.0,,,,,,,,,orange,diamond
0.0,3.0,2.0,0.0,6.0,6.0,923.4591320000618,2.0,1.0,phase_2,go,500.0,350.0,1.0,,,,,,,,,gray,cross
0.0,7.0,2.0,1.0,5.0,5.0,718.9384050000172,2.0,1.0,phase_2,go,500.0,350.0,1.0,,,,,,,,,yellow,triangle
0.0,8.0,4.0,1.0,6.0,0.0,0.0,2.0,1.0,phase_2,stop,500.0,350.0,4.0,,,,,,,,,white,flipped triangle
0.0,5.0,0.5,1.0,6.0,6.0,756.4750260000892,2.0,1.0,phase_2,go,500.0,400.0,1.0,,,,,,,,,orange,diamond
0.0,1.0,0.5,0.0,5.0,5.0,580.510717000152,2.0,1.0,phase_2,go,500.0,400.0,1.0,,,,,,,,,cyan,circle
0.0,4.0,4.0,0.0,5.0,5.0,379.5167770001626,2.0,1.0,phase_2,go,500.0,400.0,1.0,,,,,,,,,green,square
0.0,4.0,4.0,0.0,6.0,6.0,698.0708419998791,2.0,1.0,phase_2,go,500.0,400.0,1.0,,,,,,,,,green,square
0.0,2.0,1.0,0.0,6.0,6.0,691.4250869999705,2.0,1.0,phase_2,go,500.0,400.0,1.0,,,,,,,,,blue,hexagon
0.0,1.0,0.5,0.0,6.0,6.0,577.3651150000205,2.0,1.0,phase_2,go,500.0,400.0,1.0,,,,,,,,,cyan,circle
0.0,4.0,4.0,0.0,6.0,6.0,577.2506230000545,2.0,1.0,phase_2,go,500.0,400.0,1.0,,,,,,,,,green,square
0.0,6.0,1.0,1.0,5.0,0.0,0.0,2.0,1.0,phase_2,stop,500.0,400.0,4.0,,,,,,,,,magenta,I
0.0,7.0,2.0,1.0,6.0,0.0,0.0,2.0,1.0,phase_2,stop,550.0,400.0,4.0,,,,,,,,,yellow,triangle
0.0,4.0,4.0,0.0,5.0,5.0,464.5245100000466,2.0,1.0,phase_2,go,550.0,450.0,1.0,,,,,,,,,green,square
0.0,3.0,2.0,0.0,5.0,5.0,637.2013160000733,2.0,1.0,phase_2,go,550.0,450.0,1.0,,,,,,,,,gray,cross
0.0,7.0,2.0,1.0,6.0,0.0,0.0,2.0,1.0,phase_2,stop,550.0,450.0,4.0,,,,,,,,,yellow,triangle
0.0,3.0,2.0,0.0,6.0,6.0,686.093547000155,2.0,1.0,phase_2,go,550.0,500.0,1.0,,,,,,,,,gray,cross
0.0,5.0,0.5,1.0,5.0,5.0,486.1917979999361,2.0,1.0,phase_2,stop,550.0,500.0,3.0,,,,,,,,,orange,diamond
0.0,8.0,4.0,1.0,6.0,0.0,0.0,2.0,1.0,phase_2,stop,500.0,500.0,4.0,,,,,,,,,white,flipped triangle
0.0,4.0,4.0,0.0,6.0,6.0,593.7855520000994,2.0,1.0,phase_2,go,500.0,550.0,1.0,,,,,,,,,green,square
0.0,4.0,4.0,0.0,5.0,5.0,466.9376819999797,2.0,1.0,phase_2,go,500.0,550.0,1.0,,,,,,,,,green,square
0.0,5.0,0.5,1.0,6.0,6.0,488.9356809999299,2.0,1.0,phase_2,go,500.0,550.0,1.0,,,,,,,,,orange,diamond
0.0,6.0,1.0,1.0,6.0,0.0,0.0,3.0,1.0,phase_2,stop,500.0,550.0,4.0,,,,,,,,,magenta,I
0.0,8.0,4.0,1.0,6.0,6.0,428.06135800015,3.0,1.0,phase_2,stop,500.0,600.0,3.0,,,,,,,,,white,flipped triangle
0.0,8.0,4.0,1.0,5.0,5.0,435.5996490000962,3.0,1.0,phase_2,go,500.0,550.0,1.0,,,,,,,,,white,flipped triangle
0.0,5.0,0.5,1.0,5.0,5.0,387.1806790000391,3.0,1.0,phase_2,stop,500.0,550.0,3.0,,,,,,,,,orange,diamond
0.0,5.0,0.5,1.0,6.0,6.0,780.4840219998823,3.0,1.0,phase_2,go,450.0,550.0,1.0,,,,,,,,,orange,diamond
0.0,1.0,0.5,0.0,6.0,6.0,645.3353709998737,3.0,1.0,phase_2,go,450.0,550.0,1.0,,,,,,,,,cyan,circle
0.0,8.0,4.0,1.0,5.0,0.0,0.0,3.0,1.0,phase_2,stop,450.0,550.0,4.0,,,,,,,,,white,flipped triangle
0.0,6.0,1.0,1.0,5.0,5.0,579.9396260001686,3.0,1.0,phase_2,go,500.0,550.0,1.0,,,,,,,,,magenta,I
0.0,7.0,2.0,1.0,6.0,6.0,538.135235000027,3.0,1.0,phase_2,stop,500.0,550.0,3.0,,,,,,,,,yellow,triangle
0.0,8.0,4.0,1.0,5.0,0.0,0.0,3.0,1.0,phase_2,stop,500.0,500.0,4.0,,,,,,,,,white,flipped triangle
0.0,5.0,0.5,1.0,6.0,6.0,559.7293560001617,3.0,1.0,phase_2,stop,550.0,500.0,3.0,,,,,,,,,orange,diamond
0.0,8.0,4.0,1.0,5.0,5.0,774.4368920000397,3.0,1.0,phase_2,go,550.0,450.0,1.0,,,,,,,,,white,flipped triangle
0.0,6.0,1.0,1.0,6.0,0.0,0.0,3.0,1.0,phase_2,stop,550.0,450.0,4.0,,,,,,,,,magenta,I
0.0,3.0,2.0,0.0,6.0,6.0,857.0060609999928,3.0,1.0,phase_2,go,550.0,500.0,1.0,,,,,,,,,gray,cross
0.0,1.0,0.5,0.0,5.0,5.0,797.3316459999751,3.0,1.0,phase_2,go,550.0,500.0,1.0,,,,,,,,,cyan,circle
0.0,5.0,0.5,1.0,6.0,6.0,581.2976660001823,3.0,1.0,phase_2,stop,550.0,500.0,3.0,,,,,,,,,orange,diamond
0.0,3.0,2.0,0.0,6.0,6.0,669.0969329999916,3.0,1.0,phase_2,go,550.0,450.0,1.0,,,,,,,,,gray,cross
0.0,3.0,2.0,0.0,6.0,6.0,654.4862860000649,3.0,1.0,phase_2,go,550.0,450.0,1.0,,,,,,,,,gray,cross
0.0,4.0,4.0,0.0,6.0,6.0,710.1668350001091,3.0,1.0,phase_2,go,550.0,450.0,1.0,,,,,,,,,green,square
0.0,6.0,1.0,1.0,5.0,5.0,652.7251559998604,3.0,1.0,phase_2,stop,550.0,450.0,3.0,,,,,,,,,magenta,I
0.0,2.0,1.0,0.0,5.0,5.0,849.739290000116,3.0,1.0,phase_2,go,500.0,450.0,1.0,,,,,,,,,blue,hexagon
0.0,3.0,2.0,0.0,6.0,6.0,819.2077349999636,3.0,1.0,phase_2,go,500.0,450.0,1.0,,,,,,,,,gray,cross
0.0,1.0,0.5,0.0,5.0,5.0,723.1094010001016,3.0,1.0,phase_2,go,500.0,450.0,1.0,,,,,,,,,cyan,circle
0.0,6.0,1.0,1.0,6.0,0.0,0.0,3.0,1.0,phase_2,stop,500.0,450.0,4.0,,,,,,,,,magenta,I
0.0,3.0,2.0,0.0,6.0,6.0,777.2732380001344,3.0,1.0,phase_2,go,500.0,500.0,1.0,,,,,,,,,gray,cross
0.0,5.0,0.5,1.0,6.0,0.0,0.0,3.0,1.0,phase_2,stop,500.0,500.0,4.0,,,,,,,,,orange,diamond
0.0,6.0,1.0,1.0,5.0,0.0,0.0,3.0,1.0,phase_2,stop,500.0,550.0,4.0,,,,,,,,,magenta,I
0.0,6.0,1.0,1.0,6.0,0.0,0.0,3.0,1.0,phase_2,stop,550.0,550.0,4.0,,,,,,,,,magenta,I
0.0,2.0,1.0,0.0,5.0,5.0,864.6201579999797,3.0,1.0,phase_2,go,550.0,600.0,1.0,,,,,,,,,blue,hexagon
0.0,1.0,0.5,0.0,6.0,6.0,854.6415910000178,3.0,1.0,phase_2,go,550.0,600.0,1.0,,,,,,,,,cyan,circle
0.0,7.0,2.0,1.0,5.0,5.0,748.6025959999552,3.0,1.0,phase_2,go,550.0,600.0,1.0,,,,,,,,,yellow,triangle
0.0,4.0,4.0,0.0,6.0,6.0,605.9370250000029,3.0,1.0,phase_2,go,550.0,600.0,1.0,,,,,,,,,green,square
0.0,8.0,4.0,1.0,6.0,6.0,750.8686929998021,3.0,1.0,phase_2,stop,550.0,600.0,3.0,,,,,,,,,white,flipped triangle
0.0,2.0,1.0,0.0,5.0,5.0,749.405951999961,3.0,1.0,phase_2,go,550.0,550.0,1.0,,,,,,,,,blue,hexagon
0.0,4.0,4.0,0.0,6.0,6.0,932.868211000141,3.0,1.0,phase_2,go,550.0,550.0,1.0,,,,,,,,,green,square
0.0,1.0,0.5,0.0,6.0,6.0,930.489304000048,3.0,1.0,phase_2,go,550.0,550.0,1.0,,,,,,,,,cyan,circle
0.0,4.0,4.0,0.0,5.0,5.0,1110.9069470001032,4.0,1.0,phase_2,go,550.0,550.0,1.0,,,,,,,,,green,square
0.0,4.0,4.0,0.0,5.0,5.0,414.8479380000935,4.0,1.0,phase_2,go,550.0,550.0,1.0,,,,,,,,,green,square
0.0,2.0,1.0,0.0,6.0,6.0,454.3982250002045,4.0,1.0,phase_2,go,550.0,550.0,1.0,,,,,,,,,blue,hexagon
0.0,5.0,0.5,1.0,6.0,6.0,520.8373079999546,4.0,1.0,phase_2,go,550.0,550.0,1.0,,,,,,,,,orange,diamond
0.0,8.0,4.0,1.0,5.0,5.0,431.3106319998496,4.0,1.0,phase_2,stop,550.0,550.0,3.0,,,,,,,,,white,flipped triangle
0.0,8.0,4.0,1.0,5.0,5.0,613.5144340000807,4.0,1.0,phase_2,go,500.0,550.0,1.0,,,,,,,,,white,flipped triangle
0.0,5.0,0.5,1.0,5.0,0.0,0.0,4.0,1.0,phase_2,stop,500.0,550.0,4.0,,,,,,,,,orange,diamond
0.0,3.0,2.0,0.0,6.0,6.0,668.6862990000009,4.0,1.0,phase_2,go,550.0,550.0,1.0,,,,,,,,,gray,cross
0.0,7.0,2.0,1.0,5.0,5.0,574.0183619998334,4.0,1.0,phase_2,stop,550.0,550.0,3.0,,,,,,,,,yellow,triangle
0.0,4.0,4.0,0.0,5.0,5.0,676.1936969999169,4.0,1.0,phase_2,go,500.0,550.0,1.0,,,,,,,,,green,square
0.0,1.0,0.5,0.0,5.0,5.0,632.9857699997774,4.0,1.0,phase_2,go,500.0,550.0,1.0,,,,,,,,,cyan,circle
0.0,7.0,2.0,1.0,5.0,5.0,770.912325999916,4.0,1.0,phase_2,go,500.0,550.0,1.0,,,,,,,,,yellow,triangle
0.0,6.0,1.0,1.0,6.0,6.0,690.3047889998106,4.0,1.0,phase_2,go,500.0,550.0,1.0,,,,,,,,,magenta,I
0.0,2.0,1.0,0.0,6.0,6.0,689.5184009999866,4.0,1.0,phase_2,go,500.0,550.0,1.0,,,,,,,,,blue,hexagon
0.0,5.0,0.5,1.0,6.0,6.0,657.1733160001259,4.0,1.0,phase_2,stop,500.0,550.0,3.0,,,,,,,,,orange,diamond
0.0,8.0,4.0,1.0,5.0,5.0,792.0374770001217,4.0,1.0,phase_2,go,500.0,500.0,1.0,,,,,,,,,white,flipped triangle
0.0,2.0,1.0,0.0,5.0,5.0,1038.7740420001137,4.0,1.0,phase_2,go,500.0,500.0,1.0,,,,,,,,,blue,hexagon
0.0,7.0,2.0,1.0,6.0,0.0,0.0,4.0,1.0,phase_2,stop,500.0,500.0,4.0,,,,,,,,,yellow,triangle
0.0,6.0,1.0,1.0,5.0,5.0,711.60772799999,4.0,1.0,phase_2,go,500.0,550.0,1.0,,,,,,,,,magenta,I
0.0,7.0,2.0,1.0,5.0,5.0,580.3756850000354,4.0,1.0,phase_2,go,500.0,550.0,1.0,,,,,,,,,yellow,triangle
0.0,4.0,4.0,0.0,5.0,5.0,645.0654389998363,4.0,1.0,phase_2,go,500.0,550.0,1.0,,,,,,,,,green,square
0.0,5.0,0.5,1.0,5.0,5.0,595.7586580000225,4.0,1.0,phase_2,stop,500.0,550.0,3.0,,,,,,,,,orange,diamond
0.0,4.0,4.0,0.0,5.0,5.0,700.3829630000382,4.0,1.0,phase_2,go,450.0,550.0,1.0,,,,,,,,,green,square
0.0,2.0,1.0,0.0,5.0,5.0,906.7414060000374,4.0,1.0,phase_2,go,450.0,550.0,1.0,,,,,,,,,blue,hexagon
0.0,2.0,1.0,0.0,5.0,5.0,1002.1476879999227,4.0,1.0,phase_2,go,450.0,550.0,1.0,,,,,,,,,blue,hexagon
0.0,6.0,1.0,1.0,5.0,0.0,0.0,4.0,1.0,phase_2,stop,450.0,550.0,4.0,,,,,,,,,magenta,I
0.0,2.0,1.0,0.0,6.0,6.0,696.9635130001279,4.0,1.0,phase_2,go,500.0,550.0,1.0,,,,,,,,,blue,hexagon
0.0,8.0,4.0,1.0,5.0,0.0,0.0,4.0,1.0,phase_2,stop,500.0,550.0,4.0,,,,,,,,,white,flipped triangle
0.0,1.0,0.5,0.0,6.0,6.0,504.08409300007406,4.0,1.0,phase_2,go,550.0,550.0,1.0,,,,,,,,,cyan,circle
0.0,3.0,2.0,0.0,5.0,5.0,666.6157569998177,4.0,1.0,phase_2,go,550.0,550.0,1.0,,,,,,,,,gray,cross
0.0,4.0,4.0,0.0,6.0,6.0,663.276881999991,4.0,1.0,phase_2,go,550.0,550.0,1.0,,,,,,,,,green,square
0.0,1.0,0.5,0.0,5.0,5.0,597.6745799998753,4.0,1.0,phase_2,go,550.0,550.0,1.0,,,,,,,,,cyan,circle
0.0,3.0,2.0,0.0,5.0,5.0,681.3516829997752,4.0,1.0,phase_2,go,550.0,550.0,1.0,,,,,,,,,gray,cross
0.0,6.0,1.0,1.0,5.0,5.0,570.8567289998427,4.0,1.0,phase_2,stop,550.0,550.0,3.0,,,,,,,,,magenta,I
0.0,8.0,4.0,1.0,5.0,5.0,781.9516869999461,4.0,1.0,phase_2,go,500.0,550.0,1.0,,,,,,,,,white,flipped triangle
0.0,1.0,0.5,0.0,5.0,5.0,965.0151529999677,4.0,1.0,phase_2,go,500.0,550.0,1.0,,,,,,,,,cyan,circle
0.0,7.0,2.0,1.0,5.0,0.0,0.0,5.0,1.0,phase_2,stop,500.0,550.0,4.0,,,,,,,,,yellow,triangle
0.0,2.0,1.0,0.0,6.0,6.0,579.106880999916,5.0,1.0,phase_2,go,550.0,550.0,1.0,,,,,,,,,blue,hexagon
0.0,6.0,1.0,1.0,6.0,6.0,617.2579349999978,5.0,1.0,phase_2,stop,550.0,550.0,3.0,,,,,,,,,magenta,I
0.0,8.0,4.0,1.0,6.0,0.0,0.0,5.0,1.0,phase_2,stop,550.0,500.0,4.0,,,,,,,,,white,flipped triangle
0.0,7.0,2.0,1.0,6.0,6.0,583.610402999966,5.0,1.0,phase_2,stop,550.0,550.0,3.0,,,,,,,,,yellow,triangle
0.0,2.0,1.0,0.0,5.0,5.0,615.1464399999895,5.0,1.0,phase_2,go,550.0,500.0,1.0,,,,,,,,,blue,hexagon
0.0,3.0,2.0,0.0,5.0,5.0,472.5797900000543,5.0,1.0,phase_2,go,550.0,500.0,1.0,,,,,,,,,gray,cross
0.0,2.0,1.0,0.0,5.0,5.0,649.5828639999672,5.0,1.0,phase_2,go,550.0,500.0,1.0,,,,,,,,,blue,hexagon
0.0,5.0,0.5,1.0,6.0,0.0,0.0,5.0,1.0,phase_2,stop,550.0,500.0,4.0,,,,,,,,,orange,diamond
0.0,7.0,2.0,1.0,6.0,0.0,0.0,5.0,1.0,phase_2,stop,550.0,550.0,4.0,,,,,,,,,yellow,triangle
0.0,1.0,0.5,0.0,6.0,6.0,934.5553260000088,5.0,1.0,phase_2,go,550.0,600.0,1.0,,,,,,,,,cyan,circle
0.0,8.0,4.0,1.0,5.0,5.0,366.7058940000061,5.0,1.0,phase_2,go,550.0,600.0,1.0,,,,,,,,,white,flipped triangle
0.0,2.0,1.0,0.0,6.0,6.0,531.3273510000727,5.0,1.0,phase_2,go,550.0,600.0,1.0,,,,,,,,,blue,hexagon
0.0,2.0,1.0,0.0,5.0,5.0,606.7824770002517,5.0,1.0,phase_2,go,550.0,600.0,1.0,,,,,,,,,blue,hexagon
0.0,3.0,2.0,0.0,6.0,6.0,350.8087820000583,5.0,1.0,phase_2,go,550.0,600.0,1.0,,,,,,,,,gray,cross
0.0,8.0,4.0,1.0,5.0,5.0,571.9557719999102,5.0,1.0,phase_2,stop,550.0,600.0,3.0,,,,,,,,,white,flipped triangle
0.0,7.0,2.0,1.0,5.0,5.0,704.7658460001003,5.0,1.0,phase_2,go,500.0,600.0,1.0,,,,,,,,,yellow,triangle
0.0,6.0,1.0,1.0,5.0,0.0,0.0,5.0,1.0,phase_2,stop,500.0,600.0,4.0,,,,,,,,,magenta,I
0.0,2.0,1.0,0.0,5.0,5.0,672.895884999889,5.0,1.0,phase_2,go,550.0,600.0,1.0,,,,,,,,,blue,hexagon
0.0,7.0,2.0,1.0,6.0,6.0,440.2409039998929,5.0,1.0,phase_2,go,550.0,600.0,1.0,,,,,,,,,yellow,triangle
0.0,6.0,1.0,1.0,5.0,0.0,0.0,5.0,1.0,phase_2,stop,550.0,600.0,4.0,,,,,,,,,magenta,I
0.0,2.0,1.0,0.0,5.0,5.0,794.1173440003695,5.0,1.0,phase_2,go,600.0,600.0,1.0,,,,,,,,,blue,hexagon
0.0,1.0,0.5,0.0,5.0,5.0,614.4738999996662,5.0,1.0,phase_2,go,600.0,600.0,1.0,,,,,,,,,cyan,circle
0.0,4.0,4.0,0.0,5.0,5.0,805.2441590002672,5.0,1.0,phase_2,go,600.0,600.0,1.0,,,,,,,,,green,square
0.0,7.0,2.0,1.0,6.0,0.0,0.0,5.0,1.0,phase_2,stop,600.0,600.0,4.0,,,,,,,,,yellow,triangle
0.0,1.0,0.5,0.0,5.0,5.0,542.3310789997231,5.0,1.0,phase_2,go,600.0,650.0,1.0,,,,,,,,,cyan,circle
0.0,5.0,0.5,1.0,6.0,6.0,627.6805960001184,5.0,1.0,phase_2,stop,600.0,650.0,3.0,,,,,,,,,orange,diamond
0.0,8.0,4.0,1.0,5.0,0.0,0.0,5.0,1.0,phase_2,stop,600.0,600.0,4.0,,,,,,,,,white,flipped triangle
0.0,8.0,4.0,1.0,5.0,5.0,482.6226679997489,5.0,1.0,phase_2,stop,650.0,600.0,3.0,,,,,,,,,white,flipped triangle
0.0,8.0,4.0,1.0,6.0,6.0,706.0266079997746,5.0,1.0,phase_2,go,600.0,600.0,1.0,,,,,,,,,white,flipped triangle
0.0,5.0,0.5,1.0,6.0,0.0,0.0,5.0,1.0,phase_2,stop,600.0,600.0,4.0,,,,,,,,,orange,diamond
0.0,8.0,4.0,1.0,6.0,0.0,0.0,5.0,1.0,phase_2,stop,600.0,650.0,4.0,,,,,,,,,white,flipped triangle
0.0,4.0,4.0,0.0,5.0,5.0,608.2772559998375,5.0,1.0,phase_2,go,600.0,700.0,1.0,,,,,,,,,green,square
0.0,8.0,4.0,1.0,5.0,5.0,657.425762999992,5.0,1.0,phase_2,stop,600.0,700.0,3.0,,,,,,,,,white,flipped triangle
0.0,2.0,1.0,0.0,5.0,5.0,1191.6308170002594,5.0,1.0,phase_2,go,550.0,700.0,1.0,,,,,,,,,blue,hexagon
0.0,2.0,1.0,0.0,5.0,5.0,712.565122000342,5.0,1.0,phase_2,go,550.0,700.0,1.0,,,,,,,,,blue,hexagon
0.0,5.0,0.5,1.0,6.0,6.0,783.7683440002365,6.0,1.0,phase_2,stop,550.0,700.0,3.0,,,,,,,,,orange,diamond
0.0,7.0,2.0,1.0,6.0,6.0,678.602802000114,6.0,1.0,phase_2,stop,550.0,650.0,3.0,,,,,,,,,yellow,triangle
0.0,7.0,2.0,1.0,5.0,0.0,0.0,6.0,1.0,phase_2,stop,550.0,600.0,4.0,,,,,,,,,yellow,triangle
0.0,4.0,4.0,0.0,6.0,6.0,691.4743809998072,6.0,1.0,phase_2,go,600.0,600.0,1.0,,,,,,,,,green,square
0.0,5.0,0.5,1.0,5.0,0.0,0.0,6.0,1.0,phase_2,stop,600.0,600.0,4.0,,,,,,,,,orange,diamond
0.0,4.0,4.0,0.0,6.0,6.0,779.4754039996405,6.0,1.0,phase_2,go,650.0,600.0,1.0,,,,,,,,,green,square
0.0,6.0,1.0,1.0,5.0,5.0,675.2843770000254,6.0,1.0,phase_2,stop,650.0,600.0,3.0,,,,,,,,,magenta,I
0.0,6.0,1.0,1.0,6.0,0.0,0.0,6.0,1.0,phase_2,stop,600.0,600.0,4.0,,,,,,,,,magenta,I
0.0,5.0,0.5,1.0,5.0,0.0,0.0,6.0,1.0,phase_2,stop,600.0,650.0,4.0,,,,,,,,,orange,diamond
0.0,1.0,0.5,0.0,5.0,5.0,738.4152019999419,6.0,1.0,phase_2,go,650.0,650.0,1.0,,,,,,,,,cyan,circle
0.0,7.0,2.0,1.0,5.0,0.0,0.0,6.0,1.0,phase_2,stop,650.0,650.0,4.0,,,,,,,,,yellow,triangle
0.0,2.0,1.0,0.0,6.0,6.0,785.2922619999845,6.0,1.0,phase_2,go,700.0,650.0,1.0,,,,,,,,,blue,hexagon
0.0,6.0,1.0,1.0,6.0,0.0,0.0,6.0,1.0,phase_2,stop,700.0,650.0,4.0,,,,,,,,,magenta,I
0.0,8.0,4.0,1.0,6.0,0.0,0.0,6.0,1.0,phase_2,stop,700.0,700.0,4.0,,,,,,,,,white,flipped triangle
0.0,2.0,1.0,0.0,6.0,6.0,782.6060639999923,6.0,1.0,phase_2,go,700.0,750.0,1.0,,,,,,,,,blue,hexagon
0.0,1.0,0.5,0.0,6.0,6.0,833.129740000004,6.0,1.0,phase_2,go,700.0,750.0,1.0,,,,,,,,,cyan,circle
0.0,6.0,1.0,1.0,6.0,6.0,758.8644989996283,6.0,1.0,phase_2,go,700.0,750.0,1.0,,,,,,,,,magenta,I
0.0,5.0,0.5,1.0,5.0,5.0,846.1020440004177,6.0,1.0,phase_2,stop,700.0,750.0,3.0,,,,,,,,,orange,diamond
0.0,5.0,0.5,1.0,6.0,6.0,686.0199210000246,6.0,1.0,phase_2,stop,650.0,750.0,3.0,,,,,,,,,orange,diamond
0.0,4.0,4.0,0.0,5.0,5.0,870.972189999975,6.0,1.0,phase_2,go,650.0,700.0,1.0,,,,,,,,,green,square
0.0,7.0,2.0,1.0,6.0,0.0,0.0,6.0,1.0,phase_2,stop,650.0,700.0,4.0,,,,,,,,,yellow,triangle
0.0,7.0,2.0,1.0,5.0,0.0,0.0,6.0,1.0,phase_2,stop,650.0,750.0,4.0,,,,,,,,,yellow,triangle
0.0,8.0,4.0,1.0,6.0,0.0,0.0,6.0,1.0,phase_2,stop,700.0,750.0,4.0,,,,,,,,,white,flipped triangle
0.0,3.0,2.0,0.0,6.0,6.0,1043.451344999994,6.0,1.0,phase_2,go,700.0,800.0,1.0,,,,,,,,,gray,cross
0.0,7.0,2.0,1.0,5.0,5.0,842.2011530001328,6.0,1.0,phase_2,stop,700.0,800.0,3.0,,,,,,,,,yellow,triangle
0.0,3.0,2.0,0.0,5.0,5.0,888.0286769999657,6.0,1.0,phase_2,go,650.0,800.0,1.0,,,,,,,,,gray,cross
0.0,6.0,1.0,1.0,5.0,0.0,0.0,6.0,1.0,phase_2,stop,650.0,800.0,4.0,,,,,,,,,magenta,I
0.0,2.0,1.0,0.0,5.0,5.0,967.0662240000638,6.0,1.0,phase_2,go,700.0,800.0,1.0,,,,,,,,,blue,hexagon
0.0,5.0,0.5,1.0,5.0,5.0,910.776407999947,6.0,1.0,phase_2,go,700.0,800.0,1.0,,,,,,,,,orange,diamond
0.0,6.0,1.0,1.0,5.0,5.0,808.602307000001,6.0,1.0,phase_2,stop,700.0,800.0,3.0,,,,,,,,,magenta,I
0.0,1.0,0.5,0.0,5.0,5.0,1060.5852989997402,6.0,1.0,phase_2,go,650.0,800.0,1.0,,,,,,,,,cyan,circle
0.0,6.0,1.0,1.0,6.0,6.0,901.8680809999752,6.0,1.0,phase_2,stop,650.0,800.0,3.0,,,,,,,,,magenta,I
0.0,6.0,1.0,1.0,6.0,6.0,661.7285840002296,6.0,1.0,phase_2,stop,650.0,750.0,3.0,,,,,,,,,magenta,I
0.0,2.0,1.0,0.0,5.0,5.0,699.5419350000702,6.0,1.0,phase_2,go,650.0,700.0,1.0,,,,,,,,,blue,hexagon
0.0,6.0,1.0,1.0,5.0,0.0,0.0,6.0,1.0,phase_2,stop,650.0,700.0,4.0,,,,,,,,,magenta,I
0.0,3.0,2.0,0.0,5.0,5.0,738.3970179998869,6.0,1.0,phase_2,go,700.0,700.0,1.0,,,,,,,,,gray,cross
0.0,6.0,1.0,1.0,6.0,6.0,1052.173946000039,7.0,1.0,phase_2,go,700.0,700.0,1.0,,,,,,,,,magenta,I
0.0,3.0,2.0,0.0,6.0,6.0,716.4628890000131,7.0,1.0,phase_2,go,700.0,700.0,1.0,,,,,,,,,gray,cross
0.0,2.0,1.0,0.0,6.0,6.0,587.9155149996222,7.0,1.0,phase_2,go,700.0,700.0,1.0,,,,,,,,,blue,hexagon
0.0,8.0,4.0,1.0,6.0,6.0,694.6229909999602,7.0,1.0,phase_2,stop,700.0,700.0,3.0,,,,,,,,,white,flipped triangle
0.0,2.0,1.0,0.0,6.0,6.0,913.8448710000376,7.0,1.0,phase_2,go,700.0,650.0,1.0,,,,,,,,,blue,hexagon
0.0,3.0,2.0,0.0,6.0,6.0,923.4474310001132,7.0,1.0,phase_2,go,700.0,650.0,1.0,,,,,,,,,gray,cross
0.0,4.0,4.0,0.0,6.0,6.0,924.023237000256,7.0,1.0,phase_2,go,700.0,650.0,1.0,,,,,,,,,green,square
0.0,3.0,2.0,0.0,6.0,6.0,595.5696769997303,7.0,1.0,phase_2,go,700.0,650.0,1.0,,,,,,,,,gray,cross
0.0,1.0,0.5,0.0,5.0,5.0,640.5642510003418,7.0,1.0,phase_2,go,700.0,650.0,1.0,,,,,,,,,cyan,circle
0.0,8.0,4.0,1.0,6.0,0.0,0.0,7.0,1.0,phase_2,stop,700.0,650.0,4.0,,,,,,,,,white,flipped triangle
0.0,7.0,2.0,1.0,6.0,0.0,0.0,7.0,1.0,phase_2,stop,700.0,700.0,4.0,,,,,,,,,yellow,triangle
0.0,4.0,4.0,0.0,5.0,5.0,1026.3753819999692,7.0,1.0,phase_2,go,700.0,750.0,1.0,,,,,,,,,green,square
0.0,7.0,2.0,1.0,5.0,0.0,0.0,7.0,1.0,phase_2,stop,700.0,750.0,4.0,,,,,,,,,yellow,triangle
0.0,1.0,0.5,0.0,6.0,6.0,944.2548629999692,7.0,1.0,phase_2,go,750.0,750.0,1.0,,,,,,,,,cyan,circle
0.0,3.0,2.0,0.0,6.0,6.0,908.457267000358,7.0,1.0,phase_2,go,750.0,750.0,1.0,,,,,,,,,gray,cross
0.0,6.0,1.0,1.0,6.0,6.0,900.0042639995627,7.0,1.0,phase_2,go,750.0,750.0,1.0,,,,,,,,,magenta,I
0.0,8.0,4.0,1.0,6.0,6.0,805.076979000205,7.0,1.0,phase_2,go,750.0,750.0,1.0,,,,,,,,,white,flipped triangle
0.0,2.0,1.0,0.0,6.0,6.0,774.9296619999768,7.0,1.0,phase_2,go,750.0,750.0,1.0,,,,,,,,,blue,hexagon
0.0,6.0,1.0,1.0,5.0,0.0,0.0,7.0,1.0,phase_2,stop,750.0,750.0,4.0,,,,,,,,,magenta,I
0.0,1.0,0.5,0.0,5.0,5.0,708.0363699997179,7.0,1.0,phase_2,go,800.0,750.0,1.0,,,,,,,,,cyan,circle
0.0,5.0,0.5,1.0,5.0,5.0,681.4671430001908,7.0,1.0,phase_2,go,800.0,750.0,1.0,,,,,,,,,orange,diamond
0.0,6.0,1.0,1.0,5.0,5.0,594.7201889998723,7.0,1.0,phase_2,stop,800.0,750.0,3.0,,,,,,,,,magenta,I
0.0,1.0,0.5,0.0,6.0,6.0,652.1638180001901,7.0,1.0,phase_2,go,750.0,750.0,1.0,,,,,,,,,cyan,circle
0.0,7.0,2.0,1.0,6.0,6.0,674.8664080000708,7.0,1.0,phase_2,stop,750.0,750.0,3.0,,,,,,,,,yellow,triangle
0.0,2.0,1.0,0.0,6.0,6.0,931.145176999962,7.0,1.0,phase_2,go,750.0,700.0,1.0,,,,,,,,,blue,hexagon
0.0,8.0,4.0,1.0,6.0,0.0,0.0,7.0,1.0,phase_2,stop,750.0,700.0,4.0,,,,,,,,,white,flipped triangle
0.0,4.0,4.0,0.0,6.0,6.0,1237.945175999812,7.0,1.0,phase_2,go,750.0,750.0,1.0,,,,,,,,,green,square
0.0,3.0,2.0,0.0,5.0,5.0,895.5675720003455,7.0,1.0,phase_2,go,750.0,750.0,1.0,,,,,,,,,gray,cross
0.0,2.0,1.0,0.0,5.0,5.0,766.9179679996887,7.0,1.0,phase_2,go,750.0,750.0,1.0,,,,,,,,,blue,hexagon
0.0,8.0,4.0,1.0,5.0,5.0,822.3151550000694,7.0,1.0,phase_2,stop,750.0,750.0,3.0,,,,,,,,,white,flipped triangle
0.0,5.0,0.5,1.0,6.0,6.0,717.4625560001004,7.0,1.0,phase_2,stop,700.0,750.0,3.0,,,,,,,,,orange,diamond
0.0,1.0,0.5,0.0,6.0,6.0,1030.96051600005,7.0,1.0,phase_2,go,700.0,700.0,1.0,,,,,,,,,cyan,circle
0.0,3.0,2.0,0.0,5.0,5.0,810.9714520001035,7.0,1.0,phase_2,go,700.0,700.0,1.0,,,,,,,,,gray,cross
0.0,7.0,2.0,1.0,5.0,0.0,0.0,7.0,1.0,phase_2,stop,700.0,700.0,4.0,,,,,,,,,yellow,triangle
0.0,5.0,0.5,1.0,5.0,5.0,868.7733829997342,7.0,1.0,phase_2,stop,750.0,700.0,3.0,,,,,,,,,orange,diamond
0.0,4.0,4.0,0.0,6.0,6.0,954.9809860000096,7.0,1.0,phase_2,go,700.0,700.0,1.0,,,,,,,,,green,square
0.0,7.0,2.0,1.0,5.0,5.0,776.5742249998766,8.0,1.0,phase_2,stop,700.0,700.0,3.0,,,,,,,,,yellow,triangle
0.0,2.0,1.0,0.0,6.0,6.0,353.7658990003365,8.0,1.0,phase_2,go,650.0,700.0,1.0,,,,,,,,,blue,hexagon
0.0,4.0,4.0,0.0,5.0,5.0,839.7180160000062,8.0,1.0,phase_2,go,650.0,700.0,1.0,,,,,,,,,green,square
0.0,5.0,0.5,1.0,6.0,0.0,0.0,8.0,1.0,phase_2,stop,650.0,700.0,4.0,,,,,,,,,orange,diamond
0.0,4.0,4.0,0.0,6.0,6.0,1329.7167569999149,8.0,1.0,phase_2,go,650.0,750.0,1.0,,,,,,,,,green,square
0.0,4.0,4.0,0.0,6.0,6.0,998.9779700003965,8.0,1.0,phase_2,go,650.0,750.0,1.0,,,,,,,,,green,square
0.0,7.0,2.0,1.0,5.0,0.0,0.0,8.0,1.0,phase_2,stop,650.0,750.0,4.0,,,,,,,,,yellow,triangle
0.0,5.0,0.5,1.0,6.0,0.0,0.0,8.0,1.0,phase_2,stop,700.0,750.0,4.0,,,,,,,,,orange,diamond
0.0,4.0,4.0,0.0,5.0,5.0,971.3381029996526,8.0,1.0,phase_2,go,700.0,800.0,1.0,,,,,,,,,green,square
0.0,8.0,4.0,1.0,6.0,0.0,0.0,8.0,1.0,phase_2,stop,700.0,800.0,4.0,,,,,,,,,white,flipped triangle
0.0,2.0,1.0,0.0,6.0,6.0,1195.0938149998365,8.0,1.0,phase_2,go,700.0,850.0,1.0,,,,,,,,,blue,hexagon
0.0,4.0,4.0,0.0,6.0,6.0,1021.3505779997831,8.0,1.0,phase_2,go,700.0,850.0,1.0,,,,,,,,,green,square
0.0,5.0,0.5,1.0,5.0,0.0,0.0,8.0,1.0,phase_2,stop,700.0,850.0,4.0,,,,,,,,,orange,diamond
0.0,1.0,0.5,0.0,5.0,5.0,728.8531610001883,8.0,1.0,phase_2,go,750.0,850.0,1.0,,,,,,,,,cyan,circle
0.0,3.0,2.0,0.0,5.0,5.0,796.3448120003704,8.0,1.0,phase_2,go,750.0,850.0,1.0,,,,,,,,,gray,cross
0.0,1.0,0.5,0.0,5.0,5.0,538.4021330000905,8.0,1.0,phase_2,go,750.0,850.0,1.0,,,,,,,,,cyan,circle
0.0,3.0,2.0,0.0,5.0,5.0,984.8472200001196,8.0,1.0,phase_2,go,750.0,850.0,1.0,,,,,,,,,gray,cross
0.0,7.0,2.0,1.0,6.0,6.0,777.3288530001992,8.0,1.0,phase_2,go,750.0,850.0,1.0,,,,,,,,,yellow,triangle
0.0,7.0,2.0,1.0,6.0,6.0,722.1849200000179,8.0,1.0,phase_2,stop,750.0,850.0,3.0,,,,,,,,,yellow,triangle
0.0,2.0,1.0,0.0,5.0,5.0,623.7139100003333,8.0,1.0,phase_2,go,750.0,800.0,1.0,,,,,,,,,blue,hexagon
0.0,5.0,0.5,1.0,5.0,5.0,909.0443640002376,8.0,1.0,phase_2,go,750.0,800.0,1.0,,,,,,,,,orange,diamond
0.0,4.0,4.0,0.0,6.0,6.0,831.9780730003004,8.0,1.0,phase_2,go,750.0,800.0,1.0,,,,,,,,,green,square
0.0,3.0,2.0,0.0,6.0,6.0,468.0731679995915,8.0,1.0,phase_2,go,750.0,800.0,1.0,,,,,,,,,gray,cross
0.0,1.0,0.5,0.0,5.0,5.0,639.4311019998895,8.0,1.0,phase_2,go,750.0,800.0,1.0,,,,,,,,,cyan,circle
0.0,5.0,0.5,1.0,6.0,6.0,434.8503900000651,8.0,1.0,phase_2,stop,750.0,800.0,3.0,,,,,,,,,orange,diamond
0.0,2.0,1.0,0.0,6.0,6.0,700.4191920000267,8.0,1.0,phase_2,go,750.0,750.0,1.0,,,,,,,,,blue,hexagon
0.0,1.0,0.5,0.0,6.0,6.0,393.804863999776,8.0,1.0,phase_2,go,750.0,750.0,1.0,,,,,,,,,cyan,circle
0.0,3.0,2.0,0.0,5.0,5.0,396.9854699998905,8.0,1.0,phase_2,go,750.0,750.0,1.0,,,,,,,,,gray,cross
0.0,1.0,0.5,0.0,5.0,5.0,508.05940800000826,8.0,1.0,phase_2,go,750.0,750.0,1.0,,,,,,,,,cyan,circle
0.0,1.0,0.5,0.0,5.0,5.0,442.670139999791,8.0,1.0,phase_2,go,750.0,750.0,1.0,,,,,,,,,cyan,circle
0.0,1.0,0.5,0.0,6.0,6.0,474.5435460004046,8.0,1.0,phase_2,go,750.0,750.0,1.0,,,,,,,,,cyan,circle
0.0,3.0,2.0,0.0,5.0,5.0,585.5885689998104,8.0,1.0,phase_2,go,750.0,750.0,1.0,,,,,,,,,gray,cross
0.0,5.0,0.5,1.0,5.0,5.0,454.7236539997357,8.0,1.0,phase_2,stop,750.0,750.0,3.0,,,,,,,,,orange,diamond
0.0,4.0,4.0,0.0,5.0,5.0,623.8367079999989,8.0,1.0,phase_2,go,700.0,750.0,1.0,,,,,,,,,green,square
0.0,4.0,4.0,0.0,5.0,5.0,847.2507719998248,8.0,1.0,phase_2,go,700.0,750.0,1.0,,,,,,,,,green,square
0.0,7.0,2.0,1.0,5.0,5.0,526.005615000031,8.0,1.0,phase_2,stop,700.0,750.0,3.0,,,,,,,,,yellow,triangle
0.0,3.0,2.0,0.0,7.0,5.0,4001.331346999905,1.0,1.0,phase_3,,,,,176.0,4.0,220.0,44.0,88.0,264.0,176.0,132.0,gray,cross
0.0,2.0,1.0,0.0,7.0,6.0,3095.7904069996403,1.0,1.0,phase_3,,,,,204.0,6.0,34.0,68.0,136.0,170.0,102.0,204.0,blue,hexagon
0.0,4.0,4.0,0.0,7.0,1.0,3297.213379999903,1.0,1.0,phase_3,,,,,216.0,4.0,216.0,54.0,108.0,324.0,162.0,270.0,green,square
0.0,6.0,1.0,1.0,7.0,5.0,1336.3667990001886,1.0,1.0,phase_3,,,,,102.0,3.0,204.0,68.0,136.0,34.0,102.0,170.0,magenta,I
0.0,8.0,4.0,1.0,7.0,3.0,1481.1038549996738,1.0,1.0,phase_3,,,,,102.0,3.0,204.0,68.0,102.0,136.0,34.0,170.0,white,flipped triangle
0.0,7.0,2.0,1.0,7.0,2.0,1893.8216209999157,1.0,1.0,phase_3,,,,,176.0,4.0,264.0,176.0,44.0,220.0,132.0,88.0,yellow,triangle
0.0,6.0,1.0,1.0,7.0,5.0,1158.5342260000289,1.0,1.0,phase_3,,,,,294.0,6.0,196.0,245.0,49.0,147.0,294.0,98.0,magenta,I
0.0,1.0,0.5,0.0,7.0,6.0,1384.155212999758,1.0,1.0,phase_3,,,,,102.0,3.0,204.0,136.0,34.0,170.0,68.0,102.0,cyan,circle
0.0,2.0,1.0,0.0,7.0,4.0,1984.838107000087,1.0,1.0,phase_3,,,,,54.0,1.0,324.0,270.0,216.0,54.0,108.0,162.0,blue,hexagon
0.0,6.0,1.0,1.0,7.0,5.0,1187.8298269998595,1.0,1.0,phase_3,,,,,234.0,6.0,195.0,78.0,39.0,156.0,234.0,117.0,magenta,I
0.0,4.0,4.0,0.0,7.0,1.0,1675.7763059999888,1.0,1.0,phase_3,,,,,195.0,5.0,195.0,117.0,234.0,156.0,39.0,78.0,green,square
0.0,5.0,0.5,1.0,7.0,1.0,1550.8500689998073,1.0,1.0,phase_3,,,,,176.0,4.0,176.0,220.0,132.0,88.0,44.0,264.0,orange,diamond
0.0,5.0,0.5,1.0,7.0,1.0,998.472596999818,1.0,1.0,phase_3,,,,,234.0,6.0,234.0,117.0,156.0,39.0,195.0,78.0,orange,diamond
0.0,4.0,4.0,0.0,7.0,4.0,3717.120570999669,1.0,1.0,phase_3,,,,,170.0,5.0,34.0,136.0,102.0,170.0,204.0,68.0,green,square
0.0,1.0,0.5,0.0,7.0,6.0,1152.5510890000987,1.0,1.0,phase_3,,,,,68.0,2.0,34.0,170.0,102.0,204.0,136.0,68.0,cyan,circle
0.0,4.0,4.0,0.0,7.0,4.0,1971.848504999798,1.0,1.0,phase_3,,,,,195.0,5.0,117.0,156.0,78.0,195.0,234.0,39.0,green,square
0.0,1.0,0.5,0.0,7.0,6.0,1619.559967999976,1.0,1.0,phase_3,,,,,195.0,5.0,234.0,78.0,39.0,156.0,117.0,195.0,cyan,circle
0.0,2.0,1.0,0.0,7.0,4.0,1822.7809879999768,1.0,1.0,phase_3,,,,,98.0,2.0,196.0,147.0,294.0,98.0,245.0,49.0,blue,hexagon
0.0,2.0,1.0,0.0,7.0,4.0,2348.492316999909,1.0,1.0,phase_3,,,,,176.0,4.0,44.0,264.0,220.0,176.0,132.0,88.0,blue,hexagon
0.0,8.0,4.0,1.0,7.0,3.0,3415.4379260003225,1.0,1.0,phase_3,,,,,196.0,4.0,147.0,49.0,196.0,294.0,245.0,98.0,white,flipped triangle
0.0,5.0,0.5,1.0,7.0,1.0,2116.295676999925,2.0,1.0,phase_3,,,,,136.0,4.0,136.0,102.0,204.0,34.0,170.0,68.0,orange,diamond
0.0,7.0,2.0,1.0,7.0,3.0,1173.3156190002774,2.0,1.0,phase_3,,,,,195.0,5.0,39.0,156.0,195.0,117.0,78.0,234.0,yellow,triangle
0.0,8.0,4.0,1.0,7.0,3.0,1366.848241999833,2.0,1.0,phase_3,,,,,170.0,5.0,204.0,102.0,170.0,68.0,34.0,136.0,white,flipped triangle
0.0,7.0,2.0,1.0,7.0,3.0,3979.647363999902,2.0,1.0,phase_3,,,,,108.0,2.0,270.0,54.0,108.0,216.0,324.0,162.0,yellow,triangle
0.0,8.0,4.0,1.0,7.0,2.0,4209.858923999946,2.0,1.0,phase_3,,,,,216.0,4.0,54.0,216.0,324.0,108.0,270.0,162.0,white,flipped triangle
0.0,6.0,1.0,1.0,7.0,5.0,919.7699549999924,2.0,1.0,phase_3,,,,,78.0,2.0,234.0,156.0,195.0,117.0,78.0,39.0,magenta,I
0.0,3.0,2.0,0.0,7.0,2.0,1329.0972510003485,2.0,1.0,phase_3,,,,,117.0,3.0,234.0,117.0,78.0,39.0,156.0,195.0,gray,cross
0.0,3.0,2.0,0.0,7.0,2.0,956.235525000011,2.0,1.0,phase_3,,,,,196.0,4.0,98.0,196.0,147.0,245.0,49.0,294.0,gray,cross
0.0,1.0,0.5,0.0,7.0,6.0,1193.951375999859,2.0,1.0,phase_3,,,,,108.0,2.0,270.0,324.0,162.0,54.0,216.0,108.0,cyan,circle
0.0,7.0,2.0,1.0,7.0,2.0,2141.391773000123,2.0,1.0,phase_3,,,,,264.0,6.0,176.0,264.0,132.0,44.0,88.0,220.0,yellow,triangle
0.0,6.0,1.0,1.0,7.0,6.0,2966.82404000012,2.0,1.0,phase_3,,,,,108.0,2.0,216.0,162.0,324.0,270.0,54.0,108.0,magenta,I
0.0,2.0,1.0,0.0,7.0,4.0,1584.1454129999877,2.0,1.0,phase_3,,,,,162.0,3.0,216.0,108.0,54.0,162.0,324.0,270.0,blue,hexagon
0.0,8.0,4.0,1.0,7.0,3.0,1168.7890580001294,2.0,1.0,phase_3,,,,,196.0,4.0,49.0,294.0,196.0,147.0,245.0,98.0,white,flipped triangle
0.0,3.0,2.0,0.0,7.0,2.0,1609.1572969999106,2.0,1.0,phase_3,,,,,147.0,3.0,245.0,147.0,49.0,196.0,294.0,98.0,gray,cross
0.0,1.0,0.5,0.0,7.0,6.0,2010.3804120003588,2.0,1.0,phase_3,,,,,264.0,6.0,132.0,88.0,44.0,220.0,176.0,264.0,cyan,circle
0.0,7.0,2.0,1.0,7.0,1.0,2461.231789000067,2.0,1.0,phase_3,,,,,162.0,3.0,162.0,54.0,324.0,270.0,108.0,216.0,yellow,triangle
0.0,5.0,0.5,1.0,7.0,4.0,2869.1865419996248,2.0,1.0,phase_3,,,,,68.0,2.0,102.0,136.0,204.0,68.0,34.0,170.0,orange,diamond
0.0,6.0,1.0,1.0,7.0,5.0,1239.1817679999804,2.0,1.0,phase_3,,,,,108.0,2.0,216.0,54.0,162.0,270.0,108.0,324.0,magenta,I
0.0,8.0,4.0,1.0,7.0,4.0,2976.6718030000447,2.0,1.0,phase_3,,,,,216.0,4.0,270.0,162.0,324.0,216.0,108.0,54.0,white,flipped triangle
0.0,5.0,0.5,1.0,7.0,4.0,3867.3903889998655,2.0,1.0,phase_3,,,,,108.0,2.0,54.0,324.0,216.0,108.0,270.0,162.0,orange,diamond
0.0,3.0,2.0,0.0,7.0,2.0,1402.026363999994,3.0,1.0,phase_3,,,,,102.0,3.0,204.0,102.0,136.0,34.0,170.0,68.0,gray,cross
0.0,5.0,0.5,1.0,7.0,1.0,1832.2168820000115,3.0,1.0,phase_3,,,,,147.0,3.0,147.0,98.0,294.0,245.0,49.0,196.0,orange,diamond
0.0,1.0,0.5,0.0,7.0,6.0,1731.8034179997994,3.0,1.0,phase_3,,,,,132.0,3.0,220.0,44.0,176.0,264.0,88.0,132.0,cyan,circle
0.0,2.0,1.0,0.0,7.0,4.0,2109.121598999991,3.0,1.0,phase_3,,,,,156.0,4.0,234.0,117.0,39.0,156.0,195.0,78.0,blue,hexagon
0.0,4.0,4.0,0.0,7.0,1.0,2639.63720799984,3.0,1.0,phase_3,,,,,147.0,3.0,147.0,196.0,98.0,49.0,294.0,245.0,green,square
0.0,6.0,1.0,1.0,7.0,5.0,1505.9252690002722,3.0,1.0,phase_3,,,,,88.0,2.0,176.0,44.0,264.0,132.0,88.0,220.0,magenta,I
0.0,4.0,4.0,0.0,7.0,1.0,3303.416583999933,3.0,1.0,phase_3,,,,,88.0,2.0,88.0,220.0,132.0,44.0,264.0,176.0,green,square
0.0,2.0,1.0,0.0,7.0,4.0,3032.8236520003884,3.0,1.0,phase_3,,,,,176.0,4.0,88.0,132.0,44.0,176.0,220.0,264.0,blue,hexagon
0.0,7.0,2.0,1.0,7.0,2.0,2182.088623999789,3.0,2.0,phase_3,,,,,204.0,6.0,68.0,204.0,34.0,136.0,102.0,170.0,yellow,triangle
0.0,8.0,4.0,1.0,7.0,4.0,2304.3588220002675,3.0,1.0,phase_3,,,,,132.0,3.0,264.0,220.0,88.0,132.0,176.0,44.0,white,flipped triangle
0.0,5.0,0.5,1.0,7.0,1.0,1473.9503890000378,3.0,1.0,phase_3,,,,,49.0,1.0,49.0,294.0,245.0,98.0,147.0,196.0,orange,diamond
0.0,2.0,1.0,0.0,7.0,6.0,2963.3648069998344,3.0,1.0,phase_3,,,,,156.0,4.0,39.0,195.0,234.0,117.0,78.0,156.0,blue,hexagon
0.0,6.0,1.0,1.0,7.0,5.0,426.7910839998876,3.0,1.0,phase_3,,,,,294.0,6.0,49.0,98.0,147.0,196.0,294.0,245.0,magenta,I
0.0,7.0,2.0,1.0,7.0,4.0,716.3190410001334,3.0,1.0,phase_3,,,,,117.0,3.0,234.0,195.0,78.0,117.0,39.0,156.0,yellow,triangle
0.0,2.0,1.0,0.0,7.0,3.0,2723.071420999986,3.0,1.0,phase_3,,,,,196.0,4.0,245.0,294.0,196.0,147.0,98.0,49.0,blue,hexagon
0.0,6.0,1.0,1.0,7.0,5.0,1047.881753999718,3.0,1.0,phase_3,,,,,68.0,2.0,136.0,170.0,34.0,102.0,68.0,204.0,magenta,I
0.0,3.0,2.0,0.0,7.0,2.0,1776.9265659999292,3.0,1.0,phase_3,,,,,264.0,6.0,176.0,264.0,88.0,220.0,132.0,44.0,gray,cross
0.0,3.0,2.0,0.0,7.0,2.0,1946.387421000054,3.0,1.0,phase_3,,,,,108.0,2.0,216.0,108.0,162.0,270.0,324.0,54.0,gray,cross
0.0,4.0,4.0,0.0,7.0,1.0,3532.513558000119,3.0,1.0,phase_3,,,,,34.0,1.0,34.0,136.0,170.0,102.0,68.0,204.0,green,square
0.0,1.0,0.5,0.0,7.0,1.0,2530.78990899985,3.0,1.0,phase_3,,,,,196.0,4.0,196.0,294.0,49.0,147.0,98.0,245.0,cyan,circle
0.0,2.0,1.0,0.0,7.0,6.0,2942.84113599997,4.0,1.0,phase_3,,,,,136.0,4.0,68.0,204.0,34.0,102.0,170.0,136.0,blue,hexagon
0.0,5.0,0.5,1.0,7.0,1.0,1929.9957849998464,4.0,1.0,phase_3,,,,,132.0,3.0,132.0,44.0,264.0,176.0,220.0,88.0,orange,diamond
0.0,8.0,4.0,1.0,7.0,2.0,1388.5284829998454,4.0,1.0,phase_3,,,,,117.0,3.0,156.0,117.0,234.0,78.0,195.0,39.0,white,flipped triangle
0.0,3.0,2.0,0.0,7.0,2.0,659.102268999959,4.0,1.0,phase_3,,,,,136.0,4.0,34.0,136.0,204.0,170.0,68.0,102.0,gray,cross
0.0,1.0,0.5,0.0,7.0,6.0,3488.2807429999048,4.0,1.0,phase_3,,,,,245.0,5.0,147.0,294.0,196.0,49.0,98.0,245.0,cyan,circle
0.0,5.0,0.5,1.0,7.0,3.0,2223.9120119998006,4.0,1.0,phase_3,,,,,162.0,3.0,108.0,270.0,162.0,54.0,216.0,324.0,orange,diamond
0.0,7.0,2.0,1.0,7.0,6.0,2945.7232330000807,4.0,1.0,phase_3,,,,,147.0,3.0,245.0,49.0,196.0,294.0,98.0,147.0,yellow,triangle
0.0,1.0,0.5,0.0,7.0,6.0,1691.5935940000963,4.0,1.0,phase_3,,,,,117.0,3.0,39.0,234.0,156.0,195.0,78.0,117.0,cyan,circle
0.0,7.0,2.0,1.0,7.0,5.0,1709.7296010001628,4.0,1.0,phase_3,,,,,147.0,3.0,245.0,98.0,294.0,196.0,147.0,49.0,yellow,triangle
0.0,4.0,4.0,0.0,7.0,4.0,1611.2380130002748,4.0,1.0,phase_3,,,,,54.0,1.0,270.0,216.0,162.0,54.0,324.0,108.0,green,square
0.0,8.0,4.0,1.0,7.0,3.0,1686.6524960000788,4.0,1.0,phase_3,,,,,176.0,4.0,44.0,220.0,176.0,132.0,264.0,88.0,white,flipped triangle
0.0,6.0,1.0,1.0,7.0,5.0,413.5882289997425,4.0,1.0,phase_3,,,,,264.0,6.0,44.0,132.0,220.0,176.0,264.0,88.0,magenta,I
0.0,4.0,4.0,0.0,7.0,4.0,2031.8382639998163,4.0,1.0,phase_3,,,,,147.0,3.0,49.0,294.0,196.0,147.0,98.0,245.0,green,square
0.0,1.0,0.5,0.0,7.0,6.0,1281.0244959996453,4.0,1.0,phase_3,,,,,54.0,1.0,216.0,162.0,270.0,324.0,108.0,54.0,cyan,circle
0.0,3.0,2.0,0.0,7.0,2.0,587.5860559999637,4.0,1.0,phase_3,,,,,270.0,5.0,108.0,270.0,162.0,324.0,54.0,216.0,gray,cross
0.0,4.0,4.0,0.0,7.0,4.0,903.3967350001147,4.0,1.0,phase_3,,,,,132.0,3.0,176.0,44.0,88.0,132.0,264.0,220.0,green,square
0.0,8.0,4.0,1.0,7.0,1.0,4141.583136000008,4.0,1.0,phase_3,,,,,156.0,4.0,156.0,78.0,234.0,117.0,39.0,195.0,white,flipped triangle
0.0,5.0,0.5,1.0,7.0,1.0,918.208405000314,4.0,1.0,phase_3,,,,,117.0,3.0,117.0,78.0,156.0,195.0,39.0,234.0,orange,diamond
0.0,3.0,2.0,0.0,7.0,2.0,1455.91911099973,4.0,1.0,phase_3,,,,,195.0,5.0,39.0,195.0,234.0,156.0,117.0,78.0,gray,cross
0.0,7.0,2.0,1.0,7.0,2.0,1248.433758000374,4.0,1.0,phase_3,,,,,204.0,6.0,68.0,204.0,102.0,170.0,34.0,136.0,yellow,triangle
