raw_reward_magnitude,stim_reward,stepwise_reward_magnitude,paired_with_stopping,quadrant,response,reaction_time,block,num_trial_presentations,which_part,stop_signal_trial_type,left_SSD,right_SSD,accuracy,chosen_bidding_amount,chosen_bidding_level,possible_bid_1,possible_bid_2,possible_bid_3,possible_bid_4,possible_bid_5,possible_bid_6,color_text,shape_text
50.0,5.0,1.0,1.0,2.0,2.0,428.8480069953948,1.0,1.0,part_1,,,,,,,,,,,,,yellow,square
400.0,4.0,4.0,0.0,1.0,1.0,457.8060409985482,1.0,1.0,part_1,,,,,,,,,,,,,gray,hexagon
204.0,3.0,3.0,0.0,3.0,3.0,472.8320880094543,1.0,1.0,part_1,,,,,,,,,,,,,white,I
0.0,6.0,0.0,1.0,3.0,3.0,483.6127299931831,1.0,1.0,part_1,,,,,,,,,,,,,blue,triangle
184.0,7.0,3.0,1.0,4.0,4.0,473.1634670170024,1.0,1.0,part_1,,,,,,,,,,,,,orange,circle
0.0,1.0,0.0,0.0,3.0,3.0,423.2478240155615,1.0,1.0,part_1,,,,,,,,,,,,,magenta,diamond
103.0,2.0,2.0,0.0,3.0,3.0,369.0665789763443,1.0,1.0,part_1,,,,,,,,,,,,,green,flipped triangle
28.0,5.0,1.0,1.0,4.0,4.0,391.3317659753375,1.0,1.0,part_1,,,,,,,,,,,,,yellow,square
407.0,4.0,4.0,0.0,3.0,3.0,386.4528550184332,1.0,1.0,part_1,,,,,,,,,,,,,gray,hexagon
0.0,7.0,0.0,1.0,3.0,3.0,351.9910179893486,1.0,1.0,part_1,,,,,,,,,,,,,orange,circle
0.0,3.0,0.0,0.0,2.0,2.0,308.5490289959125,1.0,1.0,part_1,,,,,,,,,,,,,white,I
417.0,8.0,4.0,1.0,1.0,1.0,380.2969519747421,1.0,1.0,part_1,,,,,,,,,,,,,cyan,cross
213.0,3.0,3.0,0.0,2.0,2.0,326.8137439736165,1.0,1.0,part_1,,,,,,,,,,,,,white,I
49.0,5.0,1.0,1.0,3.0,3.0,297.602505015675,1.0,1.0,part_1,,,,,,,,,,,,,yellow,square
425.0,8.0,4.0,1.0,4.0,4.0,369.8716379585676,1.0,1.0,part_1,,,,,,,,,,,,,cyan,cross
399.0,4.0,4.0,0.0,2.0,2.0,331.3358689774759,1.0,1.0,part_1,,,,,,,,,,,,,gray,hexagon
194.0,3.0,3.0,0.0,4.0,4.0,320.7821190007962,1.0,1.0,part_1,,,,,,,,,,,,,white,I
206.0,7.0,3.0,1.0,1.0,1.0,316.4831569883972,1.0,1.0,part_1,,,,,,,,,,,,,orange,circle
204.0,7.0,3.0,1.0,1.0,1.0,299.3053990066983,1.0,1.0,part_1,,,,,,,,,,,,,orange,circle
198.0,7.0,3.0,1.0,3.0,3.0,369.2613139864988,1.0,1.0,part_1,,,,,,,,,,,,,orange,circle
417.0,8.0,4.0,1.0,4.0,4.0,307.2425390128046,1.0,1.0,part_1,,,,,,,,,,,,,cyan,cross
77.0,6.0,2.0,1.0,4.0,4.0,353.8647210225463,1.0,1.0,part_1,,,,,,,,,,,,,blue,triangle
385.0,4.0,4.0,0.0,4.0,4.0,356.28748399904,1.0,1.0,part_1,,,,,,,,,,,,,gray,hexagon
397.0,8.0,4.0,1.0,1.0,1.0,401.2566580204293,1.0,1.0,part_1,,,,,,,,,,,,,cyan,cross
0.0,4.0,0.0,0.0,1.0,1.0,312.5153979635797,1.0,1.0,part_1,,,,,,,,,,,,,gray,hexagon
92.0,6.0,2.0,1.0,1.0,1.0,325.8633859804831,1.0,1.0,part_1,,,,,,,,,,,,,blue,triangle
111.0,6.0,2.0,1.0,4.0,4.0,360.1191180059686,1.0,1.0,part_1,,,,,,,,,,,,,blue,triangle
224.0,3.0,3.0,0.0,1.0,1.0,302.8058399795554,1.0,1.0,part_1,,,,,,,,,,,,,white,I
412.0,8.0,4.0,1.0,1.0,1.0,337.9107409855351,1.0,1.0,part_1,,,,,,,,,,,,,cyan,cross
0.0,7.0,0.0,1.0,3.0,3.0,356.9876339752227,1.0,1.0,part_1,,,,,,,,,,,,,orange,circle
189.0,3.0,3.0,0.0,1.0,1.0,364.3897169968113,1.0,1.0,part_1,,,,,,,,,,,,,white,I
50.0,1.0,1.0,0.0,4.0,4.0,319.8083330062218,1.0,1.0,part_1,,,,,,,,,,,,,magenta,diamond
80.0,2.0,2.0,0.0,3.0,3.0,326.4645260060206,1.0,1.0,part_1,,,,,,,,,,,,,green,flipped triangle
213.0,7.0,3.0,1.0,3.0,3.0,386.7826699861325,1.0,1.0,part_1,,,,,,,,,,,,,orange,circle
0.0,4.0,0.0,0.0,4.0,4.0,405.2862099488266,1.0,1.0,part_1,,,,,,,,,,,,,gray,hexagon
97.0,6.0,2.0,1.0,1.0,1.0,291.1489039543085,1.0,1.0,part_1,,,,,,,,,,,,,blue,triangle
393.0,4.0,4.0,0.0,1.0,1.0,361.193872988224,1.0,1.0,part_1,,,,,,,,,,,,,gray,hexagon
212.0,3.0,3.0,0.0,1.0,1.0,309.5348170027137,1.0,1.0,part_1,,,,,,,,,,,,,white,I
62.0,1.0,1.0,0.0,3.0,3.0,281.1189990025013,1.0,1.0,part_1,,,,,,,,,,,,,magenta,diamond
90.0,2.0,2.0,0.0,1.0,1.0,270.6066140090115,1.0,1.0,part_1,,,,,,,,,,,,,green,flipped triangle
65.0,5.0,1.0,1.0,4.0,4.0,324.3834939785301,1.0,1.0,part_1,,,,,,,,,,,,,yellow,square
26.0,5.0,1.0,1.0,2.0,2.0,348.9795610075816,1.0,2.0,part_1,,,,,,,,,,,,,yellow,square
63.0,5.0,1.0,1.0,4.0,4.0,377.927293011453,1.0,1.0,part_1,,,,,,,,,,,,,yellow,square
419.0,4.0,4.0,0.0,1.0,1.0,347.3162109730765,1.0,1.0,part_1,,,,,,,,,,,,,gray,hexagon
0.0,1.0,0.0,0.0,1.0,1.0,369.6717069833539,1.0,1.0,part_1,,,,,,,,,,,,,magenta,diamond
55.0,1.0,1.0,0.0,1.0,1.0,373.1474229716696,1.0,1.0,part_1,,,,,,,,,,,,,magenta,diamond
107.0,2.0,2.0,0.0,1.0,1.0,401.8662450253032,1.0,1.0,part_1,,,,,,,,,,,,,green,flipped triangle
0.0,5.0,0.0,1.0,3.0,3.0,610.1501249941066,1.0,1.0,part_1,,,,,,,,,,,,,yellow,square
0.0,1.0,0.0,0.0,3.0,3.0,605.6284299702384,1.0,1.0,part_1,,,,,,,,,,,,,magenta,diamond
71.0,5.0,1.0,1.0,1.0,1.0,488.2626190083101,1.0,1.0,part_1,,,,,,,,,,,,,yellow,square
0.0,2.0,0.0,0.0,3.0,3.0,444.0750480280258,1.0,1.0,part_1,,,,,,,,,,,,,green,flipped triangle
123.0,6.0,2.0,1.0,3.0,3.0,394.9218789930455,1.0,1.0,part_1,,,,,,,,,,,,,blue,triangle
104.0,2.0,2.0,0.0,4.0,4.0,391.2575040012598,1.0,1.0,part_1,,,,,,,,,,,,,green,flipped triangle
90.0,6.0,2.0,1.0,3.0,3.0,364.7628179751336,1.0,1.0,part_1,,,,,,,,,,,,,blue,triangle
38.0,5.0,1.0,1.0,3.0,3.0,386.8106440058909,1.0,1.0,part_1,,,,,,,,,,,,,yellow,square
383.0,8.0,4.0,1.0,3.0,3.0,459.672324010171,1.0,1.0,part_1,,,,,,,,,,,,,cyan,cross
213.0,7.0,3.0,1.0,2.0,2.0,376.8456089892424,1.0,1.0,part_1,,,,,,,,,,,,,orange,circle
0.0,1.0,0.0,0.0,3.0,3.0,360.8964390004985,1.0,1.0,part_1,,,,,,,,,,,,,magenta,diamond
196.0,3.0,3.0,0.0,3.0,3.0,402.3795219836756,1.0,1.0,part_1,,,,,,,,,,,,,white,I
223.0,7.0,3.0,1.0,3.0,3.0,386.4611759781837,1.0,1.0,part_1,,,,,,,,,,,,,orange,circle
54.0,5.0,1.0,1.0,4.0,4.0,426.9550450262613,1.0,1.0,part_1,,,,,,,,,,,,,yellow,square
188.0,7.0,3.0,1.0,1.0,1.0,399.8331180191599,1.0,1.0,part_1,,,,,,,,,,,,,orange,circle
103.0,6.0,2.0,1.0,1.0,1.0,357.824900012929,1.0,1.0,part_1,,,,,,,,,,,,,blue,triangle
179.0,3.0,3.0,0.0,1.0,1.0,360.9315549838356,1.0,1.0,part_1,,,,,,,,,,,,,white,I
0.0,5.0,0.0,1.0,4.0,4.0,400.7534650154412,1.0,1.0,part_1,,,,,,,,,,,,,yellow,square
0.0,5.0,0.0,1.0,2.0,2.0,317.3408950096927,1.0,1.0,part_1,,,,,,,,,,,,,yellow,square
103.0,2.0,2.0,0.0,2.0,2.0,439.2651749658398,1.0,1.0,part_1,,,,,,,,,,,,,green,flipped triangle
417.0,4.0,4.0,0.0,1.0,1.0,375.6998550379649,1.0,1.0,part_1,,,,,,,,,,,,,gray,hexagon
217.0,3.0,3.0,0.0,4.0,4.0,376.243793987669,1.0,1.0,part_1,,,,,,,,,,,,,white,I
104.0,2.0,2.0,0.0,1.0,1.0,623.6271309899166,1.0,1.0,part_1,,,,,,,,,,,,,green,flipped triangle
103.0,2.0,2.0,0.0,3.0,3.0,461.7597880424,1.0,1.0,part_1,,,,,,,,,,,,,green,flipped triangle
0.0,2.0,0.0,0.0,4.0,4.0,351.1430220096372,1.0,1.0,part_1,,,,,,,,,,,,,green,flipped triangle
33.0,1.0,1.0,0.0,1.0,1.0,397.6235520094633,1.0,1.0,part_1,,,,,,,,,,,,,magenta,diamond
0.0,8.0,0.0,1.0,2.0,2.0,467.5627120304853,1.0,1.0,part_1,,,,,,,,,,,,,cyan,cross
30.0,1.0,1.0,0.0,3.0,3.0,488.9401029795408,1.0,1.0,part_1,,,,,,,,,,,,,magenta,diamond
103.0,6.0,2.0,1.0,4.0,4.0,472.9336030432023,1.0,1.0,part_1,,,,,,,,,,,,,blue,triangle
184.0,3.0,3.0,0.0,3.0,3.0,488.0648059770465,1.0,1.0,part_1,,,,,,,,,,,,,white,I
58.0,5.0,1.0,1.0,1.0,1.0,436.9598649791442,1.0,1.0,part_1,,,,,,,,,,,,,yellow,square
67.0,1.0,1.0,0.0,1.0,1.0,427.0490210037678,1.0,1.0,part_1,,,,,,,,,,,,,magenta,diamond
421.0,4.0,4.0,0.0,3.0,3.0,541.0463119624183,1.0,1.0,part_1,,,,,,,,,,,,,gray,hexagon
123.0,6.0,2.0,1.0,3.0,3.0,474.7469630092382,1.0,1.0,part_1,,,,,,,,,,,,,blue,triangle
110.0,6.0,2.0,1.0,2.0,2.0,485.000732995104,1.0,1.0,part_1,,,,,,,,,,,,,blue,triangle
106.0,2.0,2.0,0.0,3.0,3.0,401.9269970012828,1.0,1.0,part_1,,,,,,,,,,,,,green,flipped triangle
212.0,7.0,3.0,1.0,2.0,2.0,313.0572169902734,1.0,1.0,part_1,,,,,,,,,,,,,orange,circle
52.0,5.0,1.0,1.0,3.0,3.0,396.8983440427109,1.0,1.0,part_1,,,,,,,,,,,,,yellow,square
206.0,3.0,3.0,0.0,1.0,1.0,480.3197470027953,1.0,1.0,part_1,,,,,,,,,,,,,white,I
200.0,7.0,3.0,1.0,4.0,4.0,333.2439429941587,1.0,1.0,part_1,,,,,,,,,,,,,orange,circle
54.0,1.0,1.0,0.0,3.0,3.0,377.8097499744035,1.0,1.0,part_1,,,,,,,,,,,,,magenta,diamond
0.0,3.0,0.0,0.0,1.0,1.0,352.9531239764765,1.0,1.0,part_1,,,,,,,,,,,,,white,I
217.0,7.0,3.0,1.0,4.0,4.0,299.0112639963627,1.0,1.0,part_1,,,,,,,,,,,,,orange,circle
71.0,1.0,1.0,0.0,2.0,2.0,337.2180080041289,1.0,1.0,part_1,,,,,,,,,,,,,magenta,diamond
0.0,3.0,0.0,0.0,1.0,1.0,444.3282560096122,1.0,1.0,part_1,,,,,,,,,,,,,white,I
28.0,5.0,1.0,1.0,1.0,1.0,370.5850260448642,1.0,1.0,part_1,,,,,,,,,,,,,yellow,square
86.0,2.0,2.0,0.0,3.0,3.0,344.6892100037075,1.0,1.0,part_1,,,,,,,,,,,,,green,flipped triangle
402.0,4.0,4.0,0.0,2.0,2.0,283.8986459537409,1.0,1.0,part_1,,,,,,,,,,,,,gray,hexagon
0.0,1.0,0.0,0.0,3.0,3.0,415.9086550353095,1.0,1.0,part_1,,,,,,,,,,,,,magenta,diamond
0.0,3.0,0.0,0.0,2.0,2.0,383.2396070356481,1.0,1.0,part_1,,,,,,,,,,,,,white,I
385.0,4.0,4.0,0.0,4.0,4.0,328.539551992435,1.0,1.0,part_1,,,,,,,,,,,,,gray,hexagon
88.0,2.0,2.0,0.0,1.0,1.0,324.7882599825971,1.0,1.0,part_1,,,,,,,,,,,,,green,flipped triangle
123.0,6.0,2.0,1.0,2.0,2.0,340.6879489775747,1.0,1.0,part_1,,,,,,,,,,,,,blue,triangle
103.0,6.0,2.0,1.0,2.0,2.0,415.6349590048194,2.0,1.0,part_1,,,,,,,,,,,,,blue,triangle
25.0,1.0,1.0,0.0,2.0,2.0,373.3191270148381,2.0,1.0,part_1,,,,,,,,,,,,,magenta,diamond
415.0,4.0,4.0,0.0,2.0,2.0,327.8631119756028,2.0,1.0,part_1,,,,,,,,,,,,,gray,hexagon
185.0,7.0,3.0,1.0,3.0,3.0,303.2700879848562,2.0,1.0,part_1,,,,,,,,,,,,,orange,circle
110.0,2.0,2.0,0.0,2.0,2.0,355.5432879948057,2.0,1.0,part_1,,,,,,,,,,,,,green,flipped triangle
208.0,3.0,3.0,0.0,4.0,4.0,391.7991659836843,2.0,1.0,part_1,,,,,,,,,,,,,white,I
124.0,2.0,2.0,0.0,2.0,2.0,354.5339350239374,2.0,1.0,part_1,,,,,,,,,,,,,green,flipped triangle
61.0,1.0,1.0,0.0,4.0,4.0,374.566928949207,2.0,1.0,part_1,,,,,,,,,,,,,magenta,diamond
0.0,4.0,0.0,0.0,3.0,3.0,387.5784520059824,2.0,1.0,part_1,,,,,,,,,,,,,gray,hexagon
377.0,8.0,4.0,1.0,4.0,4.0,339.0680750017054,2.0,1.0,part_1,,,,,,,,,,,,,cyan,cross
32.0,1.0,1.0,0.0,4.0,4.0,336.2489110440947,2.0,1.0,part_1,,,,,,,,,,,,,magenta,diamond
0.0,2.0,0.0,0.0,3.0,3.0,365.0612710043788,2.0,1.0,part_1,,,,,,,,,,,,,green,flipped triangle
0.0,5.0,0.0,1.0,1.0,1.0,318.3803799911402,2.0,1.0,part_1,,,,,,,,,,,,,yellow,square
184.0,3.0,3.0,0.0,2.0,2.0,302.7703359839506,2.0,1.0,part_1,,,,,,,,,,,,,white,I
68.0,5.0,1.0,1.0,4.0,4.0,327.4614340043627,2.0,1.0,part_1,,,,,,,,,,,,,yellow,square
0.0,3.0,0.0,0.0,3.0,3.0,332.0959839620627,2.0,1.0,part_1,,,,,,,,,,,,,white,I
212.0,3.0,3.0,0.0,3.0,3.0,521.7768709990196,2.0,1.0,part_1,,,,,,,,,,,,,white,I
123.0,2.0,2.0,0.0,4.0,4.0,425.8681469946168,2.0,1.0,part_1,,,,,,,,,,,,,green,flipped triangle
62.0,5.0,1.0,1.0,4.0,4.0,308.3090139552951,2.0,1.0,part_1,,,,,,,,,,,,,yellow,square
77.0,2.0,2.0,0.0,1.0,1.0,546.273203974124,2.0,1.0,part_1,,,,,,,,,,,,,green,flipped triangle
49.0,1.0,1.0,0.0,1.0,1.0,390.5686590005643,2.0,1.0,part_1,,,,,,,,,,,,,magenta,diamond
200.0,7.0,3.0,1.0,3.0,3.0,434.9291009712033,2.0,1.0,part_1,,,,,,,,,,,,,orange,circle
208.0,3.0,3.0,0.0,1.0,1.0,438.0243620253168,2.0,1.0,part_1,,,,,,,,,,,,,white,I
185.0,3.0,3.0,0.0,2.0,2.0,369.9245339957997,2.0,1.0,part_1,,,,,,,,,,,,,white,I
403.0,8.0,4.0,1.0,2.0,2.0,392.6149810431525,2.0,1.0,part_1,,,,,,,,,,,,,cyan,cross
388.0,8.0,4.0,1.0,2.0,2.0,363.948826037813,2.0,1.0,part_1,,,,,,,,,,,,,cyan,cross
382.0,4.0,4.0,0.0,4.0,4.0,353.9517570170574,2.0,1.0,part_1,,,,,,,,,,,,,gray,hexagon
384.0,4.0,4.0,0.0,2.0,2.0,430.5452519911341,2.0,1.0,part_1,,,,,,,,,,,,,gray,hexagon
412.0,4.0,4.0,0.0,2.0,2.0,384.9496080074459,2.0,1.0,part_1,,,,,,,,,,,,,gray,hexagon
33.0,5.0,1.0,1.0,3.0,3.0,528.6790519603528,2.0,1.0,part_1,,,,,,,,,,,,,yellow,square
105.0,2.0,2.0,0.0,2.0,2.0,364.5535139949061,2.0,1.0,part_1,,,,,,,,,,,,,green,flipped triangle
0.0,8.0,0.0,1.0,4.0,4.0,368.0862309993244,2.0,1.0,part_1,,,,,,,,,,,,,cyan,cross
0.0,5.0,0.0,1.0,1.0,1.0,310.6292079901322,2.0,1.0,part_1,,,,,,,,,,,,,yellow,square
180.0,3.0,3.0,0.0,2.0,2.0,339.1881579882465,2.0,1.0,part_1,,,,,,,,,,,,,white,I
379.0,8.0,4.0,1.0,2.0,2.0,383.4905250114389,2.0,1.0,part_1,,,,,,,,,,,,,cyan,cross
403.0,4.0,4.0,0.0,1.0,1.0,396.1027879850007,2.0,1.0,part_1,,,,,,,,,,,,,gray,hexagon
0.0,7.0,0.0,1.0,4.0,4.0,400.9229780058376,2.0,1.0,part_1,,,,,,,,,,,,,orange,circle
91.0,6.0,2.0,1.0,4.0,4.0,375.0210739672184,2.0,1.0,part_1,,,,,,,,,,,,,blue,triangle
196.0,7.0,3.0,1.0,1.0,1.0,386.9372399640269,2.0,1.0,part_1,,,,,,,,,,,,,orange,circle
212.0,7.0,3.0,1.0,2.0,2.0,335.580738959834,2.0,1.0,part_1,,,,,,,,,,,,,orange,circle
208.0,7.0,3.0,1.0,1.0,1.0,346.5622080257162,2.0,1.0,part_1,,,,,,,,,,,,,orange,circle
194.0,7.0,3.0,1.0,4.0,4.0,386.0869680065661,2.0,1.0,part_1,,,,,,,,,,,,,orange,circle
391.0,8.0,4.0,1.0,3.0,3.0,349.5567039935849,2.0,1.0,part_1,,,,,,,,,,,,,cyan,cross
377.0,8.0,4.0,1.0,2.0,2.0,322.7527649723924,2.0,1.0,part_1,,,,,,,,,,,,,cyan,cross
0.0,5.0,0.0,1.0,4.0,4.0,461.7120170150883,2.0,1.0,part_1,,,,,,,,,,,,,yellow,square
198.0,3.0,3.0,0.0,4.0,4.0,523.4456440084614,2.0,1.0,part_1,,,,,,,,,,,,,white,I
219.0,7.0,3.0,1.0,2.0,2.0,385.3615180123597,2.0,1.0,part_1,,,,,,,,,,,,,orange,circle
403.0,4.0,4.0,0.0,4.0,4.0,418.282956990879,2.0,1.0,part_1,,,,,,,,,,,,,gray,hexagon
217.0,7.0,3.0,1.0,2.0,2.0,366.4561240002513,2.0,1.0,part_1,,,,,,,,,,,,,orange,circle
32.0,1.0,1.0,0.0,2.0,2.0,388.418307993561,2.0,1.0,part_1,,,,,,,,,,,,,magenta,diamond
221.0,3.0,3.0,0.0,3.0,3.0,368.4508959995582,2.0,1.0,part_1,,,,,,,,,,,,,white,I
77.0,2.0,2.0,0.0,4.0,4.0,329.0490109939128,2.0,1.0,part_1,,,,,,,,,,,,,green,flipped triangle
217.0,3.0,3.0,0.0,4.0,4.0,403.7128469790332,2.0,1.0,part_1,,,,,,,,,,,,,white,I
85.0,2.0,2.0,0.0,3.0,3.0,401.9341740058735,2.0,1.0,part_1,,,,,,,,,,,,,green,flipped triangle
408.0,8.0,4.0,1.0,2.0,2.0,314.5841109799221,2.0,1.0,part_1,,,,,,,,,,,,,cyan,cross
0.0,5.0,0.0,1.0,2.0,2.0,287.3902560095303,2.0,1.0,part_1,,,,,,,,,,,,,yellow,square
0.0,3.0,0.0,0.0,4.0,4.0,422.1490549971349,2.0,1.0,part_1,,,,,,,,,,,,,white,I
46.0,5.0,1.0,1.0,3.0,3.0,397.2753550042398,2.0,1.0,part_1,,,,,,,,,,,,,yellow,square
40.0,5.0,1.0,1.0,4.0,4.0,496.0844670422375,2.0,1.0,part_1,,,,,,,,,,,,,yellow,square
198.0,7.0,3.0,1.0,4.0,4.0,498.4350439626723,2.0,1.0,part_1,,,,,,,,,,,,,orange,circle
54.0,5.0,1.0,1.0,2.0,2.0,478.789129992947,2.0,1.0,part_1,,,,,,,,,,,,,yellow,square
0.0,8.0,0.0,1.0,3.0,3.0,406.5784300328232,2.0,1.0,part_1,,,,,,,,,,,,,cyan,cross
212.0,3.0,3.0,0.0,2.0,2.0,410.6495449668728,2.0,1.0,part_1,,,,,,,,,,,,,white,I
0.0,7.0,0.0,1.0,1.0,1.0,390.6698849750682,2.0,1.0,part_1,,,,,,,,,,,,,orange,circle
0.0,1.0,0.0,0.0,4.0,4.0,348.803126020357,2.0,1.0,part_1,,,,,,,,,,,,,magenta,diamond
384.0,8.0,4.0,1.0,2.0,2.0,262.7274930127896,2.0,1.0,part_1,,,,,,,,,,,,,cyan,cross
421.0,8.0,4.0,1.0,3.0,3.0,388.445666001644,2.0,1.0,part_1,,,,,,,,,,,,,cyan,cross
379.0,4.0,4.0,0.0,2.0,2.0,352.4350040243007,2.0,1.0,part_1,,,,,,,,,,,,,gray,hexagon
92.0,2.0,2.0,0.0,2.0,2.0,332.239048962947,2.0,1.0,part_1,,,,,,,,,,,,,green,flipped triangle
63.0,1.0,1.0,0.0,2.0,2.0,307.4199800030328,2.0,1.0,part_1,,,,,,,,,,,,,magenta,diamond
73.0,1.0,1.0,0.0,4.0,4.0,386.2889409647323,2.0,1.0,part_1,,,,,,,,,,,,,magenta,diamond
46.0,5.0,1.0,1.0,1.0,1.0,499.4822510052472,2.0,1.0,part_1,,,,,,,,,,,,,yellow,square
107.0,6.0,2.0,1.0,2.0,2.0,344.6056650136597,2.0,1.0,part_1,,,,,,,,,,,,,blue,triangle
52.0,5.0,1.0,1.0,1.0,1.0,460.9404990333132,2.0,1.0,part_1,,,,,,,,,,,,,yellow,square
86.0,6.0,2.0,1.0,1.0,1.0,401.2532460037619,2.0,1.0,part_1,,,,,,,,,,,,,blue,triangle
97.0,2.0,2.0,0.0,4.0,4.0,368.2501019793562,2.0,1.0,part_1,,,,,,,,,,,,,green,flipped triangle
396.0,8.0,4.0,1.0,1.0,1.0,524.8850620118901,2.0,1.0,part_1,,,,,,,,,,,,,cyan,cross
0.0,6.0,0.0,1.0,2.0,2.0,382.387412013486,2.0,1.0,part_1,,,,,,,,,,,,,blue,triangle
28.0,1.0,1.0,0.0,1.0,1.0,355.8687280165031,2.0,1.0,part_1,,,,,,,,,,,,,magenta,diamond
0.0,7.0,0.0,1.0,2.0,2.0,376.3112299493514,2.0,1.0,part_1,,,,,,,,,,,,,orange,circle
399.0,4.0,4.0,0.0,3.0,3.0,527.9193490277976,2.0,1.0,part_1,,,,,,,,,,,,,gray,hexagon
0.0,4.0,0.0,0.0,1.0,1.0,481.4460210036486,2.0,1.0,part_1,,,,,,,,,,,,,gray,hexagon
213.0,3.0,3.0,0.0,2.0,2.0,393.4835590189323,2.0,1.0,part_1,,,,,,,,,,,,,white,I
377.0,4.0,4.0,0.0,1.0,1.0,325.6224209908396,2.0,1.0,part_1,,,,,,,,,,,,,gray,hexagon
26.0,5.0,1.0,1.0,4.0,4.0,344.3888770416379,2.0,1.0,part_1,,,,,,,,,,,,,yellow,square
123.0,2.0,2.0,0.0,4.0,4.0,445.0533290510066,2.0,1.0,part_1,,,,,,,,,,,,,green,flipped triangle
175.0,3.0,3.0,0.0,3.0,3.0,472.9986459715292,2.0,1.0,part_1,,,,,,,,,,,,,white,I
28.0,1.0,1.0,0.0,3.0,3.0,430.4885439923964,2.0,1.0,part_1,,,,,,,,,,,,,magenta,diamond
200.0,3.0,3.0,0.0,1.0,1.0,378.2210619538091,2.0,1.0,part_1,,,,,,,,,,,,,white,I
187.0,3.0,3.0,0.0,4.0,4.0,409.1168029699474,2.0,1.0,part_1,,,,,,,,,,,,,white,I
0.0,8.0,0.0,1.0,2.0,2.0,339.75814300356427,2.0,1.0,part_1,,,,,,,,,,,,,cyan,cross
224.0,7.0,3.0,1.0,2.0,2.0,435.1461969781667,2.0,1.0,part_1,,,,,,,,,,,,,orange,circle
223.0,3.0,3.0,0.0,1.0,1.0,413.1202279822901,2.0,1.0,part_1,,,,,,,,,,,,,white,I
0.0,6.0,0.0,1.0,3.0,3.0,355.9853420010768,2.0,1.0,part_1,,,,,,,,,,,,,blue,triangle
67.0,5.0,1.0,1.0,3.0,3.0,494.9374980060383,2.0,1.0,part_1,,,,,,,,,,,,,yellow,square
84.0,2.0,2.0,0.0,4.0,4.0,405.6929729995318,2.0,1.0,part_1,,,,,,,,,,,,,green,flipped triangle
178.0,7.0,3.0,1.0,3.0,3.0,559.706736006774,2.0,1.0,part_1,,,,,,,,,,,,,orange,circle
0.0,2.0,0.0,0.0,3.0,3.0,468.7582749756984,2.0,1.0,part_1,,,,,,,,,,,,,green,flipped triangle
25.0,5.0,1.0,1.0,2.0,2.0,506.1635950114578,2.0,1.0,part_1,,,,,,,,,,,,,yellow,square
188.0,3.0,3.0,0.0,2.0,2.0,535.7788429828361,2.0,1.0,part_1,,,,,,,,,,,,,white,I
185.0,7.0,3.0,1.0,4.0,4.0,570.2261260012165,3.0,1.0,part_1,,,,,,,,,,,,,orange,circle
411.0,4.0,4.0,0.0,2.0,2.0,404.35664501274,3.0,1.0,part_1,,,,,,,,,,,,,gray,hexagon
74.0,5.0,1.0,1.0,1.0,1.0,337.1217700187117,3.0,1.0,part_1,,,,,,,,,,,,,yellow,square
207.0,3.0,3.0,0.0,2.0,2.0,504.01577295269817,3.0,1.0,part_1,,,,,,,,,,,,,white,I
72.0,1.0,1.0,0.0,2.0,2.0,433.65993804764,3.0,1.0,part_1,,,,,,,,,,,,,magenta,diamond
377.0,4.0,4.0,0.0,2.0,2.0,319.756243028678,3.0,1.0,part_1,,,,,,,,,,,,,gray,hexagon
77.0,6.0,2.0,1.0,3.0,3.0,375.0978970201686,3.0,1.0,part_1,,,,,,,,,,,,,blue,triangle
104.0,6.0,2.0,1.0,3.0,3.0,347.4155419971794,3.0,1.0,part_1,,,,,,,,,,,,,blue,triangle
385.0,4.0,4.0,0.0,1.0,1.0,471.5503249899484,3.0,1.0,part_1,,,,,,,,,,,,,gray,hexagon
414.0,4.0,4.0,0.0,1.0,1.0,380.0269489875063,3.0,1.0,part_1,,,,,,,,,,,,,gray,hexagon
95.0,6.0,2.0,1.0,4.0,4.0,335.5662089888938,3.0,1.0,part_1,,,,,,,,,,,,,blue,triangle
73.0,1.0,1.0,0.0,4.0,4.0,357.3112799786031,3.0,1.0,part_1,,,,,,,,,,,,,magenta,diamond
52.0,5.0,1.0,1.0,2.0,2.0,278.9896169560961,3.0,1.0,part_1,,,,,,,,,,,,,yellow,square
402.0,8.0,4.0,1.0,3.0,3.0,332.2653679642826,3.0,1.0,part_1,,,,,,,,,,,,,cyan,cross
194.0,3.0,3.0,0.0,1.0,1.0,376.5403499710373,3.0,1.0,part_1,,,,,,,,,,,,,white,I
200.0,3.0,3.0,0.0,4.0,4.0,377.0479410304688,3.0,1.0,part_1,,,,,,,,,,,,,white,I
57.0,5.0,1.0,1.0,2.0,2.0,421.0865949862636,3.0,1.0,part_1,,,,,,,,,,,,,yellow,square
391.0,4.0,4.0,0.0,2.0,2.0,537.1545589878224,3.0,1.0,part_1,,,,,,,,,,,,,gray,hexagon
385.0,8.0,4.0,1.0,1.0,1.0,451.4313560212031,3.0,1.0,part_1,,,,,,,,,,,,,cyan,cross
0.0,6.0,0.0,1.0,4.0,4.0,306.0858410317451,3.0,1.0,part_1,,,,,,,,,,,,,blue,triangle
32.0,5.0,1.0,1.0,2.0,2.0,372.970933036413,3.0,1.0,part_1,,,,,,,,,,,,,yellow,square
181.0,7.0,3.0,1.0,2.0,2.0,377.978686010465,3.0,1.0,part_1,,,,,,,,,,,,,orange,circle
185.0,3.0,3.0,0.0,4.0,4.0,400.9577489923686,3.0,1.0,part_1,,,,,,,,,,,,,white,I
180.0,7.0,3.0,1.0,1.0,1.0,418.7537009711377,3.0,1.0,part_1,,,,,,,,,,,,,orange,circle
104.0,6.0,2.0,1.0,3.0,3.0,336.0872580087743,3.0,1.0,part_1,,,,,,,,,,,,,blue,triangle
82.0,2.0,2.0,0.0,2.0,2.0,295.0550420209765,3.0,1.0,part_1,,,,,,,,,,,,,green,flipped triangle
403.0,4.0,4.0,0.0,3.0,3.0,388.2175259641371,3.0,1.0,part_1,,,,,,,,,,,,,gray,hexagon
65.0,1.0,1.0,0.0,4.0,4.0,344.6254369919188,3.0,1.0,part_1,,,,,,,,,,,,,magenta,diamond
58.0,1.0,1.0,0.0,2.0,2.0,405.4193110205233,3.0,1.0,part_1,,,,,,,,,,,,,magenta,diamond
198.0,3.0,3.0,0.0,2.0,2.0,422.3843449726701,3.0,1.0,part_1,,,,,,,,,,,,,white,I
0.0,8.0,0.0,1.0,1.0,1.0,427.4482049513608,3.0,1.0,part_1,,,,,,,,,,,,,cyan,cross
403.0,8.0,4.0,1.0,3.0,3.0,410.4943749844096,3.0,1.0,part_1,,,,,,,,,,,,,cyan,cross
123.0,2.0,2.0,0.0,1.0,1.0,520.7457100041211,3.0,1.0,part_1,,,,,,,,,,,,,green,flipped triangle
403.0,8.0,4.0,1.0,1.0,1.0,394.4863239885308,3.0,1.0,part_1,,,,,,,,,,,,,cyan,cross
397.0,4.0,4.0,0.0,3.0,3.0,520.2775709913112,3.0,1.0,part_1,,,,,,,,,,,,,gray,hexagon
105.0,6.0,2.0,1.0,3.0,3.0,459.9724810104817,3.0,1.0,part_1,,,,,,,,,,,,,blue,triangle
125.0,2.0,2.0,0.0,2.0,2.0,361.2407679902389,3.0,1.0,part_1,,,,,,,,,,,,,green,flipped triangle
95.0,2.0,2.0,0.0,4.0,4.0,357.7579419943504,3.0,1.0,part_1,,,,,,,,,,,,,green,flipped triangle
0.0,6.0,0.0,1.0,1.0,1.0,394.8862859979272,3.0,1.0,part_1,,,,,,,,,,,,,blue,triangle
0.0,4.0,0.0,0.0,2.0,2.0,413.8184059993364,3.0,1.0,part_1,,,,,,,,,,,,,gray,hexagon
185.0,7.0,3.0,1.0,3.0,3.0,340.3069949708879,3.0,1.0,part_1,,,,,,,,,,,,,orange,circle
45.0,1.0,1.0,0.0,2.0,2.0,337.0940680033527,3.0,1.0,part_1,,,,,,,,,,,,,magenta,diamond
90.0,2.0,2.0,0.0,1.0,1.0,373.2059770263731,3.0,1.0,part_1,,,,,,,,,,,,,green,flipped triangle
419.0,8.0,4.0,1.0,1.0,1.0,409.8367129918188,3.0,1.0,part_1,,,,,,,,,,,,,cyan,cross
76.0,6.0,2.0,1.0,1.0,1.0,414.7780479979701,3.0,1.0,part_1,,,,,,,,,,,,,blue,triangle
407.0,8.0,4.0,1.0,3.0,3.0,322.9074300033971,3.0,1.0,part_1,,,,,,,,,,,,,cyan,cross
207.0,7.0,3.0,1.0,1.0,1.0,410.6183589901775,3.0,1.0,part_1,,,,,,,,,,,,,orange,circle
207.0,3.0,3.0,0.0,4.0,4.0,348.8443149835802,3.0,1.0,part_1,,,,,,,,,,,,,white,I
0.0,7.0,0.0,1.0,3.0,3.0,408.9184590266086,3.0,1.0,part_1,,,,,,,,,,,,,orange,circle
84.0,6.0,2.0,1.0,4.0,4.0,348.8807330140844,3.0,1.0,part_1,,,,,,,,,,,,,blue,triangle
55.0,1.0,1.0,0.0,3.0,3.0,530.7522669900209,3.0,1.0,part_1,,,,,,,,,,,,,magenta,diamond
412.0,4.0,4.0,0.0,4.0,4.0,470.9589859703555,3.0,1.0,part_1,,,,,,,,,,,,,gray,hexagon
0.0,2.0,0.0,0.0,3.0,3.0,388.8910259702243,3.0,1.0,part_1,,,,,,,,,,,,,green,flipped triangle
0.0,4.0,0.0,0.0,2.0,2.0,370.5309450160712,3.0,1.0,part_1,,,,,,,,,,,,,gray,hexagon
124.0,2.0,2.0,0.0,1.0,1.0,540.9773010178469,3.0,1.0,part_1,,,,,,,,,,,,,green,flipped triangle
413.0,8.0,4.0,1.0,4.0,4.0,491.4052409585565,3.0,1.0,part_1,,,,,,,,,,,,,cyan,cross
26.0,1.0,1.0,0.0,1.0,1.0,389.220405020751,3.0,1.0,part_1,,,,,,,,,,,,,magenta,diamond
194.0,7.0,3.0,1.0,3.0,3.0,397.3184710484929,3.0,1.0,part_1,,,,,,,,,,,,,orange,circle
74.0,1.0,1.0,0.0,2.0,2.0,391.5447409963235,3.0,1.0,part_1,,,,,,,,,,,,,magenta,diamond
182.0,3.0,3.0,0.0,3.0,3.0,511.5495549980551,3.0,1.0,part_1,,,,,,,,,,,,,white,I
41.0,1.0,1.0,0.0,2.0,2.0,475.6925409892574,3.0,1.0,part_1,,,,,,,,,,,,,magenta,diamond
38.0,1.0,1.0,0.0,1.0,1.0,615.4278000467457,3.0,1.0,part_1,,,,,,,,,,,,,magenta,diamond
411.0,8.0,4.0,1.0,2.0,2.0,548.5438440227881,3.0,1.0,part_1,,,,,,,,,,,,,cyan,cross
417.0,4.0,4.0,0.0,4.0,4.0,400.9144939482212,3.0,1.0,part_1,,,,,,,,,,,,,gray,hexagon
95.0,6.0,2.0,1.0,1.0,1.0,598.0039769783616,3.0,1.0,part_1,,,,,,,,,,,,,blue,triangle
105.0,6.0,2.0,1.0,2.0,2.0,512.5388180022128,3.0,1.0,part_1,,,,,,,,,,,,,blue,triangle
0.0,2.0,0.0,0.0,3.0,3.0,310.3651449782774,3.0,1.0,part_1,,,,,,,,,,,,,green,flipped triangle
52.0,1.0,1.0,0.0,3.0,3.0,363.9255880261771,3.0,1.0,part_1,,,,,,,,,,,,,magenta,diamond
68.0,1.0,1.0,0.0,1.0,1.0,430.35947997123,3.0,1.0,part_1,,,,,,,,,,,,,magenta,diamond
90.0,2.0,2.0,0.0,3.0,3.0,530.786866962444,3.0,1.0,part_1,,,,,,,,,,,,,green,flipped triangle
0.0,3.0,0.0,0.0,2.0,2.0,474.7953749611042,3.0,1.0,part_1,,,,,,,,,,,,,white,I
382.0,8.0,4.0,1.0,1.0,1.0,517.119795025792,3.0,1.0,part_1,,,,,,,,,,,,,cyan,cross
408.0,4.0,4.0,0.0,4.0,4.0,408.9720720076002,3.0,1.0,part_1,,,,,,,,,,,,,gray,hexagon
414.0,8.0,4.0,1.0,3.0,3.0,397.0811099861748,3.0,1.0,part_1,,,,,,,,,,,,,cyan,cross
408.0,8.0,4.0,1.0,2.0,2.0,314.6769190207124,3.0,1.0,part_1,,,,,,,,,,,,,cyan,cross
414.0,8.0,4.0,1.0,4.0,4.0,424.2918589734472,3.0,1.0,part_1,,,,,,,,,,,,,cyan,cross
407.0,4.0,4.0,0.0,3.0,3.0,413.0023779580369,3.0,1.0,part_1,,,,,,,,,,,,,gray,hexagon
221.0,7.0,3.0,1.0,4.0,4.0,417.863461014349,3.0,1.0,part_1,,,,,,,,,,,,,orange,circle
85.0,6.0,2.0,1.0,3.0,3.0,397.9491280042566,3.0,1.0,part_1,,,,,,,,,,,,,blue,triangle
57.0,1.0,1.0,0.0,3.0,3.0,434.0154770179651,3.0,1.0,part_1,,,,,,,,,,,,,magenta,diamond
0.0,1.0,0.0,0.0,1.0,1.0,365.3926039696671,3.0,1.0,part_1,,,,,,,,,,,,,magenta,diamond
111.0,2.0,2.0,0.0,2.0,2.0,339.9920199881308,3.0,1.0,part_1,,,,,,,,,,,,,green,flipped triangle
0.0,7.0,0.0,1.0,1.0,1.0,344.2368929972872,3.0,1.0,part_1,,,,,,,,,,,,,orange,circle
399.0,8.0,4.0,1.0,4.0,4.0,405.7799840229563,3.0,1.0,part_1,,,,,,,,,,,,,cyan,cross
0.0,8.0,0.0,1.0,2.0,2.0,483.3668380160816,3.0,1.0,part_1,,,,,,,,,,,,,cyan,cross
187.0,7.0,3.0,1.0,1.0,1.0,429.9889809917658,3.0,1.0,part_1,,,,,,,,,,,,,orange,circle
0.0,4.0,0.0,0.0,4.0,4.0,436.4959840313531,3.0,1.0,part_1,,,,,,,,,,,,,gray,hexagon
45.0,5.0,1.0,1.0,4.0,4.0,415.0607960182242,3.0,1.0,part_1,,,,,,,,,,,,,yellow,square
65.0,1.0,1.0,0.0,1.0,1.0,397.7466289652511,3.0,1.0,part_1,,,,,,,,,,,,,magenta,diamond
175.0,7.0,3.0,1.0,2.0,2.0,491.22060299851,3.0,1.0,part_1,,,,,,,,,,,,,orange,circle
110.0,6.0,2.0,1.0,4.0,4.0,397.1885850187391,3.0,1.0,part_1,,,,,,,,,,,,,blue,triangle
207.0,7.0,3.0,1.0,1.0,1.0,405.4947079857811,3.0,1.0,part_1,,,,,,,,,,,,,orange,circle
425.0,4.0,4.0,0.0,4.0,4.0,369.370931002777,3.0,1.0,part_1,,,,,,,,,,,,,gray,hexagon
0.0,2.0,0.0,0.0,3.0,3.0,614.7501299856231,3.0,1.0,part_1,,,,,,,,,,,,,green,flipped triangle
0.0,3.0,0.0,0.0,3.0,3.0,402.365761983674,3.0,1.0,part_1,,,,,,,,,,,,,white,I
90.0,6.0,2.0,1.0,4.0,4.0,398.8072990323417,3.0,1.0,part_1,,,,,,,,,,,,,blue,triangle
0.0,2.0,0.0,0.0,4.0,4.0,332.3856529896147,3.0,1.0,part_1,,,,,,,,,,,,,green,flipped triangle
65.0,5.0,1.0,1.0,3.0,3.0,480.7977590244263,3.0,1.0,part_1,,,,,,,,,,,,,yellow,square
124.0,6.0,2.0,1.0,3.0,3.0,450.006666011177,3.0,1.0,part_1,,,,,,,,,,,,,blue,triangle
388.0,4.0,4.0,0.0,3.0,3.0,505.1970059867017,3.0,1.0,part_1,,,,,,,,,,,,,gray,hexagon
73.0,5.0,1.0,1.0,3.0,3.0,544.4390490301885,4.0,1.0,part_1,,,,,,,,,,,,,yellow,square
61.0,5.0,1.0,1.0,3.0,3.0,372.8957599960267,4.0,1.0,part_1,,,,,,,,,,,,,yellow,square
0.0,5.0,0.0,1.0,1.0,1.0,368.8189349486492,4.0,1.0,part_1,,,,,,,,,,,,,yellow,square
415.0,8.0,4.0,1.0,4.0,4.0,307.9091280233115,4.0,1.0,part_1,,,,,,,,,,,,,cyan,cross
82.0,2.0,2.0,0.0,2.0,2.0,307.6951160328462,4.0,1.0,part_1,,,,,,,,,,,,,green,flipped triangle
413.0,4.0,4.0,0.0,4.0,4.0,422.3960590315982,4.0,1.0,part_1,,,,,,,,,,,,,gray,hexagon
384.0,4.0,4.0,0.0,2.0,2.0,410.0140180089511,4.0,1.0,part_1,,,,,,,,,,,,,gray,hexagon
0.0,7.0,0.0,1.0,1.0,1.0,344.2740169703029,4.0,1.0,part_1,,,,,,,,,,,,,orange,circle
385.0,8.0,4.0,1.0,2.0,2.0,270.3571000020019,4.0,1.0,part_1,,,,,,,,,,,,,cyan,cross
182.0,7.0,3.0,1.0,4.0,4.0,306.966750009451,4.0,1.0,part_1,,,,,,,,,,,,,orange,circle
0.0,4.0,0.0,0.0,1.0,1.0,357.643075985834,4.0,1.0,part_1,,,,,,,,,,,,,gray,hexagon
385.0,8.0,4.0,1.0,1.0,1.0,356.8401769734919,4.0,1.0,part_1,,,,,,,,,,,,,cyan,cross
400.0,8.0,4.0,1.0,4.0,4.0,311.9230780284852,4.0,1.0,part_1,,,,,,,,,,,,,cyan,cross
0.0,1.0,0.0,0.0,1.0,1.0,380.6697860127315,4.0,1.0,part_1,,,,,,,,,,,,,magenta,diamond
189.0,7.0,3.0,1.0,2.0,2.0,376.3314780080691,4.0,1.0,part_1,,,,,,,,,,,,,orange,circle
0.0,6.0,0.0,1.0,2.0,2.0,454.9598370213061,4.0,1.0,part_1,,,,,,,,,,,,,blue,triangle
393.0,8.0,4.0,1.0,3.0,3.0,459.255437948741,4.0,1.0,part_1,,,,,,,,,,,,,cyan,cross
106.0,6.0,2.0,1.0,2.0,2.0,351.6415909980424,4.0,1.0,part_1,,,,,,,,,,,,,blue,triangle
52.0,1.0,1.0,0.0,4.0,4.0,348.3799709938466,4.0,1.0,part_1,,,,,,,,,,,,,magenta,diamond
39.0,5.0,1.0,1.0,3.0,3.0,375.9416309767402,4.0,1.0,part_1,,,,,,,,,,,,,yellow,square
72.0,5.0,1.0,1.0,1.0,1.0,308.6796210263856,4.0,1.0,part_1,,,,,,,,,,,,,yellow,square
0.0,7.0,0.0,1.0,3.0,3.0,427.5430930429138,4.0,1.0,part_1,,,,,,,,,,,,,orange,circle
32.0,5.0,1.0,1.0,2.0,2.0,432.3307430022396,4.0,1.0,part_1,,,,,,,,,,,,,yellow,square
52.0,1.0,1.0,0.0,1.0,1.0,422.0879129716195,4.0,1.0,part_1,,,,,,,,,,,,,magenta,diamond
207.0,7.0,3.0,1.0,3.0,3.0,409.0461370069533,4.0,1.0,part_1,,,,,,,,,,,,,orange,circle
79.0,2.0,2.0,0.0,4.0,4.0,303.1745509942993,4.0,1.0,part_1,,,,,,,,,,,,,green,flipped triangle
212.0,7.0,3.0,1.0,4.0,4.0,347.8694789810106,4.0,1.0,part_1,,,,,,,,,,,,,orange,circle
90.0,6.0,2.0,1.0,4.0,4.0,287.9358420032076,4.0,1.0,part_1,,,,,,,,,,,,,blue,triangle
0.0,7.0,0.0,1.0,3.0,3.0,354.9044840037823,4.0,1.0,part_1,,,,,,,,,,,,,orange,circle
91.0,2.0,2.0,0.0,4.0,4.0,335.8116259914823,4.0,1.0,part_1,,,,,,,,,,,,,green,flipped triangle
219.0,7.0,3.0,1.0,2.0,2.0,388.5698789963498,4.0,1.0,part_1,,,,,,,,,,,,,orange,circle
79.0,6.0,2.0,1.0,2.0,2.0,369.2961490014568,4.0,1.0,part_1,,,,,,,,,,,,,blue,triangle
107.0,6.0,2.0,1.0,2.0,2.0,327.0834400318563,4.0,1.0,part_1,,,,,,,,,,,,,blue,triangle
55.0,5.0,1.0,1.0,1.0,1.0,450.3315510228276,4.0,1.0,part_1,,,,,,,,,,,,,yellow,square
110.0,2.0,2.0,0.0,2.0,2.0,328.0538489925675,4.0,1.0,part_1,,,,,,,,,,,,,green,flipped triangle
0.0,5.0,0.0,1.0,2.0,2.0,377.9985539731569,4.0,1.0,part_1,,,,,,,,,,,,,yellow,square
105.0,2.0,2.0,0.0,3.0,3.0,456.9573060143739,4.0,1.0,part_1,,,,,,,,,,,,,green,flipped triangle
185.0,3.0,3.0,0.0,3.0,3.0,395.6094500026665,4.0,1.0,part_1,,,,,,,,,,,,,white,I
88.0,6.0,2.0,1.0,2.0,2.0,330.3018329897895,4.0,1.0,part_1,,,,,,,,,,,,,blue,triangle
107.0,2.0,2.0,0.0,1.0,1.0,352.1741529693827,4.0,1.0,part_1,,,,,,,,,,,,,green,flipped triangle
408.0,4.0,4.0,0.0,4.0,4.0,347.8160770027898,4.0,1.0,part_1,,,,,,,,,,,,,gray,hexagon
31.0,5.0,1.0,1.0,2.0,2.0,270.0724320020526,4.0,1.0,part_1,,,,,,,,,,,,,yellow,square
407.0,8.0,4.0,1.0,1.0,1.0,323.7082560081035,4.0,1.0,part_1,,,,,,,,,,,,,cyan,cross
125.0,6.0,2.0,1.0,4.0,4.0,314.5549690234475,4.0,1.0,part_1,,,,,,,,,,,,,blue,triangle
80.0,6.0,2.0,1.0,1.0,1.0,318.5926509904675,4.0,1.0,part_1,,,,,,,,,,,,,blue,triangle
0.0,6.0,0.0,1.0,2.0,2.0,458.6843239958398,4.0,1.0,part_1,,,,,,,,,,,,,blue,triangle
39.0,1.0,1.0,0.0,3.0,3.0,413.7924049864523,4.0,1.0,part_1,,,,,,,,,,,,,magenta,diamond
385.0,8.0,4.0,1.0,3.0,3.0,386.3455019891262,4.0,1.0,part_1,,,,,,,,,,,,,cyan,cross
46.0,1.0,1.0,0.0,2.0,2.0,320.386428036727,4.0,1.0,part_1,,,,,,,,,,,,,magenta,diamond
115.0,2.0,2.0,0.0,1.0,1.0,311.5801709936932,4.0,1.0,part_1,,,,,,,,,,,,,green,flipped triangle
207.0,3.0,3.0,0.0,3.0,3.0,355.4407479823567,4.0,1.0,part_1,,,,,,,,,,,,,white,I
0.0,6.0,0.0,1.0,4.0,4.0,295.0267410487868,4.0,1.0,part_1,,,,,,,,,,,,,blue,triangle
26.0,1.0,1.0,0.0,4.0,4.0,347.8701019776054,4.0,1.0,part_1,,,,,,,,,,,,,magenta,diamond
179.0,7.0,3.0,1.0,4.0,4.0,400.8917579776607,4.0,1.0,part_1,,,,,,,,,,,,,orange,circle
417.0,8.0,4.0,1.0,4.0,4.0,323.1275000143796,4.0,1.0,part_1,,,,,,,,,,,,,cyan,cross
0.0,4.0,0.0,0.0,3.0,3.0,314.7690370096825,4.0,1.0,part_1,,,,,,,,,,,,,gray,hexagon
82.0,6.0,2.0,1.0,1.0,1.0,373.9036570186727,4.0,1.0,part_1,,,,,,,,,,,,,blue,triangle
46.0,1.0,1.0,0.0,3.0,3.0,457.5326449703425,4.0,1.0,part_1,,,,,,,,,,,,,magenta,diamond
0.0,6.0,0.0,1.0,3.0,3.0,345.1986199943349,4.0,1.0,part_1,,,,,,,,,,,,,blue,triangle
41.0,5.0,1.0,1.0,1.0,1.0,298.6402829992585,4.0,1.0,part_1,,,,,,,,,,,,,yellow,square
396.0,4.0,4.0,0.0,3.0,3.0,417.7309459773823,4.0,1.0,part_1,,,,,,,,,,,,,gray,hexagon
219.0,3.0,3.0,0.0,4.0,4.0,508.3149499841966,4.0,1.0,part_1,,,,,,,,,,,,,white,I
0.0,2.0,0.0,0.0,2.0,2.0,401.0483100428246,4.0,1.0,part_1,,,,,,,,,,,,,green,flipped triangle
0.0,4.0,0.0,0.0,3.0,3.0,384.6020710188895,4.0,1.0,part_1,,,,,,,,,,,,,gray,hexagon
414.0,4.0,4.0,0.0,3.0,3.0,396.8099970370531,4.0,1.0,part_1,,,,,,,,,,,,,gray,hexagon
399.0,8.0,4.0,1.0,4.0,4.0,393.2255590334534,4.0,1.0,part_1,,,,,,,,,,,,,cyan,cross
0.0,3.0,0.0,0.0,2.0,2.0,364.0303890570067,4.0,1.0,part_1,,,,,,,,,,,,,white,I
55.0,5.0,1.0,1.0,4.0,4.0,351.9951800117269,4.0,1.0,part_1,,,,,,,,,,,,,yellow,square
385.0,4.0,4.0,0.0,1.0,1.0,304.1396329645067,4.0,1.0,part_1,,,,,,,,,,,,,gray,hexagon
40.0,1.0,1.0,0.0,3.0,3.0,322.5440260139294,4.0,1.0,part_1,,,,,,,,,,,,,magenta,diamond
73.0,5.0,1.0,1.0,1.0,1.0,404.813639994245,4.0,2.0,part_1,,,,,,,,,,,,,yellow,square
178.0,3.0,3.0,0.0,3.0,3.0,418.1654859567061,4.0,1.0,part_1,,,,,,,,,,,,,white,I
0.0,5.0,0.0,1.0,2.0,2.0,360.1557489600964,4.0,1.0,part_1,,,,,,,,,,,,,yellow,square
115.0,6.0,2.0,1.0,3.0,3.0,444.95699100662017,4.0,1.0,part_1,,,,,,,,,,,,,blue,triangle
124.0,6.0,2.0,1.0,2.0,2.0,559.6122110146098,4.0,1.0,part_1,,,,,,,,,,,,,blue,triangle
0.0,6.0,0.0,1.0,2.0,2.0,403.3418570179492,4.0,1.0,part_1,,,,,,,,,,,,,blue,triangle
110.0,6.0,2.0,1.0,1.0,1.0,359.0589690138586,4.0,1.0,part_1,,,,,,,,,,,,,blue,triangle
0.0,3.0,0.0,0.0,4.0,4.0,551.8971789861098,4.0,1.0,part_1,,,,,,,,,,,,,white,I
76.0,2.0,2.0,0.0,4.0,4.0,587.4270490021445,4.0,1.0,part_1,,,,,,,,,,,,,green,flipped triangle
82.0,6.0,2.0,1.0,1.0,1.0,367.09263199009,4.0,1.0,part_1,,,,,,,,,,,,,blue,triangle
0.0,8.0,0.0,1.0,1.0,1.0,449.5371429948136,4.0,1.0,part_1,,,,,,,,,,,,,cyan,cross
219.0,3.0,3.0,0.0,2.0,2.0,409.1490499558858,4.0,1.0,part_1,,,,,,,,,,,,,white,I
54.0,1.0,1.0,0.0,4.0,4.0,427.3791650193743,4.0,1.0,part_1,,,,,,,,,,,,,magenta,diamond
0.0,8.0,0.0,1.0,2.0,2.0,402.0781809813343,4.0,1.0,part_1,,,,,,,,,,,,,cyan,cross
417.0,4.0,4.0,0.0,3.0,3.0,341.2231130059808,4.0,1.0,part_1,,,,,,,,,,,,,gray,hexagon
30.0,5.0,1.0,1.0,2.0,2.0,394.8710549739189,4.0,1.0,part_1,,,,,,,,,,,,,yellow,square
0.0,1.0,0.0,0.0,1.0,1.0,335.8225129777565,4.0,1.0,part_1,,,,,,,,,,,,,magenta,diamond
0.0,2.0,0.0,0.0,2.0,2.0,338.4143500006757,4.0,1.0,part_1,,,,,,,,,,,,,green,flipped triangle
110.0,2.0,2.0,0.0,3.0,3.0,359.5039889914915,4.0,1.0,part_1,,,,,,,,,,,,,green,flipped triangle
95.0,2.0,2.0,0.0,3.0,3.0,388.2943489588797,4.0,1.0,part_1,,,,,,,,,,,,,green,flipped triangle
184.0,7.0,3.0,1.0,1.0,1.0,320.623131992761,4.0,1.0,part_1,,,,,,,,,,,,,orange,circle
0.0,8.0,0.0,1.0,4.0,4.0,319.3856430007145,4.0,1.0,part_1,,,,,,,,,,,,,cyan,cross
383.0,4.0,4.0,0.0,1.0,1.0,398.10741803376,4.0,1.0,part_1,,,,,,,,,,,,,gray,hexagon
0.0,1.0,0.0,0.0,3.0,3.0,345.359903993085,4.0,1.0,part_1,,,,,,,,,,,,,magenta,diamond
412.0,8.0,4.0,1.0,3.0,3.0,388.2725069997832,4.0,1.0,part_1,,,,,,,,,,,,,cyan,cross
208.0,7.0,3.0,1.0,3.0,3.0,376.6770570073277,4.0,1.0,part_1,,,,,,,,,,,,,orange,circle
31.0,1.0,1.0,0.0,4.0,4.0,389.5770200178958,4.0,1.0,part_1,,,,,,,,,,,,,magenta,diamond
0.0,8.0,0.0,1.0,3.0,3.0,345.9776520030573,4.0,1.0,part_1,,,,,,,,,,,,,cyan,cross
384.0,8.0,4.0,1.0,2.0,2.0,359.7311820485629,4.0,1.0,part_1,,,,,,,,,,,,,cyan,cross
181.0,3.0,3.0,0.0,1.0,1.0,405.5727139930241,4.0,1.0,part_1,,,,,,,,,,,,,white,I
0.0,2.0,2.0,0.0,6.0,6.0,570.0322680058889,1.0,0.0,part_2,go,250.0,250.0,1.0,,,,,,,,,green,flipped triangle
0.0,7.0,3.0,1.0,6.0,6.0,510.4664239916019,1.0,0.0,part_2,stop,250.0,250.0,3.0,,,,,,,,,orange,circle
0.0,4.0,4.0,0.0,6.0,6.0,455.1187150063924,1.0,0.0,part_2,go,250.0,200.0,1.0,,,,,,,,,gray,hexagon
0.0,1.0,1.0,0.0,6.0,6.0,810.4335410171188,1.0,0.0,part_2,go,250.0,200.0,1.0,,,,,,,,,magenta,diamond
0.0,1.0,1.0,0.0,6.0,6.0,745.7241210504435,1.0,0.0,part_2,go,250.0,200.0,1.0,,,,,,,,,magenta,diamond
0.0,2.0,2.0,0.0,6.0,6.0,631.3603339949623,1.0,0.0,part_2,go,250.0,200.0,1.0,,,,,,,,,green,flipped triangle
0.0,3.0,3.0,0.0,5.0,5.0,669.9335199664347,1.0,0.0,part_2,go,250.0,200.0,1.0,,,,,,,,,white,I
0.0,1.0,1.0,0.0,6.0,6.0,351.2414970318787,1.0,0.0,part_2,go,250.0,200.0,1.0,,,,,,,,,magenta,diamond
0.0,3.0,3.0,0.0,5.0,5.0,380.5583380162716,1.0,0.0,part_2,go,250.0,200.0,1.0,,,,,,,,,white,I
0.0,6.0,2.0,1.0,5.0,5.0,655.867617984768,1.0,0.0,part_2,go,250.0,200.0,1.0,,,,,,,,,blue,triangle
0.0,7.0,3.0,1.0,5.0,0.0,0.0,1.0,0.0,part_2,stop,250.0,200.0,4.0,,,,,,,,,orange,circle
0.0,5.0,1.0,1.0,5.0,0.0,0.0,1.0,0.0,part_2,stop,300.0,200.0,4.0,,,,,,,,,yellow,square
0.0,3.0,3.0,0.0,6.0,6.0,705.8450810145587,1.0,0.0,part_2,go,350.0,200.0,1.0,,,,,,,,,white,I
0.0,8.0,4.0,1.0,6.0,6.0,684.7951229428872,1.0,0.0,part_2,go,350.0,200.0,1.0,,,,,,,,,cyan,cross
0.0,5.0,1.0,1.0,5.0,0.0,0.0,1.0,0.0,part_2,stop,350.0,200.0,4.0,,,,,,,,,yellow,square
0.0,5.0,1.0,1.0,5.0,0.0,0.0,1.0,0.0,part_2,stop,400.0,200.0,4.0,,,,,,,,,yellow,square
0.0,4.0,4.0,0.0,5.0,5.0,712.7503289957531,1.0,0.0,part_2,go,450.0,200.0,1.0,,,,,,,,,gray,hexagon
0.0,6.0,2.0,1.0,5.0,0.0,0.0,1.0,0.0,part_2,stop,450.0,200.0,4.0,,,,,,,,,blue,triangle
0.0,6.0,2.0,1.0,6.0,0.0,0.0,1.0,0.0,part_2,stop,500.0,200.0,4.0,,,,,,,,,blue,triangle
0.0,1.0,1.0,0.0,6.0,6.0,733.964686980471,1.0,0.0,part_2,go,500.0,250.0,1.0,,,,,,,,,magenta,diamond
0.0,6.0,2.0,1.0,6.0,0.0,0.0,1.0,0.0,part_2,stop,500.0,250.0,4.0,,,,,,,,,blue,triangle
0.0,3.0,3.0,0.0,6.0,6.0,868.6679269885644,1.0,0.0,part_2,go,500.0,300.0,1.0,,,,,,,,,white,I
0.0,8.0,4.0,1.0,5.0,0.0,0.0,1.0,0.0,part_2,stop,500.0,300.0,4.0,,,,,,,,,cyan,cross
0.0,7.0,3.0,1.0,5.0,0.0,0.0,1.0,0.0,part_2,stop,550.0,300.0,4.0,,,,,,,,,orange,circle
0.0,3.0,3.0,0.0,6.0,6.0,516.477599972859,1.0,0.0,part_2,go,600.0,300.0,1.0,,,,,,,,,white,I
0.0,1.0,1.0,0.0,6.0,6.0,854.0350730181672,1.0,0.0,part_2,go,600.0,300.0,1.0,,,,,,,,,magenta,diamond
0.0,1.0,1.0,0.0,6.0,6.0,876.4278619782999,1.0,0.0,part_2,go,600.0,300.0,1.0,,,,,,,,,magenta,diamond
0.0,1.0,1.0,0.0,6.0,6.0,594.5786949596368,1.0,0.0,part_2,go,600.0,300.0,1.0,,,,,,,,,magenta,diamond
0.0,7.0,3.0,1.0,6.0,0.0,0.0,1.0,0.0,part_2,stop,600.0,300.0,4.0,,,,,,,,,orange,circle
0.0,1.0,1.0,0.0,5.0,5.0,713.1548289908096,1.0,0.0,part_2,go,600.0,350.0,1.0,,,,,,,,,magenta,diamond
0.0,7.0,3.0,1.0,6.0,0.0,0.0,1.0,0.0,part_2,stop,600.0,350.0,4.0,,,,,,,,,orange,circle
0.0,3.0,3.0,0.0,5.0,5.0,810.8033769531175,1.0,0.0,part_2,go,600.0,400.0,1.0,,,,,,,,,white,I
0.0,2.0,2.0,0.0,5.0,5.0,1097.5362220196985,1.0,0.0,part_2,go,600.0,400.0,1.0,,,,,,,,,green,flipped triangle
0.0,7.0,3.0,1.0,5.0,5.0,1034.4798549776897,1.0,0.0,part_2,go,600.0,400.0,1.0,,,,,,,,,orange,circle
0.0,4.0,4.0,0.0,6.0,6.0,975.2687719883396,1.0,0.0,part_2,go,600.0,400.0,1.0,,,,,,,,,gray,hexagon
0.0,3.0,3.0,0.0,5.0,5.0,695.2294479706325,1.0,0.0,part_2,go,600.0,400.0,1.0,,,,,,,,,white,I
0.0,3.0,3.0,0.0,5.0,5.0,607.6821279712021,2.0,0.0,part_2,go,600.0,400.0,1.0,,,,,,,,,white,I
0.0,7.0,3.0,1.0,6.0,6.0,281.7980489926412,2.0,0.0,part_2,go,600.0,400.0,1.0,,,,,,,,,orange,circle
0.0,3.0,3.0,0.0,6.0,6.0,545.1425659703091,2.0,0.0,part_2,go,600.0,400.0,1.0,,,,,,,,,white,I
0.0,5.0,1.0,1.0,6.0,6.0,477.7895610313862,2.0,0.0,part_2,stop,600.0,400.0,3.0,,,,,,,,,yellow,square
0.0,1.0,1.0,0.0,5.0,5.0,784.8150929785334,2.0,0.0,part_2,go,600.0,350.0,1.0,,,,,,,,,magenta,diamond
0.0,1.0,1.0,0.0,6.0,6.0,880.6610939791426,2.0,0.0,part_2,go,600.0,350.0,1.0,,,,,,,,,magenta,diamond
0.0,1.0,1.0,0.0,5.0,5.0,494.1474999650381,2.0,0.0,part_2,go,600.0,350.0,1.0,,,,,,,,,magenta,diamond
0.0,4.0,4.0,0.0,5.0,5.0,758.2901570131071,2.0,0.0,part_2,go,600.0,350.0,1.0,,,,,,,,,gray,hexagon
0.0,2.0,2.0,0.0,5.0,5.0,732.7424259856343,2.0,0.0,part_2,go,600.0,350.0,1.0,,,,,,,,,green,flipped triangle
0.0,3.0,3.0,0.0,6.0,6.0,516.8818879756145,2.0,0.0,part_2,go,600.0,350.0,1.0,,,,,,,,,white,I
0.0,2.0,2.0,0.0,6.0,6.0,722.0313310390338,2.0,0.0,part_2,go,600.0,350.0,1.0,,,,,,,,,green,flipped triangle
0.0,3.0,3.0,0.0,5.0,5.0,885.0089049665257,2.0,0.0,part_2,go,600.0,350.0,1.0,,,,,,,,,white,I
0.0,8.0,4.0,1.0,6.0,0.0,0.0,2.0,0.0,part_2,stop,600.0,350.0,4.0,,,,,,,,,cyan,cross
0.0,7.0,3.0,1.0,6.0,0.0,0.0,2.0,0.0,part_2,stop,600.0,400.0,4.0,,,,,,,,,orange,circle
0.0,2.0,2.0,0.0,5.0,5.0,599.7211000067182,2.0,0.0,part_2,go,600.0,450.0,1.0,,,,,,,,,green,flipped triangle
0.0,7.0,3.0,1.0,5.0,5.0,531.0207210131921,2.0,0.0,part_2,go,600.0,450.0,1.0,,,,,,,,,orange,circle
0.0,4.0,4.0,0.0,5.0,5.0,624.2347870138474,2.0,0.0,part_2,go,600.0,450.0,1.0,,,,,,,,,gray,hexagon
0.0,4.0,4.0,0.0,5.0,5.0,362.1926630148664,2.0,0.0,part_2,go,600.0,450.0,1.0,,,,,,,,,gray,hexagon
0.0,1.0,1.0,0.0,5.0,5.0,680.5979009950534,2.0,0.0,part_2,go,600.0,450.0,1.0,,,,,,,,,magenta,diamond
0.0,6.0,2.0,1.0,5.0,5.0,470.9994950098917,2.0,0.0,part_2,stop,600.0,450.0,3.0,,,,,,,,,blue,triangle
0.0,5.0,1.0,1.0,6.0,0.0,0.0,2.0,0.0,part_2,stop,550.0,450.0,4.0,,,,,,,,,yellow,square
0.0,1.0,1.0,0.0,5.0,5.0,951.6766769811512,2.0,0.0,part_2,go,550.0,500.0,1.0,,,,,,,,,magenta,diamond
0.0,1.0,1.0,0.0,6.0,6.0,659.4101209775545,2.0,0.0,part_2,go,550.0,500.0,1.0,,,,,,,,,magenta,diamond
0.0,6.0,2.0,1.0,6.0,6.0,867.2782530193217,2.0,0.0,part_2,go,550.0,500.0,1.0,,,,,,,,,blue,triangle
0.0,3.0,3.0,0.0,5.0,5.0,650.837798952125,2.0,0.0,part_2,go,550.0,500.0,1.0,,,,,,,,,white,I
0.0,4.0,4.0,0.0,6.0,6.0,707.8627070295624,2.0,0.0,part_2,go,550.0,500.0,1.0,,,,,,,,,gray,hexagon
0.0,8.0,4.0,1.0,6.0,6.0,626.418677973561,2.0,0.0,part_2,stop,550.0,500.0,3.0,,,,,,,,,cyan,cross
0.0,8.0,4.0,1.0,5.0,0.0,0.0,2.0,0.0,part_2,stop,550.0,450.0,4.0,,,,,,,,,cyan,cross
0.0,6.0,2.0,1.0,6.0,0.0,0.0,2.0,0.0,part_2,stop,600.0,450.0,4.0,,,,,,,,,blue,triangle
0.0,8.0,4.0,1.0,6.0,6.0,951.5892970375716,2.0,0.0,part_2,go,600.0,500.0,1.0,,,,,,,,,cyan,cross
0.0,4.0,4.0,0.0,5.0,5.0,987.18530399492,2.0,0.0,part_2,go,600.0,500.0,1.0,,,,,,,,,gray,hexagon
0.0,4.0,4.0,0.0,6.0,6.0,646.8380719888955,2.0,0.0,part_2,go,600.0,500.0,1.0,,,,,,,,,gray,hexagon
0.0,4.0,4.0,0.0,6.0,6.0,806.0529099893756,2.0,0.0,part_2,go,600.0,500.0,1.0,,,,,,,,,gray,hexagon
0.0,6.0,2.0,1.0,5.0,0.0,0.0,2.0,0.0,part_2,stop,600.0,500.0,4.0,,,,,,,,,blue,triangle
0.0,7.0,3.0,1.0,6.0,0.0,0.0,2.0,0.0,part_2,stop,650.0,500.0,4.0,,,,,,,,,orange,circle
0.0,2.0,2.0,0.0,6.0,6.0,798.7745099817403,2.0,0.0,part_2,go,650.0,550.0,1.0,,,,,,,,,green,flipped triangle
0.0,2.0,2.0,0.0,6.0,6.0,714.0718589653261,3.0,0.0,part_2,go,650.0,550.0,1.0,,,,,,,,,green,flipped triangle
0.0,1.0,1.0,0.0,5.0,5.0,490.4138360288925,3.0,0.0,part_2,go,650.0,550.0,1.0,,,,,,,,,magenta,diamond
0.0,1.0,1.0,0.0,5.0,5.0,362.4311719904654,3.0,0.0,part_2,go,650.0,550.0,1.0,,,,,,,,,magenta,diamond
0.0,3.0,3.0,0.0,6.0,6.0,401.5786109957844,3.0,0.0,part_2,go,650.0,550.0,1.0,,,,,,,,,white,I
0.0,3.0,3.0,0.0,6.0,6.0,586.7463879985735,3.0,0.0,part_2,go,650.0,550.0,1.0,,,,,,,,,white,I
0.0,2.0,2.0,0.0,5.0,5.0,537.2447369736619,3.0,0.0,part_2,go,650.0,550.0,1.0,,,,,,,,,green,flipped triangle
0.0,8.0,4.0,1.0,6.0,6.0,678.8549050106667,3.0,0.0,part_2,stop,650.0,550.0,3.0,,,,,,,,,cyan,cross
0.0,8.0,4.0,1.0,5.0,5.0,813.4027539636008,3.0,0.0,part_2,go,650.0,500.0,1.0,,,,,,,,,cyan,cross
0.0,2.0,2.0,0.0,6.0,6.0,701.5635359566659,3.0,0.0,part_2,go,650.0,500.0,1.0,,,,,,,,,green,flipped triangle
0.0,2.0,2.0,0.0,5.0,5.0,357.3503899970092,3.0,0.0,part_2,go,650.0,500.0,1.0,,,,,,,,,green,flipped triangle
0.0,1.0,1.0,0.0,5.0,5.0,696.1743200081401,3.0,0.0,part_2,go,650.0,500.0,1.0,,,,,,,,,magenta,diamond
0.0,7.0,3.0,1.0,6.0,0.0,0.0,3.0,0.0,part_2,stop,650.0,500.0,4.0,,,,,,,,,orange,circle
0.0,8.0,4.0,1.0,5.0,5.0,501.1734589934349,3.0,0.0,part_2,stop,650.0,550.0,3.0,,,,,,,,,cyan,cross
0.0,3.0,3.0,0.0,6.0,6.0,756.2478850013576,3.0,0.0,part_2,go,600.0,550.0,1.0,,,,,,,,,white,I
0.0,4.0,4.0,0.0,5.0,5.0,676.1199699831195,3.0,0.0,part_2,go,600.0,550.0,1.0,,,,,,,,,gray,hexagon
0.0,2.0,2.0,0.0,5.0,5.0,320.9669319912791,3.0,0.0,part_2,go,600.0,550.0,1.0,,,,,,,,,green,flipped triangle
0.0,2.0,2.0,0.0,6.0,6.0,780.5363970110193,3.0,0.0,part_2,go,600.0,550.0,1.0,,,,,,,,,green,flipped triangle
0.0,3.0,3.0,0.0,6.0,6.0,680.7504039607011,3.0,0.0,part_2,go,600.0,550.0,1.0,,,,,,,,,white,I
0.0,5.0,1.0,1.0,6.0,6.0,527.6575849857181,3.0,0.0,part_2,stop,600.0,550.0,3.0,,,,,,,,,yellow,square
0.0,5.0,1.0,1.0,5.0,5.0,570.3500359668396,3.0,0.0,part_2,stop,600.0,500.0,3.0,,,,,,,,,yellow,square
0.0,2.0,2.0,0.0,5.0,5.0,593.2176049682312,3.0,0.0,part_2,go,550.0,500.0,1.0,,,,,,,,,green,flipped triangle
0.0,7.0,3.0,1.0,6.0,0.0,0.0,3.0,0.0,part_2,stop,550.0,500.0,4.0,,,,,,,,,orange,circle
0.0,8.0,4.0,1.0,5.0,0.0,0.0,3.0,0.0,part_2,stop,550.0,550.0,4.0,,,,,,,,,cyan,cross
0.0,2.0,2.0,0.0,6.0,6.0,816.9809950049967,3.0,0.0,part_2,go,600.0,550.0,1.0,,,,,,,,,green,flipped triangle
0.0,7.0,3.0,1.0,5.0,5.0,646.8733419897035,3.0,0.0,part_2,stop,600.0,550.0,3.0,,,,,,,,,orange,circle
0.0,8.0,4.0,1.0,6.0,0.0,0.0,3.0,0.0,part_2,stop,550.0,550.0,4.0,,,,,,,,,cyan,cross
0.0,7.0,3.0,1.0,5.0,0.0,0.0,3.0,0.0,part_2,stop,550.0,600.0,4.0,,,,,,,,,orange,circle
0.0,4.0,4.0,0.0,6.0,6.0,842.9073839797638,3.0,0.0,part_2,go,600.0,600.0,1.0,,,,,,,,,gray,hexagon
0.0,7.0,3.0,1.0,6.0,0.0,0.0,3.0,0.0,part_2,stop,600.0,600.0,4.0,,,,,,,,,orange,circle
0.0,1.0,1.0,0.0,5.0,5.0,1067.8990619489923,3.0,0.0,part_2,go,600.0,650.0,1.0,,,,,,,,,magenta,diamond
0.0,2.0,2.0,0.0,5.0,5.0,1069.0267540048808,3.0,0.0,part_2,go,600.0,650.0,1.0,,,,,,,,,green,flipped triangle
0.0,3.0,3.0,0.0,6.0,6.0,916.7093569994904,3.0,0.0,part_2,go,600.0,650.0,1.0,,,,,,,,,white,I
0.0,3.0,3.0,0.0,5.0,5.0,650.1651080325246,3.0,0.0,part_2,go,600.0,650.0,1.0,,,,,,,,,white,I
0.0,3.0,3.0,0.0,5.0,5.0,791.4782690349966,3.0,0.0,part_2,go,600.0,650.0,1.0,,,,,,,,,white,I
0.0,7.0,3.0,1.0,5.0,0.0,0.0,3.0,0.0,part_2,stop,600.0,650.0,4.0,,,,,,,,,orange,circle
0.0,8.0,4.0,1.0,6.0,6.0,672.9433519649319,3.0,0.0,part_2,stop,650.0,650.0,3.0,,,,,,,,,cyan,cross
0.0,5.0,1.0,1.0,5.0,5.0,613.8762650080025,4.0,0.0,part_2,go,650.0,600.0,1.0,,,,,,,,,yellow,square
0.0,6.0,2.0,1.0,5.0,5.0,686.4494280307554,4.0,0.0,part_2,stop,650.0,600.0,3.0,,,,,,,,,blue,triangle
0.0,6.0,2.0,1.0,6.0,0.0,0.0,4.0,0.0,part_2,stop,600.0,600.0,4.0,,,,,,,,,blue,triangle
0.0,7.0,3.0,1.0,6.0,6.0,815.7583889551461,4.0,0.0,part_2,go,600.0,650.0,1.0,,,,,,,,,orange,circle
0.0,8.0,4.0,1.0,5.0,0.0,0.0,4.0,0.0,part_2,stop,600.0,650.0,4.0,,,,,,,,,cyan,cross
0.0,2.0,2.0,0.0,6.0,6.0,723.4193499898538,4.0,0.0,part_2,go,650.0,650.0,1.0,,,,,,,,,green,flipped triangle
0.0,8.0,4.0,1.0,6.0,6.0,742.2029650188051,4.0,0.0,part_2,stop,650.0,650.0,3.0,,,,,,,,,cyan,cross
0.0,1.0,1.0,0.0,6.0,6.0,1092.5629059784114,4.0,0.0,part_2,go,650.0,600.0,1.0,,,,,,,,,magenta,diamond
0.0,8.0,4.0,1.0,5.0,0.0,0.0,4.0,0.0,part_2,stop,650.0,600.0,4.0,,,,,,,,,cyan,cross
0.0,1.0,1.0,0.0,5.0,5.0,842.7308009704575,4.0,0.0,part_2,go,700.0,600.0,1.0,,,,,,,,,magenta,diamond
0.0,1.0,1.0,0.0,6.0,6.0,1089.9064209661449,4.0,0.0,part_2,go,700.0,600.0,1.0,,,,,,,,,magenta,diamond
0.0,7.0,3.0,1.0,5.0,0.0,0.0,4.0,0.0,part_2,stop,700.0,600.0,4.0,,,,,,,,,orange,circle
0.0,7.0,3.0,1.0,6.0,0.0,0.0,4.0,0.0,part_2,stop,750.0,600.0,4.0,,,,,,,,,orange,circle
0.0,8.0,4.0,1.0,6.0,6.0,848.9576079882681,4.0,0.0,part_2,go,750.0,650.0,1.0,,,,,,,,,cyan,cross
0.0,2.0,2.0,0.0,5.0,5.0,705.3493130370043,4.0,0.0,part_2,go,750.0,650.0,1.0,,,,,,,,,green,flipped triangle
0.0,7.0,3.0,1.0,6.0,0.0,0.0,4.0,0.0,part_2,stop,750.0,650.0,4.0,,,,,,,,,orange,circle
0.0,1.0,1.0,0.0,6.0,6.0,574.5092590223067,4.0,0.0,part_2,go,750.0,700.0,1.0,,,,,,,,,magenta,diamond
0.0,8.0,4.0,1.0,5.0,0.0,0.0,4.0,0.0,part_2,stop,750.0,700.0,4.0,,,,,,,,,cyan,cross
0.0,2.0,2.0,0.0,6.0,6.0,851.3719000038691,4.0,0.0,part_2,go,800.0,700.0,1.0,,,,,,,,,green,flipped triangle
0.0,8.0,4.0,1.0,5.0,5.0,884.5663180109113,4.0,0.0,part_2,go,800.0,700.0,1.0,,,,,,,,,cyan,cross
0.0,5.0,1.0,1.0,5.0,5.0,602.4122280068696,4.0,0.0,part_2,stop,800.0,700.0,3.0,,,,,,,,,yellow,square
0.0,5.0,1.0,1.0,6.0,6.0,716.855491977185,4.0,0.0,part_2,go,750.0,700.0,1.0,,,,,,,,,yellow,square
0.0,5.0,1.0,1.0,6.0,0.0,0.0,4.0,0.0,part_2,stop,750.0,700.0,4.0,,,,,,,,,yellow,square
0.0,3.0,3.0,0.0,5.0,5.0,875.7772140088491,4.0,0.0,part_2,go,750.0,750.0,1.0,,,,,,,,,white,I
0.0,5.0,1.0,1.0,6.0,6.0,1163.2926629972644,4.0,0.0,part_2,go,750.0,750.0,1.0,,,,,,,,,yellow,square
0.0,6.0,2.0,1.0,6.0,6.0,962.00688398676,4.0,0.0,part_2,stop,750.0,750.0,3.0,,,,,,,,,blue,triangle
0.0,7.0,3.0,1.0,6.0,0.0,0.0,4.0,0.0,part_2,stop,750.0,700.0,4.0,,,,,,,,,orange,circle
0.0,2.0,2.0,0.0,5.0,5.0,951.6171510331332,4.0,0.0,part_2,go,750.0,750.0,1.0,,,,,,,,,green,flipped triangle
0.0,3.0,3.0,0.0,6.0,6.0,934.2992860474624,4.0,0.0,part_2,go,750.0,750.0,1.0,,,,,,,,,white,I
0.0,4.0,4.0,0.0,6.0,6.0,927.621633047238,4.0,0.0,part_2,go,750.0,750.0,1.0,,,,,,,,,gray,hexagon
0.0,5.0,1.0,1.0,5.0,5.0,839.6796190063469,4.0,0.0,part_2,stop,750.0,750.0,3.0,,,,,,,,,yellow,square
0.0,5.0,1.0,1.0,6.0,0.0,0.0,4.0,0.0,part_2,stop,700.0,750.0,4.0,,,,,,,,,yellow,square
0.0,4.0,4.0,0.0,6.0,6.0,1108.8591719744727,4.0,0.0,part_2,go,700.0,800.0,1.0,,,,,,,,,gray,hexagon
0.0,3.0,3.0,0.0,5.0,5.0,1013.5921940091066,4.0,0.0,part_2,go,700.0,800.0,1.0,,,,,,,,,white,I
0.0,7.0,3.0,1.0,5.0,0.0,0.0,4.0,0.0,part_2,stop,700.0,800.0,4.0,,,,,,,,,orange,circle
0.0,5.0,1.0,1.0,6.0,0.0,0.0,4.0,0.0,part_2,stop,750.0,800.0,4.0,,,,,,,,,yellow,square
0.0,7.0,3.0,1.0,6.0,6.0,922.7985120378436,5.0,0.0,part_2,stop,750.0,850.0,3.0,,,,,,,,,orange,circle
0.0,6.0,2.0,1.0,6.0,6.0,1193.766275013331,5.0,0.0,part_2,go,750.0,800.0,1.0,,,,,,,,,blue,triangle
0.0,4.0,4.0,0.0,5.0,5.0,664.8528220248409,5.0,0.0,part_2,go,750.0,800.0,1.0,,,,,,,,,gray,hexagon
0.0,3.0,3.0,0.0,5.0,5.0,672.1152050304227,5.0,0.0,part_2,go,750.0,800.0,1.0,,,,,,,,,white,I
0.0,5.0,1.0,1.0,6.0,6.0,712.0605420204811,5.0,0.0,part_2,stop,750.0,800.0,3.0,,,,,,,,,yellow,square
0.0,1.0,1.0,0.0,6.0,6.0,923.9353369921446,5.0,0.0,part_2,go,750.0,750.0,1.0,,,,,,,,,magenta,diamond
0.0,8.0,4.0,1.0,5.0,0.0,0.0,5.0,0.0,part_2,stop,750.0,750.0,4.0,,,,,,,,,cyan,cross
0.0,8.0,4.0,1.0,6.0,0.0,0.0,5.0,0.0,part_2,stop,800.0,750.0,4.0,,,,,,,,,cyan,cross
0.0,2.0,2.0,0.0,5.0,5.0,1170.8578589605168,5.0,0.0,part_2,go,800.0,800.0,1.0,,,,,,,,,green,flipped triangle
0.0,4.0,4.0,0.0,6.0,6.0,693.0016749538481,5.0,0.0,part_2,go,800.0,800.0,1.0,,,,,,,,,gray,hexagon
0.0,3.0,3.0,0.0,5.0,5.0,650.4889500210993,5.0,0.0,part_2,go,800.0,800.0,1.0,,,,,,,,,white,I
0.0,6.0,2.0,1.0,6.0,0.0,0.0,5.0,0.0,part_2,stop,800.0,800.0,4.0,,,,,,,,,blue,triangle
0.0,5.0,1.0,1.0,5.0,5.0,809.1593559947796,5.0,0.0,part_2,go,800.0,850.0,1.0,,,,,,,,,yellow,square
0.0,2.0,2.0,0.0,6.0,6.0,1042.61988500366,5.0,0.0,part_2,go,800.0,850.0,1.0,,,,,,,,,green,flipped triangle
0.0,7.0,3.0,1.0,6.0,6.0,1105.8221439598128,5.0,0.0,part_2,go,800.0,850.0,1.0,,,,,,,,,orange,circle
0.0,5.0,1.0,1.0,6.0,0.0,0.0,5.0,0.0,part_2,stop,800.0,850.0,4.0,,,,,,,,,yellow,square
0.0,8.0,4.0,1.0,6.0,0.0,0.0,5.0,0.0,part_2,stop,800.0,900.0,4.0,,,,,,,,,cyan,cross
0.0,5.0,1.0,1.0,5.0,5.0,880.9812480467372,5.0,0.0,part_2,stop,800.0,950.0,3.0,,,,,,,,,yellow,square
0.0,3.0,3.0,0.0,5.0,5.0,968.5426349751652,5.0,0.0,part_2,go,750.0,950.0,1.0,,,,,,,,,white,I
0.0,1.0,1.0,0.0,6.0,6.0,695.5913929850794,5.0,0.0,part_2,go,750.0,950.0,1.0,,,,,,,,,magenta,diamond
0.0,2.0,2.0,0.0,6.0,6.0,630.5846889736131,5.0,0.0,part_2,go,750.0,950.0,1.0,,,,,,,,,green,flipped triangle
0.0,4.0,4.0,0.0,6.0,6.0,790.8681309781969,5.0,0.0,part_2,go,750.0,950.0,1.0,,,,,,,,,gray,hexagon
0.0,1.0,1.0,0.0,6.0,6.0,710.2598480414599,5.0,0.0,part_2,go,750.0,950.0,1.0,,,,,,,,,magenta,diamond
0.0,3.0,3.0,0.0,5.0,5.0,554.3622569530271,5.0,0.0,part_2,go,750.0,950.0,1.0,,,,,,,,,white,I
0.0,5.0,1.0,1.0,6.0,6.0,1163.0798999685794,5.0,0.0,part_2,go,750.0,950.0,1.0,,,,,,,,,yellow,square
0.0,5.0,1.0,1.0,5.0,5.0,604.7044669976458,5.0,0.0,part_2,stop,750.0,950.0,3.0,,,,,,,,,yellow,square
0.0,7.0,3.0,1.0,5.0,0.0,0.0,5.0,0.0,part_2,stop,700.0,950.0,4.0,,,,,,,,,orange,circle
0.0,2.0,2.0,0.0,5.0,5.0,968.9487789873964,5.0,0.0,part_2,go,750.0,950.0,1.0,,,,,,,,,green,flipped triangle
0.0,7.0,3.0,1.0,5.0,0.0,0.0,5.0,0.0,part_2,stop,750.0,950.0,4.0,,,,,,,,,orange,circle
0.0,6.0,2.0,1.0,6.0,0.0,0.0,5.0,0.0,part_2,stop,800.0,950.0,4.0,,,,,,,,,blue,triangle
0.0,2.0,2.0,0.0,6.0,6.0,1007.1268990286626,5.0,0.0,part_2,go,800.0,1000.0,1.0,,,,,,,,,green,flipped triangle
0.0,2.0,2.0,0.0,6.0,6.0,1002.0069589954801,5.0,0.0,part_2,go,800.0,1000.0,1.0,,,,,,,,,green,flipped triangle
0.0,5.0,1.0,1.0,5.0,0.0,0.0,5.0,0.0,part_2,stop,800.0,1000.0,4.0,,,,,,,,,yellow,square
0.0,3.0,3.0,0.0,6.0,6.0,741.7694730102085,5.0,0.0,part_2,go,850.0,1000.0,1.0,,,,,,,,,white,I
0.0,8.0,4.0,1.0,6.0,6.0,1032.920797006227,5.0,0.0,part_2,stop,850.0,1000.0,3.0,,,,,,,,,cyan,cross
0.0,1.0,1.0,0.0,6.0,6.0,548.1370959896594,5.0,0.0,part_2,go,850.0,950.0,1.0,,,,,,,,,magenta,diamond
0.0,4.0,4.0,0.0,5.0,5.0,528.176485968288,6.0,0.0,part_2,go,850.0,950.0,1.0,,,,,,,,,gray,hexagon
0.0,7.0,3.0,1.0,5.0,5.0,926.2341889552772,6.0,0.0,part_2,stop,850.0,950.0,3.0,,,,,,,,,orange,circle
0.0,1.0,1.0,0.0,6.0,6.0,575.8584860013798,6.0,0.0,part_2,go,800.0,950.0,1.0,,,,,,,,,magenta,diamond
0.0,5.0,1.0,1.0,5.0,5.0,1021.9820510246791,6.0,0.0,part_2,go,800.0,950.0,1.0,,,,,,,,,yellow,square
0.0,6.0,2.0,1.0,5.0,0.0,0.0,6.0,0.0,part_2,stop,800.0,950.0,4.0,,,,,,,,,blue,triangle
0.0,6.0,2.0,1.0,6.0,6.0,998.2439260347746,6.0,0.0,part_2,stop,850.0,950.0,3.0,,,,,,,,,blue,triangle
0.0,8.0,4.0,1.0,5.0,5.0,1214.1983400215397,6.0,0.0,part_2,go,850.0,900.0,1.0,,,,,,,,,cyan,cross
0.0,7.0,3.0,1.0,5.0,5.0,1165.7992340042256,6.0,0.0,part_2,go,850.0,900.0,1.0,,,,,,,,,orange,circle
0.0,3.0,3.0,0.0,5.0,5.0,946.8189959879963,6.0,0.0,part_2,go,850.0,900.0,1.0,,,,,,,,,white,I
0.0,6.0,2.0,1.0,5.0,0.0,0.0,6.0,0.0,part_2,stop,850.0,900.0,4.0,,,,,,,,,blue,triangle
0.0,8.0,4.0,1.0,5.0,5.0,940.7503019901924,6.0,0.0,part_2,go,900.0,900.0,1.0,,,,,,,,,cyan,cross
0.0,4.0,4.0,0.0,5.0,5.0,722.5313920062035,6.0,0.0,part_2,go,900.0,900.0,1.0,,,,,,,,,gray,hexagon
0.0,5.0,1.0,1.0,5.0,5.0,770.4588989727199,6.0,0.0,part_2,stop,900.0,900.0,3.0,,,,,,,,,yellow,square
0.0,6.0,2.0,1.0,5.0,0.0,0.0,6.0,0.0,part_2,stop,850.0,900.0,4.0,,,,,,,,,blue,triangle
0.0,5.0,1.0,1.0,6.0,6.0,626.083720009774,6.0,0.0,part_2,go,900.0,900.0,1.0,,,,,,,,,yellow,square
0.0,5.0,1.0,1.0,5.0,5.0,934.8705630400218,6.0,0.0,part_2,stop,900.0,900.0,3.0,,,,,,,,,yellow,square
0.0,1.0,1.0,0.0,5.0,5.0,654.480215976946,6.0,0.0,part_2,go,850.0,900.0,1.0,,,,,,,,,magenta,diamond
0.0,3.0,3.0,0.0,6.0,6.0,1076.939775957726,6.0,0.0,part_2,go,850.0,900.0,1.0,,,,,,,,,white,I
0.0,8.0,4.0,1.0,6.0,6.0,1143.0036710225977,6.0,0.0,part_2,stop,850.0,900.0,3.0,,,,,,,,,cyan,cross
0.0,8.0,4.0,1.0,5.0,0.0,0.0,6.0,0.0,part_2,stop,850.0,850.0,4.0,,,,,,,,,cyan,cross
0.0,6.0,2.0,1.0,5.0,0.0,0.0,6.0,0.0,part_2,stop,900.0,850.0,4.0,,,,,,,,,blue,triangle
0.0,6.0,2.0,1.0,5.0,5.0,1011.2413829774596,6.0,0.0,part_2,go,950.0,850.0,1.0,,,,,,,,,blue,triangle
0.0,8.0,4.0,1.0,5.0,5.0,1035.624353971798,6.0,0.0,part_2,stop,950.0,850.0,3.0,,,,,,,,,cyan,cross
0.0,6.0,2.0,1.0,5.0,0.0,0.0,6.0,0.0,part_2,stop,900.0,850.0,4.0,,,,,,,,,blue,triangle
0.0,8.0,4.0,1.0,6.0,0.0,0.0,6.0,0.0,part_2,stop,950.0,850.0,4.0,,,,,,,,,cyan,cross
0.0,5.0,1.0,1.0,6.0,6.0,1025.9445239789784,6.0,0.0,part_2,go,950.0,900.0,1.0,,,,,,,,,yellow,square
0.0,6.0,2.0,1.0,6.0,0.0,0.0,6.0,0.0,part_2,stop,950.0,900.0,4.0,,,,,,,,,blue,triangle
0.0,4.0,4.0,0.0,6.0,6.0,1023.9719749661162,6.0,0.0,part_2,go,950.0,950.0,1.0,,,,,,,,,gray,hexagon
0.0,4.0,4.0,0.0,5.0,5.0,802.6259310427122,6.0,0.0,part_2,go,950.0,950.0,1.0,,,,,,,,,gray,hexagon
0.0,4.0,4.0,0.0,6.0,6.0,514.9178360006772,6.0,0.0,part_2,go,950.0,950.0,1.0,,,,,,,,,gray,hexagon
0.0,8.0,4.0,1.0,5.0,5.0,873.5794320236892,6.0,0.0,part_2,stop,950.0,950.0,3.0,,,,,,,,,cyan,cross
0.0,5.0,1.0,1.0,6.0,0.0,0.0,6.0,0.0,part_2,stop,900.0,950.0,4.0,,,,,,,,,yellow,square
0.0,6.0,2.0,1.0,5.0,5.0,1269.756753987167,6.0,0.0,part_2,go,900.0,1000.0,1.0,,,,,,,,,blue,triangle
0.0,6.0,2.0,1.0,6.0,0.0,0.0,6.0,0.0,part_2,stop,900.0,1000.0,4.0,,,,,,,,,blue,triangle
0.0,4.0,4.0,0.0,5.0,5.0,532.5598799972795,6.0,0.0,part_2,go,900.0,1050.0,1.0,,,,,,,,,gray,hexagon
0.0,2.0,2.0,0.0,6.0,6.0,668.106371012982,6.0,0.0,part_2,go,900.0,1050.0,1.0,,,,,,,,,green,flipped triangle
0.0,8.0,4.0,1.0,5.0,5.0,412.1395979891531,7.0,0.0,part_2,go,900.0,1050.0,1.0,,,,,,,,,cyan,cross
0.0,5.0,1.0,1.0,6.0,6.0,1010.6869299779646,7.0,0.0,part_2,stop,900.0,1050.0,3.0,,,,,,,,,yellow,square
0.0,3.0,3.0,0.0,6.0,6.0,696.59920304548,7.0,0.0,part_2,go,900.0,1000.0,1.0,,,,,,,,,white,I
0.0,2.0,2.0,0.0,5.0,5.0,735.7731990050524,7.0,0.0,part_2,go,900.0,1000.0,1.0,,,,,,,,,green,flipped triangle
0.0,4.0,4.0,0.0,5.0,5.0,510.41509403148666,7.0,0.0,part_2,go,900.0,1000.0,1.0,,,,,,,,,gray,hexagon
0.0,1.0,1.0,0.0,5.0,5.0,953.178901982028,7.0,0.0,part_2,go,900.0,1000.0,1.0,,,,,,,,,magenta,diamond
0.0,5.0,1.0,1.0,5.0,0.0,0.0,7.0,0.0,part_2,stop,900.0,1000.0,4.0,,,,,,,,,yellow,square
0.0,3.0,3.0,0.0,5.0,5.0,644.9863229645416,7.0,0.0,part_2,go,950.0,1000.0,1.0,,,,,,,,,white,I
0.0,6.0,2.0,1.0,6.0,0.0,0.0,7.0,0.0,part_2,stop,950.0,1000.0,4.0,,,,,,,,,blue,triangle
0.0,8.0,4.0,1.0,6.0,6.0,1067.6925249863416,7.0,0.0,part_2,stop,950.0,1050.0,3.0,,,,,,,,,cyan,cross
0.0,6.0,2.0,1.0,5.0,5.0,1083.7683360441588,7.0,0.0,part_2,go,950.0,1000.0,1.0,,,,,,,,,blue,triangle
0.0,4.0,4.0,0.0,6.0,6.0,716.0483920015395,7.0,0.0,part_2,go,950.0,1000.0,1.0,,,,,,,,,gray,hexagon
0.0,5.0,1.0,1.0,6.0,0.0,0.0,7.0,0.0,part_2,stop,950.0,1000.0,4.0,,,,,,,,,yellow,square
0.0,6.0,2.0,1.0,6.0,0.0,0.0,7.0,0.0,part_2,stop,950.0,1050.0,4.0,,,,,,,,,blue,triangle
0.0,8.0,4.0,1.0,6.0,0.0,0.0,7.0,0.0,part_2,stop,950.0,1100.0,4.0,,,,,,,,,cyan,cross
0.0,3.0,3.0,0.0,5.0,5.0,543.7908319872804,7.0,0.0,part_2,go,950.0,1150.0,1.0,,,,,,,,,white,I
0.0,7.0,3.0,1.0,6.0,6.0,1335.6415129965171,7.0,0.0,part_2,go,950.0,1150.0,1.0,,,,,,,,,orange,circle
0.0,8.0,4.0,1.0,5.0,5.0,1073.2168999966234,7.0,0.0,part_2,stop,950.0,1150.0,3.0,,,,,,,,,cyan,cross
0.0,4.0,4.0,0.0,5.0,5.0,622.2529559745453,7.0,0.0,part_2,go,900.0,1150.0,1.0,,,,,,,,,gray,hexagon
0.0,5.0,1.0,1.0,6.0,0.0,0.0,7.0,0.0,part_2,stop,900.0,1150.0,4.0,,,,,,,,,yellow,square
0.0,7.0,3.0,1.0,5.0,5.0,989.1225260216744,7.0,0.0,part_2,go,900.0,1200.0,1.0,,,,,,,,,orange,circle
0.0,1.0,1.0,0.0,6.0,6.0,868.0133700254373,7.0,0.0,part_2,go,900.0,1200.0,1.0,,,,,,,,,magenta,diamond
0.0,4.0,4.0,0.0,5.0,5.0,524.5475699775852,7.0,0.0,part_2,go,900.0,1200.0,1.0,,,,,,,,,gray,hexagon
0.0,2.0,2.0,0.0,5.0,5.0,511.5325770457275,7.0,0.0,part_2,go,900.0,1200.0,1.0,,,,,,,,,green,flipped triangle
0.0,7.0,3.0,1.0,6.0,6.0,1261.936884955503,7.0,0.0,part_2,stop,900.0,1200.0,3.0,,,,,,,,,orange,circle
0.0,6.0,2.0,1.0,5.0,0.0,0.0,7.0,0.0,part_2,stop,900.0,1150.0,4.0,,,,,,,,,blue,triangle
0.0,4.0,4.0,0.0,5.0,5.0,787.9091930226423,7.0,0.0,part_2,go,950.0,1150.0,1.0,,,,,,,,,gray,hexagon
0.0,4.0,4.0,0.0,6.0,6.0,587.9128600354306,7.0,0.0,part_2,go,950.0,1150.0,1.0,,,,,,,,,gray,hexagon
0.0,7.0,3.0,1.0,5.0,0.0,0.0,7.0,0.0,part_2,stop,950.0,1150.0,4.0,,,,,,,,,orange,circle
0.0,6.0,2.0,1.0,6.0,6.0,1490.8118370221928,7.0,0.0,part_2,go,1000.0,1150.0,1.0,,,,,,,,,blue,triangle
0.0,6.0,2.0,1.0,5.0,5.0,1088.9186979620715,7.0,0.0,part_2,stop,1000.0,1150.0,3.0,,,,,,,,,blue,triangle
0.0,3.0,3.0,0.0,6.0,6.0,543.0026699905284,7.0,0.0,part_2,go,950.0,1150.0,1.0,,,,,,,,,white,I
0.0,2.0,2.0,0.0,5.0,5.0,557.9772560158744,7.0,0.0,part_2,go,950.0,1150.0,1.0,,,,,,,,,green,flipped triangle
0.0,4.0,4.0,0.0,6.0,6.0,678.5006030113436,7.0,0.0,part_2,go,950.0,1150.0,1.0,,,,,,,,,gray,hexagon
0.0,7.0,3.0,1.0,5.0,5.0,1040.5468170065433,7.0,0.0,part_2,go,950.0,1150.0,1.0,,,,,,,,,orange,circle
0.0,7.0,3.0,1.0,5.0,0.0,0.0,7.0,0.0,part_2,stop,950.0,1150.0,4.0,,,,,,,,,orange,circle
0.0,1.0,1.0,0.0,5.0,5.0,594.4191800081171,8.0,0.0,part_2,go,1000.0,1150.0,1.0,,,,,,,,,magenta,diamond
0.0,6.0,2.0,1.0,6.0,6.0,1016.419147956185,8.0,0.0,part_2,stop,1000.0,1150.0,3.0,,,,,,,,,blue,triangle
0.0,5.0,1.0,1.0,5.0,0.0,0.0,8.0,0.0,part_2,stop,1000.0,1100.0,4.0,,,,,,,,,yellow,square
0.0,1.0,1.0,0.0,5.0,5.0,673.9307270036079,8.0,0.0,part_2,go,1050.0,1100.0,1.0,,,,,,,,,magenta,diamond
0.0,2.0,2.0,0.0,5.0,5.0,600.1125399488956,8.0,0.0,part_2,go,1050.0,1100.0,1.0,,,,,,,,,green,flipped triangle
0.0,6.0,2.0,1.0,6.0,6.0,1232.1798619814217,8.0,0.0,part_2,stop,1050.0,1100.0,3.0,,,,,,,,,blue,triangle
0.0,8.0,4.0,1.0,5.0,5.0,1183.2104480126873,8.0,0.0,part_2,go,1050.0,1050.0,1.0,,,,,,,,,cyan,cross
0.0,3.0,3.0,0.0,6.0,6.0,536.0126750310883,8.0,0.0,part_2,go,1050.0,1050.0,1.0,,,,,,,,,white,I
0.0,4.0,4.0,0.0,6.0,6.0,560.0479790009558,8.0,0.0,part_2,go,1050.0,1050.0,1.0,,,,,,,,,gray,hexagon
0.0,4.0,4.0,0.0,5.0,5.0,596.4524550363421,8.0,0.0,part_2,go,1050.0,1050.0,1.0,,,,,,,,,gray,hexagon
0.0,4.0,4.0,0.0,6.0,6.0,461.6014899802394,8.0,0.0,part_2,go,1050.0,1050.0,1.0,,,,,,,,,gray,hexagon
0.0,1.0,1.0,0.0,5.0,5.0,826.4508409774862,8.0,0.0,part_2,go,1050.0,1050.0,1.0,,,,,,,,,magenta,diamond
0.0,8.0,4.0,1.0,6.0,0.0,0.0,8.0,0.0,part_2,stop,1050.0,1050.0,4.0,,,,,,,,,cyan,cross
0.0,8.0,4.0,1.0,6.0,6.0,1194.4016549969092,8.0,0.0,part_2,stop,1050.0,1100.0,3.0,,,,,,,,,cyan,cross
0.0,6.0,2.0,1.0,5.0,5.0,1416.6588499792852,8.0,0.0,part_2,go,1050.0,1050.0,1.0,,,,,,,,,blue,triangle
0.0,5.0,1.0,1.0,6.0,6.0,1264.1994879813865,8.0,0.0,part_2,go,1050.0,1050.0,1.0,,,,,,,,,yellow,square
0.0,7.0,3.0,1.0,5.0,5.0,976.5520709916018,8.0,0.0,part_2,stop,1050.0,1050.0,3.0,,,,,,,,,orange,circle
0.0,3.0,3.0,0.0,6.0,6.0,479.089121974539,8.0,0.0,part_2,go,1000.0,1050.0,1.0,,,,,,,,,white,I
0.0,6.0,2.0,1.0,6.0,6.0,1032.9649479826912,8.0,0.0,part_2,go,1000.0,1050.0,1.0,,,,,,,,,blue,triangle
0.0,7.0,3.0,1.0,6.0,0.0,0.0,8.0,0.0,part_2,stop,1000.0,1050.0,4.0,,,,,,,,,orange,circle
0.0,3.0,3.0,0.0,6.0,6.0,609.2612870270386,8.0,0.0,part_2,go,1000.0,1100.0,1.0,,,,,,,,,white,I
0.0,4.0,4.0,0.0,6.0,0.0,0.0,8.0,0.0,part_2,go,1000.0,1100.0,5.0,,,,,,,,,gray,hexagon
0.0,5.0,1.0,1.0,5.0,5.0,830.8360250084661,8.0,0.0,part_2,stop,1000.0,1100.0,3.0,,,,,,,,,yellow,square
0.0,5.0,1.0,1.0,5.0,5.0,491.3844740367494,8.0,0.0,part_2,stop,950.0,1100.0,3.0,,,,,,,,,yellow,square
0.0,2.0,2.0,0.0,6.0,6.0,575.1118580228649,8.0,0.0,part_2,go,900.0,1100.0,1.0,,,,,,,,,green,flipped triangle
0.0,2.0,2.0,0.0,6.0,6.0,444.5892040384933,8.0,0.0,part_2,go,900.0,1100.0,1.0,,,,,,,,,green,flipped triangle
0.0,6.0,2.0,1.0,5.0,0.0,0.0,8.0,0.0,part_2,stop,900.0,1100.0,4.0,,,,,,,,,blue,triangle
0.0,4.0,4.0,0.0,5.0,5.0,644.7517990018241,8.0,0.0,part_2,go,950.0,1100.0,1.0,,,,,,,,,gray,hexagon
0.0,2.0,2.0,0.0,6.0,6.0,547.2439529839903,8.0,0.0,part_2,go,950.0,1100.0,1.0,,,,,,,,,green,flipped triangle
0.0,2.0,2.0,0.0,5.0,5.0,576.0663679684512,8.0,0.0,part_2,go,950.0,1100.0,1.0,,,,,,,,,green,flipped triangle
0.0,4.0,4.0,0.0,5.0,5.0,544.9165750178508,8.0,0.0,part_2,go,950.0,1100.0,1.0,,,,,,,,,gray,hexagon
0.0,6.0,2.0,1.0,5.0,5.0,1176.1384879937395,8.0,0.0,part_2,stop,950.0,1100.0,3.0,,,,,,,,,blue,triangle
0.0,1.0,1.0,0.0,5.0,5.0,578.2969910069369,8.0,0.0,part_2,go,900.0,1100.0,1.0,,,,,,,,,magenta,diamond
0.0,1.0,1.0,0.0,5.0,5.0,742.3336390056647,8.0,0.0,part_2,go,900.0,1100.0,1.0,,,,,,,,,magenta,diamond
0.0,1.0,1.0,0.0,5.0,5.0,1182.4274889659137,8.0,0.0,part_2,go,900.0,1100.0,1.0,,,,,,,,,magenta,diamond
0.0,2.0,2.0,0.0,5.0,5.0,608.4365610149689,8.0,0.0,part_2,go,900.0,1100.0,1.0,,,,,,,,,green,flipped triangle
0.0,3.0,3.0,0.0,7.0,3.0,2038.1004810333252,1.0,1.0,part_3,go,0.0,0.0,0.0,216.0,4.0,162.0,108.0,216.0,324.0,270.0,54.0,white,I
0.0,6.0,2.0,1.0,7.0,5.0,2568.4578489745036,1.0,1.0,part_3,go,0.0,0.0,0.0,245.0,5.0,196.0,98.0,49.0,147.0,245.0,294.0,blue,triangle
0.0,3.0,3.0,0.0,7.0,3.0,1719.8277269490063,1.0,1.0,part_3,go,0.0,0.0,0.0,162.0,3.0,216.0,54.0,162.0,270.0,324.0,108.0,white,I
0.0,1.0,1.0,0.0,7.0,2.0,1537.1446469798684,1.0,1.0,part_3,go,0.0,0.0,0.0,132.0,3.0,220.0,132.0,264.0,88.0,176.0,44.0,magenta,diamond
0.0,7.0,3.0,1.0,7.0,3.0,2333.760965964757,1.0,1.0,part_3,go,0.0,0.0,0.0,324.0,6.0,108.0,216.0,324.0,162.0,270.0,54.0,orange,circle
0.0,3.0,3.0,0.0,7.0,5.0,2331.2295849900693,1.0,1.0,part_3,go,0.0,0.0,0.0,196.0,4.0,245.0,98.0,294.0,49.0,196.0,147.0,white,I
0.0,8.0,4.0,1.0,7.0,2.0,1869.6049049613064,1.0,1.0,part_3,go,0.0,0.0,0.0,195.0,5.0,156.0,195.0,117.0,39.0,234.0,78.0,cyan,cross
0.0,6.0,2.0,1.0,7.0,2.0,1793.069121951703,1.0,1.0,part_3,go,0.0,0.0,0.0,136.0,4.0,204.0,136.0,170.0,68.0,102.0,34.0,blue,triangle
0.0,2.0,2.0,0.0,7.0,5.0,1961.7964240023864,1.0,1.0,part_3,go,0.0,0.0,0.0,264.0,6.0,220.0,132.0,44.0,176.0,264.0,88.0,green,flipped triangle
0.0,4.0,4.0,0.0,7.0,3.0,1744.9608219903894,1.0,1.0,part_3,go,0.0,0.0,0.0,196.0,4.0,294.0,98.0,196.0,147.0,245.0,49.0,gray,hexagon
0.0,3.0,3.0,0.0,7.0,4.0,1157.3434080346487,1.0,1.0,part_3,go,0.0,0.0,0.0,136.0,4.0,68.0,102.0,170.0,136.0,204.0,34.0,white,I
0.0,7.0,3.0,1.0,7.0,6.0,1540.4084360343404,1.0,1.0,part_3,go,0.0,0.0,0.0,117.0,3.0,156.0,234.0,78.0,39.0,195.0,117.0,orange,circle
0.0,4.0,4.0,0.0,7.0,5.0,2447.0905459602363,1.0,1.0,part_3,go,0.0,0.0,0.0,216.0,4.0,324.0,162.0,54.0,108.0,216.0,270.0,gray,hexagon
0.0,8.0,4.0,1.0,7.0,2.0,1727.1516069886277,1.0,1.0,part_3,go,0.0,0.0,0.0,68.0,2.0,170.0,68.0,204.0,34.0,136.0,102.0,cyan,cross
0.0,2.0,2.0,0.0,7.0,3.0,2322.087355016265,1.0,1.0,part_3,go,0.0,0.0,0.0,136.0,4.0,170.0,204.0,136.0,34.0,102.0,68.0,green,flipped triangle
0.0,2.0,2.0,0.0,7.0,3.0,2417.3439010046422,1.0,1.0,part_3,go,0.0,0.0,0.0,117.0,3.0,39.0,156.0,117.0,195.0,234.0,78.0,green,flipped triangle
0.0,1.0,1.0,0.0,7.0,2.0,2277.892582991626,1.0,1.0,part_3,go,0.0,0.0,0.0,245.0,5.0,49.0,245.0,196.0,98.0,294.0,147.0,magenta,diamond
0.0,4.0,4.0,0.0,7.0,5.0,1262.167014006991,1.0,1.0,part_3,go,0.0,0.0,0.0,136.0,4.0,170.0,204.0,34.0,102.0,136.0,68.0,gray,hexagon
0.0,2.0,2.0,0.0,7.0,2.0,1654.0033370256424,1.0,1.0,part_3,go,0.0,0.0,0.0,162.0,3.0,108.0,162.0,324.0,270.0,216.0,54.0,green,flipped triangle
0.0,8.0,4.0,1.0,7.0,2.0,1544.827796984464,1.0,1.0,part_3,go,0.0,0.0,0.0,204.0,6.0,170.0,204.0,136.0,34.0,102.0,68.0,cyan,cross
0.0,7.0,3.0,1.0,7.0,4.0,1564.6628770045936,2.0,1.0,part_3,go,0.0,0.0,0.0,98.0,2.0,294.0,49.0,147.0,98.0,196.0,245.0,orange,circle
0.0,6.0,2.0,1.0,7.0,5.0,1357.6998369535431,2.0,1.0,part_3,go,0.0,0.0,0.0,270.0,5.0,108.0,216.0,162.0,54.0,270.0,324.0,blue,triangle
0.0,3.0,3.0,0.0,7.0,5.0,1129.9046030035242,2.0,1.0,part_3,go,0.0,0.0,0.0,132.0,3.0,220.0,44.0,88.0,176.0,132.0,264.0,white,I
0.0,4.0,4.0,0.0,7.0,1.0,1452.57472502999,2.0,1.0,part_3,go,0.0,0.0,0.0,204.0,6.0,204.0,170.0,68.0,136.0,102.0,34.0,gray,hexagon
0.0,1.0,1.0,0.0,7.0,6.0,1299.7080539935268,2.0,1.0,part_3,go,0.0,0.0,0.0,294.0,6.0,98.0,147.0,245.0,196.0,49.0,294.0,magenta,diamond
0.0,6.0,2.0,1.0,7.0,2.0,2054.955277009867,2.0,1.0,part_3,go,0.0,0.0,0.0,117.0,3.0,156.0,117.0,78.0,39.0,234.0,195.0,blue,triangle
0.0,7.0,3.0,1.0,7.0,3.0,2005.3940750076436,2.0,1.0,part_3,go,0.0,0.0,0.0,264.0,6.0,44.0,88.0,264.0,176.0,132.0,220.0,orange,circle
0.0,1.0,1.0,0.0,7.0,4.0,1518.0826089926995,2.0,1.0,part_3,go,0.0,0.0,0.0,108.0,2.0,54.0,270.0,216.0,108.0,162.0,324.0,magenta,diamond
0.0,4.0,4.0,0.0,7.0,5.0,914.5768400048836,2.0,1.0,part_3,go,0.0,0.0,0.0,78.0,2.0,156.0,195.0,234.0,117.0,78.0,39.0,gray,hexagon
0.0,7.0,3.0,1.0,7.0,3.0,2163.293502992019,2.0,1.0,part_3,go,0.0,0.0,0.0,54.0,1.0,324.0,270.0,54.0,216.0,108.0,162.0,orange,circle
0.0,3.0,3.0,0.0,7.0,6.0,1346.185291011352,2.0,1.0,part_3,go,0.0,0.0,0.0,78.0,2.0,156.0,195.0,117.0,39.0,234.0,78.0,white,I
0.0,8.0,4.0,1.0,7.0,1.0,1540.5195920029655,2.0,1.0,part_3,go,0.0,0.0,0.0,270.0,5.0,270.0,108.0,216.0,54.0,324.0,162.0,cyan,cross
0.0,2.0,2.0,0.0,7.0,3.0,1504.9394390080124,2.0,1.0,part_3,go,0.0,0.0,0.0,176.0,4.0,132.0,264.0,176.0,88.0,220.0,44.0,green,flipped triangle
0.0,4.0,4.0,0.0,7.0,5.0,1294.9053019983694,2.0,1.0,part_3,go,0.0,0.0,0.0,270.0,5.0,54.0,324.0,108.0,216.0,270.0,162.0,gray,hexagon
0.0,5.0,1.0,1.0,7.0,3.0,1544.2267850157805,2.0,1.0,part_3,go,0.0,0.0,0.0,245.0,5.0,196.0,147.0,245.0,294.0,98.0,49.0,yellow,square
0.0,1.0,1.0,0.0,7.0,2.0,1632.901428034529,2.0,1.0,part_3,go,0.0,0.0,0.0,324.0,6.0,54.0,324.0,162.0,216.0,108.0,270.0,magenta,diamond
0.0,7.0,3.0,1.0,7.0,2.0,1997.9973169974985,2.0,1.0,part_3,go,0.0,0.0,0.0,204.0,6.0,102.0,204.0,136.0,170.0,68.0,34.0,orange,circle
0.0,5.0,1.0,1.0,7.0,6.0,1054.443241970148,2.0,1.0,part_3,go,0.0,0.0,0.0,234.0,6.0,78.0,156.0,39.0,117.0,195.0,234.0,yellow,square
0.0,8.0,4.0,1.0,7.0,2.0,2085.868774971459,2.0,1.0,part_3,go,0.0,0.0,0.0,44.0,1.0,220.0,44.0,88.0,264.0,132.0,176.0,cyan,cross
0.0,5.0,1.0,1.0,7.0,5.0,991.5292900404892,2.0,1.0,part_3,go,0.0,0.0,0.0,108.0,2.0,216.0,324.0,54.0,270.0,108.0,162.0,yellow,square
0.0,2.0,2.0,0.0,7.0,3.0,839.7484649904072,3.0,1.0,part_3,go,0.0,0.0,0.0,102.0,3.0,204.0,136.0,102.0,34.0,68.0,170.0,green,flipped triangle
0.0,1.0,1.0,0.0,7.0,5.0,966.5010210010224,3.0,1.0,part_3,go,0.0,0.0,0.0,195.0,5.0,234.0,39.0,78.0,117.0,195.0,156.0,magenta,diamond
0.0,3.0,3.0,0.0,7.0,3.0,1511.932738008909,3.0,1.0,part_3,go,0.0,0.0,0.0,147.0,3.0,294.0,245.0,147.0,98.0,196.0,49.0,white,I
0.0,1.0,1.0,0.0,7.0,2.0,1092.0117939822376,3.0,1.0,part_3,go,0.0,0.0,0.0,204.0,6.0,34.0,204.0,136.0,102.0,170.0,68.0,magenta,diamond
0.0,5.0,1.0,1.0,7.0,6.0,1196.572015993297,3.0,1.0,part_3,go,0.0,0.0,0.0,132.0,3.0,220.0,176.0,44.0,88.0,264.0,132.0,yellow,square
0.0,4.0,4.0,0.0,7.0,2.0,1251.5337759978138,3.0,1.0,part_3,go,0.0,0.0,0.0,176.0,4.0,264.0,176.0,44.0,88.0,132.0,220.0,gray,hexagon
0.0,5.0,1.0,1.0,7.0,5.0,750.998098985292,3.0,1.0,part_3,go,0.0,0.0,0.0,220.0,5.0,44.0,88.0,132.0,176.0,220.0,264.0,yellow,square
0.0,2.0,2.0,0.0,7.0,6.0,807.784124976024,3.0,1.0,part_3,go,0.0,0.0,0.0,78.0,2.0,39.0,156.0,117.0,195.0,234.0,78.0,green,flipped triangle
0.0,1.0,1.0,0.0,7.0,2.0,1664.5023839664643,3.0,1.0,part_3,go,0.0,0.0,0.0,195.0,5.0,156.0,195.0,39.0,78.0,117.0,234.0,magenta,diamond
0.0,8.0,4.0,1.0,7.0,2.0,1235.9754419885576,3.0,1.0,part_3,go,0.0,0.0,0.0,264.0,6.0,176.0,264.0,44.0,220.0,88.0,132.0,cyan,cross
0.0,5.0,1.0,1.0,7.0,4.0,1282.723836018704,3.0,1.0,part_3,go,0.0,0.0,0.0,234.0,6.0,117.0,195.0,39.0,234.0,78.0,156.0,yellow,square
0.0,8.0,4.0,1.0,7.0,6.0,1100.3426749957723,3.0,1.0,part_3,go,0.0,0.0,0.0,196.0,4.0,98.0,294.0,147.0,49.0,245.0,196.0,cyan,cross
0.0,6.0,2.0,1.0,7.0,1.0,1351.0829050210305,3.0,1.0,part_3,go,0.0,0.0,0.0,132.0,3.0,132.0,176.0,44.0,220.0,264.0,88.0,blue,triangle
0.0,8.0,4.0,1.0,7.0,3.0,1266.3494179723784,3.0,1.0,part_3,go,0.0,0.0,0.0,196.0,4.0,98.0,245.0,196.0,147.0,294.0,49.0,cyan,cross
0.0,8.0,4.0,1.0,7.0,4.0,1113.8416840112768,3.0,1.0,part_3,go,0.0,0.0,0.0,216.0,4.0,54.0,108.0,270.0,216.0,324.0,162.0,cyan,cross
0.0,6.0,2.0,1.0,7.0,2.0,1376.9275849917904,3.0,1.0,part_3,go,0.0,0.0,0.0,136.0,4.0,102.0,136.0,34.0,204.0,170.0,68.0,blue,triangle
0.0,6.0,2.0,1.0,7.0,2.0,1354.1199479950592,3.0,1.0,part_3,go,0.0,0.0,0.0,216.0,4.0,108.0,216.0,162.0,324.0,54.0,270.0,blue,triangle
0.0,6.0,2.0,1.0,7.0,4.0,1071.4389880304225,3.0,1.0,part_3,go,0.0,0.0,0.0,234.0,6.0,117.0,156.0,195.0,234.0,78.0,39.0,blue,triangle
0.0,3.0,3.0,0.0,7.0,6.0,839.7792219766416,3.0,1.0,part_3,go,0.0,0.0,0.0,132.0,3.0,220.0,44.0,88.0,264.0,176.0,132.0,white,I
0.0,2.0,2.0,0.0,7.0,2.0,1319.1185329924338,3.0,1.0,part_3,go,0.0,0.0,0.0,270.0,5.0,54.0,270.0,108.0,216.0,324.0,162.0,green,flipped triangle
0.0,4.0,4.0,0.0,7.0,2.0,1388.8103580102324,4.0,1.0,part_3,go,0.0,0.0,0.0,39.0,1.0,234.0,39.0,156.0,117.0,195.0,78.0,gray,hexagon
0.0,5.0,1.0,1.0,7.0,3.0,1868.0139079806397,4.0,1.0,part_3,go,0.0,0.0,0.0,162.0,3.0,270.0,108.0,162.0,324.0,54.0,216.0,yellow,square
0.0,4.0,4.0,0.0,7.0,5.0,1629.2306539835408,4.0,1.0,part_3,go,0.0,0.0,0.0,220.0,5.0,176.0,88.0,264.0,44.0,220.0,132.0,gray,hexagon
0.0,3.0,3.0,0.0,7.0,1.0,2182.4902090011165,4.0,1.0,part_3,go,0.0,0.0,0.0,170.0,5.0,170.0,136.0,34.0,102.0,204.0,68.0,white,I
0.0,6.0,2.0,1.0,7.0,6.0,1577.3359700106084,4.0,1.0,part_3,go,0.0,0.0,0.0,294.0,6.0,245.0,98.0,196.0,147.0,49.0,294.0,blue,triangle
0.0,1.0,1.0,0.0,7.0,2.0,1490.6632979982533,4.0,1.0,part_3,go,0.0,0.0,0.0,68.0,2.0,34.0,68.0,102.0,136.0,170.0,204.0,magenta,diamond
0.0,7.0,3.0,1.0,7.0,5.0,1130.8618760085665,4.0,1.0,part_3,go,0.0,0.0,0.0,88.0,2.0,132.0,176.0,44.0,220.0,88.0,264.0,orange,circle
0.0,7.0,3.0,1.0,7.0,5.0,1467.4327300162986,4.0,1.0,part_3,go,0.0,0.0,0.0,136.0,4.0,204.0,102.0,170.0,34.0,136.0,68.0,orange,circle
0.0,6.0,2.0,1.0,7.0,3.0,1862.8055460285395,4.0,1.0,part_3,go,0.0,0.0,0.0,176.0,4.0,220.0,132.0,176.0,44.0,264.0,88.0,blue,triangle
0.0,2.0,2.0,0.0,7.0,2.0,1233.7797569925897,4.0,1.0,part_3,go,0.0,0.0,0.0,147.0,3.0,98.0,147.0,294.0,245.0,196.0,49.0,green,flipped triangle
0.0,5.0,1.0,1.0,7.0,1.0,2416.992863989435,4.0,1.0,part_3,go,0.0,0.0,0.0,196.0,4.0,196.0,147.0,49.0,245.0,98.0,294.0,yellow,square
0.0,7.0,3.0,1.0,7.0,3.0,3120.503787009511,4.0,1.0,part_3,go,0.0,0.0,0.0,147.0,3.0,98.0,245.0,147.0,196.0,294.0,49.0,orange,circle
0.0,4.0,4.0,0.0,7.0,6.0,1867.342242971063,4.0,1.0,part_3,go,0.0,0.0,0.0,147.0,3.0,245.0,196.0,49.0,98.0,294.0,147.0,gray,hexagon
0.0,7.0,3.0,1.0,7.0,3.0,1532.4224979849532,4.0,1.0,part_3,go,0.0,0.0,0.0,156.0,4.0,78.0,39.0,156.0,234.0,195.0,117.0,orange,circle
0.0,8.0,4.0,1.0,7.0,4.0,1526.8649990321137,4.0,1.0,part_3,go,0.0,0.0,0.0,234.0,6.0,195.0,39.0,156.0,234.0,78.0,117.0,cyan,cross
0.0,5.0,1.0,1.0,7.0,5.0,1737.1090530068614,4.0,1.0,part_3,go,0.0,0.0,0.0,170.0,5.0,102.0,136.0,34.0,68.0,170.0,204.0,yellow,square
0.0,1.0,1.0,0.0,7.0,2.0,1425.3356319968589,4.0,1.0,part_3,go,0.0,0.0,0.0,220.0,5.0,88.0,220.0,176.0,264.0,132.0,44.0,magenta,diamond
0.0,2.0,2.0,0.0,7.0,4.0,1388.4438789682465,4.0,1.0,part_3,go,0.0,0.0,0.0,245.0,5.0,98.0,294.0,196.0,245.0,49.0,147.0,green,flipped triangle
0.0,3.0,3.0,0.0,7.0,2.0,2019.7994960471988,4.0,1.0,part_3,go,0.0,0.0,0.0,195.0,5.0,117.0,195.0,234.0,78.0,39.0,156.0,white,I
0.0,5.0,1.0,1.0,7.0,5.0,1867.516243015416,4.0,1.0,part_3,go,0.0,0.0,0.0,68.0,2.0,204.0,34.0,170.0,136.0,68.0,102.0,yellow,square
