raw_reward_magnitude,stim_reward,stepwise_reward_magnitude,paired_with_stopping,stim_location,response,reaction_time,block,num_trial_presentations,which_phase,stop_signal_trial_type,left_SSD,right_SSD,accuracy,chosen_bidding_amount,chosen_bidding_level,possible_bid_1,possible_bid_2,possible_bid_3,possible_bid_4,possible_bid_5,possible_bid_6,color_text,shape_text
0.0,8.0,0.0,1.0,2.0,2.0,529.2604859999983,1.0,1.0,phase_1,,,,,,,,,,,,,yellow,circle
0.0,7.0,0.0,1.0,4.0,4.0,542.9659789999732,1.0,1.0,phase_1,,,,,,,,,,,,,magenta,triangle
97.0,6.0,2.0,1.0,4.0,4.0,539.0278600000329,1.0,1.0,phase_1,,,,,,,,,,,,,gray,cross
387.0,8.0,4.0,1.0,3.0,3.0,576.0991729999887,1.0,1.0,phase_1,,,,,,,,,,,,,yellow,circle
387.0,8.0,4.0,1.0,1.0,1.0,402.3703700000283,1.0,1.0,phase_1,,,,,,,,,,,,,yellow,circle
205.0,7.0,3.0,1.0,4.0,4.0,454.8007159999656,1.0,1.0,phase_1,,,,,,,,,,,,,magenta,triangle
105.0,2.0,2.0,0.0,4.0,4.0,419.3468200000438,1.0,1.0,phase_1,,,,,,,,,,,,,white,flipped triangle
185.0,3.0,3.0,0.0,4.0,4.0,504.4376019999959,1.0,1.0,phase_1,,,,,,,,,,,,,blue,square
66.0,5.0,1.0,1.0,4.0,4.0,391.4232349999906,1.0,1.0,phase_1,,,,,,,,,,,,,cyan,I
63.0,5.0,1.0,1.0,2.0,2.0,387.4865429999659,1.0,1.0,phase_1,,,,,,,,,,,,,cyan,I
100.0,2.0,2.0,0.0,3.0,3.0,455.7906050000042,1.0,1.0,phase_1,,,,,,,,,,,,,white,flipped triangle
82.0,2.0,2.0,0.0,2.0,2.0,388.7872260000335,1.0,1.0,phase_1,,,,,,,,,,,,,white,flipped triangle
73.0,5.0,1.0,1.0,2.0,2.0,411.2776399999802,1.0,1.0,phase_1,,,,,,,,,,,,,cyan,I
54.0,5.0,1.0,1.0,2.0,2.0,700.8694639999931,1.0,1.0,phase_1,,,,,,,,,,,,,cyan,I
378.0,8.0,4.0,1.0,4.0,4.0,481.8204950000222,1.0,1.0,phase_1,,,,,,,,,,,,,yellow,circle
59.0,1.0,1.0,0.0,3.0,3.0,502.0518919999972,1.0,1.0,phase_1,,,,,,,,,,,,,green,diamond
34.0,1.0,1.0,0.0,2.0,2.0,324.4538110000121,1.0,1.0,phase_1,,,,,,,,,,,,,green,diamond
0.0,8.0,0.0,1.0,3.0,3.0,463.2205949999957,1.0,1.0,phase_1,,,,,,,,,,,,,yellow,circle
224.0,3.0,3.0,0.0,2.0,2.0,479.2453259999547,1.0,1.0,phase_1,,,,,,,,,,,,,blue,square
89.0,6.0,2.0,1.0,4.0,4.0,344.7358469999813,1.0,1.0,phase_1,,,,,,,,,,,,,gray,cross
63.0,5.0,1.0,1.0,4.0,4.0,328.6901230000012,1.0,1.0,phase_1,,,,,,,,,,,,,cyan,I
398.0,8.0,4.0,1.0,3.0,3.0,329.6827419999886,1.0,1.0,phase_1,,,,,,,,,,,,,yellow,circle
411.0,4.0,4.0,0.0,3.0,3.0,370.1805560000366,1.0,1.0,phase_1,,,,,,,,,,,,,orange,hexagon
418.0,8.0,4.0,1.0,1.0,1.0,483.0617069999903,1.0,1.0,phase_1,,,,,,,,,,,,,yellow,circle
32.0,5.0,1.0,1.0,1.0,1.0,399.5274789999712,1.0,1.0,phase_1,,,,,,,,,,,,,cyan,I
224.0,7.0,3.0,1.0,3.0,3.0,478.5065720000148,1.0,1.0,phase_1,,,,,,,,,,,,,magenta,triangle
90.0,2.0,2.0,0.0,3.0,3.0,404.6529099999816,1.0,1.0,phase_1,,,,,,,,,,,,,white,flipped triangle
0.0,8.0,0.0,1.0,2.0,2.0,431.9833509999853,1.0,1.0,phase_1,,,,,,,,,,,,,yellow,circle
420.0,8.0,4.0,1.0,2.0,2.0,389.4101019999993,1.0,1.0,phase_1,,,,,,,,,,,,,yellow,circle
73.0,1.0,1.0,0.0,2.0,2.0,376.1318560000291,1.0,1.0,phase_1,,,,,,,,,,,,,green,diamond
0.0,3.0,0.0,0.0,2.0,2.0,331.8324400000279,1.0,1.0,phase_1,,,,,,,,,,,,,blue,square
400.0,8.0,4.0,1.0,3.0,3.0,498.1233979999615,1.0,1.0,phase_1,,,,,,,,,,,,,yellow,circle
400.0,4.0,4.0,0.0,3.0,3.0,495.1509259999511,1.0,1.0,phase_1,,,,,,,,,,,,,orange,hexagon
393.0,8.0,4.0,1.0,1.0,1.0,508.7901080000279,1.0,1.0,phase_1,,,,,,,,,,,,,yellow,circle
196.0,3.0,3.0,0.0,1.0,1.0,406.3450250000073,1.0,1.0,phase_1,,,,,,,,,,,,,blue,square
121.0,2.0,2.0,0.0,4.0,4.0,527.3662949999789,1.0,1.0,phase_1,,,,,,,,,,,,,white,flipped triangle
403.0,8.0,4.0,1.0,1.0,1.0,392.9854200000022,1.0,1.0,phase_1,,,,,,,,,,,,,yellow,circle
98.0,6.0,2.0,1.0,2.0,2.0,319.3433659999982,1.0,1.0,phase_1,,,,,,,,,,,,,gray,cross
192.0,3.0,3.0,0.0,4.0,4.0,421.0198000000105,1.0,1.0,phase_1,,,,,,,,,,,,,blue,square
0.0,5.0,0.0,1.0,1.0,1.0,383.1962059999796,1.0,1.0,phase_1,,,,,,,,,,,,,cyan,I
0.0,8.0,0.0,1.0,2.0,2.0,330.5277409999689,1.0,1.0,phase_1,,,,,,,,,,,,,yellow,circle
404.0,8.0,4.0,1.0,1.0,1.0,401.2666439999748,1.0,1.0,phase_1,,,,,,,,,,,,,yellow,circle
188.0,3.0,3.0,0.0,1.0,1.0,372.687137000014,1.0,1.0,phase_1,,,,,,,,,,,,,blue,square
203.0,3.0,3.0,0.0,2.0,2.0,500.57354899996653,1.0,1.0,phase_1,,,,,,,,,,,,,blue,square
182.0,7.0,3.0,1.0,2.0,2.0,382.2291120000045,1.0,1.0,phase_1,,,,,,,,,,,,,magenta,triangle
0.0,1.0,0.0,0.0,1.0,1.0,324.933011999974,1.0,1.0,phase_1,,,,,,,,,,,,,green,diamond
209.0,7.0,3.0,1.0,4.0,4.0,360.3380120000565,1.0,1.0,phase_1,,,,,,,,,,,,,magenta,triangle
88.0,2.0,2.0,0.0,3.0,3.0,365.3276999999661,1.0,1.0,phase_1,,,,,,,,,,,,,white,flipped triangle
420.0,4.0,4.0,0.0,1.0,1.0,282.3769939999465,1.0,1.0,phase_1,,,,,,,,,,,,,orange,hexagon
68.0,5.0,1.0,1.0,4.0,4.0,526.5946160000112,1.0,1.0,phase_1,,,,,,,,,,,,,cyan,I
48.0,1.0,1.0,0.0,2.0,2.0,410.6402549999757,1.0,1.0,phase_1,,,,,,,,,,,,,green,diamond
124.0,6.0,2.0,1.0,1.0,1.0,318.5568110000076,1.0,1.0,phase_1,,,,,,,,,,,,,gray,cross
61.0,5.0,1.0,1.0,2.0,2.0,412.9665039999963,1.0,1.0,phase_1,,,,,,,,,,,,,cyan,I
386.0,4.0,4.0,0.0,4.0,4.0,456.4542929999788,1.0,1.0,phase_1,,,,,,,,,,,,,orange,hexagon
0.0,3.0,0.0,0.0,1.0,1.0,477.0518560000027,1.0,1.0,phase_1,,,,,,,,,,,,,blue,square
181.0,7.0,3.0,1.0,3.0,3.0,482.8067490000194,1.0,1.0,phase_1,,,,,,,,,,,,,magenta,triangle
108.0,6.0,2.0,1.0,1.0,1.0,383.873847000018,1.0,1.0,phase_1,,,,,,,,,,,,,gray,cross
194.0,3.0,3.0,0.0,3.0,3.0,395.3759830000081,1.0,1.0,phase_1,,,,,,,,,,,,,blue,square
178.0,7.0,3.0,1.0,1.0,1.0,327.2151140000687,1.0,1.0,phase_1,,,,,,,,,,,,,magenta,triangle
124.0,6.0,2.0,1.0,2.0,2.0,403.9099630000464,1.0,1.0,phase_1,,,,,,,,,,,,,gray,cross
418.0,4.0,4.0,0.0,1.0,1.0,380.570190999947,1.0,1.0,phase_1,,,,,,,,,,,,,orange,hexagon
89.0,6.0,2.0,1.0,4.0,4.0,557.7037099999416,1.0,1.0,phase_1,,,,,,,,,,,,,gray,cross
66.0,1.0,1.0,0.0,2.0,2.0,355.9925039999143,1.0,1.0,phase_1,,,,,,,,,,,,,green,diamond
0.0,2.0,0.0,0.0,4.0,4.0,470.7611260000703,1.0,1.0,phase_1,,,,,,,,,,,,,white,flipped triangle
47.0,5.0,1.0,1.0,2.0,2.0,315.3124629999411,1.0,1.0,phase_1,,,,,,,,,,,,,cyan,I
409.0,8.0,4.0,1.0,3.0,3.0,417.5800290000779,1.0,1.0,phase_1,,,,,,,,,,,,,yellow,circle
220.0,3.0,3.0,0.0,2.0,2.0,503.1576999999743,1.0,1.0,phase_1,,,,,,,,,,,,,blue,square
124.0,2.0,2.0,0.0,4.0,4.0,490.0222910000593,1.0,1.0,phase_1,,,,,,,,,,,,,white,flipped triangle
63.0,1.0,1.0,0.0,4.0,4.0,409.4677140000158,1.0,1.0,phase_1,,,,,,,,,,,,,green,diamond
56.0,5.0,1.0,1.0,4.0,4.0,374.7298330000603,1.0,1.0,phase_1,,,,,,,,,,,,,cyan,I
53.0,5.0,1.0,1.0,1.0,1.0,544.5223570000053,1.0,1.0,phase_1,,,,,,,,,,,,,cyan,I
0.0,8.0,0.0,1.0,3.0,3.0,503.3931439999151,1.0,1.0,phase_1,,,,,,,,,,,,,yellow,circle
112.0,6.0,2.0,1.0,3.0,3.0,489.531022000051,1.0,1.0,phase_1,,,,,,,,,,,,,gray,cross
0.0,7.0,0.0,1.0,2.0,2.0,455.2336420000529,1.0,1.0,phase_1,,,,,,,,,,,,,magenta,triangle
90.0,6.0,2.0,1.0,1.0,1.0,380.5841490000148,1.0,1.0,phase_1,,,,,,,,,,,,,gray,cross
186.0,7.0,3.0,1.0,4.0,4.0,473.0000509999854,1.0,1.0,phase_1,,,,,,,,,,,,,magenta,triangle
60.0,5.0,1.0,1.0,3.0,3.0,388.348169999972,1.0,1.0,phase_1,,,,,,,,,,,,,cyan,I
120.0,2.0,2.0,0.0,2.0,2.0,455.7775880000463,1.0,1.0,phase_1,,,,,,,,,,,,,white,flipped triangle
192.0,7.0,3.0,1.0,4.0,4.0,390.9286400000837,1.0,1.0,phase_1,,,,,,,,,,,,,magenta,triangle
78.0,6.0,2.0,1.0,2.0,2.0,400.9064880000323,1.0,1.0,phase_1,,,,,,,,,,,,,gray,cross
407.0,4.0,4.0,0.0,2.0,2.0,426.6999489999534,1.0,1.0,phase_1,,,,,,,,,,,,,orange,hexagon
56.0,1.0,1.0,0.0,1.0,1.0,533.7538999999651,1.0,1.0,phase_1,,,,,,,,,,,,,green,diamond
177.0,3.0,3.0,0.0,4.0,4.0,411.1402419999876,1.0,1.0,phase_1,,,,,,,,,,,,,blue,square
34.0,5.0,1.0,1.0,1.0,1.0,372.1642159999874,1.0,1.0,phase_1,,,,,,,,,,,,,cyan,I
36.0,1.0,1.0,0.0,1.0,1.0,449.6376979999468,1.0,1.0,phase_1,,,,,,,,,,,,,green,diamond
0.0,7.0,0.0,1.0,4.0,4.0,354.0163799999618,1.0,1.0,phase_1,,,,,,,,,,,,,magenta,triangle
0.0,8.0,0.0,1.0,2.0,2.0,405.8620089999749,1.0,1.0,phase_1,,,,,,,,,,,,,yellow,circle
410.0,8.0,4.0,1.0,2.0,2.0,418.1500340000639,1.0,1.0,phase_1,,,,,,,,,,,,,yellow,circle
78.0,2.0,2.0,0.0,4.0,4.0,436.2029669999856,1.0,1.0,phase_1,,,,,,,,,,,,,white,flipped triangle
0.0,3.0,0.0,0.0,4.0,4.0,480.7117000000289,1.0,1.0,phase_1,,,,,,,,,,,,,blue,square
45.0,5.0,1.0,1.0,1.0,1.0,565.8815650000406,1.0,1.0,phase_1,,,,,,,,,,,,,cyan,I
210.0,7.0,3.0,1.0,2.0,2.0,402.5174440000683,1.0,1.0,phase_1,,,,,,,,,,,,,magenta,triangle
0.0,4.0,0.0,0.0,2.0,2.0,382.5803900000437,1.0,1.0,phase_1,,,,,,,,,,,,,orange,hexagon
0.0,5.0,0.0,1.0,3.0,3.0,445.5721100000573,1.0,1.0,phase_1,,,,,,,,,,,,,cyan,I
202.0,7.0,3.0,1.0,3.0,3.0,515.985641000043,1.0,1.0,phase_1,,,,,,,,,,,,,magenta,triangle
198.0,7.0,3.0,1.0,2.0,2.0,565.5818569999838,1.0,1.0,phase_1,,,,,,,,,,,,,magenta,triangle
207.0,3.0,3.0,0.0,4.0,4.0,465.3932620000205,1.0,1.0,phase_1,,,,,,,,,,,,,blue,square
0.0,1.0,0.0,0.0,4.0,4.0,601.0532969999076,1.0,1.0,phase_1,,,,,,,,,,,,,green,diamond
403.0,4.0,4.0,0.0,4.0,4.0,482.6830220000602,1.0,1.0,phase_1,,,,,,,,,,,,,orange,hexagon
213.0,3.0,3.0,0.0,1.0,1.0,498.1410059999689,1.0,1.0,phase_1,,,,,,,,,,,,,blue,square
37.0,1.0,1.0,0.0,1.0,1.0,675.5884110000352,2.0,1.0,phase_1,,,,,,,,,,,,,green,diamond
82.0,6.0,2.0,1.0,3.0,3.0,675.3401130000611,2.0,1.0,phase_1,,,,,,,,,,,,,gray,cross
117.0,6.0,2.0,1.0,3.0,3.0,685.0365999999894,2.0,1.0,phase_1,,,,,,,,,,,,,gray,cross
26.0,5.0,1.0,1.0,2.0,2.0,469.4132050000235,2.0,1.0,phase_1,,,,,,,,,,,,,cyan,I
220.0,7.0,3.0,1.0,4.0,4.0,431.2731180000355,2.0,1.0,phase_1,,,,,,,,,,,,,magenta,triangle
192.0,3.0,3.0,0.0,3.0,3.0,483.3638149999615,2.0,1.0,phase_1,,,,,,,,,,,,,blue,square
214.0,3.0,3.0,0.0,2.0,2.0,450.5027650000102,2.0,1.0,phase_1,,,,,,,,,,,,,blue,square
118.0,6.0,2.0,1.0,4.0,4.0,398.5627890000387,2.0,1.0,phase_1,,,,,,,,,,,,,gray,cross
0.0,3.0,0.0,0.0,4.0,4.0,412.7427229999512,2.0,1.0,phase_1,,,,,,,,,,,,,blue,square
80.0,6.0,2.0,1.0,1.0,1.0,561.27213700006,2.0,1.0,phase_1,,,,,,,,,,,,,gray,cross
27.0,1.0,1.0,0.0,4.0,4.0,371.3559059999625,2.0,1.0,phase_1,,,,,,,,,,,,,green,diamond
209.0,3.0,3.0,0.0,4.0,4.0,343.3631880000121,2.0,1.0,phase_1,,,,,,,,,,,,,blue,square
34.0,5.0,1.0,1.0,2.0,2.0,431.2813660000074,2.0,1.0,phase_1,,,,,,,,,,,,,cyan,I
104.0,2.0,2.0,0.0,2.0,2.0,448.6190200000237,2.0,1.0,phase_1,,,,,,,,,,,,,white,flipped triangle
100.0,2.0,2.0,0.0,2.0,2.0,439.9624940000421,2.0,1.0,phase_1,,,,,,,,,,,,,white,flipped triangle
202.0,3.0,3.0,0.0,2.0,2.0,514.4320729999663,2.0,1.0,phase_1,,,,,,,,,,,,,blue,square
396.0,4.0,4.0,0.0,3.0,3.0,567.298214999937,2.0,1.0,phase_1,,,,,,,,,,,,,orange,hexagon
214.0,7.0,3.0,1.0,2.0,2.0,475.2724180000314,2.0,1.0,phase_1,,,,,,,,,,,,,magenta,triangle
183.0,7.0,3.0,1.0,1.0,1.0,538.5865920000015,2.0,1.0,phase_1,,,,,,,,,,,,,magenta,triangle
0.0,7.0,0.0,1.0,1.0,1.0,646.697407999909,2.0,1.0,phase_1,,,,,,,,,,,,,magenta,triangle
380.0,8.0,4.0,1.0,2.0,2.0,539.6341350000284,2.0,1.0,phase_1,,,,,,,,,,,,,yellow,circle
95.0,6.0,2.0,1.0,1.0,1.0,478.9577669999971,2.0,1.0,phase_1,,,,,,,,,,,,,gray,cross
0.0,2.0,0.0,0.0,3.0,3.0,495.0936509999337,2.0,1.0,phase_1,,,,,,,,,,,,,white,flipped triangle
0.0,7.0,0.0,1.0,4.0,4.0,417.2378320000689,2.0,1.0,phase_1,,,,,,,,,,,,,magenta,triangle
404.0,8.0,4.0,1.0,4.0,4.0,492.8571180000745,2.0,1.0,phase_1,,,,,,,,,,,,,yellow,circle
192.0,7.0,3.0,1.0,2.0,2.0,393.1018520000862,2.0,1.0,phase_1,,,,,,,,,,,,,magenta,triangle
41.0,1.0,1.0,0.0,3.0,3.0,646.4907370000219,2.0,1.0,phase_1,,,,,,,,,,,,,green,diamond
196.0,7.0,3.0,1.0,3.0,3.0,436.476252000034,2.0,1.0,phase_1,,,,,,,,,,,,,magenta,triangle
105.0,6.0,2.0,1.0,2.0,2.0,503.1306889999314,2.0,1.0,phase_1,,,,,,,,,,,,,gray,cross
0.0,4.0,0.0,0.0,2.0,2.0,437.75851099997,2.0,1.0,phase_1,,,,,,,,,,,,,orange,hexagon
214.0,3.0,3.0,0.0,4.0,4.0,440.9976850000703,2.0,1.0,phase_1,,,,,,,,,,,,,blue,square
0.0,3.0,0.0,0.0,4.0,4.0,432.007279000004,2.0,1.0,phase_1,,,,,,,,,,,,,blue,square
81.0,6.0,2.0,1.0,4.0,4.0,436.6604619999634,2.0,1.0,phase_1,,,,,,,,,,,,,gray,cross
79.0,6.0,2.0,1.0,4.0,4.0,383.3836680000786,2.0,1.0,phase_1,,,,,,,,,,,,,gray,cross
112.0,6.0,2.0,1.0,1.0,1.0,579.5798770000147,2.0,1.0,phase_1,,,,,,,,,,,,,gray,cross
0.0,6.0,0.0,1.0,4.0,4.0,561.7961350000087,2.0,1.0,phase_1,,,,,,,,,,,,,gray,cross
66.0,1.0,1.0,0.0,1.0,1.0,460.6078010000374,2.0,1.0,phase_1,,,,,,,,,,,,,green,diamond
396.0,8.0,4.0,1.0,2.0,2.0,403.6574430000428,2.0,1.0,phase_1,,,,,,,,,,,,,yellow,circle
90.0,6.0,2.0,1.0,3.0,3.0,441.227319999939,2.0,1.0,phase_1,,,,,,,,,,,,,gray,cross
92.0,6.0,2.0,1.0,3.0,3.0,491.5056620000086,2.0,1.0,phase_1,,,,,,,,,,,,,gray,cross
0.0,7.0,0.0,1.0,2.0,2.0,456.9937759999902,2.0,1.0,phase_1,,,,,,,,,,,,,magenta,triangle
106.0,2.0,2.0,0.0,1.0,1.0,381.697225000039,2.0,1.0,phase_1,,,,,,,,,,,,,white,flipped triangle
32.0,1.0,1.0,0.0,1.0,1.0,483.8367490000337,2.0,1.0,phase_1,,,,,,,,,,,,,green,diamond
0.0,6.0,0.0,1.0,3.0,3.0,679.2590830000336,2.0,1.0,phase_1,,,,,,,,,,,,,gray,cross
110.0,2.0,2.0,0.0,1.0,1.0,330.4075360000524,2.0,1.0,phase_1,,,,,,,,,,,,,white,flipped triangle
0.0,6.0,0.0,1.0,4.0,4.0,481.3501319999886,2.0,1.0,phase_1,,,,,,,,,,,,,gray,cross
208.0,3.0,3.0,0.0,3.0,3.0,468.3873109999013,2.0,1.0,phase_1,,,,,,,,,,,,,blue,square
118.0,2.0,2.0,0.0,3.0,3.0,632.0440830000962,2.0,1.0,phase_1,,,,,,,,,,,,,white,flipped triangle
0.0,5.0,0.0,1.0,4.0,4.0,536.4045750000059,2.0,1.0,phase_1,,,,,,,,,,,,,cyan,I
104.0,6.0,2.0,1.0,2.0,2.0,437.3055300000033,2.0,1.0,phase_1,,,,,,,,,,,,,gray,cross
99.0,2.0,2.0,0.0,4.0,4.0,425.298051000027,2.0,1.0,phase_1,,,,,,,,,,,,,white,flipped triangle
74.0,1.0,1.0,0.0,4.0,4.0,379.4668839999531,2.0,1.0,phase_1,,,,,,,,,,,,,green,diamond
95.0,2.0,2.0,0.0,2.0,2.0,432.5125860000298,2.0,1.0,phase_1,,,,,,,,,,,,,white,flipped triangle
399.0,8.0,4.0,1.0,2.0,2.0,360.1474140000391,2.0,1.0,phase_1,,,,,,,,,,,,,yellow,circle
73.0,5.0,1.0,1.0,3.0,3.0,532.551931999933,2.0,1.0,phase_1,,,,,,,,,,,,,cyan,I
420.0,8.0,4.0,1.0,4.0,4.0,616.9141379999701,2.0,1.0,phase_1,,,,,,,,,,,,,yellow,circle
183.0,3.0,3.0,0.0,3.0,3.0,715.4457179999554,2.0,1.0,phase_1,,,,,,,,,,,,,blue,square
0.0,2.0,0.0,0.0,2.0,2.0,502.7958130000343,2.0,1.0,phase_1,,,,,,,,,,,,,white,flipped triangle
33.0,1.0,1.0,0.0,2.0,2.0,765.6050780000214,2.0,1.0,phase_1,,,,,,,,,,,,,green,diamond
209.0,3.0,3.0,0.0,4.0,4.0,616.7970210000249,2.0,1.0,phase_1,,,,,,,,,,,,,blue,square
107.0,2.0,2.0,0.0,4.0,4.0,397.7954849999605,2.0,1.0,phase_1,,,,,,,,,,,,,white,flipped triangle
418.0,4.0,4.0,0.0,3.0,3.0,716.1943219999785,2.0,1.0,phase_1,,,,,,,,,,,,,orange,hexagon
0.0,4.0,0.0,0.0,4.0,4.0,583.7382970000817,2.0,1.0,phase_1,,,,,,,,,,,,,orange,hexagon
201.0,7.0,3.0,1.0,2.0,2.0,426.7927319999671,2.0,1.0,phase_1,,,,,,,,,,,,,magenta,triangle
36.0,5.0,1.0,1.0,4.0,4.0,431.8327649999673,2.0,1.0,phase_1,,,,,,,,,,,,,cyan,I
0.0,5.0,0.0,1.0,3.0,3.0,541.1614559999407,2.0,1.0,phase_1,,,,,,,,,,,,,cyan,I
383.0,4.0,4.0,0.0,3.0,3.0,569.816428000081,2.0,1.0,phase_1,,,,,,,,,,,,,orange,hexagon
196.0,7.0,3.0,1.0,3.0,3.0,456.8149909999874,2.0,1.0,phase_1,,,,,,,,,,,,,magenta,triangle
0.0,3.0,0.0,0.0,1.0,1.0,595.8240359999536,2.0,1.0,phase_1,,,,,,,,,,,,,blue,square
79.0,2.0,2.0,0.0,2.0,2.0,424.2598519999774,2.0,1.0,phase_1,,,,,,,,,,,,,white,flipped triangle
97.0,2.0,2.0,0.0,3.0,3.0,515.9222610000143,2.0,1.0,phase_1,,,,,,,,,,,,,white,flipped triangle
181.0,3.0,3.0,0.0,1.0,1.0,370.5466129999877,2.0,1.0,phase_1,,,,,,,,,,,,,blue,square
0.0,2.0,0.0,0.0,4.0,4.0,416.602469000054,2.0,1.0,phase_1,,,,,,,,,,,,,white,flipped triangle
99.0,6.0,2.0,1.0,3.0,3.0,836.799176999989,2.0,1.0,phase_1,,,,,,,,,,,,,gray,cross
203.0,7.0,3.0,1.0,1.0,1.0,350.7153010000365,2.0,1.0,phase_1,,,,,,,,,,,,,magenta,triangle
54.0,5.0,1.0,1.0,3.0,3.0,508.2714410000335,2.0,1.0,phase_1,,,,,,,,,,,,,cyan,I
397.0,4.0,4.0,0.0,1.0,1.0,481.2687190000133,2.0,1.0,phase_1,,,,,,,,,,,,,orange,hexagon
392.0,8.0,4.0,1.0,3.0,3.0,388.7501980000252,2.0,1.0,phase_1,,,,,,,,,,,,,yellow,circle
381.0,4.0,4.0,0.0,2.0,2.0,539.658505000034,2.0,1.0,phase_1,,,,,,,,,,,,,orange,hexagon
106.0,6.0,2.0,1.0,1.0,1.0,576.9000100000312,2.0,1.0,phase_1,,,,,,,,,,,,,gray,cross
54.0,1.0,1.0,0.0,4.0,4.0,637.91250700001,2.0,1.0,phase_1,,,,,,,,,,,,,green,diamond
210.0,3.0,3.0,0.0,3.0,3.0,578.488747999927,2.0,1.0,phase_1,,,,,,,,,,,,,blue,square
384.0,8.0,4.0,1.0,4.0,4.0,540.7466940000631,2.0,1.0,phase_1,,,,,,,,,,,,,yellow,circle
82.0,6.0,2.0,1.0,3.0,3.0,481.0880700000552,2.0,1.0,phase_1,,,,,,,,,,,,,gray,cross
51.0,1.0,1.0,0.0,3.0,3.0,762.1824630000447,2.0,2.0,phase_1,,,,,,,,,,,,,green,diamond
42.0,1.0,1.0,0.0,3.0,3.0,591.1196729999801,2.0,1.0,phase_1,,,,,,,,,,,,,green,diamond
201.0,3.0,3.0,0.0,1.0,1.0,620.8940149999762,2.0,1.0,phase_1,,,,,,,,,,,,,blue,square
75.0,6.0,2.0,1.0,2.0,2.0,555.3548089999367,2.0,1.0,phase_1,,,,,,,,,,,,,gray,cross
100.0,6.0,2.0,1.0,1.0,1.0,440.2832340000486,2.0,1.0,phase_1,,,,,,,,,,,,,gray,cross
82.0,2.0,2.0,0.0,4.0,4.0,716.9437580000704,2.0,1.0,phase_1,,,,,,,,,,,,,white,flipped triangle
188.0,7.0,3.0,1.0,3.0,3.0,529.5822419999467,2.0,1.0,phase_1,,,,,,,,,,,,,magenta,triangle
389.0,4.0,4.0,0.0,4.0,4.0,574.9967980000292,2.0,1.0,phase_1,,,,,,,,,,,,,orange,hexagon
409.0,4.0,4.0,0.0,2.0,2.0,505.7533940000667,2.0,1.0,phase_1,,,,,,,,,,,,,orange,hexagon
36.0,1.0,1.0,0.0,1.0,1.0,550.1277210000808,2.0,1.0,phase_1,,,,,,,,,,,,,green,diamond
182.0,3.0,3.0,0.0,1.0,1.0,409.1741950001051,2.0,1.0,phase_1,,,,,,,,,,,,,blue,square
0.0,4.0,0.0,0.0,1.0,1.0,382.2255019999829,2.0,1.0,phase_1,,,,,,,,,,,,,orange,hexagon
392.0,4.0,4.0,0.0,4.0,4.0,517.4714409999979,2.0,1.0,phase_1,,,,,,,,,,,,,orange,hexagon
178.0,3.0,3.0,0.0,2.0,2.0,431.1579360000905,2.0,1.0,phase_1,,,,,,,,,,,,,blue,square
96.0,6.0,2.0,1.0,1.0,1.0,485.8363459999282,2.0,1.0,phase_1,,,,,,,,,,,,,gray,cross
378.0,4.0,4.0,0.0,3.0,3.0,772.7533910000375,2.0,1.0,phase_1,,,,,,,,,,,,,orange,hexagon
111.0,6.0,2.0,1.0,4.0,4.0,643.3806670000877,3.0,1.0,phase_1,,,,,,,,,,,,,gray,cross
115.0,2.0,2.0,0.0,1.0,1.0,474.362842000005,3.0,1.0,phase_1,,,,,,,,,,,,,white,flipped triangle
192.0,3.0,3.0,0.0,2.0,2.0,509.7812520000389,3.0,1.0,phase_1,,,,,,,,,,,,,blue,square
410.0,4.0,4.0,0.0,2.0,2.0,522.0932219999668,3.0,1.0,phase_1,,,,,,,,,,,,,orange,hexagon
0.0,6.0,0.0,1.0,3.0,3.0,485.391586999981,3.0,1.0,phase_1,,,,,,,,,,,,,gray,cross
41.0,5.0,1.0,1.0,4.0,4.0,483.9792320000242,3.0,1.0,phase_1,,,,,,,,,,,,,cyan,I
52.0,1.0,1.0,0.0,1.0,1.0,456.7633229999046,3.0,1.0,phase_1,,,,,,,,,,,,,green,diamond
0.0,4.0,0.0,0.0,3.0,3.0,492.4384699999109,3.0,1.0,phase_1,,,,,,,,,,,,,orange,hexagon
213.0,7.0,3.0,1.0,4.0,4.0,432.361761999914,3.0,1.0,phase_1,,,,,,,,,,,,,magenta,triangle
98.0,2.0,2.0,0.0,3.0,3.0,528.9229790000718,3.0,1.0,phase_1,,,,,,,,,,,,,white,flipped triangle
402.0,8.0,4.0,1.0,4.0,4.0,452.6580090000607,3.0,1.0,phase_1,,,,,,,,,,,,,yellow,circle
198.0,3.0,3.0,0.0,3.0,3.0,551.8145660000755,3.0,1.0,phase_1,,,,,,,,,,,,,blue,square
108.0,2.0,2.0,0.0,1.0,1.0,372.6665530000446,3.0,1.0,phase_1,,,,,,,,,,,,,white,flipped triangle
0.0,1.0,0.0,0.0,1.0,1.0,505.6471059999694,3.0,1.0,phase_1,,,,,,,,,,,,,green,diamond
190.0,7.0,3.0,1.0,4.0,4.0,454.3511809999927,3.0,1.0,phase_1,,,,,,,,,,,,,magenta,triangle
0.0,6.0,0.0,1.0,4.0,4.0,405.1478410001436,3.0,1.0,phase_1,,,,,,,,,,,,,gray,cross
27.0,5.0,1.0,1.0,4.0,4.0,408.8619029998881,3.0,1.0,phase_1,,,,,,,,,,,,,cyan,I
423.0,4.0,4.0,0.0,1.0,1.0,470.3124309999111,3.0,1.0,phase_1,,,,,,,,,,,,,orange,hexagon
387.0,4.0,4.0,0.0,1.0,1.0,425.0374769999325,3.0,1.0,phase_1,,,,,,,,,,,,,orange,hexagon
418.0,8.0,4.0,1.0,3.0,3.0,595.6347320000077,3.0,1.0,phase_1,,,,,,,,,,,,,yellow,circle
0.0,3.0,0.0,0.0,3.0,3.0,490.6914880000386,3.0,1.0,phase_1,,,,,,,,,,,,,blue,square
55.0,1.0,1.0,0.0,4.0,4.0,461.8448270000499,3.0,1.0,phase_1,,,,,,,,,,,,,green,diamond
26.0,1.0,1.0,0.0,4.0,4.0,515.6275280000955,3.0,1.0,phase_1,,,,,,,,,,,,,green,diamond
381.0,8.0,4.0,1.0,1.0,1.0,498.1060669999806,3.0,1.0,phase_1,,,,,,,,,,,,,yellow,circle
107.0,6.0,2.0,1.0,2.0,2.0,494.4931249999627,3.0,1.0,phase_1,,,,,,,,,,,,,gray,cross
0.0,2.0,0.0,0.0,3.0,3.0,665.7548190000853,3.0,1.0,phase_1,,,,,,,,,,,,,white,flipped triangle
47.0,1.0,1.0,0.0,2.0,2.0,500.16334100018867,3.0,1.0,phase_1,,,,,,,,,,,,,green,diamond
0.0,8.0,0.0,1.0,2.0,2.0,404.8215400000572,3.0,1.0,phase_1,,,,,,,,,,,,,yellow,circle
45.0,1.0,1.0,0.0,1.0,1.0,407.4436260000311,3.0,1.0,phase_1,,,,,,,,,,,,,green,diamond
393.0,4.0,4.0,0.0,2.0,2.0,379.5099649998974,3.0,1.0,phase_1,,,,,,,,,,,,,orange,hexagon
215.0,3.0,3.0,0.0,4.0,4.0,511.1776369999461,3.0,1.0,phase_1,,,,,,,,,,,,,blue,square
90.0,2.0,2.0,0.0,1.0,1.0,451.989949000108,3.0,1.0,phase_1,,,,,,,,,,,,,white,flipped triangle
402.0,4.0,4.0,0.0,3.0,3.0,554.6135150000282,3.0,1.0,phase_1,,,,,,,,,,,,,orange,hexagon
389.0,8.0,4.0,1.0,2.0,2.0,552.5243800000226,3.0,1.0,phase_1,,,,,,,,,,,,,yellow,circle
0.0,7.0,0.0,1.0,2.0,2.0,419.9755030001597,3.0,1.0,phase_1,,,,,,,,,,,,,magenta,triangle
221.0,3.0,3.0,0.0,1.0,1.0,426.547926000012,3.0,1.0,phase_1,,,,,,,,,,,,,blue,square
0.0,2.0,0.0,0.0,2.0,2.0,406.0179590001098,3.0,1.0,phase_1,,,,,,,,,,,,,white,flipped triangle
124.0,2.0,2.0,0.0,2.0,2.0,424.6938769999815,3.0,1.0,phase_1,,,,,,,,,,,,,white,flipped triangle
55.0,5.0,1.0,1.0,1.0,1.0,375.307537000026,3.0,1.0,phase_1,,,,,,,,,,,,,cyan,I
406.0,4.0,4.0,0.0,4.0,4.0,417.8659750000406,3.0,1.0,phase_1,,,,,,,,,,,,,orange,hexagon
73.0,5.0,1.0,1.0,3.0,3.0,577.4856259999979,3.0,1.0,phase_1,,,,,,,,,,,,,cyan,I
124.0,6.0,2.0,1.0,3.0,3.0,500.81735599997046,3.0,1.0,phase_1,,,,,,,,,,,,,gray,cross
0.0,6.0,0.0,1.0,3.0,3.0,563.3595570000125,3.0,1.0,phase_1,,,,,,,,,,,,,gray,cross
66.0,5.0,1.0,1.0,4.0,4.0,535.011066999914,3.0,1.0,phase_1,,,,,,,,,,,,,cyan,I
53.0,1.0,1.0,0.0,3.0,3.0,651.9191719999071,3.0,1.0,phase_1,,,,,,,,,,,,,green,diamond
387.0,4.0,4.0,0.0,2.0,2.0,517.8477939998629,3.0,1.0,phase_1,,,,,,,,,,,,,orange,hexagon
384.0,4.0,4.0,0.0,1.0,1.0,661.6928240000561,3.0,1.0,phase_1,,,,,,,,,,,,,orange,hexagon
392.0,4.0,4.0,0.0,4.0,4.0,504.58438500004377,3.0,1.0,phase_1,,,,,,,,,,,,,orange,hexagon
0.0,2.0,0.0,0.0,4.0,4.0,516.5972069999043,3.0,1.0,phase_1,,,,,,,,,,,,,white,flipped triangle
74.0,5.0,1.0,1.0,3.0,3.0,666.8164509999315,3.0,1.0,phase_1,,,,,,,,,,,,,cyan,I
0.0,7.0,0.0,1.0,3.0,3.0,558.3216529998936,3.0,1.0,phase_1,,,,,,,,,,,,,magenta,triangle
397.0,8.0,4.0,1.0,4.0,4.0,573.4205430001111,3.0,1.0,phase_1,,,,,,,,,,,,,yellow,circle
80.0,2.0,2.0,0.0,2.0,2.0,504.94992099993397,3.0,1.0,phase_1,,,,,,,,,,,,,white,flipped triangle
208.0,7.0,3.0,1.0,4.0,4.0,430.5222000000412,3.0,1.0,phase_1,,,,,,,,,,,,,magenta,triangle
207.0,7.0,3.0,1.0,1.0,1.0,555.2892620000875,3.0,1.0,phase_1,,,,,,,,,,,,,magenta,triangle
406.0,8.0,4.0,1.0,1.0,1.0,463.6673319998863,3.0,1.0,phase_1,,,,,,,,,,,,,yellow,circle
221.0,7.0,3.0,1.0,2.0,2.0,560.9099549999428,3.0,1.0,phase_1,,,,,,,,,,,,,magenta,triangle
0.0,1.0,0.0,0.0,2.0,2.0,552.3975420001079,3.0,1.0,phase_1,,,,,,,,,,,,,green,diamond
405.0,4.0,4.0,0.0,2.0,2.0,517.561035999961,3.0,1.0,phase_1,,,,,,,,,,,,,orange,hexagon
27.0,5.0,1.0,1.0,3.0,3.0,511.6025449999597,3.0,1.0,phase_1,,,,,,,,,,,,,cyan,I
216.0,3.0,3.0,0.0,2.0,2.0,454.1399339998406,3.0,1.0,phase_1,,,,,,,,,,,,,blue,square
186.0,3.0,3.0,0.0,1.0,1.0,400.355331000128,3.0,1.0,phase_1,,,,,,,,,,,,,blue,square
75.0,2.0,2.0,0.0,4.0,4.0,585.4148089999853,3.0,1.0,phase_1,,,,,,,,,,,,,white,flipped triangle
73.0,1.0,1.0,0.0,2.0,2.0,621.1567010000181,3.0,1.0,phase_1,,,,,,,,,,,,,green,diamond
0.0,8.0,0.0,1.0,2.0,2.0,511.93013600004633,3.0,1.0,phase_1,,,,,,,,,,,,,yellow,circle
411.0,8.0,4.0,1.0,3.0,3.0,669.2212799998742,3.0,1.0,phase_1,,,,,,,,,,,,,yellow,circle
31.0,5.0,1.0,1.0,4.0,4.0,642.4739770000087,3.0,1.0,phase_1,,,,,,,,,,,,,cyan,I
177.0,7.0,3.0,1.0,3.0,3.0,532.6948479998919,3.0,1.0,phase_1,,,,,,,,,,,,,magenta,triangle
112.0,2.0,2.0,0.0,1.0,1.0,529.398436000065,3.0,1.0,phase_1,,,,,,,,,,,,,white,flipped triangle
0.0,2.0,0.0,0.0,1.0,1.0,397.8451890000087,3.0,1.0,phase_1,,,,,,,,,,,,,white,flipped triangle
383.0,8.0,4.0,1.0,1.0,1.0,498.8931360001061,3.0,1.0,phase_1,,,,,,,,,,,,,yellow,circle
34.0,5.0,1.0,1.0,3.0,3.0,641.6923599999791,3.0,1.0,phase_1,,,,,,,,,,,,,cyan,I
0.0,5.0,0.0,1.0,1.0,1.0,444.9652670000432,3.0,1.0,phase_1,,,,,,,,,,,,,cyan,I
110.0,6.0,2.0,1.0,4.0,4.0,498.7099060001583,3.0,1.0,phase_1,,,,,,,,,,,,,gray,cross
27.0,1.0,1.0,0.0,2.0,2.0,513.3247979999851,3.0,1.0,phase_1,,,,,,,,,,,,,green,diamond
88.0,6.0,2.0,1.0,3.0,3.0,550.3705479998189,3.0,1.0,phase_1,,,,,,,,,,,,,gray,cross
214.0,7.0,3.0,1.0,1.0,1.0,410.5284569998275,3.0,1.0,phase_1,,,,,,,,,,,,,magenta,triangle
34.0,1.0,1.0,0.0,2.0,2.0,491.3818349998564,3.0,1.0,phase_1,,,,,,,,,,,,,green,diamond
0.0,5.0,0.0,1.0,3.0,3.0,628.0688350000219,3.0,1.0,phase_1,,,,,,,,,,,,,cyan,I
408.0,4.0,4.0,0.0,4.0,4.0,461.9067389999145,3.0,1.0,phase_1,,,,,,,,,,,,,orange,hexagon
215.0,3.0,3.0,0.0,3.0,3.0,538.8962210001864,3.0,1.0,phase_1,,,,,,,,,,,,,blue,square
399.0,4.0,4.0,0.0,1.0,1.0,430.4677119998814,3.0,1.0,phase_1,,,,,,,,,,,,,orange,hexagon
423.0,8.0,4.0,1.0,4.0,4.0,539.0485259999878,3.0,1.0,phase_1,,,,,,,,,,,,,yellow,circle
0.0,1.0,0.0,0.0,2.0,2.0,562.5784500000464,3.0,1.0,phase_1,,,,,,,,,,,,,green,diamond
0.0,5.0,0.0,1.0,3.0,3.0,556.7640340000253,3.0,1.0,phase_1,,,,,,,,,,,,,cyan,I
196.0,3.0,3.0,0.0,4.0,4.0,540.5277180000212,3.0,1.0,phase_1,,,,,,,,,,,,,blue,square
0.0,8.0,0.0,1.0,3.0,3.0,574.5195930001046,3.0,1.0,phase_1,,,,,,,,,,,,,yellow,circle
214.0,7.0,3.0,1.0,1.0,1.0,398.4336149999308,3.0,1.0,phase_1,,,,,,,,,,,,,magenta,triangle
0.0,1.0,0.0,0.0,3.0,3.0,609.4403230001717,3.0,1.0,phase_1,,,,,,,,,,,,,green,diamond
33.0,5.0,1.0,1.0,1.0,1.0,382.4593100000584,3.0,1.0,phase_1,,,,,,,,,,,,,cyan,I
0.0,8.0,0.0,1.0,2.0,2.0,529.1873240000768,3.0,1.0,phase_1,,,,,,,,,,,,,yellow,circle
115.0,6.0,2.0,1.0,1.0,1.0,448.1618869999693,3.0,1.0,phase_1,,,,,,,,,,,,,gray,cross
401.0,4.0,4.0,0.0,1.0,1.0,477.4035399998411,3.0,1.0,phase_1,,,,,,,,,,,,,orange,hexagon
42.0,5.0,1.0,1.0,1.0,1.0,497.7963690000706,3.0,1.0,phase_1,,,,,,,,,,,,,cyan,I
60.0,1.0,1.0,0.0,4.0,4.0,668.0505690001155,3.0,1.0,phase_1,,,,,,,,,,,,,green,diamond
86.0,6.0,2.0,1.0,4.0,4.0,697.1524729999601,3.0,1.0,phase_1,,,,,,,,,,,,,gray,cross
52.0,5.0,1.0,1.0,2.0,2.0,439.7529830000621,3.0,1.0,phase_1,,,,,,,,,,,,,cyan,I
381.0,8.0,4.0,1.0,1.0,1.0,433.1559700001435,3.0,1.0,phase_1,,,,,,,,,,,,,yellow,circle
73.0,1.0,1.0,0.0,4.0,4.0,568.5944389999804,3.0,1.0,phase_1,,,,,,,,,,,,,green,diamond
63.0,1.0,1.0,0.0,4.0,4.0,452.57308500004,3.0,1.0,phase_1,,,,,,,,,,,,,green,diamond
81.0,2.0,2.0,0.0,3.0,3.0,812.4926610000784,4.0,1.0,phase_1,,,,,,,,,,,,,white,flipped triangle
212.0,7.0,3.0,1.0,3.0,3.0,461.2915010000051,4.0,1.0,phase_1,,,,,,,,,,,,,magenta,triangle
53.0,5.0,1.0,1.0,1.0,1.0,545.9968960001333,4.0,1.0,phase_1,,,,,,,,,,,,,cyan,I
0.0,4.0,0.0,0.0,2.0,2.0,583.0509530001109,4.0,1.0,phase_1,,,,,,,,,,,,,orange,hexagon
212.0,3.0,3.0,0.0,3.0,3.0,567.3593010001241,4.0,1.0,phase_1,,,,,,,,,,,,,blue,square
0.0,1.0,0.0,0.0,2.0,2.0,490.7857619998594,4.0,1.0,phase_1,,,,,,,,,,,,,green,diamond
394.0,8.0,4.0,1.0,3.0,3.0,742.1315269998559,4.0,1.0,phase_1,,,,,,,,,,,,,yellow,circle
68.0,1.0,1.0,0.0,3.0,3.0,505.32898900019063,4.0,1.0,phase_1,,,,,,,,,,,,,green,diamond
67.0,5.0,1.0,1.0,3.0,3.0,481.7183820000537,4.0,1.0,phase_1,,,,,,,,,,,,,cyan,I
410.0,4.0,4.0,0.0,4.0,4.0,461.6224290000446,4.0,1.0,phase_1,,,,,,,,,,,,,orange,hexagon
205.0,3.0,3.0,0.0,4.0,4.0,481.103892000192,4.0,1.0,phase_1,,,,,,,,,,,,,blue,square
0.0,6.0,0.0,1.0,3.0,3.0,699.978086000101,4.0,1.0,phase_1,,,,,,,,,,,,,gray,cross
179.0,7.0,3.0,1.0,2.0,2.0,555.2720169998793,4.0,1.0,phase_1,,,,,,,,,,,,,magenta,triangle
0.0,4.0,0.0,0.0,3.0,3.0,566.4340550001725,4.0,1.0,phase_1,,,,,,,,,,,,,orange,hexagon
209.0,7.0,3.0,1.0,2.0,2.0,497.7800139999999,4.0,1.0,phase_1,,,,,,,,,,,,,magenta,triangle
37.0,5.0,1.0,1.0,4.0,4.0,497.4316029999954,4.0,1.0,phase_1,,,,,,,,,,,,,cyan,I
0.0,5.0,0.0,1.0,2.0,2.0,379.3704150000394,4.0,1.0,phase_1,,,,,,,,,,,,,cyan,I
112.0,2.0,2.0,0.0,1.0,1.0,497.1603259998574,4.0,1.0,phase_1,,,,,,,,,,,,,white,flipped triangle
420.0,4.0,4.0,0.0,4.0,4.0,607.8261459999794,4.0,1.0,phase_1,,,,,,,,,,,,,orange,hexagon
120.0,6.0,2.0,1.0,4.0,4.0,402.0680319999883,4.0,1.0,phase_1,,,,,,,,,,,,,gray,cross
401.0,8.0,4.0,1.0,1.0,1.0,424.7722059999432,4.0,1.0,phase_1,,,,,,,,,,,,,yellow,circle
0.0,4.0,0.0,0.0,3.0,3.0,507.749295999929,4.0,1.0,phase_1,,,,,,,,,,,,,orange,hexagon
404.0,4.0,4.0,0.0,3.0,3.0,473.8934380000046,4.0,1.0,phase_1,,,,,,,,,,,,,orange,hexagon
0.0,6.0,0.0,1.0,3.0,3.0,396.2611459999152,4.0,1.0,phase_1,,,,,,,,,,,,,gray,cross
0.0,3.0,0.0,0.0,1.0,1.0,388.2813980001174,4.0,1.0,phase_1,,,,,,,,,,,,,blue,square
92.0,2.0,2.0,0.0,3.0,3.0,415.5218460000469,4.0,1.0,phase_1,,,,,,,,,,,,,white,flipped triangle
410.0,8.0,4.0,1.0,2.0,2.0,436.4931569998589,4.0,1.0,phase_1,,,,,,,,,,,,,yellow,circle
197.0,3.0,3.0,0.0,2.0,2.0,529.844298999933,4.0,1.0,phase_1,,,,,,,,,,,,,blue,square
36.0,5.0,1.0,1.0,2.0,2.0,510.98475699996015,4.0,1.0,phase_1,,,,,,,,,,,,,cyan,I
380.0,4.0,4.0,0.0,2.0,2.0,497.9251629999908,4.0,1.0,phase_1,,,,,,,,,,,,,orange,hexagon
404.0,4.0,4.0,0.0,1.0,1.0,548.7236139999823,4.0,1.0,phase_1,,,,,,,,,,,,,orange,hexagon
423.0,4.0,4.0,0.0,3.0,3.0,474.5936799999981,4.0,1.0,phase_1,,,,,,,,,,,,,orange,hexagon
408.0,8.0,4.0,1.0,3.0,3.0,647.9329030000827,4.0,1.0,phase_1,,,,,,,,,,,,,yellow,circle
96.0,2.0,2.0,0.0,3.0,3.0,484.7225719997823,4.0,1.0,phase_1,,,,,,,,,,,,,white,flipped triangle
211.0,3.0,3.0,0.0,3.0,3.0,504.6276420000595,4.0,1.0,phase_1,,,,,,,,,,,,,blue,square
185.0,7.0,3.0,1.0,4.0,4.0,493.0967899999814,4.0,1.0,phase_1,,,,,,,,,,,,,magenta,triangle
386.0,8.0,4.0,1.0,2.0,2.0,481.1608170000454,4.0,1.0,phase_1,,,,,,,,,,,,,yellow,circle
124.0,2.0,2.0,0.0,1.0,1.0,478.0744540000796,4.0,1.0,phase_1,,,,,,,,,,,,,white,flipped triangle
117.0,6.0,2.0,1.0,2.0,2.0,454.1853409998566,4.0,1.0,phase_1,,,,,,,,,,,,,gray,cross
48.0,5.0,1.0,1.0,1.0,1.0,441.9950720000543,4.0,1.0,phase_1,,,,,,,,,,,,,cyan,I
391.0,8.0,4.0,1.0,4.0,4.0,507.7374889999646,4.0,1.0,phase_1,,,,,,,,,,,,,yellow,circle
414.0,4.0,4.0,0.0,2.0,2.0,489.6661259999746,4.0,1.0,phase_1,,,,,,,,,,,,,orange,hexagon
423.0,8.0,4.0,1.0,4.0,4.0,461.9754769998963,4.0,1.0,phase_1,,,,,,,,,,,,,yellow,circle
197.0,7.0,3.0,1.0,1.0,1.0,485.7411680000041,4.0,1.0,phase_1,,,,,,,,,,,,,magenta,triangle
216.0,7.0,3.0,1.0,1.0,1.0,566.7617079998308,4.0,1.0,phase_1,,,,,,,,,,,,,magenta,triangle
215.0,7.0,3.0,1.0,3.0,3.0,573.3549700000822,4.0,1.0,phase_1,,,,,,,,,,,,,magenta,triangle
117.0,2.0,2.0,0.0,2.0,2.0,535.5059040000469,4.0,1.0,phase_1,,,,,,,,,,,,,white,flipped triangle
192.0,7.0,3.0,1.0,3.0,3.0,686.7812540001523,4.0,1.0,phase_1,,,,,,,,,,,,,magenta,triangle
59.0,5.0,1.0,1.0,3.0,3.0,537.7125779998551,4.0,1.0,phase_1,,,,,,,,,,,,,cyan,I
190.0,3.0,3.0,0.0,1.0,1.0,381.8502320000334,4.0,1.0,phase_1,,,,,,,,,,,,,blue,square
394.0,4.0,4.0,0.0,1.0,1.0,436.9107889999668,4.0,1.0,phase_1,,,,,,,,,,,,,orange,hexagon
0.0,6.0,0.0,1.0,4.0,4.0,503.51918399996975,4.0,1.0,phase_1,,,,,,,,,,,,,gray,cross
89.0,2.0,2.0,0.0,4.0,4.0,639.1034509999827,4.0,1.0,phase_1,,,,,,,,,,,,,white,flipped triangle
0.0,3.0,0.0,0.0,2.0,2.0,506.298648999973,4.0,1.0,phase_1,,,,,,,,,,,,,blue,square
51.0,5.0,1.0,1.0,3.0,3.0,693.4882489999836,4.0,1.0,phase_1,,,,,,,,,,,,,cyan,I
398.0,4.0,4.0,0.0,4.0,4.0,508.6239199999909,4.0,1.0,phase_1,,,,,,,,,,,,,orange,hexagon
0.0,2.0,0.0,0.0,4.0,4.0,538.9373020000221,4.0,1.0,phase_1,,,,,,,,,,,,,white,flipped triangle
67.0,1.0,1.0,0.0,2.0,2.0,493.8782130000163,4.0,1.0,phase_1,,,,,,,,,,,,,green,diamond
391.0,4.0,4.0,0.0,2.0,2.0,489.15210300015127,4.0,1.0,phase_1,,,,,,,,,,,,,orange,hexagon
53.0,1.0,1.0,0.0,3.0,3.0,676.9906749998427,4.0,1.0,phase_1,,,,,,,,,,,,,green,diamond
117.0,2.0,2.0,0.0,4.0,4.0,453.7415659999624,4.0,1.0,phase_1,,,,,,,,,,,,,white,flipped triangle
30.0,5.0,1.0,1.0,2.0,2.0,465.4309280001598,4.0,1.0,phase_1,,,,,,,,,,,,,cyan,I
61.0,1.0,1.0,0.0,3.0,3.0,621.2876899999173,4.0,1.0,phase_1,,,,,,,,,,,,,green,diamond
121.0,6.0,2.0,1.0,2.0,2.0,505.7586830000673,4.0,1.0,phase_1,,,,,,,,,,,,,gray,cross
407.0,8.0,4.0,1.0,2.0,2.0,502.7244120001342,4.0,1.0,phase_1,,,,,,,,,,,,,yellow,circle
54.0,1.0,1.0,0.0,3.0,3.0,642.1725379998406,4.0,1.0,phase_1,,,,,,,,,,,,,green,diamond
0.0,5.0,0.0,1.0,4.0,4.0,518.4036290002041,4.0,1.0,phase_1,,,,,,,,,,,,,cyan,I
0.0,1.0,0.0,0.0,4.0,4.0,419.6240559999751,4.0,1.0,phase_1,,,,,,,,,,,,,green,diamond
214.0,3.0,3.0,0.0,1.0,1.0,505.6622760000664,4.0,1.0,phase_1,,,,,,,,,,,,,blue,square
405.0,8.0,4.0,1.0,3.0,3.0,541.1386149999089,4.0,1.0,phase_1,,,,,,,,,,,,,yellow,circle
215.0,7.0,3.0,1.0,1.0,1.0,432.3523370001112,4.0,1.0,phase_1,,,,,,,,,,,,,magenta,triangle
177.0,3.0,3.0,0.0,3.0,3.0,472.8722889999517,4.0,1.0,phase_1,,,,,,,,,,,,,blue,square
76.0,2.0,2.0,0.0,3.0,3.0,466.307845999836,4.0,1.0,phase_1,,,,,,,,,,,,,white,flipped triangle
30.0,1.0,1.0,0.0,4.0,4.0,457.6603830000749,4.0,1.0,phase_1,,,,,,,,,,,,,green,diamond
0.0,1.0,0.0,0.0,3.0,3.0,406.4568880000934,4.0,1.0,phase_1,,,,,,,,,,,,,green,diamond
0.0,1.0,0.0,0.0,3.0,3.0,423.783930999889,4.0,1.0,phase_1,,,,,,,,,,,,,green,diamond
0.0,7.0,0.0,1.0,1.0,1.0,394.4374039999729,4.0,2.0,phase_1,,,,,,,,,,,,,magenta,triangle
46.0,5.0,1.0,1.0,1.0,1.0,431.9855130001997,4.0,1.0,phase_1,,,,,,,,,,,,,cyan,I
86.0,2.0,2.0,0.0,2.0,2.0,522.3166130001573,4.0,1.0,phase_1,,,,,,,,,,,,,white,flipped triangle
211.0,7.0,3.0,1.0,1.0,1.0,391.6541529999904,4.0,1.0,phase_1,,,,,,,,,,,,,magenta,triangle
0.0,4.0,0.0,0.0,1.0,1.0,565.1651460000267,4.0,1.0,phase_1,,,,,,,,,,,,,orange,hexagon
392.0,8.0,4.0,1.0,4.0,4.0,469.0018960000088,4.0,1.0,phase_1,,,,,,,,,,,,,yellow,circle
381.0,4.0,4.0,0.0,3.0,3.0,526.1835269998301,4.0,1.0,phase_1,,,,,,,,,,,,,orange,hexagon
0.0,5.0,0.0,1.0,2.0,2.0,418.1972200001382,4.0,1.0,phase_1,,,,,,,,,,,,,cyan,I
100.0,6.0,2.0,1.0,3.0,3.0,560.9497689999898,4.0,1.0,phase_1,,,,,,,,,,,,,gray,cross
0.0,6.0,0.0,1.0,3.0,3.0,484.485677000066,4.0,1.0,phase_1,,,,,,,,,,,,,gray,cross
179.0,3.0,3.0,0.0,2.0,2.0,458.8667109999278,4.0,1.0,phase_1,,,,,,,,,,,,,blue,square
177.0,7.0,3.0,1.0,2.0,2.0,437.0373209999343,4.0,1.0,phase_1,,,,,,,,,,,,,magenta,triangle
0.0,7.0,0.0,1.0,1.0,1.0,476.3123059999543,4.0,1.0,phase_1,,,,,,,,,,,,,magenta,triangle
89.0,2.0,2.0,0.0,1.0,1.0,441.9211379999979,4.0,1.0,phase_1,,,,,,,,,,,,,white,flipped triangle
76.0,6.0,2.0,1.0,2.0,2.0,374.8194529998727,4.0,1.0,phase_1,,,,,,,,,,,,,gray,cross
34.0,1.0,1.0,0.0,3.0,3.0,417.1290110000427,4.0,1.0,phase_1,,,,,,,,,,,,,green,diamond
46.0,1.0,1.0,0.0,1.0,1.0,412.2373199998037,4.0,1.0,phase_1,,,,,,,,,,,,,green,diamond
111.0,2.0,2.0,0.0,1.0,1.0,388.5113860001183,4.0,1.0,phase_1,,,,,,,,,,,,,white,flipped triangle
0.0,3.0,0.0,0.0,3.0,3.0,519.99641600014,4.0,1.0,phase_1,,,,,,,,,,,,,blue,square
0.0,4.0,0.0,0.0,2.0,2.0,387.4321349999263,4.0,1.0,phase_1,,,,,,,,,,,,,orange,hexagon
31.0,1.0,1.0,0.0,1.0,1.0,359.5978779999313,4.0,1.0,phase_1,,,,,,,,,,,,,green,diamond
194.0,7.0,3.0,1.0,4.0,4.0,471.4221290000751,4.0,1.0,phase_1,,,,,,,,,,,,,magenta,triangle
0.0,2.0,0.0,0.0,3.0,3.0,528.5837979999997,4.0,1.0,phase_1,,,,,,,,,,,,,white,flipped triangle
414.0,8.0,4.0,1.0,2.0,2.0,415.0785420001739,4.0,1.0,phase_1,,,,,,,,,,,,,yellow,circle
0.0,5.0,1.0,1.0,6.0,6.0,1384.0093609999258,1.0,1.0,phase_2,go,250.0,250.0,1.0,,,,,,,,,cyan,I
0.0,7.0,3.0,1.0,6.0,0.0,0.0,1.0,1.0,phase_2,stop,250.0,250.0,4.0,,,,,,,,,magenta,triangle
0.0,1.0,1.0,0.0,6.0,6.0,493.6639360000754,1.0,1.0,phase_2,go,250.0,300.0,1.0,,,,,,,,,green,diamond
0.0,7.0,3.0,1.0,5.0,0.0,0.0,1.0,1.0,phase_2,stop,250.0,300.0,4.0,,,,,,,,,magenta,triangle
0.0,8.0,4.0,1.0,6.0,0.0,0.0,1.0,1.0,phase_2,stop,300.0,300.0,4.0,,,,,,,,,yellow,circle
0.0,6.0,2.0,1.0,6.0,0.0,0.0,1.0,1.0,phase_2,stop,300.0,350.0,4.0,,,,,,,,,gray,cross
0.0,4.0,4.0,0.0,5.0,5.0,764.2396109999936,1.0,1.0,phase_2,go,300.0,400.0,1.0,,,,,,,,,orange,hexagon
0.0,7.0,3.0,1.0,6.0,6.0,824.9547469999925,1.0,1.0,phase_2,go,300.0,400.0,1.0,,,,,,,,,magenta,triangle
0.0,7.0,3.0,1.0,5.0,5.0,865.7437050001136,1.0,1.0,phase_2,go,300.0,400.0,1.0,,,,,,,,,magenta,triangle
0.0,2.0,2.0,0.0,6.0,6.0,719.5121060001384,1.0,1.0,phase_2,go,300.0,400.0,1.0,,,,,,,,,white,flipped triangle
0.0,3.0,3.0,0.0,6.0,6.0,690.4908380001871,1.0,1.0,phase_2,go,300.0,400.0,1.0,,,,,,,,,blue,square
0.0,3.0,3.0,0.0,5.0,5.0,646.7412419999619,1.0,1.0,phase_2,go,300.0,400.0,1.0,,,,,,,,,blue,square
0.0,8.0,4.0,1.0,6.0,6.0,647.8215490001276,1.0,1.0,phase_2,go,300.0,400.0,1.0,,,,,,,,,yellow,circle
0.0,6.0,2.0,1.0,6.0,0.0,0.0,1.0,1.0,phase_2,stop,300.0,400.0,4.0,,,,,,,,,gray,cross
0.0,2.0,2.0,0.0,5.0,5.0,912.9121440000744,1.0,1.0,phase_2,go,300.0,450.0,1.0,,,,,,,,,white,flipped triangle
0.0,7.0,3.0,1.0,6.0,0.0,0.0,1.0,1.0,phase_2,stop,300.0,450.0,4.0,,,,,,,,,magenta,triangle
0.0,4.0,4.0,0.0,6.0,6.0,1054.376250000132,1.0,1.0,phase_2,go,300.0,500.0,1.0,,,,,,,,,orange,hexagon
0.0,4.0,4.0,0.0,5.0,5.0,910.4216650000579,1.0,1.0,phase_2,go,300.0,500.0,1.0,,,,,,,,,orange,hexagon
0.0,3.0,3.0,0.0,6.0,6.0,827.2591000002194,1.0,1.0,phase_2,go,300.0,500.0,1.0,,,,,,,,,blue,square
0.0,1.0,1.0,0.0,5.0,5.0,899.3932360001509,1.0,1.0,phase_2,go,300.0,500.0,1.0,,,,,,,,,green,diamond
0.0,3.0,3.0,0.0,5.0,5.0,777.4364839999635,1.0,1.0,phase_2,go,300.0,500.0,1.0,,,,,,,,,blue,square
0.0,8.0,4.0,1.0,6.0,0.0,0.0,1.0,1.0,phase_2,stop,300.0,500.0,4.0,,,,,,,,,yellow,circle
0.0,8.0,4.0,1.0,6.0,0.0,0.0,1.0,1.0,phase_2,stop,300.0,550.0,4.0,,,,,,,,,yellow,circle
0.0,3.0,3.0,0.0,6.0,6.0,984.4153469998672,1.0,1.0,phase_2,go,300.0,600.0,1.0,,,,,,,,,blue,square
0.0,2.0,2.0,0.0,5.0,5.0,927.8794430001652,1.0,1.0,phase_2,go,300.0,600.0,1.0,,,,,,,,,white,flipped triangle
0.0,8.0,4.0,1.0,6.0,0.0,0.0,1.0,1.0,phase_2,stop,300.0,600.0,4.0,,,,,,,,,yellow,circle
0.0,5.0,1.0,1.0,5.0,0.0,0.0,1.0,1.0,phase_2,stop,300.0,650.0,4.0,,,,,,,,,cyan,I
0.0,8.0,4.0,1.0,5.0,5.0,872.4018380000871,1.0,1.0,phase_2,go,350.0,650.0,1.0,,,,,,,,,yellow,circle
0.0,8.0,4.0,1.0,6.0,0.0,0.0,1.0,1.0,phase_2,stop,350.0,650.0,4.0,,,,,,,,,yellow,circle
0.0,1.0,1.0,0.0,6.0,6.0,1229.222371000105,1.0,1.0,phase_2,go,350.0,700.0,1.0,,,,,,,,,green,diamond
0.0,3.0,3.0,0.0,5.0,5.0,998.2692070000212,1.0,1.0,phase_2,go,350.0,700.0,1.0,,,,,,,,,blue,square
0.0,4.0,4.0,0.0,6.0,6.0,1283.6720889999924,1.0,1.0,phase_2,go,350.0,700.0,1.0,,,,,,,,,orange,hexagon
0.0,1.0,1.0,0.0,5.0,5.0,1012.785114000053,1.0,1.0,phase_2,go,350.0,700.0,1.0,,,,,,,,,green,diamond
0.0,3.0,3.0,0.0,6.0,6.0,1094.7137180000936,1.0,1.0,phase_2,go,350.0,700.0,1.0,,,,,,,,,blue,square
0.0,8.0,4.0,1.0,6.0,6.0,821.4832759999808,1.0,1.0,phase_2,stop,350.0,700.0,3.0,,,,,,,,,yellow,circle
0.0,2.0,2.0,0.0,6.0,6.0,949.4445860000268,1.0,1.0,phase_2,go,350.0,650.0,1.0,,,,,,,,,white,flipped triangle
0.0,2.0,2.0,0.0,5.0,5.0,1405.8293020000292,2.0,1.0,phase_2,go,350.0,650.0,1.0,,,,,,,,,white,flipped triangle
0.0,7.0,3.0,1.0,5.0,0.0,0.0,2.0,1.0,phase_2,stop,350.0,650.0,4.0,,,,,,,,,magenta,triangle
0.0,6.0,2.0,1.0,6.0,6.0,604.0085790000376,2.0,1.0,phase_2,stop,400.0,650.0,3.0,,,,,,,,,gray,cross
0.0,5.0,1.0,1.0,5.0,0.0,0.0,2.0,1.0,phase_2,stop,400.0,600.0,4.0,,,,,,,,,cyan,I
0.0,3.0,3.0,0.0,6.0,6.0,723.884051000141,2.0,1.0,phase_2,go,450.0,600.0,1.0,,,,,,,,,blue,square
0.0,5.0,1.0,1.0,6.0,6.0,704.4979089998833,2.0,1.0,phase_2,go,450.0,600.0,1.0,,,,,,,,,cyan,I
0.0,5.0,1.0,1.0,5.0,0.0,0.0,2.0,1.0,phase_2,stop,450.0,600.0,4.0,,,,,,,,,cyan,I
0.0,6.0,2.0,1.0,6.0,6.0,663.4949150000011,2.0,1.0,phase_2,stop,500.0,600.0,3.0,,,,,,,,,gray,cross
0.0,3.0,3.0,0.0,6.0,6.0,808.319603999962,2.0,1.0,phase_2,go,500.0,550.0,1.0,,,,,,,,,blue,square
0.0,5.0,1.0,1.0,6.0,0.0,0.0,2.0,1.0,phase_2,stop,500.0,550.0,4.0,,,,,,,,,cyan,I
0.0,1.0,1.0,0.0,5.0,5.0,766.1216489998424,2.0,1.0,phase_2,go,500.0,600.0,1.0,,,,,,,,,green,diamond
0.0,7.0,3.0,1.0,5.0,5.0,686.9010810000873,2.0,1.0,phase_2,stop,500.0,600.0,3.0,,,,,,,,,magenta,triangle
0.0,8.0,4.0,1.0,6.0,0.0,0.0,2.0,1.0,phase_2,stop,450.0,600.0,4.0,,,,,,,,,yellow,circle
0.0,3.0,3.0,0.0,5.0,5.0,814.7104439999566,2.0,1.0,phase_2,go,450.0,650.0,1.0,,,,,,,,,blue,square
0.0,5.0,1.0,1.0,6.0,6.0,665.5716509999365,2.0,1.0,phase_2,stop,450.0,650.0,3.0,,,,,,,,,cyan,I
0.0,8.0,4.0,1.0,5.0,0.0,0.0,2.0,1.0,phase_2,stop,450.0,600.0,4.0,,,,,,,,,yellow,circle
0.0,2.0,2.0,0.0,5.0,5.0,618.4042390000286,2.0,1.0,phase_2,go,500.0,600.0,1.0,,,,,,,,,white,flipped triangle
0.0,1.0,1.0,0.0,5.0,5.0,773.4709219998877,2.0,1.0,phase_2,go,500.0,600.0,1.0,,,,,,,,,green,diamond
0.0,4.0,4.0,0.0,6.0,6.0,744.9021009999797,2.0,1.0,phase_2,go,500.0,600.0,1.0,,,,,,,,,orange,hexagon
0.0,1.0,1.0,0.0,5.0,5.0,932.2630439999102,2.0,1.0,phase_2,go,500.0,600.0,1.0,,,,,,,,,green,diamond
0.0,3.0,3.0,0.0,6.0,6.0,840.0261669999054,2.0,1.0,phase_2,go,500.0,600.0,1.0,,,,,,,,,blue,square
0.0,6.0,2.0,1.0,5.0,5.0,523.3332630000405,2.0,1.0,phase_2,stop,500.0,600.0,3.0,,,,,,,,,gray,cross
0.0,6.0,2.0,1.0,6.0,0.0,0.0,2.0,1.0,phase_2,stop,450.0,600.0,4.0,,,,,,,,,gray,cross
0.0,4.0,4.0,0.0,5.0,5.0,744.4740619998811,2.0,1.0,phase_2,go,450.0,650.0,1.0,,,,,,,,,orange,hexagon
0.0,8.0,4.0,1.0,5.0,0.0,0.0,2.0,1.0,phase_2,stop,450.0,650.0,4.0,,,,,,,,,yellow,circle
0.0,3.0,3.0,0.0,6.0,6.0,861.9848649998403,2.0,1.0,phase_2,go,500.0,650.0,1.0,,,,,,,,,blue,square
0.0,1.0,1.0,0.0,5.0,5.0,1012.5413690000189,2.0,1.0,phase_2,go,500.0,650.0,1.0,,,,,,,,,green,diamond
0.0,5.0,1.0,1.0,6.0,0.0,0.0,2.0,1.0,phase_2,stop,500.0,650.0,4.0,,,,,,,,,cyan,I
0.0,7.0,3.0,1.0,6.0,0.0,0.0,2.0,1.0,phase_2,stop,500.0,700.0,4.0,,,,,,,,,magenta,triangle
0.0,4.0,4.0,0.0,6.0,6.0,990.9439880000264,2.0,1.0,phase_2,go,500.0,750.0,1.0,,,,,,,,,orange,hexagon
0.0,7.0,3.0,1.0,6.0,6.0,718.6677849999796,2.0,1.0,phase_2,stop,500.0,750.0,3.0,,,,,,,,,magenta,triangle
0.0,7.0,3.0,1.0,5.0,0.0,0.0,2.0,1.0,phase_2,stop,500.0,700.0,4.0,,,,,,,,,magenta,triangle
0.0,6.0,2.0,1.0,5.0,0.0,0.0,2.0,1.0,phase_2,stop,550.0,700.0,4.0,,,,,,,,,gray,cross
0.0,7.0,3.0,1.0,5.0,5.0,859.7808290001012,2.0,1.0,phase_2,go,600.0,700.0,1.0,,,,,,,,,magenta,triangle
0.0,1.0,1.0,0.0,5.0,5.0,1082.2516369998991,2.0,1.0,phase_2,go,600.0,700.0,1.0,,,,,,,,,green,diamond
0.0,5.0,1.0,1.0,5.0,0.0,0.0,2.0,1.0,phase_2,stop,600.0,700.0,4.0,,,,,,,,,cyan,I
0.0,6.0,2.0,1.0,5.0,0.0,0.0,3.0,1.0,phase_2,go,650.0,700.0,5.0,,,,,,,,,gray,cross
0.0,5.0,1.0,1.0,5.0,5.0,517.2279909997997,3.0,1.0,phase_2,go,650.0,700.0,1.0,,,,,,,,,cyan,I
0.0,1.0,1.0,0.0,6.0,6.0,836.3216839998131,3.0,1.0,phase_2,go,650.0,700.0,1.0,,,,,,,,,green,diamond
0.0,7.0,3.0,1.0,6.0,6.0,448.8566679997348,3.0,1.0,phase_2,stop,650.0,700.0,3.0,,,,,,,,,magenta,triangle
0.0,8.0,4.0,1.0,5.0,5.0,336.7880000000696,3.0,1.0,phase_2,go,650.0,650.0,1.0,,,,,,,,,yellow,circle
0.0,4.0,4.0,0.0,6.0,6.0,359.3445249998694,3.0,1.0,phase_2,go,650.0,650.0,1.0,,,,,,,,,orange,hexagon
0.0,4.0,4.0,0.0,6.0,6.0,362.2263649999695,3.0,1.0,phase_2,go,650.0,650.0,1.0,,,,,,,,,orange,hexagon
0.0,1.0,1.0,0.0,5.0,5.0,297.7742139996735,3.0,1.0,phase_2,go,650.0,650.0,1.0,,,,,,,,,green,diamond
0.0,5.0,1.0,1.0,6.0,6.0,301.676156999747,3.0,1.0,phase_2,stop,650.0,650.0,3.0,,,,,,,,,cyan,I
0.0,8.0,4.0,1.0,6.0,6.0,408.7171999999555,3.0,1.0,phase_2,stop,650.0,600.0,3.0,,,,,,,,,yellow,circle
0.0,7.0,3.0,1.0,5.0,5.0,760.802743000113,3.0,1.0,phase_2,go,650.0,550.0,1.0,,,,,,,,,magenta,triangle
0.0,4.0,4.0,0.0,6.0,6.0,1156.2133950001223,3.0,1.0,phase_2,go,650.0,550.0,1.0,,,,,,,,,orange,hexagon
0.0,3.0,3.0,0.0,6.0,6.0,780.7879059996594,3.0,1.0,phase_2,go,650.0,550.0,1.0,,,,,,,,,blue,square
0.0,7.0,3.0,1.0,5.0,5.0,727.2267100001955,3.0,1.0,phase_2,stop,650.0,550.0,3.0,,,,,,,,,magenta,triangle
0.0,2.0,2.0,0.0,6.0,6.0,396.539906000271,3.0,1.0,phase_2,go,600.0,550.0,1.0,,,,,,,,,white,flipped triangle
0.0,2.0,2.0,0.0,5.0,5.0,794.5227320001322,3.0,1.0,phase_2,go,600.0,550.0,1.0,,,,,,,,,white,flipped triangle
0.0,6.0,2.0,1.0,6.0,0.0,0.0,3.0,1.0,phase_2,stop,600.0,550.0,4.0,,,,,,,,,gray,cross
0.0,1.0,1.0,0.0,6.0,6.0,811.7585029999645,3.0,1.0,phase_2,go,600.0,600.0,1.0,,,,,,,,,green,diamond
0.0,2.0,2.0,0.0,6.0,6.0,866.526242999953,3.0,1.0,phase_2,go,600.0,600.0,1.0,,,,,,,,,white,flipped triangle
0.0,8.0,4.0,1.0,5.0,0.0,0.0,3.0,1.0,phase_2,stop,600.0,600.0,4.0,,,,,,,,,yellow,circle
0.0,5.0,1.0,1.0,5.0,0.0,0.0,3.0,1.0,phase_2,stop,650.0,600.0,4.0,,,,,,,,,cyan,I
0.0,4.0,4.0,0.0,6.0,6.0,713.0740630000219,3.0,1.0,phase_2,go,700.0,600.0,1.0,,,,,,,,,orange,hexagon
0.0,7.0,3.0,1.0,6.0,0.0,0.0,3.0,1.0,phase_2,stop,700.0,600.0,4.0,,,,,,,,,magenta,triangle
0.0,7.0,3.0,1.0,5.0,0.0,0.0,3.0,1.0,phase_2,stop,700.0,650.0,4.0,,,,,,,,,magenta,triangle
0.0,1.0,1.0,0.0,6.0,6.0,743.7476899999638,3.0,1.0,phase_2,go,750.0,650.0,1.0,,,,,,,,,green,diamond
0.0,6.0,2.0,1.0,5.0,5.0,597.8287799998725,3.0,1.0,phase_2,stop,750.0,650.0,3.0,,,,,,,,,gray,cross
0.0,8.0,4.0,1.0,5.0,5.0,1379.8657020001883,3.0,1.0,phase_2,go,700.0,650.0,1.0,,,,,,,,,yellow,circle
0.0,3.0,3.0,0.0,5.0,5.0,967.6039209998636,3.0,1.0,phase_2,go,700.0,650.0,1.0,,,,,,,,,blue,square
0.0,7.0,3.0,1.0,5.0,5.0,766.9426870002098,3.0,1.0,phase_2,stop,700.0,650.0,3.0,,,,,,,,,magenta,triangle
0.0,4.0,4.0,0.0,6.0,6.0,1019.6257400002651,3.0,1.0,phase_2,go,650.0,650.0,1.0,,,,,,,,,orange,hexagon
0.0,6.0,2.0,1.0,5.0,5.0,1005.3092840003046,3.0,1.0,phase_2,go,650.0,650.0,1.0,,,,,,,,,gray,cross
0.0,2.0,2.0,0.0,6.0,6.0,652.7790410000307,3.0,1.0,phase_2,go,650.0,650.0,1.0,,,,,,,,,white,flipped triangle
0.0,1.0,1.0,0.0,6.0,6.0,796.0060729997167,3.0,1.0,phase_2,go,650.0,650.0,1.0,,,,,,,,,green,diamond
0.0,5.0,1.0,1.0,6.0,6.0,755.0237529999322,3.0,1.0,phase_2,stop,650.0,650.0,3.0,,,,,,,,,cyan,I
0.0,4.0,4.0,0.0,6.0,6.0,1003.807197000242,3.0,1.0,phase_2,go,650.0,600.0,1.0,,,,,,,,,orange,hexagon
0.0,4.0,4.0,0.0,6.0,6.0,575.1797409998289,3.0,1.0,phase_2,go,650.0,600.0,1.0,,,,,,,,,orange,hexagon
0.0,1.0,1.0,0.0,6.0,6.0,1311.6542139996454,4.0,1.0,phase_2,go,650.0,600.0,1.0,,,,,,,,,green,diamond
0.0,2.0,2.0,0.0,5.0,5.0,764.4587719996707,4.0,1.0,phase_2,go,650.0,600.0,1.0,,,,,,,,,white,flipped triangle
0.0,6.0,2.0,1.0,6.0,6.0,693.1306800001948,4.0,1.0,phase_2,go,650.0,600.0,1.0,,,,,,,,,gray,cross
0.0,5.0,1.0,1.0,5.0,5.0,835.3897970000617,4.0,1.0,phase_2,stop,650.0,600.0,3.0,,,,,,,,,cyan,I
0.0,6.0,2.0,1.0,5.0,0.0,0.0,4.0,1.0,phase_2,stop,600.0,600.0,4.0,,,,,,,,,gray,cross
0.0,2.0,2.0,0.0,6.0,6.0,908.3196450001196,4.0,1.0,phase_2,go,650.0,600.0,1.0,,,,,,,,,white,flipped triangle
0.0,7.0,3.0,1.0,6.0,6.0,1467.3733260001427,4.0,1.0,phase_2,go,650.0,600.0,1.0,,,,,,,,,magenta,triangle
0.0,1.0,1.0,0.0,5.0,5.0,1059.1346490000433,4.0,1.0,phase_2,go,650.0,600.0,1.0,,,,,,,,,green,diamond
0.0,5.0,1.0,1.0,6.0,6.0,1089.3441520001943,4.0,1.0,phase_2,go,650.0,600.0,1.0,,,,,,,,,cyan,I
0.0,5.0,1.0,1.0,6.0,6.0,1183.555367000281,4.0,1.0,phase_2,go,650.0,600.0,1.0,,,,,,,,,cyan,I
0.0,3.0,3.0,0.0,6.0,6.0,358.508996999717,4.0,1.0,phase_2,go,650.0,600.0,1.0,,,,,,,,,blue,square
0.0,3.0,3.0,0.0,5.0,5.0,761.9775729999674,4.0,1.0,phase_2,go,650.0,600.0,1.0,,,,,,,,,blue,square
0.0,8.0,4.0,1.0,5.0,0.0,0.0,4.0,1.0,phase_2,stop,650.0,600.0,4.0,,,,,,,,,yellow,circle
0.0,7.0,3.0,1.0,5.0,0.0,0.0,4.0,1.0,phase_2,stop,700.0,600.0,4.0,,,,,,,,,magenta,triangle
0.0,4.0,4.0,0.0,5.0,5.0,862.1466209997379,4.0,1.0,phase_2,go,750.0,600.0,1.0,,,,,,,,,orange,hexagon
0.0,6.0,2.0,1.0,6.0,0.0,0.0,4.0,1.0,phase_2,stop,750.0,600.0,4.0,,,,,,,,,gray,cross
0.0,2.0,2.0,0.0,6.0,6.0,931.6694650001408,4.0,1.0,phase_2,go,750.0,650.0,1.0,,,,,,,,,white,flipped triangle
0.0,5.0,1.0,1.0,6.0,0.0,0.0,4.0,1.0,phase_2,stop,750.0,650.0,4.0,,,,,,,,,cyan,I
0.0,3.0,3.0,0.0,6.0,6.0,955.000544000086,4.0,1.0,phase_2,go,750.0,700.0,1.0,,,,,,,,,blue,square
0.0,3.0,3.0,0.0,6.0,6.0,1091.223121999974,4.0,1.0,phase_2,go,750.0,700.0,1.0,,,,,,,,,blue,square
0.0,3.0,3.0,0.0,5.0,5.0,881.3330730004054,4.0,1.0,phase_2,go,750.0,700.0,1.0,,,,,,,,,blue,square
0.0,1.0,1.0,0.0,6.0,6.0,842.186748000131,4.0,1.0,phase_2,go,750.0,700.0,1.0,,,,,,,,,green,diamond
0.0,4.0,4.0,0.0,5.0,5.0,799.981936000222,4.0,1.0,phase_2,go,750.0,700.0,1.0,,,,,,,,,orange,hexagon
0.0,1.0,1.0,0.0,6.0,6.0,569.8314539999956,4.0,1.0,phase_2,go,750.0,700.0,1.0,,,,,,,,,green,diamond
0.0,3.0,3.0,0.0,6.0,6.0,449.8999729999013,4.0,1.0,phase_2,go,750.0,700.0,1.0,,,,,,,,,blue,square
0.0,5.0,1.0,1.0,6.0,6.0,510.89286199976414,4.0,1.0,phase_2,stop,750.0,700.0,3.0,,,,,,,,,cyan,I
0.0,6.0,2.0,1.0,5.0,0.0,0.0,4.0,1.0,phase_2,stop,750.0,650.0,4.0,,,,,,,,,gray,cross
0.0,1.0,1.0,0.0,5.0,5.0,1176.7630530002862,4.0,1.0,phase_2,go,800.0,650.0,1.0,,,,,,,,,green,diamond
0.0,4.0,4.0,0.0,6.0,6.0,856.6937640002834,4.0,1.0,phase_2,go,800.0,650.0,1.0,,,,,,,,,orange,hexagon
0.0,2.0,2.0,0.0,5.0,5.0,903.262299999824,4.0,1.0,phase_2,go,800.0,650.0,1.0,,,,,,,,,white,flipped triangle
0.0,5.0,1.0,1.0,5.0,5.0,677.9905980001786,4.0,1.0,phase_2,stop,800.0,650.0,3.0,,,,,,,,,cyan,I
0.0,3.0,3.0,0.0,6.0,6.0,1078.2529999996768,4.0,1.0,phase_2,go,750.0,650.0,1.0,,,,,,,,,blue,square
0.0,1.0,1.0,0.0,5.0,5.0,1221.0800870002458,4.0,1.0,phase_2,go,750.0,650.0,1.0,,,,,,,,,green,diamond
0.0,7.0,3.0,1.0,5.0,5.0,822.1834119999585,4.0,1.0,phase_2,go,750.0,650.0,1.0,,,,,,,,,magenta,triangle
0.0,7.0,3.0,1.0,5.0,5.0,859.153253000386,4.0,1.0,phase_2,stop,750.0,650.0,3.0,,,,,,,,,magenta,triangle
0.0,1.0,1.0,0.0,6.0,6.0,1185.182887999872,4.0,1.0,phase_2,go,700.0,650.0,1.0,,,,,,,,,green,diamond
0.0,2.0,2.0,0.0,6.0,6.0,862.6767410000866,5.0,1.0,phase_2,go,700.0,650.0,1.0,,,,,,,,,white,flipped triangle
0.0,5.0,1.0,1.0,5.0,5.0,871.4611969999169,5.0,1.0,phase_2,go,700.0,650.0,1.0,,,,,,,,,cyan,I
0.0,6.0,2.0,1.0,6.0,6.0,901.7831030000708,5.0,1.0,phase_2,go,700.0,650.0,1.0,,,,,,,,,gray,cross
0.0,7.0,3.0,1.0,6.0,6.0,1043.3296860001064,5.0,1.0,phase_2,go,700.0,650.0,1.0,,,,,,,,,magenta,triangle
0.0,3.0,3.0,0.0,5.0,5.0,715.8925779999663,5.0,1.0,phase_2,go,700.0,650.0,1.0,,,,,,,,,blue,square
0.0,7.0,3.0,1.0,6.0,6.0,667.9054759997598,5.0,1.0,phase_2,stop,700.0,650.0,3.0,,,,,,,,,magenta,triangle
0.0,6.0,2.0,1.0,6.0,0.0,0.0,5.0,1.0,phase_2,stop,700.0,600.0,4.0,,,,,,,,,gray,cross
0.0,7.0,3.0,1.0,6.0,0.0,0.0,5.0,1.0,phase_2,stop,700.0,650.0,4.0,,,,,,,,,magenta,triangle
0.0,3.0,3.0,0.0,6.0,6.0,763.2335059997786,5.0,1.0,phase_2,go,700.0,700.0,1.0,,,,,,,,,blue,square
0.0,2.0,2.0,0.0,5.0,5.0,868.270050999854,5.0,1.0,phase_2,go,700.0,700.0,1.0,,,,,,,,,white,flipped triangle
0.0,2.0,2.0,0.0,6.0,6.0,761.0315249999076,5.0,1.0,phase_2,go,700.0,700.0,1.0,,,,,,,,,white,flipped triangle
0.0,4.0,4.0,0.0,5.0,5.0,1023.2549639999888,5.0,1.0,phase_2,go,700.0,700.0,1.0,,,,,,,,,orange,hexagon
0.0,2.0,2.0,0.0,5.0,5.0,806.3335719998577,5.0,1.0,phase_2,go,700.0,700.0,1.0,,,,,,,,,white,flipped triangle
0.0,2.0,2.0,0.0,5.0,5.0,742.6442619998852,5.0,1.0,phase_2,go,700.0,700.0,1.0,,,,,,,,,white,flipped triangle
0.0,5.0,1.0,1.0,5.0,5.0,759.0716579998116,5.0,1.0,phase_2,stop,700.0,700.0,3.0,,,,,,,,,cyan,I
0.0,8.0,4.0,1.0,6.0,0.0,0.0,5.0,1.0,phase_2,stop,650.0,700.0,4.0,,,,,,,,,yellow,circle
0.0,4.0,4.0,0.0,6.0,0.0,0.0,5.0,1.0,phase_2,go,650.0,750.0,5.0,,,,,,,,,orange,hexagon
0.0,7.0,3.0,1.0,6.0,0.0,0.0,5.0,1.0,phase_2,stop,650.0,750.0,4.0,,,,,,,,,magenta,triangle
0.0,3.0,3.0,0.0,5.0,5.0,1135.0518610001927,5.0,1.0,phase_2,go,650.0,800.0,1.0,,,,,,,,,blue,square
0.0,5.0,1.0,1.0,6.0,0.0,0.0,5.0,1.0,phase_2,stop,650.0,800.0,4.0,,,,,,,,,cyan,I
0.0,8.0,4.0,1.0,6.0,0.0,0.0,5.0,1.0,phase_2,stop,650.0,850.0,4.0,,,,,,,,,yellow,circle
0.0,5.0,1.0,1.0,5.0,5.0,1210.2209710001262,5.0,1.0,phase_2,go,650.0,900.0,1.0,,,,,,,,,cyan,I
0.0,5.0,1.0,1.0,5.0,0.0,0.0,5.0,1.0,phase_2,stop,650.0,900.0,4.0,,,,,,,,,cyan,I
0.0,8.0,4.0,1.0,6.0,6.0,962.3190869997416,5.0,1.0,phase_2,stop,700.0,900.0,3.0,,,,,,,,,yellow,circle
0.0,5.0,1.0,1.0,6.0,0.0,0.0,5.0,1.0,phase_2,stop,700.0,850.0,4.0,,,,,,,,,cyan,I
0.0,3.0,3.0,0.0,5.0,5.0,1383.2925860001524,5.0,1.0,phase_2,go,700.0,900.0,1.0,,,,,,,,,blue,square
0.0,1.0,1.0,0.0,5.0,5.0,1254.3957960001535,5.0,1.0,phase_2,go,700.0,900.0,1.0,,,,,,,,,green,diamond
0.0,6.0,2.0,1.0,5.0,0.0,0.0,5.0,1.0,phase_2,stop,700.0,900.0,4.0,,,,,,,,,gray,cross
0.0,6.0,2.0,1.0,5.0,5.0,854.3140430001586,5.0,1.0,phase_2,stop,750.0,900.0,3.0,,,,,,,,,gray,cross
0.0,6.0,2.0,1.0,6.0,0.0,0.0,5.0,1.0,phase_2,stop,700.0,900.0,4.0,,,,,,,,,gray,cross
0.0,4.0,4.0,0.0,5.0,5.0,1256.2146569998731,5.0,1.0,phase_2,go,700.0,950.0,1.0,,,,,,,,,orange,hexagon
0.0,8.0,4.0,1.0,6.0,0.0,0.0,5.0,1.0,phase_2,stop,700.0,950.0,4.0,,,,,,,,,yellow,circle
0.0,7.0,3.0,1.0,5.0,0.0,0.0,5.0,1.0,phase_2,stop,700.0,1000.0,4.0,,,,,,,,,magenta,triangle
0.0,4.0,4.0,0.0,6.0,6.0,918.0242150000596,5.0,1.0,phase_2,go,750.0,1000.0,1.0,,,,,,,,,orange,hexagon
0.0,6.0,2.0,1.0,5.0,0.0,0.0,5.0,1.0,phase_2,stop,750.0,1000.0,4.0,,,,,,,,,gray,cross
0.0,3.0,3.0,0.0,6.0,6.0,957.69737899991,5.0,1.0,phase_2,go,800.0,1000.0,1.0,,,,,,,,,blue,square
0.0,1.0,1.0,0.0,6.0,0.0,0.0,6.0,1.0,phase_2,go,800.0,1000.0,5.0,,,,,,,,,green,diamond
0.0,8.0,4.0,1.0,6.0,0.0,0.0,6.0,1.0,phase_2,stop,800.0,1000.0,4.0,,,,,,,,,yellow,circle
0.0,8.0,4.0,1.0,5.0,0.0,0.0,6.0,1.0,phase_2,stop,800.0,1050.0,4.0,,,,,,,,,yellow,circle
0.0,4.0,4.0,0.0,5.0,5.0,909.415935999732,6.0,1.0,phase_2,go,850.0,1050.0,1.0,,,,,,,,,orange,hexagon
0.0,6.0,2.0,1.0,5.0,0.0,0.0,6.0,1.0,phase_2,stop,850.0,1050.0,4.0,,,,,,,,,gray,cross
0.0,2.0,2.0,0.0,5.0,5.0,1077.897849999772,6.0,1.0,phase_2,go,900.0,1050.0,1.0,,,,,,,,,white,flipped triangle
0.0,3.0,3.0,0.0,5.0,5.0,1198.32683300001,6.0,1.0,phase_2,go,900.0,1050.0,1.0,,,,,,,,,blue,square
0.0,4.0,4.0,0.0,5.0,5.0,1083.1488970002283,6.0,1.0,phase_2,go,900.0,1050.0,1.0,,,,,,,,,orange,hexagon
0.0,5.0,1.0,1.0,5.0,5.0,948.7217010000676,6.0,1.0,phase_2,stop,900.0,1050.0,3.0,,,,,,,,,cyan,I
0.0,7.0,3.0,1.0,5.0,0.0,0.0,6.0,1.0,phase_2,stop,850.0,1050.0,4.0,,,,,,,,,magenta,triangle
0.0,7.0,3.0,1.0,5.0,5.0,1409.1756520001582,6.0,1.0,phase_2,go,900.0,1050.0,1.0,,,,,,,,,magenta,triangle
0.0,3.0,3.0,0.0,5.0,5.0,1104.9950619999436,6.0,1.0,phase_2,go,900.0,1050.0,1.0,,,,,,,,,blue,square
0.0,6.0,2.0,1.0,6.0,6.0,763.0048119999628,6.0,1.0,phase_2,go,900.0,1050.0,1.0,,,,,,,,,gray,cross
0.0,1.0,1.0,0.0,6.0,6.0,1106.908769000256,6.0,1.0,phase_2,go,900.0,1050.0,1.0,,,,,,,,,green,diamond
0.0,3.0,3.0,0.0,6.0,6.0,970.6060149997028,6.0,1.0,phase_2,go,900.0,1050.0,1.0,,,,,,,,,blue,square
0.0,1.0,1.0,0.0,5.0,5.0,1399.2517440001393,6.0,1.0,phase_2,go,900.0,1050.0,1.0,,,,,,,,,green,diamond
0.0,8.0,4.0,1.0,5.0,0.0,0.0,6.0,1.0,phase_2,stop,900.0,1050.0,4.0,,,,,,,,,yellow,circle
0.0,7.0,3.0,1.0,6.0,0.0,0.0,6.0,1.0,phase_2,stop,950.0,1050.0,4.0,,,,,,,,,magenta,triangle
0.0,2.0,2.0,0.0,5.0,5.0,1316.9158059999972,6.0,1.0,phase_2,go,950.0,1100.0,1.0,,,,,,,,,white,flipped triangle
0.0,8.0,4.0,1.0,5.0,0.0,0.0,6.0,1.0,phase_2,stop,950.0,1100.0,4.0,,,,,,,,,yellow,circle
0.0,1.0,1.0,0.0,6.0,6.0,1455.1127159998032,6.0,1.0,phase_2,go,1000.0,1100.0,1.0,,,,,,,,,green,diamond
0.0,6.0,2.0,1.0,5.0,0.0,0.0,6.0,1.0,phase_2,go,1000.0,1100.0,5.0,,,,,,,,,gray,cross
0.0,8.0,4.0,1.0,6.0,0.0,0.0,6.0,1.0,phase_2,stop,1000.0,1100.0,4.0,,,,,,,,,yellow,circle
0.0,3.0,3.0,0.0,5.0,5.0,1394.4943499996043,6.0,1.0,phase_2,go,1000.0,1150.0,1.0,,,,,,,,,blue,square
0.0,2.0,2.0,0.0,5.0,5.0,1355.278757999713,6.0,1.0,phase_2,go,1000.0,1150.0,1.0,,,,,,,,,white,flipped triangle
0.0,4.0,4.0,0.0,6.0,6.0,1203.4755129998302,6.0,1.0,phase_2,go,1000.0,1150.0,1.0,,,,,,,,,orange,hexagon
0.0,8.0,4.0,1.0,5.0,5.0,1162.5195080000594,6.0,1.0,phase_2,go,1000.0,1150.0,1.0,,,,,,,,,yellow,circle
0.0,8.0,4.0,1.0,5.0,5.0,1130.2384089999578,6.0,1.0,phase_2,stop,1000.0,1150.0,3.0,,,,,,,,,yellow,circle
0.0,2.0,2.0,0.0,6.0,6.0,1050.8997280003314,6.0,1.0,phase_2,go,950.0,1150.0,1.0,,,,,,,,,white,flipped triangle
0.0,2.0,2.0,0.0,6.0,6.0,1102.9033889999482,6.0,1.0,phase_2,go,950.0,1150.0,1.0,,,,,,,,,white,flipped triangle
0.0,1.0,1.0,0.0,5.0,5.0,1110.532976999821,6.0,1.0,phase_2,go,950.0,1150.0,1.0,,,,,,,,,green,diamond
0.0,3.0,3.0,0.0,5.0,5.0,1056.6702559999612,6.0,1.0,phase_2,go,950.0,1150.0,1.0,,,,,,,,,blue,square
0.0,7.0,3.0,1.0,6.0,6.0,1208.2969109997066,6.0,1.0,phase_2,stop,950.0,1150.0,3.0,,,,,,,,,magenta,triangle
0.0,6.0,2.0,1.0,5.0,0.0,0.0,6.0,1.0,phase_2,stop,950.0,1100.0,4.0,,,,,,,,,gray,cross
0.0,4.0,4.0,0.0,5.0,5.0,1196.339161999731,6.0,1.0,phase_2,go,1000.0,1100.0,1.0,,,,,,,,,orange,hexagon
0.0,4.0,4.0,0.0,6.0,6.0,1311.2264649998906,6.0,1.0,phase_2,go,1000.0,1100.0,1.0,,,,,,,,,orange,hexagon
0.0,3.0,3.0,0.0,6.0,0.0,0.0,7.0,1.0,phase_2,go,1000.0,1100.0,5.0,,,,,,,,,blue,square
0.0,1.0,1.0,0.0,5.0,5.0,1324.9582809999083,7.0,1.0,phase_2,go,1000.0,1100.0,1.0,,,,,,,,,green,diamond
0.0,6.0,2.0,1.0,6.0,6.0,1192.7712749998136,7.0,1.0,phase_2,stop,1000.0,1100.0,3.0,,,,,,,,,gray,cross
0.0,1.0,1.0,0.0,6.0,0.0,0.0,7.0,1.0,phase_2,go,1000.0,1050.0,5.0,,,,,,,,,green,diamond
0.0,2.0,2.0,0.0,5.0,5.0,1158.1075089998194,7.0,1.0,phase_2,go,1000.0,1050.0,1.0,,,,,,,,,white,flipped triangle
0.0,6.0,2.0,1.0,5.0,0.0,0.0,7.0,1.0,phase_2,stop,1000.0,1050.0,4.0,,,,,,,,,gray,cross
0.0,4.0,4.0,0.0,5.0,5.0,1330.4371240001274,7.0,1.0,phase_2,go,1050.0,1050.0,1.0,,,,,,,,,orange,hexagon
0.0,3.0,3.0,0.0,5.0,5.0,1250.9448069999962,7.0,1.0,phase_2,go,1050.0,1050.0,1.0,,,,,,,,,blue,square
0.0,7.0,3.0,1.0,5.0,0.0,0.0,7.0,1.0,phase_2,stop,1050.0,1050.0,4.0,,,,,,,,,magenta,triangle
0.0,2.0,2.0,0.0,6.0,0.0,0.0,7.0,1.0,phase_2,go,1100.0,1050.0,5.0,,,,,,,,,white,flipped triangle
0.0,5.0,1.0,1.0,5.0,0.0,0.0,7.0,1.0,phase_2,stop,1100.0,1050.0,4.0,,,,,,,,,cyan,I
0.0,8.0,4.0,1.0,5.0,5.0,986.7731059998732,7.0,1.0,phase_2,go,1150.0,1050.0,1.0,,,,,,,,,yellow,circle
0.0,6.0,2.0,1.0,6.0,6.0,1178.4912660000373,7.0,1.0,phase_2,stop,1150.0,1050.0,3.0,,,,,,,,,gray,cross
0.0,5.0,1.0,1.0,5.0,0.0,0.0,7.0,1.0,phase_2,stop,1150.0,1000.0,4.0,,,,,,,,,cyan,I
0.0,4.0,4.0,0.0,5.0,0.0,0.0,7.0,1.0,phase_2,go,1200.0,1000.0,5.0,,,,,,,,,orange,hexagon
0.0,2.0,2.0,0.0,5.0,0.0,0.0,7.0,1.0,phase_2,go,1200.0,1000.0,5.0,,,,,,,,,white,flipped triangle
0.0,1.0,1.0,0.0,6.0,6.0,959.5679219996782,7.0,1.0,phase_2,go,1200.0,1000.0,1.0,,,,,,,,,green,diamond
0.0,6.0,2.0,1.0,5.0,5.0,1302.689632000238,7.0,1.0,phase_2,stop,1200.0,1000.0,3.0,,,,,,,,,gray,cross
0.0,8.0,4.0,1.0,5.0,0.0,0.0,7.0,1.0,phase_2,go,1150.0,1000.0,5.0,,,,,,,,,yellow,circle
0.0,5.0,1.0,1.0,5.0,0.0,0.0,7.0,1.0,phase_2,stop,1150.0,1000.0,4.0,,,,,,,,,cyan,I
0.0,2.0,2.0,0.0,6.0,0.0,0.0,7.0,1.0,phase_2,go,1200.0,1000.0,5.0,,,,,,,,,white,flipped triangle
0.0,6.0,2.0,1.0,5.0,5.0,1254.0145409998331,7.0,1.0,phase_2,stop,1200.0,1000.0,3.0,,,,,,,,,gray,cross
0.0,2.0,2.0,0.0,6.0,0.0,0.0,7.0,1.0,phase_2,go,1150.0,1000.0,5.0,,,,,,,,,white,flipped triangle
0.0,2.0,2.0,0.0,5.0,5.0,1235.3321929999763,7.0,1.0,phase_2,go,1150.0,1000.0,1.0,,,,,,,,,white,flipped triangle
0.0,5.0,1.0,1.0,6.0,6.0,1195.2547860000775,7.0,1.0,phase_2,go,1150.0,1000.0,1.0,,,,,,,,,cyan,I
0.0,7.0,3.0,1.0,6.0,0.0,0.0,7.0,1.0,phase_2,stop,1150.0,1000.0,4.0,,,,,,,,,magenta,triangle
0.0,8.0,4.0,1.0,6.0,6.0,1207.1369780001078,7.0,1.0,phase_2,stop,1150.0,1050.0,3.0,,,,,,,,,yellow,circle
0.0,1.0,1.0,0.0,5.0,5.0,1480.4795370000647,7.0,1.0,phase_2,go,1150.0,1000.0,1.0,,,,,,,,,green,diamond
0.0,3.0,3.0,0.0,5.0,0.0,0.0,7.0,1.0,phase_2,go,1150.0,1000.0,5.0,,,,,,,,,blue,square
0.0,8.0,4.0,1.0,6.0,6.0,1153.692224000224,7.0,1.0,phase_2,stop,1150.0,1000.0,3.0,,,,,,,,,yellow,circle
0.0,8.0,4.0,1.0,5.0,5.0,911.3915950001684,7.0,1.0,phase_2,stop,1150.0,950.0,3.0,,,,,,,,,yellow,circle
0.0,6.0,2.0,1.0,6.0,6.0,654.4701960001476,7.0,1.0,phase_2,go,1100.0,950.0,1.0,,,,,,,,,gray,cross
0.0,1.0,1.0,0.0,6.0,6.0,1239.3019050000476,7.0,1.0,phase_2,go,1100.0,950.0,1.0,,,,,,,,,green,diamond
0.0,5.0,1.0,1.0,6.0,6.0,911.2855559997116,7.0,1.0,phase_2,stop,1100.0,950.0,3.0,,,,,,,,,cyan,I
0.0,6.0,2.0,1.0,6.0,6.0,1447.1147720000772,7.0,1.0,phase_2,go,1100.0,900.0,1.0,,,,,,,,,gray,cross
0.0,6.0,2.0,1.0,5.0,5.0,1020.3308909999578,7.0,1.0,phase_2,stop,1100.0,900.0,3.0,,,,,,,,,gray,cross
0.0,5.0,1.0,1.0,5.0,5.0,1172.080985999855,8.0,1.0,phase_2,stop,1050.0,900.0,3.0,,,,,,,,,cyan,I
0.0,4.0,4.0,0.0,5.0,5.0,1270.5559349997202,8.0,1.0,phase_2,go,1000.0,900.0,1.0,,,,,,,,,orange,hexagon
0.0,1.0,1.0,0.0,6.0,6.0,1140.1674559997446,8.0,1.0,phase_2,go,1000.0,900.0,1.0,,,,,,,,,green,diamond
0.0,4.0,4.0,0.0,6.0,6.0,1021.6503710003051,8.0,1.0,phase_2,go,1000.0,900.0,1.0,,,,,,,,,orange,hexagon
0.0,5.0,1.0,1.0,6.0,0.0,0.0,8.0,1.0,phase_2,go,1000.0,900.0,5.0,,,,,,,,,cyan,I
0.0,2.0,2.0,0.0,6.0,6.0,1096.495926999978,8.0,1.0,phase_2,go,1000.0,900.0,1.0,,,,,,,,,white,flipped triangle
0.0,7.0,3.0,1.0,6.0,6.0,921.9672889998948,8.0,1.0,phase_2,go,1000.0,900.0,1.0,,,,,,,,,magenta,triangle
0.0,7.0,3.0,1.0,6.0,6.0,697.306301000026,8.0,1.0,phase_2,stop,1000.0,900.0,3.0,,,,,,,,,magenta,triangle
0.0,6.0,2.0,1.0,5.0,0.0,0.0,8.0,1.0,phase_2,stop,1000.0,850.0,4.0,,,,,,,,,gray,cross
0.0,4.0,4.0,0.0,5.0,0.0,0.0,8.0,1.0,phase_2,go,1050.0,850.0,5.0,,,,,,,,,orange,hexagon
0.0,1.0,1.0,0.0,5.0,5.0,1333.9385750000474,8.0,1.0,phase_2,go,1050.0,850.0,1.0,,,,,,,,,green,diamond
0.0,2.0,2.0,0.0,5.0,5.0,944.6299389996966,8.0,1.0,phase_2,go,1050.0,850.0,1.0,,,,,,,,,white,flipped triangle
0.0,3.0,3.0,0.0,5.0,5.0,1110.9969429999182,8.0,1.0,phase_2,go,1050.0,850.0,1.0,,,,,,,,,blue,square
0.0,7.0,3.0,1.0,5.0,5.0,1110.024161000183,8.0,1.0,phase_2,stop,1050.0,850.0,3.0,,,,,,,,,magenta,triangle
0.0,1.0,1.0,0.0,6.0,6.0,1427.4952450000455,8.0,1.0,phase_2,go,1000.0,850.0,1.0,,,,,,,,,green,diamond
0.0,6.0,2.0,1.0,6.0,0.0,0.0,8.0,1.0,phase_2,stop,1000.0,850.0,4.0,,,,,,,,,gray,cross
0.0,5.0,1.0,1.0,6.0,0.0,0.0,8.0,1.0,phase_2,stop,1000.0,900.0,4.0,,,,,,,,,cyan,I
0.0,8.0,4.0,1.0,5.0,5.0,1419.5964829996228,8.0,1.0,phase_2,go,1000.0,950.0,1.0,,,,,,,,,yellow,circle
0.0,8.0,4.0,1.0,6.0,6.0,987.3220360000232,8.0,1.0,phase_2,stop,1000.0,950.0,3.0,,,,,,,,,yellow,circle
0.0,8.0,4.0,1.0,5.0,0.0,0.0,8.0,1.0,phase_2,stop,1000.0,900.0,4.0,,,,,,,,,yellow,circle
0.0,2.0,2.0,0.0,6.0,6.0,1496.963422000135,8.0,1.0,phase_2,go,1050.0,900.0,1.0,,,,,,,,,white,flipped triangle
0.0,5.0,1.0,1.0,6.0,0.0,0.0,8.0,1.0,phase_2,stop,1050.0,900.0,4.0,,,,,,,,,cyan,I
0.0,2.0,2.0,0.0,6.0,6.0,1271.1619249998876,8.0,1.0,phase_2,go,1050.0,950.0,1.0,,,,,,,,,white,flipped triangle
0.0,8.0,4.0,1.0,5.0,5.0,695.2046070000506,8.0,1.0,phase_2,go,1050.0,950.0,1.0,,,,,,,,,yellow,circle
0.0,4.0,4.0,0.0,5.0,5.0,998.1857269999635,8.0,1.0,phase_2,go,1050.0,950.0,1.0,,,,,,,,,orange,hexagon
0.0,3.0,3.0,0.0,5.0,5.0,1317.7011980001223,8.0,1.0,phase_2,go,1050.0,950.0,1.0,,,,,,,,,blue,square
0.0,2.0,2.0,0.0,5.0,5.0,1301.7054720003216,8.0,1.0,phase_2,go,1050.0,950.0,1.0,,,,,,,,,white,flipped triangle
0.0,7.0,3.0,1.0,6.0,0.0,0.0,8.0,1.0,phase_2,stop,1050.0,950.0,4.0,,,,,,,,,magenta,triangle
0.0,1.0,1.0,0.0,5.0,0.0,0.0,8.0,1.0,phase_2,go,1050.0,1000.0,5.0,,,,,,,,,green,diamond
0.0,4.0,4.0,0.0,5.0,5.0,1231.5077889998065,8.0,1.0,phase_2,go,1050.0,1000.0,1.0,,,,,,,,,orange,hexagon
0.0,2.0,2.0,0.0,6.0,6.0,1036.7190860001756,8.0,1.0,phase_2,go,1050.0,1000.0,1.0,,,,,,,,,white,flipped triangle
0.0,5.0,1.0,1.0,5.0,0.0,0.0,8.0,1.0,phase_2,stop,1050.0,1000.0,4.0,,,,,,,,,cyan,I
0.0,6.0,2.0,1.0,6.0,0.0,0.0,8.0,1.0,phase_2,go,1100.0,1000.0,5.0,,,,,,,,,gray,cross
0.0,4.0,4.0,0.0,5.0,5.0,1372.9269830000703,8.0,1.0,phase_2,go,1100.0,1000.0,1.0,,,,,,,,,orange,hexagon
0.0,4.0,4.0,0.0,6.0,6.0,931.7202510001152,8.0,1.0,phase_2,go,1100.0,1000.0,1.0,,,,,,,,,orange,hexagon
0.0,4.0,4.0,0.0,5.0,5.0,770.748415000071,8.0,1.0,phase_2,go,1100.0,1000.0,1.0,,,,,,,,,orange,hexagon
0.0,8.0,4.0,1.0,7.0,3.0,946.5072890002376,1.0,2.0,phase_3,,,,,117.0,3.0,39.0,78.0,117.0,195.0,234.0,156.0,yellow,circle
0.0,1.0,1.0,0.0,7.0,5.0,4198.07847400034,1.0,1.0,phase_3,,,,,68.0,2.0,102.0,34.0,204.0,136.0,68.0,170.0,green,diamond
0.0,8.0,4.0,1.0,7.0,6.0,4346.610517000045,1.0,3.0,phase_3,,,,,264.0,6.0,220.0,176.0,44.0,132.0,88.0,264.0,yellow,circle
0.0,3.0,3.0,0.0,7.0,2.0,2890.722438000012,1.0,1.0,phase_3,,,,,294.0,6.0,245.0,294.0,196.0,147.0,98.0,49.0,blue,square
0.0,6.0,2.0,1.0,7.0,2.0,1806.2525440000168,1.0,1.0,phase_3,,,,,204.0,6.0,136.0,204.0,102.0,170.0,68.0,34.0,gray,cross
0.0,5.0,1.0,1.0,7.0,5.0,2801.9141139998283,1.0,2.0,phase_3,,,,,264.0,6.0,88.0,132.0,44.0,220.0,264.0,176.0,cyan,I
0.0,2.0,2.0,0.0,7.0,5.0,4448.782298999959,1.0,1.0,phase_3,,,,,102.0,3.0,68.0,170.0,136.0,204.0,102.0,34.0,white,flipped triangle
0.0,5.0,1.0,1.0,7.0,2.0,2639.454433000082,1.0,1.0,phase_3,,,,,216.0,4.0,324.0,216.0,270.0,108.0,162.0,54.0,cyan,I
0.0,4.0,4.0,0.0,7.0,2.0,2906.0249220001424,1.0,1.0,phase_3,,,,,270.0,5.0,162.0,270.0,324.0,54.0,216.0,108.0,orange,hexagon
0.0,2.0,2.0,0.0,7.0,5.0,1919.3468580001536,1.0,1.0,phase_3,,,,,204.0,6.0,102.0,136.0,170.0,34.0,204.0,68.0,white,flipped triangle
0.0,2.0,2.0,0.0,7.0,6.0,1633.761032000166,1.0,1.0,phase_3,,,,,324.0,6.0,54.0,162.0,270.0,108.0,216.0,324.0,white,flipped triangle
0.0,2.0,2.0,0.0,7.0,4.0,2774.3784929998583,1.0,1.0,phase_3,,,,,264.0,6.0,88.0,220.0,132.0,264.0,44.0,176.0,white,flipped triangle
0.0,3.0,3.0,0.0,7.0,6.0,1959.078765999948,1.0,1.0,phase_3,,,,,170.0,5.0,68.0,34.0,136.0,102.0,204.0,170.0,blue,square
0.0,2.0,2.0,0.0,7.0,4.0,1775.710837000133,1.0,1.0,phase_3,,,,,195.0,5.0,156.0,234.0,39.0,195.0,78.0,117.0,white,flipped triangle
0.0,3.0,3.0,0.0,7.0,3.0,2342.5899399999253,1.0,1.0,phase_3,,,,,264.0,6.0,88.0,220.0,264.0,44.0,132.0,176.0,blue,square
0.0,1.0,1.0,0.0,7.0,4.0,2143.9239729998008,1.0,1.0,phase_3,,,,,324.0,6.0,216.0,162.0,54.0,324.0,108.0,270.0,green,diamond
0.0,5.0,1.0,1.0,7.0,4.0,2465.114370000265,1.0,1.0,phase_3,,,,,245.0,5.0,49.0,294.0,147.0,245.0,196.0,98.0,cyan,I
0.0,5.0,1.0,1.0,7.0,3.0,1371.2513180003043,1.0,1.0,phase_3,,,,,234.0,6.0,117.0,195.0,234.0,156.0,78.0,39.0,cyan,I
0.0,3.0,3.0,0.0,7.0,6.0,2571.8654800002696,1.0,1.0,phase_3,,,,,195.0,5.0,234.0,39.0,78.0,156.0,117.0,195.0,blue,square
0.0,7.0,3.0,1.0,7.0,3.0,1255.47732799987,1.0,1.0,phase_3,,,,,234.0,6.0,39.0,156.0,234.0,117.0,78.0,195.0,magenta,triangle
0.0,4.0,4.0,0.0,7.0,6.0,2640.587466999932,2.0,1.0,phase_3,,,,,204.0,6.0,136.0,102.0,170.0,34.0,68.0,204.0,orange,hexagon
0.0,4.0,4.0,0.0,7.0,5.0,2272.0803060001344,2.0,1.0,phase_3,,,,,264.0,6.0,88.0,44.0,132.0,220.0,264.0,176.0,orange,hexagon
0.0,3.0,3.0,0.0,7.0,3.0,1649.4918199996391,2.0,1.0,phase_3,,,,,324.0,6.0,54.0,162.0,324.0,270.0,108.0,216.0,blue,square
0.0,6.0,2.0,1.0,7.0,5.0,1444.0967319997071,2.0,1.0,phase_3,,,,,234.0,6.0,156.0,78.0,117.0,195.0,234.0,39.0,gray,cross
0.0,6.0,2.0,1.0,7.0,4.0,1278.0640969999697,2.0,1.0,phase_3,,,,,324.0,6.0,216.0,54.0,108.0,324.0,162.0,270.0,gray,cross
0.0,5.0,1.0,1.0,7.0,4.0,1447.3733830000128,2.0,1.0,phase_3,,,,,220.0,5.0,88.0,176.0,44.0,220.0,264.0,132.0,cyan,I
0.0,1.0,1.0,0.0,7.0,5.0,1398.0026409999482,2.0,1.0,phase_3,,,,,220.0,5.0,176.0,132.0,264.0,44.0,220.0,88.0,green,diamond
0.0,8.0,4.0,1.0,7.0,3.0,1926.173667000057,2.0,1.0,phase_3,,,,,270.0,5.0,324.0,108.0,270.0,54.0,216.0,162.0,yellow,circle
0.0,8.0,4.0,1.0,7.0,2.0,2338.2971519999955,2.0,1.0,phase_3,,,,,170.0,5.0,136.0,170.0,102.0,204.0,34.0,68.0,yellow,circle
0.0,8.0,4.0,1.0,7.0,3.0,1525.103244000093,2.0,1.0,phase_3,,,,,294.0,6.0,245.0,98.0,294.0,49.0,196.0,147.0,yellow,circle
0.0,7.0,3.0,1.0,7.0,5.0,1510.32897199957,2.0,1.0,phase_3,,,,,132.0,3.0,264.0,44.0,176.0,88.0,132.0,220.0,magenta,triangle
0.0,2.0,2.0,0.0,7.0,4.0,1447.766578000028,2.0,1.0,phase_3,,,,,39.0,1.0,234.0,195.0,78.0,39.0,117.0,156.0,white,flipped triangle
0.0,6.0,2.0,1.0,7.0,5.0,1918.208052999944,2.0,1.0,phase_3,,,,,44.0,1.0,88.0,176.0,132.0,264.0,44.0,220.0,gray,cross
0.0,4.0,4.0,0.0,7.0,6.0,4359.424127999773,2.0,1.0,phase_3,,,,,156.0,4.0,195.0,78.0,234.0,39.0,117.0,156.0,orange,hexagon
0.0,6.0,2.0,1.0,7.0,6.0,2857.8771469997264,2.0,1.0,phase_3,,,,,204.0,6.0,34.0,68.0,102.0,170.0,136.0,204.0,gray,cross
0.0,3.0,3.0,0.0,7.0,4.0,1410.6622599997536,2.0,1.0,phase_3,,,,,196.0,4.0,98.0,147.0,49.0,196.0,245.0,294.0,blue,square
0.0,7.0,3.0,1.0,7.0,3.0,1125.0158520001603,2.0,1.0,phase_3,,,,,136.0,4.0,102.0,34.0,136.0,170.0,204.0,68.0,magenta,triangle
0.0,2.0,2.0,0.0,7.0,3.0,811.8544410003778,2.0,1.0,phase_3,,,,,324.0,6.0,270.0,108.0,324.0,54.0,216.0,162.0,white,flipped triangle
0.0,6.0,2.0,1.0,7.0,5.0,2108.5349559998576,2.0,1.0,phase_3,,,,,294.0,6.0,98.0,147.0,245.0,49.0,294.0,196.0,gray,cross
0.0,1.0,1.0,0.0,7.0,5.0,2007.81886599998,2.0,1.0,phase_3,,,,,195.0,5.0,78.0,156.0,117.0,39.0,195.0,234.0,green,diamond
0.0,5.0,1.0,1.0,7.0,5.0,1654.6791790001407,3.0,1.0,phase_3,,,,,245.0,5.0,196.0,49.0,147.0,294.0,245.0,98.0,cyan,I
0.0,3.0,3.0,0.0,7.0,4.0,2392.6365769998483,3.0,1.0,phase_3,,,,,156.0,4.0,195.0,234.0,78.0,156.0,39.0,117.0,blue,square
0.0,1.0,1.0,0.0,7.0,4.0,1511.550468999758,3.0,1.0,phase_3,,,,,204.0,6.0,34.0,68.0,102.0,204.0,170.0,136.0,green,diamond
0.0,7.0,3.0,1.0,7.0,3.0,1802.5166190000164,3.0,1.0,phase_3,,,,,170.0,5.0,136.0,204.0,170.0,68.0,34.0,102.0,magenta,triangle
0.0,2.0,2.0,0.0,7.0,4.0,2738.7560280003527,3.0,1.0,phase_3,,,,,147.0,3.0,98.0,294.0,245.0,147.0,49.0,196.0,white,flipped triangle
0.0,1.0,1.0,0.0,7.0,2.0,1964.5225879999089,3.0,1.0,phase_3,,,,,196.0,4.0,245.0,196.0,294.0,147.0,98.0,49.0,green,diamond
0.0,5.0,1.0,1.0,7.0,6.0,2192.38786599999,3.0,1.0,phase_3,,,,,68.0,2.0,102.0,204.0,34.0,170.0,136.0,68.0,cyan,I
0.0,7.0,3.0,1.0,7.0,4.0,1256.9349919999695,3.0,1.0,phase_3,,,,,156.0,4.0,234.0,39.0,78.0,156.0,117.0,195.0,magenta,triangle
0.0,1.0,1.0,0.0,7.0,5.0,2371.153396999944,3.0,1.0,phase_3,,,,,195.0,5.0,117.0,234.0,39.0,78.0,195.0,156.0,green,diamond
0.0,8.0,4.0,1.0,7.0,2.0,1681.459425999947,3.0,1.0,phase_3,,,,,204.0,6.0,34.0,204.0,102.0,136.0,68.0,170.0,yellow,circle
0.0,3.0,3.0,0.0,7.0,1.0,2763.540771999942,3.0,1.0,phase_3,,,,,220.0,5.0,220.0,264.0,132.0,44.0,88.0,176.0,blue,square
0.0,6.0,2.0,1.0,7.0,1.0,1852.4489800001904,3.0,1.0,phase_3,,,,,156.0,4.0,156.0,195.0,234.0,39.0,117.0,78.0,gray,cross
0.0,3.0,3.0,0.0,7.0,3.0,1717.1483549996085,3.0,1.0,phase_3,,,,,136.0,4.0,68.0,34.0,136.0,102.0,170.0,204.0,blue,square
0.0,8.0,4.0,1.0,7.0,6.0,2425.718507000056,3.0,1.0,phase_3,,,,,245.0,5.0,196.0,294.0,98.0,49.0,147.0,245.0,yellow,circle
0.0,1.0,1.0,0.0,7.0,5.0,1760.873490999984,3.0,1.0,phase_3,,,,,294.0,6.0,196.0,98.0,147.0,245.0,294.0,49.0,green,diamond
0.0,8.0,4.0,1.0,7.0,5.0,1083.3541590000095,3.0,1.0,phase_3,,,,,234.0,6.0,117.0,195.0,78.0,39.0,234.0,156.0,yellow,circle
0.0,2.0,2.0,0.0,7.0,3.0,1243.494149000071,3.0,1.0,phase_3,,,,,294.0,6.0,147.0,245.0,294.0,98.0,49.0,196.0,white,flipped triangle
0.0,8.0,4.0,1.0,7.0,5.0,1222.059457999876,3.0,1.0,phase_3,,,,,176.0,4.0,44.0,132.0,88.0,220.0,176.0,264.0,yellow,circle
0.0,4.0,4.0,0.0,7.0,5.0,1216.0656949999975,3.0,1.0,phase_3,,,,,294.0,6.0,196.0,49.0,98.0,147.0,294.0,245.0,orange,hexagon
0.0,8.0,4.0,1.0,7.0,4.0,2538.7538269997094,3.0,1.0,phase_3,,,,,216.0,4.0,108.0,162.0,54.0,216.0,270.0,324.0,yellow,circle
0.0,7.0,3.0,1.0,7.0,2.0,3452.4675439997736,4.0,1.0,phase_3,,,,,324.0,6.0,270.0,324.0,216.0,54.0,108.0,162.0,magenta,triangle
0.0,4.0,4.0,0.0,7.0,5.0,1404.9939750002522,4.0,1.0,phase_3,,,,,170.0,5.0,136.0,34.0,68.0,204.0,170.0,102.0,orange,hexagon
0.0,1.0,1.0,0.0,7.0,4.0,679.9070299998675,4.0,1.0,phase_3,,,,,220.0,5.0,88.0,132.0,264.0,220.0,176.0,44.0,green,diamond
0.0,2.0,2.0,0.0,7.0,5.0,749.6647880002456,4.0,1.0,phase_3,,,,,264.0,6.0,44.0,132.0,88.0,220.0,264.0,176.0,white,flipped triangle
0.0,6.0,2.0,1.0,7.0,6.0,903.6973899997064,4.0,1.0,phase_3,,,,,220.0,5.0,44.0,88.0,264.0,176.0,132.0,220.0,gray,cross
0.0,5.0,1.0,1.0,7.0,4.0,123.2651479999731,4.0,1.0,phase_3,,,,,195.0,5.0,39.0,156.0,234.0,195.0,78.0,117.0,cyan,I
0.0,4.0,4.0,0.0,7.0,2.0,1626.830492999943,4.0,1.0,phase_3,,,,,270.0,5.0,162.0,270.0,54.0,108.0,324.0,216.0,orange,hexagon
0.0,5.0,1.0,1.0,7.0,2.0,1158.954422000079,4.0,1.0,phase_3,,,,,324.0,6.0,216.0,324.0,270.0,54.0,108.0,162.0,cyan,I
0.0,7.0,3.0,1.0,7.0,2.0,1670.8349730001828,4.0,1.0,phase_3,,,,,132.0,3.0,44.0,132.0,264.0,220.0,176.0,88.0,magenta,triangle
0.0,1.0,1.0,0.0,7.0,4.0,1465.028681000149,4.0,1.0,phase_3,,,,,324.0,6.0,270.0,54.0,216.0,324.0,108.0,162.0,green,diamond
0.0,4.0,4.0,0.0,7.0,4.0,1065.646925999772,4.0,1.0,phase_3,,,,,44.0,1.0,132.0,264.0,88.0,44.0,176.0,220.0,orange,hexagon
0.0,5.0,1.0,1.0,7.0,2.0,0.1740070001687,4.0,1.0,phase_3,,,,,204.0,6.0,136.0,204.0,34.0,68.0,102.0,170.0,cyan,I
0.0,4.0,4.0,0.0,7.0,5.0,2100.337572999706,4.0,1.0,phase_3,,,,,39.0,1.0,156.0,195.0,117.0,78.0,39.0,234.0,orange,hexagon
0.0,7.0,3.0,1.0,7.0,2.0,1988.808106999841,4.0,1.0,phase_3,,,,,294.0,6.0,49.0,294.0,98.0,196.0,245.0,147.0,magenta,triangle
0.0,7.0,3.0,1.0,7.0,2.0,860.6955180002842,4.0,1.0,phase_3,,,,,270.0,5.0,54.0,270.0,216.0,162.0,108.0,324.0,magenta,triangle
0.0,6.0,2.0,1.0,7.0,5.0,1160.0207370001954,4.0,1.0,phase_3,,,,,324.0,6.0,270.0,216.0,162.0,54.0,324.0,108.0,gray,cross
0.0,7.0,3.0,1.0,7.0,2.0,1920.956839000155,4.0,1.0,phase_3,,,,,147.0,3.0,49.0,147.0,294.0,196.0,98.0,245.0,magenta,triangle
0.0,3.0,3.0,0.0,7.0,4.0,1859.798399000283,4.0,1.0,phase_3,,,,,54.0,1.0,162.0,270.0,324.0,54.0,216.0,108.0,blue,square
0.0,4.0,4.0,0.0,7.0,4.0,1308.3957470003045,4.0,1.0,phase_3,,,,,49.0,1.0,98.0,245.0,147.0,49.0,294.0,196.0,orange,hexagon
0.0,6.0,2.0,1.0,7.0,5.0,870.5754520001392,4.0,1.0,phase_3,,,,,245.0,5.0,196.0,98.0,49.0,294.0,245.0,147.0,gray,cross
