raw_reward_magnitude,stim_reward,stepwise_reward_magnitude,paired_with_stopping,stim_location,response,reaction_time,block,num_trial_presentations,which_phase,stop_signal_trial_type,left_SSD,right_SSD,accuracy,chosen_bidding_amount,chosen_bidding_level,possible_bid_1,possible_bid_2,possible_bid_3,possible_bid_4,possible_bid_5,possible_bid_6,color_text,shape_text
213.0,7.0,2.0,1.0,1.0,1.0,380.719439999666,1.0,1.0,phase_1,,,,,,,,,,,,,magenta,triangle
414.0,4.0,4.0,0.0,1.0,1.0,361.0216210072394,1.0,1.0,phase_1,,,,,,,,,,,,,orange,circle
109.0,2.0,1.0,0.0,2.0,2.0,414.9149930162821,1.0,1.0,phase_1,,,,,,,,,,,,,gray,hexagon
88.0,6.0,1.0,1.0,2.0,2.0,363.3579470042605,1.0,1.0,phase_1,,,,,,,,,,,,,white,cross
189.0,7.0,2.0,1.0,4.0,4.0,310.8918899961281,1.0,1.0,phase_1,,,,,,,,,,,,,magenta,triangle
221.0,7.0,2.0,1.0,2.0,2.0,337.4361000023782,1.0,1.0,phase_1,,,,,,,,,,,,,magenta,triangle
113.0,2.0,1.0,0.0,4.0,4.0,352.8064949787222,1.0,1.0,phase_1,,,,,,,,,,,,,gray,hexagon
0.0,3.0,0.0,0.0,4.0,4.0,316.2649139994755,1.0,1.0,phase_1,,,,,,,,,,,,,green,flipped triangle
62.0,1.0,0.5,0.0,4.0,4.0,336.2332160177175,1.0,1.0,phase_1,,,,,,,,,,,,,yellow,diamond
425.0,4.0,4.0,0.0,2.0,2.0,295.5375299789011,1.0,1.0,phase_1,,,,,,,,,,,,,orange,circle
0.0,6.0,0.0,1.0,2.0,2.0,340.8043939853087,1.0,1.0,phase_1,,,,,,,,,,,,,white,cross
65.0,5.0,0.5,1.0,2.0,2.0,328.299196989974,1.0,1.0,phase_1,,,,,,,,,,,,,cyan,I
213.0,7.0,2.0,1.0,4.0,4.0,331.299373996444,1.0,1.0,phase_1,,,,,,,,,,,,,magenta,triangle
392.0,4.0,4.0,0.0,4.0,4.0,313.1836609973106,1.0,1.0,phase_1,,,,,,,,,,,,,orange,circle
66.0,1.0,0.5,0.0,3.0,3.0,308.4682039916515,1.0,1.0,phase_1,,,,,,,,,,,,,yellow,diamond
74.0,1.0,0.5,0.0,4.0,4.0,274.0318829892203,1.0,1.0,phase_1,,,,,,,,,,,,,yellow,diamond
401.0,8.0,4.0,1.0,3.0,3.0,280.1551809825469,1.0,1.0,phase_1,,,,,,,,,,,,,blue,square
0.0,5.0,0.0,1.0,1.0,1.0,323.9689529873431,1.0,1.0,phase_1,,,,,,,,,,,,,cyan,I
397.0,8.0,4.0,1.0,4.0,4.0,306.6303440136835,1.0,1.0,phase_1,,,,,,,,,,,,,blue,square
203.0,7.0,2.0,1.0,3.0,3.0,334.9016649881378,1.0,1.0,phase_1,,,,,,,,,,,,,magenta,triangle
99.0,2.0,1.0,0.0,4.0,4.0,352.0700120134279,1.0,1.0,phase_1,,,,,,,,,,,,,gray,hexagon
0.0,8.0,0.0,1.0,2.0,2.0,478.3902379858773,1.0,1.0,phase_1,,,,,,,,,,,,,blue,square
187.0,7.0,2.0,1.0,2.0,2.0,340.4215430200565,1.0,1.0,phase_1,,,,,,,,,,,,,magenta,triangle
108.0,2.0,1.0,0.0,1.0,1.0,270.644538977649,1.0,1.0,phase_1,,,,,,,,,,,,,gray,hexagon
0.0,5.0,0.0,1.0,3.0,3.0,323.4834210015833,1.0,1.0,phase_1,,,,,,,,,,,,,cyan,I
215.0,3.0,2.0,0.0,1.0,1.0,307.074039010331,1.0,1.0,phase_1,,,,,,,,,,,,,green,flipped triangle
425.0,8.0,4.0,1.0,3.0,3.0,319.866183999693,1.0,1.0,phase_1,,,,,,,,,,,,,blue,square
52.0,5.0,0.5,1.0,4.0,4.0,290.9354580042418,1.0,1.0,phase_1,,,,,,,,,,,,,cyan,I
200.0,3.0,2.0,0.0,3.0,3.0,361.5091249812394,1.0,1.0,phase_1,,,,,,,,,,,,,green,flipped triangle
384.0,8.0,4.0,1.0,4.0,4.0,315.8819109958131,1.0,1.0,phase_1,,,,,,,,,,,,,blue,square
63.0,5.0,0.5,1.0,1.0,1.0,310.8787279925309,1.0,1.0,phase_1,,,,,,,,,,,,,cyan,I
413.0,4.0,4.0,0.0,3.0,3.0,307.2539870045148,1.0,1.0,phase_1,,,,,,,,,,,,,orange,circle
221.0,7.0,2.0,1.0,1.0,1.0,266.6904630023055,1.0,1.0,phase_1,,,,,,,,,,,,,magenta,triangle
124.0,2.0,1.0,0.0,2.0,2.0,428.6993299901951,1.0,2.0,phase_1,,,,,,,,,,,,,gray,hexagon
182.0,3.0,2.0,0.0,1.0,1.0,406.0411679965909,1.0,1.0,phase_1,,,,,,,,,,,,,green,flipped triangle
183.0,3.0,2.0,0.0,1.0,1.0,371.6629690025002,1.0,1.0,phase_1,,,,,,,,,,,,,green,flipped triangle
212.0,3.0,2.0,0.0,3.0,3.0,352.7873189887032,1.0,1.0,phase_1,,,,,,,,,,,,,green,flipped triangle
100.0,6.0,1.0,1.0,1.0,1.0,349.0033489943016,1.0,1.0,phase_1,,,,,,,,,,,,,white,cross
418.0,4.0,4.0,0.0,3.0,3.0,340.0226779922377,1.0,1.0,phase_1,,,,,,,,,,,,,orange,circle
43.0,1.0,0.5,0.0,3.0,3.0,353.6204720148816,1.0,1.0,phase_1,,,,,,,,,,,,,yellow,diamond
121.0,2.0,1.0,0.0,4.0,4.0,340.7164689851925,1.0,1.0,phase_1,,,,,,,,,,,,,gray,hexagon
96.0,6.0,1.0,1.0,3.0,3.0,336.4864549948834,1.0,1.0,phase_1,,,,,,,,,,,,,white,cross
86.0,2.0,1.0,0.0,3.0,3.0,341.6572200076189,1.0,1.0,phase_1,,,,,,,,,,,,,gray,hexagon
0.0,4.0,0.0,0.0,4.0,4.0,384.5399740093853,1.0,1.0,phase_1,,,,,,,,,,,,,orange,circle
0.0,4.0,0.0,0.0,4.0,4.0,389.0421540127136,1.0,1.0,phase_1,,,,,,,,,,,,,orange,circle
56.0,1.0,0.5,0.0,1.0,1.0,413.4640990232583,1.0,1.0,phase_1,,,,,,,,,,,,,yellow,diamond
413.0,4.0,4.0,0.0,3.0,3.0,326.343413995346,1.0,1.0,phase_1,,,,,,,,,,,,,orange,circle
41.0,5.0,0.5,1.0,1.0,1.0,388.6620409903116,1.0,1.0,phase_1,,,,,,,,,,,,,cyan,I
43.0,1.0,0.5,0.0,1.0,1.0,537.6004859863315,1.0,1.0,phase_1,,,,,,,,,,,,,yellow,diamond
0.0,6.0,0.0,1.0,2.0,2.0,484.8250180075411,1.0,1.0,phase_1,,,,,,,,,,,,,white,cross
53.0,5.0,0.5,1.0,3.0,3.0,561.4102550025564,1.0,1.0,phase_1,,,,,,,,,,,,,cyan,I
404.0,4.0,4.0,0.0,3.0,3.0,473.0716859921813,1.0,1.0,phase_1,,,,,,,,,,,,,orange,circle
414.0,8.0,4.0,1.0,3.0,3.0,474.4826199894305,1.0,1.0,phase_1,,,,,,,,,,,,,blue,square
86.0,6.0,1.0,1.0,4.0,4.0,448.6343629832845,1.0,1.0,phase_1,,,,,,,,,,,,,white,cross
78.0,2.0,1.0,0.0,1.0,1.0,389.8521160008386,1.0,1.0,phase_1,,,,,,,,,,,,,gray,hexagon
196.0,3.0,2.0,0.0,2.0,2.0,472.5999369984492,1.0,1.0,phase_1,,,,,,,,,,,,,green,flipped triangle
81.0,2.0,1.0,0.0,2.0,2.0,399.5184660016093,1.0,1.0,phase_1,,,,,,,,,,,,,gray,hexagon
212.0,7.0,2.0,1.0,2.0,2.0,541.2910160084721,1.0,1.0,phase_1,,,,,,,,,,,,,magenta,triangle
94.0,2.0,1.0,0.0,2.0,2.0,465.7432640087791,1.0,1.0,phase_1,,,,,,,,,,,,,gray,hexagon
203.0,3.0,2.0,0.0,4.0,4.0,739.4055589975324,1.0,1.0,phase_1,,,,,,,,,,,,,green,flipped triangle
39.0,1.0,0.5,0.0,4.0,4.0,328.979187994264,1.0,1.0,phase_1,,,,,,,,,,,,,yellow,diamond
186.0,3.0,2.0,0.0,4.0,4.0,357.3491680144798,1.0,1.0,phase_1,,,,,,,,,,,,,green,flipped triangle
404.0,8.0,4.0,1.0,4.0,4.0,356.3304530107416,1.0,1.0,phase_1,,,,,,,,,,,,,blue,square
407.0,8.0,4.0,1.0,1.0,1.0,370.026421995135,1.0,1.0,phase_1,,,,,,,,,,,,,blue,square
98.0,2.0,1.0,0.0,4.0,4.0,373.0609309859574,1.0,1.0,phase_1,,,,,,,,,,,,,gray,hexagon
41.0,1.0,0.5,0.0,1.0,1.0,386.2202569725923,1.0,1.0,phase_1,,,,,,,,,,,,,yellow,diamond
0.0,5.0,0.0,1.0,4.0,4.0,412.7931780240033,1.0,1.0,phase_1,,,,,,,,,,,,,cyan,I
378.0,8.0,4.0,1.0,1.0,1.0,395.2278490178287,1.0,1.0,phase_1,,,,,,,,,,,,,blue,square
0.0,4.0,0.0,0.0,2.0,2.0,389.7027139901183,1.0,1.0,phase_1,,,,,,,,,,,,,orange,circle
46.0,1.0,0.5,0.0,3.0,3.0,364.2787919961847,1.0,1.0,phase_1,,,,,,,,,,,,,yellow,diamond
107.0,6.0,1.0,1.0,3.0,3.0,393.767448986182,1.0,1.0,phase_1,,,,,,,,,,,,,white,cross
402.0,4.0,4.0,0.0,2.0,2.0,423.5660140111577,1.0,1.0,phase_1,,,,,,,,,,,,,orange,circle
420.0,8.0,4.0,1.0,3.0,3.0,392.2456210129894,1.0,1.0,phase_1,,,,,,,,,,,,,blue,square
216.0,7.0,2.0,1.0,3.0,3.0,360.4076899937354,1.0,1.0,phase_1,,,,,,,,,,,,,magenta,triangle
0.0,8.0,0.0,1.0,4.0,4.0,339.715091016842,1.0,1.0,phase_1,,,,,,,,,,,,,blue,square
0.0,1.0,0.0,0.0,1.0,1.0,329.5778449974023,1.0,1.0,phase_1,,,,,,,,,,,,,yellow,diamond
0.0,1.0,0.0,0.0,1.0,1.0,515.9993149864022,1.0,1.0,phase_1,,,,,,,,,,,,,yellow,diamond
219.0,7.0,2.0,1.0,3.0,3.0,508.0609460128471,1.0,1.0,phase_1,,,,,,,,,,,,,magenta,triangle
407.0,4.0,4.0,0.0,1.0,1.0,462.450507999165,1.0,1.0,phase_1,,,,,,,,,,,,,orange,circle
123.0,6.0,1.0,1.0,3.0,3.0,364.9271289759781,1.0,1.0,phase_1,,,,,,,,,,,,,white,cross
191.0,3.0,2.0,0.0,3.0,3.0,384.9155940115452,1.0,1.0,phase_1,,,,,,,,,,,,,green,flipped triangle
0.0,2.0,0.0,0.0,4.0,4.0,595.1743689947762,1.0,1.0,phase_1,,,,,,,,,,,,,gray,hexagon
102.0,2.0,1.0,0.0,4.0,4.0,519.7411540139001,1.0,1.0,phase_1,,,,,,,,,,,,,gray,hexagon
62.0,5.0,0.5,1.0,1.0,1.0,373.134679015493,1.0,1.0,phase_1,,,,,,,,,,,,,cyan,I
99.0,6.0,1.0,1.0,1.0,1.0,497.5015110103413,1.0,1.0,phase_1,,,,,,,,,,,,,white,cross
88.0,2.0,1.0,0.0,1.0,1.0,517.4950469809119,1.0,1.0,phase_1,,,,,,,,,,,,,gray,hexagon
0.0,6.0,0.0,1.0,3.0,3.0,390.1759779837448,1.0,1.0,phase_1,,,,,,,,,,,,,white,cross
418.0,4.0,4.0,0.0,2.0,2.0,466.3576470047701,1.0,1.0,phase_1,,,,,,,,,,,,,orange,circle
382.0,4.0,4.0,0.0,2.0,2.0,459.4172050128691,1.0,1.0,phase_1,,,,,,,,,,,,,orange,circle
405.0,4.0,4.0,0.0,2.0,2.0,377.8688450111076,1.0,1.0,phase_1,,,,,,,,,,,,,orange,circle
0.0,5.0,0.0,1.0,3.0,3.0,550.325479998719,1.0,1.0,phase_1,,,,,,,,,,,,,cyan,I
392.0,8.0,4.0,1.0,4.0,4.0,563.3250620157924,1.0,1.0,phase_1,,,,,,,,,,,,,blue,square
72.0,1.0,0.5,0.0,2.0,2.0,334.6508599934168,1.0,1.0,phase_1,,,,,,,,,,,,,yellow,diamond
34.0,1.0,0.5,0.0,2.0,2.0,418.3616010122932,1.0,1.0,phase_1,,,,,,,,,,,,,yellow,diamond
201.0,7.0,2.0,1.0,2.0,2.0,439.136058994336,1.0,1.0,phase_1,,,,,,,,,,,,,magenta,triangle
197.0,3.0,2.0,0.0,1.0,1.0,676.1770239972975,1.0,1.0,phase_1,,,,,,,,,,,,,green,flipped triangle
388.0,4.0,4.0,0.0,3.0,3.0,433.3601340185851,1.0,1.0,phase_1,,,,,,,,,,,,,orange,circle
376.0,4.0,4.0,0.0,1.0,1.0,373.6213100200984,1.0,1.0,phase_1,,,,,,,,,,,,,orange,circle
0.0,7.0,0.0,1.0,3.0,3.0,421.9413939863443,1.0,1.0,phase_1,,,,,,,,,,,,,magenta,triangle
213.0,3.0,2.0,0.0,4.0,4.0,434.7048189956695,1.0,1.0,phase_1,,,,,,,,,,,,,green,flipped triangle
29.0,1.0,0.5,0.0,2.0,2.0,464.2260559776332,2.0,1.0,phase_1,,,,,,,,,,,,,yellow,diamond
122.0,2.0,1.0,0.0,3.0,3.0,377.4842300044838,2.0,1.0,phase_1,,,,,,,,,,,,,gray,hexagon
0.0,3.0,0.0,0.0,1.0,1.0,312.104720971547,2.0,1.0,phase_1,,,,,,,,,,,,,green,flipped triangle
65.0,5.0,0.5,1.0,1.0,1.0,390.663197991671,2.0,1.0,phase_1,,,,,,,,,,,,,cyan,I
0.0,4.0,0.0,0.0,4.0,4.0,431.618863978656,2.0,1.0,phase_1,,,,,,,,,,,,,orange,circle
0.0,7.0,0.0,1.0,2.0,2.0,341.2477960227988,2.0,1.0,phase_1,,,,,,,,,,,,,magenta,triangle
382.0,8.0,4.0,1.0,1.0,1.0,316.49383000331,2.0,1.0,phase_1,,,,,,,,,,,,,blue,square
0.0,1.0,0.0,0.0,4.0,4.0,512.5671809946653,2.0,1.0,phase_1,,,,,,,,,,,,,yellow,diamond
383.0,4.0,4.0,0.0,3.0,3.0,506.67387701105326,2.0,1.0,phase_1,,,,,,,,,,,,,orange,circle
64.0,5.0,0.5,1.0,2.0,2.0,544.6742739877664,2.0,1.0,phase_1,,,,,,,,,,,,,cyan,I
224.0,3.0,2.0,0.0,1.0,1.0,483.4592470142524,2.0,1.0,phase_1,,,,,,,,,,,,,green,flipped triangle
389.0,4.0,4.0,0.0,2.0,2.0,618.9431759994477,2.0,1.0,phase_1,,,,,,,,,,,,,orange,circle
54.0,5.0,0.5,1.0,4.0,4.0,456.9080969959032,2.0,1.0,phase_1,,,,,,,,,,,,,cyan,I
196.0,7.0,2.0,1.0,3.0,3.0,481.6679079958703,2.0,1.0,phase_1,,,,,,,,,,,,,magenta,triangle
380.0,8.0,4.0,1.0,2.0,2.0,390.83120701252477,2.0,1.0,phase_1,,,,,,,,,,,,,blue,square
30.0,1.0,0.5,0.0,4.0,4.0,404.2026020179037,2.0,1.0,phase_1,,,,,,,,,,,,,yellow,diamond
27.0,5.0,0.5,1.0,3.0,3.0,559.9257189896889,2.0,1.0,phase_1,,,,,,,,,,,,,cyan,I
423.0,8.0,4.0,1.0,4.0,4.0,312.6152869954239,2.0,1.0,phase_1,,,,,,,,,,,,,blue,square
402.0,8.0,4.0,1.0,2.0,2.0,600.7504550216254,2.0,1.0,phase_1,,,,,,,,,,,,,blue,square
0.0,1.0,0.0,0.0,2.0,2.0,384.9194679933134,2.0,1.0,phase_1,,,,,,,,,,,,,yellow,diamond
81.0,6.0,1.0,1.0,2.0,2.0,389.5071109873242,2.0,1.0,phase_1,,,,,,,,,,,,,white,cross
408.0,4.0,4.0,0.0,1.0,1.0,529.0829890000168,2.0,1.0,phase_1,,,,,,,,,,,,,orange,circle
0.0,4.0,0.0,0.0,2.0,2.0,646.193892986048,2.0,1.0,phase_1,,,,,,,,,,,,,orange,circle
0.0,6.0,0.0,1.0,2.0,2.0,520.3209150058683,2.0,1.0,phase_1,,,,,,,,,,,,,white,cross
0.0,4.0,0.0,0.0,1.0,1.0,896.3823399972171,2.0,1.0,phase_1,,,,,,,,,,,,,orange,circle
186.0,7.0,2.0,1.0,3.0,3.0,585.6023259984795,2.0,1.0,phase_1,,,,,,,,,,,,,magenta,triangle
189.0,3.0,2.0,0.0,2.0,2.0,768.3708810072858,2.0,1.0,phase_1,,,,,,,,,,,,,green,flipped triangle
0.0,1.0,0.0,0.0,4.0,4.0,348.2744839857332,2.0,1.0,phase_1,,,,,,,,,,,,,yellow,diamond
0.0,4.0,0.0,0.0,2.0,2.0,595.1558149827179,2.0,1.0,phase_1,,,,,,,,,,,,,orange,circle
42.0,5.0,0.5,1.0,4.0,4.0,414.8160589975305,2.0,1.0,phase_1,,,,,,,,,,,,,cyan,I
48.0,1.0,0.5,0.0,4.0,4.0,453.4606049710419,2.0,1.0,phase_1,,,,,,,,,,,,,yellow,diamond
420.0,4.0,4.0,0.0,4.0,4.0,344.9885459849611,2.0,1.0,phase_1,,,,,,,,,,,,,orange,circle
0.0,4.0,0.0,0.0,1.0,1.0,442.8904950036667,2.0,1.0,phase_1,,,,,,,,,,,,,orange,circle
43.0,5.0,0.5,1.0,3.0,3.0,377.8734039806295,2.0,1.0,phase_1,,,,,,,,,,,,,cyan,I
109.0,6.0,1.0,1.0,4.0,4.0,542.0343469886575,2.0,1.0,phase_1,,,,,,,,,,,,,white,cross
0.0,2.0,0.0,0.0,4.0,4.0,465.4462290054653,2.0,1.0,phase_1,,,,,,,,,,,,,gray,hexagon
418.0,8.0,4.0,1.0,2.0,2.0,574.1407799941953,2.0,1.0,phase_1,,,,,,,,,,,,,blue,square
0.0,5.0,0.0,1.0,2.0,2.0,484.5745979982894,2.0,1.0,phase_1,,,,,,,,,,,,,cyan,I
387.0,4.0,4.0,0.0,4.0,4.0,664.8671120055951,2.0,1.0,phase_1,,,,,,,,,,,,,orange,circle
28.0,1.0,0.5,0.0,3.0,3.0,501.48875202285126,2.0,1.0,phase_1,,,,,,,,,,,,,yellow,diamond
84.0,6.0,1.0,1.0,4.0,4.0,529.1128309909254,2.0,1.0,phase_1,,,,,,,,,,,,,white,cross
0.0,1.0,0.0,0.0,4.0,4.0,480.3794650069903,2.0,1.0,phase_1,,,,,,,,,,,,,yellow,diamond
46.0,5.0,0.5,1.0,1.0,1.0,513.3421380014624,2.0,1.0,phase_1,,,,,,,,,,,,,cyan,I
84.0,2.0,1.0,0.0,1.0,1.0,368.1730970274657,2.0,1.0,phase_1,,,,,,,,,,,,,gray,hexagon
0.0,1.0,0.0,0.0,1.0,1.0,363.423350994708,2.0,1.0,phase_1,,,,,,,,,,,,,yellow,diamond
0.0,8.0,0.0,1.0,4.0,4.0,402.3367069894448,2.0,1.0,phase_1,,,,,,,,,,,,,blue,square
420.0,8.0,4.0,1.0,2.0,2.0,420.6972660031169,2.0,1.0,phase_1,,,,,,,,,,,,,blue,square
178.0,3.0,2.0,0.0,4.0,4.0,476.3447650184389,2.0,1.0,phase_1,,,,,,,,,,,,,green,flipped triangle
61.0,5.0,0.5,1.0,3.0,3.0,422.2036910068709,2.0,1.0,phase_1,,,,,,,,,,,,,cyan,I
116.0,2.0,1.0,0.0,2.0,2.0,388.7628659722395,2.0,1.0,phase_1,,,,,,,,,,,,,gray,hexagon
211.0,7.0,2.0,1.0,1.0,1.0,359.66772699612187,2.0,1.0,phase_1,,,,,,,,,,,,,magenta,triangle
65.0,1.0,0.5,0.0,2.0,2.0,406.4796830061823,2.0,1.0,phase_1,,,,,,,,,,,,,yellow,diamond
72.0,5.0,0.5,1.0,2.0,2.0,417.8654990100767,2.0,1.0,phase_1,,,,,,,,,,,,,cyan,I
222.0,3.0,2.0,0.0,2.0,2.0,678.7801140162628,2.0,1.0,phase_1,,,,,,,,,,,,,green,flipped triangle
392.0,8.0,4.0,1.0,4.0,4.0,459.8622560151852,2.0,1.0,phase_1,,,,,,,,,,,,,blue,square
100.0,2.0,1.0,0.0,4.0,4.0,386.5789310075342,2.0,1.0,phase_1,,,,,,,,,,,,,gray,hexagon
29.0,1.0,0.5,0.0,2.0,2.0,492.1735109819565,2.0,1.0,phase_1,,,,,,,,,,,,,yellow,diamond
201.0,3.0,2.0,0.0,2.0,2.0,495.4420379945077,2.0,1.0,phase_1,,,,,,,,,,,,,green,flipped triangle
0.0,2.0,0.0,0.0,1.0,1.0,463.5667330003343,2.0,1.0,phase_1,,,,,,,,,,,,,gray,hexagon
0.0,8.0,0.0,1.0,3.0,3.0,400.9965200093575,2.0,1.0,phase_1,,,,,,,,,,,,,blue,square
389.0,8.0,4.0,1.0,2.0,2.0,478.4878470236435,2.0,1.0,phase_1,,,,,,,,,,,,,blue,square
89.0,2.0,1.0,0.0,1.0,1.0,643.4265740099363,2.0,1.0,phase_1,,,,,,,,,,,,,gray,hexagon
224.0,7.0,2.0,1.0,2.0,2.0,359.5766090147663,2.0,1.0,phase_1,,,,,,,,,,,,,magenta,triangle
94.0,6.0,1.0,1.0,3.0,3.0,437.9287550109438,2.0,1.0,phase_1,,,,,,,,,,,,,white,cross
213.0,3.0,2.0,0.0,1.0,1.0,282.7655400033109,2.0,1.0,phase_1,,,,,,,,,,,,,green,flipped triangle
52.0,1.0,0.5,0.0,4.0,4.0,631.3382360094693,2.0,1.0,phase_1,,,,,,,,,,,,,yellow,diamond
109.0,2.0,1.0,0.0,3.0,3.0,397.1800240105949,2.0,1.0,phase_1,,,,,,,,,,,,,gray,hexagon
177.0,3.0,2.0,0.0,1.0,1.0,529.3377080233768,2.0,1.0,phase_1,,,,,,,,,,,,,green,flipped triangle
420.0,8.0,4.0,1.0,2.0,2.0,459.4422439986374,2.0,1.0,phase_1,,,,,,,,,,,,,blue,square
72.0,5.0,0.5,1.0,2.0,2.0,505.4645650088787,2.0,1.0,phase_1,,,,,,,,,,,,,cyan,I
124.0,6.0,1.0,1.0,4.0,4.0,397.5912659952882,2.0,1.0,phase_1,,,,,,,,,,,,,white,cross
0.0,2.0,0.0,0.0,2.0,2.0,420.9906039759516,2.0,1.0,phase_1,,,,,,,,,,,,,gray,hexagon
187.0,3.0,2.0,0.0,2.0,2.0,464.2362270096782,2.0,1.0,phase_1,,,,,,,,,,,,,green,flipped triangle
388.0,4.0,4.0,0.0,1.0,1.0,366.1819389963057,2.0,1.0,phase_1,,,,,,,,,,,,,orange,circle
222.0,7.0,2.0,1.0,1.0,1.0,402.6445419876836,2.0,1.0,phase_1,,,,,,,,,,,,,magenta,triangle
108.0,6.0,1.0,1.0,1.0,1.0,492.480421991786,2.0,1.0,phase_1,,,,,,,,,,,,,white,cross
0.0,7.0,0.0,1.0,1.0,1.0,569.632256985642,2.0,1.0,phase_1,,,,,,,,,,,,,magenta,triangle
0.0,7.0,0.0,1.0,4.0,4.0,645.6230549956672,2.0,1.0,phase_1,,,,,,,,,,,,,magenta,triangle
0.0,8.0,0.0,1.0,2.0,2.0,641.8601099867374,2.0,1.0,phase_1,,,,,,,,,,,,,blue,square
38.0,5.0,0.5,1.0,1.0,1.0,463.7119270046241,2.0,1.0,phase_1,,,,,,,,,,,,,cyan,I
380.0,4.0,4.0,0.0,2.0,2.0,671.0186909767799,2.0,1.0,phase_1,,,,,,,,,,,,,orange,circle
108.0,6.0,1.0,1.0,1.0,1.0,394.1734459949657,2.0,1.0,phase_1,,,,,,,,,,,,,white,cross
0.0,7.0,0.0,1.0,3.0,3.0,469.16541698738,2.0,1.0,phase_1,,,,,,,,,,,,,magenta,triangle
33.0,1.0,0.5,0.0,2.0,2.0,516.6956189787015,2.0,1.0,phase_1,,,,,,,,,,,,,yellow,diamond
51.0,5.0,0.5,1.0,4.0,4.0,328.0535230005625,2.0,1.0,phase_1,,,,,,,,,,,,,cyan,I
78.0,6.0,1.0,1.0,1.0,1.0,276.8988700117916,2.0,1.0,phase_1,,,,,,,,,,,,,white,cross
420.0,4.0,4.0,0.0,4.0,4.0,281.4878209901508,2.0,1.0,phase_1,,,,,,,,,,,,,orange,circle
189.0,7.0,2.0,1.0,1.0,1.0,309.0650269878097,2.0,1.0,phase_1,,,,,,,,,,,,,magenta,triangle
39.0,1.0,0.5,0.0,2.0,2.0,299.7877080051694,2.0,1.0,phase_1,,,,,,,,,,,,,yellow,diamond
0.0,2.0,0.0,0.0,1.0,1.0,311.688174988376,2.0,1.0,phase_1,,,,,,,,,,,,,gray,hexagon
110.0,6.0,1.0,1.0,1.0,1.0,340.2973749907687,2.0,1.0,phase_1,,,,,,,,,,,,,white,cross
0.0,8.0,0.0,1.0,1.0,1.0,360.677302989643,2.0,1.0,phase_1,,,,,,,,,,,,,blue,square
200.0,7.0,2.0,1.0,2.0,2.0,595.9031899983529,2.0,1.0,phase_1,,,,,,,,,,,,,magenta,triangle
420.0,8.0,4.0,1.0,1.0,1.0,298.599567002384,2.0,1.0,phase_1,,,,,,,,,,,,,blue,square
0.0,4.0,0.0,0.0,3.0,3.0,377.4723320093471,2.0,1.0,phase_1,,,,,,,,,,,,,orange,circle
186.0,3.0,2.0,0.0,3.0,3.0,451.7889779817778,2.0,1.0,phase_1,,,,,,,,,,,,,green,flipped triangle
109.0,6.0,1.0,1.0,2.0,2.0,336.5519749931991,2.0,1.0,phase_1,,,,,,,,,,,,,white,cross
94.0,2.0,1.0,0.0,3.0,3.0,419.1873630043119,2.0,1.0,phase_1,,,,,,,,,,,,,gray,hexagon
197.0,7.0,2.0,1.0,1.0,1.0,625.9264189866371,2.0,1.0,phase_1,,,,,,,,,,,,,magenta,triangle
388.0,8.0,4.0,1.0,2.0,2.0,444.5278389903251,2.0,1.0,phase_1,,,,,,,,,,,,,blue,square
420.0,4.0,4.0,0.0,3.0,3.0,329.577409022022,3.0,1.0,phase_1,,,,,,,,,,,,,orange,circle
0.0,5.0,0.0,1.0,2.0,2.0,313.6910569737665,3.0,1.0,phase_1,,,,,,,,,,,,,cyan,I
67.0,1.0,0.5,0.0,3.0,3.0,332.8091999865137,3.0,1.0,phase_1,,,,,,,,,,,,,yellow,diamond
0.0,3.0,0.0,0.0,2.0,2.0,330.6871130189392,3.0,1.0,phase_1,,,,,,,,,,,,,green,flipped triangle
387.0,8.0,4.0,1.0,3.0,3.0,340.9305609820876,3.0,1.0,phase_1,,,,,,,,,,,,,blue,square
177.0,3.0,2.0,0.0,4.0,4.0,362.2164120024536,3.0,1.0,phase_1,,,,,,,,,,,,,green,flipped triangle
112.0,2.0,1.0,0.0,2.0,2.0,312.6760520099196,3.0,1.0,phase_1,,,,,,,,,,,,,gray,hexagon
0.0,2.0,0.0,0.0,4.0,4.0,350.1870140025858,3.0,1.0,phase_1,,,,,,,,,,,,,gray,hexagon
420.0,4.0,4.0,0.0,1.0,1.0,295.756851992337,3.0,1.0,phase_1,,,,,,,,,,,,,orange,circle
28.0,5.0,0.5,1.0,3.0,3.0,423.6352359876036,3.0,1.0,phase_1,,,,,,,,,,,,,cyan,I
30.0,5.0,0.5,1.0,3.0,3.0,387.418947997503,3.0,1.0,phase_1,,,,,,,,,,,,,cyan,I
39.0,5.0,0.5,1.0,3.0,3.0,501.58866101992317,3.0,1.0,phase_1,,,,,,,,,,,,,cyan,I
0.0,5.0,0.0,1.0,2.0,2.0,441.8491579999681,3.0,1.0,phase_1,,,,,,,,,,,,,cyan,I
84.0,2.0,1.0,0.0,2.0,2.0,337.2876799840014,3.0,1.0,phase_1,,,,,,,,,,,,,gray,hexagon
51.0,1.0,0.5,0.0,3.0,3.0,492.647017003037,3.0,1.0,phase_1,,,,,,,,,,,,,yellow,diamond
178.0,7.0,2.0,1.0,1.0,1.0,361.636854999233,3.0,1.0,phase_1,,,,,,,,,,,,,magenta,triangle
418.0,8.0,4.0,1.0,1.0,1.0,336.2991960020736,3.0,1.0,phase_1,,,,,,,,,,,,,blue,square
99.0,6.0,1.0,1.0,1.0,1.0,323.5351369949057,3.0,1.0,phase_1,,,,,,,,,,,,,white,cross
178.0,3.0,2.0,0.0,1.0,1.0,328.2440379844047,3.0,1.0,phase_1,,,,,,,,,,,,,green,flipped triangle
221.0,7.0,2.0,1.0,3.0,3.0,323.3666479936801,3.0,1.0,phase_1,,,,,,,,,,,,,magenta,triangle
116.0,6.0,1.0,1.0,2.0,2.0,319.5359639939852,3.0,1.0,phase_1,,,,,,,,,,,,,white,cross
111.0,2.0,1.0,0.0,1.0,1.0,271.5581039956305,3.0,1.0,phase_1,,,,,,,,,,,,,gray,hexagon
176.0,7.0,2.0,1.0,3.0,3.0,284.2577320116106,3.0,1.0,phase_1,,,,,,,,,,,,,magenta,triangle
116.0,6.0,1.0,1.0,4.0,4.0,277.6564419909846,3.0,1.0,phase_1,,,,,,,,,,,,,white,cross
29.0,1.0,0.5,0.0,1.0,1.0,275.903435976943,3.0,1.0,phase_1,,,,,,,,,,,,,yellow,diamond
0.0,5.0,0.0,1.0,2.0,2.0,304.0472400025464,3.0,1.0,phase_1,,,,,,,,,,,,,cyan,I
123.0,2.0,1.0,0.0,3.0,3.0,341.7503300006501,3.0,1.0,phase_1,,,,,,,,,,,,,gray,hexagon
96.0,6.0,1.0,1.0,3.0,3.0,337.2601360024418,3.0,1.0,phase_1,,,,,,,,,,,,,white,cross
113.0,6.0,1.0,1.0,1.0,1.0,366.3565309834666,3.0,1.0,phase_1,,,,,,,,,,,,,white,cross
122.0,6.0,1.0,1.0,4.0,4.0,423.6007959989365,3.0,2.0,phase_1,,,,,,,,,,,,,white,cross
215.0,7.0,2.0,1.0,4.0,4.0,300.5748529976699,3.0,1.0,phase_1,,,,,,,,,,,,,magenta,triangle
112.0,6.0,1.0,1.0,4.0,4.0,457.6840130030177,3.0,1.0,phase_1,,,,,,,,,,,,,white,cross
0.0,7.0,0.0,1.0,1.0,1.0,581.2971140258014,3.0,1.0,phase_1,,,,,,,,,,,,,magenta,triangle
413.0,8.0,4.0,1.0,3.0,3.0,512.7267060161103,3.0,1.0,phase_1,,,,,,,,,,,,,blue,square
89.0,6.0,1.0,1.0,1.0,1.0,894.3667229905259,3.0,1.0,phase_1,,,,,,,,,,,,,white,cross
29.0,5.0,0.5,1.0,4.0,4.0,570.8869460213464,3.0,1.0,phase_1,,,,,,,,,,,,,cyan,I
0.0,3.0,0.0,0.0,1.0,1.0,406.6987010010052,3.0,1.0,phase_1,,,,,,,,,,,,,green,flipped triangle
0.0,3.0,0.0,0.0,3.0,3.0,350.5810600181576,3.0,1.0,phase_1,,,,,,,,,,,,,green,flipped triangle
197.0,7.0,2.0,1.0,3.0,3.0,611.3020720076747,3.0,1.0,phase_1,,,,,,,,,,,,,magenta,triangle
71.0,1.0,0.5,0.0,4.0,4.0,549.6160569891799,3.0,1.0,phase_1,,,,,,,,,,,,,yellow,diamond
79.0,2.0,1.0,0.0,4.0,4.0,529.6715190052055,3.0,1.0,phase_1,,,,,,,,,,,,,gray,hexagon
0.0,8.0,0.0,1.0,1.0,1.0,409.3539199966471,3.0,1.0,phase_1,,,,,,,,,,,,,blue,square
192.0,7.0,2.0,1.0,4.0,4.0,468.796466011554,3.0,1.0,phase_1,,,,,,,,,,,,,magenta,triangle
182.0,7.0,2.0,1.0,4.0,4.0,375.7107880082913,3.0,1.0,phase_1,,,,,,,,,,,,,magenta,triangle
199.0,3.0,2.0,0.0,3.0,3.0,452.4853350012563,3.0,1.0,phase_1,,,,,,,,,,,,,green,flipped triangle
111.0,6.0,1.0,1.0,2.0,2.0,423.2197329984046,3.0,2.0,phase_1,,,,,,,,,,,,,white,cross
84.0,6.0,1.0,1.0,3.0,3.0,698.940146015957,3.0,1.0,phase_1,,,,,,,,,,,,,white,cross
38.0,1.0,0.5,0.0,1.0,1.0,473.4395729901735,3.0,1.0,phase_1,,,,,,,,,,,,,yellow,diamond
176.0,3.0,2.0,0.0,4.0,4.0,349.7744390042498,3.0,1.0,phase_1,,,,,,,,,,,,,green,flipped triangle
100.0,2.0,1.0,0.0,1.0,1.0,312.9522399976849,3.0,1.0,phase_1,,,,,,,,,,,,,gray,hexagon
178.0,7.0,2.0,1.0,2.0,2.0,287.6125650072936,3.0,1.0,phase_1,,,,,,,,,,,,,magenta,triangle
211.0,3.0,2.0,0.0,4.0,4.0,322.6353089848999,3.0,1.0,phase_1,,,,,,,,,,,,,green,flipped triangle
395.0,4.0,4.0,0.0,4.0,4.0,433.5427990008611,3.0,1.0,phase_1,,,,,,,,,,,,,orange,circle
219.0,3.0,2.0,0.0,3.0,3.0,492.9568049847148,3.0,1.0,phase_1,,,,,,,,,,,,,green,flipped triangle
65.0,1.0,0.5,0.0,2.0,2.0,329.1398560104426,3.0,1.0,phase_1,,,,,,,,,,,,,yellow,diamond
38.0,5.0,0.5,1.0,4.0,4.0,542.3982909996994,3.0,1.0,phase_1,,,,,,,,,,,,,cyan,I
216.0,3.0,2.0,0.0,2.0,2.0,561.4797709858976,3.0,1.0,phase_1,,,,,,,,,,,,,green,flipped triangle
191.0,7.0,2.0,1.0,4.0,4.0,648.6935459834058,3.0,1.0,phase_1,,,,,,,,,,,,,magenta,triangle
84.0,6.0,1.0,1.0,2.0,2.0,541.9589359953534,3.0,1.0,phase_1,,,,,,,,,,,,,white,cross
187.0,3.0,2.0,0.0,2.0,2.0,337.7508920093532,3.0,1.0,phase_1,,,,,,,,,,,,,green,flipped triangle
0.0,7.0,0.0,1.0,4.0,4.0,540.3953999921214,3.0,1.0,phase_1,,,,,,,,,,,,,magenta,triangle
98.0,6.0,1.0,1.0,3.0,3.0,448.6833910050336,3.0,1.0,phase_1,,,,,,,,,,,,,white,cross
48.0,5.0,0.5,1.0,2.0,2.0,525.3501989936922,3.0,1.0,phase_1,,,,,,,,,,,,,cyan,I
67.0,1.0,0.5,0.0,1.0,1.0,540.1551300019491,3.0,1.0,phase_1,,,,,,,,,,,,,yellow,diamond
381.0,8.0,4.0,1.0,1.0,1.0,431.3360910164192,3.0,1.0,phase_1,,,,,,,,,,,,,blue,square
0.0,6.0,0.0,1.0,3.0,3.0,333.2798120100051,3.0,1.0,phase_1,,,,,,,,,,,,,white,cross
103.0,2.0,1.0,0.0,4.0,4.0,376.6336340049747,3.0,1.0,phase_1,,,,,,,,,,,,,gray,hexagon
64.0,1.0,0.5,0.0,4.0,4.0,463.6347829946317,3.0,1.0,phase_1,,,,,,,,,,,,,yellow,diamond
71.0,5.0,0.5,1.0,3.0,3.0,377.8486560040619,3.0,1.0,phase_1,,,,,,,,,,,,,cyan,I
96.0,2.0,1.0,0.0,1.0,1.0,422.8290220198687,3.0,1.0,phase_1,,,,,,,,,,,,,gray,hexagon
53.0,1.0,0.5,0.0,3.0,3.0,412.6398560183588,3.0,1.0,phase_1,,,,,,,,,,,,,yellow,diamond
209.0,7.0,2.0,1.0,4.0,4.0,320.9911360172555,3.0,1.0,phase_1,,,,,,,,,,,,,magenta,triangle
408.0,8.0,4.0,1.0,3.0,3.0,398.8640000170562,3.0,1.0,phase_1,,,,,,,,,,,,,blue,square
0.0,1.0,0.0,0.0,4.0,4.0,284.0058589936234,3.0,1.0,phase_1,,,,,,,,,,,,,yellow,diamond
403.0,8.0,4.0,1.0,1.0,1.0,390.3158339962829,3.0,1.0,phase_1,,,,,,,,,,,,,blue,square
41.0,5.0,0.5,1.0,4.0,4.0,426.7144769837614,3.0,1.0,phase_1,,,,,,,,,,,,,cyan,I
107.0,2.0,1.0,0.0,3.0,3.0,656.9001459865831,3.0,1.0,phase_1,,,,,,,,,,,,,gray,hexagon
423.0,4.0,4.0,0.0,4.0,4.0,333.7513610022142,3.0,1.0,phase_1,,,,,,,,,,,,,orange,circle
42.0,1.0,0.5,0.0,3.0,3.0,283.1482909969054,3.0,1.0,phase_1,,,,,,,,,,,,,yellow,diamond
121.0,6.0,1.0,1.0,3.0,3.0,591.7584840208292,3.0,1.0,phase_1,,,,,,,,,,,,,white,cross
117.0,2.0,1.0,0.0,3.0,3.0,377.8499029867816,3.0,1.0,phase_1,,,,,,,,,,,,,gray,hexagon
0.0,6.0,0.0,1.0,1.0,1.0,341.2647320074029,3.0,2.0,phase_1,,,,,,,,,,,,,white,cross
0.0,3.0,0.0,0.0,2.0,2.0,304.1844140097964,3.0,1.0,phase_1,,,,,,,,,,,,,green,flipped triangle
187.0,7.0,2.0,1.0,1.0,1.0,428.551985998638,3.0,1.0,phase_1,,,,,,,,,,,,,magenta,triangle
100.0,6.0,1.0,1.0,4.0,4.0,505.5569040123373,3.0,1.0,phase_1,,,,,,,,,,,,,white,cross
34.0,5.0,0.5,1.0,2.0,2.0,333.8560579868499,3.0,1.0,phase_1,,,,,,,,,,,,,cyan,I
39.0,5.0,0.5,1.0,1.0,1.0,397.5247770140413,3.0,1.0,phase_1,,,,,,,,,,,,,cyan,I
110.0,2.0,1.0,0.0,2.0,2.0,377.9585150186904,3.0,1.0,phase_1,,,,,,,,,,,,,gray,hexagon
423.0,4.0,4.0,0.0,4.0,4.0,444.098910986213,3.0,1.0,phase_1,,,,,,,,,,,,,orange,circle
41.0,1.0,0.5,0.0,1.0,1.0,448.5838359978515,3.0,1.0,phase_1,,,,,,,,,,,,,yellow,diamond
401.0,4.0,4.0,0.0,2.0,2.0,472.582123009488,3.0,1.0,phase_1,,,,,,,,,,,,,orange,circle
29.0,5.0,0.5,1.0,1.0,1.0,450.0511350051965,3.0,1.0,phase_1,,,,,,,,,,,,,cyan,I
27.0,5.0,0.5,1.0,4.0,4.0,319.513978989562,3.0,1.0,phase_1,,,,,,,,,,,,,cyan,I
54.0,1.0,0.5,0.0,2.0,2.0,397.8042929957155,3.0,1.0,phase_1,,,,,,,,,,,,,yellow,diamond
383.0,8.0,4.0,1.0,2.0,2.0,635.7441199943423,3.0,1.0,phase_1,,,,,,,,,,,,,blue,square
392.0,8.0,4.0,1.0,4.0,4.0,464.0810999844689,3.0,1.0,phase_1,,,,,,,,,,,,,blue,square
0.0,3.0,0.0,0.0,3.0,3.0,308.3516170154325,3.0,1.0,phase_1,,,,,,,,,,,,,green,flipped triangle
102.0,6.0,1.0,1.0,4.0,4.0,297.2703610139433,3.0,1.0,phase_1,,,,,,,,,,,,,white,cross
67.0,5.0,0.5,1.0,2.0,2.0,333.8340339832939,3.0,1.0,phase_1,,,,,,,,,,,,,cyan,I
395.0,8.0,4.0,1.0,3.0,3.0,288.661407015752,3.0,1.0,phase_1,,,,,,,,,,,,,blue,square
38.0,1.0,0.5,0.0,4.0,4.0,380.192064010771,4.0,1.0,phase_1,,,,,,,,,,,,,yellow,diamond
205.0,7.0,2.0,1.0,3.0,3.0,358.9315559947863,4.0,1.0,phase_1,,,,,,,,,,,,,magenta,triangle
117.0,6.0,1.0,1.0,1.0,1.0,332.7612089924514,4.0,1.0,phase_1,,,,,,,,,,,,,white,cross
0.0,4.0,0.0,0.0,1.0,1.0,357.951251004124,4.0,1.0,phase_1,,,,,,,,,,,,,orange,circle
83.0,2.0,1.0,0.0,3.0,3.0,349.4246029877104,4.0,1.0,phase_1,,,,,,,,,,,,,gray,hexagon
0.0,8.0,0.0,1.0,4.0,4.0,391.4501709805336,4.0,1.0,phase_1,,,,,,,,,,,,,blue,square
384.0,4.0,4.0,0.0,1.0,1.0,436.4898969943169,4.0,1.0,phase_1,,,,,,,,,,,,,orange,circle
209.0,3.0,2.0,0.0,4.0,4.0,353.9055740111507,4.0,1.0,phase_1,,,,,,,,,,,,,green,flipped triangle
94.0,6.0,1.0,1.0,3.0,3.0,366.5806819917634,4.0,1.0,phase_1,,,,,,,,,,,,,white,cross
423.0,8.0,4.0,1.0,4.0,4.0,363.1593569880351,4.0,1.0,phase_1,,,,,,,,,,,,,blue,square
108.0,2.0,1.0,0.0,3.0,3.0,504.8727319808677,4.0,1.0,phase_1,,,,,,,,,,,,,gray,hexagon
0.0,2.0,0.0,0.0,2.0,2.0,788.6263090185821,4.0,1.0,phase_1,,,,,,,,,,,,,gray,hexagon
0.0,1.0,0.0,0.0,4.0,4.0,360.5985229951329,4.0,1.0,phase_1,,,,,,,,,,,,,yellow,diamond
0.0,1.0,0.0,0.0,3.0,3.0,382.7308799955062,4.0,1.0,phase_1,,,,,,,,,,,,,yellow,diamond
192.0,3.0,2.0,0.0,1.0,1.0,498.0077070067636,4.0,1.0,phase_1,,,,,,,,,,,,,green,flipped triangle
388.0,4.0,4.0,0.0,3.0,3.0,311.8122740124818,4.0,1.0,phase_1,,,,,,,,,,,,,orange,circle
0.0,2.0,0.0,0.0,2.0,2.0,541.6792739997618,4.0,1.0,phase_1,,,,,,,,,,,,,gray,hexagon
388.0,8.0,4.0,1.0,1.0,1.0,809.391441027401,4.0,1.0,phase_1,,,,,,,,,,,,,blue,square
189.0,3.0,2.0,0.0,3.0,3.0,469.2694060213398,4.0,2.0,phase_1,,,,,,,,,,,,,green,flipped triangle
83.0,6.0,1.0,1.0,2.0,2.0,431.7673609766643,4.0,1.0,phase_1,,,,,,,,,,,,,white,cross
0.0,3.0,0.0,0.0,1.0,1.0,370.41090600541787,4.0,1.0,phase_1,,,,,,,,,,,,,green,flipped triangle
392.0,4.0,4.0,0.0,1.0,1.0,407.342966995202,4.0,1.0,phase_1,,,,,,,,,,,,,orange,circle
74.0,5.0,0.5,1.0,1.0,1.0,320.7582540053408,4.0,2.0,phase_1,,,,,,,,,,,,,cyan,I
405.0,4.0,4.0,0.0,4.0,4.0,480.6472320051398,4.0,1.0,phase_1,,,,,,,,,,,,,orange,circle
63.0,1.0,0.5,0.0,1.0,1.0,317.0522439759224,4.0,1.0,phase_1,,,,,,,,,,,,,yellow,diamond
205.0,3.0,2.0,0.0,4.0,4.0,414.6800100279506,4.0,1.0,phase_1,,,,,,,,,,,,,green,flipped triangle
81.0,6.0,1.0,1.0,2.0,2.0,374.4515099970158,4.0,1.0,phase_1,,,,,,,,,,,,,white,cross
217.0,7.0,2.0,1.0,2.0,2.0,395.0791209936142,4.0,1.0,phase_1,,,,,,,,,,,,,magenta,triangle
0.0,3.0,0.0,0.0,4.0,4.0,359.5869499840773,4.0,1.0,phase_1,,,,,,,,,,,,,green,flipped triangle
81.0,2.0,1.0,0.0,2.0,2.0,449.2484579968732,4.0,1.0,phase_1,,,,,,,,,,,,,gray,hexagon
103.0,6.0,1.0,1.0,2.0,2.0,489.2869069881271,4.0,1.0,phase_1,,,,,,,,,,,,,white,cross
0.0,7.0,0.0,1.0,3.0,3.0,645.1515119988471,4.0,1.0,phase_1,,,,,,,,,,,,,magenta,triangle
27.0,1.0,0.5,0.0,4.0,4.0,403.5433949902653,4.0,1.0,phase_1,,,,,,,,,,,,,yellow,diamond
180.0,3.0,2.0,0.0,3.0,3.0,336.918221990345,4.0,2.0,phase_1,,,,,,,,,,,,,green,flipped triangle
405.0,8.0,4.0,1.0,1.0,1.0,505.0737560086418,4.0,1.0,phase_1,,,,,,,,,,,,,blue,square
392.0,4.0,4.0,0.0,4.0,4.0,548.7433350062929,4.0,1.0,phase_1,,,,,,,,,,,,,orange,circle
29.0,5.0,0.5,1.0,1.0,1.0,505.14109298819676,4.0,1.0,phase_1,,,,,,,,,,,,,cyan,I
217.0,3.0,2.0,0.0,2.0,2.0,451.3314589858055,4.0,1.0,phase_1,,,,,,,,,,,,,green,flipped triangle
199.0,3.0,2.0,0.0,4.0,4.0,391.1643070168793,4.0,2.0,phase_1,,,,,,,,,,,,,green,flipped triangle
402.0,8.0,4.0,1.0,2.0,2.0,338.5419450059999,4.0,1.0,phase_1,,,,,,,,,,,,,blue,square
221.0,3.0,2.0,0.0,3.0,3.0,329.1433360136579,4.0,1.0,phase_1,,,,,,,,,,,,,green,flipped triangle
221.0,3.0,2.0,0.0,1.0,1.0,452.4138330016285,4.0,1.0,phase_1,,,,,,,,,,,,,green,flipped triangle
177.0,7.0,2.0,1.0,3.0,3.0,354.173500003526,4.0,1.0,phase_1,,,,,,,,,,,,,magenta,triangle
221.0,3.0,2.0,0.0,3.0,3.0,389.2366380023304,4.0,1.0,phase_1,,,,,,,,,,,,,green,flipped triangle
197.0,3.0,2.0,0.0,2.0,2.0,465.5860039929393,4.0,1.0,phase_1,,,,,,,,,,,,,green,flipped triangle
402.0,4.0,4.0,0.0,2.0,2.0,729.4348950090352,4.0,1.0,phase_1,,,,,,,,,,,,,orange,circle
116.0,2.0,1.0,0.0,4.0,4.0,627.3835760075599,4.0,1.0,phase_1,,,,,,,,,,,,,gray,hexagon
397.0,4.0,4.0,0.0,3.0,3.0,497.5361239921767,4.0,1.0,phase_1,,,,,,,,,,,,,orange,circle
376.0,8.0,4.0,1.0,4.0,4.0,758.3058580057696,4.0,1.0,phase_1,,,,,,,,,,,,,blue,square
0.0,7.0,0.0,1.0,1.0,1.0,426.3822140055708,4.0,1.0,phase_1,,,,,,,,,,,,,magenta,triangle
87.0,2.0,1.0,0.0,4.0,4.0,493.2122429891024,4.0,1.0,phase_1,,,,,,,,,,,,,gray,hexagon
96.0,2.0,1.0,0.0,1.0,1.0,409.6556479926221,4.0,1.0,phase_1,,,,,,,,,,,,,gray,hexagon
183.0,7.0,2.0,1.0,4.0,4.0,362.4026269826572,4.0,1.0,phase_1,,,,,,,,,,,,,magenta,triangle
84.0,2.0,1.0,0.0,3.0,3.0,526.1678780079819,4.0,1.0,phase_1,,,,,,,,,,,,,gray,hexagon
0.0,6.0,0.0,1.0,4.0,4.0,386.9832910131663,4.0,1.0,phase_1,,,,,,,,,,,,,white,cross
180.0,7.0,2.0,1.0,2.0,2.0,494.420850998722,4.0,1.0,phase_1,,,,,,,,,,,,,magenta,triangle
99.0,2.0,1.0,0.0,1.0,1.0,449.6306630026083,4.0,1.0,phase_1,,,,,,,,,,,,,gray,hexagon
199.0,7.0,2.0,1.0,4.0,4.0,382.152133010095,4.0,1.0,phase_1,,,,,,,,,,,,,magenta,triangle
177.0,7.0,2.0,1.0,4.0,4.0,349.6814539830666,4.0,1.0,phase_1,,,,,,,,,,,,,magenta,triangle
73.0,5.0,0.5,1.0,4.0,4.0,387.4364469957072,4.0,1.0,phase_1,,,,,,,,,,,,,cyan,I
215.0,3.0,2.0,0.0,2.0,2.0,428.3792160276789,4.0,1.0,phase_1,,,,,,,,,,,,,green,flipped triangle
377.0,4.0,4.0,0.0,4.0,4.0,392.9021329968236,4.0,1.0,phase_1,,,,,,,,,,,,,orange,circle
61.0,1.0,0.5,0.0,1.0,1.0,597.761087003164,4.0,1.0,phase_1,,,,,,,,,,,,,yellow,diamond
33.0,5.0,0.5,1.0,2.0,2.0,348.8244560139719,4.0,1.0,phase_1,,,,,,,,,,,,,cyan,I
59.0,1.0,0.5,0.0,1.0,1.0,775.1721490058117,4.0,1.0,phase_1,,,,,,,,,,,,,yellow,diamond
59.0,5.0,0.5,1.0,2.0,2.0,413.6265449924394,4.0,1.0,phase_1,,,,,,,,,,,,,cyan,I
66.0,5.0,0.5,1.0,3.0,3.0,554.0715890238062,4.0,1.0,phase_1,,,,,,,,,,,,,cyan,I
96.0,2.0,1.0,0.0,2.0,2.0,431.8526939896401,4.0,1.0,phase_1,,,,,,,,,,,,,gray,hexagon
0.0,6.0,0.0,1.0,2.0,2.0,299.9005090096034,4.0,1.0,phase_1,,,,,,,,,,,,,white,cross
0.0,8.0,0.0,1.0,1.0,1.0,495.0192180112935,4.0,1.0,phase_1,,,,,,,,,,,,,blue,square
87.0,6.0,1.0,1.0,2.0,2.0,348.7852530088275,4.0,1.0,phase_1,,,,,,,,,,,,,white,cross
0.0,5.0,0.0,1.0,3.0,3.0,450.8194450172595,4.0,1.0,phase_1,,,,,,,,,,,,,cyan,I
56.0,5.0,0.5,1.0,4.0,4.0,751.1677319998853,4.0,1.0,phase_1,,,,,,,,,,,,,cyan,I
79.0,6.0,1.0,1.0,4.0,4.0,489.235921006184,4.0,1.0,phase_1,,,,,,,,,,,,,white,cross
402.0,8.0,4.0,1.0,3.0,3.0,725.670932995854,4.0,1.0,phase_1,,,,,,,,,,,,,blue,square
378.0,4.0,4.0,0.0,1.0,1.0,756.749903986929,4.0,1.0,phase_1,,,,,,,,,,,,,orange,circle
73.0,1.0,0.5,0.0,3.0,3.0,378.0570369854104,4.0,1.0,phase_1,,,,,,,,,,,,,yellow,diamond
0.0,7.0,0.0,1.0,1.0,1.0,842.9268029867671,4.0,2.0,phase_1,,,,,,,,,,,,,magenta,triangle
0.0,3.0,0.0,0.0,2.0,2.0,406.3362859888002,4.0,1.0,phase_1,,,,,,,,,,,,,green,flipped triangle
0.0,8.0,0.0,1.0,4.0,4.0,292.9625639808364,4.0,1.0,phase_1,,,,,,,,,,,,,blue,square
403.0,4.0,4.0,0.0,3.0,3.0,302.6941670104861,4.0,1.0,phase_1,,,,,,,,,,,,,orange,circle
0.0,5.0,0.0,1.0,1.0,1.0,308.2959890016354,4.0,1.0,phase_1,,,,,,,,,,,,,cyan,I
413.0,8.0,4.0,1.0,2.0,2.0,296.4004819805268,4.0,1.0,phase_1,,,,,,,,,,,,,blue,square
0.0,2.0,0.0,0.0,2.0,2.0,366.6937009838875,4.0,1.0,phase_1,,,,,,,,,,,,,gray,hexagon
0.0,2.0,0.0,0.0,2.0,2.0,321.8015760066919,4.0,1.0,phase_1,,,,,,,,,,,,,gray,hexagon
388.0,8.0,4.0,1.0,4.0,4.0,400.0701150216628,4.0,1.0,phase_1,,,,,,,,,,,,,blue,square
199.0,7.0,2.0,1.0,2.0,2.0,427.6409710000735,4.0,1.0,phase_1,,,,,,,,,,,,,magenta,triangle
67.0,5.0,0.5,1.0,3.0,3.0,563.2152819889598,4.0,1.0,phase_1,,,,,,,,,,,,,cyan,I
215.0,7.0,2.0,1.0,1.0,1.0,390.3278039942961,4.0,1.0,phase_1,,,,,,,,,,,,,magenta,triangle
96.0,6.0,1.0,1.0,3.0,3.0,421.5479519916698,4.0,1.0,phase_1,,,,,,,,,,,,,white,cross
72.0,1.0,0.5,0.0,3.0,3.0,455.8392610051669,4.0,1.0,phase_1,,,,,,,,,,,,,yellow,diamond
381.0,4.0,4.0,0.0,1.0,1.0,513.9876789762639,4.0,1.0,phase_1,,,,,,,,,,,,,orange,circle
27.0,1.0,0.5,0.0,2.0,2.0,479.0865580143872,4.0,1.0,phase_1,,,,,,,,,,,,,yellow,diamond
0.0,6.0,0.0,1.0,1.0,1.0,547.3487919953186,4.0,1.0,phase_1,,,,,,,,,,,,,white,cross
405.0,8.0,4.0,1.0,1.0,1.0,328.281716996571,4.0,1.0,phase_1,,,,,,,,,,,,,blue,square
43.0,5.0,0.5,1.0,2.0,2.0,301.6472150047775,4.0,1.0,phase_1,,,,,,,,,,,,,cyan,I
377.0,8.0,4.0,1.0,3.0,3.0,386.8068890005816,4.0,1.0,phase_1,,,,,,,,,,,,,blue,square
402.0,4.0,4.0,0.0,2.0,2.0,383.8127380004152,4.0,1.0,phase_1,,,,,,,,,,,,,orange,circle
0.0,6.0,0.0,1.0,1.0,1.0,559.1020190040581,4.0,1.0,phase_1,,,,,,,,,,,,,white,cross
186.0,7.0,2.0,1.0,1.0,1.0,344.7944840008858,4.0,1.0,phase_1,,,,,,,,,,,,,magenta,triangle
0.0,4.0,4.0,0.0,5.0,5.0,427.7902879999828,1.0,1.0,phase_2,go,250.0,250.0,1.0,,,,,,,,,orange,circle
0.0,3.0,2.0,0.0,5.0,5.0,546.7460830000164,1.0,1.0,phase_2,go,250.0,250.0,1.0,,,,,,,,,green,flipped triangle
0.0,2.0,1.0,0.0,5.0,5.0,331.6253389999986,1.0,1.0,phase_2,go,250.0,250.0,1.0,,,,,,,,,gray,hexagon
0.0,3.0,2.0,0.0,6.0,6.0,338.3438390000037,1.0,1.0,phase_2,go,250.0,250.0,1.0,,,,,,,,,green,flipped triangle
0.0,7.0,2.0,1.0,5.0,0.0,0.0,1.0,1.0,phase_2,stop,250.0,250.0,4.0,,,,,,,,,magenta,triangle
0.0,4.0,4.0,0.0,5.0,5.0,352.2790199999974,1.0,1.0,phase_2,go,300.0,250.0,1.0,,,,,,,,,orange,circle
0.0,1.0,0.5,0.0,5.0,5.0,281.1593479999885,1.0,1.0,phase_2,go,300.0,250.0,1.0,,,,,,,,,yellow,diamond
0.0,5.0,0.5,1.0,6.0,6.0,297.4232089999873,1.0,1.0,phase_2,stop,300.0,250.0,3.0,,,,,,,,,cyan,I
0.0,5.0,0.5,1.0,5.0,5.0,448.8046689999976,1.0,1.0,phase_2,stop,300.0,200.0,3.0,,,,,,,,,cyan,I
0.0,7.0,2.0,1.0,5.0,5.0,304.5938719999981,1.0,1.0,phase_2,stop,250.0,200.0,3.0,,,,,,,,,magenta,triangle
0.0,4.0,4.0,0.0,6.0,6.0,455.51648,1.0,1.0,phase_2,go,200.0,200.0,1.0,,,,,,,,,orange,circle
0.0,2.0,1.0,0.0,6.0,6.0,471.5183879999927,1.0,1.0,phase_2,go,200.0,200.0,1.0,,,,,,,,,gray,hexagon
0.0,4.0,4.0,0.0,6.0,6.0,476.0630799999887,1.0,1.0,phase_2,go,200.0,200.0,1.0,,,,,,,,,orange,circle
0.0,7.0,2.0,1.0,5.0,0.0,0.0,1.0,1.0,phase_2,stop,200.0,200.0,4.0,,,,,,,,,magenta,triangle
0.0,8.0,4.0,1.0,5.0,0.0,0.0,1.0,1.0,phase_2,stop,250.0,200.0,4.0,,,,,,,,,blue,square
0.0,7.0,2.0,1.0,6.0,6.0,540.3191149999884,1.0,1.0,phase_2,go,300.0,200.0,1.0,,,,,,,,,magenta,triangle
0.0,3.0,2.0,0.0,6.0,6.0,540.0580630000036,1.0,1.0,phase_2,go,300.0,200.0,1.0,,,,,,,,,green,flipped triangle
0.0,5.0,0.5,1.0,5.0,0.0,0.0,1.0,1.0,phase_2,stop,300.0,200.0,4.0,,,,,,,,,cyan,I
0.0,2.0,1.0,0.0,6.0,6.0,488.4394179999844,1.0,1.0,phase_2,go,350.0,200.0,1.0,,,,,,,,,gray,hexagon
0.0,5.0,0.5,1.0,5.0,5.0,523.3526209999866,1.0,1.0,phase_2,go,350.0,200.0,1.0,,,,,,,,,cyan,I
0.0,8.0,4.0,1.0,6.0,0.0,0.0,1.0,1.0,phase_2,stop,350.0,200.0,4.0,,,,,,,,,blue,square
0.0,1.0,0.5,0.0,6.0,6.0,320.3838720000078,1.0,1.0,phase_2,go,350.0,250.0,1.0,,,,,,,,,yellow,diamond
0.0,5.0,0.5,1.0,6.0,6.0,633.1465530000173,1.0,1.0,phase_2,go,350.0,250.0,1.0,,,,,,,,,cyan,I
0.0,1.0,0.5,0.0,6.0,6.0,529.867902999996,1.0,1.0,phase_2,go,350.0,250.0,1.0,,,,,,,,,yellow,diamond
0.0,1.0,0.5,0.0,6.0,6.0,295.4297170000188,1.0,1.0,phase_2,go,350.0,250.0,1.0,,,,,,,,,yellow,diamond
0.0,1.0,0.5,0.0,5.0,5.0,495.9984449999979,1.0,1.0,phase_2,go,350.0,250.0,1.0,,,,,,,,,yellow,diamond
0.0,5.0,0.5,1.0,5.0,5.0,379.9697489999971,1.0,1.0,phase_2,stop,350.0,250.0,3.0,,,,,,,,,cyan,I
0.0,8.0,4.0,1.0,6.0,0.0,0.0,1.0,1.0,phase_2,stop,300.0,250.0,4.0,,,,,,,,,blue,square
0.0,1.0,0.5,0.0,5.0,5.0,459.5018580000101,1.0,1.0,phase_2,go,300.0,300.0,1.0,,,,,,,,,yellow,diamond
0.0,8.0,4.0,1.0,6.0,6.0,445.2403189999927,1.0,1.0,phase_2,stop,300.0,300.0,3.0,,,,,,,,,blue,square
0.0,7.0,2.0,1.0,5.0,0.0,0.0,1.0,1.0,phase_2,stop,300.0,250.0,4.0,,,,,,,,,magenta,triangle
0.0,3.0,2.0,0.0,6.0,6.0,716.7138059999729,1.0,1.0,phase_2,go,350.0,250.0,1.0,,,,,,,,,green,flipped triangle
0.0,2.0,1.0,0.0,5.0,5.0,676.832228999956,1.0,1.0,phase_2,go,350.0,250.0,1.0,,,,,,,,,gray,hexagon
0.0,6.0,1.0,1.0,5.0,0.0,0.0,1.0,1.0,phase_2,stop,350.0,250.0,4.0,,,,,,,,,white,cross
0.0,4.0,4.0,0.0,5.0,5.0,751.9923209999888,1.0,1.0,phase_2,go,400.0,250.0,1.0,,,,,,,,,orange,circle
0.0,2.0,1.0,0.0,6.0,6.0,722.9809290000162,1.0,1.0,phase_2,go,400.0,250.0,1.0,,,,,,,,,gray,hexagon
0.0,4.0,4.0,0.0,6.0,6.0,684.0431150000086,2.0,1.0,phase_2,go,400.0,250.0,1.0,,,,,,,,,orange,circle
0.0,3.0,2.0,0.0,5.0,5.0,511.26824700003226,2.0,1.0,phase_2,go,400.0,250.0,1.0,,,,,,,,,green,flipped triangle
0.0,7.0,2.0,1.0,5.0,5.0,522.163943999999,2.0,1.0,phase_2,stop,400.0,250.0,3.0,,,,,,,,,magenta,triangle
0.0,7.0,2.0,1.0,5.0,5.0,658.5130680000475,2.0,1.0,phase_2,go,350.0,250.0,1.0,,,,,,,,,magenta,triangle
0.0,8.0,4.0,1.0,5.0,5.0,753.2746820000398,2.0,1.0,phase_2,go,350.0,250.0,1.0,,,,,,,,,blue,square
0.0,1.0,0.5,0.0,6.0,6.0,550.548273000004,2.0,1.0,phase_2,go,350.0,250.0,1.0,,,,,,,,,yellow,diamond
0.0,5.0,0.5,1.0,5.0,0.0,0.0,2.0,1.0,phase_2,stop,350.0,250.0,4.0,,,,,,,,,cyan,I
0.0,8.0,4.0,1.0,5.0,0.0,0.0,2.0,1.0,phase_2,stop,400.0,250.0,4.0,,,,,,,,,blue,square
0.0,5.0,0.5,1.0,6.0,0.0,0.0,2.0,1.0,phase_2,stop,450.0,250.0,4.0,,,,,,,,,cyan,I
0.0,4.0,4.0,0.0,5.0,5.0,659.3611669999859,2.0,1.0,phase_2,go,450.0,300.0,1.0,,,,,,,,,orange,circle
0.0,3.0,2.0,0.0,6.0,6.0,604.6697109999855,2.0,1.0,phase_2,go,450.0,300.0,1.0,,,,,,,,,green,flipped triangle
0.0,7.0,2.0,1.0,6.0,6.0,1238.0481989999907,2.0,1.0,phase_2,stop,450.0,300.0,3.0,,,,,,,,,magenta,triangle
0.0,5.0,0.5,1.0,5.0,0.0,0.0,2.0,1.0,phase_2,stop,450.0,250.0,4.0,,,,,,,,,cyan,I
0.0,5.0,0.5,1.0,6.0,6.0,843.1928190000235,2.0,1.0,phase_2,go,500.0,250.0,1.0,,,,,,,,,cyan,I
0.0,6.0,1.0,1.0,6.0,0.0,0.0,2.0,1.0,phase_2,stop,500.0,250.0,4.0,,,,,,,,,white,cross
0.0,5.0,0.5,1.0,5.0,5.0,776.1937420000322,2.0,1.0,phase_2,go,500.0,300.0,1.0,,,,,,,,,cyan,I
0.0,3.0,2.0,0.0,6.0,0.0,0.0,2.0,1.0,phase_2,go,500.0,300.0,5.0,,,,,,,,,green,flipped triangle
0.0,6.0,1.0,1.0,6.0,0.0,0.0,2.0,1.0,phase_2,stop,500.0,300.0,4.0,,,,,,,,,white,cross
0.0,2.0,1.0,0.0,5.0,5.0,606.9616390000192,2.0,1.0,phase_2,go,500.0,350.0,1.0,,,,,,,,,gray,hexagon
0.0,8.0,4.0,1.0,5.0,5.0,409.8781670000448,2.0,1.0,phase_2,stop,500.0,350.0,3.0,,,,,,,,,blue,square
0.0,6.0,1.0,1.0,5.0,0.0,0.0,2.0,1.0,phase_2,stop,450.0,350.0,4.0,,,,,,,,,white,cross
0.0,2.0,1.0,0.0,6.0,6.0,582.0755069999564,2.0,1.0,phase_2,go,500.0,350.0,1.0,,,,,,,,,gray,hexagon
0.0,7.0,2.0,1.0,6.0,0.0,0.0,2.0,1.0,phase_2,stop,500.0,350.0,4.0,,,,,,,,,magenta,triangle
0.0,7.0,2.0,1.0,6.0,0.0,0.0,2.0,1.0,phase_2,stop,500.0,400.0,4.0,,,,,,,,,magenta,triangle
0.0,4.0,4.0,0.0,6.0,6.0,694.2105239999705,2.0,1.0,phase_2,go,500.0,450.0,1.0,,,,,,,,,orange,circle
0.0,6.0,1.0,1.0,6.0,0.0,0.0,2.0,1.0,phase_2,stop,500.0,450.0,4.0,,,,,,,,,white,cross
0.0,1.0,0.5,0.0,5.0,5.0,715.5905920000123,2.0,1.0,phase_2,go,500.0,500.0,1.0,,,,,,,,,yellow,diamond
0.0,1.0,0.5,0.0,6.0,6.0,729.3104529999823,2.0,1.0,phase_2,go,500.0,500.0,1.0,,,,,,,,,yellow,diamond
0.0,1.0,0.5,0.0,5.0,5.0,633.600897000008,2.0,1.0,phase_2,go,500.0,500.0,1.0,,,,,,,,,yellow,diamond
0.0,3.0,2.0,0.0,5.0,5.0,668.2339299999853,2.0,1.0,phase_2,go,500.0,500.0,1.0,,,,,,,,,green,flipped triangle
0.0,4.0,4.0,0.0,6.0,6.0,608.720108,2.0,1.0,phase_2,go,500.0,500.0,1.0,,,,,,,,,orange,circle
0.0,1.0,0.5,0.0,6.0,6.0,808.5990589999597,2.0,1.0,phase_2,go,500.0,500.0,1.0,,,,,,,,,yellow,diamond
0.0,8.0,4.0,1.0,5.0,0.0,0.0,2.0,1.0,phase_2,stop,500.0,500.0,4.0,,,,,,,,,blue,square
0.0,5.0,0.5,1.0,6.0,0.0,0.0,2.0,1.0,phase_2,stop,550.0,500.0,4.0,,,,,,,,,cyan,I
0.0,3.0,2.0,0.0,5.0,5.0,613.8409849999675,2.0,1.0,phase_2,go,550.0,550.0,1.0,,,,,,,,,green,flipped triangle
0.0,7.0,2.0,1.0,6.0,0.0,0.0,2.0,1.0,phase_2,stop,550.0,550.0,4.0,,,,,,,,,magenta,triangle
0.0,2.0,1.0,0.0,6.0,6.0,881.7669950000209,3.0,1.0,phase_2,go,550.0,600.0,1.0,,,,,,,,,gray,hexagon
0.0,1.0,0.5,0.0,5.0,5.0,555.515655000022,3.0,1.0,phase_2,go,550.0,600.0,1.0,,,,,,,,,yellow,diamond
0.0,6.0,1.0,1.0,6.0,0.0,0.0,3.0,1.0,phase_2,stop,550.0,600.0,4.0,,,,,,,,,white,cross
0.0,1.0,0.5,0.0,5.0,5.0,803.6259630000018,3.0,1.0,phase_2,go,550.0,650.0,1.0,,,,,,,,,yellow,diamond
0.0,1.0,0.5,0.0,6.0,6.0,959.3978639999818,3.0,1.0,phase_2,go,550.0,650.0,1.0,,,,,,,,,yellow,diamond
0.0,4.0,4.0,0.0,5.0,5.0,798.4310420000043,3.0,1.0,phase_2,go,550.0,650.0,1.0,,,,,,,,,orange,circle
0.0,3.0,2.0,0.0,5.0,5.0,762.1187679999935,3.0,1.0,phase_2,go,550.0,650.0,1.0,,,,,,,,,green,flipped triangle
0.0,4.0,4.0,0.0,6.0,6.0,733.5955830000103,3.0,1.0,phase_2,go,550.0,650.0,1.0,,,,,,,,,orange,circle
0.0,5.0,0.5,1.0,6.0,0.0,0.0,3.0,1.0,phase_2,stop,550.0,650.0,4.0,,,,,,,,,cyan,I
0.0,8.0,4.0,1.0,5.0,5.0,848.3205750000025,3.0,1.0,phase_2,go,550.0,700.0,1.0,,,,,,,,,blue,square
0.0,3.0,2.0,0.0,6.0,6.0,790.9220020000021,3.0,1.0,phase_2,go,550.0,700.0,1.0,,,,,,,,,green,flipped triangle
0.0,5.0,0.5,1.0,5.0,0.0,0.0,3.0,1.0,phase_2,stop,550.0,700.0,4.0,,,,,,,,,cyan,I
0.0,2.0,1.0,0.0,6.0,6.0,794.9666250000291,3.0,1.0,phase_2,go,600.0,700.0,1.0,,,,,,,,,gray,hexagon
0.0,4.0,4.0,0.0,5.0,5.0,810.591340999963,3.0,1.0,phase_2,go,600.0,700.0,1.0,,,,,,,,,orange,circle
0.0,8.0,4.0,1.0,5.0,0.0,0.0,3.0,1.0,phase_2,stop,600.0,700.0,4.0,,,,,,,,,blue,square
0.0,7.0,2.0,1.0,6.0,6.0,793.1541259999904,3.0,1.0,phase_2,stop,650.0,700.0,3.0,,,,,,,,,magenta,triangle
0.0,2.0,1.0,0.0,5.0,5.0,529.2579399999795,3.0,1.0,phase_2,go,650.0,650.0,1.0,,,,,,,,,gray,hexagon
0.0,8.0,4.0,1.0,6.0,0.0,0.0,3.0,1.0,phase_2,stop,650.0,650.0,4.0,,,,,,,,,blue,square
0.0,6.0,1.0,1.0,6.0,6.0,826.0494950000066,3.0,1.0,phase_2,stop,650.0,700.0,3.0,,,,,,,,,white,cross
0.0,1.0,0.5,0.0,6.0,6.0,927.5471029999948,3.0,1.0,phase_2,go,650.0,650.0,1.0,,,,,,,,,yellow,diamond
0.0,5.0,0.5,1.0,6.0,6.0,814.8118990000057,3.0,1.0,phase_2,go,650.0,650.0,1.0,,,,,,,,,cyan,I
0.0,4.0,4.0,0.0,6.0,6.0,957.9097060000096,3.0,1.0,phase_2,go,650.0,650.0,1.0,,,,,,,,,orange,circle
0.0,4.0,4.0,0.0,6.0,6.0,1023.8284290000479,3.0,1.0,phase_2,go,650.0,650.0,1.0,,,,,,,,,orange,circle
0.0,1.0,0.5,0.0,5.0,5.0,964.8904300000254,3.0,1.0,phase_2,go,650.0,650.0,1.0,,,,,,,,,yellow,diamond
0.0,3.0,2.0,0.0,5.0,5.0,924.2917060000196,3.0,1.0,phase_2,go,650.0,650.0,1.0,,,,,,,,,green,flipped triangle
0.0,6.0,1.0,1.0,5.0,5.0,901.6761430000316,3.0,1.0,phase_2,go,650.0,650.0,1.0,,,,,,,,,white,cross
0.0,2.0,1.0,0.0,5.0,5.0,982.6775860000224,3.0,1.0,phase_2,go,650.0,650.0,1.0,,,,,,,,,gray,hexagon
0.0,7.0,2.0,1.0,6.0,0.0,0.0,3.0,1.0,phase_2,stop,650.0,650.0,4.0,,,,,,,,,magenta,triangle
0.0,3.0,2.0,0.0,6.0,6.0,994.855662999953,3.0,1.0,phase_2,go,650.0,700.0,1.0,,,,,,,,,green,flipped triangle
0.0,7.0,2.0,1.0,5.0,5.0,1052.5742350000655,3.0,1.0,phase_2,go,650.0,700.0,1.0,,,,,,,,,magenta,triangle
0.0,5.0,0.5,1.0,5.0,0.0,0.0,3.0,1.0,phase_2,stop,650.0,700.0,4.0,,,,,,,,,cyan,I
0.0,6.0,1.0,1.0,6.0,0.0,0.0,3.0,1.0,phase_2,stop,700.0,700.0,4.0,,,,,,,,,white,cross
0.0,8.0,4.0,1.0,5.0,5.0,1042.1830919999593,3.0,1.0,phase_2,go,700.0,750.0,1.0,,,,,,,,,blue,square
0.0,3.0,2.0,0.0,5.0,5.0,1032.7379510000585,3.0,1.0,phase_2,go,700.0,750.0,1.0,,,,,,,,,green,flipped triangle
0.0,5.0,0.5,1.0,5.0,0.0,0.0,3.0,1.0,phase_2,stop,700.0,750.0,4.0,,,,,,,,,cyan,I
0.0,7.0,2.0,1.0,5.0,5.0,772.9016680000313,3.0,1.0,phase_2,stop,750.0,750.0,3.0,,,,,,,,,magenta,triangle
0.0,3.0,2.0,0.0,6.0,0.0,0.0,4.0,1.0,phase_2,go,700.0,750.0,5.0,,,,,,,,,green,flipped triangle
0.0,2.0,1.0,0.0,6.0,6.0,614.7956470000508,4.0,1.0,phase_2,go,700.0,750.0,1.0,,,,,,,,,gray,hexagon
0.0,6.0,1.0,1.0,6.0,6.0,876.3542269999789,4.0,1.0,phase_2,stop,700.0,750.0,3.0,,,,,,,,,white,cross
0.0,5.0,0.5,1.0,5.0,5.0,727.4750899999844,4.0,1.0,phase_2,go,700.0,700.0,1.0,,,,,,,,,cyan,I
0.0,6.0,1.0,1.0,6.0,6.0,619.6845360000225,4.0,1.0,phase_2,stop,700.0,700.0,3.0,,,,,,,,,white,cross
0.0,7.0,2.0,1.0,6.0,0.0,0.0,4.0,1.0,phase_2,stop,700.0,650.0,4.0,,,,,,,,,magenta,triangle
0.0,7.0,2.0,1.0,6.0,0.0,0.0,4.0,1.0,phase_2,stop,700.0,700.0,4.0,,,,,,,,,magenta,triangle
0.0,3.0,2.0,0.0,5.0,5.0,1212.6968779999745,4.0,1.0,phase_2,go,700.0,750.0,1.0,,,,,,,,,green,flipped triangle
0.0,3.0,2.0,0.0,6.0,6.0,834.3058049999854,4.0,1.0,phase_2,go,700.0,750.0,1.0,,,,,,,,,green,flipped triangle
0.0,3.0,2.0,0.0,5.0,5.0,969.2264689999774,4.0,1.0,phase_2,go,700.0,750.0,1.0,,,,,,,,,green,flipped triangle
0.0,6.0,1.0,1.0,6.0,0.0,0.0,4.0,1.0,phase_2,stop,700.0,750.0,4.0,,,,,,,,,white,cross
0.0,3.0,2.0,0.0,6.0,6.0,825.8937829999695,4.0,1.0,phase_2,go,700.0,800.0,1.0,,,,,,,,,green,flipped triangle
0.0,4.0,4.0,0.0,6.0,6.0,1111.0153439999522,4.0,1.0,phase_2,go,700.0,800.0,1.0,,,,,,,,,orange,circle
0.0,4.0,4.0,0.0,5.0,5.0,1056.5068389998942,4.0,1.0,phase_2,go,700.0,800.0,1.0,,,,,,,,,orange,circle
0.0,3.0,2.0,0.0,6.0,6.0,1265.8009289999654,4.0,1.0,phase_2,go,700.0,800.0,1.0,,,,,,,,,green,flipped triangle
0.0,8.0,4.0,1.0,5.0,0.0,0.0,4.0,1.0,phase_2,stop,700.0,800.0,4.0,,,,,,,,,blue,square
0.0,4.0,4.0,0.0,6.0,6.0,1016.356961999918,4.0,1.0,phase_2,go,750.0,800.0,1.0,,,,,,,,,orange,circle
0.0,8.0,4.0,1.0,5.0,0.0,0.0,4.0,1.0,phase_2,stop,750.0,800.0,4.0,,,,,,,,,blue,square
0.0,5.0,0.5,1.0,6.0,0.0,0.0,4.0,1.0,phase_2,stop,800.0,800.0,4.0,,,,,,,,,cyan,I
0.0,4.0,4.0,0.0,5.0,5.0,1318.4127289999878,4.0,1.0,phase_2,go,800.0,850.0,1.0,,,,,,,,,orange,circle
0.0,5.0,0.5,1.0,5.0,0.0,0.0,4.0,1.0,phase_2,stop,800.0,850.0,4.0,,,,,,,,,cyan,I
0.0,6.0,1.0,1.0,5.0,0.0,0.0,4.0,1.0,phase_2,stop,850.0,850.0,4.0,,,,,,,,,white,cross
0.0,6.0,1.0,1.0,5.0,0.0,0.0,4.0,1.0,phase_2,stop,900.0,850.0,4.0,,,,,,,,,white,cross
0.0,5.0,0.5,1.0,5.0,5.0,1160.8317650000115,4.0,1.0,phase_2,go,950.0,850.0,1.0,,,,,,,,,cyan,I
0.0,6.0,1.0,1.0,6.0,0.0,0.0,4.0,1.0,phase_2,stop,950.0,850.0,4.0,,,,,,,,,white,cross
0.0,8.0,4.0,1.0,5.0,5.0,1200.8783779999703,4.0,1.0,phase_2,go,950.0,900.0,1.0,,,,,,,,,blue,square
0.0,6.0,1.0,1.0,5.0,0.0,0.0,4.0,1.0,phase_2,stop,950.0,900.0,4.0,,,,,,,,,white,cross
0.0,2.0,1.0,0.0,6.0,6.0,1142.859958000031,4.0,1.0,phase_2,go,1000.0,900.0,1.0,,,,,,,,,gray,hexagon
0.0,5.0,0.5,1.0,6.0,6.0,1006.4360540000052,4.0,1.0,phase_2,stop,1000.0,900.0,3.0,,,,,,,,,cyan,I
0.0,2.0,1.0,0.0,5.0,5.0,1157.516110000074,4.0,1.0,phase_2,go,1000.0,850.0,1.0,,,,,,,,,gray,hexagon
0.0,7.0,2.0,1.0,5.0,5.0,989.2411529999664,4.0,1.0,phase_2,stop,1000.0,850.0,3.0,,,,,,,,,magenta,triangle
0.0,6.0,1.0,1.0,5.0,5.0,886.8300649999128,4.0,1.0,phase_2,go,950.0,850.0,1.0,,,,,,,,,white,cross
0.0,4.0,4.0,0.0,6.0,6.0,751.6330710000148,4.0,1.0,phase_2,go,950.0,850.0,1.0,,,,,,,,,orange,circle
0.0,5.0,0.5,1.0,5.0,5.0,765.4386170000862,4.0,1.0,phase_2,stop,950.0,850.0,3.0,,,,,,,,,cyan,I
0.0,7.0,2.0,1.0,5.0,5.0,1021.6233490000377,4.0,1.0,phase_2,stop,900.0,850.0,3.0,,,,,,,,,magenta,triangle
0.0,3.0,2.0,0.0,6.0,6.0,1124.2734200000086,4.0,1.0,phase_2,go,850.0,850.0,1.0,,,,,,,,,green,flipped triangle
0.0,4.0,4.0,0.0,5.0,5.0,630.958512999996,5.0,1.0,phase_2,go,850.0,850.0,1.0,,,,,,,,,orange,circle
0.0,1.0,0.5,0.0,6.0,6.0,554.9858480000012,5.0,1.0,phase_2,go,850.0,850.0,1.0,,,,,,,,,yellow,diamond
0.0,6.0,1.0,1.0,6.0,6.0,788.0415350000476,5.0,1.0,phase_2,stop,850.0,850.0,3.0,,,,,,,,,white,cross
0.0,3.0,2.0,0.0,5.0,5.0,970.5036879998944,5.0,1.0,phase_2,go,850.0,800.0,1.0,,,,,,,,,green,flipped triangle
0.0,4.0,4.0,0.0,5.0,5.0,929.982578000022,5.0,1.0,phase_2,go,850.0,800.0,1.0,,,,,,,,,orange,circle
0.0,2.0,1.0,0.0,6.0,6.0,779.2143120000219,5.0,1.0,phase_2,go,850.0,800.0,1.0,,,,,,,,,gray,hexagon
0.0,1.0,0.5,0.0,5.0,5.0,985.0886819999688,5.0,1.0,phase_2,go,850.0,800.0,1.0,,,,,,,,,yellow,diamond
0.0,7.0,2.0,1.0,6.0,6.0,872.2264169999789,5.0,1.0,phase_2,stop,850.0,800.0,3.0,,,,,,,,,magenta,triangle
0.0,6.0,1.0,1.0,5.0,5.0,432.0147429999679,5.0,1.0,phase_2,go,850.0,750.0,1.0,,,,,,,,,white,cross
0.0,2.0,1.0,0.0,6.0,6.0,873.0693129999736,5.0,1.0,phase_2,go,850.0,750.0,1.0,,,,,,,,,gray,hexagon
0.0,5.0,0.5,1.0,6.0,6.0,817.435213000067,5.0,1.0,phase_2,go,850.0,750.0,1.0,,,,,,,,,cyan,I
0.0,5.0,0.5,1.0,5.0,5.0,783.2873730000074,5.0,1.0,phase_2,stop,850.0,750.0,3.0,,,,,,,,,cyan,I
0.0,8.0,4.0,1.0,6.0,6.0,864.2914890000384,5.0,1.0,phase_2,go,800.0,750.0,1.0,,,,,,,,,blue,square
0.0,4.0,4.0,0.0,6.0,6.0,989.193083000032,5.0,1.0,phase_2,go,800.0,750.0,1.0,,,,,,,,,orange,circle
0.0,1.0,0.5,0.0,5.0,5.0,1405.840248000004,5.0,1.0,phase_2,go,800.0,750.0,1.0,,,,,,,,,yellow,diamond
0.0,8.0,4.0,1.0,5.0,0.0,0.0,5.0,1.0,phase_2,stop,800.0,750.0,4.0,,,,,,,,,blue,square
0.0,2.0,1.0,0.0,5.0,5.0,827.4322050000364,5.0,1.0,phase_2,go,850.0,750.0,1.0,,,,,,,,,gray,hexagon
0.0,8.0,4.0,1.0,6.0,0.0,0.0,5.0,1.0,phase_2,stop,850.0,750.0,4.0,,,,,,,,,blue,square
0.0,6.0,1.0,1.0,5.0,0.0,0.0,5.0,1.0,phase_2,stop,850.0,800.0,4.0,,,,,,,,,white,cross
0.0,7.0,2.0,1.0,5.0,0.0,0.0,5.0,1.0,phase_2,stop,900.0,800.0,4.0,,,,,,,,,magenta,triangle
0.0,3.0,2.0,0.0,5.0,5.0,988.108499999953,5.0,1.0,phase_2,go,950.0,800.0,1.0,,,,,,,,,green,flipped triangle
0.0,2.0,1.0,0.0,5.0,5.0,1264.835888999983,5.0,1.0,phase_2,go,950.0,800.0,1.0,,,,,,,,,gray,hexagon
0.0,2.0,1.0,0.0,6.0,6.0,1211.706036999999,5.0,1.0,phase_2,go,950.0,800.0,1.0,,,,,,,,,gray,hexagon
0.0,7.0,2.0,1.0,6.0,0.0,0.0,5.0,1.0,phase_2,stop,950.0,800.0,4.0,,,,,,,,,magenta,triangle
0.0,2.0,1.0,0.0,5.0,5.0,1335.1265029999697,5.0,1.0,phase_2,go,950.0,850.0,1.0,,,,,,,,,gray,hexagon
0.0,6.0,1.0,1.0,5.0,0.0,0.0,5.0,1.0,phase_2,stop,950.0,850.0,4.0,,,,,,,,,white,cross
0.0,8.0,4.0,1.0,5.0,0.0,0.0,5.0,1.0,phase_2,stop,1000.0,850.0,4.0,,,,,,,,,blue,square
0.0,2.0,1.0,0.0,5.0,5.0,1300.7701289999432,5.0,1.0,phase_2,go,1050.0,850.0,1.0,,,,,,,,,gray,hexagon
0.0,6.0,1.0,1.0,6.0,0.0,0.0,5.0,1.0,phase_2,stop,1050.0,850.0,4.0,,,,,,,,,white,cross
0.0,2.0,1.0,0.0,6.0,6.0,1243.6600329999692,5.0,1.0,phase_2,go,1050.0,900.0,1.0,,,,,,,,,gray,hexagon
0.0,2.0,1.0,0.0,5.0,5.0,1204.060158999937,5.0,1.0,phase_2,go,1050.0,900.0,1.0,,,,,,,,,gray,hexagon
0.0,6.0,1.0,1.0,5.0,5.0,1412.2490160000325,5.0,1.0,phase_2,go,1050.0,900.0,1.0,,,,,,,,,white,cross
0.0,6.0,1.0,1.0,6.0,6.0,1140.3343399999812,5.0,1.0,phase_2,go,1050.0,900.0,1.0,,,,,,,,,white,cross
0.0,4.0,4.0,0.0,5.0,5.0,1306.7577280000933,5.0,1.0,phase_2,go,1050.0,900.0,1.0,,,,,,,,,orange,circle
0.0,8.0,4.0,1.0,6.0,0.0,0.0,5.0,1.0,phase_2,stop,1050.0,900.0,4.0,,,,,,,,,blue,square
0.0,2.0,1.0,0.0,6.0,0.0,0.0,5.0,1.0,phase_2,go,1050.0,950.0,5.0,,,,,,,,,gray,hexagon
0.0,5.0,0.5,1.0,5.0,5.0,830.1475700000083,6.0,1.0,phase_2,stop,1050.0,950.0,3.0,,,,,,,,,cyan,I
0.0,7.0,2.0,1.0,6.0,6.0,877.2038460000431,6.0,1.0,phase_2,go,1000.0,950.0,1.0,,,,,,,,,magenta,triangle
0.0,6.0,1.0,1.0,5.0,5.0,774.665787999993,6.0,1.0,phase_2,go,1000.0,950.0,1.0,,,,,,,,,white,cross
0.0,8.0,4.0,1.0,6.0,6.0,781.9224380000378,6.0,1.0,phase_2,stop,1000.0,950.0,3.0,,,,,,,,,blue,square
0.0,3.0,2.0,0.0,5.0,5.0,1381.002321999972,6.0,1.0,phase_2,go,1000.0,900.0,1.0,,,,,,,,,green,flipped triangle
0.0,2.0,1.0,0.0,5.0,5.0,1265.8406350000178,6.0,1.0,phase_2,go,1000.0,900.0,1.0,,,,,,,,,gray,hexagon
0.0,7.0,2.0,1.0,6.0,0.0,0.0,6.0,1.0,phase_2,stop,1000.0,900.0,4.0,,,,,,,,,magenta,triangle
0.0,5.0,0.5,1.0,5.0,5.0,1364.1624649999358,6.0,1.0,phase_2,go,1000.0,950.0,1.0,,,,,,,,,cyan,I
0.0,2.0,1.0,0.0,5.0,5.0,1208.4489530000155,6.0,1.0,phase_2,go,1000.0,950.0,1.0,,,,,,,,,gray,hexagon
0.0,4.0,4.0,0.0,5.0,5.0,1155.5726149999828,6.0,1.0,phase_2,go,1000.0,950.0,1.0,,,,,,,,,orange,circle
0.0,8.0,4.0,1.0,5.0,5.0,1040.6176579999735,6.0,1.0,phase_2,stop,1000.0,950.0,3.0,,,,,,,,,blue,square
0.0,1.0,0.5,0.0,6.0,6.0,630.4614059999949,6.0,1.0,phase_2,go,950.0,950.0,1.0,,,,,,,,,yellow,diamond
0.0,7.0,2.0,1.0,5.0,0.0,0.0,6.0,1.0,phase_2,stop,950.0,950.0,4.0,,,,,,,,,magenta,triangle
0.0,4.0,4.0,0.0,6.0,6.0,1157.1976810000706,6.0,1.0,phase_2,go,1000.0,950.0,1.0,,,,,,,,,orange,circle
0.0,7.0,2.0,1.0,5.0,5.0,1325.1009520000707,6.0,1.0,phase_2,go,1000.0,950.0,1.0,,,,,,,,,magenta,triangle
0.0,4.0,4.0,0.0,6.0,6.0,950.3704940000262,6.0,1.0,phase_2,go,1000.0,950.0,1.0,,,,,,,,,orange,circle
0.0,8.0,4.0,1.0,6.0,0.0,0.0,6.0,1.0,phase_2,stop,1000.0,950.0,4.0,,,,,,,,,blue,square
0.0,6.0,1.0,1.0,5.0,0.0,0.0,6.0,1.0,phase_2,stop,1000.0,1000.0,4.0,,,,,,,,,white,cross
0.0,1.0,0.5,0.0,5.0,5.0,524.3725889999951,6.0,1.0,phase_2,go,1050.0,1000.0,1.0,,,,,,,,,yellow,diamond
0.0,3.0,2.0,0.0,5.0,5.0,630.1026529999945,6.0,1.0,phase_2,go,1050.0,1000.0,1.0,,,,,,,,,green,flipped triangle
0.0,8.0,4.0,1.0,5.0,5.0,964.2107130000568,6.0,1.0,phase_2,go,1050.0,1000.0,1.0,,,,,,,,,blue,square
0.0,2.0,1.0,0.0,6.0,6.0,673.8934659999813,6.0,1.0,phase_2,go,1050.0,1000.0,1.0,,,,,,,,,gray,hexagon
0.0,7.0,2.0,1.0,5.0,5.0,987.4641819999396,6.0,1.0,phase_2,stop,1050.0,1000.0,3.0,,,,,,,,,magenta,triangle
0.0,8.0,4.0,1.0,6.0,6.0,627.8233169999794,6.0,1.0,phase_2,go,1000.0,1000.0,1.0,,,,,,,,,blue,square
0.0,4.0,4.0,0.0,5.0,5.0,674.8422690000098,6.0,1.0,phase_2,go,1000.0,1000.0,1.0,,,,,,,,,orange,circle
0.0,8.0,4.0,1.0,6.0,6.0,1047.023005999904,6.0,1.0,phase_2,go,1000.0,1000.0,1.0,,,,,,,,,blue,square
0.0,7.0,2.0,1.0,6.0,6.0,839.5606470000985,6.0,1.0,phase_2,stop,1000.0,1000.0,3.0,,,,,,,,,magenta,triangle
0.0,7.0,2.0,1.0,6.0,6.0,696.2711969999873,6.0,1.0,phase_2,stop,1000.0,950.0,3.0,,,,,,,,,magenta,triangle
0.0,1.0,0.5,0.0,6.0,6.0,872.2913290000633,6.0,1.0,phase_2,go,1000.0,900.0,1.0,,,,,,,,,yellow,diamond
0.0,3.0,2.0,0.0,6.0,6.0,560.6925609999962,6.0,1.0,phase_2,go,1000.0,900.0,1.0,,,,,,,,,green,flipped triangle
0.0,8.0,4.0,1.0,6.0,6.0,676.6413029999967,6.0,1.0,phase_2,stop,1000.0,900.0,3.0,,,,,,,,,blue,square
0.0,2.0,1.0,0.0,5.0,5.0,884.3296699999428,6.0,1.0,phase_2,go,1000.0,850.0,1.0,,,,,,,,,gray,hexagon
0.0,3.0,2.0,0.0,6.0,6.0,437.7146510000784,6.0,1.0,phase_2,go,1000.0,850.0,1.0,,,,,,,,,green,flipped triangle
0.0,1.0,0.5,0.0,6.0,6.0,828.3309190001091,6.0,1.0,phase_2,go,1000.0,850.0,1.0,,,,,,,,,yellow,diamond
0.0,2.0,1.0,0.0,6.0,6.0,421.7488879999109,6.0,1.0,phase_2,go,1000.0,850.0,1.0,,,,,,,,,gray,hexagon
0.0,1.0,0.5,0.0,6.0,6.0,636.3070150000567,6.0,1.0,phase_2,go,1000.0,850.0,1.0,,,,,,,,,yellow,diamond
0.0,8.0,4.0,1.0,5.0,5.0,701.9653830000152,7.0,1.0,phase_2,stop,1000.0,850.0,3.0,,,,,,,,,blue,square
0.0,4.0,4.0,0.0,5.0,5.0,558.7691140001425,7.0,1.0,phase_2,go,950.0,850.0,1.0,,,,,,,,,orange,circle
0.0,7.0,2.0,1.0,5.0,5.0,815.2120449999529,7.0,1.0,phase_2,stop,950.0,850.0,3.0,,,,,,,,,magenta,triangle
0.0,6.0,1.0,1.0,5.0,5.0,791.1592079999537,7.0,1.0,phase_2,stop,900.0,850.0,3.0,,,,,,,,,white,cross
0.0,4.0,4.0,0.0,5.0,5.0,964.2853160000868,7.0,1.0,phase_2,go,850.0,850.0,1.0,,,,,,,,,orange,circle
0.0,7.0,2.0,1.0,6.0,6.0,922.4765080000452,7.0,1.0,phase_2,go,850.0,850.0,1.0,,,,,,,,,magenta,triangle
0.0,5.0,0.5,1.0,6.0,0.0,0.0,7.0,1.0,phase_2,stop,850.0,850.0,4.0,,,,,,,,,cyan,I
0.0,1.0,0.5,0.0,6.0,6.0,947.0268840000244,7.0,1.0,phase_2,go,850.0,900.0,1.0,,,,,,,,,yellow,diamond
0.0,1.0,0.5,0.0,5.0,5.0,972.7283930001248,7.0,1.0,phase_2,go,850.0,900.0,1.0,,,,,,,,,yellow,diamond
0.0,1.0,0.5,0.0,6.0,6.0,1002.8669469998022,7.0,1.0,phase_2,go,850.0,900.0,1.0,,,,,,,,,yellow,diamond
0.0,4.0,4.0,0.0,6.0,6.0,1081.2460129998271,7.0,1.0,phase_2,go,850.0,900.0,1.0,,,,,,,,,orange,circle
0.0,7.0,2.0,1.0,6.0,0.0,0.0,7.0,1.0,phase_2,stop,850.0,900.0,4.0,,,,,,,,,magenta,triangle
0.0,3.0,2.0,0.0,6.0,6.0,1190.5894000001354,7.0,1.0,phase_2,go,850.0,950.0,1.0,,,,,,,,,green,flipped triangle
0.0,7.0,2.0,1.0,6.0,6.0,1197.3650059999272,7.0,1.0,phase_2,go,850.0,950.0,1.0,,,,,,,,,magenta,triangle
0.0,8.0,4.0,1.0,6.0,0.0,0.0,7.0,1.0,phase_2,stop,850.0,950.0,4.0,,,,,,,,,blue,square
0.0,1.0,0.5,0.0,5.0,5.0,1052.3078290000285,7.0,1.0,phase_2,go,850.0,1000.0,1.0,,,,,,,,,yellow,diamond
0.0,1.0,0.5,0.0,5.0,5.0,942.66030100016,7.0,1.0,phase_2,go,850.0,1000.0,1.0,,,,,,,,,yellow,diamond
0.0,6.0,1.0,1.0,6.0,6.0,1110.1525429999128,7.0,1.0,phase_2,stop,850.0,1000.0,3.0,,,,,,,,,white,cross
0.0,2.0,1.0,0.0,5.0,5.0,798.4734910000952,7.0,1.0,phase_2,go,850.0,950.0,1.0,,,,,,,,,gray,hexagon
0.0,6.0,1.0,1.0,5.0,5.0,878.0449920000137,7.0,1.0,phase_2,go,850.0,950.0,1.0,,,,,,,,,white,cross
0.0,6.0,1.0,1.0,6.0,0.0,0.0,7.0,1.0,phase_2,stop,850.0,950.0,4.0,,,,,,,,,white,cross
0.0,7.0,2.0,1.0,5.0,0.0,0.0,7.0,1.0,phase_2,stop,850.0,1000.0,4.0,,,,,,,,,magenta,triangle
0.0,1.0,0.5,0.0,5.0,5.0,1396.215532000042,7.0,1.0,phase_2,go,900.0,1000.0,1.0,,,,,,,,,yellow,diamond
0.0,4.0,4.0,0.0,5.0,5.0,1419.9236029999156,7.0,1.0,phase_2,go,900.0,1000.0,1.0,,,,,,,,,orange,circle
0.0,1.0,0.5,0.0,6.0,6.0,920.1812070000416,7.0,1.0,phase_2,go,900.0,1000.0,1.0,,,,,,,,,yellow,diamond
0.0,2.0,1.0,0.0,5.0,5.0,753.1964260001587,7.0,1.0,phase_2,go,900.0,1000.0,1.0,,,,,,,,,gray,hexagon
0.0,6.0,1.0,1.0,6.0,6.0,465.9886570000253,7.0,1.0,phase_2,go,900.0,1000.0,1.0,,,,,,,,,white,cross
0.0,4.0,4.0,0.0,6.0,6.0,582.7383859998463,7.0,1.0,phase_2,go,900.0,1000.0,1.0,,,,,,,,,orange,circle
0.0,8.0,4.0,1.0,5.0,5.0,497.7591240001402,7.0,1.0,phase_2,stop,900.0,1000.0,3.0,,,,,,,,,blue,square
0.0,3.0,2.0,0.0,5.0,6.0,389.0371339998637,7.0,1.0,phase_2,go,850.0,1000.0,2.0,,,,,,,,,green,flipped triangle
0.0,5.0,0.5,1.0,6.0,6.0,533.1913739998981,7.0,1.0,phase_2,stop,850.0,1000.0,3.0,,,,,,,,,cyan,I
0.0,2.0,1.0,0.0,5.0,5.0,911.319340000091,7.0,1.0,phase_2,go,850.0,950.0,1.0,,,,,,,,,gray,hexagon
0.0,4.0,4.0,0.0,6.0,6.0,1051.3827750000928,7.0,1.0,phase_2,go,850.0,950.0,1.0,,,,,,,,,orange,circle
0.0,1.0,0.5,0.0,6.0,6.0,683.9427740001156,7.0,1.0,phase_2,go,850.0,950.0,1.0,,,,,,,,,yellow,diamond
0.0,8.0,4.0,1.0,6.0,6.0,476.623636000113,7.0,1.0,phase_2,stop,850.0,950.0,3.0,,,,,,,,,blue,square
0.0,8.0,4.0,1.0,6.0,0.0,0.0,7.0,1.0,phase_2,stop,850.0,900.0,4.0,,,,,,,,,blue,square
0.0,5.0,0.5,1.0,6.0,6.0,769.4856600001003,8.0,1.0,phase_2,stop,850.0,950.0,3.0,,,,,,,,,cyan,I
0.0,8.0,4.0,1.0,5.0,5.0,813.1957809998767,8.0,1.0,phase_2,go,850.0,900.0,1.0,,,,,,,,,blue,square
0.0,5.0,0.5,1.0,5.0,0.0,0.0,8.0,1.0,phase_2,stop,850.0,900.0,4.0,,,,,,,,,cyan,I
0.0,2.0,1.0,0.0,5.0,5.0,932.0146509999176,8.0,1.0,phase_2,go,900.0,900.0,1.0,,,,,,,,,gray,hexagon
0.0,1.0,0.5,0.0,6.0,6.0,884.8047210001369,8.0,1.0,phase_2,go,900.0,900.0,1.0,,,,,,,,,yellow,diamond
0.0,3.0,2.0,0.0,6.0,6.0,1211.1959929998193,8.0,1.0,phase_2,go,900.0,900.0,1.0,,,,,,,,,green,flipped triangle
0.0,6.0,1.0,1.0,6.0,6.0,1299.525870000025,8.0,1.0,phase_2,go,900.0,900.0,1.0,,,,,,,,,white,cross
0.0,8.0,4.0,1.0,6.0,0.0,0.0,8.0,1.0,phase_2,stop,900.0,900.0,4.0,,,,,,,,,blue,square
0.0,2.0,1.0,0.0,6.0,6.0,1354.2581260001043,8.0,1.0,phase_2,go,900.0,950.0,1.0,,,,,,,,,gray,hexagon
0.0,6.0,1.0,1.0,5.0,0.0,0.0,8.0,1.0,phase_2,stop,900.0,950.0,4.0,,,,,,,,,white,cross
0.0,6.0,1.0,1.0,5.0,0.0,0.0,8.0,1.0,phase_2,stop,950.0,950.0,4.0,,,,,,,,,white,cross
0.0,1.0,0.5,0.0,5.0,5.0,1121.2692169999627,8.0,1.0,phase_2,go,1000.0,950.0,1.0,,,,,,,,,yellow,diamond
0.0,4.0,4.0,0.0,6.0,6.0,1306.7628290000357,8.0,1.0,phase_2,go,1000.0,950.0,1.0,,,,,,,,,orange,circle
0.0,1.0,0.5,0.0,5.0,5.0,1121.5408939999634,8.0,1.0,phase_2,go,1000.0,950.0,1.0,,,,,,,,,yellow,diamond
0.0,5.0,0.5,1.0,6.0,0.0,0.0,8.0,1.0,phase_2,stop,1000.0,950.0,4.0,,,,,,,,,cyan,I
0.0,3.0,2.0,0.0,5.0,5.0,1055.735157000072,8.0,1.0,phase_2,go,1000.0,1000.0,1.0,,,,,,,,,green,flipped triangle
0.0,3.0,2.0,0.0,6.0,6.0,1244.9246849998872,8.0,1.0,phase_2,go,1000.0,1000.0,1.0,,,,,,,,,green,flipped triangle
0.0,2.0,1.0,0.0,6.0,6.0,1063.7817269998775,8.0,1.0,phase_2,go,1000.0,1000.0,1.0,,,,,,,,,gray,hexagon
0.0,2.0,1.0,0.0,6.0,6.0,1075.466219000191,8.0,1.0,phase_2,go,1000.0,1000.0,1.0,,,,,,,,,gray,hexagon
0.0,5.0,0.5,1.0,6.0,6.0,1125.267919999942,8.0,1.0,phase_2,stop,1000.0,1000.0,3.0,,,,,,,,,cyan,I
0.0,6.0,1.0,1.0,6.0,0.0,0.0,8.0,1.0,phase_2,stop,1000.0,950.0,4.0,,,,,,,,,white,cross
0.0,7.0,2.0,1.0,5.0,5.0,1054.1372380000666,8.0,1.0,phase_2,go,1000.0,1000.0,1.0,,,,,,,,,magenta,triangle
0.0,5.0,0.5,1.0,6.0,0.0,0.0,8.0,1.0,phase_2,stop,1000.0,1000.0,4.0,,,,,,,,,cyan,I
0.0,3.0,2.0,0.0,5.0,5.0,1209.0376290000222,8.0,1.0,phase_2,go,1000.0,1050.0,1.0,,,,,,,,,green,flipped triangle
0.0,3.0,2.0,0.0,5.0,5.0,1155.754368000089,8.0,1.0,phase_2,go,1000.0,1050.0,1.0,,,,,,,,,green,flipped triangle
0.0,8.0,4.0,1.0,6.0,0.0,0.0,8.0,1.0,phase_2,stop,1000.0,1050.0,4.0,,,,,,,,,blue,square
0.0,1.0,0.5,0.0,5.0,5.0,888.8449309999942,8.0,1.0,phase_2,go,1000.0,1100.0,1.0,,,,,,,,,yellow,diamond
0.0,5.0,0.5,1.0,6.0,6.0,1038.9965520000717,8.0,1.0,phase_2,stop,1000.0,1100.0,3.0,,,,,,,,,cyan,I
0.0,4.0,4.0,0.0,5.0,5.0,689.4808009999451,8.0,1.0,phase_2,go,1000.0,1050.0,1.0,,,,,,,,,orange,circle
0.0,3.0,2.0,0.0,5.0,5.0,1430.741964999925,8.0,1.0,phase_2,go,1000.0,1050.0,1.0,,,,,,,,,green,flipped triangle
0.0,7.0,2.0,1.0,5.0,5.0,1304.802195999855,8.0,1.0,phase_2,go,1000.0,1050.0,1.0,,,,,,,,,magenta,triangle
0.0,8.0,4.0,1.0,6.0,6.0,941.2914590000128,8.0,1.0,phase_2,stop,1000.0,1050.0,3.0,,,,,,,,,blue,square
0.0,4.0,4.0,0.0,5.0,5.0,1029.737909000005,8.0,1.0,phase_2,go,1000.0,1000.0,1.0,,,,,,,,,orange,circle
0.0,6.0,1.0,1.0,5.0,0.0,0.0,8.0,1.0,phase_2,stop,1000.0,1000.0,4.0,,,,,,,,,white,cross
0.0,5.0,0.5,1.0,6.0,0.0,0.0,8.0,1.0,phase_2,stop,1050.0,1000.0,4.0,,,,,,,,,cyan,I
0.0,3.0,2.0,0.0,6.0,6.0,1037.8438220000137,8.0,1.0,phase_2,go,1050.0,1050.0,1.0,,,,,,,,,green,flipped triangle
0.0,1.0,0.5,0.0,7.0,2.0,2090.261110000029,1.0,2.0,phase_3,,,,,162.0,3.0,270.0,162.0,54.0,324.0,108.0,216.0,yellow,diamond
0.0,5.0,0.5,1.0,7.0,5.0,2167.9668710000897,1.0,1.0,phase_3,,,,,102.0,3.0,34.0,136.0,68.0,170.0,102.0,204.0,cyan,I
0.0,1.0,0.5,0.0,7.0,1.0,3988.095757999872,1.0,1.0,phase_3,,,,,136.0,4.0,136.0,68.0,170.0,204.0,102.0,34.0,yellow,diamond
0.0,4.0,4.0,0.0,7.0,4.0,2460.464999999885,1.0,1.0,phase_3,,,,,270.0,5.0,54.0,216.0,324.0,270.0,162.0,108.0,orange,circle
0.0,6.0,1.0,1.0,7.0,6.0,3077.668071000062,1.0,1.0,phase_3,,,,,68.0,2.0,170.0,102.0,204.0,34.0,136.0,68.0,white,cross
0.0,3.0,2.0,0.0,7.0,5.0,1406.1401050000768,1.0,1.0,phase_3,,,,,88.0,2.0,176.0,220.0,44.0,264.0,88.0,132.0,green,flipped triangle
0.0,5.0,0.5,1.0,7.0,3.0,1780.4064829999788,1.0,1.0,phase_3,,,,,324.0,6.0,216.0,108.0,324.0,270.0,54.0,162.0,cyan,I
0.0,7.0,2.0,1.0,7.0,5.0,1438.5477149999133,1.0,1.0,phase_3,,,,,245.0,5.0,196.0,147.0,98.0,294.0,245.0,49.0,magenta,triangle
0.0,4.0,4.0,0.0,7.0,2.0,1651.3998850000462,1.0,1.0,phase_3,,,,,98.0,2.0,196.0,98.0,245.0,294.0,147.0,49.0,orange,circle
0.0,3.0,2.0,0.0,7.0,6.0,1226.726627000062,1.0,1.0,phase_3,,,,,68.0,2.0,102.0,170.0,34.0,136.0,204.0,68.0,green,flipped triangle
0.0,4.0,4.0,0.0,7.0,4.0,849.7379410000576,1.0,1.0,phase_3,,,,,162.0,3.0,54.0,108.0,270.0,162.0,324.0,216.0,orange,circle
0.0,1.0,0.5,0.0,7.0,3.0,1662.6509279999482,1.0,1.0,phase_3,,,,,117.0,3.0,195.0,78.0,117.0,39.0,234.0,156.0,yellow,diamond
0.0,2.0,1.0,0.0,7.0,4.0,1172.924890000104,1.0,1.0,phase_3,,,,,88.0,2.0,176.0,220.0,44.0,88.0,264.0,132.0,gray,hexagon
0.0,2.0,1.0,0.0,7.0,5.0,1390.514494000172,1.0,1.0,phase_3,,,,,54.0,1.0,216.0,108.0,162.0,270.0,54.0,324.0,gray,hexagon
0.0,1.0,0.5,0.0,7.0,3.0,1153.611173000172,1.0,1.0,phase_3,,,,,196.0,4.0,245.0,98.0,196.0,49.0,294.0,147.0,yellow,diamond
0.0,7.0,2.0,1.0,7.0,2.0,1473.9379559998724,1.0,1.0,phase_3,,,,,44.0,1.0,176.0,44.0,220.0,88.0,132.0,264.0,magenta,triangle
0.0,6.0,1.0,1.0,7.0,5.0,1692.5363070001822,1.0,1.0,phase_3,,,,,39.0,1.0,234.0,117.0,156.0,195.0,39.0,78.0,white,cross
0.0,6.0,1.0,1.0,7.0,2.0,2950.962064999885,1.0,1.0,phase_3,,,,,147.0,3.0,294.0,147.0,245.0,98.0,49.0,196.0,white,cross
0.0,5.0,0.5,1.0,7.0,3.0,2230.797629000108,1.0,1.0,phase_3,,,,,264.0,6.0,220.0,176.0,264.0,132.0,88.0,44.0,cyan,I
0.0,3.0,2.0,0.0,7.0,5.0,1698.459370999899,1.0,1.0,phase_3,,,,,136.0,4.0,204.0,170.0,34.0,68.0,136.0,102.0,green,flipped triangle
0.0,7.0,2.0,1.0,7.0,3.0,2175.664588000018,2.0,1.0,phase_3,,,,,196.0,4.0,294.0,245.0,196.0,147.0,49.0,98.0,magenta,triangle
0.0,3.0,2.0,0.0,7.0,3.0,1305.0611240000762,2.0,1.0,phase_3,,,,,54.0,1.0,162.0,216.0,54.0,270.0,108.0,324.0,green,flipped triangle
0.0,7.0,2.0,1.0,7.0,6.0,1722.5797300000067,2.0,1.0,phase_3,,,,,204.0,6.0,68.0,170.0,136.0,34.0,102.0,204.0,magenta,triangle
0.0,7.0,2.0,1.0,7.0,6.0,989.9284180000903,2.0,1.0,phase_3,,,,,204.0,6.0,102.0,170.0,136.0,68.0,34.0,204.0,magenta,triangle
0.0,3.0,2.0,0.0,7.0,1.0,2167.819588999919,2.0,1.0,phase_3,,,,,132.0,3.0,132.0,176.0,264.0,44.0,88.0,220.0,green,flipped triangle
0.0,1.0,0.5,0.0,7.0,3.0,2122.3422890000165,2.0,1.0,phase_3,,,,,132.0,3.0,264.0,220.0,132.0,176.0,44.0,88.0,yellow,diamond
0.0,7.0,2.0,1.0,7.0,6.0,2000.4057109999849,2.0,1.0,phase_3,,,,,216.0,4.0,270.0,54.0,162.0,108.0,324.0,216.0,magenta,triangle
0.0,6.0,1.0,1.0,7.0,3.0,1483.5949590001292,2.0,1.0,phase_3,,,,,44.0,1.0,176.0,220.0,44.0,88.0,264.0,132.0,white,cross
0.0,8.0,4.0,1.0,7.0,1.0,950.4946329998348,2.0,1.0,phase_3,,,,,78.0,2.0,78.0,234.0,156.0,117.0,195.0,39.0,blue,square
0.0,3.0,2.0,0.0,7.0,3.0,2222.190425000008,2.0,1.0,phase_3,,,,,49.0,1.0,196.0,147.0,49.0,245.0,294.0,98.0,green,flipped triangle
0.0,3.0,2.0,0.0,7.0,2.0,1696.478081999885,2.0,1.0,phase_3,,,,,54.0,1.0,216.0,54.0,270.0,108.0,324.0,162.0,green,flipped triangle
0.0,8.0,4.0,1.0,7.0,5.0,1065.921765999974,2.0,1.0,phase_3,,,,,294.0,6.0,49.0,98.0,196.0,147.0,294.0,245.0,blue,square
0.0,2.0,1.0,0.0,7.0,4.0,1443.483785000126,2.0,1.0,phase_3,,,,,264.0,6.0,176.0,88.0,44.0,264.0,220.0,132.0,gray,hexagon
0.0,2.0,1.0,0.0,7.0,3.0,2236.134710999977,2.0,1.0,phase_3,,,,,204.0,6.0,34.0,102.0,204.0,170.0,136.0,68.0,gray,hexagon
0.0,2.0,1.0,0.0,7.0,4.0,2493.7689139999293,2.0,1.0,phase_3,,,,,147.0,3.0,98.0,294.0,196.0,147.0,49.0,245.0,gray,hexagon
0.0,1.0,0.5,0.0,7.0,3.0,1207.860038999797,2.0,1.0,phase_3,,,,,98.0,2.0,147.0,49.0,98.0,245.0,196.0,294.0,yellow,diamond
0.0,8.0,4.0,1.0,7.0,5.0,1073.4775329999593,2.0,1.0,phase_3,,,,,220.0,5.0,88.0,44.0,132.0,176.0,220.0,264.0,blue,square
0.0,5.0,0.5,1.0,7.0,1.0,1047.202764000076,2.0,1.0,phase_3,,,,,39.0,1.0,39.0,78.0,234.0,117.0,156.0,195.0,cyan,I
0.0,8.0,4.0,1.0,7.0,1.0,1032.656714000041,2.0,1.0,phase_3,,,,,136.0,4.0,136.0,102.0,204.0,170.0,34.0,68.0,blue,square
0.0,5.0,0.5,1.0,7.0,3.0,1787.6652459999605,2.0,1.0,phase_3,,,,,39.0,1.0,78.0,117.0,39.0,234.0,156.0,195.0,cyan,I
0.0,5.0,0.5,1.0,7.0,5.0,1004.9655880000046,3.0,1.0,phase_3,,,,,176.0,4.0,44.0,88.0,264.0,220.0,176.0,132.0,cyan,I
0.0,2.0,1.0,0.0,7.0,6.0,845.9951359998286,3.0,1.0,phase_3,,,,,216.0,4.0,108.0,324.0,162.0,54.0,270.0,216.0,gray,hexagon
0.0,4.0,4.0,0.0,7.0,2.0,1409.246639000003,3.0,1.0,phase_3,,,,,78.0,2.0,39.0,78.0,117.0,234.0,195.0,156.0,orange,circle
0.0,1.0,0.5,0.0,7.0,3.0,2001.6801899998882,3.0,1.0,phase_3,,,,,136.0,4.0,170.0,34.0,136.0,204.0,68.0,102.0,yellow,diamond
0.0,6.0,1.0,1.0,7.0,2.0,1306.547798000338,3.0,1.0,phase_3,,,,,324.0,6.0,216.0,324.0,108.0,270.0,54.0,162.0,white,cross
0.0,6.0,1.0,1.0,7.0,5.0,2092.3940150000817,3.0,1.0,phase_3,,,,,204.0,6.0,68.0,102.0,136.0,34.0,204.0,170.0,white,cross
0.0,7.0,2.0,1.0,7.0,2.0,2070.2662079997936,3.0,1.0,phase_3,,,,,78.0,2.0,156.0,78.0,117.0,195.0,234.0,39.0,magenta,triangle
0.0,4.0,4.0,0.0,7.0,3.0,1880.025826000292,3.0,1.0,phase_3,,,,,136.0,4.0,102.0,34.0,136.0,204.0,68.0,170.0,orange,circle
0.0,6.0,1.0,1.0,7.0,3.0,1718.8393249998626,3.0,1.0,phase_3,,,,,196.0,4.0,245.0,98.0,196.0,294.0,147.0,49.0,white,cross
0.0,4.0,4.0,0.0,7.0,2.0,1578.496582000298,3.0,1.0,phase_3,,,,,195.0,5.0,39.0,195.0,117.0,234.0,78.0,156.0,orange,circle
0.0,1.0,0.5,0.0,7.0,6.0,1244.158078000055,3.0,1.0,phase_3,,,,,39.0,1.0,78.0,117.0,234.0,195.0,156.0,39.0,yellow,diamond
0.0,4.0,4.0,0.0,7.0,2.0,1427.0563430000038,3.0,1.0,phase_3,,,,,132.0,3.0,176.0,132.0,44.0,264.0,220.0,88.0,orange,circle
0.0,5.0,0.5,1.0,7.0,6.0,2085.11300400005,3.0,1.0,phase_3,,,,,54.0,1.0,216.0,270.0,108.0,324.0,162.0,54.0,cyan,I
0.0,3.0,2.0,0.0,7.0,2.0,1581.666273999872,3.0,1.0,phase_3,,,,,117.0,3.0,78.0,117.0,156.0,39.0,234.0,195.0,green,flipped triangle
0.0,6.0,1.0,1.0,7.0,1.0,1305.0399010003275,3.0,1.0,phase_3,,,,,54.0,1.0,54.0,108.0,216.0,162.0,270.0,324.0,white,cross
0.0,2.0,1.0,0.0,7.0,5.0,1595.3515820001485,3.0,1.0,phase_3,,,,,78.0,2.0,156.0,234.0,195.0,117.0,78.0,39.0,gray,hexagon
0.0,8.0,4.0,1.0,7.0,6.0,1237.5738330001695,3.0,1.0,phase_3,,,,,39.0,1.0,156.0,117.0,195.0,234.0,78.0,39.0,blue,square
0.0,8.0,4.0,1.0,7.0,6.0,1356.3996920001955,3.0,1.0,phase_3,,,,,49.0,1.0,196.0,294.0,147.0,245.0,98.0,49.0,blue,square
0.0,8.0,4.0,1.0,7.0,2.0,1332.469107000179,3.0,1.0,phase_3,,,,,170.0,5.0,136.0,170.0,204.0,34.0,68.0,102.0,blue,square
0.0,8.0,4.0,1.0,7.0,2.0,175.7510699999329,3.0,1.0,phase_3,,,,,176.0,4.0,88.0,176.0,220.0,44.0,132.0,264.0,blue,square
0.0,6.0,1.0,1.0,7.0,1.0,562.1747539998978,4.0,1.0,phase_3,,,,,176.0,4.0,176.0,44.0,132.0,88.0,264.0,220.0,white,cross
0.0,2.0,1.0,0.0,7.0,5.0,923.188344999744,4.0,1.0,phase_3,,,,,196.0,4.0,294.0,98.0,245.0,49.0,196.0,147.0,gray,hexagon
0.0,8.0,4.0,1.0,7.0,3.0,407.3514560000149,4.0,1.0,phase_3,,,,,162.0,3.0,270.0,108.0,162.0,54.0,324.0,216.0,blue,square
0.0,5.0,0.5,1.0,7.0,4.0,2127.4186239998016,4.0,1.0,phase_3,,,,,136.0,4.0,68.0,34.0,170.0,136.0,102.0,204.0,cyan,I
0.0,2.0,1.0,0.0,7.0,3.0,656.9519890003903,4.0,1.0,phase_3,,,,,156.0,4.0,78.0,234.0,156.0,117.0,39.0,195.0,gray,hexagon
0.0,1.0,0.5,0.0,7.0,6.0,33.086090999859096,4.0,1.0,phase_3,,,,,88.0,2.0,264.0,176.0,132.0,220.0,44.0,88.0,yellow,diamond
0.0,1.0,0.5,0.0,7.0,5.0,1810.396455000045,4.0,1.0,phase_3,,,,,216.0,4.0,324.0,108.0,270.0,162.0,216.0,54.0,yellow,diamond
0.0,5.0,0.5,1.0,7.0,2.0,214.154514999791,4.0,1.0,phase_3,,,,,196.0,4.0,49.0,196.0,98.0,147.0,294.0,245.0,cyan,I
0.0,3.0,2.0,0.0,7.0,3.0,0.1765869997143,4.0,1.0,phase_3,,,,,78.0,2.0,234.0,195.0,78.0,156.0,117.0,39.0,green,flipped triangle
0.0,4.0,4.0,0.0,7.0,2.0,1057.3585709998952,4.0,1.0,phase_3,,,,,44.0,1.0,132.0,44.0,264.0,176.0,220.0,88.0,orange,circle
0.0,5.0,0.5,1.0,7.0,3.0,1802.0100120002096,4.0,1.0,phase_3,,,,,49.0,1.0,98.0,196.0,49.0,245.0,147.0,294.0,cyan,I
0.0,4.0,4.0,0.0,7.0,5.0,1091.5406550002444,4.0,1.0,phase_3,,,,,147.0,3.0,196.0,245.0,294.0,49.0,147.0,98.0,orange,circle
0.0,6.0,1.0,1.0,7.0,6.0,485.0165899997591,4.0,1.0,phase_3,,,,,195.0,5.0,234.0,117.0,39.0,156.0,78.0,195.0,white,cross
0.0,7.0,2.0,1.0,7.0,6.0,102.6009889997112,4.0,1.0,phase_3,,,,,108.0,2.0,54.0,216.0,324.0,270.0,162.0,108.0,magenta,triangle
0.0,3.0,2.0,0.0,7.0,2.0,1669.4739649997246,4.0,1.0,phase_3,,,,,245.0,5.0,49.0,245.0,98.0,294.0,196.0,147.0,green,flipped triangle
0.0,7.0,2.0,1.0,7.0,6.0,1680.487512000127,4.0,1.0,phase_3,,,,,156.0,4.0,117.0,234.0,195.0,78.0,39.0,156.0,magenta,triangle
0.0,8.0,4.0,1.0,7.0,1.0,2299.559052999939,4.0,1.0,phase_3,,,,,108.0,2.0,108.0,270.0,54.0,324.0,216.0,162.0,blue,square
0.0,7.0,2.0,1.0,7.0,5.0,1739.2610900001273,4.0,1.0,phase_3,,,,,176.0,4.0,220.0,132.0,44.0,88.0,176.0,264.0,magenta,triangle
0.0,2.0,1.0,0.0,7.0,3.0,1308.8091189997613,4.0,1.0,phase_3,,,,,204.0,6.0,102.0,68.0,204.0,34.0,136.0,170.0,gray,hexagon
0.0,4.0,4.0,0.0,7.0,4.0,1429.4161149996398,4.0,1.0,phase_3,,,,,34.0,1.0,204.0,102.0,68.0,34.0,136.0,170.0,orange,circle
