raw_reward_magnitude,stim_reward,stepwise_reward_magnitude,paired_with_stopping,stim_location,response,reaction_time,block,num_trial_presentations,which_phase,stop_signal_trial_type,left_SSD,right_SSD,accuracy,chosen_bidding_amount,chosen_bidding_level,possible_bid_1,possible_bid_2,possible_bid_3,possible_bid_4,possible_bid_5,possible_bid_6,color_text,shape_text
38.0,1.0,1.0,0.0,4.0,4.0,413.4399800095707,1.0,1.0,phase_1,,,,,,,,,,,,,cyan,triangle
222.0,3.0,3.0,0.0,3.0,3.0,259.6312350069638,1.0,1.0,phase_1,,,,,,,,,,,,,green,diamond
186.0,3.0,3.0,0.0,1.0,1.0,302.7889730001334,1.0,1.0,phase_1,,,,,,,,,,,,,green,diamond
0.0,5.0,0.0,1.0,3.0,3.0,316.1837980151176,1.0,1.0,phase_1,,,,,,,,,,,,,orange,cross
0.0,3.0,0.0,0.0,1.0,1.0,302.4500680039637,1.0,2.0,phase_1,,,,,,,,,,,,,green,diamond
100.0,2.0,2.0,0.0,3.0,3.0,295.3255430038553,1.0,1.0,phase_1,,,,,,,,,,,,,blue,square
211.0,3.0,3.0,0.0,1.0,1.0,286.601193016395,1.0,1.0,phase_1,,,,,,,,,,,,,green,diamond
388.0,8.0,4.0,1.0,2.0,2.0,257.2023259999696,1.0,1.0,phase_1,,,,,,,,,,,,,yellow,circle
79.0,2.0,2.0,0.0,2.0,2.0,311.2163680198136,1.0,1.0,phase_1,,,,,,,,,,,,,blue,square
0.0,6.0,0.0,1.0,4.0,4.0,314.289692993043,1.0,1.0,phase_1,,,,,,,,,,,,,magenta,flipped triangle
211.0,7.0,3.0,1.0,1.0,1.0,366.7853779916186,1.0,1.0,phase_1,,,,,,,,,,,,,white,hexagon
211.0,7.0,3.0,1.0,3.0,3.0,275.4670580034144,1.0,1.0,phase_1,,,,,,,,,,,,,white,hexagon
0.0,2.0,0.0,0.0,3.0,3.0,290.9389389969874,1.0,1.0,phase_1,,,,,,,,,,,,,blue,square
0.0,5.0,0.0,1.0,2.0,2.0,301.8681049870793,1.0,1.0,phase_1,,,,,,,,,,,,,orange,cross
390.0,8.0,4.0,1.0,4.0,4.0,306.4651929889805,1.0,1.0,phase_1,,,,,,,,,,,,,yellow,circle
59.0,1.0,1.0,0.0,3.0,3.0,304.6311580110341,1.0,1.0,phase_1,,,,,,,,,,,,,cyan,triangle
217.0,7.0,3.0,1.0,3.0,3.0,286.884517990984,1.0,1.0,phase_1,,,,,,,,,,,,,white,hexagon
0.0,2.0,0.0,0.0,4.0,4.0,321.7002550081815,1.0,1.0,phase_1,,,,,,,,,,,,,blue,square
418.0,8.0,4.0,1.0,3.0,3.0,262.2223620128352,1.0,1.0,phase_1,,,,,,,,,,,,,yellow,circle
80.0,2.0,2.0,0.0,1.0,1.0,249.3346089904662,1.0,1.0,phase_1,,,,,,,,,,,,,blue,square
0.0,3.0,0.0,0.0,3.0,3.0,287.7179970091674,1.0,1.0,phase_1,,,,,,,,,,,,,green,diamond
124.0,2.0,2.0,0.0,2.0,2.0,283.1193880119826,1.0,1.0,phase_1,,,,,,,,,,,,,blue,square
221.0,3.0,3.0,0.0,1.0,1.0,334.7666749905329,1.0,2.0,phase_1,,,,,,,,,,,,,green,diamond
216.0,3.0,3.0,0.0,1.0,1.0,266.465986991534,1.0,1.0,phase_1,,,,,,,,,,,,,green,diamond
0.0,1.0,0.0,0.0,1.0,1.0,296.2176400178578,1.0,1.0,phase_1,,,,,,,,,,,,,cyan,triangle
423.0,4.0,4.0,0.0,3.0,3.0,340.1921489858068,1.0,1.0,phase_1,,,,,,,,,,,,,gray,I
116.0,6.0,2.0,1.0,1.0,1.0,318.7432249833364,1.0,1.0,phase_1,,,,,,,,,,,,,magenta,flipped triangle
0.0,6.0,0.0,1.0,4.0,4.0,318.1355370033998,1.0,1.0,phase_1,,,,,,,,,,,,,magenta,flipped triangle
204.0,3.0,3.0,0.0,2.0,2.0,288.7152910116128,1.0,1.0,phase_1,,,,,,,,,,,,,green,diamond
80.0,2.0,2.0,0.0,1.0,1.0,263.2022220059298,1.0,1.0,phase_1,,,,,,,,,,,,,blue,square
84.0,2.0,2.0,0.0,3.0,3.0,266.028821002692,1.0,1.0,phase_1,,,,,,,,,,,,,blue,square
59.0,1.0,1.0,0.0,4.0,4.0,336.464112973772,1.0,1.0,phase_1,,,,,,,,,,,,,cyan,triangle
67.0,5.0,1.0,1.0,1.0,1.0,324.2486290109809,1.0,1.0,phase_1,,,,,,,,,,,,,orange,cross
105.0,2.0,2.0,0.0,2.0,2.0,281.8615619908087,1.0,1.0,phase_1,,,,,,,,,,,,,blue,square
0.0,2.0,0.0,0.0,3.0,3.0,300.236829003552,1.0,1.0,phase_1,,,,,,,,,,,,,blue,square
119.0,2.0,2.0,0.0,3.0,3.0,320.3031720186118,1.0,2.0,phase_1,,,,,,,,,,,,,blue,square
55.0,1.0,1.0,0.0,2.0,2.0,364.771895983722,1.0,1.0,phase_1,,,,,,,,,,,,,cyan,triangle
186.0,7.0,3.0,1.0,1.0,1.0,254.859367996687,1.0,1.0,phase_1,,,,,,,,,,,,,white,hexagon
119.0,6.0,2.0,1.0,3.0,3.0,299.6410180057864,1.0,1.0,phase_1,,,,,,,,,,,,,magenta,flipped triangle
84.0,6.0,2.0,1.0,1.0,1.0,288.5327679978218,1.0,1.0,phase_1,,,,,,,,,,,,,magenta,flipped triangle
177.0,3.0,3.0,0.0,3.0,3.0,284.7192830231506,1.0,1.0,phase_1,,,,,,,,,,,,,green,diamond
0.0,4.0,0.0,0.0,3.0,3.0,337.890767987119,1.0,1.0,phase_1,,,,,,,,,,,,,gray,I
180.0,7.0,3.0,1.0,2.0,2.0,281.5085939946584,1.0,1.0,phase_1,,,,,,,,,,,,,white,hexagon
26.0,5.0,1.0,1.0,3.0,3.0,316.7370159935672,1.0,1.0,phase_1,,,,,,,,,,,,,orange,cross
67.0,1.0,1.0,0.0,3.0,3.0,306.1668279988225,1.0,1.0,phase_1,,,,,,,,,,,,,cyan,triangle
218.0,3.0,3.0,0.0,4.0,4.0,271.1607560049742,1.0,1.0,phase_1,,,,,,,,,,,,,green,diamond
376.0,8.0,4.0,1.0,3.0,3.0,289.8568579985294,1.0,1.0,phase_1,,,,,,,,,,,,,yellow,circle
114.0,6.0,2.0,1.0,3.0,3.0,285.5543369951192,1.0,1.0,phase_1,,,,,,,,,,,,,magenta,flipped triangle
39.0,1.0,1.0,0.0,2.0,2.0,341.1461350042373,1.0,1.0,phase_1,,,,,,,,,,,,,cyan,triangle
223.0,3.0,3.0,0.0,4.0,4.0,332.3251169931609,1.0,2.0,phase_1,,,,,,,,,,,,,green,diamond
205.0,7.0,3.0,1.0,1.0,1.0,328.5225520085078,1.0,1.0,phase_1,,,,,,,,,,,,,white,hexagon
58.0,5.0,1.0,1.0,1.0,1.0,357.9040050099138,1.0,1.0,phase_1,,,,,,,,,,,,,orange,cross
197.0,7.0,3.0,1.0,1.0,1.0,411.489760997938,1.0,1.0,phase_1,,,,,,,,,,,,,white,hexagon
407.0,4.0,4.0,0.0,2.0,2.0,367.9534629918635,1.0,1.0,phase_1,,,,,,,,,,,,,gray,I
376.0,8.0,4.0,1.0,3.0,3.0,331.3100230006967,1.0,1.0,phase_1,,,,,,,,,,,,,yellow,circle
50.0,1.0,1.0,0.0,3.0,3.0,320.4595110146329,1.0,1.0,phase_1,,,,,,,,,,,,,cyan,triangle
52.0,1.0,1.0,0.0,2.0,2.0,302.389905002201,1.0,1.0,phase_1,,,,,,,,,,,,,cyan,triangle
416.0,8.0,4.0,1.0,1.0,1.0,354.4544399774167,1.0,1.0,phase_1,,,,,,,,,,,,,yellow,circle
55.0,5.0,1.0,1.0,4.0,4.0,301.9167819875292,1.0,1.0,phase_1,,,,,,,,,,,,,orange,cross
186.0,3.0,3.0,0.0,3.0,3.0,318.9183830108959,1.0,1.0,phase_1,,,,,,,,,,,,,green,diamond
105.0,6.0,2.0,1.0,4.0,4.0,388.3521340030711,1.0,2.0,phase_1,,,,,,,,,,,,,magenta,flipped triangle
78.0,2.0,2.0,0.0,3.0,3.0,324.7260990028735,1.0,1.0,phase_1,,,,,,,,,,,,,blue,square
203.0,7.0,3.0,1.0,4.0,4.0,311.0699699900578,1.0,1.0,phase_1,,,,,,,,,,,,,white,hexagon
0.0,1.0,0.0,0.0,4.0,4.0,313.9624680043198,1.0,2.0,phase_1,,,,,,,,,,,,,cyan,triangle
99.0,2.0,2.0,0.0,1.0,1.0,339.3923789844848,1.0,1.0,phase_1,,,,,,,,,,,,,blue,square
205.0,7.0,3.0,1.0,2.0,2.0,315.5217849998735,1.0,1.0,phase_1,,,,,,,,,,,,,white,hexagon
0.0,5.0,0.0,1.0,3.0,3.0,295.5572539940476,1.0,1.0,phase_1,,,,,,,,,,,,,orange,cross
176.0,3.0,3.0,0.0,2.0,2.0,323.9937829785049,1.0,1.0,phase_1,,,,,,,,,,,,,green,diamond
61.0,1.0,1.0,0.0,3.0,3.0,386.5064730052836,1.0,1.0,phase_1,,,,,,,,,,,,,cyan,triangle
27.0,1.0,1.0,0.0,1.0,1.0,290.4799410025589,1.0,1.0,phase_1,,,,,,,,,,,,,cyan,triangle
0.0,7.0,0.0,1.0,1.0,1.0,315.681296022376,1.0,1.0,phase_1,,,,,,,,,,,,,white,hexagon
79.0,6.0,2.0,1.0,3.0,3.0,292.070381983649,1.0,1.0,phase_1,,,,,,,,,,,,,magenta,flipped triangle
70.0,5.0,1.0,1.0,1.0,1.0,274.9721000145655,1.0,1.0,phase_1,,,,,,,,,,,,,orange,cross
90.0,6.0,2.0,1.0,1.0,1.0,471.6474729939364,1.0,1.0,phase_1,,,,,,,,,,,,,magenta,flipped triangle
114.0,6.0,2.0,1.0,3.0,3.0,283.5889880079776,1.0,1.0,phase_1,,,,,,,,,,,,,magenta,flipped triangle
30.0,1.0,1.0,0.0,2.0,2.0,282.1502590086311,1.0,1.0,phase_1,,,,,,,,,,,,,cyan,triangle
0.0,3.0,0.0,0.0,2.0,2.0,294.6606469922699,1.0,1.0,phase_1,,,,,,,,,,,,,green,diamond
82.0,6.0,2.0,1.0,4.0,4.0,427.159497019602,1.0,1.0,phase_1,,,,,,,,,,,,,magenta,flipped triangle
101.0,2.0,2.0,0.0,4.0,4.0,289.0863470092881,1.0,1.0,phase_1,,,,,,,,,,,,,blue,square
388.0,8.0,4.0,1.0,3.0,3.0,307.0611990115139,1.0,1.0,phase_1,,,,,,,,,,,,,yellow,circle
388.0,8.0,4.0,1.0,1.0,1.0,278.3114569901954,1.0,1.0,phase_1,,,,,,,,,,,,,yellow,circle
415.0,4.0,4.0,0.0,4.0,4.0,309.3537020031363,1.0,1.0,phase_1,,,,,,,,,,,,,gray,I
179.0,3.0,3.0,0.0,2.0,2.0,335.5962840141728,1.0,1.0,phase_1,,,,,,,,,,,,,green,diamond
414.0,8.0,4.0,1.0,4.0,4.0,303.5225959902163,1.0,1.0,phase_1,,,,,,,,,,,,,yellow,circle
114.0,2.0,2.0,0.0,1.0,1.0,243.9338089898228,1.0,1.0,phase_1,,,,,,,,,,,,,blue,square
0.0,3.0,0.0,0.0,3.0,3.0,335.1247149985283,1.0,1.0,phase_1,,,,,,,,,,,,,green,diamond
49.0,5.0,1.0,1.0,2.0,2.0,290.081346000079,1.0,1.0,phase_1,,,,,,,,,,,,,orange,cross
116.0,6.0,2.0,1.0,3.0,3.0,328.0839220096823,1.0,1.0,phase_1,,,,,,,,,,,,,magenta,flipped triangle
97.0,2.0,2.0,0.0,1.0,1.0,246.4622690167743,1.0,1.0,phase_1,,,,,,,,,,,,,blue,square
76.0,6.0,2.0,1.0,3.0,3.0,340.7180480135139,1.0,1.0,phase_1,,,,,,,,,,,,,magenta,flipped triangle
78.0,6.0,2.0,1.0,1.0,1.0,248.4810040041338,1.0,1.0,phase_1,,,,,,,,,,,,,magenta,flipped triangle
50.0,1.0,1.0,0.0,4.0,4.0,300.3921539930161,1.0,1.0,phase_1,,,,,,,,,,,,,cyan,triangle
183.0,7.0,3.0,1.0,2.0,2.0,314.3974340055138,1.0,1.0,phase_1,,,,,,,,,,,,,white,hexagon
425.0,4.0,4.0,0.0,1.0,1.0,339.1618769965134,1.0,1.0,phase_1,,,,,,,,,,,,,gray,I
100.0,6.0,2.0,1.0,4.0,4.0,298.4799040132202,1.0,1.0,phase_1,,,,,,,,,,,,,magenta,flipped triangle
81.0,6.0,2.0,1.0,3.0,3.0,327.7178470161743,1.0,1.0,phase_1,,,,,,,,,,,,,magenta,flipped triangle
207.0,7.0,3.0,1.0,3.0,3.0,331.6848039976321,1.0,1.0,phase_1,,,,,,,,,,,,,white,hexagon
197.0,3.0,3.0,0.0,4.0,4.0,286.9245860201772,1.0,1.0,phase_1,,,,,,,,,,,,,green,diamond
0.0,8.0,0.0,1.0,3.0,3.0,332.6187470229342,1.0,1.0,phase_1,,,,,,,,,,,,,yellow,circle
51.0,1.0,1.0,0.0,1.0,1.0,274.6381300094072,1.0,1.0,phase_1,,,,,,,,,,,,,cyan,triangle
0.0,2.0,0.0,0.0,4.0,4.0,328.2248860050458,2.0,1.0,phase_1,,,,,,,,,,,,,blue,square
407.0,4.0,4.0,0.0,1.0,1.0,258.3085450169164,2.0,1.0,phase_1,,,,,,,,,,,,,gray,I
396.0,4.0,4.0,0.0,1.0,1.0,295.7478830066975,2.0,1.0,phase_1,,,,,,,,,,,,,gray,I
414.0,4.0,4.0,0.0,3.0,3.0,307.8661400068085,2.0,1.0,phase_1,,,,,,,,,,,,,gray,I
183.0,3.0,3.0,0.0,2.0,2.0,278.650156018557,2.0,1.0,phase_1,,,,,,,,,,,,,green,diamond
407.0,8.0,4.0,1.0,2.0,2.0,333.8993869838305,2.0,1.0,phase_1,,,,,,,,,,,,,yellow,circle
107.0,2.0,2.0,0.0,4.0,4.0,287.7992290013935,2.0,1.0,phase_1,,,,,,,,,,,,,blue,square
394.0,4.0,4.0,0.0,4.0,4.0,349.4640190037898,2.0,1.0,phase_1,,,,,,,,,,,,,gray,I
26.0,5.0,1.0,1.0,4.0,4.0,291.5608420153148,2.0,1.0,phase_1,,,,,,,,,,,,,orange,cross
0.0,1.0,0.0,0.0,2.0,2.0,320.5239200033247,2.0,1.0,phase_1,,,,,,,,,,,,,cyan,triangle
212.0,3.0,3.0,0.0,3.0,3.0,282.5760020059533,2.0,1.0,phase_1,,,,,,,,,,,,,green,diamond
93.0,6.0,2.0,1.0,1.0,1.0,233.3060409873724,2.0,1.0,phase_1,,,,,,,,,,,,,magenta,flipped triangle
410.0,8.0,4.0,1.0,1.0,1.0,322.8245410136878,2.0,2.0,phase_1,,,,,,,,,,,,,yellow,circle
49.0,1.0,1.0,0.0,1.0,1.0,421.3649400044232,2.0,1.0,phase_1,,,,,,,,,,,,,cyan,triangle
33.0,5.0,1.0,1.0,4.0,4.0,354.4211620173882,2.0,1.0,phase_1,,,,,,,,,,,,,orange,cross
67.0,1.0,1.0,0.0,2.0,2.0,265.8886520075612,2.0,1.0,phase_1,,,,,,,,,,,,,cyan,triangle
50.0,5.0,1.0,1.0,1.0,1.0,276.4191679889336,2.0,1.0,phase_1,,,,,,,,,,,,,orange,cross
51.0,5.0,1.0,1.0,2.0,2.0,274.1490089974832,2.0,1.0,phase_1,,,,,,,,,,,,,orange,cross
0.0,6.0,0.0,1.0,3.0,3.0,326.4436569879763,2.0,1.0,phase_1,,,,,,,,,,,,,magenta,flipped triangle
54.0,1.0,1.0,0.0,4.0,4.0,351.9923420099076,2.0,2.0,phase_1,,,,,,,,,,,,,cyan,triangle
63.0,5.0,1.0,1.0,2.0,2.0,326.6035790147725,2.0,1.0,phase_1,,,,,,,,,,,,,orange,cross
105.0,2.0,2.0,0.0,2.0,2.0,303.7321939773392,2.0,1.0,phase_1,,,,,,,,,,,,,blue,square
0.0,4.0,0.0,0.0,4.0,4.0,335.8367619803175,2.0,1.0,phase_1,,,,,,,,,,,,,gray,I
394.0,8.0,4.0,1.0,4.0,4.0,347.237159992801,2.0,1.0,phase_1,,,,,,,,,,,,,yellow,circle
95.0,2.0,2.0,0.0,1.0,1.0,344.7883990011178,2.0,1.0,phase_1,,,,,,,,,,,,,blue,square
109.0,6.0,2.0,1.0,2.0,2.0,339.3110029865056,2.0,1.0,phase_1,,,,,,,,,,,,,magenta,flipped triangle
0.0,7.0,0.0,1.0,2.0,2.0,318.9086910279002,2.0,1.0,phase_1,,,,,,,,,,,,,white,hexagon
213.0,7.0,3.0,1.0,4.0,4.0,286.9699809816666,2.0,1.0,phase_1,,,,,,,,,,,,,white,hexagon
59.0,5.0,1.0,1.0,1.0,1.0,320.7404150161892,2.0,1.0,phase_1,,,,,,,,,,,,,orange,cross
121.0,6.0,2.0,1.0,3.0,3.0,345.3431479865685,2.0,1.0,phase_1,,,,,,,,,,,,,magenta,flipped triangle
90.0,6.0,2.0,1.0,4.0,4.0,274.5963250054046,2.0,1.0,phase_1,,,,,,,,,,,,,magenta,flipped triangle
424.0,8.0,4.0,1.0,2.0,2.0,313.089350995142,2.0,1.0,phase_1,,,,,,,,,,,,,yellow,circle
189.0,7.0,3.0,1.0,1.0,1.0,255.0330510130152,2.0,1.0,phase_1,,,,,,,,,,,,,white,hexagon
0.0,6.0,0.0,1.0,2.0,2.0,336.4393149968236,2.0,2.0,phase_1,,,,,,,,,,,,,magenta,flipped triangle
379.0,4.0,4.0,0.0,3.0,3.0,351.8386220093816,2.0,2.0,phase_1,,,,,,,,,,,,,gray,I
99.0,6.0,2.0,1.0,1.0,1.0,306.6291639988776,2.0,1.0,phase_1,,,,,,,,,,,,,magenta,flipped triangle
410.0,4.0,4.0,0.0,4.0,4.0,291.2144050060306,2.0,1.0,phase_1,,,,,,,,,,,,,gray,I
205.0,3.0,3.0,0.0,2.0,2.0,254.1352889966219,2.0,1.0,phase_1,,,,,,,,,,,,,green,diamond
64.0,5.0,1.0,1.0,4.0,4.0,360.4059920180589,2.0,2.0,phase_1,,,,,,,,,,,,,orange,cross
123.0,2.0,2.0,0.0,2.0,2.0,453.6768870020751,2.0,1.0,phase_1,,,,,,,,,,,,,blue,square
114.0,6.0,2.0,1.0,2.0,2.0,514.4189500133507,2.0,1.0,phase_1,,,,,,,,,,,,,magenta,flipped triangle
81.0,2.0,2.0,0.0,1.0,1.0,302.6417220244184,2.0,1.0,phase_1,,,,,,,,,,,,,blue,square
105.0,6.0,2.0,1.0,2.0,2.0,330.5921499850228,2.0,1.0,phase_1,,,,,,,,,,,,,magenta,flipped triangle
59.0,5.0,1.0,1.0,1.0,1.0,335.689942992758,2.0,1.0,phase_1,,,,,,,,,,,,,orange,cross
0.0,1.0,0.0,0.0,1.0,1.0,347.5382030010223,2.0,1.0,phase_1,,,,,,,,,,,,,cyan,triangle
189.0,3.0,3.0,0.0,3.0,3.0,392.9011240252293,2.0,1.0,phase_1,,,,,,,,,,,,,green,diamond
225.0,3.0,3.0,0.0,3.0,3.0,341.9551679980941,2.0,1.0,phase_1,,,,,,,,,,,,,green,diamond
394.0,8.0,4.0,1.0,3.0,3.0,322.9269039875362,2.0,1.0,phase_1,,,,,,,,,,,,,yellow,circle
0.0,7.0,0.0,1.0,3.0,3.0,335.6438699993305,2.0,1.0,phase_1,,,,,,,,,,,,,white,hexagon
111.0,2.0,2.0,0.0,1.0,1.0,298.0044389842078,2.0,1.0,phase_1,,,,,,,,,,,,,blue,square
33.0,1.0,1.0,0.0,4.0,4.0,310.2681960153859,2.0,1.0,phase_1,,,,,,,,,,,,,cyan,triangle
177.0,7.0,3.0,1.0,3.0,3.0,315.8451300114393,2.0,1.0,phase_1,,,,,,,,,,,,,white,hexagon
0.0,8.0,0.0,1.0,1.0,1.0,0.1642510178498,2.0,2.0,phase_1,,,,,,,,,,,,,yellow,circle
97.0,6.0,2.0,1.0,4.0,4.0,378.2348190143239,2.0,1.0,phase_1,,,,,,,,,,,,,magenta,flipped triangle
0.0,7.0,0.0,1.0,3.0,3.0,423.2100129884202,2.0,1.0,phase_1,,,,,,,,,,,,,white,hexagon
181.0,7.0,3.0,1.0,4.0,4.0,332.2182170231826,2.0,1.0,phase_1,,,,,,,,,,,,,white,hexagon
379.0,8.0,4.0,1.0,2.0,2.0,286.7261880019214,2.0,1.0,phase_1,,,,,,,,,,,,,yellow,circle
102.0,2.0,2.0,0.0,3.0,3.0,437.8062970063183,2.0,1.0,phase_1,,,,,,,,,,,,,blue,square
0.0,4.0,0.0,0.0,4.0,4.0,490.4941449931357,2.0,1.0,phase_1,,,,,,,,,,,,,gray,I
414.0,8.0,4.0,1.0,1.0,1.0,247.8577539732214,2.0,1.0,phase_1,,,,,,,,,,,,,yellow,circle
0.0,2.0,0.0,0.0,3.0,3.0,365.2620899956673,2.0,1.0,phase_1,,,,,,,,,,,,,blue,square
89.0,2.0,2.0,0.0,4.0,4.0,352.6499470171984,2.0,1.0,phase_1,,,,,,,,,,,,,blue,square
84.0,2.0,2.0,0.0,4.0,4.0,342.5189460103865,2.0,1.0,phase_1,,,,,,,,,,,,,blue,square
93.0,6.0,2.0,1.0,1.0,1.0,337.4622789851855,2.0,1.0,phase_1,,,,,,,,,,,,,magenta,flipped triangle
87.0,6.0,2.0,1.0,2.0,2.0,269.9982699996326,2.0,1.0,phase_1,,,,,,,,,,,,,magenta,flipped triangle
415.0,8.0,4.0,1.0,4.0,4.0,378.2676600094419,2.0,1.0,phase_1,,,,,,,,,,,,,yellow,circle
0.0,7.0,0.0,1.0,3.0,3.0,334.1973630012944,2.0,1.0,phase_1,,,,,,,,,,,,,white,hexagon
0.0,6.0,0.0,1.0,4.0,4.0,482.9542789957486,2.0,1.0,phase_1,,,,,,,,,,,,,magenta,flipped triangle
34.0,1.0,1.0,0.0,4.0,4.0,352.0123589842114,2.0,1.0,phase_1,,,,,,,,,,,,,cyan,triangle
204.0,7.0,3.0,1.0,3.0,3.0,446.598438982619,2.0,1.0,phase_1,,,,,,,,,,,,,white,hexagon
191.0,7.0,3.0,1.0,2.0,2.0,585.6353590206709,2.0,1.0,phase_1,,,,,,,,,,,,,white,hexagon
0.0,6.0,0.0,1.0,2.0,2.0,364.2184329801239,2.0,1.0,phase_1,,,,,,,,,,,,,magenta,flipped triangle
89.0,6.0,2.0,1.0,1.0,1.0,298.8829999812878,2.0,1.0,phase_1,,,,,,,,,,,,,magenta,flipped triangle
407.0,8.0,4.0,1.0,2.0,2.0,368.1661279988475,2.0,1.0,phase_1,,,,,,,,,,,,,yellow,circle
0.0,3.0,0.0,0.0,4.0,4.0,290.9851449949201,2.0,1.0,phase_1,,,,,,,,,,,,,green,diamond
90.0,2.0,2.0,0.0,4.0,4.0,291.4330950006842,2.0,1.0,phase_1,,,,,,,,,,,,,blue,square
116.0,2.0,2.0,0.0,3.0,3.0,420.4585239931475,2.0,1.0,phase_1,,,,,,,,,,,,,blue,square
0.0,1.0,0.0,0.0,1.0,1.0,377.0261649915483,2.0,1.0,phase_1,,,,,,,,,,,,,cyan,triangle
376.0,4.0,4.0,0.0,2.0,2.0,369.3058149947319,2.0,1.0,phase_1,,,,,,,,,,,,,gray,I
69.0,1.0,1.0,0.0,1.0,1.0,274.3949269934091,2.0,1.0,phase_1,,,,,,,,,,,,,cyan,triangle
44.0,5.0,1.0,1.0,1.0,1.0,319.0267009777017,2.0,1.0,phase_1,,,,,,,,,,,,,orange,cross
27.0,1.0,1.0,0.0,3.0,3.0,309.4134970160667,2.0,1.0,phase_1,,,,,,,,,,,,,cyan,triangle
44.0,5.0,1.0,1.0,2.0,2.0,339.2947939864825,2.0,1.0,phase_1,,,,,,,,,,,,,orange,cross
0.0,3.0,0.0,0.0,4.0,4.0,511.43993402365595,2.0,1.0,phase_1,,,,,,,,,,,,,green,diamond
0.0,8.0,0.0,1.0,1.0,1.0,361.6663379943929,2.0,1.0,phase_1,,,,,,,,,,,,,yellow,circle
196.0,3.0,3.0,0.0,4.0,4.0,345.5360190127976,2.0,1.0,phase_1,,,,,,,,,,,,,green,diamond
53.0,1.0,1.0,0.0,4.0,4.0,566.3006039976608,2.0,1.0,phase_1,,,,,,,,,,,,,cyan,triangle
0.0,3.0,0.0,0.0,2.0,2.0,283.6441159888636,2.0,1.0,phase_1,,,,,,,,,,,,,green,diamond
0.0,1.0,0.0,0.0,2.0,2.0,399.3748339999001,2.0,1.0,phase_1,,,,,,,,,,,,,cyan,triangle
0.0,8.0,0.0,1.0,1.0,1.0,281.345458002761,2.0,1.0,phase_1,,,,,,,,,,,,,yellow,circle
388.0,4.0,4.0,0.0,1.0,1.0,327.3712520021945,2.0,1.0,phase_1,,,,,,,,,,,,,gray,I
396.0,8.0,4.0,1.0,4.0,4.0,0.16278700786640002,2.0,1.0,phase_1,,,,,,,,,,,,,yellow,circle
221.0,7.0,3.0,1.0,2.0,2.0,385.0463299895637,2.0,1.0,phase_1,,,,,,,,,,,,,white,hexagon
388.0,4.0,4.0,0.0,4.0,4.0,319.2995540157426,2.0,1.0,phase_1,,,,,,,,,,,,,gray,I
57.0,1.0,1.0,0.0,1.0,1.0,348.469903023215,2.0,1.0,phase_1,,,,,,,,,,,,,cyan,triangle
416.0,8.0,4.0,1.0,3.0,3.0,304.389689990785,2.0,1.0,phase_1,,,,,,,,,,,,,yellow,circle
424.0,4.0,4.0,0.0,2.0,2.0,275.6320079788565,2.0,1.0,phase_1,,,,,,,,,,,,,gray,I
44.0,1.0,1.0,0.0,2.0,2.0,355.4116009909194,2.0,2.0,phase_1,,,,,,,,,,,,,cyan,triangle
411.0,8.0,4.0,1.0,2.0,2.0,312.4884499993641,2.0,1.0,phase_1,,,,,,,,,,,,,yellow,circle
0.0,2.0,0.0,0.0,4.0,4.0,328.9982440182939,2.0,1.0,phase_1,,,,,,,,,,,,,blue,square
0.0,3.0,0.0,0.0,1.0,1.0,340.6705620000139,3.0,1.0,phase_1,,,,,,,,,,,,,green,diamond
179.0,7.0,3.0,1.0,2.0,2.0,249.5962000102736,3.0,1.0,phase_1,,,,,,,,,,,,,white,hexagon
191.0,3.0,3.0,0.0,1.0,1.0,327.683537005214,3.0,1.0,phase_1,,,,,,,,,,,,,green,diamond
404.0,4.0,4.0,0.0,3.0,3.0,365.6947090057656,3.0,1.0,phase_1,,,,,,,,,,,,,gray,I
404.0,8.0,4.0,1.0,1.0,1.0,303.1637030071579,3.0,1.0,phase_1,,,,,,,,,,,,,yellow,circle
180.0,3.0,3.0,0.0,1.0,1.0,319.1823579836637,3.0,1.0,phase_1,,,,,,,,,,,,,green,diamond
411.0,4.0,4.0,0.0,3.0,3.0,315.5251620046329,3.0,1.0,phase_1,,,,,,,,,,,,,gray,I
0.0,8.0,0.0,1.0,4.0,4.0,344.1991459985729,3.0,1.0,phase_1,,,,,,,,,,,,,yellow,circle
177.0,7.0,3.0,1.0,4.0,4.0,340.556666982593,3.0,1.0,phase_1,,,,,,,,,,,,,white,hexagon
414.0,4.0,4.0,0.0,3.0,3.0,352.1514469757676,3.0,1.0,phase_1,,,,,,,,,,,,,gray,I
390.0,4.0,4.0,0.0,2.0,2.0,283.3663960045669,3.0,1.0,phase_1,,,,,,,,,,,,,gray,I
418.0,4.0,4.0,0.0,1.0,1.0,320.5992849834729,3.0,1.0,phase_1,,,,,,,,,,,,,gray,I
219.0,7.0,3.0,1.0,4.0,4.0,295.748509990517,3.0,1.0,phase_1,,,,,,,,,,,,,white,hexagon
64.0,1.0,1.0,0.0,2.0,2.0,284.0541870100423,3.0,1.0,phase_1,,,,,,,,,,,,,cyan,triangle
26.0,1.0,1.0,0.0,1.0,1.0,254.91772100212978,3.0,1.0,phase_1,,,,,,,,,,,,,cyan,triangle
111.0,6.0,2.0,1.0,2.0,2.0,348.7984520033933,3.0,1.0,phase_1,,,,,,,,,,,,,magenta,flipped triangle
93.0,2.0,2.0,0.0,3.0,3.0,319.5290450239554,3.0,1.0,phase_1,,,,,,,,,,,,,blue,square
55.0,1.0,1.0,0.0,4.0,4.0,284.3502729956526,3.0,1.0,phase_1,,,,,,,,,,,,,cyan,triangle
0.0,5.0,0.0,1.0,1.0,1.0,307.773307984462,3.0,1.0,phase_1,,,,,,,,,,,,,orange,cross
68.0,5.0,1.0,1.0,3.0,3.0,328.3195120166056,3.0,1.0,phase_1,,,,,,,,,,,,,orange,cross
408.0,4.0,4.0,0.0,2.0,2.0,341.4445410016924,3.0,1.0,phase_1,,,,,,,,,,,,,gray,I
98.0,2.0,2.0,0.0,3.0,3.0,352.8689540107734,3.0,1.0,phase_1,,,,,,,,,,,,,blue,square
57.0,5.0,1.0,1.0,2.0,2.0,303.1040589848999,3.0,1.0,phase_1,,,,,,,,,,,,,orange,cross
67.0,5.0,1.0,1.0,2.0,2.0,346.7595519905444,3.0,1.0,phase_1,,,,,,,,,,,,,orange,cross
207.0,3.0,3.0,0.0,4.0,4.0,319.6267660241574,3.0,1.0,phase_1,,,,,,,,,,,,,green,diamond
225.0,7.0,3.0,1.0,1.0,1.0,282.6933469914365,3.0,1.0,phase_1,,,,,,,,,,,,,white,hexagon
0.0,2.0,0.0,0.0,3.0,3.0,294.362082000589,3.0,1.0,phase_1,,,,,,,,,,,,,blue,square
376.0,8.0,4.0,1.0,4.0,4.0,303.0928960070014,3.0,1.0,phase_1,,,,,,,,,,,,,yellow,circle
186.0,3.0,3.0,0.0,4.0,4.0,320.1579960004892,3.0,1.0,phase_1,,,,,,,,,,,,,green,diamond
63.0,5.0,1.0,1.0,3.0,3.0,335.330656991573,3.0,1.0,phase_1,,,,,,,,,,,,,orange,cross
405.0,4.0,4.0,0.0,1.0,1.0,522.2778469906189,3.0,1.0,phase_1,,,,,,,,,,,,,gray,I
223.0,7.0,3.0,1.0,1.0,1.0,275.3215680131688,3.0,2.0,phase_1,,,,,,,,,,,,,white,hexagon
186.0,7.0,3.0,1.0,4.0,4.0,511.5601329889614,3.0,1.0,phase_1,,,,,,,,,,,,,white,hexagon
176.0,7.0,3.0,1.0,4.0,4.0,332.78817401151167,3.0,1.0,phase_1,,,,,,,,,,,,,white,hexagon
416.0,4.0,4.0,0.0,2.0,2.0,292.5544070021715,3.0,1.0,phase_1,,,,,,,,,,,,,gray,I
54.0,5.0,1.0,1.0,3.0,3.0,287.8251649963204,3.0,1.0,phase_1,,,,,,,,,,,,,orange,cross
382.0,4.0,4.0,0.0,4.0,4.0,364.8624919878784,3.0,1.0,phase_1,,,,,,,,,,,,,gray,I
0.0,6.0,0.0,1.0,2.0,2.0,473.6035189998802,3.0,1.0,phase_1,,,,,,,,,,,,,magenta,flipped triangle
0.0,5.0,0.0,1.0,3.0,3.0,364.4951290043536,3.0,1.0,phase_1,,,,,,,,,,,,,orange,cross
216.0,7.0,3.0,1.0,3.0,3.0,312.3881790088489,3.0,1.0,phase_1,,,,,,,,,,,,,white,hexagon
30.0,5.0,1.0,1.0,4.0,4.0,292.9650809965096,3.0,1.0,phase_1,,,,,,,,,,,,,orange,cross
44.0,1.0,1.0,0.0,1.0,1.0,329.7096390160732,3.0,1.0,phase_1,,,,,,,,,,,,,cyan,triangle
196.0,7.0,3.0,1.0,2.0,2.0,272.4672899930738,3.0,1.0,phase_1,,,,,,,,,,,,,white,hexagon
423.0,8.0,4.0,1.0,1.0,1.0,366.493156994693,3.0,1.0,phase_1,,,,,,,,,,,,,yellow,circle
114.0,2.0,2.0,0.0,2.0,2.0,296.2239650078118,3.0,1.0,phase_1,,,,,,,,,,,,,blue,square
182.0,3.0,3.0,0.0,4.0,4.0,316.4981269801501,3.0,1.0,phase_1,,,,,,,,,,,,,green,diamond
47.0,5.0,1.0,1.0,3.0,3.0,377.2326660109684,3.0,1.0,phase_1,,,,,,,,,,,,,orange,cross
211.0,3.0,3.0,0.0,4.0,4.0,373.68752801557997,3.0,2.0,phase_1,,,,,,,,,,,,,green,diamond
38.0,5.0,1.0,1.0,4.0,4.0,321.1335689993575,3.0,1.0,phase_1,,,,,,,,,,,,,orange,cross
124.0,6.0,2.0,1.0,2.0,2.0,357.7496230136603,3.0,1.0,phase_1,,,,,,,,,,,,,magenta,flipped triangle
391.0,4.0,4.0,0.0,3.0,3.0,376.9455380097497,3.0,1.0,phase_1,,,,,,,,,,,,,gray,I
101.0,6.0,2.0,1.0,3.0,3.0,389.9804769898765,3.0,1.0,phase_1,,,,,,,,,,,,,magenta,flipped triangle
45.0,5.0,1.0,1.0,2.0,2.0,298.3919859980233,3.0,2.0,phase_1,,,,,,,,,,,,,orange,cross
181.0,3.0,3.0,0.0,1.0,1.0,327.6045239763334,3.0,1.0,phase_1,,,,,,,,,,,,,green,diamond
90.0,2.0,2.0,0.0,2.0,2.0,410.4862120002508,3.0,1.0,phase_1,,,,,,,,,,,,,blue,square
27.0,5.0,1.0,1.0,2.0,2.0,310.7075580046512,3.0,1.0,phase_1,,,,,,,,,,,,,orange,cross
212.0,7.0,3.0,1.0,4.0,4.0,315.0772149965632,3.0,1.0,phase_1,,,,,,,,,,,,,white,hexagon
404.0,8.0,4.0,1.0,2.0,2.0,455.8512670046184,3.0,1.0,phase_1,,,,,,,,,,,,,yellow,circle
116.0,2.0,2.0,0.0,4.0,4.0,314.5762780040968,3.0,1.0,phase_1,,,,,,,,,,,,,blue,square
181.0,7.0,3.0,1.0,1.0,1.0,255.1197870052419,3.0,1.0,phase_1,,,,,,,,,,,,,white,hexagon
393.0,4.0,4.0,0.0,1.0,1.0,388.9056280022487,3.0,1.0,phase_1,,,,,,,,,,,,,gray,I
217.0,3.0,3.0,0.0,3.0,3.0,388.8640140066854,3.0,1.0,phase_1,,,,,,,,,,,,,green,diamond
0.0,5.0,0.0,1.0,1.0,1.0,400.7038430136163,3.0,1.0,phase_1,,,,,,,,,,,,,orange,cross
0.0,5.0,0.0,1.0,4.0,4.0,300.0421729811933,3.0,1.0,phase_1,,,,,,,,,,,,,orange,cross
0.0,8.0,0.0,1.0,2.0,2.0,262.4110339966137,3.0,1.0,phase_1,,,,,,,,,,,,,yellow,circle
0.0,6.0,0.0,1.0,4.0,4.0,301.3795349979773,3.0,1.0,phase_1,,,,,,,,,,,,,magenta,flipped triangle
398.0,4.0,4.0,0.0,4.0,4.0,362.2637839871458,3.0,1.0,phase_1,,,,,,,,,,,,,gray,I
0.0,1.0,0.0,0.0,2.0,2.0,300.868865015218,3.0,1.0,phase_1,,,,,,,,,,,,,cyan,triangle
27.0,5.0,1.0,1.0,1.0,1.0,282.2713279747404,3.0,1.0,phase_1,,,,,,,,,,,,,orange,cross
121.0,2.0,2.0,0.0,2.0,2.0,550.9908199892379,3.0,1.0,phase_1,,,,,,,,,,,,,blue,square
121.0,6.0,2.0,1.0,1.0,1.0,309.3691050016787,3.0,1.0,phase_1,,,,,,,,,,,,,magenta,flipped triangle
65.0,1.0,1.0,0.0,4.0,4.0,344.585161015857,3.0,1.0,phase_1,,,,,,,,,,,,,cyan,triangle
0.0,8.0,0.0,1.0,2.0,2.0,309.3766550009604,3.0,1.0,phase_1,,,,,,,,,,,,,yellow,circle
53.0,5.0,1.0,1.0,3.0,3.0,293.1095479871146,3.0,1.0,phase_1,,,,,,,,,,,,,orange,cross
47.0,1.0,1.0,0.0,2.0,2.0,430.2891800180077,3.0,1.0,phase_1,,,,,,,,,,,,,cyan,triangle
123.0,6.0,2.0,1.0,3.0,3.0,389.9326309910975,3.0,1.0,phase_1,,,,,,,,,,,,,magenta,flipped triangle
425.0,8.0,4.0,1.0,4.0,4.0,336.7666550038848,3.0,1.0,phase_1,,,,,,,,,,,,,yellow,circle
218.0,7.0,3.0,1.0,4.0,4.0,356.1791479878593,3.0,1.0,phase_1,,,,,,,,,,,,,white,hexagon
0.0,3.0,0.0,0.0,1.0,1.0,243.699443002697,3.0,1.0,phase_1,,,,,,,,,,,,,green,diamond
389.0,8.0,4.0,1.0,4.0,4.0,319.4532820198219,3.0,1.0,phase_1,,,,,,,,,,,,,yellow,circle
222.0,7.0,3.0,1.0,3.0,3.0,341.956251009833,3.0,1.0,phase_1,,,,,,,,,,,,,white,hexagon
0.0,1.0,0.0,0.0,2.0,2.0,257.9333299945574,3.0,1.0,phase_1,,,,,,,,,,,,,cyan,triangle
95.0,6.0,2.0,1.0,2.0,2.0,306.8713659886271,3.0,1.0,phase_1,,,,,,,,,,,,,magenta,flipped triangle
90.0,2.0,2.0,0.0,1.0,1.0,306.7949940159451,3.0,1.0,phase_1,,,,,,,,,,,,,blue,square
109.0,2.0,2.0,0.0,3.0,3.0,327.2457839921117,3.0,1.0,phase_1,,,,,,,,,,,,,blue,square
36.0,1.0,1.0,0.0,3.0,3.0,323.5276509949472,3.0,1.0,phase_1,,,,,,,,,,,,,cyan,triangle
0.0,7.0,0.0,1.0,1.0,1.0,345.1080409868154,3.0,1.0,phase_1,,,,,,,,,,,,,white,hexagon
203.0,3.0,3.0,0.0,2.0,2.0,314.7277719981503,3.0,1.0,phase_1,,,,,,,,,,,,,green,diamond
376.0,4.0,4.0,0.0,4.0,4.0,304.8042640148196,3.0,1.0,phase_1,,,,,,,,,,,,,gray,I
399.0,4.0,4.0,0.0,2.0,2.0,315.4291110113263,3.0,1.0,phase_1,,,,,,,,,,,,,gray,I
376.0,8.0,4.0,1.0,2.0,2.0,300.1427300041541,3.0,1.0,phase_1,,,,,,,,,,,,,yellow,circle
0.0,2.0,0.0,0.0,3.0,3.0,335.6996639922727,3.0,1.0,phase_1,,,,,,,,,,,,,blue,square
179.0,7.0,3.0,1.0,4.0,4.0,290.9207810007501,3.0,1.0,phase_1,,,,,,,,,,,,,white,hexagon
0.0,8.0,0.0,1.0,4.0,4.0,324.3589529884048,3.0,2.0,phase_1,,,,,,,,,,,,,yellow,circle
424.0,4.0,4.0,0.0,1.0,1.0,360.9565059887245,3.0,1.0,phase_1,,,,,,,,,,,,,gray,I
0.0,3.0,0.0,0.0,4.0,4.0,328.8063959917053,3.0,1.0,phase_1,,,,,,,,,,,,,green,diamond
413.0,4.0,4.0,0.0,2.0,2.0,249.3025290023069,3.0,1.0,phase_1,,,,,,,,,,,,,gray,I
181.0,3.0,3.0,0.0,2.0,2.0,337.0557210000697,3.0,1.0,phase_1,,,,,,,,,,,,,green,diamond
189.0,3.0,3.0,0.0,4.0,4.0,469.7233019978739,3.0,1.0,phase_1,,,,,,,,,,,,,green,diamond
69.0,5.0,1.0,1.0,2.0,2.0,287.6217750017531,3.0,1.0,phase_1,,,,,,,,,,,,,orange,cross
0.0,6.0,0.0,1.0,3.0,3.0,328.8519750058185,4.0,1.0,phase_1,,,,,,,,,,,,,magenta,flipped triangle
48.0,5.0,1.0,1.0,4.0,4.0,302.4757469829637,4.0,1.0,phase_1,,,,,,,,,,,,,orange,cross
413.0,8.0,4.0,1.0,4.0,4.0,291.0192040144466,4.0,1.0,phase_1,,,,,,,,,,,,,yellow,circle
0.0,4.0,0.0,0.0,4.0,4.0,314.9428039905615,4.0,1.0,phase_1,,,,,,,,,,,,,gray,I
76.0,2.0,2.0,0.0,2.0,2.0,327.3973340110387,4.0,1.0,phase_1,,,,,,,,,,,,,blue,square
121.0,2.0,2.0,0.0,2.0,2.0,282.8781160060316,4.0,1.0,phase_1,,,,,,,,,,,,,blue,square
0.0,4.0,0.0,0.0,1.0,1.0,237.0372479781508,4.0,1.0,phase_1,,,,,,,,,,,,,gray,I
0.0,1.0,0.0,0.0,4.0,4.0,265.974529000232,4.0,1.0,phase_1,,,,,,,,,,,,,cyan,triangle
68.0,1.0,1.0,0.0,4.0,4.0,343.5060149931814,4.0,1.0,phase_1,,,,,,,,,,,,,cyan,triangle
219.0,7.0,3.0,1.0,3.0,3.0,359.5216730027459,4.0,1.0,phase_1,,,,,,,,,,,,,white,hexagon
0.0,7.0,0.0,1.0,4.0,4.0,270.5893910024315,4.0,2.0,phase_1,,,,,,,,,,,,,white,hexagon
382.0,8.0,4.0,1.0,1.0,1.0,331.7636949941516,4.0,1.0,phase_1,,,,,,,,,,,,,yellow,circle
0.0,7.0,0.0,1.0,4.0,4.0,297.9721020092256,4.0,1.0,phase_1,,,,,,,,,,,,,white,hexagon
381.0,4.0,4.0,0.0,2.0,2.0,258.7502870010212,4.0,1.0,phase_1,,,,,,,,,,,,,gray,I
80.0,6.0,2.0,1.0,1.0,1.0,299.3782970006577,4.0,1.0,phase_1,,,,,,,,,,,,,magenta,flipped triangle
0.0,8.0,0.0,1.0,4.0,4.0,278.1679030158557,4.0,1.0,phase_1,,,,,,,,,,,,,yellow,circle
87.0,2.0,2.0,0.0,3.0,3.0,474.3980559869669,4.0,1.0,phase_1,,,,,,,,,,,,,blue,square
219.0,3.0,3.0,0.0,2.0,2.0,287.7822089940309,4.0,1.0,phase_1,,,,,,,,,,,,,green,diamond
0.0,4.0,0.0,0.0,1.0,1.0,266.3034979777876,4.0,1.0,phase_1,,,,,,,,,,,,,gray,I
114.0,2.0,2.0,0.0,4.0,4.0,353.5304119868669,4.0,1.0,phase_1,,,,,,,,,,,,,blue,square
0.0,4.0,0.0,0.0,1.0,1.0,348.3558880107011,4.0,1.0,phase_1,,,,,,,,,,,,,gray,I
0.0,7.0,0.0,1.0,1.0,1.0,319.8309750005137,4.0,1.0,phase_1,,,,,,,,,,,,,white,hexagon
404.0,4.0,4.0,0.0,4.0,4.0,463.2800979888998,4.0,1.0,phase_1,,,,,,,,,,,,,gray,I
222.0,3.0,3.0,0.0,2.0,2.0,274.2625510145444,4.0,1.0,phase_1,,,,,,,,,,,,,green,diamond
39.0,5.0,1.0,1.0,4.0,4.0,265.9612020070199,4.0,1.0,phase_1,,,,,,,,,,,,,orange,cross
206.0,7.0,3.0,1.0,3.0,3.0,302.0712700090371,4.0,1.0,phase_1,,,,,,,,,,,,,white,hexagon
61.0,5.0,1.0,1.0,3.0,3.0,307.8002039983403,4.0,1.0,phase_1,,,,,,,,,,,,,orange,cross
107.0,2.0,2.0,0.0,4.0,4.0,311.4128960005473,4.0,1.0,phase_1,,,,,,,,,,,,,blue,square
201.0,3.0,3.0,0.0,4.0,4.0,323.8621769996825,4.0,1.0,phase_1,,,,,,,,,,,,,green,diamond
0.0,6.0,0.0,1.0,3.0,3.0,319.8771400202531,4.0,1.0,phase_1,,,,,,,,,,,,,magenta,flipped triangle
390.0,8.0,4.0,1.0,3.0,3.0,282.2459780145436,4.0,1.0,phase_1,,,,,,,,,,,,,yellow,circle
389.0,4.0,4.0,0.0,2.0,2.0,356.6179189947434,4.0,2.0,phase_1,,,,,,,,,,,,,gray,I
0.0,4.0,0.0,0.0,3.0,3.0,353.1403279921505,4.0,1.0,phase_1,,,,,,,,,,,,,gray,I
82.0,2.0,2.0,0.0,1.0,1.0,349.2680249910336,4.0,1.0,phase_1,,,,,,,,,,,,,blue,square
376.0,4.0,4.0,0.0,3.0,3.0,356.4617389929481,4.0,1.0,phase_1,,,,,,,,,,,,,gray,I
393.0,8.0,4.0,1.0,3.0,3.0,312.3698930139653,4.0,1.0,phase_1,,,,,,,,,,,,,yellow,circle
0.0,5.0,0.0,1.0,4.0,4.0,283.0244859796949,4.0,1.0,phase_1,,,,,,,,,,,,,orange,cross
34.0,5.0,1.0,1.0,4.0,4.0,348.0863440199755,4.0,1.0,phase_1,,,,,,,,,,,,,orange,cross
43.0,1.0,1.0,0.0,1.0,1.0,332.444632978877,4.0,1.0,phase_1,,,,,,,,,,,,,cyan,triangle
73.0,1.0,1.0,0.0,1.0,1.0,307.5444370042532,4.0,1.0,phase_1,,,,,,,,,,,,,cyan,triangle
36.0,5.0,1.0,1.0,2.0,2.0,296.515162975993,4.0,1.0,phase_1,,,,,,,,,,,,,orange,cross
0.0,4.0,0.0,0.0,1.0,1.0,307.422685000347,4.0,1.0,phase_1,,,,,,,,,,,,,gray,I
48.0,1.0,1.0,0.0,3.0,3.0,320.0872089946642,4.0,1.0,phase_1,,,,,,,,,,,,,cyan,triangle
424.0,8.0,4.0,1.0,2.0,2.0,279.1633169981651,4.0,1.0,phase_1,,,,,,,,,,,,,yellow,circle
0.0,5.0,0.0,1.0,4.0,4.0,260.0813930039294,4.0,1.0,phase_1,,,,,,,,,,,,,orange,cross
102.0,6.0,2.0,1.0,4.0,4.0,295.785355992848,4.0,1.0,phase_1,,,,,,,,,,,,,magenta,flipped triangle
50.0,5.0,1.0,1.0,1.0,1.0,299.1878009925131,4.0,1.0,phase_1,,,,,,,,,,,,,orange,cross
391.0,8.0,4.0,1.0,2.0,2.0,262.2571759857237,4.0,1.0,phase_1,,,,,,,,,,,,,yellow,circle
55.0,5.0,1.0,1.0,3.0,3.0,341.2368459976278,4.0,1.0,phase_1,,,,,,,,,,,,,orange,cross
107.0,6.0,2.0,1.0,4.0,4.0,265.1690650091041,4.0,1.0,phase_1,,,,,,,,,,,,,magenta,flipped triangle
52.0,5.0,1.0,1.0,3.0,3.0,336.0668770037591,4.0,1.0,phase_1,,,,,,,,,,,,,orange,cross
213.0,3.0,3.0,0.0,1.0,1.0,250.3069549857173,4.0,1.0,phase_1,,,,,,,,,,,,,green,diamond
0.0,2.0,0.0,0.0,4.0,4.0,336.7812180076726,4.0,1.0,phase_1,,,,,,,,,,,,,blue,square
206.0,3.0,3.0,0.0,3.0,3.0,421.6349910129793,4.0,1.0,phase_1,,,,,,,,,,,,,green,diamond
405.0,8.0,4.0,1.0,3.0,3.0,314.4213179766666,4.0,1.0,phase_1,,,,,,,,,,,,,yellow,circle
70.0,1.0,1.0,0.0,3.0,3.0,337.2255799768027,4.0,2.0,phase_1,,,,,,,,,,,,,cyan,triangle
186.0,7.0,3.0,1.0,1.0,1.0,298.5684689774643,4.0,2.0,phase_1,,,,,,,,,,,,,white,hexagon
26.0,1.0,1.0,0.0,1.0,1.0,265.6537339789793,4.0,1.0,phase_1,,,,,,,,,,,,,cyan,triangle
84.0,6.0,2.0,1.0,2.0,2.0,292.0716739899944,4.0,1.0,phase_1,,,,,,,,,,,,,magenta,flipped triangle
73.0,5.0,1.0,1.0,1.0,1.0,304.5732759928796,4.0,1.0,phase_1,,,,,,,,,,,,,orange,cross
197.0,3.0,3.0,0.0,2.0,2.0,256.2328559870366,4.0,1.0,phase_1,,,,,,,,,,,,,green,diamond
416.0,4.0,4.0,0.0,3.0,3.0,332.1964310016483,4.0,1.0,phase_1,,,,,,,,,,,,,gray,I
43.0,5.0,1.0,1.0,3.0,3.0,328.4834530204534,4.0,1.0,phase_1,,,,,,,,,,,,,orange,cross
398.0,8.0,4.0,1.0,4.0,4.0,380.9046529931947,4.0,1.0,phase_1,,,,,,,,,,,,,yellow,circle
408.0,8.0,4.0,1.0,1.0,1.0,271.6075390053447,4.0,1.0,phase_1,,,,,,,,,,,,,yellow,circle
65.0,5.0,1.0,1.0,4.0,4.0,438.7954149860888,4.0,1.0,phase_1,,,,,,,,,,,,,orange,cross
222.0,7.0,3.0,1.0,2.0,2.0,376.6341529844794,4.0,1.0,phase_1,,,,,,,,,,,,,white,hexagon
0.0,8.0,0.0,1.0,1.0,1.0,310.7664999843109,4.0,1.0,phase_1,,,,,,,,,,,,,yellow,circle
394.0,4.0,4.0,0.0,1.0,1.0,283.3964560122695,4.0,1.0,phase_1,,,,,,,,,,,,,gray,I
119.0,6.0,2.0,1.0,4.0,4.0,303.9389859768562,4.0,1.0,phase_1,,,,,,,,,,,,,magenta,flipped triangle
45.0,1.0,1.0,0.0,3.0,3.0,381.9922179973218,4.0,1.0,phase_1,,,,,,,,,,,,,cyan,triangle
0.0,5.0,0.0,1.0,4.0,4.0,377.1792509942315,4.0,2.0,phase_1,,,,,,,,,,,,,orange,cross
391.0,8.0,4.0,1.0,1.0,1.0,314.0918309800327,4.0,1.0,phase_1,,,,,,,,,,,,,yellow,circle
179.0,3.0,3.0,0.0,3.0,3.0,346.2331409973558,4.0,1.0,phase_1,,,,,,,,,,,,,green,diamond
177.0,3.0,3.0,0.0,3.0,3.0,316.2022219912614,4.0,1.0,phase_1,,,,,,,,,,,,,green,diamond
107.0,6.0,2.0,1.0,4.0,4.0,300.000300980173,4.0,1.0,phase_1,,,,,,,,,,,,,magenta,flipped triangle
201.0,7.0,3.0,1.0,2.0,2.0,311.9303180137649,4.0,1.0,phase_1,,,,,,,,,,,,,white,hexagon
58.0,1.0,1.0,0.0,3.0,3.0,348.5760669864248,4.0,1.0,phase_1,,,,,,,,,,,,,cyan,triangle
93.0,2.0,2.0,0.0,4.0,4.0,335.9971980098635,4.0,1.0,phase_1,,,,,,,,,,,,,blue,square
98.0,6.0,2.0,1.0,2.0,2.0,269.0451650123577,4.0,1.0,phase_1,,,,,,,,,,,,,magenta,flipped triangle
376.0,4.0,4.0,0.0,1.0,1.0,295.7654269994236,4.0,1.0,phase_1,,,,,,,,,,,,,gray,I
119.0,2.0,2.0,0.0,4.0,4.0,270.3607560251839,4.0,1.0,phase_1,,,,,,,,,,,,,blue,square
399.0,8.0,4.0,1.0,1.0,1.0,315.4606550233438,4.0,1.0,phase_1,,,,,,,,,,,,,yellow,circle
388.0,4.0,4.0,0.0,3.0,3.0,296.4136289956514,4.0,1.0,phase_1,,,,,,,,,,,,,gray,I
80.0,6.0,2.0,1.0,2.0,2.0,254.9851830117404,4.0,1.0,phase_1,,,,,,,,,,,,,magenta,flipped triangle
189.0,7.0,3.0,1.0,2.0,2.0,447.3762960114982,4.0,1.0,phase_1,,,,,,,,,,,,,white,hexagon
90.0,6.0,2.0,1.0,4.0,4.0,262.5569270167034,4.0,1.0,phase_1,,,,,,,,,,,,,magenta,flipped triangle
0.0,7.0,0.0,1.0,4.0,4.0,362.139381992165,4.0,1.0,phase_1,,,,,,,,,,,,,white,hexagon
63.0,1.0,1.0,0.0,2.0,2.0,294.9263519840315,4.0,1.0,phase_1,,,,,,,,,,,,,cyan,triangle
0.0,4.0,0.0,0.0,3.0,3.0,282.8713970084209,4.0,1.0,phase_1,,,,,,,,,,,,,gray,I
63.0,1.0,1.0,0.0,2.0,2.0,333.1439619942102,4.0,2.0,phase_1,,,,,,,,,,,,,cyan,triangle
0.0,2.0,0.0,0.0,3.0,3.0,344.6573299879674,4.0,1.0,phase_1,,,,,,,,,,,,,blue,square
390.0,4.0,4.0,0.0,4.0,4.0,343.8170780136715,4.0,1.0,phase_1,,,,,,,,,,,,,gray,I
0.0,1.0,0.0,0.0,2.0,2.0,281.4450290170498,4.0,1.0,phase_1,,,,,,,,,,,,,cyan,triangle
197.0,7.0,3.0,1.0,3.0,3.0,277.7629940246697,4.0,1.0,phase_1,,,,,,,,,,,,,white,hexagon
391.0,4.0,4.0,0.0,4.0,4.0,340.1044150232337,4.0,1.0,phase_1,,,,,,,,,,,,,gray,I
219.0,3.0,3.0,0.0,1.0,1.0,274.2843470186926,4.0,1.0,phase_1,,,,,,,,,,,,,green,diamond
205.0,3.0,3.0,0.0,1.0,1.0,307.4557129875757,4.0,1.0,phase_1,,,,,,,,,,,,,green,diamond
381.0,8.0,4.0,1.0,3.0,3.0,394.4990099989809,4.0,1.0,phase_1,,,,,,,,,,,,,yellow,circle
182.0,7.0,3.0,1.0,1.0,1.0,0.1632369821891,4.0,2.0,phase_1,,,,,,,,,,,,,white,hexagon
0.0,6.0,2.0,1.0,6.0,6.0,566.7937560065184,1.0,1.0,phase_2,stop,250.0,250.0,3.0,,,,,,,,,magenta,flipped triangle
0.0,1.0,1.0,0.0,6.0,6.0,296.5595669811591,1.0,1.0,phase_2,go,250.0,200.0,1.0,,,,,,,,,cyan,triangle
0.0,1.0,1.0,0.0,5.0,5.0,229.8729130125139,1.0,1.0,phase_2,go,250.0,200.0,1.0,,,,,,,,,cyan,triangle
0.0,1.0,1.0,0.0,5.0,5.0,295.6579029851127,1.0,1.0,phase_2,go,250.0,200.0,1.0,,,,,,,,,cyan,triangle
0.0,3.0,3.0,0.0,5.0,5.0,286.5676269866526,1.0,1.0,phase_2,go,250.0,200.0,1.0,,,,,,,,,green,diamond
0.0,4.0,4.0,0.0,5.0,5.0,309.251351020066,1.0,1.0,phase_2,go,250.0,200.0,1.0,,,,,,,,,gray,I
0.0,4.0,4.0,0.0,5.0,5.0,263.0494350160006,1.0,1.0,phase_2,go,250.0,200.0,1.0,,,,,,,,,gray,I
0.0,3.0,3.0,0.0,5.0,5.0,291.0149800009094,1.0,1.0,phase_2,go,250.0,200.0,1.0,,,,,,,,,green,diamond
0.0,4.0,4.0,0.0,5.0,5.0,267.6272460084874,1.0,1.0,phase_2,go,250.0,200.0,1.0,,,,,,,,,gray,I
0.0,6.0,2.0,1.0,6.0,6.0,252.6173809892498,1.0,1.0,phase_2,stop,250.0,200.0,3.0,,,,,,,,,magenta,flipped triangle
0.0,2.0,2.0,0.0,6.0,6.0,428.9043890021276,1.0,1.0,phase_2,go,250.0,150.0,1.0,,,,,,,,,blue,square
0.0,4.0,4.0,0.0,6.0,6.0,386.3170109980274,1.0,1.0,phase_2,go,250.0,150.0,1.0,,,,,,,,,gray,I
0.0,5.0,1.0,1.0,6.0,6.0,319.8643130017444,1.0,1.0,phase_2,stop,250.0,150.0,3.0,,,,,,,,,orange,cross
0.0,4.0,4.0,0.0,6.0,6.0,529.5589659945108,1.0,1.0,phase_2,go,250.0,100.0,1.0,,,,,,,,,gray,I
0.0,3.0,3.0,0.0,6.0,6.0,338.5176919982768,1.0,1.0,phase_2,go,250.0,100.0,1.0,,,,,,,,,green,diamond
0.0,7.0,3.0,1.0,5.0,5.0,320.7777779898606,1.0,1.0,phase_2,go,250.0,100.0,1.0,,,,,,,,,white,hexagon
0.0,5.0,1.0,1.0,5.0,5.0,303.740622010082,1.0,1.0,phase_2,stop,250.0,100.0,3.0,,,,,,,,,orange,cross
0.0,4.0,4.0,0.0,5.0,5.0,527.0665959978942,1.0,1.0,phase_2,go,200.0,100.0,1.0,,,,,,,,,gray,I
0.0,1.0,1.0,0.0,6.0,6.0,396.5437729784753,1.0,1.0,phase_2,go,200.0,100.0,1.0,,,,,,,,,cyan,triangle
0.0,5.0,1.0,1.0,6.0,6.0,307.8085899760481,1.0,1.0,phase_2,stop,200.0,100.0,3.0,,,,,,,,,orange,cross
0.0,3.0,3.0,0.0,5.0,5.0,333.2104390137829,1.0,1.0,phase_2,go,200.0,50.0,1.0,,,,,,,,,green,diamond
0.0,7.0,3.0,1.0,5.0,5.0,365.2979300240986,1.0,1.0,phase_2,stop,200.0,50.0,3.0,,,,,,,,,white,hexagon
0.0,4.0,4.0,0.0,6.0,6.0,577.8690399893094,1.0,1.0,phase_2,go,150.0,50.0,1.0,,,,,,,,,gray,I
0.0,5.0,1.0,1.0,5.0,0.0,0.0,1.0,1.0,phase_2,stop,150.0,50.0,4.0,,,,,,,,,orange,cross
0.0,4.0,4.0,0.0,6.0,6.0,368.8470619963482,1.0,1.0,phase_2,go,200.0,50.0,1.0,,,,,,,,,gray,I
0.0,2.0,2.0,0.0,6.0,6.0,345.6445490010082,1.0,1.0,phase_2,go,200.0,50.0,1.0,,,,,,,,,blue,square
0.0,6.0,2.0,1.0,5.0,5.0,418.0078830104321,1.0,1.0,phase_2,go,200.0,50.0,1.0,,,,,,,,,magenta,flipped triangle
0.0,7.0,3.0,1.0,5.0,5.0,343.1285400001798,1.0,1.0,phase_2,stop,200.0,50.0,3.0,,,,,,,,,white,hexagon
0.0,8.0,4.0,1.0,6.0,0.0,0.0,1.0,1.0,phase_2,stop,150.0,50.0,4.0,,,,,,,,,yellow,circle
0.0,8.0,4.0,1.0,6.0,6.0,470.7738830184098,1.0,1.0,phase_2,go,150.0,100.0,1.0,,,,,,,,,yellow,circle
0.0,4.0,4.0,0.0,6.0,6.0,461.8884089868516,1.0,1.0,phase_2,go,150.0,100.0,1.0,,,,,,,,,gray,I
0.0,2.0,2.0,0.0,5.0,5.0,329.0260640205815,1.0,1.0,phase_2,go,150.0,100.0,1.0,,,,,,,,,blue,square
0.0,6.0,2.0,1.0,5.0,5.0,294.7365310101304,1.0,1.0,phase_2,go,150.0,100.0,1.0,,,,,,,,,magenta,flipped triangle
0.0,5.0,1.0,1.0,5.0,0.0,0.0,1.0,1.0,phase_2,stop,150.0,100.0,4.0,,,,,,,,,orange,cross
0.0,1.0,1.0,0.0,5.0,5.0,452.3739390133414,1.0,1.0,phase_2,go,200.0,100.0,1.0,,,,,,,,,cyan,triangle
0.0,7.0,3.0,1.0,5.0,0.0,0.0,1.0,1.0,phase_2,stop,200.0,100.0,4.0,,,,,,,,,white,hexagon
0.0,6.0,2.0,1.0,5.0,5.0,516.808107990073,2.0,1.0,phase_2,stop,250.0,100.0,3.0,,,,,,,,,magenta,flipped triangle
0.0,1.0,1.0,0.0,6.0,6.0,423.5329979856033,2.0,1.0,phase_2,go,200.0,100.0,1.0,,,,,,,,,cyan,triangle
0.0,4.0,4.0,0.0,5.0,5.0,390.7967210107017,2.0,1.0,phase_2,go,200.0,100.0,1.0,,,,,,,,,gray,I
0.0,4.0,4.0,0.0,5.0,5.0,310.758102015825,2.0,1.0,phase_2,go,200.0,100.0,1.0,,,,,,,,,gray,I
0.0,4.0,4.0,0.0,5.0,5.0,267.2449689998757,2.0,1.0,phase_2,go,200.0,100.0,1.0,,,,,,,,,gray,I
0.0,6.0,2.0,1.0,6.0,6.0,325.2679819997865,2.0,1.0,phase_2,go,200.0,100.0,1.0,,,,,,,,,magenta,flipped triangle
0.0,3.0,3.0,0.0,6.0,6.0,354.0828500117641,2.0,1.0,phase_2,go,200.0,100.0,1.0,,,,,,,,,green,diamond
0.0,8.0,4.0,1.0,5.0,5.0,376.8987930088769,2.0,1.0,phase_2,go,200.0,100.0,1.0,,,,,,,,,yellow,circle
0.0,8.0,4.0,1.0,5.0,5.0,490.9616679942701,2.0,1.0,phase_2,go,200.0,100.0,1.0,,,,,,,,,yellow,circle
0.0,8.0,4.0,1.0,6.0,6.0,327.7872479811776,2.0,1.0,phase_2,stop,200.0,100.0,3.0,,,,,,,,,yellow,circle
0.0,3.0,3.0,0.0,5.0,5.0,511.50789999519475,2.0,1.0,phase_2,go,200.0,50.0,1.0,,,,,,,,,green,diamond
0.0,5.0,1.0,1.0,5.0,0.0,0.0,2.0,1.0,phase_2,stop,200.0,50.0,4.0,,,,,,,,,orange,cross
0.0,4.0,4.0,0.0,5.0,5.0,465.3430939943064,2.0,1.0,phase_2,go,250.0,50.0,1.0,,,,,,,,,gray,I
0.0,2.0,2.0,0.0,6.0,6.0,301.513579004677,2.0,1.0,phase_2,go,250.0,50.0,1.0,,,,,,,,,blue,square
0.0,6.0,2.0,1.0,5.0,5.0,374.7961210028734,2.0,1.0,phase_2,stop,250.0,50.0,3.0,,,,,,,,,magenta,flipped triangle
0.0,4.0,4.0,0.0,6.0,6.0,404.5190949982498,2.0,1.0,phase_2,go,200.0,50.0,1.0,,,,,,,,,gray,I
0.0,4.0,4.0,0.0,6.0,6.0,428.5496759985108,2.0,1.0,phase_2,go,200.0,50.0,1.0,,,,,,,,,gray,I
0.0,3.0,3.0,0.0,6.0,6.0,430.5691620102152,2.0,1.0,phase_2,go,200.0,50.0,1.0,,,,,,,,,green,diamond
0.0,6.0,2.0,1.0,6.0,0.0,0.0,2.0,1.0,phase_2,stop,200.0,50.0,4.0,,,,,,,,,magenta,flipped triangle
0.0,4.0,4.0,0.0,5.0,5.0,276.5780150075443,2.0,1.0,phase_2,go,200.0,100.0,1.0,,,,,,,,,gray,I
0.0,3.0,3.0,0.0,5.0,5.0,403.9111059973947,2.0,1.0,phase_2,go,200.0,100.0,1.0,,,,,,,,,green,diamond
0.0,5.0,1.0,1.0,6.0,0.0,0.0,2.0,1.0,phase_2,stop,200.0,100.0,4.0,,,,,,,,,orange,cross
0.0,7.0,3.0,1.0,5.0,0.0,0.0,2.0,1.0,phase_2,stop,200.0,150.0,4.0,,,,,,,,,white,hexagon
0.0,7.0,3.0,1.0,6.0,6.0,322.2008080047089,2.0,1.0,phase_2,go,250.0,150.0,1.0,,,,,,,,,white,hexagon
0.0,3.0,3.0,0.0,6.0,6.0,370.3041739936452,2.0,1.0,phase_2,go,250.0,150.0,1.0,,,,,,,,,green,diamond
0.0,8.0,4.0,1.0,6.0,6.0,375.5435369967017,2.0,1.0,phase_2,go,250.0,150.0,1.0,,,,,,,,,yellow,circle
0.0,7.0,3.0,1.0,6.0,0.0,0.0,2.0,1.0,phase_2,stop,250.0,150.0,4.0,,,,,,,,,white,hexagon
0.0,3.0,3.0,0.0,5.0,5.0,376.5474079991691,2.0,1.0,phase_2,go,250.0,200.0,1.0,,,,,,,,,green,diamond
0.0,2.0,2.0,0.0,6.0,6.0,359.7527020028792,2.0,1.0,phase_2,go,250.0,200.0,1.0,,,,,,,,,blue,square
0.0,6.0,2.0,1.0,6.0,6.0,333.8545720034744,2.0,1.0,phase_2,stop,250.0,200.0,3.0,,,,,,,,,magenta,flipped triangle
0.0,5.0,1.0,1.0,6.0,6.0,500.8628100040369,2.0,1.0,phase_2,go,250.0,150.0,1.0,,,,,,,,,orange,cross
0.0,6.0,2.0,1.0,6.0,0.0,0.0,2.0,1.0,phase_2,stop,250.0,150.0,4.0,,,,,,,,,magenta,flipped triangle
0.0,8.0,4.0,1.0,5.0,5.0,397.0438260002993,2.0,1.0,phase_2,stop,250.0,200.0,3.0,,,,,,,,,yellow,circle
0.0,3.0,3.0,0.0,6.0,6.0,534.3441529839765,2.0,1.0,phase_2,go,200.0,200.0,1.0,,,,,,,,,green,diamond
0.0,3.0,3.0,0.0,6.0,6.0,883.469911001157,2.0,1.0,phase_2,go,200.0,200.0,1.0,,,,,,,,,green,diamond
0.0,4.0,4.0,0.0,6.0,6.0,673.3588019851595,2.0,1.0,phase_2,go,200.0,200.0,1.0,,,,,,,,,gray,I
0.0,2.0,2.0,0.0,5.0,0.0,0.0,3.0,1.0,phase_2,go,200.0,200.0,5.0,,,,,,,,,blue,square
0.0,6.0,2.0,1.0,5.0,5.0,1284.1131530003622,3.0,1.0,phase_2,stop,200.0,200.0,3.0,,,,,,,,,magenta,flipped triangle
0.0,2.0,2.0,0.0,6.0,0.0,0.0,3.0,1.0,phase_2,go,150.0,200.0,5.0,,,,,,,,,blue,square
0.0,6.0,2.0,1.0,6.0,0.0,0.0,3.0,1.0,phase_2,stop,150.0,200.0,4.0,,,,,,,,,magenta,flipped triangle
0.0,3.0,3.0,0.0,5.0,0.0,0.0,3.0,1.0,phase_2,go,150.0,250.0,5.0,,,,,,,,,green,diamond
0.0,3.0,3.0,0.0,5.0,0.0,0.0,3.0,1.0,phase_2,go,150.0,250.0,5.0,,,,,,,,,green,diamond
0.0,8.0,4.0,1.0,5.0,0.0,0.0,3.0,1.0,phase_2,stop,150.0,250.0,4.0,,,,,,,,,yellow,circle
0.0,1.0,1.0,0.0,5.0,0.0,0.0,3.0,1.0,phase_2,go,200.0,250.0,5.0,,,,,,,,,cyan,triangle
0.0,3.0,3.0,0.0,6.0,0.0,0.0,3.0,1.0,phase_2,go,200.0,250.0,5.0,,,,,,,,,green,diamond
0.0,5.0,1.0,1.0,5.0,0.0,0.0,3.0,1.0,phase_2,stop,200.0,250.0,4.0,,,,,,,,,orange,cross
0.0,5.0,1.0,1.0,5.0,0.0,0.0,3.0,1.0,phase_2,stop,250.0,250.0,4.0,,,,,,,,,orange,cross
0.0,4.0,4.0,0.0,6.0,0.0,0.0,3.0,1.0,phase_2,go,300.0,250.0,5.0,,,,,,,,,gray,I
0.0,2.0,2.0,0.0,5.0,0.0,0.0,3.0,1.0,phase_2,go,300.0,250.0,5.0,,,,,,,,,blue,square
0.0,7.0,3.0,1.0,5.0,0.0,0.0,3.0,1.0,phase_2,stop,300.0,250.0,4.0,,,,,,,,,white,hexagon
0.0,7.0,3.0,1.0,6.0,0.0,0.0,3.0,1.0,phase_2,stop,350.0,250.0,4.0,,,,,,,,,white,hexagon
0.0,4.0,4.0,0.0,6.0,4.0,12.5875009980518,3.0,1.0,phase_2,go,350.0,300.0,2.0,,,,,,,,,gray,I
0.0,3.0,3.0,0.0,6.0,0.0,0.0,3.0,1.0,phase_2,go,350.0,300.0,5.0,,,,,,,,,green,diamond
0.0,2.0,2.0,0.0,5.0,0.0,0.0,3.0,1.0,phase_2,go,350.0,300.0,5.0,,,,,,,,,blue,square
0.0,5.0,1.0,1.0,5.0,0.0,0.0,3.0,1.0,phase_2,stop,350.0,300.0,4.0,,,,,,,,,orange,cross
0.0,6.0,2.0,1.0,5.0,0.0,0.0,3.0,1.0,phase_2,stop,400.0,300.0,4.0,,,,,,,,,magenta,flipped triangle
0.0,2.0,2.0,0.0,6.0,0.0,0.0,3.0,1.0,phase_2,go,450.0,300.0,5.0,,,,,,,,,blue,square
0.0,1.0,1.0,0.0,5.0,0.0,0.0,3.0,1.0,phase_2,go,450.0,300.0,5.0,,,,,,,,,cyan,triangle
0.0,6.0,2.0,1.0,6.0,0.0,0.0,3.0,1.0,phase_2,stop,450.0,300.0,4.0,,,,,,,,,magenta,flipped triangle
0.0,8.0,4.0,1.0,6.0,0.0,0.0,3.0,1.0,phase_2,stop,450.0,350.0,4.0,,,,,,,,,yellow,circle
0.0,5.0,1.0,1.0,5.0,0.0,0.0,3.0,1.0,phase_2,stop,450.0,400.0,4.0,,,,,,,,,orange,cross
0.0,4.0,4.0,0.0,5.0,0.0,0.0,3.0,1.0,phase_2,go,500.0,400.0,5.0,,,,,,,,,gray,I
0.0,4.0,4.0,0.0,5.0,0.0,0.0,3.0,1.0,phase_2,go,500.0,400.0,5.0,,,,,,,,,gray,I
0.0,5.0,1.0,1.0,5.0,0.0,0.0,3.0,1.0,phase_2,stop,500.0,400.0,4.0,,,,,,,,,orange,cross
0.0,5.0,1.0,1.0,6.0,0.0,0.0,3.0,1.0,phase_2,go,550.0,400.0,5.0,,,,,,,,,orange,cross
0.0,7.0,3.0,1.0,5.0,0.0,0.0,3.0,1.0,phase_2,stop,550.0,400.0,4.0,,,,,,,,,white,hexagon
0.0,2.0,2.0,0.0,6.0,4.0,173.4923549811355,3.0,1.0,phase_2,go,600.0,400.0,2.0,,,,,,,,,blue,square
0.0,7.0,3.0,1.0,5.0,0.0,0.0,3.0,1.0,phase_2,stop,600.0,400.0,4.0,,,,,,,,,white,hexagon
0.0,2.0,2.0,0.0,6.0,0.0,0.0,3.0,1.0,phase_2,go,650.0,400.0,5.0,,,,,,,,,blue,square
0.0,1.0,1.0,0.0,5.0,0.0,0.0,3.0,1.0,phase_2,go,650.0,400.0,5.0,,,,,,,,,cyan,triangle
0.0,3.0,3.0,0.0,6.0,0.0,0.0,3.0,1.0,phase_2,go,650.0,400.0,5.0,,,,,,,,,green,diamond
0.0,5.0,1.0,1.0,6.0,0.0,0.0,3.0,1.0,phase_2,stop,650.0,400.0,4.0,,,,,,,,,orange,cross
0.0,1.0,1.0,0.0,6.0,6.0,336.1924530181568,4.0,1.0,phase_2,go,650.0,450.0,1.0,,,,,,,,,cyan,triangle
0.0,6.0,2.0,1.0,5.0,5.0,312.1990780055057,4.0,1.0,phase_2,go,650.0,450.0,1.0,,,,,,,,,magenta,flipped triangle
0.0,2.0,2.0,0.0,5.0,5.0,312.9620160034392,4.0,1.0,phase_2,go,650.0,450.0,1.0,,,,,,,,,blue,square
0.0,7.0,3.0,1.0,6.0,6.0,255.10810100240627,4.0,1.0,phase_2,stop,650.0,450.0,3.0,,,,,,,,,white,hexagon
0.0,8.0,4.0,1.0,5.0,5.0,286.9806080125272,4.0,1.0,phase_2,stop,650.0,400.0,3.0,,,,,,,,,yellow,circle
0.0,7.0,3.0,1.0,5.0,5.0,417.6242669927887,4.0,1.0,phase_2,stop,600.0,400.0,3.0,,,,,,,,,white,hexagon
0.0,2.0,2.0,0.0,6.0,6.0,502.69922098959796,4.0,1.0,phase_2,go,550.0,400.0,1.0,,,,,,,,,blue,square
0.0,5.0,1.0,1.0,6.0,6.0,326.0471260000486,4.0,1.0,phase_2,stop,550.0,400.0,3.0,,,,,,,,,orange,cross
0.0,2.0,2.0,0.0,6.0,6.0,556.8445730023086,4.0,1.0,phase_2,go,550.0,350.0,1.0,,,,,,,,,blue,square
0.0,8.0,4.0,1.0,6.0,6.0,334.6006250067148,4.0,1.0,phase_2,stop,550.0,350.0,3.0,,,,,,,,,yellow,circle
0.0,1.0,1.0,0.0,6.0,6.0,483.4426750021521,4.0,1.0,phase_2,go,550.0,300.0,1.0,,,,,,,,,cyan,triangle
0.0,8.0,4.0,1.0,5.0,5.0,324.307156028226,4.0,1.0,phase_2,stop,550.0,300.0,3.0,,,,,,,,,yellow,circle
0.0,4.0,4.0,0.0,5.0,5.0,707.6139639830217,4.0,1.0,phase_2,go,500.0,300.0,1.0,,,,,,,,,gray,I
0.0,6.0,2.0,1.0,5.0,5.0,341.0846409969963,4.0,1.0,phase_2,stop,500.0,300.0,3.0,,,,,,,,,magenta,flipped triangle
0.0,1.0,1.0,0.0,6.0,6.0,312.7564629830885,4.0,1.0,phase_2,go,450.0,300.0,1.0,,,,,,,,,cyan,triangle
0.0,1.0,1.0,0.0,6.0,6.0,352.5564779993146,4.0,1.0,phase_2,go,450.0,300.0,1.0,,,,,,,,,cyan,triangle
0.0,7.0,3.0,1.0,6.0,6.0,288.9411619980819,4.0,1.0,phase_2,stop,450.0,300.0,3.0,,,,,,,,,white,hexagon
0.0,2.0,2.0,0.0,6.0,6.0,694.9794989777729,4.0,1.0,phase_2,go,450.0,250.0,1.0,,,,,,,,,blue,square
0.0,5.0,1.0,1.0,5.0,5.0,529.7515830025077,4.0,1.0,phase_2,go,450.0,250.0,1.0,,,,,,,,,orange,cross
0.0,7.0,3.0,1.0,6.0,6.0,294.4970579992514,4.0,1.0,phase_2,stop,450.0,250.0,3.0,,,,,,,,,white,hexagon
0.0,7.0,3.0,1.0,5.0,5.0,479.5027770160232,4.0,1.0,phase_2,go,450.0,200.0,1.0,,,,,,,,,white,hexagon
0.0,6.0,2.0,1.0,6.0,0.0,0.0,4.0,1.0,phase_2,stop,450.0,200.0,4.0,,,,,,,,,magenta,flipped triangle
0.0,3.0,3.0,0.0,5.0,5.0,358.5580560029484,4.0,1.0,phase_2,go,450.0,250.0,1.0,,,,,,,,,green,diamond
0.0,7.0,3.0,1.0,5.0,5.0,323.9215810026508,4.0,1.0,phase_2,stop,450.0,250.0,3.0,,,,,,,,,white,hexagon
0.0,1.0,1.0,0.0,6.0,6.0,502.1083410247229,4.0,1.0,phase_2,go,400.0,250.0,1.0,,,,,,,,,cyan,triangle
0.0,4.0,4.0,0.0,6.0,6.0,430.0164570158813,4.0,1.0,phase_2,go,400.0,250.0,1.0,,,,,,,,,gray,I
0.0,2.0,2.0,0.0,5.0,5.0,442.3761370126158,4.0,1.0,phase_2,go,400.0,250.0,1.0,,,,,,,,,blue,square
0.0,1.0,1.0,0.0,6.0,6.0,637.7853909798432,4.0,1.0,phase_2,go,400.0,250.0,1.0,,,,,,,,,cyan,triangle
0.0,7.0,3.0,1.0,6.0,0.0,0.0,4.0,1.0,phase_2,stop,400.0,250.0,4.0,,,,,,,,,white,hexagon
0.0,8.0,4.0,1.0,5.0,5.0,428.7855330039747,4.0,1.0,phase_2,stop,400.0,300.0,3.0,,,,,,,,,yellow,circle
0.0,7.0,3.0,1.0,5.0,5.0,506.66408697725274,4.0,1.0,phase_2,stop,350.0,300.0,3.0,,,,,,,,,white,hexagon
0.0,1.0,1.0,0.0,6.0,6.0,608.6835410096683,4.0,1.0,phase_2,go,300.0,300.0,1.0,,,,,,,,,cyan,triangle
0.0,6.0,2.0,1.0,5.0,0.0,0.0,4.0,1.0,phase_2,stop,300.0,300.0,4.0,,,,,,,,,magenta,flipped triangle
0.0,1.0,1.0,0.0,5.0,5.0,519.511730002705,4.0,1.0,phase_2,go,350.0,300.0,1.0,,,,,,,,,cyan,triangle
0.0,1.0,1.0,0.0,6.0,6.0,301.5211680030916,4.0,1.0,phase_2,go,350.0,300.0,1.0,,,,,,,,,cyan,triangle
0.0,2.0,2.0,0.0,5.0,5.0,399.4795469916425,4.0,1.0,phase_2,go,350.0,300.0,1.0,,,,,,,,,blue,square
0.0,5.0,1.0,1.0,6.0,0.0,0.0,5.0,1.0,phase_2,stop,350.0,300.0,4.0,,,,,,,,,orange,cross
0.0,2.0,2.0,0.0,5.0,5.0,452.8545129869599,5.0,1.0,phase_2,go,350.0,350.0,1.0,,,,,,,,,blue,square
0.0,1.0,1.0,0.0,5.0,5.0,460.9939829970244,5.0,1.0,phase_2,go,350.0,350.0,1.0,,,,,,,,,cyan,triangle
0.0,5.0,1.0,1.0,5.0,5.0,293.5473590041511,5.0,1.0,phase_2,stop,350.0,350.0,3.0,,,,,,,,,orange,cross
0.0,1.0,1.0,0.0,5.0,5.0,475.6096559867728,5.0,1.0,phase_2,go,300.0,350.0,1.0,,,,,,,,,cyan,triangle
0.0,3.0,3.0,0.0,5.0,5.0,404.6620880253613,5.0,1.0,phase_2,go,300.0,350.0,1.0,,,,,,,,,green,diamond
0.0,8.0,4.0,1.0,6.0,6.0,312.9263709997758,5.0,1.0,phase_2,go,300.0,350.0,1.0,,,,,,,,,yellow,circle
0.0,7.0,3.0,1.0,6.0,6.0,374.4848140049726,5.0,1.0,phase_2,stop,300.0,350.0,3.0,,,,,,,,,white,hexagon
0.0,8.0,4.0,1.0,5.0,5.0,606.8534009973519,5.0,1.0,phase_2,go,300.0,300.0,1.0,,,,,,,,,yellow,circle
0.0,6.0,2.0,1.0,6.0,6.0,262.0782390004024,5.0,1.0,phase_2,stop,300.0,300.0,3.0,,,,,,,,,magenta,flipped triangle
0.0,4.0,4.0,0.0,5.0,5.0,608.7974830006715,5.0,1.0,phase_2,go,300.0,250.0,1.0,,,,,,,,,gray,I
0.0,8.0,4.0,1.0,5.0,0.0,0.0,5.0,1.0,phase_2,stop,300.0,250.0,4.0,,,,,,,,,yellow,circle
0.0,8.0,4.0,1.0,5.0,5.0,454.837702010991,5.0,1.0,phase_2,stop,350.0,250.0,3.0,,,,,,,,,yellow,circle
0.0,2.0,2.0,0.0,5.0,5.0,511.10229597543366,5.0,1.0,phase_2,go,300.0,250.0,1.0,,,,,,,,,blue,square
0.0,3.0,3.0,0.0,5.0,5.0,486.7398689966649,5.0,1.0,phase_2,go,300.0,250.0,1.0,,,,,,,,,green,diamond
0.0,2.0,2.0,0.0,6.0,6.0,316.1880889965687,5.0,1.0,phase_2,go,300.0,250.0,1.0,,,,,,,,,blue,square
0.0,4.0,4.0,0.0,6.0,6.0,371.0398999974131,5.0,1.0,phase_2,go,300.0,250.0,1.0,,,,,,,,,gray,I
0.0,1.0,1.0,0.0,6.0,6.0,378.0457410030067,5.0,1.0,phase_2,go,300.0,250.0,1.0,,,,,,,,,cyan,triangle
0.0,8.0,4.0,1.0,6.0,0.0,0.0,5.0,1.0,phase_2,stop,300.0,250.0,4.0,,,,,,,,,yellow,circle
0.0,3.0,3.0,0.0,6.0,6.0,354.7031909984071,5.0,1.0,phase_2,go,300.0,300.0,1.0,,,,,,,,,green,diamond
0.0,6.0,2.0,1.0,5.0,0.0,0.0,5.0,1.0,phase_2,stop,300.0,300.0,4.0,,,,,,,,,magenta,flipped triangle
0.0,5.0,1.0,1.0,6.0,0.0,0.0,5.0,1.0,phase_2,stop,350.0,300.0,4.0,,,,,,,,,orange,cross
0.0,7.0,3.0,1.0,5.0,0.0,0.0,5.0,1.0,phase_2,stop,350.0,350.0,4.0,,,,,,,,,white,hexagon
0.0,7.0,3.0,1.0,6.0,6.0,624.72286800039,5.0,1.0,phase_2,go,400.0,350.0,1.0,,,,,,,,,white,hexagon
0.0,2.0,2.0,0.0,5.0,5.0,281.9633540057111,5.0,1.0,phase_2,go,400.0,350.0,1.0,,,,,,,,,blue,square
0.0,5.0,1.0,1.0,6.0,0.0,0.0,5.0,1.0,phase_2,stop,400.0,350.0,4.0,,,,,,,,,orange,cross
0.0,6.0,2.0,1.0,6.0,6.0,589.0347919776104,5.0,1.0,phase_2,stop,400.0,400.0,3.0,,,,,,,,,magenta,flipped triangle
0.0,7.0,3.0,1.0,6.0,0.0,0.0,5.0,1.0,phase_2,stop,400.0,350.0,4.0,,,,,,,,,white,hexagon
0.0,3.0,3.0,0.0,6.0,6.0,671.2190469843335,5.0,1.0,phase_2,go,400.0,400.0,1.0,,,,,,,,,green,diamond
0.0,3.0,3.0,0.0,5.0,5.0,1139.7818099940196,5.0,1.0,phase_2,go,400.0,400.0,1.0,,,,,,,,,green,diamond
0.0,3.0,3.0,0.0,6.0,6.0,779.4405320018996,5.0,1.0,phase_2,go,400.0,400.0,1.0,,,,,,,,,green,diamond
0.0,5.0,1.0,1.0,6.0,6.0,498.5611620068084,5.0,1.0,phase_2,go,400.0,400.0,1.0,,,,,,,,,orange,cross
0.0,5.0,1.0,1.0,5.0,5.0,579.0421749989036,5.0,1.0,phase_2,go,400.0,400.0,1.0,,,,,,,,,orange,cross
0.0,4.0,4.0,0.0,6.0,6.0,489.1879229980986,5.0,1.0,phase_2,go,400.0,400.0,1.0,,,,,,,,,gray,I
0.0,7.0,3.0,1.0,6.0,6.0,473.6106389900669,5.0,1.0,phase_2,stop,400.0,400.0,3.0,,,,,,,,,white,hexagon
0.0,4.0,4.0,0.0,6.0,6.0,690.2673050062731,5.0,1.0,phase_2,go,400.0,350.0,1.0,,,,,,,,,gray,I
0.0,6.0,2.0,1.0,6.0,6.0,374.1597030020784,6.0,1.0,phase_2,stop,400.0,350.0,3.0,,,,,,,,,magenta,flipped triangle
0.0,5.0,1.0,1.0,5.0,5.0,319.0744089952204,6.0,1.0,phase_2,stop,400.0,300.0,3.0,,,,,,,,,orange,cross
0.0,3.0,3.0,0.0,6.0,6.0,506.97697498253547,6.0,1.0,phase_2,go,350.0,300.0,1.0,,,,,,,,,green,diamond
0.0,6.0,2.0,1.0,6.0,6.0,555.6999669934157,6.0,1.0,phase_2,go,350.0,300.0,1.0,,,,,,,,,magenta,flipped triangle
0.0,2.0,2.0,0.0,5.0,5.0,325.9084110031836,6.0,1.0,phase_2,go,350.0,300.0,1.0,,,,,,,,,blue,square
0.0,5.0,1.0,1.0,5.0,5.0,330.6863690086175,6.0,1.0,phase_2,stop,350.0,300.0,3.0,,,,,,,,,orange,cross
0.0,2.0,2.0,0.0,5.0,5.0,672.7194259874523,6.0,1.0,phase_2,go,300.0,300.0,1.0,,,,,,,,,blue,square
0.0,1.0,1.0,0.0,6.0,6.0,618.4525699936785,6.0,1.0,phase_2,go,300.0,300.0,1.0,,,,,,,,,cyan,triangle
0.0,8.0,4.0,1.0,5.0,5.0,482.1543139987625,6.0,1.0,phase_2,stop,300.0,300.0,3.0,,,,,,,,,yellow,circle
0.0,8.0,4.0,1.0,6.0,6.0,326.3837469858117,6.0,1.0,phase_2,stop,250.0,300.0,3.0,,,,,,,,,yellow,circle
0.0,2.0,2.0,0.0,6.0,6.0,562.8329860046506,6.0,1.0,phase_2,go,250.0,250.0,1.0,,,,,,,,,blue,square
0.0,7.0,3.0,1.0,5.0,5.0,606.4173949998803,6.0,1.0,phase_2,go,250.0,250.0,1.0,,,,,,,,,white,hexagon
0.0,4.0,4.0,0.0,6.0,6.0,305.4836379888002,6.0,1.0,phase_2,go,250.0,250.0,1.0,,,,,,,,,gray,I
0.0,4.0,4.0,0.0,5.0,5.0,535.8855130034499,6.0,1.0,phase_2,go,250.0,250.0,1.0,,,,,,,,,gray,I
0.0,6.0,2.0,1.0,5.0,0.0,0.0,6.0,1.0,phase_2,stop,250.0,250.0,4.0,,,,,,,,,magenta,flipped triangle
0.0,7.0,3.0,1.0,6.0,6.0,419.7841949935537,6.0,1.0,phase_2,stop,300.0,250.0,3.0,,,,,,,,,white,hexagon
0.0,3.0,3.0,0.0,5.0,5.0,575.0003790017217,6.0,1.0,phase_2,go,300.0,200.0,1.0,,,,,,,,,green,diamond
0.0,4.0,4.0,0.0,5.0,5.0,694.5851850032341,6.0,1.0,phase_2,go,300.0,200.0,1.0,,,,,,,,,gray,I
0.0,3.0,3.0,0.0,5.0,5.0,618.2431079796515,6.0,1.0,phase_2,go,300.0,200.0,1.0,,,,,,,,,green,diamond
0.0,5.0,1.0,1.0,5.0,0.0,0.0,6.0,1.0,phase_2,stop,300.0,200.0,4.0,,,,,,,,,orange,cross
0.0,1.0,1.0,0.0,5.0,5.0,529.1590100096073,6.0,1.0,phase_2,go,350.0,200.0,1.0,,,,,,,,,cyan,triangle
0.0,1.0,1.0,0.0,6.0,6.0,464.1194980067666,6.0,1.0,phase_2,go,350.0,200.0,1.0,,,,,,,,,cyan,triangle
0.0,6.0,2.0,1.0,5.0,5.0,287.8789840033278,6.0,1.0,phase_2,stop,350.0,200.0,3.0,,,,,,,,,magenta,flipped triangle
0.0,1.0,1.0,0.0,5.0,5.0,937.3438589973376,6.0,1.0,phase_2,go,300.0,200.0,1.0,,,,,,,,,cyan,triangle
0.0,5.0,1.0,1.0,5.0,5.0,345.413532020757,6.0,1.0,phase_2,stop,300.0,200.0,3.0,,,,,,,,,orange,cross
0.0,3.0,3.0,0.0,6.0,6.0,297.1400840033311,6.0,1.0,phase_2,go,250.0,200.0,1.0,,,,,,,,,green,diamond
0.0,3.0,3.0,0.0,6.0,6.0,469.6051719947718,6.0,1.0,phase_2,go,250.0,200.0,1.0,,,,,,,,,green,diamond
0.0,1.0,1.0,0.0,5.0,5.0,246.3310600141994,6.0,1.0,phase_2,go,250.0,200.0,1.0,,,,,,,,,cyan,triangle
0.0,5.0,1.0,1.0,6.0,6.0,288.3835530083161,6.0,1.0,phase_2,go,250.0,200.0,1.0,,,,,,,,,orange,cross
0.0,8.0,4.0,1.0,5.0,5.0,367.6042500010226,6.0,1.0,phase_2,stop,250.0,200.0,3.0,,,,,,,,,yellow,circle
0.0,1.0,1.0,0.0,5.0,5.0,494.6408139949199,6.0,1.0,phase_2,go,200.0,200.0,1.0,,,,,,,,,cyan,triangle
0.0,6.0,2.0,1.0,6.0,6.0,268.7596270116046,6.0,1.0,phase_2,go,200.0,200.0,1.0,,,,,,,,,magenta,flipped triangle
0.0,5.0,1.0,1.0,6.0,6.0,525.1968749798834,6.0,1.0,phase_2,go,200.0,200.0,1.0,,,,,,,,,orange,cross
0.0,8.0,4.0,1.0,5.0,5.0,337.8597529954277,6.0,1.0,phase_2,stop,200.0,200.0,3.0,,,,,,,,,yellow,circle
0.0,5.0,1.0,1.0,5.0,0.0,0.0,6.0,1.0,phase_2,stop,150.0,200.0,4.0,,,,,,,,,orange,cross
0.0,2.0,2.0,0.0,5.0,5.0,379.2132369999308,6.0,1.0,phase_2,go,200.0,200.0,1.0,,,,,,,,,blue,square
0.0,6.0,2.0,1.0,5.0,5.0,360.0030529778451,7.0,1.0,phase_2,go,200.0,200.0,1.0,,,,,,,,,magenta,flipped triangle
0.0,2.0,2.0,0.0,5.0,5.0,433.201864012517,7.0,1.0,phase_2,go,200.0,200.0,1.0,,,,,,,,,blue,square
0.0,5.0,1.0,1.0,6.0,6.0,281.2560599995777,7.0,1.0,phase_2,stop,200.0,200.0,3.0,,,,,,,,,orange,cross
0.0,8.0,4.0,1.0,6.0,0.0,0.0,7.0,1.0,phase_2,stop,200.0,150.0,4.0,,,,,,,,,yellow,circle
0.0,6.0,2.0,1.0,5.0,5.0,392.2888269880786,7.0,1.0,phase_2,go,200.0,200.0,1.0,,,,,,,,,magenta,flipped triangle
0.0,7.0,3.0,1.0,5.0,0.0,0.0,7.0,1.0,phase_2,stop,200.0,200.0,4.0,,,,,,,,,white,hexagon
0.0,6.0,2.0,1.0,5.0,0.0,0.0,7.0,1.0,phase_2,stop,250.0,200.0,4.0,,,,,,,,,magenta,flipped triangle
0.0,8.0,4.0,1.0,6.0,6.0,287.8291230008472,7.0,1.0,phase_2,stop,300.0,200.0,3.0,,,,,,,,,yellow,circle
0.0,1.0,1.0,0.0,6.0,6.0,539.9344449979253,7.0,1.0,phase_2,go,300.0,150.0,1.0,,,,,,,,,cyan,triangle
0.0,1.0,1.0,0.0,5.0,5.0,461.3158550055232,7.0,1.0,phase_2,go,300.0,150.0,1.0,,,,,,,,,cyan,triangle
0.0,8.0,4.0,1.0,5.0,5.0,487.2011879924685,7.0,1.0,phase_2,go,300.0,150.0,1.0,,,,,,,,,yellow,circle
0.0,3.0,3.0,0.0,5.0,5.0,612.1253799938131,7.0,1.0,phase_2,go,300.0,150.0,1.0,,,,,,,,,green,diamond
0.0,1.0,1.0,0.0,5.0,5.0,329.909977997886,7.0,1.0,phase_2,go,300.0,150.0,1.0,,,,,,,,,cyan,triangle
0.0,2.0,2.0,0.0,5.0,5.0,299.9914400279522,7.0,1.0,phase_2,go,300.0,150.0,1.0,,,,,,,,,blue,square
0.0,5.0,1.0,1.0,6.0,6.0,344.6015660010744,7.0,1.0,phase_2,stop,300.0,150.0,3.0,,,,,,,,,orange,cross
0.0,8.0,4.0,1.0,6.0,6.0,528.2259230152704,7.0,1.0,phase_2,go,300.0,100.0,1.0,,,,,,,,,yellow,circle
0.0,4.0,4.0,0.0,5.0,5.0,448.1715919973794,7.0,1.0,phase_2,go,300.0,100.0,1.0,,,,,,,,,gray,I
0.0,6.0,2.0,1.0,5.0,5.0,318.0195260210894,7.0,1.0,phase_2,stop,300.0,100.0,3.0,,,,,,,,,magenta,flipped triangle
0.0,1.0,1.0,0.0,6.0,6.0,465.3707329998724,7.0,1.0,phase_2,go,250.0,100.0,1.0,,,,,,,,,cyan,triangle
0.0,5.0,1.0,1.0,6.0,0.0,0.0,7.0,1.0,phase_2,stop,250.0,100.0,4.0,,,,,,,,,orange,cross
0.0,2.0,2.0,0.0,6.0,6.0,488.6919109849259,7.0,1.0,phase_2,go,250.0,150.0,1.0,,,,,,,,,blue,square
0.0,2.0,2.0,0.0,5.0,5.0,317.5405480142217,7.0,1.0,phase_2,go,250.0,150.0,1.0,,,,,,,,,blue,square
0.0,2.0,2.0,0.0,6.0,6.0,285.1362770015839,7.0,1.0,phase_2,go,250.0,150.0,1.0,,,,,,,,,blue,square
0.0,7.0,3.0,1.0,6.0,6.0,502.723457000684,7.0,1.0,phase_2,go,250.0,150.0,1.0,,,,,,,,,white,hexagon
0.0,8.0,4.0,1.0,6.0,0.0,0.0,7.0,1.0,phase_2,stop,250.0,150.0,4.0,,,,,,,,,yellow,circle
0.0,4.0,4.0,0.0,6.0,6.0,667.016658000648,7.0,1.0,phase_2,go,250.0,200.0,1.0,,,,,,,,,gray,I
0.0,4.0,4.0,0.0,6.0,6.0,482.8345639980398,7.0,1.0,phase_2,go,250.0,200.0,1.0,,,,,,,,,gray,I
0.0,6.0,2.0,1.0,6.0,6.0,361.5083039912861,7.0,1.0,phase_2,stop,250.0,200.0,3.0,,,,,,,,,magenta,flipped triangle
0.0,7.0,3.0,1.0,6.0,0.0,0.0,7.0,1.0,phase_2,stop,250.0,150.0,4.0,,,,,,,,,white,hexagon
0.0,7.0,3.0,1.0,6.0,6.0,499.7510219982359,7.0,1.0,phase_2,go,250.0,200.0,1.0,,,,,,,,,white,hexagon
0.0,7.0,3.0,1.0,6.0,6.0,330.9891390090342,7.0,1.0,phase_2,stop,250.0,200.0,3.0,,,,,,,,,white,hexagon
0.0,6.0,2.0,1.0,6.0,0.0,0.0,7.0,1.0,phase_2,stop,250.0,150.0,4.0,,,,,,,,,magenta,flipped triangle
0.0,5.0,1.0,1.0,6.0,6.0,687.6656850217842,7.0,1.0,phase_2,go,250.0,200.0,1.0,,,,,,,,,orange,cross
0.0,2.0,2.0,0.0,5.0,5.0,389.8667179746553,7.0,1.0,phase_2,go,250.0,200.0,1.0,,,,,,,,,blue,square
0.0,1.0,1.0,0.0,5.0,5.0,414.8371020273771,7.0,1.0,phase_2,go,250.0,200.0,1.0,,,,,,,,,cyan,triangle
0.0,2.0,2.0,0.0,6.0,6.0,468.9406370162032,7.0,1.0,phase_2,go,250.0,200.0,1.0,,,,,,,,,blue,square
0.0,1.0,1.0,0.0,6.0,6.0,320.6918410141952,8.0,1.0,phase_2,go,250.0,200.0,1.0,,,,,,,,,cyan,triangle
0.0,3.0,3.0,0.0,6.0,6.0,305.4970219964161,8.0,1.0,phase_2,go,250.0,200.0,1.0,,,,,,,,,green,diamond
0.0,8.0,4.0,1.0,5.0,0.0,0.0,8.0,1.0,phase_2,stop,250.0,200.0,4.0,,,,,,,,,yellow,circle
0.0,8.0,4.0,1.0,6.0,0.0,0.0,8.0,1.0,phase_2,stop,300.0,200.0,4.0,,,,,,,,,yellow,circle
0.0,8.0,4.0,1.0,5.0,0.0,0.0,8.0,1.0,phase_2,go,300.0,250.0,5.0,,,,,,,,,yellow,circle
0.0,3.0,3.0,0.0,6.0,0.0,0.0,8.0,1.0,phase_2,go,300.0,250.0,5.0,,,,,,,,,green,diamond
0.0,6.0,2.0,1.0,5.0,0.0,0.0,8.0,1.0,phase_2,stop,300.0,250.0,4.0,,,,,,,,,magenta,flipped triangle
0.0,8.0,4.0,1.0,6.0,0.0,0.0,8.0,1.0,phase_2,stop,350.0,250.0,4.0,,,,,,,,,yellow,circle
0.0,7.0,3.0,1.0,6.0,0.0,0.0,8.0,1.0,phase_2,stop,350.0,300.0,4.0,,,,,,,,,white,hexagon
0.0,1.0,1.0,0.0,5.0,0.0,0.0,8.0,1.0,phase_2,go,350.0,350.0,5.0,,,,,,,,,cyan,triangle
0.0,2.0,2.0,0.0,5.0,0.0,0.0,8.0,1.0,phase_2,go,350.0,350.0,5.0,,,,,,,,,blue,square
0.0,8.0,4.0,1.0,6.0,0.0,0.0,8.0,1.0,phase_2,stop,350.0,350.0,4.0,,,,,,,,,yellow,circle
0.0,7.0,3.0,1.0,6.0,0.0,0.0,8.0,1.0,phase_2,go,350.0,400.0,5.0,,,,,,,,,white,hexagon
0.0,7.0,3.0,1.0,5.0,0.0,0.0,8.0,1.0,phase_2,go,350.0,400.0,5.0,,,,,,,,,white,hexagon
0.0,7.0,3.0,1.0,5.0,0.0,0.0,8.0,1.0,phase_2,stop,350.0,400.0,4.0,,,,,,,,,white,hexagon
0.0,2.0,2.0,0.0,6.0,0.0,0.0,8.0,1.0,phase_2,go,400.0,400.0,5.0,,,,,,,,,blue,square
0.0,8.0,4.0,1.0,6.0,0.0,0.0,8.0,1.0,phase_2,stop,400.0,400.0,4.0,,,,,,,,,yellow,circle
0.0,6.0,2.0,1.0,6.0,0.0,0.0,8.0,1.0,phase_2,go,400.0,450.0,5.0,,,,,,,,,magenta,flipped triangle
0.0,8.0,4.0,1.0,5.0,0.0,0.0,8.0,1.0,phase_2,stop,400.0,450.0,4.0,,,,,,,,,yellow,circle
0.0,3.0,3.0,0.0,5.0,0.0,0.0,8.0,1.0,phase_2,go,450.0,450.0,5.0,,,,,,,,,green,diamond
0.0,6.0,2.0,1.0,6.0,0.0,0.0,8.0,1.0,phase_2,stop,450.0,450.0,4.0,,,,,,,,,magenta,flipped triangle
0.0,4.0,4.0,0.0,6.0,0.0,0.0,8.0,1.0,phase_2,go,450.0,500.0,5.0,,,,,,,,,gray,I
0.0,7.0,3.0,1.0,5.0,0.0,0.0,8.0,1.0,phase_2,stop,450.0,500.0,4.0,,,,,,,,,white,hexagon
0.0,1.0,1.0,0.0,5.0,0.0,0.0,8.0,1.0,phase_2,go,500.0,500.0,5.0,,,,,,,,,cyan,triangle
0.0,1.0,1.0,0.0,6.0,0.0,0.0,8.0,1.0,phase_2,go,500.0,500.0,5.0,,,,,,,,,cyan,triangle
0.0,4.0,4.0,0.0,5.0,0.0,0.0,8.0,1.0,phase_2,go,500.0,500.0,5.0,,,,,,,,,gray,I
0.0,3.0,3.0,0.0,5.0,0.0,0.0,8.0,1.0,phase_2,go,500.0,500.0,5.0,,,,,,,,,green,diamond
0.0,5.0,1.0,1.0,5.0,0.0,0.0,8.0,1.0,phase_2,go,500.0,500.0,5.0,,,,,,,,,orange,cross
0.0,5.0,1.0,1.0,6.0,0.0,0.0,8.0,1.0,phase_2,stop,500.0,500.0,4.0,,,,,,,,,orange,cross
0.0,3.0,3.0,0.0,6.0,0.0,0.0,8.0,1.0,phase_2,go,500.0,550.0,5.0,,,,,,,,,green,diamond
0.0,8.0,4.0,1.0,6.0,0.0,0.0,8.0,1.0,phase_2,stop,500.0,550.0,4.0,,,,,,,,,yellow,circle
0.0,4.0,4.0,0.0,5.0,0.0,0.0,8.0,1.0,phase_2,go,500.0,600.0,5.0,,,,,,,,,gray,I
0.0,6.0,2.0,1.0,5.0,0.0,0.0,8.0,1.0,phase_2,stop,500.0,600.0,4.0,,,,,,,,,magenta,flipped triangle
0.0,2.0,2.0,0.0,6.0,0.0,0.0,8.0,1.0,phase_2,go,550.0,600.0,5.0,,,,,,,,,blue,square
0.0,8.0,4.0,1.0,5.0,0.0,0.0,8.0,1.0,phase_2,stop,550.0,600.0,4.0,,,,,,,,,yellow,circle
0.0,3.0,3.0,0.0,5.0,0.0,0.0,8.0,1.0,phase_2,go,600.0,600.0,5.0,,,,,,,,,green,diamond
0.0,3.0,3.0,0.0,7.0,3.0,2965.4920710017905,1.0,1.0,phase_3,,,,,170.0,5.0,102.0,68.0,170.0,136.0,204.0,34.0,green,diamond
0.0,4.0,4.0,0.0,7.0,5.0,3492.571174021577,1.0,1.0,phase_3,,,,,108.0,2.0,324.0,54.0,270.0,162.0,108.0,216.0,gray,I
0.0,8.0,4.0,1.0,7.0,1.0,2060.879391996423,1.0,1.0,phase_3,,,,,44.0,1.0,44.0,88.0,220.0,132.0,264.0,176.0,yellow,circle
0.0,1.0,1.0,0.0,7.0,4.0,3323.939328023698,1.0,1.0,phase_3,,,,,216.0,4.0,108.0,270.0,54.0,216.0,324.0,162.0,cyan,triangle
0.0,3.0,3.0,0.0,7.0,3.0,1390.771581005538,1.0,1.0,phase_3,,,,,220.0,5.0,264.0,132.0,220.0,88.0,176.0,44.0,green,diamond
0.0,5.0,1.0,1.0,7.0,6.0,1095.8577319979668,1.0,1.0,phase_3,,,,,216.0,4.0,270.0,108.0,324.0,162.0,54.0,216.0,orange,cross
0.0,8.0,4.0,1.0,7.0,2.0,3146.272180019878,1.0,1.0,phase_3,,,,,204.0,6.0,102.0,204.0,68.0,136.0,170.0,34.0,yellow,circle
0.0,1.0,1.0,0.0,7.0,3.0,1877.6344459911345,1.0,1.0,phase_3,,,,,324.0,6.0,162.0,216.0,324.0,108.0,270.0,54.0,cyan,triangle
0.0,5.0,1.0,1.0,7.0,4.0,1451.255771011347,1.0,1.0,phase_3,,,,,270.0,5.0,162.0,108.0,54.0,270.0,216.0,324.0,orange,cross
0.0,2.0,2.0,0.0,7.0,3.0,1084.3372299859766,1.0,1.0,phase_3,,,,,294.0,6.0,245.0,147.0,294.0,196.0,98.0,49.0,blue,square
0.0,7.0,3.0,1.0,7.0,2.0,1504.950620001182,1.0,1.0,phase_3,,,,,204.0,6.0,102.0,204.0,136.0,170.0,34.0,68.0,white,hexagon
0.0,7.0,3.0,1.0,7.0,5.0,602.2195390251,1.0,1.0,phase_3,,,,,117.0,3.0,195.0,78.0,234.0,39.0,117.0,156.0,white,hexagon
0.0,3.0,3.0,0.0,7.0,2.0,1880.400380003266,1.0,1.0,phase_3,,,,,108.0,2.0,162.0,108.0,54.0,324.0,270.0,216.0,green,diamond
0.0,8.0,4.0,1.0,7.0,5.0,1804.5579759927928,1.0,1.0,phase_3,,,,,156.0,4.0,78.0,195.0,234.0,39.0,156.0,117.0,yellow,circle
0.0,6.0,2.0,1.0,7.0,2.0,1579.9071999790613,1.0,1.0,phase_3,,,,,264.0,6.0,176.0,264.0,88.0,220.0,132.0,44.0,magenta,flipped triangle
0.0,3.0,3.0,0.0,7.0,2.0,1343.659481004579,1.0,1.0,phase_3,,,,,204.0,6.0,170.0,204.0,68.0,136.0,102.0,34.0,green,diamond
0.0,2.0,2.0,0.0,7.0,5.0,726.8378529988695,1.0,1.0,phase_3,,,,,234.0,6.0,78.0,195.0,156.0,117.0,234.0,39.0,blue,square
0.0,1.0,1.0,0.0,7.0,3.0,1874.6753089944832,1.0,1.0,phase_3,,,,,294.0,6.0,147.0,196.0,294.0,245.0,98.0,49.0,cyan,triangle
0.0,1.0,1.0,0.0,7.0,1.0,865.809820999857,1.0,1.0,phase_3,,,,,147.0,3.0,147.0,294.0,98.0,196.0,245.0,49.0,cyan,triangle
0.0,1.0,1.0,0.0,7.0,6.0,653.6402080091648,1.0,1.0,phase_3,,,,,170.0,5.0,136.0,102.0,204.0,34.0,68.0,170.0,cyan,triangle
0.0,5.0,1.0,1.0,7.0,1.0,1366.1140809999781,2.0,1.0,phase_3,,,,,220.0,5.0,220.0,88.0,176.0,264.0,44.0,132.0,orange,cross
0.0,2.0,2.0,0.0,7.0,5.0,962.7408420201392,2.0,1.0,phase_3,,,,,108.0,2.0,54.0,216.0,162.0,270.0,108.0,324.0,blue,square
0.0,3.0,3.0,0.0,7.0,6.0,484.1015209967736,2.0,1.0,phase_3,,,,,220.0,5.0,132.0,264.0,44.0,176.0,88.0,220.0,green,diamond
0.0,4.0,4.0,0.0,7.0,2.0,595.2172850084025,2.0,1.0,phase_3,,,,,39.0,1.0,156.0,39.0,234.0,117.0,78.0,195.0,gray,I
0.0,4.0,4.0,0.0,7.0,2.0,948.5200890048872,2.0,1.0,phase_3,,,,,132.0,3.0,44.0,132.0,220.0,264.0,88.0,176.0,gray,I
0.0,2.0,2.0,0.0,7.0,5.0,845.7089250150602,2.0,1.0,phase_3,,,,,162.0,3.0,324.0,270.0,54.0,108.0,162.0,216.0,blue,square
0.0,1.0,1.0,0.0,7.0,1.0,929.6258569811472,2.0,1.0,phase_3,,,,,88.0,2.0,88.0,44.0,264.0,132.0,220.0,176.0,cyan,triangle
0.0,2.0,2.0,0.0,7.0,2.0,727.8512509947177,2.0,1.0,phase_3,,,,,234.0,6.0,195.0,234.0,117.0,39.0,156.0,78.0,blue,square
0.0,7.0,3.0,1.0,7.0,5.0,635.0697719899472,2.0,1.0,phase_3,,,,,176.0,4.0,264.0,88.0,132.0,220.0,176.0,44.0,white,hexagon
0.0,7.0,3.0,1.0,7.0,2.0,1118.680018989835,2.0,1.0,phase_3,,,,,108.0,2.0,216.0,108.0,324.0,54.0,162.0,270.0,white,hexagon
0.0,2.0,2.0,0.0,7.0,2.0,1143.110742996214,2.0,1.0,phase_3,,,,,136.0,4.0,170.0,136.0,204.0,102.0,34.0,68.0,blue,square
0.0,8.0,4.0,1.0,7.0,5.0,693.4386339853518,2.0,1.0,phase_3,,,,,108.0,2.0,324.0,162.0,54.0,270.0,108.0,216.0,yellow,circle
0.0,6.0,2.0,1.0,7.0,1.0,577.0156630023848,2.0,1.0,phase_3,,,,,88.0,2.0,88.0,264.0,176.0,44.0,220.0,132.0,magenta,flipped triangle
0.0,3.0,3.0,0.0,7.0,5.0,610.3916249994654,2.0,1.0,phase_3,,,,,162.0,3.0,270.0,216.0,54.0,108.0,162.0,324.0,green,diamond
0.0,5.0,1.0,1.0,7.0,5.0,1356.1607629817445,2.0,1.0,phase_3,,,,,170.0,5.0,68.0,34.0,204.0,136.0,170.0,102.0,orange,cross
0.0,6.0,2.0,1.0,7.0,2.0,1107.796217984287,2.0,1.0,phase_3,,,,,117.0,3.0,195.0,117.0,78.0,234.0,39.0,156.0,magenta,flipped triangle
0.0,6.0,2.0,1.0,7.0,5.0,1311.4363029890228,2.0,1.0,phase_3,,,,,162.0,3.0,216.0,54.0,270.0,324.0,162.0,108.0,magenta,flipped triangle
0.0,3.0,3.0,0.0,7.0,3.0,1454.8619689885527,2.0,1.0,phase_3,,,,,196.0,4.0,98.0,147.0,196.0,49.0,294.0,245.0,green,diamond
0.0,4.0,4.0,0.0,7.0,3.0,1721.128190984018,2.0,1.0,phase_3,,,,,204.0,6.0,170.0,34.0,204.0,102.0,68.0,136.0,gray,I
0.0,7.0,3.0,1.0,7.0,6.0,1312.7010260068346,2.0,1.0,phase_3,,,,,156.0,4.0,195.0,78.0,234.0,39.0,117.0,156.0,white,hexagon
0.0,7.0,3.0,1.0,7.0,2.0,3588.153208984295,3.0,1.0,phase_3,,,,,44.0,1.0,88.0,44.0,220.0,176.0,132.0,264.0,white,hexagon
0.0,5.0,1.0,1.0,7.0,4.0,1435.5621760187205,3.0,1.0,phase_3,,,,,234.0,6.0,78.0,117.0,156.0,234.0,39.0,195.0,orange,cross
0.0,2.0,2.0,0.0,7.0,5.0,2072.1687960030977,3.0,1.0,phase_3,,,,,196.0,4.0,294.0,98.0,147.0,245.0,196.0,49.0,blue,square
0.0,1.0,1.0,0.0,7.0,2.0,1234.4172569864895,3.0,1.0,phase_3,,,,,44.0,1.0,132.0,44.0,88.0,176.0,264.0,220.0,cyan,triangle
0.0,7.0,3.0,1.0,7.0,4.0,1215.7414100074675,3.0,1.0,phase_3,,,,,245.0,5.0,147.0,196.0,49.0,245.0,98.0,294.0,white,hexagon
0.0,8.0,4.0,1.0,7.0,1.0,3187.065281003015,3.0,1.0,phase_3,,,,,176.0,4.0,176.0,132.0,264.0,220.0,88.0,44.0,yellow,circle
0.0,7.0,3.0,1.0,7.0,3.0,1746.99102298473,3.0,1.0,phase_3,,,,,34.0,1.0,170.0,204.0,34.0,102.0,136.0,68.0,white,hexagon
0.0,2.0,2.0,0.0,7.0,6.0,2574.9036569905,3.0,1.0,phase_3,,,,,176.0,4.0,132.0,220.0,44.0,264.0,88.0,176.0,blue,square
0.0,5.0,1.0,1.0,7.0,6.0,1903.4458060050383,3.0,1.0,phase_3,,,,,34.0,1.0,68.0,102.0,170.0,136.0,204.0,34.0,orange,cross
0.0,1.0,1.0,0.0,7.0,2.0,2047.4821509851608,3.0,1.0,phase_3,,,,,234.0,6.0,156.0,234.0,195.0,117.0,39.0,78.0,cyan,triangle
0.0,8.0,4.0,1.0,7.0,1.0,752.1642560022883,3.0,1.0,phase_3,,,,,49.0,1.0,49.0,245.0,147.0,98.0,196.0,294.0,yellow,circle
0.0,3.0,3.0,0.0,7.0,5.0,1140.8786189858802,3.0,1.0,phase_3,,,,,294.0,6.0,49.0,196.0,147.0,98.0,294.0,245.0,green,diamond
0.0,8.0,4.0,1.0,7.0,3.0,2901.027857005829,3.0,1.0,phase_3,,,,,204.0,6.0,68.0,102.0,204.0,136.0,34.0,170.0,yellow,circle
0.0,5.0,1.0,1.0,7.0,2.0,1300.0368269858882,3.0,1.0,phase_3,,,,,98.0,2.0,147.0,98.0,196.0,49.0,294.0,245.0,orange,cross
0.0,6.0,2.0,1.0,7.0,5.0,1416.40884699882,3.0,1.0,phase_3,,,,,34.0,1.0,170.0,136.0,68.0,204.0,34.0,102.0,magenta,flipped triangle
0.0,5.0,1.0,1.0,7.0,2.0,1431.7881989991292,3.0,1.0,phase_3,,,,,294.0,6.0,196.0,294.0,147.0,49.0,245.0,98.0,orange,cross
0.0,4.0,4.0,0.0,7.0,3.0,833.6580059840344,3.0,1.0,phase_3,,,,,54.0,1.0,270.0,324.0,54.0,162.0,216.0,108.0,gray,I
0.0,8.0,4.0,1.0,7.0,5.0,841.3238520151936,3.0,1.0,phase_3,,,,,39.0,1.0,234.0,195.0,156.0,117.0,39.0,78.0,yellow,circle
0.0,1.0,1.0,0.0,7.0,3.0,675.3762869921047,3.0,1.0,phase_3,,,,,204.0,6.0,136.0,102.0,204.0,34.0,170.0,68.0,cyan,triangle
0.0,4.0,4.0,0.0,7.0,3.0,580.9888049843721,3.0,1.0,phase_3,,,,,34.0,1.0,170.0,204.0,34.0,136.0,102.0,68.0,gray,I
0.0,7.0,3.0,1.0,7.0,5.0,1940.6467230001,4.0,1.0,phase_3,,,,,98.0,2.0,196.0,245.0,147.0,49.0,98.0,294.0,white,hexagon
0.0,2.0,2.0,0.0,7.0,4.0,1290.6356180028524,4.0,1.0,phase_3,,,,,204.0,6.0,136.0,170.0,68.0,204.0,102.0,34.0,blue,square
0.0,8.0,4.0,1.0,7.0,1.0,588.2377139932942,4.0,1.0,phase_3,,,,,270.0,5.0,270.0,54.0,324.0,216.0,162.0,108.0,yellow,circle
0.0,4.0,4.0,0.0,7.0,6.0,703.4493400133215,4.0,1.0,phase_3,,,,,156.0,4.0,195.0,39.0,234.0,78.0,117.0,156.0,gray,I
0.0,6.0,2.0,1.0,7.0,5.0,734.5925499976147,4.0,1.0,phase_3,,,,,245.0,5.0,98.0,294.0,196.0,49.0,245.0,147.0,magenta,flipped triangle
0.0,4.0,4.0,0.0,7.0,2.0,839.9387249955907,4.0,1.0,phase_3,,,,,147.0,3.0,245.0,147.0,49.0,294.0,196.0,98.0,gray,I
0.0,5.0,1.0,1.0,7.0,2.0,1251.3517100014724,4.0,1.0,phase_3,,,,,176.0,4.0,132.0,176.0,264.0,44.0,220.0,88.0,orange,cross
0.0,4.0,4.0,0.0,7.0,2.0,1410.5497709824704,4.0,1.0,phase_3,,,,,264.0,6.0,44.0,264.0,220.0,176.0,132.0,88.0,gray,I
0.0,6.0,2.0,1.0,7.0,5.0,612.3587010079063,4.0,1.0,phase_3,,,,,270.0,5.0,324.0,216.0,162.0,108.0,270.0,54.0,magenta,flipped triangle
0.0,6.0,2.0,1.0,7.0,5.0,816.0027890116908,4.0,1.0,phase_3,,,,,78.0,2.0,39.0,117.0,195.0,234.0,78.0,156.0,magenta,flipped triangle
0.0,5.0,1.0,1.0,7.0,4.0,785.1436630007811,4.0,1.0,phase_3,,,,,117.0,3.0,234.0,156.0,78.0,117.0,39.0,195.0,orange,cross
0.0,3.0,3.0,0.0,7.0,3.0,602.6419319969136,4.0,1.0,phase_3,,,,,156.0,4.0,195.0,117.0,156.0,234.0,78.0,39.0,green,diamond
0.0,2.0,2.0,0.0,7.0,6.0,531.8756309861783,4.0,1.0,phase_3,,,,,132.0,3.0,220.0,88.0,44.0,176.0,264.0,132.0,blue,square
0.0,4.0,4.0,0.0,7.0,2.0,595.7005440141074,4.0,1.0,phase_3,,,,,245.0,5.0,98.0,245.0,294.0,147.0,49.0,196.0,gray,I
0.0,8.0,4.0,1.0,7.0,4.0,892.7752269955818,4.0,1.0,phase_3,,,,,294.0,6.0,245.0,196.0,147.0,294.0,49.0,98.0,yellow,circle
0.0,3.0,3.0,0.0,7.0,1.0,559.7091380041093,4.0,1.0,phase_3,,,,,156.0,4.0,156.0,195.0,117.0,234.0,39.0,78.0,green,diamond
0.0,7.0,3.0,1.0,7.0,4.0,495.5606660223566,4.0,1.0,phase_3,,,,,162.0,3.0,324.0,216.0,270.0,162.0,108.0,54.0,white,hexagon
0.0,6.0,2.0,1.0,7.0,3.0,611.7379009956494,4.0,1.0,phase_3,,,,,245.0,5.0,98.0,294.0,245.0,147.0,49.0,196.0,magenta,flipped triangle
0.0,1.0,1.0,0.0,7.0,4.0,564.924244012218,4.0,1.0,phase_3,,,,,234.0,6.0,78.0,156.0,117.0,234.0,39.0,195.0,cyan,triangle
0.0,6.0,2.0,1.0,7.0,3.0,691.9676709803753,4.0,1.0,phase_3,,,,,170.0,5.0,136.0,204.0,170.0,68.0,102.0,34.0,magenta,flipped triangle
