raw_reward_magnitude,stim_reward,stepwise_reward_magnitude,paired_with_stopping,stim_location,response,reaction_time,block,num_trial_presentations,which_phase,stop_signal_trial_type,left_SSD,right_SSD,accuracy,chosen_bidding_amount,chosen_bidding_level,possible_bid_1,possible_bid_2,possible_bid_3,possible_bid_4,possible_bid_5,possible_bid_6,color_text,shape_text
80.0,2.0,1.0,0.0,2.0,2.0,382.7547630062327,1.0,1.0,phase_1,,,,,,,,,,,,,magenta,diamond
0.0,4.0,0.0,0.0,1.0,1.0,388.7212550034746,1.0,1.0,phase_1,,,,,,,,,,,,,green,hexagon
396.0,8.0,4.0,1.0,2.0,2.0,304.2486039921641,1.0,1.0,phase_1,,,,,,,,,,,,,blue,I
106.0,2.0,1.0,0.0,3.0,3.0,299.9676470062695,1.0,1.0,phase_1,,,,,,,,,,,,,magenta,diamond
190.0,7.0,2.0,1.0,1.0,1.0,330.6421730085276,1.0,1.0,phase_1,,,,,,,,,,,,,white,square
36.0,5.0,0.5,1.0,1.0,1.0,316.7627469811123,1.0,1.0,phase_1,,,,,,,,,,,,,orange,circle
0.0,4.0,0.0,0.0,1.0,1.0,323.7052540061995,1.0,1.0,phase_1,,,,,,,,,,,,,green,hexagon
38.0,5.0,0.5,1.0,4.0,4.0,369.4256929738913,1.0,1.0,phase_1,,,,,,,,,,,,,orange,circle
186.0,3.0,2.0,0.0,1.0,1.0,381.7096129932906,1.0,1.0,phase_1,,,,,,,,,,,,,gray,cross
205.0,7.0,2.0,1.0,3.0,3.0,312.0285009790677,1.0,1.0,phase_1,,,,,,,,,,,,,white,square
382.0,4.0,4.0,0.0,4.0,4.0,317.1805539750494,1.0,1.0,phase_1,,,,,,,,,,,,,green,hexagon
0.0,5.0,0.0,1.0,4.0,4.0,297.3785570065956,1.0,1.0,phase_1,,,,,,,,,,,,,orange,circle
197.0,3.0,2.0,0.0,2.0,2.0,286.9596219970844,1.0,1.0,phase_1,,,,,,,,,,,,,gray,cross
0.0,5.0,0.0,1.0,3.0,3.0,299.2250479874201,1.0,1.0,phase_1,,,,,,,,,,,,,orange,circle
399.0,8.0,4.0,1.0,4.0,4.0,327.5065810012165,1.0,1.0,phase_1,,,,,,,,,,,,,blue,I
378.0,8.0,4.0,1.0,2.0,2.0,316.80968002183357,1.0,1.0,phase_1,,,,,,,,,,,,,blue,I
415.0,8.0,4.0,1.0,2.0,2.0,290.2173670008778,1.0,1.0,phase_1,,,,,,,,,,,,,blue,I
66.0,5.0,0.5,1.0,2.0,2.0,285.012578999158,1.0,1.0,phase_1,,,,,,,,,,,,,orange,circle
186.0,7.0,2.0,1.0,4.0,4.0,381.5587949939072,1.0,1.0,phase_1,,,,,,,,,,,,,white,square
0.0,5.0,0.0,1.0,4.0,4.0,329.7765189781785,1.0,1.0,phase_1,,,,,,,,,,,,,orange,circle
0.0,5.0,0.0,1.0,3.0,3.0,323.1082940183114,1.0,1.0,phase_1,,,,,,,,,,,,,orange,circle
180.0,3.0,2.0,0.0,3.0,3.0,298.5600170213729,1.0,1.0,phase_1,,,,,,,,,,,,,gray,cross
105.0,2.0,1.0,0.0,3.0,3.0,279.9158839916345,1.0,1.0,phase_1,,,,,,,,,,,,,magenta,diamond
76.0,2.0,1.0,0.0,2.0,2.0,292.4918479984626,1.0,1.0,phase_1,,,,,,,,,,,,,magenta,diamond
380.0,8.0,4.0,1.0,2.0,2.0,287.9313759913202,1.0,1.0,phase_1,,,,,,,,,,,,,blue,I
0.0,7.0,0.0,1.0,2.0,2.0,275.3910159808583,1.0,1.0,phase_1,,,,,,,,,,,,,white,square
115.0,2.0,1.0,0.0,4.0,4.0,321.1779050179757,1.0,1.0,phase_1,,,,,,,,,,,,,magenta,diamond
119.0,2.0,1.0,0.0,2.0,2.0,287.0177630102262,1.0,1.0,phase_1,,,,,,,,,,,,,magenta,diamond
377.0,4.0,4.0,0.0,4.0,4.0,313.2593570044264,1.0,1.0,phase_1,,,,,,,,,,,,,green,hexagon
204.0,7.0,2.0,1.0,3.0,3.0,349.4525759888347,1.0,1.0,phase_1,,,,,,,,,,,,,white,square
80.0,6.0,1.0,1.0,1.0,1.0,306.0556470009032,1.0,1.0,phase_1,,,,,,,,,,,,,cyan,flipped triangle
38.0,1.0,0.5,0.0,1.0,1.0,297.7333680028096,1.0,1.0,phase_1,,,,,,,,,,,,,yellow,triangle
387.0,8.0,4.0,1.0,4.0,4.0,332.441981008742,1.0,1.0,phase_1,,,,,,,,,,,,,blue,I
82.0,6.0,1.0,1.0,3.0,3.0,290.2356359991245,1.0,1.0,phase_1,,,,,,,,,,,,,cyan,flipped triangle
204.0,3.0,2.0,0.0,2.0,2.0,310.7785660249647,1.0,1.0,phase_1,,,,,,,,,,,,,gray,cross
91.0,2.0,1.0,0.0,1.0,1.0,341.2574820104055,1.0,1.0,phase_1,,,,,,,,,,,,,magenta,diamond
47.0,1.0,0.5,0.0,1.0,1.0,343.2181459793355,1.0,1.0,phase_1,,,,,,,,,,,,,yellow,triangle
377.0,8.0,4.0,1.0,1.0,1.0,279.2605619761161,1.0,1.0,phase_1,,,,,,,,,,,,,blue,I
110.0,2.0,1.0,0.0,1.0,1.0,360.037234990159,1.0,1.0,phase_1,,,,,,,,,,,,,magenta,diamond
185.0,3.0,2.0,0.0,2.0,2.0,366.1219690111466,1.0,1.0,phase_1,,,,,,,,,,,,,gray,cross
35.0,5.0,0.5,1.0,2.0,2.0,315.8799830125645,1.0,1.0,phase_1,,,,,,,,,,,,,orange,circle
211.0,7.0,2.0,1.0,4.0,4.0,386.00032700924197,1.0,1.0,phase_1,,,,,,,,,,,,,white,square
402.0,4.0,4.0,0.0,3.0,3.0,326.5994219982531,1.0,1.0,phase_1,,,,,,,,,,,,,green,hexagon
91.0,6.0,1.0,1.0,2.0,2.0,281.6698270034976,1.0,1.0,phase_1,,,,,,,,,,,,,cyan,flipped triangle
185.0,7.0,2.0,1.0,1.0,1.0,452.6130479935091,1.0,1.0,phase_1,,,,,,,,,,,,,white,square
0.0,4.0,0.0,0.0,1.0,1.0,368.9964289951604,1.0,1.0,phase_1,,,,,,,,,,,,,green,hexagon
0.0,3.0,0.0,0.0,2.0,2.0,278.0679390125442,1.0,1.0,phase_1,,,,,,,,,,,,,gray,cross
0.0,4.0,0.0,0.0,4.0,4.0,262.2366550203878,1.0,1.0,phase_1,,,,,,,,,,,,,green,hexagon
178.0,3.0,2.0,0.0,1.0,1.0,274.8619859921746,1.0,1.0,phase_1,,,,,,,,,,,,,gray,cross
189.0,3.0,2.0,0.0,1.0,1.0,291.3848890166264,1.0,1.0,phase_1,,,,,,,,,,,,,gray,cross
105.0,6.0,1.0,1.0,1.0,1.0,275.0106180028524,1.0,1.0,phase_1,,,,,,,,,,,,,cyan,flipped triangle
85.0,2.0,1.0,0.0,3.0,3.0,342.9991970187984,1.0,1.0,phase_1,,,,,,,,,,,,,magenta,diamond
0.0,5.0,0.0,1.0,4.0,4.0,395.3506700054277,1.0,1.0,phase_1,,,,,,,,,,,,,orange,circle
56.0,1.0,0.5,0.0,4.0,4.0,488.0432820064015,1.0,1.0,phase_1,,,,,,,,,,,,,yellow,triangle
47.0,1.0,0.5,0.0,2.0,2.0,331.5581390052102,1.0,1.0,phase_1,,,,,,,,,,,,,yellow,triangle
49.0,5.0,0.5,1.0,4.0,4.0,376.2980870087631,1.0,1.0,phase_1,,,,,,,,,,,,,orange,circle
221.0,3.0,2.0,0.0,3.0,3.0,310.3743419924285,1.0,1.0,phase_1,,,,,,,,,,,,,gray,cross
101.0,2.0,1.0,0.0,4.0,4.0,315.9164429816883,1.0,1.0,phase_1,,,,,,,,,,,,,magenta,diamond
399.0,4.0,4.0,0.0,3.0,3.0,297.834402997978,1.0,1.0,phase_1,,,,,,,,,,,,,green,hexagon
0.0,7.0,0.0,1.0,3.0,3.0,267.4147269863169,1.0,1.0,phase_1,,,,,,,,,,,,,white,square
46.0,5.0,0.5,1.0,1.0,1.0,343.503240001155,1.0,1.0,phase_1,,,,,,,,,,,,,orange,circle
184.0,3.0,2.0,0.0,4.0,4.0,350.7870429893955,1.0,1.0,phase_1,,,,,,,,,,,,,gray,cross
117.0,6.0,1.0,1.0,3.0,3.0,347.410699003376,1.0,1.0,phase_1,,,,,,,,,,,,,cyan,flipped triangle
39.0,1.0,0.5,0.0,1.0,1.0,344.8159339895937,1.0,1.0,phase_1,,,,,,,,,,,,,yellow,triangle
199.0,7.0,2.0,1.0,3.0,3.0,348.5773380089085,1.0,1.0,phase_1,,,,,,,,,,,,,white,square
212.0,7.0,2.0,1.0,1.0,1.0,294.876132014906,1.0,1.0,phase_1,,,,,,,,,,,,,white,square
0.0,3.0,0.0,0.0,1.0,1.0,294.0005690034013,1.0,1.0,phase_1,,,,,,,,,,,,,gray,cross
399.0,4.0,4.0,0.0,4.0,4.0,329.8026429838501,1.0,1.0,phase_1,,,,,,,,,,,,,green,hexagon
31.0,1.0,0.5,0.0,1.0,1.0,336.2986119755078,1.0,1.0,phase_1,,,,,,,,,,,,,yellow,triangle
65.0,1.0,0.5,0.0,3.0,3.0,397.0530399819836,1.0,1.0,phase_1,,,,,,,,,,,,,yellow,triangle
0.0,6.0,0.0,1.0,2.0,2.0,301.1519379797391,1.0,2.0,phase_1,,,,,,,,,,,,,cyan,flipped triangle
39.0,5.0,0.5,1.0,3.0,3.0,393.4217809874099,1.0,1.0,phase_1,,,,,,,,,,,,,orange,circle
0.0,7.0,0.0,1.0,1.0,1.0,300.4999249824323,1.0,1.0,phase_1,,,,,,,,,,,,,white,square
415.0,4.0,4.0,0.0,2.0,2.0,402.6485299982596,1.0,1.0,phase_1,,,,,,,,,,,,,green,hexagon
88.0,2.0,1.0,0.0,1.0,1.0,605.8345070050564,1.0,1.0,phase_1,,,,,,,,,,,,,magenta,diamond
109.0,2.0,1.0,0.0,3.0,3.0,389.7457070124801,1.0,1.0,phase_1,,,,,,,,,,,,,magenta,diamond
210.0,3.0,2.0,0.0,1.0,1.0,762.5962669844739,1.0,1.0,phase_1,,,,,,,,,,,,,gray,cross
103.0,2.0,1.0,0.0,4.0,4.0,347.4457580014132,1.0,1.0,phase_1,,,,,,,,,,,,,magenta,diamond
57.0,5.0,0.5,1.0,2.0,2.0,297.858139994787,1.0,1.0,phase_1,,,,,,,,,,,,,orange,circle
194.0,7.0,2.0,1.0,4.0,4.0,367.6038709818385,1.0,1.0,phase_1,,,,,,,,,,,,,white,square
66.0,1.0,0.5,0.0,1.0,1.0,332.3629000224173,1.0,1.0,phase_1,,,,,,,,,,,,,yellow,triangle
405.0,8.0,4.0,1.0,1.0,1.0,302.8189780015964,1.0,1.0,phase_1,,,,,,,,,,,,,blue,I
180.0,7.0,2.0,1.0,3.0,3.0,294.7611139970831,1.0,1.0,phase_1,,,,,,,,,,,,,white,square
220.0,3.0,2.0,0.0,2.0,2.0,295.1762370066717,1.0,1.0,phase_1,,,,,,,,,,,,,gray,cross
88.0,6.0,1.0,1.0,4.0,4.0,411.9739080197178,1.0,2.0,phase_1,,,,,,,,,,,,,cyan,flipped triangle
77.0,2.0,1.0,0.0,2.0,2.0,549.4464469957165,1.0,1.0,phase_1,,,,,,,,,,,,,magenta,diamond
103.0,6.0,1.0,1.0,1.0,1.0,330.3755020024255,1.0,1.0,phase_1,,,,,,,,,,,,,cyan,flipped triangle
202.0,3.0,2.0,0.0,3.0,3.0,360.64132800675,1.0,1.0,phase_1,,,,,,,,,,,,,gray,cross
415.0,4.0,4.0,0.0,3.0,3.0,319.3496630119625,1.0,1.0,phase_1,,,,,,,,,,,,,green,hexagon
192.0,7.0,2.0,1.0,2.0,2.0,311.9087590021081,1.0,1.0,phase_1,,,,,,,,,,,,,white,square
60.0,1.0,0.5,0.0,1.0,1.0,301.8934499996248,1.0,1.0,phase_1,,,,,,,,,,,,,yellow,triangle
119.0,6.0,1.0,1.0,3.0,3.0,348.7768730265088,1.0,1.0,phase_1,,,,,,,,,,,,,cyan,flipped triangle
180.0,7.0,2.0,1.0,3.0,3.0,350.2263860136736,1.0,1.0,phase_1,,,,,,,,,,,,,white,square
192.0,3.0,2.0,0.0,1.0,1.0,330.7221019931603,1.0,1.0,phase_1,,,,,,,,,,,,,gray,cross
216.0,7.0,2.0,1.0,4.0,4.0,360.0678109796718,1.0,1.0,phase_1,,,,,,,,,,,,,white,square
220.0,7.0,2.0,1.0,2.0,2.0,564.4028690003324,1.0,1.0,phase_1,,,,,,,,,,,,,white,square
113.0,6.0,1.0,1.0,4.0,4.0,386.5277089935262,1.0,1.0,phase_1,,,,,,,,,,,,,cyan,flipped triangle
0.0,1.0,0.0,0.0,1.0,1.0,297.292589006247,1.0,1.0,phase_1,,,,,,,,,,,,,yellow,triangle
53.0,5.0,0.5,1.0,2.0,2.0,284.4786909990944,1.0,1.0,phase_1,,,,,,,,,,,,,orange,circle
195.0,7.0,2.0,1.0,4.0,4.0,306.6624439961742,1.0,1.0,phase_1,,,,,,,,,,,,,white,square
41.0,5.0,0.5,1.0,4.0,4.0,410.069763980573,2.0,1.0,phase_1,,,,,,,,,,,,,orange,circle
25.0,5.0,0.5,1.0,3.0,3.0,342.497599980561,2.0,1.0,phase_1,,,,,,,,,,,,,orange,circle
184.0,3.0,2.0,0.0,3.0,3.0,371.5110439807176,2.0,1.0,phase_1,,,,,,,,,,,,,gray,cross
219.0,7.0,2.0,1.0,1.0,1.0,766.0363019967917,2.0,1.0,phase_1,,,,,,,,,,,,,white,square
0.0,8.0,0.0,1.0,1.0,1.0,690.5024940206204,2.0,1.0,phase_1,,,,,,,,,,,,,blue,I
0.0,1.0,0.0,0.0,4.0,4.0,335.4645110084675,2.0,1.0,phase_1,,,,,,,,,,,,,yellow,triangle
425.0,4.0,4.0,0.0,2.0,2.0,262.0228950108867,2.0,1.0,phase_1,,,,,,,,,,,,,green,hexagon
0.0,1.0,0.0,0.0,4.0,4.0,273.3274619968142,2.0,1.0,phase_1,,,,,,,,,,,,,yellow,triangle
41.0,5.0,0.5,1.0,3.0,3.0,262.2524090111255,2.0,1.0,phase_1,,,,,,,,,,,,,orange,circle
0.0,8.0,0.0,1.0,2.0,2.0,362.8362680028658,2.0,1.0,phase_1,,,,,,,,,,,,,blue,I
0.0,2.0,0.0,0.0,3.0,3.0,659.0566340018995,2.0,1.0,phase_1,,,,,,,,,,,,,magenta,diamond
119.0,2.0,1.0,0.0,1.0,1.0,319.7646329936106,2.0,1.0,phase_1,,,,,,,,,,,,,magenta,diamond
64.0,5.0,0.5,1.0,2.0,2.0,274.5285439887084,2.0,1.0,phase_1,,,,,,,,,,,,,orange,circle
25.0,1.0,0.5,0.0,1.0,1.0,334.945748996688,2.0,1.0,phase_1,,,,,,,,,,,,,yellow,triangle
76.0,6.0,1.0,1.0,3.0,3.0,444.1054710187018,2.0,1.0,phase_1,,,,,,,,,,,,,cyan,flipped triangle
41.0,1.0,0.5,0.0,2.0,2.0,286.1831189948134,2.0,1.0,phase_1,,,,,,,,,,,,,yellow,triangle
402.0,8.0,4.0,1.0,4.0,4.0,317.1973529970273,2.0,1.0,phase_1,,,,,,,,,,,,,blue,I
414.0,8.0,4.0,1.0,2.0,2.0,313.6566939938348,2.0,1.0,phase_1,,,,,,,,,,,,,blue,I
43.0,1.0,0.5,0.0,2.0,2.0,284.7161309910007,2.0,1.0,phase_1,,,,,,,,,,,,,yellow,triangle
398.0,8.0,4.0,1.0,1.0,1.0,325.1330979983322,2.0,1.0,phase_1,,,,,,,,,,,,,blue,I
80.0,6.0,1.0,1.0,4.0,4.0,296.3296700036153,2.0,1.0,phase_1,,,,,,,,,,,,,cyan,flipped triangle
78.0,6.0,1.0,1.0,4.0,4.0,341.5217169967945,2.0,1.0,phase_1,,,,,,,,,,,,,cyan,flipped triangle
218.0,3.0,2.0,0.0,4.0,4.0,321.3330059952568,2.0,1.0,phase_1,,,,,,,,,,,,,gray,cross
0.0,5.0,0.0,1.0,3.0,3.0,324.71352501306677,2.0,1.0,phase_1,,,,,,,,,,,,,orange,circle
0.0,7.0,0.0,1.0,2.0,2.0,296.5223180071916,2.0,1.0,phase_1,,,,,,,,,,,,,white,square
0.0,4.0,0.0,0.0,4.0,4.0,343.6683779873419,2.0,1.0,phase_1,,,,,,,,,,,,,green,hexagon
105.0,2.0,1.0,0.0,3.0,3.0,292.8805249975994,2.0,1.0,phase_1,,,,,,,,,,,,,magenta,diamond
91.0,6.0,1.0,1.0,3.0,3.0,370.4158710024785,2.0,1.0,phase_1,,,,,,,,,,,,,cyan,flipped triangle
411.0,4.0,4.0,0.0,1.0,1.0,285.2765189891215,2.0,1.0,phase_1,,,,,,,,,,,,,green,hexagon
31.0,5.0,0.5,1.0,1.0,1.0,315.5846380104776,2.0,1.0,phase_1,,,,,,,,,,,,,orange,circle
49.0,5.0,0.5,1.0,1.0,1.0,278.6678499833215,2.0,1.0,phase_1,,,,,,,,,,,,,orange,circle
0.0,6.0,0.0,1.0,3.0,3.0,355.4078959859907,2.0,1.0,phase_1,,,,,,,,,,,,,cyan,flipped triangle
0.0,5.0,0.0,1.0,4.0,4.0,342.4348949920386,2.0,1.0,phase_1,,,,,,,,,,,,,orange,circle
209.0,3.0,2.0,0.0,4.0,4.0,350.1429210009519,2.0,1.0,phase_1,,,,,,,,,,,,,gray,cross
0.0,3.0,0.0,0.0,3.0,3.0,354.4595949933864,2.0,1.0,phase_1,,,,,,,,,,,,,gray,cross
0.0,1.0,0.0,0.0,4.0,4.0,334.3713890062645,2.0,1.0,phase_1,,,,,,,,,,,,,yellow,triangle
0.0,7.0,0.0,1.0,2.0,2.0,328.8418229785748,2.0,1.0,phase_1,,,,,,,,,,,,,white,square
189.0,7.0,2.0,1.0,3.0,3.0,399.3885869858786,2.0,1.0,phase_1,,,,,,,,,,,,,white,square
73.0,5.0,0.5,1.0,2.0,2.0,387.4405170208774,2.0,1.0,phase_1,,,,,,,,,,,,,orange,circle
93.0,6.0,1.0,1.0,4.0,4.0,319.7790390113368,2.0,1.0,phase_1,,,,,,,,,,,,,cyan,flipped triangle
219.0,3.0,2.0,0.0,3.0,3.0,310.963099997025,2.0,1.0,phase_1,,,,,,,,,,,,,gray,cross
0.0,8.0,0.0,1.0,4.0,4.0,322.3038099822588,2.0,1.0,phase_1,,,,,,,,,,,,,blue,I
107.0,6.0,1.0,1.0,2.0,2.0,352.62019597576,2.0,1.0,phase_1,,,,,,,,,,,,,cyan,flipped triangle
180.0,7.0,2.0,1.0,3.0,3.0,363.9265859965235,2.0,1.0,phase_1,,,,,,,,,,,,,white,square
399.0,8.0,4.0,1.0,1.0,1.0,313.7107630027458,2.0,1.0,phase_1,,,,,,,,,,,,,blue,I
99.0,6.0,1.0,1.0,3.0,3.0,334.5999140001368,2.0,1.0,phase_1,,,,,,,,,,,,,cyan,flipped triangle
408.0,8.0,4.0,1.0,3.0,3.0,355.8643370051868,2.0,1.0,phase_1,,,,,,,,,,,,,blue,I
35.0,1.0,0.5,0.0,3.0,3.0,285.2522570174187,2.0,1.0,phase_1,,,,,,,,,,,,,yellow,triangle
0.0,5.0,0.0,1.0,2.0,2.0,329.548939014785,2.0,1.0,phase_1,,,,,,,,,,,,,orange,circle
380.0,4.0,4.0,0.0,2.0,2.0,293.5917419963516,2.0,1.0,phase_1,,,,,,,,,,,,,green,hexagon
25.0,1.0,0.5,0.0,1.0,1.0,322.9969980020541,2.0,1.0,phase_1,,,,,,,,,,,,,yellow,triangle
378.0,4.0,4.0,0.0,3.0,3.0,298.0609420046676,2.0,1.0,phase_1,,,,,,,,,,,,,green,hexagon
117.0,6.0,1.0,1.0,1.0,1.0,301.4778320211917,2.0,1.0,phase_1,,,,,,,,,,,,,cyan,flipped triangle
55.0,1.0,0.5,0.0,2.0,2.0,329.2481119860895,2.0,1.0,phase_1,,,,,,,,,,,,,yellow,triangle
0.0,2.0,0.0,0.0,4.0,4.0,289.0228219912387,2.0,1.0,phase_1,,,,,,,,,,,,,magenta,diamond
52.0,1.0,0.5,0.0,3.0,3.0,292.9684949922375,2.0,1.0,phase_1,,,,,,,,,,,,,yellow,triangle
379.0,4.0,4.0,0.0,1.0,1.0,345.6739819957874,2.0,1.0,phase_1,,,,,,,,,,,,,green,hexagon
411.0,8.0,4.0,1.0,4.0,4.0,382.69889500224957,2.0,1.0,phase_1,,,,,,,,,,,,,blue,I
115.0,6.0,1.0,1.0,1.0,1.0,304.4862440146971,2.0,1.0,phase_1,,,,,,,,,,,,,cyan,flipped triangle
106.0,6.0,1.0,1.0,2.0,2.0,357.2724009864032,2.0,1.0,phase_1,,,,,,,,,,,,,cyan,flipped triangle
93.0,2.0,1.0,0.0,1.0,1.0,315.8984069887083,2.0,1.0,phase_1,,,,,,,,,,,,,magenta,diamond
31.0,1.0,0.5,0.0,4.0,4.0,312.4395630147774,2.0,1.0,phase_1,,,,,,,,,,,,,yellow,triangle
0.0,1.0,0.0,0.0,2.0,2.0,316.9758809963241,2.0,1.0,phase_1,,,,,,,,,,,,,yellow,triangle
423.0,8.0,4.0,1.0,3.0,3.0,369.3981569958851,2.0,1.0,phase_1,,,,,,,,,,,,,blue,I
0.0,7.0,0.0,1.0,1.0,1.0,653.1087710172869,2.0,1.0,phase_1,,,,,,,,,,,,,white,square
110.0,6.0,1.0,1.0,2.0,2.0,312.876704003429,2.0,1.0,phase_1,,,,,,,,,,,,,cyan,flipped triangle
78.0,2.0,1.0,0.0,3.0,3.0,342.1741929778363,2.0,1.0,phase_1,,,,,,,,,,,,,magenta,diamond
112.0,6.0,1.0,1.0,2.0,2.0,337.7149360021576,2.0,1.0,phase_1,,,,,,,,,,,,,cyan,flipped triangle
0.0,3.0,0.0,0.0,2.0,2.0,303.7920760107226,2.0,1.0,phase_1,,,,,,,,,,,,,gray,cross
408.0,8.0,4.0,1.0,4.0,4.0,509.31987501098774,2.0,1.0,phase_1,,,,,,,,,,,,,blue,I
55.0,5.0,0.5,1.0,3.0,3.0,346.3972929748706,2.0,1.0,phase_1,,,,,,,,,,,,,orange,circle
67.0,5.0,0.5,1.0,4.0,4.0,333.1398229929618,2.0,1.0,phase_1,,,,,,,,,,,,,orange,circle
0.0,1.0,0.0,0.0,3.0,3.0,417.5896970264148,2.0,1.0,phase_1,,,,,,,,,,,,,yellow,triangle
396.0,4.0,4.0,0.0,4.0,4.0,313.3332520083058,2.0,1.0,phase_1,,,,,,,,,,,,,green,hexagon
91.0,6.0,1.0,1.0,1.0,1.0,350.9770990058314,2.0,1.0,phase_1,,,,,,,,,,,,,cyan,flipped triangle
105.0,6.0,1.0,1.0,2.0,2.0,305.8214519987814,2.0,1.0,phase_1,,,,,,,,,,,,,cyan,flipped triangle
398.0,4.0,4.0,0.0,1.0,1.0,304.4207780039869,2.0,1.0,phase_1,,,,,,,,,,,,,green,hexagon
0.0,4.0,0.0,0.0,2.0,2.0,314.8508660087827,2.0,1.0,phase_1,,,,,,,,,,,,,green,hexagon
0.0,2.0,0.0,0.0,1.0,1.0,288.3212629822083,2.0,1.0,phase_1,,,,,,,,,,,,,magenta,diamond
65.0,5.0,0.5,1.0,3.0,3.0,284.8124649899546,2.0,1.0,phase_1,,,,,,,,,,,,,orange,circle
405.0,4.0,4.0,0.0,1.0,1.0,314.5611110085156,2.0,1.0,phase_1,,,,,,,,,,,,,green,hexagon
120.0,6.0,1.0,1.0,4.0,4.0,260.5701030115597,2.0,1.0,phase_1,,,,,,,,,,,,,cyan,flipped triangle
64.0,5.0,0.5,1.0,3.0,3.0,321.4795759995468,2.0,1.0,phase_1,,,,,,,,,,,,,orange,circle
0.0,4.0,0.0,0.0,4.0,4.0,309.1454300156329,2.0,1.0,phase_1,,,,,,,,,,,,,green,hexagon
399.0,4.0,4.0,0.0,3.0,3.0,322.434917994542,2.0,1.0,phase_1,,,,,,,,,,,,,green,hexagon
423.0,8.0,4.0,1.0,3.0,3.0,343.2391879905481,2.0,1.0,phase_1,,,,,,,,,,,,,blue,I
125.0,2.0,1.0,0.0,4.0,4.0,277.8816120116971,2.0,1.0,phase_1,,,,,,,,,,,,,magenta,diamond
25.0,5.0,0.5,1.0,1.0,1.0,362.5671350164339,2.0,1.0,phase_1,,,,,,,,,,,,,orange,circle
384.0,4.0,4.0,0.0,4.0,4.0,408.7173070001881,2.0,1.0,phase_1,,,,,,,,,,,,,green,hexagon
390.0,4.0,4.0,0.0,2.0,2.0,260.5731560033746,2.0,1.0,phase_1,,,,,,,,,,,,,green,hexagon
400.0,4.0,4.0,0.0,1.0,1.0,345.1435359893366,2.0,1.0,phase_1,,,,,,,,,,,,,green,hexagon
0.0,1.0,0.0,0.0,3.0,3.0,372.7001740189735,2.0,1.0,phase_1,,,,,,,,,,,,,yellow,triangle
408.0,4.0,4.0,0.0,3.0,3.0,317.7966659714002,2.0,2.0,phase_1,,,,,,,,,,,,,green,hexagon
402.0,4.0,4.0,0.0,3.0,3.0,323.4012329776305,2.0,1.0,phase_1,,,,,,,,,,,,,green,hexagon
220.0,3.0,2.0,0.0,1.0,1.0,358.0097300000489,2.0,1.0,phase_1,,,,,,,,,,,,,gray,cross
80.0,2.0,1.0,0.0,1.0,1.0,380.3774460102431,2.0,1.0,phase_1,,,,,,,,,,,,,magenta,diamond
57.0,1.0,0.5,0.0,3.0,3.0,466.8821950035635,2.0,1.0,phase_1,,,,,,,,,,,,,yellow,triangle
64.0,1.0,0.5,0.0,4.0,4.0,397.9185420030262,2.0,1.0,phase_1,,,,,,,,,,,,,yellow,triangle
40.0,1.0,0.5,0.0,4.0,4.0,361.77312899963,2.0,1.0,phase_1,,,,,,,,,,,,,yellow,triangle
120.0,2.0,1.0,0.0,4.0,4.0,317.50486700912,2.0,1.0,phase_1,,,,,,,,,,,,,magenta,diamond
40.0,5.0,0.5,1.0,1.0,1.0,412.4201209924649,3.0,1.0,phase_1,,,,,,,,,,,,,orange,circle
103.0,2.0,1.0,0.0,1.0,1.0,305.1410140178632,3.0,1.0,phase_1,,,,,,,,,,,,,magenta,diamond
180.0,3.0,2.0,0.0,3.0,3.0,415.1302370009944,3.0,1.0,phase_1,,,,,,,,,,,,,gray,cross
405.0,4.0,4.0,0.0,1.0,1.0,336.7064630147069,3.0,1.0,phase_1,,,,,,,,,,,,,green,hexagon
53.0,5.0,0.5,1.0,4.0,4.0,612.6622830051929,3.0,1.0,phase_1,,,,,,,,,,,,,orange,circle
56.0,5.0,0.5,1.0,3.0,3.0,321.0297939949669,3.0,1.0,phase_1,,,,,,,,,,,,,orange,circle
211.0,7.0,2.0,1.0,4.0,4.0,328.84632301284,3.0,1.0,phase_1,,,,,,,,,,,,,white,square
212.0,3.0,2.0,0.0,2.0,2.0,310.0494380050804,3.0,1.0,phase_1,,,,,,,,,,,,,gray,cross
414.0,4.0,4.0,0.0,2.0,2.0,362.9991670022718,3.0,1.0,phase_1,,,,,,,,,,,,,green,hexagon
65.0,5.0,0.5,1.0,4.0,4.0,309.5108169945888,3.0,1.0,phase_1,,,,,,,,,,,,,orange,circle
211.0,3.0,2.0,0.0,3.0,3.0,304.8942599853035,3.0,1.0,phase_1,,,,,,,,,,,,,gray,cross
220.0,7.0,2.0,1.0,2.0,2.0,285.3005839860998,3.0,1.0,phase_1,,,,,,,,,,,,,white,square
101.0,6.0,1.0,1.0,1.0,1.0,435.7634650077671,3.0,1.0,phase_1,,,,,,,,,,,,,cyan,flipped triangle
0.0,8.0,0.0,1.0,3.0,3.0,354.2792240041308,3.0,1.0,phase_1,,,,,,,,,,,,,blue,I
187.0,7.0,2.0,1.0,2.0,2.0,285.3760440193582,3.0,1.0,phase_1,,,,,,,,,,,,,white,square
218.0,7.0,2.0,1.0,2.0,2.0,274.3155329953879,3.0,1.0,phase_1,,,,,,,,,,,,,white,square
211.0,3.0,2.0,0.0,4.0,4.0,293.2985689840279,3.0,1.0,phase_1,,,,,,,,,,,,,gray,cross
0.0,4.0,0.0,0.0,2.0,2.0,321.6528959746938,3.0,1.0,phase_1,,,,,,,,,,,,,green,hexagon
403.0,4.0,4.0,0.0,3.0,3.0,321.0816159844398,3.0,1.0,phase_1,,,,,,,,,,,,,green,hexagon
89.0,6.0,1.0,1.0,3.0,3.0,366.9514579814859,3.0,1.0,phase_1,,,,,,,,,,,,,cyan,flipped triangle
416.0,4.0,4.0,0.0,2.0,2.0,330.4202219878789,3.0,1.0,phase_1,,,,,,,,,,,,,green,hexagon
43.0,5.0,0.5,1.0,4.0,4.0,392.1031659992877,3.0,1.0,phase_1,,,,,,,,,,,,,orange,circle
195.0,3.0,2.0,0.0,1.0,1.0,304.8867710167542,3.0,1.0,phase_1,,,,,,,,,,,,,gray,cross
0.0,2.0,0.0,0.0,3.0,3.0,286.1643939977512,3.0,1.0,phase_1,,,,,,,,,,,,,magenta,diamond
0.0,1.0,0.0,0.0,4.0,4.0,325.061002979055,3.0,1.0,phase_1,,,,,,,,,,,,,yellow,triangle
219.0,3.0,2.0,0.0,1.0,1.0,313.8621980033349,3.0,1.0,phase_1,,,,,,,,,,,,,gray,cross
198.0,7.0,2.0,1.0,1.0,1.0,510.0646679929923,3.0,1.0,phase_1,,,,,,,,,,,,,white,square
217.0,3.0,2.0,0.0,2.0,2.0,330.7923930115066,3.0,1.0,phase_1,,,,,,,,,,,,,gray,cross
190.0,3.0,2.0,0.0,3.0,3.0,301.4787410211283,3.0,1.0,phase_1,,,,,,,,,,,,,gray,cross
399.0,8.0,4.0,1.0,1.0,1.0,339.6584400034044,3.0,1.0,phase_1,,,,,,,,,,,,,blue,I
197.0,7.0,2.0,1.0,3.0,3.0,310.5580889969133,3.0,1.0,phase_1,,,,,,,,,,,,,white,square
420.0,8.0,4.0,1.0,4.0,4.0,315.1023819809779,3.0,1.0,phase_1,,,,,,,,,,,,,blue,I
198.0,7.0,2.0,1.0,4.0,4.0,371.4404749916866,3.0,1.0,phase_1,,,,,,,,,,,,,white,square
73.0,1.0,0.5,0.0,3.0,3.0,335.0308579974808,3.0,1.0,phase_1,,,,,,,,,,,,,yellow,triangle
0.0,8.0,0.0,1.0,2.0,2.0,321.8556370120495,3.0,1.0,phase_1,,,,,,,,,,,,,blue,I
107.0,2.0,1.0,0.0,2.0,2.0,287.8935620246921,3.0,1.0,phase_1,,,,,,,,,,,,,magenta,diamond
112.0,2.0,1.0,0.0,3.0,3.0,349.787578015821,3.0,1.0,phase_1,,,,,,,,,,,,,magenta,diamond
186.0,7.0,2.0,1.0,2.0,2.0,313.4087020007428,3.0,1.0,phase_1,,,,,,,,,,,,,white,square
82.0,2.0,1.0,0.0,3.0,3.0,374.6062599821016,3.0,1.0,phase_1,,,,,,,,,,,,,magenta,diamond
0.0,3.0,0.0,0.0,4.0,4.0,592.7602160081733,3.0,1.0,phase_1,,,,,,,,,,,,,gray,cross
405.0,8.0,4.0,1.0,1.0,1.0,445.0695289997384,3.0,1.0,phase_1,,,,,,,,,,,,,blue,I
119.0,6.0,1.0,1.0,3.0,3.0,346.3334810221568,3.0,1.0,phase_1,,,,,,,,,,,,,cyan,flipped triangle
32.0,5.0,0.5,1.0,2.0,2.0,311.4102229883428,3.0,1.0,phase_1,,,,,,,,,,,,,orange,circle
0.0,8.0,0.0,1.0,3.0,3.0,353.0423929914832,3.0,2.0,phase_1,,,,,,,,,,,,,blue,I
0.0,3.0,0.0,0.0,3.0,3.0,375.0982380006462,3.0,1.0,phase_1,,,,,,,,,,,,,gray,cross
107.0,2.0,1.0,0.0,2.0,2.0,330.4059189977124,3.0,1.0,phase_1,,,,,,,,,,,,,magenta,diamond
423.0,4.0,4.0,0.0,4.0,4.0,311.91114097600797,3.0,1.0,phase_1,,,,,,,,,,,,,green,hexagon
406.0,8.0,4.0,1.0,2.0,2.0,331.5890450030565,3.0,1.0,phase_1,,,,,,,,,,,,,blue,I
387.0,4.0,4.0,0.0,4.0,4.0,296.1606770113576,3.0,1.0,phase_1,,,,,,,,,,,,,green,hexagon
0.0,7.0,0.0,1.0,3.0,3.0,292.911747994367,3.0,1.0,phase_1,,,,,,,,,,,,,white,square
93.0,6.0,1.0,1.0,2.0,2.0,410.8072139788419,3.0,1.0,phase_1,,,,,,,,,,,,,cyan,flipped triangle
47.0,5.0,0.5,1.0,4.0,4.0,327.0980299857911,3.0,1.0,phase_1,,,,,,,,,,,,,orange,circle
386.0,8.0,4.0,1.0,2.0,2.0,349.9482689949218,3.0,1.0,phase_1,,,,,,,,,,,,,blue,I
423.0,4.0,4.0,0.0,1.0,1.0,318.8118239922914,3.0,1.0,phase_1,,,,,,,,,,,,,green,hexagon
196.0,3.0,2.0,0.0,1.0,1.0,356.2083959986921,3.0,1.0,phase_1,,,,,,,,,,,,,gray,cross
106.0,6.0,1.0,1.0,1.0,1.0,321.0950439970474,3.0,1.0,phase_1,,,,,,,,,,,,,cyan,flipped triangle
184.0,7.0,2.0,1.0,1.0,1.0,308.7491570040583,3.0,1.0,phase_1,,,,,,,,,,,,,white,square
99.0,2.0,1.0,0.0,1.0,1.0,322.6049770019017,3.0,1.0,phase_1,,,,,,,,,,,,,magenta,diamond
0.0,6.0,0.0,1.0,2.0,2.0,543.3367119985633,3.0,1.0,phase_1,,,,,,,,,,,,,cyan,flipped triangle
390.0,8.0,4.0,1.0,2.0,2.0,316.1432600172702,3.0,1.0,phase_1,,,,,,,,,,,,,blue,I
0.0,1.0,0.0,0.0,4.0,4.0,352.1632259944454,3.0,1.0,phase_1,,,,,,,,,,,,,yellow,triangle
41.0,5.0,0.5,1.0,1.0,1.0,326.6465890046675,3.0,1.0,phase_1,,,,,,,,,,,,,orange,circle
86.0,6.0,1.0,1.0,1.0,1.0,329.4829050137196,3.0,1.0,phase_1,,,,,,,,,,,,,cyan,flipped triangle
221.0,7.0,2.0,1.0,4.0,4.0,294.2643160058651,3.0,1.0,phase_1,,,,,,,,,,,,,white,square
0.0,6.0,0.0,1.0,3.0,3.0,331.9573840126395,3.0,1.0,phase_1,,,,,,,,,,,,,cyan,flipped triangle
49.0,1.0,0.5,0.0,4.0,4.0,455.9380179853178,3.0,1.0,phase_1,,,,,,,,,,,,,yellow,triangle
103.0,6.0,1.0,1.0,2.0,2.0,302.9757610056549,3.0,1.0,phase_1,,,,,,,,,,,,,cyan,flipped triangle
0.0,5.0,0.0,1.0,3.0,3.0,347.8008189995307,3.0,1.0,phase_1,,,,,,,,,,,,,orange,circle
198.0,3.0,2.0,0.0,2.0,2.0,351.7057549906894,3.0,1.0,phase_1,,,,,,,,,,,,,gray,cross
395.0,4.0,4.0,0.0,1.0,1.0,342.6971840090118,3.0,2.0,phase_1,,,,,,,,,,,,,green,hexagon
192.0,7.0,2.0,1.0,3.0,3.0,478.122083004564,3.0,1.0,phase_1,,,,,,,,,,,,,white,square
176.0,7.0,2.0,1.0,4.0,4.0,411.9181660062168,3.0,1.0,phase_1,,,,,,,,,,,,,white,square
412.0,8.0,4.0,1.0,1.0,1.0,444.8681689973455,3.0,1.0,phase_1,,,,,,,,,,,,,blue,I
420.0,4.0,4.0,0.0,4.0,4.0,347.4873120139818,3.0,1.0,phase_1,,,,,,,,,,,,,green,hexagon
89.0,2.0,1.0,0.0,2.0,2.0,478.4880910010542,3.0,1.0,phase_1,,,,,,,,,,,,,magenta,diamond
0.0,6.0,0.0,1.0,2.0,2.0,381.5212420013267,3.0,1.0,phase_1,,,,,,,,,,,,,cyan,flipped triangle
377.0,4.0,4.0,0.0,2.0,2.0,331.0169909964315,3.0,1.0,phase_1,,,,,,,,,,,,,green,hexagon
64.0,5.0,0.5,1.0,1.0,1.0,341.803745017387,3.0,1.0,phase_1,,,,,,,,,,,,,orange,circle
0.0,3.0,0.0,0.0,3.0,3.0,396.6439179785084,3.0,1.0,phase_1,,,,,,,,,,,,,gray,cross
0.0,2.0,0.0,0.0,4.0,4.0,383.9474739797879,3.0,1.0,phase_1,,,,,,,,,,,,,magenta,diamond
0.0,2.0,0.0,0.0,1.0,1.0,329.8389889823738,3.0,1.0,phase_1,,,,,,,,,,,,,magenta,diamond
378.0,8.0,4.0,1.0,1.0,1.0,433.8899200083688,3.0,1.0,phase_1,,,,,,,,,,,,,blue,I
192.0,3.0,2.0,0.0,2.0,2.0,358.6570239858702,3.0,1.0,phase_1,,,,,,,,,,,,,gray,cross
79.0,2.0,1.0,0.0,4.0,4.0,313.742997997906,3.0,1.0,phase_1,,,,,,,,,,,,,magenta,diamond
219.0,7.0,2.0,1.0,2.0,2.0,375.8303769864142,3.0,1.0,phase_1,,,,,,,,,,,,,white,square
395.0,8.0,4.0,1.0,3.0,3.0,410.1052710029762,3.0,1.0,phase_1,,,,,,,,,,,,,blue,I
64.0,1.0,0.5,0.0,4.0,4.0,382.9564159968868,3.0,1.0,phase_1,,,,,,,,,,,,,yellow,triangle
0.0,6.0,0.0,1.0,2.0,2.0,357.7588030020706,3.0,1.0,phase_1,,,,,,,,,,,,,cyan,flipped triangle
178.0,7.0,2.0,1.0,3.0,3.0,370.330831996398,3.0,1.0,phase_1,,,,,,,,,,,,,white,square
107.0,6.0,1.0,1.0,4.0,4.0,542.5697169848718,3.0,1.0,phase_1,,,,,,,,,,,,,cyan,flipped triangle
117.0,2.0,1.0,0.0,4.0,4.0,347.6290740072727,3.0,1.0,phase_1,,,,,,,,,,,,,magenta,diamond
32.0,1.0,0.5,0.0,2.0,2.0,457.2452019783668,3.0,1.0,phase_1,,,,,,,,,,,,,yellow,triangle
77.0,6.0,1.0,1.0,2.0,2.0,330.6913999840617,3.0,1.0,phase_1,,,,,,,,,,,,,cyan,flipped triangle
180.0,3.0,2.0,0.0,4.0,4.0,543.2641569932457,3.0,1.0,phase_1,,,,,,,,,,,,,gray,cross
120.0,2.0,1.0,0.0,1.0,1.0,277.663166023558,3.0,1.0,phase_1,,,,,,,,,,,,,magenta,diamond
216.0,3.0,2.0,0.0,4.0,4.0,347.596726991469,3.0,1.0,phase_1,,,,,,,,,,,,,gray,cross
186.0,3.0,2.0,0.0,4.0,4.0,344.873349997215,3.0,1.0,phase_1,,,,,,,,,,,,,gray,cross
67.0,1.0,0.5,0.0,1.0,1.0,306.1773299996275,3.0,1.0,phase_1,,,,,,,,,,,,,yellow,triangle
415.0,8.0,4.0,1.0,3.0,3.0,478.3162090170663,3.0,1.0,phase_1,,,,,,,,,,,,,blue,I
103.0,6.0,1.0,1.0,3.0,3.0,396.1348909942899,3.0,1.0,phase_1,,,,,,,,,,,,,cyan,flipped triangle
210.0,7.0,2.0,1.0,4.0,4.0,503.02575598470867,4.0,1.0,phase_1,,,,,,,,,,,,,white,square
117.0,2.0,1.0,0.0,2.0,2.0,538.326006004354,4.0,1.0,phase_1,,,,,,,,,,,,,magenta,diamond
0.0,2.0,0.0,0.0,2.0,2.0,309.8199350060895,4.0,1.0,phase_1,,,,,,,,,,,,,magenta,diamond
45.0,1.0,0.5,0.0,4.0,4.0,298.4809039917309,4.0,1.0,phase_1,,,,,,,,,,,,,yellow,triangle
382.0,8.0,4.0,1.0,4.0,4.0,327.6392469997518,4.0,1.0,phase_1,,,,,,,,,,,,,blue,I
41.0,1.0,0.5,0.0,3.0,3.0,387.9685160063673,4.0,1.0,phase_1,,,,,,,,,,,,,yellow,triangle
70.0,5.0,0.5,1.0,3.0,3.0,315.2877629909199,4.0,1.0,phase_1,,,,,,,,,,,,,orange,circle
378.0,8.0,4.0,1.0,2.0,2.0,325.9018919779919,4.0,1.0,phase_1,,,,,,,,,,,,,blue,I
56.0,1.0,0.5,0.0,4.0,4.0,338.7014039908536,4.0,1.0,phase_1,,,,,,,,,,,,,yellow,triangle
412.0,4.0,4.0,0.0,4.0,4.0,302.5685680040624,4.0,1.0,phase_1,,,,,,,,,,,,,green,hexagon
0.0,7.0,0.0,1.0,2.0,2.0,363.0430169869214,4.0,1.0,phase_1,,,,,,,,,,,,,white,square
0.0,6.0,0.0,1.0,1.0,1.0,272.5559760001488,4.0,1.0,phase_1,,,,,,,,,,,,,cyan,flipped triangle
378.0,4.0,4.0,0.0,4.0,4.0,325.0974520051386,4.0,1.0,phase_1,,,,,,,,,,,,,green,hexagon
95.0,6.0,1.0,1.0,1.0,1.0,313.6718749883584,4.0,1.0,phase_1,,,,,,,,,,,,,cyan,flipped triangle
198.0,3.0,2.0,0.0,1.0,1.0,319.7092189802788,4.0,1.0,phase_1,,,,,,,,,,,,,gray,cross
184.0,7.0,2.0,1.0,2.0,2.0,298.5821600013878,4.0,1.0,phase_1,,,,,,,,,,,,,white,square
377.0,8.0,4.0,1.0,1.0,1.0,298.7906519847456,4.0,1.0,phase_1,,,,,,,,,,,,,blue,I
0.0,8.0,0.0,1.0,4.0,4.0,547.7999339927919,4.0,1.0,phase_1,,,,,,,,,,,,,blue,I
0.0,2.0,0.0,0.0,4.0,4.0,290.8053510182071,4.0,1.0,phase_1,,,,,,,,,,,,,magenta,diamond
219.0,3.0,2.0,0.0,4.0,4.0,293.53945000912057,4.0,1.0,phase_1,,,,,,,,,,,,,gray,cross
53.0,5.0,0.5,1.0,4.0,4.0,308.7120609998237,4.0,1.0,phase_1,,,,,,,,,,,,,orange,circle
41.0,1.0,0.5,0.0,3.0,3.0,319.1057410149369,4.0,1.0,phase_1,,,,,,,,,,,,,yellow,triangle
60.0,5.0,0.5,1.0,3.0,3.0,331.8913720140699,4.0,1.0,phase_1,,,,,,,,,,,,,orange,circle
49.0,1.0,0.5,0.0,3.0,3.0,319.7587599861435,4.0,1.0,phase_1,,,,,,,,,,,,,yellow,triangle
0.0,5.0,0.0,1.0,3.0,3.0,312.2883480100427,4.0,1.0,phase_1,,,,,,,,,,,,,orange,circle
66.0,5.0,0.5,1.0,2.0,2.0,396.2825860071461,4.0,1.0,phase_1,,,,,,,,,,,,,orange,circle
408.0,4.0,4.0,0.0,3.0,3.0,352.6925919868517,4.0,1.0,phase_1,,,,,,,,,,,,,green,hexagon
91.0,2.0,1.0,0.0,4.0,4.0,338.7109920149669,4.0,1.0,phase_1,,,,,,,,,,,,,magenta,diamond
416.0,8.0,4.0,1.0,4.0,4.0,347.3688369849697,4.0,1.0,phase_1,,,,,,,,,,,,,blue,I
209.0,7.0,2.0,1.0,1.0,1.0,396.4816349907778,4.0,1.0,phase_1,,,,,,,,,,,,,white,square
389.0,8.0,4.0,1.0,1.0,1.0,372.5626369996462,4.0,1.0,phase_1,,,,,,,,,,,,,blue,I
406.0,4.0,4.0,0.0,2.0,2.0,351.5873859869316,4.0,1.0,phase_1,,,,,,,,,,,,,green,hexagon
0.0,6.0,0.0,1.0,1.0,1.0,341.6226929984987,4.0,1.0,phase_1,,,,,,,,,,,,,cyan,flipped triangle
46.0,1.0,0.5,0.0,2.0,2.0,319.0417190198786,4.0,1.0,phase_1,,,,,,,,,,,,,yellow,triangle
93.0,2.0,1.0,0.0,4.0,4.0,334.891280013835,4.0,1.0,phase_1,,,,,,,,,,,,,magenta,diamond
0.0,8.0,0.0,1.0,2.0,2.0,314.3417520041112,4.0,1.0,phase_1,,,,,,,,,,,,,blue,I
199.0,3.0,2.0,0.0,2.0,2.0,294.6793120063375,4.0,1.0,phase_1,,,,,,,,,,,,,gray,cross
45.0,5.0,0.5,1.0,4.0,4.0,309.5908569812309,4.0,1.0,phase_1,,,,,,,,,,,,,orange,circle
0.0,4.0,0.0,0.0,3.0,3.0,391.6441130277235,4.0,1.0,phase_1,,,,,,,,,,,,,green,hexagon
219.0,7.0,2.0,1.0,2.0,2.0,314.582082995912,4.0,1.0,phase_1,,,,,,,,,,,,,white,square
70.0,1.0,0.5,0.0,2.0,2.0,335.2834529941901,4.0,1.0,phase_1,,,,,,,,,,,,,yellow,triangle
52.0,5.0,0.5,1.0,2.0,2.0,318.2086209999397,4.0,1.0,phase_1,,,,,,,,,,,,,orange,circle
187.0,3.0,2.0,0.0,4.0,4.0,351.116597012151,4.0,2.0,phase_1,,,,,,,,,,,,,gray,cross
85.0,6.0,1.0,1.0,4.0,4.0,293.8240030198358,4.0,1.0,phase_1,,,,,,,,,,,,,cyan,flipped triangle
384.0,8.0,4.0,1.0,2.0,2.0,313.6410799925215,4.0,1.0,phase_1,,,,,,,,,,,,,blue,I
53.0,1.0,0.5,0.0,2.0,2.0,309.7001650021411,4.0,1.0,phase_1,,,,,,,,,,,,,yellow,triangle
402.0,8.0,4.0,1.0,3.0,3.0,457.6767130056396,4.0,1.0,phase_1,,,,,,,,,,,,,blue,I
106.0,2.0,1.0,0.0,2.0,2.0,399.9511230213102,4.0,1.0,phase_1,,,,,,,,,,,,,magenta,diamond
202.0,7.0,2.0,1.0,1.0,1.0,322.4020390189253,4.0,1.0,phase_1,,,,,,,,,,,,,white,square
109.0,6.0,1.0,1.0,4.0,4.0,433.2205840037204,4.0,1.0,phase_1,,,,,,,,,,,,,cyan,flipped triangle
120.0,6.0,1.0,1.0,4.0,4.0,382.9564469924662,4.0,1.0,phase_1,,,,,,,,,,,,,cyan,flipped triangle
419.0,8.0,4.0,1.0,3.0,3.0,423.6431460012682,4.0,1.0,phase_1,,,,,,,,,,,,,blue,I
0.0,7.0,0.0,1.0,4.0,4.0,735.295688995393,4.0,1.0,phase_1,,,,,,,,,,,,,white,square
79.0,6.0,1.0,1.0,2.0,2.0,347.401675011497,4.0,1.0,phase_1,,,,,,,,,,,,,cyan,flipped triangle
125.0,6.0,1.0,1.0,3.0,3.0,373.8976570020895,4.0,1.0,phase_1,,,,,,,,,,,,,cyan,flipped triangle
419.0,4.0,4.0,0.0,1.0,1.0,341.1247089970857,4.0,1.0,phase_1,,,,,,,,,,,,,green,hexagon
0.0,3.0,0.0,0.0,2.0,2.0,385.4459239810239,4.0,1.0,phase_1,,,,,,,,,,,,,gray,cross
0.0,6.0,0.0,1.0,4.0,4.0,487.6944590068888,4.0,1.0,phase_1,,,,,,,,,,,,,cyan,flipped triangle
389.0,4.0,4.0,0.0,2.0,2.0,323.63520600483747,4.0,1.0,phase_1,,,,,,,,,,,,,green,hexagon
53.0,1.0,0.5,0.0,3.0,3.0,319.9636529898271,4.0,1.0,phase_1,,,,,,,,,,,,,yellow,triangle
66.0,1.0,0.5,0.0,2.0,2.0,578.4351080073975,4.0,1.0,phase_1,,,,,,,,,,,,,yellow,triangle
86.0,2.0,1.0,0.0,3.0,3.0,344.492417993024,4.0,1.0,phase_1,,,,,,,,,,,,,magenta,diamond
113.0,2.0,1.0,0.0,3.0,3.0,318.4798499860335,4.0,1.0,phase_1,,,,,,,,,,,,,magenta,diamond
379.0,8.0,4.0,1.0,3.0,3.0,354.6267969941254,4.0,1.0,phase_1,,,,,,,,,,,,,blue,I
0.0,8.0,0.0,1.0,4.0,4.0,356.8474540079478,4.0,1.0,phase_1,,,,,,,,,,,,,blue,I
386.0,4.0,4.0,0.0,2.0,2.0,314.0947129868436,4.0,1.0,phase_1,,,,,,,,,,,,,green,hexagon
65.0,1.0,0.5,0.0,3.0,3.0,329.9166249926202,4.0,1.0,phase_1,,,,,,,,,,,,,yellow,triangle
205.0,3.0,2.0,0.0,2.0,2.0,321.3336729968432,4.0,2.0,phase_1,,,,,,,,,,,,,gray,cross
0.0,4.0,0.0,0.0,1.0,1.0,342.0523480162956,4.0,1.0,phase_1,,,,,,,,,,,,,green,hexagon
95.0,2.0,1.0,0.0,2.0,2.0,304.4701470062136,4.0,1.0,phase_1,,,,,,,,,,,,,magenta,diamond
0.0,1.0,0.0,0.0,1.0,1.0,318.7812820251565,4.0,1.0,phase_1,,,,,,,,,,,,,yellow,triangle
176.0,3.0,2.0,0.0,4.0,4.0,330.1555800135247,4.0,1.0,phase_1,,,,,,,,,,,,,gray,cross
196.0,7.0,2.0,1.0,1.0,1.0,327.5327429873869,4.0,1.0,phase_1,,,,,,,,,,,,,white,square
0.0,3.0,0.0,0.0,2.0,2.0,467.011683009332,4.0,1.0,phase_1,,,,,,,,,,,,,gray,cross
411.0,4.0,4.0,0.0,3.0,3.0,359.9396620120387,4.0,1.0,phase_1,,,,,,,,,,,,,green,hexagon
0.0,3.0,0.0,0.0,4.0,4.0,533.3065830054693,4.0,1.0,phase_1,,,,,,,,,,,,,gray,cross
64.0,1.0,0.5,0.0,4.0,4.0,290.4246039979625,4.0,1.0,phase_1,,,,,,,,,,,,,yellow,triangle
403.0,8.0,4.0,1.0,4.0,4.0,311.6701739782002,4.0,1.0,phase_1,,,,,,,,,,,,,blue,I
217.0,7.0,2.0,1.0,2.0,2.0,461.5793279954232,4.0,1.0,phase_1,,,,,,,,,,,,,white,square
91.0,2.0,1.0,0.0,4.0,4.0,408.6965919996146,4.0,1.0,phase_1,,,,,,,,,,,,,magenta,diamond
194.0,3.0,2.0,0.0,3.0,3.0,375.3304719866719,4.0,1.0,phase_1,,,,,,,,,,,,,gray,cross
0.0,2.0,0.0,0.0,1.0,1.0,312.9838769964408,4.0,1.0,phase_1,,,,,,,,,,,,,magenta,diamond
0.0,7.0,0.0,1.0,2.0,2.0,336.1230109876487,4.0,1.0,phase_1,,,,,,,,,,,,,white,square
411.0,8.0,4.0,1.0,4.0,4.0,394.4239859993104,4.0,1.0,phase_1,,,,,,,,,,,,,blue,I
0.0,2.0,0.0,0.0,2.0,2.0,344.271496986039,4.0,1.0,phase_1,,,,,,,,,,,,,magenta,diamond
425.0,8.0,4.0,1.0,3.0,3.0,356.2974130036309,4.0,1.0,phase_1,,,,,,,,,,,,,blue,I
31.0,5.0,0.5,1.0,2.0,2.0,378.7181730149314,4.0,1.0,phase_1,,,,,,,,,,,,,orange,circle
53.0,1.0,0.5,0.0,1.0,1.0,317.6712479908019,4.0,1.0,phase_1,,,,,,,,,,,,,yellow,triangle
103.0,2.0,1.0,0.0,1.0,1.0,405.4084410017822,4.0,1.0,phase_1,,,,,,,,,,,,,magenta,diamond
203.0,3.0,2.0,0.0,3.0,3.0,401.6183119965717,4.0,1.0,phase_1,,,,,,,,,,,,,gray,cross
0.0,8.0,0.0,1.0,4.0,4.0,411.3647869962733,4.0,1.0,phase_1,,,,,,,,,,,,,blue,I
46.0,1.0,0.5,0.0,4.0,4.0,345.8540590072516,4.0,1.0,phase_1,,,,,,,,,,,,,yellow,triangle
56.0,5.0,0.5,1.0,1.0,1.0,357.1435149933677,4.0,1.0,phase_1,,,,,,,,,,,,,orange,circle
36.0,1.0,0.5,0.0,2.0,2.0,403.7574579997454,4.0,1.0,phase_1,,,,,,,,,,,,,yellow,triangle
46.0,5.0,0.5,1.0,1.0,1.0,425.6657180085312,4.0,1.0,phase_1,,,,,,,,,,,,,orange,circle
378.0,4.0,4.0,0.0,1.0,1.0,358.1679810013156,4.0,1.0,phase_1,,,,,,,,,,,,,green,hexagon
203.0,7.0,2.0,1.0,1.0,1.0,321.5313440014142,4.0,1.0,phase_1,,,,,,,,,,,,,white,square
47.0,5.0,0.5,1.0,3.0,3.0,415.6997910176869,4.0,1.0,phase_1,,,,,,,,,,,,,orange,circle
0.0,6.0,0.0,1.0,3.0,3.0,370.7459249999374,4.0,1.0,phase_1,,,,,,,,,,,,,cyan,flipped triangle
400.0,8.0,4.0,1.0,3.0,3.0,350.1378879882395,4.0,1.0,phase_1,,,,,,,,,,,,,blue,I
0.0,1.0,0.5,0.0,5.0,5.0,485.5222699989099,1.0,1.0,phase_2,go,250.0,250.0,1.0,,,,,,,,,yellow,triangle
0.0,3.0,2.0,0.0,6.0,6.0,323.5449680068996,1.0,1.0,phase_2,go,250.0,250.0,1.0,,,,,,,,,gray,cross
0.0,4.0,4.0,0.0,5.0,5.0,385.1479320146609,1.0,1.0,phase_2,go,250.0,250.0,1.0,,,,,,,,,green,hexagon
0.0,7.0,2.0,1.0,5.0,5.0,467.8302870015614,1.0,1.0,phase_2,go,250.0,250.0,1.0,,,,,,,,,white,square
0.0,5.0,0.5,1.0,5.0,0.0,0.0,1.0,1.0,phase_2,stop,250.0,250.0,4.0,,,,,,,,,orange,circle
0.0,6.0,1.0,1.0,5.0,5.0,474.9057879962493,1.0,1.0,phase_2,stop,300.0,250.0,3.0,,,,,,,,,cyan,flipped triangle
0.0,2.0,1.0,0.0,5.0,5.0,710.7087439799216,1.0,1.0,phase_2,go,250.0,250.0,1.0,,,,,,,,,magenta,diamond
0.0,1.0,0.5,0.0,6.0,6.0,344.5851860160474,1.0,1.0,phase_2,go,250.0,250.0,1.0,,,,,,,,,yellow,triangle
0.0,2.0,1.0,0.0,6.0,6.0,319.1708709928207,1.0,1.0,phase_2,go,250.0,250.0,1.0,,,,,,,,,magenta,diamond
0.0,2.0,1.0,0.0,6.0,6.0,884.6195229853038,1.0,1.0,phase_2,go,250.0,250.0,1.0,,,,,,,,,magenta,diamond
0.0,6.0,1.0,1.0,6.0,0.0,0.0,1.0,1.0,phase_2,stop,250.0,250.0,4.0,,,,,,,,,cyan,flipped triangle
0.0,8.0,4.0,1.0,6.0,6.0,375.1035440072883,1.0,1.0,phase_2,stop,250.0,300.0,3.0,,,,,,,,,blue,I
0.0,2.0,1.0,0.0,6.0,6.0,604.7051910136361,1.0,1.0,phase_2,go,250.0,250.0,1.0,,,,,,,,,magenta,diamond
0.0,3.0,2.0,0.0,5.0,5.0,442.5101169908885,1.0,1.0,phase_2,go,250.0,250.0,1.0,,,,,,,,,gray,cross
0.0,8.0,4.0,1.0,6.0,0.0,0.0,1.0,1.0,phase_2,stop,250.0,250.0,4.0,,,,,,,,,blue,I
0.0,8.0,4.0,1.0,5.0,5.0,281.8713299930095,1.0,1.0,phase_2,go,250.0,300.0,1.0,,,,,,,,,blue,I
0.0,2.0,1.0,0.0,5.0,5.0,1083.7250810000114,1.0,1.0,phase_2,go,250.0,300.0,1.0,,,,,,,,,magenta,diamond
0.0,2.0,1.0,0.0,5.0,5.0,464.3804440274834,1.0,1.0,phase_2,go,250.0,300.0,1.0,,,,,,,,,magenta,diamond
0.0,7.0,2.0,1.0,5.0,0.0,0.0,1.0,1.0,phase_2,stop,250.0,300.0,4.0,,,,,,,,,white,square
0.0,5.0,0.5,1.0,5.0,5.0,463.5433739749715,1.0,1.0,phase_2,stop,300.0,300.0,3.0,,,,,,,,,orange,circle
0.0,2.0,1.0,0.0,6.0,6.0,799.3002440198325,1.0,1.0,phase_2,go,250.0,300.0,1.0,,,,,,,,,magenta,diamond
0.0,7.0,2.0,1.0,6.0,0.0,0.0,1.0,1.0,phase_2,stop,250.0,300.0,4.0,,,,,,,,,white,square
0.0,3.0,2.0,0.0,6.0,6.0,673.5098840144929,1.0,1.0,phase_2,go,250.0,350.0,1.0,,,,,,,,,gray,cross
0.0,5.0,0.5,1.0,5.0,0.0,0.0,1.0,1.0,phase_2,stop,250.0,350.0,4.0,,,,,,,,,orange,circle
0.0,3.0,2.0,0.0,5.0,5.0,830.4834199952893,1.0,1.0,phase_2,go,300.0,350.0,1.0,,,,,,,,,gray,cross
0.0,1.0,0.5,0.0,5.0,5.0,879.8195460112765,1.0,1.0,phase_2,go,300.0,350.0,1.0,,,,,,,,,yellow,triangle
0.0,1.0,0.5,0.0,6.0,6.0,607.0483710209373,1.0,1.0,phase_2,go,300.0,350.0,1.0,,,,,,,,,yellow,triangle
0.0,4.0,4.0,0.0,6.0,6.0,438.7481799931265,1.0,1.0,phase_2,go,300.0,350.0,1.0,,,,,,,,,green,hexagon
0.0,1.0,0.5,0.0,5.0,5.0,410.2960639866069,1.0,1.0,phase_2,go,300.0,350.0,1.0,,,,,,,,,yellow,triangle
0.0,7.0,2.0,1.0,5.0,0.0,0.0,1.0,1.0,phase_2,stop,300.0,350.0,4.0,,,,,,,,,white,square
0.0,7.0,2.0,1.0,5.0,5.0,341.1678660195321,1.0,1.0,phase_2,stop,350.0,350.0,3.0,,,,,,,,,white,square
0.0,1.0,0.5,0.0,6.0,6.0,587.0257200149354,1.0,1.0,phase_2,go,300.0,350.0,1.0,,,,,,,,,yellow,triangle
0.0,2.0,1.0,0.0,6.0,6.0,625.7247589819599,1.0,1.0,phase_2,go,300.0,350.0,1.0,,,,,,,,,magenta,diamond
0.0,5.0,0.5,1.0,6.0,0.0,0.0,1.0,1.0,phase_2,stop,300.0,350.0,4.0,,,,,,,,,orange,circle
0.0,8.0,4.0,1.0,6.0,0.0,0.0,1.0,1.0,phase_2,stop,300.0,400.0,4.0,,,,,,,,,blue,I
0.0,3.0,2.0,0.0,6.0,6.0,895.15414100606,1.0,1.0,phase_2,go,300.0,450.0,1.0,,,,,,,,,gray,cross
0.0,2.0,1.0,0.0,5.0,5.0,548.4756579971872,2.0,1.0,phase_2,go,300.0,450.0,1.0,,,,,,,,,magenta,diamond
0.0,7.0,2.0,1.0,6.0,6.0,421.323880989803,2.0,1.0,phase_2,stop,300.0,450.0,3.0,,,,,,,,,white,square
0.0,3.0,2.0,0.0,6.0,6.0,466.0026469791773,2.0,1.0,phase_2,go,300.0,400.0,1.0,,,,,,,,,gray,cross
0.0,8.0,4.0,1.0,5.0,0.0,0.0,2.0,1.0,phase_2,stop,300.0,400.0,4.0,,,,,,,,,blue,I
0.0,8.0,4.0,1.0,6.0,0.0,0.0,2.0,1.0,phase_2,stop,350.0,400.0,4.0,,,,,,,,,blue,I
0.0,7.0,2.0,1.0,6.0,0.0,0.0,2.0,1.0,phase_2,stop,350.0,450.0,4.0,,,,,,,,,white,square
0.0,6.0,1.0,1.0,6.0,6.0,657.458270987263,2.0,1.0,phase_2,go,350.0,500.0,1.0,,,,,,,,,cyan,flipped triangle
0.0,2.0,1.0,0.0,5.0,5.0,497.6739110134076,2.0,1.0,phase_2,go,350.0,500.0,1.0,,,,,,,,,magenta,diamond
0.0,5.0,0.5,1.0,5.0,5.0,471.8124289938714,2.0,1.0,phase_2,go,350.0,500.0,1.0,,,,,,,,,orange,circle
0.0,8.0,4.0,1.0,5.0,5.0,336.2059339997358,2.0,1.0,phase_2,stop,350.0,500.0,3.0,,,,,,,,,blue,I
0.0,2.0,1.0,0.0,6.0,6.0,310.4516169987619,2.0,1.0,phase_2,go,300.0,500.0,1.0,,,,,,,,,magenta,diamond
0.0,5.0,0.5,1.0,6.0,6.0,516.371628997149,2.0,1.0,phase_2,stop,300.0,500.0,3.0,,,,,,,,,orange,circle
0.0,1.0,0.5,0.0,6.0,6.0,646.1898460111115,2.0,1.0,phase_2,go,300.0,450.0,1.0,,,,,,,,,yellow,triangle
0.0,7.0,2.0,1.0,6.0,6.0,770.5540689930785,2.0,1.0,phase_2,go,300.0,450.0,1.0,,,,,,,,,white,square
0.0,7.0,2.0,1.0,5.0,0.0,0.0,2.0,1.0,phase_2,stop,300.0,450.0,4.0,,,,,,,,,white,square
0.0,6.0,1.0,1.0,6.0,6.0,553.6572450073436,2.0,1.0,phase_2,stop,350.0,450.0,3.0,,,,,,,,,cyan,flipped triangle
0.0,1.0,0.5,0.0,5.0,5.0,865.4458659875672,2.0,1.0,phase_2,go,350.0,400.0,1.0,,,,,,,,,yellow,triangle
0.0,6.0,1.0,1.0,5.0,5.0,531.7169960180763,2.0,1.0,phase_2,go,350.0,400.0,1.0,,,,,,,,,cyan,flipped triangle
0.0,1.0,0.5,0.0,6.0,6.0,779.3068590108305,2.0,1.0,phase_2,go,350.0,400.0,1.0,,,,,,,,,yellow,triangle
0.0,8.0,4.0,1.0,5.0,0.0,0.0,2.0,1.0,phase_2,stop,350.0,400.0,4.0,,,,,,,,,blue,I
0.0,3.0,2.0,0.0,5.0,5.0,495.38292401121,2.0,1.0,phase_2,go,400.0,400.0,1.0,,,,,,,,,gray,cross
0.0,6.0,1.0,1.0,5.0,5.0,419.402933010133,2.0,1.0,phase_2,stop,400.0,400.0,3.0,,,,,,,,,cyan,flipped triangle
0.0,1.0,0.5,0.0,5.0,5.0,688.2070149877109,2.0,1.0,phase_2,go,350.0,400.0,1.0,,,,,,,,,yellow,triangle
0.0,2.0,1.0,0.0,5.0,5.0,806.4437459979672,2.0,1.0,phase_2,go,350.0,400.0,1.0,,,,,,,,,magenta,diamond
0.0,5.0,0.5,1.0,6.0,6.0,525.298689986812,2.0,1.0,phase_2,stop,350.0,400.0,3.0,,,,,,,,,orange,circle
0.0,1.0,0.5,0.0,5.0,5.0,895.4734180006199,2.0,1.0,phase_2,go,350.0,350.0,1.0,,,,,,,,,yellow,triangle
0.0,3.0,2.0,0.0,6.0,6.0,795.7515290181618,2.0,1.0,phase_2,go,350.0,350.0,1.0,,,,,,,,,gray,cross
0.0,4.0,4.0,0.0,6.0,6.0,938.9875170018058,2.0,1.0,phase_2,go,350.0,350.0,1.0,,,,,,,,,green,hexagon
0.0,3.0,2.0,0.0,5.0,5.0,387.3181929811835,2.0,1.0,phase_2,go,350.0,350.0,1.0,,,,,,,,,gray,cross
0.0,8.0,4.0,1.0,5.0,0.0,0.0,2.0,1.0,phase_2,stop,350.0,350.0,4.0,,,,,,,,,blue,I
0.0,8.0,4.0,1.0,5.0,5.0,643.3314220048487,2.0,1.0,phase_2,go,400.0,350.0,1.0,,,,,,,,,blue,I
0.0,7.0,2.0,1.0,5.0,0.0,0.0,2.0,1.0,phase_2,stop,400.0,350.0,4.0,,,,,,,,,white,square
0.0,6.0,1.0,1.0,6.0,6.0,482.7205429901369,2.0,1.0,phase_2,stop,450.0,350.0,3.0,,,,,,,,,cyan,flipped triangle
0.0,4.0,4.0,0.0,6.0,6.0,656.7577749956399,2.0,1.0,phase_2,go,450.0,300.0,1.0,,,,,,,,,green,hexagon
0.0,1.0,0.5,0.0,6.0,6.0,800.046594988089,2.0,1.0,phase_2,go,450.0,300.0,1.0,,,,,,,,,yellow,triangle
0.0,5.0,0.5,1.0,6.0,6.0,608.2093650184106,2.0,1.0,phase_2,go,450.0,300.0,1.0,,,,,,,,,orange,circle
0.0,3.0,2.0,0.0,5.0,5.0,572.3672640160657,3.0,1.0,phase_2,go,450.0,300.0,1.0,,,,,,,,,gray,cross
0.0,5.0,0.5,1.0,6.0,0.0,0.0,3.0,1.0,phase_2,stop,450.0,300.0,4.0,,,,,,,,,orange,circle
0.0,2.0,1.0,0.0,5.0,5.0,681.2723970215302,3.0,1.0,phase_2,go,450.0,350.0,1.0,,,,,,,,,magenta,diamond
0.0,2.0,1.0,0.0,5.0,5.0,520.5984089989215,3.0,1.0,phase_2,go,450.0,350.0,1.0,,,,,,,,,magenta,diamond
0.0,6.0,1.0,1.0,5.0,5.0,434.4885729951784,3.0,1.0,phase_2,go,450.0,350.0,1.0,,,,,,,,,cyan,flipped triangle
0.0,8.0,4.0,1.0,6.0,6.0,937.6968959986698,3.0,1.0,phase_2,go,450.0,350.0,1.0,,,,,,,,,blue,I
0.0,3.0,2.0,0.0,5.0,5.0,243.0200679809786,3.0,1.0,phase_2,go,450.0,350.0,1.0,,,,,,,,,gray,cross
0.0,7.0,2.0,1.0,5.0,5.0,366.8340620060917,3.0,1.0,phase_2,stop,450.0,350.0,3.0,,,,,,,,,white,square
0.0,3.0,2.0,0.0,6.0,6.0,781.5288389974739,3.0,1.0,phase_2,go,400.0,350.0,1.0,,,,,,,,,gray,cross
0.0,3.0,2.0,0.0,5.0,5.0,565.4268349753693,3.0,1.0,phase_2,go,400.0,350.0,1.0,,,,,,,,,gray,cross
0.0,6.0,1.0,1.0,6.0,0.0,0.0,3.0,1.0,phase_2,stop,400.0,350.0,4.0,,,,,,,,,cyan,flipped triangle
0.0,6.0,1.0,1.0,6.0,0.0,0.0,3.0,1.0,phase_2,stop,400.0,400.0,4.0,,,,,,,,,cyan,flipped triangle
0.0,3.0,2.0,0.0,6.0,6.0,606.2375350156799,3.0,1.0,phase_2,go,400.0,450.0,1.0,,,,,,,,,gray,cross
0.0,4.0,4.0,0.0,5.0,5.0,837.7813679981045,3.0,1.0,phase_2,go,400.0,450.0,1.0,,,,,,,,,green,hexagon
0.0,5.0,0.5,1.0,5.0,0.0,0.0,3.0,1.0,phase_2,stop,400.0,450.0,4.0,,,,,,,,,orange,circle
0.0,5.0,0.5,1.0,5.0,0.0,0.0,3.0,1.0,phase_2,stop,450.0,450.0,4.0,,,,,,,,,orange,circle
0.0,1.0,0.5,0.0,6.0,6.0,433.4842770185787,3.0,1.0,phase_2,go,500.0,450.0,1.0,,,,,,,,,yellow,triangle
0.0,6.0,1.0,1.0,5.0,0.0,0.0,3.0,1.0,phase_2,stop,500.0,450.0,4.0,,,,,,,,,cyan,flipped triangle
0.0,4.0,4.0,0.0,5.0,5.0,875.9661529911682,3.0,1.0,phase_2,go,550.0,450.0,1.0,,,,,,,,,green,hexagon
0.0,3.0,2.0,0.0,6.0,6.0,713.7875159969553,3.0,1.0,phase_2,go,550.0,450.0,1.0,,,,,,,,,gray,cross
0.0,8.0,4.0,1.0,5.0,5.0,521.8731930071954,3.0,1.0,phase_2,stop,550.0,450.0,3.0,,,,,,,,,blue,I
0.0,7.0,2.0,1.0,6.0,0.0,0.0,3.0,1.0,phase_2,stop,500.0,450.0,4.0,,,,,,,,,white,square
0.0,4.0,4.0,0.0,6.0,6.0,673.7949860107619,3.0,1.0,phase_2,go,500.0,500.0,1.0,,,,,,,,,green,hexagon
0.0,2.0,1.0,0.0,6.0,6.0,967.4285169749056,3.0,1.0,phase_2,go,500.0,500.0,1.0,,,,,,,,,magenta,diamond
0.0,6.0,1.0,1.0,6.0,6.0,349.738935008645,3.0,1.0,phase_2,stop,500.0,500.0,3.0,,,,,,,,,cyan,flipped triangle
0.0,3.0,2.0,0.0,6.0,6.0,654.8321779991966,3.0,1.0,phase_2,go,500.0,450.0,1.0,,,,,,,,,gray,cross
0.0,2.0,1.0,0.0,5.0,5.0,740.1747640105896,3.0,1.0,phase_2,go,500.0,450.0,1.0,,,,,,,,,magenta,diamond
0.0,4.0,4.0,0.0,5.0,5.0,327.0396680163685,3.0,1.0,phase_2,go,500.0,450.0,1.0,,,,,,,,,green,hexagon
0.0,2.0,1.0,0.0,6.0,6.0,500.20546099403873,3.0,1.0,phase_2,go,500.0,450.0,1.0,,,,,,,,,magenta,diamond
0.0,6.0,1.0,1.0,6.0,6.0,472.1330979955382,3.0,1.0,phase_2,stop,500.0,450.0,3.0,,,,,,,,,cyan,flipped triangle
0.0,3.0,2.0,0.0,5.0,5.0,411.2742219876963,3.0,1.0,phase_2,go,500.0,400.0,1.0,,,,,,,,,gray,cross
0.0,7.0,2.0,1.0,6.0,6.0,499.0477089886553,3.0,1.0,phase_2,stop,500.0,400.0,3.0,,,,,,,,,white,square
0.0,5.0,0.5,1.0,6.0,6.0,345.9837780101225,3.0,1.0,phase_2,go,500.0,350.0,1.0,,,,,,,,,orange,circle
0.0,8.0,4.0,1.0,5.0,5.0,361.0864430083893,3.0,1.0,phase_2,go,500.0,350.0,1.0,,,,,,,,,blue,I
0.0,5.0,0.5,1.0,5.0,5.0,455.5329559952952,3.0,1.0,phase_2,stop,500.0,350.0,3.0,,,,,,,,,orange,circle
0.0,8.0,4.0,1.0,5.0,5.0,376.6874489956535,3.0,1.0,phase_2,stop,450.0,350.0,3.0,,,,,,,,,blue,I
0.0,2.0,1.0,0.0,6.0,6.0,566.1815489875153,4.0,1.0,phase_2,go,400.0,350.0,1.0,,,,,,,,,magenta,diamond
0.0,7.0,2.0,1.0,6.0,6.0,508.88745600241236,4.0,1.0,phase_2,go,400.0,350.0,1.0,,,,,,,,,white,square
0.0,3.0,2.0,0.0,5.0,5.0,561.4069010189269,4.0,1.0,phase_2,go,400.0,350.0,1.0,,,,,,,,,gray,cross
0.0,1.0,0.5,0.0,6.0,6.0,329.6234529989306,4.0,1.0,phase_2,go,400.0,350.0,1.0,,,,,,,,,yellow,triangle
0.0,7.0,2.0,1.0,5.0,5.0,290.7013969961554,4.0,1.0,phase_2,go,400.0,350.0,1.0,,,,,,,,,white,square
0.0,6.0,1.0,1.0,5.0,0.0,0.0,4.0,1.0,phase_2,stop,400.0,350.0,4.0,,,,,,,,,cyan,flipped triangle
0.0,5.0,0.5,1.0,6.0,6.0,609.9030210170895,4.0,1.0,phase_2,go,450.0,350.0,1.0,,,,,,,,,orange,circle
0.0,6.0,1.0,1.0,5.0,0.0,0.0,4.0,1.0,phase_2,stop,450.0,350.0,4.0,,,,,,,,,cyan,flipped triangle
0.0,6.0,1.0,1.0,5.0,5.0,440.1218599814456,4.0,1.0,phase_2,stop,500.0,350.0,3.0,,,,,,,,,cyan,flipped triangle
0.0,6.0,1.0,1.0,6.0,0.0,0.0,4.0,1.0,phase_2,stop,450.0,350.0,4.0,,,,,,,,,cyan,flipped triangle
0.0,4.0,4.0,0.0,5.0,5.0,649.0016779862344,4.0,1.0,phase_2,go,450.0,400.0,1.0,,,,,,,,,green,hexagon
0.0,5.0,0.5,1.0,6.0,6.0,382.8766880033072,4.0,1.0,phase_2,stop,450.0,400.0,3.0,,,,,,,,,orange,circle
0.0,8.0,4.0,1.0,5.0,0.0,0.0,4.0,1.0,phase_2,stop,450.0,350.0,4.0,,,,,,,,,blue,I
0.0,1.0,0.5,0.0,6.0,6.0,806.7210529989097,4.0,1.0,phase_2,go,500.0,350.0,1.0,,,,,,,,,yellow,triangle
0.0,2.0,1.0,0.0,5.0,5.0,780.3584570065141,4.0,1.0,phase_2,go,500.0,350.0,1.0,,,,,,,,,magenta,diamond
0.0,7.0,2.0,1.0,5.0,0.0,0.0,4.0,1.0,phase_2,stop,500.0,350.0,4.0,,,,,,,,,white,square
0.0,6.0,1.0,1.0,5.0,5.0,541.4327679900452,4.0,1.0,phase_2,stop,550.0,350.0,3.0,,,,,,,,,cyan,flipped triangle
0.0,6.0,1.0,1.0,6.0,6.0,1203.991860995302,4.0,1.0,phase_2,go,500.0,350.0,1.0,,,,,,,,,cyan,flipped triangle
0.0,7.0,2.0,1.0,5.0,5.0,616.2202520063147,4.0,1.0,phase_2,go,500.0,350.0,1.0,,,,,,,,,white,square
0.0,6.0,1.0,1.0,5.0,5.0,728.583288990194,4.0,1.0,phase_2,go,500.0,350.0,1.0,,,,,,,,,cyan,flipped triangle
0.0,1.0,0.5,0.0,5.0,5.0,703.3506099833176,4.0,1.0,phase_2,go,500.0,350.0,1.0,,,,,,,,,yellow,triangle
0.0,2.0,1.0,0.0,5.0,5.0,490.8442099986132,4.0,1.0,phase_2,go,500.0,350.0,1.0,,,,,,,,,magenta,diamond
0.0,5.0,0.5,1.0,6.0,0.0,0.0,4.0,1.0,phase_2,stop,500.0,350.0,4.0,,,,,,,,,orange,circle
0.0,1.0,0.5,0.0,5.0,5.0,637.4853820016142,4.0,1.0,phase_2,go,500.0,400.0,1.0,,,,,,,,,yellow,triangle
0.0,5.0,0.5,1.0,6.0,0.0,0.0,4.0,1.0,phase_2,stop,500.0,400.0,4.0,,,,,,,,,orange,circle
0.0,8.0,4.0,1.0,6.0,0.0,0.0,4.0,1.0,phase_2,stop,500.0,450.0,4.0,,,,,,,,,blue,I
0.0,2.0,1.0,0.0,5.0,5.0,580.8367930003442,4.0,1.0,phase_2,go,500.0,500.0,1.0,,,,,,,,,magenta,diamond
0.0,6.0,1.0,1.0,6.0,6.0,549.2063370184042,4.0,1.0,phase_2,go,500.0,500.0,1.0,,,,,,,,,cyan,flipped triangle
0.0,3.0,2.0,0.0,6.0,6.0,670.0503690226469,4.0,1.0,phase_2,go,500.0,500.0,1.0,,,,,,,,,gray,cross
0.0,8.0,4.0,1.0,6.0,6.0,642.3207639891189,4.0,1.0,phase_2,stop,500.0,500.0,3.0,,,,,,,,,blue,I
0.0,8.0,4.0,1.0,5.0,5.0,595.7436359894928,4.0,1.0,phase_2,go,500.0,450.0,1.0,,,,,,,,,blue,I
0.0,4.0,4.0,0.0,5.0,5.0,489.8832819890231,4.0,1.0,phase_2,go,500.0,450.0,1.0,,,,,,,,,green,hexagon
0.0,1.0,0.5,0.0,6.0,6.0,649.8630369897,4.0,1.0,phase_2,go,500.0,450.0,1.0,,,,,,,,,yellow,triangle
0.0,4.0,4.0,0.0,6.0,6.0,842.5602839852218,4.0,1.0,phase_2,go,500.0,450.0,1.0,,,,,,,,,green,hexagon
0.0,2.0,1.0,0.0,6.0,6.0,649.033244990278,4.0,1.0,phase_2,go,500.0,450.0,1.0,,,,,,,,,magenta,diamond
0.0,2.0,1.0,0.0,6.0,6.0,488.7796280090697,4.0,1.0,phase_2,go,500.0,450.0,1.0,,,,,,,,,magenta,diamond
0.0,5.0,0.5,1.0,5.0,5.0,547.9802899935748,5.0,1.0,phase_2,stop,500.0,450.0,3.0,,,,,,,,,orange,circle
0.0,2.0,1.0,0.0,6.0,6.0,725.3011419961695,5.0,1.0,phase_2,go,450.0,450.0,1.0,,,,,,,,,magenta,diamond
0.0,8.0,4.0,1.0,6.0,6.0,586.275886016665,5.0,1.0,phase_2,stop,450.0,450.0,3.0,,,,,,,,,blue,I
0.0,7.0,2.0,1.0,5.0,0.0,0.0,5.0,1.0,phase_2,stop,450.0,400.0,4.0,,,,,,,,,white,square
0.0,1.0,0.5,0.0,6.0,6.0,547.5008560169954,5.0,1.0,phase_2,go,500.0,400.0,1.0,,,,,,,,,yellow,triangle
0.0,1.0,0.5,0.0,6.0,6.0,616.6281169862486,5.0,1.0,phase_2,go,500.0,400.0,1.0,,,,,,,,,yellow,triangle
0.0,6.0,1.0,1.0,6.0,6.0,456.1772039742209,5.0,1.0,phase_2,stop,500.0,400.0,3.0,,,,,,,,,cyan,flipped triangle
0.0,8.0,4.0,1.0,5.0,0.0,0.0,5.0,1.0,phase_2,stop,500.0,350.0,4.0,,,,,,,,,blue,I
0.0,4.0,4.0,0.0,6.0,6.0,710.730915016029,5.0,1.0,phase_2,go,550.0,350.0,1.0,,,,,,,,,green,hexagon
0.0,8.0,4.0,1.0,6.0,0.0,0.0,5.0,1.0,phase_2,stop,550.0,350.0,4.0,,,,,,,,,blue,I
0.0,6.0,1.0,1.0,5.0,0.0,0.0,5.0,1.0,phase_2,stop,550.0,400.0,4.0,,,,,,,,,cyan,flipped triangle
0.0,1.0,0.5,0.0,5.0,5.0,1016.689651994966,5.0,1.0,phase_2,go,600.0,400.0,1.0,,,,,,,,,yellow,triangle
0.0,6.0,1.0,1.0,6.0,0.0,0.0,5.0,1.0,phase_2,stop,600.0,400.0,4.0,,,,,,,,,cyan,flipped triangle
0.0,3.0,2.0,0.0,6.0,6.0,734.7626050177496,5.0,1.0,phase_2,go,600.0,450.0,1.0,,,,,,,,,gray,cross
0.0,4.0,4.0,0.0,6.0,6.0,964.0481719980016,5.0,1.0,phase_2,go,600.0,450.0,1.0,,,,,,,,,green,hexagon
0.0,6.0,1.0,1.0,6.0,0.0,0.0,5.0,1.0,phase_2,stop,600.0,450.0,4.0,,,,,,,,,cyan,flipped triangle
0.0,4.0,4.0,0.0,6.0,6.0,1101.8713020021096,5.0,1.0,phase_2,go,600.0,500.0,1.0,,,,,,,,,green,hexagon
0.0,4.0,4.0,0.0,5.0,5.0,747.8381860128138,5.0,1.0,phase_2,go,600.0,500.0,1.0,,,,,,,,,green,hexagon
0.0,7.0,2.0,1.0,6.0,0.0,0.0,5.0,1.0,phase_2,stop,600.0,500.0,4.0,,,,,,,,,white,square
0.0,7.0,2.0,1.0,5.0,5.0,712.6621380157303,5.0,1.0,phase_2,stop,600.0,550.0,3.0,,,,,,,,,white,square
0.0,1.0,0.5,0.0,6.0,6.0,753.2712320098653,5.0,1.0,phase_2,go,550.0,550.0,1.0,,,,,,,,,yellow,triangle
0.0,3.0,2.0,0.0,6.0,6.0,849.5295879838523,5.0,1.0,phase_2,go,550.0,550.0,1.0,,,,,,,,,gray,cross
0.0,2.0,1.0,0.0,5.0,5.0,873.0509449960664,5.0,1.0,phase_2,go,550.0,550.0,1.0,,,,,,,,,magenta,diamond
0.0,8.0,4.0,1.0,6.0,0.0,0.0,5.0,1.0,phase_2,stop,550.0,550.0,4.0,,,,,,,,,blue,I
0.0,5.0,0.5,1.0,6.0,6.0,982.5182600179688,5.0,1.0,phase_2,go,550.0,600.0,1.0,,,,,,,,,orange,circle
0.0,6.0,1.0,1.0,6.0,6.0,918.104943993967,5.0,1.0,phase_2,go,550.0,600.0,1.0,,,,,,,,,cyan,flipped triangle
0.0,3.0,2.0,0.0,6.0,6.0,588.5750659799669,5.0,1.0,phase_2,go,550.0,600.0,1.0,,,,,,,,,gray,cross
0.0,7.0,2.0,1.0,5.0,5.0,542.9289379972033,5.0,1.0,phase_2,stop,550.0,600.0,3.0,,,,,,,,,white,square
0.0,6.0,1.0,1.0,5.0,5.0,583.0339980020653,5.0,1.0,phase_2,go,500.0,600.0,1.0,,,,,,,,,cyan,flipped triangle
0.0,8.0,4.0,1.0,5.0,5.0,661.1027299950365,5.0,1.0,phase_2,go,500.0,600.0,1.0,,,,,,,,,blue,I
0.0,4.0,4.0,0.0,5.0,5.0,878.904904006049,5.0,1.0,phase_2,go,500.0,600.0,1.0,,,,,,,,,green,hexagon
0.0,8.0,4.0,1.0,6.0,0.0,0.0,5.0,1.0,phase_2,stop,500.0,600.0,4.0,,,,,,,,,blue,I
0.0,4.0,4.0,0.0,5.0,5.0,833.7261970154941,5.0,1.0,phase_2,go,500.0,650.0,1.0,,,,,,,,,green,hexagon
0.0,4.0,4.0,0.0,5.0,5.0,964.9316049763002,5.0,1.0,phase_2,go,500.0,650.0,1.0,,,,,,,,,green,hexagon
0.0,4.0,4.0,0.0,6.0,6.0,818.2988179905806,5.0,1.0,phase_2,go,500.0,650.0,1.0,,,,,,,,,green,hexagon
0.0,3.0,2.0,0.0,6.0,6.0,607.6060920022428,5.0,1.0,phase_2,go,500.0,650.0,1.0,,,,,,,,,gray,cross
0.0,6.0,1.0,1.0,6.0,6.0,638.5744079889264,6.0,1.0,phase_2,stop,500.0,650.0,3.0,,,,,,,,,cyan,flipped triangle
0.0,2.0,1.0,0.0,5.0,5.0,366.2994219921529,6.0,1.0,phase_2,go,500.0,600.0,1.0,,,,,,,,,magenta,diamond
0.0,1.0,0.5,0.0,5.0,5.0,296.4447019912768,6.0,1.0,phase_2,go,500.0,600.0,1.0,,,,,,,,,yellow,triangle
0.0,7.0,2.0,1.0,6.0,6.0,276.9863200082909,6.0,1.0,phase_2,stop,500.0,600.0,3.0,,,,,,,,,white,square
0.0,2.0,1.0,0.0,5.0,5.0,352.3875980172306,6.0,1.0,phase_2,go,500.0,550.0,1.0,,,,,,,,,magenta,diamond
0.0,1.0,0.5,0.0,5.0,5.0,380.6048870028462,6.0,1.0,phase_2,go,500.0,550.0,1.0,,,,,,,,,yellow,triangle
0.0,8.0,4.0,1.0,6.0,0.0,0.0,6.0,1.0,phase_2,stop,500.0,550.0,4.0,,,,,,,,,blue,I
0.0,2.0,1.0,0.0,6.0,6.0,317.7410009957384,6.0,1.0,phase_2,go,500.0,600.0,1.0,,,,,,,,,magenta,diamond
0.0,7.0,2.0,1.0,5.0,5.0,235.1881689974106,6.0,1.0,phase_2,stop,500.0,600.0,3.0,,,,,,,,,white,square
0.0,4.0,4.0,0.0,5.0,5.0,593.4017190011218,6.0,1.0,phase_2,go,450.0,600.0,1.0,,,,,,,,,green,hexagon
0.0,5.0,0.5,1.0,5.0,5.0,490.0766630016733,6.0,1.0,phase_2,go,450.0,600.0,1.0,,,,,,,,,orange,circle
0.0,7.0,2.0,1.0,5.0,5.0,473.9272239967249,6.0,1.0,phase_2,stop,450.0,600.0,3.0,,,,,,,,,white,square
0.0,8.0,4.0,1.0,5.0,0.0,0.0,6.0,1.0,phase_2,stop,400.0,600.0,4.0,,,,,,,,,blue,I
0.0,6.0,1.0,1.0,6.0,6.0,297.6538000220898,6.0,1.0,phase_2,stop,450.0,600.0,3.0,,,,,,,,,cyan,flipped triangle
0.0,1.0,0.5,0.0,5.0,5.0,353.1229739892296,6.0,1.0,phase_2,go,450.0,550.0,1.0,,,,,,,,,yellow,triangle
0.0,7.0,2.0,1.0,6.0,6.0,342.2121350013185,6.0,1.0,phase_2,go,450.0,550.0,1.0,,,,,,,,,white,square
0.0,1.0,0.5,0.0,6.0,6.0,575.373870000476,6.0,1.0,phase_2,go,450.0,550.0,1.0,,,,,,,,,yellow,triangle
0.0,4.0,4.0,0.0,5.0,5.0,599.4328410015441,6.0,1.0,phase_2,go,450.0,550.0,1.0,,,,,,,,,green,hexagon
0.0,1.0,0.5,0.0,5.0,5.0,439.3339589878451,6.0,1.0,phase_2,go,450.0,550.0,1.0,,,,,,,,,yellow,triangle
0.0,2.0,1.0,0.0,6.0,6.0,286.2750100030098,6.0,1.0,phase_2,go,450.0,550.0,1.0,,,,,,,,,magenta,diamond
0.0,4.0,4.0,0.0,6.0,6.0,452.5415149983018,6.0,1.0,phase_2,go,450.0,550.0,1.0,,,,,,,,,green,hexagon
0.0,4.0,4.0,0.0,5.0,5.0,436.0573200101498,6.0,1.0,phase_2,go,450.0,550.0,1.0,,,,,,,,,green,hexagon
0.0,4.0,4.0,0.0,5.0,5.0,338.5648849944118,6.0,1.0,phase_2,go,450.0,550.0,1.0,,,,,,,,,green,hexagon
0.0,7.0,2.0,1.0,6.0,6.0,257.7599759970326,6.0,1.0,phase_2,stop,450.0,550.0,3.0,,,,,,,,,white,square
0.0,5.0,0.5,1.0,6.0,6.0,417.3597910266835,6.0,1.0,phase_2,stop,450.0,500.0,3.0,,,,,,,,,orange,circle
0.0,3.0,2.0,0.0,6.0,6.0,704.650441010017,6.0,1.0,phase_2,go,450.0,450.0,1.0,,,,,,,,,gray,cross
0.0,7.0,2.0,1.0,6.0,6.0,480.5316340061836,6.0,1.0,phase_2,stop,450.0,450.0,3.0,,,,,,,,,white,square
0.0,5.0,0.5,1.0,6.0,6.0,282.9720849986188,6.0,1.0,phase_2,stop,450.0,400.0,3.0,,,,,,,,,orange,circle
0.0,3.0,2.0,0.0,6.0,6.0,440.6147920235526,6.0,1.0,phase_2,go,450.0,350.0,1.0,,,,,,,,,gray,cross
0.0,2.0,1.0,0.0,6.0,6.0,278.3465829852503,6.0,1.0,phase_2,go,450.0,350.0,1.0,,,,,,,,,magenta,diamond
0.0,7.0,2.0,1.0,5.0,5.0,240.8056090062018,6.0,1.0,phase_2,stop,450.0,350.0,3.0,,,,,,,,,white,square
0.0,8.0,4.0,1.0,6.0,6.0,525.2663319988642,6.0,1.0,phase_2,go,400.0,350.0,1.0,,,,,,,,,blue,I
0.0,5.0,0.5,1.0,5.0,5.0,769.2081370041706,6.0,1.0,phase_2,go,400.0,350.0,1.0,,,,,,,,,orange,circle
0.0,6.0,1.0,1.0,5.0,5.0,552.7130199770909,6.0,1.0,phase_2,go,400.0,350.0,1.0,,,,,,,,,cyan,flipped triangle
0.0,3.0,2.0,0.0,5.0,5.0,301.9930319860577,6.0,1.0,phase_2,go,400.0,350.0,1.0,,,,,,,,,gray,cross
0.0,6.0,1.0,1.0,5.0,5.0,253.3556950220372,6.0,1.0,phase_2,stop,400.0,350.0,3.0,,,,,,,,,cyan,flipped triangle
0.0,5.0,0.5,1.0,5.0,5.0,420.9632400015834,7.0,1.0,phase_2,stop,350.0,350.0,3.0,,,,,,,,,orange,circle
0.0,1.0,0.5,0.0,6.0,6.0,331.2294819916133,7.0,1.0,phase_2,go,300.0,350.0,1.0,,,,,,,,,yellow,triangle
0.0,3.0,2.0,0.0,5.0,5.0,284.5842230017297,7.0,1.0,phase_2,go,300.0,350.0,1.0,,,,,,,,,gray,cross
0.0,1.0,0.5,0.0,6.0,6.0,284.1399229946546,7.0,1.0,phase_2,go,300.0,350.0,1.0,,,,,,,,,yellow,triangle
0.0,4.0,4.0,0.0,5.0,5.0,236.1412509926594,7.0,1.0,phase_2,go,300.0,350.0,1.0,,,,,,,,,green,hexagon
0.0,8.0,4.0,1.0,6.0,6.0,290.4403059801552,7.0,1.0,phase_2,stop,300.0,350.0,3.0,,,,,,,,,blue,I
0.0,4.0,4.0,0.0,5.0,5.0,231.6275220073294,7.0,1.0,phase_2,go,300.0,300.0,1.0,,,,,,,,,green,hexagon
0.0,1.0,0.5,0.0,5.0,5.0,335.121584997978,7.0,1.0,phase_2,go,300.0,300.0,1.0,,,,,,,,,yellow,triangle
0.0,6.0,1.0,1.0,5.0,0.0,0.0,7.0,1.0,phase_2,stop,300.0,300.0,4.0,,,,,,,,,cyan,flipped triangle
0.0,5.0,0.5,1.0,5.0,0.0,0.0,7.0,1.0,phase_2,stop,350.0,300.0,4.0,,,,,,,,,orange,circle
0.0,4.0,4.0,0.0,6.0,6.0,294.4546370126772,7.0,1.0,phase_2,go,400.0,300.0,1.0,,,,,,,,,green,hexagon
0.0,3.0,2.0,0.0,5.0,5.0,344.7756039968226,7.0,1.0,phase_2,go,400.0,300.0,1.0,,,,,,,,,gray,cross
0.0,5.0,0.5,1.0,6.0,6.0,268.6520230199676,7.0,1.0,phase_2,go,400.0,300.0,1.0,,,,,,,,,orange,circle
0.0,8.0,4.0,1.0,5.0,5.0,317.5184979918413,7.0,1.0,phase_2,stop,400.0,300.0,3.0,,,,,,,,,blue,I
0.0,1.0,0.5,0.0,5.0,5.0,379.3110830010846,7.0,1.0,phase_2,go,350.0,300.0,1.0,,,,,,,,,yellow,triangle
0.0,1.0,0.5,0.0,5.0,5.0,308.5383090074174,7.0,1.0,phase_2,go,350.0,300.0,1.0,,,,,,,,,yellow,triangle
0.0,2.0,1.0,0.0,6.0,6.0,483.3657650160603,7.0,1.0,phase_2,go,350.0,300.0,1.0,,,,,,,,,magenta,diamond
0.0,4.0,4.0,0.0,5.0,5.0,339.9484040273819,7.0,1.0,phase_2,go,350.0,300.0,1.0,,,,,,,,,green,hexagon
0.0,7.0,2.0,1.0,6.0,6.0,291.2053159961942,7.0,1.0,phase_2,go,350.0,300.0,1.0,,,,,,,,,white,square
0.0,5.0,0.5,1.0,5.0,5.0,377.4097850255202,7.0,1.0,phase_2,stop,350.0,300.0,3.0,,,,,,,,,orange,circle
0.0,8.0,4.0,1.0,6.0,6.0,320.1457879913505,7.0,1.0,phase_2,go,300.0,300.0,1.0,,,,,,,,,blue,I
0.0,3.0,2.0,0.0,5.0,5.0,417.4946840212215,7.0,1.0,phase_2,go,300.0,300.0,1.0,,,,,,,,,gray,cross
0.0,6.0,1.0,1.0,6.0,6.0,343.5007169900927,7.0,1.0,phase_2,stop,300.0,300.0,3.0,,,,,,,,,cyan,flipped triangle
0.0,7.0,2.0,1.0,6.0,0.0,0.0,7.0,1.0,phase_2,stop,300.0,250.0,4.0,,,,,,,,,white,square
0.0,5.0,0.5,1.0,5.0,5.0,297.8157229954377,7.0,1.0,phase_2,stop,300.0,300.0,3.0,,,,,,,,,orange,circle
0.0,7.0,2.0,1.0,6.0,6.0,725.7933839864563,7.0,1.0,phase_2,go,250.0,300.0,1.0,,,,,,,,,white,square
0.0,4.0,4.0,0.0,6.0,6.0,327.6701389986556,7.0,1.0,phase_2,go,250.0,300.0,1.0,,,,,,,,,green,hexagon
0.0,5.0,0.5,1.0,6.0,6.0,320.6998249806929,7.0,1.0,phase_2,stop,250.0,300.0,3.0,,,,,,,,,orange,circle
0.0,3.0,2.0,0.0,5.0,5.0,396.9728580268565,7.0,1.0,phase_2,go,250.0,250.0,1.0,,,,,,,,,gray,cross
0.0,7.0,2.0,1.0,5.0,5.0,405.8519259851891,7.0,1.0,phase_2,go,250.0,250.0,1.0,,,,,,,,,white,square
0.0,8.0,4.0,1.0,6.0,6.0,314.629128028173,7.0,1.0,phase_2,stop,250.0,250.0,3.0,,,,,,,,,blue,I
0.0,7.0,2.0,1.0,6.0,0.0,0.0,7.0,1.0,phase_2,stop,250.0,200.0,4.0,,,,,,,,,white,square
0.0,2.0,1.0,0.0,6.0,6.0,442.3084369918797,7.0,1.0,phase_2,go,250.0,250.0,1.0,,,,,,,,,magenta,diamond
0.0,8.0,4.0,1.0,5.0,0.0,0.0,7.0,1.0,phase_2,stop,250.0,250.0,4.0,,,,,,,,,blue,I
0.0,4.0,4.0,0.0,6.0,6.0,344.6543049940374,7.0,1.0,phase_2,go,300.0,250.0,1.0,,,,,,,,,green,hexagon
0.0,1.0,0.5,0.0,5.0,5.0,745.7668900024146,7.0,1.0,phase_2,go,300.0,250.0,1.0,,,,,,,,,yellow,triangle
0.0,2.0,1.0,0.0,5.0,0.0,0.0,8.0,1.0,phase_2,go,300.0,250.0,5.0,,,,,,,,,magenta,diamond
0.0,3.0,2.0,0.0,5.0,5.0,490.0454060116317,8.0,1.0,phase_2,go,300.0,250.0,1.0,,,,,,,,,gray,cross
0.0,6.0,1.0,1.0,5.0,5.0,319.1824750101659,8.0,1.0,phase_2,stop,300.0,250.0,3.0,,,,,,,,,cyan,flipped triangle
0.0,5.0,0.5,1.0,5.0,5.0,345.2163539768662,8.0,1.0,phase_2,stop,250.0,250.0,3.0,,,,,,,,,orange,circle
0.0,3.0,2.0,0.0,5.0,5.0,519.424391008215,8.0,1.0,phase_2,go,200.0,250.0,1.0,,,,,,,,,gray,cross
0.0,5.0,0.5,1.0,6.0,0.0,0.0,8.0,1.0,phase_2,stop,200.0,250.0,4.0,,,,,,,,,orange,circle
0.0,3.0,2.0,0.0,6.0,6.0,670.0535609852523,8.0,1.0,phase_2,go,200.0,300.0,1.0,,,,,,,,,gray,cross
0.0,5.0,0.5,1.0,6.0,6.0,325.8883449889254,8.0,1.0,phase_2,stop,200.0,300.0,3.0,,,,,,,,,orange,circle
0.0,1.0,0.5,0.0,5.0,5.0,306.1319109983742,8.0,1.0,phase_2,go,200.0,250.0,1.0,,,,,,,,,yellow,triangle
0.0,2.0,1.0,0.0,5.0,5.0,531.2901119759772,8.0,1.0,phase_2,go,200.0,250.0,1.0,,,,,,,,,magenta,diamond
0.0,6.0,1.0,1.0,5.0,0.0,0.0,8.0,1.0,phase_2,stop,200.0,250.0,4.0,,,,,,,,,cyan,flipped triangle
0.0,3.0,2.0,0.0,5.0,5.0,706.7601489834487,8.0,1.0,phase_2,go,250.0,250.0,1.0,,,,,,,,,gray,cross
0.0,2.0,1.0,0.0,6.0,6.0,304.0138549986295,8.0,1.0,phase_2,go,250.0,250.0,1.0,,,,,,,,,magenta,diamond
0.0,8.0,4.0,1.0,5.0,0.0,0.0,8.0,1.0,phase_2,stop,250.0,250.0,4.0,,,,,,,,,blue,I
0.0,1.0,0.5,0.0,6.0,6.0,328.6742769996635,8.0,1.0,phase_2,go,300.0,250.0,1.0,,,,,,,,,yellow,triangle
0.0,5.0,0.5,1.0,5.0,0.0,0.0,8.0,1.0,phase_2,stop,300.0,250.0,4.0,,,,,,,,,orange,circle
0.0,5.0,0.5,1.0,5.0,0.0,0.0,8.0,1.0,phase_2,stop,350.0,250.0,4.0,,,,,,,,,orange,circle
0.0,5.0,0.5,1.0,5.0,5.0,615.6710190116428,8.0,1.0,phase_2,go,400.0,250.0,1.0,,,,,,,,,orange,circle
0.0,8.0,4.0,1.0,6.0,6.0,479.8373819794506,8.0,1.0,phase_2,go,400.0,250.0,1.0,,,,,,,,,blue,I
0.0,4.0,4.0,0.0,6.0,6.0,429.1478650120552,8.0,1.0,phase_2,go,400.0,250.0,1.0,,,,,,,,,green,hexagon
0.0,4.0,4.0,0.0,6.0,6.0,467.9353120154701,8.0,1.0,phase_2,go,400.0,250.0,1.0,,,,,,,,,green,hexagon
0.0,4.0,4.0,0.0,5.0,5.0,478.8279350032098,8.0,1.0,phase_2,go,400.0,250.0,1.0,,,,,,,,,green,hexagon
0.0,5.0,0.5,1.0,6.0,6.0,350.9822560008615,8.0,1.0,phase_2,stop,400.0,250.0,3.0,,,,,,,,,orange,circle
0.0,6.0,1.0,1.0,5.0,5.0,331.0936159978155,8.0,1.0,phase_2,stop,400.0,200.0,3.0,,,,,,,,,cyan,flipped triangle
0.0,3.0,2.0,0.0,6.0,6.0,347.137228003703,8.0,1.0,phase_2,go,350.0,200.0,1.0,,,,,,,,,gray,cross
0.0,4.0,4.0,0.0,6.0,6.0,554.0559910004959,8.0,1.0,phase_2,go,350.0,200.0,1.0,,,,,,,,,green,hexagon
0.0,3.0,2.0,0.0,5.0,5.0,483.777340996312,8.0,1.0,phase_2,go,350.0,200.0,1.0,,,,,,,,,gray,cross
0.0,4.0,4.0,0.0,6.0,6.0,499.9515759991482,8.0,1.0,phase_2,go,350.0,200.0,1.0,,,,,,,,,green,hexagon
0.0,1.0,0.5,0.0,6.0,6.0,376.19834498036647,8.0,1.0,phase_2,go,350.0,200.0,1.0,,,,,,,,,yellow,triangle
0.0,7.0,2.0,1.0,6.0,6.0,335.2544569934252,8.0,1.0,phase_2,stop,350.0,200.0,3.0,,,,,,,,,white,square
0.0,8.0,4.0,1.0,6.0,0.0,0.0,8.0,1.0,phase_2,stop,350.0,150.0,4.0,,,,,,,,,blue,I
0.0,4.0,4.0,0.0,6.0,6.0,457.9050769971218,8.0,1.0,phase_2,go,350.0,200.0,1.0,,,,,,,,,green,hexagon
0.0,2.0,1.0,0.0,5.0,5.0,669.4413659861311,8.0,1.0,phase_2,go,350.0,200.0,1.0,,,,,,,,,magenta,diamond
0.0,7.0,2.0,1.0,5.0,5.0,453.1069590011611,8.0,1.0,phase_2,stop,350.0,200.0,3.0,,,,,,,,,white,square
0.0,8.0,4.0,1.0,5.0,0.0,0.0,8.0,1.0,phase_2,stop,300.0,200.0,4.0,,,,,,,,,blue,I
0.0,7.0,2.0,1.0,6.0,0.0,0.0,8.0,1.0,phase_2,stop,350.0,200.0,4.0,,,,,,,,,white,square
0.0,3.0,2.0,0.0,7.0,3.0,2361.2870289944112,1.0,2.0,phase_3,,,,,132.0,3.0,88.0,220.0,132.0,44.0,264.0,176.0,gray,cross
0.0,2.0,1.0,0.0,7.0,5.0,2196.434158977354,1.0,1.0,phase_3,,,,,170.0,5.0,68.0,102.0,136.0,34.0,170.0,204.0,magenta,diamond
0.0,3.0,2.0,0.0,7.0,1.0,3542.72155900253,1.0,1.0,phase_3,,,,,170.0,5.0,170.0,34.0,102.0,136.0,68.0,204.0,gray,cross
0.0,3.0,2.0,0.0,7.0,5.0,1823.5964729974512,1.0,1.0,phase_3,,,,,270.0,5.0,162.0,324.0,54.0,216.0,270.0,108.0,gray,cross
0.0,3.0,2.0,0.0,7.0,3.0,1382.2193730156869,1.0,1.0,phase_3,,,,,264.0,6.0,220.0,44.0,264.0,132.0,176.0,88.0,gray,cross
0.0,4.0,4.0,0.0,7.0,4.0,1351.2044069939293,1.0,1.0,phase_3,,,,,216.0,4.0,162.0,270.0,108.0,216.0,54.0,324.0,green,hexagon
0.0,4.0,4.0,0.0,7.0,4.0,1274.2773320060223,1.0,1.0,phase_3,,,,,136.0,4.0,170.0,34.0,204.0,136.0,68.0,102.0,green,hexagon
0.0,3.0,2.0,0.0,7.0,3.0,1117.8560289845336,1.0,1.0,phase_3,,,,,34.0,1.0,68.0,204.0,34.0,136.0,102.0,170.0,gray,cross
0.0,1.0,0.5,0.0,7.0,4.0,1806.7535129957832,1.0,1.0,phase_3,,,,,102.0,3.0,68.0,204.0,34.0,102.0,170.0,136.0,yellow,triangle
0.0,7.0,2.0,1.0,7.0,6.0,1494.5203450042754,1.0,1.0,phase_3,,,,,44.0,1.0,132.0,264.0,220.0,176.0,88.0,44.0,white,square
0.0,4.0,4.0,0.0,7.0,2.0,1902.276371984044,1.0,1.0,phase_3,,,,,88.0,2.0,44.0,88.0,176.0,264.0,220.0,132.0,green,hexagon
0.0,2.0,1.0,0.0,7.0,5.0,1137.8845970029945,1.0,1.0,phase_3,,,,,98.0,2.0,245.0,49.0,196.0,294.0,98.0,147.0,magenta,diamond
0.0,4.0,4.0,0.0,7.0,2.0,1867.7020439936316,1.0,1.0,phase_3,,,,,117.0,3.0,156.0,117.0,39.0,234.0,78.0,195.0,green,hexagon
0.0,6.0,1.0,1.0,7.0,3.0,1459.670432988787,1.0,1.0,phase_3,,,,,156.0,4.0,39.0,234.0,156.0,117.0,195.0,78.0,cyan,flipped triangle
0.0,1.0,0.5,0.0,7.0,1.0,1411.55575402081,1.0,1.0,phase_3,,,,,147.0,3.0,147.0,245.0,196.0,98.0,49.0,294.0,yellow,triangle
0.0,1.0,0.5,0.0,7.0,3.0,1493.6624619876966,1.0,1.0,phase_3,,,,,195.0,5.0,39.0,117.0,195.0,78.0,156.0,234.0,yellow,triangle
0.0,8.0,4.0,1.0,7.0,6.0,886.3927780184895,1.0,1.0,phase_3,,,,,216.0,4.0,270.0,108.0,162.0,324.0,54.0,216.0,blue,I
0.0,2.0,1.0,0.0,7.0,4.0,571.1892079852987,1.0,1.0,phase_3,,,,,147.0,3.0,98.0,49.0,245.0,147.0,294.0,196.0,magenta,diamond
0.0,2.0,1.0,0.0,7.0,2.0,747.0407919900026,1.0,1.0,phase_3,,,,,39.0,1.0,156.0,39.0,117.0,195.0,78.0,234.0,magenta,diamond
0.0,8.0,4.0,1.0,7.0,4.0,605.3242190100718,1.0,1.0,phase_3,,,,,156.0,4.0,39.0,78.0,117.0,156.0,234.0,195.0,blue,I
0.0,2.0,1.0,0.0,7.0,5.0,1726.0509420011658,2.0,1.0,phase_3,,,,,162.0,3.0,54.0,270.0,108.0,216.0,162.0,324.0,magenta,diamond
0.0,1.0,0.5,0.0,7.0,3.0,1478.8881529821083,2.0,1.0,phase_3,,,,,108.0,2.0,54.0,324.0,108.0,216.0,270.0,162.0,yellow,triangle
0.0,4.0,4.0,0.0,7.0,2.0,1520.831255009398,2.0,1.0,phase_3,,,,,108.0,2.0,162.0,108.0,270.0,54.0,216.0,324.0,green,hexagon
0.0,7.0,2.0,1.0,7.0,2.0,1187.7434679772705,2.0,1.0,phase_3,,,,,132.0,3.0,44.0,132.0,264.0,88.0,220.0,176.0,white,square
0.0,5.0,0.5,1.0,7.0,6.0,734.8544449778274,2.0,1.0,phase_3,,,,,88.0,2.0,176.0,264.0,44.0,220.0,132.0,88.0,orange,circle
0.0,5.0,0.5,1.0,7.0,2.0,1556.6146300116088,2.0,1.0,phase_3,,,,,49.0,1.0,98.0,49.0,147.0,196.0,294.0,245.0,orange,circle
0.0,8.0,4.0,1.0,7.0,2.0,1470.7681610016152,2.0,1.0,phase_3,,,,,78.0,2.0,156.0,78.0,39.0,117.0,195.0,234.0,blue,I
0.0,7.0,2.0,1.0,7.0,1.0,1584.48364798096,2.0,1.0,phase_3,,,,,49.0,1.0,49.0,147.0,245.0,98.0,294.0,196.0,white,square
0.0,1.0,0.5,0.0,7.0,5.0,650.9777850005776,2.0,1.0,phase_3,,,,,234.0,6.0,78.0,39.0,117.0,156.0,234.0,195.0,yellow,triangle
0.0,7.0,2.0,1.0,7.0,1.0,1228.7109559983946,2.0,1.0,phase_3,,,,,54.0,1.0,54.0,216.0,270.0,108.0,162.0,324.0,white,square
0.0,7.0,2.0,1.0,7.0,2.0,1211.151469993638,2.0,1.0,phase_3,,,,,34.0,1.0,136.0,34.0,204.0,102.0,170.0,68.0,white,square
0.0,8.0,4.0,1.0,7.0,5.0,1190.4976310033817,2.0,1.0,phase_3,,,,,44.0,1.0,132.0,264.0,220.0,88.0,44.0,176.0,blue,I
0.0,2.0,1.0,0.0,7.0,2.0,1048.382695997134,2.0,1.0,phase_3,,,,,88.0,2.0,176.0,88.0,44.0,132.0,220.0,264.0,magenta,diamond
0.0,6.0,1.0,1.0,7.0,4.0,1079.6107150090393,2.0,1.0,phase_3,,,,,108.0,2.0,162.0,54.0,216.0,108.0,270.0,324.0,cyan,flipped triangle
0.0,1.0,0.5,0.0,7.0,3.0,1218.966989981709,2.0,1.0,phase_3,,,,,132.0,3.0,88.0,176.0,132.0,44.0,220.0,264.0,yellow,triangle
0.0,4.0,4.0,0.0,7.0,6.0,690.3710769838654,2.0,1.0,phase_3,,,,,117.0,3.0,78.0,234.0,156.0,39.0,195.0,117.0,green,hexagon
0.0,1.0,0.5,0.0,7.0,3.0,835.8594389865175,2.0,1.0,phase_3,,,,,54.0,1.0,162.0,270.0,54.0,108.0,324.0,216.0,yellow,triangle
0.0,5.0,0.5,1.0,7.0,2.0,868.738575023599,2.0,1.0,phase_3,,,,,54.0,1.0,108.0,54.0,216.0,162.0,270.0,324.0,orange,circle
0.0,6.0,1.0,1.0,7.0,4.0,399.0931379958056,2.0,1.0,phase_3,,,,,88.0,2.0,44.0,132.0,176.0,88.0,264.0,220.0,cyan,flipped triangle
0.0,7.0,2.0,1.0,7.0,5.0,1047.9508620046545,2.0,1.0,phase_3,,,,,39.0,1.0,117.0,234.0,78.0,156.0,39.0,195.0,white,square
0.0,8.0,4.0,1.0,7.0,4.0,676.7716659815051,3.0,1.0,phase_3,,,,,220.0,5.0,88.0,132.0,44.0,220.0,176.0,264.0,blue,I
0.0,3.0,2.0,0.0,7.0,3.0,805.2712030184921,3.0,1.0,phase_3,,,,,78.0,2.0,39.0,117.0,78.0,234.0,156.0,195.0,gray,cross
0.0,8.0,4.0,1.0,7.0,2.0,621.6681500081904,3.0,1.0,phase_3,,,,,49.0,1.0,98.0,49.0,196.0,147.0,245.0,294.0,blue,I
0.0,6.0,1.0,1.0,7.0,5.0,1609.781147009926,3.0,1.0,phase_3,,,,,108.0,2.0,324.0,54.0,270.0,162.0,108.0,216.0,cyan,flipped triangle
0.0,6.0,1.0,1.0,7.0,5.0,960.3953559999354,3.0,1.0,phase_3,,,,,78.0,2.0,117.0,195.0,156.0,39.0,78.0,234.0,cyan,flipped triangle
0.0,2.0,1.0,0.0,7.0,5.0,1356.8371440051123,3.0,1.0,phase_3,,,,,54.0,1.0,108.0,216.0,162.0,270.0,54.0,324.0,magenta,diamond
0.0,4.0,4.0,0.0,7.0,1.0,1292.0017430151347,3.0,1.0,phase_3,,,,,88.0,2.0,88.0,176.0,264.0,44.0,220.0,132.0,green,hexagon
0.0,6.0,1.0,1.0,7.0,5.0,1741.8261480052024,3.0,1.0,phase_3,,,,,147.0,3.0,49.0,245.0,196.0,98.0,147.0,294.0,cyan,flipped triangle
0.0,6.0,1.0,1.0,7.0,1.0,1257.2626059991308,3.0,1.0,phase_3,,,,,68.0,2.0,68.0,204.0,102.0,34.0,136.0,170.0,cyan,flipped triangle
0.0,5.0,0.5,1.0,7.0,3.0,1202.966838987777,3.0,1.0,phase_3,,,,,78.0,2.0,195.0,117.0,78.0,39.0,234.0,156.0,orange,circle
0.0,3.0,2.0,0.0,7.0,6.0,1240.4918030078989,3.0,1.0,phase_3,,,,,98.0,2.0,49.0,196.0,245.0,147.0,294.0,98.0,gray,cross
0.0,4.0,4.0,0.0,7.0,3.0,1372.7867089910433,3.0,1.0,phase_3,,,,,98.0,2.0,196.0,294.0,98.0,147.0,245.0,49.0,green,hexagon
0.0,8.0,4.0,1.0,7.0,5.0,1187.6789610250853,3.0,1.0,phase_3,,,,,102.0,3.0,204.0,136.0,170.0,34.0,102.0,68.0,blue,I
0.0,1.0,0.5,0.0,7.0,4.0,1640.7081100041978,3.0,1.0,phase_3,,,,,176.0,4.0,88.0,132.0,264.0,176.0,44.0,220.0,yellow,triangle
0.0,6.0,1.0,1.0,7.0,5.0,1118.856921006227,3.0,1.0,phase_3,,,,,220.0,5.0,88.0,264.0,44.0,176.0,220.0,132.0,cyan,flipped triangle
0.0,3.0,2.0,0.0,7.0,5.0,986.701547022676,3.0,1.0,phase_3,,,,,98.0,2.0,294.0,196.0,147.0,49.0,98.0,245.0,gray,cross
0.0,5.0,0.5,1.0,7.0,5.0,1073.0381320172455,3.0,1.0,phase_3,,,,,34.0,1.0,170.0,136.0,204.0,68.0,34.0,102.0,orange,circle
0.0,8.0,4.0,1.0,7.0,2.0,1084.3948450055905,3.0,1.0,phase_3,,,,,68.0,2.0,204.0,68.0,136.0,34.0,170.0,102.0,blue,I
0.0,1.0,0.5,0.0,7.0,2.0,636.4751769870054,3.0,1.0,phase_3,,,,,98.0,2.0,49.0,98.0,147.0,196.0,294.0,245.0,yellow,triangle
0.0,6.0,1.0,1.0,7.0,2.0,1213.9711409981828,3.0,1.0,phase_3,,,,,98.0,2.0,196.0,98.0,147.0,245.0,294.0,49.0,cyan,flipped triangle
0.0,4.0,4.0,0.0,7.0,4.0,880.4163580061868,4.0,1.0,phase_3,,,,,136.0,4.0,68.0,204.0,34.0,136.0,170.0,102.0,green,hexagon
0.0,5.0,0.5,1.0,7.0,3.0,905.4017089947592,4.0,1.0,phase_3,,,,,54.0,1.0,216.0,324.0,54.0,108.0,270.0,162.0,orange,circle
0.0,2.0,1.0,0.0,7.0,3.0,1100.656605005497,4.0,1.0,phase_3,,,,,176.0,4.0,88.0,264.0,176.0,132.0,220.0,44.0,magenta,diamond
0.0,2.0,1.0,0.0,7.0,6.0,1485.0363209843636,4.0,1.0,phase_3,,,,,117.0,3.0,78.0,39.0,195.0,234.0,156.0,117.0,magenta,diamond
0.0,5.0,0.5,1.0,7.0,6.0,995.3818170179148,4.0,1.0,phase_3,,,,,68.0,2.0,136.0,170.0,102.0,204.0,34.0,68.0,orange,circle
0.0,3.0,2.0,0.0,7.0,1.0,1101.0157599812374,4.0,1.0,phase_3,,,,,78.0,2.0,78.0,39.0,156.0,234.0,117.0,195.0,gray,cross
0.0,7.0,2.0,1.0,7.0,5.0,1640.3394440130796,4.0,1.0,phase_3,,,,,39.0,1.0,78.0,117.0,156.0,234.0,39.0,195.0,white,square
0.0,5.0,0.5,1.0,7.0,1.0,922.3745469935238,4.0,1.0,phase_3,,,,,39.0,1.0,39.0,117.0,78.0,195.0,156.0,234.0,orange,circle
0.0,5.0,0.5,1.0,7.0,1.0,1537.5941150123251,4.0,1.0,phase_3,,,,,98.0,2.0,98.0,196.0,49.0,147.0,245.0,294.0,orange,circle
0.0,7.0,2.0,1.0,7.0,6.0,917.4718110007234,4.0,1.0,phase_3,,,,,54.0,1.0,108.0,216.0,270.0,324.0,162.0,54.0,white,square
0.0,8.0,4.0,1.0,7.0,1.0,819.7366660169791,4.0,1.0,phase_3,,,,,49.0,1.0,49.0,196.0,294.0,98.0,245.0,147.0,blue,I
0.0,7.0,2.0,1.0,7.0,5.0,861.7063200217672,4.0,1.0,phase_3,,,,,34.0,1.0,204.0,102.0,68.0,170.0,34.0,136.0,white,square
0.0,1.0,0.5,0.0,7.0,1.0,1186.3600259821396,4.0,1.0,phase_3,,,,,68.0,2.0,68.0,34.0,102.0,170.0,204.0,136.0,yellow,triangle
0.0,4.0,4.0,0.0,7.0,4.0,786.1986019997858,4.0,1.0,phase_3,,,,,294.0,6.0,49.0,98.0,245.0,294.0,147.0,196.0,green,hexagon
0.0,3.0,2.0,0.0,7.0,3.0,900.1564210047945,4.0,1.0,phase_3,,,,,324.0,6.0,216.0,108.0,324.0,54.0,162.0,270.0,gray,cross
0.0,5.0,0.5,1.0,7.0,5.0,874.9947400065139,4.0,1.0,phase_3,,,,,44.0,1.0,176.0,132.0,264.0,220.0,44.0,88.0,orange,circle
0.0,7.0,2.0,1.0,7.0,4.0,1347.537541994825,4.0,1.0,phase_3,,,,,49.0,1.0,294.0,98.0,196.0,49.0,147.0,245.0,white,square
0.0,8.0,4.0,1.0,7.0,2.0,1433.1226559879724,4.0,1.0,phase_3,,,,,108.0,2.0,216.0,108.0,54.0,162.0,324.0,270.0,blue,I
0.0,2.0,1.0,0.0,7.0,6.0,1102.6190939883236,4.0,1.0,phase_3,,,,,136.0,4.0,68.0,102.0,170.0,34.0,204.0,136.0,magenta,diamond
0.0,6.0,1.0,1.0,7.0,1.0,665.2921859931666,4.0,1.0,phase_3,,,,,136.0,4.0,136.0,170.0,102.0,204.0,34.0,68.0,cyan,flipped triangle
