raw_reward_magnitude,stim_reward,stepwise_reward_magnitude,paired_with_stopping,quadrant,response,reaction_time,block,num_trial_presentations,which_part,stop_signal_trial_type,left_SSD,right_SSD,accuracy,chosen_bidding_amount,chosen_bidding_level,possible_bid_1,possible_bid_2,possible_bid_3,possible_bid_4,possible_bid_5,possible_bid_6,color_text,shape_text
102.0,6.0,2.0,1.0,3.0,3.0,407.6902609958779,1.0,1.0,part_1,,,,,,,,,,,,,orange,square
178.0,7.0,3.0,1.0,3.0,3.0,452.6833800191525,1.0,1.0,part_1,,,,,,,,,,,,,gray,flipped triangle
69.0,5.0,1.0,1.0,4.0,4.0,378.9239500183612,1.0,1.0,part_1,,,,,,,,,,,,,white,circle
81.0,2.0,2.0,0.0,1.0,1.0,262.8386610012967,1.0,1.0,part_1,,,,,,,,,,,,,green,cross
113.0,6.0,2.0,1.0,2.0,2.0,241.1113159905653,1.0,1.0,part_1,,,,,,,,,,,,,orange,square
52.0,1.0,1.0,0.0,4.0,4.0,328.937505983049,1.0,1.0,part_1,,,,,,,,,,,,,yellow,hexagon
413.0,4.0,4.0,0.0,1.0,1.0,242.0008369954303,1.0,1.0,part_1,,,,,,,,,,,,,blue,I
184.0,3.0,3.0,0.0,1.0,1.0,249.8832150013186,1.0,1.0,part_1,,,,,,,,,,,,,cyan,triangle
204.0,3.0,3.0,0.0,3.0,3.0,364.5065810123924,1.0,1.0,part_1,,,,,,,,,,,,,cyan,triangle
0.0,4.0,0.0,0.0,3.0,3.0,330.7235579995904,1.0,1.0,part_1,,,,,,,,,,,,,blue,I
84.0,6.0,2.0,1.0,2.0,2.0,255.0247120088897,1.0,1.0,part_1,,,,,,,,,,,,,orange,square
0.0,5.0,0.0,1.0,1.0,1.0,273.7560770183336,1.0,1.0,part_1,,,,,,,,,,,,,white,circle
0.0,1.0,0.0,0.0,1.0,1.0,254.5636120194103,1.0,1.0,part_1,,,,,,,,,,,,,yellow,hexagon
0.0,7.0,0.0,1.0,1.0,1.0,330.5894680088386,1.0,1.0,part_1,,,,,,,,,,,,,gray,flipped triangle
89.0,2.0,2.0,0.0,4.0,4.0,298.5666439926717,1.0,1.0,part_1,,,,,,,,,,,,,green,cross
0.0,7.0,0.0,1.0,3.0,3.0,270.7022469840012,1.0,1.0,part_1,,,,,,,,,,,,,gray,flipped triangle
394.0,4.0,4.0,0.0,1.0,1.0,267.9877000045962,1.0,1.0,part_1,,,,,,,,,,,,,blue,I
203.0,3.0,3.0,0.0,4.0,4.0,281.1843230156228,1.0,1.0,part_1,,,,,,,,,,,,,cyan,triangle
419.0,4.0,4.0,0.0,2.0,2.0,289.9636799993459,1.0,1.0,part_1,,,,,,,,,,,,,blue,I
406.0,8.0,4.0,1.0,4.0,4.0,281.3579229987226,1.0,1.0,part_1,,,,,,,,,,,,,magenta,diamond
415.0,8.0,4.0,1.0,3.0,3.0,277.3173250025138,1.0,1.0,part_1,,,,,,,,,,,,,magenta,diamond
41.0,1.0,1.0,0.0,3.0,3.0,264.2094070033636,1.0,1.0,part_1,,,,,,,,,,,,,yellow,hexagon
52.0,1.0,1.0,0.0,1.0,1.0,292.81148899463,1.0,1.0,part_1,,,,,,,,,,,,,yellow,hexagon
414.0,4.0,4.0,0.0,2.0,2.0,268.932370992843,1.0,1.0,part_1,,,,,,,,,,,,,blue,I
0.0,3.0,0.0,0.0,4.0,4.0,264.3623279873281,1.0,1.0,part_1,,,,,,,,,,,,,cyan,triangle
179.0,3.0,3.0,0.0,4.0,4.0,268.1450189847965,1.0,1.0,part_1,,,,,,,,,,,,,cyan,triangle
56.0,5.0,1.0,1.0,2.0,2.0,272.8666400071233,1.0,1.0,part_1,,,,,,,,,,,,,white,circle
37.0,5.0,1.0,1.0,4.0,4.0,270.5980949976947,1.0,1.0,part_1,,,,,,,,,,,,,white,circle
0.0,5.0,0.0,1.0,4.0,4.0,264.6846080024261,1.0,1.0,part_1,,,,,,,,,,,,,white,circle
85.0,6.0,2.0,1.0,3.0,3.0,261.5380310162436,1.0,1.0,part_1,,,,,,,,,,,,,orange,square
0.0,1.0,0.0,0.0,2.0,2.0,258.4973509947303,1.0,1.0,part_1,,,,,,,,,,,,,yellow,hexagon
188.0,3.0,3.0,0.0,2.0,2.0,286.75430000294,1.0,1.0,part_1,,,,,,,,,,,,,cyan,triangle
0.0,3.0,0.0,0.0,3.0,3.0,254.5048310130369,1.0,1.0,part_1,,,,,,,,,,,,,cyan,triangle
27.0,1.0,1.0,0.0,1.0,1.0,248.4785149863455,1.0,1.0,part_1,,,,,,,,,,,,,yellow,hexagon
30.0,1.0,1.0,0.0,3.0,3.0,285.8293180179316,1.0,1.0,part_1,,,,,,,,,,,,,yellow,hexagon
89.0,6.0,2.0,1.0,2.0,2.0,250.06343398126768,1.0,1.0,part_1,,,,,,,,,,,,,orange,square
0.0,4.0,0.0,0.0,1.0,1.0,261.846028995933,1.0,1.0,part_1,,,,,,,,,,,,,blue,I
84.0,2.0,2.0,0.0,4.0,4.0,253.1197860080283,1.0,1.0,part_1,,,,,,,,,,,,,green,cross
49.0,1.0,1.0,0.0,1.0,1.0,288.0844660103321,1.0,1.0,part_1,,,,,,,,,,,,,yellow,hexagon
394.0,4.0,4.0,0.0,4.0,4.0,268.8646789756603,1.0,1.0,part_1,,,,,,,,,,,,,blue,I
213.0,3.0,3.0,0.0,4.0,4.0,257.387914985884,1.0,1.0,part_1,,,,,,,,,,,,,cyan,triangle
37.0,1.0,1.0,0.0,4.0,4.0,264.6765440003946,1.0,1.0,part_1,,,,,,,,,,,,,yellow,hexagon
0.0,2.0,0.0,0.0,4.0,4.0,262.0525280071888,1.0,1.0,part_1,,,,,,,,,,,,,green,cross
195.0,3.0,3.0,0.0,4.0,4.0,249.1463500191457,1.0,1.0,part_1,,,,,,,,,,,,,cyan,triangle
40.0,5.0,1.0,1.0,1.0,1.0,276.4659749809652,1.0,1.0,part_1,,,,,,,,,,,,,white,circle
0.0,4.0,0.0,0.0,1.0,1.0,355.8528180001303,1.0,1.0,part_1,,,,,,,,,,,,,blue,I
0.0,2.0,0.0,0.0,2.0,2.0,285.8248940028716,1.0,1.0,part_1,,,,,,,,,,,,,green,cross
110.0,2.0,2.0,0.0,4.0,4.0,260.2102700038813,1.0,1.0,part_1,,,,,,,,,,,,,green,cross
394.0,8.0,4.0,1.0,4.0,4.0,241.5673110226635,1.0,1.0,part_1,,,,,,,,,,,,,magenta,diamond
406.0,8.0,4.0,1.0,2.0,2.0,300.289225007873,1.0,1.0,part_1,,,,,,,,,,,,,magenta,diamond
0.0,1.0,0.0,0.0,2.0,2.0,248.5007390205282,1.0,1.0,part_1,,,,,,,,,,,,,yellow,hexagon
223.0,3.0,3.0,0.0,4.0,4.0,256.4248779963236,1.0,1.0,part_1,,,,,,,,,,,,,cyan,triangle
72.0,1.0,1.0,0.0,4.0,4.0,289.4539989938494,1.0,1.0,part_1,,,,,,,,,,,,,yellow,hexagon
382.0,4.0,4.0,0.0,3.0,3.0,281.2505140027497,1.0,1.0,part_1,,,,,,,,,,,,,blue,I
0.0,8.0,0.0,1.0,1.0,1.0,277.4688900099136,1.0,1.0,part_1,,,,,,,,,,,,,magenta,diamond
0.0,7.0,0.0,1.0,3.0,3.0,281.1475089984014,1.0,1.0,part_1,,,,,,,,,,,,,gray,flipped triangle
197.0,3.0,3.0,0.0,3.0,3.0,255.19340499886312,1.0,1.0,part_1,,,,,,,,,,,,,cyan,triangle
89.0,6.0,2.0,1.0,1.0,1.0,242.4552960146684,1.0,1.0,part_1,,,,,,,,,,,,,orange,square
59.0,5.0,1.0,1.0,3.0,3.0,229.4439029938075,1.0,1.0,part_1,,,,,,,,,,,,,white,circle
110.0,6.0,2.0,1.0,4.0,4.0,290.8648869779426,1.0,1.0,part_1,,,,,,,,,,,,,orange,square
114.0,2.0,2.0,0.0,2.0,2.0,234.0240360063035,1.0,1.0,part_1,,,,,,,,,,,,,green,cross
123.0,6.0,2.0,1.0,3.0,3.0,275.3092189959716,1.0,1.0,part_1,,,,,,,,,,,,,orange,square
183.0,7.0,3.0,1.0,3.0,3.0,271.8655630014837,1.0,1.0,part_1,,,,,,,,,,,,,gray,flipped triangle
0.0,5.0,0.0,1.0,4.0,4.0,253.4837250132113,1.0,1.0,part_1,,,,,,,,,,,,,white,circle
394.0,8.0,4.0,1.0,1.0,1.0,266.2821809935849,1.0,1.0,part_1,,,,,,,,,,,,,magenta,diamond
41.0,5.0,1.0,1.0,1.0,1.0,250.7592830224894,1.0,1.0,part_1,,,,,,,,,,,,,white,circle
53.0,5.0,1.0,1.0,3.0,3.0,269.5366489933803,1.0,1.0,part_1,,,,,,,,,,,,,white,circle
52.0,5.0,1.0,1.0,1.0,1.0,242.4871709954459,1.0,1.0,part_1,,,,,,,,,,,,,white,circle
195.0,7.0,3.0,1.0,1.0,1.0,293.8632530276663,1.0,1.0,part_1,,,,,,,,,,,,,gray,flipped triangle
84.0,2.0,2.0,0.0,3.0,3.0,281.649301003199,1.0,1.0,part_1,,,,,,,,,,,,,green,cross
0.0,6.0,0.0,1.0,3.0,3.0,269.36961201136,1.0,1.0,part_1,,,,,,,,,,,,,orange,square
26.0,5.0,1.0,1.0,2.0,2.0,301.4648350072093,1.0,1.0,part_1,,,,,,,,,,,,,white,circle
218.0,3.0,3.0,0.0,1.0,1.0,290.0259850139264,1.0,1.0,part_1,,,,,,,,,,,,,cyan,triangle
400.0,4.0,4.0,0.0,3.0,3.0,254.3095889850519,1.0,1.0,part_1,,,,,,,,,,,,,blue,I
60.0,5.0,1.0,1.0,4.0,4.0,281.2479019921738,1.0,1.0,part_1,,,,,,,,,,,,,white,circle
203.0,3.0,3.0,0.0,2.0,2.0,285.7488789886702,1.0,1.0,part_1,,,,,,,,,,,,,cyan,triangle
38.0,5.0,1.0,1.0,4.0,4.0,290.1907390041742,1.0,1.0,part_1,,,,,,,,,,,,,white,circle
212.0,7.0,3.0,1.0,4.0,4.0,273.8519179983996,1.0,1.0,part_1,,,,,,,,,,,,,gray,flipped triangle
62.0,5.0,1.0,1.0,2.0,2.0,266.5036190010141,1.0,1.0,part_1,,,,,,,,,,,,,white,circle
207.0,3.0,3.0,0.0,2.0,2.0,257.787056005327,1.0,1.0,part_1,,,,,,,,,,,,,cyan,triangle
398.0,8.0,4.0,1.0,4.0,4.0,261.7782379966229,1.0,1.0,part_1,,,,,,,,,,,,,magenta,diamond
0.0,4.0,0.0,0.0,1.0,1.0,297.8058120061178,1.0,1.0,part_1,,,,,,,,,,,,,blue,I
179.0,7.0,3.0,1.0,4.0,4.0,262.3874830023851,1.0,1.0,part_1,,,,,,,,,,,,,gray,flipped triangle
96.0,2.0,2.0,0.0,2.0,2.0,286.130040010903,1.0,1.0,part_1,,,,,,,,,,,,,green,cross
210.0,3.0,3.0,0.0,3.0,3.0,295.3532770043239,1.0,1.0,part_1,,,,,,,,,,,,,cyan,triangle
220.0,3.0,3.0,0.0,3.0,3.0,317.6253239798825,1.0,1.0,part_1,,,,,,,,,,,,,cyan,triangle
26.0,1.0,1.0,0.0,2.0,2.0,273.1623159779701,1.0,1.0,part_1,,,,,,,,,,,,,yellow,hexagon
41.0,1.0,1.0,0.0,4.0,4.0,237.9938459780533,1.0,1.0,part_1,,,,,,,,,,,,,yellow,hexagon
415.0,4.0,4.0,0.0,3.0,3.0,306.0195310099516,1.0,1.0,part_1,,,,,,,,,,,,,blue,I
176.0,3.0,3.0,0.0,3.0,3.0,295.9646540111862,1.0,1.0,part_1,,,,,,,,,,,,,cyan,triangle
0.0,6.0,0.0,1.0,2.0,2.0,238.2245179906021,1.0,1.0,part_1,,,,,,,,,,,,,orange,square
412.0,4.0,4.0,0.0,4.0,4.0,240.8986510126851,1.0,1.0,part_1,,,,,,,,,,,,,blue,I
67.0,5.0,1.0,1.0,4.0,4.0,262.329900986515,1.0,1.0,part_1,,,,,,,,,,,,,white,circle
0.0,8.0,0.0,1.0,1.0,1.0,281.7051419988274,1.0,1.0,part_1,,,,,,,,,,,,,magenta,diamond
71.0,1.0,1.0,0.0,2.0,2.0,286.1509040230885,1.0,1.0,part_1,,,,,,,,,,,,,yellow,hexagon
406.0,8.0,4.0,1.0,2.0,2.0,275.9779719926882,1.0,1.0,part_1,,,,,,,,,,,,,magenta,diamond
27.0,5.0,1.0,1.0,2.0,2.0,250.00519101740792,1.0,1.0,part_1,,,,,,,,,,,,,white,circle
194.0,7.0,3.0,1.0,4.0,4.0,287.8000609925948,1.0,1.0,part_1,,,,,,,,,,,,,gray,flipped triangle
28.0,1.0,1.0,0.0,3.0,3.0,306.5934710029978,1.0,1.0,part_1,,,,,,,,,,,,,yellow,hexagon
0.0,6.0,0.0,1.0,1.0,1.0,256.7751969909295,1.0,1.0,part_1,,,,,,,,,,,,,orange,square
73.0,1.0,1.0,0.0,1.0,1.0,357.3985980183352,2.0,1.0,part_1,,,,,,,,,,,,,yellow,hexagon
424.0,4.0,4.0,0.0,2.0,2.0,284.4975689949933,2.0,1.0,part_1,,,,,,,,,,,,,blue,I
400.0,8.0,4.0,1.0,3.0,3.0,271.8815880070906,2.0,1.0,part_1,,,,,,,,,,,,,magenta,diamond
382.0,4.0,4.0,0.0,1.0,1.0,260.8557530038524,2.0,1.0,part_1,,,,,,,,,,,,,blue,I
0.0,7.0,0.0,1.0,2.0,2.0,280.6130120006855,2.0,1.0,part_1,,,,,,,,,,,,,gray,flipped triangle
0.0,2.0,0.0,0.0,2.0,2.0,276.8205809989013,2.0,1.0,part_1,,,,,,,,,,,,,green,cross
204.0,7.0,3.0,1.0,1.0,1.0,249.474227981409,2.0,1.0,part_1,,,,,,,,,,,,,gray,flipped triangle
0.0,2.0,0.0,0.0,3.0,3.0,281.4972019987181,2.0,1.0,part_1,,,,,,,,,,,,,green,cross
30.0,5.0,1.0,1.0,3.0,3.0,284.8968580074142,2.0,1.0,part_1,,,,,,,,,,,,,white,circle
203.0,7.0,3.0,1.0,4.0,4.0,264.5998730149586,2.0,1.0,part_1,,,,,,,,,,,,,gray,flipped triangle
41.0,5.0,1.0,1.0,2.0,2.0,236.8497069983277,2.0,1.0,part_1,,,,,,,,,,,,,white,circle
0.0,8.0,0.0,1.0,4.0,4.0,330.4260970035102,2.0,1.0,part_1,,,,,,,,,,,,,magenta,diamond
60.0,1.0,1.0,0.0,4.0,4.0,248.2991129800211,2.0,1.0,part_1,,,,,,,,,,,,,yellow,hexagon
0.0,8.0,0.0,1.0,2.0,2.0,234.5165440056007,2.0,1.0,part_1,,,,,,,,,,,,,magenta,diamond
85.0,2.0,2.0,0.0,2.0,2.0,258.049246011069,2.0,1.0,part_1,,,,,,,,,,,,,green,cross
0.0,6.0,0.0,1.0,1.0,1.0,252.77036300394678,2.0,1.0,part_1,,,,,,,,,,,,,orange,square
0.0,1.0,0.0,0.0,2.0,2.0,265.1565480045974,2.0,1.0,part_1,,,,,,,,,,,,,yellow,hexagon
28.0,5.0,1.0,1.0,1.0,1.0,277.1369880065322,2.0,1.0,part_1,,,,,,,,,,,,,white,circle
0.0,7.0,0.0,1.0,4.0,4.0,245.729575981386,2.0,1.0,part_1,,,,,,,,,,,,,gray,flipped triangle
386.0,4.0,4.0,0.0,2.0,2.0,281.7933780024759,2.0,1.0,part_1,,,,,,,,,,,,,blue,I
424.0,8.0,4.0,1.0,3.0,3.0,286.0204970056657,2.0,1.0,part_1,,,,,,,,,,,,,magenta,diamond
0.0,1.0,0.0,0.0,2.0,2.0,282.6616349921096,2.0,1.0,part_1,,,,,,,,,,,,,yellow,hexagon
0.0,1.0,0.0,0.0,2.0,2.0,253.0384480196517,2.0,1.0,part_1,,,,,,,,,,,,,yellow,hexagon
79.0,2.0,2.0,0.0,2.0,2.0,282.5808119960129,2.0,1.0,part_1,,,,,,,,,,,,,green,cross
419.0,8.0,4.0,1.0,1.0,1.0,265.6363050045911,2.0,1.0,part_1,,,,,,,,,,,,,magenta,diamond
117.0,2.0,2.0,0.0,4.0,4.0,278.5807389882393,2.0,1.0,part_1,,,,,,,,,,,,,green,cross
192.0,3.0,3.0,0.0,2.0,2.0,265.4956520127598,2.0,1.0,part_1,,,,,,,,,,,,,cyan,triangle
72.0,5.0,1.0,1.0,3.0,3.0,279.2632819910068,2.0,1.0,part_1,,,,,,,,,,,,,white,circle
398.0,4.0,4.0,0.0,3.0,3.0,282.0258559950162,2.0,1.0,part_1,,,,,,,,,,,,,blue,I
192.0,7.0,3.0,1.0,2.0,2.0,261.7607149877585,2.0,1.0,part_1,,,,,,,,,,,,,gray,flipped triangle
0.0,3.0,0.0,0.0,4.0,4.0,268.5686130134854,2.0,1.0,part_1,,,,,,,,,,,,,cyan,triangle
409.0,4.0,4.0,0.0,1.0,1.0,314.9061550211627,2.0,1.0,part_1,,,,,,,,,,,,,blue,I
98.0,6.0,2.0,1.0,3.0,3.0,268.7752909841947,2.0,1.0,part_1,,,,,,,,,,,,,orange,square
177.0,7.0,3.0,1.0,1.0,1.0,281.0608360159676,2.0,1.0,part_1,,,,,,,,,,,,,gray,flipped triangle
81.0,2.0,2.0,0.0,1.0,1.0,327.4531369970646,2.0,1.0,part_1,,,,,,,,,,,,,green,cross
115.0,6.0,2.0,1.0,1.0,1.0,261.3685470132623,2.0,1.0,part_1,,,,,,,,,,,,,orange,square
74.0,1.0,1.0,0.0,2.0,2.0,249.4085769867524,2.0,1.0,part_1,,,,,,,,,,,,,yellow,hexagon
56.0,1.0,1.0,0.0,4.0,4.0,268.4753799985628,2.0,1.0,part_1,,,,,,,,,,,,,yellow,hexagon
0.0,7.0,0.0,1.0,4.0,4.0,313.4882590093184,2.0,1.0,part_1,,,,,,,,,,,,,gray,flipped triangle
0.0,8.0,0.0,1.0,3.0,3.0,302.8036399919074,2.0,1.0,part_1,,,,,,,,,,,,,magenta,diamond
208.0,3.0,3.0,0.0,1.0,1.0,273.3613309974316,2.0,1.0,part_1,,,,,,,,,,,,,cyan,triangle
392.0,4.0,4.0,0.0,1.0,1.0,305.7332949829288,2.0,1.0,part_1,,,,,,,,,,,,,blue,I
115.0,2.0,2.0,0.0,1.0,1.0,298.7429320055526,2.0,1.0,part_1,,,,,,,,,,,,,green,cross
98.0,6.0,2.0,1.0,1.0,1.0,273.7676639808342,2.0,1.0,part_1,,,,,,,,,,,,,orange,square
0.0,2.0,0.0,0.0,3.0,3.0,308.7440310046077,2.0,1.0,part_1,,,,,,,,,,,,,green,cross
221.0,7.0,3.0,1.0,3.0,3.0,313.1696509954054,2.0,1.0,part_1,,,,,,,,,,,,,gray,flipped triangle
123.0,2.0,2.0,0.0,2.0,2.0,302.0976560073904,2.0,1.0,part_1,,,,,,,,,,,,,green,cross
79.0,6.0,2.0,1.0,2.0,2.0,261.7147010168992,2.0,1.0,part_1,,,,,,,,,,,,,orange,square
107.0,2.0,2.0,0.0,2.0,2.0,322.4968569993507,2.0,1.0,part_1,,,,,,,,,,,,,green,cross
62.0,1.0,1.0,0.0,3.0,3.0,326.1993560008704,2.0,1.0,part_1,,,,,,,,,,,,,yellow,hexagon
41.0,5.0,1.0,1.0,4.0,4.0,338.1675760028884,2.0,1.0,part_1,,,,,,,,,,,,,white,circle
89.0,2.0,2.0,0.0,1.0,1.0,261.3624589866958,2.0,1.0,part_1,,,,,,,,,,,,,green,cross
217.0,3.0,3.0,0.0,1.0,1.0,260.7439720013644,2.0,1.0,part_1,,,,,,,,,,,,,cyan,triangle
0.0,3.0,0.0,0.0,1.0,1.0,285.9863289922941,2.0,1.0,part_1,,,,,,,,,,,,,cyan,triangle
212.0,3.0,3.0,0.0,2.0,2.0,314.3314349872526,2.0,1.0,part_1,,,,,,,,,,,,,cyan,triangle
393.0,4.0,4.0,0.0,4.0,4.0,287.9549070203211,2.0,1.0,part_1,,,,,,,,,,,,,blue,I
0.0,1.0,0.0,0.0,4.0,4.0,268.4703319973778,2.0,1.0,part_1,,,,,,,,,,,,,yellow,hexagon
398.0,8.0,4.0,1.0,2.0,2.0,281.5771410241723,2.0,1.0,part_1,,,,,,,,,,,,,magenta,diamond
63.0,5.0,1.0,1.0,2.0,2.0,285.7257969735656,2.0,1.0,part_1,,,,,,,,,,,,,white,circle
54.0,1.0,1.0,0.0,1.0,1.0,282.1570680243894,2.0,1.0,part_1,,,,,,,,,,,,,yellow,hexagon
394.0,4.0,4.0,0.0,4.0,4.0,255.7471139880363,2.0,1.0,part_1,,,,,,,,,,,,,blue,I
422.0,4.0,4.0,0.0,2.0,2.0,252.7528479986358,2.0,1.0,part_1,,,,,,,,,,,,,blue,I
177.0,7.0,3.0,1.0,3.0,3.0,283.8805180217605,2.0,1.0,part_1,,,,,,,,,,,,,gray,flipped triangle
0.0,7.0,0.0,1.0,3.0,3.0,317.8785259951837,2.0,1.0,part_1,,,,,,,,,,,,,gray,flipped triangle
0.0,8.0,0.0,1.0,2.0,2.0,281.8749280122574,2.0,1.0,part_1,,,,,,,,,,,,,magenta,diamond
101.0,6.0,2.0,1.0,3.0,3.0,294.5229810138698,2.0,1.0,part_1,,,,,,,,,,,,,orange,square
71.0,5.0,1.0,1.0,4.0,4.0,294.4026559998747,2.0,1.0,part_1,,,,,,,,,,,,,white,circle
187.0,7.0,3.0,1.0,4.0,4.0,257.3242770158686,2.0,1.0,part_1,,,,,,,,,,,,,gray,flipped triangle
30.0,5.0,1.0,1.0,3.0,3.0,276.9017950049601,2.0,1.0,part_1,,,,,,,,,,,,,white,circle
209.0,7.0,3.0,1.0,4.0,4.0,273.6465409980155,2.0,1.0,part_1,,,,,,,,,,,,,gray,flipped triangle
0.0,8.0,0.0,1.0,4.0,4.0,277.856228989549,2.0,1.0,part_1,,,,,,,,,,,,,magenta,diamond
0.0,4.0,0.0,0.0,4.0,4.0,269.5208799850661,2.0,1.0,part_1,,,,,,,,,,,,,blue,I
56.0,1.0,1.0,0.0,3.0,3.0,297.3966289719101,2.0,1.0,part_1,,,,,,,,,,,,,yellow,hexagon
47.0,5.0,1.0,1.0,1.0,1.0,367.4035310104955,2.0,1.0,part_1,,,,,,,,,,,,,white,circle
393.0,8.0,4.0,1.0,1.0,1.0,298.8392709812615,2.0,1.0,part_1,,,,,,,,,,,,,magenta,diamond
220.0,7.0,3.0,1.0,3.0,3.0,311.1897259950638,2.0,1.0,part_1,,,,,,,,,,,,,gray,flipped triangle
63.0,1.0,1.0,0.0,4.0,4.0,261.5331310080364,2.0,1.0,part_1,,,,,,,,,,,,,yellow,hexagon
0.0,6.0,0.0,1.0,4.0,4.0,265.5175359977875,2.0,1.0,part_1,,,,,,,,,,,,,orange,square
406.0,4.0,4.0,0.0,1.0,1.0,310.0406209996436,2.0,1.0,part_1,,,,,,,,,,,,,blue,I
49.0,5.0,1.0,1.0,2.0,2.0,263.9553729968611,2.0,1.0,part_1,,,,,,,,,,,,,white,circle
110.0,6.0,2.0,1.0,1.0,1.0,268.5528039874043,2.0,1.0,part_1,,,,,,,,,,,,,orange,square
0.0,5.0,0.0,1.0,3.0,3.0,283.7949650129303,2.0,1.0,part_1,,,,,,,,,,,,,white,circle
389.0,8.0,4.0,1.0,2.0,2.0,281.6485129878856,2.0,1.0,part_1,,,,,,,,,,,,,magenta,diamond
39.0,5.0,1.0,1.0,4.0,4.0,268.2553430204279,2.0,1.0,part_1,,,,,,,,,,,,,white,circle
28.0,5.0,1.0,1.0,1.0,1.0,281.3271099876147,2.0,1.0,part_1,,,,,,,,,,,,,white,circle
0.0,8.0,0.0,1.0,4.0,4.0,284.1954190225806,2.0,1.0,part_1,,,,,,,,,,,,,magenta,diamond
0.0,3.0,0.0,0.0,1.0,1.0,256.7770809982903,2.0,1.0,part_1,,,,,,,,,,,,,cyan,triangle
208.0,7.0,3.0,1.0,3.0,3.0,293.2010830263607,2.0,1.0,part_1,,,,,,,,,,,,,gray,flipped triangle
392.0,8.0,4.0,1.0,1.0,1.0,252.1938479912933,2.0,1.0,part_1,,,,,,,,,,,,,magenta,diamond
81.0,6.0,2.0,1.0,4.0,4.0,263.5113809956237,2.0,1.0,part_1,,,,,,,,,,,,,orange,square
181.0,7.0,3.0,1.0,1.0,1.0,294.8587639839388,2.0,1.0,part_1,,,,,,,,,,,,,gray,flipped triangle
211.0,3.0,3.0,0.0,2.0,2.0,274.3528559803962,2.0,1.0,part_1,,,,,,,,,,,,,cyan,triangle
53.0,1.0,1.0,0.0,3.0,3.0,310.0300270016305,2.0,1.0,part_1,,,,,,,,,,,,,yellow,hexagon
205.0,7.0,3.0,1.0,2.0,2.0,346.0027749824803,2.0,1.0,part_1,,,,,,,,,,,,,gray,flipped triangle
195.0,7.0,3.0,1.0,4.0,4.0,256.8128439888824,2.0,1.0,part_1,,,,,,,,,,,,,gray,flipped triangle
204.0,3.0,3.0,0.0,1.0,1.0,236.7512609926052,2.0,1.0,part_1,,,,,,,,,,,,,cyan,triangle
192.0,3.0,3.0,0.0,3.0,3.0,282.5719839893281,2.0,1.0,part_1,,,,,,,,,,,,,cyan,triangle
401.0,4.0,4.0,0.0,4.0,4.0,228.8919739949051,2.0,1.0,part_1,,,,,,,,,,,,,blue,I
415.0,8.0,4.0,1.0,2.0,2.0,240.7197619904764,2.0,1.0,part_1,,,,,,,,,,,,,magenta,diamond
107.0,6.0,2.0,1.0,1.0,1.0,224.9050689861178,2.0,1.0,part_1,,,,,,,,,,,,,orange,square
0.0,5.0,0.0,1.0,3.0,3.0,470.2471900091041,3.0,1.0,part_1,,,,,,,,,,,,,white,circle
212.0,7.0,3.0,1.0,4.0,4.0,290.2792670065537,3.0,1.0,part_1,,,,,,,,,,,,,gray,flipped triangle
386.0,8.0,4.0,1.0,2.0,2.0,256.2473740254063,3.0,1.0,part_1,,,,,,,,,,,,,magenta,diamond
52.0,5.0,1.0,1.0,4.0,4.0,263.086151011521,3.0,1.0,part_1,,,,,,,,,,,,,white,circle
0.0,7.0,0.0,1.0,3.0,3.0,280.9510419901926,3.0,1.0,part_1,,,,,,,,,,,,,gray,flipped triangle
405.0,8.0,4.0,1.0,3.0,3.0,271.9505069835577,3.0,1.0,part_1,,,,,,,,,,,,,magenta,diamond
113.0,2.0,2.0,0.0,3.0,3.0,273.7171789922286,3.0,1.0,part_1,,,,,,,,,,,,,green,cross
50.0,5.0,1.0,1.0,3.0,3.0,269.8816570045892,3.0,1.0,part_1,,,,,,,,,,,,,white,circle
0.0,4.0,0.0,0.0,1.0,1.0,317.9754120064899,3.0,1.0,part_1,,,,,,,,,,,,,blue,I
0.0,2.0,0.0,0.0,2.0,2.0,249.9820190132595,3.0,1.0,part_1,,,,,,,,,,,,,green,cross
393.0,4.0,4.0,0.0,4.0,4.0,343.3027950231917,3.0,1.0,part_1,,,,,,,,,,,,,blue,I
377.0,4.0,4.0,0.0,2.0,2.0,265.5730709957424,3.0,1.0,part_1,,,,,,,,,,,,,blue,I
394.0,8.0,4.0,1.0,4.0,4.0,241.6453760233707,3.0,1.0,part_1,,,,,,,,,,,,,magenta,diamond
74.0,5.0,1.0,1.0,1.0,1.0,270.262111996999,3.0,1.0,part_1,,,,,,,,,,,,,white,circle
44.0,1.0,1.0,0.0,4.0,4.0,265.5724769865628,3.0,1.0,part_1,,,,,,,,,,,,,yellow,hexagon
125.0,6.0,2.0,1.0,3.0,3.0,300.6346710026264,3.0,1.0,part_1,,,,,,,,,,,,,orange,square
385.0,4.0,4.0,0.0,3.0,3.0,282.9332140099723,3.0,1.0,part_1,,,,,,,,,,,,,blue,I
393.0,8.0,4.0,1.0,4.0,4.0,286.1915499961469,3.0,1.0,part_1,,,,,,,,,,,,,magenta,diamond
47.0,1.0,1.0,0.0,1.0,1.0,269.6401510038413,3.0,1.0,part_1,,,,,,,,,,,,,yellow,hexagon
110.0,2.0,2.0,0.0,1.0,1.0,286.6720189922489,3.0,1.0,part_1,,,,,,,,,,,,,green,cross
38.0,1.0,1.0,0.0,2.0,2.0,243.8267059915233,3.0,1.0,part_1,,,,,,,,,,,,,yellow,hexagon
406.0,4.0,4.0,0.0,4.0,4.0,239.6631480078213,3.0,1.0,part_1,,,,,,,,,,,,,blue,I
110.0,2.0,2.0,0.0,3.0,3.0,252.5272140046581,3.0,1.0,part_1,,,,,,,,,,,,,green,cross
110.0,6.0,2.0,1.0,4.0,4.0,244.6344849886372,3.0,1.0,part_1,,,,,,,,,,,,,orange,square
419.0,4.0,4.0,0.0,2.0,2.0,264.1087530064396,3.0,1.0,part_1,,,,,,,,,,,,,blue,I
41.0,1.0,1.0,0.0,3.0,3.0,308.6208259919658,3.0,1.0,part_1,,,,,,,,,,,,,yellow,hexagon
94.0,2.0,2.0,0.0,3.0,3.0,272.7368979831226,3.0,1.0,part_1,,,,,,,,,,,,,green,cross
0.0,4.0,0.0,0.0,1.0,1.0,252.71707700449042,3.0,1.0,part_1,,,,,,,,,,,,,blue,I
25.0,1.0,1.0,0.0,2.0,2.0,232.32174600707359,3.0,1.0,part_1,,,,,,,,,,,,,yellow,hexagon
396.0,4.0,4.0,0.0,2.0,2.0,263.4036279923748,3.0,1.0,part_1,,,,,,,,,,,,,blue,I
79.0,6.0,2.0,1.0,1.0,1.0,277.2230409900658,3.0,1.0,part_1,,,,,,,,,,,,,orange,square
220.0,3.0,3.0,0.0,1.0,1.0,270.561548997648,3.0,1.0,part_1,,,,,,,,,,,,,cyan,triangle
423.0,4.0,4.0,0.0,2.0,2.0,245.4670669976622,3.0,1.0,part_1,,,,,,,,,,,,,blue,I
121.0,6.0,2.0,1.0,3.0,3.0,290.5614979972597,3.0,1.0,part_1,,,,,,,,,,,,,orange,square
0.0,1.0,0.0,0.0,2.0,2.0,256.5006680088117,3.0,1.0,part_1,,,,,,,,,,,,,yellow,hexagon
410.0,4.0,4.0,0.0,3.0,3.0,309.5176630013156,3.0,1.0,part_1,,,,,,,,,,,,,blue,I
44.0,1.0,1.0,0.0,1.0,1.0,286.9195070234127,3.0,1.0,part_1,,,,,,,,,,,,,yellow,hexagon
0.0,2.0,0.0,0.0,3.0,3.0,277.1128549939021,3.0,1.0,part_1,,,,,,,,,,,,,green,cross
69.0,1.0,1.0,0.0,1.0,1.0,288.9273179753218,3.0,1.0,part_1,,,,,,,,,,,,,yellow,hexagon
385.0,4.0,4.0,0.0,4.0,4.0,268.6201969918329,3.0,1.0,part_1,,,,,,,,,,,,,blue,I
0.0,4.0,0.0,0.0,4.0,4.0,299.2305199732072,3.0,1.0,part_1,,,,,,,,,,,,,blue,I
0.0,5.0,0.0,1.0,4.0,4.0,301.5438260044902,3.0,1.0,part_1,,,,,,,,,,,,,white,circle
201.0,3.0,3.0,0.0,4.0,4.0,278.6551220051478,3.0,1.0,part_1,,,,,,,,,,,,,cyan,triangle
78.0,2.0,2.0,0.0,2.0,2.0,247.7597950201016,3.0,1.0,part_1,,,,,,,,,,,,,green,cross
56.0,5.0,1.0,1.0,3.0,3.0,244.0541289979592,3.0,1.0,part_1,,,,,,,,,,,,,white,circle
61.0,5.0,1.0,1.0,1.0,1.0,239.9768260074779,3.0,1.0,part_1,,,,,,,,,,,,,white,circle
0.0,8.0,0.0,1.0,3.0,3.0,248.7000190012622,3.0,1.0,part_1,,,,,,,,,,,,,magenta,diamond
209.0,7.0,3.0,1.0,2.0,2.0,233.3365670056082,3.0,1.0,part_1,,,,,,,,,,,,,gray,flipped triangle
419.0,8.0,4.0,1.0,2.0,2.0,272.288167005172,3.0,1.0,part_1,,,,,,,,,,,,,magenta,diamond
59.0,1.0,1.0,0.0,4.0,4.0,235.5820759839844,3.0,1.0,part_1,,,,,,,,,,,,,yellow,hexagon
89.0,6.0,2.0,1.0,1.0,1.0,279.9166420008987,3.0,1.0,part_1,,,,,,,,,,,,,orange,square
422.0,8.0,4.0,1.0,3.0,3.0,236.2448909843806,3.0,1.0,part_1,,,,,,,,,,,,,magenta,diamond
98.0,6.0,2.0,1.0,2.0,2.0,228.7400869827252,3.0,1.0,part_1,,,,,,,,,,,,,orange,square
423.0,8.0,4.0,1.0,3.0,3.0,280.6770310271531,3.0,1.0,part_1,,,,,,,,,,,,,magenta,diamond
187.0,3.0,3.0,0.0,4.0,4.0,284.86049597267987,3.0,1.0,part_1,,,,,,,,,,,,,cyan,triangle
0.0,3.0,0.0,0.0,4.0,4.0,331.3497149792965,3.0,1.0,part_1,,,,,,,,,,,,,cyan,triangle
39.0,5.0,1.0,1.0,1.0,1.0,292.9328019963577,3.0,1.0,part_1,,,,,,,,,,,,,white,circle
72.0,1.0,1.0,0.0,2.0,2.0,241.2976229970809,3.0,1.0,part_1,,,,,,,,,,,,,yellow,hexagon
182.0,7.0,3.0,1.0,2.0,2.0,288.6393779772334,3.0,1.0,part_1,,,,,,,,,,,,,gray,flipped triangle
110.0,6.0,2.0,1.0,4.0,4.0,252.0447830029297,3.0,1.0,part_1,,,,,,,,,,,,,orange,square
0.0,6.0,0.0,1.0,3.0,3.0,319.5781319809612,3.0,1.0,part_1,,,,,,,,,,,,,orange,square
81.0,6.0,2.0,1.0,3.0,3.0,279.0595540136564,3.0,1.0,part_1,,,,,,,,,,,,,orange,square
69.0,5.0,1.0,1.0,3.0,3.0,297.645268990891,3.0,1.0,part_1,,,,,,,,,,,,,white,circle
0.0,3.0,0.0,0.0,4.0,4.0,277.3693219933193,3.0,1.0,part_1,,,,,,,,,,,,,cyan,triangle
412.0,8.0,4.0,1.0,1.0,1.0,290.2846100041643,3.0,1.0,part_1,,,,,,,,,,,,,magenta,diamond
81.0,2.0,2.0,0.0,1.0,1.0,233.8206449931021,3.0,1.0,part_1,,,,,,,,,,,,,green,cross
389.0,4.0,4.0,0.0,2.0,2.0,266.6399310110137,3.0,1.0,part_1,,,,,,,,,,,,,blue,I
221.0,3.0,3.0,0.0,3.0,3.0,297.7654929854907,3.0,1.0,part_1,,,,,,,,,,,,,cyan,triangle
405.0,4.0,4.0,0.0,3.0,3.0,286.1280429933686,3.0,1.0,part_1,,,,,,,,,,,,,blue,I
85.0,2.0,2.0,0.0,4.0,4.0,282.8762210265267,3.0,1.0,part_1,,,,,,,,,,,,,green,cross
98.0,2.0,2.0,0.0,3.0,3.0,269.8164229805115,3.0,1.0,part_1,,,,,,,,,,,,,green,cross
181.0,3.0,3.0,0.0,2.0,2.0,298.1380360142793,3.0,1.0,part_1,,,,,,,,,,,,,cyan,triangle
0.0,3.0,0.0,0.0,4.0,4.0,249.5320049929432,3.0,1.0,part_1,,,,,,,,,,,,,cyan,triangle
0.0,6.0,0.0,1.0,2.0,2.0,286.4885930030141,3.0,1.0,part_1,,,,,,,,,,,,,orange,square
30.0,1.0,1.0,0.0,2.0,2.0,264.8036849859636,3.0,1.0,part_1,,,,,,,,,,,,,yellow,hexagon
0.0,7.0,0.0,1.0,3.0,3.0,248.1152289838064,3.0,1.0,part_1,,,,,,,,,,,,,gray,flipped triangle
114.0,6.0,2.0,1.0,2.0,2.0,283.8124120025895,3.0,1.0,part_1,,,,,,,,,,,,,orange,square
207.0,7.0,3.0,1.0,3.0,3.0,264.9737739993725,3.0,1.0,part_1,,,,,,,,,,,,,gray,flipped triangle
94.0,6.0,2.0,1.0,2.0,2.0,293.5832099756226,3.0,1.0,part_1,,,,,,,,,,,,,orange,square
81.0,6.0,2.0,1.0,4.0,4.0,240.7909260073211,3.0,1.0,part_1,,,,,,,,,,,,,orange,square
90.0,6.0,2.0,1.0,3.0,3.0,269.1354260023217,3.0,1.0,part_1,,,,,,,,,,,,,orange,square
415.0,4.0,4.0,0.0,1.0,1.0,260.6647299835458,3.0,1.0,part_1,,,,,,,,,,,,,blue,I
410.0,8.0,4.0,1.0,3.0,3.0,289.3151789903641,3.0,1.0,part_1,,,,,,,,,,,,,magenta,diamond
40.0,1.0,1.0,0.0,2.0,2.0,236.1193220131099,3.0,1.0,part_1,,,,,,,,,,,,,yellow,hexagon
103.0,6.0,2.0,1.0,2.0,2.0,298.2557679933961,3.0,1.0,part_1,,,,,,,,,,,,,orange,square
382.0,8.0,4.0,1.0,1.0,1.0,268.2698499993421,3.0,1.0,part_1,,,,,,,,,,,,,magenta,diamond
192.0,7.0,3.0,1.0,3.0,3.0,257.2330690163653,3.0,1.0,part_1,,,,,,,,,,,,,gray,flipped triangle
404.0,8.0,4.0,1.0,1.0,1.0,269.4695380050689,3.0,1.0,part_1,,,,,,,,,,,,,magenta,diamond
28.0,1.0,1.0,0.0,2.0,2.0,228.1471980095375,3.0,1.0,part_1,,,,,,,,,,,,,yellow,hexagon
200.0,7.0,3.0,1.0,1.0,1.0,296.1838569899555,3.0,1.0,part_1,,,,,,,,,,,,,gray,flipped triangle
125.0,2.0,2.0,0.0,1.0,1.0,253.29961901297787,3.0,1.0,part_1,,,,,,,,,,,,,green,cross
121.0,2.0,2.0,0.0,4.0,4.0,259.4166279886849,3.0,1.0,part_1,,,,,,,,,,,,,green,cross
123.0,2.0,2.0,0.0,2.0,2.0,229.5192400051746,3.0,1.0,part_1,,,,,,,,,,,,,green,cross
119.0,2.0,2.0,0.0,2.0,2.0,257.4173999892082,3.0,1.0,part_1,,,,,,,,,,,,,green,cross
182.0,3.0,3.0,0.0,1.0,1.0,289.5546279905829,3.0,1.0,part_1,,,,,,,,,,,,,cyan,triangle
69.0,1.0,1.0,0.0,3.0,3.0,323.495805991115,3.0,1.0,part_1,,,,,,,,,,,,,yellow,hexagon
119.0,2.0,2.0,0.0,3.0,3.0,290.2067339746281,3.0,1.0,part_1,,,,,,,,,,,,,green,cross
201.0,7.0,3.0,1.0,2.0,2.0,254.61030600126833,3.0,1.0,part_1,,,,,,,,,,,,,gray,flipped triangle
0.0,3.0,0.0,0.0,4.0,4.0,249.7520559991244,3.0,1.0,part_1,,,,,,,,,,,,,cyan,triangle
211.0,3.0,3.0,0.0,2.0,2.0,245.5338019935879,3.0,1.0,part_1,,,,,,,,,,,,,cyan,triangle
209.0,3.0,3.0,0.0,4.0,4.0,334.0934840089176,4.0,1.0,part_1,,,,,,,,,,,,,cyan,triangle
90.0,2.0,2.0,0.0,1.0,1.0,220.18398300861,4.0,1.0,part_1,,,,,,,,,,,,,green,cross
109.0,2.0,2.0,0.0,2.0,2.0,281.3195890048519,4.0,1.0,part_1,,,,,,,,,,,,,green,cross
194.0,3.0,3.0,0.0,4.0,4.0,245.3707619861234,4.0,1.0,part_1,,,,,,,,,,,,,cyan,triangle
413.0,8.0,4.0,1.0,2.0,2.0,248.9662169828079,4.0,1.0,part_1,,,,,,,,,,,,,magenta,diamond
62.0,1.0,1.0,0.0,3.0,3.0,245.7675299956463,4.0,1.0,part_1,,,,,,,,,,,,,yellow,hexagon
396.0,8.0,4.0,1.0,4.0,4.0,340.8505289989989,4.0,1.0,part_1,,,,,,,,,,,,,magenta,diamond
176.0,7.0,3.0,1.0,2.0,2.0,270.2930139785167,4.0,1.0,part_1,,,,,,,,,,,,,gray,flipped triangle
212.0,3.0,3.0,0.0,2.0,2.0,242.4311529903207,4.0,1.0,part_1,,,,,,,,,,,,,cyan,triangle
0.0,2.0,0.0,0.0,4.0,4.0,250.79975600237958,4.0,1.0,part_1,,,,,,,,,,,,,green,cross
388.0,4.0,4.0,0.0,1.0,1.0,230.2505100087728,4.0,1.0,part_1,,,,,,,,,,,,,blue,I
72.0,5.0,1.0,1.0,4.0,4.0,257.2941129910759,4.0,1.0,part_1,,,,,,,,,,,,,white,circle
200.0,3.0,3.0,0.0,1.0,1.0,245.7206370017957,4.0,1.0,part_1,,,,,,,,,,,,,cyan,triangle
44.0,5.0,1.0,1.0,3.0,3.0,262.1069620072376,4.0,1.0,part_1,,,,,,,,,,,,,white,circle
178.0,3.0,3.0,0.0,3.0,3.0,274.0116330096498,4.0,1.0,part_1,,,,,,,,,,,,,cyan,triangle
98.0,2.0,2.0,0.0,4.0,4.0,260.0966999889351,4.0,1.0,part_1,,,,,,,,,,,,,green,cross
203.0,7.0,3.0,1.0,2.0,2.0,256.6101090051234,4.0,1.0,part_1,,,,,,,,,,,,,gray,flipped triangle
98.0,2.0,2.0,0.0,3.0,3.0,276.8741010222584,4.0,1.0,part_1,,,,,,,,,,,,,green,cross
117.0,6.0,2.0,1.0,2.0,2.0,268.1851499946788,4.0,1.0,part_1,,,,,,,,,,,,,orange,square
177.0,3.0,3.0,0.0,1.0,1.0,249.6134840184822,4.0,1.0,part_1,,,,,,,,,,,,,cyan,triangle
204.0,7.0,3.0,1.0,4.0,4.0,269.1045620013028,4.0,1.0,part_1,,,,,,,,,,,,,gray,flipped triangle
50.0,1.0,1.0,0.0,2.0,2.0,224.5787050051149,4.0,1.0,part_1,,,,,,,,,,,,,yellow,hexagon
406.0,4.0,4.0,0.0,4.0,4.0,286.8421140010468,4.0,1.0,part_1,,,,,,,,,,,,,blue,I
62.0,5.0,1.0,1.0,2.0,2.0,227.6444229937624,4.0,1.0,part_1,,,,,,,,,,,,,white,circle
0.0,5.0,0.0,1.0,1.0,1.0,257.761713990476,4.0,1.0,part_1,,,,,,,,,,,,,white,circle
184.0,7.0,3.0,1.0,3.0,3.0,286.3486649875995,4.0,1.0,part_1,,,,,,,,,,,,,gray,flipped triangle
100.0,6.0,2.0,1.0,1.0,1.0,240.22637499729169,4.0,1.0,part_1,,,,,,,,,,,,,orange,square
61.0,1.0,1.0,0.0,1.0,1.0,211.8952699820511,4.0,1.0,part_1,,,,,,,,,,,,,yellow,hexagon
0.0,4.0,0.0,0.0,1.0,1.0,241.4613950240891,4.0,1.0,part_1,,,,,,,,,,,,,blue,I
414.0,8.0,4.0,1.0,2.0,2.0,295.6732589809689,4.0,1.0,part_1,,,,,,,,,,,,,magenta,diamond
0.0,5.0,0.0,1.0,4.0,4.0,250.2856440260075,4.0,1.0,part_1,,,,,,,,,,,,,white,circle
398.0,4.0,4.0,0.0,1.0,1.0,208.4819599986076,4.0,1.0,part_1,,,,,,,,,,,,,blue,I
211.0,7.0,3.0,1.0,1.0,1.0,270.5893089878373,4.0,1.0,part_1,,,,,,,,,,,,,gray,flipped triangle
220.0,7.0,3.0,1.0,2.0,2.0,282.0647849875968,4.0,1.0,part_1,,,,,,,,,,,,,gray,flipped triangle
109.0,6.0,2.0,1.0,2.0,2.0,277.5673749856651,4.0,1.0,part_1,,,,,,,,,,,,,orange,square
0.0,1.0,0.0,0.0,3.0,3.0,348.6324720142875,4.0,1.0,part_1,,,,,,,,,,,,,yellow,hexagon
205.0,3.0,3.0,0.0,1.0,1.0,319.9537260225042,4.0,1.0,part_1,,,,,,,,,,,,,cyan,triangle
218.0,7.0,3.0,1.0,2.0,2.0,278.1408430018928,4.0,1.0,part_1,,,,,,,,,,,,,gray,flipped triangle
0.0,1.0,0.0,0.0,2.0,2.0,232.6419720193371,4.0,1.0,part_1,,,,,,,,,,,,,yellow,hexagon
0.0,2.0,0.0,0.0,4.0,4.0,246.2822780071292,4.0,1.0,part_1,,,,,,,,,,,,,green,cross
0.0,6.0,0.0,1.0,3.0,3.0,285.8146400249097,4.0,2.0,part_1,,,,,,,,,,,,,orange,square
400.0,8.0,4.0,1.0,1.0,1.0,261.110433988506,4.0,1.0,part_1,,,,,,,,,,,,,magenta,diamond
393.0,4.0,4.0,0.0,3.0,3.0,347.3038589872885,4.0,1.0,part_1,,,,,,,,,,,,,blue,I
96.0,6.0,2.0,1.0,4.0,4.0,291.6110749938525,4.0,1.0,part_1,,,,,,,,,,,,,orange,square
39.0,1.0,1.0,0.0,1.0,1.0,297.3070089938119,4.0,1.0,part_1,,,,,,,,,,,,,yellow,hexagon
0.0,2.0,0.0,0.0,3.0,3.0,252.99117600661702,4.0,1.0,part_1,,,,,,,,,,,,,green,cross
0.0,6.0,0.0,1.0,2.0,2.0,322.4466349929571,4.0,1.0,part_1,,,,,,,,,,,,,orange,square
217.0,7.0,3.0,1.0,2.0,2.0,289.5370199985336,4.0,1.0,part_1,,,,,,,,,,,,,gray,flipped triangle
54.0,5.0,1.0,1.0,3.0,3.0,293.0673549999483,4.0,1.0,part_1,,,,,,,,,,,,,white,circle
385.0,8.0,4.0,1.0,2.0,2.0,271.9085399876348,4.0,1.0,part_1,,,,,,,,,,,,,magenta,diamond
100.0,2.0,2.0,0.0,1.0,1.0,262.4815900053363,4.0,1.0,part_1,,,,,,,,,,,,,green,cross
89.0,2.0,2.0,0.0,3.0,3.0,307.0966379891615,4.0,1.0,part_1,,,,,,,,,,,,,green,cross
213.0,7.0,3.0,1.0,3.0,3.0,286.5010630048346,4.0,1.0,part_1,,,,,,,,,,,,,gray,flipped triangle
110.0,2.0,2.0,0.0,4.0,4.0,285.5182669882197,4.0,1.0,part_1,,,,,,,,,,,,,green,cross
409.0,8.0,4.0,1.0,3.0,3.0,283.3415790228173,4.0,1.0,part_1,,,,,,,,,,,,,magenta,diamond
25.0,5.0,1.0,1.0,2.0,2.0,310.3611160186119,4.0,1.0,part_1,,,,,,,,,,,,,white,circle
377.0,8.0,4.0,1.0,1.0,1.0,282.7961680013686,4.0,1.0,part_1,,,,,,,,,,,,,magenta,diamond
44.0,5.0,1.0,1.0,2.0,2.0,294.1135930013843,4.0,1.0,part_1,,,,,,,,,,,,,white,circle
67.0,1.0,1.0,0.0,4.0,4.0,261.7762369918637,4.0,1.0,part_1,,,,,,,,,,,,,yellow,hexagon
183.0,3.0,3.0,0.0,4.0,4.0,273.9174299931619,4.0,1.0,part_1,,,,,,,,,,,,,cyan,triangle
404.0,4.0,4.0,0.0,4.0,4.0,260.438068973599,4.0,1.0,part_1,,,,,,,,,,,,,blue,I
78.0,6.0,2.0,1.0,1.0,1.0,281.5587480145041,4.0,1.0,part_1,,,,,,,,,,,,,orange,square
103.0,2.0,2.0,0.0,4.0,4.0,261.6145439969841,4.0,1.0,part_1,,,,,,,,,,,,,green,cross
195.0,3.0,3.0,0.0,2.0,2.0,281.2338810181245,4.0,1.0,part_1,,,,,,,,,,,,,cyan,triangle
197.0,7.0,3.0,1.0,4.0,4.0,249.6944130107294,4.0,1.0,part_1,,,,,,,,,,,,,gray,flipped triangle
393.0,8.0,4.0,1.0,3.0,3.0,269.9510530219413,4.0,1.0,part_1,,,,,,,,,,,,,magenta,diamond
0.0,4.0,0.0,0.0,2.0,2.0,265.1352219982072,4.0,1.0,part_1,,,,,,,,,,,,,blue,I
0.0,5.0,0.0,1.0,4.0,4.0,286.2898220191709,4.0,1.0,part_1,,,,,,,,,,,,,white,circle
377.0,4.0,4.0,0.0,3.0,3.0,289.4961760030128,4.0,1.0,part_1,,,,,,,,,,,,,blue,I
177.0,3.0,3.0,0.0,3.0,3.0,321.6342169907875,4.0,1.0,part_1,,,,,,,,,,,,,cyan,triangle
209.0,3.0,3.0,0.0,3.0,3.0,293.7316990282852,4.0,1.0,part_1,,,,,,,,,,,,,cyan,triangle
0.0,7.0,0.0,1.0,2.0,2.0,239.5666960219387,4.0,1.0,part_1,,,,,,,,,,,,,gray,flipped triangle
119.0,6.0,2.0,1.0,4.0,4.0,252.4828900059219,4.0,1.0,part_1,,,,,,,,,,,,,orange,square
0.0,8.0,0.0,1.0,3.0,3.0,272.5495040067471,4.0,1.0,part_1,,,,,,,,,,,,,magenta,diamond
102.0,2.0,2.0,0.0,1.0,1.0,261.2274459970649,4.0,1.0,part_1,,,,,,,,,,,,,green,cross
123.0,6.0,2.0,1.0,3.0,3.0,276.9225370138883,4.0,1.0,part_1,,,,,,,,,,,,,orange,square
385.0,8.0,4.0,1.0,4.0,4.0,246.9514859840273,4.0,1.0,part_1,,,,,,,,,,,,,magenta,diamond
0.0,5.0,0.0,1.0,4.0,4.0,260.888374003116,4.0,1.0,part_1,,,,,,,,,,,,,white,circle
85.0,6.0,2.0,1.0,1.0,1.0,330.9946400113404,4.0,1.0,part_1,,,,,,,,,,,,,orange,square
84.0,6.0,2.0,1.0,4.0,4.0,269.3290159804746,4.0,1.0,part_1,,,,,,,,,,,,,orange,square
388.0,8.0,4.0,1.0,1.0,1.0,257.9128729994409,4.0,1.0,part_1,,,,,,,,,,,,,magenta,diamond
398.0,4.0,4.0,0.0,1.0,1.0,265.536319988314,4.0,1.0,part_1,,,,,,,,,,,,,blue,I
119.0,6.0,2.0,1.0,4.0,4.0,277.8292380098719,4.0,1.0,part_1,,,,,,,,,,,,,orange,square
101.0,2.0,2.0,0.0,3.0,3.0,290.8764720195904,4.0,1.0,part_1,,,,,,,,,,,,,green,cross
79.0,2.0,2.0,0.0,3.0,3.0,309.9201929871924,4.0,1.0,part_1,,,,,,,,,,,,,green,cross
398.0,8.0,4.0,1.0,4.0,4.0,274.0106160053983,4.0,1.0,part_1,,,,,,,,,,,,,magenta,diamond
211.0,7.0,3.0,1.0,1.0,1.0,261.6508420032915,4.0,1.0,part_1,,,,,,,,,,,,,gray,flipped triangle
382.0,8.0,4.0,1.0,4.0,4.0,261.5861730009783,4.0,1.0,part_1,,,,,,,,,,,,,magenta,diamond
0.0,6.0,0.0,1.0,3.0,3.0,306.8418149778154,4.0,1.0,part_1,,,,,,,,,,,,,orange,square
210.0,7.0,3.0,1.0,1.0,1.0,294.3890580208972,4.0,1.0,part_1,,,,,,,,,,,,,gray,flipped triangle
188.0,7.0,3.0,1.0,1.0,1.0,367.6150570099707,4.0,1.0,part_1,,,,,,,,,,,,,gray,flipped triangle
85.0,2.0,2.0,0.0,4.0,4.0,317.2844380023889,4.0,1.0,part_1,,,,,,,,,,,,,green,cross
73.0,5.0,1.0,1.0,1.0,1.0,269.120226992527,4.0,1.0,part_1,,,,,,,,,,,,,white,circle
401.0,8.0,4.0,1.0,4.0,4.0,256.9635949912481,4.0,1.0,part_1,,,,,,,,,,,,,magenta,diamond
85.0,6.0,2.0,1.0,4.0,4.0,285.7220630103256,4.0,1.0,part_1,,,,,,,,,,,,,orange,square
39.0,1.0,1.0,0.0,3.0,3.0,298.2093910104595,4.0,1.0,part_1,,,,,,,,,,,,,yellow,hexagon
377.0,8.0,4.0,1.0,3.0,3.0,292.5560219737235,4.0,1.0,part_1,,,,,,,,,,,,,magenta,diamond
223.0,7.0,3.0,1.0,1.0,1.0,297.2966799861751,4.0,1.0,part_1,,,,,,,,,,,,,gray,flipped triangle
0.0,3.0,0.0,0.0,2.0,2.0,309.3237330031115,4.0,1.0,part_1,,,,,,,,,,,,,cyan,triangle
400.0,4.0,4.0,0.0,3.0,3.0,309.1614190198015,4.0,1.0,part_1,,,,,,,,,,,,,blue,I
0.0,4.0,4.0,0.0,6.0,6.0,510.0582909944933,1.0,0.0,part_2,go,250.0,250.0,1.0,,,,,,,,,blue,I
0.0,5.0,1.0,1.0,5.0,5.0,511.5094459906686,1.0,0.0,part_2,stop,250.0,250.0,3.0,,,,,,,,,white,circle
0.0,1.0,1.0,0.0,6.0,6.0,596.6422189958394,1.0,0.0,part_2,go,200.0,250.0,1.0,,,,,,,,,yellow,hexagon
0.0,4.0,4.0,0.0,5.0,5.0,635.598230001051,1.0,0.0,part_2,go,200.0,250.0,1.0,,,,,,,,,blue,I
0.0,1.0,1.0,0.0,6.0,6.0,782.2872000106145,1.0,0.0,part_2,go,200.0,250.0,1.0,,,,,,,,,yellow,hexagon
0.0,5.0,1.0,1.0,6.0,6.0,706.7016029905062,1.0,0.0,part_2,go,200.0,250.0,1.0,,,,,,,,,white,circle
0.0,5.0,1.0,1.0,6.0,6.0,298.1033170071896,1.0,0.0,part_2,stop,200.0,250.0,3.0,,,,,,,,,white,circle
0.0,3.0,3.0,0.0,6.0,6.0,533.6214709968772,1.0,0.0,part_2,go,200.0,200.0,1.0,,,,,,,,,cyan,triangle
0.0,3.0,3.0,0.0,5.0,5.0,692.382909997832,1.0,0.0,part_2,go,200.0,200.0,1.0,,,,,,,,,cyan,triangle
0.0,4.0,4.0,0.0,5.0,5.0,689.8779449984431,1.0,0.0,part_2,go,200.0,200.0,1.0,,,,,,,,,blue,I
0.0,7.0,3.0,1.0,5.0,5.0,611.5646109974477,1.0,0.0,part_2,go,200.0,200.0,1.0,,,,,,,,,gray,flipped triangle
0.0,5.0,1.0,1.0,6.0,0.0,0.0,1.0,0.0,part_2,stop,200.0,200.0,4.0,,,,,,,,,white,circle
0.0,8.0,4.0,1.0,5.0,0.0,0.0,1.0,0.0,part_2,stop,200.0,250.0,4.0,,,,,,,,,magenta,diamond
0.0,3.0,3.0,0.0,6.0,6.0,391.1769039987121,1.0,0.0,part_2,go,250.0,250.0,1.0,,,,,,,,,cyan,triangle
0.0,2.0,2.0,0.0,5.0,5.0,629.3049619998783,1.0,0.0,part_2,go,250.0,250.0,1.0,,,,,,,,,green,cross
0.0,1.0,1.0,0.0,5.0,5.0,661.4284249953926,1.0,0.0,part_2,go,250.0,250.0,1.0,,,,,,,,,yellow,hexagon
0.0,6.0,2.0,1.0,5.0,5.0,596.2734670029022,1.0,0.0,part_2,go,250.0,250.0,1.0,,,,,,,,,orange,square
0.0,7.0,3.0,1.0,5.0,5.0,571.8872500001453,1.0,0.0,part_2,go,250.0,250.0,1.0,,,,,,,,,gray,flipped triangle
0.0,7.0,3.0,1.0,6.0,0.0,0.0,1.0,0.0,part_2,stop,250.0,250.0,4.0,,,,,,,,,gray,flipped triangle
0.0,7.0,3.0,1.0,5.0,0.0,0.0,1.0,0.0,part_2,stop,250.0,300.0,4.0,,,,,,,,,gray,flipped triangle
0.0,1.0,1.0,0.0,5.0,5.0,526.1808070063125,1.0,0.0,part_2,go,300.0,300.0,1.0,,,,,,,,,yellow,hexagon
0.0,5.0,1.0,1.0,5.0,0.0,0.0,1.0,0.0,part_2,stop,300.0,300.0,4.0,,,,,,,,,white,circle
0.0,7.0,3.0,1.0,5.0,0.0,0.0,1.0,0.0,part_2,stop,350.0,300.0,4.0,,,,,,,,,gray,flipped triangle
0.0,2.0,2.0,0.0,6.0,6.0,529.3178449792322,1.0,0.0,part_2,go,400.0,300.0,1.0,,,,,,,,,green,cross
0.0,8.0,4.0,1.0,5.0,5.0,490.0449959968682,1.0,0.0,part_2,go,400.0,300.0,1.0,,,,,,,,,magenta,diamond
0.0,8.0,4.0,1.0,5.0,0.0,0.0,1.0,0.0,part_2,stop,400.0,300.0,4.0,,,,,,,,,magenta,diamond
0.0,7.0,3.0,1.0,6.0,0.0,0.0,1.0,0.0,part_2,stop,450.0,300.0,4.0,,,,,,,,,gray,flipped triangle
0.0,6.0,2.0,1.0,6.0,0.0,0.0,1.0,0.0,part_2,stop,450.0,350.0,4.0,,,,,,,,,orange,square
0.0,2.0,2.0,0.0,6.0,6.0,590.9587549977005,1.0,0.0,part_2,go,450.0,400.0,1.0,,,,,,,,,green,cross
0.0,1.0,1.0,0.0,5.0,5.0,528.0436840257607,1.0,0.0,part_2,go,450.0,400.0,1.0,,,,,,,,,yellow,hexagon
0.0,7.0,3.0,1.0,5.0,5.0,581.0330100066494,1.0,0.0,part_2,go,450.0,400.0,1.0,,,,,,,,,gray,flipped triangle
0.0,5.0,1.0,1.0,6.0,6.0,541.3833049824461,1.0,0.0,part_2,go,450.0,400.0,1.0,,,,,,,,,white,circle
0.0,3.0,3.0,0.0,6.0,6.0,468.4296890045516,1.0,0.0,part_2,go,450.0,400.0,1.0,,,,,,,,,cyan,triangle
0.0,1.0,1.0,0.0,6.0,6.0,542.8307340189349,1.0,0.0,part_2,go,450.0,400.0,1.0,,,,,,,,,yellow,hexagon
0.0,4.0,4.0,0.0,6.0,6.0,619.5718430099078,1.0,0.0,part_2,go,450.0,400.0,1.0,,,,,,,,,blue,I
0.0,8.0,4.0,1.0,5.0,5.0,556.7488159867935,1.0,0.0,part_2,stop,450.0,400.0,3.0,,,,,,,,,magenta,diamond
0.0,7.0,3.0,1.0,6.0,6.0,649.5357620005962,2.0,0.0,part_2,stop,400.0,400.0,3.0,,,,,,,,,gray,flipped triangle
0.0,2.0,2.0,0.0,6.0,6.0,529.0182280004956,2.0,0.0,part_2,go,400.0,350.0,1.0,,,,,,,,,green,cross
0.0,5.0,1.0,1.0,6.0,6.0,509.35510999988765,2.0,0.0,part_2,go,400.0,350.0,1.0,,,,,,,,,white,circle
0.0,7.0,3.0,1.0,5.0,0.0,0.0,2.0,0.0,part_2,stop,400.0,350.0,4.0,,,,,,,,,gray,flipped triangle
0.0,3.0,3.0,0.0,5.0,5.0,493.299724010285,2.0,0.0,part_2,go,450.0,350.0,1.0,,,,,,,,,cyan,triangle
0.0,4.0,4.0,0.0,6.0,6.0,540.7468710036483,2.0,0.0,part_2,go,450.0,350.0,1.0,,,,,,,,,blue,I
0.0,2.0,2.0,0.0,6.0,6.0,620.0047309976071,2.0,0.0,part_2,go,450.0,350.0,1.0,,,,,,,,,green,cross
0.0,7.0,3.0,1.0,6.0,0.0,0.0,2.0,0.0,part_2,stop,450.0,350.0,4.0,,,,,,,,,gray,flipped triangle
0.0,4.0,4.0,0.0,6.0,6.0,637.3074869916309,2.0,0.0,part_2,go,450.0,400.0,1.0,,,,,,,,,blue,I
0.0,1.0,1.0,0.0,5.0,5.0,530.4036409943365,2.0,0.0,part_2,go,450.0,400.0,1.0,,,,,,,,,yellow,hexagon
0.0,6.0,2.0,1.0,6.0,6.0,500.6496949936263,2.0,0.0,part_2,go,450.0,400.0,1.0,,,,,,,,,orange,square
0.0,5.0,1.0,1.0,6.0,0.0,0.0,2.0,0.0,part_2,stop,450.0,400.0,4.0,,,,,,,,,white,circle
0.0,4.0,4.0,0.0,6.0,6.0,577.7545309974812,2.0,0.0,part_2,go,450.0,450.0,1.0,,,,,,,,,blue,I
0.0,6.0,2.0,1.0,5.0,0.0,0.0,2.0,0.0,part_2,stop,450.0,450.0,4.0,,,,,,,,,orange,square
0.0,5.0,1.0,1.0,5.0,0.0,0.0,2.0,0.0,part_2,stop,500.0,450.0,4.0,,,,,,,,,white,circle
0.0,4.0,4.0,0.0,6.0,6.0,334.0757550031412,2.0,0.0,part_2,go,550.0,450.0,1.0,,,,,,,,,blue,I
0.0,6.0,2.0,1.0,6.0,6.0,617.5528780149762,2.0,0.0,part_2,go,550.0,450.0,1.0,,,,,,,,,orange,square
0.0,7.0,3.0,1.0,6.0,0.0,0.0,2.0,0.0,part_2,stop,550.0,450.0,4.0,,,,,,,,,gray,flipped triangle
0.0,4.0,4.0,0.0,5.0,5.0,703.4542129840702,2.0,0.0,part_2,go,550.0,500.0,1.0,,,,,,,,,blue,I
0.0,4.0,4.0,0.0,5.0,5.0,629.604774992913,2.0,0.0,part_2,go,550.0,500.0,1.0,,,,,,,,,blue,I
0.0,7.0,3.0,1.0,5.0,5.0,606.6788779862691,2.0,0.0,part_2,stop,550.0,500.0,3.0,,,,,,,,,gray,flipped triangle
0.0,1.0,1.0,0.0,6.0,6.0,677.0450170151889,2.0,0.0,part_2,go,500.0,500.0,1.0,,,,,,,,,yellow,hexagon
0.0,5.0,1.0,1.0,5.0,5.0,612.8009490203112,2.0,0.0,part_2,stop,500.0,500.0,3.0,,,,,,,,,white,circle
0.0,2.0,2.0,0.0,6.0,6.0,739.6770110062789,2.0,0.0,part_2,go,450.0,500.0,1.0,,,,,,,,,green,cross
0.0,2.0,2.0,0.0,5.0,5.0,681.0137789871078,2.0,0.0,part_2,go,450.0,500.0,1.0,,,,,,,,,green,cross
0.0,2.0,2.0,0.0,6.0,6.0,682.3389290075283,2.0,0.0,part_2,go,450.0,500.0,1.0,,,,,,,,,green,cross
0.0,7.0,3.0,1.0,5.0,0.0,0.0,2.0,0.0,part_2,stop,450.0,500.0,4.0,,,,,,,,,gray,flipped triangle
0.0,8.0,4.0,1.0,6.0,6.0,655.5029480077792,2.0,0.0,part_2,go,500.0,500.0,1.0,,,,,,,,,magenta,diamond
0.0,3.0,3.0,0.0,5.0,5.0,659.0680869994685,2.0,0.0,part_2,go,500.0,500.0,1.0,,,,,,,,,cyan,triangle
0.0,1.0,1.0,0.0,5.0,5.0,672.878187004244,2.0,0.0,part_2,go,500.0,500.0,1.0,,,,,,,,,yellow,hexagon
0.0,6.0,2.0,1.0,6.0,0.0,0.0,2.0,0.0,part_2,stop,500.0,500.0,4.0,,,,,,,,,orange,square
0.0,6.0,2.0,1.0,6.0,0.0,0.0,2.0,0.0,part_2,stop,500.0,550.0,4.0,,,,,,,,,orange,square
0.0,1.0,1.0,0.0,6.0,6.0,710.9422760258894,2.0,0.0,part_2,go,500.0,600.0,1.0,,,,,,,,,yellow,hexagon
0.0,4.0,4.0,0.0,5.0,5.0,708.0409539921675,2.0,0.0,part_2,go,500.0,600.0,1.0,,,,,,,,,blue,I
0.0,2.0,2.0,0.0,6.0,6.0,686.7976750072557,2.0,0.0,part_2,go,500.0,600.0,1.0,,,,,,,,,green,cross
0.0,5.0,1.0,1.0,5.0,0.0,0.0,2.0,0.0,part_2,stop,500.0,600.0,4.0,,,,,,,,,white,circle
0.0,2.0,2.0,0.0,6.0,6.0,893.9162410097197,3.0,0.0,part_2,go,550.0,600.0,1.0,,,,,,,,,green,cross
0.0,5.0,1.0,1.0,5.0,5.0,574.4903509912547,3.0,0.0,part_2,stop,550.0,600.0,3.0,,,,,,,,,white,circle
0.0,2.0,2.0,0.0,6.0,6.0,654.345487972023,3.0,0.0,part_2,go,500.0,600.0,1.0,,,,,,,,,green,cross
0.0,7.0,3.0,1.0,6.0,6.0,627.6454980252311,3.0,0.0,part_2,stop,500.0,600.0,3.0,,,,,,,,,gray,flipped triangle
0.0,3.0,3.0,0.0,6.0,6.0,838.8834579964168,3.0,0.0,part_2,go,500.0,550.0,1.0,,,,,,,,,cyan,triangle
0.0,8.0,4.0,1.0,6.0,0.0,0.0,3.0,0.0,part_2,stop,500.0,550.0,4.0,,,,,,,,,magenta,diamond
0.0,6.0,2.0,1.0,5.0,5.0,633.529129991075,3.0,0.0,part_2,stop,500.0,600.0,3.0,,,,,,,,,orange,square
0.0,3.0,3.0,0.0,6.0,6.0,625.8872080070432,3.0,0.0,part_2,go,450.0,600.0,1.0,,,,,,,,,cyan,triangle
0.0,6.0,2.0,1.0,6.0,0.0,0.0,3.0,0.0,part_2,stop,450.0,600.0,4.0,,,,,,,,,orange,square
0.0,2.0,2.0,0.0,6.0,6.0,864.0153819869738,3.0,0.0,part_2,go,450.0,650.0,1.0,,,,,,,,,green,cross
0.0,8.0,4.0,1.0,6.0,0.0,0.0,3.0,0.0,part_2,stop,450.0,650.0,4.0,,,,,,,,,magenta,diamond
0.0,8.0,4.0,1.0,6.0,6.0,841.4511150040198,3.0,0.0,part_2,stop,450.0,700.0,3.0,,,,,,,,,magenta,diamond
0.0,3.0,3.0,0.0,5.0,5.0,817.2403839998879,3.0,0.0,part_2,go,450.0,650.0,1.0,,,,,,,,,cyan,triangle
0.0,1.0,1.0,0.0,5.0,5.0,869.6852769935504,3.0,0.0,part_2,go,450.0,650.0,1.0,,,,,,,,,yellow,hexagon
0.0,3.0,3.0,0.0,5.0,5.0,952.8466160118114,3.0,0.0,part_2,go,450.0,650.0,1.0,,,,,,,,,cyan,triangle
0.0,3.0,3.0,0.0,5.0,5.0,909.6483349858318,3.0,0.0,part_2,go,450.0,650.0,1.0,,,,,,,,,cyan,triangle
0.0,5.0,1.0,1.0,6.0,0.0,0.0,3.0,0.0,part_2,stop,450.0,650.0,4.0,,,,,,,,,white,circle
0.0,1.0,1.0,0.0,5.0,5.0,635.4941820027307,3.0,0.0,part_2,go,450.0,700.0,1.0,,,,,,,,,yellow,hexagon
0.0,5.0,1.0,1.0,5.0,0.0,0.0,3.0,0.0,part_2,stop,450.0,700.0,4.0,,,,,,,,,white,circle
0.0,2.0,2.0,0.0,6.0,6.0,837.2270990221296,3.0,0.0,part_2,go,500.0,700.0,1.0,,,,,,,,,green,cross
0.0,5.0,1.0,1.0,6.0,6.0,753.9401059912052,3.0,0.0,part_2,stop,500.0,700.0,3.0,,,,,,,,,white,circle
0.0,8.0,4.0,1.0,6.0,0.0,0.0,3.0,0.0,part_2,stop,500.0,650.0,4.0,,,,,,,,,magenta,diamond
0.0,3.0,3.0,0.0,5.0,5.0,923.1276210048236,3.0,0.0,part_2,go,500.0,700.0,1.0,,,,,,,,,cyan,triangle
0.0,3.0,3.0,0.0,6.0,6.0,890.1849819812924,3.0,0.0,part_2,go,500.0,700.0,1.0,,,,,,,,,cyan,triangle
0.0,7.0,3.0,1.0,5.0,0.0,0.0,3.0,0.0,part_2,stop,500.0,700.0,4.0,,,,,,,,,gray,flipped triangle
0.0,3.0,3.0,0.0,5.0,5.0,889.9590139917564,3.0,0.0,part_2,go,550.0,700.0,1.0,,,,,,,,,cyan,triangle
0.0,3.0,3.0,0.0,5.0,5.0,847.735179006122,3.0,0.0,part_2,go,550.0,700.0,1.0,,,,,,,,,cyan,triangle
0.0,2.0,2.0,0.0,5.0,5.0,840.2539089729544,3.0,0.0,part_2,go,550.0,700.0,1.0,,,,,,,,,green,cross
0.0,5.0,1.0,1.0,6.0,6.0,742.1281519928016,3.0,0.0,part_2,stop,550.0,700.0,3.0,,,,,,,,,white,circle
0.0,6.0,2.0,1.0,6.0,6.0,693.255833000876,3.0,0.0,part_2,stop,550.0,650.0,3.0,,,,,,,,,orange,square
0.0,8.0,4.0,1.0,6.0,0.0,0.0,3.0,0.0,part_2,stop,550.0,600.0,4.0,,,,,,,,,magenta,diamond
0.0,1.0,1.0,0.0,5.0,5.0,815.9264200075995,3.0,0.0,part_2,go,550.0,650.0,1.0,,,,,,,,,yellow,hexagon
0.0,3.0,3.0,0.0,5.0,5.0,892.1143169864081,3.0,0.0,part_2,go,550.0,650.0,1.0,,,,,,,,,cyan,triangle
0.0,1.0,1.0,0.0,6.0,6.0,823.0711329961196,3.0,0.0,part_2,go,550.0,650.0,1.0,,,,,,,,,yellow,hexagon
0.0,4.0,4.0,0.0,5.0,5.0,318.5908269952051,3.0,0.0,part_2,go,550.0,650.0,1.0,,,,,,,,,blue,I
0.0,3.0,3.0,0.0,6.0,6.0,882.9446089803241,3.0,0.0,part_2,go,550.0,650.0,1.0,,,,,,,,,cyan,triangle
0.0,4.0,4.0,0.0,6.0,6.0,330.4899900103919,4.0,0.0,part_2,go,550.0,650.0,1.0,,,,,,,,,blue,I
0.0,2.0,2.0,0.0,5.0,5.0,684.4398530083708,4.0,0.0,part_2,go,550.0,650.0,1.0,,,,,,,,,green,cross
0.0,7.0,3.0,1.0,6.0,6.0,794.8680830013473,4.0,0.0,part_2,go,550.0,650.0,1.0,,,,,,,,,gray,flipped triangle
0.0,6.0,2.0,1.0,6.0,6.0,737.3707570077386,4.0,0.0,part_2,stop,550.0,650.0,3.0,,,,,,,,,orange,square
0.0,4.0,4.0,0.0,6.0,6.0,864.1816320014186,4.0,0.0,part_2,go,550.0,600.0,1.0,,,,,,,,,blue,I
0.0,8.0,4.0,1.0,5.0,5.0,505.32570999348536,4.0,0.0,part_2,go,550.0,600.0,1.0,,,,,,,,,magenta,diamond
0.0,1.0,1.0,0.0,6.0,6.0,464.203532988904,4.0,0.0,part_2,go,550.0,600.0,1.0,,,,,,,,,yellow,hexagon
0.0,8.0,4.0,1.0,6.0,6.0,490.2559540059883,4.0,0.0,part_2,go,550.0,600.0,1.0,,,,,,,,,magenta,diamond
0.0,5.0,1.0,1.0,6.0,6.0,418.0247240001336,4.0,0.0,part_2,stop,550.0,600.0,3.0,,,,,,,,,white,circle
0.0,7.0,3.0,1.0,5.0,5.0,301.3943189871497,4.0,0.0,part_2,stop,550.0,550.0,3.0,,,,,,,,,gray,flipped triangle
0.0,8.0,4.0,1.0,5.0,5.0,703.5562609962653,4.0,0.0,part_2,go,500.0,550.0,1.0,,,,,,,,,magenta,diamond
0.0,6.0,2.0,1.0,5.0,5.0,630.5017080157995,4.0,0.0,part_2,stop,500.0,550.0,3.0,,,,,,,,,orange,square
0.0,1.0,1.0,0.0,5.0,5.0,764.5852100104094,4.0,0.0,part_2,go,450.0,550.0,1.0,,,,,,,,,yellow,hexagon
0.0,6.0,2.0,1.0,6.0,6.0,774.2668939754367,4.0,0.0,part_2,go,450.0,550.0,1.0,,,,,,,,,orange,square
0.0,6.0,2.0,1.0,6.0,6.0,692.530137981521,4.0,0.0,part_2,go,450.0,550.0,1.0,,,,,,,,,orange,square
0.0,3.0,3.0,0.0,6.0,6.0,651.003221020801,4.0,0.0,part_2,go,450.0,550.0,1.0,,,,,,,,,cyan,triangle
0.0,8.0,4.0,1.0,5.0,5.0,540.9844139940105,4.0,0.0,part_2,stop,450.0,550.0,3.0,,,,,,,,,magenta,diamond
0.0,2.0,2.0,0.0,5.0,5.0,513.1490729982033,4.0,0.0,part_2,go,400.0,550.0,1.0,,,,,,,,,green,cross
0.0,5.0,1.0,1.0,5.0,0.0,0.0,4.0,0.0,part_2,stop,400.0,550.0,4.0,,,,,,,,,white,circle
0.0,4.0,4.0,0.0,6.0,6.0,244.0185759915039,4.0,0.0,part_2,go,450.0,550.0,1.0,,,,,,,,,blue,I
0.0,6.0,2.0,1.0,6.0,6.0,650.7000279962085,4.0,0.0,part_2,stop,450.0,550.0,3.0,,,,,,,,,orange,square
0.0,6.0,2.0,1.0,5.0,5.0,696.9006110157352,4.0,0.0,part_2,go,450.0,500.0,1.0,,,,,,,,,orange,square
0.0,8.0,4.0,1.0,6.0,0.0,0.0,4.0,0.0,part_2,stop,450.0,500.0,4.0,,,,,,,,,magenta,diamond
0.0,6.0,2.0,1.0,6.0,6.0,575.0341239909176,4.0,0.0,part_2,stop,450.0,550.0,3.0,,,,,,,,,orange,square
0.0,3.0,3.0,0.0,6.0,6.0,615.4957469843794,4.0,0.0,part_2,go,450.0,500.0,1.0,,,,,,,,,cyan,triangle
0.0,8.0,4.0,1.0,5.0,0.0,0.0,4.0,0.0,part_2,stop,450.0,500.0,4.0,,,,,,,,,magenta,diamond
0.0,8.0,4.0,1.0,6.0,0.0,0.0,4.0,0.0,part_2,stop,500.0,500.0,4.0,,,,,,,,,magenta,diamond
0.0,4.0,4.0,0.0,6.0,6.0,539.6948130219243,4.0,0.0,part_2,go,500.0,550.0,1.0,,,,,,,,,blue,I
0.0,3.0,3.0,0.0,6.0,6.0,636.6778019873891,4.0,0.0,part_2,go,500.0,550.0,1.0,,,,,,,,,cyan,triangle
0.0,3.0,3.0,0.0,5.0,5.0,604.5010160014499,4.0,0.0,part_2,go,500.0,550.0,1.0,,,,,,,,,cyan,triangle
0.0,1.0,1.0,0.0,6.0,6.0,541.3894879748113,4.0,0.0,part_2,go,500.0,550.0,1.0,,,,,,,,,yellow,hexagon
0.0,4.0,4.0,0.0,5.0,5.0,668.8387110189069,4.0,0.0,part_2,go,500.0,550.0,1.0,,,,,,,,,blue,I
0.0,1.0,1.0,0.0,6.0,6.0,593.6119240068365,4.0,0.0,part_2,go,500.0,550.0,1.0,,,,,,,,,yellow,hexagon
0.0,4.0,4.0,0.0,6.0,6.0,600.9808540111408,4.0,0.0,part_2,go,500.0,550.0,1.0,,,,,,,,,blue,I
0.0,7.0,3.0,1.0,5.0,5.0,600.0930389855057,4.0,0.0,part_2,stop,500.0,550.0,3.0,,,,,,,,,gray,flipped triangle
0.0,1.0,1.0,0.0,6.0,6.0,641.2251720030326,4.0,0.0,part_2,go,450.0,550.0,1.0,,,,,,,,,yellow,hexagon
0.0,7.0,3.0,1.0,6.0,6.0,575.152272998821,5.0,0.0,part_2,stop,450.0,550.0,3.0,,,,,,,,,gray,flipped triangle
0.0,2.0,2.0,0.0,5.0,5.0,602.8709980018903,5.0,0.0,part_2,go,450.0,500.0,1.0,,,,,,,,,green,cross
0.0,7.0,3.0,1.0,6.0,6.0,448.8477599807083,5.0,0.0,part_2,stop,450.0,500.0,3.0,,,,,,,,,gray,flipped triangle
0.0,3.0,3.0,0.0,5.0,5.0,608.541087975027,5.0,0.0,part_2,go,450.0,450.0,1.0,,,,,,,,,cyan,triangle
0.0,6.0,2.0,1.0,5.0,0.0,0.0,5.0,0.0,part_2,stop,450.0,450.0,4.0,,,,,,,,,orange,square
0.0,4.0,4.0,0.0,6.0,6.0,578.0140169954393,5.0,0.0,part_2,go,500.0,450.0,1.0,,,,,,,,,blue,I
0.0,1.0,1.0,0.0,5.0,5.0,458.4089769923594,5.0,0.0,part_2,go,500.0,450.0,1.0,,,,,,,,,yellow,hexagon
0.0,8.0,4.0,1.0,6.0,6.0,545.3311419987585,5.0,0.0,part_2,stop,500.0,450.0,3.0,,,,,,,,,magenta,diamond
0.0,5.0,1.0,1.0,5.0,5.0,271.7486900219228,5.0,0.0,part_2,go,500.0,400.0,1.0,,,,,,,,,white,circle
0.0,1.0,1.0,0.0,5.0,5.0,701.4879140187986,5.0,0.0,part_2,go,500.0,400.0,1.0,,,,,,,,,yellow,hexagon
0.0,1.0,1.0,0.0,5.0,5.0,564.8093729978427,5.0,0.0,part_2,go,500.0,400.0,1.0,,,,,,,,,yellow,hexagon
0.0,2.0,2.0,0.0,5.0,5.0,582.0645200146828,5.0,0.0,part_2,go,500.0,400.0,1.0,,,,,,,,,green,cross
0.0,1.0,1.0,0.0,5.0,5.0,620.4512969998177,5.0,0.0,part_2,go,500.0,400.0,1.0,,,,,,,,,yellow,hexagon
0.0,3.0,3.0,0.0,6.0,6.0,636.883441999089,5.0,0.0,part_2,go,500.0,400.0,1.0,,,,,,,,,cyan,triangle
0.0,1.0,1.0,0.0,5.0,5.0,426.2672759941779,5.0,0.0,part_2,go,500.0,400.0,1.0,,,,,,,,,yellow,hexagon
0.0,8.0,4.0,1.0,5.0,0.0,0.0,5.0,0.0,part_2,stop,500.0,400.0,4.0,,,,,,,,,magenta,diamond
0.0,1.0,1.0,0.0,6.0,6.0,610.2485070005059,5.0,0.0,part_2,go,550.0,400.0,1.0,,,,,,,,,yellow,hexagon
0.0,4.0,4.0,0.0,5.0,5.0,468.4038239938672,5.0,0.0,part_2,go,550.0,400.0,1.0,,,,,,,,,blue,I
0.0,6.0,2.0,1.0,6.0,0.0,0.0,5.0,0.0,part_2,stop,550.0,400.0,4.0,,,,,,,,,orange,square
0.0,5.0,1.0,1.0,6.0,6.0,476.9151840009726,5.0,0.0,part_2,stop,550.0,450.0,3.0,,,,,,,,,white,circle
0.0,2.0,2.0,0.0,6.0,6.0,807.7853760041762,5.0,0.0,part_2,go,550.0,400.0,1.0,,,,,,,,,green,cross
0.0,3.0,3.0,0.0,5.0,5.0,664.5432829973288,5.0,0.0,part_2,go,550.0,400.0,1.0,,,,,,,,,cyan,triangle
0.0,8.0,4.0,1.0,5.0,5.0,577.7821580122691,5.0,0.0,part_2,stop,550.0,400.0,3.0,,,,,,,,,magenta,diamond
0.0,6.0,2.0,1.0,5.0,5.0,609.0458789840341,5.0,0.0,part_2,go,500.0,400.0,1.0,,,,,,,,,orange,square
0.0,7.0,3.0,1.0,5.0,5.0,520.7644529873505,5.0,0.0,part_2,go,500.0,400.0,1.0,,,,,,,,,gray,flipped triangle
0.0,8.0,4.0,1.0,5.0,5.0,518.7150970159564,5.0,0.0,part_2,stop,500.0,400.0,3.0,,,,,,,,,magenta,diamond
0.0,2.0,2.0,0.0,6.0,6.0,399.0006360108964,5.0,0.0,part_2,go,450.0,400.0,1.0,,,,,,,,,green,cross
0.0,1.0,1.0,0.0,6.0,6.0,651.3665269885678,5.0,0.0,part_2,go,450.0,400.0,1.0,,,,,,,,,yellow,hexagon
0.0,3.0,3.0,0.0,5.0,5.0,621.986715006642,5.0,0.0,part_2,go,450.0,400.0,1.0,,,,,,,,,cyan,triangle
0.0,5.0,1.0,1.0,5.0,5.0,539.0315749973524,5.0,0.0,part_2,stop,450.0,400.0,3.0,,,,,,,,,white,circle
0.0,8.0,4.0,1.0,6.0,6.0,546.093593002297,5.0,0.0,part_2,go,400.0,400.0,1.0,,,,,,,,,magenta,diamond
0.0,7.0,3.0,1.0,6.0,0.0,0.0,5.0,0.0,part_2,stop,400.0,400.0,4.0,,,,,,,,,gray,flipped triangle
0.0,6.0,2.0,1.0,5.0,5.0,504.13092199596576,5.0,0.0,part_2,stop,400.0,450.0,3.0,,,,,,,,,orange,square
0.0,2.0,2.0,0.0,5.0,5.0,479.90657898481,5.0,0.0,part_2,go,350.0,450.0,1.0,,,,,,,,,green,cross
0.0,1.0,1.0,0.0,6.0,6.0,609.3041859858204,5.0,0.0,part_2,go,350.0,450.0,1.0,,,,,,,,,yellow,hexagon
0.0,7.0,3.0,1.0,6.0,0.0,0.0,5.0,0.0,part_2,stop,350.0,450.0,4.0,,,,,,,,,gray,flipped triangle
0.0,3.0,3.0,0.0,5.0,5.0,592.7064209827222,6.0,0.0,part_2,go,350.0,500.0,1.0,,,,,,,,,cyan,triangle
0.0,1.0,1.0,0.0,6.0,6.0,541.6523840103764,6.0,0.0,part_2,go,350.0,500.0,1.0,,,,,,,,,yellow,hexagon
0.0,8.0,4.0,1.0,6.0,6.0,543.8487840001471,6.0,0.0,part_2,go,350.0,500.0,1.0,,,,,,,,,magenta,diamond
0.0,2.0,2.0,0.0,5.0,5.0,592.6572850148659,6.0,0.0,part_2,go,350.0,500.0,1.0,,,,,,,,,green,cross
0.0,3.0,3.0,0.0,6.0,6.0,519.8634309927002,6.0,0.0,part_2,go,350.0,500.0,1.0,,,,,,,,,cyan,triangle
0.0,8.0,4.0,1.0,6.0,6.0,334.7437699849251,6.0,0.0,part_2,stop,350.0,500.0,3.0,,,,,,,,,magenta,diamond
0.0,6.0,2.0,1.0,6.0,6.0,477.7932519791648,6.0,0.0,part_2,stop,350.0,450.0,3.0,,,,,,,,,orange,square
0.0,6.0,2.0,1.0,6.0,0.0,0.0,6.0,0.0,part_2,stop,350.0,400.0,4.0,,,,,,,,,orange,square
0.0,4.0,4.0,0.0,5.0,5.0,587.9437120165676,6.0,0.0,part_2,go,350.0,450.0,1.0,,,,,,,,,blue,I
0.0,3.0,3.0,0.0,6.0,6.0,580.0643700058572,6.0,0.0,part_2,go,350.0,450.0,1.0,,,,,,,,,cyan,triangle
0.0,6.0,2.0,1.0,5.0,5.0,394.7829999960959,6.0,0.0,part_2,stop,350.0,450.0,3.0,,,,,,,,,orange,square
0.0,5.0,1.0,1.0,5.0,0.0,0.0,6.0,0.0,part_2,stop,300.0,450.0,4.0,,,,,,,,,white,circle
0.0,4.0,4.0,0.0,5.0,5.0,329.3180630134884,6.0,0.0,part_2,go,350.0,450.0,1.0,,,,,,,,,blue,I
0.0,4.0,4.0,0.0,5.0,5.0,464.8537420143839,6.0,0.0,part_2,go,350.0,450.0,1.0,,,,,,,,,blue,I
0.0,3.0,3.0,0.0,6.0,6.0,505.6060639908537,6.0,0.0,part_2,go,350.0,450.0,1.0,,,,,,,,,cyan,triangle
0.0,5.0,1.0,1.0,6.0,6.0,567.5332579994574,6.0,0.0,part_2,stop,350.0,450.0,3.0,,,,,,,,,white,circle
0.0,1.0,1.0,0.0,6.0,6.0,552.3994039976969,6.0,0.0,part_2,go,350.0,400.0,1.0,,,,,,,,,yellow,hexagon
0.0,2.0,2.0,0.0,6.0,6.0,432.5380710070021,6.0,0.0,part_2,go,350.0,400.0,1.0,,,,,,,,,green,cross
0.0,7.0,3.0,1.0,5.0,0.0,0.0,6.0,0.0,part_2,stop,350.0,400.0,4.0,,,,,,,,,gray,flipped triangle
0.0,8.0,4.0,1.0,5.0,5.0,510.46306898933835,6.0,0.0,part_2,stop,400.0,400.0,3.0,,,,,,,,,magenta,diamond
0.0,8.0,4.0,1.0,6.0,6.0,467.9476099845487,6.0,0.0,part_2,go,350.0,400.0,1.0,,,,,,,,,magenta,diamond
0.0,1.0,1.0,0.0,6.0,6.0,621.7193510092329,6.0,0.0,part_2,go,350.0,400.0,1.0,,,,,,,,,yellow,hexagon
0.0,8.0,4.0,1.0,6.0,0.0,0.0,6.0,0.0,part_2,stop,350.0,400.0,4.0,,,,,,,,,magenta,diamond
0.0,4.0,4.0,0.0,6.0,6.0,514.1744989959989,6.0,0.0,part_2,go,350.0,450.0,1.0,,,,,,,,,blue,I
0.0,6.0,2.0,1.0,5.0,5.0,427.4786399910226,6.0,0.0,part_2,go,350.0,450.0,1.0,,,,,,,,,orange,square
0.0,1.0,1.0,0.0,5.0,5.0,544.3763349903747,6.0,0.0,part_2,go,350.0,450.0,1.0,,,,,,,,,yellow,hexagon
0.0,7.0,3.0,1.0,6.0,6.0,626.5958619769663,6.0,0.0,part_2,stop,350.0,450.0,3.0,,,,,,,,,gray,flipped triangle
0.0,4.0,4.0,0.0,6.0,6.0,671.2080109864473,6.0,0.0,part_2,go,350.0,400.0,1.0,,,,,,,,,blue,I
0.0,8.0,4.0,1.0,5.0,0.0,0.0,6.0,0.0,part_2,stop,350.0,400.0,4.0,,,,,,,,,magenta,diamond
0.0,6.0,2.0,1.0,5.0,5.0,426.2276510125957,6.0,0.0,part_2,go,400.0,400.0,1.0,,,,,,,,,orange,square
0.0,4.0,4.0,0.0,5.0,5.0,585.447377001401,6.0,0.0,part_2,go,400.0,400.0,1.0,,,,,,,,,blue,I
0.0,8.0,4.0,1.0,6.0,0.0,0.0,6.0,0.0,part_2,stop,400.0,400.0,4.0,,,,,,,,,magenta,diamond
0.0,2.0,2.0,0.0,5.0,5.0,245.5137920042034,6.0,0.0,part_2,go,400.0,450.0,1.0,,,,,,,,,green,cross
0.0,4.0,4.0,0.0,5.0,5.0,606.0570150148124,6.0,0.0,part_2,go,400.0,450.0,1.0,,,,,,,,,blue,I
0.0,5.0,1.0,1.0,5.0,5.0,499.7762729763053,6.0,0.0,part_2,stop,400.0,450.0,3.0,,,,,,,,,white,circle
0.0,7.0,3.0,1.0,5.0,5.0,565.1662079908419,6.0,0.0,part_2,go,350.0,450.0,1.0,,,,,,,,,gray,flipped triangle
0.0,6.0,2.0,1.0,5.0,0.0,0.0,7.0,0.0,part_2,stop,350.0,450.0,4.0,,,,,,,,,orange,square
0.0,4.0,4.0,0.0,6.0,6.0,537.6414250058588,7.0,0.0,part_2,go,400.0,450.0,1.0,,,,,,,,,blue,I
0.0,5.0,1.0,1.0,5.0,5.0,513.730388978729,7.0,0.0,part_2,go,400.0,450.0,1.0,,,,,,,,,white,circle
0.0,2.0,2.0,0.0,6.0,6.0,493.3961180213373,7.0,0.0,part_2,go,400.0,450.0,1.0,,,,,,,,,green,cross
0.0,1.0,1.0,0.0,5.0,5.0,503.4620289807208,7.0,0.0,part_2,go,400.0,450.0,1.0,,,,,,,,,yellow,hexagon
0.0,8.0,4.0,1.0,5.0,5.0,351.1936909926589,7.0,0.0,part_2,go,400.0,450.0,1.0,,,,,,,,,magenta,diamond
0.0,7.0,3.0,1.0,6.0,6.0,507.9189960088115,7.0,0.0,part_2,go,400.0,450.0,1.0,,,,,,,,,gray,flipped triangle
0.0,1.0,1.0,0.0,5.0,5.0,614.0313689829782,7.0,0.0,part_2,go,400.0,450.0,1.0,,,,,,,,,yellow,hexagon
0.0,5.0,1.0,1.0,6.0,6.0,516.9465100043453,7.0,0.0,part_2,stop,400.0,450.0,3.0,,,,,,,,,white,circle
0.0,5.0,1.0,1.0,6.0,6.0,533.2741349993739,7.0,0.0,part_2,stop,400.0,400.0,3.0,,,,,,,,,white,circle
0.0,6.0,2.0,1.0,5.0,5.0,506.89232398872264,7.0,0.0,part_2,stop,400.0,350.0,3.0,,,,,,,,,orange,square
0.0,5.0,1.0,1.0,5.0,5.0,385.8908459951635,7.0,0.0,part_2,go,350.0,350.0,1.0,,,,,,,,,white,circle
0.0,7.0,3.0,1.0,5.0,0.0,0.0,7.0,0.0,part_2,stop,350.0,350.0,4.0,,,,,,,,,gray,flipped triangle
0.0,3.0,3.0,0.0,5.0,5.0,650.3205519984476,7.0,0.0,part_2,go,400.0,350.0,1.0,,,,,,,,,cyan,triangle
0.0,6.0,2.0,1.0,5.0,0.0,0.0,7.0,0.0,part_2,stop,400.0,350.0,4.0,,,,,,,,,orange,square
0.0,8.0,4.0,1.0,6.0,0.0,0.0,7.0,0.0,part_2,stop,450.0,350.0,4.0,,,,,,,,,magenta,diamond
0.0,7.0,3.0,1.0,6.0,0.0,0.0,7.0,0.0,part_2,stop,450.0,400.0,4.0,,,,,,,,,gray,flipped triangle
0.0,4.0,4.0,0.0,6.0,6.0,472.0232720137574,7.0,0.0,part_2,go,450.0,450.0,1.0,,,,,,,,,blue,I
0.0,7.0,3.0,1.0,5.0,5.0,583.9631530106999,7.0,0.0,part_2,go,450.0,450.0,1.0,,,,,,,,,gray,flipped triangle
0.0,2.0,2.0,0.0,5.0,5.0,598.9364559936803,7.0,0.0,part_2,go,450.0,450.0,1.0,,,,,,,,,green,cross
0.0,7.0,3.0,1.0,5.0,0.0,0.0,7.0,0.0,part_2,stop,450.0,450.0,4.0,,,,,,,,,gray,flipped triangle
0.0,1.0,1.0,0.0,6.0,6.0,651.9661829806864,7.0,0.0,part_2,go,500.0,450.0,1.0,,,,,,,,,yellow,hexagon
0.0,4.0,4.0,0.0,5.0,5.0,501.90807998296805,7.0,0.0,part_2,go,500.0,450.0,1.0,,,,,,,,,blue,I
0.0,5.0,1.0,1.0,5.0,5.0,579.6896890096832,7.0,0.0,part_2,stop,500.0,450.0,3.0,,,,,,,,,white,circle
0.0,4.0,4.0,0.0,5.0,5.0,620.2208489994518,7.0,0.0,part_2,go,450.0,450.0,1.0,,,,,,,,,blue,I
0.0,3.0,3.0,0.0,6.0,6.0,546.2982630124316,7.0,0.0,part_2,go,450.0,450.0,1.0,,,,,,,,,cyan,triangle
0.0,5.0,1.0,1.0,6.0,6.0,521.8042129999958,7.0,0.0,part_2,stop,450.0,450.0,3.0,,,,,,,,,white,circle
0.0,6.0,2.0,1.0,6.0,6.0,361.4245839999057,7.0,0.0,part_2,stop,450.0,400.0,3.0,,,,,,,,,orange,square
0.0,3.0,3.0,0.0,6.0,6.0,690.5798279913142,7.0,0.0,part_2,go,450.0,350.0,1.0,,,,,,,,,cyan,triangle
0.0,4.0,4.0,0.0,6.0,6.0,665.9083809936419,7.0,0.0,part_2,go,450.0,350.0,1.0,,,,,,,,,blue,I
0.0,6.0,2.0,1.0,5.0,0.0,0.0,7.0,0.0,part_2,stop,450.0,350.0,4.0,,,,,,,,,orange,square
0.0,5.0,1.0,1.0,6.0,0.0,0.0,7.0,0.0,part_2,stop,500.0,350.0,4.0,,,,,,,,,white,circle
0.0,3.0,3.0,0.0,5.0,5.0,477.8436240158044,7.0,0.0,part_2,go,500.0,400.0,1.0,,,,,,,,,cyan,triangle
0.0,7.0,3.0,1.0,5.0,0.0,0.0,7.0,0.0,part_2,stop,500.0,400.0,4.0,,,,,,,,,gray,flipped triangle
0.0,5.0,1.0,1.0,6.0,6.0,646.3793760049157,7.0,0.0,part_2,go,550.0,400.0,1.0,,,,,,,,,white,circle
0.0,2.0,2.0,0.0,5.0,5.0,501.6552660090383,7.0,0.0,part_2,go,550.0,400.0,1.0,,,,,,,,,green,cross
0.0,2.0,2.0,0.0,5.0,5.0,615.4400490049738,8.0,0.0,part_2,go,550.0,400.0,1.0,,,,,,,,,green,cross
0.0,7.0,3.0,1.0,6.0,0.0,0.0,8.0,0.0,part_2,stop,550.0,400.0,4.0,,,,,,,,,gray,flipped triangle
0.0,1.0,1.0,0.0,6.0,6.0,580.1212630176451,8.0,0.0,part_2,go,550.0,450.0,1.0,,,,,,,,,yellow,hexagon
0.0,8.0,4.0,1.0,6.0,6.0,564.0290449955501,8.0,0.0,part_2,stop,550.0,450.0,3.0,,,,,,,,,magenta,diamond
0.0,4.0,4.0,0.0,5.0,5.0,604.699178977171,8.0,0.0,part_2,go,550.0,400.0,1.0,,,,,,,,,blue,I
0.0,2.0,2.0,0.0,5.0,5.0,330.5529129866045,8.0,0.0,part_2,go,550.0,400.0,1.0,,,,,,,,,green,cross
0.0,6.0,2.0,1.0,5.0,5.0,610.3793299989775,8.0,0.0,part_2,stop,550.0,400.0,3.0,,,,,,,,,orange,square
0.0,8.0,4.0,1.0,5.0,0.0,0.0,8.0,0.0,part_2,stop,500.0,400.0,4.0,,,,,,,,,magenta,diamond
0.0,2.0,2.0,0.0,6.0,6.0,354.7265789820812,8.0,0.0,part_2,go,550.0,400.0,1.0,,,,,,,,,green,cross
0.0,7.0,3.0,1.0,6.0,6.0,346.3739349972456,8.0,0.0,part_2,stop,550.0,400.0,3.0,,,,,,,,,gray,flipped triangle
0.0,5.0,1.0,1.0,6.0,0.0,0.0,8.0,0.0,part_2,stop,550.0,350.0,4.0,,,,,,,,,white,circle
0.0,2.0,2.0,0.0,5.0,5.0,472.8799410222564,8.0,0.0,part_2,go,550.0,400.0,1.0,,,,,,,,,green,cross
0.0,7.0,3.0,1.0,6.0,0.0,0.0,8.0,0.0,part_2,stop,550.0,400.0,4.0,,,,,,,,,gray,flipped triangle
0.0,4.0,4.0,0.0,5.0,5.0,592.1926480077673,8.0,0.0,part_2,go,550.0,450.0,1.0,,,,,,,,,blue,I
0.0,2.0,2.0,0.0,5.0,5.0,581.0914649919141,8.0,0.0,part_2,go,550.0,450.0,1.0,,,,,,,,,green,cross
0.0,6.0,2.0,1.0,5.0,5.0,613.1852630060166,8.0,0.0,part_2,stop,550.0,450.0,3.0,,,,,,,,,orange,square
0.0,2.0,2.0,0.0,6.0,6.0,326.4187129971105,8.0,0.0,part_2,go,500.0,450.0,1.0,,,,,,,,,green,cross
0.0,6.0,2.0,1.0,6.0,0.0,0.0,8.0,0.0,part_2,stop,500.0,450.0,4.0,,,,,,,,,orange,square
0.0,5.0,1.0,1.0,5.0,5.0,581.287312990753,8.0,0.0,part_2,go,500.0,500.0,1.0,,,,,,,,,white,circle
0.0,6.0,2.0,1.0,5.0,0.0,0.0,8.0,0.0,part_2,stop,500.0,500.0,4.0,,,,,,,,,orange,square
0.0,3.0,3.0,0.0,6.0,6.0,357.107256015297,8.0,0.0,part_2,go,550.0,500.0,1.0,,,,,,,,,cyan,triangle
0.0,7.0,3.0,1.0,6.0,6.0,673.4252280148212,8.0,0.0,part_2,go,550.0,500.0,1.0,,,,,,,,,gray,flipped triangle
0.0,3.0,3.0,0.0,5.0,5.0,609.8592859925702,8.0,0.0,part_2,go,550.0,500.0,1.0,,,,,,,,,cyan,triangle
0.0,4.0,4.0,0.0,6.0,6.0,411.0486499848775,8.0,0.0,part_2,go,550.0,500.0,1.0,,,,,,,,,blue,I
0.0,2.0,2.0,0.0,5.0,5.0,305.6029199797194,8.0,0.0,part_2,go,550.0,500.0,1.0,,,,,,,,,green,cross
0.0,3.0,3.0,0.0,6.0,6.0,744.4084949966054,8.0,0.0,part_2,go,550.0,500.0,1.0,,,,,,,,,cyan,triangle
0.0,1.0,1.0,0.0,5.0,5.0,703.3504089922644,8.0,0.0,part_2,go,550.0,500.0,1.0,,,,,,,,,yellow,hexagon
0.0,2.0,2.0,0.0,6.0,6.0,592.5674329919275,8.0,0.0,part_2,go,550.0,500.0,1.0,,,,,,,,,green,cross
0.0,6.0,2.0,1.0,6.0,6.0,321.4618719939608,8.0,0.0,part_2,stop,550.0,500.0,3.0,,,,,,,,,orange,square
0.0,8.0,4.0,1.0,5.0,5.0,572.9323949781246,8.0,0.0,part_2,stop,550.0,450.0,3.0,,,,,,,,,magenta,diamond
0.0,2.0,2.0,0.0,5.0,5.0,502.67814699327573,8.0,0.0,part_2,go,500.0,450.0,1.0,,,,,,,,,green,cross
0.0,8.0,4.0,1.0,5.0,0.0,0.0,8.0,0.0,part_2,stop,500.0,450.0,4.0,,,,,,,,,magenta,diamond
0.0,8.0,4.0,1.0,5.0,5.0,502.92027700925246,8.0,0.0,part_2,stop,550.0,450.0,3.0,,,,,,,,,magenta,diamond
0.0,5.0,1.0,1.0,5.0,5.0,661.0048889997415,8.0,0.0,part_2,go,500.0,450.0,1.0,,,,,,,,,white,circle
0.0,5.0,1.0,1.0,5.0,0.0,0.0,8.0,0.0,part_2,stop,500.0,450.0,4.0,,,,,,,,,white,circle
0.0,4.0,4.0,0.0,5.0,5.0,433.7010640010703,8.0,0.0,part_2,go,550.0,450.0,1.0,,,,,,,,,blue,I
0.0,1.0,1.0,0.0,7.0,3.0,1904.5913830050267,1.0,2.0,part_3,go,0.0,0.0,0.0,196.0,4.0,147.0,98.0,196.0,245.0,294.0,49.0,yellow,hexagon
0.0,2.0,2.0,0.0,7.0,5.0,1660.7773230061866,1.0,1.0,part_3,go,0.0,0.0,0.0,132.0,3.0,264.0,220.0,176.0,44.0,132.0,88.0,green,cross
0.0,2.0,2.0,0.0,7.0,3.0,1726.646933995653,1.0,1.0,part_3,go,0.0,0.0,0.0,136.0,4.0,102.0,68.0,136.0,204.0,170.0,34.0,green,cross
0.0,5.0,1.0,1.0,7.0,6.0,1232.934933010256,1.0,1.0,part_3,go,0.0,0.0,0.0,34.0,1.0,204.0,102.0,170.0,68.0,136.0,34.0,white,circle
0.0,4.0,4.0,0.0,7.0,4.0,1447.219118999783,1.0,1.0,part_3,go,0.0,0.0,0.0,204.0,6.0,170.0,102.0,136.0,204.0,68.0,34.0,blue,I
0.0,8.0,4.0,1.0,7.0,2.0,1160.319382004673,1.0,1.0,part_3,go,0.0,0.0,0.0,195.0,5.0,39.0,195.0,117.0,234.0,78.0,156.0,magenta,diamond
0.0,4.0,4.0,0.0,7.0,1.0,938.5274620144628,1.0,1.0,part_3,go,0.0,0.0,0.0,270.0,5.0,270.0,216.0,108.0,54.0,162.0,324.0,blue,I
0.0,5.0,1.0,1.0,7.0,5.0,1150.0876490026712,1.0,1.0,part_3,go,0.0,0.0,0.0,54.0,1.0,324.0,270.0,162.0,216.0,54.0,108.0,white,circle
0.0,8.0,4.0,1.0,7.0,4.0,868.0823399918154,1.0,1.0,part_3,go,0.0,0.0,0.0,170.0,5.0,68.0,102.0,136.0,170.0,204.0,34.0,magenta,diamond
0.0,6.0,2.0,1.0,7.0,6.0,623.9517779904418,1.0,1.0,part_3,go,0.0,0.0,0.0,162.0,3.0,270.0,108.0,54.0,324.0,216.0,162.0,orange,square
0.0,1.0,1.0,0.0,7.0,5.0,1055.963431019336,1.0,1.0,part_3,go,0.0,0.0,0.0,234.0,6.0,117.0,78.0,39.0,156.0,234.0,195.0,yellow,hexagon
0.0,7.0,3.0,1.0,7.0,1.0,759.5875120023265,1.0,1.0,part_3,go,0.0,0.0,0.0,196.0,4.0,196.0,49.0,245.0,147.0,98.0,294.0,gray,flipped triangle
0.0,6.0,2.0,1.0,7.0,2.0,1033.5048800043296,1.0,1.0,part_3,go,0.0,0.0,0.0,270.0,5.0,54.0,270.0,108.0,216.0,324.0,162.0,orange,square
0.0,5.0,1.0,1.0,7.0,6.0,700.0807769945823,1.0,1.0,part_3,go,0.0,0.0,0.0,39.0,1.0,156.0,78.0,117.0,234.0,195.0,39.0,white,circle
0.0,4.0,4.0,0.0,7.0,2.0,1211.7961180047132,1.0,1.0,part_3,go,0.0,0.0,0.0,234.0,6.0,78.0,234.0,195.0,156.0,39.0,117.0,blue,I
0.0,1.0,1.0,0.0,7.0,2.0,1032.36117499182,1.0,1.0,part_3,go,0.0,0.0,0.0,162.0,3.0,54.0,162.0,324.0,270.0,216.0,108.0,yellow,hexagon
0.0,7.0,3.0,1.0,7.0,6.0,894.3479789886624,1.0,1.0,part_3,go,0.0,0.0,0.0,245.0,5.0,196.0,147.0,49.0,98.0,294.0,245.0,gray,flipped triangle
0.0,5.0,1.0,1.0,7.0,1.0,928.7048889964352,1.0,1.0,part_3,go,0.0,0.0,0.0,39.0,1.0,39.0,78.0,195.0,117.0,156.0,234.0,white,circle
0.0,1.0,1.0,0.0,7.0,5.0,1154.312313999981,1.0,1.0,part_3,go,0.0,0.0,0.0,170.0,5.0,136.0,34.0,68.0,102.0,170.0,204.0,yellow,hexagon
0.0,7.0,3.0,1.0,7.0,2.0,925.6765150057618,1.0,1.0,part_3,go,0.0,0.0,0.0,324.0,6.0,216.0,324.0,108.0,270.0,54.0,162.0,gray,flipped triangle
0.0,1.0,1.0,0.0,7.0,4.0,811.5314359893091,2.0,1.0,part_3,go,0.0,0.0,0.0,147.0,3.0,245.0,196.0,98.0,147.0,49.0,294.0,yellow,hexagon
0.0,4.0,4.0,0.0,7.0,5.0,1143.7091069819871,2.0,1.0,part_3,go,0.0,0.0,0.0,294.0,6.0,147.0,196.0,49.0,98.0,294.0,245.0,blue,I
0.0,6.0,2.0,1.0,7.0,1.0,681.106264994014,2.0,1.0,part_3,go,0.0,0.0,0.0,234.0,6.0,234.0,156.0,78.0,195.0,39.0,117.0,orange,square
0.0,2.0,2.0,0.0,7.0,4.0,1106.040684011532,2.0,1.0,part_3,go,0.0,0.0,0.0,117.0,3.0,156.0,195.0,78.0,117.0,234.0,39.0,green,cross
0.0,2.0,2.0,0.0,7.0,2.0,1124.4155389722437,2.0,1.0,part_3,go,0.0,0.0,0.0,264.0,6.0,220.0,264.0,44.0,176.0,88.0,132.0,green,cross
0.0,6.0,2.0,1.0,7.0,4.0,837.7364600019064,2.0,1.0,part_3,go,0.0,0.0,0.0,102.0,3.0,204.0,34.0,68.0,102.0,170.0,136.0,orange,square
0.0,7.0,3.0,1.0,7.0,6.0,581.1598610016517,2.0,1.0,part_3,go,0.0,0.0,0.0,136.0,4.0,170.0,102.0,34.0,204.0,68.0,136.0,gray,flipped triangle
0.0,3.0,3.0,0.0,7.0,2.0,944.4500349927694,2.0,1.0,part_3,go,0.0,0.0,0.0,54.0,1.0,108.0,54.0,216.0,270.0,162.0,324.0,cyan,triangle
0.0,1.0,1.0,0.0,7.0,4.0,1185.5273239780215,2.0,1.0,part_3,go,0.0,0.0,0.0,216.0,4.0,270.0,54.0,162.0,216.0,108.0,324.0,yellow,hexagon
0.0,6.0,2.0,1.0,7.0,5.0,961.7473490070552,2.0,1.0,part_3,go,0.0,0.0,0.0,117.0,3.0,234.0,195.0,156.0,78.0,117.0,39.0,orange,square
0.0,4.0,4.0,0.0,7.0,4.0,1097.8692509816028,2.0,1.0,part_3,go,0.0,0.0,0.0,220.0,5.0,132.0,44.0,88.0,220.0,176.0,264.0,blue,I
0.0,4.0,4.0,0.0,7.0,5.0,990.536333003547,2.0,1.0,part_3,go,0.0,0.0,0.0,147.0,3.0,294.0,98.0,196.0,245.0,147.0,49.0,blue,I
0.0,3.0,3.0,0.0,7.0,2.0,837.284968001768,2.0,1.0,part_3,go,0.0,0.0,0.0,68.0,2.0,170.0,68.0,102.0,34.0,204.0,136.0,cyan,triangle
0.0,8.0,4.0,1.0,7.0,4.0,734.977082000114,2.0,1.0,part_3,go,0.0,0.0,0.0,176.0,4.0,88.0,132.0,220.0,176.0,44.0,264.0,magenta,diamond
0.0,7.0,3.0,1.0,7.0,6.0,655.5106060113758,2.0,1.0,part_3,go,0.0,0.0,0.0,204.0,6.0,170.0,102.0,34.0,68.0,136.0,204.0,gray,flipped triangle
0.0,8.0,4.0,1.0,7.0,2.0,898.2026549929287,2.0,1.0,part_3,go,0.0,0.0,0.0,39.0,1.0,195.0,39.0,78.0,156.0,234.0,117.0,magenta,diamond
0.0,6.0,2.0,1.0,7.0,4.0,1170.652526023332,2.0,1.0,part_3,go,0.0,0.0,0.0,245.0,5.0,98.0,196.0,147.0,245.0,49.0,294.0,orange,square
0.0,7.0,3.0,1.0,7.0,1.0,341.0363879811484,2.0,1.0,part_3,go,0.0,0.0,0.0,132.0,3.0,132.0,44.0,88.0,220.0,264.0,176.0,gray,flipped triangle
0.0,5.0,1.0,1.0,7.0,5.0,742.8176469984464,2.0,1.0,part_3,go,0.0,0.0,0.0,49.0,1.0,98.0,196.0,245.0,294.0,49.0,147.0,white,circle
0.0,6.0,2.0,1.0,7.0,2.0,733.9188659971114,2.0,1.0,part_3,go,0.0,0.0,0.0,49.0,1.0,98.0,49.0,196.0,245.0,147.0,294.0,orange,square
0.0,4.0,4.0,0.0,7.0,4.0,1007.2740699979477,3.0,1.0,part_3,go,0.0,0.0,0.0,234.0,6.0,78.0,39.0,117.0,234.0,156.0,195.0,blue,I
0.0,2.0,2.0,0.0,7.0,3.0,1144.5576949918177,3.0,1.0,part_3,go,0.0,0.0,0.0,147.0,3.0,245.0,49.0,147.0,98.0,294.0,196.0,green,cross
0.0,7.0,3.0,1.0,7.0,6.0,1020.5346609873232,3.0,1.0,part_3,go,0.0,0.0,0.0,162.0,3.0,324.0,270.0,54.0,216.0,108.0,162.0,gray,flipped triangle
0.0,3.0,3.0,0.0,7.0,5.0,1078.65352902445,3.0,1.0,part_3,go,0.0,0.0,0.0,220.0,5.0,132.0,176.0,44.0,264.0,220.0,88.0,cyan,triangle
0.0,2.0,2.0,0.0,7.0,2.0,1101.6597720154095,3.0,1.0,part_3,go,0.0,0.0,0.0,216.0,4.0,54.0,216.0,162.0,324.0,270.0,108.0,green,cross
0.0,1.0,1.0,0.0,7.0,1.0,749.9887180165388,3.0,1.0,part_3,go,0.0,0.0,0.0,204.0,6.0,204.0,170.0,68.0,34.0,102.0,136.0,yellow,hexagon
0.0,4.0,4.0,0.0,7.0,2.0,1097.4626099923626,3.0,1.0,part_3,go,0.0,0.0,0.0,264.0,6.0,176.0,264.0,132.0,88.0,220.0,44.0,blue,I
0.0,8.0,4.0,1.0,7.0,2.0,1314.5756750018336,3.0,1.0,part_3,go,0.0,0.0,0.0,147.0,3.0,294.0,147.0,98.0,196.0,49.0,245.0,magenta,diamond
0.0,3.0,3.0,0.0,7.0,4.0,1068.38197199977,3.0,1.0,part_3,go,0.0,0.0,0.0,220.0,5.0,132.0,44.0,88.0,220.0,176.0,264.0,cyan,triangle
0.0,2.0,2.0,0.0,7.0,2.0,763.9884869859088,3.0,1.0,part_3,go,0.0,0.0,0.0,195.0,5.0,234.0,195.0,39.0,117.0,156.0,78.0,green,cross
0.0,5.0,1.0,1.0,7.0,5.0,773.9503549819347,3.0,1.0,part_3,go,0.0,0.0,0.0,44.0,1.0,176.0,264.0,220.0,88.0,44.0,132.0,white,circle
0.0,2.0,2.0,0.0,7.0,1.0,1185.3226219827775,3.0,1.0,part_3,go,0.0,0.0,0.0,204.0,6.0,204.0,136.0,34.0,68.0,170.0,102.0,green,cross
0.0,5.0,1.0,1.0,7.0,5.0,992.5631150254048,3.0,1.0,part_3,go,0.0,0.0,0.0,68.0,2.0,102.0,204.0,136.0,34.0,68.0,170.0,white,circle
0.0,3.0,3.0,0.0,7.0,6.0,1322.309012990445,3.0,1.0,part_3,go,0.0,0.0,0.0,294.0,6.0,147.0,245.0,49.0,196.0,98.0,294.0,cyan,triangle
0.0,3.0,3.0,0.0,7.0,3.0,876.7269670206588,3.0,1.0,part_3,go,0.0,0.0,0.0,78.0,2.0,195.0,156.0,78.0,234.0,117.0,39.0,cyan,triangle
0.0,8.0,4.0,1.0,7.0,1.0,1371.800588007318,3.0,1.0,part_3,go,0.0,0.0,0.0,49.0,1.0,49.0,294.0,245.0,196.0,98.0,147.0,magenta,diamond
0.0,3.0,3.0,0.0,7.0,3.0,895.5417740216944,3.0,1.0,part_3,go,0.0,0.0,0.0,108.0,2.0,54.0,270.0,108.0,216.0,162.0,324.0,cyan,triangle
0.0,8.0,4.0,1.0,7.0,6.0,793.1196650024503,3.0,1.0,part_3,go,0.0,0.0,0.0,270.0,5.0,108.0,216.0,324.0,162.0,54.0,270.0,magenta,diamond
0.0,2.0,2.0,0.0,7.0,4.0,1056.1492429987993,3.0,1.0,part_3,go,0.0,0.0,0.0,216.0,4.0,54.0,324.0,270.0,216.0,162.0,108.0,green,cross
0.0,5.0,1.0,1.0,7.0,5.0,650.4344169807155,3.0,1.0,part_3,go,0.0,0.0,0.0,44.0,1.0,264.0,176.0,132.0,220.0,44.0,88.0,white,circle
0.0,8.0,4.0,1.0,7.0,1.0,819.0692310163286,4.0,1.0,part_3,go,0.0,0.0,0.0,220.0,5.0,220.0,176.0,132.0,44.0,264.0,88.0,magenta,diamond
0.0,1.0,1.0,0.0,7.0,3.0,828.7320499948692,4.0,1.0,part_3,go,0.0,0.0,0.0,117.0,3.0,156.0,39.0,117.0,195.0,78.0,234.0,yellow,hexagon
0.0,6.0,2.0,1.0,7.0,6.0,1136.0149700194595,4.0,1.0,part_3,go,0.0,0.0,0.0,220.0,5.0,264.0,176.0,132.0,88.0,44.0,220.0,orange,square
0.0,2.0,2.0,0.0,7.0,1.0,513.987280020956,4.0,1.0,part_3,go,0.0,0.0,0.0,294.0,6.0,294.0,98.0,147.0,245.0,49.0,196.0,green,cross
0.0,4.0,4.0,0.0,7.0,5.0,1049.1819540038705,4.0,1.0,part_3,go,0.0,0.0,0.0,324.0,6.0,54.0,216.0,108.0,270.0,324.0,162.0,blue,I
0.0,6.0,2.0,1.0,7.0,6.0,1442.984093009727,4.0,1.0,part_3,go,0.0,0.0,0.0,170.0,5.0,34.0,136.0,102.0,68.0,204.0,170.0,orange,square
0.0,8.0,4.0,1.0,7.0,1.0,750.1954369945452,4.0,1.0,part_3,go,0.0,0.0,0.0,136.0,4.0,136.0,204.0,34.0,68.0,170.0,102.0,magenta,diamond
0.0,6.0,2.0,1.0,7.0,2.0,640.6472219969146,4.0,1.0,part_3,go,0.0,0.0,0.0,44.0,1.0,132.0,44.0,220.0,88.0,264.0,176.0,orange,square
0.0,3.0,3.0,0.0,7.0,6.0,645.7931620243471,4.0,1.0,part_3,go,0.0,0.0,0.0,34.0,1.0,136.0,68.0,170.0,204.0,102.0,34.0,cyan,triangle
0.0,7.0,3.0,1.0,7.0,3.0,1131.1741310055368,4.0,1.0,part_3,go,0.0,0.0,0.0,132.0,3.0,44.0,264.0,132.0,88.0,220.0,176.0,gray,flipped triangle
0.0,1.0,1.0,0.0,7.0,2.0,1024.442003981676,4.0,1.0,part_3,go,0.0,0.0,0.0,132.0,3.0,88.0,132.0,220.0,264.0,44.0,176.0,yellow,hexagon
0.0,3.0,3.0,0.0,7.0,5.0,1285.3493570000865,4.0,1.0,part_3,go,0.0,0.0,0.0,147.0,3.0,245.0,49.0,98.0,294.0,147.0,196.0,cyan,triangle
0.0,4.0,4.0,0.0,7.0,4.0,1315.7856239995454,4.0,1.0,part_3,go,0.0,0.0,0.0,204.0,6.0,68.0,34.0,170.0,204.0,102.0,136.0,blue,I
0.0,5.0,1.0,1.0,7.0,1.0,775.9477839863393,4.0,1.0,part_3,go,0.0,0.0,0.0,54.0,1.0,54.0,270.0,324.0,216.0,162.0,108.0,white,circle
0.0,7.0,3.0,1.0,7.0,3.0,1567.1959059836809,4.0,1.0,part_3,go,0.0,0.0,0.0,117.0,3.0,39.0,78.0,117.0,234.0,195.0,156.0,gray,flipped triangle
0.0,7.0,3.0,1.0,7.0,2.0,1039.062014024239,4.0,1.0,part_3,go,0.0,0.0,0.0,234.0,6.0,156.0,234.0,39.0,117.0,195.0,78.0,gray,flipped triangle
0.0,8.0,4.0,1.0,7.0,3.0,1276.4266550075265,4.0,1.0,part_3,go,0.0,0.0,0.0,162.0,3.0,108.0,54.0,162.0,324.0,270.0,216.0,magenta,diamond
0.0,1.0,1.0,0.0,7.0,1.0,915.3161179856396,4.0,1.0,part_3,go,0.0,0.0,0.0,44.0,1.0,44.0,88.0,176.0,132.0,264.0,220.0,yellow,hexagon
0.0,5.0,1.0,1.0,7.0,2.0,942.5217169919052,4.0,1.0,part_3,go,0.0,0.0,0.0,98.0,2.0,245.0,98.0,147.0,196.0,49.0,294.0,white,circle
0.0,3.0,3.0,0.0,7.0,4.0,1109.7731039917562,4.0,1.0,part_3,go,0.0,0.0,0.0,195.0,5.0,117.0,156.0,78.0,195.0,234.0,39.0,cyan,triangle
