raw_reward_magnitude,stim_reward,stepwise_reward_magnitude,paired_with_stopping,stim_location,response,reaction_time,block,num_trial_presentations,which_phase,stop_signal_trial_type,left_SSD,right_SSD,accuracy,chosen_bidding_amount,chosen_bidding_level,possible_bid_1,possible_bid_2,possible_bid_3,possible_bid_4,possible_bid_5,possible_bid_6,color_text,shape_text
0.0,2.0,0.0,0.0,3.0,3.0,322.3037270072382,1.0,1.0,phase_1,,,,,,,,,,,,,orange,circle
112.0,6.0,1.0,1.0,2.0,2.0,293.6480749922339,1.0,1.0,phase_1,,,,,,,,,,,,,cyan,I
0.0,6.0,0.0,1.0,1.0,1.0,308.047225989867,1.0,1.0,phase_1,,,,,,,,,,,,,cyan,I
80.0,6.0,1.0,1.0,2.0,2.0,311.2033949873876,1.0,1.0,phase_1,,,,,,,,,,,,,cyan,I
183.0,7.0,2.0,1.0,2.0,2.0,270.2299630036577,1.0,1.0,phase_1,,,,,,,,,,,,,yellow,square
0.0,5.0,0.0,1.0,4.0,4.0,209.8537439887877,1.0,1.0,phase_1,,,,,,,,,,,,,magenta,cross
103.0,2.0,1.0,0.0,4.0,4.0,352.0699849759694,1.0,1.0,phase_1,,,,,,,,,,,,,orange,circle
40.0,5.0,0.5,1.0,4.0,4.0,266.3333009986672,1.0,1.0,phase_1,,,,,,,,,,,,,magenta,cross
32.0,1.0,0.5,0.0,2.0,2.0,279.540668008849,1.0,1.0,phase_1,,,,,,,,,,,,,green,diamond
412.0,4.0,4.0,0.0,2.0,2.0,267.1018870023545,1.0,1.0,phase_1,,,,,,,,,,,,,blue,hexagon
57.0,5.0,0.5,1.0,4.0,4.0,258.2114459946751,1.0,1.0,phase_1,,,,,,,,,,,,,magenta,cross
204.0,3.0,2.0,0.0,3.0,3.0,319.5588170201517,1.0,1.0,phase_1,,,,,,,,,,,,,white,flipped triangle
68.0,1.0,0.5,0.0,4.0,4.0,248.9613250072579,1.0,1.0,phase_1,,,,,,,,,,,,,green,diamond
216.0,3.0,2.0,0.0,2.0,2.0,253.6121039884165,1.0,1.0,phase_1,,,,,,,,,,,,,white,flipped triangle
225.0,7.0,2.0,1.0,3.0,3.0,322.4624820286408,1.0,1.0,phase_1,,,,,,,,,,,,,yellow,square
401.0,8.0,4.0,1.0,2.0,2.0,278.7953429797198,1.0,1.0,phase_1,,,,,,,,,,,,,gray,triangle
97.0,2.0,1.0,0.0,4.0,4.0,246.3892060040962,1.0,1.0,phase_1,,,,,,,,,,,,,orange,circle
407.0,4.0,4.0,0.0,1.0,1.0,295.8640450087841,1.0,1.0,phase_1,,,,,,,,,,,,,blue,hexagon
71.0,1.0,0.5,0.0,1.0,1.0,279.3455470236949,1.0,1.0,phase_1,,,,,,,,,,,,,green,diamond
0.0,6.0,0.0,1.0,3.0,3.0,325.0033279764466,1.0,1.0,phase_1,,,,,,,,,,,,,cyan,I
0.0,5.0,0.0,1.0,3.0,3.0,318.1273820227943,1.0,1.0,phase_1,,,,,,,,,,,,,magenta,cross
379.0,8.0,4.0,1.0,3.0,3.0,340.8637429820373,1.0,1.0,phase_1,,,,,,,,,,,,,gray,triangle
0.0,7.0,0.0,1.0,3.0,3.0,274.2264569969848,1.0,1.0,phase_1,,,,,,,,,,,,,yellow,square
85.0,2.0,1.0,0.0,1.0,1.0,340.1616190094501,1.0,1.0,phase_1,,,,,,,,,,,,,orange,circle
0.0,8.0,0.0,1.0,3.0,3.0,322.2777330083772,1.0,1.0,phase_1,,,,,,,,,,,,,gray,triangle
56.0,5.0,0.5,1.0,3.0,3.0,278.1831760075874,1.0,1.0,phase_1,,,,,,,,,,,,,magenta,cross
106.0,2.0,1.0,0.0,2.0,2.0,293.4018119995016,1.0,1.0,phase_1,,,,,,,,,,,,,orange,circle
59.0,1.0,0.5,0.0,2.0,2.0,330.4182220017537,1.0,1.0,phase_1,,,,,,,,,,,,,green,diamond
182.0,3.0,2.0,0.0,4.0,4.0,270.2247050183359,1.0,1.0,phase_1,,,,,,,,,,,,,white,flipped triangle
98.0,6.0,1.0,1.0,4.0,4.0,306.4853879914153,1.0,1.0,phase_1,,,,,,,,,,,,,cyan,I
417.0,4.0,4.0,0.0,3.0,3.0,284.708863007836,1.0,1.0,phase_1,,,,,,,,,,,,,blue,hexagon
182.0,3.0,2.0,0.0,1.0,1.0,291.7244039999787,1.0,1.0,phase_1,,,,,,,,,,,,,white,flipped triangle
186.0,7.0,2.0,1.0,2.0,2.0,321.0983970202505,1.0,1.0,phase_1,,,,,,,,,,,,,yellow,square
220.0,3.0,2.0,0.0,3.0,3.0,358.2177540229168,1.0,1.0,phase_1,,,,,,,,,,,,,white,flipped triangle
68.0,5.0,0.5,1.0,1.0,1.0,286.2504799850285,1.0,2.0,phase_1,,,,,,,,,,,,,magenta,cross
97.0,6.0,1.0,1.0,3.0,3.0,273.5898440005258,1.0,1.0,phase_1,,,,,,,,,,,,,cyan,I
35.0,5.0,0.5,1.0,2.0,2.0,263.3897159830667,1.0,1.0,phase_1,,,,,,,,,,,,,magenta,cross
0.0,6.0,0.0,1.0,1.0,1.0,283.0789489962626,1.0,1.0,phase_1,,,,,,,,,,,,,cyan,I
412.0,8.0,4.0,1.0,3.0,3.0,319.4512560148723,1.0,1.0,phase_1,,,,,,,,,,,,,gray,triangle
115.0,2.0,1.0,0.0,2.0,2.0,254.83230699319392,1.0,1.0,phase_1,,,,,,,,,,,,,orange,circle
0.0,8.0,0.0,1.0,1.0,1.0,283.6844330013264,1.0,1.0,phase_1,,,,,,,,,,,,,gray,triangle
415.0,4.0,4.0,0.0,2.0,2.0,310.0323590042535,1.0,1.0,phase_1,,,,,,,,,,,,,blue,hexagon
407.0,8.0,4.0,1.0,2.0,2.0,290.1598230237141,1.0,1.0,phase_1,,,,,,,,,,,,,gray,triangle
378.0,4.0,4.0,0.0,2.0,2.0,270.5574659921694,1.0,1.0,phase_1,,,,,,,,,,,,,blue,hexagon
0.0,2.0,0.0,0.0,3.0,3.0,292.8947760083247,1.0,1.0,phase_1,,,,,,,,,,,,,orange,circle
58.0,5.0,0.5,1.0,2.0,2.0,265.4321520240046,1.0,1.0,phase_1,,,,,,,,,,,,,magenta,cross
403.0,8.0,4.0,1.0,1.0,1.0,295.7715340016875,1.0,1.0,phase_1,,,,,,,,,,,,,gray,triangle
378.0,8.0,4.0,1.0,2.0,2.0,250.3246050036978,1.0,1.0,phase_1,,,,,,,,,,,,,gray,triangle
206.0,7.0,2.0,1.0,3.0,3.0,270.6575299962424,1.0,1.0,phase_1,,,,,,,,,,,,,yellow,square
407.0,4.0,4.0,0.0,4.0,4.0,298.7122059857938,1.0,1.0,phase_1,,,,,,,,,,,,,blue,hexagon
407.0,8.0,4.0,1.0,2.0,2.0,283.0387539870571,1.0,1.0,phase_1,,,,,,,,,,,,,gray,triangle
29.0,1.0,0.5,0.0,4.0,4.0,310.1468719833065,1.0,1.0,phase_1,,,,,,,,,,,,,green,diamond
73.0,5.0,0.5,1.0,4.0,4.0,277.5428229942918,1.0,2.0,phase_1,,,,,,,,,,,,,magenta,cross
71.0,5.0,0.5,1.0,4.0,4.0,380.8556270087138,1.0,1.0,phase_1,,,,,,,,,,,,,magenta,cross
393.0,4.0,4.0,0.0,2.0,2.0,303.0709899903741,1.0,1.0,phase_1,,,,,,,,,,,,,blue,hexagon
220.0,7.0,2.0,1.0,2.0,2.0,279.1060350136831,1.0,1.0,phase_1,,,,,,,,,,,,,yellow,square
217.0,7.0,2.0,1.0,2.0,2.0,282.1711039869115,1.0,1.0,phase_1,,,,,,,,,,,,,yellow,square
0.0,8.0,0.0,1.0,3.0,3.0,312.8056949935853,1.0,1.0,phase_1,,,,,,,,,,,,,gray,triangle
122.0,2.0,1.0,0.0,2.0,2.0,307.872250006767,1.0,1.0,phase_1,,,,,,,,,,,,,orange,circle
415.0,4.0,4.0,0.0,2.0,2.0,278.0812180135399,1.0,1.0,phase_1,,,,,,,,,,,,,blue,hexagon
191.0,3.0,2.0,0.0,2.0,2.0,323.5780840041116,1.0,1.0,phase_1,,,,,,,,,,,,,white,flipped triangle
79.0,6.0,1.0,1.0,1.0,1.0,312.2244190017227,1.0,1.0,phase_1,,,,,,,,,,,,,cyan,I
0.0,1.0,0.0,0.0,4.0,4.0,319.859846989857,1.0,1.0,phase_1,,,,,,,,,,,,,green,diamond
0.0,7.0,0.0,1.0,3.0,3.0,410.3762239974458,1.0,1.0,phase_1,,,,,,,,,,,,,yellow,square
194.0,3.0,2.0,0.0,1.0,1.0,319.5147170044947,1.0,1.0,phase_1,,,,,,,,,,,,,white,flipped triangle
207.0,3.0,2.0,0.0,2.0,2.0,299.8046510037966,1.0,1.0,phase_1,,,,,,,,,,,,,white,flipped triangle
112.0,6.0,1.0,1.0,2.0,2.0,287.1407439815812,1.0,1.0,phase_1,,,,,,,,,,,,,cyan,I
98.0,2.0,1.0,0.0,1.0,1.0,311.38864098466,1.0,1.0,phase_1,,,,,,,,,,,,,orange,circle
57.0,1.0,0.5,0.0,4.0,4.0,290.1943539909553,1.0,1.0,phase_1,,,,,,,,,,,,,green,diamond
0.0,6.0,0.0,1.0,1.0,1.0,302.9034470091574,1.0,1.0,phase_1,,,,,,,,,,,,,cyan,I
217.0,3.0,2.0,0.0,3.0,3.0,315.3387249913066,1.0,1.0,phase_1,,,,,,,,,,,,,white,flipped triangle
96.0,6.0,1.0,1.0,4.0,4.0,344.3158619920723,1.0,1.0,phase_1,,,,,,,,,,,,,cyan,I
117.0,2.0,1.0,0.0,3.0,3.0,318.6390119954012,1.0,1.0,phase_1,,,,,,,,,,,,,orange,circle
104.0,6.0,1.0,1.0,2.0,2.0,299.6352729969658,1.0,1.0,phase_1,,,,,,,,,,,,,cyan,I
225.0,3.0,2.0,0.0,3.0,3.0,286.6795260051731,1.0,1.0,phase_1,,,,,,,,,,,,,white,flipped triangle
387.0,8.0,4.0,1.0,4.0,4.0,298.1534269929398,1.0,1.0,phase_1,,,,,,,,,,,,,gray,triangle
0.0,4.0,0.0,0.0,1.0,1.0,270.5447160115,1.0,1.0,phase_1,,,,,,,,,,,,,blue,hexagon
393.0,8.0,4.0,1.0,2.0,2.0,267.0722960028797,1.0,1.0,phase_1,,,,,,,,,,,,,gray,triangle
193.0,7.0,2.0,1.0,4.0,4.0,279.743610008154,1.0,1.0,phase_1,,,,,,,,,,,,,yellow,square
33.0,1.0,0.5,0.0,1.0,1.0,302.3001730034593,1.0,1.0,phase_1,,,,,,,,,,,,,green,diamond
399.0,8.0,4.0,1.0,3.0,3.0,332.8541099908761,1.0,1.0,phase_1,,,,,,,,,,,,,gray,triangle
48.0,5.0,0.5,1.0,2.0,2.0,320.7897490065079,1.0,1.0,phase_1,,,,,,,,,,,,,magenta,cross
0.0,4.0,0.0,0.0,2.0,2.0,316.3397129974328,1.0,1.0,phase_1,,,,,,,,,,,,,blue,hexagon
223.0,3.0,2.0,0.0,2.0,2.0,279.2704360035714,1.0,1.0,phase_1,,,,,,,,,,,,,white,flipped triangle
73.0,1.0,0.5,0.0,3.0,3.0,435.5181999853812,1.0,1.0,phase_1,,,,,,,,,,,,,green,diamond
421.0,8.0,4.0,1.0,3.0,3.0,306.8277779966593,1.0,1.0,phase_1,,,,,,,,,,,,,gray,triangle
0.0,5.0,0.0,1.0,2.0,2.0,328.2831420074217,1.0,1.0,phase_1,,,,,,,,,,,,,magenta,cross
60.0,1.0,0.5,0.0,4.0,4.0,364.2892090138048,1.0,1.0,phase_1,,,,,,,,,,,,,green,diamond
0.0,2.0,0.0,0.0,2.0,2.0,286.5145139803644,1.0,1.0,phase_1,,,,,,,,,,,,,orange,circle
43.0,5.0,0.5,1.0,3.0,3.0,283.0512920045294,1.0,1.0,phase_1,,,,,,,,,,,,,magenta,cross
223.0,7.0,2.0,1.0,2.0,2.0,264.3981100118253,1.0,1.0,phase_1,,,,,,,,,,,,,yellow,square
55.0,5.0,0.5,1.0,3.0,3.0,299.9771020258777,1.0,1.0,phase_1,,,,,,,,,,,,,magenta,cross
396.0,8.0,4.0,1.0,2.0,2.0,244.5813409867696,1.0,1.0,phase_1,,,,,,,,,,,,,gray,triangle
119.0,2.0,1.0,0.0,2.0,2.0,317.7644980023615,1.0,1.0,phase_1,,,,,,,,,,,,,orange,circle
392.0,4.0,4.0,0.0,1.0,1.0,325.9965159813873,1.0,1.0,phase_1,,,,,,,,,,,,,blue,hexagon
56.0,1.0,0.5,0.0,1.0,1.0,297.1285969833843,1.0,1.0,phase_1,,,,,,,,,,,,,green,diamond
121.0,6.0,1.0,1.0,3.0,3.0,270.3265820164233,1.0,1.0,phase_1,,,,,,,,,,,,,cyan,I
0.0,7.0,0.0,1.0,2.0,2.0,306.1273870116565,1.0,1.0,phase_1,,,,,,,,,,,,,yellow,square
393.0,4.0,4.0,0.0,1.0,1.0,372.7026910055429,1.0,1.0,phase_1,,,,,,,,,,,,,blue,hexagon
0.0,4.0,0.0,0.0,4.0,4.0,282.2791769867763,1.0,2.0,phase_1,,,,,,,,,,,,,blue,hexagon
0.0,6.0,0.0,1.0,4.0,4.0,370.2714129758533,2.0,1.0,phase_1,,,,,,,,,,,,,cyan,I
421.0,8.0,4.0,1.0,2.0,2.0,332.0871430041734,2.0,1.0,phase_1,,,,,,,,,,,,,gray,triangle
175.0,7.0,2.0,1.0,2.0,2.0,296.7943229887169,2.0,1.0,phase_1,,,,,,,,,,,,,yellow,square
62.0,1.0,0.5,0.0,3.0,3.0,302.5033510057255,2.0,1.0,phase_1,,,,,,,,,,,,,green,diamond
103.0,6.0,1.0,1.0,3.0,3.0,339.6068599831778,2.0,1.0,phase_1,,,,,,,,,,,,,cyan,I
51.0,1.0,0.5,0.0,2.0,2.0,277.9675349884201,2.0,1.0,phase_1,,,,,,,,,,,,,green,diamond
82.0,6.0,1.0,1.0,2.0,2.0,301.9190499908291,2.0,1.0,phase_1,,,,,,,,,,,,,cyan,I
62.0,5.0,0.5,1.0,4.0,4.0,312.9690869827755,2.0,1.0,phase_1,,,,,,,,,,,,,magenta,cross
116.0,6.0,1.0,1.0,2.0,2.0,268.0285009846557,2.0,1.0,phase_1,,,,,,,,,,,,,cyan,I
29.0,5.0,0.5,1.0,4.0,4.0,276.8400429922621,2.0,1.0,phase_1,,,,,,,,,,,,,magenta,cross
26.0,5.0,0.5,1.0,4.0,4.0,311.1828319961205,2.0,1.0,phase_1,,,,,,,,,,,,,magenta,cross
400.0,8.0,4.0,1.0,1.0,1.0,314.9920379801187,2.0,1.0,phase_1,,,,,,,,,,,,,gray,triangle
377.0,8.0,4.0,1.0,1.0,1.0,318.4819289890583,2.0,1.0,phase_1,,,,,,,,,,,,,gray,triangle
380.0,8.0,4.0,1.0,1.0,1.0,318.6388709873426,2.0,1.0,phase_1,,,,,,,,,,,,,gray,triangle
401.0,4.0,4.0,0.0,1.0,1.0,280.8026209822856,2.0,1.0,phase_1,,,,,,,,,,,,,blue,hexagon
219.0,3.0,2.0,0.0,4.0,4.0,405.2299949980806,2.0,1.0,phase_1,,,,,,,,,,,,,white,flipped triangle
82.0,6.0,1.0,1.0,1.0,1.0,364.6094469877425,2.0,1.0,phase_1,,,,,,,,,,,,,cyan,I
46.0,1.0,0.5,0.0,1.0,1.0,297.1863769926131,2.0,1.0,phase_1,,,,,,,,,,,,,green,diamond
104.0,2.0,1.0,0.0,3.0,3.0,332.0337120094336,2.0,1.0,phase_1,,,,,,,,,,,,,orange,circle
112.0,2.0,1.0,0.0,3.0,3.0,354.5364669989794,2.0,1.0,phase_1,,,,,,,,,,,,,orange,circle
60.0,5.0,0.5,1.0,3.0,3.0,295.6656170135829,2.0,1.0,phase_1,,,,,,,,,,,,,magenta,cross
204.0,7.0,2.0,1.0,1.0,1.0,363.3661839994602,2.0,1.0,phase_1,,,,,,,,,,,,,yellow,square
0.0,3.0,0.0,0.0,1.0,1.0,391.6717450192664,2.0,1.0,phase_1,,,,,,,,,,,,,white,flipped triangle
419.0,8.0,4.0,1.0,3.0,3.0,326.6024939948693,2.0,1.0,phase_1,,,,,,,,,,,,,gray,triangle
198.0,7.0,2.0,1.0,4.0,4.0,282.5813819945324,2.0,1.0,phase_1,,,,,,,,,,,,,yellow,square
106.0,6.0,1.0,1.0,4.0,4.0,691.7999279976357,2.0,1.0,phase_1,,,,,,,,,,,,,cyan,I
399.0,4.0,4.0,0.0,4.0,4.0,307.0075059949886,2.0,1.0,phase_1,,,,,,,,,,,,,blue,hexagon
423.0,8.0,4.0,1.0,2.0,2.0,365.0332519900985,2.0,1.0,phase_1,,,,,,,,,,,,,gray,triangle
0.0,4.0,0.0,0.0,4.0,4.0,301.9131670007482,2.0,1.0,phase_1,,,,,,,,,,,,,blue,hexagon
42.0,5.0,0.5,1.0,2.0,2.0,264.3540969875175,2.0,1.0,phase_1,,,,,,,,,,,,,magenta,cross
0.0,4.0,0.0,0.0,1.0,1.0,317.7287889993749,2.0,1.0,phase_1,,,,,,,,,,,,,blue,hexagon
207.0,7.0,2.0,1.0,1.0,1.0,370.6863870029337,2.0,1.0,phase_1,,,,,,,,,,,,,yellow,square
53.0,1.0,0.5,0.0,3.0,3.0,333.4835020068567,2.0,1.0,phase_1,,,,,,,,,,,,,green,diamond
104.0,2.0,1.0,0.0,1.0,1.0,396.7552589892875,2.0,1.0,phase_1,,,,,,,,,,,,,orange,circle
0.0,3.0,0.0,0.0,1.0,1.0,296.9531540002208,2.0,1.0,phase_1,,,,,,,,,,,,,white,flipped triangle
387.0,4.0,4.0,0.0,4.0,4.0,316.8716880027205,2.0,1.0,phase_1,,,,,,,,,,,,,blue,hexagon
26.0,1.0,0.5,0.0,2.0,2.0,290.0716229924001,2.0,1.0,phase_1,,,,,,,,,,,,,green,diamond
424.0,8.0,4.0,1.0,4.0,4.0,340.2506260026712,2.0,1.0,phase_1,,,,,,,,,,,,,gray,triangle
0.0,6.0,0.0,1.0,3.0,3.0,352.6851269998587,2.0,1.0,phase_1,,,,,,,,,,,,,cyan,I
87.0,2.0,1.0,0.0,2.0,2.0,308.9292119839228,2.0,1.0,phase_1,,,,,,,,,,,,,orange,circle
0.0,3.0,0.0,0.0,3.0,3.0,317.7679679938592,2.0,1.0,phase_1,,,,,,,,,,,,,white,flipped triangle
0.0,1.0,0.0,0.0,2.0,2.0,312.5329460017383,2.0,1.0,phase_1,,,,,,,,,,,,,green,diamond
0.0,2.0,0.0,0.0,3.0,3.0,405.1619880192447,2.0,1.0,phase_1,,,,,,,,,,,,,orange,circle
74.0,5.0,0.5,1.0,3.0,3.0,328.6329700204078,2.0,1.0,phase_1,,,,,,,,,,,,,magenta,cross
186.0,7.0,2.0,1.0,4.0,4.0,391.740232007578,2.0,1.0,phase_1,,,,,,,,,,,,,yellow,square
97.0,6.0,1.0,1.0,3.0,3.0,379.5743559894617,2.0,1.0,phase_1,,,,,,,,,,,,,cyan,I
178.0,7.0,2.0,1.0,3.0,3.0,286.1347339930944,2.0,1.0,phase_1,,,,,,,,,,,,,yellow,square
82.0,2.0,1.0,0.0,4.0,4.0,286.5087050013244,2.0,1.0,phase_1,,,,,,,,,,,,,orange,circle
0.0,8.0,0.0,1.0,4.0,4.0,273.3290939941071,2.0,1.0,phase_1,,,,,,,,,,,,,gray,triangle
201.0,3.0,2.0,0.0,1.0,1.0,317.3887349839788,2.0,1.0,phase_1,,,,,,,,,,,,,white,flipped triangle
79.0,2.0,1.0,0.0,3.0,3.0,314.6733969915658,2.0,1.0,phase_1,,,,,,,,,,,,,orange,circle
175.0,3.0,2.0,0.0,3.0,3.0,304.4626049813814,2.0,1.0,phase_1,,,,,,,,,,,,,white,flipped triangle
43.0,1.0,0.5,0.0,3.0,3.0,300.837324000895,2.0,1.0,phase_1,,,,,,,,,,,,,green,diamond
105.0,2.0,1.0,0.0,4.0,4.0,322.8887919976841,2.0,1.0,phase_1,,,,,,,,,,,,,orange,circle
96.0,2.0,1.0,0.0,4.0,4.0,278.0691579973791,2.0,1.0,phase_1,,,,,,,,,,,,,orange,circle
196.0,7.0,2.0,1.0,2.0,2.0,305.125576996943,2.0,1.0,phase_1,,,,,,,,,,,,,yellow,square
0.0,5.0,0.0,1.0,2.0,2.0,301.5078390017152,2.0,1.0,phase_1,,,,,,,,,,,,,magenta,cross
0.0,8.0,0.0,1.0,2.0,2.0,450.7019550073892,2.0,1.0,phase_1,,,,,,,,,,,,,gray,triangle
54.0,5.0,0.5,1.0,3.0,3.0,328.7238900084048,2.0,1.0,phase_1,,,,,,,,,,,,,magenta,cross
104.0,6.0,1.0,1.0,4.0,4.0,269.874007004546,2.0,1.0,phase_1,,,,,,,,,,,,,cyan,I
414.0,4.0,4.0,0.0,1.0,1.0,322.2151339869015,2.0,1.0,phase_1,,,,,,,,,,,,,blue,hexagon
66.0,1.0,0.5,0.0,1.0,1.0,269.1211240016855,2.0,1.0,phase_1,,,,,,,,,,,,,green,diamond
0.0,3.0,0.0,0.0,2.0,2.0,283.9017809892539,2.0,1.0,phase_1,,,,,,,,,,,,,white,flipped triangle
0.0,1.0,0.0,0.0,4.0,4.0,361.1233860137872,2.0,1.0,phase_1,,,,,,,,,,,,,green,diamond
122.0,6.0,1.0,1.0,3.0,3.0,373.0425670219119,2.0,1.0,phase_1,,,,,,,,,,,,,cyan,I
121.0,2.0,1.0,0.0,4.0,4.0,327.1148030180484,2.0,1.0,phase_1,,,,,,,,,,,,,orange,circle
43.0,1.0,0.5,0.0,2.0,2.0,262.8209659887943,2.0,1.0,phase_1,,,,,,,,,,,,,green,diamond
74.0,1.0,0.5,0.0,3.0,3.0,297.286058019381,2.0,1.0,phase_1,,,,,,,,,,,,,green,diamond
105.0,6.0,1.0,1.0,3.0,3.0,329.2970409966074,2.0,1.0,phase_1,,,,,,,,,,,,,cyan,I
201.0,7.0,2.0,1.0,3.0,3.0,300.8124750049319,2.0,1.0,phase_1,,,,,,,,,,,,,yellow,square
182.0,7.0,2.0,1.0,4.0,4.0,425.3057499881834,2.0,1.0,phase_1,,,,,,,,,,,,,yellow,square
83.0,6.0,1.0,1.0,1.0,1.0,436.9067520019598,2.0,1.0,phase_1,,,,,,,,,,,,,cyan,I
204.0,3.0,2.0,0.0,3.0,3.0,314.4769890059251,2.0,1.0,phase_1,,,,,,,,,,,,,white,flipped triangle
87.0,2.0,1.0,0.0,1.0,1.0,390.5926060106139,2.0,1.0,phase_1,,,,,,,,,,,,,orange,circle
0.0,8.0,0.0,1.0,2.0,2.0,329.6369340096134,2.0,1.0,phase_1,,,,,,,,,,,,,gray,triangle
83.0,2.0,1.0,0.0,1.0,1.0,407.5626019912306,2.0,1.0,phase_1,,,,,,,,,,,,,orange,circle
391.0,8.0,4.0,1.0,1.0,1.0,413.3496119757183,2.0,1.0,phase_1,,,,,,,,,,,,,gray,triangle
222.0,7.0,2.0,1.0,3.0,3.0,386.9793940102681,2.0,1.0,phase_1,,,,,,,,,,,,,yellow,square
383.0,8.0,4.0,1.0,4.0,4.0,327.0637079840526,2.0,1.0,phase_1,,,,,,,,,,,,,gray,triangle
201.0,3.0,2.0,0.0,2.0,2.0,306.6117790003773,2.0,1.0,phase_1,,,,,,,,,,,,,white,flipped triangle
27.0,1.0,0.5,0.0,3.0,3.0,375.4400039906613,2.0,1.0,phase_1,,,,,,,,,,,,,green,diamond
0.0,7.0,0.0,1.0,1.0,1.0,293.908444000408,2.0,1.0,phase_1,,,,,,,,,,,,,yellow,square
418.0,4.0,4.0,0.0,2.0,2.0,314.4499690097291,2.0,1.0,phase_1,,,,,,,,,,,,,blue,hexagon
0.0,1.0,0.0,0.0,4.0,4.0,379.5146879856474,2.0,1.0,phase_1,,,,,,,,,,,,,green,diamond
0.0,6.0,0.0,1.0,2.0,2.0,411.5326580067631,2.0,1.0,phase_1,,,,,,,,,,,,,cyan,I
211.0,7.0,2.0,1.0,3.0,3.0,392.08857002086,2.0,1.0,phase_1,,,,,,,,,,,,,yellow,square
101.0,6.0,1.0,1.0,1.0,1.0,361.7058719974011,2.0,1.0,phase_1,,,,,,,,,,,,,cyan,I
0.0,1.0,0.0,0.0,2.0,2.0,265.1370239909738,2.0,1.0,phase_1,,,,,,,,,,,,,green,diamond
34.0,5.0,0.5,1.0,4.0,4.0,293.1230459944345,2.0,1.0,phase_1,,,,,,,,,,,,,magenta,cross
105.0,2.0,1.0,0.0,4.0,4.0,305.6406060059089,2.0,1.0,phase_1,,,,,,,,,,,,,orange,circle
412.0,4.0,4.0,0.0,2.0,2.0,285.1981179846916,2.0,1.0,phase_1,,,,,,,,,,,,,blue,hexagon
63.0,5.0,0.5,1.0,1.0,1.0,306.8044469982851,2.0,1.0,phase_1,,,,,,,,,,,,,magenta,cross
0.0,1.0,0.0,0.0,1.0,1.0,280.7189410086721,2.0,1.0,phase_1,,,,,,,,,,,,,green,diamond
32.0,5.0,0.5,1.0,3.0,3.0,316.852777992608,2.0,1.0,phase_1,,,,,,,,,,,,,magenta,cross
0.0,1.0,0.0,0.0,4.0,4.0,291.0959319851827,2.0,1.0,phase_1,,,,,,,,,,,,,green,diamond
66.0,5.0,0.5,1.0,1.0,1.0,311.9305429863743,2.0,1.0,phase_1,,,,,,,,,,,,,magenta,cross
112.0,6.0,1.0,1.0,1.0,1.0,328.4522329922765,2.0,1.0,phase_1,,,,,,,,,,,,,cyan,I
99.0,2.0,1.0,0.0,2.0,2.0,325.8496149792336,2.0,1.0,phase_1,,,,,,,,,,,,,orange,circle
177.0,3.0,2.0,0.0,1.0,1.0,305.9696109849028,2.0,1.0,phase_1,,,,,,,,,,,,,white,flipped triangle
59.0,5.0,0.5,1.0,2.0,2.0,266.073532984592,2.0,1.0,phase_1,,,,,,,,,,,,,magenta,cross
224.0,7.0,2.0,1.0,1.0,1.0,321.9810659938957,3.0,1.0,phase_1,,,,,,,,,,,,,yellow,square
206.0,3.0,2.0,0.0,2.0,2.0,255.88049599900842,3.0,1.0,phase_1,,,,,,,,,,,,,white,flipped triangle
183.0,3.0,2.0,0.0,4.0,4.0,260.3849669976625,3.0,1.0,phase_1,,,,,,,,,,,,,white,flipped triangle
379.0,8.0,4.0,1.0,4.0,4.0,277.351313008694,3.0,2.0,phase_1,,,,,,,,,,,,,gray,triangle
211.0,7.0,2.0,1.0,1.0,1.0,306.7149780108593,3.0,1.0,phase_1,,,,,,,,,,,,,yellow,square
0.0,2.0,0.0,0.0,1.0,1.0,281.491964997258,3.0,1.0,phase_1,,,,,,,,,,,,,orange,circle
403.0,4.0,4.0,0.0,1.0,1.0,269.6989350079093,3.0,1.0,phase_1,,,,,,,,,,,,,blue,hexagon
0.0,6.0,0.0,1.0,2.0,2.0,272.3517449921928,3.0,1.0,phase_1,,,,,,,,,,,,,cyan,I
396.0,4.0,4.0,0.0,2.0,2.0,300.4708279913757,3.0,1.0,phase_1,,,,,,,,,,,,,blue,hexagon
0.0,4.0,0.0,0.0,2.0,2.0,313.7110980169382,3.0,1.0,phase_1,,,,,,,,,,,,,blue,hexagon
119.0,6.0,1.0,1.0,4.0,4.0,321.738553000614,3.0,1.0,phase_1,,,,,,,,,,,,,cyan,I
187.0,7.0,2.0,1.0,4.0,4.0,298.2506880071014,3.0,1.0,phase_1,,,,,,,,,,,,,yellow,square
104.0,6.0,1.0,1.0,4.0,4.0,282.2560209897347,3.0,1.0,phase_1,,,,,,,,,,,,,cyan,I
380.0,4.0,4.0,0.0,4.0,4.0,286.6263220203109,3.0,1.0,phase_1,,,,,,,,,,,,,blue,hexagon
385.0,8.0,4.0,1.0,1.0,1.0,313.6481739929877,3.0,1.0,phase_1,,,,,,,,,,,,,gray,triangle
26.0,1.0,0.5,0.0,3.0,3.0,317.9722159984521,3.0,1.0,phase_1,,,,,,,,,,,,,green,diamond
0.0,3.0,0.0,0.0,1.0,1.0,330.254683009116,3.0,1.0,phase_1,,,,,,,,,,,,,white,flipped triangle
204.0,7.0,2.0,1.0,1.0,1.0,312.5796499953139,3.0,1.0,phase_1,,,,,,,,,,,,,yellow,square
35.0,1.0,0.5,0.0,2.0,2.0,310.9306079859379,3.0,1.0,phase_1,,,,,,,,,,,,,green,diamond
176.0,3.0,2.0,0.0,2.0,2.0,353.939018008532,3.0,1.0,phase_1,,,,,,,,,,,,,white,flipped triangle
98.0,6.0,1.0,1.0,2.0,2.0,351.2824240024201,3.0,1.0,phase_1,,,,,,,,,,,,,cyan,I
421.0,4.0,4.0,0.0,3.0,3.0,419.8968279815744,3.0,1.0,phase_1,,,,,,,,,,,,,blue,hexagon
0.0,5.0,0.0,1.0,3.0,3.0,333.9094629918691,3.0,1.0,phase_1,,,,,,,,,,,,,magenta,cross
211.0,3.0,2.0,0.0,4.0,4.0,324.7357100190129,3.0,1.0,phase_1,,,,,,,,,,,,,white,flipped triangle
27.0,5.0,0.5,1.0,3.0,3.0,491.0839710209984,3.0,1.0,phase_1,,,,,,,,,,,,,magenta,cross
71.0,1.0,0.5,0.0,4.0,4.0,437.5933040282689,3.0,1.0,phase_1,,,,,,,,,,,,,green,diamond
121.0,6.0,1.0,1.0,3.0,3.0,320.7795470079873,3.0,1.0,phase_1,,,,,,,,,,,,,cyan,I
0.0,3.0,0.0,0.0,3.0,3.0,325.9965440083761,3.0,1.0,phase_1,,,,,,,,,,,,,white,flipped triangle
87.0,6.0,1.0,1.0,2.0,2.0,354.0853949962184,3.0,1.0,phase_1,,,,,,,,,,,,,cyan,I
423.0,4.0,4.0,0.0,4.0,4.0,306.4122300129384,3.0,1.0,phase_1,,,,,,,,,,,,,blue,hexagon
73.0,1.0,0.5,0.0,4.0,4.0,236.1285469960421,3.0,1.0,phase_1,,,,,,,,,,,,,green,diamond
0.0,8.0,0.0,1.0,3.0,3.0,321.5223910228815,3.0,1.0,phase_1,,,,,,,,,,,,,gray,triangle
417.0,8.0,4.0,1.0,1.0,1.0,317.728515015915,3.0,1.0,phase_1,,,,,,,,,,,,,gray,triangle
43.0,5.0,0.5,1.0,1.0,1.0,355.4408119816798,3.0,1.0,phase_1,,,,,,,,,,,,,magenta,cross
0.0,1.0,0.0,0.0,1.0,1.0,294.7777509980369,3.0,1.0,phase_1,,,,,,,,,,,,,green,diamond
385.0,4.0,4.0,0.0,3.0,3.0,374.7417679987848,3.0,1.0,phase_1,,,,,,,,,,,,,blue,hexagon
415.0,8.0,4.0,1.0,3.0,3.0,395.0110199803021,3.0,1.0,phase_1,,,,,,,,,,,,,gray,triangle
414.0,8.0,4.0,1.0,4.0,4.0,270.184294990031,3.0,1.0,phase_1,,,,,,,,,,,,,gray,triangle
177.0,7.0,2.0,1.0,4.0,4.0,303.40035201516,3.0,2.0,phase_1,,,,,,,,,,,,,yellow,square
105.0,6.0,1.0,1.0,1.0,1.0,342.158641986316,3.0,1.0,phase_1,,,,,,,,,,,,,cyan,I
198.0,3.0,2.0,0.0,1.0,1.0,327.0783070183825,3.0,1.0,phase_1,,,,,,,,,,,,,white,flipped triangle
0.0,7.0,0.0,1.0,4.0,4.0,294.09634100738907,3.0,1.0,phase_1,,,,,,,,,,,,,yellow,square
27.0,1.0,0.5,0.0,2.0,2.0,368.2980840094387,3.0,1.0,phase_1,,,,,,,,,,,,,green,diamond
103.0,2.0,1.0,0.0,3.0,3.0,343.9534140052274,3.0,1.0,phase_1,,,,,,,,,,,,,orange,circle
36.0,1.0,0.5,0.0,2.0,2.0,343.4095370175782,3.0,2.0,phase_1,,,,,,,,,,,,,green,diamond
424.0,4.0,4.0,0.0,4.0,4.0,309.5173939946107,3.0,1.0,phase_1,,,,,,,,,,,,,blue,hexagon
0.0,8.0,0.0,1.0,2.0,2.0,289.3067009863443,3.0,1.0,phase_1,,,,,,,,,,,,,gray,triangle
423.0,8.0,4.0,1.0,1.0,1.0,316.8206370028201,3.0,1.0,phase_1,,,,,,,,,,,,,gray,triangle
425.0,4.0,4.0,0.0,1.0,1.0,363.14461499569,3.0,1.0,phase_1,,,,,,,,,,,,,blue,hexagon
0.0,7.0,0.0,1.0,2.0,2.0,289.5503519976046,3.0,1.0,phase_1,,,,,,,,,,,,,yellow,square
186.0,3.0,2.0,0.0,4.0,4.0,277.1611280040815,3.0,1.0,phase_1,,,,,,,,,,,,,white,flipped triangle
0.0,5.0,0.0,1.0,3.0,3.0,305.2071790152695,3.0,1.0,phase_1,,,,,,,,,,,,,magenta,cross
192.0,7.0,2.0,1.0,2.0,2.0,293.6143649858422,3.0,1.0,phase_1,,,,,,,,,,,,,yellow,square
62.0,5.0,0.5,1.0,1.0,1.0,308.7523170106578,3.0,1.0,phase_1,,,,,,,,,,,,,magenta,cross
178.0,3.0,2.0,0.0,2.0,2.0,325.5741570028476,3.0,1.0,phase_1,,,,,,,,,,,,,white,flipped triangle
418.0,8.0,4.0,1.0,4.0,4.0,308.6106160189956,3.0,1.0,phase_1,,,,,,,,,,,,,gray,triangle
0.0,2.0,0.0,0.0,3.0,3.0,438.8168919831514,3.0,1.0,phase_1,,,,,,,,,,,,,orange,circle
193.0,3.0,2.0,0.0,3.0,3.0,371.4012519922107,3.0,1.0,phase_1,,,,,,,,,,,,,white,flipped triangle
26.0,5.0,0.5,1.0,2.0,2.0,314.8972390044946,3.0,1.0,phase_1,,,,,,,,,,,,,magenta,cross
383.0,4.0,4.0,0.0,2.0,2.0,342.6199789973907,3.0,1.0,phase_1,,,,,,,,,,,,,blue,hexagon
35.0,5.0,0.5,1.0,2.0,2.0,313.6427460121922,3.0,1.0,phase_1,,,,,,,,,,,,,magenta,cross
412.0,8.0,4.0,1.0,1.0,1.0,313.5514130117371,3.0,1.0,phase_1,,,,,,,,,,,,,gray,triangle
51.0,5.0,0.5,1.0,3.0,3.0,302.7644270041492,3.0,1.0,phase_1,,,,,,,,,,,,,magenta,cross
207.0,3.0,2.0,0.0,4.0,4.0,288.7276760011446,3.0,1.0,phase_1,,,,,,,,,,,,,white,flipped triangle
187.0,3.0,2.0,0.0,3.0,3.0,316.9827200181316,3.0,1.0,phase_1,,,,,,,,,,,,,white,flipped triangle
0.0,5.0,0.0,1.0,3.0,3.0,530.771794001339,3.0,1.0,phase_1,,,,,,,,,,,,,magenta,cross
112.0,2.0,1.0,0.0,4.0,4.0,309.6417880151421,3.0,1.0,phase_1,,,,,,,,,,,,,orange,circle
377.0,4.0,4.0,0.0,3.0,3.0,348.9258039917331,3.0,1.0,phase_1,,,,,,,,,,,,,blue,hexagon
0.0,5.0,0.0,1.0,1.0,1.0,352.7742720034439,3.0,1.0,phase_1,,,,,,,,,,,,,magenta,cross
415.0,8.0,4.0,1.0,2.0,2.0,379.3371620122343,3.0,1.0,phase_1,,,,,,,,,,,,,gray,triangle
36.0,5.0,0.5,1.0,4.0,4.0,419.8051599960308,3.0,1.0,phase_1,,,,,,,,,,,,,magenta,cross
222.0,3.0,2.0,0.0,1.0,1.0,448.6449370160699,3.0,1.0,phase_1,,,,,,,,,,,,,white,flipped triangle
421.0,4.0,4.0,0.0,4.0,4.0,300.9932559798471,3.0,1.0,phase_1,,,,,,,,,,,,,blue,hexagon
90.0,2.0,1.0,0.0,3.0,3.0,391.1539599939715,3.0,1.0,phase_1,,,,,,,,,,,,,orange,circle
217.0,7.0,2.0,1.0,1.0,1.0,370.6596010015346,3.0,1.0,phase_1,,,,,,,,,,,,,yellow,square
379.0,4.0,4.0,0.0,3.0,3.0,344.6267870021984,3.0,1.0,phase_1,,,,,,,,,,,,,blue,hexagon
377.0,4.0,4.0,0.0,1.0,1.0,285.1786169921979,3.0,1.0,phase_1,,,,,,,,,,,,,blue,hexagon
194.0,3.0,2.0,0.0,4.0,4.0,284.6439899876714,3.0,1.0,phase_1,,,,,,,,,,,,,white,flipped triangle
54.0,1.0,0.5,0.0,3.0,3.0,342.2550759860314,3.0,1.0,phase_1,,,,,,,,,,,,,green,diamond
27.0,1.0,0.5,0.0,4.0,4.0,308.9594639895949,3.0,1.0,phase_1,,,,,,,,,,,,,green,diamond
181.0,3.0,2.0,0.0,4.0,4.0,290.3619430144317,3.0,1.0,phase_1,,,,,,,,,,,,,white,flipped triangle
0.0,3.0,0.0,0.0,3.0,3.0,309.0310039988253,3.0,1.0,phase_1,,,,,,,,,,,,,white,flipped triangle
86.0,2.0,1.0,0.0,2.0,2.0,307.0267740113195,3.0,1.0,phase_1,,,,,,,,,,,,,orange,circle
97.0,2.0,1.0,0.0,1.0,1.0,309.1055850090924,3.0,1.0,phase_1,,,,,,,,,,,,,orange,circle
68.0,1.0,0.5,0.0,3.0,3.0,300.8779109804891,3.0,1.0,phase_1,,,,,,,,,,,,,green,diamond
69.0,5.0,0.5,1.0,4.0,4.0,265.9096679999493,3.0,1.0,phase_1,,,,,,,,,,,,,magenta,cross
122.0,6.0,1.0,1.0,1.0,1.0,309.3971819907892,3.0,1.0,phase_1,,,,,,,,,,,,,cyan,I
117.0,6.0,1.0,1.0,3.0,3.0,345.9038839791901,3.0,1.0,phase_1,,,,,,,,,,,,,cyan,I
377.0,4.0,4.0,0.0,4.0,4.0,333.236175996717,3.0,1.0,phase_1,,,,,,,,,,,,,blue,hexagon
216.0,7.0,2.0,1.0,4.0,4.0,341.1769619851839,3.0,1.0,phase_1,,,,,,,,,,,,,yellow,square
189.0,7.0,2.0,1.0,1.0,1.0,305.3124260040931,3.0,1.0,phase_1,,,,,,,,,,,,,yellow,square
0.0,7.0,0.0,1.0,3.0,3.0,302.5068569986615,3.0,1.0,phase_1,,,,,,,,,,,,,yellow,square
77.0,6.0,1.0,1.0,2.0,2.0,321.7076500004623,3.0,1.0,phase_1,,,,,,,,,,,,,cyan,I
46.0,5.0,0.5,1.0,1.0,1.0,300.4963269922882,3.0,1.0,phase_1,,,,,,,,,,,,,magenta,cross
0.0,4.0,0.0,0.0,1.0,1.0,306.9324730022345,3.0,1.0,phase_1,,,,,,,,,,,,,blue,hexagon
78.0,2.0,1.0,0.0,3.0,3.0,296.8831220059655,3.0,1.0,phase_1,,,,,,,,,,,,,orange,circle
101.0,2.0,1.0,0.0,4.0,4.0,296.9263629929628,3.0,2.0,phase_1,,,,,,,,,,,,,orange,circle
122.0,2.0,1.0,0.0,2.0,2.0,326.7187810270116,3.0,1.0,phase_1,,,,,,,,,,,,,orange,circle
55.0,1.0,0.5,0.0,1.0,1.0,321.9701970228925,3.0,1.0,phase_1,,,,,,,,,,,,,green,diamond
381.0,4.0,4.0,0.0,4.0,4.0,325.1333879888989,3.0,1.0,phase_1,,,,,,,,,,,,,blue,hexagon
379.0,4.0,4.0,0.0,1.0,1.0,465.3252580028493,4.0,1.0,phase_1,,,,,,,,,,,,,blue,hexagon
73.0,5.0,0.5,1.0,3.0,3.0,308.8022570009343,4.0,1.0,phase_1,,,,,,,,,,,,,magenta,cross
383.0,8.0,4.0,1.0,4.0,4.0,296.6603240056429,4.0,1.0,phase_1,,,,,,,,,,,,,gray,triangle
210.0,7.0,2.0,1.0,4.0,4.0,287.7552239806391,4.0,1.0,phase_1,,,,,,,,,,,,,yellow,square
219.0,7.0,2.0,1.0,4.0,4.0,285.4340460035018,4.0,1.0,phase_1,,,,,,,,,,,,,yellow,square
63.0,1.0,0.5,0.0,2.0,2.0,271.588008996332,4.0,1.0,phase_1,,,,,,,,,,,,,green,diamond
403.0,8.0,4.0,1.0,2.0,2.0,307.7674090163782,4.0,1.0,phase_1,,,,,,,,,,,,,gray,triangle
0.0,7.0,0.0,1.0,1.0,1.0,546.9223510008305,4.0,1.0,phase_1,,,,,,,,,,,,,yellow,square
189.0,3.0,2.0,0.0,3.0,3.0,381.1809970065951,4.0,1.0,phase_1,,,,,,,,,,,,,white,flipped triangle
194.0,7.0,2.0,1.0,1.0,1.0,281.3921269844286,4.0,1.0,phase_1,,,,,,,,,,,,,yellow,square
377.0,8.0,4.0,1.0,4.0,4.0,297.6064639806282,4.0,1.0,phase_1,,,,,,,,,,,,,gray,triangle
80.0,2.0,1.0,0.0,3.0,3.0,309.0070220059715,4.0,1.0,phase_1,,,,,,,,,,,,,orange,circle
0.0,4.0,0.0,0.0,2.0,2.0,321.4038439909927,4.0,1.0,phase_1,,,,,,,,,,,,,blue,hexagon
425.0,8.0,4.0,1.0,3.0,3.0,358.926213986706,4.0,1.0,phase_1,,,,,,,,,,,,,gray,triangle
0.0,5.0,0.0,1.0,4.0,4.0,321.2958019867074,4.0,1.0,phase_1,,,,,,,,,,,,,magenta,cross
112.0,2.0,1.0,0.0,3.0,3.0,302.358898014063,4.0,1.0,phase_1,,,,,,,,,,,,,orange,circle
201.0,7.0,2.0,1.0,1.0,1.0,309.7555860003922,4.0,1.0,phase_1,,,,,,,,,,,,,yellow,square
0.0,4.0,0.0,0.0,4.0,4.0,302.9601259913761,4.0,1.0,phase_1,,,,,,,,,,,,,blue,hexagon
219.0,3.0,2.0,0.0,1.0,1.0,339.7585299971979,4.0,1.0,phase_1,,,,,,,,,,,,,white,flipped triangle
189.0,7.0,2.0,1.0,3.0,3.0,284.6763629931956,4.0,1.0,phase_1,,,,,,,,,,,,,yellow,square
0.0,1.0,0.0,0.0,2.0,2.0,317.9520739940926,4.0,1.0,phase_1,,,,,,,,,,,,,green,diamond
42.0,1.0,0.5,0.0,1.0,1.0,282.229753996944,4.0,1.0,phase_1,,,,,,,,,,,,,green,diamond
62.0,1.0,0.5,0.0,4.0,4.0,266.644448012812,4.0,1.0,phase_1,,,,,,,,,,,,,green,diamond
104.0,2.0,1.0,0.0,2.0,2.0,252.7622199850157,4.0,1.0,phase_1,,,,,,,,,,,,,orange,circle
103.0,6.0,1.0,1.0,1.0,1.0,330.5024020082783,4.0,1.0,phase_1,,,,,,,,,,,,,cyan,I
66.0,1.0,0.5,0.0,1.0,1.0,293.7593359965831,4.0,1.0,phase_1,,,,,,,,,,,,,green,diamond
115.0,6.0,1.0,1.0,4.0,4.0,387.2270389983896,4.0,1.0,phase_1,,,,,,,,,,,,,cyan,I
381.0,8.0,4.0,1.0,3.0,3.0,366.4400779816787,4.0,1.0,phase_1,,,,,,,,,,,,,gray,triangle
87.0,6.0,1.0,1.0,4.0,4.0,309.5780459989328,4.0,1.0,phase_1,,,,,,,,,,,,,cyan,I
0.0,7.0,0.0,1.0,1.0,1.0,282.8911849937867,4.0,1.0,phase_1,,,,,,,,,,,,,yellow,square
0.0,7.0,0.0,1.0,4.0,4.0,260.2439300098922,4.0,1.0,phase_1,,,,,,,,,,,,,yellow,square
58.0,1.0,0.5,0.0,1.0,1.0,297.6267250196542,4.0,1.0,phase_1,,,,,,,,,,,,,green,diamond
116.0,2.0,1.0,0.0,1.0,1.0,333.4918179898523,4.0,1.0,phase_1,,,,,,,,,,,,,orange,circle
0.0,2.0,0.0,0.0,2.0,2.0,293.6810840037651,4.0,1.0,phase_1,,,,,,,,,,,,,orange,circle
194.0,7.0,2.0,1.0,2.0,2.0,264.0371509769466,4.0,1.0,phase_1,,,,,,,,,,,,,yellow,square
181.0,7.0,2.0,1.0,3.0,3.0,339.6410099812783,4.0,1.0,phase_1,,,,,,,,,,,,,yellow,square
217.0,3.0,2.0,0.0,2.0,2.0,272.463946021162,4.0,1.0,phase_1,,,,,,,,,,,,,white,flipped triangle
97.0,6.0,1.0,1.0,1.0,1.0,390.7803619804326,4.0,1.0,phase_1,,,,,,,,,,,,,cyan,I
0.0,2.0,0.0,0.0,4.0,4.0,338.3433489943854,4.0,1.0,phase_1,,,,,,,,,,,,,orange,circle
224.0,3.0,2.0,0.0,1.0,1.0,366.2426570081152,4.0,1.0,phase_1,,,,,,,,,,,,,white,flipped triangle
77.0,2.0,1.0,0.0,1.0,1.0,307.3567800165619,4.0,1.0,phase_1,,,,,,,,,,,,,orange,circle
211.0,3.0,2.0,0.0,1.0,1.0,273.4912269806955,4.0,1.0,phase_1,,,,,,,,,,,,,white,flipped triangle
71.0,5.0,0.5,1.0,1.0,1.0,292.0121409988496,4.0,1.0,phase_1,,,,,,,,,,,,,magenta,cross
0.0,3.0,0.0,0.0,2.0,2.0,353.3641500107478,4.0,1.0,phase_1,,,,,,,,,,,,,white,flipped triangle
0.0,8.0,0.0,1.0,4.0,4.0,357.8293739992659,4.0,1.0,phase_1,,,,,,,,,,,,,gray,triangle
33.0,5.0,0.5,1.0,2.0,2.0,354.5921640179585,4.0,1.0,phase_1,,,,,,,,,,,,,magenta,cross
99.0,6.0,1.0,1.0,4.0,4.0,290.0070180185139,4.0,1.0,phase_1,,,,,,,,,,,,,cyan,I
391.0,4.0,4.0,0.0,2.0,2.0,278.1180040037725,4.0,1.0,phase_1,,,,,,,,,,,,,blue,hexagon
186.0,3.0,2.0,0.0,1.0,1.0,288.8170889928005,4.0,1.0,phase_1,,,,,,,,,,,,,white,flipped triangle
90.0,6.0,1.0,1.0,1.0,1.0,461.3643409975339,4.0,1.0,phase_1,,,,,,,,,,,,,cyan,I
403.0,4.0,4.0,0.0,1.0,1.0,330.3000669984612,4.0,1.0,phase_1,,,,,,,,,,,,,blue,hexagon
189.0,3.0,2.0,0.0,4.0,4.0,342.5246289989445,4.0,1.0,phase_1,,,,,,,,,,,,,white,flipped triangle
423.0,4.0,4.0,0.0,3.0,3.0,342.4965779995546,4.0,1.0,phase_1,,,,,,,,,,,,,blue,hexagon
93.0,6.0,1.0,1.0,3.0,3.0,297.2099450125824,4.0,1.0,phase_1,,,,,,,,,,,,,cyan,I
210.0,3.0,2.0,0.0,3.0,3.0,605.6709800031967,4.0,1.0,phase_1,,,,,,,,,,,,,white,flipped triangle
0.0,1.0,0.0,0.0,4.0,4.0,339.2060670012142,4.0,1.0,phase_1,,,,,,,,,,,,,green,diamond
192.0,3.0,2.0,0.0,2.0,2.0,294.5325459877495,4.0,1.0,phase_1,,,,,,,,,,,,,white,flipped triangle
176.0,7.0,2.0,1.0,3.0,3.0,306.8444280070252,4.0,1.0,phase_1,,,,,,,,,,,,,yellow,square
191.0,7.0,2.0,1.0,4.0,4.0,328.0681979958899,4.0,1.0,phase_1,,,,,,,,,,,,,yellow,square
0.0,6.0,0.0,1.0,3.0,3.0,334.8908039915841,4.0,1.0,phase_1,,,,,,,,,,,,,cyan,I
85.0,6.0,1.0,1.0,2.0,2.0,354.832571989391,4.0,1.0,phase_1,,,,,,,,,,,,,cyan,I
182.0,7.0,2.0,1.0,3.0,3.0,293.3065140096005,4.0,1.0,phase_1,,,,,,,,,,,,,yellow,square
377.0,8.0,4.0,1.0,4.0,4.0,354.4656899757683,4.0,1.0,phase_1,,,,,,,,,,,,,gray,triangle
93.0,2.0,1.0,0.0,1.0,1.0,362.5654040079098,4.0,1.0,phase_1,,,,,,,,,,,,,orange,circle
69.0,1.0,0.5,0.0,1.0,1.0,364.5652109989896,4.0,1.0,phase_1,,,,,,,,,,,,,green,diamond
0.0,8.0,0.0,1.0,3.0,3.0,338.9464899955783,4.0,1.0,phase_1,,,,,,,,,,,,,gray,triangle
196.0,3.0,2.0,0.0,4.0,4.0,317.0609069929924,4.0,1.0,phase_1,,,,,,,,,,,,,white,flipped triangle
0.0,3.0,0.0,0.0,3.0,3.0,321.3945360039361,4.0,1.0,phase_1,,,,,,,,,,,,,white,flipped triangle
35.0,1.0,0.5,0.0,3.0,3.0,329.7969300183467,4.0,1.0,phase_1,,,,,,,,,,,,,green,diamond
98.0,2.0,1.0,0.0,4.0,4.0,300.6632040196564,4.0,1.0,phase_1,,,,,,,,,,,,,orange,circle
0.0,5.0,0.0,1.0,4.0,4.0,323.2189700065646,4.0,1.0,phase_1,,,,,,,,,,,,,magenta,cross
82.0,2.0,1.0,0.0,3.0,3.0,319.8541630117688,4.0,1.0,phase_1,,,,,,,,,,,,,orange,circle
387.0,8.0,4.0,1.0,3.0,3.0,306.9235940056387,4.0,1.0,phase_1,,,,,,,,,,,,,gray,triangle
34.0,1.0,0.5,0.0,2.0,2.0,367.6613440038636,4.0,1.0,phase_1,,,,,,,,,,,,,green,diamond
0.0,4.0,0.0,0.0,1.0,1.0,426.2494519934989,4.0,1.0,phase_1,,,,,,,,,,,,,blue,hexagon
97.0,2.0,1.0,0.0,1.0,1.0,337.4104929971508,4.0,1.0,phase_1,,,,,,,,,,,,,orange,circle
0.0,6.0,0.0,1.0,1.0,1.0,309.9567320023197,4.0,1.0,phase_1,,,,,,,,,,,,,cyan,I
40.0,1.0,0.5,0.0,4.0,4.0,377.6666009798646,4.0,1.0,phase_1,,,,,,,,,,,,,green,diamond
419.0,4.0,4.0,0.0,3.0,3.0,360.283045010874,4.0,1.0,phase_1,,,,,,,,,,,,,blue,hexagon
393.0,8.0,4.0,1.0,1.0,1.0,306.4600949874148,4.0,1.0,phase_1,,,,,,,,,,,,,gray,triangle
387.0,4.0,4.0,0.0,3.0,3.0,342.5871420186013,4.0,1.0,phase_1,,,,,,,,,,,,,blue,hexagon
48.0,1.0,0.5,0.0,4.0,4.0,269.6217909979168,4.0,1.0,phase_1,,,,,,,,,,,,,green,diamond
78.0,6.0,1.0,1.0,4.0,4.0,288.439586001914,4.0,1.0,phase_1,,,,,,,,,,,,,cyan,I
400.0,4.0,4.0,0.0,4.0,4.0,300.6799810100347,4.0,1.0,phase_1,,,,,,,,,,,,,blue,hexagon
0.0,2.0,0.0,0.0,2.0,2.0,345.1964879932347,4.0,1.0,phase_1,,,,,,,,,,,,,orange,circle
0.0,2.0,0.0,0.0,3.0,3.0,391.5471580112353,4.0,1.0,phase_1,,,,,,,,,,,,,orange,circle
66.0,5.0,0.5,1.0,2.0,2.0,475.8619450149126,4.0,1.0,phase_1,,,,,,,,,,,,,magenta,cross
392.0,8.0,4.0,1.0,3.0,3.0,441.3492740131914,4.0,1.0,phase_1,,,,,,,,,,,,,gray,triangle
219.0,7.0,2.0,1.0,1.0,1.0,340.09139199042687,4.0,1.0,phase_1,,,,,,,,,,,,,yellow,square
86.0,6.0,1.0,1.0,3.0,3.0,313.2429810066242,4.0,1.0,phase_1,,,,,,,,,,,,,cyan,I
27.0,5.0,0.5,1.0,2.0,2.0,317.2757550200913,4.0,1.0,phase_1,,,,,,,,,,,,,magenta,cross
53.0,5.0,0.5,1.0,1.0,1.0,347.6819019997492,4.0,1.0,phase_1,,,,,,,,,,,,,magenta,cross
121.0,2.0,1.0,0.0,2.0,2.0,304.6471049892716,4.0,1.0,phase_1,,,,,,,,,,,,,orange,circle
383.0,4.0,4.0,0.0,3.0,3.0,317.562906013336,4.0,1.0,phase_1,,,,,,,,,,,,,blue,hexagon
68.0,5.0,0.5,1.0,1.0,1.0,393.6417989898473,4.0,1.0,phase_1,,,,,,,,,,,,,magenta,cross
27.0,5.0,0.5,1.0,1.0,1.0,383.1696870038286,4.0,1.0,phase_1,,,,,,,,,,,,,magenta,cross
207.0,7.0,2.0,1.0,2.0,2.0,301.2312490027398,4.0,1.0,phase_1,,,,,,,,,,,,,yellow,square
390.0,8.0,4.0,1.0,4.0,4.0,470.1042530068662,4.0,1.0,phase_1,,,,,,,,,,,,,gray,triangle
0.0,3.0,0.0,0.0,2.0,2.0,475.5103209754452,4.0,1.0,phase_1,,,,,,,,,,,,,white,flipped triangle
390.0,4.0,4.0,0.0,3.0,3.0,299.3729609879665,4.0,1.0,phase_1,,,,,,,,,,,,,blue,hexagon
0.0,8.0,4.0,1.0,5.0,0.0,0.0,1.0,1.0,phase_2,stop,250.0,250.0,4.0,,,,,,,,,gray,triangle
0.0,1.0,0.5,0.0,5.0,5.0,457.3366809927393,1.0,1.0,phase_2,go,300.0,250.0,1.0,,,,,,,,,green,diamond
0.0,5.0,0.5,1.0,5.0,5.0,393.0021190026309,1.0,1.0,phase_2,stop,300.0,250.0,3.0,,,,,,,,,magenta,cross
0.0,2.0,1.0,0.0,6.0,6.0,425.4583139845636,1.0,1.0,phase_2,go,250.0,250.0,1.0,,,,,,,,,orange,circle
0.0,4.0,4.0,0.0,5.0,5.0,525.6656639976427,1.0,1.0,phase_2,go,250.0,250.0,1.0,,,,,,,,,blue,hexagon
0.0,6.0,1.0,1.0,5.0,5.0,357.2364430001471,1.0,1.0,phase_2,stop,250.0,250.0,3.0,,,,,,,,,cyan,I
0.0,3.0,2.0,0.0,6.0,6.0,543.2600009953603,1.0,1.0,phase_2,go,200.0,250.0,1.0,,,,,,,,,white,flipped triangle
0.0,4.0,4.0,0.0,6.0,6.0,559.4967310025822,1.0,1.0,phase_2,go,200.0,250.0,1.0,,,,,,,,,blue,hexagon
0.0,1.0,0.5,0.0,6.0,6.0,495.3997299890034,1.0,1.0,phase_2,go,200.0,250.0,1.0,,,,,,,,,green,diamond
0.0,5.0,0.5,1.0,5.0,0.0,0.0,1.0,1.0,phase_2,stop,200.0,250.0,4.0,,,,,,,,,magenta,cross
0.0,3.0,2.0,0.0,6.0,6.0,460.2924209902994,1.0,1.0,phase_2,go,250.0,250.0,1.0,,,,,,,,,white,flipped triangle
0.0,4.0,4.0,0.0,6.0,6.0,554.8841529816855,1.0,1.0,phase_2,go,250.0,250.0,1.0,,,,,,,,,blue,hexagon
0.0,8.0,4.0,1.0,5.0,5.0,595.8899880060926,1.0,1.0,phase_2,go,250.0,250.0,1.0,,,,,,,,,gray,triangle
0.0,5.0,0.5,1.0,6.0,0.0,0.0,1.0,1.0,phase_2,stop,250.0,250.0,4.0,,,,,,,,,magenta,cross
0.0,6.0,1.0,1.0,5.0,0.0,0.0,1.0,1.0,phase_2,stop,250.0,300.0,4.0,,,,,,,,,cyan,I
0.0,4.0,4.0,0.0,6.0,6.0,497.4876450141892,1.0,1.0,phase_2,go,300.0,300.0,1.0,,,,,,,,,blue,hexagon
0.0,2.0,1.0,0.0,6.0,6.0,538.6835400131531,1.0,1.0,phase_2,go,300.0,300.0,1.0,,,,,,,,,orange,circle
0.0,3.0,2.0,0.0,5.0,5.0,354.2644519766327,1.0,1.0,phase_2,go,300.0,300.0,1.0,,,,,,,,,white,flipped triangle
0.0,8.0,4.0,1.0,5.0,5.0,353.8965730112977,1.0,1.0,phase_2,stop,300.0,300.0,3.0,,,,,,,,,gray,triangle
0.0,5.0,0.5,1.0,6.0,0.0,0.0,1.0,1.0,phase_2,stop,250.0,300.0,4.0,,,,,,,,,magenta,cross
0.0,3.0,2.0,0.0,5.0,5.0,525.8041420020163,1.0,1.0,phase_2,go,250.0,350.0,1.0,,,,,,,,,white,flipped triangle
0.0,5.0,0.5,1.0,6.0,6.0,598.6640899791382,1.0,1.0,phase_2,go,250.0,350.0,1.0,,,,,,,,,magenta,cross
0.0,7.0,2.0,1.0,5.0,5.0,476.7065010091755,1.0,1.0,phase_2,go,250.0,350.0,1.0,,,,,,,,,yellow,square
0.0,2.0,1.0,0.0,5.0,5.0,542.4356540024746,1.0,1.0,phase_2,go,250.0,350.0,1.0,,,,,,,,,orange,circle
0.0,5.0,0.5,1.0,5.0,0.0,0.0,1.0,1.0,phase_2,stop,250.0,350.0,4.0,,,,,,,,,magenta,cross
0.0,1.0,0.5,0.0,6.0,6.0,348.765621019993,1.0,1.0,phase_2,go,300.0,350.0,1.0,,,,,,,,,green,diamond
0.0,2.0,1.0,0.0,5.0,5.0,541.819171019597,1.0,1.0,phase_2,go,300.0,350.0,1.0,,,,,,,,,orange,circle
0.0,3.0,2.0,0.0,5.0,5.0,636.6766110004392,1.0,1.0,phase_2,go,300.0,350.0,1.0,,,,,,,,,white,flipped triangle
0.0,8.0,4.0,1.0,6.0,6.0,522.2954489872791,1.0,1.0,phase_2,go,300.0,350.0,1.0,,,,,,,,,gray,triangle
0.0,6.0,1.0,1.0,5.0,5.0,562.1227989904583,1.0,1.0,phase_2,go,300.0,350.0,1.0,,,,,,,,,cyan,I
0.0,1.0,0.5,0.0,6.0,6.0,579.3554950214457,1.0,1.0,phase_2,go,300.0,350.0,1.0,,,,,,,,,green,diamond
0.0,8.0,4.0,1.0,5.0,0.0,0.0,1.0,1.0,phase_2,stop,300.0,350.0,4.0,,,,,,,,,gray,triangle
0.0,1.0,0.5,0.0,5.0,5.0,654.4029999931809,1.0,1.0,phase_2,go,350.0,350.0,1.0,,,,,,,,,green,diamond
0.0,8.0,4.0,1.0,5.0,0.0,0.0,1.0,1.0,phase_2,stop,350.0,350.0,4.0,,,,,,,,,gray,triangle
0.0,2.0,1.0,0.0,6.0,6.0,582.8350399970077,1.0,1.0,phase_2,go,400.0,350.0,1.0,,,,,,,,,orange,circle
0.0,6.0,1.0,1.0,5.0,0.0,0.0,1.0,1.0,phase_2,stop,400.0,350.0,4.0,,,,,,,,,cyan,I
0.0,4.0,4.0,0.0,5.0,5.0,501.0521090007387,2.0,1.0,phase_2,go,450.0,350.0,1.0,,,,,,,,,blue,hexagon
0.0,4.0,4.0,0.0,5.0,5.0,542.3479829914868,2.0,1.0,phase_2,go,450.0,350.0,1.0,,,,,,,,,blue,hexagon
0.0,8.0,4.0,1.0,6.0,0.0,0.0,2.0,1.0,phase_2,stop,450.0,350.0,4.0,,,,,,,,,gray,triangle
0.0,1.0,0.5,0.0,6.0,6.0,468.3097790111787,2.0,1.0,phase_2,go,450.0,400.0,1.0,,,,,,,,,green,diamond
0.0,3.0,2.0,0.0,6.0,6.0,413.0977549939416,2.0,1.0,phase_2,go,450.0,400.0,1.0,,,,,,,,,white,flipped triangle
0.0,2.0,1.0,0.0,6.0,6.0,570.6671779917087,2.0,1.0,phase_2,go,450.0,400.0,1.0,,,,,,,,,orange,circle
0.0,2.0,1.0,0.0,6.0,6.0,538.6368639883585,2.0,1.0,phase_2,go,450.0,400.0,1.0,,,,,,,,,orange,circle
0.0,5.0,0.5,1.0,6.0,6.0,483.018810977228,2.0,1.0,phase_2,stop,450.0,400.0,3.0,,,,,,,,,magenta,cross
0.0,1.0,0.5,0.0,5.0,5.0,464.8131199937779,2.0,1.0,phase_2,go,450.0,350.0,1.0,,,,,,,,,green,diamond
0.0,1.0,0.5,0.0,6.0,6.0,516.4619389979634,2.0,1.0,phase_2,go,450.0,350.0,1.0,,,,,,,,,green,diamond
0.0,1.0,0.5,0.0,5.0,5.0,591.5829630102962,2.0,1.0,phase_2,go,450.0,350.0,1.0,,,,,,,,,green,diamond
0.0,5.0,0.5,1.0,6.0,0.0,0.0,2.0,1.0,phase_2,stop,450.0,350.0,4.0,,,,,,,,,magenta,cross
0.0,6.0,1.0,1.0,6.0,6.0,470.3121699858457,2.0,1.0,phase_2,go,450.0,400.0,1.0,,,,,,,,,cyan,I
0.0,1.0,0.5,0.0,5.0,5.0,514.1511159890797,2.0,1.0,phase_2,go,450.0,400.0,1.0,,,,,,,,,green,diamond
0.0,5.0,0.5,1.0,6.0,6.0,567.6474559877533,2.0,1.0,phase_2,go,450.0,400.0,1.0,,,,,,,,,magenta,cross
0.0,8.0,4.0,1.0,5.0,5.0,528.2269729941618,2.0,1.0,phase_2,go,450.0,400.0,1.0,,,,,,,,,gray,triangle
0.0,4.0,4.0,0.0,5.0,5.0,552.0972100202926,2.0,1.0,phase_2,go,450.0,400.0,1.0,,,,,,,,,blue,hexagon
0.0,8.0,4.0,1.0,6.0,6.0,613.5740949830506,2.0,1.0,phase_2,go,450.0,400.0,1.0,,,,,,,,,gray,triangle
0.0,8.0,4.0,1.0,6.0,6.0,654.8000540060457,2.0,1.0,phase_2,go,450.0,400.0,1.0,,,,,,,,,gray,triangle
0.0,5.0,0.5,1.0,6.0,0.0,0.0,2.0,1.0,phase_2,stop,450.0,400.0,4.0,,,,,,,,,magenta,cross
0.0,4.0,4.0,0.0,5.0,5.0,565.9318270045333,2.0,1.0,phase_2,go,450.0,450.0,1.0,,,,,,,,,blue,hexagon
0.0,6.0,1.0,1.0,6.0,6.0,521.4097819989547,2.0,1.0,phase_2,stop,450.0,450.0,3.0,,,,,,,,,cyan,I
0.0,8.0,4.0,1.0,5.0,5.0,597.467791987583,2.0,1.0,phase_2,stop,450.0,400.0,3.0,,,,,,,,,gray,triangle
0.0,5.0,0.5,1.0,6.0,6.0,619.0762390033342,2.0,1.0,phase_2,go,400.0,400.0,1.0,,,,,,,,,magenta,cross
0.0,3.0,2.0,0.0,6.0,6.0,623.9551340113394,2.0,1.0,phase_2,go,400.0,400.0,1.0,,,,,,,,,white,flipped triangle
0.0,7.0,2.0,1.0,6.0,0.0,0.0,2.0,1.0,phase_2,stop,400.0,400.0,4.0,,,,,,,,,yellow,square
0.0,3.0,2.0,0.0,5.0,5.0,638.6637140240055,2.0,1.0,phase_2,go,400.0,450.0,1.0,,,,,,,,,white,flipped triangle
0.0,5.0,0.5,1.0,5.0,0.0,0.0,2.0,1.0,phase_2,stop,400.0,450.0,4.0,,,,,,,,,magenta,cross
0.0,2.0,1.0,0.0,6.0,6.0,574.2405170167331,2.0,1.0,phase_2,go,450.0,450.0,1.0,,,,,,,,,orange,circle
0.0,4.0,4.0,0.0,5.0,5.0,672.3974749911577,2.0,1.0,phase_2,go,450.0,450.0,1.0,,,,,,,,,blue,hexagon
0.0,8.0,4.0,1.0,6.0,0.0,0.0,2.0,1.0,phase_2,stop,450.0,450.0,4.0,,,,,,,,,gray,triangle
0.0,1.0,0.5,0.0,5.0,5.0,696.3222989870701,2.0,1.0,phase_2,go,450.0,500.0,1.0,,,,,,,,,green,diamond
0.0,8.0,4.0,1.0,6.0,0.0,0.0,2.0,1.0,phase_2,stop,450.0,500.0,4.0,,,,,,,,,gray,triangle
0.0,8.0,4.0,1.0,6.0,6.0,678.6418539995793,2.0,1.0,phase_2,stop,450.0,550.0,3.0,,,,,,,,,gray,triangle
0.0,7.0,2.0,1.0,6.0,6.0,587.1764030016493,2.0,1.0,phase_2,stop,450.0,500.0,3.0,,,,,,,,,yellow,square
0.0,4.0,4.0,0.0,6.0,6.0,642.0241459854878,2.0,1.0,phase_2,go,450.0,450.0,1.0,,,,,,,,,blue,hexagon
0.0,8.0,4.0,1.0,6.0,6.0,470.9131699928548,3.0,1.0,phase_2,stop,450.0,450.0,3.0,,,,,,,,,gray,triangle
0.0,4.0,4.0,0.0,5.0,5.0,588.0402349866927,3.0,1.0,phase_2,go,450.0,400.0,1.0,,,,,,,,,blue,hexagon
0.0,1.0,0.5,0.0,6.0,6.0,604.0556050138548,3.0,1.0,phase_2,go,450.0,400.0,1.0,,,,,,,,,green,diamond
0.0,6.0,1.0,1.0,6.0,6.0,464.6782729832921,3.0,1.0,phase_2,stop,450.0,400.0,3.0,,,,,,,,,cyan,I
0.0,7.0,2.0,1.0,6.0,6.0,423.6499209946487,3.0,1.0,phase_2,stop,450.0,350.0,3.0,,,,,,,,,yellow,square
0.0,4.0,4.0,0.0,5.0,5.0,489.5323429955169,3.0,1.0,phase_2,go,450.0,300.0,1.0,,,,,,,,,blue,hexagon
0.0,4.0,4.0,0.0,5.0,5.0,600.8263440162409,3.0,1.0,phase_2,go,450.0,300.0,1.0,,,,,,,,,blue,hexagon
0.0,5.0,0.5,1.0,5.0,5.0,495.9052559861447,3.0,1.0,phase_2,stop,450.0,300.0,3.0,,,,,,,,,magenta,cross
0.0,1.0,0.5,0.0,5.0,5.0,352.1137940115295,3.0,1.0,phase_2,go,400.0,300.0,1.0,,,,,,,,,green,diamond
0.0,7.0,2.0,1.0,6.0,6.0,492.7217859949451,3.0,1.0,phase_2,go,400.0,300.0,1.0,,,,,,,,,yellow,square
0.0,6.0,1.0,1.0,5.0,5.0,476.1082059994805,3.0,1.0,phase_2,go,400.0,300.0,1.0,,,,,,,,,cyan,I
0.0,6.0,1.0,1.0,6.0,0.0,0.0,3.0,1.0,phase_2,stop,400.0,300.0,4.0,,,,,,,,,cyan,I
0.0,6.0,1.0,1.0,5.0,5.0,340.8946580020711,3.0,1.0,phase_2,go,400.0,350.0,1.0,,,,,,,,,cyan,I
0.0,7.0,2.0,1.0,5.0,0.0,0.0,3.0,1.0,phase_2,stop,400.0,350.0,4.0,,,,,,,,,yellow,square
0.0,2.0,1.0,0.0,6.0,6.0,505.73872501263395,3.0,1.0,phase_2,go,450.0,350.0,1.0,,,,,,,,,orange,circle
0.0,1.0,0.5,0.0,6.0,6.0,660.8087010099553,3.0,1.0,phase_2,go,450.0,350.0,1.0,,,,,,,,,green,diamond
0.0,7.0,2.0,1.0,5.0,5.0,532.6488550053909,3.0,1.0,phase_2,stop,450.0,350.0,3.0,,,,,,,,,yellow,square
0.0,5.0,0.5,1.0,5.0,5.0,577.7699209866114,3.0,1.0,phase_2,go,400.0,350.0,1.0,,,,,,,,,magenta,cross
0.0,6.0,1.0,1.0,6.0,0.0,0.0,3.0,1.0,phase_2,stop,400.0,350.0,4.0,,,,,,,,,cyan,I
0.0,7.0,2.0,1.0,5.0,0.0,0.0,3.0,1.0,phase_2,stop,400.0,400.0,4.0,,,,,,,,,yellow,square
0.0,3.0,2.0,0.0,6.0,6.0,575.7651779858861,3.0,1.0,phase_2,go,450.0,400.0,1.0,,,,,,,,,white,flipped triangle
0.0,4.0,4.0,0.0,5.0,5.0,398.35315599339077,3.0,1.0,phase_2,go,450.0,400.0,1.0,,,,,,,,,blue,hexagon
0.0,6.0,1.0,1.0,5.0,5.0,575.7139180204831,3.0,1.0,phase_2,go,450.0,400.0,1.0,,,,,,,,,cyan,I
0.0,8.0,4.0,1.0,5.0,5.0,593.2290079945233,3.0,1.0,phase_2,stop,450.0,400.0,3.0,,,,,,,,,gray,triangle
0.0,4.0,4.0,0.0,5.0,5.0,468.3842020167503,3.0,1.0,phase_2,go,400.0,400.0,1.0,,,,,,,,,blue,hexagon
0.0,5.0,0.5,1.0,6.0,0.0,0.0,3.0,1.0,phase_2,stop,400.0,400.0,4.0,,,,,,,,,magenta,cross
0.0,7.0,2.0,1.0,6.0,6.0,547.6713520183694,3.0,1.0,phase_2,stop,400.0,450.0,3.0,,,,,,,,,yellow,square
0.0,5.0,0.5,1.0,6.0,0.0,0.0,3.0,1.0,phase_2,stop,400.0,400.0,4.0,,,,,,,,,magenta,cross
0.0,2.0,1.0,0.0,5.0,5.0,677.3463849967811,3.0,1.0,phase_2,go,400.0,450.0,1.0,,,,,,,,,orange,circle
0.0,7.0,2.0,1.0,5.0,0.0,0.0,3.0,1.0,phase_2,stop,400.0,450.0,4.0,,,,,,,,,yellow,square
0.0,4.0,4.0,0.0,5.0,5.0,553.9708900032565,3.0,1.0,phase_2,go,450.0,450.0,1.0,,,,,,,,,blue,hexagon
0.0,7.0,2.0,1.0,6.0,0.0,0.0,3.0,1.0,phase_2,stop,450.0,450.0,4.0,,,,,,,,,yellow,square
0.0,6.0,1.0,1.0,5.0,5.0,635.5032849824056,3.0,1.0,phase_2,go,450.0,500.0,1.0,,,,,,,,,cyan,I
0.0,5.0,0.5,1.0,5.0,0.0,0.0,3.0,1.0,phase_2,stop,450.0,500.0,4.0,,,,,,,,,magenta,cross
0.0,2.0,1.0,0.0,5.0,5.0,537.1500990004279,3.0,1.0,phase_2,go,500.0,500.0,1.0,,,,,,,,,orange,circle
0.0,2.0,1.0,0.0,6.0,6.0,622.8130469971802,3.0,1.0,phase_2,go,500.0,500.0,1.0,,,,,,,,,orange,circle
0.0,6.0,1.0,1.0,5.0,5.0,279.3552250077482,4.0,1.0,phase_2,go,500.0,500.0,1.0,,,,,,,,,cyan,I
0.0,3.0,2.0,0.0,5.0,5.0,545.6236350000836,4.0,1.0,phase_2,go,500.0,500.0,1.0,,,,,,,,,white,flipped triangle
0.0,7.0,2.0,1.0,6.0,6.0,614.5402429974638,4.0,1.0,phase_2,go,500.0,500.0,1.0,,,,,,,,,yellow,square
0.0,4.0,4.0,0.0,5.0,5.0,504.7605120053049,4.0,1.0,phase_2,go,500.0,500.0,1.0,,,,,,,,,blue,hexagon
0.0,3.0,2.0,0.0,6.0,6.0,501.0977859783452,4.0,1.0,phase_2,go,500.0,500.0,1.0,,,,,,,,,white,flipped triangle
0.0,6.0,1.0,1.0,6.0,0.0,0.0,4.0,1.0,phase_2,stop,500.0,500.0,4.0,,,,,,,,,cyan,I
0.0,5.0,0.5,1.0,5.0,5.0,520.7937560044229,4.0,1.0,phase_2,stop,500.0,550.0,3.0,,,,,,,,,magenta,cross
0.0,7.0,2.0,1.0,6.0,6.0,622.7017400087789,4.0,1.0,phase_2,stop,450.0,550.0,3.0,,,,,,,,,yellow,square
0.0,3.0,2.0,0.0,6.0,6.0,526.3612489798106,4.0,1.0,phase_2,go,450.0,500.0,1.0,,,,,,,,,white,flipped triangle
0.0,6.0,1.0,1.0,6.0,6.0,756.3809960265644,4.0,1.0,phase_2,go,450.0,500.0,1.0,,,,,,,,,cyan,I
0.0,6.0,1.0,1.0,6.0,0.0,0.0,4.0,1.0,phase_2,stop,450.0,500.0,4.0,,,,,,,,,cyan,I
0.0,7.0,2.0,1.0,5.0,5.0,472.3254810087383,4.0,1.0,phase_2,stop,450.0,550.0,3.0,,,,,,,,,yellow,square
0.0,6.0,1.0,1.0,6.0,6.0,643.7702109979,4.0,1.0,phase_2,stop,400.0,550.0,3.0,,,,,,,,,cyan,I
0.0,1.0,0.5,0.0,6.0,6.0,563.1480329902843,4.0,1.0,phase_2,go,400.0,500.0,1.0,,,,,,,,,green,diamond
0.0,6.0,1.0,1.0,6.0,6.0,592.4201960151549,4.0,1.0,phase_2,stop,400.0,500.0,3.0,,,,,,,,,cyan,I
0.0,5.0,0.5,1.0,6.0,6.0,665.3733699931763,4.0,1.0,phase_2,go,400.0,450.0,1.0,,,,,,,,,magenta,cross
0.0,1.0,0.5,0.0,5.0,5.0,665.6996549863834,4.0,1.0,phase_2,go,400.0,450.0,1.0,,,,,,,,,green,diamond
0.0,7.0,2.0,1.0,5.0,5.0,807.1353510022163,4.0,1.0,phase_2,go,400.0,450.0,1.0,,,,,,,,,yellow,square
0.0,8.0,4.0,1.0,5.0,0.0,0.0,4.0,1.0,phase_2,stop,400.0,450.0,4.0,,,,,,,,,gray,triangle
0.0,7.0,2.0,1.0,5.0,5.0,597.069493989693,4.0,1.0,phase_2,go,450.0,450.0,1.0,,,,,,,,,yellow,square
0.0,6.0,1.0,1.0,6.0,6.0,374.893880012678,4.0,1.0,phase_2,stop,450.0,450.0,3.0,,,,,,,,,cyan,I
0.0,7.0,2.0,1.0,5.0,5.0,552.4731760087889,4.0,1.0,phase_2,stop,450.0,400.0,3.0,,,,,,,,,yellow,square
0.0,5.0,0.5,1.0,6.0,0.0,0.0,4.0,1.0,phase_2,stop,400.0,400.0,4.0,,,,,,,,,magenta,cross
0.0,1.0,0.5,0.0,6.0,6.0,630.4853589972481,4.0,1.0,phase_2,go,400.0,450.0,1.0,,,,,,,,,green,diamond
0.0,3.0,2.0,0.0,5.0,5.0,780.2988220064435,4.0,1.0,phase_2,go,400.0,450.0,1.0,,,,,,,,,white,flipped triangle
0.0,6.0,1.0,1.0,5.0,0.0,0.0,4.0,1.0,phase_2,stop,400.0,450.0,4.0,,,,,,,,,cyan,I
0.0,3.0,2.0,0.0,5.0,5.0,337.6379609981086,4.0,1.0,phase_2,go,450.0,450.0,1.0,,,,,,,,,white,flipped triangle
0.0,6.0,1.0,1.0,6.0,0.0,0.0,4.0,1.0,phase_2,stop,450.0,450.0,4.0,,,,,,,,,cyan,I
0.0,7.0,2.0,1.0,6.0,6.0,584.6753049991094,4.0,1.0,phase_2,stop,450.0,500.0,3.0,,,,,,,,,yellow,square
0.0,7.0,2.0,1.0,6.0,0.0,0.0,4.0,1.0,phase_2,stop,450.0,450.0,4.0,,,,,,,,,yellow,square
0.0,3.0,2.0,0.0,6.0,6.0,736.3850479887333,4.0,1.0,phase_2,go,450.0,500.0,1.0,,,,,,,,,white,flipped triangle
0.0,3.0,2.0,0.0,6.0,6.0,703.7936669948976,4.0,1.0,phase_2,go,450.0,500.0,1.0,,,,,,,,,white,flipped triangle
0.0,2.0,1.0,0.0,5.0,5.0,951.8671190016904,4.0,1.0,phase_2,go,450.0,500.0,1.0,,,,,,,,,orange,circle
0.0,8.0,4.0,1.0,5.0,0.0,0.0,4.0,1.0,phase_2,stop,450.0,500.0,4.0,,,,,,,,,gray,triangle
0.0,4.0,4.0,0.0,6.0,6.0,878.1754339870531,4.0,1.0,phase_2,go,500.0,500.0,1.0,,,,,,,,,blue,hexagon
0.0,7.0,2.0,1.0,5.0,0.0,0.0,4.0,1.0,phase_2,stop,500.0,500.0,4.0,,,,,,,,,yellow,square
0.0,8.0,4.0,1.0,5.0,5.0,484.6575859992299,5.0,1.0,phase_2,go,550.0,500.0,1.0,,,,,,,,,gray,triangle
0.0,3.0,2.0,0.0,5.0,5.0,641.3336580153555,5.0,1.0,phase_2,go,550.0,500.0,1.0,,,,,,,,,white,flipped triangle
0.0,1.0,0.5,0.0,5.0,5.0,743.372688011732,5.0,1.0,phase_2,go,550.0,500.0,1.0,,,,,,,,,green,diamond
0.0,6.0,1.0,1.0,5.0,5.0,545.0122169859242,5.0,1.0,phase_2,stop,550.0,500.0,3.0,,,,,,,,,cyan,I
0.0,8.0,4.0,1.0,5.0,0.0,0.0,5.0,1.0,phase_2,stop,500.0,500.0,4.0,,,,,,,,,gray,triangle
0.0,2.0,1.0,0.0,6.0,6.0,582.1635340107605,5.0,1.0,phase_2,go,550.0,500.0,1.0,,,,,,,,,orange,circle
0.0,5.0,0.5,1.0,6.0,6.0,774.1312069993,5.0,1.0,phase_2,go,550.0,500.0,1.0,,,,,,,,,magenta,cross
0.0,7.0,2.0,1.0,5.0,0.0,0.0,5.0,1.0,phase_2,stop,550.0,500.0,4.0,,,,,,,,,yellow,square
0.0,1.0,0.5,0.0,5.0,5.0,692.0401350071188,5.0,1.0,phase_2,go,600.0,500.0,1.0,,,,,,,,,green,diamond
0.0,4.0,4.0,0.0,6.0,6.0,694.3343399907462,5.0,1.0,phase_2,go,600.0,500.0,1.0,,,,,,,,,blue,hexagon
0.0,1.0,0.5,0.0,6.0,6.0,710.4687439859845,5.0,1.0,phase_2,go,600.0,500.0,1.0,,,,,,,,,green,diamond
0.0,7.0,2.0,1.0,6.0,6.0,798.7608319963329,5.0,1.0,phase_2,go,600.0,500.0,1.0,,,,,,,,,yellow,square
0.0,3.0,2.0,0.0,5.0,5.0,781.2527510104701,5.0,1.0,phase_2,go,600.0,500.0,1.0,,,,,,,,,white,flipped triangle
0.0,5.0,0.5,1.0,5.0,0.0,0.0,5.0,1.0,phase_2,stop,600.0,500.0,4.0,,,,,,,,,magenta,cross
0.0,6.0,1.0,1.0,5.0,5.0,553.1371329852846,5.0,1.0,phase_2,stop,650.0,500.0,3.0,,,,,,,,,cyan,I
0.0,2.0,1.0,0.0,6.0,6.0,643.3468679897487,5.0,1.0,phase_2,go,600.0,500.0,1.0,,,,,,,,,orange,circle
0.0,2.0,1.0,0.0,6.0,6.0,808.255394018488,5.0,1.0,phase_2,go,600.0,500.0,1.0,,,,,,,,,orange,circle
0.0,4.0,4.0,0.0,5.0,5.0,985.9630670107437,5.0,1.0,phase_2,go,600.0,500.0,1.0,,,,,,,,,blue,hexagon
0.0,3.0,2.0,0.0,5.0,5.0,786.057293007616,5.0,1.0,phase_2,go,600.0,500.0,1.0,,,,,,,,,white,flipped triangle
0.0,8.0,4.0,1.0,6.0,6.0,870.6863810075447,5.0,1.0,phase_2,go,600.0,500.0,1.0,,,,,,,,,gray,triangle
0.0,7.0,2.0,1.0,6.0,0.0,0.0,5.0,1.0,phase_2,stop,600.0,500.0,4.0,,,,,,,,,yellow,square
0.0,5.0,0.5,1.0,5.0,0.0,0.0,5.0,1.0,phase_2,stop,600.0,550.0,4.0,,,,,,,,,magenta,cross
0.0,2.0,1.0,0.0,5.0,5.0,774.6983889956027,5.0,1.0,phase_2,go,650.0,550.0,1.0,,,,,,,,,orange,circle
0.0,1.0,0.5,0.0,6.0,6.0,740.3653399960604,5.0,1.0,phase_2,go,650.0,550.0,1.0,,,,,,,,,green,diamond
0.0,8.0,4.0,1.0,6.0,6.0,907.6768039958552,5.0,1.0,phase_2,go,650.0,550.0,1.0,,,,,,,,,gray,triangle
0.0,6.0,1.0,1.0,6.0,0.0,0.0,5.0,1.0,phase_2,stop,650.0,550.0,4.0,,,,,,,,,cyan,I
0.0,4.0,4.0,0.0,6.0,6.0,802.9646509967279,5.0,1.0,phase_2,go,650.0,600.0,1.0,,,,,,,,,blue,hexagon
0.0,2.0,1.0,0.0,5.0,5.0,668.878004013095,5.0,1.0,phase_2,go,650.0,600.0,1.0,,,,,,,,,orange,circle
0.0,8.0,4.0,1.0,6.0,6.0,673.4064639895223,5.0,1.0,phase_2,stop,650.0,600.0,3.0,,,,,,,,,gray,triangle
0.0,2.0,1.0,0.0,6.0,6.0,586.1399710120168,5.0,1.0,phase_2,go,650.0,550.0,1.0,,,,,,,,,orange,circle
0.0,2.0,1.0,0.0,5.0,5.0,615.9564099798445,5.0,1.0,phase_2,go,650.0,550.0,1.0,,,,,,,,,orange,circle
0.0,2.0,1.0,0.0,5.0,5.0,642.7786800195463,5.0,1.0,phase_2,go,650.0,550.0,1.0,,,,,,,,,orange,circle
0.0,6.0,1.0,1.0,5.0,5.0,553.3169409900438,5.0,1.0,phase_2,stop,650.0,550.0,3.0,,,,,,,,,cyan,I
0.0,3.0,2.0,0.0,6.0,6.0,633.8842010009103,5.0,1.0,phase_2,go,600.0,550.0,1.0,,,,,,,,,white,flipped triangle
0.0,4.0,4.0,0.0,6.0,6.0,774.6123319957405,5.0,1.0,phase_2,go,600.0,550.0,1.0,,,,,,,,,blue,hexagon
0.0,1.0,0.5,0.0,6.0,6.0,823.5211689898279,5.0,1.0,phase_2,go,600.0,550.0,1.0,,,,,,,,,green,diamond
0.0,4.0,4.0,0.0,5.0,5.0,317.4154549778905,6.0,1.0,phase_2,go,600.0,550.0,1.0,,,,,,,,,blue,hexagon
0.0,2.0,1.0,0.0,5.0,5.0,291.515756980516,6.0,1.0,phase_2,go,600.0,550.0,1.0,,,,,,,,,orange,circle
0.0,8.0,4.0,1.0,5.0,5.0,276.803214015672,6.0,1.0,phase_2,stop,600.0,550.0,3.0,,,,,,,,,gray,triangle
0.0,5.0,0.5,1.0,5.0,5.0,390.7182389812078,6.0,1.0,phase_2,stop,550.0,550.0,3.0,,,,,,,,,magenta,cross
0.0,4.0,4.0,0.0,6.0,6.0,274.8860610008705,6.0,1.0,phase_2,go,500.0,550.0,1.0,,,,,,,,,blue,hexagon
0.0,8.0,4.0,1.0,5.0,5.0,267.6449040009174,6.0,1.0,phase_2,stop,500.0,550.0,3.0,,,,,,,,,gray,triangle
0.0,3.0,2.0,0.0,6.0,6.0,451.8844590056687,6.0,1.0,phase_2,go,450.0,550.0,1.0,,,,,,,,,white,flipped triangle
0.0,7.0,2.0,1.0,6.0,6.0,329.8941770044621,6.0,1.0,phase_2,stop,450.0,550.0,3.0,,,,,,,,,yellow,square
0.0,3.0,2.0,0.0,6.0,6.0,300.1744609791785,6.0,1.0,phase_2,go,450.0,500.0,1.0,,,,,,,,,white,flipped triangle
0.0,5.0,0.5,1.0,5.0,5.0,251.05692198849277,6.0,1.0,phase_2,stop,450.0,500.0,3.0,,,,,,,,,magenta,cross
0.0,4.0,4.0,0.0,6.0,6.0,234.5038839848712,6.0,1.0,phase_2,go,400.0,500.0,1.0,,,,,,,,,blue,hexagon
0.0,2.0,1.0,0.0,6.0,6.0,374.6831470052711,6.0,1.0,phase_2,go,400.0,500.0,1.0,,,,,,,,,orange,circle
0.0,1.0,0.5,0.0,5.0,5.0,238.7364669993985,6.0,1.0,phase_2,go,400.0,500.0,1.0,,,,,,,,,green,diamond
0.0,2.0,1.0,0.0,5.0,5.0,295.379563991446,6.0,1.0,phase_2,go,400.0,500.0,1.0,,,,,,,,,orange,circle
0.0,2.0,1.0,0.0,6.0,6.0,332.6216190180275,6.0,1.0,phase_2,go,400.0,500.0,1.0,,,,,,,,,orange,circle
0.0,1.0,0.5,0.0,6.0,6.0,287.2903330135159,6.0,1.0,phase_2,go,400.0,500.0,1.0,,,,,,,,,green,diamond
0.0,7.0,2.0,1.0,6.0,6.0,291.1930840054992,6.0,1.0,phase_2,stop,400.0,500.0,3.0,,,,,,,,,yellow,square
0.0,8.0,4.0,1.0,5.0,5.0,348.7136839830782,6.0,1.0,phase_2,go,400.0,450.0,1.0,,,,,,,,,gray,triangle
0.0,6.0,1.0,1.0,5.0,5.0,332.9784060188103,6.0,1.0,phase_2,stop,400.0,450.0,3.0,,,,,,,,,cyan,I
0.0,7.0,2.0,1.0,5.0,5.0,317.3756710020825,6.0,1.0,phase_2,stop,350.0,450.0,3.0,,,,,,,,,yellow,square
0.0,8.0,4.0,1.0,6.0,6.0,316.1125580081716,6.0,1.0,phase_2,stop,300.0,450.0,3.0,,,,,,,,,gray,triangle
0.0,3.0,2.0,0.0,5.0,5.0,432.7756430138834,6.0,1.0,phase_2,go,300.0,400.0,1.0,,,,,,,,,white,flipped triangle
0.0,8.0,4.0,1.0,6.0,6.0,386.7215809877962,6.0,1.0,phase_2,stop,300.0,400.0,3.0,,,,,,,,,gray,triangle
0.0,8.0,4.0,1.0,6.0,6.0,432.5445610156748,6.0,1.0,phase_2,stop,300.0,350.0,3.0,,,,,,,,,gray,triangle
0.0,5.0,0.5,1.0,5.0,5.0,351.0406489949673,6.0,1.0,phase_2,stop,300.0,300.0,3.0,,,,,,,,,magenta,cross
0.0,5.0,0.5,1.0,6.0,6.0,278.9533500035759,6.0,1.0,phase_2,go,250.0,300.0,1.0,,,,,,,,,magenta,cross
0.0,4.0,4.0,0.0,6.0,6.0,384.2978840111755,6.0,1.0,phase_2,go,250.0,300.0,1.0,,,,,,,,,blue,hexagon
0.0,1.0,0.5,0.0,5.0,5.0,352.0434689999092,6.0,1.0,phase_2,go,250.0,300.0,1.0,,,,,,,,,green,diamond
0.0,2.0,1.0,0.0,5.0,5.0,376.1200820154045,6.0,1.0,phase_2,go,250.0,300.0,1.0,,,,,,,,,orange,circle
0.0,5.0,0.5,1.0,5.0,0.0,0.0,6.0,1.0,phase_2,stop,250.0,300.0,4.0,,,,,,,,,magenta,cross
0.0,7.0,2.0,1.0,6.0,6.0,276.1155019979924,6.0,1.0,phase_2,go,300.0,300.0,1.0,,,,,,,,,yellow,square
0.0,6.0,1.0,1.0,5.0,5.0,292.1331530087627,6.0,1.0,phase_2,stop,300.0,300.0,3.0,,,,,,,,,cyan,I
0.0,4.0,4.0,0.0,5.0,5.0,461.1950510006863,6.0,1.0,phase_2,go,250.0,300.0,1.0,,,,,,,,,blue,hexagon
0.0,3.0,2.0,0.0,5.0,5.0,387.3557799961418,6.0,1.0,phase_2,go,250.0,300.0,1.0,,,,,,,,,white,flipped triangle
0.0,5.0,0.5,1.0,6.0,6.0,299.3682170053944,6.0,1.0,phase_2,go,250.0,300.0,1.0,,,,,,,,,magenta,cross
0.0,2.0,1.0,0.0,5.0,5.0,300.1370480051264,6.0,1.0,phase_2,go,250.0,300.0,1.0,,,,,,,,,orange,circle
0.0,8.0,4.0,1.0,6.0,6.0,352.9250969877466,7.0,1.0,phase_2,stop,250.0,300.0,3.0,,,,,,,,,gray,triangle
0.0,3.0,2.0,0.0,6.0,6.0,484.9001810071058,7.0,1.0,phase_2,go,250.0,250.0,1.0,,,,,,,,,white,flipped triangle
0.0,2.0,1.0,0.0,6.0,6.0,447.7038930053822,7.0,1.0,phase_2,go,250.0,250.0,1.0,,,,,,,,,orange,circle
0.0,5.0,0.5,1.0,6.0,6.0,301.5853580145631,7.0,1.0,phase_2,stop,250.0,250.0,3.0,,,,,,,,,magenta,cross
0.0,6.0,1.0,1.0,6.0,0.0,0.0,7.0,1.0,phase_2,stop,250.0,200.0,4.0,,,,,,,,,cyan,I
0.0,5.0,0.5,1.0,6.0,6.0,554.5309049775824,7.0,1.0,phase_2,go,250.0,250.0,1.0,,,,,,,,,magenta,cross
0.0,4.0,4.0,0.0,5.0,5.0,402.6290219917428,7.0,1.0,phase_2,go,250.0,250.0,1.0,,,,,,,,,blue,hexagon
0.0,6.0,1.0,1.0,6.0,6.0,356.9688690186012,7.0,1.0,phase_2,stop,250.0,250.0,3.0,,,,,,,,,cyan,I
0.0,1.0,0.5,0.0,5.0,5.0,444.6218849916477,7.0,1.0,phase_2,go,250.0,200.0,1.0,,,,,,,,,green,diamond
0.0,7.0,2.0,1.0,6.0,0.0,0.0,7.0,1.0,phase_2,stop,250.0,200.0,4.0,,,,,,,,,yellow,square
0.0,2.0,1.0,0.0,5.0,5.0,401.9169220118783,7.0,1.0,phase_2,go,250.0,250.0,1.0,,,,,,,,,orange,circle
0.0,5.0,0.5,1.0,5.0,0.0,0.0,7.0,1.0,phase_2,stop,250.0,250.0,4.0,,,,,,,,,magenta,cross
0.0,4.0,4.0,0.0,6.0,6.0,288.2954590022564,7.0,1.0,phase_2,go,300.0,250.0,1.0,,,,,,,,,blue,hexagon
0.0,6.0,1.0,1.0,6.0,6.0,383.9929239766206,7.0,1.0,phase_2,stop,300.0,250.0,3.0,,,,,,,,,cyan,I
0.0,7.0,2.0,1.0,5.0,5.0,342.1619520231616,7.0,1.0,phase_2,go,300.0,200.0,1.0,,,,,,,,,yellow,square
0.0,5.0,0.5,1.0,6.0,0.0,0.0,7.0,1.0,phase_2,stop,300.0,200.0,4.0,,,,,,,,,magenta,cross
0.0,2.0,1.0,0.0,5.0,5.0,519.3418559792917,7.0,1.0,phase_2,go,300.0,250.0,1.0,,,,,,,,,orange,circle
0.0,7.0,2.0,1.0,5.0,0.0,0.0,7.0,1.0,phase_2,stop,300.0,250.0,4.0,,,,,,,,,yellow,square
0.0,8.0,4.0,1.0,6.0,6.0,358.093161979923,7.0,1.0,phase_2,stop,350.0,250.0,3.0,,,,,,,,,gray,triangle
0.0,1.0,0.5,0.0,5.0,5.0,516.966216993751,7.0,1.0,phase_2,go,350.0,200.0,1.0,,,,,,,,,green,diamond
0.0,6.0,1.0,1.0,6.0,6.0,490.4343849921133,7.0,1.0,phase_2,go,350.0,200.0,1.0,,,,,,,,,cyan,I
0.0,7.0,2.0,1.0,5.0,5.0,473.3436440001242,7.0,1.0,phase_2,stop,350.0,200.0,3.0,,,,,,,,,yellow,square
0.0,2.0,1.0,0.0,6.0,6.0,394.9972499976866,7.0,1.0,phase_2,go,300.0,200.0,1.0,,,,,,,,,orange,circle
0.0,3.0,2.0,0.0,6.0,6.0,441.5932999982033,7.0,1.0,phase_2,go,300.0,200.0,1.0,,,,,,,,,white,flipped triangle
0.0,1.0,0.5,0.0,5.0,5.0,355.9280339977704,7.0,1.0,phase_2,go,300.0,200.0,1.0,,,,,,,,,green,diamond
0.0,2.0,1.0,0.0,5.0,5.0,378.0322180246003,7.0,1.0,phase_2,go,300.0,200.0,1.0,,,,,,,,,orange,circle
0.0,2.0,1.0,0.0,6.0,6.0,392.6210419740528,7.0,1.0,phase_2,go,300.0,200.0,1.0,,,,,,,,,orange,circle
0.0,4.0,4.0,0.0,6.0,6.0,495.4036739945877,7.0,1.0,phase_2,go,300.0,200.0,1.0,,,,,,,,,blue,hexagon
0.0,4.0,4.0,0.0,6.0,6.0,477.4721419962588,7.0,1.0,phase_2,go,300.0,200.0,1.0,,,,,,,,,blue,hexagon
0.0,6.0,1.0,1.0,6.0,0.0,0.0,7.0,1.0,phase_2,stop,300.0,200.0,4.0,,,,,,,,,cyan,I
0.0,3.0,2.0,0.0,6.0,6.0,460.955346992705,7.0,1.0,phase_2,go,300.0,250.0,1.0,,,,,,,,,white,flipped triangle
0.0,6.0,1.0,1.0,5.0,0.0,0.0,7.0,1.0,phase_2,stop,300.0,250.0,4.0,,,,,,,,,cyan,I
0.0,3.0,2.0,0.0,6.0,6.0,310.3508570056874,7.0,1.0,phase_2,go,350.0,250.0,1.0,,,,,,,,,white,flipped triangle
0.0,4.0,4.0,0.0,5.0,5.0,443.8366780232172,7.0,1.0,phase_2,go,350.0,250.0,1.0,,,,,,,,,blue,hexagon
0.0,4.0,4.0,0.0,6.0,6.0,372.8762250102591,7.0,1.0,phase_2,go,350.0,250.0,1.0,,,,,,,,,blue,hexagon
0.0,3.0,2.0,0.0,5.0,5.0,453.979876008816,7.0,1.0,phase_2,go,350.0,250.0,1.0,,,,,,,,,white,flipped triangle
0.0,7.0,2.0,1.0,5.0,5.0,334.4527099980041,8.0,1.0,phase_2,stop,350.0,250.0,3.0,,,,,,,,,yellow,square
0.0,7.0,2.0,1.0,6.0,6.0,485.2412870095577,8.0,1.0,phase_2,go,300.0,250.0,1.0,,,,,,,,,yellow,square
0.0,1.0,0.5,0.0,5.0,5.0,446.5442759974394,8.0,1.0,phase_2,go,300.0,250.0,1.0,,,,,,,,,green,diamond
0.0,1.0,0.5,0.0,6.0,6.0,436.9199679931626,8.0,1.0,phase_2,go,300.0,250.0,1.0,,,,,,,,,green,diamond
0.0,6.0,1.0,1.0,5.0,5.0,323.0320520233363,8.0,1.0,phase_2,stop,300.0,250.0,3.0,,,,,,,,,cyan,I
0.0,1.0,0.5,0.0,6.0,6.0,355.9506330057047,8.0,1.0,phase_2,go,250.0,250.0,1.0,,,,,,,,,green,diamond
0.0,4.0,4.0,0.0,6.0,6.0,370.444945001509,8.0,1.0,phase_2,go,250.0,250.0,1.0,,,,,,,,,blue,hexagon
0.0,8.0,4.0,1.0,5.0,0.0,0.0,8.0,1.0,phase_2,stop,250.0,250.0,4.0,,,,,,,,,gray,triangle
0.0,1.0,0.5,0.0,5.0,5.0,407.0212560181971,8.0,1.0,phase_2,go,300.0,250.0,1.0,,,,,,,,,green,diamond
0.0,7.0,2.0,1.0,6.0,6.0,344.9280160130001,8.0,1.0,phase_2,stop,300.0,250.0,3.0,,,,,,,,,yellow,square
0.0,2.0,1.0,0.0,6.0,6.0,462.5330480048433,8.0,1.0,phase_2,go,300.0,200.0,1.0,,,,,,,,,orange,circle
0.0,1.0,0.5,0.0,6.0,6.0,465.2882569935173,8.0,1.0,phase_2,go,300.0,200.0,1.0,,,,,,,,,green,diamond
0.0,3.0,2.0,0.0,5.0,5.0,408.0589349905494,8.0,1.0,phase_2,go,300.0,200.0,1.0,,,,,,,,,white,flipped triangle
0.0,2.0,1.0,0.0,5.0,5.0,334.3865890055895,8.0,1.0,phase_2,go,300.0,200.0,1.0,,,,,,,,,orange,circle
0.0,3.0,2.0,0.0,5.0,5.0,308.2690130104311,8.0,1.0,phase_2,go,300.0,200.0,1.0,,,,,,,,,white,flipped triangle
0.0,6.0,1.0,1.0,5.0,5.0,291.3252630096394,8.0,1.0,phase_2,stop,300.0,200.0,3.0,,,,,,,,,cyan,I
0.0,1.0,0.5,0.0,5.0,5.0,318.790251010796,8.0,1.0,phase_2,go,250.0,200.0,1.0,,,,,,,,,green,diamond
0.0,5.0,0.5,1.0,5.0,5.0,309.3365830136463,8.0,1.0,phase_2,stop,250.0,200.0,3.0,,,,,,,,,magenta,cross
0.0,8.0,4.0,1.0,5.0,5.0,305.8216359931975,8.0,1.0,phase_2,stop,200.0,200.0,3.0,,,,,,,,,gray,triangle
0.0,2.0,1.0,0.0,5.0,5.0,449.4195819715969,8.0,1.0,phase_2,go,150.0,200.0,1.0,,,,,,,,,orange,circle
0.0,7.0,2.0,1.0,5.0,0.0,0.0,8.0,1.0,phase_2,stop,150.0,200.0,4.0,,,,,,,,,yellow,square
0.0,8.0,4.0,1.0,6.0,5.0,288.355655997293,8.0,1.0,phase_2,stop,200.0,200.0,3.0,,,,,,,,,gray,triangle
0.0,3.0,2.0,0.0,5.0,5.0,466.5426859864965,8.0,1.0,phase_2,go,200.0,150.0,1.0,,,,,,,,,white,flipped triangle
0.0,4.0,4.0,0.0,6.0,6.0,487.2281599964481,8.0,1.0,phase_2,go,200.0,150.0,1.0,,,,,,,,,blue,hexagon
0.0,3.0,2.0,0.0,6.0,6.0,425.4059479862917,8.0,1.0,phase_2,go,200.0,150.0,1.0,,,,,,,,,white,flipped triangle
0.0,3.0,2.0,0.0,5.0,5.0,320.5945309891831,8.0,1.0,phase_2,go,200.0,150.0,1.0,,,,,,,,,white,flipped triangle
0.0,8.0,4.0,1.0,5.0,0.0,0.0,8.0,1.0,phase_2,stop,200.0,150.0,4.0,,,,,,,,,gray,triangle
0.0,8.0,4.0,1.0,6.0,0.0,0.0,8.0,1.0,phase_2,stop,250.0,150.0,4.0,,,,,,,,,gray,triangle
0.0,3.0,2.0,0.0,6.0,6.0,1350.0661499856506,8.0,1.0,phase_2,go,250.0,200.0,1.0,,,,,,,,,white,flipped triangle
0.0,5.0,0.5,1.0,5.0,0.0,0.0,8.0,1.0,phase_2,stop,250.0,200.0,4.0,,,,,,,,,magenta,cross
0.0,1.0,0.5,0.0,6.0,6.0,291.8986000004224,8.0,1.0,phase_2,go,300.0,200.0,1.0,,,,,,,,,green,diamond
0.0,1.0,0.5,0.0,6.0,6.0,445.124694990227,8.0,1.0,phase_2,go,300.0,200.0,1.0,,,,,,,,,green,diamond
0.0,5.0,0.5,1.0,5.0,5.0,340.7886940112803,8.0,1.0,phase_2,stop,300.0,200.0,3.0,,,,,,,,,magenta,cross
0.0,3.0,2.0,0.0,5.0,5.0,404.0427269937936,8.0,1.0,phase_2,go,250.0,200.0,1.0,,,,,,,,,white,flipped triangle
0.0,4.0,4.0,0.0,6.0,6.0,544.7959089942742,8.0,1.0,phase_2,go,250.0,200.0,1.0,,,,,,,,,blue,hexagon
0.0,7.0,2.0,1.0,5.0,5.0,273.1796049920376,8.0,1.0,phase_2,stop,250.0,200.0,3.0,,,,,,,,,yellow,square
0.0,7.0,2.0,1.0,7.0,2.0,3830.6136110040825,1.0,1.0,phase_3,,,,,132.0,3.0,88.0,132.0,44.0,220.0,264.0,176.0,yellow,square
0.0,7.0,2.0,1.0,7.0,5.0,1767.804250004701,1.0,1.0,phase_3,,,,,136.0,4.0,68.0,102.0,170.0,204.0,136.0,34.0,yellow,square
0.0,6.0,1.0,1.0,7.0,2.0,3348.389216000214,1.0,1.0,phase_3,,,,,49.0,1.0,294.0,49.0,98.0,196.0,245.0,147.0,cyan,I
0.0,7.0,2.0,1.0,7.0,6.0,2315.7846930262167,1.0,1.0,phase_3,,,,,136.0,4.0,34.0,170.0,102.0,68.0,204.0,136.0,yellow,square
0.0,2.0,1.0,0.0,7.0,1.0,1597.8970769792795,1.0,1.0,phase_3,,,,,108.0,2.0,108.0,54.0,270.0,324.0,162.0,216.0,orange,circle
0.0,8.0,4.0,1.0,7.0,3.0,2725.6837880122475,1.0,1.0,phase_3,,,,,34.0,1.0,68.0,204.0,34.0,102.0,170.0,136.0,gray,triangle
0.0,3.0,2.0,0.0,7.0,2.0,1085.6792260019574,1.0,1.0,phase_3,,,,,216.0,4.0,54.0,216.0,108.0,162.0,324.0,270.0,white,flipped triangle
0.0,8.0,4.0,1.0,7.0,4.0,1274.5446090120822,1.0,1.0,phase_3,,,,,39.0,1.0,234.0,78.0,195.0,39.0,156.0,117.0,gray,triangle
0.0,3.0,2.0,0.0,7.0,4.0,2369.730331003666,1.0,1.0,phase_3,,,,,196.0,4.0,294.0,245.0,98.0,196.0,147.0,49.0,white,flipped triangle
0.0,2.0,1.0,0.0,7.0,1.0,2468.8502209901344,1.0,1.0,phase_3,,,,,88.0,2.0,88.0,264.0,220.0,132.0,176.0,44.0,orange,circle
0.0,3.0,2.0,0.0,7.0,2.0,2748.408543993719,1.0,1.0,phase_3,,,,,220.0,5.0,88.0,220.0,176.0,264.0,44.0,132.0,white,flipped triangle
0.0,2.0,1.0,0.0,7.0,1.0,997.1217299753334,1.0,1.0,phase_3,,,,,102.0,3.0,102.0,204.0,34.0,136.0,68.0,170.0,orange,circle
0.0,6.0,1.0,1.0,7.0,2.0,2294.049071992049,1.0,1.0,phase_3,,,,,54.0,1.0,270.0,54.0,108.0,324.0,162.0,216.0,cyan,I
0.0,2.0,1.0,0.0,7.0,4.0,3987.703771010274,1.0,1.0,phase_3,,,,,117.0,3.0,39.0,234.0,195.0,117.0,78.0,156.0,orange,circle
0.0,4.0,4.0,0.0,7.0,2.0,3766.8028220068654,1.0,1.0,phase_3,,,,,204.0,6.0,170.0,204.0,34.0,136.0,68.0,102.0,blue,hexagon
0.0,4.0,4.0,0.0,7.0,4.0,1994.5984709775075,1.0,1.0,phase_3,,,,,324.0,6.0,162.0,108.0,270.0,324.0,216.0,54.0,blue,hexagon
0.0,2.0,1.0,0.0,7.0,4.0,3556.075273983879,1.0,1.0,phase_3,,,,,98.0,2.0,245.0,196.0,147.0,98.0,49.0,294.0,orange,circle
0.0,3.0,2.0,0.0,7.0,1.0,1484.2545290011913,1.0,1.0,phase_3,,,,,195.0,5.0,195.0,156.0,39.0,117.0,78.0,234.0,white,flipped triangle
0.0,4.0,4.0,0.0,7.0,4.0,2244.8411689838395,1.0,1.0,phase_3,,,,,294.0,6.0,98.0,147.0,245.0,294.0,196.0,49.0,blue,hexagon
0.0,7.0,2.0,1.0,7.0,2.0,3375.6208650011104,1.0,1.0,phase_3,,,,,162.0,3.0,216.0,162.0,270.0,108.0,324.0,54.0,yellow,square
0.0,1.0,0.5,0.0,7.0,6.0,2132.1887279918883,2.0,1.0,phase_3,,,,,234.0,6.0,39.0,156.0,195.0,78.0,117.0,234.0,green,diamond
0.0,5.0,0.5,1.0,7.0,1.0,3898.718570999336,2.0,1.0,phase_3,,,,,195.0,5.0,195.0,117.0,39.0,234.0,156.0,78.0,magenta,cross
0.0,8.0,4.0,1.0,7.0,2.0,3031.000009010313,2.0,1.0,phase_3,,,,,39.0,1.0,117.0,39.0,156.0,78.0,195.0,234.0,gray,triangle
0.0,2.0,1.0,0.0,7.0,2.0,982.2604109940584,2.0,1.0,phase_3,,,,,117.0,3.0,234.0,117.0,195.0,156.0,39.0,78.0,orange,circle
0.0,7.0,2.0,1.0,7.0,2.0,2328.892132994952,2.0,1.0,phase_3,,,,,132.0,3.0,220.0,132.0,264.0,44.0,176.0,88.0,yellow,square
0.0,1.0,0.5,0.0,7.0,2.0,1969.222030980745,2.0,1.0,phase_3,,,,,196.0,4.0,98.0,196.0,147.0,245.0,294.0,49.0,green,diamond
0.0,8.0,4.0,1.0,7.0,3.0,858.6147190071642,2.0,1.0,phase_3,,,,,44.0,1.0,264.0,220.0,44.0,88.0,132.0,176.0,gray,triangle
0.0,5.0,0.5,1.0,7.0,1.0,965.2935490012168,2.0,1.0,phase_3,,,,,264.0,6.0,264.0,176.0,132.0,88.0,220.0,44.0,magenta,cross
0.0,4.0,4.0,0.0,7.0,1.0,1424.5422559906729,2.0,1.0,phase_3,,,,,204.0,6.0,204.0,34.0,102.0,136.0,68.0,170.0,blue,hexagon
0.0,7.0,2.0,1.0,7.0,2.0,3232.4422390083782,2.0,1.0,phase_3,,,,,98.0,2.0,147.0,98.0,49.0,245.0,196.0,294.0,yellow,square
0.0,6.0,1.0,1.0,7.0,3.0,883.3609029825311,2.0,1.0,phase_3,,,,,34.0,1.0,68.0,136.0,34.0,170.0,204.0,102.0,cyan,I
0.0,1.0,0.5,0.0,7.0,3.0,1179.7668540093582,2.0,1.0,phase_3,,,,,234.0,6.0,78.0,156.0,234.0,195.0,39.0,117.0,green,diamond
0.0,4.0,4.0,0.0,7.0,2.0,1458.1635310023555,2.0,1.0,phase_3,,,,,294.0,6.0,245.0,294.0,49.0,98.0,147.0,196.0,blue,hexagon
0.0,6.0,1.0,1.0,7.0,2.0,1948.0458820180504,2.0,1.0,phase_3,,,,,49.0,1.0,245.0,49.0,98.0,147.0,196.0,294.0,cyan,I
0.0,5.0,0.5,1.0,7.0,5.0,1845.5582070164385,2.0,1.0,phase_3,,,,,245.0,5.0,196.0,49.0,98.0,147.0,245.0,294.0,magenta,cross
0.0,4.0,4.0,0.0,7.0,2.0,1569.9198129877914,2.0,1.0,phase_3,,,,,234.0,6.0,78.0,234.0,39.0,156.0,195.0,117.0,blue,hexagon
0.0,3.0,2.0,0.0,7.0,6.0,2184.3196649861056,2.0,1.0,phase_3,,,,,132.0,3.0,44.0,220.0,176.0,88.0,264.0,132.0,white,flipped triangle
0.0,1.0,0.5,0.0,7.0,4.0,1795.676444016863,2.0,1.0,phase_3,,,,,196.0,4.0,98.0,245.0,147.0,196.0,294.0,49.0,green,diamond
0.0,1.0,0.5,0.0,7.0,6.0,1828.9271910034583,2.0,1.0,phase_3,,,,,220.0,5.0,264.0,176.0,88.0,44.0,132.0,220.0,green,diamond
0.0,8.0,4.0,1.0,7.0,6.0,1182.0614129828757,2.0,1.0,phase_3,,,,,49.0,1.0,294.0,147.0,196.0,245.0,98.0,49.0,gray,triangle
0.0,4.0,4.0,0.0,7.0,6.0,1422.1795530174861,3.0,1.0,phase_3,,,,,234.0,6.0,156.0,39.0,117.0,195.0,78.0,234.0,blue,hexagon
0.0,6.0,1.0,1.0,7.0,2.0,959.5584440103266,3.0,1.0,phase_3,,,,,44.0,1.0,220.0,44.0,176.0,264.0,132.0,88.0,cyan,I
0.0,1.0,0.5,0.0,7.0,2.0,3191.644878999796,3.0,1.0,phase_3,,,,,216.0,4.0,108.0,216.0,54.0,270.0,324.0,162.0,green,diamond
0.0,6.0,1.0,1.0,7.0,3.0,1513.6967250145972,3.0,1.0,phase_3,,,,,39.0,1.0,117.0,234.0,39.0,156.0,195.0,78.0,cyan,I
0.0,8.0,4.0,1.0,7.0,2.0,1051.248379983008,3.0,1.0,phase_3,,,,,49.0,1.0,294.0,49.0,147.0,98.0,245.0,196.0,gray,triangle
0.0,5.0,0.5,1.0,7.0,2.0,2244.043234997662,3.0,1.0,phase_3,,,,,270.0,5.0,324.0,270.0,216.0,162.0,54.0,108.0,magenta,cross
0.0,1.0,0.5,0.0,7.0,4.0,2216.820211004233,3.0,1.0,phase_3,,,,,204.0,6.0,170.0,34.0,68.0,204.0,102.0,136.0,green,diamond
0.0,7.0,2.0,1.0,7.0,3.0,758.2054179802071,3.0,1.0,phase_3,,,,,147.0,3.0,294.0,49.0,147.0,245.0,98.0,196.0,yellow,square
0.0,8.0,4.0,1.0,7.0,1.0,954.589330998715,3.0,1.0,phase_3,,,,,34.0,1.0,34.0,68.0,204.0,102.0,136.0,170.0,gray,triangle
0.0,8.0,4.0,1.0,7.0,1.0,1060.593485017307,3.0,1.0,phase_3,,,,,44.0,1.0,44.0,264.0,176.0,132.0,220.0,88.0,gray,triangle
0.0,4.0,4.0,0.0,7.0,5.0,1818.5464470006991,3.0,1.0,phase_3,,,,,264.0,6.0,220.0,88.0,132.0,176.0,264.0,44.0,blue,hexagon
0.0,6.0,1.0,1.0,7.0,4.0,1128.0656500020996,3.0,1.0,phase_3,,,,,34.0,1.0,68.0,136.0,170.0,34.0,204.0,102.0,cyan,I
0.0,5.0,0.5,1.0,7.0,3.0,2487.36562000704,3.0,1.0,phase_3,,,,,170.0,5.0,102.0,68.0,170.0,204.0,34.0,136.0,magenta,cross
0.0,2.0,1.0,0.0,7.0,5.0,1697.6905180199535,3.0,1.0,phase_3,,,,,132.0,3.0,176.0,88.0,220.0,264.0,132.0,44.0,orange,circle
0.0,4.0,4.0,0.0,7.0,6.0,1120.197009993717,3.0,1.0,phase_3,,,,,264.0,6.0,132.0,88.0,176.0,44.0,220.0,264.0,blue,hexagon
0.0,7.0,2.0,1.0,7.0,2.0,2002.1408530010376,3.0,1.0,phase_3,,,,,162.0,3.0,54.0,162.0,108.0,324.0,270.0,216.0,yellow,square
0.0,3.0,2.0,0.0,7.0,2.0,2547.501082997769,3.0,1.0,phase_3,,,,,117.0,3.0,195.0,117.0,156.0,78.0,234.0,39.0,white,flipped triangle
0.0,4.0,4.0,0.0,7.0,1.0,1310.309435997624,3.0,1.0,phase_3,,,,,324.0,6.0,324.0,270.0,216.0,54.0,162.0,108.0,blue,hexagon
0.0,2.0,1.0,0.0,7.0,5.0,2704.269879992353,3.0,1.0,phase_3,,,,,147.0,3.0,49.0,245.0,294.0,196.0,147.0,98.0,orange,circle
0.0,7.0,2.0,1.0,7.0,5.0,1080.5893360229677,3.0,1.0,phase_3,,,,,117.0,3.0,156.0,78.0,195.0,234.0,117.0,39.0,yellow,square
0.0,5.0,0.5,1.0,7.0,2.0,1772.5741799804382,4.0,1.0,phase_3,,,,,245.0,5.0,147.0,245.0,98.0,294.0,49.0,196.0,magenta,cross
0.0,5.0,0.5,1.0,7.0,4.0,1342.6299409766216,4.0,1.0,phase_3,,,,,204.0,6.0,34.0,68.0,102.0,204.0,136.0,170.0,magenta,cross
0.0,5.0,0.5,1.0,7.0,2.0,982.0896089950112,4.0,1.0,phase_3,,,,,220.0,5.0,88.0,220.0,132.0,44.0,176.0,264.0,magenta,cross
0.0,2.0,1.0,0.0,7.0,3.0,2341.93988199695,4.0,1.0,phase_3,,,,,136.0,4.0,170.0,34.0,136.0,68.0,204.0,102.0,orange,circle
0.0,3.0,2.0,0.0,7.0,6.0,2616.797136986861,4.0,1.0,phase_3,,,,,102.0,3.0,68.0,136.0,204.0,34.0,170.0,102.0,white,flipped triangle
0.0,1.0,0.5,0.0,7.0,4.0,1048.9101280109026,4.0,1.0,phase_3,,,,,170.0,5.0,102.0,136.0,68.0,170.0,34.0,204.0,green,diamond
0.0,2.0,1.0,0.0,7.0,4.0,988.7707169982604,4.0,1.0,phase_3,,,,,108.0,2.0,270.0,216.0,54.0,108.0,162.0,324.0,orange,circle
0.0,3.0,2.0,0.0,7.0,5.0,2407.4264420196414,4.0,1.0,phase_3,,,,,98.0,2.0,49.0,147.0,294.0,245.0,98.0,196.0,white,flipped triangle
0.0,1.0,0.5,0.0,7.0,2.0,2013.039001001744,4.0,1.0,phase_3,,,,,176.0,4.0,132.0,176.0,220.0,88.0,264.0,44.0,green,diamond
0.0,7.0,2.0,1.0,7.0,4.0,2200.586844002828,4.0,1.0,phase_3,,,,,117.0,3.0,78.0,156.0,195.0,117.0,39.0,234.0,yellow,square
0.0,1.0,0.5,0.0,7.0,2.0,2442.6553740049712,4.0,1.0,phase_3,,,,,216.0,4.0,324.0,216.0,54.0,270.0,162.0,108.0,green,diamond
0.0,5.0,0.5,1.0,7.0,1.0,2507.355342997471,4.0,1.0,phase_3,,,,,216.0,4.0,216.0,54.0,108.0,324.0,270.0,162.0,magenta,cross
0.0,3.0,2.0,0.0,7.0,4.0,3059.157859010156,4.0,1.0,phase_3,,,,,68.0,2.0,102.0,204.0,170.0,68.0,136.0,34.0,white,flipped triangle
0.0,6.0,1.0,1.0,7.0,6.0,1069.8743329849094,4.0,1.0,phase_3,,,,,44.0,1.0,264.0,176.0,132.0,88.0,220.0,44.0,cyan,I
0.0,8.0,4.0,1.0,7.0,6.0,825.4495789879002,4.0,1.0,phase_3,,,,,54.0,1.0,162.0,108.0,324.0,216.0,270.0,54.0,gray,triangle
0.0,5.0,0.5,1.0,7.0,3.0,1386.4647519949358,4.0,1.0,phase_3,,,,,195.0,5.0,39.0,117.0,195.0,156.0,234.0,78.0,magenta,cross
0.0,3.0,2.0,0.0,7.0,6.0,1384.0844869846478,4.0,1.0,phase_3,,,,,108.0,2.0,216.0,324.0,162.0,270.0,54.0,108.0,white,flipped triangle
0.0,8.0,4.0,1.0,7.0,5.0,708.7166889978107,4.0,1.0,phase_3,,,,,54.0,1.0,216.0,324.0,108.0,162.0,54.0,270.0,gray,triangle
0.0,6.0,1.0,1.0,7.0,2.0,1029.938691994175,4.0,1.0,phase_3,,,,,39.0,1.0,78.0,39.0,117.0,195.0,156.0,234.0,cyan,I
0.0,6.0,1.0,1.0,7.0,2.0,766.1812489968725,4.0,1.0,phase_3,,,,,54.0,1.0,108.0,54.0,216.0,162.0,270.0,324.0,cyan,I
