raw_reward_magnitude,stim_reward,stepwise_reward_magnitude,paired_with_stopping,stim_location,response,reaction_time,block,num_trial_presentations,which_phase,stop_signal_trial_type,left_SSD,right_SSD,accuracy,chosen_bidding_amount,chosen_bidding_level,possible_bid_1,possible_bid_2,possible_bid_3,possible_bid_4,possible_bid_5,possible_bid_6,color_text,shape_text
123.0,6.0,1.0,1.0,1.0,1.0,552.3585039773025,1.0,1.0,phase_1,,,,,,,,,,,,,magenta,triangle
380.0,4.0,4.0,0.0,4.0,4.0,430.3045109845698,1.0,1.0,phase_1,,,,,,,,,,,,,blue,I
222.0,3.0,2.0,0.0,2.0,2.0,473.418193985708,1.0,1.0,phase_1,,,,,,,,,,,,,gray,diamond
192.0,7.0,2.0,1.0,2.0,2.0,359.3959000427276,1.0,1.0,phase_1,,,,,,,,,,,,,white,circle
45.0,1.0,0.5,0.0,4.0,4.0,347.9962190031074,1.0,1.0,phase_1,,,,,,,,,,,,,yellow,cross
0.0,5.0,0.0,1.0,2.0,2.0,330.0544479861855,1.0,1.0,phase_1,,,,,,,,,,,,,orange,square
209.0,7.0,2.0,1.0,1.0,1.0,310.4067029780708,1.0,1.0,phase_1,,,,,,,,,,,,,white,circle
222.0,7.0,2.0,1.0,2.0,2.0,307.1277969866059,1.0,1.0,phase_1,,,,,,,,,,,,,white,circle
83.0,6.0,1.0,1.0,2.0,2.0,399.4548830087296,1.0,1.0,phase_1,,,,,,,,,,,,,magenta,triangle
401.0,8.0,4.0,1.0,2.0,2.0,331.0327120125294,1.0,1.0,phase_1,,,,,,,,,,,,,cyan,hexagon
379.0,8.0,4.0,1.0,2.0,2.0,326.4818180468865,1.0,1.0,phase_1,,,,,,,,,,,,,cyan,hexagon
385.0,8.0,4.0,1.0,1.0,1.0,347.3488750169053,1.0,1.0,phase_1,,,,,,,,,,,,,cyan,hexagon
49.0,1.0,0.5,0.0,3.0,3.0,432.5231799739413,1.0,1.0,phase_1,,,,,,,,,,,,,yellow,cross
191.0,7.0,2.0,1.0,4.0,4.0,356.4023250364698,1.0,1.0,phase_1,,,,,,,,,,,,,white,circle
104.0,2.0,1.0,0.0,1.0,1.0,331.0902200173586,1.0,1.0,phase_1,,,,,,,,,,,,,green,flipped triangle
32.0,1.0,0.5,0.0,2.0,2.0,273.3552940189838,1.0,1.0,phase_1,,,,,,,,,,,,,yellow,cross
421.0,4.0,4.0,0.0,3.0,3.0,325.7086040102877,1.0,1.0,phase_1,,,,,,,,,,,,,blue,I
387.0,8.0,4.0,1.0,3.0,3.0,426.0238920105621,1.0,1.0,phase_1,,,,,,,,,,,,,cyan,hexagon
0.0,6.0,0.0,1.0,1.0,1.0,316.4449189789593,1.0,1.0,phase_1,,,,,,,,,,,,,magenta,triangle
117.0,6.0,1.0,1.0,3.0,3.0,321.5066260308958,1.0,1.0,phase_1,,,,,,,,,,,,,magenta,triangle
64.0,1.0,0.5,0.0,2.0,2.0,519.6247409912758,1.0,1.0,phase_1,,,,,,,,,,,,,yellow,cross
378.0,4.0,4.0,0.0,4.0,4.0,388.8945940416306,1.0,1.0,phase_1,,,,,,,,,,,,,blue,I
0.0,7.0,0.0,1.0,1.0,1.0,374.253440008033,1.0,1.0,phase_1,,,,,,,,,,,,,white,circle
201.0,3.0,2.0,0.0,1.0,1.0,388.0470260046422,1.0,1.0,phase_1,,,,,,,,,,,,,gray,diamond
414.0,4.0,4.0,0.0,4.0,4.0,452.1746420068666,1.0,1.0,phase_1,,,,,,,,,,,,,blue,I
113.0,2.0,1.0,0.0,1.0,1.0,334.5752169843763,1.0,1.0,phase_1,,,,,,,,,,,,,green,flipped triangle
401.0,8.0,4.0,1.0,3.0,3.0,362.0984340086579,1.0,1.0,phase_1,,,,,,,,,,,,,cyan,hexagon
0.0,5.0,0.0,1.0,1.0,1.0,329.8712690011598,1.0,1.0,phase_1,,,,,,,,,,,,,orange,square
26.0,5.0,0.5,1.0,3.0,3.0,483.4346399875358,1.0,1.0,phase_1,,,,,,,,,,,,,orange,square
422.0,8.0,4.0,1.0,1.0,1.0,329.2143569560721,1.0,1.0,phase_1,,,,,,,,,,,,,cyan,hexagon
38.0,1.0,0.5,0.0,3.0,3.0,374.869086954277,1.0,1.0,phase_1,,,,,,,,,,,,,yellow,cross
210.0,3.0,2.0,0.0,3.0,3.0,493.0584529647603,1.0,1.0,phase_1,,,,,,,,,,,,,gray,diamond
0.0,7.0,0.0,1.0,2.0,2.0,397.9926839820109,1.0,1.0,phase_1,,,,,,,,,,,,,white,circle
176.0,3.0,2.0,0.0,2.0,2.0,386.62442099303,1.0,1.0,phase_1,,,,,,,,,,,,,gray,diamond
0.0,3.0,0.0,0.0,3.0,3.0,519.9151319684461,1.0,1.0,phase_1,,,,,,,,,,,,,gray,diamond
390.0,8.0,4.0,1.0,4.0,4.0,374.0808760048821,1.0,1.0,phase_1,,,,,,,,,,,,,cyan,hexagon
110.0,6.0,1.0,1.0,3.0,3.0,378.781531995628,1.0,1.0,phase_1,,,,,,,,,,,,,magenta,triangle
395.0,4.0,4.0,0.0,2.0,2.0,423.6395640182309,1.0,1.0,phase_1,,,,,,,,,,,,,blue,I
0.0,5.0,0.0,1.0,3.0,3.0,444.8024799930863,1.0,1.0,phase_1,,,,,,,,,,,,,orange,square
222.0,7.0,2.0,1.0,2.0,2.0,494.6004269877448,1.0,1.0,phase_1,,,,,,,,,,,,,white,circle
31.0,5.0,0.5,1.0,2.0,2.0,378.70701198698947,1.0,1.0,phase_1,,,,,,,,,,,,,orange,square
72.0,1.0,0.5,0.0,2.0,2.0,362.8262199927121,1.0,1.0,phase_1,,,,,,,,,,,,,yellow,cross
0.0,1.0,0.0,0.0,3.0,3.0,317.2522640088573,1.0,1.0,phase_1,,,,,,,,,,,,,yellow,cross
0.0,4.0,0.0,0.0,1.0,1.0,336.87394997105,1.0,1.0,phase_1,,,,,,,,,,,,,blue,I
111.0,6.0,1.0,1.0,3.0,3.0,352.1219110116362,1.0,1.0,phase_1,,,,,,,,,,,,,magenta,triangle
390.0,8.0,4.0,1.0,2.0,2.0,378.4718829556368,1.0,1.0,phase_1,,,,,,,,,,,,,cyan,hexagon
183.0,3.0,2.0,0.0,2.0,2.0,377.0105809671804,1.0,1.0,phase_1,,,,,,,,,,,,,gray,diamond
0.0,6.0,0.0,1.0,2.0,2.0,300.5730459699407,1.0,1.0,phase_1,,,,,,,,,,,,,magenta,triangle
0.0,4.0,0.0,0.0,2.0,2.0,330.0171110313386,1.0,1.0,phase_1,,,,,,,,,,,,,blue,I
216.0,3.0,2.0,0.0,1.0,1.0,414.9629099993035,1.0,1.0,phase_1,,,,,,,,,,,,,gray,diamond
0.0,5.0,0.0,1.0,3.0,3.0,357.8992550028488,1.0,1.0,phase_1,,,,,,,,,,,,,orange,square
390.0,4.0,4.0,0.0,1.0,1.0,361.6189599852077,1.0,1.0,phase_1,,,,,,,,,,,,,blue,I
32.0,1.0,0.5,0.0,1.0,1.0,478.1690530362539,1.0,1.0,phase_1,,,,,,,,,,,,,yellow,cross
0.0,8.0,0.0,1.0,4.0,4.0,392.9219449637458,1.0,1.0,phase_1,,,,,,,,,,,,,cyan,hexagon
0.0,8.0,0.0,1.0,4.0,4.0,408.3361259545199,1.0,1.0,phase_1,,,,,,,,,,,,,cyan,hexagon
403.0,8.0,4.0,1.0,1.0,1.0,442.2518180217594,1.0,1.0,phase_1,,,,,,,,,,,,,cyan,hexagon
401.0,4.0,4.0,0.0,2.0,2.0,357.748812995851,1.0,1.0,phase_1,,,,,,,,,,,,,blue,I
79.0,2.0,1.0,0.0,3.0,3.0,363.1542939692735,1.0,1.0,phase_1,,,,,,,,,,,,,green,flipped triangle
37.0,5.0,0.5,1.0,2.0,2.0,402.4855229654349,1.0,1.0,phase_1,,,,,,,,,,,,,orange,square
0.0,2.0,0.0,0.0,1.0,1.0,359.440207015723,1.0,1.0,phase_1,,,,,,,,,,,,,green,flipped triangle
39.0,5.0,0.5,1.0,1.0,1.0,520.7505789585412,1.0,1.0,phase_1,,,,,,,,,,,,,orange,square
47.0,1.0,0.5,0.0,4.0,4.0,407.4254340375773,1.0,1.0,phase_1,,,,,,,,,,,,,yellow,cross
0.0,2.0,0.0,0.0,1.0,1.0,395.1347039546817,1.0,1.0,phase_1,,,,,,,,,,,,,green,flipped triangle
219.0,3.0,2.0,0.0,1.0,1.0,406.8856890080496,1.0,1.0,phase_1,,,,,,,,,,,,,gray,diamond
31.0,1.0,0.5,0.0,1.0,1.0,644.2132759839296,1.0,1.0,phase_1,,,,,,,,,,,,,yellow,cross
82.0,2.0,1.0,0.0,3.0,3.0,371.1615449865348,1.0,1.0,phase_1,,,,,,,,,,,,,green,flipped triangle
98.0,2.0,1.0,0.0,2.0,2.0,500.6178760086186,1.0,1.0,phase_1,,,,,,,,,,,,,green,flipped triangle
0.0,4.0,0.0,0.0,4.0,4.0,387.9365419852547,1.0,1.0,phase_1,,,,,,,,,,,,,blue,I
71.0,5.0,0.5,1.0,4.0,4.0,448.9953350275755,1.0,1.0,phase_1,,,,,,,,,,,,,orange,square
0.0,7.0,0.0,1.0,2.0,2.0,386.3033709931187,1.0,1.0,phase_1,,,,,,,,,,,,,white,circle
223.0,3.0,2.0,0.0,4.0,4.0,625.6064850022085,1.0,1.0,phase_1,,,,,,,,,,,,,gray,diamond
184.0,3.0,2.0,0.0,4.0,4.0,488.388248020783,1.0,1.0,phase_1,,,,,,,,,,,,,gray,diamond
85.0,2.0,1.0,0.0,2.0,2.0,592.6244399743155,1.0,1.0,phase_1,,,,,,,,,,,,,green,flipped triangle
425.0,8.0,4.0,1.0,3.0,3.0,397.998493979685,1.0,1.0,phase_1,,,,,,,,,,,,,cyan,hexagon
110.0,2.0,1.0,0.0,3.0,3.0,403.7203899933956,1.0,1.0,phase_1,,,,,,,,,,,,,green,flipped triangle
94.0,2.0,1.0,0.0,3.0,3.0,464.148783008568,1.0,1.0,phase_1,,,,,,,,,,,,,green,flipped triangle
82.0,2.0,1.0,0.0,4.0,4.0,446.0928740445524,1.0,1.0,phase_1,,,,,,,,,,,,,green,flipped triangle
74.0,5.0,0.5,1.0,3.0,3.0,378.1757150427438,1.0,1.0,phase_1,,,,,,,,,,,,,orange,square
0.0,7.0,0.0,1.0,2.0,2.0,334.6867020009085,1.0,1.0,phase_1,,,,,,,,,,,,,white,circle
94.0,6.0,1.0,1.0,2.0,2.0,380.7140109711326,1.0,1.0,phase_1,,,,,,,,,,,,,magenta,triangle
70.0,5.0,0.5,1.0,1.0,1.0,408.4013519459404,1.0,1.0,phase_1,,,,,,,,,,,,,orange,square
413.0,4.0,4.0,0.0,4.0,4.0,342.4994110246189,1.0,1.0,phase_1,,,,,,,,,,,,,blue,I
398.0,8.0,4.0,1.0,4.0,4.0,443.9509040093981,1.0,1.0,phase_1,,,,,,,,,,,,,cyan,hexagon
82.0,6.0,1.0,1.0,2.0,2.0,327.7891149627976,1.0,1.0,phase_1,,,,,,,,,,,,,magenta,triangle
0.0,5.0,0.0,1.0,2.0,2.0,339.6338000311516,1.0,1.0,phase_1,,,,,,,,,,,,,orange,square
78.0,2.0,1.0,0.0,2.0,2.0,429.6602199901826,1.0,1.0,phase_1,,,,,,,,,,,,,green,flipped triangle
0.0,1.0,0.0,0.0,1.0,1.0,362.6531669870019,1.0,1.0,phase_1,,,,,,,,,,,,,yellow,cross
200.0,3.0,2.0,0.0,4.0,4.0,335.990518971812,1.0,1.0,phase_1,,,,,,,,,,,,,gray,diamond
0.0,2.0,0.0,0.0,3.0,3.0,373.5066430526785,1.0,1.0,phase_1,,,,,,,,,,,,,green,flipped triangle
425.0,4.0,4.0,0.0,4.0,4.0,427.8167079901322,1.0,1.0,phase_1,,,,,,,,,,,,,blue,I
411.0,8.0,4.0,1.0,2.0,2.0,408.6949930060655,1.0,1.0,phase_1,,,,,,,,,,,,,cyan,hexagon
0.0,7.0,0.0,1.0,1.0,1.0,444.7125529986806,1.0,1.0,phase_1,,,,,,,,,,,,,white,circle
52.0,5.0,0.5,1.0,4.0,4.0,378.4264459973201,1.0,1.0,phase_1,,,,,,,,,,,,,orange,square
0.0,6.0,0.0,1.0,2.0,2.0,371.4223770075477,1.0,1.0,phase_1,,,,,,,,,,,,,magenta,triangle
82.0,2.0,1.0,0.0,3.0,3.0,402.8378949733451,1.0,1.0,phase_1,,,,,,,,,,,,,green,flipped triangle
121.0,2.0,1.0,0.0,1.0,1.0,392.6515330094844,1.0,1.0,phase_1,,,,,,,,,,,,,green,flipped triangle
376.0,4.0,4.0,0.0,3.0,3.0,467.7777750184759,1.0,1.0,phase_1,,,,,,,,,,,,,blue,I
382.0,8.0,4.0,1.0,1.0,1.0,424.1805530036799,1.0,1.0,phase_1,,,,,,,,,,,,,cyan,hexagon
101.0,6.0,1.0,1.0,4.0,4.0,381.6804490052163,1.0,1.0,phase_1,,,,,,,,,,,,,magenta,triangle
0.0,8.0,0.0,1.0,2.0,2.0,410.7749409740791,1.0,1.0,phase_1,,,,,,,,,,,,,cyan,hexagon
220.0,7.0,2.0,1.0,1.0,1.0,559.641532949172,2.0,1.0,phase_1,,,,,,,,,,,,,white,circle
106.0,6.0,1.0,1.0,1.0,1.0,419.5751589722931,2.0,1.0,phase_1,,,,,,,,,,,,,magenta,triangle
32.0,5.0,0.5,1.0,4.0,4.0,330.0858960137702,2.0,1.0,phase_1,,,,,,,,,,,,,orange,square
115.0,2.0,1.0,0.0,4.0,4.0,366.7421629652381,2.0,1.0,phase_1,,,,,,,,,,,,,green,flipped triangle
45.0,1.0,0.5,0.0,3.0,3.0,315.447230997961,2.0,1.0,phase_1,,,,,,,,,,,,,yellow,cross
0.0,5.0,0.0,1.0,3.0,3.0,375.8469269960187,2.0,1.0,phase_1,,,,,,,,,,,,,orange,square
407.0,8.0,4.0,1.0,2.0,2.0,484.737281978596,2.0,1.0,phase_1,,,,,,,,,,,,,cyan,hexagon
66.0,1.0,0.5,0.0,1.0,1.0,366.3274549762718,2.0,1.0,phase_1,,,,,,,,,,,,,yellow,cross
415.0,4.0,4.0,0.0,1.0,1.0,427.5213039945811,2.0,1.0,phase_1,,,,,,,,,,,,,blue,I
35.0,1.0,0.5,0.0,2.0,2.0,335.2121870266273,2.0,1.0,phase_1,,,,,,,,,,,,,yellow,cross
0.0,4.0,0.0,0.0,3.0,3.0,326.6593549633398,2.0,1.0,phase_1,,,,,,,,,,,,,blue,I
122.0,2.0,1.0,0.0,4.0,4.0,347.0221720053814,2.0,1.0,phase_1,,,,,,,,,,,,,green,flipped triangle
101.0,2.0,1.0,0.0,4.0,4.0,359.3095419928431,2.0,1.0,phase_1,,,,,,,,,,,,,green,flipped triangle
103.0,2.0,1.0,0.0,2.0,2.0,373.8254370400682,2.0,1.0,phase_1,,,,,,,,,,,,,green,flipped triangle
382.0,8.0,4.0,1.0,3.0,3.0,415.0794169981964,2.0,1.0,phase_1,,,,,,,,,,,,,cyan,hexagon
125.0,6.0,1.0,1.0,2.0,2.0,428.1204110011458,2.0,1.0,phase_1,,,,,,,,,,,,,magenta,triangle
380.0,8.0,4.0,1.0,4.0,4.0,371.1251500062644,2.0,1.0,phase_1,,,,,,,,,,,,,cyan,hexagon
28.0,5.0,0.5,1.0,4.0,4.0,485.1990700117312,2.0,1.0,phase_1,,,,,,,,,,,,,orange,square
397.0,8.0,4.0,1.0,2.0,2.0,515.8898959634826,2.0,1.0,phase_1,,,,,,,,,,,,,cyan,hexagon
54.0,5.0,0.5,1.0,1.0,1.0,345.7251159707084,2.0,1.0,phase_1,,,,,,,,,,,,,orange,square
54.0,5.0,0.5,1.0,2.0,2.0,333.148221950978,2.0,1.0,phase_1,,,,,,,,,,,,,orange,square
201.0,7.0,2.0,1.0,4.0,4.0,394.6138590108603,2.0,1.0,phase_1,,,,,,,,,,,,,white,circle
82.0,6.0,1.0,1.0,1.0,1.0,384.5907810027711,2.0,1.0,phase_1,,,,,,,,,,,,,magenta,triangle
197.0,7.0,2.0,1.0,4.0,4.0,345.7457780023105,2.0,1.0,phase_1,,,,,,,,,,,,,white,circle
104.0,6.0,1.0,1.0,2.0,2.0,366.8495409656316,2.0,1.0,phase_1,,,,,,,,,,,,,magenta,triangle
123.0,2.0,1.0,0.0,4.0,4.0,334.6660669776611,2.0,1.0,phase_1,,,,,,,,,,,,,green,flipped triangle
0.0,2.0,0.0,0.0,2.0,2.0,313.7532449909486,2.0,1.0,phase_1,,,,,,,,,,,,,green,flipped triangle
0.0,8.0,0.0,1.0,2.0,2.0,451.7999020172283,2.0,1.0,phase_1,,,,,,,,,,,,,cyan,hexagon
0.0,3.0,0.0,0.0,1.0,1.0,378.6793570034206,2.0,1.0,phase_1,,,,,,,,,,,,,gray,diamond
196.0,3.0,2.0,0.0,4.0,4.0,430.0670759985223,2.0,1.0,phase_1,,,,,,,,,,,,,gray,diamond
49.0,5.0,0.5,1.0,3.0,3.0,358.0331259872764,2.0,1.0,phase_1,,,,,,,,,,,,,orange,square
0.0,1.0,0.0,0.0,4.0,4.0,377.9122680425644,2.0,1.0,phase_1,,,,,,,,,,,,,yellow,cross
179.0,7.0,2.0,1.0,2.0,2.0,374.0028860047459,2.0,1.0,phase_1,,,,,,,,,,,,,white,circle
59.0,5.0,0.5,1.0,3.0,3.0,362.5585989793762,2.0,1.0,phase_1,,,,,,,,,,,,,orange,square
117.0,2.0,1.0,0.0,4.0,4.0,422.6694849785417,2.0,1.0,phase_1,,,,,,,,,,,,,green,flipped triangle
206.0,3.0,2.0,0.0,3.0,3.0,357.955290004611,2.0,1.0,phase_1,,,,,,,,,,,,,gray,diamond
106.0,2.0,1.0,0.0,1.0,1.0,538.857935986016,2.0,2.0,phase_1,,,,,,,,,,,,,green,flipped triangle
78.0,6.0,1.0,1.0,4.0,4.0,530.2510539768264,2.0,1.0,phase_1,,,,,,,,,,,,,magenta,triangle
0.0,6.0,0.0,1.0,4.0,4.0,452.3008649703115,2.0,1.0,phase_1,,,,,,,,,,,,,magenta,triangle
176.0,7.0,2.0,1.0,3.0,3.0,500.06045203190297,2.0,1.0,phase_1,,,,,,,,,,,,,white,circle
83.0,6.0,1.0,1.0,4.0,4.0,441.7805119883269,2.0,1.0,phase_1,,,,,,,,,,,,,magenta,triangle
182.0,7.0,2.0,1.0,4.0,4.0,422.3510969895869,2.0,1.0,phase_1,,,,,,,,,,,,,white,circle
26.0,1.0,0.5,0.0,4.0,4.0,391.4458850049414,2.0,1.0,phase_1,,,,,,,,,,,,,yellow,cross
83.0,2.0,1.0,0.0,3.0,3.0,494.1918900003657,2.0,1.0,phase_1,,,,,,,,,,,,,green,flipped triangle
188.0,3.0,2.0,0.0,1.0,1.0,635.2241519489326,2.0,1.0,phase_1,,,,,,,,,,,,,gray,diamond
214.0,3.0,2.0,0.0,4.0,4.0,400.3613910172134,2.0,1.0,phase_1,,,,,,,,,,,,,gray,diamond
422.0,4.0,4.0,0.0,2.0,2.0,388.8129750266671,2.0,1.0,phase_1,,,,,,,,,,,,,blue,I
422.0,8.0,4.0,1.0,3.0,3.0,408.5458680056035,2.0,1.0,phase_1,,,,,,,,,,,,,cyan,hexagon
222.0,3.0,2.0,0.0,1.0,1.0,547.5042150355875,2.0,1.0,phase_1,,,,,,,,,,,,,gray,diamond
400.0,4.0,4.0,0.0,1.0,1.0,487.9890140146017,2.0,1.0,phase_1,,,,,,,,,,,,,blue,I
403.0,4.0,4.0,0.0,4.0,4.0,396.763181022834,2.0,1.0,phase_1,,,,,,,,,,,,,blue,I
38.0,1.0,0.5,0.0,1.0,1.0,493.1464040419087,2.0,1.0,phase_1,,,,,,,,,,,,,yellow,cross
111.0,2.0,1.0,0.0,2.0,2.0,358.6518990341574,2.0,1.0,phase_1,,,,,,,,,,,,,green,flipped triangle
0.0,5.0,0.0,1.0,3.0,3.0,606.6526679787785,2.0,1.0,phase_1,,,,,,,,,,,,,orange,square
0.0,1.0,0.0,0.0,2.0,2.0,378.717407991644,2.0,1.0,phase_1,,,,,,,,,,,,,yellow,cross
217.0,3.0,2.0,0.0,4.0,4.0,439.5888620056212,2.0,1.0,phase_1,,,,,,,,,,,,,gray,diamond
77.0,6.0,1.0,1.0,1.0,1.0,409.8496889928356,2.0,1.0,phase_1,,,,,,,,,,,,,magenta,triangle
219.0,7.0,2.0,1.0,3.0,3.0,662.6826350111514,2.0,1.0,phase_1,,,,,,,,,,,,,white,circle
107.0,6.0,1.0,1.0,1.0,1.0,468.1650539860129,2.0,1.0,phase_1,,,,,,,,,,,,,magenta,triangle
0.0,3.0,0.0,0.0,2.0,2.0,370.228050975129,2.0,1.0,phase_1,,,,,,,,,,,,,gray,diamond
98.0,6.0,1.0,1.0,2.0,2.0,357.1077070082538,2.0,1.0,phase_1,,,,,,,,,,,,,magenta,triangle
72.0,5.0,0.5,1.0,2.0,2.0,386.6654010489583,2.0,1.0,phase_1,,,,,,,,,,,,,orange,square
94.0,6.0,1.0,1.0,3.0,3.0,590.7337090466172,2.0,1.0,phase_1,,,,,,,,,,,,,magenta,triangle
53.0,5.0,0.5,1.0,2.0,2.0,385.9132240177132,2.0,1.0,phase_1,,,,,,,,,,,,,orange,square
419.0,4.0,4.0,0.0,3.0,3.0,329.3271209695376,2.0,1.0,phase_1,,,,,,,,,,,,,blue,I
32.0,5.0,0.5,1.0,1.0,1.0,326.784024015069,2.0,1.0,phase_1,,,,,,,,,,,,,orange,square
124.0,2.0,1.0,0.0,4.0,4.0,799.5572040090337,2.0,1.0,phase_1,,,,,,,,,,,,,green,flipped triangle
415.0,8.0,4.0,1.0,2.0,2.0,407.2802690207027,2.0,1.0,phase_1,,,,,,,,,,,,,cyan,hexagon
217.0,7.0,2.0,1.0,1.0,1.0,370.6791809527203,2.0,1.0,phase_1,,,,,,,,,,,,,white,circle
385.0,4.0,4.0,0.0,3.0,3.0,390.3209069976583,2.0,1.0,phase_1,,,,,,,,,,,,,blue,I
123.0,2.0,1.0,0.0,2.0,2.0,308.6289070197381,2.0,1.0,phase_1,,,,,,,,,,,,,green,flipped triangle
191.0,3.0,2.0,0.0,1.0,1.0,375.4016070161015,2.0,1.0,phase_1,,,,,,,,,,,,,gray,diamond
387.0,8.0,4.0,1.0,1.0,1.0,566.1405079881661,2.0,1.0,phase_1,,,,,,,,,,,,,cyan,hexagon
403.0,8.0,4.0,1.0,3.0,3.0,483.6256660055369,2.0,1.0,phase_1,,,,,,,,,,,,,cyan,hexagon
216.0,7.0,2.0,1.0,2.0,2.0,373.335481970571,2.0,1.0,phase_1,,,,,,,,,,,,,white,circle
198.0,7.0,2.0,1.0,4.0,4.0,329.5061030075885,2.0,1.0,phase_1,,,,,,,,,,,,,white,circle
184.0,3.0,2.0,0.0,1.0,1.0,440.3125179815106,2.0,1.0,phase_1,,,,,,,,,,,,,gray,diamond
209.0,7.0,2.0,1.0,3.0,3.0,390.1963090174831,2.0,1.0,phase_1,,,,,,,,,,,,,white,circle
89.0,2.0,1.0,0.0,3.0,3.0,385.8016890008002,2.0,1.0,phase_1,,,,,,,,,,,,,green,flipped triangle
382.0,4.0,4.0,0.0,3.0,3.0,398.1899239588529,2.0,1.0,phase_1,,,,,,,,,,,,,blue,I
72.0,1.0,0.5,0.0,2.0,2.0,377.8550479910336,2.0,1.0,phase_1,,,,,,,,,,,,,yellow,cross
116.0,2.0,1.0,0.0,1.0,1.0,445.739108021371,2.0,1.0,phase_1,,,,,,,,,,,,,green,flipped triangle
0.0,4.0,0.0,0.0,3.0,3.0,516.3758019916713,2.0,1.0,phase_1,,,,,,,,,,,,,blue,I
0.0,4.0,0.0,0.0,2.0,2.0,386.6589419776574,2.0,1.0,phase_1,,,,,,,,,,,,,blue,I
384.0,8.0,4.0,1.0,3.0,3.0,480.0200700410642,2.0,1.0,phase_1,,,,,,,,,,,,,cyan,hexagon
66.0,1.0,0.5,0.0,2.0,2.0,433.4421069943346,2.0,1.0,phase_1,,,,,,,,,,,,,yellow,cross
382.0,4.0,4.0,0.0,3.0,3.0,389.4051079987548,2.0,1.0,phase_1,,,,,,,,,,,,,blue,I
0.0,3.0,0.0,0.0,4.0,4.0,462.2034939820878,2.0,1.0,phase_1,,,,,,,,,,,,,gray,diamond
223.0,7.0,2.0,1.0,1.0,1.0,382.5638709822669,2.0,1.0,phase_1,,,,,,,,,,,,,white,circle
176.0,3.0,2.0,0.0,3.0,3.0,421.9284349819645,2.0,1.0,phase_1,,,,,,,,,,,,,gray,diamond
0.0,3.0,0.0,0.0,4.0,4.0,371.1908329860307,2.0,1.0,phase_1,,,,,,,,,,,,,gray,diamond
0.0,7.0,0.0,1.0,2.0,2.0,359.8566449945792,2.0,1.0,phase_1,,,,,,,,,,,,,white,circle
82.0,6.0,1.0,1.0,1.0,1.0,394.948860979639,2.0,1.0,phase_1,,,,,,,,,,,,,magenta,triangle
387.0,4.0,4.0,0.0,1.0,1.0,462.3835530364886,2.0,1.0,phase_1,,,,,,,,,,,,,blue,I
0.0,1.0,0.0,0.0,1.0,1.0,509.4009699532762,2.0,1.0,phase_1,,,,,,,,,,,,,yellow,cross
71.0,1.0,0.5,0.0,4.0,4.0,402.6257770019583,2.0,1.0,phase_1,,,,,,,,,,,,,yellow,cross
184.0,7.0,2.0,1.0,3.0,3.0,374.2588460445404,2.0,1.0,phase_1,,,,,,,,,,,,,white,circle
419.0,8.0,4.0,1.0,2.0,2.0,344.9836060171947,2.0,1.0,phase_1,,,,,,,,,,,,,cyan,hexagon
38.0,5.0,0.5,1.0,2.0,2.0,512.0228320010938,2.0,1.0,phase_1,,,,,,,,,,,,,orange,square
99.0,2.0,1.0,0.0,1.0,1.0,338.4435089537874,2.0,1.0,phase_1,,,,,,,,,,,,,green,flipped triangle
421.0,8.0,4.0,1.0,1.0,1.0,420.1808460056782,3.0,1.0,phase_1,,,,,,,,,,,,,cyan,hexagon
403.0,8.0,4.0,1.0,1.0,1.0,395.8287040004506,3.0,1.0,phase_1,,,,,,,,,,,,,cyan,hexagon
184.0,3.0,2.0,0.0,2.0,2.0,351.4205879764631,3.0,1.0,phase_1,,,,,,,,,,,,,gray,diamond
220.0,3.0,2.0,0.0,4.0,4.0,350.2485380158759,3.0,1.0,phase_1,,,,,,,,,,,,,gray,diamond
44.0,1.0,0.5,0.0,3.0,3.0,359.2114080092869,3.0,1.0,phase_1,,,,,,,,,,,,,yellow,cross
59.0,1.0,0.5,0.0,3.0,3.0,379.4121899991296,3.0,1.0,phase_1,,,,,,,,,,,,,yellow,cross
179.0,3.0,2.0,0.0,1.0,1.0,392.7338999928906,3.0,1.0,phase_1,,,,,,,,,,,,,gray,diamond
199.0,7.0,2.0,1.0,3.0,3.0,382.5507890433073,3.0,1.0,phase_1,,,,,,,,,,,,,white,circle
0.0,7.0,0.0,1.0,2.0,2.0,890.4940739739686,3.0,1.0,phase_1,,,,,,,,,,,,,white,circle
390.0,8.0,4.0,1.0,4.0,4.0,535.2396329981275,3.0,1.0,phase_1,,,,,,,,,,,,,cyan,hexagon
106.0,6.0,1.0,1.0,1.0,1.0,387.6088869874365,3.0,1.0,phase_1,,,,,,,,,,,,,magenta,triangle
188.0,7.0,2.0,1.0,2.0,2.0,379.1819119942374,3.0,1.0,phase_1,,,,,,,,,,,,,white,circle
197.0,3.0,2.0,0.0,2.0,2.0,383.1989150494337,3.0,1.0,phase_1,,,,,,,,,,,,,gray,diamond
0.0,6.0,0.0,1.0,4.0,4.0,379.8175830161199,3.0,1.0,phase_1,,,,,,,,,,,,,magenta,triangle
0.0,8.0,0.0,1.0,4.0,4.0,478.4048669971525,3.0,1.0,phase_1,,,,,,,,,,,,,cyan,hexagon
407.0,4.0,4.0,0.0,2.0,2.0,329.7563540400006,3.0,1.0,phase_1,,,,,,,,,,,,,blue,I
0.0,8.0,0.0,1.0,1.0,1.0,383.93911102321,3.0,1.0,phase_1,,,,,,,,,,,,,cyan,hexagon
104.0,2.0,1.0,0.0,2.0,2.0,334.74463102174917,3.0,1.0,phase_1,,,,,,,,,,,,,green,flipped triangle
203.0,7.0,2.0,1.0,2.0,2.0,338.3977600024082,3.0,1.0,phase_1,,,,,,,,,,,,,white,circle
44.0,5.0,0.5,1.0,4.0,4.0,359.0657600434497,3.0,1.0,phase_1,,,,,,,,,,,,,orange,square
205.0,3.0,2.0,0.0,4.0,4.0,444.7140879929065,3.0,1.0,phase_1,,,,,,,,,,,,,gray,diamond
101.0,2.0,1.0,0.0,4.0,4.0,520.2187109971419,3.0,1.0,phase_1,,,,,,,,,,,,,green,flipped triangle
63.0,5.0,0.5,1.0,3.0,3.0,420.8917579962872,3.0,1.0,phase_1,,,,,,,,,,,,,orange,square
407.0,4.0,4.0,0.0,3.0,3.0,346.8923369655385,3.0,1.0,phase_1,,,,,,,,,,,,,blue,I
0.0,6.0,0.0,1.0,2.0,2.0,478.184970037546,3.0,1.0,phase_1,,,,,,,,,,,,,magenta,triangle
404.0,8.0,4.0,1.0,1.0,1.0,548.9099139813334,3.0,1.0,phase_1,,,,,,,,,,,,,cyan,hexagon
89.0,6.0,1.0,1.0,4.0,4.0,385.3478060336783,3.0,1.0,phase_1,,,,,,,,,,,,,magenta,triangle
209.0,3.0,2.0,0.0,3.0,3.0,373.689700034447,3.0,1.0,phase_1,,,,,,,,,,,,,gray,diamond
83.0,2.0,1.0,0.0,2.0,2.0,354.4366009882651,3.0,1.0,phase_1,,,,,,,,,,,,,green,flipped triangle
96.0,6.0,1.0,1.0,2.0,2.0,350.8086910005659,3.0,1.0,phase_1,,,,,,,,,,,,,magenta,triangle
211.0,3.0,2.0,0.0,1.0,1.0,353.5177849698812,3.0,1.0,phase_1,,,,,,,,,,,,,gray,diamond
394.0,4.0,4.0,0.0,4.0,4.0,365.2703359839506,3.0,1.0,phase_1,,,,,,,,,,,,,blue,I
68.0,1.0,0.5,0.0,3.0,3.0,337.8941499977372,3.0,1.0,phase_1,,,,,,,,,,,,,yellow,cross
99.0,6.0,1.0,1.0,1.0,1.0,383.1762190093286,3.0,1.0,phase_1,,,,,,,,,,,,,magenta,triangle
379.0,4.0,4.0,0.0,1.0,1.0,411.4562720060348,3.0,1.0,phase_1,,,,,,,,,,,,,blue,I
72.0,5.0,0.5,1.0,1.0,1.0,434.3319599865936,3.0,1.0,phase_1,,,,,,,,,,,,,orange,square
182.0,3.0,2.0,0.0,2.0,2.0,342.2664010431617,3.0,1.0,phase_1,,,,,,,,,,,,,gray,diamond
403.0,4.0,4.0,0.0,1.0,1.0,361.4964049775153,3.0,1.0,phase_1,,,,,,,,,,,,,blue,I
178.0,7.0,2.0,1.0,2.0,2.0,357.9529169946909,3.0,1.0,phase_1,,,,,,,,,,,,,white,circle
194.0,7.0,2.0,1.0,1.0,1.0,331.6676489776,3.0,1.0,phase_1,,,,,,,,,,,,,white,circle
38.0,5.0,0.5,1.0,2.0,2.0,330.9512669802643,3.0,1.0,phase_1,,,,,,,,,,,,,orange,square
96.0,2.0,1.0,0.0,2.0,2.0,376.0473200236447,3.0,1.0,phase_1,,,,,,,,,,,,,green,flipped triangle
395.0,8.0,4.0,1.0,4.0,4.0,450.7744429865852,3.0,1.0,phase_1,,,,,,,,,,,,,cyan,hexagon
220.0,3.0,2.0,0.0,4.0,4.0,401.1706130113452,3.0,1.0,phase_1,,,,,,,,,,,,,gray,diamond
71.0,5.0,0.5,1.0,1.0,1.0,659.4674230436794,3.0,1.0,phase_1,,,,,,,,,,,,,orange,square
0.0,8.0,0.0,1.0,2.0,2.0,416.7376440018415,3.0,1.0,phase_1,,,,,,,,,,,,,cyan,hexagon
32.0,5.0,0.5,1.0,2.0,2.0,339.9551470065489,3.0,1.0,phase_1,,,,,,,,,,,,,orange,square
101.0,2.0,1.0,0.0,3.0,3.0,441.0674469545483,3.0,1.0,phase_1,,,,,,,,,,,,,green,flipped triangle
403.0,4.0,4.0,0.0,1.0,1.0,334.0012800181284,3.0,1.0,phase_1,,,,,,,,,,,,,blue,I
398.0,4.0,4.0,0.0,4.0,4.0,458.0582760390825,3.0,1.0,phase_1,,,,,,,,,,,,,blue,I
208.0,3.0,2.0,0.0,4.0,4.0,358.7378810043446,3.0,1.0,phase_1,,,,,,,,,,,,,gray,diamond
387.0,4.0,4.0,0.0,2.0,2.0,342.1436830540187,3.0,1.0,phase_1,,,,,,,,,,,,,blue,I
0.0,5.0,0.0,1.0,2.0,2.0,299.5365859824233,3.0,1.0,phase_1,,,,,,,,,,,,,orange,square
32.0,1.0,0.5,0.0,4.0,4.0,431.6179379820823,3.0,1.0,phase_1,,,,,,,,,,,,,yellow,cross
400.0,8.0,4.0,1.0,4.0,4.0,523.7092230236158,3.0,1.0,phase_1,,,,,,,,,,,,,cyan,hexagon
0.0,3.0,0.0,0.0,4.0,4.0,386.0068419598974,3.0,1.0,phase_1,,,,,,,,,,,,,gray,diamond
28.0,1.0,0.5,0.0,4.0,4.0,365.2956650475971,3.0,1.0,phase_1,,,,,,,,,,,,,yellow,cross
419.0,4.0,4.0,0.0,2.0,2.0,359.4448590301908,3.0,1.0,phase_1,,,,,,,,,,,,,blue,I
424.0,8.0,4.0,1.0,2.0,2.0,350.2701299730688,3.0,1.0,phase_1,,,,,,,,,,,,,cyan,hexagon
220.0,7.0,2.0,1.0,3.0,3.0,617.2072059707716,3.0,1.0,phase_1,,,,,,,,,,,,,white,circle
113.0,6.0,1.0,1.0,3.0,3.0,447.0485710189678,3.0,1.0,phase_1,,,,,,,,,,,,,magenta,triangle
79.0,6.0,1.0,1.0,3.0,3.0,379.9430780345574,3.0,1.0,phase_1,,,,,,,,,,,,,magenta,triangle
124.0,6.0,1.0,1.0,1.0,1.0,433.615121000912,3.0,1.0,phase_1,,,,,,,,,,,,,magenta,triangle
37.0,1.0,0.5,0.0,1.0,1.0,430.5158609640784,3.0,1.0,phase_1,,,,,,,,,,,,,yellow,cross
0.0,2.0,0.0,0.0,4.0,4.0,408.8268490158953,3.0,1.0,phase_1,,,,,,,,,,,,,green,flipped triangle
34.0,1.0,0.5,0.0,1.0,1.0,380.6448800023645,3.0,1.0,phase_1,,,,,,,,,,,,,yellow,cross
0.0,7.0,0.0,1.0,3.0,3.0,330.7987659936771,3.0,1.0,phase_1,,,,,,,,,,,,,white,circle
70.0,1.0,0.5,0.0,3.0,3.0,417.209698993247,3.0,1.0,phase_1,,,,,,,,,,,,,yellow,cross
424.0,4.0,4.0,0.0,1.0,1.0,371.401602984406,3.0,1.0,phase_1,,,,,,,,,,,,,blue,I
63.0,1.0,0.5,0.0,3.0,3.0,363.6502319714054,3.0,1.0,phase_1,,,,,,,,,,,,,yellow,cross
76.0,6.0,1.0,1.0,2.0,2.0,316.0897089983336,3.0,1.0,phase_1,,,,,,,,,,,,,magenta,triangle
413.0,8.0,4.0,1.0,1.0,1.0,392.76451902696857,3.0,1.0,phase_1,,,,,,,,,,,,,cyan,hexagon
0.0,4.0,0.0,0.0,3.0,3.0,425.2826130250469,3.0,1.0,phase_1,,,,,,,,,,,,,blue,I
0.0,1.0,0.0,0.0,1.0,1.0,538.4883370134048,3.0,1.0,phase_1,,,,,,,,,,,,,yellow,cross
414.0,8.0,4.0,1.0,4.0,4.0,456.9503830280155,3.0,1.0,phase_1,,,,,,,,,,,,,cyan,hexagon
192.0,3.0,2.0,0.0,2.0,2.0,342.3838849994354,3.0,1.0,phase_1,,,,,,,,,,,,,gray,diamond
76.0,2.0,1.0,0.0,3.0,3.0,346.9339659786783,3.0,1.0,phase_1,,,,,,,,,,,,,green,flipped triangle
77.0,2.0,1.0,0.0,4.0,4.0,416.0240570199676,3.0,1.0,phase_1,,,,,,,,,,,,,green,flipped triangle
47.0,5.0,0.5,1.0,3.0,3.0,369.3317819852382,3.0,1.0,phase_1,,,,,,,,,,,,,orange,square
0.0,3.0,0.0,0.0,4.0,4.0,367.0889710192568,3.0,1.0,phase_1,,,,,,,,,,,,,gray,diamond
68.0,5.0,0.5,1.0,4.0,4.0,605.3590560331941,3.0,1.0,phase_1,,,,,,,,,,,,,orange,square
0.0,6.0,0.0,1.0,2.0,2.0,479.3124670395627,3.0,1.0,phase_1,,,,,,,,,,,,,magenta,triangle
398.0,4.0,4.0,0.0,3.0,3.0,350.3280549775809,3.0,1.0,phase_1,,,,,,,,,,,,,blue,I
112.0,6.0,1.0,1.0,4.0,4.0,412.6881799893453,3.0,1.0,phase_1,,,,,,,,,,,,,magenta,triangle
53.0,1.0,0.5,0.0,2.0,2.0,369.1016430384479,3.0,1.0,phase_1,,,,,,,,,,,,,yellow,cross
195.0,3.0,2.0,0.0,1.0,1.0,434.3090180191211,3.0,1.0,phase_1,,,,,,,,,,,,,gray,diamond
26.0,5.0,0.5,1.0,4.0,4.0,479.8108519753441,3.0,1.0,phase_1,,,,,,,,,,,,,orange,square
54.0,1.0,0.5,0.0,1.0,1.0,423.3201690367423,3.0,1.0,phase_1,,,,,,,,,,,,,yellow,cross
122.0,6.0,1.0,1.0,3.0,3.0,420.5712450202554,3.0,1.0,phase_1,,,,,,,,,,,,,magenta,triangle
178.0,3.0,2.0,0.0,2.0,2.0,448.119226959534,3.0,1.0,phase_1,,,,,,,,,,,,,gray,diamond
378.0,8.0,4.0,1.0,3.0,3.0,393.8596789957955,3.0,1.0,phase_1,,,,,,,,,,,,,cyan,hexagon
101.0,6.0,1.0,1.0,1.0,1.0,433.2559269969351,3.0,1.0,phase_1,,,,,,,,,,,,,magenta,triangle
397.0,4.0,4.0,0.0,2.0,2.0,388.2961649796925,3.0,1.0,phase_1,,,,,,,,,,,,,blue,I
0.0,3.0,0.0,0.0,2.0,2.0,479.7902039717883,3.0,1.0,phase_1,,,,,,,,,,,,,gray,diamond
214.0,7.0,2.0,1.0,4.0,4.0,406.5196070005186,3.0,1.0,phase_1,,,,,,,,,,,,,white,circle
0.0,1.0,0.0,0.0,4.0,4.0,492.0678450143896,3.0,1.0,phase_1,,,,,,,,,,,,,yellow,cross
0.0,2.0,0.0,0.0,3.0,3.0,560.6418210081756,3.0,1.0,phase_1,,,,,,,,,,,,,green,flipped triangle
404.0,4.0,4.0,0.0,1.0,1.0,404.8335760016925,3.0,1.0,phase_1,,,,,,,,,,,,,blue,I
407.0,8.0,4.0,1.0,1.0,1.0,599.9736459925771,3.0,1.0,phase_1,,,,,,,,,,,,,cyan,hexagon
94.0,2.0,1.0,0.0,2.0,2.0,406.0460990294814,3.0,1.0,phase_1,,,,,,,,,,,,,green,flipped triangle
184.0,3.0,2.0,0.0,2.0,2.0,559.1073389514349,4.0,1.0,phase_1,,,,,,,,,,,,,gray,diamond
35.0,5.0,0.5,1.0,3.0,3.0,560.138866014313,4.0,2.0,phase_1,,,,,,,,,,,,,orange,square
205.0,7.0,2.0,1.0,1.0,1.0,339.9485059781,4.0,1.0,phase_1,,,,,,,,,,,,,white,circle
52.0,1.0,0.5,0.0,4.0,4.0,407.6599950203672,4.0,1.0,phase_1,,,,,,,,,,,,,yellow,cross
194.0,3.0,2.0,0.0,3.0,3.0,375.0361749553121,4.0,1.0,phase_1,,,,,,,,,,,,,gray,diamond
0.0,4.0,0.0,0.0,2.0,2.0,444.6057959576137,4.0,1.0,phase_1,,,,,,,,,,,,,blue,I
176.0,7.0,2.0,1.0,4.0,4.0,449.74044902483,4.0,1.0,phase_1,,,,,,,,,,,,,white,circle
176.0,3.0,2.0,0.0,2.0,2.0,364.131815964356,4.0,1.0,phase_1,,,,,,,,,,,,,gray,diamond
0.0,2.0,0.0,0.0,4.0,4.0,510.79809898510575,4.0,1.0,phase_1,,,,,,,,,,,,,green,flipped triangle
0.0,3.0,0.0,0.0,1.0,1.0,395.9575970075093,4.0,1.0,phase_1,,,,,,,,,,,,,gray,diamond
176.0,7.0,2.0,1.0,1.0,1.0,602.2983929724433,4.0,1.0,phase_1,,,,,,,,,,,,,white,circle
0.0,1.0,0.0,0.0,4.0,4.0,582.203833037056,4.0,1.0,phase_1,,,,,,,,,,,,,yellow,cross
0.0,5.0,0.0,1.0,2.0,2.0,364.6912130061537,4.0,1.0,phase_1,,,,,,,,,,,,,orange,square
106.0,2.0,1.0,0.0,1.0,1.0,488.5974070057273,4.0,1.0,phase_1,,,,,,,,,,,,,green,flipped triangle
384.0,4.0,4.0,0.0,4.0,4.0,389.8544930270873,4.0,1.0,phase_1,,,,,,,,,,,,,blue,I
419.0,8.0,4.0,1.0,4.0,4.0,635.0366189726628,4.0,1.0,phase_1,,,,,,,,,,,,,cyan,hexagon
68.0,5.0,0.5,1.0,3.0,3.0,389.4232310121879,4.0,1.0,phase_1,,,,,,,,,,,,,orange,square
80.0,6.0,1.0,1.0,4.0,4.0,540.3825260000303,4.0,1.0,phase_1,,,,,,,,,,,,,magenta,triangle
58.0,5.0,0.5,1.0,1.0,1.0,521.5270970365964,4.0,1.0,phase_1,,,,,,,,,,,,,orange,square
68.0,1.0,0.5,0.0,3.0,3.0,317.1897949650883,4.0,1.0,phase_1,,,,,,,,,,,,,yellow,cross
206.0,7.0,2.0,1.0,4.0,4.0,424.0201089996844,4.0,1.0,phase_1,,,,,,,,,,,,,white,circle
80.0,2.0,1.0,0.0,1.0,1.0,382.7541109640151,4.0,1.0,phase_1,,,,,,,,,,,,,green,flipped triangle
104.0,6.0,1.0,1.0,2.0,2.0,360.8725210069679,4.0,1.0,phase_1,,,,,,,,,,,,,magenta,triangle
0.0,1.0,0.0,0.0,2.0,2.0,352.7133649913594,4.0,1.0,phase_1,,,,,,,,,,,,,yellow,cross
107.0,2.0,1.0,0.0,4.0,4.0,378.516110999044,4.0,1.0,phase_1,,,,,,,,,,,,,green,flipped triangle
203.0,3.0,2.0,0.0,3.0,3.0,338.2998030283488,4.0,1.0,phase_1,,,,,,,,,,,,,gray,diamond
54.0,1.0,0.5,0.0,2.0,2.0,342.8559479652904,4.0,1.0,phase_1,,,,,,,,,,,,,yellow,cross
125.0,2.0,1.0,0.0,1.0,1.0,415.9366009989753,4.0,1.0,phase_1,,,,,,,,,,,,,green,flipped triangle
78.0,2.0,1.0,0.0,3.0,3.0,356.7220459808595,4.0,1.0,phase_1,,,,,,,,,,,,,green,flipped triangle
0.0,6.0,0.0,1.0,3.0,3.0,356.9678490166552,4.0,1.0,phase_1,,,,,,,,,,,,,magenta,triangle
0.0,3.0,0.0,0.0,2.0,2.0,600.6891310098581,4.0,1.0,phase_1,,,,,,,,,,,,,gray,diamond
58.0,1.0,0.5,0.0,2.0,2.0,459.5440920093097,4.0,1.0,phase_1,,,,,,,,,,,,,yellow,cross
43.0,5.0,0.5,1.0,4.0,4.0,499.811485002283,4.0,1.0,phase_1,,,,,,,,,,,,,orange,square
0.0,5.0,0.0,1.0,2.0,2.0,420.4897910240106,4.0,1.0,phase_1,,,,,,,,,,,,,orange,square
390.0,4.0,4.0,0.0,2.0,2.0,444.1157049732283,4.0,1.0,phase_1,,,,,,,,,,,,,blue,I
103.0,6.0,1.0,1.0,3.0,3.0,391.8695139582269,4.0,1.0,phase_1,,,,,,,,,,,,,magenta,triangle
200.0,7.0,2.0,1.0,3.0,3.0,812.646760023199,4.0,1.0,phase_1,,,,,,,,,,,,,white,circle
43.0,1.0,0.5,0.0,4.0,4.0,553.9118860033341,4.0,1.0,phase_1,,,,,,,,,,,,,yellow,cross
0.0,2.0,0.0,0.0,1.0,1.0,334.7713510156609,4.0,1.0,phase_1,,,,,,,,,,,,,green,flipped triangle
210.0,7.0,2.0,1.0,1.0,1.0,656.048632983584,4.0,1.0,phase_1,,,,,,,,,,,,,white,circle
0.0,7.0,0.0,1.0,4.0,4.0,517.1044010203332,4.0,1.0,phase_1,,,,,,,,,,,,,white,circle
195.0,7.0,2.0,1.0,3.0,3.0,364.7588219610043,4.0,1.0,phase_1,,,,,,,,,,,,,white,circle
411.0,4.0,4.0,0.0,1.0,1.0,447.281651024241,4.0,1.0,phase_1,,,,,,,,,,,,,blue,I
422.0,4.0,4.0,0.0,2.0,2.0,405.2253640256822,4.0,1.0,phase_1,,,,,,,,,,,,,blue,I
199.0,3.0,2.0,0.0,3.0,3.0,361.9459169567562,4.0,1.0,phase_1,,,,,,,,,,,,,gray,diamond
0.0,4.0,0.0,0.0,4.0,4.0,364.9040790041908,4.0,1.0,phase_1,,,,,,,,,,,,,blue,I
115.0,6.0,1.0,1.0,4.0,4.0,442.660695000086,4.0,1.0,phase_1,,,,,,,,,,,,,magenta,triangle
398.0,8.0,4.0,1.0,3.0,3.0,383.6050240206532,4.0,1.0,phase_1,,,,,,,,,,,,,cyan,hexagon
66.0,5.0,0.5,1.0,3.0,3.0,389.9049019673839,4.0,1.0,phase_1,,,,,,,,,,,,,orange,square
78.0,6.0,1.0,1.0,4.0,4.0,447.3982120398432,4.0,1.0,phase_1,,,,,,,,,,,,,magenta,triangle
183.0,7.0,2.0,1.0,1.0,1.0,414.0317009878345,4.0,1.0,phase_1,,,,,,,,,,,,,white,circle
0.0,2.0,0.0,0.0,4.0,4.0,419.912681041751,4.0,1.0,phase_1,,,,,,,,,,,,,green,flipped triangle
0.0,6.0,0.0,1.0,1.0,1.0,431.2740080058574,4.0,1.0,phase_1,,,,,,,,,,,,,magenta,triangle
0.0,2.0,0.0,0.0,2.0,2.0,468.1186080561019,4.0,1.0,phase_1,,,,,,,,,,,,,green,flipped triangle
406.0,8.0,4.0,1.0,4.0,4.0,334.5928519847803,4.0,1.0,phase_1,,,,,,,,,,,,,cyan,hexagon
64.0,5.0,0.5,1.0,4.0,4.0,439.6105720079504,4.0,1.0,phase_1,,,,,,,,,,,,,orange,square
407.0,8.0,4.0,1.0,3.0,3.0,353.3814359689131,4.0,1.0,phase_1,,,,,,,,,,,,,cyan,hexagon
63.0,5.0,0.5,1.0,1.0,1.0,366.8141840025782,4.0,1.0,phase_1,,,,,,,,,,,,,orange,square
66.0,5.0,0.5,1.0,2.0,2.0,353.2933540409431,4.0,1.0,phase_1,,,,,,,,,,,,,orange,square
123.0,6.0,1.0,1.0,3.0,3.0,338.3783960016444,4.0,1.0,phase_1,,,,,,,,,,,,,magenta,triangle
211.0,7.0,2.0,1.0,4.0,4.0,378.7137710023671,4.0,1.0,phase_1,,,,,,,,,,,,,white,circle
45.0,5.0,0.5,1.0,2.0,2.0,408.1339919939637,4.0,1.0,phase_1,,,,,,,,,,,,,orange,square
74.0,1.0,0.5,0.0,1.0,1.0,374.0306089748628,4.0,1.0,phase_1,,,,,,,,,,,,,yellow,cross
184.0,7.0,2.0,1.0,3.0,3.0,353.4984450088814,4.0,1.0,phase_1,,,,,,,,,,,,,white,circle
53.0,1.0,0.5,0.0,4.0,4.0,409.3883230234496,4.0,1.0,phase_1,,,,,,,,,,,,,yellow,cross
184.0,7.0,2.0,1.0,2.0,2.0,435.3960379958153,4.0,1.0,phase_1,,,,,,,,,,,,,white,circle
63.0,1.0,0.5,0.0,4.0,4.0,447.6752739865333,4.0,1.0,phase_1,,,,,,,,,,,,,yellow,cross
407.0,4.0,4.0,0.0,3.0,3.0,397.6259540067985,4.0,1.0,phase_1,,,,,,,,,,,,,blue,I
101.0,6.0,1.0,1.0,2.0,2.0,371.386379993055,4.0,1.0,phase_1,,,,,,,,,,,,,magenta,triangle
34.0,5.0,0.5,1.0,1.0,1.0,392.3080590320751,4.0,1.0,phase_1,,,,,,,,,,,,,orange,square
376.0,8.0,4.0,1.0,4.0,4.0,412.334238004405,4.0,1.0,phase_1,,,,,,,,,,,,,cyan,hexagon
0.0,4.0,0.0,0.0,2.0,2.0,377.8586219996214,4.0,1.0,phase_1,,,,,,,,,,,,,blue,I
0.0,6.0,0.0,1.0,1.0,1.0,430.1819690153934,4.0,1.0,phase_1,,,,,,,,,,,,,magenta,triangle
28.0,5.0,0.5,1.0,3.0,3.0,353.8803930277936,4.0,1.0,phase_1,,,,,,,,,,,,,orange,square
26.0,1.0,0.5,0.0,3.0,3.0,382.0511490339413,4.0,1.0,phase_1,,,,,,,,,,,,,yellow,cross
0.0,7.0,0.0,1.0,4.0,4.0,394.4879790069535,4.0,1.0,phase_1,,,,,,,,,,,,,white,circle
390.0,4.0,4.0,0.0,4.0,4.0,408.5185080184601,4.0,1.0,phase_1,,,,,,,,,,,,,blue,I
53.0,5.0,0.5,1.0,4.0,4.0,404.8575359629467,4.0,1.0,phase_1,,,,,,,,,,,,,orange,square
198.0,3.0,2.0,0.0,3.0,3.0,359.7729069879278,4.0,1.0,phase_1,,,,,,,,,,,,,gray,diamond
406.0,4.0,4.0,0.0,3.0,3.0,356.3468820066191,4.0,1.0,phase_1,,,,,,,,,,,,,blue,I
116.0,6.0,1.0,1.0,3.0,3.0,337.2868470032699,4.0,1.0,phase_1,,,,,,,,,,,,,magenta,triangle
71.0,1.0,0.5,0.0,2.0,2.0,365.4572329833172,4.0,1.0,phase_1,,,,,,,,,,,,,yellow,cross
28.0,1.0,0.5,0.0,1.0,1.0,346.1914960062131,4.0,1.0,phase_1,,,,,,,,,,,,,yellow,cross
208.0,7.0,2.0,1.0,4.0,4.0,351.4663319801911,4.0,1.0,phase_1,,,,,,,,,,,,,white,circle
209.0,3.0,2.0,0.0,3.0,3.0,374.5013269945048,4.0,1.0,phase_1,,,,,,,,,,,,,gray,diamond
45.0,5.0,0.5,1.0,1.0,1.0,482.1476450306363,4.0,1.0,phase_1,,,,,,,,,,,,,orange,square
211.0,3.0,2.0,0.0,3.0,3.0,390.7791320234537,4.0,1.0,phase_1,,,,,,,,,,,,,gray,diamond
121.0,6.0,1.0,1.0,4.0,4.0,425.4431829904206,4.0,1.0,phase_1,,,,,,,,,,,,,magenta,triangle
196.0,7.0,2.0,1.0,3.0,3.0,569.8446050519124,4.0,1.0,phase_1,,,,,,,,,,,,,white,circle
39.0,1.0,0.5,0.0,1.0,1.0,418.7403179821558,4.0,1.0,phase_1,,,,,,,,,,,,,yellow,cross
184.0,7.0,2.0,1.0,2.0,2.0,386.7626989958808,4.0,1.0,phase_1,,,,,,,,,,,,,white,circle
0.0,1.0,0.0,0.0,4.0,4.0,308.3259139675647,4.0,1.0,phase_1,,,,,,,,,,,,,yellow,cross
0.0,8.0,0.0,1.0,4.0,4.0,473.4116659965366,4.0,1.0,phase_1,,,,,,,,,,,,,cyan,hexagon
401.0,4.0,4.0,0.0,2.0,2.0,448.0764910113066,4.0,1.0,phase_1,,,,,,,,,,,,,blue,I
85.0,6.0,1.0,1.0,4.0,4.0,468.8279280089773,4.0,1.0,phase_1,,,,,,,,,,,,,magenta,triangle
211.0,7.0,2.0,1.0,1.0,1.0,359.1787659679539,4.0,1.0,phase_1,,,,,,,,,,,,,white,circle
0.0,8.0,0.0,1.0,3.0,3.0,366.1766450386494,4.0,1.0,phase_1,,,,,,,,,,,,,cyan,hexagon
0.0,8.0,0.0,1.0,1.0,1.0,344.4544929661788,4.0,1.0,phase_1,,,,,,,,,,,,,cyan,hexagon
112.0,2.0,1.0,0.0,1.0,1.0,471.555698022712,4.0,1.0,phase_1,,,,,,,,,,,,,green,flipped triangle
394.0,8.0,4.0,1.0,2.0,2.0,356.6954060224816,4.0,1.0,phase_1,,,,,,,,,,,,,cyan,hexagon
0.0,2.0,1.0,0.0,5.0,5.0,409.4775150297209,1.0,1.0,phase_2,go,250.0,250.0,1.0,,,,,,,,,green,flipped triangle
0.0,6.0,1.0,1.0,6.0,0.0,0.0,1.0,1.0,phase_2,stop,250.0,250.0,4.0,,,,,,,,,magenta,triangle
0.0,1.0,0.5,0.0,5.0,5.0,846.5943499468267,1.0,1.0,phase_2,go,250.0,300.0,1.0,,,,,,,,,yellow,cross
0.0,2.0,1.0,0.0,5.0,5.0,661.4636690355837,1.0,1.0,phase_2,go,250.0,300.0,1.0,,,,,,,,,green,flipped triangle
0.0,3.0,2.0,0.0,5.0,5.0,501.87411200022325,1.0,1.0,phase_2,go,250.0,300.0,1.0,,,,,,,,,gray,diamond
0.0,5.0,0.5,1.0,6.0,0.0,0.0,1.0,1.0,phase_2,stop,250.0,300.0,4.0,,,,,,,,,orange,square
0.0,5.0,0.5,1.0,5.0,5.0,421.9324400182813,1.0,1.0,phase_2,go,250.0,350.0,1.0,,,,,,,,,orange,square
0.0,5.0,0.5,1.0,5.0,5.0,365.9531400189735,1.0,1.0,phase_2,stop,250.0,350.0,3.0,,,,,,,,,orange,square
0.0,6.0,1.0,1.0,6.0,0.0,0.0,1.0,1.0,phase_2,stop,200.0,350.0,4.0,,,,,,,,,magenta,triangle
0.0,1.0,0.5,0.0,5.0,5.0,508.7382039637305,1.0,1.0,phase_2,go,200.0,400.0,1.0,,,,,,,,,yellow,cross
0.0,5.0,0.5,1.0,6.0,6.0,460.0142600247636,1.0,1.0,phase_2,go,200.0,400.0,1.0,,,,,,,,,orange,square
0.0,6.0,1.0,1.0,5.0,5.0,368.7716039712541,1.0,1.0,phase_2,stop,200.0,400.0,3.0,,,,,,,,,magenta,triangle
0.0,7.0,2.0,1.0,5.0,0.0,0.0,1.0,1.0,phase_2,stop,150.0,400.0,4.0,,,,,,,,,white,circle
0.0,1.0,0.5,0.0,5.0,5.0,512.0078679756261,1.0,1.0,phase_2,go,200.0,400.0,1.0,,,,,,,,,yellow,cross
0.0,1.0,0.5,0.0,6.0,6.0,767.4954270478338,1.0,1.0,phase_2,go,200.0,400.0,1.0,,,,,,,,,yellow,cross
0.0,3.0,2.0,0.0,5.0,5.0,785.0067380350083,1.0,1.0,phase_2,go,200.0,400.0,1.0,,,,,,,,,gray,diamond
0.0,1.0,0.5,0.0,6.0,6.0,968.3677739812993,1.0,1.0,phase_2,go,200.0,400.0,1.0,,,,,,,,,yellow,cross
0.0,6.0,1.0,1.0,5.0,5.0,780.9641810017638,1.0,1.0,phase_2,go,200.0,400.0,1.0,,,,,,,,,magenta,triangle
0.0,7.0,2.0,1.0,5.0,5.0,806.7941830377094,1.0,1.0,phase_2,go,200.0,400.0,1.0,,,,,,,,,white,circle
0.0,7.0,2.0,1.0,5.0,0.0,0.0,1.0,1.0,phase_2,stop,200.0,400.0,4.0,,,,,,,,,white,circle
0.0,4.0,4.0,0.0,5.0,5.0,599.1463449900039,1.0,1.0,phase_2,go,250.0,400.0,1.0,,,,,,,,,blue,I
0.0,2.0,1.0,0.0,6.0,6.0,669.5964770042337,1.0,1.0,phase_2,go,250.0,400.0,1.0,,,,,,,,,green,flipped triangle
0.0,4.0,4.0,0.0,6.0,6.0,828.8988950080238,1.0,1.0,phase_2,go,250.0,400.0,1.0,,,,,,,,,blue,I
0.0,5.0,0.5,1.0,5.0,0.0,0.0,1.0,1.0,phase_2,stop,250.0,400.0,4.0,,,,,,,,,orange,square
0.0,7.0,2.0,1.0,5.0,0.0,0.0,1.0,1.0,phase_2,stop,300.0,400.0,4.0,,,,,,,,,white,circle
0.0,6.0,1.0,1.0,6.0,6.0,633.42772499891,1.0,1.0,phase_2,go,350.0,400.0,1.0,,,,,,,,,magenta,triangle
0.0,5.0,0.5,1.0,6.0,0.0,0.0,1.0,1.0,phase_2,stop,350.0,400.0,4.0,,,,,,,,,orange,square
0.0,4.0,4.0,0.0,6.0,6.0,563.2763399626128,1.0,1.0,phase_2,go,350.0,450.0,1.0,,,,,,,,,blue,I
0.0,5.0,0.5,1.0,6.0,0.0,0.0,1.0,1.0,phase_2,stop,350.0,450.0,4.0,,,,,,,,,orange,square
0.0,5.0,0.5,1.0,5.0,0.0,0.0,1.0,1.0,phase_2,stop,350.0,500.0,4.0,,,,,,,,,orange,square
0.0,3.0,2.0,0.0,6.0,6.0,721.7978179687634,1.0,1.0,phase_2,go,400.0,500.0,1.0,,,,,,,,,gray,diamond
0.0,7.0,2.0,1.0,5.0,5.0,727.3974369745702,1.0,1.0,phase_2,go,400.0,500.0,1.0,,,,,,,,,white,circle
0.0,8.0,4.0,1.0,6.0,0.0,0.0,1.0,1.0,phase_2,stop,400.0,500.0,4.0,,,,,,,,,cyan,hexagon
0.0,4.0,4.0,0.0,6.0,6.0,884.1224869829603,1.0,1.0,phase_2,go,400.0,550.0,1.0,,,,,,,,,blue,I
0.0,8.0,4.0,1.0,6.0,0.0,0.0,1.0,1.0,phase_2,stop,400.0,550.0,4.0,,,,,,,,,cyan,hexagon
0.0,4.0,4.0,0.0,6.0,6.0,740.136137988884,1.0,1.0,phase_2,go,400.0,600.0,1.0,,,,,,,,,blue,I
0.0,8.0,4.0,1.0,5.0,0.0,0.0,2.0,1.0,phase_2,stop,400.0,600.0,4.0,,,,,,,,,cyan,hexagon
0.0,3.0,2.0,0.0,5.0,5.0,1058.0497839837335,2.0,1.0,phase_2,go,450.0,600.0,1.0,,,,,,,,,gray,diamond
0.0,2.0,1.0,0.0,6.0,6.0,570.1244060182944,2.0,1.0,phase_2,go,450.0,600.0,1.0,,,,,,,,,green,flipped triangle
0.0,2.0,1.0,0.0,6.0,6.0,506.2887759995647,2.0,1.0,phase_2,go,450.0,600.0,1.0,,,,,,,,,green,flipped triangle
0.0,1.0,0.5,0.0,5.0,5.0,391.0554710309952,2.0,1.0,phase_2,go,450.0,600.0,1.0,,,,,,,,,yellow,cross
0.0,1.0,0.5,0.0,6.0,6.0,441.0508669679984,2.0,1.0,phase_2,go,450.0,600.0,1.0,,,,,,,,,yellow,cross
0.0,4.0,4.0,0.0,6.0,6.0,388.468938996084,2.0,1.0,phase_2,go,450.0,600.0,1.0,,,,,,,,,blue,I
0.0,1.0,0.5,0.0,5.0,5.0,532.7843469567597,2.0,1.0,phase_2,go,450.0,600.0,1.0,,,,,,,,,yellow,cross
0.0,3.0,2.0,0.0,6.0,6.0,870.0639140442945,2.0,1.0,phase_2,go,450.0,600.0,1.0,,,,,,,,,gray,diamond
0.0,3.0,2.0,0.0,6.0,6.0,542.014230042696,2.0,1.0,phase_2,go,450.0,600.0,1.0,,,,,,,,,gray,diamond
0.0,8.0,4.0,1.0,5.0,5.0,467.9346210323274,2.0,1.0,phase_2,stop,450.0,600.0,3.0,,,,,,,,,cyan,hexagon
0.0,4.0,4.0,0.0,5.0,5.0,666.3056460092776,2.0,1.0,phase_2,go,400.0,600.0,1.0,,,,,,,,,blue,I
0.0,5.0,0.5,1.0,5.0,0.0,0.0,2.0,1.0,phase_2,stop,400.0,600.0,4.0,,,,,,,,,orange,square
0.0,3.0,2.0,0.0,6.0,6.0,483.0833559972234,2.0,1.0,phase_2,go,450.0,600.0,1.0,,,,,,,,,gray,diamond
0.0,2.0,1.0,0.0,6.0,6.0,610.4178199893795,2.0,1.0,phase_2,go,450.0,600.0,1.0,,,,,,,,,green,flipped triangle
0.0,6.0,1.0,1.0,5.0,0.0,0.0,2.0,1.0,phase_2,stop,450.0,600.0,4.0,,,,,,,,,magenta,triangle
0.0,4.0,4.0,0.0,5.0,5.0,647.895690985024,2.0,1.0,phase_2,go,500.0,600.0,1.0,,,,,,,,,blue,I
0.0,1.0,0.5,0.0,5.0,5.0,474.2113490356132,2.0,1.0,phase_2,go,500.0,600.0,1.0,,,,,,,,,yellow,cross
0.0,4.0,4.0,0.0,5.0,5.0,881.5169730223715,2.0,1.0,phase_2,go,500.0,600.0,1.0,,,,,,,,,blue,I
0.0,2.0,1.0,0.0,5.0,5.0,456.6918580094352,2.0,1.0,phase_2,go,500.0,600.0,1.0,,,,,,,,,green,flipped triangle
0.0,1.0,0.5,0.0,5.0,5.0,678.8892119657248,2.0,1.0,phase_2,go,500.0,600.0,1.0,,,,,,,,,yellow,cross
0.0,6.0,1.0,1.0,6.0,6.0,382.3338079964742,2.0,1.0,phase_2,go,500.0,600.0,1.0,,,,,,,,,magenta,triangle
0.0,8.0,4.0,1.0,5.0,5.0,348.4444299829192,2.0,1.0,phase_2,go,500.0,600.0,1.0,,,,,,,,,cyan,hexagon
0.0,8.0,4.0,1.0,5.0,5.0,493.267233017832,2.0,1.0,phase_2,stop,500.0,600.0,3.0,,,,,,,,,cyan,hexagon
0.0,3.0,2.0,0.0,5.0,5.0,630.539118021261,2.0,1.0,phase_2,go,450.0,600.0,1.0,,,,,,,,,gray,diamond
0.0,6.0,1.0,1.0,5.0,5.0,290.7044500461779,2.0,1.0,phase_2,stop,450.0,600.0,3.0,,,,,,,,,magenta,triangle
0.0,4.0,4.0,0.0,6.0,6.0,557.4277910054661,2.0,1.0,phase_2,go,400.0,600.0,1.0,,,,,,,,,blue,I
0.0,7.0,2.0,1.0,6.0,6.0,460.522036999464,2.0,1.0,phase_2,stop,400.0,600.0,3.0,,,,,,,,,white,circle
0.0,2.0,1.0,0.0,6.0,6.0,745.6101750140078,2.0,1.0,phase_2,go,400.0,550.0,1.0,,,,,,,,,green,flipped triangle
0.0,7.0,2.0,1.0,6.0,0.0,0.0,2.0,1.0,phase_2,stop,400.0,550.0,4.0,,,,,,,,,white,circle
0.0,5.0,0.5,1.0,6.0,6.0,622.4156199605204,2.0,1.0,phase_2,stop,400.0,600.0,3.0,,,,,,,,,orange,square
0.0,6.0,1.0,1.0,6.0,6.0,695.3895389451645,2.0,1.0,phase_2,stop,400.0,550.0,3.0,,,,,,,,,magenta,triangle
0.0,4.0,4.0,0.0,6.0,6.0,1122.4757140153088,2.0,1.0,phase_2,go,400.0,500.0,1.0,,,,,,,,,blue,I
0.0,7.0,2.0,1.0,6.0,6.0,566.5295349899679,2.0,1.0,phase_2,stop,400.0,500.0,3.0,,,,,,,,,white,circle
0.0,2.0,1.0,0.0,5.0,5.0,703.7824090220965,2.0,1.0,phase_2,go,400.0,450.0,1.0,,,,,,,,,green,flipped triangle
0.0,7.0,2.0,1.0,6.0,0.0,0.0,2.0,1.0,phase_2,stop,400.0,450.0,4.0,,,,,,,,,white,circle
0.0,3.0,2.0,0.0,6.0,6.0,782.8235590131953,3.0,1.0,phase_2,go,400.0,500.0,1.0,,,,,,,,,gray,diamond
0.0,4.0,4.0,0.0,6.0,6.0,854.7188930097036,3.0,1.0,phase_2,go,400.0,500.0,1.0,,,,,,,,,blue,I
0.0,6.0,1.0,1.0,6.0,0.0,0.0,3.0,1.0,phase_2,stop,400.0,500.0,4.0,,,,,,,,,magenta,triangle
0.0,8.0,4.0,1.0,6.0,6.0,632.1224049897864,3.0,1.0,phase_2,go,400.0,550.0,1.0,,,,,,,,,cyan,hexagon
0.0,4.0,4.0,0.0,5.0,5.0,734.1380210127681,3.0,1.0,phase_2,go,400.0,550.0,1.0,,,,,,,,,blue,I
0.0,7.0,2.0,1.0,5.0,0.0,0.0,3.0,1.0,phase_2,stop,400.0,550.0,4.0,,,,,,,,,white,circle
0.0,3.0,2.0,0.0,6.0,6.0,765.3937700088136,3.0,1.0,phase_2,go,450.0,550.0,1.0,,,,,,,,,gray,diamond
0.0,1.0,0.5,0.0,6.0,6.0,889.9203520268202,3.0,1.0,phase_2,go,450.0,550.0,1.0,,,,,,,,,yellow,cross
0.0,4.0,4.0,0.0,6.0,6.0,865.6521560042165,3.0,1.0,phase_2,go,450.0,550.0,1.0,,,,,,,,,blue,I
0.0,6.0,1.0,1.0,5.0,0.0,0.0,3.0,1.0,phase_2,stop,450.0,550.0,4.0,,,,,,,,,magenta,triangle
0.0,7.0,2.0,1.0,5.0,0.0,0.0,3.0,1.0,phase_2,stop,500.0,550.0,4.0,,,,,,,,,white,circle
0.0,6.0,1.0,1.0,6.0,0.0,0.0,3.0,1.0,phase_2,stop,550.0,550.0,4.0,,,,,,,,,magenta,triangle
0.0,3.0,2.0,0.0,6.0,6.0,834.6532260184176,3.0,1.0,phase_2,go,550.0,600.0,1.0,,,,,,,,,gray,diamond
0.0,3.0,2.0,0.0,5.0,5.0,919.771728978958,3.0,1.0,phase_2,go,550.0,600.0,1.0,,,,,,,,,gray,diamond
0.0,2.0,1.0,0.0,5.0,5.0,784.5077550155111,3.0,1.0,phase_2,go,550.0,600.0,1.0,,,,,,,,,green,flipped triangle
0.0,2.0,1.0,0.0,6.0,6.0,657.6662570005283,3.0,1.0,phase_2,go,550.0,600.0,1.0,,,,,,,,,green,flipped triangle
0.0,5.0,0.5,1.0,6.0,0.0,0.0,3.0,1.0,phase_2,stop,550.0,600.0,4.0,,,,,,,,,orange,square
0.0,3.0,2.0,0.0,5.0,5.0,990.8609479898588,3.0,1.0,phase_2,go,550.0,650.0,1.0,,,,,,,,,gray,diamond
0.0,5.0,0.5,1.0,5.0,0.0,0.0,3.0,1.0,phase_2,stop,550.0,650.0,4.0,,,,,,,,,orange,square
0.0,2.0,1.0,0.0,5.0,5.0,1387.894421000965,3.0,1.0,phase_2,go,600.0,650.0,1.0,,,,,,,,,green,flipped triangle
0.0,7.0,2.0,1.0,5.0,0.0,0.0,3.0,1.0,phase_2,stop,600.0,650.0,4.0,,,,,,,,,white,circle
0.0,6.0,1.0,1.0,6.0,0.0,0.0,3.0,1.0,phase_2,stop,650.0,650.0,4.0,,,,,,,,,magenta,triangle
0.0,6.0,1.0,1.0,6.0,6.0,907.2591289877892,3.0,1.0,phase_2,go,650.0,700.0,1.0,,,,,,,,,magenta,triangle
0.0,6.0,1.0,1.0,5.0,0.0,0.0,3.0,1.0,phase_2,stop,650.0,700.0,4.0,,,,,,,,,magenta,triangle
0.0,5.0,0.5,1.0,6.0,6.0,1050.8075559628196,3.0,1.0,phase_2,go,700.0,700.0,1.0,,,,,,,,,orange,square
0.0,7.0,2.0,1.0,6.0,0.0,0.0,3.0,1.0,phase_2,stop,700.0,700.0,4.0,,,,,,,,,white,circle
0.0,6.0,1.0,1.0,6.0,6.0,699.5250280015171,3.0,1.0,phase_2,stop,700.0,750.0,3.0,,,,,,,,,magenta,triangle
0.0,6.0,1.0,1.0,5.0,0.0,0.0,3.0,1.0,phase_2,stop,700.0,700.0,4.0,,,,,,,,,magenta,triangle
0.0,4.0,4.0,0.0,6.0,6.0,1042.6167959813029,3.0,1.0,phase_2,go,750.0,700.0,1.0,,,,,,,,,blue,I
0.0,1.0,0.5,0.0,6.0,6.0,832.9863660037518,3.0,1.0,phase_2,go,750.0,700.0,1.0,,,,,,,,,yellow,cross
0.0,7.0,2.0,1.0,6.0,6.0,937.3239970300348,3.0,1.0,phase_2,go,750.0,700.0,1.0,,,,,,,,,white,circle
0.0,4.0,4.0,0.0,5.0,5.0,788.9360950211994,3.0,1.0,phase_2,go,750.0,700.0,1.0,,,,,,,,,blue,I
0.0,7.0,2.0,1.0,5.0,5.0,1176.4201810001396,3.0,1.0,phase_2,go,750.0,700.0,1.0,,,,,,,,,white,circle
0.0,8.0,4.0,1.0,6.0,0.0,0.0,3.0,1.0,phase_2,stop,750.0,700.0,4.0,,,,,,,,,cyan,hexagon
0.0,8.0,4.0,1.0,6.0,6.0,732.4773499858566,3.0,1.0,phase_2,stop,750.0,750.0,3.0,,,,,,,,,cyan,hexagon
0.0,8.0,4.0,1.0,5.0,5.0,1139.4202309893444,3.0,1.0,phase_2,go,750.0,700.0,1.0,,,,,,,,,cyan,hexagon
0.0,6.0,1.0,1.0,6.0,6.0,448.0997000355273,4.0,1.0,phase_2,stop,750.0,700.0,3.0,,,,,,,,,magenta,triangle
0.0,1.0,0.5,0.0,5.0,5.0,476.7150770057924,4.0,1.0,phase_2,go,750.0,650.0,1.0,,,,,,,,,yellow,cross
0.0,7.0,2.0,1.0,6.0,0.0,0.0,4.0,1.0,phase_2,stop,750.0,650.0,4.0,,,,,,,,,white,circle
0.0,4.0,4.0,0.0,5.0,5.0,797.4274640437216,4.0,1.0,phase_2,go,750.0,700.0,1.0,,,,,,,,,blue,I
0.0,7.0,2.0,1.0,5.0,5.0,906.6008600057104,4.0,1.0,phase_2,go,750.0,700.0,1.0,,,,,,,,,white,circle
0.0,8.0,4.0,1.0,6.0,6.0,788.6894090333953,4.0,1.0,phase_2,stop,750.0,700.0,3.0,,,,,,,,,cyan,hexagon
0.0,4.0,4.0,0.0,5.0,5.0,1129.6853550011292,4.0,1.0,phase_2,go,750.0,650.0,1.0,,,,,,,,,blue,I
0.0,5.0,0.5,1.0,5.0,0.0,0.0,4.0,1.0,phase_2,stop,750.0,650.0,4.0,,,,,,,,,orange,square
0.0,8.0,4.0,1.0,6.0,6.0,1176.640946010593,4.0,1.0,phase_2,go,800.0,650.0,1.0,,,,,,,,,cyan,hexagon
0.0,3.0,2.0,0.0,5.0,5.0,971.5717100189069,4.0,1.0,phase_2,go,800.0,650.0,1.0,,,,,,,,,gray,diamond
0.0,2.0,1.0,0.0,6.0,6.0,634.9482600344345,4.0,1.0,phase_2,go,800.0,650.0,1.0,,,,,,,,,green,flipped triangle
0.0,6.0,1.0,1.0,5.0,0.0,0.0,4.0,1.0,phase_2,stop,800.0,650.0,4.0,,,,,,,,,magenta,triangle
0.0,8.0,4.0,1.0,5.0,5.0,657.4703990481794,4.0,1.0,phase_2,stop,850.0,650.0,3.0,,,,,,,,,cyan,hexagon
0.0,5.0,0.5,1.0,6.0,0.0,0.0,4.0,1.0,phase_2,stop,800.0,650.0,4.0,,,,,,,,,orange,square
0.0,2.0,1.0,0.0,5.0,5.0,997.4226919584908,4.0,1.0,phase_2,go,800.0,700.0,1.0,,,,,,,,,green,flipped triangle
0.0,5.0,0.5,1.0,5.0,5.0,526.241977000609,4.0,1.0,phase_2,stop,800.0,700.0,3.0,,,,,,,,,orange,square
0.0,4.0,4.0,0.0,5.0,5.0,1069.7635830147192,4.0,1.0,phase_2,go,750.0,700.0,1.0,,,,,,,,,blue,I
0.0,4.0,4.0,0.0,5.0,5.0,1189.3853269866668,4.0,1.0,phase_2,go,750.0,700.0,1.0,,,,,,,,,blue,I
0.0,2.0,1.0,0.0,6.0,6.0,1037.175762001425,4.0,1.0,phase_2,go,750.0,700.0,1.0,,,,,,,,,green,flipped triangle
0.0,7.0,2.0,1.0,6.0,6.0,773.280695953872,4.0,1.0,phase_2,stop,750.0,700.0,3.0,,,,,,,,,white,circle
0.0,7.0,2.0,1.0,6.0,0.0,0.0,4.0,1.0,phase_2,stop,750.0,650.0,4.0,,,,,,,,,white,circle
0.0,2.0,1.0,0.0,5.0,5.0,1092.6875559962357,4.0,1.0,phase_2,go,750.0,700.0,1.0,,,,,,,,,green,flipped triangle
0.0,7.0,2.0,1.0,6.0,0.0,0.0,4.0,1.0,phase_2,stop,750.0,700.0,4.0,,,,,,,,,white,circle
0.0,1.0,0.5,0.0,5.0,5.0,1048.7854339880869,4.0,1.0,phase_2,go,750.0,750.0,1.0,,,,,,,,,yellow,cross
0.0,8.0,4.0,1.0,6.0,0.0,0.0,4.0,1.0,phase_2,stop,750.0,750.0,4.0,,,,,,,,,cyan,hexagon
0.0,1.0,0.5,0.0,6.0,6.0,984.9493239889852,4.0,1.0,phase_2,go,750.0,800.0,1.0,,,,,,,,,yellow,cross
0.0,4.0,4.0,0.0,5.0,5.0,1041.4767829934135,4.0,1.0,phase_2,go,750.0,800.0,1.0,,,,,,,,,blue,I
0.0,5.0,0.5,1.0,6.0,0.0,0.0,4.0,1.0,phase_2,stop,750.0,800.0,4.0,,,,,,,,,orange,square
0.0,6.0,1.0,1.0,5.0,5.0,951.8457780359312,4.0,1.0,phase_2,go,750.0,850.0,1.0,,,,,,,,,magenta,triangle
0.0,1.0,0.5,0.0,5.0,5.0,925.1947469892912,4.0,1.0,phase_2,go,750.0,850.0,1.0,,,,,,,,,yellow,cross
0.0,3.0,2.0,0.0,5.0,5.0,872.1965220174752,4.0,1.0,phase_2,go,750.0,850.0,1.0,,,,,,,,,gray,diamond
0.0,6.0,1.0,1.0,6.0,0.0,0.0,4.0,1.0,phase_2,stop,750.0,850.0,4.0,,,,,,,,,magenta,triangle
0.0,3.0,2.0,0.0,5.0,5.0,499.9878469971008,4.0,1.0,phase_2,go,750.0,900.0,1.0,,,,,,,,,gray,diamond
0.0,4.0,4.0,0.0,6.0,6.0,595.3535150038078,4.0,1.0,phase_2,go,750.0,900.0,1.0,,,,,,,,,blue,I
0.0,3.0,2.0,0.0,5.0,5.0,908.6372799938543,4.0,1.0,phase_2,go,750.0,900.0,1.0,,,,,,,,,gray,diamond
0.0,2.0,1.0,0.0,6.0,6.0,1105.805863044225,4.0,1.0,phase_2,go,750.0,900.0,1.0,,,,,,,,,green,flipped triangle
0.0,7.0,2.0,1.0,6.0,6.0,594.7209849837236,5.0,1.0,phase_2,stop,750.0,900.0,3.0,,,,,,,,,white,circle
0.0,4.0,4.0,0.0,5.0,5.0,1161.8523210054263,5.0,1.0,phase_2,go,750.0,850.0,1.0,,,,,,,,,blue,I
0.0,8.0,4.0,1.0,6.0,6.0,637.9703530110419,5.0,1.0,phase_2,stop,750.0,850.0,3.0,,,,,,,,,cyan,hexagon
0.0,5.0,0.5,1.0,5.0,5.0,912.1772039798088,5.0,1.0,phase_2,go,750.0,800.0,1.0,,,,,,,,,orange,square
0.0,4.0,4.0,0.0,6.0,6.0,981.905059015844,5.0,1.0,phase_2,go,750.0,800.0,1.0,,,,,,,,,blue,I
0.0,5.0,0.5,1.0,6.0,6.0,624.542080971878,5.0,1.0,phase_2,stop,750.0,800.0,3.0,,,,,,,,,orange,square
0.0,6.0,1.0,1.0,6.0,6.0,643.9796659979038,5.0,1.0,phase_2,stop,750.0,750.0,3.0,,,,,,,,,magenta,triangle
0.0,8.0,4.0,1.0,6.0,0.0,0.0,5.0,1.0,phase_2,stop,750.0,700.0,4.0,,,,,,,,,cyan,hexagon
0.0,1.0,0.5,0.0,5.0,5.0,549.0525609930046,5.0,1.0,phase_2,go,750.0,750.0,1.0,,,,,,,,,yellow,cross
0.0,2.0,1.0,0.0,6.0,6.0,506.922681001015,5.0,1.0,phase_2,go,750.0,750.0,1.0,,,,,,,,,green,flipped triangle
0.0,3.0,2.0,0.0,6.0,6.0,370.5898190382868,5.0,1.0,phase_2,go,750.0,750.0,1.0,,,,,,,,,gray,diamond
0.0,2.0,1.0,0.0,5.0,5.0,756.6517230006866,5.0,1.0,phase_2,go,750.0,750.0,1.0,,,,,,,,,green,flipped triangle
0.0,8.0,4.0,1.0,5.0,5.0,737.0771080022678,5.0,1.0,phase_2,stop,750.0,750.0,3.0,,,,,,,,,cyan,hexagon
0.0,3.0,2.0,0.0,5.0,5.0,555.7287689880468,5.0,1.0,phase_2,go,700.0,750.0,1.0,,,,,,,,,gray,diamond
0.0,8.0,4.0,1.0,5.0,0.0,0.0,5.0,1.0,phase_2,stop,700.0,750.0,4.0,,,,,,,,,cyan,hexagon
0.0,1.0,0.5,0.0,6.0,6.0,345.2453530044295,5.0,1.0,phase_2,go,750.0,750.0,1.0,,,,,,,,,yellow,cross
0.0,7.0,2.0,1.0,5.0,0.0,0.0,5.0,1.0,phase_2,stop,750.0,750.0,4.0,,,,,,,,,white,circle
0.0,6.0,1.0,1.0,6.0,0.0,0.0,5.0,1.0,phase_2,stop,800.0,750.0,4.0,,,,,,,,,magenta,triangle
0.0,5.0,0.5,1.0,5.0,0.0,0.0,5.0,1.0,phase_2,stop,800.0,800.0,4.0,,,,,,,,,orange,square
0.0,5.0,0.5,1.0,6.0,6.0,1181.3162269536406,5.0,1.0,phase_2,go,850.0,800.0,1.0,,,,,,,,,orange,square
0.0,8.0,4.0,1.0,5.0,0.0,0.0,5.0,1.0,phase_2,stop,850.0,800.0,4.0,,,,,,,,,cyan,hexagon
0.0,4.0,4.0,0.0,6.0,6.0,863.4178179781884,5.0,1.0,phase_2,go,900.0,800.0,1.0,,,,,,,,,blue,I
0.0,8.0,4.0,1.0,5.0,0.0,0.0,5.0,1.0,phase_2,stop,900.0,800.0,4.0,,,,,,,,,cyan,hexagon
0.0,5.0,0.5,1.0,5.0,0.0,0.0,5.0,1.0,phase_2,stop,950.0,800.0,4.0,,,,,,,,,orange,square
0.0,7.0,2.0,1.0,6.0,6.0,796.3957840111107,5.0,1.0,phase_2,go,1000.0,800.0,1.0,,,,,,,,,white,circle
0.0,1.0,0.5,0.0,6.0,6.0,1173.7058910075575,5.0,1.0,phase_2,go,1000.0,800.0,1.0,,,,,,,,,yellow,cross
0.0,1.0,0.5,0.0,6.0,6.0,1004.4479499920271,5.0,1.0,phase_2,go,1000.0,800.0,1.0,,,,,,,,,yellow,cross
0.0,8.0,4.0,1.0,5.0,0.0,0.0,5.0,1.0,phase_2,stop,1000.0,800.0,4.0,,,,,,,,,cyan,hexagon
0.0,4.0,4.0,0.0,5.0,5.0,745.7139890175313,5.0,1.0,phase_2,go,1050.0,800.0,1.0,,,,,,,,,blue,I
0.0,6.0,1.0,1.0,6.0,0.0,0.0,5.0,1.0,phase_2,stop,1050.0,800.0,4.0,,,,,,,,,magenta,triangle
0.0,3.0,2.0,0.0,6.0,6.0,1129.1617240058258,5.0,1.0,phase_2,go,1050.0,850.0,1.0,,,,,,,,,gray,diamond
0.0,1.0,0.5,0.0,5.0,5.0,1152.4604840087704,5.0,1.0,phase_2,go,1050.0,850.0,1.0,,,,,,,,,yellow,cross
0.0,1.0,0.5,0.0,5.0,5.0,701.4495530165732,5.0,1.0,phase_2,go,1050.0,850.0,1.0,,,,,,,,,yellow,cross
0.0,2.0,1.0,0.0,5.0,5.0,1015.9181359922511,5.0,1.0,phase_2,go,1050.0,850.0,1.0,,,,,,,,,green,flipped triangle
0.0,1.0,0.5,0.0,5.0,5.0,836.6221429896541,5.0,1.0,phase_2,go,1050.0,850.0,1.0,,,,,,,,,yellow,cross
0.0,6.0,1.0,1.0,6.0,0.0,0.0,5.0,1.0,phase_2,stop,1050.0,850.0,4.0,,,,,,,,,magenta,triangle
0.0,3.0,2.0,0.0,5.0,5.0,817.3249359824695,6.0,1.0,phase_2,go,1050.0,900.0,1.0,,,,,,,,,gray,diamond
0.0,7.0,2.0,1.0,6.0,0.0,0.0,6.0,1.0,phase_2,stop,1050.0,900.0,4.0,,,,,,,,,white,circle
0.0,3.0,2.0,0.0,5.0,5.0,853.7845790269785,6.0,1.0,phase_2,go,1050.0,950.0,1.0,,,,,,,,,gray,diamond
0.0,5.0,0.5,1.0,5.0,5.0,581.6329740337096,6.0,1.0,phase_2,stop,1050.0,950.0,3.0,,,,,,,,,orange,square
0.0,6.0,1.0,1.0,6.0,0.0,0.0,6.0,1.0,phase_2,stop,1000.0,950.0,4.0,,,,,,,,,magenta,triangle
0.0,3.0,2.0,0.0,6.0,6.0,918.4238680172712,6.0,1.0,phase_2,go,1000.0,1000.0,1.0,,,,,,,,,gray,diamond
0.0,1.0,0.5,0.0,6.0,6.0,821.8333830009215,6.0,1.0,phase_2,go,1000.0,1000.0,1.0,,,,,,,,,yellow,cross
0.0,1.0,0.5,0.0,6.0,6.0,453.5091939615085,6.0,1.0,phase_2,go,1000.0,1000.0,1.0,,,,,,,,,yellow,cross
0.0,6.0,1.0,1.0,5.0,5.0,1291.4848529617302,6.0,1.0,phase_2,go,1000.0,1000.0,1.0,,,,,,,,,magenta,triangle
0.0,7.0,2.0,1.0,5.0,5.0,828.1877600238658,6.0,1.0,phase_2,go,1000.0,1000.0,1.0,,,,,,,,,white,circle
0.0,3.0,2.0,0.0,6.0,6.0,769.9971910333261,6.0,1.0,phase_2,go,1000.0,1000.0,1.0,,,,,,,,,gray,diamond
0.0,4.0,4.0,0.0,6.0,6.0,571.7223369865678,6.0,1.0,phase_2,go,1000.0,1000.0,1.0,,,,,,,,,blue,I
0.0,2.0,1.0,0.0,5.0,5.0,785.0828330265358,6.0,1.0,phase_2,go,1000.0,1000.0,1.0,,,,,,,,,green,flipped triangle
0.0,5.0,0.5,1.0,5.0,5.0,778.3178020035848,6.0,1.0,phase_2,stop,1000.0,1000.0,3.0,,,,,,,,,orange,square
0.0,7.0,2.0,1.0,5.0,5.0,738.3000300033018,6.0,1.0,phase_2,stop,950.0,1000.0,3.0,,,,,,,,,white,circle
0.0,5.0,0.5,1.0,6.0,6.0,726.930545992218,6.0,1.0,phase_2,go,900.0,1000.0,1.0,,,,,,,,,orange,square
0.0,3.0,2.0,0.0,5.0,5.0,913.7175809592007,6.0,1.0,phase_2,go,900.0,1000.0,1.0,,,,,,,,,gray,diamond
0.0,8.0,4.0,1.0,6.0,6.0,1258.0308790202253,6.0,1.0,phase_2,go,900.0,1000.0,1.0,,,,,,,,,cyan,hexagon
0.0,5.0,0.5,1.0,6.0,6.0,919.6311950217932,6.0,1.0,phase_2,go,900.0,1000.0,1.0,,,,,,,,,orange,square
0.0,3.0,2.0,0.0,5.0,5.0,901.1852600378916,6.0,1.0,phase_2,go,900.0,1000.0,1.0,,,,,,,,,gray,diamond
0.0,6.0,1.0,1.0,5.0,5.0,1030.2417459897697,6.0,1.0,phase_2,stop,900.0,1000.0,3.0,,,,,,,,,magenta,triangle
0.0,3.0,2.0,0.0,6.0,6.0,636.0389000037685,6.0,1.0,phase_2,go,850.0,1000.0,1.0,,,,,,,,,gray,diamond
0.0,6.0,1.0,1.0,5.0,0.0,0.0,6.0,1.0,phase_2,stop,850.0,1000.0,4.0,,,,,,,,,magenta,triangle
0.0,1.0,0.5,0.0,6.0,6.0,500.84134604549035,6.0,1.0,phase_2,go,900.0,1000.0,1.0,,,,,,,,,yellow,cross
0.0,4.0,4.0,0.0,6.0,6.0,850.4947599722072,6.0,1.0,phase_2,go,900.0,1000.0,1.0,,,,,,,,,blue,I
0.0,1.0,0.5,0.0,5.0,5.0,1037.6027089660056,6.0,1.0,phase_2,go,900.0,1000.0,1.0,,,,,,,,,yellow,cross
0.0,7.0,2.0,1.0,5.0,5.0,1347.6615959662013,6.0,1.0,phase_2,go,900.0,1000.0,1.0,,,,,,,,,white,circle
0.0,6.0,1.0,1.0,5.0,0.0,0.0,6.0,1.0,phase_2,stop,900.0,1000.0,4.0,,,,,,,,,magenta,triangle
0.0,3.0,2.0,0.0,5.0,5.0,642.5754030351527,6.0,1.0,phase_2,go,950.0,1000.0,1.0,,,,,,,,,gray,diamond
0.0,5.0,0.5,1.0,6.0,0.0,0.0,6.0,1.0,phase_2,stop,950.0,1000.0,4.0,,,,,,,,,orange,square
0.0,4.0,4.0,0.0,5.0,5.0,566.599570971448,6.0,1.0,phase_2,go,950.0,1050.0,1.0,,,,,,,,,blue,I
0.0,1.0,0.5,0.0,6.0,6.0,639.2462159856223,6.0,1.0,phase_2,go,950.0,1050.0,1.0,,,,,,,,,yellow,cross
0.0,8.0,4.0,1.0,5.0,0.0,0.0,6.0,1.0,phase_2,stop,950.0,1050.0,4.0,,,,,,,,,cyan,hexagon
0.0,5.0,0.5,1.0,5.0,0.0,0.0,6.0,1.0,phase_2,stop,1000.0,1050.0,4.0,,,,,,,,,orange,square
0.0,4.0,4.0,0.0,6.0,6.0,608.5248710005544,6.0,1.0,phase_2,go,1050.0,1050.0,1.0,,,,,,,,,blue,I
0.0,5.0,0.5,1.0,5.0,0.0,0.0,6.0,1.0,phase_2,stop,1050.0,1050.0,4.0,,,,,,,,,orange,square
0.0,7.0,2.0,1.0,5.0,0.0,0.0,7.0,1.0,phase_2,stop,1100.0,1050.0,4.0,,,,,,,,,white,circle
0.0,7.0,2.0,1.0,6.0,0.0,0.0,7.0,1.0,phase_2,stop,1150.0,1050.0,4.0,,,,,,,,,white,circle
0.0,1.0,0.5,0.0,5.0,5.0,654.2797780130059,7.0,1.0,phase_2,go,1150.0,1100.0,1.0,,,,,,,,,yellow,cross
0.0,2.0,1.0,0.0,5.0,5.0,530.5955039802939,7.0,1.0,phase_2,go,1150.0,1100.0,1.0,,,,,,,,,green,flipped triangle
0.0,6.0,1.0,1.0,5.0,5.0,1341.8447370058857,7.0,1.0,phase_2,go,1150.0,1100.0,1.0,,,,,,,,,magenta,triangle
0.0,1.0,0.5,0.0,5.0,5.0,697.3804329754785,7.0,1.0,phase_2,go,1150.0,1100.0,1.0,,,,,,,,,yellow,cross
0.0,2.0,1.0,0.0,5.0,5.0,531.8859029794112,7.0,1.0,phase_2,go,1150.0,1100.0,1.0,,,,,,,,,green,flipped triangle
0.0,7.0,2.0,1.0,6.0,0.0,0.0,7.0,1.0,phase_2,stop,1150.0,1100.0,4.0,,,,,,,,,white,circle
0.0,5.0,0.5,1.0,5.0,5.0,488.6228760005906,7.0,1.0,phase_2,go,1150.0,1150.0,1.0,,,,,,,,,orange,square
0.0,2.0,1.0,0.0,6.0,6.0,538.9313460327685,7.0,1.0,phase_2,go,1150.0,1150.0,1.0,,,,,,,,,green,flipped triangle
0.0,8.0,4.0,1.0,5.0,0.0,0.0,7.0,1.0,phase_2,stop,1150.0,1150.0,4.0,,,,,,,,,cyan,hexagon
0.0,8.0,4.0,1.0,6.0,0.0,0.0,7.0,1.0,phase_2,stop,1200.0,1150.0,4.0,,,,,,,,,cyan,hexagon
0.0,3.0,2.0,0.0,5.0,5.0,719.2246149643324,7.0,1.0,phase_2,go,1200.0,1200.0,1.0,,,,,,,,,gray,diamond
0.0,8.0,4.0,1.0,6.0,0.0,0.0,7.0,1.0,phase_2,stop,1200.0,1200.0,4.0,,,,,,,,,cyan,hexagon
0.0,7.0,2.0,1.0,5.0,0.0,0.0,7.0,1.0,phase_2,stop,1200.0,1250.0,4.0,,,,,,,,,white,circle
0.0,8.0,4.0,1.0,6.0,0.0,0.0,7.0,1.0,phase_2,go,1250.0,1250.0,5.0,,,,,,,,,cyan,hexagon
0.0,1.0,0.5,0.0,5.0,5.0,1035.6762220035307,7.0,1.0,phase_2,go,1250.0,1250.0,1.0,,,,,,,,,yellow,cross
0.0,5.0,0.5,1.0,6.0,6.0,563.4573260322213,7.0,1.0,phase_2,stop,1250.0,1250.0,3.0,,,,,,,,,orange,square
0.0,8.0,4.0,1.0,5.0,5.0,1306.5351719851606,7.0,1.0,phase_2,stop,1250.0,1200.0,3.0,,,,,,,,,cyan,hexagon
0.0,2.0,1.0,0.0,6.0,6.0,692.1988610411063,7.0,1.0,phase_2,go,1200.0,1200.0,1.0,,,,,,,,,green,flipped triangle
0.0,6.0,1.0,1.0,5.0,5.0,1180.1653809961865,7.0,1.0,phase_2,stop,1200.0,1200.0,3.0,,,,,,,,,magenta,triangle
0.0,1.0,0.5,0.0,6.0,6.0,660.0609759916551,7.0,1.0,phase_2,go,1150.0,1200.0,1.0,,,,,,,,,yellow,cross
0.0,4.0,4.0,0.0,5.0,5.0,579.9247039831243,7.0,1.0,phase_2,go,1150.0,1200.0,1.0,,,,,,,,,blue,I
0.0,8.0,4.0,1.0,6.0,6.0,1393.2415309827777,7.0,1.0,phase_2,go,1150.0,1200.0,1.0,,,,,,,,,cyan,hexagon
0.0,3.0,2.0,0.0,6.0,6.0,778.7520349957049,7.0,1.0,phase_2,go,1150.0,1200.0,1.0,,,,,,,,,gray,diamond
0.0,2.0,1.0,0.0,5.0,5.0,632.5432930025272,7.0,1.0,phase_2,go,1150.0,1200.0,1.0,,,,,,,,,green,flipped triangle
0.0,2.0,1.0,0.0,5.0,5.0,422.7590080117807,7.0,1.0,phase_2,go,1150.0,1200.0,1.0,,,,,,,,,green,flipped triangle
0.0,4.0,4.0,0.0,5.0,5.0,503.7896109861322,7.0,1.0,phase_2,go,1150.0,1200.0,1.0,,,,,,,,,blue,I
0.0,7.0,2.0,1.0,6.0,6.0,1317.1420710277744,7.0,1.0,phase_2,stop,1150.0,1200.0,3.0,,,,,,,,,white,circle
0.0,2.0,1.0,0.0,5.0,5.0,584.0034909779206,7.0,1.0,phase_2,go,1150.0,1150.0,1.0,,,,,,,,,green,flipped triangle
0.0,1.0,0.5,0.0,6.0,6.0,587.8127230098471,7.0,1.0,phase_2,go,1150.0,1150.0,1.0,,,,,,,,,yellow,cross
0.0,4.0,4.0,0.0,5.0,5.0,563.3100050035864,7.0,1.0,phase_2,go,1150.0,1150.0,1.0,,,,,,,,,blue,I
0.0,4.0,4.0,0.0,6.0,6.0,540.604661044199,7.0,1.0,phase_2,go,1150.0,1150.0,1.0,,,,,,,,,blue,I
0.0,3.0,2.0,0.0,6.0,6.0,882.9475250095129,7.0,1.0,phase_2,go,1150.0,1150.0,1.0,,,,,,,,,gray,diamond
0.0,2.0,1.0,0.0,6.0,6.0,492.5903989933431,7.0,1.0,phase_2,go,1150.0,1150.0,1.0,,,,,,,,,green,flipped triangle
0.0,8.0,4.0,1.0,5.0,5.0,1467.3990900046192,7.0,1.0,phase_2,go,1150.0,1150.0,1.0,,,,,,,,,cyan,hexagon
0.0,2.0,1.0,0.0,6.0,6.0,1445.4367500147782,8.0,1.0,phase_2,go,1150.0,1150.0,1.0,,,,,,,,,green,flipped triangle
0.0,5.0,0.5,1.0,5.0,5.0,605.5592030170374,8.0,1.0,phase_2,stop,1150.0,1150.0,3.0,,,,,,,,,orange,square
0.0,2.0,1.0,0.0,6.0,6.0,772.9017040110193,8.0,1.0,phase_2,go,1100.0,1150.0,1.0,,,,,,,,,green,flipped triangle
0.0,8.0,4.0,1.0,6.0,6.0,1250.8437189972028,8.0,1.0,phase_2,stop,1100.0,1150.0,3.0,,,,,,,,,cyan,hexagon
0.0,2.0,1.0,0.0,5.0,5.0,853.017877030652,8.0,1.0,phase_2,go,1100.0,1100.0,1.0,,,,,,,,,green,flipped triangle
0.0,3.0,2.0,0.0,5.0,5.0,916.0145579953678,8.0,1.0,phase_2,go,1100.0,1100.0,1.0,,,,,,,,,gray,diamond
0.0,6.0,1.0,1.0,6.0,0.0,0.0,8.0,1.0,phase_2,stop,1100.0,1100.0,4.0,,,,,,,,,magenta,triangle
0.0,8.0,4.0,1.0,5.0,0.0,0.0,8.0,1.0,phase_2,go,1100.0,1150.0,5.0,,,,,,,,,cyan,hexagon
0.0,8.0,4.0,1.0,5.0,5.0,680.4367650183849,8.0,1.0,phase_2,stop,1100.0,1150.0,3.0,,,,,,,,,cyan,hexagon
0.0,5.0,0.5,1.0,6.0,6.0,849.6152319712564,8.0,1.0,phase_2,go,1050.0,1150.0,1.0,,,,,,,,,orange,square
0.0,2.0,1.0,0.0,6.0,6.0,560.0192610290833,8.0,1.0,phase_2,go,1050.0,1150.0,1.0,,,,,,,,,green,flipped triangle
0.0,3.0,2.0,0.0,6.0,6.0,624.495884985663,8.0,1.0,phase_2,go,1050.0,1150.0,1.0,,,,,,,,,gray,diamond
0.0,7.0,2.0,1.0,6.0,6.0,895.9553510067053,8.0,1.0,phase_2,stop,1050.0,1150.0,3.0,,,,,,,,,white,circle
0.0,5.0,0.5,1.0,6.0,6.0,773.9428430213593,8.0,1.0,phase_2,stop,1050.0,1100.0,3.0,,,,,,,,,orange,square
0.0,2.0,1.0,0.0,6.0,6.0,837.4743749736808,8.0,1.0,phase_2,go,1050.0,1050.0,1.0,,,,,,,,,green,flipped triangle
0.0,2.0,1.0,0.0,6.0,6.0,604.9436460016295,8.0,1.0,phase_2,go,1050.0,1050.0,1.0,,,,,,,,,green,flipped triangle
0.0,1.0,0.5,0.0,6.0,6.0,415.1160309556871,8.0,1.0,phase_2,go,1050.0,1050.0,1.0,,,,,,,,,yellow,cross
0.0,3.0,2.0,0.0,6.0,6.0,796.1435190518387,8.0,1.0,phase_2,go,1050.0,1050.0,1.0,,,,,,,,,gray,diamond
0.0,8.0,4.0,1.0,5.0,0.0,0.0,8.0,1.0,phase_2,stop,1050.0,1050.0,4.0,,,,,,,,,cyan,hexagon
0.0,4.0,4.0,0.0,5.0,5.0,589.6920989616774,8.0,1.0,phase_2,go,1100.0,1050.0,1.0,,,,,,,,,blue,I
0.0,3.0,2.0,0.0,6.0,6.0,612.4325189739466,8.0,1.0,phase_2,go,1100.0,1050.0,1.0,,,,,,,,,gray,diamond
0.0,7.0,2.0,1.0,5.0,0.0,0.0,8.0,1.0,phase_2,stop,1100.0,1050.0,4.0,,,,,,,,,white,circle
0.0,7.0,2.0,1.0,6.0,0.0,0.0,8.0,1.0,phase_2,go,1150.0,1050.0,5.0,,,,,,,,,white,circle
0.0,1.0,0.5,0.0,6.0,6.0,656.2271029688418,8.0,1.0,phase_2,go,1150.0,1050.0,1.0,,,,,,,,,yellow,cross
0.0,6.0,1.0,1.0,5.0,0.0,0.0,8.0,1.0,phase_2,go,1150.0,1050.0,5.0,,,,,,,,,magenta,triangle
0.0,2.0,1.0,0.0,5.0,5.0,487.2668250463903,8.0,1.0,phase_2,go,1150.0,1050.0,1.0,,,,,,,,,green,flipped triangle
0.0,1.0,0.5,0.0,6.0,6.0,770.5169839900918,8.0,1.0,phase_2,go,1150.0,1050.0,1.0,,,,,,,,,yellow,cross
0.0,5.0,0.5,1.0,6.0,0.0,0.0,8.0,1.0,phase_2,stop,1150.0,1050.0,4.0,,,,,,,,,orange,square
0.0,5.0,0.5,1.0,5.0,5.0,689.2987440223806,8.0,1.0,phase_2,stop,1150.0,1100.0,3.0,,,,,,,,,orange,square
0.0,7.0,2.0,1.0,5.0,5.0,1150.6487530423328,8.0,1.0,phase_2,stop,1100.0,1100.0,3.0,,,,,,,,,white,circle
0.0,6.0,1.0,1.0,5.0,0.0,0.0,8.0,1.0,phase_2,go,1050.0,1100.0,5.0,,,,,,,,,magenta,triangle
0.0,6.0,1.0,1.0,5.0,0.0,0.0,8.0,1.0,phase_2,stop,1050.0,1100.0,4.0,,,,,,,,,magenta,triangle
0.0,8.0,4.0,1.0,6.0,0.0,0.0,8.0,1.0,phase_2,stop,1100.0,1100.0,4.0,,,,,,,,,cyan,hexagon
0.0,4.0,4.0,0.0,6.0,6.0,556.4596559852362,8.0,1.0,phase_2,go,1100.0,1150.0,1.0,,,,,,,,,blue,I
0.0,3.0,2.0,0.0,6.0,6.0,690.1811809511855,8.0,1.0,phase_2,go,1100.0,1150.0,1.0,,,,,,,,,gray,diamond
0.0,8.0,4.0,1.0,6.0,0.0,0.0,8.0,1.0,phase_2,stop,1100.0,1150.0,4.0,,,,,,,,,cyan,hexagon
0.0,1.0,0.5,0.0,7.0,3.0,1004.9274470075034,1.0,3.0,phase_3,,,,,39.0,1.0,156.0,78.0,39.0,195.0,234.0,117.0,yellow,cross
0.0,6.0,1.0,1.0,7.0,2.0,3438.1976860458963,1.0,2.0,phase_3,,,,,98.0,2.0,245.0,98.0,196.0,294.0,49.0,147.0,magenta,triangle
0.0,7.0,2.0,1.0,7.0,3.0,3255.873544025235,1.0,1.0,phase_3,,,,,44.0,1.0,220.0,176.0,44.0,88.0,132.0,264.0,white,circle
0.0,6.0,1.0,1.0,7.0,3.0,4017.731409985572,1.0,1.0,phase_3,,,,,68.0,2.0,204.0,170.0,68.0,102.0,136.0,34.0,magenta,triangle
0.0,2.0,1.0,0.0,7.0,1.0,3604.6556839719415,1.0,1.0,phase_3,,,,,132.0,3.0,132.0,220.0,176.0,44.0,88.0,264.0,green,flipped triangle
0.0,5.0,0.5,1.0,7.0,6.0,2510.082884982694,1.0,1.0,phase_3,,,,,102.0,3.0,136.0,170.0,68.0,204.0,34.0,102.0,orange,square
0.0,4.0,4.0,0.0,7.0,1.0,3065.724457032047,1.0,1.0,phase_3,,,,,204.0,6.0,204.0,34.0,136.0,68.0,170.0,102.0,blue,I
0.0,1.0,0.5,0.0,7.0,3.0,2512.927747971844,1.0,1.0,phase_3,,,,,98.0,2.0,294.0,245.0,98.0,49.0,147.0,196.0,yellow,cross
0.0,3.0,2.0,0.0,7.0,5.0,1716.1949139554054,1.0,1.0,phase_3,,,,,102.0,3.0,204.0,68.0,136.0,170.0,102.0,34.0,gray,diamond
0.0,3.0,2.0,0.0,7.0,4.0,3318.443056021352,1.0,1.0,phase_3,,,,,147.0,3.0,49.0,196.0,98.0,147.0,245.0,294.0,gray,diamond
0.0,7.0,2.0,1.0,7.0,1.0,2460.8053009724244,1.0,1.0,phase_3,,,,,44.0,1.0,44.0,264.0,176.0,220.0,88.0,132.0,white,circle
0.0,3.0,2.0,0.0,7.0,2.0,2417.193695029709,1.0,1.0,phase_3,,,,,108.0,2.0,54.0,108.0,324.0,162.0,270.0,216.0,gray,diamond
0.0,7.0,2.0,1.0,7.0,2.0,2259.6810800023377,1.0,1.0,phase_3,,,,,54.0,1.0,216.0,54.0,108.0,162.0,324.0,270.0,white,circle
0.0,2.0,1.0,0.0,7.0,1.0,2802.8877420001663,1.0,1.0,phase_3,,,,,78.0,2.0,78.0,156.0,234.0,117.0,195.0,39.0,green,flipped triangle
0.0,3.0,2.0,0.0,7.0,4.0,2852.8316210140474,1.0,1.0,phase_3,,,,,44.0,1.0,220.0,176.0,88.0,44.0,264.0,132.0,gray,diamond
0.0,3.0,2.0,0.0,7.0,2.0,3814.721829956397,1.0,1.0,phase_3,,,,,98.0,2.0,245.0,98.0,49.0,196.0,147.0,294.0,gray,diamond
0.0,4.0,4.0,0.0,7.0,1.0,3460.988319013268,1.0,1.0,phase_3,,,,,264.0,6.0,264.0,88.0,220.0,44.0,176.0,132.0,blue,I
0.0,6.0,1.0,1.0,7.0,4.0,2169.8223559651524,1.0,2.0,phase_3,,,,,117.0,3.0,156.0,195.0,78.0,117.0,234.0,39.0,magenta,triangle
0.0,4.0,4.0,0.0,7.0,1.0,2931.160928972531,1.0,1.0,phase_3,,,,,324.0,6.0,324.0,54.0,270.0,108.0,162.0,216.0,blue,I
0.0,1.0,0.5,0.0,7.0,6.0,3162.9190500243567,1.0,1.0,phase_3,,,,,162.0,3.0,54.0,324.0,108.0,216.0,270.0,162.0,yellow,cross
0.0,8.0,4.0,1.0,7.0,3.0,2269.451198983006,2.0,1.0,phase_3,,,,,264.0,6.0,88.0,44.0,264.0,132.0,176.0,220.0,cyan,hexagon
0.0,8.0,4.0,1.0,7.0,2.0,2089.2767580226064,2.0,1.0,phase_3,,,,,294.0,6.0,196.0,294.0,98.0,49.0,245.0,147.0,cyan,hexagon
0.0,8.0,4.0,1.0,7.0,2.0,1712.1513350284658,2.0,1.0,phase_3,,,,,204.0,6.0,136.0,204.0,34.0,102.0,170.0,68.0,cyan,hexagon
0.0,2.0,1.0,0.0,7.0,6.0,3202.971941966098,2.0,1.0,phase_3,,,,,147.0,3.0,98.0,245.0,196.0,294.0,49.0,147.0,green,flipped triangle
0.0,5.0,0.5,1.0,7.0,6.0,1973.952011030633,2.0,1.0,phase_3,,,,,88.0,2.0,220.0,44.0,132.0,264.0,176.0,88.0,orange,square
0.0,1.0,0.5,0.0,7.0,2.0,3558.8340500253253,2.0,1.0,phase_3,,,,,98.0,2.0,196.0,98.0,147.0,49.0,245.0,294.0,yellow,cross
0.0,7.0,2.0,1.0,7.0,3.0,1524.992379010655,2.0,1.0,phase_3,,,,,49.0,1.0,294.0,147.0,49.0,98.0,245.0,196.0,white,circle
0.0,4.0,4.0,0.0,7.0,2.0,1462.2430769959465,2.0,1.0,phase_3,,,,,294.0,6.0,147.0,294.0,196.0,245.0,98.0,49.0,blue,I
0.0,5.0,0.5,1.0,7.0,5.0,1648.2529240311123,2.0,1.0,phase_3,,,,,102.0,3.0,68.0,170.0,136.0,204.0,102.0,34.0,orange,square
0.0,4.0,4.0,0.0,7.0,5.0,1721.806822984945,2.0,1.0,phase_3,,,,,264.0,6.0,176.0,44.0,220.0,88.0,264.0,132.0,blue,I
0.0,6.0,1.0,1.0,7.0,2.0,2963.376550003886,2.0,1.0,phase_3,,,,,34.0,1.0,68.0,34.0,204.0,136.0,102.0,170.0,magenta,triangle
0.0,4.0,4.0,0.0,7.0,3.0,2022.108591976576,2.0,1.0,phase_3,,,,,234.0,6.0,195.0,78.0,234.0,39.0,117.0,156.0,blue,I
0.0,4.0,4.0,0.0,7.0,6.0,1839.0950559987689,2.0,1.0,phase_3,,,,,234.0,6.0,78.0,117.0,39.0,195.0,156.0,234.0,blue,I
0.0,7.0,2.0,1.0,7.0,4.0,1342.3667849856429,2.0,1.0,phase_3,,,,,34.0,1.0,204.0,68.0,170.0,34.0,136.0,102.0,white,circle
0.0,7.0,2.0,1.0,7.0,4.0,1388.084409001749,2.0,1.0,phase_3,,,,,49.0,1.0,245.0,147.0,196.0,49.0,294.0,98.0,white,circle
0.0,5.0,0.5,1.0,7.0,5.0,1465.7798819825985,2.0,1.0,phase_3,,,,,98.0,2.0,196.0,294.0,245.0,49.0,98.0,147.0,orange,square
0.0,5.0,0.5,1.0,7.0,4.0,1939.8393600131385,2.0,1.0,phase_3,,,,,88.0,2.0,220.0,176.0,44.0,88.0,264.0,132.0,orange,square
0.0,5.0,0.5,1.0,7.0,6.0,1917.7435419987887,2.0,1.0,phase_3,,,,,78.0,2.0,195.0,117.0,39.0,156.0,234.0,78.0,orange,square
0.0,2.0,1.0,0.0,7.0,5.0,2349.8055019881576,2.0,1.0,phase_3,,,,,54.0,1.0,108.0,270.0,324.0,162.0,54.0,216.0,green,flipped triangle
0.0,2.0,1.0,0.0,7.0,2.0,2409.400451986585,2.0,1.0,phase_3,,,,,68.0,2.0,102.0,68.0,34.0,204.0,170.0,136.0,green,flipped triangle
0.0,6.0,1.0,1.0,7.0,4.0,1982.98067500582,3.0,1.0,phase_3,,,,,108.0,2.0,54.0,324.0,162.0,108.0,270.0,216.0,magenta,triangle
0.0,8.0,4.0,1.0,7.0,3.0,1810.8723720069972,3.0,1.0,phase_3,,,,,294.0,6.0,98.0,49.0,294.0,147.0,196.0,245.0,cyan,hexagon
0.0,1.0,0.5,0.0,7.0,4.0,1339.577217993792,3.0,1.0,phase_3,,,,,102.0,3.0,34.0,170.0,204.0,102.0,136.0,68.0,yellow,cross
0.0,8.0,4.0,1.0,7.0,4.0,1852.732022991404,3.0,1.0,phase_3,,,,,195.0,5.0,156.0,39.0,117.0,195.0,234.0,78.0,cyan,hexagon
0.0,4.0,4.0,0.0,7.0,5.0,2319.181099999696,3.0,1.0,phase_3,,,,,324.0,6.0,162.0,54.0,108.0,216.0,324.0,270.0,blue,I
0.0,1.0,0.5,0.0,7.0,1.0,3205.2639910252765,3.0,1.0,phase_3,,,,,78.0,2.0,78.0,234.0,39.0,156.0,117.0,195.0,yellow,cross
0.0,2.0,1.0,0.0,7.0,5.0,3754.777490044944,3.0,1.0,phase_3,,,,,132.0,3.0,264.0,220.0,44.0,88.0,132.0,176.0,green,flipped triangle
0.0,1.0,0.5,0.0,7.0,4.0,1682.3767719906757,3.0,1.0,phase_3,,,,,88.0,2.0,176.0,132.0,264.0,88.0,44.0,220.0,yellow,cross
0.0,2.0,1.0,0.0,7.0,5.0,2969.6245649829507,3.0,1.0,phase_3,,,,,54.0,1.0,216.0,324.0,162.0,270.0,54.0,108.0,green,flipped triangle
0.0,1.0,0.5,0.0,7.0,5.0,1278.6365259671584,3.0,1.0,phase_3,,,,,108.0,2.0,54.0,162.0,270.0,216.0,108.0,324.0,yellow,cross
0.0,2.0,1.0,0.0,7.0,4.0,1924.2607049527576,3.0,1.0,phase_3,,,,,117.0,3.0,195.0,78.0,156.0,117.0,39.0,234.0,green,flipped triangle
0.0,8.0,4.0,1.0,7.0,5.0,2448.4465299756266,3.0,1.0,phase_3,,,,,324.0,6.0,270.0,216.0,54.0,108.0,324.0,162.0,cyan,hexagon
0.0,6.0,1.0,1.0,7.0,4.0,2640.8352819853462,3.0,1.0,phase_3,,,,,162.0,3.0,324.0,270.0,54.0,162.0,216.0,108.0,magenta,triangle
0.0,2.0,1.0,0.0,7.0,3.0,1560.5849149869755,3.0,1.0,phase_3,,,,,102.0,3.0,136.0,170.0,102.0,204.0,68.0,34.0,green,flipped triangle
0.0,3.0,2.0,0.0,7.0,2.0,1961.932332022116,3.0,1.0,phase_3,,,,,117.0,3.0,234.0,117.0,78.0,156.0,39.0,195.0,gray,diamond
0.0,3.0,2.0,0.0,7.0,2.0,2533.1197420018725,3.0,1.0,phase_3,,,,,117.0,3.0,78.0,117.0,234.0,39.0,195.0,156.0,gray,diamond
0.0,7.0,2.0,1.0,7.0,6.0,2044.7737550130114,3.0,1.0,phase_3,,,,,39.0,1.0,195.0,234.0,156.0,78.0,117.0,39.0,white,circle
0.0,4.0,4.0,0.0,7.0,6.0,1790.4398610116914,3.0,1.0,phase_3,,,,,204.0,6.0,102.0,68.0,34.0,170.0,136.0,204.0,blue,I
0.0,5.0,0.5,1.0,7.0,2.0,2035.0190040189773,3.0,1.0,phase_3,,,,,54.0,1.0,162.0,54.0,270.0,216.0,108.0,324.0,orange,square
0.0,4.0,4.0,0.0,7.0,4.0,2049.75205095252,3.0,1.0,phase_3,,,,,294.0,6.0,245.0,49.0,98.0,294.0,196.0,147.0,blue,I
0.0,6.0,1.0,1.0,7.0,3.0,1266.5440699784083,4.0,1.0,phase_3,,,,,88.0,2.0,264.0,132.0,88.0,220.0,176.0,44.0,magenta,triangle
0.0,7.0,2.0,1.0,7.0,6.0,1433.5106640355662,4.0,1.0,phase_3,,,,,34.0,1.0,136.0,204.0,170.0,102.0,68.0,34.0,white,circle
0.0,8.0,4.0,1.0,7.0,4.0,2285.788513021544,4.0,1.0,phase_3,,,,,204.0,6.0,102.0,34.0,136.0,204.0,170.0,68.0,cyan,hexagon
0.0,7.0,2.0,1.0,7.0,4.0,1166.1502050119452,4.0,1.0,phase_3,,,,,39.0,1.0,156.0,117.0,195.0,39.0,234.0,78.0,white,circle
0.0,7.0,2.0,1.0,7.0,4.0,855.240760021843,4.0,1.0,phase_3,,,,,54.0,1.0,324.0,162.0,270.0,54.0,108.0,216.0,white,circle
0.0,1.0,0.5,0.0,7.0,1.0,2287.6019529649056,4.0,1.0,phase_3,,,,,136.0,4.0,136.0,204.0,102.0,170.0,68.0,34.0,yellow,cross
0.0,8.0,4.0,1.0,7.0,1.0,1298.2260580174625,4.0,1.0,phase_3,,,,,264.0,6.0,264.0,176.0,220.0,44.0,132.0,88.0,cyan,hexagon
0.0,8.0,4.0,1.0,7.0,1.0,1861.049550003372,4.0,1.0,phase_3,,,,,234.0,6.0,234.0,195.0,117.0,39.0,78.0,156.0,cyan,hexagon
0.0,3.0,2.0,0.0,7.0,3.0,2197.318037971854,4.0,1.0,phase_3,,,,,88.0,2.0,264.0,44.0,88.0,220.0,176.0,132.0,gray,diamond
0.0,1.0,0.5,0.0,7.0,4.0,2895.385344978422,4.0,1.0,phase_3,,,,,88.0,2.0,44.0,176.0,132.0,88.0,220.0,264.0,yellow,cross
0.0,6.0,1.0,1.0,7.0,3.0,3200.471448013559,4.0,1.0,phase_3,,,,,220.0,5.0,44.0,176.0,220.0,88.0,264.0,132.0,magenta,triangle
0.0,3.0,2.0,0.0,7.0,4.0,1287.976733001415,4.0,1.0,phase_3,,,,,162.0,3.0,216.0,54.0,108.0,162.0,324.0,270.0,gray,diamond
0.0,5.0,0.5,1.0,7.0,4.0,1619.8201089864597,4.0,1.0,phase_3,,,,,147.0,3.0,294.0,98.0,245.0,147.0,196.0,49.0,orange,square
0.0,5.0,0.5,1.0,7.0,6.0,2281.9248900050297,4.0,1.0,phase_3,,,,,156.0,4.0,117.0,195.0,39.0,234.0,78.0,156.0,orange,square
0.0,2.0,1.0,0.0,7.0,3.0,1933.6690430063757,4.0,1.0,phase_3,,,,,49.0,1.0,196.0,98.0,49.0,147.0,245.0,294.0,green,flipped triangle
0.0,8.0,4.0,1.0,7.0,2.0,1743.5509290080518,4.0,1.0,phase_3,,,,,270.0,5.0,162.0,270.0,216.0,324.0,54.0,108.0,cyan,hexagon
0.0,6.0,1.0,1.0,7.0,4.0,1711.078061023727,4.0,1.0,phase_3,,,,,117.0,3.0,78.0,195.0,234.0,117.0,156.0,39.0,magenta,triangle
0.0,5.0,0.5,1.0,7.0,3.0,2393.763990025036,4.0,1.0,phase_3,,,,,108.0,2.0,324.0,270.0,108.0,216.0,162.0,54.0,orange,square
0.0,6.0,1.0,1.0,7.0,2.0,1850.8858470013363,4.0,1.0,phase_3,,,,,98.0,2.0,196.0,98.0,49.0,245.0,294.0,147.0,magenta,triangle
0.0,3.0,2.0,0.0,7.0,2.0,1349.541757022962,4.0,1.0,phase_3,,,,,136.0,4.0,170.0,136.0,204.0,68.0,102.0,34.0,gray,diamond
