raw_reward_magnitude,stim_reward,stepwise_reward_magnitude,paired_with_stopping,quadrant,response,reaction_time,block,num_trial_presentations,which_part,stop_signal_trial_type,left_SSD,right_SSD,accuracy,chosen_bidding_amount,chosen_bidding_level,possible_bid_1,possible_bid_2,possible_bid_3,possible_bid_4,possible_bid_5,possible_bid_6,color_text,shape_text
409.0,8.0,4.0,1.0,4.0,4.0,448.8394260406494,1.0,1.0,part_1,,,,,,,,,,,,,cyan,diamond
0.0,5.0,0.0,1.0,2.0,2.0,454.2373829754069,1.0,1.0,part_1,,,,,,,,,,,,,orange,I
43.0,5.0,1.0,1.0,1.0,1.0,405.4456860176287,1.0,1.0,part_1,,,,,,,,,,,,,orange,I
177.0,7.0,3.0,1.0,2.0,2.0,302.8537069913,1.0,1.0,part_1,,,,,,,,,,,,,gray,cross
93.0,2.0,2.0,0.0,1.0,1.0,301.5493659768253,1.0,1.0,part_1,,,,,,,,,,,,,magenta,hexagon
53.0,5.0,1.0,1.0,3.0,3.0,300.5903580342419,1.0,1.0,part_1,,,,,,,,,,,,,orange,I
96.0,6.0,2.0,1.0,3.0,3.0,310.0493689998984,1.0,1.0,part_1,,,,,,,,,,,,,green,circle
0.0,2.0,0.0,0.0,4.0,4.0,394.4935809704475,1.0,1.0,part_1,,,,,,,,,,,,,magenta,hexagon
0.0,8.0,0.0,1.0,2.0,2.0,303.1336060375906,1.0,1.0,part_1,,,,,,,,,,,,,cyan,diamond
194.0,7.0,3.0,1.0,2.0,2.0,315.0049929972738,1.0,1.0,part_1,,,,,,,,,,,,,gray,cross
90.0,2.0,2.0,0.0,2.0,2.0,407.865394023247,1.0,1.0,part_1,,,,,,,,,,,,,magenta,hexagon
389.0,4.0,4.0,0.0,3.0,3.0,303.7976190098561,1.0,1.0,part_1,,,,,,,,,,,,,white,flipped triangle
93.0,2.0,2.0,0.0,4.0,4.0,307.3999939952045,1.0,1.0,part_1,,,,,,,,,,,,,magenta,hexagon
424.0,8.0,4.0,1.0,1.0,1.0,286.2410899833776,1.0,1.0,part_1,,,,,,,,,,,,,cyan,diamond
0.0,5.0,0.0,1.0,1.0,1.0,362.0859119691886,1.0,2.0,part_1,,,,,,,,,,,,,orange,I
0.0,4.0,0.0,0.0,2.0,2.0,365.623241988942,1.0,1.0,part_1,,,,,,,,,,,,,white,flipped triangle
224.0,7.0,3.0,1.0,4.0,4.0,304.1487589944154,1.0,1.0,part_1,,,,,,,,,,,,,gray,cross
0.0,4.0,0.0,0.0,1.0,1.0,336.1787900212221,1.0,1.0,part_1,,,,,,,,,,,,,white,flipped triangle
73.0,1.0,1.0,0.0,1.0,1.0,373.0509729939513,1.0,1.0,part_1,,,,,,,,,,,,,blue,square
60.0,5.0,1.0,1.0,1.0,1.0,383.4482670063153,1.0,1.0,part_1,,,,,,,,,,,,,orange,I
403.0,8.0,4.0,1.0,4.0,4.0,354.4430200126953,1.0,2.0,part_1,,,,,,,,,,,,,cyan,diamond
51.0,1.0,1.0,0.0,1.0,1.0,357.451273011975,1.0,1.0,part_1,,,,,,,,,,,,,blue,square
46.0,5.0,1.0,1.0,3.0,3.0,361.8677170015871,1.0,1.0,part_1,,,,,,,,,,,,,orange,I
29.0,5.0,1.0,1.0,4.0,4.0,345.5707980319857,1.0,1.0,part_1,,,,,,,,,,,,,orange,I
0.0,2.0,0.0,0.0,1.0,1.0,348.768858006224,1.0,1.0,part_1,,,,,,,,,,,,,magenta,hexagon
65.0,5.0,1.0,1.0,3.0,3.0,311.566894990392,1.0,1.0,part_1,,,,,,,,,,,,,orange,I
46.0,5.0,1.0,1.0,1.0,1.0,348.3547819778323,1.0,1.0,part_1,,,,,,,,,,,,,orange,I
424.0,4.0,4.0,0.0,4.0,4.0,345.0255510397255,1.0,1.0,part_1,,,,,,,,,,,,,white,flipped triangle
184.0,7.0,3.0,1.0,2.0,2.0,279.0569119970314,1.0,1.0,part_1,,,,,,,,,,,,,gray,cross
0.0,2.0,0.0,0.0,1.0,1.0,333.3467530319467,1.0,1.0,part_1,,,,,,,,,,,,,magenta,hexagon
0.0,4.0,0.0,0.0,4.0,4.0,303.0405519530177,1.0,1.0,part_1,,,,,,,,,,,,,white,flipped triangle
124.0,6.0,2.0,1.0,3.0,3.0,413.4613760397769,1.0,1.0,part_1,,,,,,,,,,,,,green,circle
203.0,3.0,3.0,0.0,2.0,2.0,360.6802010326646,1.0,1.0,part_1,,,,,,,,,,,,,yellow,triangle
382.0,8.0,4.0,1.0,4.0,4.0,327.6971990126185,1.0,1.0,part_1,,,,,,,,,,,,,cyan,diamond
105.0,6.0,2.0,1.0,3.0,3.0,340.9771939623169,1.0,1.0,part_1,,,,,,,,,,,,,green,circle
76.0,2.0,2.0,0.0,1.0,1.0,365.8104399801232,1.0,1.0,part_1,,,,,,,,,,,,,magenta,hexagon
419.0,4.0,4.0,0.0,2.0,2.0,324.6283060288988,1.0,1.0,part_1,,,,,,,,,,,,,white,flipped triangle
0.0,8.0,0.0,1.0,3.0,3.0,287.3105889884755,1.0,1.0,part_1,,,,,,,,,,,,,cyan,diamond
120.0,2.0,2.0,0.0,3.0,3.0,295.3275360050611,1.0,1.0,part_1,,,,,,,,,,,,,magenta,hexagon
64.0,5.0,1.0,1.0,2.0,2.0,340.3990950318984,1.0,1.0,part_1,,,,,,,,,,,,,orange,I
398.0,4.0,4.0,0.0,3.0,3.0,311.6074079880491,1.0,1.0,part_1,,,,,,,,,,,,,white,flipped triangle
26.0,5.0,1.0,1.0,2.0,2.0,322.4184089922346,1.0,1.0,part_1,,,,,,,,,,,,,orange,I
188.0,7.0,3.0,1.0,2.0,2.0,335.5602369992994,1.0,1.0,part_1,,,,,,,,,,,,,gray,cross
407.0,8.0,4.0,1.0,1.0,1.0,356.1090999864973,1.0,1.0,part_1,,,,,,,,,,,,,cyan,diamond
389.0,8.0,4.0,1.0,4.0,4.0,324.6140200062655,1.0,1.0,part_1,,,,,,,,,,,,,cyan,diamond
224.0,3.0,3.0,0.0,1.0,1.0,349.1456119809299,1.0,1.0,part_1,,,,,,,,,,,,,yellow,triangle
197.0,7.0,3.0,1.0,4.0,4.0,325.8509700535796,1.0,1.0,part_1,,,,,,,,,,,,,gray,cross
41.0,1.0,1.0,0.0,2.0,2.0,278.292529983446,1.0,1.0,part_1,,,,,,,,,,,,,blue,square
78.0,6.0,2.0,1.0,3.0,3.0,315.5457989778369,1.0,1.0,part_1,,,,,,,,,,,,,green,circle
211.0,3.0,3.0,0.0,2.0,2.0,327.9281610157341,1.0,1.0,part_1,,,,,,,,,,,,,yellow,triangle
124.0,6.0,2.0,1.0,1.0,1.0,316.364160971716,1.0,1.0,part_1,,,,,,,,,,,,,green,circle
58.0,1.0,1.0,0.0,4.0,4.0,282.1390180033631,1.0,1.0,part_1,,,,,,,,,,,,,blue,square
74.0,5.0,1.0,1.0,1.0,1.0,344.324128003791,1.0,1.0,part_1,,,,,,,,,,,,,orange,I
124.0,2.0,2.0,0.0,4.0,4.0,332.2678279946558,1.0,1.0,part_1,,,,,,,,,,,,,magenta,hexagon
0.0,7.0,0.0,1.0,2.0,2.0,303.5762259969488,1.0,1.0,part_1,,,,,,,,,,,,,gray,cross
184.0,7.0,3.0,1.0,4.0,4.0,348.2452800380997,1.0,1.0,part_1,,,,,,,,,,,,,gray,cross
188.0,3.0,3.0,0.0,2.0,2.0,315.8822130062617,1.0,1.0,part_1,,,,,,,,,,,,,yellow,triangle
87.0,6.0,2.0,1.0,4.0,4.0,311.5206460352056,1.0,1.0,part_1,,,,,,,,,,,,,green,circle
79.0,2.0,2.0,0.0,2.0,2.0,322.4756859708577,1.0,1.0,part_1,,,,,,,,,,,,,magenta,hexagon
419.0,8.0,4.0,1.0,2.0,2.0,392.5827260245569,1.0,1.0,part_1,,,,,,,,,,,,,cyan,diamond
218.0,3.0,3.0,0.0,2.0,2.0,334.477957978379,1.0,1.0,part_1,,,,,,,,,,,,,yellow,triangle
180.0,3.0,3.0,0.0,3.0,3.0,312.2334299841895,1.0,1.0,part_1,,,,,,,,,,,,,yellow,triangle
0.0,4.0,0.0,0.0,2.0,2.0,303.5502730053849,1.0,1.0,part_1,,,,,,,,,,,,,white,flipped triangle
97.0,6.0,2.0,1.0,1.0,1.0,404.795381007716,1.0,1.0,part_1,,,,,,,,,,,,,green,circle
0.0,2.0,0.0,0.0,4.0,4.0,334.3658469966613,1.0,1.0,part_1,,,,,,,,,,,,,magenta,hexagon
183.0,3.0,3.0,0.0,4.0,4.0,331.2500240281224,1.0,1.0,part_1,,,,,,,,,,,,,yellow,triangle
47.0,1.0,1.0,0.0,2.0,2.0,311.1301150056533,1.0,1.0,part_1,,,,,,,,,,,,,blue,square
120.0,6.0,2.0,1.0,3.0,3.0,279.0735760354437,1.0,1.0,part_1,,,,,,,,,,,,,green,circle
415.0,8.0,4.0,1.0,3.0,3.0,332.1480239974335,1.0,1.0,part_1,,,,,,,,,,,,,cyan,diamond
216.0,7.0,3.0,1.0,3.0,3.0,398.4894859604537,1.0,1.0,part_1,,,,,,,,,,,,,gray,cross
223.0,3.0,3.0,0.0,1.0,1.0,339.3479739897884,1.0,1.0,part_1,,,,,,,,,,,,,yellow,triangle
224.0,3.0,3.0,0.0,1.0,1.0,304.44961099419737,1.0,1.0,part_1,,,,,,,,,,,,,yellow,triangle
379.0,4.0,4.0,0.0,3.0,3.0,299.9883129959926,1.0,1.0,part_1,,,,,,,,,,,,,white,flipped triangle
74.0,1.0,1.0,0.0,1.0,1.0,353.2229900010861,1.0,1.0,part_1,,,,,,,,,,,,,blue,square
119.0,6.0,2.0,1.0,2.0,2.0,328.069137991406,1.0,1.0,part_1,,,,,,,,,,,,,green,circle
95.0,2.0,2.0,0.0,4.0,4.0,317.8986190469004,1.0,1.0,part_1,,,,,,,,,,,,,magenta,hexagon
58.0,5.0,1.0,1.0,2.0,2.0,304.4208629871718,1.0,1.0,part_1,,,,,,,,,,,,,orange,I
27.0,1.0,1.0,0.0,3.0,3.0,274.7722679632716,1.0,1.0,part_1,,,,,,,,,,,,,blue,square
104.0,2.0,2.0,0.0,3.0,3.0,311.6393609670922,1.0,1.0,part_1,,,,,,,,,,,,,magenta,hexagon
27.0,5.0,1.0,1.0,4.0,4.0,365.0770169915631,1.0,1.0,part_1,,,,,,,,,,,,,orange,I
403.0,8.0,4.0,1.0,2.0,2.0,292.1163910068571,1.0,1.0,part_1,,,,,,,,,,,,,cyan,diamond
0.0,6.0,0.0,1.0,2.0,2.0,327.3946479894221,1.0,1.0,part_1,,,,,,,,,,,,,green,circle
56.0,1.0,1.0,0.0,4.0,4.0,332.1867720223963,1.0,1.0,part_1,,,,,,,,,,,,,blue,square
199.0,7.0,3.0,1.0,3.0,3.0,307.1522990358062,1.0,1.0,part_1,,,,,,,,,,,,,gray,cross
0.0,3.0,0.0,0.0,1.0,1.0,317.9362340015359,1.0,1.0,part_1,,,,,,,,,,,,,yellow,triangle
378.0,8.0,4.0,1.0,2.0,2.0,306.0036450042389,1.0,1.0,part_1,,,,,,,,,,,,,cyan,diamond
398.0,8.0,4.0,1.0,2.0,2.0,357.4537379899993,1.0,1.0,part_1,,,,,,,,,,,,,cyan,diamond
183.0,7.0,3.0,1.0,4.0,4.0,340.308103011921,1.0,1.0,part_1,,,,,,,,,,,,,gray,cross
397.0,8.0,4.0,1.0,4.0,4.0,409.5477790106088,1.0,1.0,part_1,,,,,,,,,,,,,cyan,diamond
63.0,5.0,1.0,1.0,3.0,3.0,303.4678900148719,1.0,1.0,part_1,,,,,,,,,,,,,orange,I
388.0,8.0,4.0,1.0,1.0,1.0,311.697874974925,1.0,1.0,part_1,,,,,,,,,,,,,cyan,diamond
220.0,7.0,3.0,1.0,1.0,1.0,360.6182010262273,1.0,1.0,part_1,,,,,,,,,,,,,gray,cross
98.0,2.0,2.0,0.0,2.0,2.0,308.0885669915005,1.0,1.0,part_1,,,,,,,,,,,,,magenta,hexagon
0.0,6.0,0.0,1.0,1.0,1.0,303.6507799988612,1.0,1.0,part_1,,,,,,,,,,,,,green,circle
181.0,3.0,3.0,0.0,4.0,4.0,451.6276849899441,1.0,1.0,part_1,,,,,,,,,,,,,yellow,triangle
112.0,2.0,2.0,0.0,2.0,2.0,311.738440010231,1.0,1.0,part_1,,,,,,,,,,,,,magenta,hexagon
0.0,1.0,0.0,0.0,2.0,2.0,382.8658070415258,1.0,1.0,part_1,,,,,,,,,,,,,blue,square
382.0,4.0,4.0,0.0,1.0,1.0,384.7723350045271,1.0,1.0,part_1,,,,,,,,,,,,,white,flipped triangle
76.0,6.0,2.0,1.0,1.0,1.0,336.5466649993323,1.0,1.0,part_1,,,,,,,,,,,,,green,circle
377.0,8.0,4.0,1.0,3.0,3.0,283.0781690427102,1.0,1.0,part_1,,,,,,,,,,,,,cyan,diamond
117.0,6.0,2.0,1.0,4.0,4.0,471.10416798386717,2.0,1.0,part_1,,,,,,,,,,,,,green,circle
376.0,4.0,4.0,0.0,3.0,3.0,298.8523910171352,2.0,1.0,part_1,,,,,,,,,,,,,white,flipped triangle
0.0,1.0,0.0,0.0,3.0,3.0,317.8786669741384,2.0,1.0,part_1,,,,,,,,,,,,,blue,square
106.0,6.0,2.0,1.0,1.0,1.0,355.5711939698085,2.0,1.0,part_1,,,,,,,,,,,,,green,circle
0.0,1.0,0.0,0.0,3.0,3.0,352.0477059646509,2.0,1.0,part_1,,,,,,,,,,,,,blue,square
407.0,4.0,4.0,0.0,2.0,2.0,316.2314430228434,2.0,1.0,part_1,,,,,,,,,,,,,white,flipped triangle
74.0,5.0,1.0,1.0,4.0,4.0,299.4863129570149,2.0,1.0,part_1,,,,,,,,,,,,,orange,I
210.0,7.0,3.0,1.0,3.0,3.0,302.0194300333969,2.0,1.0,part_1,,,,,,,,,,,,,gray,cross
109.0,2.0,2.0,0.0,2.0,2.0,314.5786499953829,2.0,1.0,part_1,,,,,,,,,,,,,magenta,hexagon
0.0,6.0,0.0,1.0,4.0,4.0,319.515579030849,2.0,1.0,part_1,,,,,,,,,,,,,green,circle
0.0,7.0,0.0,1.0,2.0,2.0,331.5989979892038,2.0,1.0,part_1,,,,,,,,,,,,,gray,cross
0.0,6.0,0.0,1.0,2.0,2.0,311.7904610116966,2.0,1.0,part_1,,,,,,,,,,,,,green,circle
26.0,1.0,1.0,0.0,3.0,3.0,311.370165029075,2.0,1.0,part_1,,,,,,,,,,,,,blue,square
31.0,1.0,1.0,0.0,3.0,3.0,332.1525680366903,2.0,1.0,part_1,,,,,,,,,,,,,blue,square
87.0,2.0,2.0,0.0,3.0,3.0,327.668457000982,2.0,1.0,part_1,,,,,,,,,,,,,magenta,hexagon
49.0,5.0,1.0,1.0,2.0,2.0,458.6889980128035,2.0,1.0,part_1,,,,,,,,,,,,,orange,I
125.0,6.0,2.0,1.0,3.0,3.0,336.0447369632311,2.0,1.0,part_1,,,,,,,,,,,,,green,circle
181.0,7.0,3.0,1.0,2.0,2.0,327.6254449738189,2.0,1.0,part_1,,,,,,,,,,,,,gray,cross
397.0,8.0,4.0,1.0,3.0,3.0,298.8506539841182,2.0,1.0,part_1,,,,,,,,,,,,,cyan,diamond
0.0,7.0,0.0,1.0,2.0,2.0,344.7198820067569,2.0,1.0,part_1,,,,,,,,,,,,,gray,cross
86.0,2.0,2.0,0.0,3.0,3.0,258.6414010147564,2.0,1.0,part_1,,,,,,,,,,,,,magenta,hexagon
380.0,4.0,4.0,0.0,2.0,2.0,406.5628300304524,2.0,1.0,part_1,,,,,,,,,,,,,white,flipped triangle
195.0,7.0,3.0,1.0,3.0,3.0,275.5430620163679,2.0,1.0,part_1,,,,,,,,,,,,,gray,cross
417.0,8.0,4.0,1.0,2.0,2.0,297.9468730045482,2.0,1.0,part_1,,,,,,,,,,,,,cyan,diamond
0.0,1.0,0.0,0.0,1.0,1.0,336.6998410201631,2.0,1.0,part_1,,,,,,,,,,,,,blue,square
399.0,8.0,4.0,1.0,1.0,1.0,299.3647800176404,2.0,1.0,part_1,,,,,,,,,,,,,cyan,diamond
124.0,2.0,2.0,0.0,2.0,2.0,319.3798649590462,2.0,1.0,part_1,,,,,,,,,,,,,magenta,hexagon
105.0,2.0,2.0,0.0,2.0,2.0,299.1035869927145,2.0,1.0,part_1,,,,,,,,,,,,,magenta,hexagon
117.0,2.0,2.0,0.0,3.0,3.0,283.5164340212941,2.0,1.0,part_1,,,,,,,,,,,,,magenta,hexagon
0.0,1.0,0.0,0.0,1.0,1.0,319.8471289942972,2.0,1.0,part_1,,,,,,,,,,,,,blue,square
419.0,4.0,4.0,0.0,2.0,2.0,291.5645890170708,2.0,1.0,part_1,,,,,,,,,,,,,white,flipped triangle
0.0,1.0,0.0,0.0,4.0,4.0,318.5498490347527,2.0,1.0,part_1,,,,,,,,,,,,,blue,square
78.0,2.0,2.0,0.0,3.0,3.0,253.3780259545892,2.0,1.0,part_1,,,,,,,,,,,,,magenta,hexagon
0.0,6.0,0.0,1.0,3.0,3.0,392.598200996872,2.0,1.0,part_1,,,,,,,,,,,,,green,circle
125.0,2.0,2.0,0.0,3.0,3.0,295.0904739554971,2.0,1.0,part_1,,,,,,,,,,,,,magenta,hexagon
0.0,8.0,0.0,1.0,2.0,2.0,315.2254529995844,2.0,1.0,part_1,,,,,,,,,,,,,cyan,diamond
37.0,5.0,1.0,1.0,2.0,2.0,361.9590930175036,2.0,2.0,part_1,,,,,,,,,,,,,orange,I
402.0,4.0,4.0,0.0,1.0,1.0,377.1895359968766,2.0,1.0,part_1,,,,,,,,,,,,,white,flipped triangle
34.0,1.0,1.0,0.0,3.0,3.0,315.3317589894868,2.0,1.0,part_1,,,,,,,,,,,,,blue,square
405.0,4.0,4.0,0.0,3.0,3.0,400.9259599843062,2.0,1.0,part_1,,,,,,,,,,,,,white,flipped triangle
0.0,5.0,0.0,1.0,2.0,2.0,327.3806520155631,2.0,1.0,part_1,,,,,,,,,,,,,orange,I
0.0,2.0,0.0,0.0,1.0,1.0,393.2269159704447,2.0,1.0,part_1,,,,,,,,,,,,,magenta,hexagon
0.0,6.0,0.0,1.0,4.0,4.0,437.7162970486097,2.0,1.0,part_1,,,,,,,,,,,,,green,circle
209.0,3.0,3.0,0.0,4.0,4.0,412.9873620113358,2.0,1.0,part_1,,,,,,,,,,,,,yellow,triangle
0.0,2.0,0.0,0.0,3.0,3.0,344.3820849643089,2.0,1.0,part_1,,,,,,,,,,,,,magenta,hexagon
420.0,4.0,4.0,0.0,4.0,4.0,349.1170989582315,2.0,1.0,part_1,,,,,,,,,,,,,white,flipped triangle
0.0,7.0,0.0,1.0,4.0,4.0,368.8098799902946,2.0,1.0,part_1,,,,,,,,,,,,,gray,cross
416.0,4.0,4.0,0.0,4.0,4.0,329.1437549632974,2.0,1.0,part_1,,,,,,,,,,,,,white,flipped triangle
79.0,2.0,2.0,0.0,4.0,4.0,363.71574702207,2.0,1.0,part_1,,,,,,,,,,,,,magenta,hexagon
200.0,3.0,3.0,0.0,2.0,2.0,336.4186839899048,2.0,1.0,part_1,,,,,,,,,,,,,yellow,triangle
79.0,6.0,2.0,1.0,1.0,1.0,357.7036620117724,2.0,1.0,part_1,,,,,,,,,,,,,green,circle
185.0,7.0,3.0,1.0,3.0,3.0,323.9468440297059,2.0,1.0,part_1,,,,,,,,,,,,,gray,cross
210.0,3.0,3.0,0.0,1.0,1.0,368.8304859679192,2.0,1.0,part_1,,,,,,,,,,,,,yellow,triangle
0.0,8.0,0.0,1.0,3.0,3.0,324.404229002539,2.0,1.0,part_1,,,,,,,,,,,,,cyan,diamond
111.0,6.0,2.0,1.0,1.0,1.0,432.4355350108817,2.0,1.0,part_1,,,,,,,,,,,,,green,circle
119.0,2.0,2.0,0.0,1.0,1.0,356.8688299856148,2.0,1.0,part_1,,,,,,,,,,,,,magenta,hexagon
32.0,5.0,1.0,1.0,3.0,3.0,320.1897540129721,2.0,1.0,part_1,,,,,,,,,,,,,orange,I
194.0,3.0,3.0,0.0,3.0,3.0,324.2825570050627,2.0,1.0,part_1,,,,,,,,,,,,,yellow,triangle
27.0,5.0,1.0,1.0,4.0,4.0,377.6712800026871,2.0,1.0,part_1,,,,,,,,,,,,,orange,I
184.0,3.0,3.0,0.0,1.0,1.0,368.5472999932244,2.0,1.0,part_1,,,,,,,,,,,,,yellow,triangle
0.0,3.0,0.0,0.0,4.0,4.0,306.4857950084843,2.0,1.0,part_1,,,,,,,,,,,,,yellow,triangle
26.0,1.0,1.0,0.0,1.0,1.0,351.6050920006819,2.0,1.0,part_1,,,,,,,,,,,,,blue,square
397.0,4.0,4.0,0.0,4.0,4.0,379.8457680386491,2.0,1.0,part_1,,,,,,,,,,,,,white,flipped triangle
219.0,3.0,3.0,0.0,4.0,4.0,347.5082700024359,2.0,1.0,part_1,,,,,,,,,,,,,yellow,triangle
408.0,4.0,4.0,0.0,2.0,2.0,376.6896580345928,2.0,1.0,part_1,,,,,,,,,,,,,white,flipped triangle
26.0,5.0,1.0,1.0,3.0,3.0,307.3617249610834,2.0,1.0,part_1,,,,,,,,,,,,,orange,I
203.0,7.0,3.0,1.0,1.0,1.0,536.9168610195629,2.0,1.0,part_1,,,,,,,,,,,,,gray,cross
380.0,8.0,4.0,1.0,3.0,3.0,347.2639790270477,2.0,1.0,part_1,,,,,,,,,,,,,cyan,diamond
216.0,7.0,3.0,1.0,3.0,3.0,359.9077860126272,2.0,1.0,part_1,,,,,,,,,,,,,gray,cross
64.0,5.0,1.0,1.0,1.0,1.0,335.6990789761767,2.0,1.0,part_1,,,,,,,,,,,,,orange,I
81.0,6.0,2.0,1.0,2.0,2.0,324.0774970036,2.0,1.0,part_1,,,,,,,,,,,,,green,circle
403.0,4.0,4.0,0.0,1.0,1.0,360.2331739966757,2.0,1.0,part_1,,,,,,,,,,,,,white,flipped triangle
204.0,7.0,3.0,1.0,1.0,1.0,381.7024820018559,2.0,1.0,part_1,,,,,,,,,,,,,gray,cross
0.0,1.0,0.0,0.0,4.0,4.0,319.6269040345214,2.0,1.0,part_1,,,,,,,,,,,,,blue,square
419.0,8.0,4.0,1.0,2.0,2.0,311.5591749665327,2.0,1.0,part_1,,,,,,,,,,,,,cyan,diamond
0.0,4.0,0.0,0.0,2.0,2.0,328.4144930075854,2.0,1.0,part_1,,,,,,,,,,,,,white,flipped triangle
0.0,7.0,0.0,1.0,3.0,3.0,279.182430007495,2.0,1.0,part_1,,,,,,,,,,,,,gray,cross
65.0,5.0,1.0,1.0,4.0,4.0,333.811086951755,2.0,1.0,part_1,,,,,,,,,,,,,orange,I
420.0,8.0,4.0,1.0,2.0,2.0,343.3339620241895,2.0,1.0,part_1,,,,,,,,,,,,,cyan,diamond
117.0,2.0,2.0,0.0,2.0,2.0,315.4956939979456,2.0,1.0,part_1,,,,,,,,,,,,,magenta,hexagon
0.0,3.0,0.0,0.0,1.0,1.0,291.5764109930023,2.0,1.0,part_1,,,,,,,,,,,,,yellow,triangle
43.0,5.0,1.0,1.0,4.0,4.0,336.8710100185126,2.0,1.0,part_1,,,,,,,,,,,,,orange,I
0.0,3.0,0.0,0.0,1.0,1.0,353.5848190076649,2.0,1.0,part_1,,,,,,,,,,,,,yellow,triangle
89.0,6.0,2.0,1.0,1.0,1.0,337.3019550344907,2.0,1.0,part_1,,,,,,,,,,,,,green,circle
58.0,5.0,1.0,1.0,3.0,3.0,306.9475929951295,2.0,1.0,part_1,,,,,,,,,,,,,orange,I
111.0,6.0,2.0,1.0,3.0,3.0,293.3367809746414,2.0,2.0,part_1,,,,,,,,,,,,,green,circle
405.0,8.0,4.0,1.0,4.0,4.0,403.379584022332,2.0,1.0,part_1,,,,,,,,,,,,,cyan,diamond
382.0,4.0,4.0,0.0,2.0,2.0,302.3247629753314,2.0,1.0,part_1,,,,,,,,,,,,,white,flipped triangle
56.0,5.0,1.0,1.0,2.0,2.0,338.5689889546484,2.0,1.0,part_1,,,,,,,,,,,,,orange,I
391.0,8.0,4.0,1.0,1.0,1.0,328.8974940078333,2.0,1.0,part_1,,,,,,,,,,,,,cyan,diamond
195.0,3.0,3.0,0.0,1.0,1.0,339.9985249852761,2.0,1.0,part_1,,,,,,,,,,,,,yellow,triangle
415.0,4.0,4.0,0.0,4.0,4.0,316.4677559980191,2.0,1.0,part_1,,,,,,,,,,,,,white,flipped triangle
383.0,4.0,4.0,0.0,4.0,4.0,344.9803719995543,2.0,1.0,part_1,,,,,,,,,,,,,white,flipped triangle
377.0,4.0,4.0,0.0,1.0,1.0,332.3253699927591,2.0,1.0,part_1,,,,,,,,,,,,,white,flipped triangle
379.0,8.0,4.0,1.0,1.0,1.0,370.2187669696286,2.0,1.0,part_1,,,,,,,,,,,,,cyan,diamond
26.0,5.0,1.0,1.0,2.0,2.0,332.7806790475733,2.0,1.0,part_1,,,,,,,,,,,,,orange,I
413.0,4.0,4.0,0.0,3.0,3.0,291.0470709903165,2.0,1.0,part_1,,,,,,,,,,,,,white,flipped triangle
209.0,7.0,3.0,1.0,4.0,4.0,349.4813099969178,2.0,1.0,part_1,,,,,,,,,,,,,gray,cross
402.0,8.0,4.0,1.0,2.0,2.0,275.8096620091237,2.0,1.0,part_1,,,,,,,,,,,,,cyan,diamond
189.0,7.0,3.0,1.0,1.0,1.0,320.8071669796482,2.0,1.0,part_1,,,,,,,,,,,,,gray,cross
416.0,4.0,4.0,0.0,1.0,1.0,384.7238990128971,3.0,1.0,part_1,,,,,,,,,,,,,white,flipped triangle
410.0,4.0,4.0,0.0,3.0,3.0,250.5374579923227,3.0,1.0,part_1,,,,,,,,,,,,,white,flipped triangle
0.0,1.0,0.0,0.0,2.0,2.0,297.5292399642057,3.0,1.0,part_1,,,,,,,,,,,,,blue,square
105.0,2.0,2.0,0.0,4.0,4.0,260.8762930030934,3.0,1.0,part_1,,,,,,,,,,,,,magenta,hexagon
391.0,4.0,4.0,0.0,1.0,1.0,321.7336949892342,3.0,1.0,part_1,,,,,,,,,,,,,white,flipped triangle
413.0,4.0,4.0,0.0,4.0,4.0,301.2489930260926,3.0,1.0,part_1,,,,,,,,,,,,,white,flipped triangle
218.0,7.0,3.0,1.0,1.0,1.0,321.8258150154724,3.0,1.0,part_1,,,,,,,,,,,,,gray,cross
77.0,2.0,2.0,0.0,2.0,2.0,330.2493710070848,3.0,1.0,part_1,,,,,,,,,,,,,magenta,hexagon
0.0,5.0,0.0,1.0,1.0,1.0,334.2387630254961,3.0,1.0,part_1,,,,,,,,,,,,,orange,I
55.0,5.0,1.0,1.0,3.0,3.0,369.981994968839,3.0,1.0,part_1,,,,,,,,,,,,,orange,I
87.0,2.0,2.0,0.0,1.0,1.0,318.4525329852476,3.0,1.0,part_1,,,,,,,,,,,,,magenta,hexagon
177.0,3.0,3.0,0.0,4.0,4.0,348.8224610337056,3.0,1.0,part_1,,,,,,,,,,,,,yellow,triangle
117.0,6.0,2.0,1.0,1.0,1.0,311.8783609825186,3.0,1.0,part_1,,,,,,,,,,,,,green,circle
0.0,8.0,0.0,1.0,1.0,1.0,339.2558199702762,3.0,1.0,part_1,,,,,,,,,,,,,cyan,diamond
191.0,3.0,3.0,0.0,4.0,4.0,282.1923110168427,3.0,1.0,part_1,,,,,,,,,,,,,yellow,triangle
0.0,8.0,0.0,1.0,3.0,3.0,291.8661329895258,3.0,1.0,part_1,,,,,,,,,,,,,cyan,diamond
53.0,1.0,1.0,0.0,3.0,3.0,291.6412419872358,3.0,1.0,part_1,,,,,,,,,,,,,blue,square
97.0,2.0,2.0,0.0,2.0,2.0,328.9995759841986,3.0,1.0,part_1,,,,,,,,,,,,,magenta,hexagon
177.0,3.0,3.0,0.0,3.0,3.0,273.6860809964128,3.0,1.0,part_1,,,,,,,,,,,,,yellow,triangle
71.0,1.0,1.0,0.0,3.0,3.0,311.2814530031755,3.0,1.0,part_1,,,,,,,,,,,,,blue,square
184.0,3.0,3.0,0.0,2.0,2.0,299.162908049766,3.0,1.0,part_1,,,,,,,,,,,,,yellow,triangle
375.0,8.0,4.0,1.0,2.0,2.0,336.1566569656133,3.0,1.0,part_1,,,,,,,,,,,,,cyan,diamond
216.0,3.0,3.0,0.0,4.0,4.0,423.7288439762778,3.0,1.0,part_1,,,,,,,,,,,,,yellow,triangle
73.0,5.0,1.0,1.0,2.0,2.0,324.4333830079995,3.0,1.0,part_1,,,,,,,,,,,,,orange,I
55.0,1.0,1.0,0.0,4.0,4.0,319.9531310237944,3.0,1.0,part_1,,,,,,,,,,,,,blue,square
50.0,1.0,1.0,0.0,2.0,2.0,282.8155069728382,3.0,1.0,part_1,,,,,,,,,,,,,blue,square
86.0,6.0,2.0,1.0,4.0,4.0,403.0415199813433,3.0,1.0,part_1,,,,,,,,,,,,,green,circle
177.0,3.0,3.0,0.0,1.0,1.0,315.9111369750462,3.0,1.0,part_1,,,,,,,,,,,,,yellow,triangle
224.0,7.0,3.0,1.0,4.0,4.0,332.7127019874751,3.0,1.0,part_1,,,,,,,,,,,,,gray,cross
0.0,4.0,0.0,0.0,1.0,1.0,318.5083629796281,3.0,1.0,part_1,,,,,,,,,,,,,white,flipped triangle
44.0,1.0,1.0,0.0,3.0,3.0,332.6933889766224,3.0,1.0,part_1,,,,,,,,,,,,,blue,square
32.0,1.0,1.0,0.0,4.0,4.0,303.8874060148373,3.0,1.0,part_1,,,,,,,,,,,,,blue,square
0.0,6.0,0.0,1.0,1.0,1.0,292.2005180153064,3.0,1.0,part_1,,,,,,,,,,,,,green,circle
216.0,3.0,3.0,0.0,3.0,3.0,388.4236619924195,3.0,1.0,part_1,,,,,,,,,,,,,yellow,triangle
378.0,4.0,4.0,0.0,1.0,1.0,349.605317984242,3.0,1.0,part_1,,,,,,,,,,,,,white,flipped triangle
403.0,4.0,4.0,0.0,3.0,3.0,297.7299760095775,3.0,1.0,part_1,,,,,,,,,,,,,white,flipped triangle
212.0,3.0,3.0,0.0,3.0,3.0,423.102758009918,3.0,1.0,part_1,,,,,,,,,,,,,yellow,triangle
0.0,8.0,0.0,1.0,1.0,1.0,358.0915759666823,3.0,1.0,part_1,,,,,,,,,,,,,cyan,diamond
97.0,6.0,2.0,1.0,3.0,3.0,320.3981789993122,3.0,1.0,part_1,,,,,,,,,,,,,green,circle
98.0,6.0,2.0,1.0,4.0,4.0,358.2403549808077,3.0,1.0,part_1,,,,,,,,,,,,,green,circle
413.0,4.0,4.0,0.0,2.0,2.0,305.96061097458,3.0,1.0,part_1,,,,,,,,,,,,,white,flipped triangle
407.0,4.0,4.0,0.0,1.0,1.0,400.2312590018846,3.0,1.0,part_1,,,,,,,,,,,,,white,flipped triangle
117.0,6.0,2.0,1.0,1.0,1.0,349.6066490188241,3.0,1.0,part_1,,,,,,,,,,,,,green,circle
77.0,6.0,2.0,1.0,2.0,2.0,385.3245200007222,3.0,1.0,part_1,,,,,,,,,,,,,green,circle
123.0,6.0,2.0,1.0,4.0,4.0,382.3067399789579,3.0,1.0,part_1,,,,,,,,,,,,,green,circle
104.0,6.0,2.0,1.0,3.0,3.0,284.1216070228256,3.0,1.0,part_1,,,,,,,,,,,,,green,circle
0.0,3.0,0.0,0.0,4.0,4.0,389.3765590037219,3.0,1.0,part_1,,,,,,,,,,,,,yellow,triangle
189.0,3.0,3.0,0.0,4.0,4.0,394.4844930083491,3.0,1.0,part_1,,,,,,,,,,,,,yellow,triangle
180.0,7.0,3.0,1.0,3.0,3.0,329.6547009958885,3.0,1.0,part_1,,,,,,,,,,,,,gray,cross
199.0,3.0,3.0,0.0,3.0,3.0,421.8903639703057,3.0,1.0,part_1,,,,,,,,,,,,,yellow,triangle
36.0,1.0,1.0,0.0,1.0,1.0,347.2254700027406,3.0,1.0,part_1,,,,,,,,,,,,,blue,square
46.0,1.0,1.0,0.0,4.0,4.0,358.8289319886826,3.0,1.0,part_1,,,,,,,,,,,,,blue,square
413.0,8.0,4.0,1.0,3.0,3.0,275.70930699585,3.0,1.0,part_1,,,,,,,,,,,,,cyan,diamond
46.0,1.0,1.0,0.0,1.0,1.0,317.6329099806025,3.0,1.0,part_1,,,,,,,,,,,,,blue,square
111.0,2.0,2.0,0.0,1.0,1.0,324.6193689992651,3.0,1.0,part_1,,,,,,,,,,,,,magenta,hexagon
383.0,8.0,4.0,1.0,3.0,3.0,283.267060003709,3.0,1.0,part_1,,,,,,,,,,,,,cyan,diamond
219.0,7.0,3.0,1.0,2.0,2.0,334.0223919949494,3.0,1.0,part_1,,,,,,,,,,,,,gray,cross
53.0,1.0,1.0,0.0,2.0,2.0,337.1607310255058,3.0,1.0,part_1,,,,,,,,,,,,,blue,square
189.0,3.0,3.0,0.0,3.0,3.0,303.3102640183642,3.0,1.0,part_1,,,,,,,,,,,,,yellow,triangle
0.0,5.0,0.0,1.0,2.0,2.0,321.8912910087965,3.0,1.0,part_1,,,,,,,,,,,,,orange,I
0.0,3.0,0.0,0.0,4.0,4.0,415.302686044015,3.0,1.0,part_1,,,,,,,,,,,,,yellow,triangle
391.0,8.0,4.0,1.0,4.0,4.0,454.5543220010586,3.0,1.0,part_1,,,,,,,,,,,,,cyan,diamond
95.0,6.0,2.0,1.0,2.0,2.0,304.4981910497881,3.0,1.0,part_1,,,,,,,,,,,,,green,circle
189.0,7.0,3.0,1.0,4.0,4.0,405.7139619835652,3.0,1.0,part_1,,,,,,,,,,,,,gray,cross
0.0,8.0,0.0,1.0,2.0,2.0,353.3019699971191,3.0,1.0,part_1,,,,,,,,,,,,,cyan,diamond
0.0,5.0,0.0,1.0,3.0,3.0,303.3220259821974,3.0,1.0,part_1,,,,,,,,,,,,,orange,I
27.0,1.0,1.0,0.0,2.0,2.0,366.8667629826814,3.0,1.0,part_1,,,,,,,,,,,,,blue,square
104.0,2.0,2.0,0.0,1.0,1.0,312.5516889849677,3.0,1.0,part_1,,,,,,,,,,,,,magenta,hexagon
60.0,1.0,1.0,0.0,4.0,4.0,365.4698730097152,3.0,1.0,part_1,,,,,,,,,,,,,blue,square
198.0,3.0,3.0,0.0,3.0,3.0,298.7766720470972,3.0,1.0,part_1,,,,,,,,,,,,,yellow,triangle
410.0,8.0,4.0,1.0,1.0,1.0,336.6660120082088,3.0,1.0,part_1,,,,,,,,,,,,,cyan,diamond
71.0,5.0,1.0,1.0,4.0,4.0,457.0875010103918,3.0,2.0,part_1,,,,,,,,,,,,,orange,I
0.0,1.0,0.0,0.0,2.0,2.0,307.3245160048827,3.0,1.0,part_1,,,,,,,,,,,,,blue,square
85.0,2.0,2.0,0.0,4.0,4.0,402.2433359641582,3.0,1.0,part_1,,,,,,,,,,,,,magenta,hexagon
105.0,6.0,2.0,1.0,4.0,4.0,541.6503919987008,3.0,1.0,part_1,,,,,,,,,,,,,green,circle
0.0,5.0,0.0,1.0,1.0,1.0,340.7570279669016,3.0,1.0,part_1,,,,,,,,,,,,,orange,I
197.0,3.0,3.0,0.0,4.0,4.0,318.512859987095,3.0,1.0,part_1,,,,,,,,,,,,,yellow,triangle
208.0,7.0,3.0,1.0,2.0,2.0,380.343600991182,3.0,1.0,part_1,,,,,,,,,,,,,gray,cross
397.0,4.0,4.0,0.0,3.0,3.0,258.5091619985178,3.0,1.0,part_1,,,,,,,,,,,,,white,flipped triangle
74.0,5.0,1.0,1.0,1.0,1.0,357.0602579857223,3.0,1.0,part_1,,,,,,,,,,,,,orange,I
224.0,3.0,3.0,0.0,3.0,3.0,354.176930966787,3.0,1.0,part_1,,,,,,,,,,,,,yellow,triangle
0.0,3.0,0.0,0.0,4.0,4.0,321.5892469743266,3.0,1.0,part_1,,,,,,,,,,,,,yellow,triangle
185.0,7.0,3.0,1.0,1.0,1.0,357.2712629684247,3.0,1.0,part_1,,,,,,,,,,,,,gray,cross
41.0,5.0,1.0,1.0,1.0,1.0,395.3279159613885,3.0,1.0,part_1,,,,,,,,,,,,,orange,I
0.0,3.0,0.0,0.0,1.0,1.0,396.8582890229299,3.0,1.0,part_1,,,,,,,,,,,,,yellow,triangle
111.0,2.0,2.0,0.0,1.0,1.0,403.0175249790773,3.0,1.0,part_1,,,,,,,,,,,,,magenta,hexagon
64.0,1.0,1.0,0.0,1.0,1.0,358.2546280231327,3.0,1.0,part_1,,,,,,,,,,,,,blue,square
0.0,5.0,0.0,1.0,4.0,4.0,354.7831329633482,3.0,1.0,part_1,,,,,,,,,,,,,orange,I
0.0,1.0,0.0,0.0,1.0,1.0,328.6045800196007,3.0,1.0,part_1,,,,,,,,,,,,,blue,square
104.0,6.0,2.0,1.0,4.0,4.0,333.0274189938791,3.0,1.0,part_1,,,,,,,,,,,,,green,circle
0.0,7.0,0.0,1.0,2.0,2.0,320.0521760154515,3.0,1.0,part_1,,,,,,,,,,,,,gray,cross
413.0,8.0,4.0,1.0,1.0,1.0,336.9278819882311,3.0,1.0,part_1,,,,,,,,,,,,,cyan,diamond
185.0,3.0,3.0,0.0,2.0,2.0,340.7717659720219,3.0,1.0,part_1,,,,,,,,,,,,,yellow,triangle
416.0,8.0,4.0,1.0,3.0,3.0,285.9531859867275,3.0,1.0,part_1,,,,,,,,,,,,,cyan,diamond
210.0,7.0,3.0,1.0,4.0,4.0,381.3365300302394,3.0,1.0,part_1,,,,,,,,,,,,,gray,cross
0.0,7.0,0.0,1.0,1.0,1.0,345.6531469710171,3.0,1.0,part_1,,,,,,,,,,,,,gray,cross
49.0,1.0,1.0,0.0,2.0,2.0,331.8341749836691,3.0,1.0,part_1,,,,,,,,,,,,,blue,square
218.0,3.0,3.0,0.0,4.0,4.0,345.0692149926908,3.0,1.0,part_1,,,,,,,,,,,,,yellow,triangle
382.0,8.0,4.0,1.0,3.0,3.0,269.5854610064998,3.0,1.0,part_1,,,,,,,,,,,,,cyan,diamond
0.0,2.0,0.0,0.0,1.0,1.0,323.3762989984825,3.0,1.0,part_1,,,,,,,,,,,,,magenta,hexagon
0.0,4.0,0.0,0.0,4.0,4.0,373.3546799630858,4.0,1.0,part_1,,,,,,,,,,,,,white,flipped triangle
407.0,8.0,4.0,1.0,1.0,1.0,304.1866419953294,4.0,1.0,part_1,,,,,,,,,,,,,cyan,diamond
0.0,4.0,0.0,0.0,2.0,2.0,304.360683017876,4.0,1.0,part_1,,,,,,,,,,,,,white,flipped triangle
117.0,2.0,2.0,0.0,4.0,4.0,357.9225119901821,4.0,1.0,part_1,,,,,,,,,,,,,magenta,hexagon
31.0,5.0,1.0,1.0,4.0,4.0,422.8158760233782,4.0,1.0,part_1,,,,,,,,,,,,,orange,I
213.0,3.0,3.0,0.0,3.0,3.0,339.2570479772985,4.0,1.0,part_1,,,,,,,,,,,,,yellow,triangle
388.0,4.0,4.0,0.0,4.0,4.0,339.7876830422319,4.0,1.0,part_1,,,,,,,,,,,,,white,flipped triangle
409.0,4.0,4.0,0.0,1.0,1.0,327.7736990130506,4.0,1.0,part_1,,,,,,,,,,,,,white,flipped triangle
106.0,2.0,2.0,0.0,1.0,1.0,433.6298069683835,4.0,1.0,part_1,,,,,,,,,,,,,magenta,hexagon
0.0,2.0,0.0,0.0,4.0,4.0,382.015825016424,4.0,1.0,part_1,,,,,,,,,,,,,magenta,hexagon
376.0,8.0,4.0,1.0,4.0,4.0,332.3349360143766,4.0,1.0,part_1,,,,,,,,,,,,,cyan,diamond
26.0,1.0,1.0,0.0,2.0,2.0,394.2217920557596,4.0,1.0,part_1,,,,,,,,,,,,,blue,square
204.0,3.0,3.0,0.0,2.0,2.0,359.0895740198903,4.0,1.0,part_1,,,,,,,,,,,,,yellow,triangle
0.0,4.0,0.0,0.0,3.0,3.0,298.6802039667964,4.0,1.0,part_1,,,,,,,,,,,,,white,flipped triangle
414.0,4.0,4.0,0.0,4.0,4.0,344.1213199985213,4.0,1.0,part_1,,,,,,,,,,,,,white,flipped triangle
37.0,1.0,1.0,0.0,2.0,2.0,289.9059599731117,4.0,1.0,part_1,,,,,,,,,,,,,blue,square
63.0,1.0,1.0,0.0,2.0,2.0,320.5168370041065,4.0,1.0,part_1,,,,,,,,,,,,,blue,square
200.0,7.0,3.0,1.0,4.0,4.0,357.118128973525,4.0,1.0,part_1,,,,,,,,,,,,,gray,cross
74.0,1.0,1.0,0.0,4.0,4.0,385.8153129694983,4.0,1.0,part_1,,,,,,,,,,,,,blue,square
29.0,1.0,1.0,0.0,1.0,1.0,413.7254520319402,4.0,1.0,part_1,,,,,,,,,,,,,blue,square
65.0,1.0,1.0,0.0,1.0,1.0,362.2796720010228,4.0,1.0,part_1,,,,,,,,,,,,,blue,square
0.0,6.0,0.0,1.0,4.0,4.0,378.0699840281158,4.0,1.0,part_1,,,,,,,,,,,,,green,circle
0.0,2.0,0.0,0.0,4.0,4.0,341.1291139782406,4.0,1.0,part_1,,,,,,,,,,,,,magenta,hexagon
0.0,3.0,0.0,0.0,2.0,2.0,320.2655759523622,4.0,1.0,part_1,,,,,,,,,,,,,yellow,triangle
89.0,2.0,2.0,0.0,1.0,1.0,349.0927619859576,4.0,1.0,part_1,,,,,,,,,,,,,magenta,hexagon
213.0,7.0,3.0,1.0,3.0,3.0,298.5619200044311,4.0,1.0,part_1,,,,,,,,,,,,,gray,cross
93.0,6.0,2.0,1.0,2.0,2.0,352.8744409559294,4.0,1.0,part_1,,,,,,,,,,,,,green,circle
198.0,7.0,3.0,1.0,2.0,2.0,340.2375029982067,4.0,1.0,part_1,,,,,,,,,,,,,gray,cross
223.0,7.0,3.0,1.0,3.0,3.0,379.023056011647,4.0,1.0,part_1,,,,,,,,,,,,,gray,cross
0.0,2.0,0.0,0.0,3.0,3.0,319.9419300071895,4.0,1.0,part_1,,,,,,,,,,,,,magenta,hexagon
90.0,6.0,2.0,1.0,2.0,2.0,312.1484319563024,4.0,1.0,part_1,,,,,,,,,,,,,green,circle
416.0,8.0,4.0,1.0,4.0,4.0,293.8902650494128,4.0,1.0,part_1,,,,,,,,,,,,,cyan,diamond
0.0,4.0,0.0,0.0,4.0,4.0,281.5159799647517,4.0,1.0,part_1,,,,,,,,,,,,,white,flipped triangle
83.0,2.0,2.0,0.0,4.0,4.0,337.1150359744206,4.0,1.0,part_1,,,,,,,,,,,,,magenta,hexagon
177.0,7.0,3.0,1.0,1.0,1.0,335.0468180142343,4.0,1.0,part_1,,,,,,,,,,,,,gray,cross
413.0,8.0,4.0,1.0,4.0,4.0,307.8714960138313,4.0,1.0,part_1,,,,,,,,,,,,,cyan,diamond
185.0,3.0,3.0,0.0,2.0,2.0,536.0777219757438,4.0,1.0,part_1,,,,,,,,,,,,,yellow,triangle
124.0,2.0,2.0,0.0,3.0,3.0,364.4027999835089,4.0,1.0,part_1,,,,,,,,,,,,,magenta,hexagon
34.0,5.0,1.0,1.0,2.0,2.0,336.2353810225613,4.0,1.0,part_1,,,,,,,,,,,,,orange,I
36.0,5.0,1.0,1.0,1.0,1.0,332.0530880009755,4.0,1.0,part_1,,,,,,,,,,,,,orange,I
212.0,7.0,3.0,1.0,2.0,2.0,327.6663249707781,4.0,1.0,part_1,,,,,,,,,,,,,gray,cross
78.0,2.0,2.0,0.0,3.0,3.0,331.8643399979919,4.0,1.0,part_1,,,,,,,,,,,,,magenta,hexagon
109.0,6.0,2.0,1.0,2.0,2.0,331.5231960150413,4.0,1.0,part_1,,,,,,,,,,,,,green,circle
43.0,1.0,1.0,0.0,3.0,3.0,304.4953789794817,4.0,1.0,part_1,,,,,,,,,,,,,blue,square
81.0,2.0,2.0,0.0,1.0,1.0,331.7402479588054,4.0,1.0,part_1,,,,,,,,,,,,,magenta,hexagon
376.0,4.0,4.0,0.0,3.0,3.0,326.6685850103386,4.0,1.0,part_1,,,,,,,,,,,,,white,flipped triangle
375.0,4.0,4.0,0.0,1.0,1.0,324.1941930027678,4.0,1.0,part_1,,,,,,,,,,,,,white,flipped triangle
391.0,4.0,4.0,0.0,2.0,2.0,314.7384680341929,4.0,1.0,part_1,,,,,,,,,,,,,white,flipped triangle
47.0,5.0,1.0,1.0,4.0,4.0,328.2224749564193,4.0,1.0,part_1,,,,,,,,,,,,,orange,I
64.0,1.0,1.0,0.0,2.0,2.0,282.8284800052643,4.0,1.0,part_1,,,,,,,,,,,,,blue,square
218.0,7.0,3.0,1.0,4.0,4.0,328.1848889891989,4.0,1.0,part_1,,,,,,,,,,,,,gray,cross
0.0,7.0,0.0,1.0,1.0,1.0,331.4848089939914,4.0,1.0,part_1,,,,,,,,,,,,,gray,cross
56.0,5.0,1.0,1.0,1.0,1.0,385.2470260462723,4.0,1.0,part_1,,,,,,,,,,,,,orange,I
191.0,7.0,3.0,1.0,3.0,3.0,328.1669550342485,4.0,1.0,part_1,,,,,,,,,,,,,gray,cross
44.0,5.0,1.0,1.0,3.0,3.0,347.8999660001136,4.0,1.0,part_1,,,,,,,,,,,,,orange,I
208.0,3.0,3.0,0.0,2.0,2.0,336.697869002819,4.0,1.0,part_1,,,,,,,,,,,,,yellow,triangle
0.0,8.0,0.0,1.0,4.0,4.0,323.8171039847657,4.0,1.0,part_1,,,,,,,,,,,,,cyan,diamond
0.0,6.0,0.0,1.0,1.0,1.0,302.9909720062278,4.0,1.0,part_1,,,,,,,,,,,,,green,circle
0.0,5.0,0.0,1.0,1.0,1.0,356.4570430316962,4.0,1.0,part_1,,,,,,,,,,,,,orange,I
97.0,2.0,2.0,0.0,4.0,4.0,331.9932529702782,4.0,1.0,part_1,,,,,,,,,,,,,magenta,hexagon
79.0,6.0,2.0,1.0,1.0,1.0,335.8076110016554,4.0,1.0,part_1,,,,,,,,,,,,,green,circle
74.0,1.0,1.0,0.0,3.0,3.0,274.7295799781568,4.0,1.0,part_1,,,,,,,,,,,,,blue,square
414.0,8.0,4.0,1.0,2.0,2.0,303.1403369968757,4.0,1.0,part_1,,,,,,,,,,,,,cyan,diamond
83.0,6.0,2.0,1.0,4.0,4.0,332.1843289886601,4.0,1.0,part_1,,,,,,,,,,,,,green,circle
177.0,7.0,3.0,1.0,1.0,1.0,384.6092639723792,4.0,1.0,part_1,,,,,,,,,,,,,gray,cross
85.0,6.0,2.0,1.0,4.0,4.0,328.306988987606,4.0,1.0,part_1,,,,,,,,,,,,,green,circle
0.0,7.0,0.0,1.0,4.0,4.0,380.3078859928064,4.0,1.0,part_1,,,,,,,,,,,,,gray,cross
71.0,5.0,1.0,1.0,1.0,1.0,310.4754489613697,4.0,1.0,part_1,,,,,,,,,,,,,orange,I
51.0,5.0,1.0,1.0,2.0,2.0,341.71231999062,4.0,1.0,part_1,,,,,,,,,,,,,orange,I
124.0,6.0,2.0,1.0,4.0,4.0,327.1373040042817,4.0,1.0,part_1,,,,,,,,,,,,,green,circle
50.0,5.0,1.0,1.0,4.0,4.0,349.3473019916564,4.0,1.0,part_1,,,,,,,,,,,,,orange,I
65.0,1.0,1.0,0.0,3.0,3.0,353.2589800306596,4.0,1.0,part_1,,,,,,,,,,,,,blue,square
176.0,3.0,3.0,0.0,1.0,1.0,303.9796720258891,4.0,1.0,part_1,,,,,,,,,,,,,yellow,triangle
58.0,1.0,1.0,0.0,4.0,4.0,324.298474995885,4.0,1.0,part_1,,,,,,,,,,,,,blue,square
53.0,5.0,1.0,1.0,3.0,3.0,303.5623779869638,4.0,1.0,part_1,,,,,,,,,,,,,orange,I
0.0,5.0,0.0,1.0,2.0,2.0,339.5200680242851,4.0,1.0,part_1,,,,,,,,,,,,,orange,I
0.0,8.0,0.0,1.0,4.0,4.0,401.7837779829278,4.0,1.0,part_1,,,,,,,,,,,,,cyan,diamond
392.0,4.0,4.0,0.0,2.0,2.0,388.8911409885622,4.0,1.0,part_1,,,,,,,,,,,,,white,flipped triangle
71.0,1.0,1.0,0.0,4.0,4.0,314.4757280242629,4.0,1.0,part_1,,,,,,,,,,,,,blue,square
220.0,3.0,3.0,0.0,1.0,1.0,320.8887969958596,4.0,1.0,part_1,,,,,,,,,,,,,yellow,triangle
0.0,3.0,0.0,0.0,3.0,3.0,307.1568600134924,4.0,1.0,part_1,,,,,,,,,,,,,yellow,triangle
224.0,7.0,3.0,1.0,2.0,2.0,336.2286509945988,4.0,1.0,part_1,,,,,,,,,,,,,gray,cross
87.0,6.0,2.0,1.0,2.0,2.0,358.0190549837425,4.0,1.0,part_1,,,,,,,,,,,,,green,circle
56.0,1.0,1.0,0.0,1.0,1.0,330.8130169752985,4.0,1.0,part_1,,,,,,,,,,,,,blue,square
43.0,1.0,1.0,0.0,4.0,4.0,310.4734749649651,4.0,1.0,part_1,,,,,,,,,,,,,blue,square
0.0,7.0,0.0,1.0,3.0,3.0,298.367106996011,4.0,1.0,part_1,,,,,,,,,,,,,gray,cross
376.0,8.0,4.0,1.0,3.0,3.0,305.8838350116275,4.0,1.0,part_1,,,,,,,,,,,,,cyan,diamond
408.0,8.0,4.0,1.0,1.0,1.0,318.9208129770122,4.0,1.0,part_1,,,,,,,,,,,,,cyan,diamond
0.0,6.0,0.0,1.0,4.0,4.0,282.2951300186105,4.0,1.0,part_1,,,,,,,,,,,,,green,circle
210.0,3.0,3.0,0.0,1.0,1.0,336.4761840202845,4.0,1.0,part_1,,,,,,,,,,,,,yellow,triangle
417.0,4.0,4.0,0.0,2.0,2.0,348.6196880112402,4.0,1.0,part_1,,,,,,,,,,,,,white,flipped triangle
399.0,4.0,4.0,0.0,4.0,4.0,295.1600790256634,4.0,1.0,part_1,,,,,,,,,,,,,white,flipped triangle
96.0,2.0,2.0,0.0,3.0,3.0,275.3074829815887,4.0,1.0,part_1,,,,,,,,,,,,,magenta,hexagon
78.0,6.0,2.0,1.0,2.0,2.0,311.7651809589006,4.0,1.0,part_1,,,,,,,,,,,,,green,circle
211.0,7.0,3.0,1.0,1.0,1.0,366.1363880382851,4.0,1.0,part_1,,,,,,,,,,,,,gray,cross
176.0,7.0,3.0,1.0,1.0,1.0,356.4489629934542,4.0,1.0,part_1,,,,,,,,,,,,,gray,cross
392.0,8.0,4.0,1.0,3.0,3.0,255.0683500012383,4.0,1.0,part_1,,,,,,,,,,,,,cyan,diamond
93.0,6.0,2.0,1.0,2.0,2.0,266.5355319622904,4.0,1.0,part_1,,,,,,,,,,,,,green,circle
123.0,2.0,2.0,0.0,4.0,4.0,274.8248929856345,4.0,1.0,part_1,,,,,,,,,,,,,magenta,hexagon
112.0,6.0,2.0,1.0,3.0,3.0,246.9236209872178,4.0,1.0,part_1,,,,,,,,,,,,,green,circle
0.0,5.0,1.0,1.0,5.0,5.0,361.049241037108,1.0,0.0,part_2,go,250.0,250.0,1.0,,,,,,,,,orange,I
0.0,4.0,4.0,0.0,5.0,5.0,298.641562985722,1.0,0.0,part_2,go,250.0,250.0,1.0,,,,,,,,,white,flipped triangle
0.0,6.0,2.0,1.0,6.0,0.0,0.0,1.0,0.0,part_2,stop,250.0,250.0,4.0,,,,,,,,,green,circle
0.0,6.0,2.0,1.0,6.0,6.0,295.678251015488,1.0,0.0,part_2,go,250.0,300.0,1.0,,,,,,,,,green,circle
0.0,2.0,2.0,0.0,6.0,6.0,313.9467579894699,1.0,0.0,part_2,go,250.0,300.0,1.0,,,,,,,,,magenta,hexagon
0.0,1.0,1.0,0.0,5.0,5.0,270.5238910275511,1.0,0.0,part_2,go,250.0,300.0,1.0,,,,,,,,,blue,square
0.0,8.0,4.0,1.0,5.0,5.0,296.3255580398254,1.0,0.0,part_2,stop,250.0,300.0,3.0,,,,,,,,,cyan,diamond
0.0,7.0,3.0,1.0,5.0,5.0,352.6820249971933,1.0,0.0,part_2,stop,200.0,300.0,3.0,,,,,,,,,gray,cross
0.0,2.0,2.0,0.0,5.0,5.0,516.8665800010785,1.0,0.0,part_2,go,150.0,300.0,1.0,,,,,,,,,magenta,hexagon
0.0,5.0,1.0,1.0,5.0,5.0,334.5397369703278,1.0,0.0,part_2,stop,150.0,300.0,3.0,,,,,,,,,orange,I
0.0,2.0,2.0,0.0,5.0,5.0,382.8322929912247,1.0,0.0,part_2,go,100.0,300.0,1.0,,,,,,,,,magenta,hexagon
0.0,1.0,1.0,0.0,6.0,6.0,386.8805070524104,1.0,0.0,part_2,go,100.0,300.0,1.0,,,,,,,,,blue,square
0.0,4.0,4.0,0.0,6.0,6.0,314.6465280442498,1.0,0.0,part_2,go,100.0,300.0,1.0,,,,,,,,,white,flipped triangle
0.0,3.0,3.0,0.0,5.0,5.0,365.7370320288464,1.0,0.0,part_2,go,100.0,300.0,1.0,,,,,,,,,yellow,triangle
0.0,2.0,2.0,0.0,6.0,6.0,322.3035459523089,1.0,0.0,part_2,go,100.0,300.0,1.0,,,,,,,,,magenta,hexagon
0.0,5.0,1.0,1.0,6.0,6.0,297.2517890157178,1.0,0.0,part_2,stop,100.0,300.0,3.0,,,,,,,,,orange,I
0.0,3.0,3.0,0.0,5.0,5.0,433.1564260064624,1.0,0.0,part_2,go,100.0,250.0,1.0,,,,,,,,,yellow,triangle
0.0,6.0,2.0,1.0,5.0,0.0,0.0,1.0,0.0,part_2,stop,100.0,250.0,4.0,,,,,,,,,green,circle
0.0,5.0,1.0,1.0,6.0,6.0,313.7293820036575,1.0,0.0,part_2,stop,150.0,250.0,3.0,,,,,,,,,orange,I
0.0,4.0,4.0,0.0,5.0,5.0,455.6750259944238,1.0,0.0,part_2,go,150.0,200.0,1.0,,,,,,,,,white,flipped triangle
0.0,4.0,4.0,0.0,5.0,5.0,393.3278209879063,1.0,0.0,part_2,go,150.0,200.0,1.0,,,,,,,,,white,flipped triangle
0.0,7.0,3.0,1.0,5.0,5.0,310.4170879814774,1.0,0.0,part_2,stop,150.0,200.0,3.0,,,,,,,,,gray,cross
0.0,2.0,2.0,0.0,5.0,5.0,408.9418919757008,1.0,0.0,part_2,go,100.0,200.0,1.0,,,,,,,,,magenta,hexagon
0.0,4.0,4.0,0.0,6.0,6.0,285.6652409536764,1.0,0.0,part_2,go,100.0,200.0,1.0,,,,,,,,,white,flipped triangle
0.0,6.0,2.0,1.0,6.0,0.0,0.0,1.0,0.0,part_2,stop,100.0,200.0,4.0,,,,,,,,,green,circle
0.0,6.0,2.0,1.0,5.0,5.0,283.531898050569,1.0,0.0,part_2,go,100.0,250.0,1.0,,,,,,,,,green,circle
0.0,7.0,3.0,1.0,5.0,0.0,0.0,1.0,0.0,part_2,stop,100.0,250.0,4.0,,,,,,,,,gray,cross
0.0,7.0,3.0,1.0,6.0,6.0,324.3355029844679,1.0,0.0,part_2,stop,150.0,250.0,3.0,,,,,,,,,gray,cross
0.0,7.0,3.0,1.0,6.0,6.0,445.6076889764517,1.0,0.0,part_2,go,150.0,200.0,1.0,,,,,,,,,gray,cross
0.0,5.0,1.0,1.0,5.0,5.0,321.3061249698512,1.0,0.0,part_2,stop,150.0,200.0,3.0,,,,,,,,,orange,I
0.0,1.0,1.0,0.0,6.0,6.0,418.896934017539,1.0,0.0,part_2,go,100.0,200.0,1.0,,,,,,,,,blue,square
0.0,5.0,1.0,1.0,6.0,6.0,687.7869720337912,1.0,0.0,part_2,go,100.0,200.0,1.0,,,,,,,,,orange,I
0.0,5.0,1.0,1.0,5.0,0.0,0.0,1.0,0.0,part_2,stop,100.0,200.0,4.0,,,,,,,,,orange,I
0.0,2.0,2.0,0.0,5.0,5.0,466.0914510022849,1.0,0.0,part_2,go,150.0,200.0,1.0,,,,,,,,,magenta,hexagon
0.0,1.0,1.0,0.0,6.0,6.0,392.7775360061787,1.0,0.0,part_2,go,150.0,200.0,1.0,,,,,,,,,blue,square
0.0,3.0,3.0,0.0,6.0,6.0,278.2092569977976,1.0,0.0,part_2,go,150.0,200.0,1.0,,,,,,,,,yellow,triangle
0.0,5.0,1.0,1.0,6.0,0.0,0.0,2.0,0.0,part_2,stop,150.0,200.0,4.0,,,,,,,,,orange,I
0.0,3.0,3.0,0.0,5.0,5.0,447.7945070248097,2.0,0.0,part_2,go,150.0,250.0,1.0,,,,,,,,,yellow,triangle
0.0,7.0,3.0,1.0,6.0,6.0,369.1702210344374,2.0,0.0,part_2,stop,150.0,250.0,3.0,,,,,,,,,gray,cross
0.0,1.0,1.0,0.0,6.0,6.0,449.3894870392978,2.0,0.0,part_2,go,150.0,200.0,1.0,,,,,,,,,blue,square
0.0,6.0,2.0,1.0,5.0,0.0,0.0,2.0,0.0,part_2,stop,150.0,200.0,4.0,,,,,,,,,green,circle
0.0,7.0,3.0,1.0,6.0,6.0,421.3762879953719,2.0,0.0,part_2,go,200.0,200.0,1.0,,,,,,,,,gray,cross
0.0,8.0,4.0,1.0,6.0,6.0,544.6581179858185,2.0,0.0,part_2,go,200.0,200.0,1.0,,,,,,,,,cyan,diamond
0.0,7.0,3.0,1.0,6.0,0.0,0.0,2.0,0.0,part_2,stop,200.0,200.0,4.0,,,,,,,,,gray,cross
0.0,6.0,2.0,1.0,5.0,5.0,302.3984219762496,2.0,0.0,part_2,stop,200.0,250.0,3.0,,,,,,,,,green,circle
0.0,8.0,4.0,1.0,6.0,0.0,0.0,2.0,0.0,part_2,stop,150.0,250.0,4.0,,,,,,,,,cyan,diamond
0.0,3.0,3.0,0.0,5.0,5.0,404.2614880017936,2.0,0.0,part_2,go,150.0,300.0,1.0,,,,,,,,,yellow,triangle
0.0,5.0,1.0,1.0,5.0,5.0,378.9084010059014,2.0,0.0,part_2,go,150.0,300.0,1.0,,,,,,,,,orange,I
0.0,6.0,2.0,1.0,5.0,5.0,387.3172309831716,2.0,0.0,part_2,go,150.0,300.0,1.0,,,,,,,,,green,circle
0.0,1.0,1.0,0.0,5.0,5.0,434.5265809679404,2.0,0.0,part_2,go,150.0,300.0,1.0,,,,,,,,,blue,square
0.0,1.0,1.0,0.0,5.0,5.0,351.9515949883498,2.0,0.0,part_2,go,150.0,300.0,1.0,,,,,,,,,blue,square
0.0,3.0,3.0,0.0,5.0,5.0,425.3852309775539,2.0,0.0,part_2,go,150.0,300.0,1.0,,,,,,,,,yellow,triangle
0.0,1.0,1.0,0.0,5.0,5.0,433.5802380228415,2.0,0.0,part_2,go,150.0,300.0,1.0,,,,,,,,,blue,square
0.0,6.0,2.0,1.0,6.0,0.0,0.0,2.0,0.0,part_2,stop,150.0,300.0,4.0,,,,,,,,,green,circle
0.0,8.0,4.0,1.0,5.0,0.0,0.0,2.0,0.0,part_2,stop,150.0,350.0,4.0,,,,,,,,,cyan,diamond
0.0,6.0,2.0,1.0,6.0,6.0,417.7942769601941,2.0,0.0,part_2,stop,200.0,350.0,3.0,,,,,,,,,green,circle
0.0,3.0,3.0,0.0,6.0,6.0,416.283605969511,2.0,0.0,part_2,go,200.0,300.0,1.0,,,,,,,,,yellow,triangle
0.0,7.0,3.0,1.0,5.0,5.0,444.3583659594878,2.0,0.0,part_2,go,200.0,300.0,1.0,,,,,,,,,gray,cross
0.0,6.0,2.0,1.0,6.0,6.0,320.4001280246302,2.0,0.0,part_2,stop,200.0,300.0,3.0,,,,,,,,,green,circle
0.0,8.0,4.0,1.0,5.0,0.0,0.0,2.0,0.0,part_2,stop,200.0,250.0,4.0,,,,,,,,,cyan,diamond
0.0,7.0,3.0,1.0,6.0,6.0,285.3867069934495,2.0,0.0,part_2,stop,250.0,250.0,3.0,,,,,,,,,gray,cross
0.0,2.0,2.0,0.0,6.0,6.0,331.9005609955638,2.0,0.0,part_2,go,250.0,200.0,1.0,,,,,,,,,magenta,hexagon
0.0,7.0,3.0,1.0,5.0,5.0,361.5665649995208,2.0,0.0,part_2,stop,250.0,200.0,3.0,,,,,,,,,gray,cross
0.0,4.0,4.0,0.0,6.0,6.0,492.1324030146934,2.0,0.0,part_2,go,200.0,200.0,1.0,,,,,,,,,white,flipped triangle
0.0,7.0,3.0,1.0,5.0,0.0,0.0,2.0,0.0,part_2,stop,200.0,200.0,4.0,,,,,,,,,gray,cross
0.0,4.0,4.0,0.0,5.0,5.0,579.3440809939057,2.0,0.0,part_2,go,250.0,200.0,1.0,,,,,,,,,white,flipped triangle
0.0,8.0,4.0,1.0,6.0,0.0,0.0,2.0,0.0,part_2,stop,250.0,200.0,4.0,,,,,,,,,cyan,diamond
0.0,6.0,2.0,1.0,5.0,0.0,0.0,2.0,0.0,part_2,stop,250.0,250.0,4.0,,,,,,,,,green,circle
0.0,1.0,1.0,0.0,6.0,6.0,455.0870039965957,2.0,0.0,part_2,go,300.0,250.0,1.0,,,,,,,,,blue,square
0.0,2.0,2.0,0.0,6.0,6.0,345.7909599528648,2.0,0.0,part_2,go,300.0,250.0,1.0,,,,,,,,,magenta,hexagon
0.0,2.0,2.0,0.0,6.0,6.0,453.2940629869699,2.0,0.0,part_2,go,300.0,250.0,1.0,,,,,,,,,magenta,hexagon
0.0,8.0,4.0,1.0,6.0,6.0,521.0336919990368,2.0,0.0,part_2,go,300.0,250.0,1.0,,,,,,,,,cyan,diamond
0.0,8.0,4.0,1.0,6.0,6.0,425.0481729977764,3.0,0.0,part_2,stop,300.0,250.0,3.0,,,,,,,,,cyan,diamond
0.0,6.0,2.0,1.0,5.0,5.0,624.1727919550613,3.0,0.0,part_2,go,300.0,200.0,1.0,,,,,,,,,green,circle
0.0,7.0,3.0,1.0,5.0,5.0,375.4308199859224,3.0,0.0,part_2,stop,300.0,200.0,3.0,,,,,,,,,gray,cross
0.0,4.0,4.0,0.0,5.0,5.0,600.1879029790871,3.0,0.0,part_2,go,250.0,200.0,1.0,,,,,,,,,white,flipped triangle
0.0,5.0,1.0,1.0,5.0,5.0,401.90998697653407,3.0,0.0,part_2,stop,250.0,200.0,3.0,,,,,,,,,orange,I
0.0,6.0,2.0,1.0,6.0,0.0,0.0,3.0,0.0,part_2,stop,200.0,200.0,4.0,,,,,,,,,green,circle
0.0,8.0,4.0,1.0,6.0,0.0,0.0,3.0,0.0,part_2,stop,200.0,250.0,4.0,,,,,,,,,cyan,diamond
0.0,4.0,4.0,0.0,5.0,5.0,421.8510960345156,3.0,0.0,part_2,go,200.0,300.0,1.0,,,,,,,,,white,flipped triangle
0.0,2.0,2.0,0.0,6.0,6.0,374.1169659770094,3.0,0.0,part_2,go,200.0,300.0,1.0,,,,,,,,,magenta,hexagon
0.0,6.0,2.0,1.0,5.0,0.0,0.0,3.0,0.0,part_2,stop,200.0,300.0,4.0,,,,,,,,,green,circle
0.0,6.0,2.0,1.0,5.0,0.0,0.0,3.0,0.0,part_2,stop,250.0,300.0,4.0,,,,,,,,,green,circle
0.0,5.0,1.0,1.0,5.0,0.0,0.0,3.0,0.0,part_2,stop,300.0,300.0,4.0,,,,,,,,,orange,I
0.0,3.0,3.0,0.0,5.0,5.0,682.5515099917538,3.0,0.0,part_2,go,350.0,300.0,1.0,,,,,,,,,yellow,triangle
0.0,2.0,2.0,0.0,6.0,6.0,331.1087519978173,3.0,0.0,part_2,go,350.0,300.0,1.0,,,,,,,,,magenta,hexagon
0.0,6.0,2.0,1.0,6.0,6.0,344.9898569961078,3.0,0.0,part_2,stop,350.0,300.0,3.0,,,,,,,,,green,circle
0.0,1.0,1.0,0.0,5.0,5.0,409.6837609540671,3.0,0.0,part_2,go,350.0,250.0,1.0,,,,,,,,,blue,square
0.0,4.0,4.0,0.0,5.0,5.0,559.2095850151964,3.0,0.0,part_2,go,350.0,250.0,1.0,,,,,,,,,white,flipped triangle
0.0,1.0,1.0,0.0,6.0,6.0,318.3916769921779,3.0,0.0,part_2,go,350.0,250.0,1.0,,,,,,,,,blue,square
0.0,8.0,4.0,1.0,5.0,5.0,391.8607509694993,3.0,0.0,part_2,stop,350.0,250.0,3.0,,,,,,,,,cyan,diamond
0.0,8.0,4.0,1.0,5.0,0.0,0.0,3.0,0.0,part_2,stop,300.0,250.0,4.0,,,,,,,,,cyan,diamond
0.0,5.0,1.0,1.0,6.0,6.0,367.9287629784085,3.0,0.0,part_2,go,350.0,250.0,1.0,,,,,,,,,orange,I
0.0,2.0,2.0,0.0,6.0,6.0,292.2378430375829,3.0,0.0,part_2,go,350.0,250.0,1.0,,,,,,,,,magenta,hexagon
0.0,6.0,2.0,1.0,5.0,0.0,0.0,3.0,0.0,part_2,stop,350.0,250.0,4.0,,,,,,,,,green,circle
0.0,7.0,3.0,1.0,5.0,5.0,494.4259040057659,3.0,0.0,part_2,stop,400.0,250.0,3.0,,,,,,,,,gray,cross
0.0,3.0,3.0,0.0,5.0,5.0,634.4056910020299,3.0,0.0,part_2,go,350.0,250.0,1.0,,,,,,,,,yellow,triangle
0.0,7.0,3.0,1.0,6.0,0.0,0.0,3.0,0.0,part_2,stop,350.0,250.0,4.0,,,,,,,,,gray,cross
0.0,3.0,3.0,0.0,6.0,6.0,780.8239519945346,3.0,0.0,part_2,go,350.0,300.0,1.0,,,,,,,,,yellow,triangle
0.0,4.0,4.0,0.0,5.0,5.0,473.2543320278637,3.0,0.0,part_2,go,350.0,300.0,1.0,,,,,,,,,white,flipped triangle
0.0,8.0,4.0,1.0,6.0,0.0,0.0,3.0,0.0,part_2,stop,350.0,300.0,4.0,,,,,,,,,cyan,diamond
0.0,2.0,2.0,0.0,6.0,6.0,497.8093759855255,3.0,0.0,part_2,go,350.0,350.0,1.0,,,,,,,,,magenta,hexagon
0.0,8.0,4.0,1.0,6.0,6.0,373.5873219557106,3.0,0.0,part_2,stop,350.0,350.0,3.0,,,,,,,,,cyan,diamond
0.0,6.0,2.0,1.0,6.0,6.0,495.1362179708667,3.0,0.0,part_2,go,350.0,300.0,1.0,,,,,,,,,green,circle
0.0,1.0,1.0,0.0,5.0,5.0,480.7041750173084,3.0,0.0,part_2,go,350.0,300.0,1.0,,,,,,,,,blue,square
0.0,7.0,3.0,1.0,6.0,6.0,375.4860619665123,3.0,0.0,part_2,go,350.0,300.0,1.0,,,,,,,,,gray,cross
0.0,1.0,1.0,0.0,6.0,6.0,542.821309005376,3.0,0.0,part_2,go,350.0,300.0,1.0,,,,,,,,,blue,square
0.0,2.0,2.0,0.0,5.0,5.0,421.8539409921504,3.0,0.0,part_2,go,350.0,300.0,1.0,,,,,,,,,magenta,hexagon
0.0,1.0,1.0,0.0,6.0,6.0,378.677252039779,4.0,0.0,part_2,go,350.0,300.0,1.0,,,,,,,,,blue,square
0.0,7.0,3.0,1.0,5.0,5.0,459.0257829986512,4.0,0.0,part_2,stop,350.0,300.0,3.0,,,,,,,,,gray,cross
0.0,2.0,2.0,0.0,5.0,5.0,472.1317029907368,4.0,0.0,part_2,go,300.0,300.0,1.0,,,,,,,,,magenta,hexagon
0.0,7.0,3.0,1.0,6.0,6.0,288.063554035034,4.0,0.0,part_2,stop,300.0,300.0,3.0,,,,,,,,,gray,cross
0.0,2.0,2.0,0.0,5.0,5.0,543.8400889979675,4.0,0.0,part_2,go,300.0,250.0,1.0,,,,,,,,,magenta,hexagon
0.0,4.0,4.0,0.0,5.0,5.0,351.6074939980171,4.0,0.0,part_2,go,300.0,250.0,1.0,,,,,,,,,white,flipped triangle
0.0,7.0,3.0,1.0,5.0,5.0,344.6934819803573,4.0,0.0,part_2,stop,300.0,250.0,3.0,,,,,,,,,gray,cross
0.0,3.0,3.0,0.0,5.0,5.0,541.5107639855705,4.0,0.0,part_2,go,250.0,250.0,1.0,,,,,,,,,yellow,triangle
0.0,6.0,2.0,1.0,5.0,5.0,597.2150990273803,4.0,0.0,part_2,go,250.0,250.0,1.0,,,,,,,,,green,circle
0.0,4.0,4.0,0.0,6.0,6.0,349.7217099647969,4.0,0.0,part_2,go,250.0,250.0,1.0,,,,,,,,,white,flipped triangle
0.0,8.0,4.0,1.0,5.0,5.0,286.4099529688246,4.0,0.0,part_2,stop,250.0,250.0,3.0,,,,,,,,,cyan,diamond
0.0,7.0,3.0,1.0,6.0,0.0,0.0,4.0,0.0,part_2,stop,200.0,250.0,4.0,,,,,,,,,gray,cross
0.0,3.0,3.0,0.0,6.0,6.0,420.8127550082281,4.0,0.0,part_2,go,200.0,300.0,1.0,,,,,,,,,yellow,triangle
0.0,8.0,4.0,1.0,5.0,5.0,385.993498028256,4.0,0.0,part_2,go,200.0,300.0,1.0,,,,,,,,,cyan,diamond
0.0,6.0,2.0,1.0,6.0,6.0,346.5203620144166,4.0,0.0,part_2,stop,200.0,300.0,3.0,,,,,,,,,green,circle
0.0,3.0,3.0,0.0,6.0,6.0,627.6947269798256,4.0,0.0,part_2,go,200.0,250.0,1.0,,,,,,,,,yellow,triangle
0.0,3.0,3.0,0.0,6.0,6.0,528.4723929944448,4.0,0.0,part_2,go,200.0,250.0,1.0,,,,,,,,,yellow,triangle
0.0,4.0,4.0,0.0,5.0,5.0,311.2945359898731,4.0,0.0,part_2,go,200.0,250.0,1.0,,,,,,,,,white,flipped triangle
0.0,8.0,4.0,1.0,6.0,6.0,297.3856910248287,4.0,0.0,part_2,go,200.0,250.0,1.0,,,,,,,,,cyan,diamond
0.0,3.0,3.0,0.0,6.0,6.0,328.0630760127678,4.0,0.0,part_2,go,200.0,250.0,1.0,,,,,,,,,yellow,triangle
0.0,6.0,2.0,1.0,6.0,6.0,373.3373640570789,4.0,0.0,part_2,stop,200.0,250.0,3.0,,,,,,,,,green,circle
0.0,2.0,2.0,0.0,6.0,6.0,493.4132199850864,4.0,0.0,part_2,go,200.0,200.0,1.0,,,,,,,,,magenta,hexagon
0.0,1.0,1.0,0.0,5.0,6.0,406.5977159771137,4.0,0.0,part_2,go,200.0,200.0,2.0,,,,,,,,,blue,square
0.0,3.0,3.0,0.0,6.0,6.0,341.9938349979929,4.0,0.0,part_2,go,200.0,200.0,1.0,,,,,,,,,yellow,triangle
0.0,1.0,1.0,0.0,5.0,5.0,420.2724570059217,4.0,0.0,part_2,go,200.0,200.0,1.0,,,,,,,,,blue,square
0.0,8.0,4.0,1.0,6.0,0.0,0.0,4.0,0.0,part_2,stop,200.0,200.0,4.0,,,,,,,,,cyan,diamond
0.0,5.0,1.0,1.0,6.0,6.0,452.7535529923625,4.0,0.0,part_2,go,200.0,250.0,1.0,,,,,,,,,orange,I
0.0,1.0,1.0,0.0,5.0,5.0,411.6084949928336,4.0,0.0,part_2,go,200.0,250.0,1.0,,,,,,,,,blue,square
0.0,8.0,4.0,1.0,5.0,0.0,0.0,4.0,0.0,part_2,stop,200.0,250.0,4.0,,,,,,,,,cyan,diamond
0.0,6.0,2.0,1.0,6.0,6.0,388.5901640169322,4.0,0.0,part_2,stop,250.0,250.0,3.0,,,,,,,,,green,circle
0.0,1.0,1.0,0.0,5.0,5.0,407.7755779726431,4.0,0.0,part_2,go,250.0,200.0,1.0,,,,,,,,,blue,square
0.0,8.0,4.0,1.0,5.0,5.0,385.9456490026787,4.0,0.0,part_2,stop,250.0,200.0,3.0,,,,,,,,,cyan,diamond
0.0,4.0,4.0,0.0,6.0,6.0,495.1824669842608,4.0,0.0,part_2,go,200.0,200.0,1.0,,,,,,,,,white,flipped triangle
0.0,8.0,4.0,1.0,5.0,0.0,0.0,4.0,0.0,part_2,stop,200.0,200.0,4.0,,,,,,,,,cyan,diamond
0.0,5.0,1.0,1.0,6.0,0.0,0.0,4.0,0.0,part_2,stop,250.0,200.0,4.0,,,,,,,,,orange,I
0.0,8.0,4.0,1.0,6.0,0.0,0.0,4.0,0.0,part_2,stop,250.0,250.0,4.0,,,,,,,,,cyan,diamond
0.0,4.0,4.0,0.0,5.0,5.0,391.6047780076042,5.0,0.0,part_2,go,250.0,300.0,1.0,,,,,,,,,white,flipped triangle
0.0,8.0,4.0,1.0,5.0,5.0,441.1798529908992,5.0,0.0,part_2,stop,250.0,300.0,3.0,,,,,,,,,cyan,diamond
0.0,6.0,2.0,1.0,6.0,6.0,356.9803290301934,5.0,0.0,part_2,stop,200.0,300.0,3.0,,,,,,,,,green,circle
0.0,2.0,2.0,0.0,5.0,5.0,444.0320270368829,5.0,0.0,part_2,go,200.0,250.0,1.0,,,,,,,,,magenta,hexagon
0.0,5.0,1.0,1.0,6.0,0.0,0.0,5.0,0.0,part_2,stop,200.0,250.0,4.0,,,,,,,,,orange,I
0.0,8.0,4.0,1.0,6.0,0.0,0.0,5.0,0.0,part_2,stop,200.0,300.0,4.0,,,,,,,,,cyan,diamond
0.0,2.0,2.0,0.0,5.0,5.0,516.6385209886357,5.0,0.0,part_2,go,200.0,350.0,1.0,,,,,,,,,magenta,hexagon
0.0,1.0,1.0,0.0,6.0,6.0,379.611529991962,5.0,0.0,part_2,go,200.0,350.0,1.0,,,,,,,,,blue,square
0.0,1.0,1.0,0.0,5.0,5.0,309.0444039553404,5.0,0.0,part_2,go,200.0,350.0,1.0,,,,,,,,,blue,square
0.0,3.0,3.0,0.0,5.0,5.0,314.3403090070933,5.0,0.0,part_2,go,200.0,350.0,1.0,,,,,,,,,yellow,triangle
0.0,4.0,4.0,0.0,6.0,6.0,488.0023839650675,5.0,0.0,part_2,go,200.0,350.0,1.0,,,,,,,,,white,flipped triangle
0.0,2.0,2.0,0.0,6.0,6.0,305.429074971471,5.0,0.0,part_2,go,200.0,350.0,1.0,,,,,,,,,magenta,hexagon
0.0,1.0,1.0,0.0,5.0,5.0,298.3540630084462,5.0,0.0,part_2,go,200.0,350.0,1.0,,,,,,,,,blue,square
0.0,5.0,1.0,1.0,6.0,6.0,374.8510120203718,5.0,0.0,part_2,stop,200.0,350.0,3.0,,,,,,,,,orange,I
0.0,2.0,2.0,0.0,6.0,6.0,406.3108679838478,5.0,0.0,part_2,go,200.0,300.0,1.0,,,,,,,,,magenta,hexagon
0.0,4.0,4.0,0.0,6.0,6.0,422.4856279906817,5.0,0.0,part_2,go,200.0,300.0,1.0,,,,,,,,,white,flipped triangle
0.0,5.0,1.0,1.0,5.0,5.0,286.623309017159,5.0,0.0,part_2,stop,200.0,300.0,3.0,,,,,,,,,orange,I
0.0,3.0,3.0,0.0,6.0,6.0,502.18027096707374,5.0,0.0,part_2,go,150.0,300.0,1.0,,,,,,,,,yellow,triangle
0.0,3.0,3.0,0.0,5.0,5.0,427.6735530002042,5.0,0.0,part_2,go,150.0,300.0,1.0,,,,,,,,,yellow,triangle
0.0,6.0,2.0,1.0,6.0,6.0,323.7050059833564,5.0,0.0,part_2,stop,150.0,300.0,3.0,,,,,,,,,green,circle
0.0,2.0,2.0,0.0,5.0,5.0,459.445130021777,5.0,0.0,part_2,go,150.0,250.0,1.0,,,,,,,,,magenta,hexagon
0.0,6.0,2.0,1.0,5.0,0.0,0.0,5.0,0.0,part_2,stop,150.0,250.0,4.0,,,,,,,,,green,circle
0.0,3.0,3.0,0.0,5.0,5.0,397.0884939772077,5.0,0.0,part_2,go,200.0,250.0,1.0,,,,,,,,,yellow,triangle
0.0,6.0,2.0,1.0,5.0,5.0,364.8896249942481,5.0,0.0,part_2,go,200.0,250.0,1.0,,,,,,,,,green,circle
0.0,1.0,1.0,0.0,6.0,6.0,467.8608250105753,5.0,0.0,part_2,go,200.0,250.0,1.0,,,,,,,,,blue,square
0.0,3.0,3.0,0.0,6.0,6.0,435.655013017822,5.0,0.0,part_2,go,200.0,250.0,1.0,,,,,,,,,yellow,triangle
0.0,7.0,3.0,1.0,5.0,0.0,0.0,5.0,0.0,part_2,stop,200.0,250.0,4.0,,,,,,,,,gray,cross
0.0,5.0,1.0,1.0,5.0,5.0,366.6793790180236,5.0,0.0,part_2,go,250.0,250.0,1.0,,,,,,,,,orange,I
0.0,8.0,4.0,1.0,6.0,6.0,321.9184930203482,5.0,0.0,part_2,stop,250.0,250.0,3.0,,,,,,,,,cyan,diamond
0.0,1.0,1.0,0.0,5.0,5.0,413.8405139674432,5.0,0.0,part_2,go,250.0,200.0,1.0,,,,,,,,,blue,square
0.0,1.0,1.0,0.0,6.0,6.0,333.9343100087717,5.0,0.0,part_2,go,250.0,200.0,1.0,,,,,,,,,blue,square
0.0,3.0,3.0,0.0,6.0,6.0,327.5529099628329,5.0,0.0,part_2,go,250.0,200.0,1.0,,,,,,,,,yellow,triangle
0.0,1.0,1.0,0.0,5.0,5.0,597.2408219822682,5.0,0.0,part_2,go,250.0,200.0,1.0,,,,,,,,,blue,square
0.0,7.0,3.0,1.0,6.0,6.0,334.7910860320553,5.0,0.0,part_2,stop,250.0,200.0,3.0,,,,,,,,,gray,cross
0.0,2.0,2.0,0.0,5.0,5.0,476.7818890395574,5.0,0.0,part_2,go,250.0,150.0,1.0,,,,,,,,,magenta,hexagon
0.0,5.0,1.0,1.0,5.0,0.0,0.0,5.0,0.0,part_2,stop,250.0,150.0,4.0,,,,,,,,,orange,I
0.0,8.0,4.0,1.0,5.0,5.0,357.4533080100082,6.0,0.0,part_2,stop,300.0,150.0,3.0,,,,,,,,,cyan,diamond
0.0,4.0,4.0,0.0,6.0,6.0,451.8292819848284,6.0,0.0,part_2,go,250.0,150.0,1.0,,,,,,,,,white,flipped triangle
0.0,5.0,1.0,1.0,5.0,0.0,0.0,6.0,0.0,part_2,stop,250.0,150.0,4.0,,,,,,,,,orange,I
0.0,8.0,4.0,1.0,5.0,5.0,539.7457289509475,6.0,0.0,part_2,go,300.0,150.0,1.0,,,,,,,,,cyan,diamond
0.0,2.0,2.0,0.0,6.0,6.0,273.8336789770983,6.0,0.0,part_2,go,300.0,150.0,1.0,,,,,,,,,magenta,hexagon
0.0,6.0,2.0,1.0,6.0,6.0,354.4248559628613,6.0,0.0,part_2,stop,300.0,150.0,3.0,,,,,,,,,green,circle
0.0,1.0,1.0,0.0,6.0,6.0,463.6142359813675,6.0,0.0,part_2,go,300.0,100.0,1.0,,,,,,,,,blue,square
0.0,3.0,3.0,0.0,6.0,6.0,504.30919096106663,6.0,0.0,part_2,go,300.0,100.0,1.0,,,,,,,,,yellow,triangle
0.0,3.0,3.0,0.0,5.0,5.0,408.00885600037867,6.0,0.0,part_2,go,300.0,100.0,1.0,,,,,,,,,yellow,triangle
0.0,5.0,1.0,1.0,5.0,5.0,487.4209109693765,6.0,0.0,part_2,stop,300.0,100.0,3.0,,,,,,,,,orange,I
0.0,4.0,4.0,0.0,5.0,5.0,494.6630750200711,6.0,0.0,part_2,go,250.0,100.0,1.0,,,,,,,,,white,flipped triangle
0.0,4.0,4.0,0.0,5.0,5.0,460.4148209909908,6.0,0.0,part_2,go,250.0,100.0,1.0,,,,,,,,,white,flipped triangle
0.0,7.0,3.0,1.0,6.0,0.0,0.0,6.0,0.0,part_2,stop,250.0,100.0,4.0,,,,,,,,,gray,cross
0.0,7.0,3.0,1.0,5.0,0.0,0.0,6.0,0.0,part_2,stop,250.0,150.0,4.0,,,,,,,,,gray,cross
0.0,1.0,1.0,0.0,6.0,6.0,333.9960520388558,6.0,0.0,part_2,go,300.0,150.0,1.0,,,,,,,,,blue,square
0.0,5.0,1.0,1.0,5.0,0.0,0.0,6.0,0.0,part_2,stop,300.0,150.0,4.0,,,,,,,,,orange,I
0.0,5.0,1.0,1.0,5.0,5.0,497.4317169981077,6.0,0.0,part_2,stop,350.0,150.0,3.0,,,,,,,,,orange,I
0.0,2.0,2.0,0.0,5.0,5.0,612.7612420241348,6.0,0.0,part_2,go,300.0,150.0,1.0,,,,,,,,,magenta,hexagon
0.0,8.0,4.0,1.0,6.0,6.0,303.922904015053,6.0,0.0,part_2,stop,300.0,150.0,3.0,,,,,,,,,cyan,diamond
0.0,3.0,3.0,0.0,6.0,6.0,568.518612999469,6.0,0.0,part_2,go,300.0,100.0,1.0,,,,,,,,,yellow,triangle
0.0,4.0,4.0,0.0,6.0,6.0,401.4912860002368,6.0,0.0,part_2,go,300.0,100.0,1.0,,,,,,,,,white,flipped triangle
0.0,2.0,2.0,0.0,6.0,6.0,489.5651000551879,6.0,0.0,part_2,go,300.0,100.0,1.0,,,,,,,,,magenta,hexagon
0.0,6.0,2.0,1.0,5.0,5.0,570.0316830188967,6.0,0.0,part_2,go,300.0,100.0,1.0,,,,,,,,,green,circle
0.0,6.0,2.0,1.0,6.0,0.0,0.0,6.0,0.0,part_2,stop,300.0,100.0,4.0,,,,,,,,,green,circle
0.0,7.0,3.0,1.0,6.0,0.0,0.0,6.0,0.0,part_2,stop,300.0,150.0,4.0,,,,,,,,,gray,cross
0.0,4.0,4.0,0.0,6.0,6.0,479.7408800222911,6.0,0.0,part_2,go,300.0,200.0,1.0,,,,,,,,,white,flipped triangle
0.0,6.0,2.0,1.0,5.0,5.0,326.855126011651,6.0,0.0,part_2,stop,300.0,200.0,3.0,,,,,,,,,green,circle
0.0,4.0,4.0,0.0,5.0,5.0,379.7171979676932,6.0,0.0,part_2,go,250.0,200.0,1.0,,,,,,,,,white,flipped triangle
0.0,2.0,2.0,0.0,5.0,5.0,670.7746220054105,6.0,0.0,part_2,go,250.0,200.0,1.0,,,,,,,,,magenta,hexagon
0.0,7.0,3.0,1.0,5.0,5.0,387.3266899609007,6.0,0.0,part_2,go,250.0,200.0,1.0,,,,,,,,,gray,cross
0.0,5.0,1.0,1.0,6.0,0.0,0.0,6.0,0.0,part_2,stop,250.0,200.0,4.0,,,,,,,,,orange,I
0.0,4.0,4.0,0.0,6.0,6.0,371.2051309994422,6.0,0.0,part_2,go,250.0,250.0,1.0,,,,,,,,,white,flipped triangle
0.0,8.0,4.0,1.0,5.0,5.0,474.2434130166657,6.0,0.0,part_2,stop,250.0,250.0,3.0,,,,,,,,,cyan,diamond
0.0,1.0,1.0,0.0,5.0,5.0,561.9259200175293,6.0,0.0,part_2,go,200.0,250.0,1.0,,,,,,,,,blue,square
0.0,8.0,4.0,1.0,6.0,6.0,367.7081149653531,6.0,0.0,part_2,go,200.0,250.0,1.0,,,,,,,,,cyan,diamond
0.0,8.0,4.0,1.0,5.0,0.0,0.0,6.0,0.0,part_2,stop,200.0,250.0,4.0,,,,,,,,,cyan,diamond
0.0,2.0,2.0,0.0,6.0,6.0,363.5643069865182,7.0,0.0,part_2,go,250.0,250.0,1.0,,,,,,,,,magenta,hexagon
0.0,5.0,1.0,1.0,6.0,6.0,401.9750430015847,7.0,0.0,part_2,go,250.0,250.0,1.0,,,,,,,,,orange,I
0.0,8.0,4.0,1.0,6.0,6.0,384.9348320509307,7.0,0.0,part_2,stop,250.0,250.0,3.0,,,,,,,,,cyan,diamond
0.0,2.0,2.0,0.0,6.0,6.0,530.3405520389788,7.0,0.0,part_2,go,250.0,200.0,1.0,,,,,,,,,magenta,hexagon
0.0,6.0,2.0,1.0,5.0,5.0,337.6274679903872,7.0,0.0,part_2,stop,250.0,200.0,3.0,,,,,,,,,green,circle
0.0,5.0,1.0,1.0,6.0,0.0,0.0,7.0,0.0,part_2,stop,200.0,200.0,4.0,,,,,,,,,orange,I
0.0,1.0,1.0,0.0,6.0,6.0,565.1545600267127,7.0,0.0,part_2,go,200.0,250.0,1.0,,,,,,,,,blue,square
0.0,5.0,1.0,1.0,5.0,5.0,318.129435996525,7.0,0.0,part_2,go,200.0,250.0,1.0,,,,,,,,,orange,I
0.0,1.0,1.0,0.0,6.0,6.0,383.3185399998911,7.0,0.0,part_2,go,200.0,250.0,1.0,,,,,,,,,blue,square
0.0,3.0,3.0,0.0,6.0,6.0,364.9831269867718,7.0,0.0,part_2,go,200.0,250.0,1.0,,,,,,,,,yellow,triangle
0.0,1.0,1.0,0.0,5.0,5.0,462.3687329585664,7.0,0.0,part_2,go,200.0,250.0,1.0,,,,,,,,,blue,square
0.0,2.0,2.0,0.0,5.0,5.0,413.7313819956034,7.0,0.0,part_2,go,200.0,250.0,1.0,,,,,,,,,magenta,hexagon
0.0,7.0,3.0,1.0,5.0,5.0,420.9253879962489,7.0,0.0,part_2,go,200.0,250.0,1.0,,,,,,,,,gray,cross
0.0,3.0,3.0,0.0,6.0,6.0,323.9310400094837,7.0,0.0,part_2,go,200.0,250.0,1.0,,,,,,,,,yellow,triangle
0.0,4.0,4.0,0.0,6.0,6.0,312.3934169998392,7.0,0.0,part_2,go,200.0,250.0,1.0,,,,,,,,,white,flipped triangle
0.0,5.0,1.0,1.0,5.0,5.0,322.1052199951373,7.0,0.0,part_2,stop,200.0,250.0,3.0,,,,,,,,,orange,I
0.0,1.0,1.0,0.0,6.0,6.0,434.0236379648559,7.0,0.0,part_2,go,150.0,250.0,1.0,,,,,,,,,blue,square
0.0,5.0,1.0,1.0,5.0,0.0,0.0,7.0,0.0,part_2,stop,150.0,250.0,4.0,,,,,,,,,orange,I
0.0,8.0,4.0,1.0,5.0,5.0,401.4415949932299,7.0,0.0,part_2,go,200.0,250.0,1.0,,,,,,,,,cyan,diamond
0.0,3.0,3.0,0.0,5.0,5.0,421.2817610241472,7.0,0.0,part_2,go,200.0,250.0,1.0,,,,,,,,,yellow,triangle
0.0,4.0,4.0,0.0,6.0,6.0,312.4615690321661,7.0,0.0,part_2,go,200.0,250.0,1.0,,,,,,,,,white,flipped triangle
0.0,8.0,4.0,1.0,5.0,5.0,412.2952400357462,7.0,0.0,part_2,go,200.0,250.0,1.0,,,,,,,,,cyan,diamond
0.0,7.0,3.0,1.0,6.0,6.0,302.338785957545,7.0,0.0,part_2,stop,200.0,250.0,3.0,,,,,,,,,gray,cross
0.0,7.0,3.0,1.0,5.0,0.0,0.0,7.0,0.0,part_2,stop,200.0,200.0,4.0,,,,,,,,,gray,cross
0.0,4.0,4.0,0.0,6.0,6.0,339.2581319785677,7.0,0.0,part_2,go,250.0,200.0,1.0,,,,,,,,,white,flipped triangle
0.0,6.0,2.0,1.0,5.0,5.0,330.1886840490624,7.0,0.0,part_2,stop,250.0,200.0,3.0,,,,,,,,,green,circle
0.0,6.0,2.0,1.0,6.0,6.0,564.9248459958471,7.0,0.0,part_2,go,200.0,200.0,1.0,,,,,,,,,green,circle
0.0,3.0,3.0,0.0,6.0,6.0,490.1610109955072,7.0,0.0,part_2,go,200.0,200.0,1.0,,,,,,,,,yellow,triangle
0.0,2.0,2.0,0.0,6.0,6.0,385.3492519701831,7.0,0.0,part_2,go,200.0,200.0,1.0,,,,,,,,,magenta,hexagon
0.0,5.0,1.0,1.0,5.0,0.0,0.0,7.0,0.0,part_2,stop,200.0,200.0,4.0,,,,,,,,,orange,I
0.0,2.0,2.0,0.0,5.0,5.0,351.5125259873457,7.0,0.0,part_2,go,250.0,200.0,1.0,,,,,,,,,magenta,hexagon
0.0,6.0,2.0,1.0,5.0,5.0,394.2284639924764,7.0,0.0,part_2,stop,250.0,200.0,3.0,,,,,,,,,green,circle
0.0,5.0,1.0,1.0,6.0,6.0,305.5718310060911,7.0,0.0,part_2,stop,200.0,200.0,3.0,,,,,,,,,orange,I
0.0,3.0,3.0,0.0,5.0,5.0,326.4185800217092,7.0,0.0,part_2,go,200.0,150.0,1.0,,,,,,,,,yellow,triangle
0.0,4.0,4.0,0.0,5.0,5.0,319.771108974237,7.0,0.0,part_2,go,200.0,150.0,1.0,,,,,,,,,white,flipped triangle
0.0,3.0,3.0,0.0,5.0,5.0,357.0355449919589,7.0,0.0,part_2,go,200.0,150.0,1.0,,,,,,,,,yellow,triangle
0.0,7.0,3.0,1.0,5.0,0.0,0.0,8.0,0.0,part_2,stop,200.0,150.0,4.0,,,,,,,,,gray,cross
0.0,5.0,1.0,1.0,6.0,6.0,628.2940909732133,8.0,0.0,part_2,go,250.0,150.0,1.0,,,,,,,,,orange,I
0.0,3.0,3.0,0.0,6.0,6.0,362.492362037301,8.0,0.0,part_2,go,250.0,150.0,1.0,,,,,,,,,yellow,triangle
0.0,4.0,4.0,0.0,6.0,6.0,386.0983019694686,8.0,0.0,part_2,go,250.0,150.0,1.0,,,,,,,,,white,flipped triangle
0.0,3.0,3.0,0.0,6.0,6.0,401.2710970127955,8.0,0.0,part_2,go,250.0,150.0,1.0,,,,,,,,,yellow,triangle
0.0,2.0,2.0,0.0,5.0,5.0,388.247410999611,8.0,0.0,part_2,go,250.0,150.0,1.0,,,,,,,,,magenta,hexagon
0.0,6.0,2.0,1.0,6.0,0.0,0.0,8.0,0.0,part_2,stop,250.0,150.0,4.0,,,,,,,,,green,circle
0.0,1.0,1.0,0.0,5.0,5.0,348.253806005232,8.0,0.0,part_2,go,250.0,200.0,1.0,,,,,,,,,blue,square
0.0,1.0,1.0,0.0,5.0,5.0,465.9175340202637,8.0,0.0,part_2,go,250.0,200.0,1.0,,,,,,,,,blue,square
0.0,7.0,3.0,1.0,6.0,6.0,400.8818909642286,8.0,0.0,part_2,go,250.0,200.0,1.0,,,,,,,,,gray,cross
0.0,2.0,2.0,0.0,6.0,6.0,391.3722249562852,8.0,0.0,part_2,go,250.0,200.0,1.0,,,,,,,,,magenta,hexagon
0.0,5.0,1.0,1.0,6.0,6.0,327.9959060018882,8.0,0.0,part_2,stop,250.0,200.0,3.0,,,,,,,,,orange,I
0.0,2.0,2.0,0.0,5.0,5.0,486.0708869528025,8.0,0.0,part_2,go,250.0,150.0,1.0,,,,,,,,,magenta,hexagon
0.0,3.0,3.0,0.0,5.0,5.0,383.4069930016994,8.0,0.0,part_2,go,250.0,150.0,1.0,,,,,,,,,yellow,triangle
0.0,4.0,4.0,0.0,6.0,6.0,446.0183740011416,8.0,0.0,part_2,go,250.0,150.0,1.0,,,,,,,,,white,flipped triangle
0.0,3.0,3.0,0.0,5.0,5.0,556.1779019772075,8.0,0.0,part_2,go,250.0,150.0,1.0,,,,,,,,,yellow,triangle
0.0,1.0,1.0,0.0,6.0,6.0,564.1893239808269,8.0,0.0,part_2,go,250.0,150.0,1.0,,,,,,,,,blue,square
0.0,7.0,3.0,1.0,6.0,0.0,0.0,8.0,0.0,part_2,stop,250.0,150.0,4.0,,,,,,,,,gray,cross
0.0,8.0,4.0,1.0,6.0,0.0,0.0,8.0,0.0,part_2,stop,250.0,200.0,4.0,,,,,,,,,cyan,diamond
0.0,1.0,1.0,0.0,6.0,6.0,409.6311969915405,8.0,0.0,part_2,go,250.0,250.0,1.0,,,,,,,,,blue,square
0.0,2.0,2.0,0.0,5.0,5.0,433.5416000103578,8.0,0.0,part_2,go,250.0,250.0,1.0,,,,,,,,,magenta,hexagon
0.0,4.0,4.0,0.0,5.0,5.0,488.8047919957898,8.0,0.0,part_2,go,250.0,250.0,1.0,,,,,,,,,white,flipped triangle
0.0,3.0,3.0,0.0,5.0,5.0,305.5811889935285,8.0,0.0,part_2,go,250.0,250.0,1.0,,,,,,,,,yellow,triangle
0.0,5.0,1.0,1.0,6.0,0.0,0.0,8.0,0.0,part_2,stop,250.0,250.0,4.0,,,,,,,,,orange,I
0.0,4.0,4.0,0.0,6.0,6.0,410.4880199884064,8.0,0.0,part_2,go,250.0,300.0,1.0,,,,,,,,,white,flipped triangle
0.0,8.0,4.0,1.0,5.0,0.0,0.0,8.0,0.0,part_2,stop,250.0,300.0,4.0,,,,,,,,,cyan,diamond
0.0,7.0,3.0,1.0,5.0,0.0,0.0,8.0,0.0,part_2,stop,300.0,300.0,4.0,,,,,,,,,gray,cross
0.0,8.0,4.0,1.0,6.0,6.0,497.132248012349,8.0,0.0,part_2,go,350.0,300.0,1.0,,,,,,,,,cyan,diamond
0.0,7.0,3.0,1.0,6.0,6.0,567.9757199832238,8.0,0.0,part_2,go,350.0,300.0,1.0,,,,,,,,,gray,cross
0.0,4.0,4.0,0.0,6.0,6.0,477.3295980412513,8.0,0.0,part_2,go,350.0,300.0,1.0,,,,,,,,,white,flipped triangle
0.0,7.0,3.0,1.0,5.0,5.0,653.3070839941502,8.0,0.0,part_2,go,350.0,300.0,1.0,,,,,,,,,gray,cross
0.0,5.0,1.0,1.0,6.0,0.0,0.0,8.0,0.0,part_2,stop,350.0,300.0,4.0,,,,,,,,,orange,I
0.0,4.0,4.0,0.0,5.0,5.0,474.4219770072959,8.0,0.0,part_2,go,350.0,350.0,1.0,,,,,,,,,white,flipped triangle
0.0,4.0,4.0,0.0,5.0,5.0,380.177199956961,8.0,0.0,part_2,go,350.0,350.0,1.0,,,,,,,,,white,flipped triangle
0.0,5.0,1.0,1.0,6.0,6.0,386.3611380220391,8.0,0.0,part_2,stop,350.0,350.0,3.0,,,,,,,,,orange,I
0.0,7.0,3.0,1.0,6.0,0.0,0.0,8.0,0.0,part_2,stop,350.0,300.0,4.0,,,,,,,,,gray,cross
0.0,8.0,4.0,1.0,7.0,4.0,1956.7549089551903,1.0,2.0,part_3,go,0.0,0.0,0.0,294.0,6.0,147.0,196.0,49.0,294.0,245.0,98.0,cyan,diamond
0.0,5.0,1.0,1.0,7.0,1.0,1727.406238031108,1.0,1.0,part_3,go,0.0,0.0,0.0,147.0,3.0,147.0,245.0,49.0,98.0,294.0,196.0,orange,I
0.0,7.0,3.0,1.0,7.0,4.0,1653.5029229708016,1.0,1.0,part_3,go,0.0,0.0,0.0,176.0,4.0,88.0,132.0,220.0,176.0,264.0,44.0,gray,cross
0.0,8.0,4.0,1.0,7.0,2.0,1602.4716449901462,1.0,1.0,part_3,go,0.0,0.0,0.0,147.0,3.0,49.0,147.0,98.0,196.0,245.0,294.0,cyan,diamond
0.0,1.0,1.0,0.0,7.0,5.0,1111.847965978086,1.0,1.0,part_3,go,0.0,0.0,0.0,204.0,6.0,102.0,170.0,68.0,34.0,204.0,136.0,blue,square
0.0,2.0,2.0,0.0,7.0,6.0,1122.2784880083054,1.0,1.0,part_3,go,0.0,0.0,0.0,162.0,3.0,324.0,270.0,54.0,108.0,216.0,162.0,magenta,hexagon
0.0,5.0,1.0,1.0,7.0,4.0,1756.619366991799,1.0,1.0,part_3,go,0.0,0.0,0.0,78.0,2.0,156.0,234.0,39.0,78.0,117.0,195.0,orange,I
0.0,2.0,2.0,0.0,7.0,6.0,988.408244040329,1.0,1.0,part_3,go,0.0,0.0,0.0,78.0,2.0,156.0,195.0,117.0,234.0,39.0,78.0,magenta,hexagon
0.0,7.0,3.0,1.0,7.0,2.0,989.090588002,1.0,1.0,part_3,go,0.0,0.0,0.0,68.0,2.0,102.0,68.0,34.0,204.0,170.0,136.0,gray,cross
0.0,8.0,4.0,1.0,7.0,5.0,889.1514929709956,1.0,1.0,part_3,go,0.0,0.0,0.0,270.0,5.0,162.0,216.0,324.0,108.0,270.0,54.0,cyan,diamond
0.0,1.0,1.0,0.0,7.0,1.0,707.2860799962655,1.0,1.0,part_3,go,0.0,0.0,0.0,294.0,6.0,294.0,147.0,98.0,49.0,196.0,245.0,blue,square
0.0,7.0,3.0,1.0,7.0,5.0,1033.121575950645,1.0,1.0,part_3,go,0.0,0.0,0.0,78.0,2.0,195.0,156.0,39.0,117.0,78.0,234.0,gray,cross
0.0,6.0,2.0,1.0,7.0,3.0,1620.1337850070558,1.0,1.0,part_3,go,0.0,0.0,0.0,117.0,3.0,78.0,234.0,117.0,195.0,156.0,39.0,green,circle
0.0,7.0,3.0,1.0,7.0,6.0,716.4685449679382,1.0,1.0,part_3,go,0.0,0.0,0.0,117.0,3.0,156.0,234.0,195.0,39.0,78.0,117.0,gray,cross
0.0,4.0,4.0,0.0,7.0,5.0,1013.1402689730749,1.0,1.0,part_3,go,0.0,0.0,0.0,132.0,3.0,264.0,88.0,44.0,176.0,132.0,220.0,white,flipped triangle
0.0,3.0,3.0,0.0,7.0,1.0,1186.2858749809675,1.0,1.0,part_3,go,0.0,0.0,0.0,162.0,3.0,162.0,54.0,108.0,216.0,324.0,270.0,yellow,triangle
0.0,1.0,1.0,0.0,7.0,6.0,1587.6185959787108,1.0,1.0,part_3,go,0.0,0.0,0.0,324.0,6.0,270.0,162.0,108.0,54.0,216.0,324.0,blue,square
0.0,6.0,2.0,1.0,7.0,3.0,1570.056164986454,1.0,1.0,part_3,go,0.0,0.0,0.0,44.0,1.0,264.0,176.0,44.0,132.0,88.0,220.0,green,circle
0.0,1.0,1.0,0.0,7.0,2.0,1306.388478027657,1.0,1.0,part_3,go,0.0,0.0,0.0,234.0,6.0,156.0,234.0,195.0,39.0,117.0,78.0,blue,square
0.0,5.0,1.0,1.0,7.0,5.0,1103.325363015756,1.0,1.0,part_3,go,0.0,0.0,0.0,132.0,3.0,264.0,88.0,176.0,44.0,132.0,220.0,orange,I
0.0,5.0,1.0,1.0,7.0,1.0,1151.7580969957637,2.0,1.0,part_3,go,0.0,0.0,0.0,136.0,4.0,136.0,170.0,102.0,204.0,34.0,68.0,orange,I
0.0,8.0,4.0,1.0,7.0,5.0,1094.3175239954144,2.0,1.0,part_3,go,0.0,0.0,0.0,156.0,4.0,117.0,39.0,234.0,195.0,156.0,78.0,cyan,diamond
0.0,6.0,2.0,1.0,7.0,5.0,1898.7034569727257,2.0,1.0,part_3,go,0.0,0.0,0.0,88.0,2.0,220.0,264.0,176.0,132.0,88.0,44.0,green,circle
0.0,6.0,2.0,1.0,7.0,6.0,1035.9566200058907,2.0,1.0,part_3,go,0.0,0.0,0.0,98.0,2.0,245.0,196.0,147.0,49.0,294.0,98.0,green,circle
0.0,1.0,1.0,0.0,7.0,1.0,1372.6318110129796,2.0,1.0,part_3,go,0.0,0.0,0.0,234.0,6.0,234.0,78.0,195.0,117.0,39.0,156.0,blue,square
0.0,6.0,2.0,1.0,7.0,1.0,1382.6734949834645,2.0,1.0,part_3,go,0.0,0.0,0.0,170.0,5.0,170.0,34.0,68.0,136.0,102.0,204.0,green,circle
0.0,6.0,2.0,1.0,7.0,5.0,880.2426370093599,2.0,1.0,part_3,go,0.0,0.0,0.0,136.0,4.0,204.0,68.0,102.0,34.0,136.0,170.0,green,circle
0.0,3.0,3.0,0.0,7.0,1.0,871.4999870280735,2.0,1.0,part_3,go,0.0,0.0,0.0,78.0,2.0,78.0,117.0,234.0,156.0,195.0,39.0,yellow,triangle
0.0,8.0,4.0,1.0,7.0,5.0,1114.7140020038933,2.0,1.0,part_3,go,0.0,0.0,0.0,216.0,4.0,162.0,108.0,324.0,270.0,216.0,54.0,cyan,diamond
0.0,5.0,1.0,1.0,7.0,1.0,1745.5164790153503,2.0,1.0,part_3,go,0.0,0.0,0.0,102.0,3.0,102.0,68.0,170.0,136.0,204.0,34.0,orange,I
0.0,7.0,3.0,1.0,7.0,6.0,821.1970379925333,2.0,1.0,part_3,go,0.0,0.0,0.0,98.0,2.0,245.0,49.0,147.0,196.0,294.0,98.0,gray,cross
0.0,4.0,4.0,0.0,7.0,1.0,943.1696079554968,2.0,1.0,part_3,go,0.0,0.0,0.0,147.0,3.0,147.0,98.0,196.0,294.0,49.0,245.0,white,flipped triangle
0.0,2.0,2.0,0.0,7.0,5.0,896.0322949569672,2.0,1.0,part_3,go,0.0,0.0,0.0,49.0,1.0,98.0,147.0,196.0,294.0,49.0,245.0,magenta,hexagon
0.0,6.0,2.0,1.0,7.0,1.0,1720.94210999785,2.0,1.0,part_3,go,0.0,0.0,0.0,270.0,5.0,270.0,108.0,54.0,162.0,324.0,216.0,green,circle
0.0,4.0,4.0,0.0,7.0,6.0,1376.0261459974572,2.0,1.0,part_3,go,0.0,0.0,0.0,117.0,3.0,195.0,234.0,39.0,156.0,78.0,117.0,white,flipped triangle
0.0,5.0,1.0,1.0,7.0,6.0,1241.421395970974,2.0,1.0,part_3,go,0.0,0.0,0.0,54.0,1.0,324.0,162.0,216.0,270.0,108.0,54.0,orange,I
0.0,4.0,4.0,0.0,7.0,1.0,1483.1898959819227,2.0,1.0,part_3,go,0.0,0.0,0.0,136.0,4.0,136.0,170.0,102.0,68.0,34.0,204.0,white,flipped triangle
0.0,5.0,1.0,1.0,7.0,1.0,1711.486964020878,2.0,1.0,part_3,go,0.0,0.0,0.0,108.0,2.0,108.0,162.0,216.0,54.0,324.0,270.0,orange,I
0.0,2.0,2.0,0.0,7.0,5.0,695.016540994402,2.0,1.0,part_3,go,0.0,0.0,0.0,234.0,6.0,156.0,39.0,195.0,78.0,234.0,117.0,magenta,hexagon
0.0,1.0,1.0,0.0,7.0,5.0,1872.281802003272,2.0,1.0,part_3,go,0.0,0.0,0.0,270.0,5.0,54.0,216.0,162.0,324.0,270.0,108.0,blue,square
0.0,3.0,3.0,0.0,7.0,1.0,786.1431679921225,3.0,1.0,part_3,go,0.0,0.0,0.0,220.0,5.0,220.0,44.0,132.0,88.0,264.0,176.0,yellow,triangle
0.0,4.0,4.0,0.0,7.0,6.0,1042.695996002294,3.0,1.0,part_3,go,0.0,0.0,0.0,117.0,3.0,195.0,78.0,234.0,156.0,39.0,117.0,white,flipped triangle
0.0,4.0,4.0,0.0,7.0,1.0,1267.3236280097626,3.0,1.0,part_3,go,0.0,0.0,0.0,162.0,3.0,162.0,108.0,324.0,54.0,216.0,270.0,white,flipped triangle
0.0,8.0,4.0,1.0,7.0,1.0,1162.316137982998,3.0,1.0,part_3,go,0.0,0.0,0.0,264.0,6.0,264.0,88.0,176.0,220.0,44.0,132.0,cyan,diamond
0.0,3.0,3.0,0.0,7.0,2.0,1863.7337679974737,3.0,1.0,part_3,go,0.0,0.0,0.0,176.0,4.0,88.0,176.0,132.0,44.0,264.0,220.0,yellow,triangle
0.0,7.0,3.0,1.0,7.0,6.0,967.1532170032152,3.0,1.0,part_3,go,0.0,0.0,0.0,54.0,1.0,324.0,162.0,270.0,108.0,216.0,54.0,gray,cross
0.0,4.0,4.0,0.0,7.0,6.0,1489.1418460174464,3.0,1.0,part_3,go,0.0,0.0,0.0,88.0,2.0,132.0,176.0,264.0,44.0,220.0,88.0,white,flipped triangle
0.0,6.0,2.0,1.0,7.0,1.0,743.8892140053213,3.0,1.0,part_3,go,0.0,0.0,0.0,108.0,2.0,108.0,54.0,324.0,216.0,270.0,162.0,green,circle
0.0,4.0,4.0,0.0,7.0,6.0,1001.8036960391328,3.0,1.0,part_3,go,0.0,0.0,0.0,216.0,4.0,54.0,162.0,324.0,270.0,108.0,216.0,white,flipped triangle
0.0,1.0,1.0,0.0,7.0,1.0,1914.8153890273536,3.0,1.0,part_3,go,0.0,0.0,0.0,170.0,5.0,170.0,204.0,68.0,34.0,136.0,102.0,blue,square
0.0,4.0,4.0,0.0,7.0,5.0,1693.920577003155,3.0,1.0,part_3,go,0.0,0.0,0.0,147.0,3.0,98.0,49.0,245.0,196.0,147.0,294.0,white,flipped triangle
0.0,5.0,1.0,1.0,7.0,6.0,869.0246269688942,3.0,1.0,part_3,go,0.0,0.0,0.0,88.0,2.0,132.0,176.0,44.0,220.0,264.0,88.0,orange,I
0.0,3.0,3.0,0.0,7.0,2.0,1624.086174997501,3.0,1.0,part_3,go,0.0,0.0,0.0,170.0,5.0,68.0,170.0,102.0,136.0,34.0,204.0,yellow,triangle
0.0,7.0,3.0,1.0,7.0,3.0,1632.8472290188074,3.0,1.0,part_3,go,0.0,0.0,0.0,49.0,1.0,196.0,245.0,49.0,147.0,294.0,98.0,gray,cross
0.0,2.0,2.0,0.0,7.0,2.0,1379.7136669745669,3.0,1.0,part_3,go,0.0,0.0,0.0,34.0,1.0,68.0,34.0,102.0,136.0,204.0,170.0,magenta,hexagon
0.0,8.0,4.0,1.0,7.0,2.0,1189.972937980201,3.0,1.0,part_3,go,0.0,0.0,0.0,220.0,5.0,176.0,220.0,44.0,132.0,88.0,264.0,cyan,diamond
0.0,2.0,2.0,0.0,7.0,5.0,1012.5865219742991,3.0,1.0,part_3,go,0.0,0.0,0.0,44.0,1.0,264.0,220.0,88.0,132.0,44.0,176.0,magenta,hexagon
0.0,1.0,1.0,0.0,7.0,2.0,1487.2786939959042,3.0,1.0,part_3,go,0.0,0.0,0.0,264.0,6.0,220.0,264.0,88.0,176.0,44.0,132.0,blue,square
0.0,7.0,3.0,1.0,7.0,5.0,986.4969949703664,3.0,1.0,part_3,go,0.0,0.0,0.0,68.0,2.0,170.0,34.0,102.0,136.0,68.0,204.0,gray,cross
0.0,4.0,4.0,0.0,7.0,1.0,736.8430320057087,3.0,1.0,part_3,go,0.0,0.0,0.0,170.0,5.0,170.0,68.0,204.0,102.0,34.0,136.0,white,flipped triangle
0.0,8.0,4.0,1.0,7.0,2.0,1375.5591800436378,4.0,1.0,part_3,go,0.0,0.0,0.0,204.0,6.0,170.0,204.0,34.0,136.0,68.0,102.0,cyan,diamond
0.0,2.0,2.0,0.0,7.0,5.0,1160.5487099732272,4.0,1.0,part_3,go,0.0,0.0,0.0,54.0,1.0,108.0,162.0,270.0,324.0,54.0,216.0,magenta,hexagon
0.0,1.0,1.0,0.0,7.0,3.0,1360.56025698781,4.0,1.0,part_3,go,0.0,0.0,0.0,245.0,5.0,294.0,98.0,245.0,49.0,196.0,147.0,blue,square
0.0,3.0,3.0,0.0,7.0,1.0,1336.452557996381,4.0,1.0,part_3,go,0.0,0.0,0.0,170.0,5.0,170.0,102.0,204.0,136.0,34.0,68.0,yellow,triangle
0.0,2.0,2.0,0.0,7.0,6.0,899.8831940116361,4.0,1.0,part_3,go,0.0,0.0,0.0,49.0,1.0,98.0,245.0,196.0,147.0,294.0,49.0,magenta,hexagon
0.0,2.0,2.0,0.0,7.0,6.0,885.3540570125915,4.0,1.0,part_3,go,0.0,0.0,0.0,68.0,2.0,102.0,170.0,136.0,34.0,204.0,68.0,magenta,hexagon
0.0,3.0,3.0,0.0,7.0,1.0,933.366257988382,4.0,1.0,part_3,go,0.0,0.0,0.0,156.0,4.0,156.0,39.0,234.0,78.0,117.0,195.0,yellow,triangle
0.0,5.0,1.0,1.0,7.0,6.0,1560.8275500126183,4.0,1.0,part_3,go,0.0,0.0,0.0,39.0,1.0,195.0,117.0,156.0,234.0,78.0,39.0,orange,I
0.0,3.0,3.0,0.0,7.0,2.0,1192.2788269584998,4.0,1.0,part_3,go,0.0,0.0,0.0,196.0,4.0,147.0,196.0,294.0,98.0,245.0,49.0,yellow,triangle
0.0,3.0,3.0,0.0,7.0,3.0,2034.993809997104,4.0,1.0,part_3,go,0.0,0.0,0.0,147.0,3.0,294.0,245.0,147.0,196.0,49.0,98.0,yellow,triangle
0.0,8.0,4.0,1.0,7.0,6.0,1362.0787339750675,4.0,1.0,part_3,go,0.0,0.0,0.0,234.0,6.0,117.0,78.0,156.0,195.0,39.0,234.0,cyan,diamond
0.0,3.0,3.0,0.0,7.0,2.0,1139.8122980026528,4.0,1.0,part_3,go,0.0,0.0,0.0,108.0,2.0,270.0,108.0,162.0,324.0,54.0,216.0,yellow,triangle
0.0,8.0,4.0,1.0,7.0,1.0,1079.2444869875908,4.0,1.0,part_3,go,0.0,0.0,0.0,204.0,6.0,204.0,170.0,102.0,34.0,136.0,68.0,cyan,diamond
0.0,6.0,2.0,1.0,7.0,5.0,1495.1990830013528,4.0,1.0,part_3,go,0.0,0.0,0.0,195.0,5.0,156.0,234.0,117.0,78.0,195.0,39.0,green,circle
0.0,7.0,3.0,1.0,7.0,2.0,1335.66891704686,4.0,1.0,part_3,go,0.0,0.0,0.0,54.0,1.0,324.0,54.0,270.0,108.0,216.0,162.0,gray,cross
0.0,6.0,2.0,1.0,7.0,5.0,969.1601800150238,4.0,1.0,part_3,go,0.0,0.0,0.0,49.0,1.0,294.0,196.0,98.0,245.0,49.0,147.0,green,circle
0.0,5.0,1.0,1.0,7.0,5.0,1467.42624102626,4.0,1.0,part_3,go,0.0,0.0,0.0,147.0,3.0,294.0,196.0,245.0,98.0,147.0,49.0,orange,I
0.0,2.0,2.0,0.0,7.0,3.0,1222.2972760209814,4.0,1.0,part_3,go,0.0,0.0,0.0,44.0,1.0,132.0,264.0,44.0,220.0,88.0,176.0,magenta,hexagon
0.0,1.0,1.0,0.0,7.0,1.0,999.0753669990228,4.0,1.0,part_3,go,0.0,0.0,0.0,220.0,5.0,220.0,132.0,176.0,264.0,88.0,44.0,blue,square
0.0,7.0,3.0,1.0,7.0,3.0,858.1987969810143,4.0,1.0,part_3,go,0.0,0.0,0.0,264.0,6.0,132.0,88.0,264.0,220.0,44.0,176.0,gray,cross
