raw_reward_magnitude,stim_reward,stepwise_reward_magnitude,paired_with_stopping,stim_location,response,reaction_time,block,num_trial_presentations,which_phase,stop_signal_trial_type,left_SSD,right_SSD,accuracy,chosen_bidding_amount,chosen_bidding_level,possible_bid_1,possible_bid_2,possible_bid_3,possible_bid_4,possible_bid_5,possible_bid_6,color_text,shape_text
84.0,6.0,1.0,1.0,1.0,1.0,349.8489720514044,1.0,1.0,phase_1,,,,,,,,,,,,,magenta,hexagon
41.0,1.0,0.5,0.0,2.0,2.0,457.4251400190405,1.0,1.0,phase_1,,,,,,,,,,,,,orange,flipped triangle
392.0,8.0,4.0,1.0,2.0,2.0,391.3340150029398,1.0,1.0,phase_1,,,,,,,,,,,,,white,I
91.0,2.0,1.0,0.0,4.0,4.0,316.0678060376085,1.0,1.0,phase_1,,,,,,,,,,,,,yellow,circle
73.0,1.0,0.5,0.0,1.0,1.0,329.81107494561,1.0,1.0,phase_1,,,,,,,,,,,,,orange,flipped triangle
405.0,8.0,4.0,1.0,4.0,4.0,368.0828210199252,1.0,1.0,phase_1,,,,,,,,,,,,,white,I
46.0,1.0,0.5,0.0,1.0,1.0,260.5056409956887,1.0,1.0,phase_1,,,,,,,,,,,,,orange,flipped triangle
0.0,3.0,0.0,0.0,3.0,3.0,321.7154260491952,1.0,1.0,phase_1,,,,,,,,,,,,,cyan,triangle
106.0,6.0,1.0,1.0,1.0,1.0,356.0619410127401,1.0,1.0,phase_1,,,,,,,,,,,,,magenta,hexagon
397.0,8.0,4.0,1.0,4.0,4.0,337.8827690030448,1.0,1.0,phase_1,,,,,,,,,,,,,white,I
74.0,5.0,0.5,1.0,3.0,3.0,333.1249990151264,1.0,1.0,phase_1,,,,,,,,,,,,,green,square
95.0,2.0,1.0,0.0,2.0,2.0,313.3336039609276,1.0,1.0,phase_1,,,,,,,,,,,,,yellow,circle
178.0,7.0,2.0,1.0,1.0,1.0,279.5929809799418,1.0,1.0,phase_1,,,,,,,,,,,,,blue,cross
0.0,2.0,0.0,0.0,4.0,4.0,395.6680210540071,1.0,1.0,phase_1,,,,,,,,,,,,,yellow,circle
102.0,2.0,1.0,0.0,2.0,2.0,359.3211789848283,1.0,1.0,phase_1,,,,,,,,,,,,,yellow,circle
0.0,3.0,0.0,0.0,1.0,1.0,318.4356830315664,1.0,1.0,phase_1,,,,,,,,,,,,,cyan,triangle
0.0,5.0,0.0,1.0,4.0,4.0,345.957635960076,1.0,1.0,phase_1,,,,,,,,,,,,,green,square
0.0,4.0,0.0,0.0,2.0,2.0,372.6795730181038,1.0,1.0,phase_1,,,,,,,,,,,,,gray,diamond
425.0,8.0,4.0,1.0,1.0,1.0,252.1733939647674,1.0,1.0,phase_1,,,,,,,,,,,,,white,I
182.0,3.0,2.0,0.0,2.0,2.0,360.4201860143803,1.0,1.0,phase_1,,,,,,,,,,,,,cyan,triangle
0.0,3.0,0.0,0.0,2.0,2.0,277.8596630087122,1.0,1.0,phase_1,,,,,,,,,,,,,cyan,triangle
116.0,6.0,1.0,1.0,2.0,2.0,330.3961789933964,1.0,1.0,phase_1,,,,,,,,,,,,,magenta,hexagon
118.0,2.0,1.0,0.0,4.0,4.0,310.0408799946308,1.0,1.0,phase_1,,,,,,,,,,,,,yellow,circle
210.0,3.0,2.0,0.0,1.0,1.0,313.3279419853352,1.0,1.0,phase_1,,,,,,,,,,,,,cyan,triangle
0.0,5.0,0.0,1.0,1.0,1.0,319.9348740163259,1.0,1.0,phase_1,,,,,,,,,,,,,green,square
40.0,1.0,0.5,0.0,2.0,2.0,283.3909239852801,1.0,1.0,phase_1,,,,,,,,,,,,,orange,flipped triangle
406.0,4.0,4.0,0.0,2.0,2.0,305.4172729607671,1.0,1.0,phase_1,,,,,,,,,,,,,gray,diamond
0.0,1.0,0.0,0.0,4.0,4.0,293.4925929876044,1.0,1.0,phase_1,,,,,,,,,,,,,orange,flipped triangle
27.0,5.0,0.5,1.0,2.0,2.0,336.5521169616841,1.0,1.0,phase_1,,,,,,,,,,,,,green,square
116.0,2.0,1.0,0.0,1.0,1.0,320.5871770041995,1.0,1.0,phase_1,,,,,,,,,,,,,yellow,circle
121.0,6.0,1.0,1.0,1.0,1.0,308.7723449571058,1.0,1.0,phase_1,,,,,,,,,,,,,magenta,hexagon
392.0,4.0,4.0,0.0,4.0,4.0,345.3271220205351,1.0,1.0,phase_1,,,,,,,,,,,,,gray,diamond
194.0,7.0,2.0,1.0,3.0,3.0,283.8678970001638,1.0,1.0,phase_1,,,,,,,,,,,,,blue,cross
200.0,7.0,2.0,1.0,4.0,4.0,354.7697740141302,1.0,1.0,phase_1,,,,,,,,,,,,,blue,cross
29.0,5.0,0.5,1.0,1.0,1.0,263.0976699874736,1.0,1.0,phase_1,,,,,,,,,,,,,green,square
191.0,3.0,2.0,0.0,3.0,3.0,258.3853279938921,1.0,1.0,phase_1,,,,,,,,,,,,,cyan,triangle
383.0,8.0,4.0,1.0,4.0,4.0,322.3886750056408,1.0,2.0,phase_1,,,,,,,,,,,,,white,I
214.0,7.0,2.0,1.0,4.0,4.0,263.7959650019184,1.0,1.0,phase_1,,,,,,,,,,,,,blue,cross
383.0,4.0,4.0,0.0,1.0,1.0,523.8392740138806,1.0,1.0,phase_1,,,,,,,,,,,,,gray,diamond
425.0,8.0,4.0,1.0,2.0,2.0,362.3311719857156,1.0,1.0,phase_1,,,,,,,,,,,,,white,I
83.0,2.0,1.0,0.0,3.0,3.0,325.0312770251184,1.0,1.0,phase_1,,,,,,,,,,,,,yellow,circle
382.0,8.0,4.0,1.0,2.0,2.0,332.7995149884373,1.0,1.0,phase_1,,,,,,,,,,,,,white,I
63.0,5.0,0.5,1.0,2.0,2.0,328.7350800237618,1.0,1.0,phase_1,,,,,,,,,,,,,green,square
0.0,7.0,0.0,1.0,2.0,2.0,300.2611399861052,1.0,1.0,phase_1,,,,,,,,,,,,,blue,cross
211.0,3.0,2.0,0.0,3.0,3.0,321.9394069747068,1.0,1.0,phase_1,,,,,,,,,,,,,cyan,triangle
41.0,5.0,0.5,1.0,4.0,4.0,325.3453649813309,1.0,1.0,phase_1,,,,,,,,,,,,,green,square
44.0,5.0,0.5,1.0,2.0,2.0,280.6948309880681,1.0,1.0,phase_1,,,,,,,,,,,,,green,square
88.0,6.0,1.0,1.0,4.0,4.0,344.5305879577063,1.0,1.0,phase_1,,,,,,,,,,,,,magenta,hexagon
412.0,8.0,4.0,1.0,1.0,1.0,331.8949150270782,1.0,1.0,phase_1,,,,,,,,,,,,,white,I
0.0,4.0,0.0,0.0,2.0,2.0,303.1797669827938,1.0,1.0,phase_1,,,,,,,,,,,,,gray,diamond
34.0,5.0,0.5,1.0,4.0,4.0,414.8028789786622,1.0,1.0,phase_1,,,,,,,,,,,,,green,square
382.0,4.0,4.0,0.0,1.0,1.0,450.8310660021379,1.0,1.0,phase_1,,,,,,,,,,,,,gray,diamond
194.0,7.0,2.0,1.0,3.0,3.0,311.1261779558845,1.0,1.0,phase_1,,,,,,,,,,,,,blue,cross
0.0,2.0,0.0,0.0,3.0,3.0,316.7645400390029,1.0,1.0,phase_1,,,,,,,,,,,,,yellow,circle
109.0,2.0,1.0,0.0,2.0,2.0,327.3011230048723,1.0,1.0,phase_1,,,,,,,,,,,,,yellow,circle
405.0,4.0,4.0,0.0,3.0,3.0,303.158969967626,1.0,1.0,phase_1,,,,,,,,,,,,,gray,diamond
83.0,2.0,1.0,0.0,1.0,1.0,283.019489957951,1.0,1.0,phase_1,,,,,,,,,,,,,yellow,circle
412.0,4.0,4.0,0.0,4.0,4.0,360.7827730011195,1.0,1.0,phase_1,,,,,,,,,,,,,gray,diamond
74.0,1.0,0.5,0.0,4.0,4.0,345.2145750052295,1.0,1.0,phase_1,,,,,,,,,,,,,orange,flipped triangle
86.0,2.0,1.0,0.0,3.0,3.0,319.96864697430277,1.0,1.0,phase_1,,,,,,,,,,,,,yellow,circle
48.0,5.0,0.5,1.0,4.0,4.0,308.3815720165148,1.0,1.0,phase_1,,,,,,,,,,,,,green,square
398.0,8.0,4.0,1.0,1.0,1.0,263.619389035739,1.0,1.0,phase_1,,,,,,,,,,,,,white,I
37.0,5.0,0.5,1.0,1.0,1.0,476.428126974497,1.0,1.0,phase_1,,,,,,,,,,,,,green,square
207.0,7.0,2.0,1.0,1.0,1.0,291.7094029835425,1.0,1.0,phase_1,,,,,,,,,,,,,blue,cross
397.0,4.0,4.0,0.0,2.0,2.0,344.7870149975642,1.0,1.0,phase_1,,,,,,,,,,,,,gray,diamond
382.0,4.0,4.0,0.0,2.0,2.0,332.4982339981943,1.0,1.0,phase_1,,,,,,,,,,,,,gray,diamond
107.0,6.0,1.0,1.0,4.0,4.0,286.6135669755749,1.0,1.0,phase_1,,,,,,,,,,,,,magenta,hexagon
178.0,3.0,2.0,0.0,3.0,3.0,262.8133209655061,1.0,1.0,phase_1,,,,,,,,,,,,,cyan,triangle
203.0,7.0,2.0,1.0,2.0,2.0,344.7742720018141,1.0,1.0,phase_1,,,,,,,,,,,,,blue,cross
94.0,6.0,1.0,1.0,1.0,1.0,470.9684010013006,1.0,1.0,phase_1,,,,,,,,,,,,,magenta,hexagon
221.0,7.0,2.0,1.0,3.0,3.0,315.9162559895776,1.0,1.0,phase_1,,,,,,,,,,,,,blue,cross
0.0,1.0,0.0,0.0,4.0,4.0,328.9095010259188,1.0,1.0,phase_1,,,,,,,,,,,,,orange,flipped triangle
382.0,4.0,4.0,0.0,2.0,2.0,324.9886360135861,1.0,1.0,phase_1,,,,,,,,,,,,,gray,diamond
0.0,3.0,0.0,0.0,4.0,4.0,329.7735910164192,1.0,1.0,phase_1,,,,,,,,,,,,,cyan,triangle
70.0,1.0,0.5,0.0,4.0,4.0,364.9609499843791,1.0,1.0,phase_1,,,,,,,,,,,,,orange,flipped triangle
0.0,4.0,0.0,0.0,2.0,2.0,354.0416319738142,1.0,1.0,phase_1,,,,,,,,,,,,,gray,diamond
43.0,5.0,0.5,1.0,1.0,1.0,304.3808260117657,1.0,1.0,phase_1,,,,,,,,,,,,,green,square
406.0,4.0,4.0,0.0,4.0,4.0,540.9155130037107,1.0,1.0,phase_1,,,,,,,,,,,,,gray,diamond
118.0,6.0,1.0,1.0,3.0,3.0,561.2727500265464,1.0,1.0,phase_1,,,,,,,,,,,,,magenta,hexagon
56.0,5.0,0.5,1.0,4.0,4.0,492.472807993181,1.0,1.0,phase_1,,,,,,,,,,,,,green,square
218.0,7.0,2.0,1.0,4.0,4.0,347.9798340122215,1.0,1.0,phase_1,,,,,,,,,,,,,blue,cross
0.0,8.0,0.0,1.0,3.0,3.0,328.4996549482457,1.0,1.0,phase_1,,,,,,,,,,,,,white,I
224.0,7.0,2.0,1.0,4.0,4.0,309.5342610031366,1.0,1.0,phase_1,,,,,,,,,,,,,blue,cross
51.0,5.0,0.5,1.0,4.0,4.0,312.3170670005493,1.0,1.0,phase_1,,,,,,,,,,,,,green,square
106.0,6.0,1.0,1.0,1.0,1.0,333.6759440135211,1.0,1.0,phase_1,,,,,,,,,,,,,magenta,hexagon
399.0,8.0,4.0,1.0,1.0,1.0,296.8146299826912,1.0,1.0,phase_1,,,,,,,,,,,,,white,I
375.0,4.0,4.0,0.0,4.0,4.0,318.1190300383605,1.0,1.0,phase_1,,,,,,,,,,,,,gray,diamond
111.0,2.0,1.0,0.0,3.0,3.0,322.153770015575,1.0,1.0,phase_1,,,,,,,,,,,,,yellow,circle
28.0,1.0,0.5,0.0,1.0,1.0,328.1570830149576,1.0,1.0,phase_1,,,,,,,,,,,,,orange,flipped triangle
0.0,7.0,0.0,1.0,2.0,2.0,325.811896007508,1.0,1.0,phase_1,,,,,,,,,,,,,blue,cross
198.0,7.0,2.0,1.0,2.0,2.0,568.3460530126467,1.0,1.0,phase_1,,,,,,,,,,,,,blue,cross
118.0,6.0,1.0,1.0,3.0,3.0,568.1442790082656,1.0,1.0,phase_1,,,,,,,,,,,,,magenta,hexagon
400.0,4.0,4.0,0.0,3.0,3.0,285.0809800438583,1.0,1.0,phase_1,,,,,,,,,,,,,gray,diamond
28.0,5.0,0.5,1.0,3.0,3.0,279.992998985108,1.0,1.0,phase_1,,,,,,,,,,,,,green,square
39.0,5.0,0.5,1.0,1.0,1.0,362.30771098053077,1.0,1.0,phase_1,,,,,,,,,,,,,green,square
0.0,4.0,0.0,0.0,2.0,2.0,297.2585170064121,1.0,1.0,phase_1,,,,,,,,,,,,,gray,diamond
62.0,5.0,0.5,1.0,2.0,2.0,309.6539709949866,1.0,1.0,phase_1,,,,,,,,,,,,,green,square
176.0,3.0,2.0,0.0,2.0,2.0,296.1186080356128,1.0,1.0,phase_1,,,,,,,,,,,,,cyan,triangle
219.0,3.0,2.0,0.0,2.0,2.0,317.6362679805606,1.0,1.0,phase_1,,,,,,,,,,,,,cyan,triangle
46.0,5.0,0.5,1.0,3.0,3.0,260.2297569974325,1.0,1.0,phase_1,,,,,,,,,,,,,green,square
83.0,6.0,1.0,1.0,4.0,4.0,338.3484560181387,2.0,1.0,phase_1,,,,,,,,,,,,,magenta,hexagon
0.0,5.0,0.0,1.0,1.0,1.0,324.5198779623024,2.0,1.0,phase_1,,,,,,,,,,,,,green,square
0.0,5.0,0.0,1.0,2.0,2.0,331.3136160140857,2.0,1.0,phase_1,,,,,,,,,,,,,green,square
181.0,7.0,2.0,1.0,3.0,3.0,359.7758749965578,2.0,1.0,phase_1,,,,,,,,,,,,,blue,cross
219.0,3.0,2.0,0.0,2.0,2.0,299.9032080406323,2.0,1.0,phase_1,,,,,,,,,,,,,cyan,triangle
0.0,6.0,0.0,1.0,4.0,4.0,367.5786579842679,2.0,1.0,phase_1,,,,,,,,,,,,,magenta,hexagon
420.0,8.0,4.0,1.0,4.0,4.0,364.3058149609715,2.0,1.0,phase_1,,,,,,,,,,,,,white,I
0.0,1.0,0.0,0.0,3.0,3.0,313.0453709745779,2.0,1.0,phase_1,,,,,,,,,,,,,orange,flipped triangle
86.0,6.0,1.0,1.0,3.0,3.0,414.6626750007272,2.0,1.0,phase_1,,,,,,,,,,,,,magenta,hexagon
100.0,6.0,1.0,1.0,2.0,2.0,473.6587959923781,2.0,1.0,phase_1,,,,,,,,,,,,,magenta,hexagon
224.0,3.0,2.0,0.0,4.0,4.0,319.5467719924636,2.0,1.0,phase_1,,,,,,,,,,,,,cyan,triangle
113.0,2.0,1.0,0.0,3.0,3.0,348.1372750247828,2.0,1.0,phase_1,,,,,,,,,,,,,yellow,circle
44.0,1.0,0.5,0.0,1.0,1.0,352.4675070075318,2.0,1.0,phase_1,,,,,,,,,,,,,orange,flipped triangle
185.0,3.0,2.0,0.0,4.0,4.0,350.9253140073269,2.0,1.0,phase_1,,,,,,,,,,,,,cyan,triangle
0.0,7.0,0.0,1.0,4.0,4.0,410.1261960458942,2.0,1.0,phase_1,,,,,,,,,,,,,blue,cross
50.0,1.0,0.5,0.0,4.0,4.0,352.5885900016874,2.0,1.0,phase_1,,,,,,,,,,,,,orange,flipped triangle
53.0,5.0,0.5,1.0,4.0,4.0,340.8037499757483,2.0,1.0,phase_1,,,,,,,,,,,,,green,square
176.0,3.0,2.0,0.0,2.0,2.0,303.208205034025,2.0,1.0,phase_1,,,,,,,,,,,,,cyan,triangle
50.0,5.0,0.5,1.0,3.0,3.0,295.6110909581184,2.0,1.0,phase_1,,,,,,,,,,,,,green,square
200.0,3.0,2.0,0.0,3.0,3.0,323.5554400016553,2.0,1.0,phase_1,,,,,,,,,,,,,cyan,triangle
95.0,6.0,1.0,1.0,3.0,3.0,381.6235120175406,2.0,1.0,phase_1,,,,,,,,,,,,,magenta,hexagon
43.0,1.0,0.5,0.0,4.0,4.0,306.8733449908905,2.0,1.0,phase_1,,,,,,,,,,,,,orange,flipped triangle
34.0,1.0,0.5,0.0,3.0,3.0,286.7160849855281,2.0,1.0,phase_1,,,,,,,,,,,,,orange,flipped triangle
190.0,7.0,2.0,1.0,4.0,4.0,295.0507040368393,2.0,1.0,phase_1,,,,,,,,,,,,,blue,cross
84.0,2.0,1.0,0.0,4.0,4.0,232.8744339756667,2.0,1.0,phase_1,,,,,,,,,,,,,yellow,circle
192.0,3.0,2.0,0.0,4.0,4.0,287.9959809943102,2.0,1.0,phase_1,,,,,,,,,,,,,cyan,triangle
88.0,2.0,1.0,0.0,1.0,1.0,492.5276119611226,2.0,1.0,phase_1,,,,,,,,,,,,,yellow,circle
416.0,8.0,4.0,1.0,3.0,3.0,393.3189189992845,2.0,1.0,phase_1,,,,,,,,,,,,,white,I
376.0,4.0,4.0,0.0,3.0,3.0,327.0717650302686,2.0,1.0,phase_1,,,,,,,,,,,,,gray,diamond
59.0,1.0,0.5,0.0,1.0,1.0,328.704382001888,2.0,1.0,phase_1,,,,,,,,,,,,,orange,flipped triangle
63.0,1.0,0.5,0.0,4.0,4.0,307.9764160211198,2.0,1.0,phase_1,,,,,,,,,,,,,orange,flipped triangle
52.0,5.0,0.5,1.0,1.0,1.0,300.0279529951513,2.0,1.0,phase_1,,,,,,,,,,,,,green,square
50.0,5.0,0.5,1.0,1.0,1.0,312.8569980035536,2.0,1.0,phase_1,,,,,,,,,,,,,green,square
0.0,5.0,0.0,1.0,3.0,3.0,318.4596769860945,2.0,1.0,phase_1,,,,,,,,,,,,,green,square
406.0,8.0,4.0,1.0,2.0,2.0,279.2967210407369,2.0,1.0,phase_1,,,,,,,,,,,,,white,I
382.0,8.0,4.0,1.0,4.0,4.0,478.5611990373581,2.0,1.0,phase_1,,,,,,,,,,,,,white,I
379.0,8.0,4.0,1.0,3.0,3.0,322.9906689957715,2.0,1.0,phase_1,,,,,,,,,,,,,white,I
77.0,2.0,1.0,0.0,2.0,2.0,367.0704000396654,2.0,1.0,phase_1,,,,,,,,,,,,,yellow,circle
392.0,4.0,4.0,0.0,4.0,4.0,332.1841500001028,2.0,1.0,phase_1,,,,,,,,,,,,,gray,diamond
39.0,5.0,0.5,1.0,3.0,3.0,337.0990700204856,2.0,1.0,phase_1,,,,,,,,,,,,,green,square
210.0,7.0,2.0,1.0,1.0,1.0,315.6685589929111,2.0,1.0,phase_1,,,,,,,,,,,,,blue,cross
107.0,2.0,1.0,0.0,3.0,3.0,296.5513539966196,2.0,1.0,phase_1,,,,,,,,,,,,,yellow,circle
0.0,2.0,0.0,0.0,4.0,4.0,287.8223820007406,2.0,1.0,phase_1,,,,,,,,,,,,,yellow,circle
176.0,3.0,2.0,0.0,3.0,3.0,280.7507450343109,2.0,1.0,phase_1,,,,,,,,,,,,,cyan,triangle
416.0,8.0,4.0,1.0,4.0,4.0,351.7775220097974,2.0,1.0,phase_1,,,,,,,,,,,,,white,I
0.0,1.0,0.0,0.0,2.0,2.0,405.9903050074354,2.0,1.0,phase_1,,,,,,,,,,,,,orange,flipped triangle
52.0,1.0,0.5,0.0,3.0,3.0,345.5547339981422,2.0,1.0,phase_1,,,,,,,,,,,,,orange,flipped triangle
29.0,5.0,0.5,1.0,1.0,1.0,319.9338379781693,2.0,1.0,phase_1,,,,,,,,,,,,,green,square
121.0,2.0,1.0,0.0,1.0,1.0,386.0331120085902,2.0,1.0,phase_1,,,,,,,,,,,,,yellow,circle
404.0,4.0,4.0,0.0,3.0,3.0,431.0822970001027,2.0,1.0,phase_1,,,,,,,,,,,,,gray,diamond
33.0,5.0,0.5,1.0,3.0,3.0,315.7439369824715,2.0,1.0,phase_1,,,,,,,,,,,,,green,square
207.0,3.0,2.0,0.0,1.0,1.0,343.3652630192227,2.0,1.0,phase_1,,,,,,,,,,,,,cyan,triangle
90.0,2.0,1.0,0.0,4.0,4.0,310.6963909813203,2.0,1.0,phase_1,,,,,,,,,,,,,yellow,circle
422.0,4.0,4.0,0.0,2.0,2.0,319.6843019686639,2.0,1.0,phase_1,,,,,,,,,,,,,gray,diamond
398.0,4.0,4.0,0.0,3.0,3.0,253.5285100457258,2.0,1.0,phase_1,,,,,,,,,,,,,gray,diamond
78.0,2.0,1.0,0.0,1.0,1.0,324.2660249816254,2.0,1.0,phase_1,,,,,,,,,,,,,yellow,circle
390.0,4.0,4.0,0.0,1.0,1.0,327.962446026504,2.0,1.0,phase_1,,,,,,,,,,,,,gray,diamond
90.0,6.0,1.0,1.0,4.0,4.0,562.4140059808269,2.0,2.0,phase_1,,,,,,,,,,,,,magenta,hexagon
124.0,6.0,1.0,1.0,2.0,2.0,540.2773940004408,2.0,1.0,phase_1,,,,,,,,,,,,,magenta,hexagon
0.0,1.0,0.0,0.0,1.0,1.0,459.6300069824792,2.0,1.0,phase_1,,,,,,,,,,,,,orange,flipped triangle
114.0,2.0,1.0,0.0,3.0,3.0,519.8614610126242,2.0,1.0,phase_1,,,,,,,,,,,,,yellow,circle
0.0,7.0,0.0,1.0,2.0,2.0,434.310968965292,2.0,1.0,phase_1,,,,,,,,,,,,,blue,cross
0.0,7.0,0.0,1.0,4.0,4.0,375.5011430475861,2.0,1.0,phase_1,,,,,,,,,,,,,blue,cross
406.0,4.0,4.0,0.0,4.0,4.0,398.4979710076004,2.0,1.0,phase_1,,,,,,,,,,,,,gray,diamond
101.0,6.0,1.0,1.0,4.0,4.0,331.8036330165341,2.0,1.0,phase_1,,,,,,,,,,,,,magenta,hexagon
83.0,6.0,1.0,1.0,4.0,4.0,364.9309090105816,2.0,1.0,phase_1,,,,,,,,,,,,,magenta,hexagon
389.0,4.0,4.0,0.0,2.0,2.0,329.1767670307308,2.0,1.0,phase_1,,,,,,,,,,,,,gray,diamond
192.0,7.0,2.0,1.0,2.0,2.0,353.5431079799309,2.0,1.0,phase_1,,,,,,,,,,,,,blue,cross
64.0,5.0,0.5,1.0,2.0,2.0,358.0718419980258,2.0,1.0,phase_1,,,,,,,,,,,,,green,square
417.0,4.0,4.0,0.0,4.0,4.0,336.0484879813157,2.0,1.0,phase_1,,,,,,,,,,,,,gray,diamond
111.0,6.0,1.0,1.0,3.0,3.0,581.3970390008762,2.0,1.0,phase_1,,,,,,,,,,,,,magenta,hexagon
114.0,6.0,1.0,1.0,3.0,3.0,500.84844196680933,2.0,1.0,phase_1,,,,,,,,,,,,,magenta,hexagon
79.0,2.0,1.0,0.0,2.0,2.0,349.500446987804,2.0,1.0,phase_1,,,,,,,,,,,,,yellow,circle
422.0,8.0,4.0,1.0,2.0,2.0,524.2519979947247,2.0,1.0,phase_1,,,,,,,,,,,,,white,I
104.0,2.0,1.0,0.0,1.0,1.0,537.5931560411118,2.0,1.0,phase_1,,,,,,,,,,,,,yellow,circle
0.0,6.0,0.0,1.0,1.0,1.0,453.106619999744,2.0,1.0,phase_1,,,,,,,,,,,,,magenta,hexagon
64.0,1.0,0.5,0.0,3.0,3.0,434.1460689902305,2.0,1.0,phase_1,,,,,,,,,,,,,orange,flipped triangle
0.0,8.0,0.0,1.0,4.0,4.0,440.6568630365655,2.0,1.0,phase_1,,,,,,,,,,,,,white,I
77.0,6.0,1.0,1.0,3.0,3.0,427.3497019894421,2.0,1.0,phase_1,,,,,,,,,,,,,magenta,hexagon
77.0,6.0,1.0,1.0,1.0,1.0,558.474090998061,2.0,1.0,phase_1,,,,,,,,,,,,,magenta,hexagon
27.0,1.0,0.5,0.0,2.0,2.0,299.6103939949535,2.0,1.0,phase_1,,,,,,,,,,,,,orange,flipped triangle
79.0,6.0,1.0,1.0,2.0,2.0,271.9019150245003,2.0,1.0,phase_1,,,,,,,,,,,,,magenta,hexagon
78.0,2.0,1.0,0.0,1.0,1.0,312.2786110034212,2.0,1.0,phase_1,,,,,,,,,,,,,yellow,circle
191.0,7.0,2.0,1.0,2.0,2.0,368.8085229950957,2.0,1.0,phase_1,,,,,,,,,,,,,blue,cross
67.0,5.0,0.5,1.0,3.0,3.0,304.2421219870448,2.0,1.0,phase_1,,,,,,,,,,,,,green,square
78.0,6.0,1.0,1.0,1.0,1.0,379.5222399639897,2.0,1.0,phase_1,,,,,,,,,,,,,magenta,hexagon
180.0,7.0,2.0,1.0,2.0,2.0,378.3188849920407,2.0,1.0,phase_1,,,,,,,,,,,,,blue,cross
189.0,3.0,2.0,0.0,2.0,2.0,332.0851949974894,2.0,1.0,phase_1,,,,,,,,,,,,,cyan,triangle
0.0,6.0,0.0,1.0,2.0,2.0,363.3247630205005,2.0,1.0,phase_1,,,,,,,,,,,,,magenta,hexagon
191.0,7.0,2.0,1.0,4.0,4.0,448.6958410125226,2.0,1.0,phase_1,,,,,,,,,,,,,blue,cross
222.0,3.0,2.0,0.0,3.0,3.0,382.0241030189208,2.0,1.0,phase_1,,,,,,,,,,,,,cyan,triangle
0.0,7.0,0.0,1.0,2.0,2.0,336.5193979698233,2.0,1.0,phase_1,,,,,,,,,,,,,blue,cross
206.0,7.0,2.0,1.0,3.0,3.0,301.7423080164008,2.0,1.0,phase_1,,,,,,,,,,,,,blue,cross
0.0,1.0,0.0,0.0,2.0,2.0,331.9538059877231,2.0,1.0,phase_1,,,,,,,,,,,,,orange,flipped triangle
412.0,4.0,4.0,0.0,2.0,2.0,397.1398730063811,2.0,1.0,phase_1,,,,,,,,,,,,,gray,diamond
425.0,4.0,4.0,0.0,4.0,4.0,385.9843799727969,2.0,1.0,phase_1,,,,,,,,,,,,,gray,diamond
0.0,5.0,0.0,1.0,1.0,1.0,416.418147040531,2.0,1.0,phase_1,,,,,,,,,,,,,green,square
0.0,8.0,0.0,1.0,4.0,4.0,363.5486070415936,2.0,1.0,phase_1,,,,,,,,,,,,,white,I
0.0,1.0,0.0,0.0,2.0,2.0,383.9863879838958,2.0,1.0,phase_1,,,,,,,,,,,,,orange,flipped triangle
53.0,1.0,0.5,0.0,1.0,1.0,430.3348690154962,2.0,1.0,phase_1,,,,,,,,,,,,,orange,flipped triangle
89.0,6.0,1.0,1.0,1.0,1.0,360.586994967889,3.0,1.0,phase_1,,,,,,,,,,,,,magenta,hexagon
63.0,1.0,0.5,0.0,2.0,2.0,428.6732299951836,3.0,1.0,phase_1,,,,,,,,,,,,,orange,flipped triangle
52.0,1.0,0.5,0.0,3.0,3.0,379.62082400918,3.0,1.0,phase_1,,,,,,,,,,,,,orange,flipped triangle
107.0,6.0,1.0,1.0,2.0,2.0,344.3356619682163,3.0,1.0,phase_1,,,,,,,,,,,,,magenta,hexagon
383.0,8.0,4.0,1.0,4.0,4.0,445.3329739626497,3.0,1.0,phase_1,,,,,,,,,,,,,white,I
0.0,8.0,0.0,1.0,3.0,3.0,375.2235579886473,3.0,1.0,phase_1,,,,,,,,,,,,,white,I
379.0,4.0,4.0,0.0,1.0,1.0,388.4637070004828,3.0,1.0,phase_1,,,,,,,,,,,,,gray,diamond
101.0,2.0,1.0,0.0,4.0,4.0,369.5723650162108,3.0,1.0,phase_1,,,,,,,,,,,,,yellow,circle
203.0,3.0,2.0,0.0,4.0,4.0,327.1915420191362,3.0,1.0,phase_1,,,,,,,,,,,,,cyan,triangle
218.0,7.0,2.0,1.0,3.0,3.0,306.1771339853294,3.0,1.0,phase_1,,,,,,,,,,,,,blue,cross
406.0,8.0,4.0,1.0,2.0,2.0,478.4387719701044,3.0,1.0,phase_1,,,,,,,,,,,,,white,I
182.0,7.0,2.0,1.0,2.0,2.0,286.7904890445061,3.0,1.0,phase_1,,,,,,,,,,,,,blue,cross
390.0,8.0,4.0,1.0,1.0,1.0,331.7678190069273,3.0,1.0,phase_1,,,,,,,,,,,,,white,I
197.0,3.0,2.0,0.0,1.0,1.0,380.7909290189855,3.0,1.0,phase_1,,,,,,,,,,,,,cyan,triangle
399.0,4.0,4.0,0.0,2.0,2.0,330.2892069914378,3.0,1.0,phase_1,,,,,,,,,,,,,gray,diamond
413.0,8.0,4.0,1.0,3.0,3.0,294.0185620100237,3.0,1.0,phase_1,,,,,,,,,,,,,white,I
0.0,2.0,0.0,0.0,1.0,1.0,381.3612170051783,3.0,1.0,phase_1,,,,,,,,,,,,,yellow,circle
64.0,5.0,0.5,1.0,4.0,4.0,346.7657279688865,3.0,1.0,phase_1,,,,,,,,,,,,,green,square
197.0,7.0,2.0,1.0,1.0,1.0,494.5051020476967,3.0,1.0,phase_1,,,,,,,,,,,,,blue,cross
415.0,8.0,4.0,1.0,2.0,2.0,531.1889930162579,3.0,1.0,phase_1,,,,,,,,,,,,,white,I
206.0,3.0,2.0,0.0,1.0,1.0,535.9056330053136,3.0,1.0,phase_1,,,,,,,,,,,,,cyan,triangle
205.0,7.0,2.0,1.0,4.0,4.0,474.5666329981759,3.0,1.0,phase_1,,,,,,,,,,,,,blue,cross
32.0,1.0,0.5,0.0,3.0,3.0,442.7038669819012,3.0,1.0,phase_1,,,,,,,,,,,,,orange,flipped triangle
0.0,6.0,0.0,1.0,4.0,4.0,502.9765289509669,3.0,1.0,phase_1,,,,,,,,,,,,,magenta,hexagon
0.0,3.0,0.0,0.0,3.0,3.0,347.9615090182051,3.0,1.0,phase_1,,,,,,,,,,,,,cyan,triangle
0.0,5.0,0.0,1.0,2.0,2.0,270.6997460336424,3.0,1.0,phase_1,,,,,,,,,,,,,green,square
190.0,3.0,2.0,0.0,1.0,1.0,417.5393959740177,3.0,2.0,phase_1,,,,,,,,,,,,,cyan,triangle
48.0,1.0,0.5,0.0,3.0,3.0,357.3930070269853,3.0,1.0,phase_1,,,,,,,,,,,,,orange,flipped triangle
121.0,6.0,1.0,1.0,4.0,4.0,464.2526910174638,3.0,1.0,phase_1,,,,,,,,,,,,,magenta,hexagon
214.0,3.0,2.0,0.0,1.0,1.0,500.6805490120314,3.0,1.0,phase_1,,,,,,,,,,,,,cyan,triangle
180.0,3.0,2.0,0.0,3.0,3.0,380.8387590106576,3.0,1.0,phase_1,,,,,,,,,,,,,cyan,triangle
192.0,3.0,2.0,0.0,3.0,3.0,319.8845809674822,3.0,1.0,phase_1,,,,,,,,,,,,,cyan,triangle
0.0,2.0,0.0,0.0,3.0,3.0,411.5158310160041,3.0,1.0,phase_1,,,,,,,,,,,,,yellow,circle
184.0,7.0,2.0,1.0,3.0,3.0,361.8005170137621,3.0,1.0,phase_1,,,,,,,,,,,,,blue,cross
416.0,4.0,4.0,0.0,3.0,3.0,388.8195200124755,3.0,1.0,phase_1,,,,,,,,,,,,,gray,diamond
0.0,6.0,0.0,1.0,2.0,2.0,344.7222070535645,3.0,1.0,phase_1,,,,,,,,,,,,,magenta,hexagon
219.0,3.0,2.0,0.0,3.0,3.0,312.2071079560555,3.0,1.0,phase_1,,,,,,,,,,,,,cyan,triangle
77.0,2.0,1.0,0.0,3.0,3.0,324.8527260147966,3.0,1.0,phase_1,,,,,,,,,,,,,yellow,circle
214.0,7.0,2.0,1.0,1.0,1.0,423.2453390141018,3.0,1.0,phase_1,,,,,,,,,,,,,blue,cross
102.0,6.0,1.0,1.0,3.0,3.0,332.7171309501864,3.0,1.0,phase_1,,,,,,,,,,,,,magenta,hexagon
402.0,4.0,4.0,0.0,2.0,2.0,370.5838070018217,3.0,1.0,phase_1,,,,,,,,,,,,,gray,diamond
0.0,3.0,0.0,0.0,3.0,3.0,326.9291159813292,3.0,1.0,phase_1,,,,,,,,,,,,,cyan,triangle
111.0,2.0,1.0,0.0,4.0,4.0,537.061218987219,3.0,1.0,phase_1,,,,,,,,,,,,,yellow,circle
0.0,1.0,0.0,0.0,2.0,2.0,344.6752900490537,3.0,1.0,phase_1,,,,,,,,,,,,,orange,flipped triangle
81.0,6.0,1.0,1.0,3.0,3.0,598.8004130194895,3.0,1.0,phase_1,,,,,,,,,,,,,magenta,hexagon
423.0,8.0,4.0,1.0,3.0,3.0,425.9935580193996,3.0,1.0,phase_1,,,,,,,,,,,,,white,I
0.0,7.0,0.0,1.0,1.0,1.0,669.7695900220424,3.0,1.0,phase_1,,,,,,,,,,,,,blue,cross
56.0,5.0,0.5,1.0,4.0,4.0,315.9786689793691,3.0,1.0,phase_1,,,,,,,,,,,,,green,square
0.0,4.0,0.0,0.0,3.0,3.0,357.8433819930069,3.0,1.0,phase_1,,,,,,,,,,,,,gray,diamond
221.0,7.0,2.0,1.0,3.0,3.0,381.5188040025532,3.0,1.0,phase_1,,,,,,,,,,,,,blue,cross
0.0,4.0,0.0,0.0,4.0,4.0,545.4586719861254,3.0,1.0,phase_1,,,,,,,,,,,,,gray,diamond
221.0,3.0,2.0,0.0,2.0,2.0,492.2670329688117,3.0,1.0,phase_1,,,,,,,,,,,,,cyan,triangle
423.0,4.0,4.0,0.0,4.0,4.0,352.188134973403,3.0,1.0,phase_1,,,,,,,,,,,,,gray,diamond
38.0,1.0,0.5,0.0,3.0,3.0,382.8310529934242,3.0,1.0,phase_1,,,,,,,,,,,,,orange,flipped triangle
50.0,1.0,0.5,0.0,2.0,2.0,425.5098460125737,3.0,1.0,phase_1,,,,,,,,,,,,,orange,flipped triangle
70.0,5.0,0.5,1.0,3.0,3.0,337.8755989833735,3.0,1.0,phase_1,,,,,,,,,,,,,green,square
0.0,5.0,0.0,1.0,3.0,3.0,354.9509099684655,3.0,1.0,phase_1,,,,,,,,,,,,,green,square
0.0,2.0,0.0,0.0,3.0,3.0,551.4611279941164,3.0,1.0,phase_1,,,,,,,,,,,,,yellow,circle
192.0,7.0,2.0,1.0,2.0,2.0,455.6595099857077,3.0,1.0,phase_1,,,,,,,,,,,,,blue,cross
41.0,1.0,0.5,0.0,2.0,2.0,626.9592689932324,3.0,1.0,phase_1,,,,,,,,,,,,,orange,flipped triangle
84.0,6.0,1.0,1.0,4.0,4.0,391.1996040260419,3.0,1.0,phase_1,,,,,,,,,,,,,magenta,hexagon
0.0,3.0,0.0,0.0,4.0,4.0,443.8995349919423,3.0,1.0,phase_1,,,,,,,,,,,,,cyan,triangle
176.0,7.0,2.0,1.0,2.0,2.0,406.5694250166416,3.0,1.0,phase_1,,,,,,,,,,,,,blue,cross
56.0,1.0,0.5,0.0,1.0,1.0,356.4937349874526,3.0,1.0,phase_1,,,,,,,,,,,,,orange,flipped triangle
0.0,2.0,0.0,0.0,4.0,4.0,376.376962987706,3.0,1.0,phase_1,,,,,,,,,,,,,yellow,circle
420.0,4.0,4.0,0.0,1.0,1.0,368.323925009463,3.0,1.0,phase_1,,,,,,,,,,,,,gray,diamond
68.0,5.0,0.5,1.0,4.0,4.0,531.7801489727572,3.0,1.0,phase_1,,,,,,,,,,,,,green,square
0.0,8.0,0.0,1.0,2.0,2.0,318.5645390185527,3.0,1.0,phase_1,,,,,,,,,,,,,white,I
0.0,8.0,0.0,1.0,2.0,2.0,429.7805429669097,3.0,1.0,phase_1,,,,,,,,,,,,,white,I
106.0,2.0,1.0,0.0,4.0,4.0,409.4890759442933,3.0,1.0,phase_1,,,,,,,,,,,,,yellow,circle
406.0,8.0,4.0,1.0,3.0,3.0,357.3272450012155,3.0,1.0,phase_1,,,,,,,,,,,,,white,I
182.0,3.0,2.0,0.0,1.0,1.0,338.1232550018467,3.0,1.0,phase_1,,,,,,,,,,,,,cyan,triangle
0.0,3.0,0.0,0.0,1.0,1.0,446.3030939805321,3.0,1.0,phase_1,,,,,,,,,,,,,cyan,triangle
413.0,4.0,4.0,0.0,3.0,3.0,356.7774629918858,3.0,1.0,phase_1,,,,,,,,,,,,,gray,diamond
104.0,6.0,1.0,1.0,2.0,2.0,466.724861995317,3.0,1.0,phase_1,,,,,,,,,,,,,magenta,hexagon
102.0,2.0,1.0,0.0,4.0,4.0,478.8685219828039,3.0,1.0,phase_1,,,,,,,,,,,,,yellow,circle
390.0,8.0,4.0,1.0,3.0,3.0,537.2814169968478,3.0,1.0,phase_1,,,,,,,,,,,,,white,I
0.0,3.0,0.0,0.0,2.0,2.0,487.7251440193504,3.0,1.0,phase_1,,,,,,,,,,,,,cyan,triangle
59.0,5.0,0.5,1.0,2.0,2.0,466.6630289866589,3.0,1.0,phase_1,,,,,,,,,,,,,green,square
50.0,5.0,0.5,1.0,2.0,2.0,329.9562710453756,3.0,1.0,phase_1,,,,,,,,,,,,,green,square
416.0,4.0,4.0,0.0,1.0,1.0,299.40600198460737,3.0,1.0,phase_1,,,,,,,,,,,,,gray,diamond
425.0,4.0,4.0,0.0,2.0,2.0,321.0231469711289,3.0,1.0,phase_1,,,,,,,,,,,,,gray,diamond
55.0,1.0,0.5,0.0,1.0,1.0,423.8165220012888,3.0,1.0,phase_1,,,,,,,,,,,,,orange,flipped triangle
91.0,6.0,1.0,1.0,4.0,4.0,421.1798959877342,3.0,1.0,phase_1,,,,,,,,,,,,,magenta,hexagon
101.0,6.0,1.0,1.0,4.0,4.0,503.0500119901262,3.0,1.0,phase_1,,,,,,,,,,,,,magenta,hexagon
55.0,5.0,0.5,1.0,1.0,1.0,458.75400898512447,3.0,1.0,phase_1,,,,,,,,,,,,,green,square
118.0,2.0,1.0,0.0,1.0,1.0,433.9312030351721,3.0,1.0,phase_1,,,,,,,,,,,,,yellow,circle
39.0,1.0,0.5,0.0,4.0,4.0,540.0201989687048,3.0,1.0,phase_1,,,,,,,,,,,,,orange,flipped triangle
0.0,4.0,0.0,0.0,1.0,1.0,360.871582000982,3.0,1.0,phase_1,,,,,,,,,,,,,gray,diamond
400.0,8.0,4.0,1.0,1.0,1.0,389.530656975694,3.0,1.0,phase_1,,,,,,,,,,,,,white,I
378.0,8.0,4.0,1.0,3.0,3.0,349.5236570015549,3.0,1.0,phase_1,,,,,,,,,,,,,white,I
63.0,5.0,0.5,1.0,2.0,2.0,425.0647400040179,3.0,1.0,phase_1,,,,,,,,,,,,,green,square
102.0,6.0,1.0,1.0,2.0,2.0,348.6042370204814,3.0,1.0,phase_1,,,,,,,,,,,,,magenta,hexagon
94.0,2.0,1.0,0.0,2.0,2.0,344.9827919830568,3.0,1.0,phase_1,,,,,,,,,,,,,yellow,circle
390.0,4.0,4.0,0.0,1.0,1.0,422.7393660112284,3.0,1.0,phase_1,,,,,,,,,,,,,gray,diamond
219.0,7.0,2.0,1.0,1.0,1.0,523.965872998815,3.0,1.0,phase_1,,,,,,,,,,,,,blue,cross
62.0,1.0,0.5,0.0,1.0,1.0,449.9877439811826,3.0,1.0,phase_1,,,,,,,,,,,,,orange,flipped triangle
205.0,3.0,2.0,0.0,4.0,4.0,446.7794310185127,3.0,1.0,phase_1,,,,,,,,,,,,,cyan,triangle
0.0,4.0,0.0,0.0,3.0,3.0,377.5467819650657,3.0,1.0,phase_1,,,,,,,,,,,,,gray,diamond
382.0,8.0,4.0,1.0,4.0,4.0,495.514277019538,3.0,1.0,phase_1,,,,,,,,,,,,,white,I
84.0,2.0,1.0,0.0,2.0,2.0,330.8915930101648,4.0,1.0,phase_1,,,,,,,,,,,,,yellow,circle
0.0,7.0,0.0,1.0,4.0,4.0,376.3980549992993,4.0,1.0,phase_1,,,,,,,,,,,,,blue,cross
109.0,6.0,1.0,1.0,1.0,1.0,507.4896899750456,4.0,1.0,phase_1,,,,,,,,,,,,,magenta,hexagon
0.0,8.0,0.0,1.0,1.0,1.0,394.94134997949,4.0,1.0,phase_1,,,,,,,,,,,,,white,I
415.0,4.0,4.0,0.0,4.0,4.0,366.2223229766823,4.0,1.0,phase_1,,,,,,,,,,,,,gray,diamond
418.0,4.0,4.0,0.0,1.0,1.0,483.3192609949037,4.0,1.0,phase_1,,,,,,,,,,,,,gray,diamond
41.0,5.0,0.5,1.0,1.0,1.0,366.4474659599364,4.0,1.0,phase_1,,,,,,,,,,,,,green,square
0.0,7.0,0.0,1.0,2.0,2.0,323.4580039861612,4.0,1.0,phase_1,,,,,,,,,,,,,blue,cross
218.0,3.0,2.0,0.0,4.0,4.0,319.8727369890548,4.0,1.0,phase_1,,,,,,,,,,,,,cyan,triangle
219.0,7.0,2.0,1.0,4.0,4.0,389.0493650105782,4.0,1.0,phase_1,,,,,,,,,,,,,blue,cross
0.0,6.0,0.0,1.0,1.0,1.0,442.081086046528,4.0,1.0,phase_1,,,,,,,,,,,,,magenta,hexagon
123.0,6.0,1.0,1.0,2.0,2.0,519.996311981231,4.0,1.0,phase_1,,,,,,,,,,,,,magenta,hexagon
89.0,2.0,1.0,0.0,3.0,3.0,492.3773840419017,4.0,1.0,phase_1,,,,,,,,,,,,,yellow,circle
113.0,2.0,1.0,0.0,3.0,3.0,281.6324180457741,4.0,1.0,phase_1,,,,,,,,,,,,,yellow,circle
389.0,4.0,4.0,0.0,3.0,3.0,319.4614719832316,4.0,1.0,phase_1,,,,,,,,,,,,,gray,diamond
386.0,4.0,4.0,0.0,1.0,1.0,291.3034959929064,4.0,1.0,phase_1,,,,,,,,,,,,,gray,diamond
50.0,1.0,0.5,0.0,1.0,1.0,318.562638014555,4.0,1.0,phase_1,,,,,,,,,,,,,orange,flipped triangle
209.0,7.0,2.0,1.0,1.0,1.0,372.6524569792673,4.0,1.0,phase_1,,,,,,,,,,,,,blue,cross
0.0,8.0,0.0,1.0,2.0,2.0,344.9288089759648,4.0,1.0,phase_1,,,,,,,,,,,,,white,I
176.0,7.0,2.0,1.0,3.0,3.0,300.7422329974361,4.0,1.0,phase_1,,,,,,,,,,,,,blue,cross
113.0,6.0,1.0,1.0,1.0,1.0,434.7354479832575,4.0,1.0,phase_1,,,,,,,,,,,,,magenta,hexagon
181.0,3.0,2.0,0.0,4.0,4.0,421.4352339622564,4.0,1.0,phase_1,,,,,,,,,,,,,cyan,triangle
184.0,3.0,2.0,0.0,2.0,2.0,369.1077099647373,4.0,1.0,phase_1,,,,,,,,,,,,,cyan,triangle
0.0,6.0,0.0,1.0,2.0,2.0,335.5236820061691,4.0,1.0,phase_1,,,,,,,,,,,,,magenta,hexagon
40.0,5.0,0.5,1.0,1.0,1.0,340.2871629805304,4.0,1.0,phase_1,,,,,,,,,,,,,green,square
101.0,2.0,1.0,0.0,2.0,2.0,601.1543669737875,4.0,1.0,phase_1,,,,,,,,,,,,,yellow,circle
81.0,2.0,1.0,0.0,1.0,1.0,347.5205110153183,4.0,1.0,phase_1,,,,,,,,,,,,,yellow,circle
67.0,1.0,0.5,0.0,4.0,4.0,332.1655190084129,4.0,1.0,phase_1,,,,,,,,,,,,,orange,flipped triangle
196.0,3.0,2.0,0.0,4.0,4.0,367.8571840282529,4.0,1.0,phase_1,,,,,,,,,,,,,cyan,triangle
378.0,4.0,4.0,0.0,3.0,3.0,365.3845650260336,4.0,1.0,phase_1,,,,,,,,,,,,,gray,diamond
402.0,8.0,4.0,1.0,1.0,1.0,328.05530301993707,4.0,1.0,phase_1,,,,,,,,,,,,,white,I
0.0,2.0,0.0,0.0,4.0,4.0,355.4045009659603,4.0,1.0,phase_1,,,,,,,,,,,,,yellow,circle
68.0,1.0,0.5,0.0,4.0,4.0,450.8280049776658,4.0,1.0,phase_1,,,,,,,,,,,,,orange,flipped triangle
417.0,8.0,4.0,1.0,4.0,4.0,406.44703397993,4.0,1.0,phase_1,,,,,,,,,,,,,white,I
198.0,3.0,2.0,0.0,1.0,1.0,458.8865700061433,4.0,1.0,phase_1,,,,,,,,,,,,,cyan,triangle
0.0,8.0,0.0,1.0,3.0,3.0,384.3768030055798,4.0,1.0,phase_1,,,,,,,,,,,,,white,I
176.0,7.0,2.0,1.0,1.0,1.0,356.912502029445,4.0,1.0,phase_1,,,,,,,,,,,,,blue,cross
37.0,1.0,0.5,0.0,2.0,2.0,344.1029120003804,4.0,1.0,phase_1,,,,,,,,,,,,,orange,flipped triangle
56.0,1.0,0.5,0.0,2.0,2.0,343.8449410023168,4.0,1.0,phase_1,,,,,,,,,,,,,orange,flipped triangle
214.0,3.0,2.0,0.0,2.0,2.0,371.8357270117849,4.0,1.0,phase_1,,,,,,,,,,,,,cyan,triangle
0.0,4.0,0.0,0.0,2.0,2.0,501.55220995657146,4.0,1.0,phase_1,,,,,,,,,,,,,gray,diamond
389.0,8.0,4.0,1.0,2.0,2.0,348.7234589993022,4.0,1.0,phase_1,,,,,,,,,,,,,white,I
107.0,2.0,1.0,0.0,4.0,4.0,600.6826949887909,4.0,1.0,phase_1,,,,,,,,,,,,,yellow,circle
113.0,6.0,1.0,1.0,2.0,2.0,468.2408399530686,4.0,1.0,phase_1,,,,,,,,,,,,,magenta,hexagon
0.0,6.0,0.0,1.0,4.0,4.0,770.1151079963893,4.0,1.0,phase_1,,,,,,,,,,,,,magenta,hexagon
29.0,1.0,0.5,0.0,3.0,3.0,414.2329419846646,4.0,1.0,phase_1,,,,,,,,,,,,,orange,flipped triangle
418.0,8.0,4.0,1.0,3.0,3.0,483.5632169852033,4.0,1.0,phase_1,,,,,,,,,,,,,white,I
52.0,5.0,0.5,1.0,3.0,3.0,368.8832760090008,4.0,1.0,phase_1,,,,,,,,,,,,,green,square
376.0,8.0,4.0,1.0,3.0,3.0,490.9236579551361,4.0,1.0,phase_1,,,,,,,,,,,,,white,I
401.0,8.0,4.0,1.0,4.0,4.0,347.6043100235984,4.0,1.0,phase_1,,,,,,,,,,,,,white,I
0.0,7.0,0.0,1.0,2.0,2.0,347.8353379759937,4.0,1.0,phase_1,,,,,,,,,,,,,blue,cross
218.0,3.0,2.0,0.0,1.0,1.0,420.5628359923139,4.0,1.0,phase_1,,,,,,,,,,,,,cyan,triangle
0.0,3.0,0.0,0.0,3.0,3.0,829.6863810392097,4.0,1.0,phase_1,,,,,,,,,,,,,cyan,triangle
0.0,2.0,0.0,0.0,2.0,2.0,373.2156750047579,4.0,1.0,phase_1,,,,,,,,,,,,,yellow,circle
100.0,2.0,1.0,0.0,2.0,2.0,366.614616010338,4.0,1.0,phase_1,,,,,,,,,,,,,yellow,circle
392.0,8.0,4.0,1.0,2.0,2.0,459.7588499891571,4.0,1.0,phase_1,,,,,,,,,,,,,white,I
0.0,6.0,0.0,1.0,2.0,2.0,320.5839159782044,4.0,1.0,phase_1,,,,,,,,,,,,,magenta,hexagon
191.0,3.0,2.0,0.0,1.0,1.0,421.4169040205888,4.0,1.0,phase_1,,,,,,,,,,,,,cyan,triangle
38.0,5.0,0.5,1.0,2.0,2.0,340.6317940098233,4.0,1.0,phase_1,,,,,,,,,,,,,green,square
182.0,7.0,2.0,1.0,1.0,1.0,303.589555027429,4.0,1.0,phase_1,,,,,,,,,,,,,blue,cross
33.0,1.0,0.5,0.0,3.0,3.0,323.8123479532078,4.0,1.0,phase_1,,,,,,,,,,,,,orange,flipped triangle
51.0,1.0,0.5,0.0,2.0,2.0,344.8572279885411,4.0,1.0,phase_1,,,,,,,,,,,,,orange,flipped triangle
73.0,5.0,0.5,1.0,3.0,3.0,436.2970369984396,4.0,1.0,phase_1,,,,,,,,,,,,,green,square
78.0,6.0,1.0,1.0,2.0,2.0,346.7039029928855,4.0,1.0,phase_1,,,,,,,,,,,,,magenta,hexagon
124.0,2.0,1.0,0.0,2.0,2.0,384.6150899771601,4.0,1.0,phase_1,,,,,,,,,,,,,yellow,circle
0.0,6.0,0.0,1.0,4.0,4.0,470.4650650382973,4.0,1.0,phase_1,,,,,,,,,,,,,magenta,hexagon
64.0,1.0,0.5,0.0,3.0,3.0,327.9964549583383,4.0,1.0,phase_1,,,,,,,,,,,,,orange,flipped triangle
123.0,2.0,1.0,0.0,4.0,4.0,347.9526829905808,4.0,1.0,phase_1,,,,,,,,,,,,,yellow,circle
383.0,4.0,4.0,0.0,1.0,1.0,512.7241389709525,4.0,1.0,phase_1,,,,,,,,,,,,,gray,diamond
0.0,1.0,0.0,0.0,1.0,1.0,560.4429750237614,4.0,1.0,phase_1,,,,,,,,,,,,,orange,flipped triangle
375.0,8.0,4.0,1.0,3.0,3.0,442.6290990086272,4.0,1.0,phase_1,,,,,,,,,,,,,white,I
0.0,5.0,0.0,1.0,3.0,3.0,338.7990609626286,4.0,1.0,phase_1,,,,,,,,,,,,,green,square
386.0,8.0,4.0,1.0,1.0,1.0,387.2774090268649,4.0,1.0,phase_1,,,,,,,,,,,,,white,I
29.0,1.0,0.5,0.0,4.0,4.0,386.6767139988951,4.0,1.0,phase_1,,,,,,,,,,,,,orange,flipped triangle
221.0,3.0,2.0,0.0,4.0,4.0,654.377028986346,4.0,1.0,phase_1,,,,,,,,,,,,,cyan,triangle
219.0,7.0,2.0,1.0,3.0,3.0,457.9389449791051,4.0,1.0,phase_1,,,,,,,,,,,,,blue,cross
39.0,1.0,0.5,0.0,4.0,4.0,422.063692996744,4.0,1.0,phase_1,,,,,,,,,,,,,orange,flipped triangle
106.0,2.0,1.0,0.0,1.0,1.0,442.4322910490446,4.0,1.0,phase_1,,,,,,,,,,,,,yellow,circle
211.0,7.0,2.0,1.0,4.0,4.0,447.3288590088486,4.0,1.0,phase_1,,,,,,,,,,,,,blue,cross
121.0,2.0,1.0,0.0,3.0,3.0,405.9413539944216,4.0,1.0,phase_1,,,,,,,,,,,,,yellow,circle
194.0,3.0,2.0,0.0,4.0,4.0,571.5939159854315,4.0,1.0,phase_1,,,,,,,,,,,,,cyan,triangle
222.0,7.0,2.0,1.0,2.0,2.0,301.8947830423713,4.0,1.0,phase_1,,,,,,,,,,,,,blue,cross
0.0,4.0,0.0,0.0,1.0,1.0,509.3062029918656,4.0,1.0,phase_1,,,,,,,,,,,,,gray,diamond
196.0,7.0,2.0,1.0,4.0,4.0,416.5186469908803,4.0,1.0,phase_1,,,,,,,,,,,,,blue,cross
32.0,5.0,0.5,1.0,2.0,2.0,387.2511200024746,4.0,1.0,phase_1,,,,,,,,,,,,,green,square
71.0,5.0,0.5,1.0,4.0,4.0,474.2152420221828,4.0,1.0,phase_1,,,,,,,,,,,,,green,square
0.0,5.0,0.0,1.0,1.0,1.0,520.739718049299,4.0,1.0,phase_1,,,,,,,,,,,,,green,square
0.0,1.0,0.0,0.0,1.0,1.0,377.7150079840794,4.0,1.0,phase_1,,,,,,,,,,,,,orange,flipped triangle
185.0,7.0,2.0,1.0,1.0,1.0,519.7379780001938,4.0,1.0,phase_1,,,,,,,,,,,,,blue,cross
404.0,8.0,4.0,1.0,1.0,1.0,500.5278349854052,4.0,1.0,phase_1,,,,,,,,,,,,,white,I
389.0,8.0,4.0,1.0,1.0,1.0,401.2629850185476,4.0,1.0,phase_1,,,,,,,,,,,,,white,I
71.0,1.0,0.5,0.0,2.0,2.0,300.1151679782197,4.0,1.0,phase_1,,,,,,,,,,,,,orange,flipped triangle
194.0,3.0,2.0,0.0,3.0,3.0,348.9018340478651,4.0,1.0,phase_1,,,,,,,,,,,,,cyan,triangle
401.0,4.0,4.0,0.0,3.0,3.0,413.900432002265,4.0,1.0,phase_1,,,,,,,,,,,,,gray,diamond
0.0,2.0,0.0,0.0,3.0,3.0,462.2554539819248,4.0,1.0,phase_1,,,,,,,,,,,,,yellow,circle
111.0,6.0,1.0,1.0,3.0,3.0,423.968672985211,4.0,1.0,phase_1,,,,,,,,,,,,,magenta,hexagon
209.0,3.0,2.0,0.0,2.0,2.0,380.053986038547,4.0,1.0,phase_1,,,,,,,,,,,,,cyan,triangle
0.0,8.0,0.0,1.0,3.0,3.0,441.2257720250636,4.0,1.0,phase_1,,,,,,,,,,,,,white,I
412.0,8.0,4.0,1.0,2.0,2.0,348.8970299949869,4.0,1.0,phase_1,,,,,,,,,,,,,white,I
189.0,7.0,2.0,1.0,2.0,2.0,356.5071190241724,4.0,1.0,phase_1,,,,,,,,,,,,,blue,cross
0.0,7.0,2.0,1.0,5.0,0.0,0.0,1.0,1.0,phase_2,stop,250.0,250.0,4.0,,,,,,,,,blue,cross
0.0,2.0,1.0,0.0,5.0,5.0,676.8096389714628,1.0,1.0,phase_2,go,300.0,250.0,1.0,,,,,,,,,yellow,circle
0.0,1.0,0.5,0.0,5.0,5.0,883.3551199641079,1.0,1.0,phase_2,go,300.0,250.0,1.0,,,,,,,,,orange,flipped triangle
0.0,2.0,1.0,0.0,6.0,6.0,730.003863980528,1.0,1.0,phase_2,go,300.0,250.0,1.0,,,,,,,,,yellow,circle
0.0,7.0,2.0,1.0,5.0,0.0,0.0,1.0,1.0,phase_2,stop,300.0,250.0,4.0,,,,,,,,,blue,cross
0.0,5.0,0.5,1.0,6.0,0.0,0.0,1.0,1.0,phase_2,stop,350.0,250.0,4.0,,,,,,,,,green,square
0.0,2.0,1.0,0.0,5.0,5.0,737.0813919696957,1.0,1.0,phase_2,go,350.0,300.0,1.0,,,,,,,,,yellow,circle
0.0,6.0,1.0,1.0,6.0,0.0,0.0,1.0,1.0,phase_2,stop,350.0,300.0,4.0,,,,,,,,,magenta,hexagon
0.0,8.0,4.0,1.0,5.0,0.0,0.0,1.0,1.0,phase_2,stop,350.0,350.0,4.0,,,,,,,,,white,I
0.0,2.0,1.0,0.0,5.0,5.0,760.4621990467422,1.0,1.0,phase_2,go,400.0,350.0,1.0,,,,,,,,,yellow,circle
0.0,4.0,4.0,0.0,6.0,6.0,750.0930829555728,1.0,1.0,phase_2,go,400.0,350.0,1.0,,,,,,,,,gray,diamond
0.0,3.0,2.0,0.0,6.0,6.0,819.2846269812435,1.0,1.0,phase_2,go,400.0,350.0,1.0,,,,,,,,,cyan,triangle
0.0,5.0,0.5,1.0,6.0,6.0,651.9799429806881,1.0,1.0,phase_2,go,400.0,350.0,1.0,,,,,,,,,green,square
0.0,7.0,2.0,1.0,6.0,0.0,0.0,1.0,1.0,phase_2,stop,400.0,350.0,4.0,,,,,,,,,blue,cross
0.0,5.0,0.5,1.0,6.0,6.0,780.3847609902732,1.0,1.0,phase_2,go,400.0,400.0,1.0,,,,,,,,,green,square
0.0,4.0,4.0,0.0,6.0,6.0,793.502040032763,1.0,1.0,phase_2,go,400.0,400.0,1.0,,,,,,,,,gray,diamond
0.0,8.0,4.0,1.0,6.0,6.0,800.4977820091881,1.0,1.0,phase_2,go,400.0,400.0,1.0,,,,,,,,,white,I
0.0,8.0,4.0,1.0,5.0,0.0,0.0,1.0,1.0,phase_2,stop,400.0,400.0,4.0,,,,,,,,,white,I
0.0,5.0,0.5,1.0,5.0,0.0,0.0,1.0,1.0,phase_2,stop,450.0,400.0,4.0,,,,,,,,,green,square
0.0,8.0,4.0,1.0,5.0,5.0,889.4753079512157,1.0,1.0,phase_2,go,500.0,400.0,1.0,,,,,,,,,white,I
0.0,8.0,4.0,1.0,6.0,0.0,0.0,1.0,1.0,phase_2,stop,500.0,400.0,4.0,,,,,,,,,white,I
0.0,7.0,2.0,1.0,5.0,0.0,0.0,1.0,1.0,phase_2,stop,500.0,450.0,4.0,,,,,,,,,blue,cross
0.0,8.0,4.0,1.0,6.0,0.0,0.0,1.0,1.0,phase_2,stop,550.0,450.0,4.0,,,,,,,,,white,I
0.0,5.0,0.5,1.0,5.0,5.0,820.3523940173909,1.0,1.0,phase_2,go,550.0,500.0,1.0,,,,,,,,,green,square
0.0,3.0,2.0,0.0,5.0,5.0,879.1376070003025,1.0,1.0,phase_2,go,550.0,500.0,1.0,,,,,,,,,cyan,triangle
0.0,7.0,2.0,1.0,6.0,0.0,0.0,1.0,1.0,phase_2,stop,550.0,500.0,4.0,,,,,,,,,blue,cross
0.0,6.0,1.0,1.0,6.0,6.0,694.9992140289396,1.0,1.0,phase_2,go,550.0,550.0,1.0,,,,,,,,,magenta,hexagon
0.0,1.0,0.5,0.0,5.0,5.0,1005.9579510125332,1.0,1.0,phase_2,go,550.0,550.0,1.0,,,,,,,,,orange,flipped triangle
0.0,3.0,2.0,0.0,5.0,5.0,925.641624024138,1.0,1.0,phase_2,go,550.0,550.0,1.0,,,,,,,,,cyan,triangle
0.0,7.0,2.0,1.0,5.0,0.0,0.0,1.0,1.0,phase_2,stop,550.0,550.0,4.0,,,,,,,,,blue,cross
0.0,8.0,4.0,1.0,5.0,0.0,0.0,1.0,1.0,phase_2,stop,600.0,550.0,4.0,,,,,,,,,white,I
0.0,7.0,2.0,1.0,6.0,0.0,0.0,1.0,1.0,phase_2,stop,650.0,550.0,4.0,,,,,,,,,blue,cross
0.0,2.0,1.0,0.0,5.0,5.0,881.9766510277987,1.0,1.0,phase_2,go,650.0,600.0,1.0,,,,,,,,,yellow,circle
0.0,4.0,4.0,0.0,6.0,6.0,985.9034739783964,1.0,1.0,phase_2,go,650.0,600.0,1.0,,,,,,,,,gray,diamond
0.0,3.0,2.0,0.0,5.0,5.0,1024.4194300030358,1.0,1.0,phase_2,go,650.0,600.0,1.0,,,,,,,,,cyan,triangle
0.0,6.0,1.0,1.0,6.0,0.0,0.0,1.0,1.0,phase_2,stop,650.0,600.0,4.0,,,,,,,,,magenta,hexagon
0.0,7.0,2.0,1.0,6.0,6.0,634.3207839527167,2.0,1.0,phase_2,go,650.0,650.0,1.0,,,,,,,,,blue,cross
0.0,5.0,0.5,1.0,6.0,6.0,359.1799599817022,2.0,1.0,phase_2,go,650.0,650.0,1.0,,,,,,,,,green,square
0.0,5.0,0.5,1.0,6.0,6.0,719.532314047683,2.0,1.0,phase_2,go,650.0,650.0,1.0,,,,,,,,,green,square
0.0,5.0,0.5,1.0,6.0,6.0,678.5066039883532,2.0,1.0,phase_2,stop,650.0,650.0,3.0,,,,,,,,,green,square
0.0,7.0,2.0,1.0,5.0,5.0,795.7642460241914,2.0,1.0,phase_2,go,650.0,600.0,1.0,,,,,,,,,blue,cross
0.0,2.0,1.0,0.0,5.0,5.0,567.1681640087627,2.0,1.0,phase_2,go,650.0,600.0,1.0,,,,,,,,,yellow,circle
0.0,7.0,2.0,1.0,6.0,6.0,623.9344259956852,2.0,1.0,phase_2,stop,650.0,600.0,3.0,,,,,,,,,blue,cross
0.0,2.0,1.0,0.0,6.0,6.0,843.2943990337662,2.0,1.0,phase_2,go,650.0,550.0,1.0,,,,,,,,,yellow,circle
0.0,5.0,0.5,1.0,6.0,0.0,0.0,2.0,1.0,phase_2,stop,650.0,550.0,4.0,,,,,,,,,green,square
0.0,1.0,0.5,0.0,5.0,5.0,729.3327230145223,2.0,1.0,phase_2,go,650.0,600.0,1.0,,,,,,,,,orange,flipped triangle
0.0,6.0,1.0,1.0,6.0,6.0,456.0702510061674,2.0,1.0,phase_2,stop,650.0,600.0,3.0,,,,,,,,,magenta,hexagon
0.0,1.0,0.5,0.0,6.0,6.0,615.995827014558,2.0,1.0,phase_2,go,650.0,550.0,1.0,,,,,,,,,orange,flipped triangle
0.0,4.0,4.0,0.0,5.0,5.0,691.1552189849317,2.0,1.0,phase_2,go,650.0,550.0,1.0,,,,,,,,,gray,diamond
0.0,6.0,1.0,1.0,6.0,6.0,727.643686986994,2.0,1.0,phase_2,go,650.0,550.0,1.0,,,,,,,,,magenta,hexagon
0.0,8.0,4.0,1.0,6.0,6.0,352.9222800279967,2.0,1.0,phase_2,stop,650.0,550.0,3.0,,,,,,,,,white,I
0.0,4.0,4.0,0.0,5.0,5.0,575.884383986704,2.0,1.0,phase_2,go,650.0,500.0,1.0,,,,,,,,,gray,diamond
0.0,6.0,1.0,1.0,5.0,5.0,598.5762150376104,2.0,1.0,phase_2,stop,650.0,500.0,3.0,,,,,,,,,magenta,hexagon
0.0,5.0,0.5,1.0,5.0,5.0,617.1142779639922,2.0,1.0,phase_2,stop,600.0,500.0,3.0,,,,,,,,,green,square
0.0,8.0,4.0,1.0,6.0,6.0,580.034124024678,2.0,1.0,phase_2,stop,550.0,500.0,3.0,,,,,,,,,white,I
0.0,1.0,0.5,0.0,6.0,6.0,524.2313030175865,2.0,1.0,phase_2,go,550.0,450.0,1.0,,,,,,,,,orange,flipped triangle
0.0,3.0,2.0,0.0,5.0,5.0,723.7077950267121,2.0,1.0,phase_2,go,550.0,450.0,1.0,,,,,,,,,cyan,triangle
0.0,2.0,1.0,0.0,5.0,5.0,474.1170550114475,2.0,1.0,phase_2,go,550.0,450.0,1.0,,,,,,,,,yellow,circle
0.0,5.0,0.5,1.0,6.0,6.0,612.259354966227,2.0,1.0,phase_2,stop,550.0,450.0,3.0,,,,,,,,,green,square
0.0,1.0,0.5,0.0,5.0,5.0,619.6836240123957,2.0,1.0,phase_2,go,550.0,400.0,1.0,,,,,,,,,orange,flipped triangle
0.0,8.0,4.0,1.0,5.0,0.0,0.0,2.0,1.0,phase_2,stop,550.0,400.0,4.0,,,,,,,,,white,I
0.0,4.0,4.0,0.0,5.0,5.0,913.9592479914428,2.0,1.0,phase_2,go,600.0,400.0,1.0,,,,,,,,,gray,diamond
0.0,1.0,0.5,0.0,6.0,6.0,970.7350950338878,2.0,1.0,phase_2,go,600.0,400.0,1.0,,,,,,,,,orange,flipped triangle
0.0,5.0,0.5,1.0,5.0,5.0,538.1085160188377,2.0,1.0,phase_2,go,600.0,400.0,1.0,,,,,,,,,green,square
0.0,1.0,0.5,0.0,6.0,6.0,658.062125032302,2.0,1.0,phase_2,go,600.0,400.0,1.0,,,,,,,,,orange,flipped triangle
0.0,7.0,2.0,1.0,5.0,5.0,495.6526039750315,2.0,1.0,phase_2,go,600.0,400.0,1.0,,,,,,,,,blue,cross
0.0,8.0,4.0,1.0,6.0,6.0,359.2528929584659,2.0,1.0,phase_2,stop,600.0,400.0,3.0,,,,,,,,,white,I
0.0,5.0,0.5,1.0,6.0,6.0,1061.5936819813214,2.0,1.0,phase_2,stop,600.0,350.0,3.0,,,,,,,,,green,square
0.0,8.0,4.0,1.0,6.0,6.0,623.5044579952955,2.0,1.0,phase_2,go,600.0,300.0,1.0,,,,,,,,,white,I
0.0,6.0,1.0,1.0,5.0,5.0,644.7519559878856,2.0,1.0,phase_2,stop,600.0,300.0,3.0,,,,,,,,,magenta,hexagon
0.0,3.0,2.0,0.0,5.0,5.0,503.53578699287027,2.0,1.0,phase_2,go,550.0,300.0,1.0,,,,,,,,,cyan,triangle
0.0,8.0,4.0,1.0,5.0,0.0,0.0,2.0,1.0,phase_2,stop,550.0,300.0,4.0,,,,,,,,,white,I
0.0,7.0,2.0,1.0,5.0,5.0,414.2064569750801,3.0,1.0,phase_2,stop,600.0,300.0,3.0,,,,,,,,,blue,cross
0.0,7.0,2.0,1.0,5.0,5.0,339.4606389920227,3.0,1.0,phase_2,go,550.0,300.0,1.0,,,,,,,,,blue,cross
0.0,6.0,1.0,1.0,5.0,5.0,626.2771770125255,3.0,1.0,phase_2,stop,550.0,300.0,3.0,,,,,,,,,magenta,hexagon
0.0,2.0,1.0,0.0,6.0,6.0,380.7449850137345,3.0,1.0,phase_2,go,500.0,300.0,1.0,,,,,,,,,yellow,circle
0.0,7.0,2.0,1.0,5.0,5.0,361.1382030067034,3.0,1.0,phase_2,go,500.0,300.0,1.0,,,,,,,,,blue,cross
0.0,4.0,4.0,0.0,6.0,6.0,299.5456919888966,3.0,1.0,phase_2,go,500.0,300.0,1.0,,,,,,,,,gray,diamond
0.0,3.0,2.0,0.0,5.0,5.0,290.02859100000927,3.0,1.0,phase_2,go,500.0,300.0,1.0,,,,,,,,,cyan,triangle
0.0,7.0,2.0,1.0,5.0,5.0,464.3243669997901,3.0,1.0,phase_2,stop,500.0,300.0,3.0,,,,,,,,,blue,cross
0.0,4.0,4.0,0.0,5.0,5.0,538.9226549887098,3.0,1.0,phase_2,go,450.0,300.0,1.0,,,,,,,,,gray,diamond
0.0,6.0,1.0,1.0,6.0,6.0,446.3714750017971,3.0,1.0,phase_2,stop,450.0,300.0,3.0,,,,,,,,,magenta,hexagon
0.0,1.0,0.5,0.0,6.0,6.0,746.0945729981177,3.0,1.0,phase_2,go,450.0,250.0,1.0,,,,,,,,,orange,flipped triangle
0.0,3.0,2.0,0.0,6.0,6.0,551.4387789880857,3.0,1.0,phase_2,go,450.0,250.0,1.0,,,,,,,,,cyan,triangle
0.0,1.0,0.5,0.0,6.0,6.0,389.3433369812555,3.0,1.0,phase_2,go,450.0,250.0,1.0,,,,,,,,,orange,flipped triangle
0.0,4.0,4.0,0.0,6.0,6.0,828.0085709993728,3.0,1.0,phase_2,go,450.0,250.0,1.0,,,,,,,,,gray,diamond
0.0,7.0,2.0,1.0,6.0,6.0,823.3612889889628,3.0,1.0,phase_2,go,450.0,250.0,1.0,,,,,,,,,blue,cross
0.0,6.0,1.0,1.0,5.0,5.0,475.9871429996565,3.0,1.0,phase_2,stop,450.0,250.0,3.0,,,,,,,,,magenta,hexagon
0.0,1.0,0.5,0.0,6.0,6.0,338.7031809543259,3.0,1.0,phase_2,go,400.0,250.0,1.0,,,,,,,,,orange,flipped triangle
0.0,5.0,0.5,1.0,5.0,0.0,0.0,3.0,1.0,phase_2,stop,400.0,250.0,4.0,,,,,,,,,green,square
0.0,8.0,4.0,1.0,6.0,6.0,373.1138939619995,3.0,1.0,phase_2,stop,450.0,250.0,3.0,,,,,,,,,white,I
0.0,1.0,0.5,0.0,5.0,5.0,736.4916020305827,3.0,1.0,phase_2,go,450.0,200.0,1.0,,,,,,,,,orange,flipped triangle
0.0,6.0,1.0,1.0,5.0,6.0,1098.5841560177505,3.0,1.0,phase_2,stop,450.0,200.0,3.0,,,,,,,,,magenta,hexagon
0.0,2.0,1.0,0.0,6.0,6.0,426.6086170100607,3.0,1.0,phase_2,go,400.0,200.0,1.0,,,,,,,,,yellow,circle
0.0,8.0,4.0,1.0,5.0,5.0,335.0290739908814,3.0,1.0,phase_2,stop,400.0,200.0,3.0,,,,,,,,,white,I
0.0,1.0,0.5,0.0,5.0,5.0,462.5348389963619,3.0,1.0,phase_2,go,350.0,200.0,1.0,,,,,,,,,orange,flipped triangle
0.0,4.0,4.0,0.0,5.0,5.0,391.4222749881446,3.0,1.0,phase_2,go,350.0,200.0,1.0,,,,,,,,,gray,diamond
0.0,5.0,0.5,1.0,5.0,5.0,374.9385480186902,3.0,1.0,phase_2,stop,350.0,200.0,3.0,,,,,,,,,green,square
0.0,3.0,2.0,0.0,6.0,6.0,629.0737640229054,3.0,1.0,phase_2,go,300.0,200.0,1.0,,,,,,,,,cyan,triangle
0.0,4.0,4.0,0.0,5.0,5.0,302.4128109682351,3.0,1.0,phase_2,go,300.0,200.0,1.0,,,,,,,,,gray,diamond
0.0,2.0,1.0,0.0,5.0,5.0,398.9272380131297,3.0,1.0,phase_2,go,300.0,200.0,1.0,,,,,,,,,yellow,circle
0.0,2.0,1.0,0.0,5.0,5.0,365.3979509836063,3.0,1.0,phase_2,go,300.0,200.0,1.0,,,,,,,,,yellow,circle
0.0,4.0,4.0,0.0,5.0,5.0,516.5282129892148,3.0,1.0,phase_2,go,300.0,200.0,1.0,,,,,,,,,gray,diamond
0.0,1.0,0.5,0.0,5.0,5.0,692.7477870485745,3.0,1.0,phase_2,go,300.0,200.0,1.0,,,,,,,,,orange,flipped triangle
0.0,7.0,2.0,1.0,6.0,0.0,0.0,3.0,1.0,phase_2,stop,300.0,200.0,4.0,,,,,,,,,blue,cross
0.0,3.0,2.0,0.0,5.0,5.0,373.3259869622998,3.0,1.0,phase_2,go,300.0,250.0,1.0,,,,,,,,,cyan,triangle
0.0,6.0,1.0,1.0,6.0,6.0,290.1436389656737,3.0,1.0,phase_2,stop,300.0,250.0,3.0,,,,,,,,,magenta,hexagon
0.0,5.0,0.5,1.0,6.0,6.0,323.3543460373766,3.0,1.0,phase_2,stop,300.0,200.0,3.0,,,,,,,,,green,square
0.0,6.0,1.0,1.0,6.0,0.0,0.0,4.0,1.0,phase_2,stop,300.0,150.0,4.0,,,,,,,,,magenta,hexagon
0.0,7.0,2.0,1.0,6.0,6.0,368.5338519862853,4.0,1.0,phase_2,go,300.0,200.0,1.0,,,,,,,,,blue,cross
0.0,4.0,4.0,0.0,5.0,5.0,310.3278969647363,4.0,1.0,phase_2,go,300.0,200.0,1.0,,,,,,,,,gray,diamond
0.0,3.0,2.0,0.0,6.0,6.0,286.5972059662454,4.0,1.0,phase_2,go,300.0,200.0,1.0,,,,,,,,,cyan,triangle
0.0,6.0,1.0,1.0,5.0,5.0,327.4734040023759,4.0,1.0,phase_2,stop,300.0,200.0,3.0,,,,,,,,,magenta,hexagon
0.0,1.0,0.5,0.0,6.0,6.0,612.7697849879041,4.0,1.0,phase_2,go,250.0,200.0,1.0,,,,,,,,,orange,flipped triangle
0.0,3.0,2.0,0.0,6.0,6.0,389.6795619511977,4.0,1.0,phase_2,go,250.0,200.0,1.0,,,,,,,,,cyan,triangle
0.0,6.0,1.0,1.0,6.0,6.0,452.6109580183401,4.0,1.0,phase_2,go,250.0,200.0,1.0,,,,,,,,,magenta,hexagon
0.0,7.0,2.0,1.0,6.0,0.0,0.0,4.0,1.0,phase_2,stop,250.0,200.0,4.0,,,,,,,,,blue,cross
0.0,7.0,2.0,1.0,6.0,0.0,0.0,4.0,1.0,phase_2,stop,250.0,250.0,4.0,,,,,,,,,blue,cross
0.0,3.0,2.0,0.0,6.0,6.0,323.0444560176693,4.0,1.0,phase_2,go,250.0,300.0,1.0,,,,,,,,,cyan,triangle
0.0,8.0,4.0,1.0,6.0,6.0,530.8563839644194,4.0,1.0,phase_2,go,250.0,300.0,1.0,,,,,,,,,white,I
0.0,2.0,1.0,0.0,6.0,6.0,521.1508729844354,4.0,1.0,phase_2,go,250.0,300.0,1.0,,,,,,,,,yellow,circle
0.0,6.0,1.0,1.0,5.0,5.0,534.7034260048531,4.0,1.0,phase_2,go,250.0,300.0,1.0,,,,,,,,,magenta,hexagon
0.0,8.0,4.0,1.0,5.0,5.0,297.6699429564178,4.0,1.0,phase_2,stop,250.0,300.0,3.0,,,,,,,,,white,I
0.0,5.0,0.5,1.0,5.0,5.0,564.9975939886644,4.0,1.0,phase_2,go,200.0,300.0,1.0,,,,,,,,,green,square
0.0,2.0,1.0,0.0,6.0,6.0,310.2157409884967,4.0,1.0,phase_2,go,200.0,300.0,1.0,,,,,,,,,yellow,circle
0.0,3.0,2.0,0.0,5.0,5.0,292.1250440413132,4.0,1.0,phase_2,go,200.0,300.0,1.0,,,,,,,,,cyan,triangle
0.0,5.0,0.5,1.0,5.0,5.0,412.2607749886811,4.0,1.0,phase_2,stop,200.0,300.0,3.0,,,,,,,,,green,square
0.0,5.0,0.5,1.0,5.0,5.0,757.4872249970213,4.0,1.0,phase_2,stop,150.0,300.0,3.0,,,,,,,,,green,square
0.0,1.0,0.5,0.0,5.0,5.0,610.5226969812065,4.0,1.0,phase_2,go,100.0,300.0,1.0,,,,,,,,,orange,flipped triangle
0.0,1.0,0.5,0.0,5.0,5.0,454.0970560046844,4.0,1.0,phase_2,go,100.0,300.0,1.0,,,,,,,,,orange,flipped triangle
0.0,4.0,4.0,0.0,5.0,5.0,395.7861309754662,4.0,1.0,phase_2,go,100.0,300.0,1.0,,,,,,,,,gray,diamond
0.0,3.0,2.0,0.0,6.0,6.0,443.6941189924255,4.0,1.0,phase_2,go,100.0,300.0,1.0,,,,,,,,,cyan,triangle
0.0,3.0,2.0,0.0,6.0,6.0,343.9323579659685,4.0,1.0,phase_2,go,100.0,300.0,1.0,,,,,,,,,cyan,triangle
0.0,1.0,0.5,0.0,6.0,6.0,568.9638899639249,4.0,1.0,phase_2,go,100.0,300.0,1.0,,,,,,,,,orange,flipped triangle
0.0,4.0,4.0,0.0,5.0,5.0,466.0325029981322,4.0,1.0,phase_2,go,100.0,300.0,1.0,,,,,,,,,gray,diamond
0.0,2.0,1.0,0.0,6.0,6.0,534.981312986929,4.0,1.0,phase_2,go,100.0,300.0,1.0,,,,,,,,,yellow,circle
0.0,4.0,4.0,0.0,6.0,6.0,433.8441850268282,4.0,1.0,phase_2,go,100.0,300.0,1.0,,,,,,,,,gray,diamond
0.0,6.0,1.0,1.0,6.0,6.0,390.6819169642403,4.0,1.0,phase_2,stop,100.0,300.0,3.0,,,,,,,,,magenta,hexagon
0.0,6.0,1.0,1.0,5.0,5.0,552.5890130084008,4.0,1.0,phase_2,go,100.0,250.0,1.0,,,,,,,,,magenta,hexagon
0.0,1.0,0.5,0.0,5.0,5.0,335.6748149963096,4.0,1.0,phase_2,go,100.0,250.0,1.0,,,,,,,,,orange,flipped triangle
0.0,6.0,1.0,1.0,5.0,0.0,0.0,4.0,1.0,phase_2,stop,100.0,250.0,4.0,,,,,,,,,magenta,hexagon
0.0,6.0,1.0,1.0,6.0,6.0,407.1915639797225,4.0,1.0,phase_2,go,150.0,250.0,1.0,,,,,,,,,magenta,hexagon
0.0,8.0,4.0,1.0,6.0,6.0,342.0897480100393,4.0,1.0,phase_2,stop,150.0,250.0,3.0,,,,,,,,,white,I
0.0,5.0,0.5,1.0,6.0,0.0,0.0,4.0,1.0,phase_2,stop,150.0,200.0,4.0,,,,,,,,,green,square
0.0,6.0,1.0,1.0,5.0,4.0,931.8722700118088,5.0,1.0,phase_2,go,150.0,250.0,2.0,,,,,,,,,magenta,hexagon
0.0,5.0,0.5,1.0,6.0,3.0,519.6862299926579,5.0,1.0,phase_2,stop,150.0,250.0,3.0,,,,,,,,,green,square
0.0,6.0,1.0,1.0,6.0,0.0,0.0,5.0,1.0,phase_2,stop,150.0,200.0,4.0,,,,,,,,,magenta,hexagon
0.0,1.0,0.5,0.0,6.0,3.0,326.4356370200403,5.0,1.0,phase_2,go,150.0,250.0,2.0,,,,,,,,,orange,flipped triangle
0.0,6.0,1.0,1.0,6.0,6.0,416.8327060178853,5.0,1.0,phase_2,stop,150.0,250.0,3.0,,,,,,,,,magenta,hexagon
0.0,1.0,0.5,0.0,5.0,5.0,502.7699819765985,5.0,1.0,phase_2,go,150.0,200.0,1.0,,,,,,,,,orange,flipped triangle
0.0,1.0,0.5,0.0,5.0,5.0,357.1360979694873,5.0,1.0,phase_2,go,150.0,200.0,1.0,,,,,,,,,orange,flipped triangle
0.0,8.0,4.0,1.0,6.0,0.0,0.0,5.0,1.0,phase_2,stop,150.0,200.0,4.0,,,,,,,,,white,I
0.0,2.0,1.0,0.0,5.0,5.0,270.2279209624976,5.0,1.0,phase_2,go,150.0,250.0,1.0,,,,,,,,,yellow,circle
0.0,5.0,0.5,1.0,6.0,6.0,501.0618529631756,5.0,1.0,phase_2,stop,150.0,250.0,3.0,,,,,,,,,green,square
0.0,1.0,0.5,0.0,5.0,5.0,314.7137380437925,5.0,1.0,phase_2,go,150.0,200.0,1.0,,,,,,,,,orange,flipped triangle
0.0,7.0,2.0,1.0,5.0,0.0,0.0,5.0,1.0,phase_2,stop,150.0,200.0,4.0,,,,,,,,,blue,cross
0.0,1.0,0.5,0.0,5.0,5.0,340.0946779875085,5.0,1.0,phase_2,go,200.0,200.0,1.0,,,,,,,,,orange,flipped triangle
0.0,3.0,2.0,0.0,5.0,5.0,453.2497620093636,5.0,1.0,phase_2,go,200.0,200.0,1.0,,,,,,,,,cyan,triangle
0.0,6.0,1.0,1.0,5.0,5.0,304.1682080365717,5.0,1.0,phase_2,stop,200.0,200.0,3.0,,,,,,,,,magenta,hexagon
0.0,7.0,2.0,1.0,5.0,5.0,312.10934498813,5.0,1.0,phase_2,stop,150.0,200.0,3.0,,,,,,,,,blue,cross
0.0,3.0,2.0,0.0,5.0,5.0,496.8623490422033,5.0,1.0,phase_2,go,100.0,200.0,1.0,,,,,,,,,cyan,triangle
0.0,2.0,1.0,0.0,6.0,6.0,344.9913709773682,5.0,1.0,phase_2,go,100.0,200.0,1.0,,,,,,,,,yellow,circle
0.0,6.0,1.0,1.0,5.0,5.0,288.2856089854613,5.0,1.0,phase_2,stop,100.0,200.0,3.0,,,,,,,,,magenta,hexagon
0.0,8.0,4.0,1.0,5.0,5.0,640.9628209657967,5.0,1.0,phase_2,go,50.0,200.0,1.0,,,,,,,,,white,I
0.0,7.0,2.0,1.0,5.0,0.0,0.0,5.0,1.0,phase_2,stop,50.0,200.0,4.0,,,,,,,,,blue,cross
0.0,8.0,4.0,1.0,6.0,6.0,333.2684100023471,5.0,1.0,phase_2,stop,100.0,200.0,3.0,,,,,,,,,white,I
0.0,6.0,1.0,1.0,6.0,0.0,0.0,5.0,1.0,phase_2,stop,100.0,150.0,4.0,,,,,,,,,magenta,hexagon
0.0,4.0,4.0,0.0,5.0,5.0,323.8313610199839,5.0,1.0,phase_2,go,100.0,200.0,1.0,,,,,,,,,gray,diamond
0.0,4.0,4.0,0.0,5.0,5.0,467.7791940048337,5.0,1.0,phase_2,go,100.0,200.0,1.0,,,,,,,,,gray,diamond
0.0,2.0,1.0,0.0,6.0,6.0,522.4014710402116,5.0,1.0,phase_2,go,100.0,200.0,1.0,,,,,,,,,yellow,circle
0.0,5.0,0.5,1.0,6.0,6.0,269.0037169959396,5.0,1.0,phase_2,go,100.0,200.0,1.0,,,,,,,,,green,square
0.0,2.0,1.0,0.0,5.0,5.0,341.6697090142406,5.0,1.0,phase_2,go,100.0,200.0,1.0,,,,,,,,,yellow,circle
0.0,8.0,4.0,1.0,6.0,6.0,387.9569579730741,5.0,1.0,phase_2,stop,100.0,200.0,3.0,,,,,,,,,white,I
0.0,5.0,0.5,1.0,5.0,5.0,586.8319579749368,5.0,1.0,phase_2,go,100.0,150.0,1.0,,,,,,,,,green,square
0.0,4.0,4.0,0.0,6.0,6.0,327.9117729980498,5.0,1.0,phase_2,go,100.0,150.0,1.0,,,,,,,,,gray,diamond
0.0,6.0,1.0,1.0,6.0,0.0,0.0,5.0,1.0,phase_2,stop,100.0,150.0,4.0,,,,,,,,,magenta,hexagon
0.0,8.0,4.0,1.0,6.0,0.0,0.0,5.0,1.0,phase_2,stop,100.0,200.0,4.0,,,,,,,,,white,I
0.0,2.0,1.0,0.0,6.0,6.0,329.5718709705397,5.0,1.0,phase_2,go,100.0,250.0,1.0,,,,,,,,,yellow,circle
0.0,4.0,4.0,0.0,6.0,6.0,303.4196050139144,5.0,1.0,phase_2,go,100.0,250.0,1.0,,,,,,,,,gray,diamond
0.0,2.0,1.0,0.0,6.0,6.0,270.4078609822318,5.0,1.0,phase_2,go,100.0,250.0,1.0,,,,,,,,,yellow,circle
0.0,7.0,2.0,1.0,5.0,5.0,523.3678779914044,6.0,1.0,phase_2,stop,100.0,250.0,3.0,,,,,,,,,blue,cross
0.0,4.0,4.0,0.0,6.0,6.0,515.1521310326643,6.0,1.0,phase_2,go,50.0,250.0,1.0,,,,,,,,,gray,diamond
0.0,5.0,0.5,1.0,5.0,0.0,0.0,6.0,1.0,phase_2,stop,50.0,250.0,4.0,,,,,,,,,green,square
0.0,7.0,2.0,1.0,6.0,0.0,0.0,6.0,1.0,phase_2,stop,100.0,250.0,4.0,,,,,,,,,blue,cross
0.0,2.0,1.0,0.0,5.0,5.0,545.8168300101534,6.0,1.0,phase_2,go,100.0,300.0,1.0,,,,,,,,,yellow,circle
0.0,4.0,4.0,0.0,6.0,6.0,281.433786964044,6.0,1.0,phase_2,go,100.0,300.0,1.0,,,,,,,,,gray,diamond
0.0,2.0,1.0,0.0,6.0,6.0,386.2048049923032,6.0,1.0,phase_2,go,100.0,300.0,1.0,,,,,,,,,yellow,circle
0.0,2.0,1.0,0.0,6.0,6.0,344.7512880084105,6.0,1.0,phase_2,go,100.0,300.0,1.0,,,,,,,,,yellow,circle
0.0,3.0,2.0,0.0,5.0,5.0,497.2255869652144,6.0,1.0,phase_2,go,100.0,300.0,1.0,,,,,,,,,cyan,triangle
0.0,1.0,0.5,0.0,5.0,5.0,422.924121026881,6.0,1.0,phase_2,go,100.0,300.0,1.0,,,,,,,,,orange,flipped triangle
0.0,3.0,2.0,0.0,6.0,6.0,430.5867980001494,6.0,1.0,phase_2,go,100.0,300.0,1.0,,,,,,,,,cyan,triangle
0.0,1.0,0.5,0.0,6.0,6.0,380.3579009836539,6.0,1.0,phase_2,go,100.0,300.0,1.0,,,,,,,,,orange,flipped triangle
0.0,2.0,1.0,0.0,5.0,5.0,355.9021329856477,6.0,1.0,phase_2,go,100.0,300.0,1.0,,,,,,,,,yellow,circle
0.0,8.0,4.0,1.0,6.0,0.0,0.0,6.0,1.0,phase_2,stop,100.0,300.0,4.0,,,,,,,,,white,I
0.0,8.0,4.0,1.0,6.0,0.0,0.0,6.0,1.0,phase_2,stop,100.0,350.0,4.0,,,,,,,,,white,I
0.0,2.0,1.0,0.0,5.0,5.0,443.0032729869708,6.0,1.0,phase_2,go,100.0,400.0,1.0,,,,,,,,,yellow,circle
0.0,2.0,1.0,0.0,5.0,5.0,393.1361369905062,6.0,1.0,phase_2,go,100.0,400.0,1.0,,,,,,,,,yellow,circle
0.0,6.0,1.0,1.0,6.0,6.0,323.9910080446861,6.0,1.0,phase_2,stop,100.0,400.0,3.0,,,,,,,,,magenta,hexagon
0.0,8.0,4.0,1.0,5.0,5.0,552.308279031422,6.0,1.0,phase_2,go,100.0,350.0,1.0,,,,,,,,,white,I
0.0,2.0,1.0,0.0,5.0,5.0,375.52348797908047,6.0,1.0,phase_2,go,100.0,350.0,1.0,,,,,,,,,yellow,circle
0.0,3.0,2.0,0.0,6.0,6.0,327.0934009924531,6.0,1.0,phase_2,go,100.0,350.0,1.0,,,,,,,,,cyan,triangle
0.0,4.0,4.0,0.0,5.0,5.0,321.8182420241646,6.0,1.0,phase_2,go,100.0,350.0,1.0,,,,,,,,,gray,diamond
0.0,7.0,2.0,1.0,6.0,6.0,318.7168429722078,6.0,1.0,phase_2,stop,100.0,350.0,3.0,,,,,,,,,blue,cross
0.0,5.0,0.5,1.0,5.0,0.0,0.0,6.0,1.0,phase_2,stop,100.0,300.0,4.0,,,,,,,,,green,square
0.0,3.0,2.0,0.0,6.0,6.0,476.0718679754063,6.0,1.0,phase_2,go,150.0,300.0,1.0,,,,,,,,,cyan,triangle
0.0,1.0,0.5,0.0,5.0,5.0,301.6625349991955,6.0,1.0,phase_2,go,150.0,300.0,1.0,,,,,,,,,orange,flipped triangle
0.0,6.0,1.0,1.0,6.0,6.0,326.2012799968943,6.0,1.0,phase_2,go,150.0,300.0,1.0,,,,,,,,,magenta,hexagon
0.0,8.0,4.0,1.0,6.0,6.0,467.5169020192697,6.0,1.0,phase_2,stop,150.0,300.0,3.0,,,,,,,,,white,I
0.0,4.0,4.0,0.0,5.0,5.0,556.5180539852008,6.0,1.0,phase_2,go,150.0,250.0,1.0,,,,,,,,,gray,diamond
0.0,7.0,2.0,1.0,6.0,0.0,0.0,6.0,1.0,phase_2,stop,150.0,250.0,4.0,,,,,,,,,blue,cross
0.0,8.0,4.0,1.0,5.0,5.0,362.7412349451333,6.0,1.0,phase_2,stop,150.0,300.0,3.0,,,,,,,,,white,I
0.0,5.0,0.5,1.0,6.0,0.0,0.0,6.0,1.0,phase_2,stop,100.0,300.0,4.0,,,,,,,,,green,square
0.0,3.0,2.0,0.0,6.0,6.0,745.8520850050263,6.0,1.0,phase_2,go,100.0,350.0,1.0,,,,,,,,,cyan,triangle
0.0,5.0,0.5,1.0,5.0,0.0,0.0,6.0,1.0,phase_2,stop,100.0,350.0,4.0,,,,,,,,,green,square
0.0,4.0,4.0,0.0,5.0,5.0,614.7920900257304,6.0,1.0,phase_2,go,150.0,350.0,1.0,,,,,,,,,gray,diamond
0.0,3.0,2.0,0.0,6.0,6.0,385.1982390042394,6.0,1.0,phase_2,go,150.0,350.0,1.0,,,,,,,,,cyan,triangle
0.0,8.0,4.0,1.0,5.0,5.0,479.5888770022429,7.0,1.0,phase_2,go,150.0,350.0,1.0,,,,,,,,,white,I
0.0,3.0,2.0,0.0,6.0,6.0,595.2788279973902,7.0,1.0,phase_2,go,150.0,350.0,1.0,,,,,,,,,cyan,triangle
0.0,5.0,0.5,1.0,5.0,0.0,0.0,7.0,1.0,phase_2,stop,150.0,350.0,4.0,,,,,,,,,green,square
0.0,8.0,4.0,1.0,5.0,0.0,0.0,7.0,1.0,phase_2,stop,200.0,350.0,4.0,,,,,,,,,white,I
0.0,4.0,4.0,0.0,6.0,6.0,313.8090829597786,7.0,1.0,phase_2,go,250.0,350.0,1.0,,,,,,,,,gray,diamond
0.0,8.0,4.0,1.0,5.0,5.0,570.4539770376869,7.0,1.0,phase_2,go,250.0,350.0,1.0,,,,,,,,,white,I
0.0,1.0,0.5,0.0,6.0,6.0,303.8234540144913,7.0,1.0,phase_2,go,250.0,350.0,1.0,,,,,,,,,orange,flipped triangle
0.0,3.0,2.0,0.0,5.0,5.0,370.5784569610841,7.0,1.0,phase_2,go,250.0,350.0,1.0,,,,,,,,,cyan,triangle
0.0,7.0,2.0,1.0,6.0,6.0,299.0208489936776,7.0,1.0,phase_2,stop,250.0,350.0,3.0,,,,,,,,,blue,cross
0.0,3.0,2.0,0.0,5.0,5.0,383.6124449735507,7.0,1.0,phase_2,go,250.0,300.0,1.0,,,,,,,,,cyan,triangle
0.0,3.0,2.0,0.0,5.0,5.0,409.5466150320135,7.0,1.0,phase_2,go,250.0,300.0,1.0,,,,,,,,,cyan,triangle
0.0,5.0,0.5,1.0,5.0,0.0,0.0,7.0,1.0,phase_2,stop,250.0,300.0,4.0,,,,,,,,,green,square
0.0,7.0,2.0,1.0,6.0,6.0,284.7741089644842,7.0,1.0,phase_2,stop,300.0,300.0,3.0,,,,,,,,,blue,cross
0.0,3.0,2.0,0.0,5.0,5.0,524.0245860186405,7.0,1.0,phase_2,go,300.0,250.0,1.0,,,,,,,,,cyan,triangle
0.0,7.0,2.0,1.0,6.0,0.0,0.0,7.0,1.0,phase_2,stop,300.0,250.0,4.0,,,,,,,,,blue,cross
0.0,4.0,4.0,0.0,6.0,6.0,606.6799310501665,7.0,1.0,phase_2,go,300.0,300.0,1.0,,,,,,,,,gray,diamond
0.0,4.0,4.0,0.0,6.0,6.0,501.4124009758234,7.0,1.0,phase_2,go,300.0,300.0,1.0,,,,,,,,,gray,diamond
0.0,1.0,0.5,0.0,6.0,6.0,330.7026430265978,7.0,1.0,phase_2,go,300.0,300.0,1.0,,,,,,,,,orange,flipped triangle
0.0,2.0,1.0,0.0,5.0,5.0,521.6498909867369,7.0,1.0,phase_2,go,300.0,300.0,1.0,,,,,,,,,yellow,circle
0.0,2.0,1.0,0.0,6.0,6.0,312.9376859869808,7.0,1.0,phase_2,go,300.0,300.0,1.0,,,,,,,,,yellow,circle
0.0,1.0,0.5,0.0,6.0,6.0,330.2287440164946,7.0,1.0,phase_2,go,300.0,300.0,1.0,,,,,,,,,orange,flipped triangle
0.0,2.0,1.0,0.0,5.0,5.0,384.6109070000238,7.0,1.0,phase_2,go,300.0,300.0,1.0,,,,,,,,,yellow,circle
0.0,6.0,1.0,1.0,5.0,5.0,362.4791920301504,7.0,1.0,phase_2,stop,300.0,300.0,3.0,,,,,,,,,magenta,hexagon
0.0,2.0,1.0,0.0,5.0,5.0,776.8574939691462,7.0,1.0,phase_2,go,250.0,300.0,1.0,,,,,,,,,yellow,circle
0.0,5.0,0.5,1.0,5.0,0.0,0.0,7.0,1.0,phase_2,stop,250.0,300.0,4.0,,,,,,,,,green,square
0.0,7.0,2.0,1.0,5.0,0.0,0.0,7.0,1.0,phase_2,stop,300.0,300.0,4.0,,,,,,,,,blue,cross
0.0,7.0,2.0,1.0,5.0,5.0,445.9426740068011,7.0,1.0,phase_2,stop,350.0,300.0,3.0,,,,,,,,,blue,cross
0.0,1.0,0.5,0.0,6.0,6.0,252.9089690069668,7.0,1.0,phase_2,go,300.0,300.0,1.0,,,,,,,,,orange,flipped triangle
0.0,2.0,1.0,0.0,6.0,6.0,269.6908750222064,7.0,1.0,phase_2,go,300.0,300.0,1.0,,,,,,,,,yellow,circle
0.0,1.0,0.5,0.0,5.0,5.0,582.2478090412915,7.0,1.0,phase_2,go,300.0,300.0,1.0,,,,,,,,,orange,flipped triangle
0.0,5.0,0.5,1.0,6.0,0.0,0.0,7.0,1.0,phase_2,stop,300.0,300.0,4.0,,,,,,,,,green,square
0.0,6.0,1.0,1.0,5.0,0.0,0.0,7.0,1.0,phase_2,stop,300.0,350.0,4.0,,,,,,,,,magenta,hexagon
0.0,5.0,0.5,1.0,6.0,0.0,0.0,7.0,1.0,phase_2,stop,350.0,350.0,4.0,,,,,,,,,green,square
0.0,3.0,2.0,0.0,6.0,6.0,467.6129299914464,7.0,1.0,phase_2,go,350.0,400.0,1.0,,,,,,,,,cyan,triangle
0.0,6.0,1.0,1.0,5.0,5.0,282.3760460014455,7.0,1.0,phase_2,stop,350.0,400.0,3.0,,,,,,,,,magenta,hexagon
0.0,4.0,4.0,0.0,6.0,6.0,484.4249479938298,7.0,1.0,phase_2,go,300.0,400.0,1.0,,,,,,,,,gray,diamond
0.0,2.0,1.0,0.0,6.0,6.0,549.0169780096039,8.0,1.0,phase_2,go,300.0,400.0,1.0,,,,,,,,,yellow,circle
0.0,4.0,4.0,0.0,6.0,6.0,516.4809260168113,8.0,1.0,phase_2,go,300.0,400.0,1.0,,,,,,,,,gray,diamond
0.0,3.0,2.0,0.0,5.0,5.0,545.8723159972578,8.0,1.0,phase_2,go,300.0,400.0,1.0,,,,,,,,,cyan,triangle
0.0,6.0,1.0,1.0,6.0,6.0,329.6216769958846,8.0,1.0,phase_2,stop,300.0,400.0,3.0,,,,,,,,,magenta,hexagon
0.0,6.0,1.0,1.0,5.0,5.0,587.5853619654663,8.0,1.0,phase_2,go,300.0,350.0,1.0,,,,,,,,,magenta,hexagon
0.0,3.0,2.0,0.0,5.0,5.0,492.2549090115353,8.0,1.0,phase_2,go,300.0,350.0,1.0,,,,,,,,,cyan,triangle
0.0,8.0,4.0,1.0,5.0,0.0,0.0,8.0,1.0,phase_2,stop,300.0,350.0,4.0,,,,,,,,,white,I
0.0,5.0,0.5,1.0,5.0,5.0,450.1499000471085,8.0,1.0,phase_2,stop,350.0,350.0,3.0,,,,,,,,,green,square
0.0,1.0,0.5,0.0,6.0,6.0,542.7407899987884,8.0,1.0,phase_2,go,300.0,350.0,1.0,,,,,,,,,orange,flipped triangle
0.0,3.0,2.0,0.0,5.0,5.0,544.5780180161819,8.0,1.0,phase_2,go,300.0,350.0,1.0,,,,,,,,,cyan,triangle
0.0,5.0,0.5,1.0,5.0,0.0,0.0,8.0,1.0,phase_2,stop,300.0,350.0,4.0,,,,,,,,,green,square
0.0,4.0,4.0,0.0,5.0,5.0,590.7929880195297,8.0,1.0,phase_2,go,350.0,350.0,1.0,,,,,,,,,gray,diamond
0.0,4.0,4.0,0.0,5.0,5.0,614.0738370013423,8.0,1.0,phase_2,go,350.0,350.0,1.0,,,,,,,,,gray,diamond
0.0,2.0,1.0,0.0,6.0,6.0,543.7928009778261,8.0,1.0,phase_2,go,350.0,350.0,1.0,,,,,,,,,yellow,circle
0.0,1.0,0.5,0.0,6.0,6.0,563.4333689813502,8.0,1.0,phase_2,go,350.0,350.0,1.0,,,,,,,,,orange,flipped triangle
0.0,4.0,4.0,0.0,5.0,5.0,725.0594940269366,8.0,1.0,phase_2,go,350.0,350.0,1.0,,,,,,,,,gray,diamond
0.0,4.0,4.0,0.0,6.0,6.0,628.0210010008886,8.0,1.0,phase_2,go,350.0,350.0,1.0,,,,,,,,,gray,diamond
0.0,3.0,2.0,0.0,6.0,6.0,749.4242700049654,8.0,1.0,phase_2,go,350.0,350.0,1.0,,,,,,,,,cyan,triangle
0.0,3.0,2.0,0.0,6.0,6.0,401.031983026769,8.0,1.0,phase_2,go,350.0,350.0,1.0,,,,,,,,,cyan,triangle
0.0,1.0,0.5,0.0,6.0,6.0,634.532731026411,8.0,1.0,phase_2,go,350.0,350.0,1.0,,,,,,,,,orange,flipped triangle
0.0,7.0,2.0,1.0,5.0,5.0,375.5235800053924,8.0,1.0,phase_2,stop,350.0,350.0,3.0,,,,,,,,,blue,cross
0.0,3.0,2.0,0.0,6.0,6.0,521.1044570314698,8.0,1.0,phase_2,go,300.0,350.0,1.0,,,,,,,,,cyan,triangle
0.0,6.0,1.0,1.0,5.0,0.0,0.0,8.0,1.0,phase_2,stop,300.0,350.0,4.0,,,,,,,,,magenta,hexagon
0.0,8.0,4.0,1.0,6.0,0.0,0.0,8.0,1.0,phase_2,stop,350.0,350.0,4.0,,,,,,,,,white,I
0.0,7.0,2.0,1.0,6.0,6.0,512.7454880275764,8.0,1.0,phase_2,go,350.0,400.0,1.0,,,,,,,,,blue,cross
0.0,8.0,4.0,1.0,5.0,5.0,317.6847369759343,8.0,1.0,phase_2,stop,350.0,400.0,3.0,,,,,,,,,white,I
0.0,5.0,0.5,1.0,6.0,6.0,487.0346959796734,8.0,1.0,phase_2,stop,300.0,400.0,3.0,,,,,,,,,green,square
0.0,8.0,4.0,1.0,5.0,0.0,0.0,8.0,1.0,phase_2,stop,300.0,350.0,4.0,,,,,,,,,white,I
0.0,1.0,0.5,0.0,5.0,5.0,687.1770659927279,8.0,1.0,phase_2,go,350.0,350.0,1.0,,,,,,,,,orange,flipped triangle
0.0,6.0,1.0,1.0,5.0,5.0,292.8124240133911,8.0,1.0,phase_2,stop,350.0,350.0,3.0,,,,,,,,,magenta,hexagon
0.0,4.0,4.0,0.0,6.0,6.0,501.47801503771916,8.0,1.0,phase_2,go,300.0,350.0,1.0,,,,,,,,,gray,diamond
0.0,7.0,2.0,1.0,5.0,5.0,317.9406209965236,8.0,1.0,phase_2,stop,300.0,350.0,3.0,,,,,,,,,blue,cross
0.0,8.0,4.0,1.0,5.0,5.0,738.1776080001146,8.0,1.0,phase_2,go,250.0,350.0,1.0,,,,,,,,,white,I
0.0,2.0,1.0,0.0,6.0,6.0,434.4917249982245,8.0,1.0,phase_2,go,250.0,350.0,1.0,,,,,,,,,yellow,circle
0.0,4.0,4.0,0.0,6.0,6.0,451.4053909806534,8.0,1.0,phase_2,go,250.0,350.0,1.0,,,,,,,,,gray,diamond
0.0,7.0,2.0,1.0,6.0,6.0,361.8568009696901,8.0,1.0,phase_2,go,250.0,350.0,1.0,,,,,,,,,blue,cross
0.0,4.0,4.0,0.0,7.0,1.0,2303.734552988317,1.0,2.0,phase_3,,,,,176.0,4.0,176.0,132.0,44.0,264.0,88.0,220.0,gray,diamond
0.0,7.0,2.0,1.0,7.0,3.0,3208.66213896079,1.0,1.0,phase_3,,,,,44.0,1.0,132.0,264.0,44.0,220.0,176.0,88.0,blue,cross
0.0,5.0,0.5,1.0,7.0,1.0,2819.79138602037,1.0,1.0,phase_3,,,,,44.0,1.0,44.0,132.0,264.0,176.0,220.0,88.0,green,square
0.0,3.0,2.0,0.0,7.0,5.0,2890.801839006599,1.0,1.0,phase_3,,,,,204.0,6.0,34.0,170.0,136.0,68.0,204.0,102.0,cyan,triangle
0.0,8.0,4.0,1.0,7.0,1.0,2079.036638024263,1.0,1.0,phase_3,,,,,264.0,6.0,264.0,88.0,132.0,176.0,220.0,44.0,white,I
0.0,7.0,2.0,1.0,7.0,5.0,2527.106257970445,1.0,1.0,phase_3,,,,,216.0,4.0,108.0,270.0,54.0,324.0,216.0,162.0,blue,cross
0.0,1.0,0.5,0.0,7.0,4.0,1552.2511349990964,1.0,1.0,phase_3,,,,,39.0,1.0,156.0,195.0,234.0,39.0,78.0,117.0,orange,flipped triangle
0.0,6.0,1.0,1.0,7.0,4.0,2921.037905965932,1.0,1.0,phase_3,,,,,108.0,2.0,216.0,324.0,162.0,108.0,270.0,54.0,magenta,hexagon
0.0,5.0,0.5,1.0,7.0,4.0,1841.9882250018416,1.0,1.0,phase_3,,,,,78.0,2.0,156.0,117.0,39.0,78.0,234.0,195.0,green,square
0.0,8.0,4.0,1.0,7.0,2.0,2238.6520199943334,1.0,1.0,phase_3,,,,,204.0,6.0,68.0,204.0,102.0,170.0,136.0,34.0,white,I
0.0,1.0,0.5,0.0,7.0,2.0,1687.493823992554,1.0,1.0,phase_3,,,,,54.0,1.0,108.0,54.0,270.0,324.0,216.0,162.0,orange,flipped triangle
0.0,3.0,2.0,0.0,7.0,5.0,2746.269031020347,1.0,1.0,phase_3,,,,,156.0,4.0,234.0,39.0,195.0,117.0,156.0,78.0,cyan,triangle
0.0,4.0,4.0,0.0,7.0,3.0,1617.2624409664422,1.0,1.0,phase_3,,,,,117.0,3.0,156.0,234.0,117.0,78.0,39.0,195.0,gray,diamond
0.0,3.0,2.0,0.0,7.0,4.0,2691.539841005578,1.0,1.0,phase_3,,,,,156.0,4.0,78.0,117.0,195.0,156.0,234.0,39.0,cyan,triangle
0.0,5.0,0.5,1.0,7.0,1.0,2380.261577025521,1.0,1.0,phase_3,,,,,156.0,4.0,156.0,234.0,39.0,195.0,117.0,78.0,green,square
0.0,6.0,1.0,1.0,7.0,3.0,1670.9960090229288,1.0,1.0,phase_3,,,,,44.0,1.0,220.0,88.0,44.0,132.0,176.0,264.0,magenta,hexagon
0.0,8.0,4.0,1.0,7.0,6.0,2005.2370199700817,1.0,1.0,phase_3,,,,,264.0,6.0,44.0,220.0,176.0,88.0,132.0,264.0,white,I
0.0,2.0,1.0,0.0,7.0,3.0,2113.281942962203,1.0,1.0,phase_3,,,,,108.0,2.0,162.0,54.0,108.0,270.0,324.0,216.0,yellow,circle
0.0,4.0,4.0,0.0,7.0,1.0,2114.21230295673,1.0,1.0,phase_3,,,,,102.0,3.0,102.0,204.0,68.0,136.0,34.0,170.0,gray,diamond
0.0,1.0,0.5,0.0,7.0,5.0,1900.3212429815903,1.0,1.0,phase_3,,,,,98.0,2.0,49.0,196.0,147.0,294.0,98.0,245.0,orange,flipped triangle
0.0,3.0,2.0,0.0,7.0,3.0,1592.5350379548036,2.0,1.0,phase_3,,,,,270.0,5.0,162.0,324.0,270.0,216.0,108.0,54.0,cyan,triangle
0.0,2.0,1.0,0.0,7.0,4.0,2361.9056519819424,2.0,1.0,phase_3,,,,,147.0,3.0,49.0,98.0,196.0,147.0,245.0,294.0,yellow,circle
0.0,6.0,1.0,1.0,7.0,2.0,2331.030109024141,2.0,1.0,phase_3,,,,,49.0,1.0,294.0,49.0,98.0,245.0,147.0,196.0,magenta,hexagon
0.0,8.0,4.0,1.0,7.0,4.0,2615.068293991498,2.0,1.0,phase_3,,,,,294.0,6.0,49.0,196.0,147.0,294.0,245.0,98.0,white,I
0.0,7.0,2.0,1.0,7.0,6.0,1768.9079209812917,2.0,1.0,phase_3,,,,,220.0,5.0,264.0,132.0,44.0,176.0,88.0,220.0,blue,cross
0.0,4.0,4.0,0.0,7.0,5.0,2383.792056003585,2.0,1.0,phase_3,,,,,195.0,5.0,117.0,39.0,234.0,78.0,195.0,156.0,gray,diamond
0.0,4.0,4.0,0.0,7.0,6.0,2170.4244160209782,2.0,1.0,phase_3,,,,,176.0,4.0,132.0,88.0,44.0,264.0,220.0,176.0,gray,diamond
0.0,8.0,4.0,1.0,7.0,4.0,1605.1944990176708,2.0,1.0,phase_3,,,,,234.0,6.0,78.0,117.0,156.0,234.0,39.0,195.0,white,I
0.0,3.0,2.0,0.0,7.0,6.0,2020.3592340112664,2.0,1.0,phase_3,,,,,170.0,5.0,136.0,68.0,204.0,34.0,102.0,170.0,cyan,triangle
0.0,6.0,1.0,1.0,7.0,1.0,2077.755559992511,2.0,1.0,phase_3,,,,,98.0,2.0,98.0,49.0,147.0,245.0,196.0,294.0,magenta,hexagon
0.0,5.0,0.5,1.0,7.0,3.0,2638.741968024988,2.0,1.0,phase_3,,,,,34.0,1.0,102.0,68.0,34.0,204.0,170.0,136.0,green,square
0.0,7.0,2.0,1.0,7.0,3.0,2227.378343988676,2.0,1.0,phase_3,,,,,234.0,6.0,195.0,78.0,234.0,39.0,156.0,117.0,blue,cross
0.0,2.0,1.0,0.0,7.0,4.0,1812.804198998492,2.0,1.0,phase_3,,,,,44.0,1.0,88.0,264.0,132.0,44.0,176.0,220.0,yellow,circle
0.0,5.0,0.5,1.0,7.0,2.0,2756.1306650168262,2.0,1.0,phase_3,,,,,98.0,2.0,147.0,98.0,196.0,245.0,294.0,49.0,green,square
0.0,4.0,4.0,0.0,7.0,2.0,2109.034385997802,2.0,1.0,phase_3,,,,,108.0,2.0,270.0,108.0,324.0,216.0,54.0,162.0,gray,diamond
0.0,7.0,2.0,1.0,7.0,1.0,2349.7234949609265,2.0,1.0,phase_3,,,,,196.0,4.0,196.0,49.0,294.0,245.0,147.0,98.0,blue,cross
0.0,5.0,0.5,1.0,7.0,4.0,3121.133148961235,2.0,1.0,phase_3,,,,,216.0,4.0,54.0,162.0,324.0,216.0,270.0,108.0,green,square
0.0,4.0,4.0,0.0,7.0,2.0,2483.786605007481,2.0,1.0,phase_3,,,,,170.0,5.0,34.0,170.0,136.0,102.0,68.0,204.0,gray,diamond
0.0,3.0,2.0,0.0,7.0,3.0,2329.7857769648544,2.0,1.0,phase_3,,,,,176.0,4.0,220.0,132.0,176.0,88.0,264.0,44.0,cyan,triangle
0.0,2.0,1.0,0.0,7.0,2.0,1934.240091999527,2.0,1.0,phase_3,,,,,102.0,3.0,34.0,102.0,170.0,204.0,68.0,136.0,yellow,circle
0.0,3.0,2.0,0.0,7.0,5.0,2822.0442769816145,3.0,1.0,phase_3,,,,,245.0,5.0,294.0,196.0,147.0,98.0,245.0,49.0,cyan,triangle
0.0,4.0,4.0,0.0,7.0,2.0,1683.682216971647,3.0,1.0,phase_3,,,,,245.0,5.0,98.0,245.0,196.0,294.0,147.0,49.0,gray,diamond
0.0,5.0,0.5,1.0,7.0,3.0,2392.3751969705336,3.0,1.0,phase_3,,,,,108.0,2.0,324.0,216.0,108.0,162.0,54.0,270.0,green,square
0.0,2.0,1.0,0.0,7.0,3.0,2208.6685860413127,3.0,1.0,phase_3,,,,,162.0,3.0,108.0,216.0,162.0,324.0,270.0,54.0,yellow,circle
0.0,2.0,1.0,0.0,7.0,2.0,1219.8252330417745,3.0,1.0,phase_3,,,,,98.0,2.0,245.0,98.0,294.0,147.0,49.0,196.0,yellow,circle
0.0,5.0,0.5,1.0,7.0,4.0,1621.2002599495463,3.0,1.0,phase_3,,,,,176.0,4.0,220.0,88.0,44.0,176.0,264.0,132.0,green,square
0.0,1.0,0.5,0.0,7.0,6.0,2066.558683989569,3.0,1.0,phase_3,,,,,98.0,2.0,196.0,147.0,294.0,245.0,49.0,98.0,orange,flipped triangle
0.0,8.0,4.0,1.0,7.0,3.0,1476.624767994508,3.0,1.0,phase_3,,,,,245.0,5.0,196.0,49.0,245.0,294.0,147.0,98.0,white,I
0.0,6.0,1.0,1.0,7.0,3.0,2336.86579100322,3.0,1.0,phase_3,,,,,136.0,4.0,34.0,204.0,136.0,68.0,102.0,170.0,magenta,hexagon
0.0,3.0,2.0,0.0,7.0,3.0,1698.5280810040422,3.0,1.0,phase_3,,,,,162.0,3.0,324.0,54.0,162.0,108.0,216.0,270.0,cyan,triangle
0.0,6.0,1.0,1.0,7.0,3.0,1497.98715201905,3.0,1.0,phase_3,,,,,204.0,6.0,102.0,170.0,204.0,68.0,136.0,34.0,magenta,hexagon
0.0,7.0,2.0,1.0,7.0,2.0,2194.3047560052946,3.0,1.0,phase_3,,,,,162.0,3.0,270.0,162.0,54.0,324.0,108.0,216.0,blue,cross
0.0,7.0,2.0,1.0,7.0,6.0,3114.81784802163,3.0,1.0,phase_3,,,,,117.0,3.0,234.0,156.0,39.0,195.0,78.0,117.0,blue,cross
0.0,7.0,2.0,1.0,7.0,2.0,2127.562850015238,3.0,1.0,phase_3,,,,,170.0,5.0,34.0,170.0,102.0,136.0,204.0,68.0,blue,cross
0.0,2.0,1.0,0.0,7.0,2.0,1416.3062080042437,3.0,1.0,phase_3,,,,,117.0,3.0,195.0,117.0,78.0,39.0,234.0,156.0,yellow,circle
0.0,7.0,2.0,1.0,7.0,2.0,1312.7781680086628,3.0,1.0,phase_3,,,,,245.0,5.0,98.0,245.0,196.0,49.0,147.0,294.0,blue,cross
0.0,6.0,1.0,1.0,7.0,6.0,2956.287872977555,3.0,1.0,phase_3,,,,,78.0,2.0,117.0,156.0,234.0,39.0,195.0,78.0,magenta,hexagon
0.0,8.0,4.0,1.0,7.0,5.0,1866.1549530224877,3.0,1.0,phase_3,,,,,324.0,6.0,54.0,270.0,162.0,216.0,324.0,108.0,white,I
0.0,4.0,4.0,0.0,7.0,2.0,1436.1814509611577,3.0,1.0,phase_3,,,,,216.0,4.0,270.0,216.0,54.0,324.0,108.0,162.0,gray,diamond
0.0,1.0,0.5,0.0,7.0,6.0,1524.5508359512314,3.0,1.0,phase_3,,,,,44.0,1.0,220.0,264.0,176.0,88.0,132.0,44.0,orange,flipped triangle
0.0,1.0,0.5,0.0,7.0,1.0,1208.8875570334494,4.0,1.0,phase_3,,,,,78.0,2.0,78.0,234.0,195.0,117.0,39.0,156.0,orange,flipped triangle
0.0,1.0,0.5,0.0,7.0,5.0,2219.7535230079666,4.0,1.0,phase_3,,,,,88.0,2.0,44.0,264.0,176.0,132.0,88.0,220.0,orange,flipped triangle
0.0,2.0,1.0,0.0,7.0,6.0,2788.697051990312,4.0,1.0,phase_3,,,,,117.0,3.0,195.0,39.0,156.0,78.0,234.0,117.0,yellow,circle
0.0,1.0,0.5,0.0,7.0,2.0,2414.4057399826124,4.0,1.0,phase_3,,,,,34.0,1.0,68.0,34.0,136.0,170.0,102.0,204.0,orange,flipped triangle
0.0,5.0,0.5,1.0,7.0,4.0,2013.412465981673,4.0,1.0,phase_3,,,,,98.0,2.0,147.0,294.0,245.0,98.0,49.0,196.0,green,square
0.0,2.0,1.0,0.0,7.0,5.0,2318.757770990487,4.0,1.0,phase_3,,,,,136.0,4.0,170.0,34.0,68.0,102.0,136.0,204.0,yellow,circle
0.0,7.0,2.0,1.0,7.0,2.0,2392.0720610185526,4.0,1.0,phase_3,,,,,170.0,5.0,68.0,170.0,34.0,136.0,204.0,102.0,blue,cross
0.0,1.0,0.5,0.0,7.0,3.0,3705.9163440135303,4.0,1.0,phase_3,,,,,54.0,1.0,324.0,162.0,54.0,270.0,108.0,216.0,orange,flipped triangle
0.0,6.0,1.0,1.0,7.0,1.0,1830.215670983307,4.0,1.0,phase_3,,,,,264.0,6.0,264.0,132.0,44.0,220.0,88.0,176.0,magenta,hexagon
0.0,1.0,0.5,0.0,7.0,6.0,2695.314101001713,4.0,1.0,phase_3,,,,,136.0,4.0,102.0,34.0,204.0,170.0,68.0,136.0,orange,flipped triangle
0.0,4.0,4.0,0.0,7.0,3.0,1317.9801719961688,4.0,1.0,phase_3,,,,,147.0,3.0,196.0,245.0,147.0,98.0,294.0,49.0,gray,diamond
0.0,3.0,2.0,0.0,7.0,5.0,1870.8867060486227,4.0,1.0,phase_3,,,,,196.0,4.0,49.0,98.0,147.0,294.0,196.0,245.0,cyan,triangle
0.0,8.0,4.0,1.0,7.0,5.0,2890.995124005713,4.0,1.0,phase_3,,,,,170.0,5.0,34.0,102.0,136.0,204.0,170.0,68.0,white,I
0.0,8.0,4.0,1.0,7.0,3.0,2002.0740840118378,4.0,1.0,phase_3,,,,,270.0,5.0,108.0,162.0,270.0,324.0,216.0,54.0,white,I
0.0,6.0,1.0,1.0,7.0,6.0,2141.5268459822983,4.0,1.0,phase_3,,,,,108.0,2.0,270.0,216.0,54.0,324.0,162.0,108.0,magenta,hexagon
0.0,3.0,2.0,0.0,7.0,2.0,2414.160692016594,4.0,1.0,phase_3,,,,,132.0,3.0,220.0,132.0,88.0,264.0,176.0,44.0,cyan,triangle
0.0,5.0,0.5,1.0,7.0,6.0,2088.3645320427604,4.0,1.0,phase_3,,,,,136.0,4.0,170.0,68.0,34.0,204.0,102.0,136.0,green,square
0.0,6.0,1.0,1.0,7.0,6.0,1754.677079967223,4.0,1.0,phase_3,,,,,117.0,3.0,78.0,156.0,234.0,195.0,39.0,117.0,magenta,hexagon
0.0,2.0,1.0,0.0,7.0,5.0,2497.680180007592,4.0,1.0,phase_3,,,,,176.0,4.0,44.0,264.0,88.0,132.0,176.0,220.0,yellow,circle
0.0,8.0,4.0,1.0,7.0,3.0,2069.2995619610883,4.0,1.0,phase_3,,,,,117.0,3.0,234.0,195.0,117.0,78.0,39.0,156.0,white,I
