raw_reward_magnitude,stim_reward,stepwise_reward_magnitude,paired_with_stopping,stim_location,response,reaction_time,block,num_trial_presentations,which_phase,stop_signal_trial_type,left_SSD,right_SSD,accuracy,chosen_bidding_amount,chosen_bidding_level,possible_bid_1,possible_bid_2,possible_bid_3,possible_bid_4,possible_bid_5,possible_bid_6,color_text,shape_text
0.0,6.0,0.0,1.0,1.0,1.0,304.65460600001387,1.0,1.0,phase_1,,,,,,,,,,,,,orange,flipped triangle
420.0,4.0,4.0,0.0,3.0,3.0,422.3042790000022,1.0,1.0,phase_1,,,,,,,,,,,,,cyan,cross
83.0,2.0,2.0,0.0,4.0,4.0,369.3722479999906,1.0,1.0,phase_1,,,,,,,,,,,,,green,circle
217.0,7.0,3.0,1.0,3.0,3.0,357.4126569999976,1.0,1.0,phase_1,,,,,,,,,,,,,white,square
214.0,7.0,3.0,1.0,2.0,2.0,256.8165170000043,1.0,1.0,phase_1,,,,,,,,,,,,,white,square
49.0,5.0,1.0,1.0,3.0,3.0,248.5159689999818,1.0,1.0,phase_1,,,,,,,,,,,,,blue,triangle
35.0,1.0,1.0,0.0,3.0,3.0,269.1667070000108,1.0,1.0,phase_1,,,,,,,,,,,,,gray,diamond
191.0,7.0,3.0,1.0,4.0,4.0,290.0249110000175,1.0,1.0,phase_1,,,,,,,,,,,,,white,square
79.0,6.0,2.0,1.0,4.0,4.0,301.3289129999918,1.0,1.0,phase_1,,,,,,,,,,,,,orange,flipped triangle
404.0,8.0,4.0,1.0,1.0,1.0,265.9609689999911,1.0,1.0,phase_1,,,,,,,,,,,,,yellow,hexagon
115.0,2.0,2.0,0.0,3.0,3.0,263.0487529999925,1.0,1.0,phase_1,,,,,,,,,,,,,green,circle
381.0,4.0,4.0,0.0,3.0,3.0,298.1244540000034,1.0,1.0,phase_1,,,,,,,,,,,,,cyan,cross
82.0,6.0,2.0,1.0,4.0,4.0,278.936600999998,1.0,1.0,phase_1,,,,,,,,,,,,,orange,flipped triangle
181.0,3.0,3.0,0.0,2.0,2.0,333.8189549999981,1.0,1.0,phase_1,,,,,,,,,,,,,magenta,I
44.0,1.0,1.0,0.0,1.0,1.0,307.4171369999874,1.0,1.0,phase_1,,,,,,,,,,,,,gray,diamond
99.0,2.0,2.0,0.0,4.0,4.0,335.3507799999988,1.0,1.0,phase_1,,,,,,,,,,,,,green,circle
92.0,6.0,2.0,1.0,3.0,3.0,299.2606519999867,1.0,1.0,phase_1,,,,,,,,,,,,,orange,flipped triangle
0.0,5.0,0.0,1.0,2.0,2.0,262.5926149999884,1.0,1.0,phase_1,,,,,,,,,,,,,blue,triangle
0.0,6.0,0.0,1.0,3.0,3.0,286.3176110000154,1.0,1.0,phase_1,,,,,,,,,,,,,orange,flipped triangle
0.0,3.0,0.0,0.0,1.0,1.0,306.1227320000057,1.0,1.0,phase_1,,,,,,,,,,,,,magenta,I
62.0,5.0,1.0,1.0,3.0,3.0,294.6177860000034,1.0,1.0,phase_1,,,,,,,,,,,,,blue,triangle
0.0,3.0,0.0,0.0,3.0,3.0,272.9271769999855,1.0,1.0,phase_1,,,,,,,,,,,,,magenta,I
0.0,7.0,0.0,1.0,1.0,1.0,301.8683159999966,1.0,1.0,phase_1,,,,,,,,,,,,,white,square
48.0,1.0,1.0,0.0,2.0,2.0,268.3291860000167,1.0,1.0,phase_1,,,,,,,,,,,,,gray,diamond
0.0,7.0,0.0,1.0,4.0,4.0,438.9946050000048,1.0,1.0,phase_1,,,,,,,,,,,,,white,square
73.0,5.0,1.0,1.0,4.0,4.0,332.1457339999938,1.0,1.0,phase_1,,,,,,,,,,,,,blue,triangle
74.0,5.0,1.0,1.0,1.0,1.0,236.3964090000081,1.0,1.0,phase_1,,,,,,,,,,,,,blue,triangle
119.0,2.0,2.0,0.0,3.0,3.0,276.7757059999667,1.0,1.0,phase_1,,,,,,,,,,,,,green,circle
410.0,8.0,4.0,1.0,4.0,4.0,241.4448879999895,1.0,1.0,phase_1,,,,,,,,,,,,,yellow,hexagon
62.0,1.0,1.0,0.0,2.0,2.0,272.4565849999862,1.0,1.0,phase_1,,,,,,,,,,,,,gray,diamond
118.0,6.0,2.0,1.0,3.0,3.0,271.3243670000338,1.0,1.0,phase_1,,,,,,,,,,,,,orange,flipped triangle
222.0,7.0,3.0,1.0,2.0,2.0,291.630605000023,1.0,1.0,phase_1,,,,,,,,,,,,,white,square
80.0,2.0,2.0,0.0,4.0,4.0,293.1029290000424,1.0,1.0,phase_1,,,,,,,,,,,,,green,circle
103.0,2.0,2.0,0.0,2.0,2.0,313.3150399999636,1.0,1.0,phase_1,,,,,,,,,,,,,green,circle
46.0,1.0,1.0,0.0,4.0,4.0,398.4360839999681,1.0,1.0,phase_1,,,,,,,,,,,,,gray,diamond
0.0,5.0,0.0,1.0,2.0,2.0,325.4825559999972,1.0,1.0,phase_1,,,,,,,,,,,,,blue,triangle
0.0,6.0,0.0,1.0,3.0,3.0,322.4811029999728,1.0,1.0,phase_1,,,,,,,,,,,,,orange,flipped triangle
379.0,8.0,4.0,1.0,3.0,3.0,324.3373509999969,1.0,1.0,phase_1,,,,,,,,,,,,,yellow,hexagon
0.0,8.0,0.0,1.0,4.0,4.0,265.7175420000044,1.0,1.0,phase_1,,,,,,,,,,,,,yellow,hexagon
418.0,8.0,4.0,1.0,1.0,1.0,318.2931810000013,1.0,1.0,phase_1,,,,,,,,,,,,,yellow,hexagon
188.0,7.0,3.0,1.0,2.0,2.0,289.873115999967,1.0,1.0,phase_1,,,,,,,,,,,,,white,square
84.0,6.0,2.0,1.0,2.0,2.0,305.678988000011,1.0,1.0,phase_1,,,,,,,,,,,,,orange,flipped triangle
221.0,3.0,3.0,0.0,2.0,2.0,301.9519220000006,1.0,1.0,phase_1,,,,,,,,,,,,,magenta,I
49.0,5.0,1.0,1.0,3.0,3.0,290.9151590000078,1.0,1.0,phase_1,,,,,,,,,,,,,blue,triangle
34.0,1.0,1.0,0.0,4.0,4.0,286.073000999977,1.0,1.0,phase_1,,,,,,,,,,,,,gray,diamond
86.0,6.0,2.0,1.0,1.0,1.0,313.5920040000428,1.0,1.0,phase_1,,,,,,,,,,,,,orange,flipped triangle
90.0,2.0,2.0,0.0,4.0,4.0,295.9975800000052,1.0,1.0,phase_1,,,,,,,,,,,,,green,circle
411.0,8.0,4.0,1.0,1.0,1.0,373.6017329999868,1.0,1.0,phase_1,,,,,,,,,,,,,yellow,hexagon
28.0,5.0,1.0,1.0,2.0,2.0,329.6868259999996,1.0,1.0,phase_1,,,,,,,,,,,,,blue,triangle
0.0,1.0,0.0,0.0,1.0,1.0,285.6564730000173,1.0,1.0,phase_1,,,,,,,,,,,,,gray,diamond
0.0,2.0,0.0,0.0,1.0,1.0,315.7667339999648,1.0,1.0,phase_1,,,,,,,,,,,,,green,circle
58.0,1.0,1.0,0.0,2.0,2.0,271.9206310000004,1.0,1.0,phase_1,,,,,,,,,,,,,gray,diamond
94.0,6.0,2.0,1.0,2.0,2.0,276.6033460000017,1.0,1.0,phase_1,,,,,,,,,,,,,orange,flipped triangle
203.0,7.0,3.0,1.0,1.0,1.0,321.8984450000448,1.0,1.0,phase_1,,,,,,,,,,,,,white,square
203.0,7.0,3.0,1.0,4.0,4.0,285.3346400000305,1.0,1.0,phase_1,,,,,,,,,,,,,white,square
399.0,8.0,4.0,1.0,2.0,2.0,224.1307849999998,1.0,1.0,phase_1,,,,,,,,,,,,,yellow,hexagon
190.0,7.0,3.0,1.0,3.0,3.0,256.3622499999951,1.0,1.0,phase_1,,,,,,,,,,,,,white,square
0.0,4.0,0.0,0.0,1.0,1.0,381.1231890000499,1.0,1.0,phase_1,,,,,,,,,,,,,cyan,cross
382.0,8.0,4.0,1.0,2.0,2.0,254.3149550000407,1.0,1.0,phase_1,,,,,,,,,,,,,yellow,hexagon
189.0,7.0,3.0,1.0,1.0,1.0,259.0070450000326,1.0,1.0,phase_1,,,,,,,,,,,,,white,square
0.0,1.0,0.0,0.0,3.0,3.0,298.2153089999997,1.0,1.0,phase_1,,,,,,,,,,,,,gray,diamond
208.0,3.0,3.0,0.0,4.0,4.0,261.4462569999887,1.0,1.0,phase_1,,,,,,,,,,,,,magenta,I
408.0,4.0,4.0,0.0,2.0,2.0,275.732956000013,1.0,1.0,phase_1,,,,,,,,,,,,,cyan,cross
195.0,3.0,3.0,0.0,3.0,3.0,293.5919899999817,1.0,1.0,phase_1,,,,,,,,,,,,,magenta,I
411.0,8.0,4.0,1.0,4.0,4.0,309.9378570000226,1.0,1.0,phase_1,,,,,,,,,,,,,yellow,hexagon
391.0,4.0,4.0,0.0,3.0,3.0,281.8234789999678,1.0,1.0,phase_1,,,,,,,,,,,,,cyan,cross
43.0,5.0,1.0,1.0,2.0,2.0,270.0946309999494,1.0,1.0,phase_1,,,,,,,,,,,,,blue,triangle
382.0,8.0,4.0,1.0,4.0,4.0,347.4358800000345,1.0,1.0,phase_1,,,,,,,,,,,,,yellow,hexagon
50.0,1.0,1.0,0.0,2.0,2.0,269.8269329999903,1.0,1.0,phase_1,,,,,,,,,,,,,gray,diamond
62.0,1.0,1.0,0.0,4.0,4.0,276.298268000005,1.0,1.0,phase_1,,,,,,,,,,,,,gray,diamond
209.0,7.0,3.0,1.0,1.0,1.0,288.8695439999651,1.0,1.0,phase_1,,,,,,,,,,,,,white,square
195.0,7.0,3.0,1.0,3.0,3.0,283.3723840000175,1.0,1.0,phase_1,,,,,,,,,,,,,white,square
202.0,3.0,3.0,0.0,3.0,3.0,264.0547130000072,1.0,1.0,phase_1,,,,,,,,,,,,,magenta,I
0.0,4.0,0.0,0.0,4.0,4.0,309.2323669999928,1.0,1.0,phase_1,,,,,,,,,,,,,cyan,cross
56.0,1.0,1.0,0.0,1.0,1.0,305.481229999998,1.0,1.0,phase_1,,,,,,,,,,,,,gray,diamond
179.0,3.0,3.0,0.0,4.0,4.0,256.0459140000262,1.0,1.0,phase_1,,,,,,,,,,,,,magenta,I
74.0,1.0,1.0,0.0,2.0,2.0,373.9766890000169,1.0,1.0,phase_1,,,,,,,,,,,,,gray,diamond
401.0,4.0,4.0,0.0,1.0,1.0,264.0604940000344,1.0,1.0,phase_1,,,,,,,,,,,,,cyan,cross
408.0,8.0,4.0,1.0,4.0,4.0,270.7012560000521,1.0,1.0,phase_1,,,,,,,,,,,,,yellow,hexagon
379.0,8.0,4.0,1.0,2.0,2.0,242.4916869999833,1.0,1.0,phase_1,,,,,,,,,,,,,yellow,hexagon
0.0,3.0,0.0,0.0,2.0,2.0,294.16594100001697,1.0,1.0,phase_1,,,,,,,,,,,,,magenta,I
401.0,4.0,4.0,0.0,2.0,2.0,308.3836970000106,1.0,1.0,phase_1,,,,,,,,,,,,,cyan,cross
0.0,7.0,0.0,1.0,4.0,4.0,241.0252469999818,1.0,1.0,phase_1,,,,,,,,,,,,,white,square
420.0,8.0,4.0,1.0,4.0,4.0,333.6379309999984,1.0,1.0,phase_1,,,,,,,,,,,,,yellow,hexagon
417.0,8.0,4.0,1.0,4.0,4.0,347.3410949999902,1.0,1.0,phase_1,,,,,,,,,,,,,yellow,hexagon
416.0,8.0,4.0,1.0,4.0,4.0,262.0346329999847,1.0,1.0,phase_1,,,,,,,,,,,,,yellow,hexagon
382.0,4.0,4.0,0.0,2.0,2.0,321.2569770000186,1.0,1.0,phase_1,,,,,,,,,,,,,cyan,cross
77.0,6.0,2.0,1.0,1.0,1.0,254.89734199999248,1.0,1.0,phase_1,,,,,,,,,,,,,orange,flipped triangle
0.0,6.0,0.0,1.0,2.0,2.0,277.7811459999952,1.0,1.0,phase_1,,,,,,,,,,,,,orange,flipped triangle
202.0,3.0,3.0,0.0,3.0,3.0,289.6491609999998,1.0,1.0,phase_1,,,,,,,,,,,,,magenta,I
56.0,5.0,1.0,1.0,3.0,3.0,375.945430999991,1.0,1.0,phase_1,,,,,,,,,,,,,blue,triangle
0.0,5.0,0.0,1.0,3.0,3.0,298.0623839999907,1.0,1.0,phase_1,,,,,,,,,,,,,blue,triangle
80.0,6.0,2.0,1.0,2.0,2.0,301.5390369999977,1.0,1.0,phase_1,,,,,,,,,,,,,orange,flipped triangle
191.0,3.0,3.0,0.0,3.0,3.0,355.035292000025,1.0,1.0,phase_1,,,,,,,,,,,,,magenta,I
420.0,4.0,4.0,0.0,3.0,3.0,247.4242910000157,1.0,1.0,phase_1,,,,,,,,,,,,,cyan,cross
421.0,8.0,4.0,1.0,2.0,2.0,220.1387709999949,1.0,1.0,phase_1,,,,,,,,,,,,,yellow,hexagon
0.0,1.0,0.0,0.0,2.0,2.0,232.5340969999842,1.0,1.0,phase_1,,,,,,,,,,,,,gray,diamond
83.0,2.0,2.0,0.0,3.0,3.0,240.2627249999795,1.0,1.0,phase_1,,,,,,,,,,,,,green,circle
410.0,4.0,4.0,0.0,1.0,1.0,220.49947300001799,1.0,1.0,phase_1,,,,,,,,,,,,,cyan,cross
412.0,8.0,4.0,1.0,1.0,1.0,264.5001169999545,1.0,1.0,phase_1,,,,,,,,,,,,,yellow,hexagon
0.0,8.0,0.0,1.0,3.0,3.0,262.0895109999992,2.0,1.0,phase_1,,,,,,,,,,,,,yellow,hexagon
87.0,6.0,2.0,1.0,2.0,2.0,237.0215109999662,2.0,1.0,phase_1,,,,,,,,,,,,,orange,flipped triangle
0.0,7.0,0.0,1.0,1.0,1.0,265.4668430000129,2.0,1.0,phase_1,,,,,,,,,,,,,white,square
121.0,6.0,2.0,1.0,1.0,1.0,253.505036999968,2.0,1.0,phase_1,,,,,,,,,,,,,orange,flipped triangle
103.0,2.0,2.0,0.0,3.0,3.0,281.3017749999744,2.0,1.0,phase_1,,,,,,,,,,,,,green,circle
411.0,4.0,4.0,0.0,4.0,4.0,253.46517200000562,2.0,1.0,phase_1,,,,,,,,,,,,,cyan,cross
188.0,3.0,3.0,0.0,1.0,1.0,283.632099999977,2.0,1.0,phase_1,,,,,,,,,,,,,magenta,I
0.0,5.0,0.0,1.0,4.0,4.0,415.5244329999732,2.0,1.0,phase_1,,,,,,,,,,,,,blue,triangle
38.0,1.0,1.0,0.0,1.0,1.0,323.1853130000672,2.0,1.0,phase_1,,,,,,,,,,,,,gray,diamond
83.0,6.0,2.0,1.0,1.0,1.0,272.4302490000809,2.0,1.0,phase_1,,,,,,,,,,,,,orange,flipped triangle
397.0,8.0,4.0,1.0,3.0,3.0,295.8424689999219,2.0,1.0,phase_1,,,,,,,,,,,,,yellow,hexagon
0.0,1.0,0.0,0.0,4.0,4.0,273.7042810000503,2.0,1.0,phase_1,,,,,,,,,,,,,gray,diamond
74.0,5.0,1.0,1.0,4.0,4.0,289.9736540000504,2.0,1.0,phase_1,,,,,,,,,,,,,blue,triangle
29.0,5.0,1.0,1.0,4.0,4.0,268.7505420000207,2.0,1.0,phase_1,,,,,,,,,,,,,blue,triangle
0.0,8.0,0.0,1.0,1.0,1.0,282.6966840000295,2.0,1.0,phase_1,,,,,,,,,,,,,yellow,hexagon
0.0,2.0,0.0,0.0,4.0,4.0,261.1649540000371,2.0,1.0,phase_1,,,,,,,,,,,,,green,circle
221.0,7.0,3.0,1.0,4.0,4.0,273.6070450000625,2.0,1.0,phase_1,,,,,,,,,,,,,white,square
61.0,1.0,1.0,0.0,3.0,3.0,296.7403599999443,2.0,1.0,phase_1,,,,,,,,,,,,,gray,diamond
80.0,2.0,2.0,0.0,2.0,2.0,229.5399050000242,2.0,1.0,phase_1,,,,,,,,,,,,,green,circle
406.0,8.0,4.0,1.0,4.0,4.0,240.9999220000145,2.0,1.0,phase_1,,,,,,,,,,,,,yellow,hexagon
56.0,5.0,1.0,1.0,2.0,2.0,272.6503449999882,2.0,2.0,phase_1,,,,,,,,,,,,,blue,triangle
407.0,8.0,4.0,1.0,3.0,3.0,288.9158089999455,2.0,1.0,phase_1,,,,,,,,,,,,,yellow,hexagon
208.0,7.0,3.0,1.0,4.0,4.0,300.6430980000232,2.0,1.0,phase_1,,,,,,,,,,,,,white,square
214.0,7.0,3.0,1.0,2.0,2.0,240.2472210000041,2.0,1.0,phase_1,,,,,,,,,,,,,white,square
34.0,5.0,1.0,1.0,4.0,4.0,301.2964060000058,2.0,1.0,phase_1,,,,,,,,,,,,,blue,triangle
45.0,1.0,1.0,0.0,3.0,3.0,344.4940499999802,2.0,1.0,phase_1,,,,,,,,,,,,,gray,diamond
193.0,7.0,3.0,1.0,3.0,3.0,293.3198640000682,2.0,1.0,phase_1,,,,,,,,,,,,,white,square
100.0,6.0,2.0,1.0,2.0,2.0,345.861738999929,2.0,1.0,phase_1,,,,,,,,,,,,,orange,flipped triangle
178.0,7.0,3.0,1.0,2.0,2.0,280.1214830000162,2.0,1.0,phase_1,,,,,,,,,,,,,white,square
183.0,3.0,3.0,0.0,2.0,2.0,324.7760720000769,2.0,1.0,phase_1,,,,,,,,,,,,,magenta,I
84.0,2.0,2.0,0.0,1.0,1.0,329.7434890000659,2.0,1.0,phase_1,,,,,,,,,,,,,green,circle
394.0,8.0,4.0,1.0,3.0,3.0,268.020751999984,2.0,1.0,phase_1,,,,,,,,,,,,,yellow,hexagon
0.0,7.0,0.0,1.0,4.0,4.0,289.4860650000055,2.0,1.0,phase_1,,,,,,,,,,,,,white,square
402.0,8.0,4.0,1.0,2.0,2.0,271.6985519999753,2.0,1.0,phase_1,,,,,,,,,,,,,yellow,hexagon
381.0,8.0,4.0,1.0,1.0,1.0,283.1119790000684,2.0,1.0,phase_1,,,,,,,,,,,,,yellow,hexagon
209.0,3.0,3.0,0.0,4.0,4.0,288.6406290000423,2.0,1.0,phase_1,,,,,,,,,,,,,magenta,I
50.0,5.0,1.0,1.0,1.0,1.0,315.5225410000639,2.0,1.0,phase_1,,,,,,,,,,,,,blue,triangle
119.0,6.0,2.0,1.0,4.0,4.0,272.3664679999729,2.0,1.0,phase_1,,,,,,,,,,,,,orange,flipped triangle
185.0,3.0,3.0,0.0,2.0,2.0,255.7109020000325,2.0,1.0,phase_1,,,,,,,,,,,,,magenta,I
62.0,1.0,1.0,0.0,3.0,3.0,268.0715330000112,2.0,1.0,phase_1,,,,,,,,,,,,,gray,diamond
0.0,8.0,0.0,1.0,4.0,4.0,272.9990980000139,2.0,1.0,phase_1,,,,,,,,,,,,,yellow,hexagon
0.0,4.0,0.0,0.0,1.0,1.0,268.9424129999906,2.0,1.0,phase_1,,,,,,,,,,,,,cyan,cross
86.0,2.0,2.0,0.0,1.0,1.0,255.7755049999741,2.0,1.0,phase_1,,,,,,,,,,,,,green,circle
117.0,2.0,2.0,0.0,3.0,3.0,268.9789319999818,2.0,1.0,phase_1,,,,,,,,,,,,,green,circle
415.0,8.0,4.0,1.0,3.0,3.0,305.1230480000413,2.0,1.0,phase_1,,,,,,,,,,,,,yellow,hexagon
0.0,3.0,0.0,0.0,2.0,2.0,289.4315930000175,2.0,1.0,phase_1,,,,,,,,,,,,,magenta,I
38.0,5.0,1.0,1.0,3.0,3.0,266.4056149999396,2.0,1.0,phase_1,,,,,,,,,,,,,blue,triangle
217.0,3.0,3.0,0.0,1.0,1.0,337.9206199999771,2.0,1.0,phase_1,,,,,,,,,,,,,magenta,I
0.0,2.0,0.0,0.0,1.0,1.0,268.3532870000817,2.0,1.0,phase_1,,,,,,,,,,,,,green,circle
0.0,8.0,0.0,1.0,3.0,3.0,240.4368589999421,2.0,1.0,phase_1,,,,,,,,,,,,,yellow,hexagon
385.0,4.0,4.0,0.0,1.0,1.0,253.13369299999522,2.0,1.0,phase_1,,,,,,,,,,,,,cyan,cross
397.0,8.0,4.0,1.0,2.0,2.0,308.9284970000108,2.0,1.0,phase_1,,,,,,,,,,,,,yellow,hexagon
0.0,3.0,0.0,0.0,3.0,3.0,240.5865550000498,2.0,1.0,phase_1,,,,,,,,,,,,,magenta,I
121.0,2.0,2.0,0.0,1.0,1.0,235.4010749999133,2.0,1.0,phase_1,,,,,,,,,,,,,green,circle
46.0,5.0,1.0,1.0,3.0,3.0,281.5757340000573,2.0,1.0,phase_1,,,,,,,,,,,,,blue,triangle
124.0,6.0,2.0,1.0,2.0,2.0,260.1443319999816,2.0,1.0,phase_1,,,,,,,,,,,,,orange,flipped triangle
175.0,7.0,3.0,1.0,2.0,2.0,289.8387689999708,2.0,1.0,phase_1,,,,,,,,,,,,,white,square
106.0,2.0,2.0,0.0,1.0,1.0,302.04418900007107,2.0,2.0,phase_1,,,,,,,,,,,,,green,circle
86.0,6.0,2.0,1.0,3.0,3.0,279.4882370000096,2.0,1.0,phase_1,,,,,,,,,,,,,orange,flipped triangle
222.0,7.0,3.0,1.0,3.0,3.0,309.778327999993,2.0,1.0,phase_1,,,,,,,,,,,,,white,square
31.0,1.0,1.0,0.0,3.0,3.0,290.9208300000045,2.0,1.0,phase_1,,,,,,,,,,,,,gray,diamond
223.0,7.0,3.0,1.0,1.0,1.0,295.974585999943,2.0,1.0,phase_1,,,,,,,,,,,,,white,square
0.0,5.0,0.0,1.0,3.0,3.0,281.8606820000013,2.0,1.0,phase_1,,,,,,,,,,,,,blue,triangle
208.0,3.0,3.0,0.0,3.0,3.0,322.2910939999792,2.0,1.0,phase_1,,,,,,,,,,,,,magenta,I
411.0,4.0,4.0,0.0,1.0,1.0,292.5456940000686,2.0,1.0,phase_1,,,,,,,,,,,,,cyan,cross
179.0,7.0,3.0,1.0,1.0,1.0,298.4800179999638,2.0,1.0,phase_1,,,,,,,,,,,,,white,square
0.0,8.0,0.0,1.0,2.0,2.0,319.7678800000858,2.0,1.0,phase_1,,,,,,,,,,,,,yellow,hexagon
113.0,2.0,2.0,0.0,4.0,4.0,298.1901000000562,2.0,1.0,phase_1,,,,,,,,,,,,,green,circle
208.0,3.0,3.0,0.0,1.0,1.0,313.9515940000592,2.0,1.0,phase_1,,,,,,,,,,,,,magenta,I
418.0,4.0,4.0,0.0,2.0,2.0,330.3763220000064,2.0,1.0,phase_1,,,,,,,,,,,,,cyan,cross
122.0,6.0,2.0,1.0,3.0,3.0,291.4342340000075,2.0,1.0,phase_1,,,,,,,,,,,,,orange,flipped triangle
376.0,8.0,4.0,1.0,1.0,1.0,269.6963719999985,2.0,1.0,phase_1,,,,,,,,,,,,,yellow,hexagon
209.0,7.0,3.0,1.0,2.0,2.0,273.3110090000537,2.0,1.0,phase_1,,,,,,,,,,,,,white,square
86.0,2.0,2.0,0.0,1.0,1.0,295.5536740000752,2.0,1.0,phase_1,,,,,,,,,,,,,green,circle
67.0,5.0,1.0,1.0,3.0,3.0,278.0077789999495,2.0,1.0,phase_1,,,,,,,,,,,,,blue,triangle
0.0,6.0,0.0,1.0,1.0,1.0,303.6833020000813,2.0,1.0,phase_1,,,,,,,,,,,,,orange,flipped triangle
34.0,5.0,1.0,1.0,4.0,4.0,271.5858169999592,2.0,1.0,phase_1,,,,,,,,,,,,,blue,triangle
118.0,2.0,2.0,0.0,1.0,1.0,291.4676460000009,2.0,1.0,phase_1,,,,,,,,,,,,,green,circle
188.0,7.0,3.0,1.0,4.0,4.0,270.7570259999556,2.0,1.0,phase_1,,,,,,,,,,,,,white,square
0.0,6.0,0.0,1.0,1.0,1.0,290.6303089999937,2.0,1.0,phase_1,,,,,,,,,,,,,orange,flipped triangle
385.0,8.0,4.0,1.0,3.0,3.0,274.2080849999411,2.0,1.0,phase_1,,,,,,,,,,,,,yellow,hexagon
36.0,1.0,1.0,0.0,1.0,1.0,253.9599169999746,2.0,1.0,phase_1,,,,,,,,,,,,,gray,diamond
379.0,4.0,4.0,0.0,2.0,2.0,295.5442950000133,2.0,1.0,phase_1,,,,,,,,,,,,,cyan,cross
379.0,4.0,4.0,0.0,3.0,3.0,303.3784300000661,2.0,1.0,phase_1,,,,,,,,,,,,,cyan,cross
0.0,1.0,0.0,0.0,2.0,2.0,307.2797099999889,2.0,1.0,phase_1,,,,,,,,,,,,,gray,diamond
412.0,4.0,4.0,0.0,3.0,3.0,278.2899669999779,2.0,1.0,phase_1,,,,,,,,,,,,,cyan,cross
401.0,8.0,4.0,1.0,3.0,3.0,310.5794140000171,2.0,1.0,phase_1,,,,,,,,,,,,,yellow,hexagon
82.0,2.0,2.0,0.0,2.0,2.0,353.6172029999989,2.0,1.0,phase_1,,,,,,,,,,,,,green,circle
38.0,5.0,1.0,1.0,1.0,1.0,386.4781449999555,2.0,2.0,phase_1,,,,,,,,,,,,,blue,triangle
56.0,1.0,1.0,0.0,2.0,2.0,334.7497660000726,2.0,1.0,phase_1,,,,,,,,,,,,,gray,diamond
178.0,3.0,3.0,0.0,3.0,3.0,285.6275330000244,2.0,1.0,phase_1,,,,,,,,,,,,,magenta,I
397.0,4.0,4.0,0.0,4.0,4.0,322.7508080000234,2.0,1.0,phase_1,,,,,,,,,,,,,cyan,cross
376.0,8.0,4.0,1.0,3.0,3.0,351.0145300000431,2.0,1.0,phase_1,,,,,,,,,,,,,yellow,hexagon
421.0,4.0,4.0,0.0,3.0,3.0,304.7609540000167,2.0,1.0,phase_1,,,,,,,,,,,,,cyan,cross
401.0,8.0,4.0,1.0,1.0,1.0,293.266391999964,2.0,1.0,phase_1,,,,,,,,,,,,,yellow,hexagon
70.0,5.0,1.0,1.0,2.0,2.0,371.7574500000182,2.0,1.0,phase_1,,,,,,,,,,,,,blue,triangle
0.0,2.0,0.0,0.0,2.0,2.0,343.7568059999876,2.0,1.0,phase_1,,,,,,,,,,,,,green,circle
86.0,6.0,2.0,1.0,1.0,1.0,340.3067609999652,2.0,1.0,phase_1,,,,,,,,,,,,,orange,flipped triangle
225.0,7.0,3.0,1.0,3.0,3.0,291.6054099999883,2.0,1.0,phase_1,,,,,,,,,,,,,white,square
183.0,7.0,3.0,1.0,3.0,3.0,310.8883879999666,2.0,1.0,phase_1,,,,,,,,,,,,,white,square
122.0,2.0,2.0,0.0,1.0,1.0,403.4072310000738,3.0,1.0,phase_1,,,,,,,,,,,,,green,circle
29.0,1.0,1.0,0.0,2.0,2.0,342.3214580000149,3.0,1.0,phase_1,,,,,,,,,,,,,gray,diamond
94.0,2.0,2.0,0.0,2.0,2.0,307.2726670000065,3.0,1.0,phase_1,,,,,,,,,,,,,green,circle
109.0,6.0,2.0,1.0,4.0,4.0,327.6148410000132,3.0,1.0,phase_1,,,,,,,,,,,,,orange,flipped triangle
0.0,6.0,0.0,1.0,2.0,2.0,260.6840409999904,3.0,1.0,phase_1,,,,,,,,,,,,,orange,flipped triangle
0.0,7.0,0.0,1.0,3.0,3.0,282.9471239999748,3.0,1.0,phase_1,,,,,,,,,,,,,white,square
222.0,3.0,3.0,0.0,4.0,4.0,319.5765309999387,3.0,1.0,phase_1,,,,,,,,,,,,,magenta,I
0.0,6.0,0.0,1.0,1.0,1.0,283.0024080000157,3.0,1.0,phase_1,,,,,,,,,,,,,orange,flipped triangle
108.0,2.0,2.0,0.0,4.0,4.0,297.605044000079,3.0,1.0,phase_1,,,,,,,,,,,,,green,circle
0.0,3.0,0.0,0.0,4.0,4.0,360.1273739999442,3.0,1.0,phase_1,,,,,,,,,,,,,magenta,I
121.0,6.0,2.0,1.0,2.0,2.0,323.4313660000225,3.0,1.0,phase_1,,,,,,,,,,,,,orange,flipped triangle
391.0,8.0,4.0,1.0,2.0,2.0,352.7993239999887,3.0,1.0,phase_1,,,,,,,,,,,,,yellow,hexagon
397.0,4.0,4.0,0.0,2.0,2.0,300.0834509999777,3.0,1.0,phase_1,,,,,,,,,,,,,cyan,cross
115.0,2.0,2.0,0.0,1.0,1.0,311.3923419999764,3.0,1.0,phase_1,,,,,,,,,,,,,green,circle
395.0,8.0,4.0,1.0,2.0,2.0,323.5560640000585,3.0,1.0,phase_1,,,,,,,,,,,,,yellow,hexagon
190.0,3.0,3.0,0.0,4.0,4.0,312.2760869999865,3.0,1.0,phase_1,,,,,,,,,,,,,magenta,I
106.0,6.0,2.0,1.0,4.0,4.0,311.4082490000101,3.0,1.0,phase_1,,,,,,,,,,,,,orange,flipped triangle
0.0,7.0,0.0,1.0,1.0,1.0,321.4446410000846,3.0,1.0,phase_1,,,,,,,,,,,,,white,square
56.0,5.0,1.0,1.0,3.0,3.0,344.31679599993,3.0,1.0,phase_1,,,,,,,,,,,,,blue,triangle
109.0,2.0,2.0,0.0,4.0,4.0,347.8927370000519,3.0,1.0,phase_1,,,,,,,,,,,,,green,circle
202.0,7.0,3.0,1.0,1.0,1.0,346.2645939999902,3.0,1.0,phase_1,,,,,,,,,,,,,white,square
48.0,5.0,1.0,1.0,1.0,1.0,295.7691350000004,3.0,1.0,phase_1,,,,,,,,,,,,,blue,triangle
422.0,8.0,4.0,1.0,1.0,1.0,379.2089959999885,3.0,1.0,phase_1,,,,,,,,,,,,,yellow,hexagon
67.0,1.0,1.0,0.0,4.0,4.0,311.7521789999955,3.0,1.0,phase_1,,,,,,,,,,,,,gray,diamond
91.0,6.0,2.0,1.0,3.0,3.0,314.4325889999209,3.0,1.0,phase_1,,,,,,,,,,,,,orange,flipped triangle
402.0,8.0,4.0,1.0,2.0,2.0,294.3245500000557,3.0,1.0,phase_1,,,,,,,,,,,,,yellow,hexagon
80.0,6.0,2.0,1.0,4.0,4.0,311.3017890000265,3.0,1.0,phase_1,,,,,,,,,,,,,orange,flipped triangle
0.0,6.0,0.0,1.0,3.0,3.0,315.0030419999439,3.0,1.0,phase_1,,,,,,,,,,,,,orange,flipped triangle
0.0,8.0,0.0,1.0,3.0,3.0,278.7600869999096,3.0,1.0,phase_1,,,,,,,,,,,,,yellow,hexagon
217.0,7.0,3.0,1.0,3.0,3.0,299.1224049999346,3.0,1.0,phase_1,,,,,,,,,,,,,white,square
416.0,4.0,4.0,0.0,2.0,2.0,277.7101779998929,3.0,1.0,phase_1,,,,,,,,,,,,,cyan,cross
70.0,5.0,1.0,1.0,2.0,2.0,306.6052829999535,3.0,1.0,phase_1,,,,,,,,,,,,,blue,triangle
42.0,5.0,1.0,1.0,1.0,1.0,351.7409759999736,3.0,1.0,phase_1,,,,,,,,,,,,,blue,triangle
387.0,8.0,4.0,1.0,4.0,4.0,271.9844009999406,3.0,1.0,phase_1,,,,,,,,,,,,,yellow,hexagon
74.0,1.0,1.0,0.0,3.0,3.0,322.8773339999407,3.0,1.0,phase_1,,,,,,,,,,,,,gray,diamond
406.0,4.0,4.0,0.0,4.0,4.0,319.8798419999775,3.0,1.0,phase_1,,,,,,,,,,,,,cyan,cross
0.0,3.0,0.0,0.0,3.0,3.0,316.0697959999652,3.0,1.0,phase_1,,,,,,,,,,,,,magenta,I
189.0,3.0,3.0,0.0,4.0,4.0,303.8586860000123,3.0,1.0,phase_1,,,,,,,,,,,,,magenta,I
49.0,1.0,1.0,0.0,4.0,4.0,307.5684699999783,3.0,1.0,phase_1,,,,,,,,,,,,,gray,diamond
49.0,1.0,1.0,0.0,1.0,1.0,290.5678139999281,3.0,1.0,phase_1,,,,,,,,,,,,,gray,diamond
180.0,7.0,3.0,1.0,4.0,4.0,278.7478190000456,3.0,1.0,phase_1,,,,,,,,,,,,,white,square
89.0,6.0,2.0,1.0,3.0,3.0,283.9858099999901,3.0,1.0,phase_1,,,,,,,,,,,,,orange,flipped triangle
115.0,6.0,2.0,1.0,1.0,1.0,329.4438590000936,3.0,1.0,phase_1,,,,,,,,,,,,,orange,flipped triangle
0.0,7.0,0.0,1.0,4.0,4.0,293.9807720000544,3.0,1.0,phase_1,,,,,,,,,,,,,white,square
0.0,1.0,0.0,0.0,4.0,4.0,265.8032260000027,3.0,1.0,phase_1,,,,,,,,,,,,,gray,diamond
403.0,8.0,4.0,1.0,1.0,1.0,293.0476920000728,3.0,1.0,phase_1,,,,,,,,,,,,,yellow,hexagon
42.0,1.0,1.0,0.0,4.0,4.0,355.7069619999993,3.0,1.0,phase_1,,,,,,,,,,,,,gray,diamond
223.0,3.0,3.0,0.0,2.0,2.0,326.5246409999918,3.0,1.0,phase_1,,,,,,,,,,,,,magenta,I
188.0,3.0,3.0,0.0,1.0,1.0,290.8595410000316,3.0,1.0,phase_1,,,,,,,,,,,,,magenta,I
217.0,3.0,3.0,0.0,3.0,3.0,326.6637389999687,3.0,1.0,phase_1,,,,,,,,,,,,,magenta,I
0.0,5.0,0.0,1.0,4.0,4.0,323.899095999991,3.0,1.0,phase_1,,,,,,,,,,,,,blue,triangle
0.0,2.0,0.0,0.0,1.0,1.0,306.2216359999183,3.0,1.0,phase_1,,,,,,,,,,,,,green,circle
64.0,1.0,1.0,0.0,3.0,3.0,285.9272800000099,3.0,1.0,phase_1,,,,,,,,,,,,,gray,diamond
58.0,5.0,1.0,1.0,1.0,1.0,298.4897649999993,3.0,1.0,phase_1,,,,,,,,,,,,,blue,triangle
0.0,2.0,0.0,0.0,1.0,1.0,320.2164269999912,3.0,1.0,phase_1,,,,,,,,,,,,,green,circle
57.0,5.0,1.0,1.0,2.0,2.0,278.8722010000128,3.0,1.0,phase_1,,,,,,,,,,,,,blue,triangle
35.0,5.0,1.0,1.0,4.0,4.0,267.597060000071,3.0,1.0,phase_1,,,,,,,,,,,,,blue,triangle
61.0,5.0,1.0,1.0,1.0,1.0,278.6910419999913,3.0,1.0,phase_1,,,,,,,,,,,,,blue,triangle
181.0,7.0,3.0,1.0,4.0,4.0,577.129001000003,3.0,1.0,phase_1,,,,,,,,,,,,,white,square
214.0,3.0,3.0,0.0,3.0,3.0,297.7022369999531,3.0,1.0,phase_1,,,,,,,,,,,,,magenta,I
113.0,2.0,2.0,0.0,3.0,3.0,307.1833040000911,3.0,1.0,phase_1,,,,,,,,,,,,,green,circle
0.0,2.0,0.0,0.0,2.0,2.0,282.9550480000762,3.0,1.0,phase_1,,,,,,,,,,,,,green,circle
109.0,2.0,2.0,0.0,2.0,2.0,332.3862970000846,3.0,1.0,phase_1,,,,,,,,,,,,,green,circle
211.0,3.0,3.0,0.0,1.0,1.0,344.7442560000127,3.0,1.0,phase_1,,,,,,,,,,,,,magenta,I
54.0,1.0,1.0,0.0,1.0,1.0,400.3319350001675,3.0,1.0,phase_1,,,,,,,,,,,,,gray,diamond
0.0,3.0,0.0,0.0,2.0,2.0,371.7408379998232,3.0,1.0,phase_1,,,,,,,,,,,,,magenta,I
0.0,5.0,0.0,1.0,1.0,1.0,354.618857000105,3.0,1.0,phase_1,,,,,,,,,,,,,blue,triangle
407.0,4.0,4.0,0.0,3.0,3.0,269.1050460000497,3.0,1.0,phase_1,,,,,,,,,,,,,cyan,cross
381.0,4.0,4.0,0.0,2.0,2.0,402.3135679999541,3.0,1.0,phase_1,,,,,,,,,,,,,cyan,cross
31.0,1.0,1.0,0.0,1.0,1.0,340.8320070000172,3.0,1.0,phase_1,,,,,,,,,,,,,gray,diamond
202.0,7.0,3.0,1.0,1.0,1.0,322.3134969998682,3.0,1.0,phase_1,,,,,,,,,,,,,white,square
417.0,4.0,4.0,0.0,2.0,2.0,318.7100420000206,3.0,1.0,phase_1,,,,,,,,,,,,,cyan,cross
0.0,1.0,0.0,0.0,3.0,3.0,278.8683750000018,3.0,1.0,phase_1,,,,,,,,,,,,,gray,diamond
89.0,2.0,2.0,0.0,2.0,2.0,264.124025000001,3.0,1.0,phase_1,,,,,,,,,,,,,green,circle
0.0,2.0,0.0,0.0,1.0,1.0,364.4793240000581,3.0,1.0,phase_1,,,,,,,,,,,,,green,circle
65.0,1.0,1.0,0.0,4.0,4.0,372.8445859999283,3.0,1.0,phase_1,,,,,,,,,,,,,gray,diamond
91.0,2.0,2.0,0.0,3.0,3.0,302.237304000073,3.0,1.0,phase_1,,,,,,,,,,,,,green,circle
0.0,8.0,0.0,1.0,4.0,4.0,291.7382250000173,3.0,1.0,phase_1,,,,,,,,,,,,,yellow,hexagon
419.0,8.0,4.0,1.0,1.0,1.0,266.752285999928,3.0,1.0,phase_1,,,,,,,,,,,,,yellow,hexagon
38.0,1.0,1.0,0.0,2.0,2.0,254.73811799997748,3.0,1.0,phase_1,,,,,,,,,,,,,gray,diamond
0.0,2.0,0.0,0.0,4.0,4.0,288.1891970000652,3.0,1.0,phase_1,,,,,,,,,,,,,green,circle
211.0,7.0,3.0,1.0,1.0,1.0,312.9999029999908,3.0,1.0,phase_1,,,,,,,,,,,,,white,square
70.0,1.0,1.0,0.0,1.0,1.0,293.41399000009,3.0,1.0,phase_1,,,,,,,,,,,,,gray,diamond
404.0,4.0,4.0,0.0,2.0,2.0,318.5038449998956,3.0,1.0,phase_1,,,,,,,,,,,,,cyan,cross
87.0,2.0,2.0,0.0,2.0,2.0,317.80715199988657,3.0,1.0,phase_1,,,,,,,,,,,,,green,circle
419.0,4.0,4.0,0.0,1.0,1.0,250.9985169999709,3.0,1.0,phase_1,,,,,,,,,,,,,cyan,cross
0.0,3.0,0.0,0.0,3.0,3.0,271.689717000072,3.0,1.0,phase_1,,,,,,,,,,,,,magenta,I
0.0,8.0,0.0,1.0,4.0,4.0,281.5225679999003,3.0,1.0,phase_1,,,,,,,,,,,,,yellow,hexagon
178.0,3.0,3.0,0.0,2.0,2.0,294.5728229999531,3.0,1.0,phase_1,,,,,,,,,,,,,magenta,I
110.0,6.0,2.0,1.0,2.0,2.0,308.3836440000596,3.0,1.0,phase_1,,,,,,,,,,,,,orange,flipped triangle
90.0,6.0,2.0,1.0,3.0,3.0,273.4647380000297,3.0,1.0,phase_1,,,,,,,,,,,,,orange,flipped triangle
0.0,8.0,0.0,1.0,3.0,3.0,294.0150250001352,3.0,1.0,phase_1,,,,,,,,,,,,,yellow,hexagon
190.0,3.0,3.0,0.0,4.0,4.0,298.4375999999429,3.0,1.0,phase_1,,,,,,,,,,,,,magenta,I
0.0,5.0,0.0,1.0,3.0,3.0,318.3176370000637,3.0,1.0,phase_1,,,,,,,,,,,,,blue,triangle
115.0,6.0,2.0,1.0,3.0,3.0,334.0946099999655,3.0,1.0,phase_1,,,,,,,,,,,,,orange,flipped triangle
113.0,2.0,2.0,0.0,3.0,3.0,297.8337229999397,3.0,1.0,phase_1,,,,,,,,,,,,,green,circle
376.0,4.0,4.0,0.0,1.0,1.0,302.2685739999815,3.0,1.0,phase_1,,,,,,,,,,,,,cyan,cross
49.0,1.0,1.0,0.0,2.0,2.0,330.8218940001097,3.0,1.0,phase_1,,,,,,,,,,,,,gray,diamond
121.0,2.0,2.0,0.0,1.0,1.0,327.6789249998728,3.0,1.0,phase_1,,,,,,,,,,,,,green,circle
73.0,1.0,1.0,0.0,3.0,3.0,250.5314990000897,3.0,1.0,phase_1,,,,,,,,,,,,,gray,diamond
113.0,6.0,2.0,1.0,1.0,1.0,286.9302280000738,4.0,1.0,phase_1,,,,,,,,,,,,,orange,flipped triangle
31.0,5.0,1.0,1.0,2.0,2.0,316.3999759999569,4.0,1.0,phase_1,,,,,,,,,,,,,blue,triangle
394.0,4.0,4.0,0.0,4.0,4.0,288.9273390001108,4.0,1.0,phase_1,,,,,,,,,,,,,cyan,cross
0.0,5.0,0.0,1.0,3.0,3.0,284.6932269999342,4.0,1.0,phase_1,,,,,,,,,,,,,blue,triangle
113.0,6.0,2.0,1.0,4.0,4.0,285.7868030000645,4.0,1.0,phase_1,,,,,,,,,,,,,orange,flipped triangle
175.0,3.0,3.0,0.0,4.0,4.0,289.4825360001505,4.0,1.0,phase_1,,,,,,,,,,,,,magenta,I
203.0,3.0,3.0,0.0,1.0,1.0,284.7525739998673,4.0,1.0,phase_1,,,,,,,,,,,,,magenta,I
415.0,4.0,4.0,0.0,1.0,1.0,298.7728349999088,4.0,1.0,phase_1,,,,,,,,,,,,,cyan,cross
45.0,5.0,1.0,1.0,2.0,2.0,302.068097000074,4.0,1.0,phase_1,,,,,,,,,,,,,blue,triangle
191.0,3.0,3.0,0.0,2.0,2.0,265.7875429999876,4.0,1.0,phase_1,,,,,,,,,,,,,magenta,I
54.0,5.0,1.0,1.0,1.0,1.0,269.5925329999227,4.0,1.0,phase_1,,,,,,,,,,,,,blue,triangle
0.0,4.0,0.0,0.0,1.0,1.0,299.2557999998553,4.0,1.0,phase_1,,,,,,,,,,,,,cyan,cross
0.0,1.0,0.0,0.0,3.0,3.0,270.909685000106,4.0,1.0,phase_1,,,,,,,,,,,,,gray,diamond
0.0,4.0,0.0,0.0,1.0,1.0,287.6347490000626,4.0,1.0,phase_1,,,,,,,,,,,,,cyan,cross
0.0,4.0,0.0,0.0,3.0,3.0,276.2888330000805,4.0,1.0,phase_1,,,,,,,,,,,,,cyan,cross
31.0,5.0,1.0,1.0,4.0,4.0,293.899465000095,4.0,1.0,phase_1,,,,,,,,,,,,,blue,triangle
178.0,7.0,3.0,1.0,1.0,1.0,298.4707430000526,4.0,1.0,phase_1,,,,,,,,,,,,,white,square
49.0,5.0,1.0,1.0,4.0,4.0,285.7545119998121,4.0,2.0,phase_1,,,,,,,,,,,,,blue,triangle
180.0,3.0,3.0,0.0,4.0,4.0,322.5290729999415,4.0,1.0,phase_1,,,,,,,,,,,,,magenta,I
183.0,7.0,3.0,1.0,4.0,4.0,334.5370730000923,4.0,1.0,phase_1,,,,,,,,,,,,,white,square
42.0,5.0,1.0,1.0,3.0,3.0,297.9776879999463,4.0,1.0,phase_1,,,,,,,,,,,,,blue,triangle
110.0,2.0,2.0,0.0,2.0,2.0,301.9788099998095,4.0,1.0,phase_1,,,,,,,,,,,,,green,circle
89.0,2.0,2.0,0.0,4.0,4.0,315.3417010000794,4.0,1.0,phase_1,,,,,,,,,,,,,green,circle
0.0,7.0,0.0,1.0,3.0,3.0,281.1881299999186,4.0,1.0,phase_1,,,,,,,,,,,,,white,square
92.0,2.0,2.0,0.0,2.0,2.0,326.7400459999408,4.0,1.0,phase_1,,,,,,,,,,,,,green,circle
62.0,5.0,1.0,1.0,2.0,2.0,353.1815520000236,4.0,1.0,phase_1,,,,,,,,,,,,,blue,triangle
0.0,4.0,0.0,0.0,2.0,2.0,344.1348619999189,4.0,1.0,phase_1,,,,,,,,,,,,,cyan,cross
0.0,1.0,0.0,0.0,2.0,2.0,325.0967449998825,4.0,1.0,phase_1,,,,,,,,,,,,,gray,diamond
0.0,5.0,0.0,1.0,3.0,3.0,288.4958409999854,4.0,1.0,phase_1,,,,,,,,,,,,,blue,triangle
65.0,5.0,1.0,1.0,1.0,1.0,340.6991019999168,4.0,1.0,phase_1,,,,,,,,,,,,,blue,triangle
0.0,1.0,0.0,0.0,4.0,4.0,248.7368930001139,4.0,1.0,phase_1,,,,,,,,,,,,,gray,diamond
225.0,3.0,3.0,0.0,2.0,2.0,247.783525999921,4.0,1.0,phase_1,,,,,,,,,,,,,magenta,I
399.0,4.0,4.0,0.0,3.0,3.0,273.8879180001277,4.0,1.0,phase_1,,,,,,,,,,,,,cyan,cross
30.0,5.0,1.0,1.0,4.0,4.0,319.2758939999294,4.0,1.0,phase_1,,,,,,,,,,,,,blue,triangle
209.0,3.0,3.0,0.0,4.0,4.0,331.5122740000333,4.0,1.0,phase_1,,,,,,,,,,,,,magenta,I
224.0,3.0,3.0,0.0,2.0,2.0,314.2341220000162,4.0,1.0,phase_1,,,,,,,,,,,,,magenta,I
83.0,6.0,2.0,1.0,1.0,1.0,245.8149100000355,4.0,1.0,phase_1,,,,,,,,,,,,,orange,flipped triangle
379.0,4.0,4.0,0.0,4.0,4.0,265.4860580000786,4.0,1.0,phase_1,,,,,,,,,,,,,cyan,cross
381.0,8.0,4.0,1.0,3.0,3.0,375.6856049999442,4.0,1.0,phase_1,,,,,,,,,,,,,yellow,hexagon
208.0,7.0,3.0,1.0,4.0,4.0,310.0620689999687,4.0,1.0,phase_1,,,,,,,,,,,,,white,square
96.0,6.0,2.0,1.0,1.0,1.0,368.7924420000854,4.0,1.0,phase_1,,,,,,,,,,,,,orange,flipped triangle
42.0,1.0,1.0,0.0,4.0,4.0,293.5977030001595,4.0,1.0,phase_1,,,,,,,,,,,,,gray,diamond
387.0,4.0,4.0,0.0,4.0,4.0,288.7086610001006,4.0,1.0,phase_1,,,,,,,,,,,,,cyan,cross
117.0,6.0,2.0,1.0,4.0,4.0,295.9947500000908,4.0,1.0,phase_1,,,,,,,,,,,,,orange,flipped triangle
193.0,3.0,3.0,0.0,3.0,3.0,317.7378420000423,4.0,1.0,phase_1,,,,,,,,,,,,,magenta,I
56.0,1.0,1.0,0.0,2.0,2.0,310.4046040000412,4.0,1.0,phase_1,,,,,,,,,,,,,gray,diamond
100.0,2.0,2.0,0.0,4.0,4.0,269.3969099998412,4.0,1.0,phase_1,,,,,,,,,,,,,green,circle
190.0,7.0,3.0,1.0,1.0,1.0,322.1514030001344,4.0,1.0,phase_1,,,,,,,,,,,,,white,square
376.0,4.0,4.0,0.0,3.0,3.0,270.2877149999949,4.0,1.0,phase_1,,,,,,,,,,,,,cyan,cross
28.0,1.0,1.0,0.0,1.0,1.0,364.8448159999589,4.0,1.0,phase_1,,,,,,,,,,,,,gray,diamond
0.0,4.0,0.0,0.0,3.0,3.0,328.6641140000483,4.0,1.0,phase_1,,,,,,,,,,,,,cyan,cross
64.0,5.0,1.0,1.0,2.0,2.0,278.0132689999846,4.0,1.0,phase_1,,,,,,,,,,,,,blue,triangle
219.0,7.0,3.0,1.0,2.0,2.0,344.0551489998142,4.0,1.0,phase_1,,,,,,,,,,,,,white,square
0.0,2.0,0.0,0.0,4.0,4.0,252.0735569999033,4.0,1.0,phase_1,,,,,,,,,,,,,green,circle
403.0,4.0,4.0,0.0,1.0,1.0,305.0682550001511,4.0,1.0,phase_1,,,,,,,,,,,,,cyan,cross
192.0,7.0,3.0,1.0,4.0,4.0,334.0407020000384,4.0,1.0,phase_1,,,,,,,,,,,,,white,square
191.0,7.0,3.0,1.0,2.0,2.0,292.1427950000179,4.0,1.0,phase_1,,,,,,,,,,,,,white,square
420.0,8.0,4.0,1.0,2.0,2.0,318.5048310001548,4.0,1.0,phase_1,,,,,,,,,,,,,yellow,hexagon
113.0,6.0,2.0,1.0,4.0,4.0,381.9630680000045,4.0,1.0,phase_1,,,,,,,,,,,,,orange,flipped triangle
402.0,4.0,4.0,0.0,4.0,4.0,330.6967070000155,4.0,1.0,phase_1,,,,,,,,,,,,,cyan,cross
224.0,7.0,3.0,1.0,2.0,2.0,301.768839000033,4.0,1.0,phase_1,,,,,,,,,,,,,white,square
382.0,4.0,4.0,0.0,4.0,4.0,281.2269620001189,4.0,1.0,phase_1,,,,,,,,,,,,,cyan,cross
79.0,2.0,2.0,0.0,2.0,2.0,294.0992600001664,4.0,1.0,phase_1,,,,,,,,,,,,,green,circle
411.0,8.0,4.0,1.0,3.0,3.0,293.867242000033,4.0,1.0,phase_1,,,,,,,,,,,,,yellow,hexagon
379.0,8.0,4.0,1.0,4.0,4.0,305.8759860000464,4.0,1.0,phase_1,,,,,,,,,,,,,yellow,hexagon
402.0,4.0,4.0,0.0,1.0,1.0,343.7120220000906,4.0,1.0,phase_1,,,,,,,,,,,,,cyan,cross
77.0,2.0,2.0,0.0,1.0,1.0,353.1324600000971,4.0,1.0,phase_1,,,,,,,,,,,,,green,circle
422.0,4.0,4.0,0.0,4.0,4.0,262.4056549998386,4.0,1.0,phase_1,,,,,,,,,,,,,cyan,cross
124.0,2.0,2.0,0.0,4.0,4.0,282.2218629999042,4.0,1.0,phase_1,,,,,,,,,,,,,green,circle
34.0,1.0,1.0,0.0,1.0,1.0,279.0528220000396,4.0,1.0,phase_1,,,,,,,,,,,,,gray,diamond
214.0,3.0,3.0,0.0,2.0,2.0,301.0895219999838,4.0,1.0,phase_1,,,,,,,,,,,,,magenta,I
57.0,1.0,1.0,0.0,4.0,4.0,275.190455000029,4.0,1.0,phase_1,,,,,,,,,,,,,gray,diamond
43.0,1.0,1.0,0.0,3.0,3.0,311.904628000093,4.0,1.0,phase_1,,,,,,,,,,,,,gray,diamond
395.0,4.0,4.0,0.0,1.0,1.0,274.1451839999627,4.0,1.0,phase_1,,,,,,,,,,,,,cyan,cross
109.0,6.0,2.0,1.0,1.0,1.0,574.7163309999905,4.0,1.0,phase_1,,,,,,,,,,,,,orange,flipped triangle
222.0,3.0,3.0,0.0,1.0,1.0,388.7564709998514,4.0,1.0,phase_1,,,,,,,,,,,,,magenta,I
0.0,7.0,0.0,1.0,4.0,4.0,258.1005330000607,4.0,1.0,phase_1,,,,,,,,,,,,,white,square
0.0,4.0,0.0,0.0,4.0,4.0,260.6920789999094,4.0,1.0,phase_1,,,,,,,,,,,,,cyan,cross
103.0,6.0,2.0,1.0,4.0,4.0,273.8319309999042,4.0,1.0,phase_1,,,,,,,,,,,,,orange,flipped triangle
0.0,6.0,0.0,1.0,3.0,3.0,289.9890080000205,4.0,1.0,phase_1,,,,,,,,,,,,,orange,flipped triangle
203.0,3.0,3.0,0.0,3.0,3.0,314.6301990000211,4.0,1.0,phase_1,,,,,,,,,,,,,magenta,I
89.0,6.0,2.0,1.0,3.0,3.0,298.1412419999287,4.0,1.0,phase_1,,,,,,,,,,,,,orange,flipped triangle
183.0,3.0,3.0,0.0,1.0,1.0,297.08241000003,4.0,2.0,phase_1,,,,,,,,,,,,,magenta,I
96.0,2.0,2.0,0.0,3.0,3.0,295.7486609998341,4.0,1.0,phase_1,,,,,,,,,,,,,green,circle
108.0,6.0,2.0,1.0,3.0,3.0,306.8489489999138,4.0,1.0,phase_1,,,,,,,,,,,,,orange,flipped triangle
192.0,3.0,3.0,0.0,1.0,1.0,294.6009899999353,4.0,1.0,phase_1,,,,,,,,,,,,,magenta,I
30.0,1.0,1.0,0.0,3.0,3.0,295.4345109999394,4.0,1.0,phase_1,,,,,,,,,,,,,gray,diamond
103.0,6.0,2.0,1.0,2.0,2.0,266.9262629999593,4.0,1.0,phase_1,,,,,,,,,,,,,orange,flipped triangle
62.0,5.0,1.0,1.0,3.0,3.0,279.2187329998796,4.0,1.0,phase_1,,,,,,,,,,,,,blue,triangle
44.0,5.0,1.0,1.0,1.0,1.0,307.7156730000752,4.0,1.0,phase_1,,,,,,,,,,,,,blue,triangle
0.0,3.0,0.0,0.0,4.0,4.0,328.255793000153,4.0,1.0,phase_1,,,,,,,,,,,,,magenta,I
0.0,4.0,0.0,0.0,3.0,3.0,346.8933910000942,4.0,1.0,phase_1,,,,,,,,,,,,,cyan,cross
99.0,6.0,2.0,1.0,2.0,2.0,275.1272770001378,4.0,1.0,phase_1,,,,,,,,,,,,,orange,flipped triangle
411.0,4.0,4.0,0.0,4.0,4.0,324.3733990000237,4.0,1.0,phase_1,,,,,,,,,,,,,cyan,cross
70.0,1.0,1.0,0.0,4.0,4.0,433.5433700000521,4.0,1.0,phase_1,,,,,,,,,,,,,gray,diamond
219.0,3.0,3.0,0.0,1.0,1.0,261.9990180000968,4.0,1.0,phase_1,,,,,,,,,,,,,magenta,I
185.0,7.0,3.0,1.0,3.0,3.0,295.0761780000448,4.0,1.0,phase_1,,,,,,,,,,,,,white,square
86.0,2.0,2.0,0.0,3.0,3.0,335.6555059999664,4.0,1.0,phase_1,,,,,,,,,,,,,green,circle
36.0,5.0,1.0,1.0,4.0,4.0,318.507420999822,4.0,1.0,phase_1,,,,,,,,,,,,,blue,triangle
208.0,7.0,3.0,1.0,3.0,3.0,291.2627919999977,4.0,1.0,phase_1,,,,,,,,,,,,,white,square
0.0,1.0,1.0,0.0,5.0,5.0,288.751904000037,1.0,1.0,phase_2,go,250.0,250.0,1.0,,,,,,,,,gray,diamond
0.0,8.0,4.0,1.0,6.0,0.0,0.0,1.0,1.0,phase_2,stop,250.0,250.0,4.0,,,,,,,,,yellow,hexagon
0.0,4.0,4.0,0.0,6.0,6.0,364.7876249999626,1.0,1.0,phase_2,go,250.0,300.0,1.0,,,,,,,,,cyan,cross
0.0,4.0,4.0,0.0,5.0,5.0,260.3829250001581,1.0,1.0,phase_2,go,250.0,300.0,1.0,,,,,,,,,cyan,cross
0.0,4.0,4.0,0.0,5.0,5.0,261.9660150000982,1.0,1.0,phase_2,go,250.0,300.0,1.0,,,,,,,,,cyan,cross
0.0,7.0,3.0,1.0,6.0,6.0,421.5369349999491,1.0,1.0,phase_2,stop,250.0,300.0,3.0,,,,,,,,,white,square
0.0,7.0,3.0,1.0,6.0,0.0,0.0,1.0,1.0,phase_2,stop,250.0,250.0,4.0,,,,,,,,,white,square
0.0,4.0,4.0,0.0,5.0,5.0,401.6545859999496,1.0,1.0,phase_2,go,250.0,300.0,1.0,,,,,,,,,cyan,cross
0.0,5.0,1.0,1.0,6.0,0.0,0.0,1.0,1.0,phase_2,stop,250.0,300.0,4.0,,,,,,,,,blue,triangle
0.0,6.0,2.0,1.0,5.0,5.0,387.8175689999352,1.0,1.0,phase_2,stop,250.0,350.0,3.0,,,,,,,,,orange,flipped triangle
0.0,6.0,2.0,1.0,6.0,6.0,225.8026930001051,1.0,1.0,phase_2,stop,200.0,350.0,3.0,,,,,,,,,orange,flipped triangle
0.0,3.0,3.0,0.0,5.0,5.0,398.6011710001094,1.0,1.0,phase_2,go,200.0,300.0,1.0,,,,,,,,,magenta,I
0.0,7.0,3.0,1.0,5.0,0.0,0.0,1.0,1.0,phase_2,stop,200.0,300.0,4.0,,,,,,,,,white,square
0.0,7.0,3.0,1.0,6.0,0.0,0.0,1.0,1.0,phase_2,stop,250.0,300.0,4.0,,,,,,,,,white,square
0.0,1.0,1.0,0.0,6.0,6.0,453.7735929998234,1.0,1.0,phase_2,go,250.0,350.0,1.0,,,,,,,,,gray,diamond
0.0,7.0,3.0,1.0,5.0,0.0,0.0,1.0,1.0,phase_2,stop,250.0,350.0,4.0,,,,,,,,,white,square
0.0,8.0,4.0,1.0,5.0,5.0,405.9398099998361,1.0,1.0,phase_2,stop,300.0,350.0,3.0,,,,,,,,,yellow,hexagon
0.0,5.0,1.0,1.0,5.0,5.0,275.1728739999635,1.0,1.0,phase_2,go,250.0,350.0,1.0,,,,,,,,,blue,triangle
0.0,4.0,4.0,0.0,6.0,6.0,267.0290829998976,1.0,1.0,phase_2,go,250.0,350.0,1.0,,,,,,,,,cyan,cross
0.0,1.0,1.0,0.0,6.0,6.0,202.5004700001318,1.0,1.0,phase_2,go,250.0,350.0,1.0,,,,,,,,,gray,diamond
0.0,1.0,1.0,0.0,6.0,6.0,236.0588629999256,1.0,1.0,phase_2,go,250.0,350.0,1.0,,,,,,,,,gray,diamond
0.0,4.0,4.0,0.0,6.0,5.0,0.1768679999258,1.0,1.0,phase_2,go,250.0,350.0,2.0,,,,,,,,,cyan,cross
0.0,4.0,4.0,0.0,6.0,6.0,260.4309609998836,1.0,1.0,phase_2,go,250.0,350.0,1.0,,,,,,,,,cyan,cross
0.0,1.0,1.0,0.0,5.0,5.0,208.8279820000025,1.0,1.0,phase_2,go,250.0,350.0,1.0,,,,,,,,,gray,diamond
0.0,4.0,4.0,0.0,6.0,6.0,177.26599200000229,1.0,1.0,phase_2,go,250.0,350.0,1.0,,,,,,,,,cyan,cross
0.0,7.0,3.0,1.0,6.0,6.0,233.5701739998512,1.0,1.0,phase_2,go,250.0,350.0,1.0,,,,,,,,,white,square
0.0,5.0,1.0,1.0,5.0,5.0,174.8493889999736,1.0,1.0,phase_2,stop,250.0,350.0,3.0,,,,,,,,,blue,triangle
0.0,2.0,2.0,0.0,5.0,5.0,286.3169199999902,1.0,1.0,phase_2,go,200.0,350.0,1.0,,,,,,,,,green,circle
0.0,8.0,4.0,1.0,6.0,6.0,189.9906420001116,1.0,1.0,phase_2,stop,200.0,350.0,3.0,,,,,,,,,yellow,hexagon
0.0,1.0,1.0,0.0,5.0,5.0,238.3537010000509,1.0,1.0,phase_2,go,200.0,300.0,1.0,,,,,,,,,gray,diamond
0.0,8.0,4.0,1.0,6.0,6.0,238.6103250000815,1.0,1.0,phase_2,stop,200.0,300.0,3.0,,,,,,,,,yellow,hexagon
0.0,8.0,4.0,1.0,6.0,6.0,278.3104779998666,1.0,1.0,phase_2,stop,200.0,250.0,3.0,,,,,,,,,yellow,hexagon
0.0,8.0,4.0,1.0,6.0,6.0,267.3976559999573,1.0,1.0,phase_2,stop,200.0,200.0,3.0,,,,,,,,,yellow,hexagon
0.0,4.0,4.0,0.0,5.0,5.0,229.7037379998983,1.0,1.0,phase_2,go,200.0,150.0,1.0,,,,,,,,,cyan,cross
0.0,2.0,2.0,0.0,6.0,6.0,546.1772229998587,1.0,1.0,phase_2,go,200.0,150.0,1.0,,,,,,,,,green,circle
0.0,5.0,1.0,1.0,6.0,0.0,0.0,1.0,1.0,phase_2,stop,200.0,150.0,4.0,,,,,,,,,blue,triangle
0.0,4.0,4.0,0.0,6.0,6.0,287.6297630000408,2.0,1.0,phase_2,go,200.0,200.0,1.0,,,,,,,,,cyan,cross
0.0,2.0,2.0,0.0,5.0,5.0,583.5005529997943,2.0,1.0,phase_2,go,200.0,200.0,1.0,,,,,,,,,green,circle
0.0,2.0,2.0,0.0,6.0,6.0,611.1858930000835,2.0,1.0,phase_2,go,200.0,200.0,1.0,,,,,,,,,green,circle
0.0,3.0,3.0,0.0,6.0,6.0,676.2581820000833,2.0,1.0,phase_2,go,200.0,200.0,1.0,,,,,,,,,magenta,I
0.0,5.0,1.0,1.0,5.0,5.0,483.8182190001134,2.0,1.0,phase_2,go,200.0,200.0,1.0,,,,,,,,,blue,triangle
0.0,1.0,1.0,0.0,5.0,5.0,692.7433060000112,2.0,1.0,phase_2,go,200.0,200.0,1.0,,,,,,,,,gray,diamond
0.0,5.0,1.0,1.0,5.0,0.0,0.0,2.0,1.0,phase_2,stop,200.0,200.0,4.0,,,,,,,,,blue,triangle
0.0,7.0,3.0,1.0,6.0,0.0,0.0,2.0,1.0,phase_2,stop,250.0,200.0,4.0,,,,,,,,,white,square
0.0,8.0,4.0,1.0,5.0,0.0,0.0,2.0,1.0,phase_2,stop,250.0,250.0,4.0,,,,,,,,,yellow,hexagon
0.0,3.0,3.0,0.0,6.0,6.0,435.6945360000281,2.0,1.0,phase_2,go,300.0,250.0,1.0,,,,,,,,,magenta,I
0.0,7.0,3.0,1.0,5.0,0.0,0.0,2.0,1.0,phase_2,stop,300.0,250.0,4.0,,,,,,,,,white,square
0.0,5.0,1.0,1.0,6.0,0.0,0.0,2.0,1.0,phase_2,stop,350.0,250.0,4.0,,,,,,,,,blue,triangle
0.0,3.0,3.0,0.0,5.0,5.0,463.9956510000047,2.0,1.0,phase_2,go,350.0,300.0,1.0,,,,,,,,,magenta,I
0.0,4.0,4.0,0.0,6.0,6.0,545.1372340000944,2.0,1.0,phase_2,go,350.0,300.0,1.0,,,,,,,,,cyan,cross
0.0,4.0,4.0,0.0,6.0,6.0,615.0013680000939,2.0,1.0,phase_2,go,350.0,300.0,1.0,,,,,,,,,cyan,cross
0.0,8.0,4.0,1.0,6.0,6.0,564.7400559998914,2.0,1.0,phase_2,go,350.0,300.0,1.0,,,,,,,,,yellow,hexagon
0.0,3.0,3.0,0.0,6.0,6.0,598.6181340001622,2.0,1.0,phase_2,go,350.0,300.0,1.0,,,,,,,,,magenta,I
0.0,6.0,2.0,1.0,5.0,0.0,0.0,2.0,1.0,phase_2,stop,350.0,300.0,4.0,,,,,,,,,orange,flipped triangle
0.0,5.0,1.0,1.0,5.0,0.0,0.0,2.0,1.0,phase_2,stop,400.0,300.0,4.0,,,,,,,,,blue,triangle
0.0,1.0,1.0,0.0,5.0,5.0,570.3959350000787,2.0,1.0,phase_2,go,450.0,300.0,1.0,,,,,,,,,gray,diamond
0.0,6.0,2.0,1.0,6.0,0.0,0.0,2.0,1.0,phase_2,stop,450.0,300.0,4.0,,,,,,,,,orange,flipped triangle
0.0,2.0,2.0,0.0,6.0,6.0,585.7007140000405,2.0,1.0,phase_2,go,450.0,350.0,1.0,,,,,,,,,green,circle
0.0,7.0,3.0,1.0,5.0,0.0,0.0,2.0,1.0,phase_2,stop,450.0,350.0,4.0,,,,,,,,,white,square
0.0,7.0,3.0,1.0,5.0,5.0,617.7244580001116,2.0,1.0,phase_2,stop,500.0,350.0,3.0,,,,,,,,,white,square
0.0,6.0,2.0,1.0,6.0,0.0,0.0,2.0,1.0,phase_2,stop,450.0,350.0,4.0,,,,,,,,,orange,flipped triangle
0.0,1.0,1.0,0.0,5.0,5.0,688.9009940000506,2.0,1.0,phase_2,go,450.0,400.0,1.0,,,,,,,,,gray,diamond
0.0,6.0,2.0,1.0,5.0,0.0,0.0,2.0,1.0,phase_2,stop,450.0,400.0,4.0,,,,,,,,,orange,flipped triangle
0.0,2.0,2.0,0.0,6.0,6.0,749.3922059998113,2.0,1.0,phase_2,go,500.0,400.0,1.0,,,,,,,,,green,circle
0.0,4.0,4.0,0.0,5.0,5.0,869.2790509999213,2.0,1.0,phase_2,go,500.0,400.0,1.0,,,,,,,,,cyan,cross
0.0,5.0,1.0,1.0,5.0,0.0,0.0,2.0,1.0,phase_2,stop,500.0,400.0,4.0,,,,,,,,,blue,triangle
0.0,6.0,2.0,1.0,5.0,0.0,0.0,2.0,1.0,phase_2,stop,550.0,400.0,4.0,,,,,,,,,orange,flipped triangle
0.0,3.0,3.0,0.0,5.0,5.0,749.9348620001456,2.0,1.0,phase_2,go,600.0,400.0,1.0,,,,,,,,,magenta,I
0.0,5.0,1.0,1.0,6.0,6.0,834.5784680000179,2.0,1.0,phase_2,go,600.0,400.0,1.0,,,,,,,,,blue,triangle
0.0,7.0,3.0,1.0,6.0,6.0,940.9414659999128,2.0,1.0,phase_2,go,600.0,400.0,1.0,,,,,,,,,white,square
0.0,3.0,3.0,0.0,6.0,6.0,834.3864179998945,2.0,1.0,phase_2,go,600.0,400.0,1.0,,,,,,,,,magenta,I
0.0,6.0,2.0,1.0,6.0,0.0,0.0,2.0,1.0,phase_2,stop,600.0,400.0,4.0,,,,,,,,,orange,flipped triangle
0.0,8.0,4.0,1.0,5.0,5.0,346.3944000000083,3.0,1.0,phase_2,stop,600.0,450.0,3.0,,,,,,,,,yellow,hexagon
0.0,4.0,4.0,0.0,5.0,5.0,633.8649240001359,3.0,1.0,phase_2,go,550.0,450.0,1.0,,,,,,,,,cyan,cross
0.0,7.0,3.0,1.0,5.0,5.0,659.6575539999776,3.0,1.0,phase_2,stop,550.0,450.0,3.0,,,,,,,,,white,square
0.0,3.0,3.0,0.0,5.0,5.0,792.5402079999913,3.0,1.0,phase_2,go,500.0,450.0,1.0,,,,,,,,,magenta,I
0.0,3.0,3.0,0.0,6.0,6.0,751.6791479999938,3.0,1.0,phase_2,go,500.0,450.0,1.0,,,,,,,,,magenta,I
0.0,4.0,4.0,0.0,5.0,5.0,746.8963750000057,3.0,1.0,phase_2,go,500.0,450.0,1.0,,,,,,,,,cyan,cross
0.0,1.0,1.0,0.0,6.0,6.0,728.7185709999449,3.0,1.0,phase_2,go,500.0,450.0,1.0,,,,,,,,,gray,diamond
0.0,7.0,3.0,1.0,6.0,6.0,767.5698100001682,3.0,1.0,phase_2,go,500.0,450.0,1.0,,,,,,,,,white,square
0.0,2.0,2.0,0.0,5.0,5.0,681.21118199997,3.0,1.0,phase_2,go,500.0,450.0,1.0,,,,,,,,,green,circle
0.0,4.0,4.0,0.0,6.0,6.0,524.901366999984,3.0,1.0,phase_2,go,500.0,450.0,1.0,,,,,,,,,cyan,cross
0.0,8.0,4.0,1.0,6.0,6.0,568.3422160000191,3.0,1.0,phase_2,stop,500.0,450.0,3.0,,,,,,,,,yellow,hexagon
0.0,2.0,2.0,0.0,5.0,5.0,631.2710360000438,3.0,1.0,phase_2,go,500.0,400.0,1.0,,,,,,,,,green,circle
0.0,3.0,3.0,0.0,5.0,5.0,735.3554900000745,3.0,1.0,phase_2,go,500.0,400.0,1.0,,,,,,,,,magenta,I
0.0,1.0,1.0,0.0,6.0,6.0,723.3054530001937,3.0,1.0,phase_2,go,500.0,400.0,1.0,,,,,,,,,gray,diamond
0.0,6.0,2.0,1.0,6.0,6.0,653.1551049999962,3.0,1.0,phase_2,go,500.0,400.0,1.0,,,,,,,,,orange,flipped triangle
0.0,5.0,1.0,1.0,6.0,0.0,0.0,3.0,1.0,phase_2,stop,500.0,400.0,4.0,,,,,,,,,blue,triangle
0.0,1.0,1.0,0.0,6.0,6.0,883.3769479999773,3.0,1.0,phase_2,go,500.0,450.0,1.0,,,,,,,,,gray,diamond
0.0,6.0,2.0,1.0,6.0,6.0,676.7807979999816,3.0,1.0,phase_2,go,500.0,450.0,1.0,,,,,,,,,orange,flipped triangle
0.0,5.0,1.0,1.0,6.0,6.0,752.2831740000129,3.0,1.0,phase_2,go,500.0,450.0,1.0,,,,,,,,,blue,triangle
0.0,3.0,3.0,0.0,5.0,5.0,1135.3705070000617,3.0,1.0,phase_2,go,500.0,450.0,1.0,,,,,,,,,magenta,I
0.0,1.0,1.0,0.0,6.0,6.0,760.7436240000425,3.0,1.0,phase_2,go,500.0,450.0,1.0,,,,,,,,,gray,diamond
0.0,8.0,4.0,1.0,6.0,0.0,0.0,3.0,1.0,phase_2,stop,500.0,450.0,4.0,,,,,,,,,yellow,hexagon
0.0,5.0,1.0,1.0,5.0,0.0,0.0,3.0,1.0,phase_2,stop,500.0,500.0,4.0,,,,,,,,,blue,triangle
0.0,5.0,1.0,1.0,5.0,5.0,783.9974190001158,3.0,1.0,phase_2,go,550.0,500.0,1.0,,,,,,,,,blue,triangle
0.0,7.0,3.0,1.0,5.0,0.0,0.0,3.0,1.0,phase_2,stop,550.0,500.0,4.0,,,,,,,,,white,square
0.0,2.0,2.0,0.0,5.0,5.0,999.9977540001056,3.0,1.0,phase_2,go,600.0,500.0,1.0,,,,,,,,,green,circle
0.0,6.0,2.0,1.0,6.0,0.0,0.0,3.0,1.0,phase_2,stop,600.0,500.0,4.0,,,,,,,,,orange,flipped triangle
0.0,6.0,2.0,1.0,5.0,5.0,878.714815999956,3.0,1.0,phase_2,go,600.0,550.0,1.0,,,,,,,,,orange,flipped triangle
0.0,1.0,1.0,0.0,6.0,6.0,1046.6984549998417,3.0,1.0,phase_2,go,600.0,550.0,1.0,,,,,,,,,gray,diamond
0.0,7.0,3.0,1.0,5.0,0.0,0.0,3.0,1.0,phase_2,stop,600.0,550.0,4.0,,,,,,,,,white,square
0.0,5.0,1.0,1.0,5.0,0.0,0.0,3.0,1.0,phase_2,stop,650.0,550.0,4.0,,,,,,,,,blue,triangle
0.0,3.0,3.0,0.0,5.0,5.0,1337.209509999866,3.0,1.0,phase_2,go,700.0,550.0,1.0,,,,,,,,,magenta,I
0.0,4.0,4.0,0.0,5.0,0.0,0.0,3.0,1.0,phase_2,go,700.0,550.0,5.0,,,,,,,,,cyan,cross
0.0,1.0,1.0,0.0,6.0,6.0,767.9066890000286,3.0,1.0,phase_2,go,700.0,550.0,1.0,,,,,,,,,gray,diamond
0.0,2.0,2.0,0.0,5.0,5.0,521.1833719999959,3.0,1.0,phase_2,go,700.0,550.0,1.0,,,,,,,,,green,circle
0.0,1.0,1.0,0.0,6.0,6.0,631.2571660000685,3.0,1.0,phase_2,go,700.0,550.0,1.0,,,,,,,,,gray,diamond
0.0,1.0,1.0,0.0,5.0,5.0,272.5572459999057,4.0,1.0,phase_2,go,700.0,550.0,1.0,,,,,,,,,gray,diamond
0.0,5.0,1.0,1.0,5.0,5.0,264.1115310002533,4.0,1.0,phase_2,stop,700.0,550.0,3.0,,,,,,,,,blue,triangle
0.0,2.0,2.0,0.0,5.0,5.0,337.857514999996,4.0,1.0,phase_2,go,650.0,550.0,1.0,,,,,,,,,green,circle
0.0,5.0,1.0,1.0,6.0,6.0,495.7317610001155,4.0,1.0,phase_2,stop,650.0,550.0,3.0,,,,,,,,,blue,triangle
0.0,3.0,3.0,0.0,5.0,5.0,311.3484060004339,4.0,1.0,phase_2,go,650.0,500.0,1.0,,,,,,,,,magenta,I
0.0,6.0,2.0,1.0,5.0,5.0,294.6547900000951,4.0,1.0,phase_2,stop,650.0,500.0,3.0,,,,,,,,,orange,flipped triangle
0.0,4.0,4.0,0.0,6.0,6.0,208.0176910003501,4.0,1.0,phase_2,go,600.0,500.0,1.0,,,,,,,,,cyan,cross
0.0,2.0,2.0,0.0,5.0,5.0,421.1885720001191,4.0,1.0,phase_2,go,600.0,500.0,1.0,,,,,,,,,green,circle
0.0,5.0,1.0,1.0,5.0,5.0,334.1170160001638,4.0,1.0,phase_2,stop,600.0,500.0,3.0,,,,,,,,,blue,triangle
0.0,6.0,2.0,1.0,6.0,6.0,252.9204970001046,4.0,1.0,phase_2,stop,550.0,500.0,3.0,,,,,,,,,orange,flipped triangle
0.0,8.0,4.0,1.0,6.0,6.0,475.5763099997239,4.0,1.0,phase_2,stop,550.0,450.0,3.0,,,,,,,,,yellow,hexagon
0.0,1.0,1.0,0.0,5.0,5.0,634.4347529998231,4.0,1.0,phase_2,go,550.0,400.0,1.0,,,,,,,,,gray,diamond
0.0,6.0,2.0,1.0,6.0,0.0,0.0,4.0,1.0,phase_2,stop,550.0,400.0,4.0,,,,,,,,,orange,flipped triangle
0.0,3.0,3.0,0.0,5.0,5.0,267.4072830000114,4.0,1.0,phase_2,go,550.0,450.0,1.0,,,,,,,,,magenta,I
0.0,6.0,2.0,1.0,5.0,5.0,280.8563619996675,4.0,1.0,phase_2,go,550.0,450.0,1.0,,,,,,,,,orange,flipped triangle
0.0,5.0,1.0,1.0,6.0,6.0,227.2680420001052,4.0,1.0,phase_2,stop,550.0,450.0,3.0,,,,,,,,,blue,triangle
0.0,3.0,3.0,0.0,6.0,6.0,539.7304160001113,4.0,1.0,phase_2,go,550.0,400.0,1.0,,,,,,,,,magenta,I
0.0,6.0,2.0,1.0,6.0,0.0,0.0,4.0,1.0,phase_2,stop,550.0,400.0,4.0,,,,,,,,,orange,flipped triangle
0.0,4.0,4.0,0.0,5.0,5.0,522.7279270002327,4.0,1.0,phase_2,go,550.0,450.0,1.0,,,,,,,,,cyan,cross
0.0,6.0,2.0,1.0,6.0,6.0,249.0811709999434,4.0,1.0,phase_2,stop,550.0,450.0,3.0,,,,,,,,,orange,flipped triangle
0.0,7.0,3.0,1.0,5.0,5.0,576.0479290001967,4.0,1.0,phase_2,stop,550.0,400.0,3.0,,,,,,,,,white,square
0.0,6.0,2.0,1.0,6.0,0.0,0.0,4.0,1.0,phase_2,stop,500.0,400.0,4.0,,,,,,,,,orange,flipped triangle
0.0,4.0,4.0,0.0,5.0,5.0,318.5759869998037,4.0,1.0,phase_2,go,500.0,450.0,1.0,,,,,,,,,cyan,cross
0.0,2.0,2.0,0.0,5.0,5.0,583.9881010001591,4.0,1.0,phase_2,go,500.0,450.0,1.0,,,,,,,,,green,circle
0.0,3.0,3.0,0.0,5.0,5.0,299.9690599999667,4.0,1.0,phase_2,go,500.0,450.0,1.0,,,,,,,,,magenta,I
0.0,8.0,4.0,1.0,5.0,5.0,277.8961820004042,4.0,1.0,phase_2,stop,500.0,450.0,3.0,,,,,,,,,yellow,hexagon
0.0,6.0,2.0,1.0,6.0,6.0,236.0277870002392,4.0,1.0,phase_2,stop,450.0,450.0,3.0,,,,,,,,,orange,flipped triangle
0.0,6.0,2.0,1.0,6.0,6.0,314.4757569998546,4.0,1.0,phase_2,go,450.0,400.0,1.0,,,,,,,,,orange,flipped triangle
0.0,8.0,4.0,1.0,6.0,6.0,340.2189359999283,4.0,1.0,phase_2,go,450.0,400.0,1.0,,,,,,,,,yellow,hexagon
0.0,4.0,4.0,0.0,6.0,6.0,275.6031049998455,4.0,1.0,phase_2,go,450.0,400.0,1.0,,,,,,,,,cyan,cross
0.0,4.0,4.0,0.0,5.0,5.0,539.9953749997621,4.0,1.0,phase_2,go,450.0,400.0,1.0,,,,,,,,,cyan,cross
0.0,8.0,4.0,1.0,6.0,6.0,480.3439110000909,4.0,1.0,phase_2,stop,450.0,400.0,3.0,,,,,,,,,yellow,hexagon
0.0,2.0,2.0,0.0,6.0,6.0,266.0224920000473,4.0,1.0,phase_2,go,450.0,350.0,1.0,,,,,,,,,green,circle
0.0,1.0,1.0,0.0,6.0,6.0,310.8650019999004,4.0,1.0,phase_2,go,450.0,350.0,1.0,,,,,,,,,gray,diamond
0.0,5.0,1.0,1.0,5.0,5.0,613.904539000032,4.0,1.0,phase_2,go,450.0,350.0,1.0,,,,,,,,,blue,triangle
0.0,2.0,2.0,0.0,5.0,5.0,295.9342710000783,4.0,1.0,phase_2,go,450.0,350.0,1.0,,,,,,,,,green,circle
0.0,8.0,4.0,1.0,5.0,5.0,267.527568999867,5.0,1.0,phase_2,go,450.0,350.0,1.0,,,,,,,,,yellow,hexagon
0.0,3.0,3.0,0.0,5.0,5.0,569.9949569998353,5.0,1.0,phase_2,go,450.0,350.0,1.0,,,,,,,,,magenta,I
0.0,1.0,1.0,0.0,6.0,6.0,602.5840600000265,5.0,1.0,phase_2,go,450.0,350.0,1.0,,,,,,,,,gray,diamond
0.0,2.0,2.0,0.0,6.0,6.0,523.5387729999275,5.0,1.0,phase_2,go,450.0,350.0,1.0,,,,,,,,,green,circle
0.0,6.0,2.0,1.0,5.0,0.0,0.0,5.0,1.0,phase_2,stop,450.0,350.0,4.0,,,,,,,,,orange,flipped triangle
0.0,6.0,2.0,1.0,5.0,0.0,0.0,5.0,1.0,phase_2,stop,500.0,350.0,4.0,,,,,,,,,orange,flipped triangle
0.0,5.0,1.0,1.0,6.0,0.0,0.0,5.0,1.0,phase_2,stop,550.0,350.0,4.0,,,,,,,,,blue,triangle
0.0,8.0,4.0,1.0,6.0,6.0,445.2092830001675,5.0,1.0,phase_2,go,550.0,400.0,1.0,,,,,,,,,yellow,hexagon
0.0,7.0,3.0,1.0,5.0,5.0,573.5312220003834,5.0,1.0,phase_2,stop,550.0,400.0,3.0,,,,,,,,,white,square
0.0,7.0,3.0,1.0,5.0,5.0,703.3945970001696,5.0,1.0,phase_2,go,500.0,400.0,1.0,,,,,,,,,white,square
0.0,5.0,1.0,1.0,6.0,0.0,0.0,5.0,1.0,phase_2,stop,500.0,400.0,4.0,,,,,,,,,blue,triangle
0.0,7.0,3.0,1.0,5.0,5.0,549.2821220000224,5.0,1.0,phase_2,go,500.0,450.0,1.0,,,,,,,,,white,square
0.0,5.0,1.0,1.0,6.0,6.0,580.7504780000272,5.0,1.0,phase_2,go,500.0,450.0,1.0,,,,,,,,,blue,triangle
0.0,6.0,2.0,1.0,5.0,5.0,684.3813000000409,5.0,1.0,phase_2,go,500.0,450.0,1.0,,,,,,,,,orange,flipped triangle
0.0,7.0,3.0,1.0,6.0,6.0,571.9149950000428,5.0,1.0,phase_2,stop,500.0,450.0,3.0,,,,,,,,,white,square
0.0,7.0,3.0,1.0,5.0,5.0,588.5275480000018,5.0,1.0,phase_2,go,500.0,400.0,1.0,,,,,,,,,white,square
0.0,1.0,1.0,0.0,6.0,6.0,593.0160140001135,5.0,1.0,phase_2,go,500.0,400.0,1.0,,,,,,,,,gray,diamond
0.0,4.0,4.0,0.0,6.0,6.0,544.6373069999026,5.0,1.0,phase_2,go,500.0,400.0,1.0,,,,,,,,,cyan,cross
0.0,3.0,3.0,0.0,6.0,6.0,435.2488489998904,5.0,1.0,phase_2,go,500.0,400.0,1.0,,,,,,,,,magenta,I
0.0,3.0,3.0,0.0,5.0,5.0,632.9148979998536,5.0,1.0,phase_2,go,500.0,400.0,1.0,,,,,,,,,magenta,I
0.0,6.0,2.0,1.0,5.0,0.0,0.0,5.0,1.0,phase_2,stop,500.0,400.0,4.0,,,,,,,,,orange,flipped triangle
0.0,3.0,3.0,0.0,6.0,6.0,678.9840840001489,5.0,1.0,phase_2,go,550.0,400.0,1.0,,,,,,,,,magenta,I
0.0,7.0,3.0,1.0,5.0,5.0,599.7788640002,5.0,1.0,phase_2,stop,550.0,400.0,3.0,,,,,,,,,white,square
0.0,5.0,1.0,1.0,5.0,5.0,327.6209099999505,5.0,1.0,phase_2,stop,500.0,400.0,3.0,,,,,,,,,blue,triangle
0.0,1.0,1.0,0.0,6.0,6.0,413.2424549998177,5.0,1.0,phase_2,go,450.0,400.0,1.0,,,,,,,,,gray,diamond
0.0,7.0,3.0,1.0,6.0,6.0,516.1286180000388,5.0,1.0,phase_2,go,450.0,400.0,1.0,,,,,,,,,white,square
0.0,4.0,4.0,0.0,6.0,6.0,749.4502800000191,5.0,1.0,phase_2,go,450.0,400.0,1.0,,,,,,,,,cyan,cross
0.0,5.0,1.0,1.0,6.0,0.0,0.0,5.0,1.0,phase_2,stop,450.0,400.0,4.0,,,,,,,,,blue,triangle
0.0,8.0,4.0,1.0,5.0,5.0,681.995919000201,5.0,1.0,phase_2,go,450.0,450.0,1.0,,,,,,,,,yellow,hexagon
0.0,6.0,2.0,1.0,5.0,0.0,0.0,5.0,1.0,phase_2,stop,450.0,450.0,4.0,,,,,,,,,orange,flipped triangle
0.0,1.0,1.0,0.0,5.0,5.0,658.5303249999015,5.0,1.0,phase_2,go,500.0,450.0,1.0,,,,,,,,,gray,diamond
0.0,6.0,2.0,1.0,5.0,0.0,0.0,5.0,1.0,phase_2,stop,500.0,450.0,4.0,,,,,,,,,orange,flipped triangle
0.0,8.0,4.0,1.0,5.0,0.0,0.0,5.0,1.0,phase_2,stop,550.0,450.0,4.0,,,,,,,,,yellow,hexagon
0.0,8.0,4.0,1.0,6.0,6.0,815.1902820000032,5.0,1.0,phase_2,stop,600.0,450.0,3.0,,,,,,,,,yellow,hexagon
0.0,3.0,3.0,0.0,5.0,5.0,728.3707409997078,5.0,1.0,phase_2,go,600.0,400.0,1.0,,,,,,,,,magenta,I
0.0,2.0,2.0,0.0,5.0,5.0,734.1206220003187,5.0,1.0,phase_2,go,600.0,400.0,1.0,,,,,,,,,green,circle
0.0,3.0,3.0,0.0,6.0,6.0,304.2869129999417,6.0,1.0,phase_2,go,600.0,400.0,1.0,,,,,,,,,magenta,I
0.0,1.0,1.0,0.0,5.0,5.0,536.2716300001011,6.0,1.0,phase_2,go,600.0,400.0,1.0,,,,,,,,,gray,diamond
0.0,7.0,3.0,1.0,6.0,0.0,0.0,6.0,1.0,phase_2,stop,600.0,400.0,4.0,,,,,,,,,white,square
0.0,2.0,2.0,0.0,6.0,6.0,616.4484659998379,6.0,1.0,phase_2,go,600.0,450.0,1.0,,,,,,,,,green,circle
0.0,8.0,4.0,1.0,5.0,5.0,641.0592590000306,6.0,1.0,phase_2,stop,600.0,450.0,3.0,,,,,,,,,yellow,hexagon
0.0,4.0,4.0,0.0,5.0,5.0,577.5481359996775,6.0,1.0,phase_2,go,550.0,450.0,1.0,,,,,,,,,cyan,cross
0.0,8.0,4.0,1.0,5.0,5.0,584.1257720003341,6.0,1.0,phase_2,go,550.0,450.0,1.0,,,,,,,,,yellow,hexagon
0.0,6.0,2.0,1.0,5.0,0.0,0.0,6.0,1.0,phase_2,stop,550.0,450.0,4.0,,,,,,,,,orange,flipped triangle
0.0,8.0,4.0,1.0,5.0,5.0,723.5712010001407,6.0,1.0,phase_2,stop,600.0,450.0,3.0,,,,,,,,,yellow,hexagon
0.0,2.0,2.0,0.0,6.0,6.0,803.2276899998578,6.0,1.0,phase_2,go,550.0,450.0,1.0,,,,,,,,,green,circle
0.0,7.0,3.0,1.0,5.0,0.0,0.0,6.0,1.0,phase_2,stop,550.0,450.0,4.0,,,,,,,,,white,square
0.0,6.0,2.0,1.0,5.0,0.0,0.0,6.0,1.0,phase_2,stop,600.0,450.0,4.0,,,,,,,,,orange,flipped triangle
0.0,3.0,3.0,0.0,6.0,6.0,701.8882639999902,6.0,1.0,phase_2,go,650.0,450.0,1.0,,,,,,,,,magenta,I
0.0,2.0,2.0,0.0,5.0,5.0,681.5034100000048,6.0,1.0,phase_2,go,650.0,450.0,1.0,,,,,,,,,green,circle
0.0,6.0,2.0,1.0,5.0,5.0,691.0158320001756,6.0,1.0,phase_2,stop,650.0,450.0,3.0,,,,,,,,,orange,flipped triangle
0.0,1.0,1.0,0.0,5.0,5.0,496.0875839997243,6.0,1.0,phase_2,go,600.0,450.0,1.0,,,,,,,,,gray,diamond
0.0,5.0,1.0,1.0,5.0,5.0,467.2379939997881,6.0,1.0,phase_2,stop,600.0,450.0,3.0,,,,,,,,,blue,triangle
0.0,7.0,3.0,1.0,6.0,0.0,0.0,6.0,1.0,phase_2,stop,550.0,450.0,4.0,,,,,,,,,white,square
0.0,1.0,1.0,0.0,5.0,5.0,280.3867160000663,6.0,1.0,phase_2,go,550.0,500.0,1.0,,,,,,,,,gray,diamond
0.0,4.0,4.0,0.0,5.0,5.0,264.2464190003011,6.0,1.0,phase_2,go,550.0,500.0,1.0,,,,,,,,,cyan,cross
0.0,4.0,4.0,0.0,5.0,5.0,990.3236589998414,6.0,1.0,phase_2,go,550.0,500.0,1.0,,,,,,,,,cyan,cross
0.0,3.0,3.0,0.0,6.0,6.0,239.216936000048,6.0,1.0,phase_2,go,550.0,500.0,1.0,,,,,,,,,magenta,I
0.0,8.0,4.0,1.0,6.0,0.0,0.0,6.0,1.0,phase_2,stop,550.0,500.0,4.0,,,,,,,,,yellow,hexagon
0.0,8.0,4.0,1.0,5.0,5.0,627.772620000087,6.0,1.0,phase_2,go,550.0,550.0,1.0,,,,,,,,,yellow,hexagon
0.0,5.0,1.0,1.0,5.0,5.0,358.0232510003043,6.0,1.0,phase_2,go,550.0,550.0,1.0,,,,,,,,,blue,triangle
0.0,7.0,3.0,1.0,6.0,6.0,770.666780999818,6.0,1.0,phase_2,go,550.0,550.0,1.0,,,,,,,,,white,square
0.0,5.0,1.0,1.0,6.0,6.0,698.5970069999894,6.0,1.0,phase_2,stop,550.0,550.0,3.0,,,,,,,,,blue,triangle
0.0,8.0,4.0,1.0,5.0,5.0,299.4234679999863,6.0,1.0,phase_2,stop,550.0,500.0,3.0,,,,,,,,,yellow,hexagon
0.0,3.0,3.0,0.0,6.0,6.0,208.4730950000448,6.0,1.0,phase_2,go,500.0,500.0,1.0,,,,,,,,,magenta,I
0.0,8.0,4.0,1.0,5.0,5.0,208.3712839998952,6.0,1.0,phase_2,stop,500.0,500.0,3.0,,,,,,,,,yellow,hexagon
0.0,8.0,4.0,1.0,5.0,0.0,0.0,6.0,1.0,phase_2,stop,450.0,500.0,4.0,,,,,,,,,yellow,hexagon
0.0,3.0,3.0,0.0,5.0,5.0,616.081529999974,6.0,1.0,phase_2,go,500.0,500.0,1.0,,,,,,,,,magenta,I
0.0,4.0,4.0,0.0,6.0,6.0,889.8738670000057,6.0,1.0,phase_2,go,500.0,500.0,1.0,,,,,,,,,cyan,cross
0.0,2.0,2.0,0.0,6.0,6.0,806.9410950001839,6.0,1.0,phase_2,go,500.0,500.0,1.0,,,,,,,,,green,circle
0.0,3.0,3.0,0.0,6.0,6.0,854.1451139999481,6.0,1.0,phase_2,go,500.0,500.0,1.0,,,,,,,,,magenta,I
0.0,8.0,4.0,1.0,5.0,5.0,805.8552190000228,6.0,1.0,phase_2,go,500.0,500.0,1.0,,,,,,,,,yellow,hexagon
0.0,6.0,2.0,1.0,6.0,6.0,264.9608000001535,7.0,1.0,phase_2,go,500.0,500.0,1.0,,,,,,,,,orange,flipped triangle
0.0,6.0,2.0,1.0,5.0,5.0,582.5295499998902,7.0,1.0,phase_2,stop,500.0,500.0,3.0,,,,,,,,,orange,flipped triangle
0.0,6.0,2.0,1.0,6.0,0.0,0.0,7.0,1.0,phase_2,stop,450.0,500.0,4.0,,,,,,,,,orange,flipped triangle
0.0,7.0,3.0,1.0,5.0,0.0,0.0,7.0,1.0,phase_2,stop,450.0,550.0,4.0,,,,,,,,,white,square
0.0,1.0,1.0,0.0,5.0,5.0,732.3122890002196,7.0,1.0,phase_2,go,500.0,550.0,1.0,,,,,,,,,gray,diamond
0.0,1.0,1.0,0.0,5.0,5.0,966.3432199999988,7.0,1.0,phase_2,go,500.0,550.0,1.0,,,,,,,,,gray,diamond
0.0,3.0,3.0,0.0,5.0,5.0,789.3706280001425,7.0,1.0,phase_2,go,500.0,550.0,1.0,,,,,,,,,magenta,I
0.0,7.0,3.0,1.0,5.0,0.0,0.0,7.0,1.0,phase_2,stop,500.0,550.0,4.0,,,,,,,,,white,square
0.0,7.0,3.0,1.0,6.0,0.0,0.0,7.0,1.0,phase_2,stop,550.0,550.0,4.0,,,,,,,,,white,square
0.0,6.0,2.0,1.0,6.0,0.0,0.0,7.0,1.0,phase_2,stop,550.0,600.0,4.0,,,,,,,,,orange,flipped triangle
0.0,3.0,3.0,0.0,5.0,5.0,439.6902700000282,7.0,1.0,phase_2,go,550.0,650.0,1.0,,,,,,,,,magenta,I
0.0,3.0,3.0,0.0,6.0,6.0,503.30105300008654,7.0,1.0,phase_2,go,550.0,650.0,1.0,,,,,,,,,magenta,I
0.0,4.0,4.0,0.0,6.0,6.0,871.0981780000111,7.0,1.0,phase_2,go,550.0,650.0,1.0,,,,,,,,,cyan,cross
0.0,8.0,4.0,1.0,6.0,0.0,0.0,7.0,1.0,phase_2,stop,550.0,650.0,4.0,,,,,,,,,yellow,hexagon
0.0,8.0,4.0,1.0,5.0,0.0,0.0,7.0,1.0,phase_2,stop,550.0,700.0,4.0,,,,,,,,,yellow,hexagon
0.0,5.0,1.0,1.0,5.0,0.0,0.0,7.0,1.0,phase_2,stop,600.0,700.0,4.0,,,,,,,,,blue,triangle
0.0,2.0,2.0,0.0,6.0,6.0,447.7382820000457,7.0,1.0,phase_2,go,650.0,700.0,1.0,,,,,,,,,green,circle
0.0,2.0,2.0,0.0,5.0,5.0,699.9854179998692,7.0,1.0,phase_2,go,650.0,700.0,1.0,,,,,,,,,green,circle
0.0,5.0,1.0,1.0,5.0,0.0,0.0,7.0,1.0,phase_2,stop,650.0,700.0,4.0,,,,,,,,,blue,triangle
0.0,5.0,1.0,1.0,6.0,6.0,747.1651060000113,7.0,1.0,phase_2,stop,700.0,700.0,3.0,,,,,,,,,blue,triangle
0.0,2.0,2.0,0.0,6.0,6.0,988.2424379998156,7.0,1.0,phase_2,go,700.0,650.0,1.0,,,,,,,,,green,circle
0.0,2.0,2.0,0.0,6.0,6.0,955.3875950000474,7.0,1.0,phase_2,go,700.0,650.0,1.0,,,,,,,,,green,circle
0.0,1.0,1.0,0.0,6.0,6.0,852.3495360000197,7.0,1.0,phase_2,go,700.0,650.0,1.0,,,,,,,,,gray,diamond
0.0,3.0,3.0,0.0,6.0,6.0,796.0132339999291,7.0,1.0,phase_2,go,700.0,650.0,1.0,,,,,,,,,magenta,I
0.0,7.0,3.0,1.0,6.0,6.0,743.9863219997278,7.0,1.0,phase_2,go,700.0,650.0,1.0,,,,,,,,,white,square
0.0,5.0,1.0,1.0,6.0,6.0,688.392555000064,7.0,1.0,phase_2,stop,700.0,650.0,3.0,,,,,,,,,blue,triangle
0.0,1.0,1.0,0.0,5.0,5.0,713.4678020001957,7.0,1.0,phase_2,go,700.0,600.0,1.0,,,,,,,,,gray,diamond
0.0,8.0,4.0,1.0,6.0,0.0,0.0,7.0,1.0,phase_2,stop,700.0,600.0,4.0,,,,,,,,,yellow,hexagon
0.0,3.0,3.0,0.0,6.0,6.0,790.344376000121,7.0,1.0,phase_2,go,700.0,650.0,1.0,,,,,,,,,magenta,I
0.0,1.0,1.0,0.0,6.0,6.0,897.349648999807,7.0,1.0,phase_2,go,700.0,650.0,1.0,,,,,,,,,gray,diamond
0.0,2.0,2.0,0.0,6.0,6.0,805.1147209998817,7.0,1.0,phase_2,go,700.0,650.0,1.0,,,,,,,,,green,circle
0.0,1.0,1.0,0.0,6.0,6.0,902.275864999865,7.0,1.0,phase_2,go,700.0,650.0,1.0,,,,,,,,,gray,diamond
0.0,8.0,4.0,1.0,6.0,0.0,0.0,7.0,1.0,phase_2,stop,700.0,650.0,4.0,,,,,,,,,yellow,hexagon
0.0,5.0,1.0,1.0,5.0,0.0,0.0,7.0,1.0,phase_2,stop,700.0,700.0,4.0,,,,,,,,,blue,triangle
0.0,8.0,4.0,1.0,5.0,5.0,884.7936080001091,7.0,1.0,phase_2,stop,750.0,700.0,3.0,,,,,,,,,yellow,hexagon
0.0,1.0,1.0,0.0,5.0,5.0,642.9567410000345,7.0,1.0,phase_2,go,700.0,700.0,1.0,,,,,,,,,gray,diamond
0.0,5.0,1.0,1.0,6.0,6.0,250.4425550000633,8.0,1.0,phase_2,go,700.0,700.0,1.0,,,,,,,,,blue,triangle
0.0,6.0,2.0,1.0,5.0,5.0,191.2153070002205,8.0,1.0,phase_2,go,700.0,700.0,1.0,,,,,,,,,orange,flipped triangle
0.0,2.0,2.0,0.0,6.0,6.0,537.6438489997781,8.0,1.0,phase_2,go,700.0,700.0,1.0,,,,,,,,,green,circle
0.0,7.0,3.0,1.0,6.0,6.0,630.3728769998997,8.0,1.0,phase_2,stop,700.0,700.0,3.0,,,,,,,,,white,square
0.0,2.0,2.0,0.0,6.0,6.0,749.6726680001302,8.0,1.0,phase_2,go,700.0,650.0,1.0,,,,,,,,,green,circle
0.0,5.0,1.0,1.0,6.0,6.0,640.1217759998872,8.0,1.0,phase_2,stop,700.0,650.0,3.0,,,,,,,,,blue,triangle
0.0,8.0,4.0,1.0,6.0,0.0,0.0,8.0,1.0,phase_2,stop,700.0,600.0,4.0,,,,,,,,,yellow,hexagon
0.0,3.0,3.0,0.0,5.0,5.0,755.3962649999448,8.0,1.0,phase_2,go,700.0,650.0,1.0,,,,,,,,,magenta,I
0.0,2.0,2.0,0.0,6.0,6.0,259.3009289998917,8.0,1.0,phase_2,go,700.0,650.0,1.0,,,,,,,,,green,circle
0.0,6.0,2.0,1.0,6.0,6.0,790.5339689996254,8.0,1.0,phase_2,go,700.0,650.0,1.0,,,,,,,,,orange,flipped triangle
0.0,4.0,4.0,0.0,5.0,5.0,723.4223020000172,8.0,1.0,phase_2,go,700.0,650.0,1.0,,,,,,,,,cyan,cross
0.0,2.0,2.0,0.0,6.0,6.0,659.58037900009,8.0,1.0,phase_2,go,700.0,650.0,1.0,,,,,,,,,green,circle
0.0,4.0,4.0,0.0,5.0,5.0,721.6866029998528,8.0,1.0,phase_2,go,700.0,650.0,1.0,,,,,,,,,cyan,cross
0.0,2.0,2.0,0.0,5.0,5.0,296.1544790000516,8.0,1.0,phase_2,go,700.0,650.0,1.0,,,,,,,,,green,circle
0.0,5.0,1.0,1.0,6.0,6.0,633.2788419999815,8.0,1.0,phase_2,stop,700.0,650.0,3.0,,,,,,,,,blue,triangle
0.0,2.0,2.0,0.0,5.0,5.0,463.7627410002096,8.0,1.0,phase_2,go,700.0,600.0,1.0,,,,,,,,,green,circle
0.0,7.0,3.0,1.0,6.0,6.0,279.6238850000918,8.0,1.0,phase_2,stop,700.0,600.0,3.0,,,,,,,,,white,square
0.0,3.0,3.0,0.0,5.0,5.0,224.8664620001363,8.0,1.0,phase_2,go,700.0,550.0,1.0,,,,,,,,,magenta,I
0.0,4.0,4.0,0.0,6.0,6.0,680.6750969999484,8.0,1.0,phase_2,go,700.0,550.0,1.0,,,,,,,,,cyan,cross
0.0,1.0,1.0,0.0,5.0,5.0,237.399828999969,8.0,1.0,phase_2,go,700.0,550.0,1.0,,,,,,,,,gray,diamond
0.0,2.0,2.0,0.0,5.0,5.0,870.9781610000391,8.0,1.0,phase_2,go,700.0,550.0,1.0,,,,,,,,,green,circle
0.0,3.0,3.0,0.0,6.0,6.0,667.9357579996577,8.0,1.0,phase_2,go,700.0,550.0,1.0,,,,,,,,,magenta,I
0.0,7.0,3.0,1.0,6.0,0.0,0.0,8.0,1.0,phase_2,stop,700.0,550.0,4.0,,,,,,,,,white,square
0.0,2.0,2.0,0.0,5.0,5.0,397.2736080004324,8.0,1.0,phase_2,go,700.0,600.0,1.0,,,,,,,,,green,circle
0.0,7.0,3.0,1.0,5.0,5.0,806.0030799997548,8.0,1.0,phase_2,stop,700.0,600.0,3.0,,,,,,,,,white,square
0.0,1.0,1.0,0.0,6.0,6.0,906.9499360002736,8.0,1.0,phase_2,go,650.0,600.0,1.0,,,,,,,,,gray,diamond
0.0,2.0,2.0,0.0,6.0,6.0,771.1032439997325,8.0,1.0,phase_2,go,650.0,600.0,1.0,,,,,,,,,green,circle
0.0,7.0,3.0,1.0,6.0,6.0,474.6892359999037,8.0,1.0,phase_2,stop,650.0,600.0,3.0,,,,,,,,,white,square
0.0,4.0,4.0,0.0,5.0,5.0,723.1269449998763,8.0,1.0,phase_2,go,650.0,550.0,1.0,,,,,,,,,cyan,cross
0.0,8.0,4.0,1.0,5.0,5.0,919.8032520002926,8.0,1.0,phase_2,go,650.0,550.0,1.0,,,,,,,,,yellow,hexagon
0.0,1.0,1.0,0.0,5.0,5.0,847.3261589997492,8.0,1.0,phase_2,go,650.0,550.0,1.0,,,,,,,,,gray,diamond
0.0,3.0,3.0,0.0,6.0,6.0,794.275555999775,8.0,1.0,phase_2,go,650.0,550.0,1.0,,,,,,,,,magenta,I
0.0,4.0,4.0,0.0,6.0,6.0,649.1354119998505,8.0,1.0,phase_2,go,650.0,550.0,1.0,,,,,,,,,cyan,cross
0.0,4.0,4.0,0.0,6.0,6.0,657.2515210000347,8.0,1.0,phase_2,go,650.0,550.0,1.0,,,,,,,,,cyan,cross
0.0,4.0,4.0,0.0,5.0,5.0,765.5373380002857,8.0,1.0,phase_2,go,650.0,550.0,1.0,,,,,,,,,cyan,cross
0.0,2.0,2.0,0.0,5.0,5.0,798.6681739998858,8.0,1.0,phase_2,go,650.0,550.0,1.0,,,,,,,,,green,circle
0.0,8.0,4.0,1.0,7.0,5.0,2140.973344000031,1.0,1.0,phase_3,,,,,220.0,5.0,132.0,88.0,176.0,264.0,220.0,44.0,yellow,hexagon
0.0,7.0,3.0,1.0,7.0,6.0,3929.043989000093,1.0,1.0,phase_3,,,,,39.0,1.0,156.0,234.0,117.0,195.0,78.0,39.0,white,square
0.0,5.0,1.0,1.0,7.0,2.0,2211.218155000097,1.0,1.0,phase_3,,,,,162.0,3.0,108.0,162.0,54.0,216.0,270.0,324.0,blue,triangle
0.0,3.0,3.0,0.0,7.0,2.0,3321.9112419997145,1.0,1.0,phase_3,,,,,220.0,5.0,88.0,220.0,176.0,264.0,132.0,44.0,magenta,I
0.0,1.0,1.0,0.0,7.0,2.0,3756.5148409998974,1.0,1.0,phase_3,,,,,234.0,6.0,156.0,234.0,195.0,78.0,117.0,39.0,gray,diamond
0.0,6.0,2.0,1.0,7.0,5.0,2943.9802530000634,1.0,1.0,phase_3,,,,,117.0,3.0,78.0,195.0,39.0,234.0,117.0,156.0,orange,flipped triangle
0.0,5.0,1.0,1.0,7.0,6.0,575.1481020001847,1.0,2.0,phase_3,,,,,108.0,2.0,216.0,54.0,162.0,324.0,270.0,108.0,blue,triangle
0.0,2.0,2.0,0.0,7.0,2.0,2312.8719960000126,1.0,1.0,phase_3,,,,,195.0,5.0,234.0,195.0,78.0,117.0,156.0,39.0,green,circle
0.0,2.0,2.0,0.0,7.0,5.0,2346.9091250003657,1.0,1.0,phase_3,,,,,264.0,6.0,88.0,44.0,132.0,176.0,264.0,220.0,green,circle
0.0,1.0,1.0,0.0,7.0,2.0,1570.0776759999826,1.0,1.0,phase_3,,,,,176.0,4.0,44.0,176.0,220.0,88.0,132.0,264.0,gray,diamond
0.0,3.0,3.0,0.0,7.0,6.0,1085.767628999747,1.0,1.0,phase_3,,,,,136.0,4.0,34.0,170.0,102.0,68.0,204.0,136.0,magenta,I
0.0,3.0,3.0,0.0,7.0,6.0,1783.7666549999085,1.0,1.0,phase_3,,,,,196.0,4.0,98.0,294.0,147.0,49.0,245.0,196.0,magenta,I
0.0,4.0,4.0,0.0,7.0,4.0,1902.7674019998813,1.0,1.0,phase_3,,,,,176.0,4.0,264.0,44.0,220.0,176.0,88.0,132.0,cyan,cross
0.0,6.0,2.0,1.0,7.0,3.0,1887.147826999808,1.0,1.0,phase_3,,,,,204.0,6.0,136.0,34.0,204.0,170.0,68.0,102.0,orange,flipped triangle
0.0,5.0,1.0,1.0,7.0,1.0,1969.720454000253,1.0,1.0,phase_3,,,,,196.0,4.0,196.0,147.0,245.0,294.0,98.0,49.0,blue,triangle
0.0,2.0,2.0,0.0,7.0,4.0,1868.703873999948,1.0,1.0,phase_3,,,,,195.0,5.0,234.0,117.0,39.0,195.0,156.0,78.0,green,circle
0.0,1.0,1.0,0.0,7.0,1.0,2667.5759750000907,1.0,1.0,phase_3,,,,,162.0,3.0,162.0,324.0,216.0,108.0,54.0,270.0,gray,diamond
0.0,5.0,1.0,1.0,7.0,4.0,1845.312979000028,1.0,1.0,phase_3,,,,,195.0,5.0,117.0,156.0,78.0,195.0,39.0,234.0,blue,triangle
0.0,1.0,1.0,0.0,7.0,6.0,1578.1246840001586,1.0,1.0,phase_3,,,,,170.0,5.0,68.0,102.0,34.0,204.0,136.0,170.0,gray,diamond
0.0,8.0,4.0,1.0,7.0,6.0,1867.2822210000961,1.0,1.0,phase_3,,,,,34.0,1.0,68.0,136.0,170.0,102.0,204.0,34.0,yellow,hexagon
0.0,1.0,1.0,0.0,7.0,4.0,2342.2317790000307,2.0,1.0,phase_3,,,,,176.0,4.0,220.0,44.0,264.0,176.0,132.0,88.0,gray,diamond
0.0,7.0,3.0,1.0,7.0,6.0,1494.528131000152,2.0,1.0,phase_3,,,,,245.0,5.0,147.0,294.0,98.0,196.0,49.0,245.0,white,square
0.0,6.0,2.0,1.0,7.0,1.0,1138.150683999811,2.0,1.0,phase_3,,,,,294.0,6.0,294.0,98.0,245.0,147.0,49.0,196.0,orange,flipped triangle
0.0,2.0,2.0,0.0,7.0,2.0,1817.413278000004,2.0,1.0,phase_3,,,,,147.0,3.0,245.0,147.0,294.0,196.0,98.0,49.0,green,circle
0.0,7.0,3.0,1.0,7.0,3.0,2708.37561999997,2.0,1.0,phase_3,,,,,264.0,6.0,132.0,176.0,264.0,44.0,220.0,88.0,white,square
0.0,1.0,1.0,0.0,7.0,5.0,1884.795975000088,2.0,1.0,phase_3,,,,,204.0,6.0,34.0,170.0,102.0,68.0,204.0,136.0,gray,diamond
0.0,5.0,1.0,1.0,7.0,3.0,1543.8588669999262,2.0,1.0,phase_3,,,,,132.0,3.0,176.0,264.0,132.0,44.0,220.0,88.0,blue,triangle
0.0,4.0,4.0,0.0,7.0,2.0,2559.0001209998263,2.0,1.0,phase_3,,,,,98.0,2.0,294.0,98.0,147.0,245.0,49.0,196.0,cyan,cross
0.0,5.0,1.0,1.0,7.0,6.0,1569.4611779999832,2.0,1.0,phase_3,,,,,136.0,4.0,102.0,34.0,170.0,204.0,68.0,136.0,blue,triangle
0.0,3.0,3.0,0.0,7.0,1.0,2425.602963000074,2.0,1.0,phase_3,,,,,324.0,6.0,324.0,270.0,108.0,162.0,216.0,54.0,magenta,I
0.0,3.0,3.0,0.0,7.0,4.0,2277.3582279996845,2.0,1.0,phase_3,,,,,245.0,5.0,147.0,294.0,196.0,245.0,49.0,98.0,magenta,I
0.0,2.0,2.0,0.0,7.0,6.0,2102.7090749998933,2.0,1.0,phase_3,,,,,264.0,6.0,176.0,88.0,44.0,220.0,132.0,264.0,green,circle
0.0,8.0,4.0,1.0,7.0,4.0,1360.037315000227,2.0,1.0,phase_3,,,,,49.0,1.0,294.0,98.0,245.0,49.0,196.0,147.0,yellow,hexagon
0.0,4.0,4.0,0.0,7.0,6.0,1726.158201000089,2.0,1.0,phase_3,,,,,162.0,3.0,324.0,108.0,54.0,216.0,270.0,162.0,cyan,cross
0.0,1.0,1.0,0.0,7.0,6.0,2170.990362999873,2.0,1.0,phase_3,,,,,147.0,3.0,294.0,196.0,98.0,49.0,245.0,147.0,gray,diamond
0.0,1.0,1.0,0.0,7.0,5.0,1660.0451819999762,2.0,1.0,phase_3,,,,,147.0,3.0,49.0,294.0,98.0,245.0,147.0,196.0,gray,diamond
0.0,8.0,4.0,1.0,7.0,3.0,1586.394086999917,2.0,1.0,phase_3,,,,,78.0,2.0,195.0,117.0,78.0,39.0,234.0,156.0,yellow,hexagon
0.0,7.0,3.0,1.0,7.0,6.0,1631.7030380000688,2.0,1.0,phase_3,,,,,54.0,1.0,162.0,216.0,270.0,324.0,108.0,54.0,white,square
0.0,5.0,1.0,1.0,7.0,5.0,2181.487694000225,2.0,1.0,phase_3,,,,,136.0,4.0,170.0,102.0,68.0,34.0,136.0,204.0,blue,triangle
0.0,8.0,4.0,1.0,7.0,6.0,2070.509976999801,2.0,1.0,phase_3,,,,,44.0,1.0,220.0,264.0,88.0,132.0,176.0,44.0,yellow,hexagon
0.0,3.0,3.0,0.0,7.0,5.0,1971.2713060002895,3.0,1.0,phase_3,,,,,132.0,3.0,88.0,44.0,176.0,264.0,132.0,220.0,magenta,I
0.0,2.0,2.0,0.0,7.0,4.0,1932.2831590002352,3.0,1.0,phase_3,,,,,294.0,6.0,49.0,196.0,98.0,294.0,147.0,245.0,green,circle
0.0,4.0,4.0,0.0,7.0,6.0,2056.606207999721,3.0,1.0,phase_3,,,,,195.0,5.0,117.0,39.0,234.0,156.0,78.0,195.0,cyan,cross
0.0,7.0,3.0,1.0,7.0,1.0,1721.4788209998917,3.0,1.0,phase_3,,,,,220.0,5.0,220.0,132.0,88.0,176.0,44.0,264.0,white,square
0.0,1.0,1.0,0.0,7.0,4.0,1895.6267339999613,3.0,1.0,phase_3,,,,,162.0,3.0,216.0,108.0,54.0,162.0,324.0,270.0,gray,diamond
0.0,6.0,2.0,1.0,7.0,4.0,1988.5713640001088,3.0,1.0,phase_3,,,,,245.0,5.0,294.0,98.0,196.0,245.0,147.0,49.0,orange,flipped triangle
0.0,6.0,2.0,1.0,7.0,2.0,2084.3689009998343,3.0,1.0,phase_3,,,,,264.0,6.0,132.0,264.0,88.0,176.0,220.0,44.0,orange,flipped triangle
0.0,3.0,3.0,0.0,7.0,2.0,2189.803429000221,3.0,1.0,phase_3,,,,,195.0,5.0,156.0,195.0,39.0,117.0,234.0,78.0,magenta,I
0.0,4.0,4.0,0.0,7.0,4.0,1814.2568650000608,3.0,1.0,phase_3,,,,,156.0,4.0,195.0,39.0,117.0,156.0,234.0,78.0,cyan,cross
0.0,6.0,2.0,1.0,7.0,5.0,1480.465968000317,3.0,1.0,phase_3,,,,,324.0,6.0,270.0,216.0,162.0,54.0,324.0,108.0,orange,flipped triangle
0.0,2.0,2.0,0.0,7.0,6.0,2360.7787609998923,3.0,1.0,phase_3,,,,,162.0,3.0,324.0,108.0,54.0,270.0,216.0,162.0,green,circle
0.0,5.0,1.0,1.0,7.0,1.0,2139.1927730001044,3.0,1.0,phase_3,,,,,117.0,3.0,117.0,78.0,195.0,39.0,156.0,234.0,blue,triangle
0.0,8.0,4.0,1.0,7.0,1.0,1699.1887630001656,3.0,1.0,phase_3,,,,,39.0,1.0,39.0,117.0,156.0,78.0,234.0,195.0,yellow,hexagon
0.0,6.0,2.0,1.0,7.0,6.0,2454.107763000138,3.0,1.0,phase_3,,,,,204.0,6.0,68.0,170.0,136.0,102.0,34.0,204.0,orange,flipped triangle
0.0,6.0,2.0,1.0,7.0,6.0,1888.925448000009,3.0,1.0,phase_3,,,,,234.0,6.0,39.0,117.0,195.0,156.0,78.0,234.0,orange,flipped triangle
0.0,4.0,4.0,0.0,7.0,4.0,2088.559281000016,3.0,1.0,phase_3,,,,,147.0,3.0,49.0,196.0,245.0,147.0,294.0,98.0,cyan,cross
0.0,4.0,4.0,0.0,7.0,4.0,2386.622166000052,3.0,1.0,phase_3,,,,,176.0,4.0,220.0,44.0,88.0,176.0,264.0,132.0,cyan,cross
0.0,4.0,4.0,0.0,7.0,5.0,2075.855636999677,3.0,1.0,phase_3,,,,,170.0,5.0,136.0,204.0,34.0,102.0,170.0,68.0,cyan,cross
0.0,1.0,1.0,0.0,7.0,4.0,2005.4043479999564,3.0,1.0,phase_3,,,,,195.0,5.0,156.0,78.0,234.0,195.0,117.0,39.0,gray,diamond
0.0,2.0,2.0,0.0,7.0,6.0,2104.4538069995724,3.0,1.0,phase_3,,,,,204.0,6.0,68.0,170.0,136.0,102.0,34.0,204.0,green,circle
0.0,3.0,3.0,0.0,7.0,4.0,1302.281111999946,4.0,1.0,phase_3,,,,,204.0,6.0,170.0,68.0,136.0,204.0,34.0,102.0,magenta,I
0.0,2.0,2.0,0.0,7.0,1.0,1721.8292269999438,4.0,1.0,phase_3,,,,,270.0,5.0,270.0,54.0,216.0,324.0,162.0,108.0,green,circle
0.0,7.0,3.0,1.0,7.0,2.0,1753.5756160000346,4.0,1.0,phase_3,,,,,136.0,4.0,170.0,136.0,102.0,34.0,68.0,204.0,white,square
0.0,5.0,1.0,1.0,7.0,5.0,2402.5572949999514,4.0,1.0,phase_3,,,,,176.0,4.0,132.0,44.0,264.0,220.0,176.0,88.0,blue,triangle
0.0,7.0,3.0,1.0,7.0,4.0,2853.959811000095,4.0,1.0,phase_3,,,,,136.0,4.0,170.0,68.0,102.0,136.0,34.0,204.0,white,square
0.0,8.0,4.0,1.0,7.0,3.0,2040.9425070001816,4.0,1.0,phase_3,,,,,54.0,1.0,324.0,270.0,54.0,216.0,108.0,162.0,yellow,hexagon
0.0,5.0,1.0,1.0,7.0,3.0,2247.142518000146,4.0,1.0,phase_3,,,,,98.0,2.0,245.0,147.0,98.0,196.0,294.0,49.0,blue,triangle
0.0,6.0,2.0,1.0,7.0,2.0,1705.8698740002,4.0,1.0,phase_3,,,,,264.0,6.0,44.0,264.0,88.0,132.0,176.0,220.0,orange,flipped triangle
0.0,4.0,4.0,0.0,7.0,5.0,1657.190790000186,4.0,1.0,phase_3,,,,,170.0,5.0,204.0,34.0,136.0,102.0,170.0,68.0,cyan,cross
0.0,4.0,4.0,0.0,7.0,4.0,1914.8435010001776,4.0,1.0,phase_3,,,,,162.0,3.0,216.0,270.0,108.0,162.0,54.0,324.0,cyan,cross
0.0,6.0,2.0,1.0,7.0,3.0,2029.998027000147,4.0,1.0,phase_3,,,,,270.0,5.0,162.0,216.0,270.0,108.0,324.0,54.0,orange,flipped triangle
0.0,8.0,4.0,1.0,7.0,4.0,1640.272859000106,4.0,1.0,phase_3,,,,,54.0,1.0,162.0,216.0,108.0,54.0,270.0,324.0,yellow,hexagon
0.0,3.0,3.0,0.0,7.0,5.0,2073.4824759997537,4.0,1.0,phase_3,,,,,162.0,3.0,216.0,54.0,108.0,270.0,162.0,324.0,magenta,I
0.0,7.0,3.0,1.0,7.0,6.0,1532.0260280000184,4.0,1.0,phase_3,,,,,156.0,4.0,195.0,78.0,39.0,234.0,117.0,156.0,white,square
0.0,8.0,4.0,1.0,7.0,6.0,1649.9254609998388,4.0,1.0,phase_3,,,,,49.0,1.0,196.0,294.0,98.0,245.0,147.0,49.0,yellow,hexagon
0.0,7.0,3.0,1.0,7.0,1.0,2301.2267940002857,4.0,1.0,phase_3,,,,,108.0,2.0,108.0,324.0,270.0,54.0,216.0,162.0,white,square
0.0,2.0,2.0,0.0,7.0,1.0,2399.372983000376,4.0,1.0,phase_3,,,,,170.0,5.0,170.0,68.0,204.0,136.0,102.0,34.0,green,circle
0.0,7.0,3.0,1.0,7.0,4.0,2648.8323789999413,4.0,1.0,phase_3,,,,,196.0,4.0,147.0,98.0,294.0,196.0,245.0,49.0,white,square
0.0,8.0,4.0,1.0,7.0,5.0,1993.1064420002256,4.0,1.0,phase_3,,,,,34.0,1.0,170.0,136.0,204.0,102.0,34.0,68.0,yellow,hexagon
0.0,3.0,3.0,0.0,7.0,5.0,2115.5136370002765,4.0,1.0,phase_3,,,,,39.0,1.0,234.0,117.0,195.0,156.0,39.0,78.0,magenta,I
