raw_reward_magnitude,stim_reward,stepwise_reward_magnitude,paired_with_stopping,stim_location,response,reaction_time,block,num_trial_presentations,which_phase,stop_signal_trial_type,left_SSD,right_SSD,accuracy,chosen_bidding_amount,chosen_bidding_level,possible_bid_1,possible_bid_2,possible_bid_3,possible_bid_4,possible_bid_5,possible_bid_6,color_text,shape_text
0.0,5.0,0.0,1.0,3.0,3.0,291.5779209997708,1.0,1.0,phase_1,,,,,,,,,,,,,green,cross
27.0,5.0,1.0,1.0,2.0,2.0,336.662644000171,1.0,1.0,phase_1,,,,,,,,,,,,,green,cross
28.0,5.0,1.0,1.0,4.0,4.0,295.3951069994218,1.0,1.0,phase_1,,,,,,,,,,,,,green,cross
37.0,1.0,1.0,0.0,2.0,2.0,365.2388000009523,1.0,1.0,phase_1,,,,,,,,,,,,,yellow,circle
117.0,6.0,2.0,1.0,1.0,1.0,329.258880999987,1.0,1.0,phase_1,,,,,,,,,,,,,magenta,flipped triangle
113.0,2.0,2.0,0.0,1.0,1.0,324.1975659984746,1.0,1.0,phase_1,,,,,,,,,,,,,gray,triangle
425.0,8.0,4.0,1.0,3.0,3.0,297.7390619998914,1.0,1.0,phase_1,,,,,,,,,,,,,white,hexagon
41.0,1.0,1.0,0.0,4.0,4.0,270.5862149996392,1.0,1.0,phase_1,,,,,,,,,,,,,yellow,circle
43.0,1.0,1.0,0.0,2.0,2.0,284.0304290002677,1.0,1.0,phase_1,,,,,,,,,,,,,yellow,circle
95.0,6.0,2.0,1.0,1.0,1.0,279.30310299962,1.0,1.0,phase_1,,,,,,,,,,,,,magenta,flipped triangle
213.0,3.0,3.0,0.0,2.0,2.0,364.5211929997458,1.0,1.0,phase_1,,,,,,,,,,,,,cyan,I
400.0,4.0,4.0,0.0,4.0,4.0,279.4390300005034,1.0,1.0,phase_1,,,,,,,,,,,,,blue,diamond
203.0,3.0,3.0,0.0,3.0,3.0,439.4951760004915,1.0,1.0,phase_1,,,,,,,,,,,,,cyan,I
117.0,6.0,2.0,1.0,2.0,2.0,299.2088760001934,1.0,1.0,phase_1,,,,,,,,,,,,,magenta,flipped triangle
0.0,8.0,0.0,1.0,4.0,4.0,296.2705009995261,1.0,1.0,phase_1,,,,,,,,,,,,,white,hexagon
0.0,6.0,0.0,1.0,4.0,4.0,356.5773360005551,1.0,1.0,phase_1,,,,,,,,,,,,,magenta,flipped triangle
203.0,3.0,3.0,0.0,4.0,4.0,271.3822509995225,1.0,1.0,phase_1,,,,,,,,,,,,,cyan,I
110.0,6.0,2.0,1.0,1.0,1.0,263.5017499997047,1.0,1.0,phase_1,,,,,,,,,,,,,magenta,flipped triangle
78.0,6.0,2.0,1.0,4.0,4.0,259.0723140001501,1.0,1.0,phase_1,,,,,,,,,,,,,magenta,flipped triangle
225.0,3.0,3.0,0.0,1.0,1.0,247.7487289997952,1.0,1.0,phase_1,,,,,,,,,,,,,cyan,I
110.0,2.0,2.0,0.0,3.0,3.0,275.7637909999175,1.0,1.0,phase_1,,,,,,,,,,,,,gray,triangle
413.0,8.0,4.0,1.0,1.0,1.0,262.9968180008291,1.0,1.0,phase_1,,,,,,,,,,,,,white,hexagon
62.0,1.0,1.0,0.0,4.0,4.0,237.8593590001401,1.0,1.0,phase_1,,,,,,,,,,,,,yellow,circle
0.0,7.0,0.0,1.0,3.0,3.0,287.6712230008706,1.0,1.0,phase_1,,,,,,,,,,,,,orange,square
47.0,1.0,1.0,0.0,3.0,3.0,462.4724090008385,1.0,1.0,phase_1,,,,,,,,,,,,,yellow,circle
396.0,8.0,4.0,1.0,4.0,4.0,377.6155770010518,1.0,1.0,phase_1,,,,,,,,,,,,,white,hexagon
60.0,1.0,1.0,0.0,1.0,1.0,277.8079130002879,1.0,1.0,phase_1,,,,,,,,,,,,,yellow,circle
183.0,3.0,3.0,0.0,2.0,2.0,307.751422000365,1.0,1.0,phase_1,,,,,,,,,,,,,cyan,I
0.0,5.0,0.0,1.0,1.0,1.0,387.607789998583,1.0,2.0,phase_1,,,,,,,,,,,,,green,cross
212.0,3.0,3.0,0.0,1.0,1.0,360.0821419986459,1.0,1.0,phase_1,,,,,,,,,,,,,cyan,I
0.0,3.0,0.0,0.0,4.0,4.0,308.8692619985522,1.0,1.0,phase_1,,,,,,,,,,,,,cyan,I
177.0,3.0,3.0,0.0,1.0,1.0,309.7616840004775,1.0,1.0,phase_1,,,,,,,,,,,,,cyan,I
0.0,2.0,0.0,0.0,2.0,2.0,329.5649380015675,1.0,1.0,phase_1,,,,,,,,,,,,,gray,triangle
106.0,2.0,2.0,0.0,2.0,2.0,362.9531120004685,1.0,1.0,phase_1,,,,,,,,,,,,,gray,triangle
175.0,3.0,3.0,0.0,1.0,1.0,264.5085780004592,1.0,1.0,phase_1,,,,,,,,,,,,,cyan,I
390.0,4.0,4.0,0.0,3.0,3.0,309.156470999369,1.0,1.0,phase_1,,,,,,,,,,,,,blue,diamond
123.0,2.0,2.0,0.0,2.0,2.0,305.4393760012317,1.0,1.0,phase_1,,,,,,,,,,,,,gray,triangle
49.0,5.0,1.0,1.0,4.0,4.0,313.8892260012653,1.0,1.0,phase_1,,,,,,,,,,,,,green,cross
403.0,4.0,4.0,0.0,1.0,1.0,270.1330480012984,1.0,1.0,phase_1,,,,,,,,,,,,,blue,diamond
47.0,1.0,1.0,0.0,1.0,1.0,370.7804220011894,1.0,1.0,phase_1,,,,,,,,,,,,,yellow,circle
0.0,7.0,0.0,1.0,4.0,4.0,399.4696249992557,1.0,1.0,phase_1,,,,,,,,,,,,,orange,square
387.0,8.0,4.0,1.0,2.0,2.0,401.3948249994428,1.0,1.0,phase_1,,,,,,,,,,,,,white,hexagon
98.0,6.0,2.0,1.0,4.0,4.0,433.2582200004253,1.0,1.0,phase_1,,,,,,,,,,,,,magenta,flipped triangle
0.0,6.0,0.0,1.0,3.0,3.0,381.5436460008641,1.0,1.0,phase_1,,,,,,,,,,,,,magenta,flipped triangle
60.0,5.0,1.0,1.0,3.0,3.0,351.7435090016079,1.0,1.0,phase_1,,,,,,,,,,,,,green,cross
0.0,2.0,0.0,0.0,4.0,4.0,372.1805339991988,1.0,1.0,phase_1,,,,,,,,,,,,,gray,triangle
224.0,3.0,3.0,0.0,4.0,4.0,315.1309460008633,1.0,1.0,phase_1,,,,,,,,,,,,,cyan,I
123.0,6.0,2.0,1.0,4.0,4.0,429.4440609992307,1.0,1.0,phase_1,,,,,,,,,,,,,magenta,flipped triangle
0.0,2.0,0.0,0.0,1.0,1.0,340.0682530009362,1.0,1.0,phase_1,,,,,,,,,,,,,gray,triangle
390.0,8.0,4.0,1.0,2.0,2.0,352.0841169993218,1.0,1.0,phase_1,,,,,,,,,,,,,white,hexagon
78.0,2.0,2.0,0.0,1.0,1.0,366.9169869990583,1.0,1.0,phase_1,,,,,,,,,,,,,gray,triangle
400.0,8.0,4.0,1.0,2.0,2.0,400.5862370013346,1.0,1.0,phase_1,,,,,,,,,,,,,white,hexagon
83.0,6.0,2.0,1.0,1.0,1.0,335.1674800014734,1.0,1.0,phase_1,,,,,,,,,,,,,magenta,flipped triangle
66.0,5.0,1.0,1.0,4.0,4.0,324.9828899988642,1.0,1.0,phase_1,,,,,,,,,,,,,green,cross
42.0,1.0,1.0,0.0,1.0,1.0,278.4163289998105,1.0,1.0,phase_1,,,,,,,,,,,,,yellow,circle
203.0,3.0,3.0,0.0,4.0,4.0,322.8330950005329,1.0,1.0,phase_1,,,,,,,,,,,,,cyan,I
124.0,2.0,2.0,0.0,4.0,4.0,385.1814540012128,1.0,1.0,phase_1,,,,,,,,,,,,,gray,triangle
414.0,8.0,4.0,1.0,4.0,4.0,326.2296440007048,1.0,1.0,phase_1,,,,,,,,,,,,,white,hexagon
66.0,1.0,1.0,0.0,1.0,1.0,288.3616899998742,1.0,1.0,phase_1,,,,,,,,,,,,,yellow,circle
207.0,3.0,3.0,0.0,3.0,3.0,310.9368189998349,1.0,1.0,phase_1,,,,,,,,,,,,,cyan,I
189.0,3.0,3.0,0.0,3.0,3.0,348.1647789994895,1.0,1.0,phase_1,,,,,,,,,,,,,cyan,I
113.0,6.0,2.0,1.0,3.0,3.0,353.2009680002375,1.0,1.0,phase_1,,,,,,,,,,,,,magenta,flipped triangle
0.0,6.0,0.0,1.0,2.0,2.0,422.7625870007614,1.0,1.0,phase_1,,,,,,,,,,,,,magenta,flipped triangle
96.0,6.0,2.0,1.0,1.0,1.0,378.9396590000251,1.0,1.0,phase_1,,,,,,,,,,,,,magenta,flipped triangle
44.0,1.0,1.0,0.0,1.0,1.0,383.0186840004899,1.0,1.0,phase_1,,,,,,,,,,,,,yellow,circle
0.0,8.0,0.0,1.0,1.0,1.0,331.6393510012858,1.0,1.0,phase_1,,,,,,,,,,,,,white,hexagon
68.0,5.0,1.0,1.0,2.0,2.0,351.5786909993039,1.0,1.0,phase_1,,,,,,,,,,,,,green,cross
395.0,4.0,4.0,0.0,2.0,2.0,326.1165359999722,1.0,1.0,phase_1,,,,,,,,,,,,,blue,diamond
376.0,4.0,4.0,0.0,2.0,2.0,416.9005429994286,1.0,1.0,phase_1,,,,,,,,,,,,,blue,diamond
392.0,4.0,4.0,0.0,4.0,4.0,350.2014160003455,1.0,1.0,phase_1,,,,,,,,,,,,,blue,diamond
175.0,7.0,3.0,1.0,2.0,2.0,312.7314339999429,1.0,1.0,phase_1,,,,,,,,,,,,,orange,square
112.0,6.0,2.0,1.0,3.0,3.0,376.4297020006779,1.0,1.0,phase_1,,,,,,,,,,,,,magenta,flipped triangle
0.0,8.0,0.0,1.0,2.0,2.0,298.9961719995335,1.0,1.0,phase_1,,,,,,,,,,,,,white,hexagon
42.0,1.0,1.0,0.0,4.0,4.0,367.6574820001406,1.0,1.0,phase_1,,,,,,,,,,,,,yellow,circle
98.0,2.0,2.0,0.0,2.0,2.0,348.127425999337,1.0,1.0,phase_1,,,,,,,,,,,,,gray,triangle
37.0,5.0,1.0,1.0,2.0,2.0,456.1236259996803,1.0,1.0,phase_1,,,,,,,,,,,,,green,cross
113.0,6.0,2.0,1.0,3.0,3.0,325.3007260009326,1.0,1.0,phase_1,,,,,,,,,,,,,magenta,flipped triangle
0.0,4.0,0.0,0.0,3.0,3.0,346.0255329991923,1.0,1.0,phase_1,,,,,,,,,,,,,blue,diamond
175.0,3.0,3.0,0.0,3.0,3.0,329.6686180001416,1.0,1.0,phase_1,,,,,,,,,,,,,cyan,I
376.0,8.0,4.0,1.0,3.0,3.0,356.8051290003495,1.0,1.0,phase_1,,,,,,,,,,,,,white,hexagon
214.0,3.0,3.0,0.0,1.0,1.0,257.5913009986834,1.0,1.0,phase_1,,,,,,,,,,,,,cyan,I
0.0,4.0,0.0,0.0,2.0,2.0,388.1631690001086,1.0,1.0,phase_1,,,,,,,,,,,,,blue,diamond
100.0,2.0,2.0,0.0,4.0,4.0,355.4212449998886,1.0,1.0,phase_1,,,,,,,,,,,,,gray,triangle
44.0,1.0,1.0,0.0,1.0,1.0,277.6016040006652,1.0,1.0,phase_1,,,,,,,,,,,,,yellow,circle
209.0,3.0,3.0,0.0,3.0,3.0,355.8176470014587,1.0,1.0,phase_1,,,,,,,,,,,,,cyan,I
422.0,8.0,4.0,1.0,2.0,2.0,271.5041770006792,1.0,1.0,phase_1,,,,,,,,,,,,,white,hexagon
215.0,7.0,3.0,1.0,1.0,1.0,278.4807900006854,1.0,1.0,phase_1,,,,,,,,,,,,,orange,square
0.0,7.0,0.0,1.0,2.0,2.0,322.9481260004831,1.0,1.0,phase_1,,,,,,,,,,,,,orange,square
106.0,6.0,2.0,1.0,3.0,3.0,317.8146739992371,1.0,1.0,phase_1,,,,,,,,,,,,,magenta,flipped triangle
390.0,8.0,4.0,1.0,3.0,3.0,330.1277529990329,1.0,1.0,phase_1,,,,,,,,,,,,,white,hexagon
79.0,2.0,2.0,0.0,3.0,3.0,408.8835960010328,1.0,1.0,phase_1,,,,,,,,,,,,,gray,triangle
424.0,4.0,4.0,0.0,4.0,4.0,437.4182739993557,1.0,1.0,phase_1,,,,,,,,,,,,,blue,diamond
422.0,4.0,4.0,0.0,1.0,1.0,295.5592109992722,1.0,1.0,phase_1,,,,,,,,,,,,,blue,diamond
386.0,4.0,4.0,0.0,3.0,3.0,448.5272580004675,1.0,1.0,phase_1,,,,,,,,,,,,,blue,diamond
176.0,7.0,3.0,1.0,1.0,1.0,299.6647130003111,1.0,1.0,phase_1,,,,,,,,,,,,,orange,square
184.0,7.0,3.0,1.0,1.0,1.0,319.8681179983396,1.0,1.0,phase_1,,,,,,,,,,,,,orange,square
54.0,1.0,1.0,0.0,2.0,2.0,346.42563200031867,1.0,1.0,phase_1,,,,,,,,,,,,,yellow,circle
378.0,8.0,4.0,1.0,2.0,2.0,343.8552990010066,1.0,1.0,phase_1,,,,,,,,,,,,,white,hexagon
0.0,1.0,0.0,0.0,1.0,1.0,317.9922390008869,1.0,1.0,phase_1,,,,,,,,,,,,,yellow,circle
191.0,7.0,3.0,1.0,1.0,1.0,361.5756390008755,1.0,1.0,phase_1,,,,,,,,,,,,,orange,square
0.0,5.0,0.0,1.0,3.0,3.0,316.9130699989182,2.0,1.0,phase_1,,,,,,,,,,,,,green,cross
424.0,8.0,4.0,1.0,4.0,4.0,297.5588949993835,2.0,1.0,phase_1,,,,,,,,,,,,,white,hexagon
62.0,1.0,1.0,0.0,1.0,1.0,302.9216140002972,2.0,1.0,phase_1,,,,,,,,,,,,,yellow,circle
0.0,7.0,0.0,1.0,1.0,1.0,368.83092700009,2.0,1.0,phase_1,,,,,,,,,,,,,orange,square
95.0,2.0,2.0,0.0,1.0,1.0,295.6236710015218,2.0,1.0,phase_1,,,,,,,,,,,,,gray,triangle
400.0,8.0,4.0,1.0,1.0,1.0,258.8555670008645,2.0,1.0,phase_1,,,,,,,,,,,,,white,hexagon
0.0,7.0,0.0,1.0,1.0,1.0,314.4755009998334,2.0,1.0,phase_1,,,,,,,,,,,,,orange,square
378.0,4.0,4.0,0.0,3.0,3.0,351.8312529995455,2.0,1.0,phase_1,,,,,,,,,,,,,blue,diamond
106.0,2.0,2.0,0.0,3.0,3.0,380.4821289995743,2.0,1.0,phase_1,,,,,,,,,,,,,gray,triangle
402.0,8.0,4.0,1.0,3.0,3.0,350.6336819991702,2.0,1.0,phase_1,,,,,,,,,,,,,white,hexagon
73.0,1.0,1.0,0.0,2.0,2.0,347.2602220008411,2.0,1.0,phase_1,,,,,,,,,,,,,yellow,circle
0.0,5.0,0.0,1.0,2.0,2.0,384.8184630005562,2.0,1.0,phase_1,,,,,,,,,,,,,green,cross
117.0,2.0,2.0,0.0,3.0,3.0,380.1177959994675,2.0,1.0,phase_1,,,,,,,,,,,,,gray,triangle
30.0,1.0,1.0,0.0,3.0,3.0,343.8057240000489,2.0,1.0,phase_1,,,,,,,,,,,,,yellow,circle
384.0,8.0,4.0,1.0,4.0,4.0,396.3917289984238,2.0,1.0,phase_1,,,,,,,,,,,,,white,hexagon
197.0,3.0,3.0,0.0,3.0,3.0,340.495184998872,2.0,1.0,phase_1,,,,,,,,,,,,,cyan,I
0.0,4.0,0.0,0.0,2.0,2.0,335.1857460002065,2.0,1.0,phase_1,,,,,,,,,,,,,blue,diamond
409.0,8.0,4.0,1.0,3.0,3.0,316.8172420009796,2.0,1.0,phase_1,,,,,,,,,,,,,white,hexagon
0.0,4.0,0.0,0.0,1.0,1.0,319.3522109995683,2.0,1.0,phase_1,,,,,,,,,,,,,blue,diamond
109.0,6.0,2.0,1.0,3.0,3.0,419.7489979997044,2.0,1.0,phase_1,,,,,,,,,,,,,magenta,flipped triangle
30.0,5.0,1.0,1.0,4.0,4.0,272.3814840010163,2.0,1.0,phase_1,,,,,,,,,,,,,green,cross
0.0,3.0,0.0,0.0,2.0,2.0,277.2202819996892,2.0,1.0,phase_1,,,,,,,,,,,,,cyan,I
0.0,3.0,0.0,0.0,4.0,4.0,397.8602730003331,2.0,1.0,phase_1,,,,,,,,,,,,,cyan,I
211.0,3.0,3.0,0.0,1.0,1.0,265.4604690014821,2.0,1.0,phase_1,,,,,,,,,,,,,cyan,I
33.0,1.0,1.0,0.0,4.0,4.0,260.9789809994254,2.0,1.0,phase_1,,,,,,,,,,,,,yellow,circle
62.0,5.0,1.0,1.0,2.0,2.0,321.9744170000922,2.0,1.0,phase_1,,,,,,,,,,,,,green,cross
0.0,8.0,0.0,1.0,3.0,3.0,280.7607560007454,2.0,1.0,phase_1,,,,,,,,,,,,,white,hexagon
54.0,5.0,1.0,1.0,3.0,3.0,322.0639479986857,2.0,1.0,phase_1,,,,,,,,,,,,,green,cross
202.0,7.0,3.0,1.0,3.0,3.0,334.1302680000808,2.0,1.0,phase_1,,,,,,,,,,,,,orange,square
183.0,7.0,3.0,1.0,4.0,4.0,270.6196070012083,2.0,1.0,phase_1,,,,,,,,,,,,,orange,square
62.0,5.0,1.0,1.0,3.0,3.0,282.4579989992344,2.0,1.0,phase_1,,,,,,,,,,,,,green,cross
203.0,7.0,3.0,1.0,2.0,2.0,317.162716999519,2.0,1.0,phase_1,,,,,,,,,,,,,orange,square
28.0,1.0,1.0,0.0,2.0,2.0,384.4908909995865,2.0,1.0,phase_1,,,,,,,,,,,,,yellow,circle
213.0,7.0,3.0,1.0,1.0,1.0,257.4314800003776,2.0,1.0,phase_1,,,,,,,,,,,,,orange,square
37.0,1.0,1.0,0.0,3.0,3.0,298.5946270000568,2.0,1.0,phase_1,,,,,,,,,,,,,yellow,circle
0.0,6.0,0.0,1.0,1.0,1.0,352.7553670010093,2.0,1.0,phase_1,,,,,,,,,,,,,magenta,flipped triangle
0.0,1.0,0.0,0.0,2.0,2.0,487.3966429986467,2.0,1.0,phase_1,,,,,,,,,,,,,yellow,circle
0.0,1.0,0.0,0.0,1.0,1.0,314.1366620002372,2.0,1.0,phase_1,,,,,,,,,,,,,yellow,circle
0.0,1.0,0.0,0.0,2.0,2.0,268.6688949997915,2.0,1.0,phase_1,,,,,,,,,,,,,yellow,circle
207.0,7.0,3.0,1.0,1.0,1.0,338.6124090011435,2.0,1.0,phase_1,,,,,,,,,,,,,orange,square
0.0,4.0,0.0,0.0,2.0,2.0,317.8617140001734,2.0,1.0,phase_1,,,,,,,,,,,,,blue,diamond
95.0,6.0,2.0,1.0,2.0,2.0,290.6726459987112,2.0,1.0,phase_1,,,,,,,,,,,,,magenta,flipped triangle
199.0,3.0,3.0,0.0,2.0,2.0,338.4921039996698,2.0,1.0,phase_1,,,,,,,,,,,,,cyan,I
37.0,5.0,1.0,1.0,3.0,3.0,293.2823559985991,2.0,1.0,phase_1,,,,,,,,,,,,,green,cross
76.0,2.0,2.0,0.0,3.0,3.0,314.4348949990672,2.0,1.0,phase_1,,,,,,,,,,,,,gray,triangle
0.0,3.0,0.0,0.0,1.0,1.0,326.5502210015256,2.0,1.0,phase_1,,,,,,,,,,,,,cyan,I
103.0,2.0,2.0,0.0,2.0,2.0,308.8127039991377,2.0,1.0,phase_1,,,,,,,,,,,,,gray,triangle
199.0,7.0,3.0,1.0,3.0,3.0,343.4662029994797,2.0,2.0,phase_1,,,,,,,,,,,,,orange,square
218.0,7.0,3.0,1.0,4.0,4.0,314.1915039996092,2.0,1.0,phase_1,,,,,,,,,,,,,orange,square
70.0,5.0,1.0,1.0,4.0,4.0,377.3096850000002,2.0,1.0,phase_1,,,,,,,,,,,,,green,cross
119.0,2.0,2.0,0.0,4.0,4.0,372.0783129992924,2.0,1.0,phase_1,,,,,,,,,,,,,gray,triangle
195.0,7.0,3.0,1.0,2.0,2.0,561.8057589999808,2.0,1.0,phase_1,,,,,,,,,,,,,orange,square
212.0,7.0,3.0,1.0,4.0,4.0,356.2715179996303,2.0,1.0,phase_1,,,,,,,,,,,,,orange,square
184.0,3.0,3.0,0.0,3.0,3.0,311.9458239998494,2.0,1.0,phase_1,,,,,,,,,,,,,cyan,I
59.0,5.0,1.0,1.0,4.0,4.0,404.3861219997779,2.0,1.0,phase_1,,,,,,,,,,,,,green,cross
381.0,4.0,4.0,0.0,3.0,3.0,337.2519509994163,2.0,1.0,phase_1,,,,,,,,,,,,,blue,diamond
175.0,3.0,3.0,0.0,3.0,3.0,418.0111150017183,2.0,1.0,phase_1,,,,,,,,,,,,,cyan,I
216.0,3.0,3.0,0.0,3.0,3.0,565.0150559995382,2.0,1.0,phase_1,,,,,,,,,,,,,cyan,I
79.0,2.0,2.0,0.0,4.0,4.0,424.9979359992721,2.0,1.0,phase_1,,,,,,,,,,,,,gray,triangle
395.0,8.0,4.0,1.0,4.0,4.0,404.1612280016124,2.0,1.0,phase_1,,,,,,,,,,,,,white,hexagon
382.0,4.0,4.0,0.0,1.0,1.0,377.8074479996576,2.0,1.0,phase_1,,,,,,,,,,,,,blue,diamond
94.0,6.0,2.0,1.0,4.0,4.0,341.2850629993045,2.0,1.0,phase_1,,,,,,,,,,,,,magenta,flipped triangle
209.0,7.0,3.0,1.0,1.0,1.0,355.7737939991057,2.0,1.0,phase_1,,,,,,,,,,,,,orange,square
0.0,2.0,0.0,0.0,4.0,4.0,298.3852720008144,2.0,1.0,phase_1,,,,,,,,,,,,,gray,triangle
0.0,1.0,0.0,0.0,1.0,1.0,358.2025499999872,2.0,1.0,phase_1,,,,,,,,,,,,,yellow,circle
100.0,2.0,2.0,0.0,3.0,3.0,322.3013979986717,2.0,1.0,phase_1,,,,,,,,,,,,,gray,triangle
0.0,6.0,0.0,1.0,4.0,4.0,295.1845600000524,2.0,1.0,phase_1,,,,,,,,,,,,,magenta,flipped triangle
192.0,7.0,3.0,1.0,3.0,3.0,364.6501210005226,2.0,1.0,phase_1,,,,,,,,,,,,,orange,square
423.0,8.0,4.0,1.0,1.0,1.0,306.0433909995481,2.0,1.0,phase_1,,,,,,,,,,,,,white,hexagon
103.0,6.0,2.0,1.0,2.0,2.0,331.1499160008679,2.0,1.0,phase_1,,,,,,,,,,,,,magenta,flipped triangle
395.0,4.0,4.0,0.0,3.0,3.0,264.381762000994,2.0,1.0,phase_1,,,,,,,,,,,,,blue,diamond
419.0,4.0,4.0,0.0,4.0,4.0,374.7569330007536,2.0,1.0,phase_1,,,,,,,,,,,,,blue,diamond
0.0,7.0,0.0,1.0,4.0,4.0,371.3438150007278,2.0,1.0,phase_1,,,,,,,,,,,,,orange,square
0.0,7.0,0.0,1.0,1.0,1.0,327.6140769994526,2.0,1.0,phase_1,,,,,,,,,,,,,orange,square
0.0,8.0,0.0,1.0,1.0,1.0,426.1227280003368,2.0,1.0,phase_1,,,,,,,,,,,,,white,hexagon
49.0,1.0,1.0,0.0,1.0,1.0,370.6946109996352,2.0,1.0,phase_1,,,,,,,,,,,,,yellow,circle
104.0,2.0,2.0,0.0,1.0,1.0,333.114781000404,2.0,1.0,phase_1,,,,,,,,,,,,,gray,triangle
181.0,7.0,3.0,1.0,2.0,2.0,474.7820699994918,2.0,1.0,phase_1,,,,,,,,,,,,,orange,square
88.0,2.0,2.0,0.0,2.0,2.0,476.754848001292,2.0,1.0,phase_1,,,,,,,,,,,,,gray,triangle
222.0,7.0,3.0,1.0,2.0,2.0,340.4083440000249,2.0,1.0,phase_1,,,,,,,,,,,,,orange,square
222.0,3.0,3.0,0.0,3.0,3.0,303.0507900002703,2.0,1.0,phase_1,,,,,,,,,,,,,cyan,I
69.0,1.0,1.0,0.0,3.0,3.0,347.5255060002382,2.0,1.0,phase_1,,,,,,,,,,,,,yellow,circle
70.0,1.0,1.0,0.0,2.0,2.0,367.9016170008253,2.0,1.0,phase_1,,,,,,,,,,,,,yellow,circle
0.0,6.0,0.0,1.0,3.0,3.0,280.308662000607,2.0,1.0,phase_1,,,,,,,,,,,,,magenta,flipped triangle
82.0,2.0,2.0,0.0,2.0,2.0,330.0674000001891,2.0,1.0,phase_1,,,,,,,,,,,,,gray,triangle
0.0,2.0,0.0,0.0,4.0,4.0,335.7495709988143,2.0,1.0,phase_1,,,,,,,,,,,,,gray,triangle
76.0,6.0,2.0,1.0,2.0,2.0,389.730099001099,2.0,1.0,phase_1,,,,,,,,,,,,,magenta,flipped triangle
66.0,5.0,1.0,1.0,2.0,2.0,360.297688999708,2.0,1.0,phase_1,,,,,,,,,,,,,green,cross
0.0,3.0,0.0,0.0,2.0,2.0,371.9865279999794,2.0,1.0,phase_1,,,,,,,,,,,,,cyan,I
419.0,8.0,4.0,1.0,3.0,3.0,395.6698949987185,2.0,1.0,phase_1,,,,,,,,,,,,,white,hexagon
59.0,5.0,1.0,1.0,4.0,4.0,393.24969900008,2.0,1.0,phase_1,,,,,,,,,,,,,green,cross
119.0,2.0,2.0,0.0,1.0,1.0,362.9326570007833,2.0,1.0,phase_1,,,,,,,,,,,,,gray,triangle
83.0,2.0,2.0,0.0,2.0,2.0,505.82028799908585,2.0,1.0,phase_1,,,,,,,,,,,,,gray,triangle
203.0,7.0,3.0,1.0,2.0,2.0,334.2336519999662,2.0,1.0,phase_1,,,,,,,,,,,,,orange,square
74.0,1.0,1.0,0.0,2.0,2.0,384.1886689988314,2.0,1.0,phase_1,,,,,,,,,,,,,yellow,circle
182.0,3.0,3.0,0.0,4.0,4.0,335.4970180007512,2.0,1.0,phase_1,,,,,,,,,,,,,cyan,I
380.0,4.0,4.0,0.0,2.0,2.0,339.1332840001269,2.0,1.0,phase_1,,,,,,,,,,,,,blue,diamond
197.0,3.0,3.0,0.0,2.0,2.0,342.9693250000127,2.0,1.0,phase_1,,,,,,,,,,,,,cyan,I
0.0,6.0,0.0,1.0,4.0,4.0,421.640202999697,2.0,1.0,phase_1,,,,,,,,,,,,,magenta,flipped triangle
74.0,5.0,1.0,1.0,3.0,3.0,289.6313979999831,2.0,1.0,phase_1,,,,,,,,,,,,,green,cross
44.0,5.0,1.0,1.0,1.0,1.0,282.4517979988741,3.0,1.0,phase_1,,,,,,,,,,,,,green,cross
96.0,2.0,2.0,0.0,4.0,4.0,396.8041890002496,3.0,1.0,phase_1,,,,,,,,,,,,,gray,triangle
100.0,6.0,2.0,1.0,4.0,4.0,377.3730359989713,3.0,1.0,phase_1,,,,,,,,,,,,,magenta,flipped triangle
58.0,1.0,1.0,0.0,4.0,4.0,327.7632090012048,3.0,1.0,phase_1,,,,,,,,,,,,,yellow,circle
119.0,2.0,2.0,0.0,1.0,1.0,331.4472010006284,3.0,1.0,phase_1,,,,,,,,,,,,,gray,triangle
218.0,7.0,3.0,1.0,2.0,2.0,322.1835849999479,3.0,1.0,phase_1,,,,,,,,,,,,,orange,square
0.0,7.0,0.0,1.0,4.0,4.0,278.0545380010153,3.0,1.0,phase_1,,,,,,,,,,,,,orange,square
34.0,1.0,1.0,0.0,4.0,4.0,403.6303310003859,3.0,1.0,phase_1,,,,,,,,,,,,,yellow,circle
414.0,4.0,4.0,0.0,2.0,2.0,327.5316420003946,3.0,1.0,phase_1,,,,,,,,,,,,,blue,diamond
0.0,4.0,0.0,0.0,1.0,1.0,278.05130500019,3.0,1.0,phase_1,,,,,,,,,,,,,blue,diamond
0.0,1.0,0.0,0.0,4.0,4.0,366.9698960002279,3.0,1.0,phase_1,,,,,,,,,,,,,yellow,circle
222.0,3.0,3.0,0.0,4.0,4.0,355.3155769986915,3.0,1.0,phase_1,,,,,,,,,,,,,cyan,I
398.0,8.0,4.0,1.0,3.0,3.0,401.9254079994425,3.0,1.0,phase_1,,,,,,,,,,,,,white,hexagon
0.0,4.0,0.0,0.0,1.0,1.0,311.7238149989134,3.0,1.0,phase_1,,,,,,,,,,,,,blue,diamond
182.0,7.0,3.0,1.0,4.0,4.0,307.123581000269,3.0,1.0,phase_1,,,,,,,,,,,,,orange,square
0.0,6.0,0.0,1.0,1.0,1.0,359.6515539993561,3.0,1.0,phase_1,,,,,,,,,,,,,magenta,flipped triangle
409.0,4.0,4.0,0.0,3.0,3.0,326.0321800007659,3.0,1.0,phase_1,,,,,,,,,,,,,blue,diamond
403.0,8.0,4.0,1.0,3.0,3.0,368.1298909996258,3.0,1.0,phase_1,,,,,,,,,,,,,white,hexagon
119.0,6.0,2.0,1.0,3.0,3.0,412.618268001097,3.0,1.0,phase_1,,,,,,,,,,,,,magenta,flipped triangle
106.0,6.0,2.0,1.0,1.0,1.0,457.1644669995294,3.0,1.0,phase_1,,,,,,,,,,,,,magenta,flipped triangle
0.0,5.0,0.0,1.0,1.0,1.0,408.8252420006029,3.0,1.0,phase_1,,,,,,,,,,,,,green,cross
0.0,8.0,0.0,1.0,2.0,2.0,371.1173230003624,3.0,1.0,phase_1,,,,,,,,,,,,,white,hexagon
30.0,1.0,1.0,0.0,3.0,3.0,320.4928699997253,3.0,1.0,phase_1,,,,,,,,,,,,,yellow,circle
406.0,8.0,4.0,1.0,1.0,1.0,302.7487759991345,3.0,1.0,phase_1,,,,,,,,,,,,,white,hexagon
0.0,1.0,0.0,0.0,4.0,4.0,306.7189230005169,3.0,1.0,phase_1,,,,,,,,,,,,,yellow,circle
0.0,7.0,0.0,1.0,2.0,2.0,319.5521170000575,3.0,1.0,phase_1,,,,,,,,,,,,,orange,square
0.0,8.0,0.0,1.0,1.0,1.0,321.8549070006702,3.0,1.0,phase_1,,,,,,,,,,,,,white,hexagon
94.0,2.0,2.0,0.0,2.0,2.0,424.1852880004444,3.0,1.0,phase_1,,,,,,,,,,,,,gray,triangle
73.0,5.0,1.0,1.0,2.0,2.0,374.1260209990287,3.0,1.0,phase_1,,,,,,,,,,,,,green,cross
193.0,3.0,3.0,0.0,2.0,2.0,281.3902649995725,3.0,1.0,phase_1,,,,,,,,,,,,,cyan,I
122.0,2.0,2.0,0.0,1.0,1.0,336.1370679995161,3.0,1.0,phase_1,,,,,,,,,,,,,gray,triangle
51.0,1.0,1.0,0.0,2.0,2.0,386.648771000182,3.0,1.0,phase_1,,,,,,,,,,,,,yellow,circle
203.0,7.0,3.0,1.0,3.0,3.0,337.2272310007247,3.0,1.0,phase_1,,,,,,,,,,,,,orange,square
198.0,3.0,3.0,0.0,1.0,1.0,317.5268749982933,3.0,1.0,phase_1,,,,,,,,,,,,,cyan,I
176.0,3.0,3.0,0.0,4.0,4.0,280.0778820001142,3.0,1.0,phase_1,,,,,,,,,,,,,cyan,I
225.0,7.0,3.0,1.0,1.0,1.0,318.7791429991193,3.0,1.0,phase_1,,,,,,,,,,,,,orange,square
54.0,1.0,1.0,0.0,4.0,4.0,368.9445400013937,3.0,1.0,phase_1,,,,,,,,,,,,,yellow,circle
83.0,6.0,2.0,1.0,4.0,4.0,382.9593099999329,3.0,1.0,phase_1,,,,,,,,,,,,,magenta,flipped triangle
388.0,4.0,4.0,0.0,2.0,2.0,329.7407949994522,3.0,1.0,phase_1,,,,,,,,,,,,,blue,diamond
60.0,1.0,1.0,0.0,1.0,1.0,312.5602429990977,3.0,1.0,phase_1,,,,,,,,,,,,,yellow,circle
43.0,5.0,1.0,1.0,3.0,3.0,317.59103100012,3.0,1.0,phase_1,,,,,,,,,,,,,green,cross
386.0,8.0,4.0,1.0,1.0,1.0,289.4982489997346,3.0,1.0,phase_1,,,,,,,,,,,,,white,hexagon
210.0,7.0,3.0,1.0,4.0,4.0,287.6044280001224,3.0,1.0,phase_1,,,,,,,,,,,,,orange,square
0.0,5.0,0.0,1.0,2.0,2.0,304.9155780008732,3.0,1.0,phase_1,,,,,,,,,,,,,green,cross
33.0,1.0,1.0,0.0,3.0,3.0,321.9554970000899,3.0,1.0,phase_1,,,,,,,,,,,,,yellow,circle
94.0,6.0,2.0,1.0,2.0,2.0,346.9399269997666,3.0,1.0,phase_1,,,,,,,,,,,,,magenta,flipped triangle
197.0,7.0,3.0,1.0,3.0,3.0,315.3008190001856,3.0,1.0,phase_1,,,,,,,,,,,,,orange,square
180.0,7.0,3.0,1.0,3.0,3.0,348.9767110004322,3.0,1.0,phase_1,,,,,,,,,,,,,orange,square
397.0,4.0,4.0,0.0,2.0,2.0,313.5446599990246,3.0,1.0,phase_1,,,,,,,,,,,,,blue,diamond
33.0,5.0,1.0,1.0,1.0,1.0,294.073324999772,3.0,1.0,phase_1,,,,,,,,,,,,,green,cross
388.0,8.0,4.0,1.0,1.0,1.0,349.8084120001294,3.0,1.0,phase_1,,,,,,,,,,,,,white,hexagon
412.0,4.0,4.0,0.0,4.0,4.0,350.9168110012979,3.0,1.0,phase_1,,,,,,,,,,,,,blue,diamond
180.0,3.0,3.0,0.0,4.0,4.0,285.6421139986196,3.0,1.0,phase_1,,,,,,,,,,,,,cyan,I
124.0,6.0,2.0,1.0,2.0,2.0,416.0941560003266,3.0,1.0,phase_1,,,,,,,,,,,,,magenta,flipped triangle
191.0,3.0,3.0,0.0,4.0,4.0,320.7024319999618,3.0,1.0,phase_1,,,,,,,,,,,,,cyan,I
30.0,5.0,1.0,1.0,1.0,1.0,249.8865050001768,3.0,1.0,phase_1,,,,,,,,,,,,,green,cross
214.0,7.0,3.0,1.0,3.0,3.0,358.7814969996543,3.0,1.0,phase_1,,,,,,,,,,,,,orange,square
193.0,7.0,3.0,1.0,4.0,4.0,373.0670009990717,3.0,1.0,phase_1,,,,,,,,,,,,,orange,square
222.0,7.0,3.0,1.0,3.0,3.0,399.9284460005583,3.0,1.0,phase_1,,,,,,,,,,,,,orange,square
92.0,6.0,2.0,1.0,3.0,3.0,334.7153340000659,3.0,1.0,phase_1,,,,,,,,,,,,,magenta,flipped triangle
54.0,5.0,1.0,1.0,3.0,3.0,296.9598330000735,3.0,1.0,phase_1,,,,,,,,,,,,,green,cross
0.0,6.0,0.0,1.0,4.0,4.0,310.1049280012375,3.0,1.0,phase_1,,,,,,,,,,,,,magenta,flipped triangle
0.0,2.0,0.0,0.0,3.0,3.0,354.4036230014171,3.0,1.0,phase_1,,,,,,,,,,,,,gray,triangle
216.0,7.0,3.0,1.0,4.0,4.0,383.9879099996324,3.0,1.0,phase_1,,,,,,,,,,,,,orange,square
406.0,4.0,4.0,0.0,3.0,3.0,309.2824760005896,3.0,1.0,phase_1,,,,,,,,,,,,,blue,diamond
202.0,7.0,3.0,1.0,3.0,3.0,339.6195789991907,3.0,1.0,phase_1,,,,,,,,,,,,,orange,square
189.0,7.0,3.0,1.0,4.0,4.0,327.4467520004691,3.0,1.0,phase_1,,,,,,,,,,,,,orange,square
207.0,7.0,3.0,1.0,2.0,2.0,338.1861449997814,3.0,1.0,phase_1,,,,,,,,,,,,,orange,square
401.0,4.0,4.0,0.0,2.0,2.0,406.3778729996556,3.0,1.0,phase_1,,,,,,,,,,,,,blue,diamond
384.0,4.0,4.0,0.0,4.0,4.0,349.7581779993197,3.0,1.0,phase_1,,,,,,,,,,,,,blue,diamond
211.0,7.0,3.0,1.0,1.0,1.0,303.6393209986272,3.0,1.0,phase_1,,,,,,,,,,,,,orange,square
175.0,7.0,3.0,1.0,4.0,4.0,280.6567549996543,3.0,1.0,phase_1,,,,,,,,,,,,,orange,square
113.0,2.0,2.0,0.0,3.0,3.0,357.5143460002437,3.0,1.0,phase_1,,,,,,,,,,,,,gray,triangle
380.0,4.0,4.0,0.0,2.0,2.0,280.7734510006412,3.0,1.0,phase_1,,,,,,,,,,,,,blue,diamond
0.0,2.0,0.0,0.0,4.0,4.0,268.365604999417,3.0,1.0,phase_1,,,,,,,,,,,,,gray,triangle
424.0,4.0,4.0,0.0,1.0,1.0,314.819171999261,3.0,1.0,phase_1,,,,,,,,,,,,,blue,diamond
0.0,2.0,0.0,0.0,3.0,3.0,295.7673629989585,3.0,1.0,phase_1,,,,,,,,,,,,,gray,triangle
37.0,1.0,1.0,0.0,3.0,3.0,339.3988419993548,3.0,1.0,phase_1,,,,,,,,,,,,,yellow,circle
0.0,3.0,0.0,0.0,1.0,1.0,486.6626459988765,3.0,1.0,phase_1,,,,,,,,,,,,,cyan,I
0.0,5.0,0.0,1.0,3.0,3.0,371.7260220000753,3.0,1.0,phase_1,,,,,,,,,,,,,green,cross
0.0,4.0,0.0,0.0,3.0,3.0,311.594533999596,3.0,1.0,phase_1,,,,,,,,,,,,,blue,diamond
177.0,7.0,3.0,1.0,2.0,2.0,414.6357429999625,3.0,1.0,phase_1,,,,,,,,,,,,,orange,square
29.0,1.0,1.0,0.0,4.0,4.0,427.3384850002912,3.0,1.0,phase_1,,,,,,,,,,,,,yellow,circle
51.0,5.0,1.0,1.0,1.0,1.0,366.9471430002886,3.0,1.0,phase_1,,,,,,,,,,,,,green,cross
417.0,4.0,4.0,0.0,4.0,4.0,325.1260230008483,3.0,1.0,phase_1,,,,,,,,,,,,,blue,diamond
0.0,2.0,0.0,0.0,2.0,2.0,400.860591998935,3.0,1.0,phase_1,,,,,,,,,,,,,gray,triangle
397.0,8.0,4.0,1.0,1.0,1.0,350.9978359998058,3.0,1.0,phase_1,,,,,,,,,,,,,white,hexagon
195.0,3.0,3.0,0.0,4.0,4.0,256.3666029982414,3.0,1.0,phase_1,,,,,,,,,,,,,cyan,I
94.0,2.0,2.0,0.0,2.0,2.0,459.9241819996678,3.0,1.0,phase_1,,,,,,,,,,,,,gray,triangle
0.0,3.0,0.0,0.0,2.0,2.0,331.199813999774,3.0,1.0,phase_1,,,,,,,,,,,,,cyan,I
122.0,6.0,2.0,1.0,4.0,4.0,358.3070919994497,3.0,1.0,phase_1,,,,,,,,,,,,,magenta,flipped triangle
402.0,4.0,4.0,0.0,3.0,3.0,322.1644710010878,3.0,1.0,phase_1,,,,,,,,,,,,,blue,diamond
406.0,4.0,4.0,0.0,1.0,1.0,441.9528160015034,3.0,1.0,phase_1,,,,,,,,,,,,,blue,diamond
406.0,8.0,4.0,1.0,3.0,3.0,341.4322540011199,3.0,1.0,phase_1,,,,,,,,,,,,,white,hexagon
175.0,7.0,3.0,1.0,2.0,2.0,434.3083929998101,3.0,1.0,phase_1,,,,,,,,,,,,,orange,square
72.0,5.0,1.0,1.0,1.0,1.0,309.6451700002944,3.0,1.0,phase_1,,,,,,,,,,,,,green,cross
181.0,3.0,3.0,0.0,2.0,2.0,322.5263319982332,3.0,1.0,phase_1,,,,,,,,,,,,,cyan,I
0.0,3.0,0.0,0.0,4.0,4.0,288.826533998872,3.0,1.0,phase_1,,,,,,,,,,,,,cyan,I
42.0,5.0,1.0,1.0,2.0,2.0,341.6240200003813,3.0,1.0,phase_1,,,,,,,,,,,,,green,cross
380.0,8.0,4.0,1.0,2.0,2.0,378.7694099992222,3.0,1.0,phase_1,,,,,,,,,,,,,white,hexagon
79.0,6.0,2.0,1.0,1.0,1.0,271.7526169999473,4.0,1.0,phase_1,,,,,,,,,,,,,magenta,flipped triangle
407.0,4.0,4.0,0.0,1.0,1.0,385.801400998389,4.0,1.0,phase_1,,,,,,,,,,,,,blue,diamond
90.0,6.0,2.0,1.0,1.0,1.0,335.8021380008722,4.0,1.0,phase_1,,,,,,,,,,,,,magenta,flipped triangle
0.0,1.0,0.0,0.0,1.0,1.0,323.8595359998726,4.0,1.0,phase_1,,,,,,,,,,,,,yellow,circle
89.0,6.0,2.0,1.0,1.0,1.0,274.2433650000748,4.0,1.0,phase_1,,,,,,,,,,,,,magenta,flipped triangle
47.0,5.0,1.0,1.0,3.0,3.0,348.4440650008764,4.0,1.0,phase_1,,,,,,,,,,,,,green,cross
60.0,5.0,1.0,1.0,1.0,1.0,274.5130009989225,4.0,1.0,phase_1,,,,,,,,,,,,,green,cross
197.0,7.0,3.0,1.0,1.0,1.0,304.6720750007807,4.0,1.0,phase_1,,,,,,,,,,,,,orange,square
381.0,8.0,4.0,1.0,4.0,4.0,378.3452829993621,4.0,1.0,phase_1,,,,,,,,,,,,,white,hexagon
218.0,3.0,3.0,0.0,2.0,2.0,294.643523000559,4.0,1.0,phase_1,,,,,,,,,,,,,cyan,I
69.0,5.0,1.0,1.0,1.0,1.0,286.6557960005593,4.0,1.0,phase_1,,,,,,,,,,,,,green,cross
392.0,8.0,4.0,1.0,2.0,2.0,379.436272998646,4.0,1.0,phase_1,,,,,,,,,,,,,white,hexagon
34.0,5.0,1.0,1.0,4.0,4.0,356.8151569998008,4.0,1.0,phase_1,,,,,,,,,,,,,green,cross
387.0,4.0,4.0,0.0,1.0,1.0,267.4237739993259,4.0,1.0,phase_1,,,,,,,,,,,,,blue,diamond
119.0,6.0,2.0,1.0,2.0,2.0,289.7119759982161,4.0,1.0,phase_1,,,,,,,,,,,,,magenta,flipped triangle
79.0,6.0,2.0,1.0,3.0,3.0,331.5111649990285,4.0,1.0,phase_1,,,,,,,,,,,,,magenta,flipped triangle
413.0,4.0,4.0,0.0,4.0,4.0,250.54426899987448,4.0,1.0,phase_1,,,,,,,,,,,,,blue,diamond
0.0,6.0,0.0,1.0,3.0,3.0,327.8468360003899,4.0,1.0,phase_1,,,,,,,,,,,,,magenta,flipped triangle
87.0,6.0,2.0,1.0,4.0,4.0,389.2321700004686,4.0,1.0,phase_1,,,,,,,,,,,,,magenta,flipped triangle
54.0,1.0,1.0,0.0,3.0,3.0,479.7354889997223,4.0,1.0,phase_1,,,,,,,,,,,,,yellow,circle
0.0,1.0,0.0,0.0,2.0,2.0,316.1949559998902,4.0,1.0,phase_1,,,,,,,,,,,,,yellow,circle
423.0,4.0,4.0,0.0,1.0,1.0,326.9314090011903,4.0,1.0,phase_1,,,,,,,,,,,,,blue,diamond
0.0,3.0,0.0,0.0,1.0,1.0,399.6693450008024,4.0,1.0,phase_1,,,,,,,,,,,,,cyan,I
417.0,8.0,4.0,1.0,2.0,2.0,292.24699499900447,4.0,1.0,phase_1,,,,,,,,,,,,,white,hexagon
396.0,4.0,4.0,0.0,3.0,3.0,311.0891730011644,4.0,1.0,phase_1,,,,,,,,,,,,,blue,diamond
202.0,3.0,3.0,0.0,1.0,1.0,330.2436320009292,4.0,1.0,phase_1,,,,,,,,,,,,,cyan,I
425.0,4.0,4.0,0.0,1.0,1.0,393.8509420004266,4.0,1.0,phase_1,,,,,,,,,,,,,blue,diamond
0.0,5.0,0.0,1.0,3.0,3.0,380.1011299983656,4.0,1.0,phase_1,,,,,,,,,,,,,green,cross
107.0,2.0,2.0,0.0,3.0,3.0,418.790892999823,4.0,1.0,phase_1,,,,,,,,,,,,,gray,triangle
0.0,1.0,0.0,0.0,4.0,4.0,292.8362059992651,4.0,1.0,phase_1,,,,,,,,,,,,,yellow,circle
398.0,4.0,4.0,0.0,2.0,2.0,403.6752369993337,4.0,1.0,phase_1,,,,,,,,,,,,,blue,diamond
100.0,6.0,2.0,1.0,3.0,3.0,333.9254129987239,4.0,1.0,phase_1,,,,,,,,,,,,,magenta,flipped triangle
105.0,2.0,2.0,0.0,1.0,1.0,283.2003090006765,4.0,1.0,phase_1,,,,,,,,,,,,,gray,triangle
90.0,2.0,2.0,0.0,4.0,4.0,295.9065550003288,4.0,1.0,phase_1,,,,,,,,,,,,,gray,triangle
27.0,1.0,1.0,0.0,2.0,2.0,302.691306998895,4.0,1.0,phase_1,,,,,,,,,,,,,yellow,circle
390.0,4.0,4.0,0.0,4.0,4.0,384.6277289994759,4.0,1.0,phase_1,,,,,,,,,,,,,blue,diamond
395.0,4.0,4.0,0.0,4.0,4.0,349.5344959992508,4.0,1.0,phase_1,,,,,,,,,,,,,blue,diamond
104.0,6.0,2.0,1.0,4.0,4.0,349.1712960003497,4.0,1.0,phase_1,,,,,,,,,,,,,magenta,flipped triangle
109.0,2.0,2.0,0.0,4.0,4.0,306.1160100005509,4.0,1.0,phase_1,,,,,,,,,,,,,gray,triangle
0.0,3.0,0.0,0.0,1.0,1.0,339.1042749990447,4.0,1.0,phase_1,,,,,,,,,,,,,cyan,I
0.0,4.0,0.0,0.0,2.0,2.0,306.056018000163,4.0,1.0,phase_1,,,,,,,,,,,,,blue,diamond
89.0,2.0,2.0,0.0,1.0,1.0,318.78671999947977,4.0,1.0,phase_1,,,,,,,,,,,,,gray,triangle
218.0,3.0,3.0,0.0,1.0,1.0,298.1086249983491,4.0,1.0,phase_1,,,,,,,,,,,,,cyan,I
0.0,8.0,0.0,1.0,1.0,1.0,294.0935530004935,4.0,1.0,phase_1,,,,,,,,,,,,,white,hexagon
44.0,5.0,1.0,1.0,4.0,4.0,315.3155019990663,4.0,1.0,phase_1,,,,,,,,,,,,,green,cross
400.0,4.0,4.0,0.0,2.0,2.0,338.7987579990295,4.0,1.0,phase_1,,,,,,,,,,,,,blue,diamond
412.0,8.0,4.0,1.0,1.0,1.0,312.0719689995894,4.0,1.0,phase_1,,,,,,,,,,,,,white,hexagon
382.0,8.0,4.0,1.0,2.0,2.0,380.1253980000183,4.0,1.0,phase_1,,,,,,,,,,,,,white,hexagon
72.0,1.0,1.0,0.0,1.0,1.0,293.820605998917,4.0,1.0,phase_1,,,,,,,,,,,,,yellow,circle
68.0,1.0,1.0,0.0,3.0,3.0,340.8285750010691,4.0,1.0,phase_1,,,,,,,,,,,,,yellow,circle
0.0,8.0,0.0,1.0,1.0,1.0,359.8716630003764,4.0,1.0,phase_1,,,,,,,,,,,,,white,hexagon
41.0,5.0,1.0,1.0,2.0,2.0,331.8753889998334,4.0,1.0,phase_1,,,,,,,,,,,,,green,cross
0.0,4.0,0.0,0.0,3.0,3.0,355.6668749988603,4.0,1.0,phase_1,,,,,,,,,,,,,blue,diamond
82.0,6.0,2.0,1.0,2.0,2.0,351.7698300001939,4.0,1.0,phase_1,,,,,,,,,,,,,magenta,flipped triangle
198.0,7.0,3.0,1.0,3.0,3.0,324.1350870011956,4.0,1.0,phase_1,,,,,,,,,,,,,orange,square
0.0,7.0,0.0,1.0,4.0,4.0,345.382243000131,4.0,1.0,phase_1,,,,,,,,,,,,,orange,square
59.0,1.0,1.0,0.0,3.0,3.0,405.1847709997673,4.0,1.0,phase_1,,,,,,,,,,,,,yellow,circle
224.0,7.0,3.0,1.0,4.0,4.0,367.8678830001445,4.0,1.0,phase_1,,,,,,,,,,,,,orange,square
0.0,8.0,0.0,1.0,4.0,4.0,302.4754210000537,4.0,1.0,phase_1,,,,,,,,,,,,,white,hexagon
112.0,2.0,2.0,0.0,4.0,4.0,290.7944150010735,4.0,1.0,phase_1,,,,,,,,,,,,,gray,triangle
117.0,2.0,2.0,0.0,3.0,3.0,352.4491570005921,4.0,1.0,phase_1,,,,,,,,,,,,,gray,triangle
422.0,8.0,4.0,1.0,4.0,4.0,363.4589779994712,4.0,1.0,phase_1,,,,,,,,,,,,,white,hexagon
47.0,5.0,1.0,1.0,3.0,3.0,311.8104009990929,4.0,1.0,phase_1,,,,,,,,,,,,,green,cross
95.0,2.0,2.0,0.0,4.0,4.0,312.1070280012645,4.0,1.0,phase_1,,,,,,,,,,,,,gray,triangle
380.0,8.0,4.0,1.0,2.0,2.0,320.730420999098,4.0,1.0,phase_1,,,,,,,,,,,,,white,hexagon
424.0,8.0,4.0,1.0,4.0,4.0,392.8150729989283,4.0,1.0,phase_1,,,,,,,,,,,,,white,hexagon
395.0,8.0,4.0,1.0,4.0,4.0,339.7599979998631,4.0,1.0,phase_1,,,,,,,,,,,,,white,hexagon
107.0,6.0,2.0,1.0,2.0,2.0,377.8113019998272,4.0,1.0,phase_1,,,,,,,,,,,,,magenta,flipped triangle
207.0,3.0,3.0,0.0,2.0,2.0,389.2637330009165,4.0,1.0,phase_1,,,,,,,,,,,,,cyan,I
395.0,8.0,4.0,1.0,3.0,3.0,289.2608790007216,4.0,1.0,phase_1,,,,,,,,,,,,,white,hexagon
0.0,5.0,0.0,1.0,2.0,2.0,318.6453979997168,4.0,1.0,phase_1,,,,,,,,,,,,,green,cross
66.0,1.0,1.0,0.0,2.0,2.0,401.123911000468,4.0,1.0,phase_1,,,,,,,,,,,,,yellow,circle
215.0,3.0,3.0,0.0,4.0,4.0,318.3856340001512,4.0,1.0,phase_1,,,,,,,,,,,,,cyan,I
401.0,8.0,4.0,1.0,1.0,1.0,252.43664499976148,4.0,1.0,phase_1,,,,,,,,,,,,,white,hexagon
29.0,5.0,1.0,1.0,2.0,2.0,306.3870369987853,4.0,1.0,phase_1,,,,,,,,,,,,,green,cross
88.0,6.0,2.0,1.0,3.0,3.0,323.9773699988291,4.0,1.0,phase_1,,,,,,,,,,,,,magenta,flipped triangle
202.0,3.0,3.0,0.0,1.0,1.0,299.0683680000074,4.0,1.0,phase_1,,,,,,,,,,,,,cyan,I
0.0,5.0,0.0,1.0,3.0,3.0,397.5261690011393,4.0,1.0,phase_1,,,,,,,,,,,,,green,cross
381.0,4.0,4.0,0.0,3.0,3.0,356.0107619996415,4.0,1.0,phase_1,,,,,,,,,,,,,blue,diamond
119.0,6.0,2.0,1.0,4.0,4.0,407.7955470002052,4.0,1.0,phase_1,,,,,,,,,,,,,magenta,flipped triangle
92.0,2.0,2.0,0.0,4.0,4.0,323.4365859989339,4.0,1.0,phase_1,,,,,,,,,,,,,gray,triangle
83.0,2.0,2.0,0.0,1.0,1.0,282.88783500102,4.0,1.0,phase_1,,,,,,,,,,,,,gray,triangle
38.0,1.0,1.0,0.0,4.0,4.0,376.5773459999764,4.0,1.0,phase_1,,,,,,,,,,,,,yellow,circle
105.0,6.0,2.0,1.0,2.0,2.0,347.4129109999921,4.0,1.0,phase_1,,,,,,,,,,,,,magenta,flipped triangle
79.0,6.0,2.0,1.0,1.0,1.0,302.9126900000847,4.0,1.0,phase_1,,,,,,,,,,,,,magenta,flipped triangle
79.0,2.0,2.0,0.0,3.0,3.0,262.1413300003041,4.0,1.0,phase_1,,,,,,,,,,,,,gray,triangle
58.0,5.0,1.0,1.0,3.0,3.0,298.3851339995453,4.0,1.0,phase_1,,,,,,,,,,,,,green,cross
407.0,8.0,4.0,1.0,1.0,1.0,310.6399230000534,4.0,1.0,phase_1,,,,,,,,,,,,,white,hexagon
0.0,2.0,0.0,0.0,3.0,3.0,364.016060000722,4.0,1.0,phase_1,,,,,,,,,,,,,gray,triangle
54.0,5.0,1.0,1.0,2.0,2.0,391.6550220001227,4.0,1.0,phase_1,,,,,,,,,,,,,green,cross
59.0,1.0,1.0,0.0,4.0,4.0,261.368883000614,4.0,1.0,phase_1,,,,,,,,,,,,,yellow,circle
38.0,5.0,1.0,1.0,1.0,1.0,266.0732329986786,4.0,1.0,phase_1,,,,,,,,,,,,,green,cross
87.0,2.0,2.0,0.0,2.0,2.0,383.6084750000736,4.0,1.0,phase_1,,,,,,,,,,,,,gray,triangle
381.0,8.0,4.0,1.0,4.0,4.0,312.366555999688,4.0,1.0,phase_1,,,,,,,,,,,,,white,hexagon
42.0,5.0,1.0,1.0,1.0,1.0,270.0876239996432,4.0,1.0,phase_1,,,,,,,,,,,,,green,cross
210.0,3.0,3.0,0.0,2.0,2.0,340.155482001137,4.0,1.0,phase_1,,,,,,,,,,,,,cyan,I
192.0,3.0,3.0,0.0,2.0,2.0,375.4110520003451,4.0,1.0,phase_1,,,,,,,,,,,,,cyan,I
37.0,5.0,1.0,1.0,1.0,1.0,319.0141249997396,4.0,1.0,phase_1,,,,,,,,,,,,,green,cross
422.0,4.0,4.0,0.0,1.0,1.0,359.82371099999,4.0,1.0,phase_1,,,,,,,,,,,,,blue,diamond
33.0,5.0,1.0,1.0,4.0,4.0,397.4471940000512,4.0,1.0,phase_1,,,,,,,,,,,,,green,cross
0.0,6.0,2.0,1.0,5.0,0.0,0.0,1.0,1.0,phase_2,stop,250.0,250.0,4.0,,,,,,,,,magenta,flipped triangle
0.0,6.0,2.0,1.0,6.0,6.0,274.2608380012825,1.0,1.0,phase_2,stop,300.0,250.0,3.0,,,,,,,,,magenta,flipped triangle
0.0,8.0,4.0,1.0,5.0,5.0,268.4056660000351,1.0,1.0,phase_2,go,300.0,200.0,1.0,,,,,,,,,white,hexagon
0.0,4.0,4.0,0.0,6.0,6.0,330.3020319999632,1.0,1.0,phase_2,go,300.0,200.0,1.0,,,,,,,,,blue,diamond
0.0,7.0,3.0,1.0,5.0,5.0,250.22115199863038,1.0,1.0,phase_2,stop,300.0,200.0,3.0,,,,,,,,,orange,square
0.0,5.0,1.0,1.0,5.0,5.0,337.1493180002289,1.0,1.0,phase_2,stop,250.0,200.0,3.0,,,,,,,,,green,cross
0.0,6.0,2.0,1.0,5.0,0.0,0.0,1.0,1.0,phase_2,stop,200.0,200.0,4.0,,,,,,,,,magenta,flipped triangle
0.0,1.0,1.0,0.0,5.0,5.0,360.4344380000839,1.0,1.0,phase_2,go,250.0,200.0,1.0,,,,,,,,,yellow,circle
0.0,8.0,4.0,1.0,6.0,6.0,249.5273910008109,1.0,1.0,phase_2,stop,250.0,200.0,3.0,,,,,,,,,white,hexagon
0.0,4.0,4.0,0.0,6.0,6.0,602.1851929999684,1.0,1.0,phase_2,go,250.0,150.0,1.0,,,,,,,,,blue,diamond
0.0,3.0,3.0,0.0,5.0,5.0,383.4155379990989,1.0,1.0,phase_2,go,250.0,150.0,1.0,,,,,,,,,cyan,I
0.0,3.0,3.0,0.0,6.0,6.0,329.6863640007359,1.0,1.0,phase_2,go,250.0,150.0,1.0,,,,,,,,,cyan,I
0.0,1.0,1.0,0.0,6.0,6.0,317.2252259992092,1.0,1.0,phase_2,go,250.0,150.0,1.0,,,,,,,,,yellow,circle
0.0,5.0,1.0,1.0,5.0,5.0,230.5138699994131,1.0,1.0,phase_2,stop,250.0,150.0,3.0,,,,,,,,,green,cross
0.0,8.0,4.0,1.0,6.0,6.0,317.6036479999311,1.0,1.0,phase_2,stop,200.0,150.0,3.0,,,,,,,,,white,hexagon
0.0,2.0,2.0,0.0,5.0,5.0,459.5461730004899,1.0,1.0,phase_2,go,200.0,100.0,1.0,,,,,,,,,gray,triangle
0.0,2.0,2.0,0.0,6.0,6.0,379.2029989999719,1.0,1.0,phase_2,go,200.0,100.0,1.0,,,,,,,,,gray,triangle
0.0,6.0,2.0,1.0,5.0,5.0,260.8498159988812,1.0,1.0,phase_2,stop,200.0,100.0,3.0,,,,,,,,,magenta,flipped triangle
0.0,6.0,2.0,1.0,6.0,0.0,0.0,1.0,1.0,phase_2,stop,150.0,100.0,4.0,,,,,,,,,magenta,flipped triangle
0.0,1.0,1.0,0.0,5.0,5.0,361.0788869991665,1.0,1.0,phase_2,go,150.0,150.0,1.0,,,,,,,,,yellow,circle
0.0,1.0,1.0,0.0,5.0,5.0,664.994270000534,1.0,1.0,phase_2,go,150.0,150.0,1.0,,,,,,,,,yellow,circle
0.0,6.0,2.0,1.0,5.0,0.0,0.0,1.0,1.0,phase_2,stop,150.0,150.0,4.0,,,,,,,,,magenta,flipped triangle
0.0,8.0,4.0,1.0,6.0,0.0,0.0,1.0,1.0,phase_2,stop,200.0,150.0,4.0,,,,,,,,,white,hexagon
0.0,3.0,3.0,0.0,5.0,5.0,544.2416070000036,1.0,1.0,phase_2,go,200.0,200.0,1.0,,,,,,,,,cyan,I
0.0,7.0,3.0,1.0,6.0,0.0,0.0,1.0,1.0,phase_2,stop,200.0,200.0,4.0,,,,,,,,,orange,square
0.0,5.0,1.0,1.0,6.0,0.0,0.0,1.0,1.0,phase_2,stop,200.0,250.0,4.0,,,,,,,,,green,cross
0.0,5.0,1.0,1.0,5.0,0.0,0.0,1.0,1.0,phase_2,stop,200.0,300.0,4.0,,,,,,,,,green,cross
0.0,1.0,1.0,0.0,6.0,6.0,606.1629599989828,1.0,1.0,phase_2,go,250.0,300.0,1.0,,,,,,,,,yellow,circle
0.0,5.0,1.0,1.0,6.0,0.0,0.0,1.0,1.0,phase_2,stop,250.0,300.0,4.0,,,,,,,,,green,cross
0.0,4.0,4.0,0.0,5.0,5.0,587.6648060002481,1.0,1.0,phase_2,go,250.0,350.0,1.0,,,,,,,,,blue,diamond
0.0,8.0,4.0,1.0,6.0,0.0,0.0,1.0,1.0,phase_2,stop,250.0,350.0,4.0,,,,,,,,,white,hexagon
0.0,4.0,4.0,0.0,6.0,6.0,509.5227370002249,1.0,1.0,phase_2,go,250.0,400.0,1.0,,,,,,,,,blue,diamond
0.0,4.0,4.0,0.0,5.0,5.0,532.0346349999454,1.0,1.0,phase_2,go,250.0,400.0,1.0,,,,,,,,,blue,diamond
0.0,5.0,1.0,1.0,6.0,0.0,0.0,1.0,1.0,phase_2,stop,250.0,400.0,4.0,,,,,,,,,green,cross
0.0,5.0,1.0,1.0,5.0,5.0,444.2260349987919,1.0,1.0,phase_2,go,250.0,450.0,1.0,,,,,,,,,green,cross
0.0,7.0,3.0,1.0,5.0,0.0,0.0,1.0,1.0,phase_2,stop,250.0,450.0,4.0,,,,,,,,,orange,square
0.0,1.0,1.0,0.0,5.0,5.0,275.6127329994342,2.0,1.0,phase_2,go,300.0,450.0,1.0,,,,,,,,,yellow,circle
0.0,1.0,1.0,0.0,6.0,6.0,436.1429840009805,2.0,1.0,phase_2,go,300.0,450.0,1.0,,,,,,,,,yellow,circle
0.0,5.0,1.0,1.0,5.0,5.0,362.3095949988055,2.0,1.0,phase_2,go,300.0,450.0,1.0,,,,,,,,,green,cross
0.0,7.0,3.0,1.0,5.0,5.0,487.6914679989568,2.0,1.0,phase_2,go,300.0,450.0,1.0,,,,,,,,,orange,square
0.0,3.0,3.0,0.0,5.0,5.0,344.993588001671,2.0,1.0,phase_2,go,300.0,450.0,1.0,,,,,,,,,cyan,I
0.0,4.0,4.0,0.0,5.0,5.0,424.1996000000654,2.0,1.0,phase_2,go,300.0,450.0,1.0,,,,,,,,,blue,diamond
0.0,8.0,4.0,1.0,6.0,6.0,341.4173199998913,2.0,1.0,phase_2,go,300.0,450.0,1.0,,,,,,,,,white,hexagon
0.0,6.0,2.0,1.0,5.0,5.0,342.5732989999233,2.0,1.0,phase_2,go,300.0,450.0,1.0,,,,,,,,,magenta,flipped triangle
0.0,2.0,2.0,0.0,6.0,6.0,317.2071099997993,2.0,1.0,phase_2,go,300.0,450.0,1.0,,,,,,,,,gray,triangle
0.0,8.0,4.0,1.0,6.0,6.0,438.7231559994689,2.0,1.0,phase_2,stop,300.0,450.0,3.0,,,,,,,,,white,hexagon
0.0,6.0,2.0,1.0,6.0,6.0,548.4495460004837,2.0,1.0,phase_2,go,300.0,400.0,1.0,,,,,,,,,magenta,flipped triangle
0.0,7.0,3.0,1.0,6.0,0.0,0.0,2.0,1.0,phase_2,stop,300.0,400.0,4.0,,,,,,,,,orange,square
0.0,6.0,2.0,1.0,5.0,0.0,0.0,2.0,1.0,phase_2,stop,300.0,450.0,4.0,,,,,,,,,magenta,flipped triangle
0.0,7.0,3.0,1.0,5.0,0.0,0.0,2.0,1.0,phase_2,stop,350.0,450.0,4.0,,,,,,,,,orange,square
0.0,2.0,2.0,0.0,5.0,5.0,521.0208759999659,2.0,1.0,phase_2,go,400.0,450.0,1.0,,,,,,,,,gray,triangle
0.0,7.0,3.0,1.0,6.0,6.0,520.7046460000129,2.0,1.0,phase_2,stop,400.0,450.0,3.0,,,,,,,,,orange,square
0.0,3.0,3.0,0.0,6.0,6.0,944.0561610008444,2.0,1.0,phase_2,go,400.0,400.0,1.0,,,,,,,,,cyan,I
0.0,2.0,2.0,0.0,6.0,6.0,672.0049129999097,2.0,1.0,phase_2,go,400.0,400.0,1.0,,,,,,,,,gray,triangle
0.0,5.0,1.0,1.0,6.0,6.0,506.5633310005069,2.0,1.0,phase_2,stop,400.0,400.0,3.0,,,,,,,,,green,cross
0.0,4.0,4.0,0.0,6.0,6.0,753.4646189997147,2.0,1.0,phase_2,go,400.0,350.0,1.0,,,,,,,,,blue,diamond
0.0,8.0,4.0,1.0,5.0,0.0,0.0,2.0,1.0,phase_2,stop,400.0,350.0,4.0,,,,,,,,,white,hexagon
0.0,7.0,3.0,1.0,5.0,0.0,0.0,2.0,1.0,phase_2,stop,450.0,350.0,4.0,,,,,,,,,orange,square
0.0,4.0,4.0,0.0,6.0,6.0,759.458763001021,2.0,1.0,phase_2,go,500.0,350.0,1.0,,,,,,,,,blue,diamond
0.0,8.0,4.0,1.0,5.0,5.0,703.1187770007818,2.0,1.0,phase_2,go,500.0,350.0,1.0,,,,,,,,,white,hexagon
0.0,7.0,3.0,1.0,6.0,0.0,0.0,2.0,1.0,phase_2,stop,500.0,350.0,4.0,,,,,,,,,orange,square
0.0,4.0,4.0,0.0,6.0,6.0,654.3884039983823,2.0,1.0,phase_2,go,500.0,400.0,1.0,,,,,,,,,blue,diamond
0.0,5.0,1.0,1.0,6.0,0.0,0.0,2.0,1.0,phase_2,stop,500.0,400.0,4.0,,,,,,,,,green,cross
0.0,3.0,3.0,0.0,6.0,6.0,753.8095150011941,2.0,1.0,phase_2,go,500.0,450.0,1.0,,,,,,,,,cyan,I
0.0,2.0,2.0,0.0,5.0,5.0,673.0387300012808,2.0,1.0,phase_2,go,500.0,450.0,1.0,,,,,,,,,gray,triangle
0.0,2.0,2.0,0.0,6.0,6.0,584.5456560000457,2.0,1.0,phase_2,go,500.0,450.0,1.0,,,,,,,,,gray,triangle
0.0,8.0,4.0,1.0,6.0,0.0,0.0,2.0,1.0,phase_2,stop,500.0,450.0,4.0,,,,,,,,,white,hexagon
0.0,6.0,2.0,1.0,6.0,6.0,631.6963539993594,2.0,1.0,phase_2,go,500.0,500.0,1.0,,,,,,,,,magenta,flipped triangle
0.0,7.0,3.0,1.0,5.0,5.0,647.8825260001031,2.0,1.0,phase_2,stop,500.0,500.0,3.0,,,,,,,,,orange,square
0.0,7.0,3.0,1.0,5.0,0.0,0.0,2.0,1.0,phase_2,stop,450.0,500.0,4.0,,,,,,,,,orange,square
0.0,3.0,3.0,0.0,5.0,5.0,949.742963000972,2.0,1.0,phase_2,go,500.0,500.0,1.0,,,,,,,,,cyan,I
0.0,7.0,3.0,1.0,5.0,5.0,968.0514470001071,2.0,1.0,phase_2,go,500.0,500.0,1.0,,,,,,,,,orange,square
0.0,3.0,3.0,0.0,6.0,6.0,315.6000359995232,3.0,1.0,phase_2,go,500.0,500.0,1.0,,,,,,,,,cyan,I
0.0,7.0,3.0,1.0,6.0,6.0,530.4840260014316,3.0,1.0,phase_2,stop,500.0,500.0,3.0,,,,,,,,,orange,square
0.0,2.0,2.0,0.0,5.0,5.0,679.5198760009953,3.0,1.0,phase_2,go,500.0,450.0,1.0,,,,,,,,,gray,triangle
0.0,4.0,4.0,0.0,6.0,6.0,665.6463790004636,3.0,1.0,phase_2,go,500.0,450.0,1.0,,,,,,,,,blue,diamond
0.0,4.0,4.0,0.0,5.0,5.0,760.7905849999952,3.0,1.0,phase_2,go,500.0,450.0,1.0,,,,,,,,,blue,diamond
0.0,2.0,2.0,0.0,5.0,5.0,648.6945189990365,3.0,1.0,phase_2,go,500.0,450.0,1.0,,,,,,,,,gray,triangle
0.0,7.0,3.0,1.0,5.0,0.0,0.0,3.0,1.0,phase_2,stop,500.0,450.0,4.0,,,,,,,,,orange,square
0.0,3.0,3.0,0.0,6.0,6.0,709.4321459990169,3.0,1.0,phase_2,go,550.0,450.0,1.0,,,,,,,,,cyan,I
0.0,5.0,1.0,1.0,6.0,6.0,799.2910129996744,3.0,1.0,phase_2,go,550.0,450.0,1.0,,,,,,,,,green,cross
0.0,8.0,4.0,1.0,6.0,6.0,869.6221949994651,3.0,1.0,phase_2,go,550.0,450.0,1.0,,,,,,,,,white,hexagon
0.0,4.0,4.0,0.0,6.0,6.0,802.834726000583,3.0,1.0,phase_2,go,550.0,450.0,1.0,,,,,,,,,blue,diamond
0.0,5.0,1.0,1.0,6.0,0.0,0.0,3.0,1.0,phase_2,stop,550.0,450.0,4.0,,,,,,,,,green,cross
0.0,7.0,3.0,1.0,6.0,6.0,634.0860079999402,3.0,1.0,phase_2,stop,550.0,500.0,3.0,,,,,,,,,orange,square
0.0,6.0,2.0,1.0,5.0,0.0,0.0,3.0,1.0,phase_2,stop,550.0,450.0,4.0,,,,,,,,,magenta,flipped triangle
0.0,3.0,3.0,0.0,5.0,5.0,769.061127999521,3.0,1.0,phase_2,go,600.0,450.0,1.0,,,,,,,,,cyan,I
0.0,1.0,1.0,0.0,6.0,6.0,931.052562998957,3.0,1.0,phase_2,go,600.0,450.0,1.0,,,,,,,,,yellow,circle
0.0,6.0,2.0,1.0,6.0,0.0,0.0,3.0,1.0,phase_2,stop,600.0,450.0,4.0,,,,,,,,,magenta,flipped triangle
0.0,5.0,1.0,1.0,6.0,0.0,0.0,3.0,1.0,phase_2,stop,600.0,500.0,4.0,,,,,,,,,green,cross
0.0,1.0,1.0,0.0,6.0,6.0,953.745135000645,3.0,1.0,phase_2,go,600.0,550.0,1.0,,,,,,,,,yellow,circle
0.0,8.0,4.0,1.0,5.0,0.0,0.0,3.0,1.0,phase_2,stop,600.0,550.0,4.0,,,,,,,,,white,hexagon
0.0,7.0,3.0,1.0,5.0,0.0,0.0,3.0,1.0,phase_2,stop,650.0,550.0,4.0,,,,,,,,,orange,square
0.0,2.0,2.0,0.0,6.0,6.0,799.2793919984251,3.0,1.0,phase_2,go,700.0,550.0,1.0,,,,,,,,,gray,triangle
0.0,7.0,3.0,1.0,6.0,0.0,0.0,3.0,1.0,phase_2,stop,700.0,550.0,4.0,,,,,,,,,orange,square
0.0,5.0,1.0,1.0,5.0,5.0,956.3089919993216,3.0,1.0,phase_2,go,700.0,600.0,1.0,,,,,,,,,green,cross
0.0,5.0,1.0,1.0,5.0,0.0,0.0,3.0,1.0,phase_2,stop,700.0,600.0,4.0,,,,,,,,,green,cross
0.0,8.0,4.0,1.0,5.0,0.0,0.0,3.0,1.0,phase_2,stop,750.0,600.0,4.0,,,,,,,,,white,hexagon
0.0,8.0,4.0,1.0,6.0,0.0,0.0,3.0,1.0,phase_2,stop,800.0,600.0,4.0,,,,,,,,,white,hexagon
0.0,2.0,2.0,0.0,6.0,6.0,1028.8188599988644,3.0,1.0,phase_2,go,800.0,650.0,1.0,,,,,,,,,gray,triangle
0.0,2.0,2.0,0.0,6.0,6.0,819.3874179996783,3.0,1.0,phase_2,go,800.0,650.0,1.0,,,,,,,,,gray,triangle
0.0,6.0,2.0,1.0,5.0,5.0,784.5870399996784,3.0,1.0,phase_2,go,800.0,650.0,1.0,,,,,,,,,magenta,flipped triangle
0.0,3.0,3.0,0.0,6.0,6.0,783.9255170001707,3.0,1.0,phase_2,go,800.0,650.0,1.0,,,,,,,,,cyan,I
0.0,2.0,2.0,0.0,6.0,6.0,811.1169439998775,3.0,1.0,phase_2,go,800.0,650.0,1.0,,,,,,,,,gray,triangle
0.0,5.0,1.0,1.0,5.0,5.0,824.542800000927,3.0,1.0,phase_2,stop,800.0,650.0,3.0,,,,,,,,,green,cross
0.0,6.0,2.0,1.0,6.0,0.0,0.0,3.0,1.0,phase_2,stop,750.0,650.0,4.0,,,,,,,,,magenta,flipped triangle
0.0,5.0,1.0,1.0,6.0,0.0,0.0,3.0,1.0,phase_2,stop,750.0,700.0,4.0,,,,,,,,,green,cross
0.0,6.0,2.0,1.0,6.0,6.0,966.7463010009668,3.0,1.0,phase_2,go,750.0,750.0,1.0,,,,,,,,,magenta,flipped triangle
0.0,1.0,1.0,0.0,6.0,6.0,472.1698800003651,4.0,1.0,phase_2,go,750.0,750.0,1.0,,,,,,,,,yellow,circle
0.0,3.0,3.0,0.0,6.0,6.0,557.1518069991725,4.0,1.0,phase_2,go,750.0,750.0,1.0,,,,,,,,,cyan,I
0.0,6.0,2.0,1.0,5.0,5.0,564.2079600002035,4.0,1.0,phase_2,stop,750.0,750.0,3.0,,,,,,,,,magenta,flipped triangle
0.0,4.0,4.0,0.0,5.0,5.0,682.9326570004923,4.0,1.0,phase_2,go,700.0,750.0,1.0,,,,,,,,,blue,diamond
0.0,6.0,2.0,1.0,5.0,5.0,614.1101759985759,4.0,1.0,phase_2,stop,700.0,750.0,3.0,,,,,,,,,magenta,flipped triangle
0.0,6.0,2.0,1.0,6.0,6.0,411.961572999644,4.0,1.0,phase_2,stop,650.0,750.0,3.0,,,,,,,,,magenta,flipped triangle
0.0,2.0,2.0,0.0,5.0,5.0,738.6333530012053,4.0,1.0,phase_2,go,650.0,700.0,1.0,,,,,,,,,gray,triangle
0.0,1.0,1.0,0.0,5.0,5.0,632.7992000005906,4.0,1.0,phase_2,go,650.0,700.0,1.0,,,,,,,,,yellow,circle
0.0,4.0,4.0,0.0,6.0,6.0,378.0863619995216,4.0,1.0,phase_2,go,650.0,700.0,1.0,,,,,,,,,blue,diamond
0.0,6.0,2.0,1.0,5.0,5.0,545.636098999239,4.0,1.0,phase_2,stop,650.0,700.0,3.0,,,,,,,,,magenta,flipped triangle
0.0,1.0,1.0,0.0,5.0,5.0,1025.568734999979,4.0,1.0,phase_2,go,600.0,700.0,1.0,,,,,,,,,yellow,circle
0.0,5.0,1.0,1.0,5.0,5.0,1023.4839879994979,4.0,1.0,phase_2,go,600.0,700.0,1.0,,,,,,,,,green,cross
0.0,5.0,1.0,1.0,5.0,0.0,0.0,4.0,1.0,phase_2,stop,600.0,700.0,4.0,,,,,,,,,green,cross
0.0,8.0,4.0,1.0,5.0,5.0,765.7117899998411,4.0,1.0,phase_2,go,650.0,700.0,1.0,,,,,,,,,white,hexagon
0.0,1.0,1.0,0.0,6.0,6.0,798.6418769996817,4.0,1.0,phase_2,go,650.0,700.0,1.0,,,,,,,,,yellow,circle
0.0,1.0,1.0,0.0,6.0,6.0,575.7624519992532,4.0,1.0,phase_2,go,650.0,700.0,1.0,,,,,,,,,yellow,circle
0.0,5.0,1.0,1.0,5.0,0.0,0.0,4.0,1.0,phase_2,stop,650.0,700.0,4.0,,,,,,,,,green,cross
0.0,2.0,2.0,0.0,5.0,5.0,1118.919533000735,4.0,1.0,phase_2,go,700.0,700.0,1.0,,,,,,,,,gray,triangle
0.0,8.0,4.0,1.0,6.0,6.0,748.5788249996403,4.0,1.0,phase_2,stop,700.0,700.0,3.0,,,,,,,,,white,hexagon
0.0,8.0,4.0,1.0,5.0,0.0,0.0,4.0,1.0,phase_2,stop,700.0,650.0,4.0,,,,,,,,,white,hexagon
0.0,1.0,1.0,0.0,5.0,5.0,669.1095719997975,4.0,1.0,phase_2,go,750.0,650.0,1.0,,,,,,,,,yellow,circle
0.0,2.0,2.0,0.0,5.0,5.0,379.4244049986446,4.0,1.0,phase_2,go,750.0,650.0,1.0,,,,,,,,,gray,triangle
0.0,4.0,4.0,0.0,5.0,5.0,995.3006329997152,4.0,1.0,phase_2,go,750.0,650.0,1.0,,,,,,,,,blue,diamond
0.0,4.0,4.0,0.0,5.0,5.0,835.1244820005377,4.0,1.0,phase_2,go,750.0,650.0,1.0,,,,,,,,,blue,diamond
0.0,2.0,2.0,0.0,5.0,5.0,602.7033329992264,4.0,1.0,phase_2,go,750.0,650.0,1.0,,,,,,,,,gray,triangle
0.0,2.0,2.0,0.0,5.0,5.0,735.6490509992,4.0,1.0,phase_2,go,750.0,650.0,1.0,,,,,,,,,gray,triangle
0.0,4.0,4.0,0.0,6.0,6.0,608.2276220004132,4.0,1.0,phase_2,go,750.0,650.0,1.0,,,,,,,,,blue,diamond
0.0,4.0,4.0,0.0,6.0,6.0,350.32762099945097,4.0,1.0,phase_2,go,750.0,650.0,1.0,,,,,,,,,blue,diamond
0.0,7.0,3.0,1.0,6.0,6.0,453.4160679995693,4.0,1.0,phase_2,stop,750.0,650.0,3.0,,,,,,,,,orange,square
0.0,3.0,3.0,0.0,6.0,6.0,716.41329600061,4.0,1.0,phase_2,go,750.0,600.0,1.0,,,,,,,,,cyan,I
0.0,2.0,2.0,0.0,6.0,6.0,359.38547700061457,4.0,1.0,phase_2,go,750.0,600.0,1.0,,,,,,,,,gray,triangle
0.0,1.0,1.0,0.0,6.0,6.0,460.1414499993552,4.0,1.0,phase_2,go,750.0,600.0,1.0,,,,,,,,,yellow,circle
0.0,7.0,3.0,1.0,6.0,6.0,691.2539290005952,4.0,1.0,phase_2,stop,750.0,600.0,3.0,,,,,,,,,orange,square
0.0,8.0,4.0,1.0,6.0,0.0,0.0,4.0,1.0,phase_2,stop,750.0,550.0,4.0,,,,,,,,,white,hexagon
0.0,5.0,1.0,1.0,6.0,0.0,0.0,4.0,1.0,phase_2,stop,750.0,600.0,4.0,,,,,,,,,green,cross
0.0,1.0,1.0,0.0,6.0,6.0,916.020712000318,4.0,1.0,phase_2,go,750.0,650.0,1.0,,,,,,,,,yellow,circle
0.0,1.0,1.0,0.0,5.0,5.0,276.6471839986479,5.0,1.0,phase_2,go,750.0,650.0,1.0,,,,,,,,,yellow,circle
0.0,3.0,3.0,0.0,5.0,5.0,240.4553160013165,5.0,1.0,phase_2,go,750.0,650.0,1.0,,,,,,,,,cyan,I
0.0,6.0,2.0,1.0,5.0,5.0,273.1356469994352,5.0,1.0,phase_2,stop,750.0,650.0,3.0,,,,,,,,,magenta,flipped triangle
0.0,3.0,3.0,0.0,5.0,5.0,319.5219099998212,5.0,1.0,phase_2,go,700.0,650.0,1.0,,,,,,,,,cyan,I
0.0,4.0,4.0,0.0,6.0,6.0,342.1252780008217,5.0,1.0,phase_2,go,700.0,650.0,1.0,,,,,,,,,blue,diamond
0.0,3.0,3.0,0.0,5.0,5.0,583.4146050001436,5.0,1.0,phase_2,go,700.0,650.0,1.0,,,,,,,,,cyan,I
0.0,6.0,2.0,1.0,6.0,6.0,294.1664469999523,5.0,1.0,phase_2,stop,700.0,650.0,3.0,,,,,,,,,magenta,flipped triangle
0.0,6.0,2.0,1.0,6.0,6.0,405.2082529997278,5.0,1.0,phase_2,stop,700.0,600.0,3.0,,,,,,,,,magenta,flipped triangle
0.0,1.0,1.0,0.0,5.0,5.0,595.8878679994086,5.0,1.0,phase_2,go,700.0,550.0,1.0,,,,,,,,,yellow,circle
0.0,4.0,4.0,0.0,5.0,5.0,326.8869600015023,5.0,1.0,phase_2,go,700.0,550.0,1.0,,,,,,,,,blue,diamond
0.0,2.0,2.0,0.0,6.0,6.0,558.8912359999085,5.0,1.0,phase_2,go,700.0,550.0,1.0,,,,,,,,,gray,triangle
0.0,6.0,2.0,1.0,5.0,5.0,490.6318270004703,5.0,1.0,phase_2,go,700.0,550.0,1.0,,,,,,,,,magenta,flipped triangle
0.0,5.0,1.0,1.0,6.0,6.0,412.6472610005294,5.0,1.0,phase_2,stop,700.0,550.0,3.0,,,,,,,,,green,cross
0.0,7.0,3.0,1.0,5.0,5.0,484.1146010003285,5.0,1.0,phase_2,stop,700.0,500.0,3.0,,,,,,,,,orange,square
0.0,1.0,1.0,0.0,5.0,5.0,586.9906710013311,5.0,1.0,phase_2,go,650.0,500.0,1.0,,,,,,,,,yellow,circle
0.0,7.0,3.0,1.0,5.0,5.0,435.3811740002129,5.0,1.0,phase_2,stop,650.0,500.0,3.0,,,,,,,,,orange,square
0.0,8.0,4.0,1.0,5.0,5.0,528.5137270002451,5.0,1.0,phase_2,stop,600.0,500.0,3.0,,,,,,,,,white,hexagon
0.0,4.0,4.0,0.0,6.0,6.0,746.7308220002451,5.0,1.0,phase_2,go,550.0,500.0,1.0,,,,,,,,,blue,diamond
0.0,7.0,3.0,1.0,6.0,6.0,322.3157429983985,5.0,1.0,phase_2,go,550.0,500.0,1.0,,,,,,,,,orange,square
0.0,5.0,1.0,1.0,5.0,5.0,681.2045609985944,5.0,1.0,phase_2,stop,550.0,500.0,3.0,,,,,,,,,green,cross
0.0,5.0,1.0,1.0,6.0,0.0,0.0,5.0,1.0,phase_2,stop,500.0,500.0,4.0,,,,,,,,,green,cross
0.0,3.0,3.0,0.0,5.0,5.0,767.696574999718,5.0,1.0,phase_2,go,500.0,550.0,1.0,,,,,,,,,cyan,I
0.0,3.0,3.0,0.0,6.0,6.0,832.6372920000722,5.0,1.0,phase_2,go,500.0,550.0,1.0,,,,,,,,,cyan,I
0.0,8.0,4.0,1.0,6.0,0.0,0.0,5.0,1.0,phase_2,stop,500.0,550.0,4.0,,,,,,,,,white,hexagon
0.0,1.0,1.0,0.0,6.0,6.0,860.0203879996116,5.0,1.0,phase_2,go,500.0,600.0,1.0,,,,,,,,,yellow,circle
0.0,3.0,3.0,0.0,5.0,5.0,883.1927640003414,5.0,1.0,phase_2,go,500.0,600.0,1.0,,,,,,,,,cyan,I
0.0,3.0,3.0,0.0,6.0,6.0,709.808495001198,5.0,1.0,phase_2,go,500.0,600.0,1.0,,,,,,,,,cyan,I
0.0,3.0,3.0,0.0,5.0,5.0,652.4226940000517,5.0,1.0,phase_2,go,500.0,600.0,1.0,,,,,,,,,cyan,I
0.0,8.0,4.0,1.0,5.0,0.0,0.0,5.0,1.0,phase_2,stop,500.0,600.0,4.0,,,,,,,,,white,hexagon
0.0,2.0,2.0,0.0,5.0,5.0,651.5851109998039,5.0,1.0,phase_2,go,550.0,600.0,1.0,,,,,,,,,gray,triangle
0.0,8.0,4.0,1.0,6.0,6.0,683.3093009990989,5.0,1.0,phase_2,stop,550.0,600.0,3.0,,,,,,,,,white,hexagon
0.0,6.0,2.0,1.0,6.0,0.0,0.0,5.0,1.0,phase_2,stop,550.0,550.0,4.0,,,,,,,,,magenta,flipped triangle
0.0,2.0,2.0,0.0,6.0,6.0,791.3806870001281,5.0,1.0,phase_2,go,550.0,600.0,1.0,,,,,,,,,gray,triangle
0.0,1.0,1.0,0.0,6.0,6.0,392.3935029997665,5.0,1.0,phase_2,go,550.0,600.0,1.0,,,,,,,,,yellow,circle
0.0,1.0,1.0,0.0,5.0,5.0,582.0021709987486,5.0,1.0,phase_2,go,550.0,600.0,1.0,,,,,,,,,yellow,circle
0.0,5.0,1.0,1.0,6.0,6.0,760.0017719996686,5.0,1.0,phase_2,stop,550.0,600.0,3.0,,,,,,,,,green,cross
0.0,6.0,2.0,1.0,5.0,5.0,305.9792730000481,6.0,1.0,phase_2,stop,550.0,550.0,3.0,,,,,,,,,magenta,flipped triangle
0.0,7.0,3.0,1.0,5.0,5.0,569.0853469986905,6.0,1.0,phase_2,stop,500.0,550.0,3.0,,,,,,,,,orange,square
0.0,1.0,1.0,0.0,5.0,5.0,638.9087030001974,6.0,1.0,phase_2,go,450.0,550.0,1.0,,,,,,,,,yellow,circle
0.0,7.0,3.0,1.0,5.0,5.0,360.567429999719,6.0,1.0,phase_2,go,450.0,550.0,1.0,,,,,,,,,orange,square
0.0,1.0,1.0,0.0,5.0,5.0,543.6551530001452,6.0,1.0,phase_2,go,450.0,550.0,1.0,,,,,,,,,yellow,circle
0.0,6.0,2.0,1.0,5.0,5.0,294.1314250001596,6.0,1.0,phase_2,stop,450.0,550.0,3.0,,,,,,,,,magenta,flipped triangle
0.0,5.0,1.0,1.0,5.0,5.0,645.2218829999765,6.0,1.0,phase_2,go,400.0,550.0,1.0,,,,,,,,,green,cross
0.0,6.0,2.0,1.0,6.0,6.0,516.0615960012365,6.0,1.0,phase_2,stop,400.0,550.0,3.0,,,,,,,,,magenta,flipped triangle
0.0,8.0,4.0,1.0,5.0,5.0,651.6188500008866,6.0,1.0,phase_2,go,400.0,500.0,1.0,,,,,,,,,white,hexagon
0.0,1.0,1.0,0.0,6.0,6.0,477.7775140009908,6.0,1.0,phase_2,go,400.0,500.0,1.0,,,,,,,,,yellow,circle
0.0,3.0,3.0,0.0,5.0,5.0,626.4563229997293,6.0,1.0,phase_2,go,400.0,500.0,1.0,,,,,,,,,cyan,I
0.0,6.0,2.0,1.0,5.0,0.0,0.0,6.0,1.0,phase_2,stop,400.0,500.0,4.0,,,,,,,,,magenta,flipped triangle
0.0,6.0,2.0,1.0,6.0,6.0,715.5574299995351,6.0,1.0,phase_2,go,450.0,500.0,1.0,,,,,,,,,magenta,flipped triangle
0.0,7.0,3.0,1.0,5.0,0.0,0.0,6.0,1.0,phase_2,stop,450.0,500.0,4.0,,,,,,,,,orange,square
0.0,3.0,3.0,0.0,5.0,5.0,723.6629469989566,6.0,1.0,phase_2,go,500.0,500.0,1.0,,,,,,,,,cyan,I
0.0,7.0,3.0,1.0,6.0,6.0,595.1801009996416,6.0,1.0,phase_2,stop,500.0,500.0,3.0,,,,,,,,,orange,square
0.0,8.0,4.0,1.0,5.0,0.0,0.0,6.0,1.0,phase_2,stop,500.0,450.0,4.0,,,,,,,,,white,hexagon
0.0,8.0,4.0,1.0,5.0,5.0,585.0147989985999,6.0,1.0,phase_2,stop,550.0,450.0,3.0,,,,,,,,,white,hexagon
0.0,2.0,2.0,0.0,5.0,5.0,969.4906870008708,6.0,1.0,phase_2,go,500.0,450.0,1.0,,,,,,,,,gray,triangle
0.0,7.0,3.0,1.0,6.0,6.0,814.2832909998106,6.0,1.0,phase_2,go,500.0,450.0,1.0,,,,,,,,,orange,square
0.0,6.0,2.0,1.0,5.0,0.0,0.0,6.0,1.0,phase_2,stop,500.0,450.0,4.0,,,,,,,,,magenta,flipped triangle
0.0,4.0,4.0,0.0,6.0,6.0,876.3805419985147,6.0,1.0,phase_2,go,550.0,450.0,1.0,,,,,,,,,blue,diamond
0.0,5.0,1.0,1.0,6.0,6.0,787.6008049988741,6.0,1.0,phase_2,go,550.0,450.0,1.0,,,,,,,,,green,cross
0.0,7.0,3.0,1.0,5.0,5.0,925.7126899992728,6.0,1.0,phase_2,go,550.0,450.0,1.0,,,,,,,,,orange,square
0.0,2.0,2.0,0.0,6.0,6.0,794.7364499996183,6.0,1.0,phase_2,go,550.0,450.0,1.0,,,,,,,,,gray,triangle
0.0,1.0,1.0,0.0,5.0,5.0,853.911739999603,6.0,1.0,phase_2,go,550.0,450.0,1.0,,,,,,,,,yellow,circle
0.0,6.0,2.0,1.0,6.0,0.0,0.0,6.0,1.0,phase_2,stop,550.0,450.0,4.0,,,,,,,,,magenta,flipped triangle
0.0,8.0,4.0,1.0,6.0,0.0,0.0,6.0,1.0,phase_2,stop,550.0,500.0,4.0,,,,,,,,,white,hexagon
0.0,4.0,4.0,0.0,5.0,5.0,675.2185649984312,6.0,1.0,phase_2,go,550.0,550.0,1.0,,,,,,,,,blue,diamond
0.0,5.0,1.0,1.0,6.0,6.0,640.180877999228,6.0,1.0,phase_2,stop,550.0,550.0,3.0,,,,,,,,,green,cross
0.0,5.0,1.0,1.0,5.0,5.0,490.4607880016556,6.0,1.0,phase_2,stop,550.0,500.0,3.0,,,,,,,,,green,cross
0.0,7.0,3.0,1.0,5.0,5.0,758.6208649991022,6.0,1.0,phase_2,go,500.0,500.0,1.0,,,,,,,,,orange,square
0.0,7.0,3.0,1.0,6.0,6.0,751.8290520001756,6.0,1.0,phase_2,go,500.0,500.0,1.0,,,,,,,,,orange,square
0.0,5.0,1.0,1.0,5.0,0.0,0.0,6.0,1.0,phase_2,stop,500.0,500.0,4.0,,,,,,,,,green,cross
0.0,4.0,4.0,0.0,5.0,5.0,565.1842110000871,6.0,1.0,phase_2,go,550.0,500.0,1.0,,,,,,,,,blue,diamond
0.0,3.0,3.0,0.0,6.0,6.0,350.435827000183,6.0,1.0,phase_2,go,550.0,500.0,1.0,,,,,,,,,cyan,I
0.0,3.0,3.0,0.0,5.0,5.0,293.5007929991116,7.0,1.0,phase_2,go,550.0,500.0,1.0,,,,,,,,,cyan,I
0.0,4.0,4.0,0.0,6.0,6.0,276.1369429990736,7.0,1.0,phase_2,go,550.0,500.0,1.0,,,,,,,,,blue,diamond
0.0,1.0,1.0,0.0,6.0,6.0,414.0791780009749,7.0,1.0,phase_2,go,550.0,500.0,1.0,,,,,,,,,yellow,circle
0.0,6.0,2.0,1.0,6.0,6.0,522.7007650009909,7.0,1.0,phase_2,go,550.0,500.0,1.0,,,,,,,,,magenta,flipped triangle
0.0,4.0,4.0,0.0,5.0,5.0,268.8493299992842,7.0,1.0,phase_2,go,550.0,500.0,1.0,,,,,,,,,blue,diamond
0.0,3.0,3.0,0.0,6.0,6.0,244.7116269995604,7.0,1.0,phase_2,go,550.0,500.0,1.0,,,,,,,,,cyan,I
0.0,5.0,1.0,1.0,5.0,5.0,465.1518710015807,7.0,1.0,phase_2,stop,550.0,500.0,3.0,,,,,,,,,green,cross
0.0,2.0,2.0,0.0,5.0,5.0,536.6846960005205,7.0,1.0,phase_2,go,500.0,500.0,1.0,,,,,,,,,gray,triangle
0.0,5.0,1.0,1.0,6.0,6.0,264.328328999909,7.0,1.0,phase_2,go,500.0,500.0,1.0,,,,,,,,,green,cross
0.0,2.0,2.0,0.0,6.0,6.0,289.6646839999448,7.0,1.0,phase_2,go,500.0,500.0,1.0,,,,,,,,,gray,triangle
0.0,4.0,4.0,0.0,6.0,6.0,306.4846720008063,7.0,1.0,phase_2,go,500.0,500.0,1.0,,,,,,,,,blue,diamond
0.0,8.0,4.0,1.0,6.0,6.0,342.8292690005037,7.0,1.0,phase_2,stop,500.0,500.0,3.0,,,,,,,,,white,hexagon
0.0,7.0,3.0,1.0,6.0,6.0,322.1788599985302,7.0,1.0,phase_2,stop,500.0,450.0,3.0,,,,,,,,,orange,square
0.0,2.0,2.0,0.0,5.0,5.0,550.9996429991588,7.0,1.0,phase_2,go,500.0,400.0,1.0,,,,,,,,,gray,triangle
0.0,3.0,3.0,0.0,5.0,5.0,439.2844289995992,7.0,1.0,phase_2,go,500.0,400.0,1.0,,,,,,,,,cyan,I
0.0,4.0,4.0,0.0,5.0,5.0,285.0613810005598,7.0,1.0,phase_2,go,500.0,400.0,1.0,,,,,,,,,blue,diamond
0.0,6.0,2.0,1.0,6.0,6.0,327.4728000014875,7.0,1.0,phase_2,stop,500.0,400.0,3.0,,,,,,,,,magenta,flipped triangle
0.0,8.0,4.0,1.0,6.0,6.0,459.0282899989688,7.0,1.0,phase_2,go,500.0,350.0,1.0,,,,,,,,,white,hexagon
0.0,1.0,1.0,0.0,6.0,6.0,612.7364439998928,7.0,1.0,phase_2,go,500.0,350.0,1.0,,,,,,,,,yellow,circle
0.0,8.0,4.0,1.0,5.0,5.0,309.6530239999993,7.0,1.0,phase_2,stop,500.0,350.0,3.0,,,,,,,,,white,hexagon
0.0,2.0,2.0,0.0,5.0,5.0,570.6320669996785,7.0,1.0,phase_2,go,450.0,350.0,1.0,,,,,,,,,gray,triangle
0.0,2.0,2.0,0.0,6.0,6.0,260.2191569985734,7.0,1.0,phase_2,go,450.0,350.0,1.0,,,,,,,,,gray,triangle
0.0,5.0,1.0,1.0,5.0,0.0,0.0,7.0,1.0,phase_2,stop,450.0,350.0,4.0,,,,,,,,,green,cross
0.0,5.0,1.0,1.0,6.0,6.0,760.355966998759,7.0,1.0,phase_2,go,500.0,350.0,1.0,,,,,,,,,green,cross
0.0,3.0,3.0,0.0,5.0,5.0,537.9557060005027,7.0,1.0,phase_2,go,500.0,350.0,1.0,,,,,,,,,cyan,I
0.0,1.0,1.0,0.0,5.0,5.0,354.3472709989146,7.0,1.0,phase_2,go,500.0,350.0,1.0,,,,,,,,,yellow,circle
0.0,2.0,2.0,0.0,5.0,5.0,350.2419989999907,7.0,1.0,phase_2,go,500.0,350.0,1.0,,,,,,,,,gray,triangle
0.0,4.0,4.0,0.0,5.0,5.0,302.4531770006433,7.0,1.0,phase_2,go,500.0,350.0,1.0,,,,,,,,,blue,diamond
0.0,8.0,4.0,1.0,5.0,5.0,606.6129729988461,7.0,1.0,phase_2,stop,500.0,350.0,3.0,,,,,,,,,white,hexagon
0.0,1.0,1.0,0.0,6.0,6.0,397.1417560005648,7.0,1.0,phase_2,go,450.0,350.0,1.0,,,,,,,,,yellow,circle
0.0,7.0,3.0,1.0,5.0,5.0,659.7290600002452,7.0,1.0,phase_2,go,450.0,350.0,1.0,,,,,,,,,orange,square
0.0,1.0,1.0,0.0,5.0,5.0,284.5056260011915,7.0,1.0,phase_2,go,450.0,350.0,1.0,,,,,,,,,yellow,circle
0.0,4.0,4.0,0.0,5.0,5.0,506.7855489996873,7.0,1.0,phase_2,go,450.0,350.0,1.0,,,,,,,,,blue,diamond
0.0,4.0,4.0,0.0,6.0,6.0,309.0157700007694,7.0,1.0,phase_2,go,450.0,350.0,1.0,,,,,,,,,blue,diamond
0.0,7.0,3.0,1.0,6.0,6.0,371.3753940010065,7.0,1.0,phase_2,stop,450.0,350.0,3.0,,,,,,,,,orange,square
0.0,6.0,2.0,1.0,6.0,6.0,537.4340170001233,7.0,1.0,phase_2,go,450.0,300.0,1.0,,,,,,,,,magenta,flipped triangle
0.0,5.0,1.0,1.0,5.0,5.0,278.1922750000376,8.0,1.0,phase_2,stop,450.0,300.0,3.0,,,,,,,,,green,cross
0.0,4.0,4.0,0.0,5.0,5.0,293.5915599991858,8.0,1.0,phase_2,go,400.0,300.0,1.0,,,,,,,,,blue,diamond
0.0,1.0,1.0,0.0,5.0,5.0,260.4547549999552,8.0,1.0,phase_2,go,400.0,300.0,1.0,,,,,,,,,yellow,circle
0.0,8.0,4.0,1.0,6.0,6.0,276.468501000636,8.0,1.0,phase_2,stop,400.0,300.0,3.0,,,,,,,,,white,hexagon
0.0,8.0,4.0,1.0,5.0,5.0,260.2844819994061,8.0,1.0,phase_2,stop,400.0,250.0,3.0,,,,,,,,,white,hexagon
0.0,4.0,4.0,0.0,5.0,5.0,452.0365669995954,8.0,1.0,phase_2,go,350.0,250.0,1.0,,,,,,,,,blue,diamond
0.0,3.0,3.0,0.0,6.0,6.0,466.4929430000484,8.0,1.0,phase_2,go,350.0,250.0,1.0,,,,,,,,,cyan,I
0.0,7.0,3.0,1.0,6.0,0.0,0.0,8.0,1.0,phase_2,stop,350.0,250.0,4.0,,,,,,,,,orange,square
0.0,3.0,3.0,0.0,5.0,5.0,491.2575689995719,8.0,1.0,phase_2,go,350.0,300.0,1.0,,,,,,,,,cyan,I
0.0,1.0,1.0,0.0,6.0,6.0,290.8493739996629,8.0,1.0,phase_2,go,350.0,300.0,1.0,,,,,,,,,yellow,circle
0.0,4.0,4.0,0.0,6.0,6.0,330.0271940006496,8.0,1.0,phase_2,go,350.0,300.0,1.0,,,,,,,,,blue,diamond
0.0,1.0,1.0,0.0,6.0,6.0,549.9280929998349,8.0,1.0,phase_2,go,350.0,300.0,1.0,,,,,,,,,yellow,circle
0.0,6.0,2.0,1.0,5.0,5.0,280.4762790001405,8.0,1.0,phase_2,stop,350.0,300.0,3.0,,,,,,,,,magenta,flipped triangle
0.0,8.0,4.0,1.0,5.0,5.0,263.3679250011482,8.0,1.0,phase_2,go,300.0,300.0,1.0,,,,,,,,,white,hexagon
0.0,2.0,2.0,0.0,6.0,6.0,276.5820290005649,8.0,1.0,phase_2,go,300.0,300.0,1.0,,,,,,,,,gray,triangle
0.0,4.0,4.0,0.0,5.0,5.0,301.4806760002102,8.0,1.0,phase_2,go,300.0,300.0,1.0,,,,,,,,,blue,diamond
0.0,5.0,1.0,1.0,6.0,6.0,260.760658999061,8.0,1.0,phase_2,stop,300.0,300.0,3.0,,,,,,,,,green,cross
0.0,3.0,3.0,0.0,5.0,5.0,317.7441780007939,8.0,1.0,phase_2,go,300.0,250.0,1.0,,,,,,,,,cyan,I
0.0,8.0,4.0,1.0,6.0,0.0,0.0,8.0,1.0,phase_2,stop,300.0,250.0,4.0,,,,,,,,,white,hexagon
0.0,4.0,4.0,0.0,5.0,5.0,268.2162349992723,8.0,1.0,phase_2,go,300.0,300.0,1.0,,,,,,,,,blue,diamond
0.0,6.0,2.0,1.0,6.0,6.0,326.2098529994546,8.0,1.0,phase_2,stop,300.0,300.0,3.0,,,,,,,,,magenta,flipped triangle
0.0,7.0,3.0,1.0,6.0,6.0,339.3291709999175,8.0,1.0,phase_2,stop,300.0,250.0,3.0,,,,,,,,,orange,square
0.0,3.0,3.0,0.0,6.0,6.0,513.3361329990294,8.0,1.0,phase_2,go,300.0,200.0,1.0,,,,,,,,,cyan,I
0.0,8.0,4.0,1.0,5.0,5.0,450.9456360010517,8.0,1.0,phase_2,go,300.0,200.0,1.0,,,,,,,,,white,hexagon
0.0,3.0,3.0,0.0,6.0,6.0,464.5411040000908,8.0,1.0,phase_2,go,300.0,200.0,1.0,,,,,,,,,cyan,I
0.0,3.0,3.0,0.0,6.0,6.0,574.102099000811,8.0,1.0,phase_2,go,300.0,200.0,1.0,,,,,,,,,cyan,I
0.0,7.0,3.0,1.0,6.0,0.0,0.0,8.0,1.0,phase_2,stop,300.0,200.0,4.0,,,,,,,,,orange,square
0.0,2.0,2.0,0.0,5.0,5.0,311.2327460003143,8.0,1.0,phase_2,go,300.0,250.0,1.0,,,,,,,,,gray,triangle
0.0,1.0,1.0,0.0,5.0,5.0,484.1559920005238,8.0,1.0,phase_2,go,300.0,250.0,1.0,,,,,,,,,yellow,circle
0.0,3.0,3.0,0.0,6.0,6.0,420.0571609999315,8.0,1.0,phase_2,go,300.0,250.0,1.0,,,,,,,,,cyan,I
0.0,2.0,2.0,0.0,6.0,6.0,291.4758619990607,8.0,1.0,phase_2,go,300.0,250.0,1.0,,,,,,,,,gray,triangle
0.0,8.0,4.0,1.0,5.0,5.0,319.6309949998976,8.0,1.0,phase_2,stop,300.0,250.0,3.0,,,,,,,,,white,hexagon
0.0,2.0,2.0,0.0,6.0,6.0,556.8468199999188,8.0,1.0,phase_2,go,250.0,250.0,1.0,,,,,,,,,gray,triangle
0.0,2.0,2.0,0.0,5.0,5.0,275.9079330007807,8.0,1.0,phase_2,go,250.0,250.0,1.0,,,,,,,,,gray,triangle
0.0,3.0,3.0,0.0,6.0,6.0,473.1239859993366,8.0,1.0,phase_2,go,250.0,250.0,1.0,,,,,,,,,cyan,I
0.0,2.0,2.0,0.0,6.0,6.0,316.5094180003507,8.0,1.0,phase_2,go,250.0,250.0,1.0,,,,,,,,,gray,triangle
0.0,3.0,3.0,0.0,7.0,4.0,2130.087929001093,1.0,2.0,phase_3,,,,,136.0,4.0,204.0,102.0,34.0,136.0,68.0,170.0,cyan,I
0.0,3.0,3.0,0.0,7.0,5.0,1503.9920270010043,1.0,1.0,phase_3,,,,,270.0,5.0,108.0,216.0,324.0,54.0,270.0,162.0,cyan,I
0.0,8.0,4.0,1.0,7.0,2.0,1385.5055599997286,1.0,1.0,phase_3,,,,,136.0,4.0,34.0,136.0,204.0,68.0,170.0,102.0,white,hexagon
0.0,8.0,4.0,1.0,7.0,4.0,1306.6693420005322,1.0,1.0,phase_3,,,,,216.0,4.0,270.0,54.0,324.0,216.0,162.0,108.0,white,hexagon
0.0,5.0,1.0,1.0,7.0,2.0,1835.4618459998164,1.0,1.0,phase_3,,,,,216.0,4.0,54.0,216.0,270.0,108.0,324.0,162.0,green,cross
0.0,4.0,4.0,0.0,7.0,4.0,1072.7203039987216,1.0,1.0,phase_3,,,,,176.0,4.0,132.0,220.0,44.0,176.0,264.0,88.0,blue,diamond
0.0,6.0,2.0,1.0,7.0,3.0,1272.6147530011076,1.0,1.0,phase_3,,,,,98.0,2.0,147.0,245.0,98.0,49.0,196.0,294.0,magenta,flipped triangle
0.0,5.0,1.0,1.0,7.0,6.0,1546.6920319995552,1.0,1.0,phase_3,,,,,102.0,3.0,170.0,34.0,204.0,136.0,68.0,102.0,green,cross
0.0,4.0,4.0,0.0,7.0,3.0,1112.8923739997845,1.0,1.0,phase_3,,,,,170.0,5.0,102.0,34.0,170.0,136.0,68.0,204.0,blue,diamond
0.0,7.0,3.0,1.0,7.0,5.0,1044.512663000205,1.0,1.0,phase_3,,,,,98.0,2.0,294.0,49.0,245.0,147.0,98.0,196.0,orange,square
0.0,5.0,1.0,1.0,7.0,4.0,1173.6745159996644,1.0,1.0,phase_3,,,,,98.0,2.0,147.0,196.0,49.0,98.0,245.0,294.0,green,cross
0.0,3.0,3.0,0.0,7.0,5.0,1407.998120999764,1.0,1.0,phase_3,,,,,216.0,4.0,108.0,162.0,270.0,54.0,216.0,324.0,cyan,I
0.0,6.0,2.0,1.0,7.0,4.0,1440.2709779988072,1.0,1.0,phase_3,,,,,136.0,4.0,102.0,68.0,170.0,136.0,204.0,34.0,magenta,flipped triangle
0.0,4.0,4.0,0.0,7.0,2.0,1313.2653259999645,1.0,1.0,phase_3,,,,,68.0,2.0,136.0,68.0,204.0,34.0,170.0,102.0,blue,diamond
0.0,1.0,1.0,0.0,7.0,1.0,1529.8702860000049,1.0,1.0,phase_3,,,,,136.0,4.0,136.0,204.0,170.0,34.0,102.0,68.0,yellow,circle
0.0,3.0,3.0,0.0,7.0,2.0,1956.2535599998228,1.0,1.0,phase_3,,,,,132.0,3.0,44.0,132.0,264.0,88.0,176.0,220.0,cyan,I
0.0,7.0,3.0,1.0,7.0,4.0,1286.4381290000892,1.0,1.0,phase_3,,,,,176.0,4.0,88.0,132.0,264.0,176.0,44.0,220.0,orange,square
0.0,1.0,1.0,0.0,7.0,4.0,1373.235075001503,1.0,1.0,phase_3,,,,,78.0,2.0,156.0,234.0,195.0,78.0,117.0,39.0,yellow,circle
0.0,5.0,1.0,1.0,7.0,3.0,1070.6452770009491,1.0,1.0,phase_3,,,,,147.0,3.0,294.0,245.0,147.0,49.0,98.0,196.0,green,cross
0.0,6.0,2.0,1.0,7.0,1.0,2032.710796000174,1.0,1.0,phase_3,,,,,216.0,4.0,216.0,54.0,162.0,108.0,270.0,324.0,magenta,flipped triangle
0.0,1.0,1.0,0.0,7.0,4.0,1472.233360998871,2.0,1.0,phase_3,,,,,88.0,2.0,220.0,44.0,264.0,88.0,132.0,176.0,yellow,circle
0.0,3.0,3.0,0.0,7.0,3.0,1006.580388000657,2.0,1.0,phase_3,,,,,204.0,6.0,34.0,102.0,204.0,170.0,136.0,68.0,cyan,I
0.0,5.0,1.0,1.0,7.0,5.0,1017.8353999999672,2.0,1.0,phase_3,,,,,220.0,5.0,132.0,44.0,88.0,264.0,220.0,176.0,green,cross
0.0,6.0,2.0,1.0,7.0,4.0,1181.2422140010312,2.0,1.0,phase_3,,,,,176.0,4.0,44.0,88.0,264.0,176.0,220.0,132.0,magenta,flipped triangle
0.0,1.0,1.0,0.0,7.0,1.0,2044.6909199999936,2.0,1.0,phase_3,,,,,170.0,5.0,170.0,68.0,136.0,34.0,102.0,204.0,yellow,circle
0.0,1.0,1.0,0.0,7.0,4.0,684.8166839990881,2.0,1.0,phase_3,,,,,245.0,5.0,196.0,294.0,98.0,245.0,49.0,147.0,yellow,circle
0.0,2.0,2.0,0.0,7.0,2.0,1615.606838999156,2.0,1.0,phase_3,,,,,234.0,6.0,39.0,234.0,78.0,156.0,117.0,195.0,gray,triangle
0.0,3.0,3.0,0.0,7.0,4.0,1104.9200130000827,2.0,1.0,phase_3,,,,,176.0,4.0,44.0,264.0,220.0,176.0,132.0,88.0,cyan,I
0.0,3.0,3.0,0.0,7.0,6.0,1043.210100999204,2.0,1.0,phase_3,,,,,98.0,2.0,147.0,245.0,196.0,294.0,49.0,98.0,cyan,I
0.0,7.0,3.0,1.0,7.0,3.0,946.1315859989554,2.0,1.0,phase_3,,,,,170.0,5.0,136.0,102.0,170.0,204.0,34.0,68.0,orange,square
0.0,2.0,2.0,0.0,7.0,4.0,1196.8704339997205,2.0,1.0,phase_3,,,,,117.0,3.0,195.0,78.0,39.0,117.0,156.0,234.0,gray,triangle
0.0,8.0,4.0,1.0,7.0,3.0,1959.5612350003648,2.0,1.0,phase_3,,,,,156.0,4.0,117.0,39.0,156.0,234.0,78.0,195.0,white,hexagon
0.0,3.0,3.0,0.0,7.0,3.0,998.5818169989216,2.0,1.0,phase_3,,,,,234.0,6.0,39.0,156.0,234.0,78.0,117.0,195.0,cyan,I
0.0,6.0,2.0,1.0,7.0,6.0,1266.1795139993046,2.0,1.0,phase_3,,,,,196.0,4.0,49.0,294.0,147.0,245.0,98.0,196.0,magenta,flipped triangle
0.0,5.0,1.0,1.0,7.0,5.0,1188.0993360009595,2.0,1.0,phase_3,,,,,170.0,5.0,34.0,68.0,102.0,136.0,170.0,204.0,green,cross
0.0,8.0,4.0,1.0,7.0,4.0,882.0820149994688,2.0,1.0,phase_3,,,,,196.0,4.0,294.0,245.0,98.0,196.0,49.0,147.0,white,hexagon
0.0,4.0,4.0,0.0,7.0,3.0,931.464938001227,2.0,1.0,phase_3,,,,,245.0,5.0,196.0,147.0,245.0,98.0,294.0,49.0,blue,diamond
0.0,6.0,2.0,1.0,7.0,5.0,1007.3437770006419,2.0,1.0,phase_3,,,,,216.0,4.0,162.0,324.0,108.0,54.0,216.0,270.0,magenta,flipped triangle
0.0,4.0,4.0,0.0,7.0,3.0,1416.3842010002554,2.0,1.0,phase_3,,,,,216.0,4.0,270.0,324.0,216.0,108.0,162.0,54.0,blue,diamond
0.0,7.0,3.0,1.0,7.0,3.0,1162.4272540011589,2.0,1.0,phase_3,,,,,156.0,4.0,234.0,39.0,156.0,117.0,195.0,78.0,orange,square
0.0,7.0,3.0,1.0,7.0,3.0,968.355392000376,3.0,1.0,phase_3,,,,,220.0,5.0,44.0,264.0,220.0,176.0,132.0,88.0,orange,square
0.0,3.0,3.0,0.0,7.0,4.0,984.327514001052,3.0,1.0,phase_3,,,,,234.0,6.0,39.0,78.0,117.0,234.0,195.0,156.0,cyan,I
0.0,6.0,2.0,1.0,7.0,5.0,1275.160870000036,3.0,1.0,phase_3,,,,,102.0,3.0,136.0,34.0,68.0,204.0,102.0,170.0,magenta,flipped triangle
0.0,5.0,1.0,1.0,7.0,3.0,1067.1296429991344,3.0,1.0,phase_3,,,,,234.0,6.0,156.0,117.0,234.0,39.0,78.0,195.0,green,cross
0.0,1.0,1.0,0.0,7.0,6.0,1694.559419000143,3.0,1.0,phase_3,,,,,270.0,5.0,162.0,108.0,54.0,216.0,324.0,270.0,yellow,circle
0.0,5.0,1.0,1.0,7.0,3.0,1031.6008690006129,3.0,1.0,phase_3,,,,,220.0,5.0,88.0,132.0,220.0,264.0,176.0,44.0,green,cross
0.0,7.0,3.0,1.0,7.0,3.0,1537.7606470010503,3.0,1.0,phase_3,,,,,195.0,5.0,78.0,156.0,195.0,39.0,234.0,117.0,orange,square
0.0,4.0,4.0,0.0,7.0,3.0,1135.8281819993865,3.0,1.0,phase_3,,,,,156.0,4.0,117.0,78.0,156.0,234.0,39.0,195.0,blue,diamond
0.0,6.0,2.0,1.0,7.0,2.0,660.8147489987459,3.0,1.0,phase_3,,,,,156.0,4.0,39.0,156.0,117.0,234.0,78.0,195.0,magenta,flipped triangle
0.0,4.0,4.0,0.0,7.0,2.0,1619.3249019997893,3.0,1.0,phase_3,,,,,216.0,4.0,162.0,216.0,324.0,108.0,54.0,270.0,blue,diamond
0.0,3.0,3.0,0.0,7.0,6.0,1182.8845519994502,3.0,1.0,phase_3,,,,,245.0,5.0,196.0,98.0,294.0,147.0,49.0,245.0,cyan,I
0.0,1.0,1.0,0.0,7.0,4.0,1119.744524999987,3.0,1.0,phase_3,,,,,216.0,4.0,54.0,324.0,108.0,216.0,270.0,162.0,yellow,circle
0.0,2.0,2.0,0.0,7.0,3.0,992.3252040007357,3.0,1.0,phase_3,,,,,196.0,4.0,147.0,49.0,196.0,294.0,98.0,245.0,gray,triangle
0.0,2.0,2.0,0.0,7.0,4.0,610.6095200011623,3.0,1.0,phase_3,,,,,176.0,4.0,44.0,220.0,88.0,176.0,132.0,264.0,gray,triangle
0.0,2.0,2.0,0.0,7.0,2.0,1516.3353209991328,3.0,1.0,phase_3,,,,,102.0,3.0,68.0,102.0,204.0,34.0,170.0,136.0,gray,triangle
0.0,7.0,3.0,1.0,7.0,4.0,1021.7273449998174,3.0,1.0,phase_3,,,,,196.0,4.0,294.0,147.0,49.0,196.0,98.0,245.0,orange,square
0.0,1.0,1.0,0.0,7.0,1.0,1958.1903650014283,3.0,1.0,phase_3,,,,,294.0,6.0,294.0,98.0,147.0,245.0,49.0,196.0,yellow,circle
0.0,7.0,3.0,1.0,7.0,3.0,1200.7385369997792,3.0,1.0,phase_3,,,,,270.0,5.0,108.0,324.0,270.0,216.0,162.0,54.0,orange,square
0.0,6.0,2.0,1.0,7.0,3.0,1407.675589000064,3.0,1.0,phase_3,,,,,176.0,4.0,132.0,220.0,176.0,44.0,88.0,264.0,magenta,flipped triangle
0.0,8.0,4.0,1.0,7.0,5.0,1298.2723870009067,3.0,1.0,phase_3,,,,,147.0,3.0,245.0,196.0,294.0,49.0,147.0,98.0,white,hexagon
0.0,2.0,2.0,0.0,7.0,2.0,1226.8154129997129,4.0,1.0,phase_3,,,,,245.0,5.0,98.0,245.0,49.0,196.0,294.0,147.0,gray,triangle
0.0,2.0,2.0,0.0,7.0,2.0,1027.1401179998063,4.0,1.0,phase_3,,,,,216.0,4.0,324.0,216.0,54.0,162.0,108.0,270.0,gray,triangle
0.0,2.0,2.0,0.0,7.0,4.0,1518.5194929999852,4.0,1.0,phase_3,,,,,170.0,5.0,136.0,102.0,204.0,170.0,34.0,68.0,gray,triangle
0.0,7.0,3.0,1.0,7.0,2.0,1527.8075879996322,4.0,1.0,phase_3,,,,,204.0,6.0,34.0,204.0,136.0,68.0,170.0,102.0,orange,square
0.0,5.0,1.0,1.0,7.0,6.0,1880.483255999934,4.0,1.0,phase_3,,,,,216.0,4.0,162.0,270.0,108.0,54.0,324.0,216.0,green,cross
0.0,8.0,4.0,1.0,7.0,4.0,1651.214961999358,4.0,1.0,phase_3,,,,,270.0,5.0,216.0,108.0,162.0,270.0,324.0,54.0,white,hexagon
0.0,4.0,4.0,0.0,7.0,2.0,1217.5603099985892,4.0,1.0,phase_3,,,,,176.0,4.0,132.0,176.0,44.0,88.0,220.0,264.0,blue,diamond
0.0,8.0,4.0,1.0,7.0,4.0,939.2231679994438,4.0,1.0,phase_3,,,,,132.0,3.0,88.0,264.0,44.0,132.0,220.0,176.0,white,hexagon
0.0,2.0,2.0,0.0,7.0,4.0,726.3806009996188,4.0,1.0,phase_3,,,,,216.0,4.0,270.0,324.0,54.0,216.0,162.0,108.0,gray,triangle
0.0,8.0,4.0,1.0,7.0,4.0,1190.8502179994684,4.0,1.0,phase_3,,,,,195.0,5.0,117.0,39.0,234.0,195.0,156.0,78.0,white,hexagon
0.0,5.0,1.0,1.0,7.0,2.0,1137.7276240000356,4.0,1.0,phase_3,,,,,234.0,6.0,117.0,234.0,78.0,39.0,195.0,156.0,green,cross
0.0,1.0,1.0,0.0,7.0,5.0,1036.5834959993665,4.0,1.0,phase_3,,,,,220.0,5.0,44.0,132.0,176.0,88.0,220.0,264.0,yellow,circle
0.0,6.0,2.0,1.0,7.0,5.0,788.2243359999848,4.0,1.0,phase_3,,,,,234.0,6.0,117.0,156.0,195.0,78.0,234.0,39.0,magenta,flipped triangle
0.0,7.0,3.0,1.0,7.0,3.0,1701.1800179989225,4.0,1.0,phase_3,,,,,270.0,5.0,54.0,324.0,270.0,108.0,162.0,216.0,orange,square
0.0,4.0,4.0,0.0,7.0,2.0,1376.005546999295,4.0,1.0,phase_3,,,,,245.0,5.0,147.0,245.0,196.0,98.0,49.0,294.0,blue,diamond
0.0,2.0,2.0,0.0,7.0,6.0,1046.9662079995032,4.0,1.0,phase_3,,,,,132.0,3.0,264.0,176.0,220.0,88.0,44.0,132.0,gray,triangle
0.0,1.0,1.0,0.0,7.0,4.0,984.1015080000944,4.0,1.0,phase_3,,,,,195.0,5.0,117.0,234.0,78.0,195.0,39.0,156.0,yellow,circle
0.0,4.0,4.0,0.0,7.0,2.0,1067.0581970007331,4.0,1.0,phase_3,,,,,195.0,5.0,117.0,195.0,39.0,78.0,234.0,156.0,blue,diamond
0.0,8.0,4.0,1.0,7.0,5.0,997.9773970007956,4.0,1.0,phase_3,,,,,136.0,4.0,204.0,68.0,170.0,34.0,136.0,102.0,white,hexagon
0.0,8.0,4.0,1.0,7.0,3.0,1102.9785650007398,4.0,1.0,phase_3,,,,,220.0,5.0,88.0,176.0,220.0,264.0,44.0,132.0,white,hexagon
