raw_reward_magnitude,stim_reward,stepwise_reward_magnitude,paired_with_stopping,stim_location,response,reaction_time,block,num_trial_presentations,which_phase,stop_signal_trial_type,left_SSD,right_SSD,accuracy,chosen_bidding_amount,chosen_bidding_level,possible_bid_1,possible_bid_2,possible_bid_3,possible_bid_4,possible_bid_5,possible_bid_6,color_text,shape_text
398.0,8.0,4.0,1.0,2.0,2.0,404.6769690030487,1.0,1.0,phase_1,,,,,,,,,,,,,cyan,cross
0.0,3.0,0.0,0.0,2.0,2.0,397.9752810009813,1.0,1.0,phase_1,,,,,,,,,,,,,orange,I
38.0,5.0,1.0,1.0,1.0,1.0,314.4372349997866,1.0,1.0,phase_1,,,,,,,,,,,,,gray,square
215.0,7.0,3.0,1.0,3.0,3.0,307.2543909984233,1.0,1.0,phase_1,,,,,,,,,,,,,magenta,diamond
380.0,4.0,4.0,0.0,4.0,4.0,302.3733490008453,1.0,1.0,phase_1,,,,,,,,,,,,,yellow,flipped triangle
184.0,7.0,3.0,1.0,3.0,3.0,449.3193960006465,1.0,1.0,phase_1,,,,,,,,,,,,,magenta,diamond
93.0,2.0,2.0,0.0,2.0,2.0,308.8489550027589,1.0,1.0,phase_1,,,,,,,,,,,,,green,circle
0.0,8.0,0.0,1.0,4.0,4.0,261.6539949995058,1.0,1.0,phase_1,,,,,,,,,,,,,cyan,cross
195.0,3.0,3.0,0.0,1.0,1.0,289.6847769989108,1.0,1.0,phase_1,,,,,,,,,,,,,orange,I
190.0,7.0,3.0,1.0,2.0,2.0,269.3369189983059,1.0,1.0,phase_1,,,,,,,,,,,,,magenta,diamond
99.0,6.0,2.0,1.0,1.0,1.0,291.7961700004525,1.0,1.0,phase_1,,,,,,,,,,,,,blue,triangle
99.0,6.0,2.0,1.0,4.0,4.0,285.8179419999942,1.0,1.0,phase_1,,,,,,,,,,,,,blue,triangle
376.0,8.0,4.0,1.0,4.0,4.0,322.7205859984678,1.0,1.0,phase_1,,,,,,,,,,,,,cyan,cross
0.0,7.0,0.0,1.0,2.0,2.0,313.9024410011188,1.0,1.0,phase_1,,,,,,,,,,,,,magenta,diamond
111.0,2.0,2.0,0.0,1.0,1.0,314.8008070020296,1.0,1.0,phase_1,,,,,,,,,,,,,green,circle
191.0,7.0,3.0,1.0,4.0,4.0,299.6708270002273,1.0,1.0,phase_1,,,,,,,,,,,,,magenta,diamond
191.0,7.0,3.0,1.0,1.0,1.0,263.3886460025678,1.0,1.0,phase_1,,,,,,,,,,,,,magenta,diamond
215.0,3.0,3.0,0.0,3.0,3.0,267.4815129976196,1.0,1.0,phase_1,,,,,,,,,,,,,orange,I
209.0,7.0,3.0,1.0,3.0,3.0,280.4740520004998,1.0,1.0,phase_1,,,,,,,,,,,,,magenta,diamond
38.0,1.0,1.0,0.0,3.0,3.0,283.7732209991372,1.0,1.0,phase_1,,,,,,,,,,,,,white,hexagon
397.0,4.0,4.0,0.0,3.0,3.0,279.7855130011157,1.0,1.0,phase_1,,,,,,,,,,,,,yellow,flipped triangle
212.0,3.0,3.0,0.0,1.0,1.0,271.4387429987255,1.0,1.0,phase_1,,,,,,,,,,,,,orange,I
116.0,2.0,2.0,0.0,4.0,4.0,258.4607620010501,1.0,1.0,phase_1,,,,,,,,,,,,,green,circle
85.0,2.0,2.0,0.0,2.0,2.0,304.0877240018744,1.0,1.0,phase_1,,,,,,,,,,,,,green,circle
177.0,7.0,3.0,1.0,1.0,1.0,273.7055809993762,1.0,1.0,phase_1,,,,,,,,,,,,,magenta,diamond
0.0,1.0,0.0,0.0,1.0,1.0,286.44802800045,1.0,1.0,phase_1,,,,,,,,,,,,,white,hexagon
0.0,6.0,0.0,1.0,2.0,2.0,298.7180519994581,1.0,1.0,phase_1,,,,,,,,,,,,,blue,triangle
52.0,5.0,1.0,1.0,3.0,3.0,266.7526679979346,1.0,1.0,phase_1,,,,,,,,,,,,,gray,square
414.0,4.0,4.0,0.0,3.0,3.0,270.2600349985005,1.0,1.0,phase_1,,,,,,,,,,,,,yellow,flipped triangle
30.0,5.0,1.0,1.0,3.0,3.0,258.7830459997349,1.0,1.0,phase_1,,,,,,,,,,,,,gray,square
189.0,3.0,3.0,0.0,1.0,1.0,280.7195919995138,1.0,1.0,phase_1,,,,,,,,,,,,,orange,I
82.0,2.0,2.0,0.0,2.0,2.0,437.207410002884,1.0,1.0,phase_1,,,,,,,,,,,,,green,circle
31.0,1.0,1.0,0.0,1.0,1.0,263.9573170017684,1.0,1.0,phase_1,,,,,,,,,,,,,white,hexagon
182.0,7.0,3.0,1.0,2.0,2.0,278.8585439993767,1.0,1.0,phase_1,,,,,,,,,,,,,magenta,diamond
422.0,8.0,4.0,1.0,3.0,3.0,294.172742000228,1.0,2.0,phase_1,,,,,,,,,,,,,cyan,cross
70.0,5.0,1.0,1.0,3.0,3.0,291.5469129984558,1.0,1.0,phase_1,,,,,,,,,,,,,gray,square
71.0,1.0,1.0,0.0,1.0,1.0,306.0460919987235,1.0,1.0,phase_1,,,,,,,,,,,,,white,hexagon
200.0,3.0,3.0,0.0,3.0,3.0,291.4165550027974,1.0,1.0,phase_1,,,,,,,,,,,,,orange,I
0.0,1.0,0.0,0.0,2.0,2.0,364.445205002994,1.0,2.0,phase_1,,,,,,,,,,,,,white,hexagon
43.0,1.0,1.0,0.0,1.0,1.0,267.2843129985267,1.0,1.0,phase_1,,,,,,,,,,,,,white,hexagon
0.0,5.0,0.0,1.0,2.0,2.0,280.8275329989556,1.0,1.0,phase_1,,,,,,,,,,,,,gray,square
419.0,4.0,4.0,0.0,2.0,2.0,309.8680380026053,1.0,1.0,phase_1,,,,,,,,,,,,,yellow,flipped triangle
74.0,1.0,1.0,0.0,3.0,3.0,311.6426620035781,1.0,1.0,phase_1,,,,,,,,,,,,,white,hexagon
189.0,3.0,3.0,0.0,1.0,1.0,284.4533399984357,1.0,1.0,phase_1,,,,,,,,,,,,,orange,I
202.0,7.0,3.0,1.0,2.0,2.0,291.9169600027089,1.0,1.0,phase_1,,,,,,,,,,,,,magenta,diamond
376.0,4.0,4.0,0.0,3.0,3.0,301.4746439985174,1.0,1.0,phase_1,,,,,,,,,,,,,yellow,flipped triangle
389.0,4.0,4.0,0.0,2.0,2.0,329.8645760005456,1.0,1.0,phase_1,,,,,,,,,,,,,yellow,flipped triangle
118.0,2.0,2.0,0.0,3.0,3.0,281.2462680012686,1.0,1.0,phase_1,,,,,,,,,,,,,green,circle
178.0,3.0,3.0,0.0,4.0,4.0,374.5120499988843,1.0,1.0,phase_1,,,,,,,,,,,,,orange,I
0.0,5.0,0.0,1.0,2.0,2.0,354.3978739980957,1.0,1.0,phase_1,,,,,,,,,,,,,gray,square
177.0,3.0,3.0,0.0,1.0,1.0,277.0534209994366,1.0,1.0,phase_1,,,,,,,,,,,,,orange,I
401.0,4.0,4.0,0.0,4.0,4.0,325.7519240032707,1.0,1.0,phase_1,,,,,,,,,,,,,yellow,flipped triangle
0.0,4.0,0.0,0.0,1.0,1.0,287.0952789999137,1.0,1.0,phase_1,,,,,,,,,,,,,yellow,flipped triangle
208.0,3.0,3.0,0.0,4.0,4.0,316.7378620019008,1.0,1.0,phase_1,,,,,,,,,,,,,orange,I
404.0,4.0,4.0,0.0,3.0,3.0,313.6354380003467,1.0,1.0,phase_1,,,,,,,,,,,,,yellow,flipped triangle
59.0,1.0,1.0,0.0,2.0,2.0,311.7145040014293,1.0,1.0,phase_1,,,,,,,,,,,,,white,hexagon
35.0,1.0,1.0,0.0,2.0,2.0,321.0211039986461,1.0,1.0,phase_1,,,,,,,,,,,,,white,hexagon
116.0,6.0,2.0,1.0,2.0,2.0,325.9189849995891,1.0,1.0,phase_1,,,,,,,,,,,,,blue,triangle
46.0,5.0,1.0,1.0,2.0,2.0,299.9069940015033,1.0,1.0,phase_1,,,,,,,,,,,,,gray,square
119.0,2.0,2.0,0.0,2.0,2.0,320.6957919974229,1.0,1.0,phase_1,,,,,,,,,,,,,green,circle
49.0,1.0,1.0,0.0,2.0,2.0,292.1787570012384,1.0,1.0,phase_1,,,,,,,,,,,,,white,hexagon
0.0,2.0,0.0,0.0,3.0,3.0,313.6420159971749,1.0,1.0,phase_1,,,,,,,,,,,,,green,circle
0.0,1.0,0.0,0.0,3.0,3.0,383.9225600022473,1.0,1.0,phase_1,,,,,,,,,,,,,white,hexagon
397.0,8.0,4.0,1.0,1.0,1.0,258.9352219983993,1.0,1.0,phase_1,,,,,,,,,,,,,cyan,cross
0.0,4.0,0.0,0.0,4.0,4.0,311.4400960002967,1.0,1.0,phase_1,,,,,,,,,,,,,yellow,flipped triangle
107.0,6.0,2.0,1.0,1.0,1.0,299.119936000352,1.0,1.0,phase_1,,,,,,,,,,,,,blue,triangle
63.0,5.0,1.0,1.0,3.0,3.0,312.019398999837,1.0,1.0,phase_1,,,,,,,,,,,,,gray,square
405.0,4.0,4.0,0.0,3.0,3.0,300.7762829984131,1.0,1.0,phase_1,,,,,,,,,,,,,yellow,flipped triangle
0.0,1.0,0.0,0.0,3.0,3.0,275.970855000196,1.0,1.0,phase_1,,,,,,,,,,,,,white,hexagon
178.0,7.0,3.0,1.0,3.0,3.0,318.8331109995488,1.0,1.0,phase_1,,,,,,,,,,,,,magenta,diamond
210.0,7.0,3.0,1.0,4.0,4.0,306.651934999536,1.0,1.0,phase_1,,,,,,,,,,,,,magenta,diamond
218.0,3.0,3.0,0.0,3.0,3.0,297.3025290011719,1.0,1.0,phase_1,,,,,,,,,,,,,orange,I
195.0,7.0,3.0,1.0,3.0,3.0,270.5347150003945,1.0,1.0,phase_1,,,,,,,,,,,,,magenta,diamond
191.0,3.0,3.0,0.0,2.0,2.0,498.271897999075,1.0,1.0,phase_1,,,,,,,,,,,,,orange,I
380.0,8.0,4.0,1.0,2.0,2.0,304.8415939992992,1.0,1.0,phase_1,,,,,,,,,,,,,cyan,cross
96.0,6.0,2.0,1.0,3.0,3.0,293.2903719993192,1.0,1.0,phase_1,,,,,,,,,,,,,blue,triangle
207.0,7.0,3.0,1.0,3.0,3.0,305.98284199732,1.0,1.0,phase_1,,,,,,,,,,,,,magenta,diamond
0.0,2.0,0.0,0.0,4.0,4.0,308.410820998688,1.0,1.0,phase_1,,,,,,,,,,,,,green,circle
218.0,7.0,3.0,1.0,3.0,3.0,273.9243799987889,1.0,1.0,phase_1,,,,,,,,,,,,,magenta,diamond
73.0,5.0,1.0,1.0,4.0,4.0,262.8358859983564,1.0,1.0,phase_1,,,,,,,,,,,,,gray,square
198.0,3.0,3.0,0.0,4.0,4.0,305.417984000087,1.0,2.0,phase_1,,,,,,,,,,,,,orange,I
50.0,1.0,1.0,0.0,1.0,1.0,309.509134000109,1.0,1.0,phase_1,,,,,,,,,,,,,white,hexagon
420.0,4.0,4.0,0.0,4.0,4.0,272.4730569971143,1.0,1.0,phase_1,,,,,,,,,,,,,yellow,flipped triangle
191.0,3.0,3.0,0.0,3.0,3.0,286.0390249988995,1.0,1.0,phase_1,,,,,,,,,,,,,orange,I
215.0,3.0,3.0,0.0,1.0,1.0,284.3231680017197,1.0,1.0,phase_1,,,,,,,,,,,,,orange,I
404.0,4.0,4.0,0.0,1.0,1.0,263.7715550008579,1.0,1.0,phase_1,,,,,,,,,,,,,yellow,flipped triangle
88.0,2.0,2.0,0.0,4.0,4.0,307.609298000898,1.0,1.0,phase_1,,,,,,,,,,,,,green,circle
0.0,3.0,0.0,0.0,2.0,2.0,359.6797740028705,1.0,1.0,phase_1,,,,,,,,,,,,,orange,I
41.0,5.0,1.0,1.0,4.0,4.0,357.9288629989605,1.0,1.0,phase_1,,,,,,,,,,,,,gray,square
0.0,2.0,0.0,0.0,3.0,3.0,362.5450119980087,1.0,1.0,phase_1,,,,,,,,,,,,,green,circle
35.0,5.0,1.0,1.0,2.0,2.0,328.612121000333,1.0,1.0,phase_1,,,,,,,,,,,,,gray,square
205.0,3.0,3.0,0.0,2.0,2.0,290.4115290002664,1.0,1.0,phase_1,,,,,,,,,,,,,orange,I
103.0,2.0,2.0,0.0,1.0,1.0,312.4873960005061,1.0,1.0,phase_1,,,,,,,,,,,,,green,circle
413.0,4.0,4.0,0.0,2.0,2.0,308.2709159971273,1.0,1.0,phase_1,,,,,,,,,,,,,yellow,flipped triangle
0.0,4.0,0.0,0.0,3.0,3.0,306.2080119998427,1.0,1.0,phase_1,,,,,,,,,,,,,yellow,flipped triangle
49.0,5.0,1.0,1.0,2.0,2.0,316.1772950006707,1.0,1.0,phase_1,,,,,,,,,,,,,gray,square
209.0,3.0,3.0,0.0,4.0,4.0,324.1503419994842,1.0,1.0,phase_1,,,,,,,,,,,,,orange,I
55.0,1.0,1.0,0.0,2.0,2.0,253.14496700229938,1.0,2.0,phase_1,,,,,,,,,,,,,white,hexagon
190.0,3.0,3.0,0.0,3.0,3.0,319.1036179996445,1.0,1.0,phase_1,,,,,,,,,,,,,orange,I
70.0,1.0,1.0,0.0,1.0,1.0,285.058237001067,1.0,1.0,phase_1,,,,,,,,,,,,,white,hexagon
0.0,8.0,0.0,1.0,3.0,3.0,599.3501000011747,2.0,1.0,phase_1,,,,,,,,,,,,,cyan,cross
215.0,7.0,3.0,1.0,1.0,1.0,371.5862949975417,2.0,1.0,phase_1,,,,,,,,,,,,,magenta,diamond
51.0,1.0,1.0,0.0,3.0,3.0,344.8331740000867,2.0,1.0,phase_1,,,,,,,,,,,,,white,hexagon
103.0,6.0,2.0,1.0,1.0,1.0,397.596947997954,2.0,1.0,phase_1,,,,,,,,,,,,,blue,triangle
0.0,2.0,0.0,0.0,2.0,2.0,283.4413720011071,2.0,1.0,phase_1,,,,,,,,,,,,,green,circle
105.0,2.0,2.0,0.0,2.0,2.0,277.0452460026718,2.0,1.0,phase_1,,,,,,,,,,,,,green,circle
382.0,8.0,4.0,1.0,3.0,3.0,442.3063750000437,2.0,1.0,phase_1,,,,,,,,,,,,,cyan,cross
46.0,1.0,1.0,0.0,3.0,3.0,313.0182159984542,2.0,1.0,phase_1,,,,,,,,,,,,,white,hexagon
99.0,2.0,2.0,0.0,3.0,3.0,300.9807639973587,2.0,1.0,phase_1,,,,,,,,,,,,,green,circle
118.0,2.0,2.0,0.0,2.0,2.0,283.7148260005051,2.0,1.0,phase_1,,,,,,,,,,,,,green,circle
0.0,7.0,0.0,1.0,1.0,1.0,278.6978229996748,2.0,1.0,phase_1,,,,,,,,,,,,,magenta,diamond
28.0,5.0,1.0,1.0,2.0,2.0,292.6421190022665,2.0,1.0,phase_1,,,,,,,,,,,,,gray,square
420.0,8.0,4.0,1.0,1.0,1.0,278.8931430004595,2.0,1.0,phase_1,,,,,,,,,,,,,cyan,cross
68.0,5.0,1.0,1.0,1.0,1.0,298.5937109988299,2.0,1.0,phase_1,,,,,,,,,,,,,gray,square
113.0,6.0,2.0,1.0,4.0,4.0,337.4259660013194,2.0,1.0,phase_1,,,,,,,,,,,,,blue,triangle
73.0,1.0,1.0,0.0,4.0,4.0,347.1546170003421,2.0,2.0,phase_1,,,,,,,,,,,,,white,hexagon
26.0,5.0,1.0,1.0,4.0,4.0,341.310757001338,2.0,1.0,phase_1,,,,,,,,,,,,,gray,square
0.0,7.0,0.0,1.0,4.0,4.0,378.5585869991337,2.0,1.0,phase_1,,,,,,,,,,,,,magenta,diamond
57.0,1.0,1.0,0.0,1.0,1.0,288.7018809997244,2.0,1.0,phase_1,,,,,,,,,,,,,white,hexagon
190.0,3.0,3.0,0.0,2.0,2.0,311.0979040029633,2.0,1.0,phase_1,,,,,,,,,,,,,orange,I
0.0,2.0,0.0,0.0,4.0,4.0,321.2960900018515,2.0,1.0,phase_1,,,,,,,,,,,,,green,circle
192.0,3.0,3.0,0.0,1.0,1.0,328.1678459970862,2.0,1.0,phase_1,,,,,,,,,,,,,orange,I
0.0,3.0,0.0,0.0,3.0,3.0,322.9695660011202,2.0,1.0,phase_1,,,,,,,,,,,,,orange,I
46.0,5.0,1.0,1.0,1.0,1.0,408.7518919986905,2.0,1.0,phase_1,,,,,,,,,,,,,gray,square
183.0,3.0,3.0,0.0,1.0,1.0,351.0338360028981,2.0,1.0,phase_1,,,,,,,,,,,,,orange,I
0.0,5.0,0.0,1.0,3.0,3.0,399.7955049999291,2.0,1.0,phase_1,,,,,,,,,,,,,gray,square
200.0,7.0,3.0,1.0,1.0,1.0,348.7526610006171,2.0,1.0,phase_1,,,,,,,,,,,,,magenta,diamond
416.0,8.0,4.0,1.0,4.0,4.0,307.9272270006186,2.0,1.0,phase_1,,,,,,,,,,,,,cyan,cross
31.0,5.0,1.0,1.0,3.0,3.0,337.8024510020623,2.0,1.0,phase_1,,,,,,,,,,,,,gray,square
50.0,1.0,1.0,0.0,3.0,3.0,348.472107998532,2.0,1.0,phase_1,,,,,,,,,,,,,white,hexagon
99.0,2.0,2.0,0.0,3.0,3.0,282.9471240002021,2.0,1.0,phase_1,,,,,,,,,,,,,green,circle
412.0,8.0,4.0,1.0,1.0,1.0,390.9815439983504,2.0,1.0,phase_1,,,,,,,,,,,,,cyan,cross
77.0,2.0,2.0,0.0,1.0,1.0,361.3101129994902,2.0,1.0,phase_1,,,,,,,,,,,,,green,circle
419.0,8.0,4.0,1.0,3.0,3.0,280.5015929989167,2.0,1.0,phase_1,,,,,,,,,,,,,cyan,cross
0.0,1.0,0.0,0.0,2.0,2.0,282.4130990011326,2.0,1.0,phase_1,,,,,,,,,,,,,white,hexagon
0.0,6.0,0.0,1.0,1.0,1.0,352.0441130021936,2.0,1.0,phase_1,,,,,,,,,,,,,blue,triangle
205.0,7.0,3.0,1.0,1.0,1.0,323.1878389997291,2.0,1.0,phase_1,,,,,,,,,,,,,magenta,diamond
98.0,2.0,2.0,0.0,4.0,4.0,345.0260579993482,2.0,1.0,phase_1,,,,,,,,,,,,,green,circle
0.0,2.0,0.0,0.0,2.0,2.0,302.6672000014514,2.0,1.0,phase_1,,,,,,,,,,,,,green,circle
0.0,1.0,0.0,0.0,1.0,1.0,308.7544970003364,2.0,1.0,phase_1,,,,,,,,,,,,,white,hexagon
97.0,6.0,2.0,1.0,3.0,3.0,271.7360009992262,2.0,1.0,phase_1,,,,,,,,,,,,,blue,triangle
124.0,2.0,2.0,0.0,2.0,2.0,238.2659440008865,2.0,1.0,phase_1,,,,,,,,,,,,,green,circle
185.0,3.0,3.0,0.0,4.0,4.0,296.3016430003335,2.0,1.0,phase_1,,,,,,,,,,,,,orange,I
425.0,8.0,4.0,1.0,4.0,4.0,359.4683599985728,2.0,1.0,phase_1,,,,,,,,,,,,,cyan,cross
220.0,3.0,3.0,0.0,3.0,3.0,460.0701870003831,2.0,1.0,phase_1,,,,,,,,,,,,,orange,I
121.0,6.0,2.0,1.0,4.0,4.0,325.7922310003778,2.0,1.0,phase_1,,,,,,,,,,,,,blue,triangle
0.0,8.0,0.0,1.0,3.0,3.0,315.2192580018891,2.0,1.0,phase_1,,,,,,,,,,,,,cyan,cross
425.0,4.0,4.0,0.0,3.0,3.0,295.1314359997923,2.0,1.0,phase_1,,,,,,,,,,,,,yellow,flipped triangle
0.0,8.0,0.0,1.0,2.0,2.0,301.5222280009766,2.0,1.0,phase_1,,,,,,,,,,,,,cyan,cross
411.0,4.0,4.0,0.0,1.0,1.0,304.4616660008614,2.0,1.0,phase_1,,,,,,,,,,,,,yellow,flipped triangle
85.0,6.0,2.0,1.0,2.0,2.0,365.4227139995782,2.0,1.0,phase_1,,,,,,,,,,,,,blue,triangle
30.0,1.0,1.0,0.0,2.0,2.0,324.8033089985256,2.0,1.0,phase_1,,,,,,,,,,,,,white,hexagon
179.0,7.0,3.0,1.0,1.0,1.0,281.5781969984527,2.0,1.0,phase_1,,,,,,,,,,,,,magenta,diamond
382.0,4.0,4.0,0.0,1.0,1.0,299.7087380026642,2.0,1.0,phase_1,,,,,,,,,,,,,yellow,flipped triangle
225.0,7.0,3.0,1.0,4.0,4.0,315.8739659993443,2.0,1.0,phase_1,,,,,,,,,,,,,magenta,diamond
380.0,8.0,4.0,1.0,4.0,4.0,324.3500479984504,2.0,1.0,phase_1,,,,,,,,,,,,,cyan,cross
413.0,8.0,4.0,1.0,2.0,2.0,321.0870149996481,2.0,1.0,phase_1,,,,,,,,,,,,,cyan,cross
208.0,7.0,3.0,1.0,3.0,3.0,320.8819630017387,2.0,1.0,phase_1,,,,,,,,,,,,,magenta,diamond
71.0,5.0,1.0,1.0,3.0,3.0,316.3938719990256,2.0,1.0,phase_1,,,,,,,,,,,,,gray,square
378.0,8.0,4.0,1.0,4.0,4.0,299.2635269984021,2.0,1.0,phase_1,,,,,,,,,,,,,cyan,cross
399.0,8.0,4.0,1.0,4.0,4.0,317.5578379996295,2.0,1.0,phase_1,,,,,,,,,,,,,cyan,cross
44.0,1.0,1.0,0.0,4.0,4.0,314.5809409979847,2.0,1.0,phase_1,,,,,,,,,,,,,white,hexagon
124.0,6.0,2.0,1.0,4.0,4.0,326.3252309989184,2.0,1.0,phase_1,,,,,,,,,,,,,blue,triangle
0.0,7.0,0.0,1.0,3.0,3.0,298.0896840017522,2.0,1.0,phase_1,,,,,,,,,,,,,magenta,diamond
179.0,3.0,3.0,0.0,2.0,2.0,273.1241090004914,2.0,1.0,phase_1,,,,,,,,,,,,,orange,I
217.0,3.0,3.0,0.0,2.0,2.0,302.6766479997604,2.0,1.0,phase_1,,,,,,,,,,,,,orange,I
0.0,3.0,0.0,0.0,4.0,4.0,411.3020969998615,2.0,1.0,phase_1,,,,,,,,,,,,,orange,I
189.0,7.0,3.0,1.0,4.0,4.0,360.7781669998076,2.0,1.0,phase_1,,,,,,,,,,,,,magenta,diamond
75.0,1.0,1.0,0.0,1.0,1.0,307.9123450006591,2.0,1.0,phase_1,,,,,,,,,,,,,white,hexagon
0.0,7.0,0.0,1.0,4.0,4.0,305.2735839992238,2.0,1.0,phase_1,,,,,,,,,,,,,magenta,diamond
0.0,3.0,0.0,0.0,4.0,4.0,307.1844719997898,2.0,1.0,phase_1,,,,,,,,,,,,,orange,I
207.0,3.0,3.0,0.0,2.0,2.0,264.2940290024853,2.0,1.0,phase_1,,,,,,,,,,,,,orange,I
86.0,6.0,2.0,1.0,3.0,3.0,313.144129999273,2.0,2.0,phase_1,,,,,,,,,,,,,blue,triangle
209.0,7.0,3.0,1.0,2.0,2.0,349.4432279985631,2.0,1.0,phase_1,,,,,,,,,,,,,magenta,diamond
199.0,7.0,3.0,1.0,4.0,4.0,316.0426930007816,2.0,1.0,phase_1,,,,,,,,,,,,,magenta,diamond
217.0,7.0,3.0,1.0,1.0,1.0,254.6869750003679,2.0,1.0,phase_1,,,,,,,,,,,,,magenta,diamond
204.0,7.0,3.0,1.0,2.0,2.0,261.7892199996277,2.0,1.0,phase_1,,,,,,,,,,,,,magenta,diamond
75.0,6.0,2.0,1.0,3.0,3.0,314.0981500000634,2.0,1.0,phase_1,,,,,,,,,,,,,blue,triangle
190.0,7.0,3.0,1.0,2.0,2.0,398.0052730003081,2.0,1.0,phase_1,,,,,,,,,,,,,magenta,diamond
223.0,3.0,3.0,0.0,1.0,1.0,276.1311620015476,2.0,1.0,phase_1,,,,,,,,,,,,,orange,I
184.0,3.0,3.0,0.0,4.0,4.0,386.3665819990274,2.0,1.0,phase_1,,,,,,,,,,,,,orange,I
210.0,3.0,3.0,0.0,3.0,3.0,316.619561999687,2.0,1.0,phase_1,,,,,,,,,,,,,orange,I
0.0,8.0,0.0,1.0,4.0,4.0,344.8191070019675,2.0,1.0,phase_1,,,,,,,,,,,,,cyan,cross
75.0,2.0,2.0,0.0,4.0,4.0,318.6422100006894,2.0,1.0,phase_1,,,,,,,,,,,,,green,circle
399.0,4.0,4.0,0.0,3.0,3.0,260.056456001621,2.0,1.0,phase_1,,,,,,,,,,,,,yellow,flipped triangle
406.0,8.0,4.0,1.0,4.0,4.0,253.62474199937418,2.0,1.0,phase_1,,,,,,,,,,,,,cyan,cross
61.0,5.0,1.0,1.0,2.0,2.0,301.0687819987652,2.0,1.0,phase_1,,,,,,,,,,,,,gray,square
102.0,2.0,2.0,0.0,3.0,3.0,303.2965090023936,2.0,1.0,phase_1,,,,,,,,,,,,,green,circle
214.0,3.0,3.0,0.0,3.0,3.0,335.0216670005466,2.0,1.0,phase_1,,,,,,,,,,,,,orange,I
50.0,5.0,1.0,1.0,2.0,2.0,392.6764940006251,2.0,1.0,phase_1,,,,,,,,,,,,,gray,square
66.0,1.0,1.0,0.0,3.0,3.0,293.0724170000758,2.0,1.0,phase_1,,,,,,,,,,,,,white,hexagon
0.0,7.0,0.0,1.0,2.0,2.0,298.6156419974577,2.0,1.0,phase_1,,,,,,,,,,,,,magenta,diamond
0.0,5.0,0.0,1.0,1.0,1.0,443.3699910005089,2.0,2.0,phase_1,,,,,,,,,,,,,gray,square
418.0,4.0,4.0,0.0,3.0,3.0,296.6844820002734,2.0,1.0,phase_1,,,,,,,,,,,,,yellow,flipped triangle
0.0,4.0,0.0,0.0,3.0,3.0,318.5446880015661,2.0,1.0,phase_1,,,,,,,,,,,,,yellow,flipped triangle
74.0,5.0,1.0,1.0,1.0,1.0,300.4421490004461,2.0,1.0,phase_1,,,,,,,,,,,,,gray,square
81.0,6.0,2.0,1.0,1.0,1.0,353.9985490024264,2.0,1.0,phase_1,,,,,,,,,,,,,blue,triangle
51.0,5.0,1.0,1.0,4.0,4.0,286.0612389995367,2.0,1.0,phase_1,,,,,,,,,,,,,gray,square
382.0,4.0,4.0,0.0,1.0,1.0,322.4484849997679,2.0,1.0,phase_1,,,,,,,,,,,,,yellow,flipped triangle
121.0,2.0,2.0,0.0,4.0,4.0,294.0929929973208,2.0,1.0,phase_1,,,,,,,,,,,,,green,circle
0.0,4.0,0.0,0.0,4.0,4.0,308.1879719975404,3.0,1.0,phase_1,,,,,,,,,,,,,yellow,flipped triangle
0.0,5.0,0.0,1.0,4.0,4.0,335.7775340009539,3.0,1.0,phase_1,,,,,,,,,,,,,gray,square
0.0,3.0,0.0,0.0,2.0,2.0,301.819484000589,3.0,1.0,phase_1,,,,,,,,,,,,,orange,I
0.0,4.0,0.0,0.0,2.0,2.0,316.0327680016053,3.0,1.0,phase_1,,,,,,,,,,,,,yellow,flipped triangle
66.0,5.0,1.0,1.0,1.0,1.0,300.6387130008079,3.0,1.0,phase_1,,,,,,,,,,,,,gray,square
420.0,4.0,4.0,0.0,4.0,4.0,323.4874619993206,3.0,1.0,phase_1,,,,,,,,,,,,,yellow,flipped triangle
208.0,3.0,3.0,0.0,4.0,4.0,335.4551619995618,3.0,1.0,phase_1,,,,,,,,,,,,,orange,I
398.0,4.0,4.0,0.0,3.0,3.0,325.0239429980865,3.0,1.0,phase_1,,,,,,,,,,,,,yellow,flipped triangle
0.0,6.0,0.0,1.0,3.0,3.0,327.624895999179,3.0,1.0,phase_1,,,,,,,,,,,,,blue,triangle
0.0,8.0,0.0,1.0,1.0,1.0,399.9795790005009,3.0,1.0,phase_1,,,,,,,,,,,,,cyan,cross
98.0,6.0,2.0,1.0,4.0,4.0,305.1526000017475,3.0,1.0,phase_1,,,,,,,,,,,,,blue,triangle
0.0,6.0,0.0,1.0,1.0,1.0,442.515151000407,3.0,2.0,phase_1,,,,,,,,,,,,,blue,triangle
0.0,6.0,0.0,1.0,3.0,3.0,354.6172620008292,3.0,1.0,phase_1,,,,,,,,,,,,,blue,triangle
378.0,4.0,4.0,0.0,2.0,2.0,371.9212839969259,3.0,1.0,phase_1,,,,,,,,,,,,,yellow,flipped triangle
376.0,8.0,4.0,1.0,3.0,3.0,338.5647950017301,3.0,1.0,phase_1,,,,,,,,,,,,,cyan,cross
118.0,6.0,2.0,1.0,1.0,1.0,301.7268920011702,3.0,1.0,phase_1,,,,,,,,,,,,,blue,triangle
0.0,1.0,0.0,0.0,1.0,1.0,369.5663489997969,3.0,1.0,phase_1,,,,,,,,,,,,,white,hexagon
0.0,4.0,0.0,0.0,2.0,2.0,312.3049929999979,3.0,1.0,phase_1,,,,,,,,,,,,,yellow,flipped triangle
75.0,5.0,1.0,1.0,4.0,4.0,379.7537589998683,3.0,1.0,phase_1,,,,,,,,,,,,,gray,square
91.0,2.0,2.0,0.0,1.0,1.0,290.9030260016152,3.0,1.0,phase_1,,,,,,,,,,,,,green,circle
43.0,5.0,1.0,1.0,2.0,2.0,476.4315280008304,3.0,1.0,phase_1,,,,,,,,,,,,,gray,square
416.0,8.0,4.0,1.0,1.0,1.0,322.3599939992709,3.0,1.0,phase_1,,,,,,,,,,,,,cyan,cross
199.0,3.0,3.0,0.0,2.0,2.0,287.9918030012049,3.0,1.0,phase_1,,,,,,,,,,,,,orange,I
392.0,4.0,4.0,0.0,4.0,4.0,374.3089780000446,3.0,1.0,phase_1,,,,,,,,,,,,,yellow,flipped triangle
111.0,6.0,2.0,1.0,1.0,1.0,471.0273799973947,3.0,1.0,phase_1,,,,,,,,,,,,,blue,triangle
411.0,8.0,4.0,1.0,2.0,2.0,319.7759499998938,3.0,1.0,phase_1,,,,,,,,,,,,,cyan,cross
82.0,6.0,2.0,1.0,2.0,2.0,329.6828220009047,3.0,1.0,phase_1,,,,,,,,,,,,,blue,triangle
36.0,1.0,1.0,0.0,4.0,4.0,520.2172600002086,3.0,1.0,phase_1,,,,,,,,,,,,,white,hexagon
386.0,8.0,4.0,1.0,3.0,3.0,290.193230001023,3.0,1.0,phase_1,,,,,,,,,,,,,cyan,cross
212.0,7.0,3.0,1.0,4.0,4.0,318.8227259997802,3.0,1.0,phase_1,,,,,,,,,,,,,magenta,diamond
0.0,2.0,0.0,0.0,4.0,4.0,335.1577050016203,3.0,1.0,phase_1,,,,,,,,,,,,,green,circle
57.0,5.0,1.0,1.0,4.0,4.0,330.1622059989313,3.0,1.0,phase_1,,,,,,,,,,,,,gray,square
220.0,7.0,3.0,1.0,4.0,4.0,292.7731809977558,3.0,1.0,phase_1,,,,,,,,,,,,,magenta,diamond
81.0,2.0,2.0,0.0,1.0,1.0,277.0744299996295,3.0,1.0,phase_1,,,,,,,,,,,,,green,circle
49.0,1.0,1.0,0.0,3.0,3.0,302.3483150027459,3.0,1.0,phase_1,,,,,,,,,,,,,white,hexagon
208.0,7.0,3.0,1.0,4.0,4.0,330.8659899994381,3.0,1.0,phase_1,,,,,,,,,,,,,magenta,diamond
30.0,5.0,1.0,1.0,3.0,3.0,322.706950999418,3.0,1.0,phase_1,,,,,,,,,,,,,gray,square
380.0,8.0,4.0,1.0,4.0,4.0,350.2235929991002,3.0,1.0,phase_1,,,,,,,,,,,,,cyan,cross
185.0,7.0,3.0,1.0,1.0,1.0,295.9538210016035,3.0,2.0,phase_1,,,,,,,,,,,,,magenta,diamond
0.0,4.0,0.0,0.0,1.0,1.0,324.0220709994901,3.0,1.0,phase_1,,,,,,,,,,,,,yellow,flipped triangle
0.0,6.0,0.0,1.0,4.0,4.0,329.4813129978138,3.0,1.0,phase_1,,,,,,,,,,,,,blue,triangle
114.0,6.0,2.0,1.0,4.0,4.0,366.5521430011722,3.0,1.0,phase_1,,,,,,,,,,,,,blue,triangle
185.0,7.0,3.0,1.0,4.0,4.0,307.1597480011405,3.0,1.0,phase_1,,,,,,,,,,,,,magenta,diamond
40.0,1.0,1.0,0.0,4.0,4.0,309.6341450000182,3.0,1.0,phase_1,,,,,,,,,,,,,white,hexagon
105.0,6.0,2.0,1.0,4.0,4.0,317.1613209997304,3.0,1.0,phase_1,,,,,,,,,,,,,blue,triangle
119.0,6.0,2.0,1.0,2.0,2.0,329.8914309998508,3.0,1.0,phase_1,,,,,,,,,,,,,blue,triangle
59.0,5.0,1.0,1.0,3.0,3.0,325.8955670025898,3.0,1.0,phase_1,,,,,,,,,,,,,gray,square
56.0,5.0,1.0,1.0,1.0,1.0,288.7069759999576,3.0,1.0,phase_1,,,,,,,,,,,,,gray,square
393.0,4.0,4.0,0.0,2.0,2.0,317.4830370007839,3.0,1.0,phase_1,,,,,,,,,,,,,yellow,flipped triangle
91.0,6.0,2.0,1.0,1.0,1.0,284.2929309990722,3.0,1.0,phase_1,,,,,,,,,,,,,blue,triangle
217.0,7.0,3.0,1.0,3.0,3.0,257.0930699985183,3.0,1.0,phase_1,,,,,,,,,,,,,magenta,diamond
68.0,1.0,1.0,0.0,4.0,4.0,284.6584289982274,3.0,1.0,phase_1,,,,,,,,,,,,,white,hexagon
391.0,4.0,4.0,0.0,1.0,1.0,298.6986549985886,3.0,1.0,phase_1,,,,,,,,,,,,,yellow,flipped triangle
217.0,3.0,3.0,0.0,4.0,4.0,325.4723550016933,3.0,1.0,phase_1,,,,,,,,,,,,,orange,I
49.0,5.0,1.0,1.0,1.0,1.0,363.2114329993783,3.0,1.0,phase_1,,,,,,,,,,,,,gray,square
192.0,7.0,3.0,1.0,3.0,3.0,317.6895739998144,3.0,1.0,phase_1,,,,,,,,,,,,,magenta,diamond
99.0,2.0,2.0,0.0,2.0,2.0,355.8727650015498,3.0,1.0,phase_1,,,,,,,,,,,,,green,circle
34.0,5.0,1.0,1.0,2.0,2.0,318.5329589978209,3.0,1.0,phase_1,,,,,,,,,,,,,gray,square
50.0,5.0,1.0,1.0,2.0,2.0,463.1724239989125,3.0,1.0,phase_1,,,,,,,,,,,,,gray,square
42.0,1.0,1.0,0.0,4.0,4.0,330.5858509993413,3.0,1.0,phase_1,,,,,,,,,,,,,white,hexagon
121.0,2.0,2.0,0.0,3.0,3.0,350.5442309979116,3.0,1.0,phase_1,,,,,,,,,,,,,green,circle
87.0,6.0,2.0,1.0,4.0,4.0,345.2356150010018,3.0,1.0,phase_1,,,,,,,,,,,,,blue,triangle
404.0,8.0,4.0,1.0,1.0,1.0,278.1995759978599,3.0,1.0,phase_1,,,,,,,,,,,,,cyan,cross
0.0,6.0,0.0,1.0,1.0,1.0,333.987326001079,3.0,1.0,phase_1,,,,,,,,,,,,,blue,triangle
0.0,3.0,0.0,0.0,1.0,1.0,361.4105350025056,3.0,1.0,phase_1,,,,,,,,,,,,,orange,I
418.0,8.0,4.0,1.0,2.0,2.0,367.0709539983363,3.0,1.0,phase_1,,,,,,,,,,,,,cyan,cross
118.0,6.0,2.0,1.0,2.0,2.0,316.5818070010573,3.0,1.0,phase_1,,,,,,,,,,,,,blue,triangle
103.0,6.0,2.0,1.0,3.0,3.0,375.6533050000143,3.0,1.0,phase_1,,,,,,,,,,,,,blue,triangle
89.0,2.0,2.0,0.0,1.0,1.0,332.5687800024752,3.0,1.0,phase_1,,,,,,,,,,,,,green,circle
51.0,1.0,1.0,0.0,2.0,2.0,304.7356909992231,3.0,1.0,phase_1,,,,,,,,,,,,,white,hexagon
30.0,1.0,1.0,0.0,2.0,2.0,278.88267299931607,3.0,1.0,phase_1,,,,,,,,,,,,,white,hexagon
0.0,5.0,0.0,1.0,4.0,4.0,354.5909349995781,3.0,1.0,phase_1,,,,,,,,,,,,,gray,square
183.0,7.0,3.0,1.0,1.0,1.0,340.8313520012598,3.0,1.0,phase_1,,,,,,,,,,,,,magenta,diamond
26.0,1.0,1.0,0.0,4.0,4.0,341.4015060006932,3.0,1.0,phase_1,,,,,,,,,,,,,white,hexagon
386.0,4.0,4.0,0.0,1.0,1.0,328.6077240009035,3.0,1.0,phase_1,,,,,,,,,,,,,yellow,flipped triangle
88.0,6.0,2.0,1.0,4.0,4.0,366.8095689972688,3.0,1.0,phase_1,,,,,,,,,,,,,blue,triangle
96.0,2.0,2.0,0.0,3.0,3.0,319.4192969967844,3.0,1.0,phase_1,,,,,,,,,,,,,green,circle
76.0,2.0,2.0,0.0,4.0,4.0,333.5621650003304,3.0,1.0,phase_1,,,,,,,,,,,,,green,circle
185.0,3.0,3.0,0.0,3.0,3.0,321.928631998162,3.0,1.0,phase_1,,,,,,,,,,,,,orange,I
121.0,6.0,2.0,1.0,4.0,4.0,327.8543639971758,3.0,1.0,phase_1,,,,,,,,,,,,,blue,triangle
93.0,6.0,2.0,1.0,3.0,3.0,322.6742019978701,3.0,1.0,phase_1,,,,,,,,,,,,,blue,triangle
0.0,6.0,0.0,1.0,4.0,4.0,368.5848739987705,3.0,1.0,phase_1,,,,,,,,,,,,,blue,triangle
420.0,4.0,4.0,0.0,2.0,2.0,332.2923289997561,3.0,2.0,phase_1,,,,,,,,,,,,,yellow,flipped triangle
114.0,2.0,2.0,0.0,4.0,4.0,351.0524000012083,3.0,1.0,phase_1,,,,,,,,,,,,,green,circle
0.0,8.0,0.0,1.0,1.0,1.0,338.028968002618,3.0,1.0,phase_1,,,,,,,,,,,,,cyan,cross
204.0,3.0,3.0,0.0,1.0,1.0,337.4134290024813,3.0,1.0,phase_1,,,,,,,,,,,,,orange,I
93.0,2.0,2.0,0.0,1.0,1.0,363.6575040000025,3.0,1.0,phase_1,,,,,,,,,,,,,green,circle
0.0,7.0,0.0,1.0,2.0,2.0,384.5638830025564,3.0,1.0,phase_1,,,,,,,,,,,,,magenta,diamond
61.0,1.0,1.0,0.0,1.0,1.0,295.5757419986184,3.0,1.0,phase_1,,,,,,,,,,,,,white,hexagon
405.0,8.0,4.0,1.0,1.0,1.0,276.1123119998956,3.0,1.0,phase_1,,,,,,,,,,,,,cyan,cross
382.0,8.0,4.0,1.0,2.0,2.0,286.9290630005707,3.0,1.0,phase_1,,,,,,,,,,,,,cyan,cross
112.0,2.0,2.0,0.0,1.0,1.0,323.0661710003915,3.0,1.0,phase_1,,,,,,,,,,,,,green,circle
86.0,2.0,2.0,0.0,2.0,2.0,291.3038900005631,3.0,1.0,phase_1,,,,,,,,,,,,,green,circle
77.0,6.0,2.0,1.0,2.0,2.0,324.8499209985311,3.0,1.0,phase_1,,,,,,,,,,,,,blue,triangle
76.0,6.0,2.0,1.0,3.0,3.0,345.0803110026754,3.0,1.0,phase_1,,,,,,,,,,,,,blue,triangle
0.0,8.0,0.0,1.0,4.0,4.0,477.7158730030351,3.0,1.0,phase_1,,,,,,,,,,,,,cyan,cross
0.0,1.0,0.0,0.0,2.0,2.0,340.9487420030928,3.0,1.0,phase_1,,,,,,,,,,,,,white,hexagon
0.0,2.0,0.0,0.0,2.0,2.0,303.1497070005571,3.0,1.0,phase_1,,,,,,,,,,,,,green,circle
0.0,5.0,0.0,1.0,3.0,3.0,358.1888400003663,3.0,1.0,phase_1,,,,,,,,,,,,,gray,square
44.0,5.0,1.0,1.0,3.0,3.0,419.2713600023126,3.0,1.0,phase_1,,,,,,,,,,,,,gray,square
56.0,1.0,1.0,0.0,2.0,2.0,318.0237290034711,4.0,1.0,phase_1,,,,,,,,,,,,,white,hexagon
95.0,2.0,2.0,0.0,3.0,3.0,305.0741600018227,4.0,1.0,phase_1,,,,,,,,,,,,,green,circle
406.0,4.0,4.0,0.0,2.0,2.0,315.4818420007359,4.0,1.0,phase_1,,,,,,,,,,,,,yellow,flipped triangle
85.0,6.0,2.0,1.0,3.0,3.0,341.8074979999801,4.0,1.0,phase_1,,,,,,,,,,,,,blue,triangle
93.0,6.0,2.0,1.0,2.0,2.0,461.064377999719,4.0,1.0,phase_1,,,,,,,,,,,,,blue,triangle
0.0,2.0,0.0,0.0,4.0,4.0,325.2707259998715,4.0,1.0,phase_1,,,,,,,,,,,,,green,circle
63.0,1.0,1.0,0.0,4.0,4.0,345.5123710009502,4.0,1.0,phase_1,,,,,,,,,,,,,white,hexagon
392.0,8.0,4.0,1.0,3.0,3.0,347.5677659989742,4.0,1.0,phase_1,,,,,,,,,,,,,cyan,cross
0.0,8.0,0.0,1.0,2.0,2.0,307.1740449995559,4.0,1.0,phase_1,,,,,,,,,,,,,cyan,cross
0.0,1.0,0.0,0.0,1.0,1.0,261.841354000353,4.0,1.0,phase_1,,,,,,,,,,,,,white,hexagon
389.0,8.0,4.0,1.0,2.0,2.0,340.5539510022208,4.0,1.0,phase_1,,,,,,,,,,,,,cyan,cross
0.0,4.0,0.0,0.0,3.0,3.0,305.0778659999196,4.0,1.0,phase_1,,,,,,,,,,,,,yellow,flipped triangle
420.0,8.0,4.0,1.0,4.0,4.0,326.0124230000656,4.0,1.0,phase_1,,,,,,,,,,,,,cyan,cross
0.0,5.0,0.0,1.0,3.0,3.0,314.4702089994098,4.0,1.0,phase_1,,,,,,,,,,,,,gray,square
207.0,7.0,3.0,1.0,4.0,4.0,356.3647250011854,4.0,1.0,phase_1,,,,,,,,,,,,,magenta,diamond
401.0,8.0,4.0,1.0,2.0,2.0,289.0360059973318,4.0,1.0,phase_1,,,,,,,,,,,,,cyan,cross
65.0,5.0,1.0,1.0,4.0,4.0,358.2413889998861,4.0,1.0,phase_1,,,,,,,,,,,,,gray,square
184.0,3.0,3.0,0.0,4.0,4.0,338.6280320009973,4.0,1.0,phase_1,,,,,,,,,,,,,orange,I
51.0,5.0,1.0,1.0,1.0,1.0,329.0015250022406,4.0,1.0,phase_1,,,,,,,,,,,,,gray,square
422.0,4.0,4.0,0.0,1.0,1.0,375.6999479992373,4.0,1.0,phase_1,,,,,,,,,,,,,yellow,flipped triangle
0.0,3.0,0.0,0.0,4.0,4.0,338.8173599996662,4.0,1.0,phase_1,,,,,,,,,,,,,orange,I
376.0,8.0,4.0,1.0,1.0,1.0,268.5528580004757,4.0,1.0,phase_1,,,,,,,,,,,,,cyan,cross
412.0,4.0,4.0,0.0,4.0,4.0,330.1241859990114,4.0,1.0,phase_1,,,,,,,,,,,,,yellow,flipped triangle
0.0,5.0,0.0,1.0,4.0,4.0,328.4811140001693,4.0,1.0,phase_1,,,,,,,,,,,,,gray,square
400.0,8.0,4.0,1.0,1.0,1.0,484.5411720016273,4.0,1.0,phase_1,,,,,,,,,,,,,cyan,cross
80.0,2.0,2.0,0.0,3.0,3.0,274.8954509988834,4.0,1.0,phase_1,,,,,,,,,,,,,green,circle
65.0,1.0,1.0,0.0,1.0,1.0,295.9744130021136,4.0,1.0,phase_1,,,,,,,,,,,,,white,hexagon
52.0,1.0,1.0,0.0,2.0,2.0,276.5329710018704,4.0,1.0,phase_1,,,,,,,,,,,,,white,hexagon
112.0,6.0,2.0,1.0,1.0,1.0,271.8970850000914,4.0,1.0,phase_1,,,,,,,,,,,,,blue,triangle
104.0,6.0,2.0,1.0,1.0,1.0,339.3138440005714,4.0,1.0,phase_1,,,,,,,,,,,,,blue,triangle
0.0,7.0,0.0,1.0,1.0,1.0,274.3327310017776,4.0,1.0,phase_1,,,,,,,,,,,,,magenta,diamond
95.0,6.0,2.0,1.0,2.0,2.0,320.1088850000815,4.0,1.0,phase_1,,,,,,,,,,,,,blue,triangle
0.0,7.0,0.0,1.0,3.0,3.0,420.12970699943247,4.0,1.0,phase_1,,,,,,,,,,,,,magenta,diamond
46.0,1.0,1.0,0.0,3.0,3.0,360.9398900007363,4.0,1.0,phase_1,,,,,,,,,,,,,white,hexagon
44.0,1.0,1.0,0.0,4.0,4.0,357.3873509994882,4.0,1.0,phase_1,,,,,,,,,,,,,white,hexagon
107.0,2.0,2.0,0.0,3.0,3.0,406.6932150017237,4.0,1.0,phase_1,,,,,,,,,,,,,green,circle
0.0,2.0,0.0,0.0,1.0,1.0,262.5131599997985,4.0,1.0,phase_1,,,,,,,,,,,,,green,circle
47.0,5.0,1.0,1.0,1.0,1.0,307.5591500019072,4.0,1.0,phase_1,,,,,,,,,,,,,gray,square
104.0,2.0,2.0,0.0,4.0,4.0,332.6218589972995,4.0,1.0,phase_1,,,,,,,,,,,,,green,circle
42.0,5.0,1.0,1.0,2.0,2.0,298.2246520004992,4.0,1.0,phase_1,,,,,,,,,,,,,gray,square
0.0,3.0,0.0,0.0,1.0,1.0,343.8860289970762,4.0,1.0,phase_1,,,,,,,,,,,,,orange,I
47.0,1.0,1.0,0.0,3.0,3.0,318.8602000009268,4.0,1.0,phase_1,,,,,,,,,,,,,white,hexagon
189.0,7.0,3.0,1.0,2.0,2.0,288.9552310007275,4.0,1.0,phase_1,,,,,,,,,,,,,magenta,diamond
393.0,8.0,4.0,1.0,3.0,3.0,308.2610109995585,4.0,1.0,phase_1,,,,,,,,,,,,,cyan,cross
414.0,8.0,4.0,1.0,3.0,3.0,340.6376159982756,4.0,1.0,phase_1,,,,,,,,,,,,,cyan,cross
28.0,1.0,1.0,0.0,4.0,4.0,368.438776997209,4.0,1.0,phase_1,,,,,,,,,,,,,white,hexagon
202.0,3.0,3.0,0.0,2.0,2.0,306.1016079991532,4.0,1.0,phase_1,,,,,,,,,,,,,orange,I
376.0,4.0,4.0,0.0,1.0,1.0,297.9596440018213,4.0,1.0,phase_1,,,,,,,,,,,,,yellow,flipped triangle
44.0,5.0,1.0,1.0,4.0,4.0,515.641277001123,4.0,1.0,phase_1,,,,,,,,,,,,,gray,square
380.0,8.0,4.0,1.0,1.0,1.0,331.3906809999025,4.0,1.0,phase_1,,,,,,,,,,,,,cyan,cross
416.0,4.0,4.0,0.0,4.0,4.0,326.6276359972835,4.0,1.0,phase_1,,,,,,,,,,,,,yellow,flipped triangle
402.0,8.0,4.0,1.0,1.0,1.0,249.2799740030022,4.0,1.0,phase_1,,,,,,,,,,,,,cyan,cross
225.0,3.0,3.0,0.0,2.0,2.0,321.5369970021129,4.0,1.0,phase_1,,,,,,,,,,,,,orange,I
391.0,8.0,4.0,1.0,3.0,3.0,357.8379239988862,4.0,1.0,phase_1,,,,,,,,,,,,,cyan,cross
0.0,4.0,0.0,0.0,3.0,3.0,329.9322349994327,4.0,1.0,phase_1,,,,,,,,,,,,,yellow,flipped triangle
85.0,2.0,2.0,0.0,3.0,3.0,311.9330680019629,4.0,1.0,phase_1,,,,,,,,,,,,,green,circle
0.0,8.0,0.0,1.0,2.0,2.0,258.9664090010046,4.0,1.0,phase_1,,,,,,,,,,,,,cyan,cross
0.0,6.0,0.0,1.0,1.0,1.0,295.9873170002538,4.0,1.0,phase_1,,,,,,,,,,,,,blue,triangle
56.0,5.0,1.0,1.0,3.0,3.0,323.6367190002056,4.0,1.0,phase_1,,,,,,,,,,,,,gray,square
400.0,4.0,4.0,0.0,2.0,2.0,279.1744969981664,4.0,1.0,phase_1,,,,,,,,,,,,,yellow,flipped triangle
184.0,7.0,3.0,1.0,2.0,2.0,294.7681570003624,4.0,1.0,phase_1,,,,,,,,,,,,,magenta,diamond
182.0,3.0,3.0,0.0,4.0,4.0,345.0051750005514,4.0,1.0,phase_1,,,,,,,,,,,,,orange,I
223.0,7.0,3.0,1.0,1.0,1.0,253.63811699935468,4.0,1.0,phase_1,,,,,,,,,,,,,magenta,diamond
198.0,7.0,3.0,1.0,2.0,2.0,578.3248520019697,4.0,1.0,phase_1,,,,,,,,,,,,,magenta,diamond
209.0,3.0,3.0,0.0,3.0,3.0,353.787227999419,4.0,1.0,phase_1,,,,,,,,,,,,,orange,I
40.0,5.0,1.0,1.0,4.0,4.0,355.8128109980316,4.0,1.0,phase_1,,,,,,,,,,,,,gray,square
55.0,5.0,1.0,1.0,4.0,4.0,327.9303710005479,4.0,1.0,phase_1,,,,,,,,,,,,,gray,square
376.0,4.0,4.0,0.0,2.0,2.0,295.8750020006846,4.0,1.0,phase_1,,,,,,,,,,,,,yellow,flipped triangle
380.0,4.0,4.0,0.0,4.0,4.0,324.5866010001919,4.0,1.0,phase_1,,,,,,,,,,,,,yellow,flipped triangle
0.0,1.0,0.0,0.0,1.0,1.0,280.205205999664,4.0,1.0,phase_1,,,,,,,,,,,,,white,hexagon
380.0,4.0,4.0,0.0,2.0,2.0,300.8364540000912,4.0,1.0,phase_1,,,,,,,,,,,,,yellow,flipped triangle
99.0,6.0,2.0,1.0,1.0,1.0,248.0411780015856,4.0,1.0,phase_1,,,,,,,,,,,,,blue,triangle
103.0,2.0,2.0,0.0,2.0,2.0,260.3576600013184,4.0,1.0,phase_1,,,,,,,,,,,,,green,circle
411.0,4.0,4.0,0.0,1.0,1.0,242.7608540019719,4.0,1.0,phase_1,,,,,,,,,,,,,yellow,flipped triangle
0.0,3.0,0.0,0.0,3.0,3.0,362.3974580004869,4.0,2.0,phase_1,,,,,,,,,,,,,orange,I
393.0,4.0,4.0,0.0,4.0,4.0,321.7246509993856,4.0,1.0,phase_1,,,,,,,,,,,,,yellow,flipped triangle
404.0,8.0,4.0,1.0,2.0,2.0,276.3710420003917,4.0,1.0,phase_1,,,,,,,,,,,,,cyan,cross
402.0,4.0,4.0,0.0,4.0,4.0,344.9287749972427,4.0,1.0,phase_1,,,,,,,,,,,,,yellow,flipped triangle
97.0,2.0,2.0,0.0,1.0,1.0,295.7072249992052,4.0,1.0,phase_1,,,,,,,,,,,,,green,circle
420.0,8.0,4.0,1.0,2.0,2.0,307.3987570023746,4.0,1.0,phase_1,,,,,,,,,,,,,cyan,cross
80.0,6.0,2.0,1.0,3.0,3.0,327.1132150002813,4.0,1.0,phase_1,,,,,,,,,,,,,blue,triangle
87.0,2.0,2.0,0.0,1.0,1.0,292.4633149996225,4.0,1.0,phase_1,,,,,,,,,,,,,green,circle
416.0,4.0,4.0,0.0,3.0,3.0,289.8794190004992,4.0,1.0,phase_1,,,,,,,,,,,,,yellow,flipped triangle
0.0,5.0,0.0,1.0,1.0,1.0,308.0245570017723,4.0,1.0,phase_1,,,,,,,,,,,,,gray,square
36.0,5.0,1.0,1.0,1.0,1.0,321.0168129990052,4.0,1.0,phase_1,,,,,,,,,,,,,gray,square
207.0,3.0,3.0,0.0,2.0,2.0,302.5436150019231,4.0,1.0,phase_1,,,,,,,,,,,,,orange,I
121.0,6.0,2.0,1.0,2.0,2.0,275.169653003104,4.0,1.0,phase_1,,,,,,,,,,,,,blue,triangle
411.0,8.0,4.0,1.0,3.0,3.0,320.6229810020886,4.0,1.0,phase_1,,,,,,,,,,,,,cyan,cross
0.0,6.0,0.0,1.0,4.0,4.0,324.0173169979243,4.0,1.0,phase_1,,,,,,,,,,,,,blue,triangle
393.0,8.0,4.0,1.0,4.0,4.0,337.5746370002161,4.0,1.0,phase_1,,,,,,,,,,,,,cyan,cross
214.0,7.0,3.0,1.0,2.0,2.0,300.619612000446,4.0,1.0,phase_1,,,,,,,,,,,,,magenta,diamond
380.0,4.0,4.0,0.0,1.0,1.0,268.7089460014249,4.0,1.0,phase_1,,,,,,,,,,,,,yellow,flipped triangle
89.0,6.0,2.0,1.0,2.0,2.0,313.4841350001807,4.0,1.0,phase_1,,,,,,,,,,,,,blue,triangle
41.0,1.0,1.0,0.0,3.0,3.0,325.1413479993061,4.0,1.0,phase_1,,,,,,,,,,,,,white,hexagon
34.0,1.0,1.0,0.0,2.0,2.0,337.7774340005999,4.0,1.0,phase_1,,,,,,,,,,,,,white,hexagon
113.0,2.0,2.0,0.0,4.0,4.0,412.2424200031673,4.0,1.0,phase_1,,,,,,,,,,,,,green,circle
0.0,7.0,0.0,1.0,2.0,2.0,277.008200999262,4.0,1.0,phase_1,,,,,,,,,,,,,magenta,diamond
102.0,6.0,2.0,1.0,3.0,3.0,354.1473020013654,4.0,1.0,phase_1,,,,,,,,,,,,,blue,triangle
121.0,2.0,2.0,0.0,4.0,4.0,283.6878300004173,4.0,1.0,phase_1,,,,,,,,,,,,,green,circle
56.0,1.0,1.0,0.0,1.0,1.0,303.4750379993056,4.0,1.0,phase_1,,,,,,,,,,,,,white,hexagon
0.0,4.0,4.0,0.0,5.0,5.0,605.5634830008785,1.0,1.0,phase_2,go,250.0,250.0,1.0,,,,,,,,,yellow,flipped triangle
0.0,6.0,2.0,1.0,5.0,5.0,539.3975400002091,1.0,1.0,phase_2,stop,250.0,250.0,3.0,,,,,,,,,blue,triangle
0.0,3.0,3.0,0.0,5.0,5.0,468.625580000662,1.0,1.0,phase_2,go,200.0,250.0,1.0,,,,,,,,,orange,I
0.0,3.0,3.0,0.0,6.0,6.0,369.1164840020065,1.0,1.0,phase_2,go,200.0,250.0,1.0,,,,,,,,,orange,I
0.0,3.0,3.0,0.0,5.0,5.0,474.4732069993915,1.0,1.0,phase_2,go,200.0,250.0,1.0,,,,,,,,,orange,I
0.0,7.0,3.0,1.0,6.0,0.0,0.0,1.0,1.0,phase_2,stop,200.0,250.0,4.0,,,,,,,,,magenta,diamond
0.0,4.0,4.0,0.0,6.0,6.0,345.5505499987339,1.0,1.0,phase_2,go,200.0,300.0,1.0,,,,,,,,,yellow,flipped triangle
0.0,7.0,3.0,1.0,5.0,0.0,0.0,1.0,1.0,phase_2,stop,200.0,300.0,4.0,,,,,,,,,magenta,diamond
0.0,7.0,3.0,1.0,6.0,0.0,0.0,1.0,1.0,phase_2,stop,250.0,300.0,4.0,,,,,,,,,magenta,diamond
0.0,6.0,2.0,1.0,6.0,0.0,0.0,1.0,1.0,phase_2,stop,250.0,350.0,4.0,,,,,,,,,blue,triangle
0.0,3.0,3.0,0.0,6.0,6.0,649.1135800024495,1.0,1.0,phase_2,go,250.0,400.0,1.0,,,,,,,,,orange,I
0.0,6.0,2.0,1.0,5.0,0.0,0.0,1.0,1.0,phase_2,stop,250.0,400.0,4.0,,,,,,,,,blue,triangle
0.0,5.0,1.0,1.0,5.0,0.0,0.0,1.0,1.0,phase_2,stop,300.0,400.0,4.0,,,,,,,,,gray,square
0.0,1.0,1.0,0.0,5.0,5.0,643.5043150013371,1.0,1.0,phase_2,go,350.0,400.0,1.0,,,,,,,,,white,hexagon
0.0,7.0,3.0,1.0,6.0,6.0,510.8315639990906,1.0,1.0,phase_2,stop,350.0,400.0,3.0,,,,,,,,,magenta,diamond
0.0,8.0,4.0,1.0,6.0,0.0,0.0,1.0,1.0,phase_2,stop,350.0,350.0,4.0,,,,,,,,,cyan,cross
0.0,7.0,3.0,1.0,5.0,5.0,691.793605001294,1.0,1.0,phase_2,go,350.0,400.0,1.0,,,,,,,,,magenta,diamond
0.0,2.0,2.0,0.0,5.0,5.0,522.6163199986331,1.0,1.0,phase_2,go,350.0,400.0,1.0,,,,,,,,,green,circle
0.0,6.0,2.0,1.0,5.0,5.0,344.888767998782,1.0,1.0,phase_2,go,350.0,400.0,1.0,,,,,,,,,blue,triangle
0.0,6.0,2.0,1.0,5.0,5.0,370.7387060021574,1.0,1.0,phase_2,stop,350.0,400.0,3.0,,,,,,,,,blue,triangle
0.0,8.0,4.0,1.0,6.0,0.0,0.0,1.0,1.0,phase_2,stop,300.0,400.0,4.0,,,,,,,,,cyan,cross
0.0,3.0,3.0,0.0,6.0,6.0,617.6606029985123,1.0,1.0,phase_2,go,300.0,450.0,1.0,,,,,,,,,orange,I
0.0,2.0,2.0,0.0,6.0,6.0,582.3625410012028,1.0,1.0,phase_2,go,300.0,450.0,1.0,,,,,,,,,green,circle
0.0,7.0,3.0,1.0,5.0,5.0,576.1282359999313,1.0,1.0,phase_2,go,300.0,450.0,1.0,,,,,,,,,magenta,diamond
0.0,8.0,4.0,1.0,5.0,0.0,0.0,1.0,1.0,phase_2,stop,300.0,450.0,4.0,,,,,,,,,cyan,cross
0.0,1.0,1.0,0.0,6.0,6.0,656.197575997794,1.0,1.0,phase_2,go,350.0,450.0,1.0,,,,,,,,,white,hexagon
0.0,6.0,2.0,1.0,5.0,0.0,0.0,1.0,1.0,phase_2,stop,350.0,450.0,4.0,,,,,,,,,blue,triangle
0.0,7.0,3.0,1.0,6.0,6.0,493.6047519986459,1.0,1.0,phase_2,stop,400.0,450.0,3.0,,,,,,,,,magenta,diamond
0.0,8.0,4.0,1.0,5.0,0.0,0.0,1.0,1.0,phase_2,stop,400.0,400.0,4.0,,,,,,,,,cyan,cross
0.0,3.0,3.0,0.0,5.0,5.0,628.5814370021399,1.0,1.0,phase_2,go,450.0,400.0,1.0,,,,,,,,,orange,I
0.0,8.0,4.0,1.0,5.0,5.0,571.6893980024906,1.0,1.0,phase_2,stop,450.0,400.0,3.0,,,,,,,,,cyan,cross
0.0,8.0,4.0,1.0,5.0,5.0,700.7802700027241,1.0,1.0,phase_2,go,400.0,400.0,1.0,,,,,,,,,cyan,cross
0.0,4.0,4.0,0.0,5.0,5.0,634.1802259994438,1.0,1.0,phase_2,go,400.0,400.0,1.0,,,,,,,,,yellow,flipped triangle
0.0,1.0,1.0,0.0,5.0,5.0,617.1762849990046,1.0,1.0,phase_2,go,400.0,400.0,1.0,,,,,,,,,white,hexagon
0.0,7.0,3.0,1.0,5.0,5.0,731.179753998731,1.0,1.0,phase_2,go,400.0,400.0,1.0,,,,,,,,,magenta,diamond
0.0,1.0,1.0,0.0,6.0,6.0,771.1455450007634,1.0,1.0,phase_2,go,400.0,400.0,1.0,,,,,,,,,white,hexagon
0.0,3.0,3.0,0.0,5.0,5.0,688.7336389991106,2.0,1.0,phase_2,go,400.0,400.0,1.0,,,,,,,,,orange,I
0.0,2.0,2.0,0.0,6.0,6.0,463.4014520015626,2.0,1.0,phase_2,go,400.0,400.0,1.0,,,,,,,,,green,circle
0.0,7.0,3.0,1.0,6.0,0.0,0.0,2.0,1.0,phase_2,stop,400.0,400.0,4.0,,,,,,,,,magenta,diamond
0.0,8.0,4.0,1.0,6.0,6.0,583.5803070003749,2.0,1.0,phase_2,stop,400.0,450.0,3.0,,,,,,,,,cyan,cross
0.0,4.0,4.0,0.0,6.0,6.0,726.3851589996193,2.0,1.0,phase_2,go,400.0,400.0,1.0,,,,,,,,,yellow,flipped triangle
0.0,3.0,3.0,0.0,5.0,5.0,719.9473349974141,2.0,1.0,phase_2,go,400.0,400.0,1.0,,,,,,,,,orange,I
0.0,2.0,2.0,0.0,5.0,5.0,558.7418850009271,2.0,1.0,phase_2,go,400.0,400.0,1.0,,,,,,,,,green,circle
0.0,4.0,4.0,0.0,5.0,5.0,316.6413729995838,2.0,1.0,phase_2,go,400.0,400.0,1.0,,,,,,,,,yellow,flipped triangle
0.0,5.0,1.0,1.0,5.0,0.0,0.0,2.0,1.0,phase_2,stop,400.0,400.0,4.0,,,,,,,,,gray,square
0.0,2.0,2.0,0.0,6.0,6.0,567.1201309996832,2.0,1.0,phase_2,go,450.0,400.0,1.0,,,,,,,,,green,circle
0.0,8.0,4.0,1.0,5.0,5.0,594.4695399994089,2.0,1.0,phase_2,go,450.0,400.0,1.0,,,,,,,,,cyan,cross
0.0,4.0,4.0,0.0,6.0,6.0,557.8313389996765,2.0,1.0,phase_2,go,450.0,400.0,1.0,,,,,,,,,yellow,flipped triangle
0.0,2.0,2.0,0.0,6.0,6.0,610.0602410006104,2.0,1.0,phase_2,go,450.0,400.0,1.0,,,,,,,,,green,circle
0.0,3.0,3.0,0.0,6.0,6.0,540.0099479993514,2.0,1.0,phase_2,go,450.0,400.0,1.0,,,,,,,,,orange,I
0.0,5.0,1.0,1.0,6.0,6.0,380.1588819987955,2.0,1.0,phase_2,stop,450.0,400.0,3.0,,,,,,,,,gray,square
0.0,5.0,1.0,1.0,5.0,5.0,511.79633300125715,2.0,1.0,phase_2,stop,450.0,350.0,3.0,,,,,,,,,gray,square
0.0,1.0,1.0,0.0,6.0,6.0,657.3363730021811,2.0,1.0,phase_2,go,400.0,350.0,1.0,,,,,,,,,white,hexagon
0.0,4.0,4.0,0.0,6.0,6.0,688.2934229979583,2.0,1.0,phase_2,go,400.0,350.0,1.0,,,,,,,,,yellow,flipped triangle
0.0,5.0,1.0,1.0,5.0,0.0,0.0,2.0,1.0,phase_2,stop,400.0,350.0,4.0,,,,,,,,,gray,square
0.0,3.0,3.0,0.0,5.0,5.0,750.7076550027705,2.0,1.0,phase_2,go,450.0,350.0,1.0,,,,,,,,,orange,I
0.0,2.0,2.0,0.0,6.0,6.0,600.7405769996694,2.0,1.0,phase_2,go,450.0,350.0,1.0,,,,,,,,,green,circle
0.0,7.0,3.0,1.0,6.0,6.0,679.1126409989374,2.0,1.0,phase_2,go,450.0,350.0,1.0,,,,,,,,,magenta,diamond
0.0,5.0,1.0,1.0,6.0,0.0,0.0,2.0,1.0,phase_2,stop,450.0,350.0,4.0,,,,,,,,,gray,square
0.0,2.0,2.0,0.0,5.0,5.0,620.0244950014167,2.0,1.0,phase_2,go,450.0,400.0,1.0,,,,,,,,,green,circle
0.0,7.0,3.0,1.0,5.0,0.0,0.0,2.0,1.0,phase_2,stop,450.0,400.0,4.0,,,,,,,,,magenta,diamond
0.0,1.0,1.0,0.0,5.0,5.0,569.7929910020321,2.0,1.0,phase_2,go,500.0,400.0,1.0,,,,,,,,,white,hexagon
0.0,1.0,1.0,0.0,5.0,5.0,634.3766680001863,2.0,1.0,phase_2,go,500.0,400.0,1.0,,,,,,,,,white,hexagon
0.0,5.0,1.0,1.0,5.0,5.0,620.6491159973666,2.0,1.0,phase_2,go,500.0,400.0,1.0,,,,,,,,,gray,square
0.0,3.0,3.0,0.0,6.0,6.0,634.3951419985387,2.0,1.0,phase_2,go,500.0,400.0,1.0,,,,,,,,,orange,I
0.0,5.0,1.0,1.0,5.0,5.0,578.8659149984596,2.0,1.0,phase_2,stop,500.0,400.0,3.0,,,,,,,,,gray,square
0.0,4.0,4.0,0.0,5.0,5.0,728.2309939982952,2.0,1.0,phase_2,go,450.0,400.0,1.0,,,,,,,,,yellow,flipped triangle
0.0,2.0,2.0,0.0,5.0,5.0,648.3116310009791,2.0,1.0,phase_2,go,450.0,400.0,1.0,,,,,,,,,green,circle
0.0,8.0,4.0,1.0,6.0,0.0,0.0,2.0,1.0,phase_2,stop,450.0,400.0,4.0,,,,,,,,,cyan,cross
0.0,4.0,4.0,0.0,6.0,6.0,718.0917919977219,2.0,1.0,phase_2,go,450.0,450.0,1.0,,,,,,,,,yellow,flipped triangle
0.0,7.0,3.0,1.0,6.0,0.0,0.0,2.0,1.0,phase_2,stop,450.0,450.0,4.0,,,,,,,,,magenta,diamond
0.0,5.0,1.0,1.0,6.0,6.0,767.1227720020397,2.0,1.0,phase_2,go,450.0,500.0,1.0,,,,,,,,,gray,square
0.0,8.0,4.0,1.0,6.0,0.0,0.0,3.0,1.0,phase_2,stop,450.0,500.0,4.0,,,,,,,,,cyan,cross
0.0,5.0,1.0,1.0,5.0,5.0,467.2390010018716,3.0,1.0,phase_2,go,450.0,550.0,1.0,,,,,,,,,gray,square
0.0,2.0,2.0,0.0,5.0,5.0,491.9218789982551,3.0,1.0,phase_2,go,450.0,550.0,1.0,,,,,,,,,green,circle
0.0,6.0,2.0,1.0,6.0,6.0,636.9244749985228,3.0,1.0,phase_2,stop,450.0,550.0,3.0,,,,,,,,,blue,triangle
0.0,1.0,1.0,0.0,5.0,5.0,634.9275069987925,3.0,1.0,phase_2,go,450.0,500.0,1.0,,,,,,,,,white,hexagon
0.0,7.0,3.0,1.0,5.0,5.0,587.9496310008108,3.0,1.0,phase_2,stop,450.0,500.0,3.0,,,,,,,,,magenta,diamond
0.0,6.0,2.0,1.0,5.0,0.0,0.0,3.0,1.0,phase_2,stop,400.0,500.0,4.0,,,,,,,,,blue,triangle
0.0,7.0,3.0,1.0,6.0,0.0,0.0,3.0,1.0,phase_2,stop,450.0,500.0,4.0,,,,,,,,,magenta,diamond
0.0,6.0,2.0,1.0,5.0,5.0,727.2658560032141,3.0,1.0,phase_2,go,450.0,550.0,1.0,,,,,,,,,blue,triangle
0.0,8.0,4.0,1.0,6.0,6.0,654.9667920007778,3.0,1.0,phase_2,go,450.0,550.0,1.0,,,,,,,,,cyan,cross
0.0,6.0,2.0,1.0,6.0,6.0,433.0493730012676,3.0,1.0,phase_2,stop,450.0,550.0,3.0,,,,,,,,,blue,triangle
0.0,4.0,4.0,0.0,6.0,6.0,704.9985200028459,3.0,1.0,phase_2,go,450.0,500.0,1.0,,,,,,,,,yellow,flipped triangle
0.0,6.0,2.0,1.0,6.0,0.0,0.0,3.0,1.0,phase_2,stop,450.0,500.0,4.0,,,,,,,,,blue,triangle
0.0,8.0,4.0,1.0,5.0,0.0,0.0,3.0,1.0,phase_2,stop,450.0,550.0,4.0,,,,,,,,,cyan,cross
0.0,1.0,1.0,0.0,5.0,5.0,788.8556319994677,3.0,1.0,phase_2,go,500.0,550.0,1.0,,,,,,,,,white,hexagon
0.0,7.0,3.0,1.0,5.0,5.0,675.9254550015612,3.0,1.0,phase_2,go,500.0,550.0,1.0,,,,,,,,,magenta,diamond
0.0,5.0,1.0,1.0,6.0,0.0,0.0,3.0,1.0,phase_2,stop,500.0,550.0,4.0,,,,,,,,,gray,square
0.0,3.0,3.0,0.0,6.0,6.0,682.705374998477,3.0,1.0,phase_2,go,500.0,600.0,1.0,,,,,,,,,orange,I
0.0,1.0,1.0,0.0,6.0,6.0,930.8840820012848,3.0,1.0,phase_2,go,500.0,600.0,1.0,,,,,,,,,white,hexagon
0.0,6.0,2.0,1.0,5.0,5.0,628.4741089984891,3.0,1.0,phase_2,go,500.0,600.0,1.0,,,,,,,,,blue,triangle
0.0,4.0,4.0,0.0,6.0,6.0,641.0695929989743,3.0,1.0,phase_2,go,500.0,600.0,1.0,,,,,,,,,yellow,flipped triangle
0.0,5.0,1.0,1.0,5.0,0.0,0.0,3.0,1.0,phase_2,stop,500.0,600.0,4.0,,,,,,,,,gray,square
0.0,2.0,2.0,0.0,5.0,5.0,641.2458920021891,3.0,1.0,phase_2,go,550.0,600.0,1.0,,,,,,,,,green,circle
0.0,8.0,4.0,1.0,5.0,5.0,977.5532759995258,3.0,1.0,phase_2,go,550.0,600.0,1.0,,,,,,,,,cyan,cross
0.0,6.0,2.0,1.0,5.0,5.0,814.571001999866,3.0,1.0,phase_2,go,550.0,600.0,1.0,,,,,,,,,blue,triangle
0.0,8.0,4.0,1.0,5.0,0.0,0.0,3.0,1.0,phase_2,stop,550.0,600.0,4.0,,,,,,,,,cyan,cross
0.0,3.0,3.0,0.0,6.0,6.0,823.5848549993534,3.0,1.0,phase_2,go,600.0,600.0,1.0,,,,,,,,,orange,I
0.0,2.0,2.0,0.0,6.0,6.0,588.7759860015649,3.0,1.0,phase_2,go,600.0,600.0,1.0,,,,,,,,,green,circle
0.0,4.0,4.0,0.0,6.0,6.0,776.4453409981797,3.0,1.0,phase_2,go,600.0,600.0,1.0,,,,,,,,,yellow,flipped triangle
0.0,8.0,4.0,1.0,5.0,0.0,0.0,3.0,1.0,phase_2,stop,600.0,600.0,4.0,,,,,,,,,cyan,cross
0.0,7.0,3.0,1.0,5.0,5.0,733.8668250013143,3.0,1.0,phase_2,stop,650.0,600.0,3.0,,,,,,,,,magenta,diamond
0.0,8.0,4.0,1.0,6.0,6.0,758.2464939987403,3.0,1.0,phase_2,stop,600.0,600.0,3.0,,,,,,,,,cyan,cross
0.0,8.0,4.0,1.0,6.0,6.0,762.831650001317,3.0,1.0,phase_2,go,600.0,550.0,1.0,,,,,,,,,cyan,cross
0.0,4.0,4.0,0.0,6.0,6.0,699.6108800012735,3.0,1.0,phase_2,go,600.0,550.0,1.0,,,,,,,,,yellow,flipped triangle
0.0,3.0,3.0,0.0,5.0,5.0,713.4645320002164,3.0,1.0,phase_2,go,600.0,550.0,1.0,,,,,,,,,orange,I
0.0,4.0,4.0,0.0,5.0,5.0,648.5412580004777,3.0,1.0,phase_2,go,600.0,550.0,1.0,,,,,,,,,yellow,flipped triangle
0.0,6.0,2.0,1.0,5.0,5.0,681.9723860025988,4.0,1.0,phase_2,stop,600.0,550.0,3.0,,,,,,,,,blue,triangle
0.0,6.0,2.0,1.0,6.0,6.0,427.0684189978055,4.0,1.0,phase_2,go,550.0,550.0,1.0,,,,,,,,,blue,triangle
0.0,5.0,1.0,1.0,5.0,5.0,473.0011829997238,4.0,1.0,phase_2,stop,550.0,550.0,3.0,,,,,,,,,gray,square
0.0,8.0,4.0,1.0,5.0,5.0,518.9163059985731,4.0,1.0,phase_2,stop,500.0,550.0,3.0,,,,,,,,,cyan,cross
0.0,7.0,3.0,1.0,6.0,6.0,582.6070209986938,4.0,1.0,phase_2,stop,450.0,550.0,3.0,,,,,,,,,magenta,diamond
0.0,1.0,1.0,0.0,6.0,6.0,445.5139380006585,4.0,1.0,phase_2,go,450.0,500.0,1.0,,,,,,,,,white,hexagon
0.0,8.0,4.0,1.0,6.0,6.0,580.8477450009377,4.0,1.0,phase_2,stop,450.0,500.0,3.0,,,,,,,,,cyan,cross
0.0,1.0,1.0,0.0,6.0,6.0,695.9751540016441,4.0,1.0,phase_2,go,450.0,450.0,1.0,,,,,,,,,white,hexagon
0.0,5.0,1.0,1.0,6.0,6.0,574.8729099977936,4.0,1.0,phase_2,stop,450.0,450.0,3.0,,,,,,,,,gray,square
0.0,4.0,4.0,0.0,6.0,6.0,694.2661579996638,4.0,1.0,phase_2,go,450.0,400.0,1.0,,,,,,,,,yellow,flipped triangle
0.0,8.0,4.0,1.0,6.0,6.0,444.1678469993348,4.0,1.0,phase_2,go,450.0,400.0,1.0,,,,,,,,,cyan,cross
0.0,2.0,2.0,0.0,5.0,5.0,525.1467369998863,4.0,1.0,phase_2,go,450.0,400.0,1.0,,,,,,,,,green,circle
0.0,7.0,3.0,1.0,5.0,0.0,0.0,4.0,1.0,phase_2,stop,450.0,400.0,4.0,,,,,,,,,magenta,diamond
0.0,7.0,3.0,1.0,6.0,6.0,297.8899400004593,4.0,1.0,phase_2,stop,500.0,400.0,3.0,,,,,,,,,magenta,diamond
0.0,5.0,1.0,1.0,5.0,5.0,697.8587410012551,4.0,1.0,phase_2,stop,500.0,350.0,3.0,,,,,,,,,gray,square
0.0,1.0,1.0,0.0,5.0,5.0,783.841553999082,4.0,1.0,phase_2,go,450.0,350.0,1.0,,,,,,,,,white,hexagon
0.0,8.0,4.0,1.0,6.0,6.0,553.0136029992718,4.0,1.0,phase_2,stop,450.0,350.0,3.0,,,,,,,,,cyan,cross
0.0,3.0,3.0,0.0,6.0,6.0,566.5912250005931,4.0,1.0,phase_2,go,450.0,300.0,1.0,,,,,,,,,orange,I
0.0,6.0,2.0,1.0,5.0,5.0,528.9670989986917,4.0,1.0,phase_2,stop,450.0,300.0,3.0,,,,,,,,,blue,triangle
0.0,2.0,2.0,0.0,6.0,6.0,808.3241620006447,4.0,1.0,phase_2,go,400.0,300.0,1.0,,,,,,,,,green,circle
0.0,8.0,4.0,1.0,5.0,5.0,637.1216240004287,4.0,1.0,phase_2,go,400.0,300.0,1.0,,,,,,,,,cyan,cross
0.0,2.0,2.0,0.0,6.0,6.0,480.5176480003865,4.0,1.0,phase_2,go,400.0,300.0,1.0,,,,,,,,,green,circle
0.0,2.0,2.0,0.0,6.0,6.0,507.5135480001336,4.0,1.0,phase_2,go,400.0,300.0,1.0,,,,,,,,,green,circle
0.0,1.0,1.0,0.0,5.0,5.0,227.3439440032234,4.0,1.0,phase_2,go,400.0,300.0,1.0,,,,,,,,,white,hexagon
0.0,5.0,1.0,1.0,5.0,5.0,334.9754740011121,4.0,1.0,phase_2,stop,400.0,300.0,3.0,,,,,,,,,gray,square
0.0,3.0,3.0,0.0,5.0,5.0,580.5573369980266,4.0,1.0,phase_2,go,350.0,300.0,1.0,,,,,,,,,orange,I
0.0,1.0,1.0,0.0,6.0,6.0,332.8248239995446,4.0,1.0,phase_2,go,350.0,300.0,1.0,,,,,,,,,white,hexagon
0.0,5.0,1.0,1.0,5.0,5.0,475.90635100277717,4.0,1.0,phase_2,stop,350.0,300.0,3.0,,,,,,,,,gray,square
0.0,4.0,4.0,0.0,5.0,5.0,676.7782670031011,4.0,1.0,phase_2,go,300.0,300.0,1.0,,,,,,,,,yellow,flipped triangle
0.0,2.0,2.0,0.0,5.0,5.0,568.1808439985616,4.0,1.0,phase_2,go,300.0,300.0,1.0,,,,,,,,,green,circle
0.0,2.0,2.0,0.0,5.0,5.0,671.8458909999754,4.0,1.0,phase_2,go,300.0,300.0,1.0,,,,,,,,,green,circle
0.0,7.0,3.0,1.0,6.0,0.0,0.0,4.0,1.0,phase_2,stop,300.0,300.0,4.0,,,,,,,,,magenta,diamond
0.0,1.0,1.0,0.0,5.0,5.0,346.356915000797,4.0,1.0,phase_2,go,300.0,350.0,1.0,,,,,,,,,white,hexagon
0.0,6.0,2.0,1.0,5.0,0.0,0.0,4.0,1.0,phase_2,stop,300.0,350.0,4.0,,,,,,,,,blue,triangle
0.0,7.0,3.0,1.0,5.0,5.0,461.6818479989888,4.0,1.0,phase_2,stop,350.0,350.0,3.0,,,,,,,,,magenta,diamond
0.0,7.0,3.0,1.0,5.0,0.0,0.0,4.0,1.0,phase_2,stop,300.0,350.0,4.0,,,,,,,,,magenta,diamond
0.0,1.0,1.0,0.0,5.0,5.0,722.2027499992691,5.0,1.0,phase_2,go,350.0,350.0,1.0,,,,,,,,,white,hexagon
0.0,5.0,1.0,1.0,6.0,6.0,451.8704869988141,5.0,1.0,phase_2,go,350.0,350.0,1.0,,,,,,,,,gray,square
0.0,5.0,1.0,1.0,6.0,6.0,435.1502070021524,5.0,1.0,phase_2,stop,350.0,350.0,3.0,,,,,,,,,gray,square
0.0,6.0,2.0,1.0,5.0,0.0,0.0,5.0,1.0,phase_2,stop,350.0,300.0,4.0,,,,,,,,,blue,triangle
0.0,3.0,3.0,0.0,6.0,6.0,512.3274910001783,5.0,1.0,phase_2,go,400.0,300.0,1.0,,,,,,,,,orange,I
0.0,1.0,1.0,0.0,5.0,5.0,442.333070001041,5.0,1.0,phase_2,go,400.0,300.0,1.0,,,,,,,,,white,hexagon
0.0,6.0,2.0,1.0,5.0,5.0,296.6796399996383,5.0,1.0,phase_2,stop,400.0,300.0,3.0,,,,,,,,,blue,triangle
0.0,6.0,2.0,1.0,6.0,6.0,479.9067700005253,5.0,1.0,phase_2,go,350.0,300.0,1.0,,,,,,,,,blue,triangle
0.0,4.0,4.0,0.0,5.0,5.0,508.8557149974804,5.0,1.0,phase_2,go,350.0,300.0,1.0,,,,,,,,,yellow,flipped triangle
0.0,8.0,4.0,1.0,5.0,5.0,486.1609630024759,5.0,1.0,phase_2,stop,350.0,300.0,3.0,,,,,,,,,cyan,cross
0.0,2.0,2.0,0.0,5.0,5.0,499.8092260029807,5.0,1.0,phase_2,go,300.0,300.0,1.0,,,,,,,,,green,circle
0.0,4.0,4.0,0.0,6.0,6.0,499.1121910024958,5.0,1.0,phase_2,go,300.0,300.0,1.0,,,,,,,,,yellow,flipped triangle
0.0,1.0,1.0,0.0,5.0,5.0,507.0170840008359,5.0,1.0,phase_2,go,300.0,300.0,1.0,,,,,,,,,white,hexagon
0.0,1.0,1.0,0.0,6.0,6.0,410.5312569990929,5.0,1.0,phase_2,go,300.0,300.0,1.0,,,,,,,,,white,hexagon
0.0,6.0,2.0,1.0,6.0,0.0,0.0,5.0,1.0,phase_2,stop,300.0,300.0,4.0,,,,,,,,,blue,triangle
0.0,7.0,3.0,1.0,6.0,6.0,509.0925909971702,5.0,1.0,phase_2,stop,300.0,350.0,3.0,,,,,,,,,magenta,diamond
0.0,6.0,2.0,1.0,6.0,6.0,299.2532950011082,5.0,1.0,phase_2,stop,300.0,300.0,3.0,,,,,,,,,blue,triangle
0.0,8.0,4.0,1.0,6.0,6.0,536.8928860007145,5.0,1.0,phase_2,go,300.0,250.0,1.0,,,,,,,,,cyan,cross
0.0,3.0,3.0,0.0,6.0,6.0,487.4749400005385,5.0,1.0,phase_2,go,300.0,250.0,1.0,,,,,,,,,orange,I
0.0,5.0,1.0,1.0,5.0,5.0,433.6189909990935,5.0,1.0,phase_2,go,300.0,250.0,1.0,,,,,,,,,gray,square
0.0,5.0,1.0,1.0,6.0,6.0,319.2269720020704,5.0,1.0,phase_2,stop,300.0,250.0,3.0,,,,,,,,,gray,square
0.0,1.0,1.0,0.0,6.0,6.0,295.882990998507,5.0,1.0,phase_2,go,300.0,200.0,1.0,,,,,,,,,white,hexagon
0.0,5.0,1.0,1.0,6.0,6.0,280.5571610006154,5.0,1.0,phase_2,stop,300.0,200.0,3.0,,,,,,,,,gray,square
0.0,5.0,1.0,1.0,5.0,5.0,549.2720789989107,5.0,1.0,phase_2,go,300.0,150.0,1.0,,,,,,,,,gray,square
0.0,7.0,3.0,1.0,6.0,0.0,0.0,5.0,1.0,phase_2,stop,300.0,150.0,4.0,,,,,,,,,magenta,diamond
0.0,8.0,4.0,1.0,6.0,0.0,0.0,5.0,1.0,phase_2,stop,300.0,200.0,4.0,,,,,,,,,cyan,cross
0.0,4.0,4.0,0.0,5.0,5.0,539.6225699987554,5.0,1.0,phase_2,go,300.0,250.0,1.0,,,,,,,,,yellow,flipped triangle
0.0,5.0,1.0,1.0,5.0,5.0,414.0011019990197,5.0,1.0,phase_2,go,300.0,250.0,1.0,,,,,,,,,gray,square
0.0,3.0,3.0,0.0,5.0,5.0,442.3048550015664,5.0,1.0,phase_2,go,300.0,250.0,1.0,,,,,,,,,orange,I
0.0,4.0,4.0,0.0,5.0,5.0,308.411377001903,5.0,1.0,phase_2,go,300.0,250.0,1.0,,,,,,,,,yellow,flipped triangle
0.0,4.0,4.0,0.0,5.0,5.0,307.1811369991337,5.0,1.0,phase_2,go,300.0,250.0,1.0,,,,,,,,,yellow,flipped triangle
0.0,7.0,3.0,1.0,6.0,0.0,0.0,5.0,1.0,phase_2,stop,300.0,250.0,4.0,,,,,,,,,magenta,diamond
0.0,3.0,3.0,0.0,6.0,6.0,474.6791459983797,5.0,1.0,phase_2,go,300.0,300.0,1.0,,,,,,,,,orange,I
0.0,4.0,4.0,0.0,6.0,6.0,449.9002680022386,5.0,1.0,phase_2,go,300.0,300.0,1.0,,,,,,,,,yellow,flipped triangle
0.0,6.0,2.0,1.0,6.0,0.0,0.0,5.0,1.0,phase_2,stop,300.0,300.0,4.0,,,,,,,,,blue,triangle
0.0,3.0,3.0,0.0,5.0,5.0,528.5065560019575,5.0,1.0,phase_2,go,300.0,350.0,1.0,,,,,,,,,orange,I
0.0,3.0,3.0,0.0,6.0,6.0,398.7592209996364,6.0,1.0,phase_2,go,300.0,350.0,1.0,,,,,,,,,orange,I
0.0,1.0,1.0,0.0,6.0,6.0,463.3269669975561,6.0,1.0,phase_2,go,300.0,350.0,1.0,,,,,,,,,white,hexagon
0.0,4.0,4.0,0.0,6.0,6.0,364.6458749972225,6.0,1.0,phase_2,go,300.0,350.0,1.0,,,,,,,,,yellow,flipped triangle
0.0,4.0,4.0,0.0,5.0,5.0,290.633656000864,6.0,1.0,phase_2,go,300.0,350.0,1.0,,,,,,,,,yellow,flipped triangle
0.0,3.0,3.0,0.0,5.0,5.0,308.9527199990698,6.0,1.0,phase_2,go,300.0,350.0,1.0,,,,,,,,,orange,I
0.0,4.0,4.0,0.0,5.0,5.0,290.761010001006,6.0,1.0,phase_2,go,300.0,350.0,1.0,,,,,,,,,yellow,flipped triangle
0.0,4.0,4.0,0.0,5.0,5.0,266.6507739995722,6.0,1.0,phase_2,go,300.0,350.0,1.0,,,,,,,,,yellow,flipped triangle
0.0,4.0,4.0,0.0,5.0,5.0,368.4366090019466,6.0,1.0,phase_2,go,300.0,350.0,1.0,,,,,,,,,yellow,flipped triangle
0.0,8.0,4.0,1.0,5.0,5.0,242.7718939979968,6.0,1.0,phase_2,stop,300.0,350.0,3.0,,,,,,,,,cyan,cross
0.0,3.0,3.0,0.0,5.0,5.0,479.3169520016818,6.0,1.0,phase_2,go,250.0,350.0,1.0,,,,,,,,,orange,I
0.0,6.0,2.0,1.0,6.0,6.0,311.4739420016121,6.0,1.0,phase_2,stop,250.0,350.0,3.0,,,,,,,,,blue,triangle
0.0,1.0,1.0,0.0,6.0,6.0,456.4639830023225,6.0,1.0,phase_2,go,250.0,300.0,1.0,,,,,,,,,white,hexagon
0.0,6.0,2.0,1.0,6.0,6.0,437.2088720010652,6.0,1.0,phase_2,stop,250.0,300.0,3.0,,,,,,,,,blue,triangle
0.0,2.0,2.0,0.0,6.0,6.0,488.2654840002942,6.0,1.0,phase_2,go,250.0,250.0,1.0,,,,,,,,,green,circle
0.0,2.0,2.0,0.0,6.0,6.0,364.460886001325,6.0,1.0,phase_2,go,250.0,250.0,1.0,,,,,,,,,green,circle
0.0,1.0,1.0,0.0,5.0,5.0,311.6762989993731,6.0,1.0,phase_2,go,250.0,250.0,1.0,,,,,,,,,white,hexagon
0.0,1.0,1.0,0.0,6.0,6.0,421.9191080010205,6.0,1.0,phase_2,go,250.0,250.0,1.0,,,,,,,,,white,hexagon
0.0,2.0,2.0,0.0,6.0,6.0,326.7447340003855,6.0,1.0,phase_2,go,250.0,250.0,1.0,,,,,,,,,green,circle
0.0,6.0,2.0,1.0,5.0,5.0,298.3604000000923,6.0,1.0,phase_2,go,250.0,250.0,1.0,,,,,,,,,blue,triangle
0.0,6.0,2.0,1.0,6.0,0.0,0.0,6.0,1.0,phase_2,stop,250.0,250.0,4.0,,,,,,,,,blue,triangle
0.0,5.0,1.0,1.0,6.0,0.0,0.0,6.0,1.0,phase_2,stop,250.0,300.0,4.0,,,,,,,,,gray,square
0.0,3.0,3.0,0.0,6.0,6.0,481.3431610018597,6.0,1.0,phase_2,go,250.0,350.0,1.0,,,,,,,,,orange,I
0.0,4.0,4.0,0.0,6.0,6.0,352.7941109969106,6.0,1.0,phase_2,go,250.0,350.0,1.0,,,,,,,,,yellow,flipped triangle
0.0,6.0,2.0,1.0,6.0,6.0,450.364136002463,6.0,1.0,phase_2,go,250.0,350.0,1.0,,,,,,,,,blue,triangle
0.0,5.0,1.0,1.0,5.0,5.0,352.7979280006548,6.0,1.0,phase_2,go,250.0,350.0,1.0,,,,,,,,,gray,square
0.0,5.0,1.0,1.0,6.0,6.0,303.1890019992715,6.0,1.0,phase_2,stop,250.0,350.0,3.0,,,,,,,,,gray,square
0.0,1.0,1.0,0.0,6.0,6.0,425.2743050019489,6.0,1.0,phase_2,go,250.0,300.0,1.0,,,,,,,,,white,hexagon
0.0,5.0,1.0,1.0,6.0,6.0,336.8815609974263,6.0,1.0,phase_2,stop,250.0,300.0,3.0,,,,,,,,,gray,square
0.0,5.0,1.0,1.0,6.0,0.0,0.0,6.0,1.0,phase_2,stop,250.0,250.0,4.0,,,,,,,,,gray,square
0.0,2.0,2.0,0.0,5.0,5.0,319.0962730004685,6.0,1.0,phase_2,go,250.0,300.0,1.0,,,,,,,,,green,circle
0.0,3.0,3.0,0.0,5.0,5.0,327.9930210010207,6.0,1.0,phase_2,go,250.0,300.0,1.0,,,,,,,,,orange,I
0.0,3.0,3.0,0.0,6.0,6.0,348.0861649986764,6.0,1.0,phase_2,go,250.0,300.0,1.0,,,,,,,,,orange,I
0.0,8.0,4.0,1.0,6.0,6.0,346.7055239998444,6.0,1.0,phase_2,stop,250.0,300.0,3.0,,,,,,,,,cyan,cross
0.0,8.0,4.0,1.0,6.0,0.0,0.0,6.0,1.0,phase_2,stop,250.0,250.0,4.0,,,,,,,,,cyan,cross
0.0,2.0,2.0,0.0,6.0,6.0,339.838582000084,6.0,1.0,phase_2,go,250.0,300.0,1.0,,,,,,,,,green,circle
0.0,5.0,1.0,1.0,6.0,6.0,280.7070170019869,6.0,1.0,phase_2,stop,250.0,300.0,3.0,,,,,,,,,gray,square
0.0,4.0,4.0,0.0,5.0,5.0,509.61501900019357,7.0,1.0,phase_2,go,250.0,250.0,1.0,,,,,,,,,yellow,flipped triangle
0.0,7.0,3.0,1.0,5.0,5.0,579.0398919998552,7.0,1.0,phase_2,go,250.0,250.0,1.0,,,,,,,,,magenta,diamond
0.0,5.0,1.0,1.0,6.0,0.0,0.0,7.0,1.0,phase_2,stop,250.0,250.0,4.0,,,,,,,,,gray,square
0.0,6.0,2.0,1.0,5.0,0.0,0.0,7.0,1.0,phase_2,stop,250.0,300.0,4.0,,,,,,,,,blue,triangle
0.0,5.0,1.0,1.0,6.0,6.0,377.3074939999787,7.0,1.0,phase_2,stop,300.0,300.0,3.0,,,,,,,,,gray,square
0.0,1.0,1.0,0.0,6.0,6.0,553.1861689996731,7.0,1.0,phase_2,go,300.0,250.0,1.0,,,,,,,,,white,hexagon
0.0,8.0,4.0,1.0,5.0,0.0,0.0,7.0,1.0,phase_2,stop,300.0,250.0,4.0,,,,,,,,,cyan,cross
0.0,3.0,3.0,0.0,6.0,6.0,688.7383870016492,7.0,1.0,phase_2,go,350.0,250.0,1.0,,,,,,,,,orange,I
0.0,7.0,3.0,1.0,6.0,0.0,0.0,7.0,1.0,phase_2,stop,350.0,250.0,4.0,,,,,,,,,magenta,diamond
0.0,6.0,2.0,1.0,6.0,0.0,0.0,7.0,1.0,phase_2,stop,350.0,300.0,4.0,,,,,,,,,blue,triangle
0.0,8.0,4.0,1.0,5.0,0.0,0.0,7.0,1.0,phase_2,stop,350.0,350.0,4.0,,,,,,,,,cyan,cross
0.0,4.0,4.0,0.0,6.0,6.0,550.5971929997031,7.0,1.0,phase_2,go,400.0,350.0,1.0,,,,,,,,,yellow,flipped triangle
0.0,2.0,2.0,0.0,6.0,6.0,535.0685589983186,7.0,1.0,phase_2,go,400.0,350.0,1.0,,,,,,,,,green,circle
0.0,4.0,4.0,0.0,5.0,5.0,532.5754199984658,7.0,1.0,phase_2,go,400.0,350.0,1.0,,,,,,,,,yellow,flipped triangle
0.0,6.0,2.0,1.0,6.0,6.0,522.7311819980969,7.0,1.0,phase_2,go,400.0,350.0,1.0,,,,,,,,,blue,triangle
0.0,5.0,1.0,1.0,5.0,5.0,444.4222239981172,7.0,1.0,phase_2,go,400.0,350.0,1.0,,,,,,,,,gray,square
0.0,8.0,4.0,1.0,6.0,6.0,417.0742290007183,7.0,1.0,phase_2,stop,400.0,350.0,3.0,,,,,,,,,cyan,cross
0.0,1.0,1.0,0.0,5.0,5.0,481.1554910011182,7.0,1.0,phase_2,go,400.0,300.0,1.0,,,,,,,,,white,hexagon
0.0,5.0,1.0,1.0,5.0,5.0,392.155986999569,7.0,1.0,phase_2,stop,400.0,300.0,3.0,,,,,,,,,gray,square
0.0,6.0,2.0,1.0,6.0,0.0,0.0,7.0,1.0,phase_2,stop,350.0,300.0,4.0,,,,,,,,,blue,triangle
0.0,7.0,3.0,1.0,6.0,6.0,535.1701090003189,7.0,1.0,phase_2,go,350.0,350.0,1.0,,,,,,,,,magenta,diamond
0.0,2.0,2.0,0.0,5.0,5.0,497.2008799995819,7.0,1.0,phase_2,go,350.0,350.0,1.0,,,,,,,,,green,circle
0.0,1.0,1.0,0.0,6.0,6.0,616.5236470005766,7.0,1.0,phase_2,go,350.0,350.0,1.0,,,,,,,,,white,hexagon
0.0,4.0,4.0,0.0,5.0,5.0,527.0682600021246,7.0,1.0,phase_2,go,350.0,350.0,1.0,,,,,,,,,yellow,flipped triangle
0.0,5.0,1.0,1.0,6.0,0.0,0.0,7.0,1.0,phase_2,stop,350.0,350.0,4.0,,,,,,,,,gray,square
0.0,8.0,4.0,1.0,6.0,6.0,632.0463440024469,7.0,1.0,phase_2,go,350.0,400.0,1.0,,,,,,,,,cyan,cross
0.0,3.0,3.0,0.0,5.0,5.0,510.3301730014209,7.0,1.0,phase_2,go,350.0,400.0,1.0,,,,,,,,,orange,I
0.0,1.0,1.0,0.0,6.0,6.0,549.6016930010228,7.0,1.0,phase_2,go,350.0,400.0,1.0,,,,,,,,,white,hexagon
0.0,3.0,3.0,0.0,5.0,5.0,562.2009270009585,7.0,1.0,phase_2,go,350.0,400.0,1.0,,,,,,,,,orange,I
0.0,8.0,4.0,1.0,5.0,0.0,0.0,7.0,1.0,phase_2,stop,350.0,400.0,4.0,,,,,,,,,cyan,cross
0.0,3.0,3.0,0.0,6.0,6.0,556.0245640008361,7.0,1.0,phase_2,go,400.0,400.0,1.0,,,,,,,,,orange,I
0.0,4.0,4.0,0.0,6.0,6.0,545.6254749988148,7.0,1.0,phase_2,go,400.0,400.0,1.0,,,,,,,,,yellow,flipped triangle
0.0,4.0,4.0,0.0,6.0,6.0,555.7464900011837,7.0,1.0,phase_2,go,400.0,400.0,1.0,,,,,,,,,yellow,flipped triangle
0.0,6.0,2.0,1.0,6.0,6.0,488.1784560020605,7.0,1.0,phase_2,stop,400.0,400.0,3.0,,,,,,,,,blue,triangle
0.0,2.0,2.0,0.0,5.0,5.0,559.2932630024734,7.0,1.0,phase_2,go,400.0,350.0,1.0,,,,,,,,,green,circle
0.0,7.0,3.0,1.0,5.0,5.0,602.2265959982178,7.0,1.0,phase_2,go,400.0,350.0,1.0,,,,,,,,,magenta,diamond
0.0,2.0,2.0,0.0,6.0,6.0,518.4725430008257,8.0,1.0,phase_2,go,400.0,350.0,1.0,,,,,,,,,green,circle
0.0,6.0,2.0,1.0,5.0,5.0,487.5827560026664,8.0,1.0,phase_2,stop,400.0,350.0,3.0,,,,,,,,,blue,triangle
0.0,8.0,4.0,1.0,6.0,0.0,0.0,8.0,1.0,phase_2,stop,350.0,350.0,4.0,,,,,,,,,cyan,cross
0.0,3.0,3.0,0.0,5.0,5.0,589.5250380017387,8.0,1.0,phase_2,go,350.0,400.0,1.0,,,,,,,,,orange,I
0.0,3.0,3.0,0.0,6.0,6.0,500.198174999241,8.0,1.0,phase_2,go,350.0,400.0,1.0,,,,,,,,,orange,I
0.0,7.0,3.0,1.0,5.0,0.0,0.0,8.0,1.0,phase_2,stop,350.0,400.0,4.0,,,,,,,,,magenta,diamond
0.0,2.0,2.0,0.0,6.0,6.0,677.0039670009282,8.0,1.0,phase_2,go,400.0,400.0,1.0,,,,,,,,,green,circle
0.0,5.0,1.0,1.0,6.0,0.0,0.0,8.0,1.0,phase_2,stop,400.0,400.0,4.0,,,,,,,,,gray,square
0.0,1.0,1.0,0.0,5.0,5.0,655.6571299988718,8.0,1.0,phase_2,go,400.0,450.0,1.0,,,,,,,,,white,hexagon
0.0,3.0,3.0,0.0,5.0,5.0,786.2228239973774,8.0,1.0,phase_2,go,400.0,450.0,1.0,,,,,,,,,orange,I
0.0,7.0,3.0,1.0,5.0,0.0,0.0,8.0,1.0,phase_2,stop,400.0,450.0,4.0,,,,,,,,,magenta,diamond
0.0,3.0,3.0,0.0,5.0,5.0,598.9322799978254,8.0,1.0,phase_2,go,450.0,450.0,1.0,,,,,,,,,orange,I
0.0,2.0,2.0,0.0,5.0,5.0,720.4230589995859,8.0,1.0,phase_2,go,450.0,450.0,1.0,,,,,,,,,green,circle
0.0,1.0,1.0,0.0,5.0,5.0,725.8404909989622,8.0,1.0,phase_2,go,450.0,450.0,1.0,,,,,,,,,white,hexagon
0.0,2.0,2.0,0.0,5.0,5.0,599.9456450008438,8.0,1.0,phase_2,go,450.0,450.0,1.0,,,,,,,,,green,circle
0.0,4.0,4.0,0.0,5.0,5.0,540.6363319998491,8.0,1.0,phase_2,go,450.0,450.0,1.0,,,,,,,,,yellow,flipped triangle
0.0,7.0,3.0,1.0,6.0,6.0,476.9497209999827,8.0,1.0,phase_2,stop,450.0,450.0,3.0,,,,,,,,,magenta,diamond
0.0,6.0,2.0,1.0,6.0,0.0,0.0,8.0,1.0,phase_2,stop,450.0,400.0,4.0,,,,,,,,,blue,triangle
0.0,8.0,4.0,1.0,5.0,0.0,0.0,8.0,1.0,phase_2,stop,450.0,450.0,4.0,,,,,,,,,cyan,cross
0.0,2.0,2.0,0.0,6.0,6.0,598.2186699984595,8.0,1.0,phase_2,go,500.0,450.0,1.0,,,,,,,,,green,circle
0.0,2.0,2.0,0.0,5.0,5.0,450.3842800004349,8.0,1.0,phase_2,go,500.0,450.0,1.0,,,,,,,,,green,circle
0.0,6.0,2.0,1.0,5.0,0.0,0.0,8.0,1.0,phase_2,stop,500.0,450.0,4.0,,,,,,,,,blue,triangle
0.0,4.0,4.0,0.0,6.0,6.0,585.1471579990175,8.0,1.0,phase_2,go,550.0,450.0,1.0,,,,,,,,,yellow,flipped triangle
0.0,2.0,2.0,0.0,5.0,5.0,602.7401090032072,8.0,1.0,phase_2,go,550.0,450.0,1.0,,,,,,,,,green,circle
0.0,1.0,1.0,0.0,5.0,5.0,655.2639699984866,8.0,1.0,phase_2,go,550.0,450.0,1.0,,,,,,,,,white,hexagon
0.0,7.0,3.0,1.0,5.0,5.0,601.5849169998546,8.0,1.0,phase_2,stop,550.0,450.0,3.0,,,,,,,,,magenta,diamond
0.0,1.0,1.0,0.0,6.0,6.0,697.3471040000732,8.0,1.0,phase_2,go,500.0,450.0,1.0,,,,,,,,,white,hexagon
0.0,7.0,3.0,1.0,5.0,5.0,654.3805849978526,8.0,1.0,phase_2,go,500.0,450.0,1.0,,,,,,,,,magenta,diamond
0.0,8.0,4.0,1.0,5.0,0.0,0.0,8.0,1.0,phase_2,stop,500.0,450.0,4.0,,,,,,,,,cyan,cross
0.0,2.0,2.0,0.0,5.0,5.0,652.8380529998685,8.0,1.0,phase_2,go,550.0,450.0,1.0,,,,,,,,,green,circle
0.0,1.0,1.0,0.0,5.0,5.0,700.0747399979446,8.0,1.0,phase_2,go,550.0,450.0,1.0,,,,,,,,,white,hexagon
0.0,7.0,3.0,1.0,5.0,5.0,507.45566899786354,8.0,1.0,phase_2,stop,550.0,450.0,3.0,,,,,,,,,magenta,diamond
0.0,2.0,2.0,0.0,6.0,6.0,796.8007160015986,8.0,1.0,phase_2,go,500.0,450.0,1.0,,,,,,,,,green,circle
0.0,7.0,3.0,1.0,6.0,0.0,0.0,8.0,1.0,phase_2,stop,500.0,450.0,4.0,,,,,,,,,magenta,diamond
0.0,3.0,3.0,0.0,6.0,6.0,627.2678739987896,8.0,1.0,phase_2,go,500.0,500.0,1.0,,,,,,,,,orange,I
0.0,1.0,1.0,0.0,6.0,6.0,600.7565280015115,8.0,1.0,phase_2,go,500.0,500.0,1.0,,,,,,,,,white,hexagon
0.0,3.0,3.0,0.0,7.0,6.0,3346.9863339996664,1.0,2.0,phase_3,,,,,216.0,4.0,54.0,324.0,108.0,162.0,270.0,216.0,orange,I
0.0,1.0,1.0,0.0,7.0,2.0,2420.4976440014434,1.0,1.0,phase_3,,,,,204.0,6.0,102.0,204.0,68.0,34.0,136.0,170.0,white,hexagon
0.0,4.0,4.0,0.0,7.0,6.0,1800.051987000188,1.0,1.0,phase_3,,,,,294.0,6.0,245.0,147.0,98.0,49.0,196.0,294.0,yellow,flipped triangle
0.0,2.0,2.0,0.0,7.0,2.0,1921.4174409971747,1.0,1.0,phase_3,,,,,88.0,2.0,264.0,88.0,44.0,220.0,176.0,132.0,green,circle
0.0,6.0,2.0,1.0,7.0,3.0,1856.398039999476,1.0,1.0,phase_3,,,,,102.0,3.0,136.0,34.0,102.0,204.0,68.0,170.0,blue,triangle
0.0,8.0,4.0,1.0,7.0,5.0,2171.4526249998016,1.0,1.0,phase_3,,,,,102.0,3.0,136.0,68.0,204.0,34.0,102.0,170.0,cyan,cross
0.0,1.0,1.0,0.0,7.0,1.0,3997.528053001588,1.0,1.0,phase_3,,,,,216.0,4.0,216.0,54.0,270.0,324.0,162.0,108.0,white,hexagon
0.0,3.0,3.0,0.0,7.0,3.0,3602.6008410008217,1.0,1.0,phase_3,,,,,204.0,6.0,102.0,68.0,204.0,34.0,136.0,170.0,orange,I
0.0,2.0,2.0,0.0,7.0,4.0,2236.408369000856,1.0,1.0,phase_3,,,,,132.0,3.0,44.0,88.0,220.0,132.0,264.0,176.0,green,circle
0.0,5.0,1.0,1.0,7.0,3.0,2150.999289999163,1.0,1.0,phase_3,,,,,220.0,5.0,176.0,44.0,220.0,264.0,88.0,132.0,gray,square
0.0,5.0,1.0,1.0,7.0,1.0,1992.8782700008012,1.0,1.0,phase_3,,,,,220.0,5.0,220.0,132.0,176.0,264.0,88.0,44.0,gray,square
0.0,4.0,4.0,0.0,7.0,6.0,1919.687885998428,1.0,1.0,phase_3,,,,,234.0,6.0,195.0,39.0,117.0,78.0,156.0,234.0,yellow,flipped triangle
0.0,4.0,4.0,0.0,7.0,6.0,3121.298551999644,1.0,1.0,phase_3,,,,,324.0,6.0,108.0,162.0,216.0,54.0,270.0,324.0,yellow,flipped triangle
0.0,4.0,4.0,0.0,7.0,6.0,2588.3859239984304,1.0,1.0,phase_3,,,,,204.0,6.0,102.0,34.0,68.0,170.0,136.0,204.0,yellow,flipped triangle
0.0,5.0,1.0,1.0,7.0,3.0,1467.6559740000812,1.0,1.0,phase_3,,,,,196.0,4.0,147.0,49.0,196.0,294.0,98.0,245.0,gray,square
0.0,6.0,2.0,1.0,7.0,2.0,2102.148292000493,1.0,1.0,phase_3,,,,,270.0,5.0,108.0,270.0,54.0,216.0,162.0,324.0,blue,triangle
0.0,3.0,3.0,0.0,7.0,5.0,2274.8328279994894,1.0,1.0,phase_3,,,,,196.0,4.0,245.0,294.0,147.0,49.0,196.0,98.0,orange,I
0.0,3.0,3.0,0.0,7.0,4.0,2545.616322000569,1.0,1.0,phase_3,,,,,156.0,4.0,234.0,195.0,78.0,156.0,39.0,117.0,orange,I
0.0,2.0,2.0,0.0,7.0,3.0,1803.6012699994897,1.0,1.0,phase_3,,,,,147.0,3.0,245.0,98.0,147.0,196.0,294.0,49.0,green,circle
0.0,8.0,4.0,1.0,7.0,5.0,2086.2543520015606,1.0,1.0,phase_3,,,,,204.0,6.0,34.0,68.0,170.0,136.0,204.0,102.0,cyan,cross
0.0,1.0,1.0,0.0,7.0,3.0,3035.6142349992297,2.0,1.0,phase_3,,,,,270.0,5.0,216.0,324.0,270.0,54.0,108.0,162.0,white,hexagon
0.0,6.0,2.0,1.0,7.0,4.0,2686.6605850009364,2.0,1.0,phase_3,,,,,245.0,5.0,147.0,98.0,196.0,245.0,49.0,294.0,blue,triangle
0.0,7.0,3.0,1.0,7.0,2.0,1774.567050000769,2.0,1.0,phase_3,,,,,245.0,5.0,147.0,245.0,196.0,49.0,294.0,98.0,magenta,diamond
0.0,3.0,3.0,0.0,7.0,1.0,2234.8300390003715,2.0,1.0,phase_3,,,,,216.0,4.0,216.0,162.0,324.0,54.0,108.0,270.0,orange,I
0.0,6.0,2.0,1.0,7.0,1.0,1859.073214000091,2.0,1.0,phase_3,,,,,195.0,5.0,195.0,156.0,78.0,117.0,39.0,234.0,blue,triangle
0.0,4.0,4.0,0.0,7.0,4.0,1514.8939190003148,2.0,1.0,phase_3,,,,,294.0,6.0,245.0,49.0,196.0,294.0,98.0,147.0,yellow,flipped triangle
0.0,5.0,1.0,1.0,7.0,5.0,1767.336618999252,2.0,1.0,phase_3,,,,,195.0,5.0,39.0,78.0,156.0,234.0,195.0,117.0,gray,square
0.0,6.0,2.0,1.0,7.0,2.0,1765.370556000562,2.0,1.0,phase_3,,,,,195.0,5.0,39.0,195.0,117.0,156.0,78.0,234.0,blue,triangle
0.0,7.0,3.0,1.0,7.0,2.0,1878.8312239994407,2.0,1.0,phase_3,,,,,204.0,6.0,68.0,204.0,136.0,102.0,170.0,34.0,magenta,diamond
0.0,7.0,3.0,1.0,7.0,1.0,2433.803710002394,2.0,1.0,phase_3,,,,,170.0,5.0,170.0,136.0,102.0,34.0,68.0,204.0,magenta,diamond
0.0,2.0,2.0,0.0,7.0,3.0,986.1067380006716,2.0,1.0,phase_3,,,,,170.0,5.0,34.0,68.0,170.0,136.0,102.0,204.0,green,circle
0.0,6.0,2.0,1.0,7.0,3.0,1890.6668470008296,2.0,1.0,phase_3,,,,,220.0,5.0,132.0,264.0,220.0,176.0,88.0,44.0,blue,triangle
0.0,6.0,2.0,1.0,7.0,2.0,1869.029887999204,2.0,1.0,phase_3,,,,,216.0,4.0,270.0,216.0,54.0,108.0,324.0,162.0,blue,triangle
0.0,5.0,1.0,1.0,7.0,3.0,1056.3117890014837,2.0,1.0,phase_3,,,,,162.0,3.0,324.0,108.0,162.0,54.0,216.0,270.0,gray,square
0.0,5.0,1.0,1.0,7.0,5.0,2057.2317209989706,2.0,1.0,phase_3,,,,,156.0,4.0,234.0,39.0,195.0,78.0,156.0,117.0,gray,square
0.0,8.0,4.0,1.0,7.0,5.0,1836.010273000284,2.0,1.0,phase_3,,,,,195.0,5.0,78.0,234.0,117.0,39.0,195.0,156.0,cyan,cross
0.0,8.0,4.0,1.0,7.0,3.0,914.3846639999538,2.0,1.0,phase_3,,,,,220.0,5.0,44.0,176.0,220.0,264.0,132.0,88.0,cyan,cross
0.0,7.0,3.0,1.0,7.0,5.0,1494.3592229974456,2.0,1.0,phase_3,,,,,264.0,6.0,220.0,132.0,44.0,176.0,264.0,88.0,magenta,diamond
0.0,6.0,2.0,1.0,7.0,4.0,1438.7930199991388,2.0,1.0,phase_3,,,,,220.0,5.0,132.0,176.0,264.0,220.0,88.0,44.0,blue,triangle
0.0,5.0,1.0,1.0,7.0,3.0,2144.012896998902,2.0,1.0,phase_3,,,,,216.0,4.0,324.0,162.0,216.0,270.0,108.0,54.0,gray,square
0.0,7.0,3.0,1.0,7.0,4.0,1555.0165499989816,3.0,1.0,phase_3,,,,,234.0,6.0,78.0,156.0,117.0,234.0,195.0,39.0,magenta,diamond
0.0,4.0,4.0,0.0,7.0,3.0,1675.8059860003414,3.0,1.0,phase_3,,,,,270.0,5.0,162.0,324.0,270.0,54.0,108.0,216.0,yellow,flipped triangle
0.0,8.0,4.0,1.0,7.0,2.0,1774.0095919980376,3.0,1.0,phase_3,,,,,216.0,4.0,324.0,216.0,108.0,270.0,162.0,54.0,cyan,cross
0.0,3.0,3.0,0.0,7.0,1.0,3921.2047529981646,3.0,1.0,phase_3,,,,,220.0,5.0,220.0,44.0,88.0,176.0,132.0,264.0,orange,I
0.0,7.0,3.0,1.0,7.0,1.0,1897.187395999936,3.0,1.0,phase_3,,,,,195.0,5.0,195.0,234.0,39.0,156.0,78.0,117.0,magenta,diamond
0.0,4.0,4.0,0.0,7.0,4.0,2129.0382859988317,3.0,1.0,phase_3,,,,,264.0,6.0,220.0,132.0,88.0,264.0,44.0,176.0,yellow,flipped triangle
0.0,3.0,3.0,0.0,7.0,6.0,2514.529192001646,3.0,1.0,phase_3,,,,,196.0,4.0,245.0,98.0,49.0,147.0,294.0,196.0,orange,I
0.0,8.0,4.0,1.0,7.0,4.0,1634.815500001423,3.0,1.0,phase_3,,,,,147.0,3.0,98.0,245.0,196.0,147.0,49.0,294.0,cyan,cross
0.0,3.0,3.0,0.0,7.0,6.0,1871.5169730021444,3.0,1.0,phase_3,,,,,204.0,6.0,136.0,68.0,102.0,34.0,170.0,204.0,orange,I
0.0,8.0,4.0,1.0,7.0,2.0,1593.833999002527,3.0,1.0,phase_3,,,,,234.0,6.0,78.0,234.0,156.0,117.0,39.0,195.0,cyan,cross
0.0,1.0,1.0,0.0,7.0,4.0,2699.057055000594,3.0,1.0,phase_3,,,,,78.0,2.0,234.0,117.0,156.0,78.0,195.0,39.0,white,hexagon
0.0,1.0,1.0,0.0,7.0,5.0,1617.5650789991778,3.0,1.0,phase_3,,,,,132.0,3.0,176.0,220.0,264.0,88.0,132.0,44.0,white,hexagon
0.0,1.0,1.0,0.0,7.0,4.0,1748.009369999636,3.0,1.0,phase_3,,,,,136.0,4.0,34.0,102.0,170.0,136.0,68.0,204.0,white,hexagon
0.0,6.0,2.0,1.0,7.0,2.0,1492.2575620003045,3.0,1.0,phase_3,,,,,204.0,6.0,170.0,204.0,136.0,102.0,34.0,68.0,blue,triangle
0.0,4.0,4.0,0.0,7.0,5.0,1572.7370770000562,3.0,1.0,phase_3,,,,,234.0,6.0,156.0,78.0,117.0,39.0,234.0,195.0,yellow,flipped triangle
0.0,5.0,1.0,1.0,7.0,5.0,2511.051294997742,3.0,1.0,phase_3,,,,,136.0,4.0,68.0,204.0,170.0,34.0,136.0,102.0,gray,square
0.0,1.0,1.0,0.0,7.0,4.0,1218.0131519999122,3.0,1.0,phase_3,,,,,147.0,3.0,98.0,245.0,294.0,147.0,49.0,196.0,white,hexagon
0.0,6.0,2.0,1.0,7.0,5.0,2234.99268500018,3.0,1.0,phase_3,,,,,196.0,4.0,294.0,245.0,49.0,98.0,196.0,147.0,blue,triangle
0.0,8.0,4.0,1.0,7.0,2.0,1740.957136000361,3.0,1.0,phase_3,,,,,245.0,5.0,294.0,245.0,49.0,98.0,196.0,147.0,cyan,cross
0.0,2.0,2.0,0.0,7.0,5.0,2444.8007749997487,3.0,1.0,phase_3,,,,,196.0,4.0,245.0,294.0,147.0,49.0,196.0,98.0,green,circle
0.0,2.0,2.0,0.0,7.0,1.0,4995.5285569994885,4.0,1.0,phase_3,,,,,162.0,3.0,162.0,270.0,216.0,54.0,324.0,108.0,green,circle
0.0,5.0,1.0,1.0,7.0,6.0,2256.399447000149,4.0,2.0,phase_3,,,,,102.0,3.0,68.0,204.0,136.0,34.0,170.0,102.0,gray,square
0.0,8.0,4.0,1.0,7.0,5.0,1971.2096590010333,4.0,1.0,phase_3,,,,,162.0,3.0,216.0,108.0,324.0,54.0,162.0,270.0,cyan,cross
0.0,3.0,3.0,0.0,7.0,3.0,1109.356082000886,4.0,1.0,phase_3,,,,,220.0,5.0,88.0,264.0,220.0,132.0,176.0,44.0,orange,I
0.0,1.0,1.0,0.0,7.0,1.0,2587.3114179994445,4.0,1.0,phase_3,,,,,195.0,5.0,195.0,39.0,156.0,117.0,78.0,234.0,white,hexagon
0.0,7.0,3.0,1.0,7.0,3.0,3478.389010000683,4.0,1.0,phase_3,,,,,196.0,4.0,245.0,294.0,196.0,49.0,98.0,147.0,magenta,diamond
0.0,2.0,2.0,0.0,7.0,5.0,2398.222378000355,4.0,1.0,phase_3,,,,,136.0,4.0,170.0,102.0,68.0,204.0,136.0,34.0,green,circle
0.0,1.0,1.0,0.0,7.0,1.0,3954.1102240000328,4.0,1.0,phase_3,,,,,132.0,3.0,132.0,88.0,44.0,176.0,264.0,220.0,white,hexagon
0.0,5.0,1.0,1.0,7.0,6.0,2440.2192830020795,4.0,1.0,phase_3,,,,,196.0,4.0,49.0,245.0,147.0,98.0,294.0,196.0,gray,square
0.0,2.0,2.0,0.0,7.0,4.0,1723.6932820014772,4.0,1.0,phase_3,,,,,216.0,4.0,54.0,108.0,324.0,216.0,270.0,162.0,green,circle
0.0,2.0,2.0,0.0,7.0,1.0,2700.7627930033777,4.0,1.0,phase_3,,,,,195.0,5.0,195.0,39.0,234.0,156.0,117.0,78.0,green,circle
0.0,8.0,4.0,1.0,7.0,1.0,2862.2245939986897,4.0,1.0,phase_3,,,,,220.0,5.0,220.0,132.0,44.0,176.0,264.0,88.0,cyan,cross
0.0,2.0,2.0,0.0,7.0,4.0,1773.5319460007304,4.0,1.0,phase_3,,,,,117.0,3.0,156.0,195.0,39.0,117.0,234.0,78.0,green,circle
0.0,3.0,3.0,0.0,7.0,2.0,1543.7185999981011,4.0,1.0,phase_3,,,,,234.0,6.0,39.0,234.0,156.0,117.0,195.0,78.0,orange,I
0.0,7.0,3.0,1.0,7.0,2.0,1697.0774610017545,4.0,1.0,phase_3,,,,,270.0,5.0,216.0,270.0,54.0,162.0,324.0,108.0,magenta,diamond
0.0,1.0,1.0,0.0,7.0,3.0,1042.501428000833,4.0,1.0,phase_3,,,,,147.0,3.0,245.0,294.0,147.0,49.0,196.0,98.0,white,hexagon
0.0,4.0,4.0,0.0,7.0,5.0,1966.331628998887,4.0,1.0,phase_3,,,,,264.0,6.0,88.0,44.0,176.0,132.0,264.0,220.0,yellow,flipped triangle
0.0,7.0,3.0,1.0,7.0,2.0,2238.3829840000544,4.0,1.0,phase_3,,,,,216.0,4.0,162.0,216.0,54.0,270.0,108.0,324.0,magenta,diamond
0.0,7.0,3.0,1.0,7.0,2.0,2133.712896000361,4.0,1.0,phase_3,,,,,220.0,5.0,44.0,220.0,132.0,264.0,88.0,176.0,magenta,diamond
0.0,4.0,4.0,0.0,7.0,2.0,2585.1877740024065,4.0,1.0,phase_3,,,,,204.0,6.0,136.0,204.0,34.0,170.0,102.0,68.0,yellow,flipped triangle
