raw_reward_magnitude,stim_reward,stepwise_reward_magnitude,paired_with_stopping,stim_location,response,reaction_time,block,num_trial_presentations,which_phase,stop_signal_trial_type,left_SSD,right_SSD,accuracy,chosen_bidding_amount,chosen_bidding_level,possible_bid_1,possible_bid_2,possible_bid_3,possible_bid_4,possible_bid_5,possible_bid_6,color_text,shape_text
125.0,2.0,1.0,0.0,1.0,1.0,295.3397119999863,1.0,1.0,phase_1,,,,,,,,,,,,,green,square
212.0,7.0,2.0,1.0,2.0,2.0,380.075877001218,1.0,1.0,phase_1,,,,,,,,,,,,,cyan,flipped triangle
0.0,8.0,0.0,1.0,3.0,3.0,315.1621559991326,1.0,1.0,phase_1,,,,,,,,,,,,,orange,triangle
423.0,4.0,4.0,0.0,2.0,2.0,343.260936999286,1.0,1.0,phase_1,,,,,,,,,,,,,white,circle
54.0,5.0,0.5,1.0,2.0,2.0,339.3053620020509,1.0,1.0,phase_1,,,,,,,,,,,,,yellow,diamond
0.0,5.0,0.0,1.0,1.0,1.0,334.7867820011743,1.0,1.0,phase_1,,,,,,,,,,,,,yellow,diamond
176.0,7.0,2.0,1.0,3.0,3.0,332.2861710003053,1.0,1.0,phase_1,,,,,,,,,,,,,cyan,flipped triangle
60.0,1.0,0.5,0.0,3.0,3.0,328.0483249982353,1.0,1.0,phase_1,,,,,,,,,,,,,gray,I
208.0,3.0,2.0,0.0,4.0,4.0,344.0684619999956,1.0,1.0,phase_1,,,,,,,,,,,,,magenta,hexagon
193.0,7.0,2.0,1.0,4.0,4.0,353.9237629993295,1.0,1.0,phase_1,,,,,,,,,,,,,cyan,flipped triangle
0.0,1.0,0.0,0.0,4.0,4.0,344.8257109994301,1.0,1.0,phase_1,,,,,,,,,,,,,gray,I
27.0,5.0,0.5,1.0,4.0,4.0,292.5277959984669,1.0,1.0,phase_1,,,,,,,,,,,,,yellow,diamond
52.0,5.0,0.5,1.0,1.0,1.0,362.5821599998744,1.0,1.0,phase_1,,,,,,,,,,,,,yellow,diamond
378.0,8.0,4.0,1.0,1.0,1.0,302.6980709983036,1.0,1.0,phase_1,,,,,,,,,,,,,orange,triangle
87.0,6.0,1.0,1.0,2.0,2.0,323.3891050003876,1.0,1.0,phase_1,,,,,,,,,,,,,blue,cross
72.0,1.0,0.5,0.0,4.0,4.0,344.4868010010395,1.0,1.0,phase_1,,,,,,,,,,,,,gray,I
377.0,4.0,4.0,0.0,4.0,4.0,418.993410999974,1.0,1.0,phase_1,,,,,,,,,,,,,white,circle
40.0,5.0,0.5,1.0,4.0,4.0,295.2055460009433,1.0,1.0,phase_1,,,,,,,,,,,,,yellow,diamond
405.0,4.0,4.0,0.0,4.0,4.0,307.5497419995372,1.0,1.0,phase_1,,,,,,,,,,,,,white,circle
70.0,1.0,0.5,0.0,1.0,1.0,345.5459229990083,1.0,1.0,phase_1,,,,,,,,,,,,,gray,I
0.0,7.0,0.0,1.0,1.0,1.0,294.9157900002319,1.0,1.0,phase_1,,,,,,,,,,,,,cyan,flipped triangle
40.0,1.0,0.5,0.0,1.0,1.0,298.0512440008169,1.0,1.0,phase_1,,,,,,,,,,,,,gray,I
0.0,7.0,0.0,1.0,2.0,2.0,345.5159299992374,1.0,1.0,phase_1,,,,,,,,,,,,,cyan,flipped triangle
405.0,4.0,4.0,0.0,3.0,3.0,315.5414389984798,1.0,1.0,phase_1,,,,,,,,,,,,,white,circle
0.0,2.0,0.0,0.0,1.0,1.0,249.9629779995302,1.0,1.0,phase_1,,,,,,,,,,,,,green,square
60.0,1.0,0.5,0.0,4.0,4.0,253.4817909981939,1.0,1.0,phase_1,,,,,,,,,,,,,gray,I
31.0,5.0,0.5,1.0,4.0,4.0,329.995305997727,1.0,1.0,phase_1,,,,,,,,,,,,,yellow,diamond
205.0,7.0,2.0,1.0,2.0,2.0,253.8992119989416,1.0,1.0,phase_1,,,,,,,,,,,,,cyan,flipped triangle
0.0,1.0,0.0,0.0,1.0,1.0,327.689885001746,1.0,2.0,phase_1,,,,,,,,,,,,,gray,I
75.0,2.0,1.0,0.0,1.0,1.0,315.8818740012066,1.0,1.0,phase_1,,,,,,,,,,,,,green,square
0.0,3.0,0.0,0.0,4.0,4.0,323.8227350011584,1.0,1.0,phase_1,,,,,,,,,,,,,magenta,hexagon
410.0,4.0,4.0,0.0,3.0,3.0,380.0517839990789,1.0,2.0,phase_1,,,,,,,,,,,,,white,circle
108.0,2.0,1.0,0.0,2.0,2.0,360.5980210013513,1.0,1.0,phase_1,,,,,,,,,,,,,green,square
0.0,5.0,0.0,1.0,1.0,1.0,355.9728639993409,1.0,1.0,phase_1,,,,,,,,,,,,,yellow,diamond
39.0,1.0,0.5,0.0,2.0,2.0,346.766235998075,1.0,1.0,phase_1,,,,,,,,,,,,,gray,I
0.0,1.0,0.0,0.0,4.0,4.0,303.1359270025859,1.0,1.0,phase_1,,,,,,,,,,,,,gray,I
0.0,4.0,0.0,0.0,1.0,1.0,364.7842499995022,1.0,1.0,phase_1,,,,,,,,,,,,,white,circle
78.0,6.0,1.0,1.0,1.0,1.0,335.051921003469,1.0,1.0,phase_1,,,,,,,,,,,,,blue,cross
48.0,1.0,0.5,0.0,4.0,4.0,274.728578999202,1.0,1.0,phase_1,,,,,,,,,,,,,gray,I
26.0,1.0,0.5,0.0,3.0,3.0,315.205947998038,1.0,1.0,phase_1,,,,,,,,,,,,,gray,I
215.0,3.0,2.0,0.0,3.0,3.0,311.3050790016132,1.0,1.0,phase_1,,,,,,,,,,,,,magenta,hexagon
72.0,5.0,0.5,1.0,4.0,4.0,299.0814280019549,1.0,1.0,phase_1,,,,,,,,,,,,,yellow,diamond
377.0,8.0,4.0,1.0,1.0,1.0,253.7237569995341,1.0,1.0,phase_1,,,,,,,,,,,,,orange,triangle
0.0,2.0,0.0,0.0,4.0,4.0,290.5193889964721,1.0,1.0,phase_1,,,,,,,,,,,,,green,square
0.0,4.0,0.0,0.0,1.0,1.0,233.4158599987859,1.0,1.0,phase_1,,,,,,,,,,,,,white,circle
177.0,3.0,2.0,0.0,1.0,1.0,383.6037180008134,1.0,1.0,phase_1,,,,,,,,,,,,,magenta,hexagon
407.0,4.0,4.0,0.0,2.0,2.0,315.332040998328,1.0,1.0,phase_1,,,,,,,,,,,,,white,circle
90.0,2.0,1.0,0.0,3.0,3.0,277.564419000555,1.0,1.0,phase_1,,,,,,,,,,,,,green,square
96.0,6.0,1.0,1.0,3.0,3.0,369.6827950006991,1.0,1.0,phase_1,,,,,,,,,,,,,blue,cross
177.0,3.0,2.0,0.0,4.0,4.0,344.2784520011628,1.0,1.0,phase_1,,,,,,,,,,,,,magenta,hexagon
183.0,3.0,2.0,0.0,1.0,1.0,277.0559969976602,1.0,1.0,phase_1,,,,,,,,,,,,,magenta,hexagon
105.0,6.0,1.0,1.0,3.0,3.0,426.4656230006949,1.0,1.0,phase_1,,,,,,,,,,,,,blue,cross
116.0,6.0,1.0,1.0,2.0,2.0,253.97153399899253,1.0,1.0,phase_1,,,,,,,,,,,,,blue,cross
223.0,7.0,2.0,1.0,3.0,3.0,329.9410449981224,1.0,1.0,phase_1,,,,,,,,,,,,,cyan,flipped triangle
78.0,2.0,1.0,0.0,2.0,2.0,294.7870349998993,1.0,1.0,phase_1,,,,,,,,,,,,,green,square
105.0,2.0,1.0,0.0,1.0,1.0,330.375648001791,1.0,1.0,phase_1,,,,,,,,,,,,,green,square
198.0,3.0,2.0,0.0,2.0,2.0,335.2252850017976,1.0,1.0,phase_1,,,,,,,,,,,,,magenta,hexagon
200.0,3.0,2.0,0.0,1.0,1.0,364.3998629995622,1.0,1.0,phase_1,,,,,,,,,,,,,magenta,hexagon
46.0,1.0,0.5,0.0,1.0,1.0,339.9108869998599,1.0,1.0,phase_1,,,,,,,,,,,,,gray,I
210.0,7.0,2.0,1.0,2.0,2.0,351.4721220017236,1.0,1.0,phase_1,,,,,,,,,,,,,cyan,flipped triangle
0.0,7.0,0.0,1.0,3.0,3.0,307.7346739992208,1.0,1.0,phase_1,,,,,,,,,,,,,cyan,flipped triangle
34.0,5.0,0.5,1.0,3.0,3.0,318.5057410009904,1.0,1.0,phase_1,,,,,,,,,,,,,yellow,diamond
183.0,7.0,2.0,1.0,1.0,1.0,300.2395190014795,1.0,1.0,phase_1,,,,,,,,,,,,,cyan,flipped triangle
55.0,5.0,0.5,1.0,2.0,2.0,299.9971320023178,1.0,1.0,phase_1,,,,,,,,,,,,,yellow,diamond
0.0,2.0,0.0,0.0,1.0,1.0,320.5726359992695,1.0,1.0,phase_1,,,,,,,,,,,,,green,square
92.0,2.0,1.0,0.0,4.0,4.0,315.637723000691,1.0,1.0,phase_1,,,,,,,,,,,,,green,square
207.0,7.0,2.0,1.0,4.0,4.0,327.3705370011157,1.0,1.0,phase_1,,,,,,,,,,,,,cyan,flipped triangle
70.0,5.0,0.5,1.0,3.0,3.0,333.0342400004156,1.0,1.0,phase_1,,,,,,,,,,,,,yellow,diamond
0.0,6.0,0.0,1.0,1.0,1.0,263.4210630021698,1.0,1.0,phase_1,,,,,,,,,,,,,blue,cross
60.0,5.0,0.5,1.0,1.0,1.0,351.5503820017329,1.0,1.0,phase_1,,,,,,,,,,,,,yellow,diamond
215.0,7.0,2.0,1.0,1.0,1.0,328.6243889997422,1.0,1.0,phase_1,,,,,,,,,,,,,cyan,flipped triangle
0.0,7.0,0.0,1.0,1.0,1.0,277.2611279979173,1.0,1.0,phase_1,,,,,,,,,,,,,cyan,flipped triangle
87.0,2.0,1.0,0.0,4.0,4.0,356.3346450027893,1.0,1.0,phase_1,,,,,,,,,,,,,green,square
180.0,3.0,2.0,0.0,4.0,4.0,384.6840480000537,1.0,1.0,phase_1,,,,,,,,,,,,,magenta,hexagon
0.0,6.0,0.0,1.0,3.0,3.0,318.2474339992041,1.0,1.0,phase_1,,,,,,,,,,,,,blue,cross
120.0,6.0,1.0,1.0,3.0,3.0,296.2392370027373,1.0,1.0,phase_1,,,,,,,,,,,,,blue,cross
0.0,6.0,0.0,1.0,2.0,2.0,324.6277569996891,1.0,1.0,phase_1,,,,,,,,,,,,,blue,cross
224.0,7.0,2.0,1.0,1.0,1.0,306.483317999664,1.0,1.0,phase_1,,,,,,,,,,,,,cyan,flipped triangle
115.0,6.0,1.0,1.0,4.0,4.0,271.5305950005131,1.0,1.0,phase_1,,,,,,,,,,,,,blue,cross
108.0,6.0,1.0,1.0,3.0,3.0,387.2732149975491,1.0,1.0,phase_1,,,,,,,,,,,,,blue,cross
32.0,1.0,0.5,0.0,3.0,3.0,323.5771270010446,1.0,1.0,phase_1,,,,,,,,,,,,,gray,I
0.0,8.0,0.0,1.0,2.0,2.0,297.27871799696,1.0,2.0,phase_1,,,,,,,,,,,,,orange,triangle
417.0,8.0,4.0,1.0,1.0,1.0,423.6478290004015,1.0,1.0,phase_1,,,,,,,,,,,,,orange,triangle
401.0,4.0,4.0,0.0,1.0,1.0,301.2214880000101,1.0,1.0,phase_1,,,,,,,,,,,,,white,circle
0.0,1.0,0.0,0.0,4.0,4.0,290.1843040017411,1.0,1.0,phase_1,,,,,,,,,,,,,gray,I
0.0,8.0,0.0,1.0,1.0,1.0,382.6040490021114,1.0,1.0,phase_1,,,,,,,,,,,,,orange,triangle
217.0,7.0,2.0,1.0,3.0,3.0,314.7195409983396,1.0,1.0,phase_1,,,,,,,,,,,,,cyan,flipped triangle
380.0,4.0,4.0,0.0,3.0,3.0,407.9847489992971,1.0,1.0,phase_1,,,,,,,,,,,,,white,circle
87.0,2.0,1.0,0.0,1.0,1.0,277.7313240003423,1.0,1.0,phase_1,,,,,,,,,,,,,green,square
382.0,8.0,4.0,1.0,4.0,4.0,294.4738849982968,1.0,1.0,phase_1,,,,,,,,,,,,,orange,triangle
87.0,6.0,1.0,1.0,2.0,2.0,421.6423789985128,1.0,1.0,phase_1,,,,,,,,,,,,,blue,cross
378.0,4.0,4.0,0.0,2.0,2.0,338.1518380010675,1.0,1.0,phase_1,,,,,,,,,,,,,white,circle
413.0,4.0,4.0,0.0,2.0,2.0,340.3709419981169,1.0,1.0,phase_1,,,,,,,,,,,,,white,circle
378.0,8.0,4.0,1.0,3.0,3.0,330.6811889997334,1.0,1.0,phase_1,,,,,,,,,,,,,orange,triangle
0.0,8.0,0.0,1.0,1.0,1.0,399.3606059993908,1.0,1.0,phase_1,,,,,,,,,,,,,orange,triangle
415.0,8.0,4.0,1.0,1.0,1.0,282.4642470004619,1.0,1.0,phase_1,,,,,,,,,,,,,orange,triangle
177.0,7.0,2.0,1.0,1.0,1.0,274.2874960022163,1.0,1.0,phase_1,,,,,,,,,,,,,cyan,flipped triangle
96.0,6.0,1.0,1.0,1.0,1.0,340.2741520003474,1.0,1.0,phase_1,,,,,,,,,,,,,blue,cross
0.0,7.0,0.0,1.0,2.0,2.0,344.9443940007768,1.0,1.0,phase_1,,,,,,,,,,,,,cyan,flipped triangle
114.0,6.0,1.0,1.0,1.0,1.0,328.2477799984917,1.0,1.0,phase_1,,,,,,,,,,,,,blue,cross
55.0,1.0,0.5,0.0,4.0,4.0,446.3159959996119,2.0,1.0,phase_1,,,,,,,,,,,,,gray,I
389.0,4.0,4.0,0.0,3.0,3.0,289.4599389983341,2.0,1.0,phase_1,,,,,,,,,,,,,white,circle
394.0,4.0,4.0,0.0,4.0,4.0,277.2865080005431,2.0,1.0,phase_1,,,,,,,,,,,,,white,circle
198.0,7.0,2.0,1.0,4.0,4.0,293.7192850004066,2.0,1.0,phase_1,,,,,,,,,,,,,cyan,flipped triangle
222.0,7.0,2.0,1.0,4.0,4.0,322.2405649976281,2.0,1.0,phase_1,,,,,,,,,,,,,cyan,flipped triangle
213.0,3.0,2.0,0.0,2.0,2.0,349.1045150003629,2.0,1.0,phase_1,,,,,,,,,,,,,magenta,hexagon
68.0,5.0,0.5,1.0,2.0,2.0,289.751423002599,2.0,1.0,phase_1,,,,,,,,,,,,,yellow,diamond
113.0,2.0,1.0,0.0,1.0,1.0,334.4659369977307,2.0,1.0,phase_1,,,,,,,,,,,,,green,square
390.0,8.0,4.0,1.0,1.0,1.0,339.8687609987973,2.0,1.0,phase_1,,,,,,,,,,,,,orange,triangle
0.0,4.0,0.0,0.0,2.0,2.0,326.8676340012462,2.0,1.0,phase_1,,,,,,,,,,,,,white,circle
83.0,6.0,1.0,1.0,4.0,4.0,315.0710160007293,2.0,1.0,phase_1,,,,,,,,,,,,,blue,cross
382.0,4.0,4.0,0.0,2.0,2.0,314.5911600004183,2.0,1.0,phase_1,,,,,,,,,,,,,white,circle
82.0,6.0,1.0,1.0,2.0,2.0,352.0388470024045,2.0,1.0,phase_1,,,,,,,,,,,,,blue,cross
191.0,3.0,2.0,0.0,4.0,4.0,314.9092579988064,2.0,1.0,phase_1,,,,,,,,,,,,,magenta,hexagon
119.0,6.0,1.0,1.0,1.0,1.0,246.0116240035859,2.0,1.0,phase_1,,,,,,,,,,,,,blue,cross
125.0,6.0,1.0,1.0,3.0,3.0,322.1752179997565,2.0,2.0,phase_1,,,,,,,,,,,,,blue,cross
56.0,5.0,0.5,1.0,3.0,3.0,303.6256640007195,2.0,1.0,phase_1,,,,,,,,,,,,,yellow,diamond
417.0,4.0,4.0,0.0,3.0,3.0,316.0188760011806,2.0,1.0,phase_1,,,,,,,,,,,,,white,circle
411.0,4.0,4.0,0.0,1.0,1.0,310.814657001174,2.0,1.0,phase_1,,,,,,,,,,,,,white,circle
0.0,6.0,0.0,1.0,4.0,4.0,244.2138579972379,2.0,1.0,phase_1,,,,,,,,,,,,,blue,cross
398.0,8.0,4.0,1.0,1.0,1.0,279.2378859994642,2.0,1.0,phase_1,,,,,,,,,,,,,orange,triangle
118.0,6.0,1.0,1.0,1.0,1.0,314.9187430026359,2.0,1.0,phase_1,,,,,,,,,,,,,blue,cross
54.0,1.0,0.5,0.0,4.0,4.0,267.0166690004407,2.0,1.0,phase_1,,,,,,,,,,,,,gray,I
0.0,2.0,0.0,0.0,2.0,2.0,476.9806490003248,2.0,1.0,phase_1,,,,,,,,,,,,,green,square
195.0,7.0,2.0,1.0,4.0,4.0,330.4016280017094,2.0,1.0,phase_1,,,,,,,,,,,,,cyan,flipped triangle
415.0,4.0,4.0,0.0,4.0,4.0,269.9309189993073,2.0,1.0,phase_1,,,,,,,,,,,,,white,circle
101.0,6.0,1.0,1.0,1.0,1.0,290.3236450001714,2.0,1.0,phase_1,,,,,,,,,,,,,blue,cross
407.0,8.0,4.0,1.0,2.0,2.0,361.0093710012734,2.0,1.0,phase_1,,,,,,,,,,,,,orange,triangle
96.0,2.0,1.0,0.0,2.0,2.0,286.76156100118527,2.0,1.0,phase_1,,,,,,,,,,,,,green,square
110.0,2.0,1.0,0.0,3.0,3.0,306.5168829998583,2.0,1.0,phase_1,,,,,,,,,,,,,green,square
0.0,6.0,0.0,1.0,1.0,1.0,278.9061019975634,2.0,1.0,phase_1,,,,,,,,,,,,,blue,cross
75.0,6.0,1.0,1.0,4.0,4.0,306.9421690015588,2.0,1.0,phase_1,,,,,,,,,,,,,blue,cross
178.0,3.0,2.0,0.0,1.0,1.0,254.5198209991213,2.0,1.0,phase_1,,,,,,,,,,,,,magenta,hexagon
0.0,4.0,0.0,0.0,4.0,4.0,279.0171550004743,2.0,1.0,phase_1,,,,,,,,,,,,,white,circle
56.0,1.0,0.5,0.0,2.0,2.0,264.0587640016747,2.0,1.0,phase_1,,,,,,,,,,,,,gray,I
52.0,1.0,0.5,0.0,3.0,3.0,332.724761999998,2.0,1.0,phase_1,,,,,,,,,,,,,gray,I
65.0,5.0,0.5,1.0,4.0,4.0,306.2424029994872,2.0,1.0,phase_1,,,,,,,,,,,,,yellow,diamond
0.0,7.0,0.0,1.0,2.0,2.0,310.6134400004521,2.0,1.0,phase_1,,,,,,,,,,,,,cyan,flipped triangle
70.0,5.0,0.5,1.0,1.0,1.0,323.6521209983038,2.0,1.0,phase_1,,,,,,,,,,,,,yellow,diamond
0.0,3.0,0.0,0.0,3.0,3.0,323.1777109976974,2.0,1.0,phase_1,,,,,,,,,,,,,magenta,hexagon
107.0,2.0,1.0,0.0,4.0,4.0,260.9884170014993,2.0,1.0,phase_1,,,,,,,,,,,,,green,square
176.0,3.0,2.0,0.0,3.0,3.0,514.5417389976501,2.0,1.0,phase_1,,,,,,,,,,,,,magenta,hexagon
83.0,2.0,1.0,0.0,2.0,2.0,277.5108099995123,2.0,1.0,phase_1,,,,,,,,,,,,,green,square
200.0,7.0,2.0,1.0,3.0,3.0,299.1089509996527,2.0,1.0,phase_1,,,,,,,,,,,,,cyan,flipped triangle
117.0,6.0,1.0,1.0,2.0,2.0,281.7131980009435,2.0,1.0,phase_1,,,,,,,,,,,,,blue,cross
0.0,6.0,0.0,1.0,2.0,2.0,311.0166070000559,2.0,1.0,phase_1,,,,,,,,,,,,,blue,cross
0.0,5.0,0.0,1.0,3.0,3.0,284.4914560009783,2.0,1.0,phase_1,,,,,,,,,,,,,yellow,diamond
390.0,4.0,4.0,0.0,2.0,2.0,285.4855610021332,2.0,1.0,phase_1,,,,,,,,,,,,,white,circle
43.0,5.0,0.5,1.0,3.0,3.0,252.5689670001156,2.0,1.0,phase_1,,,,,,,,,,,,,yellow,diamond
61.0,1.0,0.5,0.0,2.0,2.0,302.9559779970441,2.0,1.0,phase_1,,,,,,,,,,,,,gray,I
0.0,2.0,0.0,0.0,2.0,2.0,293.797872000141,2.0,1.0,phase_1,,,,,,,,,,,,,green,square
0.0,3.0,0.0,0.0,1.0,1.0,322.6092840013734,2.0,1.0,phase_1,,,,,,,,,,,,,magenta,hexagon
0.0,5.0,0.0,1.0,2.0,2.0,260.4285980014538,2.0,1.0,phase_1,,,,,,,,,,,,,yellow,diamond
0.0,1.0,0.0,0.0,4.0,4.0,274.7086800009128,2.0,1.0,phase_1,,,,,,,,,,,,,gray,I
0.0,5.0,0.0,1.0,1.0,1.0,285.9813510003732,2.0,1.0,phase_1,,,,,,,,,,,,,yellow,diamond
40.0,1.0,0.5,0.0,3.0,3.0,306.3455109986535,2.0,1.0,phase_1,,,,,,,,,,,,,gray,I
60.0,5.0,0.5,1.0,4.0,4.0,305.9971529983158,2.0,1.0,phase_1,,,,,,,,,,,,,yellow,diamond
26.0,5.0,0.5,1.0,2.0,2.0,278.3087469979364,2.0,1.0,phase_1,,,,,,,,,,,,,yellow,diamond
410.0,8.0,4.0,1.0,4.0,4.0,274.4665120007994,2.0,1.0,phase_1,,,,,,,,,,,,,orange,triangle
0.0,4.0,0.0,0.0,1.0,1.0,265.1982159986801,2.0,1.0,phase_1,,,,,,,,,,,,,white,circle
223.0,3.0,2.0,0.0,2.0,2.0,293.7995449974551,2.0,1.0,phase_1,,,,,,,,,,,,,magenta,hexagon
90.0,2.0,1.0,0.0,4.0,4.0,257.5496529971133,2.0,1.0,phase_1,,,,,,,,,,,,,green,square
213.0,7.0,2.0,1.0,4.0,4.0,323.4074909996707,2.0,1.0,phase_1,,,,,,,,,,,,,cyan,flipped triangle
422.0,8.0,4.0,1.0,2.0,2.0,282.8550640006142,2.0,1.0,phase_1,,,,,,,,,,,,,orange,triangle
411.0,8.0,4.0,1.0,3.0,3.0,278.632658002607,2.0,1.0,phase_1,,,,,,,,,,,,,orange,triangle
0.0,6.0,0.0,1.0,2.0,2.0,306.8348619999597,2.0,1.0,phase_1,,,,,,,,,,,,,blue,cross
0.0,6.0,0.0,1.0,2.0,2.0,277.9005849988607,2.0,2.0,phase_1,,,,,,,,,,,,,blue,cross
0.0,1.0,0.0,0.0,4.0,4.0,298.6476320002111,2.0,1.0,phase_1,,,,,,,,,,,,,gray,I
380.0,8.0,4.0,1.0,4.0,4.0,303.0098410017672,2.0,1.0,phase_1,,,,,,,,,,,,,orange,triangle
117.0,2.0,1.0,0.0,2.0,2.0,288.9515560018481,2.0,1.0,phase_1,,,,,,,,,,,,,green,square
200.0,7.0,2.0,1.0,1.0,1.0,293.4407309985545,2.0,1.0,phase_1,,,,,,,,,,,,,cyan,flipped triangle
177.0,7.0,2.0,1.0,3.0,3.0,358.410034001281,2.0,1.0,phase_1,,,,,,,,,,,,,cyan,flipped triangle
0.0,4.0,0.0,0.0,3.0,3.0,354.72456700154,2.0,1.0,phase_1,,,,,,,,,,,,,white,circle
396.0,8.0,4.0,1.0,2.0,2.0,285.8906450019276,2.0,1.0,phase_1,,,,,,,,,,,,,orange,triangle
0.0,1.0,0.0,0.0,2.0,2.0,379.5870260000811,2.0,1.0,phase_1,,,,,,,,,,,,,gray,I
421.0,8.0,4.0,1.0,3.0,3.0,318.5551440001291,2.0,1.0,phase_1,,,,,,,,,,,,,orange,triangle
90.0,6.0,1.0,1.0,2.0,2.0,229.4587140022486,2.0,1.0,phase_1,,,,,,,,,,,,,blue,cross
114.0,2.0,1.0,0.0,2.0,2.0,342.1827700003632,2.0,1.0,phase_1,,,,,,,,,,,,,green,square
177.0,3.0,2.0,0.0,4.0,4.0,339.2065779989934,2.0,1.0,phase_1,,,,,,,,,,,,,magenta,hexagon
74.0,5.0,0.5,1.0,4.0,4.0,316.2800459977006,2.0,2.0,phase_1,,,,,,,,,,,,,yellow,diamond
60.0,5.0,0.5,1.0,1.0,1.0,434.7014810009568,2.0,1.0,phase_1,,,,,,,,,,,,,yellow,diamond
61.0,5.0,0.5,1.0,2.0,2.0,350.8654260003823,2.0,1.0,phase_1,,,,,,,,,,,,,yellow,diamond
68.0,1.0,0.5,0.0,4.0,4.0,274.9725530011346,2.0,1.0,phase_1,,,,,,,,,,,,,gray,I
405.0,8.0,4.0,1.0,3.0,3.0,327.1732960020017,2.0,1.0,phase_1,,,,,,,,,,,,,orange,triangle
56.0,5.0,0.5,1.0,2.0,2.0,311.3042740005767,2.0,1.0,phase_1,,,,,,,,,,,,,yellow,diamond
398.0,4.0,4.0,0.0,4.0,4.0,305.5890329997055,2.0,1.0,phase_1,,,,,,,,,,,,,white,circle
77.0,6.0,1.0,1.0,4.0,4.0,385.1519349991577,2.0,1.0,phase_1,,,,,,,,,,,,,blue,cross
74.0,1.0,0.5,0.0,2.0,2.0,397.4357689985481,2.0,1.0,phase_1,,,,,,,,,,,,,gray,I
0.0,2.0,0.0,0.0,2.0,2.0,297.3558310004591,2.0,1.0,phase_1,,,,,,,,,,,,,green,square
197.0,3.0,2.0,0.0,4.0,4.0,307.1614040018176,2.0,1.0,phase_1,,,,,,,,,,,,,magenta,hexagon
94.0,2.0,1.0,0.0,4.0,4.0,257.9012719979801,2.0,1.0,phase_1,,,,,,,,,,,,,green,square
208.0,7.0,2.0,1.0,4.0,4.0,335.5607129997224,2.0,1.0,phase_1,,,,,,,,,,,,,cyan,flipped triangle
41.0,5.0,0.5,1.0,1.0,1.0,289.2173769978399,2.0,1.0,phase_1,,,,,,,,,,,,,yellow,diamond
0.0,8.0,0.0,1.0,1.0,1.0,326.1863640000229,2.0,1.0,phase_1,,,,,,,,,,,,,orange,triangle
38.0,1.0,0.5,0.0,1.0,1.0,285.8420699994894,2.0,1.0,phase_1,,,,,,,,,,,,,gray,I
218.0,3.0,2.0,0.0,3.0,3.0,344.5316729994374,2.0,1.0,phase_1,,,,,,,,,,,,,magenta,hexagon
0.0,7.0,0.0,1.0,4.0,4.0,347.7361960030976,2.0,2.0,phase_1,,,,,,,,,,,,,cyan,flipped triangle
65.0,1.0,0.5,0.0,4.0,4.0,256.3845889999356,2.0,1.0,phase_1,,,,,,,,,,,,,gray,I
185.0,7.0,2.0,1.0,1.0,1.0,346.3074079991202,2.0,1.0,phase_1,,,,,,,,,,,,,cyan,flipped triangle
101.0,2.0,1.0,0.0,3.0,3.0,358.9577739985543,2.0,1.0,phase_1,,,,,,,,,,,,,green,square
115.0,2.0,1.0,0.0,3.0,3.0,426.1362859979272,3.0,1.0,phase_1,,,,,,,,,,,,,green,square
403.0,4.0,4.0,0.0,3.0,3.0,295.4487789975246,3.0,1.0,phase_1,,,,,,,,,,,,,white,circle
0.0,7.0,0.0,1.0,3.0,3.0,322.5014009985898,3.0,1.0,phase_1,,,,,,,,,,,,,cyan,flipped triangle
378.0,4.0,4.0,0.0,1.0,1.0,286.7875679985445,3.0,1.0,phase_1,,,,,,,,,,,,,white,circle
207.0,3.0,2.0,0.0,4.0,4.0,330.7814899999357,3.0,1.0,phase_1,,,,,,,,,,,,,magenta,hexagon
200.0,3.0,2.0,0.0,2.0,2.0,322.4398010024742,3.0,1.0,phase_1,,,,,,,,,,,,,magenta,hexagon
405.0,8.0,4.0,1.0,2.0,2.0,366.3547360010852,3.0,1.0,phase_1,,,,,,,,,,,,,orange,triangle
125.0,2.0,1.0,0.0,2.0,2.0,321.7828950000694,3.0,1.0,phase_1,,,,,,,,,,,,,green,square
389.0,8.0,4.0,1.0,1.0,1.0,264.8818240013497,3.0,1.0,phase_1,,,,,,,,,,,,,orange,triangle
40.0,5.0,0.5,1.0,2.0,2.0,298.2120669985306,3.0,1.0,phase_1,,,,,,,,,,,,,yellow,diamond
378.0,4.0,4.0,0.0,3.0,3.0,334.7981629995047,3.0,1.0,phase_1,,,,,,,,,,,,,white,circle
418.0,8.0,4.0,1.0,2.0,2.0,293.858632001502,3.0,1.0,phase_1,,,,,,,,,,,,,orange,triangle
418.0,4.0,4.0,0.0,3.0,3.0,307.246722997661,3.0,1.0,phase_1,,,,,,,,,,,,,white,circle
60.0,1.0,0.5,0.0,4.0,4.0,268.2557519983675,3.0,1.0,phase_1,,,,,,,,,,,,,gray,I
181.0,7.0,2.0,1.0,1.0,1.0,241.1730649982928,3.0,1.0,phase_1,,,,,,,,,,,,,cyan,flipped triangle
0.0,8.0,0.0,1.0,4.0,4.0,312.31574599951267,3.0,1.0,phase_1,,,,,,,,,,,,,orange,triangle
407.0,8.0,4.0,1.0,2.0,2.0,293.6022069989121,3.0,1.0,phase_1,,,,,,,,,,,,,orange,triangle
124.0,2.0,1.0,0.0,1.0,1.0,360.7114240003284,3.0,1.0,phase_1,,,,,,,,,,,,,green,square
413.0,8.0,4.0,1.0,3.0,3.0,357.7638549977564,3.0,1.0,phase_1,,,,,,,,,,,,,orange,triangle
124.0,6.0,1.0,1.0,4.0,4.0,324.4514209982299,3.0,1.0,phase_1,,,,,,,,,,,,,blue,cross
196.0,3.0,2.0,0.0,2.0,2.0,286.7580729980545,3.0,1.0,phase_1,,,,,,,,,,,,,magenta,hexagon
0.0,6.0,0.0,1.0,1.0,1.0,290.2909649965295,3.0,1.0,phase_1,,,,,,,,,,,,,blue,cross
395.0,4.0,4.0,0.0,3.0,3.0,337.5773469997511,3.0,1.0,phase_1,,,,,,,,,,,,,white,circle
390.0,4.0,4.0,0.0,1.0,1.0,315.7317749974027,3.0,1.0,phase_1,,,,,,,,,,,,,white,circle
205.0,7.0,2.0,1.0,2.0,2.0,322.7776390012877,3.0,1.0,phase_1,,,,,,,,,,,,,cyan,flipped triangle
45.0,5.0,0.5,1.0,2.0,2.0,318.3034950016008,3.0,1.0,phase_1,,,,,,,,,,,,,yellow,diamond
398.0,4.0,4.0,0.0,2.0,2.0,353.9112009966629,3.0,1.0,phase_1,,,,,,,,,,,,,white,circle
36.0,5.0,0.5,1.0,2.0,2.0,301.3181429996621,3.0,1.0,phase_1,,,,,,,,,,,,,yellow,diamond
404.0,8.0,4.0,1.0,2.0,2.0,301.375688999542,3.0,1.0,phase_1,,,,,,,,,,,,,orange,triangle
202.0,3.0,2.0,0.0,2.0,2.0,225.0932320021093,3.0,1.0,phase_1,,,,,,,,,,,,,magenta,hexagon
0.0,7.0,0.0,1.0,4.0,4.0,343.9951760010444,3.0,1.0,phase_1,,,,,,,,,,,,,cyan,flipped triangle
75.0,2.0,1.0,0.0,1.0,1.0,232.5802230006957,3.0,1.0,phase_1,,,,,,,,,,,,,green,square
221.0,7.0,2.0,1.0,4.0,4.0,304.2571260011755,3.0,1.0,phase_1,,,,,,,,,,,,,cyan,flipped triangle
106.0,2.0,1.0,0.0,4.0,4.0,282.2207280005386,3.0,1.0,phase_1,,,,,,,,,,,,,green,square
43.0,1.0,0.5,0.0,1.0,1.0,302.6284789993951,3.0,1.0,phase_1,,,,,,,,,,,,,gray,I
0.0,2.0,0.0,0.0,1.0,1.0,269.7188060010376,3.0,1.0,phase_1,,,,,,,,,,,,,green,square
75.0,6.0,1.0,1.0,4.0,4.0,265.4259279988764,3.0,1.0,phase_1,,,,,,,,,,,,,blue,cross
378.0,8.0,4.0,1.0,4.0,4.0,236.8277669993403,3.0,1.0,phase_1,,,,,,,,,,,,,orange,triangle
0.0,1.0,0.0,0.0,4.0,4.0,297.2218270006124,3.0,1.0,phase_1,,,,,,,,,,,,,gray,I
104.0,2.0,1.0,0.0,3.0,3.0,352.0092959988687,3.0,1.0,phase_1,,,,,,,,,,,,,green,square
106.0,6.0,1.0,1.0,1.0,1.0,347.1607419996871,3.0,1.0,phase_1,,,,,,,,,,,,,blue,cross
100.0,6.0,1.0,1.0,3.0,3.0,233.8310839986661,3.0,1.0,phase_1,,,,,,,,,,,,,blue,cross
0.0,5.0,0.0,1.0,4.0,4.0,325.6947190020582,3.0,1.0,phase_1,,,,,,,,,,,,,yellow,diamond
50.0,5.0,0.5,1.0,2.0,2.0,216.7973159994289,3.0,1.0,phase_1,,,,,,,,,,,,,yellow,diamond
212.0,3.0,2.0,0.0,1.0,1.0,285.6562960005249,3.0,1.0,phase_1,,,,,,,,,,,,,magenta,hexagon
120.0,2.0,1.0,0.0,4.0,4.0,204.6138450023136,3.0,1.0,phase_1,,,,,,,,,,,,,green,square
211.0,3.0,2.0,0.0,3.0,3.0,358.6465260013938,3.0,2.0,phase_1,,,,,,,,,,,,,magenta,hexagon
193.0,3.0,2.0,0.0,1.0,1.0,272.6595620006264,3.0,1.0,phase_1,,,,,,,,,,,,,magenta,hexagon
222.0,3.0,2.0,0.0,1.0,1.0,352.5825129981967,3.0,1.0,phase_1,,,,,,,,,,,,,magenta,hexagon
80.0,2.0,1.0,0.0,2.0,2.0,491.8323840029188,3.0,1.0,phase_1,,,,,,,,,,,,,green,square
77.0,2.0,1.0,0.0,1.0,1.0,258.3585130014398,3.0,1.0,phase_1,,,,,,,,,,,,,green,square
380.0,8.0,4.0,1.0,4.0,4.0,275.4003559966804,3.0,1.0,phase_1,,,,,,,,,,,,,orange,triangle
31.0,1.0,0.5,0.0,1.0,1.0,258.3225049966131,3.0,1.0,phase_1,,,,,,,,,,,,,gray,I
0.0,8.0,0.0,1.0,3.0,3.0,343.3341889976873,3.0,1.0,phase_1,,,,,,,,,,,,,orange,triangle
194.0,3.0,2.0,0.0,3.0,3.0,348.9493189990753,3.0,1.0,phase_1,,,,,,,,,,,,,magenta,hexagon
404.0,8.0,4.0,1.0,4.0,4.0,325.8711919988855,3.0,1.0,phase_1,,,,,,,,,,,,,orange,triangle
60.0,1.0,0.5,0.0,2.0,2.0,283.1836090008437,3.0,1.0,phase_1,,,,,,,,,,,,,gray,I
205.0,3.0,2.0,0.0,3.0,3.0,279.5862610000768,3.0,1.0,phase_1,,,,,,,,,,,,,magenta,hexagon
0.0,5.0,0.0,1.0,3.0,3.0,253.3156919998873,3.0,3.0,phase_1,,,,,,,,,,,,,yellow,diamond
113.0,6.0,1.0,1.0,2.0,2.0,314.4585660011216,3.0,1.0,phase_1,,,,,,,,,,,,,blue,cross
394.0,4.0,4.0,0.0,1.0,1.0,465.0103470012254,3.0,1.0,phase_1,,,,,,,,,,,,,white,circle
394.0,8.0,4.0,1.0,4.0,4.0,261.7543979977199,3.0,1.0,phase_1,,,,,,,,,,,,,orange,triangle
0.0,5.0,0.0,1.0,4.0,4.0,346.2579890001507,3.0,1.0,phase_1,,,,,,,,,,,,,yellow,diamond
96.0,2.0,1.0,0.0,2.0,2.0,357.1306279991404,3.0,1.0,phase_1,,,,,,,,,,,,,green,square
195.0,7.0,2.0,1.0,1.0,1.0,281.7341040026804,3.0,1.0,phase_1,,,,,,,,,,,,,cyan,flipped triangle
38.0,5.0,0.5,1.0,4.0,4.0,262.0665540016489,3.0,1.0,phase_1,,,,,,,,,,,,,yellow,diamond
93.0,6.0,1.0,1.0,2.0,2.0,274.6739590002107,3.0,1.0,phase_1,,,,,,,,,,,,,blue,cross
421.0,4.0,4.0,0.0,4.0,4.0,266.0149889998138,3.0,1.0,phase_1,,,,,,,,,,,,,white,circle
418.0,4.0,4.0,0.0,3.0,3.0,302.0468419999815,3.0,1.0,phase_1,,,,,,,,,,,,,white,circle
0.0,3.0,0.0,0.0,1.0,1.0,224.5845780016679,3.0,1.0,phase_1,,,,,,,,,,,,,magenta,hexagon
123.0,6.0,1.0,1.0,3.0,3.0,271.8065539993404,3.0,1.0,phase_1,,,,,,,,,,,,,blue,cross
119.0,2.0,1.0,0.0,3.0,3.0,306.9719199993415,3.0,1.0,phase_1,,,,,,,,,,,,,green,square
395.0,8.0,4.0,1.0,3.0,3.0,271.3768030007486,3.0,1.0,phase_1,,,,,,,,,,,,,orange,triangle
193.0,7.0,2.0,1.0,4.0,4.0,301.600689002953,3.0,1.0,phase_1,,,,,,,,,,,,,cyan,flipped triangle
110.0,6.0,1.0,1.0,3.0,3.0,347.3171389996423,3.0,1.0,phase_1,,,,,,,,,,,,,blue,cross
185.0,3.0,2.0,0.0,2.0,2.0,287.0400070023606,3.0,1.0,phase_1,,,,,,,,,,,,,magenta,hexagon
407.0,8.0,4.0,1.0,1.0,1.0,298.2931340011419,3.0,1.0,phase_1,,,,,,,,,,,,,orange,triangle
0.0,5.0,0.0,1.0,3.0,3.0,318.9160829970205,3.0,1.0,phase_1,,,,,,,,,,,,,yellow,diamond
74.0,5.0,0.5,1.0,4.0,4.0,294.7849170013796,3.0,1.0,phase_1,,,,,,,,,,,,,yellow,diamond
0.0,2.0,0.0,0.0,2.0,2.0,234.6071360007044,3.0,1.0,phase_1,,,,,,,,,,,,,green,square
118.0,2.0,1.0,0.0,3.0,3.0,238.0967530007183,3.0,1.0,phase_1,,,,,,,,,,,,,green,square
180.0,3.0,2.0,0.0,1.0,1.0,306.8161440023687,3.0,1.0,phase_1,,,,,,,,,,,,,magenta,hexagon
410.0,8.0,4.0,1.0,2.0,2.0,287.2725109991734,3.0,1.0,phase_1,,,,,,,,,,,,,orange,triangle
0.0,2.0,0.0,0.0,2.0,2.0,307.408803000726,3.0,1.0,phase_1,,,,,,,,,,,,,green,square
191.0,7.0,2.0,1.0,1.0,1.0,303.1048759985424,3.0,1.0,phase_1,,,,,,,,,,,,,cyan,flipped triangle
0.0,5.0,0.0,1.0,2.0,2.0,301.8172810006945,3.0,1.0,phase_1,,,,,,,,,,,,,yellow,diamond
0.0,4.0,0.0,0.0,4.0,4.0,362.0555710003827,3.0,1.0,phase_1,,,,,,,,,,,,,white,circle
398.0,8.0,4.0,1.0,1.0,1.0,263.1197119990247,3.0,1.0,phase_1,,,,,,,,,,,,,orange,triangle
401.0,8.0,4.0,1.0,4.0,4.0,316.024670999468,3.0,1.0,phase_1,,,,,,,,,,,,,orange,triangle
35.0,5.0,0.5,1.0,3.0,3.0,374.662434001948,3.0,1.0,phase_1,,,,,,,,,,,,,yellow,diamond
0.0,8.0,0.0,1.0,1.0,1.0,277.6497380000364,3.0,1.0,phase_1,,,,,,,,,,,,,orange,triangle
202.0,7.0,2.0,1.0,2.0,2.0,281.6053520000423,3.0,1.0,phase_1,,,,,,,,,,,,,cyan,flipped triangle
41.0,1.0,0.5,0.0,1.0,1.0,332.351370001561,3.0,1.0,phase_1,,,,,,,,,,,,,gray,I
0.0,1.0,0.0,0.0,2.0,2.0,329.2546729971946,3.0,1.0,phase_1,,,,,,,,,,,,,gray,I
224.0,3.0,2.0,0.0,4.0,4.0,305.0206640000397,3.0,1.0,phase_1,,,,,,,,,,,,,magenta,hexagon
80.0,6.0,1.0,1.0,1.0,1.0,277.4642470030812,3.0,1.0,phase_1,,,,,,,,,,,,,blue,cross
0.0,8.0,0.0,1.0,3.0,3.0,338.897094999993,3.0,1.0,phase_1,,,,,,,,,,,,,orange,triangle
68.0,1.0,0.5,0.0,1.0,1.0,245.4080679999606,3.0,1.0,phase_1,,,,,,,,,,,,,gray,I
215.0,7.0,2.0,1.0,3.0,3.0,340.6750979993376,3.0,1.0,phase_1,,,,,,,,,,,,,cyan,flipped triangle
193.0,3.0,2.0,0.0,4.0,4.0,237.7283249988977,3.0,2.0,phase_1,,,,,,,,,,,,,magenta,hexagon
407.0,4.0,4.0,0.0,2.0,2.0,422.6454559975536,4.0,1.0,phase_1,,,,,,,,,,,,,white,circle
200.0,3.0,2.0,0.0,1.0,1.0,308.7175489999936,4.0,1.0,phase_1,,,,,,,,,,,,,magenta,hexagon
180.0,7.0,2.0,1.0,3.0,3.0,280.9686230029911,4.0,1.0,phase_1,,,,,,,,,,,,,cyan,flipped triangle
0.0,2.0,0.0,0.0,1.0,1.0,390.9019269995042,4.0,1.0,phase_1,,,,,,,,,,,,,green,square
205.0,3.0,2.0,0.0,3.0,3.0,315.4919859989604,4.0,1.0,phase_1,,,,,,,,,,,,,magenta,hexagon
68.0,5.0,0.5,1.0,3.0,3.0,342.0927629995276,4.0,1.0,phase_1,,,,,,,,,,,,,yellow,diamond
26.0,1.0,0.5,0.0,1.0,1.0,268.4394759999122,4.0,1.0,phase_1,,,,,,,,,,,,,gray,I
394.0,8.0,4.0,1.0,2.0,2.0,265.4705950008065,4.0,1.0,phase_1,,,,,,,,,,,,,orange,triangle
217.0,3.0,2.0,0.0,3.0,3.0,261.6205590020399,4.0,1.0,phase_1,,,,,,,,,,,,,magenta,hexagon
407.0,4.0,4.0,0.0,4.0,4.0,298.8092390005477,4.0,1.0,phase_1,,,,,,,,,,,,,white,circle
67.0,5.0,0.5,1.0,1.0,1.0,256.4632409994374,4.0,1.0,phase_1,,,,,,,,,,,,,yellow,diamond
404.0,4.0,4.0,0.0,4.0,4.0,244.193966002058,4.0,1.0,phase_1,,,,,,,,,,,,,white,circle
32.0,5.0,0.5,1.0,3.0,3.0,372.6620179986639,4.0,2.0,phase_1,,,,,,,,,,,,,yellow,diamond
392.0,8.0,4.0,1.0,2.0,2.0,297.5509040006727,4.0,1.0,phase_1,,,,,,,,,,,,,orange,triangle
390.0,8.0,4.0,1.0,3.0,3.0,343.192218002514,4.0,1.0,phase_1,,,,,,,,,,,,,orange,triangle
0.0,4.0,0.0,0.0,2.0,2.0,273.6315190013556,4.0,1.0,phase_1,,,,,,,,,,,,,white,circle
194.0,7.0,2.0,1.0,2.0,2.0,325.4090070004167,4.0,1.0,phase_1,,,,,,,,,,,,,cyan,flipped triangle
77.0,6.0,1.0,1.0,1.0,1.0,278.1508340012806,4.0,1.0,phase_1,,,,,,,,,,,,,blue,cross
28.0,5.0,0.5,1.0,3.0,3.0,281.1842289993365,4.0,1.0,phase_1,,,,,,,,,,,,,yellow,diamond
388.0,4.0,4.0,0.0,2.0,2.0,277.7794139983598,4.0,1.0,phase_1,,,,,,,,,,,,,white,circle
28.0,1.0,0.5,0.0,2.0,2.0,267.2156749977148,4.0,1.0,phase_1,,,,,,,,,,,,,gray,I
97.0,6.0,1.0,1.0,3.0,3.0,253.24516500040772,4.0,1.0,phase_1,,,,,,,,,,,,,blue,cross
50.0,1.0,0.5,0.0,2.0,2.0,252.8118349982833,4.0,1.0,phase_1,,,,,,,,,,,,,gray,I
221.0,3.0,2.0,0.0,3.0,3.0,249.5361269975546,4.0,1.0,phase_1,,,,,,,,,,,,,magenta,hexagon
396.0,4.0,4.0,0.0,1.0,1.0,219.5443400014483,4.0,1.0,phase_1,,,,,,,,,,,,,white,circle
48.0,5.0,0.5,1.0,3.0,3.0,272.6262850010243,4.0,1.0,phase_1,,,,,,,,,,,,,yellow,diamond
181.0,3.0,2.0,0.0,4.0,4.0,279.0867740004614,4.0,1.0,phase_1,,,,,,,,,,,,,magenta,hexagon
200.0,7.0,2.0,1.0,3.0,3.0,359.9751860019751,4.0,2.0,phase_1,,,,,,,,,,,,,cyan,flipped triangle
384.0,8.0,4.0,1.0,3.0,3.0,298.4319520001008,4.0,1.0,phase_1,,,,,,,,,,,,,orange,triangle
210.0,3.0,2.0,0.0,2.0,2.0,306.5825850026158,4.0,1.0,phase_1,,,,,,,,,,,,,magenta,hexagon
418.0,8.0,4.0,1.0,3.0,3.0,270.8788109994202,4.0,1.0,phase_1,,,,,,,,,,,,,orange,triangle
94.0,6.0,1.0,1.0,1.0,1.0,282.5621179981681,4.0,1.0,phase_1,,,,,,,,,,,,,blue,cross
0.0,6.0,0.0,1.0,3.0,3.0,261.6958940016047,4.0,1.0,phase_1,,,,,,,,,,,,,blue,cross
178.0,7.0,2.0,1.0,2.0,2.0,347.7287169989722,4.0,1.0,phase_1,,,,,,,,,,,,,cyan,flipped triangle
0.0,8.0,0.0,1.0,2.0,2.0,313.9847460006422,4.0,1.0,phase_1,,,,,,,,,,,,,orange,triangle
77.0,2.0,1.0,0.0,4.0,4.0,319.0966399997705,4.0,1.0,phase_1,,,,,,,,,,,,,green,square
419.0,4.0,4.0,0.0,1.0,1.0,273.8012109984993,4.0,1.0,phase_1,,,,,,,,,,,,,white,circle
35.0,1.0,0.5,0.0,3.0,3.0,286.7393659980735,4.0,1.0,phase_1,,,,,,,,,,,,,gray,I
106.0,6.0,1.0,1.0,2.0,2.0,291.5542699993239,4.0,1.0,phase_1,,,,,,,,,,,,,blue,cross
56.0,1.0,0.5,0.0,2.0,2.0,281.2757890023931,4.0,1.0,phase_1,,,,,,,,,,,,,gray,I
74.0,1.0,0.5,0.0,3.0,3.0,316.4268559994525,4.0,1.0,phase_1,,,,,,,,,,,,,gray,I
93.0,2.0,1.0,0.0,3.0,3.0,331.2826589972246,4.0,1.0,phase_1,,,,,,,,,,,,,green,square
392.0,4.0,4.0,0.0,4.0,4.0,327.7631060009298,4.0,1.0,phase_1,,,,,,,,,,,,,white,circle
67.0,1.0,0.5,0.0,3.0,3.0,314.7319490017253,4.0,1.0,phase_1,,,,,,,,,,,,,gray,I
410.0,4.0,4.0,0.0,1.0,1.0,281.4173229999142,4.0,1.0,phase_1,,,,,,,,,,,,,white,circle
92.0,6.0,1.0,1.0,4.0,4.0,277.7578660025028,4.0,1.0,phase_1,,,,,,,,,,,,,blue,cross
0.0,3.0,0.0,0.0,1.0,1.0,265.8160799983307,4.0,1.0,phase_1,,,,,,,,,,,,,magenta,hexagon
388.0,8.0,4.0,1.0,4.0,4.0,245.2147719995991,4.0,1.0,phase_1,,,,,,,,,,,,,orange,triangle
82.0,2.0,1.0,0.0,4.0,4.0,354.5141419999709,4.0,1.0,phase_1,,,,,,,,,,,,,green,square
195.0,3.0,2.0,0.0,2.0,2.0,311.1346589976165,4.0,1.0,phase_1,,,,,,,,,,,,,magenta,hexagon
0.0,3.0,0.0,0.0,2.0,2.0,347.6121480016445,4.0,1.0,phase_1,,,,,,,,,,,,,magenta,hexagon
0.0,3.0,0.0,0.0,2.0,2.0,317.9670019999321,4.0,1.0,phase_1,,,,,,,,,,,,,magenta,hexagon
403.0,8.0,4.0,1.0,4.0,4.0,356.8716059999133,4.0,1.0,phase_1,,,,,,,,,,,,,orange,triangle
180.0,7.0,2.0,1.0,4.0,4.0,322.3631530017883,4.0,1.0,phase_1,,,,,,,,,,,,,cyan,flipped triangle
97.0,2.0,1.0,0.0,2.0,2.0,319.6621610004513,4.0,1.0,phase_1,,,,,,,,,,,,,green,square
384.0,4.0,4.0,0.0,1.0,1.0,339.3536350013164,4.0,1.0,phase_1,,,,,,,,,,,,,white,circle
26.0,5.0,0.5,1.0,1.0,1.0,286.7831869989459,4.0,1.0,phase_1,,,,,,,,,,,,,yellow,diamond
0.0,1.0,0.0,0.0,4.0,4.0,293.8927440009138,4.0,1.0,phase_1,,,,,,,,,,,,,gray,I
209.0,3.0,2.0,0.0,3.0,3.0,288.9005489996634,4.0,1.0,phase_1,,,,,,,,,,,,,magenta,hexagon
123.0,2.0,1.0,0.0,1.0,1.0,246.7438029998447,4.0,1.0,phase_1,,,,,,,,,,,,,green,square
36.0,1.0,0.5,0.0,4.0,4.0,296.7853259979165,4.0,1.0,phase_1,,,,,,,,,,,,,gray,I
104.0,6.0,1.0,1.0,2.0,2.0,302.6806000016222,4.0,1.0,phase_1,,,,,,,,,,,,,blue,cross
0.0,3.0,0.0,0.0,1.0,1.0,274.4898189994273,4.0,1.0,phase_1,,,,,,,,,,,,,magenta,hexagon
60.0,5.0,0.5,1.0,4.0,4.0,257.4215669992554,4.0,1.0,phase_1,,,,,,,,,,,,,yellow,diamond
0.0,4.0,0.0,0.0,1.0,1.0,283.1634329995722,4.0,1.0,phase_1,,,,,,,,,,,,,white,circle
77.0,6.0,1.0,1.0,3.0,3.0,305.4188280002563,4.0,1.0,phase_1,,,,,,,,,,,,,blue,cross
116.0,2.0,1.0,0.0,1.0,1.0,238.2829779999156,4.0,1.0,phase_1,,,,,,,,,,,,,green,square
215.0,3.0,2.0,0.0,1.0,1.0,372.159358998033,4.0,1.0,phase_1,,,,,,,,,,,,,magenta,hexagon
211.0,7.0,2.0,1.0,3.0,3.0,331.624810998619,4.0,2.0,phase_1,,,,,,,,,,,,,cyan,flipped triangle
107.0,6.0,1.0,1.0,4.0,4.0,347.4260750008398,4.0,1.0,phase_1,,,,,,,,,,,,,blue,cross
34.0,1.0,0.5,0.0,3.0,3.0,396.4631159979035,4.0,1.0,phase_1,,,,,,,,,,,,,gray,I
100.0,2.0,1.0,0.0,3.0,3.0,298.5510489997978,4.0,1.0,phase_1,,,,,,,,,,,,,green,square
0.0,7.0,0.0,1.0,1.0,1.0,368.7425730022369,4.0,1.0,phase_1,,,,,,,,,,,,,cyan,flipped triangle
0.0,3.0,0.0,0.0,1.0,1.0,298.4537409975019,4.0,1.0,phase_1,,,,,,,,,,,,,magenta,hexagon
218.0,7.0,2.0,1.0,2.0,2.0,326.7285649999394,4.0,1.0,phase_1,,,,,,,,,,,,,cyan,flipped triangle
39.0,5.0,0.5,1.0,1.0,1.0,236.6757849995338,4.0,1.0,phase_1,,,,,,,,,,,,,yellow,diamond
125.0,6.0,1.0,1.0,4.0,4.0,323.7115679985436,4.0,1.0,phase_1,,,,,,,,,,,,,blue,cross
404.0,4.0,4.0,0.0,4.0,4.0,407.9431410027609,4.0,1.0,phase_1,,,,,,,,,,,,,white,circle
177.0,7.0,2.0,1.0,2.0,2.0,397.5183549991925,4.0,1.0,phase_1,,,,,,,,,,,,,cyan,flipped triangle
422.0,4.0,4.0,0.0,1.0,1.0,306.4000599988503,4.0,1.0,phase_1,,,,,,,,,,,,,white,circle
36.0,5.0,0.5,1.0,3.0,3.0,363.3684380001796,4.0,1.0,phase_1,,,,,,,,,,,,,yellow,diamond
419.0,8.0,4.0,1.0,3.0,3.0,354.8607560005621,4.0,1.0,phase_1,,,,,,,,,,,,,orange,triangle
380.0,4.0,4.0,0.0,2.0,2.0,302.4485319983796,4.0,1.0,phase_1,,,,,,,,,,,,,white,circle
70.0,1.0,0.5,0.0,2.0,2.0,306.769049999275,4.0,1.0,phase_1,,,,,,,,,,,,,gray,I
68.0,1.0,0.5,0.0,2.0,2.0,277.6427999997395,4.0,1.0,phase_1,,,,,,,,,,,,,gray,I
45.0,1.0,0.5,0.0,3.0,3.0,362.7967409993289,4.0,1.0,phase_1,,,,,,,,,,,,,gray,I
209.0,7.0,2.0,1.0,2.0,2.0,265.6457259981835,4.0,1.0,phase_1,,,,,,,,,,,,,cyan,flipped triangle
90.0,6.0,1.0,1.0,4.0,4.0,278.4794100007275,4.0,1.0,phase_1,,,,,,,,,,,,,blue,cross
0.0,4.0,0.0,0.0,1.0,1.0,266.3446459991974,4.0,1.0,phase_1,,,,,,,,,,,,,white,circle
197.0,7.0,2.0,1.0,3.0,3.0,297.2955580007692,4.0,1.0,phase_1,,,,,,,,,,,,,cyan,flipped triangle
68.0,5.0,0.5,1.0,1.0,1.0,274.4444069976453,4.0,1.0,phase_1,,,,,,,,,,,,,yellow,diamond
195.0,3.0,2.0,0.0,2.0,2.0,350.7825649976439,4.0,1.0,phase_1,,,,,,,,,,,,,magenta,hexagon
423.0,8.0,4.0,1.0,1.0,1.0,286.7272519979451,4.0,1.0,phase_1,,,,,,,,,,,,,orange,triangle
27.0,1.0,0.5,0.0,1.0,1.0,199.7464810010569,4.0,2.0,phase_1,,,,,,,,,,,,,gray,I
196.0,7.0,2.0,1.0,1.0,1.0,241.0153669989085,4.0,1.0,phase_1,,,,,,,,,,,,,cyan,flipped triangle
36.0,1.0,0.5,0.0,4.0,4.0,295.5586930002027,4.0,1.0,phase_1,,,,,,,,,,,,,gray,I
0.0,3.0,0.0,0.0,1.0,1.0,245.8433130013873,4.0,1.0,phase_1,,,,,,,,,,,,,magenta,hexagon
106.0,2.0,1.0,0.0,3.0,3.0,306.2028680033108,4.0,1.0,phase_1,,,,,,,,,,,,,green,square
77.0,2.0,1.0,0.0,4.0,4.0,372.6070140000956,4.0,1.0,phase_1,,,,,,,,,,,,,green,square
46.0,5.0,0.5,1.0,1.0,1.0,233.6540379983489,4.0,1.0,phase_1,,,,,,,,,,,,,yellow,diamond
0.0,2.0,1.0,0.0,5.0,5.0,334.8169029995915,1.0,1.0,phase_2,go,250.0,250.0,1.0,,,,,,,,,green,square
0.0,1.0,0.5,0.0,5.0,5.0,494.4061679998413,1.0,1.0,phase_2,go,250.0,250.0,1.0,,,,,,,,,gray,I
0.0,3.0,2.0,0.0,6.0,6.0,308.8979919994017,1.0,1.0,phase_2,go,250.0,250.0,1.0,,,,,,,,,magenta,hexagon
0.0,1.0,0.5,0.0,6.0,6.0,283.3644560014363,1.0,1.0,phase_2,go,250.0,250.0,1.0,,,,,,,,,gray,I
0.0,4.0,4.0,0.0,6.0,6.0,308.7141349969897,1.0,1.0,phase_2,go,250.0,250.0,1.0,,,,,,,,,white,circle
0.0,5.0,0.5,1.0,5.0,0.0,0.0,1.0,1.0,phase_2,stop,250.0,250.0,4.0,,,,,,,,,yellow,diamond
0.0,2.0,1.0,0.0,5.0,5.0,273.4394430008251,1.0,1.0,phase_2,go,300.0,250.0,1.0,,,,,,,,,green,square
0.0,1.0,0.5,0.0,5.0,5.0,453.1222769983287,1.0,1.0,phase_2,go,300.0,250.0,1.0,,,,,,,,,gray,I
0.0,8.0,4.0,1.0,5.0,5.0,283.7456919987744,1.0,1.0,phase_2,stop,300.0,250.0,3.0,,,,,,,,,orange,triangle
0.0,5.0,0.5,1.0,6.0,6.0,282.4902690008457,1.0,1.0,phase_2,go,250.0,250.0,1.0,,,,,,,,,yellow,diamond
0.0,3.0,2.0,0.0,6.0,6.0,351.5291830008209,1.0,1.0,phase_2,go,250.0,250.0,1.0,,,,,,,,,magenta,hexagon
0.0,7.0,2.0,1.0,5.0,5.0,352.0119230015552,1.0,1.0,phase_2,stop,250.0,250.0,3.0,,,,,,,,,cyan,flipped triangle
0.0,4.0,4.0,0.0,6.0,6.0,366.04223999893287,1.0,1.0,phase_2,go,200.0,250.0,1.0,,,,,,,,,white,circle
0.0,2.0,1.0,0.0,5.0,5.0,391.3275610029814,1.0,1.0,phase_2,go,200.0,250.0,1.0,,,,,,,,,green,square
0.0,6.0,1.0,1.0,5.0,5.0,645.9744950007007,1.0,1.0,phase_2,go,200.0,250.0,1.0,,,,,,,,,blue,cross
0.0,5.0,0.5,1.0,6.0,6.0,462.5072479975642,1.0,1.0,phase_2,go,200.0,250.0,1.0,,,,,,,,,yellow,diamond
0.0,7.0,2.0,1.0,5.0,5.0,302.2865550010465,1.0,1.0,phase_2,go,200.0,250.0,1.0,,,,,,,,,cyan,flipped triangle
0.0,4.0,4.0,0.0,5.0,5.0,511.08817999920575,1.0,1.0,phase_2,go,200.0,250.0,1.0,,,,,,,,,white,circle
0.0,2.0,1.0,0.0,5.0,5.0,525.1915289991302,1.0,1.0,phase_2,go,200.0,250.0,1.0,,,,,,,,,green,square
0.0,6.0,1.0,1.0,6.0,6.0,339.1814620008517,1.0,1.0,phase_2,stop,200.0,250.0,3.0,,,,,,,,,blue,cross
0.0,8.0,4.0,1.0,5.0,5.0,756.5168569999514,1.0,1.0,phase_2,stop,200.0,200.0,3.0,,,,,,,,,orange,triangle
0.0,1.0,0.5,0.0,5.0,5.0,725.2979549994052,1.0,1.0,phase_2,go,150.0,200.0,1.0,,,,,,,,,gray,I
0.0,5.0,0.5,1.0,6.0,0.0,0.0,1.0,1.0,phase_2,stop,150.0,200.0,4.0,,,,,,,,,yellow,diamond
0.0,5.0,0.5,1.0,6.0,0.0,0.0,1.0,1.0,phase_2,stop,150.0,250.0,4.0,,,,,,,,,yellow,diamond
0.0,2.0,1.0,0.0,6.0,6.0,611.2999709985161,1.0,1.0,phase_2,go,150.0,300.0,1.0,,,,,,,,,green,square
0.0,7.0,2.0,1.0,5.0,5.0,603.0526539980201,1.0,1.0,phase_2,go,150.0,300.0,1.0,,,,,,,,,cyan,flipped triangle
0.0,7.0,2.0,1.0,5.0,5.0,441.8812120020448,1.0,1.0,phase_2,go,150.0,300.0,1.0,,,,,,,,,cyan,flipped triangle
0.0,5.0,0.5,1.0,6.0,0.0,0.0,1.0,1.0,phase_2,stop,150.0,300.0,4.0,,,,,,,,,yellow,diamond
0.0,5.0,0.5,1.0,5.0,0.0,0.0,1.0,1.0,phase_2,stop,150.0,350.0,4.0,,,,,,,,,yellow,diamond
0.0,8.0,4.0,1.0,5.0,5.0,293.1221649996587,1.0,1.0,phase_2,stop,200.0,350.0,3.0,,,,,,,,,orange,triangle
0.0,8.0,4.0,1.0,5.0,5.0,766.5946240013,1.0,1.0,phase_2,go,150.0,350.0,1.0,,,,,,,,,orange,triangle
0.0,4.0,4.0,0.0,6.0,6.0,531.6377429990098,1.0,1.0,phase_2,go,150.0,350.0,1.0,,,,,,,,,white,circle
0.0,8.0,4.0,1.0,6.0,6.0,565.0027729971043,1.0,1.0,phase_2,go,150.0,350.0,1.0,,,,,,,,,orange,triangle
0.0,3.0,2.0,0.0,6.0,6.0,525.1755989993399,1.0,1.0,phase_2,go,150.0,350.0,1.0,,,,,,,,,magenta,hexagon
0.0,1.0,0.5,0.0,5.0,5.0,651.1146800003189,1.0,1.0,phase_2,go,150.0,350.0,1.0,,,,,,,,,gray,I
0.0,3.0,2.0,0.0,6.0,6.0,385.5354709994572,1.0,1.0,phase_2,go,150.0,350.0,1.0,,,,,,,,,magenta,hexagon
0.0,4.0,4.0,0.0,5.0,5.0,471.7029019993788,2.0,1.0,phase_2,go,150.0,350.0,1.0,,,,,,,,,white,circle
0.0,8.0,4.0,1.0,6.0,6.0,280.1297170008183,2.0,1.0,phase_2,stop,150.0,350.0,3.0,,,,,,,,,orange,triangle
0.0,1.0,0.5,0.0,5.0,5.0,289.0342719983891,2.0,1.0,phase_2,go,150.0,300.0,1.0,,,,,,,,,gray,I
0.0,6.0,1.0,1.0,5.0,5.0,375.4014959995402,2.0,1.0,phase_2,go,150.0,300.0,1.0,,,,,,,,,blue,cross
0.0,3.0,2.0,0.0,6.0,6.0,469.2666439987079,2.0,1.0,phase_2,go,150.0,300.0,1.0,,,,,,,,,magenta,hexagon
0.0,2.0,1.0,0.0,5.0,5.0,404.9321320017043,2.0,1.0,phase_2,go,150.0,300.0,1.0,,,,,,,,,green,square
0.0,6.0,1.0,1.0,6.0,6.0,380.9290350000083,2.0,1.0,phase_2,stop,150.0,300.0,3.0,,,,,,,,,blue,cross
0.0,3.0,2.0,0.0,5.0,5.0,292.9998100007651,2.0,1.0,phase_2,go,150.0,250.0,1.0,,,,,,,,,magenta,hexagon
0.0,3.0,2.0,0.0,5.0,5.0,387.7566980008851,2.0,1.0,phase_2,go,150.0,250.0,1.0,,,,,,,,,magenta,hexagon
0.0,6.0,1.0,1.0,6.0,0.0,0.0,2.0,1.0,phase_2,stop,150.0,250.0,4.0,,,,,,,,,blue,cross
0.0,4.0,4.0,0.0,6.0,6.0,531.9654619997891,2.0,1.0,phase_2,go,150.0,300.0,1.0,,,,,,,,,white,circle
0.0,7.0,2.0,1.0,6.0,6.0,362.0201429985172,2.0,1.0,phase_2,stop,150.0,300.0,3.0,,,,,,,,,cyan,flipped triangle
0.0,5.0,0.5,1.0,5.0,0.0,0.0,2.0,1.0,phase_2,stop,150.0,250.0,4.0,,,,,,,,,yellow,diamond
0.0,1.0,0.5,0.0,5.0,5.0,633.2914170016011,2.0,1.0,phase_2,go,200.0,250.0,1.0,,,,,,,,,gray,I
0.0,2.0,1.0,0.0,6.0,6.0,640.6180669982859,2.0,1.0,phase_2,go,200.0,250.0,1.0,,,,,,,,,green,square
0.0,5.0,0.5,1.0,5.0,0.0,0.0,2.0,1.0,phase_2,stop,200.0,250.0,4.0,,,,,,,,,yellow,diamond
0.0,7.0,2.0,1.0,5.0,0.0,0.0,2.0,1.0,phase_2,stop,250.0,250.0,4.0,,,,,,,,,cyan,flipped triangle
0.0,4.0,4.0,0.0,6.0,6.0,677.7774129986938,2.0,1.0,phase_2,go,300.0,250.0,1.0,,,,,,,,,white,circle
0.0,5.0,0.5,1.0,6.0,0.0,0.0,2.0,1.0,phase_2,stop,300.0,250.0,4.0,,,,,,,,,yellow,diamond
0.0,1.0,0.5,0.0,6.0,6.0,551.3662589983142,2.0,1.0,phase_2,go,300.0,300.0,1.0,,,,,,,,,gray,I
0.0,4.0,4.0,0.0,6.0,6.0,493.05342200023,2.0,1.0,phase_2,go,300.0,300.0,1.0,,,,,,,,,white,circle
0.0,1.0,0.5,0.0,6.0,6.0,554.7936329967342,2.0,1.0,phase_2,go,300.0,300.0,1.0,,,,,,,,,gray,I
0.0,8.0,4.0,1.0,6.0,6.0,379.6932580007706,2.0,1.0,phase_2,stop,300.0,300.0,3.0,,,,,,,,,orange,triangle
0.0,2.0,1.0,0.0,5.0,5.0,620.4535289980413,2.0,1.0,phase_2,go,300.0,250.0,1.0,,,,,,,,,green,square
0.0,6.0,1.0,1.0,5.0,0.0,0.0,2.0,1.0,phase_2,stop,300.0,250.0,4.0,,,,,,,,,blue,cross
0.0,8.0,4.0,1.0,6.0,0.0,0.0,2.0,1.0,phase_2,stop,350.0,250.0,4.0,,,,,,,,,orange,triangle
0.0,3.0,2.0,0.0,6.0,6.0,626.0433820025355,2.0,1.0,phase_2,go,350.0,300.0,1.0,,,,,,,,,magenta,hexagon
0.0,7.0,2.0,1.0,6.0,6.0,662.868993000302,2.0,1.0,phase_2,go,350.0,300.0,1.0,,,,,,,,,cyan,flipped triangle
0.0,4.0,4.0,0.0,5.0,5.0,638.1303449998086,2.0,1.0,phase_2,go,350.0,300.0,1.0,,,,,,,,,white,circle
0.0,3.0,2.0,0.0,5.0,5.0,552.0686839990958,2.0,1.0,phase_2,go,350.0,300.0,1.0,,,,,,,,,magenta,hexagon
0.0,1.0,0.5,0.0,5.0,5.0,597.7687509985117,2.0,1.0,phase_2,go,350.0,300.0,1.0,,,,,,,,,gray,I
0.0,2.0,1.0,0.0,6.0,6.0,548.574110998743,2.0,1.0,phase_2,go,350.0,300.0,1.0,,,,,,,,,green,square
0.0,1.0,0.5,0.0,6.0,6.0,429.2955240016454,2.0,1.0,phase_2,go,350.0,300.0,1.0,,,,,,,,,gray,I
0.0,6.0,1.0,1.0,5.0,5.0,413.5385240006144,2.0,1.0,phase_2,go,350.0,300.0,1.0,,,,,,,,,blue,cross
0.0,5.0,0.5,1.0,6.0,6.0,485.0997120011016,2.0,1.0,phase_2,stop,350.0,300.0,3.0,,,,,,,,,yellow,diamond
0.0,4.0,4.0,0.0,6.0,6.0,626.6779420002422,2.0,1.0,phase_2,go,350.0,250.0,1.0,,,,,,,,,white,circle
0.0,4.0,4.0,0.0,6.0,6.0,546.9074970023939,3.0,1.0,phase_2,go,350.0,250.0,1.0,,,,,,,,,white,circle
0.0,3.0,2.0,0.0,5.0,5.0,600.2665650012204,3.0,1.0,phase_2,go,350.0,250.0,1.0,,,,,,,,,magenta,hexagon
0.0,3.0,2.0,0.0,5.0,5.0,328.2933490008872,3.0,1.0,phase_2,go,350.0,250.0,1.0,,,,,,,,,magenta,hexagon
0.0,8.0,4.0,1.0,5.0,5.0,402.7515790003235,3.0,1.0,phase_2,go,350.0,250.0,1.0,,,,,,,,,orange,triangle
0.0,4.0,4.0,0.0,5.0,5.0,458.8802700018277,3.0,1.0,phase_2,go,350.0,250.0,1.0,,,,,,,,,white,circle
0.0,2.0,1.0,0.0,6.0,6.0,641.1692530018627,3.0,1.0,phase_2,go,350.0,250.0,1.0,,,,,,,,,green,square
0.0,6.0,1.0,1.0,6.0,0.0,0.0,3.0,1.0,phase_2,stop,350.0,250.0,4.0,,,,,,,,,blue,cross
0.0,7.0,2.0,1.0,6.0,0.0,0.0,3.0,1.0,phase_2,stop,350.0,300.0,4.0,,,,,,,,,cyan,flipped triangle
0.0,1.0,0.5,0.0,5.0,5.0,566.8278070006636,3.0,1.0,phase_2,go,350.0,350.0,1.0,,,,,,,,,gray,I
0.0,7.0,2.0,1.0,5.0,0.0,0.0,3.0,1.0,phase_2,stop,350.0,350.0,4.0,,,,,,,,,cyan,flipped triangle
0.0,6.0,1.0,1.0,5.0,0.0,0.0,3.0,1.0,phase_2,stop,400.0,350.0,4.0,,,,,,,,,blue,cross
0.0,2.0,1.0,0.0,6.0,6.0,380.3444110017153,3.0,1.0,phase_2,go,450.0,350.0,1.0,,,,,,,,,green,square
0.0,1.0,0.5,0.0,6.0,6.0,378.0370159984159,3.0,1.0,phase_2,go,450.0,350.0,1.0,,,,,,,,,gray,I
0.0,6.0,1.0,1.0,5.0,5.0,556.3925950009434,3.0,1.0,phase_2,stop,450.0,350.0,3.0,,,,,,,,,blue,cross
0.0,3.0,2.0,0.0,6.0,6.0,603.2831970005645,3.0,1.0,phase_2,go,400.0,350.0,1.0,,,,,,,,,magenta,hexagon
0.0,5.0,0.5,1.0,6.0,6.0,738.564156999928,3.0,1.0,phase_2,go,400.0,350.0,1.0,,,,,,,,,yellow,diamond
0.0,3.0,2.0,0.0,5.0,5.0,489.8532359984529,3.0,1.0,phase_2,go,400.0,350.0,1.0,,,,,,,,,magenta,hexagon
0.0,1.0,0.5,0.0,5.0,5.0,722.2922870023467,3.0,1.0,phase_2,go,400.0,350.0,1.0,,,,,,,,,gray,I
0.0,8.0,4.0,1.0,5.0,0.0,0.0,3.0,1.0,phase_2,stop,400.0,350.0,4.0,,,,,,,,,orange,triangle
0.0,2.0,1.0,0.0,5.0,5.0,457.327186002658,3.0,1.0,phase_2,go,450.0,350.0,1.0,,,,,,,,,green,square
0.0,3.0,2.0,0.0,5.0,5.0,576.0633440004312,3.0,1.0,phase_2,go,450.0,350.0,1.0,,,,,,,,,magenta,hexagon
0.0,7.0,2.0,1.0,5.0,5.0,621.4016770027229,3.0,1.0,phase_2,go,450.0,350.0,1.0,,,,,,,,,cyan,flipped triangle
0.0,8.0,4.0,1.0,6.0,0.0,0.0,3.0,1.0,phase_2,stop,450.0,350.0,4.0,,,,,,,,,orange,triangle
0.0,5.0,0.5,1.0,5.0,5.0,340.3555160002725,3.0,1.0,phase_2,stop,450.0,400.0,3.0,,,,,,,,,yellow,diamond
0.0,7.0,2.0,1.0,6.0,6.0,447.1749580006872,3.0,1.0,phase_2,stop,400.0,400.0,3.0,,,,,,,,,cyan,flipped triangle
0.0,3.0,2.0,0.0,6.0,6.0,476.2678010010859,3.0,1.0,phase_2,go,400.0,350.0,1.0,,,,,,,,,magenta,hexagon
0.0,8.0,4.0,1.0,5.0,5.0,634.8114909997093,3.0,1.0,phase_2,go,400.0,350.0,1.0,,,,,,,,,orange,triangle
0.0,4.0,4.0,0.0,6.0,6.0,588.2745730013994,3.0,1.0,phase_2,go,400.0,350.0,1.0,,,,,,,,,white,circle
0.0,7.0,2.0,1.0,6.0,0.0,0.0,3.0,1.0,phase_2,stop,400.0,350.0,4.0,,,,,,,,,cyan,flipped triangle
0.0,1.0,0.5,0.0,6.0,6.0,616.7665139983001,3.0,1.0,phase_2,go,400.0,400.0,1.0,,,,,,,,,gray,I
0.0,8.0,4.0,1.0,6.0,6.0,483.5396799971931,3.0,1.0,phase_2,stop,400.0,400.0,3.0,,,,,,,,,orange,triangle
0.0,7.0,2.0,1.0,6.0,0.0,0.0,3.0,1.0,phase_2,stop,400.0,350.0,4.0,,,,,,,,,cyan,flipped triangle
0.0,4.0,4.0,0.0,5.0,5.0,505.9696630014514,3.0,1.0,phase_2,go,400.0,400.0,1.0,,,,,,,,,white,circle
0.0,6.0,1.0,1.0,6.0,0.0,0.0,3.0,1.0,phase_2,stop,400.0,400.0,4.0,,,,,,,,,blue,cross
0.0,8.0,4.0,1.0,5.0,0.0,0.0,3.0,1.0,phase_2,stop,400.0,450.0,4.0,,,,,,,,,orange,triangle
0.0,1.0,0.5,0.0,6.0,6.0,407.5474259989278,3.0,1.0,phase_2,go,450.0,450.0,1.0,,,,,,,,,gray,I
0.0,7.0,2.0,1.0,5.0,0.0,0.0,4.0,1.0,phase_2,stop,450.0,450.0,4.0,,,,,,,,,cyan,flipped triangle
0.0,3.0,2.0,0.0,5.0,5.0,650.2560449989687,4.0,1.0,phase_2,go,500.0,450.0,1.0,,,,,,,,,magenta,hexagon
0.0,8.0,4.0,1.0,5.0,5.0,339.3168740003602,4.0,1.0,phase_2,stop,500.0,450.0,3.0,,,,,,,,,orange,triangle
0.0,3.0,2.0,0.0,6.0,6.0,553.8000499982445,4.0,1.0,phase_2,go,450.0,450.0,1.0,,,,,,,,,magenta,hexagon
0.0,2.0,1.0,0.0,5.0,5.0,505.73124999937136,4.0,1.0,phase_2,go,450.0,450.0,1.0,,,,,,,,,green,square
0.0,1.0,0.5,0.0,6.0,6.0,537.9534479980066,4.0,1.0,phase_2,go,450.0,450.0,1.0,,,,,,,,,gray,I
0.0,8.0,4.0,1.0,5.0,5.0,384.4568169988633,4.0,1.0,phase_2,go,450.0,450.0,1.0,,,,,,,,,orange,triangle
0.0,7.0,2.0,1.0,6.0,0.0,0.0,4.0,1.0,phase_2,stop,450.0,450.0,4.0,,,,,,,,,cyan,flipped triangle
0.0,5.0,0.5,1.0,5.0,5.0,367.3241090000374,4.0,1.0,phase_2,stop,450.0,500.0,3.0,,,,,,,,,yellow,diamond
0.0,2.0,1.0,0.0,6.0,6.0,584.0632640029071,4.0,1.0,phase_2,go,400.0,500.0,1.0,,,,,,,,,green,square
0.0,7.0,2.0,1.0,5.0,0.0,0.0,4.0,1.0,phase_2,stop,400.0,500.0,4.0,,,,,,,,,cyan,flipped triangle
0.0,8.0,4.0,1.0,5.0,0.0,0.0,4.0,1.0,phase_2,stop,450.0,500.0,4.0,,,,,,,,,orange,triangle
0.0,5.0,0.5,1.0,5.0,5.0,790.2775600014138,4.0,1.0,phase_2,go,500.0,500.0,1.0,,,,,,,,,yellow,diamond
0.0,2.0,1.0,0.0,6.0,6.0,875.8003479997569,4.0,1.0,phase_2,go,500.0,500.0,1.0,,,,,,,,,green,square
0.0,6.0,1.0,1.0,6.0,6.0,587.7156739989005,4.0,1.0,phase_2,stop,500.0,500.0,3.0,,,,,,,,,blue,cross
0.0,5.0,0.5,1.0,6.0,6.0,571.310982999421,4.0,1.0,phase_2,stop,500.0,450.0,3.0,,,,,,,,,yellow,diamond
0.0,1.0,0.5,0.0,6.0,6.0,692.4602510007389,4.0,1.0,phase_2,go,500.0,400.0,1.0,,,,,,,,,gray,I
0.0,6.0,1.0,1.0,6.0,0.0,0.0,4.0,1.0,phase_2,stop,500.0,400.0,4.0,,,,,,,,,blue,cross
0.0,1.0,0.5,0.0,5.0,5.0,602.1164980011235,4.0,1.0,phase_2,go,500.0,450.0,1.0,,,,,,,,,gray,I
0.0,2.0,1.0,0.0,6.0,6.0,666.7856329986535,4.0,1.0,phase_2,go,500.0,450.0,1.0,,,,,,,,,green,square
0.0,4.0,4.0,0.0,6.0,6.0,562.3533119978674,4.0,1.0,phase_2,go,500.0,450.0,1.0,,,,,,,,,white,circle
0.0,1.0,0.5,0.0,5.0,5.0,462.0589209989703,4.0,1.0,phase_2,go,500.0,450.0,1.0,,,,,,,,,gray,I
0.0,4.0,4.0,0.0,6.0,6.0,630.6457800019416,4.0,1.0,phase_2,go,500.0,450.0,1.0,,,,,,,,,white,circle
0.0,5.0,0.5,1.0,5.0,0.0,0.0,4.0,1.0,phase_2,stop,500.0,450.0,4.0,,,,,,,,,yellow,diamond
0.0,7.0,2.0,1.0,6.0,0.0,0.0,4.0,1.0,phase_2,stop,550.0,450.0,4.0,,,,,,,,,cyan,flipped triangle
0.0,2.0,1.0,0.0,6.0,6.0,531.8285810026282,4.0,1.0,phase_2,go,550.0,500.0,1.0,,,,,,,,,green,square
0.0,5.0,0.5,1.0,5.0,5.0,539.4994179987407,4.0,1.0,phase_2,stop,550.0,500.0,3.0,,,,,,,,,yellow,diamond
0.0,4.0,4.0,0.0,5.0,5.0,709.0041560004465,4.0,1.0,phase_2,go,500.0,500.0,1.0,,,,,,,,,white,circle
0.0,6.0,1.0,1.0,5.0,0.0,0.0,4.0,1.0,phase_2,stop,500.0,500.0,4.0,,,,,,,,,blue,cross
0.0,6.0,1.0,1.0,5.0,0.0,0.0,4.0,1.0,phase_2,stop,550.0,500.0,4.0,,,,,,,,,blue,cross
0.0,3.0,2.0,0.0,5.0,5.0,700.5565059989749,4.0,1.0,phase_2,go,600.0,500.0,1.0,,,,,,,,,magenta,hexagon
0.0,8.0,4.0,1.0,6.0,0.0,0.0,4.0,1.0,phase_2,stop,600.0,500.0,4.0,,,,,,,,,orange,triangle
0.0,3.0,2.0,0.0,6.0,6.0,696.0875170007057,4.0,1.0,phase_2,go,600.0,550.0,1.0,,,,,,,,,magenta,hexagon
0.0,6.0,1.0,1.0,6.0,0.0,0.0,4.0,1.0,phase_2,stop,600.0,550.0,4.0,,,,,,,,,blue,cross
0.0,6.0,1.0,1.0,6.0,6.0,726.7896400007885,4.0,1.0,phase_2,go,600.0,600.0,1.0,,,,,,,,,blue,cross
0.0,2.0,1.0,0.0,5.0,5.0,697.2667990012269,4.0,1.0,phase_2,go,600.0,600.0,1.0,,,,,,,,,green,square
0.0,8.0,4.0,1.0,6.0,6.0,496.1923760019999,5.0,1.0,phase_2,stop,600.0,600.0,3.0,,,,,,,,,orange,triangle
0.0,6.0,1.0,1.0,5.0,5.0,727.164215000812,5.0,1.0,phase_2,go,600.0,550.0,1.0,,,,,,,,,blue,cross
0.0,4.0,4.0,0.0,6.0,6.0,470.6577430006291,5.0,1.0,phase_2,go,600.0,550.0,1.0,,,,,,,,,white,circle
0.0,8.0,4.0,1.0,6.0,6.0,588.273465000384,5.0,1.0,phase_2,stop,600.0,550.0,3.0,,,,,,,,,orange,triangle
0.0,4.0,4.0,0.0,5.0,5.0,717.7951539997593,5.0,1.0,phase_2,go,600.0,500.0,1.0,,,,,,,,,white,circle
0.0,2.0,1.0,0.0,6.0,6.0,667.2872899980575,5.0,1.0,phase_2,go,600.0,500.0,1.0,,,,,,,,,green,square
0.0,8.0,4.0,1.0,5.0,5.0,582.5175350000791,5.0,1.0,phase_2,stop,600.0,500.0,3.0,,,,,,,,,orange,triangle
0.0,2.0,1.0,0.0,5.0,5.0,790.0990119997005,5.0,1.0,phase_2,go,550.0,500.0,1.0,,,,,,,,,green,square
0.0,1.0,0.5,0.0,6.0,6.0,1042.5708289985778,5.0,1.0,phase_2,go,550.0,500.0,1.0,,,,,,,,,gray,I
0.0,6.0,1.0,1.0,6.0,6.0,786.8548609985737,5.0,1.0,phase_2,go,550.0,500.0,1.0,,,,,,,,,blue,cross
0.0,7.0,2.0,1.0,5.0,5.0,888.5420070000691,5.0,1.0,phase_2,go,550.0,500.0,1.0,,,,,,,,,cyan,flipped triangle
0.0,4.0,4.0,0.0,5.0,5.0,770.9512080000422,5.0,1.0,phase_2,go,550.0,500.0,1.0,,,,,,,,,white,circle
0.0,1.0,0.5,0.0,6.0,6.0,800.7434789979015,5.0,1.0,phase_2,go,550.0,500.0,1.0,,,,,,,,,gray,I
0.0,1.0,0.5,0.0,5.0,5.0,680.2612460014643,5.0,1.0,phase_2,go,550.0,500.0,1.0,,,,,,,,,gray,I
0.0,3.0,2.0,0.0,5.0,5.0,793.161372999748,5.0,1.0,phase_2,go,550.0,500.0,1.0,,,,,,,,,magenta,hexagon
0.0,8.0,4.0,1.0,6.0,6.0,672.6555550012563,5.0,1.0,phase_2,go,550.0,500.0,1.0,,,,,,,,,orange,triangle
0.0,5.0,0.5,1.0,6.0,0.0,0.0,5.0,1.0,phase_2,stop,550.0,500.0,4.0,,,,,,,,,yellow,diamond
0.0,6.0,1.0,1.0,5.0,0.0,0.0,5.0,1.0,phase_2,stop,550.0,550.0,4.0,,,,,,,,,blue,cross
0.0,2.0,1.0,0.0,6.0,6.0,575.3543099999661,5.0,1.0,phase_2,go,600.0,550.0,1.0,,,,,,,,,green,square
0.0,1.0,0.5,0.0,6.0,6.0,565.5173619998095,5.0,1.0,phase_2,go,600.0,550.0,1.0,,,,,,,,,gray,I
0.0,5.0,0.5,1.0,6.0,0.0,0.0,5.0,1.0,phase_2,stop,600.0,550.0,4.0,,,,,,,,,yellow,diamond
0.0,8.0,4.0,1.0,5.0,5.0,734.2334899985872,5.0,1.0,phase_2,go,600.0,600.0,1.0,,,,,,,,,orange,triangle
0.0,6.0,1.0,1.0,6.0,0.0,0.0,5.0,1.0,phase_2,stop,600.0,600.0,4.0,,,,,,,,,blue,cross
0.0,6.0,1.0,1.0,6.0,6.0,738.3833820022119,5.0,1.0,phase_2,stop,600.0,650.0,3.0,,,,,,,,,blue,cross
0.0,7.0,2.0,1.0,5.0,0.0,0.0,5.0,1.0,phase_2,stop,600.0,600.0,4.0,,,,,,,,,cyan,flipped triangle
0.0,7.0,2.0,1.0,5.0,5.0,800.0503680013935,5.0,1.0,phase_2,go,650.0,600.0,1.0,,,,,,,,,cyan,flipped triangle
0.0,2.0,1.0,0.0,5.0,5.0,819.6229909990507,5.0,1.0,phase_2,go,650.0,600.0,1.0,,,,,,,,,green,square
0.0,8.0,4.0,1.0,6.0,0.0,0.0,5.0,1.0,phase_2,stop,650.0,600.0,4.0,,,,,,,,,orange,triangle
0.0,2.0,1.0,0.0,6.0,6.0,865.7833469987963,5.0,1.0,phase_2,go,650.0,650.0,1.0,,,,,,,,,green,square
0.0,4.0,4.0,0.0,6.0,6.0,857.4400409997907,5.0,1.0,phase_2,go,650.0,650.0,1.0,,,,,,,,,white,circle
0.0,3.0,2.0,0.0,5.0,5.0,737.4325689997931,5.0,1.0,phase_2,go,650.0,650.0,1.0,,,,,,,,,magenta,hexagon
0.0,8.0,4.0,1.0,6.0,6.0,397.6053160004085,5.0,1.0,phase_2,stop,650.0,650.0,3.0,,,,,,,,,orange,triangle
0.0,4.0,4.0,0.0,5.0,5.0,1111.372534000111,5.0,1.0,phase_2,go,650.0,600.0,1.0,,,,,,,,,white,circle
0.0,3.0,2.0,0.0,5.0,5.0,971.4459979986714,5.0,1.0,phase_2,go,650.0,600.0,1.0,,,,,,,,,magenta,hexagon
0.0,3.0,2.0,0.0,5.0,5.0,1013.5748319989943,5.0,1.0,phase_2,go,650.0,600.0,1.0,,,,,,,,,magenta,hexagon
0.0,5.0,0.5,1.0,5.0,5.0,1191.5157120020012,5.0,1.0,phase_2,go,650.0,600.0,1.0,,,,,,,,,yellow,diamond
0.0,2.0,1.0,0.0,6.0,6.0,427.7514249988599,6.0,1.0,phase_2,go,650.0,600.0,1.0,,,,,,,,,green,square
0.0,4.0,4.0,0.0,6.0,6.0,371.198753000499,6.0,1.0,phase_2,go,650.0,600.0,1.0,,,,,,,,,white,circle
0.0,6.0,1.0,1.0,6.0,6.0,403.1413860029715,6.0,1.0,phase_2,stop,650.0,600.0,3.0,,,,,,,,,blue,cross
0.0,8.0,4.0,1.0,5.0,5.0,540.8106180002505,6.0,1.0,phase_2,stop,650.0,550.0,3.0,,,,,,,,,orange,triangle
0.0,4.0,4.0,0.0,5.0,5.0,633.285464002256,6.0,1.0,phase_2,go,600.0,550.0,1.0,,,,,,,,,white,circle
0.0,5.0,0.5,1.0,6.0,6.0,403.1600890011759,6.0,1.0,phase_2,stop,600.0,550.0,3.0,,,,,,,,,yellow,diamond
0.0,8.0,4.0,1.0,6.0,6.0,562.0291609993728,6.0,1.0,phase_2,stop,600.0,500.0,3.0,,,,,,,,,orange,triangle
0.0,4.0,4.0,0.0,5.0,5.0,530.5502320006781,6.0,1.0,phase_2,go,600.0,450.0,1.0,,,,,,,,,white,circle
0.0,1.0,0.5,0.0,6.0,6.0,479.1898309995304,6.0,1.0,phase_2,go,600.0,450.0,1.0,,,,,,,,,gray,I
0.0,1.0,0.5,0.0,5.0,5.0,449.3167820000963,6.0,1.0,phase_2,go,600.0,450.0,1.0,,,,,,,,,gray,I
0.0,5.0,0.5,1.0,5.0,5.0,534.8482099980174,6.0,1.0,phase_2,stop,600.0,450.0,3.0,,,,,,,,,yellow,diamond
0.0,7.0,2.0,1.0,6.0,6.0,376.257814001292,6.0,1.0,phase_2,stop,550.0,450.0,3.0,,,,,,,,,cyan,flipped triangle
0.0,3.0,2.0,0.0,5.0,5.0,719.7465419994842,6.0,1.0,phase_2,go,550.0,400.0,1.0,,,,,,,,,magenta,hexagon
0.0,2.0,1.0,0.0,5.0,5.0,646.0640430013882,6.0,1.0,phase_2,go,550.0,400.0,1.0,,,,,,,,,green,square
0.0,6.0,1.0,1.0,5.0,0.0,0.0,6.0,1.0,phase_2,stop,550.0,400.0,4.0,,,,,,,,,blue,cross
0.0,7.0,2.0,1.0,5.0,0.0,0.0,6.0,1.0,phase_2,stop,600.0,400.0,4.0,,,,,,,,,cyan,flipped triangle
0.0,5.0,0.5,1.0,5.0,0.0,0.0,6.0,1.0,phase_2,stop,650.0,400.0,4.0,,,,,,,,,yellow,diamond
0.0,6.0,1.0,1.0,5.0,5.0,606.082325000898,6.0,1.0,phase_2,go,700.0,400.0,1.0,,,,,,,,,blue,cross
0.0,1.0,0.5,0.0,5.0,5.0,333.4631420002552,6.0,1.0,phase_2,go,700.0,400.0,1.0,,,,,,,,,gray,I
0.0,1.0,0.5,0.0,5.0,5.0,596.0716230001708,6.0,1.0,phase_2,go,700.0,400.0,1.0,,,,,,,,,gray,I
0.0,3.0,2.0,0.0,5.0,5.0,688.052614001208,6.0,1.0,phase_2,go,700.0,400.0,1.0,,,,,,,,,magenta,hexagon
0.0,4.0,4.0,0.0,6.0,6.0,699.5578739988559,6.0,1.0,phase_2,go,700.0,400.0,1.0,,,,,,,,,white,circle
0.0,4.0,4.0,0.0,5.0,5.0,576.0679080012778,6.0,1.0,phase_2,go,700.0,400.0,1.0,,,,,,,,,white,circle
0.0,2.0,1.0,0.0,6.0,6.0,503.3269589985139,6.0,1.0,phase_2,go,700.0,400.0,1.0,,,,,,,,,green,square
0.0,8.0,4.0,1.0,6.0,6.0,469.8562260018661,6.0,1.0,phase_2,go,700.0,400.0,1.0,,,,,,,,,orange,triangle
0.0,7.0,2.0,1.0,6.0,6.0,496.7202709995035,6.0,1.0,phase_2,stop,700.0,400.0,3.0,,,,,,,,,cyan,flipped triangle
0.0,4.0,4.0,0.0,6.0,6.0,589.2720240008202,6.0,1.0,phase_2,go,700.0,350.0,1.0,,,,,,,,,white,circle
0.0,8.0,4.0,1.0,5.0,5.0,301.5158130001509,6.0,1.0,phase_2,stop,700.0,350.0,3.0,,,,,,,,,orange,triangle
0.0,6.0,1.0,1.0,6.0,0.0,0.0,6.0,1.0,phase_2,stop,650.0,350.0,4.0,,,,,,,,,blue,cross
0.0,7.0,2.0,1.0,6.0,6.0,415.6450260015845,6.0,1.0,phase_2,stop,650.0,400.0,3.0,,,,,,,,,cyan,flipped triangle
0.0,2.0,1.0,0.0,5.0,5.0,546.7999989996315,6.0,1.0,phase_2,go,650.0,350.0,1.0,,,,,,,,,green,square
0.0,1.0,0.5,0.0,5.0,5.0,650.1246799998626,6.0,1.0,phase_2,go,650.0,350.0,1.0,,,,,,,,,gray,I
0.0,6.0,1.0,1.0,6.0,6.0,445.0171419994149,6.0,1.0,phase_2,stop,650.0,350.0,3.0,,,,,,,,,blue,cross
0.0,3.0,2.0,0.0,6.0,6.0,652.8818749975471,6.0,1.0,phase_2,go,650.0,300.0,1.0,,,,,,,,,magenta,hexagon
0.0,7.0,2.0,1.0,5.0,5.0,616.3094370022009,6.0,1.0,phase_2,stop,650.0,300.0,3.0,,,,,,,,,cyan,flipped triangle
0.0,8.0,4.0,1.0,6.0,0.0,0.0,6.0,1.0,phase_2,stop,600.0,300.0,4.0,,,,,,,,,orange,triangle
0.0,7.0,2.0,1.0,6.0,6.0,674.1827269979694,7.0,1.0,phase_2,go,600.0,350.0,1.0,,,,,,,,,cyan,flipped triangle
0.0,3.0,2.0,0.0,5.0,5.0,485.4711740008497,7.0,1.0,phase_2,go,600.0,350.0,1.0,,,,,,,,,magenta,hexagon
0.0,8.0,4.0,1.0,6.0,0.0,0.0,7.0,1.0,phase_2,stop,600.0,350.0,4.0,,,,,,,,,orange,triangle
0.0,5.0,0.5,1.0,5.0,5.0,481.3720960009959,7.0,1.0,phase_2,go,600.0,400.0,1.0,,,,,,,,,yellow,diamond
0.0,8.0,4.0,1.0,6.0,0.0,0.0,7.0,1.0,phase_2,stop,600.0,400.0,4.0,,,,,,,,,orange,triangle
0.0,7.0,2.0,1.0,6.0,6.0,568.7512159965991,7.0,1.0,phase_2,stop,600.0,450.0,3.0,,,,,,,,,cyan,flipped triangle
0.0,5.0,0.5,1.0,6.0,0.0,0.0,7.0,1.0,phase_2,stop,600.0,400.0,4.0,,,,,,,,,yellow,diamond
0.0,3.0,2.0,0.0,5.0,5.0,408.0654979989049,7.0,1.0,phase_2,go,600.0,450.0,1.0,,,,,,,,,magenta,hexagon
0.0,2.0,1.0,0.0,6.0,6.0,367.0005210005911,7.0,1.0,phase_2,go,600.0,450.0,1.0,,,,,,,,,green,square
0.0,7.0,2.0,1.0,5.0,5.0,297.1316949988249,7.0,1.0,phase_2,stop,600.0,450.0,3.0,,,,,,,,,cyan,flipped triangle
0.0,1.0,0.5,0.0,5.0,5.0,661.0917239995615,7.0,1.0,phase_2,go,550.0,450.0,1.0,,,,,,,,,gray,I
0.0,6.0,1.0,1.0,6.0,6.0,367.4304630003462,7.0,1.0,phase_2,stop,550.0,450.0,3.0,,,,,,,,,blue,cross
0.0,4.0,4.0,0.0,5.0,5.0,615.897183000925,7.0,1.0,phase_2,go,550.0,400.0,1.0,,,,,,,,,white,circle
0.0,3.0,2.0,0.0,6.0,6.0,621.4704339981836,7.0,1.0,phase_2,go,550.0,400.0,1.0,,,,,,,,,magenta,hexagon
0.0,6.0,1.0,1.0,5.0,5.0,466.834058999666,7.0,1.0,phase_2,stop,550.0,400.0,3.0,,,,,,,,,blue,cross
0.0,7.0,2.0,1.0,6.0,0.0,0.0,7.0,1.0,phase_2,stop,500.0,400.0,4.0,,,,,,,,,cyan,flipped triangle
0.0,2.0,1.0,0.0,5.0,5.0,540.4653730001883,7.0,1.0,phase_2,go,500.0,450.0,1.0,,,,,,,,,green,square
0.0,4.0,4.0,0.0,5.0,5.0,570.908502999373,7.0,1.0,phase_2,go,500.0,450.0,1.0,,,,,,,,,white,circle
0.0,7.0,2.0,1.0,6.0,6.0,524.2777569983446,7.0,1.0,phase_2,stop,500.0,450.0,3.0,,,,,,,,,cyan,flipped triangle
0.0,6.0,1.0,1.0,5.0,5.0,407.9863750012009,7.0,1.0,phase_2,stop,500.0,400.0,3.0,,,,,,,,,blue,cross
0.0,2.0,1.0,0.0,6.0,6.0,672.1369459992275,7.0,1.0,phase_2,go,450.0,400.0,1.0,,,,,,,,,green,square
0.0,1.0,0.5,0.0,6.0,6.0,512.8601719989092,7.0,1.0,phase_2,go,450.0,400.0,1.0,,,,,,,,,gray,I
0.0,2.0,1.0,0.0,5.0,5.0,582.378028997482,7.0,1.0,phase_2,go,450.0,400.0,1.0,,,,,,,,,green,square
0.0,4.0,4.0,0.0,5.0,5.0,361.1749589981627,7.0,1.0,phase_2,go,450.0,400.0,1.0,,,,,,,,,white,circle
0.0,4.0,4.0,0.0,6.0,6.0,417.4764160015911,7.0,1.0,phase_2,go,450.0,400.0,1.0,,,,,,,,,white,circle
0.0,5.0,0.5,1.0,5.0,5.0,438.7036250009259,7.0,1.0,phase_2,go,450.0,400.0,1.0,,,,,,,,,yellow,diamond
0.0,8.0,4.0,1.0,5.0,0.0,0.0,7.0,1.0,phase_2,stop,450.0,400.0,4.0,,,,,,,,,orange,triangle
0.0,2.0,1.0,0.0,5.0,5.0,716.7733780006529,7.0,1.0,phase_2,go,500.0,400.0,1.0,,,,,,,,,green,square
0.0,5.0,0.5,1.0,5.0,5.0,420.5844489988521,7.0,1.0,phase_2,stop,500.0,400.0,3.0,,,,,,,,,yellow,diamond
0.0,6.0,1.0,1.0,5.0,5.0,555.2915779990144,7.0,1.0,phase_2,go,450.0,400.0,1.0,,,,,,,,,blue,cross
0.0,2.0,1.0,0.0,5.0,5.0,589.716053000302,7.0,1.0,phase_2,go,450.0,400.0,1.0,,,,,,,,,green,square
0.0,8.0,4.0,1.0,5.0,5.0,572.2628990006342,7.0,1.0,phase_2,stop,450.0,400.0,3.0,,,,,,,,,orange,triangle
0.0,5.0,0.5,1.0,6.0,0.0,0.0,7.0,1.0,phase_2,stop,400.0,400.0,4.0,,,,,,,,,yellow,diamond
0.0,1.0,0.5,0.0,6.0,6.0,595.2261890015507,7.0,1.0,phase_2,go,400.0,450.0,1.0,,,,,,,,,gray,I
0.0,6.0,1.0,1.0,5.0,5.0,539.7577839976293,7.0,1.0,phase_2,stop,400.0,450.0,3.0,,,,,,,,,blue,cross
0.0,3.0,2.0,0.0,6.0,6.0,610.9293199988315,7.0,1.0,phase_2,go,350.0,450.0,1.0,,,,,,,,,magenta,hexagon
0.0,7.0,2.0,1.0,5.0,5.0,466.9089150011132,8.0,1.0,phase_2,stop,350.0,450.0,3.0,,,,,,,,,cyan,flipped triangle
0.0,3.0,2.0,0.0,6.0,6.0,589.1142500004207,8.0,1.0,phase_2,go,300.0,450.0,1.0,,,,,,,,,magenta,hexagon
0.0,5.0,0.5,1.0,5.0,0.0,0.0,8.0,1.0,phase_2,stop,300.0,450.0,4.0,,,,,,,,,yellow,diamond
0.0,8.0,4.0,1.0,5.0,5.0,579.7524680019706,8.0,1.0,phase_2,go,350.0,450.0,1.0,,,,,,,,,orange,triangle
0.0,1.0,0.5,0.0,6.0,6.0,521.5119319982477,8.0,1.0,phase_2,go,350.0,450.0,1.0,,,,,,,,,gray,I
0.0,6.0,1.0,1.0,6.0,6.0,408.6520529999689,8.0,1.0,phase_2,stop,350.0,450.0,3.0,,,,,,,,,blue,cross
0.0,7.0,2.0,1.0,6.0,6.0,575.2179529990826,8.0,1.0,phase_2,go,350.0,400.0,1.0,,,,,,,,,cyan,flipped triangle
0.0,7.0,2.0,1.0,5.0,5.0,450.9008489985717,8.0,1.0,phase_2,stop,350.0,400.0,3.0,,,,,,,,,cyan,flipped triangle
0.0,6.0,1.0,1.0,6.0,6.0,502.2397400025511,8.0,1.0,phase_2,go,300.0,400.0,1.0,,,,,,,,,blue,cross
0.0,5.0,0.5,1.0,6.0,0.0,0.0,8.0,1.0,phase_2,stop,300.0,400.0,4.0,,,,,,,,,yellow,diamond
0.0,5.0,0.5,1.0,6.0,6.0,584.7953960001178,8.0,1.0,phase_2,stop,300.0,450.0,3.0,,,,,,,,,yellow,diamond
0.0,4.0,4.0,0.0,5.0,5.0,511.56640100089135,8.0,1.0,phase_2,go,300.0,400.0,1.0,,,,,,,,,white,circle
0.0,3.0,2.0,0.0,6.0,6.0,581.6627960011829,8.0,1.0,phase_2,go,300.0,400.0,1.0,,,,,,,,,magenta,hexagon
0.0,6.0,1.0,1.0,5.0,0.0,0.0,8.0,1.0,phase_2,stop,300.0,400.0,4.0,,,,,,,,,blue,cross
0.0,7.0,2.0,1.0,6.0,6.0,485.4994730012549,8.0,1.0,phase_2,stop,350.0,400.0,3.0,,,,,,,,,cyan,flipped triangle
0.0,7.0,2.0,1.0,6.0,0.0,0.0,8.0,1.0,phase_2,stop,350.0,350.0,4.0,,,,,,,,,cyan,flipped triangle
0.0,3.0,2.0,0.0,6.0,6.0,513.5783010009618,8.0,1.0,phase_2,go,350.0,400.0,1.0,,,,,,,,,magenta,hexagon
0.0,5.0,0.5,1.0,5.0,5.0,417.0994739979505,8.0,1.0,phase_2,stop,350.0,400.0,3.0,,,,,,,,,yellow,diamond
0.0,4.0,4.0,0.0,5.0,5.0,505.4771229988546,8.0,1.0,phase_2,go,300.0,400.0,1.0,,,,,,,,,white,circle
0.0,1.0,0.5,0.0,5.0,5.0,643.0490590028057,8.0,1.0,phase_2,go,300.0,400.0,1.0,,,,,,,,,gray,I
0.0,2.0,1.0,0.0,6.0,6.0,625.6547840021085,8.0,1.0,phase_2,go,300.0,400.0,1.0,,,,,,,,,green,square
0.0,5.0,0.5,1.0,5.0,5.0,281.6096770002332,8.0,1.0,phase_2,go,300.0,400.0,1.0,,,,,,,,,yellow,diamond
0.0,3.0,2.0,0.0,6.0,6.0,631.3590959980502,8.0,1.0,phase_2,go,300.0,400.0,1.0,,,,,,,,,magenta,hexagon
0.0,5.0,0.5,1.0,6.0,6.0,726.2356749997707,8.0,1.0,phase_2,go,300.0,400.0,1.0,,,,,,,,,yellow,diamond
0.0,2.0,1.0,0.0,6.0,6.0,543.6491430009482,8.0,1.0,phase_2,go,300.0,400.0,1.0,,,,,,,,,green,square
0.0,4.0,4.0,0.0,6.0,6.0,525.3910899991752,8.0,1.0,phase_2,go,300.0,400.0,1.0,,,,,,,,,white,circle
0.0,8.0,4.0,1.0,6.0,0.0,0.0,8.0,1.0,phase_2,stop,300.0,400.0,4.0,,,,,,,,,orange,triangle
0.0,1.0,0.5,0.0,6.0,6.0,719.0844670003571,8.0,1.0,phase_2,go,300.0,450.0,1.0,,,,,,,,,gray,I
0.0,7.0,2.0,1.0,5.0,0.0,0.0,8.0,1.0,phase_2,stop,300.0,450.0,4.0,,,,,,,,,cyan,flipped triangle
0.0,3.0,2.0,0.0,5.0,5.0,474.9769510017358,8.0,1.0,phase_2,go,350.0,450.0,1.0,,,,,,,,,magenta,hexagon
0.0,2.0,1.0,0.0,5.0,5.0,742.3762210019049,8.0,1.0,phase_2,go,350.0,450.0,1.0,,,,,,,,,green,square
0.0,6.0,1.0,1.0,5.0,0.0,0.0,8.0,1.0,phase_2,stop,350.0,450.0,4.0,,,,,,,,,blue,cross
0.0,3.0,2.0,0.0,6.0,6.0,404.5479520027584,8.0,1.0,phase_2,go,400.0,450.0,1.0,,,,,,,,,magenta,hexagon
0.0,1.0,0.5,0.0,6.0,6.0,537.0712479998474,8.0,1.0,phase_2,go,400.0,450.0,1.0,,,,,,,,,gray,I
0.0,5.0,0.5,1.0,6.0,6.0,476.8531129993789,8.0,1.0,phase_2,stop,400.0,450.0,3.0,,,,,,,,,yellow,diamond
0.0,4.0,4.0,0.0,5.0,5.0,512.2137120015395,8.0,1.0,phase_2,go,400.0,400.0,1.0,,,,,,,,,white,circle
0.0,5.0,0.5,1.0,7.0,3.0,297.7366790000815,1.0,1.0,phase_3,,,,,78.0,2.0,234.0,117.0,78.0,195.0,156.0,39.0,yellow,diamond
0.0,1.0,0.5,0.0,7.0,6.0,2185.934754998016,1.0,2.0,phase_3,,,,,324.0,6.0,108.0,270.0,216.0,54.0,162.0,324.0,gray,I
0.0,4.0,4.0,0.0,7.0,2.0,1210.953565001546,1.0,1.0,phase_3,,,,,204.0,6.0,170.0,204.0,102.0,136.0,34.0,68.0,white,circle
0.0,7.0,2.0,1.0,7.0,1.0,1227.5972120005465,1.0,1.0,phase_3,,,,,216.0,4.0,216.0,162.0,270.0,54.0,324.0,108.0,cyan,flipped triangle
0.0,3.0,2.0,0.0,7.0,3.0,1340.0805339988435,1.0,1.0,phase_3,,,,,270.0,5.0,216.0,162.0,270.0,108.0,54.0,324.0,magenta,hexagon
0.0,2.0,1.0,0.0,7.0,1.0,1238.284825001756,1.0,1.0,phase_3,,,,,195.0,5.0,195.0,156.0,234.0,117.0,78.0,39.0,green,square
0.0,5.0,0.5,1.0,7.0,3.0,1424.716483001248,1.0,1.0,phase_3,,,,,270.0,5.0,216.0,54.0,270.0,108.0,162.0,324.0,yellow,diamond
0.0,3.0,2.0,0.0,7.0,4.0,816.4570910012117,1.0,1.0,phase_3,,,,,234.0,6.0,195.0,78.0,117.0,234.0,39.0,156.0,magenta,hexagon
0.0,1.0,0.5,0.0,7.0,3.0,1037.060120997921,1.0,1.0,phase_3,,,,,216.0,4.0,162.0,324.0,216.0,270.0,108.0,54.0,gray,I
0.0,1.0,0.5,0.0,7.0,2.0,1356.8439070004388,1.0,1.0,phase_3,,,,,147.0,3.0,245.0,147.0,196.0,49.0,98.0,294.0,gray,I
0.0,2.0,1.0,0.0,7.0,3.0,1367.2197250016325,1.0,1.0,phase_3,,,,,204.0,6.0,170.0,34.0,204.0,102.0,136.0,68.0,green,square
0.0,5.0,0.5,1.0,7.0,4.0,1768.1425789996863,1.0,1.0,phase_3,,,,,170.0,5.0,34.0,136.0,204.0,170.0,68.0,102.0,yellow,diamond
0.0,1.0,0.5,0.0,7.0,1.0,1367.5997850004933,1.0,1.0,phase_3,,,,,136.0,4.0,136.0,68.0,170.0,204.0,102.0,34.0,gray,I
0.0,3.0,2.0,0.0,7.0,4.0,1012.3936590025551,1.0,1.0,phase_3,,,,,68.0,2.0,34.0,102.0,204.0,68.0,170.0,136.0,magenta,hexagon
0.0,8.0,4.0,1.0,7.0,4.0,1002.5785149991862,1.0,1.0,phase_3,,,,,196.0,4.0,98.0,49.0,294.0,196.0,147.0,245.0,orange,triangle
0.0,3.0,2.0,0.0,7.0,1.0,947.3190149983566,1.0,1.0,phase_3,,,,,176.0,4.0,176.0,132.0,44.0,264.0,220.0,88.0,magenta,hexagon
0.0,7.0,2.0,1.0,7.0,2.0,1340.2354850004483,1.0,1.0,phase_3,,,,,156.0,4.0,39.0,156.0,234.0,117.0,195.0,78.0,cyan,flipped triangle
0.0,2.0,1.0,0.0,7.0,6.0,1061.8740059981064,1.0,1.0,phase_3,,,,,147.0,3.0,294.0,245.0,49.0,98.0,196.0,147.0,green,square
0.0,2.0,1.0,0.0,7.0,2.0,929.4967069981794,1.0,1.0,phase_3,,,,,162.0,3.0,216.0,162.0,108.0,270.0,324.0,54.0,green,square
0.0,3.0,2.0,0.0,7.0,4.0,1547.3555850003322,1.0,1.0,phase_3,,,,,108.0,2.0,324.0,54.0,216.0,108.0,162.0,270.0,magenta,hexagon
0.0,5.0,0.5,1.0,7.0,3.0,864.1230880020885,2.0,1.0,phase_3,,,,,147.0,3.0,49.0,245.0,147.0,294.0,98.0,196.0,yellow,diamond
0.0,8.0,4.0,1.0,7.0,3.0,1202.886122999189,2.0,1.0,phase_3,,,,,196.0,4.0,245.0,98.0,196.0,294.0,147.0,49.0,orange,triangle
0.0,6.0,1.0,1.0,7.0,2.0,922.67613399963,2.0,1.0,phase_3,,,,,117.0,3.0,78.0,117.0,234.0,156.0,195.0,39.0,blue,cross
0.0,8.0,4.0,1.0,7.0,4.0,834.823889999825,2.0,1.0,phase_3,,,,,162.0,3.0,270.0,54.0,216.0,162.0,108.0,324.0,orange,triangle
0.0,8.0,4.0,1.0,7.0,4.0,1221.9408819983073,2.0,1.0,phase_3,,,,,132.0,3.0,264.0,44.0,176.0,132.0,220.0,88.0,orange,triangle
0.0,4.0,4.0,0.0,7.0,4.0,1281.153784002527,2.0,1.0,phase_3,,,,,156.0,4.0,39.0,78.0,234.0,156.0,195.0,117.0,white,circle
0.0,2.0,1.0,0.0,7.0,2.0,887.5467990001198,2.0,1.0,phase_3,,,,,136.0,4.0,170.0,136.0,34.0,68.0,102.0,204.0,green,square
0.0,5.0,0.5,1.0,7.0,3.0,744.162986997253,2.0,1.0,phase_3,,,,,162.0,3.0,108.0,216.0,162.0,54.0,324.0,270.0,yellow,diamond
0.0,6.0,1.0,1.0,7.0,2.0,1213.1933880009456,2.0,1.0,phase_3,,,,,176.0,4.0,132.0,176.0,264.0,220.0,44.0,88.0,blue,cross
0.0,8.0,4.0,1.0,7.0,5.0,1389.790716999414,2.0,1.0,phase_3,,,,,195.0,5.0,78.0,117.0,39.0,156.0,195.0,234.0,orange,triangle
0.0,8.0,4.0,1.0,7.0,5.0,917.8604880034982,2.0,1.0,phase_3,,,,,136.0,4.0,68.0,170.0,204.0,102.0,136.0,34.0,orange,triangle
0.0,2.0,1.0,0.0,7.0,4.0,1110.4476649998103,2.0,1.0,phase_3,,,,,147.0,3.0,294.0,245.0,49.0,147.0,196.0,98.0,green,square
0.0,4.0,4.0,0.0,7.0,6.0,1034.6217969999998,2.0,1.0,phase_3,,,,,216.0,4.0,270.0,162.0,324.0,108.0,54.0,216.0,white,circle
0.0,4.0,4.0,0.0,7.0,4.0,1305.9220100003586,2.0,1.0,phase_3,,,,,147.0,3.0,196.0,49.0,98.0,147.0,245.0,294.0,white,circle
0.0,1.0,0.5,0.0,7.0,2.0,1065.9892479998234,2.0,1.0,phase_3,,,,,220.0,5.0,132.0,220.0,88.0,44.0,176.0,264.0,gray,I
0.0,6.0,1.0,1.0,7.0,1.0,1307.913839998946,2.0,1.0,phase_3,,,,,136.0,4.0,136.0,34.0,204.0,102.0,170.0,68.0,blue,cross
0.0,7.0,2.0,1.0,7.0,5.0,1494.8135390004609,2.0,1.0,phase_3,,,,,102.0,3.0,204.0,136.0,68.0,34.0,102.0,170.0,cyan,flipped triangle
0.0,5.0,0.5,1.0,7.0,4.0,1655.9373870004492,2.0,1.0,phase_3,,,,,156.0,4.0,117.0,234.0,39.0,156.0,195.0,78.0,yellow,diamond
0.0,6.0,1.0,1.0,7.0,5.0,835.0587089989858,2.0,1.0,phase_3,,,,,162.0,3.0,324.0,216.0,270.0,54.0,162.0,108.0,blue,cross
0.0,7.0,2.0,1.0,7.0,2.0,1259.9116070014134,2.0,1.0,phase_3,,,,,324.0,6.0,54.0,324.0,216.0,162.0,270.0,108.0,cyan,flipped triangle
0.0,4.0,4.0,0.0,7.0,5.0,1139.6516820022953,3.0,1.0,phase_3,,,,,147.0,3.0,49.0,245.0,98.0,294.0,147.0,196.0,white,circle
0.0,5.0,0.5,1.0,7.0,6.0,893.5565419997147,3.0,1.0,phase_3,,,,,132.0,3.0,264.0,176.0,44.0,220.0,88.0,132.0,yellow,diamond
0.0,3.0,2.0,0.0,7.0,2.0,839.6138050011359,3.0,1.0,phase_3,,,,,195.0,5.0,234.0,195.0,78.0,117.0,156.0,39.0,magenta,hexagon
0.0,2.0,1.0,0.0,7.0,5.0,1069.901958999253,3.0,1.0,phase_3,,,,,156.0,4.0,195.0,117.0,39.0,78.0,156.0,234.0,green,square
0.0,3.0,2.0,0.0,7.0,4.0,1191.1050330018045,3.0,1.0,phase_3,,,,,147.0,3.0,49.0,294.0,98.0,147.0,196.0,245.0,magenta,hexagon
0.0,7.0,2.0,1.0,7.0,3.0,1915.0089789982303,3.0,1.0,phase_3,,,,,196.0,4.0,147.0,294.0,196.0,98.0,245.0,49.0,cyan,flipped triangle
0.0,6.0,1.0,1.0,7.0,3.0,1034.1322469976149,3.0,1.0,phase_3,,,,,170.0,5.0,136.0,102.0,170.0,34.0,68.0,204.0,blue,cross
0.0,7.0,2.0,1.0,7.0,5.0,1339.4379270030186,3.0,1.0,phase_3,,,,,147.0,3.0,294.0,196.0,49.0,245.0,147.0,98.0,cyan,flipped triangle
0.0,8.0,4.0,1.0,7.0,6.0,1597.258771998895,3.0,1.0,phase_3,,,,,176.0,4.0,220.0,44.0,88.0,264.0,132.0,176.0,orange,triangle
0.0,1.0,0.5,0.0,7.0,1.0,1402.1350139992137,3.0,1.0,phase_3,,,,,204.0,6.0,204.0,34.0,68.0,170.0,102.0,136.0,gray,I
0.0,6.0,1.0,1.0,7.0,5.0,679.2527729994617,3.0,1.0,phase_3,,,,,176.0,4.0,44.0,264.0,132.0,220.0,176.0,88.0,blue,cross
0.0,4.0,4.0,0.0,7.0,2.0,1305.2719560000696,3.0,1.0,phase_3,,,,,132.0,3.0,44.0,132.0,88.0,220.0,176.0,264.0,white,circle
0.0,6.0,1.0,1.0,7.0,3.0,1333.4800520024146,3.0,1.0,phase_3,,,,,98.0,2.0,245.0,294.0,98.0,196.0,49.0,147.0,blue,cross
0.0,1.0,0.5,0.0,7.0,6.0,1087.0920779998414,3.0,1.0,phase_3,,,,,132.0,3.0,264.0,88.0,176.0,44.0,220.0,132.0,gray,I
0.0,1.0,0.5,0.0,7.0,2.0,704.2699599987827,3.0,1.0,phase_3,,,,,156.0,4.0,78.0,156.0,117.0,39.0,234.0,195.0,gray,I
0.0,1.0,0.5,0.0,7.0,5.0,913.3363789987924,3.0,1.0,phase_3,,,,,195.0,5.0,39.0,156.0,78.0,117.0,195.0,234.0,gray,I
0.0,4.0,4.0,0.0,7.0,2.0,785.7660859990574,3.0,1.0,phase_3,,,,,132.0,3.0,44.0,132.0,220.0,176.0,264.0,88.0,white,circle
0.0,7.0,2.0,1.0,7.0,4.0,809.6475919992372,3.0,1.0,phase_3,,,,,132.0,3.0,88.0,44.0,264.0,132.0,176.0,220.0,cyan,flipped triangle
0.0,5.0,0.5,1.0,7.0,2.0,532.9366170008143,3.0,1.0,phase_3,,,,,132.0,3.0,88.0,132.0,264.0,176.0,44.0,220.0,yellow,diamond
0.0,2.0,1.0,0.0,7.0,2.0,1515.7133339998836,3.0,1.0,phase_3,,,,,162.0,3.0,270.0,162.0,108.0,216.0,54.0,324.0,green,square
0.0,2.0,1.0,0.0,7.0,2.0,979.9809390024166,4.0,1.0,phase_3,,,,,132.0,3.0,176.0,132.0,44.0,88.0,220.0,264.0,green,square
0.0,6.0,1.0,1.0,7.0,6.0,1078.6881750027533,4.0,1.0,phase_3,,,,,108.0,2.0,324.0,162.0,54.0,270.0,216.0,108.0,blue,cross
0.0,3.0,2.0,0.0,7.0,3.0,1616.072490000079,4.0,1.0,phase_3,,,,,88.0,2.0,132.0,44.0,88.0,176.0,264.0,220.0,magenta,hexagon
0.0,4.0,4.0,0.0,7.0,1.0,770.0726840012067,4.0,1.0,phase_3,,,,,170.0,5.0,170.0,102.0,204.0,136.0,34.0,68.0,white,circle
0.0,8.0,4.0,1.0,7.0,4.0,707.0201909991738,4.0,1.0,phase_3,,,,,117.0,3.0,156.0,234.0,78.0,117.0,39.0,195.0,orange,triangle
0.0,7.0,2.0,1.0,7.0,4.0,1275.3954340005291,4.0,1.0,phase_3,,,,,170.0,5.0,68.0,34.0,204.0,170.0,136.0,102.0,cyan,flipped triangle
0.0,2.0,1.0,0.0,7.0,3.0,1260.4352130001644,4.0,1.0,phase_3,,,,,176.0,4.0,220.0,264.0,176.0,44.0,88.0,132.0,green,square
0.0,3.0,2.0,0.0,7.0,4.0,943.6184339974716,4.0,1.0,phase_3,,,,,102.0,3.0,34.0,136.0,68.0,102.0,170.0,204.0,magenta,hexagon
0.0,8.0,4.0,1.0,7.0,1.0,816.019537000102,4.0,1.0,phase_3,,,,,136.0,4.0,136.0,68.0,204.0,170.0,34.0,102.0,orange,triangle
0.0,1.0,0.5,0.0,7.0,4.0,922.3470079996332,4.0,1.0,phase_3,,,,,245.0,5.0,196.0,49.0,98.0,245.0,147.0,294.0,gray,I
0.0,7.0,2.0,1.0,7.0,4.0,874.6667349987547,4.0,1.0,phase_3,,,,,176.0,4.0,88.0,220.0,44.0,176.0,132.0,264.0,cyan,flipped triangle
0.0,8.0,4.0,1.0,7.0,5.0,1370.5217539973091,4.0,1.0,phase_3,,,,,162.0,3.0,54.0,324.0,270.0,108.0,162.0,216.0,orange,triangle
0.0,7.0,2.0,1.0,7.0,5.0,1071.799016997829,4.0,1.0,phase_3,,,,,156.0,4.0,117.0,234.0,78.0,39.0,156.0,195.0,cyan,flipped triangle
0.0,4.0,4.0,0.0,7.0,3.0,840.2317379986926,4.0,1.0,phase_3,,,,,117.0,3.0,195.0,156.0,117.0,78.0,234.0,39.0,white,circle
0.0,5.0,0.5,1.0,7.0,1.0,1295.41656499714,4.0,1.0,phase_3,,,,,147.0,3.0,147.0,49.0,294.0,245.0,196.0,98.0,yellow,diamond
0.0,4.0,4.0,0.0,7.0,5.0,826.0993469993991,4.0,1.0,phase_3,,,,,162.0,3.0,216.0,270.0,108.0,324.0,162.0,54.0,white,circle
0.0,6.0,1.0,1.0,7.0,4.0,1081.977724999888,4.0,1.0,phase_3,,,,,196.0,4.0,147.0,98.0,245.0,196.0,294.0,49.0,blue,cross
0.0,3.0,2.0,0.0,7.0,2.0,1380.805546999909,4.0,1.0,phase_3,,,,,294.0,6.0,196.0,294.0,245.0,147.0,98.0,49.0,magenta,hexagon
0.0,6.0,1.0,1.0,7.0,3.0,1886.0024069981591,4.0,1.0,phase_3,,,,,156.0,4.0,117.0,195.0,156.0,234.0,78.0,39.0,blue,cross
0.0,5.0,0.5,1.0,7.0,2.0,1304.2531319988484,4.0,1.0,phase_3,,,,,136.0,4.0,170.0,136.0,102.0,68.0,34.0,204.0,yellow,diamond
