raw_reward_magnitude,stim_reward,stepwise_reward_magnitude,paired_with_stopping,stim_location,response,reaction_time,block,num_trial_presentations,which_phase,stop_signal_trial_type,left_SSD,right_SSD,accuracy,chosen_bidding_amount,chosen_bidding_level,possible_bid_1,possible_bid_2,possible_bid_3,possible_bid_4,possible_bid_5,possible_bid_6,color_text,shape_text
382.0,4.0,4.0,0.0,2.0,2.0,351.2242430006154,1.0,1.0,phase_1,,,,,,,,,,,,,gray,circle
407.0,8.0,4.0,1.0,1.0,1.0,340.1030660024844,1.0,1.0,phase_1,,,,,,,,,,,,,cyan,triangle
73.0,5.0,1.0,1.0,4.0,4.0,390.3924719779752,1.0,2.0,phase_1,,,,,,,,,,,,,yellow,flipped triangle
74.0,1.0,1.0,0.0,3.0,3.0,562.0247579645365,1.0,1.0,phase_1,,,,,,,,,,,,,orange,diamond
113.0,2.0,2.0,0.0,2.0,2.0,371.6311050229706,1.0,1.0,phase_1,,,,,,,,,,,,,blue,cross
211.0,7.0,3.0,1.0,4.0,4.0,328.4535610000603,1.0,1.0,phase_1,,,,,,,,,,,,,magenta,I
31.0,1.0,1.0,0.0,1.0,1.0,344.0028319600969,1.0,1.0,phase_1,,,,,,,,,,,,,orange,diamond
417.0,8.0,4.0,1.0,4.0,4.0,307.6827969634905,1.0,1.0,phase_1,,,,,,,,,,,,,cyan,triangle
88.0,6.0,2.0,1.0,1.0,1.0,312.9989209701307,1.0,1.0,phase_1,,,,,,,,,,,,,green,hexagon
0.0,5.0,0.0,1.0,2.0,2.0,352.2932740161195,1.0,2.0,phase_1,,,,,,,,,,,,,yellow,flipped triangle
84.0,2.0,2.0,0.0,3.0,3.0,364.7623870056122,1.0,1.0,phase_1,,,,,,,,,,,,,blue,cross
88.0,2.0,2.0,0.0,3.0,3.0,389.2504820250906,1.0,1.0,phase_1,,,,,,,,,,,,,blue,cross
28.0,1.0,1.0,0.0,4.0,4.0,310.5366300442256,1.0,1.0,phase_1,,,,,,,,,,,,,orange,diamond
385.0,8.0,4.0,1.0,1.0,1.0,357.6386530185118,1.0,1.0,phase_1,,,,,,,,,,,,,cyan,triangle
0.0,8.0,0.0,1.0,1.0,1.0,400.9516329970211,1.0,1.0,phase_1,,,,,,,,,,,,,cyan,triangle
0.0,2.0,0.0,0.0,2.0,2.0,332.5438419706188,1.0,1.0,phase_1,,,,,,,,,,,,,blue,cross
404.0,8.0,4.0,1.0,3.0,3.0,324.4249389972538,1.0,1.0,phase_1,,,,,,,,,,,,,cyan,triangle
57.0,5.0,1.0,1.0,2.0,2.0,464.1416770173237,1.0,1.0,phase_1,,,,,,,,,,,,,yellow,flipped triangle
396.0,4.0,4.0,0.0,1.0,1.0,436.8657160084694,1.0,1.0,phase_1,,,,,,,,,,,,,gray,circle
117.0,6.0,2.0,1.0,1.0,1.0,328.9646449848078,1.0,1.0,phase_1,,,,,,,,,,,,,green,hexagon
91.0,2.0,2.0,0.0,4.0,4.0,490.4466529842466,1.0,2.0,phase_1,,,,,,,,,,,,,blue,cross
30.0,1.0,1.0,0.0,2.0,2.0,788.8952580397017,1.0,1.0,phase_1,,,,,,,,,,,,,orange,diamond
53.0,5.0,1.0,1.0,1.0,1.0,378.011699009221,1.0,1.0,phase_1,,,,,,,,,,,,,yellow,flipped triangle
0.0,1.0,0.0,0.0,3.0,3.0,359.7613579477183,1.0,1.0,phase_1,,,,,,,,,,,,,orange,diamond
0.0,1.0,0.0,0.0,2.0,2.0,397.6344870170578,1.0,1.0,phase_1,,,,,,,,,,,,,orange,diamond
0.0,3.0,0.0,0.0,3.0,3.0,306.7032300168648,1.0,1.0,phase_1,,,,,,,,,,,,,white,square
44.0,1.0,1.0,0.0,1.0,1.0,356.9226469844579,1.0,1.0,phase_1,,,,,,,,,,,,,orange,diamond
78.0,6.0,2.0,1.0,1.0,1.0,393.3008059975691,1.0,1.0,phase_1,,,,,,,,,,,,,green,hexagon
27.0,5.0,1.0,1.0,3.0,3.0,440.1960739633068,1.0,1.0,phase_1,,,,,,,,,,,,,yellow,flipped triangle
389.0,4.0,4.0,0.0,4.0,4.0,348.135752021335,1.0,1.0,phase_1,,,,,,,,,,,,,gray,circle
388.0,4.0,4.0,0.0,1.0,1.0,506.33866898715496,1.0,1.0,phase_1,,,,,,,,,,,,,gray,circle
0.0,2.0,0.0,0.0,3.0,3.0,332.5469499686733,1.0,1.0,phase_1,,,,,,,,,,,,,blue,cross
0.0,4.0,0.0,0.0,1.0,1.0,392.5343069713563,1.0,1.0,phase_1,,,,,,,,,,,,,gray,circle
0.0,3.0,0.0,0.0,4.0,4.0,325.3752259770408,1.0,1.0,phase_1,,,,,,,,,,,,,white,square
390.0,4.0,4.0,0.0,4.0,4.0,348.8107360317372,1.0,1.0,phase_1,,,,,,,,,,,,,gray,circle
81.0,2.0,2.0,0.0,2.0,2.0,334.8207460367121,1.0,1.0,phase_1,,,,,,,,,,,,,blue,cross
60.0,1.0,1.0,0.0,2.0,2.0,354.6817739843391,1.0,1.0,phase_1,,,,,,,,,,,,,orange,diamond
409.0,8.0,4.0,1.0,3.0,3.0,351.6258560121059,1.0,1.0,phase_1,,,,,,,,,,,,,cyan,triangle
113.0,2.0,2.0,0.0,3.0,3.0,352.4492870201356,1.0,1.0,phase_1,,,,,,,,,,,,,blue,cross
421.0,8.0,4.0,1.0,3.0,3.0,379.6827259939164,1.0,1.0,phase_1,,,,,,,,,,,,,cyan,triangle
0.0,4.0,0.0,0.0,2.0,2.0,416.9721999787725,1.0,1.0,phase_1,,,,,,,,,,,,,gray,circle
205.0,7.0,3.0,1.0,2.0,2.0,362.2260419651866,1.0,1.0,phase_1,,,,,,,,,,,,,magenta,I
403.0,4.0,4.0,0.0,2.0,2.0,490.5974030261859,1.0,1.0,phase_1,,,,,,,,,,,,,gray,circle
63.0,1.0,1.0,0.0,4.0,4.0,411.9830999989062,1.0,1.0,phase_1,,,,,,,,,,,,,orange,diamond
404.0,4.0,4.0,0.0,1.0,1.0,377.1525679621845,1.0,1.0,phase_1,,,,,,,,,,,,,gray,circle
0.0,1.0,0.0,0.0,3.0,3.0,349.020523019135,1.0,1.0,phase_1,,,,,,,,,,,,,orange,diamond
0.0,4.0,0.0,0.0,1.0,1.0,425.679420994129,1.0,1.0,phase_1,,,,,,,,,,,,,gray,circle
60.0,5.0,1.0,1.0,3.0,3.0,406.8823550478555,1.0,1.0,phase_1,,,,,,,,,,,,,yellow,flipped triangle
0.0,2.0,0.0,0.0,2.0,2.0,410.0900049670599,1.0,2.0,phase_1,,,,,,,,,,,,,blue,cross
77.0,2.0,2.0,0.0,1.0,1.0,485.2344900136813,1.0,1.0,phase_1,,,,,,,,,,,,,blue,cross
34.0,1.0,1.0,0.0,2.0,2.0,386.2520100083202,1.0,1.0,phase_1,,,,,,,,,,,,,orange,diamond
0.0,6.0,0.0,1.0,2.0,2.0,358.9961950201541,1.0,1.0,phase_1,,,,,,,,,,,,,green,hexagon
0.0,4.0,0.0,0.0,4.0,4.0,481.9920990266837,1.0,2.0,phase_1,,,,,,,,,,,,,gray,circle
205.0,7.0,3.0,1.0,3.0,3.0,423.6578189884312,1.0,1.0,phase_1,,,,,,,,,,,,,magenta,I
0.0,1.0,0.0,0.0,2.0,2.0,481.0935159912333,1.0,1.0,phase_1,,,,,,,,,,,,,orange,diamond
73.0,1.0,1.0,0.0,1.0,1.0,463.0403699702583,1.0,1.0,phase_1,,,,,,,,,,,,,orange,diamond
0.0,7.0,0.0,1.0,4.0,4.0,444.4780300254933,1.0,1.0,phase_1,,,,,,,,,,,,,magenta,I
56.0,5.0,1.0,1.0,3.0,3.0,311.7306259809993,1.0,1.0,phase_1,,,,,,,,,,,,,yellow,flipped triangle
0.0,5.0,0.0,1.0,3.0,3.0,420.4178790096193,1.0,1.0,phase_1,,,,,,,,,,,,,yellow,flipped triangle
49.0,5.0,1.0,1.0,1.0,1.0,440.5120349838398,1.0,1.0,phase_1,,,,,,,,,,,,,yellow,flipped triangle
57.0,1.0,1.0,0.0,3.0,3.0,447.3044649930671,1.0,1.0,phase_1,,,,,,,,,,,,,orange,diamond
49.0,1.0,1.0,0.0,4.0,4.0,364.6406179759651,1.0,1.0,phase_1,,,,,,,,,,,,,orange,diamond
104.0,6.0,2.0,1.0,1.0,1.0,558.0956329940818,1.0,1.0,phase_1,,,,,,,,,,,,,green,hexagon
51.0,1.0,1.0,0.0,4.0,4.0,395.2840259880759,1.0,1.0,phase_1,,,,,,,,,,,,,orange,diamond
56.0,1.0,1.0,0.0,4.0,4.0,448.5374509822577,1.0,1.0,phase_1,,,,,,,,,,,,,orange,diamond
193.0,7.0,3.0,1.0,3.0,3.0,412.449924973771,1.0,1.0,phase_1,,,,,,,,,,,,,magenta,I
389.0,4.0,4.0,0.0,4.0,4.0,347.4133809795603,1.0,1.0,phase_1,,,,,,,,,,,,,gray,circle
65.0,5.0,1.0,1.0,4.0,4.0,295.4239930259064,1.0,1.0,phase_1,,,,,,,,,,,,,yellow,flipped triangle
100.0,6.0,2.0,1.0,4.0,4.0,363.240260980092,1.0,1.0,phase_1,,,,,,,,,,,,,green,hexagon
420.0,8.0,4.0,1.0,4.0,4.0,352.0025100442581,1.0,1.0,phase_1,,,,,,,,,,,,,cyan,triangle
0.0,5.0,0.0,1.0,4.0,4.0,343.0138030089438,1.0,1.0,phase_1,,,,,,,,,,,,,yellow,flipped triangle
204.0,7.0,3.0,1.0,2.0,2.0,547.6412780117244,1.0,1.0,phase_1,,,,,,,,,,,,,magenta,I
86.0,6.0,2.0,1.0,1.0,1.0,424.1361509775743,1.0,1.0,phase_1,,,,,,,,,,,,,green,hexagon
0.0,8.0,0.0,1.0,1.0,1.0,369.989175000228,1.0,1.0,phase_1,,,,,,,,,,,,,cyan,triangle
103.0,6.0,2.0,1.0,1.0,1.0,294.7519599692896,1.0,1.0,phase_1,,,,,,,,,,,,,green,hexagon
110.0,2.0,2.0,0.0,4.0,4.0,371.928601001855,1.0,1.0,phase_1,,,,,,,,,,,,,blue,cross
65.0,1.0,1.0,0.0,3.0,3.0,314.8468440049328,1.0,1.0,phase_1,,,,,,,,,,,,,orange,diamond
37.0,5.0,1.0,1.0,2.0,2.0,510.6997299590148,1.0,1.0,phase_1,,,,,,,,,,,,,yellow,flipped triangle
0.0,5.0,0.0,1.0,3.0,3.0,404.8926960094832,1.0,1.0,phase_1,,,,,,,,,,,,,yellow,flipped triangle
94.0,2.0,2.0,0.0,2.0,2.0,366.5157299838029,1.0,1.0,phase_1,,,,,,,,,,,,,blue,cross
0.0,2.0,0.0,0.0,1.0,1.0,433.2700030063279,1.0,2.0,phase_1,,,,,,,,,,,,,blue,cross
0.0,6.0,0.0,1.0,2.0,2.0,472.2989059519022,1.0,1.0,phase_1,,,,,,,,,,,,,green,hexagon
198.0,7.0,3.0,1.0,4.0,4.0,844.7628020076081,1.0,1.0,phase_1,,,,,,,,,,,,,magenta,I
73.0,5.0,1.0,1.0,2.0,2.0,552.5925810215995,1.0,1.0,phase_1,,,,,,,,,,,,,yellow,flipped triangle
190.0,3.0,3.0,0.0,2.0,2.0,420.0685690157115,1.0,1.0,phase_1,,,,,,,,,,,,,white,square
418.0,8.0,4.0,1.0,4.0,4.0,616.8675609515049,1.0,1.0,phase_1,,,,,,,,,,,,,cyan,triangle
380.0,8.0,4.0,1.0,1.0,1.0,413.5499999974854,1.0,1.0,phase_1,,,,,,,,,,,,,cyan,triangle
377.0,8.0,4.0,1.0,1.0,1.0,506.9219889701344,1.0,1.0,phase_1,,,,,,,,,,,,,cyan,triangle
0.0,5.0,0.0,1.0,3.0,3.0,750.7611300097778,1.0,1.0,phase_1,,,,,,,,,,,,,yellow,flipped triangle
175.0,3.0,3.0,0.0,2.0,2.0,525.1798249664716,1.0,1.0,phase_1,,,,,,,,,,,,,white,square
214.0,7.0,3.0,1.0,4.0,4.0,672.1751720178872,1.0,1.0,phase_1,,,,,,,,,,,,,magenta,I
86.0,6.0,2.0,1.0,4.0,4.0,382.6955700060352,1.0,1.0,phase_1,,,,,,,,,,,,,green,hexagon
423.0,8.0,4.0,1.0,1.0,1.0,393.4368570335209,1.0,1.0,phase_1,,,,,,,,,,,,,cyan,triangle
0.0,7.0,0.0,1.0,4.0,4.0,362.756751012057,1.0,2.0,phase_1,,,,,,,,,,,,,magenta,I
61.0,5.0,1.0,1.0,2.0,2.0,414.6305700414814,1.0,1.0,phase_1,,,,,,,,,,,,,yellow,flipped triangle
78.0,2.0,2.0,0.0,2.0,2.0,441.802590037696,1.0,1.0,phase_1,,,,,,,,,,,,,blue,cross
74.0,5.0,1.0,1.0,4.0,4.0,450.7833759998902,1.0,1.0,phase_1,,,,,,,,,,,,,yellow,flipped triangle
425.0,8.0,4.0,1.0,3.0,3.0,348.1708019971847,1.0,1.0,phase_1,,,,,,,,,,,,,cyan,triangle
0.0,4.0,0.0,0.0,3.0,3.0,658.2737900316715,1.0,1.0,phase_1,,,,,,,,,,,,,gray,circle
74.0,1.0,1.0,0.0,1.0,1.0,417.0898590236902,1.0,1.0,phase_1,,,,,,,,,,,,,orange,diamond
27.0,1.0,1.0,0.0,1.0,1.0,370.7710769958794,2.0,1.0,phase_1,,,,,,,,,,,,,orange,diamond
124.0,6.0,2.0,1.0,4.0,4.0,326.4430930139497,2.0,1.0,phase_1,,,,,,,,,,,,,green,hexagon
377.0,8.0,4.0,1.0,4.0,4.0,322.4314029794186,2.0,1.0,phase_1,,,,,,,,,,,,,cyan,triangle
41.0,1.0,1.0,0.0,3.0,3.0,343.0277809966355,2.0,1.0,phase_1,,,,,,,,,,,,,orange,diamond
88.0,2.0,2.0,0.0,1.0,1.0,364.666101988405,2.0,1.0,phase_1,,,,,,,,,,,,,blue,cross
225.0,3.0,3.0,0.0,3.0,3.0,371.7585499980487,2.0,1.0,phase_1,,,,,,,,,,,,,white,square
0.0,1.0,0.0,0.0,1.0,1.0,405.041815014556,2.0,1.0,phase_1,,,,,,,,,,,,,orange,diamond
56.0,5.0,1.0,1.0,2.0,2.0,444.892824976705,2.0,1.0,phase_1,,,,,,,,,,,,,yellow,flipped triangle
84.0,2.0,2.0,0.0,4.0,4.0,342.8392779896967,2.0,1.0,phase_1,,,,,,,,,,,,,blue,cross
424.0,4.0,4.0,0.0,2.0,2.0,371.4315459947102,2.0,1.0,phase_1,,,,,,,,,,,,,gray,circle
107.0,6.0,2.0,1.0,3.0,3.0,383.7676990078762,2.0,1.0,phase_1,,,,,,,,,,,,,green,hexagon
114.0,6.0,2.0,1.0,3.0,3.0,412.2747500077821,2.0,1.0,phase_1,,,,,,,,,,,,,green,hexagon
212.0,7.0,3.0,1.0,3.0,3.0,346.8129980028607,2.0,1.0,phase_1,,,,,,,,,,,,,magenta,I
93.0,6.0,2.0,1.0,1.0,1.0,399.3988399743102,2.0,1.0,phase_1,,,,,,,,,,,,,green,hexagon
384.0,8.0,4.0,1.0,4.0,4.0,418.25570701621467,2.0,1.0,phase_1,,,,,,,,,,,,,cyan,triangle
389.0,8.0,4.0,1.0,4.0,4.0,367.6352080074139,2.0,1.0,phase_1,,,,,,,,,,,,,cyan,triangle
403.0,8.0,4.0,1.0,4.0,4.0,365.0124589912593,2.0,1.0,phase_1,,,,,,,,,,,,,cyan,triangle
37.0,1.0,1.0,0.0,4.0,4.0,233.505355019588,2.0,1.0,phase_1,,,,,,,,,,,,,orange,diamond
105.0,2.0,2.0,0.0,1.0,1.0,464.8524730000645,2.0,1.0,phase_1,,,,,,,,,,,,,blue,cross
0.0,8.0,0.0,1.0,4.0,4.0,327.3540409863926,2.0,2.0,phase_1,,,,,,,,,,,,,cyan,triangle
0.0,1.0,0.0,0.0,4.0,4.0,363.0137520376593,2.0,1.0,phase_1,,,,,,,,,,,,,orange,diamond
52.0,1.0,1.0,0.0,4.0,4.0,306.3299730420112,2.0,1.0,phase_1,,,,,,,,,,,,,orange,diamond
84.0,6.0,2.0,1.0,1.0,1.0,566.6859130142257,2.0,1.0,phase_1,,,,,,,,,,,,,green,hexagon
50.0,1.0,1.0,0.0,3.0,3.0,642.297800979577,2.0,1.0,phase_1,,,,,,,,,,,,,orange,diamond
183.0,3.0,3.0,0.0,3.0,3.0,357.9656180227175,2.0,1.0,phase_1,,,,,,,,,,,,,white,square
40.0,5.0,1.0,1.0,4.0,4.0,306.6101970034651,2.0,1.0,phase_1,,,,,,,,,,,,,yellow,flipped triangle
88.0,6.0,2.0,1.0,1.0,1.0,343.4293430182151,2.0,1.0,phase_1,,,,,,,,,,,,,green,hexagon
52.0,1.0,1.0,0.0,3.0,3.0,406.0063629876822,2.0,1.0,phase_1,,,,,,,,,,,,,orange,diamond
0.0,5.0,0.0,1.0,1.0,1.0,408.5789010277949,2.0,1.0,phase_1,,,,,,,,,,,,,yellow,flipped triangle
385.0,4.0,4.0,0.0,2.0,2.0,429.7947599552572,2.0,1.0,phase_1,,,,,,,,,,,,,gray,circle
199.0,3.0,3.0,0.0,1.0,1.0,578.1246700207703,2.0,1.0,phase_1,,,,,,,,,,,,,white,square
215.0,7.0,3.0,1.0,1.0,1.0,505.54736802587286,2.0,1.0,phase_1,,,,,,,,,,,,,magenta,I
407.0,4.0,4.0,0.0,1.0,1.0,475.3138329833746,2.0,1.0,phase_1,,,,,,,,,,,,,gray,circle
417.0,4.0,4.0,0.0,1.0,1.0,360.220750037115,2.0,1.0,phase_1,,,,,,,,,,,,,gray,circle
204.0,7.0,3.0,1.0,2.0,2.0,434.1989980312064,2.0,2.0,phase_1,,,,,,,,,,,,,magenta,I
123.0,2.0,2.0,0.0,3.0,3.0,594.297359988559,2.0,1.0,phase_1,,,,,,,,,,,,,blue,cross
201.0,7.0,3.0,1.0,2.0,2.0,594.6928389603272,2.0,1.0,phase_1,,,,,,,,,,,,,magenta,I
94.0,6.0,2.0,1.0,2.0,2.0,535.59501998825,2.0,1.0,phase_1,,,,,,,,,,,,,green,hexagon
100.0,2.0,2.0,0.0,3.0,3.0,336.220883007627,2.0,1.0,phase_1,,,,,,,,,,,,,blue,cross
78.0,6.0,2.0,1.0,4.0,4.0,344.668929988984,2.0,2.0,phase_1,,,,,,,,,,,,,green,hexagon
185.0,7.0,3.0,1.0,3.0,3.0,354.4876550440676,2.0,1.0,phase_1,,,,,,,,,,,,,magenta,I
209.0,7.0,3.0,1.0,3.0,3.0,345.5139420111663,2.0,1.0,phase_1,,,,,,,,,,,,,magenta,I
417.0,4.0,4.0,0.0,3.0,3.0,558.2824429729953,2.0,1.0,phase_1,,,,,,,,,,,,,gray,circle
51.0,5.0,1.0,1.0,1.0,1.0,744.3669789936393,2.0,1.0,phase_1,,,,,,,,,,,,,yellow,flipped triangle
403.0,8.0,4.0,1.0,3.0,3.0,349.6773099759593,2.0,1.0,phase_1,,,,,,,,,,,,,cyan,triangle
71.0,1.0,1.0,0.0,3.0,3.0,382.9010369954631,2.0,1.0,phase_1,,,,,,,,,,,,,orange,diamond
404.0,8.0,4.0,1.0,1.0,1.0,409.0239480137825,2.0,1.0,phase_1,,,,,,,,,,,,,cyan,triangle
49.0,5.0,1.0,1.0,4.0,4.0,363.7414140393957,2.0,1.0,phase_1,,,,,,,,,,,,,yellow,flipped triangle
190.0,7.0,3.0,1.0,2.0,2.0,331.0002020443789,2.0,1.0,phase_1,,,,,,,,,,,,,magenta,I
37.0,1.0,1.0,0.0,3.0,3.0,364.377969992347,2.0,1.0,phase_1,,,,,,,,,,,,,orange,diamond
379.0,4.0,4.0,0.0,3.0,3.0,484.3900820123963,2.0,1.0,phase_1,,,,,,,,,,,,,gray,circle
409.0,4.0,4.0,0.0,2.0,2.0,510.8020339976065,2.0,1.0,phase_1,,,,,,,,,,,,,gray,circle
382.0,8.0,4.0,1.0,2.0,2.0,398.2474739896133,2.0,1.0,phase_1,,,,,,,,,,,,,cyan,triangle
387.0,4.0,4.0,0.0,2.0,2.0,335.8821669826284,2.0,1.0,phase_1,,,,,,,,,,,,,gray,circle
0.0,7.0,0.0,1.0,2.0,2.0,333.5715900175273,2.0,1.0,phase_1,,,,,,,,,,,,,magenta,I
38.0,5.0,1.0,1.0,3.0,3.0,531.5954469842836,2.0,1.0,phase_1,,,,,,,,,,,,,yellow,flipped triangle
195.0,3.0,3.0,0.0,4.0,4.0,435.6675670132972,2.0,2.0,phase_1,,,,,,,,,,,,,white,square
376.0,8.0,4.0,1.0,2.0,2.0,310.420591966249,2.0,1.0,phase_1,,,,,,,,,,,,,cyan,triangle
212.0,7.0,3.0,1.0,1.0,1.0,389.1089769895188,2.0,1.0,phase_1,,,,,,,,,,,,,magenta,I
184.0,7.0,3.0,1.0,2.0,2.0,326.2993880198337,2.0,2.0,phase_1,,,,,,,,,,,,,magenta,I
86.0,2.0,2.0,0.0,2.0,2.0,299.2004689876921,2.0,1.0,phase_1,,,,,,,,,,,,,blue,cross
0.0,7.0,0.0,1.0,3.0,3.0,360.1683219894767,2.0,1.0,phase_1,,,,,,,,,,,,,magenta,I
74.0,5.0,1.0,1.0,4.0,4.0,452.826295979321,2.0,1.0,phase_1,,,,,,,,,,,,,yellow,flipped triangle
84.0,2.0,2.0,0.0,2.0,2.0,448.4225589549169,2.0,1.0,phase_1,,,,,,,,,,,,,blue,cross
206.0,3.0,3.0,0.0,1.0,1.0,523.9524240023457,2.0,1.0,phase_1,,,,,,,,,,,,,white,square
214.0,3.0,3.0,0.0,2.0,2.0,449.7876819805242,2.0,1.0,phase_1,,,,,,,,,,,,,white,square
177.0,7.0,3.0,1.0,1.0,1.0,323.1528470059857,2.0,2.0,phase_1,,,,,,,,,,,,,magenta,I
0.0,8.0,0.0,1.0,4.0,4.0,512.1158570400439,2.0,1.0,phase_1,,,,,,,,,,,,,cyan,triangle
0.0,3.0,0.0,0.0,3.0,3.0,340.1493289857171,2.0,1.0,phase_1,,,,,,,,,,,,,white,square
105.0,6.0,2.0,1.0,4.0,4.0,344.2081779940054,2.0,1.0,phase_1,,,,,,,,,,,,,green,hexagon
91.0,6.0,2.0,1.0,1.0,1.0,319.3733689840883,2.0,1.0,phase_1,,,,,,,,,,,,,green,hexagon
187.0,3.0,3.0,0.0,4.0,4.0,365.7879079692065,2.0,1.0,phase_1,,,,,,,,,,,,,white,square
117.0,2.0,2.0,0.0,2.0,2.0,437.8967339871451,2.0,1.0,phase_1,,,,,,,,,,,,,blue,cross
0.0,3.0,0.0,0.0,3.0,3.0,347.2763019963167,2.0,1.0,phase_1,,,,,,,,,,,,,white,square
0.0,7.0,0.0,1.0,4.0,4.0,472.6126239984296,2.0,1.0,phase_1,,,,,,,,,,,,,magenta,I
194.0,7.0,3.0,1.0,1.0,1.0,500.9455169783905,2.0,1.0,phase_1,,,,,,,,,,,,,magenta,I
0.0,3.0,0.0,0.0,1.0,1.0,306.7009639926255,2.0,1.0,phase_1,,,,,,,,,,,,,white,square
423.0,4.0,4.0,0.0,1.0,1.0,478.781356010586,2.0,1.0,phase_1,,,,,,,,,,,,,gray,circle
0.0,5.0,0.0,1.0,4.0,4.0,428.1464699888602,2.0,1.0,phase_1,,,,,,,,,,,,,yellow,flipped triangle
49.0,1.0,1.0,0.0,1.0,1.0,529.9210519879125,2.0,1.0,phase_1,,,,,,,,,,,,,orange,diamond
210.0,3.0,3.0,0.0,1.0,1.0,380.5023599998094,2.0,1.0,phase_1,,,,,,,,,,,,,white,square
0.0,6.0,0.0,1.0,3.0,3.0,490.1710299891419,2.0,1.0,phase_1,,,,,,,,,,,,,green,hexagon
388.0,8.0,4.0,1.0,2.0,2.0,360.3478330187499,2.0,1.0,phase_1,,,,,,,,,,,,,cyan,triangle
399.0,4.0,4.0,0.0,1.0,1.0,346.7822009697556,2.0,1.0,phase_1,,,,,,,,,,,,,gray,circle
53.0,1.0,1.0,0.0,1.0,1.0,375.4566489951685,2.0,1.0,phase_1,,,,,,,,,,,,,orange,diamond
389.0,8.0,4.0,1.0,1.0,1.0,391.0820150049403,2.0,1.0,phase_1,,,,,,,,,,,,,cyan,triangle
63.0,5.0,1.0,1.0,3.0,3.0,488.6605700012296,2.0,1.0,phase_1,,,,,,,,,,,,,yellow,flipped triangle
219.0,7.0,3.0,1.0,3.0,3.0,311.8298039771616,2.0,1.0,phase_1,,,,,,,,,,,,,magenta,I
113.0,6.0,2.0,1.0,4.0,4.0,395.3649409813806,2.0,1.0,phase_1,,,,,,,,,,,,,green,hexagon
215.0,3.0,3.0,0.0,1.0,1.0,350.5583080113865,2.0,1.0,phase_1,,,,,,,,,,,,,white,square
114.0,2.0,2.0,0.0,3.0,3.0,405.3649969864636,2.0,1.0,phase_1,,,,,,,,,,,,,blue,cross
38.0,1.0,1.0,0.0,2.0,2.0,455.9646159759722,2.0,1.0,phase_1,,,,,,,,,,,,,orange,diamond
60.0,5.0,1.0,1.0,3.0,3.0,379.9393289955333,2.0,1.0,phase_1,,,,,,,,,,,,,yellow,flipped triangle
59.0,1.0,1.0,0.0,2.0,2.0,388.0377149907872,2.0,1.0,phase_1,,,,,,,,,,,,,orange,diamond
83.0,2.0,2.0,0.0,4.0,4.0,473.1514879968017,2.0,1.0,phase_1,,,,,,,,,,,,,blue,cross
28.0,1.0,1.0,0.0,4.0,4.0,580.2461960120127,2.0,1.0,phase_1,,,,,,,,,,,,,orange,diamond
101.0,2.0,2.0,0.0,3.0,3.0,391.0234640352428,2.0,1.0,phase_1,,,,,,,,,,,,,blue,cross
0.0,4.0,0.0,0.0,4.0,4.0,806.0934420209378,2.0,1.0,phase_1,,,,,,,,,,,,,gray,circle
77.0,6.0,2.0,1.0,3.0,3.0,441.8354579829611,2.0,1.0,phase_1,,,,,,,,,,,,,green,hexagon
0.0,1.0,0.0,0.0,4.0,4.0,487.089439004194,2.0,1.0,phase_1,,,,,,,,,,,,,orange,diamond
183.0,7.0,3.0,1.0,2.0,2.0,305.16362702474,3.0,2.0,phase_1,,,,,,,,,,,,,magenta,I
33.0,1.0,1.0,0.0,1.0,1.0,379.9041520105675,3.0,1.0,phase_1,,,,,,,,,,,,,orange,diamond
66.0,5.0,1.0,1.0,1.0,1.0,420.0582199846394,3.0,1.0,phase_1,,,,,,,,,,,,,yellow,flipped triangle
110.0,6.0,2.0,1.0,3.0,3.0,445.1277850312181,3.0,1.0,phase_1,,,,,,,,,,,,,green,hexagon
0.0,1.0,0.0,0.0,3.0,3.0,413.8880250393413,3.0,1.0,phase_1,,,,,,,,,,,,,orange,diamond
407.0,4.0,4.0,0.0,2.0,2.0,355.7486700010486,3.0,2.0,phase_1,,,,,,,,,,,,,gray,circle
125.0,6.0,2.0,1.0,2.0,2.0,416.1662759725004,3.0,1.0,phase_1,,,,,,,,,,,,,green,hexagon
196.0,3.0,3.0,0.0,4.0,4.0,477.2952749626711,3.0,1.0,phase_1,,,,,,,,,,,,,white,square
382.0,4.0,4.0,0.0,4.0,4.0,402.6609599823132,3.0,1.0,phase_1,,,,,,,,,,,,,gray,circle
196.0,7.0,3.0,1.0,4.0,4.0,351.6827989951707,3.0,1.0,phase_1,,,,,,,,,,,,,magenta,I
0.0,2.0,0.0,0.0,2.0,2.0,437.3492120066657,3.0,1.0,phase_1,,,,,,,,,,,,,blue,cross
95.0,2.0,2.0,0.0,1.0,1.0,393.0045909946784,3.0,1.0,phase_1,,,,,,,,,,,,,blue,cross
36.0,1.0,1.0,0.0,2.0,2.0,468.6009830329567,3.0,1.0,phase_1,,,,,,,,,,,,,orange,diamond
177.0,3.0,3.0,0.0,4.0,4.0,372.4323619971983,3.0,1.0,phase_1,,,,,,,,,,,,,white,square
122.0,2.0,2.0,0.0,3.0,3.0,325.3476799582131,3.0,1.0,phase_1,,,,,,,,,,,,,blue,cross
73.0,1.0,1.0,0.0,4.0,4.0,444.73639299394557,3.0,1.0,phase_1,,,,,,,,,,,,,orange,diamond
384.0,8.0,4.0,1.0,4.0,4.0,345.4477110062726,3.0,1.0,phase_1,,,,,,,,,,,,,cyan,triangle
93.0,2.0,2.0,0.0,3.0,3.0,315.7553290366195,3.0,1.0,phase_1,,,,,,,,,,,,,blue,cross
201.0,3.0,3.0,0.0,1.0,1.0,432.2966629988514,3.0,1.0,phase_1,,,,,,,,,,,,,white,square
424.0,8.0,4.0,1.0,4.0,4.0,533.2041270448826,3.0,1.0,phase_1,,,,,,,,,,,,,cyan,triangle
219.0,3.0,3.0,0.0,2.0,2.0,924.4957379996775,3.0,1.0,phase_1,,,,,,,,,,,,,white,square
31.0,1.0,1.0,0.0,4.0,4.0,342.7409949945286,3.0,1.0,phase_1,,,,,,,,,,,,,orange,diamond
223.0,3.0,3.0,0.0,2.0,2.0,420.6078099668957,3.0,1.0,phase_1,,,,,,,,,,,,,white,square
113.0,6.0,2.0,1.0,2.0,2.0,351.2837589951232,3.0,1.0,phase_1,,,,,,,,,,,,,green,hexagon
0.0,5.0,0.0,1.0,1.0,1.0,564.2998010152951,3.0,1.0,phase_1,,,,,,,,,,,,,yellow,flipped triangle
34.0,5.0,1.0,1.0,1.0,1.0,368.5889720218256,3.0,1.0,phase_1,,,,,,,,,,,,,yellow,flipped triangle
119.0,2.0,2.0,0.0,4.0,4.0,343.5817899880931,3.0,1.0,phase_1,,,,,,,,,,,,,blue,cross
107.0,2.0,2.0,0.0,1.0,1.0,477.9550519888289,3.0,1.0,phase_1,,,,,,,,,,,,,blue,cross
403.0,4.0,4.0,0.0,4.0,4.0,415.7105929916724,3.0,2.0,phase_1,,,,,,,,,,,,,gray,circle
122.0,6.0,2.0,1.0,3.0,3.0,363.2660210132599,3.0,1.0,phase_1,,,,,,,,,,,,,green,hexagon
0.0,5.0,0.0,1.0,1.0,1.0,369.5252300240099,3.0,2.0,phase_1,,,,,,,,,,,,,yellow,flipped triangle
199.0,7.0,3.0,1.0,2.0,2.0,518.293974979315,3.0,1.0,phase_1,,,,,,,,,,,,,magenta,I
119.0,6.0,2.0,1.0,2.0,2.0,499.1423570318147,3.0,1.0,phase_1,,,,,,,,,,,,,green,hexagon
77.0,2.0,2.0,0.0,1.0,1.0,866.2361720344052,3.0,1.0,phase_1,,,,,,,,,,,,,blue,cross
387.0,8.0,4.0,1.0,3.0,3.0,412.4368350021541,3.0,1.0,phase_1,,,,,,,,,,,,,cyan,triangle
88.0,6.0,2.0,1.0,4.0,4.0,309.8159250221215,3.0,2.0,phase_1,,,,,,,,,,,,,green,hexagon
187.0,7.0,3.0,1.0,3.0,3.0,333.7039410253055,3.0,1.0,phase_1,,,,,,,,,,,,,magenta,I
86.0,2.0,2.0,0.0,2.0,2.0,403.7320489878766,3.0,2.0,phase_1,,,,,,,,,,,,,blue,cross
403.0,4.0,4.0,0.0,3.0,3.0,433.5903659812175,3.0,1.0,phase_1,,,,,,,,,,,,,gray,circle
206.0,7.0,3.0,1.0,4.0,4.0,373.6406110110692,3.0,1.0,phase_1,,,,,,,,,,,,,magenta,I
107.0,2.0,2.0,0.0,4.0,4.0,417.8537119878456,3.0,1.0,phase_1,,,,,,,,,,,,,blue,cross
209.0,3.0,3.0,0.0,2.0,2.0,510.62307303072885,3.0,1.0,phase_1,,,,,,,,,,,,,white,square
0.0,8.0,0.0,1.0,2.0,2.0,402.9851499944925,3.0,2.0,phase_1,,,,,,,,,,,,,cyan,triangle
198.0,7.0,3.0,1.0,3.0,3.0,560.3253080043942,3.0,1.0,phase_1,,,,,,,,,,,,,magenta,I
398.0,4.0,4.0,0.0,4.0,4.0,442.3701289924793,3.0,1.0,phase_1,,,,,,,,,,,,,gray,circle
0.0,6.0,0.0,1.0,3.0,3.0,400.3606740152463,3.0,1.0,phase_1,,,,,,,,,,,,,green,hexagon
0.0,4.0,0.0,0.0,4.0,4.0,388.7529079802334,3.0,1.0,phase_1,,,,,,,,,,,,,gray,circle
205.0,3.0,3.0,0.0,3.0,3.0,287.5745230121538,3.0,1.0,phase_1,,,,,,,,,,,,,white,square
83.0,6.0,2.0,1.0,3.0,3.0,319.5010269992053,3.0,1.0,phase_1,,,,,,,,,,,,,green,hexagon
184.0,3.0,3.0,0.0,3.0,3.0,355.4350849590264,3.0,1.0,phase_1,,,,,,,,,,,,,white,square
28.0,5.0,1.0,1.0,2.0,2.0,344.1489189863205,3.0,1.0,phase_1,,,,,,,,,,,,,yellow,flipped triangle
71.0,1.0,1.0,0.0,1.0,1.0,532.6659440179355,3.0,1.0,phase_1,,,,,,,,,,,,,orange,diamond
394.0,4.0,4.0,0.0,1.0,1.0,377.6861029909923,3.0,1.0,phase_1,,,,,,,,,,,,,gray,circle
65.0,1.0,1.0,0.0,2.0,2.0,333.1387039506808,3.0,1.0,phase_1,,,,,,,,,,,,,orange,diamond
422.0,4.0,4.0,0.0,1.0,1.0,432.2579090367071,3.0,1.0,phase_1,,,,,,,,,,,,,gray,circle
28.0,5.0,1.0,1.0,1.0,1.0,373.1367490254342,3.0,1.0,phase_1,,,,,,,,,,,,,yellow,flipped triangle
88.0,2.0,2.0,0.0,1.0,1.0,357.0152399479411,3.0,1.0,phase_1,,,,,,,,,,,,,blue,cross
0.0,8.0,0.0,1.0,3.0,3.0,457.5043070362881,3.0,1.0,phase_1,,,,,,,,,,,,,cyan,triangle
0.0,3.0,0.0,0.0,4.0,4.0,357.3852980043739,3.0,1.0,phase_1,,,,,,,,,,,,,white,square
215.0,7.0,3.0,1.0,1.0,1.0,384.6397590241395,3.0,1.0,phase_1,,,,,,,,,,,,,magenta,I
211.0,3.0,3.0,0.0,2.0,2.0,500.4279339918867,3.0,1.0,phase_1,,,,,,,,,,,,,white,square
406.0,8.0,4.0,1.0,2.0,2.0,392.9784769425168,3.0,1.0,phase_1,,,,,,,,,,,,,cyan,triangle
182.0,7.0,3.0,1.0,1.0,1.0,998.5232790349984,3.0,1.0,phase_1,,,,,,,,,,,,,magenta,I
78.0,2.0,2.0,0.0,1.0,1.0,356.4092119922861,3.0,1.0,phase_1,,,,,,,,,,,,,blue,cross
122.0,2.0,2.0,0.0,3.0,3.0,410.8352169860154,3.0,1.0,phase_1,,,,,,,,,,,,,blue,cross
380.0,4.0,4.0,0.0,3.0,3.0,317.9193179821595,3.0,1.0,phase_1,,,,,,,,,,,,,gray,circle
52.0,5.0,1.0,1.0,1.0,1.0,720.6140249618329,3.0,1.0,phase_1,,,,,,,,,,,,,yellow,flipped triangle
44.0,5.0,1.0,1.0,2.0,2.0,445.8143689553253,3.0,1.0,phase_1,,,,,,,,,,,,,yellow,flipped triangle
0.0,6.0,0.0,1.0,3.0,3.0,404.1666290140711,3.0,1.0,phase_1,,,,,,,,,,,,,green,hexagon
178.0,3.0,3.0,0.0,4.0,4.0,412.9625280038453,3.0,2.0,phase_1,,,,,,,,,,,,,white,square
0.0,7.0,0.0,1.0,2.0,2.0,690.7421220093966,3.0,1.0,phase_1,,,,,,,,,,,,,magenta,I
125.0,2.0,2.0,0.0,4.0,4.0,438.1924489862285,3.0,1.0,phase_1,,,,,,,,,,,,,blue,cross
108.0,6.0,2.0,1.0,4.0,4.0,327.4626109632663,3.0,2.0,phase_1,,,,,,,,,,,,,green,hexagon
190.0,7.0,3.0,1.0,1.0,1.0,442.3771669971756,3.0,1.0,phase_1,,,,,,,,,,,,,magenta,I
0.0,2.0,0.0,0.0,2.0,2.0,430.9598020045087,3.0,1.0,phase_1,,,,,,,,,,,,,blue,cross
0.0,4.0,0.0,0.0,4.0,4.0,370.6456230138428,3.0,2.0,phase_1,,,,,,,,,,,,,gray,circle
398.0,4.0,4.0,0.0,4.0,4.0,325.2419159980491,3.0,1.0,phase_1,,,,,,,,,,,,,gray,circle
71.0,5.0,1.0,1.0,3.0,3.0,442.5506650004536,3.0,1.0,phase_1,,,,,,,,,,,,,yellow,flipped triangle
377.0,4.0,4.0,0.0,3.0,3.0,447.0735020004213,3.0,1.0,phase_1,,,,,,,,,,,,,gray,circle
0.0,3.0,0.0,0.0,3.0,3.0,471.3277440168895,3.0,1.0,phase_1,,,,,,,,,,,,,white,square
190.0,3.0,3.0,0.0,2.0,2.0,431.8837269674986,3.0,1.0,phase_1,,,,,,,,,,,,,white,square
205.0,3.0,3.0,0.0,1.0,1.0,448.5382870188914,3.0,1.0,phase_1,,,,,,,,,,,,,white,square
107.0,6.0,2.0,1.0,2.0,2.0,497.2423749859445,3.0,1.0,phase_1,,,,,,,,,,,,,green,hexagon
411.0,8.0,4.0,1.0,1.0,1.0,390.0392389623448,3.0,1.0,phase_1,,,,,,,,,,,,,cyan,triangle
178.0,7.0,3.0,1.0,4.0,4.0,380.9108390123583,3.0,3.0,phase_1,,,,,,,,,,,,,magenta,I
223.0,7.0,3.0,1.0,3.0,3.0,460.3536580107175,3.0,1.0,phase_1,,,,,,,,,,,,,magenta,I
195.0,7.0,3.0,1.0,1.0,1.0,669.5701400167309,3.0,1.0,phase_1,,,,,,,,,,,,,magenta,I
0.0,3.0,0.0,0.0,2.0,2.0,595.1593839563429,3.0,1.0,phase_1,,,,,,,,,,,,,white,square
194.0,7.0,3.0,1.0,1.0,1.0,556.2590180197731,3.0,2.0,phase_1,,,,,,,,,,,,,magenta,I
184.0,7.0,3.0,1.0,2.0,2.0,592.7157829864882,3.0,1.0,phase_1,,,,,,,,,,,,,magenta,I
93.0,2.0,2.0,0.0,1.0,1.0,340.8962590037845,3.0,1.0,phase_1,,,,,,,,,,,,,blue,cross
198.0,3.0,3.0,0.0,3.0,3.0,556.2847219989635,3.0,1.0,phase_1,,,,,,,,,,,,,white,square
404.0,4.0,4.0,0.0,2.0,2.0,750.9857400436886,3.0,1.0,phase_1,,,,,,,,,,,,,gray,circle
224.0,7.0,3.0,1.0,3.0,3.0,612.063727050554,3.0,1.0,phase_1,,,,,,,,,,,,,magenta,I
113.0,2.0,2.0,0.0,2.0,2.0,856.3884510076605,3.0,1.0,phase_1,,,,,,,,,,,,,blue,cross
0.0,7.0,0.0,1.0,4.0,4.0,527.2671909769997,3.0,1.0,phase_1,,,,,,,,,,,,,magenta,I
31.0,5.0,1.0,1.0,2.0,2.0,363.8366620289162,3.0,1.0,phase_1,,,,,,,,,,,,,yellow,flipped triangle
396.0,8.0,4.0,1.0,2.0,2.0,542.6007789792493,3.0,1.0,phase_1,,,,,,,,,,,,,cyan,triangle
410.0,4.0,4.0,0.0,3.0,3.0,555.9047859860584,3.0,1.0,phase_1,,,,,,,,,,,,,gray,circle
37.0,5.0,1.0,1.0,3.0,3.0,387.1315009891987,3.0,1.0,phase_1,,,,,,,,,,,,,yellow,flipped triangle
224.0,3.0,3.0,0.0,3.0,3.0,305.1500479923561,4.0,1.0,phase_1,,,,,,,,,,,,,white,square
65.0,5.0,1.0,1.0,4.0,4.0,341.6278029908426,4.0,1.0,phase_1,,,,,,,,,,,,,yellow,flipped triangle
425.0,4.0,4.0,0.0,2.0,2.0,418.49223600002,4.0,1.0,phase_1,,,,,,,,,,,,,gray,circle
394.0,8.0,4.0,1.0,2.0,2.0,391.9465530198067,4.0,1.0,phase_1,,,,,,,,,,,,,cyan,triangle
84.0,6.0,2.0,1.0,3.0,3.0,277.3076949524693,4.0,1.0,phase_1,,,,,,,,,,,,,green,hexagon
121.0,2.0,2.0,0.0,2.0,2.0,592.2093620174564,4.0,1.0,phase_1,,,,,,,,,,,,,blue,cross
398.0,8.0,4.0,1.0,1.0,1.0,465.78619297361,4.0,1.0,phase_1,,,,,,,,,,,,,cyan,triangle
30.0,5.0,1.0,1.0,3.0,3.0,340.4588820412755,4.0,1.0,phase_1,,,,,,,,,,,,,yellow,flipped triangle
60.0,1.0,1.0,0.0,1.0,1.0,312.1856249636039,4.0,1.0,phase_1,,,,,,,,,,,,,orange,diamond
209.0,7.0,3.0,1.0,4.0,4.0,374.8415439622476,4.0,1.0,phase_1,,,,,,,,,,,,,magenta,I
421.0,4.0,4.0,0.0,2.0,2.0,442.4471890088171,4.0,1.0,phase_1,,,,,,,,,,,,,gray,circle
204.0,3.0,3.0,0.0,2.0,2.0,399.3207470048219,4.0,1.0,phase_1,,,,,,,,,,,,,white,square
123.0,6.0,2.0,1.0,3.0,3.0,284.5686500077136,4.0,1.0,phase_1,,,,,,,,,,,,,green,hexagon
39.0,5.0,1.0,1.0,2.0,2.0,417.0019820448942,4.0,1.0,phase_1,,,,,,,,,,,,,yellow,flipped triangle
33.0,5.0,1.0,1.0,1.0,1.0,390.5018009827472,4.0,1.0,phase_1,,,,,,,,,,,,,yellow,flipped triangle
417.0,8.0,4.0,1.0,3.0,3.0,362.9479180090129,4.0,1.0,phase_1,,,,,,,,,,,,,cyan,triangle
422.0,8.0,4.0,1.0,2.0,2.0,454.4112079893239,4.0,1.0,phase_1,,,,,,,,,,,,,cyan,triangle
0.0,6.0,0.0,1.0,2.0,2.0,697.3364700097591,4.0,1.0,phase_1,,,,,,,,,,,,,green,hexagon
77.0,6.0,2.0,1.0,2.0,2.0,349.3615069892257,4.0,1.0,phase_1,,,,,,,,,,,,,green,hexagon
108.0,2.0,2.0,0.0,1.0,1.0,540.8500090125017,4.0,1.0,phase_1,,,,,,,,,,,,,blue,cross
50.0,5.0,1.0,1.0,4.0,4.0,338.9154740143567,4.0,1.0,phase_1,,,,,,,,,,,,,yellow,flipped triangle
411.0,4.0,4.0,0.0,3.0,3.0,355.9070599731058,4.0,1.0,phase_1,,,,,,,,,,,,,gray,circle
0.0,8.0,0.0,1.0,2.0,2.0,426.0125129949301,4.0,1.0,phase_1,,,,,,,,,,,,,cyan,triangle
420.0,4.0,4.0,0.0,1.0,1.0,427.398417959921,4.0,2.0,phase_1,,,,,,,,,,,,,gray,circle
104.0,2.0,2.0,0.0,4.0,4.0,441.0785540239885,4.0,1.0,phase_1,,,,,,,,,,,,,blue,cross
0.0,7.0,0.0,1.0,1.0,1.0,366.5852249832824,4.0,1.0,phase_1,,,,,,,,,,,,,magenta,I
41.0,5.0,1.0,1.0,4.0,4.0,570.9979059756733,4.0,1.0,phase_1,,,,,,,,,,,,,yellow,flipped triangle
184.0,3.0,3.0,0.0,1.0,1.0,287.7969910041429,4.0,1.0,phase_1,,,,,,,,,,,,,white,square
84.0,6.0,2.0,1.0,3.0,3.0,393.396686995402,4.0,1.0,phase_1,,,,,,,,,,,,,green,hexagon
210.0,7.0,3.0,1.0,4.0,4.0,440.2236400055699,4.0,1.0,phase_1,,,,,,,,,,,,,magenta,I
382.0,8.0,4.0,1.0,4.0,4.0,407.8701479593292,4.0,2.0,phase_1,,,,,,,,,,,,,cyan,triangle
0.0,3.0,0.0,0.0,1.0,1.0,396.4323119726032,4.0,1.0,phase_1,,,,,,,,,,,,,white,square
103.0,2.0,2.0,0.0,4.0,4.0,344.3221320048906,4.0,1.0,phase_1,,,,,,,,,,,,,blue,cross
407.0,8.0,4.0,1.0,3.0,3.0,397.5023939856328,4.0,1.0,phase_1,,,,,,,,,,,,,cyan,triangle
224.0,3.0,3.0,0.0,3.0,3.0,329.6961879823357,4.0,1.0,phase_1,,,,,,,,,,,,,white,square
224.0,7.0,3.0,1.0,1.0,1.0,423.6735010053962,4.0,1.0,phase_1,,,,,,,,,,,,,magenta,I
40.0,1.0,1.0,0.0,3.0,3.0,955.4916599881836,4.0,1.0,phase_1,,,,,,,,,,,,,orange,diamond
403.0,8.0,4.0,1.0,2.0,2.0,456.2278499943204,4.0,1.0,phase_1,,,,,,,,,,,,,cyan,triangle
31.0,5.0,1.0,1.0,1.0,1.0,402.5383669650182,4.0,2.0,phase_1,,,,,,,,,,,,,yellow,flipped triangle
0.0,2.0,0.0,0.0,3.0,3.0,781.9900979520753,4.0,1.0,phase_1,,,,,,,,,,,,,blue,cross
225.0,7.0,3.0,1.0,4.0,4.0,414.3785089836456,4.0,1.0,phase_1,,,,,,,,,,,,,magenta,I
0.0,2.0,0.0,0.0,3.0,3.0,281.6088710096665,4.0,1.0,phase_1,,,,,,,,,,,,,blue,cross
182.0,3.0,3.0,0.0,4.0,4.0,331.7887039738707,4.0,1.0,phase_1,,,,,,,,,,,,,white,square
0.0,4.0,0.0,0.0,3.0,3.0,442.9280870244838,4.0,1.0,phase_1,,,,,,,,,,,,,gray,circle
71.0,5.0,1.0,1.0,2.0,2.0,414.150356024038,4.0,1.0,phase_1,,,,,,,,,,,,,yellow,flipped triangle
66.0,1.0,1.0,0.0,3.0,3.0,523.2650010148063,4.0,1.0,phase_1,,,,,,,,,,,,,orange,diamond
410.0,8.0,4.0,1.0,3.0,3.0,364.4673520466313,4.0,2.0,phase_1,,,,,,,,,,,,,cyan,triangle
185.0,3.0,3.0,0.0,1.0,1.0,442.25560198538,4.0,1.0,phase_1,,,,,,,,,,,,,white,square
0.0,2.0,0.0,0.0,1.0,1.0,461.5537790232338,4.0,1.0,phase_1,,,,,,,,,,,,,blue,cross
399.0,8.0,4.0,1.0,2.0,2.0,401.8429439747706,4.0,1.0,phase_1,,,,,,,,,,,,,cyan,triangle
61.0,1.0,1.0,0.0,2.0,2.0,446.2228289921768,4.0,2.0,phase_1,,,,,,,,,,,,,orange,diamond
198.0,3.0,3.0,0.0,3.0,3.0,392.3558270325884,4.0,1.0,phase_1,,,,,,,,,,,,,white,square
398.0,8.0,4.0,1.0,1.0,1.0,430.6766610243357,4.0,1.0,phase_1,,,,,,,,,,,,,cyan,triangle
0.0,6.0,0.0,1.0,3.0,3.0,388.1365039851516,4.0,1.0,phase_1,,,,,,,,,,,,,green,hexagon
122.0,6.0,2.0,1.0,3.0,3.0,365.3876640019007,4.0,1.0,phase_1,,,,,,,,,,,,,green,hexagon
95.0,6.0,2.0,1.0,2.0,2.0,365.6248130137101,4.0,1.0,phase_1,,,,,,,,,,,,,green,hexagon
406.0,4.0,4.0,0.0,3.0,3.0,426.6241780132986,4.0,1.0,phase_1,,,,,,,,,,,,,gray,circle
0.0,7.0,0.0,1.0,3.0,3.0,287.5941260135732,4.0,1.0,phase_1,,,,,,,,,,,,,magenta,I
376.0,4.0,4.0,0.0,3.0,3.0,794.6092460188083,4.0,1.0,phase_1,,,,,,,,,,,,,gray,circle
377.0,4.0,4.0,0.0,3.0,3.0,446.9421190442517,4.0,1.0,phase_1,,,,,,,,,,,,,gray,circle
185.0,7.0,3.0,1.0,4.0,4.0,421.7953880433924,4.0,1.0,phase_1,,,,,,,,,,,,,magenta,I
215.0,3.0,3.0,0.0,4.0,4.0,344.0119510050863,4.0,1.0,phase_1,,,,,,,,,,,,,white,square
59.0,5.0,1.0,1.0,4.0,4.0,429.2676849872805,4.0,1.0,phase_1,,,,,,,,,,,,,yellow,flipped triangle
418.0,4.0,4.0,0.0,4.0,4.0,426.2526159873232,4.0,1.0,phase_1,,,,,,,,,,,,,gray,circle
0.0,6.0,0.0,1.0,1.0,1.0,318.4918190236203,4.0,1.0,phase_1,,,,,,,,,,,,,green,hexagon
379.0,8.0,4.0,1.0,3.0,3.0,264.0882810228504,4.0,2.0,phase_1,,,,,,,,,,,,,cyan,triangle
0.0,3.0,0.0,0.0,4.0,4.0,348.5459819785319,4.0,1.0,phase_1,,,,,,,,,,,,,white,square
113.0,6.0,2.0,1.0,2.0,2.0,481.8547840113751,4.0,1.0,phase_1,,,,,,,,,,,,,green,hexagon
194.0,3.0,3.0,0.0,3.0,3.0,349.8096860130317,4.0,1.0,phase_1,,,,,,,,,,,,,white,square
0.0,8.0,0.0,1.0,1.0,1.0,288.5165030020289,4.0,1.0,phase_1,,,,,,,,,,,,,cyan,triangle
185.0,3.0,3.0,0.0,3.0,3.0,479.3206040048972,4.0,1.0,phase_1,,,,,,,,,,,,,white,square
0.0,7.0,0.0,1.0,3.0,3.0,317.2173399943858,4.0,1.0,phase_1,,,,,,,,,,,,,magenta,I
0.0,5.0,0.0,1.0,2.0,2.0,222.1121129696257,4.0,2.0,phase_1,,,,,,,,,,,,,yellow,flipped triangle
81.0,6.0,2.0,1.0,4.0,4.0,498.632724978961,4.0,1.0,phase_1,,,,,,,,,,,,,green,hexagon
52.0,5.0,1.0,1.0,1.0,1.0,437.5757219968363,4.0,1.0,phase_1,,,,,,,,,,,,,yellow,flipped triangle
0.0,8.0,0.0,1.0,2.0,2.0,370.8708799676969,4.0,1.0,phase_1,,,,,,,,,,,,,cyan,triangle
0.0,8.0,0.0,1.0,4.0,4.0,389.6422510151751,4.0,2.0,phase_1,,,,,,,,,,,,,cyan,triangle
39.0,1.0,1.0,0.0,2.0,2.0,435.0483390153385,4.0,1.0,phase_1,,,,,,,,,,,,,orange,diamond
0.0,6.0,0.0,1.0,3.0,3.0,374.9422620167024,4.0,1.0,phase_1,,,,,,,,,,,,,green,hexagon
209.0,3.0,3.0,0.0,4.0,4.0,369.8504259809851,4.0,1.0,phase_1,,,,,,,,,,,,,white,square
0.0,4.0,0.0,0.0,2.0,2.0,376.0192260378971,4.0,1.0,phase_1,,,,,,,,,,,,,gray,circle
0.0,2.0,0.0,0.0,4.0,4.0,450.4571030265651,4.0,1.0,phase_1,,,,,,,,,,,,,blue,cross
36.0,5.0,1.0,1.0,3.0,3.0,360.0870720110833,4.0,1.0,phase_1,,,,,,,,,,,,,yellow,flipped triangle
124.0,2.0,2.0,0.0,4.0,4.0,395.4634689725935,4.0,1.0,phase_1,,,,,,,,,,,,,blue,cross
0.0,1.0,0.0,0.0,2.0,2.0,416.5634599630721,4.0,1.0,phase_1,,,,,,,,,,,,,orange,diamond
384.0,4.0,4.0,0.0,4.0,4.0,364.8240550537593,4.0,1.0,phase_1,,,,,,,,,,,,,gray,circle
0.0,6.0,0.0,1.0,4.0,4.0,333.3171729464084,4.0,1.0,phase_1,,,,,,,,,,,,,green,hexagon
390.0,8.0,4.0,1.0,2.0,2.0,429.7451039892621,4.0,1.0,phase_1,,,,,,,,,,,,,cyan,triangle
193.0,3.0,3.0,0.0,4.0,4.0,570.818263979163,4.0,1.0,phase_1,,,,,,,,,,,,,white,square
212.0,3.0,3.0,0.0,1.0,1.0,477.039101999253,4.0,2.0,phase_1,,,,,,,,,,,,,white,square
56.0,1.0,1.0,0.0,2.0,2.0,434.9901219829917,4.0,1.0,phase_1,,,,,,,,,,,,,orange,diamond
93.0,6.0,2.0,1.0,4.0,4.0,368.5755140031688,4.0,1.0,phase_1,,,,,,,,,,,,,green,hexagon
101.0,6.0,2.0,1.0,2.0,2.0,397.9387090075761,4.0,1.0,phase_1,,,,,,,,,,,,,green,hexagon
121.0,6.0,2.0,1.0,2.0,2.0,550.5630460102111,4.0,1.0,phase_1,,,,,,,,,,,,,green,hexagon
384.0,4.0,4.0,0.0,4.0,4.0,501.49636197602376,4.0,1.0,phase_1,,,,,,,,,,,,,gray,circle
175.0,7.0,3.0,1.0,2.0,2.0,385.0117619731463,4.0,1.0,phase_1,,,,,,,,,,,,,magenta,I
204.0,3.0,3.0,0.0,1.0,1.0,381.4587200176902,4.0,1.0,phase_1,,,,,,,,,,,,,white,square
0.0,1.0,0.0,0.0,3.0,3.0,466.6975570144132,4.0,1.0,phase_1,,,,,,,,,,,,,orange,diamond
194.0,3.0,3.0,0.0,2.0,2.0,698.1374699971639,4.0,1.0,phase_1,,,,,,,,,,,,,white,square
212.0,3.0,3.0,0.0,4.0,4.0,496.6877360129729,4.0,2.0,phase_1,,,,,,,,,,,,,white,square
0.0,7.0,3.0,1.0,6.0,6.0,420.2912230393849,1.0,1.0,phase_2,go,250.0,250.0,1.0,,,,,,,,,magenta,I
0.0,4.0,4.0,0.0,6.0,6.0,364.6023699548095,1.0,1.0,phase_2,go,250.0,250.0,1.0,,,,,,,,,gray,circle
0.0,1.0,1.0,0.0,5.0,5.0,540.001098997891,1.0,1.0,phase_2,go,250.0,250.0,1.0,,,,,,,,,orange,diamond
0.0,3.0,3.0,0.0,5.0,5.0,371.2945469887927,1.0,1.0,phase_2,go,250.0,250.0,1.0,,,,,,,,,white,square
0.0,7.0,3.0,1.0,5.0,5.0,518.0853100027889,1.0,1.0,phase_2,stop,250.0,250.0,3.0,,,,,,,,,magenta,I
0.0,8.0,4.0,1.0,5.0,0.0,0.0,1.0,1.0,phase_2,stop,200.0,250.0,4.0,,,,,,,,,cyan,triangle
0.0,5.0,1.0,1.0,6.0,0.0,0.0,1.0,1.0,phase_2,stop,250.0,250.0,4.0,,,,,,,,,yellow,flipped triangle
0.0,4.0,4.0,0.0,5.0,5.0,529.0549719939008,1.0,1.0,phase_2,go,250.0,300.0,1.0,,,,,,,,,gray,circle
0.0,7.0,3.0,1.0,6.0,6.0,444.9787280173041,1.0,1.0,phase_2,stop,250.0,300.0,3.0,,,,,,,,,magenta,I
0.0,2.0,2.0,0.0,5.0,5.0,444.888667028863,1.0,1.0,phase_2,go,250.0,250.0,1.0,,,,,,,,,blue,cross
0.0,7.0,3.0,1.0,6.0,0.0,0.0,1.0,1.0,phase_2,stop,250.0,250.0,4.0,,,,,,,,,magenta,I
0.0,7.0,3.0,1.0,6.0,0.0,0.0,1.0,1.0,phase_2,stop,250.0,300.0,4.0,,,,,,,,,magenta,I
0.0,8.0,4.0,1.0,6.0,0.0,0.0,1.0,1.0,phase_2,stop,250.0,350.0,4.0,,,,,,,,,cyan,triangle
0.0,4.0,4.0,0.0,5.0,5.0,619.1857899539173,1.0,1.0,phase_2,go,250.0,400.0,1.0,,,,,,,,,gray,circle
0.0,8.0,4.0,1.0,5.0,0.0,0.0,1.0,1.0,phase_2,stop,250.0,400.0,4.0,,,,,,,,,cyan,triangle
0.0,2.0,2.0,0.0,6.0,6.0,626.9466099911369,1.0,1.0,phase_2,go,300.0,400.0,1.0,,,,,,,,,blue,cross
0.0,4.0,4.0,0.0,6.0,6.0,681.5197470132262,1.0,1.0,phase_2,go,300.0,400.0,1.0,,,,,,,,,gray,circle
0.0,4.0,4.0,0.0,5.0,5.0,604.0087119909003,1.0,1.0,phase_2,go,300.0,400.0,1.0,,,,,,,,,gray,circle
0.0,4.0,4.0,0.0,5.0,5.0,407.203198003117,1.0,1.0,phase_2,go,300.0,400.0,1.0,,,,,,,,,gray,circle
0.0,8.0,4.0,1.0,5.0,5.0,416.5702750324271,1.0,1.0,phase_2,stop,300.0,400.0,3.0,,,,,,,,,cyan,triangle
0.0,4.0,4.0,0.0,6.0,6.0,802.0059450063854,1.0,1.0,phase_2,go,250.0,400.0,1.0,,,,,,,,,gray,circle
0.0,7.0,3.0,1.0,6.0,6.0,445.8726749871857,1.0,1.0,phase_2,stop,250.0,400.0,3.0,,,,,,,,,magenta,I
0.0,8.0,4.0,1.0,5.0,0.0,0.0,1.0,1.0,phase_2,stop,250.0,350.0,4.0,,,,,,,,,cyan,triangle
0.0,5.0,1.0,1.0,5.0,0.0,0.0,1.0,1.0,phase_2,stop,300.0,350.0,4.0,,,,,,,,,yellow,flipped triangle
0.0,3.0,3.0,0.0,6.0,6.0,755.9768439969048,1.0,1.0,phase_2,go,350.0,350.0,1.0,,,,,,,,,white,square
0.0,8.0,4.0,1.0,5.0,0.0,0.0,1.0,1.0,phase_2,stop,350.0,350.0,4.0,,,,,,,,,cyan,triangle
0.0,7.0,3.0,1.0,5.0,0.0,0.0,1.0,1.0,phase_2,stop,400.0,350.0,4.0,,,,,,,,,magenta,I
0.0,1.0,1.0,0.0,5.0,5.0,700.4603009554558,1.0,1.0,phase_2,go,450.0,350.0,1.0,,,,,,,,,orange,diamond
0.0,2.0,2.0,0.0,6.0,6.0,1036.162231990602,1.0,1.0,phase_2,go,450.0,350.0,1.0,,,,,,,,,blue,cross
0.0,1.0,1.0,0.0,6.0,6.0,1011.5140519919803,1.0,1.0,phase_2,go,450.0,350.0,1.0,,,,,,,,,orange,diamond
0.0,7.0,3.0,1.0,5.0,5.0,449.4478050037287,1.0,1.0,phase_2,stop,450.0,350.0,3.0,,,,,,,,,magenta,I
0.0,6.0,2.0,1.0,5.0,0.0,0.0,1.0,1.0,phase_2,stop,400.0,350.0,4.0,,,,,,,,,green,hexagon
0.0,4.0,4.0,0.0,6.0,6.0,577.4783430388197,1.0,1.0,phase_2,go,450.0,350.0,1.0,,,,,,,,,gray,circle
0.0,6.0,2.0,1.0,5.0,0.0,0.0,1.0,1.0,phase_2,stop,450.0,350.0,4.0,,,,,,,,,green,hexagon
0.0,3.0,3.0,0.0,5.0,5.0,737.9370569833554,1.0,1.0,phase_2,go,500.0,350.0,1.0,,,,,,,,,white,square
0.0,2.0,2.0,0.0,5.0,5.0,885.8088019769639,1.0,1.0,phase_2,go,500.0,350.0,1.0,,,,,,,,,blue,cross
0.0,5.0,1.0,1.0,6.0,0.0,0.0,2.0,1.0,phase_2,stop,500.0,350.0,4.0,,,,,,,,,yellow,flipped triangle
0.0,3.0,3.0,0.0,5.0,5.0,431.1036640428938,2.0,1.0,phase_2,go,500.0,400.0,1.0,,,,,,,,,white,square
0.0,3.0,3.0,0.0,6.0,6.0,526.8846609978937,2.0,1.0,phase_2,go,500.0,400.0,1.0,,,,,,,,,white,square
0.0,6.0,2.0,1.0,5.0,5.0,425.1948370365426,2.0,1.0,phase_2,stop,500.0,400.0,3.0,,,,,,,,,green,hexagon
0.0,2.0,2.0,0.0,5.0,5.0,925.7207320188172,2.0,1.0,phase_2,go,450.0,400.0,1.0,,,,,,,,,blue,cross
0.0,2.0,2.0,0.0,6.0,6.0,761.0756370122544,2.0,1.0,phase_2,go,450.0,400.0,1.0,,,,,,,,,blue,cross
0.0,1.0,1.0,0.0,6.0,6.0,464.2396550043486,2.0,1.0,phase_2,go,450.0,400.0,1.0,,,,,,,,,orange,diamond
0.0,2.0,2.0,0.0,6.0,6.0,771.6782780480571,2.0,1.0,phase_2,go,450.0,400.0,1.0,,,,,,,,,blue,cross
0.0,2.0,2.0,0.0,5.0,5.0,605.6076409877278,2.0,1.0,phase_2,go,450.0,400.0,1.0,,,,,,,,,blue,cross
0.0,6.0,2.0,1.0,6.0,0.0,0.0,2.0,1.0,phase_2,stop,450.0,400.0,4.0,,,,,,,,,green,hexagon
0.0,1.0,1.0,0.0,6.0,6.0,716.1258489941247,2.0,1.0,phase_2,go,450.0,450.0,1.0,,,,,,,,,orange,diamond
0.0,3.0,3.0,0.0,6.0,6.0,812.6616520457901,2.0,1.0,phase_2,go,450.0,450.0,1.0,,,,,,,,,white,square
0.0,8.0,4.0,1.0,6.0,6.0,482.8272400191054,2.0,1.0,phase_2,stop,450.0,450.0,3.0,,,,,,,,,cyan,triangle
0.0,4.0,4.0,0.0,6.0,6.0,819.9493569554761,2.0,1.0,phase_2,go,450.0,400.0,1.0,,,,,,,,,gray,circle
0.0,6.0,2.0,1.0,6.0,0.0,0.0,2.0,1.0,phase_2,stop,450.0,400.0,4.0,,,,,,,,,green,hexagon
0.0,6.0,2.0,1.0,5.0,0.0,0.0,2.0,1.0,phase_2,stop,450.0,450.0,4.0,,,,,,,,,green,hexagon
0.0,2.0,2.0,0.0,6.0,6.0,873.8949550315738,2.0,1.0,phase_2,go,500.0,450.0,1.0,,,,,,,,,blue,cross
0.0,4.0,4.0,0.0,6.0,6.0,791.1370510119013,2.0,1.0,phase_2,go,500.0,450.0,1.0,,,,,,,,,gray,circle
0.0,1.0,1.0,0.0,5.0,5.0,965.8252390217968,2.0,1.0,phase_2,go,500.0,450.0,1.0,,,,,,,,,orange,diamond
0.0,5.0,1.0,1.0,6.0,0.0,0.0,2.0,1.0,phase_2,stop,500.0,450.0,4.0,,,,,,,,,yellow,flipped triangle
0.0,4.0,4.0,0.0,6.0,6.0,885.0163689930923,2.0,1.0,phase_2,go,500.0,500.0,1.0,,,,,,,,,gray,circle
0.0,4.0,4.0,0.0,5.0,5.0,1151.1367129860446,2.0,1.0,phase_2,go,500.0,500.0,1.0,,,,,,,,,gray,circle
0.0,1.0,1.0,0.0,6.0,6.0,565.3171220328659,2.0,1.0,phase_2,go,500.0,500.0,1.0,,,,,,,,,orange,diamond
0.0,1.0,1.0,0.0,6.0,6.0,726.1528369854204,2.0,1.0,phase_2,go,500.0,500.0,1.0,,,,,,,,,orange,diamond
0.0,3.0,3.0,0.0,5.0,5.0,1113.613608002197,2.0,1.0,phase_2,go,500.0,500.0,1.0,,,,,,,,,white,square
0.0,3.0,3.0,0.0,6.0,6.0,661.7610020330176,2.0,1.0,phase_2,go,500.0,500.0,1.0,,,,,,,,,white,square
0.0,5.0,1.0,1.0,5.0,0.0,0.0,2.0,1.0,phase_2,stop,500.0,500.0,4.0,,,,,,,,,yellow,flipped triangle
0.0,1.0,1.0,0.0,6.0,6.0,643.6232650303282,2.0,1.0,phase_2,go,550.0,500.0,1.0,,,,,,,,,orange,diamond
0.0,6.0,2.0,1.0,6.0,0.0,0.0,2.0,1.0,phase_2,stop,550.0,500.0,4.0,,,,,,,,,green,hexagon
0.0,4.0,4.0,0.0,6.0,6.0,1001.8571349792182,2.0,1.0,phase_2,go,550.0,550.0,1.0,,,,,,,,,gray,circle
0.0,8.0,4.0,1.0,6.0,6.0,887.1307660010643,2.0,1.0,phase_2,go,550.0,550.0,1.0,,,,,,,,,cyan,triangle
0.0,7.0,3.0,1.0,5.0,5.0,1048.7936299759897,2.0,1.0,phase_2,go,550.0,550.0,1.0,,,,,,,,,magenta,I
0.0,7.0,3.0,1.0,6.0,0.0,0.0,2.0,1.0,phase_2,stop,550.0,550.0,4.0,,,,,,,,,magenta,I
0.0,2.0,2.0,0.0,5.0,5.0,848.8219699938782,2.0,1.0,phase_2,go,550.0,600.0,1.0,,,,,,,,,blue,cross
0.0,1.0,1.0,0.0,6.0,6.0,989.9397609988227,2.0,1.0,phase_2,go,550.0,600.0,1.0,,,,,,,,,orange,diamond
0.0,5.0,1.0,1.0,5.0,5.0,518.0457889800891,2.0,1.0,phase_2,go,550.0,600.0,1.0,,,,,,,,,yellow,flipped triangle
0.0,7.0,3.0,1.0,6.0,6.0,440.9422250464558,3.0,1.0,phase_2,stop,550.0,600.0,3.0,,,,,,,,,magenta,I
0.0,8.0,4.0,1.0,6.0,6.0,620.6049640313722,3.0,1.0,phase_2,stop,550.0,550.0,3.0,,,,,,,,,cyan,triangle
0.0,3.0,3.0,0.0,5.0,5.0,355.7790050399489,3.0,1.0,phase_2,go,550.0,500.0,1.0,,,,,,,,,white,square
0.0,5.0,1.0,1.0,6.0,6.0,425.6227049627341,3.0,1.0,phase_2,go,550.0,500.0,1.0,,,,,,,,,yellow,flipped triangle
0.0,2.0,2.0,0.0,5.0,5.0,350.7415250060148,3.0,1.0,phase_2,go,550.0,500.0,1.0,,,,,,,,,blue,cross
0.0,8.0,4.0,1.0,6.0,6.0,525.4569459939376,3.0,1.0,phase_2,stop,550.0,500.0,3.0,,,,,,,,,cyan,triangle
0.0,7.0,3.0,1.0,6.0,6.0,573.7664169864729,3.0,1.0,phase_2,go,550.0,450.0,1.0,,,,,,,,,magenta,I
0.0,7.0,3.0,1.0,5.0,5.0,633.2575930282474,3.0,1.0,phase_2,go,550.0,450.0,1.0,,,,,,,,,magenta,I
0.0,1.0,1.0,0.0,5.0,5.0,351.4086450450122,3.0,1.0,phase_2,go,550.0,450.0,1.0,,,,,,,,,orange,diamond
0.0,7.0,3.0,1.0,5.0,5.0,468.3449660078622,3.0,1.0,phase_2,stop,550.0,450.0,3.0,,,,,,,,,magenta,I
0.0,6.0,2.0,1.0,5.0,5.0,692.1477619907819,3.0,1.0,phase_2,go,500.0,450.0,1.0,,,,,,,,,green,hexagon
0.0,3.0,3.0,0.0,5.0,5.0,403.0871720169671,3.0,1.0,phase_2,go,500.0,450.0,1.0,,,,,,,,,white,square
0.0,3.0,3.0,0.0,5.0,5.0,324.887351016514,3.0,1.0,phase_2,go,500.0,450.0,1.0,,,,,,,,,white,square
0.0,5.0,1.0,1.0,6.0,0.0,0.0,3.0,1.0,phase_2,stop,500.0,450.0,4.0,,,,,,,,,yellow,flipped triangle
0.0,2.0,2.0,0.0,5.0,5.0,605.2131960168481,3.0,1.0,phase_2,go,500.0,500.0,1.0,,,,,,,,,blue,cross
0.0,6.0,2.0,1.0,5.0,0.0,0.0,3.0,1.0,phase_2,stop,500.0,500.0,4.0,,,,,,,,,green,hexagon
0.0,3.0,3.0,0.0,5.0,5.0,1217.443862988148,3.0,1.0,phase_2,go,550.0,500.0,1.0,,,,,,,,,white,square
0.0,6.0,2.0,1.0,5.0,0.0,0.0,3.0,1.0,phase_2,stop,550.0,500.0,4.0,,,,,,,,,green,hexagon
0.0,3.0,3.0,0.0,6.0,6.0,592.8331600152887,3.0,1.0,phase_2,go,600.0,500.0,1.0,,,,,,,,,white,square
0.0,3.0,3.0,0.0,5.0,5.0,777.3248359444551,3.0,1.0,phase_2,go,600.0,500.0,1.0,,,,,,,,,white,square
0.0,5.0,1.0,1.0,5.0,5.0,398.1306960340589,3.0,1.0,phase_2,stop,600.0,500.0,3.0,,,,,,,,,yellow,flipped triangle
0.0,1.0,1.0,0.0,5.0,5.0,406.9800060242414,3.0,1.0,phase_2,go,550.0,500.0,1.0,,,,,,,,,orange,diamond
0.0,6.0,2.0,1.0,6.0,6.0,525.5611409666017,3.0,1.0,phase_2,stop,550.0,500.0,3.0,,,,,,,,,green,hexagon
0.0,8.0,4.0,1.0,5.0,5.0,700.7300480036065,3.0,1.0,phase_2,go,550.0,450.0,1.0,,,,,,,,,cyan,triangle
0.0,5.0,1.0,1.0,5.0,5.0,484.7192430170253,3.0,1.0,phase_2,stop,550.0,450.0,3.0,,,,,,,,,yellow,flipped triangle
0.0,5.0,1.0,1.0,6.0,6.0,684.8037720192224,3.0,1.0,phase_2,go,500.0,450.0,1.0,,,,,,,,,yellow,flipped triangle
0.0,7.0,3.0,1.0,5.0,0.0,0.0,3.0,1.0,phase_2,stop,500.0,450.0,4.0,,,,,,,,,magenta,I
0.0,8.0,4.0,1.0,5.0,5.0,685.6818770174868,3.0,1.0,phase_2,stop,550.0,450.0,3.0,,,,,,,,,cyan,triangle
0.0,8.0,4.0,1.0,6.0,6.0,746.5653249528259,3.0,1.0,phase_2,go,500.0,450.0,1.0,,,,,,,,,cyan,triangle
0.0,6.0,2.0,1.0,5.0,5.0,762.8161720349453,3.0,1.0,phase_2,go,500.0,450.0,1.0,,,,,,,,,green,hexagon
0.0,7.0,3.0,1.0,5.0,0.0,0.0,3.0,1.0,phase_2,stop,500.0,450.0,4.0,,,,,,,,,magenta,I
0.0,8.0,4.0,1.0,6.0,6.0,594.1288259928115,3.0,1.0,phase_2,go,550.0,450.0,1.0,,,,,,,,,cyan,triangle
0.0,2.0,2.0,0.0,5.0,5.0,803.6974339629523,3.0,1.0,phase_2,go,550.0,450.0,1.0,,,,,,,,,blue,cross
0.0,5.0,1.0,1.0,6.0,6.0,366.98658100795,3.0,1.0,phase_2,stop,550.0,450.0,3.0,,,,,,,,,yellow,flipped triangle
0.0,8.0,4.0,1.0,5.0,5.0,599.2783750407398,3.0,1.0,phase_2,stop,550.0,400.0,3.0,,,,,,,,,cyan,triangle
0.0,7.0,3.0,1.0,6.0,0.0,0.0,3.0,1.0,phase_2,stop,500.0,400.0,4.0,,,,,,,,,magenta,I
0.0,4.0,4.0,0.0,5.0,5.0,557.2279460029677,4.0,1.0,phase_2,go,500.0,450.0,1.0,,,,,,,,,gray,circle
0.0,5.0,1.0,1.0,5.0,5.0,368.8736149924807,4.0,1.0,phase_2,go,500.0,450.0,1.0,,,,,,,,,yellow,flipped triangle
0.0,6.0,2.0,1.0,6.0,6.0,378.1946130329743,4.0,1.0,phase_2,stop,500.0,450.0,3.0,,,,,,,,,green,hexagon
0.0,4.0,4.0,0.0,5.0,5.0,439.6029969793744,4.0,1.0,phase_2,go,500.0,400.0,1.0,,,,,,,,,gray,circle
0.0,5.0,1.0,1.0,6.0,0.0,0.0,4.0,1.0,phase_2,stop,500.0,400.0,4.0,,,,,,,,,yellow,flipped triangle
0.0,2.0,2.0,0.0,6.0,6.0,823.048162041232,4.0,1.0,phase_2,go,500.0,450.0,1.0,,,,,,,,,blue,cross
0.0,7.0,3.0,1.0,5.0,5.0,414.4260890316218,4.0,1.0,phase_2,stop,500.0,450.0,3.0,,,,,,,,,magenta,I
0.0,4.0,4.0,0.0,6.0,6.0,511.1495889723301,4.0,1.0,phase_2,go,450.0,450.0,1.0,,,,,,,,,gray,circle
0.0,5.0,1.0,1.0,5.0,5.0,711.7242499953136,4.0,1.0,phase_2,stop,450.0,450.0,3.0,,,,,,,,,yellow,flipped triangle
0.0,7.0,3.0,1.0,5.0,0.0,0.0,4.0,1.0,phase_2,stop,400.0,450.0,4.0,,,,,,,,,magenta,I
0.0,6.0,2.0,1.0,6.0,0.0,0.0,4.0,1.0,phase_2,stop,450.0,450.0,4.0,,,,,,,,,green,hexagon
0.0,1.0,1.0,0.0,5.0,5.0,675.7259499863721,4.0,1.0,phase_2,go,450.0,500.0,1.0,,,,,,,,,orange,diamond
0.0,8.0,4.0,1.0,6.0,0.0,0.0,4.0,1.0,phase_2,stop,450.0,500.0,4.0,,,,,,,,,cyan,triangle
0.0,1.0,1.0,0.0,6.0,6.0,709.5247950055636,4.0,1.0,phase_2,go,450.0,550.0,1.0,,,,,,,,,orange,diamond
0.0,8.0,4.0,1.0,5.0,0.0,0.0,4.0,1.0,phase_2,stop,450.0,550.0,4.0,,,,,,,,,cyan,triangle
0.0,6.0,2.0,1.0,6.0,6.0,788.3923400077038,4.0,1.0,phase_2,go,500.0,550.0,1.0,,,,,,,,,green,hexagon
0.0,1.0,1.0,0.0,6.0,6.0,1384.262133971788,4.0,1.0,phase_2,go,500.0,550.0,1.0,,,,,,,,,orange,diamond
0.0,7.0,3.0,1.0,5.0,5.0,767.377567011863,4.0,1.0,phase_2,stop,500.0,550.0,3.0,,,,,,,,,magenta,I
0.0,1.0,1.0,0.0,6.0,6.0,718.8618619693443,4.0,1.0,phase_2,go,450.0,550.0,1.0,,,,,,,,,orange,diamond
0.0,2.0,2.0,0.0,5.0,5.0,399.3273270316422,4.0,1.0,phase_2,go,450.0,550.0,1.0,,,,,,,,,blue,cross
0.0,2.0,2.0,0.0,6.0,6.0,510.23249002173543,4.0,1.0,phase_2,go,450.0,550.0,1.0,,,,,,,,,blue,cross
0.0,6.0,2.0,1.0,6.0,6.0,477.9028419870883,4.0,1.0,phase_2,go,450.0,550.0,1.0,,,,,,,,,green,hexagon
0.0,5.0,1.0,1.0,5.0,5.0,559.4959409791045,4.0,1.0,phase_2,stop,450.0,550.0,3.0,,,,,,,,,yellow,flipped triangle
0.0,1.0,1.0,0.0,6.0,6.0,870.1738290255889,4.0,1.0,phase_2,go,400.0,550.0,1.0,,,,,,,,,orange,diamond
0.0,8.0,4.0,1.0,5.0,0.0,0.0,4.0,1.0,phase_2,stop,400.0,550.0,4.0,,,,,,,,,cyan,triangle
0.0,8.0,4.0,1.0,6.0,6.0,717.6950650173239,4.0,1.0,phase_2,go,450.0,550.0,1.0,,,,,,,,,cyan,triangle
0.0,7.0,3.0,1.0,5.0,5.0,494.6214929805137,4.0,1.0,phase_2,go,450.0,550.0,1.0,,,,,,,,,magenta,I
0.0,4.0,4.0,0.0,5.0,5.0,658.8622860144824,4.0,1.0,phase_2,go,450.0,550.0,1.0,,,,,,,,,gray,circle
0.0,3.0,3.0,0.0,6.0,6.0,579.0012929937802,4.0,1.0,phase_2,go,450.0,550.0,1.0,,,,,,,,,white,square
0.0,5.0,1.0,1.0,5.0,5.0,362.6870730076916,4.0,1.0,phase_2,go,450.0,550.0,1.0,,,,,,,,,yellow,flipped triangle
0.0,6.0,2.0,1.0,6.0,6.0,657.3738840525039,4.0,1.0,phase_2,stop,450.0,550.0,3.0,,,,,,,,,green,hexagon
0.0,2.0,2.0,0.0,5.0,5.0,1048.1474520056508,4.0,1.0,phase_2,go,450.0,500.0,1.0,,,,,,,,,blue,cross
0.0,6.0,2.0,1.0,5.0,5.0,476.4986250083893,4.0,1.0,phase_2,stop,450.0,500.0,3.0,,,,,,,,,green,hexagon
0.0,2.0,2.0,0.0,6.0,6.0,672.8835799731314,4.0,1.0,phase_2,go,400.0,500.0,1.0,,,,,,,,,blue,cross
0.0,4.0,4.0,0.0,5.0,5.0,678.5177059937268,4.0,1.0,phase_2,go,400.0,500.0,1.0,,,,,,,,,gray,circle
0.0,8.0,4.0,1.0,5.0,5.0,757.4870379758067,4.0,1.0,phase_2,go,400.0,500.0,1.0,,,,,,,,,cyan,triangle
0.0,1.0,1.0,0.0,5.0,5.0,460.8899909653701,5.0,1.0,phase_2,go,400.0,500.0,1.0,,,,,,,,,orange,diamond
0.0,8.0,4.0,1.0,6.0,6.0,337.0780019904487,5.0,1.0,phase_2,stop,400.0,500.0,3.0,,,,,,,,,cyan,triangle
0.0,5.0,1.0,1.0,6.0,0.0,0.0,5.0,1.0,phase_2,stop,400.0,450.0,4.0,,,,,,,,,yellow,flipped triangle
0.0,5.0,1.0,1.0,6.0,6.0,538.7480640201829,5.0,1.0,phase_2,stop,400.0,500.0,3.0,,,,,,,,,yellow,flipped triangle
0.0,1.0,1.0,0.0,6.0,6.0,568.187264027074,5.0,1.0,phase_2,go,400.0,450.0,1.0,,,,,,,,,orange,diamond
0.0,3.0,3.0,0.0,5.0,5.0,521.8275000224821,5.0,1.0,phase_2,go,400.0,450.0,1.0,,,,,,,,,white,square
0.0,6.0,2.0,1.0,5.0,5.0,374.5184059953317,5.0,1.0,phase_2,go,400.0,450.0,1.0,,,,,,,,,green,hexagon
0.0,1.0,1.0,0.0,6.0,6.0,489.8164820042439,5.0,1.0,phase_2,go,400.0,450.0,1.0,,,,,,,,,orange,diamond
0.0,4.0,4.0,0.0,6.0,6.0,719.7937940363772,5.0,1.0,phase_2,go,400.0,450.0,1.0,,,,,,,,,gray,circle
0.0,5.0,1.0,1.0,5.0,0.0,0.0,5.0,1.0,phase_2,stop,400.0,450.0,4.0,,,,,,,,,yellow,flipped triangle
0.0,3.0,3.0,0.0,6.0,6.0,590.3894259827211,5.0,1.0,phase_2,go,450.0,450.0,1.0,,,,,,,,,white,square
0.0,1.0,1.0,0.0,5.0,5.0,551.6723689506762,5.0,1.0,phase_2,go,450.0,450.0,1.0,,,,,,,,,orange,diamond
0.0,4.0,4.0,0.0,6.0,6.0,429.0259469999,5.0,1.0,phase_2,go,450.0,450.0,1.0,,,,,,,,,gray,circle
0.0,3.0,3.0,0.0,5.0,5.0,340.755512996111,5.0,1.0,phase_2,go,450.0,450.0,1.0,,,,,,,,,white,square
0.0,2.0,2.0,0.0,6.0,6.0,429.0781210293062,5.0,1.0,phase_2,go,450.0,450.0,1.0,,,,,,,,,blue,cross
0.0,1.0,1.0,0.0,6.0,6.0,554.2245190008543,5.0,1.0,phase_2,go,450.0,450.0,1.0,,,,,,,,,orange,diamond
0.0,1.0,1.0,0.0,5.0,5.0,341.2426069844514,5.0,1.0,phase_2,go,450.0,450.0,1.0,,,,,,,,,orange,diamond
0.0,8.0,4.0,1.0,6.0,6.0,386.6150120156817,5.0,1.0,phase_2,stop,450.0,450.0,3.0,,,,,,,,,cyan,triangle
0.0,5.0,1.0,1.0,6.0,0.0,0.0,5.0,1.0,phase_2,stop,450.0,400.0,4.0,,,,,,,,,yellow,flipped triangle
0.0,8.0,4.0,1.0,6.0,6.0,809.6972570056096,5.0,1.0,phase_2,go,450.0,450.0,1.0,,,,,,,,,cyan,triangle
0.0,2.0,2.0,0.0,6.0,6.0,768.6735800234601,5.0,1.0,phase_2,go,450.0,450.0,1.0,,,,,,,,,blue,cross
0.0,2.0,2.0,0.0,5.0,5.0,601.2508860439993,5.0,1.0,phase_2,go,450.0,450.0,1.0,,,,,,,,,blue,cross
0.0,8.0,4.0,1.0,6.0,6.0,287.7523379866034,5.0,1.0,phase_2,stop,450.0,450.0,3.0,,,,,,,,,cyan,triangle
0.0,2.0,2.0,0.0,6.0,6.0,645.5044440226629,5.0,1.0,phase_2,go,450.0,400.0,1.0,,,,,,,,,blue,cross
0.0,5.0,1.0,1.0,6.0,6.0,383.9265650021843,5.0,1.0,phase_2,stop,450.0,400.0,3.0,,,,,,,,,yellow,flipped triangle
0.0,7.0,3.0,1.0,6.0,0.0,0.0,5.0,1.0,phase_2,stop,450.0,350.0,4.0,,,,,,,,,magenta,I
0.0,6.0,2.0,1.0,5.0,5.0,519.1007300163619,5.0,1.0,phase_2,go,450.0,400.0,1.0,,,,,,,,,green,hexagon
0.0,2.0,2.0,0.0,6.0,6.0,363.7098330073058,5.0,1.0,phase_2,go,450.0,400.0,1.0,,,,,,,,,blue,cross
0.0,8.0,4.0,1.0,6.0,6.0,418.5593570000492,5.0,1.0,phase_2,stop,450.0,400.0,3.0,,,,,,,,,cyan,triangle
0.0,7.0,3.0,1.0,6.0,6.0,922.3515530466102,5.0,1.0,phase_2,go,450.0,350.0,1.0,,,,,,,,,magenta,I
0.0,2.0,2.0,0.0,5.0,5.0,945.9970850148238,5.0,1.0,phase_2,go,450.0,350.0,1.0,,,,,,,,,blue,cross
0.0,3.0,3.0,0.0,6.0,6.0,530.6685169925913,5.0,1.0,phase_2,go,450.0,350.0,1.0,,,,,,,,,white,square
0.0,4.0,4.0,0.0,5.0,5.0,514.0954640228301,5.0,1.0,phase_2,go,450.0,350.0,1.0,,,,,,,,,gray,circle
0.0,6.0,2.0,1.0,6.0,6.0,378.68907203665,5.0,1.0,phase_2,stop,450.0,350.0,3.0,,,,,,,,,green,hexagon
0.0,7.0,3.0,1.0,6.0,0.0,0.0,5.0,1.0,phase_2,stop,450.0,300.0,4.0,,,,,,,,,magenta,I
0.0,6.0,2.0,1.0,5.0,5.0,455.4508790024556,5.0,1.0,phase_2,go,450.0,350.0,1.0,,,,,,,,,green,hexagon
0.0,6.0,2.0,1.0,6.0,6.0,485.9114410355687,6.0,1.0,phase_2,go,450.0,350.0,1.0,,,,,,,,,green,hexagon
0.0,5.0,1.0,1.0,6.0,6.0,287.7198180067353,6.0,1.0,phase_2,stop,450.0,350.0,3.0,,,,,,,,,yellow,flipped triangle
0.0,6.0,2.0,1.0,5.0,5.0,285.5752519681118,6.0,1.0,phase_2,stop,450.0,300.0,3.0,,,,,,,,,green,hexagon
0.0,4.0,4.0,0.0,6.0,6.0,471.1273760185577,6.0,1.0,phase_2,go,400.0,300.0,1.0,,,,,,,,,gray,circle
0.0,2.0,2.0,0.0,5.0,5.0,259.8995669977739,6.0,1.0,phase_2,go,400.0,300.0,1.0,,,,,,,,,blue,cross
0.0,2.0,2.0,0.0,5.0,5.0,403.8455179543234,6.0,1.0,phase_2,go,400.0,300.0,1.0,,,,,,,,,blue,cross
0.0,6.0,2.0,1.0,5.0,5.0,261.4755319664255,6.0,1.0,phase_2,stop,400.0,300.0,3.0,,,,,,,,,green,hexagon
0.0,4.0,4.0,0.0,5.0,5.0,637.9574610036798,6.0,1.0,phase_2,go,350.0,300.0,1.0,,,,,,,,,gray,circle
0.0,1.0,1.0,0.0,5.0,5.0,314.2851400189101,6.0,1.0,phase_2,go,350.0,300.0,1.0,,,,,,,,,orange,diamond
0.0,8.0,4.0,1.0,5.0,0.0,0.0,6.0,1.0,phase_2,stop,350.0,300.0,4.0,,,,,,,,,cyan,triangle
0.0,3.0,3.0,0.0,6.0,6.0,547.6913669845089,6.0,1.0,phase_2,go,400.0,300.0,1.0,,,,,,,,,white,square
0.0,7.0,3.0,1.0,6.0,0.0,0.0,6.0,1.0,phase_2,stop,400.0,300.0,4.0,,,,,,,,,magenta,I
0.0,5.0,1.0,1.0,5.0,5.0,657.7242590137757,6.0,1.0,phase_2,stop,400.0,350.0,3.0,,,,,,,,,yellow,flipped triangle
0.0,8.0,4.0,1.0,6.0,0.0,0.0,6.0,1.0,phase_2,stop,350.0,350.0,4.0,,,,,,,,,cyan,triangle
0.0,3.0,3.0,0.0,5.0,5.0,632.9387029982172,6.0,1.0,phase_2,go,350.0,400.0,1.0,,,,,,,,,white,square
0.0,5.0,1.0,1.0,6.0,0.0,0.0,6.0,1.0,phase_2,stop,350.0,400.0,4.0,,,,,,,,,yellow,flipped triangle
0.0,4.0,4.0,0.0,5.0,5.0,737.0699029997922,6.0,1.0,phase_2,go,350.0,450.0,1.0,,,,,,,,,gray,circle
0.0,6.0,2.0,1.0,5.0,5.0,341.1055259639397,6.0,1.0,phase_2,stop,350.0,450.0,3.0,,,,,,,,,green,hexagon
0.0,4.0,4.0,0.0,6.0,6.0,566.94248795975,6.0,1.0,phase_2,go,300.0,450.0,1.0,,,,,,,,,gray,circle
0.0,7.0,3.0,1.0,5.0,5.0,325.0468989717774,6.0,1.0,phase_2,stop,300.0,450.0,3.0,,,,,,,,,magenta,I
0.0,5.0,1.0,1.0,5.0,0.0,0.0,6.0,1.0,phase_2,stop,250.0,450.0,4.0,,,,,,,,,yellow,flipped triangle
0.0,4.0,4.0,0.0,6.0,6.0,371.1092789890244,6.0,1.0,phase_2,go,300.0,450.0,1.0,,,,,,,,,gray,circle
0.0,8.0,4.0,1.0,5.0,0.0,0.0,6.0,1.0,phase_2,stop,300.0,450.0,4.0,,,,,,,,,cyan,triangle
0.0,6.0,2.0,1.0,6.0,0.0,0.0,6.0,1.0,phase_2,stop,350.0,450.0,4.0,,,,,,,,,green,hexagon
0.0,2.0,2.0,0.0,6.0,6.0,626.7798490007408,6.0,1.0,phase_2,go,350.0,500.0,1.0,,,,,,,,,blue,cross
0.0,7.0,3.0,1.0,6.0,6.0,553.9442130248062,6.0,1.0,phase_2,stop,350.0,500.0,3.0,,,,,,,,,magenta,I
0.0,5.0,1.0,1.0,6.0,6.0,562.1428280137479,6.0,1.0,phase_2,stop,350.0,450.0,3.0,,,,,,,,,yellow,flipped triangle
0.0,5.0,1.0,1.0,6.0,0.0,0.0,6.0,1.0,phase_2,stop,350.0,400.0,4.0,,,,,,,,,yellow,flipped triangle
0.0,2.0,2.0,0.0,6.0,6.0,638.7377689825371,6.0,1.0,phase_2,go,350.0,450.0,1.0,,,,,,,,,blue,cross
0.0,6.0,2.0,1.0,5.0,5.0,695.6226610345766,6.0,1.0,phase_2,go,350.0,450.0,1.0,,,,,,,,,green,hexagon
0.0,4.0,4.0,0.0,5.0,5.0,415.1567840017378,6.0,1.0,phase_2,go,350.0,450.0,1.0,,,,,,,,,gray,circle
0.0,8.0,4.0,1.0,6.0,0.0,0.0,6.0,1.0,phase_2,stop,350.0,450.0,4.0,,,,,,,,,cyan,triangle
0.0,5.0,1.0,1.0,5.0,5.0,792.3524139914662,6.0,1.0,phase_2,go,350.0,500.0,1.0,,,,,,,,,yellow,flipped triangle
0.0,5.0,1.0,1.0,6.0,6.0,494.6332619874738,6.0,1.0,phase_2,stop,350.0,500.0,3.0,,,,,,,,,yellow,flipped triangle
0.0,8.0,4.0,1.0,6.0,6.0,942.9202710161916,6.0,1.0,phase_2,go,350.0,450.0,1.0,,,,,,,,,cyan,triangle
0.0,5.0,1.0,1.0,5.0,5.0,603.336593019776,6.0,1.0,phase_2,stop,350.0,450.0,3.0,,,,,,,,,yellow,flipped triangle
0.0,1.0,1.0,0.0,5.0,5.0,530.0706949783489,7.0,1.0,phase_2,go,300.0,450.0,1.0,,,,,,,,,orange,diamond
0.0,7.0,3.0,1.0,6.0,6.0,320.837193983607,7.0,1.0,phase_2,stop,300.0,450.0,3.0,,,,,,,,,magenta,I
0.0,4.0,4.0,0.0,5.0,5.0,445.3552559716627,7.0,1.0,phase_2,go,300.0,400.0,1.0,,,,,,,,,gray,circle
0.0,8.0,4.0,1.0,6.0,0.0,0.0,7.0,1.0,phase_2,stop,300.0,400.0,4.0,,,,,,,,,cyan,triangle
0.0,4.0,4.0,0.0,6.0,6.0,639.8139919620007,7.0,1.0,phase_2,go,300.0,450.0,1.0,,,,,,,,,gray,circle
0.0,3.0,3.0,0.0,5.0,5.0,732.4332440039143,7.0,1.0,phase_2,go,300.0,450.0,1.0,,,,,,,,,white,square
0.0,7.0,3.0,1.0,5.0,5.0,341.1614539800212,7.0,1.0,phase_2,stop,300.0,450.0,3.0,,,,,,,,,magenta,I
0.0,1.0,1.0,0.0,5.0,5.0,292.3061469919048,7.0,1.0,phase_2,go,250.0,450.0,1.0,,,,,,,,,orange,diamond
0.0,1.0,1.0,0.0,5.0,5.0,275.7067800266668,7.0,1.0,phase_2,go,250.0,450.0,1.0,,,,,,,,,orange,diamond
0.0,6.0,2.0,1.0,6.0,6.0,352.7101119980216,7.0,1.0,phase_2,stop,250.0,450.0,3.0,,,,,,,,,green,hexagon
0.0,3.0,3.0,0.0,6.0,6.0,626.6650889883749,7.0,1.0,phase_2,go,250.0,400.0,1.0,,,,,,,,,white,square
0.0,5.0,1.0,1.0,5.0,5.0,808.6983110406436,7.0,1.0,phase_2,go,250.0,400.0,1.0,,,,,,,,,yellow,flipped triangle
0.0,5.0,1.0,1.0,5.0,5.0,367.7855370333418,7.0,1.0,phase_2,stop,250.0,400.0,3.0,,,,,,,,,yellow,flipped triangle
0.0,8.0,4.0,1.0,5.0,5.0,409.0139449690468,7.0,1.0,phase_2,stop,200.0,400.0,3.0,,,,,,,,,cyan,triangle
0.0,2.0,2.0,0.0,6.0,6.0,505.78252400737256,7.0,1.0,phase_2,go,150.0,400.0,1.0,,,,,,,,,blue,cross
0.0,5.0,1.0,1.0,5.0,5.0,441.0250370274298,7.0,1.0,phase_2,go,150.0,400.0,1.0,,,,,,,,,yellow,flipped triangle
0.0,1.0,1.0,0.0,6.0,6.0,486.1936600063927,7.0,1.0,phase_2,go,150.0,400.0,1.0,,,,,,,,,orange,diamond
0.0,3.0,3.0,0.0,6.0,6.0,504.7021479695104,7.0,1.0,phase_2,go,150.0,400.0,1.0,,,,,,,,,white,square
0.0,2.0,2.0,0.0,5.0,5.0,806.6556890262291,7.0,1.0,phase_2,go,150.0,400.0,1.0,,,,,,,,,blue,cross
0.0,4.0,4.0,0.0,6.0,6.0,436.3993040169589,7.0,1.0,phase_2,go,150.0,400.0,1.0,,,,,,,,,gray,circle
0.0,3.0,3.0,0.0,6.0,6.0,411.2082110368646,7.0,1.0,phase_2,go,150.0,400.0,1.0,,,,,,,,,white,square
0.0,7.0,3.0,1.0,5.0,5.0,326.2676089652814,7.0,1.0,phase_2,go,150.0,400.0,1.0,,,,,,,,,magenta,I
0.0,8.0,4.0,1.0,5.0,5.0,333.0841260030865,7.0,1.0,phase_2,stop,150.0,400.0,3.0,,,,,,,,,cyan,triangle
0.0,1.0,1.0,0.0,5.0,5.0,625.2790340222418,7.0,1.0,phase_2,go,100.0,400.0,1.0,,,,,,,,,orange,diamond
0.0,3.0,3.0,0.0,6.0,6.0,568.5820690123364,7.0,1.0,phase_2,go,100.0,400.0,1.0,,,,,,,,,white,square
0.0,4.0,4.0,0.0,5.0,5.0,354.1907459730282,7.0,1.0,phase_2,go,100.0,400.0,1.0,,,,,,,,,gray,circle
0.0,7.0,3.0,1.0,6.0,6.0,337.7076759934425,7.0,1.0,phase_2,go,100.0,400.0,1.0,,,,,,,,,magenta,I
0.0,6.0,2.0,1.0,6.0,6.0,641.1380640347488,7.0,1.0,phase_2,stop,100.0,400.0,3.0,,,,,,,,,green,hexagon
0.0,6.0,2.0,1.0,6.0,0.0,0.0,7.0,1.0,phase_2,stop,100.0,350.0,4.0,,,,,,,,,green,hexagon
0.0,1.0,1.0,0.0,6.0,6.0,615.5745310243219,7.0,1.0,phase_2,go,100.0,400.0,1.0,,,,,,,,,orange,diamond
0.0,3.0,3.0,0.0,6.0,6.0,573.7899580271915,7.0,1.0,phase_2,go,100.0,400.0,1.0,,,,,,,,,white,square
0.0,7.0,3.0,1.0,5.0,5.0,380.7445319835096,7.0,1.0,phase_2,stop,100.0,400.0,3.0,,,,,,,,,magenta,I
0.0,4.0,4.0,0.0,6.0,6.0,334.1275709681213,7.0,1.0,phase_2,go,50.0,400.0,1.0,,,,,,,,,gray,circle
0.0,6.0,2.0,1.0,6.0,6.0,532.7463800203986,7.0,1.0,phase_2,stop,50.0,400.0,3.0,,,,,,,,,green,hexagon
0.0,6.0,2.0,1.0,6.0,0.0,0.0,7.0,1.0,phase_2,stop,50.0,350.0,4.0,,,,,,,,,green,hexagon
0.0,2.0,2.0,0.0,6.0,6.0,557.3692559846677,7.0,1.0,phase_2,go,50.0,400.0,1.0,,,,,,,,,blue,cross
0.0,3.0,3.0,0.0,5.0,5.0,512.3670799657702,8.0,1.0,phase_2,go,50.0,400.0,1.0,,,,,,,,,white,square
0.0,5.0,1.0,1.0,5.0,0.0,0.0,8.0,1.0,phase_2,stop,50.0,400.0,4.0,,,,,,,,,yellow,flipped triangle
0.0,8.0,4.0,1.0,5.0,0.0,0.0,8.0,1.0,phase_2,stop,100.0,400.0,4.0,,,,,,,,,cyan,triangle
0.0,3.0,3.0,0.0,6.0,6.0,359.5100379898213,8.0,1.0,phase_2,go,150.0,400.0,1.0,,,,,,,,,white,square
0.0,3.0,3.0,0.0,5.0,5.0,597.7926780469716,8.0,1.0,phase_2,go,150.0,400.0,1.0,,,,,,,,,white,square
0.0,2.0,2.0,0.0,5.0,5.0,394.8236280120909,8.0,1.0,phase_2,go,150.0,400.0,1.0,,,,,,,,,blue,cross
0.0,4.0,4.0,0.0,6.0,6.0,326.4024080126546,8.0,1.0,phase_2,go,150.0,400.0,1.0,,,,,,,,,gray,circle
0.0,3.0,3.0,0.0,5.0,5.0,641.7475119815208,8.0,1.0,phase_2,go,150.0,400.0,1.0,,,,,,,,,white,square
0.0,3.0,3.0,0.0,6.0,6.0,324.2747189942747,8.0,1.0,phase_2,go,150.0,400.0,1.0,,,,,,,,,white,square
0.0,6.0,2.0,1.0,5.0,0.0,0.0,8.0,1.0,phase_2,stop,150.0,400.0,4.0,,,,,,,,,green,hexagon
0.0,2.0,2.0,0.0,5.0,5.0,584.5184469944797,8.0,1.0,phase_2,go,200.0,400.0,1.0,,,,,,,,,blue,cross
0.0,5.0,1.0,1.0,6.0,6.0,543.5545750078745,8.0,1.0,phase_2,go,200.0,400.0,1.0,,,,,,,,,yellow,flipped triangle
0.0,3.0,3.0,0.0,6.0,6.0,497.6376779959537,8.0,1.0,phase_2,go,200.0,400.0,1.0,,,,,,,,,white,square
0.0,6.0,2.0,1.0,5.0,0.0,0.0,8.0,1.0,phase_2,stop,200.0,400.0,4.0,,,,,,,,,green,hexagon
0.0,2.0,2.0,0.0,6.0,6.0,582.1769899921492,8.0,1.0,phase_2,go,250.0,400.0,1.0,,,,,,,,,blue,cross
0.0,2.0,2.0,0.0,6.0,6.0,312.8340510302223,8.0,1.0,phase_2,go,250.0,400.0,1.0,,,,,,,,,blue,cross
0.0,7.0,3.0,1.0,5.0,0.0,0.0,8.0,1.0,phase_2,stop,250.0,400.0,4.0,,,,,,,,,magenta,I
0.0,3.0,3.0,0.0,5.0,5.0,702.4852230097167,8.0,1.0,phase_2,go,300.0,400.0,1.0,,,,,,,,,white,square
0.0,1.0,1.0,0.0,5.0,5.0,420.5309239914641,8.0,1.0,phase_2,go,300.0,400.0,1.0,,,,,,,,,orange,diamond
0.0,8.0,4.0,1.0,5.0,5.0,293.0425489903427,8.0,1.0,phase_2,go,300.0,400.0,1.0,,,,,,,,,cyan,triangle
0.0,7.0,3.0,1.0,6.0,6.0,534.9241560325027,8.0,1.0,phase_2,stop,300.0,400.0,3.0,,,,,,,,,magenta,I
0.0,1.0,1.0,0.0,5.0,5.0,581.075165013317,8.0,1.0,phase_2,go,300.0,350.0,1.0,,,,,,,,,orange,diamond
0.0,4.0,4.0,0.0,5.0,5.0,557.611923024524,8.0,1.0,phase_2,go,300.0,350.0,1.0,,,,,,,,,gray,circle
0.0,7.0,3.0,1.0,5.0,0.0,0.0,8.0,1.0,phase_2,stop,300.0,350.0,4.0,,,,,,,,,magenta,I
0.0,4.0,4.0,0.0,5.0,5.0,562.4991439981386,8.0,1.0,phase_2,go,350.0,350.0,1.0,,,,,,,,,gray,circle
0.0,3.0,3.0,0.0,5.0,5.0,328.921245993115,8.0,1.0,phase_2,go,350.0,350.0,1.0,,,,,,,,,white,square
0.0,2.0,2.0,0.0,5.0,5.0,583.5327120148577,8.0,1.0,phase_2,go,350.0,350.0,1.0,,,,,,,,,blue,cross
0.0,1.0,1.0,0.0,5.0,5.0,350.7317280163988,8.0,1.0,phase_2,go,350.0,350.0,1.0,,,,,,,,,orange,diamond
0.0,7.0,3.0,1.0,6.0,6.0,766.5160780306906,8.0,1.0,phase_2,go,350.0,350.0,1.0,,,,,,,,,magenta,I
0.0,1.0,1.0,0.0,6.0,6.0,439.9520639562979,8.0,1.0,phase_2,go,350.0,350.0,1.0,,,,,,,,,orange,diamond
0.0,6.0,2.0,1.0,6.0,6.0,377.0740890176967,8.0,1.0,phase_2,stop,350.0,350.0,3.0,,,,,,,,,green,hexagon
0.0,4.0,4.0,0.0,5.0,5.0,476.8645649892278,8.0,1.0,phase_2,go,350.0,300.0,1.0,,,,,,,,,gray,circle
0.0,8.0,4.0,1.0,5.0,5.0,460.4822330293245,8.0,1.0,phase_2,stop,350.0,300.0,3.0,,,,,,,,,cyan,triangle
0.0,3.0,3.0,0.0,6.0,6.0,532.2851350065321,8.0,1.0,phase_2,go,300.0,300.0,1.0,,,,,,,,,white,square
0.0,1.0,1.0,0.0,6.0,6.0,527.2214209544472,8.0,1.0,phase_2,go,300.0,300.0,1.0,,,,,,,,,orange,diamond
0.0,1.0,1.0,0.0,5.0,5.0,693.9826139714569,8.0,1.0,phase_2,go,300.0,300.0,1.0,,,,,,,,,orange,diamond
0.0,6.0,2.0,1.0,7.0,5.0,3065.9468609956093,1.0,2.0,phase_3,,,,,220.0,5.0,176.0,88.0,44.0,132.0,220.0,264.0,green,hexagon
0.0,1.0,1.0,0.0,7.0,2.0,3396.451302978676,1.0,1.0,phase_3,,,,,132.0,3.0,88.0,132.0,44.0,264.0,176.0,220.0,orange,diamond
0.0,3.0,3.0,0.0,7.0,4.0,3430.59495696798,1.0,1.0,phase_3,,,,,204.0,6.0,34.0,170.0,68.0,204.0,136.0,102.0,white,square
0.0,2.0,2.0,0.0,7.0,1.0,1689.5678350119852,1.0,1.0,phase_3,,,,,294.0,6.0,294.0,49.0,98.0,196.0,245.0,147.0,blue,cross
0.0,7.0,3.0,1.0,7.0,5.0,3555.1555220154114,1.0,1.0,phase_3,,,,,294.0,6.0,49.0,245.0,196.0,98.0,294.0,147.0,magenta,I
0.0,1.0,1.0,0.0,7.0,6.0,2668.695436033886,1.0,1.0,phase_3,,,,,270.0,5.0,162.0,108.0,324.0,216.0,54.0,270.0,orange,diamond
0.0,5.0,1.0,1.0,7.0,2.0,3493.3472890406847,1.0,1.0,phase_3,,,,,68.0,2.0,170.0,68.0,136.0,34.0,102.0,204.0,yellow,flipped triangle
0.0,3.0,3.0,0.0,7.0,2.0,2317.0994900283404,1.0,1.0,phase_3,,,,,264.0,6.0,220.0,264.0,176.0,44.0,132.0,88.0,white,square
0.0,4.0,4.0,0.0,7.0,6.0,1957.602673035581,1.0,1.0,phase_3,,,,,270.0,5.0,324.0,162.0,108.0,54.0,216.0,270.0,gray,circle
0.0,5.0,1.0,1.0,7.0,1.0,2513.401727017481,1.0,1.0,phase_3,,,,,49.0,1.0,49.0,147.0,245.0,98.0,294.0,196.0,yellow,flipped triangle
0.0,4.0,4.0,0.0,7.0,1.0,2553.7458320031874,1.0,1.0,phase_3,,,,,204.0,6.0,204.0,170.0,34.0,136.0,68.0,102.0,gray,circle
0.0,3.0,3.0,0.0,7.0,1.0,2561.695429030806,1.0,1.0,phase_3,,,,,270.0,5.0,270.0,54.0,162.0,108.0,324.0,216.0,white,square
0.0,3.0,3.0,0.0,7.0,4.0,2029.9583449959755,1.0,1.0,phase_3,,,,,220.0,5.0,44.0,88.0,176.0,220.0,264.0,132.0,white,square
0.0,7.0,3.0,1.0,7.0,1.0,1671.409083995968,1.0,1.0,phase_3,,,,,34.0,1.0,34.0,204.0,136.0,170.0,68.0,102.0,magenta,I
0.0,2.0,2.0,0.0,7.0,6.0,1684.8774999962188,1.0,1.0,phase_3,,,,,136.0,4.0,170.0,204.0,102.0,68.0,34.0,136.0,blue,cross
0.0,5.0,1.0,1.0,7.0,3.0,1855.3032500203697,1.0,1.0,phase_3,,,,,117.0,3.0,156.0,39.0,117.0,234.0,195.0,78.0,yellow,flipped triangle
0.0,3.0,3.0,0.0,7.0,4.0,2929.4649150106125,1.0,1.0,phase_3,,,,,234.0,6.0,78.0,117.0,195.0,234.0,156.0,39.0,white,square
0.0,2.0,2.0,0.0,7.0,4.0,1564.1639049863445,1.0,1.0,phase_3,,,,,234.0,6.0,195.0,156.0,117.0,234.0,78.0,39.0,blue,cross
0.0,1.0,1.0,0.0,7.0,3.0,2396.504109026864,1.0,1.0,phase_3,,,,,220.0,5.0,44.0,132.0,220.0,176.0,264.0,88.0,orange,diamond
0.0,6.0,2.0,1.0,7.0,5.0,1703.0209339573048,1.0,1.0,phase_3,,,,,117.0,3.0,39.0,78.0,234.0,195.0,117.0,156.0,green,hexagon
0.0,1.0,1.0,0.0,7.0,1.0,938.6234779958612,2.0,1.0,phase_3,,,,,204.0,6.0,204.0,68.0,102.0,34.0,170.0,136.0,orange,diamond
0.0,8.0,4.0,1.0,7.0,2.0,2811.131578986533,2.0,1.0,phase_3,,,,,234.0,6.0,78.0,234.0,117.0,156.0,39.0,195.0,cyan,triangle
0.0,8.0,4.0,1.0,7.0,3.0,2757.317055016756,2.0,1.0,phase_3,,,,,49.0,1.0,98.0,196.0,49.0,294.0,147.0,245.0,cyan,triangle
0.0,4.0,4.0,0.0,7.0,1.0,1535.5880130082369,2.0,1.0,phase_3,,,,,78.0,2.0,78.0,156.0,195.0,117.0,234.0,39.0,gray,circle
0.0,6.0,2.0,1.0,7.0,2.0,2105.4709129966795,2.0,1.0,phase_3,,,,,147.0,3.0,196.0,147.0,245.0,294.0,98.0,49.0,green,hexagon
0.0,6.0,2.0,1.0,7.0,5.0,1994.474089995492,2.0,1.0,phase_3,,,,,44.0,1.0,88.0,220.0,264.0,176.0,44.0,132.0,green,hexagon
0.0,3.0,3.0,0.0,7.0,5.0,1913.3634549798444,2.0,1.0,phase_3,,,,,294.0,6.0,245.0,196.0,147.0,49.0,294.0,98.0,white,square
0.0,3.0,3.0,0.0,7.0,1.0,1155.312518007122,2.0,1.0,phase_3,,,,,68.0,2.0,68.0,204.0,170.0,136.0,102.0,34.0,white,square
0.0,7.0,3.0,1.0,7.0,6.0,735.1985370041803,2.0,1.0,phase_3,,,,,264.0,6.0,88.0,44.0,132.0,220.0,176.0,264.0,magenta,I
0.0,4.0,4.0,0.0,7.0,5.0,0.2014830242842,2.0,1.0,phase_3,,,,,102.0,3.0,136.0,204.0,68.0,34.0,102.0,170.0,gray,circle
0.0,8.0,4.0,1.0,7.0,5.0,0.2051640185527,2.0,1.0,phase_3,,,,,88.0,2.0,44.0,132.0,176.0,220.0,88.0,264.0,cyan,triangle
0.0,8.0,4.0,1.0,7.0,5.0,0.1932200393639,2.0,1.0,phase_3,,,,,220.0,5.0,132.0,264.0,176.0,44.0,220.0,88.0,cyan,triangle
0.0,4.0,4.0,0.0,7.0,5.0,0.24300697259600001,2.0,1.0,phase_3,,,,,132.0,3.0,220.0,176.0,88.0,264.0,132.0,44.0,gray,circle
0.0,3.0,3.0,0.0,7.0,3.0,765.0948679656722,2.0,1.0,phase_3,,,,,294.0,6.0,98.0,245.0,294.0,49.0,147.0,196.0,white,square
0.0,1.0,1.0,0.0,7.0,1.0,342.7494090283289,2.0,1.0,phase_3,,,,,98.0,2.0,98.0,245.0,294.0,196.0,49.0,147.0,orange,diamond
0.0,6.0,2.0,1.0,7.0,3.0,1632.868008047808,2.0,1.0,phase_3,,,,,324.0,6.0,54.0,162.0,324.0,270.0,108.0,216.0,green,hexagon
0.0,1.0,1.0,0.0,7.0,5.0,1026.3488449854776,2.0,1.0,phase_3,,,,,78.0,2.0,195.0,39.0,117.0,156.0,78.0,234.0,orange,diamond
0.0,5.0,1.0,1.0,7.0,4.0,1127.960145007819,2.0,1.0,phase_3,,,,,176.0,4.0,220.0,264.0,44.0,176.0,88.0,132.0,yellow,flipped triangle
0.0,6.0,2.0,1.0,7.0,5.0,1089.5605689729564,2.0,1.0,phase_3,,,,,39.0,1.0,156.0,78.0,234.0,195.0,39.0,117.0,green,hexagon
0.0,2.0,2.0,0.0,7.0,4.0,563.0531620117836,2.0,1.0,phase_3,,,,,245.0,5.0,49.0,294.0,196.0,245.0,147.0,98.0,blue,cross
0.0,8.0,4.0,1.0,7.0,3.0,1368.604548973963,3.0,1.0,phase_3,,,,,54.0,1.0,324.0,216.0,54.0,270.0,108.0,162.0,cyan,triangle
0.0,7.0,3.0,1.0,7.0,5.0,971.4154860121198,3.0,1.0,phase_3,,,,,49.0,1.0,147.0,196.0,245.0,294.0,49.0,98.0,magenta,I
0.0,8.0,4.0,1.0,7.0,6.0,1576.8422989640385,3.0,1.0,phase_3,,,,,39.0,1.0,195.0,156.0,78.0,234.0,117.0,39.0,cyan,triangle
0.0,2.0,2.0,0.0,7.0,2.0,1141.7935310164469,3.0,1.0,phase_3,,,,,88.0,2.0,44.0,88.0,220.0,264.0,176.0,132.0,blue,cross
0.0,6.0,2.0,1.0,7.0,5.0,1143.3428590535186,3.0,1.0,phase_3,,,,,49.0,1.0,294.0,245.0,147.0,196.0,49.0,98.0,green,hexagon
0.0,5.0,1.0,1.0,7.0,2.0,1180.441293050535,3.0,1.0,phase_3,,,,,44.0,1.0,220.0,44.0,88.0,132.0,264.0,176.0,yellow,flipped triangle
0.0,7.0,3.0,1.0,7.0,3.0,1569.4250999949872,3.0,1.0,phase_3,,,,,204.0,6.0,170.0,34.0,204.0,68.0,102.0,136.0,magenta,I
0.0,5.0,1.0,1.0,7.0,6.0,1042.57609002525,3.0,1.0,phase_3,,,,,102.0,3.0,136.0,34.0,170.0,68.0,204.0,102.0,yellow,flipped triangle
0.0,6.0,2.0,1.0,7.0,1.0,0.1895710011012,3.0,1.0,phase_3,,,,,204.0,6.0,204.0,102.0,170.0,136.0,34.0,68.0,green,hexagon
0.0,1.0,1.0,0.0,7.0,4.0,948.718748986721,3.0,1.0,phase_3,,,,,49.0,1.0,196.0,147.0,98.0,49.0,294.0,245.0,orange,diamond
0.0,1.0,1.0,0.0,7.0,2.0,534.7377699799836,3.0,1.0,phase_3,,,,,162.0,3.0,216.0,162.0,54.0,324.0,270.0,108.0,orange,diamond
0.0,3.0,3.0,0.0,7.0,5.0,668.703010014724,3.0,1.0,phase_3,,,,,117.0,3.0,78.0,39.0,156.0,234.0,117.0,195.0,white,square
0.0,1.0,1.0,0.0,7.0,6.0,750.6499079754576,3.0,1.0,phase_3,,,,,78.0,2.0,156.0,117.0,195.0,39.0,234.0,78.0,orange,diamond
0.0,7.0,3.0,1.0,7.0,1.0,503.5685690236278,3.0,1.0,phase_3,,,,,54.0,1.0,54.0,162.0,216.0,324.0,108.0,270.0,magenta,I
0.0,4.0,4.0,0.0,7.0,2.0,737.7113010152243,3.0,1.0,phase_3,,,,,156.0,4.0,39.0,156.0,195.0,234.0,78.0,117.0,gray,circle
0.0,8.0,4.0,1.0,7.0,5.0,684.5022380002774,3.0,1.0,phase_3,,,,,68.0,2.0,170.0,102.0,204.0,136.0,68.0,34.0,cyan,triangle
0.0,2.0,2.0,0.0,7.0,2.0,991.6061109979636,3.0,1.0,phase_3,,,,,216.0,4.0,270.0,216.0,54.0,324.0,162.0,108.0,blue,cross
0.0,7.0,3.0,1.0,7.0,1.0,1175.8477310067974,3.0,1.0,phase_3,,,,,39.0,1.0,39.0,78.0,234.0,195.0,117.0,156.0,magenta,I
0.0,4.0,4.0,0.0,7.0,4.0,824.7377689694986,3.0,1.0,phase_3,,,,,176.0,4.0,44.0,264.0,88.0,176.0,220.0,132.0,gray,circle
0.0,8.0,4.0,1.0,7.0,2.0,521.9496510108002,3.0,1.0,phase_3,,,,,162.0,3.0,54.0,162.0,216.0,108.0,270.0,324.0,cyan,triangle
0.0,2.0,2.0,0.0,7.0,4.0,1248.1695979950018,4.0,1.0,phase_3,,,,,216.0,4.0,54.0,162.0,270.0,216.0,324.0,108.0,blue,cross
0.0,7.0,3.0,1.0,7.0,6.0,690.5058390111662,4.0,1.0,phase_3,,,,,132.0,3.0,88.0,264.0,176.0,44.0,220.0,132.0,magenta,I
0.0,7.0,3.0,1.0,7.0,1.0,890.4501969809644,4.0,1.0,phase_3,,,,,117.0,3.0,117.0,195.0,39.0,156.0,234.0,78.0,magenta,I
0.0,4.0,4.0,0.0,7.0,5.0,0.1761310268193,4.0,1.0,phase_3,,,,,49.0,1.0,294.0,98.0,196.0,147.0,49.0,245.0,gray,circle
0.0,4.0,4.0,0.0,7.0,2.0,1252.4674120359125,4.0,1.0,phase_3,,,,,245.0,5.0,49.0,245.0,147.0,196.0,98.0,294.0,gray,circle
0.0,5.0,1.0,1.0,7.0,2.0,331.5231970045715,4.0,1.0,phase_3,,,,,117.0,3.0,156.0,117.0,78.0,234.0,195.0,39.0,yellow,flipped triangle
0.0,2.0,2.0,0.0,7.0,5.0,925.934610015247,4.0,1.0,phase_3,,,,,220.0,5.0,176.0,264.0,88.0,44.0,220.0,132.0,blue,cross
0.0,2.0,2.0,0.0,7.0,1.0,1295.378364971839,4.0,1.0,phase_3,,,,,68.0,2.0,68.0,34.0,204.0,170.0,102.0,136.0,blue,cross
0.0,1.0,1.0,0.0,7.0,6.0,1039.845746010542,4.0,1.0,phase_3,,,,,68.0,2.0,102.0,204.0,136.0,34.0,170.0,68.0,orange,diamond
0.0,7.0,3.0,1.0,7.0,4.0,497.4351800046861,4.0,1.0,phase_3,,,,,216.0,4.0,108.0,162.0,270.0,216.0,54.0,324.0,magenta,I
0.0,8.0,4.0,1.0,7.0,5.0,195.7676300080493,4.0,1.0,phase_3,,,,,98.0,2.0,49.0,196.0,294.0,245.0,98.0,147.0,cyan,triangle
0.0,8.0,4.0,1.0,7.0,2.0,1454.3908900232054,4.0,1.0,phase_3,,,,,68.0,2.0,102.0,68.0,204.0,34.0,170.0,136.0,cyan,triangle
0.0,5.0,1.0,1.0,7.0,5.0,521.1054389947094,4.0,1.0,phase_3,,,,,147.0,3.0,294.0,49.0,98.0,196.0,147.0,245.0,yellow,flipped triangle
0.0,4.0,4.0,0.0,7.0,1.0,1142.424380988814,4.0,1.0,phase_3,,,,,270.0,5.0,270.0,54.0,324.0,162.0,216.0,108.0,gray,circle
0.0,3.0,3.0,0.0,7.0,3.0,1121.2751370039769,4.0,1.0,phase_3,,,,,54.0,1.0,108.0,324.0,54.0,216.0,162.0,270.0,white,square
0.0,6.0,2.0,1.0,7.0,6.0,965.431323973462,4.0,1.0,phase_3,,,,,108.0,2.0,162.0,270.0,54.0,216.0,324.0,108.0,green,hexagon
0.0,6.0,2.0,1.0,7.0,2.0,805.6725959759206,4.0,1.0,phase_3,,,,,204.0,6.0,102.0,204.0,136.0,170.0,68.0,34.0,green,hexagon
0.0,5.0,1.0,1.0,7.0,1.0,941.0390700213612,4.0,1.0,phase_3,,,,,216.0,4.0,216.0,162.0,324.0,108.0,54.0,270.0,yellow,flipped triangle
0.0,2.0,2.0,0.0,7.0,4.0,702.6951479492709,4.0,1.0,phase_3,,,,,117.0,3.0,156.0,78.0,39.0,117.0,234.0,195.0,blue,cross
0.0,5.0,1.0,1.0,7.0,2.0,647.1233299816959,4.0,1.0,phase_3,,,,,270.0,5.0,54.0,270.0,162.0,108.0,324.0,216.0,yellow,flipped triangle
