raw_reward_magnitude,stim_reward,stepwise_reward_magnitude,paired_with_stopping,stim_location,response,reaction_time,block,num_trial_presentations,which_phase,stop_signal_trial_type,left_SSD,right_SSD,accuracy,chosen_bidding_amount,chosen_bidding_level,possible_bid_1,possible_bid_2,possible_bid_3,possible_bid_4,possible_bid_5,possible_bid_6,color_text,shape_text
405.0,8.0,4.0,1.0,4.0,4.0,336.6937329992652,1.0,1.0,phase_1,,,,,,,,,,,,,blue,circle
42.0,1.0,0.5,0.0,4.0,4.0,273.5875430516898,1.0,1.0,phase_1,,,,,,,,,,,,,yellow,triangle
48.0,1.0,0.5,0.0,2.0,2.0,220.5507460748776,1.0,1.0,phase_1,,,,,,,,,,,,,yellow,triangle
77.0,6.0,1.0,1.0,3.0,3.0,270.0999489752576,1.0,1.0,phase_1,,,,,,,,,,,,,orange,I
43.0,5.0,0.5,1.0,4.0,4.0,254.3078589951619,1.0,1.0,phase_1,,,,,,,,,,,,,white,square
104.0,6.0,1.0,1.0,2.0,2.0,249.482219107449,1.0,1.0,phase_1,,,,,,,,,,,,,orange,I
0.0,3.0,0.0,0.0,1.0,1.0,261.8122439598664,1.0,1.0,phase_1,,,,,,,,,,,,,cyan,cross
401.0,8.0,4.0,1.0,4.0,4.0,273.2859200332314,1.0,1.0,phase_1,,,,,,,,,,,,,blue,circle
214.0,3.0,2.0,0.0,3.0,3.0,229.8293210333213,1.0,1.0,phase_1,,,,,,,,,,,,,cyan,cross
96.0,6.0,1.0,1.0,1.0,1.0,229.5903200283646,1.0,1.0,phase_1,,,,,,,,,,,,,orange,I
70.0,5.0,0.5,1.0,4.0,4.0,231.9375029765069,1.0,1.0,phase_1,,,,,,,,,,,,,white,square
93.0,2.0,1.0,0.0,2.0,2.0,270.8877989789471,1.0,1.0,phase_1,,,,,,,,,,,,,gray,flipped triangle
0.0,8.0,0.0,1.0,2.0,2.0,258.2108139758929,1.0,1.0,phase_1,,,,,,,,,,,,,blue,circle
198.0,7.0,2.0,1.0,3.0,3.0,221.1714960867539,1.0,1.0,phase_1,,,,,,,,,,,,,magenta,hexagon
412.0,8.0,4.0,1.0,3.0,3.0,290.4183240607381,1.0,1.0,phase_1,,,,,,,,,,,,,blue,circle
418.0,4.0,4.0,0.0,1.0,1.0,270.4573799856007,1.0,1.0,phase_1,,,,,,,,,,,,,green,diamond
48.0,5.0,0.5,1.0,1.0,1.0,285.9372970415279,1.0,1.0,phase_1,,,,,,,,,,,,,white,square
75.0,5.0,0.5,1.0,2.0,2.0,258.4612679202109,1.0,1.0,phase_1,,,,,,,,,,,,,white,square
396.0,8.0,4.0,1.0,2.0,2.0,294.3141240393743,1.0,1.0,phase_1,,,,,,,,,,,,,blue,circle
78.0,2.0,1.0,0.0,2.0,2.0,275.7375339278951,1.0,1.0,phase_1,,,,,,,,,,,,,gray,flipped triangle
118.0,6.0,1.0,1.0,4.0,4.0,246.2992399232462,1.0,1.0,phase_1,,,,,,,,,,,,,orange,I
83.0,2.0,1.0,0.0,1.0,1.0,253.6963700549677,1.0,1.0,phase_1,,,,,,,,,,,,,gray,flipped triangle
182.0,7.0,2.0,1.0,4.0,4.0,467.0606300933286,1.0,1.0,phase_1,,,,,,,,,,,,,magenta,hexagon
177.0,3.0,2.0,0.0,1.0,1.0,237.8514900337904,1.0,1.0,phase_1,,,,,,,,,,,,,cyan,cross
0.0,1.0,0.0,0.0,1.0,1.0,306.2030300498009,1.0,1.0,phase_1,,,,,,,,,,,,,yellow,triangle
39.0,5.0,0.5,1.0,4.0,4.0,233.4371070610359,1.0,1.0,phase_1,,,,,,,,,,,,,white,square
73.0,1.0,0.5,0.0,3.0,3.0,286.9689759099856,1.0,2.0,phase_1,,,,,,,,,,,,,yellow,triangle
415.0,4.0,4.0,0.0,1.0,1.0,262.4269310617819,1.0,1.0,phase_1,,,,,,,,,,,,,green,diamond
415.0,8.0,4.0,1.0,4.0,4.0,264.0001140534878,1.0,1.0,phase_1,,,,,,,,,,,,,blue,circle
376.0,8.0,4.0,1.0,2.0,2.0,236.6821200121194,1.0,1.0,phase_1,,,,,,,,,,,,,blue,circle
32.0,5.0,0.5,1.0,4.0,4.0,227.8487839503213,1.0,1.0,phase_1,,,,,,,,,,,,,white,square
414.0,4.0,4.0,0.0,3.0,3.0,277.9365410096943,1.0,1.0,phase_1,,,,,,,,,,,,,green,diamond
75.0,1.0,0.5,0.0,4.0,4.0,294.4238219643011,1.0,1.0,phase_1,,,,,,,,,,,,,yellow,triangle
66.0,5.0,0.5,1.0,2.0,2.0,265.083436970599,1.0,1.0,phase_1,,,,,,,,,,,,,white,square
35.0,5.0,0.5,1.0,2.0,2.0,245.0586120830848,1.0,1.0,phase_1,,,,,,,,,,,,,white,square
65.0,5.0,0.5,1.0,1.0,1.0,442.8778620203957,1.0,1.0,phase_1,,,,,,,,,,,,,white,square
208.0,3.0,2.0,0.0,2.0,2.0,272.0372630283236,1.0,1.0,phase_1,,,,,,,,,,,,,cyan,cross
119.0,2.0,1.0,0.0,4.0,4.0,236.4883900154382,1.0,1.0,phase_1,,,,,,,,,,,,,gray,flipped triangle
221.0,7.0,2.0,1.0,3.0,3.0,233.1260030623525,1.0,1.0,phase_1,,,,,,,,,,,,,magenta,hexagon
106.0,6.0,1.0,1.0,2.0,2.0,269.4797540316358,1.0,1.0,phase_1,,,,,,,,,,,,,orange,I
51.0,5.0,0.5,1.0,1.0,1.0,285.5876369867474,1.0,2.0,phase_1,,,,,,,,,,,,,white,square
117.0,6.0,1.0,1.0,4.0,4.0,285.3490280685946,1.0,1.0,phase_1,,,,,,,,,,,,,orange,I
0.0,7.0,0.0,1.0,1.0,1.0,266.2148680537939,1.0,1.0,phase_1,,,,,,,,,,,,,magenta,hexagon
380.0,8.0,4.0,1.0,1.0,1.0,270.891897031106,1.0,1.0,phase_1,,,,,,,,,,,,,blue,circle
204.0,3.0,2.0,0.0,3.0,3.0,281.6436560824513,1.0,1.0,phase_1,,,,,,,,,,,,,cyan,cross
0.0,6.0,0.0,1.0,2.0,2.0,287.2642290312797,1.0,1.0,phase_1,,,,,,,,,,,,,orange,I
0.0,5.0,0.0,1.0,4.0,4.0,265.6413030344993,1.0,1.0,phase_1,,,,,,,,,,,,,white,square
0.0,1.0,0.0,0.0,1.0,1.0,287.2420210624113,1.0,1.0,phase_1,,,,,,,,,,,,,yellow,triangle
394.0,4.0,4.0,0.0,3.0,3.0,282.8476129798218,1.0,1.0,phase_1,,,,,,,,,,,,,green,diamond
213.0,7.0,2.0,1.0,3.0,3.0,351.8709379713982,1.0,1.0,phase_1,,,,,,,,,,,,,magenta,hexagon
73.0,1.0,0.5,0.0,4.0,4.0,295.6208060495555,1.0,1.0,phase_1,,,,,,,,,,,,,yellow,triangle
103.0,6.0,1.0,1.0,4.0,4.0,289.8803609423339,1.0,1.0,phase_1,,,,,,,,,,,,,orange,I
186.0,3.0,2.0,0.0,3.0,3.0,273.1631069909781,1.0,1.0,phase_1,,,,,,,,,,,,,cyan,cross
412.0,4.0,4.0,0.0,4.0,4.0,282.8050659736618,1.0,1.0,phase_1,,,,,,,,,,,,,green,diamond
0.0,7.0,0.0,1.0,3.0,3.0,294.2387399962172,1.0,1.0,phase_1,,,,,,,,,,,,,magenta,hexagon
219.0,3.0,2.0,0.0,4.0,4.0,275.9225650224834,1.0,1.0,phase_1,,,,,,,,,,,,,cyan,cross
110.0,2.0,1.0,0.0,3.0,3.0,298.2208210742101,1.0,1.0,phase_1,,,,,,,,,,,,,gray,flipped triangle
104.0,2.0,1.0,0.0,3.0,3.0,310.280486010015,1.0,1.0,phase_1,,,,,,,,,,,,,gray,flipped triangle
0.0,1.0,0.0,0.0,1.0,1.0,338.6798540595919,1.0,1.0,phase_1,,,,,,,,,,,,,yellow,triangle
80.0,2.0,1.0,0.0,2.0,2.0,317.9750150302425,1.0,1.0,phase_1,,,,,,,,,,,,,gray,flipped triangle
223.0,7.0,2.0,1.0,3.0,3.0,298.5129719600081,1.0,1.0,phase_1,,,,,,,,,,,,,magenta,hexagon
105.0,2.0,1.0,0.0,4.0,4.0,298.1592540163547,1.0,1.0,phase_1,,,,,,,,,,,,,gray,flipped triangle
400.0,8.0,4.0,1.0,3.0,3.0,287.8034360473975,1.0,1.0,phase_1,,,,,,,,,,,,,blue,circle
33.0,1.0,0.5,0.0,1.0,1.0,225.4706170642748,1.0,1.0,phase_1,,,,,,,,,,,,,yellow,triangle
187.0,3.0,2.0,0.0,1.0,1.0,278.1958330888301,1.0,1.0,phase_1,,,,,,,,,,,,,cyan,cross
394.0,8.0,4.0,1.0,3.0,3.0,290.3983939904719,1.0,1.0,phase_1,,,,,,,,,,,,,blue,circle
385.0,8.0,4.0,1.0,1.0,1.0,271.8681440455839,1.0,1.0,phase_1,,,,,,,,,,,,,blue,circle
383.0,8.0,4.0,1.0,3.0,3.0,405.6856220122427,1.0,1.0,phase_1,,,,,,,,,,,,,blue,circle
180.0,3.0,2.0,0.0,2.0,2.0,299.692298984155,1.0,1.0,phase_1,,,,,,,,,,,,,cyan,cross
123.0,6.0,1.0,1.0,3.0,3.0,270.7514419453218,1.0,1.0,phase_1,,,,,,,,,,,,,orange,I
421.0,8.0,4.0,1.0,2.0,2.0,315.7986250007525,1.0,1.0,phase_1,,,,,,,,,,,,,blue,circle
210.0,3.0,2.0,0.0,1.0,1.0,304.2667950503528,1.0,1.0,phase_1,,,,,,,,,,,,,cyan,cross
383.0,4.0,4.0,0.0,2.0,2.0,355.7941840263083,1.0,1.0,phase_1,,,,,,,,,,,,,green,diamond
401.0,8.0,4.0,1.0,4.0,4.0,250.8927959715947,1.0,1.0,phase_1,,,,,,,,,,,,,blue,circle
210.0,3.0,2.0,0.0,1.0,1.0,294.8306980542838,1.0,1.0,phase_1,,,,,,,,,,,,,cyan,cross
47.0,5.0,0.5,1.0,3.0,3.0,298.6335708992556,1.0,1.0,phase_1,,,,,,,,,,,,,white,square
107.0,6.0,1.0,1.0,2.0,2.0,286.1828469904139,1.0,1.0,phase_1,,,,,,,,,,,,,orange,I
221.0,3.0,2.0,0.0,4.0,4.0,229.1268709814176,1.0,1.0,phase_1,,,,,,,,,,,,,cyan,cross
33.0,5.0,0.5,1.0,3.0,3.0,265.3351309709251,1.0,1.0,phase_1,,,,,,,,,,,,,white,square
33.0,5.0,0.5,1.0,4.0,4.0,269.2092939978465,1.0,1.0,phase_1,,,,,,,,,,,,,white,square
97.0,6.0,1.0,1.0,4.0,4.0,274.2372039938345,1.0,1.0,phase_1,,,,,,,,,,,,,orange,I
404.0,8.0,4.0,1.0,1.0,1.0,293.799247010611,1.0,1.0,phase_1,,,,,,,,,,,,,blue,circle
195.0,3.0,2.0,0.0,4.0,4.0,274.0283670136705,1.0,1.0,phase_1,,,,,,,,,,,,,cyan,cross
400.0,4.0,4.0,0.0,4.0,4.0,257.721696048975,1.0,1.0,phase_1,,,,,,,,,,,,,green,diamond
184.0,3.0,2.0,0.0,2.0,2.0,262.3254311038181,1.0,1.0,phase_1,,,,,,,,,,,,,cyan,cross
113.0,2.0,1.0,0.0,1.0,1.0,264.4071740796789,1.0,1.0,phase_1,,,,,,,,,,,,,gray,flipped triangle
0.0,3.0,0.0,0.0,1.0,1.0,469.0935510443523,1.0,1.0,phase_1,,,,,,,,,,,,,cyan,cross
415.0,4.0,4.0,0.0,3.0,3.0,257.5589109910652,1.0,1.0,phase_1,,,,,,,,,,,,,green,diamond
82.0,6.0,1.0,1.0,2.0,2.0,253.64940101280808,1.0,1.0,phase_1,,,,,,,,,,,,,orange,I
193.0,3.0,2.0,0.0,4.0,4.0,245.8597519434988,1.0,1.0,phase_1,,,,,,,,,,,,,cyan,cross
0.0,7.0,0.0,1.0,4.0,4.0,266.5303759276867,1.0,1.0,phase_1,,,,,,,,,,,,,magenta,hexagon
112.0,2.0,1.0,0.0,1.0,1.0,290.9449769649654,1.0,2.0,phase_1,,,,,,,,,,,,,gray,flipped triangle
202.0,7.0,2.0,1.0,3.0,3.0,249.4285930879414,1.0,1.0,phase_1,,,,,,,,,,,,,magenta,hexagon
210.0,7.0,2.0,1.0,4.0,4.0,283.6772809969261,1.0,1.0,phase_1,,,,,,,,,,,,,magenta,hexagon
44.0,1.0,0.5,0.0,2.0,2.0,262.3004419729113,1.0,1.0,phase_1,,,,,,,,,,,,,yellow,triangle
32.0,1.0,0.5,0.0,4.0,4.0,269.4032459985465,1.0,1.0,phase_1,,,,,,,,,,,,,yellow,triangle
51.0,1.0,0.5,0.0,2.0,2.0,335.6043429812416,1.0,1.0,phase_1,,,,,,,,,,,,,yellow,triangle
408.0,4.0,4.0,0.0,3.0,3.0,248.8230030285194,1.0,1.0,phase_1,,,,,,,,,,,,,green,diamond
99.0,2.0,1.0,0.0,2.0,2.0,266.3045950466767,1.0,1.0,phase_1,,,,,,,,,,,,,gray,flipped triangle
213.0,3.0,2.0,0.0,1.0,1.0,336.1409809440374,1.0,1.0,phase_1,,,,,,,,,,,,,cyan,cross
82.0,6.0,1.0,1.0,4.0,4.0,293.871063971892,2.0,1.0,phase_1,,,,,,,,,,,,,orange,I
0.0,3.0,0.0,0.0,1.0,1.0,273.4098279615864,2.0,1.0,phase_1,,,,,,,,,,,,,cyan,cross
218.0,3.0,2.0,0.0,2.0,2.0,288.5902100242674,2.0,1.0,phase_1,,,,,,,,,,,,,cyan,cross
0.0,7.0,0.0,1.0,1.0,1.0,307.6300279935822,2.0,1.0,phase_1,,,,,,,,,,,,,magenta,hexagon
412.0,8.0,4.0,1.0,2.0,2.0,257.4580269865691,2.0,1.0,phase_1,,,,,,,,,,,,,blue,circle
39.0,5.0,0.5,1.0,3.0,3.0,326.1487600393593,2.0,1.0,phase_1,,,,,,,,,,,,,white,square
193.0,7.0,2.0,1.0,4.0,4.0,266.4634590037167,2.0,1.0,phase_1,,,,,,,,,,,,,magenta,hexagon
393.0,8.0,4.0,1.0,3.0,3.0,297.722894931212,2.0,1.0,phase_1,,,,,,,,,,,,,blue,circle
72.0,5.0,0.5,1.0,3.0,3.0,293.5175619786605,2.0,1.0,phase_1,,,,,,,,,,,,,white,square
105.0,6.0,1.0,1.0,3.0,3.0,294.8171279858798,2.0,1.0,phase_1,,,,,,,,,,,,,orange,I
214.0,7.0,2.0,1.0,1.0,1.0,245.5618490930646,2.0,1.0,phase_1,,,,,,,,,,,,,magenta,hexagon
177.0,7.0,2.0,1.0,2.0,2.0,258.0901450710371,2.0,1.0,phase_1,,,,,,,,,,,,,magenta,hexagon
96.0,2.0,1.0,0.0,4.0,4.0,237.5672849593684,2.0,1.0,phase_1,,,,,,,,,,,,,gray,flipped triangle
42.0,5.0,0.5,1.0,2.0,2.0,282.2164089884609,2.0,1.0,phase_1,,,,,,,,,,,,,white,square
181.0,7.0,2.0,1.0,2.0,2.0,273.142495076172,2.0,1.0,phase_1,,,,,,,,,,,,,magenta,hexagon
391.0,8.0,4.0,1.0,1.0,1.0,322.8881059912964,2.0,1.0,phase_1,,,,,,,,,,,,,blue,circle
408.0,8.0,4.0,1.0,2.0,2.0,306.6582439932972,2.0,1.0,phase_1,,,,,,,,,,,,,blue,circle
177.0,3.0,2.0,0.0,3.0,3.0,295.2393799787387,2.0,1.0,phase_1,,,,,,,,,,,,,cyan,cross
123.0,2.0,1.0,0.0,4.0,4.0,307.2555169928819,2.0,1.0,phase_1,,,,,,,,,,,,,gray,flipped triangle
125.0,2.0,1.0,0.0,3.0,3.0,321.4736690279096,2.0,1.0,phase_1,,,,,,,,,,,,,gray,flipped triangle
392.0,4.0,4.0,0.0,3.0,3.0,309.0435150079429,2.0,1.0,phase_1,,,,,,,,,,,,,green,diamond
43.0,1.0,0.5,0.0,4.0,4.0,272.3048420157283,2.0,1.0,phase_1,,,,,,,,,,,,,yellow,triangle
204.0,3.0,2.0,0.0,2.0,2.0,259.646053891629,2.0,1.0,phase_1,,,,,,,,,,,,,cyan,cross
82.0,2.0,1.0,0.0,2.0,2.0,289.2677040072158,2.0,1.0,phase_1,,,,,,,,,,,,,gray,flipped triangle
0.0,1.0,0.0,0.0,3.0,3.0,301.8876230344176,2.0,1.0,phase_1,,,,,,,,,,,,,yellow,triangle
78.0,6.0,1.0,1.0,3.0,3.0,438.020511996001,2.0,1.0,phase_1,,,,,,,,,,,,,orange,I
176.0,7.0,2.0,1.0,1.0,1.0,375.1136140199378,2.0,1.0,phase_1,,,,,,,,,,,,,magenta,hexagon
0.0,4.0,0.0,0.0,3.0,3.0,308.8656390318647,2.0,1.0,phase_1,,,,,,,,,,,,,green,diamond
49.0,1.0,0.5,0.0,3.0,3.0,282.3212330695241,2.0,1.0,phase_1,,,,,,,,,,,,,yellow,triangle
57.0,1.0,0.5,0.0,2.0,2.0,295.906218001619,2.0,1.0,phase_1,,,,,,,,,,,,,yellow,triangle
42.0,1.0,0.5,0.0,1.0,1.0,356.8922110134735,2.0,1.0,phase_1,,,,,,,,,,,,,yellow,triangle
219.0,7.0,2.0,1.0,4.0,4.0,278.0007920227945,2.0,1.0,phase_1,,,,,,,,,,,,,magenta,hexagon
57.0,5.0,0.5,1.0,3.0,3.0,282.9300230368972,2.0,1.0,phase_1,,,,,,,,,,,,,white,square
0.0,4.0,0.0,0.0,2.0,2.0,234.1741680866107,2.0,1.0,phase_1,,,,,,,,,,,,,green,diamond
385.0,4.0,4.0,0.0,4.0,4.0,248.23907495010639,2.0,1.0,phase_1,,,,,,,,,,,,,green,diamond
208.0,7.0,2.0,1.0,3.0,3.0,265.6041049631312,2.0,1.0,phase_1,,,,,,,,,,,,,magenta,hexagon
186.0,7.0,2.0,1.0,4.0,4.0,287.4331900384277,2.0,1.0,phase_1,,,,,,,,,,,,,magenta,hexagon
78.0,6.0,1.0,1.0,1.0,1.0,266.409961041063,2.0,1.0,phase_1,,,,,,,,,,,,,orange,I
109.0,6.0,1.0,1.0,1.0,1.0,360.239929985255,2.0,1.0,phase_1,,,,,,,,,,,,,orange,I
197.0,7.0,2.0,1.0,2.0,2.0,340.0884519796818,2.0,1.0,phase_1,,,,,,,,,,,,,magenta,hexagon
39.0,1.0,0.5,0.0,1.0,1.0,281.2441249843687,2.0,1.0,phase_1,,,,,,,,,,,,,yellow,triangle
383.0,4.0,4.0,0.0,4.0,4.0,462.5883250264451,2.0,1.0,phase_1,,,,,,,,,,,,,green,diamond
383.0,8.0,4.0,1.0,1.0,1.0,326.6041290480643,2.0,2.0,phase_1,,,,,,,,,,,,,blue,circle
0.0,5.0,0.0,1.0,2.0,2.0,283.1171069992706,2.0,1.0,phase_1,,,,,,,,,,,,,white,square
221.0,7.0,2.0,1.0,1.0,1.0,255.25261205621058,2.0,1.0,phase_1,,,,,,,,,,,,,magenta,hexagon
70.0,1.0,0.5,0.0,3.0,3.0,311.1595060909167,2.0,1.0,phase_1,,,,,,,,,,,,,yellow,triangle
53.0,5.0,0.5,1.0,4.0,4.0,341.86814900022,2.0,2.0,phase_1,,,,,,,,,,,,,white,square
99.0,6.0,1.0,1.0,3.0,3.0,396.2993329623714,2.0,1.0,phase_1,,,,,,,,,,,,,orange,I
53.0,5.0,0.5,1.0,4.0,4.0,313.603327027522,2.0,1.0,phase_1,,,,,,,,,,,,,white,square
0.0,7.0,0.0,1.0,4.0,4.0,252.69839505199337,2.0,1.0,phase_1,,,,,,,,,,,,,magenta,hexagon
91.0,6.0,1.0,1.0,2.0,2.0,315.476177027449,2.0,1.0,phase_1,,,,,,,,,,,,,orange,I
49.0,5.0,0.5,1.0,2.0,2.0,295.138860004954,2.0,1.0,phase_1,,,,,,,,,,,,,white,square
124.0,6.0,1.0,1.0,4.0,4.0,326.023144996725,2.0,1.0,phase_1,,,,,,,,,,,,,orange,I
65.0,1.0,0.5,0.0,2.0,2.0,321.572425076738,2.0,1.0,phase_1,,,,,,,,,,,,,yellow,triangle
88.0,6.0,1.0,1.0,1.0,1.0,395.5748680746183,2.0,1.0,phase_1,,,,,,,,,,,,,orange,I
378.0,4.0,4.0,0.0,3.0,3.0,371.4167500147596,2.0,1.0,phase_1,,,,,,,,,,,,,green,diamond
383.0,8.0,4.0,1.0,1.0,1.0,278.7313259905204,2.0,1.0,phase_1,,,,,,,,,,,,,blue,circle
223.0,3.0,2.0,0.0,2.0,2.0,274.5725749991834,2.0,1.0,phase_1,,,,,,,,,,,,,cyan,cross
117.0,2.0,1.0,0.0,3.0,3.0,407.7838209923357,2.0,1.0,phase_1,,,,,,,,,,,,,gray,flipped triangle
0.0,5.0,0.0,1.0,3.0,3.0,286.2914470024407,2.0,1.0,phase_1,,,,,,,,,,,,,white,square
213.0,7.0,2.0,1.0,4.0,4.0,257.4125379323959,2.0,1.0,phase_1,,,,,,,,,,,,,magenta,hexagon
405.0,8.0,4.0,1.0,3.0,3.0,286.8342590518296,2.0,1.0,phase_1,,,,,,,,,,,,,blue,circle
0.0,6.0,0.0,1.0,2.0,2.0,332.3396949563175,2.0,1.0,phase_1,,,,,,,,,,,,,orange,I
0.0,8.0,0.0,1.0,2.0,2.0,344.5994200883433,2.0,1.0,phase_1,,,,,,,,,,,,,blue,circle
0.0,3.0,0.0,0.0,1.0,1.0,332.7010710490867,2.0,1.0,phase_1,,,,,,,,,,,,,cyan,cross
415.0,4.0,4.0,0.0,4.0,4.0,264.551936998032,2.0,1.0,phase_1,,,,,,,,,,,,,green,diamond
0.0,4.0,0.0,0.0,3.0,3.0,284.9746230058372,2.0,1.0,phase_1,,,,,,,,,,,,,green,diamond
404.0,8.0,4.0,1.0,4.0,4.0,282.4104049941525,2.0,1.0,phase_1,,,,,,,,,,,,,blue,circle
180.0,7.0,2.0,1.0,2.0,2.0,294.4012549705803,2.0,1.0,phase_1,,,,,,,,,,,,,magenta,hexagon
0.0,6.0,0.0,1.0,2.0,2.0,307.7661419520154,2.0,1.0,phase_1,,,,,,,,,,,,,orange,I
74.0,1.0,0.5,0.0,2.0,2.0,289.2682250821963,2.0,1.0,phase_1,,,,,,,,,,,,,yellow,triangle
111.0,6.0,1.0,1.0,2.0,2.0,277.034091996029,2.0,1.0,phase_1,,,,,,,,,,,,,orange,I
0.0,7.0,0.0,1.0,2.0,2.0,296.3011240353808,2.0,1.0,phase_1,,,,,,,,,,,,,magenta,hexagon
0.0,2.0,0.0,0.0,3.0,3.0,308.8269770378247,2.0,1.0,phase_1,,,,,,,,,,,,,gray,flipped triangle
78.0,2.0,1.0,0.0,4.0,4.0,284.1820060275495,2.0,1.0,phase_1,,,,,,,,,,,,,gray,flipped triangle
214.0,7.0,2.0,1.0,2.0,2.0,232.86468104925,2.0,1.0,phase_1,,,,,,,,,,,,,magenta,hexagon
68.0,5.0,0.5,1.0,1.0,1.0,277.4822870269418,2.0,1.0,phase_1,,,,,,,,,,,,,white,square
0.0,4.0,0.0,0.0,4.0,4.0,225.0676359981298,2.0,1.0,phase_1,,,,,,,,,,,,,green,diamond
109.0,2.0,1.0,0.0,4.0,4.0,269.9560519540682,2.0,1.0,phase_1,,,,,,,,,,,,,gray,flipped triangle
105.0,2.0,1.0,0.0,3.0,3.0,289.983341936022,2.0,1.0,phase_1,,,,,,,,,,,,,gray,flipped triangle
399.0,8.0,4.0,1.0,1.0,1.0,286.2206730060279,2.0,1.0,phase_1,,,,,,,,,,,,,blue,circle
0.0,5.0,0.0,1.0,3.0,3.0,244.6609819307923,2.0,1.0,phase_1,,,,,,,,,,,,,white,square
0.0,6.0,0.0,1.0,3.0,3.0,440.3109879931435,2.0,1.0,phase_1,,,,,,,,,,,,,orange,I
105.0,6.0,1.0,1.0,3.0,3.0,334.1163910226896,2.0,1.0,phase_1,,,,,,,,,,,,,orange,I
176.0,3.0,2.0,0.0,4.0,4.0,323.3978849602863,2.0,1.0,phase_1,,,,,,,,,,,,,cyan,cross
0.0,3.0,0.0,0.0,2.0,2.0,245.3510849736631,2.0,1.0,phase_1,,,,,,,,,,,,,cyan,cross
53.0,1.0,0.5,0.0,2.0,2.0,265.5579779529944,2.0,1.0,phase_1,,,,,,,,,,,,,yellow,triangle
409.0,8.0,4.0,1.0,3.0,3.0,285.6772919185459,2.0,1.0,phase_1,,,,,,,,,,,,,blue,circle
83.0,6.0,1.0,1.0,2.0,2.0,285.8895170502364,2.0,1.0,phase_1,,,,,,,,,,,,,orange,I
176.0,7.0,2.0,1.0,4.0,4.0,257.0892409421503,2.0,1.0,phase_1,,,,,,,,,,,,,magenta,hexagon
0.0,5.0,0.0,1.0,1.0,1.0,294.9733670102432,2.0,1.0,phase_1,,,,,,,,,,,,,white,square
194.0,3.0,2.0,0.0,1.0,1.0,306.7950539989397,2.0,1.0,phase_1,,,,,,,,,,,,,cyan,cross
88.0,2.0,1.0,0.0,3.0,3.0,351.2567860307172,2.0,1.0,phase_1,,,,,,,,,,,,,gray,flipped triangle
82.0,2.0,1.0,0.0,3.0,3.0,348.0669331038371,2.0,1.0,phase_1,,,,,,,,,,,,,gray,flipped triangle
207.0,7.0,2.0,1.0,1.0,1.0,322.2277889726683,2.0,1.0,phase_1,,,,,,,,,,,,,magenta,hexagon
420.0,4.0,4.0,0.0,3.0,3.0,331.4027660526335,2.0,1.0,phase_1,,,,,,,,,,,,,green,diamond
72.0,1.0,0.5,0.0,3.0,3.0,354.7449429752305,2.0,1.0,phase_1,,,,,,,,,,,,,yellow,triangle
0.0,8.0,0.0,1.0,1.0,1.0,606.4908059779555,2.0,1.0,phase_1,,,,,,,,,,,,,blue,circle
189.0,3.0,2.0,0.0,4.0,4.0,339.2704459838569,2.0,1.0,phase_1,,,,,,,,,,,,,cyan,cross
33.0,1.0,0.5,0.0,3.0,3.0,310.046418919228,2.0,1.0,phase_1,,,,,,,,,,,,,yellow,triangle
42.0,5.0,0.5,1.0,4.0,4.0,333.2832279847935,3.0,1.0,phase_1,,,,,,,,,,,,,white,square
106.0,2.0,1.0,0.0,1.0,1.0,282.327126013115,3.0,1.0,phase_1,,,,,,,,,,,,,gray,flipped triangle
210.0,7.0,2.0,1.0,1.0,1.0,270.5234060995281,3.0,1.0,phase_1,,,,,,,,,,,,,magenta,hexagon
73.0,5.0,0.5,1.0,2.0,2.0,254.3252320028841,3.0,1.0,phase_1,,,,,,,,,,,,,white,square
386.0,8.0,4.0,1.0,4.0,4.0,233.7700580246746,3.0,1.0,phase_1,,,,,,,,,,,,,blue,circle
396.0,4.0,4.0,0.0,2.0,2.0,253.7703730631619,3.0,1.0,phase_1,,,,,,,,,,,,,green,diamond
65.0,5.0,0.5,1.0,1.0,1.0,250.2917440142482,3.0,1.0,phase_1,,,,,,,,,,,,,white,square
97.0,6.0,1.0,1.0,3.0,3.0,242.2110780607909,3.0,1.0,phase_1,,,,,,,,,,,,,orange,I
0.0,8.0,0.0,1.0,4.0,4.0,229.6617020620033,3.0,1.0,phase_1,,,,,,,,,,,,,blue,circle
0.0,3.0,0.0,0.0,2.0,2.0,426.3476860942319,3.0,1.0,phase_1,,,,,,,,,,,,,cyan,cross
0.0,7.0,0.0,1.0,1.0,1.0,269.7622489649802,3.0,1.0,phase_1,,,,,,,,,,,,,magenta,hexagon
375.0,8.0,4.0,1.0,3.0,3.0,244.7546269977465,3.0,1.0,phase_1,,,,,,,,,,,,,blue,circle
0.0,8.0,0.0,1.0,4.0,4.0,237.9231310915202,3.0,1.0,phase_1,,,,,,,,,,,,,blue,circle
0.0,4.0,0.0,0.0,4.0,4.0,253.9433150086552,3.0,1.0,phase_1,,,,,,,,,,,,,green,diamond
81.0,6.0,1.0,1.0,4.0,4.0,257.0464690215885,3.0,1.0,phase_1,,,,,,,,,,,,,orange,I
104.0,6.0,1.0,1.0,3.0,3.0,260.5063009541482,3.0,1.0,phase_1,,,,,,,,,,,,,orange,I
195.0,7.0,2.0,1.0,1.0,1.0,291.8891960289329,3.0,1.0,phase_1,,,,,,,,,,,,,magenta,hexagon
77.0,2.0,1.0,0.0,2.0,2.0,229.1837789816782,3.0,1.0,phase_1,,,,,,,,,,,,,gray,flipped triangle
209.0,7.0,2.0,1.0,2.0,2.0,266.3312420481816,3.0,1.0,phase_1,,,,,,,,,,,,,magenta,hexagon
115.0,6.0,1.0,1.0,4.0,4.0,249.841512995772,3.0,1.0,phase_1,,,,,,,,,,,,,orange,I
415.0,8.0,4.0,1.0,1.0,1.0,331.0486009577289,3.0,1.0,phase_1,,,,,,,,,,,,,blue,circle
0.0,3.0,0.0,0.0,4.0,4.0,234.1226649004966,3.0,1.0,phase_1,,,,,,,,,,,,,cyan,cross
51.0,5.0,0.5,1.0,2.0,2.0,221.7053259955719,3.0,1.0,phase_1,,,,,,,,,,,,,white,square
401.0,4.0,4.0,0.0,1.0,1.0,292.0083049684763,3.0,1.0,phase_1,,,,,,,,,,,,,green,diamond
207.0,3.0,2.0,0.0,3.0,3.0,286.68385499622667,3.0,1.0,phase_1,,,,,,,,,,,,,cyan,cross
47.0,1.0,0.5,0.0,3.0,3.0,250.5484720459208,3.0,1.0,phase_1,,,,,,,,,,,,,yellow,triangle
88.0,2.0,1.0,0.0,1.0,1.0,276.1564910179004,3.0,2.0,phase_1,,,,,,,,,,,,,gray,flipped triangle
41.0,1.0,0.5,0.0,1.0,1.0,308.310143998824,3.0,1.0,phase_1,,,,,,,,,,,,,yellow,triangle
26.0,1.0,0.5,0.0,4.0,4.0,237.9613829543814,3.0,1.0,phase_1,,,,,,,,,,,,,yellow,triangle
386.0,4.0,4.0,0.0,4.0,4.0,274.4853920303285,3.0,1.0,phase_1,,,,,,,,,,,,,green,diamond
0.0,5.0,0.0,1.0,3.0,3.0,320.6250719958916,3.0,1.0,phase_1,,,,,,,,,,,,,white,square
0.0,6.0,0.0,1.0,2.0,2.0,278.3036859473213,3.0,1.0,phase_1,,,,,,,,,,,,,orange,I
62.0,5.0,0.5,1.0,1.0,1.0,271.4337890502065,3.0,2.0,phase_1,,,,,,,,,,,,,white,square
73.0,5.0,0.5,1.0,1.0,1.0,259.278214070946,3.0,1.0,phase_1,,,,,,,,,,,,,white,square
409.0,4.0,4.0,0.0,3.0,3.0,240.5004560714587,3.0,1.0,phase_1,,,,,,,,,,,,,green,diamond
0.0,1.0,0.0,0.0,3.0,3.0,304.0106149856001,3.0,1.0,phase_1,,,,,,,,,,,,,yellow,triangle
96.0,2.0,1.0,0.0,4.0,4.0,265.6150320544839,3.0,1.0,phase_1,,,,,,,,,,,,,gray,flipped triangle
0.0,6.0,0.0,1.0,4.0,4.0,253.28969198744738,3.0,1.0,phase_1,,,,,,,,,,,,,orange,I
0.0,5.0,0.0,1.0,2.0,2.0,249.5996169745922,3.0,1.0,phase_1,,,,,,,,,,,,,white,square
0.0,2.0,0.0,0.0,2.0,2.0,289.2018010606989,3.0,1.0,phase_1,,,,,,,,,,,,,gray,flipped triangle
93.0,6.0,1.0,1.0,3.0,3.0,268.6831169994548,3.0,1.0,phase_1,,,,,,,,,,,,,orange,I
49.0,5.0,0.5,1.0,2.0,2.0,290.6321849441156,3.0,1.0,phase_1,,,,,,,,,,,,,white,square
401.0,4.0,4.0,0.0,1.0,1.0,259.826778084971,3.0,1.0,phase_1,,,,,,,,,,,,,green,diamond
421.0,4.0,4.0,0.0,2.0,2.0,256.5199319506064,3.0,1.0,phase_1,,,,,,,,,,,,,green,diamond
33.0,1.0,0.5,0.0,3.0,3.0,261.0938920406624,3.0,1.0,phase_1,,,,,,,,,,,,,yellow,triangle
423.0,8.0,4.0,1.0,1.0,1.0,379.612359101884,3.0,1.0,phase_1,,,,,,,,,,,,,blue,circle
204.0,7.0,2.0,1.0,4.0,4.0,257.7634589979425,3.0,1.0,phase_1,,,,,,,,,,,,,magenta,hexagon
198.0,3.0,2.0,0.0,4.0,4.0,252.0921160466969,3.0,1.0,phase_1,,,,,,,,,,,,,cyan,cross
29.0,1.0,0.5,0.0,2.0,2.0,481.7719740094617,3.0,1.0,phase_1,,,,,,,,,,,,,yellow,triangle
0.0,7.0,0.0,1.0,4.0,4.0,270.3341220039874,3.0,1.0,phase_1,,,,,,,,,,,,,magenta,hexagon
397.0,4.0,4.0,0.0,2.0,2.0,265.9964310005307,3.0,1.0,phase_1,,,,,,,,,,,,,green,diamond
0.0,2.0,0.0,0.0,3.0,3.0,249.9795980984345,3.0,1.0,phase_1,,,,,,,,,,,,,gray,flipped triangle
405.0,4.0,4.0,0.0,2.0,2.0,380.1333520095795,3.0,1.0,phase_1,,,,,,,,,,,,,green,diamond
0.0,2.0,0.0,0.0,1.0,1.0,276.8397639738396,3.0,2.0,phase_1,,,,,,,,,,,,,gray,flipped triangle
0.0,4.0,0.0,0.0,1.0,1.0,304.6222679549828,3.0,1.0,phase_1,,,,,,,,,,,,,green,diamond
187.0,7.0,2.0,1.0,3.0,3.0,296.3494560681283,3.0,1.0,phase_1,,,,,,,,,,,,,magenta,hexagon
179.0,7.0,2.0,1.0,3.0,3.0,268.9040449913591,3.0,1.0,phase_1,,,,,,,,,,,,,magenta,hexagon
417.0,4.0,4.0,0.0,2.0,2.0,254.3210160220042,3.0,1.0,phase_1,,,,,,,,,,,,,green,diamond
125.0,6.0,1.0,1.0,1.0,1.0,318.1829589884728,3.0,1.0,phase_1,,,,,,,,,,,,,orange,I
189.0,7.0,2.0,1.0,1.0,1.0,346.7262359336018,3.0,1.0,phase_1,,,,,,,,,,,,,magenta,hexagon
56.0,5.0,0.5,1.0,3.0,3.0,273.4358819434419,3.0,2.0,phase_1,,,,,,,,,,,,,white,square
74.0,5.0,0.5,1.0,3.0,3.0,257.8975519863888,3.0,1.0,phase_1,,,,,,,,,,,,,white,square
0.0,5.0,0.0,1.0,4.0,4.0,285.3474719449878,3.0,1.0,phase_1,,,,,,,,,,,,,white,square
375.0,4.0,4.0,0.0,3.0,3.0,289.453582954593,3.0,1.0,phase_1,,,,,,,,,,,,,green,diamond
176.0,7.0,2.0,1.0,2.0,2.0,310.2404279634356,3.0,1.0,phase_1,,,,,,,,,,,,,magenta,hexagon
65.0,1.0,0.5,0.0,2.0,2.0,236.4310120465234,3.0,1.0,phase_1,,,,,,,,,,,,,yellow,triangle
376.0,4.0,4.0,0.0,1.0,1.0,309.3359220074489,3.0,1.0,phase_1,,,,,,,,,,,,,green,diamond
417.0,8.0,4.0,1.0,4.0,4.0,293.3402130147442,3.0,1.0,phase_1,,,,,,,,,,,,,blue,circle
103.0,2.0,1.0,0.0,3.0,3.0,257.3009100742638,3.0,1.0,phase_1,,,,,,,,,,,,,gray,flipped triangle
57.0,1.0,0.5,0.0,3.0,3.0,294.3810619181022,3.0,1.0,phase_1,,,,,,,,,,,,,yellow,triangle
221.0,3.0,2.0,0.0,2.0,2.0,240.326831000857,3.0,1.0,phase_1,,,,,,,,,,,,,cyan,cross
197.0,3.0,2.0,0.0,3.0,3.0,245.5461838981136,3.0,1.0,phase_1,,,,,,,,,,,,,cyan,cross
39.0,5.0,0.5,1.0,4.0,4.0,293.9105239929631,3.0,1.0,phase_1,,,,,,,,,,,,,white,square
96.0,6.0,1.0,1.0,4.0,4.0,264.4549880642444,3.0,1.0,phase_1,,,,,,,,,,,,,orange,I
0.0,3.0,0.0,0.0,4.0,4.0,262.6295830123126,3.0,1.0,phase_1,,,,,,,,,,,,,cyan,cross
0.0,2.0,0.0,0.0,2.0,2.0,429.0500700008124,3.0,2.0,phase_1,,,,,,,,,,,,,gray,flipped triangle
91.0,2.0,1.0,0.0,2.0,2.0,289.9479479528963,3.0,1.0,phase_1,,,,,,,,,,,,,gray,flipped triangle
392.0,8.0,4.0,1.0,2.0,2.0,319.2683620145544,3.0,1.0,phase_1,,,,,,,,,,,,,blue,circle
0.0,8.0,0.0,1.0,4.0,4.0,299.0081690950319,3.0,1.0,phase_1,,,,,,,,,,,,,blue,circle
0.0,7.0,0.0,1.0,2.0,2.0,289.4404539838433,3.0,1.0,phase_1,,,,,,,,,,,,,magenta,hexagon
88.0,6.0,1.0,1.0,2.0,2.0,366.6196030098945,3.0,1.0,phase_1,,,,,,,,,,,,,orange,I
0.0,1.0,0.0,0.0,1.0,1.0,456.3248039921745,3.0,1.0,phase_1,,,,,,,,,,,,,yellow,triangle
115.0,2.0,1.0,0.0,2.0,2.0,261.3092339597642,3.0,1.0,phase_1,,,,,,,,,,,,,gray,flipped triangle
57.0,5.0,0.5,1.0,3.0,3.0,370.1002380112186,3.0,1.0,phase_1,,,,,,,,,,,,,white,square
82.0,6.0,1.0,1.0,3.0,3.0,329.7079309122637,3.0,1.0,phase_1,,,,,,,,,,,,,orange,I
29.0,5.0,0.5,1.0,3.0,3.0,317.7545459475368,3.0,1.0,phase_1,,,,,,,,,,,,,white,square
44.0,5.0,0.5,1.0,4.0,4.0,353.1120179686695,3.0,1.0,phase_1,,,,,,,,,,,,,white,square
213.0,3.0,2.0,0.0,3.0,3.0,333.5906849242747,3.0,1.0,phase_1,,,,,,,,,,,,,cyan,cross
404.0,4.0,4.0,0.0,2.0,2.0,427.9750679852441,3.0,1.0,phase_1,,,,,,,,,,,,,green,diamond
0.0,8.0,0.0,1.0,4.0,4.0,339.8474260466173,3.0,2.0,phase_1,,,,,,,,,,,,,blue,circle
56.0,1.0,0.5,0.0,1.0,1.0,545.2197440899909,3.0,1.0,phase_1,,,,,,,,,,,,,yellow,triangle
0.0,5.0,0.0,1.0,4.0,4.0,261.1164039699361,3.0,1.0,phase_1,,,,,,,,,,,,,white,square
412.0,4.0,4.0,0.0,1.0,1.0,276.3473240192979,3.0,1.0,phase_1,,,,,,,,,,,,,green,diamond
0.0,5.0,0.0,1.0,2.0,2.0,245.2937359921634,3.0,1.0,phase_1,,,,,,,,,,,,,white,square
124.0,2.0,1.0,0.0,3.0,3.0,318.4396059950813,3.0,1.0,phase_1,,,,,,,,,,,,,gray,flipped triangle
35.0,1.0,0.5,0.0,1.0,1.0,281.7067090654745,3.0,1.0,phase_1,,,,,,,,,,,,,yellow,triangle
414.0,8.0,4.0,1.0,4.0,4.0,276.3706489931792,3.0,1.0,phase_1,,,,,,,,,,,,,blue,circle
0.0,4.0,0.0,0.0,2.0,2.0,259.1146080521866,3.0,1.0,phase_1,,,,,,,,,,,,,green,diamond
0.0,6.0,0.0,1.0,2.0,2.0,383.0908620730042,3.0,1.0,phase_1,,,,,,,,,,,,,orange,I
51.0,1.0,0.5,0.0,1.0,1.0,348.766481038183,3.0,1.0,phase_1,,,,,,,,,,,,,yellow,triangle
0.0,2.0,0.0,0.0,3.0,3.0,311.2346510170027,4.0,1.0,phase_1,,,,,,,,,,,,,gray,flipped triangle
415.0,8.0,4.0,1.0,4.0,4.0,265.0750250322744,4.0,1.0,phase_1,,,,,,,,,,,,,blue,circle
221.0,7.0,2.0,1.0,1.0,1.0,269.5808180142194,4.0,1.0,phase_1,,,,,,,,,,,,,magenta,hexagon
197.0,7.0,2.0,1.0,2.0,2.0,237.645017914474,4.0,1.0,phase_1,,,,,,,,,,,,,magenta,hexagon
56.0,5.0,0.5,1.0,2.0,2.0,290.6455050688237,4.0,1.0,phase_1,,,,,,,,,,,,,white,square
394.0,8.0,4.0,1.0,2.0,2.0,252.45935493148858,4.0,1.0,phase_1,,,,,,,,,,,,,blue,circle
0.0,4.0,0.0,0.0,1.0,1.0,322.1894550370052,4.0,1.0,phase_1,,,,,,,,,,,,,green,diamond
208.0,7.0,2.0,1.0,4.0,4.0,265.416246955283,4.0,1.0,phase_1,,,,,,,,,,,,,magenta,hexagon
182.0,3.0,2.0,0.0,4.0,4.0,259.5768970204517,4.0,1.0,phase_1,,,,,,,,,,,,,cyan,cross
176.0,3.0,2.0,0.0,2.0,2.0,232.5813430361449,4.0,1.0,phase_1,,,,,,,,,,,,,cyan,cross
0.0,4.0,0.0,0.0,2.0,2.0,244.2094300640747,4.0,1.0,phase_1,,,,,,,,,,,,,green,diamond
184.0,7.0,2.0,1.0,2.0,2.0,224.45684508420518,4.0,1.0,phase_1,,,,,,,,,,,,,magenta,hexagon
208.0,3.0,2.0,0.0,1.0,1.0,269.3997720489278,4.0,1.0,phase_1,,,,,,,,,,,,,cyan,cross
393.0,4.0,4.0,0.0,1.0,1.0,329.455844941549,4.0,1.0,phase_1,,,,,,,,,,,,,green,diamond
97.0,2.0,1.0,0.0,4.0,4.0,630.8447889750823,4.0,1.0,phase_1,,,,,,,,,,,,,gray,flipped triangle
0.0,1.0,0.0,0.0,2.0,2.0,274.30825703777367,4.0,1.0,phase_1,,,,,,,,,,,,,yellow,triangle
26.0,5.0,0.5,1.0,3.0,3.0,440.1828030822798,4.0,1.0,phase_1,,,,,,,,,,,,,white,square
214.0,3.0,2.0,0.0,3.0,3.0,309.6604109741747,4.0,1.0,phase_1,,,,,,,,,,,,,cyan,cross
383.0,8.0,4.0,1.0,2.0,2.0,200.2852890873327,4.0,1.0,phase_1,,,,,,,,,,,,,blue,circle
0.0,8.0,0.0,1.0,4.0,4.0,261.5390280261636,4.0,1.0,phase_1,,,,,,,,,,,,,blue,circle
119.0,6.0,1.0,1.0,2.0,2.0,252.3601750144735,4.0,1.0,phase_1,,,,,,,,,,,,,orange,I
197.0,3.0,2.0,0.0,1.0,1.0,264.5661729620769,4.0,1.0,phase_1,,,,,,,,,,,,,cyan,cross
0.0,6.0,0.0,1.0,4.0,4.0,269.9585680384189,4.0,1.0,phase_1,,,,,,,,,,,,,orange,I
0.0,3.0,0.0,0.0,3.0,3.0,322.61963502969587,4.0,1.0,phase_1,,,,,,,,,,,,,cyan,cross
105.0,2.0,1.0,0.0,1.0,1.0,236.3891159184277,4.0,1.0,phase_1,,,,,,,,,,,,,gray,flipped triangle
415.0,4.0,4.0,0.0,2.0,2.0,241.2519140634685,4.0,1.0,phase_1,,,,,,,,,,,,,green,diamond
29.0,5.0,0.5,1.0,1.0,1.0,313.6201550951227,4.0,1.0,phase_1,,,,,,,,,,,,,white,square
201.0,7.0,2.0,1.0,2.0,2.0,245.61637500301,4.0,1.0,phase_1,,,,,,,,,,,,,magenta,hexagon
49.0,1.0,0.5,0.0,4.0,4.0,258.0496809678152,4.0,1.0,phase_1,,,,,,,,,,,,,yellow,triangle
29.0,1.0,0.5,0.0,2.0,2.0,223.7367240013554,4.0,1.0,phase_1,,,,,,,,,,,,,yellow,triangle
224.0,7.0,2.0,1.0,1.0,1.0,256.873014033772,4.0,1.0,phase_1,,,,,,,,,,,,,magenta,hexagon
91.0,6.0,1.0,1.0,1.0,1.0,286.0767820384353,4.0,1.0,phase_1,,,,,,,,,,,,,orange,I
39.0,1.0,0.5,0.0,4.0,4.0,266.1164019955322,4.0,1.0,phase_1,,,,,,,,,,,,,yellow,triangle
399.0,4.0,4.0,0.0,4.0,4.0,282.1909259073436,4.0,1.0,phase_1,,,,,,,,,,,,,green,diamond
405.0,4.0,4.0,0.0,1.0,1.0,269.2388040013611,4.0,1.0,phase_1,,,,,,,,,,,,,green,diamond
177.0,7.0,2.0,1.0,3.0,3.0,338.2219719933346,4.0,1.0,phase_1,,,,,,,,,,,,,magenta,hexagon
91.0,2.0,1.0,0.0,3.0,3.0,368.2081250008195,4.0,1.0,phase_1,,,,,,,,,,,,,gray,flipped triangle
56.0,1.0,0.5,0.0,1.0,1.0,436.9364799931645,4.0,1.0,phase_1,,,,,,,,,,,,,yellow,triangle
380.0,4.0,4.0,0.0,4.0,4.0,278.2674320042133,4.0,1.0,phase_1,,,,,,,,,,,,,green,diamond
39.0,1.0,0.5,0.0,1.0,1.0,419.520141906105,4.0,1.0,phase_1,,,,,,,,,,,,,yellow,triangle
179.0,3.0,2.0,0.0,1.0,1.0,354.6226809266954,4.0,1.0,phase_1,,,,,,,,,,,,,cyan,cross
176.0,3.0,2.0,0.0,3.0,3.0,368.6437630094588,4.0,1.0,phase_1,,,,,,,,,,,,,cyan,cross
209.0,3.0,2.0,0.0,2.0,2.0,265.0062390603125,4.0,1.0,phase_1,,,,,,,,,,,,,cyan,cross
41.0,5.0,0.5,1.0,1.0,1.0,280.7508379919454,4.0,1.0,phase_1,,,,,,,,,,,,,white,square
394.0,4.0,4.0,0.0,4.0,4.0,261.3263099920004,4.0,1.0,phase_1,,,,,,,,,,,,,green,diamond
0.0,2.0,0.0,0.0,1.0,1.0,297.9090820299461,4.0,1.0,phase_1,,,,,,,,,,,,,gray,flipped triangle
224.0,3.0,2.0,0.0,4.0,4.0,310.7821979792788,4.0,1.0,phase_1,,,,,,,,,,,,,cyan,cross
81.0,2.0,1.0,0.0,4.0,4.0,281.5742319216952,4.0,1.0,phase_1,,,,,,,,,,,,,gray,flipped triangle
0.0,2.0,0.0,0.0,4.0,4.0,246.122244047001,4.0,1.0,phase_1,,,,,,,,,,,,,gray,flipped triangle
383.0,4.0,4.0,0.0,3.0,3.0,268.9276019809767,4.0,1.0,phase_1,,,,,,,,,,,,,green,diamond
113.0,6.0,1.0,1.0,1.0,1.0,264.8434799630195,4.0,1.0,phase_1,,,,,,,,,,,,,orange,I
0.0,8.0,0.0,1.0,1.0,1.0,269.6645440300926,4.0,1.0,phase_1,,,,,,,,,,,,,blue,circle
420.0,8.0,4.0,1.0,2.0,2.0,231.8974930094555,4.0,1.0,phase_1,,,,,,,,,,,,,blue,circle
218.0,7.0,2.0,1.0,3.0,3.0,415.8801529556513,4.0,1.0,phase_1,,,,,,,,,,,,,magenta,hexagon
112.0,6.0,1.0,1.0,2.0,2.0,306.1909390380606,4.0,1.0,phase_1,,,,,,,,,,,,,orange,I
0.0,1.0,0.0,0.0,4.0,4.0,271.0832880111411,4.0,1.0,phase_1,,,,,,,,,,,,,yellow,triangle
418.0,8.0,4.0,1.0,2.0,2.0,288.4611670160666,4.0,2.0,phase_1,,,,,,,,,,,,,blue,circle
194.0,7.0,2.0,1.0,1.0,1.0,284.3185010133311,4.0,1.0,phase_1,,,,,,,,,,,,,magenta,hexagon
0.0,3.0,0.0,0.0,4.0,4.0,282.0247230120003,4.0,1.0,phase_1,,,,,,,,,,,,,cyan,cross
423.0,4.0,4.0,0.0,2.0,2.0,229.2967119719833,4.0,1.0,phase_1,,,,,,,,,,,,,green,diamond
181.0,3.0,2.0,0.0,3.0,3.0,366.3331130519509,4.0,1.0,phase_1,,,,,,,,,,,,,cyan,cross
0.0,1.0,0.0,0.0,1.0,1.0,300.9029179811477,4.0,2.0,phase_1,,,,,,,,,,,,,yellow,triangle
201.0,3.0,2.0,0.0,4.0,4.0,305.1335860509425,4.0,1.0,phase_1,,,,,,,,,,,,,cyan,cross
202.0,3.0,2.0,0.0,1.0,1.0,260.7287639984861,4.0,1.0,phase_1,,,,,,,,,,,,,cyan,cross
80.0,6.0,1.0,1.0,4.0,4.0,281.722389976494,4.0,1.0,phase_1,,,,,,,,,,,,,orange,I
0.0,7.0,0.0,1.0,4.0,4.0,266.4132160134613,4.0,1.0,phase_1,,,,,,,,,,,,,magenta,hexagon
124.0,6.0,1.0,1.0,1.0,1.0,285.5491869850084,4.0,1.0,phase_1,,,,,,,,,,,,,orange,I
0.0,6.0,0.0,1.0,2.0,2.0,231.774109066464,4.0,1.0,phase_1,,,,,,,,,,,,,orange,I
62.0,1.0,0.5,0.0,4.0,4.0,310.4702760465443,4.0,1.0,phase_1,,,,,,,,,,,,,yellow,triangle
397.0,8.0,4.0,1.0,3.0,3.0,331.1503479490056,4.0,1.0,phase_1,,,,,,,,,,,,,blue,circle
391.0,4.0,4.0,0.0,4.0,4.0,302.6286870008334,4.0,1.0,phase_1,,,,,,,,,,,,,green,diamond
32.0,5.0,0.5,1.0,1.0,1.0,244.1913029178977,4.0,1.0,phase_1,,,,,,,,,,,,,white,square
104.0,2.0,1.0,0.0,1.0,1.0,337.9707939457148,4.0,1.0,phase_1,,,,,,,,,,,,,gray,flipped triangle
415.0,8.0,4.0,1.0,3.0,3.0,427.7024590410292,4.0,1.0,phase_1,,,,,,,,,,,,,blue,circle
68.0,1.0,0.5,0.0,3.0,3.0,281.2571190297603,4.0,1.0,phase_1,,,,,,,,,,,,,yellow,triangle
398.0,8.0,4.0,1.0,1.0,1.0,309.7753420006484,4.0,1.0,phase_1,,,,,,,,,,,,,blue,circle
221.0,3.0,2.0,0.0,2.0,2.0,237.1759470552206,4.0,1.0,phase_1,,,,,,,,,,,,,cyan,cross
124.0,2.0,1.0,0.0,2.0,2.0,256.7621039925143,4.0,1.0,phase_1,,,,,,,,,,,,,gray,flipped triangle
110.0,6.0,1.0,1.0,1.0,1.0,289.5325130084529,4.0,2.0,phase_1,,,,,,,,,,,,,orange,I
107.0,2.0,1.0,0.0,2.0,2.0,342.7649020450189,4.0,1.0,phase_1,,,,,,,,,,,,,gray,flipped triangle
404.0,4.0,4.0,0.0,1.0,1.0,338.9491529669612,4.0,1.0,phase_1,,,,,,,,,,,,,green,diamond
0.0,2.0,0.0,0.0,4.0,4.0,342.1382169472053,4.0,1.0,phase_1,,,,,,,,,,,,,gray,flipped triangle
204.0,7.0,2.0,1.0,4.0,4.0,443.3066470082849,4.0,1.0,phase_1,,,,,,,,,,,,,magenta,hexagon
53.0,1.0,0.5,0.0,1.0,1.0,387.5133401015773,4.0,1.0,phase_1,,,,,,,,,,,,,yellow,triangle
0.0,6.0,0.0,1.0,1.0,1.0,269.0089900279417,4.0,1.0,phase_1,,,,,,,,,,,,,orange,I
33.0,5.0,0.5,1.0,2.0,2.0,265.2156300609931,4.0,1.0,phase_1,,,,,,,,,,,,,white,square
0.0,1.0,0.0,0.0,1.0,1.0,367.6235791062936,4.0,1.0,phase_1,,,,,,,,,,,,,yellow,triangle
32.0,1.0,0.5,0.0,4.0,4.0,285.74916603975,4.0,1.0,phase_1,,,,,,,,,,,,,yellow,triangle
383.0,4.0,4.0,0.0,2.0,2.0,258.5166110657155,4.0,1.0,phase_1,,,,,,,,,,,,,green,diamond
66.0,1.0,0.5,0.0,3.0,3.0,271.041500964202,4.0,1.0,phase_1,,,,,,,,,,,,,yellow,triangle
0.0,8.0,0.0,1.0,4.0,4.0,371.4070060523227,4.0,1.0,phase_1,,,,,,,,,,,,,blue,circle
118.0,2.0,1.0,0.0,4.0,4.0,319.303399999626,4.0,1.0,phase_1,,,,,,,,,,,,,gray,flipped triangle
0.0,2.0,0.0,0.0,1.0,1.0,268.5058700153604,4.0,1.0,phase_1,,,,,,,,,,,,,gray,flipped triangle
398.0,4.0,4.0,0.0,1.0,1.0,319.6945110103115,4.0,1.0,phase_1,,,,,,,,,,,,,green,diamond
105.0,6.0,1.0,1.0,1.0,1.0,276.7797480337322,4.0,1.0,phase_1,,,,,,,,,,,,,orange,I
111.0,2.0,1.0,0.0,1.0,1.0,272.4199600052088,4.0,1.0,phase_1,,,,,,,,,,,,,gray,flipped triangle
378.0,8.0,4.0,1.0,4.0,4.0,260.5418900493532,4.0,1.0,phase_1,,,,,,,,,,,,,blue,circle
97.0,2.0,1.0,0.0,1.0,1.0,329.8645879840478,4.0,1.0,phase_1,,,,,,,,,,,,,gray,flipped triangle
0.0,4.0,0.0,0.0,2.0,2.0,296.5500849531963,4.0,1.0,phase_1,,,,,,,,,,,,,green,diamond
82.0,2.0,1.0,0.0,1.0,1.0,301.418190007098,4.0,1.0,phase_1,,,,,,,,,,,,,gray,flipped triangle
0.0,2.0,1.0,0.0,5.0,5.0,302.5589999742806,1.0,1.0,phase_2,go,250.0,250.0,1.0,,,,,,,,,gray,flipped triangle
0.0,5.0,0.5,1.0,6.0,0.0,0.0,1.0,1.0,phase_2,stop,250.0,250.0,4.0,,,,,,,,,white,square
0.0,2.0,1.0,0.0,6.0,6.0,835.2487829979509,1.0,1.0,phase_2,go,250.0,300.0,1.0,,,,,,,,,gray,flipped triangle
0.0,4.0,4.0,0.0,5.0,5.0,845.7768319640309,1.0,1.0,phase_2,go,250.0,300.0,1.0,,,,,,,,,green,diamond
0.0,2.0,1.0,0.0,5.0,5.0,1085.6263260357082,1.0,1.0,phase_2,go,250.0,300.0,1.0,,,,,,,,,gray,flipped triangle
0.0,6.0,1.0,1.0,5.0,0.0,0.0,1.0,1.0,phase_2,stop,250.0,300.0,4.0,,,,,,,,,orange,I
0.0,6.0,1.0,1.0,6.0,0.0,0.0,1.0,1.0,phase_2,stop,300.0,300.0,4.0,,,,,,,,,orange,I
0.0,3.0,2.0,0.0,5.0,5.0,833.8227979838848,1.0,1.0,phase_2,go,300.0,350.0,1.0,,,,,,,,,cyan,cross
0.0,3.0,2.0,0.0,6.0,6.0,763.0713160615414,1.0,1.0,phase_2,go,300.0,350.0,1.0,,,,,,,,,cyan,cross
0.0,2.0,1.0,0.0,5.0,5.0,895.3059520572424,1.0,1.0,phase_2,go,300.0,350.0,1.0,,,,,,,,,gray,flipped triangle
0.0,7.0,2.0,1.0,6.0,6.0,1238.1754090311006,1.0,1.0,phase_2,go,300.0,350.0,1.0,,,,,,,,,magenta,hexagon
0.0,1.0,0.5,0.0,5.0,5.0,1413.8826259877533,1.0,1.0,phase_2,go,300.0,350.0,1.0,,,,,,,,,yellow,triangle
0.0,5.0,0.5,1.0,5.0,0.0,0.0,1.0,1.0,phase_2,stop,300.0,350.0,4.0,,,,,,,,,white,square
0.0,2.0,1.0,0.0,6.0,6.0,743.3844710467383,1.0,1.0,phase_2,go,350.0,350.0,1.0,,,,,,,,,gray,flipped triangle
0.0,7.0,2.0,1.0,6.0,6.0,772.4959619808942,1.0,1.0,phase_2,stop,350.0,350.0,3.0,,,,,,,,,magenta,hexagon
0.0,1.0,0.5,0.0,5.0,5.0,860.0070570828393,1.0,1.0,phase_2,go,350.0,300.0,1.0,,,,,,,,,yellow,triangle
0.0,6.0,1.0,1.0,5.0,0.0,0.0,1.0,1.0,phase_2,stop,350.0,300.0,4.0,,,,,,,,,orange,I
0.0,5.0,0.5,1.0,5.0,0.0,0.0,1.0,1.0,phase_2,stop,400.0,300.0,4.0,,,,,,,,,white,square
0.0,7.0,2.0,1.0,5.0,0.0,0.0,1.0,1.0,phase_2,stop,450.0,300.0,4.0,,,,,,,,,magenta,hexagon
0.0,1.0,0.5,0.0,5.0,5.0,921.803935081698,1.0,1.0,phase_2,go,500.0,300.0,1.0,,,,,,,,,yellow,triangle
0.0,3.0,2.0,0.0,6.0,6.0,859.5331559190527,1.0,1.0,phase_2,go,500.0,300.0,1.0,,,,,,,,,cyan,cross
0.0,1.0,0.5,0.0,6.0,6.0,1059.2478879261762,1.0,1.0,phase_2,go,500.0,300.0,1.0,,,,,,,,,yellow,triangle
0.0,4.0,4.0,0.0,5.0,5.0,1195.422678021714,1.0,1.0,phase_2,go,500.0,300.0,1.0,,,,,,,,,green,diamond
0.0,1.0,0.5,0.0,5.0,5.0,1080.6939189787954,1.0,1.0,phase_2,go,500.0,300.0,1.0,,,,,,,,,yellow,triangle
0.0,1.0,0.5,0.0,6.0,6.0,959.1795179294422,1.0,1.0,phase_2,go,500.0,300.0,1.0,,,,,,,,,yellow,triangle
0.0,2.0,1.0,0.0,5.0,5.0,880.0237659597769,1.0,1.0,phase_2,go,500.0,300.0,1.0,,,,,,,,,gray,flipped triangle
0.0,5.0,0.5,1.0,6.0,0.0,0.0,1.0,1.0,phase_2,stop,500.0,300.0,4.0,,,,,,,,,white,square
0.0,1.0,0.5,0.0,5.0,5.0,680.7472270447761,1.0,1.0,phase_2,go,500.0,350.0,1.0,,,,,,,,,yellow,triangle
0.0,1.0,0.5,0.0,6.0,6.0,982.228551991284,1.0,1.0,phase_2,go,500.0,350.0,1.0,,,,,,,,,yellow,triangle
0.0,3.0,2.0,0.0,5.0,5.0,774.3892930448055,1.0,1.0,phase_2,go,500.0,350.0,1.0,,,,,,,,,cyan,cross
0.0,4.0,4.0,0.0,5.0,5.0,1076.776274945587,1.0,1.0,phase_2,go,500.0,350.0,1.0,,,,,,,,,green,diamond
0.0,1.0,0.5,0.0,6.0,6.0,754.7032040311024,1.0,1.0,phase_2,go,500.0,350.0,1.0,,,,,,,,,yellow,triangle
0.0,5.0,0.5,1.0,5.0,5.0,949.3175459792838,1.0,1.0,phase_2,go,500.0,350.0,1.0,,,,,,,,,white,square
0.0,8.0,4.0,1.0,6.0,0.0,0.0,1.0,1.0,phase_2,stop,500.0,350.0,4.0,,,,,,,,,blue,circle
0.0,1.0,0.5,0.0,6.0,6.0,899.9388839583844,1.0,1.0,phase_2,go,500.0,400.0,1.0,,,,,,,,,yellow,triangle
0.0,5.0,0.5,1.0,5.0,5.0,291.3578790612519,1.0,1.0,phase_2,go,500.0,400.0,1.0,,,,,,,,,white,square
0.0,8.0,4.0,1.0,6.0,6.0,378.0439039692282,2.0,1.0,phase_2,stop,500.0,400.0,3.0,,,,,,,,,blue,circle
0.0,3.0,2.0,0.0,5.0,5.0,453.2498529879376,2.0,1.0,phase_2,go,500.0,350.0,1.0,,,,,,,,,cyan,cross
0.0,8.0,4.0,1.0,6.0,6.0,370.8936600014567,2.0,1.0,phase_2,stop,500.0,350.0,3.0,,,,,,,,,blue,circle
0.0,6.0,1.0,1.0,5.0,5.0,612.3102649580687,2.0,1.0,phase_2,go,500.0,300.0,1.0,,,,,,,,,orange,I
0.0,3.0,2.0,0.0,6.0,6.0,496.5270600514486,2.0,1.0,phase_2,go,500.0,300.0,1.0,,,,,,,,,cyan,cross
0.0,5.0,0.5,1.0,6.0,0.0,0.0,2.0,1.0,phase_2,stop,500.0,300.0,4.0,,,,,,,,,white,square
0.0,5.0,0.5,1.0,5.0,5.0,535.031329956837,2.0,1.0,phase_2,stop,500.0,350.0,3.0,,,,,,,,,white,square
0.0,4.0,4.0,0.0,5.0,5.0,824.8233519261703,2.0,1.0,phase_2,go,450.0,350.0,1.0,,,,,,,,,green,diamond
0.0,5.0,0.5,1.0,5.0,0.0,0.0,2.0,1.0,phase_2,stop,450.0,350.0,4.0,,,,,,,,,white,square
0.0,6.0,1.0,1.0,6.0,0.0,0.0,2.0,1.0,phase_2,stop,500.0,350.0,4.0,,,,,,,,,orange,I
0.0,7.0,2.0,1.0,6.0,6.0,549.3905219482258,2.0,1.0,phase_2,stop,500.0,400.0,3.0,,,,,,,,,magenta,hexagon
0.0,1.0,0.5,0.0,5.0,5.0,732.5371990446001,2.0,1.0,phase_2,go,500.0,350.0,1.0,,,,,,,,,yellow,triangle
0.0,2.0,1.0,0.0,6.0,6.0,813.5801840107888,2.0,1.0,phase_2,go,500.0,350.0,1.0,,,,,,,,,gray,flipped triangle
0.0,1.0,0.5,0.0,5.0,5.0,846.4002830442041,2.0,1.0,phase_2,go,500.0,350.0,1.0,,,,,,,,,yellow,triangle
0.0,3.0,2.0,0.0,5.0,5.0,532.9005109379068,2.0,1.0,phase_2,go,500.0,350.0,1.0,,,,,,,,,cyan,cross
0.0,7.0,2.0,1.0,5.0,5.0,708.2082739798352,2.0,1.0,phase_2,go,500.0,350.0,1.0,,,,,,,,,magenta,hexagon
0.0,5.0,0.5,1.0,5.0,0.0,0.0,2.0,1.0,phase_2,stop,500.0,350.0,4.0,,,,,,,,,white,square
0.0,7.0,2.0,1.0,5.0,5.0,610.9976900042966,2.0,1.0,phase_2,stop,550.0,350.0,3.0,,,,,,,,,magenta,hexagon
0.0,7.0,2.0,1.0,6.0,0.0,0.0,2.0,1.0,phase_2,stop,500.0,350.0,4.0,,,,,,,,,magenta,hexagon
0.0,3.0,2.0,0.0,5.0,5.0,903.810007032007,2.0,1.0,phase_2,go,500.0,400.0,1.0,,,,,,,,,cyan,cross
0.0,8.0,4.0,1.0,5.0,0.0,0.0,2.0,1.0,phase_2,stop,500.0,400.0,4.0,,,,,,,,,blue,circle
0.0,6.0,1.0,1.0,6.0,0.0,0.0,2.0,1.0,phase_2,stop,550.0,400.0,4.0,,,,,,,,,orange,I
0.0,6.0,1.0,1.0,5.0,5.0,592.8884770255536,2.0,1.0,phase_2,stop,550.0,450.0,3.0,,,,,,,,,orange,I
0.0,4.0,4.0,0.0,5.0,5.0,882.447095005773,2.0,1.0,phase_2,go,500.0,450.0,1.0,,,,,,,,,green,diamond
0.0,1.0,0.5,0.0,6.0,6.0,868.932737968862,2.0,1.0,phase_2,go,500.0,450.0,1.0,,,,,,,,,yellow,triangle
0.0,2.0,1.0,0.0,5.0,5.0,502.74451705627143,2.0,1.0,phase_2,go,500.0,450.0,1.0,,,,,,,,,gray,flipped triangle
0.0,1.0,0.5,0.0,6.0,6.0,619.7804639814422,2.0,1.0,phase_2,go,500.0,450.0,1.0,,,,,,,,,yellow,triangle
0.0,2.0,1.0,0.0,5.0,5.0,795.4703830182552,2.0,1.0,phase_2,go,500.0,450.0,1.0,,,,,,,,,gray,flipped triangle
0.0,6.0,1.0,1.0,5.0,0.0,0.0,2.0,1.0,phase_2,stop,500.0,450.0,4.0,,,,,,,,,orange,I
0.0,5.0,0.5,1.0,6.0,6.0,590.6014539068565,2.0,1.0,phase_2,go,550.0,450.0,1.0,,,,,,,,,white,square
0.0,8.0,4.0,1.0,5.0,0.0,0.0,2.0,1.0,phase_2,stop,550.0,450.0,4.0,,,,,,,,,blue,circle
0.0,4.0,4.0,0.0,6.0,6.0,844.1765389870852,2.0,1.0,phase_2,go,600.0,450.0,1.0,,,,,,,,,green,diamond
0.0,6.0,1.0,1.0,5.0,5.0,804.624950978905,2.0,1.0,phase_2,go,600.0,450.0,1.0,,,,,,,,,orange,I
0.0,8.0,4.0,1.0,5.0,5.0,496.1559209041297,2.0,1.0,phase_2,stop,600.0,450.0,3.0,,,,,,,,,blue,circle
0.0,6.0,1.0,1.0,6.0,0.0,0.0,2.0,1.0,phase_2,stop,550.0,450.0,4.0,,,,,,,,,orange,I
0.0,5.0,0.5,1.0,5.0,0.0,0.0,2.0,1.0,phase_2,stop,550.0,500.0,4.0,,,,,,,,,white,square
0.0,2.0,1.0,0.0,5.0,5.0,342.0837318990379,3.0,1.0,phase_2,go,600.0,500.0,1.0,,,,,,,,,gray,flipped triangle
0.0,7.0,2.0,1.0,6.0,6.0,215.9057629760354,3.0,1.0,phase_2,go,600.0,500.0,1.0,,,,,,,,,magenta,hexagon
0.0,3.0,2.0,0.0,5.0,5.0,205.7764189084991,3.0,1.0,phase_2,go,600.0,500.0,1.0,,,,,,,,,cyan,cross
0.0,5.0,0.5,1.0,6.0,6.0,301.1786839924752,3.0,1.0,phase_2,go,600.0,500.0,1.0,,,,,,,,,white,square
0.0,8.0,4.0,1.0,6.0,6.0,358.725565019995,3.0,1.0,phase_2,stop,600.0,500.0,3.0,,,,,,,,,blue,circle
0.0,7.0,2.0,1.0,5.0,5.0,293.7860039528459,3.0,1.0,phase_2,stop,600.0,450.0,3.0,,,,,,,,,magenta,hexagon
0.0,2.0,1.0,0.0,6.0,6.0,534.9532020045444,3.0,1.0,phase_2,go,550.0,450.0,1.0,,,,,,,,,gray,flipped triangle
0.0,2.0,1.0,0.0,6.0,6.0,445.8604240790009,3.0,1.0,phase_2,go,550.0,450.0,1.0,,,,,,,,,gray,flipped triangle
0.0,5.0,0.5,1.0,6.0,6.0,387.4481440288946,3.0,1.0,phase_2,stop,550.0,450.0,3.0,,,,,,,,,white,square
0.0,1.0,0.5,0.0,6.0,6.0,642.4188760574907,3.0,1.0,phase_2,go,550.0,400.0,1.0,,,,,,,,,yellow,triangle
0.0,5.0,0.5,1.0,6.0,0.0,0.0,3.0,1.0,phase_2,stop,550.0,400.0,4.0,,,,,,,,,white,square
0.0,5.0,0.5,1.0,5.0,5.0,528.2144049415365,3.0,1.0,phase_2,stop,550.0,450.0,3.0,,,,,,,,,white,square
0.0,7.0,2.0,1.0,5.0,0.0,0.0,3.0,1.0,phase_2,stop,500.0,450.0,4.0,,,,,,,,,magenta,hexagon
0.0,2.0,1.0,0.0,5.0,5.0,624.2504710098729,3.0,1.0,phase_2,go,550.0,450.0,1.0,,,,,,,,,gray,flipped triangle
0.0,8.0,4.0,1.0,6.0,6.0,711.8271089857444,3.0,1.0,phase_2,go,550.0,450.0,1.0,,,,,,,,,blue,circle
0.0,5.0,0.5,1.0,5.0,5.0,329.6894170343876,3.0,1.0,phase_2,stop,550.0,450.0,3.0,,,,,,,,,white,square
0.0,6.0,1.0,1.0,5.0,5.0,477.6138330344111,3.0,1.0,phase_2,stop,500.0,450.0,3.0,,,,,,,,,orange,I
0.0,4.0,4.0,0.0,6.0,6.0,752.2418999578804,3.0,1.0,phase_2,go,450.0,450.0,1.0,,,,,,,,,green,diamond
0.0,4.0,4.0,0.0,6.0,6.0,260.2926209801808,3.0,1.0,phase_2,go,450.0,450.0,1.0,,,,,,,,,green,diamond
0.0,1.0,0.5,0.0,6.0,6.0,398.7675950629636,3.0,1.0,phase_2,go,450.0,450.0,1.0,,,,,,,,,yellow,triangle
0.0,6.0,1.0,1.0,5.0,0.0,0.0,3.0,1.0,phase_2,stop,450.0,450.0,4.0,,,,,,,,,orange,I
0.0,2.0,1.0,0.0,6.0,6.0,468.6029099393636,3.0,1.0,phase_2,go,500.0,450.0,1.0,,,,,,,,,gray,flipped triangle
0.0,7.0,2.0,1.0,5.0,5.0,482.0206230506301,3.0,1.0,phase_2,stop,500.0,450.0,3.0,,,,,,,,,magenta,hexagon
0.0,1.0,0.5,0.0,5.0,5.0,540.4146109940484,3.0,1.0,phase_2,go,450.0,450.0,1.0,,,,,,,,,yellow,triangle
0.0,7.0,2.0,1.0,6.0,0.0,0.0,3.0,1.0,phase_2,stop,450.0,450.0,4.0,,,,,,,,,magenta,hexagon
0.0,8.0,4.0,1.0,5.0,5.0,440.3318740660324,3.0,1.0,phase_2,go,450.0,500.0,1.0,,,,,,,,,blue,circle
0.0,8.0,4.0,1.0,6.0,0.0,0.0,3.0,1.0,phase_2,stop,450.0,500.0,4.0,,,,,,,,,blue,circle
0.0,1.0,0.5,0.0,5.0,5.0,586.312546976842,3.0,1.0,phase_2,go,450.0,550.0,1.0,,,,,,,,,yellow,triangle
0.0,4.0,4.0,0.0,6.0,6.0,966.9786110753192,3.0,1.0,phase_2,go,450.0,550.0,1.0,,,,,,,,,green,diamond
0.0,2.0,1.0,0.0,6.0,6.0,374.3246970698237,3.0,1.0,phase_2,go,450.0,550.0,1.0,,,,,,,,,gray,flipped triangle
0.0,4.0,4.0,0.0,6.0,6.0,334.0429899981245,3.0,1.0,phase_2,go,450.0,550.0,1.0,,,,,,,,,green,diamond
0.0,6.0,1.0,1.0,6.0,0.0,0.0,3.0,1.0,phase_2,stop,450.0,550.0,4.0,,,,,,,,,orange,I
0.0,7.0,2.0,1.0,5.0,5.0,527.1683369064704,3.0,1.0,phase_2,stop,450.0,600.0,3.0,,,,,,,,,magenta,hexagon
0.0,3.0,2.0,0.0,6.0,6.0,615.8008530037478,3.0,1.0,phase_2,go,400.0,600.0,1.0,,,,,,,,,cyan,cross
0.0,3.0,2.0,0.0,5.0,5.0,358.3692800020799,3.0,1.0,phase_2,go,400.0,600.0,1.0,,,,,,,,,cyan,cross
0.0,8.0,4.0,1.0,5.0,5.0,484.1107010142877,3.0,1.0,phase_2,stop,400.0,600.0,3.0,,,,,,,,,blue,circle
0.0,6.0,1.0,1.0,5.0,5.0,587.2961049899459,4.0,1.0,phase_2,stop,350.0,600.0,3.0,,,,,,,,,orange,I
0.0,7.0,2.0,1.0,5.0,5.0,511.3506109919399,4.0,1.0,phase_2,go,300.0,600.0,1.0,,,,,,,,,magenta,hexagon
0.0,7.0,2.0,1.0,5.0,5.0,381.5403999760747,4.0,1.0,phase_2,stop,300.0,600.0,3.0,,,,,,,,,magenta,hexagon
0.0,2.0,1.0,0.0,5.0,5.0,315.5269320122897,4.0,1.0,phase_2,go,250.0,600.0,1.0,,,,,,,,,gray,flipped triangle
0.0,6.0,1.0,1.0,5.0,0.0,0.0,4.0,1.0,phase_2,stop,250.0,600.0,4.0,,,,,,,,,orange,I
0.0,3.0,2.0,0.0,6.0,6.0,403.0719819711521,4.0,1.0,phase_2,go,300.0,600.0,1.0,,,,,,,,,cyan,cross
0.0,8.0,4.0,1.0,6.0,6.0,705.30442497693,4.0,1.0,phase_2,stop,300.0,600.0,3.0,,,,,,,,,blue,circle
0.0,6.0,1.0,1.0,6.0,6.0,595.4271609662101,4.0,1.0,phase_2,go,300.0,550.0,1.0,,,,,,,,,orange,I
0.0,8.0,4.0,1.0,6.0,6.0,342.9899539332837,4.0,1.0,phase_2,stop,300.0,550.0,3.0,,,,,,,,,blue,circle
0.0,8.0,4.0,1.0,5.0,0.0,0.0,4.0,1.0,phase_2,stop,300.0,500.0,4.0,,,,,,,,,blue,circle
0.0,5.0,0.5,1.0,6.0,6.0,577.2785249864683,4.0,1.0,phase_2,stop,350.0,500.0,3.0,,,,,,,,,white,square
0.0,1.0,0.5,0.0,6.0,6.0,694.3608720321208,4.0,1.0,phase_2,go,350.0,450.0,1.0,,,,,,,,,yellow,triangle
0.0,4.0,4.0,0.0,5.0,5.0,943.7985949916764,4.0,1.0,phase_2,go,350.0,450.0,1.0,,,,,,,,,green,diamond
0.0,4.0,4.0,0.0,6.0,6.0,756.0887229628861,4.0,1.0,phase_2,go,350.0,450.0,1.0,,,,,,,,,green,diamond
0.0,8.0,4.0,1.0,6.0,0.0,0.0,4.0,1.0,phase_2,stop,350.0,450.0,4.0,,,,,,,,,blue,circle
0.0,2.0,1.0,0.0,6.0,6.0,436.5881029516458,4.0,1.0,phase_2,go,350.0,500.0,1.0,,,,,,,,,gray,flipped triangle
0.0,4.0,4.0,0.0,6.0,6.0,845.3116730088368,4.0,1.0,phase_2,go,350.0,500.0,1.0,,,,,,,,,green,diamond
0.0,6.0,1.0,1.0,5.0,0.0,0.0,4.0,1.0,phase_2,stop,350.0,500.0,4.0,,,,,,,,,orange,I
0.0,6.0,1.0,1.0,6.0,6.0,651.5051330206916,4.0,1.0,phase_2,go,400.0,500.0,1.0,,,,,,,,,orange,I
0.0,6.0,1.0,1.0,5.0,0.0,0.0,4.0,1.0,phase_2,stop,400.0,500.0,4.0,,,,,,,,,orange,I
0.0,5.0,0.5,1.0,6.0,6.0,699.3309310637414,4.0,1.0,phase_2,go,450.0,500.0,1.0,,,,,,,,,white,square
0.0,4.0,4.0,0.0,5.0,5.0,697.8596040280536,4.0,1.0,phase_2,go,450.0,500.0,1.0,,,,,,,,,green,diamond
0.0,7.0,2.0,1.0,5.0,5.0,770.4655369743705,4.0,1.0,phase_2,go,450.0,500.0,1.0,,,,,,,,,magenta,hexagon
0.0,8.0,4.0,1.0,5.0,5.0,474.0691330516711,4.0,1.0,phase_2,go,450.0,500.0,1.0,,,,,,,,,blue,circle
0.0,7.0,2.0,1.0,5.0,0.0,0.0,4.0,1.0,phase_2,stop,450.0,500.0,4.0,,,,,,,,,magenta,hexagon
0.0,8.0,4.0,1.0,6.0,6.0,582.4105710489675,4.0,1.0,phase_2,stop,500.0,500.0,3.0,,,,,,,,,blue,circle
0.0,4.0,4.0,0.0,5.0,5.0,855.529283056967,4.0,1.0,phase_2,go,500.0,450.0,1.0,,,,,,,,,green,diamond
0.0,7.0,2.0,1.0,5.0,0.0,0.0,4.0,1.0,phase_2,stop,500.0,450.0,4.0,,,,,,,,,magenta,hexagon
0.0,2.0,1.0,0.0,5.0,5.0,565.6745459418744,4.0,1.0,phase_2,go,550.0,450.0,1.0,,,,,,,,,gray,flipped triangle
0.0,7.0,2.0,1.0,6.0,6.0,623.2697470113635,4.0,1.0,phase_2,go,550.0,450.0,1.0,,,,,,,,,magenta,hexagon
0.0,4.0,4.0,0.0,6.0,6.0,791.3031140342355,4.0,1.0,phase_2,go,550.0,450.0,1.0,,,,,,,,,green,diamond
0.0,1.0,0.5,0.0,6.0,6.0,580.6793819647282,4.0,1.0,phase_2,go,550.0,450.0,1.0,,,,,,,,,yellow,triangle
0.0,7.0,2.0,1.0,6.0,0.0,0.0,4.0,1.0,phase_2,stop,550.0,450.0,4.0,,,,,,,,,magenta,hexagon
0.0,3.0,2.0,0.0,6.0,6.0,692.276326008141,4.0,1.0,phase_2,go,550.0,500.0,1.0,,,,,,,,,cyan,cross
0.0,2.0,1.0,0.0,6.0,6.0,1001.3626449508592,4.0,1.0,phase_2,go,550.0,500.0,1.0,,,,,,,,,gray,flipped triangle
0.0,5.0,0.5,1.0,5.0,5.0,641.5115430718288,4.0,1.0,phase_2,stop,550.0,500.0,3.0,,,,,,,,,white,square
0.0,6.0,1.0,1.0,6.0,6.0,614.4803389906883,5.0,1.0,phase_2,stop,500.0,500.0,3.0,,,,,,,,,orange,I
0.0,6.0,1.0,1.0,6.0,6.0,546.1400370113552,5.0,1.0,phase_2,go,500.0,450.0,1.0,,,,,,,,,orange,I
0.0,8.0,4.0,1.0,5.0,5.0,394.1633210051805,5.0,1.0,phase_2,stop,500.0,450.0,3.0,,,,,,,,,blue,circle
0.0,4.0,4.0,0.0,5.0,5.0,404.957934981212,5.0,1.0,phase_2,go,450.0,450.0,1.0,,,,,,,,,green,diamond
0.0,6.0,1.0,1.0,5.0,5.0,544.0074660582468,5.0,1.0,phase_2,stop,450.0,450.0,3.0,,,,,,,,,orange,I
0.0,4.0,4.0,0.0,6.0,6.0,473.7277789972722,5.0,1.0,phase_2,go,400.0,450.0,1.0,,,,,,,,,green,diamond
0.0,4.0,4.0,0.0,6.0,6.0,433.6666809394955,5.0,1.0,phase_2,go,400.0,450.0,1.0,,,,,,,,,green,diamond
0.0,5.0,0.5,1.0,6.0,6.0,497.7545259753242,5.0,1.0,phase_2,stop,400.0,450.0,3.0,,,,,,,,,white,square
0.0,8.0,4.0,1.0,5.0,0.0,0.0,5.0,1.0,phase_2,stop,400.0,400.0,4.0,,,,,,,,,blue,circle
0.0,8.0,4.0,1.0,5.0,5.0,646.3319449685514,5.0,1.0,phase_2,go,450.0,400.0,1.0,,,,,,,,,blue,circle
0.0,2.0,1.0,0.0,6.0,6.0,445.8687149453908,5.0,1.0,phase_2,go,450.0,400.0,1.0,,,,,,,,,gray,flipped triangle
0.0,5.0,0.5,1.0,5.0,5.0,592.4190370133147,5.0,1.0,phase_2,stop,450.0,400.0,3.0,,,,,,,,,white,square
0.0,7.0,2.0,1.0,6.0,0.0,0.0,5.0,1.0,phase_2,stop,400.0,400.0,4.0,,,,,,,,,magenta,hexagon
0.0,8.0,4.0,1.0,6.0,0.0,0.0,5.0,1.0,phase_2,stop,400.0,450.0,4.0,,,,,,,,,blue,circle
0.0,3.0,2.0,0.0,6.0,6.0,517.5662130350247,5.0,1.0,phase_2,go,400.0,500.0,1.0,,,,,,,,,cyan,cross
0.0,4.0,4.0,0.0,6.0,6.0,492.1721509890631,5.0,1.0,phase_2,go,400.0,500.0,1.0,,,,,,,,,green,diamond
0.0,6.0,1.0,1.0,6.0,6.0,596.5165209490806,5.0,1.0,phase_2,stop,400.0,500.0,3.0,,,,,,,,,orange,I
0.0,5.0,0.5,1.0,5.0,5.0,659.2023440171033,5.0,1.0,phase_2,go,400.0,450.0,1.0,,,,,,,,,white,square
0.0,3.0,2.0,0.0,5.0,5.0,692.8270210046321,5.0,1.0,phase_2,go,400.0,450.0,1.0,,,,,,,,,cyan,cross
0.0,3.0,2.0,0.0,6.0,6.0,423.7267420394346,5.0,1.0,phase_2,go,400.0,450.0,1.0,,,,,,,,,cyan,cross
0.0,2.0,1.0,0.0,5.0,5.0,243.7584430444985,5.0,1.0,phase_2,go,400.0,450.0,1.0,,,,,,,,,gray,flipped triangle
0.0,4.0,4.0,0.0,5.0,5.0,231.0261050006374,5.0,1.0,phase_2,go,400.0,450.0,1.0,,,,,,,,,green,diamond
0.0,8.0,4.0,1.0,6.0,6.0,737.9460660740733,5.0,1.0,phase_2,go,400.0,450.0,1.0,,,,,,,,,blue,circle
0.0,1.0,0.5,0.0,6.0,6.0,638.0041979718953,5.0,1.0,phase_2,go,400.0,450.0,1.0,,,,,,,,,yellow,triangle
0.0,1.0,0.5,0.0,5.0,5.0,375.138024915941,5.0,1.0,phase_2,go,400.0,450.0,1.0,,,,,,,,,yellow,triangle
0.0,7.0,2.0,1.0,6.0,0.0,0.0,5.0,1.0,phase_2,stop,400.0,450.0,4.0,,,,,,,,,magenta,hexagon
0.0,7.0,2.0,1.0,6.0,6.0,567.4304410349578,5.0,1.0,phase_2,stop,400.0,500.0,3.0,,,,,,,,,magenta,hexagon
0.0,2.0,1.0,0.0,6.0,6.0,555.7869399199262,5.0,1.0,phase_2,go,400.0,450.0,1.0,,,,,,,,,gray,flipped triangle
0.0,2.0,1.0,0.0,5.0,5.0,325.3976580454036,5.0,1.0,phase_2,go,400.0,450.0,1.0,,,,,,,,,gray,flipped triangle
0.0,5.0,0.5,1.0,5.0,5.0,243.2414450449869,5.0,1.0,phase_2,stop,400.0,450.0,3.0,,,,,,,,,white,square
0.0,3.0,2.0,0.0,6.0,6.0,370.9264830686152,5.0,1.0,phase_2,go,350.0,450.0,1.0,,,,,,,,,cyan,cross
0.0,3.0,2.0,0.0,5.0,5.0,725.3452680306509,5.0,1.0,phase_2,go,350.0,450.0,1.0,,,,,,,,,cyan,cross
0.0,8.0,4.0,1.0,5.0,0.0,0.0,5.0,1.0,phase_2,stop,350.0,450.0,4.0,,,,,,,,,blue,circle
0.0,3.0,2.0,0.0,5.0,5.0,393.8121109968051,5.0,1.0,phase_2,go,400.0,450.0,1.0,,,,,,,,,cyan,cross
0.0,2.0,1.0,0.0,5.0,5.0,304.4597820844501,5.0,1.0,phase_2,go,400.0,450.0,1.0,,,,,,,,,gray,flipped triangle
0.0,6.0,1.0,1.0,6.0,6.0,576.2826889986172,5.0,1.0,phase_2,stop,400.0,450.0,3.0,,,,,,,,,orange,I
0.0,1.0,0.5,0.0,5.0,5.0,361.7047499865293,6.0,1.0,phase_2,go,400.0,400.0,1.0,,,,,,,,,yellow,triangle
0.0,8.0,4.0,1.0,5.0,5.0,399.6388718951493,6.0,1.0,phase_2,stop,400.0,400.0,3.0,,,,,,,,,blue,circle
0.0,1.0,0.5,0.0,6.0,6.0,310.7332000508904,6.0,1.0,phase_2,go,350.0,400.0,1.0,,,,,,,,,yellow,triangle
0.0,1.0,0.5,0.0,5.0,5.0,340.3017020318657,6.0,1.0,phase_2,go,350.0,400.0,1.0,,,,,,,,,yellow,triangle
0.0,4.0,4.0,0.0,5.0,5.0,637.1093899942935,6.0,1.0,phase_2,go,350.0,400.0,1.0,,,,,,,,,green,diamond
0.0,7.0,2.0,1.0,5.0,0.0,0.0,6.0,1.0,phase_2,stop,350.0,400.0,4.0,,,,,,,,,magenta,hexagon
0.0,5.0,0.5,1.0,5.0,5.0,326.2207160005346,6.0,1.0,phase_2,go,400.0,400.0,1.0,,,,,,,,,white,square
0.0,6.0,1.0,1.0,6.0,6.0,745.9808660205454,6.0,1.0,phase_2,go,400.0,400.0,1.0,,,,,,,,,orange,I
0.0,1.0,0.5,0.0,5.0,5.0,875.227743992582,6.0,1.0,phase_2,go,400.0,400.0,1.0,,,,,,,,,yellow,triangle
0.0,2.0,1.0,0.0,6.0,6.0,436.7964770644903,6.0,1.0,phase_2,go,400.0,400.0,1.0,,,,,,,,,gray,flipped triangle
0.0,4.0,4.0,0.0,5.0,5.0,778.9750540396199,6.0,1.0,phase_2,go,400.0,400.0,1.0,,,,,,,,,green,diamond
0.0,1.0,0.5,0.0,5.0,5.0,304.5912920497358,6.0,1.0,phase_2,go,400.0,400.0,1.0,,,,,,,,,yellow,triangle
0.0,1.0,0.5,0.0,5.0,5.0,374.6286950772628,6.0,1.0,phase_2,go,400.0,400.0,1.0,,,,,,,,,yellow,triangle
0.0,3.0,2.0,0.0,5.0,5.0,679.3259530095384,6.0,1.0,phase_2,go,400.0,400.0,1.0,,,,,,,,,cyan,cross
0.0,7.0,2.0,1.0,6.0,0.0,0.0,6.0,1.0,phase_2,stop,400.0,400.0,4.0,,,,,,,,,magenta,hexagon
0.0,5.0,0.5,1.0,6.0,6.0,509.69425693619996,6.0,1.0,phase_2,stop,400.0,450.0,3.0,,,,,,,,,white,square
0.0,2.0,1.0,0.0,6.0,6.0,463.4020830271765,6.0,1.0,phase_2,go,400.0,400.0,1.0,,,,,,,,,gray,flipped triangle
0.0,8.0,4.0,1.0,6.0,0.0,0.0,6.0,1.0,phase_2,stop,400.0,400.0,4.0,,,,,,,,,blue,circle
0.0,4.0,4.0,0.0,5.0,5.0,230.5799850728362,6.0,1.0,phase_2,go,400.0,450.0,1.0,,,,,,,,,green,diamond
0.0,8.0,4.0,1.0,6.0,0.0,0.0,6.0,1.0,phase_2,stop,400.0,450.0,4.0,,,,,,,,,blue,circle
0.0,8.0,4.0,1.0,6.0,0.0,0.0,6.0,1.0,phase_2,stop,400.0,500.0,4.0,,,,,,,,,blue,circle
0.0,8.0,4.0,1.0,5.0,5.0,378.2429200364277,6.0,1.0,phase_2,go,400.0,550.0,1.0,,,,,,,,,blue,circle
0.0,1.0,0.5,0.0,5.0,5.0,300.0049040419981,6.0,1.0,phase_2,go,400.0,550.0,1.0,,,,,,,,,yellow,triangle
0.0,4.0,4.0,0.0,5.0,5.0,523.0584279634058,6.0,1.0,phase_2,go,400.0,550.0,1.0,,,,,,,,,green,diamond
0.0,3.0,2.0,0.0,6.0,6.0,274.99914704822,6.0,1.0,phase_2,go,400.0,550.0,1.0,,,,,,,,,cyan,cross
0.0,8.0,4.0,1.0,6.0,6.0,947.7958650095388,6.0,1.0,phase_2,go,400.0,550.0,1.0,,,,,,,,,blue,circle
0.0,4.0,4.0,0.0,6.0,6.0,551.4086110051721,6.0,1.0,phase_2,go,400.0,550.0,1.0,,,,,,,,,green,diamond
0.0,7.0,2.0,1.0,5.0,5.0,250.6263370160013,6.0,1.0,phase_2,go,400.0,550.0,1.0,,,,,,,,,magenta,hexagon
0.0,8.0,4.0,1.0,6.0,6.0,447.0557229360565,6.0,1.0,phase_2,stop,400.0,550.0,3.0,,,,,,,,,blue,circle
0.0,3.0,2.0,0.0,6.0,6.0,528.3339129528031,6.0,1.0,phase_2,go,400.0,500.0,1.0,,,,,,,,,cyan,cross
0.0,5.0,0.5,1.0,6.0,6.0,481.347192893736,6.0,1.0,phase_2,stop,400.0,500.0,3.0,,,,,,,,,white,square
0.0,3.0,2.0,0.0,5.0,5.0,288.4136560605839,6.0,1.0,phase_2,go,400.0,450.0,1.0,,,,,,,,,cyan,cross
0.0,6.0,1.0,1.0,5.0,0.0,0.0,6.0,1.0,phase_2,stop,400.0,450.0,4.0,,,,,,,,,orange,I
0.0,6.0,1.0,1.0,6.0,6.0,547.6683600572869,6.0,1.0,phase_2,stop,450.0,450.0,3.0,,,,,,,,,orange,I
0.0,4.0,4.0,0.0,6.0,6.0,469.0589839592576,6.0,1.0,phase_2,go,450.0,400.0,1.0,,,,,,,,,green,diamond
0.0,6.0,1.0,1.0,6.0,0.0,0.0,6.0,1.0,phase_2,stop,450.0,400.0,4.0,,,,,,,,,orange,I
0.0,5.0,0.5,1.0,6.0,6.0,418.9954289468005,7.0,1.0,phase_2,stop,450.0,450.0,3.0,,,,,,,,,white,square
0.0,8.0,4.0,1.0,5.0,5.0,378.1410210067406,7.0,1.0,phase_2,stop,450.0,400.0,3.0,,,,,,,,,blue,circle
0.0,1.0,0.5,0.0,6.0,6.0,372.2876569954678,7.0,1.0,phase_2,go,400.0,400.0,1.0,,,,,,,,,yellow,triangle
0.0,3.0,2.0,0.0,6.0,6.0,530.8786019450054,7.0,1.0,phase_2,go,400.0,400.0,1.0,,,,,,,,,cyan,cross
0.0,2.0,1.0,0.0,5.0,5.0,506.76661904435605,7.0,1.0,phase_2,go,400.0,400.0,1.0,,,,,,,,,gray,flipped triangle
0.0,2.0,1.0,0.0,5.0,5.0,448.984432965517,7.0,1.0,phase_2,go,400.0,400.0,1.0,,,,,,,,,gray,flipped triangle
0.0,3.0,2.0,0.0,6.0,6.0,283.4757340606302,7.0,1.0,phase_2,go,400.0,400.0,1.0,,,,,,,,,cyan,cross
0.0,4.0,4.0,0.0,5.0,5.0,546.1853820597753,7.0,1.0,phase_2,go,400.0,400.0,1.0,,,,,,,,,green,diamond
0.0,7.0,2.0,1.0,6.0,6.0,337.6392900245264,7.0,1.0,phase_2,stop,400.0,400.0,3.0,,,,,,,,,magenta,hexagon
0.0,1.0,0.5,0.0,5.0,5.0,369.4183980114758,7.0,1.0,phase_2,go,400.0,350.0,1.0,,,,,,,,,yellow,triangle
0.0,8.0,4.0,1.0,5.0,5.0,309.2410099925473,7.0,1.0,phase_2,stop,400.0,350.0,3.0,,,,,,,,,blue,circle
0.0,1.0,0.5,0.0,6.0,6.0,292.7047250559553,7.0,1.0,phase_2,go,350.0,350.0,1.0,,,,,,,,,yellow,triangle
0.0,4.0,4.0,0.0,6.0,6.0,749.95783099439,7.0,1.0,phase_2,go,350.0,350.0,1.0,,,,,,,,,green,diamond
0.0,2.0,1.0,0.0,6.0,6.0,342.7500620018691,7.0,1.0,phase_2,go,350.0,350.0,1.0,,,,,,,,,gray,flipped triangle
0.0,8.0,4.0,1.0,5.0,5.0,788.8379170326516,7.0,1.0,phase_2,go,350.0,350.0,1.0,,,,,,,,,blue,circle
0.0,4.0,4.0,0.0,6.0,6.0,525.9658569702879,7.0,1.0,phase_2,go,350.0,350.0,1.0,,,,,,,,,green,diamond
0.0,4.0,4.0,0.0,5.0,5.0,412.4838459538296,7.0,1.0,phase_2,go,350.0,350.0,1.0,,,,,,,,,green,diamond
0.0,3.0,2.0,0.0,5.0,5.0,314.0853069489822,7.0,1.0,phase_2,go,350.0,350.0,1.0,,,,,,,,,cyan,cross
0.0,7.0,2.0,1.0,5.0,5.0,267.5920850597322,7.0,1.0,phase_2,go,350.0,350.0,1.0,,,,,,,,,magenta,hexagon
0.0,7.0,2.0,1.0,5.0,0.0,0.0,7.0,1.0,phase_2,stop,350.0,350.0,4.0,,,,,,,,,magenta,hexagon
0.0,2.0,1.0,0.0,6.0,6.0,363.2824550149962,7.0,1.0,phase_2,go,400.0,350.0,1.0,,,,,,,,,gray,flipped triangle
0.0,2.0,1.0,0.0,5.0,5.0,271.1623390205204,7.0,1.0,phase_2,go,400.0,350.0,1.0,,,,,,,,,gray,flipped triangle
0.0,6.0,1.0,1.0,6.0,6.0,329.3828000314533,7.0,1.0,phase_2,stop,400.0,350.0,3.0,,,,,,,,,orange,I
0.0,7.0,2.0,1.0,5.0,5.0,446.7943110503256,7.0,1.0,phase_2,stop,400.0,300.0,3.0,,,,,,,,,magenta,hexagon
0.0,4.0,4.0,0.0,6.0,6.0,528.5203249659389,7.0,1.0,phase_2,go,350.0,300.0,1.0,,,,,,,,,green,diamond
0.0,6.0,1.0,1.0,5.0,0.0,0.0,7.0,1.0,phase_2,stop,350.0,300.0,4.0,,,,,,,,,orange,I
0.0,3.0,2.0,0.0,5.0,5.0,484.6571129746735,7.0,1.0,phase_2,go,400.0,300.0,1.0,,,,,,,,,cyan,cross
0.0,6.0,1.0,1.0,6.0,6.0,885.8976910123602,7.0,1.0,phase_2,go,400.0,300.0,1.0,,,,,,,,,orange,I
0.0,1.0,0.5,0.0,6.0,6.0,454.0339589584619,7.0,1.0,phase_2,go,400.0,300.0,1.0,,,,,,,,,yellow,triangle
0.0,8.0,4.0,1.0,6.0,6.0,357.84420103300357,7.0,1.0,phase_2,go,400.0,300.0,1.0,,,,,,,,,blue,circle
0.0,8.0,4.0,1.0,5.0,0.0,0.0,7.0,1.0,phase_2,stop,400.0,300.0,4.0,,,,,,,,,blue,circle
0.0,3.0,2.0,0.0,5.0,5.0,387.7696999115869,7.0,1.0,phase_2,go,450.0,300.0,1.0,,,,,,,,,cyan,cross
0.0,7.0,2.0,1.0,5.0,5.0,449.1858329856768,7.0,1.0,phase_2,stop,450.0,300.0,3.0,,,,,,,,,magenta,hexagon
0.0,7.0,2.0,1.0,6.0,0.0,0.0,7.0,1.0,phase_2,stop,400.0,300.0,4.0,,,,,,,,,magenta,hexagon
0.0,1.0,0.5,0.0,6.0,6.0,440.6034280546009,7.0,1.0,phase_2,go,400.0,350.0,1.0,,,,,,,,,yellow,triangle
0.0,2.0,1.0,0.0,5.0,5.0,243.7068799044937,7.0,1.0,phase_2,go,400.0,350.0,1.0,,,,,,,,,gray,flipped triangle
0.0,5.0,0.5,1.0,5.0,5.0,649.1002319380641,8.0,1.0,phase_2,stop,400.0,350.0,3.0,,,,,,,,,white,square
0.0,7.0,2.0,1.0,6.0,6.0,330.5024800356477,8.0,1.0,phase_2,go,350.0,350.0,1.0,,,,,,,,,magenta,hexagon
0.0,8.0,4.0,1.0,5.0,5.0,263.9799220487475,8.0,1.0,phase_2,stop,350.0,350.0,3.0,,,,,,,,,blue,circle
0.0,5.0,0.5,1.0,6.0,6.0,342.4121420830488,8.0,1.0,phase_2,stop,300.0,350.0,3.0,,,,,,,,,white,square
0.0,4.0,4.0,0.0,6.0,6.0,390.8442499814555,8.0,1.0,phase_2,go,300.0,300.0,1.0,,,,,,,,,green,diamond
0.0,7.0,2.0,1.0,6.0,0.0,0.0,8.0,1.0,phase_2,stop,300.0,300.0,4.0,,,,,,,,,magenta,hexagon
0.0,3.0,2.0,0.0,5.0,5.0,422.8894399711862,8.0,1.0,phase_2,go,300.0,350.0,1.0,,,,,,,,,cyan,cross
0.0,7.0,2.0,1.0,6.0,6.0,285.2468610508367,8.0,1.0,phase_2,stop,300.0,350.0,3.0,,,,,,,,,magenta,hexagon
0.0,5.0,0.5,1.0,6.0,6.0,222.8528629057109,8.0,1.0,phase_2,stop,300.0,300.0,3.0,,,,,,,,,white,square
0.0,2.0,1.0,0.0,6.0,6.0,442.9470460163429,8.0,1.0,phase_2,go,300.0,250.0,1.0,,,,,,,,,gray,flipped triangle
0.0,5.0,0.5,1.0,5.0,5.0,244.2618509521708,8.0,1.0,phase_2,go,300.0,250.0,1.0,,,,,,,,,white,square
0.0,2.0,1.0,0.0,5.0,5.0,328.6634529940784,8.0,1.0,phase_2,go,300.0,250.0,1.0,,,,,,,,,gray,flipped triangle
0.0,3.0,2.0,0.0,6.0,6.0,337.4866179656237,8.0,1.0,phase_2,go,300.0,250.0,1.0,,,,,,,,,cyan,cross
0.0,3.0,2.0,0.0,5.0,5.0,320.2771469950676,8.0,1.0,phase_2,go,300.0,250.0,1.0,,,,,,,,,cyan,cross
0.0,5.0,0.5,1.0,6.0,6.0,288.3363520959392,8.0,1.0,phase_2,go,300.0,250.0,1.0,,,,,,,,,white,square
0.0,5.0,0.5,1.0,6.0,6.0,362.8147720592096,8.0,1.0,phase_2,stop,300.0,250.0,3.0,,,,,,,,,white,square
0.0,2.0,1.0,0.0,6.0,6.0,392.5781870493665,8.0,1.0,phase_2,go,300.0,200.0,1.0,,,,,,,,,gray,flipped triangle
0.0,4.0,4.0,0.0,6.0,6.0,313.1400890415534,8.0,1.0,phase_2,go,300.0,200.0,1.0,,,,,,,,,green,diamond
0.0,4.0,4.0,0.0,5.0,5.0,399.8043620958924,8.0,1.0,phase_2,go,300.0,200.0,1.0,,,,,,,,,green,diamond
0.0,3.0,2.0,0.0,5.0,5.0,413.3012340171262,8.0,1.0,phase_2,go,300.0,200.0,1.0,,,,,,,,,cyan,cross
0.0,5.0,0.5,1.0,5.0,5.0,532.02035499271,8.0,1.0,phase_2,stop,300.0,200.0,3.0,,,,,,,,,white,square
0.0,5.0,0.5,1.0,6.0,0.0,0.0,8.0,1.0,phase_2,stop,250.0,200.0,4.0,,,,,,,,,white,square
0.0,6.0,1.0,1.0,6.0,0.0,0.0,8.0,1.0,phase_2,stop,250.0,250.0,4.0,,,,,,,,,orange,I
0.0,3.0,2.0,0.0,6.0,6.0,547.7008329471573,8.0,1.0,phase_2,go,250.0,300.0,1.0,,,,,,,,,cyan,cross
0.0,3.0,2.0,0.0,6.0,6.0,371.982240001671,8.0,1.0,phase_2,go,250.0,300.0,1.0,,,,,,,,,cyan,cross
0.0,6.0,1.0,1.0,6.0,0.0,0.0,8.0,1.0,phase_2,stop,250.0,300.0,4.0,,,,,,,,,orange,I
0.0,1.0,0.5,0.0,6.0,6.0,619.4038729881868,8.0,1.0,phase_2,go,250.0,350.0,1.0,,,,,,,,,yellow,triangle
0.0,6.0,1.0,1.0,5.0,0.0,0.0,8.0,1.0,phase_2,stop,250.0,350.0,4.0,,,,,,,,,orange,I
0.0,3.0,2.0,0.0,6.0,6.0,432.4767389334738,8.0,1.0,phase_2,go,300.0,350.0,1.0,,,,,,,,,cyan,cross
0.0,3.0,2.0,0.0,6.0,6.0,735.567179042846,8.0,1.0,phase_2,go,300.0,350.0,1.0,,,,,,,,,cyan,cross
0.0,2.0,1.0,0.0,6.0,6.0,561.1767370719463,8.0,1.0,phase_2,go,300.0,350.0,1.0,,,,,,,,,gray,flipped triangle
0.0,6.0,1.0,1.0,5.0,5.0,679.1823870735243,8.0,1.0,phase_2,go,300.0,350.0,1.0,,,,,,,,,orange,I
0.0,4.0,4.0,0.0,5.0,5.0,470.2469480689615,8.0,1.0,phase_2,go,300.0,350.0,1.0,,,,,,,,,green,diamond
0.0,1.0,0.5,0.0,5.0,5.0,247.1856040647253,8.0,1.0,phase_2,go,300.0,350.0,1.0,,,,,,,,,yellow,triangle
0.0,7.0,2.0,1.0,6.0,6.0,255.4868960287422,8.0,1.0,phase_2,stop,300.0,350.0,3.0,,,,,,,,,magenta,hexagon
0.0,6.0,1.0,1.0,5.0,5.0,365.5869329813868,8.0,1.0,phase_2,go,300.0,300.0,1.0,,,,,,,,,orange,I
0.0,6.0,1.0,1.0,7.0,5.0,3190.991942072287,1.0,1.0,phase_3,,,,,176.0,4.0,44.0,88.0,264.0,132.0,176.0,220.0,orange,I
0.0,3.0,2.0,0.0,7.0,3.0,2201.5921459533274,1.0,1.0,phase_3,,,,,156.0,4.0,39.0,117.0,156.0,234.0,195.0,78.0,cyan,cross
0.0,6.0,1.0,1.0,7.0,3.0,1954.150796053,1.0,1.0,phase_3,,,,,270.0,5.0,108.0,54.0,270.0,162.0,324.0,216.0,orange,I
0.0,2.0,1.0,0.0,7.0,2.0,1428.192027960904,1.0,1.0,phase_3,,,,,176.0,4.0,132.0,176.0,264.0,220.0,88.0,44.0,gray,flipped triangle
0.0,5.0,0.5,1.0,7.0,1.0,2337.864684057422,1.0,1.0,phase_3,,,,,132.0,3.0,132.0,88.0,220.0,176.0,44.0,264.0,white,square
0.0,3.0,2.0,0.0,7.0,1.0,1981.487356009893,1.0,1.0,phase_3,,,,,220.0,5.0,220.0,264.0,176.0,44.0,88.0,132.0,cyan,cross
0.0,8.0,4.0,1.0,7.0,4.0,1654.8435719450936,1.0,1.0,phase_3,,,,,98.0,2.0,147.0,294.0,49.0,98.0,196.0,245.0,blue,circle
0.0,1.0,0.5,0.0,7.0,4.0,2745.989189017564,1.0,1.0,phase_3,,,,,136.0,4.0,68.0,170.0,34.0,136.0,204.0,102.0,yellow,triangle
0.0,5.0,0.5,1.0,7.0,4.0,912.1699690585956,1.0,1.0,phase_3,,,,,156.0,4.0,39.0,78.0,234.0,156.0,195.0,117.0,white,square
0.0,4.0,4.0,0.0,7.0,4.0,2601.3622289756318,1.0,1.0,phase_3,,,,,170.0,5.0,68.0,102.0,204.0,170.0,136.0,34.0,green,diamond
0.0,2.0,1.0,0.0,7.0,3.0,2002.5569419376552,1.0,1.0,phase_3,,,,,204.0,6.0,102.0,136.0,204.0,170.0,34.0,68.0,gray,flipped triangle
0.0,2.0,1.0,0.0,7.0,6.0,3524.473559926264,1.0,1.0,phase_3,,,,,196.0,4.0,147.0,98.0,49.0,245.0,294.0,196.0,gray,flipped triangle
0.0,8.0,4.0,1.0,7.0,6.0,2684.6951000625268,1.0,1.0,phase_3,,,,,270.0,5.0,54.0,162.0,324.0,216.0,108.0,270.0,blue,circle
0.0,3.0,2.0,0.0,7.0,5.0,1921.3463780470192,1.0,1.0,phase_3,,,,,270.0,5.0,108.0,162.0,324.0,54.0,270.0,216.0,cyan,cross
0.0,7.0,2.0,1.0,7.0,5.0,2152.3936149897054,1.0,1.0,phase_3,,,,,234.0,6.0,78.0,156.0,117.0,39.0,234.0,195.0,magenta,hexagon
0.0,2.0,1.0,0.0,7.0,5.0,3538.260709028691,1.0,1.0,phase_3,,,,,234.0,6.0,117.0,156.0,78.0,195.0,234.0,39.0,gray,flipped triangle
0.0,8.0,4.0,1.0,7.0,4.0,1867.359466967173,1.0,1.0,phase_3,,,,,245.0,5.0,49.0,98.0,196.0,245.0,294.0,147.0,blue,circle
0.0,5.0,0.5,1.0,7.0,6.0,2036.284621921368,1.0,1.0,phase_3,,,,,176.0,4.0,88.0,44.0,264.0,132.0,220.0,176.0,white,square
0.0,4.0,4.0,0.0,7.0,6.0,3607.131871045567,1.0,1.0,phase_3,,,,,294.0,6.0,245.0,147.0,49.0,98.0,196.0,294.0,green,diamond
0.0,2.0,1.0,0.0,7.0,1.0,3657.377748982981,1.0,1.0,phase_3,,,,,156.0,4.0,156.0,234.0,78.0,117.0,195.0,39.0,gray,flipped triangle
0.0,7.0,2.0,1.0,7.0,5.0,2382.5477820355445,2.0,1.0,phase_3,,,,,44.0,1.0,88.0,220.0,264.0,132.0,44.0,176.0,magenta,hexagon
0.0,6.0,1.0,1.0,7.0,3.0,1662.8891000291333,2.0,1.0,phase_3,,,,,245.0,5.0,147.0,196.0,245.0,294.0,49.0,98.0,orange,I
0.0,4.0,4.0,0.0,7.0,3.0,1017.6665900507942,2.0,1.0,phase_3,,,,,196.0,4.0,245.0,98.0,196.0,294.0,49.0,147.0,green,diamond
0.0,7.0,2.0,1.0,7.0,4.0,1941.5136539610105,2.0,1.0,phase_3,,,,,196.0,4.0,49.0,245.0,147.0,196.0,98.0,294.0,magenta,hexagon
0.0,8.0,4.0,1.0,7.0,3.0,1227.893995936029,2.0,1.0,phase_3,,,,,264.0,6.0,132.0,220.0,264.0,44.0,88.0,176.0,blue,circle
0.0,1.0,0.5,0.0,7.0,3.0,1439.9302329402417,2.0,1.0,phase_3,,,,,204.0,6.0,34.0,68.0,204.0,170.0,102.0,136.0,yellow,triangle
0.0,6.0,1.0,1.0,7.0,4.0,1097.0350810093803,2.0,1.0,phase_3,,,,,78.0,2.0,234.0,39.0,117.0,78.0,156.0,195.0,orange,I
0.0,2.0,1.0,0.0,7.0,3.0,4578.862215974368,2.0,1.0,phase_3,,,,,54.0,1.0,270.0,162.0,54.0,216.0,108.0,324.0,gray,flipped triangle
0.0,3.0,2.0,0.0,7.0,4.0,2304.989288095385,2.0,1.0,phase_3,,,,,195.0,5.0,234.0,156.0,117.0,195.0,78.0,39.0,cyan,cross
0.0,7.0,2.0,1.0,7.0,5.0,1370.266595040448,2.0,1.0,phase_3,,,,,234.0,6.0,117.0,39.0,195.0,156.0,234.0,78.0,magenta,hexagon
0.0,6.0,1.0,1.0,7.0,5.0,2412.300657015294,2.0,1.0,phase_3,,,,,294.0,6.0,98.0,196.0,147.0,245.0,294.0,49.0,orange,I
0.0,1.0,0.5,0.0,7.0,6.0,1483.7014189688489,2.0,1.0,phase_3,,,,,234.0,6.0,117.0,195.0,39.0,156.0,78.0,234.0,yellow,triangle
0.0,1.0,0.5,0.0,7.0,4.0,2484.421833069064,2.0,1.0,phase_3,,,,,234.0,6.0,117.0,39.0,195.0,234.0,78.0,156.0,yellow,triangle
0.0,6.0,1.0,1.0,7.0,6.0,2424.1636529332027,2.0,1.0,phase_3,,,,,204.0,6.0,34.0,102.0,170.0,136.0,68.0,204.0,orange,I
0.0,6.0,1.0,1.0,7.0,1.0,1816.6451439028608,2.0,1.0,phase_3,,,,,176.0,4.0,176.0,220.0,44.0,132.0,88.0,264.0,orange,I
0.0,7.0,2.0,1.0,7.0,4.0,1416.1420739255846,2.0,1.0,phase_3,,,,,176.0,4.0,44.0,132.0,220.0,176.0,88.0,264.0,magenta,hexagon
0.0,8.0,4.0,1.0,7.0,2.0,1853.605676908046,2.0,1.0,phase_3,,,,,204.0,6.0,68.0,204.0,102.0,34.0,170.0,136.0,blue,circle
0.0,3.0,2.0,0.0,7.0,5.0,3412.104547023773,2.0,1.0,phase_3,,,,,204.0,6.0,136.0,170.0,34.0,102.0,204.0,68.0,cyan,cross
0.0,5.0,0.5,1.0,7.0,1.0,2029.0567770134658,2.0,1.0,phase_3,,,,,147.0,3.0,147.0,49.0,245.0,294.0,196.0,98.0,white,square
0.0,7.0,2.0,1.0,7.0,4.0,1960.1902209687976,2.0,1.0,phase_3,,,,,170.0,5.0,136.0,102.0,34.0,170.0,204.0,68.0,magenta,hexagon
0.0,2.0,1.0,0.0,7.0,6.0,3489.1549149760976,3.0,1.0,phase_3,,,,,147.0,3.0,294.0,49.0,196.0,98.0,245.0,147.0,gray,flipped triangle
0.0,5.0,0.5,1.0,7.0,5.0,2139.853600063361,3.0,1.0,phase_3,,,,,162.0,3.0,54.0,108.0,216.0,324.0,162.0,270.0,white,square
0.0,6.0,1.0,1.0,7.0,2.0,2059.834913001396,3.0,1.0,phase_3,,,,,216.0,4.0,324.0,216.0,270.0,108.0,162.0,54.0,orange,I
0.0,1.0,0.5,0.0,7.0,5.0,1395.4516500234604,3.0,1.0,phase_3,,,,,196.0,4.0,294.0,98.0,245.0,147.0,196.0,49.0,yellow,triangle
0.0,3.0,2.0,0.0,7.0,4.0,3452.5524029741064,3.0,1.0,phase_3,,,,,270.0,5.0,54.0,162.0,324.0,270.0,216.0,108.0,cyan,cross
0.0,5.0,0.5,1.0,7.0,4.0,2601.863844902254,3.0,1.0,phase_3,,,,,170.0,5.0,68.0,102.0,204.0,170.0,136.0,34.0,white,square
0.0,4.0,4.0,0.0,7.0,4.0,1883.031481062062,3.0,1.0,phase_3,,,,,264.0,6.0,176.0,44.0,132.0,264.0,88.0,220.0,green,diamond
0.0,7.0,2.0,1.0,7.0,4.0,2344.515918986872,3.0,1.0,phase_3,,,,,270.0,5.0,162.0,108.0,216.0,270.0,324.0,54.0,magenta,hexagon
0.0,3.0,2.0,0.0,7.0,1.0,1892.4150000093505,3.0,1.0,phase_3,,,,,245.0,5.0,245.0,196.0,49.0,98.0,147.0,294.0,cyan,cross
0.0,7.0,2.0,1.0,7.0,3.0,2030.058722011745,3.0,1.0,phase_3,,,,,216.0,4.0,108.0,324.0,216.0,54.0,162.0,270.0,magenta,hexagon
0.0,6.0,1.0,1.0,7.0,3.0,3406.0692180646583,3.0,1.0,phase_3,,,,,195.0,5.0,234.0,156.0,195.0,117.0,78.0,39.0,orange,I
0.0,7.0,2.0,1.0,7.0,3.0,2726.5292230295017,3.0,1.0,phase_3,,,,,245.0,5.0,196.0,147.0,245.0,98.0,49.0,294.0,magenta,hexagon
0.0,8.0,4.0,1.0,7.0,4.0,3680.3018449572846,3.0,1.0,phase_3,,,,,234.0,6.0,78.0,39.0,195.0,234.0,156.0,117.0,blue,circle
0.0,1.0,0.5,0.0,7.0,2.0,2041.4057470625262,3.0,1.0,phase_3,,,,,220.0,5.0,88.0,220.0,44.0,176.0,264.0,132.0,yellow,triangle
0.0,8.0,4.0,1.0,7.0,3.0,1242.2716120490804,3.0,1.0,phase_3,,,,,264.0,6.0,44.0,132.0,264.0,176.0,220.0,88.0,blue,circle
0.0,3.0,2.0,0.0,7.0,4.0,1012.6689380267635,3.0,1.0,phase_3,,,,,88.0,2.0,44.0,264.0,176.0,88.0,220.0,132.0,cyan,cross
0.0,8.0,4.0,1.0,7.0,5.0,1390.736588044092,3.0,1.0,phase_3,,,,,204.0,6.0,34.0,68.0,170.0,102.0,204.0,136.0,blue,circle
0.0,8.0,4.0,1.0,7.0,5.0,1176.0123580461368,3.0,1.0,phase_3,,,,,195.0,5.0,117.0,78.0,234.0,39.0,195.0,156.0,blue,circle
0.0,5.0,0.5,1.0,7.0,3.0,2808.598798932508,3.0,1.0,phase_3,,,,,162.0,3.0,54.0,324.0,162.0,108.0,270.0,216.0,white,square
0.0,4.0,4.0,0.0,7.0,1.0,3091.0707589937374,3.0,1.0,phase_3,,,,,216.0,4.0,216.0,270.0,54.0,162.0,108.0,324.0,green,diamond
0.0,4.0,4.0,0.0,7.0,4.0,3828.625379013829,4.0,1.0,phase_3,,,,,324.0,6.0,108.0,216.0,162.0,324.0,270.0,54.0,green,diamond
0.0,1.0,0.5,0.0,7.0,5.0,1456.311935093254,4.0,1.0,phase_3,,,,,270.0,5.0,54.0,324.0,162.0,108.0,270.0,216.0,yellow,triangle
0.0,5.0,0.5,1.0,7.0,2.0,1194.174044998363,4.0,1.0,phase_3,,,,,102.0,3.0,170.0,102.0,204.0,68.0,34.0,136.0,white,square
0.0,4.0,4.0,0.0,7.0,3.0,1712.649745051749,4.0,1.0,phase_3,,,,,195.0,5.0,234.0,117.0,195.0,78.0,156.0,39.0,green,diamond
0.0,5.0,0.5,1.0,7.0,2.0,2067.7783499704674,4.0,1.0,phase_3,,,,,117.0,3.0,234.0,117.0,156.0,195.0,39.0,78.0,white,square
0.0,3.0,2.0,0.0,7.0,5.0,2876.0305650066584,4.0,1.0,phase_3,,,,,170.0,5.0,102.0,68.0,34.0,204.0,170.0,136.0,cyan,cross
0.0,1.0,0.5,0.0,7.0,2.0,1822.209498030133,4.0,1.0,phase_3,,,,,216.0,4.0,162.0,216.0,324.0,270.0,108.0,54.0,yellow,triangle
0.0,4.0,4.0,0.0,7.0,4.0,1385.315318009816,4.0,1.0,phase_3,,,,,264.0,6.0,44.0,176.0,220.0,264.0,88.0,132.0,green,diamond
0.0,1.0,0.5,0.0,7.0,4.0,1466.0686269635337,4.0,1.0,phase_3,,,,,245.0,5.0,147.0,98.0,196.0,245.0,49.0,294.0,yellow,triangle
0.0,1.0,0.5,0.0,7.0,6.0,2994.7644900530577,4.0,1.0,phase_3,,,,,264.0,6.0,44.0,220.0,88.0,132.0,176.0,264.0,yellow,triangle
0.0,4.0,4.0,0.0,7.0,4.0,2034.6218150807545,4.0,1.0,phase_3,,,,,234.0,6.0,78.0,39.0,117.0,234.0,156.0,195.0,green,diamond
0.0,6.0,1.0,1.0,7.0,2.0,1547.8115000296384,4.0,1.0,phase_3,,,,,136.0,4.0,68.0,136.0,34.0,204.0,102.0,170.0,orange,I
0.0,8.0,4.0,1.0,7.0,2.0,2189.140098984353,4.0,1.0,phase_3,,,,,216.0,4.0,54.0,216.0,270.0,324.0,162.0,108.0,blue,circle
0.0,3.0,2.0,0.0,7.0,4.0,1329.771728022024,4.0,1.0,phase_3,,,,,294.0,6.0,245.0,147.0,49.0,294.0,196.0,98.0,cyan,cross
0.0,5.0,0.5,1.0,7.0,2.0,4169.29619689472,4.0,1.0,phase_3,,,,,147.0,3.0,196.0,147.0,49.0,98.0,245.0,294.0,white,square
0.0,2.0,1.0,0.0,7.0,1.0,2439.522912958637,4.0,1.0,phase_3,,,,,132.0,3.0,132.0,44.0,220.0,88.0,176.0,264.0,gray,flipped triangle
0.0,4.0,4.0,0.0,7.0,6.0,2280.9552720282227,4.0,1.0,phase_3,,,,,204.0,6.0,102.0,170.0,68.0,34.0,136.0,204.0,green,diamond
0.0,2.0,1.0,0.0,7.0,5.0,3094.0514139365405,4.0,1.0,phase_3,,,,,162.0,3.0,108.0,216.0,54.0,324.0,162.0,270.0,gray,flipped triangle
0.0,7.0,2.0,1.0,7.0,5.0,3668.584864004515,4.0,1.0,phase_3,,,,,204.0,6.0,136.0,34.0,170.0,68.0,204.0,102.0,magenta,hexagon
0.0,2.0,1.0,0.0,7.0,1.0,1879.157537943684,4.0,1.0,phase_3,,,,,204.0,6.0,204.0,68.0,136.0,34.0,170.0,102.0,gray,flipped triangle
