raw_reward_magnitude,stim_reward,stepwise_reward_magnitude,paired_with_stopping,quadrant,response,reaction_time,block,num_trial_presentations,which_part,stop_signal_trial_type,left_SSD,right_SSD,accuracy,chosen_bidding_amount,chosen_bidding_level,possible_bid_1,possible_bid_2,possible_bid_3,possible_bid_4,possible_bid_5,possible_bid_6,color_text,shape_text
406.0,8.0,4.0,1.0,1.0,1.0,308.7780319619924,1.0,1.0,part_1,,,,,,,,,,,,,orange,cross
42.0,1.0,1.0,0.0,4.0,4.0,329.6292820014059,1.0,1.0,part_1,,,,,,,,,,,,,gray,I
0.0,7.0,0.0,1.0,1.0,1.0,351.0241480544209,1.0,1.0,part_1,,,,,,,,,,,,,green,hexagon
424.0,8.0,4.0,1.0,4.0,4.0,275.9759549517184,1.0,1.0,part_1,,,,,,,,,,,,,orange,cross
187.0,3.0,3.0,0.0,1.0,1.0,304.6954539604485,1.0,1.0,part_1,,,,,,,,,,,,,blue,triangle
122.0,2.0,2.0,0.0,2.0,2.0,301.2655519414693,1.0,1.0,part_1,,,,,,,,,,,,,magenta,circle
0.0,1.0,0.0,0.0,1.0,1.0,288.9272489119321,1.0,1.0,part_1,,,,,,,,,,,,,gray,I
192.0,3.0,3.0,0.0,2.0,2.0,311.9773860089481,1.0,1.0,part_1,,,,,,,,,,,,,blue,triangle
93.0,2.0,2.0,0.0,4.0,4.0,300.2740021329373,1.0,1.0,part_1,,,,,,,,,,,,,magenta,circle
0.0,4.0,0.0,0.0,2.0,2.0,295.9907660260796,1.0,1.0,part_1,,,,,,,,,,,,,yellow,square
392.0,8.0,4.0,1.0,1.0,1.0,318.3465378824621,1.0,1.0,part_1,,,,,,,,,,,,,orange,cross
185.0,7.0,3.0,1.0,4.0,4.0,297.7769821882248,1.0,1.0,part_1,,,,,,,,,,,,,green,hexagon
104.0,2.0,2.0,0.0,3.0,3.0,295.8957920782268,1.0,1.0,part_1,,,,,,,,,,,,,magenta,circle
85.0,6.0,2.0,1.0,3.0,3.0,337.9092961549759,1.0,1.0,part_1,,,,,,,,,,,,,cyan,flipped triangle
405.0,4.0,4.0,0.0,3.0,3.0,304.4774108566344,1.0,1.0,part_1,,,,,,,,,,,,,yellow,square
80.0,6.0,2.0,1.0,3.0,3.0,305.8723220601678,1.0,2.0,part_1,,,,,,,,,,,,,cyan,flipped triangle
74.0,5.0,1.0,1.0,3.0,3.0,309.028728865087,1.0,1.0,part_1,,,,,,,,,,,,,white,diamond
178.0,3.0,3.0,0.0,2.0,2.0,264.4023490138352,1.0,1.0,part_1,,,,,,,,,,,,,blue,triangle
91.0,6.0,2.0,1.0,4.0,4.0,296.2478089611977,1.0,1.0,part_1,,,,,,,,,,,,,cyan,flipped triangle
199.0,3.0,3.0,0.0,4.0,4.0,364.6874900441617,1.0,1.0,part_1,,,,,,,,,,,,,blue,triangle
214.0,7.0,3.0,1.0,2.0,2.0,304.6564490068704,1.0,1.0,part_1,,,,,,,,,,,,,green,hexagon
42.0,1.0,1.0,0.0,1.0,1.0,301.9170470070094,1.0,1.0,part_1,,,,,,,,,,,,,gray,I
0.0,7.0,0.0,1.0,4.0,4.0,295.6369491294026,1.0,1.0,part_1,,,,,,,,,,,,,green,hexagon
76.0,2.0,2.0,0.0,3.0,3.0,319.774926174432,1.0,1.0,part_1,,,,,,,,,,,,,magenta,circle
29.0,1.0,1.0,0.0,4.0,4.0,291.8941029347479,1.0,1.0,part_1,,,,,,,,,,,,,gray,I
42.0,5.0,1.0,1.0,1.0,1.0,271.7137720901519,1.0,1.0,part_1,,,,,,,,,,,,,white,diamond
203.0,7.0,3.0,1.0,3.0,3.0,299.7282878495753,1.0,1.0,part_1,,,,,,,,,,,,,green,hexagon
386.0,8.0,4.0,1.0,4.0,4.0,275.172570021823,1.0,1.0,part_1,,,,,,,,,,,,,orange,cross
0.0,4.0,0.0,0.0,1.0,1.0,278.8164701778441,1.0,1.0,part_1,,,,,,,,,,,,,yellow,square
100.0,2.0,2.0,0.0,2.0,2.0,328.9660299196839,1.0,2.0,part_1,,,,,,,,,,,,,magenta,circle
224.0,7.0,3.0,1.0,3.0,3.0,326.0945370420813,1.0,1.0,part_1,,,,,,,,,,,,,green,hexagon
412.0,4.0,4.0,0.0,1.0,1.0,286.9926569983363,1.0,1.0,part_1,,,,,,,,,,,,,yellow,square
87.0,6.0,2.0,1.0,4.0,4.0,299.6463538147509,1.0,1.0,part_1,,,,,,,,,,,,,cyan,flipped triangle
56.0,1.0,1.0,0.0,2.0,2.0,283.4993090946227,1.0,1.0,part_1,,,,,,,,,,,,,gray,I
42.0,1.0,1.0,0.0,4.0,4.0,295.0640849303454,1.0,1.0,part_1,,,,,,,,,,,,,gray,I
188.0,7.0,3.0,1.0,1.0,1.0,275.6873699836433,1.0,1.0,part_1,,,,,,,,,,,,,green,hexagon
0.0,4.0,0.0,0.0,2.0,2.0,381.7730580922216,1.0,1.0,part_1,,,,,,,,,,,,,yellow,square
419.0,4.0,4.0,0.0,2.0,2.0,323.4372499864548,1.0,1.0,part_1,,,,,,,,,,,,,yellow,square
0.0,2.0,0.0,0.0,2.0,2.0,279.9239631276577,1.0,1.0,part_1,,,,,,,,,,,,,magenta,circle
188.0,3.0,3.0,0.0,4.0,4.0,292.4670521169901,1.0,1.0,part_1,,,,,,,,,,,,,blue,triangle
91.0,2.0,2.0,0.0,3.0,3.0,292.5420869141817,1.0,1.0,part_1,,,,,,,,,,,,,magenta,circle
0.0,1.0,0.0,0.0,2.0,2.0,301.0245801415294,1.0,1.0,part_1,,,,,,,,,,,,,gray,I
80.0,2.0,2.0,0.0,4.0,4.0,267.4397102091461,1.0,1.0,part_1,,,,,,,,,,,,,magenta,circle
52.0,1.0,1.0,0.0,4.0,4.0,295.5423691309988,1.0,1.0,part_1,,,,,,,,,,,,,gray,I
0.0,5.0,0.0,1.0,3.0,3.0,291.7372840456664,1.0,2.0,part_1,,,,,,,,,,,,,white,diamond
39.0,1.0,1.0,0.0,2.0,2.0,303.8734039291739,1.0,1.0,part_1,,,,,,,,,,,,,gray,I
87.0,6.0,2.0,1.0,4.0,4.0,285.399799933657,1.0,1.0,part_1,,,,,,,,,,,,,cyan,flipped triangle
380.0,8.0,4.0,1.0,3.0,3.0,287.5364909414202,1.0,1.0,part_1,,,,,,,,,,,,,orange,cross
66.0,5.0,1.0,1.0,3.0,3.0,279.238659190014,1.0,1.0,part_1,,,,,,,,,,,,,white,diamond
26.0,5.0,1.0,1.0,3.0,3.0,288.2787189446389,1.0,1.0,part_1,,,,,,,,,,,,,white,diamond
39.0,1.0,1.0,0.0,3.0,3.0,262.2105740010738,1.0,1.0,part_1,,,,,,,,,,,,,gray,I
28.0,5.0,1.0,1.0,1.0,1.0,266.3892349228263,1.0,1.0,part_1,,,,,,,,,,,,,white,diamond
181.0,3.0,3.0,0.0,3.0,3.0,311.6252690088004,1.0,1.0,part_1,,,,,,,,,,,,,blue,triangle
0.0,6.0,0.0,1.0,2.0,2.0,266.5151210967451,1.0,1.0,part_1,,,,,,,,,,,,,cyan,flipped triangle
0.0,8.0,0.0,1.0,3.0,3.0,336.0103429295122,1.0,1.0,part_1,,,,,,,,,,,,,orange,cross
214.0,7.0,3.0,1.0,4.0,4.0,315.9107179380953,1.0,1.0,part_1,,,,,,,,,,,,,green,hexagon
181.0,7.0,3.0,1.0,3.0,3.0,261.8556858506053,1.0,2.0,part_1,,,,,,,,,,,,,green,hexagon
0.0,4.0,0.0,0.0,2.0,2.0,258.5010570473969,1.0,1.0,part_1,,,,,,,,,,,,,yellow,square
66.0,1.0,1.0,0.0,1.0,1.0,294.7107760701328,1.0,1.0,part_1,,,,,,,,,,,,,gray,I
0.0,7.0,0.0,1.0,2.0,2.0,274.7211260721087,1.0,1.0,part_1,,,,,,,,,,,,,green,hexagon
423.0,4.0,4.0,0.0,3.0,3.0,287.7125712111592,1.0,1.0,part_1,,,,,,,,,,,,,yellow,square
28.0,1.0,1.0,0.0,1.0,1.0,287.7927941735834,1.0,1.0,part_1,,,,,,,,,,,,,gray,I
0.0,1.0,0.0,0.0,3.0,3.0,313.2716189138591,1.0,1.0,part_1,,,,,,,,,,,,,gray,I
0.0,5.0,0.0,1.0,1.0,1.0,303.9948579389602,1.0,1.0,part_1,,,,,,,,,,,,,white,diamond
78.0,6.0,2.0,1.0,4.0,4.0,283.284611068666,1.0,1.0,part_1,,,,,,,,,,,,,cyan,flipped triangle
39.0,5.0,1.0,1.0,3.0,3.0,313.0370648577809,1.0,1.0,part_1,,,,,,,,,,,,,white,diamond
96.0,2.0,2.0,0.0,1.0,1.0,280.1225739531219,1.0,1.0,part_1,,,,,,,,,,,,,magenta,circle
51.0,5.0,1.0,1.0,3.0,3.0,259.7513480577618,1.0,1.0,part_1,,,,,,,,,,,,,white,diamond
0.0,8.0,0.0,1.0,1.0,1.0,304.6567179262638,1.0,1.0,part_1,,,,,,,,,,,,,orange,cross
387.0,4.0,4.0,0.0,1.0,1.0,283.1632390152663,1.0,1.0,part_1,,,,,,,,,,,,,yellow,square
29.0,5.0,1.0,1.0,1.0,1.0,338.4271301329136,1.0,1.0,part_1,,,,,,,,,,,,,white,diamond
224.0,7.0,3.0,1.0,2.0,2.0,262.9467910155654,1.0,1.0,part_1,,,,,,,,,,,,,green,hexagon
31.0,1.0,1.0,0.0,3.0,3.0,312.2405910398811,1.0,1.0,part_1,,,,,,,,,,,,,gray,I
81.0,6.0,2.0,1.0,4.0,4.0,313.0818598438054,1.0,1.0,part_1,,,,,,,,,,,,,cyan,flipped triangle
183.0,3.0,3.0,0.0,1.0,1.0,275.7250689901411,1.0,1.0,part_1,,,,,,,,,,,,,blue,triangle
207.0,3.0,3.0,0.0,1.0,1.0,271.0291892290115,1.0,1.0,part_1,,,,,,,,,,,,,blue,triangle
74.0,1.0,1.0,0.0,3.0,3.0,275.5569699220359,1.0,1.0,part_1,,,,,,,,,,,,,gray,I
181.0,7.0,3.0,1.0,4.0,4.0,242.85964178852728,1.0,1.0,part_1,,,,,,,,,,,,,green,hexagon
119.0,6.0,2.0,1.0,3.0,3.0,278.7930038757622,1.0,1.0,part_1,,,,,,,,,,,,,cyan,flipped triangle
124.0,2.0,2.0,0.0,2.0,2.0,283.4115501027554,1.0,1.0,part_1,,,,,,,,,,,,,magenta,circle
209.0,3.0,3.0,0.0,2.0,2.0,291.4988631382584,1.0,2.0,part_1,,,,,,,,,,,,,blue,triangle
42.0,5.0,1.0,1.0,4.0,4.0,290.1216489262879,1.0,1.0,part_1,,,,,,,,,,,,,white,diamond
406.0,4.0,4.0,0.0,4.0,4.0,414.468795992434,1.0,1.0,part_1,,,,,,,,,,,,,yellow,square
102.0,2.0,2.0,0.0,1.0,1.0,353.0038988683373,1.0,1.0,part_1,,,,,,,,,,,,,magenta,circle
0.0,7.0,0.0,1.0,2.0,2.0,296.7179180122912,1.0,1.0,part_1,,,,,,,,,,,,,green,hexagon
75.0,1.0,1.0,0.0,2.0,2.0,316.9527468271553,1.0,1.0,part_1,,,,,,,,,,,,,gray,I
412.0,8.0,4.0,1.0,2.0,2.0,288.0447581410408,1.0,1.0,part_1,,,,,,,,,,,,,orange,cross
56.0,5.0,1.0,1.0,4.0,4.0,267.3550059553236,1.0,1.0,part_1,,,,,,,,,,,,,white,diamond
213.0,3.0,3.0,0.0,4.0,4.0,275.9205310139805,1.0,1.0,part_1,,,,,,,,,,,,,blue,triangle
0.0,8.0,0.0,1.0,4.0,4.0,332.6872501056641,1.0,1.0,part_1,,,,,,,,,,,,,orange,cross
26.0,1.0,1.0,0.0,2.0,2.0,234.6848531160503,1.0,1.0,part_1,,,,,,,,,,,,,gray,I
183.0,7.0,3.0,1.0,1.0,1.0,279.0621928870678,1.0,1.0,part_1,,,,,,,,,,,,,green,hexagon
0.0,4.0,0.0,0.0,1.0,1.0,313.0188270006329,1.0,2.0,part_1,,,,,,,,,,,,,yellow,square
113.0,6.0,2.0,1.0,1.0,1.0,340.1432379614562,1.0,1.0,part_1,,,,,,,,,,,,,cyan,flipped triangle
207.0,7.0,3.0,1.0,1.0,1.0,307.625571032986,1.0,1.0,part_1,,,,,,,,,,,,,green,hexagon
217.0,3.0,3.0,0.0,1.0,1.0,304.1221080347895,1.0,1.0,part_1,,,,,,,,,,,,,blue,triangle
392.0,4.0,4.0,0.0,2.0,2.0,290.4517971910536,1.0,1.0,part_1,,,,,,,,,,,,,yellow,square
91.0,2.0,2.0,0.0,2.0,2.0,278.8128841202706,1.0,1.0,part_1,,,,,,,,,,,,,magenta,circle
0.0,2.0,0.0,0.0,1.0,1.0,325.8170718327164,1.0,1.0,part_1,,,,,,,,,,,,,magenta,circle
120.0,6.0,2.0,1.0,3.0,3.0,361.9431010447442,1.0,1.0,part_1,,,,,,,,,,,,,cyan,flipped triangle
0.0,3.0,0.0,0.0,1.0,1.0,339.8097481112927,2.0,1.0,part_1,,,,,,,,,,,,,blue,triangle
418.0,8.0,4.0,1.0,4.0,4.0,292.0669850427657,2.0,1.0,part_1,,,,,,,,,,,,,orange,cross
418.0,4.0,4.0,0.0,1.0,1.0,271.3959389366209,2.0,1.0,part_1,,,,,,,,,,,,,yellow,square
98.0,2.0,2.0,0.0,1.0,1.0,291.8310090899467,2.0,1.0,part_1,,,,,,,,,,,,,magenta,circle
48.0,1.0,1.0,0.0,2.0,2.0,303.8929989561438,2.0,1.0,part_1,,,,,,,,,,,,,gray,I
95.0,6.0,2.0,1.0,2.0,2.0,302.6544421445578,2.0,1.0,part_1,,,,,,,,,,,,,cyan,flipped triangle
190.0,3.0,3.0,0.0,3.0,3.0,266.8009081389755,2.0,1.0,part_1,,,,,,,,,,,,,blue,triangle
417.0,4.0,4.0,0.0,1.0,1.0,271.864604903385,2.0,1.0,part_1,,,,,,,,,,,,,yellow,square
0.0,2.0,0.0,0.0,3.0,3.0,281.111182179302,2.0,1.0,part_1,,,,,,,,,,,,,magenta,circle
397.0,8.0,4.0,1.0,3.0,3.0,287.7962798811495,2.0,1.0,part_1,,,,,,,,,,,,,orange,cross
210.0,3.0,3.0,0.0,3.0,3.0,299.2605909239501,2.0,1.0,part_1,,,,,,,,,,,,,blue,triangle
99.0,6.0,2.0,1.0,4.0,4.0,259.0432509314269,2.0,1.0,part_1,,,,,,,,,,,,,cyan,flipped triangle
0.0,5.0,0.0,1.0,4.0,4.0,317.838239017874,2.0,1.0,part_1,,,,,,,,,,,,,white,diamond
111.0,2.0,2.0,0.0,4.0,4.0,288.4182380512357,2.0,1.0,part_1,,,,,,,,,,,,,magenta,circle
64.0,5.0,1.0,1.0,3.0,3.0,296.1869959253818,2.0,1.0,part_1,,,,,,,,,,,,,white,diamond
95.0,2.0,2.0,0.0,2.0,2.0,252.3767279926687,2.0,1.0,part_1,,,,,,,,,,,,,magenta,circle
392.0,8.0,4.0,1.0,1.0,1.0,272.7890938986093,2.0,1.0,part_1,,,,,,,,,,,,,orange,cross
397.0,8.0,4.0,1.0,3.0,3.0,309.8637119401246,2.0,1.0,part_1,,,,,,,,,,,,,orange,cross
206.0,3.0,3.0,0.0,3.0,3.0,296.9821509905159,2.0,1.0,part_1,,,,,,,,,,,,,blue,triangle
109.0,2.0,2.0,0.0,1.0,1.0,280.0331080798059,2.0,1.0,part_1,,,,,,,,,,,,,magenta,circle
49.0,5.0,1.0,1.0,1.0,1.0,291.5068231523037,2.0,1.0,part_1,,,,,,,,,,,,,white,diamond
0.0,6.0,0.0,1.0,4.0,4.0,304.9774419050663,2.0,1.0,part_1,,,,,,,,,,,,,cyan,flipped triangle
213.0,7.0,3.0,1.0,3.0,3.0,242.7695700898766,2.0,1.0,part_1,,,,,,,,,,,,,green,hexagon
188.0,3.0,3.0,0.0,1.0,1.0,263.2991129066795,2.0,1.0,part_1,,,,,,,,,,,,,blue,triangle
199.0,7.0,3.0,1.0,3.0,3.0,238.4676709771156,2.0,1.0,part_1,,,,,,,,,,,,,green,hexagon
196.0,7.0,3.0,1.0,4.0,4.0,264.8523279931396,2.0,1.0,part_1,,,,,,,,,,,,,green,hexagon
0.0,1.0,0.0,0.0,4.0,4.0,263.1507387850433,2.0,1.0,part_1,,,,,,,,,,,,,gray,I
0.0,2.0,0.0,0.0,3.0,3.0,284.3145770020783,2.0,1.0,part_1,,,,,,,,,,,,,magenta,circle
58.0,1.0,1.0,0.0,1.0,1.0,279.5135790947824,2.0,1.0,part_1,,,,,,,,,,,,,gray,I
63.0,5.0,1.0,1.0,2.0,2.0,262.9625778645277,2.0,1.0,part_1,,,,,,,,,,,,,white,diamond
0.0,3.0,0.0,0.0,1.0,1.0,336.9054109789431,2.0,1.0,part_1,,,,,,,,,,,,,blue,triangle
63.0,1.0,1.0,0.0,3.0,3.0,288.4806529618799,2.0,1.0,part_1,,,,,,,,,,,,,gray,I
65.0,1.0,1.0,0.0,1.0,1.0,226.1752688791602,2.0,1.0,part_1,,,,,,,,,,,,,gray,I
0.0,4.0,0.0,0.0,4.0,4.0,254.41500102169812,2.0,1.0,part_1,,,,,,,,,,,,,yellow,square
35.0,5.0,1.0,1.0,2.0,2.0,235.3463531471789,2.0,1.0,part_1,,,,,,,,,,,,,white,diamond
100.0,6.0,2.0,1.0,1.0,1.0,289.8286140989512,2.0,1.0,part_1,,,,,,,,,,,,,cyan,flipped triangle
206.0,7.0,3.0,1.0,3.0,3.0,263.5334269143641,2.0,1.0,part_1,,,,,,,,,,,,,green,hexagon
74.0,5.0,1.0,1.0,4.0,4.0,300.9782498702407,2.0,1.0,part_1,,,,,,,,,,,,,white,diamond
47.0,1.0,1.0,0.0,4.0,4.0,329.4162440579384,2.0,1.0,part_1,,,,,,,,,,,,,gray,I
417.0,8.0,4.0,1.0,4.0,4.0,260.2664849255234,2.0,1.0,part_1,,,,,,,,,,,,,orange,cross
418.0,4.0,4.0,0.0,2.0,2.0,271.6479108203202,2.0,1.0,part_1,,,,,,,,,,,,,yellow,square
52.0,1.0,1.0,0.0,1.0,1.0,299.7383689507842,2.0,1.0,part_1,,,,,,,,,,,,,gray,I
0.0,6.0,0.0,1.0,4.0,4.0,251.0761828161776,2.0,1.0,part_1,,,,,,,,,,,,,cyan,flipped triangle
0.0,3.0,0.0,0.0,1.0,1.0,296.4034129399806,2.0,1.0,part_1,,,,,,,,,,,,,blue,triangle
0.0,7.0,0.0,1.0,4.0,4.0,249.9890539329499,2.0,1.0,part_1,,,,,,,,,,,,,green,hexagon
199.0,7.0,3.0,1.0,4.0,4.0,263.2989101111889,2.0,1.0,part_1,,,,,,,,,,,,,green,hexagon
423.0,8.0,4.0,1.0,2.0,2.0,261.8428419809788,2.0,1.0,part_1,,,,,,,,,,,,,orange,cross
48.0,5.0,1.0,1.0,1.0,1.0,328.3084139693528,2.0,1.0,part_1,,,,,,,,,,,,,white,diamond
55.0,5.0,1.0,1.0,3.0,3.0,302.3629679810256,2.0,1.0,part_1,,,,,,,,,,,,,white,diamond
77.0,6.0,2.0,1.0,1.0,1.0,291.8450178112834,2.0,1.0,part_1,,,,,,,,,,,,,cyan,flipped triangle
406.0,4.0,4.0,0.0,1.0,1.0,304.1007141582668,2.0,1.0,part_1,,,,,,,,,,,,,yellow,square
0.0,6.0,0.0,1.0,2.0,2.0,274.0442720241844,2.0,1.0,part_1,,,,,,,,,,,,,cyan,flipped triangle
122.0,6.0,2.0,1.0,4.0,4.0,295.5512239132076,2.0,1.0,part_1,,,,,,,,,,,,,cyan,flipped triangle
386.0,4.0,4.0,0.0,4.0,4.0,272.1163691021502,2.0,1.0,part_1,,,,,,,,,,,,,yellow,square
0.0,1.0,0.0,0.0,1.0,1.0,257.7272630296647,2.0,1.0,part_1,,,,,,,,,,,,,gray,I
193.0,3.0,3.0,0.0,3.0,3.0,249.360139016062,2.0,1.0,part_1,,,,,,,,,,,,,blue,triangle
422.0,4.0,4.0,0.0,3.0,3.0,317.2043960075825,2.0,1.0,part_1,,,,,,,,,,,,,yellow,square
385.0,4.0,4.0,0.0,1.0,1.0,279.581761918962,2.0,1.0,part_1,,,,,,,,,,,,,yellow,square
404.0,8.0,4.0,1.0,3.0,3.0,307.750818086788,2.0,1.0,part_1,,,,,,,,,,,,,orange,cross
75.0,5.0,1.0,1.0,4.0,4.0,283.9249190874398,2.0,1.0,part_1,,,,,,,,,,,,,white,diamond
68.0,1.0,1.0,0.0,1.0,1.0,277.5776381604373,2.0,1.0,part_1,,,,,,,,,,,,,gray,I
122.0,2.0,2.0,0.0,4.0,4.0,337.9146000370383,2.0,1.0,part_1,,,,,,,,,,,,,magenta,circle
0.0,2.0,0.0,0.0,2.0,2.0,254.89004491828382,2.0,1.0,part_1,,,,,,,,,,,,,magenta,circle
106.0,6.0,2.0,1.0,3.0,3.0,276.7597769852727,2.0,1.0,part_1,,,,,,,,,,,,,cyan,flipped triangle
0.0,8.0,0.0,1.0,1.0,1.0,281.0583477839827,2.0,1.0,part_1,,,,,,,,,,,,,orange,cross
122.0,6.0,2.0,1.0,1.0,1.0,337.5915179494768,2.0,2.0,part_1,,,,,,,,,,,,,cyan,flipped triangle
192.0,7.0,3.0,1.0,4.0,4.0,254.1228961199522,2.0,1.0,part_1,,,,,,,,,,,,,green,hexagon
27.0,1.0,1.0,0.0,2.0,2.0,274.5843350421637,2.0,1.0,part_1,,,,,,,,,,,,,gray,I
0.0,5.0,0.0,1.0,3.0,3.0,250.02741301432252,2.0,1.0,part_1,,,,,,,,,,,,,white,diamond
87.0,2.0,2.0,0.0,3.0,3.0,287.6138330902904,2.0,1.0,part_1,,,,,,,,,,,,,magenta,circle
107.0,2.0,2.0,0.0,2.0,2.0,267.1919299755245,2.0,1.0,part_1,,,,,,,,,,,,,magenta,circle
0.0,2.0,0.0,0.0,3.0,3.0,328.7126568611711,2.0,1.0,part_1,,,,,,,,,,,,,magenta,circle
198.0,3.0,3.0,0.0,4.0,4.0,324.4843040592968,2.0,1.0,part_1,,,,,,,,,,,,,blue,triangle
87.0,2.0,2.0,0.0,1.0,1.0,263.2464040070772,2.0,1.0,part_1,,,,,,,,,,,,,magenta,circle
0.0,6.0,0.0,1.0,3.0,3.0,250.83059002645308,2.0,1.0,part_1,,,,,,,,,,,,,cyan,flipped triangle
422.0,4.0,4.0,0.0,1.0,1.0,351.4977900777012,2.0,1.0,part_1,,,,,,,,,,,,,yellow,square
0.0,4.0,0.0,0.0,3.0,3.0,271.6104469727725,2.0,1.0,part_1,,,,,,,,,,,,,yellow,square
0.0,5.0,0.0,1.0,4.0,4.0,275.2212819177657,2.0,1.0,part_1,,,,,,,,,,,,,white,diamond
33.0,1.0,1.0,0.0,3.0,3.0,439.1870109830051,2.0,1.0,part_1,,,,,,,,,,,,,gray,I
58.0,5.0,1.0,1.0,2.0,2.0,258.500836091116,2.0,1.0,part_1,,,,,,,,,,,,,white,diamond
0.0,6.0,0.0,1.0,2.0,2.0,278.9695931132883,2.0,1.0,part_1,,,,,,,,,,,,,cyan,flipped triangle
0.0,8.0,0.0,1.0,1.0,1.0,340.478413971141,2.0,1.0,part_1,,,,,,,,,,,,,orange,cross
0.0,3.0,0.0,0.0,3.0,3.0,259.0266389306634,2.0,1.0,part_1,,,,,,,,,,,,,blue,triangle
36.0,5.0,1.0,1.0,4.0,4.0,341.4735021069646,2.0,1.0,part_1,,,,,,,,,,,,,white,diamond
214.0,3.0,3.0,0.0,4.0,4.0,274.8469000216573,2.0,1.0,part_1,,,,,,,,,,,,,blue,triangle
401.0,4.0,4.0,0.0,3.0,3.0,295.4875910654664,2.0,1.0,part_1,,,,,,,,,,,,,yellow,square
42.0,5.0,1.0,1.0,4.0,4.0,287.4695630744099,2.0,1.0,part_1,,,,,,,,,,,,,white,diamond
106.0,2.0,2.0,0.0,1.0,1.0,304.0302831213921,2.0,1.0,part_1,,,,,,,,,,,,,magenta,circle
84.0,2.0,2.0,0.0,1.0,1.0,279.9815500620752,2.0,1.0,part_1,,,,,,,,,,,,,magenta,circle
378.0,4.0,4.0,0.0,1.0,1.0,275.321883149445,2.0,1.0,part_1,,,,,,,,,,,,,yellow,square
397.0,4.0,4.0,0.0,4.0,4.0,288.4836141020059,2.0,1.0,part_1,,,,,,,,,,,,,yellow,square
412.0,8.0,4.0,1.0,3.0,3.0,301.5618978533894,2.0,1.0,part_1,,,,,,,,,,,,,orange,cross
113.0,2.0,2.0,0.0,1.0,1.0,258.3006089553237,2.0,1.0,part_1,,,,,,,,,,,,,magenta,circle
0.0,5.0,0.0,1.0,2.0,2.0,292.2087940387428,2.0,1.0,part_1,,,,,,,,,,,,,white,diamond
124.0,6.0,2.0,1.0,1.0,1.0,297.6338209118694,2.0,1.0,part_1,,,,,,,,,,,,,cyan,flipped triangle
402.0,4.0,4.0,0.0,4.0,4.0,272.6623378694057,2.0,1.0,part_1,,,,,,,,,,,,,yellow,square
201.0,7.0,3.0,1.0,3.0,3.0,275.7239472121,2.0,1.0,part_1,,,,,,,,,,,,,green,hexagon
99.0,2.0,2.0,0.0,3.0,3.0,286.7384778801352,2.0,1.0,part_1,,,,,,,,,,,,,magenta,circle
194.0,3.0,3.0,0.0,3.0,3.0,308.1454369239509,2.0,1.0,part_1,,,,,,,,,,,,,blue,triangle
214.0,3.0,3.0,0.0,4.0,4.0,291.27295780926937,2.0,1.0,part_1,,,,,,,,,,,,,blue,triangle
402.0,8.0,4.0,1.0,3.0,3.0,408.8411550037563,3.0,1.0,part_1,,,,,,,,,,,,,orange,cross
82.0,6.0,2.0,1.0,2.0,2.0,321.1762190330773,3.0,1.0,part_1,,,,,,,,,,,,,cyan,flipped triangle
119.0,2.0,2.0,0.0,4.0,4.0,280.3444401361048,3.0,1.0,part_1,,,,,,,,,,,,,magenta,circle
218.0,7.0,3.0,1.0,4.0,4.0,275.5118429195136,3.0,1.0,part_1,,,,,,,,,,,,,green,hexagon
193.0,7.0,3.0,1.0,3.0,3.0,279.7515538986772,3.0,1.0,part_1,,,,,,,,,,,,,green,hexagon
185.0,3.0,3.0,0.0,2.0,2.0,292.3708080779761,3.0,1.0,part_1,,,,,,,,,,,,,blue,triangle
188.0,7.0,3.0,1.0,2.0,2.0,291.824827902019,3.0,1.0,part_1,,,,,,,,,,,,,green,hexagon
33.0,5.0,1.0,1.0,1.0,1.0,304.3596621137112,3.0,1.0,part_1,,,,,,,,,,,,,white,diamond
181.0,3.0,3.0,0.0,4.0,4.0,300.7084261626005,3.0,1.0,part_1,,,,,,,,,,,,,blue,triangle
33.0,5.0,1.0,1.0,3.0,3.0,337.1235518716275,3.0,1.0,part_1,,,,,,,,,,,,,white,diamond
35.0,1.0,1.0,0.0,3.0,3.0,276.0419549886137,3.0,1.0,part_1,,,,,,,,,,,,,gray,I
388.0,8.0,4.0,1.0,1.0,1.0,258.5606598295271,3.0,1.0,part_1,,,,,,,,,,,,,orange,cross
378.0,8.0,4.0,1.0,2.0,2.0,287.0626661460846,3.0,1.0,part_1,,,,,,,,,,,,,orange,cross
0.0,1.0,0.0,0.0,3.0,3.0,275.6436849012971,3.0,1.0,part_1,,,,,,,,,,,,,gray,I
77.0,6.0,2.0,1.0,2.0,2.0,272.4512498825788,3.0,1.0,part_1,,,,,,,,,,,,,cyan,flipped triangle
73.0,1.0,1.0,0.0,2.0,2.0,282.6551229227334,3.0,1.0,part_1,,,,,,,,,,,,,gray,I
29.0,1.0,1.0,0.0,4.0,4.0,249.8108549043536,3.0,1.0,part_1,,,,,,,,,,,,,gray,I
56.0,5.0,1.0,1.0,2.0,2.0,237.5190539751202,3.0,1.0,part_1,,,,,,,,,,,,,white,diamond
74.0,1.0,1.0,0.0,4.0,4.0,265.3089989908039,3.0,1.0,part_1,,,,,,,,,,,,,gray,I
118.0,6.0,2.0,1.0,1.0,1.0,295.8121958654374,3.0,1.0,part_1,,,,,,,,,,,,,cyan,flipped triangle
0.0,3.0,0.0,0.0,2.0,2.0,299.0897570271045,3.0,1.0,part_1,,,,,,,,,,,,,blue,triangle
187.0,3.0,3.0,0.0,2.0,2.0,266.9208131264895,3.0,1.0,part_1,,,,,,,,,,,,,blue,triangle
0.0,1.0,0.0,0.0,3.0,3.0,284.0980391483754,3.0,1.0,part_1,,,,,,,,,,,,,gray,I
380.0,4.0,4.0,0.0,4.0,4.0,267.2149811405688,3.0,1.0,part_1,,,,,,,,,,,,,yellow,square
96.0,6.0,2.0,1.0,4.0,4.0,304.5607500243932,3.0,1.0,part_1,,,,,,,,,,,,,cyan,flipped triangle
209.0,7.0,3.0,1.0,2.0,2.0,242.4665971193462,3.0,1.0,part_1,,,,,,,,,,,,,green,hexagon
119.0,6.0,2.0,1.0,3.0,3.0,305.9227759949863,3.0,1.0,part_1,,,,,,,,,,,,,cyan,flipped triangle
405.0,8.0,4.0,1.0,4.0,4.0,259.6215528901666,3.0,1.0,part_1,,,,,,,,,,,,,orange,cross
201.0,3.0,3.0,0.0,3.0,3.0,337.5644839834422,3.0,1.0,part_1,,,,,,,,,,,,,blue,triangle
52.0,1.0,1.0,0.0,3.0,3.0,356.9841999560594,3.0,1.0,part_1,,,,,,,,,,,,,gray,I
391.0,8.0,4.0,1.0,1.0,1.0,370.0051698833704,3.0,2.0,part_1,,,,,,,,,,,,,orange,cross
0.0,4.0,0.0,0.0,4.0,4.0,268.5596290975809,3.0,1.0,part_1,,,,,,,,,,,,,yellow,square
380.0,4.0,4.0,0.0,2.0,2.0,251.09101389534771,3.0,1.0,part_1,,,,,,,,,,,,,yellow,square
82.0,2.0,2.0,0.0,4.0,4.0,374.5375059079379,3.0,1.0,part_1,,,,,,,,,,,,,magenta,circle
376.0,4.0,4.0,0.0,4.0,4.0,274.3434698786586,3.0,1.0,part_1,,,,,,,,,,,,,yellow,square
406.0,8.0,4.0,1.0,4.0,4.0,295.7548620179295,3.0,1.0,part_1,,,,,,,,,,,,,orange,cross
107.0,6.0,2.0,1.0,2.0,2.0,254.00510104373097,3.0,1.0,part_1,,,,,,,,,,,,,cyan,flipped triangle
199.0,3.0,3.0,0.0,1.0,1.0,352.950433967635,3.0,1.0,part_1,,,,,,,,,,,,,blue,triangle
422.0,8.0,4.0,1.0,3.0,3.0,323.7370869610458,3.0,1.0,part_1,,,,,,,,,,,,,orange,cross
102.0,6.0,2.0,1.0,2.0,2.0,280.0543510820716,3.0,1.0,part_1,,,,,,,,,,,,,cyan,flipped triangle
0.0,6.0,0.0,1.0,4.0,4.0,295.0566480867564,3.0,1.0,part_1,,,,,,,,,,,,,cyan,flipped triangle
385.0,8.0,4.0,1.0,3.0,3.0,308.3419380709529,3.0,1.0,part_1,,,,,,,,,,,,,orange,cross
0.0,2.0,0.0,0.0,2.0,2.0,312.377868918702,3.0,1.0,part_1,,,,,,,,,,,,,magenta,circle
109.0,2.0,2.0,0.0,4.0,4.0,254.17817709967488,3.0,1.0,part_1,,,,,,,,,,,,,magenta,circle
39.0,5.0,1.0,1.0,1.0,1.0,287.5898468773812,3.0,1.0,part_1,,,,,,,,,,,,,white,diamond
383.0,4.0,4.0,0.0,3.0,3.0,263.6516019701957,3.0,1.0,part_1,,,,,,,,,,,,,yellow,square
402.0,4.0,4.0,0.0,2.0,2.0,259.2873449902981,3.0,1.0,part_1,,,,,,,,,,,,,yellow,square
217.0,7.0,3.0,1.0,1.0,1.0,288.8439819216728,3.0,1.0,part_1,,,,,,,,,,,,,green,hexagon
402.0,8.0,4.0,1.0,1.0,1.0,342.078295070678,3.0,1.0,part_1,,,,,,,,,,,,,orange,cross
216.0,7.0,3.0,1.0,3.0,3.0,312.9598579835146,3.0,1.0,part_1,,,,,,,,,,,,,green,hexagon
51.0,1.0,1.0,0.0,4.0,4.0,342.5010810606181,3.0,1.0,part_1,,,,,,,,,,,,,gray,I
0.0,1.0,0.0,0.0,3.0,3.0,321.826706174761,3.0,1.0,part_1,,,,,,,,,,,,,gray,I
0.0,6.0,0.0,1.0,4.0,4.0,296.331746969372,3.0,1.0,part_1,,,,,,,,,,,,,cyan,flipped triangle
73.0,5.0,1.0,1.0,4.0,4.0,325.7833567913621,3.0,1.0,part_1,,,,,,,,,,,,,white,diamond
0.0,5.0,0.0,1.0,3.0,3.0,264.2283109016716,3.0,1.0,part_1,,,,,,,,,,,,,white,diamond
187.0,7.0,3.0,1.0,2.0,2.0,292.3987000249326,3.0,1.0,part_1,,,,,,,,,,,,,green,hexagon
64.0,1.0,1.0,0.0,4.0,4.0,315.8890071790665,3.0,1.0,part_1,,,,,,,,,,,,,gray,I
376.0,8.0,4.0,1.0,2.0,2.0,310.5277649592608,3.0,1.0,part_1,,,,,,,,,,,,,orange,cross
395.0,4.0,4.0,0.0,2.0,2.0,291.1820290610194,3.0,1.0,part_1,,,,,,,,,,,,,yellow,square
413.0,4.0,4.0,0.0,4.0,4.0,317.7938230801373,3.0,2.0,part_1,,,,,,,,,,,,,yellow,square
80.0,6.0,2.0,1.0,2.0,2.0,329.8932099714875,3.0,1.0,part_1,,,,,,,,,,,,,cyan,flipped triangle
187.0,7.0,3.0,1.0,2.0,2.0,302.6820749510079,3.0,1.0,part_1,,,,,,,,,,,,,green,hexagon
61.0,1.0,1.0,0.0,4.0,4.0,328.5643819253891,3.0,1.0,part_1,,,,,,,,,,,,,gray,I
408.0,4.0,4.0,0.0,2.0,2.0,328.6150470376014,3.0,1.0,part_1,,,,,,,,,,,,,yellow,square
414.0,8.0,4.0,1.0,2.0,2.0,305.732237175107,3.0,1.0,part_1,,,,,,,,,,,,,orange,cross
422.0,8.0,4.0,1.0,2.0,2.0,279.652290046215,3.0,1.0,part_1,,,,,,,,,,,,,orange,cross
52.0,5.0,1.0,1.0,2.0,2.0,284.1385339852422,3.0,1.0,part_1,,,,,,,,,,,,,white,diamond
61.0,5.0,1.0,1.0,4.0,4.0,291.2828931584954,3.0,1.0,part_1,,,,,,,,,,,,,white,diamond
392.0,4.0,4.0,0.0,4.0,4.0,296.5951410587877,3.0,1.0,part_1,,,,,,,,,,,,,yellow,square
0.0,8.0,0.0,1.0,1.0,1.0,353.7441601511091,3.0,1.0,part_1,,,,,,,,,,,,,orange,cross
124.0,6.0,2.0,1.0,2.0,2.0,296.3781398721039,3.0,1.0,part_1,,,,,,,,,,,,,cyan,flipped triangle
80.0,2.0,2.0,0.0,2.0,2.0,283.2083920948207,3.0,1.0,part_1,,,,,,,,,,,,,magenta,circle
0.0,3.0,0.0,0.0,4.0,4.0,296.573475934565,3.0,1.0,part_1,,,,,,,,,,,,,blue,triangle
62.0,1.0,1.0,0.0,1.0,1.0,300.4821359645575,3.0,1.0,part_1,,,,,,,,,,,,,gray,I
0.0,4.0,0.0,0.0,3.0,3.0,314.8777519818395,3.0,1.0,part_1,,,,,,,,,,,,,yellow,square
0.0,5.0,0.0,1.0,1.0,1.0,280.2014860790223,3.0,1.0,part_1,,,,,,,,,,,,,white,diamond
205.0,3.0,3.0,0.0,4.0,4.0,341.4791279938072,3.0,1.0,part_1,,,,,,,,,,,,,blue,triangle
56.0,1.0,1.0,0.0,2.0,2.0,312.1145560871809,3.0,1.0,part_1,,,,,,,,,,,,,gray,I
400.0,4.0,4.0,0.0,4.0,4.0,255.876945098862,3.0,1.0,part_1,,,,,,,,,,,,,yellow,square
109.0,6.0,2.0,1.0,3.0,3.0,259.7030440811068,3.0,1.0,part_1,,,,,,,,,,,,,cyan,flipped triangle
414.0,4.0,4.0,0.0,3.0,3.0,309.011371107772,3.0,1.0,part_1,,,,,,,,,,,,,yellow,square
77.0,2.0,2.0,0.0,3.0,3.0,294.1166379023343,3.0,1.0,part_1,,,,,,,,,,,,,magenta,circle
84.0,6.0,2.0,1.0,4.0,4.0,378.4244419075548,3.0,1.0,part_1,,,,,,,,,,,,,cyan,flipped triangle
375.0,8.0,4.0,1.0,2.0,2.0,291.0808310844004,3.0,1.0,part_1,,,,,,,,,,,,,orange,cross
0.0,2.0,0.0,0.0,1.0,1.0,312.7484060823917,3.0,1.0,part_1,,,,,,,,,,,,,magenta,circle
0.0,7.0,0.0,1.0,2.0,2.0,279.2279180139303,3.0,1.0,part_1,,,,,,,,,,,,,green,hexagon
52.0,5.0,1.0,1.0,4.0,4.0,333.2070510368794,3.0,1.0,part_1,,,,,,,,,,,,,white,diamond
0.0,7.0,0.0,1.0,4.0,4.0,321.8142830301076,3.0,1.0,part_1,,,,,,,,,,,,,green,hexagon
205.0,7.0,3.0,1.0,1.0,1.0,276.1676888912916,3.0,1.0,part_1,,,,,,,,,,,,,green,hexagon
412.0,4.0,4.0,0.0,2.0,2.0,311.338298022747,3.0,1.0,part_1,,,,,,,,,,,,,yellow,square
93.0,6.0,2.0,1.0,1.0,1.0,373.2144590467214,3.0,1.0,part_1,,,,,,,,,,,,,cyan,flipped triangle
0.0,1.0,0.0,0.0,4.0,4.0,292.2792020253837,3.0,1.0,part_1,,,,,,,,,,,,,gray,I
79.0,6.0,2.0,1.0,3.0,3.0,303.5408530849963,3.0,1.0,part_1,,,,,,,,,,,,,cyan,flipped triangle
400.0,8.0,4.0,1.0,3.0,3.0,332.5050750281662,3.0,1.0,part_1,,,,,,,,,,,,,orange,cross
36.0,1.0,1.0,0.0,2.0,2.0,279.2437570169568,3.0,1.0,part_1,,,,,,,,,,,,,gray,I
379.0,4.0,4.0,0.0,4.0,4.0,279.6084799338132,3.0,1.0,part_1,,,,,,,,,,,,,yellow,square
397.0,4.0,4.0,0.0,1.0,1.0,290.7397870440036,3.0,1.0,part_1,,,,,,,,,,,,,yellow,square
216.0,3.0,3.0,0.0,1.0,1.0,272.0865150913596,3.0,1.0,part_1,,,,,,,,,,,,,blue,triangle
0.0,3.0,0.0,0.0,4.0,4.0,300.6916111335158,3.0,1.0,part_1,,,,,,,,,,,,,blue,triangle
121.0,6.0,2.0,1.0,2.0,2.0,263.261578977108,3.0,1.0,part_1,,,,,,,,,,,,,cyan,flipped triangle
120.0,2.0,2.0,0.0,3.0,3.0,357.4645479675382,4.0,1.0,part_1,,,,,,,,,,,,,magenta,circle
0.0,7.0,0.0,1.0,3.0,3.0,286.0564088914543,4.0,1.0,part_1,,,,,,,,,,,,,green,hexagon
27.0,5.0,1.0,1.0,2.0,2.0,292.6978620234877,4.0,1.0,part_1,,,,,,,,,,,,,white,diamond
178.0,7.0,3.0,1.0,1.0,1.0,296.0402260068804,4.0,1.0,part_1,,,,,,,,,,,,,green,hexagon
424.0,4.0,4.0,0.0,3.0,3.0,317.5965279806405,4.0,1.0,part_1,,,,,,,,,,,,,yellow,square
65.0,5.0,1.0,1.0,3.0,3.0,312.8762170672416,4.0,1.0,part_1,,,,,,,,,,,,,white,diamond
203.0,3.0,3.0,0.0,4.0,4.0,271.1750289890915,4.0,1.0,part_1,,,,,,,,,,,,,blue,triangle
219.0,3.0,3.0,0.0,2.0,2.0,266.0368951037526,4.0,1.0,part_1,,,,,,,,,,,,,blue,triangle
33.0,5.0,1.0,1.0,2.0,2.0,296.9499479513615,4.0,1.0,part_1,,,,,,,,,,,,,white,diamond
204.0,7.0,3.0,1.0,1.0,1.0,259.1152351815253,4.0,1.0,part_1,,,,,,,,,,,,,green,hexagon
124.0,6.0,2.0,1.0,1.0,1.0,322.7733608800918,4.0,1.0,part_1,,,,,,,,,,,,,cyan,flipped triangle
52.0,5.0,1.0,1.0,4.0,4.0,287.7578490879386,4.0,1.0,part_1,,,,,,,,,,,,,white,diamond
224.0,3.0,3.0,0.0,4.0,4.0,297.8866179473698,4.0,1.0,part_1,,,,,,,,,,,,,blue,triangle
111.0,6.0,2.0,1.0,3.0,3.0,302.29302495718,4.0,1.0,part_1,,,,,,,,,,,,,cyan,flipped triangle
380.0,8.0,4.0,1.0,4.0,4.0,302.7812128420919,4.0,1.0,part_1,,,,,,,,,,,,,orange,cross
383.0,8.0,4.0,1.0,1.0,1.0,313.9947541058063,4.0,1.0,part_1,,,,,,,,,,,,,orange,cross
49.0,1.0,1.0,0.0,1.0,1.0,366.2454620935023,4.0,1.0,part_1,,,,,,,,,,,,,gray,I
397.0,4.0,4.0,0.0,2.0,2.0,267.625855980441,4.0,1.0,part_1,,,,,,,,,,,,,yellow,square
124.0,2.0,2.0,0.0,2.0,2.0,309.347101021558,4.0,1.0,part_1,,,,,,,,,,,,,magenta,circle
194.0,7.0,3.0,1.0,1.0,1.0,285.4179760906845,4.0,1.0,part_1,,,,,,,,,,,,,green,hexagon
413.0,8.0,4.0,1.0,1.0,1.0,288.1009448319673,4.0,1.0,part_1,,,,,,,,,,,,,orange,cross
104.0,6.0,2.0,1.0,3.0,3.0,291.8415500316769,4.0,1.0,part_1,,,,,,,,,,,,,cyan,flipped triangle
0.0,3.0,0.0,0.0,4.0,4.0,268.1092720013112,4.0,1.0,part_1,,,,,,,,,,,,,blue,triangle
198.0,7.0,3.0,1.0,4.0,4.0,308.7993930093944,4.0,1.0,part_1,,,,,,,,,,,,,green,hexagon
62.0,5.0,1.0,1.0,2.0,2.0,267.3019429203123,4.0,1.0,part_1,,,,,,,,,,,,,white,diamond
391.0,8.0,4.0,1.0,2.0,2.0,369.4321021903306,4.0,1.0,part_1,,,,,,,,,,,,,orange,cross
109.0,6.0,2.0,1.0,4.0,4.0,294.939009938389,4.0,1.0,part_1,,,,,,,,,,,,,cyan,flipped triangle
224.0,3.0,3.0,0.0,3.0,3.0,320.1546880882233,4.0,1.0,part_1,,,,,,,,,,,,,blue,triangle
77.0,2.0,2.0,0.0,4.0,4.0,325.1593748573214,4.0,1.0,part_1,,,,,,,,,,,,,magenta,circle
98.0,6.0,2.0,1.0,2.0,2.0,249.849793035537,4.0,1.0,part_1,,,,,,,,,,,,,cyan,flipped triangle
0.0,8.0,0.0,1.0,2.0,2.0,255.5596819147467,4.0,1.0,part_1,,,,,,,,,,,,,orange,cross
192.0,7.0,3.0,1.0,2.0,2.0,266.2510990630835,4.0,1.0,part_1,,,,,,,,,,,,,green,hexagon
187.0,7.0,3.0,1.0,2.0,2.0,270.9955901373178,4.0,1.0,part_1,,,,,,,,,,,,,green,hexagon
387.0,8.0,4.0,1.0,4.0,4.0,319.7181101422757,4.0,1.0,part_1,,,,,,,,,,,,,orange,cross
0.0,1.0,0.0,0.0,1.0,1.0,322.2964350134134,4.0,1.0,part_1,,,,,,,,,,,,,gray,I
397.0,8.0,4.0,1.0,2.0,2.0,304.8307169228792,4.0,1.0,part_1,,,,,,,,,,,,,orange,cross
124.0,2.0,2.0,0.0,1.0,1.0,285.6543881352991,4.0,1.0,part_1,,,,,,,,,,,,,magenta,circle
187.0,3.0,3.0,0.0,2.0,2.0,273.4109868761152,4.0,1.0,part_1,,,,,,,,,,,,,blue,triangle
119.0,2.0,2.0,0.0,4.0,4.0,283.5848359391093,4.0,1.0,part_1,,,,,,,,,,,,,magenta,circle
193.0,7.0,3.0,1.0,3.0,3.0,280.1401088945567,4.0,1.0,part_1,,,,,,,,,,,,,green,hexagon
401.0,8.0,4.0,1.0,1.0,1.0,293.323592050001,4.0,1.0,part_1,,,,,,,,,,,,,orange,cross
78.0,2.0,2.0,0.0,2.0,2.0,288.8252909760922,4.0,1.0,part_1,,,,,,,,,,,,,magenta,circle
419.0,8.0,4.0,1.0,2.0,2.0,302.7315100189298,4.0,1.0,part_1,,,,,,,,,,,,,orange,cross
190.0,7.0,3.0,1.0,2.0,2.0,252.40451516583562,4.0,1.0,part_1,,,,,,,,,,,,,green,hexagon
76.0,6.0,2.0,1.0,1.0,1.0,313.2553789764642,4.0,1.0,part_1,,,,,,,,,,,,,cyan,flipped triangle
379.0,8.0,4.0,1.0,3.0,3.0,317.3040458932519,4.0,1.0,part_1,,,,,,,,,,,,,orange,cross
121.0,2.0,2.0,0.0,3.0,3.0,300.6120349746197,4.0,1.0,part_1,,,,,,,,,,,,,magenta,circle
91.0,6.0,2.0,1.0,2.0,2.0,280.1467401441186,4.0,1.0,part_1,,,,,,,,,,,,,cyan,flipped triangle
107.0,2.0,2.0,0.0,4.0,4.0,258.5796678904444,4.0,1.0,part_1,,,,,,,,,,,,,magenta,circle
388.0,4.0,4.0,0.0,2.0,2.0,273.5824161209166,4.0,1.0,part_1,,,,,,,,,,,,,yellow,square
204.0,3.0,3.0,0.0,1.0,1.0,279.0456670336425,4.0,1.0,part_1,,,,,,,,,,,,,blue,triangle
0.0,3.0,0.0,0.0,4.0,4.0,299.7597691137343,4.0,1.0,part_1,,,,,,,,,,,,,blue,triangle
0.0,8.0,0.0,1.0,4.0,4.0,293.6632698401809,4.0,1.0,part_1,,,,,,,,,,,,,orange,cross
33.0,1.0,1.0,0.0,3.0,3.0,491.8910150881856,4.0,1.0,part_1,,,,,,,,,,,,,gray,I
79.0,2.0,2.0,0.0,2.0,2.0,271.9107810407877,4.0,1.0,part_1,,,,,,,,,,,,,magenta,circle
71.0,1.0,1.0,0.0,1.0,1.0,308.7426829151809,4.0,1.0,part_1,,,,,,,,,,,,,gray,I
0.0,6.0,0.0,1.0,4.0,4.0,274.710401892662,4.0,1.0,part_1,,,,,,,,,,,,,cyan,flipped triangle
0.0,4.0,0.0,0.0,1.0,1.0,278.6975551862269,4.0,1.0,part_1,,,,,,,,,,,,,yellow,square
0.0,7.0,0.0,1.0,2.0,2.0,291.2864349782467,4.0,1.0,part_1,,,,,,,,,,,,,green,hexagon
375.0,4.0,4.0,0.0,3.0,3.0,286.1548780929297,4.0,1.0,part_1,,,,,,,,,,,,,yellow,square
55.0,1.0,1.0,0.0,2.0,2.0,300.4796449095011,4.0,1.0,part_1,,,,,,,,,,,,,gray,I
68.0,5.0,1.0,1.0,1.0,1.0,335.264558205381,4.0,1.0,part_1,,,,,,,,,,,,,white,diamond
212.0,3.0,3.0,0.0,3.0,3.0,326.4365999493748,4.0,1.0,part_1,,,,,,,,,,,,,blue,triangle
418.0,8.0,4.0,1.0,1.0,1.0,258.4532219916582,4.0,1.0,part_1,,,,,,,,,,,,,orange,cross
210.0,7.0,3.0,1.0,4.0,4.0,287.4418161809444,4.0,1.0,part_1,,,,,,,,,,,,,green,hexagon
81.0,2.0,2.0,0.0,1.0,1.0,274.8319639358669,4.0,1.0,part_1,,,,,,,,,,,,,magenta,circle
212.0,7.0,3.0,1.0,4.0,4.0,311.1673928797245,4.0,1.0,part_1,,,,,,,,,,,,,green,hexagon
223.0,3.0,3.0,0.0,1.0,1.0,278.9172250777483,4.0,1.0,part_1,,,,,,,,,,,,,blue,triangle
107.0,6.0,2.0,1.0,1.0,1.0,280.4858069866895,4.0,1.0,part_1,,,,,,,,,,,,,cyan,flipped triangle
404.0,4.0,4.0,0.0,1.0,1.0,271.4737430214882,4.0,1.0,part_1,,,,,,,,,,,,,yellow,square
193.0,3.0,3.0,0.0,1.0,1.0,317.0106869656592,4.0,1.0,part_1,,,,,,,,,,,,,blue,triangle
0.0,3.0,0.0,0.0,1.0,1.0,279.5962269883603,4.0,1.0,part_1,,,,,,,,,,,,,blue,triangle
47.0,5.0,1.0,1.0,2.0,2.0,260.403434978798,4.0,1.0,part_1,,,,,,,,,,,,,white,diamond
0.0,5.0,0.0,1.0,2.0,2.0,266.5930860675871,4.0,1.0,part_1,,,,,,,,,,,,,white,diamond
71.0,5.0,1.0,1.0,1.0,1.0,303.8151450455189,4.0,1.0,part_1,,,,,,,,,,,,,white,diamond
0.0,5.0,0.0,1.0,4.0,4.0,283.6361369118094,4.0,1.0,part_1,,,,,,,,,,,,,white,diamond
0.0,2.0,0.0,0.0,4.0,4.0,389.2237530089915,4.0,1.0,part_1,,,,,,,,,,,,,magenta,circle
0.0,8.0,0.0,1.0,1.0,1.0,243.2825288269668,4.0,1.0,part_1,,,,,,,,,,,,,orange,cross
0.0,6.0,0.0,1.0,1.0,1.0,304.1044780984521,4.0,1.0,part_1,,,,,,,,,,,,,cyan,flipped triangle
29.0,5.0,1.0,1.0,3.0,3.0,255.3668851032853,4.0,1.0,part_1,,,,,,,,,,,,,white,diamond
184.0,7.0,3.0,1.0,2.0,2.0,276.1018939781934,4.0,1.0,part_1,,,,,,,,,,,,,green,hexagon
219.0,7.0,3.0,1.0,1.0,1.0,317.1378739643842,4.0,1.0,part_1,,,,,,,,,,,,,green,hexagon
395.0,8.0,4.0,1.0,4.0,4.0,277.2358751390129,4.0,1.0,part_1,,,,,,,,,,,,,orange,cross
56.0,1.0,1.0,0.0,3.0,3.0,287.4698808882385,4.0,1.0,part_1,,,,,,,,,,,,,gray,I
118.0,2.0,2.0,0.0,3.0,3.0,323.6703858710825,4.0,1.0,part_1,,,,,,,,,,,,,magenta,circle
408.0,8.0,4.0,1.0,4.0,4.0,312.3416909947991,4.0,1.0,part_1,,,,,,,,,,,,,orange,cross
33.0,1.0,1.0,0.0,3.0,3.0,328.4776040818542,4.0,1.0,part_1,,,,,,,,,,,,,gray,I
85.0,2.0,2.0,0.0,3.0,3.0,266.9657070655375,4.0,1.0,part_1,,,,,,,,,,,,,magenta,circle
391.0,4.0,4.0,0.0,3.0,3.0,246.2214301340282,4.0,1.0,part_1,,,,,,,,,,,,,yellow,square
184.0,3.0,3.0,0.0,2.0,2.0,279.91554280743,4.0,2.0,part_1,,,,,,,,,,,,,blue,triangle
196.0,3.0,3.0,0.0,2.0,2.0,259.3942380044609,4.0,1.0,part_1,,,,,,,,,,,,,blue,triangle
0.0,8.0,0.0,1.0,1.0,1.0,330.8828780427575,4.0,1.0,part_1,,,,,,,,,,,,,orange,cross
192.0,3.0,3.0,0.0,3.0,3.0,349.0960849449038,4.0,1.0,part_1,,,,,,,,,,,,,blue,triangle
0.0,7.0,0.0,1.0,4.0,4.0,329.7735969536006,4.0,1.0,part_1,,,,,,,,,,,,,green,hexagon
223.0,7.0,3.0,1.0,1.0,1.0,342.16268500313157,4.0,1.0,part_1,,,,,,,,,,,,,green,hexagon
391.0,4.0,4.0,0.0,3.0,3.0,356.8921650294214,4.0,1.0,part_1,,,,,,,,,,,,,yellow,square
0.0,2.0,0.0,0.0,4.0,4.0,315.4450398869812,4.0,1.0,part_1,,,,,,,,,,,,,magenta,circle
56.0,5.0,1.0,1.0,1.0,1.0,383.6927840020507,4.0,1.0,part_1,,,,,,,,,,,,,white,diamond
31.0,5.0,1.0,1.0,2.0,2.0,308.3987580612302,4.0,1.0,part_1,,,,,,,,,,,,,white,diamond
218.0,3.0,3.0,0.0,2.0,2.0,295.9717761259526,4.0,1.0,part_1,,,,,,,,,,,,,blue,triangle
0.0,4.0,4.0,0.0,5.0,5.0,317.5117659848183,1.0,0.0,part_2,go,250.0,250.0,1.0,,,,,,,,,yellow,square
0.0,3.0,3.0,0.0,5.0,5.0,323.7500691320747,1.0,0.0,part_2,go,250.0,250.0,1.0,,,,,,,,,blue,triangle
0.0,7.0,3.0,1.0,5.0,5.0,332.9438879154622,1.0,0.0,part_2,go,250.0,250.0,1.0,,,,,,,,,green,hexagon
0.0,4.0,4.0,0.0,6.0,6.0,533.2813179120421,1.0,0.0,part_2,go,250.0,250.0,1.0,,,,,,,,,yellow,square
0.0,2.0,2.0,0.0,6.0,6.0,357.969440985471,1.0,0.0,part_2,go,250.0,250.0,1.0,,,,,,,,,magenta,circle
0.0,5.0,1.0,1.0,5.0,5.0,306.4223360270262,1.0,0.0,part_2,go,250.0,250.0,1.0,,,,,,,,,white,diamond
0.0,6.0,2.0,1.0,5.0,5.0,307.0648701395839,1.0,0.0,part_2,go,250.0,250.0,1.0,,,,,,,,,cyan,flipped triangle
0.0,6.0,2.0,1.0,6.0,0.0,0.0,1.0,0.0,part_2,stop,250.0,250.0,4.0,,,,,,,,,cyan,flipped triangle
0.0,5.0,1.0,1.0,5.0,5.0,249.3267790414393,1.0,0.0,part_2,stop,250.0,300.0,3.0,,,,,,,,,white,diamond
0.0,5.0,1.0,1.0,6.0,6.0,391.938982065767,1.0,0.0,part_2,stop,200.0,300.0,3.0,,,,,,,,,white,diamond
0.0,3.0,3.0,0.0,6.0,6.0,262.9770161584019,1.0,0.0,part_2,go,200.0,250.0,1.0,,,,,,,,,blue,triangle
0.0,1.0,1.0,0.0,6.0,6.0,433.07222914882,1.0,0.0,part_2,go,200.0,250.0,1.0,,,,,,,,,gray,I
0.0,4.0,4.0,0.0,6.0,6.0,462.2678561136126,1.0,0.0,part_2,go,200.0,250.0,1.0,,,,,,,,,yellow,square
0.0,2.0,2.0,0.0,5.0,5.0,575.3035640809685,1.0,0.0,part_2,go,200.0,250.0,1.0,,,,,,,,,magenta,circle
0.0,3.0,3.0,0.0,5.0,5.0,408.2755621057004,1.0,0.0,part_2,go,200.0,250.0,1.0,,,,,,,,,blue,triangle
0.0,5.0,1.0,1.0,6.0,0.0,0.0,1.0,0.0,part_2,stop,200.0,250.0,4.0,,,,,,,,,white,diamond
0.0,4.0,4.0,0.0,6.0,6.0,598.3318649232388,1.0,0.0,part_2,go,200.0,300.0,1.0,,,,,,,,,yellow,square
0.0,3.0,3.0,0.0,6.0,6.0,554.7306737862527,1.0,0.0,part_2,go,200.0,300.0,1.0,,,,,,,,,blue,triangle
0.0,1.0,1.0,0.0,5.0,5.0,684.4812168274075,1.0,0.0,part_2,go,200.0,300.0,1.0,,,,,,,,,gray,I
0.0,8.0,4.0,1.0,6.0,6.0,461.6815291810781,1.0,0.0,part_2,go,200.0,300.0,1.0,,,,,,,,,orange,cross
0.0,2.0,2.0,0.0,6.0,6.0,437.3109310399741,1.0,0.0,part_2,go,200.0,300.0,1.0,,,,,,,,,magenta,circle
0.0,8.0,4.0,1.0,6.0,6.0,385.4439971037209,1.0,0.0,part_2,go,200.0,300.0,1.0,,,,,,,,,orange,cross
0.0,2.0,2.0,0.0,6.0,6.0,540.5061559285969,1.0,0.0,part_2,go,200.0,300.0,1.0,,,,,,,,,magenta,circle
0.0,3.0,3.0,0.0,6.0,6.0,313.4483271278441,1.0,0.0,part_2,go,200.0,300.0,1.0,,,,,,,,,blue,triangle
0.0,5.0,1.0,1.0,6.0,6.0,295.7405399065465,1.0,0.0,part_2,stop,200.0,300.0,3.0,,,,,,,,,white,diamond
0.0,1.0,1.0,0.0,5.0,5.0,522.0560859888792,1.0,0.0,part_2,go,200.0,250.0,1.0,,,,,,,,,gray,I
0.0,3.0,3.0,0.0,6.0,6.0,360.9750061295926,1.0,0.0,part_2,go,200.0,250.0,1.0,,,,,,,,,blue,triangle
0.0,5.0,1.0,1.0,5.0,5.0,321.8521850649267,1.0,0.0,part_2,stop,200.0,250.0,3.0,,,,,,,,,white,diamond
0.0,6.0,2.0,1.0,6.0,6.0,376.3529350981116,1.0,0.0,part_2,go,150.0,250.0,1.0,,,,,,,,,cyan,flipped triangle
0.0,1.0,1.0,0.0,6.0,6.0,628.4725188743323,1.0,0.0,part_2,go,150.0,250.0,1.0,,,,,,,,,gray,I
0.0,1.0,1.0,0.0,5.0,5.0,431.8239300046116,1.0,0.0,part_2,go,150.0,250.0,1.0,,,,,,,,,gray,I
0.0,4.0,4.0,0.0,6.0,6.0,517.7307289559394,1.0,0.0,part_2,go,150.0,250.0,1.0,,,,,,,,,yellow,square
0.0,6.0,2.0,1.0,6.0,0.0,0.0,1.0,0.0,part_2,stop,150.0,250.0,4.0,,,,,,,,,cyan,flipped triangle
0.0,6.0,2.0,1.0,5.0,5.0,538.8017068617046,1.0,0.0,part_2,go,150.0,300.0,1.0,,,,,,,,,cyan,flipped triangle
0.0,4.0,4.0,0.0,5.0,5.0,562.3581451363862,1.0,0.0,part_2,go,150.0,300.0,1.0,,,,,,,,,yellow,square
0.0,5.0,1.0,1.0,6.0,6.0,545.2415200415999,1.0,0.0,part_2,go,150.0,300.0,1.0,,,,,,,,,white,diamond
0.0,7.0,3.0,1.0,6.0,6.0,327.6423888746649,2.0,0.0,part_2,stop,150.0,300.0,3.0,,,,,,,,,green,hexagon
0.0,6.0,2.0,1.0,6.0,0.0,0.0,2.0,0.0,part_2,stop,150.0,250.0,4.0,,,,,,,,,cyan,flipped triangle
0.0,7.0,3.0,1.0,6.0,0.0,0.0,2.0,0.0,part_2,stop,150.0,300.0,4.0,,,,,,,,,green,hexagon
0.0,4.0,4.0,0.0,5.0,5.0,289.1230639070272,2.0,0.0,part_2,go,150.0,350.0,1.0,,,,,,,,,yellow,square
0.0,8.0,4.0,1.0,6.0,0.0,0.0,2.0,0.0,part_2,stop,150.0,350.0,4.0,,,,,,,,,orange,cross
0.0,6.0,2.0,1.0,6.0,6.0,496.8672459945082,2.0,0.0,part_2,stop,150.0,400.0,3.0,,,,,,,,,cyan,flipped triangle
0.0,4.0,4.0,0.0,6.0,6.0,698.345439042896,2.0,0.0,part_2,go,150.0,350.0,1.0,,,,,,,,,yellow,square
0.0,5.0,1.0,1.0,6.0,0.0,0.0,2.0,0.0,part_2,stop,150.0,350.0,4.0,,,,,,,,,white,diamond
0.0,7.0,3.0,1.0,5.0,5.0,551.4597829896957,2.0,0.0,part_2,go,150.0,400.0,1.0,,,,,,,,,green,hexagon
0.0,6.0,2.0,1.0,5.0,0.0,0.0,2.0,0.0,part_2,stop,150.0,400.0,4.0,,,,,,,,,cyan,flipped triangle
0.0,7.0,3.0,1.0,5.0,0.0,0.0,2.0,0.0,part_2,stop,200.0,400.0,4.0,,,,,,,,,green,hexagon
0.0,1.0,1.0,0.0,5.0,5.0,508.8067769538611,2.0,0.0,part_2,go,250.0,400.0,1.0,,,,,,,,,gray,I
0.0,6.0,2.0,1.0,5.0,0.0,0.0,2.0,0.0,part_2,stop,250.0,400.0,4.0,,,,,,,,,cyan,flipped triangle
0.0,5.0,1.0,1.0,5.0,0.0,0.0,2.0,0.0,part_2,stop,300.0,400.0,4.0,,,,,,,,,white,diamond
0.0,7.0,3.0,1.0,6.0,6.0,532.4497001711279,2.0,0.0,part_2,go,350.0,400.0,1.0,,,,,,,,,green,hexagon
0.0,3.0,3.0,0.0,5.0,5.0,630.9969569556415,2.0,0.0,part_2,go,350.0,400.0,1.0,,,,,,,,,blue,triangle
0.0,3.0,3.0,0.0,6.0,6.0,325.3204021602869,2.0,0.0,part_2,go,350.0,400.0,1.0,,,,,,,,,blue,triangle
0.0,6.0,2.0,1.0,6.0,6.0,474.4139779359102,2.0,0.0,part_2,stop,350.0,400.0,3.0,,,,,,,,,cyan,flipped triangle
0.0,8.0,4.0,1.0,5.0,0.0,0.0,2.0,0.0,part_2,stop,350.0,350.0,4.0,,,,,,,,,orange,cross
0.0,8.0,4.0,1.0,5.0,5.0,521.9942280091345,2.0,0.0,part_2,stop,400.0,350.0,3.0,,,,,,,,,orange,cross
0.0,3.0,3.0,0.0,5.0,5.0,680.5821689777076,2.0,0.0,part_2,go,350.0,350.0,1.0,,,,,,,,,blue,triangle
0.0,8.0,4.0,1.0,5.0,0.0,0.0,2.0,0.0,part_2,stop,350.0,350.0,4.0,,,,,,,,,orange,cross
0.0,1.0,1.0,0.0,5.0,5.0,489.7121991962194,2.0,0.0,part_2,go,400.0,350.0,1.0,,,,,,,,,gray,I
0.0,8.0,4.0,1.0,5.0,0.0,0.0,2.0,0.0,part_2,stop,400.0,350.0,4.0,,,,,,,,,orange,cross
0.0,1.0,1.0,0.0,5.0,5.0,514.0638949815184,2.0,0.0,part_2,go,450.0,350.0,1.0,,,,,,,,,gray,I
0.0,3.0,3.0,0.0,5.0,5.0,581.2574969604611,2.0,0.0,part_2,go,450.0,350.0,1.0,,,,,,,,,blue,triangle
0.0,3.0,3.0,0.0,5.0,5.0,308.9957849588245,2.0,0.0,part_2,go,450.0,350.0,1.0,,,,,,,,,blue,triangle
0.0,4.0,4.0,0.0,5.0,5.0,262.9534078296274,2.0,0.0,part_2,go,450.0,350.0,1.0,,,,,,,,,yellow,square
0.0,1.0,1.0,0.0,6.0,6.0,499.8361030593514,2.0,0.0,part_2,go,450.0,350.0,1.0,,,,,,,,,gray,I
0.0,1.0,1.0,0.0,5.0,5.0,275.6943160202354,2.0,0.0,part_2,go,450.0,350.0,1.0,,,,,,,,,gray,I
0.0,4.0,4.0,0.0,6.0,6.0,540.83521803841,2.0,0.0,part_2,go,450.0,350.0,1.0,,,,,,,,,yellow,square
0.0,3.0,3.0,0.0,5.0,5.0,307.8174339607358,2.0,0.0,part_2,go,450.0,350.0,1.0,,,,,,,,,blue,triangle
0.0,1.0,1.0,0.0,5.0,5.0,417.5011140760034,2.0,0.0,part_2,go,450.0,350.0,1.0,,,,,,,,,gray,I
0.0,8.0,4.0,1.0,6.0,6.0,473.0410231277346,2.0,0.0,part_2,stop,450.0,350.0,3.0,,,,,,,,,orange,cross
0.0,3.0,3.0,0.0,5.0,5.0,400.082433829084,2.0,0.0,part_2,go,450.0,300.0,1.0,,,,,,,,,blue,triangle
0.0,4.0,4.0,0.0,6.0,6.0,359.5720080193132,2.0,0.0,part_2,go,450.0,300.0,1.0,,,,,,,,,yellow,square
0.0,5.0,1.0,1.0,6.0,6.0,403.0345149803906,3.0,0.0,part_2,stop,450.0,300.0,3.0,,,,,,,,,white,diamond
0.0,2.0,2.0,0.0,6.0,6.0,529.1541598271579,3.0,0.0,part_2,go,450.0,250.0,1.0,,,,,,,,,magenta,circle
0.0,2.0,2.0,0.0,6.0,6.0,377.2504602093249,3.0,0.0,part_2,go,450.0,250.0,1.0,,,,,,,,,magenta,circle
0.0,1.0,1.0,0.0,6.0,6.0,329.6798360534012,3.0,0.0,part_2,go,450.0,250.0,1.0,,,,,,,,,gray,I
0.0,7.0,3.0,1.0,6.0,6.0,304.6515919268131,3.0,0.0,part_2,stop,450.0,250.0,3.0,,,,,,,,,green,hexagon
0.0,1.0,1.0,0.0,6.0,6.0,485.3876898996532,3.0,0.0,part_2,go,450.0,200.0,1.0,,,,,,,,,gray,I
0.0,2.0,2.0,0.0,5.0,5.0,309.298801003024,3.0,0.0,part_2,go,450.0,200.0,1.0,,,,,,,,,magenta,circle
0.0,6.0,2.0,1.0,5.0,5.0,324.3671539239585,3.0,0.0,part_2,go,450.0,200.0,1.0,,,,,,,,,cyan,flipped triangle
0.0,7.0,3.0,1.0,6.0,6.0,246.193383121863,3.0,0.0,part_2,stop,450.0,200.0,3.0,,,,,,,,,green,hexagon
0.0,2.0,2.0,0.0,5.0,5.0,476.7403288278729,3.0,0.0,part_2,go,450.0,150.0,1.0,,,,,,,,,magenta,circle
0.0,5.0,1.0,1.0,6.0,0.0,0.0,3.0,0.0,part_2,stop,450.0,150.0,4.0,,,,,,,,,white,diamond
0.0,7.0,3.0,1.0,6.0,6.0,587.9888969939202,3.0,0.0,part_2,go,450.0,200.0,1.0,,,,,,,,,green,hexagon
0.0,5.0,1.0,1.0,5.0,5.0,307.1392541751265,3.0,0.0,part_2,stop,450.0,200.0,3.0,,,,,,,,,white,diamond
0.0,4.0,4.0,0.0,5.0,5.0,521.024031098932,3.0,0.0,part_2,go,400.0,200.0,1.0,,,,,,,,,yellow,square
0.0,2.0,2.0,0.0,6.0,6.0,492.031856905669,3.0,0.0,part_2,go,400.0,200.0,1.0,,,,,,,,,magenta,circle
0.0,7.0,3.0,1.0,5.0,5.0,378.0909609049558,3.0,0.0,part_2,stop,400.0,200.0,3.0,,,,,,,,,green,hexagon
0.0,6.0,2.0,1.0,6.0,0.0,0.0,3.0,0.0,part_2,stop,350.0,200.0,4.0,,,,,,,,,cyan,flipped triangle
0.0,1.0,1.0,0.0,5.0,5.0,632.8203580342233,3.0,0.0,part_2,go,350.0,250.0,1.0,,,,,,,,,gray,I
0.0,7.0,3.0,1.0,6.0,6.0,401.8323901109397,3.0,0.0,part_2,go,350.0,250.0,1.0,,,,,,,,,green,hexagon
0.0,7.0,3.0,1.0,5.0,5.0,309.4534410629421,3.0,0.0,part_2,stop,350.0,250.0,3.0,,,,,,,,,green,hexagon
0.0,2.0,2.0,0.0,5.0,5.0,599.9319010879844,3.0,0.0,part_2,go,300.0,250.0,1.0,,,,,,,,,magenta,circle
0.0,4.0,4.0,0.0,5.0,5.0,502.55771493539214,3.0,0.0,part_2,go,300.0,250.0,1.0,,,,,,,,,yellow,square
0.0,8.0,4.0,1.0,5.0,0.0,0.0,3.0,0.0,part_2,stop,300.0,250.0,4.0,,,,,,,,,orange,cross
0.0,3.0,3.0,0.0,6.0,6.0,387.7308040391654,3.0,0.0,part_2,go,350.0,250.0,1.0,,,,,,,,,blue,triangle
0.0,7.0,3.0,1.0,6.0,0.0,0.0,3.0,0.0,part_2,stop,350.0,250.0,4.0,,,,,,,,,green,hexagon
0.0,5.0,1.0,1.0,5.0,5.0,397.4722349084914,3.0,0.0,part_2,stop,350.0,300.0,3.0,,,,,,,,,white,diamond
0.0,3.0,3.0,0.0,5.0,5.0,668.2294250931591,3.0,0.0,part_2,go,300.0,300.0,1.0,,,,,,,,,blue,triangle
0.0,2.0,2.0,0.0,6.0,6.0,616.7635649908334,3.0,0.0,part_2,go,300.0,300.0,1.0,,,,,,,,,magenta,circle
0.0,1.0,1.0,0.0,6.0,6.0,571.4283110573888,3.0,0.0,part_2,go,300.0,300.0,1.0,,,,,,,,,gray,I
0.0,2.0,2.0,0.0,5.0,5.0,367.5340609624982,3.0,0.0,part_2,go,300.0,300.0,1.0,,,,,,,,,magenta,circle
0.0,6.0,2.0,1.0,6.0,6.0,427.1237580105662,3.0,0.0,part_2,stop,300.0,300.0,3.0,,,,,,,,,cyan,flipped triangle
0.0,8.0,4.0,1.0,5.0,0.0,0.0,3.0,0.0,part_2,stop,300.0,250.0,4.0,,,,,,,,,orange,cross
0.0,6.0,2.0,1.0,5.0,0.0,0.0,3.0,0.0,part_2,stop,350.0,250.0,4.0,,,,,,,,,cyan,flipped triangle
0.0,4.0,4.0,0.0,6.0,6.0,645.3320519067347,3.0,0.0,part_2,go,400.0,250.0,1.0,,,,,,,,,yellow,square
0.0,1.0,1.0,0.0,6.0,6.0,599.0781879518181,3.0,0.0,part_2,go,400.0,250.0,1.0,,,,,,,,,gray,I
0.0,3.0,3.0,0.0,5.0,5.0,550.3893399145454,3.0,0.0,part_2,go,400.0,250.0,1.0,,,,,,,,,blue,triangle
0.0,2.0,2.0,0.0,5.0,5.0,461.5614919457584,4.0,0.0,part_2,go,400.0,250.0,1.0,,,,,,,,,magenta,circle
0.0,5.0,1.0,1.0,6.0,6.0,348.3010670170188,4.0,0.0,part_2,stop,400.0,250.0,3.0,,,,,,,,,white,diamond
0.0,7.0,3.0,1.0,5.0,5.0,447.1240059938282,4.0,0.0,part_2,stop,400.0,200.0,3.0,,,,,,,,,green,hexagon
0.0,1.0,1.0,0.0,5.0,5.0,588.175100972876,4.0,0.0,part_2,go,350.0,200.0,1.0,,,,,,,,,gray,I
0.0,6.0,2.0,1.0,6.0,0.0,0.0,4.0,0.0,part_2,stop,350.0,200.0,4.0,,,,,,,,,cyan,flipped triangle
0.0,7.0,3.0,1.0,6.0,0.0,0.0,4.0,0.0,part_2,stop,350.0,250.0,4.0,,,,,,,,,green,hexagon
0.0,6.0,2.0,1.0,5.0,5.0,604.7632750123739,4.0,0.0,part_2,go,350.0,300.0,1.0,,,,,,,,,cyan,flipped triangle
0.0,5.0,1.0,1.0,5.0,5.0,436.011262005195,4.0,0.0,part_2,stop,350.0,300.0,3.0,,,,,,,,,white,diamond
0.0,5.0,1.0,1.0,5.0,0.0,0.0,4.0,0.0,part_2,stop,300.0,300.0,4.0,,,,,,,,,white,diamond
0.0,8.0,4.0,1.0,6.0,6.0,641.0791629459709,4.0,0.0,part_2,go,350.0,300.0,1.0,,,,,,,,,orange,cross
0.0,4.0,4.0,0.0,5.0,5.0,569.3212260957807,4.0,0.0,part_2,go,350.0,300.0,1.0,,,,,,,,,yellow,square
0.0,3.0,3.0,0.0,6.0,6.0,438.6572479270398,4.0,0.0,part_2,go,350.0,300.0,1.0,,,,,,,,,blue,triangle
0.0,3.0,3.0,0.0,5.0,5.0,462.6718761865049,4.0,0.0,part_2,go,350.0,300.0,1.0,,,,,,,,,blue,triangle
0.0,7.0,3.0,1.0,5.0,5.0,431.3192719127983,4.0,0.0,part_2,stop,350.0,300.0,3.0,,,,,,,,,green,hexagon
0.0,4.0,4.0,0.0,6.0,6.0,448.66708596237,4.0,0.0,part_2,go,300.0,300.0,1.0,,,,,,,,,yellow,square
0.0,2.0,2.0,0.0,6.0,6.0,565.1299760211259,4.0,0.0,part_2,go,300.0,300.0,1.0,,,,,,,,,magenta,circle
0.0,8.0,4.0,1.0,5.0,5.0,428.4421601332724,4.0,0.0,part_2,stop,300.0,300.0,3.0,,,,,,,,,orange,cross
0.0,6.0,2.0,1.0,5.0,0.0,0.0,4.0,0.0,part_2,stop,250.0,300.0,4.0,,,,,,,,,cyan,flipped triangle
0.0,5.0,1.0,1.0,5.0,5.0,550.4635970573872,4.0,0.0,part_2,go,300.0,300.0,1.0,,,,,,,,,white,diamond
0.0,8.0,4.0,1.0,6.0,0.0,0.0,4.0,0.0,part_2,stop,300.0,300.0,4.0,,,,,,,,,orange,cross
0.0,2.0,2.0,0.0,6.0,6.0,578.8096468895674,4.0,0.0,part_2,go,300.0,350.0,1.0,,,,,,,,,magenta,circle
0.0,5.0,1.0,1.0,6.0,0.0,0.0,4.0,0.0,part_2,stop,300.0,350.0,4.0,,,,,,,,,white,diamond
0.0,2.0,2.0,0.0,5.0,5.0,536.5399899892509,4.0,0.0,part_2,go,300.0,400.0,1.0,,,,,,,,,magenta,circle
0.0,5.0,1.0,1.0,6.0,6.0,538.8810420408845,4.0,0.0,part_2,go,300.0,400.0,1.0,,,,,,,,,white,diamond
0.0,3.0,3.0,0.0,6.0,6.0,330.6362119037658,4.0,0.0,part_2,go,300.0,400.0,1.0,,,,,,,,,blue,triangle
0.0,7.0,3.0,1.0,5.0,5.0,202.3500399664044,4.0,0.0,part_2,stop,300.0,400.0,3.0,,,,,,,,,green,hexagon
0.0,7.0,3.0,1.0,5.0,0.0,0.0,4.0,0.0,part_2,stop,250.0,400.0,4.0,,,,,,,,,green,hexagon
0.0,7.0,3.0,1.0,5.0,0.0,0.0,4.0,0.0,part_2,stop,300.0,400.0,4.0,,,,,,,,,green,hexagon
0.0,1.0,1.0,0.0,5.0,5.0,640.1871501002461,4.0,0.0,part_2,go,350.0,400.0,1.0,,,,,,,,,gray,I
0.0,3.0,3.0,0.0,6.0,6.0,397.6643930654973,4.0,0.0,part_2,go,350.0,400.0,1.0,,,,,,,,,blue,triangle
0.0,8.0,4.0,1.0,6.0,6.0,375.6280310917645,4.0,0.0,part_2,go,350.0,400.0,1.0,,,,,,,,,orange,cross
0.0,3.0,3.0,0.0,6.0,6.0,318.7168620061129,4.0,0.0,part_2,go,350.0,400.0,1.0,,,,,,,,,blue,triangle
0.0,1.0,1.0,0.0,6.0,6.0,413.4556308854371,4.0,0.0,part_2,go,350.0,400.0,1.0,,,,,,,,,gray,I
0.0,1.0,1.0,0.0,6.0,6.0,346.6581099200994,4.0,0.0,part_2,go,350.0,400.0,1.0,,,,,,,,,gray,I
0.0,8.0,4.0,1.0,5.0,5.0,387.6882889308035,4.0,0.0,part_2,go,350.0,400.0,1.0,,,,,,,,,orange,cross
0.0,8.0,4.0,1.0,6.0,6.0,313.5819039307534,4.0,0.0,part_2,stop,350.0,400.0,3.0,,,,,,,,,orange,cross
0.0,2.0,2.0,0.0,6.0,6.0,333.2773861475289,5.0,0.0,part_2,go,350.0,350.0,1.0,,,,,,,,,magenta,circle
0.0,1.0,1.0,0.0,6.0,6.0,596.2919520679861,5.0,0.0,part_2,go,350.0,350.0,1.0,,,,,,,,,gray,I
0.0,6.0,2.0,1.0,6.0,6.0,509.0311439707875,5.0,0.0,part_2,stop,350.0,350.0,3.0,,,,,,,,,cyan,flipped triangle
0.0,1.0,1.0,0.0,6.0,6.0,522.5986249279231,5.0,0.0,part_2,go,350.0,300.0,1.0,,,,,,,,,gray,I
0.0,3.0,3.0,0.0,6.0,6.0,487.9617088008672,5.0,0.0,part_2,go,350.0,300.0,1.0,,,,,,,,,blue,triangle
0.0,7.0,3.0,1.0,6.0,0.0,0.0,5.0,0.0,part_2,stop,350.0,300.0,4.0,,,,,,,,,green,hexagon
0.0,2.0,2.0,0.0,5.0,5.0,522.8978719096631,5.0,0.0,part_2,go,350.0,350.0,1.0,,,,,,,,,magenta,circle
0.0,8.0,4.0,1.0,5.0,0.0,0.0,5.0,0.0,part_2,stop,350.0,350.0,4.0,,,,,,,,,orange,cross
0.0,4.0,4.0,0.0,6.0,6.0,511.35266316123307,5.0,0.0,part_2,go,400.0,350.0,1.0,,,,,,,,,yellow,square
0.0,1.0,1.0,0.0,6.0,6.0,576.2785740662366,5.0,0.0,part_2,go,400.0,350.0,1.0,,,,,,,,,gray,I
0.0,6.0,2.0,1.0,5.0,5.0,460.3752358816564,5.0,0.0,part_2,go,400.0,350.0,1.0,,,,,,,,,cyan,flipped triangle
0.0,4.0,4.0,0.0,6.0,6.0,407.0516109932214,5.0,0.0,part_2,go,400.0,350.0,1.0,,,,,,,,,yellow,square
0.0,6.0,2.0,1.0,6.0,6.0,420.2008140273392,5.0,0.0,part_2,stop,400.0,350.0,3.0,,,,,,,,,cyan,flipped triangle
0.0,1.0,1.0,0.0,6.0,6.0,476.0675190482288,5.0,0.0,part_2,go,400.0,300.0,1.0,,,,,,,,,gray,I
0.0,3.0,3.0,0.0,6.0,6.0,525.8803339675069,5.0,0.0,part_2,go,400.0,300.0,1.0,,,,,,,,,blue,triangle
0.0,4.0,4.0,0.0,5.0,5.0,550.0932419672608,5.0,0.0,part_2,go,400.0,300.0,1.0,,,,,,,,,yellow,square
0.0,2.0,2.0,0.0,6.0,6.0,532.350423047319,5.0,0.0,part_2,go,400.0,300.0,1.0,,,,,,,,,magenta,circle
0.0,4.0,4.0,0.0,6.0,6.0,556.678227847442,5.0,0.0,part_2,go,400.0,300.0,1.0,,,,,,,,,yellow,square
0.0,2.0,2.0,0.0,5.0,5.0,475.6052680313587,5.0,0.0,part_2,go,400.0,300.0,1.0,,,,,,,,,magenta,circle
0.0,5.0,1.0,1.0,6.0,6.0,354.6868111006915,5.0,0.0,part_2,stop,400.0,300.0,3.0,,,,,,,,,white,diamond
0.0,4.0,4.0,0.0,5.0,5.0,425.028822151944,5.0,0.0,part_2,go,400.0,250.0,1.0,,,,,,,,,yellow,square
0.0,8.0,4.0,1.0,6.0,0.0,0.0,5.0,0.0,part_2,stop,400.0,250.0,4.0,,,,,,,,,orange,cross
0.0,3.0,3.0,0.0,5.0,5.0,320.5064409412443,5.0,0.0,part_2,go,400.0,300.0,1.0,,,,,,,,,blue,triangle
0.0,8.0,4.0,1.0,6.0,6.0,304.9312049988657,5.0,0.0,part_2,go,400.0,300.0,1.0,,,,,,,,,orange,cross
0.0,2.0,2.0,0.0,5.0,5.0,368.8866489101201,5.0,0.0,part_2,go,400.0,300.0,1.0,,,,,,,,,magenta,circle
0.0,5.0,1.0,1.0,5.0,5.0,446.2986490689218,5.0,0.0,part_2,stop,400.0,300.0,3.0,,,,,,,,,white,diamond
0.0,1.0,1.0,0.0,6.0,6.0,372.0485181547701,5.0,0.0,part_2,go,350.0,300.0,1.0,,,,,,,,,gray,I
0.0,6.0,2.0,1.0,5.0,5.0,323.2864639721811,5.0,0.0,part_2,stop,350.0,300.0,3.0,,,,,,,,,cyan,flipped triangle
0.0,8.0,4.0,1.0,6.0,0.0,0.0,5.0,0.0,part_2,stop,300.0,300.0,4.0,,,,,,,,,orange,cross
0.0,1.0,1.0,0.0,5.0,5.0,395.8581429906189,5.0,0.0,part_2,go,300.0,350.0,1.0,,,,,,,,,gray,I
0.0,3.0,3.0,0.0,5.0,5.0,428.1116309575736,5.0,0.0,part_2,go,300.0,350.0,1.0,,,,,,,,,blue,triangle
0.0,2.0,2.0,0.0,6.0,6.0,473.2748700771481,5.0,0.0,part_2,go,300.0,350.0,1.0,,,,,,,,,magenta,circle
0.0,4.0,4.0,0.0,5.0,5.0,480.8854369912296,5.0,0.0,part_2,go,300.0,350.0,1.0,,,,,,,,,yellow,square
0.0,5.0,1.0,1.0,6.0,6.0,515.8674069680274,5.0,0.0,part_2,stop,300.0,350.0,3.0,,,,,,,,,white,diamond
0.0,3.0,3.0,0.0,5.0,5.0,474.508129991591,5.0,0.0,part_2,go,300.0,300.0,1.0,,,,,,,,,blue,triangle
0.0,6.0,2.0,1.0,5.0,0.0,0.0,5.0,0.0,part_2,stop,300.0,300.0,4.0,,,,,,,,,cyan,flipped triangle
0.0,1.0,1.0,0.0,5.0,5.0,364.5946921315044,6.0,0.0,part_2,go,350.0,300.0,1.0,,,,,,,,,gray,I
0.0,5.0,1.0,1.0,5.0,5.0,370.0986229814589,6.0,0.0,part_2,stop,350.0,300.0,3.0,,,,,,,,,white,diamond
0.0,3.0,3.0,0.0,6.0,6.0,460.7763320673257,6.0,0.0,part_2,go,300.0,300.0,1.0,,,,,,,,,blue,triangle
0.0,4.0,4.0,0.0,5.0,5.0,453.2484170049429,6.0,0.0,part_2,go,300.0,300.0,1.0,,,,,,,,,yellow,square
0.0,2.0,2.0,0.0,5.0,5.0,442.0403821859509,6.0,0.0,part_2,go,300.0,300.0,1.0,,,,,,,,,magenta,circle
0.0,5.0,1.0,1.0,5.0,0.0,0.0,6.0,0.0,part_2,stop,300.0,300.0,4.0,,,,,,,,,white,diamond
0.0,7.0,3.0,1.0,5.0,0.0,0.0,6.0,0.0,part_2,stop,350.0,300.0,4.0,,,,,,,,,green,hexagon
0.0,8.0,4.0,1.0,5.0,0.0,0.0,6.0,0.0,part_2,stop,400.0,300.0,4.0,,,,,,,,,orange,cross
0.0,4.0,4.0,0.0,5.0,5.0,559.0754640288651,6.0,0.0,part_2,go,450.0,300.0,1.0,,,,,,,,,yellow,square
0.0,1.0,1.0,0.0,6.0,6.0,624.5679890271276,6.0,0.0,part_2,go,450.0,300.0,1.0,,,,,,,,,gray,I
0.0,2.0,2.0,0.0,6.0,6.0,366.8851270340383,6.0,0.0,part_2,go,450.0,300.0,1.0,,,,,,,,,magenta,circle
0.0,2.0,2.0,0.0,5.0,5.0,385.5941188521683,6.0,0.0,part_2,go,450.0,300.0,1.0,,,,,,,,,magenta,circle
0.0,1.0,1.0,0.0,5.0,5.0,464.6400569472462,6.0,0.0,part_2,go,450.0,300.0,1.0,,,,,,,,,gray,I
0.0,7.0,3.0,1.0,5.0,0.0,0.0,6.0,0.0,part_2,stop,450.0,300.0,4.0,,,,,,,,,green,hexagon
0.0,1.0,1.0,0.0,6.0,6.0,437.5517000444233,6.0,0.0,part_2,go,500.0,300.0,1.0,,,,,,,,,gray,I
0.0,2.0,2.0,0.0,5.0,5.0,501.0915179736912,6.0,0.0,part_2,go,500.0,300.0,1.0,,,,,,,,,magenta,circle
0.0,6.0,2.0,1.0,6.0,0.0,0.0,6.0,0.0,part_2,stop,500.0,300.0,4.0,,,,,,,,,cyan,flipped triangle
0.0,5.0,1.0,1.0,6.0,0.0,0.0,6.0,0.0,part_2,stop,500.0,350.0,4.0,,,,,,,,,white,diamond
0.0,7.0,3.0,1.0,6.0,6.0,642.8728371392936,6.0,0.0,part_2,go,500.0,400.0,1.0,,,,,,,,,green,hexagon
0.0,8.0,4.0,1.0,6.0,0.0,0.0,6.0,0.0,part_2,stop,500.0,400.0,4.0,,,,,,,,,orange,cross
0.0,2.0,2.0,0.0,5.0,5.0,584.3474760185927,6.0,0.0,part_2,go,500.0,450.0,1.0,,,,,,,,,magenta,circle
0.0,6.0,2.0,1.0,6.0,0.0,0.0,6.0,0.0,part_2,stop,500.0,450.0,4.0,,,,,,,,,cyan,flipped triangle
0.0,6.0,2.0,1.0,6.0,6.0,608.1600640900433,6.0,0.0,part_2,stop,500.0,500.0,3.0,,,,,,,,,cyan,flipped triangle
0.0,4.0,4.0,0.0,5.0,5.0,559.2392880935222,6.0,0.0,part_2,go,500.0,450.0,1.0,,,,,,,,,yellow,square
0.0,8.0,4.0,1.0,6.0,0.0,0.0,6.0,0.0,part_2,stop,500.0,450.0,4.0,,,,,,,,,orange,cross
0.0,7.0,3.0,1.0,6.0,0.0,0.0,6.0,0.0,part_2,stop,500.0,500.0,4.0,,,,,,,,,green,hexagon
0.0,3.0,3.0,0.0,6.0,6.0,709.5397738739848,6.0,0.0,part_2,go,500.0,550.0,1.0,,,,,,,,,blue,triangle
0.0,8.0,4.0,1.0,6.0,6.0,607.0764798205346,6.0,0.0,part_2,stop,500.0,550.0,3.0,,,,,,,,,orange,cross
0.0,7.0,3.0,1.0,5.0,5.0,604.3300610035658,6.0,0.0,part_2,stop,500.0,500.0,3.0,,,,,,,,,green,hexagon
0.0,6.0,2.0,1.0,5.0,0.0,0.0,6.0,0.0,part_2,stop,450.0,500.0,4.0,,,,,,,,,cyan,flipped triangle
0.0,8.0,4.0,1.0,5.0,5.0,719.1643221303821,6.0,0.0,part_2,go,500.0,500.0,1.0,,,,,,,,,orange,cross
0.0,2.0,2.0,0.0,6.0,6.0,691.8969878461212,6.0,0.0,part_2,go,500.0,500.0,1.0,,,,,,,,,magenta,circle
0.0,2.0,2.0,0.0,6.0,6.0,587.3286710120738,6.0,0.0,part_2,go,500.0,500.0,1.0,,,,,,,,,magenta,circle
0.0,4.0,4.0,0.0,5.0,5.0,641.4635248947889,6.0,0.0,part_2,go,500.0,500.0,1.0,,,,,,,,,yellow,square
0.0,4.0,4.0,0.0,6.0,6.0,595.6829329952598,6.0,0.0,part_2,go,500.0,500.0,1.0,,,,,,,,,yellow,square
0.0,1.0,1.0,0.0,5.0,5.0,592.7314790897071,6.0,0.0,part_2,go,500.0,500.0,1.0,,,,,,,,,gray,I
0.0,6.0,2.0,1.0,6.0,6.0,374.3098550476134,7.0,0.0,part_2,stop,500.0,500.0,3.0,,,,,,,,,cyan,flipped triangle
0.0,3.0,3.0,0.0,5.0,5.0,359.7326930612325,7.0,0.0,part_2,go,500.0,450.0,1.0,,,,,,,,,blue,triangle
0.0,6.0,2.0,1.0,5.0,5.0,486.880503827706,7.0,0.0,part_2,stop,500.0,450.0,3.0,,,,,,,,,cyan,flipped triangle
0.0,4.0,4.0,0.0,6.0,6.0,310.7892160769552,7.0,0.0,part_2,go,450.0,450.0,1.0,,,,,,,,,yellow,square
0.0,6.0,2.0,1.0,5.0,5.0,490.3360579628497,7.0,0.0,part_2,go,450.0,450.0,1.0,,,,,,,,,cyan,flipped triangle
0.0,2.0,2.0,0.0,5.0,5.0,395.8926580380648,7.0,0.0,part_2,go,450.0,450.0,1.0,,,,,,,,,magenta,circle
0.0,5.0,1.0,1.0,5.0,5.0,369.2360699642449,7.0,0.0,part_2,stop,450.0,450.0,3.0,,,,,,,,,white,diamond
0.0,5.0,1.0,1.0,5.0,5.0,424.6303047984838,7.0,0.0,part_2,stop,400.0,450.0,3.0,,,,,,,,,white,diamond
0.0,7.0,3.0,1.0,6.0,6.0,440.0107490364462,7.0,0.0,part_2,stop,350.0,450.0,3.0,,,,,,,,,green,hexagon
0.0,4.0,4.0,0.0,5.0,5.0,575.5644040182233,7.0,0.0,part_2,go,350.0,400.0,1.0,,,,,,,,,yellow,square
0.0,4.0,4.0,0.0,6.0,6.0,486.9250988122076,7.0,0.0,part_2,go,350.0,400.0,1.0,,,,,,,,,yellow,square
0.0,4.0,4.0,0.0,5.0,5.0,561.2631898839027,7.0,0.0,part_2,go,350.0,400.0,1.0,,,,,,,,,yellow,square
0.0,5.0,1.0,1.0,5.0,5.0,518.5275888070464,7.0,0.0,part_2,go,350.0,400.0,1.0,,,,,,,,,white,diamond
0.0,8.0,4.0,1.0,6.0,6.0,536.6614649537951,7.0,0.0,part_2,go,350.0,400.0,1.0,,,,,,,,,orange,cross
0.0,7.0,3.0,1.0,5.0,5.0,432.0354277733713,7.0,0.0,part_2,stop,350.0,400.0,3.0,,,,,,,,,green,hexagon
0.0,3.0,3.0,0.0,5.0,5.0,447.2628519870341,7.0,0.0,part_2,go,300.0,400.0,1.0,,,,,,,,,blue,triangle
0.0,5.0,1.0,1.0,6.0,6.0,423.6866850405931,7.0,0.0,part_2,stop,300.0,400.0,3.0,,,,,,,,,white,diamond
0.0,6.0,2.0,1.0,5.0,0.0,0.0,7.0,0.0,part_2,stop,300.0,350.0,4.0,,,,,,,,,cyan,flipped triangle
0.0,1.0,1.0,0.0,5.0,5.0,571.6973568778485,7.0,0.0,part_2,go,350.0,350.0,1.0,,,,,,,,,gray,I
0.0,8.0,4.0,1.0,5.0,0.0,0.0,7.0,0.0,part_2,stop,350.0,350.0,4.0,,,,,,,,,orange,cross
0.0,1.0,1.0,0.0,6.0,6.0,557.4657700490206,7.0,0.0,part_2,go,400.0,350.0,1.0,,,,,,,,,gray,I
0.0,8.0,4.0,1.0,5.0,0.0,0.0,7.0,0.0,part_2,stop,400.0,350.0,4.0,,,,,,,,,orange,cross
0.0,7.0,3.0,1.0,6.0,0.0,0.0,7.0,0.0,part_2,stop,450.0,350.0,4.0,,,,,,,,,green,hexagon
0.0,2.0,2.0,0.0,6.0,6.0,498.0664900504052,7.0,0.0,part_2,go,450.0,400.0,1.0,,,,,,,,,magenta,circle
0.0,1.0,1.0,0.0,5.0,5.0,594.5032769814134,7.0,0.0,part_2,go,450.0,400.0,1.0,,,,,,,,,gray,I
0.0,4.0,4.0,0.0,6.0,6.0,598.754595965147,7.0,0.0,part_2,go,450.0,400.0,1.0,,,,,,,,,yellow,square
0.0,5.0,1.0,1.0,6.0,6.0,453.7994768470526,7.0,0.0,part_2,go,450.0,400.0,1.0,,,,,,,,,white,diamond
0.0,8.0,4.0,1.0,5.0,5.0,341.7575070634484,7.0,0.0,part_2,stop,450.0,400.0,3.0,,,,,,,,,orange,cross
0.0,6.0,2.0,1.0,6.0,6.0,519.4389328826219,7.0,0.0,part_2,stop,400.0,400.0,3.0,,,,,,,,,cyan,flipped triangle
0.0,4.0,4.0,0.0,5.0,5.0,567.5317849963903,7.0,0.0,part_2,go,400.0,350.0,1.0,,,,,,,,,yellow,square
0.0,7.0,3.0,1.0,6.0,6.0,518.0137499701232,7.0,0.0,part_2,stop,400.0,350.0,3.0,,,,,,,,,green,hexagon
0.0,8.0,4.0,1.0,5.0,0.0,0.0,7.0,0.0,part_2,stop,400.0,300.0,4.0,,,,,,,,,orange,cross
0.0,7.0,3.0,1.0,5.0,5.0,604.3861960060894,7.0,0.0,part_2,go,450.0,300.0,1.0,,,,,,,,,green,hexagon
0.0,5.0,1.0,1.0,6.0,6.0,566.2873620167375,7.0,0.0,part_2,go,450.0,300.0,1.0,,,,,,,,,white,diamond
0.0,8.0,4.0,1.0,6.0,0.0,0.0,7.0,0.0,part_2,stop,450.0,300.0,4.0,,,,,,,,,orange,cross
0.0,5.0,1.0,1.0,5.0,0.0,0.0,7.0,0.0,part_2,stop,450.0,350.0,4.0,,,,,,,,,white,diamond
0.0,8.0,4.0,1.0,6.0,6.0,338.6290799826383,8.0,0.0,part_2,stop,500.0,350.0,3.0,,,,,,,,,orange,cross
0.0,2.0,2.0,0.0,5.0,5.0,527.1910508163273,8.0,0.0,part_2,go,500.0,300.0,1.0,,,,,,,,,magenta,circle
0.0,7.0,3.0,1.0,5.0,5.0,625.9768242016435,8.0,0.0,part_2,stop,500.0,300.0,3.0,,,,,,,,,green,hexagon
0.0,1.0,1.0,0.0,5.0,5.0,681.8884208332747,8.0,0.0,part_2,go,450.0,300.0,1.0,,,,,,,,,gray,I
0.0,6.0,2.0,1.0,5.0,5.0,608.8469319511205,8.0,0.0,part_2,go,450.0,300.0,1.0,,,,,,,,,cyan,flipped triangle
0.0,3.0,3.0,0.0,6.0,6.0,776.4236468356103,8.0,0.0,part_2,go,450.0,300.0,1.0,,,,,,,,,blue,triangle
0.0,8.0,4.0,1.0,5.0,0.0,0.0,8.0,0.0,part_2,stop,450.0,300.0,4.0,,,,,,,,,orange,cross
0.0,6.0,2.0,1.0,6.0,0.0,0.0,8.0,0.0,part_2,stop,500.0,300.0,4.0,,,,,,,,,cyan,flipped triangle
0.0,2.0,2.0,0.0,6.0,6.0,718.3173501398414,8.0,0.0,part_2,go,500.0,350.0,1.0,,,,,,,,,magenta,circle
0.0,6.0,2.0,1.0,5.0,0.0,0.0,8.0,0.0,part_2,stop,500.0,350.0,4.0,,,,,,,,,cyan,flipped triangle
0.0,8.0,4.0,1.0,6.0,0.0,0.0,8.0,0.0,part_2,stop,550.0,350.0,4.0,,,,,,,,,orange,cross
0.0,2.0,2.0,0.0,5.0,5.0,644.7410359978676,8.0,0.0,part_2,go,550.0,400.0,1.0,,,,,,,,,magenta,circle
0.0,3.0,3.0,0.0,6.0,6.0,665.3049709275365,8.0,0.0,part_2,go,550.0,400.0,1.0,,,,,,,,,blue,triangle
0.0,3.0,3.0,0.0,5.0,5.0,492.4464460927993,8.0,0.0,part_2,go,550.0,400.0,1.0,,,,,,,,,blue,triangle
0.0,3.0,3.0,0.0,5.0,5.0,626.5476660337299,8.0,0.0,part_2,go,550.0,400.0,1.0,,,,,,,,,blue,triangle
0.0,4.0,4.0,0.0,5.0,5.0,466.6034888941794,8.0,0.0,part_2,go,550.0,400.0,1.0,,,,,,,,,yellow,square
0.0,5.0,1.0,1.0,6.0,6.0,368.7891429290175,8.0,0.0,part_2,stop,550.0,400.0,3.0,,,,,,,,,white,diamond
0.0,8.0,4.0,1.0,5.0,5.0,528.9043539669365,8.0,0.0,part_2,stop,550.0,350.0,3.0,,,,,,,,,orange,cross
0.0,5.0,1.0,1.0,5.0,5.0,648.9659049548209,8.0,0.0,part_2,go,500.0,350.0,1.0,,,,,,,,,white,diamond
0.0,4.0,4.0,0.0,6.0,6.0,625.3601450007409,8.0,0.0,part_2,go,500.0,350.0,1.0,,,,,,,,,yellow,square
0.0,7.0,3.0,1.0,6.0,6.0,399.1863678675145,8.0,0.0,part_2,stop,500.0,350.0,3.0,,,,,,,,,green,hexagon
0.0,5.0,1.0,1.0,6.0,0.0,0.0,8.0,0.0,part_2,stop,500.0,300.0,4.0,,,,,,,,,white,diamond
0.0,3.0,3.0,0.0,6.0,6.0,551.4975159894675,8.0,0.0,part_2,go,500.0,350.0,1.0,,,,,,,,,blue,triangle
0.0,7.0,3.0,1.0,6.0,6.0,597.2497949842364,8.0,0.0,part_2,go,500.0,350.0,1.0,,,,,,,,,green,hexagon
0.0,6.0,2.0,1.0,5.0,5.0,525.3002389799803,8.0,0.0,part_2,stop,500.0,350.0,3.0,,,,,,,,,cyan,flipped triangle
0.0,7.0,3.0,1.0,5.0,5.0,524.3515069596469,8.0,0.0,part_2,go,450.0,350.0,1.0,,,,,,,,,green,hexagon
0.0,7.0,3.0,1.0,6.0,0.0,0.0,8.0,0.0,part_2,stop,450.0,350.0,4.0,,,,,,,,,green,hexagon
0.0,8.0,4.0,1.0,5.0,5.0,520.9575849585235,8.0,0.0,part_2,go,450.0,400.0,1.0,,,,,,,,,orange,cross
0.0,2.0,2.0,0.0,6.0,6.0,515.3467750642449,8.0,0.0,part_2,go,450.0,400.0,1.0,,,,,,,,,magenta,circle
0.0,4.0,4.0,0.0,6.0,6.0,648.6442948225886,8.0,0.0,part_2,go,450.0,400.0,1.0,,,,,,,,,yellow,square
0.0,1.0,1.0,0.0,6.0,6.0,577.350617852062,8.0,0.0,part_2,go,450.0,400.0,1.0,,,,,,,,,gray,I
0.0,2.0,2.0,0.0,5.0,5.0,625.6409240886569,8.0,0.0,part_2,go,450.0,400.0,1.0,,,,,,,,,magenta,circle
0.0,5.0,1.0,1.0,5.0,5.0,512.1380749624223,8.0,0.0,part_2,go,450.0,400.0,1.0,,,,,,,,,white,diamond
0.0,7.0,3.0,1.0,5.0,5.0,535.4562399443239,8.0,0.0,part_2,stop,450.0,400.0,3.0,,,,,,,,,green,hexagon
0.0,3.0,3.0,0.0,6.0,6.0,573.2726510614157,8.0,0.0,part_2,go,400.0,400.0,1.0,,,,,,,,,blue,triangle
0.0,6.0,2.0,1.0,6.0,6.0,485.865123802796,8.0,0.0,part_2,go,400.0,400.0,1.0,,,,,,,,,cyan,flipped triangle
0.0,4.0,4.0,0.0,7.0,2.0,1153.386012883857,1.0,2.0,part_3,go,0.0,0.0,0.0,204.0,6.0,102.0,204.0,170.0,68.0,136.0,34.0,yellow,square
0.0,1.0,1.0,0.0,7.0,4.0,1625.2512789797038,1.0,1.0,part_3,go,0.0,0.0,0.0,204.0,6.0,170.0,102.0,136.0,204.0,34.0,68.0,gray,I
0.0,6.0,2.0,1.0,7.0,6.0,2272.636105073616,1.0,1.0,part_3,go,0.0,0.0,0.0,216.0,4.0,108.0,270.0,162.0,54.0,324.0,216.0,cyan,flipped triangle
0.0,7.0,3.0,1.0,7.0,2.0,2253.1044450588524,1.0,1.0,part_3,go,0.0,0.0,0.0,220.0,5.0,88.0,220.0,176.0,264.0,44.0,132.0,green,hexagon
0.0,7.0,3.0,1.0,7.0,4.0,1661.7850130423903,1.0,1.0,part_3,go,0.0,0.0,0.0,204.0,6.0,102.0,34.0,136.0,204.0,68.0,170.0,green,hexagon
0.0,6.0,2.0,1.0,7.0,3.0,1558.1832940224558,1.0,1.0,part_3,go,0.0,0.0,0.0,220.0,5.0,88.0,176.0,220.0,132.0,44.0,264.0,cyan,flipped triangle
0.0,3.0,3.0,0.0,7.0,5.0,2030.6507220957428,1.0,1.0,part_3,go,0.0,0.0,0.0,245.0,5.0,147.0,49.0,196.0,98.0,245.0,294.0,blue,triangle
0.0,6.0,2.0,1.0,7.0,5.0,1663.291913922876,1.0,1.0,part_3,go,0.0,0.0,0.0,195.0,5.0,39.0,78.0,234.0,156.0,195.0,117.0,cyan,flipped triangle
0.0,7.0,3.0,1.0,7.0,2.0,1243.6233749613166,1.0,1.0,part_3,go,0.0,0.0,0.0,220.0,5.0,44.0,220.0,176.0,88.0,132.0,264.0,green,hexagon
0.0,5.0,1.0,1.0,7.0,1.0,1372.8382929693907,1.0,1.0,part_3,go,0.0,0.0,0.0,220.0,5.0,220.0,88.0,264.0,132.0,44.0,176.0,white,diamond
0.0,3.0,3.0,0.0,7.0,5.0,1767.0233000535518,1.0,1.0,part_3,go,0.0,0.0,0.0,220.0,5.0,44.0,176.0,264.0,132.0,220.0,88.0,blue,triangle
0.0,8.0,4.0,1.0,7.0,6.0,1766.929859993979,1.0,1.0,part_3,go,0.0,0.0,0.0,204.0,6.0,34.0,102.0,136.0,68.0,170.0,204.0,orange,cross
0.0,7.0,3.0,1.0,7.0,2.0,1224.1422520019114,1.0,1.0,part_3,go,0.0,0.0,0.0,195.0,5.0,156.0,195.0,39.0,234.0,78.0,117.0,green,hexagon
0.0,3.0,3.0,0.0,7.0,1.0,1928.0526670627296,1.0,1.0,part_3,go,0.0,0.0,0.0,234.0,6.0,234.0,78.0,195.0,39.0,117.0,156.0,blue,triangle
0.0,8.0,4.0,1.0,7.0,6.0,1836.1943899653852,1.0,1.0,part_3,go,0.0,0.0,0.0,147.0,3.0,294.0,245.0,196.0,98.0,49.0,147.0,orange,cross
0.0,2.0,2.0,0.0,7.0,1.0,2382.1452620904893,1.0,1.0,part_3,go,0.0,0.0,0.0,245.0,5.0,245.0,196.0,294.0,49.0,147.0,98.0,magenta,circle
0.0,5.0,1.0,1.0,7.0,6.0,2507.4145689141005,1.0,1.0,part_3,go,0.0,0.0,0.0,216.0,4.0,324.0,270.0,162.0,108.0,54.0,216.0,white,diamond
0.0,2.0,2.0,0.0,7.0,2.0,1965.7092890702188,1.0,1.0,part_3,go,0.0,0.0,0.0,245.0,5.0,294.0,245.0,196.0,49.0,147.0,98.0,magenta,circle
0.0,6.0,2.0,1.0,7.0,2.0,968.2347138877958,1.0,1.0,part_3,go,0.0,0.0,0.0,204.0,6.0,68.0,204.0,170.0,102.0,136.0,34.0,cyan,flipped triangle
0.0,1.0,1.0,0.0,7.0,6.0,1346.7424840200692,1.0,1.0,part_3,go,0.0,0.0,0.0,216.0,4.0,324.0,54.0,270.0,162.0,108.0,216.0,gray,I
0.0,5.0,1.0,1.0,7.0,2.0,2999.8245800379664,2.0,1.0,part_3,go,0.0,0.0,0.0,270.0,5.0,162.0,270.0,216.0,54.0,324.0,108.0,white,diamond
0.0,2.0,2.0,0.0,7.0,2.0,1465.718105901033,2.0,1.0,part_3,go,0.0,0.0,0.0,234.0,6.0,195.0,234.0,156.0,117.0,39.0,78.0,magenta,circle
0.0,2.0,2.0,0.0,7.0,2.0,1449.9489599838853,2.0,1.0,part_3,go,0.0,0.0,0.0,162.0,3.0,54.0,162.0,216.0,108.0,270.0,324.0,magenta,circle
0.0,5.0,1.0,1.0,7.0,3.0,1563.7431459035724,2.0,1.0,part_3,go,0.0,0.0,0.0,195.0,5.0,234.0,78.0,195.0,156.0,117.0,39.0,white,diamond
0.0,6.0,2.0,1.0,7.0,2.0,1926.042224979028,2.0,1.0,part_3,go,0.0,0.0,0.0,108.0,2.0,270.0,108.0,324.0,54.0,162.0,216.0,cyan,flipped triangle
0.0,4.0,4.0,0.0,7.0,6.0,1053.3759761601686,2.0,1.0,part_3,go,0.0,0.0,0.0,162.0,3.0,108.0,216.0,270.0,324.0,54.0,162.0,yellow,square
0.0,5.0,1.0,1.0,7.0,6.0,1631.1140020843595,2.0,1.0,part_3,go,0.0,0.0,0.0,204.0,6.0,136.0,102.0,68.0,34.0,170.0,204.0,white,diamond
0.0,3.0,3.0,0.0,7.0,1.0,1275.4110088571906,2.0,1.0,part_3,go,0.0,0.0,0.0,204.0,6.0,204.0,136.0,102.0,34.0,68.0,170.0,blue,triangle
0.0,7.0,3.0,1.0,7.0,5.0,2050.642389105633,2.0,1.0,part_3,go,0.0,0.0,0.0,196.0,4.0,49.0,294.0,147.0,245.0,196.0,98.0,green,hexagon
0.0,1.0,1.0,0.0,7.0,4.0,1437.5566521193832,2.0,1.0,part_3,go,0.0,0.0,0.0,234.0,6.0,195.0,39.0,117.0,234.0,78.0,156.0,gray,I
0.0,7.0,3.0,1.0,7.0,6.0,1389.4216399639845,2.0,1.0,part_3,go,0.0,0.0,0.0,204.0,6.0,68.0,34.0,136.0,102.0,170.0,204.0,green,hexagon
0.0,3.0,3.0,0.0,7.0,2.0,1302.6440457906574,2.0,1.0,part_3,go,0.0,0.0,0.0,216.0,4.0,162.0,216.0,324.0,54.0,270.0,108.0,blue,triangle
0.0,7.0,3.0,1.0,7.0,5.0,1384.5233710017055,2.0,1.0,part_3,go,0.0,0.0,0.0,195.0,5.0,117.0,234.0,156.0,78.0,195.0,39.0,green,hexagon
0.0,1.0,1.0,0.0,7.0,4.0,1808.3696991670877,2.0,1.0,part_3,go,0.0,0.0,0.0,245.0,5.0,294.0,98.0,49.0,245.0,147.0,196.0,gray,I
0.0,4.0,4.0,0.0,7.0,3.0,1277.1472621243447,2.0,1.0,part_3,go,0.0,0.0,0.0,170.0,5.0,102.0,34.0,170.0,204.0,68.0,136.0,yellow,square
0.0,2.0,2.0,0.0,7.0,4.0,741.0964909940958,2.0,1.0,part_3,go,0.0,0.0,0.0,204.0,6.0,34.0,170.0,136.0,204.0,68.0,102.0,magenta,circle
0.0,8.0,4.0,1.0,7.0,4.0,791.4235880598426,2.0,1.0,part_3,go,0.0,0.0,0.0,204.0,6.0,34.0,102.0,136.0,204.0,170.0,68.0,orange,cross
0.0,2.0,2.0,0.0,7.0,3.0,1113.632451975718,2.0,1.0,part_3,go,0.0,0.0,0.0,204.0,6.0,136.0,68.0,204.0,34.0,102.0,170.0,magenta,circle
0.0,8.0,4.0,1.0,7.0,4.0,1418.221534928307,2.0,1.0,part_3,go,0.0,0.0,0.0,162.0,3.0,216.0,54.0,270.0,162.0,108.0,324.0,orange,cross
0.0,3.0,3.0,0.0,7.0,6.0,1843.8438868615776,2.0,1.0,part_3,go,0.0,0.0,0.0,132.0,3.0,220.0,176.0,264.0,44.0,88.0,132.0,blue,triangle
0.0,8.0,4.0,1.0,7.0,3.0,2127.7327181305736,3.0,1.0,part_3,go,0.0,0.0,0.0,108.0,2.0,324.0,270.0,108.0,162.0,54.0,216.0,orange,cross
0.0,6.0,2.0,1.0,7.0,3.0,696.5937360655516,3.0,1.0,part_3,go,0.0,0.0,0.0,204.0,6.0,68.0,170.0,204.0,136.0,102.0,34.0,cyan,flipped triangle
0.0,1.0,1.0,0.0,7.0,2.0,1947.0327799208465,3.0,1.0,part_3,go,0.0,0.0,0.0,176.0,4.0,220.0,176.0,132.0,44.0,88.0,264.0,gray,I
0.0,6.0,2.0,1.0,7.0,3.0,1132.2815250605345,3.0,1.0,part_3,go,0.0,0.0,0.0,196.0,4.0,147.0,49.0,196.0,294.0,98.0,245.0,cyan,flipped triangle
0.0,8.0,4.0,1.0,7.0,2.0,728.10093103908,3.0,1.0,part_3,go,0.0,0.0,0.0,176.0,4.0,88.0,176.0,132.0,264.0,220.0,44.0,orange,cross
0.0,1.0,1.0,0.0,7.0,3.0,912.5723938923328,3.0,1.0,part_3,go,0.0,0.0,0.0,54.0,1.0,324.0,216.0,54.0,162.0,108.0,270.0,gray,I
0.0,3.0,3.0,0.0,7.0,3.0,1227.6913959067317,3.0,1.0,part_3,go,0.0,0.0,0.0,162.0,3.0,270.0,108.0,162.0,324.0,54.0,216.0,blue,triangle
0.0,5.0,1.0,1.0,7.0,6.0,1916.0776380449531,3.0,1.0,part_3,go,0.0,0.0,0.0,156.0,4.0,117.0,234.0,78.0,195.0,39.0,156.0,white,diamond
0.0,2.0,2.0,0.0,7.0,6.0,1011.5727309603244,3.0,1.0,part_3,go,0.0,0.0,0.0,195.0,5.0,156.0,117.0,234.0,39.0,78.0,195.0,magenta,circle
0.0,4.0,4.0,0.0,7.0,6.0,1516.4412870071828,3.0,1.0,part_3,go,0.0,0.0,0.0,196.0,4.0,147.0,98.0,245.0,49.0,294.0,196.0,yellow,square
0.0,3.0,3.0,0.0,7.0,6.0,1037.9315570462495,3.0,1.0,part_3,go,0.0,0.0,0.0,102.0,3.0,34.0,68.0,136.0,170.0,204.0,102.0,blue,triangle
0.0,4.0,4.0,0.0,7.0,4.0,1167.182866949588,3.0,1.0,part_3,go,0.0,0.0,0.0,176.0,4.0,264.0,220.0,44.0,176.0,88.0,132.0,yellow,square
0.0,4.0,4.0,0.0,7.0,6.0,1587.1434030123055,3.0,1.0,part_3,go,0.0,0.0,0.0,195.0,5.0,39.0,78.0,156.0,117.0,234.0,195.0,yellow,square
0.0,1.0,1.0,0.0,7.0,5.0,1611.2198219634593,3.0,1.0,part_3,go,0.0,0.0,0.0,195.0,5.0,78.0,234.0,156.0,117.0,195.0,39.0,gray,I
0.0,3.0,3.0,0.0,7.0,6.0,2413.3952730335295,3.0,1.0,part_3,go,0.0,0.0,0.0,196.0,4.0,147.0,49.0,294.0,245.0,98.0,196.0,blue,triangle
0.0,6.0,2.0,1.0,7.0,4.0,1443.7505349051207,3.0,1.0,part_3,go,0.0,0.0,0.0,176.0,4.0,44.0,264.0,220.0,176.0,132.0,88.0,cyan,flipped triangle
0.0,2.0,2.0,0.0,7.0,3.0,1502.4130269885063,3.0,1.0,part_3,go,0.0,0.0,0.0,216.0,4.0,54.0,324.0,216.0,108.0,162.0,270.0,magenta,circle
0.0,8.0,4.0,1.0,7.0,6.0,1504.8369499854743,3.0,1.0,part_3,go,0.0,0.0,0.0,195.0,5.0,234.0,156.0,39.0,78.0,117.0,195.0,orange,cross
0.0,6.0,2.0,1.0,7.0,3.0,1530.737936031073,3.0,1.0,part_3,go,0.0,0.0,0.0,195.0,5.0,117.0,156.0,195.0,234.0,78.0,39.0,cyan,flipped triangle
0.0,3.0,3.0,0.0,7.0,5.0,1594.0302689559758,3.0,1.0,part_3,go,0.0,0.0,0.0,195.0,5.0,39.0,78.0,234.0,156.0,195.0,117.0,blue,triangle
0.0,1.0,1.0,0.0,7.0,6.0,1565.0116621982306,4.0,1.0,part_3,go,0.0,0.0,0.0,176.0,4.0,220.0,132.0,264.0,88.0,44.0,176.0,gray,I
0.0,4.0,4.0,0.0,7.0,3.0,1414.9229689501226,4.0,1.0,part_3,go,0.0,0.0,0.0,147.0,3.0,98.0,196.0,147.0,294.0,245.0,49.0,yellow,square
0.0,5.0,1.0,1.0,7.0,1.0,1257.3620688635856,4.0,1.0,part_3,go,0.0,0.0,0.0,245.0,5.0,245.0,294.0,49.0,98.0,196.0,147.0,white,diamond
0.0,8.0,4.0,1.0,7.0,6.0,801.6898778732866,4.0,1.0,part_3,go,0.0,0.0,0.0,196.0,4.0,49.0,147.0,98.0,294.0,245.0,196.0,orange,cross
0.0,4.0,4.0,0.0,7.0,5.0,993.108174065128,4.0,1.0,part_3,go,0.0,0.0,0.0,216.0,4.0,270.0,108.0,54.0,324.0,216.0,162.0,yellow,square
0.0,4.0,4.0,0.0,7.0,6.0,163.6409149505198,4.0,1.0,part_3,go,0.0,0.0,0.0,220.0,5.0,88.0,44.0,132.0,264.0,176.0,220.0,yellow,square
0.0,5.0,1.0,1.0,7.0,1.0,1533.4381628781557,4.0,1.0,part_3,go,0.0,0.0,0.0,204.0,6.0,204.0,102.0,34.0,136.0,68.0,170.0,white,diamond
0.0,8.0,4.0,1.0,7.0,5.0,1268.1332940701395,4.0,1.0,part_3,go,0.0,0.0,0.0,176.0,4.0,264.0,220.0,44.0,132.0,176.0,88.0,orange,cross
0.0,5.0,1.0,1.0,7.0,4.0,1431.483341846615,4.0,1.0,part_3,go,0.0,0.0,0.0,220.0,5.0,264.0,88.0,176.0,220.0,44.0,132.0,white,diamond
0.0,8.0,4.0,1.0,7.0,6.0,1312.6922429073602,4.0,1.0,part_3,go,0.0,0.0,0.0,195.0,5.0,234.0,78.0,117.0,39.0,156.0,195.0,orange,cross
0.0,2.0,2.0,0.0,7.0,6.0,1049.367801984772,4.0,1.0,part_3,go,0.0,0.0,0.0,220.0,5.0,44.0,176.0,132.0,264.0,88.0,220.0,magenta,circle
0.0,1.0,1.0,0.0,7.0,6.0,1409.84937408939,4.0,1.0,part_3,go,0.0,0.0,0.0,147.0,3.0,49.0,294.0,245.0,98.0,196.0,147.0,gray,I
0.0,7.0,3.0,1.0,7.0,2.0,2220.7373559940606,4.0,1.0,part_3,go,0.0,0.0,0.0,162.0,3.0,270.0,162.0,216.0,54.0,108.0,324.0,green,hexagon
0.0,5.0,1.0,1.0,7.0,3.0,332.0940549019724,4.0,1.0,part_3,go,0.0,0.0,0.0,245.0,5.0,147.0,196.0,245.0,98.0,49.0,294.0,white,diamond
0.0,4.0,4.0,0.0,7.0,1.0,416.7378679849207,4.0,1.0,part_3,go,0.0,0.0,0.0,195.0,5.0,195.0,117.0,78.0,234.0,156.0,39.0,yellow,square
0.0,1.0,1.0,0.0,7.0,6.0,1096.3092430029064,4.0,1.0,part_3,go,0.0,0.0,0.0,204.0,6.0,102.0,68.0,34.0,170.0,136.0,204.0,gray,I
0.0,6.0,2.0,1.0,7.0,3.0,1833.3197028841823,4.0,1.0,part_3,go,0.0,0.0,0.0,98.0,2.0,196.0,245.0,98.0,147.0,294.0,49.0,cyan,flipped triangle
0.0,2.0,2.0,0.0,7.0,2.0,987.2429340612144,4.0,1.0,part_3,go,0.0,0.0,0.0,176.0,4.0,88.0,176.0,44.0,220.0,264.0,132.0,magenta,circle
0.0,7.0,3.0,1.0,7.0,6.0,1724.1500199306756,4.0,1.0,part_3,go,0.0,0.0,0.0,196.0,4.0,294.0,245.0,147.0,49.0,98.0,196.0,green,hexagon
0.0,7.0,3.0,1.0,7.0,5.0,1295.6968529615551,4.0,1.0,part_3,go,0.0,0.0,0.0,216.0,4.0,270.0,54.0,108.0,162.0,216.0,324.0,green,hexagon
