raw_reward_magnitude,stim_reward,stepwise_reward_magnitude,paired_with_stopping,quadrant,response,reaction_time,block,num_trial_presentations,which_part,stop_signal_trial_type,left_SSD,right_SSD,accuracy,chosen_bidding_amount,chosen_bidding_level,possible_bid_1,possible_bid_2,possible_bid_3,possible_bid_4,possible_bid_5,possible_bid_6,color_text,shape_text
216.0,7.0,3.0,1.0,1.0,1.0,316.4724721573293,1.0,1.0,part_1,,,,,,,,,,,,,yellow,I
53.0,5.0,1.0,1.0,2.0,2.0,344.7130008134991,1.0,1.0,part_1,,,,,,,,,,,,,blue,hexagon
99.0,2.0,2.0,0.0,4.0,4.0,329.3386460281908,1.0,1.0,part_1,,,,,,,,,,,,,white,square
0.0,1.0,0.0,0.0,2.0,2.0,300.6223689299077,1.0,1.0,part_1,,,,,,,,,,,,,magenta,diamond
378.0,8.0,4.0,1.0,1.0,1.0,350.692864973098,1.0,1.0,part_1,,,,,,,,,,,,,green,circle
68.0,5.0,1.0,1.0,4.0,4.0,295.56077811867,1.0,1.0,part_1,,,,,,,,,,,,,blue,hexagon
177.0,7.0,3.0,1.0,4.0,4.0,282.6346289366483,1.0,1.0,part_1,,,,,,,,,,,,,yellow,I
198.0,3.0,3.0,0.0,4.0,4.0,254.4894570019096,1.0,1.0,part_1,,,,,,,,,,,,,orange,cross
0.0,6.0,0.0,1.0,3.0,3.0,291.7659408412874,1.0,1.0,part_1,,,,,,,,,,,,,gray,flipped triangle
103.0,6.0,2.0,1.0,3.0,3.0,305.0398000050336,1.0,1.0,part_1,,,,,,,,,,,,,gray,flipped triangle
62.0,1.0,1.0,0.0,1.0,1.0,283.051811857149,1.0,1.0,part_1,,,,,,,,,,,,,magenta,diamond
0.0,2.0,0.0,0.0,4.0,4.0,299.8946791049093,1.0,1.0,part_1,,,,,,,,,,,,,white,square
31.0,5.0,1.0,1.0,2.0,2.0,294.8016319423914,1.0,1.0,part_1,,,,,,,,,,,,,blue,hexagon
205.0,3.0,3.0,0.0,3.0,3.0,266.647458076477,1.0,1.0,part_1,,,,,,,,,,,,,orange,cross
0.0,3.0,0.0,0.0,3.0,3.0,278.5810760688036,1.0,1.0,part_1,,,,,,,,,,,,,orange,cross
193.0,3.0,3.0,0.0,1.0,1.0,237.0806310791522,1.0,1.0,part_1,,,,,,,,,,,,,orange,cross
0.0,1.0,0.0,0.0,3.0,3.0,335.5422678869217,1.0,1.0,part_1,,,,,,,,,,,,,magenta,diamond
186.0,7.0,3.0,1.0,4.0,4.0,254.72066598013038,1.0,1.0,part_1,,,,,,,,,,,,,yellow,I
120.0,2.0,2.0,0.0,1.0,1.0,259.0287309139967,1.0,1.0,part_1,,,,,,,,,,,,,white,square
92.0,6.0,2.0,1.0,1.0,1.0,341.3997220341116,1.0,1.0,part_1,,,,,,,,,,,,,gray,flipped triangle
198.0,7.0,3.0,1.0,2.0,2.0,243.5555078554898,1.0,1.0,part_1,,,,,,,,,,,,,yellow,I
392.0,8.0,4.0,1.0,1.0,1.0,279.1373960208148,1.0,1.0,part_1,,,,,,,,,,,,,green,circle
0.0,3.0,0.0,0.0,2.0,2.0,258.9590330608189,1.0,1.0,part_1,,,,,,,,,,,,,orange,cross
34.0,5.0,1.0,1.0,3.0,3.0,258.9680310338735,1.0,1.0,part_1,,,,,,,,,,,,,blue,hexagon
421.0,8.0,4.0,1.0,1.0,1.0,398.5360900405794,1.0,1.0,part_1,,,,,,,,,,,,,green,circle
398.0,4.0,4.0,0.0,3.0,3.0,271.4568991214037,1.0,2.0,part_1,,,,,,,,,,,,,cyan,triangle
223.0,3.0,3.0,0.0,3.0,3.0,275.1690049190074,1.0,1.0,part_1,,,,,,,,,,,,,orange,cross
204.0,7.0,3.0,1.0,1.0,1.0,279.5439360197633,1.0,1.0,part_1,,,,,,,,,,,,,yellow,I
212.0,3.0,3.0,0.0,1.0,1.0,294.8229701723903,1.0,1.0,part_1,,,,,,,,,,,,,orange,cross
225.0,7.0,3.0,1.0,2.0,2.0,257.5082760304212,1.0,1.0,part_1,,,,,,,,,,,,,yellow,I
389.0,8.0,4.0,1.0,1.0,1.0,254.06014919281,1.0,1.0,part_1,,,,,,,,,,,,,green,circle
57.0,5.0,1.0,1.0,1.0,1.0,269.928130088374,1.0,1.0,part_1,,,,,,,,,,,,,blue,hexagon
75.0,2.0,2.0,0.0,3.0,3.0,262.8408290911466,1.0,1.0,part_1,,,,,,,,,,,,,white,square
93.0,6.0,2.0,1.0,1.0,1.0,270.8310589659959,1.0,1.0,part_1,,,,,,,,,,,,,gray,flipped triangle
375.0,4.0,4.0,0.0,1.0,1.0,299.9089600052684,1.0,1.0,part_1,,,,,,,,,,,,,cyan,triangle
53.0,5.0,1.0,1.0,3.0,3.0,229.6182201243937,1.0,1.0,part_1,,,,,,,,,,,,,blue,hexagon
77.0,6.0,2.0,1.0,2.0,2.0,307.4180791154504,1.0,1.0,part_1,,,,,,,,,,,,,gray,flipped triangle
421.0,4.0,4.0,0.0,3.0,3.0,287.0825240388512,1.0,1.0,part_1,,,,,,,,,,,,,cyan,triangle
52.0,5.0,1.0,1.0,2.0,2.0,266.4971589110791,1.0,2.0,part_1,,,,,,,,,,,,,blue,hexagon
77.0,6.0,2.0,1.0,2.0,2.0,309.7576030995697,1.0,1.0,part_1,,,,,,,,,,,,,gray,flipped triangle
89.0,2.0,2.0,0.0,4.0,4.0,337.0773219503462,1.0,1.0,part_1,,,,,,,,,,,,,white,square
393.0,4.0,4.0,0.0,3.0,3.0,296.1858951020986,1.0,1.0,part_1,,,,,,,,,,,,,cyan,triangle
114.0,2.0,2.0,0.0,4.0,4.0,411.1793448682874,1.0,1.0,part_1,,,,,,,,,,,,,white,square
30.0,1.0,1.0,0.0,2.0,2.0,383.2971989177167,1.0,1.0,part_1,,,,,,,,,,,,,magenta,diamond
199.0,3.0,3.0,0.0,4.0,4.0,262.7352240961045,1.0,1.0,part_1,,,,,,,,,,,,,orange,cross
112.0,2.0,2.0,0.0,2.0,2.0,315.9378350246697,1.0,1.0,part_1,,,,,,,,,,,,,white,square
376.0,4.0,4.0,0.0,2.0,2.0,303.8302301429212,1.0,1.0,part_1,,,,,,,,,,,,,cyan,triangle
188.0,3.0,3.0,0.0,3.0,3.0,267.090291948989,1.0,1.0,part_1,,,,,,,,,,,,,orange,cross
115.0,6.0,2.0,1.0,3.0,3.0,287.7767800819129,1.0,1.0,part_1,,,,,,,,,,,,,gray,flipped triangle
48.0,1.0,1.0,0.0,3.0,3.0,308.6664341390133,1.0,1.0,part_1,,,,,,,,,,,,,magenta,diamond
0.0,6.0,0.0,1.0,3.0,3.0,290.6933419872075,1.0,1.0,part_1,,,,,,,,,,,,,gray,flipped triangle
104.0,6.0,2.0,1.0,1.0,1.0,327.4335181340575,1.0,1.0,part_1,,,,,,,,,,,,,gray,flipped triangle
0.0,3.0,0.0,0.0,4.0,4.0,297.7912749629468,1.0,1.0,part_1,,,,,,,,,,,,,orange,cross
36.0,5.0,1.0,1.0,4.0,4.0,274.1452739574015,1.0,1.0,part_1,,,,,,,,,,,,,blue,hexagon
118.0,2.0,2.0,0.0,4.0,4.0,286.7478211410343,1.0,1.0,part_1,,,,,,,,,,,,,white,square
0.0,2.0,0.0,0.0,1.0,1.0,290.1507238857448,1.0,1.0,part_1,,,,,,,,,,,,,white,square
418.0,8.0,4.0,1.0,4.0,4.0,253.61683289520442,1.0,1.0,part_1,,,,,,,,,,,,,green,circle
0.0,4.0,0.0,0.0,4.0,4.0,248.6199319828301,1.0,1.0,part_1,,,,,,,,,,,,,cyan,triangle
0.0,2.0,0.0,0.0,3.0,3.0,294.036669889465,1.0,1.0,part_1,,,,,,,,,,,,,white,square
379.0,8.0,4.0,1.0,3.0,3.0,261.0905279871076,1.0,1.0,part_1,,,,,,,,,,,,,green,circle
199.0,7.0,3.0,1.0,4.0,4.0,302.5349229574203,1.0,1.0,part_1,,,,,,,,,,,,,yellow,I
67.0,5.0,1.0,1.0,1.0,1.0,302.705320995301,1.0,1.0,part_1,,,,,,,,,,,,,blue,hexagon
26.0,1.0,1.0,0.0,2.0,2.0,282.8482610639184,1.0,1.0,part_1,,,,,,,,,,,,,magenta,diamond
209.0,7.0,3.0,1.0,4.0,4.0,253.47281899303198,1.0,1.0,part_1,,,,,,,,,,,,,yellow,I
43.0,1.0,1.0,0.0,3.0,3.0,323.2409891206771,1.0,1.0,part_1,,,,,,,,,,,,,magenta,diamond
380.0,8.0,4.0,1.0,4.0,4.0,294.7238381020725,1.0,1.0,part_1,,,,,,,,,,,,,green,circle
409.0,8.0,4.0,1.0,3.0,3.0,291.5150180924684,1.0,1.0,part_1,,,,,,,,,,,,,green,circle
86.0,6.0,2.0,1.0,2.0,2.0,304.484557826072,1.0,1.0,part_1,,,,,,,,,,,,,gray,flipped triangle
73.0,1.0,1.0,0.0,4.0,4.0,246.2316649034619,1.0,1.0,part_1,,,,,,,,,,,,,magenta,diamond
219.0,7.0,3.0,1.0,1.0,1.0,275.7603980135172,1.0,1.0,part_1,,,,,,,,,,,,,yellow,I
0.0,2.0,0.0,0.0,1.0,1.0,280.053213937208,1.0,1.0,part_1,,,,,,,,,,,,,white,square
211.0,7.0,3.0,1.0,4.0,4.0,295.1358139980584,1.0,2.0,part_1,,,,,,,,,,,,,yellow,I
43.0,5.0,1.0,1.0,3.0,3.0,323.652951978147,1.0,1.0,part_1,,,,,,,,,,,,,blue,hexagon
177.0,3.0,3.0,0.0,4.0,4.0,298.6959819681942,1.0,1.0,part_1,,,,,,,,,,,,,orange,cross
0.0,5.0,0.0,1.0,3.0,3.0,277.4726811330765,1.0,1.0,part_1,,,,,,,,,,,,,blue,hexagon
76.0,6.0,2.0,1.0,2.0,2.0,329.8104398418218,1.0,1.0,part_1,,,,,,,,,,,,,gray,flipped triangle
211.0,3.0,3.0,0.0,2.0,2.0,328.7953299004584,1.0,1.0,part_1,,,,,,,,,,,,,orange,cross
77.0,2.0,2.0,0.0,1.0,1.0,331.1493729706853,1.0,1.0,part_1,,,,,,,,,,,,,white,square
180.0,3.0,3.0,0.0,4.0,4.0,298.8692261278629,1.0,1.0,part_1,,,,,,,,,,,,,orange,cross
422.0,8.0,4.0,1.0,1.0,1.0,285.3965288959443,1.0,1.0,part_1,,,,,,,,,,,,,green,circle
402.0,8.0,4.0,1.0,4.0,4.0,273.8368150312453,1.0,1.0,part_1,,,,,,,,,,,,,green,circle
398.0,8.0,4.0,1.0,3.0,3.0,335.8253929764032,1.0,1.0,part_1,,,,,,,,,,,,,green,circle
0.0,3.0,0.0,0.0,4.0,4.0,285.9159528743475,1.0,1.0,part_1,,,,,,,,,,,,,orange,cross
382.0,8.0,4.0,1.0,3.0,3.0,331.3760249875486,1.0,1.0,part_1,,,,,,,,,,,,,green,circle
221.0,7.0,3.0,1.0,3.0,3.0,310.9335859771818,1.0,1.0,part_1,,,,,,,,,,,,,yellow,I
93.0,6.0,2.0,1.0,2.0,2.0,289.3488199915737,1.0,1.0,part_1,,,,,,,,,,,,,gray,flipped triangle
0.0,7.0,0.0,1.0,4.0,4.0,237.2433980926871,1.0,1.0,part_1,,,,,,,,,,,,,yellow,I
186.0,3.0,3.0,0.0,4.0,4.0,305.9549999888986,1.0,1.0,part_1,,,,,,,,,,,,,orange,cross
92.0,2.0,2.0,0.0,4.0,4.0,274.8796329833567,1.0,1.0,part_1,,,,,,,,,,,,,white,square
0.0,3.0,0.0,0.0,3.0,3.0,300.2244890667498,1.0,1.0,part_1,,,,,,,,,,,,,orange,cross
67.0,1.0,1.0,0.0,1.0,1.0,304.4665809720754,1.0,1.0,part_1,,,,,,,,,,,,,magenta,diamond
0.0,5.0,0.0,1.0,3.0,3.0,319.6131580043584,1.0,1.0,part_1,,,,,,,,,,,,,blue,hexagon
27.0,5.0,1.0,1.0,4.0,4.0,293.505203910172,1.0,1.0,part_1,,,,,,,,,,,,,blue,hexagon
122.0,2.0,2.0,0.0,2.0,2.0,272.2448559943586,1.0,1.0,part_1,,,,,,,,,,,,,white,square
209.0,3.0,3.0,0.0,2.0,2.0,358.4847040474415,1.0,1.0,part_1,,,,,,,,,,,,,orange,cross
76.0,2.0,2.0,0.0,3.0,3.0,287.2622269205749,1.0,1.0,part_1,,,,,,,,,,,,,white,square
68.0,1.0,1.0,0.0,1.0,1.0,263.3596640080213,1.0,1.0,part_1,,,,,,,,,,,,,magenta,diamond
407.0,8.0,4.0,1.0,1.0,1.0,307.7594568021595,1.0,1.0,part_1,,,,,,,,,,,,,green,circle
388.0,8.0,4.0,1.0,2.0,2.0,293.1483821012079,1.0,1.0,part_1,,,,,,,,,,,,,green,circle
62.0,5.0,1.0,1.0,4.0,4.0,275.0406481791287,1.0,1.0,part_1,,,,,,,,,,,,,blue,hexagon
101.0,2.0,2.0,0.0,1.0,1.0,285.4875030461699,2.0,1.0,part_1,,,,,,,,,,,,,white,square
0.0,7.0,0.0,1.0,4.0,4.0,265.8489819150418,2.0,1.0,part_1,,,,,,,,,,,,,yellow,I
61.0,1.0,1.0,0.0,4.0,4.0,286.3056990318,2.0,1.0,part_1,,,,,,,,,,,,,magenta,diamond
182.0,3.0,3.0,0.0,4.0,4.0,275.1829931512475,2.0,1.0,part_1,,,,,,,,,,,,,orange,cross
67.0,5.0,1.0,1.0,1.0,1.0,226.1828321497887,2.0,1.0,part_1,,,,,,,,,,,,,blue,hexagon
0.0,7.0,0.0,1.0,2.0,2.0,246.0167668759822,2.0,1.0,part_1,,,,,,,,,,,,,yellow,I
75.0,5.0,1.0,1.0,1.0,1.0,267.0700701419264,2.0,1.0,part_1,,,,,,,,,,,,,blue,hexagon
43.0,1.0,1.0,0.0,1.0,1.0,296.4272799436003,2.0,1.0,part_1,,,,,,,,,,,,,magenta,diamond
196.0,3.0,3.0,0.0,3.0,3.0,325.452049029991,2.0,1.0,part_1,,,,,,,,,,,,,orange,cross
0.0,8.0,0.0,1.0,2.0,2.0,312.287826789543,2.0,1.0,part_1,,,,,,,,,,,,,green,circle
26.0,1.0,1.0,0.0,4.0,4.0,275.7716320920735,2.0,1.0,part_1,,,,,,,,,,,,,magenta,diamond
0.0,2.0,0.0,0.0,3.0,3.0,274.2276419885456,2.0,1.0,part_1,,,,,,,,,,,,,white,square
0.0,7.0,0.0,1.0,1.0,1.0,262.5788308214396,2.0,1.0,part_1,,,,,,,,,,,,,yellow,I
179.0,3.0,3.0,0.0,2.0,2.0,403.5434499382972,2.0,1.0,part_1,,,,,,,,,,,,,orange,cross
0.0,2.0,0.0,0.0,4.0,4.0,465.625120094046,2.0,1.0,part_1,,,,,,,,,,,,,white,square
219.0,3.0,3.0,0.0,1.0,1.0,250.5410010926425,2.0,1.0,part_1,,,,,,,,,,,,,orange,cross
413.0,4.0,4.0,0.0,4.0,4.0,337.2040488757193,2.0,1.0,part_1,,,,,,,,,,,,,cyan,triangle
389.0,8.0,4.0,1.0,2.0,2.0,276.6045820899308,2.0,1.0,part_1,,,,,,,,,,,,,green,circle
38.0,1.0,1.0,0.0,2.0,2.0,345.1100860256701,2.0,1.0,part_1,,,,,,,,,,,,,magenta,diamond
92.0,2.0,2.0,0.0,2.0,2.0,337.0211061555892,2.0,1.0,part_1,,,,,,,,,,,,,white,square
389.0,4.0,4.0,0.0,3.0,3.0,266.4009900763631,2.0,1.0,part_1,,,,,,,,,,,,,cyan,triangle
61.0,5.0,1.0,1.0,4.0,4.0,263.2732109632343,2.0,1.0,part_1,,,,,,,,,,,,,blue,hexagon
191.0,3.0,3.0,0.0,3.0,3.0,263.3256239350885,2.0,1.0,part_1,,,,,,,,,,,,,orange,cross
45.0,1.0,1.0,0.0,4.0,4.0,258.978373138234,2.0,1.0,part_1,,,,,,,,,,,,,magenta,diamond
188.0,7.0,3.0,1.0,1.0,1.0,270.4431309830397,2.0,1.0,part_1,,,,,,,,,,,,,yellow,I
0.0,1.0,0.0,0.0,2.0,2.0,224.940326064825,2.0,1.0,part_1,,,,,,,,,,,,,magenta,diamond
412.0,8.0,4.0,1.0,4.0,4.0,257.1820428129285,2.0,1.0,part_1,,,,,,,,,,,,,green,circle
57.0,1.0,1.0,0.0,2.0,2.0,290.585289010778,2.0,1.0,part_1,,,,,,,,,,,,,magenta,diamond
108.0,2.0,2.0,0.0,1.0,1.0,263.1873160135001,2.0,1.0,part_1,,,,,,,,,,,,,white,square
189.0,7.0,3.0,1.0,1.0,1.0,311.9478339795023,2.0,1.0,part_1,,,,,,,,,,,,,yellow,I
0.0,1.0,0.0,0.0,4.0,4.0,267.6491169258952,2.0,1.0,part_1,,,,,,,,,,,,,magenta,diamond
0.0,7.0,0.0,1.0,1.0,1.0,237.6434910111129,2.0,1.0,part_1,,,,,,,,,,,,,yellow,I
99.0,6.0,2.0,1.0,4.0,4.0,286.6634170059114,2.0,2.0,part_1,,,,,,,,,,,,,gray,flipped triangle
0.0,6.0,0.0,1.0,4.0,4.0,292.1013829763978,2.0,1.0,part_1,,,,,,,,,,,,,gray,flipped triangle
385.0,8.0,4.0,1.0,4.0,4.0,290.2351540978998,2.0,1.0,part_1,,,,,,,,,,,,,green,circle
0.0,3.0,0.0,0.0,1.0,1.0,309.6984799485653,2.0,1.0,part_1,,,,,,,,,,,,,orange,cross
81.0,6.0,2.0,1.0,1.0,1.0,356.0091939289123,2.0,1.0,part_1,,,,,,,,,,,,,gray,flipped triangle
31.0,1.0,1.0,0.0,3.0,3.0,311.1193769145757,2.0,1.0,part_1,,,,,,,,,,,,,magenta,diamond
0.0,5.0,0.0,1.0,1.0,1.0,365.5592170543968,2.0,1.0,part_1,,,,,,,,,,,,,blue,hexagon
50.0,5.0,1.0,1.0,1.0,1.0,311.7647559847682,2.0,1.0,part_1,,,,,,,,,,,,,blue,hexagon
122.0,6.0,2.0,1.0,4.0,4.0,311.4966929424554,2.0,1.0,part_1,,,,,,,,,,,,,gray,flipped triangle
68.0,5.0,1.0,1.0,2.0,2.0,352.6564498897642,2.0,1.0,part_1,,,,,,,,,,,,,blue,hexagon
80.0,2.0,2.0,0.0,3.0,3.0,302.3355260957032,2.0,1.0,part_1,,,,,,,,,,,,,white,square
217.0,7.0,3.0,1.0,3.0,3.0,300.2476510591805,2.0,1.0,part_1,,,,,,,,,,,,,yellow,I
0.0,8.0,0.0,1.0,3.0,3.0,271.872267825529,2.0,1.0,part_1,,,,,,,,,,,,,green,circle
112.0,6.0,2.0,1.0,2.0,2.0,307.4165319558233,2.0,1.0,part_1,,,,,,,,,,,,,gray,flipped triangle
114.0,6.0,2.0,1.0,2.0,2.0,315.1684110052883,2.0,1.0,part_1,,,,,,,,,,,,,gray,flipped triangle
0.0,5.0,0.0,1.0,3.0,3.0,295.5231859814375,2.0,1.0,part_1,,,,,,,,,,,,,blue,hexagon
0.0,1.0,0.0,0.0,2.0,2.0,253.5869290586561,2.0,1.0,part_1,,,,,,,,,,,,,magenta,diamond
183.0,7.0,3.0,1.0,4.0,4.0,287.1283099520951,2.0,1.0,part_1,,,,,,,,,,,,,yellow,I
179.0,7.0,3.0,1.0,4.0,4.0,307.541866088286,2.0,1.0,part_1,,,,,,,,,,,,,yellow,I
180.0,7.0,3.0,1.0,3.0,3.0,283.0432199407369,2.0,1.0,part_1,,,,,,,,,,,,,yellow,I
38.0,5.0,1.0,1.0,3.0,3.0,287.7212208695709,2.0,1.0,part_1,,,,,,,,,,,,,blue,hexagon
33.0,5.0,1.0,1.0,1.0,1.0,291.7574159801006,2.0,1.0,part_1,,,,,,,,,,,,,blue,hexagon
95.0,2.0,2.0,0.0,1.0,1.0,320.5909670796245,2.0,1.0,part_1,,,,,,,,,,,,,white,square
86.0,2.0,2.0,0.0,1.0,1.0,270.7978079561144,2.0,1.0,part_1,,,,,,,,,,,,,white,square
219.0,7.0,3.0,1.0,3.0,3.0,282.1168811060488,2.0,1.0,part_1,,,,,,,,,,,,,yellow,I
225.0,3.0,3.0,0.0,2.0,2.0,310.9608548693359,2.0,1.0,part_1,,,,,,,,,,,,,orange,cross
414.0,8.0,4.0,1.0,4.0,4.0,274.4346631225198,2.0,1.0,part_1,,,,,,,,,,,,,green,circle
93.0,2.0,2.0,0.0,2.0,2.0,327.7588139753788,2.0,1.0,part_1,,,,,,,,,,,,,white,square
0.0,7.0,0.0,1.0,1.0,1.0,281.928283162415,2.0,1.0,part_1,,,,,,,,,,,,,yellow,I
218.0,7.0,3.0,1.0,1.0,1.0,294.69178407453,2.0,1.0,part_1,,,,,,,,,,,,,yellow,I
0.0,4.0,0.0,0.0,2.0,2.0,294.9093361385166,2.0,1.0,part_1,,,,,,,,,,,,,cyan,triangle
0.0,6.0,0.0,1.0,1.0,1.0,258.1750750541687,2.0,1.0,part_1,,,,,,,,,,,,,gray,flipped triangle
53.0,1.0,1.0,0.0,4.0,4.0,279.7640410717577,2.0,1.0,part_1,,,,,,,,,,,,,magenta,diamond
0.0,2.0,0.0,0.0,3.0,3.0,267.0834499876946,2.0,1.0,part_1,,,,,,,,,,,,,white,square
413.0,4.0,4.0,0.0,4.0,4.0,272.1328579355031,2.0,1.0,part_1,,,,,,,,,,,,,cyan,triangle
402.0,4.0,4.0,0.0,2.0,2.0,317.3273738939315,2.0,1.0,part_1,,,,,,,,,,,,,cyan,triangle
46.0,5.0,1.0,1.0,1.0,1.0,250.7502909284085,2.0,1.0,part_1,,,,,,,,,,,,,blue,hexagon
77.0,2.0,2.0,0.0,1.0,1.0,255.21864998154342,2.0,1.0,part_1,,,,,,,,,,,,,white,square
44.0,5.0,1.0,1.0,2.0,2.0,304.9090739805251,2.0,1.0,part_1,,,,,,,,,,,,,blue,hexagon
50.0,1.0,1.0,0.0,1.0,1.0,238.50140208378428,2.0,1.0,part_1,,,,,,,,,,,,,magenta,diamond
392.0,8.0,4.0,1.0,2.0,2.0,276.4632261823863,2.0,1.0,part_1,,,,,,,,,,,,,green,circle
389.0,4.0,4.0,0.0,4.0,4.0,287.2071519959718,2.0,1.0,part_1,,,,,,,,,,,,,cyan,triangle
409.0,4.0,4.0,0.0,1.0,1.0,254.0612870361656,2.0,1.0,part_1,,,,,,,,,,,,,cyan,triangle
224.0,7.0,3.0,1.0,1.0,1.0,233.603814151138,2.0,1.0,part_1,,,,,,,,,,,,,yellow,I
67.0,1.0,1.0,0.0,4.0,4.0,271.9061670359224,2.0,1.0,part_1,,,,,,,,,,,,,magenta,diamond
73.0,5.0,1.0,1.0,4.0,4.0,274.5259569492191,2.0,1.0,part_1,,,,,,,,,,,,,blue,hexagon
211.0,7.0,3.0,1.0,3.0,3.0,272.8851311840117,2.0,1.0,part_1,,,,,,,,,,,,,yellow,I
117.0,6.0,2.0,1.0,3.0,3.0,287.4842321034521,2.0,1.0,part_1,,,,,,,,,,,,,gray,flipped triangle
53.0,1.0,1.0,0.0,3.0,3.0,268.0559349246323,2.0,1.0,part_1,,,,,,,,,,,,,magenta,diamond
78.0,2.0,2.0,0.0,4.0,4.0,271.4516168925911,2.0,1.0,part_1,,,,,,,,,,,,,white,square
73.0,1.0,1.0,0.0,4.0,4.0,250.00038603320718,2.0,1.0,part_1,,,,,,,,,,,,,magenta,diamond
26.0,5.0,1.0,1.0,1.0,1.0,261.9636089075356,2.0,1.0,part_1,,,,,,,,,,,,,blue,hexagon
0.0,2.0,0.0,0.0,4.0,4.0,262.4697461724281,2.0,1.0,part_1,,,,,,,,,,,,,white,square
177.0,7.0,3.0,1.0,2.0,2.0,270.8618040196597,2.0,1.0,part_1,,,,,,,,,,,,,yellow,I
103.0,2.0,2.0,0.0,3.0,3.0,295.3011521603912,2.0,1.0,part_1,,,,,,,,,,,,,white,square
75.0,1.0,1.0,0.0,2.0,2.0,296.5551600791514,2.0,1.0,part_1,,,,,,,,,,,,,magenta,diamond
392.0,4.0,4.0,0.0,3.0,3.0,262.3066580854356,2.0,1.0,part_1,,,,,,,,,,,,,cyan,triangle
412.0,4.0,4.0,0.0,2.0,2.0,259.1077818069607,2.0,1.0,part_1,,,,,,,,,,,,,cyan,triangle
414.0,4.0,4.0,0.0,1.0,1.0,270.4310838598758,2.0,1.0,part_1,,,,,,,,,,,,,cyan,triangle
36.0,1.0,1.0,0.0,1.0,1.0,317.164990119636,2.0,1.0,part_1,,,,,,,,,,,,,magenta,diamond
388.0,4.0,4.0,0.0,3.0,3.0,299.3902049493044,2.0,1.0,part_1,,,,,,,,,,,,,cyan,triangle
416.0,8.0,4.0,1.0,1.0,1.0,288.0114768631756,2.0,1.0,part_1,,,,,,,,,,,,,green,circle
184.0,3.0,3.0,0.0,1.0,1.0,284.08752102404827,2.0,1.0,part_1,,,,,,,,,,,,,orange,cross
68.0,1.0,1.0,0.0,3.0,3.0,328.8017339073121,2.0,1.0,part_1,,,,,,,,,,,,,magenta,diamond
0.0,3.0,0.0,0.0,2.0,2.0,299.7321160510182,2.0,1.0,part_1,,,,,,,,,,,,,orange,cross
418.0,4.0,4.0,0.0,4.0,4.0,266.6873941197991,2.0,1.0,part_1,,,,,,,,,,,,,cyan,triangle
71.0,1.0,1.0,0.0,2.0,2.0,263.5528678074479,2.0,1.0,part_1,,,,,,,,,,,,,magenta,diamond
0.0,8.0,0.0,1.0,2.0,2.0,328.5059500485658,2.0,1.0,part_1,,,,,,,,,,,,,green,circle
0.0,6.0,0.0,1.0,2.0,2.0,279.0514479856938,3.0,1.0,part_1,,,,,,,,,,,,,gray,flipped triangle
0.0,2.0,0.0,0.0,4.0,4.0,265.517977066338,3.0,1.0,part_1,,,,,,,,,,,,,white,square
375.0,8.0,4.0,1.0,4.0,4.0,294.2348499782383,3.0,1.0,part_1,,,,,,,,,,,,,green,circle
403.0,8.0,4.0,1.0,1.0,1.0,242.617537965998,3.0,1.0,part_1,,,,,,,,,,,,,green,circle
380.0,4.0,4.0,0.0,4.0,4.0,291.5446748957038,3.0,1.0,part_1,,,,,,,,,,,,,cyan,triangle
0.0,8.0,0.0,1.0,3.0,3.0,294.880824862048,3.0,1.0,part_1,,,,,,,,,,,,,green,circle
73.0,5.0,1.0,1.0,1.0,1.0,300.4362811334431,3.0,1.0,part_1,,,,,,,,,,,,,blue,hexagon
30.0,5.0,1.0,1.0,4.0,4.0,262.9520141053945,3.0,1.0,part_1,,,,,,,,,,,,,blue,hexagon
61.0,5.0,1.0,1.0,3.0,3.0,267.0103970449418,3.0,1.0,part_1,,,,,,,,,,,,,blue,hexagon
0.0,5.0,0.0,1.0,2.0,2.0,262.7933581825346,3.0,1.0,part_1,,,,,,,,,,,,,blue,hexagon
211.0,3.0,3.0,0.0,3.0,3.0,270.2164349611848,3.0,1.0,part_1,,,,,,,,,,,,,orange,cross
0.0,4.0,0.0,0.0,1.0,1.0,224.2160479072481,3.0,1.0,part_1,,,,,,,,,,,,,cyan,triangle
220.0,3.0,3.0,0.0,4.0,4.0,263.9992069453001,3.0,1.0,part_1,,,,,,,,,,,,,orange,cross
0.0,4.0,0.0,0.0,4.0,4.0,387.4073380138725,3.0,1.0,part_1,,,,,,,,,,,,,cyan,triangle
0.0,6.0,0.0,1.0,1.0,1.0,281.02962882258,3.0,1.0,part_1,,,,,,,,,,,,,gray,flipped triangle
98.0,2.0,2.0,0.0,1.0,1.0,251.7406709957868,3.0,1.0,part_1,,,,,,,,,,,,,white,square
376.0,8.0,4.0,1.0,2.0,2.0,337.5616129487753,3.0,1.0,part_1,,,,,,,,,,,,,green,circle
67.0,1.0,1.0,0.0,2.0,2.0,286.7431680206209,3.0,1.0,part_1,,,,,,,,,,,,,magenta,diamond
125.0,6.0,2.0,1.0,3.0,3.0,283.8127638678998,3.0,1.0,part_1,,,,,,,,,,,,,gray,flipped triangle
81.0,2.0,2.0,0.0,2.0,2.0,272.4244550336152,3.0,1.0,part_1,,,,,,,,,,,,,white,square
219.0,3.0,3.0,0.0,3.0,3.0,259.9929831922054,3.0,1.0,part_1,,,,,,,,,,,,,orange,cross
75.0,6.0,2.0,1.0,4.0,4.0,280.5595239624381,3.0,1.0,part_1,,,,,,,,,,,,,gray,flipped triangle
74.0,1.0,1.0,0.0,2.0,2.0,291.4206848945468,3.0,1.0,part_1,,,,,,,,,,,,,magenta,diamond
399.0,8.0,4.0,1.0,2.0,2.0,247.8754450567066,3.0,1.0,part_1,,,,,,,,,,,,,green,circle
53.0,1.0,1.0,0.0,3.0,3.0,264.0882970299572,3.0,1.0,part_1,,,,,,,,,,,,,magenta,diamond
198.0,7.0,3.0,1.0,2.0,2.0,268.1645720731467,3.0,1.0,part_1,,,,,,,,,,,,,yellow,I
204.0,3.0,3.0,0.0,1.0,1.0,254.9786909949034,3.0,1.0,part_1,,,,,,,,,,,,,orange,cross
124.0,2.0,2.0,0.0,2.0,2.0,283.6558381095528,3.0,1.0,part_1,,,,,,,,,,,,,white,square
121.0,2.0,2.0,0.0,3.0,3.0,267.8541019558906,3.0,1.0,part_1,,,,,,,,,,,,,white,square
421.0,8.0,4.0,1.0,3.0,3.0,366.4210310671478,3.0,1.0,part_1,,,,,,,,,,,,,green,circle
407.0,4.0,4.0,0.0,4.0,4.0,237.3532790224999,3.0,1.0,part_1,,,,,,,,,,,,,cyan,triangle
199.0,7.0,3.0,1.0,3.0,3.0,278.7525469902903,3.0,1.0,part_1,,,,,,,,,,,,,yellow,I
221.0,3.0,3.0,0.0,2.0,2.0,227.0208708941936,3.0,1.0,part_1,,,,,,,,,,,,,orange,cross
424.0,8.0,4.0,1.0,2.0,2.0,258.1441139336675,3.0,1.0,part_1,,,,,,,,,,,,,green,circle
424.0,4.0,4.0,0.0,3.0,3.0,245.9651550743729,3.0,1.0,part_1,,,,,,,,,,,,,cyan,triangle
402.0,4.0,4.0,0.0,2.0,2.0,275.4954451229423,3.0,1.0,part_1,,,,,,,,,,,,,cyan,triangle
223.0,7.0,3.0,1.0,1.0,1.0,230.1368180196732,3.0,1.0,part_1,,,,,,,,,,,,,yellow,I
178.0,3.0,3.0,0.0,3.0,3.0,241.9449479784816,3.0,1.0,part_1,,,,,,,,,,,,,orange,cross
193.0,7.0,3.0,1.0,3.0,3.0,279.4598171021789,3.0,1.0,part_1,,,,,,,,,,,,,yellow,I
0.0,7.0,0.0,1.0,1.0,1.0,271.7587249353528,3.0,2.0,part_1,,,,,,,,,,,,,yellow,I
28.0,1.0,1.0,0.0,1.0,1.0,238.6655358131975,3.0,1.0,part_1,,,,,,,,,,,,,magenta,diamond
0.0,3.0,0.0,0.0,4.0,4.0,290.2974630706012,3.0,1.0,part_1,,,,,,,,,,,,,orange,cross
392.0,4.0,4.0,0.0,4.0,4.0,288.1493391469121,3.0,1.0,part_1,,,,,,,,,,,,,cyan,triangle
33.0,1.0,1.0,0.0,3.0,3.0,259.7173540852964,3.0,1.0,part_1,,,,,,,,,,,,,magenta,diamond
0.0,8.0,0.0,1.0,3.0,3.0,313.4647838305682,3.0,1.0,part_1,,,,,,,,,,,,,green,circle
84.0,6.0,2.0,1.0,4.0,4.0,302.1247698925435,3.0,1.0,part_1,,,,,,,,,,,,,gray,flipped triangle
219.0,3.0,3.0,0.0,3.0,3.0,268.1706100702286,3.0,1.0,part_1,,,,,,,,,,,,,orange,cross
384.0,8.0,4.0,1.0,1.0,1.0,270.0234150979668,3.0,1.0,part_1,,,,,,,,,,,,,green,circle
219.0,7.0,3.0,1.0,3.0,3.0,274.9341730959713,3.0,1.0,part_1,,,,,,,,,,,,,yellow,I
402.0,8.0,4.0,1.0,2.0,2.0,303.4368369262665,3.0,1.0,part_1,,,,,,,,,,,,,green,circle
29.0,1.0,1.0,0.0,4.0,4.0,286.9514240883291,3.0,1.0,part_1,,,,,,,,,,,,,magenta,diamond
175.0,7.0,3.0,1.0,2.0,2.0,296.6268768068403,3.0,1.0,part_1,,,,,,,,,,,,,yellow,I
189.0,3.0,3.0,0.0,2.0,2.0,283.7339928373694,3.0,2.0,part_1,,,,,,,,,,,,,orange,cross
73.0,5.0,1.0,1.0,3.0,3.0,287.4764730222523,3.0,1.0,part_1,,,,,,,,,,,,,blue,hexagon
0.0,4.0,0.0,0.0,3.0,3.0,307.0669609587639,3.0,1.0,part_1,,,,,,,,,,,,,cyan,triangle
29.0,5.0,1.0,1.0,2.0,2.0,283.5105410777032,3.0,1.0,part_1,,,,,,,,,,,,,blue,hexagon
80.0,6.0,2.0,1.0,4.0,4.0,303.5371480509639,3.0,1.0,part_1,,,,,,,,,,,,,gray,flipped triangle
382.0,4.0,4.0,0.0,2.0,2.0,496.6882159933448,3.0,1.0,part_1,,,,,,,,,,,,,cyan,triangle
217.0,3.0,3.0,0.0,2.0,2.0,360.8528999611735,3.0,1.0,part_1,,,,,,,,,,,,,orange,cross
220.0,7.0,3.0,1.0,2.0,2.0,316.5226459968835,3.0,1.0,part_1,,,,,,,,,,,,,yellow,I
186.0,3.0,3.0,0.0,1.0,1.0,307.0627751294523,3.0,1.0,part_1,,,,,,,,,,,,,orange,cross
204.0,7.0,3.0,1.0,4.0,4.0,278.765341034159,3.0,1.0,part_1,,,,,,,,,,,,,yellow,I
191.0,7.0,3.0,1.0,4.0,4.0,290.8923518843949,3.0,1.0,part_1,,,,,,,,,,,,,yellow,I
414.0,8.0,4.0,1.0,2.0,2.0,320.3059120569378,3.0,1.0,part_1,,,,,,,,,,,,,green,circle
199.0,3.0,3.0,0.0,4.0,4.0,282.8110309783369,3.0,1.0,part_1,,,,,,,,,,,,,orange,cross
89.0,6.0,2.0,1.0,2.0,2.0,306.4668539445847,3.0,1.0,part_1,,,,,,,,,,,,,gray,flipped triangle
37.0,1.0,1.0,0.0,2.0,2.0,347.6035678759217,3.0,1.0,part_1,,,,,,,,,,,,,magenta,diamond
32.0,1.0,1.0,0.0,3.0,3.0,336.2912610173225,3.0,1.0,part_1,,,,,,,,,,,,,magenta,diamond
0.0,4.0,0.0,0.0,2.0,2.0,310.9670400153845,3.0,1.0,part_1,,,,,,,,,,,,,cyan,triangle
0.0,7.0,0.0,1.0,1.0,1.0,313.1652800366282,3.0,1.0,part_1,,,,,,,,,,,,,yellow,I
53.0,5.0,1.0,1.0,4.0,4.0,272.2417851909995,3.0,1.0,part_1,,,,,,,,,,,,,blue,hexagon
384.0,4.0,4.0,0.0,3.0,3.0,284.3297240324318,3.0,1.0,part_1,,,,,,,,,,,,,cyan,triangle
101.0,6.0,2.0,1.0,4.0,4.0,287.516200914979,3.0,1.0,part_1,,,,,,,,,,,,,gray,flipped triangle
421.0,4.0,4.0,0.0,3.0,3.0,312.1524499729275,3.0,1.0,part_1,,,,,,,,,,,,,cyan,triangle
0.0,2.0,0.0,0.0,3.0,3.0,313.0888058803975,3.0,1.0,part_1,,,,,,,,,,,,,white,square
392.0,8.0,4.0,1.0,2.0,2.0,270.3233689535409,3.0,1.0,part_1,,,,,,,,,,,,,green,circle
191.0,3.0,3.0,0.0,1.0,1.0,250.48076990060508,3.0,1.0,part_1,,,,,,,,,,,,,orange,cross
412.0,4.0,4.0,0.0,3.0,3.0,430.7023459114134,3.0,1.0,part_1,,,,,,,,,,,,,cyan,triangle
0.0,8.0,0.0,1.0,4.0,4.0,308.5858200211078,3.0,1.0,part_1,,,,,,,,,,,,,green,circle
380.0,8.0,4.0,1.0,1.0,1.0,315.8267349936068,3.0,1.0,part_1,,,,,,,,,,,,,green,circle
67.0,5.0,1.0,1.0,2.0,2.0,271.4866779278964,3.0,1.0,part_1,,,,,,,,,,,,,blue,hexagon
218.0,3.0,3.0,0.0,4.0,4.0,300.1841709483415,3.0,1.0,part_1,,,,,,,,,,,,,orange,cross
189.0,7.0,3.0,1.0,2.0,2.0,305.0919510424137,3.0,1.0,part_1,,,,,,,,,,,,,yellow,I
0.0,4.0,0.0,0.0,2.0,2.0,307.3725369758904,3.0,1.0,part_1,,,,,,,,,,,,,cyan,triangle
401.0,8.0,4.0,1.0,4.0,4.0,296.5319179929793,3.0,1.0,part_1,,,,,,,,,,,,,green,circle
116.0,6.0,2.0,1.0,2.0,2.0,565.3919498436153,3.0,1.0,part_1,,,,,,,,,,,,,gray,flipped triangle
0.0,5.0,0.0,1.0,3.0,3.0,324.3402799125761,3.0,1.0,part_1,,,,,,,,,,,,,blue,hexagon
421.0,8.0,4.0,1.0,3.0,3.0,336.3330950960517,3.0,1.0,part_1,,,,,,,,,,,,,green,circle
122.0,2.0,2.0,0.0,4.0,4.0,356.1778031289577,3.0,1.0,part_1,,,,,,,,,,,,,white,square
416.0,4.0,4.0,0.0,1.0,1.0,274.1281830240041,3.0,1.0,part_1,,,,,,,,,,,,,cyan,triangle
120.0,6.0,2.0,1.0,3.0,3.0,460.4737928602844,3.0,1.0,part_1,,,,,,,,,,,,,gray,flipped triangle
118.0,6.0,2.0,1.0,1.0,1.0,266.7521950788796,3.0,1.0,part_1,,,,,,,,,,,,,gray,flipped triangle
0.0,4.0,0.0,0.0,1.0,1.0,348.9003910217434,3.0,1.0,part_1,,,,,,,,,,,,,cyan,triangle
0.0,7.0,0.0,1.0,1.0,1.0,393.9117440022528,3.0,1.0,part_1,,,,,,,,,,,,,yellow,I
122.0,6.0,2.0,1.0,3.0,3.0,336.3631449174136,3.0,1.0,part_1,,,,,,,,,,,,,gray,flipped triangle
399.0,8.0,4.0,1.0,4.0,4.0,291.6761511005461,3.0,1.0,part_1,,,,,,,,,,,,,green,circle
0.0,1.0,0.0,0.0,4.0,4.0,279.673526994884,3.0,1.0,part_1,,,,,,,,,,,,,magenta,diamond
46.0,1.0,1.0,0.0,3.0,3.0,268.701063003391,3.0,1.0,part_1,,,,,,,,,,,,,magenta,diamond
74.0,5.0,1.0,1.0,3.0,3.0,282.3543578851968,3.0,1.0,part_1,,,,,,,,,,,,,blue,hexagon
82.0,6.0,2.0,1.0,1.0,1.0,279.5361541211605,3.0,1.0,part_1,,,,,,,,,,,,,gray,flipped triangle
125.0,2.0,2.0,0.0,3.0,3.0,323.2829440385103,4.0,1.0,part_1,,,,,,,,,,,,,white,square
82.0,2.0,2.0,0.0,2.0,2.0,252.8782680165022,4.0,1.0,part_1,,,,,,,,,,,,,white,square
107.0,6.0,2.0,1.0,4.0,4.0,242.2854518517851,4.0,1.0,part_1,,,,,,,,,,,,,gray,flipped triangle
183.0,3.0,3.0,0.0,2.0,2.0,271.073553012684,4.0,1.0,part_1,,,,,,,,,,,,,orange,cross
379.0,4.0,4.0,0.0,2.0,2.0,253.78482812084258,4.0,1.0,part_1,,,,,,,,,,,,,cyan,triangle
34.0,1.0,1.0,0.0,3.0,3.0,299.7296820394695,4.0,1.0,part_1,,,,,,,,,,,,,magenta,diamond
401.0,4.0,4.0,0.0,1.0,1.0,229.5164479874074,4.0,1.0,part_1,,,,,,,,,,,,,cyan,triangle
182.0,7.0,3.0,1.0,1.0,1.0,337.6328649464994,4.0,1.0,part_1,,,,,,,,,,,,,yellow,I
403.0,4.0,4.0,0.0,4.0,4.0,239.8775441106408,4.0,1.0,part_1,,,,,,,,,,,,,cyan,triangle
175.0,3.0,3.0,0.0,3.0,3.0,261.8310970719903,4.0,1.0,part_1,,,,,,,,,,,,,orange,cross
0.0,6.0,0.0,1.0,2.0,2.0,279.0266680531204,4.0,1.0,part_1,,,,,,,,,,,,,gray,flipped triangle
0.0,3.0,0.0,0.0,2.0,2.0,364.3056110013276,4.0,1.0,part_1,,,,,,,,,,,,,orange,cross
0.0,5.0,0.0,1.0,3.0,3.0,274.9321560841054,4.0,1.0,part_1,,,,,,,,,,,,,blue,hexagon
378.0,4.0,4.0,0.0,2.0,2.0,312.4205619096756,4.0,1.0,part_1,,,,,,,,,,,,,cyan,triangle
44.0,1.0,1.0,0.0,4.0,4.0,245.8955750335008,4.0,1.0,part_1,,,,,,,,,,,,,magenta,diamond
108.0,6.0,2.0,1.0,4.0,4.0,338.5040361899882,4.0,1.0,part_1,,,,,,,,,,,,,gray,flipped triangle
26.0,5.0,1.0,1.0,2.0,2.0,300.1674618571996,4.0,1.0,part_1,,,,,,,,,,,,,blue,hexagon
0.0,6.0,0.0,1.0,4.0,4.0,281.4439770299941,4.0,1.0,part_1,,,,,,,,,,,,,gray,flipped triangle
414.0,4.0,4.0,0.0,1.0,1.0,276.398180052638,4.0,1.0,part_1,,,,,,,,,,,,,cyan,triangle
29.0,1.0,1.0,0.0,4.0,4.0,365.3113539330661,4.0,1.0,part_1,,,,,,,,,,,,,magenta,diamond
111.0,2.0,2.0,0.0,2.0,2.0,263.048943830654,4.0,1.0,part_1,,,,,,,,,,,,,white,square
196.0,7.0,3.0,1.0,3.0,3.0,291.0900150891393,4.0,1.0,part_1,,,,,,,,,,,,,yellow,I
107.0,2.0,2.0,0.0,1.0,1.0,223.1690899934619,4.0,1.0,part_1,,,,,,,,,,,,,white,square
0.0,7.0,0.0,1.0,3.0,3.0,263.9514089096337,4.0,1.0,part_1,,,,,,,,,,,,,yellow,I
104.0,2.0,2.0,0.0,4.0,4.0,251.169711118564,4.0,1.0,part_1,,,,,,,,,,,,,white,square
189.0,3.0,3.0,0.0,2.0,2.0,255.04411617293948,4.0,1.0,part_1,,,,,,,,,,,,,orange,cross
0.0,5.0,0.0,1.0,1.0,1.0,316.9304369948804,4.0,1.0,part_1,,,,,,,,,,,,,blue,hexagon
37.0,5.0,1.0,1.0,4.0,4.0,238.7427391950041,4.0,1.0,part_1,,,,,,,,,,,,,blue,hexagon
413.0,8.0,4.0,1.0,3.0,3.0,293.7571599613875,4.0,1.0,part_1,,,,,,,,,,,,,green,circle
379.0,8.0,4.0,1.0,3.0,3.0,291.144005022943,4.0,1.0,part_1,,,,,,,,,,,,,green,circle
117.0,6.0,2.0,1.0,1.0,1.0,257.8561089467257,4.0,2.0,part_1,,,,,,,,,,,,,gray,flipped triangle
177.0,3.0,3.0,0.0,1.0,1.0,278.3284480683505,4.0,1.0,part_1,,,,,,,,,,,,,orange,cross
412.0,8.0,4.0,1.0,2.0,2.0,347.5269381888211,4.0,1.0,part_1,,,,,,,,,,,,,green,circle
380.0,4.0,4.0,0.0,1.0,1.0,263.4270039852708,4.0,1.0,part_1,,,,,,,,,,,,,cyan,triangle
0.0,6.0,0.0,1.0,4.0,4.0,278.6989170126617,4.0,1.0,part_1,,,,,,,,,,,,,gray,flipped triangle
92.0,6.0,2.0,1.0,2.0,2.0,267.0332051347941,4.0,1.0,part_1,,,,,,,,,,,,,gray,flipped triangle
0.0,8.0,0.0,1.0,2.0,2.0,325.7121520582586,4.0,1.0,part_1,,,,,,,,,,,,,green,circle
71.0,5.0,1.0,1.0,3.0,3.0,299.3107941001653,4.0,1.0,part_1,,,,,,,,,,,,,blue,hexagon
0.0,6.0,0.0,1.0,4.0,4.0,271.7055240646004,4.0,1.0,part_1,,,,,,,,,,,,,gray,flipped triangle
79.0,2.0,2.0,0.0,3.0,3.0,341.8739540502429,4.0,1.0,part_1,,,,,,,,,,,,,white,square
28.0,5.0,1.0,1.0,3.0,3.0,291.5237960405648,4.0,1.0,part_1,,,,,,,,,,,,,blue,hexagon
45.0,5.0,1.0,1.0,2.0,2.0,272.2729330416769,4.0,1.0,part_1,,,,,,,,,,,,,blue,hexagon
43.0,5.0,1.0,1.0,2.0,2.0,291.8368671089411,4.0,1.0,part_1,,,,,,,,,,,,,blue,hexagon
93.0,2.0,2.0,0.0,2.0,2.0,273.2850678730756,4.0,1.0,part_1,,,,,,,,,,,,,white,square
0.0,1.0,0.0,0.0,1.0,1.0,267.2439489979297,4.0,1.0,part_1,,,,,,,,,,,,,magenta,diamond
111.0,6.0,2.0,1.0,3.0,3.0,311.4782520569861,4.0,2.0,part_1,,,,,,,,,,,,,gray,flipped triangle
205.0,7.0,3.0,1.0,1.0,1.0,266.0735340323299,4.0,1.0,part_1,,,,,,,,,,,,,yellow,I
198.0,3.0,3.0,0.0,4.0,4.0,279.8520759679377,4.0,1.0,part_1,,,,,,,,,,,,,orange,cross
406.0,4.0,4.0,0.0,2.0,2.0,435.350232059136,4.0,1.0,part_1,,,,,,,,,,,,,cyan,triangle
52.0,1.0,1.0,0.0,2.0,2.0,322.2551138605922,4.0,1.0,part_1,,,,,,,,,,,,,magenta,diamond
422.0,4.0,4.0,0.0,1.0,1.0,356.7777839489281,4.0,1.0,part_1,,,,,,,,,,,,,cyan,triangle
0.0,8.0,0.0,1.0,1.0,1.0,283.4670110605657,4.0,1.0,part_1,,,,,,,,,,,,,green,circle
112.0,2.0,2.0,0.0,3.0,3.0,303.6804008297622,4.0,1.0,part_1,,,,,,,,,,,,,white,square
121.0,6.0,2.0,1.0,3.0,3.0,308.1169340293854,4.0,1.0,part_1,,,,,,,,,,,,,gray,flipped triangle
413.0,8.0,4.0,1.0,3.0,3.0,321.7639320064336,4.0,1.0,part_1,,,,,,,,,,,,,green,circle
116.0,2.0,2.0,0.0,4.0,4.0,451.9330719485879,4.0,1.0,part_1,,,,,,,,,,,,,white,square
184.0,7.0,3.0,1.0,2.0,2.0,367.5048679579049,4.0,1.0,part_1,,,,,,,,,,,,,yellow,I
48.0,5.0,1.0,1.0,1.0,1.0,276.5551190823316,4.0,1.0,part_1,,,,,,,,,,,,,blue,hexagon
78.0,6.0,2.0,1.0,1.0,1.0,285.0880760233849,4.0,1.0,part_1,,,,,,,,,,,,,gray,flipped triangle
0.0,4.0,0.0,0.0,4.0,4.0,271.5945611707866,4.0,1.0,part_1,,,,,,,,,,,,,cyan,triangle
27.0,1.0,1.0,0.0,1.0,1.0,402.5090599898249,4.0,1.0,part_1,,,,,,,,,,,,,magenta,diamond
92.0,2.0,2.0,0.0,4.0,4.0,287.55644406192,4.0,1.0,part_1,,,,,,,,,,,,,white,square
379.0,4.0,4.0,0.0,2.0,2.0,308.2186761312186,4.0,1.0,part_1,,,,,,,,,,,,,cyan,triangle
79.0,6.0,2.0,1.0,1.0,1.0,288.5146460030228,4.0,1.0,part_1,,,,,,,,,,,,,gray,flipped triangle
0.0,8.0,0.0,1.0,1.0,1.0,271.4567231014371,4.0,1.0,part_1,,,,,,,,,,,,,green,circle
186.0,7.0,3.0,1.0,2.0,2.0,333.8157499674707,4.0,1.0,part_1,,,,,,,,,,,,,yellow,I
0.0,1.0,0.0,0.0,4.0,4.0,271.5076459571719,4.0,1.0,part_1,,,,,,,,,,,,,magenta,diamond
216.0,3.0,3.0,0.0,1.0,1.0,291.3275950122624,4.0,1.0,part_1,,,,,,,,,,,,,orange,cross
0.0,1.0,0.0,0.0,4.0,4.0,410.331288119778,4.0,1.0,part_1,,,,,,,,,,,,,magenta,diamond
84.0,2.0,2.0,0.0,3.0,3.0,304.0747840423137,4.0,1.0,part_1,,,,,,,,,,,,,white,square
92.0,6.0,2.0,1.0,4.0,4.0,275.7982979528606,4.0,1.0,part_1,,,,,,,,,,,,,gray,flipped triangle
0.0,1.0,0.0,0.0,2.0,2.0,294.0622109454125,4.0,1.0,part_1,,,,,,,,,,,,,magenta,diamond
421.0,4.0,4.0,0.0,4.0,4.0,270.6824168562889,4.0,1.0,part_1,,,,,,,,,,,,,cyan,triangle
0.0,5.0,0.0,1.0,4.0,4.0,291.2278180010617,4.0,1.0,part_1,,,,,,,,,,,,,blue,hexagon
73.0,1.0,1.0,0.0,1.0,1.0,397.5381019990891,4.0,1.0,part_1,,,,,,,,,,,,,magenta,diamond
224.0,3.0,3.0,0.0,1.0,1.0,299.0124539937824,4.0,1.0,part_1,,,,,,,,,,,,,orange,cross
406.0,8.0,4.0,1.0,4.0,4.0,313.0807571578771,4.0,1.0,part_1,,,,,,,,,,,,,green,circle
0.0,4.0,0.0,0.0,2.0,2.0,306.7864971235394,4.0,1.0,part_1,,,,,,,,,,,,,cyan,triangle
98.0,6.0,2.0,1.0,3.0,3.0,367.4918070901185,4.0,1.0,part_1,,,,,,,,,,,,,gray,flipped triangle
385.0,4.0,4.0,0.0,1.0,1.0,286.5775600075722,4.0,1.0,part_1,,,,,,,,,,,,,cyan,triangle
0.0,3.0,0.0,0.0,3.0,3.0,308.5629588458687,4.0,1.0,part_1,,,,,,,,,,,,,orange,cross
212.0,7.0,3.0,1.0,2.0,2.0,286.0941719263792,4.0,1.0,part_1,,,,,,,,,,,,,yellow,I
178.0,7.0,3.0,1.0,3.0,3.0,373.7107489723712,4.0,1.0,part_1,,,,,,,,,,,,,yellow,I
117.0,2.0,2.0,0.0,3.0,3.0,296.224616933614,4.0,1.0,part_1,,,,,,,,,,,,,white,square
204.0,3.0,3.0,0.0,2.0,2.0,284.7118121571839,4.0,1.0,part_1,,,,,,,,,,,,,orange,cross
393.0,8.0,4.0,1.0,3.0,3.0,288.5615217965096,4.0,1.0,part_1,,,,,,,,,,,,,green,circle
124.0,6.0,2.0,1.0,3.0,3.0,286.5671280305832,4.0,1.0,part_1,,,,,,,,,,,,,gray,flipped triangle
0.0,5.0,0.0,1.0,2.0,2.0,276.139808120206,4.0,1.0,part_1,,,,,,,,,,,,,blue,hexagon
399.0,4.0,4.0,0.0,2.0,2.0,278.8516920991242,4.0,1.0,part_1,,,,,,,,,,,,,cyan,triangle
392.0,4.0,4.0,0.0,1.0,1.0,301.3271521776914,4.0,1.0,part_1,,,,,,,,,,,,,cyan,triangle
115.0,2.0,2.0,0.0,2.0,2.0,296.1720509920269,4.0,1.0,part_1,,,,,,,,,,,,,white,square
61.0,1.0,1.0,0.0,1.0,1.0,311.7407269310206,4.0,1.0,part_1,,,,,,,,,,,,,magenta,diamond
0.0,8.0,0.0,1.0,4.0,4.0,275.2839890308678,4.0,1.0,part_1,,,,,,,,,,,,,green,circle
399.0,4.0,4.0,0.0,4.0,4.0,288.2544419262558,4.0,1.0,part_1,,,,,,,,,,,,,cyan,triangle
32.0,5.0,1.0,1.0,3.0,3.0,292.4598969984799,4.0,1.0,part_1,,,,,,,,,,,,,blue,hexagon
112.0,6.0,2.0,1.0,4.0,4.0,282.446060096845,4.0,1.0,part_1,,,,,,,,,,,,,gray,flipped triangle
29.0,5.0,1.0,1.0,4.0,4.0,270.1403619721532,4.0,1.0,part_1,,,,,,,,,,,,,blue,hexagon
191.0,7.0,3.0,1.0,4.0,4.0,282.6653351075947,4.0,1.0,part_1,,,,,,,,,,,,,yellow,I
95.0,6.0,2.0,1.0,1.0,1.0,262.7376969903707,4.0,1.0,part_1,,,,,,,,,,,,,gray,flipped triangle
117.0,2.0,2.0,0.0,1.0,1.0,323.7393060699105,4.0,1.0,part_1,,,,,,,,,,,,,white,square
0.0,6.0,2.0,1.0,5.0,5.0,517.277236096561,1.0,0.0,part_2,stop,250.0,250.0,3.0,,,,,,,,,gray,flipped triangle
0.0,7.0,3.0,1.0,6.0,6.0,391.5396949741989,1.0,0.0,part_2,stop,200.0,250.0,3.0,,,,,,,,,yellow,I
0.0,3.0,3.0,0.0,6.0,6.0,357.7358559705317,1.0,0.0,part_2,go,200.0,200.0,1.0,,,,,,,,,orange,cross
0.0,5.0,1.0,1.0,6.0,6.0,377.0551078487187,1.0,0.0,part_2,go,200.0,200.0,1.0,,,,,,,,,blue,hexagon
0.0,6.0,2.0,1.0,6.0,0.0,0.0,1.0,0.0,part_2,stop,200.0,200.0,4.0,,,,,,,,,gray,flipped triangle
0.0,3.0,3.0,0.0,5.0,5.0,284.18382210657,1.0,0.0,part_2,go,200.0,250.0,1.0,,,,,,,,,orange,cross
0.0,6.0,2.0,1.0,6.0,0.0,0.0,1.0,0.0,part_2,stop,200.0,250.0,4.0,,,,,,,,,gray,flipped triangle
0.0,3.0,3.0,0.0,5.0,5.0,301.5523529611528,1.0,0.0,part_2,go,200.0,300.0,1.0,,,,,,,,,orange,cross
0.0,4.0,4.0,0.0,5.0,5.0,338.971242075786,1.0,0.0,part_2,go,200.0,300.0,1.0,,,,,,,,,cyan,triangle
0.0,8.0,4.0,1.0,5.0,0.0,0.0,1.0,0.0,part_2,stop,200.0,300.0,4.0,,,,,,,,,green,circle
0.0,2.0,2.0,0.0,6.0,6.0,281.4738969318568,1.0,0.0,part_2,go,250.0,300.0,1.0,,,,,,,,,white,square
0.0,1.0,1.0,0.0,5.0,5.0,289.0920958016068,1.0,0.0,part_2,go,250.0,300.0,1.0,,,,,,,,,magenta,diamond
0.0,2.0,2.0,0.0,5.0,5.0,324.4342608377337,1.0,0.0,part_2,go,250.0,300.0,1.0,,,,,,,,,white,square
0.0,5.0,1.0,1.0,5.0,5.0,272.7617321070283,1.0,0.0,part_2,stop,250.0,300.0,3.0,,,,,,,,,blue,hexagon
0.0,7.0,3.0,1.0,6.0,6.0,320.4689519479871,1.0,0.0,part_2,stop,200.0,300.0,3.0,,,,,,,,,yellow,I
0.0,3.0,3.0,0.0,5.0,5.0,278.6592079792171,1.0,0.0,part_2,go,200.0,250.0,1.0,,,,,,,,,orange,cross
0.0,1.0,1.0,0.0,5.0,5.0,297.1833569463342,1.0,0.0,part_2,go,200.0,250.0,1.0,,,,,,,,,magenta,diamond
0.0,4.0,4.0,0.0,6.0,6.0,669.6218310389668,1.0,0.0,part_2,go,200.0,250.0,1.0,,,,,,,,,cyan,triangle
0.0,5.0,1.0,1.0,5.0,5.0,277.7872108854353,1.0,0.0,part_2,go,200.0,250.0,1.0,,,,,,,,,blue,hexagon
0.0,6.0,2.0,1.0,5.0,5.0,335.5987719260156,1.0,0.0,part_2,go,200.0,250.0,1.0,,,,,,,,,gray,flipped triangle
0.0,7.0,3.0,1.0,6.0,6.0,310.0106241181493,1.0,0.0,part_2,stop,200.0,250.0,3.0,,,,,,,,,yellow,I
0.0,8.0,4.0,1.0,6.0,0.0,0.0,1.0,0.0,part_2,stop,200.0,200.0,4.0,,,,,,,,,green,circle
0.0,6.0,2.0,1.0,6.0,6.0,293.9768750220537,1.0,0.0,part_2,go,200.0,250.0,1.0,,,,,,,,,gray,flipped triangle
0.0,3.0,3.0,0.0,5.0,5.0,290.3890991583466,1.0,0.0,part_2,go,200.0,250.0,1.0,,,,,,,,,orange,cross
0.0,3.0,3.0,0.0,5.0,5.0,301.5443379990756,1.0,0.0,part_2,go,200.0,250.0,1.0,,,,,,,,,orange,cross
0.0,8.0,4.0,1.0,5.0,5.0,274.7126261238009,1.0,0.0,part_2,stop,200.0,250.0,3.0,,,,,,,,,green,circle
0.0,1.0,1.0,0.0,5.0,5.0,355.5941130034625,1.0,0.0,part_2,go,150.0,250.0,1.0,,,,,,,,,magenta,diamond
0.0,2.0,2.0,0.0,6.0,6.0,298.4593340661376,1.0,0.0,part_2,go,150.0,250.0,1.0,,,,,,,,,white,square
0.0,5.0,1.0,1.0,5.0,5.0,255.53420488722622,1.0,0.0,part_2,go,150.0,250.0,1.0,,,,,,,,,blue,hexagon
0.0,1.0,1.0,0.0,5.0,5.0,273.2474901713431,1.0,0.0,part_2,go,150.0,250.0,1.0,,,,,,,,,magenta,diamond
0.0,5.0,1.0,1.0,6.0,6.0,272.9806208517402,1.0,0.0,part_2,stop,150.0,250.0,3.0,,,,,,,,,blue,hexagon
0.0,7.0,3.0,1.0,6.0,6.0,438.2964069955051,1.0,0.0,part_2,go,150.0,200.0,1.0,,,,,,,,,yellow,I
0.0,5.0,1.0,1.0,5.0,5.0,280.495632905513,1.0,0.0,part_2,go,150.0,200.0,1.0,,,,,,,,,blue,hexagon
0.0,2.0,2.0,0.0,5.0,5.0,297.1139899455011,1.0,0.0,part_2,go,150.0,200.0,1.0,,,,,,,,,white,square
0.0,7.0,3.0,1.0,6.0,6.0,277.1458958741277,1.0,0.0,part_2,stop,150.0,200.0,3.0,,,,,,,,,yellow,I
0.0,1.0,1.0,0.0,5.0,5.0,293.2775251101702,1.0,0.0,part_2,go,150.0,150.0,1.0,,,,,,,,,magenta,diamond
0.0,8.0,4.0,1.0,5.0,0.0,0.0,2.0,0.0,part_2,go,150.0,150.0,5.0,,,,,,,,,green,circle
0.0,5.0,1.0,1.0,6.0,6.0,415.8297770190984,2.0,0.0,part_2,go,150.0,150.0,1.0,,,,,,,,,blue,hexagon
0.0,4.0,4.0,0.0,6.0,6.0,297.6648800540715,2.0,0.0,part_2,go,150.0,150.0,1.0,,,,,,,,,cyan,triangle
0.0,2.0,2.0,0.0,6.0,6.0,326.5952700749039,2.0,0.0,part_2,go,150.0,150.0,1.0,,,,,,,,,white,square
0.0,2.0,2.0,0.0,6.0,6.0,335.8383718878031,2.0,0.0,part_2,go,150.0,150.0,1.0,,,,,,,,,white,square
0.0,3.0,3.0,0.0,5.0,5.0,324.9441031366586,2.0,0.0,part_2,go,150.0,150.0,1.0,,,,,,,,,orange,cross
0.0,4.0,4.0,0.0,6.0,6.0,328.3577640540898,2.0,0.0,part_2,go,150.0,150.0,1.0,,,,,,,,,cyan,triangle
0.0,8.0,4.0,1.0,5.0,5.0,302.5277790147811,2.0,0.0,part_2,stop,150.0,150.0,3.0,,,,,,,,,green,circle
0.0,7.0,3.0,1.0,6.0,0.0,0.0,2.0,0.0,part_2,stop,100.0,150.0,4.0,,,,,,,,,yellow,I
0.0,8.0,4.0,1.0,5.0,0.0,0.0,2.0,0.0,part_2,stop,100.0,200.0,4.0,,,,,,,,,green,circle
0.0,3.0,3.0,0.0,5.0,5.0,486.7093041539192,2.0,0.0,part_2,go,150.0,200.0,1.0,,,,,,,,,orange,cross
0.0,6.0,2.0,1.0,5.0,0.0,0.0,2.0,0.0,part_2,stop,150.0,200.0,4.0,,,,,,,,,gray,flipped triangle
0.0,1.0,1.0,0.0,6.0,6.0,572.044163942337,2.0,0.0,part_2,go,200.0,200.0,1.0,,,,,,,,,magenta,diamond
0.0,5.0,1.0,1.0,6.0,6.0,346.9062210060656,2.0,0.0,part_2,stop,200.0,200.0,3.0,,,,,,,,,blue,hexagon
0.0,4.0,4.0,0.0,5.0,5.0,480.3535901010036,2.0,0.0,part_2,go,200.0,150.0,1.0,,,,,,,,,cyan,triangle
0.0,2.0,2.0,0.0,5.0,5.0,418.0178970564157,2.0,0.0,part_2,go,200.0,150.0,1.0,,,,,,,,,white,square
0.0,8.0,4.0,1.0,6.0,0.0,0.0,2.0,0.0,part_2,stop,200.0,150.0,4.0,,,,,,,,,green,circle
0.0,6.0,2.0,1.0,6.0,0.0,0.0,2.0,0.0,part_2,stop,200.0,200.0,4.0,,,,,,,,,gray,flipped triangle
0.0,4.0,4.0,0.0,5.0,5.0,382.903748890385,2.0,0.0,part_2,go,200.0,250.0,1.0,,,,,,,,,cyan,triangle
0.0,8.0,4.0,1.0,5.0,0.0,0.0,2.0,0.0,part_2,stop,200.0,250.0,4.0,,,,,,,,,green,circle
0.0,8.0,4.0,1.0,6.0,0.0,0.0,2.0,0.0,part_2,stop,250.0,250.0,4.0,,,,,,,,,green,circle
0.0,3.0,3.0,0.0,6.0,6.0,452.8122930787503,2.0,0.0,part_2,go,250.0,300.0,1.0,,,,,,,,,orange,cross
0.0,5.0,1.0,1.0,5.0,5.0,341.6422819718718,2.0,0.0,part_2,stop,250.0,300.0,3.0,,,,,,,,,blue,hexagon
0.0,4.0,4.0,0.0,6.0,6.0,763.7530800420791,2.0,0.0,part_2,go,200.0,300.0,1.0,,,,,,,,,cyan,triangle
0.0,8.0,4.0,1.0,5.0,5.0,502.06657499074936,2.0,0.0,part_2,go,200.0,300.0,1.0,,,,,,,,,green,circle
0.0,5.0,1.0,1.0,6.0,0.0,0.0,2.0,0.0,part_2,stop,200.0,300.0,4.0,,,,,,,,,blue,hexagon
0.0,2.0,2.0,0.0,5.0,5.0,355.6798030622303,2.0,0.0,part_2,go,200.0,350.0,1.0,,,,,,,,,white,square
0.0,7.0,3.0,1.0,5.0,0.0,0.0,2.0,0.0,part_2,stop,200.0,350.0,4.0,,,,,,,,,yellow,I
0.0,3.0,3.0,0.0,5.0,5.0,387.5798878725618,2.0,0.0,part_2,go,250.0,350.0,1.0,,,,,,,,,orange,cross
0.0,1.0,1.0,0.0,6.0,6.0,593.817912042141,2.0,0.0,part_2,go,250.0,350.0,1.0,,,,,,,,,magenta,diamond
0.0,3.0,3.0,0.0,5.0,5.0,459.2291431035846,2.0,0.0,part_2,go,250.0,350.0,1.0,,,,,,,,,orange,cross
0.0,7.0,3.0,1.0,5.0,5.0,351.4267310965806,2.0,0.0,part_2,go,250.0,350.0,1.0,,,,,,,,,yellow,I
0.0,2.0,2.0,0.0,6.0,6.0,430.0188499037176,2.0,0.0,part_2,go,250.0,350.0,1.0,,,,,,,,,white,square
0.0,8.0,4.0,1.0,6.0,6.0,313.2603710982948,2.0,0.0,part_2,stop,250.0,350.0,3.0,,,,,,,,,green,circle
0.0,2.0,2.0,0.0,6.0,6.0,606.4281549770385,2.0,0.0,part_2,go,250.0,300.0,1.0,,,,,,,,,white,square
0.0,3.0,3.0,0.0,5.0,5.0,415.3607131447643,2.0,0.0,part_2,go,250.0,300.0,1.0,,,,,,,,,orange,cross
0.0,5.0,1.0,1.0,6.0,0.0,0.0,3.0,0.0,part_2,stop,250.0,300.0,4.0,,,,,,,,,blue,hexagon
0.0,1.0,1.0,0.0,6.0,6.0,542.2542139422148,3.0,0.0,part_2,go,250.0,350.0,1.0,,,,,,,,,magenta,diamond
0.0,3.0,3.0,0.0,6.0,6.0,476.5303351450711,3.0,0.0,part_2,go,250.0,350.0,1.0,,,,,,,,,orange,cross
0.0,6.0,2.0,1.0,6.0,6.0,475.1257530879229,3.0,0.0,part_2,stop,250.0,350.0,3.0,,,,,,,,,gray,flipped triangle
0.0,6.0,2.0,1.0,5.0,0.0,0.0,3.0,0.0,part_2,stop,250.0,300.0,4.0,,,,,,,,,gray,flipped triangle
0.0,5.0,1.0,1.0,6.0,0.0,0.0,3.0,0.0,part_2,stop,300.0,300.0,4.0,,,,,,,,,blue,hexagon
0.0,4.0,4.0,0.0,6.0,6.0,459.6775351092219,3.0,0.0,part_2,go,300.0,350.0,1.0,,,,,,,,,cyan,triangle
0.0,6.0,2.0,1.0,5.0,5.0,289.4175590481609,3.0,0.0,part_2,go,300.0,350.0,1.0,,,,,,,,,gray,flipped triangle
0.0,2.0,2.0,0.0,6.0,6.0,443.3062009047717,3.0,0.0,part_2,go,300.0,350.0,1.0,,,,,,,,,white,square
0.0,6.0,2.0,1.0,6.0,0.0,0.0,3.0,0.0,part_2,stop,300.0,350.0,4.0,,,,,,,,,gray,flipped triangle
0.0,1.0,1.0,0.0,6.0,6.0,558.7705438956618,3.0,0.0,part_2,go,300.0,400.0,1.0,,,,,,,,,magenta,diamond
0.0,4.0,4.0,0.0,6.0,6.0,431.1226210556924,3.0,0.0,part_2,go,300.0,400.0,1.0,,,,,,,,,cyan,triangle
0.0,6.0,2.0,1.0,6.0,6.0,417.0933039858937,3.0,0.0,part_2,stop,300.0,400.0,3.0,,,,,,,,,gray,flipped triangle
0.0,2.0,2.0,0.0,5.0,5.0,444.8473860975355,3.0,0.0,part_2,go,300.0,350.0,1.0,,,,,,,,,white,square
0.0,4.0,4.0,0.0,6.0,6.0,613.1922570057213,3.0,0.0,part_2,go,300.0,350.0,1.0,,,,,,,,,cyan,triangle
0.0,6.0,2.0,1.0,6.0,0.0,0.0,3.0,0.0,part_2,stop,300.0,350.0,4.0,,,,,,,,,gray,flipped triangle
0.0,8.0,4.0,1.0,6.0,0.0,0.0,3.0,0.0,part_2,stop,300.0,400.0,4.0,,,,,,,,,green,circle
0.0,5.0,1.0,1.0,6.0,6.0,556.4560880884528,3.0,0.0,part_2,stop,300.0,450.0,3.0,,,,,,,,,blue,hexagon
0.0,3.0,3.0,0.0,5.0,5.0,653.4615459386259,3.0,0.0,part_2,go,300.0,400.0,1.0,,,,,,,,,orange,cross
0.0,7.0,3.0,1.0,5.0,0.0,0.0,3.0,0.0,part_2,stop,300.0,400.0,4.0,,,,,,,,,yellow,I
0.0,4.0,4.0,0.0,6.0,6.0,764.8686890024692,3.0,0.0,part_2,go,350.0,400.0,1.0,,,,,,,,,cyan,triangle
0.0,4.0,4.0,0.0,6.0,6.0,1016.3434401620179,3.0,0.0,part_2,go,350.0,400.0,1.0,,,,,,,,,cyan,triangle
0.0,7.0,3.0,1.0,6.0,0.0,0.0,3.0,0.0,part_2,stop,350.0,400.0,4.0,,,,,,,,,yellow,I
0.0,5.0,1.0,1.0,6.0,6.0,583.9761570096016,3.0,0.0,part_2,stop,350.0,450.0,3.0,,,,,,,,,blue,hexagon
0.0,1.0,1.0,0.0,5.0,5.0,618.6734358780086,3.0,0.0,part_2,go,350.0,400.0,1.0,,,,,,,,,magenta,diamond
0.0,6.0,2.0,1.0,5.0,0.0,0.0,3.0,0.0,part_2,stop,350.0,400.0,4.0,,,,,,,,,gray,flipped triangle
0.0,5.0,1.0,1.0,5.0,0.0,0.0,3.0,0.0,part_2,stop,400.0,400.0,4.0,,,,,,,,,blue,hexagon
0.0,7.0,3.0,1.0,5.0,5.0,447.7576939389109,3.0,0.0,part_2,stop,450.0,400.0,3.0,,,,,,,,,yellow,I
0.0,2.0,2.0,0.0,6.0,6.0,567.1812500804663,3.0,0.0,part_2,go,400.0,400.0,1.0,,,,,,,,,white,square
0.0,1.0,1.0,0.0,6.0,6.0,741.7152079287916,3.0,0.0,part_2,go,400.0,400.0,1.0,,,,,,,,,magenta,diamond
0.0,8.0,4.0,1.0,5.0,0.0,0.0,3.0,0.0,part_2,stop,400.0,400.0,4.0,,,,,,,,,green,circle
0.0,3.0,3.0,0.0,6.0,6.0,733.8671118486673,3.0,0.0,part_2,go,450.0,400.0,1.0,,,,,,,,,orange,cross
0.0,5.0,1.0,1.0,5.0,0.0,0.0,3.0,0.0,part_2,stop,450.0,400.0,4.0,,,,,,,,,blue,hexagon
0.0,2.0,2.0,0.0,5.0,5.0,657.8166449908167,3.0,0.0,part_2,go,500.0,400.0,1.0,,,,,,,,,white,square
0.0,1.0,1.0,0.0,6.0,6.0,1028.941908152774,3.0,0.0,part_2,go,500.0,400.0,1.0,,,,,,,,,magenta,diamond
0.0,7.0,3.0,1.0,5.0,5.0,690.8211358822882,3.0,0.0,part_2,go,500.0,400.0,1.0,,,,,,,,,yellow,I
0.0,7.0,3.0,1.0,6.0,0.0,0.0,4.0,0.0,part_2,stop,500.0,400.0,4.0,,,,,,,,,yellow,I
0.0,8.0,4.0,1.0,5.0,5.0,311.0049830283969,4.0,0.0,part_2,stop,500.0,450.0,3.0,,,,,,,,,green,circle
0.0,6.0,2.0,1.0,5.0,5.0,622.9471939150244,4.0,0.0,part_2,go,450.0,450.0,1.0,,,,,,,,,gray,flipped triangle
0.0,5.0,1.0,1.0,6.0,0.0,0.0,4.0,0.0,part_2,stop,450.0,450.0,4.0,,,,,,,,,blue,hexagon
0.0,3.0,3.0,0.0,6.0,6.0,741.3576000835747,4.0,0.0,part_2,go,450.0,500.0,1.0,,,,,,,,,orange,cross
0.0,8.0,4.0,1.0,5.0,0.0,0.0,4.0,0.0,part_2,stop,450.0,500.0,4.0,,,,,,,,,green,circle
0.0,6.0,2.0,1.0,5.0,5.0,609.6834919881076,4.0,0.0,part_2,go,500.0,500.0,1.0,,,,,,,,,gray,flipped triangle
0.0,3.0,3.0,0.0,6.0,6.0,1008.3848279900849,4.0,0.0,part_2,go,500.0,500.0,1.0,,,,,,,,,orange,cross
0.0,7.0,3.0,1.0,6.0,0.0,0.0,4.0,0.0,part_2,stop,500.0,500.0,4.0,,,,,,,,,yellow,I
0.0,8.0,4.0,1.0,6.0,6.0,792.3107747919858,4.0,0.0,part_2,go,500.0,550.0,1.0,,,,,,,,,green,circle
0.0,3.0,3.0,0.0,6.0,6.0,1031.0961208306253,4.0,0.0,part_2,go,500.0,550.0,1.0,,,,,,,,,orange,cross
0.0,7.0,3.0,1.0,5.0,5.0,470.7654051017016,4.0,0.0,part_2,stop,500.0,550.0,3.0,,,,,,,,,yellow,I
0.0,4.0,4.0,0.0,5.0,5.0,461.7976970039308,4.0,0.0,part_2,go,450.0,550.0,1.0,,,,,,,,,cyan,triangle
0.0,2.0,2.0,0.0,6.0,6.0,677.6899339165539,4.0,0.0,part_2,go,450.0,550.0,1.0,,,,,,,,,white,square
0.0,1.0,1.0,0.0,5.0,5.0,660.6643251143396,4.0,0.0,part_2,go,450.0,550.0,1.0,,,,,,,,,magenta,diamond
0.0,1.0,1.0,0.0,5.0,5.0,636.3400099799037,4.0,0.0,part_2,go,450.0,550.0,1.0,,,,,,,,,magenta,diamond
0.0,6.0,2.0,1.0,5.0,0.0,0.0,4.0,0.0,part_2,stop,450.0,550.0,4.0,,,,,,,,,gray,flipped triangle
0.0,1.0,1.0,0.0,6.0,6.0,419.8549638967961,4.0,0.0,part_2,go,500.0,550.0,1.0,,,,,,,,,magenta,diamond
0.0,7.0,3.0,1.0,6.0,0.0,0.0,4.0,0.0,part_2,stop,500.0,550.0,4.0,,,,,,,,,yellow,I
0.0,7.0,3.0,1.0,5.0,5.0,523.83085899055,4.0,0.0,part_2,stop,500.0,600.0,3.0,,,,,,,,,yellow,I
0.0,5.0,1.0,1.0,6.0,6.0,708.7968760170043,4.0,0.0,part_2,stop,450.0,600.0,3.0,,,,,,,,,blue,hexagon
0.0,7.0,3.0,1.0,6.0,6.0,804.8561369068921,4.0,0.0,part_2,go,450.0,550.0,1.0,,,,,,,,,yellow,I
0.0,2.0,2.0,0.0,5.0,5.0,906.3475530128926,4.0,0.0,part_2,go,450.0,550.0,1.0,,,,,,,,,white,square
0.0,4.0,4.0,0.0,5.0,5.0,904.4159648474306,4.0,0.0,part_2,go,450.0,550.0,1.0,,,,,,,,,cyan,triangle
0.0,2.0,2.0,0.0,6.0,6.0,929.2591791599988,4.0,0.0,part_2,go,450.0,550.0,1.0,,,,,,,,,white,square
0.0,1.0,1.0,0.0,5.0,5.0,766.6590961162001,4.0,0.0,part_2,go,450.0,550.0,1.0,,,,,,,,,magenta,diamond
0.0,2.0,2.0,0.0,5.0,5.0,807.9319708049297,4.0,0.0,part_2,go,450.0,550.0,1.0,,,,,,,,,white,square
0.0,8.0,4.0,1.0,6.0,6.0,638.2855200208724,4.0,0.0,part_2,stop,450.0,550.0,3.0,,,,,,,,,green,circle
0.0,4.0,4.0,0.0,6.0,6.0,501.720042899251,4.0,0.0,part_2,go,450.0,500.0,1.0,,,,,,,,,cyan,triangle
0.0,7.0,3.0,1.0,5.0,5.0,908.7885292246938,4.0,0.0,part_2,go,450.0,500.0,1.0,,,,,,,,,yellow,I
0.0,7.0,3.0,1.0,5.0,0.0,0.0,4.0,0.0,part_2,stop,450.0,500.0,4.0,,,,,,,,,yellow,I
0.0,2.0,2.0,0.0,6.0,6.0,862.73453081958,4.0,0.0,part_2,go,500.0,500.0,1.0,,,,,,,,,white,square
0.0,7.0,3.0,1.0,6.0,0.0,0.0,4.0,0.0,part_2,stop,500.0,500.0,4.0,,,,,,,,,yellow,I
0.0,2.0,2.0,0.0,5.0,5.0,994.649281958118,4.0,0.0,part_2,go,500.0,550.0,1.0,,,,,,,,,white,square
0.0,4.0,4.0,0.0,5.0,5.0,826.5813139732927,4.0,0.0,part_2,go,500.0,550.0,1.0,,,,,,,,,cyan,triangle
0.0,4.0,4.0,0.0,5.0,5.0,892.3674130346626,4.0,0.0,part_2,go,500.0,550.0,1.0,,,,,,,,,cyan,triangle
0.0,2.0,2.0,0.0,5.0,5.0,557.5849690940231,5.0,0.0,part_2,go,500.0,550.0,1.0,,,,,,,,,white,square
0.0,5.0,1.0,1.0,6.0,6.0,317.4983938224613,5.0,0.0,part_2,stop,500.0,550.0,3.0,,,,,,,,,blue,hexagon
0.0,1.0,1.0,0.0,6.0,6.0,691.0233967937529,5.0,0.0,part_2,go,500.0,500.0,1.0,,,,,,,,,magenta,diamond
0.0,8.0,4.0,1.0,6.0,6.0,601.2232520151883,5.0,0.0,part_2,stop,500.0,500.0,3.0,,,,,,,,,green,circle
0.0,4.0,4.0,0.0,5.0,5.0,883.5781689267606,5.0,0.0,part_2,go,500.0,450.0,1.0,,,,,,,,,cyan,triangle
0.0,1.0,1.0,0.0,5.0,5.0,777.0936139859259,5.0,0.0,part_2,go,500.0,450.0,1.0,,,,,,,,,magenta,diamond
0.0,6.0,2.0,1.0,6.0,0.0,0.0,5.0,0.0,part_2,stop,500.0,450.0,4.0,,,,,,,,,gray,flipped triangle
0.0,1.0,1.0,0.0,5.0,5.0,694.8766768909991,5.0,0.0,part_2,go,500.0,500.0,1.0,,,,,,,,,magenta,diamond
0.0,4.0,4.0,0.0,6.0,6.0,801.820632070303,5.0,0.0,part_2,go,500.0,500.0,1.0,,,,,,,,,cyan,triangle
0.0,8.0,4.0,1.0,5.0,5.0,576.0965368244797,5.0,0.0,part_2,go,500.0,500.0,1.0,,,,,,,,,green,circle
0.0,5.0,1.0,1.0,5.0,0.0,0.0,5.0,0.0,part_2,stop,500.0,500.0,4.0,,,,,,,,,blue,hexagon
0.0,6.0,2.0,1.0,6.0,0.0,0.0,5.0,0.0,part_2,stop,550.0,500.0,4.0,,,,,,,,,gray,flipped triangle
0.0,6.0,2.0,1.0,5.0,5.0,448.5724128317088,5.0,0.0,part_2,stop,550.0,550.0,3.0,,,,,,,,,gray,flipped triangle
0.0,2.0,2.0,0.0,6.0,6.0,668.2016341947019,5.0,0.0,part_2,go,500.0,550.0,1.0,,,,,,,,,white,square
0.0,1.0,1.0,0.0,6.0,6.0,886.4902460481972,5.0,0.0,part_2,go,500.0,550.0,1.0,,,,,,,,,magenta,diamond
0.0,2.0,2.0,0.0,6.0,6.0,845.3037119470537,5.0,0.0,part_2,go,500.0,550.0,1.0,,,,,,,,,white,square
0.0,5.0,1.0,1.0,5.0,5.0,563.0607190541923,5.0,0.0,part_2,stop,500.0,550.0,3.0,,,,,,,,,blue,hexagon
0.0,6.0,2.0,1.0,6.0,6.0,475.4717841278761,5.0,0.0,part_2,stop,450.0,550.0,3.0,,,,,,,,,gray,flipped triangle
0.0,1.0,1.0,0.0,5.0,5.0,747.7466950658709,5.0,0.0,part_2,go,450.0,500.0,1.0,,,,,,,,,magenta,diamond
0.0,4.0,4.0,0.0,6.0,6.0,840.0409459136426,5.0,0.0,part_2,go,450.0,500.0,1.0,,,,,,,,,cyan,triangle
0.0,2.0,2.0,0.0,6.0,6.0,826.2872609775513,5.0,0.0,part_2,go,450.0,500.0,1.0,,,,,,,,,white,square
0.0,3.0,3.0,0.0,6.0,6.0,770.6084861420095,5.0,0.0,part_2,go,450.0,500.0,1.0,,,,,,,,,orange,cross
0.0,3.0,3.0,0.0,6.0,6.0,529.0185159537941,5.0,0.0,part_2,go,450.0,500.0,1.0,,,,,,,,,orange,cross
0.0,8.0,4.0,1.0,6.0,6.0,447.5645811762661,5.0,0.0,part_2,stop,450.0,500.0,3.0,,,,,,,,,green,circle
0.0,1.0,1.0,0.0,5.0,5.0,420.9753239993006,5.0,0.0,part_2,go,450.0,450.0,1.0,,,,,,,,,magenta,diamond
0.0,5.0,1.0,1.0,6.0,0.0,0.0,5.0,0.0,part_2,stop,450.0,450.0,4.0,,,,,,,,,blue,hexagon
0.0,4.0,4.0,0.0,5.0,5.0,383.0615109764039,5.0,0.0,part_2,go,450.0,500.0,1.0,,,,,,,,,cyan,triangle
0.0,4.0,4.0,0.0,5.0,5.0,844.0134299453348,5.0,0.0,part_2,go,450.0,500.0,1.0,,,,,,,,,cyan,triangle
0.0,5.0,1.0,1.0,6.0,0.0,0.0,5.0,0.0,part_2,stop,450.0,500.0,4.0,,,,,,,,,blue,hexagon
0.0,6.0,2.0,1.0,5.0,0.0,0.0,5.0,0.0,part_2,stop,450.0,550.0,4.0,,,,,,,,,gray,flipped triangle
0.0,2.0,2.0,0.0,6.0,6.0,812.490212963894,5.0,0.0,part_2,go,500.0,550.0,1.0,,,,,,,,,white,square
0.0,8.0,4.0,1.0,6.0,6.0,1052.0603789482266,5.0,0.0,part_2,go,500.0,550.0,1.0,,,,,,,,,green,circle
0.0,3.0,3.0,0.0,6.0,6.0,896.9147640746087,5.0,0.0,part_2,go,500.0,550.0,1.0,,,,,,,,,orange,cross
0.0,5.0,1.0,1.0,5.0,5.0,811.174551025033,5.0,0.0,part_2,go,500.0,550.0,1.0,,,,,,,,,blue,hexagon
0.0,2.0,2.0,0.0,5.0,5.0,671.7981009278446,5.0,0.0,part_2,go,500.0,550.0,1.0,,,,,,,,,white,square
0.0,8.0,4.0,1.0,5.0,0.0,0.0,5.0,0.0,part_2,stop,500.0,550.0,4.0,,,,,,,,,green,circle
0.0,1.0,1.0,0.0,5.0,5.0,467.6201029215008,6.0,0.0,part_2,go,550.0,550.0,1.0,,,,,,,,,magenta,diamond
0.0,1.0,1.0,0.0,6.0,6.0,460.0523109547794,6.0,0.0,part_2,go,550.0,550.0,1.0,,,,,,,,,magenta,diamond
0.0,8.0,4.0,1.0,5.0,5.0,617.1489499974996,6.0,0.0,part_2,stop,550.0,550.0,3.0,,,,,,,,,green,circle
0.0,7.0,3.0,1.0,5.0,5.0,522.472821874544,6.0,0.0,part_2,stop,500.0,550.0,3.0,,,,,,,,,yellow,I
0.0,4.0,4.0,0.0,6.0,6.0,585.4067199397832,6.0,0.0,part_2,go,450.0,550.0,1.0,,,,,,,,,cyan,triangle
0.0,4.0,4.0,0.0,6.0,6.0,374.8558941297233,6.0,0.0,part_2,go,450.0,550.0,1.0,,,,,,,,,cyan,triangle
0.0,3.0,3.0,0.0,6.0,6.0,400.4994959104806,6.0,0.0,part_2,go,450.0,550.0,1.0,,,,,,,,,orange,cross
0.0,6.0,2.0,1.0,5.0,5.0,248.6928338184952,6.0,0.0,part_2,stop,450.0,550.0,3.0,,,,,,,,,gray,flipped triangle
0.0,3.0,3.0,0.0,5.0,5.0,431.2081688549369,6.0,0.0,part_2,go,400.0,550.0,1.0,,,,,,,,,orange,cross
0.0,4.0,4.0,0.0,5.0,5.0,349.9401609878987,6.0,0.0,part_2,go,400.0,550.0,1.0,,,,,,,,,cyan,triangle
0.0,7.0,3.0,1.0,5.0,5.0,310.4708620812744,6.0,0.0,part_2,stop,400.0,550.0,3.0,,,,,,,,,yellow,I
0.0,6.0,2.0,1.0,6.0,6.0,294.4489810615778,6.0,0.0,part_2,stop,350.0,550.0,3.0,,,,,,,,,gray,flipped triangle
0.0,4.0,4.0,0.0,5.0,5.0,299.4172589387744,6.0,0.0,part_2,go,350.0,500.0,1.0,,,,,,,,,cyan,triangle
0.0,2.0,2.0,0.0,6.0,6.0,438.2163172122091,6.0,0.0,part_2,go,350.0,500.0,1.0,,,,,,,,,white,square
0.0,2.0,2.0,0.0,5.0,5.0,603.9721730630845,6.0,0.0,part_2,go,350.0,500.0,1.0,,,,,,,,,white,square
0.0,8.0,4.0,1.0,5.0,5.0,306.0398560483008,6.0,0.0,part_2,stop,350.0,500.0,3.0,,,,,,,,,green,circle
0.0,3.0,3.0,0.0,5.0,6.0,0.1658839173614,6.0,0.0,part_2,go,300.0,500.0,2.0,,,,,,,,,orange,cross
0.0,5.0,1.0,1.0,5.0,5.0,456.7003999836743,6.0,0.0,part_2,go,300.0,500.0,1.0,,,,,,,,,blue,hexagon
0.0,7.0,3.0,1.0,5.0,0.0,0.0,6.0,0.0,part_2,stop,300.0,500.0,4.0,,,,,,,,,yellow,I
0.0,3.0,3.0,0.0,5.0,5.0,490.1297651231289,6.0,0.0,part_2,go,350.0,500.0,1.0,,,,,,,,,orange,cross
0.0,4.0,4.0,0.0,5.0,5.0,422.478896798566,6.0,0.0,part_2,go,350.0,500.0,1.0,,,,,,,,,cyan,triangle
0.0,1.0,1.0,0.0,5.0,5.0,573.9795479457825,6.0,0.0,part_2,go,350.0,500.0,1.0,,,,,,,,,magenta,diamond
0.0,5.0,1.0,1.0,5.0,5.0,280.2423920948058,6.0,0.0,part_2,stop,350.0,500.0,3.0,,,,,,,,,blue,hexagon
0.0,2.0,2.0,0.0,5.0,5.0,479.058374883607,6.0,0.0,part_2,go,300.0,500.0,1.0,,,,,,,,,white,square
0.0,8.0,4.0,1.0,5.0,5.0,652.2881381679326,6.0,0.0,part_2,go,300.0,500.0,1.0,,,,,,,,,green,circle
0.0,4.0,4.0,0.0,5.0,5.0,765.5465209390968,6.0,0.0,part_2,go,300.0,500.0,1.0,,,,,,,,,cyan,triangle
0.0,6.0,2.0,1.0,6.0,6.0,546.7294789850712,6.0,0.0,part_2,stop,300.0,500.0,3.0,,,,,,,,,gray,flipped triangle
0.0,6.0,2.0,1.0,6.0,6.0,530.9875421226025,6.0,0.0,part_2,stop,300.0,450.0,3.0,,,,,,,,,gray,flipped triangle
0.0,8.0,4.0,1.0,6.0,6.0,372.0701201818883,6.0,0.0,part_2,stop,300.0,400.0,3.0,,,,,,,,,green,circle
0.0,4.0,4.0,0.0,5.0,5.0,305.7206878438592,6.0,0.0,part_2,go,300.0,350.0,1.0,,,,,,,,,cyan,triangle
0.0,7.0,3.0,1.0,5.0,0.0,0.0,6.0,0.0,part_2,stop,300.0,350.0,4.0,,,,,,,,,yellow,I
0.0,4.0,4.0,0.0,5.0,5.0,538.9109959360212,6.0,0.0,part_2,go,350.0,350.0,1.0,,,,,,,,,cyan,triangle
0.0,3.0,3.0,0.0,5.0,5.0,391.4880978409201,6.0,0.0,part_2,go,350.0,350.0,1.0,,,,,,,,,orange,cross
0.0,3.0,3.0,0.0,6.0,6.0,568.0378568358719,6.0,0.0,part_2,go,350.0,350.0,1.0,,,,,,,,,orange,cross
0.0,5.0,1.0,1.0,6.0,6.0,326.54795399867,6.0,0.0,part_2,go,350.0,350.0,1.0,,,,,,,,,blue,hexagon
0.0,7.0,3.0,1.0,5.0,5.0,342.6885849330574,6.0,0.0,part_2,stop,350.0,350.0,3.0,,,,,,,,,yellow,I
0.0,6.0,2.0,1.0,5.0,5.0,458.696249872446,7.0,0.0,part_2,go,300.0,350.0,1.0,,,,,,,,,gray,flipped triangle
0.0,1.0,1.0,0.0,6.0,6.0,387.0186428539455,7.0,0.0,part_2,go,300.0,350.0,1.0,,,,,,,,,magenta,diamond
0.0,8.0,4.0,1.0,6.0,6.0,338.1320510525256,7.0,0.0,part_2,go,300.0,350.0,1.0,,,,,,,,,green,circle
0.0,5.0,1.0,1.0,6.0,6.0,324.398323893547,7.0,0.0,part_2,stop,300.0,350.0,3.0,,,,,,,,,blue,hexagon
0.0,8.0,4.0,1.0,6.0,6.0,521.5769298374653,7.0,0.0,part_2,go,300.0,300.0,1.0,,,,,,,,,green,circle
0.0,5.0,1.0,1.0,5.0,5.0,338.7212520465255,7.0,0.0,part_2,stop,300.0,300.0,3.0,,,,,,,,,blue,hexagon
0.0,3.0,3.0,0.0,5.0,5.0,314.5468521397561,7.0,0.0,part_2,go,250.0,300.0,1.0,,,,,,,,,orange,cross
0.0,5.0,1.0,1.0,5.0,5.0,591.6627799160779,7.0,0.0,part_2,go,250.0,300.0,1.0,,,,,,,,,blue,hexagon
0.0,2.0,2.0,0.0,5.0,5.0,297.7096899412572,7.0,0.0,part_2,go,250.0,300.0,1.0,,,,,,,,,white,square
0.0,7.0,3.0,1.0,6.0,6.0,392.6637170370668,7.0,0.0,part_2,go,250.0,300.0,1.0,,,,,,,,,yellow,I
0.0,8.0,4.0,1.0,6.0,6.0,416.626923950389,7.0,0.0,part_2,stop,250.0,300.0,3.0,,,,,,,,,green,circle
0.0,5.0,1.0,1.0,6.0,0.0,0.0,7.0,0.0,part_2,stop,250.0,250.0,4.0,,,,,,,,,blue,hexagon
0.0,3.0,3.0,0.0,5.0,5.0,328.0630449298769,7.0,0.0,part_2,go,250.0,300.0,1.0,,,,,,,,,orange,cross
0.0,4.0,4.0,0.0,5.0,5.0,590.7394760288298,7.0,0.0,part_2,go,250.0,300.0,1.0,,,,,,,,,cyan,triangle
0.0,3.0,3.0,0.0,5.0,5.0,551.0766431689262,7.0,0.0,part_2,go,250.0,300.0,1.0,,,,,,,,,orange,cross
0.0,3.0,3.0,0.0,6.0,6.0,637.4914119951427,7.0,0.0,part_2,go,250.0,300.0,1.0,,,,,,,,,orange,cross
0.0,7.0,3.0,1.0,6.0,6.0,396.6582568828016,7.0,0.0,part_2,go,250.0,300.0,1.0,,,,,,,,,yellow,I
0.0,8.0,4.0,1.0,5.0,5.0,243.1495918426662,7.0,0.0,part_2,stop,250.0,300.0,3.0,,,,,,,,,green,circle
0.0,6.0,2.0,1.0,6.0,6.0,409.3498629517853,7.0,0.0,part_2,go,200.0,300.0,1.0,,,,,,,,,gray,flipped triangle
0.0,1.0,1.0,0.0,6.0,6.0,531.4860290382057,7.0,0.0,part_2,go,200.0,300.0,1.0,,,,,,,,,magenta,diamond
0.0,6.0,2.0,1.0,6.0,6.0,377.5934840086847,7.0,0.0,part_2,stop,200.0,300.0,3.0,,,,,,,,,gray,flipped triangle
0.0,6.0,2.0,1.0,6.0,6.0,807.3132170829922,7.0,0.0,part_2,stop,200.0,250.0,3.0,,,,,,,,,gray,flipped triangle
0.0,4.0,4.0,0.0,6.0,6.0,679.1134760715067,7.0,0.0,part_2,go,200.0,200.0,1.0,,,,,,,,,cyan,triangle
0.0,3.0,3.0,0.0,6.0,6.0,680.1355879288167,7.0,0.0,part_2,go,200.0,200.0,1.0,,,,,,,,,orange,cross
0.0,7.0,3.0,1.0,5.0,0.0,0.0,7.0,0.0,part_2,stop,200.0,200.0,4.0,,,,,,,,,yellow,I
0.0,2.0,2.0,0.0,6.0,6.0,608.9933549519628,7.0,0.0,part_2,go,250.0,200.0,1.0,,,,,,,,,white,square
0.0,7.0,3.0,1.0,6.0,6.0,799.8817260377109,7.0,0.0,part_2,go,250.0,200.0,1.0,,,,,,,,,yellow,I
0.0,4.0,4.0,0.0,6.0,6.0,670.7634939812124,7.0,0.0,part_2,go,250.0,200.0,1.0,,,,,,,,,cyan,triangle
0.0,3.0,3.0,0.0,6.0,6.0,508.888334967196,7.0,0.0,part_2,go,250.0,200.0,1.0,,,,,,,,,orange,cross
0.0,5.0,1.0,1.0,5.0,0.0,0.0,7.0,0.0,part_2,stop,250.0,200.0,4.0,,,,,,,,,blue,hexagon
0.0,3.0,3.0,0.0,6.0,6.0,442.3483218997717,7.0,0.0,part_2,go,300.0,200.0,1.0,,,,,,,,,orange,cross
0.0,6.0,2.0,1.0,5.0,5.0,714.1017101239413,7.0,0.0,part_2,go,300.0,200.0,1.0,,,,,,,,,gray,flipped triangle
0.0,1.0,1.0,0.0,5.0,5.0,795.0026181060821,7.0,0.0,part_2,go,300.0,200.0,1.0,,,,,,,,,magenta,diamond
0.0,7.0,3.0,1.0,6.0,6.0,530.2326041273773,7.0,0.0,part_2,go,300.0,200.0,1.0,,,,,,,,,yellow,I
0.0,8.0,4.0,1.0,6.0,6.0,520.1449848245829,7.0,0.0,part_2,go,300.0,200.0,1.0,,,,,,,,,green,circle
0.0,2.0,2.0,0.0,5.0,5.0,562.9885550588369,7.0,0.0,part_2,go,300.0,200.0,1.0,,,,,,,,,white,square
0.0,1.0,1.0,0.0,6.0,6.0,466.3705150596797,8.0,0.0,part_2,go,300.0,200.0,1.0,,,,,,,,,magenta,diamond
0.0,7.0,3.0,1.0,5.0,5.0,353.9216790813952,8.0,0.0,part_2,stop,300.0,200.0,3.0,,,,,,,,,yellow,I
0.0,1.0,1.0,0.0,6.0,6.0,435.0968010257929,8.0,0.0,part_2,go,250.0,200.0,1.0,,,,,,,,,magenta,diamond
0.0,7.0,3.0,1.0,5.0,5.0,738.4230270981789,8.0,0.0,part_2,stop,250.0,200.0,3.0,,,,,,,,,yellow,I
0.0,4.0,4.0,0.0,6.0,6.0,545.4291962087154,8.0,0.0,part_2,go,200.0,200.0,1.0,,,,,,,,,cyan,triangle
0.0,6.0,2.0,1.0,6.0,0.0,0.0,8.0,0.0,part_2,stop,200.0,200.0,4.0,,,,,,,,,gray,flipped triangle
0.0,8.0,4.0,1.0,6.0,0.0,0.0,8.0,0.0,part_2,stop,200.0,250.0,4.0,,,,,,,,,green,circle
0.0,3.0,3.0,0.0,6.0,6.0,582.3025989811867,8.0,0.0,part_2,go,200.0,300.0,1.0,,,,,,,,,orange,cross
0.0,1.0,1.0,0.0,6.0,6.0,663.3033428806812,8.0,0.0,part_2,go,200.0,300.0,1.0,,,,,,,,,magenta,diamond
0.0,6.0,2.0,1.0,5.0,0.0,0.0,8.0,0.0,part_2,stop,200.0,300.0,4.0,,,,,,,,,gray,flipped triangle
0.0,1.0,1.0,0.0,6.0,6.0,472.0848000142723,8.0,0.0,part_2,go,250.0,300.0,1.0,,,,,,,,,magenta,diamond
0.0,8.0,4.0,1.0,6.0,0.0,0.0,8.0,0.0,part_2,stop,250.0,300.0,4.0,,,,,,,,,green,circle
0.0,8.0,4.0,1.0,5.0,0.0,0.0,8.0,0.0,part_2,stop,250.0,350.0,4.0,,,,,,,,,green,circle
0.0,2.0,2.0,0.0,6.0,6.0,579.246912850067,8.0,0.0,part_2,go,300.0,350.0,1.0,,,,,,,,,white,square
0.0,1.0,1.0,0.0,6.0,6.0,644.5103341247886,8.0,0.0,part_2,go,300.0,350.0,1.0,,,,,,,,,magenta,diamond
0.0,8.0,4.0,1.0,5.0,0.0,0.0,8.0,0.0,part_2,stop,300.0,350.0,4.0,,,,,,,,,green,circle
0.0,7.0,3.0,1.0,6.0,0.0,0.0,8.0,0.0,part_2,stop,350.0,350.0,4.0,,,,,,,,,yellow,I
0.0,3.0,3.0,0.0,6.0,6.0,627.7058538980782,8.0,0.0,part_2,go,350.0,400.0,1.0,,,,,,,,,orange,cross
0.0,6.0,2.0,1.0,5.0,0.0,0.0,8.0,0.0,part_2,stop,350.0,400.0,4.0,,,,,,,,,gray,flipped triangle
0.0,2.0,2.0,0.0,5.0,5.0,546.0963849909604,8.0,0.0,part_2,go,400.0,400.0,1.0,,,,,,,,,white,square
0.0,1.0,1.0,0.0,5.0,5.0,690.8133139368147,8.0,0.0,part_2,go,400.0,400.0,1.0,,,,,,,,,magenta,diamond
0.0,2.0,2.0,0.0,5.0,5.0,649.0115709602833,8.0,0.0,part_2,go,400.0,400.0,1.0,,,,,,,,,white,square
0.0,1.0,1.0,0.0,5.0,5.0,506.1328529845923,8.0,0.0,part_2,go,400.0,400.0,1.0,,,,,,,,,magenta,diamond
0.0,2.0,2.0,0.0,5.0,5.0,449.7426410671323,8.0,0.0,part_2,go,400.0,400.0,1.0,,,,,,,,,white,square
0.0,7.0,3.0,1.0,5.0,5.0,302.0572189707309,8.0,0.0,part_2,stop,400.0,400.0,3.0,,,,,,,,,yellow,I
0.0,6.0,2.0,1.0,5.0,5.0,500.8019870147109,8.0,0.0,part_2,go,350.0,400.0,1.0,,,,,,,,,gray,flipped triangle
0.0,5.0,1.0,1.0,5.0,0.0,0.0,8.0,0.0,part_2,stop,350.0,400.0,4.0,,,,,,,,,blue,hexagon
0.0,7.0,3.0,1.0,6.0,0.0,0.0,8.0,0.0,part_2,stop,400.0,400.0,4.0,,,,,,,,,yellow,I
0.0,1.0,1.0,0.0,6.0,6.0,534.2117138206959,8.0,0.0,part_2,go,400.0,450.0,1.0,,,,,,,,,magenta,diamond
0.0,5.0,1.0,1.0,6.0,0.0,0.0,8.0,0.0,part_2,stop,400.0,450.0,4.0,,,,,,,,,blue,hexagon
0.0,4.0,4.0,0.0,5.0,5.0,594.3970400840044,8.0,0.0,part_2,go,400.0,500.0,1.0,,,,,,,,,cyan,triangle
0.0,5.0,1.0,1.0,5.0,0.0,0.0,8.0,0.0,part_2,stop,400.0,500.0,4.0,,,,,,,,,blue,hexagon
0.0,4.0,4.0,0.0,6.0,6.0,625.0938449520618,8.0,0.0,part_2,go,450.0,500.0,1.0,,,,,,,,,cyan,triangle
0.0,5.0,1.0,1.0,5.0,0.0,0.0,8.0,0.0,part_2,stop,450.0,500.0,4.0,,,,,,,,,blue,hexagon
0.0,6.0,2.0,1.0,5.0,5.0,488.1125898100436,8.0,0.0,part_2,stop,500.0,500.0,3.0,,,,,,,,,gray,flipped triangle
0.0,8.0,4.0,1.0,6.0,6.0,671.023276168853,8.0,0.0,part_2,stop,450.0,500.0,3.0,,,,,,,,,green,circle
0.0,5.0,1.0,1.0,7.0,4.0,624.8422300000129,1.0,1.0,part_3,go,0.0,0.0,0.0,98.0,2.0,147.0,49.0,196.0,98.0,245.0,294.0,blue,hexagon
0.0,3.0,3.0,0.0,7.0,2.0,405.1997640000024,1.0,1.0,part_3,go,0.0,0.0,0.0,98.0,2.0,49.0,98.0,196.0,147.0,294.0,245.0,orange,cross
0.0,4.0,4.0,0.0,7.0,5.0,687.886093000003,1.0,1.0,part_3,go,0.0,0.0,0.0,196.0,4.0,49.0,294.0,147.0,245.0,196.0,98.0,cyan,triangle
0.0,4.0,4.0,0.0,7.0,2.0,465.1905750000082,1.0,1.0,part_3,go,0.0,0.0,0.0,216.0,4.0,270.0,216.0,108.0,162.0,54.0,324.0,cyan,triangle
0.0,3.0,3.0,0.0,7.0,1.0,505.7663950000233,1.0,1.0,part_3,go,0.0,0.0,0.0,204.0,6.0,204.0,34.0,68.0,136.0,170.0,102.0,orange,cross
0.0,5.0,1.0,1.0,7.0,5.0,436.1947369999939,1.0,1.0,part_3,go,0.0,0.0,0.0,270.0,5.0,324.0,54.0,108.0,162.0,270.0,216.0,blue,hexagon
0.0,5.0,1.0,1.0,7.0,1.0,239.1934440000227,1.0,1.0,part_3,go,0.0,0.0,0.0,39.0,1.0,39.0,117.0,78.0,234.0,156.0,195.0,blue,hexagon
0.0,8.0,4.0,1.0,7.0,3.0,378.7043749999839,1.0,1.0,part_3,go,0.0,0.0,0.0,136.0,4.0,102.0,68.0,136.0,170.0,204.0,34.0,green,circle
0.0,4.0,4.0,0.0,7.0,2.0,354.3337940000128,1.0,1.0,part_3,go,0.0,0.0,0.0,176.0,4.0,264.0,176.0,220.0,44.0,88.0,132.0,cyan,triangle
0.0,3.0,3.0,0.0,7.0,5.0,340.1344160000121,1.0,1.0,part_3,go,0.0,0.0,0.0,270.0,5.0,162.0,324.0,108.0,54.0,270.0,216.0,orange,cross
0.0,3.0,3.0,0.0,7.0,1.0,348.2132849999857,1.0,1.0,part_3,go,0.0,0.0,0.0,176.0,4.0,176.0,88.0,264.0,220.0,44.0,132.0,orange,cross
0.0,3.0,3.0,0.0,7.0,6.0,414.4701280000049,1.0,1.0,part_3,go,0.0,0.0,0.0,216.0,4.0,108.0,162.0,324.0,54.0,270.0,216.0,orange,cross
0.0,8.0,4.0,1.0,7.0,3.0,552.5297820000219,1.0,1.0,part_3,go,0.0,0.0,0.0,54.0,1.0,108.0,216.0,54.0,324.0,162.0,270.0,green,circle
0.0,5.0,1.0,1.0,7.0,1.0,392.9893499999934,1.0,1.0,part_3,go,0.0,0.0,0.0,156.0,4.0,156.0,39.0,78.0,234.0,195.0,117.0,blue,hexagon
0.0,1.0,1.0,0.0,7.0,6.0,570.3737860000047,1.0,1.0,part_3,go,0.0,0.0,0.0,324.0,6.0,54.0,162.0,108.0,216.0,270.0,324.0,magenta,diamond
0.0,5.0,1.0,1.0,7.0,2.0,441.1708480000129,1.0,1.0,part_3,go,0.0,0.0,0.0,220.0,5.0,176.0,220.0,132.0,264.0,88.0,44.0,blue,hexagon
0.0,2.0,2.0,0.0,7.0,1.0,523.7414070000455,1.0,1.0,part_3,go,0.0,0.0,0.0,170.0,5.0,170.0,68.0,136.0,204.0,102.0,34.0,white,square
0.0,2.0,2.0,0.0,7.0,5.0,341.7909589999794,1.0,1.0,part_3,go,0.0,0.0,0.0,88.0,2.0,176.0,132.0,44.0,264.0,88.0,220.0,white,square
0.0,7.0,3.0,1.0,7.0,3.0,453.6585010000067,1.0,1.0,part_3,go,0.0,0.0,0.0,136.0,4.0,34.0,102.0,136.0,204.0,170.0,68.0,yellow,I
0.0,5.0,1.0,1.0,7.0,1.0,446.2310699999534,1.0,1.0,part_3,go,0.0,0.0,0.0,102.0,3.0,102.0,204.0,34.0,170.0,136.0,68.0,blue,hexagon
0.0,6.0,2.0,1.0,7.0,1.0,599.968538999974,2.0,1.0,part_3,go,0.0,0.0,0.0,204.0,6.0,204.0,102.0,170.0,136.0,34.0,68.0,gray,flipped triangle
0.0,7.0,3.0,1.0,7.0,2.0,555.3961389999813,2.0,1.0,part_3,go,0.0,0.0,0.0,88.0,2.0,264.0,88.0,44.0,176.0,220.0,132.0,yellow,I
0.0,1.0,1.0,0.0,7.0,5.0,754.9754640000401,2.0,1.0,part_3,go,0.0,0.0,0.0,147.0,3.0,49.0,196.0,294.0,245.0,147.0,98.0,magenta,diamond
0.0,4.0,4.0,0.0,7.0,4.0,477.0424609999963,2.0,1.0,part_3,go,0.0,0.0,0.0,156.0,4.0,117.0,78.0,195.0,156.0,39.0,234.0,cyan,triangle
0.0,4.0,4.0,0.0,7.0,4.0,749.6817310000097,2.0,1.0,part_3,go,0.0,0.0,0.0,294.0,6.0,147.0,49.0,98.0,294.0,245.0,196.0,cyan,triangle
0.0,2.0,2.0,0.0,7.0,2.0,528.5160800000313,2.0,1.0,part_3,go,0.0,0.0,0.0,98.0,2.0,294.0,98.0,49.0,147.0,245.0,196.0,white,square
0.0,4.0,4.0,0.0,7.0,6.0,505.8714059999829,2.0,1.0,part_3,go,0.0,0.0,0.0,132.0,3.0,264.0,44.0,220.0,176.0,88.0,132.0,cyan,triangle
0.0,7.0,3.0,1.0,7.0,2.0,410.1711480000176,2.0,1.0,part_3,go,0.0,0.0,0.0,216.0,4.0,324.0,216.0,162.0,54.0,270.0,108.0,yellow,I
0.0,2.0,2.0,0.0,7.0,1.0,300.5190659999925,2.0,1.0,part_3,go,0.0,0.0,0.0,68.0,2.0,68.0,204.0,136.0,170.0,102.0,34.0,white,square
0.0,6.0,2.0,1.0,7.0,5.0,327.8700700000172,2.0,1.0,part_3,go,0.0,0.0,0.0,324.0,6.0,162.0,54.0,108.0,270.0,324.0,216.0,gray,flipped triangle
0.0,1.0,1.0,0.0,7.0,4.0,368.7618430000157,2.0,1.0,part_3,go,0.0,0.0,0.0,196.0,4.0,49.0,147.0,294.0,196.0,245.0,98.0,magenta,diamond
0.0,6.0,2.0,1.0,7.0,2.0,833.1179880000263,2.0,1.0,part_3,go,0.0,0.0,0.0,102.0,3.0,68.0,102.0,170.0,204.0,34.0,136.0,gray,flipped triangle
0.0,8.0,4.0,1.0,7.0,5.0,521.3118949999966,2.0,1.0,part_3,go,0.0,0.0,0.0,54.0,1.0,108.0,324.0,270.0,216.0,54.0,162.0,green,circle
0.0,8.0,4.0,1.0,7.0,3.0,804.1379170000482,2.0,1.0,part_3,go,0.0,0.0,0.0,170.0,5.0,34.0,68.0,170.0,136.0,102.0,204.0,green,circle
0.0,6.0,2.0,1.0,7.0,5.0,636.9445689999793,2.0,1.0,part_3,go,0.0,0.0,0.0,294.0,6.0,196.0,98.0,245.0,147.0,294.0,49.0,gray,flipped triangle
0.0,7.0,3.0,1.0,7.0,4.0,621.9809039999973,2.0,1.0,part_3,go,0.0,0.0,0.0,220.0,5.0,176.0,264.0,132.0,220.0,44.0,88.0,yellow,I
0.0,5.0,1.0,1.0,7.0,2.0,901.6877120000116,2.0,1.0,part_3,go,0.0,0.0,0.0,220.0,5.0,264.0,220.0,132.0,176.0,88.0,44.0,blue,hexagon
0.0,2.0,2.0,0.0,7.0,5.0,865.0301959999638,2.0,1.0,part_3,go,0.0,0.0,0.0,108.0,2.0,54.0,216.0,162.0,324.0,108.0,270.0,white,square
0.0,5.0,1.0,1.0,7.0,6.0,682.8693740000062,2.0,1.0,part_3,go,0.0,0.0,0.0,204.0,6.0,102.0,34.0,136.0,68.0,170.0,204.0,blue,hexagon
0.0,6.0,2.0,1.0,7.0,2.0,955.9330040000305,2.0,1.0,part_3,go,0.0,0.0,0.0,245.0,5.0,196.0,245.0,98.0,49.0,294.0,147.0,gray,flipped triangle
0.0,6.0,2.0,1.0,7.0,2.0,607.7657499999987,3.0,1.0,part_3,go,0.0,0.0,0.0,220.0,5.0,264.0,220.0,176.0,132.0,44.0,88.0,gray,flipped triangle
0.0,3.0,3.0,0.0,7.0,5.0,1161.0555719999525,3.0,1.0,part_3,go,0.0,0.0,0.0,88.0,2.0,220.0,176.0,132.0,44.0,88.0,264.0,orange,cross
0.0,5.0,1.0,1.0,7.0,3.0,1114.1627119999953,3.0,1.0,part_3,go,0.0,0.0,0.0,270.0,5.0,216.0,324.0,270.0,54.0,162.0,108.0,blue,hexagon
0.0,1.0,1.0,0.0,7.0,5.0,1111.6851580000002,3.0,1.0,part_3,go,0.0,0.0,0.0,162.0,3.0,324.0,54.0,108.0,270.0,162.0,216.0,magenta,diamond
0.0,2.0,2.0,0.0,7.0,6.0,1376.1120109999752,3.0,1.0,part_3,go,0.0,0.0,0.0,245.0,5.0,98.0,294.0,49.0,196.0,147.0,245.0,white,square
0.0,7.0,3.0,1.0,7.0,1.0,1966.6588430000047,3.0,1.0,part_3,go,0.0,0.0,0.0,196.0,4.0,196.0,49.0,98.0,245.0,294.0,147.0,yellow,I
0.0,5.0,1.0,1.0,7.0,2.0,2603.5870299999715,3.0,1.0,part_3,go,0.0,0.0,0.0,147.0,3.0,196.0,147.0,98.0,245.0,49.0,294.0,blue,hexagon
0.0,8.0,4.0,1.0,7.0,4.0,1945.3667510000512,3.0,1.0,part_3,go,0.0,0.0,0.0,117.0,3.0,78.0,156.0,195.0,117.0,234.0,39.0,green,circle
0.0,1.0,1.0,0.0,7.0,5.0,1629.9576659999957,3.0,1.0,part_3,go,0.0,0.0,0.0,136.0,4.0,170.0,34.0,204.0,68.0,136.0,102.0,magenta,diamond
0.0,6.0,2.0,1.0,7.0,1.0,1518.69543600003,3.0,1.0,part_3,go,0.0,0.0,0.0,162.0,3.0,162.0,54.0,324.0,270.0,216.0,108.0,gray,flipped triangle
0.0,8.0,4.0,1.0,7.0,6.0,1463.3560509998915,3.0,1.0,part_3,go,0.0,0.0,0.0,147.0,3.0,245.0,98.0,49.0,196.0,294.0,147.0,green,circle
0.0,4.0,4.0,0.0,7.0,2.0,2198.83767500005,3.0,1.0,part_3,go,0.0,0.0,0.0,117.0,3.0,39.0,117.0,156.0,234.0,78.0,195.0,cyan,triangle
0.0,1.0,1.0,0.0,7.0,6.0,1657.9700099999857,3.0,1.0,part_3,go,0.0,0.0,0.0,234.0,6.0,78.0,117.0,195.0,156.0,39.0,234.0,magenta,diamond
0.0,3.0,3.0,0.0,7.0,1.0,1019.9312629999897,3.0,1.0,part_3,go,0.0,0.0,0.0,39.0,1.0,39.0,117.0,234.0,156.0,78.0,195.0,orange,cross
0.0,8.0,4.0,1.0,7.0,4.0,1845.377084000006,3.0,1.0,part_3,go,0.0,0.0,0.0,220.0,5.0,44.0,88.0,132.0,220.0,176.0,264.0,green,circle
0.0,4.0,4.0,0.0,7.0,5.0,694.4640989999016,3.0,1.0,part_3,go,0.0,0.0,0.0,102.0,3.0,34.0,204.0,136.0,68.0,102.0,170.0,cyan,triangle
0.0,4.0,4.0,0.0,7.0,1.0,977.0503239999472,3.0,1.0,part_3,go,0.0,0.0,0.0,136.0,4.0,136.0,68.0,102.0,204.0,170.0,34.0,cyan,triangle
0.0,8.0,4.0,1.0,7.0,3.0,331.0914050000519,3.0,1.0,part_3,go,0.0,0.0,0.0,156.0,4.0,234.0,78.0,156.0,195.0,39.0,117.0,green,circle
0.0,7.0,3.0,1.0,7.0,5.0,576.465522000035,3.0,1.0,part_3,go,0.0,0.0,0.0,195.0,5.0,117.0,156.0,39.0,234.0,195.0,78.0,yellow,I
0.0,1.0,1.0,0.0,7.0,3.0,1748.9919680000412,3.0,1.0,part_3,go,0.0,0.0,0.0,204.0,6.0,102.0,170.0,204.0,136.0,34.0,68.0,magenta,diamond
0.0,6.0,2.0,1.0,7.0,2.0,606.8432999999231,4.0,1.0,part_3,go,0.0,0.0,0.0,156.0,4.0,78.0,156.0,39.0,195.0,234.0,117.0,gray,flipped triangle
0.0,7.0,3.0,1.0,7.0,4.0,2437.9289529999824,4.0,1.0,part_3,go,0.0,0.0,0.0,216.0,4.0,54.0,324.0,270.0,216.0,108.0,162.0,yellow,I
0.0,8.0,4.0,1.0,7.0,6.0,2758.6717660000204,4.0,1.0,part_3,go,0.0,0.0,0.0,147.0,3.0,245.0,196.0,98.0,49.0,294.0,147.0,green,circle
0.0,8.0,4.0,1.0,7.0,4.0,2375.9451090000994,4.0,1.0,part_3,go,0.0,0.0,0.0,132.0,3.0,220.0,264.0,176.0,132.0,88.0,44.0,green,circle
0.0,2.0,2.0,0.0,7.0,1.0,1347.1074620000536,4.0,1.0,part_3,go,0.0,0.0,0.0,132.0,3.0,132.0,176.0,264.0,44.0,88.0,220.0,white,square
0.0,7.0,3.0,1.0,7.0,3.0,1277.193233999924,4.0,1.0,part_3,go,0.0,0.0,0.0,147.0,3.0,245.0,49.0,147.0,196.0,98.0,294.0,yellow,I
0.0,7.0,3.0,1.0,7.0,4.0,2462.012636000054,4.0,1.0,part_3,go,0.0,0.0,0.0,195.0,5.0,78.0,39.0,156.0,195.0,234.0,117.0,yellow,I
0.0,3.0,3.0,0.0,7.0,2.0,3776.479909999921,4.0,1.0,part_3,go,0.0,0.0,0.0,294.0,6.0,49.0,294.0,196.0,147.0,245.0,98.0,orange,cross
0.0,1.0,1.0,0.0,7.0,4.0,2201.783972000044,4.0,1.0,part_3,go,0.0,0.0,0.0,132.0,3.0,88.0,264.0,220.0,132.0,44.0,176.0,magenta,diamond
0.0,6.0,2.0,1.0,7.0,3.0,3099.581650999994,4.0,1.0,part_3,go,0.0,0.0,0.0,88.0,2.0,132.0,264.0,88.0,176.0,44.0,220.0,gray,flipped triangle
0.0,2.0,2.0,0.0,7.0,1.0,763.5886509999636,4.0,1.0,part_3,go,0.0,0.0,0.0,234.0,6.0,234.0,195.0,117.0,39.0,78.0,156.0,white,square
0.0,2.0,2.0,0.0,7.0,5.0,1982.555787000024,4.0,1.0,part_3,go,0.0,0.0,0.0,117.0,3.0,195.0,39.0,234.0,78.0,117.0,156.0,white,square
0.0,4.0,4.0,0.0,7.0,2.0,622.1851999999899,4.0,1.0,part_3,go,0.0,0.0,0.0,162.0,3.0,270.0,162.0,108.0,216.0,324.0,54.0,cyan,triangle
0.0,6.0,2.0,1.0,7.0,6.0,685.4432929999348,4.0,1.0,part_3,go,0.0,0.0,0.0,195.0,5.0,234.0,39.0,117.0,78.0,156.0,195.0,gray,flipped triangle
0.0,7.0,3.0,1.0,7.0,2.0,1800.4168420000042,4.0,1.0,part_3,go,0.0,0.0,0.0,170.0,5.0,68.0,170.0,34.0,102.0,204.0,136.0,yellow,I
0.0,3.0,3.0,0.0,7.0,4.0,1353.3649500000138,4.0,1.0,part_3,go,0.0,0.0,0.0,136.0,4.0,102.0,34.0,170.0,136.0,204.0,68.0,orange,cross
0.0,3.0,3.0,0.0,7.0,5.0,1293.365633999997,4.0,1.0,part_3,go,0.0,0.0,0.0,78.0,2.0,234.0,117.0,195.0,39.0,78.0,156.0,orange,cross
0.0,1.0,1.0,0.0,7.0,2.0,1485.119200999975,4.0,1.0,part_3,go,0.0,0.0,0.0,264.0,6.0,220.0,264.0,176.0,44.0,132.0,88.0,magenta,diamond
0.0,1.0,1.0,0.0,7.0,3.0,511.6468060000443,4.0,1.0,part_3,go,0.0,0.0,0.0,78.0,2.0,156.0,117.0,78.0,234.0,39.0,195.0,magenta,diamond
0.0,2.0,2.0,0.0,7.0,6.0,2786.0828469999888,4.0,1.0,part_3,go,0.0,0.0,0.0,270.0,5.0,162.0,216.0,54.0,108.0,324.0,270.0,white,square
