raw_reward_magnitude,stim_reward,stepwise_reward_magnitude,paired_with_stopping,quadrant,response,reaction_time,block,num_trial_presentations,which_part,stop_signal_trial_type,left_SSD,right_SSD,accuracy,chosen_bidding_amount,chosen_bidding_level,possible_bid_1,possible_bid_2,possible_bid_3,possible_bid_4,possible_bid_5,possible_bid_6,color_text,shape_text
0.0,8.0,0.0,1.0,3.0,3.0,294.8218530218582,1.0,1.0,part_1,,,,,,,,,,,,,cyan,triangle
0.0,2.0,0.0,0.0,3.0,3.0,271.1789299792144,1.0,1.0,part_1,,,,,,,,,,,,,orange,diamond
31.0,5.0,1.0,1.0,4.0,4.0,307.1446440008003,1.0,1.0,part_1,,,,,,,,,,,,,blue,I
51.0,5.0,1.0,1.0,2.0,2.0,311.7212560027838,1.0,1.0,part_1,,,,,,,,,,,,,blue,I
0.0,5.0,0.0,1.0,4.0,4.0,274.2175300081726,1.0,1.0,part_1,,,,,,,,,,,,,blue,I
97.0,6.0,2.0,1.0,2.0,2.0,303.6480680166278,1.0,1.0,part_1,,,,,,,,,,,,,gray,circle
72.0,5.0,1.0,1.0,1.0,1.0,353.1344269867986,1.0,2.0,part_1,,,,,,,,,,,,,blue,I
385.0,8.0,4.0,1.0,1.0,1.0,356.1491400178056,1.0,1.0,part_1,,,,,,,,,,,,,cyan,triangle
118.0,2.0,2.0,0.0,1.0,1.0,332.5857890013139,1.0,1.0,part_1,,,,,,,,,,,,,orange,diamond
179.0,3.0,3.0,0.0,3.0,3.0,305.5339700076729,1.0,1.0,part_1,,,,,,,,,,,,,yellow,flipped triangle
408.0,4.0,4.0,0.0,1.0,1.0,246.1364280025009,1.0,1.0,part_1,,,,,,,,,,,,,magenta,hexagon
196.0,3.0,3.0,0.0,2.0,2.0,295.7288929901551,1.0,1.0,part_1,,,,,,,,,,,,,yellow,flipped triangle
45.0,1.0,1.0,0.0,1.0,1.0,308.0859020119533,1.0,1.0,part_1,,,,,,,,,,,,,green,square
178.0,7.0,3.0,1.0,1.0,1.0,340.1501250045839,1.0,1.0,part_1,,,,,,,,,,,,,white,cross
425.0,8.0,4.0,1.0,3.0,3.0,246.3034980173688,1.0,1.0,part_1,,,,,,,,,,,,,cyan,triangle
218.0,3.0,3.0,0.0,3.0,3.0,307.9009959765244,1.0,1.0,part_1,,,,,,,,,,,,,yellow,flipped triangle
379.0,4.0,4.0,0.0,3.0,3.0,353.8399319804739,1.0,1.0,part_1,,,,,,,,,,,,,magenta,hexagon
118.0,6.0,2.0,1.0,4.0,4.0,356.8203250179067,1.0,1.0,part_1,,,,,,,,,,,,,gray,circle
190.0,7.0,3.0,1.0,4.0,4.0,337.0248540013563,1.0,1.0,part_1,,,,,,,,,,,,,white,cross
405.0,4.0,4.0,0.0,4.0,4.0,328.6070470057893,1.0,1.0,part_1,,,,,,,,,,,,,magenta,hexagon
106.0,2.0,2.0,0.0,3.0,3.0,339.7920519928448,1.0,1.0,part_1,,,,,,,,,,,,,orange,diamond
385.0,8.0,4.0,1.0,4.0,4.0,352.3619819898158,1.0,1.0,part_1,,,,,,,,,,,,,cyan,triangle
193.0,3.0,3.0,0.0,4.0,4.0,300.5738260108046,1.0,1.0,part_1,,,,,,,,,,,,,yellow,flipped triangle
120.0,2.0,2.0,0.0,4.0,4.0,233.075987023767,1.0,1.0,part_1,,,,,,,,,,,,,orange,diamond
0.0,2.0,0.0,0.0,4.0,4.0,245.3752190049272,1.0,1.0,part_1,,,,,,,,,,,,,orange,diamond
116.0,6.0,2.0,1.0,3.0,3.0,322.8351160068996,1.0,1.0,part_1,,,,,,,,,,,,,gray,circle
86.0,6.0,2.0,1.0,1.0,1.0,269.3194210005458,1.0,1.0,part_1,,,,,,,,,,,,,gray,circle
114.0,6.0,2.0,1.0,1.0,1.0,346.7072630010079,1.0,1.0,part_1,,,,,,,,,,,,,gray,circle
68.0,1.0,1.0,0.0,2.0,2.0,319.226861000061,1.0,1.0,part_1,,,,,,,,,,,,,green,square
422.0,4.0,4.0,0.0,2.0,2.0,355.8545359992422,1.0,1.0,part_1,,,,,,,,,,,,,magenta,hexagon
0.0,8.0,0.0,1.0,2.0,2.0,330.8532399823889,1.0,1.0,part_1,,,,,,,,,,,,,cyan,triangle
65.0,5.0,1.0,1.0,4.0,4.0,405.286627006717,1.0,1.0,part_1,,,,,,,,,,,,,blue,I
394.0,4.0,4.0,0.0,4.0,4.0,379.7187720192596,1.0,1.0,part_1,,,,,,,,,,,,,magenta,hexagon
382.0,8.0,4.0,1.0,2.0,2.0,302.53235300187947,1.0,1.0,part_1,,,,,,,,,,,,,cyan,triangle
27.0,5.0,1.0,1.0,2.0,2.0,339.5421869936399,1.0,1.0,part_1,,,,,,,,,,,,,blue,I
408.0,8.0,4.0,1.0,1.0,1.0,298.404611996375,1.0,1.0,part_1,,,,,,,,,,,,,cyan,triangle
42.0,5.0,1.0,1.0,2.0,2.0,356.4760719891637,1.0,1.0,part_1,,,,,,,,,,,,,blue,I
424.0,8.0,4.0,1.0,2.0,2.0,348.3979970042128,1.0,1.0,part_1,,,,,,,,,,,,,cyan,triangle
407.0,8.0,4.0,1.0,4.0,4.0,328.5485389933456,1.0,1.0,part_1,,,,,,,,,,,,,cyan,triangle
405.0,8.0,4.0,1.0,1.0,1.0,323.7229489895981,1.0,1.0,part_1,,,,,,,,,,,,,cyan,triangle
50.0,5.0,1.0,1.0,1.0,1.0,303.1535479822196,1.0,1.0,part_1,,,,,,,,,,,,,blue,I
213.0,3.0,3.0,0.0,2.0,2.0,363.7751819915138,1.0,1.0,part_1,,,,,,,,,,,,,yellow,flipped triangle
29.0,1.0,1.0,0.0,3.0,3.0,297.5434309919365,1.0,1.0,part_1,,,,,,,,,,,,,green,square
0.0,7.0,0.0,1.0,4.0,4.0,311.3060090108774,1.0,1.0,part_1,,,,,,,,,,,,,white,cross
120.0,6.0,2.0,1.0,1.0,1.0,349.4985610013827,1.0,1.0,part_1,,,,,,,,,,,,,gray,circle
49.0,1.0,1.0,0.0,4.0,4.0,258.6404710018541,1.0,1.0,part_1,,,,,,,,,,,,,green,square
407.0,4.0,4.0,0.0,4.0,4.0,282.8634949983097,1.0,1.0,part_1,,,,,,,,,,,,,magenta,hexagon
397.0,8.0,4.0,1.0,1.0,1.0,298.6183020111639,1.0,1.0,part_1,,,,,,,,,,,,,cyan,triangle
97.0,2.0,2.0,0.0,4.0,4.0,311.2165769853163,1.0,1.0,part_1,,,,,,,,,,,,,orange,diamond
0.0,8.0,0.0,1.0,1.0,1.0,314.0892770024948,1.0,1.0,part_1,,,,,,,,,,,,,cyan,triangle
401.0,4.0,4.0,0.0,4.0,4.0,294.2827049992047,1.0,1.0,part_1,,,,,,,,,,,,,magenta,hexagon
38.0,1.0,1.0,0.0,4.0,4.0,324.5822550088633,1.0,1.0,part_1,,,,,,,,,,,,,green,square
77.0,2.0,2.0,0.0,1.0,1.0,254.46499398094602,1.0,1.0,part_1,,,,,,,,,,,,,orange,diamond
220.0,7.0,3.0,1.0,3.0,3.0,299.6760400128551,1.0,1.0,part_1,,,,,,,,,,,,,white,cross
94.0,2.0,2.0,0.0,3.0,3.0,331.2748330063186,1.0,1.0,part_1,,,,,,,,,,,,,orange,diamond
94.0,6.0,2.0,1.0,1.0,1.0,294.9178780254442,1.0,1.0,part_1,,,,,,,,,,,,,gray,circle
87.0,6.0,2.0,1.0,4.0,4.0,372.9089550033677,1.0,1.0,part_1,,,,,,,,,,,,,gray,circle
209.0,7.0,3.0,1.0,1.0,1.0,441.2390139768831,1.0,1.0,part_1,,,,,,,,,,,,,white,cross
0.0,8.0,0.0,1.0,4.0,4.0,315.0525380042381,1.0,1.0,part_1,,,,,,,,,,,,,cyan,triangle
398.0,8.0,4.0,1.0,2.0,2.0,377.028628019616,1.0,1.0,part_1,,,,,,,,,,,,,cyan,triangle
44.0,1.0,1.0,0.0,1.0,1.0,310.423938994063,1.0,1.0,part_1,,,,,,,,,,,,,green,square
382.0,8.0,4.0,1.0,4.0,4.0,300.2188260143157,1.0,1.0,part_1,,,,,,,,,,,,,cyan,triangle
198.0,3.0,3.0,0.0,2.0,2.0,350.6425060040783,1.0,1.0,part_1,,,,,,,,,,,,,yellow,flipped triangle
90.0,6.0,2.0,1.0,4.0,4.0,414.3603710108436,1.0,1.0,part_1,,,,,,,,,,,,,gray,circle
58.0,5.0,1.0,1.0,1.0,1.0,313.1985740037635,1.0,1.0,part_1,,,,,,,,,,,,,blue,I
0.0,4.0,0.0,0.0,2.0,2.0,388.4362319950014,1.0,1.0,part_1,,,,,,,,,,,,,magenta,hexagon
42.0,1.0,1.0,0.0,3.0,3.0,274.5335829968098,1.0,1.0,part_1,,,,,,,,,,,,,green,square
220.0,3.0,3.0,0.0,1.0,1.0,384.4069830083754,1.0,1.0,part_1,,,,,,,,,,,,,yellow,flipped triangle
96.0,6.0,2.0,1.0,3.0,3.0,298.093606979819,1.0,1.0,part_1,,,,,,,,,,,,,gray,circle
222.0,3.0,3.0,0.0,1.0,1.0,430.5794510000851,1.0,1.0,part_1,,,,,,,,,,,,,yellow,flipped triangle
216.0,7.0,3.0,1.0,1.0,1.0,327.2429190110415,1.0,1.0,part_1,,,,,,,,,,,,,white,cross
0.0,5.0,0.0,1.0,3.0,3.0,352.5537230016198,1.0,1.0,part_1,,,,,,,,,,,,,blue,I
188.0,7.0,3.0,1.0,4.0,4.0,376.3118129863869,1.0,1.0,part_1,,,,,,,,,,,,,white,cross
95.0,2.0,2.0,0.0,1.0,1.0,283.597825007746,1.0,1.0,part_1,,,,,,,,,,,,,orange,diamond
122.0,2.0,2.0,0.0,3.0,3.0,310.2501399989705,1.0,1.0,part_1,,,,,,,,,,,,,orange,diamond
0.0,2.0,0.0,0.0,4.0,4.0,330.734761984786,1.0,1.0,part_1,,,,,,,,,,,,,orange,diamond
79.0,2.0,2.0,0.0,4.0,4.0,367.6067609922029,1.0,1.0,part_1,,,,,,,,,,,,,orange,diamond
399.0,4.0,4.0,0.0,3.0,3.0,284.5033779740333,1.0,1.0,part_1,,,,,,,,,,,,,magenta,hexagon
0.0,7.0,0.0,1.0,4.0,4.0,355.4771000053733,1.0,1.0,part_1,,,,,,,,,,,,,white,cross
50.0,1.0,1.0,0.0,2.0,2.0,392.4490819917992,1.0,1.0,part_1,,,,,,,,,,,,,green,square
92.0,6.0,2.0,1.0,2.0,2.0,370.7116500008851,1.0,1.0,part_1,,,,,,,,,,,,,gray,circle
102.0,6.0,2.0,1.0,4.0,4.0,299.0698420035187,1.0,1.0,part_1,,,,,,,,,,,,,gray,circle
115.0,6.0,2.0,1.0,3.0,3.0,335.4915929958224,1.0,1.0,part_1,,,,,,,,,,,,,gray,circle
214.0,3.0,3.0,0.0,4.0,4.0,364.3543579964898,1.0,1.0,part_1,,,,,,,,,,,,,yellow,flipped triangle
28.0,5.0,1.0,1.0,2.0,2.0,392.8077830059919,1.0,1.0,part_1,,,,,,,,,,,,,blue,I
106.0,6.0,2.0,1.0,1.0,1.0,322.5903910060879,1.0,1.0,part_1,,,,,,,,,,,,,gray,circle
386.0,4.0,4.0,0.0,1.0,1.0,383.7975279893726,1.0,1.0,part_1,,,,,,,,,,,,,magenta,hexagon
0.0,5.0,0.0,1.0,2.0,2.0,363.6972249951213,1.0,1.0,part_1,,,,,,,,,,,,,blue,I
190.0,3.0,3.0,0.0,1.0,1.0,352.6777469960507,1.0,1.0,part_1,,,,,,,,,,,,,yellow,flipped triangle
81.0,6.0,2.0,1.0,3.0,3.0,348.6170409887563,1.0,1.0,part_1,,,,,,,,,,,,,gray,circle
0.0,1.0,0.0,0.0,1.0,1.0,401.8199169950094,1.0,1.0,part_1,,,,,,,,,,,,,green,square
204.0,7.0,3.0,1.0,3.0,3.0,286.9817359896842,1.0,1.0,part_1,,,,,,,,,,,,,white,cross
203.0,3.0,3.0,0.0,1.0,1.0,322.6494950067717,1.0,1.0,part_1,,,,,,,,,,,,,yellow,flipped triangle
50.0,1.0,1.0,0.0,3.0,3.0,342.9836980067193,1.0,1.0,part_1,,,,,,,,,,,,,green,square
190.0,3.0,3.0,0.0,2.0,2.0,334.4741580076515,1.0,1.0,part_1,,,,,,,,,,,,,yellow,flipped triangle
379.0,4.0,4.0,0.0,4.0,4.0,387.9502739873715,1.0,1.0,part_1,,,,,,,,,,,,,magenta,hexagon
106.0,6.0,2.0,1.0,4.0,4.0,382.3057230038102,1.0,1.0,part_1,,,,,,,,,,,,,gray,circle
193.0,7.0,3.0,1.0,3.0,3.0,331.7470169859007,1.0,1.0,part_1,,,,,,,,,,,,,white,cross
96.0,2.0,2.0,0.0,2.0,2.0,310.2376069873571,1.0,1.0,part_1,,,,,,,,,,,,,orange,diamond
181.0,7.0,3.0,1.0,4.0,4.0,363.997656997526,1.0,1.0,part_1,,,,,,,,,,,,,white,cross
27.0,5.0,1.0,1.0,4.0,4.0,384.7861849935725,2.0,1.0,part_1,,,,,,,,,,,,,blue,I
0.0,1.0,0.0,0.0,3.0,3.0,285.8800679969135,2.0,1.0,part_1,,,,,,,,,,,,,green,square
0.0,8.0,0.0,1.0,1.0,1.0,289.705437986413,2.0,1.0,part_1,,,,,,,,,,,,,cyan,triangle
407.0,4.0,4.0,0.0,1.0,1.0,294.5906009990722,2.0,1.0,part_1,,,,,,,,,,,,,magenta,hexagon
198.0,3.0,3.0,0.0,3.0,3.0,273.4336690045893,2.0,1.0,part_1,,,,,,,,,,,,,yellow,flipped triangle
0.0,8.0,0.0,1.0,4.0,4.0,376.1977139802184,2.0,1.0,part_1,,,,,,,,,,,,,cyan,triangle
41.0,5.0,1.0,1.0,4.0,4.0,326.0224930127151,2.0,1.0,part_1,,,,,,,,,,,,,blue,I
71.0,1.0,1.0,0.0,4.0,4.0,249.4167060067411,2.0,1.0,part_1,,,,,,,,,,,,,green,square
0.0,6.0,0.0,1.0,1.0,1.0,300.5177640006877,2.0,1.0,part_1,,,,,,,,,,,,,gray,circle
199.0,3.0,3.0,0.0,4.0,4.0,288.5618400177918,2.0,1.0,part_1,,,,,,,,,,,,,yellow,flipped triangle
115.0,6.0,2.0,1.0,1.0,1.0,333.3942579920403,2.0,1.0,part_1,,,,,,,,,,,,,gray,circle
198.0,3.0,3.0,0.0,1.0,1.0,353.6533770093228,2.0,1.0,part_1,,,,,,,,,,,,,yellow,flipped triangle
82.0,2.0,2.0,0.0,2.0,2.0,424.3860660062637,2.0,1.0,part_1,,,,,,,,,,,,,orange,diamond
50.0,5.0,1.0,1.0,1.0,1.0,405.7371780218091,2.0,1.0,part_1,,,,,,,,,,,,,blue,I
106.0,2.0,2.0,0.0,3.0,3.0,335.9353470150381,2.0,1.0,part_1,,,,,,,,,,,,,orange,diamond
189.0,7.0,3.0,1.0,1.0,1.0,333.2492199842818,2.0,1.0,part_1,,,,,,,,,,,,,white,cross
0.0,5.0,0.0,1.0,2.0,2.0,403.9944690011907,2.0,1.0,part_1,,,,,,,,,,,,,blue,I
69.0,5.0,1.0,1.0,1.0,1.0,310.1376410049852,2.0,1.0,part_1,,,,,,,,,,,,,blue,I
385.0,4.0,4.0,0.0,3.0,3.0,330.4999720130581,2.0,1.0,part_1,,,,,,,,,,,,,magenta,hexagon
194.0,3.0,3.0,0.0,4.0,4.0,329.9157790024765,2.0,1.0,part_1,,,,,,,,,,,,,yellow,flipped triangle
0.0,5.0,0.0,1.0,3.0,3.0,374.8412269924301,2.0,1.0,part_1,,,,,,,,,,,,,blue,I
0.0,3.0,0.0,0.0,1.0,1.0,347.9270440002437,2.0,1.0,part_1,,,,,,,,,,,,,yellow,flipped triangle
224.0,3.0,3.0,0.0,3.0,3.0,351.4736150100361,2.0,1.0,part_1,,,,,,,,,,,,,yellow,flipped triangle
201.0,7.0,3.0,1.0,1.0,1.0,290.4425589949824,2.0,1.0,part_1,,,,,,,,,,,,,white,cross
0.0,2.0,0.0,0.0,4.0,4.0,330.3449610248208,2.0,1.0,part_1,,,,,,,,,,,,,orange,diamond
46.0,5.0,1.0,1.0,2.0,2.0,293.8161320053041,2.0,1.0,part_1,,,,,,,,,,,,,blue,I
390.0,8.0,4.0,1.0,1.0,1.0,272.8476609918289,2.0,1.0,part_1,,,,,,,,,,,,,cyan,triangle
0.0,7.0,0.0,1.0,1.0,1.0,335.0386249949224,2.0,1.0,part_1,,,,,,,,,,,,,white,cross
0.0,3.0,0.0,0.0,1.0,1.0,281.734388001496,2.0,1.0,part_1,,,,,,,,,,,,,yellow,flipped triangle
63.0,5.0,1.0,1.0,2.0,2.0,375.0360620033461,2.0,1.0,part_1,,,,,,,,,,,,,blue,I
203.0,7.0,3.0,1.0,2.0,2.0,334.7760709875729,2.0,1.0,part_1,,,,,,,,,,,,,white,cross
0.0,5.0,0.0,1.0,1.0,1.0,281.6871510003693,2.0,1.0,part_1,,,,,,,,,,,,,blue,I
38.0,5.0,1.0,1.0,1.0,1.0,359.7957679885439,2.0,1.0,part_1,,,,,,,,,,,,,blue,I
31.0,1.0,1.0,0.0,2.0,2.0,339.6033559984062,2.0,1.0,part_1,,,,,,,,,,,,,green,square
108.0,6.0,2.0,1.0,4.0,4.0,352.036837983178,2.0,1.0,part_1,,,,,,,,,,,,,gray,circle
198.0,3.0,3.0,0.0,1.0,1.0,293.5394189844373,2.0,1.0,part_1,,,,,,,,,,,,,yellow,flipped triangle
189.0,3.0,3.0,0.0,2.0,2.0,359.153110999614,2.0,1.0,part_1,,,,,,,,,,,,,yellow,flipped triangle
382.0,4.0,4.0,0.0,3.0,3.0,387.989662005566,2.0,2.0,part_1,,,,,,,,,,,,,magenta,hexagon
0.0,3.0,0.0,0.0,1.0,1.0,441.2768079782836,2.0,1.0,part_1,,,,,,,,,,,,,yellow,flipped triangle
35.0,5.0,1.0,1.0,2.0,2.0,572.9252980090678,2.0,1.0,part_1,,,,,,,,,,,,,blue,I
109.0,2.0,2.0,0.0,2.0,2.0,391.762640007073,2.0,1.0,part_1,,,,,,,,,,,,,orange,diamond
29.0,5.0,1.0,1.0,3.0,3.0,403.3102610264905,2.0,1.0,part_1,,,,,,,,,,,,,blue,I
386.0,8.0,4.0,1.0,2.0,2.0,683.5959080199245,2.0,1.0,part_1,,,,,,,,,,,,,cyan,triangle
178.0,7.0,3.0,1.0,2.0,2.0,367.3802609846461,2.0,1.0,part_1,,,,,,,,,,,,,white,cross
394.0,8.0,4.0,1.0,4.0,4.0,330.8762279921211,2.0,1.0,part_1,,,,,,,,,,,,,cyan,triangle
0.0,7.0,0.0,1.0,4.0,4.0,390.8025770215317,2.0,1.0,part_1,,,,,,,,,,,,,white,cross
379.0,8.0,4.0,1.0,2.0,2.0,482.5680610083509,2.0,1.0,part_1,,,,,,,,,,,,,cyan,triangle
92.0,2.0,2.0,0.0,4.0,4.0,370.3964430023916,2.0,1.0,part_1,,,,,,,,,,,,,orange,diamond
111.0,6.0,2.0,1.0,1.0,1.0,439.0056190022733,2.0,1.0,part_1,,,,,,,,,,,,,gray,circle
0.0,2.0,0.0,0.0,1.0,1.0,307.5404590053949,2.0,1.0,part_1,,,,,,,,,,,,,orange,diamond
220.0,7.0,3.0,1.0,1.0,1.0,336.26034099143,2.0,1.0,part_1,,,,,,,,,,,,,white,cross
74.0,5.0,1.0,1.0,3.0,3.0,362.3515280196443,2.0,1.0,part_1,,,,,,,,,,,,,blue,I
214.0,7.0,3.0,1.0,1.0,1.0,375.7771780074108,2.0,1.0,part_1,,,,,,,,,,,,,white,cross
115.0,2.0,2.0,0.0,4.0,4.0,399.5306550059467,2.0,1.0,part_1,,,,,,,,,,,,,orange,diamond
404.0,8.0,4.0,1.0,3.0,3.0,355.3343270032201,2.0,1.0,part_1,,,,,,,,,,,,,cyan,triangle
382.0,4.0,4.0,0.0,2.0,2.0,383.4168720059097,2.0,1.0,part_1,,,,,,,,,,,,,magenta,hexagon
0.0,7.0,0.0,1.0,3.0,3.0,412.9640510072931,2.0,1.0,part_1,,,,,,,,,,,,,white,cross
90.0,2.0,2.0,0.0,4.0,4.0,462.6107200165279,2.0,1.0,part_1,,,,,,,,,,,,,orange,diamond
0.0,1.0,0.0,0.0,4.0,4.0,389.2755289853085,2.0,1.0,part_1,,,,,,,,,,,,,green,square
0.0,6.0,0.0,1.0,2.0,2.0,410.3696839883923,2.0,1.0,part_1,,,,,,,,,,,,,gray,circle
27.0,1.0,1.0,0.0,2.0,2.0,374.2439649940934,2.0,1.0,part_1,,,,,,,,,,,,,green,square
0.0,6.0,0.0,1.0,4.0,4.0,377.9949730087537,2.0,1.0,part_1,,,,,,,,,,,,,gray,circle
209.0,3.0,3.0,0.0,3.0,3.0,295.8071799948811,2.0,1.0,part_1,,,,,,,,,,,,,yellow,flipped triangle
41.0,1.0,1.0,0.0,4.0,4.0,330.3256329963915,2.0,1.0,part_1,,,,,,,,,,,,,green,square
178.0,7.0,3.0,1.0,4.0,4.0,299.2486979928799,2.0,1.0,part_1,,,,,,,,,,,,,white,cross
50.0,1.0,1.0,0.0,3.0,3.0,342.3401360050775,2.0,1.0,part_1,,,,,,,,,,,,,green,square
30.0,1.0,1.0,0.0,3.0,3.0,322.4362750188447,2.0,1.0,part_1,,,,,,,,,,,,,green,square
95.0,6.0,2.0,1.0,3.0,3.0,317.4402749864384,2.0,1.0,part_1,,,,,,,,,,,,,gray,circle
411.0,8.0,4.0,1.0,1.0,1.0,338.9973570010625,2.0,1.0,part_1,,,,,,,,,,,,,cyan,triangle
386.0,8.0,4.0,1.0,2.0,2.0,328.4264999965671,2.0,1.0,part_1,,,,,,,,,,,,,cyan,triangle
191.0,3.0,3.0,0.0,4.0,4.0,407.3896640038583,2.0,1.0,part_1,,,,,,,,,,,,,yellow,flipped triangle
405.0,4.0,4.0,0.0,3.0,3.0,583.0772909976076,2.0,1.0,part_1,,,,,,,,,,,,,magenta,hexagon
58.0,1.0,1.0,0.0,4.0,4.0,407.4013119970914,2.0,1.0,part_1,,,,,,,,,,,,,green,square
404.0,4.0,4.0,0.0,2.0,2.0,387.5898330006748,2.0,1.0,part_1,,,,,,,,,,,,,magenta,hexagon
48.0,1.0,1.0,0.0,2.0,2.0,399.6728409838397,2.0,1.0,part_1,,,,,,,,,,,,,green,square
395.0,8.0,4.0,1.0,1.0,1.0,333.5413530003279,2.0,1.0,part_1,,,,,,,,,,,,,cyan,triangle
390.0,4.0,4.0,0.0,4.0,4.0,319.1224100010004,2.0,1.0,part_1,,,,,,,,,,,,,magenta,hexagon
0.0,8.0,0.0,1.0,3.0,3.0,390.4920889763161,2.0,1.0,part_1,,,,,,,,,,,,,cyan,triangle
86.0,2.0,2.0,0.0,2.0,2.0,378.354626998771,2.0,1.0,part_1,,,,,,,,,,,,,orange,diamond
0.0,6.0,0.0,1.0,2.0,2.0,351.4543579949531,2.0,1.0,part_1,,,,,,,,,,,,,gray,circle
409.0,8.0,4.0,1.0,3.0,3.0,354.9254369863774,2.0,1.0,part_1,,,,,,,,,,,,,cyan,triangle
0.0,4.0,0.0,0.0,1.0,1.0,318.5849220026284,2.0,1.0,part_1,,,,,,,,,,,,,magenta,hexagon
55.0,5.0,1.0,1.0,2.0,2.0,334.5442849968094,2.0,1.0,part_1,,,,,,,,,,,,,blue,I
414.0,4.0,4.0,0.0,1.0,1.0,330.8110939979087,2.0,1.0,part_1,,,,,,,,,,,,,magenta,hexagon
69.0,1.0,1.0,0.0,3.0,3.0,343.846495001344,2.0,1.0,part_1,,,,,,,,,,,,,green,square
179.0,7.0,3.0,1.0,4.0,4.0,281.2920849828515,2.0,1.0,part_1,,,,,,,,,,,,,white,cross
0.0,7.0,0.0,1.0,1.0,1.0,318.7219089886639,2.0,1.0,part_1,,,,,,,,,,,,,white,cross
79.0,2.0,2.0,0.0,2.0,2.0,382.1911929990165,2.0,1.0,part_1,,,,,,,,,,,,,orange,diamond
71.0,5.0,1.0,1.0,1.0,1.0,335.1875419903081,2.0,1.0,part_1,,,,,,,,,,,,,blue,I
119.0,2.0,2.0,0.0,2.0,2.0,382.6752550085075,2.0,1.0,part_1,,,,,,,,,,,,,orange,diamond
0.0,4.0,0.0,0.0,2.0,2.0,313.3320230117533,2.0,1.0,part_1,,,,,,,,,,,,,magenta,hexagon
94.0,2.0,2.0,0.0,1.0,1.0,424.3063000030815,2.0,1.0,part_1,,,,,,,,,,,,,orange,diamond
411.0,8.0,4.0,1.0,2.0,2.0,290.1271139853634,2.0,1.0,part_1,,,,,,,,,,,,,cyan,triangle
419.0,8.0,4.0,1.0,3.0,3.0,321.646113996394,2.0,1.0,part_1,,,,,,,,,,,,,cyan,triangle
375.0,8.0,4.0,1.0,1.0,1.0,324.2813610122539,2.0,1.0,part_1,,,,,,,,,,,,,cyan,triangle
180.0,3.0,3.0,0.0,4.0,4.0,394.7056169854477,2.0,1.0,part_1,,,,,,,,,,,,,yellow,flipped triangle
27.0,1.0,1.0,0.0,3.0,3.0,371.535471000243,2.0,2.0,part_1,,,,,,,,,,,,,green,square
95.0,6.0,2.0,1.0,2.0,2.0,317.9361390066333,2.0,1.0,part_1,,,,,,,,,,,,,gray,circle
210.0,3.0,3.0,0.0,4.0,4.0,358.8934410072397,2.0,1.0,part_1,,,,,,,,,,,,,yellow,flipped triangle
79.0,6.0,2.0,1.0,1.0,1.0,330.1334220159333,2.0,1.0,part_1,,,,,,,,,,,,,gray,circle
87.0,2.0,2.0,0.0,2.0,2.0,338.0616020003799,3.0,1.0,part_1,,,,,,,,,,,,,orange,diamond
85.0,2.0,2.0,0.0,4.0,4.0,351.4033980027307,3.0,1.0,part_1,,,,,,,,,,,,,orange,diamond
63.0,1.0,1.0,0.0,1.0,1.0,311.1028909916058,3.0,1.0,part_1,,,,,,,,,,,,,green,square
414.0,8.0,4.0,1.0,4.0,4.0,339.5291269989684,3.0,1.0,part_1,,,,,,,,,,,,,cyan,triangle
411.0,4.0,4.0,0.0,1.0,1.0,351.1349320178851,3.0,1.0,part_1,,,,,,,,,,,,,magenta,hexagon
220.0,3.0,3.0,0.0,1.0,1.0,293.7863160041161,3.0,1.0,part_1,,,,,,,,,,,,,yellow,flipped triangle
84.0,6.0,2.0,1.0,4.0,4.0,338.7277029978577,3.0,1.0,part_1,,,,,,,,,,,,,gray,circle
0.0,3.0,0.0,0.0,2.0,2.0,379.0620640211273,3.0,1.0,part_1,,,,,,,,,,,,,yellow,flipped triangle
399.0,8.0,4.0,1.0,3.0,3.0,377.6618269912433,3.0,1.0,part_1,,,,,,,,,,,,,cyan,triangle
390.0,4.0,4.0,0.0,3.0,3.0,334.678168001119,3.0,1.0,part_1,,,,,,,,,,,,,magenta,hexagon
198.0,7.0,3.0,1.0,1.0,1.0,346.1996020050719,3.0,1.0,part_1,,,,,,,,,,,,,white,cross
204.0,3.0,3.0,0.0,4.0,4.0,294.3301050108857,3.0,1.0,part_1,,,,,,,,,,,,,yellow,flipped triangle
0.0,1.0,0.0,0.0,3.0,3.0,286.1031020001974,3.0,1.0,part_1,,,,,,,,,,,,,green,square
102.0,6.0,2.0,1.0,3.0,3.0,359.4335379893891,3.0,1.0,part_1,,,,,,,,,,,,,gray,circle
379.0,8.0,4.0,1.0,3.0,3.0,311.3677540095523,3.0,1.0,part_1,,,,,,,,,,,,,cyan,triangle
209.0,3.0,3.0,0.0,3.0,3.0,299.1191619948949,3.0,1.0,part_1,,,,,,,,,,,,,yellow,flipped triangle
378.0,4.0,4.0,0.0,2.0,2.0,392.512986989459,3.0,1.0,part_1,,,,,,,,,,,,,magenta,hexagon
0.0,7.0,0.0,1.0,4.0,4.0,355.681293993257,3.0,1.0,part_1,,,,,,,,,,,,,white,cross
0.0,3.0,0.0,0.0,4.0,4.0,379.1227499896195,3.0,1.0,part_1,,,,,,,,,,,,,yellow,flipped triangle
198.0,7.0,3.0,1.0,3.0,3.0,359.3651599949226,3.0,1.0,part_1,,,,,,,,,,,,,white,cross
37.0,5.0,1.0,1.0,3.0,3.0,337.7703740261495,3.0,1.0,part_1,,,,,,,,,,,,,blue,I
77.0,6.0,2.0,1.0,2.0,2.0,360.3926920040976,3.0,1.0,part_1,,,,,,,,,,,,,gray,circle
61.0,1.0,1.0,0.0,1.0,1.0,395.778528007213,3.0,1.0,part_1,,,,,,,,,,,,,green,square
421.0,4.0,4.0,0.0,3.0,3.0,286.9423500087578,3.0,1.0,part_1,,,,,,,,,,,,,magenta,hexagon
0.0,2.0,0.0,0.0,4.0,4.0,331.3617719977628,3.0,1.0,part_1,,,,,,,,,,,,,orange,diamond
119.0,6.0,2.0,1.0,3.0,3.0,343.9167370088398,3.0,1.0,part_1,,,,,,,,,,,,,gray,circle
102.0,2.0,2.0,0.0,3.0,3.0,360.0751429912634,3.0,1.0,part_1,,,,,,,,,,,,,orange,diamond
51.0,1.0,1.0,0.0,2.0,2.0,371.1424300272483,3.0,1.0,part_1,,,,,,,,,,,,,green,square
414.0,4.0,4.0,0.0,2.0,2.0,296.579575020587,3.0,1.0,part_1,,,,,,,,,,,,,magenta,hexagon
193.0,7.0,3.0,1.0,3.0,3.0,436.0053320124279,3.0,1.0,part_1,,,,,,,,,,,,,white,cross
180.0,7.0,3.0,1.0,4.0,4.0,409.5792270090896,3.0,1.0,part_1,,,,,,,,,,,,,white,cross
0.0,4.0,0.0,0.0,4.0,4.0,302.467766974587,3.0,1.0,part_1,,,,,,,,,,,,,magenta,hexagon
0.0,6.0,0.0,1.0,1.0,1.0,400.5863339989446,3.0,1.0,part_1,,,,,,,,,,,,,gray,circle
114.0,2.0,2.0,0.0,1.0,1.0,384.1811119928024,3.0,1.0,part_1,,,,,,,,,,,,,orange,diamond
49.0,5.0,1.0,1.0,3.0,3.0,322.2605529881548,3.0,1.0,part_1,,,,,,,,,,,,,blue,I
103.0,2.0,2.0,0.0,2.0,2.0,337.9021520086098,3.0,1.0,part_1,,,,,,,,,,,,,orange,diamond
0.0,2.0,0.0,0.0,3.0,3.0,311.1011460132431,3.0,1.0,part_1,,,,,,,,,,,,,orange,diamond
122.0,6.0,2.0,1.0,4.0,4.0,363.3137659926433,3.0,1.0,part_1,,,,,,,,,,,,,gray,circle
120.0,2.0,2.0,0.0,1.0,1.0,334.5445729792118,3.0,1.0,part_1,,,,,,,,,,,,,orange,diamond
115.0,2.0,2.0,0.0,1.0,1.0,371.9734670012258,3.0,1.0,part_1,,,,,,,,,,,,,orange,diamond
212.0,3.0,3.0,0.0,4.0,4.0,369.0949919982813,3.0,1.0,part_1,,,,,,,,,,,,,yellow,flipped triangle
30.0,5.0,1.0,1.0,4.0,4.0,323.2007479819003,3.0,1.0,part_1,,,,,,,,,,,,,blue,I
395.0,4.0,4.0,0.0,3.0,3.0,319.2264210083522,3.0,1.0,part_1,,,,,,,,,,,,,magenta,hexagon
50.0,1.0,1.0,0.0,4.0,4.0,399.7521550045348,3.0,1.0,part_1,,,,,,,,,,,,,green,square
0.0,1.0,0.0,0.0,1.0,1.0,371.4561810193117,3.0,1.0,part_1,,,,,,,,,,,,,green,square
74.0,5.0,1.0,1.0,1.0,1.0,344.8036320041865,3.0,1.0,part_1,,,,,,,,,,,,,blue,I
64.0,5.0,1.0,1.0,2.0,2.0,355.17660700134,3.0,1.0,part_1,,,,,,,,,,,,,blue,I
66.0,1.0,1.0,0.0,1.0,1.0,352.9431509959977,3.0,1.0,part_1,,,,,,,,,,,,,green,square
181.0,3.0,3.0,0.0,4.0,4.0,307.2293300065212,3.0,1.0,part_1,,,,,,,,,,,,,yellow,flipped triangle
400.0,8.0,4.0,1.0,3.0,3.0,315.4343689966481,3.0,1.0,part_1,,,,,,,,,,,,,cyan,triangle
0.0,2.0,0.0,0.0,1.0,1.0,302.8175460058264,3.0,1.0,part_1,,,,,,,,,,,,,orange,diamond
108.0,2.0,2.0,0.0,3.0,3.0,365.0738910073414,3.0,1.0,part_1,,,,,,,,,,,,,orange,diamond
407.0,8.0,4.0,1.0,4.0,4.0,383.441768004559,3.0,1.0,part_1,,,,,,,,,,,,,cyan,triangle
0.0,6.0,0.0,1.0,1.0,1.0,338.810121989809,3.0,1.0,part_1,,,,,,,,,,,,,gray,circle
190.0,7.0,3.0,1.0,2.0,2.0,385.3038699890021,3.0,1.0,part_1,,,,,,,,,,,,,white,cross
216.0,3.0,3.0,0.0,2.0,2.0,366.9209750078153,3.0,1.0,part_1,,,,,,,,,,,,,yellow,flipped triangle
103.0,6.0,2.0,1.0,2.0,2.0,339.4353540206793,3.0,1.0,part_1,,,,,,,,,,,,,gray,circle
209.0,7.0,3.0,1.0,2.0,2.0,297.5805850001052,3.0,1.0,part_1,,,,,,,,,,,,,white,cross
0.0,6.0,0.0,1.0,4.0,4.0,412.688412994612,3.0,1.0,part_1,,,,,,,,,,,,,gray,circle
0.0,8.0,0.0,1.0,2.0,2.0,351.1992309940979,3.0,1.0,part_1,,,,,,,,,,,,,cyan,triangle
0.0,4.0,0.0,0.0,2.0,2.0,331.8686510028783,3.0,1.0,part_1,,,,,,,,,,,,,magenta,hexagon
0.0,3.0,0.0,0.0,1.0,1.0,356.2722780043259,3.0,1.0,part_1,,,,,,,,,,,,,yellow,flipped triangle
64.0,1.0,1.0,0.0,1.0,1.0,301.7297239857726,3.0,1.0,part_1,,,,,,,,,,,,,green,square
0.0,1.0,0.0,0.0,4.0,4.0,435.4353800008539,3.0,1.0,part_1,,,,,,,,,,,,,green,square
411.0,4.0,4.0,0.0,4.0,4.0,362.4730629962869,3.0,1.0,part_1,,,,,,,,,,,,,magenta,hexagon
178.0,3.0,3.0,0.0,2.0,2.0,354.6880790090654,3.0,1.0,part_1,,,,,,,,,,,,,yellow,flipped triangle
191.0,7.0,3.0,1.0,4.0,4.0,351.9500980037264,3.0,1.0,part_1,,,,,,,,,,,,,white,cross
421.0,8.0,4.0,1.0,3.0,3.0,310.3484349849168,3.0,1.0,part_1,,,,,,,,,,,,,cyan,triangle
392.0,8.0,4.0,1.0,1.0,1.0,376.8920320144389,3.0,1.0,part_1,,,,,,,,,,,,,cyan,triangle
0.0,2.0,0.0,0.0,3.0,3.0,374.1510880063288,3.0,1.0,part_1,,,,,,,,,,,,,orange,diamond
0.0,3.0,0.0,0.0,2.0,2.0,412.3842129774857,3.0,1.0,part_1,,,,,,,,,,,,,yellow,flipped triangle
400.0,4.0,4.0,0.0,4.0,4.0,298.1410500069614,3.0,1.0,part_1,,,,,,,,,,,,,magenta,hexagon
0.0,5.0,0.0,1.0,1.0,1.0,348.8394719897769,3.0,1.0,part_1,,,,,,,,,,,,,blue,I
48.0,5.0,1.0,1.0,1.0,1.0,305.388650012901,3.0,1.0,part_1,,,,,,,,,,,,,blue,I
44.0,5.0,1.0,1.0,4.0,4.0,415.106754982844,3.0,1.0,part_1,,,,,,,,,,,,,blue,I
34.0,1.0,1.0,0.0,2.0,2.0,452.2017580165993,3.0,1.0,part_1,,,,,,,,,,,,,green,square
32.0,1.0,1.0,0.0,1.0,1.0,354.6975810022559,3.0,1.0,part_1,,,,,,,,,,,,,green,square
218.0,7.0,3.0,1.0,3.0,3.0,269.0251700114459,3.0,1.0,part_1,,,,,,,,,,,,,white,cross
184.0,7.0,3.0,1.0,2.0,2.0,375.895056000445,3.0,1.0,part_1,,,,,,,,,,,,,white,cross
0.0,3.0,0.0,0.0,2.0,2.0,380.6385039933957,3.0,1.0,part_1,,,,,,,,,,,,,yellow,flipped triangle
86.0,2.0,2.0,0.0,4.0,4.0,340.0729559944011,3.0,1.0,part_1,,,,,,,,,,,,,orange,diamond
28.0,1.0,1.0,0.0,2.0,2.0,376.1396589979995,3.0,1.0,part_1,,,,,,,,,,,,,green,square
193.0,3.0,3.0,0.0,2.0,2.0,334.0839089942164,3.0,1.0,part_1,,,,,,,,,,,,,yellow,flipped triangle
0.0,6.0,0.0,1.0,3.0,3.0,368.3571059955284,3.0,1.0,part_1,,,,,,,,,,,,,gray,circle
421.0,4.0,4.0,0.0,1.0,1.0,348.2573390065226,3.0,1.0,part_1,,,,,,,,,,,,,magenta,hexagon
0.0,5.0,0.0,1.0,1.0,1.0,421.0060939949471,3.0,1.0,part_1,,,,,,,,,,,,,blue,I
424.0,4.0,4.0,0.0,3.0,3.0,343.6366069945507,3.0,1.0,part_1,,,,,,,,,,,,,magenta,hexagon
0.0,5.0,0.0,1.0,1.0,1.0,330.3436389833223,3.0,1.0,part_1,,,,,,,,,,,,,blue,I
184.0,3.0,3.0,0.0,3.0,3.0,311.8403599946759,3.0,1.0,part_1,,,,,,,,,,,,,yellow,flipped triangle
198.0,7.0,3.0,1.0,2.0,2.0,363.2654679822735,3.0,1.0,part_1,,,,,,,,,,,,,white,cross
213.0,7.0,3.0,1.0,4.0,4.0,331.3189079926815,3.0,1.0,part_1,,,,,,,,,,,,,white,cross
120.0,6.0,2.0,1.0,1.0,1.0,384.1754499881062,3.0,1.0,part_1,,,,,,,,,,,,,gray,circle
419.0,4.0,4.0,0.0,1.0,1.0,317.7936490101274,3.0,1.0,part_1,,,,,,,,,,,,,magenta,hexagon
0.0,2.0,0.0,0.0,2.0,2.0,351.1351339984685,3.0,1.0,part_1,,,,,,,,,,,,,orange,diamond
56.0,5.0,1.0,1.0,4.0,4.0,371.6058819845784,3.0,1.0,part_1,,,,,,,,,,,,,blue,I
398.0,4.0,4.0,0.0,2.0,2.0,383.2832309999503,3.0,1.0,part_1,,,,,,,,,,,,,magenta,hexagon
91.0,6.0,2.0,1.0,3.0,3.0,375.1830300025176,3.0,1.0,part_1,,,,,,,,,,,,,gray,circle
199.0,7.0,3.0,1.0,1.0,1.0,450.3322700038552,3.0,1.0,part_1,,,,,,,,,,,,,white,cross
401.0,8.0,4.0,1.0,1.0,1.0,456.0406950186007,3.0,1.0,part_1,,,,,,,,,,,,,cyan,triangle
96.0,2.0,2.0,0.0,2.0,2.0,420.6120329909026,3.0,1.0,part_1,,,,,,,,,,,,,orange,diamond
0.0,8.0,0.0,1.0,4.0,4.0,326.2056460080202,4.0,1.0,part_1,,,,,,,,,,,,,cyan,triangle
217.0,7.0,3.0,1.0,4.0,4.0,372.9749190097209,4.0,1.0,part_1,,,,,,,,,,,,,white,cross
222.0,7.0,3.0,1.0,2.0,2.0,322.2176980052609,4.0,1.0,part_1,,,,,,,,,,,,,white,cross
0.0,8.0,0.0,1.0,1.0,1.0,326.6316949739121,4.0,1.0,part_1,,,,,,,,,,,,,cyan,triangle
74.0,1.0,1.0,0.0,4.0,4.0,339.2340040009003,4.0,1.0,part_1,,,,,,,,,,,,,green,square
81.0,2.0,2.0,0.0,2.0,2.0,326.9408879859838,4.0,1.0,part_1,,,,,,,,,,,,,orange,diamond
82.0,6.0,2.0,1.0,4.0,4.0,281.3362650049384,4.0,1.0,part_1,,,,,,,,,,,,,gray,circle
82.0,2.0,2.0,0.0,3.0,3.0,377.0555759838316,4.0,1.0,part_1,,,,,,,,,,,,,orange,diamond
0.0,4.0,0.0,0.0,1.0,1.0,283.2909399876371,4.0,1.0,part_1,,,,,,,,,,,,,magenta,hexagon
86.0,6.0,2.0,1.0,2.0,2.0,336.7402479925658,4.0,1.0,part_1,,,,,,,,,,,,,gray,circle
210.0,7.0,3.0,1.0,3.0,3.0,296.3331250066403,4.0,1.0,part_1,,,,,,,,,,,,,white,cross
0.0,7.0,0.0,1.0,2.0,2.0,347.8202499973122,4.0,1.0,part_1,,,,,,,,,,,,,white,cross
399.0,4.0,4.0,0.0,1.0,1.0,328.2782290189061,4.0,1.0,part_1,,,,,,,,,,,,,magenta,hexagon
196.0,7.0,3.0,1.0,3.0,3.0,340.3891230118461,4.0,1.0,part_1,,,,,,,,,,,,,white,cross
34.0,5.0,1.0,1.0,3.0,3.0,327.8022949816659,4.0,1.0,part_1,,,,,,,,,,,,,blue,I
46.0,1.0,1.0,0.0,1.0,1.0,291.346710990183,4.0,1.0,part_1,,,,,,,,,,,,,green,square
45.0,5.0,1.0,1.0,3.0,3.0,315.3377620037645,4.0,1.0,part_1,,,,,,,,,,,,,blue,I
194.0,7.0,3.0,1.0,4.0,4.0,359.7232679894659,4.0,1.0,part_1,,,,,,,,,,,,,white,cross
421.0,8.0,4.0,1.0,3.0,3.0,373.321869992651,4.0,1.0,part_1,,,,,,,,,,,,,cyan,triangle
188.0,7.0,3.0,1.0,3.0,3.0,401.3800989778247,4.0,1.0,part_1,,,,,,,,,,,,,white,cross
0.0,5.0,0.0,1.0,4.0,4.0,356.6639799973927,4.0,1.0,part_1,,,,,,,,,,,,,blue,I
94.0,6.0,2.0,1.0,2.0,2.0,408.9844870031811,4.0,1.0,part_1,,,,,,,,,,,,,gray,circle
0.0,7.0,0.0,1.0,3.0,3.0,365.4998349957168,4.0,1.0,part_1,,,,,,,,,,,,,white,cross
111.0,2.0,2.0,0.0,4.0,4.0,283.1183999951463,4.0,1.0,part_1,,,,,,,,,,,,,orange,diamond
37.0,1.0,1.0,0.0,2.0,2.0,423.9880249951966,4.0,1.0,part_1,,,,,,,,,,,,,green,square
109.0,6.0,2.0,1.0,4.0,4.0,315.7117090013344,4.0,1.0,part_1,,,,,,,,,,,,,gray,circle
85.0,6.0,2.0,1.0,1.0,1.0,441.6213060030713,4.0,1.0,part_1,,,,,,,,,,,,,gray,circle
91.0,2.0,2.0,0.0,1.0,1.0,310.8841910143383,4.0,1.0,part_1,,,,,,,,,,,,,orange,diamond
58.0,5.0,1.0,1.0,4.0,4.0,336.9940419797785,4.0,1.0,part_1,,,,,,,,,,,,,blue,I
376.0,8.0,4.0,1.0,2.0,2.0,319.7489250160288,4.0,1.0,part_1,,,,,,,,,,,,,cyan,triangle
223.0,7.0,3.0,1.0,3.0,3.0,298.6709079996217,4.0,1.0,part_1,,,,,,,,,,,,,white,cross
417.0,4.0,4.0,0.0,4.0,4.0,360.3792659996543,4.0,1.0,part_1,,,,,,,,,,,,,magenta,hexagon
26.0,1.0,1.0,0.0,1.0,1.0,302.4327229941264,4.0,1.0,part_1,,,,,,,,,,,,,green,square
96.0,6.0,2.0,1.0,2.0,2.0,346.3427849928848,4.0,1.0,part_1,,,,,,,,,,,,,gray,circle
26.0,5.0,1.0,1.0,3.0,3.0,295.2644409961067,4.0,1.0,part_1,,,,,,,,,,,,,blue,I
0.0,1.0,0.0,0.0,2.0,2.0,340.6162149913143,4.0,1.0,part_1,,,,,,,,,,,,,green,square
61.0,5.0,1.0,1.0,3.0,3.0,352.8260939929168,4.0,1.0,part_1,,,,,,,,,,,,,blue,I
108.0,6.0,2.0,1.0,3.0,3.0,333.391639025649,4.0,1.0,part_1,,,,,,,,,,,,,gray,circle
116.0,2.0,2.0,0.0,3.0,3.0,359.878668008605,4.0,1.0,part_1,,,,,,,,,,,,,orange,diamond
0.0,4.0,0.0,0.0,1.0,1.0,388.195673993323,4.0,1.0,part_1,,,,,,,,,,,,,magenta,hexagon
124.0,2.0,2.0,0.0,1.0,1.0,488.6009909969289,4.0,1.0,part_1,,,,,,,,,,,,,orange,diamond
65.0,1.0,1.0,0.0,3.0,3.0,320.2017089934088,4.0,1.0,part_1,,,,,,,,,,,,,green,square
217.0,3.0,3.0,0.0,3.0,3.0,306.8385520018637,4.0,1.0,part_1,,,,,,,,,,,,,yellow,flipped triangle
0.0,4.0,0.0,0.0,1.0,1.0,402.1467510028742,4.0,1.0,part_1,,,,,,,,,,,,,magenta,hexagon
66.0,5.0,1.0,1.0,1.0,1.0,335.2977879985701,4.0,1.0,part_1,,,,,,,,,,,,,blue,I
35.0,1.0,1.0,0.0,4.0,4.0,291.1451180116273,4.0,1.0,part_1,,,,,,,,,,,,,green,square
84.0,2.0,2.0,0.0,4.0,4.0,319.4308099918999,4.0,1.0,part_1,,,,,,,,,,,,,orange,diamond
0.0,3.0,0.0,0.0,2.0,2.0,321.1769560002722,4.0,1.0,part_1,,,,,,,,,,,,,yellow,flipped triangle
392.0,4.0,4.0,0.0,2.0,2.0,352.6790569885634,4.0,1.0,part_1,,,,,,,,,,,,,magenta,hexagon
198.0,7.0,3.0,1.0,2.0,2.0,315.74678100878367,4.0,1.0,part_1,,,,,,,,,,,,,white,cross
212.0,7.0,3.0,1.0,1.0,1.0,344.6125180053059,4.0,1.0,part_1,,,,,,,,,,,,,white,cross
68.0,5.0,1.0,1.0,4.0,4.0,552.4455799895804,4.0,1.0,part_1,,,,,,,,,,,,,blue,I
223.0,7.0,3.0,1.0,2.0,2.0,356.8422989919781,4.0,1.0,part_1,,,,,,,,,,,,,white,cross
0.0,3.0,0.0,0.0,3.0,3.0,320.4620350152254,4.0,1.0,part_1,,,,,,,,,,,,,yellow,flipped triangle
0.0,4.0,0.0,0.0,2.0,2.0,355.0680990156252,4.0,1.0,part_1,,,,,,,,,,,,,magenta,hexagon
72.0,1.0,1.0,0.0,3.0,3.0,359.3594789854251,4.0,1.0,part_1,,,,,,,,,,,,,green,square
0.0,6.0,0.0,1.0,3.0,3.0,391.0567879793234,4.0,1.0,part_1,,,,,,,,,,,,,gray,circle
399.0,8.0,4.0,1.0,3.0,3.0,330.5579650041181,4.0,1.0,part_1,,,,,,,,,,,,,cyan,triangle
95.0,2.0,2.0,0.0,3.0,3.0,301.8808460037689,4.0,1.0,part_1,,,,,,,,,,,,,orange,diamond
378.0,8.0,4.0,1.0,4.0,4.0,514.2796300060581,4.0,1.0,part_1,,,,,,,,,,,,,cyan,triangle
79.0,6.0,2.0,1.0,2.0,2.0,358.6733219854068,4.0,1.0,part_1,,,,,,,,,,,,,gray,circle
188.0,3.0,3.0,0.0,3.0,3.0,358.3801019995007,4.0,1.0,part_1,,,,,,,,,,,,,yellow,flipped triangle
425.0,4.0,4.0,0.0,2.0,2.0,305.7108040084131,4.0,1.0,part_1,,,,,,,,,,,,,magenta,hexagon
0.0,7.0,0.0,1.0,2.0,2.0,286.8370880023576,4.0,1.0,part_1,,,,,,,,,,,,,white,cross
201.0,3.0,3.0,0.0,1.0,1.0,323.8100400194525,4.0,1.0,part_1,,,,,,,,,,,,,yellow,flipped triangle
0.0,4.0,0.0,0.0,2.0,2.0,303.1614779902156,4.0,1.0,part_1,,,,,,,,,,,,,magenta,hexagon
178.0,3.0,3.0,0.0,2.0,2.0,298.0822259851265,4.0,1.0,part_1,,,,,,,,,,,,,yellow,flipped triangle
55.0,1.0,1.0,0.0,3.0,3.0,347.1369309991132,4.0,1.0,part_1,,,,,,,,,,,,,green,square
82.0,6.0,2.0,1.0,3.0,3.0,327.2097180015407,4.0,1.0,part_1,,,,,,,,,,,,,gray,circle
0.0,1.0,0.0,0.0,1.0,1.0,451.5403370023705,4.0,1.0,part_1,,,,,,,,,,,,,green,square
0.0,6.0,0.0,1.0,2.0,2.0,327.503742009867,4.0,1.0,part_1,,,,,,,,,,,,,gray,circle
385.0,4.0,4.0,0.0,4.0,4.0,339.3794060102664,4.0,1.0,part_1,,,,,,,,,,,,,magenta,hexagon
108.0,2.0,2.0,0.0,3.0,3.0,342.6876240118872,4.0,1.0,part_1,,,,,,,,,,,,,orange,diamond
50.0,5.0,1.0,1.0,4.0,4.0,396.5880520117935,4.0,1.0,part_1,,,,,,,,,,,,,blue,I
74.0,1.0,1.0,0.0,2.0,2.0,307.2356490010861,4.0,1.0,part_1,,,,,,,,,,,,,green,square
0.0,1.0,0.0,0.0,2.0,2.0,404.8687030153814,4.0,1.0,part_1,,,,,,,,,,,,,green,square
0.0,1.0,0.0,0.0,2.0,2.0,394.3315409997012,4.0,1.0,part_1,,,,,,,,,,,,,green,square
224.0,7.0,3.0,1.0,2.0,2.0,297.5379639829043,4.0,1.0,part_1,,,,,,,,,,,,,white,cross
409.0,4.0,4.0,0.0,3.0,3.0,330.9282279806211,4.0,1.0,part_1,,,,,,,,,,,,,magenta,hexagon
390.0,8.0,4.0,1.0,4.0,4.0,335.5079869797919,4.0,1.0,part_1,,,,,,,,,,,,,cyan,triangle
422.0,8.0,4.0,1.0,4.0,4.0,293.7278040044475,4.0,1.0,part_1,,,,,,,,,,,,,cyan,triangle
375.0,4.0,4.0,0.0,2.0,2.0,388.8215319893788,4.0,1.0,part_1,,,,,,,,,,,,,magenta,hexagon
397.0,4.0,4.0,0.0,1.0,1.0,343.7288310087751,4.0,1.0,part_1,,,,,,,,,,,,,magenta,hexagon
417.0,8.0,4.0,1.0,4.0,4.0,306.2340870092157,4.0,1.0,part_1,,,,,,,,,,,,,cyan,triangle
414.0,8.0,4.0,1.0,2.0,2.0,343.3470700110774,4.0,1.0,part_1,,,,,,,,,,,,,cyan,triangle
50.0,5.0,1.0,1.0,3.0,3.0,355.8987019932829,4.0,1.0,part_1,,,,,,,,,,,,,blue,I
223.0,3.0,3.0,0.0,2.0,2.0,330.7564060087316,4.0,1.0,part_1,,,,,,,,,,,,,yellow,flipped triangle
58.0,1.0,1.0,0.0,4.0,4.0,360.0790670025162,4.0,1.0,part_1,,,,,,,,,,,,,green,square
188.0,3.0,3.0,0.0,3.0,3.0,372.097704996122,4.0,1.0,part_1,,,,,,,,,,,,,yellow,flipped triangle
102.0,2.0,2.0,0.0,1.0,1.0,352.4445020011626,4.0,1.0,part_1,,,,,,,,,,,,,orange,diamond
405.0,8.0,4.0,1.0,2.0,2.0,347.3897360090632,4.0,1.0,part_1,,,,,,,,,,,,,cyan,triangle
74.0,1.0,1.0,0.0,4.0,4.0,290.1379110116977,4.0,1.0,part_1,,,,,,,,,,,,,green,square
32.0,5.0,1.0,1.0,2.0,2.0,382.1691149787511,4.0,1.0,part_1,,,,,,,,,,,,,blue,I
386.0,4.0,4.0,0.0,1.0,1.0,340.2028930140659,4.0,1.0,part_1,,,,,,,,,,,,,magenta,hexagon
376.0,4.0,4.0,0.0,2.0,2.0,344.0244420198723,4.0,1.0,part_1,,,,,,,,,,,,,magenta,hexagon
74.0,5.0,1.0,1.0,3.0,3.0,379.5051299966872,4.0,1.0,part_1,,,,,,,,,,,,,blue,I
124.0,6.0,2.0,1.0,2.0,2.0,503.03819100372493,4.0,1.0,part_1,,,,,,,,,,,,,gray,circle
178.0,3.0,3.0,0.0,1.0,1.0,614.8285279923584,4.0,1.0,part_1,,,,,,,,,,,,,yellow,flipped triangle
56.0,1.0,1.0,0.0,1.0,1.0,344.4126289978158,4.0,1.0,part_1,,,,,,,,,,,,,green,square
223.0,3.0,3.0,0.0,1.0,1.0,343.8878800079692,4.0,1.0,part_1,,,,,,,,,,,,,yellow,flipped triangle
0.0,2.0,2.0,0.0,5.0,5.0,350.778934021946,1.0,0.0,part_2,go,250.0,250.0,1.0,,,,,,,,,orange,diamond
0.0,2.0,2.0,0.0,6.0,6.0,468.7649289844557,1.0,0.0,part_2,go,250.0,250.0,1.0,,,,,,,,,orange,diamond
0.0,4.0,4.0,0.0,5.0,5.0,405.3465980105102,1.0,0.0,part_2,go,250.0,250.0,1.0,,,,,,,,,magenta,hexagon
0.0,5.0,1.0,1.0,6.0,6.0,510.4507580108475,1.0,0.0,part_2,stop,250.0,250.0,3.0,,,,,,,,,blue,I
0.0,4.0,4.0,0.0,6.0,6.0,552.5757719879039,1.0,0.0,part_2,go,250.0,200.0,1.0,,,,,,,,,magenta,hexagon
0.0,8.0,4.0,1.0,5.0,5.0,289.869608997833,1.0,0.0,part_2,stop,250.0,200.0,3.0,,,,,,,,,cyan,triangle
0.0,2.0,2.0,0.0,6.0,6.0,479.9407719983719,1.0,0.0,part_2,go,200.0,200.0,1.0,,,,,,,,,orange,diamond
0.0,6.0,2.0,1.0,6.0,0.0,0.0,1.0,0.0,part_2,stop,200.0,200.0,4.0,,,,,,,,,gray,circle
0.0,5.0,1.0,1.0,6.0,6.0,400.604394992115,1.0,0.0,part_2,stop,200.0,250.0,3.0,,,,,,,,,blue,I
0.0,8.0,4.0,1.0,6.0,6.0,472.2101009974722,1.0,0.0,part_2,go,200.0,200.0,1.0,,,,,,,,,cyan,triangle
0.0,5.0,1.0,1.0,5.0,5.0,680.0298939924687,1.0,0.0,part_2,go,200.0,200.0,1.0,,,,,,,,,blue,I
0.0,6.0,2.0,1.0,5.0,5.0,1061.2332840100862,1.0,0.0,part_2,go,200.0,200.0,1.0,,,,,,,,,gray,circle
0.0,6.0,2.0,1.0,5.0,0.0,0.0,1.0,0.0,part_2,stop,200.0,200.0,4.0,,,,,,,,,gray,circle
0.0,6.0,2.0,1.0,6.0,0.0,0.0,1.0,0.0,part_2,stop,250.0,200.0,4.0,,,,,,,,,gray,circle
0.0,3.0,3.0,0.0,6.0,6.0,493.2999490119982,1.0,0.0,part_2,go,250.0,250.0,1.0,,,,,,,,,yellow,flipped triangle
0.0,7.0,3.0,1.0,6.0,0.0,0.0,1.0,0.0,part_2,stop,250.0,250.0,4.0,,,,,,,,,white,cross
0.0,1.0,1.0,0.0,6.0,6.0,291.0514550167136,1.0,0.0,part_2,go,250.0,300.0,1.0,,,,,,,,,green,square
0.0,4.0,4.0,0.0,5.0,5.0,545.8871920127422,1.0,0.0,part_2,go,250.0,300.0,1.0,,,,,,,,,magenta,hexagon
0.0,2.0,2.0,0.0,5.0,5.0,714.6661370061338,1.0,0.0,part_2,go,250.0,300.0,1.0,,,,,,,,,orange,diamond
0.0,3.0,3.0,0.0,5.0,5.0,715.6683059874922,1.0,0.0,part_2,go,250.0,300.0,1.0,,,,,,,,,yellow,flipped triangle
0.0,2.0,2.0,0.0,6.0,6.0,592.8882349980995,1.0,0.0,part_2,go,250.0,300.0,1.0,,,,,,,,,orange,diamond
0.0,8.0,4.0,1.0,5.0,5.0,399.5428759953938,1.0,0.0,part_2,stop,250.0,300.0,3.0,,,,,,,,,cyan,triangle
0.0,3.0,3.0,0.0,6.0,6.0,463.676570012467,1.0,0.0,part_2,go,200.0,300.0,1.0,,,,,,,,,yellow,flipped triangle
0.0,7.0,3.0,1.0,5.0,0.0,0.0,1.0,0.0,part_2,stop,200.0,300.0,4.0,,,,,,,,,white,cross
0.0,7.0,3.0,1.0,6.0,6.0,622.1092049963772,1.0,0.0,part_2,go,250.0,300.0,1.0,,,,,,,,,white,cross
0.0,7.0,3.0,1.0,6.0,0.0,0.0,1.0,0.0,part_2,stop,250.0,300.0,4.0,,,,,,,,,white,cross
0.0,1.0,1.0,0.0,5.0,5.0,620.1805820164736,1.0,0.0,part_2,go,250.0,350.0,1.0,,,,,,,,,green,square
0.0,1.0,1.0,0.0,5.0,5.0,596.6102879901882,1.0,0.0,part_2,go,250.0,350.0,1.0,,,,,,,,,green,square
0.0,1.0,1.0,0.0,5.0,5.0,671.0154490137938,1.0,0.0,part_2,go,250.0,350.0,1.0,,,,,,,,,green,square
0.0,6.0,2.0,1.0,6.0,6.0,732.1168970083818,1.0,0.0,part_2,go,250.0,350.0,1.0,,,,,,,,,gray,circle
0.0,3.0,3.0,0.0,6.0,6.0,586.6673800046556,1.0,0.0,part_2,go,250.0,350.0,1.0,,,,,,,,,yellow,flipped triangle
0.0,3.0,3.0,0.0,6.0,6.0,618.6133880109992,1.0,0.0,part_2,go,250.0,350.0,1.0,,,,,,,,,yellow,flipped triangle
0.0,1.0,1.0,0.0,5.0,5.0,737.2191640024539,1.0,0.0,part_2,go,250.0,350.0,1.0,,,,,,,,,green,square
0.0,7.0,3.0,1.0,6.0,0.0,0.0,1.0,0.0,part_2,stop,250.0,350.0,4.0,,,,,,,,,white,cross
0.0,8.0,4.0,1.0,6.0,0.0,0.0,1.0,0.0,part_2,stop,250.0,400.0,4.0,,,,,,,,,cyan,triangle
0.0,6.0,2.0,1.0,5.0,0.0,0.0,1.0,0.0,part_2,stop,250.0,450.0,4.0,,,,,,,,,gray,circle
0.0,2.0,2.0,0.0,6.0,6.0,864.2270870041102,2.0,0.0,part_2,go,300.0,450.0,1.0,,,,,,,,,orange,diamond
0.0,5.0,1.0,1.0,5.0,0.0,0.0,2.0,0.0,part_2,stop,300.0,450.0,4.0,,,,,,,,,blue,I
0.0,7.0,3.0,1.0,5.0,5.0,624.6983289893251,2.0,0.0,part_2,go,350.0,450.0,1.0,,,,,,,,,white,cross
0.0,1.0,1.0,0.0,6.0,6.0,735.6032470124774,2.0,0.0,part_2,go,350.0,450.0,1.0,,,,,,,,,green,square
0.0,1.0,1.0,0.0,6.0,6.0,668.0689990171231,2.0,0.0,part_2,go,350.0,450.0,1.0,,,,,,,,,green,square
0.0,8.0,4.0,1.0,5.0,0.0,0.0,2.0,0.0,part_2,stop,350.0,450.0,4.0,,,,,,,,,cyan,triangle
0.0,4.0,4.0,0.0,6.0,6.0,639.0630550158676,2.0,0.0,part_2,go,400.0,450.0,1.0,,,,,,,,,magenta,hexagon
0.0,8.0,4.0,1.0,5.0,5.0,580.5382360122167,2.0,0.0,part_2,go,400.0,450.0,1.0,,,,,,,,,cyan,triangle
0.0,2.0,2.0,0.0,6.0,6.0,644.405580998864,2.0,0.0,part_2,go,400.0,450.0,1.0,,,,,,,,,orange,diamond
0.0,5.0,1.0,1.0,5.0,0.0,0.0,2.0,0.0,part_2,stop,400.0,450.0,4.0,,,,,,,,,blue,I
0.0,3.0,3.0,0.0,6.0,6.0,505.613469023956,2.0,0.0,part_2,go,450.0,450.0,1.0,,,,,,,,,yellow,flipped triangle
0.0,2.0,2.0,0.0,5.0,5.0,826.4350040117279,2.0,0.0,part_2,go,450.0,450.0,1.0,,,,,,,,,orange,diamond
0.0,7.0,3.0,1.0,5.0,0.0,0.0,2.0,0.0,part_2,stop,450.0,450.0,4.0,,,,,,,,,white,cross
0.0,4.0,4.0,0.0,6.0,6.0,634.2930129903834,2.0,0.0,part_2,go,500.0,450.0,1.0,,,,,,,,,magenta,hexagon
0.0,6.0,2.0,1.0,5.0,5.0,583.3964970079251,2.0,0.0,part_2,stop,500.0,450.0,3.0,,,,,,,,,gray,circle
0.0,7.0,3.0,1.0,5.0,0.0,0.0,2.0,0.0,part_2,stop,450.0,450.0,4.0,,,,,,,,,white,cross
0.0,1.0,1.0,0.0,5.0,5.0,693.2050879986491,2.0,0.0,part_2,go,500.0,450.0,1.0,,,,,,,,,green,square
0.0,1.0,1.0,0.0,6.0,6.0,680.1901900034864,2.0,0.0,part_2,go,500.0,450.0,1.0,,,,,,,,,green,square
0.0,7.0,3.0,1.0,5.0,5.0,668.4759350027889,2.0,0.0,part_2,go,500.0,450.0,1.0,,,,,,,,,white,cross
0.0,3.0,3.0,0.0,6.0,6.0,559.4594250142109,2.0,0.0,part_2,go,500.0,450.0,1.0,,,,,,,,,yellow,flipped triangle
0.0,3.0,3.0,0.0,6.0,6.0,751.1295969889034,2.0,0.0,part_2,go,500.0,450.0,1.0,,,,,,,,,yellow,flipped triangle
0.0,2.0,2.0,0.0,5.0,5.0,707.4607419781387,2.0,0.0,part_2,go,500.0,450.0,1.0,,,,,,,,,orange,diamond
0.0,6.0,2.0,1.0,5.0,0.0,0.0,2.0,0.0,part_2,stop,500.0,450.0,4.0,,,,,,,,,gray,circle
0.0,3.0,3.0,0.0,5.0,5.0,610.2319720084779,2.0,0.0,part_2,go,550.0,450.0,1.0,,,,,,,,,yellow,flipped triangle
0.0,2.0,2.0,0.0,5.0,5.0,657.6563010166865,2.0,0.0,part_2,go,550.0,450.0,1.0,,,,,,,,,orange,diamond
0.0,4.0,4.0,0.0,6.0,6.0,736.9031849957537,2.0,0.0,part_2,go,550.0,450.0,1.0,,,,,,,,,magenta,hexagon
0.0,2.0,2.0,0.0,5.0,5.0,706.9437769823708,2.0,0.0,part_2,go,550.0,450.0,1.0,,,,,,,,,orange,diamond
0.0,7.0,3.0,1.0,6.0,6.0,665.8643829869106,2.0,0.0,part_2,go,550.0,450.0,1.0,,,,,,,,,white,cross
0.0,1.0,1.0,0.0,5.0,5.0,686.5488949988503,2.0,0.0,part_2,go,550.0,450.0,1.0,,,,,,,,,green,square
0.0,3.0,3.0,0.0,6.0,6.0,741.9287159864325,2.0,0.0,part_2,go,550.0,450.0,1.0,,,,,,,,,yellow,flipped triangle
0.0,5.0,1.0,1.0,6.0,0.0,0.0,2.0,0.0,part_2,stop,550.0,450.0,4.0,,,,,,,,,blue,I
0.0,6.0,2.0,1.0,5.0,0.0,0.0,2.0,0.0,part_2,stop,550.0,500.0,4.0,,,,,,,,,gray,circle
0.0,6.0,2.0,1.0,5.0,0.0,0.0,2.0,0.0,part_2,stop,600.0,500.0,4.0,,,,,,,,,gray,circle
0.0,7.0,3.0,1.0,6.0,6.0,759.4113679951988,2.0,0.0,part_2,go,650.0,500.0,1.0,,,,,,,,,white,cross
0.0,1.0,1.0,0.0,6.0,6.0,701.4929030265193,2.0,0.0,part_2,go,650.0,500.0,1.0,,,,,,,,,green,square
0.0,7.0,3.0,1.0,6.0,0.0,0.0,2.0,0.0,part_2,stop,650.0,500.0,4.0,,,,,,,,,white,cross
0.0,2.0,2.0,0.0,5.0,5.0,470.9561580093577,3.0,0.0,part_2,go,650.0,550.0,1.0,,,,,,,,,orange,diamond
0.0,6.0,2.0,1.0,5.0,5.0,534.797371015884,3.0,0.0,part_2,go,650.0,550.0,1.0,,,,,,,,,gray,circle
0.0,5.0,1.0,1.0,6.0,6.0,568.2746300008148,3.0,0.0,part_2,stop,650.0,550.0,3.0,,,,,,,,,blue,I
0.0,5.0,1.0,1.0,5.0,5.0,637.4382179928944,3.0,0.0,part_2,stop,650.0,500.0,3.0,,,,,,,,,blue,I
0.0,3.0,3.0,0.0,6.0,6.0,557.0013209944591,3.0,0.0,part_2,go,600.0,500.0,1.0,,,,,,,,,yellow,flipped triangle
0.0,8.0,4.0,1.0,6.0,6.0,634.9632230121642,3.0,0.0,part_2,go,600.0,500.0,1.0,,,,,,,,,cyan,triangle
0.0,6.0,2.0,1.0,6.0,6.0,644.2501849960536,3.0,0.0,part_2,go,600.0,500.0,1.0,,,,,,,,,gray,circle
0.0,5.0,1.0,1.0,6.0,0.0,0.0,3.0,0.0,part_2,stop,600.0,500.0,4.0,,,,,,,,,blue,I
0.0,5.0,1.0,1.0,5.0,5.0,626.2060690205544,3.0,0.0,part_2,stop,600.0,550.0,3.0,,,,,,,,,blue,I
0.0,4.0,4.0,0.0,6.0,6.0,694.8805319843814,3.0,0.0,part_2,go,550.0,550.0,1.0,,,,,,,,,magenta,hexagon
0.0,3.0,3.0,0.0,5.0,5.0,361.6143169929273,3.0,0.0,part_2,go,550.0,550.0,1.0,,,,,,,,,yellow,flipped triangle
0.0,8.0,4.0,1.0,6.0,6.0,633.136688004015,3.0,0.0,part_2,stop,550.0,550.0,3.0,,,,,,,,,cyan,triangle
0.0,3.0,3.0,0.0,6.0,6.0,727.2752389835659,3.0,0.0,part_2,go,550.0,500.0,1.0,,,,,,,,,yellow,flipped triangle
0.0,6.0,2.0,1.0,6.0,0.0,0.0,3.0,0.0,part_2,stop,550.0,500.0,4.0,,,,,,,,,gray,circle
0.0,8.0,4.0,1.0,5.0,0.0,0.0,3.0,0.0,part_2,stop,550.0,550.0,4.0,,,,,,,,,cyan,triangle
0.0,6.0,2.0,1.0,5.0,5.0,700.031994987512,3.0,0.0,part_2,stop,600.0,550.0,3.0,,,,,,,,,gray,circle
0.0,1.0,1.0,0.0,6.0,6.0,846.879960008664,3.0,0.0,part_2,go,550.0,550.0,1.0,,,,,,,,,green,square
0.0,5.0,1.0,1.0,6.0,0.0,0.0,3.0,0.0,part_2,stop,550.0,550.0,4.0,,,,,,,,,blue,I
0.0,3.0,3.0,0.0,5.0,5.0,821.7257760115899,3.0,0.0,part_2,go,550.0,600.0,1.0,,,,,,,,,yellow,flipped triangle
0.0,4.0,4.0,0.0,6.0,6.0,995.1778530084994,3.0,0.0,part_2,go,550.0,600.0,1.0,,,,,,,,,magenta,hexagon
0.0,4.0,4.0,0.0,5.0,5.0,1010.8589089941231,3.0,0.0,part_2,go,550.0,600.0,1.0,,,,,,,,,magenta,hexagon
0.0,2.0,2.0,0.0,5.0,5.0,955.4335470020304,3.0,0.0,part_2,go,550.0,600.0,1.0,,,,,,,,,orange,diamond
0.0,3.0,3.0,0.0,6.0,6.0,946.2975100032054,3.0,0.0,part_2,go,550.0,600.0,1.0,,,,,,,,,yellow,flipped triangle
0.0,6.0,2.0,1.0,6.0,0.0,0.0,3.0,0.0,part_2,stop,550.0,600.0,4.0,,,,,,,,,gray,circle
0.0,2.0,2.0,0.0,6.0,6.0,706.9087229901925,3.0,0.0,part_2,go,550.0,650.0,1.0,,,,,,,,,orange,diamond
0.0,8.0,4.0,1.0,6.0,6.0,742.3472939990461,3.0,0.0,part_2,stop,550.0,650.0,3.0,,,,,,,,,cyan,triangle
0.0,1.0,1.0,0.0,6.0,6.0,832.7260469959583,3.0,0.0,part_2,go,550.0,600.0,1.0,,,,,,,,,green,square
0.0,5.0,1.0,1.0,5.0,5.0,709.8325970000587,3.0,0.0,part_2,go,550.0,600.0,1.0,,,,,,,,,blue,I
0.0,8.0,4.0,1.0,6.0,6.0,575.389431003714,3.0,0.0,part_2,go,550.0,600.0,1.0,,,,,,,,,cyan,triangle
0.0,7.0,3.0,1.0,5.0,0.0,0.0,3.0,0.0,part_2,stop,550.0,600.0,4.0,,,,,,,,,white,cross
0.0,4.0,4.0,0.0,5.0,5.0,735.15291698277,3.0,0.0,part_2,go,600.0,600.0,1.0,,,,,,,,,magenta,hexagon
0.0,2.0,2.0,0.0,6.0,6.0,691.2066910008434,3.0,0.0,part_2,go,600.0,600.0,1.0,,,,,,,,,orange,diamond
0.0,3.0,3.0,0.0,5.0,5.0,654.0584189933725,3.0,0.0,part_2,go,600.0,600.0,1.0,,,,,,,,,yellow,flipped triangle
0.0,6.0,2.0,1.0,6.0,6.0,644.0468679938931,3.0,0.0,part_2,stop,600.0,600.0,3.0,,,,,,,,,gray,circle
0.0,6.0,2.0,1.0,6.0,0.0,0.0,3.0,0.0,part_2,stop,600.0,550.0,4.0,,,,,,,,,gray,circle
0.0,3.0,3.0,0.0,5.0,5.0,753.5927399876527,3.0,0.0,part_2,go,600.0,600.0,1.0,,,,,,,,,yellow,flipped triangle
0.0,1.0,1.0,0.0,5.0,5.0,599.5699420163874,4.0,0.0,part_2,go,600.0,600.0,1.0,,,,,,,,,green,square
0.0,2.0,2.0,0.0,5.0,5.0,294.8572019813582,4.0,0.0,part_2,go,600.0,600.0,1.0,,,,,,,,,orange,diamond
0.0,5.0,1.0,1.0,6.0,6.0,476.5777759894263,4.0,0.0,part_2,stop,600.0,600.0,3.0,,,,,,,,,blue,I
0.0,3.0,3.0,0.0,5.0,5.0,294.0192270034458,4.0,0.0,part_2,go,600.0,550.0,1.0,,,,,,,,,yellow,flipped triangle
0.0,1.0,1.0,0.0,5.0,5.0,454.817609017482,4.0,0.0,part_2,go,600.0,550.0,1.0,,,,,,,,,green,square
0.0,5.0,1.0,1.0,5.0,5.0,323.3121340163052,4.0,0.0,part_2,stop,600.0,550.0,3.0,,,,,,,,,blue,I
0.0,8.0,4.0,1.0,5.0,5.0,341.3056340068578,4.0,0.0,part_2,stop,550.0,550.0,3.0,,,,,,,,,cyan,triangle
0.0,8.0,4.0,1.0,5.0,5.0,284.544944006484,4.0,0.0,part_2,stop,500.0,550.0,3.0,,,,,,,,,cyan,triangle
0.0,2.0,2.0,0.0,5.0,5.0,280.9389519970864,4.0,0.0,part_2,go,450.0,550.0,1.0,,,,,,,,,orange,diamond
0.0,3.0,3.0,0.0,5.0,5.0,332.2942369850352,4.0,0.0,part_2,go,450.0,550.0,1.0,,,,,,,,,yellow,flipped triangle
0.0,7.0,3.0,1.0,6.0,6.0,575.651837978512,4.0,0.0,part_2,stop,450.0,550.0,3.0,,,,,,,,,white,cross
0.0,7.0,3.0,1.0,6.0,6.0,559.3228919897228,4.0,0.0,part_2,stop,450.0,500.0,3.0,,,,,,,,,white,cross
0.0,1.0,1.0,0.0,5.0,5.0,470.6363619770854,4.0,0.0,part_2,go,450.0,450.0,1.0,,,,,,,,,green,square
0.0,4.0,4.0,0.0,5.0,5.0,472.9147590114735,4.0,0.0,part_2,go,450.0,450.0,1.0,,,,,,,,,magenta,hexagon
0.0,5.0,1.0,1.0,5.0,5.0,605.6547079933807,4.0,0.0,part_2,stop,450.0,450.0,3.0,,,,,,,,,blue,I
0.0,7.0,3.0,1.0,6.0,0.0,0.0,4.0,0.0,part_2,stop,400.0,450.0,4.0,,,,,,,,,white,cross
0.0,6.0,2.0,1.0,5.0,5.0,590.5074309848715,4.0,0.0,part_2,go,400.0,500.0,1.0,,,,,,,,,gray,circle
0.0,4.0,4.0,0.0,5.0,5.0,567.5354449776933,4.0,0.0,part_2,go,400.0,500.0,1.0,,,,,,,,,magenta,hexagon
0.0,2.0,2.0,0.0,5.0,5.0,1051.6399659973104,4.0,0.0,part_2,go,400.0,500.0,1.0,,,,,,,,,orange,diamond
0.0,4.0,4.0,0.0,5.0,5.0,739.4352510164026,4.0,0.0,part_2,go,400.0,500.0,1.0,,,,,,,,,magenta,hexagon
0.0,3.0,3.0,0.0,5.0,5.0,754.5612559770234,4.0,0.0,part_2,go,400.0,500.0,1.0,,,,,,,,,yellow,flipped triangle
0.0,7.0,3.0,1.0,6.0,0.0,0.0,4.0,0.0,part_2,stop,400.0,500.0,4.0,,,,,,,,,white,cross
0.0,1.0,1.0,0.0,5.0,5.0,748.2175689947326,4.0,0.0,part_2,go,400.0,550.0,1.0,,,,,,,,,green,square
0.0,8.0,4.0,1.0,6.0,6.0,596.1230880056974,4.0,0.0,part_2,stop,400.0,550.0,3.0,,,,,,,,,cyan,triangle
0.0,5.0,1.0,1.0,5.0,5.0,706.7686160153244,4.0,0.0,part_2,go,400.0,500.0,1.0,,,,,,,,,blue,I
0.0,8.0,4.0,1.0,6.0,6.0,622.9524899972603,4.0,0.0,part_2,stop,400.0,500.0,3.0,,,,,,,,,cyan,triangle
0.0,8.0,4.0,1.0,6.0,0.0,0.0,4.0,0.0,part_2,stop,400.0,450.0,4.0,,,,,,,,,cyan,triangle
0.0,1.0,1.0,0.0,6.0,6.0,759.5925829955377,4.0,0.0,part_2,go,400.0,500.0,1.0,,,,,,,,,green,square
0.0,6.0,2.0,1.0,6.0,0.0,0.0,4.0,0.0,part_2,stop,400.0,500.0,4.0,,,,,,,,,gray,circle
0.0,4.0,4.0,0.0,5.0,5.0,566.2678859953303,4.0,0.0,part_2,go,400.0,550.0,1.0,,,,,,,,,magenta,hexagon
0.0,5.0,1.0,1.0,5.0,0.0,0.0,4.0,0.0,part_2,stop,400.0,550.0,4.0,,,,,,,,,blue,I
0.0,2.0,2.0,0.0,6.0,6.0,500.93097699573264,4.0,0.0,part_2,go,450.0,550.0,1.0,,,,,,,,,orange,diamond
0.0,2.0,2.0,0.0,5.0,5.0,342.7796869946178,4.0,0.0,part_2,go,450.0,550.0,1.0,,,,,,,,,orange,diamond
0.0,5.0,1.0,1.0,5.0,0.0,0.0,4.0,0.0,part_2,stop,450.0,550.0,4.0,,,,,,,,,blue,I
0.0,5.0,1.0,1.0,5.0,5.0,684.3550940102432,4.0,0.0,part_2,go,500.0,550.0,1.0,,,,,,,,,blue,I
0.0,1.0,1.0,0.0,5.0,5.0,585.511516983388,4.0,0.0,part_2,go,500.0,550.0,1.0,,,,,,,,,green,square
0.0,6.0,2.0,1.0,6.0,6.0,955.2248310064896,5.0,0.0,part_2,stop,500.0,550.0,3.0,,,,,,,,,gray,circle
0.0,8.0,4.0,1.0,5.0,5.0,540.0827190023847,5.0,0.0,part_2,stop,500.0,500.0,3.0,,,,,,,,,cyan,triangle
0.0,6.0,2.0,1.0,6.0,0.0,0.0,5.0,0.0,part_2,stop,450.0,500.0,4.0,,,,,,,,,gray,circle
0.0,8.0,4.0,1.0,5.0,5.0,552.5406549859326,5.0,0.0,part_2,go,450.0,550.0,1.0,,,,,,,,,cyan,triangle
0.0,1.0,1.0,0.0,6.0,6.0,647.5731860264204,5.0,0.0,part_2,go,450.0,550.0,1.0,,,,,,,,,green,square
0.0,7.0,3.0,1.0,6.0,6.0,574.425953993341,5.0,0.0,part_2,stop,450.0,550.0,3.0,,,,,,,,,white,cross
0.0,7.0,3.0,1.0,5.0,5.0,529.3062590062618,5.0,0.0,part_2,stop,450.0,500.0,3.0,,,,,,,,,white,cross
0.0,6.0,2.0,1.0,6.0,6.0,592.7154280070681,5.0,0.0,part_2,stop,400.0,500.0,3.0,,,,,,,,,gray,circle
0.0,3.0,3.0,0.0,5.0,5.0,529.5534329779912,5.0,0.0,part_2,go,400.0,450.0,1.0,,,,,,,,,yellow,flipped triangle
0.0,6.0,2.0,1.0,5.0,0.0,0.0,5.0,0.0,part_2,stop,400.0,450.0,4.0,,,,,,,,,gray,circle
0.0,8.0,4.0,1.0,6.0,6.0,492.7254510112107,5.0,0.0,part_2,stop,450.0,450.0,3.0,,,,,,,,,cyan,triangle
0.0,8.0,4.0,1.0,6.0,6.0,766.45952500985,5.0,0.0,part_2,go,450.0,400.0,1.0,,,,,,,,,cyan,triangle
0.0,7.0,3.0,1.0,6.0,0.0,0.0,5.0,0.0,part_2,stop,450.0,400.0,4.0,,,,,,,,,white,cross
0.0,1.0,1.0,0.0,6.0,6.0,802.6447570009623,5.0,0.0,part_2,go,450.0,450.0,1.0,,,,,,,,,green,square
0.0,4.0,4.0,0.0,5.0,5.0,821.3505890162196,5.0,0.0,part_2,go,450.0,450.0,1.0,,,,,,,,,magenta,hexagon
0.0,2.0,2.0,0.0,5.0,5.0,633.9524039940443,5.0,0.0,part_2,go,450.0,450.0,1.0,,,,,,,,,orange,diamond
0.0,2.0,2.0,0.0,6.0,6.0,713.0114210012835,5.0,0.0,part_2,go,450.0,450.0,1.0,,,,,,,,,orange,diamond
0.0,8.0,4.0,1.0,6.0,6.0,704.9097040144261,5.0,0.0,part_2,go,450.0,450.0,1.0,,,,,,,,,cyan,triangle
0.0,2.0,2.0,0.0,5.0,5.0,811.7882719961926,5.0,0.0,part_2,go,450.0,450.0,1.0,,,,,,,,,orange,diamond
0.0,2.0,2.0,0.0,5.0,5.0,671.8101639999077,5.0,0.0,part_2,go,450.0,450.0,1.0,,,,,,,,,orange,diamond
0.0,1.0,1.0,0.0,5.0,5.0,330.7790360122453,5.0,0.0,part_2,go,450.0,450.0,1.0,,,,,,,,,green,square
0.0,4.0,4.0,0.0,6.0,6.0,583.0934359983075,5.0,0.0,part_2,go,450.0,450.0,1.0,,,,,,,,,magenta,hexagon
0.0,6.0,2.0,1.0,5.0,5.0,360.4653969814535,5.0,0.0,part_2,stop,450.0,450.0,3.0,,,,,,,,,gray,circle
0.0,8.0,4.0,1.0,6.0,6.0,293.2442390010692,5.0,0.0,part_2,go,400.0,450.0,1.0,,,,,,,,,cyan,triangle
0.0,3.0,3.0,0.0,6.0,6.0,606.7404000204988,5.0,0.0,part_2,go,400.0,450.0,1.0,,,,,,,,,yellow,flipped triangle
0.0,8.0,4.0,1.0,5.0,0.0,0.0,5.0,0.0,part_2,stop,400.0,450.0,4.0,,,,,,,,,cyan,triangle
0.0,3.0,3.0,0.0,5.0,5.0,726.0690889961552,5.0,0.0,part_2,go,450.0,450.0,1.0,,,,,,,,,yellow,flipped triangle
0.0,5.0,1.0,1.0,5.0,5.0,381.349086004775,5.0,0.0,part_2,stop,450.0,450.0,3.0,,,,,,,,,blue,I
0.0,5.0,1.0,1.0,5.0,0.0,0.0,5.0,0.0,part_2,stop,400.0,450.0,4.0,,,,,,,,,blue,I
0.0,4.0,4.0,0.0,5.0,5.0,565.6690510222688,5.0,0.0,part_2,go,450.0,450.0,1.0,,,,,,,,,magenta,hexagon
0.0,4.0,4.0,0.0,6.0,6.0,541.4789670030586,5.0,0.0,part_2,go,450.0,450.0,1.0,,,,,,,,,magenta,hexagon
0.0,4.0,4.0,0.0,5.0,5.0,521.0225030023139,5.0,0.0,part_2,go,450.0,450.0,1.0,,,,,,,,,magenta,hexagon
0.0,6.0,2.0,1.0,5.0,0.0,0.0,5.0,0.0,part_2,stop,450.0,450.0,4.0,,,,,,,,,gray,circle
0.0,4.0,4.0,0.0,6.0,6.0,707.6589249772951,5.0,0.0,part_2,go,500.0,450.0,1.0,,,,,,,,,magenta,hexagon
0.0,7.0,3.0,1.0,5.0,5.0,409.4223940046504,5.0,0.0,part_2,stop,500.0,450.0,3.0,,,,,,,,,white,cross
0.0,6.0,2.0,1.0,6.0,6.0,688.6705490178429,5.0,0.0,part_2,go,450.0,450.0,1.0,,,,,,,,,gray,circle
0.0,5.0,1.0,1.0,6.0,6.0,607.3863060155418,6.0,0.0,part_2,go,450.0,450.0,1.0,,,,,,,,,blue,I
0.0,7.0,3.0,1.0,5.0,5.0,430.6419159984216,6.0,0.0,part_2,stop,450.0,450.0,3.0,,,,,,,,,white,cross
0.0,4.0,4.0,0.0,6.0,6.0,326.9643039966468,6.0,0.0,part_2,go,400.0,450.0,1.0,,,,,,,,,magenta,hexagon
0.0,8.0,4.0,1.0,5.0,0.0,0.0,6.0,0.0,part_2,stop,400.0,450.0,4.0,,,,,,,,,cyan,triangle
0.0,5.0,1.0,1.0,6.0,0.0,0.0,6.0,0.0,part_2,stop,450.0,450.0,4.0,,,,,,,,,blue,I
0.0,7.0,3.0,1.0,5.0,5.0,636.9436749955639,6.0,0.0,part_2,go,450.0,500.0,1.0,,,,,,,,,white,cross
0.0,8.0,4.0,1.0,5.0,5.0,570.1113349932712,6.0,0.0,part_2,stop,450.0,500.0,3.0,,,,,,,,,cyan,triangle
0.0,7.0,3.0,1.0,5.0,0.0,0.0,6.0,0.0,part_2,stop,400.0,500.0,4.0,,,,,,,,,white,cross
0.0,6.0,2.0,1.0,6.0,6.0,388.1861850095447,6.0,0.0,part_2,stop,450.0,500.0,3.0,,,,,,,,,gray,circle
0.0,3.0,3.0,0.0,5.0,5.0,675.5732310120948,6.0,0.0,part_2,go,450.0,450.0,1.0,,,,,,,,,yellow,flipped triangle
0.0,2.0,2.0,0.0,6.0,6.0,762.1184480085503,6.0,0.0,part_2,go,450.0,450.0,1.0,,,,,,,,,orange,diamond
0.0,7.0,3.0,1.0,6.0,0.0,0.0,6.0,0.0,part_2,stop,450.0,450.0,4.0,,,,,,,,,white,cross
0.0,5.0,1.0,1.0,5.0,0.0,0.0,6.0,0.0,part_2,stop,450.0,500.0,4.0,,,,,,,,,blue,I
0.0,3.0,3.0,0.0,5.0,5.0,575.3150829987135,6.0,0.0,part_2,go,500.0,500.0,1.0,,,,,,,,,yellow,flipped triangle
0.0,6.0,2.0,1.0,5.0,5.0,662.1195089828689,6.0,0.0,part_2,go,500.0,500.0,1.0,,,,,,,,,gray,circle
0.0,7.0,3.0,1.0,5.0,0.0,0.0,6.0,0.0,part_2,stop,500.0,500.0,4.0,,,,,,,,,white,cross
0.0,6.0,2.0,1.0,6.0,6.0,404.870660015149,6.0,0.0,part_2,stop,550.0,500.0,3.0,,,,,,,,,gray,circle
0.0,7.0,3.0,1.0,5.0,5.0,436.637350008823,6.0,0.0,part_2,stop,550.0,450.0,3.0,,,,,,,,,white,cross
0.0,3.0,3.0,0.0,6.0,6.0,318.4147540014237,6.0,0.0,part_2,go,500.0,450.0,1.0,,,,,,,,,yellow,flipped triangle
0.0,7.0,3.0,1.0,5.0,5.0,406.0672120249364,6.0,0.0,part_2,stop,500.0,450.0,3.0,,,,,,,,,white,cross
0.0,3.0,3.0,0.0,5.0,5.0,642.8104510123376,6.0,0.0,part_2,go,450.0,450.0,1.0,,,,,,,,,yellow,flipped triangle
0.0,2.0,2.0,0.0,5.0,5.0,396.4934429968707,6.0,0.0,part_2,go,450.0,450.0,1.0,,,,,,,,,orange,diamond
0.0,3.0,3.0,0.0,5.0,5.0,589.3139829859138,6.0,0.0,part_2,go,450.0,450.0,1.0,,,,,,,,,yellow,flipped triangle
0.0,4.0,4.0,0.0,5.0,5.0,457.1448530186899,6.0,0.0,part_2,go,450.0,450.0,1.0,,,,,,,,,magenta,hexagon
0.0,6.0,2.0,1.0,5.0,0.0,0.0,6.0,0.0,part_2,stop,450.0,450.0,4.0,,,,,,,,,gray,circle
0.0,3.0,3.0,0.0,6.0,6.0,623.7869939941447,6.0,0.0,part_2,go,500.0,450.0,1.0,,,,,,,,,yellow,flipped triangle
0.0,8.0,4.0,1.0,6.0,0.0,0.0,6.0,0.0,part_2,stop,500.0,450.0,4.0,,,,,,,,,cyan,triangle
0.0,4.0,4.0,0.0,6.0,6.0,672.7865720167756,6.0,0.0,part_2,go,500.0,500.0,1.0,,,,,,,,,magenta,hexagon
0.0,7.0,3.0,1.0,6.0,6.0,669.7754289780278,6.0,0.0,part_2,go,500.0,500.0,1.0,,,,,,,,,white,cross
0.0,6.0,2.0,1.0,6.0,6.0,638.9753230032511,6.0,0.0,part_2,go,500.0,500.0,1.0,,,,,,,,,gray,circle
0.0,2.0,2.0,0.0,6.0,6.0,792.4232390068937,6.0,0.0,part_2,go,500.0,500.0,1.0,,,,,,,,,orange,diamond
0.0,1.0,1.0,0.0,6.0,6.0,527.0971760037355,6.0,0.0,part_2,go,500.0,500.0,1.0,,,,,,,,,green,square
0.0,7.0,3.0,1.0,5.0,0.0,0.0,6.0,0.0,part_2,stop,500.0,500.0,4.0,,,,,,,,,white,cross
0.0,5.0,1.0,1.0,5.0,0.0,0.0,6.0,0.0,part_2,stop,550.0,500.0,4.0,,,,,,,,,blue,I
0.0,1.0,1.0,0.0,6.0,6.0,562.6656100212131,6.0,0.0,part_2,go,600.0,500.0,1.0,,,,,,,,,green,square
0.0,7.0,3.0,1.0,6.0,6.0,435.8439999923575,6.0,0.0,part_2,go,600.0,500.0,1.0,,,,,,,,,white,cross
0.0,4.0,4.0,0.0,5.0,5.0,643.7330000044312,7.0,0.0,part_2,go,600.0,500.0,1.0,,,,,,,,,magenta,hexagon
0.0,1.0,1.0,0.0,5.0,5.0,394.8372110025957,7.0,0.0,part_2,go,600.0,500.0,1.0,,,,,,,,,green,square
0.0,2.0,2.0,0.0,6.0,6.0,455.4813629947603,7.0,0.0,part_2,go,600.0,500.0,1.0,,,,,,,,,orange,diamond
0.0,4.0,4.0,0.0,6.0,6.0,658.7098210002296,7.0,0.0,part_2,go,600.0,500.0,1.0,,,,,,,,,magenta,hexagon
0.0,5.0,1.0,1.0,6.0,6.0,438.5008510143962,7.0,0.0,part_2,stop,600.0,500.0,3.0,,,,,,,,,blue,I
0.0,5.0,1.0,1.0,6.0,0.0,0.0,7.0,0.0,part_2,stop,600.0,450.0,4.0,,,,,,,,,blue,I
0.0,3.0,3.0,0.0,6.0,6.0,598.8635949906893,7.0,0.0,part_2,go,600.0,500.0,1.0,,,,,,,,,yellow,flipped triangle
0.0,1.0,1.0,0.0,6.0,6.0,725.1571640081238,7.0,0.0,part_2,go,600.0,500.0,1.0,,,,,,,,,green,square
0.0,7.0,3.0,1.0,5.0,5.0,718.669363996014,7.0,0.0,part_2,stop,600.0,500.0,3.0,,,,,,,,,white,cross
0.0,5.0,1.0,1.0,6.0,0.0,0.0,7.0,0.0,part_2,stop,550.0,500.0,4.0,,,,,,,,,blue,I
0.0,2.0,2.0,0.0,6.0,6.0,762.8022329881787,7.0,0.0,part_2,go,550.0,550.0,1.0,,,,,,,,,orange,diamond
0.0,6.0,2.0,1.0,6.0,6.0,532.939158991212,7.0,0.0,part_2,stop,550.0,550.0,3.0,,,,,,,,,gray,circle
0.0,2.0,2.0,0.0,6.0,6.0,618.0520330090076,7.0,0.0,part_2,go,550.0,500.0,1.0,,,,,,,,,orange,diamond
0.0,3.0,3.0,0.0,5.0,5.0,402.0030400133692,7.0,0.0,part_2,go,550.0,500.0,1.0,,,,,,,,,yellow,flipped triangle
0.0,1.0,1.0,0.0,5.0,5.0,700.338180991821,7.0,0.0,part_2,go,550.0,500.0,1.0,,,,,,,,,green,square
0.0,1.0,1.0,0.0,5.0,5.0,467.3466059903148,7.0,0.0,part_2,go,550.0,500.0,1.0,,,,,,,,,green,square
0.0,7.0,3.0,1.0,5.0,5.0,528.1139860162511,7.0,0.0,part_2,stop,550.0,500.0,3.0,,,,,,,,,white,cross
0.0,8.0,4.0,1.0,5.0,0.0,0.0,7.0,0.0,part_2,stop,500.0,500.0,4.0,,,,,,,,,cyan,triangle
0.0,6.0,2.0,1.0,5.0,5.0,631.3309360120911,7.0,0.0,part_2,stop,550.0,500.0,3.0,,,,,,,,,gray,circle
0.0,4.0,4.0,0.0,6.0,6.0,649.9549959844444,7.0,0.0,part_2,go,500.0,500.0,1.0,,,,,,,,,magenta,hexagon
0.0,8.0,4.0,1.0,6.0,0.0,0.0,7.0,0.0,part_2,stop,500.0,500.0,4.0,,,,,,,,,cyan,triangle
0.0,6.0,2.0,1.0,5.0,5.0,630.6474560115021,7.0,0.0,part_2,stop,500.0,550.0,3.0,,,,,,,,,gray,circle
0.0,6.0,2.0,1.0,6.0,6.0,639.3369869911112,7.0,0.0,part_2,go,450.0,550.0,1.0,,,,,,,,,gray,circle
0.0,4.0,4.0,0.0,6.0,6.0,830.697617988335,7.0,0.0,part_2,go,450.0,550.0,1.0,,,,,,,,,magenta,hexagon
0.0,3.0,3.0,0.0,6.0,6.0,819.837182003539,7.0,0.0,part_2,go,450.0,550.0,1.0,,,,,,,,,yellow,flipped triangle
0.0,8.0,4.0,1.0,5.0,5.0,739.1593400097918,7.0,0.0,part_2,go,450.0,550.0,1.0,,,,,,,,,cyan,triangle
0.0,8.0,4.0,1.0,6.0,6.0,706.7369680153206,7.0,0.0,part_2,stop,450.0,550.0,3.0,,,,,,,,,cyan,triangle
0.0,2.0,2.0,0.0,6.0,6.0,979.9036030017304,7.0,0.0,part_2,go,450.0,500.0,1.0,,,,,,,,,orange,diamond
0.0,2.0,2.0,0.0,6.0,6.0,755.8488799841143,7.0,0.0,part_2,go,450.0,500.0,1.0,,,,,,,,,orange,diamond
0.0,7.0,3.0,1.0,6.0,6.0,779.5264479937032,7.0,0.0,part_2,go,450.0,500.0,1.0,,,,,,,,,white,cross
0.0,2.0,2.0,0.0,5.0,5.0,586.6695670119952,7.0,0.0,part_2,go,450.0,500.0,1.0,,,,,,,,,orange,diamond
0.0,4.0,4.0,0.0,5.0,5.0,762.1988170139957,7.0,0.0,part_2,go,450.0,500.0,1.0,,,,,,,,,magenta,hexagon
0.0,1.0,1.0,0.0,5.0,5.0,745.8856099983677,7.0,0.0,part_2,go,450.0,500.0,1.0,,,,,,,,,green,square
0.0,4.0,4.0,0.0,5.0,5.0,598.2882310054265,7.0,0.0,part_2,go,450.0,500.0,1.0,,,,,,,,,magenta,hexagon
0.0,4.0,4.0,0.0,6.0,6.0,789.2292400065344,7.0,0.0,part_2,go,450.0,500.0,1.0,,,,,,,,,magenta,hexagon
0.0,8.0,4.0,1.0,5.0,0.0,0.0,7.0,0.0,part_2,stop,450.0,500.0,4.0,,,,,,,,,cyan,triangle
0.0,5.0,1.0,1.0,6.0,6.0,482.8437910182401,8.0,0.0,part_2,go,500.0,500.0,1.0,,,,,,,,,blue,I
0.0,2.0,2.0,0.0,6.0,6.0,314.5599720010068,8.0,0.0,part_2,go,500.0,500.0,1.0,,,,,,,,,orange,diamond
0.0,8.0,4.0,1.0,6.0,6.0,471.1933360085822,8.0,0.0,part_2,stop,500.0,500.0,3.0,,,,,,,,,cyan,triangle
0.0,2.0,2.0,0.0,5.0,5.0,273.7332580145448,8.0,0.0,part_2,go,500.0,450.0,1.0,,,,,,,,,orange,diamond
0.0,5.0,1.0,1.0,6.0,6.0,238.904340978479,8.0,0.0,part_2,go,500.0,450.0,1.0,,,,,,,,,blue,I
0.0,1.0,1.0,0.0,6.0,6.0,589.1908390040044,8.0,0.0,part_2,go,500.0,450.0,1.0,,,,,,,,,green,square
0.0,8.0,4.0,1.0,5.0,5.0,487.9371459828689,8.0,0.0,part_2,stop,500.0,450.0,3.0,,,,,,,,,cyan,triangle
0.0,4.0,4.0,0.0,6.0,6.0,340.7100110198371,8.0,0.0,part_2,go,450.0,450.0,1.0,,,,,,,,,magenta,hexagon
0.0,3.0,3.0,0.0,5.0,5.0,710.1442689890973,8.0,0.0,part_2,go,450.0,450.0,1.0,,,,,,,,,yellow,flipped triangle
0.0,4.0,4.0,0.0,5.0,5.0,707.6327370014042,8.0,0.0,part_2,go,450.0,450.0,1.0,,,,,,,,,magenta,hexagon
0.0,1.0,1.0,0.0,5.0,5.0,763.9789859822486,8.0,0.0,part_2,go,450.0,450.0,1.0,,,,,,,,,green,square
0.0,1.0,1.0,0.0,5.0,5.0,701.6108380048536,8.0,0.0,part_2,go,450.0,450.0,1.0,,,,,,,,,green,square
0.0,5.0,1.0,1.0,6.0,6.0,401.2019269866869,8.0,0.0,part_2,stop,450.0,450.0,3.0,,,,,,,,,blue,I
0.0,3.0,3.0,0.0,6.0,6.0,360.7704850146547,8.0,0.0,part_2,go,450.0,400.0,1.0,,,,,,,,,yellow,flipped triangle
0.0,1.0,1.0,0.0,6.0,6.0,396.3291890104301,8.0,0.0,part_2,go,450.0,400.0,1.0,,,,,,,,,green,square
0.0,2.0,2.0,0.0,6.0,6.0,801.4522769954056,8.0,0.0,part_2,go,450.0,400.0,1.0,,,,,,,,,orange,diamond
0.0,5.0,1.0,1.0,6.0,6.0,417.0998079935089,8.0,0.0,part_2,go,450.0,400.0,1.0,,,,,,,,,blue,I
0.0,8.0,4.0,1.0,5.0,5.0,561.3971830171067,8.0,0.0,part_2,stop,450.0,400.0,3.0,,,,,,,,,cyan,triangle
0.0,4.0,4.0,0.0,6.0,6.0,666.4677179942373,8.0,0.0,part_2,go,400.0,400.0,1.0,,,,,,,,,magenta,hexagon
0.0,5.0,1.0,1.0,5.0,5.0,510.03976599895395,8.0,0.0,part_2,go,400.0,400.0,1.0,,,,,,,,,blue,I
0.0,1.0,1.0,0.0,6.0,6.0,648.0903500050772,8.0,0.0,part_2,go,400.0,400.0,1.0,,,,,,,,,green,square
0.0,4.0,4.0,0.0,6.0,6.0,829.8940420208964,8.0,0.0,part_2,go,400.0,400.0,1.0,,,,,,,,,magenta,hexagon
0.0,5.0,1.0,1.0,5.0,0.0,0.0,8.0,0.0,part_2,stop,400.0,400.0,4.0,,,,,,,,,blue,I
0.0,6.0,2.0,1.0,5.0,0.0,0.0,8.0,0.0,part_2,stop,450.0,400.0,4.0,,,,,,,,,gray,circle
0.0,4.0,4.0,0.0,5.0,5.0,639.0015939832665,8.0,0.0,part_2,go,500.0,400.0,1.0,,,,,,,,,magenta,hexagon
0.0,4.0,4.0,0.0,5.0,5.0,642.4966129998211,8.0,0.0,part_2,go,500.0,400.0,1.0,,,,,,,,,magenta,hexagon
0.0,1.0,1.0,0.0,6.0,6.0,581.7418390070088,8.0,0.0,part_2,go,500.0,400.0,1.0,,,,,,,,,green,square
0.0,7.0,3.0,1.0,6.0,0.0,0.0,8.0,0.0,part_2,stop,500.0,400.0,4.0,,,,,,,,,white,cross
0.0,5.0,1.0,1.0,6.0,6.0,572.1738699940033,8.0,0.0,part_2,stop,500.0,450.0,3.0,,,,,,,,,blue,I
0.0,3.0,3.0,0.0,5.0,5.0,336.46414798568,8.0,0.0,part_2,go,500.0,400.0,1.0,,,,,,,,,yellow,flipped triangle
0.0,7.0,3.0,1.0,5.0,0.0,0.0,8.0,0.0,part_2,stop,500.0,400.0,4.0,,,,,,,,,white,cross
0.0,3.0,3.0,0.0,6.0,6.0,378.35799698950717,8.0,0.0,part_2,go,550.0,400.0,1.0,,,,,,,,,yellow,flipped triangle
0.0,5.0,1.0,1.0,6.0,6.0,455.1625999738462,8.0,0.0,part_2,stop,550.0,400.0,3.0,,,,,,,,,blue,I
0.0,8.0,4.0,1.0,5.0,5.0,549.6541399916168,8.0,0.0,part_2,stop,550.0,350.0,3.0,,,,,,,,,cyan,triangle
0.0,1.0,1.0,0.0,6.0,6.0,677.4717399966903,8.0,0.0,part_2,go,500.0,350.0,1.0,,,,,,,,,green,square
0.0,8.0,4.0,1.0,6.0,0.0,0.0,8.0,0.0,part_2,stop,500.0,350.0,4.0,,,,,,,,,cyan,triangle
0.0,3.0,3.0,0.0,7.0,3.0,4133.086262998404,1.0,1.0,part_3,go,0.0,0.0,0.0,245.0,5.0,49.0,196.0,245.0,147.0,294.0,98.0,yellow,flipped triangle
0.0,7.0,3.0,1.0,7.0,4.0,2261.5847020060755,1.0,1.0,part_3,go,0.0,0.0,0.0,234.0,6.0,39.0,78.0,156.0,234.0,195.0,117.0,white,cross
0.0,6.0,2.0,1.0,7.0,2.0,1805.054789001588,1.0,2.0,part_3,go,0.0,0.0,0.0,220.0,5.0,176.0,220.0,44.0,88.0,132.0,264.0,gray,circle
0.0,1.0,1.0,0.0,7.0,3.0,1978.5810449975545,1.0,1.0,part_3,go,0.0,0.0,0.0,216.0,4.0,162.0,270.0,216.0,324.0,54.0,108.0,green,square
0.0,7.0,3.0,1.0,7.0,4.0,1914.444269001251,1.0,1.0,part_3,go,0.0,0.0,0.0,294.0,6.0,196.0,147.0,98.0,294.0,49.0,245.0,white,cross
0.0,5.0,1.0,1.0,7.0,1.0,2505.365684017306,1.0,1.0,part_3,go,0.0,0.0,0.0,196.0,4.0,196.0,245.0,98.0,294.0,49.0,147.0,blue,I
0.0,4.0,4.0,0.0,7.0,3.0,1365.6172220071312,1.0,1.0,part_3,go,0.0,0.0,0.0,98.0,2.0,245.0,147.0,98.0,196.0,49.0,294.0,magenta,hexagon
0.0,4.0,4.0,0.0,7.0,2.0,1028.2344540173654,1.0,1.0,part_3,go,0.0,0.0,0.0,204.0,6.0,68.0,204.0,34.0,170.0,102.0,136.0,magenta,hexagon
0.0,5.0,1.0,1.0,7.0,4.0,365.737560990965,1.0,1.0,part_3,go,0.0,0.0,0.0,136.0,4.0,34.0,170.0,68.0,136.0,102.0,204.0,blue,I
0.0,8.0,4.0,1.0,7.0,5.0,592.1294539875817,1.0,1.0,part_3,go,0.0,0.0,0.0,216.0,4.0,162.0,270.0,108.0,54.0,216.0,324.0,cyan,triangle
0.0,7.0,3.0,1.0,7.0,3.0,516.1479969974607,1.0,1.0,part_3,go,0.0,0.0,0.0,270.0,5.0,54.0,108.0,270.0,162.0,324.0,216.0,white,cross
0.0,3.0,3.0,0.0,7.0,2.0,329.4555250031408,1.0,1.0,part_3,go,0.0,0.0,0.0,54.0,1.0,108.0,54.0,324.0,216.0,270.0,162.0,yellow,flipped triangle
0.0,4.0,4.0,0.0,7.0,5.0,1323.2360380061436,1.0,1.0,part_3,go,0.0,0.0,0.0,264.0,6.0,220.0,132.0,88.0,44.0,264.0,176.0,magenta,hexagon
0.0,7.0,3.0,1.0,7.0,4.0,527.7542859839741,1.0,1.0,part_3,go,0.0,0.0,0.0,68.0,2.0,102.0,136.0,34.0,68.0,204.0,170.0,white,cross
0.0,4.0,4.0,0.0,7.0,3.0,975.7766709954012,1.0,1.0,part_3,go,0.0,0.0,0.0,68.0,2.0,204.0,102.0,68.0,34.0,136.0,170.0,magenta,hexagon
0.0,4.0,4.0,0.0,7.0,2.0,1233.7567499780562,1.0,1.0,part_3,go,0.0,0.0,0.0,44.0,1.0,176.0,44.0,220.0,88.0,264.0,132.0,magenta,hexagon
0.0,8.0,4.0,1.0,7.0,3.0,1033.1448439974338,1.0,1.0,part_3,go,0.0,0.0,0.0,176.0,4.0,88.0,220.0,176.0,44.0,264.0,132.0,cyan,triangle
0.0,1.0,1.0,0.0,7.0,1.0,1205.6005600024946,1.0,1.0,part_3,go,0.0,0.0,0.0,196.0,4.0,196.0,49.0,147.0,245.0,294.0,98.0,green,square
0.0,6.0,2.0,1.0,7.0,4.0,1206.2791919743177,1.0,1.0,part_3,go,0.0,0.0,0.0,54.0,1.0,162.0,108.0,270.0,54.0,324.0,216.0,gray,circle
0.0,8.0,4.0,1.0,7.0,5.0,1292.5519650161732,1.0,1.0,part_3,go,0.0,0.0,0.0,102.0,3.0,68.0,136.0,170.0,34.0,102.0,204.0,cyan,triangle
0.0,6.0,2.0,1.0,7.0,1.0,1545.1931029965635,2.0,1.0,part_3,go,0.0,0.0,0.0,234.0,6.0,234.0,39.0,195.0,78.0,156.0,117.0,gray,circle
0.0,6.0,2.0,1.0,7.0,2.0,941.6149440221488,2.0,1.0,part_3,go,0.0,0.0,0.0,170.0,5.0,204.0,170.0,136.0,102.0,34.0,68.0,gray,circle
0.0,7.0,3.0,1.0,7.0,5.0,540.6221990124322,2.0,1.0,part_3,go,0.0,0.0,0.0,34.0,1.0,102.0,136.0,68.0,170.0,34.0,204.0,white,cross
0.0,1.0,1.0,0.0,7.0,3.0,1556.638768000994,2.0,1.0,part_3,go,0.0,0.0,0.0,44.0,1.0,220.0,132.0,44.0,176.0,264.0,88.0,green,square
0.0,1.0,1.0,0.0,7.0,3.0,1465.9554100071546,2.0,1.0,part_3,go,0.0,0.0,0.0,245.0,5.0,294.0,147.0,245.0,49.0,98.0,196.0,green,square
0.0,5.0,1.0,1.0,7.0,6.0,3231.6290809831116,2.0,1.0,part_3,go,0.0,0.0,0.0,195.0,5.0,117.0,78.0,156.0,234.0,39.0,195.0,blue,I
0.0,8.0,4.0,1.0,7.0,4.0,1578.6127149767708,2.0,1.0,part_3,go,0.0,0.0,0.0,39.0,1.0,195.0,78.0,234.0,39.0,156.0,117.0,cyan,triangle
0.0,6.0,2.0,1.0,7.0,2.0,1795.2821219805628,2.0,1.0,part_3,go,0.0,0.0,0.0,156.0,4.0,195.0,156.0,39.0,234.0,78.0,117.0,gray,circle
0.0,6.0,2.0,1.0,7.0,1.0,1863.282620994141,2.0,1.0,part_3,go,0.0,0.0,0.0,98.0,2.0,98.0,196.0,49.0,245.0,294.0,147.0,gray,circle
0.0,6.0,2.0,1.0,7.0,5.0,1432.0767050085124,2.0,1.0,part_3,go,0.0,0.0,0.0,162.0,3.0,54.0,270.0,324.0,216.0,162.0,108.0,gray,circle
0.0,1.0,1.0,0.0,7.0,3.0,1422.609649016522,2.0,1.0,part_3,go,0.0,0.0,0.0,78.0,2.0,117.0,39.0,78.0,195.0,234.0,156.0,green,square
0.0,6.0,2.0,1.0,7.0,4.0,625.5429059965536,2.0,1.0,part_3,go,0.0,0.0,0.0,49.0,1.0,196.0,294.0,147.0,49.0,245.0,98.0,gray,circle
0.0,3.0,3.0,0.0,7.0,3.0,1211.9594019895883,2.0,1.0,part_3,go,0.0,0.0,0.0,68.0,2.0,170.0,34.0,68.0,204.0,136.0,102.0,yellow,flipped triangle
0.0,7.0,3.0,1.0,7.0,2.0,1742.6413059874903,2.0,1.0,part_3,go,0.0,0.0,0.0,294.0,6.0,245.0,294.0,98.0,196.0,147.0,49.0,white,cross
0.0,5.0,1.0,1.0,7.0,3.0,1607.576190988766,2.0,1.0,part_3,go,0.0,0.0,0.0,270.0,5.0,324.0,162.0,270.0,54.0,108.0,216.0,blue,I
0.0,3.0,3.0,0.0,7.0,4.0,1247.9890100075863,2.0,1.0,part_3,go,0.0,0.0,0.0,39.0,1.0,195.0,156.0,234.0,39.0,117.0,78.0,yellow,flipped triangle
0.0,2.0,2.0,0.0,7.0,4.0,1822.7965980186127,2.0,1.0,part_3,go,0.0,0.0,0.0,294.0,6.0,245.0,147.0,196.0,294.0,49.0,98.0,orange,diamond
0.0,3.0,3.0,0.0,7.0,2.0,1330.0906800141092,2.0,1.0,part_3,go,0.0,0.0,0.0,88.0,2.0,176.0,88.0,132.0,220.0,264.0,44.0,yellow,flipped triangle
0.0,3.0,3.0,0.0,7.0,5.0,1978.5526299965568,2.0,1.0,part_3,go,0.0,0.0,0.0,176.0,4.0,264.0,220.0,88.0,44.0,176.0,132.0,yellow,flipped triangle
0.0,3.0,3.0,0.0,7.0,5.0,1261.0890209907666,2.0,1.0,part_3,go,0.0,0.0,0.0,136.0,4.0,204.0,34.0,68.0,170.0,136.0,102.0,yellow,flipped triangle
0.0,2.0,2.0,0.0,7.0,3.0,1581.8494690174705,3.0,1.0,part_3,go,0.0,0.0,0.0,78.0,2.0,234.0,39.0,78.0,195.0,156.0,117.0,orange,diamond
0.0,2.0,2.0,0.0,7.0,6.0,2063.4559839963913,3.0,1.0,part_3,go,0.0,0.0,0.0,176.0,4.0,220.0,264.0,44.0,132.0,88.0,176.0,orange,diamond
0.0,8.0,4.0,1.0,7.0,2.0,2072.5918269890826,3.0,1.0,part_3,go,0.0,0.0,0.0,78.0,2.0,39.0,78.0,117.0,156.0,195.0,234.0,cyan,triangle
0.0,1.0,1.0,0.0,7.0,5.0,627.2631390020251,3.0,1.0,part_3,go,0.0,0.0,0.0,156.0,4.0,117.0,195.0,39.0,78.0,156.0,234.0,green,square
0.0,2.0,2.0,0.0,7.0,4.0,1232.3744879977312,3.0,1.0,part_3,go,0.0,0.0,0.0,147.0,3.0,294.0,49.0,245.0,147.0,98.0,196.0,orange,diamond
0.0,3.0,3.0,0.0,7.0,4.0,1646.07781599625,3.0,1.0,part_3,go,0.0,0.0,0.0,216.0,4.0,324.0,162.0,270.0,216.0,108.0,54.0,yellow,flipped triangle
0.0,6.0,2.0,1.0,7.0,4.0,1115.181109984405,3.0,1.0,part_3,go,0.0,0.0,0.0,132.0,3.0,220.0,88.0,176.0,132.0,264.0,44.0,gray,circle
0.0,5.0,1.0,1.0,7.0,2.0,1165.508973004762,3.0,1.0,part_3,go,0.0,0.0,0.0,156.0,4.0,234.0,156.0,39.0,117.0,78.0,195.0,blue,I
0.0,2.0,2.0,0.0,7.0,2.0,1046.8913380173035,3.0,1.0,part_3,go,0.0,0.0,0.0,162.0,3.0,216.0,162.0,270.0,108.0,324.0,54.0,orange,diamond
0.0,5.0,1.0,1.0,7.0,3.0,2208.220370986965,3.0,1.0,part_3,go,0.0,0.0,0.0,108.0,2.0,54.0,324.0,108.0,216.0,270.0,162.0,blue,I
0.0,1.0,1.0,0.0,7.0,5.0,1667.3240439849906,3.0,1.0,part_3,go,0.0,0.0,0.0,136.0,4.0,68.0,204.0,34.0,102.0,136.0,170.0,green,square
0.0,7.0,3.0,1.0,7.0,2.0,1387.082595989341,3.0,1.0,part_3,go,0.0,0.0,0.0,132.0,3.0,44.0,132.0,176.0,220.0,88.0,264.0,white,cross
0.0,8.0,4.0,1.0,7.0,4.0,1435.4966930113733,3.0,1.0,part_3,go,0.0,0.0,0.0,147.0,3.0,294.0,196.0,49.0,147.0,98.0,245.0,cyan,triangle
0.0,5.0,1.0,1.0,7.0,3.0,1453.722033998929,3.0,1.0,part_3,go,0.0,0.0,0.0,147.0,3.0,49.0,98.0,147.0,245.0,294.0,196.0,blue,I
0.0,2.0,2.0,0.0,7.0,4.0,1688.5115670156663,3.0,1.0,part_3,go,0.0,0.0,0.0,264.0,6.0,176.0,220.0,44.0,264.0,132.0,88.0,orange,diamond
0.0,2.0,2.0,0.0,7.0,5.0,2736.9403549819253,3.0,1.0,part_3,go,0.0,0.0,0.0,117.0,3.0,39.0,78.0,195.0,234.0,117.0,156.0,orange,diamond
0.0,8.0,4.0,1.0,7.0,4.0,2505.4304380028043,3.0,1.0,part_3,go,0.0,0.0,0.0,44.0,1.0,176.0,88.0,132.0,44.0,220.0,264.0,cyan,triangle
0.0,3.0,3.0,0.0,7.0,1.0,2267.3770140099805,3.0,1.0,part_3,go,0.0,0.0,0.0,196.0,4.0,196.0,245.0,49.0,147.0,294.0,98.0,yellow,flipped triangle
0.0,5.0,1.0,1.0,7.0,6.0,2892.4988200014923,3.0,1.0,part_3,go,0.0,0.0,0.0,176.0,4.0,88.0,264.0,220.0,44.0,132.0,176.0,blue,I
0.0,4.0,4.0,0.0,7.0,2.0,2454.332652006997,3.0,1.0,part_3,go,0.0,0.0,0.0,216.0,4.0,108.0,216.0,270.0,324.0,162.0,54.0,magenta,hexagon
0.0,3.0,3.0,0.0,7.0,5.0,1849.610069009941,4.0,1.0,part_3,go,0.0,0.0,0.0,117.0,3.0,78.0,195.0,234.0,39.0,117.0,156.0,yellow,flipped triangle
0.0,1.0,1.0,0.0,7.0,1.0,2512.530152016552,4.0,1.0,part_3,go,0.0,0.0,0.0,176.0,4.0,176.0,44.0,132.0,220.0,88.0,264.0,green,square
0.0,2.0,2.0,0.0,7.0,3.0,2436.007456999505,4.0,1.0,part_3,go,0.0,0.0,0.0,108.0,2.0,270.0,162.0,108.0,54.0,216.0,324.0,orange,diamond
0.0,4.0,4.0,0.0,7.0,3.0,1058.8423250010237,4.0,1.0,part_3,go,0.0,0.0,0.0,108.0,2.0,216.0,54.0,108.0,162.0,324.0,270.0,magenta,hexagon
0.0,1.0,1.0,0.0,7.0,3.0,1902.717779012164,4.0,1.0,part_3,go,0.0,0.0,0.0,108.0,2.0,270.0,216.0,108.0,324.0,162.0,54.0,green,square
0.0,4.0,4.0,0.0,7.0,5.0,1752.4719260109125,4.0,1.0,part_3,go,0.0,0.0,0.0,117.0,3.0,195.0,78.0,156.0,234.0,117.0,39.0,magenta,hexagon
0.0,8.0,4.0,1.0,7.0,3.0,1726.754759991309,4.0,1.0,part_3,go,0.0,0.0,0.0,196.0,4.0,49.0,245.0,196.0,98.0,294.0,147.0,cyan,triangle
0.0,7.0,3.0,1.0,7.0,2.0,1784.2818740173243,4.0,1.0,part_3,go,0.0,0.0,0.0,162.0,3.0,270.0,162.0,54.0,324.0,216.0,108.0,white,cross
0.0,2.0,2.0,0.0,7.0,5.0,1053.2044569845311,4.0,1.0,part_3,go,0.0,0.0,0.0,136.0,4.0,170.0,204.0,34.0,102.0,136.0,68.0,orange,diamond
0.0,8.0,4.0,1.0,7.0,5.0,3030.390178988455,4.0,1.0,part_3,go,0.0,0.0,0.0,162.0,3.0,216.0,324.0,270.0,54.0,162.0,108.0,cyan,triangle
0.0,6.0,2.0,1.0,7.0,2.0,1134.713624982396,4.0,1.0,part_3,go,0.0,0.0,0.0,170.0,5.0,102.0,170.0,136.0,68.0,204.0,34.0,gray,circle
0.0,8.0,4.0,1.0,7.0,6.0,1879.1866149986165,4.0,1.0,part_3,go,0.0,0.0,0.0,68.0,2.0,102.0,136.0,170.0,204.0,34.0,68.0,cyan,triangle
0.0,7.0,3.0,1.0,7.0,1.0,2167.575419007335,4.0,1.0,part_3,go,0.0,0.0,0.0,156.0,4.0,156.0,78.0,234.0,39.0,195.0,117.0,white,cross
0.0,5.0,1.0,1.0,7.0,4.0,1242.5451510061976,4.0,1.0,part_3,go,0.0,0.0,0.0,176.0,4.0,132.0,44.0,220.0,176.0,264.0,88.0,blue,I
0.0,4.0,4.0,0.0,7.0,5.0,1977.9707590059843,4.0,1.0,part_3,go,0.0,0.0,0.0,39.0,1.0,117.0,234.0,156.0,195.0,39.0,78.0,magenta,hexagon
0.0,4.0,4.0,0.0,7.0,4.0,2703.069985989714,4.0,1.0,part_3,go,0.0,0.0,0.0,294.0,6.0,49.0,245.0,98.0,294.0,147.0,196.0,magenta,hexagon
0.0,1.0,1.0,0.0,7.0,6.0,1181.1524469812866,4.0,1.0,part_3,go,0.0,0.0,0.0,34.0,1.0,136.0,68.0,102.0,170.0,204.0,34.0,green,square
0.0,7.0,3.0,1.0,7.0,4.0,1431.540755002061,4.0,1.0,part_3,go,0.0,0.0,0.0,220.0,5.0,44.0,176.0,264.0,220.0,88.0,132.0,white,cross
0.0,5.0,1.0,1.0,7.0,2.0,1074.3172189977486,4.0,1.0,part_3,go,0.0,0.0,0.0,136.0,4.0,170.0,136.0,102.0,204.0,34.0,68.0,blue,I
0.0,2.0,2.0,0.0,7.0,3.0,1368.4463179961313,4.0,1.0,part_3,go,0.0,0.0,0.0,170.0,5.0,68.0,34.0,170.0,204.0,102.0,136.0,orange,diamond
