raw_reward_magnitude,stim_reward,stepwise_reward_magnitude,paired_with_stopping,stim_location,response,reaction_time,block,num_trial_presentations,which_phase,stop_signal_trial_type,left_SSD,right_SSD,accuracy,chosen_bidding_amount,chosen_bidding_level,possible_bid_1,possible_bid_2,possible_bid_3,possible_bid_4,possible_bid_5,possible_bid_6,color_text,shape_text
62.0,1.0,1.0,0.0,4.0,4.0,318.997769994894,1.0,1.0,phase_1,,,,,,,,,,,,,orange,circle
0.0,6.0,0.0,1.0,3.0,3.0,297.7470540208742,1.0,1.0,phase_1,,,,,,,,,,,,,yellow,diamond
49.0,1.0,1.0,0.0,3.0,3.0,270.2781120024156,1.0,1.0,phase_1,,,,,,,,,,,,,orange,circle
0.0,2.0,0.0,0.0,3.0,3.0,314.7158280189615,1.0,1.0,phase_1,,,,,,,,,,,,,blue,hexagon
102.0,6.0,2.0,1.0,4.0,4.0,256.7630179983098,1.0,1.0,phase_1,,,,,,,,,,,,,yellow,diamond
0.0,6.0,0.0,1.0,3.0,3.0,243.6562400253024,1.0,1.0,phase_1,,,,,,,,,,,,,yellow,diamond
403.0,4.0,4.0,0.0,1.0,1.0,347.3611320077907,1.0,1.0,phase_1,,,,,,,,,,,,,magenta,square
202.0,3.0,3.0,0.0,2.0,2.0,436.5462879941333,1.0,1.0,phase_1,,,,,,,,,,,,,gray,flipped triangle
0.0,6.0,0.0,1.0,3.0,3.0,275.3292269771918,1.0,1.0,phase_1,,,,,,,,,,,,,yellow,diamond
183.0,7.0,3.0,1.0,4.0,4.0,261.998992995359,1.0,1.0,phase_1,,,,,,,,,,,,,white,cross
114.0,2.0,2.0,0.0,1.0,1.0,269.91226800601,1.0,1.0,phase_1,,,,,,,,,,,,,blue,hexagon
73.0,5.0,1.0,1.0,3.0,3.0,242.1244500146713,1.0,1.0,phase_1,,,,,,,,,,,,,green,triangle
409.0,8.0,4.0,1.0,1.0,1.0,310.7154610042926,1.0,1.0,phase_1,,,,,,,,,,,,,cyan,I
0.0,1.0,0.0,0.0,3.0,3.0,284.0344849973917,1.0,1.0,phase_1,,,,,,,,,,,,,orange,circle
77.0,2.0,2.0,0.0,2.0,2.0,271.5985440008808,1.0,1.0,phase_1,,,,,,,,,,,,,blue,hexagon
0.0,4.0,0.0,0.0,2.0,2.0,275.1364479772746,1.0,1.0,phase_1,,,,,,,,,,,,,magenta,square
376.0,8.0,4.0,1.0,4.0,4.0,266.95572800235817,1.0,1.0,phase_1,,,,,,,,,,,,,cyan,I
217.0,7.0,3.0,1.0,2.0,2.0,284.5348010014277,1.0,1.0,phase_1,,,,,,,,,,,,,white,cross
44.0,1.0,1.0,0.0,1.0,1.0,296.1778010067064,1.0,1.0,phase_1,,,,,,,,,,,,,orange,circle
0.0,4.0,0.0,0.0,4.0,4.0,296.9278169912286,1.0,1.0,phase_1,,,,,,,,,,,,,magenta,square
123.0,6.0,2.0,1.0,2.0,2.0,275.6729339889716,1.0,1.0,phase_1,,,,,,,,,,,,,yellow,diamond
0.0,6.0,0.0,1.0,4.0,4.0,257.4318369734101,1.0,1.0,phase_1,,,,,,,,,,,,,yellow,diamond
393.0,8.0,4.0,1.0,1.0,1.0,284.3179499905091,1.0,1.0,phase_1,,,,,,,,,,,,,cyan,I
85.0,2.0,2.0,0.0,2.0,2.0,283.5901179932989,1.0,1.0,phase_1,,,,,,,,,,,,,blue,hexagon
111.0,6.0,2.0,1.0,2.0,2.0,299.8729760001879,1.0,1.0,phase_1,,,,,,,,,,,,,yellow,diamond
184.0,7.0,3.0,1.0,4.0,4.0,332.2274910169653,1.0,1.0,phase_1,,,,,,,,,,,,,white,cross
74.0,5.0,1.0,1.0,1.0,1.0,240.9787040087394,1.0,1.0,phase_1,,,,,,,,,,,,,green,triangle
384.0,4.0,4.0,0.0,2.0,2.0,284.2409680015407,1.0,1.0,phase_1,,,,,,,,,,,,,magenta,square
384.0,4.0,4.0,0.0,2.0,2.0,289.5455750112887,1.0,1.0,phase_1,,,,,,,,,,,,,magenta,square
413.0,8.0,4.0,1.0,2.0,2.0,341.7881870118435,1.0,1.0,phase_1,,,,,,,,,,,,,cyan,I
77.0,6.0,2.0,1.0,1.0,1.0,265.2389939757995,1.0,1.0,phase_1,,,,,,,,,,,,,yellow,diamond
114.0,2.0,2.0,0.0,1.0,1.0,253.38683600421058,1.0,1.0,phase_1,,,,,,,,,,,,,blue,hexagon
46.0,5.0,1.0,1.0,2.0,2.0,273.8699670007918,1.0,1.0,phase_1,,,,,,,,,,,,,green,triangle
98.0,6.0,2.0,1.0,3.0,3.0,273.3784310112241,1.0,1.0,phase_1,,,,,,,,,,,,,yellow,diamond
0.0,4.0,0.0,0.0,4.0,4.0,269.254668004578,1.0,1.0,phase_1,,,,,,,,,,,,,magenta,square
0.0,5.0,0.0,1.0,1.0,1.0,233.2251570187509,1.0,1.0,phase_1,,,,,,,,,,,,,green,triangle
114.0,6.0,2.0,1.0,2.0,2.0,252.83855400630267,1.0,1.0,phase_1,,,,,,,,,,,,,yellow,diamond
0.0,7.0,0.0,1.0,2.0,2.0,269.0171769936569,1.0,1.0,phase_1,,,,,,,,,,,,,white,cross
0.0,5.0,0.0,1.0,1.0,1.0,305.9682279999833,1.0,1.0,phase_1,,,,,,,,,,,,,green,triangle
42.0,5.0,1.0,1.0,2.0,2.0,253.74421800370328,1.0,1.0,phase_1,,,,,,,,,,,,,green,triangle
0.0,8.0,0.0,1.0,2.0,2.0,290.6815159949474,1.0,1.0,phase_1,,,,,,,,,,,,,cyan,I
384.0,8.0,4.0,1.0,2.0,2.0,244.5758680114522,1.0,1.0,phase_1,,,,,,,,,,,,,cyan,I
0.0,6.0,0.0,1.0,4.0,4.0,331.1091499926988,1.0,1.0,phase_1,,,,,,,,,,,,,yellow,diamond
45.0,5.0,1.0,1.0,2.0,2.0,366.6034899943042,1.0,1.0,phase_1,,,,,,,,,,,,,green,triangle
217.0,7.0,3.0,1.0,2.0,2.0,294.0990990027785,1.0,1.0,phase_1,,,,,,,,,,,,,white,cross
399.0,4.0,4.0,0.0,4.0,4.0,273.7453159934375,1.0,1.0,phase_1,,,,,,,,,,,,,magenta,square
46.0,1.0,1.0,0.0,3.0,3.0,364.1147570160683,1.0,1.0,phase_1,,,,,,,,,,,,,orange,circle
77.0,2.0,2.0,0.0,2.0,2.0,330.67642498645,1.0,1.0,phase_1,,,,,,,,,,,,,blue,hexagon
221.0,3.0,3.0,0.0,1.0,1.0,335.5175179895013,1.0,1.0,phase_1,,,,,,,,,,,,,gray,flipped triangle
49.0,5.0,1.0,1.0,3.0,3.0,290.1391620107461,1.0,1.0,phase_1,,,,,,,,,,,,,green,triangle
0.0,7.0,0.0,1.0,4.0,4.0,279.2632180207874,1.0,1.0,phase_1,,,,,,,,,,,,,white,cross
81.0,6.0,2.0,1.0,3.0,3.0,283.3939100091811,1.0,1.0,phase_1,,,,,,,,,,,,,yellow,diamond
202.0,7.0,3.0,1.0,3.0,3.0,287.8843829967081,1.0,1.0,phase_1,,,,,,,,,,,,,white,cross
46.0,5.0,1.0,1.0,2.0,2.0,286.4822779956739,1.0,1.0,phase_1,,,,,,,,,,,,,green,triangle
181.0,3.0,3.0,0.0,3.0,3.0,292.287849006243,1.0,1.0,phase_1,,,,,,,,,,,,,gray,flipped triangle
0.0,3.0,0.0,0.0,2.0,2.0,264.1547959938179,1.0,1.0,phase_1,,,,,,,,,,,,,gray,flipped triangle
387.0,4.0,4.0,0.0,3.0,3.0,246.31899598171,1.0,1.0,phase_1,,,,,,,,,,,,,magenta,square
387.0,8.0,4.0,1.0,2.0,2.0,352.0176309975795,1.0,1.0,phase_1,,,,,,,,,,,,,cyan,I
86.0,6.0,2.0,1.0,3.0,3.0,270.3838700253982,1.0,1.0,phase_1,,,,,,,,,,,,,yellow,diamond
0.0,4.0,0.0,0.0,3.0,3.0,275.0330469862092,1.0,1.0,phase_1,,,,,,,,,,,,,magenta,square
106.0,2.0,2.0,0.0,4.0,4.0,287.9939609847497,1.0,1.0,phase_1,,,,,,,,,,,,,blue,hexagon
41.0,1.0,1.0,0.0,4.0,4.0,286.1788299924228,1.0,1.0,phase_1,,,,,,,,,,,,,orange,circle
42.0,1.0,1.0,0.0,1.0,1.0,278.2579289923887,1.0,1.0,phase_1,,,,,,,,,,,,,orange,circle
207.0,3.0,3.0,0.0,2.0,2.0,253.3256110036745,1.0,1.0,phase_1,,,,,,,,,,,,,gray,flipped triangle
95.0,6.0,2.0,1.0,1.0,1.0,281.0145349940285,1.0,1.0,phase_1,,,,,,,,,,,,,yellow,diamond
212.0,3.0,3.0,0.0,4.0,4.0,295.6570209935307,1.0,1.0,phase_1,,,,,,,,,,,,,gray,flipped triangle
184.0,3.0,3.0,0.0,4.0,4.0,275.037869985681,1.0,1.0,phase_1,,,,,,,,,,,,,gray,flipped triangle
42.0,1.0,1.0,0.0,3.0,3.0,295.8800840133335,1.0,1.0,phase_1,,,,,,,,,,,,,orange,circle
0.0,5.0,0.0,1.0,1.0,1.0,275.1264870166778,1.0,1.0,phase_1,,,,,,,,,,,,,green,triangle
422.0,8.0,4.0,1.0,4.0,4.0,255.46239098184742,1.0,1.0,phase_1,,,,,,,,,,,,,cyan,I
187.0,7.0,3.0,1.0,2.0,2.0,287.2157700185198,1.0,1.0,phase_1,,,,,,,,,,,,,white,cross
26.0,5.0,1.0,1.0,4.0,4.0,266.3731730135623,1.0,1.0,phase_1,,,,,,,,,,,,,green,triangle
0.0,6.0,0.0,1.0,1.0,1.0,254.6191349974833,1.0,1.0,phase_1,,,,,,,,,,,,,yellow,diamond
212.0,3.0,3.0,0.0,2.0,2.0,290.2272170176729,1.0,1.0,phase_1,,,,,,,,,,,,,gray,flipped triangle
98.0,2.0,2.0,0.0,4.0,4.0,287.3256240272894,1.0,1.0,phase_1,,,,,,,,,,,,,blue,hexagon
0.0,3.0,0.0,0.0,2.0,2.0,307.6615919999312,1.0,1.0,phase_1,,,,,,,,,,,,,gray,flipped triangle
393.0,4.0,4.0,0.0,1.0,1.0,290.0725289946422,1.0,1.0,phase_1,,,,,,,,,,,,,magenta,square
47.0,1.0,1.0,0.0,4.0,4.0,268.7382259755395,1.0,1.0,phase_1,,,,,,,,,,,,,orange,circle
399.0,4.0,4.0,0.0,3.0,3.0,276.7147340055089,1.0,1.0,phase_1,,,,,,,,,,,,,magenta,square
213.0,7.0,3.0,1.0,2.0,2.0,262.2358119988348,1.0,1.0,phase_1,,,,,,,,,,,,,white,cross
421.0,8.0,4.0,1.0,3.0,3.0,293.8188519910909,1.0,1.0,phase_1,,,,,,,,,,,,,cyan,I
115.0,2.0,2.0,0.0,3.0,3.0,315.3556039906107,1.0,1.0,phase_1,,,,,,,,,,,,,blue,hexagon
0.0,1.0,0.0,0.0,1.0,1.0,343.5526860121172,1.0,1.0,phase_1,,,,,,,,,,,,,orange,circle
211.0,7.0,3.0,1.0,4.0,4.0,321.5492769959382,1.0,1.0,phase_1,,,,,,,,,,,,,white,cross
0.0,1.0,0.0,0.0,2.0,2.0,255.7253400154877,1.0,1.0,phase_1,,,,,,,,,,,,,orange,circle
77.0,6.0,2.0,1.0,2.0,2.0,278.0319080047775,1.0,1.0,phase_1,,,,,,,,,,,,,yellow,diamond
66.0,1.0,1.0,0.0,4.0,4.0,258.911459997762,1.0,1.0,phase_1,,,,,,,,,,,,,orange,circle
90.0,2.0,2.0,0.0,2.0,2.0,262.1623700251803,1.0,1.0,phase_1,,,,,,,,,,,,,blue,hexagon
395.0,4.0,4.0,0.0,4.0,4.0,249.9328640114981,1.0,1.0,phase_1,,,,,,,,,,,,,magenta,square
0.0,4.0,0.0,0.0,4.0,4.0,277.2878840041812,1.0,1.0,phase_1,,,,,,,,,,,,,magenta,square
418.0,4.0,4.0,0.0,3.0,3.0,323.691745987162,1.0,1.0,phase_1,,,,,,,,,,,,,magenta,square
123.0,2.0,2.0,0.0,2.0,2.0,281.6103030054364,1.0,1.0,phase_1,,,,,,,,,,,,,blue,hexagon
58.0,1.0,1.0,0.0,3.0,3.0,278.3103120164014,1.0,1.0,phase_1,,,,,,,,,,,,,orange,circle
85.0,6.0,2.0,1.0,4.0,4.0,296.1714930133894,1.0,1.0,phase_1,,,,,,,,,,,,,yellow,diamond
409.0,4.0,4.0,0.0,4.0,4.0,285.5488310160581,1.0,1.0,phase_1,,,,,,,,,,,,,magenta,square
94.0,2.0,2.0,0.0,1.0,1.0,348.5174069937784,1.0,1.0,phase_1,,,,,,,,,,,,,blue,hexagon
406.0,4.0,4.0,0.0,1.0,1.0,360.0908940134104,1.0,1.0,phase_1,,,,,,,,,,,,,magenta,square
403.0,8.0,4.0,1.0,3.0,3.0,269.4706699985545,1.0,1.0,phase_1,,,,,,,,,,,,,cyan,I
221.0,3.0,3.0,0.0,2.0,2.0,263.2136780011933,1.0,1.0,phase_1,,,,,,,,,,,,,gray,flipped triangle
388.0,4.0,4.0,0.0,4.0,4.0,293.9569799927994,1.0,1.0,phase_1,,,,,,,,,,,,,magenta,square
394.0,4.0,4.0,0.0,4.0,4.0,300.65962599474,2.0,1.0,phase_1,,,,,,,,,,,,,magenta,square
223.0,7.0,3.0,1.0,2.0,2.0,303.7116140185389,2.0,1.0,phase_1,,,,,,,,,,,,,white,cross
418.0,8.0,4.0,1.0,4.0,4.0,262.9060269973706,2.0,1.0,phase_1,,,,,,,,,,,,,cyan,I
0.0,6.0,0.0,1.0,1.0,1.0,259.7384590189904,2.0,1.0,phase_1,,,,,,,,,,,,,yellow,diamond
0.0,8.0,0.0,1.0,4.0,4.0,240.5217540217563,2.0,1.0,phase_1,,,,,,,,,,,,,cyan,I
73.0,1.0,1.0,0.0,3.0,3.0,270.0630110048223,2.0,1.0,phase_1,,,,,,,,,,,,,orange,circle
192.0,7.0,3.0,1.0,1.0,1.0,296.5085790201556,2.0,1.0,phase_1,,,,,,,,,,,,,white,cross
383.0,4.0,4.0,0.0,1.0,1.0,332.2185990109574,2.0,1.0,phase_1,,,,,,,,,,,,,magenta,square
410.0,4.0,4.0,0.0,2.0,2.0,267.6716940186452,2.0,1.0,phase_1,,,,,,,,,,,,,magenta,square
60.0,5.0,1.0,1.0,1.0,1.0,327.7731029957067,2.0,1.0,phase_1,,,,,,,,,,,,,green,triangle
376.0,4.0,4.0,0.0,3.0,3.0,268.6445070139598,2.0,1.0,phase_1,,,,,,,,,,,,,magenta,square
186.0,3.0,3.0,0.0,1.0,1.0,272.763159009628,2.0,1.0,phase_1,,,,,,,,,,,,,gray,flipped triangle
0.0,1.0,0.0,0.0,1.0,1.0,326.9101040204987,2.0,1.0,phase_1,,,,,,,,,,,,,orange,circle
191.0,3.0,3.0,0.0,4.0,4.0,336.3484480069019,2.0,1.0,phase_1,,,,,,,,,,,,,gray,flipped triangle
45.0,1.0,1.0,0.0,4.0,4.0,278.369292995194,2.0,1.0,phase_1,,,,,,,,,,,,,orange,circle
72.0,1.0,1.0,0.0,3.0,3.0,268.8305479823611,2.0,1.0,phase_1,,,,,,,,,,,,,orange,circle
0.0,5.0,0.0,1.0,2.0,2.0,304.5419859990943,2.0,1.0,phase_1,,,,,,,,,,,,,green,triangle
208.0,3.0,3.0,0.0,4.0,4.0,253.5521799873095,2.0,1.0,phase_1,,,,,,,,,,,,,gray,flipped triangle
0.0,8.0,0.0,1.0,2.0,2.0,247.8292190062347,2.0,1.0,phase_1,,,,,,,,,,,,,cyan,I
381.0,4.0,4.0,0.0,1.0,1.0,238.4586340049281,2.0,1.0,phase_1,,,,,,,,,,,,,magenta,square
86.0,6.0,2.0,1.0,1.0,1.0,249.4115650188177,2.0,1.0,phase_1,,,,,,,,,,,,,yellow,diamond
195.0,3.0,3.0,0.0,1.0,1.0,303.2667639781721,2.0,1.0,phase_1,,,,,,,,,,,,,gray,flipped triangle
84.0,6.0,2.0,1.0,1.0,1.0,241.6904980200342,2.0,1.0,phase_1,,,,,,,,,,,,,yellow,diamond
176.0,7.0,3.0,1.0,3.0,3.0,290.3796320024412,2.0,1.0,phase_1,,,,,,,,,,,,,white,cross
80.0,2.0,2.0,0.0,1.0,1.0,302.7479599986691,2.0,1.0,phase_1,,,,,,,,,,,,,blue,hexagon
104.0,2.0,2.0,0.0,4.0,4.0,281.3173489994369,2.0,1.0,phase_1,,,,,,,,,,,,,blue,hexagon
111.0,2.0,2.0,0.0,1.0,1.0,277.3309400072321,2.0,1.0,phase_1,,,,,,,,,,,,,blue,hexagon
0.0,8.0,0.0,1.0,3.0,3.0,265.2737379830796,2.0,1.0,phase_1,,,,,,,,,,,,,cyan,I
75.0,6.0,2.0,1.0,2.0,2.0,286.4073600212578,2.0,1.0,phase_1,,,,,,,,,,,,,yellow,diamond
0.0,4.0,0.0,0.0,4.0,4.0,277.4932360043749,2.0,1.0,phase_1,,,,,,,,,,,,,magenta,square
202.0,3.0,3.0,0.0,4.0,4.0,289.181122003356,2.0,1.0,phase_1,,,,,,,,,,,,,gray,flipped triangle
121.0,2.0,2.0,0.0,1.0,1.0,269.070886017289,2.0,1.0,phase_1,,,,,,,,,,,,,blue,hexagon
409.0,8.0,4.0,1.0,1.0,1.0,273.7199529947247,2.0,1.0,phase_1,,,,,,,,,,,,,cyan,I
121.0,2.0,2.0,0.0,4.0,4.0,272.2501370008103,2.0,1.0,phase_1,,,,,,,,,,,,,blue,hexagon
74.0,1.0,1.0,0.0,1.0,1.0,292.8484189906157,2.0,1.0,phase_1,,,,,,,,,,,,,orange,circle
119.0,2.0,2.0,0.0,4.0,4.0,289.4510379992425,2.0,1.0,phase_1,,,,,,,,,,,,,blue,hexagon
379.0,4.0,4.0,0.0,2.0,2.0,250.89986799866892,2.0,1.0,phase_1,,,,,,,,,,,,,magenta,square
58.0,5.0,1.0,1.0,3.0,3.0,281.8607130029704,2.0,1.0,phase_1,,,,,,,,,,,,,green,triangle
81.0,2.0,2.0,0.0,3.0,3.0,325.4817269917112,2.0,1.0,phase_1,,,,,,,,,,,,,blue,hexagon
104.0,6.0,2.0,1.0,3.0,3.0,289.7425739793107,2.0,1.0,phase_1,,,,,,,,,,,,,yellow,diamond
211.0,3.0,3.0,0.0,2.0,2.0,407.8874319966417,2.0,1.0,phase_1,,,,,,,,,,,,,gray,flipped triangle
0.0,1.0,0.0,0.0,1.0,1.0,285.8805829891935,2.0,1.0,phase_1,,,,,,,,,,,,,orange,circle
197.0,3.0,3.0,0.0,4.0,4.0,274.3085820111446,2.0,1.0,phase_1,,,,,,,,,,,,,gray,flipped triangle
176.0,3.0,3.0,0.0,3.0,3.0,278.8609710114542,2.0,1.0,phase_1,,,,,,,,,,,,,gray,flipped triangle
85.0,6.0,2.0,1.0,1.0,1.0,257.5503080151975,2.0,1.0,phase_1,,,,,,,,,,,,,yellow,diamond
422.0,8.0,4.0,1.0,4.0,4.0,294.3154549866449,2.0,1.0,phase_1,,,,,,,,,,,,,cyan,I
221.0,7.0,3.0,1.0,4.0,4.0,266.0962160152849,2.0,1.0,phase_1,,,,,,,,,,,,,white,cross
30.0,5.0,1.0,1.0,1.0,1.0,287.0709300041199,2.0,1.0,phase_1,,,,,,,,,,,,,green,triangle
198.0,7.0,3.0,1.0,2.0,2.0,277.6048940140754,2.0,1.0,phase_1,,,,,,,,,,,,,white,cross
80.0,6.0,2.0,1.0,3.0,3.0,281.6579299978912,2.0,1.0,phase_1,,,,,,,,,,,,,yellow,diamond
58.0,5.0,1.0,1.0,3.0,3.0,269.1606910084374,2.0,1.0,phase_1,,,,,,,,,,,,,green,triangle
61.0,1.0,1.0,0.0,2.0,2.0,305.8839699951932,2.0,1.0,phase_1,,,,,,,,,,,,,orange,circle
0.0,5.0,0.0,1.0,2.0,2.0,329.546823981218,2.0,1.0,phase_1,,,,,,,,,,,,,green,triangle
114.0,2.0,2.0,0.0,3.0,3.0,277.4430570134427,2.0,1.0,phase_1,,,,,,,,,,,,,blue,hexagon
121.0,6.0,2.0,1.0,1.0,1.0,256.7173999850638,2.0,1.0,phase_1,,,,,,,,,,,,,yellow,diamond
208.0,7.0,3.0,1.0,1.0,1.0,284.5047950104344,2.0,1.0,phase_1,,,,,,,,,,,,,white,cross
422.0,4.0,4.0,0.0,3.0,3.0,248.9853830193169,2.0,1.0,phase_1,,,,,,,,,,,,,magenta,square
100.0,2.0,2.0,0.0,4.0,4.0,248.4469450137112,2.0,1.0,phase_1,,,,,,,,,,,,,blue,hexagon
377.0,8.0,4.0,1.0,2.0,2.0,322.5222979963291,2.0,1.0,phase_1,,,,,,,,,,,,,cyan,I
52.0,5.0,1.0,1.0,4.0,4.0,355.2551349857822,2.0,1.0,phase_1,,,,,,,,,,,,,green,triangle
26.0,1.0,1.0,0.0,1.0,1.0,299.9502700113226,2.0,1.0,phase_1,,,,,,,,,,,,,orange,circle
39.0,5.0,1.0,1.0,4.0,4.0,242.3916310071945,2.0,1.0,phase_1,,,,,,,,,,,,,green,triangle
74.0,5.0,1.0,1.0,1.0,1.0,335.4478380060754,2.0,1.0,phase_1,,,,,,,,,,,,,green,triangle
0.0,7.0,0.0,1.0,4.0,4.0,276.3431509956717,2.0,1.0,phase_1,,,,,,,,,,,,,white,cross
0.0,3.0,0.0,0.0,1.0,1.0,265.7760319998488,2.0,1.0,phase_1,,,,,,,,,,,,,gray,flipped triangle
217.0,3.0,3.0,0.0,2.0,2.0,284.101791010471,2.0,1.0,phase_1,,,,,,,,,,,,,gray,flipped triangle
54.0,5.0,1.0,1.0,3.0,3.0,276.0590279940516,2.0,1.0,phase_1,,,,,,,,,,,,,green,triangle
191.0,7.0,3.0,1.0,2.0,2.0,262.0037179731298,2.0,1.0,phase_1,,,,,,,,,,,,,white,cross
181.0,7.0,3.0,1.0,4.0,4.0,269.3108299863525,2.0,1.0,phase_1,,,,,,,,,,,,,white,cross
86.0,2.0,2.0,0.0,1.0,1.0,351.7147279926575,2.0,1.0,phase_1,,,,,,,,,,,,,blue,hexagon
176.0,3.0,3.0,0.0,1.0,1.0,307.6040750020183,2.0,1.0,phase_1,,,,,,,,,,,,,gray,flipped triangle
0.0,8.0,0.0,1.0,2.0,2.0,311.0156739712693,2.0,1.0,phase_1,,,,,,,,,,,,,cyan,I
68.0,5.0,1.0,1.0,2.0,2.0,275.6579990091268,2.0,1.0,phase_1,,,,,,,,,,,,,green,triangle
62.0,5.0,1.0,1.0,2.0,2.0,307.6460540178232,2.0,1.0,phase_1,,,,,,,,,,,,,green,triangle
0.0,8.0,0.0,1.0,1.0,1.0,255.44815801549697,2.0,1.0,phase_1,,,,,,,,,,,,,cyan,I
422.0,4.0,4.0,0.0,3.0,3.0,268.6531479994301,2.0,1.0,phase_1,,,,,,,,,,,,,magenta,square
219.0,7.0,3.0,1.0,2.0,2.0,250.03643799573177,2.0,1.0,phase_1,,,,,,,,,,,,,white,cross
219.0,3.0,3.0,0.0,1.0,1.0,253.5169140028301,2.0,1.0,phase_1,,,,,,,,,,,,,gray,flipped triangle
59.0,1.0,1.0,0.0,3.0,3.0,313.7131050170865,2.0,1.0,phase_1,,,,,,,,,,,,,orange,circle
118.0,6.0,2.0,1.0,2.0,2.0,279.7655359900091,2.0,1.0,phase_1,,,,,,,,,,,,,yellow,diamond
192.0,3.0,3.0,0.0,2.0,2.0,257.6346559799276,2.0,1.0,phase_1,,,,,,,,,,,,,gray,flipped triangle
410.0,8.0,4.0,1.0,3.0,3.0,289.5625469973311,2.0,1.0,phase_1,,,,,,,,,,,,,cyan,I
406.0,8.0,4.0,1.0,4.0,4.0,299.1504950041417,2.0,1.0,phase_1,,,,,,,,,,,,,cyan,I
195.0,7.0,3.0,1.0,4.0,4.0,265.7154959742911,2.0,1.0,phase_1,,,,,,,,,,,,,white,cross
191.0,7.0,3.0,1.0,4.0,4.0,301.0262089956086,2.0,1.0,phase_1,,,,,,,,,,,,,white,cross
26.0,1.0,1.0,0.0,1.0,1.0,234.3978910066653,2.0,1.0,phase_1,,,,,,,,,,,,,orange,circle
403.0,8.0,4.0,1.0,3.0,3.0,295.8816419995855,2.0,1.0,phase_1,,,,,,,,,,,,,cyan,I
31.0,1.0,1.0,0.0,4.0,4.0,259.3145179853309,2.0,1.0,phase_1,,,,,,,,,,,,,orange,circle
214.0,7.0,3.0,1.0,1.0,1.0,283.0752820009365,2.0,1.0,phase_1,,,,,,,,,,,,,white,cross
386.0,4.0,4.0,0.0,1.0,1.0,267.51179000712,2.0,1.0,phase_1,,,,,,,,,,,,,magenta,square
377.0,4.0,4.0,0.0,4.0,4.0,258.7135069770738,2.0,1.0,phase_1,,,,,,,,,,,,,magenta,square
0.0,2.0,0.0,0.0,1.0,1.0,247.589454986155,2.0,1.0,phase_1,,,,,,,,,,,,,blue,hexagon
53.0,5.0,1.0,1.0,1.0,1.0,259.7338760097045,2.0,1.0,phase_1,,,,,,,,,,,,,green,triangle
208.0,3.0,3.0,0.0,3.0,3.0,282.2439910087269,2.0,1.0,phase_1,,,,,,,,,,,,,gray,flipped triangle
0.0,7.0,0.0,1.0,1.0,1.0,301.1584409978241,2.0,1.0,phase_1,,,,,,,,,,,,,white,cross
0.0,7.0,0.0,1.0,2.0,2.0,256.5676529775373,2.0,1.0,phase_1,,,,,,,,,,,,,white,cross
403.0,4.0,4.0,0.0,4.0,4.0,272.3562949977349,2.0,1.0,phase_1,,,,,,,,,,,,,magenta,square
47.0,5.0,1.0,1.0,3.0,3.0,282.3045499972068,2.0,1.0,phase_1,,,,,,,,,,,,,green,triangle
195.0,3.0,3.0,0.0,1.0,1.0,249.49170197942288,2.0,1.0,phase_1,,,,,,,,,,,,,gray,flipped triangle
418.0,4.0,4.0,0.0,4.0,4.0,245.9016150096431,2.0,1.0,phase_1,,,,,,,,,,,,,magenta,square
30.0,1.0,1.0,0.0,2.0,2.0,300.1868510036729,3.0,1.0,phase_1,,,,,,,,,,,,,orange,circle
62.0,5.0,1.0,1.0,4.0,4.0,279.1251940070651,3.0,1.0,phase_1,,,,,,,,,,,,,green,triangle
0.0,3.0,0.0,0.0,4.0,4.0,290.3149069752544,3.0,1.0,phase_1,,,,,,,,,,,,,gray,flipped triangle
424.0,4.0,4.0,0.0,1.0,1.0,270.6010270048864,3.0,1.0,phase_1,,,,,,,,,,,,,magenta,square
208.0,3.0,3.0,0.0,3.0,3.0,278.6170580075122,3.0,1.0,phase_1,,,,,,,,,,,,,gray,flipped triangle
0.0,2.0,0.0,0.0,4.0,4.0,259.5236370107159,3.0,1.0,phase_1,,,,,,,,,,,,,blue,hexagon
195.0,7.0,3.0,1.0,1.0,1.0,264.7625969839282,3.0,1.0,phase_1,,,,,,,,,,,,,white,cross
0.0,2.0,0.0,0.0,1.0,1.0,292.9514280112926,3.0,1.0,phase_1,,,,,,,,,,,,,blue,hexagon
85.0,2.0,2.0,0.0,1.0,1.0,296.8348689901177,3.0,1.0,phase_1,,,,,,,,,,,,,blue,hexagon
0.0,4.0,0.0,0.0,1.0,1.0,278.9759039878845,3.0,1.0,phase_1,,,,,,,,,,,,,magenta,square
207.0,7.0,3.0,1.0,2.0,2.0,280.3287980204914,3.0,1.0,phase_1,,,,,,,,,,,,,white,cross
217.0,3.0,3.0,0.0,2.0,2.0,270.7834079919848,3.0,1.0,phase_1,,,,,,,,,,,,,gray,flipped triangle
0.0,3.0,0.0,0.0,3.0,3.0,283.5344219929538,3.0,1.0,phase_1,,,,,,,,,,,,,gray,flipped triangle
0.0,7.0,0.0,1.0,2.0,2.0,277.4013750022277,3.0,1.0,phase_1,,,,,,,,,,,,,white,cross
64.0,5.0,1.0,1.0,3.0,3.0,258.1707969948184,3.0,1.0,phase_1,,,,,,,,,,,,,green,triangle
42.0,5.0,1.0,1.0,4.0,4.0,267.1402989944909,3.0,1.0,phase_1,,,,,,,,,,,,,green,triangle
0.0,8.0,0.0,1.0,1.0,1.0,493.5375430213753,3.0,1.0,phase_1,,,,,,,,,,,,,cyan,I
0.0,3.0,0.0,0.0,2.0,2.0,250.88357197819278,3.0,1.0,phase_1,,,,,,,,,,,,,gray,flipped triangle
0.0,4.0,0.0,0.0,4.0,4.0,269.8594190005678,3.0,1.0,phase_1,,,,,,,,,,,,,magenta,square
32.0,1.0,1.0,0.0,4.0,4.0,269.1509400028735,3.0,1.0,phase_1,,,,,,,,,,,,,orange,circle
0.0,1.0,0.0,0.0,3.0,3.0,273.5287040122784,3.0,1.0,phase_1,,,,,,,,,,,,,orange,circle
0.0,6.0,0.0,1.0,3.0,3.0,260.1066479983274,3.0,1.0,phase_1,,,,,,,,,,,,,yellow,diamond
0.0,4.0,0.0,0.0,2.0,2.0,274.3940000073053,3.0,1.0,phase_1,,,,,,,,,,,,,magenta,square
392.0,4.0,4.0,0.0,2.0,2.0,252.78684400836931,3.0,1.0,phase_1,,,,,,,,,,,,,magenta,square
85.0,2.0,2.0,0.0,2.0,2.0,264.4762090058066,3.0,1.0,phase_1,,,,,,,,,,,,,blue,hexagon
30.0,5.0,1.0,1.0,3.0,3.0,288.2678390014916,3.0,1.0,phase_1,,,,,,,,,,,,,green,triangle
81.0,2.0,2.0,0.0,3.0,3.0,284.0604540251661,3.0,1.0,phase_1,,,,,,,,,,,,,blue,hexagon
395.0,8.0,4.0,1.0,4.0,4.0,336.1392359947786,3.0,1.0,phase_1,,,,,,,,,,,,,cyan,I
30.0,1.0,1.0,0.0,3.0,3.0,262.8041050047613,3.0,1.0,phase_1,,,,,,,,,,,,,orange,circle
377.0,4.0,4.0,0.0,3.0,3.0,258.616865001386,3.0,1.0,phase_1,,,,,,,,,,,,,magenta,square
74.0,1.0,1.0,0.0,1.0,1.0,312.6086309785023,3.0,1.0,phase_1,,,,,,,,,,,,,orange,circle
27.0,1.0,1.0,0.0,1.0,1.0,307.6056150021031,3.0,1.0,phase_1,,,,,,,,,,,,,orange,circle
414.0,4.0,4.0,0.0,2.0,2.0,241.62532901391378,3.0,1.0,phase_1,,,,,,,,,,,,,magenta,square
384.0,4.0,4.0,0.0,2.0,2.0,229.35824398882679,3.0,1.0,phase_1,,,,,,,,,,,,,magenta,square
114.0,6.0,2.0,1.0,1.0,1.0,258.8495739910286,3.0,1.0,phase_1,,,,,,,,,,,,,yellow,diamond
117.0,6.0,2.0,1.0,4.0,4.0,247.1244629996363,3.0,1.0,phase_1,,,,,,,,,,,,,yellow,diamond
94.0,6.0,2.0,1.0,1.0,1.0,274.8637869954109,3.0,1.0,phase_1,,,,,,,,,,,,,yellow,diamond
0.0,8.0,0.0,1.0,3.0,3.0,264.2627799941692,3.0,1.0,phase_1,,,,,,,,,,,,,cyan,I
54.0,1.0,1.0,0.0,2.0,2.0,284.3688119901344,3.0,1.0,phase_1,,,,,,,,,,,,,orange,circle
390.0,8.0,4.0,1.0,4.0,4.0,266.4213539974298,3.0,1.0,phase_1,,,,,,,,,,,,,cyan,I
39.0,1.0,1.0,0.0,2.0,2.0,302.9548749909736,3.0,1.0,phase_1,,,,,,,,,,,,,orange,circle
406.0,4.0,4.0,0.0,2.0,2.0,272.7877300058026,3.0,1.0,phase_1,,,,,,,,,,,,,magenta,square
418.0,8.0,4.0,1.0,2.0,2.0,265.3424999734852,3.0,1.0,phase_1,,,,,,,,,,,,,cyan,I
406.0,8.0,4.0,1.0,2.0,2.0,244.6374929859303,3.0,1.0,phase_1,,,,,,,,,,,,,cyan,I
106.0,6.0,2.0,1.0,2.0,2.0,233.3333120041061,3.0,1.0,phase_1,,,,,,,,,,,,,yellow,diamond
0.0,3.0,0.0,0.0,3.0,3.0,317.6560620195232,3.0,1.0,phase_1,,,,,,,,,,,,,gray,flipped triangle
202.0,7.0,3.0,1.0,3.0,3.0,308.5251960146706,3.0,1.0,phase_1,,,,,,,,,,,,,white,cross
388.0,8.0,4.0,1.0,1.0,1.0,256.8557049962692,3.0,1.0,phase_1,,,,,,,,,,,,,cyan,I
61.0,5.0,1.0,1.0,3.0,3.0,285.9243740094825,3.0,1.0,phase_1,,,,,,,,,,,,,green,triangle
95.0,2.0,2.0,0.0,4.0,4.0,264.8534659820143,3.0,1.0,phase_1,,,,,,,,,,,,,blue,hexagon
116.0,2.0,2.0,0.0,4.0,4.0,325.5304990161676,3.0,1.0,phase_1,,,,,,,,,,,,,blue,hexagon
32.0,5.0,1.0,1.0,4.0,4.0,279.9548729963135,3.0,1.0,phase_1,,,,,,,,,,,,,green,triangle
109.0,2.0,2.0,0.0,3.0,3.0,260.3846529964357,3.0,1.0,phase_1,,,,,,,,,,,,,blue,hexagon
52.0,1.0,1.0,0.0,2.0,2.0,249.3964190070983,3.0,1.0,phase_1,,,,,,,,,,,,,orange,circle
384.0,8.0,4.0,1.0,3.0,3.0,270.1004929840565,3.0,1.0,phase_1,,,,,,,,,,,,,cyan,I
394.0,8.0,4.0,1.0,1.0,1.0,282.3852960136719,3.0,1.0,phase_1,,,,,,,,,,,,,cyan,I
403.0,4.0,4.0,0.0,3.0,3.0,249.684711016016,3.0,1.0,phase_1,,,,,,,,,,,,,magenta,square
186.0,3.0,3.0,0.0,3.0,3.0,295.4418980225455,3.0,1.0,phase_1,,,,,,,,,,,,,gray,flipped triangle
118.0,2.0,2.0,0.0,4.0,4.0,234.4290089968126,3.0,1.0,phase_1,,,,,,,,,,,,,blue,hexagon
0.0,7.0,0.0,1.0,4.0,4.0,325.5989270110149,3.0,1.0,phase_1,,,,,,,,,,,,,white,cross
53.0,1.0,1.0,0.0,2.0,2.0,274.8319969978183,3.0,1.0,phase_1,,,,,,,,,,,,,orange,circle
422.0,8.0,4.0,1.0,3.0,3.0,246.6583940258715,3.0,1.0,phase_1,,,,,,,,,,,,,cyan,I
26.0,5.0,1.0,1.0,2.0,2.0,254.46522299898788,3.0,1.0,phase_1,,,,,,,,,,,,,green,triangle
178.0,3.0,3.0,0.0,2.0,2.0,266.9747939798981,3.0,1.0,phase_1,,,,,,,,,,,,,gray,flipped triangle
58.0,5.0,1.0,1.0,4.0,4.0,324.864829017315,3.0,1.0,phase_1,,,,,,,,,,,,,green,triangle
211.0,3.0,3.0,0.0,3.0,3.0,290.7067259948235,3.0,1.0,phase_1,,,,,,,,,,,,,gray,flipped triangle
213.0,3.0,3.0,0.0,3.0,3.0,247.8634549770504,3.0,1.0,phase_1,,,,,,,,,,,,,gray,flipped triangle
186.0,7.0,3.0,1.0,1.0,1.0,276.5619620040525,3.0,1.0,phase_1,,,,,,,,,,,,,white,cross
117.0,2.0,2.0,0.0,3.0,3.0,241.1677509953733,3.0,1.0,phase_1,,,,,,,,,,,,,blue,hexagon
0.0,2.0,0.0,0.0,1.0,1.0,292.9617390036583,3.0,1.0,phase_1,,,,,,,,,,,,,blue,hexagon
95.0,6.0,2.0,1.0,3.0,3.0,284.7691469942219,3.0,1.0,phase_1,,,,,,,,,,,,,yellow,diamond
92.0,2.0,2.0,0.0,1.0,1.0,301.3056060008239,3.0,1.0,phase_1,,,,,,,,,,,,,blue,hexagon
62.0,1.0,1.0,0.0,1.0,1.0,260.2116639900487,3.0,1.0,phase_1,,,,,,,,,,,,,orange,circle
424.0,8.0,4.0,1.0,2.0,2.0,265.0891460070852,3.0,1.0,phase_1,,,,,,,,,,,,,cyan,I
404.0,4.0,4.0,0.0,1.0,1.0,244.3627530010417,3.0,1.0,phase_1,,,,,,,,,,,,,magenta,square
192.0,7.0,3.0,1.0,3.0,3.0,264.4840110151563,3.0,1.0,phase_1,,,,,,,,,,,,,white,cross
0.0,2.0,0.0,0.0,2.0,2.0,269.156848982675,3.0,1.0,phase_1,,,,,,,,,,,,,blue,hexagon
0.0,3.0,0.0,0.0,1.0,1.0,260.5413790151942,3.0,1.0,phase_1,,,,,,,,,,,,,gray,flipped triangle
55.0,5.0,1.0,1.0,2.0,2.0,257.4544360104482,3.0,1.0,phase_1,,,,,,,,,,,,,green,triangle
109.0,6.0,2.0,1.0,4.0,4.0,244.609216984827,3.0,1.0,phase_1,,,,,,,,,,,,,yellow,diamond
58.0,1.0,1.0,0.0,2.0,2.0,266.663880989654,3.0,1.0,phase_1,,,,,,,,,,,,,orange,circle
176.0,7.0,3.0,1.0,2.0,2.0,270.1147159968968,3.0,1.0,phase_1,,,,,,,,,,,,,white,cross
79.0,6.0,2.0,1.0,3.0,3.0,273.661966988584,3.0,1.0,phase_1,,,,,,,,,,,,,yellow,diamond
0.0,3.0,0.0,0.0,3.0,3.0,278.4487960161641,3.0,1.0,phase_1,,,,,,,,,,,,,gray,flipped triangle
115.0,6.0,2.0,1.0,2.0,2.0,284.4229800102766,3.0,1.0,phase_1,,,,,,,,,,,,,yellow,diamond
395.0,8.0,4.0,1.0,1.0,1.0,299.0556609875057,3.0,1.0,phase_1,,,,,,,,,,,,,cyan,I
211.0,7.0,3.0,1.0,3.0,3.0,279.0552979859058,3.0,1.0,phase_1,,,,,,,,,,,,,white,cross
208.0,7.0,3.0,1.0,1.0,1.0,524.2519130115397,3.0,1.0,phase_1,,,,,,,,,,,,,white,cross
74.0,5.0,1.0,1.0,4.0,4.0,264.2459019843954,3.0,1.0,phase_1,,,,,,,,,,,,,green,triangle
184.0,3.0,3.0,0.0,4.0,4.0,316.5757500100881,3.0,1.0,phase_1,,,,,,,,,,,,,gray,flipped triangle
95.0,2.0,2.0,0.0,2.0,2.0,270.8341449906584,3.0,1.0,phase_1,,,,,,,,,,,,,blue,hexagon
0.0,2.0,0.0,0.0,2.0,2.0,251.3390610110946,3.0,1.0,phase_1,,,,,,,,,,,,,blue,hexagon
188.0,3.0,3.0,0.0,3.0,3.0,283.2037009939085,3.0,1.0,phase_1,,,,,,,,,,,,,gray,flipped triangle
31.0,5.0,1.0,1.0,4.0,4.0,312.2714350174647,3.0,1.0,phase_1,,,,,,,,,,,,,green,triangle
183.0,3.0,3.0,0.0,3.0,3.0,267.8382890007924,3.0,1.0,phase_1,,,,,,,,,,,,,gray,flipped triangle
197.0,7.0,3.0,1.0,1.0,1.0,294.063481997,3.0,1.0,phase_1,,,,,,,,,,,,,white,cross
64.0,1.0,1.0,0.0,1.0,1.0,274.9340579903219,3.0,1.0,phase_1,,,,,,,,,,,,,orange,circle
381.0,8.0,4.0,1.0,2.0,2.0,272.4731729831546,3.0,1.0,phase_1,,,,,,,,,,,,,cyan,I
122.0,2.0,2.0,0.0,3.0,3.0,237.13215297902929,3.0,1.0,phase_1,,,,,,,,,,,,,blue,hexagon
215.0,7.0,3.0,1.0,3.0,3.0,240.7106719911098,3.0,1.0,phase_1,,,,,,,,,,,,,white,cross
396.0,4.0,4.0,0.0,2.0,2.0,339.1076299885753,4.0,1.0,phase_1,,,,,,,,,,,,,magenta,square
0.0,8.0,0.0,1.0,1.0,1.0,253.3132219978142,4.0,1.0,phase_1,,,,,,,,,,,,,cyan,I
186.0,7.0,3.0,1.0,3.0,3.0,266.3785359764006,4.0,1.0,phase_1,,,,,,,,,,,,,white,cross
399.0,8.0,4.0,1.0,4.0,4.0,278.4929210029077,4.0,1.0,phase_1,,,,,,,,,,,,,cyan,I
81.0,6.0,2.0,1.0,4.0,4.0,286.2890730029903,4.0,1.0,phase_1,,,,,,,,,,,,,yellow,diamond
121.0,6.0,2.0,1.0,2.0,2.0,243.3382720046211,4.0,1.0,phase_1,,,,,,,,,,,,,yellow,diamond
184.0,7.0,3.0,1.0,4.0,4.0,285.3386609931476,4.0,1.0,phase_1,,,,,,,,,,,,,white,cross
59.0,5.0,1.0,1.0,3.0,3.0,281.0589970031287,4.0,1.0,phase_1,,,,,,,,,,,,,green,triangle
60.0,1.0,1.0,0.0,3.0,3.0,264.3097350082826,4.0,1.0,phase_1,,,,,,,,,,,,,orange,circle
212.0,7.0,3.0,1.0,1.0,1.0,268.5028480191249,4.0,1.0,phase_1,,,,,,,,,,,,,white,cross
399.0,8.0,4.0,1.0,1.0,1.0,296.0289010079577,4.0,1.0,phase_1,,,,,,,,,,,,,cyan,I
92.0,6.0,2.0,1.0,1.0,1.0,326.805223012343,4.0,1.0,phase_1,,,,,,,,,,,,,yellow,diamond
383.0,8.0,4.0,1.0,1.0,1.0,256.456582021201,4.0,1.0,phase_1,,,,,,,,,,,,,cyan,I
214.0,3.0,3.0,0.0,4.0,4.0,329.2981539852917,4.0,1.0,phase_1,,,,,,,,,,,,,gray,flipped triangle
178.0,7.0,3.0,1.0,4.0,4.0,292.6036150020081,4.0,1.0,phase_1,,,,,,,,,,,,,white,cross
44.0,5.0,1.0,1.0,4.0,4.0,273.0558110051788,4.0,1.0,phase_1,,,,,,,,,,,,,green,triangle
198.0,3.0,3.0,0.0,1.0,1.0,299.6159569884185,4.0,1.0,phase_1,,,,,,,,,,,,,gray,flipped triangle
0.0,6.0,0.0,1.0,3.0,3.0,265.972146007698,4.0,1.0,phase_1,,,,,,,,,,,,,yellow,diamond
0.0,5.0,0.0,1.0,2.0,2.0,261.4592250029091,4.0,1.0,phase_1,,,,,,,,,,,,,green,triangle
0.0,1.0,0.0,0.0,2.0,2.0,275.9511210024357,4.0,1.0,phase_1,,,,,,,,,,,,,orange,circle
102.0,2.0,2.0,0.0,3.0,3.0,288.2487159804441,4.0,1.0,phase_1,,,,,,,,,,,,,blue,hexagon
409.0,4.0,4.0,0.0,1.0,1.0,267.4277469923254,4.0,1.0,phase_1,,,,,,,,,,,,,magenta,square
221.0,7.0,3.0,1.0,1.0,1.0,299.6204669761937,4.0,1.0,phase_1,,,,,,,,,,,,,white,cross
72.0,5.0,1.0,1.0,1.0,1.0,292.1515629859641,4.0,1.0,phase_1,,,,,,,,,,,,,green,triangle
0.0,7.0,0.0,1.0,4.0,4.0,307.9050460073631,4.0,1.0,phase_1,,,,,,,,,,,,,white,cross
0.0,3.0,0.0,0.0,3.0,3.0,288.527682016138,4.0,1.0,phase_1,,,,,,,,,,,,,gray,flipped triangle
195.0,3.0,3.0,0.0,3.0,3.0,292.4835229932796,4.0,1.0,phase_1,,,,,,,,,,,,,gray,flipped triangle
0.0,2.0,0.0,0.0,3.0,3.0,312.0285650074947,4.0,1.0,phase_1,,,,,,,,,,,,,blue,hexagon
0.0,6.0,0.0,1.0,2.0,2.0,269.8730510019231,4.0,1.0,phase_1,,,,,,,,,,,,,yellow,diamond
114.0,6.0,2.0,1.0,4.0,4.0,313.1019080174155,4.0,1.0,phase_1,,,,,,,,,,,,,yellow,diamond
188.0,7.0,3.0,1.0,3.0,3.0,269.9891139927786,4.0,1.0,phase_1,,,,,,,,,,,,,white,cross
215.0,3.0,3.0,0.0,4.0,4.0,308.9460509945638,4.0,1.0,phase_1,,,,,,,,,,,,,gray,flipped triangle
109.0,6.0,2.0,1.0,1.0,1.0,278.8405079918448,4.0,1.0,phase_1,,,,,,,,,,,,,yellow,diamond
404.0,8.0,4.0,1.0,3.0,3.0,291.1813739920035,4.0,1.0,phase_1,,,,,,,,,,,,,cyan,I
377.0,8.0,4.0,1.0,3.0,3.0,306.3106269983109,4.0,1.0,phase_1,,,,,,,,,,,,,cyan,I
66.0,5.0,1.0,1.0,1.0,1.0,278.6383350030519,4.0,1.0,phase_1,,,,,,,,,,,,,green,triangle
75.0,2.0,2.0,0.0,4.0,4.0,290.3506160073448,4.0,1.0,phase_1,,,,,,,,,,,,,blue,hexagon
122.0,6.0,2.0,1.0,4.0,4.0,272.1593390160706,4.0,1.0,phase_1,,,,,,,,,,,,,yellow,diamond
100.0,6.0,2.0,1.0,3.0,3.0,277.8354100009892,4.0,1.0,phase_1,,,,,,,,,,,,,yellow,diamond
390.0,4.0,4.0,0.0,4.0,4.0,274.4636120041832,4.0,1.0,phase_1,,,,,,,,,,,,,magenta,square
414.0,8.0,4.0,1.0,3.0,3.0,271.9959629757795,4.0,1.0,phase_1,,,,,,,,,,,,,cyan,I
208.0,7.0,3.0,1.0,3.0,3.0,260.7866460166406,4.0,1.0,phase_1,,,,,,,,,,,,,white,cross
386.0,8.0,4.0,1.0,2.0,2.0,313.1651620205957,4.0,1.0,phase_1,,,,,,,,,,,,,cyan,I
119.0,6.0,2.0,1.0,4.0,4.0,243.7128119927365,4.0,1.0,phase_1,,,,,,,,,,,,,yellow,diamond
0.0,2.0,0.0,0.0,4.0,4.0,297.056398994755,4.0,1.0,phase_1,,,,,,,,,,,,,blue,hexagon
122.0,6.0,2.0,1.0,3.0,3.0,275.3941390255932,4.0,1.0,phase_1,,,,,,,,,,,,,yellow,diamond
0.0,2.0,0.0,0.0,2.0,2.0,296.061514003668,4.0,1.0,phase_1,,,,,,,,,,,,,blue,hexagon
197.0,3.0,3.0,0.0,1.0,1.0,279.0620110172312,4.0,1.0,phase_1,,,,,,,,,,,,,gray,flipped triangle
0.0,5.0,0.0,1.0,2.0,2.0,281.3077050086576,4.0,1.0,phase_1,,,,,,,,,,,,,green,triangle
27.0,1.0,1.0,0.0,3.0,3.0,278.3412670250982,4.0,1.0,phase_1,,,,,,,,,,,,,orange,circle
187.0,3.0,3.0,0.0,1.0,1.0,278.9524899853859,4.0,1.0,phase_1,,,,,,,,,,,,,gray,flipped triangle
85.0,6.0,2.0,1.0,2.0,2.0,249.8200190020725,4.0,1.0,phase_1,,,,,,,,,,,,,yellow,diamond
54.0,5.0,1.0,1.0,1.0,1.0,260.8413469861261,4.0,1.0,phase_1,,,,,,,,,,,,,green,triangle
122.0,2.0,2.0,0.0,2.0,2.0,257.6924599998165,4.0,1.0,phase_1,,,,,,,,,,,,,blue,hexagon
379.0,8.0,4.0,1.0,2.0,2.0,349.1348050010856,4.0,1.0,phase_1,,,,,,,,,,,,,cyan,I
421.0,4.0,4.0,0.0,3.0,3.0,290.1933139946777,4.0,1.0,phase_1,,,,,,,,,,,,,magenta,square
58.0,1.0,1.0,0.0,2.0,2.0,263.7088749906979,4.0,1.0,phase_1,,,,,,,,,,,,,orange,circle
41.0,5.0,1.0,1.0,2.0,2.0,262.8987340140156,4.0,1.0,phase_1,,,,,,,,,,,,,green,triangle
27.0,5.0,1.0,1.0,1.0,1.0,249.5948350115213,4.0,1.0,phase_1,,,,,,,,,,,,,green,triangle
109.0,2.0,2.0,0.0,3.0,3.0,265.6144780048635,4.0,1.0,phase_1,,,,,,,,,,,,,blue,hexagon
419.0,4.0,4.0,0.0,1.0,1.0,268.7297739903442,4.0,1.0,phase_1,,,,,,,,,,,,,magenta,square
55.0,1.0,1.0,0.0,1.0,1.0,320.9657199913636,4.0,1.0,phase_1,,,,,,,,,,,,,orange,circle
0.0,5.0,0.0,1.0,2.0,2.0,395.2823269937653,4.0,1.0,phase_1,,,,,,,,,,,,,green,triangle
68.0,1.0,1.0,0.0,2.0,2.0,274.8700749943964,4.0,1.0,phase_1,,,,,,,,,,,,,orange,circle
84.0,2.0,2.0,0.0,2.0,2.0,245.3716989839449,4.0,1.0,phase_1,,,,,,,,,,,,,blue,hexagon
79.0,2.0,2.0,0.0,3.0,3.0,257.9621690092608,4.0,1.0,phase_1,,,,,,,,,,,,,blue,hexagon
0.0,5.0,0.0,1.0,4.0,4.0,264.3630940001458,4.0,1.0,phase_1,,,,,,,,,,,,,green,triangle
192.0,3.0,3.0,0.0,4.0,4.0,314.4247010059189,4.0,1.0,phase_1,,,,,,,,,,,,,gray,flipped triangle
392.0,8.0,4.0,1.0,1.0,1.0,263.4422589908354,4.0,1.0,phase_1,,,,,,,,,,,,,cyan,I
191.0,3.0,3.0,0.0,1.0,1.0,270.9716759854927,4.0,1.0,phase_1,,,,,,,,,,,,,gray,flipped triangle
223.0,3.0,3.0,0.0,2.0,2.0,265.166034019785,4.0,1.0,phase_1,,,,,,,,,,,,,gray,flipped triangle
0.0,5.0,0.0,1.0,4.0,4.0,272.3837099911179,4.0,1.0,phase_1,,,,,,,,,,,,,green,triangle
90.0,6.0,2.0,1.0,4.0,4.0,346.1348880082369,4.0,1.0,phase_1,,,,,,,,,,,,,yellow,diamond
0.0,7.0,0.0,1.0,4.0,4.0,312.2833230008837,4.0,1.0,phase_1,,,,,,,,,,,,,white,cross
31.0,1.0,1.0,0.0,2.0,2.0,261.8456959899049,4.0,1.0,phase_1,,,,,,,,,,,,,orange,circle
413.0,4.0,4.0,0.0,4.0,4.0,250.0400590070057,4.0,1.0,phase_1,,,,,,,,,,,,,magenta,square
195.0,7.0,3.0,1.0,1.0,1.0,269.2665370122995,4.0,1.0,phase_1,,,,,,,,,,,,,white,cross
31.0,5.0,1.0,1.0,2.0,2.0,257.9524219909217,4.0,1.0,phase_1,,,,,,,,,,,,,green,triangle
54.0,1.0,1.0,0.0,4.0,4.0,274.3411319970619,4.0,1.0,phase_1,,,,,,,,,,,,,orange,circle
395.0,4.0,4.0,0.0,2.0,2.0,315.4754400020465,4.0,1.0,phase_1,,,,,,,,,,,,,magenta,square
86.0,2.0,2.0,0.0,1.0,1.0,279.3939459952526,4.0,1.0,phase_1,,,,,,,,,,,,,blue,hexagon
396.0,8.0,4.0,1.0,1.0,1.0,302.5007520045619,4.0,1.0,phase_1,,,,,,,,,,,,,cyan,I
0.0,1.0,0.0,0.0,4.0,4.0,290.7719569921028,4.0,1.0,phase_1,,,,,,,,,,,,,orange,circle
419.0,8.0,4.0,1.0,4.0,4.0,285.8987759973388,4.0,1.0,phase_1,,,,,,,,,,,,,cyan,I
0.0,7.0,0.0,1.0,1.0,1.0,266.082149988506,4.0,1.0,phase_1,,,,,,,,,,,,,white,cross
100.0,6.0,2.0,1.0,3.0,3.0,264.121479995083,4.0,1.0,phase_1,,,,,,,,,,,,,yellow,diamond
46.0,1.0,1.0,0.0,4.0,4.0,255.20394500927068,4.0,1.0,phase_1,,,,,,,,,,,,,orange,circle
0.0,1.0,0.0,0.0,4.0,4.0,244.1685000085272,4.0,1.0,phase_1,,,,,,,,,,,,,orange,circle
74.0,1.0,1.0,0.0,4.0,4.0,271.1237420153338,4.0,1.0,phase_1,,,,,,,,,,,,,orange,circle
422.0,4.0,4.0,0.0,3.0,3.0,259.9671249918174,4.0,1.0,phase_1,,,,,,,,,,,,,magenta,square
27.0,5.0,1.0,1.0,1.0,1.0,289.2133899731561,4.0,1.0,phase_1,,,,,,,,,,,,,green,triangle
116.0,6.0,2.0,1.0,4.0,4.0,243.6376239929814,4.0,1.0,phase_1,,,,,,,,,,,,,yellow,diamond
0.0,1.0,0.0,0.0,3.0,3.0,247.5152880069799,4.0,1.0,phase_1,,,,,,,,,,,,,orange,circle
212.0,7.0,3.0,1.0,4.0,4.0,276.2031329912133,4.0,1.0,phase_1,,,,,,,,,,,,,white,cross
100.0,2.0,2.0,0.0,2.0,2.0,240.9798729931935,4.0,1.0,phase_1,,,,,,,,,,,,,blue,hexagon
384.0,8.0,4.0,1.0,3.0,3.0,248.2002710166853,4.0,1.0,phase_1,,,,,,,,,,,,,cyan,I
403.0,8.0,4.0,1.0,4.0,4.0,284.5969909976702,4.0,1.0,phase_1,,,,,,,,,,,,,cyan,I
197.0,7.0,3.0,1.0,3.0,3.0,281.0771999938879,4.0,1.0,phase_1,,,,,,,,,,,,,white,cross
0.0,4.0,0.0,0.0,4.0,4.0,251.67634600074962,4.0,1.0,phase_1,,,,,,,,,,,,,magenta,square
0.0,8.0,0.0,1.0,4.0,4.0,257.1332439838443,4.0,1.0,phase_1,,,,,,,,,,,,,cyan,I
0.0,7.0,3.0,1.0,6.0,6.0,375.937017990509,1.0,1.0,phase_2,go,250.0,250.0,1.0,,,,,,,,,white,cross
0.0,3.0,3.0,0.0,5.0,5.0,244.8738829989452,1.0,1.0,phase_2,go,250.0,250.0,1.0,,,,,,,,,gray,flipped triangle
0.0,5.0,1.0,1.0,5.0,5.0,245.4081540054176,1.0,1.0,phase_2,stop,250.0,250.0,3.0,,,,,,,,,green,triangle
0.0,4.0,4.0,0.0,5.0,5.0,262.9774799861479,1.0,1.0,phase_2,go,200.0,250.0,1.0,,,,,,,,,magenta,square
0.0,6.0,2.0,1.0,6.0,6.0,258.3978239854332,1.0,1.0,phase_2,go,200.0,250.0,1.0,,,,,,,,,yellow,diamond
0.0,5.0,1.0,1.0,5.0,5.0,258.492111985106,1.0,1.0,phase_2,stop,200.0,250.0,3.0,,,,,,,,,green,triangle
0.0,5.0,1.0,1.0,5.0,0.0,0.0,1.0,1.0,phase_2,stop,150.0,250.0,4.0,,,,,,,,,green,triangle
0.0,1.0,1.0,0.0,6.0,6.0,258.7559269741177,1.0,1.0,phase_2,go,200.0,250.0,1.0,,,,,,,,,orange,circle
0.0,1.0,1.0,0.0,6.0,6.0,345.2086859906558,1.0,1.0,phase_2,go,200.0,250.0,1.0,,,,,,,,,orange,circle
0.0,6.0,2.0,1.0,5.0,5.0,328.794930013828,1.0,1.0,phase_2,stop,200.0,250.0,3.0,,,,,,,,,yellow,diamond
0.0,5.0,1.0,1.0,5.0,0.0,0.0,1.0,1.0,phase_2,stop,150.0,250.0,4.0,,,,,,,,,green,triangle
0.0,3.0,3.0,0.0,5.0,5.0,544.4877060072031,1.0,1.0,phase_2,go,200.0,250.0,1.0,,,,,,,,,gray,flipped triangle
0.0,6.0,2.0,1.0,6.0,6.0,305.4598149901721,1.0,1.0,phase_2,stop,200.0,250.0,3.0,,,,,,,,,yellow,diamond
0.0,5.0,1.0,1.0,6.0,6.0,375.7935859903227,1.0,1.0,phase_2,stop,200.0,200.0,3.0,,,,,,,,,green,triangle
0.0,5.0,1.0,1.0,6.0,6.0,292.8269249969162,1.0,1.0,phase_2,stop,200.0,150.0,3.0,,,,,,,,,green,triangle
0.0,3.0,3.0,0.0,5.0,5.0,358.724039979279,1.0,1.0,phase_2,go,200.0,100.0,1.0,,,,,,,,,gray,flipped triangle
0.0,4.0,4.0,0.0,6.0,6.0,326.0897169820964,1.0,1.0,phase_2,go,200.0,100.0,1.0,,,,,,,,,magenta,square
0.0,4.0,4.0,0.0,6.0,6.0,229.5741620182525,1.0,1.0,phase_2,go,200.0,100.0,1.0,,,,,,,,,magenta,square
0.0,1.0,1.0,0.0,5.0,5.0,285.4949600005056,1.0,1.0,phase_2,go,200.0,100.0,1.0,,,,,,,,,orange,circle
0.0,3.0,3.0,0.0,6.0,6.0,429.5933879911899,1.0,1.0,phase_2,go,200.0,100.0,1.0,,,,,,,,,gray,flipped triangle
0.0,1.0,1.0,0.0,6.0,6.0,309.2934460146352,1.0,1.0,phase_2,go,200.0,100.0,1.0,,,,,,,,,orange,circle
0.0,2.0,2.0,0.0,5.0,5.0,233.9729320083279,1.0,1.0,phase_2,go,200.0,100.0,1.0,,,,,,,,,blue,hexagon
0.0,5.0,1.0,1.0,6.0,6.0,256.6058109805453,1.0,1.0,phase_2,go,200.0,100.0,1.0,,,,,,,,,green,triangle
0.0,8.0,4.0,1.0,6.0,6.0,255.9093080053571,1.0,1.0,phase_2,stop,200.0,100.0,3.0,,,,,,,,,cyan,I
0.0,2.0,2.0,0.0,5.0,5.0,336.2650010094512,1.0,1.0,phase_2,go,200.0,50.0,1.0,,,,,,,,,blue,hexagon
0.0,2.0,2.0,0.0,6.0,6.0,363.1750170025043,1.0,1.0,phase_2,go,200.0,50.0,1.0,,,,,,,,,blue,hexagon
0.0,1.0,1.0,0.0,5.0,5.0,270.9446999942884,1.0,1.0,phase_2,go,200.0,50.0,1.0,,,,,,,,,orange,circle
0.0,4.0,4.0,0.0,5.0,5.0,263.2334580121096,1.0,1.0,phase_2,go,200.0,50.0,1.0,,,,,,,,,magenta,square
0.0,4.0,4.0,0.0,5.0,5.0,253.3078590058721,1.0,1.0,phase_2,go,200.0,50.0,1.0,,,,,,,,,magenta,square
0.0,8.0,4.0,1.0,5.0,5.0,270.5491780070588,1.0,1.0,phase_2,stop,200.0,50.0,3.0,,,,,,,,,cyan,I
0.0,7.0,3.0,1.0,6.0,0.0,0.0,1.0,1.0,phase_2,stop,150.0,50.0,4.0,,,,,,,,,white,cross
0.0,3.0,3.0,0.0,6.0,6.0,501.680604997091,1.0,1.0,phase_2,go,150.0,100.0,1.0,,,,,,,,,gray,flipped triangle
0.0,8.0,4.0,1.0,6.0,0.0,0.0,1.0,1.0,phase_2,stop,150.0,100.0,4.0,,,,,,,,,cyan,I
0.0,6.0,2.0,1.0,6.0,0.0,0.0,1.0,1.0,phase_2,stop,150.0,150.0,4.0,,,,,,,,,yellow,diamond
0.0,5.0,1.0,1.0,6.0,0.0,0.0,1.0,1.0,phase_2,stop,150.0,200.0,4.0,,,,,,,,,green,triangle
0.0,4.0,4.0,0.0,5.0,5.0,427.8064219979569,1.0,1.0,phase_2,go,150.0,250.0,1.0,,,,,,,,,magenta,square
0.0,1.0,1.0,0.0,6.0,6.0,360.7099679938983,2.0,1.0,phase_2,go,150.0,250.0,1.0,,,,,,,,,orange,circle
0.0,8.0,4.0,1.0,5.0,5.0,222.8327699995134,2.0,1.0,phase_2,stop,150.0,250.0,3.0,,,,,,,,,cyan,I
0.0,4.0,4.0,0.0,6.0,6.0,240.0733160029631,2.0,1.0,phase_2,go,100.0,250.0,1.0,,,,,,,,,magenta,square
0.0,5.0,1.0,1.0,5.0,5.0,231.9381760025862,2.0,1.0,phase_2,go,100.0,250.0,1.0,,,,,,,,,green,triangle
0.0,2.0,2.0,0.0,5.0,5.0,259.3164930003695,2.0,1.0,phase_2,go,100.0,250.0,1.0,,,,,,,,,blue,hexagon
0.0,5.0,1.0,1.0,6.0,6.0,211.5529959846753,2.0,1.0,phase_2,go,100.0,250.0,1.0,,,,,,,,,green,triangle
0.0,6.0,2.0,1.0,6.0,6.0,279.4825980090536,2.0,1.0,phase_2,stop,100.0,250.0,3.0,,,,,,,,,yellow,diamond
0.0,7.0,3.0,1.0,5.0,5.0,229.194612998981,2.0,1.0,phase_2,stop,100.0,200.0,3.0,,,,,,,,,white,cross
0.0,1.0,1.0,0.0,6.0,6.0,276.7604880209546,2.0,1.0,phase_2,go,50.0,200.0,1.0,,,,,,,,,orange,circle
0.0,1.0,1.0,0.0,5.0,5.0,210.8471640094649,2.0,1.0,phase_2,go,50.0,200.0,1.0,,,,,,,,,orange,circle
0.0,7.0,3.0,1.0,5.0,5.0,272.6988589856773,2.0,1.0,phase_2,stop,50.0,200.0,3.0,,,,,,,,,white,cross
0.0,3.0,3.0,0.0,5.0,5.0,329.6452109934762,2.0,1.0,phase_2,go,0.0,200.0,1.0,,,,,,,,,gray,flipped triangle
0.0,3.0,3.0,0.0,5.0,5.0,263.9045490068383,2.0,1.0,phase_2,go,0.0,200.0,1.0,,,,,,,,,gray,flipped triangle
0.0,2.0,2.0,0.0,5.0,5.0,240.3672959771938,2.0,1.0,phase_2,go,0.0,200.0,1.0,,,,,,,,,blue,hexagon
0.0,8.0,4.0,1.0,5.0,5.0,241.8656599766109,2.0,1.0,phase_2,stop,0.0,200.0,3.0,,,,,,,,,cyan,I
0.0,4.0,4.0,0.0,6.0,6.0,405.6686770054512,2.0,1.0,phase_2,go,0.0,200.0,1.0,,,,,,,,,magenta,square
0.0,4.0,4.0,0.0,5.0,5.0,317.8481189825106,2.0,1.0,phase_2,go,0.0,200.0,1.0,,,,,,,,,magenta,square
0.0,7.0,3.0,1.0,5.0,5.0,311.9612319860607,2.0,1.0,phase_2,go,0.0,200.0,1.0,,,,,,,,,white,cross
0.0,4.0,4.0,0.0,5.0,5.0,255.9611439937725,2.0,1.0,phase_2,go,0.0,200.0,1.0,,,,,,,,,magenta,square
0.0,5.0,1.0,1.0,5.0,5.0,237.7739860094152,2.0,1.0,phase_2,stop,0.0,200.0,3.0,,,,,,,,,green,triangle
0.0,4.0,4.0,0.0,6.0,6.0,250.67682500230148,2.0,1.0,phase_2,go,0.0,200.0,1.0,,,,,,,,,magenta,square
0.0,2.0,2.0,0.0,5.0,5.0,419.136544020148,2.0,1.0,phase_2,go,0.0,200.0,1.0,,,,,,,,,blue,hexagon
0.0,1.0,1.0,0.0,6.0,6.0,483.629939990351,2.0,1.0,phase_2,go,0.0,200.0,1.0,,,,,,,,,orange,circle
0.0,1.0,1.0,0.0,5.0,5.0,340.5307859939057,2.0,1.0,phase_2,go,0.0,200.0,1.0,,,,,,,,,orange,circle
0.0,6.0,2.0,1.0,6.0,6.0,227.2686950163915,2.0,1.0,phase_2,stop,0.0,200.0,3.0,,,,,,,,,yellow,diamond
0.0,1.0,1.0,0.0,5.0,5.0,312.5379389966838,2.0,1.0,phase_2,go,0.0,150.0,1.0,,,,,,,,,orange,circle
0.0,7.0,3.0,1.0,6.0,6.0,242.3582290066406,2.0,1.0,phase_2,stop,0.0,150.0,3.0,,,,,,,,,white,cross
0.0,4.0,4.0,0.0,6.0,6.0,264.1133650031406,2.0,1.0,phase_2,go,0.0,100.0,1.0,,,,,,,,,magenta,square
0.0,3.0,3.0,0.0,6.0,6.0,280.1838540181052,2.0,1.0,phase_2,go,0.0,100.0,1.0,,,,,,,,,gray,flipped triangle
0.0,8.0,4.0,1.0,6.0,0.0,0.0,2.0,1.0,phase_2,stop,0.0,100.0,4.0,,,,,,,,,cyan,I
0.0,7.0,3.0,1.0,6.0,0.0,0.0,2.0,1.0,phase_2,stop,0.0,150.0,4.0,,,,,,,,,white,cross
0.0,4.0,4.0,0.0,5.0,5.0,262.9833859973587,2.0,1.0,phase_2,go,0.0,200.0,1.0,,,,,,,,,magenta,square
0.0,1.0,1.0,0.0,6.0,6.0,268.380777008133,2.0,1.0,phase_2,go,0.0,200.0,1.0,,,,,,,,,orange,circle
0.0,3.0,3.0,0.0,5.0,5.0,245.9146270120982,2.0,1.0,phase_2,go,0.0,200.0,1.0,,,,,,,,,gray,flipped triangle
0.0,1.0,1.0,0.0,6.0,6.0,428.0557449965272,2.0,1.0,phase_2,go,0.0,200.0,1.0,,,,,,,,,orange,circle
0.0,6.0,2.0,1.0,5.0,5.0,197.5009599991608,2.0,1.0,phase_2,go,0.0,200.0,1.0,,,,,,,,,yellow,diamond
0.0,2.0,2.0,0.0,5.0,5.0,531.3367159978952,3.0,1.0,phase_2,go,0.0,200.0,1.0,,,,,,,,,blue,hexagon
0.0,6.0,2.0,1.0,5.0,5.0,234.1673189948778,3.0,1.0,phase_2,stop,0.0,200.0,3.0,,,,,,,,,yellow,diamond
0.0,6.0,2.0,1.0,5.0,5.0,259.5321009866893,3.0,1.0,phase_2,go,0.0,200.0,1.0,,,,,,,,,yellow,diamond
0.0,1.0,1.0,0.0,5.0,5.0,234.1338080004789,3.0,1.0,phase_2,go,0.0,200.0,1.0,,,,,,,,,orange,circle
0.0,3.0,3.0,0.0,5.0,5.0,234.701795008732,3.0,1.0,phase_2,go,0.0,200.0,1.0,,,,,,,,,gray,flipped triangle
0.0,2.0,2.0,0.0,6.0,6.0,254.7050510183908,3.0,1.0,phase_2,go,0.0,200.0,1.0,,,,,,,,,blue,hexagon
0.0,6.0,2.0,1.0,6.0,6.0,240.9779659938067,3.0,1.0,phase_2,stop,0.0,200.0,3.0,,,,,,,,,yellow,diamond
0.0,6.0,2.0,1.0,5.0,0.0,0.0,3.0,1.0,phase_2,stop,0.0,150.0,4.0,,,,,,,,,yellow,diamond
0.0,2.0,2.0,0.0,5.0,5.0,358.8568569975905,3.0,1.0,phase_2,go,50.0,150.0,1.0,,,,,,,,,blue,hexagon
0.0,6.0,2.0,1.0,5.0,0.0,0.0,3.0,1.0,phase_2,stop,50.0,150.0,4.0,,,,,,,,,yellow,diamond
0.0,8.0,4.0,1.0,6.0,6.0,253.7003769830335,3.0,1.0,phase_2,stop,100.0,150.0,3.0,,,,,,,,,cyan,I
0.0,8.0,4.0,1.0,5.0,5.0,307.6074050040915,3.0,1.0,phase_2,go,100.0,100.0,1.0,,,,,,,,,cyan,I
0.0,1.0,1.0,0.0,5.0,5.0,396.385708998423,3.0,1.0,phase_2,go,100.0,100.0,1.0,,,,,,,,,orange,circle
0.0,3.0,3.0,0.0,6.0,6.0,313.8323810126167,3.0,1.0,phase_2,go,100.0,100.0,1.0,,,,,,,,,gray,flipped triangle
0.0,2.0,2.0,0.0,6.0,6.0,257.8722379985265,3.0,1.0,phase_2,go,100.0,100.0,1.0,,,,,,,,,blue,hexagon
0.0,8.0,4.0,1.0,5.0,5.0,244.4295020250138,3.0,1.0,phase_2,stop,100.0,100.0,3.0,,,,,,,,,cyan,I
0.0,8.0,4.0,1.0,5.0,5.0,241.7617719911504,3.0,1.0,phase_2,stop,50.0,100.0,3.0,,,,,,,,,cyan,I
0.0,8.0,4.0,1.0,6.0,0.0,0.0,3.0,1.0,phase_2,stop,0.0,100.0,4.0,,,,,,,,,cyan,I
0.0,6.0,2.0,1.0,6.0,6.0,374.9804320104886,3.0,1.0,phase_2,go,0.0,150.0,1.0,,,,,,,,,yellow,diamond
0.0,8.0,4.0,1.0,6.0,6.0,321.3430519972462,3.0,1.0,phase_2,stop,0.0,150.0,3.0,,,,,,,,,cyan,I
0.0,1.0,1.0,0.0,6.0,6.0,365.9102389938198,3.0,1.0,phase_2,go,0.0,100.0,1.0,,,,,,,,,orange,circle
0.0,1.0,1.0,0.0,6.0,6.0,293.1741159991361,3.0,1.0,phase_2,go,0.0,100.0,1.0,,,,,,,,,orange,circle
0.0,6.0,2.0,1.0,6.0,0.0,0.0,3.0,1.0,phase_2,stop,0.0,100.0,4.0,,,,,,,,,yellow,diamond
0.0,7.0,3.0,1.0,5.0,5.0,383.707946020877,3.0,1.0,phase_2,go,0.0,150.0,1.0,,,,,,,,,white,cross
0.0,2.0,2.0,0.0,6.0,6.0,308.4690179966856,3.0,1.0,phase_2,go,0.0,150.0,1.0,,,,,,,,,blue,hexagon
0.0,5.0,1.0,1.0,5.0,0.0,0.0,3.0,1.0,phase_2,stop,0.0,150.0,4.0,,,,,,,,,green,triangle
0.0,8.0,4.0,1.0,6.0,6.0,269.0013099927455,3.0,1.0,phase_2,stop,50.0,150.0,3.0,,,,,,,,,cyan,I
0.0,3.0,3.0,0.0,5.0,5.0,205.8665640070103,3.0,1.0,phase_2,go,50.0,100.0,1.0,,,,,,,,,gray,flipped triangle
0.0,8.0,4.0,1.0,6.0,6.0,203.9983870054129,3.0,1.0,phase_2,stop,50.0,100.0,3.0,,,,,,,,,cyan,I
0.0,5.0,1.0,1.0,6.0,6.0,280.4618680092972,3.0,1.0,phase_2,go,50.0,50.0,1.0,,,,,,,,,green,triangle
0.0,1.0,1.0,0.0,5.0,5.0,242.3932499950751,3.0,1.0,phase_2,go,50.0,50.0,1.0,,,,,,,,,orange,circle
0.0,5.0,1.0,1.0,5.0,0.0,0.0,3.0,1.0,phase_2,stop,50.0,50.0,4.0,,,,,,,,,green,triangle
0.0,6.0,2.0,1.0,5.0,0.0,0.0,3.0,1.0,phase_2,stop,100.0,50.0,4.0,,,,,,,,,yellow,diamond
0.0,3.0,3.0,0.0,6.0,6.0,278.6164590215776,3.0,1.0,phase_2,go,150.0,50.0,1.0,,,,,,,,,gray,flipped triangle
0.0,5.0,1.0,1.0,5.0,5.0,265.5181170266587,3.0,1.0,phase_2,stop,150.0,50.0,3.0,,,,,,,,,green,triangle
0.0,4.0,4.0,0.0,6.0,6.0,285.7237519929185,3.0,1.0,phase_2,go,100.0,50.0,1.0,,,,,,,,,magenta,square
0.0,1.0,1.0,0.0,5.0,5.0,246.5108159813098,4.0,1.0,phase_2,go,100.0,50.0,1.0,,,,,,,,,orange,circle
0.0,4.0,4.0,0.0,5.0,5.0,266.6040629846975,4.0,1.0,phase_2,go,100.0,50.0,1.0,,,,,,,,,magenta,square
0.0,3.0,3.0,0.0,6.0,6.0,300.4510360187851,4.0,1.0,phase_2,go,100.0,50.0,1.0,,,,,,,,,gray,flipped triangle
0.0,2.0,2.0,0.0,6.0,6.0,292.0874840056058,4.0,1.0,phase_2,go,100.0,50.0,1.0,,,,,,,,,blue,hexagon
0.0,8.0,4.0,1.0,5.0,5.0,217.3023229988757,4.0,1.0,phase_2,go,100.0,50.0,1.0,,,,,,,,,cyan,I
0.0,7.0,3.0,1.0,5.0,5.0,193.2588960044086,4.0,1.0,phase_2,stop,100.0,50.0,3.0,,,,,,,,,white,cross
0.0,5.0,1.0,1.0,5.0,0.0,0.0,4.0,1.0,phase_2,stop,50.0,50.0,4.0,,,,,,,,,green,triangle
0.0,2.0,2.0,0.0,6.0,6.0,303.5735260054935,4.0,1.0,phase_2,go,100.0,50.0,1.0,,,,,,,,,blue,hexagon
0.0,8.0,4.0,1.0,6.0,0.0,0.0,4.0,1.0,phase_2,stop,100.0,50.0,4.0,,,,,,,,,cyan,I
0.0,4.0,4.0,0.0,5.0,5.0,285.7406899856869,4.0,1.0,phase_2,go,100.0,100.0,1.0,,,,,,,,,magenta,square
0.0,5.0,1.0,1.0,5.0,5.0,301.579832972493,4.0,1.0,phase_2,stop,100.0,100.0,3.0,,,,,,,,,green,triangle
0.0,8.0,4.0,1.0,6.0,0.0,0.0,4.0,1.0,phase_2,stop,50.0,100.0,4.0,,,,,,,,,cyan,I
0.0,5.0,1.0,1.0,6.0,0.0,0.0,4.0,1.0,phase_2,stop,50.0,150.0,4.0,,,,,,,,,green,triangle
0.0,4.0,4.0,0.0,6.0,6.0,332.3455009958707,4.0,1.0,phase_2,go,50.0,200.0,1.0,,,,,,,,,magenta,square
0.0,4.0,4.0,0.0,6.0,6.0,350.30605000793,4.0,1.0,phase_2,go,50.0,200.0,1.0,,,,,,,,,magenta,square
0.0,2.0,2.0,0.0,6.0,6.0,346.436766005354,4.0,1.0,phase_2,go,50.0,200.0,1.0,,,,,,,,,blue,hexagon
0.0,6.0,2.0,1.0,5.0,0.0,0.0,4.0,1.0,phase_2,stop,50.0,200.0,4.0,,,,,,,,,yellow,diamond
0.0,4.0,4.0,0.0,6.0,6.0,472.9702580079902,4.0,1.0,phase_2,go,100.0,200.0,1.0,,,,,,,,,magenta,square
0.0,1.0,1.0,0.0,6.0,6.0,284.9404120061081,4.0,1.0,phase_2,go,100.0,200.0,1.0,,,,,,,,,orange,circle
0.0,3.0,3.0,0.0,6.0,6.0,259.2578449985012,4.0,1.0,phase_2,go,100.0,200.0,1.0,,,,,,,,,gray,flipped triangle
0.0,2.0,2.0,0.0,6.0,6.0,362.088149995543,4.0,1.0,phase_2,go,100.0,200.0,1.0,,,,,,,,,blue,hexagon
0.0,8.0,4.0,1.0,5.0,5.0,320.9351230179891,4.0,1.0,phase_2,go,100.0,200.0,1.0,,,,,,,,,cyan,I
0.0,8.0,4.0,1.0,6.0,6.0,297.7993180102203,4.0,1.0,phase_2,stop,100.0,200.0,3.0,,,,,,,,,cyan,I
0.0,1.0,1.0,0.0,6.0,6.0,465.171250019921,4.0,1.0,phase_2,go,100.0,150.0,1.0,,,,,,,,,orange,circle
0.0,7.0,3.0,1.0,6.0,6.0,289.5497500139754,4.0,1.0,phase_2,go,100.0,150.0,1.0,,,,,,,,,white,cross
0.0,5.0,1.0,1.0,5.0,5.0,279.8834829882253,4.0,1.0,phase_2,stop,100.0,150.0,3.0,,,,,,,,,green,triangle
0.0,5.0,1.0,1.0,6.0,6.0,244.0737810102291,4.0,1.0,phase_2,stop,50.0,150.0,3.0,,,,,,,,,green,triangle
0.0,4.0,4.0,0.0,6.0,6.0,356.0056719870772,4.0,1.0,phase_2,go,50.0,100.0,1.0,,,,,,,,,magenta,square
0.0,3.0,3.0,0.0,5.0,5.0,284.2969640041701,4.0,1.0,phase_2,go,50.0,100.0,1.0,,,,,,,,,gray,flipped triangle
0.0,4.0,4.0,0.0,5.0,5.0,316.8048490188084,4.0,1.0,phase_2,go,50.0,100.0,1.0,,,,,,,,,magenta,square
0.0,6.0,2.0,1.0,6.0,6.0,228.5189809917938,4.0,1.0,phase_2,stop,50.0,100.0,3.0,,,,,,,,,yellow,diamond
0.0,7.0,3.0,1.0,6.0,0.0,0.0,4.0,1.0,phase_2,stop,50.0,50.0,4.0,,,,,,,,,white,cross
0.0,1.0,1.0,0.0,5.0,5.0,363.1276959786191,4.0,1.0,phase_2,go,50.0,100.0,1.0,,,,,,,,,orange,circle
0.0,4.0,4.0,0.0,5.0,5.0,276.6649800178129,4.0,1.0,phase_2,go,50.0,100.0,1.0,,,,,,,,,magenta,square
0.0,4.0,4.0,0.0,6.0,6.0,332.1181799983606,4.0,1.0,phase_2,go,50.0,100.0,1.0,,,,,,,,,magenta,square
0.0,3.0,3.0,0.0,6.0,6.0,272.1272500057239,4.0,1.0,phase_2,go,50.0,100.0,1.0,,,,,,,,,gray,flipped triangle
0.0,5.0,1.0,1.0,6.0,6.0,377.384912018897,5.0,1.0,phase_2,go,50.0,100.0,1.0,,,,,,,,,green,triangle
0.0,7.0,3.0,1.0,5.0,0.0,0.0,5.0,1.0,phase_2,stop,50.0,100.0,4.0,,,,,,,,,white,cross
0.0,2.0,2.0,0.0,6.0,6.0,264.0519110136665,5.0,1.0,phase_2,go,100.0,100.0,1.0,,,,,,,,,blue,hexagon
0.0,2.0,2.0,0.0,5.0,5.0,288.6837529949844,5.0,1.0,phase_2,go,100.0,100.0,1.0,,,,,,,,,blue,hexagon
0.0,6.0,2.0,1.0,6.0,6.0,286.88661797787057,5.0,1.0,phase_2,stop,100.0,100.0,3.0,,,,,,,,,yellow,diamond
0.0,6.0,2.0,1.0,5.0,5.0,275.9338070172816,5.0,1.0,phase_2,stop,100.0,50.0,3.0,,,,,,,,,yellow,diamond
0.0,8.0,4.0,1.0,5.0,0.0,0.0,5.0,1.0,phase_2,stop,50.0,50.0,4.0,,,,,,,,,cyan,I
0.0,1.0,1.0,0.0,6.0,6.0,310.6971320230514,5.0,1.0,phase_2,go,100.0,50.0,1.0,,,,,,,,,orange,circle
0.0,4.0,4.0,0.0,5.0,5.0,324.3012290040497,5.0,1.0,phase_2,go,100.0,50.0,1.0,,,,,,,,,magenta,square
0.0,4.0,4.0,0.0,6.0,6.0,345.5807309946976,5.0,1.0,phase_2,go,100.0,50.0,1.0,,,,,,,,,magenta,square
0.0,2.0,2.0,0.0,5.0,5.0,275.57285098009737,5.0,1.0,phase_2,go,100.0,50.0,1.0,,,,,,,,,blue,hexagon
0.0,6.0,2.0,1.0,5.0,5.0,296.6749449842609,5.0,1.0,phase_2,go,100.0,50.0,1.0,,,,,,,,,yellow,diamond
0.0,6.0,2.0,1.0,5.0,5.0,280.5251480021979,5.0,1.0,phase_2,stop,100.0,50.0,3.0,,,,,,,,,yellow,diamond
0.0,1.0,1.0,0.0,5.0,5.0,379.02687699534,5.0,1.0,phase_2,go,50.0,50.0,1.0,,,,,,,,,orange,circle
0.0,5.0,1.0,1.0,5.0,0.0,0.0,5.0,1.0,phase_2,stop,50.0,50.0,4.0,,,,,,,,,green,triangle
0.0,6.0,2.0,1.0,5.0,0.0,0.0,5.0,1.0,phase_2,stop,100.0,50.0,4.0,,,,,,,,,yellow,diamond
0.0,4.0,4.0,0.0,6.0,6.0,273.5195060085971,5.0,1.0,phase_2,go,150.0,50.0,1.0,,,,,,,,,magenta,square
0.0,7.0,3.0,1.0,5.0,5.0,279.3759310152381,5.0,1.0,phase_2,stop,150.0,50.0,3.0,,,,,,,,,white,cross
0.0,7.0,3.0,1.0,6.0,0.0,0.0,5.0,1.0,phase_2,stop,100.0,50.0,4.0,,,,,,,,,white,cross
0.0,7.0,3.0,1.0,5.0,0.0,0.0,5.0,1.0,phase_2,stop,100.0,100.0,4.0,,,,,,,,,white,cross
0.0,3.0,3.0,0.0,5.0,5.0,419.3967730097938,5.0,1.0,phase_2,go,150.0,100.0,1.0,,,,,,,,,gray,flipped triangle
0.0,5.0,1.0,1.0,6.0,0.0,0.0,5.0,1.0,phase_2,stop,150.0,100.0,4.0,,,,,,,,,green,triangle
0.0,6.0,2.0,1.0,6.0,6.0,394.1285620094277,5.0,1.0,phase_2,go,150.0,150.0,1.0,,,,,,,,,yellow,diamond
0.0,3.0,3.0,0.0,6.0,6.0,401.4016829896718,5.0,1.0,phase_2,go,150.0,150.0,1.0,,,,,,,,,gray,flipped triangle
0.0,2.0,2.0,0.0,5.0,5.0,403.7541800062172,5.0,1.0,phase_2,go,150.0,150.0,1.0,,,,,,,,,blue,hexagon
0.0,8.0,4.0,1.0,5.0,5.0,299.743977986509,5.0,1.0,phase_2,go,150.0,150.0,1.0,,,,,,,,,cyan,I
0.0,4.0,4.0,0.0,5.0,5.0,296.7457180202473,5.0,1.0,phase_2,go,150.0,150.0,1.0,,,,,,,,,magenta,square
0.0,5.0,1.0,1.0,6.0,0.0,0.0,5.0,1.0,phase_2,stop,150.0,150.0,4.0,,,,,,,,,green,triangle
0.0,7.0,3.0,1.0,5.0,5.0,279.6064610010944,5.0,1.0,phase_2,stop,150.0,200.0,3.0,,,,,,,,,white,cross
0.0,3.0,3.0,0.0,6.0,6.0,353.4517619991675,5.0,1.0,phase_2,go,100.0,200.0,1.0,,,,,,,,,gray,flipped triangle
0.0,6.0,2.0,1.0,6.0,6.0,222.1605700033251,5.0,1.0,phase_2,stop,100.0,200.0,3.0,,,,,,,,,yellow,diamond
0.0,8.0,4.0,1.0,6.0,6.0,312.8684300172608,5.0,1.0,phase_2,stop,100.0,150.0,3.0,,,,,,,,,cyan,I
0.0,5.0,1.0,1.0,6.0,0.0,0.0,5.0,1.0,phase_2,stop,100.0,100.0,4.0,,,,,,,,,green,triangle
0.0,2.0,2.0,0.0,6.0,6.0,588.4384870005306,5.0,1.0,phase_2,go,100.0,150.0,1.0,,,,,,,,,blue,hexagon
0.0,7.0,3.0,1.0,5.0,5.0,261.6116249992046,5.0,1.0,phase_2,stop,100.0,150.0,3.0,,,,,,,,,white,cross
0.0,3.0,3.0,0.0,6.0,6.0,363.8138920068741,5.0,1.0,phase_2,go,50.0,150.0,1.0,,,,,,,,,gray,flipped triangle
0.0,7.0,3.0,1.0,6.0,6.0,320.341434009606,6.0,1.0,phase_2,go,50.0,150.0,1.0,,,,,,,,,white,cross
0.0,5.0,1.0,1.0,6.0,6.0,287.3740080103744,6.0,1.0,phase_2,go,50.0,150.0,1.0,,,,,,,,,green,triangle
0.0,6.0,2.0,1.0,6.0,6.0,244.0756680152844,6.0,1.0,phase_2,go,50.0,150.0,1.0,,,,,,,,,yellow,diamond
0.0,3.0,3.0,0.0,6.0,6.0,230.041731003439,6.0,1.0,phase_2,go,50.0,150.0,1.0,,,,,,,,,gray,flipped triangle
0.0,4.0,4.0,0.0,5.0,5.0,266.8273680028505,6.0,1.0,phase_2,go,50.0,150.0,1.0,,,,,,,,,magenta,square
0.0,6.0,2.0,1.0,5.0,5.0,258.7901049992069,6.0,1.0,phase_2,stop,50.0,150.0,3.0,,,,,,,,,yellow,diamond
0.0,1.0,1.0,0.0,5.0,5.0,421.8035230005625,6.0,1.0,phase_2,go,0.0,150.0,1.0,,,,,,,,,orange,circle
0.0,8.0,4.0,1.0,5.0,0.0,0.0,6.0,1.0,phase_2,stop,0.0,150.0,4.0,,,,,,,,,cyan,I
0.0,8.0,4.0,1.0,5.0,5.0,467.5532010151073,6.0,1.0,phase_2,go,50.0,150.0,1.0,,,,,,,,,cyan,I
0.0,7.0,3.0,1.0,5.0,5.0,280.1953089947346,6.0,1.0,phase_2,go,50.0,150.0,1.0,,,,,,,,,white,cross
0.0,4.0,4.0,0.0,5.0,5.0,345.6887089996598,6.0,1.0,phase_2,go,50.0,150.0,1.0,,,,,,,,,magenta,square
0.0,6.0,2.0,1.0,6.0,6.0,258.0832570092752,6.0,1.0,phase_2,stop,50.0,150.0,3.0,,,,,,,,,yellow,diamond
0.0,5.0,1.0,1.0,5.0,5.0,256.485240010079,6.0,1.0,phase_2,stop,50.0,100.0,3.0,,,,,,,,,green,triangle
0.0,3.0,3.0,0.0,5.0,5.0,393.8485539983958,6.0,1.0,phase_2,go,0.0,100.0,1.0,,,,,,,,,gray,flipped triangle
0.0,3.0,3.0,0.0,6.0,6.0,293.0193550128024,6.0,1.0,phase_2,go,0.0,100.0,1.0,,,,,,,,,gray,flipped triangle
0.0,5.0,1.0,1.0,5.0,0.0,0.0,6.0,1.0,phase_2,stop,0.0,100.0,4.0,,,,,,,,,green,triangle
0.0,7.0,3.0,1.0,6.0,6.0,287.8377930028364,6.0,1.0,phase_2,go,50.0,100.0,1.0,,,,,,,,,white,cross
0.0,7.0,3.0,1.0,6.0,6.0,325.7228510046843,6.0,1.0,phase_2,stop,50.0,100.0,3.0,,,,,,,,,white,cross
0.0,3.0,3.0,0.0,5.0,5.0,341.4963920076843,6.0,1.0,phase_2,go,50.0,50.0,1.0,,,,,,,,,gray,flipped triangle
0.0,7.0,3.0,1.0,6.0,0.0,0.0,6.0,1.0,phase_2,stop,50.0,50.0,4.0,,,,,,,,,white,cross
0.0,3.0,3.0,0.0,6.0,6.0,404.1857320116833,6.0,1.0,phase_2,go,50.0,100.0,1.0,,,,,,,,,gray,flipped triangle
0.0,4.0,4.0,0.0,5.0,5.0,283.890902006533,6.0,1.0,phase_2,go,50.0,100.0,1.0,,,,,,,,,magenta,square
0.0,3.0,3.0,0.0,5.0,5.0,272.7396500122268,6.0,1.0,phase_2,go,50.0,100.0,1.0,,,,,,,,,gray,flipped triangle
0.0,2.0,2.0,0.0,6.0,6.0,337.489261990413,6.0,1.0,phase_2,go,50.0,100.0,1.0,,,,,,,,,blue,hexagon
0.0,6.0,2.0,1.0,5.0,0.0,0.0,6.0,1.0,phase_2,stop,50.0,100.0,4.0,,,,,,,,,yellow,diamond
0.0,8.0,4.0,1.0,6.0,6.0,359.7586209943983,6.0,1.0,phase_2,go,100.0,100.0,1.0,,,,,,,,,cyan,I
0.0,2.0,2.0,0.0,5.0,5.0,318.6160110053606,6.0,1.0,phase_2,go,100.0,100.0,1.0,,,,,,,,,blue,hexagon
0.0,4.0,4.0,0.0,6.0,6.0,280.8659730071667,6.0,1.0,phase_2,go,100.0,100.0,1.0,,,,,,,,,magenta,square
0.0,6.0,2.0,1.0,6.0,6.0,281.6094819863792,6.0,1.0,phase_2,stop,100.0,100.0,3.0,,,,,,,,,yellow,diamond
0.0,1.0,1.0,0.0,6.0,6.0,461.8322009919211,6.0,1.0,phase_2,go,100.0,50.0,1.0,,,,,,,,,orange,circle
0.0,7.0,3.0,1.0,5.0,5.0,308.6439289909322,6.0,1.0,phase_2,go,100.0,50.0,1.0,,,,,,,,,white,cross
0.0,7.0,3.0,1.0,6.0,0.0,0.0,6.0,1.0,phase_2,stop,100.0,50.0,4.0,,,,,,,,,white,cross
0.0,7.0,3.0,1.0,5.0,5.0,277.5615839927923,6.0,1.0,phase_2,stop,100.0,100.0,3.0,,,,,,,,,white,cross
0.0,6.0,2.0,1.0,6.0,0.0,0.0,6.0,1.0,phase_2,stop,50.0,100.0,4.0,,,,,,,,,yellow,diamond
0.0,8.0,4.0,1.0,6.0,6.0,394.2863669944927,6.0,1.0,phase_2,go,50.0,150.0,1.0,,,,,,,,,cyan,I
0.0,6.0,2.0,1.0,5.0,0.0,0.0,6.0,1.0,phase_2,stop,50.0,150.0,4.0,,,,,,,,,yellow,diamond
0.0,4.0,4.0,0.0,6.0,6.0,293.0579499807209,7.0,1.0,phase_2,go,100.0,150.0,1.0,,,,,,,,,magenta,square
0.0,2.0,2.0,0.0,6.0,6.0,267.2409590159077,7.0,1.0,phase_2,go,100.0,150.0,1.0,,,,,,,,,blue,hexagon
0.0,2.0,2.0,0.0,5.0,5.0,283.5501660010777,7.0,1.0,phase_2,go,100.0,150.0,1.0,,,,,,,,,blue,hexagon
0.0,6.0,2.0,1.0,5.0,5.0,268.0337489873636,7.0,1.0,phase_2,stop,100.0,150.0,3.0,,,,,,,,,yellow,diamond
0.0,6.0,2.0,1.0,5.0,0.0,0.0,7.0,1.0,phase_2,stop,50.0,150.0,4.0,,,,,,,,,yellow,diamond
0.0,1.0,1.0,0.0,5.0,5.0,312.4882310221437,7.0,1.0,phase_2,go,100.0,150.0,1.0,,,,,,,,,orange,circle
0.0,2.0,2.0,0.0,6.0,6.0,303.3074279956054,7.0,1.0,phase_2,go,100.0,150.0,1.0,,,,,,,,,blue,hexagon
0.0,5.0,1.0,1.0,6.0,6.0,288.9050089870579,7.0,1.0,phase_2,go,100.0,150.0,1.0,,,,,,,,,green,triangle
0.0,5.0,1.0,1.0,5.0,0.0,0.0,7.0,1.0,phase_2,stop,100.0,150.0,4.0,,,,,,,,,green,triangle
0.0,8.0,4.0,1.0,5.0,5.0,325.2790659898892,7.0,1.0,phase_2,stop,150.0,150.0,3.0,,,,,,,,,cyan,I
0.0,3.0,3.0,0.0,6.0,6.0,333.7732150102965,7.0,1.0,phase_2,go,100.0,150.0,1.0,,,,,,,,,gray,flipped triangle
0.0,2.0,2.0,0.0,6.0,6.0,326.3602709921542,7.0,1.0,phase_2,go,100.0,150.0,1.0,,,,,,,,,blue,hexagon
0.0,3.0,3.0,0.0,5.0,5.0,307.8723780054133,7.0,1.0,phase_2,go,100.0,150.0,1.0,,,,,,,,,gray,flipped triangle
0.0,3.0,3.0,0.0,6.0,6.0,303.2777390035335,7.0,1.0,phase_2,go,100.0,150.0,1.0,,,,,,,,,gray,flipped triangle
0.0,7.0,3.0,1.0,5.0,0.0,0.0,7.0,1.0,phase_2,stop,100.0,150.0,4.0,,,,,,,,,white,cross
0.0,2.0,2.0,0.0,5.0,5.0,350.1058029942214,7.0,1.0,phase_2,go,150.0,150.0,1.0,,,,,,,,,blue,hexagon
0.0,4.0,4.0,0.0,5.0,5.0,275.8643899869639,7.0,1.0,phase_2,go,150.0,150.0,1.0,,,,,,,,,magenta,square
0.0,7.0,3.0,1.0,5.0,5.0,264.8250059864949,7.0,1.0,phase_2,stop,150.0,150.0,3.0,,,,,,,,,white,cross
0.0,7.0,3.0,1.0,6.0,0.0,0.0,7.0,1.0,phase_2,stop,100.0,150.0,4.0,,,,,,,,,white,cross
0.0,8.0,4.0,1.0,6.0,6.0,425.5790140014142,7.0,1.0,phase_2,go,100.0,200.0,1.0,,,,,,,,,cyan,I
0.0,7.0,3.0,1.0,6.0,6.0,320.1350560120772,7.0,1.0,phase_2,stop,100.0,200.0,3.0,,,,,,,,,white,cross
0.0,2.0,2.0,0.0,5.0,5.0,417.4200480047147,7.0,1.0,phase_2,go,100.0,150.0,1.0,,,,,,,,,blue,hexagon
0.0,1.0,1.0,0.0,6.0,6.0,390.6648700067308,7.0,1.0,phase_2,go,100.0,150.0,1.0,,,,,,,,,orange,circle
0.0,5.0,1.0,1.0,6.0,0.0,0.0,7.0,1.0,phase_2,stop,100.0,150.0,4.0,,,,,,,,,green,triangle
0.0,3.0,3.0,0.0,5.0,5.0,424.1928159899544,7.0,1.0,phase_2,go,100.0,200.0,1.0,,,,,,,,,gray,flipped triangle
0.0,3.0,3.0,0.0,6.0,6.0,336.648063006578,7.0,1.0,phase_2,go,100.0,200.0,1.0,,,,,,,,,gray,flipped triangle
0.0,1.0,1.0,0.0,5.0,5.0,335.2562090149149,7.0,1.0,phase_2,go,100.0,200.0,1.0,,,,,,,,,orange,circle
0.0,8.0,4.0,1.0,5.0,0.0,0.0,7.0,1.0,phase_2,stop,100.0,200.0,4.0,,,,,,,,,cyan,I
0.0,4.0,4.0,0.0,5.0,5.0,309.7314950136933,7.0,1.0,phase_2,go,150.0,200.0,1.0,,,,,,,,,magenta,square
0.0,8.0,4.0,1.0,6.0,6.0,301.3376090093516,7.0,1.0,phase_2,stop,150.0,200.0,3.0,,,,,,,,,cyan,I
0.0,2.0,2.0,0.0,6.0,6.0,354.1346869897097,7.0,1.0,phase_2,go,150.0,150.0,1.0,,,,,,,,,blue,hexagon
0.0,2.0,2.0,0.0,5.0,5.0,251.4972570061218,7.0,1.0,phase_2,go,150.0,150.0,1.0,,,,,,,,,blue,hexagon
0.0,5.0,1.0,1.0,5.0,0.0,0.0,7.0,1.0,phase_2,stop,150.0,150.0,4.0,,,,,,,,,green,triangle
0.0,8.0,4.0,1.0,6.0,0.0,0.0,7.0,1.0,phase_2,stop,200.0,150.0,4.0,,,,,,,,,cyan,I
0.0,2.0,2.0,0.0,5.0,5.0,290.1307510037441,7.0,1.0,phase_2,go,200.0,200.0,1.0,,,,,,,,,blue,hexagon
0.0,2.0,2.0,0.0,5.0,5.0,328.9500570099335,7.0,1.0,phase_2,go,200.0,200.0,1.0,,,,,,,,,blue,hexagon
0.0,7.0,3.0,1.0,6.0,6.0,293.517984013306,8.0,1.0,phase_2,stop,200.0,200.0,3.0,,,,,,,,,white,cross
0.0,7.0,3.0,1.0,5.0,5.0,290.5852219846565,8.0,1.0,phase_2,stop,200.0,150.0,3.0,,,,,,,,,white,cross
0.0,7.0,3.0,1.0,6.0,0.0,0.0,8.0,1.0,phase_2,stop,150.0,150.0,4.0,,,,,,,,,white,cross
0.0,1.0,1.0,0.0,5.0,5.0,316.432646010071,8.0,1.0,phase_2,go,150.0,200.0,1.0,,,,,,,,,orange,circle
0.0,5.0,1.0,1.0,6.0,6.0,345.6685319833923,8.0,1.0,phase_2,go,150.0,200.0,1.0,,,,,,,,,green,triangle
0.0,2.0,2.0,0.0,6.0,6.0,335.5331479979213,8.0,1.0,phase_2,go,150.0,200.0,1.0,,,,,,,,,blue,hexagon
0.0,7.0,3.0,1.0,6.0,6.0,305.2701689884998,8.0,1.0,phase_2,stop,150.0,200.0,3.0,,,,,,,,,white,cross
0.0,7.0,3.0,1.0,5.0,5.0,289.0674670052249,8.0,1.0,phase_2,stop,150.0,150.0,3.0,,,,,,,,,white,cross
0.0,3.0,3.0,0.0,5.0,5.0,321.1097220191732,8.0,1.0,phase_2,go,100.0,150.0,1.0,,,,,,,,,gray,flipped triangle
0.0,2.0,2.0,0.0,5.0,5.0,309.1007620096206,8.0,1.0,phase_2,go,100.0,150.0,1.0,,,,,,,,,blue,hexagon
0.0,8.0,4.0,1.0,5.0,0.0,0.0,8.0,1.0,phase_2,stop,100.0,150.0,4.0,,,,,,,,,cyan,I
0.0,3.0,3.0,0.0,5.0,5.0,431.2229120114352,8.0,1.0,phase_2,go,150.0,150.0,1.0,,,,,,,,,gray,flipped triangle
0.0,5.0,1.0,1.0,6.0,6.0,366.3935839722398,8.0,1.0,phase_2,go,150.0,150.0,1.0,,,,,,,,,green,triangle
0.0,4.0,4.0,0.0,6.0,6.0,357.8656109748408,8.0,1.0,phase_2,go,150.0,150.0,1.0,,,,,,,,,magenta,square
0.0,8.0,4.0,1.0,5.0,0.0,0.0,8.0,1.0,phase_2,stop,150.0,150.0,4.0,,,,,,,,,cyan,I
0.0,1.0,1.0,0.0,6.0,6.0,363.1799230061006,8.0,1.0,phase_2,go,200.0,150.0,1.0,,,,,,,,,orange,circle
0.0,1.0,1.0,0.0,5.0,5.0,529.5474050217308,8.0,1.0,phase_2,go,200.0,150.0,1.0,,,,,,,,,orange,circle
0.0,1.0,1.0,0.0,5.0,5.0,379.8199899902101,8.0,1.0,phase_2,go,200.0,150.0,1.0,,,,,,,,,orange,circle
0.0,6.0,2.0,1.0,6.0,6.0,313.9366050017997,8.0,1.0,phase_2,go,200.0,150.0,1.0,,,,,,,,,yellow,diamond
0.0,8.0,4.0,1.0,5.0,5.0,321.828446991276,8.0,1.0,phase_2,go,200.0,150.0,1.0,,,,,,,,,cyan,I
0.0,7.0,3.0,1.0,6.0,6.0,450.0210980186239,8.0,1.0,phase_2,go,200.0,150.0,1.0,,,,,,,,,white,cross
0.0,7.0,3.0,1.0,5.0,5.0,328.6699380259961,8.0,1.0,phase_2,stop,200.0,150.0,3.0,,,,,,,,,white,cross
0.0,3.0,3.0,0.0,6.0,6.0,334.0396019921172,8.0,1.0,phase_2,go,150.0,150.0,1.0,,,,,,,,,gray,flipped triangle
0.0,4.0,4.0,0.0,6.0,6.0,349.3949259864166,8.0,1.0,phase_2,go,150.0,150.0,1.0,,,,,,,,,magenta,square
0.0,5.0,1.0,1.0,5.0,5.0,284.9638749903533,8.0,1.0,phase_2,stop,150.0,150.0,3.0,,,,,,,,,green,triangle
0.0,8.0,4.0,1.0,5.0,0.0,0.0,8.0,1.0,phase_2,stop,100.0,150.0,4.0,,,,,,,,,cyan,I
0.0,1.0,1.0,0.0,5.0,5.0,451.8603410106152,8.0,1.0,phase_2,go,150.0,150.0,1.0,,,,,,,,,orange,circle
0.0,2.0,2.0,0.0,6.0,6.0,276.4460960170254,8.0,1.0,phase_2,go,150.0,150.0,1.0,,,,,,,,,blue,hexagon
0.0,3.0,3.0,0.0,5.0,5.0,373.1600269966293,8.0,1.0,phase_2,go,150.0,150.0,1.0,,,,,,,,,gray,flipped triangle
0.0,5.0,1.0,1.0,6.0,6.0,277.5790360174142,8.0,1.0,phase_2,stop,150.0,150.0,3.0,,,,,,,,,green,triangle
0.0,6.0,2.0,1.0,6.0,0.0,0.0,8.0,1.0,phase_2,stop,150.0,100.0,4.0,,,,,,,,,yellow,diamond
0.0,6.0,2.0,1.0,5.0,5.0,345.1691160153132,8.0,1.0,phase_2,go,150.0,150.0,1.0,,,,,,,,,yellow,diamond
0.0,1.0,1.0,0.0,6.0,6.0,316.4121840090956,8.0,1.0,phase_2,go,150.0,150.0,1.0,,,,,,,,,orange,circle
0.0,1.0,1.0,0.0,6.0,6.0,386.942179990001,8.0,1.0,phase_2,go,150.0,150.0,1.0,,,,,,,,,orange,circle
0.0,2.0,2.0,0.0,6.0,6.0,297.4972029915079,8.0,1.0,phase_2,go,150.0,150.0,1.0,,,,,,,,,blue,hexagon
0.0,8.0,4.0,1.0,6.0,6.0,290.5300940037705,8.0,1.0,phase_2,stop,150.0,150.0,3.0,,,,,,,,,cyan,I
0.0,6.0,2.0,1.0,7.0,2.0,2815.233678004006,1.0,2.0,phase_3,,,,,102.0,3.0,34.0,102.0,68.0,170.0,136.0,204.0,yellow,diamond
0.0,7.0,3.0,1.0,7.0,1.0,4262.474982999265,1.0,1.0,phase_3,,,,,98.0,2.0,98.0,147.0,49.0,245.0,196.0,294.0,white,cross
0.0,2.0,2.0,0.0,7.0,4.0,2205.6989120028447,1.0,1.0,phase_3,,,,,88.0,2.0,176.0,44.0,132.0,88.0,220.0,264.0,blue,hexagon
0.0,1.0,1.0,0.0,7.0,2.0,1278.3854139852338,1.0,1.0,phase_3,,,,,44.0,1.0,264.0,44.0,88.0,220.0,132.0,176.0,orange,circle
0.0,1.0,1.0,0.0,7.0,1.0,1672.0544649870135,1.0,1.0,phase_3,,,,,54.0,1.0,54.0,108.0,324.0,216.0,270.0,162.0,orange,circle
0.0,3.0,3.0,0.0,7.0,2.0,1346.5388389886357,1.0,1.0,phase_3,,,,,117.0,3.0,39.0,117.0,234.0,195.0,156.0,78.0,gray,flipped triangle
0.0,4.0,4.0,0.0,7.0,4.0,2033.666756004095,1.0,1.0,phase_3,,,,,264.0,6.0,220.0,44.0,176.0,264.0,88.0,132.0,magenta,square
0.0,8.0,4.0,1.0,7.0,2.0,1730.282361007994,1.0,1.0,phase_3,,,,,264.0,6.0,220.0,264.0,132.0,88.0,44.0,176.0,cyan,I
0.0,5.0,1.0,1.0,7.0,3.0,1813.634177990025,1.0,1.0,phase_3,,,,,234.0,6.0,39.0,156.0,234.0,78.0,195.0,117.0,green,triangle
0.0,7.0,3.0,1.0,7.0,5.0,1503.586553997593,1.0,1.0,phase_3,,,,,156.0,4.0,78.0,117.0,234.0,39.0,156.0,195.0,white,cross
0.0,1.0,1.0,0.0,7.0,1.0,2201.0706040018704,1.0,1.0,phase_3,,,,,49.0,1.0,49.0,147.0,98.0,294.0,245.0,196.0,orange,circle
0.0,4.0,4.0,0.0,7.0,2.0,1393.269213003805,1.0,1.0,phase_3,,,,,294.0,6.0,196.0,294.0,49.0,147.0,98.0,245.0,magenta,square
0.0,3.0,3.0,0.0,7.0,5.0,2066.642143006902,1.0,1.0,phase_3,,,,,196.0,4.0,245.0,294.0,49.0,147.0,196.0,98.0,gray,flipped triangle
0.0,3.0,3.0,0.0,7.0,2.0,1627.2723370057065,1.0,1.0,phase_3,,,,,162.0,3.0,54.0,162.0,216.0,270.0,108.0,324.0,gray,flipped triangle
0.0,2.0,2.0,0.0,7.0,6.0,2327.145344985184,1.0,1.0,phase_3,,,,,216.0,4.0,324.0,162.0,54.0,270.0,108.0,216.0,blue,hexagon
0.0,5.0,1.0,1.0,7.0,4.0,1671.40721497708,1.0,1.0,phase_3,,,,,176.0,4.0,264.0,44.0,132.0,176.0,88.0,220.0,green,triangle
0.0,1.0,1.0,0.0,7.0,1.0,1846.081668016268,1.0,1.0,phase_3,,,,,68.0,2.0,68.0,102.0,34.0,204.0,170.0,136.0,orange,circle
0.0,2.0,2.0,0.0,7.0,2.0,2154.0271999838296,1.0,1.0,phase_3,,,,,147.0,3.0,49.0,147.0,98.0,245.0,196.0,294.0,blue,hexagon
0.0,7.0,3.0,1.0,7.0,2.0,1785.2276659978088,1.0,1.0,phase_3,,,,,196.0,4.0,147.0,196.0,49.0,294.0,245.0,98.0,white,cross
0.0,6.0,2.0,1.0,7.0,5.0,2203.3384350070264,1.0,1.0,phase_3,,,,,234.0,6.0,39.0,117.0,156.0,78.0,234.0,195.0,yellow,diamond
0.0,4.0,4.0,0.0,7.0,2.0,1551.1192079866305,2.0,1.0,phase_3,,,,,78.0,2.0,117.0,78.0,156.0,39.0,195.0,234.0,magenta,square
0.0,3.0,3.0,0.0,7.0,4.0,1322.401388984872,2.0,1.0,phase_3,,,,,117.0,3.0,78.0,234.0,39.0,117.0,195.0,156.0,gray,flipped triangle
0.0,8.0,4.0,1.0,7.0,3.0,1395.0743659806903,2.0,1.0,phase_3,,,,,294.0,6.0,245.0,49.0,294.0,98.0,147.0,196.0,cyan,I
0.0,5.0,1.0,1.0,7.0,4.0,1124.158217018703,2.0,1.0,phase_3,,,,,170.0,5.0,68.0,102.0,136.0,170.0,204.0,34.0,green,triangle
0.0,8.0,4.0,1.0,7.0,6.0,1668.2340060069691,2.0,1.0,phase_3,,,,,234.0,6.0,156.0,78.0,39.0,117.0,195.0,234.0,cyan,I
0.0,6.0,2.0,1.0,7.0,6.0,1590.5715269909706,2.0,1.0,phase_3,,,,,98.0,2.0,147.0,196.0,245.0,294.0,49.0,98.0,yellow,diamond
0.0,5.0,1.0,1.0,7.0,2.0,1689.1805620107334,2.0,1.0,phase_3,,,,,196.0,4.0,49.0,196.0,98.0,245.0,147.0,294.0,green,triangle
0.0,4.0,4.0,0.0,7.0,5.0,1610.3051810059696,2.0,1.0,phase_3,,,,,220.0,5.0,132.0,88.0,176.0,264.0,220.0,44.0,magenta,square
0.0,8.0,4.0,1.0,7.0,4.0,1257.9576330026612,2.0,1.0,phase_3,,,,,294.0,6.0,49.0,245.0,196.0,294.0,98.0,147.0,cyan,I
0.0,5.0,1.0,1.0,7.0,4.0,1285.3529569983948,2.0,1.0,phase_3,,,,,162.0,3.0,216.0,54.0,270.0,162.0,108.0,324.0,green,triangle
0.0,4.0,4.0,0.0,7.0,2.0,1251.6826080100143,2.0,1.0,phase_3,,,,,170.0,5.0,204.0,170.0,34.0,136.0,102.0,68.0,magenta,square
0.0,6.0,2.0,1.0,7.0,5.0,1710.5570390122011,2.0,1.0,phase_3,,,,,147.0,3.0,49.0,245.0,196.0,98.0,147.0,294.0,yellow,diamond
0.0,8.0,4.0,1.0,7.0,1.0,745.3899009851739,2.0,1.0,phase_3,,,,,220.0,5.0,220.0,132.0,176.0,88.0,44.0,264.0,cyan,I
0.0,6.0,2.0,1.0,7.0,2.0,1503.9079950074663,2.0,1.0,phase_3,,,,,162.0,3.0,324.0,162.0,270.0,54.0,108.0,216.0,yellow,diamond
0.0,7.0,3.0,1.0,7.0,3.0,1132.3528490029275,2.0,1.0,phase_3,,,,,108.0,2.0,162.0,324.0,108.0,54.0,216.0,270.0,white,cross
0.0,2.0,2.0,0.0,7.0,4.0,1469.275610987097,2.0,1.0,phase_3,,,,,234.0,6.0,39.0,195.0,78.0,234.0,156.0,117.0,blue,hexagon
0.0,5.0,1.0,1.0,7.0,3.0,1304.0633240016175,2.0,1.0,phase_3,,,,,147.0,3.0,196.0,294.0,147.0,49.0,98.0,245.0,green,triangle
0.0,8.0,4.0,1.0,7.0,5.0,1525.492924003629,2.0,1.0,phase_3,,,,,204.0,6.0,102.0,136.0,170.0,68.0,204.0,34.0,cyan,I
0.0,3.0,3.0,0.0,7.0,2.0,1264.5136419741905,2.0,1.0,phase_3,,,,,216.0,4.0,162.0,216.0,270.0,324.0,108.0,54.0,gray,flipped triangle
0.0,6.0,2.0,1.0,7.0,2.0,979.4510979845654,2.0,1.0,phase_3,,,,,176.0,4.0,44.0,176.0,132.0,264.0,220.0,88.0,yellow,diamond
0.0,5.0,1.0,1.0,7.0,4.0,1530.5282920016907,3.0,1.0,phase_3,,,,,234.0,6.0,117.0,39.0,78.0,234.0,195.0,156.0,green,triangle
0.0,3.0,3.0,0.0,7.0,2.0,2035.2906000043731,3.0,1.0,phase_3,,,,,170.0,5.0,102.0,170.0,68.0,136.0,34.0,204.0,gray,flipped triangle
0.0,2.0,2.0,0.0,7.0,5.0,2002.5160170043819,3.0,1.0,phase_3,,,,,156.0,4.0,78.0,234.0,195.0,39.0,156.0,117.0,blue,hexagon
0.0,2.0,2.0,0.0,7.0,4.0,1659.191746992292,3.0,1.0,phase_3,,,,,132.0,3.0,88.0,44.0,264.0,132.0,220.0,176.0,blue,hexagon
0.0,3.0,3.0,0.0,7.0,2.0,1037.6992890087422,3.0,1.0,phase_3,,,,,176.0,4.0,132.0,176.0,220.0,44.0,88.0,264.0,gray,flipped triangle
0.0,6.0,2.0,1.0,7.0,2.0,855.8802179759368,3.0,1.0,phase_3,,,,,68.0,2.0,34.0,68.0,170.0,204.0,102.0,136.0,yellow,diamond
0.0,5.0,1.0,1.0,7.0,1.0,1361.9421549956314,3.0,1.0,phase_3,,,,,132.0,3.0,132.0,220.0,264.0,88.0,176.0,44.0,green,triangle
0.0,3.0,3.0,0.0,7.0,1.0,1266.073104983661,3.0,1.0,phase_3,,,,,136.0,4.0,136.0,204.0,68.0,102.0,34.0,170.0,gray,flipped triangle
0.0,1.0,1.0,0.0,7.0,1.0,659.3921509920619,3.0,1.0,phase_3,,,,,39.0,1.0,39.0,156.0,234.0,78.0,117.0,195.0,orange,circle
0.0,1.0,1.0,0.0,7.0,5.0,1373.7789189908651,3.0,1.0,phase_3,,,,,49.0,1.0,147.0,196.0,98.0,294.0,49.0,245.0,orange,circle
0.0,1.0,1.0,0.0,7.0,3.0,942.893625004217,3.0,1.0,phase_3,,,,,44.0,1.0,132.0,88.0,44.0,264.0,220.0,176.0,orange,circle
0.0,6.0,2.0,1.0,7.0,2.0,1424.3175169976894,3.0,1.0,phase_3,,,,,195.0,5.0,234.0,195.0,156.0,117.0,39.0,78.0,yellow,diamond
0.0,2.0,2.0,0.0,7.0,1.0,833.8462050014641,3.0,1.0,phase_3,,,,,204.0,6.0,204.0,102.0,68.0,170.0,136.0,34.0,blue,hexagon
0.0,2.0,2.0,0.0,7.0,1.0,627.9682999884244,3.0,1.0,phase_3,,,,,204.0,6.0,204.0,136.0,34.0,102.0,170.0,68.0,blue,hexagon
0.0,7.0,3.0,1.0,7.0,1.0,2083.453706,3.0,1.0,phase_3,,,,,162.0,3.0,162.0,54.0,270.0,108.0,216.0,324.0,white,cross
0.0,1.0,1.0,0.0,7.0,4.0,1190.0885729992297,3.0,1.0,phase_3,,,,,34.0,1.0,170.0,136.0,102.0,34.0,204.0,68.0,orange,circle
0.0,5.0,1.0,1.0,7.0,4.0,2216.1712819943205,3.0,1.0,phase_3,,,,,170.0,5.0,102.0,68.0,204.0,170.0,34.0,136.0,green,triangle
0.0,7.0,3.0,1.0,7.0,1.0,1834.498442010954,3.0,1.0,phase_3,,,,,170.0,5.0,170.0,68.0,102.0,34.0,136.0,204.0,white,cross
0.0,8.0,4.0,1.0,7.0,4.0,1858.5731219791344,3.0,1.0,phase_3,,,,,270.0,5.0,216.0,324.0,162.0,270.0,108.0,54.0,cyan,I
0.0,2.0,2.0,0.0,7.0,5.0,3114.1357440210413,3.0,1.0,phase_3,,,,,162.0,3.0,324.0,270.0,54.0,108.0,162.0,216.0,blue,hexagon
0.0,5.0,1.0,1.0,7.0,4.0,1344.400194007903,4.0,1.0,phase_3,,,,,162.0,3.0,54.0,108.0,324.0,162.0,270.0,216.0,green,triangle
0.0,2.0,2.0,0.0,7.0,1.0,1188.7077260180376,4.0,1.0,phase_3,,,,,196.0,4.0,196.0,294.0,98.0,49.0,147.0,245.0,blue,hexagon
0.0,4.0,4.0,0.0,7.0,1.0,1590.8409710100386,4.0,1.0,phase_3,,,,,270.0,5.0,270.0,54.0,324.0,108.0,162.0,216.0,magenta,square
0.0,3.0,3.0,0.0,7.0,3.0,1423.5028259863611,4.0,1.0,phase_3,,,,,196.0,4.0,147.0,49.0,196.0,245.0,98.0,294.0,gray,flipped triangle
0.0,8.0,4.0,1.0,7.0,4.0,1568.5565430030692,4.0,1.0,phase_3,,,,,234.0,6.0,195.0,78.0,39.0,234.0,156.0,117.0,cyan,I
0.0,1.0,1.0,0.0,7.0,1.0,778.3899010100868,4.0,1.0,phase_3,,,,,39.0,1.0,39.0,78.0,156.0,195.0,234.0,117.0,orange,circle
0.0,4.0,4.0,0.0,7.0,3.0,2073.28549399972,4.0,1.0,phase_3,,,,,245.0,5.0,196.0,98.0,245.0,49.0,294.0,147.0,magenta,square
0.0,4.0,4.0,0.0,7.0,2.0,980.67052901024,4.0,1.0,phase_3,,,,,216.0,4.0,162.0,216.0,108.0,270.0,54.0,324.0,magenta,square
0.0,1.0,1.0,0.0,7.0,5.0,1339.3406099930871,4.0,1.0,phase_3,,,,,54.0,1.0,324.0,270.0,162.0,216.0,54.0,108.0,orange,circle
0.0,4.0,4.0,0.0,7.0,2.0,1013.5061840119306,4.0,1.0,phase_3,,,,,170.0,5.0,204.0,170.0,68.0,136.0,34.0,102.0,magenta,square
0.0,7.0,3.0,1.0,7.0,3.0,1447.3681850067803,4.0,1.0,phase_3,,,,,176.0,4.0,220.0,264.0,176.0,132.0,44.0,88.0,white,cross
0.0,7.0,3.0,1.0,7.0,4.0,1496.6335390054155,4.0,1.0,phase_3,,,,,117.0,3.0,156.0,78.0,234.0,117.0,195.0,39.0,white,cross
0.0,7.0,3.0,1.0,7.0,2.0,808.6036939930636,4.0,1.0,phase_3,,,,,102.0,3.0,204.0,102.0,136.0,34.0,68.0,170.0,white,cross
0.0,6.0,2.0,1.0,7.0,6.0,2083.2075719954446,4.0,1.0,phase_3,,,,,162.0,3.0,216.0,324.0,270.0,108.0,54.0,162.0,yellow,diamond
0.0,8.0,4.0,1.0,7.0,4.0,1783.2044730021153,4.0,1.0,phase_3,,,,,204.0,6.0,34.0,170.0,136.0,204.0,68.0,102.0,cyan,I
0.0,7.0,3.0,1.0,7.0,3.0,2303.918919002172,4.0,1.0,phase_3,,,,,132.0,3.0,220.0,44.0,132.0,176.0,88.0,264.0,white,cross
0.0,6.0,2.0,1.0,7.0,6.0,1985.4005629895253,4.0,1.0,phase_3,,,,,132.0,3.0,220.0,264.0,176.0,44.0,88.0,132.0,yellow,diamond
0.0,4.0,4.0,0.0,7.0,4.0,1583.4976019978058,4.0,1.0,phase_3,,,,,156.0,4.0,234.0,117.0,78.0,156.0,195.0,39.0,magenta,square
0.0,3.0,3.0,0.0,7.0,1.0,1146.664340980351,4.0,1.0,phase_3,,,,,132.0,3.0,132.0,44.0,220.0,176.0,88.0,264.0,gray,flipped triangle
0.0,8.0,4.0,1.0,7.0,3.0,1542.3421970044728,4.0,1.0,phase_3,,,,,162.0,3.0,108.0,324.0,162.0,270.0,216.0,54.0,cyan,I
