raw_reward_magnitude,stim_reward,stepwise_reward_magnitude,paired_with_stopping,quadrant,response,reaction_time,block,num_trial_presentations,which_part,stop_signal_trial_type,left_SSD,right_SSD,accuracy,chosen_bidding_amount,chosen_bidding_level,possible_bid_1,possible_bid_2,possible_bid_3,possible_bid_4,possible_bid_5,possible_bid_6,color_text,shape_text
29.0,1.0,1.0,0.0,2.0,2.0,373.514425009489,1.0,1.0,part_1,,,,,,,,,,,,,cyan,square
422.0,8.0,4.0,1.0,1.0,1.0,311.8120130384341,1.0,1.0,part_1,,,,,,,,,,,,,blue,I
71.0,5.0,1.0,1.0,1.0,1.0,326.5264639630914,1.0,1.0,part_1,,,,,,,,,,,,,orange,circle
404.0,8.0,4.0,1.0,2.0,2.0,290.6986199086532,1.0,1.0,part_1,,,,,,,,,,,,,blue,I
0.0,5.0,0.0,1.0,3.0,3.0,353.1283340416848,1.0,1.0,part_1,,,,,,,,,,,,,orange,circle
189.0,3.0,3.0,0.0,3.0,3.0,366.2056280300021,1.0,1.0,part_1,,,,,,,,,,,,,gray,cross
410.0,8.0,4.0,1.0,1.0,1.0,336.284177028574,1.0,1.0,part_1,,,,,,,,,,,,,blue,I
225.0,7.0,3.0,1.0,3.0,3.0,292.0141209615394,1.0,1.0,part_1,,,,,,,,,,,,,yellow,triangle
78.0,6.0,2.0,1.0,1.0,1.0,320.5605710390955,1.0,1.0,part_1,,,,,,,,,,,,,green,hexagon
412.0,8.0,4.0,1.0,4.0,4.0,277.1724930498749,1.0,1.0,part_1,,,,,,,,,,,,,blue,I
111.0,2.0,2.0,0.0,2.0,2.0,274.3844450451433,1.0,1.0,part_1,,,,,,,,,,,,,magenta,flipped triangle
216.0,7.0,3.0,1.0,4.0,4.0,304.6263069845736,1.0,1.0,part_1,,,,,,,,,,,,,yellow,triangle
116.0,2.0,2.0,0.0,4.0,4.0,271.5137429768219,1.0,1.0,part_1,,,,,,,,,,,,,magenta,flipped triangle
26.0,5.0,1.0,1.0,1.0,1.0,275.9310089750215,1.0,1.0,part_1,,,,,,,,,,,,,orange,circle
102.0,2.0,2.0,0.0,1.0,1.0,312.9618680104613,1.0,2.0,part_1,,,,,,,,,,,,,magenta,flipped triangle
123.0,6.0,2.0,1.0,3.0,3.0,263.9877970796078,1.0,1.0,part_1,,,,,,,,,,,,,green,hexagon
96.0,2.0,2.0,0.0,2.0,2.0,340.3559350408613,1.0,1.0,part_1,,,,,,,,,,,,,magenta,flipped triangle
0.0,3.0,0.0,0.0,2.0,2.0,346.314622904174,1.0,1.0,part_1,,,,,,,,,,,,,gray,cross
0.0,3.0,0.0,0.0,3.0,3.0,308.1015209900215,1.0,1.0,part_1,,,,,,,,,,,,,gray,cross
406.0,8.0,4.0,1.0,2.0,2.0,299.7223529964685,1.0,1.0,part_1,,,,,,,,,,,,,blue,I
96.0,6.0,2.0,1.0,2.0,2.0,342.1803149394691,1.0,1.0,part_1,,,,,,,,,,,,,green,hexagon
0.0,7.0,0.0,1.0,2.0,2.0,362.2841719770804,1.0,1.0,part_1,,,,,,,,,,,,,yellow,triangle
189.0,7.0,3.0,1.0,3.0,3.0,337.5069729518145,1.0,1.0,part_1,,,,,,,,,,,,,yellow,triangle
418.0,4.0,4.0,0.0,3.0,3.0,294.0519200637936,1.0,1.0,part_1,,,,,,,,,,,,,white,diamond
80.0,2.0,2.0,0.0,2.0,2.0,387.5083239981904,1.0,1.0,part_1,,,,,,,,,,,,,magenta,flipped triangle
60.0,1.0,1.0,0.0,4.0,4.0,288.9135769801214,1.0,1.0,part_1,,,,,,,,,,,,,cyan,square
41.0,1.0,1.0,0.0,3.0,3.0,323.5803919378668,1.0,1.0,part_1,,,,,,,,,,,,,cyan,square
0.0,4.0,0.0,0.0,3.0,3.0,353.8131690584123,1.0,1.0,part_1,,,,,,,,,,,,,white,diamond
47.0,5.0,1.0,1.0,4.0,4.0,298.9025349961594,1.0,1.0,part_1,,,,,,,,,,,,,orange,circle
91.0,2.0,2.0,0.0,1.0,1.0,303.4458020702004,1.0,1.0,part_1,,,,,,,,,,,,,magenta,flipped triangle
187.0,7.0,3.0,1.0,2.0,2.0,277.4600259726867,1.0,1.0,part_1,,,,,,,,,,,,,yellow,triangle
38.0,1.0,1.0,0.0,1.0,1.0,297.8173459414392,1.0,1.0,part_1,,,,,,,,,,,,,cyan,square
194.0,3.0,3.0,0.0,3.0,3.0,312.5756720546633,1.0,1.0,part_1,,,,,,,,,,,,,gray,cross
38.0,5.0,1.0,1.0,4.0,4.0,275.3559190314263,1.0,1.0,part_1,,,,,,,,,,,,,orange,circle
35.0,1.0,1.0,0.0,3.0,3.0,279.1274009505287,1.0,1.0,part_1,,,,,,,,,,,,,cyan,square
78.0,2.0,2.0,0.0,4.0,4.0,315.4642160516232,1.0,1.0,part_1,,,,,,,,,,,,,magenta,flipped triangle
199.0,3.0,3.0,0.0,1.0,1.0,299.9449429335072,1.0,1.0,part_1,,,,,,,,,,,,,gray,cross
205.0,7.0,3.0,1.0,4.0,4.0,268.9181580208242,1.0,1.0,part_1,,,,,,,,,,,,,yellow,triangle
48.0,1.0,1.0,0.0,1.0,1.0,305.5016329744831,1.0,1.0,part_1,,,,,,,,,,,,,cyan,square
36.0,1.0,1.0,0.0,2.0,2.0,233.3206830080598,1.0,1.0,part_1,,,,,,,,,,,,,cyan,square
0.0,8.0,0.0,1.0,3.0,3.0,341.5455829817801,1.0,1.0,part_1,,,,,,,,,,,,,blue,I
197.0,3.0,3.0,0.0,1.0,1.0,275.9793350705877,1.0,1.0,part_1,,,,,,,,,,,,,gray,cross
46.0,1.0,1.0,0.0,1.0,1.0,324.6216520201415,1.0,1.0,part_1,,,,,,,,,,,,,cyan,square
0.0,2.0,0.0,0.0,1.0,1.0,305.9122529812157,1.0,1.0,part_1,,,,,,,,,,,,,magenta,flipped triangle
93.0,2.0,2.0,0.0,1.0,1.0,256.2628840096295,1.0,1.0,part_1,,,,,,,,,,,,,magenta,flipped triangle
119.0,2.0,2.0,0.0,1.0,1.0,275.2430510008707,1.0,1.0,part_1,,,,,,,,,,,,,magenta,flipped triangle
0.0,5.0,0.0,1.0,3.0,3.0,350.0357860466465,1.0,2.0,part_1,,,,,,,,,,,,,orange,circle
383.0,8.0,4.0,1.0,3.0,3.0,364.4081450765952,1.0,1.0,part_1,,,,,,,,,,,,,blue,I
0.0,5.0,0.0,1.0,1.0,1.0,320.6220759311691,1.0,1.0,part_1,,,,,,,,,,,,,orange,circle
49.0,5.0,1.0,1.0,4.0,4.0,268.0473360233009,1.0,1.0,part_1,,,,,,,,,,,,,orange,circle
41.0,5.0,1.0,1.0,1.0,1.0,318.705660989508,1.0,1.0,part_1,,,,,,,,,,,,,orange,circle
0.0,4.0,0.0,0.0,4.0,4.0,277.7709478978067,1.0,1.0,part_1,,,,,,,,,,,,,white,diamond
68.0,5.0,1.0,1.0,1.0,1.0,312.6410869881511,1.0,1.0,part_1,,,,,,,,,,,,,orange,circle
0.0,8.0,0.0,1.0,3.0,3.0,317.6024950807914,1.0,1.0,part_1,,,,,,,,,,,,,blue,I
178.0,7.0,3.0,1.0,2.0,2.0,353.5998989827931,1.0,1.0,part_1,,,,,,,,,,,,,yellow,triangle
96.0,6.0,2.0,1.0,2.0,2.0,328.8787470664829,1.0,1.0,part_1,,,,,,,,,,,,,green,hexagon
417.0,4.0,4.0,0.0,3.0,3.0,317.6512019708752,1.0,1.0,part_1,,,,,,,,,,,,,white,diamond
193.0,3.0,3.0,0.0,1.0,1.0,289.6489340346306,1.0,1.0,part_1,,,,,,,,,,,,,gray,cross
219.0,3.0,3.0,0.0,2.0,2.0,299.9268419807777,1.0,1.0,part_1,,,,,,,,,,,,,gray,cross
49.0,5.0,1.0,1.0,2.0,2.0,313.3249839302152,1.0,1.0,part_1,,,,,,,,,,,,,orange,circle
392.0,4.0,4.0,0.0,4.0,4.0,255.3541120141744,1.0,1.0,part_1,,,,,,,,,,,,,white,diamond
49.0,1.0,1.0,0.0,3.0,3.0,293.275800999254,1.0,1.0,part_1,,,,,,,,,,,,,cyan,square
87.0,6.0,2.0,1.0,2.0,2.0,262.5447639729827,1.0,1.0,part_1,,,,,,,,,,,,,green,hexagon
97.0,2.0,2.0,0.0,1.0,1.0,292.2325050458312,1.0,1.0,part_1,,,,,,,,,,,,,magenta,flipped triangle
115.0,2.0,2.0,0.0,1.0,1.0,304.6503519872203,1.0,1.0,part_1,,,,,,,,,,,,,magenta,flipped triangle
0.0,3.0,0.0,0.0,2.0,2.0,332.5752570526674,1.0,1.0,part_1,,,,,,,,,,,,,gray,cross
199.0,7.0,3.0,1.0,3.0,3.0,301.3968999730423,1.0,1.0,part_1,,,,,,,,,,,,,yellow,triangle
0.0,6.0,0.0,1.0,4.0,4.0,334.2075169784948,1.0,1.0,part_1,,,,,,,,,,,,,green,hexagon
0.0,1.0,0.0,0.0,4.0,4.0,325.4343488952145,1.0,1.0,part_1,,,,,,,,,,,,,cyan,square
0.0,5.0,0.0,1.0,2.0,2.0,255.9225430013612,1.0,1.0,part_1,,,,,,,,,,,,,orange,circle
409.0,4.0,4.0,0.0,1.0,1.0,293.0001189233735,1.0,1.0,part_1,,,,,,,,,,,,,white,diamond
67.0,5.0,1.0,1.0,2.0,2.0,345.2397690853104,1.0,1.0,part_1,,,,,,,,,,,,,orange,circle
27.0,1.0,1.0,0.0,2.0,2.0,337.0240880176425,1.0,1.0,part_1,,,,,,,,,,,,,cyan,square
199.0,3.0,3.0,0.0,4.0,4.0,293.9318959834054,1.0,1.0,part_1,,,,,,,,,,,,,gray,cross
388.0,8.0,4.0,1.0,1.0,1.0,304.323999909684,1.0,1.0,part_1,,,,,,,,,,,,,blue,I
405.0,4.0,4.0,0.0,3.0,3.0,300.6426009815186,1.0,1.0,part_1,,,,,,,,,,,,,white,diamond
0.0,8.0,0.0,1.0,4.0,4.0,298.4782080166042,1.0,1.0,part_1,,,,,,,,,,,,,blue,I
82.0,6.0,2.0,1.0,4.0,4.0,333.9827290037647,1.0,1.0,part_1,,,,,,,,,,,,,green,hexagon
32.0,5.0,1.0,1.0,2.0,2.0,313.5099969804287,1.0,1.0,part_1,,,,,,,,,,,,,orange,circle
0.0,6.0,0.0,1.0,1.0,1.0,311.6451570531353,1.0,1.0,part_1,,,,,,,,,,,,,green,hexagon
31.0,1.0,1.0,0.0,3.0,3.0,316.2913130363449,1.0,1.0,part_1,,,,,,,,,,,,,cyan,square
388.0,4.0,4.0,0.0,3.0,3.0,346.4584050234407,1.0,1.0,part_1,,,,,,,,,,,,,white,diamond
99.0,6.0,2.0,1.0,1.0,1.0,280.4535120958462,1.0,1.0,part_1,,,,,,,,,,,,,green,hexagon
409.0,8.0,4.0,1.0,4.0,4.0,316.5700089884922,1.0,1.0,part_1,,,,,,,,,,,,,blue,I
404.0,4.0,4.0,0.0,3.0,3.0,326.0112530551851,1.0,1.0,part_1,,,,,,,,,,,,,white,diamond
0.0,5.0,0.0,1.0,4.0,4.0,292.6702089607715,1.0,1.0,part_1,,,,,,,,,,,,,orange,circle
379.0,4.0,4.0,0.0,1.0,1.0,370.5969469156116,1.0,1.0,part_1,,,,,,,,,,,,,white,diamond
86.0,2.0,2.0,0.0,3.0,3.0,308.9144320692867,1.0,1.0,part_1,,,,,,,,,,,,,magenta,flipped triangle
97.0,6.0,2.0,1.0,2.0,2.0,320.65998495090747,1.0,1.0,part_1,,,,,,,,,,,,,green,hexagon
68.0,5.0,1.0,1.0,3.0,3.0,318.1719440035522,1.0,1.0,part_1,,,,,,,,,,,,,orange,circle
0.0,1.0,0.0,0.0,1.0,1.0,346.7175910482183,1.0,1.0,part_1,,,,,,,,,,,,,cyan,square
219.0,7.0,3.0,1.0,3.0,3.0,378.5871500149369,1.0,1.0,part_1,,,,,,,,,,,,,yellow,triangle
391.0,8.0,4.0,1.0,3.0,3.0,302.0834369817748,1.0,1.0,part_1,,,,,,,,,,,,,blue,I
76.0,6.0,2.0,1.0,4.0,4.0,256.8193149054423,1.0,1.0,part_1,,,,,,,,,,,,,green,hexagon
0.0,8.0,0.0,1.0,4.0,4.0,295.2033710898831,1.0,1.0,part_1,,,,,,,,,,,,,blue,I
0.0,1.0,0.0,0.0,1.0,1.0,297.7935159578919,1.0,1.0,part_1,,,,,,,,,,,,,cyan,square
55.0,1.0,1.0,0.0,2.0,2.0,261.2301820190623,1.0,2.0,part_1,,,,,,,,,,,,,cyan,square
50.0,1.0,1.0,0.0,2.0,2.0,264.7831659996882,1.0,1.0,part_1,,,,,,,,,,,,,cyan,square
391.0,4.0,4.0,0.0,3.0,3.0,334.610525984317,1.0,1.0,part_1,,,,,,,,,,,,,white,diamond
45.0,1.0,1.0,0.0,1.0,1.0,386.0996869625523,1.0,1.0,part_1,,,,,,,,,,,,,cyan,square
96.0,2.0,2.0,0.0,2.0,2.0,404.3730139965191,2.0,1.0,part_1,,,,,,,,,,,,,magenta,flipped triangle
0.0,7.0,0.0,1.0,4.0,4.0,282.2269890457392,2.0,1.0,part_1,,,,,,,,,,,,,yellow,triangle
67.0,5.0,1.0,1.0,3.0,3.0,285.1889340672642,2.0,1.0,part_1,,,,,,,,,,,,,orange,circle
410.0,4.0,4.0,0.0,2.0,2.0,266.6014930000528,2.0,1.0,part_1,,,,,,,,,,,,,white,diamond
0.0,6.0,0.0,1.0,2.0,2.0,292.9542571073398,2.0,1.0,part_1,,,,,,,,,,,,,green,hexagon
86.0,6.0,2.0,1.0,4.0,4.0,316.567734000273,2.0,1.0,part_1,,,,,,,,,,,,,green,hexagon
219.0,7.0,3.0,1.0,1.0,1.0,312.6057089539245,2.0,1.0,part_1,,,,,,,,,,,,,yellow,triangle
177.0,7.0,3.0,1.0,2.0,2.0,261.2540359841659,2.0,1.0,part_1,,,,,,,,,,,,,yellow,triangle
393.0,4.0,4.0,0.0,4.0,4.0,290.6862599775195,2.0,1.0,part_1,,,,,,,,,,,,,white,diamond
52.0,5.0,1.0,1.0,2.0,2.0,316.3418569602072,2.0,1.0,part_1,,,,,,,,,,,,,orange,circle
31.0,1.0,1.0,0.0,2.0,2.0,314.7863500053063,2.0,1.0,part_1,,,,,,,,,,,,,cyan,square
225.0,7.0,3.0,1.0,3.0,3.0,342.8756309440359,2.0,1.0,part_1,,,,,,,,,,,,,yellow,triangle
32.0,5.0,1.0,1.0,2.0,2.0,281.3158830394968,2.0,1.0,part_1,,,,,,,,,,,,,orange,circle
26.0,1.0,1.0,0.0,1.0,1.0,257.0105510530993,2.0,1.0,part_1,,,,,,,,,,,,,cyan,square
0.0,6.0,0.0,1.0,3.0,3.0,341.5965728927403,2.0,1.0,part_1,,,,,,,,,,,,,green,hexagon
191.0,3.0,3.0,0.0,2.0,2.0,330.3684060228988,2.0,1.0,part_1,,,,,,,,,,,,,gray,cross
421.0,4.0,4.0,0.0,1.0,1.0,321.9389949226752,2.0,2.0,part_1,,,,,,,,,,,,,white,diamond
212.0,3.0,3.0,0.0,1.0,1.0,312.6234390074387,2.0,1.0,part_1,,,,,,,,,,,,,gray,cross
216.0,3.0,3.0,0.0,1.0,1.0,318.4683719882741,2.0,1.0,part_1,,,,,,,,,,,,,gray,cross
0.0,3.0,0.0,0.0,2.0,2.0,449.3409401038661,2.0,1.0,part_1,,,,,,,,,,,,,gray,cross
392.0,8.0,4.0,1.0,4.0,4.0,422.0599309774115,2.0,1.0,part_1,,,,,,,,,,,,,blue,I
383.0,8.0,4.0,1.0,4.0,4.0,330.089965951629,2.0,1.0,part_1,,,,,,,,,,,,,blue,I
382.0,4.0,4.0,0.0,1.0,1.0,308.8028979254886,2.0,1.0,part_1,,,,,,,,,,,,,white,diamond
379.0,8.0,4.0,1.0,2.0,2.0,305.9286489151418,2.0,1.0,part_1,,,,,,,,,,,,,blue,I
121.0,2.0,2.0,0.0,4.0,4.0,344.3720319774002,2.0,1.0,part_1,,,,,,,,,,,,,magenta,flipped triangle
0.0,2.0,0.0,0.0,4.0,4.0,341.8176149716601,2.0,1.0,part_1,,,,,,,,,,,,,magenta,flipped triangle
101.0,6.0,2.0,1.0,4.0,4.0,355.2192979259416,2.0,1.0,part_1,,,,,,,,,,,,,green,hexagon
73.0,1.0,1.0,0.0,2.0,2.0,276.5348870307207,2.0,1.0,part_1,,,,,,,,,,,,,cyan,square
78.0,2.0,2.0,0.0,2.0,2.0,322.0346979796886,2.0,1.0,part_1,,,,,,,,,,,,,magenta,flipped triangle
395.0,8.0,4.0,1.0,2.0,2.0,334.7027929266915,2.0,1.0,part_1,,,,,,,,,,,,,blue,I
0.0,2.0,0.0,0.0,3.0,3.0,346.5301090618595,2.0,1.0,part_1,,,,,,,,,,,,,magenta,flipped triangle
0.0,4.0,0.0,0.0,1.0,1.0,346.7063509160653,2.0,1.0,part_1,,,,,,,,,,,,,white,diamond
379.0,8.0,4.0,1.0,1.0,1.0,375.8648970397189,2.0,1.0,part_1,,,,,,,,,,,,,blue,I
183.0,3.0,3.0,0.0,4.0,4.0,355.4758579703048,2.0,1.0,part_1,,,,,,,,,,,,,gray,cross
113.0,6.0,2.0,1.0,1.0,1.0,351.2401080224663,2.0,1.0,part_1,,,,,,,,,,,,,green,hexagon
423.0,8.0,4.0,1.0,4.0,4.0,356.0641780495643,2.0,1.0,part_1,,,,,,,,,,,,,blue,I
225.0,3.0,3.0,0.0,2.0,2.0,368.5932770604267,2.0,1.0,part_1,,,,,,,,,,,,,gray,cross
102.0,6.0,2.0,1.0,2.0,2.0,460.4326650733128,2.0,1.0,part_1,,,,,,,,,,,,,green,hexagon
379.0,4.0,4.0,0.0,4.0,4.0,372.1755719743669,2.0,1.0,part_1,,,,,,,,,,,,,white,diamond
31.0,5.0,1.0,1.0,3.0,3.0,383.960769046098,2.0,1.0,part_1,,,,,,,,,,,,,orange,circle
225.0,3.0,3.0,0.0,3.0,3.0,381.4254989847541,2.0,1.0,part_1,,,,,,,,,,,,,gray,cross
91.0,6.0,2.0,1.0,3.0,3.0,376.3915069866925,2.0,1.0,part_1,,,,,,,,,,,,,green,hexagon
180.0,7.0,3.0,1.0,2.0,2.0,342.3811100656166,2.0,1.0,part_1,,,,,,,,,,,,,yellow,triangle
0.0,3.0,0.0,0.0,1.0,1.0,463.7033919570967,2.0,1.0,part_1,,,,,,,,,,,,,gray,cross
67.0,1.0,1.0,0.0,4.0,4.0,320.2069960534572,2.0,1.0,part_1,,,,,,,,,,,,,cyan,square
410.0,4.0,4.0,0.0,3.0,3.0,348.8959079841152,2.0,1.0,part_1,,,,,,,,,,,,,white,diamond
0.0,7.0,0.0,1.0,3.0,3.0,309.4525330234319,2.0,1.0,part_1,,,,,,,,,,,,,yellow,triangle
115.0,6.0,2.0,1.0,1.0,1.0,290.6106529990211,2.0,1.0,part_1,,,,,,,,,,,,,green,hexagon
74.0,1.0,1.0,0.0,4.0,4.0,290.1824489235878,2.0,1.0,part_1,,,,,,,,,,,,,cyan,square
69.0,5.0,1.0,1.0,4.0,4.0,317.4105939688161,2.0,1.0,part_1,,,,,,,,,,,,,orange,circle
0.0,4.0,0.0,0.0,2.0,2.0,276.308940956369,2.0,1.0,part_1,,,,,,,,,,,,,white,diamond
123.0,2.0,2.0,0.0,2.0,2.0,325.40725509170437,2.0,1.0,part_1,,,,,,,,,,,,,magenta,flipped triangle
422.0,4.0,4.0,0.0,1.0,1.0,341.6888910578564,2.0,1.0,part_1,,,,,,,,,,,,,white,diamond
120.0,2.0,2.0,0.0,4.0,4.0,311.1529989400878,2.0,1.0,part_1,,,,,,,,,,,,,magenta,flipped triangle
192.0,3.0,3.0,0.0,2.0,2.0,330.6463370099664,2.0,1.0,part_1,,,,,,,,,,,,,gray,cross
191.0,7.0,3.0,1.0,2.0,2.0,282.7639799797907,2.0,1.0,part_1,,,,,,,,,,,,,yellow,triangle
52.0,5.0,1.0,1.0,1.0,1.0,375.510410987772,2.0,1.0,part_1,,,,,,,,,,,,,orange,circle
410.0,4.0,4.0,0.0,4.0,4.0,346.4900930412113,2.0,1.0,part_1,,,,,,,,,,,,,white,diamond
0.0,7.0,0.0,1.0,3.0,3.0,376.5305880224332,2.0,1.0,part_1,,,,,,,,,,,,,yellow,triangle
115.0,2.0,2.0,0.0,2.0,2.0,322.0303580164909,2.0,1.0,part_1,,,,,,,,,,,,,magenta,flipped triangle
116.0,6.0,2.0,1.0,4.0,4.0,367.3598790774122,2.0,1.0,part_1,,,,,,,,,,,,,green,hexagon
409.0,8.0,4.0,1.0,2.0,2.0,371.9222930958494,2.0,1.0,part_1,,,,,,,,,,,,,blue,I
112.0,6.0,2.0,1.0,4.0,4.0,313.3630249649286,2.0,1.0,part_1,,,,,,,,,,,,,green,hexagon
178.0,3.0,3.0,0.0,2.0,2.0,367.0875950483605,2.0,1.0,part_1,,,,,,,,,,,,,gray,cross
32.0,1.0,1.0,0.0,3.0,3.0,354.3589430628344,2.0,1.0,part_1,,,,,,,,,,,,,cyan,square
121.0,2.0,2.0,0.0,1.0,1.0,278.4030459588393,2.0,1.0,part_1,,,,,,,,,,,,,magenta,flipped triangle
0.0,7.0,0.0,1.0,2.0,2.0,325.3879440017044,2.0,1.0,part_1,,,,,,,,,,,,,yellow,triangle
79.0,6.0,2.0,1.0,3.0,3.0,330.2784750703722,2.0,1.0,part_1,,,,,,,,,,,,,green,hexagon
187.0,7.0,3.0,1.0,4.0,4.0,284.693663008511,2.0,1.0,part_1,,,,,,,,,,,,,yellow,triangle
123.0,6.0,2.0,1.0,3.0,3.0,309.4830269692465,2.0,1.0,part_1,,,,,,,,,,,,,green,hexagon
0.0,5.0,0.0,1.0,2.0,2.0,336.3880040124059,2.0,1.0,part_1,,,,,,,,,,,,,orange,circle
423.0,4.0,4.0,0.0,3.0,3.0,349.6321680722758,2.0,1.0,part_1,,,,,,,,,,,,,white,diamond
183.0,7.0,3.0,1.0,1.0,1.0,358.0693389521912,2.0,2.0,part_1,,,,,,,,,,,,,yellow,triangle
91.0,2.0,2.0,0.0,3.0,3.0,424.6665799291804,2.0,1.0,part_1,,,,,,,,,,,,,magenta,flipped triangle
402.0,4.0,4.0,0.0,1.0,1.0,301.3364970684051,2.0,1.0,part_1,,,,,,,,,,,,,white,diamond
79.0,2.0,2.0,0.0,2.0,2.0,314.5341980271041,2.0,1.0,part_1,,,,,,,,,,,,,magenta,flipped triangle
224.0,3.0,3.0,0.0,3.0,3.0,329.0797729277983,2.0,1.0,part_1,,,,,,,,,,,,,gray,cross
58.0,1.0,1.0,0.0,2.0,2.0,371.5455129276961,2.0,1.0,part_1,,,,,,,,,,,,,cyan,square
417.0,8.0,4.0,1.0,2.0,2.0,392.4103858880698,2.0,1.0,part_1,,,,,,,,,,,,,blue,I
215.0,3.0,3.0,0.0,3.0,3.0,344.8387309908867,2.0,1.0,part_1,,,,,,,,,,,,,gray,cross
0.0,8.0,0.0,1.0,4.0,4.0,338.9014770509675,2.0,1.0,part_1,,,,,,,,,,,,,blue,I
409.0,4.0,4.0,0.0,1.0,1.0,302.4273790651932,2.0,1.0,part_1,,,,,,,,,,,,,white,diamond
97.0,6.0,2.0,1.0,3.0,3.0,357.5791049515828,2.0,1.0,part_1,,,,,,,,,,,,,green,hexagon
45.0,5.0,1.0,1.0,1.0,1.0,387.7597129903734,2.0,1.0,part_1,,,,,,,,,,,,,orange,circle
48.0,5.0,1.0,1.0,2.0,2.0,348.7172679742798,2.0,1.0,part_1,,,,,,,,,,,,,orange,circle
94.0,6.0,2.0,1.0,3.0,3.0,316.8654820183292,2.0,1.0,part_1,,,,,,,,,,,,,green,hexagon
224.0,7.0,3.0,1.0,1.0,1.0,350.5578050389886,2.0,1.0,part_1,,,,,,,,,,,,,yellow,triangle
0.0,2.0,0.0,0.0,1.0,1.0,348.9760590018704,2.0,1.0,part_1,,,,,,,,,,,,,magenta,flipped triangle
60.0,5.0,1.0,1.0,3.0,3.0,300.6927480455488,2.0,2.0,part_1,,,,,,,,,,,,,orange,circle
99.0,2.0,2.0,0.0,4.0,4.0,329.0060460567474,2.0,1.0,part_1,,,,,,,,,,,,,magenta,flipped triangle
101.0,2.0,2.0,0.0,4.0,4.0,329.38051992096,2.0,1.0,part_1,,,,,,,,,,,,,magenta,flipped triangle
401.0,4.0,4.0,0.0,2.0,2.0,338.1450490560382,2.0,1.0,part_1,,,,,,,,,,,,,white,diamond
0.0,3.0,0.0,0.0,3.0,3.0,330.7650459464639,2.0,1.0,part_1,,,,,,,,,,,,,gray,cross
0.0,2.0,0.0,0.0,4.0,4.0,342.245818930678,2.0,1.0,part_1,,,,,,,,,,,,,magenta,flipped triangle
97.0,2.0,2.0,0.0,3.0,3.0,306.8189379991963,2.0,1.0,part_1,,,,,,,,,,,,,magenta,flipped triangle
101.0,6.0,2.0,1.0,4.0,4.0,445.7034220686182,2.0,1.0,part_1,,,,,,,,,,,,,green,hexagon
52.0,1.0,1.0,0.0,3.0,3.0,321.3391999015584,2.0,1.0,part_1,,,,,,,,,,,,,cyan,square
198.0,3.0,3.0,0.0,3.0,3.0,369.0225150203332,2.0,1.0,part_1,,,,,,,,,,,,,gray,cross
69.0,1.0,1.0,0.0,2.0,2.0,324.6133190114051,2.0,1.0,part_1,,,,,,,,,,,,,cyan,square
0.0,4.0,0.0,0.0,3.0,3.0,275.0647800276056,2.0,1.0,part_1,,,,,,,,,,,,,white,diamond
0.0,1.0,0.0,0.0,1.0,1.0,396.5993890305981,3.0,1.0,part_1,,,,,,,,,,,,,cyan,square
93.0,6.0,2.0,1.0,1.0,1.0,364.7073600441217,3.0,1.0,part_1,,,,,,,,,,,,,green,hexagon
181.0,7.0,3.0,1.0,1.0,1.0,288.7464539380744,3.0,1.0,part_1,,,,,,,,,,,,,yellow,triangle
63.0,5.0,1.0,1.0,4.0,4.0,316.7086800094694,3.0,1.0,part_1,,,,,,,,,,,,,orange,circle
0.0,7.0,0.0,1.0,4.0,4.0,289.533216971904,3.0,1.0,part_1,,,,,,,,,,,,,yellow,triangle
418.0,8.0,4.0,1.0,3.0,3.0,349.6364299207926,3.0,1.0,part_1,,,,,,,,,,,,,blue,I
0.0,8.0,0.0,1.0,4.0,4.0,297.1139840083197,3.0,1.0,part_1,,,,,,,,,,,,,blue,I
104.0,6.0,2.0,1.0,2.0,2.0,333.2374689634889,3.0,1.0,part_1,,,,,,,,,,,,,green,hexagon
56.0,1.0,1.0,0.0,1.0,1.0,341.5364499669522,3.0,1.0,part_1,,,,,,,,,,,,,cyan,square
398.0,4.0,4.0,0.0,3.0,3.0,304.3578609358519,3.0,1.0,part_1,,,,,,,,,,,,,white,diamond
212.0,7.0,3.0,1.0,4.0,4.0,291.9256220338866,3.0,1.0,part_1,,,,,,,,,,,,,yellow,triangle
178.0,3.0,3.0,0.0,3.0,3.0,316.1150689702481,3.0,1.0,part_1,,,,,,,,,,,,,gray,cross
383.0,4.0,4.0,0.0,2.0,2.0,295.6405249424279,3.0,1.0,part_1,,,,,,,,,,,,,white,diamond
66.0,5.0,1.0,1.0,4.0,4.0,354.3329279636964,3.0,1.0,part_1,,,,,,,,,,,,,orange,circle
376.0,4.0,4.0,0.0,1.0,1.0,286.8323579896241,3.0,1.0,part_1,,,,,,,,,,,,,white,diamond
200.0,3.0,3.0,0.0,2.0,2.0,354.8332030186429,3.0,1.0,part_1,,,,,,,,,,,,,gray,cross
27.0,5.0,1.0,1.0,3.0,3.0,311.1717118881643,3.0,1.0,part_1,,,,,,,,,,,,,orange,circle
0.0,2.0,0.0,0.0,1.0,1.0,360.0012270035222,3.0,1.0,part_1,,,,,,,,,,,,,magenta,flipped triangle
192.0,7.0,3.0,1.0,4.0,4.0,305.3301359759643,3.0,1.0,part_1,,,,,,,,,,,,,yellow,triangle
84.0,6.0,2.0,1.0,4.0,4.0,336.5917300106957,3.0,1.0,part_1,,,,,,,,,,,,,green,hexagon
383.0,4.0,4.0,0.0,2.0,2.0,309.4719700748101,3.0,1.0,part_1,,,,,,,,,,,,,white,diamond
36.0,1.0,1.0,0.0,4.0,4.0,290.728067047894,3.0,1.0,part_1,,,,,,,,,,,,,cyan,square
420.0,4.0,4.0,0.0,4.0,4.0,308.3404069766402,3.0,1.0,part_1,,,,,,,,,,,,,white,diamond
418.0,4.0,4.0,0.0,1.0,1.0,298.3380820369348,3.0,1.0,part_1,,,,,,,,,,,,,white,diamond
0.0,5.0,0.0,1.0,4.0,4.0,325.6643490167334,3.0,1.0,part_1,,,,,,,,,,,,,orange,circle
74.0,5.0,1.0,1.0,2.0,2.0,341.3560199551284,3.0,1.0,part_1,,,,,,,,,,,,,orange,circle
0.0,8.0,0.0,1.0,1.0,1.0,329.3720160145312,3.0,1.0,part_1,,,,,,,,,,,,,blue,I
210.0,7.0,3.0,1.0,1.0,1.0,358.0172350630164,3.0,1.0,part_1,,,,,,,,,,,,,yellow,triangle
76.0,2.0,2.0,0.0,3.0,3.0,330.0255789654329,3.0,1.0,part_1,,,,,,,,,,,,,magenta,flipped triangle
0.0,2.0,0.0,0.0,1.0,1.0,343.6548989266157,3.0,1.0,part_1,,,,,,,,,,,,,magenta,flipped triangle
49.0,1.0,1.0,0.0,1.0,1.0,339.3468180438503,3.0,1.0,part_1,,,,,,,,,,,,,cyan,square
210.0,3.0,3.0,0.0,4.0,4.0,328.5250109620392,3.0,1.0,part_1,,,,,,,,,,,,,gray,cross
199.0,7.0,3.0,1.0,3.0,3.0,339.1128700459376,3.0,1.0,part_1,,,,,,,,,,,,,yellow,triangle
119.0,6.0,2.0,1.0,2.0,2.0,305.7564599439502,3.0,1.0,part_1,,,,,,,,,,,,,green,hexagon
124.0,2.0,2.0,0.0,3.0,3.0,350.3078790381551,3.0,1.0,part_1,,,,,,,,,,,,,magenta,flipped triangle
0.0,4.0,0.0,0.0,4.0,4.0,392.7002489799633,3.0,1.0,part_1,,,,,,,,,,,,,white,diamond
0.0,5.0,0.0,1.0,4.0,4.0,373.3254389371723,3.0,1.0,part_1,,,,,,,,,,,,,orange,circle
124.0,6.0,2.0,1.0,3.0,3.0,322.8632269892841,3.0,1.0,part_1,,,,,,,,,,,,,green,hexagon
178.0,7.0,3.0,1.0,4.0,4.0,321.2042880477384,3.0,1.0,part_1,,,,,,,,,,,,,yellow,triangle
36.0,5.0,1.0,1.0,4.0,4.0,342.6014990545809,3.0,1.0,part_1,,,,,,,,,,,,,orange,circle
203.0,3.0,3.0,0.0,3.0,3.0,335.6864530360326,3.0,1.0,part_1,,,,,,,,,,,,,gray,cross
205.0,7.0,3.0,1.0,4.0,4.0,295.2226870693266,3.0,1.0,part_1,,,,,,,,,,,,,yellow,triangle
97.0,6.0,2.0,1.0,2.0,2.0,324.1931739030406,3.0,1.0,part_1,,,,,,,,,,,,,green,hexagon
399.0,8.0,4.0,1.0,4.0,4.0,320.9157299716025,3.0,1.0,part_1,,,,,,,,,,,,,blue,I
101.0,2.0,2.0,0.0,2.0,2.0,308.8829279877245,3.0,1.0,part_1,,,,,,,,,,,,,magenta,flipped triangle
221.0,3.0,3.0,0.0,1.0,1.0,344.0570179373026,3.0,1.0,part_1,,,,,,,,,,,,,gray,cross
401.0,8.0,4.0,1.0,3.0,3.0,279.4429929926991,3.0,1.0,part_1,,,,,,,,,,,,,blue,I
193.0,7.0,3.0,1.0,1.0,1.0,436.1531140748411,3.0,1.0,part_1,,,,,,,,,,,,,yellow,triangle
80.0,6.0,2.0,1.0,1.0,1.0,333.5414429893717,3.0,1.0,part_1,,,,,,,,,,,,,green,hexagon
377.0,4.0,4.0,0.0,4.0,4.0,298.3417339855805,3.0,1.0,part_1,,,,,,,,,,,,,white,diamond
187.0,3.0,3.0,0.0,4.0,4.0,297.7760870708152,3.0,1.0,part_1,,,,,,,,,,,,,gray,cross
52.0,1.0,1.0,0.0,2.0,2.0,301.0594339575618,3.0,1.0,part_1,,,,,,,,,,,,,cyan,square
0.0,1.0,0.0,0.0,2.0,2.0,353.2144069904461,3.0,1.0,part_1,,,,,,,,,,,,,cyan,square
0.0,6.0,0.0,1.0,3.0,3.0,316.598343080841,3.0,1.0,part_1,,,,,,,,,,,,,green,hexagon
35.0,5.0,1.0,1.0,3.0,3.0,313.8026719680056,3.0,1.0,part_1,,,,,,,,,,,,,orange,circle
66.0,1.0,1.0,0.0,4.0,4.0,317.981242085807,3.0,1.0,part_1,,,,,,,,,,,,,cyan,square
52.0,5.0,1.0,1.0,3.0,3.0,292.8282300708815,3.0,1.0,part_1,,,,,,,,,,,,,orange,circle
410.0,8.0,4.0,1.0,1.0,1.0,328.7143839988857,3.0,1.0,part_1,,,,,,,,,,,,,blue,I
397.0,8.0,4.0,1.0,3.0,3.0,300.4505039425567,3.0,1.0,part_1,,,,,,,,,,,,,blue,I
377.0,8.0,4.0,1.0,3.0,3.0,340.0157080031931,3.0,1.0,part_1,,,,,,,,,,,,,blue,I
399.0,4.0,4.0,0.0,2.0,2.0,293.6396320583299,3.0,1.0,part_1,,,,,,,,,,,,,white,diamond
0.0,6.0,0.0,1.0,3.0,3.0,289.8696719203144,3.0,2.0,part_1,,,,,,,,,,,,,green,hexagon
0.0,8.0,0.0,1.0,2.0,2.0,357.2763350093737,3.0,1.0,part_1,,,,,,,,,,,,,blue,I
385.0,4.0,4.0,0.0,4.0,4.0,283.9824589900672,3.0,1.0,part_1,,,,,,,,,,,,,white,diamond
405.0,8.0,4.0,1.0,1.0,1.0,292.9902790347114,3.0,1.0,part_1,,,,,,,,,,,,,blue,I
0.0,5.0,0.0,1.0,2.0,2.0,325.5024600075558,3.0,1.0,part_1,,,,,,,,,,,,,orange,circle
0.0,3.0,0.0,0.0,1.0,1.0,329.9478270346299,3.0,1.0,part_1,,,,,,,,,,,,,gray,cross
177.0,3.0,3.0,0.0,4.0,4.0,307.43285396602,3.0,1.0,part_1,,,,,,,,,,,,,gray,cross
64.0,5.0,1.0,1.0,3.0,3.0,304.4402250088751,3.0,1.0,part_1,,,,,,,,,,,,,orange,circle
385.0,8.0,4.0,1.0,1.0,1.0,334.43010202609,3.0,1.0,part_1,,,,,,,,,,,,,blue,I
180.0,3.0,3.0,0.0,2.0,2.0,314.7204320412129,3.0,1.0,part_1,,,,,,,,,,,,,gray,cross
0.0,2.0,0.0,0.0,3.0,3.0,296.8073129886761,3.0,1.0,part_1,,,,,,,,,,,,,magenta,flipped triangle
420.0,8.0,4.0,1.0,3.0,3.0,286.7676840396598,3.0,1.0,part_1,,,,,,,,,,,,,blue,I
205.0,3.0,3.0,0.0,2.0,2.0,319.3161609815433,3.0,1.0,part_1,,,,,,,,,,,,,gray,cross
109.0,6.0,2.0,1.0,4.0,4.0,270.6653429195285,3.0,1.0,part_1,,,,,,,,,,,,,green,hexagon
402.0,8.0,4.0,1.0,3.0,3.0,300.8618659805506,3.0,1.0,part_1,,,,,,,,,,,,,blue,I
179.0,3.0,3.0,0.0,3.0,3.0,319.336715969257,3.0,1.0,part_1,,,,,,,,,,,,,gray,cross
0.0,8.0,0.0,1.0,2.0,2.0,316.0330189857632,3.0,1.0,part_1,,,,,,,,,,,,,blue,I
73.0,5.0,1.0,1.0,2.0,2.0,326.3771969359368,3.0,1.0,part_1,,,,,,,,,,,,,orange,circle
32.0,1.0,1.0,0.0,3.0,3.0,309.7378729144111,3.0,1.0,part_1,,,,,,,,,,,,,cyan,square
395.0,4.0,4.0,0.0,2.0,2.0,304.8715359764173,3.0,1.0,part_1,,,,,,,,,,,,,white,diamond
181.0,3.0,3.0,0.0,1.0,1.0,349.2766660638153,3.0,1.0,part_1,,,,,,,,,,,,,gray,cross
0.0,8.0,0.0,1.0,1.0,1.0,404.8443670617416,3.0,1.0,part_1,,,,,,,,,,,,,blue,I
0.0,1.0,0.0,0.0,1.0,1.0,353.1742600025609,3.0,1.0,part_1,,,,,,,,,,,,,cyan,square
0.0,6.0,0.0,1.0,2.0,2.0,347.5535529432818,3.0,1.0,part_1,,,,,,,,,,,,,green,hexagon
398.0,8.0,4.0,1.0,1.0,1.0,297.4182680482045,3.0,1.0,part_1,,,,,,,,,,,,,blue,I
406.0,4.0,4.0,0.0,2.0,2.0,327.4819209473207,3.0,1.0,part_1,,,,,,,,,,,,,white,diamond
106.0,2.0,2.0,0.0,3.0,3.0,316.7163409525528,3.0,1.0,part_1,,,,,,,,,,,,,magenta,flipped triangle
0.0,7.0,0.0,1.0,4.0,4.0,254.7407859237864,3.0,1.0,part_1,,,,,,,,,,,,,yellow,triangle
184.0,3.0,3.0,0.0,4.0,4.0,326.0695820208639,3.0,1.0,part_1,,,,,,,,,,,,,gray,cross
383.0,4.0,4.0,0.0,2.0,2.0,311.3485429203138,3.0,1.0,part_1,,,,,,,,,,,,,white,diamond
393.0,8.0,4.0,1.0,4.0,4.0,308.0768639920279,3.0,1.0,part_1,,,,,,,,,,,,,blue,I
197.0,7.0,3.0,1.0,2.0,2.0,315.9739769762382,3.0,1.0,part_1,,,,,,,,,,,,,yellow,triangle
210.0,7.0,3.0,1.0,1.0,1.0,269.8102439753711,3.0,1.0,part_1,,,,,,,,,,,,,yellow,triangle
97.0,2.0,2.0,0.0,4.0,4.0,289.4526480231434,3.0,1.0,part_1,,,,,,,,,,,,,magenta,flipped triangle
102.0,2.0,2.0,0.0,1.0,1.0,322.3098269663751,3.0,1.0,part_1,,,,,,,,,,,,,magenta,flipped triangle
75.0,6.0,2.0,1.0,1.0,1.0,373.6285689519718,3.0,1.0,part_1,,,,,,,,,,,,,green,hexagon
200.0,7.0,3.0,1.0,3.0,3.0,364.5332149462774,3.0,2.0,part_1,,,,,,,,,,,,,yellow,triangle
0.0,6.0,0.0,1.0,4.0,4.0,314.5944169955328,3.0,1.0,part_1,,,,,,,,,,,,,green,hexagon
56.0,5.0,1.0,1.0,4.0,4.0,361.834287061356,3.0,1.0,part_1,,,,,,,,,,,,,orange,circle
204.0,7.0,3.0,1.0,1.0,1.0,310.0575410062447,4.0,1.0,part_1,,,,,,,,,,,,,yellow,triangle
64.0,1.0,1.0,0.0,4.0,4.0,281.724372995086,4.0,1.0,part_1,,,,,,,,,,,,,cyan,square
0.0,4.0,0.0,0.0,2.0,2.0,296.3842399185523,4.0,1.0,part_1,,,,,,,,,,,,,white,diamond
381.0,4.0,4.0,0.0,4.0,4.0,269.1660980926826,4.0,1.0,part_1,,,,,,,,,,,,,white,diamond
212.0,7.0,3.0,1.0,2.0,2.0,240.708177909255,4.0,1.0,part_1,,,,,,,,,,,,,yellow,triangle
75.0,2.0,2.0,0.0,1.0,1.0,256.1987160006538,4.0,1.0,part_1,,,,,,,,,,,,,magenta,flipped triangle
397.0,4.0,4.0,0.0,2.0,2.0,291.624641045928,4.0,1.0,part_1,,,,,,,,,,,,,white,diamond
376.0,8.0,4.0,1.0,1.0,1.0,317.5800810568034,4.0,1.0,part_1,,,,,,,,,,,,,blue,I
381.0,8.0,4.0,1.0,1.0,1.0,405.8867070125416,4.0,1.0,part_1,,,,,,,,,,,,,blue,I
383.0,8.0,4.0,1.0,4.0,4.0,305.5762150324881,4.0,1.0,part_1,,,,,,,,,,,,,blue,I
421.0,8.0,4.0,1.0,3.0,3.0,319.4018219364807,4.0,1.0,part_1,,,,,,,,,,,,,blue,I
50.0,5.0,1.0,1.0,3.0,3.0,346.7478060629219,4.0,1.0,part_1,,,,,,,,,,,,,orange,circle
104.0,2.0,2.0,0.0,1.0,1.0,336.5910439752042,4.0,1.0,part_1,,,,,,,,,,,,,magenta,flipped triangle
106.0,6.0,2.0,1.0,3.0,3.0,362.0447339490056,4.0,1.0,part_1,,,,,,,,,,,,,green,hexagon
394.0,4.0,4.0,0.0,4.0,4.0,423.239946947433,4.0,1.0,part_1,,,,,,,,,,,,,white,diamond
94.0,2.0,2.0,0.0,2.0,2.0,284.7542850067839,4.0,1.0,part_1,,,,,,,,,,,,,magenta,flipped triangle
123.0,2.0,2.0,0.0,3.0,3.0,288.7496770126745,4.0,1.0,part_1,,,,,,,,,,,,,magenta,flipped triangle
52.0,1.0,1.0,0.0,3.0,3.0,332.5679519912228,4.0,1.0,part_1,,,,,,,,,,,,,cyan,square
0.0,1.0,0.0,0.0,4.0,4.0,321.827405015938,4.0,1.0,part_1,,,,,,,,,,,,,cyan,square
102.0,6.0,2.0,1.0,1.0,1.0,265.6409170012921,4.0,1.0,part_1,,,,,,,,,,,,,green,hexagon
221.0,7.0,3.0,1.0,4.0,4.0,294.8344930773601,4.0,1.0,part_1,,,,,,,,,,,,,yellow,triangle
405.0,8.0,4.0,1.0,2.0,2.0,296.2178960442543,4.0,1.0,part_1,,,,,,,,,,,,,blue,I
205.0,3.0,3.0,0.0,4.0,4.0,280.521190026775,4.0,2.0,part_1,,,,,,,,,,,,,gray,cross
0.0,1.0,0.0,0.0,4.0,4.0,265.4215230140835,4.0,1.0,part_1,,,,,,,,,,,,,cyan,square
405.0,4.0,4.0,0.0,2.0,2.0,337.6509399386123,4.0,1.0,part_1,,,,,,,,,,,,,white,diamond
0.0,4.0,0.0,0.0,2.0,2.0,465.5553239863366,4.0,1.0,part_1,,,,,,,,,,,,,white,diamond
189.0,7.0,3.0,1.0,2.0,2.0,325.253440067172,4.0,1.0,part_1,,,,,,,,,,,,,yellow,triangle
219.0,3.0,3.0,0.0,2.0,2.0,347.9370400309562,4.0,1.0,part_1,,,,,,,,,,,,,gray,cross
382.0,8.0,4.0,1.0,3.0,3.0,301.6301229363307,4.0,1.0,part_1,,,,,,,,,,,,,blue,I
47.0,1.0,1.0,0.0,4.0,4.0,309.6752169076353,4.0,1.0,part_1,,,,,,,,,,,,,cyan,square
55.0,5.0,1.0,1.0,4.0,4.0,328.1007319455966,4.0,1.0,part_1,,,,,,,,,,,,,orange,circle
203.0,7.0,3.0,1.0,1.0,1.0,322.6682608947158,4.0,1.0,part_1,,,,,,,,,,,,,yellow,triangle
198.0,7.0,3.0,1.0,3.0,3.0,299.0963390329852,4.0,1.0,part_1,,,,,,,,,,,,,yellow,triangle
222.0,3.0,3.0,0.0,3.0,3.0,333.856059005484,4.0,1.0,part_1,,,,,,,,,,,,,gray,cross
0.0,2.0,0.0,0.0,3.0,3.0,395.7162449369207,4.0,1.0,part_1,,,,,,,,,,,,,magenta,flipped triangle
0.0,3.0,0.0,0.0,2.0,2.0,358.4785250714049,4.0,1.0,part_1,,,,,,,,,,,,,gray,cross
0.0,1.0,0.0,0.0,3.0,3.0,314.506953000091,4.0,1.0,part_1,,,,,,,,,,,,,cyan,square
27.0,1.0,1.0,0.0,1.0,1.0,361.5156529704109,4.0,1.0,part_1,,,,,,,,,,,,,cyan,square
210.0,3.0,3.0,0.0,4.0,4.0,267.5718630198389,4.0,1.0,part_1,,,,,,,,,,,,,gray,cross
189.0,3.0,3.0,0.0,1.0,1.0,280.446310993284,4.0,1.0,part_1,,,,,,,,,,,,,gray,cross
0.0,7.0,0.0,1.0,3.0,3.0,349.1219850257039,4.0,1.0,part_1,,,,,,,,,,,,,yellow,triangle
111.0,6.0,2.0,1.0,2.0,2.0,321.622124989517,4.0,1.0,part_1,,,,,,,,,,,,,green,hexagon
422.0,4.0,4.0,0.0,1.0,1.0,288.592099910602,4.0,1.0,part_1,,,,,,,,,,,,,white,diamond
27.0,5.0,1.0,1.0,1.0,1.0,333.8337679160759,4.0,1.0,part_1,,,,,,,,,,,,,orange,circle
82.0,2.0,2.0,0.0,4.0,4.0,288.7959899380803,4.0,1.0,part_1,,,,,,,,,,,,,magenta,flipped triangle
389.0,8.0,4.0,1.0,2.0,2.0,333.7816769490018,4.0,1.0,part_1,,,,,,,,,,,,,blue,I
394.0,8.0,4.0,1.0,4.0,4.0,322.0297209918499,4.0,1.0,part_1,,,,,,,,,,,,,blue,I
109.0,2.0,2.0,0.0,3.0,3.0,352.7694760123268,4.0,1.0,part_1,,,,,,,,,,,,,magenta,flipped triangle
0.0,7.0,0.0,1.0,4.0,4.0,364.7970759775489,4.0,1.0,part_1,,,,,,,,,,,,,yellow,triangle
32.0,1.0,1.0,0.0,4.0,4.0,335.5130479903891,4.0,1.0,part_1,,,,,,,,,,,,,cyan,square
215.0,7.0,3.0,1.0,4.0,4.0,382.7273320639506,4.0,1.0,part_1,,,,,,,,,,,,,yellow,triangle
0.0,6.0,0.0,1.0,1.0,1.0,353.738529025577,4.0,1.0,part_1,,,,,,,,,,,,,green,hexagon
0.0,3.0,0.0,0.0,3.0,3.0,439.3503840547055,4.0,1.0,part_1,,,,,,,,,,,,,gray,cross
184.0,7.0,3.0,1.0,3.0,3.0,332.6777380425483,4.0,1.0,part_1,,,,,,,,,,,,,yellow,triangle
0.0,5.0,0.0,1.0,2.0,2.0,336.7434210376814,4.0,1.0,part_1,,,,,,,,,,,,,orange,circle
31.0,5.0,1.0,1.0,1.0,1.0,341.0062770126387,4.0,1.0,part_1,,,,,,,,,,,,,orange,circle
84.0,2.0,2.0,0.0,4.0,4.0,338.2958670845255,4.0,1.0,part_1,,,,,,,,,,,,,magenta,flipped triangle
0.0,1.0,0.0,0.0,2.0,2.0,308.6943969829008,4.0,1.0,part_1,,,,,,,,,,,,,cyan,square
67.0,1.0,1.0,0.0,4.0,4.0,308.9096889598295,4.0,1.0,part_1,,,,,,,,,,,,,cyan,square
63.0,1.0,1.0,0.0,1.0,1.0,289.68456794973457,4.0,1.0,part_1,,,,,,,,,,,,,cyan,square
36.0,5.0,1.0,1.0,1.0,1.0,333.6530039086938,4.0,1.0,part_1,,,,,,,,,,,,,orange,circle
418.0,8.0,4.0,1.0,4.0,4.0,290.0268170051276,4.0,1.0,part_1,,,,,,,,,,,,,blue,I
32.0,5.0,1.0,1.0,1.0,1.0,285.8994799898937,4.0,1.0,part_1,,,,,,,,,,,,,orange,circle
112.0,2.0,2.0,0.0,3.0,3.0,292.6095470320433,4.0,1.0,part_1,,,,,,,,,,,,,magenta,flipped triangle
0.0,3.0,0.0,0.0,1.0,1.0,389.62886400986457,4.0,1.0,part_1,,,,,,,,,,,,,gray,cross
60.0,5.0,1.0,1.0,2.0,2.0,292.9126989329234,4.0,1.0,part_1,,,,,,,,,,,,,orange,circle
187.0,3.0,3.0,0.0,1.0,1.0,321.0700519848615,4.0,1.0,part_1,,,,,,,,,,,,,gray,cross
222.0,7.0,3.0,1.0,2.0,2.0,325.7461040047928,4.0,1.0,part_1,,,,,,,,,,,,,yellow,triangle
0.0,6.0,0.0,1.0,4.0,4.0,272.9404459241777,4.0,1.0,part_1,,,,,,,,,,,,,green,hexagon
412.0,4.0,4.0,0.0,3.0,3.0,318.2347289985046,4.0,1.0,part_1,,,,,,,,,,,,,white,diamond
211.0,3.0,3.0,0.0,4.0,4.0,355.2344960626215,4.0,1.0,part_1,,,,,,,,,,,,,gray,cross
0.0,2.0,0.0,0.0,1.0,1.0,272.2028610296547,4.0,1.0,part_1,,,,,,,,,,,,,magenta,flipped triangle
422.0,8.0,4.0,1.0,2.0,2.0,275.8437510346994,4.0,1.0,part_1,,,,,,,,,,,,,blue,I
389.0,4.0,4.0,0.0,4.0,4.0,345.8301089704036,4.0,1.0,part_1,,,,,,,,,,,,,white,diamond
121.0,6.0,2.0,1.0,1.0,1.0,262.3126149410382,4.0,1.0,part_1,,,,,,,,,,,,,green,hexagon
46.0,5.0,1.0,1.0,3.0,3.0,300.7558529498055,4.0,1.0,part_1,,,,,,,,,,,,,orange,circle
212.0,3.0,3.0,0.0,4.0,4.0,329.4033979764208,4.0,1.0,part_1,,,,,,,,,,,,,gray,cross
87.0,2.0,2.0,0.0,4.0,4.0,333.4162599639967,4.0,1.0,part_1,,,,,,,,,,,,,magenta,flipped triangle
58.0,5.0,1.0,1.0,4.0,4.0,305.1867320900783,4.0,1.0,part_1,,,,,,,,,,,,,orange,circle
71.0,1.0,1.0,0.0,4.0,4.0,348.1991930166259,4.0,1.0,part_1,,,,,,,,,,,,,cyan,square
121.0,6.0,2.0,1.0,2.0,2.0,338.1227350328117,4.0,1.0,part_1,,,,,,,,,,,,,green,hexagon
0.0,4.0,0.0,0.0,2.0,2.0,348.8927079597488,4.0,1.0,part_1,,,,,,,,,,,,,white,diamond
68.0,1.0,1.0,0.0,3.0,3.0,394.7278680279851,4.0,1.0,part_1,,,,,,,,,,,,,cyan,square
194.0,7.0,3.0,1.0,3.0,3.0,338.2410240592435,4.0,1.0,part_1,,,,,,,,,,,,,yellow,triangle
410.0,8.0,4.0,1.0,2.0,2.0,325.8921779925003,4.0,1.0,part_1,,,,,,,,,,,,,blue,I
29.0,5.0,1.0,1.0,2.0,2.0,331.7895469954237,4.0,1.0,part_1,,,,,,,,,,,,,orange,circle
183.0,7.0,3.0,1.0,4.0,4.0,304.725653026253,4.0,1.0,part_1,,,,,,,,,,,,,yellow,triangle
60.0,1.0,1.0,0.0,3.0,3.0,292.7745459601283,4.0,1.0,part_1,,,,,,,,,,,,,cyan,square
0.0,7.0,0.0,1.0,3.0,3.0,313.6146289762109,4.0,1.0,part_1,,,,,,,,,,,,,yellow,triangle
91.0,6.0,2.0,1.0,3.0,3.0,309.798477916047,4.0,1.0,part_1,,,,,,,,,,,,,green,hexagon
68.0,1.0,1.0,0.0,1.0,1.0,316.5032700635493,4.0,2.0,part_1,,,,,,,,,,,,,cyan,square
115.0,6.0,2.0,1.0,3.0,3.0,328.8948920089751,4.0,1.0,part_1,,,,,,,,,,,,,green,hexagon
204.0,3.0,3.0,0.0,1.0,1.0,296.1834330344572,4.0,1.0,part_1,,,,,,,,,,,,,gray,cross
78.0,6.0,2.0,1.0,1.0,1.0,330.0721920095384,4.0,1.0,part_1,,,,,,,,,,,,,green,hexagon
183.0,3.0,3.0,0.0,2.0,2.0,337.2405479894951,4.0,1.0,part_1,,,,,,,,,,,,,gray,cross
120.0,6.0,2.0,1.0,4.0,4.0,358.5793679812923,4.0,1.0,part_1,,,,,,,,,,,,,green,hexagon
113.0,2.0,2.0,0.0,3.0,3.0,321.4633530005812,4.0,1.0,part_1,,,,,,,,,,,,,magenta,flipped triangle
211.0,7.0,3.0,1.0,2.0,2.0,284.7096630139276,4.0,1.0,part_1,,,,,,,,,,,,,yellow,triangle
0.0,4.0,0.0,0.0,2.0,2.0,309.2270200140774,4.0,1.0,part_1,,,,,,,,,,,,,white,diamond
179.0,7.0,3.0,1.0,1.0,1.0,320.3968380112201,4.0,1.0,part_1,,,,,,,,,,,,,yellow,triangle
0.0,6.0,2.0,1.0,6.0,0.0,0.0,1.0,0.0,part_2,stop,250.0,250.0,4.0,,,,,,,,,green,hexagon
0.0,6.0,2.0,1.0,5.0,5.0,323.3298830455169,1.0,0.0,part_2,go,250.0,300.0,1.0,,,,,,,,,green,hexagon
0.0,6.0,2.0,1.0,5.0,5.0,314.9763110559433,1.0,0.0,part_2,go,250.0,300.0,1.0,,,,,,,,,green,hexagon
0.0,3.0,3.0,0.0,6.0,6.0,352.0888170460239,1.0,0.0,part_2,go,250.0,300.0,1.0,,,,,,,,,gray,cross
0.0,5.0,1.0,1.0,5.0,5.0,347.149329027161,1.0,0.0,part_2,go,250.0,300.0,1.0,,,,,,,,,orange,circle
0.0,7.0,3.0,1.0,5.0,5.0,277.9463599435985,1.0,0.0,part_2,stop,250.0,300.0,3.0,,,,,,,,,yellow,triangle
0.0,6.0,2.0,1.0,5.0,0.0,0.0,1.0,0.0,part_2,stop,200.0,300.0,4.0,,,,,,,,,green,hexagon
0.0,1.0,1.0,0.0,6.0,6.0,286.0037790378555,1.0,0.0,part_2,go,250.0,300.0,1.0,,,,,,,,,cyan,square
0.0,1.0,1.0,0.0,5.0,5.0,341.3929879898205,1.0,0.0,part_2,go,250.0,300.0,1.0,,,,,,,,,cyan,square
0.0,8.0,4.0,1.0,5.0,5.0,335.8310279436409,1.0,0.0,part_2,go,250.0,300.0,1.0,,,,,,,,,blue,I
0.0,2.0,2.0,0.0,6.0,6.0,335.6527920113876,1.0,0.0,part_2,go,250.0,300.0,1.0,,,,,,,,,magenta,flipped triangle
0.0,1.0,1.0,0.0,6.0,6.0,308.842331985943,1.0,0.0,part_2,go,250.0,300.0,1.0,,,,,,,,,cyan,square
0.0,6.0,2.0,1.0,6.0,6.0,291.1939810728654,1.0,0.0,part_2,stop,250.0,300.0,3.0,,,,,,,,,green,hexagon
0.0,2.0,2.0,0.0,6.0,6.0,293.99286408443,1.0,0.0,part_2,go,250.0,250.0,1.0,,,,,,,,,magenta,flipped triangle
0.0,5.0,1.0,1.0,6.0,6.0,301.5464770141989,1.0,0.0,part_2,stop,250.0,250.0,3.0,,,,,,,,,orange,circle
0.0,2.0,2.0,0.0,6.0,6.0,459.0251449262723,1.0,0.0,part_2,go,250.0,200.0,1.0,,,,,,,,,magenta,flipped triangle
0.0,7.0,3.0,1.0,6.0,6.0,339.9070460582152,1.0,0.0,part_2,stop,250.0,200.0,3.0,,,,,,,,,yellow,triangle
0.0,5.0,1.0,1.0,5.0,0.0,0.0,1.0,0.0,part_2,stop,250.0,150.0,4.0,,,,,,,,,orange,circle
0.0,6.0,2.0,1.0,6.0,6.0,266.8821030529216,1.0,0.0,part_2,stop,300.0,150.0,3.0,,,,,,,,,green,hexagon
0.0,2.0,2.0,0.0,6.0,6.0,370.6076160306111,1.0,0.0,part_2,go,300.0,100.0,1.0,,,,,,,,,magenta,flipped triangle
0.0,6.0,2.0,1.0,5.0,5.0,350.8366239257157,1.0,0.0,part_2,stop,300.0,100.0,3.0,,,,,,,,,green,hexagon
0.0,5.0,1.0,1.0,5.0,0.0,0.0,1.0,0.0,part_2,stop,250.0,100.0,4.0,,,,,,,,,orange,circle
0.0,1.0,1.0,0.0,6.0,6.0,534.0717659564689,1.0,0.0,part_2,go,300.0,100.0,1.0,,,,,,,,,cyan,square
0.0,8.0,4.0,1.0,5.0,5.0,344.7990729473531,1.0,0.0,part_2,go,300.0,100.0,1.0,,,,,,,,,blue,I
0.0,3.0,3.0,0.0,6.0,6.0,359.5830040285364,1.0,0.0,part_2,go,300.0,100.0,1.0,,,,,,,,,gray,cross
0.0,4.0,4.0,0.0,6.0,6.0,332.2013180004433,1.0,0.0,part_2,go,300.0,100.0,1.0,,,,,,,,,white,diamond
0.0,5.0,1.0,1.0,5.0,5.0,390.9622500650584,1.0,0.0,part_2,stop,300.0,100.0,3.0,,,,,,,,,orange,circle
0.0,1.0,1.0,0.0,5.0,5.0,447.1374390413984,1.0,0.0,part_2,go,250.0,100.0,1.0,,,,,,,,,cyan,square
0.0,6.0,2.0,1.0,5.0,5.0,507.78346695005894,1.0,0.0,part_2,go,250.0,100.0,1.0,,,,,,,,,green,hexagon
0.0,3.0,3.0,0.0,6.0,6.0,385.689593036659,1.0,0.0,part_2,go,250.0,100.0,1.0,,,,,,,,,gray,cross
0.0,5.0,1.0,1.0,6.0,0.0,0.0,1.0,0.0,part_2,stop,250.0,100.0,4.0,,,,,,,,,orange,circle
0.0,6.0,2.0,1.0,6.0,0.0,0.0,1.0,0.0,part_2,stop,250.0,150.0,4.0,,,,,,,,,green,hexagon
0.0,2.0,2.0,0.0,6.0,6.0,488.1905840011313,1.0,0.0,part_2,go,250.0,200.0,1.0,,,,,,,,,magenta,flipped triangle
0.0,7.0,3.0,1.0,5.0,5.0,257.6446839375421,1.0,0.0,part_2,go,250.0,200.0,1.0,,,,,,,,,yellow,triangle
0.0,4.0,4.0,0.0,5.0,5.0,409.9334890488535,1.0,0.0,part_2,go,250.0,200.0,1.0,,,,,,,,,white,diamond
0.0,5.0,1.0,1.0,5.0,5.0,320.14677196275437,1.0,0.0,part_2,go,250.0,200.0,1.0,,,,,,,,,orange,circle
0.0,6.0,2.0,1.0,6.0,0.0,0.0,2.0,0.0,part_2,stop,250.0,200.0,4.0,,,,,,,,,green,hexagon
0.0,3.0,3.0,0.0,6.0,6.0,481.8363930098712,2.0,0.0,part_2,go,250.0,250.0,1.0,,,,,,,,,gray,cross
0.0,5.0,1.0,1.0,5.0,5.0,287.2863579541445,2.0,0.0,part_2,stop,250.0,250.0,3.0,,,,,,,,,orange,circle
0.0,4.0,4.0,0.0,6.0,6.0,462.3326209839433,2.0,0.0,part_2,go,200.0,250.0,1.0,,,,,,,,,white,diamond
0.0,2.0,2.0,0.0,6.0,6.0,367.0849460177123,2.0,0.0,part_2,go,200.0,250.0,1.0,,,,,,,,,magenta,flipped triangle
0.0,4.0,4.0,0.0,6.0,6.0,388.7087790062651,2.0,0.0,part_2,go,200.0,250.0,1.0,,,,,,,,,white,diamond
0.0,6.0,2.0,1.0,5.0,0.0,0.0,2.0,0.0,part_2,stop,200.0,250.0,4.0,,,,,,,,,green,hexagon
0.0,1.0,1.0,0.0,6.0,6.0,389.638902968727,2.0,0.0,part_2,go,250.0,250.0,1.0,,,,,,,,,cyan,square
0.0,2.0,2.0,0.0,5.0,5.0,426.8183959648013,2.0,0.0,part_2,go,250.0,250.0,1.0,,,,,,,,,magenta,flipped triangle
0.0,4.0,4.0,0.0,6.0,6.0,365.6178889796138,2.0,0.0,part_2,go,250.0,250.0,1.0,,,,,,,,,white,diamond
0.0,1.0,1.0,0.0,6.0,6.0,348.6794830532744,2.0,0.0,part_2,go,250.0,250.0,1.0,,,,,,,,,cyan,square
0.0,2.0,2.0,0.0,6.0,6.0,317.2740710433572,2.0,0.0,part_2,go,250.0,250.0,1.0,,,,,,,,,magenta,flipped triangle
0.0,8.0,4.0,1.0,5.0,5.0,448.73576995451,2.0,0.0,part_2,go,250.0,250.0,1.0,,,,,,,,,blue,I
0.0,8.0,4.0,1.0,5.0,0.0,0.0,2.0,0.0,part_2,stop,250.0,250.0,4.0,,,,,,,,,blue,I
0.0,7.0,3.0,1.0,5.0,5.0,386.5928809391334,2.0,0.0,part_2,stop,300.0,250.0,3.0,,,,,,,,,yellow,triangle
0.0,3.0,3.0,0.0,5.0,5.0,409.422536031343,2.0,0.0,part_2,go,250.0,250.0,1.0,,,,,,,,,gray,cross
0.0,5.0,1.0,1.0,6.0,6.0,288.3506480138749,2.0,0.0,part_2,stop,250.0,250.0,3.0,,,,,,,,,orange,circle
0.0,3.0,3.0,0.0,5.0,5.0,398.8977640401572,2.0,0.0,part_2,go,250.0,200.0,1.0,,,,,,,,,gray,cross
0.0,6.0,2.0,1.0,5.0,5.0,503.6876639351249,2.0,0.0,part_2,go,250.0,200.0,1.0,,,,,,,,,green,hexagon
0.0,7.0,3.0,1.0,5.0,5.0,454.9471660284325,2.0,0.0,part_2,go,250.0,200.0,1.0,,,,,,,,,yellow,triangle
0.0,3.0,3.0,0.0,6.0,6.0,462.3359540710225,2.0,0.0,part_2,go,250.0,200.0,1.0,,,,,,,,,gray,cross
0.0,8.0,4.0,1.0,5.0,0.0,0.0,2.0,0.0,part_2,stop,250.0,200.0,4.0,,,,,,,,,blue,I
0.0,1.0,1.0,0.0,6.0,6.0,533.6584269534796,2.0,0.0,part_2,go,300.0,200.0,1.0,,,,,,,,,cyan,square
0.0,4.0,4.0,0.0,5.0,5.0,394.688009051606,2.0,0.0,part_2,go,300.0,200.0,1.0,,,,,,,,,white,diamond
0.0,8.0,4.0,1.0,6.0,0.0,0.0,2.0,0.0,part_2,stop,300.0,200.0,4.0,,,,,,,,,blue,I
0.0,7.0,3.0,1.0,5.0,0.0,0.0,2.0,0.0,part_2,stop,300.0,250.0,4.0,,,,,,,,,yellow,triangle
0.0,4.0,4.0,0.0,5.0,5.0,457.3334690649062,2.0,0.0,part_2,go,350.0,250.0,1.0,,,,,,,,,white,diamond
0.0,2.0,2.0,0.0,6.0,6.0,425.6576779298484,2.0,0.0,part_2,go,350.0,250.0,1.0,,,,,,,,,magenta,flipped triangle
0.0,8.0,4.0,1.0,5.0,0.0,0.0,2.0,0.0,part_2,stop,350.0,250.0,4.0,,,,,,,,,blue,I
0.0,8.0,4.0,1.0,6.0,0.0,0.0,2.0,0.0,part_2,stop,400.0,250.0,4.0,,,,,,,,,blue,I
0.0,6.0,2.0,1.0,5.0,5.0,330.1325559150427,2.0,0.0,part_2,go,400.0,300.0,1.0,,,,,,,,,green,hexagon
0.0,4.0,4.0,0.0,6.0,6.0,561.2033259822056,2.0,0.0,part_2,go,400.0,300.0,1.0,,,,,,,,,white,diamond
0.0,3.0,3.0,0.0,5.0,5.0,400.687001994811,2.0,0.0,part_2,go,400.0,300.0,1.0,,,,,,,,,gray,cross
0.0,7.0,3.0,1.0,5.0,5.0,417.3076269216835,2.0,0.0,part_2,go,400.0,300.0,1.0,,,,,,,,,yellow,triangle
0.0,3.0,3.0,0.0,6.0,6.0,375.6415459793061,2.0,0.0,part_2,go,400.0,300.0,1.0,,,,,,,,,gray,cross
0.0,5.0,1.0,1.0,6.0,0.0,0.0,2.0,0.0,part_2,stop,400.0,300.0,4.0,,,,,,,,,orange,circle
0.0,3.0,3.0,0.0,5.0,5.0,519.1976290661842,3.0,0.0,part_2,go,400.0,350.0,1.0,,,,,,,,,gray,cross
0.0,7.0,3.0,1.0,6.0,6.0,384.213387966156,3.0,0.0,part_2,stop,400.0,350.0,3.0,,,,,,,,,yellow,triangle
0.0,8.0,4.0,1.0,6.0,6.0,535.0906959502026,3.0,0.0,part_2,go,400.0,300.0,1.0,,,,,,,,,blue,I
0.0,7.0,3.0,1.0,5.0,5.0,500.4020310007036,3.0,0.0,part_2,stop,400.0,300.0,3.0,,,,,,,,,yellow,triangle
0.0,7.0,3.0,1.0,6.0,0.0,0.0,3.0,0.0,part_2,stop,350.0,300.0,4.0,,,,,,,,,yellow,triangle
0.0,8.0,4.0,1.0,5.0,0.0,0.0,3.0,0.0,part_2,stop,350.0,350.0,4.0,,,,,,,,,blue,I
0.0,4.0,4.0,0.0,5.0,5.0,515.8555369125679,3.0,0.0,part_2,go,400.0,350.0,1.0,,,,,,,,,white,diamond
0.0,4.0,4.0,0.0,6.0,6.0,541.7925840010867,3.0,0.0,part_2,go,400.0,350.0,1.0,,,,,,,,,white,diamond
0.0,2.0,2.0,0.0,5.0,5.0,426.7606290522963,3.0,0.0,part_2,go,400.0,350.0,1.0,,,,,,,,,magenta,flipped triangle
0.0,4.0,4.0,0.0,6.0,6.0,501.4281129697338,3.0,0.0,part_2,go,400.0,350.0,1.0,,,,,,,,,white,diamond
0.0,6.0,2.0,1.0,5.0,5.0,348.38624205440277,3.0,0.0,part_2,stop,400.0,350.0,3.0,,,,,,,,,green,hexagon
0.0,5.0,1.0,1.0,6.0,6.0,491.6907229926437,3.0,0.0,part_2,go,350.0,350.0,1.0,,,,,,,,,orange,circle
0.0,3.0,3.0,0.0,6.0,6.0,458.8921320391819,3.0,0.0,part_2,go,350.0,350.0,1.0,,,,,,,,,gray,cross
0.0,6.0,2.0,1.0,5.0,5.0,425.9482870111242,3.0,0.0,part_2,go,350.0,350.0,1.0,,,,,,,,,green,hexagon
0.0,1.0,1.0,0.0,5.0,5.0,520.8254220196977,3.0,0.0,part_2,go,350.0,350.0,1.0,,,,,,,,,cyan,square
0.0,8.0,4.0,1.0,6.0,6.0,425.6885539507493,3.0,0.0,part_2,stop,350.0,350.0,3.0,,,,,,,,,blue,I
0.0,3.0,3.0,0.0,6.0,6.0,647.5178130203858,3.0,0.0,part_2,go,350.0,300.0,1.0,,,,,,,,,gray,cross
0.0,3.0,3.0,0.0,5.0,5.0,415.382700972259,3.0,0.0,part_2,go,350.0,300.0,1.0,,,,,,,,,gray,cross
0.0,7.0,3.0,1.0,6.0,0.0,0.0,3.0,0.0,part_2,stop,350.0,300.0,4.0,,,,,,,,,yellow,triangle
0.0,1.0,1.0,0.0,5.0,5.0,549.6863140724599,3.0,0.0,part_2,go,350.0,350.0,1.0,,,,,,,,,cyan,square
0.0,7.0,3.0,1.0,6.0,0.0,0.0,3.0,0.0,part_2,stop,350.0,350.0,4.0,,,,,,,,,yellow,triangle
0.0,3.0,3.0,0.0,5.0,5.0,470.3043450135737,3.0,0.0,part_2,go,350.0,400.0,1.0,,,,,,,,,gray,cross
0.0,8.0,4.0,1.0,5.0,0.0,0.0,3.0,0.0,part_2,stop,350.0,400.0,4.0,,,,,,,,,blue,I
0.0,6.0,2.0,1.0,5.0,5.0,411.9694420369342,3.0,0.0,part_2,go,400.0,400.0,1.0,,,,,,,,,green,hexagon
0.0,3.0,3.0,0.0,6.0,6.0,571.3077149121091,3.0,0.0,part_2,go,400.0,400.0,1.0,,,,,,,,,gray,cross
0.0,5.0,1.0,1.0,5.0,0.0,0.0,3.0,0.0,part_2,stop,400.0,400.0,4.0,,,,,,,,,orange,circle
0.0,6.0,2.0,1.0,6.0,0.0,0.0,3.0,0.0,part_2,stop,450.0,400.0,4.0,,,,,,,,,green,hexagon
0.0,1.0,1.0,0.0,5.0,5.0,562.3238779371604,3.0,0.0,part_2,go,450.0,450.0,1.0,,,,,,,,,cyan,square
0.0,1.0,1.0,0.0,6.0,6.0,552.6461449917406,3.0,0.0,part_2,go,450.0,450.0,1.0,,,,,,,,,cyan,square
0.0,7.0,3.0,1.0,5.0,0.0,0.0,3.0,0.0,part_2,stop,450.0,450.0,4.0,,,,,,,,,yellow,triangle
0.0,3.0,3.0,0.0,6.0,6.0,535.9748849878088,3.0,0.0,part_2,go,500.0,450.0,1.0,,,,,,,,,gray,cross
0.0,1.0,1.0,0.0,6.0,6.0,567.9464919958264,3.0,0.0,part_2,go,500.0,450.0,1.0,,,,,,,,,cyan,square
0.0,8.0,4.0,1.0,6.0,0.0,0.0,3.0,0.0,part_2,stop,500.0,450.0,4.0,,,,,,,,,blue,I
0.0,7.0,3.0,1.0,6.0,6.0,710.542059969157,3.0,0.0,part_2,go,500.0,500.0,1.0,,,,,,,,,yellow,triangle
0.0,4.0,4.0,0.0,5.0,5.0,549.8106810264289,3.0,0.0,part_2,go,500.0,500.0,1.0,,,,,,,,,white,diamond
0.0,1.0,1.0,0.0,6.0,6.0,612.0892530307174,3.0,0.0,part_2,go,500.0,500.0,1.0,,,,,,,,,cyan,square
0.0,8.0,4.0,1.0,5.0,5.0,353.1461469829082,4.0,0.0,part_2,stop,500.0,500.0,3.0,,,,,,,,,blue,I
0.0,6.0,2.0,1.0,6.0,6.0,554.6677920501679,4.0,0.0,part_2,stop,450.0,500.0,3.0,,,,,,,,,green,hexagon
0.0,3.0,3.0,0.0,5.0,5.0,546.798481955193,4.0,0.0,part_2,go,450.0,450.0,1.0,,,,,,,,,gray,cross
0.0,8.0,4.0,1.0,6.0,6.0,543.2615170720965,4.0,0.0,part_2,stop,450.0,450.0,3.0,,,,,,,,,blue,I
0.0,5.0,1.0,1.0,5.0,5.0,801.2124779634178,4.0,0.0,part_2,go,450.0,400.0,1.0,,,,,,,,,orange,circle
0.0,4.0,4.0,0.0,5.0,5.0,434.2319871066138,4.0,0.0,part_2,go,450.0,400.0,1.0,,,,,,,,,white,diamond
0.0,7.0,3.0,1.0,5.0,5.0,591.9364899164066,4.0,0.0,part_2,stop,450.0,400.0,3.0,,,,,,,,,yellow,triangle
0.0,2.0,2.0,0.0,5.0,5.0,710.4662979254499,4.0,0.0,part_2,go,400.0,400.0,1.0,,,,,,,,,magenta,flipped triangle
0.0,5.0,1.0,1.0,6.0,0.0,0.0,4.0,0.0,part_2,stop,400.0,400.0,4.0,,,,,,,,,orange,circle
0.0,1.0,1.0,0.0,6.0,6.0,660.0265640299767,4.0,0.0,part_2,go,400.0,450.0,1.0,,,,,,,,,cyan,square
0.0,5.0,1.0,1.0,5.0,0.0,0.0,4.0,0.0,part_2,stop,400.0,450.0,4.0,,,,,,,,,orange,circle
0.0,4.0,4.0,0.0,5.0,5.0,614.8019710090011,4.0,0.0,part_2,go,450.0,450.0,1.0,,,,,,,,,white,diamond
0.0,4.0,4.0,0.0,6.0,6.0,477.1845769137144,4.0,0.0,part_2,go,450.0,450.0,1.0,,,,,,,,,white,diamond
0.0,8.0,4.0,1.0,5.0,0.0,0.0,4.0,0.0,part_2,stop,450.0,450.0,4.0,,,,,,,,,blue,I
0.0,3.0,3.0,0.0,6.0,6.0,556.3439809484407,4.0,0.0,part_2,go,500.0,450.0,1.0,,,,,,,,,gray,cross
0.0,4.0,4.0,0.0,6.0,6.0,634.6579489763826,4.0,0.0,part_2,go,500.0,450.0,1.0,,,,,,,,,white,diamond
0.0,5.0,1.0,1.0,6.0,6.0,705.4982199333608,4.0,0.0,part_2,go,500.0,450.0,1.0,,,,,,,,,orange,circle
0.0,7.0,3.0,1.0,5.0,0.0,0.0,4.0,0.0,part_2,stop,500.0,450.0,4.0,,,,,,,,,yellow,triangle
0.0,7.0,3.0,1.0,6.0,0.0,0.0,4.0,0.0,part_2,stop,550.0,450.0,4.0,,,,,,,,,yellow,triangle
0.0,3.0,3.0,0.0,5.0,5.0,654.4644229579717,4.0,0.0,part_2,go,550.0,500.0,1.0,,,,,,,,,gray,cross
0.0,1.0,1.0,0.0,6.0,6.0,495.5880250781774,4.0,0.0,part_2,go,550.0,500.0,1.0,,,,,,,,,cyan,square
0.0,3.0,3.0,0.0,5.0,5.0,473.869995912537,4.0,0.0,part_2,go,550.0,500.0,1.0,,,,,,,,,gray,cross
0.0,2.0,2.0,0.0,5.0,5.0,645.987113006413,4.0,0.0,part_2,go,550.0,500.0,1.0,,,,,,,,,magenta,flipped triangle
0.0,7.0,3.0,1.0,6.0,0.0,0.0,4.0,0.0,part_2,stop,550.0,500.0,4.0,,,,,,,,,yellow,triangle
0.0,1.0,1.0,0.0,6.0,6.0,620.3588530188426,4.0,0.0,part_2,go,550.0,550.0,1.0,,,,,,,,,cyan,square
0.0,3.0,3.0,0.0,5.0,5.0,563.9907630393282,4.0,0.0,part_2,go,550.0,550.0,1.0,,,,,,,,,gray,cross
0.0,1.0,1.0,0.0,6.0,6.0,645.2348800376058,4.0,0.0,part_2,go,550.0,550.0,1.0,,,,,,,,,cyan,square
0.0,7.0,3.0,1.0,5.0,5.0,483.7182579794898,4.0,0.0,part_2,go,550.0,550.0,1.0,,,,,,,,,yellow,triangle
0.0,4.0,4.0,0.0,6.0,6.0,614.009271026589,4.0,0.0,part_2,go,550.0,550.0,1.0,,,,,,,,,white,diamond
0.0,2.0,2.0,0.0,5.0,5.0,539.4142570439726,4.0,0.0,part_2,go,550.0,550.0,1.0,,,,,,,,,magenta,flipped triangle
0.0,2.0,2.0,0.0,5.0,5.0,524.2486160714179,4.0,0.0,part_2,go,550.0,550.0,1.0,,,,,,,,,magenta,flipped triangle
0.0,6.0,2.0,1.0,5.0,5.0,680.9848269913346,4.0,0.0,part_2,stop,550.0,550.0,3.0,,,,,,,,,green,hexagon
0.0,4.0,4.0,0.0,6.0,6.0,609.4999610213563,4.0,0.0,part_2,go,500.0,550.0,1.0,,,,,,,,,white,diamond
0.0,4.0,4.0,0.0,5.0,5.0,518.9321989892051,4.0,0.0,part_2,go,500.0,550.0,1.0,,,,,,,,,white,diamond
0.0,5.0,1.0,1.0,5.0,0.0,0.0,4.0,0.0,part_2,stop,500.0,550.0,4.0,,,,,,,,,orange,circle
0.0,7.0,3.0,1.0,5.0,5.0,625.221217982471,4.0,0.0,part_2,stop,550.0,550.0,3.0,,,,,,,,,yellow,triangle
0.0,3.0,3.0,0.0,6.0,6.0,562.1793400496244,5.0,0.0,part_2,go,500.0,550.0,1.0,,,,,,,,,gray,cross
0.0,3.0,3.0,0.0,6.0,6.0,458.8442369131371,5.0,0.0,part_2,go,500.0,550.0,1.0,,,,,,,,,gray,cross
0.0,1.0,1.0,0.0,5.0,5.0,476.7664039973169,5.0,0.0,part_2,go,500.0,550.0,1.0,,,,,,,,,cyan,square
0.0,5.0,1.0,1.0,6.0,6.0,664.8201730567962,5.0,0.0,part_2,stop,500.0,550.0,3.0,,,,,,,,,orange,circle
0.0,4.0,4.0,0.0,6.0,6.0,570.812092977576,5.0,0.0,part_2,go,500.0,500.0,1.0,,,,,,,,,white,diamond
0.0,4.0,4.0,0.0,5.0,5.0,475.9392660344019,5.0,0.0,part_2,go,500.0,500.0,1.0,,,,,,,,,white,diamond
0.0,8.0,4.0,1.0,5.0,0.0,0.0,5.0,0.0,part_2,stop,500.0,500.0,4.0,,,,,,,,,blue,I
0.0,8.0,4.0,1.0,5.0,5.0,582.7513539697975,5.0,0.0,part_2,stop,550.0,500.0,3.0,,,,,,,,,blue,I
0.0,7.0,3.0,1.0,6.0,0.0,0.0,5.0,0.0,part_2,stop,500.0,500.0,4.0,,,,,,,,,yellow,triangle
0.0,2.0,2.0,0.0,5.0,5.0,765.7136199995875,5.0,0.0,part_2,go,500.0,550.0,1.0,,,,,,,,,magenta,flipped triangle
0.0,4.0,4.0,0.0,6.0,6.0,676.692874985747,5.0,0.0,part_2,go,500.0,550.0,1.0,,,,,,,,,white,diamond
0.0,2.0,2.0,0.0,5.0,5.0,614.8276280146092,5.0,0.0,part_2,go,500.0,550.0,1.0,,,,,,,,,magenta,flipped triangle
0.0,5.0,1.0,1.0,6.0,0.0,0.0,5.0,0.0,part_2,stop,500.0,550.0,4.0,,,,,,,,,orange,circle
0.0,5.0,1.0,1.0,5.0,0.0,0.0,5.0,0.0,part_2,stop,500.0,600.0,4.0,,,,,,,,,orange,circle
0.0,8.0,4.0,1.0,6.0,0.0,0.0,5.0,0.0,part_2,stop,550.0,600.0,4.0,,,,,,,,,blue,I
0.0,2.0,2.0,0.0,5.0,5.0,702.2133859572932,5.0,0.0,part_2,go,550.0,650.0,1.0,,,,,,,,,magenta,flipped triangle
0.0,8.0,4.0,1.0,6.0,6.0,756.3106570160016,5.0,0.0,part_2,stop,550.0,650.0,3.0,,,,,,,,,blue,I
0.0,6.0,2.0,1.0,5.0,0.0,0.0,5.0,0.0,part_2,stop,550.0,600.0,4.0,,,,,,,,,green,hexagon
0.0,8.0,4.0,1.0,5.0,0.0,0.0,5.0,0.0,part_2,stop,600.0,600.0,4.0,,,,,,,,,blue,I
0.0,2.0,2.0,0.0,5.0,5.0,690.3570860158652,5.0,0.0,part_2,go,650.0,600.0,1.0,,,,,,,,,magenta,flipped triangle
0.0,3.0,3.0,0.0,5.0,5.0,706.5774509683251,5.0,0.0,part_2,go,650.0,600.0,1.0,,,,,,,,,gray,cross
0.0,8.0,4.0,1.0,6.0,0.0,0.0,5.0,0.0,part_2,stop,650.0,600.0,4.0,,,,,,,,,blue,I
0.0,3.0,3.0,0.0,5.0,5.0,696.5068189892918,5.0,0.0,part_2,go,650.0,650.0,1.0,,,,,,,,,gray,cross
0.0,8.0,4.0,1.0,5.0,5.0,760.2393719134852,5.0,0.0,part_2,stop,650.0,650.0,3.0,,,,,,,,,blue,I
0.0,6.0,2.0,1.0,6.0,0.0,0.0,5.0,0.0,part_2,stop,600.0,650.0,4.0,,,,,,,,,green,hexagon
0.0,1.0,1.0,0.0,5.0,5.0,761.1482070060447,5.0,0.0,part_2,go,600.0,700.0,1.0,,,,,,,,,cyan,square
0.0,2.0,2.0,0.0,6.0,6.0,724.3006429634988,5.0,0.0,part_2,go,600.0,700.0,1.0,,,,,,,,,magenta,flipped triangle
0.0,7.0,3.0,1.0,6.0,6.0,494.2607519915327,5.0,0.0,part_2,stop,600.0,700.0,3.0,,,,,,,,,yellow,triangle
0.0,7.0,3.0,1.0,5.0,0.0,0.0,5.0,0.0,part_2,stop,600.0,650.0,4.0,,,,,,,,,yellow,triangle
0.0,1.0,1.0,0.0,5.0,5.0,605.8413559803739,5.0,0.0,part_2,go,650.0,650.0,1.0,,,,,,,,,cyan,square
0.0,2.0,2.0,0.0,5.0,5.0,458.7904129875824,5.0,0.0,part_2,go,650.0,650.0,1.0,,,,,,,,,magenta,flipped triangle
0.0,4.0,4.0,0.0,5.0,5.0,451.6582160722464,5.0,0.0,part_2,go,650.0,650.0,1.0,,,,,,,,,white,diamond
0.0,1.0,1.0,0.0,6.0,6.0,484.8402289208025,5.0,0.0,part_2,go,650.0,650.0,1.0,,,,,,,,,cyan,square
0.0,5.0,1.0,1.0,5.0,5.0,803.0224300455302,5.0,0.0,part_2,go,650.0,650.0,1.0,,,,,,,,,orange,circle
0.0,7.0,3.0,1.0,5.0,5.0,376.3135400367901,5.0,0.0,part_2,go,650.0,650.0,1.0,,,,,,,,,yellow,triangle
0.0,1.0,1.0,0.0,5.0,5.0,343.6113860225305,5.0,0.0,part_2,go,650.0,650.0,1.0,,,,,,,,,cyan,square
0.0,2.0,2.0,0.0,6.0,6.0,455.6571400025859,6.0,0.0,part_2,go,650.0,650.0,1.0,,,,,,,,,magenta,flipped triangle
0.0,7.0,3.0,1.0,6.0,6.0,367.7878560265526,6.0,0.0,part_2,stop,650.0,650.0,3.0,,,,,,,,,yellow,triangle
0.0,5.0,1.0,1.0,6.0,6.0,552.2667369805276,6.0,0.0,part_2,stop,650.0,600.0,3.0,,,,,,,,,orange,circle
0.0,7.0,3.0,1.0,5.0,5.0,691.1279290216044,6.0,0.0,part_2,stop,650.0,550.0,3.0,,,,,,,,,yellow,triangle
0.0,2.0,2.0,0.0,6.0,6.0,718.7119759619236,6.0,0.0,part_2,go,600.0,550.0,1.0,,,,,,,,,magenta,flipped triangle
0.0,4.0,4.0,0.0,5.0,5.0,524.1470959736034,6.0,0.0,part_2,go,600.0,550.0,1.0,,,,,,,,,white,diamond
0.0,8.0,4.0,1.0,5.0,5.0,865.6369099626318,6.0,0.0,part_2,go,600.0,550.0,1.0,,,,,,,,,blue,I
0.0,2.0,2.0,0.0,6.0,6.0,721.681272960268,6.0,0.0,part_2,go,600.0,550.0,1.0,,,,,,,,,magenta,flipped triangle
0.0,6.0,2.0,1.0,6.0,0.0,0.0,6.0,0.0,part_2,stop,600.0,550.0,4.0,,,,,,,,,green,hexagon
0.0,1.0,1.0,0.0,6.0,6.0,905.0347569864244,6.0,0.0,part_2,go,600.0,600.0,1.0,,,,,,,,,cyan,square
0.0,6.0,2.0,1.0,6.0,0.0,0.0,6.0,0.0,part_2,stop,600.0,600.0,4.0,,,,,,,,,green,hexagon
0.0,3.0,3.0,0.0,6.0,6.0,593.5296420939267,6.0,0.0,part_2,go,600.0,650.0,1.0,,,,,,,,,gray,cross
0.0,7.0,3.0,1.0,6.0,6.0,615.1389440055937,6.0,0.0,part_2,go,600.0,650.0,1.0,,,,,,,,,yellow,triangle
0.0,2.0,2.0,0.0,5.0,5.0,637.7624899614602,6.0,0.0,part_2,go,600.0,650.0,1.0,,,,,,,,,magenta,flipped triangle
0.0,7.0,3.0,1.0,6.0,0.0,0.0,6.0,0.0,part_2,stop,600.0,650.0,4.0,,,,,,,,,yellow,triangle
0.0,4.0,4.0,0.0,5.0,5.0,606.8355480674654,6.0,0.0,part_2,go,600.0,700.0,1.0,,,,,,,,,white,diamond
0.0,7.0,3.0,1.0,6.0,6.0,772.9488470358774,6.0,0.0,part_2,stop,600.0,700.0,3.0,,,,,,,,,yellow,triangle
0.0,3.0,3.0,0.0,6.0,6.0,715.8224689774215,6.0,0.0,part_2,go,600.0,650.0,1.0,,,,,,,,,gray,cross
0.0,6.0,2.0,1.0,5.0,0.0,0.0,6.0,0.0,part_2,stop,600.0,650.0,4.0,,,,,,,,,green,hexagon
0.0,5.0,1.0,1.0,5.0,5.0,834.8106610355899,6.0,0.0,part_2,go,650.0,650.0,1.0,,,,,,,,,orange,circle
0.0,7.0,3.0,1.0,5.0,0.0,0.0,6.0,0.0,part_2,stop,650.0,650.0,4.0,,,,,,,,,yellow,triangle
0.0,2.0,2.0,0.0,6.0,6.0,597.2722710575908,6.0,0.0,part_2,go,700.0,650.0,1.0,,,,,,,,,magenta,flipped triangle
0.0,1.0,1.0,0.0,6.0,6.0,897.0812649931759,6.0,0.0,part_2,go,700.0,650.0,1.0,,,,,,,,,cyan,square
0.0,8.0,4.0,1.0,6.0,0.0,0.0,6.0,0.0,part_2,stop,700.0,650.0,4.0,,,,,,,,,blue,I
0.0,5.0,1.0,1.0,6.0,0.0,0.0,6.0,0.0,part_2,stop,700.0,700.0,4.0,,,,,,,,,orange,circle
0.0,4.0,4.0,0.0,5.0,5.0,872.2627039533108,6.0,0.0,part_2,go,700.0,750.0,1.0,,,,,,,,,white,diamond
0.0,7.0,3.0,1.0,5.0,0.0,0.0,6.0,0.0,part_2,stop,700.0,750.0,4.0,,,,,,,,,yellow,triangle
0.0,8.0,4.0,1.0,5.0,0.0,0.0,6.0,0.0,part_2,stop,750.0,750.0,4.0,,,,,,,,,blue,I
0.0,1.0,1.0,0.0,5.0,5.0,902.1092710318044,6.0,0.0,part_2,go,800.0,750.0,1.0,,,,,,,,,cyan,square
0.0,3.0,3.0,0.0,5.0,5.0,646.6536259977147,6.0,0.0,part_2,go,800.0,750.0,1.0,,,,,,,,,gray,cross
0.0,5.0,1.0,1.0,6.0,6.0,965.3663469944148,6.0,0.0,part_2,go,800.0,750.0,1.0,,,,,,,,,orange,circle
0.0,6.0,2.0,1.0,6.0,6.0,829.2089760070667,6.0,0.0,part_2,stop,800.0,750.0,3.0,,,,,,,,,green,hexagon
0.0,6.0,2.0,1.0,6.0,6.0,771.5812959941104,6.0,0.0,part_2,stop,800.0,700.0,3.0,,,,,,,,,green,hexagon
0.0,2.0,2.0,0.0,5.0,5.0,686.4133890485391,6.0,0.0,part_2,go,800.0,650.0,1.0,,,,,,,,,magenta,flipped triangle
0.0,2.0,2.0,0.0,6.0,6.0,741.7353769997135,6.0,0.0,part_2,go,800.0,650.0,1.0,,,,,,,,,magenta,flipped triangle
0.0,6.0,2.0,1.0,5.0,5.0,860.0435949629173,6.0,0.0,part_2,stop,800.0,650.0,3.0,,,,,,,,,green,hexagon
0.0,4.0,4.0,0.0,5.0,5.0,394.4971059681847,7.0,0.0,part_2,go,750.0,650.0,1.0,,,,,,,,,white,diamond
0.0,8.0,4.0,1.0,6.0,6.0,579.4803570024669,7.0,0.0,part_2,go,750.0,650.0,1.0,,,,,,,,,blue,I
0.0,5.0,1.0,1.0,6.0,6.0,474.8850270407274,7.0,0.0,part_2,stop,750.0,650.0,3.0,,,,,,,,,orange,circle
0.0,6.0,2.0,1.0,6.0,6.0,323.4643959440291,7.0,0.0,part_2,stop,750.0,600.0,3.0,,,,,,,,,green,hexagon
0.0,3.0,3.0,0.0,5.0,5.0,291.3832729682326,7.0,0.0,part_2,go,750.0,550.0,1.0,,,,,,,,,gray,cross
0.0,7.0,3.0,1.0,6.0,6.0,295.2113590436056,7.0,0.0,part_2,go,750.0,550.0,1.0,,,,,,,,,yellow,triangle
0.0,4.0,4.0,0.0,6.0,6.0,370.1594390440732,7.0,0.0,part_2,go,750.0,550.0,1.0,,,,,,,,,white,diamond
0.0,8.0,4.0,1.0,6.0,6.0,616.5776220150292,7.0,0.0,part_2,stop,750.0,550.0,3.0,,,,,,,,,blue,I
0.0,3.0,3.0,0.0,6.0,6.0,494.2961510969326,7.0,0.0,part_2,go,750.0,500.0,1.0,,,,,,,,,gray,cross
0.0,8.0,4.0,1.0,5.0,5.0,816.1784060066566,7.0,0.0,part_2,stop,750.0,500.0,3.0,,,,,,,,,blue,I
0.0,8.0,4.0,1.0,6.0,0.0,0.0,7.0,0.0,part_2,stop,700.0,500.0,4.0,,,,,,,,,blue,I
0.0,2.0,2.0,0.0,6.0,6.0,516.5259449277073,7.0,0.0,part_2,go,700.0,550.0,1.0,,,,,,,,,magenta,flipped triangle
0.0,7.0,3.0,1.0,6.0,0.0,0.0,7.0,0.0,part_2,stop,700.0,550.0,4.0,,,,,,,,,yellow,triangle
0.0,7.0,3.0,1.0,6.0,0.0,0.0,7.0,0.0,part_2,stop,700.0,600.0,4.0,,,,,,,,,yellow,triangle
0.0,4.0,4.0,0.0,5.0,5.0,405.5471140891313,7.0,0.0,part_2,go,700.0,650.0,1.0,,,,,,,,,white,diamond
0.0,5.0,1.0,1.0,6.0,0.0,0.0,7.0,0.0,part_2,stop,700.0,650.0,4.0,,,,,,,,,orange,circle
0.0,3.0,3.0,0.0,5.0,5.0,619.7586579946801,7.0,0.0,part_2,go,700.0,700.0,1.0,,,,,,,,,gray,cross
0.0,2.0,2.0,0.0,6.0,6.0,600.813145050779,7.0,0.0,part_2,go,700.0,700.0,1.0,,,,,,,,,magenta,flipped triangle
0.0,1.0,1.0,0.0,5.0,5.0,546.6535890009254,7.0,0.0,part_2,go,700.0,700.0,1.0,,,,,,,,,cyan,square
0.0,3.0,3.0,0.0,6.0,6.0,503.1380890868604,7.0,0.0,part_2,go,700.0,700.0,1.0,,,,,,,,,gray,cross
0.0,2.0,2.0,0.0,5.0,5.0,586.17750601843,7.0,0.0,part_2,go,700.0,700.0,1.0,,,,,,,,,magenta,flipped triangle
0.0,5.0,1.0,1.0,6.0,0.0,0.0,7.0,0.0,part_2,stop,700.0,700.0,4.0,,,,,,,,,orange,circle
0.0,8.0,4.0,1.0,6.0,6.0,1025.9922679979354,7.0,0.0,part_2,go,700.0,750.0,1.0,,,,,,,,,blue,I
0.0,6.0,2.0,1.0,5.0,5.0,311.4335010759532,7.0,0.0,part_2,stop,700.0,750.0,3.0,,,,,,,,,green,hexagon
0.0,5.0,1.0,1.0,6.0,6.0,694.8276209877804,7.0,0.0,part_2,stop,650.0,750.0,3.0,,,,,,,,,orange,circle
0.0,3.0,3.0,0.0,5.0,5.0,470.4421039205044,7.0,0.0,part_2,go,650.0,700.0,1.0,,,,,,,,,gray,cross
0.0,1.0,1.0,0.0,6.0,6.0,363.8773279963061,7.0,0.0,part_2,go,650.0,700.0,1.0,,,,,,,,,cyan,square
0.0,5.0,1.0,1.0,6.0,0.0,0.0,7.0,0.0,part_2,stop,650.0,700.0,4.0,,,,,,,,,orange,circle
0.0,1.0,1.0,0.0,5.0,5.0,355.9302100911736,7.0,0.0,part_2,go,650.0,750.0,1.0,,,,,,,,,cyan,square
0.0,3.0,3.0,0.0,5.0,5.0,382.0164239732548,7.0,0.0,part_2,go,650.0,750.0,1.0,,,,,,,,,gray,cross
0.0,8.0,4.0,1.0,5.0,5.0,370.7783600548282,7.0,0.0,part_2,go,650.0,750.0,1.0,,,,,,,,,blue,I
0.0,2.0,2.0,0.0,5.0,5.0,393.9957729307934,7.0,0.0,part_2,go,650.0,750.0,1.0,,,,,,,,,magenta,flipped triangle
0.0,2.0,2.0,0.0,5.0,5.0,416.7631519958377,7.0,0.0,part_2,go,650.0,750.0,1.0,,,,,,,,,magenta,flipped triangle
0.0,6.0,2.0,1.0,6.0,6.0,800.4018960054964,7.0,0.0,part_2,stop,650.0,750.0,3.0,,,,,,,,,green,hexagon
0.0,6.0,2.0,1.0,6.0,0.0,0.0,7.0,0.0,part_2,stop,650.0,700.0,4.0,,,,,,,,,green,hexagon
0.0,8.0,4.0,1.0,6.0,0.0,0.0,7.0,0.0,part_2,stop,650.0,750.0,4.0,,,,,,,,,blue,I
0.0,1.0,1.0,0.0,5.0,5.0,383.5150379454717,8.0,0.0,part_2,go,650.0,800.0,1.0,,,,,,,,,cyan,square
0.0,1.0,1.0,0.0,5.0,5.0,326.1356779839843,8.0,0.0,part_2,go,650.0,800.0,1.0,,,,,,,,,cyan,square
0.0,5.0,1.0,1.0,5.0,5.0,310.6570289237425,8.0,0.0,part_2,stop,650.0,800.0,3.0,,,,,,,,,orange,circle
0.0,2.0,2.0,0.0,6.0,6.0,392.7378540392965,8.0,0.0,part_2,go,600.0,800.0,1.0,,,,,,,,,magenta,flipped triangle
0.0,4.0,4.0,0.0,5.0,5.0,300.6235439097509,8.0,0.0,part_2,go,600.0,800.0,1.0,,,,,,,,,white,diamond
0.0,7.0,3.0,1.0,5.0,5.0,501.83257495518774,8.0,0.0,part_2,go,600.0,800.0,1.0,,,,,,,,,yellow,triangle
0.0,8.0,4.0,1.0,6.0,6.0,283.41254801489407,8.0,0.0,part_2,stop,600.0,800.0,3.0,,,,,,,,,blue,I
0.0,1.0,1.0,0.0,5.0,5.0,374.6013980126008,8.0,0.0,part_2,go,600.0,750.0,1.0,,,,,,,,,cyan,square
0.0,1.0,1.0,0.0,5.0,5.0,285.3281589923426,8.0,0.0,part_2,go,600.0,750.0,1.0,,,,,,,,,cyan,square
0.0,2.0,2.0,0.0,6.0,6.0,436.8936779210344,8.0,0.0,part_2,go,600.0,750.0,1.0,,,,,,,,,magenta,flipped triangle
0.0,2.0,2.0,0.0,5.0,5.0,314.1212810296565,8.0,0.0,part_2,go,600.0,750.0,1.0,,,,,,,,,magenta,flipped triangle
0.0,4.0,4.0,0.0,6.0,6.0,313.7062959140166,8.0,0.0,part_2,go,600.0,750.0,1.0,,,,,,,,,white,diamond
0.0,6.0,2.0,1.0,5.0,5.0,288.5984260356053,8.0,0.0,part_2,go,600.0,750.0,1.0,,,,,,,,,green,hexagon
0.0,5.0,1.0,1.0,5.0,5.0,995.6871209433302,8.0,0.0,part_2,go,600.0,750.0,1.0,,,,,,,,,orange,circle
0.0,8.0,4.0,1.0,6.0,6.0,778.0883000232279,8.0,0.0,part_2,go,600.0,750.0,1.0,,,,,,,,,blue,I
0.0,1.0,1.0,0.0,6.0,6.0,418.2686200365424,8.0,0.0,part_2,go,600.0,750.0,1.0,,,,,,,,,cyan,square
0.0,7.0,3.0,1.0,6.0,6.0,368.2979160221293,8.0,0.0,part_2,stop,600.0,750.0,3.0,,,,,,,,,yellow,triangle
0.0,6.0,2.0,1.0,5.0,5.0,477.364829974249,8.0,0.0,part_2,stop,600.0,700.0,3.0,,,,,,,,,green,hexagon
0.0,5.0,1.0,1.0,5.0,5.0,343.8637820072472,8.0,0.0,part_2,stop,550.0,700.0,3.0,,,,,,,,,orange,circle
0.0,1.0,1.0,0.0,5.0,5.0,375.8613649988547,8.0,0.0,part_2,go,500.0,700.0,1.0,,,,,,,,,cyan,square
0.0,8.0,4.0,1.0,6.0,6.0,436.5512110525742,8.0,0.0,part_2,stop,500.0,700.0,3.0,,,,,,,,,blue,I
0.0,4.0,4.0,0.0,6.0,6.0,397.2187230829149,8.0,0.0,part_2,go,500.0,650.0,1.0,,,,,,,,,white,diamond
0.0,4.0,4.0,0.0,5.0,5.0,533.7147499667481,8.0,0.0,part_2,go,500.0,650.0,1.0,,,,,,,,,white,diamond
0.0,6.0,2.0,1.0,6.0,6.0,779.9854760523885,8.0,0.0,part_2,go,500.0,650.0,1.0,,,,,,,,,green,hexagon
0.0,6.0,2.0,1.0,6.0,6.0,756.2098830239847,8.0,0.0,part_2,stop,500.0,650.0,3.0,,,,,,,,,green,hexagon
0.0,4.0,4.0,0.0,6.0,6.0,609.3636139994487,8.0,0.0,part_2,go,500.0,600.0,1.0,,,,,,,,,white,diamond
0.0,4.0,4.0,0.0,6.0,6.0,456.6092729801312,8.0,0.0,part_2,go,500.0,600.0,1.0,,,,,,,,,white,diamond
0.0,5.0,1.0,1.0,5.0,0.0,0.0,8.0,0.0,part_2,stop,500.0,600.0,4.0,,,,,,,,,orange,circle
0.0,2.0,2.0,0.0,5.0,5.0,626.5379809774458,8.0,0.0,part_2,go,550.0,600.0,1.0,,,,,,,,,magenta,flipped triangle
0.0,3.0,3.0,0.0,5.0,5.0,456.5536070149392,8.0,0.0,part_2,go,550.0,600.0,1.0,,,,,,,,,gray,cross
0.0,4.0,4.0,0.0,5.0,5.0,433.4087850293144,8.0,0.0,part_2,go,550.0,600.0,1.0,,,,,,,,,white,diamond
0.0,5.0,1.0,1.0,5.0,0.0,0.0,8.0,0.0,part_2,stop,550.0,600.0,4.0,,,,,,,,,orange,circle
0.0,1.0,1.0,0.0,5.0,5.0,477.3680219659582,8.0,0.0,part_2,go,600.0,600.0,1.0,,,,,,,,,cyan,square
0.0,5.0,1.0,1.0,6.0,0.0,0.0,8.0,0.0,part_2,stop,600.0,600.0,4.0,,,,,,,,,orange,circle
0.0,6.0,2.0,1.0,6.0,0.0,0.0,8.0,0.0,part_2,stop,600.0,650.0,4.0,,,,,,,,,green,hexagon
0.0,3.0,3.0,0.0,6.0,6.0,507.3805369902402,8.0,0.0,part_2,go,600.0,700.0,1.0,,,,,,,,,gray,cross
0.0,5.0,1.0,1.0,7.0,3.0,1134.7441340330988,1.0,2.0,part_3,go,0.0,0.0,0.0,147.0,3.0,98.0,196.0,147.0,49.0,294.0,245.0,orange,circle
0.0,1.0,1.0,0.0,7.0,2.0,1677.2995450301096,1.0,1.0,part_3,go,0.0,0.0,0.0,44.0,1.0,132.0,44.0,176.0,88.0,220.0,264.0,cyan,square
0.0,3.0,3.0,0.0,7.0,4.0,2770.941355964169,1.0,1.0,part_3,go,0.0,0.0,0.0,54.0,1.0,270.0,162.0,324.0,54.0,216.0,108.0,gray,cross
0.0,7.0,3.0,1.0,7.0,3.0,3506.717747077346,1.0,1.0,part_3,go,0.0,0.0,0.0,102.0,3.0,68.0,136.0,102.0,170.0,204.0,34.0,yellow,triangle
0.0,5.0,1.0,1.0,7.0,4.0,2612.4966869829223,1.0,1.0,part_3,go,0.0,0.0,0.0,88.0,2.0,264.0,132.0,220.0,88.0,44.0,176.0,orange,circle
0.0,3.0,3.0,0.0,7.0,6.0,1460.7289669802412,1.0,1.0,part_3,go,0.0,0.0,0.0,44.0,1.0,88.0,176.0,264.0,132.0,220.0,44.0,gray,cross
0.0,5.0,1.0,1.0,7.0,3.0,2148.202962009236,1.0,1.0,part_3,go,0.0,0.0,0.0,108.0,2.0,270.0,216.0,108.0,54.0,324.0,162.0,orange,circle
0.0,6.0,2.0,1.0,7.0,4.0,2088.491327012889,1.0,1.0,part_3,go,0.0,0.0,0.0,220.0,5.0,88.0,176.0,264.0,220.0,132.0,44.0,green,hexagon
0.0,8.0,4.0,1.0,7.0,1.0,1769.910309929401,1.0,1.0,part_3,go,0.0,0.0,0.0,324.0,6.0,324.0,54.0,108.0,270.0,216.0,162.0,blue,I
0.0,6.0,2.0,1.0,7.0,3.0,1448.5411369241774,1.0,1.0,part_3,go,0.0,0.0,0.0,216.0,4.0,324.0,270.0,216.0,54.0,108.0,162.0,green,hexagon
0.0,1.0,1.0,0.0,7.0,1.0,4021.9852769514546,1.0,1.0,part_3,go,0.0,0.0,0.0,270.0,5.0,270.0,216.0,108.0,324.0,54.0,162.0,cyan,square
0.0,7.0,3.0,1.0,7.0,4.0,4008.5525950416923,1.0,1.0,part_3,go,0.0,0.0,0.0,136.0,4.0,204.0,170.0,102.0,136.0,68.0,34.0,yellow,triangle
0.0,7.0,3.0,1.0,7.0,5.0,1974.9602189986035,1.0,1.0,part_3,go,0.0,0.0,0.0,196.0,4.0,147.0,245.0,294.0,49.0,196.0,98.0,yellow,triangle
0.0,3.0,3.0,0.0,7.0,2.0,2416.672321036458,1.0,1.0,part_3,go,0.0,0.0,0.0,78.0,2.0,39.0,78.0,234.0,117.0,195.0,156.0,gray,cross
0.0,7.0,3.0,1.0,7.0,4.0,2104.932595975697,1.0,1.0,part_3,go,0.0,0.0,0.0,195.0,5.0,78.0,234.0,39.0,195.0,117.0,156.0,yellow,triangle
0.0,1.0,1.0,0.0,7.0,2.0,1378.5988450981677,1.0,1.0,part_3,go,0.0,0.0,0.0,156.0,4.0,195.0,156.0,234.0,39.0,117.0,78.0,cyan,square
0.0,8.0,4.0,1.0,7.0,5.0,2883.973589981906,1.0,1.0,part_3,go,0.0,0.0,0.0,234.0,6.0,39.0,156.0,195.0,78.0,234.0,117.0,blue,I
0.0,8.0,4.0,1.0,7.0,1.0,2374.00825007353,1.0,1.0,part_3,go,0.0,0.0,0.0,264.0,6.0,264.0,44.0,220.0,88.0,132.0,176.0,blue,I
0.0,7.0,3.0,1.0,7.0,1.0,1942.395869991742,1.0,1.0,part_3,go,0.0,0.0,0.0,270.0,5.0,270.0,324.0,108.0,216.0,54.0,162.0,yellow,triangle
0.0,4.0,4.0,0.0,7.0,2.0,2595.8179779117927,1.0,1.0,part_3,go,0.0,0.0,0.0,88.0,2.0,264.0,88.0,44.0,132.0,176.0,220.0,white,diamond
0.0,1.0,1.0,0.0,7.0,4.0,975.3389570396394,2.0,2.0,part_3,go,0.0,0.0,0.0,170.0,5.0,204.0,102.0,68.0,170.0,34.0,136.0,cyan,square
0.0,6.0,2.0,1.0,7.0,3.0,2890.418711001985,2.0,1.0,part_3,go,0.0,0.0,0.0,117.0,3.0,195.0,78.0,117.0,39.0,156.0,234.0,green,hexagon
0.0,2.0,2.0,0.0,7.0,3.0,2400.6804759847,2.0,1.0,part_3,go,0.0,0.0,0.0,220.0,5.0,88.0,44.0,220.0,264.0,132.0,176.0,magenta,flipped triangle
0.0,1.0,1.0,0.0,7.0,2.0,2139.7009539650753,2.0,1.0,part_3,go,0.0,0.0,0.0,147.0,3.0,245.0,147.0,196.0,49.0,294.0,98.0,cyan,square
0.0,8.0,4.0,1.0,7.0,2.0,1435.0463249720633,2.0,1.0,part_3,go,0.0,0.0,0.0,294.0,6.0,49.0,294.0,196.0,147.0,245.0,98.0,blue,I
0.0,6.0,2.0,1.0,7.0,5.0,1590.841209050268,2.0,1.0,part_3,go,0.0,0.0,0.0,220.0,5.0,88.0,176.0,132.0,264.0,220.0,44.0,green,hexagon
0.0,2.0,2.0,0.0,7.0,3.0,1229.5170299476013,2.0,1.0,part_3,go,0.0,0.0,0.0,196.0,4.0,245.0,49.0,196.0,98.0,294.0,147.0,magenta,flipped triangle
0.0,1.0,1.0,0.0,7.0,2.0,1729.699755902402,2.0,1.0,part_3,go,0.0,0.0,0.0,117.0,3.0,156.0,117.0,39.0,78.0,234.0,195.0,cyan,square
0.0,5.0,1.0,1.0,7.0,4.0,2683.549973065965,2.0,1.0,part_3,go,0.0,0.0,0.0,117.0,3.0,78.0,156.0,195.0,117.0,39.0,234.0,orange,circle
0.0,4.0,4.0,0.0,7.0,5.0,1170.270752045326,2.0,1.0,part_3,go,0.0,0.0,0.0,49.0,1.0,98.0,294.0,196.0,245.0,49.0,147.0,white,diamond
0.0,6.0,2.0,1.0,7.0,6.0,2012.6339111011475,2.0,1.0,part_3,go,0.0,0.0,0.0,196.0,4.0,294.0,147.0,245.0,98.0,49.0,196.0,green,hexagon
0.0,7.0,3.0,1.0,7.0,3.0,1614.0784079907462,2.0,1.0,part_3,go,0.0,0.0,0.0,88.0,2.0,264.0,220.0,88.0,176.0,44.0,132.0,yellow,triangle
0.0,2.0,2.0,0.0,7.0,4.0,3349.2514319950715,2.0,1.0,part_3,go,0.0,0.0,0.0,245.0,5.0,294.0,196.0,147.0,245.0,98.0,49.0,magenta,flipped triangle
0.0,6.0,2.0,1.0,7.0,5.0,3866.839501890354,2.0,1.0,part_3,go,0.0,0.0,0.0,204.0,6.0,102.0,170.0,136.0,68.0,204.0,34.0,green,hexagon
0.0,7.0,3.0,1.0,7.0,6.0,2003.404267015867,2.0,1.0,part_3,go,0.0,0.0,0.0,147.0,3.0,196.0,294.0,98.0,245.0,49.0,147.0,yellow,triangle
0.0,1.0,1.0,0.0,7.0,2.0,2897.5388960679993,2.0,1.0,part_3,go,0.0,0.0,0.0,102.0,3.0,68.0,102.0,204.0,34.0,170.0,136.0,cyan,square
0.0,4.0,4.0,0.0,7.0,2.0,1119.1418640082702,2.0,1.0,part_3,go,0.0,0.0,0.0,44.0,1.0,264.0,44.0,132.0,88.0,220.0,176.0,white,diamond
0.0,6.0,2.0,1.0,7.0,2.0,2533.314818982035,2.0,1.0,part_3,go,0.0,0.0,0.0,108.0,2.0,54.0,108.0,162.0,270.0,324.0,216.0,green,hexagon
0.0,7.0,3.0,1.0,7.0,4.0,2829.5433919411153,2.0,1.0,part_3,go,0.0,0.0,0.0,117.0,3.0,39.0,78.0,156.0,117.0,195.0,234.0,yellow,triangle
0.0,2.0,2.0,0.0,7.0,1.0,4458.185064024292,2.0,1.0,part_3,go,0.0,0.0,0.0,162.0,3.0,162.0,108.0,216.0,270.0,54.0,324.0,magenta,flipped triangle
0.0,2.0,2.0,0.0,7.0,4.0,2216.8118699919432,3.0,1.0,part_3,go,0.0,0.0,0.0,156.0,4.0,39.0,195.0,117.0,156.0,234.0,78.0,magenta,flipped triangle
0.0,6.0,2.0,1.0,7.0,1.0,1828.5003040218728,3.0,1.0,part_3,go,0.0,0.0,0.0,136.0,4.0,136.0,34.0,170.0,68.0,204.0,102.0,green,hexagon
0.0,4.0,4.0,0.0,7.0,6.0,1388.4223140776155,3.0,1.0,part_3,go,0.0,0.0,0.0,54.0,1.0,324.0,162.0,270.0,108.0,216.0,54.0,white,diamond
0.0,3.0,3.0,0.0,7.0,3.0,1244.6172019699588,3.0,1.0,part_3,go,0.0,0.0,0.0,39.0,1.0,195.0,156.0,39.0,234.0,78.0,117.0,gray,cross
0.0,4.0,4.0,0.0,7.0,6.0,1366.8009779648855,3.0,1.0,part_3,go,0.0,0.0,0.0,49.0,1.0,196.0,98.0,147.0,294.0,245.0,49.0,white,diamond
0.0,8.0,4.0,1.0,7.0,1.0,1966.9536360306663,3.0,1.0,part_3,go,0.0,0.0,0.0,204.0,6.0,204.0,68.0,102.0,136.0,34.0,170.0,blue,I
0.0,3.0,3.0,0.0,7.0,3.0,2915.054498007521,3.0,1.0,part_3,go,0.0,0.0,0.0,34.0,1.0,204.0,170.0,34.0,68.0,102.0,136.0,gray,cross
0.0,4.0,4.0,0.0,7.0,2.0,1428.316832985729,3.0,1.0,part_3,go,0.0,0.0,0.0,39.0,1.0,195.0,39.0,117.0,156.0,78.0,234.0,white,diamond
0.0,5.0,1.0,1.0,7.0,3.0,3491.527375066653,3.0,1.0,part_3,go,0.0,0.0,0.0,170.0,5.0,102.0,68.0,170.0,204.0,34.0,136.0,orange,circle
0.0,6.0,2.0,1.0,7.0,6.0,4165.817245026119,3.0,1.0,part_3,go,0.0,0.0,0.0,195.0,5.0,156.0,39.0,117.0,78.0,234.0,195.0,green,hexagon
0.0,8.0,4.0,1.0,7.0,6.0,1912.282731034793,3.0,1.0,part_3,go,0.0,0.0,0.0,264.0,6.0,176.0,88.0,132.0,44.0,220.0,264.0,blue,I
0.0,5.0,1.0,1.0,7.0,2.0,3377.216415014118,3.0,1.0,part_3,go,0.0,0.0,0.0,156.0,4.0,234.0,156.0,78.0,39.0,117.0,195.0,orange,circle
0.0,2.0,2.0,0.0,7.0,3.0,2040.9724140772596,3.0,1.0,part_3,go,0.0,0.0,0.0,170.0,5.0,204.0,136.0,170.0,68.0,34.0,102.0,magenta,flipped triangle
0.0,8.0,4.0,1.0,7.0,4.0,1364.2736329929903,3.0,1.0,part_3,go,0.0,0.0,0.0,324.0,6.0,108.0,270.0,54.0,324.0,162.0,216.0,blue,I
0.0,3.0,3.0,0.0,7.0,3.0,1476.4564629876986,3.0,1.0,part_3,go,0.0,0.0,0.0,49.0,1.0,147.0,245.0,49.0,294.0,98.0,196.0,gray,cross
0.0,4.0,4.0,0.0,7.0,6.0,1084.030713071115,3.0,1.0,part_3,go,0.0,0.0,0.0,34.0,1.0,102.0,136.0,68.0,204.0,170.0,34.0,white,diamond
0.0,3.0,3.0,0.0,7.0,3.0,1335.1194319548083,3.0,1.0,part_3,go,0.0,0.0,0.0,49.0,1.0,294.0,196.0,49.0,98.0,147.0,245.0,gray,cross
0.0,1.0,1.0,0.0,7.0,3.0,1778.6402989877388,3.0,1.0,part_3,go,0.0,0.0,0.0,108.0,2.0,216.0,54.0,108.0,270.0,162.0,324.0,cyan,square
0.0,5.0,1.0,1.0,7.0,6.0,2440.9889039816335,3.0,1.0,part_3,go,0.0,0.0,0.0,196.0,4.0,98.0,49.0,147.0,245.0,294.0,196.0,orange,circle
0.0,2.0,2.0,0.0,7.0,4.0,2586.941336048767,3.0,1.0,part_3,go,0.0,0.0,0.0,195.0,5.0,156.0,39.0,117.0,195.0,234.0,78.0,magenta,flipped triangle
0.0,3.0,3.0,0.0,7.0,1.0,946.7584689846262,4.0,1.0,part_3,go,0.0,0.0,0.0,54.0,1.0,54.0,216.0,324.0,108.0,270.0,162.0,gray,cross
0.0,8.0,4.0,1.0,7.0,5.0,1661.4502479787916,4.0,1.0,part_3,go,0.0,0.0,0.0,294.0,6.0,196.0,245.0,49.0,147.0,294.0,98.0,blue,I
0.0,5.0,1.0,1.0,7.0,2.0,2982.0751709630713,4.0,1.0,part_3,go,0.0,0.0,0.0,216.0,4.0,270.0,216.0,324.0,162.0,54.0,108.0,orange,circle
0.0,2.0,2.0,0.0,7.0,3.0,3192.597824963741,4.0,1.0,part_3,go,0.0,0.0,0.0,216.0,4.0,54.0,162.0,216.0,324.0,108.0,270.0,magenta,flipped triangle
0.0,7.0,3.0,1.0,7.0,2.0,2641.1313940770924,4.0,1.0,part_3,go,0.0,0.0,0.0,162.0,3.0,108.0,162.0,54.0,324.0,216.0,270.0,yellow,triangle
0.0,1.0,1.0,0.0,7.0,5.0,1388.8169840211049,4.0,1.0,part_3,go,0.0,0.0,0.0,196.0,4.0,147.0,49.0,245.0,294.0,196.0,98.0,cyan,square
0.0,4.0,4.0,0.0,7.0,5.0,1123.0456550838426,4.0,1.0,part_3,go,0.0,0.0,0.0,39.0,1.0,195.0,156.0,234.0,117.0,39.0,78.0,white,diamond
0.0,5.0,1.0,1.0,7.0,4.0,2917.9053229745477,4.0,1.0,part_3,go,0.0,0.0,0.0,170.0,5.0,34.0,68.0,136.0,170.0,102.0,204.0,orange,circle
0.0,6.0,2.0,1.0,7.0,5.0,3631.680351914838,4.0,1.0,part_3,go,0.0,0.0,0.0,98.0,2.0,196.0,49.0,245.0,147.0,98.0,294.0,green,hexagon
0.0,1.0,1.0,0.0,7.0,3.0,523.0140479980037,4.0,2.0,part_3,go,0.0,0.0,0.0,132.0,3.0,220.0,88.0,132.0,264.0,176.0,44.0,cyan,square
0.0,2.0,2.0,0.0,7.0,5.0,3971.632373984903,4.0,1.0,part_3,go,0.0,0.0,0.0,170.0,5.0,136.0,68.0,34.0,204.0,170.0,102.0,magenta,flipped triangle
0.0,8.0,4.0,1.0,7.0,5.0,1554.5615690061825,4.0,1.0,part_3,go,0.0,0.0,0.0,234.0,6.0,78.0,117.0,39.0,156.0,234.0,195.0,blue,I
0.0,5.0,1.0,1.0,7.0,5.0,1771.7219970654696,4.0,1.0,part_3,go,0.0,0.0,0.0,176.0,4.0,220.0,264.0,132.0,44.0,176.0,88.0,orange,circle
0.0,3.0,3.0,0.0,7.0,2.0,1451.9749160390347,4.0,1.0,part_3,go,0.0,0.0,0.0,44.0,1.0,264.0,44.0,132.0,176.0,220.0,88.0,gray,cross
0.0,8.0,4.0,1.0,7.0,4.0,2592.0049510896206,4.0,1.0,part_3,go,0.0,0.0,0.0,136.0,4.0,170.0,68.0,102.0,136.0,34.0,204.0,blue,I
0.0,4.0,4.0,0.0,7.0,5.0,2320.2538939658552,4.0,1.0,part_3,go,0.0,0.0,0.0,34.0,1.0,204.0,68.0,170.0,102.0,34.0,136.0,white,diamond
0.0,3.0,3.0,0.0,7.0,2.0,1496.3471320224926,4.0,1.0,part_3,go,0.0,0.0,0.0,34.0,1.0,136.0,34.0,68.0,204.0,102.0,170.0,gray,cross
0.0,4.0,4.0,0.0,7.0,4.0,1379.3062079930678,4.0,1.0,part_3,go,0.0,0.0,0.0,54.0,1.0,324.0,162.0,108.0,54.0,216.0,270.0,white,diamond
0.0,7.0,3.0,1.0,7.0,6.0,2797.0709761139005,4.0,1.0,part_3,go,0.0,0.0,0.0,132.0,3.0,88.0,176.0,264.0,220.0,44.0,132.0,yellow,triangle
0.0,2.0,2.0,0.0,7.0,5.0,1795.934941037558,4.0,1.0,part_3,go,0.0,0.0,0.0,132.0,3.0,176.0,44.0,264.0,88.0,132.0,220.0,magenta,flipped triangle
