raw_reward_magnitude,stim_reward,stepwise_reward_magnitude,paired_with_stopping,stim_location,response,reaction_time,block,num_trial_presentations,which_phase,stop_signal_trial_type,left_SSD,right_SSD,accuracy,chosen_bidding_amount,chosen_bidding_level,possible_bid_1,possible_bid_2,possible_bid_3,possible_bid_4,possible_bid_5,possible_bid_6,color_text,shape_text
201.0,7.0,3.0,1.0,3.0,3.0,344.8048359714448,1.0,1.0,phase_1,,,,,,,,,,,,,cyan,square
42.0,1.0,1.0,0.0,2.0,2.0,284.6507100621238,1.0,1.0,phase_1,,,,,,,,,,,,,yellow,triangle
84.0,2.0,2.0,0.0,2.0,2.0,265.9516429994255,1.0,1.0,phase_1,,,,,,,,,,,,,magenta,cross
187.0,7.0,3.0,1.0,3.0,3.0,263.2609520805999,1.0,1.0,phase_1,,,,,,,,,,,,,cyan,square
96.0,6.0,2.0,1.0,1.0,1.0,273.1105800485238,1.0,1.0,phase_1,,,,,,,,,,,,,blue,I
81.0,6.0,2.0,1.0,3.0,3.0,239.3009020015597,1.0,1.0,phase_1,,,,,,,,,,,,,blue,I
418.0,8.0,4.0,1.0,1.0,1.0,258.6425569606945,1.0,1.0,phase_1,,,,,,,,,,,,,orange,hexagon
400.0,4.0,4.0,0.0,4.0,4.0,249.825049075298,1.0,1.0,phase_1,,,,,,,,,,,,,white,flipped triangle
48.0,5.0,1.0,1.0,3.0,3.0,293.0519230430946,1.0,1.0,phase_1,,,,,,,,,,,,,gray,circle
417.0,8.0,4.0,1.0,2.0,2.0,258.1144219730049,1.0,1.0,phase_1,,,,,,,,,,,,,orange,hexagon
38.0,1.0,1.0,0.0,3.0,3.0,270.5064100446179,1.0,1.0,phase_1,,,,,,,,,,,,,yellow,triangle
118.0,2.0,2.0,0.0,2.0,2.0,244.3152440246194,1.0,1.0,phase_1,,,,,,,,,,,,,magenta,cross
205.0,7.0,3.0,1.0,3.0,3.0,248.6826910171657,1.0,1.0,phase_1,,,,,,,,,,,,,cyan,square
0.0,6.0,0.0,1.0,4.0,4.0,277.0967370597645,1.0,1.0,phase_1,,,,,,,,,,,,,blue,I
90.0,2.0,2.0,0.0,4.0,4.0,256.8467080127448,1.0,1.0,phase_1,,,,,,,,,,,,,magenta,cross
33.0,1.0,1.0,0.0,2.0,2.0,284.3796509550884,1.0,1.0,phase_1,,,,,,,,,,,,,yellow,triangle
34.0,1.0,1.0,0.0,4.0,4.0,251.6838070005178,1.0,1.0,phase_1,,,,,,,,,,,,,yellow,triangle
0.0,2.0,0.0,0.0,2.0,2.0,320.2886830549687,1.0,1.0,phase_1,,,,,,,,,,,,,magenta,cross
55.0,1.0,1.0,0.0,2.0,2.0,254.726710030809,1.0,2.0,phase_1,,,,,,,,,,,,,yellow,triangle
42.0,5.0,1.0,1.0,4.0,4.0,284.0983010828495,1.0,1.0,phase_1,,,,,,,,,,,,,gray,circle
98.0,6.0,2.0,1.0,3.0,3.0,345.8545739995315,1.0,1.0,phase_1,,,,,,,,,,,,,blue,I
65.0,1.0,1.0,0.0,1.0,1.0,261.5534740034491,1.0,1.0,phase_1,,,,,,,,,,,,,yellow,triangle
75.0,1.0,1.0,0.0,1.0,1.0,290.5903370119631,1.0,1.0,phase_1,,,,,,,,,,,,,yellow,triangle
63.0,1.0,1.0,0.0,3.0,3.0,265.3976930305362,1.0,1.0,phase_1,,,,,,,,,,,,,yellow,triangle
46.0,1.0,1.0,0.0,4.0,4.0,253.38561495300382,1.0,1.0,phase_1,,,,,,,,,,,,,yellow,triangle
41.0,5.0,1.0,1.0,2.0,2.0,280.3333350457251,1.0,1.0,phase_1,,,,,,,,,,,,,gray,circle
98.0,2.0,2.0,0.0,2.0,2.0,277.8441320406273,1.0,1.0,phase_1,,,,,,,,,,,,,magenta,cross
404.0,4.0,4.0,0.0,2.0,2.0,273.432235000655,1.0,1.0,phase_1,,,,,,,,,,,,,white,flipped triangle
395.0,8.0,4.0,1.0,3.0,3.0,249.4345139712095,1.0,1.0,phase_1,,,,,,,,,,,,,orange,hexagon
38.0,1.0,1.0,0.0,1.0,1.0,220.8149069920182,1.0,1.0,phase_1,,,,,,,,,,,,,yellow,triangle
200.0,7.0,3.0,1.0,1.0,1.0,278.9265640312806,1.0,1.0,phase_1,,,,,,,,,,,,,cyan,square
53.0,1.0,1.0,0.0,4.0,4.0,237.5379160512238,1.0,1.0,phase_1,,,,,,,,,,,,,yellow,triangle
389.0,8.0,4.0,1.0,4.0,4.0,266.4021330419928,1.0,1.0,phase_1,,,,,,,,,,,,,orange,hexagon
0.0,4.0,0.0,0.0,2.0,2.0,244.7403069818392,1.0,1.0,phase_1,,,,,,,,,,,,,white,flipped triangle
59.0,1.0,1.0,0.0,3.0,3.0,273.4894410241395,1.0,1.0,phase_1,,,,,,,,,,,,,yellow,triangle
0.0,8.0,0.0,1.0,4.0,4.0,298.1452860403806,1.0,1.0,phase_1,,,,,,,,,,,,,orange,hexagon
106.0,2.0,2.0,0.0,2.0,2.0,260.3736190358177,1.0,1.0,phase_1,,,,,,,,,,,,,magenta,cross
0.0,3.0,0.0,0.0,2.0,2.0,280.4148809518665,1.0,1.0,phase_1,,,,,,,,,,,,,green,diamond
208.0,7.0,3.0,1.0,4.0,4.0,277.579230023548,1.0,1.0,phase_1,,,,,,,,,,,,,cyan,square
197.0,3.0,3.0,0.0,1.0,1.0,315.7920220401138,1.0,1.0,phase_1,,,,,,,,,,,,,green,diamond
422.0,8.0,4.0,1.0,3.0,3.0,293.4887629235163,1.0,1.0,phase_1,,,,,,,,,,,,,orange,hexagon
224.0,7.0,3.0,1.0,2.0,2.0,281.6111629363149,1.0,1.0,phase_1,,,,,,,,,,,,,cyan,square
0.0,5.0,0.0,1.0,2.0,2.0,318.8891740282997,1.0,1.0,phase_1,,,,,,,,,,,,,gray,circle
208.0,3.0,3.0,0.0,1.0,1.0,265.2094300137833,1.0,2.0,phase_1,,,,,,,,,,,,,green,diamond
413.0,4.0,4.0,0.0,3.0,3.0,285.7721101026982,1.0,1.0,phase_1,,,,,,,,,,,,,white,flipped triangle
117.0,6.0,2.0,1.0,4.0,4.0,341.5450600441545,1.0,1.0,phase_1,,,,,,,,,,,,,blue,I
415.0,8.0,4.0,1.0,3.0,3.0,294.4359349785372,1.0,1.0,phase_1,,,,,,,,,,,,,orange,hexagon
0.0,2.0,0.0,0.0,3.0,3.0,326.8872160697356,1.0,1.0,phase_1,,,,,,,,,,,,,magenta,cross
97.0,6.0,2.0,1.0,3.0,3.0,265.4028040124103,1.0,1.0,phase_1,,,,,,,,,,,,,blue,I
103.0,6.0,2.0,1.0,2.0,2.0,269.0657840576023,1.0,1.0,phase_1,,,,,,,,,,,,,blue,I
31.0,5.0,1.0,1.0,3.0,3.0,249.069386976771,1.0,1.0,phase_1,,,,,,,,,,,,,gray,circle
0.0,8.0,0.0,1.0,1.0,1.0,241.5122630773112,1.0,1.0,phase_1,,,,,,,,,,,,,orange,hexagon
120.0,2.0,2.0,0.0,4.0,4.0,266.4418930653482,1.0,1.0,phase_1,,,,,,,,,,,,,magenta,cross
0.0,2.0,0.0,0.0,2.0,2.0,232.0535569451749,1.0,1.0,phase_1,,,,,,,,,,,,,magenta,cross
113.0,6.0,2.0,1.0,2.0,2.0,275.6639259168878,1.0,1.0,phase_1,,,,,,,,,,,,,blue,I
92.0,6.0,2.0,1.0,2.0,2.0,265.1049370178953,1.0,1.0,phase_1,,,,,,,,,,,,,blue,I
392.0,8.0,4.0,1.0,2.0,2.0,280.4344540927559,1.0,1.0,phase_1,,,,,,,,,,,,,orange,hexagon
0.0,4.0,0.0,0.0,4.0,4.0,269.552169018425,1.0,1.0,phase_1,,,,,,,,,,,,,white,flipped triangle
178.0,3.0,3.0,0.0,2.0,2.0,240.6639710534364,1.0,1.0,phase_1,,,,,,,,,,,,,green,diamond
178.0,7.0,3.0,1.0,2.0,2.0,268.0326330009848,1.0,1.0,phase_1,,,,,,,,,,,,,cyan,square
45.0,5.0,1.0,1.0,2.0,2.0,298.7520779715851,1.0,1.0,phase_1,,,,,,,,,,,,,gray,circle
223.0,7.0,3.0,1.0,4.0,4.0,285.7203009771183,1.0,1.0,phase_1,,,,,,,,,,,,,cyan,square
33.0,1.0,1.0,0.0,2.0,2.0,251.02653203066438,1.0,1.0,phase_1,,,,,,,,,,,,,yellow,triangle
376.0,4.0,4.0,0.0,3.0,3.0,272.6152129471302,1.0,1.0,phase_1,,,,,,,,,,,,,white,flipped triangle
81.0,2.0,2.0,0.0,4.0,4.0,317.599197034724,1.0,1.0,phase_1,,,,,,,,,,,,,magenta,cross
116.0,2.0,2.0,0.0,2.0,2.0,304.3087690602988,1.0,1.0,phase_1,,,,,,,,,,,,,magenta,cross
384.0,4.0,4.0,0.0,3.0,3.0,269.831249024719,1.0,1.0,phase_1,,,,,,,,,,,,,white,flipped triangle
119.0,2.0,2.0,0.0,1.0,1.0,288.971108966507,1.0,1.0,phase_1,,,,,,,,,,,,,magenta,cross
383.0,8.0,4.0,1.0,1.0,1.0,296.7399939661845,1.0,1.0,phase_1,,,,,,,,,,,,,orange,hexagon
391.0,8.0,4.0,1.0,2.0,2.0,261.00035791751,1.0,1.0,phase_1,,,,,,,,,,,,,orange,hexagon
396.0,8.0,4.0,1.0,3.0,3.0,256.6051069879904,1.0,1.0,phase_1,,,,,,,,,,,,,orange,hexagon
201.0,7.0,3.0,1.0,3.0,3.0,293.8038060674444,1.0,1.0,phase_1,,,,,,,,,,,,,cyan,square
40.0,5.0,1.0,1.0,3.0,3.0,260.3602870367467,1.0,1.0,phase_1,,,,,,,,,,,,,gray,circle
61.0,5.0,1.0,1.0,3.0,3.0,284.8931810585782,1.0,1.0,phase_1,,,,,,,,,,,,,gray,circle
0.0,2.0,0.0,0.0,1.0,1.0,292.7347499644384,1.0,1.0,phase_1,,,,,,,,,,,,,magenta,cross
38.0,5.0,1.0,1.0,2.0,2.0,303.005255991593,1.0,1.0,phase_1,,,,,,,,,,,,,gray,circle
40.0,1.0,1.0,0.0,3.0,3.0,258.6236998904496,1.0,1.0,phase_1,,,,,,,,,,,,,yellow,triangle
120.0,6.0,2.0,1.0,1.0,1.0,279.6538870315999,1.0,1.0,phase_1,,,,,,,,,,,,,blue,I
397.0,8.0,4.0,1.0,1.0,1.0,323.949606041424,1.0,1.0,phase_1,,,,,,,,,,,,,orange,hexagon
424.0,4.0,4.0,0.0,3.0,3.0,256.7701520165428,1.0,1.0,phase_1,,,,,,,,,,,,,white,flipped triangle
0.0,7.0,0.0,1.0,3.0,3.0,302.6041889097541,1.0,1.0,phase_1,,,,,,,,,,,,,cyan,square
404.0,8.0,4.0,1.0,3.0,3.0,307.0757879177108,1.0,1.0,phase_1,,,,,,,,,,,,,orange,hexagon
193.0,7.0,3.0,1.0,4.0,4.0,286.9041830999776,1.0,1.0,phase_1,,,,,,,,,,,,,cyan,square
93.0,6.0,2.0,1.0,4.0,4.0,277.5507270125672,1.0,1.0,phase_1,,,,,,,,,,,,,blue,I
118.0,6.0,2.0,1.0,4.0,4.0,323.3866859227419,1.0,1.0,phase_1,,,,,,,,,,,,,blue,I
68.0,5.0,1.0,1.0,2.0,2.0,262.4374229926616,1.0,1.0,phase_1,,,,,,,,,,,,,gray,circle
0.0,7.0,0.0,1.0,2.0,2.0,401.1934150476008,1.0,1.0,phase_1,,,,,,,,,,,,,cyan,square
52.0,1.0,1.0,0.0,4.0,4.0,279.0907740127295,1.0,1.0,phase_1,,,,,,,,,,,,,yellow,triangle
63.0,5.0,1.0,1.0,3.0,3.0,295.7766619510948,1.0,1.0,phase_1,,,,,,,,,,,,,gray,circle
52.0,1.0,1.0,0.0,4.0,4.0,289.6449969848618,1.0,1.0,phase_1,,,,,,,,,,,,,yellow,triangle
27.0,5.0,1.0,1.0,4.0,4.0,326.6099810134619,1.0,1.0,phase_1,,,,,,,,,,,,,gray,circle
0.0,7.0,0.0,1.0,4.0,4.0,281.4570950577035,1.0,1.0,phase_1,,,,,,,,,,,,,cyan,square
214.0,7.0,3.0,1.0,1.0,1.0,306.526146014221,1.0,2.0,phase_1,,,,,,,,,,,,,cyan,square
179.0,7.0,3.0,1.0,4.0,4.0,322.7716700639575,1.0,1.0,phase_1,,,,,,,,,,,,,cyan,square
98.0,6.0,2.0,1.0,1.0,1.0,290.2992740273475,1.0,2.0,phase_1,,,,,,,,,,,,,blue,I
70.0,1.0,1.0,0.0,3.0,3.0,325.8784330682829,1.0,1.0,phase_1,,,,,,,,,,,,,yellow,triangle
0.0,8.0,0.0,1.0,1.0,1.0,283.8119460502639,1.0,1.0,phase_1,,,,,,,,,,,,,orange,hexagon
391.0,8.0,4.0,1.0,4.0,4.0,266.2682860391214,1.0,1.0,phase_1,,,,,,,,,,,,,orange,hexagon
55.0,5.0,1.0,1.0,1.0,1.0,340.1175490580499,1.0,1.0,phase_1,,,,,,,,,,,,,gray,circle
417.0,8.0,4.0,1.0,4.0,4.0,284.0892970561981,1.0,1.0,phase_1,,,,,,,,,,,,,orange,hexagon
206.0,7.0,3.0,1.0,3.0,3.0,411.2733360379934,2.0,1.0,phase_1,,,,,,,,,,,,,cyan,square
111.0,2.0,2.0,0.0,3.0,3.0,286.4170840475708,2.0,1.0,phase_1,,,,,,,,,,,,,magenta,cross
75.0,5.0,1.0,1.0,3.0,3.0,289.0935369068756,2.0,1.0,phase_1,,,,,,,,,,,,,gray,circle
0.0,5.0,0.0,1.0,3.0,3.0,264.8792020045221,2.0,1.0,phase_1,,,,,,,,,,,,,gray,circle
47.0,1.0,1.0,0.0,3.0,3.0,245.7797119859606,2.0,1.0,phase_1,,,,,,,,,,,,,yellow,triangle
0.0,8.0,0.0,1.0,2.0,2.0,281.4876888878643,2.0,1.0,phase_1,,,,,,,,,,,,,orange,hexagon
387.0,8.0,4.0,1.0,3.0,3.0,245.6849809968844,2.0,1.0,phase_1,,,,,,,,,,,,,orange,hexagon
195.0,7.0,3.0,1.0,1.0,1.0,248.9041599910706,2.0,1.0,phase_1,,,,,,,,,,,,,cyan,square
396.0,4.0,4.0,0.0,3.0,3.0,256.6295760916546,2.0,1.0,phase_1,,,,,,,,,,,,,white,flipped triangle
0.0,3.0,0.0,0.0,3.0,3.0,270.215886994265,2.0,1.0,phase_1,,,,,,,,,,,,,green,diamond
51.0,5.0,1.0,1.0,3.0,3.0,295.4163290560245,2.0,1.0,phase_1,,,,,,,,,,,,,gray,circle
218.0,7.0,3.0,1.0,4.0,4.0,263.1635349243879,2.0,1.0,phase_1,,,,,,,,,,,,,cyan,square
400.0,8.0,4.0,1.0,4.0,4.0,284.3530119862407,2.0,1.0,phase_1,,,,,,,,,,,,,orange,hexagon
120.0,6.0,2.0,1.0,1.0,1.0,303.4227669704705,2.0,1.0,phase_1,,,,,,,,,,,,,blue,I
0.0,1.0,0.0,0.0,3.0,3.0,258.0317449755966,2.0,1.0,phase_1,,,,,,,,,,,,,yellow,triangle
106.0,6.0,2.0,1.0,3.0,3.0,304.2012610239908,2.0,1.0,phase_1,,,,,,,,,,,,,blue,I
202.0,3.0,3.0,0.0,2.0,2.0,445.0835130410269,2.0,1.0,phase_1,,,,,,,,,,,,,green,diamond
0.0,5.0,0.0,1.0,4.0,4.0,256.6087089944631,2.0,1.0,phase_1,,,,,,,,,,,,,gray,circle
178.0,3.0,3.0,0.0,4.0,4.0,340.9952980000525,2.0,1.0,phase_1,,,,,,,,,,,,,green,diamond
0.0,5.0,0.0,1.0,1.0,1.0,474.6078180614859,2.0,1.0,phase_1,,,,,,,,,,,,,gray,circle
27.0,5.0,1.0,1.0,3.0,3.0,304.3359039584175,2.0,1.0,phase_1,,,,,,,,,,,,,gray,circle
0.0,7.0,0.0,1.0,1.0,1.0,300.9069199906662,2.0,1.0,phase_1,,,,,,,,,,,,,cyan,square
411.0,4.0,4.0,0.0,2.0,2.0,279.308613971807,2.0,1.0,phase_1,,,,,,,,,,,,,white,flipped triangle
72.0,1.0,1.0,0.0,1.0,1.0,348.2584320008755,2.0,1.0,phase_1,,,,,,,,,,,,,yellow,triangle
0.0,1.0,0.0,0.0,1.0,1.0,291.7315369704738,2.0,1.0,phase_1,,,,,,,,,,,,,yellow,triangle
117.0,2.0,2.0,0.0,4.0,4.0,306.3870709156617,2.0,1.0,phase_1,,,,,,,,,,,,,magenta,cross
406.0,8.0,4.0,1.0,4.0,4.0,297.9185570729896,2.0,1.0,phase_1,,,,,,,,,,,,,orange,hexagon
225.0,7.0,3.0,1.0,4.0,4.0,306.3463219441473,2.0,1.0,phase_1,,,,,,,,,,,,,cyan,square
93.0,6.0,2.0,1.0,2.0,2.0,318.6744060367346,2.0,1.0,phase_1,,,,,,,,,,,,,blue,I
0.0,1.0,0.0,0.0,3.0,3.0,280.5557979736477,2.0,1.0,phase_1,,,,,,,,,,,,,yellow,triangle
64.0,5.0,1.0,1.0,4.0,4.0,334.6830890513956,2.0,1.0,phase_1,,,,,,,,,,,,,gray,circle
179.0,7.0,3.0,1.0,3.0,3.0,317.4440279835835,2.0,1.0,phase_1,,,,,,,,,,,,,cyan,square
93.0,6.0,2.0,1.0,2.0,2.0,494.0890870057046,2.0,1.0,phase_1,,,,,,,,,,,,,blue,I
392.0,4.0,4.0,0.0,4.0,4.0,330.3716370137408,2.0,1.0,phase_1,,,,,,,,,,,,,white,flipped triangle
31.0,1.0,1.0,0.0,4.0,4.0,335.2656090864911,2.0,1.0,phase_1,,,,,,,,,,,,,yellow,triangle
0.0,7.0,0.0,1.0,4.0,4.0,292.1692519448697,2.0,1.0,phase_1,,,,,,,,,,,,,cyan,square
208.0,7.0,3.0,1.0,3.0,3.0,249.8065120307728,2.0,1.0,phase_1,,,,,,,,,,,,,cyan,square
417.0,4.0,4.0,0.0,2.0,2.0,263.1824610289186,2.0,1.0,phase_1,,,,,,,,,,,,,white,flipped triangle
219.0,7.0,3.0,1.0,1.0,1.0,298.2811300316825,2.0,1.0,phase_1,,,,,,,,,,,,,cyan,square
58.0,5.0,1.0,1.0,1.0,1.0,286.628523026593,2.0,1.0,phase_1,,,,,,,,,,,,,gray,circle
387.0,4.0,4.0,0.0,1.0,1.0,286.6262160241604,2.0,1.0,phase_1,,,,,,,,,,,,,white,flipped triangle
210.0,3.0,3.0,0.0,3.0,3.0,248.9191150525584,2.0,1.0,phase_1,,,,,,,,,,,,,green,diamond
89.0,6.0,2.0,1.0,4.0,4.0,302.7835240354761,2.0,1.0,phase_1,,,,,,,,,,,,,blue,I
404.0,8.0,4.0,1.0,3.0,3.0,265.9817120293155,2.0,1.0,phase_1,,,,,,,,,,,,,orange,hexagon
0.0,2.0,0.0,0.0,4.0,4.0,328.1027029734105,2.0,1.0,phase_1,,,,,,,,,,,,,magenta,cross
187.0,3.0,3.0,0.0,1.0,1.0,277.4340319447219,2.0,1.0,phase_1,,,,,,,,,,,,,green,diamond
0.0,1.0,0.0,0.0,4.0,4.0,283.2998059457168,2.0,1.0,phase_1,,,,,,,,,,,,,yellow,triangle
77.0,6.0,2.0,1.0,1.0,1.0,302.171660005115,2.0,1.0,phase_1,,,,,,,,,,,,,blue,I
59.0,1.0,1.0,0.0,3.0,3.0,284.5851141028106,2.0,1.0,phase_1,,,,,,,,,,,,,yellow,triangle
68.0,1.0,1.0,0.0,1.0,1.0,277.6300520636141,2.0,1.0,phase_1,,,,,,,,,,,,,yellow,triangle
96.0,2.0,2.0,0.0,3.0,3.0,253.80051310639828,2.0,1.0,phase_1,,,,,,,,,,,,,magenta,cross
0.0,4.0,0.0,0.0,2.0,2.0,310.475075035356,2.0,1.0,phase_1,,,,,,,,,,,,,white,flipped triangle
55.0,1.0,1.0,0.0,1.0,1.0,318.1999149965122,2.0,1.0,phase_1,,,,,,,,,,,,,yellow,triangle
0.0,6.0,0.0,1.0,2.0,2.0,305.1498860586434,2.0,1.0,phase_1,,,,,,,,,,,,,blue,I
194.0,7.0,3.0,1.0,1.0,1.0,253.02300497423857,2.0,1.0,phase_1,,,,,,,,,,,,,cyan,square
0.0,4.0,0.0,0.0,3.0,3.0,265.994157991372,2.0,1.0,phase_1,,,,,,,,,,,,,white,flipped triangle
80.0,2.0,2.0,0.0,1.0,1.0,254.0622390806675,2.0,1.0,phase_1,,,,,,,,,,,,,magenta,cross
380.0,8.0,4.0,1.0,2.0,2.0,253.4124730154872,2.0,1.0,phase_1,,,,,,,,,,,,,orange,hexagon
97.0,2.0,2.0,0.0,4.0,4.0,273.605166003108,2.0,1.0,phase_1,,,,,,,,,,,,,magenta,cross
218.0,3.0,3.0,0.0,4.0,4.0,309.4481809530407,2.0,1.0,phase_1,,,,,,,,,,,,,green,diamond
389.0,8.0,4.0,1.0,3.0,3.0,277.2528829518705,2.0,1.0,phase_1,,,,,,,,,,,,,orange,hexagon
66.0,5.0,1.0,1.0,1.0,1.0,375.696639996022,2.0,1.0,phase_1,,,,,,,,,,,,,gray,circle
109.0,2.0,2.0,0.0,3.0,3.0,306.6258819308132,2.0,1.0,phase_1,,,,,,,,,,,,,magenta,cross
51.0,5.0,1.0,1.0,1.0,1.0,287.8534980118274,2.0,1.0,phase_1,,,,,,,,,,,,,gray,circle
105.0,6.0,2.0,1.0,4.0,4.0,295.5678600119427,2.0,1.0,phase_1,,,,,,,,,,,,,blue,I
211.0,3.0,3.0,0.0,3.0,3.0,323.8647490506992,2.0,1.0,phase_1,,,,,,,,,,,,,green,diamond
401.0,8.0,4.0,1.0,4.0,4.0,287.1752720093354,2.0,1.0,phase_1,,,,,,,,,,,,,orange,hexagon
122.0,6.0,2.0,1.0,4.0,4.0,267.6526840077713,2.0,1.0,phase_1,,,,,,,,,,,,,blue,I
120.0,6.0,2.0,1.0,1.0,1.0,328.5649640019983,2.0,1.0,phase_1,,,,,,,,,,,,,blue,I
409.0,8.0,4.0,1.0,4.0,4.0,259.3696659896523,2.0,1.0,phase_1,,,,,,,,,,,,,orange,hexagon
411.0,8.0,4.0,1.0,1.0,1.0,296.8541899463162,2.0,1.0,phase_1,,,,,,,,,,,,,orange,hexagon
72.0,5.0,1.0,1.0,4.0,4.0,272.4104250082746,2.0,1.0,phase_1,,,,,,,,,,,,,gray,circle
375.0,4.0,4.0,0.0,4.0,4.0,275.9342211065814,2.0,1.0,phase_1,,,,,,,,,,,,,white,flipped triangle
391.0,4.0,4.0,0.0,4.0,4.0,275.0737610040232,2.0,1.0,phase_1,,,,,,,,,,,,,white,flipped triangle
400.0,4.0,4.0,0.0,2.0,2.0,286.6345689399168,2.0,1.0,phase_1,,,,,,,,,,,,,white,flipped triangle
390.0,8.0,4.0,1.0,2.0,2.0,319.2561799660325,2.0,2.0,phase_1,,,,,,,,,,,,,orange,hexagon
195.0,7.0,3.0,1.0,2.0,2.0,297.5706129800528,2.0,1.0,phase_1,,,,,,,,,,,,,cyan,square
0.0,2.0,0.0,0.0,4.0,4.0,280.5140869459137,2.0,1.0,phase_1,,,,,,,,,,,,,magenta,cross
194.0,3.0,3.0,0.0,3.0,3.0,309.9822680233046,2.0,1.0,phase_1,,,,,,,,,,,,,green,diamond
0.0,7.0,0.0,1.0,4.0,4.0,296.8846319708973,2.0,1.0,phase_1,,,,,,,,,,,,,cyan,square
409.0,4.0,4.0,0.0,2.0,2.0,221.2041009915992,2.0,1.0,phase_1,,,,,,,,,,,,,white,flipped triangle
208.0,3.0,3.0,0.0,3.0,3.0,273.0771199567243,2.0,1.0,phase_1,,,,,,,,,,,,,green,diamond
398.0,8.0,4.0,1.0,2.0,2.0,318.0308939190581,2.0,1.0,phase_1,,,,,,,,,,,,,orange,hexagon
55.0,5.0,1.0,1.0,3.0,3.0,297.8673629695549,2.0,1.0,phase_1,,,,,,,,,,,,,gray,circle
31.0,1.0,1.0,0.0,1.0,1.0,281.4863640815019,2.0,1.0,phase_1,,,,,,,,,,,,,yellow,triangle
0.0,6.0,0.0,1.0,2.0,2.0,269.9033310636878,2.0,1.0,phase_1,,,,,,,,,,,,,blue,I
200.0,3.0,3.0,0.0,2.0,2.0,271.5810959925875,2.0,1.0,phase_1,,,,,,,,,,,,,green,diamond
0.0,4.0,0.0,0.0,2.0,2.0,262.8000939730555,2.0,1.0,phase_1,,,,,,,,,,,,,white,flipped triangle
76.0,2.0,2.0,0.0,3.0,3.0,266.5352249750867,2.0,1.0,phase_1,,,,,,,,,,,,,magenta,cross
0.0,4.0,0.0,0.0,3.0,3.0,294.4415340898558,2.0,1.0,phase_1,,,,,,,,,,,,,white,flipped triangle
109.0,6.0,2.0,1.0,4.0,4.0,301.5907899243757,2.0,1.0,phase_1,,,,,,,,,,,,,blue,I
113.0,2.0,2.0,0.0,2.0,2.0,247.208452085033,2.0,1.0,phase_1,,,,,,,,,,,,,magenta,cross
400.0,8.0,4.0,1.0,2.0,2.0,287.3957890551537,2.0,1.0,phase_1,,,,,,,,,,,,,orange,hexagon
195.0,3.0,3.0,0.0,1.0,1.0,315.9652770264074,2.0,1.0,phase_1,,,,,,,,,,,,,green,diamond
0.0,2.0,0.0,0.0,4.0,4.0,302.2318960865959,2.0,1.0,phase_1,,,,,,,,,,,,,magenta,cross
398.0,8.0,4.0,1.0,1.0,1.0,290.1345529826358,2.0,1.0,phase_1,,,,,,,,,,,,,orange,hexagon
0.0,4.0,0.0,0.0,4.0,4.0,289.47950003203,2.0,1.0,phase_1,,,,,,,,,,,,,white,flipped triangle
418.0,4.0,4.0,0.0,4.0,4.0,295.1845600036904,2.0,1.0,phase_1,,,,,,,,,,,,,white,flipped triangle
0.0,8.0,0.0,1.0,4.0,4.0,295.6154580460861,2.0,1.0,phase_1,,,,,,,,,,,,,orange,hexagon
90.0,6.0,2.0,1.0,3.0,3.0,296.5072439983487,2.0,1.0,phase_1,,,,,,,,,,,,,blue,I
0.0,4.0,0.0,0.0,2.0,2.0,298.042606911622,3.0,1.0,phase_1,,,,,,,,,,,,,white,flipped triangle
196.0,3.0,3.0,0.0,2.0,2.0,257.6298420317471,3.0,1.0,phase_1,,,,,,,,,,,,,green,diamond
390.0,8.0,4.0,1.0,2.0,2.0,275.5431340774521,3.0,1.0,phase_1,,,,,,,,,,,,,orange,hexagon
391.0,4.0,4.0,0.0,2.0,2.0,251.0691540082916,3.0,1.0,phase_1,,,,,,,,,,,,,white,flipped triangle
92.0,6.0,2.0,1.0,3.0,3.0,284.8900760291144,3.0,1.0,phase_1,,,,,,,,,,,,,blue,I
223.0,3.0,3.0,0.0,4.0,4.0,308.8391099590808,3.0,1.0,phase_1,,,,,,,,,,,,,green,diamond
125.0,2.0,2.0,0.0,3.0,3.0,279.1326339356601,3.0,1.0,phase_1,,,,,,,,,,,,,magenta,cross
0.0,8.0,0.0,1.0,3.0,3.0,298.9775519818067,3.0,1.0,phase_1,,,,,,,,,,,,,orange,hexagon
88.0,2.0,2.0,0.0,3.0,3.0,262.5080889556557,3.0,2.0,phase_1,,,,,,,,,,,,,magenta,cross
77.0,2.0,2.0,0.0,4.0,4.0,291.775833000429,3.0,1.0,phase_1,,,,,,,,,,,,,magenta,cross
75.0,6.0,2.0,1.0,2.0,2.0,288.6982780182734,3.0,1.0,phase_1,,,,,,,,,,,,,blue,I
33.0,5.0,1.0,1.0,3.0,3.0,274.3899140041321,3.0,1.0,phase_1,,,,,,,,,,,,,gray,circle
106.0,2.0,2.0,0.0,4.0,4.0,282.314678071998,3.0,1.0,phase_1,,,,,,,,,,,,,magenta,cross
87.0,2.0,2.0,0.0,3.0,3.0,262.5957800773904,3.0,1.0,phase_1,,,,,,,,,,,,,magenta,cross
179.0,3.0,3.0,0.0,3.0,3.0,282.6614360092208,3.0,1.0,phase_1,,,,,,,,,,,,,green,diamond
418.0,4.0,4.0,0.0,1.0,1.0,340.529581066221,3.0,1.0,phase_1,,,,,,,,,,,,,white,flipped triangle
182.0,3.0,3.0,0.0,3.0,3.0,244.7046890156343,3.0,1.0,phase_1,,,,,,,,,,,,,green,diamond
225.0,3.0,3.0,0.0,4.0,4.0,273.9882620517164,3.0,1.0,phase_1,,,,,,,,,,,,,green,diamond
195.0,3.0,3.0,0.0,1.0,1.0,307.0485199568793,3.0,1.0,phase_1,,,,,,,,,,,,,green,diamond
0.0,7.0,0.0,1.0,4.0,4.0,289.7358200279996,3.0,1.0,phase_1,,,,,,,,,,,,,cyan,square
187.0,3.0,3.0,0.0,3.0,3.0,285.4098399402573,3.0,1.0,phase_1,,,,,,,,,,,,,green,diamond
88.0,6.0,2.0,1.0,4.0,4.0,296.8226150842383,3.0,1.0,phase_1,,,,,,,,,,,,,blue,I
111.0,6.0,2.0,1.0,4.0,4.0,309.8986040567979,3.0,1.0,phase_1,,,,,,,,,,,,,blue,I
114.0,6.0,2.0,1.0,3.0,3.0,268.3654520660639,3.0,1.0,phase_1,,,,,,,,,,,,,blue,I
375.0,8.0,4.0,1.0,4.0,4.0,282.269227085635,3.0,1.0,phase_1,,,,,,,,,,,,,orange,hexagon
0.0,5.0,0.0,1.0,1.0,1.0,310.7009850209579,3.0,1.0,phase_1,,,,,,,,,,,,,gray,circle
33.0,5.0,1.0,1.0,1.0,1.0,329.7025120118633,3.0,1.0,phase_1,,,,,,,,,,,,,gray,circle
210.0,7.0,3.0,1.0,1.0,1.0,333.5450390586629,3.0,1.0,phase_1,,,,,,,,,,,,,cyan,square
401.0,4.0,4.0,0.0,1.0,1.0,293.5958250891417,3.0,1.0,phase_1,,,,,,,,,,,,,white,flipped triangle
395.0,4.0,4.0,0.0,3.0,3.0,256.1124849598855,3.0,1.0,phase_1,,,,,,,,,,,,,white,flipped triangle
224.0,3.0,3.0,0.0,1.0,1.0,252.7515069814399,3.0,1.0,phase_1,,,,,,,,,,,,,green,diamond
27.0,1.0,1.0,0.0,1.0,1.0,290.2741550933569,3.0,1.0,phase_1,,,,,,,,,,,,,yellow,triangle
216.0,3.0,3.0,0.0,2.0,2.0,276.4651789329946,3.0,1.0,phase_1,,,,,,,,,,,,,green,diamond
0.0,5.0,0.0,1.0,3.0,3.0,282.0468570571393,3.0,1.0,phase_1,,,,,,,,,,,,,gray,circle
51.0,1.0,1.0,0.0,2.0,2.0,445.7174570998177,3.0,1.0,phase_1,,,,,,,,,,,,,yellow,triangle
84.0,6.0,2.0,1.0,3.0,3.0,330.4408029653132,3.0,1.0,phase_1,,,,,,,,,,,,,blue,I
420.0,8.0,4.0,1.0,4.0,4.0,616.3769499398768,3.0,1.0,phase_1,,,,,,,,,,,,,orange,hexagon
415.0,4.0,4.0,0.0,1.0,1.0,348.1829250231385,3.0,1.0,phase_1,,,,,,,,,,,,,white,flipped triangle
58.0,1.0,1.0,0.0,2.0,2.0,307.6646330300718,3.0,1.0,phase_1,,,,,,,,,,,,,yellow,triangle
25.0,5.0,1.0,1.0,1.0,1.0,335.5694970814511,3.0,1.0,phase_1,,,,,,,,,,,,,gray,circle
187.0,7.0,3.0,1.0,3.0,3.0,277.6207979768514,3.0,1.0,phase_1,,,,,,,,,,,,,cyan,square
0.0,6.0,0.0,1.0,1.0,1.0,263.5354480007663,3.0,1.0,phase_1,,,,,,,,,,,,,blue,I
52.0,5.0,1.0,1.0,4.0,4.0,294.4427650654688,3.0,1.0,phase_1,,,,,,,,,,,,,gray,circle
0.0,2.0,0.0,0.0,3.0,3.0,251.9171099411323,3.0,1.0,phase_1,,,,,,,,,,,,,magenta,cross
204.0,3.0,3.0,0.0,2.0,2.0,277.9126010136679,3.0,1.0,phase_1,,,,,,,,,,,,,green,diamond
92.0,2.0,2.0,0.0,2.0,2.0,289.6791340317577,3.0,1.0,phase_1,,,,,,,,,,,,,magenta,cross
61.0,1.0,1.0,0.0,3.0,3.0,266.0671259509399,3.0,1.0,phase_1,,,,,,,,,,,,,yellow,triangle
120.0,2.0,2.0,0.0,4.0,4.0,259.3614869983867,3.0,1.0,phase_1,,,,,,,,,,,,,magenta,cross
59.0,5.0,1.0,1.0,1.0,1.0,287.1872140094638,3.0,1.0,phase_1,,,,,,,,,,,,,gray,circle
65.0,5.0,1.0,1.0,2.0,2.0,260.9061179682612,3.0,1.0,phase_1,,,,,,,,,,,,,gray,circle
214.0,3.0,3.0,0.0,2.0,2.0,257.4820349691435,3.0,1.0,phase_1,,,,,,,,,,,,,green,diamond
41.0,1.0,1.0,0.0,3.0,3.0,249.1820170544088,3.0,1.0,phase_1,,,,,,,,,,,,,yellow,triangle
111.0,6.0,2.0,1.0,2.0,2.0,203.063367982395,3.0,1.0,phase_1,,,,,,,,,,,,,blue,I
204.0,3.0,3.0,0.0,2.0,2.0,256.7490389337763,3.0,1.0,phase_1,,,,,,,,,,,,,green,diamond
55.0,1.0,1.0,0.0,2.0,2.0,236.1910609761253,3.0,1.0,phase_1,,,,,,,,,,,,,yellow,triangle
191.0,7.0,3.0,1.0,4.0,4.0,250.59856800362468,3.0,1.0,phase_1,,,,,,,,,,,,,cyan,square
75.0,2.0,2.0,0.0,1.0,1.0,252.9234499670565,3.0,1.0,phase_1,,,,,,,,,,,,,magenta,cross
0.0,3.0,0.0,0.0,1.0,1.0,284.8216870333999,3.0,1.0,phase_1,,,,,,,,,,,,,green,diamond
187.0,3.0,3.0,0.0,2.0,2.0,296.6588940471411,3.0,1.0,phase_1,,,,,,,,,,,,,green,diamond
390.0,4.0,4.0,0.0,3.0,3.0,251.3377889990806,3.0,1.0,phase_1,,,,,,,,,,,,,white,flipped triangle
114.0,2.0,2.0,0.0,2.0,2.0,289.7561070276424,3.0,1.0,phase_1,,,,,,,,,,,,,magenta,cross
76.0,6.0,2.0,1.0,2.0,2.0,271.7166689690202,3.0,1.0,phase_1,,,,,,,,,,,,,blue,I
398.0,4.0,4.0,0.0,2.0,2.0,257.0936710108071,3.0,1.0,phase_1,,,,,,,,,,,,,white,flipped triangle
0.0,6.0,0.0,1.0,2.0,2.0,311.7197609972209,3.0,1.0,phase_1,,,,,,,,,,,,,blue,I
0.0,1.0,0.0,0.0,3.0,3.0,259.3079860089347,3.0,1.0,phase_1,,,,,,,,,,,,,yellow,triangle
59.0,5.0,1.0,1.0,4.0,4.0,279.1082509793341,3.0,1.0,phase_1,,,,,,,,,,,,,gray,circle
204.0,7.0,3.0,1.0,2.0,2.0,245.5041609937325,3.0,1.0,phase_1,,,,,,,,,,,,,cyan,square
398.0,4.0,4.0,0.0,2.0,2.0,274.562209029682,3.0,1.0,phase_1,,,,,,,,,,,,,white,flipped triangle
223.0,7.0,3.0,1.0,1.0,1.0,310.9951480291784,3.0,1.0,phase_1,,,,,,,,,,,,,cyan,square
44.0,1.0,1.0,0.0,4.0,4.0,299.4731649523601,3.0,1.0,phase_1,,,,,,,,,,,,,yellow,triangle
0.0,8.0,0.0,1.0,3.0,3.0,286.6516270441934,3.0,1.0,phase_1,,,,,,,,,,,,,orange,hexagon
189.0,3.0,3.0,0.0,1.0,1.0,262.6690190518275,3.0,1.0,phase_1,,,,,,,,,,,,,green,diamond
0.0,5.0,0.0,1.0,2.0,2.0,306.9321429356932,3.0,1.0,phase_1,,,,,,,,,,,,,gray,circle
397.0,4.0,4.0,0.0,2.0,2.0,332.7334770001471,3.0,1.0,phase_1,,,,,,,,,,,,,white,flipped triangle
0.0,2.0,0.0,0.0,4.0,4.0,261.375498957932,3.0,1.0,phase_1,,,,,,,,,,,,,magenta,cross
182.0,3.0,3.0,0.0,4.0,4.0,301.1658589821309,3.0,2.0,phase_1,,,,,,,,,,,,,green,diamond
219.0,3.0,3.0,0.0,1.0,1.0,306.8098389776423,3.0,1.0,phase_1,,,,,,,,,,,,,green,diamond
197.0,3.0,3.0,0.0,1.0,1.0,332.6384350657463,3.0,1.0,phase_1,,,,,,,,,,,,,green,diamond
0.0,3.0,0.0,0.0,2.0,2.0,265.4681779677048,3.0,1.0,phase_1,,,,,,,,,,,,,green,diamond
413.0,8.0,4.0,1.0,2.0,2.0,270.2385829761624,3.0,1.0,phase_1,,,,,,,,,,,,,orange,hexagon
125.0,6.0,2.0,1.0,4.0,4.0,306.3352500321343,3.0,1.0,phase_1,,,,,,,,,,,,,blue,I
187.0,7.0,3.0,1.0,3.0,3.0,288.6932699475437,3.0,1.0,phase_1,,,,,,,,,,,,,cyan,square
205.0,3.0,3.0,0.0,4.0,4.0,293.3402069611475,3.0,1.0,phase_1,,,,,,,,,,,,,green,diamond
406.0,8.0,4.0,1.0,1.0,1.0,304.817916941829,3.0,1.0,phase_1,,,,,,,,,,,,,orange,hexagon
418.0,8.0,4.0,1.0,1.0,1.0,277.5835930369794,3.0,1.0,phase_1,,,,,,,,,,,,,orange,hexagon
0.0,1.0,0.0,0.0,3.0,3.0,258.414780953899,3.0,1.0,phase_1,,,,,,,,,,,,,yellow,triangle
45.0,1.0,1.0,0.0,3.0,3.0,294.3967010360211,3.0,1.0,phase_1,,,,,,,,,,,,,yellow,triangle
0.0,8.0,0.0,1.0,4.0,4.0,293.1593829998746,3.0,1.0,phase_1,,,,,,,,,,,,,orange,hexagon
120.0,2.0,2.0,0.0,3.0,3.0,273.789226077497,3.0,1.0,phase_1,,,,,,,,,,,,,magenta,cross
0.0,3.0,0.0,0.0,3.0,3.0,271.2072620633989,3.0,1.0,phase_1,,,,,,,,,,,,,green,diamond
0.0,6.0,0.0,1.0,4.0,4.0,329.837606055662,3.0,1.0,phase_1,,,,,,,,,,,,,blue,I
0.0,3.0,0.0,0.0,4.0,4.0,336.6967539768666,3.0,1.0,phase_1,,,,,,,,,,,,,green,diamond
223.0,3.0,3.0,0.0,1.0,1.0,323.3746379846707,3.0,1.0,phase_1,,,,,,,,,,,,,green,diamond
89.0,2.0,2.0,0.0,1.0,1.0,304.7744759824127,3.0,1.0,phase_1,,,,,,,,,,,,,magenta,cross
88.0,6.0,2.0,1.0,1.0,1.0,301.7827270086854,3.0,1.0,phase_1,,,,,,,,,,,,,blue,I
204.0,7.0,3.0,1.0,1.0,1.0,528.3745680935681,3.0,1.0,phase_1,,,,,,,,,,,,,cyan,square
0.0,4.0,0.0,0.0,4.0,4.0,353.1821840442717,3.0,1.0,phase_1,,,,,,,,,,,,,white,flipped triangle
378.0,8.0,4.0,1.0,1.0,1.0,339.8015960119664,3.0,1.0,phase_1,,,,,,,,,,,,,orange,hexagon
0.0,3.0,0.0,0.0,2.0,2.0,353.723919019103,3.0,1.0,phase_1,,,,,,,,,,,,,green,diamond
197.0,7.0,3.0,1.0,4.0,4.0,299.981232965365,3.0,1.0,phase_1,,,,,,,,,,,,,cyan,square
404.0,4.0,4.0,0.0,1.0,1.0,335.2267208974808,4.0,1.0,phase_1,,,,,,,,,,,,,white,flipped triangle
119.0,6.0,2.0,1.0,1.0,1.0,286.0866910777986,4.0,1.0,phase_1,,,,,,,,,,,,,blue,I
0.0,3.0,0.0,0.0,1.0,1.0,258.0015501007437,4.0,1.0,phase_1,,,,,,,,,,,,,green,diamond
376.0,8.0,4.0,1.0,4.0,4.0,278.6887320689857,4.0,1.0,phase_1,,,,,,,,,,,,,orange,hexagon
77.0,6.0,2.0,1.0,1.0,1.0,266.9533309526741,4.0,1.0,phase_1,,,,,,,,,,,,,blue,I
191.0,3.0,3.0,0.0,3.0,3.0,254.5705339871347,4.0,1.0,phase_1,,,,,,,,,,,,,green,diamond
93.0,2.0,2.0,0.0,1.0,1.0,244.421960087493,4.0,1.0,phase_1,,,,,,,,,,,,,magenta,cross
105.0,2.0,2.0,0.0,1.0,1.0,264.0603850595653,4.0,1.0,phase_1,,,,,,,,,,,,,magenta,cross
417.0,4.0,4.0,0.0,4.0,4.0,259.7619229927659,4.0,1.0,phase_1,,,,,,,,,,,,,white,flipped triangle
211.0,7.0,3.0,1.0,4.0,4.0,256.6198150161654,4.0,1.0,phase_1,,,,,,,,,,,,,cyan,square
0.0,3.0,0.0,0.0,3.0,3.0,249.0803379332646,4.0,1.0,phase_1,,,,,,,,,,,,,green,diamond
0.0,6.0,0.0,1.0,1.0,1.0,276.9675189629197,4.0,1.0,phase_1,,,,,,,,,,,,,blue,I
202.0,7.0,3.0,1.0,2.0,2.0,297.547556925565,4.0,1.0,phase_1,,,,,,,,,,,,,cyan,square
50.0,5.0,1.0,1.0,4.0,4.0,260.4311800096184,4.0,1.0,phase_1,,,,,,,,,,,,,gray,circle
206.0,3.0,3.0,0.0,2.0,2.0,280.8361840434372,4.0,1.0,phase_1,,,,,,,,,,,,,green,diamond
378.0,4.0,4.0,0.0,3.0,3.0,284.6764319110662,4.0,1.0,phase_1,,,,,,,,,,,,,white,flipped triangle
97.0,6.0,2.0,1.0,2.0,2.0,325.2364920917898,4.0,1.0,phase_1,,,,,,,,,,,,,blue,I
0.0,1.0,0.0,0.0,1.0,1.0,288.9227150008082,4.0,1.0,phase_1,,,,,,,,,,,,,yellow,triangle
51.0,1.0,1.0,0.0,2.0,2.0,245.3535869717598,4.0,1.0,phase_1,,,,,,,,,,,,,yellow,triangle
27.0,1.0,1.0,0.0,4.0,4.0,266.513408976607,4.0,1.0,phase_1,,,,,,,,,,,,,yellow,triangle
34.0,5.0,1.0,1.0,2.0,2.0,326.6369290649891,4.0,1.0,phase_1,,,,,,,,,,,,,gray,circle
55.0,5.0,1.0,1.0,4.0,4.0,284.3531019752845,4.0,1.0,phase_1,,,,,,,,,,,,,gray,circle
196.0,7.0,3.0,1.0,2.0,2.0,255.65738999284798,4.0,1.0,phase_1,,,,,,,,,,,,,cyan,square
93.0,2.0,2.0,0.0,3.0,3.0,307.0833119563758,4.0,1.0,phase_1,,,,,,,,,,,,,magenta,cross
0.0,8.0,0.0,1.0,3.0,3.0,366.0331889986992,4.0,2.0,phase_1,,,,,,,,,,,,,orange,hexagon
50.0,1.0,1.0,0.0,2.0,2.0,304.0782730095088,4.0,1.0,phase_1,,,,,,,,,,,,,yellow,triangle
390.0,4.0,4.0,0.0,1.0,1.0,316.5441930759698,4.0,1.0,phase_1,,,,,,,,,,,,,white,flipped triangle
410.0,8.0,4.0,1.0,2.0,2.0,325.3178719896823,4.0,1.0,phase_1,,,,,,,,,,,,,orange,hexagon
87.0,6.0,2.0,1.0,3.0,3.0,287.0817090151831,4.0,1.0,phase_1,,,,,,,,,,,,,blue,I
182.0,3.0,3.0,0.0,4.0,4.0,507.79700092971325,4.0,1.0,phase_1,,,,,,,,,,,,,green,diamond
106.0,6.0,2.0,1.0,3.0,3.0,311.4923989633098,4.0,1.0,phase_1,,,,,,,,,,,,,blue,I
0.0,6.0,0.0,1.0,2.0,2.0,269.0378729021176,4.0,1.0,phase_1,,,,,,,,,,,,,blue,I
0.0,1.0,0.0,0.0,3.0,3.0,235.6201179791242,4.0,1.0,phase_1,,,,,,,,,,,,,yellow,triangle
122.0,2.0,2.0,0.0,4.0,4.0,281.4275959972292,4.0,1.0,phase_1,,,,,,,,,,,,,magenta,cross
80.0,6.0,2.0,1.0,1.0,1.0,301.1802500113845,4.0,1.0,phase_1,,,,,,,,,,,,,blue,I
92.0,2.0,2.0,0.0,1.0,1.0,296.2397179799154,4.0,1.0,phase_1,,,,,,,,,,,,,magenta,cross
0.0,5.0,0.0,1.0,1.0,1.0,319.8080700822174,4.0,1.0,phase_1,,,,,,,,,,,,,gray,circle
0.0,5.0,0.0,1.0,1.0,1.0,313.7584220385179,4.0,1.0,phase_1,,,,,,,,,,,,,gray,circle
380.0,4.0,4.0,0.0,3.0,3.0,301.3049460714683,4.0,1.0,phase_1,,,,,,,,,,,,,white,flipped triangle
197.0,7.0,3.0,1.0,2.0,2.0,298.849027021788,4.0,1.0,phase_1,,,,,,,,,,,,,cyan,square
88.0,2.0,2.0,0.0,1.0,1.0,280.4266210878268,4.0,1.0,phase_1,,,,,,,,,,,,,magenta,cross
47.0,5.0,1.0,1.0,4.0,4.0,323.4308819519356,4.0,1.0,phase_1,,,,,,,,,,,,,gray,circle
0.0,5.0,0.0,1.0,1.0,1.0,314.7237489465624,4.0,1.0,phase_1,,,,,,,,,,,,,gray,circle
0.0,7.0,0.0,1.0,1.0,1.0,319.8962890310213,4.0,1.0,phase_1,,,,,,,,,,,,,cyan,square
201.0,3.0,3.0,0.0,4.0,4.0,308.3815929712727,4.0,1.0,phase_1,,,,,,,,,,,,,green,diamond
410.0,4.0,4.0,0.0,4.0,4.0,286.5015739807859,4.0,1.0,phase_1,,,,,,,,,,,,,white,flipped triangle
103.0,2.0,2.0,0.0,3.0,3.0,273.462553974241,4.0,2.0,phase_1,,,,,,,,,,,,,magenta,cross
64.0,1.0,1.0,0.0,2.0,2.0,299.6054490795359,4.0,1.0,phase_1,,,,,,,,,,,,,yellow,triangle
52.0,5.0,1.0,1.0,2.0,2.0,299.0358929382637,4.0,1.0,phase_1,,,,,,,,,,,,,gray,circle
31.0,5.0,1.0,1.0,2.0,2.0,311.079014907591,4.0,1.0,phase_1,,,,,,,,,,,,,gray,circle
62.0,1.0,1.0,0.0,1.0,1.0,315.1769419200718,4.0,1.0,phase_1,,,,,,,,,,,,,yellow,triangle
390.0,4.0,4.0,0.0,3.0,3.0,278.9521180093288,4.0,1.0,phase_1,,,,,,,,,,,,,white,flipped triangle
383.0,4.0,4.0,0.0,1.0,1.0,307.5520109850913,4.0,1.0,phase_1,,,,,,,,,,,,,white,flipped triangle
389.0,4.0,4.0,0.0,4.0,4.0,335.9599999384954,4.0,1.0,phase_1,,,,,,,,,,,,,white,flipped triangle
0.0,6.0,0.0,1.0,4.0,4.0,311.2255180021748,4.0,1.0,phase_1,,,,,,,,,,,,,blue,I
98.0,2.0,2.0,0.0,1.0,1.0,323.764129076153,4.0,1.0,phase_1,,,,,,,,,,,,,magenta,cross
216.0,7.0,3.0,1.0,4.0,4.0,290.0963290594518,4.0,1.0,phase_1,,,,,,,,,,,,,cyan,square
66.0,1.0,1.0,0.0,1.0,1.0,333.0829000333324,4.0,1.0,phase_1,,,,,,,,,,,,,yellow,triangle
116.0,6.0,2.0,1.0,2.0,2.0,337.8843620885163,4.0,1.0,phase_1,,,,,,,,,,,,,blue,I
48.0,1.0,1.0,0.0,4.0,4.0,326.4791799010709,4.0,1.0,phase_1,,,,,,,,,,,,,yellow,triangle
70.0,5.0,1.0,1.0,2.0,2.0,324.6331620030105,4.0,1.0,phase_1,,,,,,,,,,,,,gray,circle
0.0,7.0,0.0,1.0,4.0,4.0,327.6058880146593,4.0,1.0,phase_1,,,,,,,,,,,,,cyan,square
422.0,4.0,4.0,0.0,1.0,1.0,313.9803509693593,4.0,1.0,phase_1,,,,,,,,,,,,,white,flipped triangle
419.0,4.0,4.0,0.0,2.0,2.0,314.8531169863418,4.0,1.0,phase_1,,,,,,,,,,,,,white,flipped triangle
201.0,3.0,3.0,0.0,3.0,3.0,300.6967810215428,4.0,1.0,phase_1,,,,,,,,,,,,,green,diamond
25.0,1.0,1.0,0.0,4.0,4.0,314.4893159624189,4.0,1.0,phase_1,,,,,,,,,,,,,yellow,triangle
178.0,7.0,3.0,1.0,2.0,2.0,295.3073970275,4.0,1.0,phase_1,,,,,,,,,,,,,cyan,square
77.0,2.0,2.0,0.0,4.0,4.0,282.8137690667063,4.0,1.0,phase_1,,,,,,,,,,,,,magenta,cross
406.0,4.0,4.0,0.0,4.0,4.0,273.604522109963,4.0,1.0,phase_1,,,,,,,,,,,,,white,flipped triangle
189.0,7.0,3.0,1.0,1.0,1.0,300.7068870356306,4.0,1.0,phase_1,,,,,,,,,,,,,cyan,square
389.0,4.0,4.0,0.0,1.0,1.0,330.3865799680352,4.0,1.0,phase_1,,,,,,,,,,,,,white,flipped triangle
62.0,5.0,1.0,1.0,1.0,1.0,311.1990879988298,4.0,1.0,phase_1,,,,,,,,,,,,,gray,circle
224.0,3.0,3.0,0.0,4.0,4.0,299.5642870664596,4.0,1.0,phase_1,,,,,,,,,,,,,green,diamond
390.0,8.0,4.0,1.0,3.0,3.0,280.0863410811871,4.0,1.0,phase_1,,,,,,,,,,,,,orange,hexagon
0.0,4.0,0.0,0.0,3.0,3.0,268.6633581761271,4.0,1.0,phase_1,,,,,,,,,,,,,white,flipped triangle
97.0,2.0,2.0,0.0,2.0,2.0,289.6098960191011,4.0,1.0,phase_1,,,,,,,,,,,,,magenta,cross
420.0,4.0,4.0,0.0,4.0,4.0,338.9022760093212,4.0,2.0,phase_1,,,,,,,,,,,,,white,flipped triangle
406.0,4.0,4.0,0.0,1.0,1.0,326.070980168879,4.0,1.0,phase_1,,,,,,,,,,,,,white,flipped triangle
0.0,1.0,0.0,0.0,1.0,1.0,330.99145302549,4.0,1.0,phase_1,,,,,,,,,,,,,yellow,triangle
182.0,7.0,3.0,1.0,1.0,1.0,297.0109551679343,4.0,1.0,phase_1,,,,,,,,,,,,,cyan,square
424.0,8.0,4.0,1.0,1.0,1.0,277.5847911834717,4.0,1.0,phase_1,,,,,,,,,,,,,orange,hexagon
111.0,2.0,2.0,0.0,2.0,2.0,319.6208470035344,4.0,1.0,phase_1,,,,,,,,,,,,,magenta,cross
0.0,1.0,0.0,0.0,2.0,2.0,300.8576091378927,4.0,1.0,phase_1,,,,,,,,,,,,,yellow,triangle
0.0,6.0,0.0,1.0,3.0,3.0,274.4066910818219,4.0,1.0,phase_1,,,,,,,,,,,,,blue,I
179.0,3.0,3.0,0.0,4.0,4.0,316.8563428334892,4.0,2.0,phase_1,,,,,,,,,,,,,green,diamond
0.0,2.0,0.0,0.0,2.0,2.0,311.2045109737664,4.0,1.0,phase_1,,,,,,,,,,,,,magenta,cross
182.0,7.0,3.0,1.0,3.0,3.0,246.3769379537552,4.0,1.0,phase_1,,,,,,,,,,,,,cyan,square
193.0,3.0,3.0,0.0,3.0,3.0,282.7679291367531,4.0,1.0,phase_1,,,,,,,,,,,,,green,diamond
0.0,8.0,0.0,1.0,1.0,1.0,310.2595680393278,4.0,1.0,phase_1,,,,,,,,,,,,,orange,hexagon
0.0,7.0,0.0,1.0,1.0,1.0,348.8430900033563,4.0,1.0,phase_1,,,,,,,,,,,,,cyan,square
53.0,5.0,1.0,1.0,1.0,1.0,369.5242060348391,4.0,1.0,phase_1,,,,,,,,,,,,,gray,circle
46.0,5.0,1.0,1.0,2.0,2.0,333.6326389107853,4.0,1.0,phase_1,,,,,,,,,,,,,gray,circle
93.0,2.0,2.0,0.0,1.0,1.0,304.7706878278404,4.0,1.0,phase_1,,,,,,,,,,,,,magenta,cross
44.0,5.0,1.0,1.0,4.0,4.0,336.0779271461069,4.0,1.0,phase_1,,,,,,,,,,,,,gray,circle
419.0,8.0,4.0,1.0,1.0,1.0,338.1770059932023,4.0,1.0,phase_1,,,,,,,,,,,,,orange,hexagon
38.0,5.0,1.0,1.0,1.0,1.0,322.2090469207614,4.0,1.0,phase_1,,,,,,,,,,,,,gray,circle
224.0,7.0,3.0,1.0,2.0,2.0,325.4715919028967,4.0,1.0,phase_1,,,,,,,,,,,,,cyan,square
384.0,8.0,4.0,1.0,3.0,3.0,312.9350189119577,4.0,1.0,phase_1,,,,,,,,,,,,,orange,hexagon
182.0,7.0,3.0,1.0,2.0,2.0,360.082431929186,4.0,1.0,phase_1,,,,,,,,,,,,,cyan,square
0.0,3.0,0.0,0.0,3.0,3.0,355.0496511161327,4.0,1.0,phase_1,,,,,,,,,,,,,green,diamond
0.0,5.0,1.0,1.0,6.0,6.0,328.478175913915,1.0,1.0,phase_2,go,250.0,250.0,1.0,,,,,,,,,gray,circle
0.0,1.0,1.0,0.0,6.0,6.0,242.4410129897296,1.0,1.0,phase_2,go,250.0,250.0,1.0,,,,,,,,,yellow,triangle
0.0,1.0,1.0,0.0,5.0,5.0,264.1102559864521,1.0,1.0,phase_2,go,250.0,250.0,1.0,,,,,,,,,yellow,triangle
0.0,4.0,4.0,0.0,5.0,5.0,302.2864509839564,1.0,1.0,phase_2,go,250.0,250.0,1.0,,,,,,,,,white,flipped triangle
0.0,4.0,4.0,0.0,5.0,5.0,296.9885901547968,1.0,1.0,phase_2,go,250.0,250.0,1.0,,,,,,,,,white,flipped triangle
0.0,8.0,4.0,1.0,6.0,0.0,0.0,1.0,1.0,phase_2,stop,250.0,250.0,4.0,,,,,,,,,orange,hexagon
0.0,6.0,2.0,1.0,6.0,6.0,279.4976260047406,1.0,1.0,phase_2,stop,250.0,300.0,3.0,,,,,,,,,blue,I
0.0,3.0,3.0,0.0,6.0,6.0,324.5655000209808,1.0,1.0,phase_2,go,250.0,250.0,1.0,,,,,,,,,green,diamond
0.0,1.0,1.0,0.0,6.0,6.0,253.55425896123052,1.0,1.0,phase_2,go,250.0,250.0,1.0,,,,,,,,,yellow,triangle
0.0,5.0,1.0,1.0,5.0,5.0,300.1959789544344,1.0,1.0,phase_2,stop,250.0,250.0,3.0,,,,,,,,,gray,circle
0.0,7.0,3.0,1.0,5.0,5.0,341.0812059883028,1.0,1.0,phase_2,stop,200.0,250.0,3.0,,,,,,,,,cyan,square
0.0,2.0,2.0,0.0,5.0,5.0,474.9522069469094,1.0,1.0,phase_2,go,150.0,250.0,1.0,,,,,,,,,magenta,cross
0.0,8.0,4.0,1.0,6.0,6.0,292.0479059685021,1.0,1.0,phase_2,stop,150.0,250.0,3.0,,,,,,,,,orange,hexagon
0.0,6.0,2.0,1.0,5.0,5.0,259.938893141225,1.0,1.0,phase_2,stop,150.0,200.0,3.0,,,,,,,,,blue,I
0.0,2.0,2.0,0.0,6.0,6.0,224.2033861111849,1.0,1.0,phase_2,go,100.0,200.0,1.0,,,,,,,,,magenta,cross
0.0,1.0,1.0,0.0,5.0,5.0,279.969282913953,1.0,1.0,phase_2,go,100.0,200.0,1.0,,,,,,,,,yellow,triangle
0.0,6.0,2.0,1.0,6.0,6.0,279.4810740742832,1.0,1.0,phase_2,stop,100.0,200.0,3.0,,,,,,,,,blue,I
0.0,4.0,4.0,0.0,6.0,6.0,328.9707470685243,1.0,1.0,phase_2,go,100.0,150.0,1.0,,,,,,,,,white,flipped triangle
0.0,2.0,2.0,0.0,5.0,5.0,209.8947691265493,1.0,1.0,phase_2,go,100.0,150.0,1.0,,,,,,,,,magenta,cross
0.0,8.0,4.0,1.0,6.0,6.0,199.6636420954018,1.0,1.0,phase_2,stop,100.0,150.0,3.0,,,,,,,,,orange,hexagon
0.0,5.0,1.0,1.0,5.0,5.0,248.2776429969817,1.0,1.0,phase_2,stop,100.0,100.0,3.0,,,,,,,,,gray,circle
0.0,3.0,3.0,0.0,5.0,5.0,318.5041458345949,1.0,1.0,phase_2,go,50.0,100.0,1.0,,,,,,,,,green,diamond
0.0,1.0,1.0,0.0,6.0,6.0,245.1529700774699,1.0,1.0,phase_2,go,50.0,100.0,1.0,,,,,,,,,yellow,triangle
0.0,6.0,2.0,1.0,5.0,5.0,238.4113660082221,1.0,1.0,phase_2,stop,50.0,100.0,3.0,,,,,,,,,blue,I
0.0,6.0,2.0,1.0,5.0,0.0,0.0,1.0,1.0,phase_2,stop,0.0,100.0,4.0,,,,,,,,,blue,I
0.0,5.0,1.0,1.0,6.0,0.0,0.0,1.0,1.0,phase_2,stop,50.0,100.0,4.0,,,,,,,,,gray,circle
0.0,4.0,4.0,0.0,6.0,6.0,340.8467802219093,1.0,1.0,phase_2,go,50.0,150.0,1.0,,,,,,,,,white,flipped triangle
0.0,5.0,1.0,1.0,5.0,5.0,235.6787819880992,1.0,1.0,phase_2,stop,50.0,150.0,3.0,,,,,,,,,gray,circle
0.0,8.0,4.0,1.0,5.0,5.0,465.359766036272,1.0,1.0,phase_2,go,0.0,150.0,1.0,,,,,,,,,orange,hexagon
0.0,4.0,4.0,0.0,5.0,5.0,312.189880060032,1.0,1.0,phase_2,go,0.0,150.0,1.0,,,,,,,,,white,flipped triangle
0.0,6.0,2.0,1.0,6.0,6.0,308.1857010256499,1.0,1.0,phase_2,stop,0.0,150.0,3.0,,,,,,,,,blue,I
0.0,4.0,4.0,0.0,6.0,6.0,345.5899930559098,1.0,1.0,phase_2,go,0.0,100.0,1.0,,,,,,,,,white,flipped triangle
0.0,6.0,2.0,1.0,6.0,6.0,313.6964489240199,1.0,1.0,phase_2,stop,0.0,100.0,3.0,,,,,,,,,blue,I
0.0,3.0,3.0,0.0,6.0,6.0,421.7049598228186,1.0,1.0,phase_2,go,0.0,50.0,1.0,,,,,,,,,green,diamond
0.0,1.0,1.0,0.0,5.0,5.0,406.1994771473109,1.0,1.0,phase_2,go,0.0,50.0,1.0,,,,,,,,,yellow,triangle
0.0,6.0,2.0,1.0,5.0,5.0,343.4763888362795,1.0,1.0,phase_2,go,0.0,50.0,1.0,,,,,,,,,blue,I
0.0,8.0,4.0,1.0,6.0,0.0,0.0,2.0,1.0,phase_2,stop,0.0,50.0,4.0,,,,,,,,,orange,hexagon
0.0,5.0,1.0,1.0,6.0,0.0,0.0,2.0,1.0,phase_2,stop,0.0,100.0,4.0,,,,,,,,,gray,circle
0.0,1.0,1.0,0.0,6.0,6.0,318.007773021236,2.0,1.0,phase_2,go,0.0,150.0,1.0,,,,,,,,,yellow,triangle
0.0,6.0,2.0,1.0,6.0,6.0,340.5128759332001,2.0,1.0,phase_2,go,0.0,150.0,1.0,,,,,,,,,blue,I
0.0,8.0,4.0,1.0,5.0,5.0,453.2196361105889,2.0,1.0,phase_2,stop,0.0,150.0,3.0,,,,,,,,,orange,hexagon
0.0,7.0,3.0,1.0,5.0,5.0,485.7522759120911,2.0,1.0,phase_2,go,0.0,150.0,1.0,,,,,,,,,cyan,square
0.0,7.0,3.0,1.0,6.0,0.0,0.0,2.0,1.0,phase_2,stop,0.0,150.0,4.0,,,,,,,,,cyan,square
0.0,3.0,3.0,0.0,6.0,6.0,450.4732189234346,2.0,1.0,phase_2,go,0.0,200.0,1.0,,,,,,,,,green,diamond
0.0,7.0,3.0,1.0,5.0,5.0,367.6394720096141,2.0,1.0,phase_2,go,0.0,200.0,1.0,,,,,,,,,cyan,square
0.0,6.0,2.0,1.0,6.0,6.0,385.9596529509872,2.0,1.0,phase_2,stop,0.0,200.0,3.0,,,,,,,,,blue,I
0.0,4.0,4.0,0.0,5.0,5.0,280.7544108945876,2.0,1.0,phase_2,go,0.0,150.0,1.0,,,,,,,,,white,flipped triangle
0.0,7.0,3.0,1.0,5.0,0.0,0.0,2.0,1.0,phase_2,stop,0.0,150.0,4.0,,,,,,,,,cyan,square
0.0,6.0,2.0,1.0,6.0,0.0,0.0,2.0,1.0,phase_2,stop,50.0,150.0,4.0,,,,,,,,,blue,I
0.0,1.0,1.0,0.0,5.0,5.0,400.9938649833202,2.0,1.0,phase_2,go,50.0,200.0,1.0,,,,,,,,,yellow,triangle
0.0,6.0,2.0,1.0,5.0,0.0,0.0,2.0,1.0,phase_2,stop,50.0,200.0,4.0,,,,,,,,,blue,I
0.0,8.0,4.0,1.0,6.0,0.0,0.0,2.0,1.0,phase_2,stop,100.0,200.0,4.0,,,,,,,,,orange,hexagon
0.0,3.0,3.0,0.0,6.0,6.0,486.6772820241749,2.0,1.0,phase_2,go,100.0,250.0,1.0,,,,,,,,,green,diamond
0.0,5.0,1.0,1.0,6.0,6.0,499.9209230300039,2.0,1.0,phase_2,go,100.0,250.0,1.0,,,,,,,,,gray,circle
0.0,8.0,4.0,1.0,5.0,0.0,0.0,2.0,1.0,phase_2,stop,100.0,250.0,4.0,,,,,,,,,orange,hexagon
0.0,6.0,2.0,1.0,5.0,0.0,0.0,2.0,1.0,phase_2,stop,150.0,250.0,4.0,,,,,,,,,blue,I
0.0,2.0,2.0,0.0,5.0,5.0,451.7917239572853,2.0,1.0,phase_2,go,200.0,250.0,1.0,,,,,,,,,magenta,cross
0.0,7.0,3.0,1.0,6.0,6.0,364.0878549776971,2.0,1.0,phase_2,go,200.0,250.0,1.0,,,,,,,,,cyan,square
0.0,8.0,4.0,1.0,5.0,0.0,0.0,2.0,1.0,phase_2,stop,200.0,250.0,4.0,,,,,,,,,orange,hexagon
0.0,3.0,3.0,0.0,6.0,6.0,351.717391051352,2.0,1.0,phase_2,go,250.0,250.0,1.0,,,,,,,,,green,diamond
0.0,4.0,4.0,0.0,5.0,5.0,475.3587720915675,2.0,1.0,phase_2,go,250.0,250.0,1.0,,,,,,,,,white,flipped triangle
0.0,4.0,4.0,0.0,5.0,5.0,367.0794770587235,2.0,1.0,phase_2,go,250.0,250.0,1.0,,,,,,,,,white,flipped triangle
0.0,8.0,4.0,1.0,6.0,6.0,334.1729249805212,2.0,1.0,phase_2,stop,250.0,250.0,3.0,,,,,,,,,orange,hexagon
0.0,4.0,4.0,0.0,6.0,6.0,469.6301440708339,2.0,1.0,phase_2,go,250.0,200.0,1.0,,,,,,,,,white,flipped triangle
0.0,3.0,3.0,0.0,5.0,5.0,397.5252960808575,2.0,1.0,phase_2,go,250.0,200.0,1.0,,,,,,,,,green,diamond
0.0,6.0,2.0,1.0,5.0,0.0,0.0,2.0,1.0,phase_2,stop,250.0,200.0,4.0,,,,,,,,,blue,I
0.0,3.0,3.0,0.0,6.0,6.0,428.956049028784,2.0,1.0,phase_2,go,300.0,200.0,1.0,,,,,,,,,green,diamond
0.0,5.0,1.0,1.0,5.0,5.0,419.0477291122079,2.0,1.0,phase_2,stop,300.0,200.0,3.0,,,,,,,,,gray,circle
0.0,2.0,2.0,0.0,5.0,5.0,405.4984450340271,2.0,1.0,phase_2,go,250.0,200.0,1.0,,,,,,,,,magenta,cross
0.0,1.0,1.0,0.0,5.0,5.0,538.013428915292,2.0,1.0,phase_2,go,250.0,200.0,1.0,,,,,,,,,yellow,triangle
0.0,1.0,1.0,0.0,6.0,6.0,506.4497690182179,2.0,1.0,phase_2,go,250.0,200.0,1.0,,,,,,,,,yellow,triangle
0.0,8.0,4.0,1.0,6.0,0.0,0.0,2.0,1.0,phase_2,stop,250.0,200.0,4.0,,,,,,,,,orange,hexagon
0.0,4.0,4.0,0.0,5.0,5.0,425.4892340395599,3.0,1.0,phase_2,go,250.0,250.0,1.0,,,,,,,,,white,flipped triangle
0.0,3.0,3.0,0.0,5.0,5.0,352.1115609910339,3.0,1.0,phase_2,go,250.0,250.0,1.0,,,,,,,,,green,diamond
0.0,3.0,3.0,0.0,5.0,5.0,360.6573711149394,3.0,1.0,phase_2,go,250.0,250.0,1.0,,,,,,,,,green,diamond
0.0,2.0,2.0,0.0,6.0,6.0,354.0673800744116,3.0,1.0,phase_2,go,250.0,250.0,1.0,,,,,,,,,magenta,cross
0.0,2.0,2.0,0.0,6.0,6.0,505.4110719356686,3.0,1.0,phase_2,go,250.0,250.0,1.0,,,,,,,,,magenta,cross
0.0,8.0,4.0,1.0,5.0,5.0,351.9577630795538,3.0,1.0,phase_2,stop,250.0,250.0,3.0,,,,,,,,,orange,hexagon
0.0,5.0,1.0,1.0,6.0,6.0,320.8902780897915,3.0,1.0,phase_2,stop,200.0,250.0,3.0,,,,,,,,,gray,circle
0.0,1.0,1.0,0.0,6.0,6.0,437.6069658901542,3.0,1.0,phase_2,go,200.0,200.0,1.0,,,,,,,,,yellow,triangle
0.0,3.0,3.0,0.0,6.0,6.0,455.3624158725142,3.0,1.0,phase_2,go,200.0,200.0,1.0,,,,,,,,,green,diamond
0.0,8.0,4.0,1.0,5.0,0.0,0.0,3.0,1.0,phase_2,stop,200.0,200.0,4.0,,,,,,,,,orange,hexagon
0.0,6.0,2.0,1.0,5.0,0.0,0.0,3.0,1.0,phase_2,stop,250.0,200.0,4.0,,,,,,,,,blue,I
0.0,5.0,1.0,1.0,5.0,5.0,533.9554361999035,3.0,1.0,phase_2,go,300.0,200.0,1.0,,,,,,,,,gray,circle
0.0,8.0,4.0,1.0,6.0,0.0,0.0,3.0,1.0,phase_2,stop,300.0,200.0,4.0,,,,,,,,,orange,hexagon
0.0,7.0,3.0,1.0,5.0,5.0,417.6818840205669,3.0,1.0,phase_2,stop,300.0,250.0,3.0,,,,,,,,,cyan,square
0.0,2.0,2.0,0.0,6.0,6.0,472.4371030461043,3.0,1.0,phase_2,go,250.0,250.0,1.0,,,,,,,,,magenta,cross
0.0,2.0,2.0,0.0,6.0,6.0,408.9432409964502,3.0,1.0,phase_2,go,250.0,250.0,1.0,,,,,,,,,magenta,cross
0.0,4.0,4.0,0.0,6.0,6.0,431.3140220474452,3.0,1.0,phase_2,go,250.0,250.0,1.0,,,,,,,,,white,flipped triangle
0.0,5.0,1.0,1.0,6.0,0.0,0.0,3.0,1.0,phase_2,stop,250.0,250.0,4.0,,,,,,,,,gray,circle
0.0,2.0,2.0,0.0,6.0,6.0,390.2112198993563,3.0,1.0,phase_2,go,250.0,300.0,1.0,,,,,,,,,magenta,cross
0.0,4.0,4.0,0.0,6.0,6.0,391.8672180734575,3.0,1.0,phase_2,go,250.0,300.0,1.0,,,,,,,,,white,flipped triangle
0.0,5.0,1.0,1.0,6.0,6.0,445.1030970085412,3.0,1.0,phase_2,stop,250.0,300.0,3.0,,,,,,,,,gray,circle
0.0,7.0,3.0,1.0,6.0,0.0,0.0,3.0,1.0,phase_2,stop,250.0,250.0,4.0,,,,,,,,,cyan,square
0.0,2.0,2.0,0.0,6.0,6.0,623.2900491449982,3.0,1.0,phase_2,go,250.0,300.0,1.0,,,,,,,,,magenta,cross
0.0,1.0,1.0,0.0,5.0,5.0,635.5607779696584,3.0,1.0,phase_2,go,250.0,300.0,1.0,,,,,,,,,yellow,triangle
0.0,7.0,3.0,1.0,5.0,0.0,0.0,3.0,1.0,phase_2,stop,250.0,300.0,4.0,,,,,,,,,cyan,square
0.0,1.0,1.0,0.0,6.0,6.0,834.6194778569043,3.0,1.0,phase_2,go,300.0,300.0,1.0,,,,,,,,,yellow,triangle
0.0,2.0,2.0,0.0,5.0,5.0,860.434410860762,3.0,1.0,phase_2,go,300.0,300.0,1.0,,,,,,,,,magenta,cross
0.0,7.0,3.0,1.0,6.0,0.0,0.0,3.0,1.0,phase_2,stop,300.0,300.0,4.0,,,,,,,,,cyan,square
0.0,4.0,4.0,0.0,6.0,6.0,649.6947500854731,3.0,1.0,phase_2,go,300.0,350.0,1.0,,,,,,,,,white,flipped triangle
0.0,4.0,4.0,0.0,5.0,5.0,619.4656379520893,3.0,1.0,phase_2,go,300.0,350.0,1.0,,,,,,,,,white,flipped triangle
0.0,2.0,2.0,0.0,5.0,5.0,626.4075231738389,3.0,1.0,phase_2,go,300.0,350.0,1.0,,,,,,,,,magenta,cross
0.0,4.0,4.0,0.0,6.0,6.0,647.9707469698042,3.0,1.0,phase_2,go,300.0,350.0,1.0,,,,,,,,,white,flipped triangle
0.0,2.0,2.0,0.0,6.0,6.0,554.95410785079,3.0,1.0,phase_2,go,300.0,350.0,1.0,,,,,,,,,magenta,cross
0.0,8.0,4.0,1.0,6.0,0.0,0.0,3.0,1.0,phase_2,stop,300.0,350.0,4.0,,,,,,,,,orange,hexagon
0.0,2.0,2.0,0.0,6.0,6.0,545.7117059268057,3.0,1.0,phase_2,go,300.0,400.0,1.0,,,,,,,,,magenta,cross
0.0,4.0,4.0,0.0,6.0,6.0,886.7133529856801,3.0,1.0,phase_2,go,300.0,400.0,1.0,,,,,,,,,white,flipped triangle
0.0,4.0,4.0,0.0,6.0,6.0,530.897282063961,4.0,1.0,phase_2,go,300.0,400.0,1.0,,,,,,,,,white,flipped triangle
0.0,1.0,1.0,0.0,6.0,6.0,652.4048808496445,4.0,1.0,phase_2,go,300.0,400.0,1.0,,,,,,,,,yellow,triangle
0.0,8.0,4.0,1.0,5.0,0.0,0.0,4.0,1.0,phase_2,stop,300.0,400.0,4.0,,,,,,,,,orange,hexagon
0.0,6.0,2.0,1.0,5.0,5.0,809.1759360395372,4.0,1.0,phase_2,go,350.0,400.0,1.0,,,,,,,,,blue,I
0.0,7.0,3.0,1.0,6.0,0.0,0.0,4.0,1.0,phase_2,stop,350.0,400.0,4.0,,,,,,,,,cyan,square
0.0,8.0,4.0,1.0,6.0,0.0,0.0,4.0,1.0,phase_2,stop,350.0,450.0,4.0,,,,,,,,,orange,hexagon
0.0,8.0,4.0,1.0,5.0,5.0,465.63336905092,4.0,1.0,phase_2,go,350.0,500.0,1.0,,,,,,,,,orange,hexagon
0.0,7.0,3.0,1.0,6.0,6.0,495.0006031431258,4.0,1.0,phase_2,stop,350.0,500.0,3.0,,,,,,,,,cyan,square
0.0,6.0,2.0,1.0,6.0,0.0,0.0,4.0,1.0,phase_2,stop,350.0,450.0,4.0,,,,,,,,,blue,I
0.0,8.0,4.0,1.0,5.0,5.0,665.8838200382888,4.0,1.0,phase_2,go,350.0,500.0,1.0,,,,,,,,,orange,hexagon
0.0,6.0,2.0,1.0,5.0,0.0,0.0,4.0,1.0,phase_2,stop,350.0,500.0,4.0,,,,,,,,,blue,I
0.0,1.0,1.0,0.0,5.0,5.0,668.5172708239406,4.0,1.0,phase_2,go,400.0,500.0,1.0,,,,,,,,,yellow,triangle
0.0,4.0,4.0,0.0,6.0,6.0,742.3489380162209,4.0,1.0,phase_2,go,400.0,500.0,1.0,,,,,,,,,white,flipped triangle
0.0,1.0,1.0,0.0,5.0,5.0,804.226438049227,4.0,1.0,phase_2,go,400.0,500.0,1.0,,,,,,,,,yellow,triangle
0.0,1.0,1.0,0.0,5.0,5.0,838.5366909205914,4.0,1.0,phase_2,go,400.0,500.0,1.0,,,,,,,,,yellow,triangle
0.0,8.0,4.0,1.0,6.0,6.0,890.4367580544204,4.0,1.0,phase_2,go,400.0,500.0,1.0,,,,,,,,,orange,hexagon
0.0,4.0,4.0,0.0,5.0,5.0,761.6518090944737,4.0,1.0,phase_2,go,400.0,500.0,1.0,,,,,,,,,white,flipped triangle
0.0,7.0,3.0,1.0,5.0,5.0,962.3977539595217,4.0,1.0,phase_2,go,400.0,500.0,1.0,,,,,,,,,cyan,square
0.0,5.0,1.0,1.0,6.0,0.0,0.0,4.0,1.0,phase_2,stop,400.0,500.0,4.0,,,,,,,,,gray,circle
0.0,6.0,2.0,1.0,6.0,6.0,700.2670110668987,4.0,1.0,phase_2,go,400.0,550.0,1.0,,,,,,,,,blue,I
0.0,1.0,1.0,0.0,5.0,5.0,914.24897685647,4.0,1.0,phase_2,go,400.0,550.0,1.0,,,,,,,,,yellow,triangle
0.0,4.0,4.0,0.0,5.0,5.0,787.2670819051564,4.0,1.0,phase_2,go,400.0,550.0,1.0,,,,,,,,,white,flipped triangle
0.0,7.0,3.0,1.0,5.0,0.0,0.0,4.0,1.0,phase_2,stop,400.0,550.0,4.0,,,,,,,,,cyan,square
0.0,8.0,4.0,1.0,5.0,5.0,566.2312658969313,4.0,1.0,phase_2,go,450.0,550.0,1.0,,,,,,,,,orange,hexagon
0.0,7.0,3.0,1.0,5.0,0.0,0.0,4.0,1.0,phase_2,stop,450.0,550.0,4.0,,,,,,,,,cyan,square
0.0,2.0,2.0,0.0,5.0,5.0,717.1267969533801,4.0,1.0,phase_2,go,500.0,550.0,1.0,,,,,,,,,magenta,cross
0.0,2.0,2.0,0.0,5.0,5.0,687.1093078516424,4.0,1.0,phase_2,go,500.0,550.0,1.0,,,,,,,,,magenta,cross
0.0,8.0,4.0,1.0,5.0,0.0,0.0,4.0,1.0,phase_2,stop,500.0,550.0,4.0,,,,,,,,,orange,hexagon
0.0,6.0,2.0,1.0,5.0,5.0,915.4335400089622,4.0,1.0,phase_2,go,550.0,550.0,1.0,,,,,,,,,blue,I
0.0,7.0,3.0,1.0,5.0,0.0,0.0,4.0,1.0,phase_2,stop,550.0,550.0,4.0,,,,,,,,,cyan,square
0.0,1.0,1.0,0.0,5.0,5.0,730.9581150766462,4.0,1.0,phase_2,go,600.0,550.0,1.0,,,,,,,,,yellow,triangle
0.0,3.0,3.0,0.0,5.0,5.0,922.2874031402172,4.0,1.0,phase_2,go,600.0,550.0,1.0,,,,,,,,,green,diamond
0.0,7.0,3.0,1.0,5.0,0.0,0.0,4.0,1.0,phase_2,stop,600.0,550.0,4.0,,,,,,,,,cyan,square
0.0,6.0,2.0,1.0,6.0,6.0,1067.006231052801,4.0,1.0,phase_2,go,650.0,550.0,1.0,,,,,,,,,blue,I
0.0,7.0,3.0,1.0,6.0,6.0,839.9106971919537,4.0,1.0,phase_2,go,650.0,550.0,1.0,,,,,,,,,cyan,square
0.0,1.0,1.0,0.0,5.0,5.0,824.1508840583265,4.0,1.0,phase_2,go,650.0,550.0,1.0,,,,,,,,,yellow,triangle
0.0,2.0,2.0,0.0,6.0,6.0,359.9314719904214,5.0,1.0,phase_2,go,650.0,550.0,1.0,,,,,,,,,magenta,cross
0.0,1.0,1.0,0.0,5.0,5.0,338.1542910356074,5.0,1.0,phase_2,go,650.0,550.0,1.0,,,,,,,,,yellow,triangle
0.0,8.0,4.0,1.0,6.0,6.0,311.3439348526299,5.0,1.0,phase_2,stop,650.0,550.0,3.0,,,,,,,,,orange,hexagon
0.0,5.0,1.0,1.0,5.0,5.0,457.4458301067352,5.0,1.0,phase_2,stop,650.0,500.0,3.0,,,,,,,,,gray,circle
0.0,7.0,3.0,1.0,6.0,6.0,524.824570864439,5.0,1.0,phase_2,stop,600.0,500.0,3.0,,,,,,,,,cyan,square
0.0,3.0,3.0,0.0,5.0,5.0,613.5680330917239,5.0,1.0,phase_2,go,600.0,450.0,1.0,,,,,,,,,green,diamond
0.0,1.0,1.0,0.0,5.0,5.0,414.6187549922615,5.0,1.0,phase_2,go,600.0,450.0,1.0,,,,,,,,,yellow,triangle
0.0,5.0,1.0,1.0,5.0,5.0,655.0527329090983,5.0,1.0,phase_2,stop,600.0,450.0,3.0,,,,,,,,,gray,circle
0.0,4.0,4.0,0.0,5.0,5.0,471.7635978013277,5.0,1.0,phase_2,go,550.0,450.0,1.0,,,,,,,,,white,flipped triangle
0.0,6.0,2.0,1.0,6.0,6.0,526.5082689002156,5.0,1.0,phase_2,stop,550.0,450.0,3.0,,,,,,,,,blue,I
0.0,4.0,4.0,0.0,6.0,6.0,467.0780419837683,5.0,1.0,phase_2,go,550.0,400.0,1.0,,,,,,,,,white,flipped triangle
0.0,2.0,2.0,0.0,6.0,6.0,572.982775978744,5.0,1.0,phase_2,go,550.0,400.0,1.0,,,,,,,,,magenta,cross
0.0,2.0,2.0,0.0,5.0,5.0,393.3549008797854,5.0,1.0,phase_2,go,550.0,400.0,1.0,,,,,,,,,magenta,cross
0.0,3.0,3.0,0.0,5.0,5.0,410.9662580303848,5.0,1.0,phase_2,go,550.0,400.0,1.0,,,,,,,,,green,diamond
0.0,1.0,1.0,0.0,6.0,6.0,360.8224729541689,5.0,1.0,phase_2,go,550.0,400.0,1.0,,,,,,,,,yellow,triangle
0.0,8.0,4.0,1.0,5.0,5.0,417.013097088784,5.0,1.0,phase_2,stop,550.0,400.0,3.0,,,,,,,,,orange,hexagon
0.0,6.0,2.0,1.0,5.0,5.0,491.2272121291607,5.0,1.0,phase_2,stop,500.0,400.0,3.0,,,,,,,,,blue,I
0.0,7.0,3.0,1.0,6.0,6.0,335.1752571761608,5.0,1.0,phase_2,stop,450.0,400.0,3.0,,,,,,,,,cyan,square
0.0,5.0,1.0,1.0,6.0,6.0,334.9622879177332,5.0,1.0,phase_2,go,450.0,350.0,1.0,,,,,,,,,gray,circle
0.0,8.0,4.0,1.0,5.0,5.0,574.3255731649697,5.0,1.0,phase_2,stop,450.0,350.0,3.0,,,,,,,,,orange,hexagon
0.0,7.0,3.0,1.0,6.0,0.0,0.0,5.0,1.0,phase_2,stop,400.0,350.0,4.0,,,,,,,,,cyan,square
0.0,3.0,3.0,0.0,6.0,6.0,599.4079201482236,5.0,1.0,phase_2,go,400.0,400.0,1.0,,,,,,,,,green,diamond
0.0,1.0,1.0,0.0,6.0,6.0,910.4123159777372,5.0,1.0,phase_2,go,400.0,400.0,1.0,,,,,,,,,yellow,triangle
0.0,5.0,1.0,1.0,5.0,0.0,0.0,5.0,1.0,phase_2,stop,400.0,400.0,4.0,,,,,,,,,gray,circle
0.0,1.0,1.0,0.0,6.0,6.0,522.7556070312858,5.0,1.0,phase_2,go,450.0,400.0,1.0,,,,,,,,,yellow,triangle
0.0,4.0,4.0,0.0,6.0,6.0,706.565550994128,5.0,1.0,phase_2,go,450.0,400.0,1.0,,,,,,,,,white,flipped triangle
0.0,2.0,2.0,0.0,6.0,6.0,516.5696921758354,5.0,1.0,phase_2,go,450.0,400.0,1.0,,,,,,,,,magenta,cross
0.0,8.0,4.0,1.0,5.0,0.0,0.0,5.0,1.0,phase_2,stop,450.0,400.0,4.0,,,,,,,,,orange,hexagon
0.0,6.0,2.0,1.0,6.0,6.0,362.315122038126,5.0,1.0,phase_2,stop,500.0,400.0,3.0,,,,,,,,,blue,I
0.0,2.0,2.0,0.0,6.0,6.0,560.2107190061361,5.0,1.0,phase_2,go,500.0,350.0,1.0,,,,,,,,,magenta,cross
0.0,7.0,3.0,1.0,5.0,0.0,0.0,5.0,1.0,phase_2,stop,500.0,350.0,4.0,,,,,,,,,cyan,square
0.0,7.0,3.0,1.0,6.0,0.0,0.0,5.0,1.0,phase_2,stop,550.0,350.0,4.0,,,,,,,,,cyan,square
0.0,5.0,1.0,1.0,6.0,0.0,0.0,5.0,1.0,phase_2,stop,550.0,400.0,4.0,,,,,,,,,gray,circle
0.0,4.0,4.0,0.0,5.0,5.0,582.3974201921374,5.0,1.0,phase_2,go,550.0,450.0,1.0,,,,,,,,,white,flipped triangle
0.0,4.0,4.0,0.0,5.0,5.0,479.8463771585375,5.0,1.0,phase_2,go,550.0,450.0,1.0,,,,,,,,,white,flipped triangle
0.0,2.0,2.0,0.0,5.0,5.0,677.0319330971688,5.0,1.0,phase_2,go,550.0,450.0,1.0,,,,,,,,,magenta,cross
0.0,2.0,2.0,0.0,5.0,5.0,572.9772089980543,6.0,1.0,phase_2,go,550.0,450.0,1.0,,,,,,,,,magenta,cross
0.0,3.0,3.0,0.0,6.0,6.0,374.3978620041162,6.0,1.0,phase_2,go,550.0,450.0,1.0,,,,,,,,,green,diamond
0.0,6.0,2.0,1.0,5.0,5.0,645.8214169833809,6.0,1.0,phase_2,stop,550.0,450.0,3.0,,,,,,,,,blue,I
0.0,5.0,1.0,1.0,5.0,5.0,462.5402048695832,6.0,1.0,phase_2,stop,500.0,450.0,3.0,,,,,,,,,gray,circle
0.0,4.0,4.0,0.0,5.0,5.0,525.8454598952085,6.0,1.0,phase_2,go,450.0,450.0,1.0,,,,,,,,,white,flipped triangle
0.0,7.0,3.0,1.0,5.0,0.0,0.0,6.0,1.0,phase_2,stop,450.0,450.0,4.0,,,,,,,,,cyan,square
0.0,8.0,4.0,1.0,6.0,6.0,701.6092599369586,6.0,1.0,phase_2,go,500.0,450.0,1.0,,,,,,,,,orange,hexagon
0.0,4.0,4.0,0.0,5.0,5.0,532.1113700047135,6.0,1.0,phase_2,go,500.0,450.0,1.0,,,,,,,,,white,flipped triangle
0.0,2.0,2.0,0.0,5.0,5.0,410.1110240444541,6.0,1.0,phase_2,go,500.0,450.0,1.0,,,,,,,,,magenta,cross
0.0,8.0,4.0,1.0,6.0,6.0,492.0711999293417,6.0,1.0,phase_2,stop,500.0,450.0,3.0,,,,,,,,,orange,hexagon
0.0,4.0,4.0,0.0,6.0,6.0,395.3538951463997,6.0,1.0,phase_2,go,500.0,400.0,1.0,,,,,,,,,white,flipped triangle
0.0,3.0,3.0,0.0,6.0,6.0,639.6291269920766,6.0,1.0,phase_2,go,500.0,400.0,1.0,,,,,,,,,green,diamond
0.0,3.0,3.0,0.0,5.0,5.0,456.7217510193586,6.0,1.0,phase_2,go,500.0,400.0,1.0,,,,,,,,,green,diamond
0.0,2.0,2.0,0.0,6.0,6.0,663.132410030812,6.0,1.0,phase_2,go,500.0,400.0,1.0,,,,,,,,,magenta,cross
0.0,6.0,2.0,1.0,5.0,0.0,0.0,6.0,1.0,phase_2,stop,500.0,400.0,4.0,,,,,,,,,blue,I
0.0,3.0,3.0,0.0,5.0,5.0,436.8490281049162,6.0,1.0,phase_2,go,550.0,400.0,1.0,,,,,,,,,green,diamond
0.0,4.0,4.0,0.0,5.0,5.0,488.3895879611373,6.0,1.0,phase_2,go,550.0,400.0,1.0,,,,,,,,,white,flipped triangle
0.0,7.0,3.0,1.0,5.0,5.0,342.9486211389303,6.0,1.0,phase_2,stop,550.0,400.0,3.0,,,,,,,,,cyan,square
0.0,5.0,1.0,1.0,6.0,0.0,0.0,6.0,1.0,phase_2,stop,500.0,400.0,4.0,,,,,,,,,gray,circle
0.0,5.0,1.0,1.0,5.0,5.0,461.5365460049361,6.0,1.0,phase_2,stop,500.0,450.0,3.0,,,,,,,,,gray,circle
0.0,4.0,4.0,0.0,6.0,6.0,572.8956619277596,6.0,1.0,phase_2,go,450.0,450.0,1.0,,,,,,,,,white,flipped triangle
0.0,7.0,3.0,1.0,6.0,0.0,0.0,6.0,1.0,phase_2,stop,450.0,450.0,4.0,,,,,,,,,cyan,square
0.0,5.0,1.0,1.0,5.0,5.0,1076.4353510458022,6.0,1.0,phase_2,go,450.0,500.0,1.0,,,,,,,,,gray,circle
0.0,3.0,3.0,0.0,5.0,5.0,512.9471200052649,6.0,1.0,phase_2,go,450.0,500.0,1.0,,,,,,,,,green,diamond
0.0,5.0,1.0,1.0,6.0,6.0,744.7759960778058,6.0,1.0,phase_2,go,450.0,500.0,1.0,,,,,,,,,gray,circle
0.0,3.0,3.0,0.0,6.0,6.0,545.7762328442186,6.0,1.0,phase_2,go,450.0,500.0,1.0,,,,,,,,,green,diamond
0.0,5.0,1.0,1.0,5.0,0.0,0.0,6.0,1.0,phase_2,stop,450.0,500.0,4.0,,,,,,,,,gray,circle
0.0,2.0,2.0,0.0,5.0,5.0,422.7887480519712,6.0,1.0,phase_2,go,500.0,500.0,1.0,,,,,,,,,magenta,cross
0.0,2.0,2.0,0.0,5.0,5.0,470.7433599978685,6.0,1.0,phase_2,go,500.0,500.0,1.0,,,,,,,,,magenta,cross
0.0,2.0,2.0,0.0,5.0,5.0,437.1723709627986,6.0,1.0,phase_2,go,500.0,500.0,1.0,,,,,,,,,magenta,cross
0.0,3.0,3.0,0.0,5.0,5.0,351.958367973566,6.0,1.0,phase_2,go,500.0,500.0,1.0,,,,,,,,,green,diamond
0.0,7.0,3.0,1.0,6.0,6.0,765.0317130610347,6.0,1.0,phase_2,go,500.0,500.0,1.0,,,,,,,,,cyan,square
0.0,5.0,1.0,1.0,6.0,6.0,347.7722110692411,6.0,1.0,phase_2,stop,500.0,500.0,3.0,,,,,,,,,gray,circle
0.0,3.0,3.0,0.0,6.0,6.0,330.734607996419,6.0,1.0,phase_2,go,500.0,450.0,1.0,,,,,,,,,green,diamond
0.0,1.0,1.0,0.0,5.0,5.0,398.5378069337457,6.0,1.0,phase_2,go,500.0,450.0,1.0,,,,,,,,,yellow,triangle
0.0,2.0,2.0,0.0,6.0,6.0,501.3227020390332,6.0,1.0,phase_2,go,500.0,450.0,1.0,,,,,,,,,magenta,cross
0.0,6.0,2.0,1.0,6.0,6.0,333.3762311376631,7.0,1.0,phase_2,stop,500.0,450.0,3.0,,,,,,,,,blue,I
0.0,7.0,3.0,1.0,6.0,6.0,568.0946491193026,7.0,1.0,phase_2,go,500.0,400.0,1.0,,,,,,,,,cyan,square
0.0,5.0,1.0,1.0,5.0,5.0,324.2164240218699,7.0,1.0,phase_2,stop,500.0,400.0,3.0,,,,,,,,,gray,circle
0.0,2.0,2.0,0.0,6.0,6.0,501.92912318743765,7.0,1.0,phase_2,go,450.0,400.0,1.0,,,,,,,,,magenta,cross
0.0,8.0,4.0,1.0,5.0,5.0,435.363139025867,7.0,1.0,phase_2,stop,450.0,400.0,3.0,,,,,,,,,orange,hexagon
0.0,1.0,1.0,0.0,5.0,5.0,541.4515470620245,7.0,1.0,phase_2,go,400.0,400.0,1.0,,,,,,,,,yellow,triangle
0.0,2.0,2.0,0.0,5.0,5.0,530.8756621088833,7.0,1.0,phase_2,go,400.0,400.0,1.0,,,,,,,,,magenta,cross
0.0,8.0,4.0,1.0,6.0,6.0,449.6220420114696,7.0,1.0,phase_2,go,400.0,400.0,1.0,,,,,,,,,orange,hexagon
0.0,5.0,1.0,1.0,6.0,0.0,0.0,7.0,1.0,phase_2,stop,400.0,400.0,4.0,,,,,,,,,gray,circle
0.0,6.0,2.0,1.0,6.0,0.0,0.0,7.0,1.0,phase_2,stop,400.0,450.0,4.0,,,,,,,,,blue,I
0.0,5.0,1.0,1.0,5.0,0.0,0.0,7.0,1.0,phase_2,stop,400.0,500.0,4.0,,,,,,,,,gray,circle
0.0,6.0,2.0,1.0,5.0,5.0,1014.7153320722282,7.0,1.0,phase_2,go,450.0,500.0,1.0,,,,,,,,,blue,I
0.0,5.0,1.0,1.0,5.0,5.0,846.240262966603,7.0,1.0,phase_2,go,450.0,500.0,1.0,,,,,,,,,gray,circle
0.0,6.0,2.0,1.0,6.0,0.0,0.0,7.0,1.0,phase_2,stop,450.0,500.0,4.0,,,,,,,,,blue,I
0.0,8.0,4.0,1.0,5.0,5.0,533.7259757798165,7.0,1.0,phase_2,stop,450.0,550.0,3.0,,,,,,,,,orange,hexagon
0.0,1.0,1.0,0.0,5.0,5.0,540.453288005665,7.0,1.0,phase_2,go,400.0,550.0,1.0,,,,,,,,,yellow,triangle
0.0,4.0,4.0,0.0,5.0,5.0,635.7637250330299,7.0,1.0,phase_2,go,400.0,550.0,1.0,,,,,,,,,white,flipped triangle
0.0,5.0,1.0,1.0,6.0,0.0,0.0,7.0,1.0,phase_2,stop,400.0,550.0,4.0,,,,,,,,,gray,circle
0.0,7.0,3.0,1.0,6.0,0.0,0.0,7.0,1.0,phase_2,stop,400.0,600.0,4.0,,,,,,,,,cyan,square
0.0,6.0,2.0,1.0,5.0,5.0,930.2261488046496,7.0,1.0,phase_2,go,400.0,650.0,1.0,,,,,,,,,blue,I
0.0,3.0,3.0,0.0,5.0,5.0,588.0186930298805,7.0,1.0,phase_2,go,400.0,650.0,1.0,,,,,,,,,green,diamond
0.0,1.0,1.0,0.0,6.0,6.0,545.2893029432744,7.0,1.0,phase_2,go,400.0,650.0,1.0,,,,,,,,,yellow,triangle
0.0,6.0,2.0,1.0,6.0,0.0,0.0,7.0,1.0,phase_2,stop,400.0,650.0,4.0,,,,,,,,,blue,I
0.0,2.0,2.0,0.0,5.0,5.0,482.9626202117651,7.0,1.0,phase_2,go,400.0,700.0,1.0,,,,,,,,,magenta,cross
0.0,7.0,3.0,1.0,5.0,0.0,0.0,7.0,1.0,phase_2,stop,400.0,700.0,4.0,,,,,,,,,cyan,square
0.0,7.0,3.0,1.0,6.0,6.0,974.7365959919988,7.0,1.0,phase_2,go,450.0,700.0,1.0,,,,,,,,,cyan,square
0.0,6.0,2.0,1.0,6.0,0.0,0.0,7.0,1.0,phase_2,stop,450.0,700.0,4.0,,,,,,,,,blue,I
0.0,3.0,3.0,0.0,5.0,5.0,582.308345939964,7.0,1.0,phase_2,go,450.0,750.0,1.0,,,,,,,,,green,diamond
0.0,3.0,3.0,0.0,5.0,5.0,447.8222369216382,7.0,1.0,phase_2,go,450.0,750.0,1.0,,,,,,,,,green,diamond
0.0,3.0,3.0,0.0,6.0,6.0,535.9848230145872,7.0,1.0,phase_2,go,450.0,750.0,1.0,,,,,,,,,green,diamond
0.0,1.0,1.0,0.0,6.0,6.0,475.7561590522527,7.0,1.0,phase_2,go,450.0,750.0,1.0,,,,,,,,,yellow,triangle
0.0,2.0,2.0,0.0,6.0,6.0,575.2611320931464,7.0,1.0,phase_2,go,450.0,750.0,1.0,,,,,,,,,magenta,cross
0.0,1.0,1.0,0.0,6.0,6.0,471.0637459065765,7.0,1.0,phase_2,go,450.0,750.0,1.0,,,,,,,,,yellow,triangle
0.0,7.0,3.0,1.0,5.0,0.0,0.0,7.0,1.0,phase_2,stop,450.0,750.0,4.0,,,,,,,,,cyan,square
0.0,3.0,3.0,0.0,5.0,5.0,482.4133738875389,7.0,1.0,phase_2,go,500.0,750.0,1.0,,,,,,,,,green,diamond
0.0,4.0,4.0,0.0,6.0,6.0,516.2565119098872,7.0,1.0,phase_2,go,500.0,750.0,1.0,,,,,,,,,white,flipped triangle
0.0,7.0,3.0,1.0,5.0,5.0,448.0835818685591,8.0,1.0,phase_2,stop,500.0,750.0,3.0,,,,,,,,,cyan,square
0.0,2.0,2.0,0.0,5.0,5.0,455.1982509437948,8.0,1.0,phase_2,go,450.0,750.0,1.0,,,,,,,,,magenta,cross
0.0,2.0,2.0,0.0,6.0,6.0,519.7431140113622,8.0,1.0,phase_2,go,450.0,750.0,1.0,,,,,,,,,magenta,cross
0.0,8.0,4.0,1.0,5.0,5.0,525.2693220973015,8.0,1.0,phase_2,go,450.0,750.0,1.0,,,,,,,,,orange,hexagon
0.0,8.0,4.0,1.0,6.0,6.0,588.954868959263,8.0,1.0,phase_2,stop,450.0,750.0,3.0,,,,,,,,,orange,hexagon
0.0,6.0,2.0,1.0,6.0,0.0,0.0,8.0,1.0,phase_2,stop,450.0,700.0,4.0,,,,,,,,,blue,I
0.0,1.0,1.0,0.0,6.0,6.0,409.3371089547872,8.0,1.0,phase_2,go,450.0,750.0,1.0,,,,,,,,,yellow,triangle
0.0,7.0,3.0,1.0,6.0,0.0,0.0,8.0,1.0,phase_2,stop,450.0,750.0,4.0,,,,,,,,,cyan,square
0.0,6.0,2.0,1.0,5.0,0.0,0.0,8.0,1.0,phase_2,stop,450.0,800.0,4.0,,,,,,,,,blue,I
0.0,3.0,3.0,0.0,5.0,5.0,384.294442133978,8.0,1.0,phase_2,go,500.0,800.0,1.0,,,,,,,,,green,diamond
0.0,7.0,3.0,1.0,6.0,6.0,703.9526861626655,8.0,1.0,phase_2,go,500.0,800.0,1.0,,,,,,,,,cyan,square
0.0,3.0,3.0,0.0,6.0,6.0,631.2847619410604,8.0,1.0,phase_2,go,500.0,800.0,1.0,,,,,,,,,green,diamond
0.0,3.0,3.0,0.0,5.0,5.0,486.598027870059,8.0,1.0,phase_2,go,500.0,800.0,1.0,,,,,,,,,green,diamond
0.0,4.0,4.0,0.0,6.0,6.0,553.6655399482697,8.0,1.0,phase_2,go,500.0,800.0,1.0,,,,,,,,,white,flipped triangle
0.0,5.0,1.0,1.0,5.0,5.0,495.4048111103475,8.0,1.0,phase_2,stop,500.0,800.0,3.0,,,,,,,,,gray,circle
0.0,4.0,4.0,0.0,5.0,5.0,454.8401948995888,8.0,1.0,phase_2,go,450.0,800.0,1.0,,,,,,,,,white,flipped triangle
0.0,8.0,4.0,1.0,5.0,0.0,0.0,8.0,1.0,phase_2,stop,450.0,800.0,4.0,,,,,,,,,orange,hexagon
0.0,5.0,1.0,1.0,6.0,0.0,0.0,8.0,1.0,phase_2,stop,500.0,800.0,4.0,,,,,,,,,gray,circle
0.0,3.0,3.0,0.0,6.0,6.0,670.6580799072981,8.0,1.0,phase_2,go,500.0,850.0,1.0,,,,,,,,,green,diamond
0.0,1.0,1.0,0.0,5.0,5.0,653.8578141480684,8.0,1.0,phase_2,go,500.0,850.0,1.0,,,,,,,,,yellow,triangle
0.0,8.0,4.0,1.0,6.0,6.0,546.9765309244394,8.0,1.0,phase_2,go,500.0,850.0,1.0,,,,,,,,,orange,hexagon
0.0,1.0,1.0,0.0,6.0,6.0,609.4431621022522,8.0,1.0,phase_2,go,500.0,850.0,1.0,,,,,,,,,yellow,triangle
0.0,6.0,2.0,1.0,5.0,5.0,320.6735679414123,8.0,1.0,phase_2,go,500.0,850.0,1.0,,,,,,,,,blue,I
0.0,8.0,4.0,1.0,6.0,6.0,730.7783428113908,8.0,1.0,phase_2,stop,500.0,850.0,3.0,,,,,,,,,orange,hexagon
0.0,1.0,1.0,0.0,6.0,6.0,441.4061987772584,8.0,1.0,phase_2,go,500.0,800.0,1.0,,,,,,,,,yellow,triangle
0.0,4.0,4.0,0.0,6.0,6.0,504.0884220506996,8.0,1.0,phase_2,go,500.0,800.0,1.0,,,,,,,,,white,flipped triangle
0.0,5.0,1.0,1.0,5.0,5.0,457.2385319042951,8.0,1.0,phase_2,go,500.0,800.0,1.0,,,,,,,,,gray,circle
0.0,5.0,1.0,1.0,5.0,5.0,577.0974820479751,8.0,1.0,phase_2,go,500.0,800.0,1.0,,,,,,,,,gray,circle
0.0,5.0,1.0,1.0,6.0,6.0,880.6149470619857,8.0,1.0,phase_2,stop,500.0,800.0,3.0,,,,,,,,,gray,circle
0.0,3.0,3.0,0.0,5.0,5.0,455.436741001904,8.0,1.0,phase_2,go,500.0,750.0,1.0,,,,,,,,,green,diamond
0.0,3.0,3.0,0.0,6.0,6.0,630.2377269603312,8.0,1.0,phase_2,go,500.0,750.0,1.0,,,,,,,,,green,diamond
0.0,3.0,3.0,0.0,6.0,6.0,580.8307218831033,8.0,1.0,phase_2,go,500.0,750.0,1.0,,,,,,,,,green,diamond
0.0,7.0,3.0,1.0,5.0,5.0,285.7460652012378,8.0,1.0,phase_2,stop,500.0,750.0,3.0,,,,,,,,,cyan,square
0.0,5.0,1.0,1.0,6.0,0.0,0.0,8.0,1.0,phase_2,stop,450.0,750.0,4.0,,,,,,,,,gray,circle
0.0,3.0,3.0,0.0,6.0,6.0,546.9744068104774,8.0,1.0,phase_2,go,450.0,800.0,1.0,,,,,,,,,green,diamond
0.0,1.0,1.0,0.0,6.0,6.0,522.3767270799726,8.0,1.0,phase_2,go,450.0,800.0,1.0,,,,,,,,,yellow,triangle
0.0,7.0,3.0,1.0,7.0,4.0,914.4143729936332,1.0,2.0,phase_3,,,,,195.0,5.0,117.0,78.0,39.0,195.0,156.0,234.0,cyan,square
0.0,8.0,4.0,1.0,7.0,5.0,3562.220270978287,1.0,1.0,phase_3,,,,,294.0,6.0,245.0,98.0,196.0,49.0,294.0,147.0,orange,hexagon
0.0,4.0,4.0,0.0,7.0,1.0,2013.3586740121245,1.0,1.0,phase_3,,,,,294.0,6.0,294.0,49.0,196.0,147.0,98.0,245.0,white,flipped triangle
0.0,5.0,1.0,1.0,7.0,1.0,1974.6593760792168,1.0,1.0,phase_3,,,,,147.0,3.0,147.0,294.0,196.0,245.0,49.0,98.0,gray,circle
0.0,3.0,3.0,0.0,7.0,5.0,1826.348874019459,1.0,1.0,phase_3,,,,,216.0,4.0,324.0,270.0,54.0,162.0,216.0,108.0,green,diamond
0.0,1.0,1.0,0.0,7.0,6.0,2073.830791981891,1.0,1.0,phase_3,,,,,294.0,6.0,98.0,196.0,49.0,147.0,245.0,294.0,yellow,triangle
0.0,6.0,2.0,1.0,7.0,5.0,1785.511900903657,1.0,1.0,phase_3,,,,,54.0,1.0,162.0,216.0,270.0,108.0,54.0,324.0,blue,I
0.0,5.0,1.0,1.0,7.0,6.0,1181.8667468614876,1.0,1.0,phase_3,,,,,54.0,1.0,324.0,270.0,108.0,162.0,216.0,54.0,gray,circle
0.0,4.0,4.0,0.0,7.0,5.0,1508.2492080982774,1.0,1.0,phase_3,,,,,270.0,5.0,162.0,324.0,108.0,216.0,270.0,54.0,white,flipped triangle
0.0,6.0,2.0,1.0,7.0,5.0,1215.7121081836522,1.0,1.0,phase_3,,,,,54.0,1.0,216.0,270.0,324.0,162.0,54.0,108.0,blue,I
0.0,5.0,1.0,1.0,7.0,1.0,1623.5685260035098,1.0,1.0,phase_3,,,,,44.0,1.0,44.0,264.0,220.0,88.0,132.0,176.0,gray,circle
0.0,2.0,2.0,0.0,7.0,5.0,2218.671034090221,1.0,1.0,phase_3,,,,,195.0,5.0,234.0,78.0,39.0,117.0,195.0,156.0,magenta,cross
0.0,6.0,2.0,1.0,7.0,6.0,1123.251027893275,1.0,1.0,phase_3,,,,,98.0,2.0,196.0,147.0,245.0,49.0,294.0,98.0,blue,I
0.0,3.0,3.0,0.0,7.0,1.0,2332.7517102006823,1.0,1.0,phase_3,,,,,234.0,6.0,234.0,117.0,39.0,156.0,195.0,78.0,green,diamond
0.0,8.0,4.0,1.0,7.0,2.0,1507.7999979257584,1.0,1.0,phase_3,,,,,170.0,5.0,136.0,170.0,102.0,68.0,204.0,34.0,orange,hexagon
0.0,2.0,2.0,0.0,7.0,3.0,1789.3973379395902,1.0,1.0,phase_3,,,,,220.0,5.0,264.0,132.0,220.0,44.0,88.0,176.0,magenta,cross
0.0,7.0,3.0,1.0,7.0,4.0,1399.6782000176609,1.0,1.0,phase_3,,,,,54.0,1.0,108.0,216.0,324.0,54.0,270.0,162.0,cyan,square
0.0,4.0,4.0,0.0,7.0,4.0,1640.123053919524,1.0,1.0,phase_3,,,,,204.0,6.0,102.0,136.0,34.0,204.0,68.0,170.0,white,flipped triangle
0.0,3.0,3.0,0.0,7.0,1.0,1275.4149918910116,1.0,1.0,phase_3,,,,,294.0,6.0,294.0,196.0,49.0,98.0,147.0,245.0,green,diamond
0.0,5.0,1.0,1.0,7.0,5.0,1349.786147940904,1.0,1.0,phase_3,,,,,34.0,1.0,204.0,102.0,170.0,68.0,34.0,136.0,gray,circle
0.0,8.0,4.0,1.0,7.0,1.0,2063.408887013793,2.0,1.0,phase_3,,,,,170.0,5.0,170.0,102.0,68.0,136.0,34.0,204.0,orange,hexagon
0.0,4.0,4.0,0.0,7.0,1.0,1336.6883441340178,2.0,1.0,phase_3,,,,,294.0,6.0,294.0,245.0,49.0,196.0,98.0,147.0,white,flipped triangle
0.0,5.0,1.0,1.0,7.0,4.0,1392.5984338857234,2.0,1.0,phase_3,,,,,39.0,1.0,117.0,195.0,234.0,39.0,78.0,156.0,gray,circle
0.0,7.0,3.0,1.0,7.0,4.0,1162.5896741170436,2.0,1.0,phase_3,,,,,49.0,1.0,245.0,98.0,147.0,49.0,196.0,294.0,cyan,square
0.0,5.0,1.0,1.0,7.0,1.0,1474.5144890621305,2.0,1.0,phase_3,,,,,34.0,1.0,34.0,68.0,204.0,170.0,136.0,102.0,gray,circle
0.0,2.0,2.0,0.0,7.0,5.0,1598.0822599958628,2.0,1.0,phase_3,,,,,156.0,4.0,39.0,234.0,78.0,195.0,156.0,117.0,magenta,cross
0.0,1.0,1.0,0.0,7.0,1.0,2328.6164170131087,2.0,1.0,phase_3,,,,,220.0,5.0,220.0,176.0,88.0,264.0,44.0,132.0,yellow,triangle
0.0,6.0,2.0,1.0,7.0,3.0,1942.68360408023,2.0,1.0,phase_3,,,,,44.0,1.0,176.0,132.0,44.0,264.0,220.0,88.0,blue,I
0.0,1.0,1.0,0.0,7.0,3.0,2097.98964811489,2.0,1.0,phase_3,,,,,234.0,6.0,156.0,117.0,234.0,195.0,39.0,78.0,yellow,triangle
0.0,2.0,2.0,0.0,7.0,1.0,2018.3011118788272,2.0,1.0,phase_3,,,,,264.0,6.0,264.0,132.0,176.0,44.0,220.0,88.0,magenta,cross
0.0,7.0,3.0,1.0,7.0,3.0,1626.891801133752,2.0,1.0,phase_3,,,,,44.0,1.0,132.0,264.0,44.0,176.0,88.0,220.0,cyan,square
0.0,3.0,3.0,0.0,7.0,3.0,2035.9540360514075,2.0,1.0,phase_3,,,,,234.0,6.0,78.0,39.0,234.0,156.0,195.0,117.0,green,diamond
0.0,6.0,2.0,1.0,7.0,3.0,1757.7803481835872,2.0,1.0,phase_3,,,,,39.0,1.0,234.0,117.0,39.0,78.0,195.0,156.0,blue,I
0.0,4.0,4.0,0.0,7.0,5.0,2111.698469845578,2.0,1.0,phase_3,,,,,234.0,6.0,117.0,78.0,39.0,195.0,234.0,156.0,white,flipped triangle
0.0,1.0,1.0,0.0,7.0,5.0,1851.8684471491724,2.0,1.0,phase_3,,,,,270.0,5.0,216.0,108.0,324.0,54.0,270.0,162.0,yellow,triangle
0.0,7.0,3.0,1.0,7.0,2.0,1157.8492149710655,2.0,1.0,phase_3,,,,,44.0,1.0,264.0,44.0,132.0,176.0,88.0,220.0,cyan,square
0.0,2.0,2.0,0.0,7.0,2.0,2347.9240669403225,2.0,1.0,phase_3,,,,,216.0,4.0,54.0,216.0,324.0,162.0,108.0,270.0,magenta,cross
0.0,6.0,2.0,1.0,7.0,4.0,1621.0473359096795,2.0,1.0,phase_3,,,,,49.0,1.0,294.0,196.0,98.0,49.0,245.0,147.0,blue,I
0.0,3.0,3.0,0.0,7.0,4.0,1965.705381007865,2.0,1.0,phase_3,,,,,204.0,6.0,170.0,136.0,34.0,204.0,102.0,68.0,green,diamond
0.0,4.0,4.0,0.0,7.0,1.0,1810.5427951086317,2.0,1.0,phase_3,,,,,204.0,6.0,204.0,170.0,68.0,102.0,136.0,34.0,white,flipped triangle
0.0,8.0,4.0,1.0,7.0,5.0,2240.456184837967,3.0,1.0,phase_3,,,,,176.0,4.0,88.0,44.0,132.0,264.0,176.0,220.0,orange,hexagon
0.0,5.0,1.0,1.0,7.0,2.0,1510.9726858790964,3.0,1.0,phase_3,,,,,39.0,1.0,117.0,39.0,156.0,195.0,78.0,234.0,gray,circle
0.0,3.0,3.0,0.0,7.0,4.0,1978.905527153984,3.0,1.0,phase_3,,,,,264.0,6.0,176.0,44.0,132.0,264.0,88.0,220.0,green,diamond
0.0,4.0,4.0,0.0,7.0,1.0,1610.3397731203586,3.0,1.0,phase_3,,,,,270.0,5.0,270.0,54.0,108.0,216.0,324.0,162.0,white,flipped triangle
0.0,3.0,3.0,0.0,7.0,2.0,1779.9577240366489,3.0,1.0,phase_3,,,,,264.0,6.0,220.0,264.0,132.0,176.0,88.0,44.0,green,diamond
0.0,5.0,1.0,1.0,7.0,4.0,1124.7005411423745,3.0,1.0,phase_3,,,,,54.0,1.0,108.0,162.0,324.0,54.0,270.0,216.0,gray,circle
0.0,1.0,1.0,0.0,7.0,4.0,2185.6429039034992,3.0,1.0,phase_3,,,,,324.0,6.0,216.0,108.0,162.0,324.0,54.0,270.0,yellow,triangle
0.0,1.0,1.0,0.0,7.0,3.0,1991.6604000609368,3.0,1.0,phase_3,,,,,204.0,6.0,34.0,68.0,204.0,102.0,136.0,170.0,yellow,triangle
0.0,3.0,3.0,0.0,7.0,4.0,1650.557265151292,3.0,1.0,phase_3,,,,,294.0,6.0,98.0,245.0,49.0,294.0,147.0,196.0,green,diamond
0.0,8.0,4.0,1.0,7.0,2.0,1691.0243039019406,3.0,1.0,phase_3,,,,,324.0,6.0,162.0,324.0,108.0,54.0,270.0,216.0,orange,hexagon
0.0,2.0,2.0,0.0,7.0,4.0,1667.5774902105331,3.0,1.0,phase_3,,,,,245.0,5.0,147.0,49.0,294.0,245.0,98.0,196.0,magenta,cross
0.0,6.0,2.0,1.0,7.0,1.0,2006.59260712564,3.0,1.0,phase_3,,,,,39.0,1.0,39.0,234.0,117.0,156.0,78.0,195.0,blue,I
0.0,1.0,1.0,0.0,7.0,4.0,2230.805492028594,3.0,1.0,phase_3,,,,,204.0,6.0,136.0,68.0,102.0,204.0,170.0,34.0,yellow,triangle
0.0,7.0,3.0,1.0,7.0,4.0,1465.7698259688914,3.0,1.0,phase_3,,,,,39.0,1.0,156.0,78.0,117.0,39.0,234.0,195.0,cyan,square
0.0,4.0,4.0,0.0,7.0,2.0,1977.876029908657,3.0,1.0,phase_3,,,,,264.0,6.0,220.0,264.0,132.0,44.0,176.0,88.0,white,flipped triangle
0.0,2.0,2.0,0.0,7.0,4.0,2044.405112043023,3.0,1.0,phase_3,,,,,294.0,6.0,98.0,147.0,196.0,294.0,49.0,245.0,magenta,cross
0.0,2.0,2.0,0.0,7.0,1.0,1535.703380824998,3.0,1.0,phase_3,,,,,204.0,6.0,204.0,34.0,136.0,68.0,170.0,102.0,magenta,cross
0.0,4.0,4.0,0.0,7.0,4.0,1764.922640984878,3.0,1.0,phase_3,,,,,264.0,6.0,176.0,220.0,44.0,264.0,88.0,132.0,white,flipped triangle
0.0,7.0,3.0,1.0,7.0,3.0,1752.1176089067012,3.0,1.0,phase_3,,,,,54.0,1.0,324.0,270.0,54.0,162.0,108.0,216.0,cyan,square
0.0,8.0,4.0,1.0,7.0,2.0,1978.7686560302973,3.0,1.0,phase_3,,,,,195.0,5.0,39.0,195.0,156.0,234.0,117.0,78.0,orange,hexagon
0.0,6.0,2.0,1.0,7.0,4.0,1328.407834051177,4.0,1.0,phase_3,,,,,34.0,1.0,136.0,170.0,102.0,34.0,204.0,68.0,blue,I
0.0,4.0,4.0,0.0,7.0,4.0,1851.8585150595757,4.0,1.0,phase_3,,,,,39.0,1.0,78.0,156.0,195.0,39.0,234.0,117.0,white,flipped triangle
0.0,8.0,4.0,1.0,7.0,2.0,3372.4773759022355,4.0,1.0,phase_3,,,,,245.0,5.0,196.0,245.0,49.0,294.0,147.0,98.0,orange,hexagon
0.0,8.0,4.0,1.0,7.0,2.0,2332.1432161610574,4.0,1.0,phase_3,,,,,195.0,5.0,78.0,195.0,156.0,117.0,39.0,234.0,orange,hexagon
0.0,5.0,1.0,1.0,7.0,5.0,1142.3471949528905,4.0,1.0,phase_3,,,,,49.0,1.0,98.0,294.0,147.0,245.0,49.0,196.0,gray,circle
0.0,7.0,3.0,1.0,7.0,3.0,1375.2214259002358,4.0,1.0,phase_3,,,,,49.0,1.0,147.0,245.0,49.0,196.0,98.0,294.0,cyan,square
0.0,3.0,3.0,0.0,7.0,2.0,1936.0734100919217,4.0,1.0,phase_3,,,,,68.0,2.0,204.0,68.0,102.0,136.0,34.0,170.0,green,diamond
0.0,6.0,2.0,1.0,7.0,6.0,1708.6030337959528,4.0,1.0,phase_3,,,,,44.0,1.0,176.0,220.0,132.0,88.0,264.0,44.0,blue,I
0.0,2.0,2.0,0.0,7.0,2.0,1629.7730167862028,4.0,1.0,phase_3,,,,,324.0,6.0,162.0,324.0,216.0,54.0,108.0,270.0,magenta,cross
0.0,1.0,1.0,0.0,7.0,6.0,2064.080499112606,4.0,1.0,phase_3,,,,,234.0,6.0,156.0,117.0,195.0,78.0,39.0,234.0,yellow,triangle
0.0,7.0,3.0,1.0,7.0,6.0,1575.7185691036284,4.0,1.0,phase_3,,,,,34.0,1.0,170.0,102.0,68.0,204.0,136.0,34.0,cyan,square
0.0,3.0,3.0,0.0,7.0,4.0,1730.111973825842,4.0,1.0,phase_3,,,,,216.0,4.0,162.0,108.0,270.0,216.0,54.0,324.0,green,diamond
0.0,1.0,1.0,0.0,7.0,6.0,2041.249468922615,4.0,1.0,phase_3,,,,,264.0,6.0,220.0,132.0,44.0,176.0,88.0,264.0,yellow,triangle
0.0,6.0,2.0,1.0,7.0,5.0,1380.759143969044,4.0,1.0,phase_3,,,,,34.0,1.0,68.0,170.0,204.0,102.0,34.0,136.0,blue,I
0.0,5.0,1.0,1.0,7.0,5.0,1171.798557974398,4.0,1.0,phase_3,,,,,44.0,1.0,264.0,88.0,132.0,176.0,44.0,220.0,gray,circle
0.0,7.0,3.0,1.0,7.0,6.0,1460.5517629534006,4.0,1.0,phase_3,,,,,34.0,1.0,204.0,68.0,170.0,136.0,102.0,34.0,cyan,square
0.0,8.0,4.0,1.0,7.0,6.0,2309.8804079927504,4.0,1.0,phase_3,,,,,270.0,5.0,162.0,324.0,216.0,108.0,54.0,270.0,orange,hexagon
0.0,2.0,2.0,0.0,7.0,3.0,2223.071147920564,4.0,1.0,phase_3,,,,,204.0,6.0,34.0,102.0,204.0,170.0,68.0,136.0,magenta,cross
0.0,1.0,1.0,0.0,7.0,3.0,2768.75841896981,4.0,1.0,phase_3,,,,,294.0,6.0,49.0,98.0,294.0,196.0,147.0,245.0,yellow,triangle
0.0,8.0,4.0,1.0,7.0,5.0,2405.097813112661,4.0,1.0,phase_3,,,,,176.0,4.0,132.0,44.0,220.0,88.0,176.0,264.0,orange,hexagon
