raw_reward_magnitude,stim_reward,stepwise_reward_magnitude,paired_with_stopping,stim_location,response,reaction_time,block,num_trial_presentations,which_phase,stop_signal_trial_type,left_SSD,right_SSD,accuracy,chosen_bidding_amount,chosen_bidding_level,possible_bid_1,possible_bid_2,possible_bid_3,possible_bid_4,possible_bid_5,possible_bid_6,color_text,shape_text
0.0,2.0,0.0,0.0,3.0,3.0,355.102919973433,1.0,1.0,phase_1,,,,,,,,,,,,,magenta,cross
393.0,8.0,4.0,1.0,4.0,4.0,627.0286971703172,1.0,1.0,phase_1,,,,,,,,,,,,,white,square
186.0,3.0,3.0,0.0,3.0,3.0,436.3354749511927,1.0,1.0,phase_1,,,,,,,,,,,,,yellow,hexagon
115.0,6.0,2.0,1.0,4.0,4.0,400.4616502206772,1.0,1.0,phase_1,,,,,,,,,,,,,green,diamond
214.0,3.0,3.0,0.0,3.0,3.0,374.0677100140601,1.0,1.0,phase_1,,,,,,,,,,,,,yellow,hexagon
194.0,3.0,3.0,0.0,1.0,1.0,348.5509508755058,1.0,1.0,phase_1,,,,,,,,,,,,,yellow,hexagon
0.0,7.0,0.0,1.0,4.0,4.0,402.4206539615989,1.0,1.0,phase_1,,,,,,,,,,,,,orange,circle
0.0,4.0,0.0,0.0,2.0,2.0,532.8922949265689,1.0,1.0,phase_1,,,,,,,,,,,,,gray,flipped triangle
0.0,7.0,0.0,1.0,3.0,3.0,522.7752451319247,1.0,1.0,phase_1,,,,,,,,,,,,,orange,circle
119.0,2.0,2.0,0.0,4.0,4.0,397.503670072183,1.0,1.0,phase_1,,,,,,,,,,,,,magenta,cross
413.0,8.0,4.0,1.0,4.0,4.0,298.1286440044641,1.0,1.0,phase_1,,,,,,,,,,,,,white,square
210.0,3.0,3.0,0.0,2.0,2.0,992.5167728215456,1.0,10.0,phase_1,,,,,,,,,,,,,yellow,hexagon
37.0,1.0,1.0,0.0,3.0,3.0,412.767909001559,1.0,1.0,phase_1,,,,,,,,,,,,,blue,I
209.0,3.0,3.0,0.0,1.0,1.0,369.1781009547412,1.0,1.0,phase_1,,,,,,,,,,,,,yellow,hexagon
206.0,3.0,3.0,0.0,1.0,1.0,366.1550430115312,1.0,1.0,phase_1,,,,,,,,,,,,,yellow,hexagon
388.0,4.0,4.0,0.0,2.0,2.0,397.0879141706973,1.0,1.0,phase_1,,,,,,,,,,,,,gray,flipped triangle
35.0,5.0,1.0,1.0,4.0,4.0,337.614820105955,1.0,1.0,phase_1,,,,,,,,,,,,,cyan,triangle
47.0,1.0,1.0,0.0,3.0,3.0,364.2985220067203,1.0,1.0,phase_1,,,,,,,,,,,,,blue,I
202.0,7.0,3.0,1.0,3.0,3.0,338.5132721159607,1.0,1.0,phase_1,,,,,,,,,,,,,orange,circle
200.0,7.0,3.0,1.0,4.0,4.0,357.522748876363,1.0,1.0,phase_1,,,,,,,,,,,,,orange,circle
185.0,3.0,3.0,0.0,3.0,3.0,298.1334370560944,1.0,1.0,phase_1,,,,,,,,,,,,,yellow,hexagon
0.0,2.0,0.0,0.0,2.0,2.0,263.9798680320382,1.0,1.0,phase_1,,,,,,,,,,,,,magenta,cross
90.0,2.0,2.0,0.0,1.0,1.0,332.3528710752725,1.0,1.0,phase_1,,,,,,,,,,,,,magenta,cross
0.0,2.0,0.0,0.0,2.0,2.0,297.1805341076106,1.0,1.0,phase_1,,,,,,,,,,,,,magenta,cross
0.0,5.0,0.0,1.0,4.0,4.0,334.4970780890435,1.0,1.0,phase_1,,,,,,,,,,,,,cyan,triangle
220.0,7.0,3.0,1.0,3.0,3.0,354.2286620941013,1.0,1.0,phase_1,,,,,,,,,,,,,orange,circle
27.0,5.0,1.0,1.0,4.0,4.0,321.7218720819801,1.0,1.0,phase_1,,,,,,,,,,,,,cyan,triangle
71.0,5.0,1.0,1.0,4.0,4.0,318.1065411772579,1.0,1.0,phase_1,,,,,,,,,,,,,cyan,triangle
200.0,7.0,3.0,1.0,4.0,4.0,299.7329651843756,1.0,1.0,phase_1,,,,,,,,,,,,,orange,circle
31.0,1.0,1.0,0.0,2.0,2.0,300.1825839746743,1.0,1.0,phase_1,,,,,,,,,,,,,blue,I
380.0,4.0,4.0,0.0,4.0,4.0,312.9545419942587,1.0,1.0,phase_1,,,,,,,,,,,,,gray,flipped triangle
0.0,2.0,0.0,0.0,2.0,2.0,295.9546060301363,1.0,1.0,phase_1,,,,,,,,,,,,,magenta,cross
196.0,3.0,3.0,0.0,4.0,4.0,282.6114178169518,1.0,1.0,phase_1,,,,,,,,,,,,,yellow,hexagon
76.0,2.0,2.0,0.0,2.0,2.0,318.8648780342191,1.0,1.0,phase_1,,,,,,,,,,,,,magenta,cross
52.0,1.0,1.0,0.0,1.0,1.0,299.7152048628777,1.0,1.0,phase_1,,,,,,,,,,,,,blue,I
0.0,6.0,0.0,1.0,3.0,3.0,280.1646860316396,1.0,1.0,phase_1,,,,,,,,,,,,,green,diamond
0.0,6.0,0.0,1.0,4.0,4.0,273.0239338707179,1.0,1.0,phase_1,,,,,,,,,,,,,green,diamond
405.0,8.0,4.0,1.0,1.0,1.0,324.340847088024,1.0,1.0,phase_1,,,,,,,,,,,,,white,square
397.0,4.0,4.0,0.0,2.0,2.0,297.0942279789597,1.0,1.0,phase_1,,,,,,,,,,,,,gray,flipped triangle
0.0,5.0,0.0,1.0,1.0,1.0,341.1799550522119,1.0,1.0,phase_1,,,,,,,,,,,,,cyan,triangle
0.0,1.0,0.0,0.0,1.0,1.0,339.9089958984405,1.0,1.0,phase_1,,,,,,,,,,,,,blue,I
104.0,2.0,2.0,0.0,1.0,1.0,333.8644811883569,1.0,1.0,phase_1,,,,,,,,,,,,,magenta,cross
186.0,3.0,3.0,0.0,1.0,1.0,277.3405690677464,1.0,1.0,phase_1,,,,,,,,,,,,,yellow,hexagon
402.0,4.0,4.0,0.0,1.0,1.0,335.0209339987486,1.0,1.0,phase_1,,,,,,,,,,,,,gray,flipped triangle
55.0,1.0,1.0,0.0,3.0,3.0,332.702754996717,1.0,1.0,phase_1,,,,,,,,,,,,,blue,I
120.0,6.0,2.0,1.0,4.0,4.0,449.2531511932611,1.0,1.0,phase_1,,,,,,,,,,,,,green,diamond
0.0,7.0,0.0,1.0,4.0,4.0,324.7318789362907,1.0,1.0,phase_1,,,,,,,,,,,,,orange,circle
47.0,1.0,1.0,0.0,2.0,2.0,304.8761670943349,1.0,1.0,phase_1,,,,,,,,,,,,,blue,I
0.0,4.0,0.0,0.0,1.0,1.0,335.4153630789369,1.0,1.0,phase_1,,,,,,,,,,,,,gray,flipped triangle
0.0,2.0,0.0,0.0,4.0,4.0,294.3969711195677,1.0,1.0,phase_1,,,,,,,,,,,,,magenta,cross
52.0,5.0,1.0,1.0,3.0,3.0,289.2035129480064,1.0,1.0,phase_1,,,,,,,,,,,,,cyan,triangle
0.0,3.0,0.0,0.0,1.0,1.0,276.0421659331769,1.0,1.0,phase_1,,,,,,,,,,,,,yellow,hexagon
0.0,5.0,0.0,1.0,3.0,3.0,288.4000109042972,1.0,1.0,phase_1,,,,,,,,,,,,,cyan,triangle
82.0,2.0,2.0,0.0,3.0,3.0,312.5032719690352,1.0,1.0,phase_1,,,,,,,,,,,,,magenta,cross
0.0,1.0,0.0,0.0,3.0,3.0,299.7172479517758,1.0,1.0,phase_1,,,,,,,,,,,,,blue,I
37.0,5.0,1.0,1.0,2.0,2.0,304.3269538320601,1.0,1.0,phase_1,,,,,,,,,,,,,cyan,triangle
0.0,8.0,0.0,1.0,1.0,1.0,267.7036488894373,1.0,1.0,phase_1,,,,,,,,,,,,,white,square
205.0,7.0,3.0,1.0,4.0,4.0,530.5195399560034,1.0,1.0,phase_1,,,,,,,,,,,,,orange,circle
27.0,1.0,1.0,0.0,4.0,4.0,304.5552589464932,1.0,1.0,phase_1,,,,,,,,,,,,,blue,I
401.0,8.0,4.0,1.0,4.0,4.0,315.6083570793271,1.0,1.0,phase_1,,,,,,,,,,,,,white,square
110.0,2.0,2.0,0.0,2.0,2.0,303.8344059605151,1.0,1.0,phase_1,,,,,,,,,,,,,magenta,cross
0.0,8.0,0.0,1.0,3.0,3.0,307.0584088563919,1.0,1.0,phase_1,,,,,,,,,,,,,white,square
218.0,7.0,3.0,1.0,1.0,1.0,258.8657580781728,1.0,1.0,phase_1,,,,,,,,,,,,,orange,circle
101.0,2.0,2.0,0.0,3.0,3.0,327.1250058896839,1.0,1.0,phase_1,,,,,,,,,,,,,magenta,cross
411.0,8.0,4.0,1.0,2.0,2.0,264.8982650134712,1.0,1.0,phase_1,,,,,,,,,,,,,white,square
189.0,7.0,3.0,1.0,2.0,2.0,276.9665149971843,1.0,1.0,phase_1,,,,,,,,,,,,,orange,circle
124.0,6.0,2.0,1.0,4.0,4.0,283.7498460430652,1.0,1.0,phase_1,,,,,,,,,,,,,green,diamond
75.0,2.0,2.0,0.0,2.0,2.0,272.1730570774525,1.0,1.0,phase_1,,,,,,,,,,,,,magenta,cross
40.0,1.0,1.0,0.0,2.0,2.0,371.9078300055116,1.0,1.0,phase_1,,,,,,,,,,,,,blue,I
0.0,8.0,0.0,1.0,2.0,2.0,329.3612650595605,1.0,1.0,phase_1,,,,,,,,,,,,,white,square
44.0,1.0,1.0,0.0,3.0,3.0,277.0896370057016,1.0,1.0,phase_1,,,,,,,,,,,,,blue,I
402.0,8.0,4.0,1.0,2.0,2.0,268.2905660476535,1.0,1.0,phase_1,,,,,,,,,,,,,white,square
66.0,5.0,1.0,1.0,2.0,2.0,303.8532701320946,1.0,1.0,phase_1,,,,,,,,,,,,,cyan,triangle
84.0,6.0,2.0,1.0,3.0,3.0,348.987195873633,1.0,1.0,phase_1,,,,,,,,,,,,,green,diamond
218.0,3.0,3.0,0.0,1.0,1.0,279.0354529861361,1.0,1.0,phase_1,,,,,,,,,,,,,yellow,hexagon
105.0,2.0,2.0,0.0,3.0,3.0,348.7235240172595,1.0,1.0,phase_1,,,,,,,,,,,,,magenta,cross
0.0,1.0,0.0,0.0,4.0,4.0,312.7005451824516,1.0,1.0,phase_1,,,,,,,,,,,,,blue,I
202.0,3.0,3.0,0.0,2.0,2.0,325.1707428134978,1.0,1.0,phase_1,,,,,,,,,,,,,yellow,hexagon
190.0,3.0,3.0,0.0,4.0,4.0,381.1033170204609,1.0,1.0,phase_1,,,,,,,,,,,,,yellow,hexagon
391.0,4.0,4.0,0.0,4.0,4.0,329.6967400237918,1.0,1.0,phase_1,,,,,,,,,,,,,gray,flipped triangle
45.0,5.0,1.0,1.0,2.0,2.0,373.5900931060314,1.0,1.0,phase_1,,,,,,,,,,,,,cyan,triangle
115.0,2.0,2.0,0.0,3.0,3.0,284.4255079980939,1.0,1.0,phase_1,,,,,,,,,,,,,magenta,cross
46.0,1.0,1.0,0.0,2.0,2.0,254.33706096373498,1.0,1.0,phase_1,,,,,,,,,,,,,blue,I
382.0,8.0,4.0,1.0,3.0,3.0,297.9486868716776,1.0,1.0,phase_1,,,,,,,,,,,,,white,square
42.0,5.0,1.0,1.0,1.0,1.0,280.0362319685519,1.0,1.0,phase_1,,,,,,,,,,,,,cyan,triangle
72.0,1.0,1.0,0.0,1.0,1.0,346.5531521942466,1.0,2.0,phase_1,,,,,,,,,,,,,blue,I
51.0,1.0,1.0,0.0,4.0,4.0,427.761591039598,1.0,2.0,phase_1,,,,,,,,,,,,,blue,I
72.0,5.0,1.0,1.0,1.0,1.0,399.5372201316058,1.0,1.0,phase_1,,,,,,,,,,,,,cyan,triangle
212.0,7.0,3.0,1.0,4.0,4.0,580.5510368663818,1.0,1.0,phase_1,,,,,,,,,,,,,orange,circle
379.0,8.0,4.0,1.0,4.0,4.0,552.8808820527047,1.0,1.0,phase_1,,,,,,,,,,,,,white,square
192.0,3.0,3.0,0.0,3.0,3.0,390.7067419495433,1.0,1.0,phase_1,,,,,,,,,,,,,yellow,hexagon
115.0,2.0,2.0,0.0,3.0,3.0,360.524269985035,1.0,1.0,phase_1,,,,,,,,,,,,,magenta,cross
91.0,2.0,2.0,0.0,2.0,2.0,296.0748269688338,1.0,1.0,phase_1,,,,,,,,,,,,,magenta,cross
72.0,1.0,1.0,0.0,3.0,3.0,321.7471158131957,1.0,1.0,phase_1,,,,,,,,,,,,,blue,I
104.0,6.0,2.0,1.0,4.0,4.0,344.9646281078458,1.0,1.0,phase_1,,,,,,,,,,,,,green,diamond
425.0,8.0,4.0,1.0,2.0,2.0,373.8683320116251,1.0,1.0,phase_1,,,,,,,,,,,,,white,square
0.0,3.0,0.0,0.0,4.0,4.0,329.850137932226,1.0,1.0,phase_1,,,,,,,,,,,,,yellow,hexagon
67.0,5.0,1.0,1.0,2.0,2.0,326.4408700633794,1.0,1.0,phase_1,,,,,,,,,,,,,cyan,triangle
32.0,1.0,1.0,0.0,4.0,4.0,338.2320089731365,1.0,1.0,phase_1,,,,,,,,,,,,,blue,I
115.0,6.0,2.0,1.0,3.0,3.0,305.8577599003911,1.0,1.0,phase_1,,,,,,,,,,,,,green,diamond
207.0,7.0,3.0,1.0,1.0,1.0,397.0592611003667,2.0,1.0,phase_1,,,,,,,,,,,,,orange,circle
0.0,7.0,0.0,1.0,4.0,4.0,297.2458880394697,2.0,1.0,phase_1,,,,,,,,,,,,,orange,circle
75.0,6.0,2.0,1.0,4.0,4.0,327.5929600931704,2.0,1.0,phase_1,,,,,,,,,,,,,green,diamond
204.0,7.0,3.0,1.0,1.0,1.0,378.2527949661016,2.0,1.0,phase_1,,,,,,,,,,,,,orange,circle
121.0,2.0,2.0,0.0,1.0,1.0,335.1998759899288,2.0,1.0,phase_1,,,,,,,,,,,,,magenta,cross
0.0,8.0,0.0,1.0,4.0,4.0,327.800011029467,2.0,1.0,phase_1,,,,,,,,,,,,,white,square
401.0,4.0,4.0,0.0,3.0,3.0,304.231550777331,2.0,1.0,phase_1,,,,,,,,,,,,,gray,flipped triangle
190.0,7.0,3.0,1.0,1.0,1.0,517.8059909958392,2.0,1.0,phase_1,,,,,,,,,,,,,orange,circle
99.0,6.0,2.0,1.0,1.0,1.0,372.5204120855778,2.0,1.0,phase_1,,,,,,,,,,,,,green,diamond
104.0,2.0,2.0,0.0,1.0,1.0,335.1792651228606,2.0,1.0,phase_1,,,,,,,,,,,,,magenta,cross
186.0,7.0,3.0,1.0,4.0,4.0,298.9872489124536,2.0,1.0,phase_1,,,,,,,,,,,,,orange,circle
0.0,4.0,0.0,0.0,2.0,2.0,347.6237298455089,2.0,1.0,phase_1,,,,,,,,,,,,,gray,flipped triangle
67.0,1.0,1.0,0.0,1.0,1.0,302.9862658586353,2.0,1.0,phase_1,,,,,,,,,,,,,blue,I
179.0,7.0,3.0,1.0,2.0,2.0,524.801401887089,2.0,1.0,phase_1,,,,,,,,,,,,,orange,circle
120.0,2.0,2.0,0.0,4.0,4.0,319.9932228308171,2.0,1.0,phase_1,,,,,,,,,,,,,magenta,cross
418.0,4.0,4.0,0.0,4.0,4.0,388.4671109262854,2.0,1.0,phase_1,,,,,,,,,,,,,gray,flipped triangle
35.0,1.0,1.0,0.0,3.0,3.0,295.207638060674,2.0,1.0,phase_1,,,,,,,,,,,,,blue,I
192.0,7.0,3.0,1.0,1.0,1.0,315.8046691678464,2.0,1.0,phase_1,,,,,,,,,,,,,orange,circle
402.0,4.0,4.0,0.0,2.0,2.0,323.8230978604406,2.0,1.0,phase_1,,,,,,,,,,,,,gray,flipped triangle
391.0,4.0,4.0,0.0,2.0,2.0,372.9283639695495,2.0,1.0,phase_1,,,,,,,,,,,,,gray,flipped triangle
68.0,5.0,1.0,1.0,4.0,4.0,292.2611471731215,2.0,1.0,phase_1,,,,,,,,,,,,,cyan,triangle
82.0,6.0,2.0,1.0,4.0,4.0,432.6442419551313,2.0,1.0,phase_1,,,,,,,,,,,,,green,diamond
96.0,2.0,2.0,0.0,1.0,1.0,493.7406280077994,2.0,1.0,phase_1,,,,,,,,,,,,,magenta,cross
0.0,3.0,0.0,0.0,3.0,3.0,292.1826341189444,2.0,1.0,phase_1,,,,,,,,,,,,,yellow,hexagon
206.0,7.0,3.0,1.0,3.0,3.0,407.84845710732037,2.0,1.0,phase_1,,,,,,,,,,,,,orange,circle
63.0,5.0,1.0,1.0,3.0,3.0,365.307305008173,2.0,1.0,phase_1,,,,,,,,,,,,,cyan,triangle
47.0,5.0,1.0,1.0,2.0,2.0,328.6115049850195,2.0,1.0,phase_1,,,,,,,,,,,,,cyan,triangle
115.0,2.0,2.0,0.0,4.0,4.0,284.525693859905,2.0,1.0,phase_1,,,,,,,,,,,,,magenta,cross
413.0,4.0,4.0,0.0,2.0,2.0,393.9272968564182,2.0,1.0,phase_1,,,,,,,,,,,,,gray,flipped triangle
0.0,5.0,0.0,1.0,1.0,1.0,526.4409699011594,2.0,1.0,phase_1,,,,,,,,,,,,,cyan,triangle
103.0,6.0,2.0,1.0,4.0,4.0,466.4535359479487,2.0,1.0,phase_1,,,,,,,,,,,,,green,diamond
210.0,7.0,3.0,1.0,1.0,1.0,536.0913949552923,2.0,1.0,phase_1,,,,,,,,,,,,,orange,circle
376.0,4.0,4.0,0.0,4.0,4.0,348.0739020742476,2.0,1.0,phase_1,,,,,,,,,,,,,gray,flipped triangle
112.0,6.0,2.0,1.0,3.0,3.0,419.0272740088403,2.0,1.0,phase_1,,,,,,,,,,,,,green,diamond
68.0,1.0,1.0,0.0,2.0,2.0,356.1463770456612,2.0,1.0,phase_1,,,,,,,,,,,,,blue,I
124.0,2.0,2.0,0.0,3.0,3.0,393.5452371370047,2.0,1.0,phase_1,,,,,,,,,,,,,magenta,cross
397.0,8.0,4.0,1.0,1.0,1.0,503.00954887643456,2.0,1.0,phase_1,,,,,,,,,,,,,white,square
376.0,8.0,4.0,1.0,1.0,1.0,363.9259659685194,2.0,1.0,phase_1,,,,,,,,,,,,,white,square
64.0,5.0,1.0,1.0,2.0,2.0,566.2019471637905,2.0,1.0,phase_1,,,,,,,,,,,,,cyan,triangle
0.0,8.0,0.0,1.0,4.0,4.0,347.2657119855284,2.0,1.0,phase_1,,,,,,,,,,,,,white,square
120.0,2.0,2.0,0.0,2.0,2.0,327.4153189267963,2.0,1.0,phase_1,,,,,,,,,,,,,magenta,cross
49.0,5.0,1.0,1.0,3.0,3.0,356.262416113168,2.0,1.0,phase_1,,,,,,,,,,,,,cyan,triangle
179.0,3.0,3.0,0.0,2.0,2.0,339.0054160263389,2.0,1.0,phase_1,,,,,,,,,,,,,yellow,hexagon
423.0,4.0,4.0,0.0,4.0,4.0,359.7914539277553,2.0,1.0,phase_1,,,,,,,,,,,,,gray,flipped triangle
91.0,6.0,2.0,1.0,1.0,1.0,364.3392007797956,2.0,1.0,phase_1,,,,,,,,,,,,,green,diamond
0.0,3.0,0.0,0.0,3.0,3.0,314.6663641091436,2.0,1.0,phase_1,,,,,,,,,,,,,yellow,hexagon
74.0,1.0,1.0,0.0,1.0,1.0,287.0878509711474,2.0,1.0,phase_1,,,,,,,,,,,,,blue,I
117.0,2.0,2.0,0.0,4.0,4.0,337.6262851525098,2.0,1.0,phase_1,,,,,,,,,,,,,magenta,cross
182.0,7.0,3.0,1.0,2.0,2.0,335.9268561471253,2.0,1.0,phase_1,,,,,,,,,,,,,orange,circle
0.0,1.0,0.0,0.0,3.0,3.0,308.7095809169113,2.0,1.0,phase_1,,,,,,,,,,,,,blue,I
103.0,2.0,2.0,0.0,2.0,2.0,312.6756749115884,2.0,1.0,phase_1,,,,,,,,,,,,,magenta,cross
402.0,8.0,4.0,1.0,3.0,3.0,324.1394818760454,2.0,1.0,phase_1,,,,,,,,,,,,,white,square
55.0,1.0,1.0,0.0,3.0,3.0,402.4931681342423,2.0,1.0,phase_1,,,,,,,,,,,,,blue,I
107.0,6.0,2.0,1.0,2.0,2.0,308.183167129755,2.0,1.0,phase_1,,,,,,,,,,,,,green,diamond
408.0,8.0,4.0,1.0,2.0,2.0,316.3069619331509,2.0,1.0,phase_1,,,,,,,,,,,,,white,square
40.0,5.0,1.0,1.0,4.0,4.0,362.2695337980985,2.0,1.0,phase_1,,,,,,,,,,,,,cyan,triangle
31.0,5.0,1.0,1.0,1.0,1.0,349.7712609823793,2.0,1.0,phase_1,,,,,,,,,,,,,cyan,triangle
42.0,1.0,1.0,0.0,4.0,4.0,411.6311410907656,2.0,1.0,phase_1,,,,,,,,,,,,,blue,I
223.0,7.0,3.0,1.0,2.0,2.0,340.2541130781173,2.0,1.0,phase_1,,,,,,,,,,,,,orange,circle
419.0,4.0,4.0,0.0,3.0,3.0,296.8140011653304,2.0,1.0,phase_1,,,,,,,,,,,,,gray,flipped triangle
52.0,5.0,1.0,1.0,1.0,1.0,413.3083820343017,2.0,1.0,phase_1,,,,,,,,,,,,,cyan,triangle
388.0,8.0,4.0,1.0,4.0,4.0,378.4855261910707,2.0,1.0,phase_1,,,,,,,,,,,,,white,square
0.0,2.0,0.0,0.0,3.0,3.0,326.7512461170554,2.0,1.0,phase_1,,,,,,,,,,,,,magenta,cross
51.0,5.0,1.0,1.0,4.0,4.0,359.5592358615249,2.0,1.0,phase_1,,,,,,,,,,,,,cyan,triangle
223.0,3.0,3.0,0.0,4.0,4.0,410.8407199382782,2.0,1.0,phase_1,,,,,,,,,,,,,yellow,hexagon
42.0,5.0,1.0,1.0,4.0,4.0,340.9652449190616,2.0,1.0,phase_1,,,,,,,,,,,,,cyan,triangle
93.0,6.0,2.0,1.0,3.0,3.0,305.8386580087244,2.0,1.0,phase_1,,,,,,,,,,,,,green,diamond
34.0,1.0,1.0,0.0,2.0,2.0,334.4817040488124,2.0,1.0,phase_1,,,,,,,,,,,,,blue,I
0.0,7.0,0.0,1.0,3.0,3.0,324.7163069900125,2.0,1.0,phase_1,,,,,,,,,,,,,orange,circle
398.0,4.0,4.0,0.0,1.0,1.0,426.4100438449532,2.0,1.0,phase_1,,,,,,,,,,,,,gray,flipped triangle
112.0,2.0,2.0,0.0,3.0,3.0,324.1650289855897,2.0,1.0,phase_1,,,,,,,,,,,,,magenta,cross
46.0,5.0,1.0,1.0,3.0,3.0,329.3814891949296,2.0,1.0,phase_1,,,,,,,,,,,,,cyan,triangle
423.0,8.0,4.0,1.0,4.0,4.0,406.0182410757988,2.0,2.0,phase_1,,,,,,,,,,,,,white,square
47.0,1.0,1.0,0.0,3.0,3.0,609.1047711670399,2.0,1.0,phase_1,,,,,,,,,,,,,blue,I
0.0,4.0,0.0,0.0,3.0,3.0,421.7678881250322,2.0,1.0,phase_1,,,,,,,,,,,,,gray,flipped triangle
101.0,6.0,2.0,1.0,2.0,2.0,402.2406840231269,2.0,1.0,phase_1,,,,,,,,,,,,,green,diamond
189.0,3.0,3.0,0.0,1.0,1.0,373.3124590944499,2.0,1.0,phase_1,,,,,,,,,,,,,yellow,hexagon
0.0,5.0,0.0,1.0,4.0,4.0,371.718670008704,2.0,1.0,phase_1,,,,,,,,,,,,,cyan,triangle
0.0,4.0,0.0,0.0,2.0,2.0,433.7328558322042,2.0,1.0,phase_1,,,,,,,,,,,,,gray,flipped triangle
410.0,4.0,4.0,0.0,3.0,3.0,453.850450925529,2.0,1.0,phase_1,,,,,,,,,,,,,gray,flipped triangle
0.0,6.0,0.0,1.0,1.0,1.0,409.9916818086058,2.0,1.0,phase_1,,,,,,,,,,,,,green,diamond
82.0,6.0,2.0,1.0,4.0,4.0,317.2337589785456,2.0,1.0,phase_1,,,,,,,,,,,,,green,diamond
210.0,7.0,3.0,1.0,4.0,4.0,353.5530599765479,2.0,1.0,phase_1,,,,,,,,,,,,,orange,circle
200.0,3.0,3.0,0.0,4.0,4.0,344.1252678167075,2.0,1.0,phase_1,,,,,,,,,,,,,yellow,hexagon
397.0,8.0,4.0,1.0,3.0,3.0,373.7174170091748,2.0,1.0,phase_1,,,,,,,,,,,,,white,square
106.0,6.0,2.0,1.0,3.0,3.0,376.1263429187238,2.0,1.0,phase_1,,,,,,,,,,,,,green,diamond
419.0,8.0,4.0,1.0,3.0,3.0,462.5410500448197,2.0,1.0,phase_1,,,,,,,,,,,,,white,square
72.0,5.0,1.0,1.0,1.0,1.0,426.8290060572326,2.0,1.0,phase_1,,,,,,,,,,,,,cyan,triangle
379.0,4.0,4.0,0.0,1.0,1.0,391.1886198911816,2.0,1.0,phase_1,,,,,,,,,,,,,gray,flipped triangle
187.0,7.0,3.0,1.0,2.0,2.0,394.2629350349307,2.0,1.0,phase_1,,,,,,,,,,,,,orange,circle
410.0,8.0,4.0,1.0,2.0,2.0,304.1982729919255,2.0,1.0,phase_1,,,,,,,,,,,,,white,square
89.0,6.0,2.0,1.0,2.0,2.0,348.2425019610673,2.0,1.0,phase_1,,,,,,,,,,,,,green,diamond
224.0,7.0,3.0,1.0,2.0,2.0,370.0048769824207,2.0,1.0,phase_1,,,,,,,,,,,,,orange,circle
210.0,3.0,3.0,0.0,2.0,2.0,399.5136828161776,2.0,1.0,phase_1,,,,,,,,,,,,,yellow,hexagon
185.0,7.0,3.0,1.0,3.0,3.0,410.5415251106024,2.0,1.0,phase_1,,,,,,,,,,,,,orange,circle
197.0,3.0,3.0,0.0,1.0,1.0,582.0595968980342,2.0,1.0,phase_1,,,,,,,,,,,,,yellow,hexagon
415.0,8.0,4.0,1.0,3.0,3.0,422.149159014225,2.0,1.0,phase_1,,,,,,,,,,,,,white,square
121.0,6.0,2.0,1.0,1.0,1.0,329.9134920816868,2.0,1.0,phase_1,,,,,,,,,,,,,green,diamond
120.0,6.0,2.0,1.0,4.0,4.0,415.454528061673,2.0,1.0,phase_1,,,,,,,,,,,,,green,diamond
77.0,2.0,2.0,0.0,1.0,1.0,376.8550741951912,2.0,1.0,phase_1,,,,,,,,,,,,,magenta,cross
71.0,1.0,1.0,0.0,2.0,2.0,398.5054739750922,3.0,1.0,phase_1,,,,,,,,,,,,,blue,I
97.0,2.0,2.0,0.0,2.0,2.0,390.4028730466962,3.0,1.0,phase_1,,,,,,,,,,,,,magenta,cross
0.0,3.0,0.0,0.0,1.0,1.0,442.3701160121709,3.0,1.0,phase_1,,,,,,,,,,,,,yellow,hexagon
409.0,8.0,4.0,1.0,1.0,1.0,422.2404540050775,3.0,1.0,phase_1,,,,,,,,,,,,,white,square
90.0,6.0,2.0,1.0,3.0,3.0,347.7196970488876,3.0,1.0,phase_1,,,,,,,,,,,,,green,diamond
196.0,7.0,3.0,1.0,1.0,1.0,406.65689390152687,3.0,1.0,phase_1,,,,,,,,,,,,,orange,circle
411.0,4.0,4.0,0.0,1.0,1.0,380.6508088018745,3.0,1.0,phase_1,,,,,,,,,,,,,gray,flipped triangle
57.0,5.0,1.0,1.0,3.0,3.0,368.002557894215,3.0,1.0,phase_1,,,,,,,,,,,,,cyan,triangle
101.0,6.0,2.0,1.0,1.0,1.0,372.7350539993495,3.0,1.0,phase_1,,,,,,,,,,,,,green,diamond
380.0,4.0,4.0,0.0,1.0,1.0,376.7975859809667,3.0,1.0,phase_1,,,,,,,,,,,,,gray,flipped triangle
76.0,6.0,2.0,1.0,2.0,2.0,361.0282130539417,3.0,1.0,phase_1,,,,,,,,,,,,,green,diamond
0.0,6.0,0.0,1.0,1.0,1.0,438.0718420725316,3.0,1.0,phase_1,,,,,,,,,,,,,green,diamond
0.0,6.0,0.0,1.0,4.0,4.0,296.6327159665525,3.0,1.0,phase_1,,,,,,,,,,,,,green,diamond
52.0,1.0,1.0,0.0,2.0,2.0,301.3420109637081,3.0,1.0,phase_1,,,,,,,,,,,,,blue,I
182.0,3.0,3.0,0.0,3.0,3.0,419.7501970920712,3.0,1.0,phase_1,,,,,,,,,,,,,yellow,hexagon
76.0,6.0,2.0,1.0,2.0,2.0,404.7900182195008,3.0,1.0,phase_1,,,,,,,,,,,,,green,diamond
0.0,8.0,0.0,1.0,3.0,3.0,418.6915480531752,3.0,1.0,phase_1,,,,,,,,,,,,,white,square
0.0,1.0,0.0,0.0,4.0,4.0,494.4627929944545,3.0,1.0,phase_1,,,,,,,,,,,,,blue,I
67.0,5.0,1.0,1.0,1.0,1.0,491.2798150908202,3.0,1.0,phase_1,,,,,,,,,,,,,cyan,triangle
380.0,8.0,4.0,1.0,3.0,3.0,419.6398260537535,3.0,1.0,phase_1,,,,,,,,,,,,,white,square
0.0,3.0,0.0,0.0,2.0,2.0,381.7982280161232,3.0,1.0,phase_1,,,,,,,,,,,,,yellow,hexagon
210.0,3.0,3.0,0.0,3.0,3.0,393.0397641379386,3.0,1.0,phase_1,,,,,,,,,,,,,yellow,hexagon
176.0,7.0,3.0,1.0,2.0,2.0,305.454001063481,3.0,1.0,phase_1,,,,,,,,,,,,,orange,circle
398.0,8.0,4.0,1.0,1.0,1.0,444.8912860825658,3.0,1.0,phase_1,,,,,,,,,,,,,white,square
88.0,2.0,2.0,0.0,4.0,4.0,369.5047339424491,3.0,1.0,phase_1,,,,,,,,,,,,,magenta,cross
119.0,6.0,2.0,1.0,2.0,2.0,356.2607858330011,3.0,1.0,phase_1,,,,,,,,,,,,,green,diamond
380.0,8.0,4.0,1.0,3.0,3.0,466.8503270950168,3.0,1.0,phase_1,,,,,,,,,,,,,white,square
0.0,8.0,0.0,1.0,3.0,3.0,405.2996919490397,3.0,1.0,phase_1,,,,,,,,,,,,,white,square
52.0,1.0,1.0,0.0,2.0,2.0,498.2010638341307,3.0,1.0,phase_1,,,,,,,,,,,,,blue,I
92.0,6.0,2.0,1.0,1.0,1.0,482.4812058359384,3.0,1.0,phase_1,,,,,,,,,,,,,green,diamond
0.0,5.0,0.0,1.0,3.0,3.0,348.72108791023487,3.0,1.0,phase_1,,,,,,,,,,,,,cyan,triangle
0.0,1.0,0.0,0.0,3.0,3.0,427.2928549908101,3.0,1.0,phase_1,,,,,,,,,,,,,blue,I
418.0,8.0,4.0,1.0,1.0,1.0,479.5041149482131,3.0,1.0,phase_1,,,,,,,,,,,,,white,square
93.0,2.0,2.0,0.0,1.0,1.0,452.8034660033881,3.0,1.0,phase_1,,,,,,,,,,,,,magenta,cross
49.0,1.0,1.0,0.0,1.0,1.0,405.7019019965082,3.0,1.0,phase_1,,,,,,,,,,,,,blue,I
196.0,7.0,3.0,1.0,4.0,4.0,381.9043689873069,3.0,1.0,phase_1,,,,,,,,,,,,,orange,circle
0.0,6.0,0.0,1.0,4.0,4.0,369.3426419049501,3.0,1.0,phase_1,,,,,,,,,,,,,green,diamond
101.0,2.0,2.0,0.0,4.0,4.0,398.654859047383,3.0,1.0,phase_1,,,,,,,,,,,,,magenta,cross
38.0,5.0,1.0,1.0,2.0,2.0,459.2153490521014,3.0,1.0,phase_1,,,,,,,,,,,,,cyan,triangle
202.0,3.0,3.0,0.0,1.0,1.0,351.6774431336671,3.0,1.0,phase_1,,,,,,,,,,,,,yellow,hexagon
56.0,1.0,1.0,0.0,3.0,3.0,397.9077069088816,3.0,1.0,phase_1,,,,,,,,,,,,,blue,I
202.0,7.0,3.0,1.0,4.0,4.0,450.4321929998696,3.0,1.0,phase_1,,,,,,,,,,,,,orange,circle
77.0,6.0,2.0,1.0,3.0,3.0,477.8421439696103,3.0,1.0,phase_1,,,,,,,,,,,,,green,diamond
0.0,3.0,0.0,0.0,4.0,4.0,424.4140970986336,3.0,1.0,phase_1,,,,,,,,,,,,,yellow,hexagon
223.0,7.0,3.0,1.0,2.0,2.0,445.5849900841713,3.0,1.0,phase_1,,,,,,,,,,,,,orange,circle
380.0,8.0,4.0,1.0,1.0,1.0,555.2644659765065,3.0,1.0,phase_1,,,,,,,,,,,,,white,square
76.0,6.0,2.0,1.0,1.0,1.0,437.9006698727608,3.0,1.0,phase_1,,,,,,,,,,,,,green,diamond
392.0,8.0,4.0,1.0,2.0,2.0,436.6891901008785,3.0,1.0,phase_1,,,,,,,,,,,,,white,square
0.0,5.0,0.0,1.0,1.0,1.0,353.4433229360729,3.0,1.0,phase_1,,,,,,,,,,,,,cyan,triangle
382.0,4.0,4.0,0.0,3.0,3.0,486.0053369775414,3.0,1.0,phase_1,,,,,,,,,,,,,gray,flipped triangle
393.0,8.0,4.0,1.0,4.0,4.0,339.346993016079,3.0,1.0,phase_1,,,,,,,,,,,,,white,square
391.0,8.0,4.0,1.0,4.0,4.0,393.6891870107502,3.0,1.0,phase_1,,,,,,,,,,,,,white,square
104.0,6.0,2.0,1.0,3.0,3.0,548.1433249078691,3.0,1.0,phase_1,,,,,,,,,,,,,green,diamond
0.0,4.0,0.0,0.0,4.0,4.0,400.6916100624949,3.0,1.0,phase_1,,,,,,,,,,,,,gray,flipped triangle
393.0,4.0,4.0,0.0,1.0,1.0,518.2092220056802,3.0,1.0,phase_1,,,,,,,,,,,,,gray,flipped triangle
36.0,1.0,1.0,0.0,1.0,1.0,888.9059210196137,3.0,1.0,phase_1,,,,,,,,,,,,,blue,I
47.0,5.0,1.0,1.0,2.0,2.0,549.7943002264947,3.0,1.0,phase_1,,,,,,,,,,,,,cyan,triangle
408.0,4.0,4.0,0.0,4.0,4.0,420.5781330820173,3.0,1.0,phase_1,,,,,,,,,,,,,gray,flipped triangle
387.0,4.0,4.0,0.0,2.0,2.0,406.4854979515075,3.0,1.0,phase_1,,,,,,,,,,,,,gray,flipped triangle
120.0,6.0,2.0,1.0,2.0,2.0,348.5491769388318,3.0,1.0,phase_1,,,,,,,,,,,,,green,diamond
396.0,4.0,4.0,0.0,2.0,2.0,354.200973873958,3.0,1.0,phase_1,,,,,,,,,,,,,gray,flipped triangle
101.0,6.0,2.0,1.0,3.0,3.0,413.5638349689543,3.0,1.0,phase_1,,,,,,,,,,,,,green,diamond
190.0,3.0,3.0,0.0,4.0,4.0,441.7352639138698,3.0,1.0,phase_1,,,,,,,,,,,,,yellow,hexagon
0.0,7.0,0.0,1.0,1.0,1.0,358.304199995473,3.0,1.0,phase_1,,,,,,,,,,,,,orange,circle
84.0,2.0,2.0,0.0,2.0,2.0,506.47106394171715,3.0,1.0,phase_1,,,,,,,,,,,,,magenta,cross
0.0,5.0,0.0,1.0,1.0,1.0,471.2996981106698,3.0,1.0,phase_1,,,,,,,,,,,,,cyan,triangle
43.0,5.0,1.0,1.0,3.0,3.0,420.5585229210555,3.0,1.0,phase_1,,,,,,,,,,,,,cyan,triangle
115.0,6.0,2.0,1.0,4.0,4.0,377.5572648737579,3.0,1.0,phase_1,,,,,,,,,,,,,green,diamond
0.0,8.0,0.0,1.0,1.0,1.0,423.3766058459878,3.0,1.0,phase_1,,,,,,,,,,,,,white,square
101.0,2.0,2.0,0.0,4.0,4.0,28.6489818245172,3.0,1.0,phase_1,,,,,,,,,,,,,magenta,cross
204.0,3.0,3.0,0.0,2.0,2.0,328.6498140078038,3.0,1.0,phase_1,,,,,,,,,,,,,yellow,hexagon
200.0,3.0,3.0,0.0,3.0,3.0,259.5832741353661,3.0,1.0,phase_1,,,,,,,,,,,,,yellow,hexagon
76.0,2.0,2.0,0.0,2.0,2.0,281.0861838515848,3.0,1.0,phase_1,,,,,,,,,,,,,magenta,cross
422.0,8.0,4.0,1.0,3.0,3.0,343.492061831057,3.0,1.0,phase_1,,,,,,,,,,,,,white,square
36.0,5.0,1.0,1.0,1.0,1.0,292.0002068858593,3.0,1.0,phase_1,,,,,,,,,,,,,cyan,triangle
219.0,3.0,3.0,0.0,4.0,4.0,361.5841050632298,3.0,1.0,phase_1,,,,,,,,,,,,,yellow,hexagon
214.0,7.0,3.0,1.0,3.0,3.0,461.6544430609792,3.0,1.0,phase_1,,,,,,,,,,,,,orange,circle
0.0,1.0,0.0,0.0,2.0,2.0,363.1721890997141,3.0,1.0,phase_1,,,,,,,,,,,,,blue,I
190.0,7.0,3.0,1.0,4.0,4.0,364.238569047302,3.0,1.0,phase_1,,,,,,,,,,,,,orange,circle
0.0,6.0,0.0,1.0,4.0,4.0,364.5613400731236,3.0,1.0,phase_1,,,,,,,,,,,,,green,diamond
47.0,5.0,1.0,1.0,4.0,4.0,368.3217328507453,3.0,1.0,phase_1,,,,,,,,,,,,,cyan,triangle
0.0,7.0,0.0,1.0,4.0,4.0,482.3365129996091,3.0,1.0,phase_1,,,,,,,,,,,,,orange,circle
55.0,5.0,1.0,1.0,4.0,4.0,369.8622081428766,3.0,1.0,phase_1,,,,,,,,,,,,,cyan,triangle
389.0,4.0,4.0,0.0,4.0,4.0,398.2231491245329,3.0,1.0,phase_1,,,,,,,,,,,,,gray,flipped triangle
0.0,4.0,0.0,0.0,1.0,1.0,556.3779179938138,3.0,1.0,phase_1,,,,,,,,,,,,,gray,flipped triangle
411.0,4.0,4.0,0.0,3.0,3.0,446.6919850092381,3.0,1.0,phase_1,,,,,,,,,,,,,gray,flipped triangle
387.0,8.0,4.0,1.0,2.0,2.0,403.656963026151,3.0,1.0,phase_1,,,,,,,,,,,,,white,square
0.0,3.0,0.0,0.0,3.0,3.0,354.1758030187338,3.0,1.0,phase_1,,,,,,,,,,,,,yellow,hexagon
115.0,2.0,2.0,0.0,3.0,3.0,309.2887469101697,3.0,1.0,phase_1,,,,,,,,,,,,,magenta,cross
45.0,1.0,1.0,0.0,4.0,4.0,353.7256100680679,3.0,1.0,phase_1,,,,,,,,,,,,,blue,I
405.0,4.0,4.0,0.0,2.0,2.0,356.0723529662937,3.0,1.0,phase_1,,,,,,,,,,,,,gray,flipped triangle
96.0,6.0,2.0,1.0,2.0,2.0,380.1389909349382,3.0,1.0,phase_1,,,,,,,,,,,,,green,diamond
206.0,7.0,3.0,1.0,3.0,3.0,328.6713240668177,3.0,1.0,phase_1,,,,,,,,,,,,,orange,circle
106.0,2.0,2.0,0.0,4.0,4.0,372.4300339818001,3.0,1.0,phase_1,,,,,,,,,,,,,magenta,cross
181.0,7.0,3.0,1.0,3.0,3.0,336.1547528766095,3.0,1.0,phase_1,,,,,,,,,,,,,orange,circle
0.0,2.0,0.0,0.0,1.0,1.0,284.1677900869399,3.0,1.0,phase_1,,,,,,,,,,,,,magenta,cross
391.0,8.0,4.0,1.0,1.0,1.0,385.3885589633137,3.0,1.0,phase_1,,,,,,,,,,,,,white,square
0.0,1.0,0.0,0.0,4.0,4.0,341.8335078749805,3.0,1.0,phase_1,,,,,,,,,,,,,blue,I
397.0,4.0,4.0,0.0,4.0,4.0,402.5778737850487,3.0,1.0,phase_1,,,,,,,,,,,,,gray,flipped triangle
0.0,8.0,0.0,1.0,1.0,1.0,328.3897340297699,3.0,1.0,phase_1,,,,,,,,,,,,,white,square
99.0,2.0,2.0,0.0,3.0,3.0,361.3151500467211,4.0,1.0,phase_1,,,,,,,,,,,,,magenta,cross
206.0,3.0,3.0,0.0,2.0,2.0,357.2551049292087,4.0,1.0,phase_1,,,,,,,,,,,,,yellow,hexagon
409.0,4.0,4.0,0.0,1.0,1.0,251.22074107639492,4.0,1.0,phase_1,,,,,,,,,,,,,gray,flipped triangle
76.0,2.0,2.0,0.0,1.0,1.0,279.5943520031869,4.0,1.0,phase_1,,,,,,,,,,,,,magenta,cross
190.0,3.0,3.0,0.0,2.0,2.0,382.4889638926834,4.0,1.0,phase_1,,,,,,,,,,,,,yellow,hexagon
402.0,4.0,4.0,0.0,4.0,4.0,289.0527369454503,4.0,1.0,phase_1,,,,,,,,,,,,,gray,flipped triangle
422.0,4.0,4.0,0.0,1.0,1.0,352.7584411203861,4.0,1.0,phase_1,,,,,,,,,,,,,gray,flipped triangle
0.0,5.0,0.0,1.0,1.0,1.0,313.6187079362571,4.0,1.0,phase_1,,,,,,,,,,,,,cyan,triangle
52.0,5.0,1.0,1.0,4.0,4.0,330.4346890654415,4.0,1.0,phase_1,,,,,,,,,,,,,cyan,triangle
223.0,3.0,3.0,0.0,4.0,4.0,293.1542310398072,4.0,1.0,phase_1,,,,,,,,,,,,,yellow,hexagon
189.0,3.0,3.0,0.0,4.0,4.0,313.8133019674569,4.0,1.0,phase_1,,,,,,,,,,,,,yellow,hexagon
180.0,3.0,3.0,0.0,3.0,3.0,420.1539049390703,4.0,1.0,phase_1,,,,,,,,,,,,,yellow,hexagon
0.0,2.0,0.0,0.0,3.0,3.0,364.398400997743,4.0,1.0,phase_1,,,,,,,,,,,,,magenta,cross
0.0,4.0,0.0,0.0,3.0,3.0,389.8739160504192,4.0,1.0,phase_1,,,,,,,,,,,,,gray,flipped triangle
212.0,3.0,3.0,0.0,2.0,2.0,346.123683033511,4.0,1.0,phase_1,,,,,,,,,,,,,yellow,hexagon
0.0,4.0,0.0,0.0,2.0,2.0,377.4760779924691,4.0,1.0,phase_1,,,,,,,,,,,,,gray,flipped triangle
391.0,4.0,4.0,0.0,2.0,2.0,428.9565759245306,4.0,1.0,phase_1,,,,,,,,,,,,,gray,flipped triangle
0.0,3.0,0.0,0.0,1.0,1.0,428.5908180754632,4.0,1.0,phase_1,,,,,,,,,,,,,yellow,hexagon
209.0,7.0,3.0,1.0,4.0,4.0,478.9964819792658,4.0,1.0,phase_1,,,,,,,,,,,,,orange,circle
74.0,5.0,1.0,1.0,2.0,2.0,380.4127678740769,4.0,1.0,phase_1,,,,,,,,,,,,,cyan,triangle
0.0,7.0,0.0,1.0,4.0,4.0,287.2538878582418,4.0,1.0,phase_1,,,,,,,,,,,,,orange,circle
63.0,1.0,1.0,0.0,4.0,4.0,413.8131928630173,4.0,1.0,phase_1,,,,,,,,,,,,,blue,I
402.0,8.0,4.0,1.0,2.0,2.0,544.1505960188806,4.0,1.0,phase_1,,,,,,,,,,,,,white,square
181.0,3.0,3.0,0.0,2.0,2.0,446.8257050029933,4.0,1.0,phase_1,,,,,,,,,,,,,yellow,hexagon
424.0,8.0,4.0,1.0,1.0,1.0,321.1137969046831,4.0,1.0,phase_1,,,,,,,,,,,,,white,square
44.0,5.0,1.0,1.0,3.0,3.0,385.7533549889922,4.0,1.0,phase_1,,,,,,,,,,,,,cyan,triangle
180.0,7.0,3.0,1.0,1.0,1.0,388.8598619960248,4.0,1.0,phase_1,,,,,,,,,,,,,orange,circle
403.0,4.0,4.0,0.0,3.0,3.0,384.9333811085671,4.0,1.0,phase_1,,,,,,,,,,,,,gray,flipped triangle
189.0,7.0,3.0,1.0,2.0,2.0,341.7039350606501,4.0,1.0,phase_1,,,,,,,,,,,,,orange,circle
56.0,5.0,1.0,1.0,1.0,1.0,328.8635651115328,4.0,1.0,phase_1,,,,,,,,,,,,,cyan,triangle
0.0,6.0,0.0,1.0,1.0,1.0,389.0688479878008,4.0,1.0,phase_1,,,,,,,,,,,,,green,diamond
0.0,7.0,0.0,1.0,4.0,4.0,324.7695530299097,4.0,1.0,phase_1,,,,,,,,,,,,,orange,circle
389.0,4.0,4.0,0.0,1.0,1.0,402.8622128535062,4.0,1.0,phase_1,,,,,,,,,,,,,gray,flipped triangle
88.0,6.0,2.0,1.0,3.0,3.0,381.6101811826229,4.0,1.0,phase_1,,,,,,,,,,,,,green,diamond
396.0,8.0,4.0,1.0,4.0,4.0,450.5955530330539,4.0,1.0,phase_1,,,,,,,,,,,,,white,square
187.0,3.0,3.0,0.0,2.0,2.0,365.2882389724254,4.0,1.0,phase_1,,,,,,,,,,,,,yellow,hexagon
196.0,3.0,3.0,0.0,3.0,3.0,419.1094790585339,4.0,1.0,phase_1,,,,,,,,,,,,,yellow,hexagon
87.0,6.0,2.0,1.0,1.0,1.0,368.6418009456247,4.0,1.0,phase_1,,,,,,,,,,,,,green,diamond
25.0,1.0,1.0,0.0,3.0,3.0,523.0931399855763,4.0,1.0,phase_1,,,,,,,,,,,,,blue,I
64.0,1.0,1.0,0.0,1.0,1.0,338.752290001139,4.0,1.0,phase_1,,,,,,,,,,,,,blue,I
0.0,7.0,0.0,1.0,2.0,2.0,462.1323661413044,4.0,1.0,phase_1,,,,,,,,,,,,,orange,circle
402.0,4.0,4.0,0.0,3.0,3.0,333.1775129772722,4.0,1.0,phase_1,,,,,,,,,,,,,gray,flipped triangle
0.0,2.0,0.0,0.0,1.0,1.0,383.5440799593925,4.0,1.0,phase_1,,,,,,,,,,,,,magenta,cross
105.0,6.0,2.0,1.0,2.0,2.0,418.8241541851312,4.0,1.0,phase_1,,,,,,,,,,,,,green,diamond
220.0,3.0,3.0,0.0,1.0,1.0,371.1053219158202,4.0,1.0,phase_1,,,,,,,,,,,,,yellow,hexagon
97.0,6.0,2.0,1.0,1.0,1.0,380.4995820391923,4.0,1.0,phase_1,,,,,,,,,,,,,green,diamond
425.0,4.0,4.0,0.0,1.0,1.0,376.3391869142651,4.0,1.0,phase_1,,,,,,,,,,,,,gray,flipped triangle
0.0,5.0,0.0,1.0,2.0,2.0,422.5558110047132,4.0,1.0,phase_1,,,,,,,,,,,,,cyan,triangle
25.0,5.0,1.0,1.0,1.0,1.0,413.5208160150796,4.0,1.0,phase_1,,,,,,,,,,,,,cyan,triangle
424.0,4.0,4.0,0.0,2.0,2.0,337.6969578675926,4.0,1.0,phase_1,,,,,,,,,,,,,gray,flipped triangle
415.0,4.0,4.0,0.0,3.0,3.0,389.6996730472892,4.0,1.0,phase_1,,,,,,,,,,,,,gray,flipped triangle
0.0,1.0,0.0,0.0,1.0,1.0,368.4684589970857,4.0,1.0,phase_1,,,,,,,,,,,,,blue,I
0.0,8.0,0.0,1.0,4.0,4.0,364.3565138336271,4.0,1.0,phase_1,,,,,,,,,,,,,white,square
82.0,2.0,2.0,0.0,1.0,1.0,435.3665818925947,4.0,1.0,phase_1,,,,,,,,,,,,,magenta,cross
70.0,5.0,1.0,1.0,1.0,1.0,333.7607390712946,4.0,1.0,phase_1,,,,,,,,,,,,,cyan,triangle
67.0,1.0,1.0,0.0,1.0,1.0,387.2104610782116,4.0,1.0,phase_1,,,,,,,,,,,,,blue,I
207.0,3.0,3.0,0.0,1.0,1.0,345.4575999639928,4.0,1.0,phase_1,,,,,,,,,,,,,yellow,hexagon
380.0,4.0,4.0,0.0,4.0,4.0,349.7429108247161,4.0,1.0,phase_1,,,,,,,,,,,,,gray,flipped triangle
411.0,8.0,4.0,1.0,4.0,4.0,468.9677068963647,4.0,1.0,phase_1,,,,,,,,,,,,,white,square
403.0,8.0,4.0,1.0,2.0,2.0,399.7164440806955,4.0,1.0,phase_1,,,,,,,,,,,,,white,square
70.0,1.0,1.0,0.0,1.0,1.0,340.1042600162327,4.0,1.0,phase_1,,,,,,,,,,,,,blue,I
32.0,5.0,1.0,1.0,3.0,3.0,430.670514004305,4.0,1.0,phase_1,,,,,,,,,,,,,cyan,triangle
210.0,7.0,3.0,1.0,2.0,2.0,395.2862708829343,4.0,1.0,phase_1,,,,,,,,,,,,,orange,circle
224.0,3.0,3.0,0.0,4.0,4.0,361.1527881585061,4.0,1.0,phase_1,,,,,,,,,,,,,yellow,hexagon
87.0,2.0,2.0,0.0,4.0,4.0,334.1537090018391,4.0,1.0,phase_1,,,,,,,,,,,,,magenta,cross
194.0,7.0,3.0,1.0,1.0,1.0,345.9825031459331,4.0,1.0,phase_1,,,,,,,,,,,,,orange,circle
219.0,7.0,3.0,1.0,1.0,1.0,304.1691759135574,4.0,1.0,phase_1,,,,,,,,,,,,,orange,circle
0.0,6.0,0.0,1.0,2.0,2.0,336.4664090331644,4.0,2.0,phase_1,,,,,,,,,,,,,green,diamond
0.0,3.0,0.0,0.0,2.0,2.0,452.1967598702758,4.0,1.0,phase_1,,,,,,,,,,,,,yellow,hexagon
392.0,4.0,4.0,0.0,3.0,3.0,434.384194901213,4.0,1.0,phase_1,,,,,,,,,,,,,gray,flipped triangle
42.0,1.0,1.0,0.0,1.0,1.0,639.7294220514596,4.0,1.0,phase_1,,,,,,,,,,,,,blue,I
110.0,6.0,2.0,1.0,1.0,1.0,324.5149629656225,4.0,1.0,phase_1,,,,,,,,,,,,,green,diamond
92.0,2.0,2.0,0.0,4.0,4.0,390.9624579828232,4.0,1.0,phase_1,,,,,,,,,,,,,magenta,cross
34.0,5.0,1.0,1.0,3.0,3.0,406.9847809150815,4.0,1.0,phase_1,,,,,,,,,,,,,cyan,triangle
47.0,1.0,1.0,0.0,4.0,4.0,362.1813079807907,4.0,1.0,phase_1,,,,,,,,,,,,,blue,I
57.0,1.0,1.0,0.0,4.0,4.0,368.082505883649,4.0,1.0,phase_1,,,,,,,,,,,,,blue,I
0.0,1.0,0.0,0.0,2.0,2.0,356.769016943872,4.0,1.0,phase_1,,,,,,,,,,,,,blue,I
0.0,6.0,0.0,1.0,4.0,4.0,369.6402278728783,4.0,1.0,phase_1,,,,,,,,,,,,,green,diamond
190.0,7.0,3.0,1.0,3.0,3.0,381.677723955363,4.0,1.0,phase_1,,,,,,,,,,,,,orange,circle
120.0,2.0,2.0,0.0,1.0,1.0,378.433683887124,4.0,1.0,phase_1,,,,,,,,,,,,,magenta,cross
47.0,5.0,1.0,1.0,3.0,3.0,445.1923260930925,4.0,1.0,phase_1,,,,,,,,,,,,,cyan,triangle
0.0,2.0,0.0,0.0,1.0,1.0,365.3072351589799,4.0,1.0,phase_1,,,,,,,,,,,,,magenta,cross
205.0,3.0,3.0,0.0,3.0,3.0,393.85687396861607,4.0,1.0,phase_1,,,,,,,,,,,,,yellow,hexagon
89.0,2.0,2.0,0.0,3.0,3.0,379.1824418585747,4.0,1.0,phase_1,,,,,,,,,,,,,magenta,cross
0.0,4.0,0.0,0.0,2.0,2.0,337.3463118914515,4.0,1.0,phase_1,,,,,,,,,,,,,gray,flipped triangle
197.0,7.0,3.0,1.0,3.0,3.0,374.0333220921457,4.0,1.0,phase_1,,,,,,,,,,,,,orange,circle
115.0,6.0,2.0,1.0,2.0,2.0,346.473028883338,4.0,1.0,phase_1,,,,,,,,,,,,,green,diamond
393.0,4.0,4.0,0.0,3.0,3.0,374.290666077286,4.0,1.0,phase_1,,,,,,,,,,,,,gray,flipped triangle
107.0,2.0,2.0,0.0,2.0,2.0,370.3250898979604,4.0,1.0,phase_1,,,,,,,,,,,,,magenta,cross
186.0,7.0,3.0,1.0,3.0,3.0,386.2092678900808,4.0,1.0,phase_1,,,,,,,,,,,,,orange,circle
389.0,8.0,4.0,1.0,3.0,3.0,381.5044891089201,4.0,1.0,phase_1,,,,,,,,,,,,,white,square
43.0,1.0,1.0,0.0,4.0,4.0,368.6631489545107,4.0,1.0,phase_1,,,,,,,,,,,,,blue,I
391.0,8.0,4.0,1.0,2.0,2.0,389.3903219141066,4.0,1.0,phase_1,,,,,,,,,,,,,white,square
176.0,3.0,3.0,0.0,4.0,4.0,475.1514228992164,4.0,1.0,phase_1,,,,,,,,,,,,,yellow,hexagon
38.0,1.0,1.0,0.0,2.0,2.0,392.0919150114059,4.0,1.0,phase_1,,,,,,,,,,,,,blue,I
117.0,6.0,2.0,1.0,1.0,1.0,347.7244090754539,4.0,1.0,phase_1,,,,,,,,,,,,,green,diamond
55.0,5.0,1.0,1.0,2.0,2.0,417.4833039287478,4.0,1.0,phase_1,,,,,,,,,,,,,cyan,triangle
402.0,8.0,4.0,1.0,1.0,1.0,364.407385000959,4.0,1.0,phase_1,,,,,,,,,,,,,white,square
389.0,8.0,4.0,1.0,3.0,3.0,433.9552749879658,4.0,1.0,phase_1,,,,,,,,,,,,,white,square
66.0,1.0,1.0,0.0,4.0,4.0,329.2573490180075,4.0,1.0,phase_1,,,,,,,,,,,,,blue,I
0.0,2.0,2.0,0.0,5.0,5.0,425.4916990175843,1.0,1.0,phase_2,go,250.0,250.0,1.0,,,,,,,,,magenta,cross
0.0,1.0,1.0,0.0,6.0,6.0,658.5749131627381,1.0,1.0,phase_2,go,250.0,250.0,1.0,,,,,,,,,blue,I
0.0,1.0,1.0,0.0,6.0,6.0,599.3076369632035,1.0,1.0,phase_2,go,250.0,250.0,1.0,,,,,,,,,blue,I
0.0,4.0,4.0,0.0,5.0,5.0,606.7828650120646,1.0,1.0,phase_2,go,250.0,250.0,1.0,,,,,,,,,gray,flipped triangle
0.0,2.0,2.0,0.0,6.0,6.0,737.7424959558994,1.0,1.0,phase_2,go,250.0,250.0,1.0,,,,,,,,,magenta,cross
0.0,1.0,1.0,0.0,5.0,5.0,568.4956260956824,1.0,1.0,phase_2,go,250.0,250.0,1.0,,,,,,,,,blue,I
0.0,7.0,3.0,1.0,6.0,6.0,527.6356611866504,1.0,1.0,phase_2,stop,250.0,250.0,3.0,,,,,,,,,orange,circle
0.0,3.0,3.0,0.0,5.0,5.0,783.8461878709495,1.0,1.0,phase_2,go,250.0,200.0,1.0,,,,,,,,,yellow,hexagon
0.0,2.0,2.0,0.0,6.0,6.0,782.7614259440452,1.0,1.0,phase_2,go,250.0,200.0,1.0,,,,,,,,,magenta,cross
0.0,4.0,4.0,0.0,6.0,6.0,645.0511009898037,1.0,1.0,phase_2,go,250.0,200.0,1.0,,,,,,,,,gray,flipped triangle
0.0,6.0,2.0,1.0,6.0,0.0,0.0,1.0,1.0,phase_2,stop,250.0,200.0,4.0,,,,,,,,,green,diamond
0.0,5.0,1.0,1.0,6.0,6.0,545.8483749534935,1.0,1.0,phase_2,go,250.0,250.0,1.0,,,,,,,,,cyan,triangle
0.0,5.0,1.0,1.0,5.0,0.0,0.0,1.0,1.0,phase_2,stop,250.0,250.0,4.0,,,,,,,,,cyan,triangle
0.0,4.0,4.0,0.0,5.0,5.0,704.789306037128,1.0,1.0,phase_2,go,300.0,250.0,1.0,,,,,,,,,gray,flipped triangle
0.0,8.0,4.0,1.0,6.0,0.0,0.0,1.0,1.0,phase_2,stop,300.0,250.0,4.0,,,,,,,,,white,square
0.0,1.0,1.0,0.0,6.0,6.0,744.4089010823518,1.0,1.0,phase_2,go,300.0,300.0,1.0,,,,,,,,,blue,I
0.0,6.0,2.0,1.0,5.0,5.0,664.1729448456317,1.0,1.0,phase_2,go,300.0,300.0,1.0,,,,,,,,,green,diamond
0.0,8.0,4.0,1.0,5.0,5.0,800.2964039333165,1.0,1.0,phase_2,go,300.0,300.0,1.0,,,,,,,,,white,square
0.0,7.0,3.0,1.0,5.0,0.0,0.0,1.0,1.0,phase_2,stop,300.0,300.0,4.0,,,,,,,,,orange,circle
0.0,4.0,4.0,0.0,5.0,5.0,686.5387421566993,1.0,1.0,phase_2,go,350.0,300.0,1.0,,,,,,,,,gray,flipped triangle
0.0,3.0,3.0,0.0,5.0,5.0,1325.50168200396,1.0,1.0,phase_2,go,350.0,300.0,1.0,,,,,,,,,yellow,hexagon
0.0,4.0,4.0,0.0,6.0,6.0,476.7922749742865,1.0,1.0,phase_2,go,350.0,300.0,1.0,,,,,,,,,gray,flipped triangle
0.0,7.0,3.0,1.0,6.0,0.0,0.0,1.0,1.0,phase_2,stop,350.0,300.0,4.0,,,,,,,,,orange,circle
0.0,1.0,1.0,0.0,6.0,6.0,772.0965100452304,1.0,1.0,phase_2,go,350.0,350.0,1.0,,,,,,,,,blue,I
0.0,6.0,2.0,1.0,5.0,0.0,0.0,1.0,1.0,phase_2,stop,350.0,350.0,4.0,,,,,,,,,green,diamond
0.0,2.0,2.0,0.0,6.0,6.0,382.2442039381712,1.0,1.0,phase_2,go,400.0,350.0,1.0,,,,,,,,,magenta,cross
0.0,5.0,1.0,1.0,5.0,0.0,0.0,1.0,1.0,phase_2,stop,400.0,350.0,4.0,,,,,,,,,cyan,triangle
0.0,5.0,1.0,1.0,6.0,6.0,403.3352460246533,1.0,1.0,phase_2,stop,450.0,350.0,3.0,,,,,,,,,cyan,triangle
0.0,6.0,2.0,1.0,6.0,0.0,0.0,1.0,1.0,phase_2,stop,450.0,300.0,4.0,,,,,,,,,green,diamond
0.0,1.0,1.0,0.0,5.0,5.0,769.2547859624028,1.0,1.0,phase_2,go,450.0,350.0,1.0,,,,,,,,,blue,I
0.0,2.0,2.0,0.0,6.0,6.0,639.4339250400662,1.0,1.0,phase_2,go,450.0,350.0,1.0,,,,,,,,,magenta,cross
0.0,3.0,3.0,0.0,5.0,5.0,769.766922108829,1.0,1.0,phase_2,go,450.0,350.0,1.0,,,,,,,,,yellow,hexagon
0.0,8.0,4.0,1.0,5.0,0.0,0.0,1.0,1.0,phase_2,stop,450.0,350.0,4.0,,,,,,,,,white,square
0.0,4.0,4.0,0.0,5.0,5.0,398.4885960817337,1.0,1.0,phase_2,go,500.0,350.0,1.0,,,,,,,,,gray,flipped triangle
0.0,7.0,3.0,1.0,6.0,0.0,0.0,1.0,1.0,phase_2,stop,500.0,350.0,4.0,,,,,,,,,orange,circle
0.0,5.0,1.0,1.0,5.0,0.0,0.0,1.0,1.0,phase_2,stop,500.0,400.0,4.0,,,,,,,,,cyan,triangle
0.0,6.0,2.0,1.0,6.0,6.0,801.656334893778,2.0,1.0,phase_2,stop,550.0,400.0,3.0,,,,,,,,,green,diamond
0.0,3.0,3.0,0.0,5.0,5.0,575.4282979760319,2.0,1.0,phase_2,go,550.0,350.0,1.0,,,,,,,,,yellow,hexagon
0.0,5.0,1.0,1.0,5.0,5.0,487.1170930564403,2.0,1.0,phase_2,go,550.0,350.0,1.0,,,,,,,,,cyan,triangle
0.0,2.0,2.0,0.0,6.0,6.0,370.3607639763504,2.0,1.0,phase_2,go,550.0,350.0,1.0,,,,,,,,,magenta,cross
0.0,6.0,2.0,1.0,5.0,5.0,458.4649100434035,2.0,1.0,phase_2,stop,550.0,350.0,3.0,,,,,,,,,green,diamond
0.0,3.0,3.0,0.0,6.0,6.0,485.4309211950749,2.0,1.0,phase_2,go,500.0,350.0,1.0,,,,,,,,,yellow,hexagon
0.0,8.0,4.0,1.0,6.0,0.0,0.0,2.0,1.0,phase_2,stop,500.0,350.0,4.0,,,,,,,,,white,square
0.0,3.0,3.0,0.0,5.0,5.0,391.0983549430966,2.0,1.0,phase_2,go,500.0,400.0,1.0,,,,,,,,,yellow,hexagon
0.0,8.0,4.0,1.0,6.0,0.0,0.0,2.0,1.0,phase_2,stop,500.0,400.0,4.0,,,,,,,,,white,square
0.0,5.0,1.0,1.0,5.0,5.0,556.2681008595973,2.0,1.0,phase_2,stop,500.0,450.0,3.0,,,,,,,,,cyan,triangle
0.0,4.0,4.0,0.0,6.0,6.0,626.7243560869247,2.0,1.0,phase_2,go,450.0,450.0,1.0,,,,,,,,,gray,flipped triangle
0.0,7.0,3.0,1.0,6.0,6.0,509.3943958636373,2.0,1.0,phase_2,stop,450.0,450.0,3.0,,,,,,,,,orange,circle
0.0,2.0,2.0,0.0,5.0,5.0,515.5940200202167,2.0,1.0,phase_2,go,450.0,400.0,1.0,,,,,,,,,magenta,cross
0.0,7.0,3.0,1.0,6.0,0.0,0.0,2.0,1.0,phase_2,stop,450.0,400.0,4.0,,,,,,,,,orange,circle
0.0,7.0,3.0,1.0,5.0,5.0,762.409748043865,2.0,1.0,phase_2,stop,450.0,450.0,3.0,,,,,,,,,orange,circle
0.0,2.0,2.0,0.0,5.0,5.0,529.6894239727408,2.0,1.0,phase_2,go,400.0,450.0,1.0,,,,,,,,,magenta,cross
0.0,8.0,4.0,1.0,5.0,5.0,608.2538338378072,2.0,1.0,phase_2,go,400.0,450.0,1.0,,,,,,,,,white,square
0.0,1.0,1.0,0.0,5.0,5.0,542.719337856397,2.0,1.0,phase_2,go,400.0,450.0,1.0,,,,,,,,,blue,I
0.0,7.0,3.0,1.0,5.0,5.0,641.5311570744962,2.0,1.0,phase_2,go,400.0,450.0,1.0,,,,,,,,,orange,circle
0.0,1.0,1.0,0.0,6.0,6.0,503.31304990686476,2.0,1.0,phase_2,go,400.0,450.0,1.0,,,,,,,,,blue,I
0.0,5.0,1.0,1.0,6.0,6.0,487.2021060436964,2.0,1.0,phase_2,stop,400.0,450.0,3.0,,,,,,,,,cyan,triangle
0.0,5.0,1.0,1.0,6.0,6.0,583.6097709834576,2.0,1.0,phase_2,go,400.0,400.0,1.0,,,,,,,,,cyan,triangle
0.0,2.0,2.0,0.0,5.0,5.0,575.5658480338752,2.0,1.0,phase_2,go,400.0,400.0,1.0,,,,,,,,,magenta,cross
0.0,4.0,4.0,0.0,5.0,5.0,446.4864889159798,2.0,1.0,phase_2,go,400.0,400.0,1.0,,,,,,,,,gray,flipped triangle
0.0,7.0,3.0,1.0,6.0,6.0,276.9036090467125,2.0,1.0,phase_2,go,400.0,400.0,1.0,,,,,,,,,orange,circle
0.0,6.0,2.0,1.0,5.0,5.0,421.8777280766517,2.0,1.0,phase_2,stop,400.0,400.0,3.0,,,,,,,,,green,diamond
0.0,6.0,2.0,1.0,6.0,6.0,469.8278559371829,2.0,1.0,phase_2,go,350.0,400.0,1.0,,,,,,,,,green,diamond
0.0,5.0,1.0,1.0,6.0,0.0,0.0,2.0,1.0,phase_2,stop,350.0,400.0,4.0,,,,,,,,,cyan,triangle
0.0,2.0,2.0,0.0,5.0,5.0,521.5013169217855,2.0,1.0,phase_2,go,350.0,450.0,1.0,,,,,,,,,magenta,cross
0.0,2.0,2.0,0.0,6.0,6.0,459.3998331110924,2.0,1.0,phase_2,go,350.0,450.0,1.0,,,,,,,,,magenta,cross
0.0,6.0,2.0,1.0,5.0,5.0,447.7053659502417,2.0,1.0,phase_2,stop,350.0,450.0,3.0,,,,,,,,,green,diamond
0.0,8.0,4.0,1.0,5.0,0.0,0.0,2.0,1.0,phase_2,stop,300.0,450.0,4.0,,,,,,,,,white,square
0.0,6.0,2.0,1.0,5.0,5.0,417.3101419582963,2.0,1.0,phase_2,stop,350.0,450.0,3.0,,,,,,,,,green,diamond
0.0,4.0,4.0,0.0,5.0,5.0,689.4541759975255,2.0,1.0,phase_2,go,300.0,450.0,1.0,,,,,,,,,gray,flipped triangle
0.0,1.0,1.0,0.0,5.0,5.0,624.4793338701129,2.0,1.0,phase_2,go,300.0,450.0,1.0,,,,,,,,,blue,I
0.0,5.0,1.0,1.0,6.0,6.0,475.8509940002113,2.0,1.0,phase_2,stop,300.0,450.0,3.0,,,,,,,,,cyan,triangle
0.0,3.0,3.0,0.0,5.0,5.0,762.1194659732282,3.0,1.0,phase_2,go,300.0,400.0,1.0,,,,,,,,,yellow,hexagon
0.0,6.0,2.0,1.0,5.0,5.0,412.8626559395343,3.0,1.0,phase_2,stop,300.0,400.0,3.0,,,,,,,,,green,diamond
0.0,4.0,4.0,0.0,6.0,6.0,491.5911699645221,3.0,1.0,phase_2,go,250.0,400.0,1.0,,,,,,,,,gray,flipped triangle
0.0,2.0,2.0,0.0,5.0,5.0,402.3655210621655,3.0,1.0,phase_2,go,250.0,400.0,1.0,,,,,,,,,magenta,cross
0.0,1.0,1.0,0.0,5.0,5.0,552.0441699773073,3.0,1.0,phase_2,go,250.0,400.0,1.0,,,,,,,,,blue,I
0.0,7.0,3.0,1.0,6.0,6.0,488.7607349082827,3.0,1.0,phase_2,stop,250.0,400.0,3.0,,,,,,,,,orange,circle
0.0,4.0,4.0,0.0,5.0,5.0,537.1158409398049,3.0,1.0,phase_2,go,250.0,350.0,1.0,,,,,,,,,gray,flipped triangle
0.0,1.0,1.0,0.0,6.0,6.0,535.1604449097067,3.0,1.0,phase_2,go,250.0,350.0,1.0,,,,,,,,,blue,I
0.0,1.0,1.0,0.0,5.0,5.0,520.2015698887408,3.0,1.0,phase_2,go,250.0,350.0,1.0,,,,,,,,,blue,I
0.0,2.0,2.0,0.0,6.0,6.0,383.1393178552389,3.0,1.0,phase_2,go,250.0,350.0,1.0,,,,,,,,,magenta,cross
0.0,7.0,3.0,1.0,5.0,0.0,0.0,3.0,1.0,phase_2,stop,250.0,350.0,4.0,,,,,,,,,orange,circle
0.0,7.0,3.0,1.0,5.0,5.0,461.5991718601435,3.0,1.0,phase_2,go,300.0,350.0,1.0,,,,,,,,,orange,circle
0.0,2.0,2.0,0.0,5.0,5.0,526.1614890769124,3.0,1.0,phase_2,go,300.0,350.0,1.0,,,,,,,,,magenta,cross
0.0,7.0,3.0,1.0,5.0,5.0,622.2216871101409,3.0,1.0,phase_2,stop,300.0,350.0,3.0,,,,,,,,,orange,circle
0.0,5.0,1.0,1.0,5.0,0.0,0.0,3.0,1.0,phase_2,stop,250.0,350.0,4.0,,,,,,,,,cyan,triangle
0.0,8.0,4.0,1.0,6.0,6.0,376.4676311984658,3.0,1.0,phase_2,stop,300.0,350.0,3.0,,,,,,,,,white,square
0.0,8.0,4.0,1.0,5.0,5.0,577.0879699848592,3.0,1.0,phase_2,go,300.0,300.0,1.0,,,,,,,,,white,square
0.0,2.0,2.0,0.0,5.0,5.0,488.4663028642535,3.0,1.0,phase_2,go,300.0,300.0,1.0,,,,,,,,,magenta,cross
0.0,6.0,2.0,1.0,5.0,5.0,363.6973651591688,3.0,1.0,phase_2,stop,300.0,300.0,3.0,,,,,,,,,green,diamond
0.0,1.0,1.0,0.0,5.0,5.0,530.3680589422584,3.0,1.0,phase_2,go,250.0,300.0,1.0,,,,,,,,,blue,I
0.0,6.0,2.0,1.0,6.0,0.0,0.0,3.0,1.0,phase_2,stop,250.0,300.0,4.0,,,,,,,,,green,diamond
0.0,2.0,2.0,0.0,6.0,6.0,663.8372610323131,3.0,1.0,phase_2,go,250.0,350.0,1.0,,,,,,,,,magenta,cross
0.0,3.0,3.0,0.0,6.0,6.0,471.1666840594262,3.0,1.0,phase_2,go,250.0,350.0,1.0,,,,,,,,,yellow,hexagon
0.0,3.0,3.0,0.0,6.0,6.0,470.9355980157852,3.0,1.0,phase_2,go,250.0,350.0,1.0,,,,,,,,,yellow,hexagon
0.0,1.0,1.0,0.0,6.0,6.0,413.0386000033468,3.0,1.0,phase_2,go,250.0,350.0,1.0,,,,,,,,,blue,I
0.0,8.0,4.0,1.0,5.0,5.0,307.4758918955922,3.0,1.0,phase_2,go,250.0,350.0,1.0,,,,,,,,,white,square
0.0,1.0,1.0,0.0,6.0,6.0,356.2172148376703,3.0,1.0,phase_2,go,250.0,350.0,1.0,,,,,,,,,blue,I
0.0,5.0,1.0,1.0,5.0,5.0,364.2108649946749,3.0,1.0,phase_2,stop,250.0,350.0,3.0,,,,,,,,,cyan,triangle
0.0,6.0,2.0,1.0,6.0,6.0,346.4665489736944,3.0,1.0,phase_2,stop,200.0,350.0,3.0,,,,,,,,,green,diamond
0.0,4.0,4.0,0.0,6.0,6.0,427.4162170477211,3.0,1.0,phase_2,go,200.0,300.0,1.0,,,,,,,,,gray,flipped triangle
0.0,4.0,4.0,0.0,6.0,6.0,544.894996099174,3.0,1.0,phase_2,go,200.0,300.0,1.0,,,,,,,,,gray,flipped triangle
0.0,1.0,1.0,0.0,5.0,5.0,555.7274979073554,3.0,1.0,phase_2,go,200.0,300.0,1.0,,,,,,,,,blue,I
0.0,5.0,1.0,1.0,6.0,6.0,401.910032145679,3.0,1.0,phase_2,stop,200.0,300.0,3.0,,,,,,,,,cyan,triangle
0.0,1.0,1.0,0.0,5.0,5.0,450.1488171517849,3.0,1.0,phase_2,go,200.0,250.0,1.0,,,,,,,,,blue,I
0.0,5.0,1.0,1.0,5.0,0.0,0.0,3.0,1.0,phase_2,stop,200.0,250.0,4.0,,,,,,,,,cyan,triangle
0.0,3.0,3.0,0.0,5.0,5.0,489.4324969500303,3.0,1.0,phase_2,go,250.0,250.0,1.0,,,,,,,,,yellow,hexagon
0.0,6.0,2.0,1.0,6.0,6.0,704.5302160549909,4.0,1.0,phase_2,stop,250.0,250.0,3.0,,,,,,,,,green,diamond
0.0,5.0,1.0,1.0,5.0,5.0,359.621990006417,4.0,1.0,phase_2,stop,250.0,200.0,3.0,,,,,,,,,cyan,triangle
0.0,8.0,4.0,1.0,6.0,0.0,0.0,4.0,1.0,phase_2,stop,200.0,200.0,4.0,,,,,,,,,white,square
0.0,4.0,4.0,0.0,5.0,5.0,409.5237629953772,4.0,1.0,phase_2,go,200.0,250.0,1.0,,,,,,,,,gray,flipped triangle
0.0,1.0,1.0,0.0,6.0,6.0,462.3699220828712,4.0,1.0,phase_2,go,200.0,250.0,1.0,,,,,,,,,blue,I
0.0,4.0,4.0,0.0,6.0,6.0,559.7031570505351,4.0,1.0,phase_2,go,200.0,250.0,1.0,,,,,,,,,gray,flipped triangle
0.0,8.0,4.0,1.0,5.0,0.0,0.0,4.0,1.0,phase_2,stop,200.0,250.0,4.0,,,,,,,,,white,square
0.0,4.0,4.0,0.0,5.0,5.0,501.3845239300281,4.0,1.0,phase_2,go,250.0,250.0,1.0,,,,,,,,,gray,flipped triangle
0.0,5.0,1.0,1.0,6.0,6.0,359.0530848596245,4.0,1.0,phase_2,go,250.0,250.0,1.0,,,,,,,,,cyan,triangle
0.0,3.0,3.0,0.0,5.0,5.0,508.27326299622655,4.0,1.0,phase_2,go,250.0,250.0,1.0,,,,,,,,,yellow,hexagon
0.0,2.0,2.0,0.0,6.0,6.0,549.3707088753581,4.0,1.0,phase_2,go,250.0,250.0,1.0,,,,,,,,,magenta,cross
0.0,5.0,1.0,1.0,6.0,6.0,348.3702929224819,4.0,1.0,phase_2,stop,250.0,250.0,3.0,,,,,,,,,cyan,triangle
0.0,1.0,1.0,0.0,6.0,6.0,394.0836440306157,4.0,1.0,phase_2,go,250.0,200.0,1.0,,,,,,,,,blue,I
0.0,7.0,3.0,1.0,5.0,0.0,0.0,4.0,1.0,phase_2,stop,250.0,200.0,4.0,,,,,,,,,orange,circle
0.0,6.0,2.0,1.0,5.0,5.0,360.7863408979028,4.0,1.0,phase_2,go,300.0,200.0,1.0,,,,,,,,,green,diamond
0.0,5.0,1.0,1.0,5.0,5.0,323.338784975931,4.0,1.0,phase_2,go,300.0,200.0,1.0,,,,,,,,,cyan,triangle
0.0,4.0,4.0,0.0,5.0,5.0,312.0325040072202,4.0,1.0,phase_2,go,300.0,200.0,1.0,,,,,,,,,gray,flipped triangle
0.0,7.0,3.0,1.0,6.0,0.0,0.0,4.0,1.0,phase_2,stop,300.0,200.0,4.0,,,,,,,,,orange,circle
0.0,1.0,1.0,0.0,6.0,6.0,465.0808628648519,4.0,1.0,phase_2,go,300.0,250.0,1.0,,,,,,,,,blue,I
0.0,5.0,1.0,1.0,6.0,0.0,0.0,4.0,1.0,phase_2,stop,300.0,250.0,4.0,,,,,,,,,cyan,triangle
0.0,7.0,3.0,1.0,6.0,0.0,0.0,4.0,1.0,phase_2,stop,300.0,300.0,4.0,,,,,,,,,orange,circle
0.0,6.0,2.0,1.0,5.0,0.0,0.0,4.0,1.0,phase_2,stop,300.0,350.0,4.0,,,,,,,,,green,diamond
0.0,7.0,3.0,1.0,5.0,5.0,575.8144941646606,4.0,1.0,phase_2,go,350.0,350.0,1.0,,,,,,,,,orange,circle
0.0,1.0,1.0,0.0,6.0,6.0,532.5367099139839,4.0,1.0,phase_2,go,350.0,350.0,1.0,,,,,,,,,blue,I
0.0,4.0,4.0,0.0,6.0,6.0,506.96090911515057,4.0,1.0,phase_2,go,350.0,350.0,1.0,,,,,,,,,gray,flipped triangle
0.0,3.0,3.0,0.0,6.0,6.0,435.2839780040085,4.0,1.0,phase_2,go,350.0,350.0,1.0,,,,,,,,,yellow,hexagon
0.0,6.0,2.0,1.0,6.0,6.0,418.6754571273923,4.0,1.0,phase_2,stop,350.0,350.0,3.0,,,,,,,,,green,diamond
0.0,3.0,3.0,0.0,5.0,5.0,492.9893768858164,4.0,1.0,phase_2,go,350.0,300.0,1.0,,,,,,,,,yellow,hexagon
0.0,2.0,2.0,0.0,6.0,6.0,380.6751680094749,4.0,1.0,phase_2,go,350.0,300.0,1.0,,,,,,,,,magenta,cross
0.0,8.0,4.0,1.0,6.0,6.0,521.3374260347337,4.0,1.0,phase_2,go,350.0,300.0,1.0,,,,,,,,,white,square
0.0,4.0,4.0,0.0,6.0,6.0,410.0879470352083,4.0,1.0,phase_2,go,350.0,300.0,1.0,,,,,,,,,gray,flipped triangle
0.0,7.0,3.0,1.0,6.0,0.0,0.0,4.0,1.0,phase_2,stop,350.0,300.0,4.0,,,,,,,,,orange,circle
0.0,6.0,2.0,1.0,5.0,5.0,337.2767949476838,4.0,1.0,phase_2,stop,350.0,350.0,3.0,,,,,,,,,green,diamond
0.0,2.0,2.0,0.0,6.0,6.0,386.052506044507,4.0,1.0,phase_2,go,300.0,350.0,1.0,,,,,,,,,magenta,cross
0.0,4.0,4.0,0.0,6.0,6.0,544.3883710540831,4.0,1.0,phase_2,go,300.0,350.0,1.0,,,,,,,,,gray,flipped triangle
0.0,7.0,3.0,1.0,6.0,0.0,0.0,4.0,1.0,phase_2,stop,300.0,350.0,4.0,,,,,,,,,orange,circle
0.0,7.0,3.0,1.0,5.0,0.0,0.0,5.0,1.0,phase_2,stop,300.0,400.0,4.0,,,,,,,,,orange,circle
0.0,4.0,4.0,0.0,5.0,5.0,442.219324875623,5.0,1.0,phase_2,go,350.0,400.0,1.0,,,,,,,,,gray,flipped triangle
0.0,4.0,4.0,0.0,5.0,5.0,377.8549418784678,5.0,1.0,phase_2,go,350.0,400.0,1.0,,,,,,,,,gray,flipped triangle
0.0,5.0,1.0,1.0,6.0,6.0,459.1640718281269,5.0,1.0,phase_2,stop,350.0,400.0,3.0,,,,,,,,,cyan,triangle
0.0,4.0,4.0,0.0,6.0,6.0,754.2764111422002,5.0,1.0,phase_2,go,350.0,350.0,1.0,,,,,,,,,gray,flipped triangle
0.0,8.0,4.0,1.0,6.0,0.0,0.0,5.0,1.0,phase_2,stop,350.0,350.0,4.0,,,,,,,,,white,square
0.0,3.0,3.0,0.0,5.0,5.0,295.5104829743504,5.0,1.0,phase_2,go,350.0,400.0,1.0,,,,,,,,,yellow,hexagon
0.0,3.0,3.0,0.0,6.0,6.0,351.3727609533816,5.0,1.0,phase_2,go,350.0,400.0,1.0,,,,,,,,,yellow,hexagon
0.0,5.0,1.0,1.0,6.0,6.0,351.9915291108191,5.0,1.0,phase_2,stop,350.0,400.0,3.0,,,,,,,,,cyan,triangle
0.0,4.0,4.0,0.0,6.0,6.0,776.9252059515566,5.0,1.0,phase_2,go,350.0,350.0,1.0,,,,,,,,,gray,flipped triangle
0.0,7.0,3.0,1.0,5.0,0.0,0.0,5.0,1.0,phase_2,stop,350.0,350.0,4.0,,,,,,,,,orange,circle
0.0,6.0,2.0,1.0,6.0,0.0,0.0,5.0,1.0,phase_2,stop,400.0,350.0,4.0,,,,,,,,,green,diamond
0.0,1.0,1.0,0.0,5.0,5.0,509.8013668321073,5.0,1.0,phase_2,go,400.0,400.0,1.0,,,,,,,,,blue,I
0.0,8.0,4.0,1.0,6.0,0.0,0.0,5.0,1.0,phase_2,stop,400.0,400.0,4.0,,,,,,,,,white,square
0.0,1.0,1.0,0.0,5.0,5.0,332.5870870612561,5.0,1.0,phase_2,go,400.0,450.0,1.0,,,,,,,,,blue,I
0.0,4.0,4.0,0.0,5.0,5.0,393.7970770057291,5.0,1.0,phase_2,go,400.0,450.0,1.0,,,,,,,,,gray,flipped triangle
0.0,5.0,1.0,1.0,5.0,5.0,285.4840981308371,5.0,1.0,phase_2,stop,400.0,450.0,3.0,,,,,,,,,cyan,triangle
0.0,5.0,1.0,1.0,6.0,6.0,308.1234199926257,5.0,1.0,phase_2,go,350.0,450.0,1.0,,,,,,,,,cyan,triangle
0.0,8.0,4.0,1.0,6.0,6.0,424.5667729992419,5.0,1.0,phase_2,go,350.0,450.0,1.0,,,,,,,,,white,square
0.0,4.0,4.0,0.0,5.0,5.0,451.6178329940885,5.0,1.0,phase_2,go,350.0,450.0,1.0,,,,,,,,,gray,flipped triangle
0.0,7.0,3.0,1.0,6.0,6.0,482.5956269633025,5.0,1.0,phase_2,stop,350.0,450.0,3.0,,,,,,,,,orange,circle
0.0,5.0,1.0,1.0,5.0,6.0,1375.0611608847976,5.0,1.0,phase_2,stop,350.0,400.0,3.0,,,,,,,,,cyan,triangle
0.0,7.0,3.0,1.0,5.0,5.0,945.4872959759086,5.0,1.0,phase_2,go,300.0,400.0,1.0,,,,,,,,,orange,circle
0.0,6.0,2.0,1.0,5.0,0.0,0.0,5.0,1.0,phase_2,stop,300.0,400.0,4.0,,,,,,,,,green,diamond
0.0,6.0,2.0,1.0,6.0,6.0,429.6540159266442,5.0,1.0,phase_2,stop,350.0,400.0,3.0,,,,,,,,,green,diamond
0.0,2.0,2.0,0.0,5.0,5.0,541.4195568300784,5.0,1.0,phase_2,go,350.0,350.0,1.0,,,,,,,,,magenta,cross
0.0,8.0,4.0,1.0,6.0,6.0,430.5098410695791,5.0,1.0,phase_2,stop,350.0,350.0,3.0,,,,,,,,,white,square
0.0,8.0,4.0,1.0,6.0,0.0,0.0,5.0,1.0,phase_2,stop,350.0,300.0,4.0,,,,,,,,,white,square
0.0,4.0,4.0,0.0,6.0,6.0,621.8086020089686,5.0,1.0,phase_2,go,350.0,350.0,1.0,,,,,,,,,gray,flipped triangle
0.0,2.0,2.0,0.0,5.0,5.0,579.7126139514148,5.0,1.0,phase_2,go,350.0,350.0,1.0,,,,,,,,,magenta,cross
0.0,7.0,3.0,1.0,6.0,6.0,509.24510206095874,5.0,1.0,phase_2,stop,350.0,350.0,3.0,,,,,,,,,orange,circle
0.0,5.0,1.0,1.0,6.0,0.0,0.0,5.0,1.0,phase_2,stop,350.0,300.0,4.0,,,,,,,,,cyan,triangle
0.0,5.0,1.0,1.0,5.0,5.0,627.7551809325814,5.0,1.0,phase_2,go,350.0,350.0,1.0,,,,,,,,,cyan,triangle
0.0,3.0,3.0,0.0,6.0,6.0,376.6412970144301,5.0,1.0,phase_2,go,350.0,350.0,1.0,,,,,,,,,yellow,hexagon
0.0,8.0,4.0,1.0,6.0,6.0,407.8871379606426,5.0,1.0,phase_2,stop,350.0,350.0,3.0,,,,,,,,,white,square
0.0,3.0,3.0,0.0,6.0,6.0,671.4737000875175,5.0,1.0,phase_2,go,350.0,300.0,1.0,,,,,,,,,yellow,hexagon
0.0,6.0,2.0,1.0,6.0,6.0,890.6644368544221,6.0,1.0,phase_2,go,350.0,300.0,1.0,,,,,,,,,green,diamond
0.0,5.0,1.0,1.0,5.0,5.0,404.9939389806241,6.0,1.0,phase_2,stop,350.0,300.0,3.0,,,,,,,,,cyan,triangle
0.0,4.0,4.0,0.0,6.0,6.0,489.5037349779159,6.0,1.0,phase_2,go,300.0,300.0,1.0,,,,,,,,,gray,flipped triangle
0.0,6.0,2.0,1.0,6.0,6.0,360.5917310342192,6.0,1.0,phase_2,stop,300.0,300.0,3.0,,,,,,,,,green,diamond
0.0,1.0,1.0,0.0,6.0,6.0,586.9272958952934,6.0,1.0,phase_2,go,300.0,250.0,1.0,,,,,,,,,blue,I
0.0,2.0,2.0,0.0,6.0,6.0,529.2608249001205,6.0,1.0,phase_2,go,300.0,250.0,1.0,,,,,,,,,magenta,cross
0.0,5.0,1.0,1.0,6.0,6.0,593.8771609216928,6.0,1.0,phase_2,stop,300.0,250.0,3.0,,,,,,,,,cyan,triangle
0.0,2.0,2.0,0.0,6.0,6.0,631.9776389282197,6.0,1.0,phase_2,go,300.0,200.0,1.0,,,,,,,,,magenta,cross
0.0,7.0,3.0,1.0,5.0,0.0,0.0,6.0,1.0,phase_2,stop,300.0,200.0,4.0,,,,,,,,,orange,circle
0.0,8.0,4.0,1.0,5.0,5.0,573.2476050034165,6.0,1.0,phase_2,go,350.0,200.0,1.0,,,,,,,,,white,square
0.0,5.0,1.0,1.0,5.0,5.0,455.0850600935519,6.0,1.0,phase_2,go,350.0,200.0,1.0,,,,,,,,,cyan,triangle
0.0,1.0,1.0,0.0,5.0,5.0,566.6851371061057,6.0,1.0,phase_2,go,350.0,200.0,1.0,,,,,,,,,blue,I
0.0,3.0,3.0,0.0,6.0,6.0,460.877797100693,6.0,1.0,phase_2,go,350.0,200.0,1.0,,,,,,,,,yellow,hexagon
0.0,3.0,3.0,0.0,5.0,5.0,493.031928082928,6.0,1.0,phase_2,go,350.0,200.0,1.0,,,,,,,,,yellow,hexagon
0.0,1.0,1.0,0.0,6.0,6.0,428.3386638853699,6.0,1.0,phase_2,go,350.0,200.0,1.0,,,,,,,,,blue,I
0.0,2.0,2.0,0.0,6.0,6.0,521.7252220027149,6.0,1.0,phase_2,go,350.0,200.0,1.0,,,,,,,,,magenta,cross
0.0,8.0,4.0,1.0,6.0,0.0,0.0,6.0,1.0,phase_2,stop,350.0,200.0,4.0,,,,,,,,,white,square
0.0,2.0,2.0,0.0,5.0,5.0,1051.9128059968352,6.0,1.0,phase_2,go,350.0,250.0,1.0,,,,,,,,,magenta,cross
0.0,5.0,1.0,1.0,5.0,5.0,466.6925929486751,6.0,1.0,phase_2,stop,350.0,250.0,3.0,,,,,,,,,cyan,triangle
0.0,1.0,1.0,0.0,5.0,5.0,569.3909670226276,6.0,1.0,phase_2,go,300.0,250.0,1.0,,,,,,,,,blue,I
0.0,8.0,4.0,1.0,5.0,0.0,0.0,6.0,1.0,phase_2,stop,300.0,250.0,4.0,,,,,,,,,white,square
0.0,1.0,1.0,0.0,5.0,5.0,718.26824801974,6.0,1.0,phase_2,go,350.0,250.0,1.0,,,,,,,,,blue,I
0.0,5.0,1.0,1.0,6.0,6.0,381.5907670650631,6.0,1.0,phase_2,stop,350.0,250.0,3.0,,,,,,,,,cyan,triangle
0.0,3.0,3.0,0.0,5.0,5.0,784.3876699917018,6.0,1.0,phase_2,go,350.0,200.0,1.0,,,,,,,,,yellow,hexagon
0.0,2.0,2.0,0.0,5.0,5.0,549.4834610726684,6.0,1.0,phase_2,go,350.0,200.0,1.0,,,,,,,,,magenta,cross
0.0,6.0,2.0,1.0,5.0,5.0,444.0521840006113,6.0,1.0,phase_2,go,350.0,200.0,1.0,,,,,,,,,green,diamond
0.0,8.0,4.0,1.0,5.0,5.0,397.8145290166139,6.0,1.0,phase_2,stop,350.0,200.0,3.0,,,,,,,,,white,square
0.0,8.0,4.0,1.0,5.0,5.0,525.3883339464664,6.0,1.0,phase_2,go,300.0,200.0,1.0,,,,,,,,,white,square
0.0,3.0,3.0,0.0,5.0,5.0,477.2408378776163,6.0,1.0,phase_2,go,300.0,200.0,1.0,,,,,,,,,yellow,hexagon
0.0,3.0,3.0,0.0,6.0,6.0,562.7397440839559,6.0,1.0,phase_2,go,300.0,200.0,1.0,,,,,,,,,yellow,hexagon
0.0,6.0,2.0,1.0,6.0,0.0,0.0,6.0,1.0,phase_2,stop,300.0,200.0,4.0,,,,,,,,,green,diamond
0.0,1.0,1.0,0.0,6.0,6.0,546.5437001548707,6.0,1.0,phase_2,go,300.0,250.0,1.0,,,,,,,,,blue,I
0.0,8.0,4.0,1.0,6.0,0.0,0.0,6.0,1.0,phase_2,stop,300.0,250.0,4.0,,,,,,,,,white,square
0.0,3.0,3.0,0.0,6.0,6.0,531.7654958926141,6.0,1.0,phase_2,go,300.0,300.0,1.0,,,,,,,,,yellow,hexagon
0.0,4.0,4.0,0.0,6.0,6.0,602.676291950047,6.0,1.0,phase_2,go,300.0,300.0,1.0,,,,,,,,,gray,flipped triangle
0.0,4.0,4.0,0.0,5.0,5.0,474.3319919798523,6.0,1.0,phase_2,go,300.0,300.0,1.0,,,,,,,,,gray,flipped triangle
0.0,4.0,4.0,0.0,5.0,5.0,657.6070450246334,7.0,1.0,phase_2,go,300.0,300.0,1.0,,,,,,,,,gray,flipped triangle
0.0,7.0,3.0,1.0,5.0,5.0,436.496817972511,7.0,1.0,phase_2,go,300.0,300.0,1.0,,,,,,,,,orange,circle
0.0,5.0,1.0,1.0,5.0,5.0,318.2154409587383,7.0,1.0,phase_2,stop,300.0,300.0,3.0,,,,,,,,,cyan,triangle
0.0,2.0,2.0,0.0,6.0,6.0,523.6201770603657,7.0,1.0,phase_2,go,250.0,300.0,1.0,,,,,,,,,magenta,cross
0.0,1.0,1.0,0.0,5.0,5.0,611.03391693905,7.0,1.0,phase_2,go,250.0,300.0,1.0,,,,,,,,,blue,I
0.0,7.0,3.0,1.0,6.0,6.0,449.3278558366,7.0,1.0,phase_2,go,250.0,300.0,1.0,,,,,,,,,orange,circle
0.0,2.0,2.0,0.0,5.0,5.0,455.6287371087819,7.0,1.0,phase_2,go,250.0,300.0,1.0,,,,,,,,,magenta,cross
0.0,3.0,3.0,0.0,6.0,6.0,345.1361670158803,7.0,1.0,phase_2,go,250.0,300.0,1.0,,,,,,,,,yellow,hexagon
0.0,6.0,2.0,1.0,6.0,6.0,376.5622759237885,7.0,1.0,phase_2,go,250.0,300.0,1.0,,,,,,,,,green,diamond
0.0,2.0,2.0,0.0,5.0,5.0,449.1961130406707,7.0,1.0,phase_2,go,250.0,300.0,1.0,,,,,,,,,magenta,cross
0.0,7.0,3.0,1.0,5.0,5.0,327.1259418688714,7.0,1.0,phase_2,stop,250.0,300.0,3.0,,,,,,,,,orange,circle
0.0,3.0,3.0,0.0,5.0,5.0,589.203855022788,7.0,1.0,phase_2,go,200.0,300.0,1.0,,,,,,,,,yellow,hexagon
0.0,2.0,2.0,0.0,5.0,5.0,526.6727120615542,7.0,1.0,phase_2,go,200.0,300.0,1.0,,,,,,,,,magenta,cross
0.0,2.0,2.0,0.0,6.0,6.0,478.9072738494724,7.0,1.0,phase_2,go,200.0,300.0,1.0,,,,,,,,,magenta,cross
0.0,8.0,4.0,1.0,5.0,0.0,0.0,7.0,1.0,phase_2,stop,200.0,300.0,4.0,,,,,,,,,white,square
0.0,8.0,4.0,1.0,5.0,5.0,561.6564999800175,7.0,1.0,phase_2,go,250.0,300.0,1.0,,,,,,,,,white,square
0.0,3.0,3.0,0.0,5.0,5.0,540.0204719044268,7.0,1.0,phase_2,go,250.0,300.0,1.0,,,,,,,,,yellow,hexagon
0.0,7.0,3.0,1.0,6.0,6.0,467.9827899672091,7.0,1.0,phase_2,stop,250.0,300.0,3.0,,,,,,,,,orange,circle
0.0,3.0,3.0,0.0,5.0,5.0,472.25834405981,7.0,1.0,phase_2,go,250.0,250.0,1.0,,,,,,,,,yellow,hexagon
0.0,2.0,2.0,0.0,6.0,6.0,488.1775451358408,7.0,1.0,phase_2,go,250.0,250.0,1.0,,,,,,,,,magenta,cross
0.0,3.0,3.0,0.0,6.0,6.0,415.9205572213977,7.0,1.0,phase_2,go,250.0,250.0,1.0,,,,,,,,,yellow,hexagon
0.0,4.0,4.0,0.0,6.0,6.0,474.2604519706219,7.0,1.0,phase_2,go,250.0,250.0,1.0,,,,,,,,,gray,flipped triangle
0.0,6.0,2.0,1.0,5.0,0.0,0.0,7.0,1.0,phase_2,stop,250.0,250.0,4.0,,,,,,,,,green,diamond
0.0,7.0,3.0,1.0,6.0,0.0,0.0,7.0,1.0,phase_2,stop,300.0,250.0,4.0,,,,,,,,,orange,circle
0.0,8.0,4.0,1.0,6.0,6.0,414.8580650798976,7.0,1.0,phase_2,stop,300.0,300.0,3.0,,,,,,,,,white,square
0.0,6.0,2.0,1.0,5.0,5.0,428.9388339966535,7.0,1.0,phase_2,go,300.0,250.0,1.0,,,,,,,,,green,diamond
0.0,7.0,3.0,1.0,5.0,5.0,406.0451660770923,7.0,1.0,phase_2,go,300.0,250.0,1.0,,,,,,,,,orange,circle
0.0,1.0,1.0,0.0,6.0,6.0,459.8174539860338,7.0,1.0,phase_2,go,300.0,250.0,1.0,,,,,,,,,blue,I
0.0,5.0,1.0,1.0,6.0,0.0,0.0,7.0,1.0,phase_2,stop,300.0,250.0,4.0,,,,,,,,,cyan,triangle
0.0,5.0,1.0,1.0,5.0,5.0,476.5296110417694,7.0,1.0,phase_2,go,300.0,300.0,1.0,,,,,,,,,cyan,triangle
0.0,7.0,3.0,1.0,5.0,5.0,426.4987560454756,7.0,1.0,phase_2,stop,300.0,300.0,3.0,,,,,,,,,orange,circle
0.0,8.0,4.0,1.0,6.0,0.0,0.0,7.0,1.0,phase_2,stop,250.0,300.0,4.0,,,,,,,,,white,square
0.0,2.0,2.0,0.0,5.0,5.0,490.2285342104733,7.0,1.0,phase_2,go,250.0,350.0,1.0,,,,,,,,,magenta,cross
0.0,6.0,2.0,1.0,5.0,5.0,495.5560080707073,7.0,1.0,phase_2,go,250.0,350.0,1.0,,,,,,,,,green,diamond
0.0,6.0,2.0,1.0,6.0,6.0,575.3603118937463,7.0,1.0,phase_2,go,250.0,350.0,1.0,,,,,,,,,green,diamond
0.0,4.0,4.0,0.0,6.0,6.0,390.3768761083483,7.0,1.0,phase_2,go,250.0,350.0,1.0,,,,,,,,,gray,flipped triangle
0.0,6.0,2.0,1.0,5.0,5.0,523.019194137305,8.0,1.0,phase_2,stop,250.0,350.0,3.0,,,,,,,,,green,diamond
0.0,7.0,3.0,1.0,6.0,0.0,0.0,8.0,1.0,phase_2,stop,200.0,350.0,4.0,,,,,,,,,orange,circle
0.0,1.0,1.0,0.0,5.0,5.0,402.6084200013429,8.0,1.0,phase_2,go,200.0,400.0,1.0,,,,,,,,,blue,I
0.0,3.0,3.0,0.0,6.0,6.0,516.6383259929717,8.0,1.0,phase_2,go,200.0,400.0,1.0,,,,,,,,,yellow,hexagon
0.0,2.0,2.0,0.0,6.0,6.0,516.2938989233226,8.0,1.0,phase_2,go,200.0,400.0,1.0,,,,,,,,,magenta,cross
0.0,2.0,2.0,0.0,5.0,5.0,569.3332508672029,8.0,1.0,phase_2,go,200.0,400.0,1.0,,,,,,,,,magenta,cross
0.0,8.0,4.0,1.0,6.0,6.0,495.7007758785039,8.0,1.0,phase_2,stop,200.0,400.0,3.0,,,,,,,,,white,square
0.0,1.0,1.0,0.0,5.0,5.0,377.7783650439232,8.0,1.0,phase_2,go,200.0,350.0,1.0,,,,,,,,,blue,I
0.0,3.0,3.0,0.0,6.0,6.0,518.7935940921307,8.0,1.0,phase_2,go,200.0,350.0,1.0,,,,,,,,,yellow,hexagon
0.0,2.0,2.0,0.0,5.0,5.0,792.1496478375047,8.0,1.0,phase_2,go,200.0,350.0,1.0,,,,,,,,,magenta,cross
0.0,8.0,4.0,1.0,5.0,0.0,0.0,8.0,1.0,phase_2,stop,200.0,350.0,4.0,,,,,,,,,white,square
0.0,8.0,4.0,1.0,5.0,0.0,0.0,8.0,1.0,phase_2,stop,250.0,350.0,4.0,,,,,,,,,white,square
0.0,3.0,3.0,0.0,5.0,5.0,509.13191703148186,8.0,1.0,phase_2,go,300.0,350.0,1.0,,,,,,,,,yellow,hexagon
0.0,7.0,3.0,1.0,5.0,5.0,598.6108691431582,8.0,1.0,phase_2,go,300.0,350.0,1.0,,,,,,,,,orange,circle
0.0,4.0,4.0,0.0,5.0,5.0,477.6269302237779,8.0,1.0,phase_2,go,300.0,350.0,1.0,,,,,,,,,gray,flipped triangle
0.0,8.0,4.0,1.0,5.0,5.0,406.7930409219116,8.0,1.0,phase_2,stop,300.0,350.0,3.0,,,,,,,,,white,square
0.0,7.0,3.0,1.0,5.0,0.0,0.0,8.0,1.0,phase_2,stop,250.0,350.0,4.0,,,,,,,,,orange,circle
0.0,6.0,2.0,1.0,6.0,0.0,0.0,8.0,1.0,phase_2,stop,300.0,350.0,4.0,,,,,,,,,green,diamond
0.0,3.0,3.0,0.0,6.0,6.0,769.4349100347608,8.0,1.0,phase_2,go,300.0,400.0,1.0,,,,,,,,,yellow,hexagon
0.0,8.0,4.0,1.0,6.0,0.0,0.0,8.0,1.0,phase_2,stop,300.0,400.0,4.0,,,,,,,,,white,square
0.0,7.0,3.0,1.0,6.0,0.0,0.0,8.0,1.0,phase_2,stop,300.0,450.0,4.0,,,,,,,,,orange,circle
0.0,6.0,2.0,1.0,6.0,6.0,610.5416971258819,8.0,1.0,phase_2,stop,300.0,500.0,3.0,,,,,,,,,green,diamond
0.0,3.0,3.0,0.0,6.0,6.0,654.5172960031778,8.0,1.0,phase_2,go,300.0,450.0,1.0,,,,,,,,,yellow,hexagon
0.0,5.0,1.0,1.0,6.0,6.0,504.99127502553165,8.0,1.0,phase_2,stop,300.0,450.0,3.0,,,,,,,,,cyan,triangle
0.0,6.0,2.0,1.0,5.0,0.0,0.0,8.0,1.0,phase_2,stop,300.0,400.0,4.0,,,,,,,,,green,diamond
0.0,6.0,2.0,1.0,6.0,6.0,543.6040710192174,8.0,1.0,phase_2,stop,350.0,400.0,3.0,,,,,,,,,green,diamond
0.0,3.0,3.0,0.0,6.0,6.0,624.2092370521277,8.0,1.0,phase_2,go,350.0,350.0,1.0,,,,,,,,,yellow,hexagon
0.0,8.0,4.0,1.0,5.0,0.0,0.0,8.0,1.0,phase_2,stop,350.0,350.0,4.0,,,,,,,,,white,square
0.0,8.0,4.0,1.0,5.0,0.0,0.0,8.0,1.0,phase_2,stop,400.0,350.0,4.0,,,,,,,,,white,square
0.0,4.0,4.0,0.0,5.0,5.0,619.0308458171785,8.0,1.0,phase_2,go,450.0,350.0,1.0,,,,,,,,,gray,flipped triangle
0.0,4.0,4.0,0.0,6.0,6.0,835.1517838891596,8.0,1.0,phase_2,go,450.0,350.0,1.0,,,,,,,,,gray,flipped triangle
0.0,1.0,1.0,0.0,6.0,6.0,658.5866638924927,8.0,1.0,phase_2,go,450.0,350.0,1.0,,,,,,,,,blue,I
0.0,3.0,3.0,0.0,6.0,6.0,634.2877829447389,8.0,1.0,phase_2,go,450.0,350.0,1.0,,,,,,,,,yellow,hexagon
0.0,3.0,3.0,0.0,5.0,5.0,643.3005698490888,8.0,1.0,phase_2,go,450.0,350.0,1.0,,,,,,,,,yellow,hexagon
0.0,1.0,1.0,0.0,5.0,5.0,441.9950989540666,8.0,1.0,phase_2,go,450.0,350.0,1.0,,,,,,,,,blue,I
0.0,1.0,1.0,0.0,6.0,6.0,555.2327160257846,8.0,1.0,phase_2,go,450.0,350.0,1.0,,,,,,,,,blue,I
0.0,3.0,3.0,0.0,7.0,4.0,3420.49407097511,1.0,3.0,phase_3,,,,,234.0,6.0,78.0,156.0,39.0,234.0,195.0,117.0,yellow,hexagon
0.0,6.0,2.0,1.0,7.0,1.0,2824.091125978157,1.0,1.0,phase_3,,,,,216.0,4.0,216.0,324.0,162.0,54.0,108.0,270.0,green,diamond
0.0,6.0,2.0,1.0,7.0,2.0,2861.336919013411,1.0,1.0,phase_3,,,,,204.0,6.0,102.0,204.0,170.0,68.0,34.0,136.0,green,diamond
0.0,7.0,3.0,1.0,7.0,4.0,2745.502066798508,1.0,1.0,phase_3,,,,,117.0,3.0,195.0,39.0,156.0,117.0,234.0,78.0,orange,circle
0.0,7.0,3.0,1.0,7.0,3.0,3674.7724439483136,1.0,1.0,phase_3,,,,,162.0,3.0,324.0,216.0,162.0,270.0,54.0,108.0,orange,circle
0.0,7.0,3.0,1.0,7.0,4.0,602.5119619444013,1.0,2.0,phase_3,,,,,216.0,4.0,108.0,54.0,162.0,216.0,270.0,324.0,orange,circle
0.0,4.0,4.0,0.0,7.0,6.0,2083.6873068474238,1.0,1.0,phase_3,,,,,220.0,5.0,132.0,264.0,44.0,176.0,88.0,220.0,gray,flipped triangle
0.0,2.0,2.0,0.0,7.0,2.0,376.6243981663137,1.0,2.0,phase_3,,,,,176.0,4.0,88.0,176.0,264.0,44.0,220.0,132.0,magenta,cross
0.0,2.0,2.0,0.0,7.0,6.0,2968.5114070307463,1.0,1.0,phase_3,,,,,196.0,4.0,98.0,147.0,49.0,294.0,245.0,196.0,magenta,cross
0.0,7.0,3.0,1.0,7.0,5.0,2298.3193539548665,1.0,1.0,phase_3,,,,,195.0,5.0,156.0,117.0,234.0,39.0,195.0,78.0,orange,circle
0.0,5.0,1.0,1.0,7.0,1.0,3425.4056469071656,1.0,1.0,phase_3,,,,,204.0,6.0,204.0,136.0,170.0,34.0,102.0,68.0,cyan,triangle
0.0,3.0,3.0,0.0,7.0,3.0,3691.558276070282,1.0,1.0,phase_3,,,,,216.0,4.0,270.0,108.0,216.0,324.0,54.0,162.0,yellow,hexagon
0.0,6.0,2.0,1.0,7.0,2.0,3637.5295200850815,1.0,1.0,phase_3,,,,,162.0,3.0,216.0,162.0,54.0,324.0,108.0,270.0,green,diamond
0.0,1.0,1.0,0.0,7.0,1.0,2985.625053057447,1.0,1.0,phase_3,,,,,204.0,6.0,204.0,136.0,34.0,68.0,102.0,170.0,blue,I
0.0,3.0,3.0,0.0,7.0,6.0,1975.9376789443197,1.0,1.0,phase_3,,,,,196.0,4.0,147.0,49.0,245.0,294.0,98.0,196.0,yellow,hexagon
0.0,5.0,1.0,1.0,7.0,6.0,3001.2784991413355,1.0,1.0,phase_3,,,,,147.0,3.0,49.0,98.0,245.0,294.0,196.0,147.0,cyan,triangle
0.0,1.0,1.0,0.0,7.0,1.0,2971.79891797714,1.0,1.0,phase_3,,,,,195.0,5.0,195.0,78.0,234.0,39.0,117.0,156.0,blue,I
0.0,5.0,1.0,1.0,7.0,1.0,2557.740807998925,1.0,1.0,phase_3,,,,,156.0,4.0,156.0,39.0,78.0,234.0,117.0,195.0,cyan,triangle
0.0,1.0,1.0,0.0,7.0,6.0,2820.7478560507298,1.0,1.0,phase_3,,,,,162.0,3.0,108.0,324.0,270.0,216.0,54.0,162.0,blue,I
0.0,5.0,1.0,1.0,7.0,2.0,4470.626260153949,1.0,1.0,phase_3,,,,,176.0,4.0,44.0,176.0,264.0,220.0,132.0,88.0,cyan,triangle
0.0,6.0,2.0,1.0,7.0,3.0,2255.001295823604,2.0,1.0,phase_3,,,,,176.0,4.0,44.0,220.0,176.0,132.0,88.0,264.0,green,diamond
0.0,8.0,4.0,1.0,7.0,1.0,1671.3886428624392,2.0,1.0,phase_3,,,,,170.0,5.0,170.0,102.0,136.0,68.0,204.0,34.0,white,square
0.0,3.0,3.0,0.0,7.0,3.0,1657.856663223356,2.0,1.0,phase_3,,,,,156.0,4.0,78.0,117.0,156.0,234.0,39.0,195.0,yellow,hexagon
0.0,8.0,4.0,1.0,7.0,6.0,1465.377148007974,2.0,1.0,phase_3,,,,,176.0,4.0,264.0,44.0,88.0,132.0,220.0,176.0,white,square
0.0,5.0,1.0,1.0,7.0,5.0,1586.089309072122,2.0,1.0,phase_3,,,,,195.0,5.0,78.0,117.0,234.0,156.0,195.0,39.0,cyan,triangle
0.0,5.0,1.0,1.0,7.0,4.0,1571.662463946268,2.0,1.0,phase_3,,,,,162.0,3.0,54.0,108.0,216.0,162.0,324.0,270.0,cyan,triangle
0.0,4.0,4.0,0.0,7.0,3.0,1597.0192169770598,2.0,1.0,phase_3,,,,,195.0,5.0,234.0,156.0,195.0,117.0,39.0,78.0,gray,flipped triangle
0.0,2.0,2.0,0.0,7.0,1.0,1601.3290360569954,2.0,1.0,phase_3,,,,,132.0,3.0,132.0,220.0,44.0,88.0,264.0,176.0,magenta,cross
0.0,8.0,4.0,1.0,7.0,2.0,2336.260521085933,2.0,1.0,phase_3,,,,,147.0,3.0,196.0,147.0,294.0,245.0,98.0,49.0,white,square
0.0,6.0,2.0,1.0,7.0,3.0,2092.0030281413347,2.0,1.0,phase_3,,,,,156.0,4.0,39.0,234.0,156.0,117.0,78.0,195.0,green,diamond
0.0,2.0,2.0,0.0,7.0,4.0,1533.697490114719,2.0,1.0,phase_3,,,,,147.0,3.0,196.0,49.0,245.0,147.0,98.0,294.0,magenta,cross
0.0,1.0,1.0,0.0,7.0,1.0,1660.407952964306,2.0,1.0,phase_3,,,,,147.0,3.0,147.0,98.0,245.0,49.0,196.0,294.0,blue,I
0.0,2.0,2.0,0.0,7.0,2.0,2048.938733059913,2.0,1.0,phase_3,,,,,162.0,3.0,324.0,162.0,270.0,216.0,108.0,54.0,magenta,cross
0.0,1.0,1.0,0.0,7.0,2.0,1766.7822930961847,2.0,1.0,phase_3,,,,,170.0,5.0,68.0,170.0,136.0,204.0,34.0,102.0,blue,I
0.0,2.0,2.0,0.0,7.0,3.0,1697.7248939219862,2.0,1.0,phase_3,,,,,170.0,5.0,204.0,102.0,170.0,34.0,136.0,68.0,magenta,cross
0.0,6.0,2.0,1.0,7.0,1.0,1755.9895010199398,2.0,1.0,phase_3,,,,,196.0,4.0,196.0,49.0,147.0,98.0,294.0,245.0,green,diamond
0.0,8.0,4.0,1.0,7.0,1.0,1630.7021589018404,2.0,1.0,phase_3,,,,,204.0,6.0,204.0,136.0,170.0,34.0,102.0,68.0,white,square
0.0,5.0,1.0,1.0,7.0,5.0,2015.224148053676,2.0,1.0,phase_3,,,,,147.0,3.0,245.0,294.0,196.0,98.0,147.0,49.0,cyan,triangle
0.0,8.0,4.0,1.0,7.0,4.0,1920.7660260144619,2.0,1.0,phase_3,,,,,195.0,5.0,156.0,234.0,39.0,195.0,117.0,78.0,white,square
0.0,1.0,1.0,0.0,7.0,3.0,1752.6673071552068,2.0,1.0,phase_3,,,,,176.0,4.0,264.0,220.0,176.0,88.0,44.0,132.0,blue,I
0.0,1.0,1.0,0.0,7.0,4.0,1944.3283211439848,3.0,1.0,phase_3,,,,,147.0,3.0,245.0,49.0,294.0,147.0,98.0,196.0,blue,I
0.0,6.0,2.0,1.0,7.0,5.0,2655.033486895263,3.0,1.0,phase_3,,,,,245.0,5.0,98.0,294.0,49.0,196.0,245.0,147.0,green,diamond
0.0,1.0,1.0,0.0,7.0,2.0,2001.158193917945,3.0,1.0,phase_3,,,,,216.0,4.0,54.0,216.0,324.0,162.0,108.0,270.0,blue,I
0.0,6.0,2.0,1.0,7.0,5.0,1891.1804580129683,3.0,1.0,phase_3,,,,,176.0,4.0,220.0,44.0,132.0,88.0,176.0,264.0,green,diamond
0.0,3.0,3.0,0.0,7.0,3.0,1228.495615068823,3.0,1.0,phase_3,,,,,170.0,5.0,136.0,34.0,170.0,204.0,68.0,102.0,yellow,hexagon
0.0,4.0,4.0,0.0,7.0,2.0,1445.4764029942453,3.0,1.0,phase_3,,,,,204.0,6.0,102.0,204.0,34.0,170.0,136.0,68.0,gray,flipped triangle
0.0,8.0,4.0,1.0,7.0,5.0,1129.0270870085806,3.0,1.0,phase_3,,,,,196.0,4.0,294.0,245.0,147.0,98.0,196.0,49.0,white,square
0.0,4.0,4.0,0.0,7.0,4.0,1464.0117089729756,3.0,1.0,phase_3,,,,,195.0,5.0,156.0,234.0,39.0,195.0,78.0,117.0,gray,flipped triangle
0.0,7.0,3.0,1.0,7.0,4.0,1131.5445138607174,3.0,1.0,phase_3,,,,,196.0,4.0,294.0,245.0,98.0,196.0,49.0,147.0,orange,circle
0.0,8.0,4.0,1.0,7.0,3.0,1658.3918000105768,3.0,1.0,phase_3,,,,,270.0,5.0,108.0,162.0,270.0,54.0,216.0,324.0,white,square
0.0,4.0,4.0,0.0,7.0,1.0,1684.2622659169135,3.0,1.0,phase_3,,,,,147.0,3.0,147.0,245.0,98.0,196.0,49.0,294.0,gray,flipped triangle
0.0,3.0,3.0,0.0,7.0,3.0,1448.5780589748174,3.0,1.0,phase_3,,,,,162.0,3.0,54.0,324.0,162.0,108.0,270.0,216.0,yellow,hexagon
0.0,7.0,3.0,1.0,7.0,1.0,1822.144140023738,3.0,1.0,phase_3,,,,,220.0,5.0,220.0,264.0,132.0,88.0,176.0,44.0,orange,circle
0.0,1.0,1.0,0.0,7.0,4.0,1921.259137103334,3.0,1.0,phase_3,,,,,156.0,4.0,234.0,195.0,78.0,156.0,39.0,117.0,blue,I
0.0,2.0,2.0,0.0,7.0,3.0,2072.908431990072,3.0,1.0,phase_3,,,,,170.0,5.0,204.0,68.0,170.0,102.0,34.0,136.0,magenta,cross
0.0,7.0,3.0,1.0,7.0,3.0,1763.173366896808,3.0,1.0,phase_3,,,,,136.0,4.0,204.0,34.0,136.0,170.0,68.0,102.0,orange,circle
0.0,6.0,2.0,1.0,7.0,4.0,1523.345555178821,3.0,1.0,phase_3,,,,,170.0,5.0,204.0,34.0,102.0,170.0,68.0,136.0,green,diamond
0.0,5.0,1.0,1.0,7.0,3.0,1312.6901481300592,3.0,1.0,phase_3,,,,,170.0,5.0,102.0,68.0,170.0,34.0,136.0,204.0,cyan,triangle
0.0,3.0,3.0,0.0,7.0,4.0,3070.873113116249,3.0,1.0,phase_3,,,,,220.0,5.0,132.0,88.0,176.0,220.0,264.0,44.0,yellow,hexagon
0.0,1.0,1.0,0.0,7.0,6.0,2928.5624839831144,3.0,1.0,phase_3,,,,,132.0,3.0,264.0,176.0,44.0,88.0,220.0,132.0,blue,I
0.0,4.0,4.0,0.0,7.0,3.0,1871.244931127876,4.0,1.0,phase_3,,,,,170.0,5.0,204.0,136.0,170.0,68.0,102.0,34.0,gray,flipped triangle
0.0,2.0,2.0,0.0,7.0,3.0,1778.6268999334425,4.0,1.0,phase_3,,,,,117.0,3.0,78.0,195.0,117.0,39.0,234.0,156.0,magenta,cross
0.0,2.0,2.0,0.0,7.0,4.0,1475.264776032418,4.0,1.0,phase_3,,,,,156.0,4.0,195.0,234.0,117.0,156.0,78.0,39.0,magenta,cross
0.0,6.0,2.0,1.0,7.0,2.0,2051.3425478711724,4.0,1.0,phase_3,,,,,117.0,3.0,195.0,117.0,156.0,39.0,78.0,234.0,green,diamond
0.0,3.0,3.0,0.0,7.0,3.0,2212.7035551238805,4.0,1.0,phase_3,,,,,136.0,4.0,170.0,68.0,136.0,204.0,34.0,102.0,yellow,hexagon
0.0,8.0,4.0,1.0,7.0,4.0,1543.0657151155174,4.0,1.0,phase_3,,,,,234.0,6.0,156.0,39.0,195.0,234.0,117.0,78.0,white,square
0.0,3.0,3.0,0.0,7.0,5.0,2167.590321972966,4.0,1.0,phase_3,,,,,88.0,2.0,220.0,44.0,132.0,264.0,88.0,176.0,yellow,hexagon
0.0,4.0,4.0,0.0,7.0,1.0,1615.7933459617198,4.0,1.0,phase_3,,,,,324.0,6.0,324.0,54.0,162.0,108.0,270.0,216.0,gray,flipped triangle
0.0,7.0,3.0,1.0,7.0,6.0,1836.684396956116,4.0,1.0,phase_3,,,,,245.0,5.0,196.0,294.0,147.0,98.0,49.0,245.0,orange,circle
0.0,4.0,4.0,0.0,7.0,2.0,3020.5616001039743,4.0,1.0,phase_3,,,,,108.0,2.0,162.0,108.0,54.0,270.0,324.0,216.0,gray,flipped triangle
0.0,3.0,3.0,0.0,7.0,5.0,2124.827992869541,4.0,1.0,phase_3,,,,,147.0,3.0,245.0,49.0,196.0,294.0,147.0,98.0,yellow,hexagon
0.0,2.0,2.0,0.0,7.0,4.0,1749.434927944094,4.0,1.0,phase_3,,,,,108.0,2.0,216.0,270.0,324.0,108.0,54.0,162.0,magenta,cross
0.0,8.0,4.0,1.0,7.0,6.0,1695.2653019689023,4.0,1.0,phase_3,,,,,264.0,6.0,88.0,220.0,132.0,44.0,176.0,264.0,white,square
0.0,4.0,4.0,0.0,7.0,1.0,1489.1441771760583,4.0,1.0,phase_3,,,,,220.0,5.0,220.0,44.0,132.0,264.0,176.0,88.0,gray,flipped triangle
0.0,5.0,1.0,1.0,7.0,2.0,1764.2654799856246,4.0,1.0,phase_3,,,,,162.0,3.0,324.0,162.0,54.0,270.0,108.0,216.0,cyan,triangle
0.0,7.0,3.0,1.0,7.0,4.0,2699.286888120696,4.0,1.0,phase_3,,,,,176.0,4.0,264.0,44.0,132.0,176.0,88.0,220.0,orange,circle
0.0,8.0,4.0,1.0,7.0,3.0,1134.6688468474897,4.0,1.0,phase_3,,,,,270.0,5.0,108.0,162.0,270.0,324.0,54.0,216.0,white,square
0.0,7.0,3.0,1.0,7.0,1.0,2688.2526029367,4.0,1.0,phase_3,,,,,34.0,1.0,34.0,170.0,136.0,102.0,204.0,68.0,orange,circle
0.0,4.0,4.0,0.0,7.0,4.0,1992.9366528522223,4.0,1.0,phase_3,,,,,49.0,1.0,147.0,98.0,245.0,49.0,294.0,196.0,gray,flipped triangle
0.0,5.0,1.0,1.0,7.0,4.0,1937.1583741158247,4.0,1.0,phase_3,,,,,220.0,5.0,264.0,44.0,176.0,220.0,132.0,88.0,cyan,triangle
