raw_reward_magnitude,stim_reward,stepwise_reward_magnitude,paired_with_stopping,stim_location,response,reaction_time,block,num_trial_presentations,which_phase,stop_signal_trial_type,left_SSD,right_SSD,accuracy,chosen_bidding_amount,chosen_bidding_level,possible_bid_1,possible_bid_2,possible_bid_3,possible_bid_4,possible_bid_5,possible_bid_6,color_text,shape_text
120.0,2.0,2.0,0.0,3.0,3.0,432.5438749510795,1.0,1.0,phase_1,,,,,,,,,,,,,magenta,triangle
207.0,7.0,3.0,1.0,4.0,4.0,433.4556490648538,1.0,1.0,phase_1,,,,,,,,,,,,,blue,hexagon
375.0,8.0,4.0,1.0,2.0,2.0,434.4902208540588,1.0,1.0,phase_1,,,,,,,,,,,,,yellow,I
44.0,1.0,1.0,0.0,1.0,1.0,407.1186948567629,1.0,1.0,phase_1,,,,,,,,,,,,,gray,circle
200.0,3.0,3.0,0.0,2.0,2.0,411.3669539801776,1.0,1.0,phase_1,,,,,,,,,,,,,green,flipped triangle
37.0,5.0,1.0,1.0,2.0,2.0,303.4548349678516,1.0,1.0,phase_1,,,,,,,,,,,,,orange,diamond
207.0,3.0,3.0,0.0,2.0,2.0,405.0358249805867,1.0,1.0,phase_1,,,,,,,,,,,,,green,flipped triangle
0.0,3.0,0.0,0.0,2.0,2.0,292.468013940379,1.0,1.0,phase_1,,,,,,,,,,,,,green,flipped triangle
103.0,2.0,2.0,0.0,4.0,4.0,273.9795628003776,1.0,1.0,phase_1,,,,,,,,,,,,,magenta,triangle
218.0,3.0,3.0,0.0,4.0,4.0,332.5992571189999,1.0,1.0,phase_1,,,,,,,,,,,,,green,flipped triangle
0.0,5.0,0.0,1.0,4.0,4.0,328.3123460132628,1.0,1.0,phase_1,,,,,,,,,,,,,orange,diamond
0.0,3.0,0.0,0.0,4.0,4.0,373.3344790525734,1.0,1.0,phase_1,,,,,,,,,,,,,green,flipped triangle
402.0,8.0,4.0,1.0,2.0,2.0,312.7044120337814,1.0,1.0,phase_1,,,,,,,,,,,,,yellow,I
48.0,5.0,1.0,1.0,4.0,4.0,272.5286521017551,1.0,1.0,phase_1,,,,,,,,,,,,,orange,diamond
187.0,7.0,3.0,1.0,1.0,1.0,298.5679320991039,1.0,1.0,phase_1,,,,,,,,,,,,,blue,hexagon
409.0,4.0,4.0,0.0,4.0,4.0,298.4077699948102,1.0,1.0,phase_1,,,,,,,,,,,,,white,cross
0.0,4.0,0.0,0.0,3.0,3.0,308.0849810503423,1.0,1.0,phase_1,,,,,,,,,,,,,white,cross
0.0,5.0,0.0,1.0,1.0,1.0,275.8429308887571,1.0,1.0,phase_1,,,,,,,,,,,,,orange,diamond
112.0,2.0,2.0,0.0,2.0,2.0,430.8220550883561,1.0,1.0,phase_1,,,,,,,,,,,,,magenta,triangle
119.0,6.0,2.0,1.0,3.0,3.0,426.1918829288333,1.0,1.0,phase_1,,,,,,,,,,,,,cyan,square
41.0,5.0,1.0,1.0,1.0,1.0,375.4307760391384,1.0,1.0,phase_1,,,,,,,,,,,,,orange,diamond
101.0,6.0,2.0,1.0,2.0,2.0,309.7548747900873,1.0,1.0,phase_1,,,,,,,,,,,,,cyan,square
190.0,7.0,3.0,1.0,1.0,1.0,387.033310951665,1.0,1.0,phase_1,,,,,,,,,,,,,blue,hexagon
414.0,4.0,4.0,0.0,1.0,1.0,310.3208718821406,1.0,1.0,phase_1,,,,,,,,,,,,,white,cross
92.0,6.0,2.0,1.0,2.0,2.0,259.6750729717314,1.0,1.0,phase_1,,,,,,,,,,,,,cyan,square
115.0,6.0,2.0,1.0,3.0,3.0,374.3799689691514,1.0,1.0,phase_1,,,,,,,,,,,,,cyan,square
0.0,8.0,0.0,1.0,1.0,1.0,235.4005349334329,1.0,1.0,phase_1,,,,,,,,,,,,,yellow,I
410.0,4.0,4.0,0.0,2.0,2.0,312.8976610023528,1.0,1.0,phase_1,,,,,,,,,,,,,white,cross
0.0,6.0,0.0,1.0,3.0,3.0,348.5216570552438,1.0,1.0,phase_1,,,,,,,,,,,,,cyan,square
386.0,8.0,4.0,1.0,1.0,1.0,362.5231701880693,1.0,1.0,phase_1,,,,,,,,,,,,,yellow,I
108.0,6.0,2.0,1.0,4.0,4.0,343.5042269993573,1.0,1.0,phase_1,,,,,,,,,,,,,cyan,square
417.0,4.0,4.0,0.0,1.0,1.0,346.2077979929745,1.0,1.0,phase_1,,,,,,,,,,,,,white,cross
63.0,5.0,1.0,1.0,1.0,1.0,329.6338631771505,1.0,1.0,phase_1,,,,,,,,,,,,,orange,diamond
0.0,7.0,0.0,1.0,2.0,2.0,330.4628960322588,1.0,1.0,phase_1,,,,,,,,,,,,,blue,hexagon
68.0,5.0,1.0,1.0,2.0,2.0,354.6535209752619,1.0,1.0,phase_1,,,,,,,,,,,,,orange,diamond
0.0,7.0,0.0,1.0,3.0,3.0,382.1589869912714,1.0,1.0,phase_1,,,,,,,,,,,,,blue,hexagon
99.0,6.0,2.0,1.0,3.0,3.0,362.681517843157,1.0,1.0,phase_1,,,,,,,,,,,,,cyan,square
0.0,3.0,0.0,0.0,3.0,3.0,327.6299689896405,1.0,1.0,phase_1,,,,,,,,,,,,,green,flipped triangle
86.0,2.0,2.0,0.0,4.0,4.0,307.8886568546295,1.0,1.0,phase_1,,,,,,,,,,,,,magenta,triangle
34.0,1.0,1.0,0.0,1.0,1.0,337.3220649082213,1.0,1.0,phase_1,,,,,,,,,,,,,gray,circle
0.0,2.0,0.0,0.0,2.0,2.0,375.5242459010333,1.0,1.0,phase_1,,,,,,,,,,,,,magenta,triangle
408.0,8.0,4.0,1.0,1.0,1.0,298.8835268188268,1.0,1.0,phase_1,,,,,,,,,,,,,yellow,I
176.0,3.0,3.0,0.0,1.0,1.0,325.6198558956384,1.0,1.0,phase_1,,,,,,,,,,,,,green,flipped triangle
399.0,4.0,4.0,0.0,4.0,4.0,411.9018949568271,1.0,1.0,phase_1,,,,,,,,,,,,,white,cross
0.0,8.0,0.0,1.0,3.0,3.0,344.4305160082876,1.0,1.0,phase_1,,,,,,,,,,,,,yellow,I
108.0,6.0,2.0,1.0,2.0,2.0,327.6020279154181,1.0,2.0,phase_1,,,,,,,,,,,,,cyan,square
0.0,8.0,0.0,1.0,3.0,3.0,310.6926309410482,1.0,1.0,phase_1,,,,,,,,,,,,,yellow,I
398.0,8.0,4.0,1.0,3.0,3.0,284.6699499059468,1.0,1.0,phase_1,,,,,,,,,,,,,yellow,I
0.0,6.0,0.0,1.0,3.0,3.0,334.7652950324118,1.0,1.0,phase_1,,,,,,,,,,,,,cyan,square
390.0,8.0,4.0,1.0,1.0,1.0,346.5327089652419,1.0,1.0,phase_1,,,,,,,,,,,,,yellow,I
90.0,6.0,2.0,1.0,4.0,4.0,463.612092891708,1.0,1.0,phase_1,,,,,,,,,,,,,cyan,square
187.0,3.0,3.0,0.0,1.0,1.0,334.2920560389757,1.0,1.0,phase_1,,,,,,,,,,,,,green,flipped triangle
101.0,2.0,2.0,0.0,3.0,3.0,320.6055900081992,1.0,1.0,phase_1,,,,,,,,,,,,,magenta,triangle
26.0,1.0,1.0,0.0,4.0,4.0,328.3957589883357,1.0,1.0,phase_1,,,,,,,,,,,,,gray,circle
375.0,4.0,4.0,0.0,1.0,1.0,318.1312850210815,1.0,1.0,phase_1,,,,,,,,,,,,,white,cross
417.0,4.0,4.0,0.0,4.0,4.0,368.958150036633,1.0,1.0,phase_1,,,,,,,,,,,,,white,cross
41.0,1.0,1.0,0.0,2.0,2.0,413.7136689387262,1.0,1.0,phase_1,,,,,,,,,,,,,gray,circle
35.0,1.0,1.0,0.0,1.0,1.0,298.5308030620217,1.0,1.0,phase_1,,,,,,,,,,,,,gray,circle
0.0,2.0,0.0,0.0,4.0,4.0,349.3816130794585,1.0,1.0,phase_1,,,,,,,,,,,,,magenta,triangle
389.0,8.0,4.0,1.0,4.0,4.0,339.4784990232438,1.0,1.0,phase_1,,,,,,,,,,,,,yellow,I
0.0,2.0,0.0,0.0,2.0,2.0,345.176326110959,1.0,1.0,phase_1,,,,,,,,,,,,,magenta,triangle
410.0,8.0,4.0,1.0,1.0,1.0,516.9461339246482,1.0,1.0,phase_1,,,,,,,,,,,,,yellow,I
108.0,2.0,2.0,0.0,3.0,3.0,482.6309611089527,1.0,1.0,phase_1,,,,,,,,,,,,,magenta,triangle
113.0,6.0,2.0,1.0,1.0,1.0,333.2713120616972,1.0,1.0,phase_1,,,,,,,,,,,,,cyan,square
210.0,7.0,3.0,1.0,4.0,4.0,377.4225630331784,1.0,1.0,phase_1,,,,,,,,,,,,,blue,hexagon
65.0,5.0,1.0,1.0,4.0,4.0,358.4422578569501,1.0,1.0,phase_1,,,,,,,,,,,,,orange,diamond
196.0,3.0,3.0,0.0,4.0,4.0,274.7514280490577,1.0,1.0,phase_1,,,,,,,,,,,,,green,flipped triangle
182.0,7.0,3.0,1.0,3.0,3.0,344.1672278568148,1.0,1.0,phase_1,,,,,,,,,,,,,blue,hexagon
424.0,4.0,4.0,0.0,3.0,3.0,299.7972569428384,1.0,1.0,phase_1,,,,,,,,,,,,,white,cross
68.0,1.0,1.0,0.0,4.0,4.0,362.7737399656325,1.0,1.0,phase_1,,,,,,,,,,,,,gray,circle
403.0,4.0,4.0,0.0,1.0,1.0,360.0986618548631,1.0,1.0,phase_1,,,,,,,,,,,,,white,cross
82.0,2.0,2.0,0.0,1.0,1.0,283.0991188529879,1.0,1.0,phase_1,,,,,,,,,,,,,magenta,triangle
86.0,6.0,2.0,1.0,3.0,3.0,385.2956569753587,1.0,1.0,phase_1,,,,,,,,,,,,,cyan,square
381.0,4.0,4.0,0.0,1.0,1.0,331.3949650619179,1.0,1.0,phase_1,,,,,,,,,,,,,white,cross
199.0,7.0,3.0,1.0,4.0,4.0,258.6007441859692,1.0,1.0,phase_1,,,,,,,,,,,,,blue,hexagon
0.0,1.0,0.0,0.0,1.0,1.0,364.3852940294891,1.0,1.0,phase_1,,,,,,,,,,,,,gray,circle
0.0,7.0,0.0,1.0,2.0,2.0,328.5827490035444,1.0,1.0,phase_1,,,,,,,,,,,,,blue,hexagon
0.0,7.0,0.0,1.0,3.0,3.0,382.9614939168095,1.0,1.0,phase_1,,,,,,,,,,,,,blue,hexagon
29.0,1.0,1.0,0.0,4.0,4.0,365.6861861236393,1.0,1.0,phase_1,,,,,,,,,,,,,gray,circle
196.0,7.0,3.0,1.0,1.0,1.0,378.0947008635849,1.0,1.0,phase_1,,,,,,,,,,,,,blue,hexagon
396.0,4.0,4.0,0.0,2.0,2.0,357.8775899950415,1.0,1.0,phase_1,,,,,,,,,,,,,white,cross
0.0,5.0,0.0,1.0,3.0,3.0,385.0790511351079,1.0,1.0,phase_1,,,,,,,,,,,,,orange,diamond
202.0,3.0,3.0,0.0,4.0,4.0,438.4613120928406,1.0,1.0,phase_1,,,,,,,,,,,,,green,flipped triangle
179.0,3.0,3.0,0.0,2.0,2.0,323.6891741398722,1.0,1.0,phase_1,,,,,,,,,,,,,green,flipped triangle
48.0,1.0,1.0,0.0,2.0,2.0,391.173027921468,1.0,2.0,phase_1,,,,,,,,,,,,,gray,circle
98.0,6.0,2.0,1.0,1.0,1.0,329.5400450006127,1.0,1.0,phase_1,,,,,,,,,,,,,cyan,square
0.0,2.0,0.0,0.0,1.0,1.0,381.4938408322632,1.0,1.0,phase_1,,,,,,,,,,,,,magenta,triangle
0.0,1.0,0.0,0.0,1.0,1.0,348.4569590073079,1.0,1.0,phase_1,,,,,,,,,,,,,gray,circle
0.0,4.0,0.0,0.0,4.0,4.0,350.2556651365012,1.0,1.0,phase_1,,,,,,,,,,,,,white,cross
190.0,3.0,3.0,0.0,3.0,3.0,390.0845369789749,1.0,1.0,phase_1,,,,,,,,,,,,,green,flipped triangle
50.0,5.0,1.0,1.0,1.0,1.0,321.1344021838158,1.0,1.0,phase_1,,,,,,,,,,,,,orange,diamond
113.0,2.0,2.0,0.0,1.0,1.0,358.9370350819081,1.0,1.0,phase_1,,,,,,,,,,,,,magenta,triangle
35.0,5.0,1.0,1.0,3.0,3.0,352.6290128938854,1.0,1.0,phase_1,,,,,,,,,,,,,orange,diamond
221.0,3.0,3.0,0.0,3.0,3.0,349.3402060121298,1.0,1.0,phase_1,,,,,,,,,,,,,green,flipped triangle
72.0,5.0,1.0,1.0,4.0,4.0,389.1334170475602,1.0,1.0,phase_1,,,,,,,,,,,,,orange,diamond
57.0,1.0,1.0,0.0,2.0,2.0,326.479302952066,1.0,1.0,phase_1,,,,,,,,,,,,,gray,circle
35.0,1.0,1.0,0.0,3.0,3.0,355.844764970243,1.0,1.0,phase_1,,,,,,,,,,,,,gray,circle
0.0,5.0,0.0,1.0,2.0,2.0,409.6938450820744,1.0,1.0,phase_1,,,,,,,,,,,,,orange,diamond
37.0,1.0,1.0,0.0,4.0,4.0,374.621134949848,1.0,1.0,phase_1,,,,,,,,,,,,,gray,circle
55.0,5.0,1.0,1.0,2.0,2.0,394.5989410858601,1.0,1.0,phase_1,,,,,,,,,,,,,orange,diamond
0.0,3.0,0.0,0.0,1.0,1.0,331.4840279053896,2.0,1.0,phase_1,,,,,,,,,,,,,green,flipped triangle
215.0,3.0,3.0,0.0,2.0,2.0,443.9734651241451,2.0,2.0,phase_1,,,,,,,,,,,,,green,flipped triangle
77.0,6.0,2.0,1.0,1.0,1.0,499.8535891063511,2.0,1.0,phase_1,,,,,,,,,,,,,cyan,square
124.0,2.0,2.0,0.0,2.0,2.0,302.7833339292556,2.0,1.0,phase_1,,,,,,,,,,,,,magenta,triangle
0.0,7.0,0.0,1.0,1.0,1.0,377.683580853045,2.0,1.0,phase_1,,,,,,,,,,,,,blue,hexagon
381.0,4.0,4.0,0.0,3.0,3.0,429.9235879443586,2.0,1.0,phase_1,,,,,,,,,,,,,white,cross
417.0,8.0,4.0,1.0,3.0,3.0,358.1872459035367,2.0,1.0,phase_1,,,,,,,,,,,,,yellow,I
401.0,8.0,4.0,1.0,1.0,1.0,319.9966039974242,2.0,1.0,phase_1,,,,,,,,,,,,,yellow,I
53.0,5.0,1.0,1.0,4.0,4.0,326.1460058856755,2.0,1.0,phase_1,,,,,,,,,,,,,orange,diamond
78.0,6.0,2.0,1.0,3.0,3.0,425.7881809026003,2.0,1.0,phase_1,,,,,,,,,,,,,cyan,square
192.0,3.0,3.0,0.0,4.0,4.0,342.3764719627797,2.0,1.0,phase_1,,,,,,,,,,,,,green,flipped triangle
215.0,7.0,3.0,1.0,4.0,4.0,276.7981819342822,2.0,1.0,phase_1,,,,,,,,,,,,,blue,hexagon
182.0,7.0,3.0,1.0,4.0,4.0,329.4547440018505,2.0,1.0,phase_1,,,,,,,,,,,,,blue,hexagon
214.0,7.0,3.0,1.0,1.0,1.0,414.2196339089423,2.0,1.0,phase_1,,,,,,,,,,,,,blue,hexagon
60.0,1.0,1.0,0.0,4.0,4.0,251.819510012865,2.0,1.0,phase_1,,,,,,,,,,,,,gray,circle
396.0,8.0,4.0,1.0,2.0,2.0,316.6257219854742,2.0,1.0,phase_1,,,,,,,,,,,,,yellow,I
0.0,4.0,0.0,0.0,3.0,3.0,426.6531828325242,2.0,1.0,phase_1,,,,,,,,,,,,,white,cross
34.0,5.0,1.0,1.0,2.0,2.0,342.6696190144866,2.0,2.0,phase_1,,,,,,,,,,,,,orange,diamond
214.0,3.0,3.0,0.0,2.0,2.0,321.702416986227,2.0,1.0,phase_1,,,,,,,,,,,,,green,flipped triangle
222.0,7.0,3.0,1.0,4.0,4.0,333.3340289536863,2.0,1.0,phase_1,,,,,,,,,,,,,blue,hexagon
89.0,6.0,2.0,1.0,4.0,4.0,336.9743030052632,2.0,1.0,phase_1,,,,,,,,,,,,,cyan,square
120.0,6.0,2.0,1.0,1.0,1.0,414.7703580092639,2.0,1.0,phase_1,,,,,,,,,,,,,cyan,square
198.0,3.0,3.0,0.0,3.0,3.0,325.1520909834653,2.0,1.0,phase_1,,,,,,,,,,,,,green,flipped triangle
181.0,3.0,3.0,0.0,4.0,4.0,328.0047480948269,2.0,1.0,phase_1,,,,,,,,,,,,,green,flipped triangle
191.0,7.0,3.0,1.0,2.0,2.0,359.5287438947707,2.0,1.0,phase_1,,,,,,,,,,,,,blue,hexagon
67.0,1.0,1.0,0.0,1.0,1.0,376.3715298846364,2.0,1.0,phase_1,,,,,,,,,,,,,gray,circle
184.0,3.0,3.0,0.0,4.0,4.0,343.731353059411,2.0,1.0,phase_1,,,,,,,,,,,,,green,flipped triangle
78.0,2.0,2.0,0.0,4.0,4.0,372.6891500409692,2.0,1.0,phase_1,,,,,,,,,,,,,magenta,triangle
77.0,6.0,2.0,1.0,2.0,2.0,385.5649700853973,2.0,1.0,phase_1,,,,,,,,,,,,,cyan,square
101.0,6.0,2.0,1.0,1.0,1.0,476.3433390762657,2.0,1.0,phase_1,,,,,,,,,,,,,cyan,square
0.0,7.0,0.0,1.0,3.0,3.0,329.8118680249899,2.0,1.0,phase_1,,,,,,,,,,,,,blue,hexagon
176.0,7.0,3.0,1.0,3.0,3.0,312.657417031005,2.0,1.0,phase_1,,,,,,,,,,,,,blue,hexagon
123.0,6.0,2.0,1.0,2.0,2.0,378.9712178986519,2.0,1.0,phase_1,,,,,,,,,,,,,cyan,square
409.0,8.0,4.0,1.0,2.0,2.0,423.2975000049919,2.0,1.0,phase_1,,,,,,,,,,,,,yellow,I
395.0,8.0,4.0,1.0,4.0,4.0,418.6624709982425,2.0,1.0,phase_1,,,,,,,,,,,,,yellow,I
40.0,5.0,1.0,1.0,1.0,1.0,358.9627449400723,2.0,1.0,phase_1,,,,,,,,,,,,,orange,diamond
379.0,4.0,4.0,0.0,3.0,3.0,348.7782850861549,2.0,1.0,phase_1,,,,,,,,,,,,,white,cross
418.0,8.0,4.0,1.0,4.0,4.0,394.5653128903359,2.0,1.0,phase_1,,,,,,,,,,,,,yellow,I
202.0,7.0,3.0,1.0,3.0,3.0,446.124420966953,2.0,1.0,phase_1,,,,,,,,,,,,,blue,hexagon
0.0,6.0,0.0,1.0,4.0,4.0,363.6943690944463,2.0,1.0,phase_1,,,,,,,,,,,,,cyan,square
26.0,5.0,1.0,1.0,1.0,1.0,351.3146289624274,2.0,1.0,phase_1,,,,,,,,,,,,,orange,diamond
101.0,2.0,2.0,0.0,3.0,3.0,348.2622990850359,2.0,1.0,phase_1,,,,,,,,,,,,,magenta,triangle
0.0,1.0,0.0,0.0,3.0,3.0,355.8546940330416,2.0,1.0,phase_1,,,,,,,,,,,,,gray,circle
90.0,2.0,2.0,0.0,3.0,3.0,319.3419419694692,2.0,1.0,phase_1,,,,,,,,,,,,,magenta,triangle
107.0,2.0,2.0,0.0,2.0,2.0,369.7660400066525,2.0,1.0,phase_1,,,,,,,,,,,,,magenta,triangle
35.0,5.0,1.0,1.0,1.0,1.0,409.1326131019741,2.0,1.0,phase_1,,,,,,,,,,,,,orange,diamond
0.0,6.0,0.0,1.0,2.0,2.0,452.999364817515,2.0,1.0,phase_1,,,,,,,,,,,,,cyan,square
219.0,3.0,3.0,0.0,2.0,2.0,503.7447470240295,2.0,1.0,phase_1,,,,,,,,,,,,,green,flipped triangle
385.0,8.0,4.0,1.0,4.0,4.0,374.538036994636,2.0,1.0,phase_1,,,,,,,,,,,,,yellow,I
199.0,3.0,3.0,0.0,2.0,2.0,329.0649568662047,2.0,1.0,phase_1,,,,,,,,,,,,,green,flipped triangle
191.0,3.0,3.0,0.0,1.0,1.0,511.5975660737604,2.0,1.0,phase_1,,,,,,,,,,,,,green,flipped triangle
200.0,7.0,3.0,1.0,4.0,4.0,338.5306731797755,2.0,1.0,phase_1,,,,,,,,,,,,,blue,hexagon
116.0,2.0,2.0,0.0,2.0,2.0,378.7508851382881,2.0,1.0,phase_1,,,,,,,,,,,,,magenta,triangle
62.0,1.0,1.0,0.0,2.0,2.0,387.9564048256725,2.0,1.0,phase_1,,,,,,,,,,,,,gray,circle
181.0,7.0,3.0,1.0,3.0,3.0,394.9961450416595,2.0,1.0,phase_1,,,,,,,,,,,,,blue,hexagon
196.0,3.0,3.0,0.0,2.0,2.0,293.4935099910944,2.0,1.0,phase_1,,,,,,,,,,,,,green,flipped triangle
26.0,1.0,1.0,0.0,4.0,4.0,388.3768538944423,2.0,1.0,phase_1,,,,,,,,,,,,,gray,circle
48.0,5.0,1.0,1.0,3.0,3.0,376.0240429546684,2.0,1.0,phase_1,,,,,,,,,,,,,orange,diamond
0.0,2.0,0.0,0.0,2.0,2.0,346.9179859384894,2.0,1.0,phase_1,,,,,,,,,,,,,magenta,triangle
182.0,3.0,3.0,0.0,2.0,2.0,354.7368601430207,2.0,1.0,phase_1,,,,,,,,,,,,,green,flipped triangle
215.0,3.0,3.0,0.0,1.0,1.0,361.8609998375177,2.0,2.0,phase_1,,,,,,,,,,,,,green,flipped triangle
192.0,7.0,3.0,1.0,4.0,4.0,398.5468728933483,2.0,1.0,phase_1,,,,,,,,,,,,,blue,hexagon
222.0,3.0,3.0,0.0,1.0,1.0,422.4239541217685,2.0,1.0,phase_1,,,,,,,,,,,,,green,flipped triangle
62.0,5.0,1.0,1.0,4.0,4.0,411.401537945494,2.0,1.0,phase_1,,,,,,,,,,,,,orange,diamond
0.0,4.0,0.0,0.0,3.0,3.0,342.2023048624396,2.0,1.0,phase_1,,,,,,,,,,,,,white,cross
401.0,4.0,4.0,0.0,3.0,3.0,338.26639596372837,2.0,1.0,phase_1,,,,,,,,,,,,,white,cross
60.0,5.0,1.0,1.0,4.0,4.0,375.2991140354424,2.0,1.0,phase_1,,,,,,,,,,,,,orange,diamond
0.0,5.0,0.0,1.0,4.0,4.0,427.6618389412761,2.0,1.0,phase_1,,,,,,,,,,,,,orange,diamond
399.0,8.0,4.0,1.0,3.0,3.0,342.6814579870552,2.0,1.0,phase_1,,,,,,,,,,,,,yellow,I
219.0,7.0,3.0,1.0,4.0,4.0,347.1668530255556,2.0,1.0,phase_1,,,,,,,,,,,,,blue,hexagon
203.0,3.0,3.0,0.0,4.0,4.0,514.5160499960184,2.0,1.0,phase_1,,,,,,,,,,,,,green,flipped triangle
0.0,2.0,0.0,0.0,1.0,1.0,477.2603339515626,2.0,1.0,phase_1,,,,,,,,,,,,,magenta,triangle
380.0,8.0,4.0,1.0,4.0,4.0,314.5588529296219,2.0,1.0,phase_1,,,,,,,,,,,,,yellow,I
120.0,2.0,2.0,0.0,1.0,1.0,397.9202779009938,2.0,1.0,phase_1,,,,,,,,,,,,,magenta,triangle
0.0,8.0,0.0,1.0,1.0,1.0,373.8670791499316,2.0,1.0,phase_1,,,,,,,,,,,,,yellow,I
108.0,2.0,2.0,0.0,1.0,1.0,346.0135459899902,2.0,1.0,phase_1,,,,,,,,,,,,,magenta,triangle
0.0,3.0,0.0,0.0,4.0,4.0,366.5606919676065,2.0,1.0,phase_1,,,,,,,,,,,,,green,flipped triangle
53.0,1.0,1.0,0.0,1.0,1.0,400.9410729631781,2.0,1.0,phase_1,,,,,,,,,,,,,gray,circle
175.0,3.0,3.0,0.0,1.0,1.0,357.4060699902475,2.0,1.0,phase_1,,,,,,,,,,,,,green,flipped triangle
0.0,8.0,0.0,1.0,2.0,2.0,484.6557551063597,2.0,1.0,phase_1,,,,,,,,,,,,,yellow,I
102.0,6.0,2.0,1.0,4.0,4.0,288.7590518221259,2.0,1.0,phase_1,,,,,,,,,,,,,cyan,square
412.0,8.0,4.0,1.0,2.0,2.0,414.62998907081777,2.0,1.0,phase_1,,,,,,,,,,,,,yellow,I
44.0,5.0,1.0,1.0,3.0,3.0,448.4092779457569,2.0,1.0,phase_1,,,,,,,,,,,,,orange,diamond
112.0,6.0,2.0,1.0,4.0,4.0,301.5430090017617,2.0,1.0,phase_1,,,,,,,,,,,,,cyan,square
68.0,5.0,1.0,1.0,2.0,2.0,370.0944539159536,2.0,1.0,phase_1,,,,,,,,,,,,,orange,diamond
406.0,8.0,4.0,1.0,3.0,3.0,321.774085983634,2.0,1.0,phase_1,,,,,,,,,,,,,yellow,I
108.0,6.0,2.0,1.0,3.0,3.0,396.86308382079,2.0,1.0,phase_1,,,,,,,,,,,,,cyan,square
28.0,1.0,1.0,0.0,3.0,3.0,307.1714998222887,2.0,1.0,phase_1,,,,,,,,,,,,,gray,circle
207.0,7.0,3.0,1.0,3.0,3.0,326.3443738687783,2.0,1.0,phase_1,,,,,,,,,,,,,blue,hexagon
68.0,1.0,1.0,0.0,3.0,3.0,285.0845730863511,2.0,1.0,phase_1,,,,,,,,,,,,,gray,circle
184.0,7.0,3.0,1.0,2.0,2.0,269.2282409407198,2.0,1.0,phase_1,,,,,,,,,,,,,blue,hexagon
0.0,4.0,0.0,0.0,3.0,3.0,402.124339947477,2.0,1.0,phase_1,,,,,,,,,,,,,white,cross
0.0,3.0,0.0,0.0,1.0,1.0,384.838773868978,2.0,1.0,phase_1,,,,,,,,,,,,,green,flipped triangle
73.0,1.0,1.0,0.0,1.0,1.0,455.7377300225198,2.0,1.0,phase_1,,,,,,,,,,,,,gray,circle
57.0,5.0,1.0,1.0,2.0,2.0,394.4318308494985,2.0,1.0,phase_1,,,,,,,,,,,,,orange,diamond
124.0,6.0,2.0,1.0,3.0,3.0,328.3067380543798,2.0,1.0,phase_1,,,,,,,,,,,,,cyan,square
49.0,1.0,1.0,0.0,2.0,2.0,436.248947866261,2.0,1.0,phase_1,,,,,,,,,,,,,gray,circle
198.0,7.0,3.0,1.0,3.0,3.0,326.4975959900766,2.0,1.0,phase_1,,,,,,,,,,,,,blue,hexagon
0.0,6.0,0.0,1.0,1.0,1.0,301.1847019661218,2.0,1.0,phase_1,,,,,,,,,,,,,cyan,square
0.0,4.0,0.0,0.0,3.0,3.0,338.5092169046402,2.0,1.0,phase_1,,,,,,,,,,,,,white,cross
88.0,2.0,2.0,0.0,2.0,2.0,350.17094691284,3.0,1.0,phase_1,,,,,,,,,,,,,magenta,triangle
0.0,6.0,0.0,1.0,4.0,4.0,316.2449509836733,3.0,1.0,phase_1,,,,,,,,,,,,,cyan,square
208.0,3.0,3.0,0.0,1.0,1.0,375.3562411293387,3.0,1.0,phase_1,,,,,,,,,,,,,green,flipped triangle
412.0,4.0,4.0,0.0,2.0,2.0,300.6055399309844,3.0,1.0,phase_1,,,,,,,,,,,,,white,cross
111.0,2.0,2.0,0.0,3.0,3.0,316.239841049537,3.0,1.0,phase_1,,,,,,,,,,,,,magenta,triangle
108.0,2.0,2.0,0.0,2.0,2.0,368.9462360925972,3.0,1.0,phase_1,,,,,,,,,,,,,magenta,triangle
46.0,1.0,1.0,0.0,3.0,3.0,250.5215539131313,3.0,1.0,phase_1,,,,,,,,,,,,,gray,circle
77.0,2.0,2.0,0.0,3.0,3.0,335.2106579113751,3.0,1.0,phase_1,,,,,,,,,,,,,magenta,triangle
208.0,7.0,3.0,1.0,3.0,3.0,294.8372529353946,3.0,1.0,phase_1,,,,,,,,,,,,,blue,hexagon
418.0,4.0,4.0,0.0,1.0,1.0,353.1609459314495,3.0,1.0,phase_1,,,,,,,,,,,,,white,cross
196.0,7.0,3.0,1.0,2.0,2.0,286.0595181118697,3.0,1.0,phase_1,,,,,,,,,,,,,blue,hexagon
188.0,7.0,3.0,1.0,2.0,2.0,387.9959499463439,3.0,1.0,phase_1,,,,,,,,,,,,,blue,hexagon
49.0,5.0,1.0,1.0,4.0,4.0,335.393892833963,3.0,1.0,phase_1,,,,,,,,,,,,,orange,diamond
412.0,8.0,4.0,1.0,2.0,2.0,221.1404098197817,3.0,1.0,phase_1,,,,,,,,,,,,,yellow,I
385.0,4.0,4.0,0.0,4.0,4.0,288.8448520097881,3.0,1.0,phase_1,,,,,,,,,,,,,white,cross
103.0,6.0,2.0,1.0,2.0,2.0,302.4907619692385,3.0,1.0,phase_1,,,,,,,,,,,,,cyan,square
416.0,4.0,4.0,0.0,3.0,3.0,361.5115860011428,3.0,1.0,phase_1,,,,,,,,,,,,,white,cross
72.0,1.0,1.0,0.0,1.0,1.0,341.6382931172848,3.0,1.0,phase_1,,,,,,,,,,,,,gray,circle
111.0,6.0,2.0,1.0,3.0,3.0,333.8261190801859,3.0,1.0,phase_1,,,,,,,,,,,,,cyan,square
75.0,6.0,2.0,1.0,2.0,2.0,329.5895159244537,3.0,1.0,phase_1,,,,,,,,,,,,,cyan,square
406.0,8.0,4.0,1.0,3.0,3.0,349.2154760751873,3.0,1.0,phase_1,,,,,,,,,,,,,yellow,I
402.0,8.0,4.0,1.0,2.0,2.0,304.5496200211346,3.0,1.0,phase_1,,,,,,,,,,,,,yellow,I
50.0,1.0,1.0,0.0,4.0,4.0,348.7357180565595,3.0,2.0,phase_1,,,,,,,,,,,,,gray,circle
0.0,2.0,0.0,0.0,4.0,4.0,513.3293708786368,3.0,1.0,phase_1,,,,,,,,,,,,,magenta,triangle
381.0,8.0,4.0,1.0,1.0,1.0,398.3317920938134,3.0,1.0,phase_1,,,,,,,,,,,,,yellow,I
77.0,2.0,2.0,0.0,1.0,1.0,291.9195957947522,3.0,1.0,phase_1,,,,,,,,,,,,,magenta,triangle
413.0,4.0,4.0,0.0,4.0,4.0,300.9858028963208,3.0,1.0,phase_1,,,,,,,,,,,,,white,cross
0.0,1.0,0.0,0.0,3.0,3.0,332.1538618765771,3.0,1.0,phase_1,,,,,,,,,,,,,gray,circle
67.0,5.0,1.0,1.0,1.0,1.0,249.1453008260578,3.0,1.0,phase_1,,,,,,,,,,,,,orange,diamond
206.0,3.0,3.0,0.0,3.0,3.0,458.7448528036475,3.0,1.0,phase_1,,,,,,,,,,,,,green,flipped triangle
0.0,5.0,0.0,1.0,2.0,2.0,333.6800609249621,3.0,2.0,phase_1,,,,,,,,,,,,,orange,diamond
34.0,5.0,1.0,1.0,3.0,3.0,409.0488580986857,3.0,1.0,phase_1,,,,,,,,,,,,,orange,diamond
200.0,3.0,3.0,0.0,1.0,1.0,304.5639139600098,3.0,1.0,phase_1,,,,,,,,,,,,,green,flipped triangle
120.0,6.0,2.0,1.0,2.0,2.0,300.8901500143111,3.0,1.0,phase_1,,,,,,,,,,,,,cyan,square
50.0,5.0,1.0,1.0,1.0,1.0,411.1183290369808,3.0,1.0,phase_1,,,,,,,,,,,,,orange,diamond
210.0,3.0,3.0,0.0,4.0,4.0,323.699067113921,3.0,1.0,phase_1,,,,,,,,,,,,,green,flipped triangle
0.0,4.0,0.0,0.0,2.0,2.0,434.8604588303715,3.0,1.0,phase_1,,,,,,,,,,,,,white,cross
48.0,5.0,1.0,1.0,3.0,3.0,309.5944598317146,3.0,1.0,phase_1,,,,,,,,,,,,,orange,diamond
222.0,3.0,3.0,0.0,3.0,3.0,411.6456708870828,3.0,1.0,phase_1,,,,,,,,,,,,,green,flipped triangle
175.0,7.0,3.0,1.0,2.0,2.0,358.6481239181012,3.0,1.0,phase_1,,,,,,,,,,,,,blue,hexagon
94.0,2.0,2.0,0.0,2.0,2.0,356.4241169951856,3.0,1.0,phase_1,,,,,,,,,,,,,magenta,triangle
30.0,5.0,1.0,1.0,3.0,3.0,351.9802959635854,3.0,1.0,phase_1,,,,,,,,,,,,,orange,diamond
120.0,2.0,2.0,0.0,1.0,1.0,308.718784013763,3.0,1.0,phase_1,,,,,,,,,,,,,magenta,triangle
203.0,7.0,3.0,1.0,3.0,3.0,297.0732811372727,3.0,1.0,phase_1,,,,,,,,,,,,,blue,hexagon
96.0,2.0,2.0,0.0,2.0,2.0,462.8621491137892,3.0,1.0,phase_1,,,,,,,,,,,,,magenta,triangle
89.0,6.0,2.0,1.0,3.0,3.0,325.5661320872605,3.0,1.0,phase_1,,,,,,,,,,,,,cyan,square
207.0,7.0,3.0,1.0,2.0,2.0,434.5200059469789,3.0,1.0,phase_1,,,,,,,,,,,,,blue,hexagon
89.0,2.0,2.0,0.0,4.0,4.0,364.0240340027958,3.0,1.0,phase_1,,,,,,,,,,,,,magenta,triangle
0.0,3.0,0.0,0.0,1.0,1.0,504.59925015456975,3.0,1.0,phase_1,,,,,,,,,,,,,green,flipped triangle
26.0,5.0,1.0,1.0,4.0,4.0,351.9960690755397,3.0,1.0,phase_1,,,,,,,,,,,,,orange,diamond
395.0,8.0,4.0,1.0,1.0,1.0,361.9667529128492,3.0,1.0,phase_1,,,,,,,,,,,,,yellow,I
0.0,1.0,0.0,0.0,4.0,4.0,374.6184769552201,3.0,1.0,phase_1,,,,,,,,,,,,,gray,circle
34.0,1.0,1.0,0.0,2.0,2.0,274.7467139270156,3.0,1.0,phase_1,,,,,,,,,,,,,gray,circle
102.0,2.0,2.0,0.0,1.0,1.0,306.0108269564807,3.0,1.0,phase_1,,,,,,,,,,,,,magenta,triangle
377.0,4.0,4.0,0.0,2.0,2.0,373.6073349136859,3.0,1.0,phase_1,,,,,,,,,,,,,white,cross
202.0,3.0,3.0,0.0,1.0,1.0,416.1934189032763,3.0,2.0,phase_1,,,,,,,,,,,,,green,flipped triangle
119.0,2.0,2.0,0.0,4.0,4.0,357.9015741124749,3.0,1.0,phase_1,,,,,,,,,,,,,magenta,triangle
418.0,4.0,4.0,0.0,4.0,4.0,407.649926142767,3.0,1.0,phase_1,,,,,,,,,,,,,white,cross
190.0,7.0,3.0,1.0,1.0,1.0,515.982419019565,3.0,1.0,phase_1,,,,,,,,,,,,,blue,hexagon
0.0,2.0,0.0,0.0,1.0,1.0,354.4850219041109,3.0,1.0,phase_1,,,,,,,,,,,,,magenta,triangle
0.0,1.0,0.0,0.0,4.0,4.0,325.6242440547794,3.0,1.0,phase_1,,,,,,,,,,,,,gray,circle
0.0,3.0,0.0,0.0,3.0,3.0,386.0299079678952,3.0,1.0,phase_1,,,,,,,,,,,,,green,flipped triangle
89.0,2.0,2.0,0.0,2.0,2.0,290.3904230333864,3.0,1.0,phase_1,,,,,,,,,,,,,magenta,triangle
107.0,6.0,2.0,1.0,4.0,4.0,363.9101509470492,3.0,1.0,phase_1,,,,,,,,,,,,,cyan,square
380.0,4.0,4.0,0.0,1.0,1.0,307.0682708639651,3.0,1.0,phase_1,,,,,,,,,,,,,white,cross
215.0,7.0,3.0,1.0,1.0,1.0,309.8167390562594,3.0,1.0,phase_1,,,,,,,,,,,,,blue,hexagon
190.0,3.0,3.0,0.0,1.0,1.0,347.865069983527,3.0,1.0,phase_1,,,,,,,,,,,,,green,flipped triangle
222.0,7.0,3.0,1.0,2.0,2.0,334.7842930816114,3.0,1.0,phase_1,,,,,,,,,,,,,blue,hexagon
43.0,5.0,1.0,1.0,2.0,2.0,334.7637259867042,3.0,1.0,phase_1,,,,,,,,,,,,,orange,diamond
402.0,4.0,4.0,0.0,2.0,2.0,281.469606095925,3.0,1.0,phase_1,,,,,,,,,,,,,white,cross
0.0,4.0,0.0,0.0,3.0,3.0,341.4552910253405,3.0,1.0,phase_1,,,,,,,,,,,,,white,cross
26.0,1.0,1.0,0.0,1.0,1.0,369.6991719771176,3.0,1.0,phase_1,,,,,,,,,,,,,gray,circle
0.0,5.0,0.0,1.0,1.0,1.0,342.5661120563745,3.0,1.0,phase_1,,,,,,,,,,,,,orange,diamond
68.0,5.0,1.0,1.0,3.0,3.0,452.5711850728839,3.0,1.0,phase_1,,,,,,,,,,,,,orange,diamond
30.0,1.0,1.0,0.0,3.0,3.0,336.0418118536472,3.0,1.0,phase_1,,,,,,,,,,,,,gray,circle
90.0,2.0,2.0,0.0,4.0,4.0,326.7521241214126,3.0,1.0,phase_1,,,,,,,,,,,,,magenta,triangle
63.0,1.0,1.0,0.0,1.0,1.0,418.9794110134244,3.0,1.0,phase_1,,,,,,,,,,,,,gray,circle
0.0,5.0,0.0,1.0,2.0,2.0,493.2441560085863,3.0,1.0,phase_1,,,,,,,,,,,,,orange,diamond
194.0,3.0,3.0,0.0,3.0,3.0,377.784167882055,3.0,1.0,phase_1,,,,,,,,,,,,,green,flipped triangle
43.0,1.0,1.0,0.0,3.0,3.0,327.56561296992,3.0,1.0,phase_1,,,,,,,,,,,,,gray,circle
381.0,8.0,4.0,1.0,1.0,1.0,366.4688440039754,3.0,1.0,phase_1,,,,,,,,,,,,,yellow,I
390.0,4.0,4.0,0.0,4.0,4.0,368.9878128934651,3.0,1.0,phase_1,,,,,,,,,,,,,white,cross
395.0,4.0,4.0,0.0,2.0,2.0,366.3287870585918,3.0,1.0,phase_1,,,,,,,,,,,,,white,cross
0.0,3.0,0.0,0.0,2.0,2.0,313.2427050732076,3.0,1.0,phase_1,,,,,,,,,,,,,green,flipped triangle
210.0,3.0,3.0,0.0,3.0,3.0,245.8977820351719,3.0,1.0,phase_1,,,,,,,,,,,,,green,flipped triangle
82.0,6.0,2.0,1.0,2.0,2.0,362.245128955692,3.0,1.0,phase_1,,,,,,,,,,,,,cyan,square
424.0,8.0,4.0,1.0,4.0,4.0,393.9811270684004,3.0,1.0,phase_1,,,,,,,,,,,,,yellow,I
218.0,7.0,3.0,1.0,1.0,1.0,399.7212890535593,3.0,1.0,phase_1,,,,,,,,,,,,,blue,hexagon
66.0,5.0,1.0,1.0,3.0,3.0,328.6375519819557,3.0,1.0,phase_1,,,,,,,,,,,,,orange,diamond
406.0,4.0,4.0,0.0,1.0,1.0,365.5266321729868,3.0,1.0,phase_1,,,,,,,,,,,,,white,cross
406.0,4.0,4.0,0.0,2.0,2.0,402.9725878499448,3.0,1.0,phase_1,,,,,,,,,,,,,white,cross
0.0,2.0,0.0,0.0,2.0,2.0,342.7245640195906,3.0,1.0,phase_1,,,,,,,,,,,,,magenta,triangle
91.0,6.0,2.0,1.0,4.0,4.0,356.4382260665297,3.0,1.0,phase_1,,,,,,,,,,,,,cyan,square
101.0,6.0,2.0,1.0,1.0,1.0,312.8441071603447,3.0,1.0,phase_1,,,,,,,,,,,,,cyan,square
91.0,2.0,2.0,0.0,2.0,2.0,726.9602729938924,3.0,1.0,phase_1,,,,,,,,,,,,,magenta,triangle
390.0,8.0,4.0,1.0,3.0,3.0,329.7107808757573,3.0,1.0,phase_1,,,,,,,,,,,,,yellow,I
99.0,2.0,2.0,0.0,1.0,1.0,297.3735481500625,3.0,1.0,phase_1,,,,,,,,,,,,,magenta,triangle
90.0,6.0,2.0,1.0,1.0,1.0,341.7401178739965,3.0,1.0,phase_1,,,,,,,,,,,,,cyan,square
207.0,3.0,3.0,0.0,4.0,4.0,353.6552938167006,3.0,1.0,phase_1,,,,,,,,,,,,,green,flipped triangle
123.0,2.0,2.0,0.0,3.0,3.0,288.6779408436268,3.0,1.0,phase_1,,,,,,,,,,,,,magenta,triangle
65.0,1.0,1.0,0.0,2.0,2.0,373.6521189566701,4.0,1.0,phase_1,,,,,,,,,,,,,gray,circle
406.0,4.0,4.0,0.0,3.0,3.0,319.5756811182946,4.0,1.0,phase_1,,,,,,,,,,,,,white,cross
402.0,4.0,4.0,0.0,3.0,3.0,349.0285039879381,4.0,1.0,phase_1,,,,,,,,,,,,,white,cross
182.0,3.0,3.0,0.0,2.0,2.0,307.2972430381924,4.0,1.0,phase_1,,,,,,,,,,,,,green,flipped triangle
0.0,6.0,0.0,1.0,4.0,4.0,316.7713589500636,4.0,1.0,phase_1,,,,,,,,,,,,,cyan,square
66.0,1.0,1.0,0.0,3.0,3.0,323.8506838679313,4.0,1.0,phase_1,,,,,,,,,,,,,gray,circle
377.0,8.0,4.0,1.0,2.0,2.0,502.42174114100635,4.0,1.0,phase_1,,,,,,,,,,,,,yellow,I
395.0,4.0,4.0,0.0,4.0,4.0,315.3136470355093,4.0,1.0,phase_1,,,,,,,,,,,,,white,cross
0.0,2.0,0.0,0.0,1.0,1.0,322.8132971562445,4.0,1.0,phase_1,,,,,,,,,,,,,magenta,triangle
106.0,6.0,2.0,1.0,2.0,2.0,389.3697699531913,4.0,1.0,phase_1,,,,,,,,,,,,,cyan,square
0.0,7.0,0.0,1.0,3.0,3.0,317.2491290606558,4.0,1.0,phase_1,,,,,,,,,,,,,blue,hexagon
412.0,4.0,4.0,0.0,3.0,3.0,311.8693861179054,4.0,1.0,phase_1,,,,,,,,,,,,,white,cross
94.0,6.0,2.0,1.0,3.0,3.0,293.8390159979462,4.0,1.0,phase_1,,,,,,,,,,,,,cyan,square
411.0,4.0,4.0,0.0,2.0,2.0,303.9284630212933,4.0,1.0,phase_1,,,,,,,,,,,,,white,cross
0.0,7.0,0.0,1.0,3.0,3.0,342.1509431209415,4.0,1.0,phase_1,,,,,,,,,,,,,blue,hexagon
0.0,8.0,0.0,1.0,4.0,4.0,288.6226729024201,4.0,1.0,phase_1,,,,,,,,,,,,,yellow,I
0.0,1.0,0.0,0.0,4.0,4.0,365.9712818916887,4.0,1.0,phase_1,,,,,,,,,,,,,gray,circle
0.0,7.0,0.0,1.0,1.0,1.0,338.6484340298921,4.0,1.0,phase_1,,,,,,,,,,,,,blue,hexagon
221.0,7.0,3.0,1.0,1.0,1.0,423.3960059937089,4.0,1.0,phase_1,,,,,,,,,,,,,blue,hexagon
0.0,5.0,0.0,1.0,2.0,2.0,358.4733181633055,4.0,1.0,phase_1,,,,,,,,,,,,,orange,diamond
0.0,3.0,0.0,0.0,4.0,4.0,250.0490709207952,4.0,1.0,phase_1,,,,,,,,,,,,,green,flipped triangle
60.0,1.0,1.0,0.0,3.0,3.0,317.5018548499793,4.0,1.0,phase_1,,,,,,,,,,,,,gray,circle
0.0,6.0,0.0,1.0,4.0,4.0,385.4398841504007,4.0,1.0,phase_1,,,,,,,,,,,,,cyan,square
26.0,5.0,1.0,1.0,4.0,4.0,305.3756400477141,4.0,1.0,phase_1,,,,,,,,,,,,,orange,diamond
0.0,7.0,0.0,1.0,2.0,2.0,491.9188870117068,4.0,1.0,phase_1,,,,,,,,,,,,,blue,hexagon
194.0,7.0,3.0,1.0,2.0,2.0,320.0465720146894,4.0,1.0,phase_1,,,,,,,,,,,,,blue,hexagon
98.0,2.0,2.0,0.0,1.0,1.0,372.3065399099141,4.0,1.0,phase_1,,,,,,,,,,,,,magenta,triangle
421.0,4.0,4.0,0.0,2.0,2.0,427.8678500559181,4.0,1.0,phase_1,,,,,,,,,,,,,white,cross
99.0,6.0,2.0,1.0,4.0,4.0,352.42031514644617,4.0,1.0,phase_1,,,,,,,,,,,,,cyan,square
210.0,7.0,3.0,1.0,1.0,1.0,346.2910980451852,4.0,1.0,phase_1,,,,,,,,,,,,,blue,hexagon
65.0,1.0,1.0,0.0,2.0,2.0,390.5257668811828,4.0,1.0,phase_1,,,,,,,,,,,,,gray,circle
96.0,6.0,2.0,1.0,1.0,1.0,389.924107119441,4.0,1.0,phase_1,,,,,,,,,,,,,cyan,square
101.0,2.0,2.0,0.0,4.0,4.0,385.9609980136156,4.0,1.0,phase_1,,,,,,,,,,,,,magenta,triangle
48.0,1.0,1.0,0.0,2.0,2.0,316.820042906329,4.0,1.0,phase_1,,,,,,,,,,,,,gray,circle
395.0,8.0,4.0,1.0,3.0,3.0,321.7775500379503,4.0,1.0,phase_1,,,,,,,,,,,,,yellow,I
408.0,4.0,4.0,0.0,4.0,4.0,312.189880060032,4.0,1.0,phase_1,,,,,,,,,,,,,white,cross
188.0,3.0,3.0,0.0,3.0,3.0,333.0622820649296,4.0,1.0,phase_1,,,,,,,,,,,,,green,flipped triangle
120.0,6.0,2.0,1.0,1.0,1.0,249.6902579441666,4.0,1.0,phase_1,,,,,,,,,,,,,cyan,square
413.0,8.0,4.0,1.0,3.0,3.0,319.331542821601,4.0,1.0,phase_1,,,,,,,,,,,,,yellow,I
0.0,6.0,0.0,1.0,2.0,2.0,666.9908510521054,4.0,1.0,phase_1,,,,,,,,,,,,,cyan,square
60.0,5.0,1.0,1.0,1.0,1.0,430.9824430383742,4.0,1.0,phase_1,,,,,,,,,,,,,orange,diamond
200.0,7.0,3.0,1.0,3.0,3.0,322.1665159799158,4.0,1.0,phase_1,,,,,,,,,,,,,blue,hexagon
386.0,4.0,4.0,0.0,3.0,3.0,329.6918971464038,4.0,1.0,phase_1,,,,,,,,,,,,,white,cross
390.0,4.0,4.0,0.0,4.0,4.0,334.2287798877805,4.0,1.0,phase_1,,,,,,,,,,,,,white,cross
70.0,1.0,1.0,0.0,2.0,2.0,410.5532658286392,4.0,1.0,phase_1,,,,,,,,,,,,,gray,circle
88.0,6.0,2.0,1.0,1.0,1.0,269.6553680580109,4.0,1.0,phase_1,,,,,,,,,,,,,cyan,square
207.0,3.0,3.0,0.0,3.0,3.0,339.7911489009857,4.0,1.0,phase_1,,,,,,,,,,,,,green,flipped triangle
376.0,4.0,4.0,0.0,1.0,1.0,366.6647211648524,4.0,1.0,phase_1,,,,,,,,,,,,,white,cross
70.0,5.0,1.0,1.0,1.0,1.0,483.4767391439527,4.0,1.0,phase_1,,,,,,,,,,,,,orange,diamond
86.0,6.0,2.0,1.0,4.0,4.0,346.3845578953624,4.0,1.0,phase_1,,,,,,,,,,,,,cyan,square
68.0,1.0,1.0,0.0,4.0,4.0,318.8059460371732,4.0,1.0,phase_1,,,,,,,,,,,,,gray,circle
0.0,8.0,0.0,1.0,2.0,2.0,492.7487149834633,4.0,1.0,phase_1,,,,,,,,,,,,,yellow,I
75.0,5.0,1.0,1.0,3.0,3.0,405.9085010085255,4.0,2.0,phase_1,,,,,,,,,,,,,orange,diamond
50.0,1.0,1.0,0.0,4.0,4.0,351.8543778918683,4.0,1.0,phase_1,,,,,,,,,,,,,gray,circle
55.0,1.0,1.0,0.0,4.0,4.0,494.9301579035818,4.0,1.0,phase_1,,,,,,,,,,,,,gray,circle
414.0,8.0,4.0,1.0,4.0,4.0,465.9355231560766,4.0,1.0,phase_1,,,,,,,,,,,,,yellow,I
202.0,7.0,3.0,1.0,3.0,3.0,336.4359098486602,4.0,1.0,phase_1,,,,,,,,,,,,,blue,hexagon
65.0,5.0,1.0,1.0,3.0,3.0,373.3367461245507,4.0,1.0,phase_1,,,,,,,,,,,,,orange,diamond
92.0,2.0,2.0,0.0,1.0,1.0,328.3235540147871,4.0,1.0,phase_1,,,,,,,,,,,,,magenta,triangle
29.0,5.0,1.0,1.0,2.0,2.0,324.3143921718001,4.0,1.0,phase_1,,,,,,,,,,,,,orange,diamond
75.0,1.0,1.0,0.0,3.0,3.0,339.8757870309055,4.0,1.0,phase_1,,,,,,,,,,,,,gray,circle
0.0,1.0,0.0,0.0,2.0,2.0,327.6849668473005,4.0,1.0,phase_1,,,,,,,,,,,,,gray,circle
0.0,1.0,0.0,0.0,3.0,3.0,301.4261031057685,4.0,1.0,phase_1,,,,,,,,,,,,,gray,circle
212.0,7.0,3.0,1.0,2.0,2.0,295.2349199913442,4.0,1.0,phase_1,,,,,,,,,,,,,blue,hexagon
106.0,2.0,2.0,0.0,3.0,3.0,291.2663291208446,4.0,1.0,phase_1,,,,,,,,,,,,,magenta,triangle
379.0,8.0,4.0,1.0,3.0,3.0,331.7524620797485,4.0,1.0,phase_1,,,,,,,,,,,,,yellow,I
40.0,1.0,1.0,0.0,1.0,1.0,311.4008950069546,4.0,1.0,phase_1,,,,,,,,,,,,,gray,circle
0.0,8.0,0.0,1.0,2.0,2.0,290.9304741770029,4.0,1.0,phase_1,,,,,,,,,,,,,yellow,I
418.0,8.0,4.0,1.0,4.0,4.0,325.5047041457146,4.0,1.0,phase_1,,,,,,,,,,,,,yellow,I
179.0,7.0,3.0,1.0,4.0,4.0,317.2221342101693,4.0,1.0,phase_1,,,,,,,,,,,,,blue,hexagon
0.0,5.0,0.0,1.0,2.0,2.0,295.5991590861231,4.0,1.0,phase_1,,,,,,,,,,,,,orange,diamond
206.0,7.0,3.0,1.0,2.0,2.0,390.8127930480987,4.0,1.0,phase_1,,,,,,,,,,,,,blue,hexagon
192.0,3.0,3.0,0.0,4.0,4.0,434.1424549929797,4.0,1.0,phase_1,,,,,,,,,,,,,green,flipped triangle
398.0,4.0,4.0,0.0,2.0,2.0,357.2167621459812,4.0,1.0,phase_1,,,,,,,,,,,,,white,cross
376.0,8.0,4.0,1.0,2.0,2.0,356.3850650098175,4.0,1.0,phase_1,,,,,,,,,,,,,yellow,I
389.0,4.0,4.0,0.0,1.0,1.0,322.0262848772108,4.0,1.0,phase_1,,,,,,,,,,,,,white,cross
212.0,3.0,3.0,0.0,3.0,3.0,310.8792540151626,4.0,1.0,phase_1,,,,,,,,,,,,,green,flipped triangle
28.0,5.0,1.0,1.0,4.0,4.0,393.7485967762768,4.0,1.0,phase_1,,,,,,,,,,,,,orange,diamond
75.0,2.0,2.0,0.0,4.0,4.0,408.0710071139037,4.0,1.0,phase_1,,,,,,,,,,,,,magenta,triangle
73.0,5.0,1.0,1.0,2.0,2.0,317.0570530928671,4.0,1.0,phase_1,,,,,,,,,,,,,orange,diamond
116.0,6.0,2.0,1.0,4.0,4.0,344.7649658191949,4.0,1.0,phase_1,,,,,,,,,,,,,cyan,square
0.0,1.0,0.0,0.0,4.0,4.0,301.8600698560476,4.0,1.0,phase_1,,,,,,,,,,,,,gray,circle
416.0,8.0,4.0,1.0,1.0,1.0,321.0797649808228,4.0,1.0,phase_1,,,,,,,,,,,,,yellow,I
48.0,1.0,1.0,0.0,3.0,3.0,324.8850970994681,4.0,1.0,phase_1,,,,,,,,,,,,,gray,circle
421.0,8.0,4.0,1.0,3.0,3.0,330.6372559163719,4.0,1.0,phase_1,,,,,,,,,,,,,yellow,I
0.0,8.0,0.0,1.0,1.0,1.0,432.0410317741334,4.0,1.0,phase_1,,,,,,,,,,,,,yellow,I
46.0,5.0,1.0,1.0,2.0,2.0,325.781119056046,4.0,1.0,phase_1,,,,,,,,,,,,,orange,diamond
99.0,2.0,2.0,0.0,4.0,4.0,315.0047929957509,4.0,1.0,phase_1,,,,,,,,,,,,,magenta,triangle
0.0,4.0,0.0,0.0,2.0,2.0,326.5170489903539,4.0,1.0,phase_1,,,,,,,,,,,,,white,cross
192.0,7.0,3.0,1.0,1.0,1.0,288.867955096066,4.0,1.0,phase_1,,,,,,,,,,,,,blue,hexagon
86.0,2.0,2.0,0.0,4.0,4.0,279.8176479991525,4.0,1.0,phase_1,,,,,,,,,,,,,magenta,triangle
0.0,6.0,0.0,1.0,2.0,2.0,289.9864981882274,4.0,1.0,phase_1,,,,,,,,,,,,,cyan,square
417.0,8.0,4.0,1.0,4.0,4.0,270.499775884673,4.0,1.0,phase_1,,,,,,,,,,,,,yellow,I
403.0,8.0,4.0,1.0,4.0,4.0,338.7744829524308,4.0,1.0,phase_1,,,,,,,,,,,,,yellow,I
0.0,4.0,0.0,0.0,2.0,2.0,335.6206698808819,4.0,1.0,phase_1,,,,,,,,,,,,,white,cross
115.0,2.0,2.0,0.0,3.0,3.0,335.1270800922066,4.0,1.0,phase_1,,,,,,,,,,,,,magenta,triangle
406.0,8.0,4.0,1.0,2.0,2.0,300.5974600091576,4.0,1.0,phase_1,,,,,,,,,,,,,yellow,I
411.0,8.0,4.0,1.0,1.0,1.0,481.0769900213927,4.0,1.0,phase_1,,,,,,,,,,,,,yellow,I
0.0,8.0,0.0,1.0,1.0,1.0,310.0682478398084,4.0,1.0,phase_1,,,,,,,,,,,,,yellow,I
395.0,4.0,4.0,0.0,3.0,3.0,343.9626391045749,4.0,1.0,phase_1,,,,,,,,,,,,,white,cross
0.0,5.0,1.0,1.0,6.0,0.0,0.0,1.0,1.0,phase_2,stop,250.0,250.0,4.0,,,,,,,,,orange,diamond
0.0,7.0,3.0,1.0,6.0,6.0,354.2250820901245,1.0,1.0,phase_2,stop,250.0,300.0,3.0,,,,,,,,,blue,hexagon
0.0,2.0,2.0,0.0,6.0,6.0,641.6608721483499,1.0,1.0,phase_2,go,250.0,250.0,1.0,,,,,,,,,magenta,triangle
0.0,2.0,2.0,0.0,5.0,5.0,302.235818002373,1.0,1.0,phase_2,go,250.0,250.0,1.0,,,,,,,,,magenta,triangle
0.0,7.0,3.0,1.0,5.0,5.0,413.8511610217392,1.0,1.0,phase_2,stop,250.0,250.0,3.0,,,,,,,,,blue,hexagon
0.0,5.0,1.0,1.0,6.0,6.0,366.8591780588031,1.0,1.0,phase_2,go,200.0,250.0,1.0,,,,,,,,,orange,diamond
0.0,7.0,3.0,1.0,5.0,0.0,0.0,1.0,1.0,phase_2,stop,200.0,250.0,4.0,,,,,,,,,blue,hexagon
0.0,4.0,4.0,0.0,6.0,6.0,363.6441328562796,1.0,1.0,phase_2,go,250.0,250.0,1.0,,,,,,,,,white,cross
0.0,1.0,1.0,0.0,5.0,5.0,701.8585789483041,1.0,1.0,phase_2,go,250.0,250.0,1.0,,,,,,,,,gray,circle
0.0,4.0,4.0,0.0,6.0,6.0,307.5584468897432,1.0,1.0,phase_2,go,250.0,250.0,1.0,,,,,,,,,white,cross
0.0,8.0,4.0,1.0,6.0,0.0,0.0,1.0,1.0,phase_2,stop,250.0,250.0,4.0,,,,,,,,,yellow,I
0.0,6.0,2.0,1.0,6.0,6.0,586.4386260509491,1.0,1.0,phase_2,go,250.0,300.0,1.0,,,,,,,,,cyan,square
0.0,3.0,3.0,0.0,5.0,5.0,761.9895960669965,1.0,1.0,phase_2,go,250.0,300.0,1.0,,,,,,,,,green,flipped triangle
0.0,8.0,4.0,1.0,5.0,5.0,474.9095509760082,1.0,1.0,phase_2,stop,250.0,300.0,3.0,,,,,,,,,yellow,I
0.0,8.0,4.0,1.0,6.0,6.0,316.8732468038797,1.0,1.0,phase_2,stop,200.0,300.0,3.0,,,,,,,,,yellow,I
0.0,7.0,3.0,1.0,5.0,5.0,625.1532030291855,1.0,1.0,phase_2,go,200.0,250.0,1.0,,,,,,,,,blue,hexagon
0.0,3.0,3.0,0.0,6.0,6.0,641.9935529120266,1.0,1.0,phase_2,go,200.0,250.0,1.0,,,,,,,,,green,flipped triangle
0.0,2.0,2.0,0.0,5.0,5.0,320.4561099410057,1.0,1.0,phase_2,go,200.0,250.0,1.0,,,,,,,,,magenta,triangle
0.0,6.0,2.0,1.0,5.0,0.0,0.0,1.0,1.0,phase_2,stop,200.0,250.0,4.0,,,,,,,,,cyan,square
0.0,2.0,2.0,0.0,6.0,6.0,533.0757789779454,1.0,1.0,phase_2,go,250.0,250.0,1.0,,,,,,,,,magenta,triangle
0.0,4.0,4.0,0.0,6.0,6.0,348.7683341372758,1.0,1.0,phase_2,go,250.0,250.0,1.0,,,,,,,,,white,cross
0.0,4.0,4.0,0.0,5.0,5.0,486.6783421020955,1.0,1.0,phase_2,go,250.0,250.0,1.0,,,,,,,,,white,cross
0.0,1.0,1.0,0.0,6.0,6.0,699.758742004633,1.0,1.0,phase_2,go,250.0,250.0,1.0,,,,,,,,,gray,circle
0.0,2.0,2.0,0.0,5.0,5.0,446.4474550914019,1.0,1.0,phase_2,go,250.0,250.0,1.0,,,,,,,,,magenta,triangle
0.0,4.0,4.0,0.0,6.0,6.0,722.7649830747396,1.0,1.0,phase_2,go,250.0,250.0,1.0,,,,,,,,,white,cross
0.0,7.0,3.0,1.0,6.0,6.0,321.7287368606776,1.0,1.0,phase_2,stop,250.0,250.0,3.0,,,,,,,,,blue,hexagon
0.0,2.0,2.0,0.0,6.0,6.0,545.2150050550699,1.0,1.0,phase_2,go,250.0,200.0,1.0,,,,,,,,,magenta,triangle
0.0,6.0,2.0,1.0,5.0,0.0,0.0,1.0,1.0,phase_2,stop,250.0,200.0,4.0,,,,,,,,,cyan,square
0.0,1.0,1.0,0.0,6.0,6.0,299.5414279866963,1.0,1.0,phase_2,go,300.0,200.0,1.0,,,,,,,,,gray,circle
0.0,3.0,3.0,0.0,5.0,5.0,483.5768218617886,1.0,1.0,phase_2,go,300.0,200.0,1.0,,,,,,,,,green,flipped triangle
0.0,5.0,1.0,1.0,6.0,0.0,0.0,1.0,1.0,phase_2,stop,300.0,200.0,4.0,,,,,,,,,orange,diamond
0.0,1.0,1.0,0.0,5.0,5.0,352.7208489831537,1.0,1.0,phase_2,go,300.0,250.0,1.0,,,,,,,,,gray,circle
0.0,3.0,3.0,0.0,6.0,6.0,584.6806620247662,1.0,1.0,phase_2,go,300.0,250.0,1.0,,,,,,,,,green,flipped triangle
0.0,6.0,2.0,1.0,5.0,5.0,343.9944020938128,1.0,1.0,phase_2,stop,300.0,250.0,3.0,,,,,,,,,cyan,square
0.0,6.0,2.0,1.0,6.0,0.0,0.0,1.0,1.0,phase_2,stop,250.0,250.0,4.0,,,,,,,,,cyan,square
0.0,4.0,4.0,0.0,6.0,6.0,613.1228380836546,1.0,1.0,phase_2,go,250.0,300.0,1.0,,,,,,,,,white,cross
0.0,3.0,3.0,0.0,5.0,5.0,451.7135329078883,2.0,1.0,phase_2,go,250.0,300.0,1.0,,,,,,,,,green,flipped triangle
0.0,3.0,3.0,0.0,6.0,6.0,568.6770449392498,2.0,1.0,phase_2,go,250.0,300.0,1.0,,,,,,,,,green,flipped triangle
0.0,1.0,1.0,0.0,6.0,6.0,441.0850889980793,2.0,1.0,phase_2,go,250.0,300.0,1.0,,,,,,,,,gray,circle
0.0,7.0,3.0,1.0,5.0,5.0,315.1087358128279,2.0,1.0,phase_2,go,250.0,300.0,1.0,,,,,,,,,blue,hexagon
0.0,3.0,3.0,0.0,5.0,5.0,771.1092890240252,2.0,1.0,phase_2,go,250.0,300.0,1.0,,,,,,,,,green,flipped triangle
0.0,6.0,2.0,1.0,6.0,6.0,358.3646109327674,2.0,1.0,phase_2,stop,250.0,300.0,3.0,,,,,,,,,cyan,square
0.0,3.0,3.0,0.0,6.0,6.0,398.7315148115158,2.0,1.0,phase_2,go,250.0,250.0,1.0,,,,,,,,,green,flipped triangle
0.0,2.0,2.0,0.0,6.0,6.0,349.29887088947,2.0,1.0,phase_2,go,250.0,250.0,1.0,,,,,,,,,magenta,triangle
0.0,4.0,4.0,0.0,5.0,5.0,552.5433819275349,2.0,1.0,phase_2,go,250.0,250.0,1.0,,,,,,,,,white,cross
0.0,1.0,1.0,0.0,5.0,5.0,512.3497280292213,2.0,1.0,phase_2,go,250.0,250.0,1.0,,,,,,,,,gray,circle
0.0,6.0,2.0,1.0,6.0,0.0,0.0,2.0,1.0,phase_2,stop,250.0,250.0,4.0,,,,,,,,,cyan,square
0.0,3.0,3.0,0.0,5.0,5.0,499.7903120238334,2.0,1.0,phase_2,go,250.0,300.0,1.0,,,,,,,,,green,flipped triangle
0.0,5.0,1.0,1.0,5.0,0.0,0.0,2.0,1.0,phase_2,stop,250.0,300.0,4.0,,,,,,,,,orange,diamond
0.0,2.0,2.0,0.0,5.0,5.0,445.2013620175421,2.0,1.0,phase_2,go,300.0,300.0,1.0,,,,,,,,,magenta,triangle
0.0,7.0,3.0,1.0,5.0,0.0,0.0,2.0,1.0,phase_2,stop,300.0,300.0,4.0,,,,,,,,,blue,hexagon
0.0,1.0,1.0,0.0,6.0,6.0,369.6232389193028,2.0,1.0,phase_2,go,350.0,300.0,1.0,,,,,,,,,gray,circle
0.0,8.0,4.0,1.0,6.0,6.0,364.605775102973,2.0,1.0,phase_2,stop,350.0,300.0,3.0,,,,,,,,,yellow,I
0.0,1.0,1.0,0.0,5.0,5.0,490.5523769557476,2.0,1.0,phase_2,go,350.0,250.0,1.0,,,,,,,,,gray,circle
0.0,1.0,1.0,0.0,6.0,6.0,312.2754080686718,2.0,1.0,phase_2,go,350.0,250.0,1.0,,,,,,,,,gray,circle
0.0,4.0,4.0,0.0,6.0,6.0,671.6784299351275,2.0,1.0,phase_2,go,350.0,250.0,1.0,,,,,,,,,white,cross
0.0,8.0,4.0,1.0,5.0,0.0,0.0,2.0,1.0,phase_2,stop,350.0,250.0,4.0,,,,,,,,,yellow,I
0.0,6.0,2.0,1.0,5.0,5.0,426.0038691572845,2.0,1.0,phase_2,stop,400.0,250.0,3.0,,,,,,,,,cyan,square
0.0,7.0,3.0,1.0,5.0,0.0,0.0,2.0,1.0,phase_2,stop,350.0,250.0,4.0,,,,,,,,,blue,hexagon
0.0,4.0,4.0,0.0,5.0,5.0,638.4651449043304,2.0,1.0,phase_2,go,400.0,250.0,1.0,,,,,,,,,white,cross
0.0,7.0,3.0,1.0,6.0,6.0,493.1162239518016,2.0,1.0,phase_2,go,400.0,250.0,1.0,,,,,,,,,blue,hexagon
0.0,1.0,1.0,0.0,6.0,6.0,397.7994241286069,2.0,1.0,phase_2,go,400.0,250.0,1.0,,,,,,,,,gray,circle
0.0,5.0,1.0,1.0,6.0,0.0,0.0,2.0,1.0,phase_2,stop,400.0,250.0,4.0,,,,,,,,,orange,diamond
0.0,5.0,1.0,1.0,6.0,0.0,0.0,2.0,1.0,phase_2,stop,400.0,300.0,4.0,,,,,,,,,orange,diamond
0.0,5.0,1.0,1.0,6.0,0.0,0.0,2.0,1.0,phase_2,stop,400.0,350.0,4.0,,,,,,,,,orange,diamond
0.0,7.0,3.0,1.0,6.0,6.0,441.8580511119216,2.0,1.0,phase_2,go,400.0,400.0,1.0,,,,,,,,,blue,hexagon
0.0,6.0,2.0,1.0,6.0,0.0,0.0,2.0,1.0,phase_2,stop,400.0,400.0,4.0,,,,,,,,,cyan,square
0.0,1.0,1.0,0.0,5.0,5.0,340.1489530224353,2.0,1.0,phase_2,go,400.0,450.0,1.0,,,,,,,,,gray,circle
0.0,6.0,2.0,1.0,5.0,5.0,719.5198219269514,2.0,1.0,phase_2,go,400.0,450.0,1.0,,,,,,,,,cyan,square
0.0,2.0,2.0,0.0,5.0,5.0,776.0673169977963,2.0,1.0,phase_2,go,400.0,450.0,1.0,,,,,,,,,magenta,triangle
0.0,3.0,3.0,0.0,6.0,6.0,441.3839289918542,2.0,1.0,phase_2,go,400.0,450.0,1.0,,,,,,,,,green,flipped triangle
0.0,7.0,3.0,1.0,6.0,6.0,320.5865491181612,2.0,1.0,phase_2,go,400.0,450.0,1.0,,,,,,,,,blue,hexagon
0.0,2.0,2.0,0.0,6.0,6.0,368.2236729655415,3.0,1.0,phase_2,go,400.0,450.0,1.0,,,,,,,,,magenta,triangle
0.0,3.0,3.0,0.0,5.0,5.0,359.5822330098599,3.0,1.0,phase_2,go,400.0,450.0,1.0,,,,,,,,,green,flipped triangle
0.0,2.0,2.0,0.0,6.0,6.0,334.5610431861132,3.0,1.0,phase_2,go,400.0,450.0,1.0,,,,,,,,,magenta,triangle
0.0,6.0,2.0,1.0,5.0,5.0,269.2192839458585,3.0,1.0,phase_2,stop,400.0,450.0,3.0,,,,,,,,,cyan,square
0.0,5.0,1.0,1.0,6.0,0.0,0.0,3.0,1.0,phase_2,stop,350.0,450.0,4.0,,,,,,,,,orange,diamond
0.0,4.0,4.0,0.0,6.0,6.0,397.8735960554331,3.0,1.0,phase_2,go,350.0,500.0,1.0,,,,,,,,,white,cross
0.0,6.0,2.0,1.0,5.0,0.0,0.0,3.0,1.0,phase_2,stop,350.0,500.0,4.0,,,,,,,,,cyan,square
0.0,3.0,3.0,0.0,6.0,6.0,554.8506008926779,3.0,1.0,phase_2,go,400.0,500.0,1.0,,,,,,,,,green,flipped triangle
0.0,2.0,2.0,0.0,6.0,6.0,466.3233570754528,3.0,1.0,phase_2,go,400.0,500.0,1.0,,,,,,,,,magenta,triangle
0.0,2.0,2.0,0.0,5.0,5.0,529.519499046728,3.0,1.0,phase_2,go,400.0,500.0,1.0,,,,,,,,,magenta,triangle
0.0,8.0,4.0,1.0,6.0,6.0,376.492640003562,3.0,1.0,phase_2,stop,400.0,500.0,3.0,,,,,,,,,yellow,I
0.0,8.0,4.0,1.0,5.0,0.0,0.0,3.0,1.0,phase_2,stop,400.0,450.0,4.0,,,,,,,,,yellow,I
0.0,5.0,1.0,1.0,6.0,0.0,0.0,3.0,1.0,phase_2,stop,450.0,450.0,4.0,,,,,,,,,orange,diamond
0.0,2.0,2.0,0.0,5.0,5.0,567.7579760085791,3.0,1.0,phase_2,go,450.0,500.0,1.0,,,,,,,,,magenta,triangle
0.0,5.0,1.0,1.0,5.0,5.0,321.0938919801265,3.0,1.0,phase_2,go,450.0,500.0,1.0,,,,,,,,,orange,diamond
0.0,5.0,1.0,1.0,5.0,0.0,0.0,3.0,1.0,phase_2,stop,450.0,500.0,4.0,,,,,,,,,orange,diamond
0.0,8.0,4.0,1.0,5.0,5.0,632.0592849515378,3.0,1.0,phase_2,stop,500.0,500.0,3.0,,,,,,,,,yellow,I
0.0,3.0,3.0,0.0,5.0,5.0,782.3403270449489,3.0,1.0,phase_2,go,450.0,500.0,1.0,,,,,,,,,green,flipped triangle
0.0,6.0,2.0,1.0,6.0,0.0,0.0,3.0,1.0,phase_2,stop,450.0,500.0,4.0,,,,,,,,,cyan,square
0.0,2.0,2.0,0.0,6.0,6.0,557.4369949754328,3.0,1.0,phase_2,go,450.0,550.0,1.0,,,,,,,,,magenta,triangle
0.0,3.0,3.0,0.0,6.0,6.0,434.5270870253443,3.0,1.0,phase_2,go,450.0,550.0,1.0,,,,,,,,,green,flipped triangle
0.0,2.0,2.0,0.0,6.0,6.0,746.029577916488,3.0,1.0,phase_2,go,450.0,550.0,1.0,,,,,,,,,magenta,triangle
0.0,2.0,2.0,0.0,6.0,6.0,411.4879090338945,3.0,1.0,phase_2,go,450.0,550.0,1.0,,,,,,,,,magenta,triangle
0.0,1.0,1.0,0.0,5.0,5.0,417.3513669520616,3.0,1.0,phase_2,go,450.0,550.0,1.0,,,,,,,,,gray,circle
0.0,5.0,1.0,1.0,5.0,0.0,0.0,3.0,1.0,phase_2,stop,450.0,550.0,4.0,,,,,,,,,orange,diamond
0.0,3.0,3.0,0.0,6.0,6.0,840.69346007891,3.0,1.0,phase_2,go,500.0,550.0,1.0,,,,,,,,,green,flipped triangle
0.0,8.0,4.0,1.0,5.0,5.0,330.5851761251688,3.0,1.0,phase_2,stop,500.0,550.0,3.0,,,,,,,,,yellow,I
0.0,8.0,4.0,1.0,5.0,5.0,326.9984140060842,3.0,1.0,phase_2,stop,450.0,550.0,3.0,,,,,,,,,yellow,I
0.0,4.0,4.0,0.0,5.0,5.0,592.5972238183022,3.0,1.0,phase_2,go,400.0,550.0,1.0,,,,,,,,,white,cross
0.0,8.0,4.0,1.0,5.0,5.0,493.6448310036212,3.0,1.0,phase_2,stop,400.0,550.0,3.0,,,,,,,,,yellow,I
0.0,7.0,3.0,1.0,6.0,6.0,621.574172982946,3.0,1.0,phase_2,stop,350.0,550.0,3.0,,,,,,,,,blue,hexagon
0.0,8.0,4.0,1.0,5.0,0.0,0.0,3.0,1.0,phase_2,stop,350.0,500.0,4.0,,,,,,,,,yellow,I
0.0,3.0,3.0,0.0,6.0,6.0,589.6486020646989,3.0,1.0,phase_2,go,400.0,500.0,1.0,,,,,,,,,green,flipped triangle
0.0,2.0,2.0,0.0,6.0,6.0,478.3072879072279,3.0,1.0,phase_2,go,400.0,500.0,1.0,,,,,,,,,magenta,triangle
0.0,6.0,2.0,1.0,6.0,0.0,0.0,3.0,1.0,phase_2,stop,400.0,500.0,4.0,,,,,,,,,cyan,square
0.0,7.0,3.0,1.0,6.0,6.0,605.9378010686487,3.0,1.0,phase_2,go,400.0,550.0,1.0,,,,,,,,,blue,hexagon
0.0,7.0,3.0,1.0,5.0,5.0,956.2277009245008,4.0,1.0,phase_2,stop,400.0,550.0,3.0,,,,,,,,,blue,hexagon
0.0,4.0,4.0,0.0,5.0,5.0,803.7924210075289,4.0,1.0,phase_2,go,350.0,550.0,1.0,,,,,,,,,white,cross
0.0,5.0,1.0,1.0,6.0,6.0,296.3083810172975,4.0,1.0,phase_2,stop,350.0,550.0,3.0,,,,,,,,,orange,diamond
0.0,5.0,1.0,1.0,5.0,0.0,0.0,4.0,1.0,phase_2,stop,350.0,500.0,4.0,,,,,,,,,orange,diamond
0.0,1.0,1.0,0.0,5.0,5.0,704.2774250730872,4.0,1.0,phase_2,go,400.0,500.0,1.0,,,,,,,,,gray,circle
0.0,5.0,1.0,1.0,5.0,0.0,0.0,4.0,1.0,phase_2,stop,400.0,500.0,4.0,,,,,,,,,orange,diamond
0.0,3.0,3.0,0.0,5.0,5.0,373.3592610806227,4.0,1.0,phase_2,go,450.0,500.0,1.0,,,,,,,,,green,flipped triangle
0.0,2.0,2.0,0.0,5.0,5.0,423.3548319898546,4.0,1.0,phase_2,go,450.0,500.0,1.0,,,,,,,,,magenta,triangle
0.0,7.0,3.0,1.0,6.0,6.0,348.1329691130668,4.0,1.0,phase_2,stop,450.0,500.0,3.0,,,,,,,,,blue,hexagon
0.0,8.0,4.0,1.0,6.0,6.0,612.82092705369,4.0,1.0,phase_2,stop,450.0,450.0,3.0,,,,,,,,,yellow,I
0.0,6.0,2.0,1.0,5.0,5.0,252.017764840275,4.0,1.0,phase_2,go,450.0,400.0,1.0,,,,,,,,,cyan,square
0.0,4.0,4.0,0.0,5.0,5.0,331.9608320016414,4.0,1.0,phase_2,go,450.0,400.0,1.0,,,,,,,,,white,cross
0.0,3.0,3.0,0.0,6.0,6.0,298.3094570226967,4.0,1.0,phase_2,go,450.0,400.0,1.0,,,,,,,,,green,flipped triangle
0.0,5.0,1.0,1.0,6.0,6.0,308.0135048367083,4.0,1.0,phase_2,stop,450.0,400.0,3.0,,,,,,,,,orange,diamond
0.0,6.0,2.0,1.0,6.0,6.0,561.3339871633798,4.0,1.0,phase_2,go,450.0,350.0,1.0,,,,,,,,,cyan,square
0.0,4.0,4.0,0.0,6.0,6.0,377.2343439050019,4.0,1.0,phase_2,go,450.0,350.0,1.0,,,,,,,,,white,cross
0.0,7.0,3.0,1.0,5.0,5.0,483.3111350890249,4.0,1.0,phase_2,stop,450.0,350.0,3.0,,,,,,,,,blue,hexagon
0.0,2.0,2.0,0.0,6.0,6.0,361.2811989150941,4.0,1.0,phase_2,go,400.0,350.0,1.0,,,,,,,,,magenta,triangle
0.0,3.0,3.0,0.0,6.0,6.0,442.8346981294453,4.0,1.0,phase_2,go,400.0,350.0,1.0,,,,,,,,,green,flipped triangle
0.0,6.0,2.0,1.0,6.0,6.0,369.3208671174943,4.0,1.0,phase_2,stop,400.0,350.0,3.0,,,,,,,,,cyan,square
0.0,8.0,4.0,1.0,5.0,0.0,0.0,4.0,1.0,phase_2,stop,400.0,300.0,4.0,,,,,,,,,yellow,I
0.0,6.0,2.0,1.0,6.0,6.0,416.4422929752618,4.0,1.0,phase_2,stop,450.0,300.0,3.0,,,,,,,,,cyan,square
0.0,5.0,1.0,1.0,5.0,5.0,533.3426990546286,4.0,1.0,phase_2,go,450.0,250.0,1.0,,,,,,,,,orange,diamond
0.0,4.0,4.0,0.0,5.0,5.0,438.5581680107862,4.0,1.0,phase_2,go,450.0,250.0,1.0,,,,,,,,,white,cross
0.0,6.0,2.0,1.0,6.0,0.0,0.0,4.0,1.0,phase_2,stop,450.0,250.0,4.0,,,,,,,,,cyan,square
0.0,8.0,4.0,1.0,5.0,5.0,363.7602040544152,4.0,1.0,phase_2,go,450.0,300.0,1.0,,,,,,,,,yellow,I
0.0,2.0,2.0,0.0,5.0,5.0,462.7441761549562,4.0,1.0,phase_2,go,450.0,300.0,1.0,,,,,,,,,magenta,triangle
0.0,5.0,1.0,1.0,5.0,5.0,324.1518789436668,4.0,1.0,phase_2,stop,450.0,300.0,3.0,,,,,,,,,orange,diamond
0.0,2.0,2.0,0.0,5.0,5.0,611.5101678296924,4.0,1.0,phase_2,go,400.0,300.0,1.0,,,,,,,,,magenta,triangle
0.0,8.0,4.0,1.0,5.0,0.0,0.0,4.0,1.0,phase_2,stop,400.0,300.0,4.0,,,,,,,,,yellow,I
0.0,7.0,3.0,1.0,5.0,0.0,0.0,4.0,1.0,phase_2,stop,450.0,300.0,4.0,,,,,,,,,blue,hexagon
0.0,7.0,3.0,1.0,5.0,0.0,0.0,4.0,1.0,phase_2,stop,500.0,300.0,4.0,,,,,,,,,blue,hexagon
0.0,1.0,1.0,0.0,6.0,6.0,815.5933159869164,4.0,1.0,phase_2,go,550.0,300.0,1.0,,,,,,,,,gray,circle
0.0,7.0,3.0,1.0,6.0,0.0,0.0,4.0,1.0,phase_2,stop,550.0,300.0,4.0,,,,,,,,,blue,hexagon
0.0,3.0,3.0,0.0,5.0,5.0,713.7126501183957,4.0,1.0,phase_2,go,550.0,350.0,1.0,,,,,,,,,green,flipped triangle
0.0,4.0,4.0,0.0,6.0,6.0,832.6866358984262,4.0,1.0,phase_2,go,550.0,350.0,1.0,,,,,,,,,white,cross
0.0,1.0,1.0,0.0,5.0,5.0,516.8223278596997,5.0,1.0,phase_2,go,550.0,350.0,1.0,,,,,,,,,gray,circle
0.0,7.0,3.0,1.0,6.0,6.0,298.6823271494359,5.0,1.0,phase_2,stop,550.0,350.0,3.0,,,,,,,,,blue,hexagon
0.0,2.0,2.0,0.0,5.0,5.0,372.2474440000951,5.0,1.0,phase_2,go,550.0,300.0,1.0,,,,,,,,,magenta,triangle
0.0,8.0,4.0,1.0,5.0,5.0,392.3343769274652,5.0,1.0,phase_2,stop,550.0,300.0,3.0,,,,,,,,,yellow,I
0.0,7.0,3.0,1.0,6.0,6.0,391.0290480125695,5.0,1.0,phase_2,stop,500.0,300.0,3.0,,,,,,,,,blue,hexagon
0.0,3.0,3.0,0.0,5.0,5.0,518.4231330640614,5.0,1.0,phase_2,go,500.0,250.0,1.0,,,,,,,,,green,flipped triangle
0.0,1.0,1.0,0.0,6.0,6.0,624.9413010664284,5.0,1.0,phase_2,go,500.0,250.0,1.0,,,,,,,,,gray,circle
0.0,1.0,1.0,0.0,5.0,5.0,638.035373063758,5.0,1.0,phase_2,go,500.0,250.0,1.0,,,,,,,,,gray,circle
0.0,5.0,1.0,1.0,5.0,5.0,495.8549290895462,5.0,1.0,phase_2,stop,500.0,250.0,3.0,,,,,,,,,orange,diamond
0.0,3.0,3.0,0.0,6.0,6.0,638.4132860694081,5.0,1.0,phase_2,go,450.0,250.0,1.0,,,,,,,,,green,flipped triangle
0.0,1.0,1.0,0.0,6.0,6.0,764.8303010500968,5.0,1.0,phase_2,go,450.0,250.0,1.0,,,,,,,,,gray,circle
0.0,5.0,1.0,1.0,5.0,5.0,452.1201748866588,5.0,1.0,phase_2,go,450.0,250.0,1.0,,,,,,,,,orange,diamond
0.0,8.0,4.0,1.0,5.0,5.0,274.31096509099,5.0,1.0,phase_2,stop,450.0,250.0,3.0,,,,,,,,,yellow,I
0.0,7.0,3.0,1.0,6.0,6.0,338.5417419485748,5.0,1.0,phase_2,stop,400.0,250.0,3.0,,,,,,,,,blue,hexagon
0.0,3.0,3.0,0.0,6.0,6.0,572.533308994025,5.0,1.0,phase_2,go,400.0,200.0,1.0,,,,,,,,,green,flipped triangle
0.0,5.0,1.0,1.0,5.0,5.0,553.1257919501513,5.0,1.0,phase_2,stop,400.0,200.0,3.0,,,,,,,,,orange,diamond
0.0,8.0,4.0,1.0,5.0,5.0,834.2773588374257,5.0,1.0,phase_2,go,350.0,200.0,1.0,,,,,,,,,yellow,I
0.0,6.0,2.0,1.0,5.0,5.0,511.7051780689508,5.0,1.0,phase_2,go,350.0,200.0,1.0,,,,,,,,,cyan,square
0.0,5.0,1.0,1.0,6.0,6.0,543.3847440872341,5.0,1.0,phase_2,go,350.0,200.0,1.0,,,,,,,,,orange,diamond
0.0,4.0,4.0,0.0,6.0,6.0,662.439804058522,5.0,1.0,phase_2,go,350.0,200.0,1.0,,,,,,,,,white,cross
0.0,1.0,1.0,0.0,5.0,5.0,353.9057220332324,5.0,1.0,phase_2,go,350.0,200.0,1.0,,,,,,,,,gray,circle
0.0,4.0,4.0,0.0,6.0,6.0,286.1212070565671,5.0,1.0,phase_2,go,350.0,200.0,1.0,,,,,,,,,white,cross
0.0,3.0,3.0,0.0,6.0,6.0,668.9222229178995,5.0,1.0,phase_2,go,350.0,200.0,1.0,,,,,,,,,green,flipped triangle
0.0,1.0,1.0,0.0,6.0,6.0,472.3694000858813,5.0,1.0,phase_2,go,350.0,200.0,1.0,,,,,,,,,gray,circle
0.0,6.0,2.0,1.0,6.0,6.0,292.9358400870114,5.0,1.0,phase_2,stop,350.0,200.0,3.0,,,,,,,,,cyan,square
0.0,5.0,1.0,1.0,5.0,5.0,469.5686381310224,5.0,1.0,phase_2,go,350.0,150.0,1.0,,,,,,,,,orange,diamond
0.0,3.0,3.0,0.0,5.0,5.0,483.2036129664629,5.0,1.0,phase_2,go,350.0,150.0,1.0,,,,,,,,,green,flipped triangle
0.0,5.0,1.0,1.0,6.0,0.0,0.0,5.0,1.0,phase_2,stop,350.0,150.0,4.0,,,,,,,,,orange,diamond
0.0,5.0,1.0,1.0,5.0,5.0,644.3866619374603,5.0,1.0,phase_2,go,350.0,200.0,1.0,,,,,,,,,orange,diamond
0.0,8.0,4.0,1.0,6.0,6.0,317.3998489510268,5.0,1.0,phase_2,go,350.0,200.0,1.0,,,,,,,,,yellow,I
0.0,6.0,2.0,1.0,5.0,5.0,330.7306710630655,5.0,1.0,phase_2,stop,350.0,200.0,3.0,,,,,,,,,cyan,square
0.0,8.0,4.0,1.0,6.0,6.0,664.0924459788948,5.0,1.0,phase_2,go,300.0,200.0,1.0,,,,,,,,,yellow,I
0.0,4.0,4.0,0.0,6.0,6.0,307.3812338989228,5.0,1.0,phase_2,go,300.0,200.0,1.0,,,,,,,,,white,cross
0.0,5.0,1.0,1.0,6.0,0.0,0.0,5.0,1.0,phase_2,stop,300.0,200.0,4.0,,,,,,,,,orange,diamond
0.0,1.0,1.0,0.0,6.0,6.0,584.8801939282566,5.0,1.0,phase_2,go,300.0,250.0,1.0,,,,,,,,,gray,circle
0.0,6.0,2.0,1.0,5.0,5.0,320.9810960106551,5.0,1.0,phase_2,go,300.0,250.0,1.0,,,,,,,,,cyan,square
0.0,1.0,1.0,0.0,5.0,5.0,521.5582970995456,6.0,1.0,phase_2,go,300.0,250.0,1.0,,,,,,,,,gray,circle
0.0,8.0,4.0,1.0,5.0,5.0,400.9994419757277,6.0,1.0,phase_2,stop,300.0,250.0,3.0,,,,,,,,,yellow,I
0.0,6.0,2.0,1.0,5.0,5.0,360.313398996368,6.0,1.0,phase_2,stop,250.0,250.0,3.0,,,,,,,,,cyan,square
0.0,4.0,4.0,0.0,5.0,5.0,606.8102889694273,6.0,1.0,phase_2,go,200.0,250.0,1.0,,,,,,,,,white,cross
0.0,2.0,2.0,0.0,5.0,5.0,303.8396970368922,6.0,1.0,phase_2,go,200.0,250.0,1.0,,,,,,,,,magenta,triangle
0.0,2.0,2.0,0.0,5.0,5.0,333.7258598767221,6.0,1.0,phase_2,go,200.0,250.0,1.0,,,,,,,,,magenta,triangle
0.0,5.0,1.0,1.0,6.0,6.0,339.4917871337384,6.0,1.0,phase_2,stop,200.0,250.0,3.0,,,,,,,,,orange,diamond
0.0,7.0,3.0,1.0,6.0,6.0,948.077361099422,6.0,1.0,phase_2,go,200.0,200.0,1.0,,,,,,,,,blue,hexagon
0.0,4.0,4.0,0.0,6.0,6.0,435.5615039821714,6.0,1.0,phase_2,go,200.0,200.0,1.0,,,,,,,,,white,cross
0.0,2.0,2.0,0.0,6.0,6.0,348.6236641183495,6.0,1.0,phase_2,go,200.0,200.0,1.0,,,,,,,,,magenta,triangle
0.0,7.0,3.0,1.0,6.0,6.0,356.5162690356374,6.0,1.0,phase_2,stop,200.0,200.0,3.0,,,,,,,,,blue,hexagon
0.0,3.0,3.0,0.0,6.0,6.0,440.6931078992784,6.0,1.0,phase_2,go,200.0,150.0,1.0,,,,,,,,,green,flipped triangle
0.0,5.0,1.0,1.0,5.0,5.0,387.8262310754508,6.0,1.0,phase_2,go,200.0,150.0,1.0,,,,,,,,,orange,diamond
0.0,7.0,3.0,1.0,5.0,0.0,0.0,6.0,1.0,phase_2,stop,200.0,150.0,4.0,,,,,,,,,blue,hexagon
0.0,4.0,4.0,0.0,5.0,5.0,442.9262208286673,6.0,1.0,phase_2,go,250.0,150.0,1.0,,,,,,,,,white,cross
0.0,1.0,1.0,0.0,5.0,5.0,497.8162269107997,6.0,1.0,phase_2,go,250.0,150.0,1.0,,,,,,,,,gray,circle
0.0,5.0,1.0,1.0,6.0,0.0,0.0,6.0,1.0,phase_2,stop,250.0,150.0,4.0,,,,,,,,,orange,diamond
0.0,8.0,4.0,1.0,6.0,6.0,495.4840659629553,6.0,1.0,phase_2,go,250.0,200.0,1.0,,,,,,,,,yellow,I
0.0,1.0,1.0,0.0,6.0,6.0,340.2419439516961,6.0,1.0,phase_2,go,250.0,200.0,1.0,,,,,,,,,gray,circle
0.0,6.0,2.0,1.0,6.0,6.0,309.2876048758626,6.0,1.0,phase_2,stop,250.0,200.0,3.0,,,,,,,,,cyan,square
0.0,6.0,2.0,1.0,6.0,0.0,0.0,6.0,1.0,phase_2,stop,250.0,150.0,4.0,,,,,,,,,cyan,square
0.0,1.0,1.0,0.0,6.0,6.0,547.0242500305176,6.0,1.0,phase_2,go,250.0,200.0,1.0,,,,,,,,,gray,circle
0.0,5.0,1.0,1.0,5.0,5.0,346.7091401107609,6.0,1.0,phase_2,stop,250.0,200.0,3.0,,,,,,,,,orange,diamond
0.0,1.0,1.0,0.0,6.0,6.0,538.1380580365658,6.0,1.0,phase_2,go,200.0,200.0,1.0,,,,,,,,,gray,circle
0.0,4.0,4.0,0.0,5.0,5.0,345.241931034252,6.0,1.0,phase_2,go,200.0,200.0,1.0,,,,,,,,,white,cross
0.0,1.0,1.0,0.0,5.0,5.0,322.9094119742512,6.0,1.0,phase_2,go,200.0,200.0,1.0,,,,,,,,,gray,circle
0.0,7.0,3.0,1.0,6.0,6.0,380.3173559717834,6.0,1.0,phase_2,stop,200.0,200.0,3.0,,,,,,,,,blue,hexagon
0.0,8.0,4.0,1.0,6.0,0.0,0.0,6.0,1.0,phase_2,stop,200.0,150.0,4.0,,,,,,,,,yellow,I
0.0,2.0,2.0,0.0,5.0,5.0,561.6387091577053,6.0,1.0,phase_2,go,200.0,200.0,1.0,,,,,,,,,magenta,triangle
0.0,4.0,4.0,0.0,6.0,6.0,361.3935401663184,6.0,1.0,phase_2,go,200.0,200.0,1.0,,,,,,,,,white,cross
0.0,3.0,3.0,0.0,6.0,6.0,694.7334979195148,6.0,1.0,phase_2,go,200.0,200.0,1.0,,,,,,,,,green,flipped triangle
0.0,5.0,1.0,1.0,6.0,6.0,328.4765309654176,6.0,1.0,phase_2,stop,200.0,200.0,3.0,,,,,,,,,orange,diamond
0.0,6.0,2.0,1.0,5.0,0.0,0.0,6.0,1.0,phase_2,stop,200.0,150.0,4.0,,,,,,,,,cyan,square
0.0,1.0,1.0,0.0,5.0,5.0,390.5432028695941,6.0,1.0,phase_2,go,250.0,150.0,1.0,,,,,,,,,gray,circle
0.0,8.0,4.0,1.0,6.0,6.0,373.9408541005105,6.0,1.0,phase_2,go,250.0,150.0,1.0,,,,,,,,,yellow,I
0.0,7.0,3.0,1.0,5.0,5.0,339.0370989218354,6.0,1.0,phase_2,stop,250.0,150.0,3.0,,,,,,,,,blue,hexagon
0.0,4.0,4.0,0.0,5.0,5.0,571.100153028965,7.0,1.0,phase_2,go,200.0,150.0,1.0,,,,,,,,,white,cross
0.0,6.0,2.0,1.0,6.0,6.0,274.5419989805668,7.0,1.0,phase_2,go,200.0,150.0,1.0,,,,,,,,,cyan,square
0.0,4.0,4.0,0.0,6.0,6.0,320.2147451229393,7.0,1.0,phase_2,go,200.0,150.0,1.0,,,,,,,,,white,cross
0.0,6.0,2.0,1.0,5.0,5.0,310.6587629299611,7.0,1.0,phase_2,stop,200.0,150.0,3.0,,,,,,,,,cyan,square
0.0,7.0,3.0,1.0,6.0,0.0,0.0,7.0,1.0,phase_2,stop,150.0,150.0,4.0,,,,,,,,,blue,hexagon
0.0,8.0,4.0,1.0,6.0,6.0,584.8192949779332,7.0,1.0,phase_2,go,150.0,200.0,1.0,,,,,,,,,yellow,I
0.0,1.0,1.0,0.0,6.0,6.0,380.7181250303983,7.0,1.0,phase_2,go,150.0,200.0,1.0,,,,,,,,,gray,circle
0.0,1.0,1.0,0.0,6.0,6.0,390.0126728694886,7.0,1.0,phase_2,go,150.0,200.0,1.0,,,,,,,,,gray,circle
0.0,1.0,1.0,0.0,6.0,6.0,340.6452408526093,7.0,1.0,phase_2,go,150.0,200.0,1.0,,,,,,,,,gray,circle
0.0,4.0,4.0,0.0,6.0,6.0,262.7137110102922,7.0,1.0,phase_2,go,150.0,200.0,1.0,,,,,,,,,white,cross
0.0,8.0,4.0,1.0,6.0,6.0,342.0781779568642,7.0,1.0,phase_2,stop,150.0,200.0,3.0,,,,,,,,,yellow,I
0.0,1.0,1.0,0.0,5.0,5.0,563.2820329628885,7.0,1.0,phase_2,go,150.0,150.0,1.0,,,,,,,,,gray,circle
0.0,2.0,2.0,0.0,6.0,6.0,459.5785490237176,7.0,1.0,phase_2,go,150.0,150.0,1.0,,,,,,,,,magenta,triangle
0.0,8.0,4.0,1.0,6.0,6.0,307.5323011726141,7.0,1.0,phase_2,stop,150.0,150.0,3.0,,,,,,,,,yellow,I
0.0,8.0,4.0,1.0,5.0,5.0,330.1768519449979,7.0,1.0,phase_2,go,150.0,100.0,1.0,,,,,,,,,yellow,I
0.0,2.0,2.0,0.0,6.0,6.0,456.3638181425631,7.0,1.0,phase_2,go,150.0,100.0,1.0,,,,,,,,,magenta,triangle
0.0,3.0,3.0,0.0,6.0,6.0,342.9833049885928,7.0,1.0,phase_2,go,150.0,100.0,1.0,,,,,,,,,green,flipped triangle
0.0,8.0,4.0,1.0,5.0,0.0,0.0,7.0,1.0,phase_2,stop,150.0,100.0,4.0,,,,,,,,,yellow,I
0.0,1.0,1.0,0.0,5.0,5.0,512.0700721163303,7.0,1.0,phase_2,go,200.0,100.0,1.0,,,,,,,,,gray,circle
0.0,5.0,1.0,1.0,5.0,0.0,0.0,7.0,1.0,phase_2,stop,200.0,100.0,4.0,,,,,,,,,orange,diamond
0.0,2.0,2.0,0.0,5.0,5.0,353.0019521713257,7.0,1.0,phase_2,go,250.0,100.0,1.0,,,,,,,,,magenta,triangle
0.0,7.0,3.0,1.0,6.0,0.0,0.0,7.0,1.0,phase_2,stop,250.0,100.0,4.0,,,,,,,,,blue,hexagon
0.0,4.0,4.0,0.0,5.0,5.0,366.3265749346465,7.0,1.0,phase_2,go,250.0,150.0,1.0,,,,,,,,,white,cross
0.0,2.0,2.0,0.0,5.0,5.0,523.853813065216,7.0,1.0,phase_2,go,250.0,150.0,1.0,,,,,,,,,magenta,triangle
0.0,4.0,4.0,0.0,5.0,5.0,325.8132189512253,7.0,1.0,phase_2,go,250.0,150.0,1.0,,,,,,,,,white,cross
0.0,1.0,1.0,0.0,5.0,5.0,370.5235689412802,7.0,1.0,phase_2,go,250.0,150.0,1.0,,,,,,,,,gray,circle
0.0,8.0,4.0,1.0,6.0,0.0,0.0,7.0,1.0,phase_2,stop,250.0,150.0,4.0,,,,,,,,,yellow,I
0.0,3.0,3.0,0.0,5.0,5.0,324.230853933841,7.0,1.0,phase_2,go,250.0,200.0,1.0,,,,,,,,,green,flipped triangle
0.0,2.0,2.0,0.0,6.0,6.0,536.6516408976167,7.0,1.0,phase_2,go,250.0,200.0,1.0,,,,,,,,,magenta,triangle
0.0,2.0,2.0,0.0,6.0,6.0,312.3080460354686,7.0,1.0,phase_2,go,250.0,200.0,1.0,,,,,,,,,magenta,triangle
0.0,4.0,4.0,0.0,5.0,5.0,426.119381096214,7.0,1.0,phase_2,go,250.0,200.0,1.0,,,,,,,,,white,cross
0.0,5.0,1.0,1.0,5.0,5.0,313.0508798640221,7.0,1.0,phase_2,go,250.0,200.0,1.0,,,,,,,,,orange,diamond
0.0,6.0,2.0,1.0,6.0,6.0,249.4739820249378,7.0,1.0,phase_2,stop,250.0,200.0,3.0,,,,,,,,,cyan,square
0.0,7.0,3.0,1.0,5.0,5.0,358.8688620366156,7.0,1.0,phase_2,go,250.0,150.0,1.0,,,,,,,,,blue,hexagon
0.0,3.0,3.0,0.0,5.0,5.0,470.3447041101753,7.0,1.0,phase_2,go,250.0,150.0,1.0,,,,,,,,,green,flipped triangle
0.0,8.0,4.0,1.0,6.0,0.0,0.0,7.0,1.0,phase_2,stop,250.0,150.0,4.0,,,,,,,,,yellow,I
0.0,2.0,2.0,0.0,6.0,6.0,341.5732709690928,8.0,1.0,phase_2,go,250.0,200.0,1.0,,,,,,,,,magenta,triangle
0.0,3.0,3.0,0.0,5.0,5.0,298.4674950130284,8.0,1.0,phase_2,go,250.0,200.0,1.0,,,,,,,,,green,flipped triangle
0.0,7.0,3.0,1.0,5.0,5.0,324.3237501010299,8.0,1.0,phase_2,stop,250.0,200.0,3.0,,,,,,,,,blue,hexagon
0.0,8.0,4.0,1.0,6.0,6.0,376.9064149819314,8.0,1.0,phase_2,go,200.0,200.0,1.0,,,,,,,,,yellow,I
0.0,3.0,3.0,0.0,5.0,5.0,274.6070779394358,8.0,1.0,phase_2,go,200.0,200.0,1.0,,,,,,,,,green,flipped triangle
0.0,4.0,4.0,0.0,5.0,5.0,279.1382330469787,8.0,1.0,phase_2,go,200.0,200.0,1.0,,,,,,,,,white,cross
0.0,7.0,3.0,1.0,5.0,5.0,336.3938611000776,8.0,1.0,phase_2,stop,200.0,200.0,3.0,,,,,,,,,blue,hexagon
0.0,8.0,4.0,1.0,5.0,0.0,0.0,8.0,1.0,phase_2,stop,150.0,200.0,4.0,,,,,,,,,yellow,I
0.0,3.0,3.0,0.0,5.0,5.0,413.3607631083578,8.0,1.0,phase_2,go,200.0,200.0,1.0,,,,,,,,,green,flipped triangle
0.0,1.0,1.0,0.0,6.0,6.0,380.6805268395692,8.0,1.0,phase_2,go,200.0,200.0,1.0,,,,,,,,,gray,circle
0.0,5.0,1.0,1.0,6.0,0.0,0.0,8.0,1.0,phase_2,stop,200.0,200.0,4.0,,,,,,,,,orange,diamond
0.0,3.0,3.0,0.0,5.0,5.0,287.82863705419,8.0,1.0,phase_2,go,200.0,250.0,1.0,,,,,,,,,green,flipped triangle
0.0,7.0,3.0,1.0,6.0,6.0,323.2787169981748,8.0,1.0,phase_2,stop,200.0,250.0,3.0,,,,,,,,,blue,hexagon
0.0,6.0,2.0,1.0,5.0,5.0,452.4935111403465,8.0,1.0,phase_2,go,200.0,200.0,1.0,,,,,,,,,cyan,square
0.0,6.0,2.0,1.0,5.0,5.0,316.7986338958144,8.0,1.0,phase_2,stop,200.0,200.0,3.0,,,,,,,,,cyan,square
0.0,4.0,4.0,0.0,5.0,5.0,453.4873170778155,8.0,1.0,phase_2,go,150.0,200.0,1.0,,,,,,,,,white,cross
0.0,6.0,2.0,1.0,6.0,0.0,0.0,8.0,1.0,phase_2,stop,150.0,200.0,4.0,,,,,,,,,cyan,square
0.0,2.0,2.0,0.0,5.0,5.0,561.5406888537109,8.0,1.0,phase_2,go,150.0,250.0,1.0,,,,,,,,,magenta,triangle
0.0,7.0,3.0,1.0,5.0,0.0,0.0,8.0,1.0,phase_2,stop,150.0,250.0,4.0,,,,,,,,,blue,hexagon
0.0,6.0,2.0,1.0,5.0,0.0,0.0,8.0,1.0,phase_2,stop,200.0,250.0,4.0,,,,,,,,,cyan,square
0.0,8.0,4.0,1.0,6.0,0.0,0.0,8.0,1.0,phase_2,stop,250.0,250.0,4.0,,,,,,,,,yellow,I
0.0,4.0,4.0,0.0,5.0,5.0,510.49622194841504,8.0,1.0,phase_2,go,250.0,300.0,1.0,,,,,,,,,white,cross
0.0,7.0,3.0,1.0,5.0,5.0,327.3394368588924,8.0,1.0,phase_2,go,250.0,300.0,1.0,,,,,,,,,blue,hexagon
0.0,6.0,2.0,1.0,6.0,0.0,0.0,8.0,1.0,phase_2,stop,250.0,300.0,4.0,,,,,,,,,cyan,square
0.0,3.0,3.0,0.0,5.0,5.0,343.3220761362463,8.0,1.0,phase_2,go,250.0,350.0,1.0,,,,,,,,,green,flipped triangle
0.0,4.0,4.0,0.0,5.0,5.0,319.3912981078028,8.0,1.0,phase_2,go,250.0,350.0,1.0,,,,,,,,,white,cross
0.0,4.0,4.0,0.0,6.0,5.0,700.344662880525,8.0,1.0,phase_2,go,250.0,350.0,2.0,,,,,,,,,white,cross
0.0,5.0,1.0,1.0,6.0,0.0,0.0,8.0,1.0,phase_2,stop,250.0,350.0,4.0,,,,,,,,,orange,diamond
0.0,4.0,4.0,0.0,6.0,6.0,475.1008150633424,8.0,1.0,phase_2,go,250.0,400.0,1.0,,,,,,,,,white,cross
0.0,7.0,3.0,1.0,5.0,5.0,316.2044540513307,8.0,1.0,phase_2,stop,250.0,400.0,3.0,,,,,,,,,blue,hexagon
0.0,3.0,3.0,0.0,6.0,6.0,465.503151062876,8.0,1.0,phase_2,go,200.0,400.0,1.0,,,,,,,,,green,flipped triangle
0.0,5.0,1.0,1.0,5.0,5.0,296.4525111019611,8.0,1.0,phase_2,stop,200.0,400.0,3.0,,,,,,,,,orange,diamond
0.0,1.0,1.0,0.0,5.0,5.0,548.1543610803783,8.0,1.0,phase_2,go,150.0,400.0,1.0,,,,,,,,,gray,circle
0.0,6.0,2.0,1.0,5.0,5.0,431.676406878978,8.0,1.0,phase_2,go,150.0,400.0,1.0,,,,,,,,,cyan,square
0.0,8.0,4.0,1.0,6.0,6.0,418.9962691161781,8.0,1.0,phase_2,stop,150.0,400.0,3.0,,,,,,,,,yellow,I
0.0,2.0,2.0,0.0,5.0,5.0,286.5642590913921,8.0,1.0,phase_2,go,150.0,350.0,1.0,,,,,,,,,magenta,triangle
0.0,3.0,3.0,0.0,7.0,5.0,4732.365285977721,1.0,1.0,phase_3,,,,,162.0,3.0,324.0,270.0,54.0,108.0,162.0,216.0,green,flipped triangle
0.0,4.0,4.0,0.0,7.0,6.0,2382.9480540007357,1.0,1.0,phase_3,,,,,234.0,6.0,39.0,156.0,117.0,195.0,78.0,234.0,white,cross
0.0,4.0,4.0,0.0,7.0,2.0,1345.1648210175335,1.0,1.0,phase_3,,,,,294.0,6.0,98.0,294.0,147.0,49.0,196.0,245.0,white,cross
0.0,3.0,3.0,0.0,7.0,3.0,1395.3218590468168,1.0,1.0,phase_3,,,,,88.0,2.0,132.0,220.0,88.0,264.0,176.0,44.0,green,flipped triangle
0.0,5.0,1.0,1.0,7.0,3.0,1145.959279965609,1.0,1.0,phase_3,,,,,220.0,5.0,176.0,44.0,220.0,264.0,132.0,88.0,orange,diamond
0.0,2.0,2.0,0.0,7.0,4.0,1395.5400460399687,1.0,1.0,phase_3,,,,,54.0,1.0,108.0,270.0,324.0,54.0,216.0,162.0,magenta,triangle
0.0,8.0,4.0,1.0,7.0,1.0,2013.750660000369,1.0,1.0,phase_3,,,,,156.0,4.0,156.0,78.0,117.0,195.0,234.0,39.0,yellow,I
0.0,8.0,4.0,1.0,7.0,5.0,3679.8014119267455,1.0,1.0,phase_3,,,,,196.0,4.0,294.0,245.0,147.0,98.0,196.0,49.0,yellow,I
0.0,2.0,2.0,0.0,7.0,4.0,1768.4813600499183,1.0,1.0,phase_3,,,,,98.0,2.0,294.0,196.0,147.0,98.0,49.0,245.0,magenta,triangle
0.0,5.0,1.0,1.0,7.0,4.0,2464.118896983564,1.0,1.0,phase_3,,,,,270.0,5.0,324.0,162.0,54.0,270.0,216.0,108.0,orange,diamond
0.0,7.0,3.0,1.0,7.0,3.0,1189.0793398488313,1.0,1.0,phase_3,,,,,324.0,6.0,108.0,54.0,324.0,216.0,162.0,270.0,blue,hexagon
0.0,3.0,3.0,0.0,7.0,3.0,1339.4063068553803,1.0,1.0,phase_3,,,,,49.0,1.0,294.0,245.0,49.0,98.0,196.0,147.0,green,flipped triangle
0.0,1.0,1.0,0.0,7.0,4.0,4413.029327988625,1.0,1.0,phase_3,,,,,147.0,3.0,49.0,98.0,196.0,147.0,294.0,245.0,gray,circle
0.0,6.0,2.0,1.0,7.0,1.0,3378.017531009391,1.0,1.0,phase_3,,,,,132.0,3.0,132.0,264.0,220.0,176.0,44.0,88.0,cyan,square
0.0,5.0,1.0,1.0,7.0,5.0,3358.7511379737407,1.0,1.0,phase_3,,,,,270.0,5.0,108.0,324.0,216.0,162.0,270.0,54.0,orange,diamond
0.0,3.0,3.0,0.0,7.0,3.0,4196.674634004012,1.0,1.0,phase_3,,,,,108.0,2.0,54.0,216.0,108.0,270.0,162.0,324.0,green,flipped triangle
0.0,8.0,4.0,1.0,7.0,6.0,3350.5490301176906,1.0,1.0,phase_3,,,,,264.0,6.0,44.0,132.0,88.0,176.0,220.0,264.0,yellow,I
0.0,6.0,2.0,1.0,7.0,4.0,2880.5784699507058,1.0,1.0,phase_3,,,,,136.0,4.0,204.0,170.0,68.0,136.0,34.0,102.0,cyan,square
0.0,3.0,3.0,0.0,7.0,1.0,858.8742869906127,1.0,2.0,phase_3,,,,,88.0,2.0,88.0,44.0,176.0,132.0,264.0,220.0,green,flipped triangle
0.0,6.0,2.0,1.0,7.0,1.0,706.6395380534232,1.0,1.0,phase_3,,,,,49.0,1.0,49.0,98.0,294.0,147.0,196.0,245.0,cyan,square
0.0,6.0,2.0,1.0,7.0,3.0,1254.2916850652546,2.0,1.0,phase_3,,,,,54.0,1.0,108.0,270.0,54.0,162.0,324.0,216.0,cyan,square
0.0,8.0,4.0,1.0,7.0,2.0,3050.695495912805,2.0,1.0,phase_3,,,,,204.0,6.0,136.0,204.0,68.0,102.0,170.0,34.0,yellow,I
0.0,3.0,3.0,0.0,7.0,3.0,1290.8478460740298,2.0,1.0,phase_3,,,,,78.0,2.0,195.0,117.0,78.0,39.0,234.0,156.0,green,flipped triangle
0.0,1.0,1.0,0.0,7.0,4.0,704.8819991759956,2.0,1.0,phase_3,,,,,44.0,1.0,88.0,176.0,264.0,44.0,220.0,132.0,gray,circle
0.0,2.0,2.0,0.0,7.0,2.0,1002.772122155875,2.0,1.0,phase_3,,,,,170.0,5.0,102.0,170.0,204.0,136.0,34.0,68.0,magenta,triangle
0.0,8.0,4.0,1.0,7.0,4.0,964.4975180272012,2.0,1.0,phase_3,,,,,270.0,5.0,324.0,216.0,54.0,270.0,162.0,108.0,yellow,I
0.0,3.0,3.0,0.0,7.0,2.0,4745.473402785137,2.0,1.0,phase_3,,,,,68.0,2.0,136.0,68.0,102.0,204.0,170.0,34.0,green,flipped triangle
0.0,4.0,4.0,0.0,7.0,4.0,1337.637523887679,2.0,1.0,phase_3,,,,,68.0,2.0,34.0,136.0,204.0,68.0,102.0,170.0,white,cross
0.0,5.0,1.0,1.0,7.0,1.0,1527.508369879797,2.0,1.0,phase_3,,,,,196.0,4.0,196.0,49.0,294.0,98.0,245.0,147.0,orange,diamond
0.0,3.0,3.0,0.0,7.0,3.0,2472.6744152139872,2.0,1.0,phase_3,,,,,170.0,5.0,204.0,102.0,170.0,136.0,68.0,34.0,green,flipped triangle
0.0,4.0,4.0,0.0,7.0,5.0,2763.953862944618,2.0,1.0,phase_3,,,,,204.0,6.0,136.0,34.0,68.0,102.0,204.0,170.0,white,cross
0.0,5.0,1.0,1.0,7.0,4.0,1293.789807939902,2.0,1.0,phase_3,,,,,44.0,1.0,220.0,264.0,176.0,44.0,132.0,88.0,orange,diamond
0.0,1.0,1.0,0.0,7.0,5.0,1253.4490949474275,2.0,1.0,phase_3,,,,,34.0,1.0,136.0,170.0,102.0,68.0,34.0,204.0,gray,circle
0.0,7.0,3.0,1.0,7.0,6.0,1367.9259549826384,2.0,1.0,phase_3,,,,,204.0,6.0,34.0,136.0,68.0,102.0,170.0,204.0,blue,hexagon
0.0,1.0,1.0,0.0,7.0,3.0,1095.5495440866798,2.0,1.0,phase_3,,,,,68.0,2.0,34.0,204.0,68.0,170.0,102.0,136.0,gray,circle
0.0,8.0,4.0,1.0,7.0,4.0,1251.2977498117834,2.0,1.0,phase_3,,,,,204.0,6.0,170.0,34.0,102.0,204.0,68.0,136.0,yellow,I
0.0,2.0,2.0,0.0,7.0,5.0,1796.600349014625,2.0,1.0,phase_3,,,,,68.0,2.0,204.0,136.0,34.0,170.0,68.0,102.0,magenta,triangle
0.0,4.0,4.0,0.0,7.0,3.0,1551.5470339450983,2.0,1.0,phase_3,,,,,196.0,4.0,49.0,245.0,196.0,147.0,98.0,294.0,white,cross
0.0,6.0,2.0,1.0,7.0,6.0,942.7806290332228,2.0,1.0,phase_3,,,,,68.0,2.0,34.0,136.0,170.0,102.0,204.0,68.0,cyan,square
0.0,2.0,2.0,0.0,7.0,5.0,855.987561866641,2.0,1.0,phase_3,,,,,54.0,1.0,162.0,270.0,324.0,108.0,54.0,216.0,magenta,triangle
0.0,7.0,3.0,1.0,7.0,4.0,1106.8092160858214,3.0,1.0,phase_3,,,,,294.0,6.0,245.0,49.0,196.0,294.0,98.0,147.0,blue,hexagon
0.0,7.0,3.0,1.0,7.0,5.0,1297.2949859686196,3.0,1.0,phase_3,,,,,204.0,6.0,68.0,136.0,102.0,170.0,204.0,34.0,blue,hexagon
0.0,7.0,3.0,1.0,7.0,6.0,1173.5005171503872,3.0,1.0,phase_3,,,,,147.0,3.0,245.0,98.0,49.0,294.0,196.0,147.0,blue,hexagon
0.0,5.0,1.0,1.0,7.0,5.0,944.2050729412584,3.0,1.0,phase_3,,,,,195.0,5.0,156.0,78.0,234.0,39.0,195.0,117.0,orange,diamond
0.0,7.0,3.0,1.0,7.0,6.0,823.6865380313247,3.0,1.0,phase_3,,,,,117.0,3.0,234.0,39.0,78.0,195.0,156.0,117.0,blue,hexagon
0.0,4.0,4.0,0.0,7.0,2.0,536.8723191786557,3.0,1.0,phase_3,,,,,264.0,6.0,88.0,264.0,220.0,176.0,132.0,44.0,white,cross
0.0,2.0,2.0,0.0,7.0,4.0,1180.0031778402629,3.0,1.0,phase_3,,,,,264.0,6.0,44.0,132.0,220.0,264.0,88.0,176.0,magenta,triangle
0.0,1.0,1.0,0.0,7.0,2.0,909.0400170534848,3.0,1.0,phase_3,,,,,39.0,1.0,234.0,39.0,195.0,78.0,156.0,117.0,gray,circle
0.0,6.0,2.0,1.0,7.0,6.0,730.6783029343933,3.0,1.0,phase_3,,,,,39.0,1.0,117.0,234.0,78.0,156.0,195.0,39.0,cyan,square
0.0,7.0,3.0,1.0,7.0,3.0,1229.9366618972272,3.0,1.0,phase_3,,,,,264.0,6.0,44.0,176.0,264.0,88.0,132.0,220.0,blue,hexagon
0.0,4.0,4.0,0.0,7.0,2.0,520.3455400187522,3.0,1.0,phase_3,,,,,324.0,6.0,108.0,324.0,270.0,162.0,54.0,216.0,white,cross
0.0,8.0,4.0,1.0,7.0,5.0,879.6805429738015,3.0,1.0,phase_3,,,,,162.0,3.0,54.0,108.0,216.0,270.0,162.0,324.0,yellow,I
0.0,2.0,2.0,0.0,7.0,1.0,1266.43281779252,3.0,1.0,phase_3,,,,,117.0,3.0,117.0,156.0,195.0,234.0,78.0,39.0,magenta,triangle
0.0,8.0,4.0,1.0,7.0,6.0,1620.4195658210665,3.0,1.0,phase_3,,,,,176.0,4.0,220.0,44.0,264.0,88.0,132.0,176.0,yellow,I
0.0,1.0,1.0,0.0,7.0,1.0,1422.4569399375468,3.0,1.0,phase_3,,,,,324.0,6.0,324.0,162.0,54.0,216.0,108.0,270.0,gray,circle
0.0,8.0,4.0,1.0,7.0,5.0,1086.473881965503,3.0,1.0,phase_3,,,,,117.0,3.0,195.0,78.0,39.0,234.0,117.0,156.0,yellow,I
0.0,7.0,3.0,1.0,7.0,4.0,3103.720533894375,3.0,1.0,phase_3,,,,,195.0,5.0,117.0,234.0,78.0,195.0,39.0,156.0,blue,hexagon
0.0,1.0,1.0,0.0,7.0,4.0,1003.2237921841445,3.0,1.0,phase_3,,,,,54.0,1.0,216.0,324.0,162.0,54.0,108.0,270.0,gray,circle
0.0,2.0,2.0,0.0,7.0,5.0,753.2721068710089,3.0,1.0,phase_3,,,,,49.0,1.0,196.0,98.0,294.0,245.0,49.0,147.0,magenta,triangle
0.0,2.0,2.0,0.0,7.0,2.0,1331.853823037818,3.0,1.0,phase_3,,,,,88.0,2.0,176.0,88.0,132.0,264.0,220.0,44.0,magenta,triangle
0.0,8.0,4.0,1.0,7.0,5.0,1158.4379540290684,4.0,1.0,phase_3,,,,,245.0,5.0,196.0,49.0,98.0,147.0,245.0,294.0,yellow,I
0.0,5.0,1.0,1.0,7.0,5.0,557.3659150395542,4.0,1.0,phase_3,,,,,98.0,2.0,294.0,49.0,196.0,147.0,98.0,245.0,orange,diamond
0.0,2.0,2.0,0.0,7.0,2.0,1176.0695029515773,4.0,1.0,phase_3,,,,,117.0,3.0,234.0,117.0,156.0,195.0,78.0,39.0,magenta,triangle
0.0,3.0,3.0,0.0,7.0,5.0,921.6505871154368,4.0,1.0,phase_3,,,,,156.0,4.0,78.0,234.0,117.0,39.0,156.0,195.0,green,flipped triangle
0.0,6.0,2.0,1.0,7.0,1.0,601.0621739551425,4.0,1.0,phase_3,,,,,162.0,3.0,162.0,270.0,216.0,54.0,108.0,324.0,cyan,square
0.0,1.0,1.0,0.0,7.0,5.0,508.241900941357,4.0,1.0,phase_3,,,,,264.0,6.0,88.0,220.0,176.0,44.0,264.0,132.0,gray,circle
0.0,6.0,2.0,1.0,7.0,1.0,446.5228670742363,4.0,1.0,phase_3,,,,,49.0,1.0,49.0,294.0,245.0,147.0,196.0,98.0,cyan,square
0.0,4.0,4.0,0.0,7.0,6.0,544.1851450596005,4.0,1.0,phase_3,,,,,108.0,2.0,162.0,270.0,216.0,54.0,324.0,108.0,white,cross
0.0,5.0,1.0,1.0,7.0,1.0,649.8178220354021,4.0,1.0,phase_3,,,,,234.0,6.0,234.0,117.0,39.0,195.0,78.0,156.0,orange,diamond
0.0,7.0,3.0,1.0,7.0,5.0,801.6660341527313,4.0,1.0,phase_3,,,,,220.0,5.0,88.0,132.0,264.0,44.0,220.0,176.0,blue,hexagon
0.0,5.0,1.0,1.0,7.0,6.0,768.7685179989785,4.0,1.0,phase_3,,,,,136.0,4.0,68.0,102.0,204.0,34.0,170.0,136.0,orange,diamond
0.0,1.0,1.0,0.0,7.0,5.0,838.0480359774083,4.0,1.0,phase_3,,,,,245.0,5.0,196.0,294.0,147.0,98.0,245.0,49.0,gray,circle
0.0,4.0,4.0,0.0,7.0,3.0,1731.743744108826,4.0,1.0,phase_3,,,,,220.0,5.0,132.0,88.0,220.0,44.0,176.0,264.0,white,cross
0.0,7.0,3.0,1.0,7.0,5.0,1749.4178691413254,4.0,1.0,phase_3,,,,,324.0,6.0,108.0,216.0,162.0,54.0,324.0,270.0,blue,hexagon
0.0,6.0,2.0,1.0,7.0,1.0,664.2994550056756,4.0,1.0,phase_3,,,,,156.0,4.0,156.0,234.0,117.0,195.0,78.0,39.0,cyan,square
0.0,1.0,1.0,0.0,7.0,5.0,1184.4014001544565,4.0,1.0,phase_3,,,,,117.0,3.0,78.0,156.0,234.0,195.0,117.0,39.0,gray,circle
0.0,6.0,2.0,1.0,7.0,5.0,1089.642611099407,4.0,1.0,phase_3,,,,,132.0,3.0,88.0,44.0,220.0,176.0,132.0,264.0,cyan,square
0.0,3.0,3.0,0.0,7.0,5.0,1314.5580298732966,4.0,1.0,phase_3,,,,,196.0,4.0,147.0,98.0,294.0,245.0,196.0,49.0,green,flipped triangle
0.0,4.0,4.0,0.0,7.0,2.0,398.5814349725842,4.0,1.0,phase_3,,,,,156.0,4.0,39.0,156.0,234.0,78.0,117.0,195.0,white,cross
0.0,5.0,1.0,1.0,7.0,5.0,2095.5338070634757,4.0,1.0,phase_3,,,,,204.0,6.0,102.0,136.0,170.0,34.0,204.0,68.0,orange,diamond
