raw_reward_magnitude,stim_reward,stepwise_reward_magnitude,paired_with_stopping,stim_location,response,reaction_time,block,num_trial_presentations,which_phase,stop_signal_trial_type,left_SSD,right_SSD,accuracy,chosen_bidding_amount,chosen_bidding_level,possible_bid_1,possible_bid_2,possible_bid_3,possible_bid_4,possible_bid_5,possible_bid_6,color_text,shape_text
204.0,3.0,3.0,0.0,1.0,1.0,493.5147610958665,1.0,1.0,phase_1,,,,,,,,,,,,,gray,diamond
224.0,3.0,3.0,0.0,4.0,4.0,289.636273868382,1.0,1.0,phase_1,,,,,,,,,,,,,gray,diamond
398.0,4.0,4.0,0.0,1.0,1.0,301.9120590761304,1.0,1.0,phase_1,,,,,,,,,,,,,orange,triangle
183.0,7.0,3.0,1.0,3.0,3.0,242.3833769280463,1.0,1.0,phase_1,,,,,,,,,,,,,magenta,hexagon
0.0,1.0,0.0,0.0,2.0,2.0,293.1474028155207,1.0,1.0,phase_1,,,,,,,,,,,,,blue,cross
0.0,3.0,0.0,0.0,1.0,1.0,318.8580379355699,1.0,2.0,phase_1,,,,,,,,,,,,,gray,diamond
86.0,6.0,2.0,1.0,2.0,2.0,268.5311848763376,1.0,1.0,phase_1,,,,,,,,,,,,,green,circle
214.0,7.0,3.0,1.0,1.0,1.0,296.1317750159651,1.0,1.0,phase_1,,,,,,,,,,,,,magenta,hexagon
400.0,4.0,4.0,0.0,4.0,4.0,299.9792208429426,1.0,1.0,phase_1,,,,,,,,,,,,,orange,triangle
0.0,4.0,0.0,0.0,2.0,2.0,249.5192030910402,1.0,1.0,phase_1,,,,,,,,,,,,,orange,triangle
75.0,6.0,2.0,1.0,3.0,3.0,304.4973290525377,1.0,1.0,phase_1,,,,,,,,,,,,,green,circle
119.0,6.0,2.0,1.0,2.0,2.0,309.5245810691267,1.0,1.0,phase_1,,,,,,,,,,,,,green,circle
400.0,4.0,4.0,0.0,4.0,4.0,335.6641628779471,1.0,1.0,phase_1,,,,,,,,,,,,,orange,triangle
0.0,1.0,0.0,0.0,2.0,2.0,276.4071610290557,1.0,1.0,phase_1,,,,,,,,,,,,,blue,cross
424.0,8.0,4.0,1.0,4.0,4.0,416.8889839202165,1.0,1.0,phase_1,,,,,,,,,,,,,cyan,I
92.0,6.0,2.0,1.0,1.0,1.0,461.8831989355385,1.0,1.0,phase_1,,,,,,,,,,,,,green,circle
415.0,4.0,4.0,0.0,1.0,1.0,355.6798149365932,1.0,1.0,phase_1,,,,,,,,,,,,,orange,triangle
424.0,4.0,4.0,0.0,2.0,2.0,303.6659501958638,1.0,1.0,phase_1,,,,,,,,,,,,,orange,triangle
107.0,2.0,2.0,0.0,2.0,2.0,323.8372521009296,1.0,1.0,phase_1,,,,,,,,,,,,,white,square
186.0,7.0,3.0,1.0,4.0,4.0,344.206971116364,1.0,1.0,phase_1,,,,,,,,,,,,,magenta,hexagon
92.0,2.0,2.0,0.0,2.0,2.0,279.7525650821626,1.0,1.0,phase_1,,,,,,,,,,,,,white,square
387.0,8.0,4.0,1.0,4.0,4.0,365.0217219255864,1.0,1.0,phase_1,,,,,,,,,,,,,cyan,I
71.0,1.0,1.0,0.0,1.0,1.0,368.8515620306134,1.0,1.0,phase_1,,,,,,,,,,,,,blue,cross
117.0,6.0,2.0,1.0,3.0,3.0,332.2777131106704,1.0,1.0,phase_1,,,,,,,,,,,,,green,circle
0.0,6.0,0.0,1.0,2.0,2.0,298.6963780131191,1.0,1.0,phase_1,,,,,,,,,,,,,green,circle
0.0,5.0,0.0,1.0,2.0,2.0,277.5998960714787,1.0,1.0,phase_1,,,,,,,,,,,,,yellow,flipped triangle
200.0,7.0,3.0,1.0,4.0,4.0,322.5091879721731,1.0,1.0,phase_1,,,,,,,,,,,,,magenta,hexagon
206.0,7.0,3.0,1.0,1.0,1.0,301.2047200463712,1.0,1.0,phase_1,,,,,,,,,,,,,magenta,hexagon
404.0,8.0,4.0,1.0,3.0,3.0,329.7084958758205,1.0,1.0,phase_1,,,,,,,,,,,,,cyan,I
183.0,3.0,3.0,0.0,1.0,1.0,311.6874801926315,1.0,1.0,phase_1,,,,,,,,,,,,,gray,diamond
108.0,2.0,2.0,0.0,2.0,2.0,316.1351841408759,1.0,1.0,phase_1,,,,,,,,,,,,,white,square
0.0,1.0,0.0,0.0,4.0,4.0,288.4939310606569,1.0,1.0,phase_1,,,,,,,,,,,,,blue,cross
54.0,1.0,1.0,0.0,4.0,4.0,334.5395110081881,1.0,1.0,phase_1,,,,,,,,,,,,,blue,cross
45.0,1.0,1.0,0.0,2.0,2.0,403.3764759078622,1.0,1.0,phase_1,,,,,,,,,,,,,blue,cross
124.0,2.0,2.0,0.0,4.0,4.0,328.1553580891341,1.0,1.0,phase_1,,,,,,,,,,,,,white,square
203.0,7.0,3.0,1.0,3.0,3.0,324.953616829589,1.0,1.0,phase_1,,,,,,,,,,,,,magenta,hexagon
406.0,4.0,4.0,0.0,3.0,3.0,305.7799020316452,1.0,1.0,phase_1,,,,,,,,,,,,,orange,triangle
0.0,1.0,0.0,0.0,3.0,3.0,308.8751819450408,1.0,1.0,phase_1,,,,,,,,,,,,,blue,cross
0.0,1.0,0.0,0.0,2.0,2.0,313.1713829934597,1.0,1.0,phase_1,,,,,,,,,,,,,blue,cross
105.0,2.0,2.0,0.0,2.0,2.0,255.51934400573367,1.0,1.0,phase_1,,,,,,,,,,,,,white,square
404.0,4.0,4.0,0.0,1.0,1.0,301.185511983931,1.0,1.0,phase_1,,,,,,,,,,,,,orange,triangle
379.0,8.0,4.0,1.0,3.0,3.0,265.3907090425491,1.0,1.0,phase_1,,,,,,,,,,,,,cyan,I
47.0,1.0,1.0,0.0,2.0,2.0,291.4883519988507,1.0,1.0,phase_1,,,,,,,,,,,,,blue,cross
387.0,4.0,4.0,0.0,1.0,1.0,320.0697710271925,1.0,1.0,phase_1,,,,,,,,,,,,,orange,triangle
384.0,4.0,4.0,0.0,3.0,3.0,325.1120150089264,1.0,1.0,phase_1,,,,,,,,,,,,,orange,triangle
206.0,3.0,3.0,0.0,4.0,4.0,300.830340012908,1.0,1.0,phase_1,,,,,,,,,,,,,gray,diamond
0.0,7.0,0.0,1.0,4.0,4.0,329.1049068793654,1.0,1.0,phase_1,,,,,,,,,,,,,magenta,hexagon
215.0,3.0,3.0,0.0,1.0,1.0,317.023447016254,1.0,1.0,phase_1,,,,,,,,,,,,,gray,diamond
87.0,2.0,2.0,0.0,4.0,4.0,267.9718630388379,1.0,1.0,phase_1,,,,,,,,,,,,,white,square
213.0,3.0,3.0,0.0,2.0,2.0,332.0189269725233,1.0,1.0,phase_1,,,,,,,,,,,,,gray,diamond
0.0,5.0,0.0,1.0,2.0,2.0,291.7963790241629,1.0,1.0,phase_1,,,,,,,,,,,,,yellow,flipped triangle
0.0,3.0,0.0,0.0,4.0,4.0,298.0478659737855,1.0,1.0,phase_1,,,,,,,,,,,,,gray,diamond
60.0,1.0,1.0,0.0,4.0,4.0,309.4319689553231,1.0,1.0,phase_1,,,,,,,,,,,,,blue,cross
47.0,5.0,1.0,1.0,4.0,4.0,304.6807770151645,1.0,1.0,phase_1,,,,,,,,,,,,,yellow,flipped triangle
42.0,1.0,1.0,0.0,4.0,4.0,398.8229660317302,1.0,1.0,phase_1,,,,,,,,,,,,,blue,cross
394.0,4.0,4.0,0.0,3.0,3.0,320.7657779566943,1.0,1.0,phase_1,,,,,,,,,,,,,orange,triangle
120.0,2.0,2.0,0.0,3.0,3.0,288.8073660433292,1.0,1.0,phase_1,,,,,,,,,,,,,white,square
394.0,8.0,4.0,1.0,4.0,4.0,269.8061531409621,1.0,1.0,phase_1,,,,,,,,,,,,,cyan,I
59.0,5.0,1.0,1.0,1.0,1.0,322.3676420748234,1.0,1.0,phase_1,,,,,,,,,,,,,yellow,flipped triangle
42.0,1.0,1.0,0.0,3.0,3.0,351.1327139567584,1.0,1.0,phase_1,,,,,,,,,,,,,blue,cross
77.0,2.0,2.0,0.0,3.0,3.0,304.3333070818335,1.0,1.0,phase_1,,,,,,,,,,,,,white,square
0.0,1.0,0.0,0.0,4.0,4.0,288.1860360503196,1.0,1.0,phase_1,,,,,,,,,,,,,blue,cross
108.0,6.0,2.0,1.0,2.0,2.0,316.1900038830936,1.0,1.0,phase_1,,,,,,,,,,,,,green,circle
75.0,2.0,2.0,0.0,1.0,1.0,280.734745087102,1.0,1.0,phase_1,,,,,,,,,,,,,white,square
399.0,4.0,4.0,0.0,3.0,3.0,260.2594420313835,1.0,1.0,phase_1,,,,,,,,,,,,,orange,triangle
33.0,5.0,1.0,1.0,1.0,1.0,274.0635711234063,1.0,1.0,phase_1,,,,,,,,,,,,,yellow,flipped triangle
384.0,8.0,4.0,1.0,1.0,1.0,329.9918281845748,1.0,2.0,phase_1,,,,,,,,,,,,,cyan,I
110.0,2.0,2.0,0.0,3.0,3.0,311.5630680695176,1.0,1.0,phase_1,,,,,,,,,,,,,white,square
86.0,2.0,2.0,0.0,3.0,3.0,324.7451998759061,1.0,1.0,phase_1,,,,,,,,,,,,,white,square
404.0,4.0,4.0,0.0,2.0,2.0,335.61672992073,1.0,1.0,phase_1,,,,,,,,,,,,,orange,triangle
193.0,7.0,3.0,1.0,4.0,4.0,300.546124111861,1.0,1.0,phase_1,,,,,,,,,,,,,magenta,hexagon
86.0,6.0,2.0,1.0,3.0,3.0,386.8816599715501,1.0,1.0,phase_1,,,,,,,,,,,,,green,circle
86.0,2.0,2.0,0.0,4.0,4.0,375.0726250000298,1.0,1.0,phase_1,,,,,,,,,,,,,white,square
375.0,4.0,4.0,0.0,2.0,2.0,316.5270651225,1.0,1.0,phase_1,,,,,,,,,,,,,orange,triangle
98.0,2.0,2.0,0.0,1.0,1.0,358.4579590242356,1.0,1.0,phase_1,,,,,,,,,,,,,white,square
206.0,3.0,3.0,0.0,3.0,3.0,374.1447199136019,1.0,1.0,phase_1,,,,,,,,,,,,,gray,diamond
92.0,2.0,2.0,0.0,3.0,3.0,329.910822911188,1.0,1.0,phase_1,,,,,,,,,,,,,white,square
117.0,2.0,2.0,0.0,2.0,2.0,316.9490590225905,1.0,1.0,phase_1,,,,,,,,,,,,,white,square
74.0,5.0,1.0,1.0,3.0,3.0,338.7101148255169,1.0,1.0,phase_1,,,,,,,,,,,,,yellow,flipped triangle
101.0,6.0,2.0,1.0,4.0,4.0,398.6179330386221,1.0,1.0,phase_1,,,,,,,,,,,,,green,circle
62.0,1.0,1.0,0.0,1.0,1.0,326.2439609970897,1.0,1.0,phase_1,,,,,,,,,,,,,blue,cross
77.0,6.0,2.0,1.0,4.0,4.0,370.29271107167,1.0,1.0,phase_1,,,,,,,,,,,,,green,circle
0.0,3.0,0.0,0.0,2.0,2.0,317.5532729364931,1.0,1.0,phase_1,,,,,,,,,,,,,gray,diamond
205.0,3.0,3.0,0.0,2.0,2.0,370.4963340424001,1.0,1.0,phase_1,,,,,,,,,,,,,gray,diamond
404.0,4.0,4.0,0.0,3.0,3.0,357.3480241466313,1.0,1.0,phase_1,,,,,,,,,,,,,orange,triangle
200.0,3.0,3.0,0.0,2.0,2.0,300.9069641120732,1.0,1.0,phase_1,,,,,,,,,,,,,gray,diamond
406.0,4.0,4.0,0.0,2.0,2.0,329.1875410359353,1.0,1.0,phase_1,,,,,,,,,,,,,orange,triangle
391.0,8.0,4.0,1.0,1.0,1.0,340.7937521114945,1.0,1.0,phase_1,,,,,,,,,,,,,cyan,I
87.0,6.0,2.0,1.0,1.0,1.0,345.9445061162114,1.0,1.0,phase_1,,,,,,,,,,,,,green,circle
200.0,7.0,3.0,1.0,1.0,1.0,308.8360140100121,1.0,1.0,phase_1,,,,,,,,,,,,,magenta,hexagon
0.0,7.0,0.0,1.0,4.0,4.0,337.7591620665043,1.0,1.0,phase_1,,,,,,,,,,,,,magenta,hexagon
55.0,1.0,1.0,0.0,3.0,3.0,370.1943468768149,1.0,1.0,phase_1,,,,,,,,,,,,,blue,cross
100.0,6.0,2.0,1.0,1.0,1.0,324.4579611346125,1.0,1.0,phase_1,,,,,,,,,,,,,green,circle
0.0,8.0,0.0,1.0,2.0,2.0,369.1659080795944,1.0,1.0,phase_1,,,,,,,,,,,,,cyan,I
206.0,7.0,3.0,1.0,2.0,2.0,341.9358981773257,1.0,1.0,phase_1,,,,,,,,,,,,,magenta,hexagon
63.0,5.0,1.0,1.0,4.0,4.0,352.6800628751516,1.0,1.0,phase_1,,,,,,,,,,,,,yellow,flipped triangle
0.0,5.0,0.0,1.0,3.0,3.0,365.5861599836498,1.0,1.0,phase_1,,,,,,,,,,,,,yellow,flipped triangle
71.0,1.0,1.0,0.0,3.0,3.0,325.734251178801,1.0,1.0,phase_1,,,,,,,,,,,,,blue,cross
79.0,2.0,2.0,0.0,2.0,2.0,398.9001570735127,1.0,1.0,phase_1,,,,,,,,,,,,,white,square
66.0,1.0,1.0,0.0,1.0,1.0,292.5656971056014,1.0,1.0,phase_1,,,,,,,,,,,,,blue,cross
210.0,3.0,3.0,0.0,4.0,4.0,404.5794289559126,2.0,1.0,phase_1,,,,,,,,,,,,,gray,diamond
391.0,4.0,4.0,0.0,2.0,2.0,311.0416869167238,2.0,1.0,phase_1,,,,,,,,,,,,,orange,triangle
102.0,6.0,2.0,1.0,4.0,4.0,301.8767619505524,2.0,1.0,phase_1,,,,,,,,,,,,,green,circle
385.0,8.0,4.0,1.0,2.0,2.0,321.1915411520749,2.0,1.0,phase_1,,,,,,,,,,,,,cyan,I
205.0,7.0,3.0,1.0,1.0,1.0,291.9034268707037,2.0,1.0,phase_1,,,,,,,,,,,,,magenta,hexagon
222.0,7.0,3.0,1.0,1.0,1.0,328.2421459443867,2.0,1.0,phase_1,,,,,,,,,,,,,magenta,hexagon
69.0,1.0,1.0,0.0,2.0,2.0,399.8247080016881,2.0,1.0,phase_1,,,,,,,,,,,,,blue,cross
119.0,2.0,2.0,0.0,3.0,3.0,394.9461099691689,2.0,1.0,phase_1,,,,,,,,,,,,,white,square
0.0,1.0,0.0,0.0,1.0,1.0,321.3791181333363,2.0,1.0,phase_1,,,,,,,,,,,,,blue,cross
0.0,6.0,0.0,1.0,1.0,1.0,358.8362510781735,2.0,1.0,phase_1,,,,,,,,,,,,,green,circle
90.0,6.0,2.0,1.0,4.0,4.0,361.6972379386425,2.0,1.0,phase_1,,,,,,,,,,,,,green,circle
387.0,8.0,4.0,1.0,3.0,3.0,407.4924129527062,2.0,1.0,phase_1,,,,,,,,,,,,,cyan,I
52.0,1.0,1.0,0.0,3.0,3.0,417.5851591862738,2.0,1.0,phase_1,,,,,,,,,,,,,blue,cross
0.0,5.0,0.0,1.0,3.0,3.0,365.48250191845,2.0,1.0,phase_1,,,,,,,,,,,,,yellow,flipped triangle
0.0,2.0,0.0,0.0,3.0,3.0,338.3867959491908,2.0,1.0,phase_1,,,,,,,,,,,,,white,square
196.0,3.0,3.0,0.0,4.0,4.0,335.3557221125811,2.0,1.0,phase_1,,,,,,,,,,,,,gray,diamond
42.0,1.0,1.0,0.0,2.0,2.0,349.1308900993317,2.0,1.0,phase_1,,,,,,,,,,,,,blue,cross
381.0,8.0,4.0,1.0,3.0,3.0,321.1627579294145,2.0,1.0,phase_1,,,,,,,,,,,,,cyan,I
0.0,1.0,0.0,0.0,1.0,1.0,368.2702691294253,2.0,1.0,phase_1,,,,,,,,,,,,,blue,cross
84.0,2.0,2.0,0.0,4.0,4.0,332.0010812021792,2.0,1.0,phase_1,,,,,,,,,,,,,white,square
403.0,8.0,4.0,1.0,3.0,3.0,328.2558540813625,2.0,1.0,phase_1,,,,,,,,,,,,,cyan,I
405.0,8.0,4.0,1.0,2.0,2.0,307.9423299059272,2.0,1.0,phase_1,,,,,,,,,,,,,cyan,I
400.0,8.0,4.0,1.0,2.0,2.0,344.8902138043195,2.0,1.0,phase_1,,,,,,,,,,,,,cyan,I
224.0,7.0,3.0,1.0,1.0,1.0,341.977511998266,2.0,1.0,phase_1,,,,,,,,,,,,,magenta,hexagon
119.0,2.0,2.0,0.0,4.0,4.0,349.3467590305954,2.0,1.0,phase_1,,,,,,,,,,,,,white,square
99.0,2.0,2.0,0.0,2.0,2.0,318.6136530712247,2.0,1.0,phase_1,,,,,,,,,,,,,white,square
222.0,3.0,3.0,0.0,1.0,1.0,331.6063948441297,2.0,1.0,phase_1,,,,,,,,,,,,,gray,diamond
0.0,4.0,0.0,0.0,2.0,2.0,359.9340720102191,2.0,1.0,phase_1,,,,,,,,,,,,,orange,triangle
424.0,8.0,4.0,1.0,1.0,1.0,319.4186429027468,2.0,1.0,phase_1,,,,,,,,,,,,,cyan,I
0.0,4.0,0.0,0.0,1.0,1.0,332.5048808474093,2.0,1.0,phase_1,,,,,,,,,,,,,orange,triangle
54.0,1.0,1.0,0.0,2.0,2.0,305.0140819977969,2.0,1.0,phase_1,,,,,,,,,,,,,blue,cross
195.0,3.0,3.0,0.0,3.0,3.0,397.6254500448704,2.0,1.0,phase_1,,,,,,,,,,,,,gray,diamond
0.0,1.0,0.0,0.0,4.0,4.0,440.4340339824557,2.0,1.0,phase_1,,,,,,,,,,,,,blue,cross
0.0,8.0,0.0,1.0,1.0,1.0,307.4293760582804,2.0,1.0,phase_1,,,,,,,,,,,,,cyan,I
66.0,5.0,1.0,1.0,4.0,4.0,368.786133127287,2.0,1.0,phase_1,,,,,,,,,,,,,yellow,flipped triangle
214.0,7.0,3.0,1.0,2.0,2.0,284.2171359807253,2.0,1.0,phase_1,,,,,,,,,,,,,magenta,hexagon
180.0,7.0,3.0,1.0,4.0,4.0,340.5316970311105,2.0,1.0,phase_1,,,,,,,,,,,,,magenta,hexagon
422.0,8.0,4.0,1.0,1.0,1.0,333.7936149910092,2.0,1.0,phase_1,,,,,,,,,,,,,cyan,I
26.0,1.0,1.0,0.0,2.0,2.0,309.8887500818819,2.0,1.0,phase_1,,,,,,,,,,,,,blue,cross
0.0,4.0,0.0,0.0,4.0,4.0,346.1646649520844,2.0,1.0,phase_1,,,,,,,,,,,,,orange,triangle
211.0,7.0,3.0,1.0,4.0,4.0,372.8832080960274,2.0,1.0,phase_1,,,,,,,,,,,,,magenta,hexagon
0.0,7.0,0.0,1.0,4.0,4.0,412.8803450148552,2.0,1.0,phase_1,,,,,,,,,,,,,magenta,hexagon
0.0,5.0,0.0,1.0,1.0,1.0,349.7369699180126,2.0,1.0,phase_1,,,,,,,,,,,,,yellow,flipped triangle
179.0,3.0,3.0,0.0,1.0,1.0,325.061070965603,2.0,1.0,phase_1,,,,,,,,,,,,,gray,diamond
197.0,7.0,3.0,1.0,2.0,2.0,289.9514159653336,2.0,1.0,phase_1,,,,,,,,,,,,,magenta,hexagon
180.0,3.0,3.0,0.0,4.0,4.0,285.5853848159313,2.0,1.0,phase_1,,,,,,,,,,,,,gray,diamond
387.0,4.0,4.0,0.0,3.0,3.0,328.1941770110279,2.0,1.0,phase_1,,,,,,,,,,,,,orange,triangle
62.0,1.0,1.0,0.0,3.0,3.0,415.8593961037695,2.0,1.0,phase_1,,,,,,,,,,,,,blue,cross
84.0,2.0,2.0,0.0,2.0,2.0,293.221847852692,2.0,1.0,phase_1,,,,,,,,,,,,,white,square
179.0,3.0,3.0,0.0,4.0,4.0,302.1894991397857,2.0,1.0,phase_1,,,,,,,,,,,,,gray,diamond
224.0,7.0,3.0,1.0,2.0,2.0,333.5851258598268,2.0,1.0,phase_1,,,,,,,,,,,,,magenta,hexagon
123.0,2.0,2.0,0.0,4.0,4.0,328.2677819952369,2.0,1.0,phase_1,,,,,,,,,,,,,white,square
175.0,3.0,3.0,0.0,3.0,3.0,358.1889809574932,2.0,1.0,phase_1,,,,,,,,,,,,,gray,diamond
0.0,2.0,0.0,0.0,1.0,1.0,284.4131959136575,2.0,1.0,phase_1,,,,,,,,,,,,,white,square
0.0,4.0,0.0,0.0,1.0,1.0,329.7339710406959,2.0,1.0,phase_1,,,,,,,,,,,,,orange,triangle
213.0,7.0,3.0,1.0,3.0,3.0,381.7813089117408,2.0,1.0,phase_1,,,,,,,,,,,,,magenta,hexagon
114.0,6.0,2.0,1.0,1.0,1.0,314.0596719458699,2.0,1.0,phase_1,,,,,,,,,,,,,green,circle
407.0,4.0,4.0,0.0,2.0,2.0,261.9637940078974,2.0,1.0,phase_1,,,,,,,,,,,,,orange,triangle
100.0,2.0,2.0,0.0,4.0,4.0,394.7946801781654,2.0,1.0,phase_1,,,,,,,,,,,,,white,square
220.0,7.0,3.0,1.0,3.0,3.0,416.1246418952942,2.0,1.0,phase_1,,,,,,,,,,,,,magenta,hexagon
398.0,8.0,4.0,1.0,2.0,2.0,356.69860406778747,2.0,1.0,phase_1,,,,,,,,,,,,,cyan,I
39.0,1.0,1.0,0.0,3.0,3.0,370.54173508659,2.0,1.0,phase_1,,,,,,,,,,,,,blue,cross
425.0,4.0,4.0,0.0,2.0,2.0,357.256359886378,2.0,1.0,phase_1,,,,,,,,,,,,,orange,triangle
29.0,1.0,1.0,0.0,3.0,3.0,376.44364405423397,2.0,1.0,phase_1,,,,,,,,,,,,,blue,cross
391.0,4.0,4.0,0.0,1.0,1.0,326.7729340586811,2.0,1.0,phase_1,,,,,,,,,,,,,orange,triangle
179.0,7.0,3.0,1.0,3.0,3.0,346.4893698692322,2.0,1.0,phase_1,,,,,,,,,,,,,magenta,hexagon
381.0,4.0,4.0,0.0,2.0,2.0,390.180482994765,2.0,1.0,phase_1,,,,,,,,,,,,,orange,triangle
0.0,2.0,0.0,0.0,4.0,4.0,348.7904390785843,2.0,1.0,phase_1,,,,,,,,,,,,,white,square
33.0,1.0,1.0,0.0,1.0,1.0,360.0897479336709,2.0,1.0,phase_1,,,,,,,,,,,,,blue,cross
29.0,5.0,1.0,1.0,4.0,4.0,397.8413108270615,2.0,1.0,phase_1,,,,,,,,,,,,,yellow,flipped triangle
69.0,5.0,1.0,1.0,1.0,1.0,362.8086468670517,2.0,1.0,phase_1,,,,,,,,,,,,,yellow,flipped triangle
117.0,6.0,2.0,1.0,4.0,4.0,397.5820089690387,2.0,1.0,phase_1,,,,,,,,,,,,,green,circle
105.0,6.0,2.0,1.0,4.0,4.0,369.9788548983633,2.0,1.0,phase_1,,,,,,,,,,,,,green,circle
379.0,8.0,4.0,1.0,3.0,3.0,402.9488039668649,2.0,1.0,phase_1,,,,,,,,,,,,,cyan,I
123.0,6.0,2.0,1.0,4.0,4.0,366.4819500409066,2.0,1.0,phase_1,,,,,,,,,,,,,green,circle
30.0,5.0,1.0,1.0,4.0,4.0,308.3989559672773,2.0,1.0,phase_1,,,,,,,,,,,,,yellow,flipped triangle
0.0,8.0,0.0,1.0,1.0,1.0,406.7488559521734,2.0,1.0,phase_1,,,,,,,,,,,,,cyan,I
40.0,1.0,1.0,0.0,1.0,1.0,364.8829238954931,2.0,1.0,phase_1,,,,,,,,,,,,,blue,cross
0.0,8.0,0.0,1.0,1.0,1.0,345.8038710523397,2.0,1.0,phase_1,,,,,,,,,,,,,cyan,I
25.0,5.0,1.0,1.0,1.0,1.0,348.7377520650625,2.0,1.0,phase_1,,,,,,,,,,,,,yellow,flipped triangle
46.0,1.0,1.0,0.0,2.0,2.0,360.2956309914589,2.0,1.0,phase_1,,,,,,,,,,,,,blue,cross
99.0,6.0,2.0,1.0,1.0,1.0,278.8026260677725,2.0,1.0,phase_1,,,,,,,,,,,,,green,circle
98.0,6.0,2.0,1.0,2.0,2.0,344.5603870786726,2.0,1.0,phase_1,,,,,,,,,,,,,green,circle
45.0,1.0,1.0,0.0,2.0,2.0,383.6342499125749,2.0,1.0,phase_1,,,,,,,,,,,,,blue,cross
419.0,8.0,4.0,1.0,4.0,4.0,405.7931860443204,2.0,1.0,phase_1,,,,,,,,,,,,,cyan,I
0.0,7.0,0.0,1.0,3.0,3.0,402.0147258415818,2.0,1.0,phase_1,,,,,,,,,,,,,magenta,hexagon
55.0,1.0,1.0,0.0,1.0,1.0,333.5937529336661,2.0,1.0,phase_1,,,,,,,,,,,,,blue,cross
90.0,6.0,2.0,1.0,1.0,1.0,330.6490110699087,2.0,1.0,phase_1,,,,,,,,,,,,,green,circle
190.0,7.0,3.0,1.0,4.0,4.0,390.3054238762706,2.0,1.0,phase_1,,,,,,,,,,,,,magenta,hexagon
215.0,7.0,3.0,1.0,3.0,3.0,364.9143839720636,2.0,1.0,phase_1,,,,,,,,,,,,,magenta,hexagon
0.0,3.0,0.0,0.0,3.0,3.0,417.5763358362019,2.0,1.0,phase_1,,,,,,,,,,,,,gray,diamond
49.0,5.0,1.0,1.0,1.0,1.0,332.6493790373206,2.0,1.0,phase_1,,,,,,,,,,,,,yellow,flipped triangle
0.0,5.0,0.0,1.0,4.0,4.0,360.5226820800453,2.0,1.0,phase_1,,,,,,,,,,,,,yellow,flipped triangle
390.0,4.0,4.0,0.0,4.0,4.0,376.5149940736592,2.0,1.0,phase_1,,,,,,,,,,,,,orange,triangle
45.0,5.0,1.0,1.0,3.0,3.0,361.6606930736452,2.0,1.0,phase_1,,,,,,,,,,,,,yellow,flipped triangle
42.0,5.0,1.0,1.0,2.0,2.0,430.9377560857683,2.0,1.0,phase_1,,,,,,,,,,,,,yellow,flipped triangle
0.0,8.0,0.0,1.0,3.0,3.0,462.9129560198635,2.0,1.0,phase_1,,,,,,,,,,,,,cyan,I
0.0,6.0,0.0,1.0,1.0,1.0,336.119727930054,2.0,1.0,phase_1,,,,,,,,,,,,,green,circle
424.0,4.0,4.0,0.0,1.0,1.0,365.6938339117914,2.0,1.0,phase_1,,,,,,,,,,,,,orange,triangle
403.0,4.0,4.0,0.0,4.0,4.0,378.6176480352878,2.0,1.0,phase_1,,,,,,,,,,,,,orange,triangle
0.0,7.0,0.0,1.0,1.0,1.0,392.9713249672204,3.0,1.0,phase_1,,,,,,,,,,,,,magenta,hexagon
420.0,4.0,4.0,0.0,4.0,4.0,312.3768509831279,3.0,1.0,phase_1,,,,,,,,,,,,,orange,triangle
379.0,4.0,4.0,0.0,4.0,4.0,348.1805638875812,3.0,1.0,phase_1,,,,,,,,,,,,,orange,triangle
0.0,6.0,0.0,1.0,3.0,3.0,383.028841111809,3.0,1.0,phase_1,,,,,,,,,,,,,green,circle
217.0,3.0,3.0,0.0,2.0,2.0,331.5163790248334,3.0,1.0,phase_1,,,,,,,,,,,,,gray,diamond
204.0,7.0,3.0,1.0,2.0,2.0,329.6121440362185,3.0,1.0,phase_1,,,,,,,,,,,,,magenta,hexagon
400.0,8.0,4.0,1.0,3.0,3.0,334.3958489131182,3.0,1.0,phase_1,,,,,,,,,,,,,cyan,I
111.0,2.0,2.0,0.0,2.0,2.0,308.0112840980291,3.0,1.0,phase_1,,,,,,,,,,,,,white,square
0.0,6.0,0.0,1.0,2.0,2.0,328.9733990095556,3.0,1.0,phase_1,,,,,,,,,,,,,green,circle
412.0,8.0,4.0,1.0,2.0,2.0,332.6247010845691,3.0,1.0,phase_1,,,,,,,,,,,,,cyan,I
62.0,5.0,1.0,1.0,3.0,3.0,335.8141609933227,3.0,1.0,phase_1,,,,,,,,,,,,,yellow,flipped triangle
42.0,5.0,1.0,1.0,3.0,3.0,327.018388081342,3.0,1.0,phase_1,,,,,,,,,,,,,yellow,flipped triangle
424.0,4.0,4.0,0.0,4.0,4.0,586.4447560161352,3.0,1.0,phase_1,,,,,,,,,,,,,orange,triangle
382.0,8.0,4.0,1.0,1.0,1.0,328.8826420903206,3.0,1.0,phase_1,,,,,,,,,,,,,cyan,I
217.0,7.0,3.0,1.0,3.0,3.0,370.4703981056809,3.0,1.0,phase_1,,,,,,,,,,,,,magenta,hexagon
193.0,3.0,3.0,0.0,1.0,1.0,353.5799749661237,3.0,1.0,phase_1,,,,,,,,,,,,,gray,diamond
109.0,2.0,2.0,0.0,3.0,3.0,326.0227909777313,3.0,1.0,phase_1,,,,,,,,,,,,,white,square
113.0,6.0,2.0,1.0,2.0,2.0,403.0122770927846,3.0,1.0,phase_1,,,,,,,,,,,,,green,circle
0.0,7.0,0.0,1.0,3.0,3.0,353.0712181236595,3.0,1.0,phase_1,,,,,,,,,,,,,magenta,hexagon
404.0,8.0,4.0,1.0,4.0,4.0,355.5997719522565,3.0,1.0,phase_1,,,,,,,,,,,,,cyan,I
75.0,6.0,2.0,1.0,3.0,3.0,337.3194742016494,3.0,1.0,phase_1,,,,,,,,,,,,,green,circle
102.0,2.0,2.0,0.0,1.0,1.0,356.5210371743887,3.0,1.0,phase_1,,,,,,,,,,,,,white,square
74.0,5.0,1.0,1.0,4.0,4.0,352.13014902547,3.0,1.0,phase_1,,,,,,,,,,,,,yellow,flipped triangle
72.0,5.0,1.0,1.0,3.0,3.0,350.1706190872937,3.0,1.0,phase_1,,,,,,,,,,,,,yellow,flipped triangle
0.0,6.0,0.0,1.0,3.0,3.0,369.6259050630033,3.0,1.0,phase_1,,,,,,,,,,,,,green,circle
0.0,5.0,0.0,1.0,1.0,1.0,472.3603997845202,3.0,1.0,phase_1,,,,,,,,,,,,,yellow,flipped triangle
200.0,3.0,3.0,0.0,1.0,1.0,308.8045450858772,3.0,1.0,phase_1,,,,,,,,,,,,,gray,diamond
28.0,1.0,1.0,0.0,4.0,4.0,353.7071850150823,3.0,1.0,phase_1,,,,,,,,,,,,,blue,cross
71.0,5.0,1.0,1.0,1.0,1.0,334.2734321486205,3.0,1.0,phase_1,,,,,,,,,,,,,yellow,flipped triangle
0.0,2.0,0.0,0.0,4.0,4.0,451.7554109916091,3.0,1.0,phase_1,,,,,,,,,,,,,white,square
208.0,7.0,3.0,1.0,4.0,4.0,337.0945239439606,3.0,1.0,phase_1,,,,,,,,,,,,,magenta,hexagon
417.0,8.0,4.0,1.0,4.0,4.0,346.4807281270623,3.0,1.0,phase_1,,,,,,,,,,,,,cyan,I
0.0,6.0,0.0,1.0,3.0,3.0,362.6047170255333,3.0,1.0,phase_1,,,,,,,,,,,,,green,circle
0.0,3.0,0.0,0.0,3.0,3.0,355.5317299906164,3.0,1.0,phase_1,,,,,,,,,,,,,gray,diamond
0.0,8.0,0.0,1.0,3.0,3.0,307.6144559308886,3.0,1.0,phase_1,,,,,,,,,,,,,cyan,I
179.0,7.0,3.0,1.0,4.0,4.0,333.3369649481028,3.0,1.0,phase_1,,,,,,,,,,,,,magenta,hexagon
42.0,5.0,1.0,1.0,2.0,2.0,313.4214610327035,3.0,1.0,phase_1,,,,,,,,,,,,,yellow,flipped triangle
63.0,1.0,1.0,0.0,3.0,3.0,305.7793260086328,3.0,1.0,phase_1,,,,,,,,,,,,,blue,cross
125.0,6.0,2.0,1.0,2.0,2.0,374.3307660333812,3.0,1.0,phase_1,,,,,,,,,,,,,green,circle
45.0,5.0,1.0,1.0,3.0,3.0,314.3304130062461,3.0,1.0,phase_1,,,,,,,,,,,,,yellow,flipped triangle
180.0,7.0,3.0,1.0,2.0,2.0,340.9028619062155,3.0,1.0,phase_1,,,,,,,,,,,,,magenta,hexagon
0.0,7.0,0.0,1.0,2.0,2.0,297.4582540336996,3.0,1.0,phase_1,,,,,,,,,,,,,magenta,hexagon
84.0,6.0,2.0,1.0,3.0,3.0,334.0338319540024,3.0,1.0,phase_1,,,,,,,,,,,,,green,circle
0.0,2.0,0.0,0.0,3.0,3.0,324.293915880844,3.0,1.0,phase_1,,,,,,,,,,,,,white,square
191.0,7.0,3.0,1.0,2.0,2.0,323.8257609773427,3.0,2.0,phase_1,,,,,,,,,,,,,magenta,hexagon
0.0,2.0,0.0,0.0,2.0,2.0,296.4281421154737,3.0,1.0,phase_1,,,,,,,,,,,,,white,square
190.0,3.0,3.0,0.0,4.0,4.0,353.074740152806,3.0,1.0,phase_1,,,,,,,,,,,,,gray,diamond
0.0,8.0,0.0,1.0,2.0,2.0,289.4446421414614,3.0,1.0,phase_1,,,,,,,,,,,,,cyan,I
0.0,6.0,0.0,1.0,2.0,2.0,454.4034299906343,3.0,1.0,phase_1,,,,,,,,,,,,,green,circle
399.0,4.0,4.0,0.0,2.0,2.0,293.6891869176179,3.0,1.0,phase_1,,,,,,,,,,,,,orange,triangle
74.0,1.0,1.0,0.0,4.0,4.0,393.6359689105302,3.0,1.0,phase_1,,,,,,,,,,,,,blue,cross
0.0,1.0,0.0,0.0,4.0,4.0,310.273844981566,3.0,1.0,phase_1,,,,,,,,,,,,,blue,cross
119.0,6.0,2.0,1.0,3.0,3.0,353.5491609945893,3.0,1.0,phase_1,,,,,,,,,,,,,green,circle
385.0,4.0,4.0,0.0,4.0,4.0,381.6225819755345,3.0,1.0,phase_1,,,,,,,,,,,,,orange,triangle
55.0,5.0,1.0,1.0,2.0,2.0,301.788852084428,3.0,1.0,phase_1,,,,,,,,,,,,,yellow,flipped triangle
111.0,6.0,2.0,1.0,3.0,3.0,354.5747629832476,3.0,1.0,phase_1,,,,,,,,,,,,,green,circle
375.0,8.0,4.0,1.0,4.0,4.0,365.1647989172488,3.0,1.0,phase_1,,,,,,,,,,,,,cyan,I
406.0,8.0,4.0,1.0,2.0,2.0,328.0080480035394,3.0,1.0,phase_1,,,,,,,,,,,,,cyan,I
83.0,6.0,2.0,1.0,1.0,1.0,550.3299781121314,3.0,1.0,phase_1,,,,,,,,,,,,,green,circle
0.0,8.0,0.0,1.0,2.0,2.0,339.6780320908874,3.0,1.0,phase_1,,,,,,,,,,,,,cyan,I
74.0,1.0,1.0,0.0,3.0,3.0,335.1623208727687,3.0,1.0,phase_1,,,,,,,,,,,,,blue,cross
54.0,5.0,1.0,1.0,2.0,2.0,339.6482148673385,3.0,1.0,phase_1,,,,,,,,,,,,,yellow,flipped triangle
220.0,3.0,3.0,0.0,2.0,2.0,314.9026921018958,3.0,1.0,phase_1,,,,,,,,,,,,,gray,diamond
412.0,4.0,4.0,0.0,4.0,4.0,372.2690751310438,3.0,1.0,phase_1,,,,,,,,,,,,,orange,triangle
0.0,2.0,0.0,0.0,3.0,3.0,348.2886250130832,3.0,1.0,phase_1,,,,,,,,,,,,,white,square
117.0,2.0,2.0,0.0,1.0,1.0,526.4480938203633,3.0,1.0,phase_1,,,,,,,,,,,,,white,square
0.0,7.0,0.0,1.0,1.0,1.0,405.4483820218593,3.0,1.0,phase_1,,,,,,,,,,,,,magenta,hexagon
30.0,1.0,1.0,0.0,4.0,4.0,363.2176320534199,3.0,1.0,phase_1,,,,,,,,,,,,,blue,cross
36.0,1.0,1.0,0.0,4.0,4.0,317.0269129332155,3.0,1.0,phase_1,,,,,,,,,,,,,blue,cross
114.0,2.0,2.0,0.0,1.0,1.0,323.6057199537754,3.0,1.0,phase_1,,,,,,,,,,,,,white,square
206.0,7.0,3.0,1.0,3.0,3.0,318.1239878758788,3.0,1.0,phase_1,,,,,,,,,,,,,magenta,hexagon
64.0,1.0,1.0,0.0,2.0,2.0,332.2699819691479,3.0,1.0,phase_1,,,,,,,,,,,,,blue,cross
40.0,5.0,1.0,1.0,2.0,2.0,353.708493988961,3.0,1.0,phase_1,,,,,,,,,,,,,yellow,flipped triangle
422.0,4.0,4.0,0.0,3.0,3.0,358.660503057763,3.0,1.0,phase_1,,,,,,,,,,,,,orange,triangle
211.0,3.0,3.0,0.0,2.0,2.0,331.8259608931839,3.0,1.0,phase_1,,,,,,,,,,,,,gray,diamond
415.0,8.0,4.0,1.0,2.0,2.0,357.7784390654415,3.0,1.0,phase_1,,,,,,,,,,,,,cyan,I
79.0,6.0,2.0,1.0,4.0,4.0,348.5715109854936,3.0,1.0,phase_1,,,,,,,,,,,,,green,circle
0.0,4.0,0.0,0.0,3.0,3.0,328.6834610626101,3.0,1.0,phase_1,,,,,,,,,,,,,orange,triangle
0.0,2.0,0.0,0.0,3.0,3.0,332.6574079692364,3.0,1.0,phase_1,,,,,,,,,,,,,white,square
379.0,4.0,4.0,0.0,1.0,1.0,345.4422170761972,3.0,1.0,phase_1,,,,,,,,,,,,,orange,triangle
69.0,5.0,1.0,1.0,2.0,2.0,340.8115180209279,3.0,1.0,phase_1,,,,,,,,,,,,,yellow,flipped triangle
0.0,8.0,0.0,1.0,4.0,4.0,292.1662828885019,3.0,1.0,phase_1,,,,,,,,,,,,,cyan,I
59.0,1.0,1.0,0.0,2.0,2.0,293.1093689985573,3.0,1.0,phase_1,,,,,,,,,,,,,blue,cross
25.0,1.0,1.0,0.0,4.0,4.0,324.4493210222572,3.0,1.0,phase_1,,,,,,,,,,,,,blue,cross
80.0,2.0,2.0,0.0,1.0,1.0,584.9606001283973,3.0,1.0,phase_1,,,,,,,,,,,,,white,square
412.0,8.0,4.0,1.0,4.0,4.0,299.3746518623084,3.0,1.0,phase_1,,,,,,,,,,,,,cyan,I
190.0,3.0,3.0,0.0,3.0,3.0,320.4001258127391,3.0,1.0,phase_1,,,,,,,,,,,,,gray,diamond
0.0,3.0,0.0,0.0,4.0,4.0,528.6304638721049,3.0,1.0,phase_1,,,,,,,,,,,,,gray,diamond
94.0,6.0,2.0,1.0,2.0,2.0,420.846982859075,3.0,1.0,phase_1,,,,,,,,,,,,,green,circle
390.0,8.0,4.0,1.0,3.0,3.0,486.138226930052,3.0,1.0,phase_1,,,,,,,,,,,,,cyan,I
25.0,1.0,1.0,0.0,1.0,1.0,582.2635879740119,3.0,1.0,phase_1,,,,,,,,,,,,,blue,cross
222.0,3.0,3.0,0.0,4.0,4.0,329.6808011364192,3.0,1.0,phase_1,,,,,,,,,,,,,gray,diamond
0.0,2.0,0.0,0.0,3.0,3.0,414.6870980039239,3.0,1.0,phase_1,,,,,,,,,,,,,white,square
110.0,6.0,2.0,1.0,2.0,2.0,356.1820760369301,3.0,1.0,phase_1,,,,,,,,,,,,,green,circle
71.0,5.0,1.0,1.0,3.0,3.0,320.825524860993,3.0,1.0,phase_1,,,,,,,,,,,,,yellow,flipped triangle
94.0,2.0,2.0,0.0,3.0,3.0,316.9050600845366,3.0,1.0,phase_1,,,,,,,,,,,,,white,square
0.0,4.0,0.0,0.0,3.0,3.0,359.2557881493121,3.0,1.0,phase_1,,,,,,,,,,,,,orange,triangle
54.0,5.0,1.0,1.0,2.0,2.0,469.1653759218752,3.0,1.0,phase_1,,,,,,,,,,,,,yellow,flipped triangle
52.0,5.0,1.0,1.0,1.0,1.0,320.6881999503821,3.0,1.0,phase_1,,,,,,,,,,,,,yellow,flipped triangle
425.0,8.0,4.0,1.0,4.0,4.0,445.9842559881508,3.0,1.0,phase_1,,,,,,,,,,,,,cyan,I
60.0,5.0,1.0,1.0,1.0,1.0,283.2960621453821,4.0,1.0,phase_1,,,,,,,,,,,,,yellow,flipped triangle
424.0,8.0,4.0,1.0,1.0,1.0,269.2760119680315,4.0,1.0,phase_1,,,,,,,,,,,,,cyan,I
62.0,5.0,1.0,1.0,1.0,1.0,243.2647331152111,4.0,1.0,phase_1,,,,,,,,,,,,,yellow,flipped triangle
0.0,4.0,0.0,0.0,3.0,3.0,262.0418749283999,4.0,1.0,phase_1,,,,,,,,,,,,,orange,triangle
30.0,1.0,1.0,0.0,4.0,4.0,284.6687929704785,4.0,1.0,phase_1,,,,,,,,,,,,,blue,cross
214.0,3.0,3.0,0.0,1.0,1.0,226.1405729223042,4.0,1.0,phase_1,,,,,,,,,,,,,gray,diamond
0.0,3.0,0.0,0.0,4.0,4.0,348.5238838475197,4.0,2.0,phase_1,,,,,,,,,,,,,gray,diamond
407.0,8.0,4.0,1.0,1.0,1.0,329.3557171709835,4.0,1.0,phase_1,,,,,,,,,,,,,cyan,I
399.0,8.0,4.0,1.0,2.0,2.0,331.3501339871436,4.0,1.0,phase_1,,,,,,,,,,,,,cyan,I
64.0,5.0,1.0,1.0,2.0,2.0,343.5256569646299,4.0,1.0,phase_1,,,,,,,,,,,,,yellow,flipped triangle
125.0,2.0,2.0,0.0,1.0,1.0,246.8904131092131,4.0,1.0,phase_1,,,,,,,,,,,,,white,square
0.0,6.0,0.0,1.0,1.0,1.0,288.5545690078288,4.0,1.0,phase_1,,,,,,,,,,,,,green,circle
180.0,3.0,3.0,0.0,2.0,2.0,375.9823020081967,4.0,1.0,phase_1,,,,,,,,,,,,,gray,diamond
62.0,5.0,1.0,1.0,4.0,4.0,340.4775918461382,4.0,1.0,phase_1,,,,,,,,,,,,,yellow,flipped triangle
107.0,2.0,2.0,0.0,4.0,4.0,343.2458958122879,4.0,1.0,phase_1,,,,,,,,,,,,,white,square
0.0,8.0,0.0,1.0,4.0,4.0,298.6504358705133,4.0,1.0,phase_1,,,,,,,,,,,,,cyan,I
62.0,1.0,1.0,0.0,3.0,3.0,322.0239959191531,4.0,1.0,phase_1,,,,,,,,,,,,,blue,cross
107.0,6.0,2.0,1.0,1.0,1.0,300.957967992872,4.0,1.0,phase_1,,,,,,,,,,,,,green,circle
36.0,5.0,1.0,1.0,4.0,4.0,356.210057856515,4.0,1.0,phase_1,,,,,,,,,,,,,yellow,flipped triangle
69.0,1.0,1.0,0.0,1.0,1.0,288.0051149986684,4.0,1.0,phase_1,,,,,,,,,,,,,blue,cross
101.0,2.0,2.0,0.0,2.0,2.0,362.6403918024152,4.0,1.0,phase_1,,,,,,,,,,,,,white,square
72.0,1.0,1.0,0.0,1.0,1.0,337.8476889338344,4.0,1.0,phase_1,,,,,,,,,,,,,blue,cross
203.0,3.0,3.0,0.0,3.0,3.0,350.4777071066201,4.0,1.0,phase_1,,,,,,,,,,,,,gray,diamond
181.0,3.0,3.0,0.0,1.0,1.0,369.4351650774479,4.0,1.0,phase_1,,,,,,,,,,,,,gray,diamond
214.0,3.0,3.0,0.0,3.0,3.0,311.1416569445282,4.0,1.0,phase_1,,,,,,,,,,,,,gray,diamond
107.0,6.0,2.0,1.0,2.0,2.0,341.4475619792938,4.0,1.0,phase_1,,,,,,,,,,,,,green,circle
384.0,4.0,4.0,0.0,1.0,1.0,280.7093551382422,4.0,1.0,phase_1,,,,,,,,,,,,,orange,triangle
181.0,7.0,3.0,1.0,1.0,1.0,283.1493611447513,4.0,1.0,phase_1,,,,,,,,,,,,,magenta,hexagon
124.0,6.0,2.0,1.0,4.0,4.0,329.5544169377535,4.0,1.0,phase_1,,,,,,,,,,,,,green,circle
90.0,2.0,2.0,0.0,3.0,3.0,292.9552979767322,4.0,1.0,phase_1,,,,,,,,,,,,,white,square
182.0,7.0,3.0,1.0,2.0,2.0,336.6295041050762,4.0,1.0,phase_1,,,,,,,,,,,,,magenta,hexagon
109.0,6.0,2.0,1.0,4.0,4.0,336.078436113894,4.0,1.0,phase_1,,,,,,,,,,,,,green,circle
382.0,4.0,4.0,0.0,4.0,4.0,356.8444149568677,4.0,1.0,phase_1,,,,,,,,,,,,,orange,triangle
49.0,1.0,1.0,0.0,4.0,4.0,360.9225780237466,4.0,1.0,phase_1,,,,,,,,,,,,,blue,cross
395.0,8.0,4.0,1.0,4.0,4.0,285.7628730125725,4.0,1.0,phase_1,,,,,,,,,,,,,cyan,I
0.0,3.0,0.0,0.0,1.0,1.0,315.5459188856184,4.0,1.0,phase_1,,,,,,,,,,,,,gray,diamond
404.0,8.0,4.0,1.0,1.0,1.0,312.4064749572426,4.0,1.0,phase_1,,,,,,,,,,,,,cyan,I
0.0,4.0,0.0,0.0,1.0,1.0,315.6493660062551,4.0,1.0,phase_1,,,,,,,,,,,,,orange,triangle
206.0,3.0,3.0,0.0,3.0,3.0,343.8573910389095,4.0,1.0,phase_1,,,,,,,,,,,,,gray,diamond
113.0,2.0,2.0,0.0,1.0,1.0,286.2456168513745,4.0,1.0,phase_1,,,,,,,,,,,,,white,square
222.0,7.0,3.0,1.0,1.0,1.0,279.7813198994845,4.0,1.0,phase_1,,,,,,,,,,,,,magenta,hexagon
26.0,5.0,1.0,1.0,4.0,4.0,279.567755991593,4.0,1.0,phase_1,,,,,,,,,,,,,yellow,flipped triangle
182.0,3.0,3.0,0.0,4.0,4.0,260.4079460725188,4.0,1.0,phase_1,,,,,,,,,,,,,gray,diamond
0.0,7.0,0.0,1.0,2.0,2.0,486.9071310386061,4.0,1.0,phase_1,,,,,,,,,,,,,magenta,hexagon
206.0,3.0,3.0,0.0,4.0,4.0,322.7946020197123,4.0,1.0,phase_1,,,,,,,,,,,,,gray,diamond
391.0,8.0,4.0,1.0,2.0,2.0,289.339005947113,4.0,1.0,phase_1,,,,,,,,,,,,,cyan,I
203.0,7.0,3.0,1.0,4.0,4.0,354.6155630610883,4.0,2.0,phase_1,,,,,,,,,,,,,magenta,hexagon
196.0,7.0,3.0,1.0,4.0,4.0,353.7088520824909,4.0,1.0,phase_1,,,,,,,,,,,,,magenta,hexagon
412.0,4.0,4.0,0.0,1.0,1.0,406.0791418887675,4.0,1.0,phase_1,,,,,,,,,,,,,orange,triangle
0.0,7.0,0.0,1.0,3.0,3.0,329.5287061482668,4.0,1.0,phase_1,,,,,,,,,,,,,magenta,hexagon
0.0,5.0,0.0,1.0,4.0,4.0,381.3950358889997,4.0,1.0,phase_1,,,,,,,,,,,,,yellow,flipped triangle
208.0,3.0,3.0,0.0,3.0,3.0,354.1272161528468,4.0,1.0,phase_1,,,,,,,,,,,,,gray,diamond
420.0,8.0,4.0,1.0,3.0,3.0,348.7844939809292,4.0,1.0,phase_1,,,,,,,,,,,,,cyan,I
406.0,8.0,4.0,1.0,2.0,2.0,427.5684100575745,4.0,1.0,phase_1,,,,,,,,,,,,,cyan,I
405.0,4.0,4.0,0.0,3.0,3.0,327.2031059022993,4.0,1.0,phase_1,,,,,,,,,,,,,orange,triangle
99.0,2.0,2.0,0.0,1.0,1.0,319.0548860002309,4.0,1.0,phase_1,,,,,,,,,,,,,white,square
99.0,2.0,2.0,0.0,1.0,1.0,568.210924975574,4.0,1.0,phase_1,,,,,,,,,,,,,white,square
80.0,6.0,2.0,1.0,3.0,3.0,286.772197810933,4.0,1.0,phase_1,,,,,,,,,,,,,green,circle
190.0,7.0,3.0,1.0,3.0,3.0,331.6948749125004,4.0,1.0,phase_1,,,,,,,,,,,,,magenta,hexagon
28.0,5.0,1.0,1.0,3.0,3.0,319.6756769903004,4.0,1.0,phase_1,,,,,,,,,,,,,yellow,flipped triangle
120.0,6.0,2.0,1.0,1.0,1.0,242.6555790007114,4.0,1.0,phase_1,,,,,,,,,,,,,green,circle
33.0,1.0,1.0,0.0,1.0,1.0,345.05408979021007,4.0,1.0,phase_1,,,,,,,,,,,,,blue,cross
75.0,2.0,2.0,0.0,4.0,4.0,295.8975790534168,4.0,1.0,phase_1,,,,,,,,,,,,,white,square
383.0,8.0,4.0,1.0,1.0,1.0,336.8075971957296,4.0,1.0,phase_1,,,,,,,,,,,,,cyan,I
210.0,7.0,3.0,1.0,2.0,2.0,348.492702934891,4.0,1.0,phase_1,,,,,,,,,,,,,magenta,hexagon
0.0,4.0,0.0,0.0,3.0,3.0,291.7386509943753,4.0,1.0,phase_1,,,,,,,,,,,,,orange,triangle
206.0,7.0,3.0,1.0,3.0,3.0,311.6436870768666,4.0,1.0,phase_1,,,,,,,,,,,,,magenta,hexagon
39.0,5.0,1.0,1.0,3.0,3.0,300.8929910138249,4.0,1.0,phase_1,,,,,,,,,,,,,yellow,flipped triangle
0.0,3.0,0.0,0.0,1.0,1.0,280.6219400372356,4.0,1.0,phase_1,,,,,,,,,,,,,gray,diamond
33.0,5.0,1.0,1.0,1.0,1.0,340.5598688405007,4.0,1.0,phase_1,,,,,,,,,,,,,yellow,flipped triangle
0.0,3.0,0.0,0.0,3.0,3.0,340.2762031182647,4.0,1.0,phase_1,,,,,,,,,,,,,gray,diamond
197.0,3.0,3.0,0.0,1.0,1.0,294.993822928518,4.0,1.0,phase_1,,,,,,,,,,,,,gray,diamond
84.0,6.0,2.0,1.0,2.0,2.0,267.2963310033083,4.0,1.0,phase_1,,,,,,,,,,,,,green,circle
99.0,6.0,2.0,1.0,3.0,3.0,346.2344838771969,4.0,1.0,phase_1,,,,,,,,,,,,,green,circle
90.0,2.0,2.0,0.0,4.0,4.0,420.8370051346719,4.0,1.0,phase_1,,,,,,,,,,,,,white,square
191.0,3.0,3.0,0.0,3.0,3.0,296.6615729965269,4.0,1.0,phase_1,,,,,,,,,,,,,gray,diamond
175.0,7.0,3.0,1.0,1.0,1.0,304.9990159925073,4.0,1.0,phase_1,,,,,,,,,,,,,magenta,hexagon
0.0,2.0,0.0,0.0,1.0,1.0,349.7655261307955,4.0,1.0,phase_1,,,,,,,,,,,,,white,square
83.0,2.0,2.0,0.0,3.0,3.0,321.4363069273531,4.0,1.0,phase_1,,,,,,,,,,,,,white,square
185.0,7.0,3.0,1.0,1.0,1.0,301.3976840302348,4.0,1.0,phase_1,,,,,,,,,,,,,magenta,hexagon
417.0,4.0,4.0,0.0,2.0,2.0,353.7312110420316,4.0,1.0,phase_1,,,,,,,,,,,,,orange,triangle
224.0,3.0,3.0,0.0,2.0,2.0,367.7715109661221,4.0,1.0,phase_1,,,,,,,,,,,,,gray,diamond
46.0,5.0,1.0,1.0,2.0,2.0,361.2414768431335,4.0,1.0,phase_1,,,,,,,,,,,,,yellow,flipped triangle
0.0,5.0,0.0,1.0,4.0,4.0,360.4440118651837,4.0,1.0,phase_1,,,,,,,,,,,,,yellow,flipped triangle
185.0,3.0,3.0,0.0,3.0,3.0,276.665325043723,4.0,1.0,phase_1,,,,,,,,,,,,,gray,diamond
419.0,4.0,4.0,0.0,1.0,1.0,295.8139372058213,4.0,1.0,phase_1,,,,,,,,,,,,,orange,triangle
186.0,3.0,3.0,0.0,2.0,2.0,311.3065068610012,4.0,1.0,phase_1,,,,,,,,,,,,,gray,diamond
195.0,7.0,3.0,1.0,2.0,2.0,401.4829189982265,4.0,1.0,phase_1,,,,,,,,,,,,,magenta,hexagon
383.0,4.0,4.0,0.0,3.0,3.0,351.4132769778371,4.0,1.0,phase_1,,,,,,,,,,,,,orange,triangle
384.0,8.0,4.0,1.0,3.0,3.0,364.1728879883885,4.0,1.0,phase_1,,,,,,,,,,,,,cyan,I
99.0,6.0,2.0,1.0,1.0,1.0,287.9526179749518,4.0,1.0,phase_1,,,,,,,,,,,,,green,circle
92.0,6.0,2.0,1.0,3.0,3.0,390.2912919875234,4.0,1.0,phase_1,,,,,,,,,,,,,green,circle
0.0,5.0,0.0,1.0,3.0,3.0,498.6782090272754,4.0,1.0,phase_1,,,,,,,,,,,,,yellow,flipped triangle
30.0,5.0,1.0,1.0,2.0,2.0,300.7403931114822,4.0,1.0,phase_1,,,,,,,,,,,,,yellow,flipped triangle
55.0,5.0,1.0,1.0,3.0,3.0,316.6042438242584,4.0,1.0,phase_1,,,,,,,,,,,,,yellow,flipped triangle
399.0,8.0,4.0,1.0,1.0,1.0,377.4377589579671,4.0,1.0,phase_1,,,,,,,,,,,,,cyan,I
0.0,6.0,0.0,1.0,4.0,4.0,299.2126571480185,4.0,1.0,phase_1,,,,,,,,,,,,,green,circle
395.0,4.0,4.0,0.0,3.0,3.0,305.6607781909406,4.0,1.0,phase_1,,,,,,,,,,,,,orange,triangle
25.0,5.0,1.0,1.0,4.0,4.0,292.1613459475338,4.0,1.0,phase_1,,,,,,,,,,,,,yellow,flipped triangle
203.0,3.0,3.0,0.0,2.0,2.0,284.867234993726,4.0,1.0,phase_1,,,,,,,,,,,,,gray,diamond
0.0,3.0,3.0,0.0,5.0,5.0,420.0946080964058,1.0,1.0,phase_2,go,250.0,250.0,1.0,,,,,,,,,gray,diamond
0.0,5.0,1.0,1.0,6.0,6.0,236.5862508304417,1.0,1.0,phase_2,stop,250.0,250.0,3.0,,,,,,,,,yellow,flipped triangle
0.0,4.0,4.0,0.0,5.0,5.0,258.6278959643096,1.0,1.0,phase_2,go,250.0,200.0,1.0,,,,,,,,,orange,triangle
0.0,7.0,3.0,1.0,6.0,6.0,242.7846970967948,1.0,1.0,phase_2,stop,250.0,200.0,3.0,,,,,,,,,magenta,hexagon
0.0,7.0,3.0,1.0,6.0,6.0,303.4589439630508,1.0,1.0,phase_2,stop,250.0,150.0,3.0,,,,,,,,,magenta,hexagon
0.0,1.0,1.0,0.0,5.0,5.0,175.6004698108881,1.0,1.0,phase_2,go,250.0,100.0,1.0,,,,,,,,,blue,cross
0.0,5.0,1.0,1.0,6.0,6.0,222.6913329213857,1.0,1.0,phase_2,stop,250.0,100.0,3.0,,,,,,,,,yellow,flipped triangle
0.0,1.0,1.0,0.0,6.0,6.0,446.7886548954993,1.0,1.0,phase_2,go,250.0,50.0,1.0,,,,,,,,,blue,cross
0.0,8.0,4.0,1.0,5.0,5.0,377.336303004995,1.0,1.0,phase_2,stop,250.0,50.0,3.0,,,,,,,,,cyan,I
0.0,6.0,2.0,1.0,5.0,5.0,327.2811479400843,1.0,1.0,phase_2,stop,200.0,50.0,3.0,,,,,,,,,green,circle
0.0,8.0,4.0,1.0,6.0,6.0,271.2600650265813,1.0,1.0,phase_2,stop,150.0,50.0,3.0,,,,,,,,,cyan,I
0.0,4.0,4.0,0.0,5.0,5.0,637.904693139717,1.0,1.0,phase_2,go,150.0,0.0,1.0,,,,,,,,,orange,triangle
0.0,5.0,1.0,1.0,5.0,0.0,0.0,1.0,1.0,phase_2,stop,150.0,0.0,4.0,,,,,,,,,yellow,flipped triangle
0.0,2.0,2.0,0.0,6.0,6.0,282.8852022066712,1.0,1.0,phase_2,go,200.0,0.0,1.0,,,,,,,,,white,square
0.0,7.0,3.0,1.0,6.0,0.0,0.0,1.0,1.0,phase_2,stop,200.0,0.0,4.0,,,,,,,,,magenta,hexagon
0.0,3.0,3.0,0.0,5.0,5.0,331.9169650785625,1.0,1.0,phase_2,go,200.0,50.0,1.0,,,,,,,,,gray,diamond
0.0,1.0,1.0,0.0,5.0,5.0,506.62174820899963,1.0,1.0,phase_2,go,200.0,50.0,1.0,,,,,,,,,blue,cross
0.0,6.0,2.0,1.0,5.0,5.0,356.1370598617941,1.0,1.0,phase_2,stop,200.0,50.0,3.0,,,,,,,,,green,circle
0.0,3.0,3.0,0.0,5.0,5.0,467.4888888839632,1.0,1.0,phase_2,go,150.0,50.0,1.0,,,,,,,,,gray,diamond
0.0,3.0,3.0,0.0,5.0,5.0,455.3752520587295,1.0,1.0,phase_2,go,150.0,50.0,1.0,,,,,,,,,gray,diamond
0.0,2.0,2.0,0.0,5.0,5.0,465.9928041510284,1.0,1.0,phase_2,go,150.0,50.0,1.0,,,,,,,,,white,square
0.0,3.0,3.0,0.0,5.0,5.0,360.4528498835861,1.0,1.0,phase_2,go,150.0,50.0,1.0,,,,,,,,,gray,diamond
0.0,2.0,2.0,0.0,6.0,6.0,527.2942997980863,1.0,1.0,phase_2,go,150.0,50.0,1.0,,,,,,,,,white,square
0.0,8.0,4.0,1.0,6.0,0.0,0.0,1.0,1.0,phase_2,stop,150.0,50.0,4.0,,,,,,,,,cyan,I
0.0,3.0,3.0,0.0,5.0,5.0,303.5203008912503,1.0,1.0,phase_2,go,150.0,100.0,1.0,,,,,,,,,gray,diamond
0.0,1.0,1.0,0.0,5.0,5.0,429.9311558715999,1.0,1.0,phase_2,go,150.0,100.0,1.0,,,,,,,,,blue,cross
0.0,1.0,1.0,0.0,5.0,5.0,343.5339739080518,1.0,1.0,phase_2,go,150.0,100.0,1.0,,,,,,,,,blue,cross
0.0,8.0,4.0,1.0,6.0,6.0,647.2132538910955,1.0,1.0,phase_2,go,150.0,100.0,1.0,,,,,,,,,cyan,I
0.0,8.0,4.0,1.0,6.0,6.0,274.3165739811957,1.0,1.0,phase_2,stop,150.0,100.0,3.0,,,,,,,,,cyan,I
0.0,6.0,2.0,1.0,5.0,0.0,0.0,1.0,1.0,phase_2,stop,150.0,50.0,4.0,,,,,,,,,green,circle
0.0,3.0,3.0,0.0,6.0,6.0,290.1978890877217,1.0,1.0,phase_2,go,200.0,50.0,1.0,,,,,,,,,gray,diamond
0.0,4.0,4.0,0.0,6.0,6.0,320.5006050411612,1.0,1.0,phase_2,go,200.0,50.0,1.0,,,,,,,,,orange,triangle
0.0,5.0,1.0,1.0,6.0,6.0,258.3505338989198,1.0,1.0,phase_2,stop,200.0,50.0,3.0,,,,,,,,,yellow,flipped triangle
0.0,2.0,2.0,0.0,6.0,6.0,417.4021799117327,1.0,1.0,phase_2,go,200.0,0.0,1.0,,,,,,,,,white,square
0.0,2.0,2.0,0.0,5.0,5.0,304.7967329621315,1.0,1.0,phase_2,go,200.0,0.0,1.0,,,,,,,,,white,square
0.0,6.0,2.0,1.0,6.0,0.0,0.0,1.0,1.0,phase_2,stop,200.0,0.0,4.0,,,,,,,,,green,circle
0.0,5.0,1.0,1.0,6.0,0.0,0.0,2.0,1.0,phase_2,stop,200.0,50.0,4.0,,,,,,,,,yellow,flipped triangle
0.0,4.0,4.0,0.0,5.0,5.0,299.809463089332,2.0,1.0,phase_2,go,200.0,100.0,1.0,,,,,,,,,orange,triangle
0.0,8.0,4.0,1.0,6.0,6.0,382.1548279374838,2.0,1.0,phase_2,go,200.0,100.0,1.0,,,,,,,,,cyan,I
0.0,1.0,1.0,0.0,6.0,6.0,442.4500640016049,2.0,1.0,phase_2,go,200.0,100.0,1.0,,,,,,,,,blue,cross
0.0,7.0,3.0,1.0,6.0,6.0,366.1658791825175,2.0,1.0,phase_2,go,200.0,100.0,1.0,,,,,,,,,magenta,hexagon
0.0,1.0,1.0,0.0,6.0,6.0,268.0780091322958,2.0,1.0,phase_2,go,200.0,100.0,1.0,,,,,,,,,blue,cross
0.0,4.0,4.0,0.0,6.0,6.0,330.0215878989547,2.0,1.0,phase_2,go,200.0,100.0,1.0,,,,,,,,,orange,triangle
0.0,7.0,3.0,1.0,5.0,5.0,339.432701934129,2.0,1.0,phase_2,go,200.0,100.0,1.0,,,,,,,,,magenta,hexagon
0.0,6.0,2.0,1.0,6.0,0.0,0.0,2.0,1.0,phase_2,stop,200.0,100.0,4.0,,,,,,,,,green,circle
0.0,5.0,1.0,1.0,5.0,5.0,258.1235978286713,2.0,1.0,phase_2,go,200.0,150.0,1.0,,,,,,,,,yellow,flipped triangle
0.0,6.0,2.0,1.0,6.0,6.0,416.588531807065,2.0,1.0,phase_2,go,200.0,150.0,1.0,,,,,,,,,green,circle
0.0,7.0,3.0,1.0,6.0,0.0,0.0,2.0,1.0,phase_2,stop,200.0,150.0,4.0,,,,,,,,,magenta,hexagon
0.0,5.0,1.0,1.0,5.0,0.0,0.0,2.0,1.0,phase_2,stop,200.0,200.0,4.0,,,,,,,,,yellow,flipped triangle
0.0,2.0,2.0,0.0,5.0,5.0,367.9473309312016,2.0,1.0,phase_2,go,250.0,200.0,1.0,,,,,,,,,white,square
0.0,8.0,4.0,1.0,5.0,0.0,0.0,2.0,1.0,phase_2,stop,250.0,200.0,4.0,,,,,,,,,cyan,I
0.0,3.0,3.0,0.0,6.0,6.0,494.9815890286118,2.0,1.0,phase_2,go,300.0,200.0,1.0,,,,,,,,,gray,diamond
0.0,1.0,1.0,0.0,6.0,6.0,390.1685560122132,2.0,1.0,phase_2,go,300.0,200.0,1.0,,,,,,,,,blue,cross
0.0,1.0,1.0,0.0,5.0,5.0,364.5693119615316,2.0,1.0,phase_2,go,300.0,200.0,1.0,,,,,,,,,blue,cross
0.0,8.0,4.0,1.0,5.0,5.0,330.2212599664926,2.0,1.0,phase_2,stop,300.0,200.0,3.0,,,,,,,,,cyan,I
0.0,7.0,3.0,1.0,6.0,6.0,332.7761229593307,2.0,1.0,phase_2,stop,250.0,200.0,3.0,,,,,,,,,magenta,hexagon
0.0,1.0,1.0,0.0,6.0,6.0,491.5526548866182,2.0,1.0,phase_2,go,250.0,150.0,1.0,,,,,,,,,blue,cross
0.0,8.0,4.0,1.0,6.0,0.0,0.0,2.0,1.0,phase_2,stop,250.0,150.0,4.0,,,,,,,,,cyan,I
0.0,5.0,1.0,1.0,6.0,0.0,0.0,2.0,1.0,phase_2,stop,250.0,200.0,4.0,,,,,,,,,yellow,flipped triangle
0.0,3.0,3.0,0.0,6.0,6.0,817.0025881845504,2.0,1.0,phase_2,go,250.0,250.0,1.0,,,,,,,,,gray,diamond
0.0,1.0,1.0,0.0,5.0,5.0,352.9325120616704,2.0,1.0,phase_2,go,250.0,250.0,1.0,,,,,,,,,blue,cross
0.0,2.0,2.0,0.0,6.0,6.0,311.1706739291549,2.0,1.0,phase_2,go,250.0,250.0,1.0,,,,,,,,,white,square
0.0,2.0,2.0,0.0,5.0,5.0,689.6502960007638,2.0,1.0,phase_2,go,250.0,250.0,1.0,,,,,,,,,white,square
0.0,6.0,2.0,1.0,6.0,0.0,0.0,2.0,1.0,phase_2,stop,250.0,250.0,4.0,,,,,,,,,green,circle
0.0,8.0,4.0,1.0,6.0,0.0,0.0,2.0,1.0,phase_2,stop,250.0,300.0,4.0,,,,,,,,,cyan,I
0.0,5.0,1.0,1.0,6.0,0.0,0.0,2.0,1.0,phase_2,stop,250.0,350.0,4.0,,,,,,,,,yellow,flipped triangle
0.0,1.0,1.0,0.0,5.0,5.0,651.3761230744421,2.0,1.0,phase_2,go,250.0,400.0,1.0,,,,,,,,,blue,cross
0.0,4.0,4.0,0.0,6.0,6.0,622.2141641192138,2.0,1.0,phase_2,go,250.0,400.0,1.0,,,,,,,,,orange,triangle
0.0,3.0,3.0,0.0,6.0,6.0,698.7390909343958,2.0,1.0,phase_2,go,250.0,400.0,1.0,,,,,,,,,gray,diamond
0.0,2.0,2.0,0.0,5.0,5.0,612.2141410596669,2.0,1.0,phase_2,go,250.0,400.0,1.0,,,,,,,,,white,square
0.0,8.0,4.0,1.0,6.0,0.0,0.0,2.0,1.0,phase_2,stop,250.0,400.0,4.0,,,,,,,,,cyan,I
0.0,7.0,3.0,1.0,6.0,0.0,0.0,2.0,1.0,phase_2,stop,250.0,450.0,4.0,,,,,,,,,magenta,hexagon
0.0,6.0,2.0,1.0,6.0,6.0,577.4262289050967,3.0,1.0,phase_2,stop,250.0,500.0,3.0,,,,,,,,,green,circle
0.0,7.0,3.0,1.0,5.0,5.0,1159.5318668987602,3.0,1.0,phase_2,go,250.0,450.0,1.0,,,,,,,,,magenta,hexagon
0.0,5.0,1.0,1.0,5.0,0.0,0.0,3.0,1.0,phase_2,stop,250.0,450.0,4.0,,,,,,,,,yellow,flipped triangle
0.0,6.0,2.0,1.0,5.0,0.0,0.0,3.0,1.0,phase_2,stop,300.0,450.0,4.0,,,,,,,,,green,circle
0.0,3.0,3.0,0.0,6.0,6.0,605.8869832195342,3.0,1.0,phase_2,go,350.0,450.0,1.0,,,,,,,,,gray,diamond
0.0,3.0,3.0,0.0,5.0,5.0,470.7597838714719,3.0,1.0,phase_2,go,350.0,450.0,1.0,,,,,,,,,gray,diamond
0.0,3.0,3.0,0.0,5.0,5.0,437.7788840793073,3.0,1.0,phase_2,go,350.0,450.0,1.0,,,,,,,,,gray,diamond
0.0,1.0,1.0,0.0,5.0,5.0,501.7282248008996,3.0,1.0,phase_2,go,350.0,450.0,1.0,,,,,,,,,blue,cross
0.0,5.0,1.0,1.0,6.0,6.0,523.7016889732331,3.0,1.0,phase_2,stop,350.0,450.0,3.0,,,,,,,,,yellow,flipped triangle
0.0,2.0,2.0,0.0,5.0,5.0,561.3565458916128,3.0,1.0,phase_2,go,350.0,400.0,1.0,,,,,,,,,white,square
0.0,1.0,1.0,0.0,5.0,5.0,524.3311231024563,3.0,1.0,phase_2,go,350.0,400.0,1.0,,,,,,,,,blue,cross
0.0,7.0,3.0,1.0,6.0,6.0,311.6712151095271,3.0,1.0,phase_2,stop,350.0,400.0,3.0,,,,,,,,,magenta,hexagon
0.0,4.0,4.0,0.0,6.0,6.0,897.9514418169856,3.0,1.0,phase_2,go,350.0,350.0,1.0,,,,,,,,,orange,triangle
0.0,6.0,2.0,1.0,5.0,5.0,367.6557820290327,3.0,1.0,phase_2,stop,350.0,350.0,3.0,,,,,,,,,green,circle
0.0,4.0,4.0,0.0,5.0,0.0,0.0,3.0,1.0,phase_2,go,300.0,350.0,5.0,,,,,,,,,orange,triangle
0.0,6.0,2.0,1.0,6.0,6.0,390.4154479969293,3.0,1.0,phase_2,stop,300.0,350.0,3.0,,,,,,,,,green,circle
0.0,8.0,4.0,1.0,5.0,0.0,0.0,3.0,1.0,phase_2,stop,300.0,300.0,4.0,,,,,,,,,cyan,I
0.0,3.0,3.0,0.0,6.0,6.0,398.9554459694773,3.0,1.0,phase_2,go,350.0,300.0,1.0,,,,,,,,,gray,diamond
0.0,3.0,3.0,0.0,6.0,6.0,461.40299108810717,3.0,1.0,phase_2,go,350.0,300.0,1.0,,,,,,,,,gray,diamond
0.0,8.0,4.0,1.0,6.0,6.0,455.4627800825983,3.0,1.0,phase_2,stop,350.0,300.0,3.0,,,,,,,,,cyan,I
0.0,5.0,1.0,1.0,6.0,0.0,0.0,3.0,1.0,phase_2,stop,350.0,250.0,4.0,,,,,,,,,yellow,flipped triangle
0.0,7.0,3.0,1.0,5.0,5.0,259.0408260002732,3.0,1.0,phase_2,go,350.0,300.0,1.0,,,,,,,,,magenta,hexagon
0.0,6.0,2.0,1.0,5.0,5.0,537.7523500937968,3.0,1.0,phase_2,go,350.0,300.0,1.0,,,,,,,,,green,circle
0.0,1.0,1.0,0.0,6.0,6.0,492.2181388828903,3.0,1.0,phase_2,go,350.0,300.0,1.0,,,,,,,,,blue,cross
0.0,8.0,4.0,1.0,5.0,5.0,434.4945880584419,3.0,1.0,phase_2,stop,350.0,300.0,3.0,,,,,,,,,cyan,I
0.0,5.0,1.0,1.0,5.0,5.0,754.8491370398551,3.0,1.0,phase_2,go,300.0,300.0,1.0,,,,,,,,,yellow,flipped triangle
0.0,7.0,3.0,1.0,5.0,5.0,395.4790940042585,3.0,1.0,phase_2,stop,300.0,300.0,3.0,,,,,,,,,magenta,hexagon
0.0,6.0,2.0,1.0,5.0,0.0,0.0,3.0,1.0,phase_2,stop,250.0,300.0,4.0,,,,,,,,,green,circle
0.0,6.0,2.0,1.0,6.0,6.0,342.8511410020292,3.0,1.0,phase_2,stop,300.0,300.0,3.0,,,,,,,,,green,circle
0.0,4.0,4.0,0.0,5.0,5.0,727.3064909968525,3.0,1.0,phase_2,go,300.0,250.0,1.0,,,,,,,,,orange,triangle
0.0,2.0,2.0,0.0,5.0,5.0,574.2086682002991,3.0,1.0,phase_2,go,300.0,250.0,1.0,,,,,,,,,white,square
0.0,6.0,2.0,1.0,5.0,0.0,0.0,3.0,1.0,phase_2,stop,300.0,250.0,4.0,,,,,,,,,green,circle
0.0,7.0,3.0,1.0,5.0,5.0,720.1764460187405,3.0,1.0,phase_2,go,350.0,250.0,1.0,,,,,,,,,magenta,hexagon
0.0,1.0,1.0,0.0,6.0,6.0,699.6646919287741,3.0,1.0,phase_2,go,350.0,250.0,1.0,,,,,,,,,blue,cross
0.0,1.0,1.0,0.0,6.0,6.0,598.1620629318058,3.0,1.0,phase_2,go,350.0,250.0,1.0,,,,,,,,,blue,cross
0.0,8.0,4.0,1.0,6.0,0.0,0.0,3.0,1.0,phase_2,stop,350.0,250.0,4.0,,,,,,,,,cyan,I
0.0,1.0,1.0,0.0,5.0,5.0,752.7014010120183,4.0,1.0,phase_2,go,350.0,300.0,1.0,,,,,,,,,blue,cross
0.0,8.0,4.0,1.0,5.0,5.0,381.3445228151977,4.0,1.0,phase_2,go,350.0,300.0,1.0,,,,,,,,,cyan,I
0.0,7.0,3.0,1.0,6.0,6.0,420.9330829326063,4.0,1.0,phase_2,go,350.0,300.0,1.0,,,,,,,,,magenta,hexagon
0.0,7.0,3.0,1.0,5.0,5.0,452.74588605389,4.0,1.0,phase_2,stop,350.0,300.0,3.0,,,,,,,,,magenta,hexagon
0.0,6.0,2.0,1.0,6.0,0.0,0.0,4.0,1.0,phase_2,stop,300.0,300.0,4.0,,,,,,,,,green,circle
0.0,2.0,2.0,0.0,5.0,5.0,402.9741589911282,4.0,1.0,phase_2,go,300.0,350.0,1.0,,,,,,,,,white,square
0.0,5.0,1.0,1.0,6.0,0.0,0.0,4.0,1.0,phase_2,stop,300.0,350.0,4.0,,,,,,,,,yellow,flipped triangle
0.0,6.0,2.0,1.0,5.0,0.0,0.0,4.0,1.0,phase_2,stop,300.0,400.0,4.0,,,,,,,,,green,circle
0.0,3.0,3.0,0.0,6.0,6.0,300.0346818007529,4.0,1.0,phase_2,go,350.0,400.0,1.0,,,,,,,,,gray,diamond
0.0,7.0,3.0,1.0,5.0,0.0,0.0,4.0,1.0,phase_2,stop,350.0,400.0,4.0,,,,,,,,,magenta,hexagon
0.0,1.0,1.0,0.0,6.0,6.0,769.2083141300827,4.0,1.0,phase_2,go,400.0,400.0,1.0,,,,,,,,,blue,cross
0.0,3.0,3.0,0.0,6.0,6.0,511.8098210077733,4.0,1.0,phase_2,go,400.0,400.0,1.0,,,,,,,,,gray,diamond
0.0,6.0,2.0,1.0,6.0,6.0,546.341918874532,4.0,1.0,phase_2,stop,400.0,400.0,3.0,,,,,,,,,green,circle
0.0,5.0,1.0,1.0,5.0,0.0,0.0,4.0,1.0,phase_2,stop,400.0,350.0,4.0,,,,,,,,,yellow,flipped triangle
0.0,1.0,1.0,0.0,5.0,5.0,592.8604372311383,4.0,1.0,phase_2,go,450.0,350.0,1.0,,,,,,,,,blue,cross
0.0,8.0,4.0,1.0,6.0,0.0,0.0,4.0,1.0,phase_2,stop,450.0,350.0,4.0,,,,,,,,,cyan,I
0.0,5.0,1.0,1.0,6.0,0.0,0.0,4.0,1.0,phase_2,stop,450.0,400.0,4.0,,,,,,,,,yellow,flipped triangle
0.0,6.0,2.0,1.0,6.0,6.0,597.9888138826936,4.0,1.0,phase_2,go,450.0,450.0,1.0,,,,,,,,,green,circle
0.0,3.0,3.0,0.0,5.0,5.0,661.3781049381942,4.0,1.0,phase_2,go,450.0,450.0,1.0,,,,,,,,,gray,diamond
0.0,3.0,3.0,0.0,6.0,6.0,667.2860018443316,4.0,1.0,phase_2,go,450.0,450.0,1.0,,,,,,,,,gray,diamond
0.0,4.0,4.0,0.0,6.0,6.0,650.3974769730121,4.0,1.0,phase_2,go,450.0,450.0,1.0,,,,,,,,,orange,triangle
0.0,3.0,3.0,0.0,6.0,6.0,562.3833748977631,4.0,1.0,phase_2,go,450.0,450.0,1.0,,,,,,,,,gray,diamond
0.0,3.0,3.0,0.0,6.0,6.0,426.251556025818,4.0,1.0,phase_2,go,450.0,450.0,1.0,,,,,,,,,gray,diamond
0.0,8.0,4.0,1.0,5.0,5.0,570.6871170550585,4.0,1.0,phase_2,stop,450.0,450.0,3.0,,,,,,,,,cyan,I
0.0,6.0,2.0,1.0,5.0,0.0,0.0,4.0,1.0,phase_2,stop,400.0,450.0,4.0,,,,,,,,,green,circle
0.0,5.0,1.0,1.0,6.0,0.0,0.0,4.0,1.0,phase_2,stop,450.0,450.0,4.0,,,,,,,,,yellow,flipped triangle
0.0,3.0,3.0,0.0,6.0,6.0,791.0859300754964,4.0,1.0,phase_2,go,450.0,500.0,1.0,,,,,,,,,gray,diamond
0.0,5.0,1.0,1.0,5.0,5.0,849.3890000972897,4.0,1.0,phase_2,go,450.0,500.0,1.0,,,,,,,,,yellow,flipped triangle
0.0,3.0,3.0,0.0,6.0,6.0,693.8586758915335,4.0,1.0,phase_2,go,450.0,500.0,1.0,,,,,,,,,gray,diamond
0.0,4.0,4.0,0.0,6.0,6.0,774.0700938738883,4.0,1.0,phase_2,go,450.0,500.0,1.0,,,,,,,,,orange,triangle
0.0,7.0,3.0,1.0,6.0,0.0,0.0,4.0,1.0,phase_2,stop,450.0,500.0,4.0,,,,,,,,,magenta,hexagon
0.0,4.0,4.0,0.0,6.0,6.0,787.8857718314976,4.0,1.0,phase_2,go,450.0,550.0,1.0,,,,,,,,,orange,triangle
0.0,2.0,2.0,0.0,6.0,6.0,643.6694378498942,4.0,1.0,phase_2,go,450.0,550.0,1.0,,,,,,,,,white,square
0.0,4.0,4.0,0.0,6.0,6.0,642.6549309398979,4.0,1.0,phase_2,go,450.0,550.0,1.0,,,,,,,,,orange,triangle
0.0,8.0,4.0,1.0,6.0,6.0,596.7698059976101,4.0,1.0,phase_2,stop,450.0,550.0,3.0,,,,,,,,,cyan,I
0.0,8.0,4.0,1.0,5.0,0.0,0.0,4.0,1.0,phase_2,stop,450.0,500.0,4.0,,,,,,,,,cyan,I
0.0,7.0,3.0,1.0,5.0,0.0,0.0,5.0,1.0,phase_2,stop,500.0,500.0,4.0,,,,,,,,,magenta,hexagon
0.0,2.0,2.0,0.0,6.0,6.0,382.1280959527939,5.0,1.0,phase_2,go,550.0,500.0,1.0,,,,,,,,,white,square
0.0,3.0,3.0,0.0,5.0,5.0,510.56233304552734,5.0,1.0,phase_2,go,550.0,500.0,1.0,,,,,,,,,gray,diamond
0.0,2.0,2.0,0.0,6.0,6.0,516.3275841623545,5.0,1.0,phase_2,go,550.0,500.0,1.0,,,,,,,,,white,square
0.0,2.0,2.0,0.0,6.0,6.0,723.8511971663684,5.0,1.0,phase_2,go,550.0,500.0,1.0,,,,,,,,,white,square
0.0,4.0,4.0,0.0,6.0,6.0,585.7310581486672,5.0,1.0,phase_2,go,550.0,500.0,1.0,,,,,,,,,orange,triangle
0.0,1.0,1.0,0.0,5.0,5.0,498.5242870170623,5.0,1.0,phase_2,go,550.0,500.0,1.0,,,,,,,,,blue,cross
0.0,7.0,3.0,1.0,5.0,5.0,504.65117604471743,5.0,1.0,phase_2,stop,550.0,500.0,3.0,,,,,,,,,magenta,hexagon
0.0,2.0,2.0,0.0,6.0,6.0,610.8402949757874,5.0,1.0,phase_2,go,500.0,500.0,1.0,,,,,,,,,white,square
0.0,3.0,3.0,0.0,6.0,6.0,450.7449909579009,5.0,1.0,phase_2,go,500.0,500.0,1.0,,,,,,,,,gray,diamond
0.0,7.0,3.0,1.0,6.0,6.0,591.2800999358296,5.0,1.0,phase_2,stop,500.0,500.0,3.0,,,,,,,,,magenta,hexagon
0.0,2.0,2.0,0.0,6.0,6.0,727.8882209211588,5.0,1.0,phase_2,go,500.0,450.0,1.0,,,,,,,,,white,square
0.0,7.0,3.0,1.0,5.0,5.0,767.31833582744,5.0,1.0,phase_2,go,500.0,450.0,1.0,,,,,,,,,magenta,hexagon
0.0,3.0,3.0,0.0,5.0,5.0,328.2457229215652,5.0,1.0,phase_2,go,500.0,450.0,1.0,,,,,,,,,gray,diamond
0.0,4.0,4.0,0.0,6.0,6.0,0.1688189804553,5.0,1.0,phase_2,go,500.0,450.0,1.0,,,,,,,,,orange,triangle
0.0,6.0,2.0,1.0,5.0,0.0,0.0,5.0,1.0,phase_2,stop,500.0,450.0,4.0,,,,,,,,,green,circle
0.0,3.0,3.0,0.0,6.0,6.0,518.8755188137293,5.0,1.0,phase_2,go,550.0,450.0,1.0,,,,,,,,,gray,diamond
0.0,2.0,2.0,0.0,5.0,5.0,499.3950119242072,5.0,1.0,phase_2,go,550.0,450.0,1.0,,,,,,,,,white,square
0.0,4.0,4.0,0.0,6.0,6.0,499.0103738382458,5.0,1.0,phase_2,go,550.0,450.0,1.0,,,,,,,,,orange,triangle
0.0,7.0,3.0,1.0,6.0,6.0,465.3300778008997,5.0,1.0,phase_2,go,550.0,450.0,1.0,,,,,,,,,magenta,hexagon
0.0,2.0,2.0,0.0,5.0,5.0,536.792297847569,5.0,1.0,phase_2,go,550.0,450.0,1.0,,,,,,,,,white,square
0.0,5.0,1.0,1.0,5.0,5.0,672.5610219873488,5.0,1.0,phase_2,stop,550.0,450.0,3.0,,,,,,,,,yellow,flipped triangle
0.0,4.0,4.0,0.0,6.0,6.0,583.804473048076,5.0,1.0,phase_2,go,500.0,450.0,1.0,,,,,,,,,orange,triangle
0.0,7.0,3.0,1.0,5.0,0.0,0.0,5.0,1.0,phase_2,stop,500.0,450.0,4.0,,,,,,,,,magenta,hexagon
0.0,2.0,2.0,0.0,6.0,6.0,750.4558758810163,5.0,1.0,phase_2,go,550.0,450.0,1.0,,,,,,,,,white,square
0.0,7.0,3.0,1.0,6.0,0.0,0.0,5.0,1.0,phase_2,stop,550.0,450.0,4.0,,,,,,,,,magenta,hexagon
0.0,4.0,4.0,0.0,6.0,6.0,670.768687967211,5.0,1.0,phase_2,go,550.0,500.0,1.0,,,,,,,,,orange,triangle
0.0,4.0,4.0,0.0,5.0,5.0,592.2805871814489,5.0,1.0,phase_2,go,550.0,500.0,1.0,,,,,,,,,orange,triangle
0.0,4.0,4.0,0.0,5.0,5.0,580.3247091826051,5.0,1.0,phase_2,go,550.0,500.0,1.0,,,,,,,,,orange,triangle
0.0,8.0,4.0,1.0,6.0,0.0,0.0,5.0,1.0,phase_2,stop,550.0,500.0,4.0,,,,,,,,,cyan,I
0.0,2.0,2.0,0.0,5.0,5.0,597.1967531368136,5.0,1.0,phase_2,go,550.0,550.0,1.0,,,,,,,,,white,square
0.0,3.0,3.0,0.0,5.0,5.0,939.0675369650126,5.0,1.0,phase_2,go,550.0,550.0,1.0,,,,,,,,,gray,diamond
0.0,3.0,3.0,0.0,5.0,5.0,710.6482880190015,5.0,1.0,phase_2,go,550.0,550.0,1.0,,,,,,,,,gray,diamond
0.0,8.0,4.0,1.0,5.0,0.0,0.0,5.0,1.0,phase_2,stop,550.0,550.0,4.0,,,,,,,,,cyan,I
0.0,3.0,3.0,0.0,5.0,5.0,843.3020869269967,5.0,1.0,phase_2,go,600.0,550.0,1.0,,,,,,,,,gray,diamond
0.0,7.0,3.0,1.0,5.0,5.0,620.6360040232539,5.0,1.0,phase_2,stop,600.0,550.0,3.0,,,,,,,,,magenta,hexagon
0.0,6.0,2.0,1.0,6.0,6.0,669.3308199755847,6.0,1.0,phase_2,stop,550.0,550.0,3.0,,,,,,,,,green,circle
0.0,4.0,4.0,0.0,6.0,6.0,299.5412771124393,6.0,1.0,phase_2,go,550.0,500.0,1.0,,,,,,,,,orange,triangle
0.0,6.0,2.0,1.0,5.0,5.0,260.0800211075693,6.0,1.0,phase_2,go,550.0,500.0,1.0,,,,,,,,,green,circle
0.0,8.0,4.0,1.0,5.0,5.0,282.7483960427344,6.0,1.0,phase_2,stop,550.0,500.0,3.0,,,,,,,,,cyan,I
0.0,3.0,3.0,0.0,6.0,6.0,297.8486989159137,6.0,1.0,phase_2,go,500.0,500.0,1.0,,,,,,,,,gray,diamond
0.0,2.0,2.0,0.0,5.0,5.0,242.383450968191,6.0,1.0,phase_2,go,500.0,500.0,1.0,,,,,,,,,white,square
0.0,7.0,3.0,1.0,6.0,6.0,424.2547759786248,6.0,1.0,phase_2,stop,500.0,500.0,3.0,,,,,,,,,magenta,hexagon
0.0,1.0,1.0,0.0,5.0,5.0,352.8859100770205,6.0,1.0,phase_2,go,500.0,450.0,1.0,,,,,,,,,blue,cross
0.0,5.0,1.0,1.0,5.0,5.0,256.7683721426874,6.0,1.0,phase_2,stop,500.0,450.0,3.0,,,,,,,,,yellow,flipped triangle
0.0,4.0,4.0,0.0,5.0,5.0,424.2562451399863,6.0,1.0,phase_2,go,450.0,450.0,1.0,,,,,,,,,orange,triangle
0.0,2.0,2.0,0.0,6.0,6.0,221.1285750381648,6.0,1.0,phase_2,go,450.0,450.0,1.0,,,,,,,,,white,square
0.0,7.0,3.0,1.0,5.0,5.0,192.3788459971547,6.0,1.0,phase_2,stop,450.0,450.0,3.0,,,,,,,,,magenta,hexagon
0.0,2.0,2.0,0.0,5.0,5.0,229.8805559985339,6.0,1.0,phase_2,go,400.0,450.0,1.0,,,,,,,,,white,square
0.0,2.0,2.0,0.0,5.0,6.0,195.3178870026022,6.0,1.0,phase_2,go,400.0,450.0,2.0,,,,,,,,,white,square
0.0,8.0,4.0,1.0,6.0,6.0,300.3077728208154,6.0,1.0,phase_2,stop,400.0,450.0,3.0,,,,,,,,,cyan,I
0.0,6.0,2.0,1.0,6.0,6.0,281.7138319369405,6.0,1.0,phase_2,stop,400.0,400.0,3.0,,,,,,,,,green,circle
0.0,5.0,1.0,1.0,6.0,6.0,237.2123568784445,6.0,1.0,phase_2,stop,400.0,350.0,3.0,,,,,,,,,yellow,flipped triangle
0.0,4.0,4.0,0.0,5.0,5.0,228.853598004207,6.0,1.0,phase_2,go,400.0,300.0,1.0,,,,,,,,,orange,triangle
0.0,3.0,3.0,0.0,5.0,5.0,282.9820900224149,6.0,1.0,phase_2,go,400.0,300.0,1.0,,,,,,,,,gray,diamond
0.0,4.0,4.0,0.0,5.0,5.0,283.3456778898835,6.0,1.0,phase_2,go,400.0,300.0,1.0,,,,,,,,,orange,triangle
0.0,4.0,4.0,0.0,5.0,5.0,225.4784111864864,6.0,1.0,phase_2,go,400.0,300.0,1.0,,,,,,,,,orange,triangle
0.0,4.0,4.0,0.0,5.0,5.0,272.851439891383,6.0,1.0,phase_2,go,400.0,300.0,1.0,,,,,,,,,orange,triangle
0.0,5.0,1.0,1.0,5.0,5.0,474.1802630014717,6.0,1.0,phase_2,stop,400.0,300.0,3.0,,,,,,,,,yellow,flipped triangle
0.0,7.0,3.0,1.0,6.0,6.0,358.028023969382,6.0,1.0,phase_2,stop,350.0,300.0,3.0,,,,,,,,,magenta,hexagon
0.0,8.0,4.0,1.0,6.0,6.0,709.8224570509046,6.0,1.0,phase_2,go,350.0,250.0,1.0,,,,,,,,,cyan,I
0.0,8.0,4.0,1.0,5.0,5.0,317.3852278850972,6.0,1.0,phase_2,go,350.0,250.0,1.0,,,,,,,,,cyan,I
0.0,1.0,1.0,0.0,5.0,5.0,340.8765508793294,6.0,1.0,phase_2,go,350.0,250.0,1.0,,,,,,,,,blue,cross
0.0,4.0,4.0,0.0,5.0,5.0,303.3832809887826,6.0,1.0,phase_2,go,350.0,250.0,1.0,,,,,,,,,orange,triangle
0.0,5.0,1.0,1.0,5.0,0.0,0.0,6.0,1.0,phase_2,stop,350.0,250.0,4.0,,,,,,,,,yellow,flipped triangle
0.0,3.0,3.0,0.0,5.0,5.0,570.4637879971415,6.0,1.0,phase_2,go,400.0,250.0,1.0,,,,,,,,,gray,diamond
0.0,1.0,1.0,0.0,5.0,5.0,533.1066679209471,6.0,1.0,phase_2,go,400.0,250.0,1.0,,,,,,,,,blue,cross
0.0,2.0,2.0,0.0,5.0,5.0,762.080169050023,6.0,1.0,phase_2,go,400.0,250.0,1.0,,,,,,,,,white,square
0.0,2.0,2.0,0.0,5.0,5.0,809.2293490190059,6.0,1.0,phase_2,go,400.0,250.0,1.0,,,,,,,,,white,square
0.0,1.0,1.0,0.0,6.0,6.0,776.8115170765668,6.0,1.0,phase_2,go,400.0,250.0,1.0,,,,,,,,,blue,cross
0.0,5.0,1.0,1.0,6.0,6.0,417.5399590749293,6.0,1.0,phase_2,go,400.0,250.0,1.0,,,,,,,,,yellow,flipped triangle
0.0,6.0,2.0,1.0,5.0,5.0,481.2211820390075,6.0,1.0,phase_2,stop,400.0,250.0,3.0,,,,,,,,,green,circle
0.0,4.0,4.0,0.0,6.0,6.0,655.0723258405924,7.0,1.0,phase_2,go,350.0,250.0,1.0,,,,,,,,,orange,triangle
0.0,4.0,4.0,0.0,5.0,5.0,229.8925830982625,7.0,1.0,phase_2,go,350.0,250.0,1.0,,,,,,,,,orange,triangle
0.0,5.0,1.0,1.0,5.0,5.0,299.0157951135188,7.0,1.0,phase_2,stop,350.0,250.0,3.0,,,,,,,,,yellow,flipped triangle
0.0,7.0,3.0,1.0,5.0,5.0,394.8282711207866,7.0,1.0,phase_2,stop,300.0,250.0,3.0,,,,,,,,,magenta,hexagon
0.0,6.0,2.0,1.0,5.0,0.0,0.0,7.0,1.0,phase_2,stop,250.0,250.0,4.0,,,,,,,,,green,circle
0.0,5.0,1.0,1.0,5.0,5.0,322.1415251027792,7.0,1.0,phase_2,go,300.0,250.0,1.0,,,,,,,,,yellow,flipped triangle
0.0,5.0,1.0,1.0,6.0,6.0,273.8774127792567,7.0,1.0,phase_2,stop,300.0,250.0,3.0,,,,,,,,,yellow,flipped triangle
0.0,2.0,2.0,0.0,5.0,5.0,416.8344838544726,7.0,1.0,phase_2,go,300.0,200.0,1.0,,,,,,,,,white,square
0.0,7.0,3.0,1.0,6.0,6.0,279.1819190606475,7.0,1.0,phase_2,stop,300.0,200.0,3.0,,,,,,,,,magenta,hexagon
0.0,5.0,1.0,1.0,5.0,0.0,0.0,7.0,1.0,phase_2,stop,300.0,150.0,4.0,,,,,,,,,yellow,flipped triangle
0.0,1.0,1.0,0.0,6.0,6.0,638.4347761049867,7.0,1.0,phase_2,go,350.0,150.0,1.0,,,,,,,,,blue,cross
0.0,6.0,2.0,1.0,6.0,0.0,0.0,7.0,1.0,phase_2,stop,350.0,150.0,4.0,,,,,,,,,green,circle
0.0,1.0,1.0,0.0,6.0,6.0,549.8306599911302,7.0,1.0,phase_2,go,350.0,200.0,1.0,,,,,,,,,blue,cross
0.0,6.0,2.0,1.0,6.0,6.0,326.4292210806161,7.0,1.0,phase_2,stop,350.0,200.0,3.0,,,,,,,,,green,circle
0.0,1.0,1.0,0.0,6.0,6.0,655.3338910453022,7.0,1.0,phase_2,go,350.0,150.0,1.0,,,,,,,,,blue,cross
0.0,4.0,4.0,0.0,5.0,5.0,501.62421399727464,7.0,1.0,phase_2,go,350.0,150.0,1.0,,,,,,,,,orange,triangle
0.0,4.0,4.0,0.0,6.0,6.0,486.6490089334547,7.0,1.0,phase_2,go,350.0,150.0,1.0,,,,,,,,,orange,triangle
0.0,1.0,1.0,0.0,5.0,5.0,459.1017849743366,7.0,1.0,phase_2,go,350.0,150.0,1.0,,,,,,,,,blue,cross
0.0,3.0,3.0,0.0,5.0,5.0,518.0761779192835,7.0,1.0,phase_2,go,350.0,150.0,1.0,,,,,,,,,gray,diamond
0.0,8.0,4.0,1.0,5.0,5.0,545.1881769113243,7.0,1.0,phase_2,go,350.0,150.0,1.0,,,,,,,,,cyan,I
0.0,1.0,1.0,0.0,6.0,6.0,564.1168209258467,7.0,1.0,phase_2,go,350.0,150.0,1.0,,,,,,,,,blue,cross
0.0,7.0,3.0,1.0,6.0,0.0,0.0,7.0,1.0,phase_2,stop,350.0,150.0,4.0,,,,,,,,,magenta,hexagon
0.0,8.0,4.0,1.0,5.0,5.0,658.516202820465,7.0,1.0,phase_2,go,350.0,200.0,1.0,,,,,,,,,cyan,I
0.0,5.0,1.0,1.0,6.0,6.0,591.1204479634762,7.0,1.0,phase_2,go,350.0,200.0,1.0,,,,,,,,,yellow,flipped triangle
0.0,3.0,3.0,0.0,6.0,6.0,687.2328701429069,7.0,1.0,phase_2,go,350.0,200.0,1.0,,,,,,,,,gray,diamond
0.0,7.0,3.0,1.0,6.0,0.0,0.0,7.0,1.0,phase_2,stop,350.0,200.0,4.0,,,,,,,,,magenta,hexagon
0.0,6.0,2.0,1.0,5.0,0.0,0.0,7.0,1.0,phase_2,go,350.0,250.0,5.0,,,,,,,,,green,circle
0.0,5.0,1.0,1.0,6.0,6.0,461.9205170311034,7.0,1.0,phase_2,go,350.0,250.0,1.0,,,,,,,,,yellow,flipped triangle
0.0,8.0,4.0,1.0,6.0,6.0,469.2873749881983,7.0,1.0,phase_2,go,350.0,250.0,1.0,,,,,,,,,cyan,I
0.0,4.0,4.0,0.0,5.0,0.0,0.0,7.0,1.0,phase_2,go,350.0,250.0,5.0,,,,,,,,,orange,triangle
0.0,8.0,4.0,1.0,5.0,0.0,0.0,7.0,1.0,phase_2,stop,350.0,250.0,4.0,,,,,,,,,cyan,I
0.0,6.0,2.0,1.0,5.0,5.0,397.7313030045479,7.0,1.0,phase_2,go,400.0,250.0,1.0,,,,,,,,,green,circle
0.0,4.0,4.0,0.0,5.0,5.0,380.9862218331545,7.0,1.0,phase_2,go,400.0,250.0,1.0,,,,,,,,,orange,triangle
0.0,7.0,3.0,1.0,5.0,0.0,0.0,7.0,1.0,phase_2,stop,400.0,250.0,4.0,,,,,,,,,magenta,hexagon
0.0,2.0,2.0,0.0,6.0,6.0,483.4491040091961,7.0,1.0,phase_2,go,450.0,250.0,1.0,,,,,,,,,white,square
0.0,3.0,3.0,0.0,5.0,5.0,601.38802183792,7.0,1.0,phase_2,go,450.0,250.0,1.0,,,,,,,,,gray,diamond
0.0,4.0,4.0,0.0,6.0,6.0,427.3152209352702,8.0,1.0,phase_2,go,450.0,250.0,1.0,,,,,,,,,orange,triangle
0.0,6.0,2.0,1.0,6.0,6.0,271.0268050432205,8.0,1.0,phase_2,stop,450.0,250.0,3.0,,,,,,,,,green,circle
0.0,1.0,1.0,0.0,5.0,5.0,297.4319029599428,8.0,1.0,phase_2,go,450.0,200.0,1.0,,,,,,,,,blue,cross
0.0,7.0,3.0,1.0,5.0,5.0,265.2959660626948,8.0,1.0,phase_2,stop,450.0,200.0,3.0,,,,,,,,,magenta,hexagon
0.0,2.0,2.0,0.0,6.0,6.0,448.4741168562323,8.0,1.0,phase_2,go,400.0,200.0,1.0,,,,,,,,,white,square
0.0,8.0,4.0,1.0,5.0,5.0,247.5596689619124,8.0,1.0,phase_2,go,400.0,200.0,1.0,,,,,,,,,cyan,I
0.0,6.0,2.0,1.0,5.0,5.0,281.8167479708791,8.0,1.0,phase_2,go,400.0,200.0,1.0,,,,,,,,,green,circle
0.0,2.0,2.0,0.0,6.0,6.0,278.3291121013462,8.0,1.0,phase_2,go,400.0,200.0,1.0,,,,,,,,,white,square
0.0,5.0,1.0,1.0,6.0,6.0,287.3122571036219,8.0,1.0,phase_2,stop,400.0,200.0,3.0,,,,,,,,,yellow,flipped triangle
0.0,5.0,1.0,1.0,5.0,5.0,335.230854107067,8.0,1.0,phase_2,go,400.0,150.0,1.0,,,,,,,,,yellow,flipped triangle
0.0,6.0,2.0,1.0,6.0,6.0,503.90180200338364,8.0,1.0,phase_2,go,400.0,150.0,1.0,,,,,,,,,green,circle
0.0,7.0,3.0,1.0,5.0,5.0,518.8909450080246,8.0,1.0,phase_2,go,400.0,150.0,1.0,,,,,,,,,magenta,hexagon
0.0,5.0,1.0,1.0,5.0,0.0,0.0,8.0,1.0,phase_2,stop,400.0,150.0,4.0,,,,,,,,,yellow,flipped triangle
0.0,1.0,1.0,0.0,6.0,6.0,453.4677788615227,8.0,1.0,phase_2,go,450.0,150.0,1.0,,,,,,,,,blue,cross
0.0,8.0,4.0,1.0,6.0,0.0,0.0,8.0,1.0,phase_2,stop,450.0,150.0,4.0,,,,,,,,,cyan,I
0.0,6.0,2.0,1.0,6.0,6.0,523.8144940230995,8.0,1.0,phase_2,go,450.0,200.0,1.0,,,,,,,,,green,circle
0.0,7.0,3.0,1.0,5.0,5.0,584.6619501244277,8.0,1.0,phase_2,stop,450.0,200.0,3.0,,,,,,,,,magenta,hexagon
0.0,5.0,1.0,1.0,5.0,0.0,0.0,8.0,1.0,phase_2,stop,400.0,200.0,4.0,,,,,,,,,yellow,flipped triangle
0.0,1.0,1.0,0.0,6.0,6.0,545.8232050295919,8.0,1.0,phase_2,go,450.0,200.0,1.0,,,,,,,,,blue,cross
0.0,4.0,4.0,0.0,6.0,6.0,826.8637079745531,8.0,1.0,phase_2,go,450.0,200.0,1.0,,,,,,,,,orange,triangle
0.0,5.0,1.0,1.0,5.0,0.0,0.0,8.0,1.0,phase_2,stop,450.0,200.0,4.0,,,,,,,,,yellow,flipped triangle
0.0,1.0,1.0,0.0,6.0,6.0,880.3374478593469,8.0,1.0,phase_2,go,500.0,200.0,1.0,,,,,,,,,blue,cross
0.0,8.0,4.0,1.0,5.0,5.0,601.6796748153865,8.0,1.0,phase_2,stop,500.0,200.0,3.0,,,,,,,,,cyan,I
0.0,6.0,2.0,1.0,6.0,0.0,0.0,8.0,1.0,phase_2,stop,450.0,200.0,4.0,,,,,,,,,green,circle
0.0,4.0,4.0,0.0,5.0,5.0,1148.4445289243013,8.0,1.0,phase_2,go,450.0,250.0,1.0,,,,,,,,,orange,triangle
0.0,6.0,2.0,1.0,5.0,0.0,0.0,8.0,1.0,phase_2,stop,450.0,250.0,4.0,,,,,,,,,green,circle
0.0,1.0,1.0,0.0,6.0,6.0,917.0726828742772,8.0,1.0,phase_2,go,500.0,250.0,1.0,,,,,,,,,blue,cross
0.0,1.0,1.0,0.0,5.0,5.0,859.4835640396923,8.0,1.0,phase_2,go,500.0,250.0,1.0,,,,,,,,,blue,cross
0.0,2.0,2.0,0.0,5.0,5.0,826.3919870369136,8.0,1.0,phase_2,go,500.0,250.0,1.0,,,,,,,,,white,square
0.0,8.0,4.0,1.0,6.0,0.0,0.0,8.0,1.0,phase_2,stop,500.0,250.0,4.0,,,,,,,,,cyan,I
0.0,8.0,4.0,1.0,5.0,0.0,0.0,8.0,1.0,phase_2,stop,500.0,300.0,4.0,,,,,,,,,cyan,I
0.0,2.0,2.0,0.0,6.0,6.0,347.4740479141474,8.0,1.0,phase_2,go,550.0,300.0,1.0,,,,,,,,,white,square
0.0,2.0,2.0,0.0,6.0,6.0,522.6562819443643,8.0,1.0,phase_2,go,550.0,300.0,1.0,,,,,,,,,white,square
0.0,8.0,4.0,1.0,5.0,5.0,359.753938158974,8.0,1.0,phase_2,stop,550.0,300.0,3.0,,,,,,,,,cyan,I
0.0,2.0,2.0,0.0,6.0,6.0,521.0879200603813,8.0,1.0,phase_2,go,500.0,300.0,1.0,,,,,,,,,white,square
0.0,5.0,1.0,1.0,6.0,6.0,335.3096030186862,8.0,1.0,phase_2,go,500.0,300.0,1.0,,,,,,,,,yellow,flipped triangle
0.0,8.0,4.0,1.0,7.0,1.0,3520.393901038915,1.0,2.0,phase_3,,,,,324.0,6.0,324.0,54.0,108.0,270.0,216.0,162.0,cyan,I
0.0,1.0,1.0,0.0,7.0,2.0,2212.433979148045,1.0,1.0,phase_3,,,,,294.0,6.0,245.0,294.0,49.0,98.0,147.0,196.0,blue,cross
0.0,2.0,2.0,0.0,7.0,6.0,3650.4057538695633,1.0,1.0,phase_3,,,,,102.0,3.0,136.0,68.0,170.0,34.0,204.0,102.0,white,square
0.0,7.0,3.0,1.0,7.0,5.0,2742.9470180068165,1.0,1.0,phase_3,,,,,294.0,6.0,98.0,245.0,147.0,49.0,294.0,196.0,magenta,hexagon
0.0,8.0,4.0,1.0,7.0,4.0,3198.0766819324344,1.0,1.0,phase_3,,,,,176.0,4.0,264.0,44.0,132.0,176.0,220.0,88.0,cyan,I
0.0,3.0,3.0,0.0,7.0,2.0,1513.2200750522316,1.0,1.0,phase_3,,,,,324.0,6.0,162.0,324.0,54.0,270.0,108.0,216.0,gray,diamond
0.0,4.0,4.0,0.0,7.0,4.0,1287.673498969525,1.0,1.0,phase_3,,,,,324.0,6.0,270.0,54.0,162.0,324.0,216.0,108.0,orange,triangle
0.0,1.0,1.0,0.0,7.0,1.0,1869.4010660983624,1.0,1.0,phase_3,,,,,324.0,6.0,324.0,54.0,216.0,108.0,162.0,270.0,blue,cross
0.0,7.0,3.0,1.0,7.0,4.0,1462.7973190508785,1.0,2.0,phase_3,,,,,264.0,6.0,132.0,88.0,220.0,264.0,176.0,44.0,magenta,hexagon
0.0,1.0,1.0,0.0,7.0,2.0,2164.6937711630017,1.0,1.0,phase_3,,,,,204.0,6.0,34.0,204.0,170.0,136.0,102.0,68.0,blue,cross
0.0,2.0,2.0,0.0,7.0,5.0,2750.8391321171075,1.0,1.0,phase_3,,,,,34.0,1.0,136.0,68.0,204.0,102.0,34.0,170.0,white,square
0.0,4.0,4.0,0.0,7.0,1.0,1456.1942839063704,1.0,2.0,phase_3,,,,,49.0,1.0,49.0,196.0,98.0,245.0,147.0,294.0,orange,triangle
0.0,8.0,4.0,1.0,7.0,6.0,2329.1153251193464,1.0,1.0,phase_3,,,,,108.0,2.0,54.0,162.0,270.0,324.0,216.0,108.0,cyan,I
0.0,3.0,3.0,0.0,7.0,1.0,2684.33066806756,1.0,1.0,phase_3,,,,,234.0,6.0,234.0,117.0,39.0,78.0,195.0,156.0,gray,diamond
0.0,2.0,2.0,0.0,7.0,3.0,3194.6175009943545,1.0,1.0,phase_3,,,,,324.0,6.0,54.0,108.0,324.0,216.0,270.0,162.0,white,square
0.0,8.0,4.0,1.0,7.0,1.0,3687.7681149635455,1.0,1.0,phase_3,,,,,88.0,2.0,88.0,176.0,44.0,132.0,264.0,220.0,cyan,I
0.0,2.0,2.0,0.0,7.0,5.0,2301.488383905962,1.0,1.0,phase_3,,,,,44.0,1.0,220.0,176.0,88.0,264.0,44.0,132.0,white,square
0.0,1.0,1.0,0.0,7.0,4.0,1225.03198008053,1.0,1.0,phase_3,,,,,264.0,6.0,220.0,132.0,44.0,264.0,88.0,176.0,blue,cross
0.0,7.0,3.0,1.0,7.0,2.0,11.8439071811735,1.0,1.0,phase_3,,,,,196.0,4.0,49.0,196.0,294.0,245.0,147.0,98.0,magenta,hexagon
0.0,8.0,4.0,1.0,7.0,4.0,4410.240798024461,1.0,1.0,phase_3,,,,,49.0,1.0,196.0,147.0,98.0,49.0,294.0,245.0,cyan,I
0.0,8.0,4.0,1.0,7.0,4.0,2119.912632042542,2.0,1.0,phase_3,,,,,68.0,2.0,136.0,170.0,102.0,68.0,34.0,204.0,cyan,I
0.0,1.0,1.0,0.0,7.0,4.0,1815.4634430538863,2.0,1.0,phase_3,,,,,234.0,6.0,195.0,78.0,39.0,234.0,156.0,117.0,blue,cross
0.0,7.0,3.0,1.0,7.0,3.0,1713.831139029935,2.0,1.0,phase_3,,,,,216.0,4.0,108.0,270.0,216.0,324.0,54.0,162.0,magenta,hexagon
0.0,8.0,4.0,1.0,7.0,2.0,2850.022312020883,2.0,1.0,phase_3,,,,,102.0,3.0,68.0,102.0,204.0,136.0,34.0,170.0,cyan,I
0.0,5.0,1.0,1.0,7.0,6.0,1964.4443730358037,2.0,1.0,phase_3,,,,,324.0,6.0,162.0,54.0,108.0,216.0,270.0,324.0,yellow,flipped triangle
0.0,7.0,3.0,1.0,7.0,4.0,2990.601260913536,2.0,1.0,phase_3,,,,,136.0,4.0,204.0,34.0,170.0,136.0,68.0,102.0,magenta,hexagon
0.0,4.0,4.0,0.0,7.0,4.0,1892.4279529601336,2.0,1.0,phase_3,,,,,39.0,1.0,195.0,78.0,156.0,39.0,117.0,234.0,orange,triangle
0.0,5.0,1.0,1.0,7.0,3.0,2191.3330459501594,2.0,1.0,phase_3,,,,,132.0,3.0,264.0,220.0,132.0,44.0,88.0,176.0,yellow,flipped triangle
0.0,3.0,3.0,0.0,7.0,5.0,2447.506467113272,2.0,1.0,phase_3,,,,,204.0,6.0,170.0,102.0,34.0,136.0,204.0,68.0,gray,diamond
0.0,3.0,3.0,0.0,7.0,1.0,2848.558654077351,2.0,1.0,phase_3,,,,,324.0,6.0,324.0,270.0,162.0,108.0,54.0,216.0,gray,diamond
0.0,3.0,3.0,0.0,7.0,4.0,1745.875024003908,2.0,1.0,phase_3,,,,,234.0,6.0,78.0,195.0,39.0,234.0,117.0,156.0,gray,diamond
0.0,8.0,4.0,1.0,7.0,1.0,1790.8488041721284,2.0,2.0,phase_3,,,,,294.0,6.0,294.0,147.0,98.0,245.0,196.0,49.0,cyan,I
0.0,2.0,2.0,0.0,7.0,6.0,2565.302326111123,2.0,1.0,phase_3,,,,,98.0,2.0,245.0,294.0,147.0,196.0,49.0,98.0,white,square
0.0,5.0,1.0,1.0,7.0,2.0,2962.73890696466,2.0,1.0,phase_3,,,,,196.0,4.0,245.0,196.0,294.0,98.0,49.0,147.0,yellow,flipped triangle
0.0,3.0,3.0,0.0,7.0,4.0,1352.7727890759706,2.0,1.0,phase_3,,,,,264.0,6.0,44.0,132.0,88.0,264.0,176.0,220.0,gray,diamond
0.0,1.0,1.0,0.0,7.0,2.0,1594.1411058884114,2.0,1.0,phase_3,,,,,264.0,6.0,88.0,264.0,220.0,176.0,132.0,44.0,blue,cross
0.0,2.0,2.0,0.0,7.0,5.0,2276.6711090225726,2.0,1.0,phase_3,,,,,117.0,3.0,156.0,39.0,234.0,195.0,117.0,78.0,white,square
0.0,3.0,3.0,0.0,7.0,1.0,1219.9888669420034,2.0,1.0,phase_3,,,,,264.0,6.0,264.0,176.0,88.0,220.0,44.0,132.0,gray,diamond
0.0,5.0,1.0,1.0,7.0,3.0,2775.4902590531856,2.0,1.0,phase_3,,,,,34.0,1.0,136.0,68.0,34.0,102.0,204.0,170.0,yellow,flipped triangle
0.0,5.0,1.0,1.0,7.0,2.0,2537.5004920642823,2.0,1.0,phase_3,,,,,39.0,1.0,117.0,39.0,156.0,78.0,234.0,195.0,yellow,flipped triangle
0.0,2.0,2.0,0.0,7.0,4.0,1656.8632379639894,3.0,1.0,phase_3,,,,,264.0,6.0,176.0,44.0,88.0,264.0,220.0,132.0,white,square
0.0,6.0,2.0,1.0,7.0,5.0,1912.2985780704769,3.0,1.0,phase_3,,,,,34.0,1.0,68.0,102.0,136.0,204.0,34.0,170.0,green,circle
0.0,5.0,1.0,1.0,7.0,3.0,1860.6706329155716,3.0,1.0,phase_3,,,,,132.0,3.0,176.0,88.0,132.0,220.0,264.0,44.0,yellow,flipped triangle
0.0,1.0,1.0,0.0,7.0,5.0,3387.3749419581145,3.0,1.0,phase_3,,,,,245.0,5.0,98.0,147.0,49.0,196.0,245.0,294.0,blue,cross
0.0,2.0,2.0,0.0,7.0,3.0,2599.405446089804,3.0,1.0,phase_3,,,,,234.0,6.0,195.0,78.0,234.0,39.0,117.0,156.0,white,square
0.0,6.0,2.0,1.0,7.0,6.0,2333.4940089844167,3.0,1.0,phase_3,,,,,78.0,2.0,234.0,117.0,195.0,39.0,156.0,78.0,green,circle
0.0,5.0,1.0,1.0,7.0,2.0,1775.1519330777228,3.0,1.0,phase_3,,,,,34.0,1.0,170.0,34.0,102.0,136.0,68.0,204.0,yellow,flipped triangle
0.0,1.0,1.0,0.0,7.0,4.0,2400.2985570114106,3.0,1.0,phase_3,,,,,234.0,6.0,117.0,195.0,156.0,234.0,78.0,39.0,blue,cross
0.0,4.0,4.0,0.0,7.0,6.0,2669.789699139073,3.0,1.0,phase_3,,,,,324.0,6.0,54.0,108.0,216.0,270.0,162.0,324.0,orange,triangle
0.0,7.0,3.0,1.0,7.0,4.0,2491.5472990833223,3.0,1.0,phase_3,,,,,132.0,3.0,220.0,176.0,264.0,132.0,44.0,88.0,magenta,hexagon
0.0,7.0,3.0,1.0,7.0,2.0,2548.811655957252,3.0,1.0,phase_3,,,,,234.0,6.0,195.0,234.0,78.0,39.0,156.0,117.0,magenta,hexagon
0.0,2.0,2.0,0.0,7.0,3.0,2689.9795969948173,3.0,1.0,phase_3,,,,,245.0,5.0,147.0,294.0,245.0,196.0,49.0,98.0,white,square
0.0,7.0,3.0,1.0,7.0,5.0,2986.064380966127,3.0,1.0,phase_3,,,,,204.0,6.0,170.0,34.0,102.0,68.0,204.0,136.0,magenta,hexagon
0.0,5.0,1.0,1.0,7.0,1.0,1592.8983730264008,3.0,1.0,phase_3,,,,,324.0,6.0,324.0,270.0,216.0,162.0,108.0,54.0,yellow,flipped triangle
0.0,1.0,1.0,0.0,7.0,6.0,3652.05914597027,3.0,1.0,phase_3,,,,,204.0,6.0,68.0,136.0,34.0,170.0,102.0,204.0,blue,cross
0.0,4.0,4.0,0.0,7.0,3.0,2452.4132770020515,3.0,1.0,phase_3,,,,,136.0,4.0,170.0,102.0,136.0,68.0,204.0,34.0,orange,triangle
0.0,5.0,1.0,1.0,7.0,3.0,1904.765692073852,3.0,1.0,phase_3,,,,,234.0,6.0,78.0,156.0,234.0,117.0,195.0,39.0,yellow,flipped triangle
0.0,4.0,4.0,0.0,7.0,2.0,2930.075558135286,3.0,1.0,phase_3,,,,,117.0,3.0,78.0,117.0,156.0,195.0,234.0,39.0,orange,triangle
0.0,6.0,2.0,1.0,7.0,4.0,2367.3428690526634,3.0,1.0,phase_3,,,,,44.0,1.0,176.0,220.0,264.0,44.0,132.0,88.0,green,circle
0.0,6.0,2.0,1.0,7.0,4.0,1121.2315980810672,3.0,1.0,phase_3,,,,,49.0,1.0,98.0,245.0,196.0,49.0,147.0,294.0,green,circle
0.0,8.0,4.0,1.0,7.0,3.0,2855.9270119294524,4.0,1.0,phase_3,,,,,234.0,6.0,117.0,195.0,234.0,78.0,156.0,39.0,cyan,I
0.0,8.0,4.0,1.0,7.0,6.0,2025.4772040061653,4.0,1.0,phase_3,,,,,234.0,6.0,117.0,39.0,156.0,195.0,78.0,234.0,cyan,I
0.0,6.0,2.0,1.0,7.0,6.0,2836.306898854673,4.0,1.0,phase_3,,,,,324.0,6.0,270.0,216.0,162.0,54.0,108.0,324.0,green,circle
0.0,5.0,1.0,1.0,7.0,1.0,2629.4801600743085,4.0,1.0,phase_3,,,,,245.0,5.0,245.0,98.0,147.0,49.0,196.0,294.0,yellow,flipped triangle
0.0,6.0,2.0,1.0,7.0,1.0,1709.0894049033525,4.0,1.0,phase_3,,,,,204.0,6.0,204.0,102.0,136.0,34.0,170.0,68.0,green,circle
0.0,3.0,3.0,0.0,7.0,6.0,3302.725946996361,4.0,1.0,phase_3,,,,,204.0,6.0,68.0,136.0,170.0,34.0,102.0,204.0,gray,diamond
0.0,2.0,2.0,0.0,7.0,6.0,2610.656979959458,4.0,1.0,phase_3,,,,,216.0,4.0,324.0,54.0,270.0,162.0,108.0,216.0,white,square
0.0,7.0,3.0,1.0,7.0,6.0,3227.663550991565,4.0,1.0,phase_3,,,,,234.0,6.0,117.0,78.0,39.0,156.0,195.0,234.0,magenta,hexagon
0.0,6.0,2.0,1.0,7.0,5.0,2082.7253258321434,4.0,1.0,phase_3,,,,,324.0,6.0,108.0,162.0,270.0,54.0,324.0,216.0,green,circle
0.0,6.0,2.0,1.0,7.0,3.0,2036.7207729723305,4.0,1.0,phase_3,,,,,234.0,6.0,195.0,156.0,234.0,117.0,39.0,78.0,green,circle
0.0,4.0,4.0,0.0,7.0,6.0,2358.098597964272,4.0,1.0,phase_3,,,,,264.0,6.0,132.0,176.0,88.0,220.0,44.0,264.0,orange,triangle
0.0,3.0,3.0,0.0,7.0,4.0,3065.884511917829,4.0,1.0,phase_3,,,,,294.0,6.0,49.0,245.0,98.0,294.0,147.0,196.0,gray,diamond
0.0,6.0,2.0,1.0,7.0,1.0,3196.114854188636,4.0,1.0,phase_3,,,,,98.0,2.0,98.0,196.0,147.0,294.0,49.0,245.0,green,circle
0.0,4.0,4.0,0.0,7.0,2.0,2829.3790500611067,4.0,1.0,phase_3,,,,,132.0,3.0,44.0,132.0,264.0,220.0,176.0,88.0,orange,triangle
0.0,1.0,1.0,0.0,7.0,2.0,4332.918852102011,4.0,1.0,phase_3,,,,,216.0,4.0,324.0,216.0,54.0,108.0,162.0,270.0,blue,cross
0.0,4.0,4.0,0.0,7.0,5.0,2414.852013112977,4.0,1.0,phase_3,,,,,34.0,1.0,68.0,170.0,102.0,204.0,34.0,136.0,orange,triangle
0.0,6.0,2.0,1.0,7.0,2.0,2128.02243581973,4.0,1.0,phase_3,,,,,44.0,1.0,88.0,44.0,220.0,264.0,176.0,132.0,green,circle
0.0,7.0,3.0,1.0,7.0,6.0,3482.0606380235404,4.0,1.0,phase_3,,,,,162.0,3.0,54.0,324.0,216.0,270.0,108.0,162.0,magenta,hexagon
0.0,4.0,4.0,0.0,7.0,2.0,4202.0423139911145,4.0,1.0,phase_3,,,,,49.0,1.0,98.0,49.0,294.0,147.0,196.0,245.0,orange,triangle
0.0,3.0,3.0,0.0,7.0,3.0,3730.078588938341,4.0,1.0,phase_3,,,,,49.0,1.0,98.0,245.0,49.0,294.0,196.0,147.0,gray,diamond
