raw_reward_magnitude,stim_reward,stepwise_reward_magnitude,paired_with_stopping,quadrant,response,reaction_time,block,num_trial_presentations,which_part,stop_signal_trial_type,left_SSD,right_SSD,accuracy,chosen_bidding_amount,chosen_bidding_level,possible_bid_1,possible_bid_2,possible_bid_3,possible_bid_4,possible_bid_5,possible_bid_6,color_text,shape_text
44.0,1.0,1.0,0.0,3.0,3.0,360.1111790630966,1.0,1.0,part_1,,,,,,,,,,,,,blue,square
177.0,3.0,3.0,0.0,1.0,1.0,310.077189002186,1.0,1.0,part_1,,,,,,,,,,,,,magenta,cross
78.0,2.0,2.0,0.0,4.0,4.0,314.2143699806183,1.0,1.0,part_1,,,,,,,,,,,,,white,flipped triangle
31.0,1.0,1.0,0.0,2.0,2.0,316.9856450986117,1.0,1.0,part_1,,,,,,,,,,,,,blue,square
0.0,6.0,0.0,1.0,1.0,1.0,332.3919998947531,1.0,1.0,part_1,,,,,,,,,,,,,green,I
0.0,3.0,0.0,0.0,3.0,3.0,351.5983140096068,1.0,1.0,part_1,,,,,,,,,,,,,magenta,cross
112.0,6.0,2.0,1.0,2.0,2.0,347.8008948732167,1.0,1.0,part_1,,,,,,,,,,,,,green,I
192.0,7.0,3.0,1.0,3.0,3.0,296.0264231078326,1.0,1.0,part_1,,,,,,,,,,,,,orange,hexagon
386.0,8.0,4.0,1.0,1.0,1.0,276.5385662205517,1.0,1.0,part_1,,,,,,,,,,,,,gray,diamond
0.0,1.0,0.0,0.0,1.0,1.0,344.3176890723407,1.0,1.0,part_1,,,,,,,,,,,,,blue,square
207.0,3.0,3.0,0.0,4.0,4.0,301.3198270928114,1.0,1.0,part_1,,,,,,,,,,,,,magenta,cross
67.0,1.0,1.0,0.0,3.0,3.0,300.8976799901575,1.0,1.0,part_1,,,,,,,,,,,,,blue,square
0.0,7.0,0.0,1.0,4.0,4.0,281.5333190374076,1.0,1.0,part_1,,,,,,,,,,,,,orange,hexagon
121.0,6.0,2.0,1.0,3.0,3.0,341.8613630346954,1.0,1.0,part_1,,,,,,,,,,,,,green,I
50.0,5.0,1.0,1.0,4.0,4.0,305.4860287811607,1.0,1.0,part_1,,,,,,,,,,,,,cyan,circle
177.0,7.0,3.0,1.0,1.0,1.0,300.7674161344766,1.0,1.0,part_1,,,,,,,,,,,,,orange,hexagon
212.0,3.0,3.0,0.0,4.0,4.0,293.2788599282503,1.0,1.0,part_1,,,,,,,,,,,,,magenta,cross
97.0,2.0,2.0,0.0,4.0,4.0,278.0620760750025,1.0,1.0,part_1,,,,,,,,,,,,,white,flipped triangle
224.0,7.0,3.0,1.0,1.0,1.0,318.7794799450785,1.0,1.0,part_1,,,,,,,,,,,,,orange,hexagon
30.0,5.0,1.0,1.0,1.0,1.0,321.5729407966137,1.0,1.0,part_1,,,,,,,,,,,,,cyan,circle
408.0,4.0,4.0,0.0,3.0,3.0,318.4121109079569,1.0,1.0,part_1,,,,,,,,,,,,,yellow,triangle
101.0,2.0,2.0,0.0,4.0,4.0,273.3519088942557,1.0,1.0,part_1,,,,,,,,,,,,,white,flipped triangle
111.0,6.0,2.0,1.0,1.0,1.0,289.2389069311321,1.0,1.0,part_1,,,,,,,,,,,,,green,I
0.0,6.0,0.0,1.0,1.0,1.0,330.049536190927,1.0,1.0,part_1,,,,,,,,,,,,,green,I
383.0,4.0,4.0,0.0,3.0,3.0,321.5553711634129,1.0,1.0,part_1,,,,,,,,,,,,,yellow,triangle
378.0,4.0,4.0,0.0,1.0,1.0,259.4717058818787,1.0,1.0,part_1,,,,,,,,,,,,,yellow,triangle
415.0,8.0,4.0,1.0,1.0,1.0,288.3138661272824,1.0,1.0,part_1,,,,,,,,,,,,,gray,diamond
192.0,3.0,3.0,0.0,2.0,2.0,341.8610279913991,1.0,1.0,part_1,,,,,,,,,,,,,magenta,cross
210.0,7.0,3.0,1.0,2.0,2.0,289.4196689594537,1.0,1.0,part_1,,,,,,,,,,,,,orange,hexagon
0.0,2.0,0.0,0.0,4.0,4.0,321.2952660396695,1.0,1.0,part_1,,,,,,,,,,,,,white,flipped triangle
75.0,6.0,2.0,1.0,4.0,4.0,309.7009668126702,1.0,1.0,part_1,,,,,,,,,,,,,green,I
177.0,3.0,3.0,0.0,2.0,2.0,345.4571519978344,1.0,1.0,part_1,,,,,,,,,,,,,magenta,cross
72.0,5.0,1.0,1.0,1.0,1.0,269.0518309827894,1.0,1.0,part_1,,,,,,,,,,,,,cyan,circle
29.0,5.0,1.0,1.0,4.0,4.0,297.6328891236335,1.0,1.0,part_1,,,,,,,,,,,,,cyan,circle
0.0,8.0,0.0,1.0,2.0,2.0,408.3251720294356,1.0,1.0,part_1,,,,,,,,,,,,,gray,diamond
0.0,6.0,0.0,1.0,2.0,2.0,314.2523050773889,1.0,1.0,part_1,,,,,,,,,,,,,green,I
424.0,8.0,4.0,1.0,4.0,4.0,304.8797070514411,1.0,1.0,part_1,,,,,,,,,,,,,gray,diamond
379.0,4.0,4.0,0.0,1.0,1.0,308.7988749612123,1.0,1.0,part_1,,,,,,,,,,,,,yellow,triangle
386.0,4.0,4.0,0.0,2.0,2.0,289.1125509049743,1.0,1.0,part_1,,,,,,,,,,,,,yellow,triangle
44.0,5.0,1.0,1.0,1.0,1.0,300.9535819292068,1.0,1.0,part_1,,,,,,,,,,,,,cyan,circle
28.0,5.0,1.0,1.0,1.0,1.0,289.3273348454386,1.0,1.0,part_1,,,,,,,,,,,,,cyan,circle
31.0,5.0,1.0,1.0,1.0,1.0,281.091985059902,1.0,1.0,part_1,,,,,,,,,,,,,cyan,circle
396.0,8.0,4.0,1.0,3.0,3.0,397.9598057921976,1.0,1.0,part_1,,,,,,,,,,,,,gray,diamond
75.0,1.0,1.0,0.0,4.0,4.0,304.401027970016,1.0,1.0,part_1,,,,,,,,,,,,,blue,square
211.0,7.0,3.0,1.0,3.0,3.0,320.2969669364393,1.0,1.0,part_1,,,,,,,,,,,,,orange,hexagon
424.0,4.0,4.0,0.0,3.0,3.0,330.5255139712244,1.0,1.0,part_1,,,,,,,,,,,,,yellow,triangle
0.0,2.0,0.0,0.0,3.0,3.0,302.3728190455585,1.0,1.0,part_1,,,,,,,,,,,,,white,flipped triangle
204.0,3.0,3.0,0.0,3.0,3.0,309.8079450428486,1.0,1.0,part_1,,,,,,,,,,,,,magenta,cross
425.0,8.0,4.0,1.0,2.0,2.0,402.7613310609013,1.0,1.0,part_1,,,,,,,,,,,,,gray,diamond
79.0,2.0,2.0,0.0,2.0,2.0,342.9817629512399,1.0,1.0,part_1,,,,,,,,,,,,,white,flipped triangle
180.0,3.0,3.0,0.0,1.0,1.0,290.3340449556708,1.0,1.0,part_1,,,,,,,,,,,,,magenta,cross
72.0,1.0,1.0,0.0,3.0,3.0,317.351401085034,1.0,1.0,part_1,,,,,,,,,,,,,blue,square
202.0,3.0,3.0,0.0,3.0,3.0,300.8478260599077,1.0,1.0,part_1,,,,,,,,,,,,,magenta,cross
0.0,7.0,0.0,1.0,2.0,2.0,321.6565190814435,1.0,1.0,part_1,,,,,,,,,,,,,orange,hexagon
0.0,5.0,0.0,1.0,1.0,1.0,333.8824121747166,1.0,1.0,part_1,,,,,,,,,,,,,cyan,circle
181.0,3.0,3.0,0.0,4.0,4.0,296.1412467993796,1.0,1.0,part_1,,,,,,,,,,,,,magenta,cross
89.0,6.0,2.0,1.0,2.0,2.0,332.5782250612974,1.0,1.0,part_1,,,,,,,,,,,,,green,I
107.0,2.0,2.0,0.0,2.0,2.0,306.6181710455566,1.0,1.0,part_1,,,,,,,,,,,,,white,flipped triangle
60.0,1.0,1.0,0.0,4.0,4.0,279.8493748996407,1.0,1.0,part_1,,,,,,,,,,,,,blue,square
0.0,4.0,0.0,0.0,3.0,3.0,291.531269904226,1.0,1.0,part_1,,,,,,,,,,,,,yellow,triangle
211.0,3.0,3.0,0.0,4.0,4.0,271.3260629680007,1.0,1.0,part_1,,,,,,,,,,,,,magenta,cross
38.0,1.0,1.0,0.0,1.0,1.0,307.9636448528617,1.0,1.0,part_1,,,,,,,,,,,,,blue,square
79.0,6.0,2.0,1.0,4.0,4.0,275.8433008566499,1.0,1.0,part_1,,,,,,,,,,,,,green,I
0.0,4.0,0.0,0.0,1.0,1.0,341.1965949926525,1.0,2.0,part_1,,,,,,,,,,,,,yellow,triangle
115.0,2.0,2.0,0.0,3.0,3.0,295.9187889937311,1.0,1.0,part_1,,,,,,,,,,,,,white,flipped triangle
57.0,5.0,1.0,1.0,4.0,4.0,307.4428071267903,1.0,1.0,part_1,,,,,,,,,,,,,cyan,circle
408.0,8.0,4.0,1.0,3.0,3.0,288.3579169865697,1.0,1.0,part_1,,,,,,,,,,,,,gray,diamond
97.0,6.0,2.0,1.0,1.0,1.0,293.329763924703,1.0,1.0,part_1,,,,,,,,,,,,,green,I
99.0,2.0,2.0,0.0,3.0,3.0,322.2827750723809,1.0,1.0,part_1,,,,,,,,,,,,,white,flipped triangle
83.0,2.0,2.0,0.0,1.0,1.0,305.3878569044173,1.0,1.0,part_1,,,,,,,,,,,,,white,flipped triangle
0.0,5.0,0.0,1.0,4.0,4.0,301.5001541934907,1.0,1.0,part_1,,,,,,,,,,,,,cyan,circle
214.0,7.0,3.0,1.0,2.0,2.0,312.2412748634815,1.0,1.0,part_1,,,,,,,,,,,,,orange,hexagon
75.0,5.0,1.0,1.0,1.0,1.0,312.2350790072232,1.0,1.0,part_1,,,,,,,,,,,,,cyan,circle
420.0,4.0,4.0,0.0,4.0,4.0,284.6424041781574,1.0,1.0,part_1,,,,,,,,,,,,,yellow,triangle
107.0,6.0,2.0,1.0,4.0,4.0,281.7047559656203,1.0,1.0,part_1,,,,,,,,,,,,,green,I
90.0,6.0,2.0,1.0,4.0,4.0,300.0751719810068,1.0,1.0,part_1,,,,,,,,,,,,,green,I
419.0,8.0,4.0,1.0,2.0,2.0,329.2058920487761,1.0,1.0,part_1,,,,,,,,,,,,,gray,diamond
50.0,1.0,1.0,0.0,2.0,2.0,339.9787461385131,1.0,1.0,part_1,,,,,,,,,,,,,blue,square
409.0,8.0,4.0,1.0,4.0,4.0,281.0057199094444,1.0,1.0,part_1,,,,,,,,,,,,,gray,diamond
83.0,6.0,2.0,1.0,2.0,2.0,303.2538020052016,1.0,1.0,part_1,,,,,,,,,,,,,green,I
78.0,6.0,2.0,1.0,1.0,1.0,310.0252810399979,1.0,1.0,part_1,,,,,,,,,,,,,green,I
214.0,7.0,3.0,1.0,2.0,2.0,312.315417220816,1.0,1.0,part_1,,,,,,,,,,,,,orange,hexagon
420.0,4.0,4.0,0.0,1.0,1.0,382.8311050310731,1.0,1.0,part_1,,,,,,,,,,,,,yellow,triangle
77.0,2.0,2.0,0.0,1.0,1.0,296.0178980138153,1.0,1.0,part_1,,,,,,,,,,,,,white,flipped triangle
218.0,7.0,3.0,1.0,4.0,4.0,284.7854769788682,1.0,1.0,part_1,,,,,,,,,,,,,orange,hexagon
402.0,4.0,4.0,0.0,4.0,4.0,300.8311870507896,1.0,1.0,part_1,,,,,,,,,,,,,yellow,triangle
0.0,6.0,0.0,1.0,3.0,3.0,328.1020019203424,1.0,1.0,part_1,,,,,,,,,,,,,green,I
122.0,6.0,2.0,1.0,4.0,4.0,300.5520768929273,1.0,1.0,part_1,,,,,,,,,,,,,green,I
395.0,8.0,4.0,1.0,3.0,3.0,330.119933001697,1.0,1.0,part_1,,,,,,,,,,,,,gray,diamond
29.0,1.0,1.0,0.0,4.0,4.0,320.4122490715235,1.0,1.0,part_1,,,,,,,,,,,,,blue,square
79.0,2.0,2.0,0.0,1.0,1.0,307.9290748573839,1.0,1.0,part_1,,,,,,,,,,,,,white,flipped triangle
0.0,5.0,0.0,1.0,4.0,4.0,318.3078509755432,1.0,1.0,part_1,,,,,,,,,,,,,cyan,circle
389.0,8.0,4.0,1.0,4.0,4.0,308.5963928606361,1.0,1.0,part_1,,,,,,,,,,,,,gray,diamond
0.0,2.0,0.0,0.0,4.0,4.0,320.8155161701143,1.0,1.0,part_1,,,,,,,,,,,,,white,flipped triangle
0.0,6.0,0.0,1.0,3.0,3.0,326.1939941439777,1.0,1.0,part_1,,,,,,,,,,,,,green,I
389.0,4.0,4.0,0.0,2.0,2.0,327.7077148668468,1.0,1.0,part_1,,,,,,,,,,,,,yellow,triangle
182.0,3.0,3.0,0.0,1.0,1.0,358.9641230646521,1.0,1.0,part_1,,,,,,,,,,,,,magenta,cross
415.0,8.0,4.0,1.0,2.0,2.0,356.5455479547381,1.0,1.0,part_1,,,,,,,,,,,,,gray,diamond
0.0,7.0,0.0,1.0,1.0,1.0,296.9490040559321,1.0,1.0,part_1,,,,,,,,,,,,,orange,hexagon
107.0,2.0,2.0,0.0,2.0,2.0,301.4563480392098,1.0,1.0,part_1,,,,,,,,,,,,,white,flipped triangle
190.0,3.0,3.0,0.0,2.0,2.0,328.9627630729228,2.0,1.0,part_1,,,,,,,,,,,,,magenta,cross
0.0,8.0,0.0,1.0,4.0,4.0,275.3888240549713,2.0,1.0,part_1,,,,,,,,,,,,,gray,diamond
0.0,3.0,0.0,0.0,4.0,4.0,287.8512889146805,2.0,1.0,part_1,,,,,,,,,,,,,magenta,cross
379.0,8.0,4.0,1.0,2.0,2.0,316.9191838242113,2.0,1.0,part_1,,,,,,,,,,,,,gray,diamond
396.0,4.0,4.0,0.0,2.0,2.0,323.1541831046343,2.0,1.0,part_1,,,,,,,,,,,,,yellow,triangle
419.0,4.0,4.0,0.0,1.0,1.0,304.2703999672085,2.0,1.0,part_1,,,,,,,,,,,,,yellow,triangle
187.0,3.0,3.0,0.0,2.0,2.0,313.8839618768543,2.0,1.0,part_1,,,,,,,,,,,,,magenta,cross
0.0,7.0,0.0,1.0,2.0,2.0,310.4567860718816,2.0,1.0,part_1,,,,,,,,,,,,,orange,hexagon
0.0,7.0,0.0,1.0,3.0,3.0,315.9949639812112,2.0,1.0,part_1,,,,,,,,,,,,,orange,hexagon
183.0,7.0,3.0,1.0,1.0,1.0,467.8083038888871,2.0,1.0,part_1,,,,,,,,,,,,,orange,hexagon
68.0,5.0,1.0,1.0,3.0,3.0,349.5539990253746,2.0,1.0,part_1,,,,,,,,,,,,,cyan,circle
388.0,4.0,4.0,0.0,4.0,4.0,331.7352440208196,2.0,1.0,part_1,,,,,,,,,,,,,yellow,triangle
0.0,5.0,0.0,1.0,4.0,4.0,305.0094509962946,2.0,1.0,part_1,,,,,,,,,,,,,cyan,circle
29.0,1.0,1.0,0.0,2.0,2.0,291.6237770114094,2.0,1.0,part_1,,,,,,,,,,,,,blue,square
411.0,8.0,4.0,1.0,4.0,4.0,338.6370309162885,2.0,1.0,part_1,,,,,,,,,,,,,gray,diamond
212.0,7.0,3.0,1.0,2.0,2.0,430.0942788831889,2.0,1.0,part_1,,,,,,,,,,,,,orange,hexagon
198.0,3.0,3.0,0.0,1.0,1.0,426.3985329307616,2.0,1.0,part_1,,,,,,,,,,,,,magenta,cross
388.0,8.0,4.0,1.0,1.0,1.0,317.1529080718755,2.0,1.0,part_1,,,,,,,,,,,,,gray,diamond
125.0,2.0,2.0,0.0,2.0,2.0,297.7780601941049,2.0,1.0,part_1,,,,,,,,,,,,,white,flipped triangle
115.0,6.0,2.0,1.0,3.0,3.0,321.4693679474294,2.0,1.0,part_1,,,,,,,,,,,,,green,I
409.0,8.0,4.0,1.0,1.0,1.0,292.1399669721722,2.0,1.0,part_1,,,,,,,,,,,,,gray,diamond
392.0,8.0,4.0,1.0,2.0,2.0,290.8816658891737,2.0,1.0,part_1,,,,,,,,,,,,,gray,diamond
72.0,1.0,1.0,0.0,2.0,2.0,308.6292978841811,2.0,1.0,part_1,,,,,,,,,,,,,blue,square
405.0,4.0,4.0,0.0,2.0,2.0,299.8380158096552,2.0,1.0,part_1,,,,,,,,,,,,,yellow,triangle
83.0,6.0,2.0,1.0,3.0,3.0,303.4370010718703,2.0,1.0,part_1,,,,,,,,,,,,,green,I
222.0,7.0,3.0,1.0,1.0,1.0,293.2357061654329,2.0,1.0,part_1,,,,,,,,,,,,,orange,hexagon
224.0,3.0,3.0,0.0,1.0,1.0,364.7144248243421,2.0,2.0,part_1,,,,,,,,,,,,,magenta,cross
218.0,3.0,3.0,0.0,4.0,4.0,341.1134099587798,2.0,1.0,part_1,,,,,,,,,,,,,magenta,cross
218.0,7.0,3.0,1.0,1.0,1.0,305.5388459470123,2.0,1.0,part_1,,,,,,,,,,,,,orange,hexagon
48.0,5.0,1.0,1.0,3.0,3.0,330.5913989897817,2.0,1.0,part_1,,,,,,,,,,,,,cyan,circle
378.0,8.0,4.0,1.0,3.0,3.0,314.0322109684348,2.0,1.0,part_1,,,,,,,,,,,,,gray,diamond
216.0,3.0,3.0,0.0,2.0,2.0,334.3847489450127,2.0,1.0,part_1,,,,,,,,,,,,,magenta,cross
39.0,1.0,1.0,0.0,1.0,1.0,314.6716740448028,2.0,1.0,part_1,,,,,,,,,,,,,blue,square
388.0,8.0,4.0,1.0,1.0,1.0,336.3377121277153,2.0,1.0,part_1,,,,,,,,,,,,,gray,diamond
210.0,3.0,3.0,0.0,3.0,3.0,330.575588857755,2.0,1.0,part_1,,,,,,,,,,,,,magenta,cross
0.0,4.0,0.0,0.0,3.0,3.0,361.27804312855,2.0,1.0,part_1,,,,,,,,,,,,,yellow,triangle
102.0,2.0,2.0,0.0,3.0,3.0,326.6071109101176,2.0,1.0,part_1,,,,,,,,,,,,,white,flipped triangle
411.0,4.0,4.0,0.0,3.0,3.0,320.4059179406613,2.0,1.0,part_1,,,,,,,,,,,,,yellow,triangle
187.0,7.0,3.0,1.0,3.0,3.0,372.7369469124824,2.0,1.0,part_1,,,,,,,,,,,,,orange,hexagon
0.0,6.0,0.0,1.0,4.0,4.0,297.2098197788,2.0,1.0,part_1,,,,,,,,,,,,,green,I
50.0,1.0,1.0,0.0,3.0,3.0,313.3378699421882,2.0,1.0,part_1,,,,,,,,,,,,,blue,square
106.0,6.0,2.0,1.0,2.0,2.0,357.6708280015737,2.0,1.0,part_1,,,,,,,,,,,,,green,I
97.0,6.0,2.0,1.0,2.0,2.0,347.2057629842311,2.0,1.0,part_1,,,,,,,,,,,,,green,I
218.0,3.0,3.0,0.0,4.0,4.0,388.5601949878037,2.0,1.0,part_1,,,,,,,,,,,,,magenta,cross
224.0,3.0,3.0,0.0,1.0,1.0,330.4961859248578,2.0,1.0,part_1,,,,,,,,,,,,,magenta,cross
0.0,8.0,0.0,1.0,1.0,1.0,312.4292278662324,2.0,1.0,part_1,,,,,,,,,,,,,gray,diamond
87.0,2.0,2.0,0.0,3.0,3.0,325.4738471005112,2.0,1.0,part_1,,,,,,,,,,,,,white,flipped triangle
62.0,5.0,1.0,1.0,2.0,2.0,351.390509866178,2.0,1.0,part_1,,,,,,,,,,,,,cyan,circle
0.0,4.0,0.0,0.0,1.0,1.0,286.2880819011479,2.0,1.0,part_1,,,,,,,,,,,,,yellow,triangle
94.0,6.0,2.0,1.0,3.0,3.0,297.0335090067237,2.0,1.0,part_1,,,,,,,,,,,,,green,I
117.0,6.0,2.0,1.0,3.0,3.0,317.8222721908241,2.0,1.0,part_1,,,,,,,,,,,,,green,I
65.0,5.0,1.0,1.0,2.0,2.0,289.718106156215,2.0,1.0,part_1,,,,,,,,,,,,,cyan,circle
192.0,3.0,3.0,0.0,2.0,2.0,301.8738948740065,2.0,1.0,part_1,,,,,,,,,,,,,magenta,cross
41.0,1.0,1.0,0.0,1.0,1.0,306.6527519840747,2.0,1.0,part_1,,,,,,,,,,,,,blue,square
414.0,8.0,4.0,1.0,4.0,4.0,319.8144291527569,2.0,1.0,part_1,,,,,,,,,,,,,gray,diamond
223.0,3.0,3.0,0.0,3.0,3.0,316.6118450462818,2.0,1.0,part_1,,,,,,,,,,,,,magenta,cross
388.0,4.0,4.0,0.0,4.0,4.0,361.0351530369371,2.0,1.0,part_1,,,,,,,,,,,,,yellow,triangle
198.0,7.0,3.0,1.0,3.0,3.0,333.6150289978832,2.0,1.0,part_1,,,,,,,,,,,,,orange,hexagon
0.0,2.0,0.0,0.0,2.0,2.0,333.3945719059557,2.0,1.0,part_1,,,,,,,,,,,,,white,flipped triangle
0.0,4.0,0.0,0.0,2.0,2.0,345.4071320593357,2.0,1.0,part_1,,,,,,,,,,,,,yellow,triangle
401.0,4.0,4.0,0.0,3.0,3.0,365.6374379061162,2.0,1.0,part_1,,,,,,,,,,,,,yellow,triangle
197.0,7.0,3.0,1.0,3.0,3.0,314.3300691153854,2.0,1.0,part_1,,,,,,,,,,,,,orange,hexagon
218.0,3.0,3.0,0.0,3.0,3.0,310.1952990982681,2.0,1.0,part_1,,,,,,,,,,,,,magenta,cross
0.0,1.0,0.0,0.0,2.0,2.0,341.8035719078034,2.0,1.0,part_1,,,,,,,,,,,,,blue,square
34.0,5.0,1.0,1.0,2.0,2.0,320.9764459170401,2.0,1.0,part_1,,,,,,,,,,,,,cyan,circle
62.0,1.0,1.0,0.0,4.0,4.0,284.7974831238389,2.0,1.0,part_1,,,,,,,,,,,,,blue,square
37.0,1.0,1.0,0.0,1.0,1.0,281.4187288749963,2.0,1.0,part_1,,,,,,,,,,,,,blue,square
384.0,8.0,4.0,1.0,4.0,4.0,317.4502060282975,2.0,1.0,part_1,,,,,,,,,,,,,gray,diamond
81.0,2.0,2.0,0.0,2.0,2.0,355.0341799855232,2.0,1.0,part_1,,,,,,,,,,,,,white,flipped triangle
0.0,2.0,0.0,0.0,1.0,1.0,407.5221228413284,2.0,1.0,part_1,,,,,,,,,,,,,white,flipped triangle
70.0,5.0,1.0,1.0,3.0,3.0,342.2441359143704,2.0,1.0,part_1,,,,,,,,,,,,,cyan,circle
120.0,6.0,2.0,1.0,1.0,1.0,289.0193730127066,2.0,1.0,part_1,,,,,,,,,,,,,green,I
38.0,1.0,1.0,0.0,3.0,3.0,317.4404518213123,2.0,1.0,part_1,,,,,,,,,,,,,blue,square
183.0,7.0,3.0,1.0,1.0,1.0,337.5587919726968,2.0,1.0,part_1,,,,,,,,,,,,,orange,hexagon
183.0,3.0,3.0,0.0,2.0,2.0,326.0420730803162,2.0,1.0,part_1,,,,,,,,,,,,,magenta,cross
389.0,8.0,4.0,1.0,3.0,3.0,429.0110231377184,2.0,1.0,part_1,,,,,,,,,,,,,gray,diamond
418.0,4.0,4.0,0.0,1.0,1.0,265.7850559335202,2.0,1.0,part_1,,,,,,,,,,,,,yellow,triangle
0.0,7.0,0.0,1.0,3.0,3.0,318.4425041545182,2.0,1.0,part_1,,,,,,,,,,,,,orange,hexagon
50.0,5.0,1.0,1.0,4.0,4.0,305.173525121063,2.0,1.0,part_1,,,,,,,,,,,,,cyan,circle
34.0,1.0,1.0,0.0,4.0,4.0,414.5552380941808,2.0,1.0,part_1,,,,,,,,,,,,,blue,square
402.0,8.0,4.0,1.0,4.0,4.0,292.1662649605423,2.0,1.0,part_1,,,,,,,,,,,,,gray,diamond
0.0,8.0,0.0,1.0,1.0,1.0,289.2394640948623,2.0,1.0,part_1,,,,,,,,,,,,,gray,diamond
392.0,4.0,4.0,0.0,1.0,1.0,309.3789170961827,2.0,1.0,part_1,,,,,,,,,,,,,yellow,triangle
89.0,2.0,2.0,0.0,2.0,2.0,402.2126719355583,2.0,1.0,part_1,,,,,,,,,,,,,white,flipped triangle
28.0,1.0,1.0,0.0,2.0,2.0,373.8376891706139,2.0,1.0,part_1,,,,,,,,,,,,,blue,square
420.0,8.0,4.0,1.0,3.0,3.0,308.1172478850931,2.0,1.0,part_1,,,,,,,,,,,,,gray,diamond
181.0,7.0,3.0,1.0,4.0,4.0,341.8649139348417,2.0,1.0,part_1,,,,,,,,,,,,,orange,hexagon
35.0,1.0,1.0,0.0,3.0,3.0,317.1869639772922,2.0,1.0,part_1,,,,,,,,,,,,,blue,square
192.0,7.0,3.0,1.0,2.0,2.0,337.5729108229279,2.0,1.0,part_1,,,,,,,,,,,,,orange,hexagon
0.0,6.0,0.0,1.0,3.0,3.0,342.0741809532046,2.0,1.0,part_1,,,,,,,,,,,,,green,I
80.0,2.0,2.0,0.0,3.0,3.0,312.6909420825541,2.0,1.0,part_1,,,,,,,,,,,,,white,flipped triangle
420.0,8.0,4.0,1.0,1.0,1.0,301.0740620084107,2.0,1.0,part_1,,,,,,,,,,,,,gray,diamond
97.0,2.0,2.0,0.0,4.0,4.0,285.0494720041752,2.0,1.0,part_1,,,,,,,,,,,,,white,flipped triangle
59.0,1.0,1.0,0.0,1.0,1.0,359.2360080219805,2.0,1.0,part_1,,,,,,,,,,,,,blue,square
0.0,7.0,0.0,1.0,2.0,2.0,307.6440189033746,2.0,1.0,part_1,,,,,,,,,,,,,orange,hexagon
37.0,5.0,1.0,1.0,1.0,1.0,304.2665619868785,2.0,1.0,part_1,,,,,,,,,,,,,cyan,circle
0.0,5.0,0.0,1.0,4.0,4.0,303.6333308555186,2.0,1.0,part_1,,,,,,,,,,,,,cyan,circle
389.0,4.0,4.0,0.0,2.0,2.0,284.6680961083621,2.0,1.0,part_1,,,,,,,,,,,,,yellow,triangle
57.0,1.0,1.0,0.0,3.0,3.0,346.0216408129781,2.0,1.0,part_1,,,,,,,,,,,,,blue,square
0.0,5.0,0.0,1.0,4.0,4.0,365.9317828714847,2.0,1.0,part_1,,,,,,,,,,,,,cyan,circle
52.0,1.0,1.0,0.0,4.0,4.0,320.016629062593,3.0,1.0,part_1,,,,,,,,,,,,,blue,square
0.0,5.0,0.0,1.0,4.0,4.0,292.4678230192512,3.0,1.0,part_1,,,,,,,,,,,,,cyan,circle
58.0,5.0,1.0,1.0,4.0,4.0,277.3526720702648,3.0,1.0,part_1,,,,,,,,,,,,,cyan,circle
39.0,5.0,1.0,1.0,2.0,2.0,296.8680979683995,3.0,1.0,part_1,,,,,,,,,,,,,cyan,circle
112.0,2.0,2.0,0.0,1.0,1.0,301.4872490894049,3.0,1.0,part_1,,,,,,,,,,,,,white,flipped triangle
0.0,1.0,0.0,0.0,2.0,2.0,311.8439400568604,3.0,1.0,part_1,,,,,,,,,,,,,blue,square
187.0,3.0,3.0,0.0,4.0,4.0,284.7398030571639,3.0,1.0,part_1,,,,,,,,,,,,,magenta,cross
177.0,7.0,3.0,1.0,1.0,1.0,300.6185388658196,3.0,1.0,part_1,,,,,,,,,,,,,orange,hexagon
81.0,6.0,2.0,1.0,4.0,4.0,286.5150871220976,3.0,1.0,part_1,,,,,,,,,,,,,green,I
44.0,5.0,1.0,1.0,2.0,2.0,337.4164539854973,3.0,1.0,part_1,,,,,,,,,,,,,cyan,circle
29.0,1.0,1.0,0.0,1.0,1.0,376.4734449796378,3.0,1.0,part_1,,,,,,,,,,,,,blue,square
33.0,5.0,1.0,1.0,2.0,2.0,284.4193039927631,3.0,1.0,part_1,,,,,,,,,,,,,cyan,circle
115.0,2.0,2.0,0.0,3.0,3.0,274.2242449894547,3.0,1.0,part_1,,,,,,,,,,,,,white,flipped triangle
205.0,3.0,3.0,0.0,4.0,4.0,334.3800799921155,3.0,1.0,part_1,,,,,,,,,,,,,magenta,cross
107.0,6.0,2.0,1.0,3.0,3.0,313.5189798194915,3.0,1.0,part_1,,,,,,,,,,,,,green,I
111.0,2.0,2.0,0.0,4.0,4.0,313.7828831095248,3.0,1.0,part_1,,,,,,,,,,,,,white,flipped triangle
425.0,4.0,4.0,0.0,2.0,2.0,356.3700628001243,3.0,1.0,part_1,,,,,,,,,,,,,yellow,triangle
58.0,1.0,1.0,0.0,3.0,3.0,311.238297028467,3.0,1.0,part_1,,,,,,,,,,,,,blue,square
111.0,6.0,2.0,1.0,1.0,1.0,286.4659398328513,3.0,1.0,part_1,,,,,,,,,,,,,green,I
70.0,1.0,1.0,0.0,2.0,2.0,320.9124179556966,3.0,1.0,part_1,,,,,,,,,,,,,blue,square
0.0,3.0,0.0,0.0,3.0,3.0,390.184867894277,3.0,1.0,part_1,,,,,,,,,,,,,magenta,cross
117.0,2.0,2.0,0.0,1.0,1.0,333.1344060134142,3.0,1.0,part_1,,,,,,,,,,,,,white,flipped triangle
34.0,1.0,1.0,0.0,1.0,1.0,312.725851079449,3.0,1.0,part_1,,,,,,,,,,,,,blue,square
0.0,4.0,0.0,0.0,3.0,3.0,285.3305910248309,3.0,1.0,part_1,,,,,,,,,,,,,yellow,triangle
0.0,1.0,0.0,0.0,2.0,2.0,306.5774359274655,3.0,1.0,part_1,,,,,,,,,,,,,blue,square
420.0,8.0,4.0,1.0,1.0,1.0,277.0120960194617,3.0,1.0,part_1,,,,,,,,,,,,,gray,diamond
0.0,2.0,0.0,0.0,1.0,1.0,313.3205939084291,3.0,1.0,part_1,,,,,,,,,,,,,white,flipped triangle
385.0,4.0,4.0,0.0,2.0,2.0,318.4125658590346,3.0,1.0,part_1,,,,,,,,,,,,,yellow,triangle
382.0,4.0,4.0,0.0,1.0,1.0,267.2761771827936,3.0,1.0,part_1,,,,,,,,,,,,,yellow,triangle
100.0,6.0,2.0,1.0,2.0,2.0,312.8562390338629,3.0,1.0,part_1,,,,,,,,,,,,,green,I
97.0,6.0,2.0,1.0,4.0,4.0,332.3227830696851,3.0,1.0,part_1,,,,,,,,,,,,,green,I
0.0,8.0,0.0,1.0,2.0,2.0,308.7597931735217,3.0,1.0,part_1,,,,,,,,,,,,,gray,diamond
110.0,6.0,2.0,1.0,2.0,2.0,296.647097915411,3.0,1.0,part_1,,,,,,,,,,,,,green,I
64.0,5.0,1.0,1.0,3.0,3.0,317.8124639671296,3.0,1.0,part_1,,,,,,,,,,,,,cyan,circle
376.0,8.0,4.0,1.0,3.0,3.0,289.0573658514768,3.0,1.0,part_1,,,,,,,,,,,,,gray,diamond
0.0,1.0,0.0,0.0,1.0,1.0,340.7919688615948,3.0,1.0,part_1,,,,,,,,,,,,,blue,square
197.0,7.0,3.0,1.0,4.0,4.0,370.0293318834156,3.0,1.0,part_1,,,,,,,,,,,,,orange,hexagon
379.0,8.0,4.0,1.0,3.0,3.0,344.9784449767321,3.0,1.0,part_1,,,,,,,,,,,,,gray,diamond
189.0,3.0,3.0,0.0,2.0,2.0,401.7454630229622,3.0,1.0,part_1,,,,,,,,,,,,,magenta,cross
0.0,7.0,0.0,1.0,2.0,2.0,328.71466409415,3.0,1.0,part_1,,,,,,,,,,,,,orange,hexagon
60.0,5.0,1.0,1.0,3.0,3.0,316.5722130797803,3.0,1.0,part_1,,,,,,,,,,,,,cyan,circle
80.0,6.0,2.0,1.0,1.0,1.0,321.1982159409672,3.0,1.0,part_1,,,,,,,,,,,,,green,I
404.0,4.0,4.0,0.0,3.0,3.0,300.8968641515821,3.0,1.0,part_1,,,,,,,,,,,,,yellow,triangle
395.0,4.0,4.0,0.0,3.0,3.0,281.1541720293462,3.0,1.0,part_1,,,,,,,,,,,,,yellow,triangle
30.0,1.0,1.0,0.0,4.0,4.0,312.0620080735534,3.0,1.0,part_1,,,,,,,,,,,,,blue,square
0.0,1.0,0.0,0.0,3.0,3.0,309.4361021649092,3.0,1.0,part_1,,,,,,,,,,,,,blue,square
77.0,6.0,2.0,1.0,2.0,2.0,347.0495720393955,3.0,1.0,part_1,,,,,,,,,,,,,green,I
396.0,4.0,4.0,0.0,1.0,1.0,461.143294814974,3.0,1.0,part_1,,,,,,,,,,,,,yellow,triangle
180.0,7.0,3.0,1.0,3.0,3.0,267.691790824756,3.0,1.0,part_1,,,,,,,,,,,,,orange,hexagon
107.0,6.0,2.0,1.0,2.0,2.0,296.2736000772565,3.0,1.0,part_1,,,,,,,,,,,,,green,I
379.0,4.0,4.0,0.0,1.0,1.0,292.7964809350669,3.0,1.0,part_1,,,,,,,,,,,,,yellow,triangle
223.0,7.0,3.0,1.0,4.0,4.0,326.729818014428,3.0,1.0,part_1,,,,,,,,,,,,,orange,hexagon
198.0,7.0,3.0,1.0,3.0,3.0,310.550499940291,3.0,1.0,part_1,,,,,,,,,,,,,orange,hexagon
199.0,7.0,3.0,1.0,4.0,4.0,257.345549063757,3.0,1.0,part_1,,,,,,,,,,,,,orange,hexagon
52.0,5.0,1.0,1.0,3.0,3.0,273.0615350883454,3.0,1.0,part_1,,,,,,,,,,,,,cyan,circle
391.0,8.0,4.0,1.0,2.0,2.0,307.9093559645116,3.0,1.0,part_1,,,,,,,,,,,,,gray,diamond
99.0,6.0,2.0,1.0,3.0,3.0,255.84412808530033,3.0,1.0,part_1,,,,,,,,,,,,,green,I
86.0,2.0,2.0,0.0,3.0,3.0,235.8093198854476,3.0,1.0,part_1,,,,,,,,,,,,,white,flipped triangle
415.0,4.0,4.0,0.0,2.0,2.0,312.4294967856258,3.0,1.0,part_1,,,,,,,,,,,,,yellow,triangle
0.0,4.0,0.0,0.0,4.0,4.0,268.4118889737874,3.0,1.0,part_1,,,,,,,,,,,,,yellow,triangle
205.0,7.0,3.0,1.0,2.0,2.0,328.87515402399,3.0,1.0,part_1,,,,,,,,,,,,,orange,hexagon
72.0,5.0,1.0,1.0,3.0,3.0,264.1492509283125,3.0,1.0,part_1,,,,,,,,,,,,,cyan,circle
72.0,1.0,1.0,0.0,2.0,2.0,267.2302930150181,3.0,1.0,part_1,,,,,,,,,,,,,blue,square
68.0,1.0,1.0,0.0,2.0,2.0,345.9347551688552,3.0,1.0,part_1,,,,,,,,,,,,,blue,square
181.0,3.0,3.0,0.0,3.0,3.0,262.7627539914101,3.0,1.0,part_1,,,,,,,,,,,,,magenta,cross
395.0,8.0,4.0,1.0,4.0,4.0,312.7287889365107,3.0,1.0,part_1,,,,,,,,,,,,,gray,diamond
101.0,6.0,2.0,1.0,3.0,3.0,280.3509139921516,3.0,1.0,part_1,,,,,,,,,,,,,green,I
107.0,2.0,2.0,0.0,1.0,1.0,301.7018781974911,3.0,1.0,part_1,,,,,,,,,,,,,white,flipped triangle
382.0,8.0,4.0,1.0,3.0,3.0,279.3016899377107,3.0,1.0,part_1,,,,,,,,,,,,,gray,diamond
38.0,5.0,1.0,1.0,4.0,4.0,309.947595000267,3.0,1.0,part_1,,,,,,,,,,,,,cyan,circle
0.0,1.0,0.0,0.0,1.0,1.0,342.3339030705392,3.0,2.0,part_1,,,,,,,,,,,,,blue,square
0.0,3.0,0.0,0.0,4.0,4.0,313.4892859961837,3.0,1.0,part_1,,,,,,,,,,,,,magenta,cross
0.0,2.0,0.0,0.0,4.0,4.0,304.3898150790483,3.0,1.0,part_1,,,,,,,,,,,,,white,flipped triangle
224.0,7.0,3.0,1.0,3.0,3.0,299.5356230530888,3.0,1.0,part_1,,,,,,,,,,,,,orange,hexagon
86.0,6.0,2.0,1.0,1.0,1.0,401.2533840723336,3.0,1.0,part_1,,,,,,,,,,,,,green,I
197.0,3.0,3.0,0.0,4.0,4.0,332.7527879737317,3.0,1.0,part_1,,,,,,,,,,,,,magenta,cross
420.0,4.0,4.0,0.0,2.0,2.0,323.8785730209201,3.0,1.0,part_1,,,,,,,,,,,,,yellow,triangle
192.0,7.0,3.0,1.0,2.0,2.0,333.0430681817233,3.0,1.0,part_1,,,,,,,,,,,,,orange,hexagon
376.0,4.0,4.0,0.0,4.0,4.0,365.4290030244738,3.0,1.0,part_1,,,,,,,,,,,,,yellow,triangle
218.0,7.0,3.0,1.0,4.0,4.0,306.5913862083107,3.0,1.0,part_1,,,,,,,,,,,,,orange,hexagon
0.0,2.0,0.0,0.0,1.0,1.0,331.556973978877,3.0,1.0,part_1,,,,,,,,,,,,,white,flipped triangle
106.0,2.0,2.0,0.0,3.0,3.0,307.7359870076179,3.0,1.0,part_1,,,,,,,,,,,,,white,flipped triangle
414.0,4.0,4.0,0.0,4.0,4.0,286.904411856085,3.0,1.0,part_1,,,,,,,,,,,,,yellow,triangle
45.0,5.0,1.0,1.0,2.0,2.0,349.1598260588944,3.0,1.0,part_1,,,,,,,,,,,,,cyan,circle
109.0,2.0,2.0,0.0,4.0,4.0,310.6049371417612,3.0,1.0,part_1,,,,,,,,,,,,,white,flipped triangle
0.0,1.0,0.0,0.0,1.0,1.0,332.1368959732353,3.0,1.0,part_1,,,,,,,,,,,,,blue,square
0.0,3.0,0.0,0.0,3.0,3.0,335.4597380384803,3.0,1.0,part_1,,,,,,,,,,,,,magenta,cross
67.0,5.0,1.0,1.0,2.0,2.0,318.8505941070616,3.0,1.0,part_1,,,,,,,,,,,,,cyan,circle
401.0,4.0,4.0,0.0,4.0,4.0,365.075061796233,3.0,1.0,part_1,,,,,,,,,,,,,yellow,triangle
0.0,8.0,0.0,1.0,3.0,3.0,297.832686919719,3.0,1.0,part_1,,,,,,,,,,,,,gray,diamond
72.0,5.0,1.0,1.0,1.0,1.0,300.8046329487115,3.0,1.0,part_1,,,,,,,,,,,,,cyan,circle
0.0,4.0,0.0,0.0,4.0,4.0,385.8745798934251,3.0,1.0,part_1,,,,,,,,,,,,,yellow,triangle
0.0,8.0,0.0,1.0,1.0,1.0,358.5690280888229,3.0,1.0,part_1,,,,,,,,,,,,,gray,diamond
200.0,3.0,3.0,0.0,3.0,3.0,312.9591210745275,3.0,1.0,part_1,,,,,,,,,,,,,magenta,cross
113.0,6.0,2.0,1.0,3.0,3.0,438.7226530816406,3.0,1.0,part_1,,,,,,,,,,,,,green,I
61.0,5.0,1.0,1.0,2.0,2.0,316.9095360208303,3.0,1.0,part_1,,,,,,,,,,,,,cyan,circle
378.0,4.0,4.0,0.0,3.0,3.0,273.559542838484,3.0,1.0,part_1,,,,,,,,,,,,,yellow,triangle
415.0,4.0,4.0,0.0,4.0,4.0,279.2814618442207,3.0,1.0,part_1,,,,,,,,,,,,,yellow,triangle
38.0,5.0,1.0,1.0,3.0,3.0,287.5972001347691,3.0,1.0,part_1,,,,,,,,,,,,,cyan,circle
73.0,1.0,1.0,0.0,3.0,3.0,295.5156180541962,3.0,1.0,part_1,,,,,,,,,,,,,blue,square
418.0,8.0,4.0,1.0,2.0,2.0,350.5316160153597,4.0,1.0,part_1,,,,,,,,,,,,,gray,diamond
120.0,2.0,2.0,0.0,2.0,2.0,267.4205950461328,4.0,1.0,part_1,,,,,,,,,,,,,white,flipped triangle
111.0,2.0,2.0,0.0,1.0,1.0,304.5487741474062,4.0,1.0,part_1,,,,,,,,,,,,,white,flipped triangle
0.0,3.0,0.0,0.0,3.0,3.0,292.3720350954681,4.0,1.0,part_1,,,,,,,,,,,,,magenta,cross
33.0,1.0,1.0,0.0,1.0,1.0,319.6026340592652,4.0,1.0,part_1,,,,,,,,,,,,,blue,square
29.0,5.0,1.0,1.0,4.0,4.0,276.0755359195173,4.0,1.0,part_1,,,,,,,,,,,,,cyan,circle
204.0,7.0,3.0,1.0,1.0,1.0,256.3566081225872,4.0,1.0,part_1,,,,,,,,,,,,,orange,hexagon
384.0,4.0,4.0,0.0,3.0,3.0,276.6678440384567,4.0,1.0,part_1,,,,,,,,,,,,,yellow,triangle
214.0,3.0,3.0,0.0,3.0,3.0,340.4800160787999,4.0,1.0,part_1,,,,,,,,,,,,,magenta,cross
0.0,4.0,0.0,0.0,4.0,4.0,545.1019362080842,4.0,1.0,part_1,,,,,,,,,,,,,yellow,triangle
35.0,5.0,1.0,1.0,4.0,4.0,306.8117769435048,4.0,1.0,part_1,,,,,,,,,,,,,cyan,circle
97.0,2.0,2.0,0.0,1.0,1.0,311.352328164503,4.0,1.0,part_1,,,,,,,,,,,,,white,flipped triangle
395.0,4.0,4.0,0.0,4.0,4.0,272.4125238601118,4.0,1.0,part_1,,,,,,,,,,,,,yellow,triangle
214.0,3.0,3.0,0.0,1.0,1.0,297.0860151108354,4.0,1.0,part_1,,,,,,,,,,,,,magenta,cross
115.0,6.0,2.0,1.0,1.0,1.0,392.6144200377166,4.0,1.0,part_1,,,,,,,,,,,,,green,I
425.0,4.0,4.0,0.0,4.0,4.0,283.2918430212885,4.0,1.0,part_1,,,,,,,,,,,,,yellow,triangle
184.0,3.0,3.0,0.0,4.0,4.0,279.9088649917394,4.0,1.0,part_1,,,,,,,,,,,,,magenta,cross
200.0,7.0,3.0,1.0,1.0,1.0,276.5657480340451,4.0,1.0,part_1,,,,,,,,,,,,,orange,hexagon
90.0,2.0,2.0,0.0,2.0,2.0,315.2121112216264,4.0,1.0,part_1,,,,,,,,,,,,,white,flipped triangle
409.0,4.0,4.0,0.0,2.0,2.0,340.8294271212071,4.0,1.0,part_1,,,,,,,,,,,,,yellow,triangle
425.0,8.0,4.0,1.0,1.0,1.0,306.9183460902422,4.0,1.0,part_1,,,,,,,,,,,,,gray,diamond
50.0,5.0,1.0,1.0,1.0,1.0,303.597941994667,4.0,1.0,part_1,,,,,,,,,,,,,cyan,circle
378.0,8.0,4.0,1.0,1.0,1.0,260.832296917215,4.0,1.0,part_1,,,,,,,,,,,,,gray,diamond
0.0,8.0,0.0,1.0,2.0,2.0,561.5957980044186,4.0,1.0,part_1,,,,,,,,,,,,,gray,diamond
118.0,2.0,2.0,0.0,4.0,4.0,333.2963730208576,4.0,1.0,part_1,,,,,,,,,,,,,white,flipped triangle
118.0,6.0,2.0,1.0,4.0,4.0,324.7286230325699,4.0,1.0,part_1,,,,,,,,,,,,,green,I
65.0,1.0,1.0,0.0,1.0,1.0,328.3020318485796,4.0,1.0,part_1,,,,,,,,,,,,,blue,square
184.0,7.0,3.0,1.0,3.0,3.0,315.3680660761893,4.0,1.0,part_1,,,,,,,,,,,,,orange,hexagon
0.0,1.0,0.0,0.0,3.0,3.0,297.4021399859339,4.0,1.0,part_1,,,,,,,,,,,,,blue,square
104.0,2.0,2.0,0.0,4.0,4.0,267.8426608908921,4.0,1.0,part_1,,,,,,,,,,,,,white,flipped triangle
61.0,1.0,1.0,0.0,2.0,2.0,304.8479359131306,4.0,1.0,part_1,,,,,,,,,,,,,blue,square
0.0,1.0,0.0,0.0,4.0,4.0,293.4839071240276,4.0,1.0,part_1,,,,,,,,,,,,,blue,square
0.0,4.0,0.0,0.0,2.0,2.0,316.0212649963796,4.0,1.0,part_1,,,,,,,,,,,,,yellow,triangle
0.0,6.0,0.0,1.0,4.0,4.0,272.4216000642627,4.0,1.0,part_1,,,,,,,,,,,,,green,I
0.0,5.0,0.0,1.0,4.0,4.0,276.4292401261627,4.0,1.0,part_1,,,,,,,,,,,,,cyan,circle
0.0,3.0,0.0,0.0,1.0,1.0,304.7625198960304,4.0,1.0,part_1,,,,,,,,,,,,,magenta,cross
73.0,5.0,1.0,1.0,2.0,2.0,316.79293396882707,4.0,1.0,part_1,,,,,,,,,,,,,cyan,circle
0.0,2.0,0.0,0.0,4.0,4.0,276.2342500500381,4.0,1.0,part_1,,,,,,,,,,,,,white,flipped triangle
113.0,2.0,2.0,0.0,1.0,1.0,362.0201519224792,4.0,1.0,part_1,,,,,,,,,,,,,white,flipped triangle
40.0,1.0,1.0,0.0,4.0,4.0,266.8880990240723,4.0,1.0,part_1,,,,,,,,,,,,,blue,square
94.0,2.0,2.0,0.0,2.0,2.0,279.376199003309,4.0,1.0,part_1,,,,,,,,,,,,,white,flipped triangle
190.0,7.0,3.0,1.0,2.0,2.0,332.3440989479422,4.0,1.0,part_1,,,,,,,,,,,,,orange,hexagon
79.0,6.0,2.0,1.0,4.0,4.0,315.5095239635557,4.0,1.0,part_1,,,,,,,,,,,,,green,I
75.0,2.0,2.0,0.0,4.0,4.0,289.5826289895922,4.0,1.0,part_1,,,,,,,,,,,,,white,flipped triangle
50.0,1.0,1.0,0.0,4.0,4.0,284.8164348397404,4.0,1.0,part_1,,,,,,,,,,,,,blue,square
183.0,3.0,3.0,0.0,1.0,1.0,280.2217870485037,4.0,1.0,part_1,,,,,,,,,,,,,magenta,cross
121.0,2.0,2.0,0.0,4.0,4.0,284.1569520533085,4.0,1.0,part_1,,,,,,,,,,,,,white,flipped triangle
197.0,3.0,3.0,0.0,1.0,1.0,320.0800609774887,4.0,1.0,part_1,,,,,,,,,,,,,magenta,cross
404.0,8.0,4.0,1.0,4.0,4.0,336.2150290049612,4.0,1.0,part_1,,,,,,,,,,,,,gray,diamond
189.0,7.0,3.0,1.0,1.0,1.0,323.3065591193735,4.0,1.0,part_1,,,,,,,,,,,,,orange,hexagon
0.0,8.0,0.0,1.0,4.0,4.0,287.0403330307454,4.0,1.0,part_1,,,,,,,,,,,,,gray,diamond
34.0,5.0,1.0,1.0,3.0,3.0,317.7668680436909,4.0,1.0,part_1,,,,,,,,,,,,,cyan,circle
0.0,3.0,0.0,0.0,1.0,1.0,311.7768769152462,4.0,1.0,part_1,,,,,,,,,,,,,magenta,cross
87.0,6.0,2.0,1.0,4.0,4.0,301.0846402030438,4.0,1.0,part_1,,,,,,,,,,,,,green,I
385.0,8.0,4.0,1.0,2.0,2.0,369.8446999769658,4.0,1.0,part_1,,,,,,,,,,,,,gray,diamond
45.0,1.0,1.0,0.0,3.0,3.0,320.8934620488435,4.0,1.0,part_1,,,,,,,,,,,,,blue,square
0.0,2.0,0.0,0.0,3.0,3.0,453.5316179972142,4.0,1.0,part_1,,,,,,,,,,,,,white,flipped triangle
216.0,7.0,3.0,1.0,4.0,4.0,305.150207132101,4.0,1.0,part_1,,,,,,,,,,,,,orange,hexagon
48.0,1.0,1.0,0.0,4.0,4.0,286.9760280009359,4.0,1.0,part_1,,,,,,,,,,,,,blue,square
83.0,2.0,2.0,0.0,1.0,1.0,300.1423829700798,4.0,1.0,part_1,,,,,,,,,,,,,white,flipped triangle
391.0,4.0,4.0,0.0,3.0,3.0,309.6240600571036,4.0,1.0,part_1,,,,,,,,,,,,,yellow,triangle
0.0,6.0,0.0,1.0,2.0,2.0,317.8529720753431,4.0,1.0,part_1,,,,,,,,,,,,,green,I
64.0,1.0,1.0,0.0,1.0,1.0,406.709766946733,4.0,1.0,part_1,,,,,,,,,,,,,blue,square
192.0,3.0,3.0,0.0,2.0,2.0,410.8933799434453,4.0,1.0,part_1,,,,,,,,,,,,,magenta,cross
207.0,7.0,3.0,1.0,4.0,4.0,289.07464700751,4.0,1.0,part_1,,,,,,,,,,,,,orange,hexagon
401.0,8.0,4.0,1.0,3.0,3.0,504.3043189216405,4.0,1.0,part_1,,,,,,,,,,,,,gray,diamond
0.0,7.0,0.0,1.0,4.0,4.0,293.4968499466777,4.0,1.0,part_1,,,,,,,,,,,,,orange,hexagon
122.0,2.0,2.0,0.0,3.0,3.0,318.1861510965973,4.0,1.0,part_1,,,,,,,,,,,,,white,flipped triangle
187.0,7.0,3.0,1.0,2.0,2.0,314.2378840129822,4.0,2.0,part_1,,,,,,,,,,,,,orange,hexagon
207.0,3.0,3.0,0.0,3.0,3.0,312.4140780419111,4.0,1.0,part_1,,,,,,,,,,,,,magenta,cross
44.0,1.0,1.0,0.0,2.0,2.0,296.5851470362395,4.0,1.0,part_1,,,,,,,,,,,,,blue,square
41.0,5.0,1.0,1.0,4.0,4.0,295.4773409292102,4.0,1.0,part_1,,,,,,,,,,,,,cyan,circle
102.0,6.0,2.0,1.0,2.0,2.0,290.3459330555051,4.0,1.0,part_1,,,,,,,,,,,,,green,I
29.0,5.0,1.0,1.0,4.0,4.0,321.2520289234817,4.0,1.0,part_1,,,,,,,,,,,,,cyan,circle
182.0,7.0,3.0,1.0,2.0,2.0,308.086414122954,4.0,1.0,part_1,,,,,,,,,,,,,orange,hexagon
181.0,7.0,3.0,1.0,4.0,4.0,312.7338639460504,4.0,1.0,part_1,,,,,,,,,,,,,orange,hexagon
125.0,6.0,2.0,1.0,1.0,1.0,438.8757629785687,4.0,1.0,part_1,,,,,,,,,,,,,green,I
396.0,8.0,4.0,1.0,4.0,4.0,308.4293350111693,4.0,1.0,part_1,,,,,,,,,,,,,gray,diamond
207.0,7.0,3.0,1.0,4.0,4.0,321.3450410403311,4.0,1.0,part_1,,,,,,,,,,,,,orange,hexagon
0.0,7.0,0.0,1.0,3.0,3.0,316.8014418333769,4.0,1.0,part_1,,,,,,,,,,,,,orange,hexagon
100.0,2.0,2.0,0.0,2.0,2.0,369.9690350331366,4.0,1.0,part_1,,,,,,,,,,,,,white,flipped triangle
198.0,3.0,3.0,0.0,3.0,3.0,316.5051899850368,4.0,1.0,part_1,,,,,,,,,,,,,magenta,cross
0.0,8.0,0.0,1.0,4.0,4.0,301.0222469456494,4.0,1.0,part_1,,,,,,,,,,,,,gray,diamond
109.0,6.0,2.0,1.0,1.0,1.0,320.8881579339504,4.0,1.0,part_1,,,,,,,,,,,,,green,I
104.0,6.0,2.0,1.0,3.0,3.0,324.3813791777938,4.0,1.0,part_1,,,,,,,,,,,,,green,I
0.0,5.0,0.0,1.0,4.0,4.0,289.5833379589021,4.0,1.0,part_1,,,,,,,,,,,,,cyan,circle
202.0,7.0,3.0,1.0,3.0,3.0,300.3532530274242,4.0,1.0,part_1,,,,,,,,,,,,,orange,hexagon
0.0,5.0,0.0,1.0,2.0,2.0,332.1640870999545,4.0,1.0,part_1,,,,,,,,,,,,,cyan,circle
40.0,5.0,1.0,1.0,3.0,3.0,320.9005969110876,4.0,1.0,part_1,,,,,,,,,,,,,cyan,circle
409.0,4.0,4.0,0.0,1.0,1.0,325.7430740632117,4.0,1.0,part_1,,,,,,,,,,,,,yellow,triangle
0.0,3.0,0.0,0.0,2.0,2.0,377.45210994035,4.0,1.0,part_1,,,,,,,,,,,,,magenta,cross
383.0,8.0,4.0,1.0,1.0,1.0,333.3157249726355,4.0,1.0,part_1,,,,,,,,,,,,,gray,diamond
199.0,3.0,3.0,0.0,2.0,2.0,314.726694021374,4.0,1.0,part_1,,,,,,,,,,,,,magenta,cross
59.0,5.0,1.0,1.0,1.0,1.0,308.9321919251233,4.0,1.0,part_1,,,,,,,,,,,,,cyan,circle
401.0,8.0,4.0,1.0,2.0,2.0,420.7820130977779,4.0,1.0,part_1,,,,,,,,,,,,,gray,diamond
222.0,3.0,3.0,0.0,1.0,1.0,321.3554800022393,4.0,1.0,part_1,,,,,,,,,,,,,magenta,cross
0.0,6.0,0.0,1.0,2.0,2.0,293.7401810195297,4.0,1.0,part_1,,,,,,,,,,,,,green,I
110.0,2.0,2.0,0.0,3.0,3.0,298.8606698345393,4.0,1.0,part_1,,,,,,,,,,,,,white,flipped triangle
405.0,8.0,4.0,1.0,2.0,2.0,300.9122610092163,4.0,1.0,part_1,,,,,,,,,,,,,gray,diamond
0.0,3.0,0.0,0.0,1.0,1.0,339.3244429025799,4.0,1.0,part_1,,,,,,,,,,,,,magenta,cross
0.0,8.0,4.0,1.0,5.0,0.0,0.0,1.0,0.0,part_2,stop,250.0,250.0,4.0,,,,,,,,,gray,diamond
0.0,3.0,3.0,0.0,5.0,5.0,425.1573809888214,1.0,0.0,part_2,go,300.0,250.0,1.0,,,,,,,,,magenta,cross
0.0,8.0,4.0,1.0,6.0,0.0,0.0,1.0,0.0,part_2,stop,300.0,250.0,4.0,,,,,,,,,gray,diamond
0.0,5.0,1.0,1.0,5.0,5.0,390.9647779073566,1.0,0.0,part_2,stop,300.0,300.0,3.0,,,,,,,,,cyan,circle
0.0,3.0,3.0,0.0,6.0,6.0,557.3600989300758,1.0,0.0,part_2,go,250.0,300.0,1.0,,,,,,,,,magenta,cross
0.0,5.0,1.0,1.0,6.0,0.0,0.0,1.0,0.0,part_2,stop,250.0,300.0,4.0,,,,,,,,,cyan,circle
0.0,1.0,1.0,0.0,5.0,5.0,702.7295529842377,1.0,0.0,part_2,go,250.0,350.0,1.0,,,,,,,,,blue,square
0.0,5.0,1.0,1.0,5.0,0.0,0.0,1.0,0.0,part_2,stop,250.0,350.0,4.0,,,,,,,,,cyan,circle
0.0,1.0,1.0,0.0,5.0,5.0,381.4315397758037,1.0,0.0,part_2,go,300.0,350.0,1.0,,,,,,,,,blue,square
0.0,1.0,1.0,0.0,5.0,5.0,547.470660880208,1.0,0.0,part_2,go,300.0,350.0,1.0,,,,,,,,,blue,square
0.0,6.0,2.0,1.0,5.0,0.0,0.0,1.0,0.0,part_2,stop,300.0,350.0,4.0,,,,,,,,,green,I
0.0,1.0,1.0,0.0,5.0,5.0,627.4674939922988,1.0,0.0,part_2,go,350.0,350.0,1.0,,,,,,,,,blue,square
0.0,4.0,4.0,0.0,6.0,6.0,585.0186489988118,1.0,0.0,part_2,go,350.0,350.0,1.0,,,,,,,,,yellow,triangle
0.0,4.0,4.0,0.0,5.0,5.0,770.5530771054327,1.0,0.0,part_2,go,350.0,350.0,1.0,,,,,,,,,yellow,triangle
0.0,8.0,4.0,1.0,6.0,0.0,0.0,1.0,0.0,part_2,stop,350.0,350.0,4.0,,,,,,,,,gray,diamond
0.0,3.0,3.0,0.0,5.0,5.0,545.8240010775626,1.0,0.0,part_2,go,350.0,400.0,1.0,,,,,,,,,magenta,cross
0.0,6.0,2.0,1.0,5.0,0.0,0.0,1.0,0.0,part_2,stop,350.0,400.0,4.0,,,,,,,,,green,I
0.0,2.0,2.0,0.0,5.0,5.0,735.2391928434372,1.0,0.0,part_2,go,400.0,400.0,1.0,,,,,,,,,white,flipped triangle
0.0,5.0,1.0,1.0,5.0,0.0,0.0,1.0,0.0,part_2,stop,400.0,400.0,4.0,,,,,,,,,cyan,circle
0.0,6.0,2.0,1.0,5.0,0.0,0.0,1.0,0.0,part_2,stop,450.0,400.0,4.0,,,,,,,,,green,I
0.0,7.0,3.0,1.0,6.0,6.0,388.7318898923695,1.0,0.0,part_2,stop,500.0,400.0,3.0,,,,,,,,,orange,hexagon
0.0,4.0,4.0,0.0,5.0,5.0,679.5249490533024,1.0,0.0,part_2,go,500.0,350.0,1.0,,,,,,,,,yellow,triangle
0.0,8.0,4.0,1.0,6.0,6.0,719.5483897812665,1.0,0.0,part_2,go,500.0,350.0,1.0,,,,,,,,,gray,diamond
0.0,2.0,2.0,0.0,6.0,6.0,716.2790349684656,1.0,0.0,part_2,go,500.0,350.0,1.0,,,,,,,,,white,flipped triangle
0.0,3.0,3.0,0.0,6.0,6.0,788.786951918155,1.0,0.0,part_2,go,500.0,350.0,1.0,,,,,,,,,magenta,cross
0.0,4.0,4.0,0.0,5.0,5.0,738.8734039850533,1.0,0.0,part_2,go,500.0,350.0,1.0,,,,,,,,,yellow,triangle
0.0,1.0,1.0,0.0,6.0,6.0,581.0753160621971,1.0,0.0,part_2,go,500.0,350.0,1.0,,,,,,,,,blue,square
0.0,1.0,1.0,0.0,6.0,6.0,682.13045084849,1.0,0.0,part_2,go,500.0,350.0,1.0,,,,,,,,,blue,square
0.0,1.0,1.0,0.0,6.0,6.0,706.4945180900395,1.0,0.0,part_2,go,500.0,350.0,1.0,,,,,,,,,blue,square
0.0,6.0,2.0,1.0,6.0,0.0,0.0,1.0,0.0,part_2,stop,500.0,350.0,4.0,,,,,,,,,green,I
0.0,7.0,3.0,1.0,6.0,6.0,568.9073838293552,1.0,0.0,part_2,go,500.0,400.0,1.0,,,,,,,,,orange,hexagon
0.0,1.0,1.0,0.0,5.0,5.0,585.9314289409667,1.0,0.0,part_2,go,500.0,400.0,1.0,,,,,,,,,blue,square
0.0,8.0,4.0,1.0,5.0,0.0,0.0,1.0,0.0,part_2,stop,500.0,400.0,4.0,,,,,,,,,gray,diamond
0.0,7.0,3.0,1.0,5.0,5.0,585.7685010414571,1.0,0.0,part_2,stop,550.0,400.0,3.0,,,,,,,,,orange,hexagon
0.0,4.0,4.0,0.0,6.0,6.0,685.9355801716447,1.0,0.0,part_2,go,500.0,400.0,1.0,,,,,,,,,yellow,triangle
0.0,4.0,4.0,0.0,5.0,5.0,631.9471129681915,1.0,0.0,part_2,go,500.0,400.0,1.0,,,,,,,,,yellow,triangle
0.0,7.0,3.0,1.0,5.0,5.0,379.3418759014457,2.0,0.0,part_2,stop,500.0,400.0,3.0,,,,,,,,,orange,hexagon
0.0,6.0,2.0,1.0,5.0,5.0,461.7874519899487,2.0,0.0,part_2,go,450.0,400.0,1.0,,,,,,,,,green,I
0.0,5.0,1.0,1.0,5.0,5.0,538.3650278672576,2.0,0.0,part_2,stop,450.0,400.0,3.0,,,,,,,,,cyan,circle
0.0,8.0,4.0,1.0,5.0,0.0,0.0,2.0,0.0,part_2,stop,400.0,400.0,4.0,,,,,,,,,gray,diamond
0.0,3.0,3.0,0.0,5.0,5.0,541.430776938796,2.0,0.0,part_2,go,450.0,400.0,1.0,,,,,,,,,magenta,cross
0.0,8.0,4.0,1.0,6.0,0.0,0.0,2.0,0.0,part_2,stop,450.0,400.0,4.0,,,,,,,,,gray,diamond
0.0,3.0,3.0,0.0,5.0,5.0,610.8959619887173,2.0,0.0,part_2,go,450.0,450.0,1.0,,,,,,,,,magenta,cross
0.0,8.0,4.0,1.0,5.0,0.0,0.0,2.0,0.0,part_2,stop,450.0,450.0,4.0,,,,,,,,,gray,diamond
0.0,8.0,4.0,1.0,5.0,5.0,592.8968500811607,2.0,0.0,part_2,go,500.0,450.0,1.0,,,,,,,,,gray,diamond
0.0,1.0,1.0,0.0,5.0,5.0,689.994189189747,2.0,0.0,part_2,go,500.0,450.0,1.0,,,,,,,,,blue,square
0.0,2.0,2.0,0.0,5.0,5.0,615.5681908130646,2.0,0.0,part_2,go,500.0,450.0,1.0,,,,,,,,,white,flipped triangle
0.0,5.0,1.0,1.0,6.0,6.0,621.6901740990579,2.0,0.0,part_2,go,500.0,450.0,1.0,,,,,,,,,cyan,circle
0.0,1.0,1.0,0.0,5.0,5.0,632.3674658779055,2.0,0.0,part_2,go,500.0,450.0,1.0,,,,,,,,,blue,square
0.0,7.0,3.0,1.0,6.0,0.0,0.0,2.0,0.0,part_2,stop,500.0,450.0,4.0,,,,,,,,,orange,hexagon
0.0,6.0,2.0,1.0,6.0,0.0,0.0,2.0,0.0,part_2,stop,500.0,500.0,4.0,,,,,,,,,green,I
0.0,2.0,2.0,0.0,5.0,5.0,693.987641017884,2.0,0.0,part_2,go,500.0,550.0,1.0,,,,,,,,,white,flipped triangle
0.0,5.0,1.0,1.0,5.0,5.0,590.506762964651,2.0,0.0,part_2,stop,500.0,550.0,3.0,,,,,,,,,cyan,circle
0.0,4.0,4.0,0.0,6.0,6.0,618.2076870463789,2.0,0.0,part_2,go,450.0,550.0,1.0,,,,,,,,,yellow,triangle
0.0,7.0,3.0,1.0,5.0,5.0,610.3545450605452,2.0,0.0,part_2,go,450.0,550.0,1.0,,,,,,,,,orange,hexagon
0.0,8.0,4.0,1.0,5.0,0.0,0.0,2.0,0.0,part_2,stop,450.0,550.0,4.0,,,,,,,,,gray,diamond
0.0,2.0,2.0,0.0,6.0,6.0,529.017596039921,2.0,0.0,part_2,go,500.0,550.0,1.0,,,,,,,,,white,flipped triangle
0.0,6.0,2.0,1.0,6.0,6.0,584.7159300465137,2.0,0.0,part_2,stop,500.0,550.0,3.0,,,,,,,,,green,I
0.0,3.0,3.0,0.0,6.0,6.0,627.07634200342,2.0,0.0,part_2,go,500.0,500.0,1.0,,,,,,,,,magenta,cross
0.0,7.0,3.0,1.0,5.0,5.0,486.8222100194543,2.0,0.0,part_2,stop,500.0,500.0,3.0,,,,,,,,,orange,hexagon
0.0,8.0,4.0,1.0,5.0,5.0,729.806151939556,2.0,0.0,part_2,go,450.0,500.0,1.0,,,,,,,,,gray,diamond
0.0,4.0,4.0,0.0,6.0,6.0,528.9524300023913,2.0,0.0,part_2,go,450.0,500.0,1.0,,,,,,,,,yellow,triangle
0.0,1.0,1.0,0.0,6.0,6.0,525.4106000065804,2.0,0.0,part_2,go,450.0,500.0,1.0,,,,,,,,,blue,square
0.0,4.0,4.0,0.0,5.0,5.0,550.2877209801227,2.0,0.0,part_2,go,450.0,500.0,1.0,,,,,,,,,yellow,triangle
0.0,4.0,4.0,0.0,6.0,6.0,548.3529909979552,2.0,0.0,part_2,go,450.0,500.0,1.0,,,,,,,,,yellow,triangle
0.0,2.0,2.0,0.0,5.0,5.0,684.1169709805399,2.0,0.0,part_2,go,450.0,500.0,1.0,,,,,,,,,white,flipped triangle
0.0,6.0,2.0,1.0,6.0,6.0,459.4543110579252,2.0,0.0,part_2,stop,450.0,500.0,3.0,,,,,,,,,green,I
0.0,1.0,1.0,0.0,5.0,5.0,533.6058309767395,2.0,0.0,part_2,go,450.0,450.0,1.0,,,,,,,,,blue,square
0.0,5.0,1.0,1.0,5.0,5.0,395.7527780439704,2.0,0.0,part_2,go,450.0,450.0,1.0,,,,,,,,,cyan,circle
0.0,7.0,3.0,1.0,6.0,6.0,569.3571688607335,2.0,0.0,part_2,stop,450.0,450.0,3.0,,,,,,,,,orange,hexagon
0.0,2.0,2.0,0.0,6.0,6.0,577.4472919292748,2.0,0.0,part_2,go,450.0,400.0,1.0,,,,,,,,,white,flipped triangle
0.0,4.0,4.0,0.0,5.0,5.0,328.9356569293886,2.0,0.0,part_2,go,450.0,400.0,1.0,,,,,,,,,yellow,triangle
0.0,5.0,1.0,1.0,5.0,5.0,373.3708951622247,3.0,0.0,part_2,stop,450.0,400.0,3.0,,,,,,,,,cyan,circle
0.0,8.0,4.0,1.0,6.0,6.0,328.0910800676793,3.0,0.0,part_2,stop,400.0,400.0,3.0,,,,,,,,,gray,diamond
0.0,7.0,3.0,1.0,6.0,6.0,631.5658069215715,3.0,0.0,part_2,go,400.0,350.0,1.0,,,,,,,,,orange,hexagon
0.0,5.0,1.0,1.0,5.0,0.0,0.0,3.0,0.0,part_2,stop,400.0,350.0,4.0,,,,,,,,,cyan,circle
0.0,1.0,1.0,0.0,6.0,6.0,742.1195839997381,3.0,0.0,part_2,go,450.0,350.0,1.0,,,,,,,,,blue,square
0.0,3.0,3.0,0.0,6.0,6.0,620.2471081633121,3.0,0.0,part_2,go,450.0,350.0,1.0,,,,,,,,,magenta,cross
0.0,6.0,2.0,1.0,6.0,0.0,0.0,3.0,0.0,part_2,stop,450.0,350.0,4.0,,,,,,,,,green,I
0.0,8.0,4.0,1.0,6.0,0.0,0.0,3.0,0.0,part_2,stop,450.0,400.0,4.0,,,,,,,,,gray,diamond
0.0,4.0,4.0,0.0,5.0,5.0,336.8965878617018,3.0,0.0,part_2,go,450.0,450.0,1.0,,,,,,,,,yellow,triangle
0.0,3.0,3.0,0.0,5.0,5.0,673.4035338740796,3.0,0.0,part_2,go,450.0,450.0,1.0,,,,,,,,,magenta,cross
0.0,5.0,1.0,1.0,6.0,0.0,0.0,3.0,0.0,part_2,stop,450.0,450.0,4.0,,,,,,,,,cyan,circle
0.0,4.0,4.0,0.0,6.0,6.0,704.4412870891392,3.0,0.0,part_2,go,450.0,500.0,1.0,,,,,,,,,yellow,triangle
0.0,6.0,2.0,1.0,6.0,0.0,0.0,3.0,0.0,part_2,stop,450.0,500.0,4.0,,,,,,,,,green,I
0.0,7.0,3.0,1.0,5.0,5.0,687.7130819484591,3.0,0.0,part_2,go,450.0,550.0,1.0,,,,,,,,,orange,hexagon
0.0,7.0,3.0,1.0,6.0,6.0,574.3535561487079,3.0,0.0,part_2,stop,450.0,550.0,3.0,,,,,,,,,orange,hexagon
0.0,1.0,1.0,0.0,5.0,5.0,574.6110689360648,3.0,0.0,part_2,go,450.0,500.0,1.0,,,,,,,,,blue,square
0.0,5.0,1.0,1.0,6.0,6.0,628.7940638139844,3.0,0.0,part_2,stop,450.0,500.0,3.0,,,,,,,,,cyan,circle
0.0,3.0,3.0,0.0,6.0,6.0,622.764301020652,3.0,0.0,part_2,go,450.0,450.0,1.0,,,,,,,,,magenta,cross
0.0,1.0,1.0,0.0,6.0,6.0,803.5975689999759,3.0,0.0,part_2,go,450.0,450.0,1.0,,,,,,,,,blue,square
0.0,8.0,4.0,1.0,5.0,0.0,0.0,3.0,0.0,part_2,stop,450.0,450.0,4.0,,,,,,,,,gray,diamond
0.0,6.0,2.0,1.0,5.0,5.0,691.3370219990611,3.0,0.0,part_2,go,500.0,450.0,1.0,,,,,,,,,green,I
0.0,6.0,2.0,1.0,5.0,0.0,0.0,3.0,0.0,part_2,stop,500.0,450.0,4.0,,,,,,,,,green,I
0.0,5.0,1.0,1.0,5.0,5.0,532.5030800886452,3.0,0.0,part_2,stop,550.0,450.0,3.0,,,,,,,,,cyan,circle
0.0,3.0,3.0,0.0,5.0,5.0,616.4359739050269,3.0,0.0,part_2,go,500.0,450.0,1.0,,,,,,,,,magenta,cross
0.0,2.0,2.0,0.0,6.0,6.0,672.5144470110536,3.0,0.0,part_2,go,500.0,450.0,1.0,,,,,,,,,white,flipped triangle
0.0,3.0,3.0,0.0,6.0,6.0,599.9753710348159,3.0,0.0,part_2,go,500.0,450.0,1.0,,,,,,,,,magenta,cross
0.0,3.0,3.0,0.0,5.0,5.0,683.1022531259805,3.0,0.0,part_2,go,500.0,450.0,1.0,,,,,,,,,magenta,cross
0.0,8.0,4.0,1.0,5.0,5.0,760.6455129571259,3.0,0.0,part_2,go,500.0,450.0,1.0,,,,,,,,,gray,diamond
0.0,1.0,1.0,0.0,5.0,5.0,666.1665390711278,3.0,0.0,part_2,go,500.0,450.0,1.0,,,,,,,,,blue,square
0.0,3.0,3.0,0.0,6.0,6.0,728.6495608277619,3.0,0.0,part_2,go,500.0,450.0,1.0,,,,,,,,,magenta,cross
0.0,6.0,2.0,1.0,6.0,0.0,0.0,3.0,0.0,part_2,stop,500.0,450.0,4.0,,,,,,,,,green,I
0.0,5.0,1.0,1.0,6.0,6.0,766.0020280163735,3.0,0.0,part_2,go,500.0,500.0,1.0,,,,,,,,,cyan,circle
0.0,7.0,3.0,1.0,5.0,5.0,599.7372718993574,3.0,0.0,part_2,stop,500.0,500.0,3.0,,,,,,,,,orange,hexagon
0.0,2.0,2.0,0.0,6.0,6.0,916.1424031481148,3.0,0.0,part_2,go,450.0,500.0,1.0,,,,,,,,,white,flipped triangle
0.0,8.0,4.0,1.0,5.0,0.0,0.0,3.0,0.0,part_2,stop,450.0,500.0,4.0,,,,,,,,,gray,diamond
0.0,5.0,1.0,1.0,5.0,5.0,553.8946809247136,3.0,0.0,part_2,stop,500.0,500.0,3.0,,,,,,,,,cyan,circle
0.0,8.0,4.0,1.0,6.0,6.0,574.0275380667299,4.0,0.0,part_2,stop,450.0,500.0,3.0,,,,,,,,,gray,diamond
0.0,3.0,3.0,0.0,5.0,5.0,420.9538290742785,4.0,0.0,part_2,go,450.0,450.0,1.0,,,,,,,,,magenta,cross
0.0,3.0,3.0,0.0,6.0,6.0,524.9834540300071,4.0,0.0,part_2,go,450.0,450.0,1.0,,,,,,,,,magenta,cross
0.0,2.0,2.0,0.0,5.0,5.0,563.6882190592587,4.0,0.0,part_2,go,450.0,450.0,1.0,,,,,,,,,white,flipped triangle
0.0,2.0,2.0,0.0,5.0,5.0,600.2293569035828,4.0,0.0,part_2,go,450.0,450.0,1.0,,,,,,,,,white,flipped triangle
0.0,2.0,2.0,0.0,6.0,6.0,601.9280299078673,4.0,0.0,part_2,go,450.0,450.0,1.0,,,,,,,,,white,flipped triangle
0.0,3.0,3.0,0.0,6.0,6.0,585.7142771128565,4.0,0.0,part_2,go,450.0,450.0,1.0,,,,,,,,,magenta,cross
0.0,7.0,3.0,1.0,6.0,6.0,519.1126549616456,4.0,0.0,part_2,go,450.0,450.0,1.0,,,,,,,,,orange,hexagon
0.0,1.0,1.0,0.0,5.0,5.0,697.2460818942636,4.0,0.0,part_2,go,450.0,450.0,1.0,,,,,,,,,blue,square
0.0,7.0,3.0,1.0,6.0,6.0,510.28473814949393,4.0,0.0,part_2,stop,450.0,450.0,3.0,,,,,,,,,orange,hexagon
0.0,7.0,3.0,1.0,6.0,6.0,559.9078240338713,4.0,0.0,part_2,stop,450.0,400.0,3.0,,,,,,,,,orange,hexagon
0.0,8.0,4.0,1.0,6.0,0.0,0.0,4.0,0.0,part_2,stop,450.0,350.0,4.0,,,,,,,,,gray,diamond
0.0,3.0,3.0,0.0,5.0,5.0,405.1630839239806,4.0,0.0,part_2,go,450.0,400.0,1.0,,,,,,,,,magenta,cross
0.0,3.0,3.0,0.0,5.0,5.0,564.9787380825728,4.0,0.0,part_2,go,450.0,400.0,1.0,,,,,,,,,magenta,cross
0.0,6.0,2.0,1.0,6.0,6.0,478.0613330658525,4.0,0.0,part_2,stop,450.0,400.0,3.0,,,,,,,,,green,I
0.0,7.0,3.0,1.0,6.0,6.0,586.1413211096078,4.0,0.0,part_2,go,450.0,350.0,1.0,,,,,,,,,orange,hexagon
0.0,6.0,2.0,1.0,5.0,5.0,298.9112958312034,4.0,0.0,part_2,stop,450.0,350.0,3.0,,,,,,,,,green,I
0.0,4.0,4.0,0.0,5.0,5.0,553.5275521688163,4.0,0.0,part_2,go,400.0,350.0,1.0,,,,,,,,,yellow,triangle
0.0,3.0,3.0,0.0,6.0,6.0,500.1499399077147,4.0,0.0,part_2,go,400.0,350.0,1.0,,,,,,,,,magenta,cross
0.0,2.0,2.0,0.0,6.0,6.0,361.808385932818,4.0,0.0,part_2,go,400.0,350.0,1.0,,,,,,,,,white,flipped triangle
0.0,6.0,2.0,1.0,5.0,5.0,607.8304739203304,4.0,0.0,part_2,go,400.0,350.0,1.0,,,,,,,,,green,I
0.0,2.0,2.0,0.0,5.0,5.0,687.278144992888,4.0,0.0,part_2,go,400.0,350.0,1.0,,,,,,,,,white,flipped triangle
0.0,8.0,4.0,1.0,6.0,0.0,0.0,4.0,0.0,part_2,stop,400.0,350.0,4.0,,,,,,,,,gray,diamond
0.0,2.0,2.0,0.0,5.0,5.0,743.8650468830019,4.0,0.0,part_2,go,400.0,400.0,1.0,,,,,,,,,white,flipped triangle
0.0,4.0,4.0,0.0,5.0,5.0,585.6785019859672,4.0,0.0,part_2,go,400.0,400.0,1.0,,,,,,,,,yellow,triangle
0.0,4.0,4.0,0.0,5.0,5.0,624.8381109908223,4.0,0.0,part_2,go,400.0,400.0,1.0,,,,,,,,,yellow,triangle
0.0,1.0,1.0,0.0,5.0,5.0,647.9539321735501,4.0,0.0,part_2,go,400.0,400.0,1.0,,,,,,,,,blue,square
0.0,8.0,4.0,1.0,5.0,0.0,0.0,4.0,0.0,part_2,stop,400.0,400.0,4.0,,,,,,,,,gray,diamond
0.0,6.0,2.0,1.0,5.0,5.0,607.0127368438989,4.0,0.0,part_2,stop,450.0,400.0,3.0,,,,,,,,,green,I
0.0,3.0,3.0,0.0,6.0,6.0,586.4195320755243,4.0,0.0,part_2,go,400.0,400.0,1.0,,,,,,,,,magenta,cross
0.0,7.0,3.0,1.0,5.0,0.0,0.0,4.0,0.0,part_2,stop,400.0,400.0,4.0,,,,,,,,,orange,hexagon
0.0,6.0,2.0,1.0,6.0,0.0,0.0,4.0,0.0,part_2,stop,450.0,400.0,4.0,,,,,,,,,green,I
0.0,4.0,4.0,0.0,5.0,5.0,601.429102011025,4.0,0.0,part_2,go,450.0,450.0,1.0,,,,,,,,,yellow,triangle
0.0,4.0,4.0,0.0,6.0,6.0,548.0593179818243,4.0,0.0,part_2,go,450.0,450.0,1.0,,,,,,,,,yellow,triangle
0.0,3.0,3.0,0.0,5.0,5.0,721.7888841405511,4.0,0.0,part_2,go,450.0,450.0,1.0,,,,,,,,,magenta,cross
0.0,5.0,1.0,1.0,5.0,5.0,472.2135318443179,4.0,0.0,part_2,stop,450.0,450.0,3.0,,,,,,,,,cyan,circle
0.0,2.0,2.0,0.0,6.0,6.0,577.6496089529246,5.0,0.0,part_2,go,400.0,450.0,1.0,,,,,,,,,white,flipped triangle
0.0,8.0,4.0,1.0,6.0,0.0,0.0,5.0,0.0,part_2,stop,400.0,450.0,4.0,,,,,,,,,gray,diamond
0.0,2.0,2.0,0.0,5.0,5.0,488.5843330994248,5.0,0.0,part_2,go,400.0,500.0,1.0,,,,,,,,,white,flipped triangle
0.0,4.0,4.0,0.0,5.0,5.0,560.077449074015,5.0,0.0,part_2,go,400.0,500.0,1.0,,,,,,,,,yellow,triangle
0.0,7.0,3.0,1.0,5.0,5.0,520.2479460276663,5.0,0.0,part_2,go,400.0,500.0,1.0,,,,,,,,,orange,hexagon
0.0,2.0,2.0,0.0,6.0,6.0,584.4896538183093,5.0,0.0,part_2,go,400.0,500.0,1.0,,,,,,,,,white,flipped triangle
0.0,5.0,1.0,1.0,6.0,6.0,552.2407069802284,5.0,0.0,part_2,stop,400.0,500.0,3.0,,,,,,,,,cyan,circle
0.0,3.0,3.0,0.0,6.0,6.0,523.6881140153855,5.0,0.0,part_2,go,400.0,450.0,1.0,,,,,,,,,magenta,cross
0.0,5.0,1.0,1.0,6.0,6.0,466.7686128523201,5.0,0.0,part_2,stop,400.0,450.0,3.0,,,,,,,,,cyan,circle
0.0,7.0,3.0,1.0,5.0,0.0,0.0,5.0,0.0,part_2,stop,400.0,400.0,4.0,,,,,,,,,orange,hexagon
0.0,1.0,1.0,0.0,5.0,5.0,396.3111180346459,5.0,0.0,part_2,go,450.0,400.0,1.0,,,,,,,,,blue,square
0.0,2.0,2.0,0.0,6.0,6.0,549.6184180956334,5.0,0.0,part_2,go,450.0,400.0,1.0,,,,,,,,,white,flipped triangle
0.0,4.0,4.0,0.0,6.0,6.0,538.9393309596926,5.0,0.0,part_2,go,450.0,400.0,1.0,,,,,,,,,yellow,triangle
0.0,4.0,4.0,0.0,6.0,6.0,658.9620250742882,5.0,0.0,part_2,go,450.0,400.0,1.0,,,,,,,,,yellow,triangle
0.0,5.0,1.0,1.0,5.0,0.0,0.0,5.0,0.0,part_2,stop,450.0,400.0,4.0,,,,,,,,,cyan,circle
0.0,7.0,3.0,1.0,6.0,6.0,522.9382310062647,5.0,0.0,part_2,stop,500.0,400.0,3.0,,,,,,,,,orange,hexagon
0.0,1.0,1.0,0.0,6.0,6.0,513.4892920032144,5.0,0.0,part_2,go,500.0,350.0,1.0,,,,,,,,,blue,square
0.0,2.0,2.0,0.0,6.0,6.0,609.413153026253,5.0,0.0,part_2,go,500.0,350.0,1.0,,,,,,,,,white,flipped triangle
0.0,8.0,4.0,1.0,5.0,5.0,655.1762751769274,5.0,0.0,part_2,stop,500.0,350.0,3.0,,,,,,,,,gray,diamond
0.0,1.0,1.0,0.0,5.0,5.0,669.7706808336079,5.0,0.0,part_2,go,450.0,350.0,1.0,,,,,,,,,blue,square
0.0,2.0,2.0,0.0,6.0,6.0,606.201816117391,5.0,0.0,part_2,go,450.0,350.0,1.0,,,,,,,,,white,flipped triangle
0.0,8.0,4.0,1.0,5.0,5.0,479.5593640301376,5.0,0.0,part_2,go,450.0,350.0,1.0,,,,,,,,,gray,diamond
0.0,2.0,2.0,0.0,6.0,6.0,446.6274201404303,5.0,0.0,part_2,go,450.0,350.0,1.0,,,,,,,,,white,flipped triangle
0.0,6.0,2.0,1.0,5.0,0.0,0.0,5.0,0.0,part_2,stop,450.0,350.0,4.0,,,,,,,,,green,I
0.0,6.0,2.0,1.0,5.0,5.0,732.4337931349874,5.0,0.0,part_2,go,500.0,350.0,1.0,,,,,,,,,green,I
0.0,4.0,4.0,0.0,6.0,6.0,354.52958499081427,5.0,0.0,part_2,go,500.0,350.0,1.0,,,,,,,,,yellow,triangle
0.0,4.0,4.0,0.0,6.0,6.0,348.0887380428612,5.0,0.0,part_2,go,500.0,350.0,1.0,,,,,,,,,yellow,triangle
0.0,7.0,3.0,1.0,6.0,0.0,0.0,5.0,0.0,part_2,stop,500.0,350.0,4.0,,,,,,,,,orange,hexagon
0.0,7.0,3.0,1.0,5.0,0.0,0.0,5.0,0.0,part_2,stop,500.0,400.0,4.0,,,,,,,,,orange,hexagon
0.0,8.0,4.0,1.0,6.0,0.0,0.0,5.0,0.0,part_2,stop,550.0,400.0,4.0,,,,,,,,,gray,diamond
0.0,2.0,2.0,0.0,5.0,5.0,703.3503481652588,5.0,0.0,part_2,go,550.0,450.0,1.0,,,,,,,,,white,flipped triangle
0.0,4.0,4.0,0.0,6.0,6.0,697.5329299457371,5.0,0.0,part_2,go,550.0,450.0,1.0,,,,,,,,,yellow,triangle
0.0,3.0,3.0,0.0,5.0,5.0,391.8964131735265,5.0,0.0,part_2,go,550.0,450.0,1.0,,,,,,,,,magenta,cross
0.0,1.0,1.0,0.0,6.0,6.0,439.3777430523187,5.0,0.0,part_2,go,550.0,450.0,1.0,,,,,,,,,blue,square
0.0,5.0,1.0,1.0,6.0,6.0,751.4746219385415,5.0,0.0,part_2,go,550.0,450.0,1.0,,,,,,,,,cyan,circle
0.0,7.0,3.0,1.0,6.0,0.0,0.0,5.0,0.0,part_2,stop,550.0,450.0,4.0,,,,,,,,,orange,hexagon
0.0,4.0,4.0,0.0,5.0,5.0,445.4721959773451,6.0,0.0,part_2,go,550.0,500.0,1.0,,,,,,,,,yellow,triangle
0.0,7.0,3.0,1.0,6.0,0.0,0.0,6.0,0.0,part_2,stop,550.0,500.0,4.0,,,,,,,,,orange,hexagon
0.0,2.0,2.0,0.0,6.0,6.0,594.3641841877252,6.0,0.0,part_2,go,550.0,550.0,1.0,,,,,,,,,white,flipped triangle
0.0,5.0,1.0,1.0,6.0,6.0,524.2716588545591,6.0,0.0,part_2,stop,550.0,550.0,3.0,,,,,,,,,cyan,circle
0.0,8.0,4.0,1.0,5.0,5.0,299.3726290296763,6.0,0.0,part_2,go,550.0,500.0,1.0,,,,,,,,,gray,diamond
0.0,7.0,3.0,1.0,5.0,5.0,532.3139778338373,6.0,0.0,part_2,stop,550.0,500.0,3.0,,,,,,,,,orange,hexagon
0.0,5.0,1.0,1.0,6.0,6.0,427.0826161373406,6.0,0.0,part_2,go,500.0,500.0,1.0,,,,,,,,,cyan,circle
0.0,8.0,4.0,1.0,6.0,6.0,328.3926520962268,6.0,0.0,part_2,stop,500.0,500.0,3.0,,,,,,,,,gray,diamond
0.0,8.0,4.0,1.0,6.0,6.0,569.9590160511434,6.0,0.0,part_2,go,500.0,450.0,1.0,,,,,,,,,gray,diamond
0.0,6.0,2.0,1.0,6.0,6.0,336.2496769987046,6.0,0.0,part_2,go,500.0,450.0,1.0,,,,,,,,,green,I
0.0,3.0,3.0,0.0,5.0,5.0,615.8761319238693,6.0,0.0,part_2,go,500.0,450.0,1.0,,,,,,,,,magenta,cross
0.0,5.0,1.0,1.0,5.0,5.0,381.6038661170751,6.0,0.0,part_2,stop,500.0,450.0,3.0,,,,,,,,,cyan,circle
0.0,1.0,1.0,0.0,6.0,6.0,528.4246630035341,6.0,0.0,part_2,go,450.0,450.0,1.0,,,,,,,,,blue,square
0.0,6.0,2.0,1.0,5.0,5.0,687.1676950249821,6.0,0.0,part_2,go,450.0,450.0,1.0,,,,,,,,,green,I
0.0,2.0,2.0,0.0,5.0,5.0,652.2793490439653,6.0,0.0,part_2,go,450.0,450.0,1.0,,,,,,,,,white,flipped triangle
0.0,2.0,2.0,0.0,6.0,6.0,402.6360041461885,6.0,0.0,part_2,go,450.0,450.0,1.0,,,,,,,,,white,flipped triangle
0.0,1.0,1.0,0.0,6.0,6.0,574.8068031389266,6.0,0.0,part_2,go,450.0,450.0,1.0,,,,,,,,,blue,square
0.0,6.0,2.0,1.0,6.0,6.0,657.9690698999912,6.0,0.0,part_2,go,450.0,450.0,1.0,,,,,,,,,green,I
0.0,4.0,4.0,0.0,5.0,5.0,860.2119837887585,6.0,0.0,part_2,go,450.0,450.0,1.0,,,,,,,,,yellow,triangle
0.0,5.0,1.0,1.0,6.0,6.0,1003.3163519110531,6.0,0.0,part_2,go,450.0,450.0,1.0,,,,,,,,,cyan,circle
0.0,5.0,1.0,1.0,5.0,5.0,904.4399480335414,6.0,0.0,part_2,go,450.0,450.0,1.0,,,,,,,,,cyan,circle
0.0,7.0,3.0,1.0,5.0,0.0,0.0,6.0,0.0,part_2,stop,450.0,450.0,4.0,,,,,,,,,orange,hexagon
0.0,4.0,4.0,0.0,6.0,6.0,745.2614230569452,6.0,0.0,part_2,go,500.0,450.0,1.0,,,,,,,,,yellow,triangle
0.0,3.0,3.0,0.0,6.0,6.0,783.1287898588926,6.0,0.0,part_2,go,500.0,450.0,1.0,,,,,,,,,magenta,cross
0.0,5.0,1.0,1.0,6.0,0.0,0.0,6.0,0.0,part_2,stop,500.0,450.0,4.0,,,,,,,,,cyan,circle
0.0,2.0,2.0,0.0,6.0,6.0,573.6868069507182,6.0,0.0,part_2,go,500.0,500.0,1.0,,,,,,,,,white,flipped triangle
0.0,2.0,2.0,0.0,5.0,5.0,689.0081379096955,6.0,0.0,part_2,go,500.0,500.0,1.0,,,,,,,,,white,flipped triangle
0.0,4.0,4.0,0.0,6.0,6.0,439.0176408924162,6.0,0.0,part_2,go,500.0,500.0,1.0,,,,,,,,,yellow,triangle
0.0,8.0,4.0,1.0,6.0,0.0,0.0,6.0,0.0,part_2,stop,500.0,500.0,4.0,,,,,,,,,gray,diamond
0.0,2.0,2.0,0.0,5.0,5.0,762.9262630362064,6.0,0.0,part_2,go,500.0,550.0,1.0,,,,,,,,,white,flipped triangle
0.0,7.0,3.0,1.0,6.0,6.0,483.5047300439328,6.0,0.0,part_2,stop,500.0,550.0,3.0,,,,,,,,,orange,hexagon
0.0,1.0,1.0,0.0,6.0,6.0,517.0469391159713,6.0,0.0,part_2,go,500.0,500.0,1.0,,,,,,,,,blue,square
0.0,7.0,3.0,1.0,6.0,6.0,389.6191399544477,6.0,0.0,part_2,stop,500.0,500.0,3.0,,,,,,,,,orange,hexagon
0.0,6.0,2.0,1.0,5.0,5.0,473.4031360130757,6.0,0.0,part_2,stop,500.0,450.0,3.0,,,,,,,,,green,I
0.0,1.0,1.0,0.0,6.0,6.0,547.204728005454,6.0,0.0,part_2,go,450.0,450.0,1.0,,,,,,,,,blue,square
0.0,4.0,4.0,0.0,6.0,6.0,345.8034400828182,6.0,0.0,part_2,go,450.0,450.0,1.0,,,,,,,,,yellow,triangle
0.0,8.0,4.0,1.0,5.0,0.0,0.0,7.0,0.0,part_2,stop,450.0,450.0,4.0,,,,,,,,,gray,diamond
0.0,6.0,2.0,1.0,5.0,5.0,387.9087069071829,7.0,0.0,part_2,stop,500.0,450.0,3.0,,,,,,,,,green,I
0.0,6.0,2.0,1.0,5.0,5.0,356.1890551354736,7.0,0.0,part_2,stop,450.0,450.0,3.0,,,,,,,,,green,I
0.0,3.0,3.0,0.0,5.0,5.0,307.8942589927465,7.0,0.0,part_2,go,400.0,450.0,1.0,,,,,,,,,magenta,cross
0.0,5.0,1.0,1.0,6.0,6.0,324.3580008856952,7.0,0.0,part_2,stop,400.0,450.0,3.0,,,,,,,,,cyan,circle
0.0,1.0,1.0,0.0,5.0,5.0,442.7603031508624,7.0,0.0,part_2,go,400.0,400.0,1.0,,,,,,,,,blue,square
0.0,7.0,3.0,1.0,6.0,6.0,393.3440698310733,7.0,0.0,part_2,go,400.0,400.0,1.0,,,,,,,,,orange,hexagon
0.0,3.0,3.0,0.0,6.0,6.0,368.622959125787,7.0,0.0,part_2,go,400.0,400.0,1.0,,,,,,,,,magenta,cross
0.0,1.0,1.0,0.0,6.0,6.0,327.1036769729107,7.0,0.0,part_2,go,400.0,400.0,1.0,,,,,,,,,blue,square
0.0,6.0,2.0,1.0,6.0,6.0,743.542772019282,7.0,0.0,part_2,go,400.0,400.0,1.0,,,,,,,,,green,I
0.0,6.0,2.0,1.0,6.0,0.0,0.0,7.0,0.0,part_2,stop,400.0,400.0,4.0,,,,,,,,,green,I
0.0,4.0,4.0,0.0,6.0,6.0,597.8625039570034,7.0,0.0,part_2,go,400.0,450.0,1.0,,,,,,,,,yellow,triangle
0.0,7.0,3.0,1.0,6.0,6.0,447.0312469638884,7.0,0.0,part_2,stop,400.0,450.0,3.0,,,,,,,,,orange,hexagon
0.0,5.0,1.0,1.0,6.0,0.0,0.0,7.0,0.0,part_2,stop,400.0,400.0,4.0,,,,,,,,,cyan,circle
0.0,6.0,2.0,1.0,6.0,6.0,590.6883089337498,7.0,0.0,part_2,stop,400.0,450.0,3.0,,,,,,,,,green,I
0.0,6.0,2.0,1.0,5.0,5.0,562.6527690328658,7.0,0.0,part_2,go,400.0,400.0,1.0,,,,,,,,,green,I
0.0,2.0,2.0,0.0,6.0,6.0,355.6570159271359,7.0,0.0,part_2,go,400.0,400.0,1.0,,,,,,,,,white,flipped triangle
0.0,1.0,1.0,0.0,6.0,6.0,523.3955918811262,7.0,0.0,part_2,go,400.0,400.0,1.0,,,,,,,,,blue,square
0.0,7.0,3.0,1.0,5.0,0.0,0.0,7.0,0.0,part_2,stop,400.0,400.0,4.0,,,,,,,,,orange,hexagon
0.0,1.0,1.0,0.0,5.0,6.0,386.1912041902542,7.0,0.0,part_2,go,450.0,400.0,2.0,,,,,,,,,blue,square
0.0,3.0,3.0,0.0,6.0,6.0,439.261264167726,7.0,0.0,part_2,go,450.0,400.0,1.0,,,,,,,,,magenta,cross
0.0,5.0,1.0,1.0,5.0,0.0,0.0,7.0,0.0,part_2,stop,450.0,400.0,4.0,,,,,,,,,cyan,circle
0.0,7.0,3.0,1.0,5.0,5.0,336.8565160781145,7.0,0.0,part_2,stop,500.0,400.0,3.0,,,,,,,,,orange,hexagon
0.0,8.0,4.0,1.0,6.0,6.0,312.6860200427472,7.0,0.0,part_2,stop,450.0,400.0,3.0,,,,,,,,,gray,diamond
0.0,2.0,2.0,0.0,6.0,6.0,573.2617999892682,7.0,0.0,part_2,go,450.0,350.0,1.0,,,,,,,,,white,flipped triangle
0.0,3.0,3.0,0.0,6.0,6.0,654.8455900046974,7.0,0.0,part_2,go,450.0,350.0,1.0,,,,,,,,,magenta,cross
0.0,7.0,3.0,1.0,5.0,0.0,0.0,7.0,0.0,part_2,stop,450.0,350.0,4.0,,,,,,,,,orange,hexagon
0.0,8.0,4.0,1.0,6.0,6.0,687.2652729507536,7.0,0.0,part_2,go,500.0,350.0,1.0,,,,,,,,,gray,diamond
0.0,7.0,3.0,1.0,5.0,0.0,0.0,7.0,0.0,part_2,stop,500.0,350.0,4.0,,,,,,,,,orange,hexagon
0.0,7.0,3.0,1.0,5.0,5.0,467.2472148668021,7.0,0.0,part_2,stop,550.0,350.0,3.0,,,,,,,,,orange,hexagon
0.0,3.0,3.0,0.0,5.0,5.0,540.4016140382737,7.0,0.0,part_2,go,500.0,350.0,1.0,,,,,,,,,magenta,cross
0.0,5.0,1.0,1.0,5.0,5.0,729.5548981055617,7.0,0.0,part_2,stop,500.0,350.0,3.0,,,,,,,,,cyan,circle
0.0,5.0,1.0,1.0,6.0,6.0,708.3981861360371,7.0,0.0,part_2,go,450.0,350.0,1.0,,,,,,,,,cyan,circle
0.0,1.0,1.0,0.0,6.0,6.0,924.5078528765588,7.0,0.0,part_2,go,450.0,350.0,1.0,,,,,,,,,blue,square
0.0,6.0,2.0,1.0,6.0,0.0,0.0,7.0,0.0,part_2,stop,450.0,350.0,4.0,,,,,,,,,green,I
0.0,2.0,2.0,0.0,5.0,5.0,591.5491541381925,7.0,0.0,part_2,go,450.0,400.0,1.0,,,,,,,,,white,flipped triangle
0.0,2.0,2.0,0.0,5.0,5.0,950.1936649903656,8.0,0.0,part_2,go,450.0,400.0,1.0,,,,,,,,,white,flipped triangle
0.0,8.0,4.0,1.0,5.0,5.0,631.4381868578494,8.0,0.0,part_2,stop,450.0,400.0,3.0,,,,,,,,,gray,diamond
0.0,2.0,2.0,0.0,5.0,5.0,368.0438469164073,8.0,0.0,part_2,go,400.0,400.0,1.0,,,,,,,,,white,flipped triangle
0.0,5.0,1.0,1.0,6.0,6.0,423.6769189592451,8.0,0.0,part_2,stop,400.0,400.0,3.0,,,,,,,,,cyan,circle
0.0,8.0,4.0,1.0,5.0,5.0,364.6965541411191,8.0,0.0,part_2,stop,400.0,350.0,3.0,,,,,,,,,gray,diamond
0.0,4.0,4.0,0.0,5.0,5.0,718.6680641025305,8.0,0.0,part_2,go,350.0,350.0,1.0,,,,,,,,,yellow,triangle
0.0,3.0,3.0,0.0,6.0,6.0,694.0542100928724,8.0,0.0,part_2,go,350.0,350.0,1.0,,,,,,,,,magenta,cross
0.0,4.0,4.0,0.0,5.0,5.0,794.3829279392958,8.0,0.0,part_2,go,350.0,350.0,1.0,,,,,,,,,yellow,triangle
0.0,5.0,1.0,1.0,5.0,0.0,0.0,8.0,0.0,part_2,stop,350.0,350.0,4.0,,,,,,,,,cyan,circle
0.0,8.0,4.0,1.0,6.0,0.0,0.0,8.0,0.0,part_2,stop,400.0,350.0,4.0,,,,,,,,,gray,diamond
0.0,6.0,2.0,1.0,6.0,0.0,0.0,8.0,0.0,part_2,stop,400.0,400.0,4.0,,,,,,,,,green,I
0.0,2.0,2.0,0.0,5.0,5.0,889.5717710256577,8.0,0.0,part_2,go,400.0,450.0,1.0,,,,,,,,,white,flipped triangle
0.0,6.0,2.0,1.0,5.0,0.0,0.0,8.0,0.0,part_2,stop,400.0,450.0,4.0,,,,,,,,,green,I
0.0,3.0,3.0,0.0,5.0,5.0,631.9823150988668,8.0,0.0,part_2,go,450.0,450.0,1.0,,,,,,,,,magenta,cross
0.0,1.0,1.0,0.0,5.0,5.0,622.6692348718643,8.0,0.0,part_2,go,450.0,450.0,1.0,,,,,,,,,blue,square
0.0,1.0,1.0,0.0,6.0,6.0,720.0033578556031,8.0,0.0,part_2,go,450.0,450.0,1.0,,,,,,,,,blue,square
0.0,4.0,4.0,0.0,5.0,5.0,600.1783669926226,8.0,0.0,part_2,go,450.0,450.0,1.0,,,,,,,,,yellow,triangle
0.0,8.0,4.0,1.0,5.0,5.0,382.4543280061334,8.0,0.0,part_2,stop,450.0,450.0,3.0,,,,,,,,,gray,diamond
0.0,3.0,3.0,0.0,6.0,6.0,397.1186499111354,8.0,0.0,part_2,go,400.0,450.0,1.0,,,,,,,,,magenta,cross
0.0,4.0,4.0,0.0,6.0,6.0,348.0635189916938,8.0,0.0,part_2,go,400.0,450.0,1.0,,,,,,,,,yellow,triangle
0.0,5.0,1.0,1.0,5.0,5.0,547.4906291346997,8.0,0.0,part_2,stop,400.0,450.0,3.0,,,,,,,,,cyan,circle
0.0,5.0,1.0,1.0,6.0,6.0,442.9201679304242,8.0,0.0,part_2,stop,350.0,450.0,3.0,,,,,,,,,cyan,circle
0.0,8.0,4.0,1.0,6.0,6.0,381.5598078072071,8.0,0.0,part_2,go,350.0,400.0,1.0,,,,,,,,,gray,diamond
0.0,6.0,2.0,1.0,6.0,0.0,0.0,8.0,0.0,part_2,stop,350.0,400.0,4.0,,,,,,,,,green,I
0.0,7.0,3.0,1.0,5.0,5.0,451.2506718747318,8.0,0.0,part_2,go,350.0,450.0,1.0,,,,,,,,,orange,hexagon
0.0,6.0,2.0,1.0,6.0,6.0,378.8452078588307,8.0,0.0,part_2,stop,350.0,450.0,3.0,,,,,,,,,green,I
0.0,5.0,1.0,1.0,6.0,6.0,464.0827649272978,8.0,0.0,part_2,go,350.0,400.0,1.0,,,,,,,,,cyan,circle
0.0,3.0,3.0,0.0,5.0,5.0,519.937990931794,8.0,0.0,part_2,go,350.0,400.0,1.0,,,,,,,,,magenta,cross
0.0,1.0,1.0,0.0,5.0,5.0,682.5528109911829,8.0,0.0,part_2,go,350.0,400.0,1.0,,,,,,,,,blue,square
0.0,1.0,1.0,0.0,6.0,6.0,414.895388064906,8.0,0.0,part_2,go,350.0,400.0,1.0,,,,,,,,,blue,square
0.0,2.0,2.0,0.0,5.0,5.0,351.7761551775038,8.0,0.0,part_2,go,350.0,400.0,1.0,,,,,,,,,white,flipped triangle
0.0,6.0,2.0,1.0,5.0,5.0,383.4780789911747,8.0,0.0,part_2,stop,350.0,400.0,3.0,,,,,,,,,green,I
0.0,3.0,3.0,0.0,5.0,5.0,472.0400201622396,8.0,0.0,part_2,go,300.0,400.0,1.0,,,,,,,,,magenta,cross
0.0,1.0,1.0,0.0,6.0,6.0,447.2576109692454,8.0,0.0,part_2,go,300.0,400.0,1.0,,,,,,,,,blue,square
0.0,4.0,4.0,0.0,6.0,6.0,406.6573800519109,8.0,0.0,part_2,go,300.0,400.0,1.0,,,,,,,,,yellow,triangle
0.0,4.0,4.0,0.0,5.0,5.0,509.3791950494051,8.0,0.0,part_2,go,300.0,400.0,1.0,,,,,,,,,yellow,triangle
0.0,3.0,3.0,0.0,7.0,6.0,2500.407885061577,1.0,2.0,part_3,go,0.0,0.0,0.0,245.0,5.0,147.0,294.0,98.0,196.0,49.0,245.0,magenta,cross
0.0,4.0,4.0,0.0,7.0,2.0,1677.1612369921058,1.0,1.0,part_3,go,0.0,0.0,0.0,156.0,4.0,78.0,156.0,195.0,39.0,117.0,234.0,yellow,triangle
0.0,7.0,3.0,1.0,7.0,4.0,1344.3745581898838,1.0,1.0,part_3,go,0.0,0.0,0.0,234.0,6.0,78.0,39.0,117.0,234.0,195.0,156.0,orange,hexagon
0.0,6.0,2.0,1.0,7.0,6.0,1919.417425058782,1.0,1.0,part_3,go,0.0,0.0,0.0,49.0,1.0,196.0,294.0,245.0,147.0,98.0,49.0,green,I
0.0,8.0,4.0,1.0,7.0,1.0,1450.134854996577,1.0,1.0,part_3,go,0.0,0.0,0.0,136.0,4.0,136.0,68.0,204.0,102.0,170.0,34.0,gray,diamond
0.0,7.0,3.0,1.0,7.0,4.0,1251.554932910949,1.0,1.0,part_3,go,0.0,0.0,0.0,39.0,1.0,117.0,78.0,156.0,39.0,195.0,234.0,orange,hexagon
0.0,3.0,3.0,0.0,7.0,5.0,979.844236979261,1.0,1.0,part_3,go,0.0,0.0,0.0,117.0,3.0,195.0,234.0,156.0,78.0,117.0,39.0,magenta,cross
0.0,4.0,4.0,0.0,7.0,4.0,1360.3156220633537,1.0,1.0,part_3,go,0.0,0.0,0.0,136.0,4.0,102.0,34.0,170.0,136.0,68.0,204.0,yellow,triangle
0.0,6.0,2.0,1.0,7.0,3.0,929.08342811279,1.0,1.0,part_3,go,0.0,0.0,0.0,54.0,1.0,216.0,108.0,54.0,162.0,324.0,270.0,green,I
0.0,4.0,4.0,0.0,7.0,5.0,1338.6366630438715,1.0,1.0,part_3,go,0.0,0.0,0.0,294.0,6.0,49.0,245.0,196.0,98.0,294.0,147.0,yellow,triangle
0.0,5.0,1.0,1.0,7.0,2.0,771.4191419072449,1.0,1.0,part_3,go,0.0,0.0,0.0,108.0,2.0,270.0,108.0,324.0,54.0,216.0,162.0,cyan,circle
0.0,4.0,4.0,0.0,7.0,6.0,651.0250370483845,1.0,1.0,part_3,go,0.0,0.0,0.0,196.0,4.0,98.0,147.0,294.0,49.0,245.0,196.0,yellow,triangle
0.0,6.0,2.0,1.0,7.0,5.0,1117.2312460839748,1.0,1.0,part_3,go,0.0,0.0,0.0,176.0,4.0,132.0,264.0,220.0,44.0,176.0,88.0,green,I
0.0,5.0,1.0,1.0,7.0,4.0,1096.4680511970073,1.0,1.0,part_3,go,0.0,0.0,0.0,170.0,5.0,136.0,68.0,34.0,170.0,204.0,102.0,cyan,circle
0.0,1.0,1.0,0.0,7.0,1.0,878.7284048739821,1.0,1.0,part_3,go,0.0,0.0,0.0,78.0,2.0,78.0,117.0,234.0,39.0,195.0,156.0,blue,square
0.0,3.0,3.0,0.0,7.0,4.0,809.8871398251504,1.0,1.0,part_3,go,0.0,0.0,0.0,234.0,6.0,78.0,39.0,156.0,234.0,117.0,195.0,magenta,cross
0.0,8.0,4.0,1.0,7.0,6.0,956.6624530125408,1.0,1.0,part_3,go,0.0,0.0,0.0,88.0,2.0,176.0,264.0,220.0,132.0,44.0,88.0,gray,diamond
0.0,8.0,4.0,1.0,7.0,4.0,883.5831140168011,1.0,1.0,part_3,go,0.0,0.0,0.0,324.0,6.0,216.0,54.0,270.0,324.0,162.0,108.0,gray,diamond
0.0,5.0,1.0,1.0,7.0,3.0,687.1273200958967,1.0,1.0,part_3,go,0.0,0.0,0.0,49.0,1.0,294.0,245.0,49.0,147.0,98.0,196.0,cyan,circle
0.0,1.0,1.0,0.0,7.0,3.0,646.0534499492496,1.0,1.0,part_3,go,0.0,0.0,0.0,39.0,1.0,78.0,117.0,39.0,234.0,156.0,195.0,blue,square
0.0,6.0,2.0,1.0,7.0,5.0,776.3779279775918,2.0,1.0,part_3,go,0.0,0.0,0.0,264.0,6.0,176.0,132.0,220.0,44.0,264.0,88.0,green,I
0.0,2.0,2.0,0.0,7.0,3.0,949.5087680406868,2.0,1.0,part_3,go,0.0,0.0,0.0,156.0,4.0,78.0,117.0,156.0,39.0,234.0,195.0,white,flipped triangle
0.0,7.0,3.0,1.0,7.0,2.0,954.7765629831702,2.0,1.0,part_3,go,0.0,0.0,0.0,204.0,6.0,68.0,204.0,34.0,136.0,102.0,170.0,orange,hexagon
0.0,1.0,1.0,0.0,7.0,2.0,752.4271509610116,2.0,1.0,part_3,go,0.0,0.0,0.0,264.0,6.0,220.0,264.0,44.0,176.0,132.0,88.0,blue,square
0.0,1.0,1.0,0.0,7.0,3.0,1228.2783829141408,2.0,1.0,part_3,go,0.0,0.0,0.0,54.0,1.0,108.0,270.0,54.0,216.0,162.0,324.0,blue,square
0.0,6.0,2.0,1.0,7.0,5.0,1011.4363410975784,2.0,1.0,part_3,go,0.0,0.0,0.0,49.0,1.0,147.0,98.0,245.0,196.0,49.0,294.0,green,I
0.0,3.0,3.0,0.0,7.0,4.0,998.9534600172192,2.0,1.0,part_3,go,0.0,0.0,0.0,176.0,4.0,88.0,220.0,44.0,176.0,264.0,132.0,magenta,cross
0.0,2.0,2.0,0.0,7.0,3.0,965.7441538292916,2.0,1.0,part_3,go,0.0,0.0,0.0,195.0,5.0,78.0,156.0,195.0,234.0,39.0,117.0,white,flipped triangle
0.0,6.0,2.0,1.0,7.0,2.0,1047.163864132017,2.0,1.0,part_3,go,0.0,0.0,0.0,156.0,4.0,195.0,156.0,39.0,234.0,78.0,117.0,green,I
0.0,1.0,1.0,0.0,7.0,1.0,856.6447789780796,2.0,1.0,part_3,go,0.0,0.0,0.0,204.0,6.0,204.0,170.0,34.0,102.0,68.0,136.0,blue,square
0.0,2.0,2.0,0.0,7.0,3.0,1099.0202990360558,2.0,1.0,part_3,go,0.0,0.0,0.0,204.0,6.0,170.0,136.0,204.0,102.0,34.0,68.0,white,flipped triangle
0.0,6.0,2.0,1.0,7.0,5.0,958.2261040341108,2.0,1.0,part_3,go,0.0,0.0,0.0,102.0,3.0,68.0,136.0,34.0,170.0,102.0,204.0,green,I
0.0,5.0,1.0,1.0,7.0,5.0,1073.363751871511,2.0,1.0,part_3,go,0.0,0.0,0.0,270.0,5.0,324.0,108.0,54.0,162.0,270.0,216.0,cyan,circle
0.0,1.0,1.0,0.0,7.0,5.0,1080.9212981257588,2.0,1.0,part_3,go,0.0,0.0,0.0,44.0,1.0,220.0,132.0,176.0,264.0,44.0,88.0,blue,square
0.0,8.0,4.0,1.0,7.0,6.0,890.2754269074649,2.0,1.0,part_3,go,0.0,0.0,0.0,49.0,1.0,98.0,196.0,245.0,147.0,294.0,49.0,gray,diamond
0.0,2.0,2.0,0.0,7.0,6.0,987.9333600401878,2.0,1.0,part_3,go,0.0,0.0,0.0,245.0,5.0,294.0,147.0,196.0,49.0,98.0,245.0,white,flipped triangle
0.0,3.0,3.0,0.0,7.0,4.0,762.2168909292668,2.0,1.0,part_3,go,0.0,0.0,0.0,176.0,4.0,220.0,88.0,132.0,176.0,44.0,264.0,magenta,cross
0.0,3.0,3.0,0.0,7.0,2.0,739.5727799739689,2.0,1.0,part_3,go,0.0,0.0,0.0,68.0,2.0,102.0,68.0,204.0,34.0,136.0,170.0,magenta,cross
0.0,7.0,3.0,1.0,7.0,4.0,752.3622219450772,2.0,1.0,part_3,go,0.0,0.0,0.0,324.0,6.0,54.0,216.0,270.0,324.0,162.0,108.0,orange,hexagon
0.0,7.0,3.0,1.0,7.0,2.0,785.0144919939339,2.0,1.0,part_3,go,0.0,0.0,0.0,324.0,6.0,108.0,324.0,270.0,162.0,54.0,216.0,orange,hexagon
0.0,5.0,1.0,1.0,7.0,4.0,1261.2029248848555,3.0,1.0,part_3,go,0.0,0.0,0.0,49.0,1.0,294.0,196.0,147.0,49.0,245.0,98.0,cyan,circle
0.0,8.0,4.0,1.0,7.0,3.0,707.9969299957156,3.0,1.0,part_3,go,0.0,0.0,0.0,264.0,6.0,88.0,44.0,264.0,132.0,176.0,220.0,gray,diamond
0.0,2.0,2.0,0.0,7.0,2.0,926.9547960720956,3.0,1.0,part_3,go,0.0,0.0,0.0,44.0,1.0,88.0,44.0,132.0,176.0,264.0,220.0,white,flipped triangle
0.0,6.0,2.0,1.0,7.0,6.0,880.7894350029528,3.0,1.0,part_3,go,0.0,0.0,0.0,216.0,4.0,324.0,270.0,108.0,54.0,162.0,216.0,green,I
0.0,4.0,4.0,0.0,7.0,3.0,1018.2844609953463,3.0,1.0,part_3,go,0.0,0.0,0.0,162.0,3.0,216.0,270.0,162.0,324.0,54.0,108.0,yellow,triangle
0.0,8.0,4.0,1.0,7.0,6.0,563.7730888556689,3.0,1.0,part_3,go,0.0,0.0,0.0,39.0,1.0,78.0,234.0,195.0,156.0,117.0,39.0,gray,diamond
0.0,4.0,4.0,0.0,7.0,6.0,661.7942180018872,3.0,1.0,part_3,go,0.0,0.0,0.0,132.0,3.0,88.0,220.0,264.0,44.0,176.0,132.0,yellow,triangle
0.0,8.0,4.0,1.0,7.0,2.0,566.6951509192586,3.0,1.0,part_3,go,0.0,0.0,0.0,54.0,1.0,108.0,54.0,162.0,324.0,216.0,270.0,gray,diamond
0.0,5.0,1.0,1.0,7.0,3.0,589.1499419230968,3.0,1.0,part_3,go,0.0,0.0,0.0,88.0,2.0,264.0,44.0,88.0,220.0,132.0,176.0,cyan,circle
0.0,7.0,3.0,1.0,7.0,3.0,609.4073688145727,3.0,1.0,part_3,go,0.0,0.0,0.0,98.0,2.0,49.0,147.0,98.0,294.0,245.0,196.0,orange,hexagon
0.0,2.0,2.0,0.0,7.0,5.0,593.6397348996252,3.0,1.0,part_3,go,0.0,0.0,0.0,324.0,6.0,270.0,216.0,108.0,54.0,324.0,162.0,white,flipped triangle
0.0,5.0,1.0,1.0,7.0,4.0,781.3347401097417,3.0,1.0,part_3,go,0.0,0.0,0.0,156.0,4.0,195.0,39.0,117.0,156.0,78.0,234.0,cyan,circle
0.0,6.0,2.0,1.0,7.0,3.0,676.7741590738297,3.0,1.0,part_3,go,0.0,0.0,0.0,68.0,2.0,136.0,170.0,68.0,204.0,102.0,34.0,green,I
0.0,4.0,4.0,0.0,7.0,2.0,599.222238175571,3.0,1.0,part_3,go,0.0,0.0,0.0,220.0,5.0,44.0,220.0,88.0,132.0,264.0,176.0,yellow,triangle
0.0,2.0,2.0,0.0,7.0,6.0,736.3216250669211,3.0,1.0,part_3,go,0.0,0.0,0.0,147.0,3.0,98.0,294.0,49.0,245.0,196.0,147.0,white,flipped triangle
0.0,1.0,1.0,0.0,7.0,4.0,737.4349650926888,3.0,1.0,part_3,go,0.0,0.0,0.0,245.0,5.0,147.0,294.0,98.0,245.0,49.0,196.0,blue,square
0.0,8.0,4.0,1.0,7.0,1.0,667.0672439504415,3.0,1.0,part_3,go,0.0,0.0,0.0,39.0,1.0,39.0,195.0,156.0,78.0,234.0,117.0,gray,diamond
0.0,3.0,3.0,0.0,7.0,4.0,636.5618179552257,3.0,1.0,part_3,go,0.0,0.0,0.0,68.0,2.0,34.0,102.0,136.0,68.0,204.0,170.0,magenta,cross
0.0,5.0,1.0,1.0,7.0,6.0,923.4433209057896,3.0,1.0,part_3,go,0.0,0.0,0.0,176.0,4.0,264.0,44.0,220.0,88.0,132.0,176.0,cyan,circle
0.0,5.0,1.0,1.0,7.0,5.0,1030.1096288021654,3.0,1.0,part_3,go,0.0,0.0,0.0,170.0,5.0,102.0,136.0,34.0,204.0,170.0,68.0,cyan,circle
0.0,4.0,4.0,0.0,7.0,4.0,876.1372298467904,4.0,1.0,part_3,go,0.0,0.0,0.0,162.0,3.0,54.0,216.0,108.0,162.0,270.0,324.0,yellow,triangle
0.0,1.0,1.0,0.0,7.0,6.0,678.091230103746,4.0,1.0,part_3,go,0.0,0.0,0.0,68.0,2.0,34.0,170.0,136.0,102.0,204.0,68.0,blue,square
0.0,1.0,1.0,0.0,7.0,2.0,1456.8311099428684,4.0,1.0,part_3,go,0.0,0.0,0.0,54.0,1.0,324.0,54.0,270.0,216.0,108.0,162.0,blue,square
0.0,4.0,4.0,0.0,7.0,6.0,968.4803739655764,4.0,1.0,part_3,go,0.0,0.0,0.0,39.0,1.0,78.0,234.0,156.0,195.0,117.0,39.0,yellow,triangle
0.0,7.0,3.0,1.0,7.0,1.0,835.6584529392421,4.0,1.0,part_3,go,0.0,0.0,0.0,49.0,1.0,49.0,196.0,294.0,98.0,147.0,245.0,orange,hexagon
0.0,1.0,1.0,0.0,7.0,4.0,905.794559046626,4.0,1.0,part_3,go,0.0,0.0,0.0,245.0,5.0,49.0,98.0,147.0,245.0,294.0,196.0,blue,square
0.0,4.0,4.0,0.0,7.0,5.0,1218.6925848945975,4.0,1.0,part_3,go,0.0,0.0,0.0,204.0,6.0,170.0,136.0,68.0,34.0,204.0,102.0,yellow,triangle
0.0,6.0,2.0,1.0,7.0,5.0,1317.085993941873,4.0,1.0,part_3,go,0.0,0.0,0.0,195.0,5.0,234.0,156.0,78.0,117.0,195.0,39.0,green,I
0.0,5.0,1.0,1.0,7.0,3.0,1215.469418093562,4.0,1.0,part_3,go,0.0,0.0,0.0,234.0,6.0,39.0,156.0,234.0,195.0,117.0,78.0,cyan,circle
0.0,8.0,4.0,1.0,7.0,2.0,1000.2313500735909,4.0,1.0,part_3,go,0.0,0.0,0.0,245.0,5.0,196.0,245.0,98.0,147.0,294.0,49.0,gray,diamond
0.0,7.0,3.0,1.0,7.0,1.0,768.5516690835357,4.0,1.0,part_3,go,0.0,0.0,0.0,68.0,2.0,68.0,204.0,102.0,170.0,34.0,136.0,orange,hexagon
0.0,3.0,3.0,0.0,7.0,1.0,684.3624638859183,4.0,1.0,part_3,go,0.0,0.0,0.0,54.0,1.0,54.0,270.0,108.0,216.0,324.0,162.0,magenta,cross
0.0,7.0,3.0,1.0,7.0,1.0,710.4091749060899,4.0,1.0,part_3,go,0.0,0.0,0.0,88.0,2.0,88.0,264.0,220.0,44.0,132.0,176.0,orange,hexagon
0.0,3.0,3.0,0.0,7.0,5.0,949.3624980095774,4.0,1.0,part_3,go,0.0,0.0,0.0,49.0,1.0,245.0,294.0,98.0,147.0,49.0,196.0,magenta,cross
0.0,2.0,2.0,0.0,7.0,3.0,1496.0182160139084,4.0,1.0,part_3,go,0.0,0.0,0.0,54.0,1.0,162.0,216.0,54.0,108.0,324.0,270.0,white,flipped triangle
0.0,8.0,4.0,1.0,7.0,2.0,1167.7355689462274,4.0,1.0,part_3,go,0.0,0.0,0.0,204.0,6.0,170.0,204.0,136.0,34.0,102.0,68.0,gray,diamond
0.0,3.0,3.0,0.0,7.0,1.0,891.5385571308434,4.0,1.0,part_3,go,0.0,0.0,0.0,324.0,6.0,324.0,216.0,108.0,162.0,54.0,270.0,magenta,cross
0.0,2.0,2.0,0.0,7.0,3.0,827.731786062941,4.0,1.0,part_3,go,0.0,0.0,0.0,176.0,4.0,220.0,264.0,176.0,132.0,44.0,88.0,white,flipped triangle
0.0,2.0,2.0,0.0,7.0,4.0,1093.7089750077575,4.0,1.0,part_3,go,0.0,0.0,0.0,136.0,4.0,34.0,170.0,68.0,136.0,102.0,204.0,white,flipped triangle
0.0,7.0,3.0,1.0,7.0,3.0,877.7668180409819,4.0,1.0,part_3,go,0.0,0.0,0.0,220.0,5.0,132.0,88.0,220.0,44.0,264.0,176.0,orange,hexagon
