raw_reward_magnitude,stim_reward,stepwise_reward_magnitude,paired_with_stopping,stim_location,response,reaction_time,block,num_trial_presentations,which_phase,stop_signal_trial_type,left_SSD,right_SSD,accuracy,chosen_bidding_amount,chosen_bidding_level,possible_bid_1,possible_bid_2,possible_bid_3,possible_bid_4,possible_bid_5,possible_bid_6,color_text,shape_text
0.0,3.0,0.0,0.0,3.0,3.0,364.2997969873249,1.0,1.0,phase_1,,,,,,,,,,,,,magenta,diamond
419.0,8.0,4.0,1.0,2.0,2.0,306.5091269090771,1.0,1.0,phase_1,,,,,,,,,,,,,cyan,triangle
38.0,5.0,1.0,1.0,4.0,4.0,256.2894830480218,1.0,1.0,phase_1,,,,,,,,,,,,,green,hexagon
68.0,1.0,1.0,0.0,1.0,1.0,274.4817689526826,1.0,1.0,phase_1,,,,,,,,,,,,,gray,cross
0.0,3.0,0.0,0.0,2.0,2.0,255.86710800416768,1.0,1.0,phase_1,,,,,,,,,,,,,magenta,diamond
391.0,8.0,4.0,1.0,2.0,2.0,246.7223249841481,1.0,1.0,phase_1,,,,,,,,,,,,,cyan,triangle
0.0,2.0,0.0,0.0,3.0,3.0,303.4775180276483,1.0,1.0,phase_1,,,,,,,,,,,,,white,square
221.0,3.0,3.0,0.0,3.0,3.0,271.540449000895,1.0,1.0,phase_1,,,,,,,,,,,,,magenta,diamond
104.0,2.0,2.0,0.0,4.0,4.0,259.1884320136159,1.0,1.0,phase_1,,,,,,,,,,,,,white,square
386.0,8.0,4.0,1.0,3.0,3.0,269.6893729735166,1.0,1.0,phase_1,,,,,,,,,,,,,cyan,triangle
0.0,8.0,0.0,1.0,4.0,4.0,262.6073758583516,1.0,1.0,phase_1,,,,,,,,,,,,,cyan,triangle
116.0,2.0,2.0,0.0,3.0,3.0,242.08584800362578,1.0,1.0,phase_1,,,,,,,,,,,,,white,square
199.0,3.0,3.0,0.0,3.0,3.0,251.4942700508982,1.0,1.0,phase_1,,,,,,,,,,,,,magenta,diamond
72.0,1.0,1.0,0.0,2.0,2.0,290.4049770440906,1.0,1.0,phase_1,,,,,,,,,,,,,gray,cross
404.0,4.0,4.0,0.0,2.0,2.0,253.2185881864279,1.0,1.0,phase_1,,,,,,,,,,,,,yellow,flipped triangle
184.0,3.0,3.0,0.0,2.0,2.0,242.1548690181225,1.0,1.0,phase_1,,,,,,,,,,,,,magenta,diamond
58.0,5.0,1.0,1.0,2.0,2.0,270.7600819412619,1.0,1.0,phase_1,,,,,,,,,,,,,green,hexagon
199.0,3.0,3.0,0.0,4.0,4.0,303.4848100505769,1.0,1.0,phase_1,,,,,,,,,,,,,magenta,diamond
114.0,2.0,2.0,0.0,4.0,4.0,291.9654359575361,1.0,1.0,phase_1,,,,,,,,,,,,,white,square
82.0,2.0,2.0,0.0,1.0,1.0,352.6261548977345,1.0,1.0,phase_1,,,,,,,,,,,,,white,square
218.0,3.0,3.0,0.0,4.0,4.0,298.0284388177097,1.0,1.0,phase_1,,,,,,,,,,,,,magenta,diamond
202.0,3.0,3.0,0.0,1.0,1.0,270.8587779197842,1.0,1.0,phase_1,,,,,,,,,,,,,magenta,diamond
0.0,3.0,0.0,0.0,1.0,1.0,282.7211359981447,1.0,1.0,phase_1,,,,,,,,,,,,,magenta,diamond
106.0,6.0,2.0,1.0,4.0,4.0,272.4365890026092,1.0,1.0,phase_1,,,,,,,,,,,,,orange,I
386.0,4.0,4.0,0.0,4.0,4.0,293.6386109795421,1.0,1.0,phase_1,,,,,,,,,,,,,yellow,flipped triangle
423.0,8.0,4.0,1.0,2.0,2.0,282.8063368797302,1.0,1.0,phase_1,,,,,,,,,,,,,cyan,triangle
29.0,5.0,1.0,1.0,4.0,4.0,249.2846760433167,1.0,1.0,phase_1,,,,,,,,,,,,,green,hexagon
401.0,8.0,4.0,1.0,1.0,1.0,242.9539931472391,1.0,1.0,phase_1,,,,,,,,,,,,,cyan,triangle
84.0,2.0,2.0,0.0,2.0,2.0,273.7040310166776,1.0,1.0,phase_1,,,,,,,,,,,,,white,square
45.0,1.0,1.0,0.0,1.0,1.0,244.9943660758435,1.0,1.0,phase_1,,,,,,,,,,,,,gray,cross
203.0,7.0,3.0,1.0,2.0,2.0,291.3678288459778,1.0,1.0,phase_1,,,,,,,,,,,,,blue,circle
223.0,7.0,3.0,1.0,3.0,3.0,271.4631110429764,1.0,1.0,phase_1,,,,,,,,,,,,,blue,circle
88.0,2.0,2.0,0.0,1.0,1.0,273.6868089996278,1.0,1.0,phase_1,,,,,,,,,,,,,white,square
91.0,6.0,2.0,1.0,2.0,2.0,294.3200671579689,1.0,1.0,phase_1,,,,,,,,,,,,,orange,I
416.0,8.0,4.0,1.0,3.0,3.0,275.440634926781,1.0,1.0,phase_1,,,,,,,,,,,,,cyan,triangle
384.0,4.0,4.0,0.0,4.0,4.0,271.3394870515913,1.0,1.0,phase_1,,,,,,,,,,,,,yellow,flipped triangle
182.0,3.0,3.0,0.0,4.0,4.0,373.3673938550055,1.0,1.0,phase_1,,,,,,,,,,,,,magenta,diamond
61.0,1.0,1.0,0.0,4.0,4.0,257.552863098681,1.0,1.0,phase_1,,,,,,,,,,,,,gray,cross
424.0,4.0,4.0,0.0,1.0,1.0,269.9818080291152,1.0,1.0,phase_1,,,,,,,,,,,,,yellow,flipped triangle
117.0,2.0,2.0,0.0,2.0,2.0,298.0724319349974,1.0,1.0,phase_1,,,,,,,,,,,,,white,square
96.0,2.0,2.0,0.0,3.0,3.0,273.862853879109,1.0,1.0,phase_1,,,,,,,,,,,,,white,square
68.0,5.0,1.0,1.0,3.0,3.0,390.8800692297518,1.0,1.0,phase_1,,,,,,,,,,,,,green,hexagon
211.0,7.0,3.0,1.0,3.0,3.0,314.2446707934141,1.0,1.0,phase_1,,,,,,,,,,,,,blue,circle
88.0,6.0,2.0,1.0,3.0,3.0,332.9536619130522,1.0,1.0,phase_1,,,,,,,,,,,,,orange,I
0.0,2.0,0.0,0.0,3.0,3.0,316.240114858374,1.0,1.0,phase_1,,,,,,,,,,,,,white,square
59.0,1.0,1.0,0.0,4.0,4.0,273.4342331532389,1.0,1.0,phase_1,,,,,,,,,,,,,gray,cross
422.0,4.0,4.0,0.0,3.0,3.0,259.549296926707,1.0,1.0,phase_1,,,,,,,,,,,,,yellow,flipped triangle
0.0,2.0,0.0,0.0,1.0,1.0,337.6362367998808,1.0,1.0,phase_1,,,,,,,,,,,,,white,square
70.0,5.0,1.0,1.0,2.0,2.0,294.6734491270035,1.0,1.0,phase_1,,,,,,,,,,,,,green,hexagon
217.0,3.0,3.0,0.0,2.0,2.0,273.9856380503624,1.0,1.0,phase_1,,,,,,,,,,,,,magenta,diamond
0.0,7.0,0.0,1.0,2.0,2.0,439.2630299553275,1.0,1.0,phase_1,,,,,,,,,,,,,blue,circle
0.0,6.0,0.0,1.0,1.0,1.0,250.30286516994238,1.0,1.0,phase_1,,,,,,,,,,,,,orange,I
0.0,4.0,0.0,0.0,1.0,1.0,257.7939990442246,1.0,1.0,phase_1,,,,,,,,,,,,,yellow,flipped triangle
200.0,7.0,3.0,1.0,4.0,4.0,244.1662929486483,1.0,1.0,phase_1,,,,,,,,,,,,,blue,circle
187.0,7.0,3.0,1.0,4.0,4.0,248.5256090294569,1.0,1.0,phase_1,,,,,,,,,,,,,blue,circle
95.0,6.0,2.0,1.0,1.0,1.0,277.4350137915462,1.0,1.0,phase_1,,,,,,,,,,,,,orange,I
66.0,1.0,1.0,0.0,3.0,3.0,274.1675488650799,1.0,1.0,phase_1,,,,,,,,,,,,,gray,cross
187.0,7.0,3.0,1.0,1.0,1.0,265.8539838157594,1.0,1.0,phase_1,,,,,,,,,,,,,blue,circle
423.0,4.0,4.0,0.0,4.0,4.0,238.5628931224346,1.0,1.0,phase_1,,,,,,,,,,,,,yellow,flipped triangle
71.0,1.0,1.0,0.0,3.0,3.0,259.0769859962165,1.0,1.0,phase_1,,,,,,,,,,,,,gray,cross
42.0,5.0,1.0,1.0,3.0,3.0,269.2860078532249,1.0,1.0,phase_1,,,,,,,,,,,,,green,hexagon
418.0,4.0,4.0,0.0,4.0,4.0,251.3304830063134,1.0,1.0,phase_1,,,,,,,,,,,,,yellow,flipped triangle
418.0,4.0,4.0,0.0,4.0,4.0,285.9107612166554,1.0,1.0,phase_1,,,,,,,,,,,,,yellow,flipped triangle
51.0,1.0,1.0,0.0,1.0,1.0,318.7259938567877,1.0,1.0,phase_1,,,,,,,,,,,,,gray,cross
194.0,7.0,3.0,1.0,2.0,2.0,298.4617939218879,1.0,1.0,phase_1,,,,,,,,,,,,,blue,circle
180.0,3.0,3.0,0.0,2.0,2.0,246.2212990503758,1.0,1.0,phase_1,,,,,,,,,,,,,magenta,diamond
0.0,4.0,0.0,0.0,1.0,1.0,274.816001066938,1.0,1.0,phase_1,,,,,,,,,,,,,yellow,flipped triangle
119.0,2.0,2.0,0.0,3.0,3.0,285.4514659848064,1.0,1.0,phase_1,,,,,,,,,,,,,white,square
102.0,6.0,2.0,1.0,3.0,3.0,277.6851430535316,1.0,1.0,phase_1,,,,,,,,,,,,,orange,I
0.0,2.0,0.0,0.0,4.0,4.0,282.4653959833085,1.0,1.0,phase_1,,,,,,,,,,,,,white,square
199.0,7.0,3.0,1.0,1.0,1.0,236.1333810258656,1.0,1.0,phase_1,,,,,,,,,,,,,blue,circle
203.0,3.0,3.0,0.0,4.0,4.0,352.3949859663844,1.0,1.0,phase_1,,,,,,,,,,,,,magenta,diamond
34.0,5.0,1.0,1.0,1.0,1.0,287.19317400828,1.0,1.0,phase_1,,,,,,,,,,,,,green,hexagon
42.0,1.0,1.0,0.0,3.0,3.0,260.7060039881617,1.0,1.0,phase_1,,,,,,,,,,,,,gray,cross
0.0,8.0,0.0,1.0,4.0,4.0,294.8371220845729,1.0,2.0,phase_1,,,,,,,,,,,,,cyan,triangle
97.0,2.0,2.0,0.0,3.0,3.0,280.5132081266492,1.0,1.0,phase_1,,,,,,,,,,,,,white,square
408.0,4.0,4.0,0.0,2.0,2.0,309.6174118109047,1.0,1.0,phase_1,,,,,,,,,,,,,yellow,flipped triangle
30.0,5.0,1.0,1.0,3.0,3.0,289.8344860877841,1.0,1.0,phase_1,,,,,,,,,,,,,green,hexagon
0.0,2.0,0.0,0.0,3.0,3.0,286.3452669698745,1.0,1.0,phase_1,,,,,,,,,,,,,white,square
199.0,7.0,3.0,1.0,4.0,4.0,274.5975079014897,1.0,1.0,phase_1,,,,,,,,,,,,,blue,circle
203.0,3.0,3.0,0.0,3.0,3.0,250.74796006083488,1.0,1.0,phase_1,,,,,,,,,,,,,magenta,diamond
394.0,4.0,4.0,0.0,2.0,2.0,277.7552390471101,1.0,1.0,phase_1,,,,,,,,,,,,,yellow,flipped triangle
0.0,4.0,0.0,0.0,1.0,1.0,313.3634708356112,1.0,1.0,phase_1,,,,,,,,,,,,,yellow,flipped triangle
97.0,6.0,2.0,1.0,3.0,3.0,333.9726340491324,1.0,1.0,phase_1,,,,,,,,,,,,,orange,I
195.0,7.0,3.0,1.0,3.0,3.0,285.1570849306881,1.0,1.0,phase_1,,,,,,,,,,,,,blue,circle
400.0,8.0,4.0,1.0,1.0,1.0,375.1064180396497,1.0,1.0,phase_1,,,,,,,,,,,,,cyan,triangle
396.0,8.0,4.0,1.0,2.0,2.0,294.2182240076363,1.0,1.0,phase_1,,,,,,,,,,,,,cyan,triangle
87.0,6.0,2.0,1.0,2.0,2.0,320.7457370590418,1.0,1.0,phase_1,,,,,,,,,,,,,orange,I
0.0,7.0,0.0,1.0,1.0,1.0,285.5917490087449,1.0,1.0,phase_1,,,,,,,,,,,,,blue,circle
0.0,5.0,0.0,1.0,3.0,3.0,244.9871411081403,1.0,1.0,phase_1,,,,,,,,,,,,,green,hexagon
187.0,7.0,3.0,1.0,1.0,1.0,351.3753411825746,1.0,1.0,phase_1,,,,,,,,,,,,,blue,circle
396.0,8.0,4.0,1.0,1.0,1.0,315.5480229761451,1.0,1.0,phase_1,,,,,,,,,,,,,cyan,triangle
180.0,7.0,3.0,1.0,4.0,4.0,297.515950165689,1.0,1.0,phase_1,,,,,,,,,,,,,blue,circle
0.0,3.0,0.0,0.0,2.0,2.0,300.0529590062797,1.0,1.0,phase_1,,,,,,,,,,,,,magenta,diamond
44.0,1.0,1.0,0.0,2.0,2.0,313.9678889419883,1.0,1.0,phase_1,,,,,,,,,,,,,gray,cross
55.0,1.0,1.0,0.0,1.0,1.0,319.5877959951758,1.0,1.0,phase_1,,,,,,,,,,,,,gray,cross
222.0,3.0,3.0,0.0,3.0,3.0,261.2742600031197,1.0,1.0,phase_1,,,,,,,,,,,,,magenta,diamond
0.0,7.0,0.0,1.0,1.0,1.0,262.581184040755,1.0,1.0,phase_1,,,,,,,,,,,,,blue,circle
0.0,1.0,0.0,0.0,2.0,2.0,277.3238520603627,1.0,1.0,phase_1,,,,,,,,,,,,,gray,cross
0.0,6.0,0.0,1.0,4.0,4.0,250.4475619643926,1.0,1.0,phase_1,,,,,,,,,,,,,orange,I
124.0,6.0,2.0,1.0,3.0,3.0,339.5895708817988,2.0,1.0,phase_1,,,,,,,,,,,,,orange,I
96.0,6.0,2.0,1.0,4.0,4.0,242.195304017514,2.0,1.0,phase_1,,,,,,,,,,,,,orange,I
64.0,5.0,1.0,1.0,1.0,1.0,277.7536299545318,2.0,1.0,phase_1,,,,,,,,,,,,,green,hexagon
0.0,5.0,0.0,1.0,3.0,3.0,273.6615040339529,2.0,1.0,phase_1,,,,,,,,,,,,,green,hexagon
58.0,1.0,1.0,0.0,1.0,1.0,282.2518399916589,2.0,1.0,phase_1,,,,,,,,,,,,,gray,cross
87.0,2.0,2.0,0.0,2.0,2.0,298.5957760829478,2.0,1.0,phase_1,,,,,,,,,,,,,white,square
123.0,6.0,2.0,1.0,1.0,1.0,283.0885851290077,2.0,1.0,phase_1,,,,,,,,,,,,,orange,I
70.0,1.0,1.0,0.0,4.0,4.0,246.204350143671,2.0,1.0,phase_1,,,,,,,,,,,,,gray,cross
191.0,7.0,3.0,1.0,1.0,1.0,283.8194959331304,2.0,1.0,phase_1,,,,,,,,,,,,,blue,circle
404.0,8.0,4.0,1.0,4.0,4.0,303.3231860026717,2.0,1.0,phase_1,,,,,,,,,,,,,cyan,triangle
104.0,6.0,2.0,1.0,2.0,2.0,269.6599289774894,2.0,1.0,phase_1,,,,,,,,,,,,,orange,I
0.0,1.0,0.0,0.0,4.0,4.0,306.659716879949,2.0,1.0,phase_1,,,,,,,,,,,,,gray,cross
386.0,4.0,4.0,0.0,4.0,4.0,323.3970180153847,2.0,2.0,phase_1,,,,,,,,,,,,,yellow,flipped triangle
0.0,7.0,0.0,1.0,1.0,1.0,341.1829159595072,2.0,1.0,phase_1,,,,,,,,,,,,,blue,circle
198.0,7.0,3.0,1.0,4.0,4.0,356.8993150256574,2.0,1.0,phase_1,,,,,,,,,,,,,blue,circle
199.0,7.0,3.0,1.0,1.0,1.0,334.9999138154089,2.0,1.0,phase_1,,,,,,,,,,,,,blue,circle
94.0,2.0,2.0,0.0,1.0,1.0,526.844437001273,2.0,1.0,phase_1,,,,,,,,,,,,,white,square
424.0,8.0,4.0,1.0,1.0,1.0,361.1781410872936,2.0,1.0,phase_1,,,,,,,,,,,,,cyan,triangle
183.0,7.0,3.0,1.0,3.0,3.0,317.3748590052128,2.0,1.0,phase_1,,,,,,,,,,,,,blue,circle
93.0,2.0,2.0,0.0,4.0,4.0,353.8914930541068,2.0,1.0,phase_1,,,,,,,,,,,,,white,square
0.0,2.0,0.0,0.0,1.0,1.0,342.0608120504766,2.0,1.0,phase_1,,,,,,,,,,,,,white,square
0.0,3.0,0.0,0.0,3.0,3.0,338.4829110000282,2.0,1.0,phase_1,,,,,,,,,,,,,magenta,diamond
407.0,8.0,4.0,1.0,4.0,4.0,282.3724248446524,2.0,1.0,phase_1,,,,,,,,,,,,,cyan,triangle
50.0,5.0,1.0,1.0,2.0,2.0,310.0763410329819,2.0,1.0,phase_1,,,,,,,,,,,,,green,hexagon
197.0,3.0,3.0,0.0,2.0,2.0,394.5292399730533,2.0,1.0,phase_1,,,,,,,,,,,,,magenta,diamond
89.0,6.0,2.0,1.0,2.0,2.0,366.3125368766486,2.0,1.0,phase_1,,,,,,,,,,,,,orange,I
84.0,6.0,2.0,1.0,3.0,3.0,284.2481390107423,2.0,1.0,phase_1,,,,,,,,,,,,,orange,I
0.0,3.0,0.0,0.0,2.0,2.0,336.6052669007331,2.0,1.0,phase_1,,,,,,,,,,,,,magenta,diamond
111.0,2.0,2.0,0.0,1.0,1.0,447.1276521217078,2.0,1.0,phase_1,,,,,,,,,,,,,white,square
31.0,1.0,1.0,0.0,4.0,4.0,396.0866020061075,2.0,1.0,phase_1,,,,,,,,,,,,,gray,cross
64.0,5.0,1.0,1.0,2.0,2.0,261.3110048696399,2.0,1.0,phase_1,,,,,,,,,,,,,green,hexagon
0.0,1.0,0.0,0.0,3.0,3.0,324.3315641302615,2.0,1.0,phase_1,,,,,,,,,,,,,gray,cross
0.0,3.0,0.0,0.0,4.0,4.0,290.1160449255258,2.0,1.0,phase_1,,,,,,,,,,,,,magenta,diamond
400.0,4.0,4.0,0.0,1.0,1.0,282.5372929219156,2.0,1.0,phase_1,,,,,,,,,,,,,yellow,flipped triangle
32.0,1.0,1.0,0.0,1.0,1.0,367.783083114773,2.0,1.0,phase_1,,,,,,,,,,,,,gray,cross
0.0,7.0,0.0,1.0,4.0,4.0,430.9784970246255,2.0,1.0,phase_1,,,,,,,,,,,,,blue,circle
30.0,1.0,1.0,0.0,4.0,4.0,291.1876339931041,2.0,1.0,phase_1,,,,,,,,,,,,,gray,cross
34.0,1.0,1.0,0.0,1.0,1.0,297.4469678010791,2.0,1.0,phase_1,,,,,,,,,,,,,gray,cross
79.0,2.0,2.0,0.0,3.0,3.0,308.2008529454469,2.0,1.0,phase_1,,,,,,,,,,,,,white,square
44.0,1.0,1.0,0.0,4.0,4.0,287.6663140486926,2.0,1.0,phase_1,,,,,,,,,,,,,gray,cross
92.0,2.0,2.0,0.0,3.0,3.0,275.5286670289933,2.0,1.0,phase_1,,,,,,,,,,,,,white,square
0.0,7.0,0.0,1.0,2.0,2.0,355.8029569685459,2.0,1.0,phase_1,,,,,,,,,,,,,blue,circle
118.0,6.0,2.0,1.0,4.0,4.0,285.1364410016686,2.0,1.0,phase_1,,,,,,,,,,,,,orange,I
176.0,3.0,3.0,0.0,4.0,4.0,265.8211369998753,2.0,1.0,phase_1,,,,,,,,,,,,,magenta,diamond
68.0,1.0,1.0,0.0,2.0,2.0,326.77504979074,2.0,1.0,phase_1,,,,,,,,,,,,,gray,cross
64.0,1.0,1.0,0.0,3.0,3.0,405.5947239976376,2.0,1.0,phase_1,,,,,,,,,,,,,gray,cross
95.0,2.0,2.0,0.0,2.0,2.0,359.5749179366976,2.0,1.0,phase_1,,,,,,,,,,,,,white,square
89.0,2.0,2.0,0.0,4.0,4.0,693.9221820794046,2.0,1.0,phase_1,,,,,,,,,,,,,white,square
26.0,5.0,1.0,1.0,2.0,2.0,347.8072499856353,2.0,1.0,phase_1,,,,,,,,,,,,,green,hexagon
391.0,4.0,4.0,0.0,4.0,4.0,264.8939308710396,2.0,1.0,phase_1,,,,,,,,,,,,,yellow,flipped triangle
414.0,8.0,4.0,1.0,3.0,3.0,293.9268730115145,2.0,1.0,phase_1,,,,,,,,,,,,,cyan,triangle
54.0,1.0,1.0,0.0,2.0,2.0,290.2443329803645,2.0,1.0,phase_1,,,,,,,,,,,,,gray,cross
209.0,7.0,3.0,1.0,3.0,3.0,301.5846258495003,2.0,1.0,phase_1,,,,,,,,,,,,,blue,circle
395.0,4.0,4.0,0.0,1.0,1.0,329.5978729147464,2.0,1.0,phase_1,,,,,,,,,,,,,yellow,flipped triangle
79.0,6.0,2.0,1.0,3.0,3.0,325.8986789733171,2.0,1.0,phase_1,,,,,,,,,,,,,orange,I
72.0,1.0,1.0,0.0,3.0,3.0,298.3005791902542,2.0,1.0,phase_1,,,,,,,,,,,,,gray,cross
182.0,7.0,3.0,1.0,2.0,2.0,360.7599870301783,2.0,1.0,phase_1,,,,,,,,,,,,,blue,circle
414.0,4.0,4.0,0.0,3.0,3.0,324.7836579103023,2.0,1.0,phase_1,,,,,,,,,,,,,yellow,flipped triangle
184.0,7.0,3.0,1.0,4.0,4.0,282.4255370069295,2.0,1.0,phase_1,,,,,,,,,,,,,blue,circle
408.0,4.0,4.0,0.0,4.0,4.0,457.3438127990812,2.0,2.0,phase_1,,,,,,,,,,,,,yellow,flipped triangle
407.0,4.0,4.0,0.0,1.0,1.0,473.3686859253794,2.0,1.0,phase_1,,,,,,,,,,,,,yellow,flipped triangle
0.0,1.0,0.0,0.0,1.0,1.0,315.8611881081015,2.0,1.0,phase_1,,,,,,,,,,,,,gray,cross
61.0,1.0,1.0,0.0,3.0,3.0,313.8311919756233,2.0,1.0,phase_1,,,,,,,,,,,,,gray,cross
40.0,5.0,1.0,1.0,2.0,2.0,339.561030967161,2.0,1.0,phase_1,,,,,,,,,,,,,green,hexagon
0.0,1.0,0.0,0.0,4.0,4.0,290.8237199299037,2.0,1.0,phase_1,,,,,,,,,,,,,gray,cross
386.0,4.0,4.0,0.0,2.0,2.0,317.6204448100179,2.0,1.0,phase_1,,,,,,,,,,,,,yellow,flipped triangle
73.0,5.0,1.0,1.0,2.0,2.0,316.6280991863459,2.0,1.0,phase_1,,,,,,,,,,,,,green,hexagon
102.0,2.0,2.0,0.0,2.0,2.0,313.8951598666608,2.0,1.0,phase_1,,,,,,,,,,,,,white,square
418.0,8.0,4.0,1.0,2.0,2.0,283.6743781808764,2.0,1.0,phase_1,,,,,,,,,,,,,cyan,triangle
86.0,6.0,2.0,1.0,2.0,2.0,314.8579879198223,2.0,1.0,phase_1,,,,,,,,,,,,,orange,I
0.0,4.0,0.0,0.0,2.0,2.0,341.2693019490689,2.0,1.0,phase_1,,,,,,,,,,,,,yellow,flipped triangle
0.0,6.0,0.0,1.0,3.0,3.0,363.0769450683146,2.0,1.0,phase_1,,,,,,,,,,,,,orange,I
44.0,1.0,1.0,0.0,4.0,4.0,286.3780870102346,2.0,1.0,phase_1,,,,,,,,,,,,,gray,cross
124.0,2.0,2.0,0.0,2.0,2.0,355.1848600618541,2.0,1.0,phase_1,,,,,,,,,,,,,white,square
0.0,7.0,0.0,1.0,3.0,3.0,338.0926428362727,2.0,1.0,phase_1,,,,,,,,,,,,,blue,circle
211.0,3.0,3.0,0.0,1.0,1.0,244.1865520086139,2.0,1.0,phase_1,,,,,,,,,,,,,magenta,diamond
194.0,3.0,3.0,0.0,1.0,1.0,284.5802749507129,2.0,1.0,phase_1,,,,,,,,,,,,,magenta,diamond
401.0,4.0,4.0,0.0,1.0,1.0,447.762442054227,2.0,1.0,phase_1,,,,,,,,,,,,,yellow,flipped triangle
0.0,7.0,0.0,1.0,3.0,3.0,291.0577030852437,2.0,1.0,phase_1,,,,,,,,,,,,,blue,circle
44.0,5.0,1.0,1.0,3.0,3.0,303.1695079989731,2.0,1.0,phase_1,,,,,,,,,,,,,green,hexagon
92.0,6.0,2.0,1.0,3.0,3.0,356.234512059018,2.0,1.0,phase_1,,,,,,,,,,,,,orange,I
0.0,2.0,0.0,0.0,1.0,1.0,360.0289030000567,2.0,1.0,phase_1,,,,,,,,,,,,,white,square
419.0,4.0,4.0,0.0,2.0,2.0,276.6115560662001,2.0,1.0,phase_1,,,,,,,,,,,,,yellow,flipped triangle
0.0,8.0,0.0,1.0,3.0,3.0,299.2098599206656,2.0,1.0,phase_1,,,,,,,,,,,,,cyan,triangle
223.0,7.0,3.0,1.0,3.0,3.0,294.295237166807,2.0,1.0,phase_1,,,,,,,,,,,,,blue,circle
205.0,7.0,3.0,1.0,2.0,2.0,371.173775056377,2.0,1.0,phase_1,,,,,,,,,,,,,blue,circle
94.0,6.0,2.0,1.0,2.0,2.0,344.3281480576843,2.0,1.0,phase_1,,,,,,,,,,,,,orange,I
392.0,8.0,4.0,1.0,2.0,2.0,319.9719830881804,2.0,1.0,phase_1,,,,,,,,,,,,,cyan,triangle
396.0,4.0,4.0,0.0,4.0,4.0,353.9022838231176,2.0,1.0,phase_1,,,,,,,,,,,,,yellow,flipped triangle
408.0,8.0,4.0,1.0,4.0,4.0,342.6221930421889,2.0,1.0,phase_1,,,,,,,,,,,,,cyan,triangle
0.0,2.0,0.0,0.0,1.0,1.0,332.0436500944197,2.0,1.0,phase_1,,,,,,,,,,,,,white,square
44.0,5.0,1.0,1.0,1.0,1.0,342.9343260359019,2.0,1.0,phase_1,,,,,,,,,,,,,green,hexagon
409.0,8.0,4.0,1.0,3.0,3.0,294.5942329242825,2.0,1.0,phase_1,,,,,,,,,,,,,cyan,triangle
116.0,6.0,2.0,1.0,2.0,2.0,356.5278630703687,2.0,1.0,phase_1,,,,,,,,,,,,,orange,I
376.0,4.0,4.0,0.0,3.0,3.0,303.235197905451,2.0,1.0,phase_1,,,,,,,,,,,,,yellow,flipped triangle
97.0,2.0,2.0,0.0,4.0,4.0,307.5810829177499,2.0,1.0,phase_1,,,,,,,,,,,,,white,square
193.0,7.0,3.0,1.0,1.0,1.0,366.7475888505578,2.0,1.0,phase_1,,,,,,,,,,,,,blue,circle
222.0,7.0,3.0,1.0,3.0,3.0,308.2000368740409,2.0,1.0,phase_1,,,,,,,,,,,,,blue,circle
187.0,3.0,3.0,0.0,4.0,4.0,338.4053821209818,2.0,1.0,phase_1,,,,,,,,,,,,,magenta,diamond
386.0,8.0,4.0,1.0,1.0,1.0,303.1085708644241,2.0,1.0,phase_1,,,,,,,,,,,,,cyan,triangle
216.0,3.0,3.0,0.0,1.0,1.0,274.521006969735,3.0,1.0,phase_1,,,,,,,,,,,,,magenta,diamond
221.0,7.0,3.0,1.0,2.0,2.0,287.0258518960327,3.0,1.0,phase_1,,,,,,,,,,,,,blue,circle
376.0,8.0,4.0,1.0,3.0,3.0,294.1807128954679,3.0,1.0,phase_1,,,,,,,,,,,,,cyan,triangle
378.0,4.0,4.0,0.0,3.0,3.0,330.652535893023,3.0,1.0,phase_1,,,,,,,,,,,,,yellow,flipped triangle
396.0,4.0,4.0,0.0,3.0,3.0,281.3068339601159,3.0,1.0,phase_1,,,,,,,,,,,,,yellow,flipped triangle
61.0,5.0,1.0,1.0,2.0,2.0,314.432926941663,3.0,1.0,phase_1,,,,,,,,,,,,,green,hexagon
71.0,5.0,1.0,1.0,3.0,3.0,319.4997149985283,3.0,1.0,phase_1,,,,,,,,,,,,,green,hexagon
47.0,5.0,1.0,1.0,3.0,3.0,295.5660258885473,3.0,1.0,phase_1,,,,,,,,,,,,,green,hexagon
0.0,6.0,0.0,1.0,2.0,2.0,434.1943119652569,3.0,1.0,phase_1,,,,,,,,,,,,,orange,I
45.0,5.0,1.0,1.0,1.0,1.0,311.8138120044023,3.0,1.0,phase_1,,,,,,,,,,,,,green,hexagon
0.0,5.0,0.0,1.0,2.0,2.0,321.5613351203501,3.0,1.0,phase_1,,,,,,,,,,,,,green,hexagon
124.0,6.0,2.0,1.0,4.0,4.0,294.5671929046511,3.0,1.0,phase_1,,,,,,,,,,,,,orange,I
81.0,6.0,2.0,1.0,4.0,4.0,310.7428830116987,3.0,1.0,phase_1,,,,,,,,,,,,,orange,I
218.0,7.0,3.0,1.0,1.0,1.0,400.1168790273368,3.0,1.0,phase_1,,,,,,,,,,,,,blue,circle
0.0,1.0,0.0,0.0,1.0,1.0,335.8132098801434,3.0,1.0,phase_1,,,,,,,,,,,,,gray,cross
409.0,4.0,4.0,0.0,1.0,1.0,307.6675799675286,3.0,1.0,phase_1,,,,,,,,,,,,,yellow,flipped triangle
54.0,5.0,1.0,1.0,4.0,4.0,294.9773222208023,3.0,1.0,phase_1,,,,,,,,,,,,,green,hexagon
223.0,3.0,3.0,0.0,2.0,2.0,269.7196928784251,3.0,1.0,phase_1,,,,,,,,,,,,,magenta,diamond
376.0,8.0,4.0,1.0,4.0,4.0,303.7110201548785,3.0,1.0,phase_1,,,,,,,,,,,,,cyan,triangle
95.0,6.0,2.0,1.0,4.0,4.0,318.979661911726,3.0,1.0,phase_1,,,,,,,,,,,,,orange,I
123.0,6.0,2.0,1.0,1.0,1.0,372.2128239460289,3.0,1.0,phase_1,,,,,,,,,,,,,orange,I
121.0,2.0,2.0,0.0,4.0,4.0,336.8968740105629,3.0,1.0,phase_1,,,,,,,,,,,,,white,square
417.0,8.0,4.0,1.0,1.0,1.0,297.71496797911817,3.0,1.0,phase_1,,,,,,,,,,,,,cyan,triangle
204.0,3.0,3.0,0.0,4.0,4.0,265.958609059453,3.0,1.0,phase_1,,,,,,,,,,,,,magenta,diamond
0.0,6.0,0.0,1.0,1.0,1.0,373.5108061227947,3.0,1.0,phase_1,,,,,,,,,,,,,orange,I
187.0,3.0,3.0,0.0,3.0,3.0,299.5204080361873,3.0,1.0,phase_1,,,,,,,,,,,,,magenta,diamond
79.0,6.0,2.0,1.0,1.0,1.0,370.473121991381,3.0,2.0,phase_1,,,,,,,,,,,,,orange,I
422.0,8.0,4.0,1.0,2.0,2.0,318.7805651687085,3.0,1.0,phase_1,,,,,,,,,,,,,cyan,triangle
382.0,4.0,4.0,0.0,3.0,3.0,285.3471939451992,3.0,1.0,phase_1,,,,,,,,,,,,,yellow,flipped triangle
211.0,7.0,3.0,1.0,4.0,4.0,307.0947600062936,3.0,1.0,phase_1,,,,,,,,,,,,,blue,circle
0.0,1.0,0.0,0.0,2.0,2.0,310.5287391226738,3.0,1.0,phase_1,,,,,,,,,,,,,gray,cross
82.0,6.0,2.0,1.0,1.0,1.0,360.2986268233508,3.0,1.0,phase_1,,,,,,,,,,,,,orange,I
0.0,2.0,0.0,0.0,4.0,4.0,333.4766631014645,3.0,1.0,phase_1,,,,,,,,,,,,,white,square
424.0,8.0,4.0,1.0,4.0,4.0,341.70642006210977,3.0,1.0,phase_1,,,,,,,,,,,,,cyan,triangle
421.0,4.0,4.0,0.0,3.0,3.0,336.210842942819,3.0,1.0,phase_1,,,,,,,,,,,,,yellow,flipped triangle
99.0,2.0,2.0,0.0,3.0,3.0,326.8899270333349,3.0,1.0,phase_1,,,,,,,,,,,,,white,square
210.0,7.0,3.0,1.0,3.0,3.0,369.9374538846314,3.0,1.0,phase_1,,,,,,,,,,,,,blue,circle
0.0,1.0,0.0,0.0,2.0,2.0,382.2489830199629,3.0,1.0,phase_1,,,,,,,,,,,,,gray,cross
389.0,8.0,4.0,1.0,3.0,3.0,372.6863949559629,3.0,1.0,phase_1,,,,,,,,,,,,,cyan,triangle
416.0,4.0,4.0,0.0,2.0,2.0,344.2084100097418,3.0,1.0,phase_1,,,,,,,,,,,,,yellow,flipped triangle
79.0,6.0,2.0,1.0,4.0,4.0,314.565995009616,3.0,1.0,phase_1,,,,,,,,,,,,,orange,I
40.0,1.0,1.0,0.0,3.0,3.0,522.714331978932,3.0,1.0,phase_1,,,,,,,,,,,,,gray,cross
0.0,7.0,0.0,1.0,2.0,2.0,356.0706949792802,3.0,1.0,phase_1,,,,,,,,,,,,,blue,circle
199.0,3.0,3.0,0.0,3.0,3.0,411.8352700024843,3.0,1.0,phase_1,,,,,,,,,,,,,magenta,diamond
123.0,2.0,2.0,0.0,1.0,1.0,384.9905040115118,3.0,1.0,phase_1,,,,,,,,,,,,,white,square
381.0,4.0,4.0,0.0,3.0,3.0,306.3083761371672,3.0,1.0,phase_1,,,,,,,,,,,,,yellow,flipped triangle
223.0,3.0,3.0,0.0,3.0,3.0,352.7950230054557,3.0,1.0,phase_1,,,,,,,,,,,,,magenta,diamond
421.0,8.0,4.0,1.0,4.0,4.0,335.3890250436961,3.0,1.0,phase_1,,,,,,,,,,,,,cyan,triangle
0.0,1.0,0.0,0.0,4.0,4.0,426.6400600317865,3.0,1.0,phase_1,,,,,,,,,,,,,gray,cross
0.0,3.0,0.0,0.0,3.0,3.0,285.0259749684483,3.0,1.0,phase_1,,,,,,,,,,,,,magenta,diamond
99.0,6.0,2.0,1.0,1.0,1.0,370.1897419523448,3.0,1.0,phase_1,,,,,,,,,,,,,orange,I
0.0,6.0,0.0,1.0,2.0,2.0,342.9630238097161,3.0,1.0,phase_1,,,,,,,,,,,,,orange,I
401.0,4.0,4.0,0.0,2.0,2.0,302.6563040912151,3.0,1.0,phase_1,,,,,,,,,,,,,yellow,flipped triangle
0.0,3.0,0.0,0.0,4.0,4.0,274.0275219548493,3.0,1.0,phase_1,,,,,,,,,,,,,magenta,diamond
124.0,2.0,2.0,0.0,3.0,3.0,279.0046099107712,3.0,1.0,phase_1,,,,,,,,,,,,,white,square
0.0,5.0,0.0,1.0,1.0,1.0,299.8783818911761,3.0,1.0,phase_1,,,,,,,,,,,,,green,hexagon
376.0,4.0,4.0,0.0,1.0,1.0,358.363239094615,3.0,1.0,phase_1,,,,,,,,,,,,,yellow,flipped triangle
187.0,7.0,3.0,1.0,2.0,2.0,307.1179219987243,3.0,1.0,phase_1,,,,,,,,,,,,,blue,circle
209.0,3.0,3.0,0.0,1.0,1.0,314.967175014317,3.0,1.0,phase_1,,,,,,,,,,,,,magenta,diamond
378.0,8.0,4.0,1.0,1.0,1.0,348.9354408811778,3.0,1.0,phase_1,,,,,,,,,,,,,cyan,triangle
208.0,7.0,3.0,1.0,4.0,4.0,319.5359129458666,3.0,2.0,phase_1,,,,,,,,,,,,,blue,circle
396.0,8.0,4.0,1.0,4.0,4.0,331.6334958653897,3.0,1.0,phase_1,,,,,,,,,,,,,cyan,triangle
0.0,6.0,0.0,1.0,4.0,4.0,344.1719298716634,3.0,1.0,phase_1,,,,,,,,,,,,,orange,I
31.0,5.0,1.0,1.0,4.0,4.0,303.2141251023859,3.0,1.0,phase_1,,,,,,,,,,,,,green,hexagon
47.0,1.0,1.0,0.0,1.0,1.0,376.7279169987887,3.0,2.0,phase_1,,,,,,,,,,,,,gray,cross
109.0,6.0,2.0,1.0,1.0,1.0,457.4132249690592,3.0,1.0,phase_1,,,,,,,,,,,,,orange,I
73.0,1.0,1.0,0.0,4.0,4.0,375.855237012729,3.0,1.0,phase_1,,,,,,,,,,,,,gray,cross
0.0,6.0,0.0,1.0,1.0,1.0,421.9359159469604,3.0,1.0,phase_1,,,,,,,,,,,,,orange,I
27.0,5.0,1.0,1.0,3.0,3.0,466.185208177194,3.0,1.0,phase_1,,,,,,,,,,,,,green,hexagon
391.0,4.0,4.0,0.0,1.0,1.0,340.0741829536855,3.0,1.0,phase_1,,,,,,,,,,,,,yellow,flipped triangle
0.0,8.0,0.0,1.0,3.0,3.0,388.7650119140744,3.0,1.0,phase_1,,,,,,,,,,,,,cyan,triangle
28.0,5.0,1.0,1.0,1.0,1.0,279.2311247903853,3.0,1.0,phase_1,,,,,,,,,,,,,green,hexagon
101.0,2.0,2.0,0.0,4.0,4.0,338.7928630691021,3.0,1.0,phase_1,,,,,,,,,,,,,white,square
31.0,1.0,1.0,0.0,3.0,3.0,367.891991045326,3.0,1.0,phase_1,,,,,,,,,,,,,gray,cross
68.0,5.0,1.0,1.0,3.0,3.0,308.0678889527917,3.0,1.0,phase_1,,,,,,,,,,,,,green,hexagon
119.0,6.0,2.0,1.0,4.0,4.0,339.2649600282311,3.0,1.0,phase_1,,,,,,,,,,,,,orange,I
86.0,2.0,2.0,0.0,3.0,3.0,287.8319700248539,3.0,1.0,phase_1,,,,,,,,,,,,,white,square
187.0,3.0,3.0,0.0,1.0,1.0,306.1052290722728,3.0,1.0,phase_1,,,,,,,,,,,,,magenta,diamond
29.0,5.0,1.0,1.0,1.0,1.0,338.2877469994128,3.0,1.0,phase_1,,,,,,,,,,,,,green,hexagon
0.0,7.0,0.0,1.0,1.0,1.0,334.2481928411871,3.0,1.0,phase_1,,,,,,,,,,,,,blue,circle
202.0,7.0,3.0,1.0,1.0,1.0,280.71722202003,3.0,1.0,phase_1,,,,,,,,,,,,,blue,circle
191.0,3.0,3.0,0.0,1.0,1.0,343.7980669550597,3.0,1.0,phase_1,,,,,,,,,,,,,magenta,diamond
58.0,1.0,1.0,0.0,2.0,2.0,419.1810609772801,3.0,1.0,phase_1,,,,,,,,,,,,,gray,cross
123.0,2.0,2.0,0.0,2.0,2.0,278.1309650745243,3.0,1.0,phase_1,,,,,,,,,,,,,white,square
49.0,1.0,1.0,0.0,2.0,2.0,314.6713660098612,3.0,1.0,phase_1,,,,,,,,,,,,,gray,cross
61.0,5.0,1.0,1.0,1.0,1.0,338.1208928767591,3.0,1.0,phase_1,,,,,,,,,,,,,green,hexagon
66.0,5.0,1.0,1.0,1.0,1.0,300.5786209832877,3.0,1.0,phase_1,,,,,,,,,,,,,green,hexagon
217.0,7.0,3.0,1.0,2.0,2.0,313.4946238715201,3.0,1.0,phase_1,,,,,,,,,,,,,blue,circle
192.0,3.0,3.0,0.0,2.0,2.0,284.760451875627,3.0,1.0,phase_1,,,,,,,,,,,,,magenta,diamond
205.0,3.0,3.0,0.0,3.0,3.0,347.5186901632696,3.0,1.0,phase_1,,,,,,,,,,,,,magenta,diamond
203.0,7.0,3.0,1.0,2.0,2.0,327.8023470193147,3.0,1.0,phase_1,,,,,,,,,,,,,blue,circle
0.0,5.0,0.0,1.0,1.0,1.0,391.1609840579331,3.0,1.0,phase_1,,,,,,,,,,,,,green,hexagon
76.0,2.0,2.0,0.0,1.0,1.0,464.7076111286878,3.0,1.0,phase_1,,,,,,,,,,,,,white,square
0.0,8.0,0.0,1.0,3.0,3.0,358.2605558913201,3.0,1.0,phase_1,,,,,,,,,,,,,cyan,triangle
394.0,8.0,4.0,1.0,3.0,3.0,292.182601056993,3.0,1.0,phase_1,,,,,,,,,,,,,cyan,triangle
212.0,3.0,3.0,0.0,3.0,3.0,285.7511120382696,3.0,1.0,phase_1,,,,,,,,,,,,,magenta,diamond
51.0,5.0,1.0,1.0,4.0,4.0,350.5040619056672,3.0,1.0,phase_1,,,,,,,,,,,,,green,hexagon
104.0,6.0,2.0,1.0,2.0,2.0,449.2713778745383,3.0,1.0,phase_1,,,,,,,,,,,,,orange,I
176.0,7.0,3.0,1.0,1.0,1.0,318.9977679867297,3.0,1.0,phase_1,,,,,,,,,,,,,blue,circle
58.0,5.0,1.0,1.0,1.0,1.0,340.72230104357,3.0,1.0,phase_1,,,,,,,,,,,,,green,hexagon
211.0,3.0,3.0,0.0,2.0,2.0,334.501767065376,4.0,1.0,phase_1,,,,,,,,,,,,,magenta,diamond
200.0,3.0,3.0,0.0,2.0,2.0,293.3443249203264,4.0,1.0,phase_1,,,,,,,,,,,,,magenta,diamond
44.0,5.0,1.0,1.0,4.0,4.0,290.5905728694051,4.0,1.0,phase_1,,,,,,,,,,,,,green,hexagon
93.0,6.0,2.0,1.0,4.0,4.0,325.216616038233,4.0,1.0,phase_1,,,,,,,,,,,,,orange,I
118.0,2.0,2.0,0.0,1.0,1.0,363.7560820207,4.0,1.0,phase_1,,,,,,,,,,,,,white,square
95.0,2.0,2.0,0.0,1.0,1.0,343.7172819394618,4.0,1.0,phase_1,,,,,,,,,,,,,white,square
109.0,2.0,2.0,0.0,4.0,4.0,331.33784099482,4.0,1.0,phase_1,,,,,,,,,,,,,white,square
0.0,4.0,0.0,0.0,4.0,4.0,359.9612370599061,4.0,1.0,phase_1,,,,,,,,,,,,,yellow,flipped triangle
177.0,3.0,3.0,0.0,1.0,1.0,397.8895160835236,4.0,1.0,phase_1,,,,,,,,,,,,,magenta,diamond
408.0,8.0,4.0,1.0,2.0,2.0,314.8909609299153,4.0,1.0,phase_1,,,,,,,,,,,,,cyan,triangle
383.0,4.0,4.0,0.0,4.0,4.0,313.1682600360363,4.0,1.0,phase_1,,,,,,,,,,,,,yellow,flipped triangle
0.0,3.0,0.0,0.0,1.0,1.0,340.1854729745537,4.0,1.0,phase_1,,,,,,,,,,,,,magenta,diamond
49.0,5.0,1.0,1.0,3.0,3.0,575.7267228327692,4.0,1.0,phase_1,,,,,,,,,,,,,green,hexagon
208.0,3.0,3.0,0.0,2.0,2.0,301.3917740900069,4.0,1.0,phase_1,,,,,,,,,,,,,magenta,diamond
417.0,4.0,4.0,0.0,1.0,1.0,339.7381119430065,4.0,1.0,phase_1,,,,,,,,,,,,,yellow,flipped triangle
0.0,4.0,0.0,0.0,4.0,4.0,343.490911880508,4.0,1.0,phase_1,,,,,,,,,,,,,yellow,flipped triangle
0.0,4.0,0.0,0.0,2.0,2.0,266.2851980421692,4.0,1.0,phase_1,,,,,,,,,,,,,yellow,flipped triangle
204.0,7.0,3.0,1.0,4.0,4.0,328.1165692023933,4.0,1.0,phase_1,,,,,,,,,,,,,blue,circle
28.0,1.0,1.0,0.0,1.0,1.0,348.6764270346612,4.0,1.0,phase_1,,,,,,,,,,,,,gray,cross
392.0,4.0,4.0,0.0,2.0,2.0,335.1608167868107,4.0,1.0,phase_1,,,,,,,,,,,,,yellow,flipped triangle
187.0,3.0,3.0,0.0,4.0,4.0,319.3936918396503,4.0,1.0,phase_1,,,,,,,,,,,,,magenta,diamond
391.0,8.0,4.0,1.0,1.0,1.0,361.4795210305601,4.0,1.0,phase_1,,,,,,,,,,,,,cyan,triangle
27.0,1.0,1.0,0.0,2.0,2.0,285.2435780223459,4.0,1.0,phase_1,,,,,,,,,,,,,gray,cross
0.0,2.0,0.0,0.0,3.0,3.0,350.5192731972784,4.0,1.0,phase_1,,,,,,,,,,,,,white,square
395.0,8.0,4.0,1.0,1.0,1.0,386.0435888636857,4.0,1.0,phase_1,,,,,,,,,,,,,cyan,triangle
111.0,6.0,2.0,1.0,1.0,1.0,286.7870719637722,4.0,1.0,phase_1,,,,,,,,,,,,,orange,I
0.0,8.0,0.0,1.0,1.0,1.0,265.5356419272721,4.0,1.0,phase_1,,,,,,,,,,,,,cyan,triangle
389.0,4.0,4.0,0.0,2.0,2.0,342.287166044116,4.0,1.0,phase_1,,,,,,,,,,,,,yellow,flipped triangle
210.0,7.0,3.0,1.0,3.0,3.0,293.8364988658577,4.0,1.0,phase_1,,,,,,,,,,,,,blue,circle
0.0,4.0,0.0,0.0,4.0,4.0,319.3019090685993,4.0,1.0,phase_1,,,,,,,,,,,,,yellow,flipped triangle
37.0,1.0,1.0,0.0,2.0,2.0,404.1590858250856,4.0,1.0,phase_1,,,,,,,,,,,,,gray,cross
381.0,8.0,4.0,1.0,3.0,3.0,337.8992211073637,4.0,1.0,phase_1,,,,,,,,,,,,,cyan,triangle
183.0,3.0,3.0,0.0,2.0,2.0,358.5859099403023,4.0,1.0,phase_1,,,,,,,,,,,,,magenta,diamond
0.0,4.0,0.0,0.0,4.0,4.0,307.919654995203,4.0,1.0,phase_1,,,,,,,,,,,,,yellow,flipped triangle
73.0,1.0,1.0,0.0,3.0,3.0,310.1562571246177,4.0,1.0,phase_1,,,,,,,,,,,,,gray,cross
198.0,3.0,3.0,0.0,3.0,3.0,323.7752709537744,4.0,1.0,phase_1,,,,,,,,,,,,,magenta,diamond
93.0,2.0,2.0,0.0,1.0,1.0,479.9453557934612,4.0,1.0,phase_1,,,,,,,,,,,,,white,square
104.0,2.0,2.0,0.0,2.0,2.0,379.9953041598201,4.0,1.0,phase_1,,,,,,,,,,,,,white,square
29.0,1.0,1.0,0.0,4.0,4.0,364.5772780291736,4.0,1.0,phase_1,,,,,,,,,,,,,gray,cross
101.0,6.0,2.0,1.0,3.0,3.0,319.0731618087739,4.0,1.0,phase_1,,,,,,,,,,,,,orange,I
0.0,5.0,0.0,1.0,4.0,4.0,290.549695957452,4.0,1.0,phase_1,,,,,,,,,,,,,green,hexagon
91.0,2.0,2.0,0.0,3.0,3.0,270.8591620903462,4.0,1.0,phase_1,,,,,,,,,,,,,white,square
0.0,8.0,0.0,1.0,3.0,3.0,340.3456599917263,4.0,1.0,phase_1,,,,,,,,,,,,,cyan,triangle
64.0,1.0,1.0,0.0,2.0,2.0,354.4185019563883,4.0,1.0,phase_1,,,,,,,,,,,,,gray,cross
424.0,4.0,4.0,0.0,2.0,2.0,324.7202660422772,4.0,1.0,phase_1,,,,,,,,,,,,,yellow,flipped triangle
79.0,2.0,2.0,0.0,2.0,2.0,405.3176699671894,4.0,1.0,phase_1,,,,,,,,,,,,,white,square
81.0,2.0,2.0,0.0,1.0,1.0,446.0396161302924,4.0,1.0,phase_1,,,,,,,,,,,,,white,square
26.0,1.0,1.0,0.0,2.0,2.0,341.3813961669802,4.0,1.0,phase_1,,,,,,,,,,,,,gray,cross
59.0,5.0,1.0,1.0,2.0,2.0,314.7517330944538,4.0,1.0,phase_1,,,,,,,,,,,,,green,hexagon
192.0,7.0,3.0,1.0,2.0,2.0,302.276087924838,4.0,1.0,phase_1,,,,,,,,,,,,,blue,circle
216.0,7.0,3.0,1.0,4.0,4.0,331.7175409756601,4.0,1.0,phase_1,,,,,,,,,,,,,blue,circle
106.0,2.0,2.0,0.0,2.0,2.0,319.2804870195687,4.0,1.0,phase_1,,,,,,,,,,,,,white,square
384.0,8.0,4.0,1.0,1.0,1.0,306.0040040872991,4.0,1.0,phase_1,,,,,,,,,,,,,cyan,triangle
390.0,4.0,4.0,0.0,3.0,3.0,361.167280934751,4.0,1.0,phase_1,,,,,,,,,,,,,yellow,flipped triangle
29.0,1.0,1.0,0.0,4.0,4.0,283.6739050690084,4.0,1.0,phase_1,,,,,,,,,,,,,gray,cross
404.0,8.0,4.0,1.0,2.0,2.0,345.9583811927587,4.0,1.0,phase_1,,,,,,,,,,,,,cyan,triangle
79.0,2.0,2.0,0.0,4.0,4.0,327.0670499186963,4.0,1.0,phase_1,,,,,,,,,,,,,white,square
114.0,6.0,2.0,1.0,2.0,2.0,417.3744849395007,4.0,1.0,phase_1,,,,,,,,,,,,,orange,I
0.0,5.0,0.0,1.0,3.0,3.0,335.8547009993344,4.0,1.0,phase_1,,,,,,,,,,,,,green,hexagon
32.0,5.0,1.0,1.0,2.0,2.0,365.0579070672393,4.0,1.0,phase_1,,,,,,,,,,,,,green,hexagon
210.0,3.0,3.0,0.0,4.0,4.0,314.9474901147187,4.0,1.0,phase_1,,,,,,,,,,,,,magenta,diamond
72.0,5.0,1.0,1.0,4.0,4.0,320.6384750083089,4.0,1.0,phase_1,,,,,,,,,,,,,green,hexagon
76.0,6.0,2.0,1.0,1.0,1.0,348.0004351586103,4.0,1.0,phase_1,,,,,,,,,,,,,orange,I
119.0,6.0,2.0,1.0,3.0,3.0,366.0369941499084,4.0,1.0,phase_1,,,,,,,,,,,,,orange,I
177.0,7.0,3.0,1.0,2.0,2.0,413.0105047952384,4.0,1.0,phase_1,,,,,,,,,,,,,blue,circle
93.0,6.0,2.0,1.0,4.0,4.0,280.9229330159724,4.0,1.0,phase_1,,,,,,,,,,,,,orange,I
386.0,8.0,4.0,1.0,4.0,4.0,301.7546469345689,4.0,1.0,phase_1,,,,,,,,,,,,,cyan,triangle
396.0,4.0,4.0,0.0,3.0,3.0,289.6130410954356,4.0,1.0,phase_1,,,,,,,,,,,,,yellow,flipped triangle
0.0,1.0,0.0,0.0,1.0,1.0,277.8835359495133,4.0,1.0,phase_1,,,,,,,,,,,,,gray,cross
404.0,4.0,4.0,0.0,1.0,1.0,322.0061049796641,4.0,1.0,phase_1,,,,,,,,,,,,,yellow,flipped triangle
0.0,5.0,0.0,1.0,2.0,2.0,297.1400979440659,4.0,1.0,phase_1,,,,,,,,,,,,,green,hexagon
390.0,8.0,4.0,1.0,3.0,3.0,355.3121360018849,4.0,1.0,phase_1,,,,,,,,,,,,,cyan,triangle
0.0,8.0,0.0,1.0,2.0,2.0,313.1506058853119,4.0,1.0,phase_1,,,,,,,,,,,,,cyan,triangle
38.0,1.0,1.0,0.0,3.0,3.0,319.3721720017493,4.0,1.0,phase_1,,,,,,,,,,,,,gray,cross
418.0,8.0,4.0,1.0,3.0,3.0,281.819298164919,4.0,1.0,phase_1,,,,,,,,,,,,,cyan,triangle
31.0,5.0,1.0,1.0,4.0,4.0,265.7277549151331,4.0,1.0,phase_1,,,,,,,,,,,,,green,hexagon
117.0,6.0,2.0,1.0,3.0,3.0,301.5873711556196,4.0,1.0,phase_1,,,,,,,,,,,,,orange,I
193.0,3.0,3.0,0.0,1.0,1.0,314.255332108587,4.0,1.0,phase_1,,,,,,,,,,,,,magenta,diamond
0.0,8.0,0.0,1.0,1.0,1.0,294.7902851738035,4.0,1.0,phase_1,,,,,,,,,,,,,cyan,triangle
50.0,1.0,1.0,0.0,1.0,1.0,330.6960649788379,4.0,1.0,phase_1,,,,,,,,,,,,,gray,cross
197.0,7.0,3.0,1.0,1.0,1.0,270.2584459912032,4.0,1.0,phase_1,,,,,,,,,,,,,blue,circle
0.0,6.0,0.0,1.0,4.0,4.0,331.2580639030784,4.0,1.0,phase_1,,,,,,,,,,,,,orange,I
401.0,8.0,4.0,1.0,2.0,2.0,462.9982949700206,4.0,1.0,phase_1,,,,,,,,,,,,,cyan,triangle
212.0,7.0,3.0,1.0,3.0,3.0,333.248628070578,4.0,1.0,phase_1,,,,,,,,,,,,,blue,circle
0.0,5.0,0.0,1.0,2.0,2.0,339.5260430406779,4.0,1.0,phase_1,,,,,,,,,,,,,green,hexagon
37.0,5.0,1.0,1.0,4.0,4.0,303.7659630645066,4.0,1.0,phase_1,,,,,,,,,,,,,green,hexagon
72.0,5.0,1.0,1.0,4.0,4.0,330.1579600665718,4.0,1.0,phase_1,,,,,,,,,,,,,green,hexagon
210.0,3.0,3.0,0.0,1.0,1.0,438.4361079428345,4.0,1.0,phase_1,,,,,,,,,,,,,magenta,diamond
0.0,8.0,0.0,1.0,2.0,2.0,348.7940279301256,4.0,1.0,phase_1,,,,,,,,,,,,,cyan,triangle
121.0,6.0,2.0,1.0,1.0,1.0,338.6714090593159,4.0,1.0,phase_1,,,,,,,,,,,,,orange,I
0.0,4.0,0.0,0.0,2.0,2.0,336.2374128773808,4.0,1.0,phase_1,,,,,,,,,,,,,yellow,flipped triangle
0.0,5.0,0.0,1.0,1.0,1.0,329.2922659311443,4.0,1.0,phase_1,,,,,,,,,,,,,green,hexagon
383.0,8.0,4.0,1.0,4.0,4.0,333.5972889326513,4.0,1.0,phase_1,,,,,,,,,,,,,cyan,triangle
73.0,5.0,1.0,1.0,1.0,1.0,363.1529191043228,4.0,1.0,phase_1,,,,,,,,,,,,,green,hexagon
195.0,3.0,3.0,0.0,4.0,4.0,331.2548010144382,4.0,1.0,phase_1,,,,,,,,,,,,,magenta,diamond
55.0,5.0,1.0,1.0,3.0,3.0,325.8656689431518,4.0,1.0,phase_1,,,,,,,,,,,,,green,hexagon
97.0,6.0,2.0,1.0,2.0,2.0,395.6949240528047,4.0,1.0,phase_1,,,,,,,,,,,,,orange,I
119.0,2.0,2.0,0.0,4.0,4.0,375.716732814908,4.0,1.0,phase_1,,,,,,,,,,,,,white,square
0.0,6.0,0.0,1.0,2.0,2.0,321.6651598922908,4.0,1.0,phase_1,,,,,,,,,,,,,orange,I
382.0,8.0,4.0,1.0,4.0,4.0,358.3227940835058,4.0,1.0,phase_1,,,,,,,,,,,,,cyan,triangle
0.0,5.0,1.0,1.0,5.0,0.0,0.0,1.0,1.0,phase_2,stop,250.0,250.0,4.0,,,,,,,,,green,hexagon
0.0,1.0,1.0,0.0,5.0,5.0,488.0934408865869,1.0,1.0,phase_2,go,300.0,250.0,1.0,,,,,,,,,gray,cross
0.0,1.0,1.0,0.0,5.0,5.0,372.6325980387628,1.0,1.0,phase_2,go,300.0,250.0,1.0,,,,,,,,,gray,cross
0.0,7.0,3.0,1.0,5.0,5.0,403.5154371522367,1.0,1.0,phase_2,stop,300.0,250.0,3.0,,,,,,,,,blue,circle
0.0,2.0,2.0,0.0,6.0,6.0,572.969030123204,1.0,1.0,phase_2,go,250.0,250.0,1.0,,,,,,,,,white,square
0.0,8.0,4.0,1.0,5.0,5.0,445.6933990586549,1.0,1.0,phase_2,go,250.0,250.0,1.0,,,,,,,,,cyan,triangle
0.0,1.0,1.0,0.0,6.0,6.0,610.4101398959756,1.0,1.0,phase_2,go,250.0,250.0,1.0,,,,,,,,,gray,cross
0.0,7.0,3.0,1.0,5.0,0.0,0.0,1.0,1.0,phase_2,stop,250.0,250.0,4.0,,,,,,,,,blue,circle
0.0,5.0,1.0,1.0,5.0,0.0,0.0,1.0,1.0,phase_2,stop,300.0,250.0,4.0,,,,,,,,,green,hexagon
0.0,5.0,1.0,1.0,5.0,0.0,0.0,1.0,1.0,phase_2,stop,350.0,250.0,4.0,,,,,,,,,green,hexagon
0.0,1.0,1.0,0.0,6.0,6.0,346.9949860591441,1.0,1.0,phase_2,go,400.0,250.0,1.0,,,,,,,,,gray,cross
0.0,6.0,2.0,1.0,5.0,0.0,0.0,1.0,1.0,phase_2,stop,400.0,250.0,4.0,,,,,,,,,orange,I
0.0,3.0,3.0,0.0,5.0,5.0,1022.8358148597181,1.0,1.0,phase_2,go,450.0,250.0,1.0,,,,,,,,,magenta,diamond
0.0,3.0,3.0,0.0,5.0,5.0,607.0065370295197,1.0,1.0,phase_2,go,450.0,250.0,1.0,,,,,,,,,magenta,diamond
0.0,5.0,1.0,1.0,5.0,5.0,416.3669720292091,1.0,1.0,phase_2,stop,450.0,250.0,3.0,,,,,,,,,green,hexagon
0.0,6.0,2.0,1.0,5.0,0.0,0.0,1.0,1.0,phase_2,stop,400.0,250.0,4.0,,,,,,,,,orange,I
0.0,5.0,1.0,1.0,6.0,6.0,462.5649990048259,1.0,1.0,phase_2,go,450.0,250.0,1.0,,,,,,,,,green,hexagon
0.0,5.0,1.0,1.0,6.0,0.0,0.0,1.0,1.0,phase_2,stop,450.0,250.0,4.0,,,,,,,,,green,hexagon
0.0,8.0,4.0,1.0,5.0,5.0,579.0078931022435,1.0,1.0,phase_2,go,450.0,300.0,1.0,,,,,,,,,cyan,triangle
0.0,7.0,3.0,1.0,6.0,6.0,395.1084269210696,1.0,1.0,phase_2,stop,450.0,300.0,3.0,,,,,,,,,blue,circle
0.0,7.0,3.0,1.0,5.0,5.0,538.7051941361278,1.0,1.0,phase_2,go,450.0,250.0,1.0,,,,,,,,,blue,circle
0.0,8.0,4.0,1.0,5.0,0.0,0.0,1.0,1.0,phase_2,stop,450.0,250.0,4.0,,,,,,,,,cyan,triangle
0.0,4.0,4.0,0.0,6.0,6.0,498.1722470838576,1.0,1.0,phase_2,go,500.0,250.0,1.0,,,,,,,,,yellow,flipped triangle
0.0,8.0,4.0,1.0,6.0,6.0,802.4339070543647,1.0,1.0,phase_2,go,500.0,250.0,1.0,,,,,,,,,cyan,triangle
0.0,2.0,2.0,0.0,6.0,6.0,832.1088580414653,1.0,1.0,phase_2,go,500.0,250.0,1.0,,,,,,,,,white,square
0.0,4.0,4.0,0.0,5.0,5.0,718.9901468809694,1.0,1.0,phase_2,go,500.0,250.0,1.0,,,,,,,,,yellow,flipped triangle
0.0,8.0,4.0,1.0,6.0,0.0,0.0,1.0,1.0,phase_2,stop,500.0,250.0,4.0,,,,,,,,,cyan,triangle
0.0,4.0,4.0,0.0,6.0,6.0,799.4992120657116,1.0,1.0,phase_2,go,500.0,300.0,1.0,,,,,,,,,yellow,flipped triangle
0.0,4.0,4.0,0.0,5.0,5.0,527.3094868753105,1.0,1.0,phase_2,go,500.0,300.0,1.0,,,,,,,,,yellow,flipped triangle
0.0,4.0,4.0,0.0,6.0,6.0,733.8928990066051,1.0,1.0,phase_2,go,500.0,300.0,1.0,,,,,,,,,yellow,flipped triangle
0.0,7.0,3.0,1.0,6.0,6.0,351.3471749611199,1.0,1.0,phase_2,stop,500.0,300.0,3.0,,,,,,,,,blue,circle
0.0,7.0,3.0,1.0,6.0,6.0,675.8449838962406,1.0,1.0,phase_2,go,500.0,250.0,1.0,,,,,,,,,blue,circle
0.0,3.0,3.0,0.0,5.0,5.0,731.2745919916779,1.0,1.0,phase_2,go,500.0,250.0,1.0,,,,,,,,,magenta,diamond
0.0,1.0,1.0,0.0,5.0,5.0,468.1210690177977,1.0,1.0,phase_2,go,500.0,250.0,1.0,,,,,,,,,gray,cross
0.0,1.0,1.0,0.0,6.0,6.0,573.413765989244,1.0,1.0,phase_2,go,500.0,250.0,1.0,,,,,,,,,gray,cross
0.0,3.0,3.0,0.0,6.0,6.0,539.4418588839471,1.0,1.0,phase_2,go,500.0,250.0,1.0,,,,,,,,,magenta,diamond
0.0,2.0,2.0,0.0,5.0,5.0,504.3850759975612,2.0,1.0,phase_2,go,500.0,250.0,1.0,,,,,,,,,white,square
0.0,6.0,2.0,1.0,5.0,5.0,424.3839839473367,2.0,1.0,phase_2,go,500.0,250.0,1.0,,,,,,,,,orange,I
0.0,8.0,4.0,1.0,5.0,5.0,622.3084239754826,2.0,1.0,phase_2,stop,500.0,250.0,3.0,,,,,,,,,cyan,triangle
0.0,1.0,1.0,0.0,6.0,6.0,615.5983388889581,2.0,1.0,phase_2,go,450.0,250.0,1.0,,,,,,,,,gray,cross
0.0,2.0,2.0,0.0,6.0,6.0,613.4570299182087,2.0,1.0,phase_2,go,450.0,250.0,1.0,,,,,,,,,white,square
0.0,5.0,1.0,1.0,5.0,0.0,0.0,2.0,1.0,phase_2,stop,450.0,250.0,4.0,,,,,,,,,green,hexagon
0.0,7.0,3.0,1.0,5.0,0.0,0.0,2.0,1.0,phase_2,stop,500.0,250.0,4.0,,,,,,,,,blue,circle
0.0,1.0,1.0,0.0,6.0,6.0,580.3436348214746,2.0,1.0,phase_2,go,550.0,250.0,1.0,,,,,,,,,gray,cross
0.0,4.0,4.0,0.0,6.0,6.0,580.2262059878558,2.0,1.0,phase_2,go,550.0,250.0,1.0,,,,,,,,,yellow,flipped triangle
0.0,1.0,1.0,0.0,5.0,5.0,772.1228019800037,2.0,1.0,phase_2,go,550.0,250.0,1.0,,,,,,,,,gray,cross
0.0,4.0,4.0,0.0,6.0,6.0,315.1048140134662,2.0,1.0,phase_2,go,550.0,250.0,1.0,,,,,,,,,yellow,flipped triangle
0.0,5.0,1.0,1.0,6.0,0.0,0.0,2.0,1.0,phase_2,stop,550.0,250.0,4.0,,,,,,,,,green,hexagon
0.0,7.0,3.0,1.0,6.0,0.0,0.0,2.0,1.0,phase_2,stop,550.0,300.0,4.0,,,,,,,,,blue,circle
0.0,7.0,3.0,1.0,6.0,0.0,0.0,2.0,1.0,phase_2,stop,550.0,350.0,4.0,,,,,,,,,blue,circle
0.0,1.0,1.0,0.0,6.0,6.0,629.6382299624383,2.0,1.0,phase_2,go,550.0,400.0,1.0,,,,,,,,,gray,cross
0.0,2.0,2.0,0.0,5.0,5.0,551.9153031054884,2.0,1.0,phase_2,go,550.0,400.0,1.0,,,,,,,,,white,square
0.0,4.0,4.0,0.0,6.0,6.0,700.1088848337531,2.0,1.0,phase_2,go,550.0,400.0,1.0,,,,,,,,,yellow,flipped triangle
0.0,6.0,2.0,1.0,5.0,5.0,542.3827490303665,2.0,1.0,phase_2,stop,550.0,400.0,3.0,,,,,,,,,orange,I
0.0,1.0,1.0,0.0,6.0,6.0,723.0890451464802,2.0,1.0,phase_2,go,500.0,400.0,1.0,,,,,,,,,gray,cross
0.0,2.0,2.0,0.0,6.0,6.0,491.1138971801847,2.0,1.0,phase_2,go,500.0,400.0,1.0,,,,,,,,,white,square
0.0,3.0,3.0,0.0,5.0,5.0,525.2926270477474,2.0,1.0,phase_2,go,500.0,400.0,1.0,,,,,,,,,magenta,diamond
0.0,5.0,1.0,1.0,6.0,6.0,732.6125209219754,2.0,1.0,phase_2,go,500.0,400.0,1.0,,,,,,,,,green,hexagon
0.0,2.0,2.0,0.0,6.0,6.0,675.3871471155435,2.0,1.0,phase_2,go,500.0,400.0,1.0,,,,,,,,,white,square
0.0,1.0,1.0,0.0,6.0,6.0,713.3197339717299,2.0,1.0,phase_2,go,500.0,400.0,1.0,,,,,,,,,gray,cross
0.0,3.0,3.0,0.0,6.0,6.0,698.8859050907195,2.0,1.0,phase_2,go,500.0,400.0,1.0,,,,,,,,,magenta,diamond
0.0,2.0,2.0,0.0,6.0,6.0,936.0000691376626,2.0,1.0,phase_2,go,500.0,400.0,1.0,,,,,,,,,white,square
0.0,5.0,1.0,1.0,6.0,0.0,0.0,2.0,1.0,phase_2,stop,500.0,400.0,4.0,,,,,,,,,green,hexagon
0.0,8.0,4.0,1.0,6.0,6.0,1038.3713038172573,2.0,1.0,phase_2,stop,500.0,450.0,3.0,,,,,,,,,cyan,triangle
0.0,3.0,3.0,0.0,5.0,5.0,824.7826509177685,2.0,1.0,phase_2,go,500.0,400.0,1.0,,,,,,,,,magenta,diamond
0.0,3.0,3.0,0.0,6.0,6.0,860.9720959793776,2.0,1.0,phase_2,go,500.0,400.0,1.0,,,,,,,,,magenta,diamond
0.0,2.0,2.0,0.0,5.0,5.0,871.9585610087961,2.0,1.0,phase_2,go,500.0,400.0,1.0,,,,,,,,,white,square
0.0,7.0,3.0,1.0,6.0,0.0,0.0,2.0,1.0,phase_2,stop,500.0,400.0,4.0,,,,,,,,,blue,circle
0.0,3.0,3.0,0.0,5.0,5.0,979.0654669050128,2.0,1.0,phase_2,go,500.0,450.0,1.0,,,,,,,,,magenta,diamond
0.0,1.0,1.0,0.0,6.0,6.0,780.1283979788423,2.0,1.0,phase_2,go,500.0,450.0,1.0,,,,,,,,,gray,cross
0.0,7.0,3.0,1.0,5.0,5.0,469.762559980154,2.0,1.0,phase_2,stop,500.0,450.0,3.0,,,,,,,,,blue,circle
0.0,2.0,2.0,0.0,6.0,6.0,594.2486620042473,2.0,1.0,phase_2,go,450.0,450.0,1.0,,,,,,,,,white,square
0.0,7.0,3.0,1.0,6.0,6.0,837.9376439843327,3.0,1.0,phase_2,stop,450.0,450.0,3.0,,,,,,,,,blue,circle
0.0,3.0,3.0,0.0,5.0,5.0,549.4835670106113,3.0,1.0,phase_2,go,450.0,400.0,1.0,,,,,,,,,magenta,diamond
0.0,4.0,4.0,0.0,6.0,6.0,519.491886952892,3.0,1.0,phase_2,go,450.0,400.0,1.0,,,,,,,,,yellow,flipped triangle
0.0,6.0,2.0,1.0,6.0,0.0,0.0,3.0,1.0,phase_2,stop,450.0,400.0,4.0,,,,,,,,,orange,I
0.0,4.0,4.0,0.0,5.0,5.0,604.6123611740768,3.0,1.0,phase_2,go,450.0,450.0,1.0,,,,,,,,,yellow,flipped triangle
0.0,1.0,1.0,0.0,5.0,5.0,475.6201778072864,3.0,1.0,phase_2,go,450.0,450.0,1.0,,,,,,,,,gray,cross
0.0,3.0,3.0,0.0,5.0,5.0,682.5839618686587,3.0,1.0,phase_2,go,450.0,450.0,1.0,,,,,,,,,magenta,diamond
0.0,6.0,2.0,1.0,6.0,6.0,1137.4823008663952,3.0,1.0,phase_2,go,450.0,450.0,1.0,,,,,,,,,orange,I
0.0,2.0,2.0,0.0,5.0,5.0,809.5315739046782,3.0,1.0,phase_2,go,450.0,450.0,1.0,,,,,,,,,white,square
0.0,2.0,2.0,0.0,5.0,5.0,944.9479531031102,3.0,1.0,phase_2,go,450.0,450.0,1.0,,,,,,,,,white,square
0.0,5.0,1.0,1.0,5.0,0.0,0.0,3.0,1.0,phase_2,stop,450.0,450.0,4.0,,,,,,,,,green,hexagon
0.0,7.0,3.0,1.0,5.0,0.0,0.0,3.0,1.0,phase_2,stop,500.0,450.0,4.0,,,,,,,,,blue,circle
0.0,5.0,1.0,1.0,5.0,5.0,808.5565268993378,3.0,1.0,phase_2,go,550.0,450.0,1.0,,,,,,,,,green,hexagon
0.0,4.0,4.0,0.0,5.0,5.0,709.7964060958475,3.0,1.0,phase_2,go,550.0,450.0,1.0,,,,,,,,,yellow,flipped triangle
0.0,2.0,2.0,0.0,6.0,6.0,609.5492879394442,3.0,1.0,phase_2,go,550.0,450.0,1.0,,,,,,,,,white,square
0.0,8.0,4.0,1.0,6.0,6.0,597.4201911594719,3.0,1.0,phase_2,stop,550.0,450.0,3.0,,,,,,,,,cyan,triangle
0.0,7.0,3.0,1.0,5.0,5.0,470.5609490629285,3.0,1.0,phase_2,stop,550.0,400.0,3.0,,,,,,,,,blue,circle
0.0,1.0,1.0,0.0,5.0,5.0,724.6753168292344,3.0,1.0,phase_2,go,500.0,400.0,1.0,,,,,,,,,gray,cross
0.0,5.0,1.0,1.0,5.0,5.0,556.1764750164002,3.0,1.0,phase_2,stop,500.0,400.0,3.0,,,,,,,,,green,hexagon
0.0,6.0,2.0,1.0,6.0,6.0,471.0219979751855,3.0,1.0,phase_2,go,450.0,400.0,1.0,,,,,,,,,orange,I
0.0,2.0,2.0,0.0,5.0,5.0,787.167603848502,3.0,1.0,phase_2,go,450.0,400.0,1.0,,,,,,,,,white,square
0.0,3.0,3.0,0.0,6.0,6.0,641.3612621836364,3.0,1.0,phase_2,go,450.0,400.0,1.0,,,,,,,,,magenta,diamond
0.0,2.0,2.0,0.0,5.0,5.0,692.4309390597045,3.0,1.0,phase_2,go,450.0,400.0,1.0,,,,,,,,,white,square
0.0,8.0,4.0,1.0,6.0,0.0,0.0,3.0,1.0,phase_2,stop,450.0,400.0,4.0,,,,,,,,,cyan,triangle
0.0,6.0,2.0,1.0,5.0,0.0,0.0,3.0,1.0,phase_2,stop,450.0,450.0,4.0,,,,,,,,,orange,I
0.0,2.0,2.0,0.0,6.0,6.0,887.1988321188837,3.0,1.0,phase_2,go,500.0,450.0,1.0,,,,,,,,,white,square
0.0,7.0,3.0,1.0,5.0,5.0,528.7213181145489,3.0,1.0,phase_2,stop,500.0,450.0,3.0,,,,,,,,,blue,circle
0.0,5.0,1.0,1.0,5.0,0.0,0.0,3.0,1.0,phase_2,stop,450.0,450.0,4.0,,,,,,,,,green,hexagon
0.0,8.0,4.0,1.0,6.0,6.0,559.5627529546618,3.0,1.0,phase_2,stop,500.0,450.0,3.0,,,,,,,,,cyan,triangle
0.0,7.0,3.0,1.0,5.0,5.0,656.9754078518599,3.0,1.0,phase_2,go,500.0,400.0,1.0,,,,,,,,,blue,circle
0.0,7.0,3.0,1.0,6.0,6.0,520.4847850836813,3.0,1.0,phase_2,stop,500.0,400.0,3.0,,,,,,,,,blue,circle
0.0,7.0,3.0,1.0,5.0,5.0,620.4385589808226,3.0,1.0,phase_2,go,500.0,350.0,1.0,,,,,,,,,blue,circle
0.0,8.0,4.0,1.0,5.0,5.0,436.2436470109969,3.0,1.0,phase_2,stop,500.0,350.0,3.0,,,,,,,,,cyan,triangle
0.0,6.0,2.0,1.0,6.0,0.0,0.0,3.0,1.0,phase_2,stop,450.0,350.0,4.0,,,,,,,,,orange,I
0.0,3.0,3.0,0.0,6.0,6.0,755.6786718778312,3.0,1.0,phase_2,go,450.0,400.0,1.0,,,,,,,,,magenta,diamond
0.0,8.0,4.0,1.0,5.0,5.0,649.9422518536448,3.0,1.0,phase_2,go,450.0,400.0,1.0,,,,,,,,,cyan,triangle
0.0,7.0,3.0,1.0,5.0,5.0,858.2565600518137,4.0,1.0,phase_2,stop,450.0,400.0,3.0,,,,,,,,,blue,circle
0.0,8.0,4.0,1.0,5.0,0.0,0.0,4.0,1.0,phase_2,stop,400.0,400.0,4.0,,,,,,,,,cyan,triangle
0.0,3.0,3.0,0.0,5.0,5.0,592.4453490879387,4.0,1.0,phase_2,go,450.0,400.0,1.0,,,,,,,,,magenta,diamond
0.0,3.0,3.0,0.0,5.0,5.0,590.059933019802,4.0,1.0,phase_2,go,450.0,400.0,1.0,,,,,,,,,magenta,diamond
0.0,2.0,2.0,0.0,6.0,6.0,541.6231749113649,4.0,1.0,phase_2,go,450.0,400.0,1.0,,,,,,,,,white,square
0.0,5.0,1.0,1.0,5.0,5.0,285.1404268294573,4.0,1.0,phase_2,stop,450.0,400.0,3.0,,,,,,,,,green,hexagon
0.0,3.0,3.0,0.0,6.0,6.0,356.2352599110454,4.0,1.0,phase_2,go,400.0,400.0,1.0,,,,,,,,,magenta,diamond
0.0,8.0,4.0,1.0,5.0,5.0,372.6622958201915,4.0,1.0,phase_2,go,400.0,400.0,1.0,,,,,,,,,cyan,triangle
0.0,5.0,1.0,1.0,6.0,6.0,252.825842006132,4.0,1.0,phase_2,go,400.0,400.0,1.0,,,,,,,,,green,hexagon
0.0,6.0,2.0,1.0,6.0,6.0,620.5106279812753,4.0,1.0,phase_2,stop,400.0,400.0,3.0,,,,,,,,,orange,I
0.0,3.0,3.0,0.0,5.0,5.0,509.1481620911509,4.0,1.0,phase_2,go,400.0,350.0,1.0,,,,,,,,,magenta,diamond
0.0,8.0,4.0,1.0,6.0,6.0,505.62344095669687,4.0,1.0,phase_2,go,400.0,350.0,1.0,,,,,,,,,cyan,triangle
0.0,4.0,4.0,0.0,5.0,5.0,637.0876240544021,4.0,1.0,phase_2,go,400.0,350.0,1.0,,,,,,,,,yellow,flipped triangle
0.0,7.0,3.0,1.0,5.0,0.0,0.0,4.0,1.0,phase_2,stop,400.0,350.0,4.0,,,,,,,,,blue,circle
0.0,4.0,4.0,0.0,5.0,5.0,479.7194800339639,4.0,1.0,phase_2,go,450.0,350.0,1.0,,,,,,,,,yellow,flipped triangle
0.0,2.0,2.0,0.0,6.0,6.0,561.4225480239838,4.0,1.0,phase_2,go,450.0,350.0,1.0,,,,,,,,,white,square
0.0,6.0,2.0,1.0,5.0,5.0,472.7087561041116,4.0,1.0,phase_2,stop,450.0,350.0,3.0,,,,,,,,,orange,I
0.0,4.0,4.0,0.0,5.0,5.0,770.0866688974202,4.0,1.0,phase_2,go,400.0,350.0,1.0,,,,,,,,,yellow,flipped triangle
0.0,3.0,3.0,0.0,6.0,6.0,561.5643779747188,4.0,1.0,phase_2,go,400.0,350.0,1.0,,,,,,,,,magenta,diamond
0.0,8.0,4.0,1.0,5.0,0.0,0.0,4.0,1.0,phase_2,stop,400.0,350.0,4.0,,,,,,,,,cyan,triangle
0.0,4.0,4.0,0.0,6.0,6.0,492.4854158889502,4.0,1.0,phase_2,go,450.0,350.0,1.0,,,,,,,,,yellow,flipped triangle
0.0,4.0,4.0,0.0,6.0,6.0,420.3711450099945,4.0,1.0,phase_2,go,450.0,350.0,1.0,,,,,,,,,yellow,flipped triangle
0.0,6.0,2.0,1.0,6.0,6.0,487.1244330424815,4.0,1.0,phase_2,go,450.0,350.0,1.0,,,,,,,,,orange,I
0.0,3.0,3.0,0.0,6.0,6.0,702.2949538659304,4.0,1.0,phase_2,go,450.0,350.0,1.0,,,,,,,,,magenta,diamond
0.0,8.0,4.0,1.0,5.0,5.0,397.3717940971255,4.0,1.0,phase_2,stop,450.0,350.0,3.0,,,,,,,,,cyan,triangle
0.0,8.0,4.0,1.0,6.0,6.0,330.5752209853381,4.0,1.0,phase_2,stop,400.0,350.0,3.0,,,,,,,,,cyan,triangle
0.0,8.0,4.0,1.0,5.0,5.0,380.2728061564266,4.0,1.0,phase_2,go,400.0,300.0,1.0,,,,,,,,,cyan,triangle
0.0,1.0,1.0,0.0,5.0,5.0,417.36811818555,4.0,1.0,phase_2,go,400.0,300.0,1.0,,,,,,,,,gray,cross
0.0,1.0,1.0,0.0,5.0,5.0,361.4520109258592,4.0,1.0,phase_2,go,400.0,300.0,1.0,,,,,,,,,gray,cross
0.0,1.0,1.0,0.0,6.0,6.0,562.7425122074783,4.0,1.0,phase_2,go,400.0,300.0,1.0,,,,,,,,,gray,cross
0.0,4.0,4.0,0.0,6.0,6.0,394.2586840130389,4.0,1.0,phase_2,go,400.0,300.0,1.0,,,,,,,,,yellow,flipped triangle
0.0,7.0,3.0,1.0,6.0,0.0,0.0,4.0,1.0,phase_2,stop,400.0,300.0,4.0,,,,,,,,,blue,circle
0.0,1.0,1.0,0.0,5.0,5.0,488.4243779815733,4.0,1.0,phase_2,go,400.0,350.0,1.0,,,,,,,,,gray,cross
0.0,3.0,3.0,0.0,6.0,6.0,495.8321209996938,4.0,1.0,phase_2,go,400.0,350.0,1.0,,,,,,,,,magenta,diamond
0.0,2.0,2.0,0.0,5.0,5.0,384.202775079757,4.0,1.0,phase_2,go,400.0,350.0,1.0,,,,,,,,,white,square
0.0,3.0,3.0,0.0,6.0,6.0,300.886953016743,4.0,1.0,phase_2,go,400.0,350.0,1.0,,,,,,,,,magenta,diamond
0.0,7.0,3.0,1.0,6.0,6.0,1105.074150953442,5.0,1.0,phase_2,stop,400.0,350.0,3.0,,,,,,,,,blue,circle
0.0,6.0,2.0,1.0,5.0,5.0,434.3224570620805,5.0,1.0,phase_2,stop,400.0,300.0,3.0,,,,,,,,,orange,I
0.0,6.0,2.0,1.0,6.0,0.0,0.0,5.0,1.0,phase_2,stop,350.0,300.0,4.0,,,,,,,,,orange,I
0.0,4.0,4.0,0.0,6.0,6.0,503.41785815544426,5.0,1.0,phase_2,go,350.0,350.0,1.0,,,,,,,,,yellow,flipped triangle
0.0,1.0,1.0,0.0,6.0,6.0,461.6970890201628,5.0,1.0,phase_2,go,350.0,350.0,1.0,,,,,,,,,gray,cross
0.0,8.0,4.0,1.0,6.0,6.0,512.602336006239,5.0,1.0,phase_2,go,350.0,350.0,1.0,,,,,,,,,cyan,triangle
0.0,5.0,1.0,1.0,6.0,6.0,335.714200977236,5.0,1.0,phase_2,stop,350.0,350.0,3.0,,,,,,,,,green,hexagon
0.0,4.0,4.0,0.0,5.0,5.0,359.4517130404711,5.0,1.0,phase_2,go,350.0,300.0,1.0,,,,,,,,,yellow,flipped triangle
0.0,1.0,1.0,0.0,6.0,6.0,338.8143531046808,5.0,1.0,phase_2,go,350.0,300.0,1.0,,,,,,,,,gray,cross
0.0,6.0,2.0,1.0,6.0,6.0,379.1084408294409,5.0,1.0,phase_2,go,350.0,300.0,1.0,,,,,,,,,orange,I
0.0,3.0,3.0,0.0,5.0,5.0,372.5512190721929,5.0,1.0,phase_2,go,350.0,300.0,1.0,,,,,,,,,magenta,diamond
0.0,4.0,4.0,0.0,5.0,5.0,331.0940267983824,5.0,1.0,phase_2,go,350.0,300.0,1.0,,,,,,,,,yellow,flipped triangle
0.0,3.0,3.0,0.0,5.0,5.0,378.4724480938166,5.0,1.0,phase_2,go,350.0,300.0,1.0,,,,,,,,,magenta,diamond
0.0,4.0,4.0,0.0,6.0,6.0,516.0074178129435,5.0,1.0,phase_2,go,350.0,300.0,1.0,,,,,,,,,yellow,flipped triangle
0.0,6.0,2.0,1.0,5.0,5.0,344.1317428369075,5.0,1.0,phase_2,stop,350.0,300.0,3.0,,,,,,,,,orange,I
0.0,1.0,1.0,0.0,6.0,6.0,401.6372698824852,5.0,1.0,phase_2,go,300.0,300.0,1.0,,,,,,,,,gray,cross
0.0,5.0,1.0,1.0,6.0,6.0,430.2946561947465,5.0,1.0,phase_2,stop,300.0,300.0,3.0,,,,,,,,,green,hexagon
0.0,4.0,4.0,0.0,5.0,5.0,326.8566669430583,5.0,1.0,phase_2,go,300.0,250.0,1.0,,,,,,,,,yellow,flipped triangle
0.0,7.0,3.0,1.0,5.0,5.0,373.3862461522221,5.0,1.0,phase_2,go,300.0,250.0,1.0,,,,,,,,,blue,circle
0.0,5.0,1.0,1.0,6.0,6.0,400.6432658061385,5.0,1.0,phase_2,stop,300.0,250.0,3.0,,,,,,,,,green,hexagon
0.0,4.0,4.0,0.0,5.0,5.0,1182.2245030198246,5.0,1.0,phase_2,go,300.0,200.0,1.0,,,,,,,,,yellow,flipped triangle
0.0,2.0,2.0,0.0,6.0,6.0,462.806360097602,5.0,1.0,phase_2,go,300.0,200.0,1.0,,,,,,,,,white,square
0.0,7.0,3.0,1.0,5.0,5.0,343.3091801125556,5.0,1.0,phase_2,stop,300.0,200.0,3.0,,,,,,,,,blue,circle
0.0,3.0,3.0,0.0,6.0,6.0,413.3323389105499,5.0,1.0,phase_2,go,250.0,200.0,1.0,,,,,,,,,magenta,diamond
0.0,2.0,2.0,0.0,5.0,5.0,338.8332009781152,5.0,1.0,phase_2,go,250.0,200.0,1.0,,,,,,,,,white,square
0.0,2.0,2.0,0.0,6.0,6.0,323.3738781418651,5.0,1.0,phase_2,go,250.0,200.0,1.0,,,,,,,,,white,square
0.0,6.0,2.0,1.0,6.0,6.0,427.7575241867453,5.0,1.0,phase_2,go,250.0,200.0,1.0,,,,,,,,,orange,I
0.0,2.0,2.0,0.0,5.0,5.0,380.1319699268788,5.0,1.0,phase_2,go,250.0,200.0,1.0,,,,,,,,,white,square
0.0,3.0,3.0,0.0,6.0,6.0,315.0497227907181,5.0,1.0,phase_2,go,250.0,200.0,1.0,,,,,,,,,magenta,diamond
0.0,6.0,2.0,1.0,5.0,5.0,279.5554420445114,5.0,1.0,phase_2,stop,250.0,200.0,3.0,,,,,,,,,orange,I
0.0,7.0,3.0,1.0,6.0,6.0,607.4801939539611,5.0,1.0,phase_2,stop,200.0,200.0,3.0,,,,,,,,,blue,circle
0.0,5.0,1.0,1.0,6.0,0.0,0.0,5.0,1.0,phase_2,stop,200.0,150.0,4.0,,,,,,,,,green,hexagon
0.0,5.0,1.0,1.0,5.0,5.0,462.4126441776752,5.0,1.0,phase_2,go,200.0,200.0,1.0,,,,,,,,,green,hexagon
0.0,6.0,2.0,1.0,6.0,0.0,0.0,5.0,1.0,phase_2,stop,200.0,200.0,4.0,,,,,,,,,orange,I
0.0,6.0,2.0,1.0,6.0,0.0,0.0,5.0,1.0,phase_2,stop,200.0,250.0,4.0,,,,,,,,,orange,I
0.0,2.0,2.0,0.0,5.0,5.0,278.3998111262917,5.0,1.0,phase_2,go,200.0,300.0,1.0,,,,,,,,,white,square
0.0,7.0,3.0,1.0,5.0,5.0,1025.2037399914116,6.0,1.0,phase_2,stop,200.0,300.0,3.0,,,,,,,,,blue,circle
0.0,6.0,2.0,1.0,5.0,5.0,350.1365969423204,6.0,1.0,phase_2,stop,150.0,300.0,3.0,,,,,,,,,orange,I
0.0,1.0,1.0,0.0,5.0,5.0,465.1039510499686,6.0,1.0,phase_2,go,100.0,300.0,1.0,,,,,,,,,gray,cross
0.0,8.0,4.0,1.0,6.0,6.0,318.1101670488715,6.0,1.0,phase_2,stop,100.0,300.0,3.0,,,,,,,,,cyan,triangle
0.0,8.0,4.0,1.0,6.0,0.0,0.0,6.0,1.0,phase_2,stop,100.0,250.0,4.0,,,,,,,,,cyan,triangle
0.0,8.0,4.0,1.0,6.0,6.0,415.8457529265433,6.0,1.0,phase_2,stop,100.0,300.0,3.0,,,,,,,,,cyan,triangle
0.0,1.0,1.0,0.0,5.0,5.0,549.9036780092865,6.0,1.0,phase_2,go,100.0,250.0,1.0,,,,,,,,,gray,cross
0.0,8.0,4.0,1.0,5.0,0.0,0.0,6.0,1.0,phase_2,stop,100.0,250.0,4.0,,,,,,,,,cyan,triangle
0.0,2.0,2.0,0.0,5.0,5.0,493.6689848545939,6.0,1.0,phase_2,go,150.0,250.0,1.0,,,,,,,,,white,square
0.0,3.0,3.0,0.0,6.0,6.0,305.9791531413793,6.0,1.0,phase_2,go,150.0,250.0,1.0,,,,,,,,,magenta,diamond
0.0,7.0,3.0,1.0,6.0,0.0,0.0,6.0,1.0,phase_2,stop,150.0,250.0,4.0,,,,,,,,,blue,circle
0.0,8.0,4.0,1.0,5.0,0.0,0.0,6.0,1.0,phase_2,stop,150.0,300.0,4.0,,,,,,,,,cyan,triangle
0.0,2.0,2.0,0.0,5.0,5.0,514.7681038361043,6.0,1.0,phase_2,go,200.0,300.0,1.0,,,,,,,,,white,square
0.0,5.0,1.0,1.0,5.0,0.0,0.0,6.0,1.0,phase_2,stop,200.0,300.0,4.0,,,,,,,,,green,hexagon
0.0,7.0,3.0,1.0,6.0,6.0,406.7500079981982,6.0,1.0,phase_2,go,250.0,300.0,1.0,,,,,,,,,blue,circle
0.0,3.0,3.0,0.0,6.0,6.0,511.843804968521,6.0,1.0,phase_2,go,250.0,300.0,1.0,,,,,,,,,magenta,diamond
0.0,3.0,3.0,0.0,5.0,5.0,360.9717669896781,6.0,1.0,phase_2,go,250.0,300.0,1.0,,,,,,,,,magenta,diamond
0.0,4.0,4.0,0.0,5.0,5.0,343.9772571437061,6.0,1.0,phase_2,go,250.0,300.0,1.0,,,,,,,,,yellow,flipped triangle
0.0,6.0,2.0,1.0,5.0,5.0,343.3270340319723,6.0,1.0,phase_2,stop,250.0,300.0,3.0,,,,,,,,,orange,I
0.0,3.0,3.0,0.0,6.0,6.0,333.5640002042055,6.0,1.0,phase_2,go,200.0,300.0,1.0,,,,,,,,,magenta,diamond
0.0,6.0,2.0,1.0,5.0,5.0,332.4014800600707,6.0,1.0,phase_2,stop,200.0,300.0,3.0,,,,,,,,,orange,I
0.0,8.0,4.0,1.0,6.0,6.0,525.806549936533,6.0,1.0,phase_2,stop,150.0,300.0,3.0,,,,,,,,,cyan,triangle
0.0,8.0,4.0,1.0,6.0,0.0,0.0,6.0,1.0,phase_2,stop,150.0,250.0,4.0,,,,,,,,,cyan,triangle
0.0,5.0,1.0,1.0,6.0,6.0,419.0460729878396,6.0,1.0,phase_2,go,150.0,300.0,1.0,,,,,,,,,green,hexagon
0.0,4.0,4.0,0.0,6.0,6.0,498.8541640341282,6.0,1.0,phase_2,go,150.0,300.0,1.0,,,,,,,,,yellow,flipped triangle
0.0,4.0,4.0,0.0,6.0,6.0,539.5442279987037,6.0,1.0,phase_2,go,150.0,300.0,1.0,,,,,,,,,yellow,flipped triangle
0.0,5.0,1.0,1.0,5.0,5.0,320.2101769857108,6.0,1.0,phase_2,go,150.0,300.0,1.0,,,,,,,,,green,hexagon
0.0,7.0,3.0,1.0,6.0,6.0,450.3365501295775,6.0,1.0,phase_2,go,150.0,300.0,1.0,,,,,,,,,blue,circle
0.0,8.0,4.0,1.0,5.0,5.0,303.9897328708321,6.0,1.0,phase_2,stop,150.0,300.0,3.0,,,,,,,,,cyan,triangle
0.0,4.0,4.0,0.0,5.0,5.0,378.8131959736347,6.0,1.0,phase_2,go,100.0,300.0,1.0,,,,,,,,,yellow,flipped triangle
0.0,6.0,2.0,1.0,5.0,0.0,0.0,6.0,1.0,phase_2,stop,100.0,300.0,4.0,,,,,,,,,orange,I
0.0,6.0,2.0,1.0,5.0,0.0,0.0,6.0,1.0,phase_2,stop,150.0,300.0,4.0,,,,,,,,,orange,I
0.0,8.0,4.0,1.0,5.0,5.0,301.5726360026747,6.0,1.0,phase_2,stop,200.0,300.0,3.0,,,,,,,,,cyan,triangle
0.0,4.0,4.0,0.0,6.0,6.0,270.6155169289559,6.0,1.0,phase_2,go,150.0,300.0,1.0,,,,,,,,,yellow,flipped triangle
0.0,3.0,3.0,0.0,6.0,6.0,468.5997308697551,6.0,1.0,phase_2,go,150.0,300.0,1.0,,,,,,,,,magenta,diamond
0.0,6.0,2.0,1.0,6.0,6.0,340.4202118981629,6.0,1.0,phase_2,stop,150.0,300.0,3.0,,,,,,,,,orange,I
0.0,5.0,1.0,1.0,6.0,0.0,0.0,7.0,1.0,phase_2,stop,150.0,250.0,4.0,,,,,,,,,green,hexagon
0.0,2.0,2.0,0.0,5.0,5.0,507.16982898302376,7.0,1.0,phase_2,go,150.0,300.0,1.0,,,,,,,,,white,square
0.0,1.0,1.0,0.0,5.0,5.0,450.2525550778955,7.0,1.0,phase_2,go,150.0,300.0,1.0,,,,,,,,,gray,cross
0.0,8.0,4.0,1.0,5.0,5.0,324.7051208745688,7.0,1.0,phase_2,stop,150.0,300.0,3.0,,,,,,,,,cyan,triangle
0.0,5.0,1.0,1.0,6.0,6.0,309.1677988413721,7.0,1.0,phase_2,go,100.0,300.0,1.0,,,,,,,,,green,hexagon
0.0,1.0,1.0,0.0,6.0,6.0,360.4400968179106,7.0,1.0,phase_2,go,100.0,300.0,1.0,,,,,,,,,gray,cross
0.0,3.0,3.0,0.0,5.0,5.0,393.9289869740605,7.0,1.0,phase_2,go,100.0,300.0,1.0,,,,,,,,,magenta,diamond
0.0,4.0,4.0,0.0,6.0,6.0,304.1276030708104,7.0,1.0,phase_2,go,100.0,300.0,1.0,,,,,,,,,yellow,flipped triangle
0.0,5.0,1.0,1.0,5.0,0.0,0.0,7.0,1.0,phase_2,stop,100.0,300.0,4.0,,,,,,,,,green,hexagon
0.0,6.0,2.0,1.0,6.0,6.0,434.2194490600377,7.0,1.0,phase_2,stop,150.0,300.0,3.0,,,,,,,,,orange,I
0.0,6.0,2.0,1.0,6.0,6.0,502.711612964049,7.0,1.0,phase_2,go,150.0,250.0,1.0,,,,,,,,,orange,I
0.0,2.0,2.0,0.0,6.0,6.0,333.4664148278534,7.0,1.0,phase_2,go,150.0,250.0,1.0,,,,,,,,,white,square
0.0,7.0,3.0,1.0,6.0,6.0,508.76448187045753,7.0,1.0,phase_2,stop,150.0,250.0,3.0,,,,,,,,,blue,circle
0.0,8.0,4.0,1.0,5.0,5.0,317.2715720720589,7.0,1.0,phase_2,go,150.0,200.0,1.0,,,,,,,,,cyan,triangle
0.0,5.0,1.0,1.0,5.0,0.0,0.0,7.0,1.0,phase_2,stop,150.0,200.0,4.0,,,,,,,,,green,hexagon
0.0,1.0,1.0,0.0,5.0,5.0,398.0680541135371,7.0,1.0,phase_2,go,200.0,200.0,1.0,,,,,,,,,gray,cross
0.0,1.0,1.0,0.0,6.0,6.0,395.7723160274327,7.0,1.0,phase_2,go,200.0,200.0,1.0,,,,,,,,,gray,cross
0.0,6.0,2.0,1.0,5.0,5.0,316.0172770731151,7.0,1.0,phase_2,go,200.0,200.0,1.0,,,,,,,,,orange,I
0.0,2.0,2.0,0.0,6.0,6.0,329.5638968702405,7.0,1.0,phase_2,go,200.0,200.0,1.0,,,,,,,,,white,square
0.0,5.0,1.0,1.0,5.0,0.0,0.0,7.0,1.0,phase_2,stop,200.0,200.0,4.0,,,,,,,,,green,hexagon
0.0,2.0,2.0,0.0,5.0,5.0,464.7287719417363,7.0,1.0,phase_2,go,250.0,200.0,1.0,,,,,,,,,white,square
0.0,4.0,4.0,0.0,6.0,6.0,401.0835899971425,7.0,1.0,phase_2,go,250.0,200.0,1.0,,,,,,,,,yellow,flipped triangle
0.0,2.0,2.0,0.0,5.0,5.0,343.060506042093,7.0,1.0,phase_2,go,250.0,200.0,1.0,,,,,,,,,white,square
0.0,6.0,2.0,1.0,6.0,6.0,353.7897190544754,7.0,1.0,phase_2,stop,250.0,200.0,3.0,,,,,,,,,orange,I
0.0,4.0,4.0,0.0,5.0,5.0,537.7268949523568,7.0,1.0,phase_2,go,250.0,150.0,1.0,,,,,,,,,yellow,flipped triangle
0.0,6.0,2.0,1.0,6.0,0.0,0.0,7.0,1.0,phase_2,stop,250.0,150.0,4.0,,,,,,,,,orange,I
0.0,5.0,1.0,1.0,6.0,0.0,0.0,7.0,1.0,phase_2,stop,250.0,200.0,4.0,,,,,,,,,green,hexagon
0.0,6.0,2.0,1.0,5.0,5.0,302.047325996682,7.0,1.0,phase_2,stop,250.0,250.0,3.0,,,,,,,,,orange,I
0.0,1.0,1.0,0.0,5.0,5.0,471.949297003448,7.0,1.0,phase_2,go,200.0,250.0,1.0,,,,,,,,,gray,cross
0.0,7.0,3.0,1.0,6.0,6.0,507.19301612116396,7.0,1.0,phase_2,go,200.0,250.0,1.0,,,,,,,,,blue,circle
0.0,2.0,2.0,0.0,6.0,6.0,318.7798650469631,7.0,1.0,phase_2,go,200.0,250.0,1.0,,,,,,,,,white,square
0.0,7.0,3.0,1.0,5.0,5.0,317.7291210740804,7.0,1.0,phase_2,stop,200.0,250.0,3.0,,,,,,,,,blue,circle
0.0,1.0,1.0,0.0,5.0,5.0,409.3765721190721,7.0,1.0,phase_2,go,150.0,250.0,1.0,,,,,,,,,gray,cross
0.0,3.0,3.0,0.0,5.0,5.0,330.4593779612332,7.0,1.0,phase_2,go,150.0,250.0,1.0,,,,,,,,,magenta,diamond
0.0,5.0,1.0,1.0,5.0,5.0,331.8813950754702,7.0,1.0,phase_2,stop,150.0,250.0,3.0,,,,,,,,,green,hexagon
0.0,5.0,1.0,1.0,5.0,5.0,505.41679095476866,7.0,1.0,phase_2,go,100.0,250.0,1.0,,,,,,,,,green,hexagon
0.0,1.0,1.0,0.0,6.0,0.0,0.0,8.0,1.0,phase_2,go,100.0,250.0,5.0,,,,,,,,,gray,cross
0.0,8.0,4.0,1.0,5.0,5.0,426.8757030367851,8.0,1.0,phase_2,stop,100.0,250.0,3.0,,,,,,,,,cyan,triangle
0.0,4.0,4.0,0.0,5.0,5.0,370.8043498918414,8.0,1.0,phase_2,go,50.0,250.0,1.0,,,,,,,,,yellow,flipped triangle
0.0,2.0,2.0,0.0,6.0,6.0,344.713422935456,8.0,1.0,phase_2,go,50.0,250.0,1.0,,,,,,,,,white,square
0.0,6.0,2.0,1.0,6.0,6.0,362.5434851273894,8.0,1.0,phase_2,go,50.0,250.0,1.0,,,,,,,,,orange,I
0.0,6.0,2.0,1.0,6.0,6.0,383.0050330143422,8.0,1.0,phase_2,stop,50.0,250.0,3.0,,,,,,,,,orange,I
0.0,7.0,3.0,1.0,6.0,6.0,456.7543850280344,8.0,1.0,phase_2,go,50.0,200.0,1.0,,,,,,,,,blue,circle
0.0,8.0,4.0,1.0,6.0,6.0,385.9924040734768,8.0,1.0,phase_2,stop,50.0,200.0,3.0,,,,,,,,,cyan,triangle
0.0,3.0,3.0,0.0,6.0,6.0,511.2300179898739,8.0,1.0,phase_2,go,50.0,150.0,1.0,,,,,,,,,magenta,diamond
0.0,7.0,3.0,1.0,5.0,0.0,0.0,8.0,1.0,phase_2,stop,50.0,150.0,4.0,,,,,,,,,blue,circle
0.0,5.0,1.0,1.0,6.0,0.0,0.0,8.0,1.0,phase_2,stop,100.0,150.0,4.0,,,,,,,,,green,hexagon
0.0,2.0,2.0,0.0,5.0,5.0,588.3235638029873,8.0,1.0,phase_2,go,100.0,200.0,1.0,,,,,,,,,white,square
0.0,4.0,4.0,0.0,5.0,5.0,675.4306538496166,8.0,1.0,phase_2,go,100.0,200.0,1.0,,,,,,,,,yellow,flipped triangle
0.0,1.0,1.0,0.0,5.0,5.0,539.9499039631337,8.0,1.0,phase_2,go,100.0,200.0,1.0,,,,,,,,,gray,cross
0.0,4.0,4.0,0.0,5.0,5.0,521.8994910828769,8.0,1.0,phase_2,go,100.0,200.0,1.0,,,,,,,,,yellow,flipped triangle
0.0,7.0,3.0,1.0,5.0,0.0,0.0,8.0,1.0,phase_2,stop,100.0,200.0,4.0,,,,,,,,,blue,circle
0.0,3.0,3.0,0.0,5.0,5.0,465.2880080975592,8.0,1.0,phase_2,go,150.0,200.0,1.0,,,,,,,,,magenta,diamond
0.0,3.0,3.0,0.0,5.0,5.0,514.69667092897,8.0,1.0,phase_2,go,150.0,200.0,1.0,,,,,,,,,magenta,diamond
0.0,8.0,4.0,1.0,6.0,6.0,395.3861119225621,8.0,1.0,phase_2,stop,150.0,200.0,3.0,,,,,,,,,cyan,triangle
0.0,3.0,3.0,0.0,6.0,6.0,354.1438709944486,8.0,1.0,phase_2,go,150.0,150.0,1.0,,,,,,,,,magenta,diamond
0.0,8.0,4.0,1.0,6.0,6.0,342.2580629121512,8.0,1.0,phase_2,stop,150.0,150.0,3.0,,,,,,,,,cyan,triangle
0.0,4.0,4.0,0.0,6.0,6.0,557.8383600804955,8.0,1.0,phase_2,go,150.0,100.0,1.0,,,,,,,,,yellow,flipped triangle
0.0,4.0,4.0,0.0,5.0,5.0,326.4789460226893,8.0,1.0,phase_2,go,150.0,100.0,1.0,,,,,,,,,yellow,flipped triangle
0.0,5.0,1.0,1.0,6.0,0.0,0.0,8.0,1.0,phase_2,stop,150.0,100.0,4.0,,,,,,,,,green,hexagon
0.0,2.0,2.0,0.0,5.0,5.0,376.5253750607371,8.0,1.0,phase_2,go,150.0,150.0,1.0,,,,,,,,,white,square
0.0,1.0,1.0,0.0,6.0,6.0,332.8001289628446,8.0,1.0,phase_2,go,150.0,150.0,1.0,,,,,,,,,gray,cross
0.0,6.0,2.0,1.0,5.0,5.0,318.1012368295342,8.0,1.0,phase_2,stop,150.0,150.0,3.0,,,,,,,,,orange,I
0.0,1.0,1.0,0.0,5.0,5.0,316.8986500240862,8.0,1.0,phase_2,go,100.0,150.0,1.0,,,,,,,,,gray,cross
0.0,1.0,1.0,0.0,5.0,5.0,354.8067188821733,8.0,1.0,phase_2,go,100.0,150.0,1.0,,,,,,,,,gray,cross
0.0,1.0,1.0,0.0,6.0,6.0,306.4537709578872,8.0,1.0,phase_2,go,100.0,150.0,1.0,,,,,,,,,gray,cross
0.0,5.0,1.0,1.0,6.0,0.0,0.0,8.0,1.0,phase_2,stop,100.0,150.0,4.0,,,,,,,,,green,hexagon
0.0,8.0,4.0,1.0,6.0,0.0,0.0,8.0,1.0,phase_2,stop,100.0,200.0,4.0,,,,,,,,,cyan,triangle
0.0,7.0,3.0,1.0,6.0,0.0,0.0,8.0,1.0,phase_2,stop,100.0,250.0,4.0,,,,,,,,,blue,circle
0.0,2.0,2.0,0.0,6.0,6.0,474.9439170118421,8.0,1.0,phase_2,go,100.0,300.0,1.0,,,,,,,,,white,square
0.0,6.0,2.0,1.0,5.0,0.0,0.0,8.0,1.0,phase_2,stop,100.0,300.0,4.0,,,,,,,,,orange,I
0.0,5.0,1.0,1.0,6.0,0.0,0.0,8.0,1.0,phase_2,stop,150.0,300.0,4.0,,,,,,,,,green,hexagon
0.0,2.0,2.0,0.0,7.0,1.0,1255.4209008812904,1.0,2.0,phase_3,,,,,156.0,4.0,156.0,78.0,234.0,39.0,117.0,195.0,white,square
0.0,8.0,4.0,1.0,7.0,4.0,1465.4837669804692,1.0,1.0,phase_3,,,,,108.0,2.0,54.0,324.0,270.0,108.0,162.0,216.0,cyan,triangle
0.0,2.0,2.0,0.0,7.0,3.0,1411.4646830130368,1.0,1.0,phase_3,,,,,216.0,4.0,162.0,108.0,216.0,270.0,324.0,54.0,white,square
0.0,1.0,1.0,0.0,7.0,3.0,1705.0457389559597,1.0,1.0,phase_3,,,,,34.0,1.0,204.0,68.0,34.0,170.0,136.0,102.0,gray,cross
0.0,3.0,3.0,0.0,7.0,5.0,1794.489316176623,1.0,1.0,phase_3,,,,,234.0,6.0,78.0,117.0,156.0,39.0,234.0,195.0,magenta,diamond
0.0,1.0,1.0,0.0,7.0,4.0,1438.761516939849,1.0,1.0,phase_3,,,,,54.0,1.0,108.0,324.0,162.0,54.0,216.0,270.0,gray,cross
0.0,2.0,2.0,0.0,7.0,5.0,2981.394574046135,1.0,1.0,phase_3,,,,,162.0,3.0,108.0,216.0,54.0,270.0,162.0,324.0,white,square
0.0,4.0,4.0,0.0,7.0,2.0,1942.4430369399488,1.0,1.0,phase_3,,,,,88.0,2.0,220.0,88.0,44.0,132.0,264.0,176.0,yellow,flipped triangle
0.0,3.0,3.0,0.0,7.0,6.0,1587.6677751075476,1.0,1.0,phase_3,,,,,324.0,6.0,270.0,216.0,162.0,108.0,54.0,324.0,magenta,diamond
0.0,5.0,1.0,1.0,7.0,2.0,1492.9043701849878,1.0,1.0,phase_3,,,,,176.0,4.0,88.0,176.0,132.0,264.0,220.0,44.0,green,hexagon
0.0,4.0,4.0,0.0,7.0,4.0,1717.599823139608,1.0,1.0,phase_3,,,,,136.0,4.0,170.0,204.0,34.0,136.0,68.0,102.0,yellow,flipped triangle
0.0,4.0,4.0,0.0,7.0,6.0,1367.597649106756,1.0,1.0,phase_3,,,,,147.0,3.0,196.0,49.0,294.0,245.0,98.0,147.0,yellow,flipped triangle
0.0,8.0,4.0,1.0,7.0,4.0,2781.515644164756,1.0,1.0,phase_3,,,,,245.0,5.0,49.0,294.0,98.0,245.0,147.0,196.0,cyan,triangle
0.0,5.0,1.0,1.0,7.0,5.0,3720.442983089015,1.0,1.0,phase_3,,,,,108.0,2.0,216.0,270.0,54.0,324.0,108.0,162.0,green,hexagon
0.0,8.0,4.0,1.0,7.0,2.0,1138.2540590129793,1.0,1.0,phase_3,,,,,117.0,3.0,156.0,117.0,195.0,39.0,234.0,78.0,cyan,triangle
0.0,3.0,3.0,0.0,7.0,5.0,1993.6197919305412,1.0,1.0,phase_3,,,,,294.0,6.0,245.0,196.0,147.0,49.0,294.0,98.0,magenta,diamond
0.0,5.0,1.0,1.0,7.0,4.0,2310.5182889848948,1.0,1.0,phase_3,,,,,156.0,4.0,117.0,39.0,195.0,156.0,78.0,234.0,green,hexagon
0.0,5.0,1.0,1.0,7.0,5.0,2380.830854875967,1.0,1.0,phase_3,,,,,270.0,5.0,108.0,216.0,162.0,324.0,270.0,54.0,green,hexagon
0.0,6.0,2.0,1.0,7.0,2.0,2424.1784459445626,1.0,1.0,phase_3,,,,,216.0,4.0,324.0,216.0,162.0,108.0,54.0,270.0,orange,I
0.0,3.0,3.0,0.0,7.0,5.0,1950.6468100007623,1.0,1.0,phase_3,,,,,234.0,6.0,39.0,117.0,195.0,78.0,234.0,156.0,magenta,diamond
0.0,8.0,4.0,1.0,7.0,2.0,1431.7298140376806,2.0,1.0,phase_3,,,,,98.0,2.0,196.0,98.0,147.0,294.0,245.0,49.0,cyan,triangle
0.0,2.0,2.0,0.0,7.0,4.0,1201.2732769362628,2.0,1.0,phase_3,,,,,78.0,2.0,39.0,195.0,156.0,78.0,117.0,234.0,white,square
0.0,6.0,2.0,1.0,7.0,2.0,1313.5244778823107,2.0,1.0,phase_3,,,,,98.0,2.0,294.0,98.0,49.0,245.0,196.0,147.0,orange,I
0.0,3.0,3.0,0.0,7.0,2.0,2475.860644131899,2.0,1.0,phase_3,,,,,204.0,6.0,136.0,204.0,170.0,34.0,102.0,68.0,magenta,diamond
0.0,5.0,1.0,1.0,7.0,5.0,1682.9063040204346,2.0,1.0,phase_3,,,,,176.0,4.0,132.0,44.0,220.0,264.0,176.0,88.0,green,hexagon
0.0,4.0,4.0,0.0,7.0,5.0,1215.8218801487235,2.0,1.0,phase_3,,,,,39.0,1.0,78.0,117.0,234.0,156.0,39.0,195.0,yellow,flipped triangle
0.0,2.0,2.0,0.0,7.0,3.0,1984.2272058594967,2.0,1.0,phase_3,,,,,34.0,1.0,204.0,170.0,34.0,136.0,102.0,68.0,white,square
0.0,7.0,3.0,1.0,7.0,1.0,3191.3532558828592,2.0,1.0,phase_3,,,,,147.0,3.0,147.0,245.0,98.0,294.0,196.0,49.0,blue,circle
0.0,8.0,4.0,1.0,7.0,4.0,1848.193663172424,2.0,1.0,phase_3,,,,,108.0,2.0,324.0,54.0,270.0,108.0,162.0,216.0,cyan,triangle
0.0,2.0,2.0,0.0,7.0,6.0,2425.974659854546,2.0,1.0,phase_3,,,,,68.0,2.0,170.0,204.0,102.0,136.0,34.0,68.0,white,square
0.0,2.0,2.0,0.0,7.0,4.0,2035.0992360617965,2.0,1.0,phase_3,,,,,88.0,2.0,44.0,132.0,264.0,88.0,220.0,176.0,white,square
0.0,1.0,1.0,0.0,7.0,5.0,2789.4853241741657,2.0,1.0,phase_3,,,,,49.0,1.0,245.0,147.0,196.0,98.0,49.0,294.0,gray,cross
0.0,3.0,3.0,0.0,7.0,1.0,1199.1160199977458,2.0,1.0,phase_3,,,,,220.0,5.0,220.0,176.0,44.0,132.0,88.0,264.0,magenta,diamond
0.0,4.0,4.0,0.0,7.0,5.0,2761.7057480383664,2.0,1.0,phase_3,,,,,216.0,4.0,270.0,324.0,162.0,108.0,216.0,54.0,yellow,flipped triangle
0.0,6.0,2.0,1.0,7.0,6.0,3147.8560068644583,2.0,1.0,phase_3,,,,,39.0,1.0,234.0,78.0,156.0,195.0,117.0,39.0,orange,I
0.0,8.0,4.0,1.0,7.0,1.0,2081.72645396553,2.0,1.0,phase_3,,,,,88.0,2.0,88.0,220.0,176.0,132.0,44.0,264.0,cyan,triangle
0.0,3.0,3.0,0.0,7.0,1.0,1284.835183061659,2.0,1.0,phase_3,,,,,294.0,6.0,294.0,245.0,147.0,196.0,49.0,98.0,magenta,diamond
0.0,4.0,4.0,0.0,7.0,3.0,1926.7005729489028,2.0,1.0,phase_3,,,,,162.0,3.0,54.0,324.0,162.0,216.0,270.0,108.0,yellow,flipped triangle
0.0,6.0,2.0,1.0,7.0,6.0,3177.133988821879,2.0,1.0,phase_3,,,,,98.0,2.0,147.0,49.0,196.0,245.0,294.0,98.0,orange,I
0.0,1.0,1.0,0.0,7.0,2.0,2145.0132250320166,2.0,1.0,phase_3,,,,,34.0,1.0,136.0,34.0,102.0,68.0,204.0,170.0,gray,cross
0.0,7.0,3.0,1.0,7.0,3.0,3159.445134922862,3.0,1.0,phase_3,,,,,204.0,6.0,102.0,68.0,204.0,34.0,170.0,136.0,blue,circle
0.0,1.0,1.0,0.0,7.0,6.0,1400.709082139656,3.0,1.0,phase_3,,,,,49.0,1.0,98.0,196.0,294.0,245.0,147.0,49.0,gray,cross
0.0,1.0,1.0,0.0,7.0,6.0,792.9114180151373,3.0,1.0,phase_3,,,,,44.0,1.0,132.0,88.0,220.0,264.0,176.0,44.0,gray,cross
0.0,7.0,3.0,1.0,7.0,3.0,1315.600004978478,3.0,1.0,phase_3,,,,,270.0,5.0,54.0,108.0,270.0,162.0,324.0,216.0,blue,circle
0.0,6.0,2.0,1.0,7.0,3.0,2501.806356944144,3.0,1.0,phase_3,,,,,88.0,2.0,220.0,176.0,88.0,44.0,264.0,132.0,orange,I
0.0,3.0,3.0,0.0,7.0,1.0,1246.937211137265,3.0,1.0,phase_3,,,,,324.0,6.0,324.0,54.0,108.0,270.0,216.0,162.0,magenta,diamond
0.0,4.0,4.0,0.0,7.0,4.0,2527.1923339460045,3.0,1.0,phase_3,,,,,147.0,3.0,245.0,196.0,294.0,147.0,49.0,98.0,yellow,flipped triangle
0.0,2.0,2.0,0.0,7.0,1.0,1785.8582811895758,3.0,1.0,phase_3,,,,,98.0,2.0,98.0,196.0,245.0,147.0,49.0,294.0,white,square
0.0,6.0,2.0,1.0,7.0,5.0,2676.1361460667104,3.0,1.0,phase_3,,,,,88.0,2.0,220.0,132.0,264.0,44.0,88.0,176.0,orange,I
0.0,8.0,4.0,1.0,7.0,1.0,2970.46651202254,3.0,1.0,phase_3,,,,,102.0,3.0,102.0,68.0,34.0,136.0,170.0,204.0,cyan,triangle
0.0,5.0,1.0,1.0,7.0,5.0,3965.710841817781,3.0,1.0,phase_3,,,,,147.0,3.0,98.0,196.0,245.0,49.0,147.0,294.0,green,hexagon
0.0,1.0,1.0,0.0,7.0,6.0,990.6186368316412,3.0,1.0,phase_3,,,,,39.0,1.0,234.0,156.0,78.0,117.0,195.0,39.0,gray,cross
0.0,1.0,1.0,0.0,7.0,6.0,958.8973061181604,3.0,1.0,phase_3,,,,,54.0,1.0,324.0,216.0,162.0,108.0,270.0,54.0,gray,cross
0.0,1.0,1.0,0.0,7.0,4.0,1766.4106809534132,3.0,1.0,phase_3,,,,,44.0,1.0,220.0,132.0,264.0,44.0,88.0,176.0,gray,cross
0.0,8.0,4.0,1.0,7.0,6.0,1882.5407449621707,3.0,1.0,phase_3,,,,,78.0,2.0,156.0,39.0,234.0,117.0,195.0,78.0,cyan,triangle
0.0,8.0,4.0,1.0,7.0,1.0,1587.3793461360035,3.0,1.0,phase_3,,,,,68.0,2.0,68.0,204.0,136.0,170.0,102.0,34.0,cyan,triangle
0.0,4.0,4.0,0.0,7.0,5.0,3019.557287916541,3.0,1.0,phase_3,,,,,102.0,3.0,204.0,170.0,34.0,136.0,102.0,68.0,yellow,flipped triangle
0.0,6.0,2.0,1.0,7.0,2.0,1892.914243042469,3.0,1.0,phase_3,,,,,68.0,2.0,136.0,68.0,204.0,102.0,170.0,34.0,orange,I
0.0,4.0,4.0,0.0,7.0,5.0,1870.565618155524,3.0,1.0,phase_3,,,,,88.0,2.0,220.0,264.0,176.0,44.0,88.0,132.0,yellow,flipped triangle
0.0,5.0,1.0,1.0,7.0,6.0,3271.5127568226308,3.0,1.0,phase_3,,,,,170.0,5.0,204.0,34.0,68.0,102.0,136.0,170.0,green,hexagon
0.0,8.0,4.0,1.0,7.0,2.0,3317.940703127533,4.0,1.0,phase_3,,,,,88.0,2.0,264.0,88.0,220.0,44.0,176.0,132.0,cyan,triangle
0.0,3.0,3.0,0.0,7.0,1.0,1304.9529949203134,4.0,1.0,phase_3,,,,,264.0,6.0,264.0,132.0,176.0,88.0,220.0,44.0,magenta,diamond
0.0,6.0,2.0,1.0,7.0,3.0,2194.245159160346,4.0,1.0,phase_3,,,,,102.0,3.0,170.0,68.0,102.0,204.0,34.0,136.0,orange,I
0.0,7.0,3.0,1.0,7.0,4.0,2336.6243031341583,4.0,1.0,phase_3,,,,,204.0,6.0,170.0,68.0,102.0,204.0,136.0,34.0,blue,circle
0.0,7.0,3.0,1.0,7.0,4.0,2227.2671058308333,4.0,1.0,phase_3,,,,,234.0,6.0,39.0,195.0,156.0,234.0,117.0,78.0,blue,circle
0.0,7.0,3.0,1.0,7.0,5.0,2061.876547988504,4.0,1.0,phase_3,,,,,245.0,5.0,98.0,147.0,49.0,294.0,245.0,196.0,blue,circle
0.0,4.0,4.0,0.0,7.0,1.0,4909.832942066714,4.0,1.0,phase_3,,,,,117.0,3.0,117.0,78.0,195.0,156.0,39.0,234.0,yellow,flipped triangle
0.0,5.0,1.0,1.0,7.0,2.0,3270.886146929115,4.0,1.0,phase_3,,,,,136.0,4.0,68.0,136.0,170.0,102.0,204.0,34.0,green,hexagon
0.0,7.0,3.0,1.0,7.0,5.0,3436.1788330134004,4.0,1.0,phase_3,,,,,216.0,4.0,54.0,270.0,108.0,162.0,216.0,324.0,blue,circle
0.0,1.0,1.0,0.0,7.0,2.0,1859.3882750719783,4.0,1.0,phase_3,,,,,39.0,1.0,78.0,39.0,156.0,117.0,234.0,195.0,gray,cross
0.0,6.0,2.0,1.0,7.0,6.0,3253.5959100350738,4.0,1.0,phase_3,,,,,54.0,1.0,216.0,324.0,270.0,108.0,162.0,54.0,orange,I
0.0,5.0,1.0,1.0,7.0,2.0,3268.1675700005144,4.0,1.0,phase_3,,,,,147.0,3.0,294.0,147.0,245.0,49.0,98.0,196.0,green,hexagon
0.0,7.0,3.0,1.0,7.0,2.0,1949.4464821182191,4.0,1.0,phase_3,,,,,220.0,5.0,264.0,220.0,88.0,132.0,176.0,44.0,blue,circle
0.0,5.0,1.0,1.0,7.0,3.0,3823.61502200365,4.0,1.0,phase_3,,,,,156.0,4.0,234.0,39.0,156.0,78.0,195.0,117.0,green,hexagon
0.0,7.0,3.0,1.0,7.0,4.0,1811.3070409744976,4.0,1.0,phase_3,,,,,220.0,5.0,132.0,88.0,176.0,220.0,44.0,264.0,blue,circle
0.0,6.0,2.0,1.0,7.0,3.0,2189.51803795062,4.0,1.0,phase_3,,,,,78.0,2.0,39.0,195.0,78.0,156.0,117.0,234.0,orange,I
0.0,3.0,3.0,0.0,7.0,2.0,2154.602986993268,4.0,1.0,phase_3,,,,,204.0,6.0,170.0,204.0,102.0,136.0,34.0,68.0,magenta,diamond
0.0,2.0,2.0,0.0,7.0,6.0,3991.966719040647,4.0,1.0,phase_3,,,,,98.0,2.0,245.0,294.0,49.0,196.0,147.0,98.0,white,square
0.0,7.0,3.0,1.0,7.0,5.0,3188.48792091012,4.0,1.0,phase_3,,,,,195.0,5.0,78.0,156.0,234.0,39.0,195.0,117.0,blue,circle
0.0,2.0,2.0,0.0,7.0,2.0,2176.152631873265,4.0,1.0,phase_3,,,,,220.0,5.0,88.0,220.0,132.0,44.0,264.0,176.0,white,square
