raw_reward_magnitude,stim_reward,stepwise_reward_magnitude,paired_with_stopping,stim_location,response,reaction_time,block,num_trial_presentations,which_phase,stop_signal_trial_type,left_SSD,right_SSD,accuracy,chosen_bidding_amount,chosen_bidding_level,possible_bid_1,possible_bid_2,possible_bid_3,possible_bid_4,possible_bid_5,possible_bid_6,color_text,shape_text
0.0,4.0,0.0,0.0,3.0,3.0,516.0807459615171,1.0,1.0,phase_1,,,,,,,,,,,,,yellow,hexagon
0.0,4.0,0.0,0.0,3.0,3.0,433.9187128935009,1.0,1.0,phase_1,,,,,,,,,,,,,yellow,hexagon
35.0,5.0,0.5,1.0,3.0,3.0,453.6248720251024,1.0,1.0,phase_1,,,,,,,,,,,,,cyan,I
219.0,3.0,2.0,0.0,4.0,4.0,356.536024948582,1.0,1.0,phase_1,,,,,,,,,,,,,green,circle
42.0,1.0,0.5,0.0,1.0,1.0,326.9403290469199,1.0,1.0,phase_1,,,,,,,,,,,,,magenta,square
42.0,5.0,0.5,1.0,1.0,1.0,347.3441330716014,1.0,1.0,phase_1,,,,,,,,,,,,,cyan,I
100.0,6.0,1.0,1.0,3.0,3.0,343.6229070648551,1.0,1.0,phase_1,,,,,,,,,,,,,gray,flipped triangle
404.0,4.0,4.0,0.0,3.0,3.0,293.5125699732452,1.0,1.0,phase_1,,,,,,,,,,,,,yellow,hexagon
176.0,7.0,2.0,1.0,3.0,3.0,331.3659799750894,1.0,1.0,phase_1,,,,,,,,,,,,,white,cross
182.0,3.0,2.0,0.0,1.0,1.0,285.9652431216091,1.0,1.0,phase_1,,,,,,,,,,,,,green,circle
38.0,1.0,0.5,0.0,1.0,1.0,306.1784289311617,1.0,2.0,phase_1,,,,,,,,,,,,,magenta,square
68.0,5.0,0.5,1.0,3.0,3.0,278.3781250473112,1.0,1.0,phase_1,,,,,,,,,,,,,cyan,I
197.0,3.0,2.0,0.0,4.0,4.0,322.2957458347082,1.0,1.0,phase_1,,,,,,,,,,,,,green,circle
222.0,7.0,2.0,1.0,1.0,1.0,287.021046038717,1.0,1.0,phase_1,,,,,,,,,,,,,white,cross
0.0,4.0,0.0,0.0,4.0,4.0,260.3510720655322,1.0,1.0,phase_1,,,,,,,,,,,,,yellow,hexagon
114.0,6.0,1.0,1.0,4.0,4.0,322.3197788465768,1.0,1.0,phase_1,,,,,,,,,,,,,gray,flipped triangle
0.0,4.0,0.0,0.0,3.0,3.0,335.0195500534028,1.0,1.0,phase_1,,,,,,,,,,,,,yellow,hexagon
185.0,3.0,2.0,0.0,4.0,4.0,512.5533798709512,1.0,1.0,phase_1,,,,,,,,,,,,,green,circle
0.0,4.0,0.0,0.0,4.0,4.0,296.0746427997947,1.0,1.0,phase_1,,,,,,,,,,,,,yellow,hexagon
79.0,6.0,1.0,1.0,1.0,1.0,305.2441522013396,1.0,1.0,phase_1,,,,,,,,,,,,,gray,flipped triangle
187.0,3.0,2.0,0.0,2.0,2.0,341.9278189539909,1.0,1.0,phase_1,,,,,,,,,,,,,green,circle
26.0,5.0,0.5,1.0,4.0,4.0,362.6718448940664,1.0,1.0,phase_1,,,,,,,,,,,,,cyan,I
0.0,5.0,0.0,1.0,4.0,4.0,314.225859940052,1.0,1.0,phase_1,,,,,,,,,,,,,cyan,I
0.0,3.0,0.0,0.0,2.0,2.0,294.4005141034722,1.0,1.0,phase_1,,,,,,,,,,,,,green,circle
0.0,1.0,0.0,0.0,2.0,2.0,339.0733238775283,1.0,1.0,phase_1,,,,,,,,,,,,,magenta,square
113.0,6.0,1.0,1.0,2.0,2.0,520.5154998693615,1.0,1.0,phase_1,,,,,,,,,,,,,gray,flipped triangle
209.0,7.0,2.0,1.0,4.0,4.0,411.7850579787045,1.0,1.0,phase_1,,,,,,,,,,,,,white,cross
405.0,4.0,4.0,0.0,2.0,2.0,334.5302699599415,1.0,1.0,phase_1,,,,,,,,,,,,,yellow,hexagon
220.0,3.0,2.0,0.0,2.0,2.0,278.3034378662705,1.0,1.0,phase_1,,,,,,,,,,,,,green,circle
206.0,3.0,2.0,0.0,1.0,1.0,321.2453629821539,1.0,1.0,phase_1,,,,,,,,,,,,,green,circle
63.0,5.0,0.5,1.0,2.0,2.0,301.5724141150713,1.0,1.0,phase_1,,,,,,,,,,,,,cyan,I
30.0,5.0,0.5,1.0,3.0,3.0,382.4157728813588,1.0,2.0,phase_1,,,,,,,,,,,,,cyan,I
40.0,1.0,0.5,0.0,1.0,1.0,364.8250449914485,1.0,1.0,phase_1,,,,,,,,,,,,,magenta,square
382.0,8.0,4.0,1.0,1.0,1.0,338.9666769653559,1.0,1.0,phase_1,,,,,,,,,,,,,blue,diamond
75.0,2.0,1.0,0.0,4.0,4.0,519.159039016813,1.0,1.0,phase_1,,,,,,,,,,,,,orange,triangle
0.0,1.0,0.0,0.0,3.0,3.0,348.0926740448922,1.0,1.0,phase_1,,,,,,,,,,,,,magenta,square
420.0,8.0,4.0,1.0,2.0,2.0,318.6625649686903,1.0,1.0,phase_1,,,,,,,,,,,,,blue,diamond
0.0,6.0,0.0,1.0,1.0,1.0,322.4319359287619,1.0,1.0,phase_1,,,,,,,,,,,,,gray,flipped triangle
0.0,8.0,0.0,1.0,1.0,1.0,286.8300951085984,1.0,1.0,phase_1,,,,,,,,,,,,,blue,diamond
31.0,5.0,0.5,1.0,4.0,4.0,317.844602977857,1.0,1.0,phase_1,,,,,,,,,,,,,cyan,I
212.0,7.0,2.0,1.0,3.0,3.0,297.4912479985505,1.0,1.0,phase_1,,,,,,,,,,,,,white,cross
401.0,4.0,4.0,0.0,1.0,1.0,309.4308450818062,1.0,1.0,phase_1,,,,,,,,,,,,,yellow,hexagon
62.0,1.0,0.5,0.0,3.0,3.0,330.1734449341893,1.0,1.0,phase_1,,,,,,,,,,,,,magenta,square
118.0,6.0,1.0,1.0,3.0,3.0,415.2135231997818,1.0,1.0,phase_1,,,,,,,,,,,,,gray,flipped triangle
59.0,5.0,0.5,1.0,1.0,1.0,309.140307130292,1.0,1.0,phase_1,,,,,,,,,,,,,cyan,I
122.0,2.0,1.0,0.0,2.0,2.0,329.597741831094,1.0,1.0,phase_1,,,,,,,,,,,,,orange,triangle
53.0,5.0,0.5,1.0,2.0,2.0,317.5755399279296,1.0,1.0,phase_1,,,,,,,,,,,,,cyan,I
182.0,3.0,2.0,0.0,1.0,1.0,289.3485650420189,1.0,1.0,phase_1,,,,,,,,,,,,,green,circle
377.0,8.0,4.0,1.0,1.0,1.0,288.1740389857441,1.0,1.0,phase_1,,,,,,,,,,,,,blue,diamond
182.0,7.0,2.0,1.0,1.0,1.0,285.1361359935254,1.0,1.0,phase_1,,,,,,,,,,,,,white,cross
42.0,1.0,0.5,0.0,4.0,4.0,335.9728299546987,1.0,1.0,phase_1,,,,,,,,,,,,,magenta,square
53.0,5.0,0.5,1.0,1.0,1.0,300.6211221218109,1.0,1.0,phase_1,,,,,,,,,,,,,cyan,I
0.0,2.0,0.0,0.0,2.0,2.0,328.4714289475232,1.0,1.0,phase_1,,,,,,,,,,,,,orange,triangle
422.0,4.0,4.0,0.0,4.0,4.0,277.1865001413971,1.0,1.0,phase_1,,,,,,,,,,,,,yellow,hexagon
0.0,3.0,0.0,0.0,2.0,2.0,300.6754338275641,1.0,1.0,phase_1,,,,,,,,,,,,,green,circle
108.0,6.0,1.0,1.0,3.0,3.0,442.7459749858826,1.0,1.0,phase_1,,,,,,,,,,,,,gray,flipped triangle
78.0,2.0,1.0,0.0,3.0,3.0,318.8535450026393,1.0,1.0,phase_1,,,,,,,,,,,,,orange,triangle
62.0,5.0,0.5,1.0,3.0,3.0,305.8155970647931,1.0,1.0,phase_1,,,,,,,,,,,,,cyan,I
185.0,7.0,2.0,1.0,2.0,2.0,309.2485461384058,1.0,1.0,phase_1,,,,,,,,,,,,,white,cross
100.0,2.0,1.0,0.0,3.0,3.0,269.5663529448211,1.0,1.0,phase_1,,,,,,,,,,,,,orange,triangle
207.0,3.0,2.0,0.0,1.0,1.0,290.0616230908781,1.0,1.0,phase_1,,,,,,,,,,,,,green,circle
79.0,2.0,1.0,0.0,3.0,3.0,301.6662420704961,1.0,1.0,phase_1,,,,,,,,,,,,,orange,triangle
111.0,6.0,1.0,1.0,4.0,4.0,359.1878870502114,1.0,1.0,phase_1,,,,,,,,,,,,,gray,flipped triangle
386.0,4.0,4.0,0.0,1.0,1.0,325.5958391819149,1.0,1.0,phase_1,,,,,,,,,,,,,yellow,hexagon
410.0,4.0,4.0,0.0,3.0,3.0,323.9260870032012,1.0,1.0,phase_1,,,,,,,,,,,,,yellow,hexagon
0.0,8.0,0.0,1.0,1.0,1.0,286.2997581250965,1.0,1.0,phase_1,,,,,,,,,,,,,blue,diamond
35.0,1.0,0.5,0.0,3.0,3.0,293.4071079362184,1.0,1.0,phase_1,,,,,,,,,,,,,magenta,square
224.0,3.0,2.0,0.0,3.0,3.0,391.1942350678146,1.0,1.0,phase_1,,,,,,,,,,,,,green,circle
114.0,2.0,1.0,0.0,1.0,1.0,325.473183998838,1.0,1.0,phase_1,,,,,,,,,,,,,orange,triangle
0.0,6.0,0.0,1.0,1.0,1.0,336.2982040271163,1.0,1.0,phase_1,,,,,,,,,,,,,gray,flipped triangle
383.0,8.0,4.0,1.0,1.0,1.0,285.2548130322248,1.0,1.0,phase_1,,,,,,,,,,,,,blue,diamond
0.0,8.0,0.0,1.0,1.0,1.0,276.6359890811145,1.0,1.0,phase_1,,,,,,,,,,,,,blue,diamond
51.0,5.0,0.5,1.0,2.0,2.0,406.2026739120483,1.0,1.0,phase_1,,,,,,,,,,,,,cyan,I
100.0,6.0,1.0,1.0,1.0,1.0,278.2360459677875,1.0,1.0,phase_1,,,,,,,,,,,,,gray,flipped triangle
65.0,1.0,0.5,0.0,1.0,1.0,331.3093550968915,1.0,1.0,phase_1,,,,,,,,,,,,,magenta,square
189.0,3.0,2.0,0.0,1.0,1.0,279.102839063853,1.0,1.0,phase_1,,,,,,,,,,,,,green,circle
96.0,2.0,1.0,0.0,1.0,1.0,338.7204671744257,1.0,1.0,phase_1,,,,,,,,,,,,,orange,triangle
96.0,6.0,1.0,1.0,1.0,1.0,341.7636270169168,1.0,1.0,phase_1,,,,,,,,,,,,,gray,flipped triangle
385.0,4.0,4.0,0.0,1.0,1.0,253.37265012785792,1.0,1.0,phase_1,,,,,,,,,,,,,yellow,hexagon
0.0,1.0,0.0,0.0,1.0,1.0,281.6971777938306,1.0,1.0,phase_1,,,,,,,,,,,,,magenta,square
197.0,7.0,2.0,1.0,4.0,4.0,451.5849070157856,1.0,1.0,phase_1,,,,,,,,,,,,,white,cross
0.0,3.0,0.0,0.0,4.0,4.0,459.3886961229145,1.0,1.0,phase_1,,,,,,,,,,,,,green,circle
406.0,8.0,4.0,1.0,4.0,4.0,337.1041568461805,1.0,1.0,phase_1,,,,,,,,,,,,,blue,diamond
26.0,1.0,0.5,0.0,1.0,1.0,324.7376699000597,1.0,1.0,phase_1,,,,,,,,,,,,,magenta,square
212.0,3.0,2.0,0.0,1.0,1.0,304.2257858905941,1.0,1.0,phase_1,,,,,,,,,,,,,green,circle
0.0,7.0,0.0,1.0,3.0,3.0,343.0885719135403,1.0,1.0,phase_1,,,,,,,,,,,,,white,cross
117.0,6.0,1.0,1.0,4.0,4.0,352.4783649481833,1.0,1.0,phase_1,,,,,,,,,,,,,gray,flipped triangle
0.0,5.0,0.0,1.0,3.0,3.0,325.3591540269553,1.0,1.0,phase_1,,,,,,,,,,,,,cyan,I
88.0,6.0,1.0,1.0,3.0,3.0,345.7519980147481,1.0,1.0,phase_1,,,,,,,,,,,,,gray,flipped triangle
64.0,1.0,0.5,0.0,4.0,4.0,318.4982351958751,1.0,1.0,phase_1,,,,,,,,,,,,,magenta,square
92.0,2.0,1.0,0.0,4.0,4.0,284.1750539373606,1.0,1.0,phase_1,,,,,,,,,,,,,orange,triangle
222.0,3.0,2.0,0.0,1.0,1.0,296.9462790060788,1.0,1.0,phase_1,,,,,,,,,,,,,green,circle
388.0,8.0,4.0,1.0,1.0,1.0,358.2110130228102,1.0,1.0,phase_1,,,,,,,,,,,,,blue,diamond
66.0,1.0,0.5,0.0,2.0,2.0,379.6730011235922,1.0,1.0,phase_1,,,,,,,,,,,,,magenta,square
176.0,7.0,2.0,1.0,3.0,3.0,302.1364191081375,1.0,1.0,phase_1,,,,,,,,,,,,,white,cross
210.0,3.0,2.0,0.0,2.0,2.0,307.8237869776785,1.0,1.0,phase_1,,,,,,,,,,,,,green,circle
0.0,2.0,0.0,0.0,4.0,4.0,321.8170839827508,1.0,1.0,phase_1,,,,,,,,,,,,,orange,triangle
86.0,2.0,1.0,0.0,1.0,1.0,339.199534850195,1.0,1.0,phase_1,,,,,,,,,,,,,orange,triangle
182.0,3.0,2.0,0.0,4.0,4.0,328.0337208416313,1.0,1.0,phase_1,,,,,,,,,,,,,green,circle
0.0,2.0,0.0,0.0,2.0,2.0,492.6251880824566,1.0,1.0,phase_1,,,,,,,,,,,,,orange,triangle
380.0,4.0,4.0,0.0,4.0,4.0,407.9592779744416,2.0,1.0,phase_1,,,,,,,,,,,,,yellow,hexagon
404.0,8.0,4.0,1.0,2.0,2.0,380.2227061241865,2.0,1.0,phase_1,,,,,,,,,,,,,blue,diamond
0.0,8.0,0.0,1.0,3.0,3.0,276.813801843673,2.0,1.0,phase_1,,,,,,,,,,,,,blue,diamond
189.0,7.0,2.0,1.0,2.0,2.0,216.0901220049709,2.0,1.0,phase_1,,,,,,,,,,,,,white,cross
0.0,2.0,0.0,0.0,1.0,1.0,291.7567430995404,2.0,1.0,phase_1,,,,,,,,,,,,,orange,triangle
54.0,1.0,0.5,0.0,1.0,1.0,287.3903689906001,2.0,1.0,phase_1,,,,,,,,,,,,,magenta,square
406.0,4.0,4.0,0.0,3.0,3.0,285.3302659932524,2.0,1.0,phase_1,,,,,,,,,,,,,yellow,hexagon
380.0,8.0,4.0,1.0,4.0,4.0,505.59325399808586,2.0,1.0,phase_1,,,,,,,,,,,,,blue,diamond
91.0,6.0,1.0,1.0,2.0,2.0,292.9966631345451,2.0,1.0,phase_1,,,,,,,,,,,,,gray,flipped triangle
0.0,4.0,0.0,0.0,3.0,3.0,260.0789130665362,2.0,1.0,phase_1,,,,,,,,,,,,,yellow,hexagon
193.0,7.0,2.0,1.0,3.0,3.0,297.1354350447655,2.0,1.0,phase_1,,,,,,,,,,,,,white,cross
0.0,7.0,0.0,1.0,4.0,4.0,391.7185580357909,2.0,1.0,phase_1,,,,,,,,,,,,,white,cross
405.0,8.0,4.0,1.0,1.0,1.0,435.4672448243946,2.0,1.0,phase_1,,,,,,,,,,,,,blue,diamond
197.0,3.0,2.0,0.0,2.0,2.0,279.9059280660003,2.0,1.0,phase_1,,,,,,,,,,,,,green,circle
75.0,6.0,1.0,1.0,2.0,2.0,282.9268479254097,2.0,1.0,phase_1,,,,,,,,,,,,,gray,flipped triangle
54.0,5.0,0.5,1.0,1.0,1.0,353.5096698906272,2.0,1.0,phase_1,,,,,,,,,,,,,cyan,I
380.0,8.0,4.0,1.0,2.0,2.0,270.0088380370289,2.0,1.0,phase_1,,,,,,,,,,,,,blue,diamond
38.0,5.0,0.5,1.0,1.0,1.0,304.6776200644672,2.0,1.0,phase_1,,,,,,,,,,,,,cyan,I
44.0,1.0,0.5,0.0,4.0,4.0,341.2472808267921,2.0,1.0,phase_1,,,,,,,,,,,,,magenta,square
211.0,3.0,2.0,0.0,4.0,4.0,339.3059838563204,2.0,1.0,phase_1,,,,,,,,,,,,,green,circle
68.0,1.0,0.5,0.0,3.0,3.0,296.8679149635136,2.0,1.0,phase_1,,,,,,,,,,,,,magenta,square
48.0,5.0,0.5,1.0,2.0,2.0,291.4741481654346,2.0,1.0,phase_1,,,,,,,,,,,,,cyan,I
0.0,1.0,0.0,0.0,2.0,2.0,319.7686830535531,2.0,1.0,phase_1,,,,,,,,,,,,,magenta,square
224.0,7.0,2.0,1.0,1.0,1.0,315.8048831392079,2.0,1.0,phase_1,,,,,,,,,,,,,white,cross
53.0,1.0,0.5,0.0,2.0,2.0,288.1109879817813,2.0,1.0,phase_1,,,,,,,,,,,,,magenta,square
66.0,5.0,0.5,1.0,1.0,1.0,309.3537269160151,2.0,1.0,phase_1,,,,,,,,,,,,,cyan,I
188.0,3.0,2.0,0.0,2.0,2.0,290.5330648645758,2.0,1.0,phase_1,,,,,,,,,,,,,green,circle
89.0,6.0,1.0,1.0,4.0,4.0,322.6705361157655,2.0,1.0,phase_1,,,,,,,,,,,,,gray,flipped triangle
94.0,6.0,1.0,1.0,4.0,4.0,373.595274053514,2.0,1.0,phase_1,,,,,,,,,,,,,gray,flipped triangle
75.0,1.0,0.5,0.0,4.0,4.0,307.9827209003269,2.0,1.0,phase_1,,,,,,,,,,,,,magenta,square
390.0,4.0,4.0,0.0,3.0,3.0,544.0813170280308,2.0,1.0,phase_1,,,,,,,,,,,,,yellow,hexagon
0.0,4.0,0.0,0.0,1.0,1.0,409.5073582138866,2.0,1.0,phase_1,,,,,,,,,,,,,yellow,hexagon
63.0,1.0,0.5,0.0,1.0,1.0,360.0888329092413,2.0,1.0,phase_1,,,,,,,,,,,,,magenta,square
0.0,2.0,0.0,0.0,2.0,2.0,372.5956610869616,2.0,1.0,phase_1,,,,,,,,,,,,,orange,triangle
410.0,4.0,4.0,0.0,2.0,2.0,338.4947299491614,2.0,1.0,phase_1,,,,,,,,,,,,,yellow,hexagon
218.0,3.0,2.0,0.0,1.0,1.0,316.3312010001391,2.0,1.0,phase_1,,,,,,,,,,,,,green,circle
421.0,8.0,4.0,1.0,4.0,4.0,307.7200320549309,2.0,1.0,phase_1,,,,,,,,,,,,,blue,diamond
88.0,2.0,1.0,0.0,3.0,3.0,280.7351558003574,2.0,1.0,phase_1,,,,,,,,,,,,,orange,triangle
30.0,1.0,0.5,0.0,2.0,2.0,341.9230540748685,2.0,1.0,phase_1,,,,,,,,,,,,,magenta,square
106.0,2.0,1.0,0.0,2.0,2.0,319.3673340138048,2.0,1.0,phase_1,,,,,,,,,,,,,orange,triangle
59.0,1.0,0.5,0.0,3.0,3.0,332.6966180466115,2.0,1.0,phase_1,,,,,,,,,,,,,magenta,square
179.0,7.0,2.0,1.0,2.0,2.0,252.02570296823978,2.0,1.0,phase_1,,,,,,,,,,,,,white,cross
0.0,1.0,0.0,0.0,3.0,3.0,357.0418851450085,2.0,1.0,phase_1,,,,,,,,,,,,,magenta,square
0.0,8.0,0.0,1.0,3.0,3.0,409.3947419896722,2.0,1.0,phase_1,,,,,,,,,,,,,blue,diamond
54.0,5.0,0.5,1.0,4.0,4.0,321.3658558670431,2.0,1.0,phase_1,,,,,,,,,,,,,cyan,I
216.0,3.0,2.0,0.0,3.0,3.0,332.0965410675853,2.0,1.0,phase_1,,,,,,,,,,,,,green,circle
70.0,5.0,0.5,1.0,4.0,4.0,360.317412065342,2.0,1.0,phase_1,,,,,,,,,,,,,cyan,I
210.0,7.0,2.0,1.0,2.0,2.0,349.4243118911981,2.0,1.0,phase_1,,,,,,,,,,,,,white,cross
104.0,2.0,1.0,0.0,4.0,4.0,337.1112761087715,2.0,1.0,phase_1,,,,,,,,,,,,,orange,triangle
120.0,6.0,1.0,1.0,2.0,2.0,303.722663084045,2.0,1.0,phase_1,,,,,,,,,,,,,gray,flipped triangle
423.0,4.0,4.0,0.0,2.0,2.0,338.2301430683583,2.0,1.0,phase_1,,,,,,,,,,,,,yellow,hexagon
387.0,4.0,4.0,0.0,3.0,3.0,361.2910250667482,2.0,1.0,phase_1,,,,,,,,,,,,,yellow,hexagon
399.0,8.0,4.0,1.0,2.0,2.0,299.6134371496737,2.0,1.0,phase_1,,,,,,,,,,,,,blue,diamond
27.0,1.0,0.5,0.0,2.0,2.0,368.595551000908,2.0,1.0,phase_1,,,,,,,,,,,,,magenta,square
117.0,2.0,1.0,0.0,1.0,1.0,438.8263090513646,2.0,1.0,phase_1,,,,,,,,,,,,,orange,triangle
57.0,1.0,0.5,0.0,4.0,4.0,412.8962771501392,2.0,1.0,phase_1,,,,,,,,,,,,,magenta,square
399.0,4.0,4.0,0.0,3.0,3.0,385.4156441520899,2.0,1.0,phase_1,,,,,,,,,,,,,yellow,hexagon
183.0,3.0,2.0,0.0,1.0,1.0,373.3536908403039,2.0,1.0,phase_1,,,,,,,,,,,,,green,circle
0.0,3.0,0.0,0.0,3.0,3.0,296.7236218973994,2.0,1.0,phase_1,,,,,,,,,,,,,green,circle
179.0,7.0,2.0,1.0,2.0,2.0,294.2440831102431,2.0,1.0,phase_1,,,,,,,,,,,,,white,cross
224.0,3.0,2.0,0.0,4.0,4.0,330.1319570746273,2.0,1.0,phase_1,,,,,,,,,,,,,green,circle
205.0,3.0,2.0,0.0,3.0,3.0,346.1137830745429,2.0,1.0,phase_1,,,,,,,,,,,,,green,circle
396.0,8.0,4.0,1.0,3.0,3.0,302.8273701202124,2.0,1.0,phase_1,,,,,,,,,,,,,blue,diamond
0.0,7.0,0.0,1.0,3.0,3.0,383.244692813605,2.0,1.0,phase_1,,,,,,,,,,,,,white,cross
44.0,5.0,0.5,1.0,3.0,3.0,340.1512862183153,2.0,1.0,phase_1,,,,,,,,,,,,,cyan,I
111.0,2.0,1.0,0.0,3.0,3.0,292.0288050081581,2.0,1.0,phase_1,,,,,,,,,,,,,orange,triangle
209.0,3.0,2.0,0.0,4.0,4.0,301.3687930069864,2.0,1.0,phase_1,,,,,,,,,,,,,green,circle
100.0,2.0,1.0,0.0,2.0,2.0,340.1758959516883,2.0,1.0,phase_1,,,,,,,,,,,,,orange,triangle
0.0,5.0,0.0,1.0,2.0,2.0,408.2531600724906,2.0,1.0,phase_1,,,,,,,,,,,,,cyan,I
388.0,4.0,4.0,0.0,2.0,2.0,331.5951961558312,2.0,1.0,phase_1,,,,,,,,,,,,,yellow,hexagon
179.0,3.0,2.0,0.0,4.0,4.0,303.9503749459982,2.0,1.0,phase_1,,,,,,,,,,,,,green,circle
410.0,4.0,4.0,0.0,2.0,2.0,304.6893170103431,2.0,1.0,phase_1,,,,,,,,,,,,,yellow,hexagon
204.0,3.0,2.0,0.0,2.0,2.0,281.1094240751117,2.0,1.0,phase_1,,,,,,,,,,,,,green,circle
387.0,8.0,4.0,1.0,3.0,3.0,422.6155332289636,2.0,1.0,phase_1,,,,,,,,,,,,,blue,diamond
0.0,1.0,0.0,0.0,1.0,1.0,398.8495219964534,2.0,1.0,phase_1,,,,,,,,,,,,,magenta,square
119.0,6.0,1.0,1.0,2.0,2.0,308.344388147816,2.0,2.0,phase_1,,,,,,,,,,,,,gray,flipped triangle
219.0,7.0,2.0,1.0,1.0,1.0,386.7906269151717,2.0,1.0,phase_1,,,,,,,,,,,,,white,cross
120.0,2.0,1.0,0.0,4.0,4.0,337.8263500053435,2.0,1.0,phase_1,,,,,,,,,,,,,orange,triangle
38.0,1.0,0.5,0.0,3.0,3.0,322.7059058845043,2.0,1.0,phase_1,,,,,,,,,,,,,magenta,square
0.0,4.0,0.0,0.0,3.0,3.0,351.1847509071231,2.0,1.0,phase_1,,,,,,,,,,,,,yellow,hexagon
110.0,6.0,1.0,1.0,2.0,2.0,387.6106669194996,2.0,1.0,phase_1,,,,,,,,,,,,,gray,flipped triangle
0.0,6.0,0.0,1.0,1.0,1.0,282.4077981058508,2.0,1.0,phase_1,,,,,,,,,,,,,gray,flipped triangle
184.0,7.0,2.0,1.0,3.0,3.0,286.4452160429209,2.0,1.0,phase_1,,,,,,,,,,,,,white,cross
0.0,7.0,0.0,1.0,2.0,2.0,330.41952108033,2.0,1.0,phase_1,,,,,,,,,,,,,white,cross
410.0,8.0,4.0,1.0,3.0,3.0,334.4390699639916,2.0,1.0,phase_1,,,,,,,,,,,,,blue,diamond
119.0,2.0,1.0,0.0,2.0,2.0,270.0772229582071,2.0,1.0,phase_1,,,,,,,,,,,,,orange,triangle
375.0,4.0,4.0,0.0,1.0,1.0,322.0460719894618,2.0,1.0,phase_1,,,,,,,,,,,,,yellow,hexagon
390.0,8.0,4.0,1.0,3.0,3.0,351.7486769706011,2.0,1.0,phase_1,,,,,,,,,,,,,blue,diamond
110.0,2.0,1.0,0.0,2.0,2.0,304.7604248858988,2.0,1.0,phase_1,,,,,,,,,,,,,orange,triangle
97.0,2.0,1.0,0.0,1.0,1.0,310.5161928106099,2.0,1.0,phase_1,,,,,,,,,,,,,orange,triangle
40.0,1.0,0.5,0.0,2.0,2.0,307.4716099072248,2.0,1.0,phase_1,,,,,,,,,,,,,magenta,square
0.0,7.0,0.0,1.0,2.0,2.0,281.1478348448872,2.0,1.0,phase_1,,,,,,,,,,,,,white,cross
40.0,5.0,0.5,1.0,4.0,4.0,350.5380919668823,2.0,1.0,phase_1,,,,,,,,,,,,,cyan,I
199.0,3.0,2.0,0.0,3.0,3.0,320.6701821181923,2.0,1.0,phase_1,,,,,,,,,,,,,green,circle
418.0,4.0,4.0,0.0,1.0,1.0,408.8307300116867,2.0,1.0,phase_1,,,,,,,,,,,,,yellow,hexagon
391.0,8.0,4.0,1.0,3.0,3.0,386.4267980679869,2.0,1.0,phase_1,,,,,,,,,,,,,blue,diamond
0.0,2.0,0.0,0.0,1.0,1.0,327.3130129091441,2.0,1.0,phase_1,,,,,,,,,,,,,orange,triangle
0.0,8.0,0.0,1.0,1.0,1.0,317.0783650130033,2.0,1.0,phase_1,,,,,,,,,,,,,blue,diamond
185.0,7.0,2.0,1.0,2.0,2.0,322.2019660752266,2.0,1.0,phase_1,,,,,,,,,,,,,white,cross
0.0,5.0,0.0,1.0,1.0,1.0,302.2815850563347,2.0,1.0,phase_1,,,,,,,,,,,,,cyan,I
375.0,8.0,4.0,1.0,4.0,4.0,462.0014869142324,3.0,1.0,phase_1,,,,,,,,,,,,,blue,diamond
48.0,1.0,0.5,0.0,2.0,2.0,295.467761112377,3.0,1.0,phase_1,,,,,,,,,,,,,magenta,square
217.0,3.0,2.0,0.0,3.0,3.0,299.873833078891,3.0,1.0,phase_1,,,,,,,,,,,,,green,circle
408.0,8.0,4.0,1.0,2.0,2.0,208.0914909020066,3.0,1.0,phase_1,,,,,,,,,,,,,blue,diamond
0.0,5.0,0.0,1.0,1.0,1.0,264.6251209080219,3.0,1.0,phase_1,,,,,,,,,,,,,cyan,I
386.0,8.0,4.0,1.0,3.0,3.0,307.6805719174444,3.0,1.0,phase_1,,,,,,,,,,,,,blue,diamond
89.0,6.0,1.0,1.0,3.0,3.0,310.9432100318372,3.0,1.0,phase_1,,,,,,,,,,,,,gray,flipped triangle
207.0,7.0,2.0,1.0,2.0,2.0,298.5894018784165,3.0,1.0,phase_1,,,,,,,,,,,,,white,cross
407.0,4.0,4.0,0.0,1.0,1.0,216.7042430955916,3.0,1.0,phase_1,,,,,,,,,,,,,yellow,hexagon
398.0,8.0,4.0,1.0,4.0,4.0,420.5817789770663,3.0,1.0,phase_1,,,,,,,,,,,,,blue,diamond
0.0,6.0,0.0,1.0,4.0,4.0,521.0015219636261,3.0,1.0,phase_1,,,,,,,,,,,,,gray,flipped triangle
72.0,1.0,0.5,0.0,2.0,2.0,464.0847861301154,3.0,1.0,phase_1,,,,,,,,,,,,,magenta,square
419.0,4.0,4.0,0.0,2.0,2.0,316.6771400719881,3.0,1.0,phase_1,,,,,,,,,,,,,yellow,hexagon
197.0,3.0,2.0,0.0,3.0,3.0,378.9799979422241,3.0,1.0,phase_1,,,,,,,,,,,,,green,circle
51.0,1.0,0.5,0.0,4.0,4.0,374.0545539185405,3.0,1.0,phase_1,,,,,,,,,,,,,magenta,square
0.0,1.0,0.0,0.0,1.0,1.0,826.4066390693188,3.0,1.0,phase_1,,,,,,,,,,,,,magenta,square
183.0,7.0,2.0,1.0,4.0,4.0,381.9177411496639,3.0,1.0,phase_1,,,,,,,,,,,,,white,cross
88.0,2.0,1.0,0.0,3.0,3.0,301.7389778979122,3.0,1.0,phase_1,,,,,,,,,,,,,orange,triangle
0.0,7.0,0.0,1.0,2.0,2.0,304.541319841519,3.0,1.0,phase_1,,,,,,,,,,,,,white,cross
75.0,5.0,0.5,1.0,2.0,2.0,315.259228926152,3.0,1.0,phase_1,,,,,,,,,,,,,cyan,I
0.0,6.0,0.0,1.0,4.0,4.0,312.5836800318211,3.0,1.0,phase_1,,,,,,,,,,,,,gray,flipped triangle
102.0,6.0,1.0,1.0,3.0,3.0,300.4887790884822,3.0,1.0,phase_1,,,,,,,,,,,,,gray,flipped triangle
377.0,8.0,4.0,1.0,2.0,2.0,323.8222820218652,3.0,1.0,phase_1,,,,,,,,,,,,,blue,diamond
202.0,7.0,2.0,1.0,3.0,3.0,278.5920738242566,3.0,1.0,phase_1,,,,,,,,,,,,,white,cross
199.0,7.0,2.0,1.0,4.0,4.0,290.8827278297394,3.0,1.0,phase_1,,,,,,,,,,,,,white,cross
377.0,4.0,4.0,0.0,2.0,2.0,295.4415769781917,3.0,1.0,phase_1,,,,,,,,,,,,,yellow,hexagon
114.0,6.0,1.0,1.0,3.0,3.0,244.9002061039209,3.0,1.0,phase_1,,,,,,,,,,,,,gray,flipped triangle
46.0,1.0,0.5,0.0,3.0,3.0,292.8075999952853,3.0,1.0,phase_1,,,,,,,,,,,,,magenta,square
392.0,4.0,4.0,0.0,4.0,4.0,369.4729439448565,3.0,1.0,phase_1,,,,,,,,,,,,,yellow,hexagon
88.0,6.0,1.0,1.0,1.0,1.0,300.326167140156,3.0,1.0,phase_1,,,,,,,,,,,,,gray,flipped triangle
410.0,8.0,4.0,1.0,1.0,1.0,287.171890027821,3.0,1.0,phase_1,,,,,,,,,,,,,blue,diamond
419.0,8.0,4.0,1.0,3.0,3.0,252.0713119301945,3.0,1.0,phase_1,,,,,,,,,,,,,blue,diamond
66.0,5.0,0.5,1.0,4.0,4.0,282.3128490708768,3.0,1.0,phase_1,,,,,,,,,,,,,cyan,I
176.0,3.0,2.0,0.0,4.0,4.0,280.0035469699651,3.0,1.0,phase_1,,,,,,,,,,,,,green,circle
220.0,7.0,2.0,1.0,4.0,4.0,236.614285968244,3.0,1.0,phase_1,,,,,,,,,,,,,white,cross
216.0,7.0,2.0,1.0,4.0,4.0,305.3940199315548,3.0,1.0,phase_1,,,,,,,,,,,,,white,cross
99.0,6.0,1.0,1.0,3.0,3.0,282.912926049903,3.0,1.0,phase_1,,,,,,,,,,,,,gray,flipped triangle
122.0,6.0,1.0,1.0,4.0,4.0,297.4096010439098,3.0,1.0,phase_1,,,,,,,,,,,,,gray,flipped triangle
0.0,5.0,0.0,1.0,2.0,2.0,517.8705928847194,3.0,1.0,phase_1,,,,,,,,,,,,,cyan,I
72.0,5.0,0.5,1.0,2.0,2.0,306.4679780509323,3.0,1.0,phase_1,,,,,,,,,,,,,cyan,I
218.0,7.0,2.0,1.0,3.0,3.0,278.0636050738394,3.0,1.0,phase_1,,,,,,,,,,,,,white,cross
32.0,5.0,0.5,1.0,3.0,3.0,282.9806481022388,3.0,1.0,phase_1,,,,,,,,,,,,,cyan,I
0.0,6.0,0.0,1.0,2.0,2.0,272.916484856978,3.0,1.0,phase_1,,,,,,,,,,,,,gray,flipped triangle
64.0,5.0,0.5,1.0,3.0,3.0,259.5806098543107,3.0,1.0,phase_1,,,,,,,,,,,,,cyan,I
209.0,7.0,2.0,1.0,4.0,4.0,323.072729865089,3.0,1.0,phase_1,,,,,,,,,,,,,white,cross
405.0,4.0,4.0,0.0,4.0,4.0,359.0894879307598,3.0,1.0,phase_1,,,,,,,,,,,,,yellow,hexagon
0.0,1.0,0.0,0.0,3.0,3.0,266.359280096367,3.0,1.0,phase_1,,,,,,,,,,,,,magenta,square
0.0,8.0,0.0,1.0,4.0,4.0,383.3492391277104,3.0,1.0,phase_1,,,,,,,,,,,,,blue,diamond
53.0,1.0,0.5,0.0,3.0,3.0,268.2670620270073,3.0,1.0,phase_1,,,,,,,,,,,,,magenta,square
97.0,6.0,1.0,1.0,1.0,1.0,288.8507829047739,3.0,1.0,phase_1,,,,,,,,,,,,,gray,flipped triangle
65.0,5.0,0.5,1.0,4.0,4.0,284.7973841708153,3.0,1.0,phase_1,,,,,,,,,,,,,cyan,I
100.0,2.0,1.0,0.0,2.0,2.0,484.826419968158,3.0,1.0,phase_1,,,,,,,,,,,,,orange,triangle
89.0,2.0,1.0,0.0,3.0,3.0,288.7941719964146,3.0,1.0,phase_1,,,,,,,,,,,,,orange,triangle
99.0,2.0,1.0,0.0,2.0,2.0,228.5503868479281,3.0,1.0,phase_1,,,,,,,,,,,,,orange,triangle
405.0,8.0,4.0,1.0,1.0,1.0,311.3798999693244,3.0,1.0,phase_1,,,,,,,,,,,,,blue,diamond
388.0,4.0,4.0,0.0,4.0,4.0,277.5947977788746,3.0,1.0,phase_1,,,,,,,,,,,,,yellow,hexagon
204.0,7.0,2.0,1.0,2.0,2.0,264.8894127923995,3.0,2.0,phase_1,,,,,,,,,,,,,white,cross
377.0,4.0,4.0,0.0,2.0,2.0,266.3943041115999,3.0,1.0,phase_1,,,,,,,,,,,,,yellow,hexagon
42.0,5.0,0.5,1.0,1.0,1.0,352.6548841036856,3.0,1.0,phase_1,,,,,,,,,,,,,cyan,I
401.0,8.0,4.0,1.0,2.0,2.0,326.7536489292979,3.0,1.0,phase_1,,,,,,,,,,,,,blue,diamond
193.0,3.0,2.0,0.0,2.0,2.0,304.645859869197,3.0,1.0,phase_1,,,,,,,,,,,,,green,circle
217.0,7.0,2.0,1.0,1.0,1.0,300.6927210371941,3.0,1.0,phase_1,,,,,,,,,,,,,white,cross
211.0,7.0,2.0,1.0,1.0,1.0,341.3742750417441,3.0,1.0,phase_1,,,,,,,,,,,,,white,cross
55.0,1.0,0.5,0.0,4.0,4.0,312.4373811297118,3.0,1.0,phase_1,,,,,,,,,,,,,magenta,square
92.0,2.0,1.0,0.0,4.0,4.0,325.2235660329461,3.0,1.0,phase_1,,,,,,,,,,,,,orange,triangle
0.0,7.0,0.0,1.0,3.0,3.0,289.6874020807445,3.0,1.0,phase_1,,,,,,,,,,,,,white,cross
0.0,6.0,0.0,1.0,3.0,3.0,255.27216913178557,3.0,1.0,phase_1,,,,,,,,,,,,,gray,flipped triangle
0.0,8.0,0.0,1.0,2.0,2.0,250.9654690511524,3.0,1.0,phase_1,,,,,,,,,,,,,blue,diamond
0.0,5.0,0.0,1.0,4.0,4.0,279.5290290378034,3.0,1.0,phase_1,,,,,,,,,,,,,cyan,I
423.0,8.0,4.0,1.0,4.0,4.0,298.4828180633485,3.0,1.0,phase_1,,,,,,,,,,,,,blue,diamond
113.0,6.0,1.0,1.0,1.0,1.0,303.8119978737086,3.0,1.0,phase_1,,,,,,,,,,,,,gray,flipped triangle
53.0,1.0,0.5,0.0,2.0,2.0,307.5175790581852,3.0,1.0,phase_1,,,,,,,,,,,,,magenta,square
108.0,2.0,1.0,0.0,2.0,2.0,283.666362054646,3.0,1.0,phase_1,,,,,,,,,,,,,orange,triangle
224.0,7.0,2.0,1.0,1.0,1.0,357.3093870654702,3.0,1.0,phase_1,,,,,,,,,,,,,white,cross
405.0,4.0,4.0,0.0,4.0,4.0,348.2913970947265,3.0,1.0,phase_1,,,,,,,,,,,,,yellow,hexagon
408.0,4.0,4.0,0.0,3.0,3.0,342.3554538749158,3.0,1.0,phase_1,,,,,,,,,,,,,yellow,hexagon
124.0,6.0,1.0,1.0,2.0,2.0,325.0488571356982,3.0,1.0,phase_1,,,,,,,,,,,,,gray,flipped triangle
184.0,3.0,2.0,0.0,3.0,3.0,305.0544960424304,3.0,1.0,phase_1,,,,,,,,,,,,,green,circle
0.0,7.0,0.0,1.0,4.0,4.0,284.5610589720309,3.0,1.0,phase_1,,,,,,,,,,,,,white,cross
216.0,3.0,2.0,0.0,2.0,2.0,299.324489897117,3.0,1.0,phase_1,,,,,,,,,,,,,green,circle
114.0,2.0,1.0,0.0,1.0,1.0,351.4032890088856,3.0,1.0,phase_1,,,,,,,,,,,,,orange,triangle
113.0,2.0,1.0,0.0,3.0,3.0,458.7724411394447,3.0,1.0,phase_1,,,,,,,,,,,,,orange,triangle
0.0,3.0,0.0,0.0,3.0,3.0,344.9719529598951,3.0,1.0,phase_1,,,,,,,,,,,,,green,circle
398.0,4.0,4.0,0.0,3.0,3.0,292.5876048393547,3.0,1.0,phase_1,,,,,,,,,,,,,yellow,hexagon
388.0,8.0,4.0,1.0,1.0,1.0,235.5050449259579,3.0,1.0,phase_1,,,,,,,,,,,,,blue,diamond
100.0,6.0,1.0,1.0,4.0,4.0,375.5316359456628,3.0,1.0,phase_1,,,,,,,,,,,,,gray,flipped triangle
0.0,2.0,0.0,0.0,3.0,3.0,325.0976698473096,3.0,1.0,phase_1,,,,,,,,,,,,,orange,triangle
380.0,4.0,4.0,0.0,2.0,2.0,338.165600085631,3.0,1.0,phase_1,,,,,,,,,,,,,yellow,hexagon
26.0,5.0,0.5,1.0,2.0,2.0,308.0281980801373,3.0,1.0,phase_1,,,,,,,,,,,,,cyan,I
0.0,3.0,0.0,0.0,2.0,2.0,307.4552491307258,3.0,1.0,phase_1,,,,,,,,,,,,,green,circle
95.0,2.0,1.0,0.0,1.0,1.0,269.0011479426175,3.0,1.0,phase_1,,,,,,,,,,,,,orange,triangle
0.0,6.0,0.0,1.0,2.0,2.0,305.4956258274615,3.0,1.0,phase_1,,,,,,,,,,,,,gray,flipped triangle
75.0,5.0,0.5,1.0,1.0,1.0,225.2440550364554,3.0,1.0,phase_1,,,,,,,,,,,,,cyan,I
55.0,5.0,0.5,1.0,3.0,3.0,348.7361469306052,3.0,1.0,phase_1,,,,,,,,,,,,,cyan,I
383.0,4.0,4.0,0.0,1.0,1.0,305.4109090007841,3.0,1.0,phase_1,,,,,,,,,,,,,yellow,hexagon
124.0,2.0,1.0,0.0,1.0,1.0,439.1890959814191,3.0,1.0,phase_1,,,,,,,,,,,,,orange,triangle
95.0,6.0,1.0,1.0,1.0,1.0,281.4690000377595,3.0,1.0,phase_1,,,,,,,,,,,,,gray,flipped triangle
408.0,8.0,4.0,1.0,1.0,1.0,240.1386769488454,3.0,1.0,phase_1,,,,,,,,,,,,,blue,diamond
175.0,7.0,2.0,1.0,1.0,1.0,314.4919390324503,3.0,1.0,phase_1,,,,,,,,,,,,,white,cross
205.0,7.0,2.0,1.0,3.0,3.0,305.0251789391041,3.0,1.0,phase_1,,,,,,,,,,,,,white,cross
0.0,6.0,0.0,1.0,3.0,3.0,394.3308868911117,4.0,1.0,phase_1,,,,,,,,,,,,,gray,flipped triangle
396.0,4.0,4.0,0.0,1.0,1.0,296.7728609219193,4.0,1.0,phase_1,,,,,,,,,,,,,yellow,hexagon
224.0,3.0,2.0,0.0,3.0,3.0,325.8507871069014,4.0,1.0,phase_1,,,,,,,,,,,,,green,circle
92.0,6.0,1.0,1.0,1.0,1.0,280.2709268871695,4.0,1.0,phase_1,,,,,,,,,,,,,gray,flipped triangle
197.0,7.0,2.0,1.0,4.0,4.0,317.3379190266132,4.0,1.0,phase_1,,,,,,,,,,,,,white,cross
57.0,5.0,0.5,1.0,4.0,4.0,282.4308129493147,4.0,1.0,phase_1,,,,,,,,,,,,,cyan,I
0.0,4.0,0.0,0.0,1.0,1.0,222.6339371409267,4.0,1.0,phase_1,,,,,,,,,,,,,yellow,hexagon
46.0,5.0,0.5,1.0,2.0,2.0,278.4874769859016,4.0,1.0,phase_1,,,,,,,,,,,,,cyan,I
0.0,3.0,0.0,0.0,2.0,2.0,287.51778206788,4.0,1.0,phase_1,,,,,,,,,,,,,green,circle
410.0,8.0,4.0,1.0,2.0,2.0,268.0974369868636,4.0,1.0,phase_1,,,,,,,,,,,,,blue,diamond
105.0,2.0,1.0,0.0,2.0,2.0,330.3326850291341,4.0,1.0,phase_1,,,,,,,,,,,,,orange,triangle
56.0,5.0,0.5,1.0,4.0,4.0,317.219388205558,4.0,1.0,phase_1,,,,,,,,,,,,,cyan,I
0.0,2.0,0.0,0.0,4.0,4.0,301.4159330632537,4.0,1.0,phase_1,,,,,,,,,,,,,orange,triangle
0.0,3.0,0.0,0.0,2.0,2.0,271.2825089693069,4.0,1.0,phase_1,,,,,,,,,,,,,green,circle
0.0,8.0,0.0,1.0,1.0,1.0,539.6231750492007,4.0,1.0,phase_1,,,,,,,,,,,,,blue,diamond
105.0,6.0,1.0,1.0,1.0,1.0,308.1437249202281,4.0,1.0,phase_1,,,,,,,,,,,,,gray,flipped triangle
405.0,8.0,4.0,1.0,2.0,2.0,252.61681387200952,4.0,1.0,phase_1,,,,,,,,,,,,,blue,diamond
179.0,3.0,2.0,0.0,4.0,4.0,338.4551899507642,4.0,1.0,phase_1,,,,,,,,,,,,,green,circle
385.0,8.0,4.0,1.0,3.0,3.0,318.1600430980325,4.0,1.0,phase_1,,,,,,,,,,,,,blue,diamond
0.0,1.0,0.0,0.0,4.0,4.0,340.0580179877579,4.0,1.0,phase_1,,,,,,,,,,,,,magenta,square
92.0,6.0,1.0,1.0,2.0,2.0,263.223567046225,4.0,1.0,phase_1,,,,,,,,,,,,,gray,flipped triangle
38.0,5.0,0.5,1.0,4.0,4.0,316.9658700935542,4.0,1.0,phase_1,,,,,,,,,,,,,cyan,I
35.0,1.0,0.5,0.0,2.0,2.0,251.4080151449889,4.0,1.0,phase_1,,,,,,,,,,,,,magenta,square
25.0,5.0,0.5,1.0,1.0,1.0,288.2046340964734,4.0,1.0,phase_1,,,,,,,,,,,,,cyan,I
0.0,7.0,0.0,1.0,1.0,1.0,356.4581759274006,4.0,1.0,phase_1,,,,,,,,,,,,,white,cross
26.0,1.0,0.5,0.0,1.0,1.0,263.5285807773471,4.0,1.0,phase_1,,,,,,,,,,,,,magenta,square
188.0,7.0,2.0,1.0,2.0,2.0,295.2943129930645,4.0,1.0,phase_1,,,,,,,,,,,,,white,cross
51.0,1.0,0.5,0.0,3.0,3.0,360.8108488842845,4.0,1.0,phase_1,,,,,,,,,,,,,magenta,square
0.0,5.0,0.0,1.0,4.0,4.0,317.5616760272532,4.0,1.0,phase_1,,,,,,,,,,,,,cyan,I
94.0,2.0,1.0,0.0,4.0,4.0,277.2703559603542,4.0,1.0,phase_1,,,,,,,,,,,,,orange,triangle
0.0,6.0,0.0,1.0,2.0,2.0,288.8909028843045,4.0,1.0,phase_1,,,,,,,,,,,,,gray,flipped triangle
216.0,7.0,2.0,1.0,4.0,4.0,251.58585491590202,4.0,1.0,phase_1,,,,,,,,,,,,,white,cross
418.0,4.0,4.0,0.0,2.0,2.0,248.4216589946299,4.0,1.0,phase_1,,,,,,,,,,,,,yellow,hexagon
185.0,3.0,2.0,0.0,2.0,2.0,341.2448968738317,4.0,1.0,phase_1,,,,,,,,,,,,,green,circle
410.0,8.0,4.0,1.0,4.0,4.0,309.1175390873104,4.0,1.0,phase_1,,,,,,,,,,,,,blue,diamond
78.0,6.0,1.0,1.0,4.0,4.0,295.7153820898384,4.0,1.0,phase_1,,,,,,,,,,,,,gray,flipped triangle
422.0,8.0,4.0,1.0,4.0,4.0,276.628005085513,4.0,1.0,phase_1,,,,,,,,,,,,,blue,diamond
0.0,7.0,0.0,1.0,2.0,2.0,255.84590714424849,4.0,1.0,phase_1,,,,,,,,,,,,,white,cross
206.0,7.0,2.0,1.0,4.0,4.0,228.0404500197619,4.0,1.0,phase_1,,,,,,,,,,,,,white,cross
224.0,7.0,2.0,1.0,1.0,1.0,285.1325559895485,4.0,2.0,phase_1,,,,,,,,,,,,,white,cross
78.0,2.0,1.0,0.0,3.0,3.0,309.5767700579017,4.0,1.0,phase_1,,,,,,,,,,,,,orange,triangle
0.0,2.0,0.0,0.0,1.0,1.0,321.6848329175263,4.0,1.0,phase_1,,,,,,,,,,,,,orange,triangle
0.0,1.0,0.0,0.0,1.0,1.0,303.0664150137454,4.0,1.0,phase_1,,,,,,,,,,,,,magenta,square
202.0,3.0,2.0,0.0,2.0,2.0,235.7326499186456,4.0,1.0,phase_1,,,,,,,,,,,,,green,circle
75.0,1.0,0.5,0.0,4.0,4.0,328.7807609885931,4.0,1.0,phase_1,,,,,,,,,,,,,magenta,square
118.0,2.0,1.0,0.0,1.0,1.0,292.2410808969289,4.0,1.0,phase_1,,,,,,,,,,,,,orange,triangle
27.0,5.0,0.5,1.0,3.0,3.0,377.1803469862789,4.0,1.0,phase_1,,,,,,,,,,,,,cyan,I
421.0,4.0,4.0,0.0,3.0,3.0,370.7068399526179,4.0,1.0,phase_1,,,,,,,,,,,,,yellow,hexagon
407.0,8.0,4.0,1.0,1.0,1.0,295.403067022562,4.0,1.0,phase_1,,,,,,,,,,,,,blue,diamond
123.0,6.0,1.0,1.0,3.0,3.0,308.2176609896123,4.0,1.0,phase_1,,,,,,,,,,,,,gray,flipped triangle
31.0,1.0,0.5,0.0,3.0,3.0,323.6139852087945,4.0,1.0,phase_1,,,,,,,,,,,,,magenta,square
32.0,1.0,0.5,0.0,1.0,1.0,295.6506351474672,4.0,1.0,phase_1,,,,,,,,,,,,,magenta,square
209.0,3.0,2.0,0.0,3.0,3.0,285.8644591178745,4.0,1.0,phase_1,,,,,,,,,,,,,green,circle
410.0,4.0,4.0,0.0,4.0,4.0,288.9500048477202,4.0,1.0,phase_1,,,,,,,,,,,,,yellow,hexagon
40.0,5.0,0.5,1.0,2.0,2.0,317.2353180125355,4.0,1.0,phase_1,,,,,,,,,,,,,cyan,I
79.0,2.0,1.0,0.0,4.0,4.0,306.1745681334287,4.0,1.0,phase_1,,,,,,,,,,,,,orange,triangle
78.0,6.0,1.0,1.0,2.0,2.0,262.7389968838542,4.0,1.0,phase_1,,,,,,,,,,,,,gray,flipped triangle
396.0,8.0,4.0,1.0,4.0,4.0,306.7226279526949,4.0,1.0,phase_1,,,,,,,,,,,,,blue,diamond
66.0,1.0,0.5,0.0,4.0,4.0,335.9171140473336,4.0,1.0,phase_1,,,,,,,,,,,,,magenta,square
83.0,6.0,1.0,1.0,1.0,1.0,266.9269188772887,4.0,1.0,phase_1,,,,,,,,,,,,,gray,flipped triangle
83.0,2.0,1.0,0.0,4.0,4.0,335.5258000083267,4.0,1.0,phase_1,,,,,,,,,,,,,orange,triangle
54.0,1.0,0.5,0.0,2.0,2.0,244.9748739600181,4.0,1.0,phase_1,,,,,,,,,,,,,magenta,square
0.0,5.0,0.0,1.0,3.0,3.0,425.3363541793078,4.0,1.0,phase_1,,,,,,,,,,,,,cyan,I
35.0,5.0,0.5,1.0,1.0,1.0,264.4266560673713,4.0,1.0,phase_1,,,,,,,,,,,,,cyan,I
392.0,8.0,4.0,1.0,3.0,3.0,372.8943730238825,4.0,1.0,phase_1,,,,,,,,,,,,,blue,diamond
187.0,7.0,2.0,1.0,3.0,3.0,297.0297920983284,4.0,1.0,phase_1,,,,,,,,,,,,,white,cross
418.0,8.0,4.0,1.0,4.0,4.0,275.4880688153207,4.0,2.0,phase_1,,,,,,,,,,,,,blue,diamond
104.0,6.0,1.0,1.0,4.0,4.0,287.0334901381284,4.0,1.0,phase_1,,,,,,,,,,,,,gray,flipped triangle
0.0,3.0,0.0,0.0,3.0,3.0,292.4225120805204,4.0,1.0,phase_1,,,,,,,,,,,,,green,circle
0.0,5.0,0.0,1.0,1.0,1.0,248.761611059308,4.0,1.0,phase_1,,,,,,,,,,,,,cyan,I
0.0,8.0,0.0,1.0,2.0,2.0,243.3749618940055,4.0,1.0,phase_1,,,,,,,,,,,,,blue,diamond
89.0,2.0,1.0,0.0,3.0,3.0,352.6771168690175,4.0,1.0,phase_1,,,,,,,,,,,,,orange,triangle
0.0,2.0,0.0,0.0,4.0,4.0,336.8426489178091,4.0,1.0,phase_1,,,,,,,,,,,,,orange,triangle
113.0,2.0,1.0,0.0,1.0,1.0,274.0141048561781,4.0,1.0,phase_1,,,,,,,,,,,,,orange,triangle
176.0,3.0,2.0,0.0,1.0,1.0,283.292398089543,4.0,2.0,phase_1,,,,,,,,,,,,,green,circle
0.0,4.0,0.0,0.0,3.0,3.0,327.276948839426,4.0,1.0,phase_1,,,,,,,,,,,,,yellow,hexagon
86.0,6.0,1.0,1.0,3.0,3.0,323.8724810071289,4.0,1.0,phase_1,,,,,,,,,,,,,gray,flipped triangle
197.0,7.0,2.0,1.0,3.0,3.0,363.3168218657374,4.0,1.0,phase_1,,,,,,,,,,,,,white,cross
102.0,2.0,1.0,0.0,4.0,4.0,295.245508197695,4.0,1.0,phase_1,,,,,,,,,,,,,orange,triangle
56.0,1.0,0.5,0.0,4.0,4.0,307.1568252053112,4.0,1.0,phase_1,,,,,,,,,,,,,magenta,square
396.0,4.0,4.0,0.0,4.0,4.0,282.7150570228696,4.0,1.0,phase_1,,,,,,,,,,,,,yellow,hexagon
51.0,5.0,0.5,1.0,3.0,3.0,355.7319911196828,4.0,1.0,phase_1,,,,,,,,,,,,,cyan,I
106.0,6.0,1.0,1.0,2.0,2.0,705.1652639638633,4.0,1.0,phase_1,,,,,,,,,,,,,gray,flipped triangle
418.0,8.0,4.0,1.0,2.0,2.0,311.8984180036932,4.0,1.0,phase_1,,,,,,,,,,,,,blue,diamond
408.0,4.0,4.0,0.0,4.0,4.0,331.1650361865759,4.0,1.0,phase_1,,,,,,,,,,,,,yellow,hexagon
123.0,2.0,1.0,0.0,2.0,2.0,241.2930300924927,4.0,1.0,phase_1,,,,,,,,,,,,,orange,triangle
391.0,4.0,4.0,0.0,4.0,4.0,253.2697259448468,4.0,1.0,phase_1,,,,,,,,,,,,,yellow,hexagon
382.0,4.0,4.0,0.0,1.0,1.0,274.319414049387,4.0,1.0,phase_1,,,,,,,,,,,,,yellow,hexagon
70.0,1.0,0.5,0.0,3.0,3.0,252.36378493718797,4.0,1.0,phase_1,,,,,,,,,,,,,magenta,square
420.0,4.0,4.0,0.0,1.0,1.0,274.6758130379021,4.0,1.0,phase_1,,,,,,,,,,,,,yellow,hexagon
401.0,4.0,4.0,0.0,3.0,3.0,257.0390549954027,4.0,1.0,phase_1,,,,,,,,,,,,,yellow,hexagon
175.0,3.0,2.0,0.0,3.0,3.0,290.2222950942814,4.0,2.0,phase_1,,,,,,,,,,,,,green,circle
401.0,8.0,4.0,1.0,3.0,3.0,365.8236130140722,4.0,1.0,phase_1,,,,,,,,,,,,,blue,diamond
0.0,3.0,0.0,0.0,4.0,4.0,290.7943818718195,4.0,1.0,phase_1,,,,,,,,,,,,,green,circle
53.0,5.0,0.5,1.0,2.0,2.0,279.850467806682,4.0,1.0,phase_1,,,,,,,,,,,,,cyan,I
182.0,7.0,2.0,1.0,2.0,2.0,314.9949319195002,4.0,1.0,phase_1,,,,,,,,,,,,,white,cross
79.0,6.0,1.0,1.0,4.0,4.0,310.5607249308377,4.0,1.0,phase_1,,,,,,,,,,,,,gray,flipped triangle
91.0,2.0,1.0,0.0,4.0,4.0,283.9336378965527,4.0,1.0,phase_1,,,,,,,,,,,,,orange,triangle
182.0,7.0,2.0,1.0,1.0,1.0,282.8075198922306,4.0,1.0,phase_1,,,,,,,,,,,,,white,cross
25.0,1.0,0.5,0.0,1.0,1.0,311.7785491049289,4.0,1.0,phase_1,,,,,,,,,,,,,magenta,square
0.0,1.0,0.5,0.0,5.0,5.0,397.2399670165032,1.0,1.0,phase_2,go,250.0,250.0,1.0,,,,,,,,,magenta,square
0.0,1.0,0.5,0.0,6.0,6.0,308.1851110327989,1.0,1.0,phase_2,go,250.0,250.0,1.0,,,,,,,,,magenta,square
0.0,6.0,1.0,1.0,6.0,6.0,572.595824021846,1.0,1.0,phase_2,go,250.0,250.0,1.0,,,,,,,,,gray,flipped triangle
0.0,2.0,1.0,0.0,6.0,6.0,373.380395816639,1.0,1.0,phase_2,go,250.0,250.0,1.0,,,,,,,,,orange,triangle
0.0,3.0,2.0,0.0,5.0,5.0,506.4219110645354,1.0,1.0,phase_2,go,250.0,250.0,1.0,,,,,,,,,green,circle
0.0,2.0,1.0,0.0,5.0,5.0,299.7550240252167,1.0,1.0,phase_2,go,250.0,250.0,1.0,,,,,,,,,orange,triangle
0.0,6.0,1.0,1.0,6.0,0.0,0.0,1.0,1.0,phase_2,stop,250.0,250.0,4.0,,,,,,,,,gray,flipped triangle
0.0,8.0,4.0,1.0,5.0,5.0,380.3876868914813,1.0,1.0,phase_2,go,250.0,300.0,1.0,,,,,,,,,blue,diamond
0.0,3.0,2.0,0.0,5.0,5.0,321.7862439341843,1.0,1.0,phase_2,go,250.0,300.0,1.0,,,,,,,,,green,circle
0.0,1.0,0.5,0.0,5.0,5.0,247.7840948849916,1.0,1.0,phase_2,go,250.0,300.0,1.0,,,,,,,,,magenta,square
0.0,2.0,1.0,0.0,6.0,6.0,257.0744489785284,1.0,1.0,phase_2,go,250.0,300.0,1.0,,,,,,,,,orange,triangle
0.0,5.0,0.5,1.0,6.0,6.0,323.701576096937,1.0,1.0,phase_2,stop,250.0,300.0,3.0,,,,,,,,,cyan,I
0.0,8.0,4.0,1.0,5.0,5.0,634.0014562010765,1.0,1.0,phase_2,stop,250.0,250.0,3.0,,,,,,,,,blue,diamond
0.0,1.0,0.5,0.0,6.0,6.0,485.5507011525333,1.0,1.0,phase_2,go,200.0,250.0,1.0,,,,,,,,,magenta,square
0.0,6.0,1.0,1.0,5.0,0.0,0.0,1.0,1.0,phase_2,stop,200.0,250.0,4.0,,,,,,,,,gray,flipped triangle
0.0,6.0,1.0,1.0,5.0,0.0,0.0,1.0,1.0,phase_2,stop,250.0,250.0,4.0,,,,,,,,,gray,flipped triangle
0.0,2.0,1.0,0.0,6.0,6.0,324.0287899971008,1.0,1.0,phase_2,go,300.0,250.0,1.0,,,,,,,,,orange,triangle
0.0,3.0,2.0,0.0,6.0,6.0,295.4680030234158,1.0,1.0,phase_2,go,300.0,250.0,1.0,,,,,,,,,green,circle
0.0,3.0,2.0,0.0,5.0,5.0,302.7755618095398,1.0,1.0,phase_2,go,300.0,250.0,1.0,,,,,,,,,green,circle
0.0,6.0,1.0,1.0,6.0,6.0,306.3506928738206,1.0,1.0,phase_2,go,300.0,250.0,1.0,,,,,,,,,gray,flipped triangle
0.0,6.0,1.0,1.0,5.0,0.0,0.0,1.0,1.0,phase_2,stop,300.0,250.0,4.0,,,,,,,,,gray,flipped triangle
0.0,2.0,1.0,0.0,6.0,6.0,460.3262178134173,1.0,1.0,phase_2,go,350.0,250.0,1.0,,,,,,,,,orange,triangle
0.0,4.0,4.0,0.0,6.0,6.0,331.3341429457068,1.0,1.0,phase_2,go,350.0,250.0,1.0,,,,,,,,,yellow,hexagon
0.0,8.0,4.0,1.0,6.0,6.0,304.0044200606644,1.0,1.0,phase_2,stop,350.0,250.0,3.0,,,,,,,,,blue,diamond
0.0,4.0,4.0,0.0,6.0,6.0,495.2828329987824,1.0,1.0,phase_2,go,350.0,200.0,1.0,,,,,,,,,yellow,hexagon
0.0,2.0,1.0,0.0,5.0,5.0,513.4736718609929,1.0,1.0,phase_2,go,350.0,200.0,1.0,,,,,,,,,orange,triangle
0.0,4.0,4.0,0.0,6.0,6.0,501.8709108699113,1.0,1.0,phase_2,go,350.0,200.0,1.0,,,,,,,,,yellow,hexagon
0.0,5.0,0.5,1.0,6.0,0.0,0.0,1.0,1.0,phase_2,stop,350.0,200.0,4.0,,,,,,,,,cyan,I
0.0,5.0,0.5,1.0,5.0,0.0,0.0,1.0,1.0,phase_2,stop,350.0,250.0,4.0,,,,,,,,,cyan,I
0.0,3.0,2.0,0.0,6.0,6.0,422.8785000741482,1.0,1.0,phase_2,go,400.0,250.0,1.0,,,,,,,,,green,circle
0.0,7.0,2.0,1.0,5.0,5.0,302.1655289921909,1.0,1.0,phase_2,stop,400.0,250.0,3.0,,,,,,,,,white,cross
0.0,7.0,2.0,1.0,5.0,0.0,0.0,1.0,1.0,phase_2,stop,350.0,250.0,4.0,,,,,,,,,white,cross
0.0,6.0,1.0,1.0,6.0,0.0,0.0,1.0,1.0,phase_2,stop,400.0,250.0,4.0,,,,,,,,,gray,flipped triangle
0.0,3.0,2.0,0.0,5.0,5.0,549.6786581352353,1.0,1.0,phase_2,go,400.0,300.0,1.0,,,,,,,,,green,circle
0.0,7.0,2.0,1.0,5.0,0.0,0.0,1.0,1.0,phase_2,stop,400.0,300.0,4.0,,,,,,,,,white,cross
0.0,4.0,4.0,0.0,6.0,6.0,721.003970131278,1.0,1.0,phase_2,go,450.0,300.0,1.0,,,,,,,,,yellow,hexagon
0.0,7.0,2.0,1.0,5.0,0.0,0.0,2.0,1.0,phase_2,stop,450.0,300.0,4.0,,,,,,,,,white,cross
0.0,5.0,0.5,1.0,5.0,5.0,589.2323818989098,2.0,1.0,phase_2,stop,500.0,300.0,3.0,,,,,,,,,cyan,I
0.0,6.0,1.0,1.0,5.0,5.0,507.0434028748423,2.0,1.0,phase_2,stop,450.0,300.0,3.0,,,,,,,,,gray,flipped triangle
0.0,4.0,4.0,0.0,6.0,6.0,264.9287041276693,2.0,1.0,phase_2,go,400.0,300.0,1.0,,,,,,,,,yellow,hexagon
0.0,4.0,4.0,0.0,5.0,5.0,475.7861031685024,2.0,1.0,phase_2,go,400.0,300.0,1.0,,,,,,,,,yellow,hexagon
0.0,5.0,0.5,1.0,6.0,0.0,0.0,2.0,1.0,phase_2,stop,400.0,300.0,4.0,,,,,,,,,cyan,I
0.0,7.0,2.0,1.0,5.0,5.0,800.0205189455301,2.0,1.0,phase_2,go,400.0,350.0,1.0,,,,,,,,,white,cross
0.0,3.0,2.0,0.0,5.0,5.0,745.5367469228804,2.0,1.0,phase_2,go,400.0,350.0,1.0,,,,,,,,,green,circle
0.0,4.0,4.0,0.0,5.0,5.0,574.6729308739305,2.0,1.0,phase_2,go,400.0,350.0,1.0,,,,,,,,,yellow,hexagon
0.0,5.0,0.5,1.0,5.0,0.0,0.0,2.0,1.0,phase_2,stop,400.0,350.0,4.0,,,,,,,,,cyan,I
0.0,8.0,4.0,1.0,6.0,0.0,0.0,2.0,1.0,phase_2,stop,450.0,350.0,4.0,,,,,,,,,blue,diamond
0.0,1.0,0.5,0.0,5.0,5.0,837.9234250169247,2.0,1.0,phase_2,go,450.0,400.0,1.0,,,,,,,,,magenta,square
0.0,7.0,2.0,1.0,5.0,0.0,0.0,2.0,1.0,phase_2,stop,450.0,400.0,4.0,,,,,,,,,white,cross
0.0,7.0,2.0,1.0,5.0,0.0,0.0,2.0,1.0,phase_2,stop,500.0,400.0,4.0,,,,,,,,,white,cross
0.0,5.0,0.5,1.0,6.0,6.0,292.1395460143685,2.0,1.0,phase_2,stop,550.0,400.0,3.0,,,,,,,,,cyan,I
0.0,3.0,2.0,0.0,6.0,6.0,723.3459549024701,2.0,1.0,phase_2,go,550.0,350.0,1.0,,,,,,,,,green,circle
0.0,3.0,2.0,0.0,5.0,5.0,900.8944348897784,2.0,1.0,phase_2,go,550.0,350.0,1.0,,,,,,,,,green,circle
0.0,5.0,0.5,1.0,5.0,5.0,305.3160710260272,2.0,1.0,phase_2,go,550.0,350.0,1.0,,,,,,,,,cyan,I
0.0,3.0,2.0,0.0,5.0,5.0,672.9609100148082,2.0,1.0,phase_2,go,550.0,350.0,1.0,,,,,,,,,green,circle
0.0,6.0,1.0,1.0,6.0,6.0,314.1709628980607,2.0,1.0,phase_2,stop,550.0,350.0,3.0,,,,,,,,,gray,flipped triangle
0.0,7.0,2.0,1.0,6.0,0.0,0.0,2.0,1.0,phase_2,stop,550.0,300.0,4.0,,,,,,,,,white,cross
0.0,8.0,4.0,1.0,6.0,0.0,0.0,2.0,1.0,phase_2,stop,550.0,350.0,4.0,,,,,,,,,blue,diamond
0.0,3.0,2.0,0.0,6.0,6.0,624.6802308596671,2.0,1.0,phase_2,go,550.0,400.0,1.0,,,,,,,,,green,circle
0.0,8.0,4.0,1.0,5.0,0.0,0.0,2.0,1.0,phase_2,stop,550.0,400.0,4.0,,,,,,,,,blue,diamond
0.0,1.0,0.5,0.0,6.0,6.0,865.8458988647908,2.0,1.0,phase_2,go,600.0,400.0,1.0,,,,,,,,,magenta,square
0.0,7.0,2.0,1.0,5.0,0.0,0.0,2.0,1.0,phase_2,stop,600.0,400.0,4.0,,,,,,,,,white,cross
0.0,6.0,1.0,1.0,6.0,0.0,0.0,2.0,1.0,phase_2,stop,650.0,400.0,4.0,,,,,,,,,gray,flipped triangle
0.0,2.0,1.0,0.0,5.0,5.0,1212.746802950278,2.0,1.0,phase_2,go,650.0,450.0,1.0,,,,,,,,,orange,triangle
0.0,8.0,4.0,1.0,6.0,0.0,0.0,2.0,1.0,phase_2,stop,650.0,450.0,4.0,,,,,,,,,blue,diamond
0.0,2.0,1.0,0.0,5.0,5.0,1108.4163200575858,2.0,1.0,phase_2,go,650.0,500.0,1.0,,,,,,,,,orange,triangle
0.0,4.0,4.0,0.0,6.0,6.0,1389.7700849920511,2.0,1.0,phase_2,go,650.0,500.0,1.0,,,,,,,,,yellow,hexagon
0.0,5.0,0.5,1.0,6.0,0.0,0.0,2.0,1.0,phase_2,stop,650.0,500.0,4.0,,,,,,,,,cyan,I
0.0,2.0,1.0,0.0,6.0,6.0,699.6402859222144,2.0,1.0,phase_2,go,650.0,550.0,1.0,,,,,,,,,orange,triangle
0.0,7.0,2.0,1.0,5.0,0.0,0.0,2.0,1.0,phase_2,stop,650.0,550.0,4.0,,,,,,,,,white,cross
0.0,2.0,1.0,0.0,6.0,6.0,697.2204700578004,2.0,1.0,phase_2,go,700.0,550.0,1.0,,,,,,,,,orange,triangle
0.0,4.0,4.0,0.0,5.0,5.0,1017.3256548587233,2.0,1.0,phase_2,go,700.0,550.0,1.0,,,,,,,,,yellow,hexagon
0.0,3.0,2.0,0.0,6.0,6.0,487.0598639827221,3.0,1.0,phase_2,go,700.0,550.0,1.0,,,,,,,,,green,circle
0.0,4.0,4.0,0.0,5.0,5.0,270.872849971056,3.0,1.0,phase_2,go,700.0,550.0,1.0,,,,,,,,,yellow,hexagon
0.0,4.0,4.0,0.0,5.0,5.0,287.3287489637732,3.0,1.0,phase_2,go,700.0,550.0,1.0,,,,,,,,,yellow,hexagon
0.0,2.0,1.0,0.0,5.0,5.0,258.9310449548065,3.0,1.0,phase_2,go,700.0,550.0,1.0,,,,,,,,,orange,triangle
0.0,4.0,4.0,0.0,5.0,5.0,246.5662739705294,3.0,1.0,phase_2,go,700.0,550.0,1.0,,,,,,,,,yellow,hexagon
0.0,2.0,1.0,0.0,5.0,5.0,226.6025568824261,3.0,1.0,phase_2,go,700.0,550.0,1.0,,,,,,,,,orange,triangle
0.0,6.0,1.0,1.0,5.0,5.0,225.7833171170205,3.0,1.0,phase_2,stop,700.0,550.0,3.0,,,,,,,,,gray,flipped triangle
0.0,7.0,2.0,1.0,6.0,6.0,282.9610081389546,3.0,1.0,phase_2,go,650.0,550.0,1.0,,,,,,,,,white,cross
0.0,5.0,0.5,1.0,5.0,5.0,291.237270925194,3.0,1.0,phase_2,stop,650.0,550.0,3.0,,,,,,,,,cyan,I
0.0,7.0,2.0,1.0,6.0,6.0,303.6960149183869,3.0,1.0,phase_2,stop,600.0,550.0,3.0,,,,,,,,,white,cross
0.0,6.0,1.0,1.0,6.0,6.0,563.193473033607,3.0,1.0,phase_2,go,600.0,500.0,1.0,,,,,,,,,gray,flipped triangle
0.0,1.0,0.5,0.0,5.0,5.0,239.5969629287719,3.0,1.0,phase_2,go,600.0,500.0,1.0,,,,,,,,,magenta,square
0.0,4.0,4.0,0.0,5.0,5.0,273.0644268449396,3.0,1.0,phase_2,go,600.0,500.0,1.0,,,,,,,,,yellow,hexagon
0.0,8.0,4.0,1.0,6.0,6.0,302.3637621663511,3.0,1.0,phase_2,stop,600.0,500.0,3.0,,,,,,,,,blue,diamond
0.0,3.0,2.0,0.0,6.0,6.0,360.1420600898564,3.0,1.0,phase_2,go,600.0,450.0,1.0,,,,,,,,,green,circle
0.0,1.0,0.5,0.0,5.0,5.0,325.4145979881286,3.0,1.0,phase_2,go,600.0,450.0,1.0,,,,,,,,,magenta,square
0.0,7.0,2.0,1.0,6.0,6.0,334.4498011283576,3.0,1.0,phase_2,stop,600.0,450.0,3.0,,,,,,,,,white,cross
0.0,8.0,4.0,1.0,5.0,5.0,351.1873069219291,3.0,1.0,phase_2,stop,600.0,400.0,3.0,,,,,,,,,blue,diamond
0.0,1.0,0.5,0.0,6.0,6.0,278.0371068511158,3.0,1.0,phase_2,go,550.0,400.0,1.0,,,,,,,,,magenta,square
0.0,3.0,2.0,0.0,6.0,6.0,363.861771998927,3.0,1.0,phase_2,go,550.0,400.0,1.0,,,,,,,,,green,circle
0.0,2.0,1.0,0.0,5.0,5.0,266.285782912746,3.0,1.0,phase_2,go,550.0,400.0,1.0,,,,,,,,,orange,triangle
0.0,2.0,1.0,0.0,5.0,5.0,330.9555349405855,3.0,1.0,phase_2,go,550.0,400.0,1.0,,,,,,,,,orange,triangle
0.0,1.0,0.5,0.0,6.0,6.0,322.8796150069684,3.0,1.0,phase_2,go,550.0,400.0,1.0,,,,,,,,,magenta,square
0.0,7.0,2.0,1.0,6.0,6.0,306.7629570141434,3.0,1.0,phase_2,stop,550.0,400.0,3.0,,,,,,,,,white,cross
0.0,6.0,1.0,1.0,5.0,5.0,299.0858100820333,3.0,1.0,phase_2,stop,550.0,350.0,3.0,,,,,,,,,gray,flipped triangle
0.0,7.0,2.0,1.0,5.0,5.0,281.9328650366515,3.0,1.0,phase_2,stop,500.0,350.0,3.0,,,,,,,,,white,cross
0.0,6.0,1.0,1.0,5.0,5.0,266.9309319462627,3.0,1.0,phase_2,go,450.0,350.0,1.0,,,,,,,,,gray,flipped triangle
0.0,7.0,2.0,1.0,6.0,6.0,217.4346609972417,3.0,1.0,phase_2,go,450.0,350.0,1.0,,,,,,,,,white,cross
0.0,1.0,0.5,0.0,6.0,6.0,280.1593958865851,3.0,1.0,phase_2,go,450.0,350.0,1.0,,,,,,,,,magenta,square
0.0,3.0,2.0,0.0,6.0,6.0,277.2472789511084,3.0,1.0,phase_2,go,450.0,350.0,1.0,,,,,,,,,green,circle
0.0,7.0,2.0,1.0,6.0,6.0,267.8148881532252,3.0,1.0,phase_2,stop,450.0,350.0,3.0,,,,,,,,,white,cross
0.0,3.0,2.0,0.0,5.0,5.0,293.1360590737313,3.0,1.0,phase_2,go,450.0,300.0,1.0,,,,,,,,,green,circle
0.0,6.0,1.0,1.0,6.0,6.0,244.9467361439019,3.0,1.0,phase_2,stop,450.0,300.0,3.0,,,,,,,,,gray,flipped triangle
0.0,8.0,4.0,1.0,6.0,6.0,275.1733770128339,3.0,1.0,phase_2,go,450.0,250.0,1.0,,,,,,,,,blue,diamond
0.0,6.0,1.0,1.0,5.0,5.0,218.0756221059709,3.0,1.0,phase_2,stop,450.0,250.0,3.0,,,,,,,,,gray,flipped triangle
0.0,1.0,0.5,0.0,6.0,6.0,274.7434349730611,3.0,1.0,phase_2,go,400.0,250.0,1.0,,,,,,,,,magenta,square
0.0,3.0,2.0,0.0,5.0,5.0,692.499513970688,4.0,1.0,phase_2,go,400.0,250.0,1.0,,,,,,,,,green,circle
0.0,2.0,1.0,0.0,6.0,6.0,378.0055921524763,4.0,1.0,phase_2,go,400.0,250.0,1.0,,,,,,,,,orange,triangle
0.0,7.0,2.0,1.0,5.0,5.0,444.5651690475642,4.0,1.0,phase_2,stop,400.0,250.0,3.0,,,,,,,,,white,cross
0.0,8.0,4.0,1.0,6.0,0.0,0.0,4.0,1.0,phase_2,stop,350.0,250.0,4.0,,,,,,,,,blue,diamond
0.0,5.0,0.5,1.0,5.0,0.0,0.0,4.0,1.0,phase_2,stop,350.0,300.0,4.0,,,,,,,,,cyan,I
0.0,2.0,1.0,0.0,5.0,5.0,636.0362160485238,4.0,1.0,phase_2,go,400.0,300.0,1.0,,,,,,,,,orange,triangle
0.0,7.0,2.0,1.0,6.0,6.0,687.7517730463296,4.0,1.0,phase_2,stop,400.0,300.0,3.0,,,,,,,,,white,cross
0.0,8.0,4.0,1.0,6.0,0.0,0.0,4.0,1.0,phase_2,stop,400.0,250.0,4.0,,,,,,,,,blue,diamond
0.0,1.0,0.5,0.0,5.0,5.0,654.5089781284332,4.0,1.0,phase_2,go,400.0,300.0,1.0,,,,,,,,,magenta,square
0.0,8.0,4.0,1.0,6.0,0.0,0.0,4.0,1.0,phase_2,stop,400.0,300.0,4.0,,,,,,,,,blue,diamond
0.0,6.0,1.0,1.0,6.0,0.0,0.0,4.0,1.0,phase_2,stop,400.0,350.0,4.0,,,,,,,,,gray,flipped triangle
0.0,8.0,4.0,1.0,5.0,0.0,0.0,4.0,1.0,phase_2,stop,400.0,400.0,4.0,,,,,,,,,blue,diamond
0.0,1.0,0.5,0.0,6.0,6.0,774.107086006552,4.0,1.0,phase_2,go,450.0,400.0,1.0,,,,,,,,,magenta,square
0.0,2.0,1.0,0.0,6.0,6.0,676.4714200980961,4.0,1.0,phase_2,go,450.0,400.0,1.0,,,,,,,,,orange,triangle
0.0,2.0,1.0,0.0,6.0,6.0,827.1938511170447,4.0,1.0,phase_2,go,450.0,400.0,1.0,,,,,,,,,orange,triangle
0.0,8.0,4.0,1.0,6.0,0.0,0.0,4.0,1.0,phase_2,stop,450.0,400.0,4.0,,,,,,,,,blue,diamond
0.0,6.0,1.0,1.0,6.0,0.0,0.0,4.0,1.0,phase_2,stop,450.0,450.0,4.0,,,,,,,,,gray,flipped triangle
0.0,8.0,4.0,1.0,5.0,5.0,697.670086985454,4.0,1.0,phase_2,go,450.0,500.0,1.0,,,,,,,,,blue,diamond
0.0,3.0,2.0,0.0,5.0,5.0,794.6580569259822,4.0,1.0,phase_2,go,450.0,500.0,1.0,,,,,,,,,green,circle
0.0,4.0,4.0,0.0,6.0,6.0,827.6568888686597,4.0,1.0,phase_2,go,450.0,500.0,1.0,,,,,,,,,yellow,hexagon
0.0,7.0,2.0,1.0,6.0,6.0,681.5581780392677,4.0,1.0,phase_2,go,450.0,500.0,1.0,,,,,,,,,white,cross
0.0,7.0,2.0,1.0,6.0,6.0,567.1696299687028,4.0,1.0,phase_2,stop,450.0,500.0,3.0,,,,,,,,,white,cross
0.0,4.0,4.0,0.0,5.0,5.0,642.654576105997,4.0,1.0,phase_2,go,450.0,450.0,1.0,,,,,,,,,yellow,hexagon
0.0,6.0,1.0,1.0,6.0,0.0,0.0,4.0,1.0,phase_2,stop,450.0,450.0,4.0,,,,,,,,,gray,flipped triangle
0.0,1.0,0.5,0.0,6.0,6.0,701.6448979265988,4.0,1.0,phase_2,go,450.0,500.0,1.0,,,,,,,,,magenta,square
0.0,3.0,2.0,0.0,5.0,5.0,728.3508901018649,4.0,1.0,phase_2,go,450.0,500.0,1.0,,,,,,,,,green,circle
0.0,4.0,4.0,0.0,6.0,6.0,749.566376907751,4.0,1.0,phase_2,go,450.0,500.0,1.0,,,,,,,,,yellow,hexagon
0.0,6.0,1.0,1.0,5.0,0.0,0.0,4.0,1.0,phase_2,stop,450.0,500.0,4.0,,,,,,,,,gray,flipped triangle
0.0,4.0,4.0,0.0,6.0,6.0,803.0671619344503,4.0,1.0,phase_2,go,500.0,500.0,1.0,,,,,,,,,yellow,hexagon
0.0,7.0,2.0,1.0,5.0,0.0,0.0,4.0,1.0,phase_2,stop,500.0,500.0,4.0,,,,,,,,,white,cross
0.0,5.0,0.5,1.0,5.0,5.0,916.493397206068,4.0,1.0,phase_2,go,550.0,500.0,1.0,,,,,,,,,cyan,I
0.0,7.0,2.0,1.0,5.0,0.0,0.0,4.0,1.0,phase_2,stop,550.0,500.0,4.0,,,,,,,,,white,cross
0.0,1.0,0.5,0.0,5.0,5.0,817.4533899873495,4.0,1.0,phase_2,go,600.0,500.0,1.0,,,,,,,,,magenta,square
0.0,4.0,4.0,0.0,6.0,6.0,899.3426689412445,4.0,1.0,phase_2,go,600.0,500.0,1.0,,,,,,,,,yellow,hexagon
0.0,2.0,1.0,0.0,5.0,5.0,912.0423619169742,4.0,1.0,phase_2,go,600.0,500.0,1.0,,,,,,,,,orange,triangle
0.0,5.0,0.5,1.0,6.0,6.0,896.0464240517467,4.0,1.0,phase_2,go,600.0,500.0,1.0,,,,,,,,,cyan,I
0.0,4.0,4.0,0.0,6.0,6.0,704.6278449706733,5.0,1.0,phase_2,go,600.0,500.0,1.0,,,,,,,,,yellow,hexagon
0.0,2.0,1.0,0.0,6.0,6.0,325.1032119151205,5.0,1.0,phase_2,go,600.0,500.0,1.0,,,,,,,,,orange,triangle
0.0,3.0,2.0,0.0,6.0,6.0,319.9621310923248,5.0,1.0,phase_2,go,600.0,500.0,1.0,,,,,,,,,green,circle
0.0,8.0,4.0,1.0,5.0,5.0,461.340197827667,5.0,1.0,phase_2,stop,600.0,500.0,3.0,,,,,,,,,blue,diamond
0.0,6.0,1.0,1.0,6.0,6.0,405.7062941137701,5.0,1.0,phase_2,stop,550.0,500.0,3.0,,,,,,,,,gray,flipped triangle
0.0,4.0,4.0,0.0,5.0,5.0,533.2400689367205,5.0,1.0,phase_2,go,550.0,450.0,1.0,,,,,,,,,yellow,hexagon
0.0,3.0,2.0,0.0,6.0,6.0,514.3261179327965,5.0,1.0,phase_2,go,550.0,450.0,1.0,,,,,,,,,green,circle
0.0,2.0,1.0,0.0,5.0,5.0,459.4449431169778,5.0,1.0,phase_2,go,550.0,450.0,1.0,,,,,,,,,orange,triangle
0.0,4.0,4.0,0.0,5.0,5.0,361.2448798958212,5.0,1.0,phase_2,go,550.0,450.0,1.0,,,,,,,,,yellow,hexagon
0.0,8.0,4.0,1.0,5.0,5.0,385.295903077349,5.0,1.0,phase_2,stop,550.0,450.0,3.0,,,,,,,,,blue,diamond
0.0,2.0,1.0,0.0,5.0,5.0,707.7460559085011,5.0,1.0,phase_2,go,500.0,450.0,1.0,,,,,,,,,orange,triangle
0.0,3.0,2.0,0.0,6.0,6.0,603.0566310510039,5.0,1.0,phase_2,go,500.0,450.0,1.0,,,,,,,,,green,circle
0.0,2.0,1.0,0.0,6.0,6.0,488.367117010057,5.0,1.0,phase_2,go,500.0,450.0,1.0,,,,,,,,,orange,triangle
0.0,8.0,4.0,1.0,6.0,6.0,502.6638940908015,5.0,1.0,phase_2,go,500.0,450.0,1.0,,,,,,,,,blue,diamond
0.0,4.0,4.0,0.0,5.0,5.0,656.2981149181724,5.0,1.0,phase_2,go,500.0,450.0,1.0,,,,,,,,,yellow,hexagon
0.0,3.0,2.0,0.0,6.0,6.0,454.3685559183359,5.0,1.0,phase_2,go,500.0,450.0,1.0,,,,,,,,,green,circle
0.0,8.0,4.0,1.0,5.0,5.0,317.6707599777728,5.0,1.0,phase_2,stop,500.0,450.0,3.0,,,,,,,,,blue,diamond
0.0,5.0,0.5,1.0,6.0,6.0,573.0939800851047,5.0,1.0,phase_2,go,450.0,450.0,1.0,,,,,,,,,cyan,I
0.0,1.0,0.5,0.0,6.0,6.0,612.4736820347607,5.0,1.0,phase_2,go,450.0,450.0,1.0,,,,,,,,,magenta,square
0.0,1.0,0.5,0.0,6.0,6.0,347.5409671664238,5.0,1.0,phase_2,go,450.0,450.0,1.0,,,,,,,,,magenta,square
0.0,2.0,1.0,0.0,6.0,6.0,250.39572198875248,5.0,1.0,phase_2,go,450.0,450.0,1.0,,,,,,,,,orange,triangle
0.0,6.0,1.0,1.0,6.0,6.0,314.9220810737461,5.0,1.0,phase_2,stop,450.0,450.0,3.0,,,,,,,,,gray,flipped triangle
0.0,8.0,4.0,1.0,5.0,5.0,340.4420940205455,5.0,1.0,phase_2,go,450.0,400.0,1.0,,,,,,,,,blue,diamond
0.0,8.0,4.0,1.0,5.0,5.0,532.3837038595229,5.0,1.0,phase_2,stop,450.0,400.0,3.0,,,,,,,,,blue,diamond
0.0,5.0,0.5,1.0,6.0,0.0,0.0,5.0,1.0,phase_2,stop,400.0,400.0,4.0,,,,,,,,,cyan,I
0.0,6.0,1.0,1.0,6.0,6.0,699.168544029817,5.0,1.0,phase_2,go,400.0,450.0,1.0,,,,,,,,,gray,flipped triangle
0.0,8.0,4.0,1.0,6.0,6.0,519.5619820151478,5.0,1.0,phase_2,stop,400.0,450.0,3.0,,,,,,,,,blue,diamond
0.0,1.0,0.5,0.0,5.0,5.0,903.6480700597168,5.0,1.0,phase_2,go,400.0,400.0,1.0,,,,,,,,,magenta,square
0.0,3.0,2.0,0.0,6.0,6.0,778.2591860741377,5.0,1.0,phase_2,go,400.0,400.0,1.0,,,,,,,,,green,circle
0.0,1.0,0.5,0.0,5.0,5.0,832.9633970279247,5.0,1.0,phase_2,go,400.0,400.0,1.0,,,,,,,,,magenta,square
0.0,3.0,2.0,0.0,5.0,5.0,374.8765210621059,5.0,1.0,phase_2,go,400.0,400.0,1.0,,,,,,,,,green,circle
0.0,1.0,0.5,0.0,5.0,5.0,400.4620558116585,5.0,1.0,phase_2,go,400.0,400.0,1.0,,,,,,,,,magenta,square
0.0,8.0,4.0,1.0,5.0,5.0,391.626477940008,5.0,1.0,phase_2,stop,400.0,400.0,3.0,,,,,,,,,blue,diamond
0.0,4.0,4.0,0.0,5.0,5.0,686.7052970919758,5.0,1.0,phase_2,go,350.0,400.0,1.0,,,,,,,,,yellow,hexagon
0.0,6.0,1.0,1.0,6.0,6.0,332.7859970740974,5.0,1.0,phase_2,stop,350.0,400.0,3.0,,,,,,,,,gray,flipped triangle
0.0,1.0,0.5,0.0,6.0,6.0,572.3593239672482,5.0,1.0,phase_2,go,350.0,350.0,1.0,,,,,,,,,magenta,square
0.0,4.0,4.0,0.0,5.0,5.0,475.7294349838048,6.0,1.0,phase_2,go,350.0,350.0,1.0,,,,,,,,,yellow,hexagon
0.0,4.0,4.0,0.0,5.0,5.0,283.2045669201761,6.0,1.0,phase_2,go,350.0,350.0,1.0,,,,,,,,,yellow,hexagon
0.0,7.0,2.0,1.0,6.0,6.0,537.5811450649053,6.0,1.0,phase_2,stop,350.0,350.0,3.0,,,,,,,,,white,cross
0.0,1.0,0.5,0.0,5.0,5.0,376.8758210353553,6.0,1.0,phase_2,go,350.0,300.0,1.0,,,,,,,,,magenta,square
0.0,6.0,1.0,1.0,5.0,5.0,609.1682659462094,6.0,1.0,phase_2,go,350.0,300.0,1.0,,,,,,,,,gray,flipped triangle
0.0,8.0,4.0,1.0,5.0,5.0,702.9234049841762,6.0,1.0,phase_2,go,350.0,300.0,1.0,,,,,,,,,blue,diamond
0.0,8.0,4.0,1.0,6.0,6.0,354.3775170110166,6.0,1.0,phase_2,stop,350.0,300.0,3.0,,,,,,,,,blue,diamond
0.0,4.0,4.0,0.0,6.0,6.0,584.0538509655744,6.0,1.0,phase_2,go,350.0,250.0,1.0,,,,,,,,,yellow,hexagon
0.0,1.0,0.5,0.0,6.0,6.0,409.6447171177715,6.0,1.0,phase_2,go,350.0,250.0,1.0,,,,,,,,,magenta,square
0.0,4.0,4.0,0.0,5.0,5.0,461.8398700840771,6.0,1.0,phase_2,go,350.0,250.0,1.0,,,,,,,,,yellow,hexagon
0.0,2.0,1.0,0.0,6.0,6.0,287.5989519525319,6.0,1.0,phase_2,go,350.0,250.0,1.0,,,,,,,,,orange,triangle
0.0,4.0,4.0,0.0,5.0,5.0,540.2157139033079,6.0,1.0,phase_2,go,350.0,250.0,1.0,,,,,,,,,yellow,hexagon
0.0,5.0,0.5,1.0,5.0,5.0,322.9679169598967,6.0,1.0,phase_2,stop,350.0,250.0,3.0,,,,,,,,,cyan,I
0.0,2.0,1.0,0.0,5.0,5.0,580.7536139618605,6.0,1.0,phase_2,go,300.0,250.0,1.0,,,,,,,,,orange,triangle
0.0,7.0,2.0,1.0,5.0,5.0,522.6226660888642,6.0,1.0,phase_2,go,300.0,250.0,1.0,,,,,,,,,white,cross
0.0,8.0,4.0,1.0,6.0,0.0,0.0,6.0,1.0,phase_2,stop,300.0,250.0,4.0,,,,,,,,,blue,diamond
0.0,7.0,2.0,1.0,5.0,5.0,452.3557610809803,6.0,1.0,phase_2,stop,300.0,300.0,3.0,,,,,,,,,white,cross
0.0,5.0,0.5,1.0,5.0,5.0,696.1153009906411,6.0,1.0,phase_2,go,250.0,300.0,1.0,,,,,,,,,cyan,I
0.0,6.0,1.0,1.0,6.0,0.0,0.0,6.0,1.0,phase_2,stop,250.0,300.0,4.0,,,,,,,,,gray,flipped triangle
0.0,2.0,1.0,0.0,6.0,6.0,623.9098680671304,6.0,1.0,phase_2,go,250.0,350.0,1.0,,,,,,,,,orange,triangle
0.0,2.0,1.0,0.0,5.0,5.0,586.5352940745652,6.0,1.0,phase_2,go,250.0,350.0,1.0,,,,,,,,,orange,triangle
0.0,8.0,4.0,1.0,5.0,0.0,0.0,6.0,1.0,phase_2,stop,250.0,350.0,4.0,,,,,,,,,blue,diamond
0.0,3.0,2.0,0.0,6.0,6.0,679.8868880141526,6.0,1.0,phase_2,go,300.0,350.0,1.0,,,,,,,,,green,circle
0.0,5.0,0.5,1.0,6.0,0.0,0.0,6.0,1.0,phase_2,stop,300.0,350.0,4.0,,,,,,,,,cyan,I
0.0,5.0,0.5,1.0,5.0,5.0,750.4666009917855,6.0,1.0,phase_2,stop,300.0,400.0,3.0,,,,,,,,,cyan,I
0.0,6.0,1.0,1.0,6.0,0.0,0.0,6.0,1.0,phase_2,stop,250.0,400.0,4.0,,,,,,,,,gray,flipped triangle
0.0,4.0,4.0,0.0,6.0,6.0,822.9031339287758,6.0,1.0,phase_2,go,250.0,450.0,1.0,,,,,,,,,yellow,hexagon
0.0,1.0,0.5,0.0,6.0,6.0,878.0984380282462,6.0,1.0,phase_2,go,250.0,450.0,1.0,,,,,,,,,magenta,square
0.0,5.0,0.5,1.0,6.0,6.0,778.2045868225396,6.0,1.0,phase_2,go,250.0,450.0,1.0,,,,,,,,,cyan,I
0.0,6.0,1.0,1.0,5.0,5.0,737.6109801698476,6.0,1.0,phase_2,go,250.0,450.0,1.0,,,,,,,,,gray,flipped triangle
0.0,6.0,1.0,1.0,6.0,0.0,0.0,6.0,1.0,phase_2,stop,250.0,450.0,4.0,,,,,,,,,gray,flipped triangle
0.0,7.0,2.0,1.0,5.0,0.0,0.0,6.0,1.0,phase_2,stop,250.0,500.0,4.0,,,,,,,,,white,cross
0.0,6.0,1.0,1.0,5.0,5.0,652.3120040073991,6.0,1.0,phase_2,go,300.0,500.0,1.0,,,,,,,,,gray,flipped triangle
0.0,8.0,4.0,1.0,6.0,6.0,723.0649208649993,6.0,1.0,phase_2,go,300.0,500.0,1.0,,,,,,,,,blue,diamond
0.0,4.0,4.0,0.0,5.0,5.0,785.7409520074725,6.0,1.0,phase_2,go,300.0,500.0,1.0,,,,,,,,,yellow,hexagon
0.0,3.0,2.0,0.0,5.0,5.0,759.8106181249022,6.0,1.0,phase_2,go,300.0,500.0,1.0,,,,,,,,,green,circle
0.0,8.0,4.0,1.0,6.0,6.0,613.5007899720222,7.0,1.0,phase_2,stop,300.0,500.0,3.0,,,,,,,,,blue,diamond
0.0,4.0,4.0,0.0,6.0,6.0,622.948442818597,7.0,1.0,phase_2,go,300.0,450.0,1.0,,,,,,,,,yellow,hexagon
0.0,5.0,0.5,1.0,5.0,5.0,350.2539601176977,7.0,1.0,phase_2,stop,300.0,450.0,3.0,,,,,,,,,cyan,I
0.0,5.0,0.5,1.0,6.0,6.0,571.2978281080723,7.0,1.0,phase_2,stop,250.0,450.0,3.0,,,,,,,,,cyan,I
0.0,7.0,2.0,1.0,6.0,0.0,0.0,7.0,1.0,phase_2,stop,250.0,400.0,4.0,,,,,,,,,white,cross
0.0,4.0,4.0,0.0,5.0,5.0,627.5469111278653,7.0,1.0,phase_2,go,250.0,450.0,1.0,,,,,,,,,yellow,hexagon
0.0,3.0,2.0,0.0,6.0,6.0,675.8802959229797,7.0,1.0,phase_2,go,250.0,450.0,1.0,,,,,,,,,green,circle
0.0,8.0,4.0,1.0,5.0,0.0,0.0,7.0,1.0,phase_2,stop,250.0,450.0,4.0,,,,,,,,,blue,diamond
0.0,5.0,0.5,1.0,5.0,5.0,737.5130369327962,7.0,1.0,phase_2,go,300.0,450.0,1.0,,,,,,,,,cyan,I
0.0,5.0,0.5,1.0,5.0,0.0,0.0,7.0,1.0,phase_2,stop,300.0,450.0,4.0,,,,,,,,,cyan,I
0.0,5.0,0.5,1.0,6.0,0.0,0.0,7.0,1.0,phase_2,stop,350.0,450.0,4.0,,,,,,,,,cyan,I
0.0,2.0,1.0,0.0,5.0,5.0,817.824289901182,7.0,1.0,phase_2,go,350.0,500.0,1.0,,,,,,,,,orange,triangle
0.0,2.0,1.0,0.0,6.0,6.0,751.0704689193517,7.0,1.0,phase_2,go,350.0,500.0,1.0,,,,,,,,,orange,triangle
0.0,5.0,0.5,1.0,6.0,6.0,661.7301469668746,7.0,1.0,phase_2,stop,350.0,500.0,3.0,,,,,,,,,cyan,I
0.0,3.0,2.0,0.0,6.0,6.0,894.0716590732336,7.0,1.0,phase_2,go,350.0,450.0,1.0,,,,,,,,,green,circle
0.0,7.0,2.0,1.0,6.0,6.0,800.6433709524572,7.0,1.0,phase_2,go,350.0,450.0,1.0,,,,,,,,,white,cross
0.0,1.0,0.5,0.0,6.0,6.0,764.421310974285,7.0,1.0,phase_2,go,350.0,450.0,1.0,,,,,,,,,magenta,square
0.0,3.0,2.0,0.0,5.0,5.0,749.9187800567597,7.0,1.0,phase_2,go,350.0,450.0,1.0,,,,,,,,,green,circle
0.0,7.0,2.0,1.0,6.0,6.0,532.8973790165037,7.0,1.0,phase_2,stop,350.0,450.0,3.0,,,,,,,,,white,cross
0.0,3.0,2.0,0.0,5.0,5.0,867.4956748727709,7.0,1.0,phase_2,go,350.0,400.0,1.0,,,,,,,,,green,circle
0.0,5.0,0.5,1.0,5.0,0.0,0.0,7.0,1.0,phase_2,stop,350.0,400.0,4.0,,,,,,,,,cyan,I
0.0,1.0,0.5,0.0,5.0,5.0,579.575315117836,7.0,1.0,phase_2,go,400.0,400.0,1.0,,,,,,,,,magenta,square
0.0,8.0,4.0,1.0,5.0,5.0,715.2826290111989,7.0,1.0,phase_2,go,400.0,400.0,1.0,,,,,,,,,blue,diamond
0.0,8.0,4.0,1.0,5.0,5.0,792.4868050031364,7.0,1.0,phase_2,go,400.0,400.0,1.0,,,,,,,,,blue,diamond
0.0,1.0,0.5,0.0,6.0,6.0,338.6663268320262,7.0,1.0,phase_2,go,400.0,400.0,1.0,,,,,,,,,magenta,square
0.0,1.0,0.5,0.0,5.0,5.0,369.5538348983973,7.0,1.0,phase_2,go,400.0,400.0,1.0,,,,,,,,,magenta,square
0.0,5.0,0.5,1.0,6.0,6.0,370.0152470264584,7.0,1.0,phase_2,go,400.0,400.0,1.0,,,,,,,,,cyan,I
0.0,3.0,2.0,0.0,5.0,5.0,344.9186931829899,7.0,1.0,phase_2,go,400.0,400.0,1.0,,,,,,,,,green,circle
0.0,6.0,1.0,1.0,5.0,5.0,392.8272111807018,7.0,1.0,phase_2,stop,400.0,400.0,3.0,,,,,,,,,gray,flipped triangle
0.0,7.0,2.0,1.0,6.0,6.0,340.8915859181434,7.0,1.0,phase_2,go,350.0,400.0,1.0,,,,,,,,,white,cross
0.0,1.0,0.5,0.0,5.0,5.0,365.2193360030651,7.0,1.0,phase_2,go,350.0,400.0,1.0,,,,,,,,,magenta,square
0.0,1.0,0.5,0.0,5.0,5.0,508.8603738695383,7.0,1.0,phase_2,go,350.0,400.0,1.0,,,,,,,,,magenta,square
0.0,4.0,4.0,0.0,6.0,6.0,343.1644327938556,7.0,1.0,phase_2,go,350.0,400.0,1.0,,,,,,,,,yellow,hexagon
0.0,2.0,1.0,0.0,6.0,6.0,675.6088440306485,7.0,1.0,phase_2,go,350.0,400.0,1.0,,,,,,,,,orange,triangle
0.0,1.0,0.5,0.0,5.0,5.0,611.2667750567198,7.0,1.0,phase_2,go,350.0,400.0,1.0,,,,,,,,,magenta,square
0.0,7.0,2.0,1.0,6.0,0.0,0.0,7.0,1.0,phase_2,stop,350.0,400.0,4.0,,,,,,,,,white,cross
0.0,6.0,1.0,1.0,5.0,0.0,0.0,8.0,1.0,phase_2,stop,350.0,450.0,4.0,,,,,,,,,gray,flipped triangle
0.0,8.0,4.0,1.0,5.0,0.0,0.0,8.0,1.0,phase_2,stop,400.0,450.0,4.0,,,,,,,,,blue,diamond
0.0,2.0,1.0,0.0,5.0,5.0,838.2659510243684,8.0,1.0,phase_2,go,450.0,450.0,1.0,,,,,,,,,orange,triangle
0.0,7.0,2.0,1.0,5.0,5.0,503.2125518191606,8.0,1.0,phase_2,go,450.0,450.0,1.0,,,,,,,,,white,cross
0.0,4.0,4.0,0.0,6.0,6.0,320.0635288376361,8.0,1.0,phase_2,go,450.0,450.0,1.0,,,,,,,,,yellow,hexagon
0.0,1.0,0.5,0.0,6.0,6.0,438.9774710871279,8.0,1.0,phase_2,go,450.0,450.0,1.0,,,,,,,,,magenta,square
0.0,7.0,2.0,1.0,5.0,5.0,431.2115679495036,8.0,1.0,phase_2,stop,450.0,450.0,3.0,,,,,,,,,white,cross
0.0,3.0,2.0,0.0,6.0,6.0,422.1087570767849,8.0,1.0,phase_2,go,400.0,450.0,1.0,,,,,,,,,green,circle
0.0,5.0,0.5,1.0,6.0,6.0,565.8955660182983,8.0,1.0,phase_2,stop,400.0,450.0,3.0,,,,,,,,,cyan,I
0.0,6.0,1.0,1.0,5.0,0.0,0.0,8.0,1.0,phase_2,stop,400.0,400.0,4.0,,,,,,,,,gray,flipped triangle
0.0,3.0,2.0,0.0,5.0,5.0,610.6363709550351,8.0,1.0,phase_2,go,450.0,400.0,1.0,,,,,,,,,green,circle
0.0,6.0,1.0,1.0,5.0,5.0,604.7597990836948,8.0,1.0,phase_2,stop,450.0,400.0,3.0,,,,,,,,,gray,flipped triangle
0.0,5.0,0.5,1.0,6.0,0.0,0.0,8.0,1.0,phase_2,stop,400.0,400.0,4.0,,,,,,,,,cyan,I
0.0,2.0,1.0,0.0,5.0,5.0,600.9850569535047,8.0,1.0,phase_2,go,400.0,450.0,1.0,,,,,,,,,orange,triangle
0.0,4.0,4.0,0.0,6.0,6.0,543.3231869246811,8.0,1.0,phase_2,go,400.0,450.0,1.0,,,,,,,,,yellow,hexagon
0.0,3.0,2.0,0.0,6.0,6.0,640.834626974538,8.0,1.0,phase_2,go,400.0,450.0,1.0,,,,,,,,,green,circle
0.0,5.0,0.5,1.0,5.0,0.0,0.0,8.0,1.0,phase_2,stop,400.0,450.0,4.0,,,,,,,,,cyan,I
0.0,7.0,2.0,1.0,6.0,6.0,527.9342310968786,8.0,1.0,phase_2,stop,450.0,450.0,3.0,,,,,,,,,white,cross
0.0,1.0,0.5,0.0,5.0,5.0,606.3331870827824,8.0,1.0,phase_2,go,450.0,400.0,1.0,,,,,,,,,magenta,square
0.0,5.0,0.5,1.0,5.0,0.0,0.0,8.0,1.0,phase_2,stop,450.0,400.0,4.0,,,,,,,,,cyan,I
0.0,2.0,1.0,0.0,6.0,6.0,684.4722831156105,8.0,1.0,phase_2,go,500.0,400.0,1.0,,,,,,,,,orange,triangle
0.0,5.0,0.5,1.0,6.0,0.0,0.0,8.0,1.0,phase_2,stop,500.0,400.0,4.0,,,,,,,,,cyan,I
0.0,1.0,0.5,0.0,6.0,6.0,822.1737949643284,8.0,1.0,phase_2,go,500.0,450.0,1.0,,,,,,,,,magenta,square
0.0,6.0,1.0,1.0,5.0,5.0,797.2539952024817,8.0,1.0,phase_2,go,500.0,450.0,1.0,,,,,,,,,gray,flipped triangle
0.0,2.0,1.0,0.0,5.0,5.0,514.5298519637436,8.0,1.0,phase_2,go,500.0,450.0,1.0,,,,,,,,,orange,triangle
0.0,4.0,4.0,0.0,6.0,6.0,593.8293868675828,8.0,1.0,phase_2,go,500.0,450.0,1.0,,,,,,,,,yellow,hexagon
0.0,8.0,4.0,1.0,6.0,0.0,0.0,8.0,1.0,phase_2,stop,500.0,450.0,4.0,,,,,,,,,blue,diamond
0.0,5.0,0.5,1.0,5.0,5.0,667.7187727764249,8.0,1.0,phase_2,stop,500.0,500.0,3.0,,,,,,,,,cyan,I
0.0,1.0,0.5,0.0,5.0,5.0,674.2658028379083,8.0,1.0,phase_2,go,450.0,500.0,1.0,,,,,,,,,magenta,square
0.0,5.0,0.5,1.0,5.0,5.0,666.0547589417547,8.0,1.0,phase_2,go,450.0,500.0,1.0,,,,,,,,,cyan,I
0.0,5.0,0.5,1.0,6.0,6.0,606.5897620283067,8.0,1.0,phase_2,stop,450.0,500.0,3.0,,,,,,,,,cyan,I
0.0,6.0,1.0,1.0,5.0,0.0,0.0,8.0,1.0,phase_2,stop,450.0,450.0,4.0,,,,,,,,,gray,flipped triangle
0.0,8.0,4.0,1.0,6.0,0.0,0.0,8.0,1.0,phase_2,stop,500.0,450.0,4.0,,,,,,,,,blue,diamond
0.0,2.0,1.0,0.0,6.0,6.0,496.2692640256136,8.0,1.0,phase_2,go,500.0,500.0,1.0,,,,,,,,,orange,triangle
0.0,3.0,2.0,0.0,5.0,5.0,684.8636171780527,8.0,1.0,phase_2,go,500.0,500.0,1.0,,,,,,,,,green,circle
0.0,7.0,2.0,1.0,6.0,6.0,781.920175999403,8.0,1.0,phase_2,go,500.0,500.0,1.0,,,,,,,,,white,cross
0.0,1.0,0.5,0.0,7.0,6.0,3520.8690050058067,1.0,2.0,phase_3,,,,,54.0,1.0,324.0,162.0,216.0,108.0,270.0,54.0,magenta,square
0.0,8.0,4.0,1.0,7.0,1.0,3554.672003956512,1.0,1.0,phase_3,,,,,234.0,6.0,234.0,117.0,156.0,195.0,78.0,39.0,blue,diamond
0.0,1.0,0.5,0.0,7.0,3.0,2362.5748651102185,1.0,1.0,phase_3,,,,,245.0,5.0,294.0,98.0,245.0,196.0,49.0,147.0,magenta,square
0.0,3.0,2.0,0.0,7.0,1.0,900.8113509044052,1.0,1.0,phase_3,,,,,245.0,5.0,245.0,98.0,196.0,147.0,49.0,294.0,green,circle
0.0,6.0,1.0,1.0,7.0,2.0,2806.734950048849,1.0,1.0,phase_3,,,,,220.0,5.0,132.0,220.0,264.0,88.0,44.0,176.0,gray,flipped triangle
0.0,8.0,4.0,1.0,7.0,5.0,1480.0694789737463,1.0,1.0,phase_3,,,,,98.0,2.0,49.0,196.0,147.0,294.0,98.0,245.0,blue,diamond
0.0,5.0,0.5,1.0,7.0,6.0,2802.309181075543,1.0,1.0,phase_3,,,,,196.0,4.0,294.0,98.0,245.0,147.0,49.0,196.0,cyan,I
0.0,1.0,0.5,0.0,7.0,1.0,867.1724679879844,1.0,1.0,phase_3,,,,,132.0,3.0,132.0,176.0,44.0,264.0,220.0,88.0,magenta,square
0.0,3.0,2.0,0.0,7.0,4.0,1402.2908341139555,1.0,1.0,phase_3,,,,,270.0,5.0,54.0,162.0,108.0,270.0,216.0,324.0,green,circle
0.0,2.0,1.0,0.0,7.0,1.0,2651.6491018701345,1.0,1.0,phase_3,,,,,34.0,1.0,34.0,68.0,170.0,136.0,102.0,204.0,orange,triangle
0.0,8.0,4.0,1.0,7.0,3.0,1644.8414400219915,1.0,1.0,phase_3,,,,,270.0,5.0,216.0,324.0,270.0,108.0,162.0,54.0,blue,diamond
0.0,5.0,0.5,1.0,7.0,5.0,1792.5868981983513,1.0,1.0,phase_3,,,,,216.0,4.0,324.0,54.0,108.0,162.0,216.0,270.0,cyan,I
0.0,1.0,0.5,0.0,7.0,2.0,1778.1916169915348,1.0,1.0,phase_3,,,,,132.0,3.0,88.0,132.0,264.0,176.0,44.0,220.0,magenta,square
0.0,8.0,4.0,1.0,7.0,4.0,2571.764881024137,1.0,1.0,phase_3,,,,,196.0,4.0,49.0,294.0,245.0,196.0,147.0,98.0,blue,diamond
0.0,2.0,1.0,0.0,7.0,1.0,2299.420295050368,1.0,1.0,phase_3,,,,,195.0,5.0,195.0,234.0,117.0,78.0,156.0,39.0,orange,triangle
0.0,7.0,2.0,1.0,7.0,1.0,2534.6557311713696,1.0,1.0,phase_3,,,,,49.0,1.0,49.0,196.0,245.0,294.0,147.0,98.0,white,cross
0.0,3.0,2.0,0.0,7.0,6.0,960.1752299349756,1.0,1.0,phase_3,,,,,98.0,2.0,147.0,294.0,49.0,196.0,245.0,98.0,green,circle
0.0,1.0,0.5,0.0,7.0,4.0,2177.4440240114927,1.0,1.0,phase_3,,,,,136.0,4.0,34.0,170.0,68.0,136.0,102.0,204.0,magenta,square
0.0,7.0,2.0,1.0,7.0,1.0,632.7708100434393,1.0,1.0,phase_3,,,,,220.0,5.0,220.0,176.0,132.0,264.0,44.0,88.0,white,cross
0.0,1.0,0.5,0.0,7.0,1.0,1203.4170848783106,1.0,1.0,phase_3,,,,,234.0,6.0,234.0,156.0,195.0,117.0,78.0,39.0,magenta,square
0.0,5.0,0.5,1.0,7.0,5.0,1003.5869861021638,2.0,1.0,phase_3,,,,,88.0,2.0,264.0,176.0,132.0,44.0,88.0,220.0,cyan,I
0.0,4.0,4.0,0.0,7.0,2.0,597.5980928633362,2.0,1.0,phase_3,,,,,220.0,5.0,132.0,220.0,176.0,44.0,264.0,88.0,yellow,hexagon
0.0,7.0,2.0,1.0,7.0,5.0,268.8260588329285,2.0,1.0,phase_3,,,,,216.0,4.0,162.0,108.0,324.0,270.0,216.0,54.0,white,cross
0.0,4.0,4.0,0.0,7.0,2.0,265.1452550198883,2.0,1.0,phase_3,,,,,39.0,1.0,156.0,39.0,117.0,234.0,78.0,195.0,yellow,hexagon
0.0,4.0,4.0,0.0,7.0,3.0,263.1382141262293,2.0,1.0,phase_3,,,,,78.0,2.0,195.0,234.0,78.0,39.0,117.0,156.0,yellow,hexagon
0.0,4.0,4.0,0.0,7.0,1.0,0.1773638650774,2.0,1.0,phase_3,,,,,136.0,4.0,136.0,68.0,102.0,34.0,170.0,204.0,yellow,hexagon
0.0,6.0,1.0,1.0,7.0,5.0,0.1802369952201,2.0,1.0,phase_3,,,,,195.0,5.0,234.0,39.0,78.0,117.0,195.0,156.0,gray,flipped triangle
0.0,6.0,1.0,1.0,7.0,5.0,85.3084907867014,2.0,1.0,phase_3,,,,,216.0,4.0,324.0,108.0,162.0,270.0,216.0,54.0,gray,flipped triangle
0.0,4.0,4.0,0.0,7.0,2.0,341.2260909099132,2.0,1.0,phase_3,,,,,220.0,5.0,264.0,220.0,132.0,44.0,176.0,88.0,yellow,hexagon
0.0,7.0,2.0,1.0,7.0,6.0,759.7652149852365,2.0,1.0,phase_3,,,,,220.0,5.0,176.0,88.0,44.0,264.0,132.0,220.0,white,cross
0.0,4.0,4.0,0.0,7.0,1.0,339.5310610067099,2.0,1.0,phase_3,,,,,147.0,3.0,147.0,196.0,294.0,98.0,49.0,245.0,yellow,hexagon
0.0,7.0,2.0,1.0,7.0,2.0,336.7933840490877,2.0,1.0,phase_3,,,,,216.0,4.0,54.0,216.0,270.0,108.0,162.0,324.0,white,cross
0.0,1.0,0.5,0.0,7.0,5.0,331.8593190051615,2.0,1.0,phase_3,,,,,294.0,6.0,49.0,196.0,98.0,245.0,294.0,147.0,magenta,square
0.0,8.0,4.0,1.0,7.0,1.0,268.490388058126,2.0,1.0,phase_3,,,,,132.0,3.0,132.0,176.0,264.0,44.0,220.0,88.0,blue,diamond
0.0,5.0,0.5,1.0,7.0,6.0,198.6462420318275,2.0,1.0,phase_3,,,,,156.0,4.0,195.0,78.0,117.0,234.0,39.0,156.0,cyan,I
0.0,5.0,0.5,1.0,7.0,2.0,207.0717271417379,2.0,1.0,phase_3,,,,,324.0,6.0,270.0,324.0,108.0,216.0,54.0,162.0,cyan,I
0.0,5.0,0.5,1.0,7.0,5.0,304.5628392137587,2.0,1.0,phase_3,,,,,234.0,6.0,78.0,195.0,39.0,156.0,234.0,117.0,cyan,I
0.0,1.0,0.5,0.0,7.0,1.0,284.7607980947941,2.0,1.0,phase_3,,,,,204.0,6.0,204.0,136.0,68.0,34.0,102.0,170.0,magenta,square
0.0,8.0,4.0,1.0,7.0,6.0,53.1256739050149,2.0,1.0,phase_3,,,,,204.0,6.0,102.0,136.0,170.0,34.0,68.0,204.0,blue,diamond
0.0,5.0,0.5,1.0,7.0,3.0,309.2114049941301,2.0,1.0,phase_3,,,,,170.0,5.0,204.0,34.0,170.0,136.0,68.0,102.0,cyan,I
0.0,2.0,1.0,0.0,7.0,5.0,325.2809059340507,3.0,1.0,phase_3,,,,,44.0,1.0,132.0,88.0,264.0,176.0,44.0,220.0,orange,triangle
0.0,8.0,4.0,1.0,7.0,4.0,240.33564212732009,3.0,1.0,phase_3,,,,,324.0,6.0,216.0,54.0,108.0,324.0,162.0,270.0,blue,diamond
0.0,2.0,1.0,0.0,7.0,1.0,297.0831270795315,3.0,1.0,phase_3,,,,,270.0,5.0,270.0,162.0,54.0,324.0,108.0,216.0,orange,triangle
0.0,5.0,0.5,1.0,7.0,6.0,419.0048531163484,3.0,1.0,phase_3,,,,,220.0,5.0,132.0,264.0,176.0,44.0,88.0,220.0,cyan,I
0.0,3.0,2.0,0.0,7.0,5.0,349.7533050831407,3.0,1.0,phase_3,,,,,204.0,6.0,170.0,102.0,136.0,34.0,204.0,68.0,green,circle
0.0,1.0,0.5,0.0,7.0,1.0,222.9735779110342,3.0,1.0,phase_3,,,,,108.0,2.0,108.0,324.0,162.0,54.0,216.0,270.0,magenta,square
0.0,5.0,0.5,1.0,7.0,1.0,232.9812829848379,3.0,1.0,phase_3,,,,,147.0,3.0,147.0,294.0,98.0,245.0,49.0,196.0,cyan,I
0.0,2.0,1.0,0.0,7.0,6.0,257.8839960042387,3.0,1.0,phase_3,,,,,68.0,2.0,34.0,102.0,204.0,170.0,136.0,68.0,orange,triangle
0.0,6.0,1.0,1.0,7.0,3.0,219.4256868679076,3.0,1.0,phase_3,,,,,68.0,2.0,170.0,102.0,68.0,34.0,204.0,136.0,gray,flipped triangle
0.0,4.0,4.0,0.0,7.0,1.0,268.4610930737108,3.0,1.0,phase_3,,,,,54.0,1.0,54.0,162.0,108.0,216.0,324.0,270.0,yellow,hexagon
0.0,2.0,1.0,0.0,7.0,6.0,310.3222199715674,3.0,1.0,phase_3,,,,,176.0,4.0,132.0,220.0,88.0,44.0,264.0,176.0,orange,triangle
0.0,2.0,1.0,0.0,7.0,5.0,1108.9512850157917,3.0,1.0,phase_3,,,,,216.0,4.0,108.0,54.0,324.0,270.0,216.0,162.0,orange,triangle
0.0,3.0,2.0,0.0,7.0,2.0,734.5637150574476,3.0,1.0,phase_3,,,,,156.0,4.0,234.0,156.0,117.0,195.0,39.0,78.0,green,circle
0.0,8.0,4.0,1.0,7.0,6.0,513.9977328944951,3.0,1.0,phase_3,,,,,176.0,4.0,132.0,88.0,264.0,44.0,220.0,176.0,blue,diamond
0.0,3.0,2.0,0.0,7.0,1.0,250.79128914512688,3.0,1.0,phase_3,,,,,264.0,6.0,264.0,88.0,220.0,44.0,132.0,176.0,green,circle
0.0,6.0,1.0,1.0,7.0,6.0,36.973743000999,3.0,1.0,phase_3,,,,,147.0,3.0,294.0,245.0,196.0,98.0,49.0,147.0,gray,flipped triangle
0.0,2.0,1.0,0.0,7.0,5.0,98.8810469862073,3.0,1.0,phase_3,,,,,147.0,3.0,245.0,49.0,294.0,98.0,147.0,196.0,orange,triangle
0.0,7.0,2.0,1.0,7.0,1.0,278.4148210193962,3.0,1.0,phase_3,,,,,117.0,3.0,117.0,234.0,195.0,39.0,78.0,156.0,white,cross
0.0,8.0,4.0,1.0,7.0,6.0,310.0254330784082,3.0,1.0,phase_3,,,,,234.0,6.0,78.0,195.0,39.0,117.0,156.0,234.0,blue,diamond
0.0,6.0,1.0,1.0,7.0,4.0,263.8919570017606,3.0,1.0,phase_3,,,,,102.0,3.0,170.0,34.0,68.0,102.0,136.0,204.0,gray,flipped triangle
0.0,7.0,2.0,1.0,7.0,6.0,170.5586418975144,4.0,1.0,phase_3,,,,,34.0,1.0,68.0,170.0,102.0,204.0,136.0,34.0,white,cross
0.0,7.0,2.0,1.0,7.0,1.0,685.095023130998,4.0,1.0,phase_3,,,,,245.0,5.0,245.0,147.0,294.0,196.0,49.0,98.0,white,cross
0.0,3.0,2.0,0.0,7.0,3.0,203.77430296503,4.0,1.0,phase_3,,,,,234.0,6.0,39.0,78.0,234.0,117.0,195.0,156.0,green,circle
0.0,6.0,1.0,1.0,7.0,2.0,240.8928470686078,4.0,1.0,phase_3,,,,,220.0,5.0,44.0,220.0,132.0,264.0,176.0,88.0,gray,flipped triangle
0.0,6.0,1.0,1.0,7.0,6.0,215.3503790032118,4.0,1.0,phase_3,,,,,195.0,5.0,117.0,156.0,78.0,39.0,234.0,195.0,gray,flipped triangle
0.0,3.0,2.0,0.0,7.0,5.0,240.3632481582462,4.0,1.0,phase_3,,,,,132.0,3.0,264.0,88.0,220.0,176.0,132.0,44.0,green,circle
0.0,8.0,4.0,1.0,7.0,2.0,292.5899471156299,4.0,1.0,phase_3,,,,,204.0,6.0,136.0,204.0,68.0,34.0,170.0,102.0,blue,diamond
0.0,5.0,0.5,1.0,7.0,1.0,370.8144959527999,4.0,1.0,phase_3,,,,,34.0,1.0,34.0,68.0,136.0,204.0,102.0,170.0,cyan,I
0.0,3.0,2.0,0.0,7.0,5.0,309.5961359795183,4.0,1.0,phase_3,,,,,136.0,4.0,68.0,170.0,102.0,34.0,136.0,204.0,green,circle
0.0,4.0,4.0,0.0,7.0,2.0,121.54451012611379,4.0,1.0,phase_3,,,,,204.0,6.0,34.0,204.0,136.0,102.0,68.0,170.0,yellow,hexagon
0.0,2.0,1.0,0.0,7.0,6.0,313.3017381187528,4.0,1.0,phase_3,,,,,234.0,6.0,195.0,156.0,117.0,78.0,39.0,234.0,orange,triangle
0.0,6.0,1.0,1.0,7.0,1.0,386.2361731007695,4.0,1.0,phase_3,,,,,49.0,1.0,49.0,294.0,245.0,196.0,98.0,147.0,gray,flipped triangle
0.0,7.0,2.0,1.0,7.0,6.0,387.8180629108101,4.0,1.0,phase_3,,,,,78.0,2.0,39.0,195.0,117.0,234.0,156.0,78.0,white,cross
0.0,7.0,2.0,1.0,7.0,6.0,202.6396559085697,4.0,1.0,phase_3,,,,,204.0,6.0,68.0,136.0,170.0,102.0,34.0,204.0,white,cross
0.0,1.0,0.5,0.0,7.0,6.0,308.8260998483747,4.0,1.0,phase_3,,,,,156.0,4.0,117.0,234.0,195.0,39.0,78.0,156.0,magenta,square
0.0,4.0,4.0,0.0,7.0,2.0,264.4404610618949,4.0,1.0,phase_3,,,,,49.0,1.0,245.0,49.0,294.0,147.0,196.0,98.0,yellow,hexagon
0.0,6.0,1.0,1.0,7.0,4.0,487.3303677886724,4.0,1.0,phase_3,,,,,216.0,4.0,324.0,54.0,108.0,216.0,270.0,162.0,gray,flipped triangle
0.0,2.0,1.0,0.0,7.0,1.0,0.18947408534580001,4.0,1.0,phase_3,,,,,294.0,6.0,294.0,147.0,49.0,245.0,98.0,196.0,orange,triangle
0.0,4.0,4.0,0.0,7.0,6.0,322.048129979521,4.0,1.0,phase_3,,,,,324.0,6.0,162.0,54.0,108.0,270.0,216.0,324.0,yellow,hexagon
0.0,3.0,2.0,0.0,7.0,2.0,341.9402509462088,4.0,1.0,phase_3,,,,,108.0,2.0,216.0,108.0,162.0,270.0,54.0,324.0,green,circle
