raw_reward_magnitude,stim_reward,stepwise_reward_magnitude,paired_with_stopping,stim_location,response,reaction_time,block,num_trial_presentations,which_phase,stop_signal_trial_type,left_SSD,right_SSD,accuracy,chosen_bidding_amount,chosen_bidding_level,possible_bid_1,possible_bid_2,possible_bid_3,possible_bid_4,possible_bid_5,possible_bid_6,color_text,shape_text
0.0,3.0,0.0,0.0,4.0,4.0,329.8750109970569,1.0,1.0,phase_1,,,,,,,,,,,,,magenta,flipped triangle
99.0,2.0,2.0,0.0,1.0,1.0,448.434546822682,1.0,1.0,phase_1,,,,,,,,,,,,,yellow,triangle
391.0,8.0,4.0,1.0,3.0,3.0,483.4019897971302,1.0,1.0,phase_1,,,,,,,,,,,,,blue,cross
99.0,2.0,2.0,0.0,3.0,3.0,327.144251903519,1.0,1.0,phase_1,,,,,,,,,,,,,yellow,triangle
61.0,5.0,1.0,1.0,4.0,4.0,314.9239849299192,1.0,1.0,phase_1,,,,,,,,,,,,,orange,circle
27.0,1.0,1.0,0.0,1.0,1.0,280.3180757910013,1.0,1.0,phase_1,,,,,,,,,,,,,green,diamond
59.0,1.0,1.0,0.0,3.0,3.0,335.0926209241152,1.0,1.0,phase_1,,,,,,,,,,,,,green,diamond
73.0,1.0,1.0,0.0,4.0,4.0,256.9734209682792,1.0,1.0,phase_1,,,,,,,,,,,,,green,diamond
0.0,7.0,0.0,1.0,1.0,1.0,281.497118063271,1.0,1.0,phase_1,,,,,,,,,,,,,gray,square
218.0,7.0,3.0,1.0,2.0,2.0,329.9501780420542,1.0,1.0,phase_1,,,,,,,,,,,,,gray,square
0.0,8.0,0.0,1.0,4.0,4.0,281.0226997826248,1.0,1.0,phase_1,,,,,,,,,,,,,blue,cross
411.0,8.0,4.0,1.0,1.0,1.0,294.1827131435275,1.0,1.0,phase_1,,,,,,,,,,,,,blue,cross
53.0,1.0,1.0,0.0,4.0,4.0,304.4402189552784,1.0,1.0,phase_1,,,,,,,,,,,,,green,diamond
27.0,5.0,1.0,1.0,1.0,1.0,344.0085870679468,1.0,1.0,phase_1,,,,,,,,,,,,,orange,circle
0.0,5.0,0.0,1.0,1.0,1.0,324.614203069359,1.0,1.0,phase_1,,,,,,,,,,,,,orange,circle
188.0,7.0,3.0,1.0,1.0,1.0,344.2527400329709,1.0,1.0,phase_1,,,,,,,,,,,,,gray,square
0.0,5.0,0.0,1.0,3.0,3.0,342.0527589041739,1.0,1.0,phase_1,,,,,,,,,,,,,orange,circle
96.0,6.0,2.0,1.0,4.0,4.0,352.590279886499,1.0,1.0,phase_1,,,,,,,,,,,,,white,I
62.0,5.0,1.0,1.0,4.0,4.0,300.0954361632466,1.0,1.0,phase_1,,,,,,,,,,,,,orange,circle
36.0,1.0,1.0,0.0,3.0,3.0,289.1626541968435,1.0,1.0,phase_1,,,,,,,,,,,,,green,diamond
211.0,3.0,3.0,0.0,4.0,4.0,269.8366011027246,1.0,1.0,phase_1,,,,,,,,,,,,,magenta,flipped triangle
59.0,5.0,1.0,1.0,4.0,4.0,266.5997589938342,1.0,1.0,phase_1,,,,,,,,,,,,,orange,circle
220.0,3.0,3.0,0.0,2.0,2.0,326.7903798259794,1.0,1.0,phase_1,,,,,,,,,,,,,magenta,flipped triangle
104.0,6.0,2.0,1.0,3.0,3.0,293.4875329956412,1.0,1.0,phase_1,,,,,,,,,,,,,white,I
0.0,1.0,0.0,0.0,4.0,4.0,371.0306219290942,1.0,1.0,phase_1,,,,,,,,,,,,,green,diamond
117.0,6.0,2.0,1.0,1.0,1.0,334.4088478479534,1.0,1.0,phase_1,,,,,,,,,,,,,white,I
26.0,5.0,1.0,1.0,2.0,2.0,322.5902807898819,1.0,1.0,phase_1,,,,,,,,,,,,,orange,circle
0.0,7.0,0.0,1.0,1.0,1.0,375.5290408153087,1.0,1.0,phase_1,,,,,,,,,,,,,gray,square
182.0,7.0,3.0,1.0,2.0,2.0,324.0337700117379,1.0,1.0,phase_1,,,,,,,,,,,,,gray,square
83.0,2.0,2.0,0.0,1.0,1.0,458.142943913117,1.0,1.0,phase_1,,,,,,,,,,,,,yellow,triangle
110.0,6.0,2.0,1.0,2.0,2.0,349.1176948882639,1.0,1.0,phase_1,,,,,,,,,,,,,white,I
207.0,7.0,3.0,1.0,2.0,2.0,347.965660970658,1.0,1.0,phase_1,,,,,,,,,,,,,gray,square
109.0,2.0,2.0,0.0,1.0,1.0,304.6199390664696,1.0,1.0,phase_1,,,,,,,,,,,,,yellow,triangle
79.0,2.0,2.0,0.0,3.0,3.0,316.1972998641431,1.0,1.0,phase_1,,,,,,,,,,,,,yellow,triangle
202.0,3.0,3.0,0.0,2.0,2.0,312.196013983339,1.0,1.0,phase_1,,,,,,,,,,,,,magenta,flipped triangle
0.0,1.0,0.0,0.0,2.0,2.0,276.7999859061092,1.0,1.0,phase_1,,,,,,,,,,,,,green,diamond
378.0,4.0,4.0,0.0,3.0,3.0,337.8729929681867,1.0,1.0,phase_1,,,,,,,,,,,,,cyan,hexagon
46.0,5.0,1.0,1.0,2.0,2.0,296.5209940448403,1.0,1.0,phase_1,,,,,,,,,,,,,orange,circle
203.0,7.0,3.0,1.0,2.0,2.0,332.713422132656,1.0,1.0,phase_1,,,,,,,,,,,,,gray,square
404.0,4.0,4.0,0.0,4.0,4.0,321.8158818781376,1.0,1.0,phase_1,,,,,,,,,,,,,cyan,hexagon
199.0,7.0,3.0,1.0,4.0,4.0,310.5945389252156,1.0,1.0,phase_1,,,,,,,,,,,,,gray,square
81.0,2.0,2.0,0.0,4.0,4.0,320.962033001706,1.0,1.0,phase_1,,,,,,,,,,,,,yellow,triangle
73.0,1.0,1.0,0.0,1.0,1.0,317.1674921177327,1.0,1.0,phase_1,,,,,,,,,,,,,green,diamond
206.0,3.0,3.0,0.0,2.0,2.0,353.6301320418715,1.0,1.0,phase_1,,,,,,,,,,,,,magenta,flipped triangle
0.0,1.0,0.0,0.0,4.0,4.0,354.2612830642611,1.0,1.0,phase_1,,,,,,,,,,,,,green,diamond
81.0,2.0,2.0,0.0,1.0,1.0,349.4439930655062,1.0,1.0,phase_1,,,,,,,,,,,,,yellow,triangle
121.0,6.0,2.0,1.0,2.0,2.0,305.3882790263742,1.0,1.0,phase_1,,,,,,,,,,,,,white,I
176.0,3.0,3.0,0.0,2.0,2.0,342.2872610390186,1.0,1.0,phase_1,,,,,,,,,,,,,magenta,flipped triangle
114.0,2.0,2.0,0.0,4.0,4.0,337.0094450656324,1.0,1.0,phase_1,,,,,,,,,,,,,yellow,triangle
0.0,3.0,0.0,0.0,4.0,4.0,358.2587498240173,1.0,1.0,phase_1,,,,,,,,,,,,,magenta,flipped triangle
45.0,1.0,1.0,0.0,1.0,1.0,309.6914510242641,1.0,1.0,phase_1,,,,,,,,,,,,,green,diamond
0.0,5.0,0.0,1.0,3.0,3.0,264.7671441081911,1.0,1.0,phase_1,,,,,,,,,,,,,orange,circle
0.0,1.0,0.0,0.0,4.0,4.0,349.8089960776269,1.0,1.0,phase_1,,,,,,,,,,,,,green,diamond
403.0,4.0,4.0,0.0,2.0,2.0,267.9351549595594,1.0,1.0,phase_1,,,,,,,,,,,,,cyan,hexagon
418.0,4.0,4.0,0.0,2.0,2.0,303.9930029772222,1.0,1.0,phase_1,,,,,,,,,,,,,cyan,hexagon
0.0,4.0,0.0,0.0,2.0,2.0,297.3890460561961,1.0,1.0,phase_1,,,,,,,,,,,,,cyan,hexagon
78.0,6.0,2.0,1.0,2.0,2.0,334.6171719022095,1.0,1.0,phase_1,,,,,,,,,,,,,white,I
382.0,4.0,4.0,0.0,2.0,2.0,363.1566320545971,1.0,1.0,phase_1,,,,,,,,,,,,,cyan,hexagon
416.0,4.0,4.0,0.0,3.0,3.0,361.156698083505,1.0,1.0,phase_1,,,,,,,,,,,,,cyan,hexagon
41.0,5.0,1.0,1.0,1.0,1.0,324.71215701662,1.0,1.0,phase_1,,,,,,,,,,,,,orange,circle
0.0,7.0,0.0,1.0,1.0,1.0,475.6630701012909,1.0,1.0,phase_1,,,,,,,,,,,,,gray,square
188.0,3.0,3.0,0.0,4.0,4.0,317.8109799046069,1.0,1.0,phase_1,,,,,,,,,,,,,magenta,flipped triangle
103.0,2.0,2.0,0.0,3.0,3.0,299.2500280961394,1.0,1.0,phase_1,,,,,,,,,,,,,yellow,triangle
41.0,1.0,1.0,0.0,2.0,2.0,345.2096479013562,1.0,1.0,phase_1,,,,,,,,,,,,,green,diamond
0.0,4.0,0.0,0.0,2.0,2.0,374.279340961948,1.0,1.0,phase_1,,,,,,,,,,,,,cyan,hexagon
409.0,8.0,4.0,1.0,2.0,2.0,314.104689983651,1.0,1.0,phase_1,,,,,,,,,,,,,blue,cross
404.0,8.0,4.0,1.0,3.0,3.0,327.673853142187,1.0,1.0,phase_1,,,,,,,,,,,,,blue,cross
214.0,7.0,3.0,1.0,2.0,2.0,362.2679240070283,1.0,1.0,phase_1,,,,,,,,,,,,,gray,square
43.0,5.0,1.0,1.0,2.0,2.0,382.5461540836841,1.0,1.0,phase_1,,,,,,,,,,,,,orange,circle
414.0,4.0,4.0,0.0,3.0,3.0,333.9428070466965,1.0,1.0,phase_1,,,,,,,,,,,,,cyan,hexagon
0.0,4.0,0.0,0.0,3.0,3.0,369.5353220682591,1.0,1.0,phase_1,,,,,,,,,,,,,cyan,hexagon
89.0,6.0,2.0,1.0,3.0,3.0,373.5321850981563,1.0,1.0,phase_1,,,,,,,,,,,,,white,I
0.0,4.0,0.0,0.0,3.0,3.0,404.0332408621907,1.0,1.0,phase_1,,,,,,,,,,,,,cyan,hexagon
76.0,2.0,2.0,0.0,4.0,4.0,446.3518839329481,1.0,2.0,phase_1,,,,,,,,,,,,,yellow,triangle
392.0,8.0,4.0,1.0,1.0,1.0,335.6438260525465,1.0,1.0,phase_1,,,,,,,,,,,,,blue,cross
385.0,4.0,4.0,0.0,4.0,4.0,342.9646810982376,1.0,1.0,phase_1,,,,,,,,,,,,,cyan,hexagon
87.0,6.0,2.0,1.0,3.0,3.0,354.3402380309999,1.0,1.0,phase_1,,,,,,,,,,,,,white,I
96.0,2.0,2.0,0.0,2.0,2.0,365.8659420907497,1.0,1.0,phase_1,,,,,,,,,,,,,yellow,triangle
175.0,7.0,3.0,1.0,4.0,4.0,442.4065619241446,1.0,1.0,phase_1,,,,,,,,,,,,,gray,square
218.0,3.0,3.0,0.0,4.0,4.0,335.6507900170982,1.0,1.0,phase_1,,,,,,,,,,,,,magenta,flipped triangle
392.0,4.0,4.0,0.0,3.0,3.0,326.1711718514561,1.0,1.0,phase_1,,,,,,,,,,,,,cyan,hexagon
0.0,2.0,0.0,0.0,3.0,3.0,308.1249541137367,1.0,1.0,phase_1,,,,,,,,,,,,,yellow,triangle
0.0,3.0,0.0,0.0,3.0,3.0,304.7414349857718,1.0,1.0,phase_1,,,,,,,,,,,,,magenta,flipped triangle
399.0,4.0,4.0,0.0,4.0,4.0,381.7306798882782,1.0,1.0,phase_1,,,,,,,,,,,,,cyan,hexagon
58.0,1.0,1.0,0.0,2.0,2.0,339.2563508823514,1.0,2.0,phase_1,,,,,,,,,,,,,green,diamond
196.0,3.0,3.0,0.0,1.0,1.0,368.5944771859795,1.0,1.0,phase_1,,,,,,,,,,,,,magenta,flipped triangle
0.0,7.0,0.0,1.0,4.0,4.0,295.6491340883076,1.0,1.0,phase_1,,,,,,,,,,,,,gray,square
70.0,5.0,1.0,1.0,2.0,2.0,393.5522909741848,1.0,1.0,phase_1,,,,,,,,,,,,,orange,circle
0.0,8.0,0.0,1.0,2.0,2.0,359.3853230122477,1.0,1.0,phase_1,,,,,,,,,,,,,blue,cross
0.0,4.0,0.0,0.0,3.0,3.0,396.4488150086254,1.0,1.0,phase_1,,,,,,,,,,,,,cyan,hexagon
0.0,7.0,0.0,1.0,1.0,1.0,361.0149710439145,1.0,1.0,phase_1,,,,,,,,,,,,,gray,square
380.0,8.0,4.0,1.0,3.0,3.0,332.8468811232596,1.0,1.0,phase_1,,,,,,,,,,,,,blue,cross
190.0,7.0,3.0,1.0,1.0,1.0,466.238017892465,1.0,1.0,phase_1,,,,,,,,,,,,,gray,square
0.0,7.0,0.0,1.0,3.0,3.0,335.957553004846,1.0,1.0,phase_1,,,,,,,,,,,,,gray,square
384.0,4.0,4.0,0.0,4.0,4.0,331.4277599565685,1.0,1.0,phase_1,,,,,,,,,,,,,cyan,hexagon
206.0,7.0,3.0,1.0,4.0,4.0,351.7818208783865,1.0,1.0,phase_1,,,,,,,,,,,,,gray,square
177.0,7.0,3.0,1.0,2.0,2.0,348.7610619049519,1.0,1.0,phase_1,,,,,,,,,,,,,gray,square
109.0,6.0,2.0,1.0,3.0,3.0,343.992886133492,1.0,1.0,phase_1,,,,,,,,,,,,,white,I
0.0,5.0,0.0,1.0,3.0,3.0,357.3951220605522,1.0,1.0,phase_1,,,,,,,,,,,,,orange,circle
177.0,3.0,3.0,0.0,1.0,1.0,369.1825740970671,1.0,1.0,phase_1,,,,,,,,,,,,,magenta,flipped triangle
180.0,3.0,3.0,0.0,3.0,3.0,345.3898741863668,2.0,1.0,phase_1,,,,,,,,,,,,,magenta,flipped triangle
105.0,6.0,2.0,1.0,3.0,3.0,413.4809880051762,2.0,1.0,phase_1,,,,,,,,,,,,,white,I
103.0,6.0,2.0,1.0,4.0,4.0,434.7306829877198,2.0,1.0,phase_1,,,,,,,,,,,,,white,I
67.0,1.0,1.0,0.0,1.0,1.0,342.5602300558239,2.0,1.0,phase_1,,,,,,,,,,,,,green,diamond
391.0,4.0,4.0,0.0,1.0,1.0,385.4066370986402,2.0,1.0,phase_1,,,,,,,,,,,,,cyan,hexagon
403.0,8.0,4.0,1.0,1.0,1.0,446.5007102116942,2.0,1.0,phase_1,,,,,,,,,,,,,blue,cross
206.0,3.0,3.0,0.0,1.0,1.0,442.6487889140844,2.0,1.0,phase_1,,,,,,,,,,,,,magenta,flipped triangle
0.0,3.0,0.0,0.0,3.0,3.0,370.103491935879,2.0,1.0,phase_1,,,,,,,,,,,,,magenta,flipped triangle
182.0,3.0,3.0,0.0,2.0,2.0,379.846507916227,2.0,1.0,phase_1,,,,,,,,,,,,,magenta,flipped triangle
409.0,4.0,4.0,0.0,2.0,2.0,363.5310810059309,2.0,1.0,phase_1,,,,,,,,,,,,,cyan,hexagon
383.0,8.0,4.0,1.0,1.0,1.0,429.1334000881761,2.0,1.0,phase_1,,,,,,,,,,,,,blue,cross
67.0,5.0,1.0,1.0,1.0,1.0,413.6154239531606,2.0,1.0,phase_1,,,,,,,,,,,,,orange,circle
0.0,8.0,0.0,1.0,3.0,3.0,592.6421508193016,2.0,1.0,phase_1,,,,,,,,,,,,,blue,cross
0.0,1.0,0.0,0.0,4.0,4.0,517.1521168667823,2.0,1.0,phase_1,,,,,,,,,,,,,green,diamond
74.0,1.0,1.0,0.0,4.0,4.0,409.6470358781516,2.0,1.0,phase_1,,,,,,,,,,,,,green,diamond
221.0,3.0,3.0,0.0,3.0,3.0,404.4599400367588,2.0,1.0,phase_1,,,,,,,,,,,,,magenta,flipped triangle
0.0,2.0,0.0,0.0,2.0,2.0,348.2923000119626,2.0,1.0,phase_1,,,,,,,,,,,,,yellow,triangle
400.0,8.0,4.0,1.0,4.0,4.0,454.8027100972831,2.0,1.0,phase_1,,,,,,,,,,,,,blue,cross
74.0,5.0,1.0,1.0,3.0,3.0,378.8892710581422,2.0,1.0,phase_1,,,,,,,,,,,,,orange,circle
414.0,8.0,4.0,1.0,2.0,2.0,298.4531589318067,2.0,1.0,phase_1,,,,,,,,,,,,,blue,cross
0.0,2.0,0.0,0.0,4.0,4.0,437.8015669062733,2.0,1.0,phase_1,,,,,,,,,,,,,yellow,triangle
185.0,3.0,3.0,0.0,4.0,4.0,418.9619300886988,2.0,1.0,phase_1,,,,,,,,,,,,,magenta,flipped triangle
393.0,4.0,4.0,0.0,2.0,2.0,325.4421132151037,2.0,1.0,phase_1,,,,,,,,,,,,,cyan,hexagon
27.0,1.0,1.0,0.0,3.0,3.0,337.9637959878891,2.0,1.0,phase_1,,,,,,,,,,,,,green,diamond
197.0,3.0,3.0,0.0,1.0,1.0,382.6637300662696,2.0,2.0,phase_1,,,,,,,,,,,,,magenta,flipped triangle
67.0,5.0,1.0,1.0,2.0,2.0,464.1501060687005,2.0,1.0,phase_1,,,,,,,,,,,,,orange,circle
0.0,4.0,0.0,0.0,1.0,1.0,495.6886009313166,2.0,1.0,phase_1,,,,,,,,,,,,,cyan,hexagon
0.0,1.0,0.0,0.0,4.0,4.0,419.7696319315582,2.0,1.0,phase_1,,,,,,,,,,,,,green,diamond
409.0,4.0,4.0,0.0,1.0,1.0,391.373542137444,2.0,1.0,phase_1,,,,,,,,,,,,,cyan,hexagon
0.0,3.0,0.0,0.0,2.0,2.0,341.7264809831977,2.0,1.0,phase_1,,,,,,,,,,,,,magenta,flipped triangle
200.0,3.0,3.0,0.0,2.0,2.0,443.2170400395989,2.0,1.0,phase_1,,,,,,,,,,,,,magenta,flipped triangle
415.0,8.0,4.0,1.0,4.0,4.0,366.1550569813698,2.0,1.0,phase_1,,,,,,,,,,,,,blue,cross
99.0,2.0,2.0,0.0,3.0,3.0,412.7075190190226,2.0,1.0,phase_1,,,,,,,,,,,,,yellow,triangle
0.0,7.0,0.0,1.0,4.0,4.0,392.655038041994,2.0,1.0,phase_1,,,,,,,,,,,,,gray,square
81.0,6.0,2.0,1.0,2.0,2.0,371.3247561827302,2.0,1.0,phase_1,,,,,,,,,,,,,white,I
83.0,6.0,2.0,1.0,3.0,3.0,383.2965490873903,2.0,1.0,phase_1,,,,,,,,,,,,,white,I
211.0,7.0,3.0,1.0,1.0,1.0,531.9373391103,2.0,1.0,phase_1,,,,,,,,,,,,,gray,square
80.0,2.0,2.0,0.0,1.0,1.0,433.3787129726261,2.0,1.0,phase_1,,,,,,,,,,,,,yellow,triangle
386.0,8.0,4.0,1.0,2.0,2.0,391.0883499775082,2.0,1.0,phase_1,,,,,,,,,,,,,blue,cross
76.0,6.0,2.0,1.0,1.0,1.0,465.9184138290584,2.0,1.0,phase_1,,,,,,,,,,,,,white,I
218.0,3.0,3.0,0.0,3.0,3.0,370.7762400154024,2.0,1.0,phase_1,,,,,,,,,,,,,magenta,flipped triangle
0.0,4.0,0.0,0.0,3.0,3.0,340.2457071933895,2.0,1.0,phase_1,,,,,,,,,,,,,cyan,hexagon
61.0,5.0,1.0,1.0,4.0,4.0,370.1530138496309,2.0,1.0,phase_1,,,,,,,,,,,,,orange,circle
409.0,8.0,4.0,1.0,4.0,4.0,407.5637699570507,2.0,1.0,phase_1,,,,,,,,,,,,,blue,cross
0.0,6.0,0.0,1.0,1.0,1.0,356.5731470007449,2.0,1.0,phase_1,,,,,,,,,,,,,white,I
206.0,3.0,3.0,0.0,4.0,4.0,344.7768748737871,2.0,1.0,phase_1,,,,,,,,,,,,,magenta,flipped triangle
394.0,4.0,4.0,0.0,2.0,2.0,338.6420588940382,2.0,1.0,phase_1,,,,,,,,,,,,,cyan,hexagon
0.0,6.0,0.0,1.0,2.0,2.0,379.0882360190153,2.0,1.0,phase_1,,,,,,,,,,,,,white,I
45.0,5.0,1.0,1.0,1.0,1.0,358.4772490430623,2.0,1.0,phase_1,,,,,,,,,,,,,orange,circle
190.0,3.0,3.0,0.0,3.0,3.0,307.751095155254,2.0,1.0,phase_1,,,,,,,,,,,,,magenta,flipped triangle
216.0,3.0,3.0,0.0,4.0,4.0,344.3821540568024,2.0,1.0,phase_1,,,,,,,,,,,,,magenta,flipped triangle
218.0,3.0,3.0,0.0,4.0,4.0,340.9428570885211,2.0,1.0,phase_1,,,,,,,,,,,,,magenta,flipped triangle
45.0,1.0,1.0,0.0,2.0,2.0,345.1634109951556,2.0,1.0,phase_1,,,,,,,,,,,,,green,diamond
43.0,5.0,1.0,1.0,4.0,4.0,366.0702300257981,2.0,1.0,phase_1,,,,,,,,,,,,,orange,circle
218.0,7.0,3.0,1.0,4.0,4.0,339.0244669280946,2.0,1.0,phase_1,,,,,,,,,,,,,gray,square
81.0,6.0,2.0,1.0,2.0,2.0,414.8546131327748,2.0,1.0,phase_1,,,,,,,,,,,,,white,I
38.0,5.0,1.0,1.0,4.0,4.0,329.3479101266712,2.0,1.0,phase_1,,,,,,,,,,,,,orange,circle
418.0,8.0,4.0,1.0,3.0,3.0,446.1075018625706,2.0,1.0,phase_1,,,,,,,,,,,,,blue,cross
214.0,3.0,3.0,0.0,1.0,1.0,354.584613116458,2.0,1.0,phase_1,,,,,,,,,,,,,magenta,flipped triangle
0.0,3.0,0.0,0.0,4.0,4.0,379.0017878636718,2.0,1.0,phase_1,,,,,,,,,,,,,magenta,flipped triangle
38.0,1.0,1.0,0.0,4.0,4.0,376.5056300908327,2.0,1.0,phase_1,,,,,,,,,,,,,green,diamond
0.0,1.0,0.0,0.0,2.0,2.0,315.3570140711963,2.0,1.0,phase_1,,,,,,,,,,,,,green,diamond
0.0,4.0,0.0,0.0,1.0,1.0,390.5225920025259,2.0,1.0,phase_1,,,,,,,,,,,,,cyan,hexagon
99.0,6.0,2.0,1.0,2.0,2.0,330.5191330146044,2.0,1.0,phase_1,,,,,,,,,,,,,white,I
31.0,5.0,1.0,1.0,2.0,2.0,305.3974339272827,2.0,1.0,phase_1,,,,,,,,,,,,,orange,circle
211.0,3.0,3.0,0.0,3.0,3.0,353.4563279245049,2.0,2.0,phase_1,,,,,,,,,,,,,magenta,flipped triangle
70.0,1.0,1.0,0.0,2.0,2.0,357.6149670407176,2.0,1.0,phase_1,,,,,,,,,,,,,green,diamond
0.0,6.0,0.0,1.0,4.0,4.0,461.7243008688092,2.0,1.0,phase_1,,,,,,,,,,,,,white,I
119.0,6.0,2.0,1.0,2.0,2.0,334.5390851609409,2.0,1.0,phase_1,,,,,,,,,,,,,white,I
61.0,1.0,1.0,0.0,2.0,2.0,438.6663711629808,2.0,1.0,phase_1,,,,,,,,,,,,,green,diamond
185.0,7.0,3.0,1.0,1.0,1.0,529.8260219860822,2.0,1.0,phase_1,,,,,,,,,,,,,gray,square
119.0,2.0,2.0,0.0,2.0,2.0,453.4299918450415,2.0,1.0,phase_1,,,,,,,,,,,,,yellow,triangle
45.0,5.0,1.0,1.0,3.0,3.0,499.5844371151179,2.0,1.0,phase_1,,,,,,,,,,,,,orange,circle
376.0,8.0,4.0,1.0,4.0,4.0,429.8977178987115,2.0,1.0,phase_1,,,,,,,,,,,,,blue,cross
121.0,6.0,2.0,1.0,4.0,4.0,387.0398688595742,2.0,1.0,phase_1,,,,,,,,,,,,,white,I
210.0,3.0,3.0,0.0,1.0,1.0,385.8768730424344,2.0,1.0,phase_1,,,,,,,,,,,,,magenta,flipped triangle
203.0,3.0,3.0,0.0,3.0,3.0,383.1735230050981,2.0,1.0,phase_1,,,,,,,,,,,,,magenta,flipped triangle
418.0,4.0,4.0,0.0,3.0,3.0,353.4485718701035,2.0,1.0,phase_1,,,,,,,,,,,,,cyan,hexagon
84.0,2.0,2.0,0.0,3.0,3.0,361.5176859311759,2.0,1.0,phase_1,,,,,,,,,,,,,yellow,triangle
400.0,8.0,4.0,1.0,2.0,2.0,386.8947010487318,2.0,1.0,phase_1,,,,,,,,,,,,,blue,cross
64.0,1.0,1.0,0.0,1.0,1.0,379.6509811654687,2.0,1.0,phase_1,,,,,,,,,,,,,green,diamond
115.0,6.0,2.0,1.0,3.0,3.0,324.2499229963869,2.0,1.0,phase_1,,,,,,,,,,,,,white,I
421.0,8.0,4.0,1.0,2.0,2.0,369.6623879950493,2.0,1.0,phase_1,,,,,,,,,,,,,blue,cross
56.0,1.0,1.0,0.0,3.0,3.0,365.0078419595957,2.0,1.0,phase_1,,,,,,,,,,,,,green,diamond
420.0,4.0,4.0,0.0,3.0,3.0,427.3584450129419,2.0,1.0,phase_1,,,,,,,,,,,,,cyan,hexagon
79.0,6.0,2.0,1.0,4.0,4.0,385.1795410737395,2.0,1.0,phase_1,,,,,,,,,,,,,white,I
40.0,5.0,1.0,1.0,2.0,2.0,413.7762880418449,2.0,1.0,phase_1,,,,,,,,,,,,,orange,circle
84.0,6.0,2.0,1.0,3.0,3.0,378.3058240078389,2.0,1.0,phase_1,,,,,,,,,,,,,white,I
0.0,8.0,0.0,1.0,4.0,4.0,543.052390916273,2.0,1.0,phase_1,,,,,,,,,,,,,blue,cross
51.0,5.0,1.0,1.0,2.0,2.0,402.3424300830811,2.0,1.0,phase_1,,,,,,,,,,,,,orange,circle
376.0,4.0,4.0,0.0,4.0,4.0,325.5862412042916,2.0,1.0,phase_1,,,,,,,,,,,,,cyan,hexagon
0.0,6.0,0.0,1.0,3.0,3.0,397.3859092220664,2.0,1.0,phase_1,,,,,,,,,,,,,white,I
415.0,4.0,4.0,0.0,2.0,2.0,310.9000569675118,2.0,1.0,phase_1,,,,,,,,,,,,,cyan,hexagon
100.0,2.0,2.0,0.0,4.0,4.0,334.8106839694083,2.0,1.0,phase_1,,,,,,,,,,,,,yellow,triangle
181.0,3.0,3.0,0.0,2.0,2.0,411.4486579783261,2.0,1.0,phase_1,,,,,,,,,,,,,magenta,flipped triangle
409.0,4.0,4.0,0.0,1.0,1.0,406.6189860459417,2.0,1.0,phase_1,,,,,,,,,,,,,cyan,hexagon
61.0,1.0,1.0,0.0,2.0,2.0,402.5398571975529,2.0,1.0,phase_1,,,,,,,,,,,,,green,diamond
99.0,6.0,2.0,1.0,4.0,4.0,409.6824340522289,2.0,1.0,phase_1,,,,,,,,,,,,,white,I
402.0,4.0,4.0,0.0,4.0,4.0,397.8312939871102,2.0,1.0,phase_1,,,,,,,,,,,,,cyan,hexagon
104.0,2.0,2.0,0.0,1.0,1.0,393.6776279006153,2.0,1.0,phase_1,,,,,,,,,,,,,yellow,triangle
0.0,3.0,0.0,0.0,4.0,4.0,341.6933258995414,3.0,1.0,phase_1,,,,,,,,,,,,,magenta,flipped triangle
175.0,3.0,3.0,0.0,2.0,2.0,304.2000320274383,3.0,1.0,phase_1,,,,,,,,,,,,,magenta,flipped triangle
105.0,2.0,2.0,0.0,3.0,3.0,287.8871371503919,3.0,1.0,phase_1,,,,,,,,,,,,,yellow,triangle
0.0,7.0,0.0,1.0,4.0,4.0,349.8863240238279,3.0,1.0,phase_1,,,,,,,,,,,,,gray,square
102.0,2.0,2.0,0.0,3.0,3.0,362.4962239991873,3.0,1.0,phase_1,,,,,,,,,,,,,yellow,triangle
200.0,7.0,3.0,1.0,1.0,1.0,414.8102588951587,3.0,1.0,phase_1,,,,,,,,,,,,,gray,square
207.0,3.0,3.0,0.0,4.0,4.0,312.5169309787452,3.0,1.0,phase_1,,,,,,,,,,,,,magenta,flipped triangle
407.0,4.0,4.0,0.0,2.0,2.0,318.3539030142128,3.0,1.0,phase_1,,,,,,,,,,,,,cyan,hexagon
120.0,2.0,2.0,0.0,4.0,4.0,330.0121389329433,3.0,1.0,phase_1,,,,,,,,,,,,,yellow,triangle
61.0,5.0,1.0,1.0,1.0,1.0,334.7242819145322,3.0,1.0,phase_1,,,,,,,,,,,,,orange,circle
189.0,7.0,3.0,1.0,3.0,3.0,308.8496308773756,3.0,1.0,phase_1,,,,,,,,,,,,,gray,square
31.0,1.0,1.0,0.0,2.0,2.0,273.053351091221,3.0,1.0,phase_1,,,,,,,,,,,,,green,diamond
62.0,1.0,1.0,0.0,3.0,3.0,325.8258639834821,3.0,1.0,phase_1,,,,,,,,,,,,,green,diamond
66.0,5.0,1.0,1.0,3.0,3.0,336.9264157954603,3.0,1.0,phase_1,,,,,,,,,,,,,orange,circle
27.0,1.0,1.0,0.0,1.0,1.0,365.556295029819,3.0,1.0,phase_1,,,,,,,,,,,,,green,diamond
43.0,1.0,1.0,0.0,3.0,3.0,379.9463249742985,3.0,1.0,phase_1,,,,,,,,,,,,,green,diamond
42.0,1.0,1.0,0.0,3.0,3.0,390.4878199100494,3.0,1.0,phase_1,,,,,,,,,,,,,green,diamond
97.0,2.0,2.0,0.0,2.0,2.0,366.2963090464473,3.0,1.0,phase_1,,,,,,,,,,,,,yellow,triangle
64.0,5.0,1.0,1.0,1.0,1.0,472.4852410145104,3.0,1.0,phase_1,,,,,,,,,,,,,orange,circle
0.0,5.0,0.0,1.0,4.0,4.0,359.1206539422273,3.0,1.0,phase_1,,,,,,,,,,,,,orange,circle
0.0,8.0,0.0,1.0,3.0,3.0,348.88212592341,3.0,1.0,phase_1,,,,,,,,,,,,,blue,cross
0.0,2.0,0.0,0.0,3.0,3.0,448.2144420035183,3.0,1.0,phase_1,,,,,,,,,,,,,yellow,triangle
200.0,7.0,3.0,1.0,2.0,2.0,349.0604779217392,3.0,1.0,phase_1,,,,,,,,,,,,,gray,square
0.0,4.0,0.0,0.0,3.0,3.0,320.1918110717088,3.0,1.0,phase_1,,,,,,,,,,,,,cyan,hexagon
108.0,6.0,2.0,1.0,2.0,2.0,357.9972789157182,3.0,1.0,phase_1,,,,,,,,,,,,,white,I
70.0,5.0,1.0,1.0,2.0,2.0,345.5637958832085,3.0,1.0,phase_1,,,,,,,,,,,,,orange,circle
181.0,7.0,3.0,1.0,1.0,1.0,389.5621479023248,3.0,1.0,phase_1,,,,,,,,,,,,,gray,square
73.0,5.0,1.0,1.0,1.0,1.0,362.0206168852746,3.0,1.0,phase_1,,,,,,,,,,,,,orange,circle
100.0,6.0,2.0,1.0,1.0,1.0,361.6912399884313,3.0,1.0,phase_1,,,,,,,,,,,,,white,I
31.0,5.0,1.0,1.0,4.0,4.0,438.6422939132899,3.0,1.0,phase_1,,,,,,,,,,,,,orange,circle
99.0,6.0,2.0,1.0,4.0,4.0,304.1047840379178,3.0,1.0,phase_1,,,,,,,,,,,,,white,I
415.0,4.0,4.0,0.0,1.0,1.0,477.2467801813036,3.0,1.0,phase_1,,,,,,,,,,,,,cyan,hexagon
123.0,2.0,2.0,0.0,2.0,2.0,349.398187128827,3.0,1.0,phase_1,,,,,,,,,,,,,yellow,triangle
33.0,5.0,1.0,1.0,4.0,4.0,386.3424670416862,3.0,1.0,phase_1,,,,,,,,,,,,,orange,circle
0.0,5.0,0.0,1.0,1.0,1.0,430.1163621712476,3.0,1.0,phase_1,,,,,,,,,,,,,orange,circle
408.0,8.0,4.0,1.0,2.0,2.0,305.5430890526622,3.0,1.0,phase_1,,,,,,,,,,,,,blue,cross
116.0,2.0,2.0,0.0,4.0,4.0,341.1334259435534,3.0,1.0,phase_1,,,,,,,,,,,,,yellow,triangle
210.0,7.0,3.0,1.0,4.0,4.0,354.2033939156681,3.0,1.0,phase_1,,,,,,,,,,,,,gray,square
209.0,7.0,3.0,1.0,2.0,2.0,352.5090371258557,3.0,1.0,phase_1,,,,,,,,,,,,,gray,square
217.0,3.0,3.0,0.0,3.0,3.0,315.3016548603773,3.0,1.0,phase_1,,,,,,,,,,,,,magenta,flipped triangle
102.0,6.0,2.0,1.0,1.0,1.0,461.7890859954059,3.0,2.0,phase_1,,,,,,,,,,,,,white,I
197.0,7.0,3.0,1.0,3.0,3.0,555.0604539457709,3.0,1.0,phase_1,,,,,,,,,,,,,gray,square
220.0,7.0,3.0,1.0,3.0,3.0,407.4357110075652,3.0,1.0,phase_1,,,,,,,,,,,,,gray,square
115.0,2.0,2.0,0.0,4.0,4.0,419.7213379666209,3.0,1.0,phase_1,,,,,,,,,,,,,yellow,triangle
221.0,7.0,3.0,1.0,3.0,3.0,390.4233379289508,3.0,1.0,phase_1,,,,,,,,,,,,,gray,square
384.0,8.0,4.0,1.0,2.0,2.0,327.0863119978457,3.0,1.0,phase_1,,,,,,,,,,,,,blue,cross
38.0,5.0,1.0,1.0,1.0,1.0,418.2343839202076,3.0,1.0,phase_1,,,,,,,,,,,,,orange,circle
216.0,7.0,3.0,1.0,4.0,4.0,350.5254948977381,3.0,1.0,phase_1,,,,,,,,,,,,,gray,square
217.0,3.0,3.0,0.0,3.0,3.0,412.6554660033434,3.0,1.0,phase_1,,,,,,,,,,,,,magenta,flipped triangle
0.0,6.0,0.0,1.0,3.0,3.0,353.1392961740494,3.0,1.0,phase_1,,,,,,,,,,,,,white,I
0.0,2.0,0.0,0.0,4.0,4.0,366.7668960988521,3.0,1.0,phase_1,,,,,,,,,,,,,yellow,triangle
91.0,2.0,2.0,0.0,3.0,3.0,529.2849659454077,3.0,1.0,phase_1,,,,,,,,,,,,,yellow,triangle
202.0,7.0,3.0,1.0,2.0,2.0,350.8222841192037,3.0,1.0,phase_1,,,,,,,,,,,,,gray,square
0.0,8.0,0.0,1.0,3.0,3.0,347.4623910151422,3.0,1.0,phase_1,,,,,,,,,,,,,blue,cross
394.0,8.0,4.0,1.0,4.0,4.0,345.6643579993397,3.0,1.0,phase_1,,,,,,,,,,,,,blue,cross
0.0,1.0,0.0,0.0,2.0,2.0,284.6833928488195,3.0,1.0,phase_1,,,,,,,,,,,,,green,diamond
42.0,5.0,1.0,1.0,2.0,2.0,393.8681739382446,3.0,1.0,phase_1,,,,,,,,,,,,,orange,circle
194.0,7.0,3.0,1.0,1.0,1.0,340.5593789648264,3.0,1.0,phase_1,,,,,,,,,,,,,gray,square
108.0,2.0,2.0,0.0,2.0,2.0,402.7073609177023,3.0,1.0,phase_1,,,,,,,,,,,,,yellow,triangle
411.0,4.0,4.0,0.0,3.0,3.0,416.2964108400047,3.0,1.0,phase_1,,,,,,,,,,,,,cyan,hexagon
385.0,8.0,4.0,1.0,4.0,4.0,333.6531140375882,3.0,1.0,phase_1,,,,,,,,,,,,,blue,cross
0.0,1.0,0.0,0.0,3.0,3.0,337.0913870166987,3.0,1.0,phase_1,,,,,,,,,,,,,green,diamond
70.0,1.0,1.0,0.0,4.0,4.0,374.6655161958188,3.0,1.0,phase_1,,,,,,,,,,,,,green,diamond
39.0,1.0,1.0,0.0,3.0,3.0,327.874121023342,3.0,1.0,phase_1,,,,,,,,,,,,,green,diamond
399.0,8.0,4.0,1.0,3.0,3.0,357.1681100875139,3.0,1.0,phase_1,,,,,,,,,,,,,blue,cross
40.0,5.0,1.0,1.0,1.0,1.0,444.9294179212302,3.0,1.0,phase_1,,,,,,,,,,,,,orange,circle
206.0,3.0,3.0,0.0,3.0,3.0,304.5604168437421,3.0,1.0,phase_1,,,,,,,,,,,,,magenta,flipped triangle
67.0,1.0,1.0,0.0,3.0,3.0,301.4809768646955,3.0,1.0,phase_1,,,,,,,,,,,,,green,diamond
107.0,6.0,2.0,1.0,4.0,4.0,440.1624039746821,3.0,1.0,phase_1,,,,,,,,,,,,,white,I
39.0,5.0,1.0,1.0,3.0,3.0,343.6755740549415,3.0,1.0,phase_1,,,,,,,,,,,,,orange,circle
0.0,2.0,0.0,0.0,2.0,2.0,321.1486041545868,3.0,1.0,phase_1,,,,,,,,,,,,,yellow,triangle
406.0,4.0,4.0,0.0,4.0,4.0,387.3653798364103,3.0,2.0,phase_1,,,,,,,,,,,,,cyan,hexagon
176.0,7.0,3.0,1.0,1.0,1.0,535.0869649555534,3.0,1.0,phase_1,,,,,,,,,,,,,gray,square
217.0,7.0,3.0,1.0,1.0,1.0,421.7363891657442,3.0,1.0,phase_1,,,,,,,,,,,,,gray,square
26.0,1.0,1.0,0.0,2.0,2.0,431.9236290175468,3.0,1.0,phase_1,,,,,,,,,,,,,green,diamond
378.0,8.0,4.0,1.0,4.0,4.0,333.6761160753667,3.0,1.0,phase_1,,,,,,,,,,,,,blue,cross
107.0,2.0,2.0,0.0,2.0,2.0,301.0646319016814,3.0,1.0,phase_1,,,,,,,,,,,,,yellow,triangle
87.0,2.0,2.0,0.0,2.0,2.0,321.5548740699887,3.0,1.0,phase_1,,,,,,,,,,,,,yellow,triangle
411.0,4.0,4.0,0.0,2.0,2.0,418.6010889243334,3.0,1.0,phase_1,,,,,,,,,,,,,cyan,hexagon
0.0,4.0,0.0,0.0,2.0,2.0,330.5437690578401,3.0,1.0,phase_1,,,,,,,,,,,,,cyan,hexagon
217.0,7.0,3.0,1.0,1.0,1.0,518.0260410998017,3.0,1.0,phase_1,,,,,,,,,,,,,gray,square
0.0,5.0,0.0,1.0,4.0,4.0,412.8564051352441,3.0,1.0,phase_1,,,,,,,,,,,,,orange,circle
379.0,4.0,4.0,0.0,1.0,1.0,541.2537029478699,3.0,1.0,phase_1,,,,,,,,,,,,,cyan,hexagon
81.0,6.0,2.0,1.0,2.0,2.0,338.6090849526226,3.0,1.0,phase_1,,,,,,,,,,,,,white,I
0.0,2.0,0.0,0.0,3.0,3.0,337.820494081825,3.0,1.0,phase_1,,,,,,,,,,,,,yellow,triangle
108.0,6.0,2.0,1.0,1.0,1.0,430.7511430233717,3.0,1.0,phase_1,,,,,,,,,,,,,white,I
117.0,2.0,2.0,0.0,1.0,1.0,490.6582820694893,3.0,1.0,phase_1,,,,,,,,,,,,,yellow,triangle
416.0,8.0,4.0,1.0,4.0,4.0,646.411727881059,3.0,1.0,phase_1,,,,,,,,,,,,,blue,cross
206.0,7.0,3.0,1.0,3.0,3.0,333.5734237916767,3.0,1.0,phase_1,,,,,,,,,,,,,gray,square
409.0,8.0,4.0,1.0,3.0,3.0,342.3256138339638,3.0,1.0,phase_1,,,,,,,,,,,,,blue,cross
411.0,8.0,4.0,1.0,4.0,4.0,492.961746873334,3.0,1.0,phase_1,,,,,,,,,,,,,blue,cross
194.0,3.0,3.0,0.0,1.0,1.0,363.1644020788371,3.0,1.0,phase_1,,,,,,,,,,,,,magenta,flipped triangle
27.0,5.0,1.0,1.0,3.0,3.0,301.9211310893297,3.0,1.0,phase_1,,,,,,,,,,,,,orange,circle
393.0,8.0,4.0,1.0,1.0,1.0,427.6276561431587,3.0,1.0,phase_1,,,,,,,,,,,,,blue,cross
80.0,6.0,2.0,1.0,1.0,1.0,415.5451389960944,3.0,1.0,phase_1,,,,,,,,,,,,,white,I
206.0,7.0,3.0,1.0,3.0,3.0,362.8263170830905,3.0,1.0,phase_1,,,,,,,,,,,,,gray,square
114.0,6.0,2.0,1.0,1.0,1.0,528.1205519568175,3.0,1.0,phase_1,,,,,,,,,,,,,white,I
99.0,2.0,2.0,0.0,3.0,3.0,343.6193701345473,3.0,1.0,phase_1,,,,,,,,,,,,,yellow,triangle
90.0,2.0,2.0,0.0,3.0,3.0,354.5594210736453,3.0,1.0,phase_1,,,,,,,,,,,,,yellow,triangle
192.0,7.0,3.0,1.0,3.0,3.0,318.650437053293,3.0,1.0,phase_1,,,,,,,,,,,,,gray,square
382.0,4.0,4.0,0.0,1.0,1.0,349.4994489010423,4.0,1.0,phase_1,,,,,,,,,,,,,cyan,hexagon
415.0,4.0,4.0,0.0,1.0,1.0,353.3795750699937,4.0,1.0,phase_1,,,,,,,,,,,,,cyan,hexagon
61.0,1.0,1.0,0.0,4.0,4.0,350.6430978886783,4.0,1.0,phase_1,,,,,,,,,,,,,green,diamond
206.0,7.0,3.0,1.0,3.0,3.0,348.7761868163943,4.0,1.0,phase_1,,,,,,,,,,,,,gray,square
0.0,5.0,0.0,1.0,4.0,4.0,353.2143009360879,4.0,1.0,phase_1,,,,,,,,,,,,,orange,circle
406.0,8.0,4.0,1.0,3.0,3.0,358.6344730574637,4.0,1.0,phase_1,,,,,,,,,,,,,blue,cross
200.0,3.0,3.0,0.0,3.0,3.0,353.3850410021841,4.0,1.0,phase_1,,,,,,,,,,,,,magenta,flipped triangle
408.0,4.0,4.0,0.0,3.0,3.0,359.2115440405905,4.0,1.0,phase_1,,,,,,,,,,,,,cyan,hexagon
121.0,2.0,2.0,0.0,4.0,4.0,370.4167520627379,4.0,1.0,phase_1,,,,,,,,,,,,,yellow,triangle
0.0,8.0,0.0,1.0,1.0,1.0,342.0156631618738,4.0,1.0,phase_1,,,,,,,,,,,,,blue,cross
209.0,3.0,3.0,0.0,4.0,4.0,333.6126690264791,4.0,1.0,phase_1,,,,,,,,,,,,,magenta,flipped triangle
196.0,7.0,3.0,1.0,4.0,4.0,368.6674679629504,4.0,1.0,phase_1,,,,,,,,,,,,,gray,square
0.0,3.0,0.0,0.0,2.0,2.0,292.2649320680648,4.0,1.0,phase_1,,,,,,,,,,,,,magenta,flipped triangle
0.0,2.0,0.0,0.0,2.0,2.0,394.1219551488757,4.0,1.0,phase_1,,,,,,,,,,,,,yellow,triangle
386.0,4.0,4.0,0.0,1.0,1.0,390.4365550260991,4.0,1.0,phase_1,,,,,,,,,,,,,cyan,hexagon
179.0,3.0,3.0,0.0,1.0,1.0,350.386343896389,4.0,1.0,phase_1,,,,,,,,,,,,,magenta,flipped triangle
380.0,4.0,4.0,0.0,3.0,3.0,395.0025048106909,4.0,1.0,phase_1,,,,,,,,,,,,,cyan,hexagon
179.0,7.0,3.0,1.0,4.0,4.0,439.8712099064141,4.0,1.0,phase_1,,,,,,,,,,,,,gray,square
0.0,5.0,0.0,1.0,3.0,3.0,473.5870300792157,4.0,1.0,phase_1,,,,,,,,,,,,,orange,circle
31.0,1.0,1.0,0.0,4.0,4.0,487.2117249760777,4.0,1.0,phase_1,,,,,,,,,,,,,green,diamond
67.0,1.0,1.0,0.0,1.0,1.0,369.4970118813216,4.0,1.0,phase_1,,,,,,,,,,,,,green,diamond
40.0,1.0,1.0,0.0,3.0,3.0,314.663422992453,4.0,1.0,phase_1,,,,,,,,,,,,,green,diamond
78.0,2.0,2.0,0.0,2.0,2.0,341.69038897380227,4.0,1.0,phase_1,,,,,,,,,,,,,yellow,triangle
379.0,8.0,4.0,1.0,2.0,2.0,320.4254670999944,4.0,1.0,phase_1,,,,,,,,,,,,,blue,cross
116.0,6.0,2.0,1.0,2.0,2.0,373.6559990793466,4.0,1.0,phase_1,,,,,,,,,,,,,white,I
0.0,6.0,0.0,1.0,2.0,2.0,331.7183528561145,4.0,1.0,phase_1,,,,,,,,,,,,,white,I
53.0,5.0,1.0,1.0,3.0,3.0,405.9213809669018,4.0,1.0,phase_1,,,,,,,,,,,,,orange,circle
67.0,5.0,1.0,1.0,4.0,4.0,354.5814480166882,4.0,1.0,phase_1,,,,,,,,,,,,,orange,circle
0.0,3.0,0.0,0.0,1.0,1.0,312.2100080363452,4.0,1.0,phase_1,,,,,,,,,,,,,magenta,flipped triangle
415.0,8.0,4.0,1.0,1.0,1.0,342.5499019213021,4.0,1.0,phase_1,,,,,,,,,,,,,blue,cross
89.0,2.0,2.0,0.0,2.0,2.0,338.4497789666056,4.0,1.0,phase_1,,,,,,,,,,,,,yellow,triangle
56.0,5.0,1.0,1.0,3.0,3.0,358.16162195988,4.0,1.0,phase_1,,,,,,,,,,,,,orange,circle
91.0,6.0,2.0,1.0,1.0,1.0,362.5545271206647,4.0,1.0,phase_1,,,,,,,,,,,,,white,I
190.0,7.0,3.0,1.0,2.0,2.0,370.6239350140095,4.0,1.0,phase_1,,,,,,,,,,,,,gray,square
120.0,6.0,2.0,1.0,4.0,4.0,340.7818900886923,4.0,1.0,phase_1,,,,,,,,,,,,,white,I
0.0,6.0,0.0,1.0,3.0,3.0,457.032669102773,4.0,1.0,phase_1,,,,,,,,,,,,,white,I
180.0,7.0,3.0,1.0,4.0,4.0,572.8151581715792,4.0,1.0,phase_1,,,,,,,,,,,,,gray,square
27.0,5.0,1.0,1.0,4.0,4.0,508.3908741362393,4.0,1.0,phase_1,,,,,,,,,,,,,orange,circle
43.0,1.0,1.0,0.0,1.0,1.0,393.9232879783958,4.0,1.0,phase_1,,,,,,,,,,,,,green,diamond
399.0,4.0,4.0,0.0,4.0,4.0,363.4831469971686,4.0,1.0,phase_1,,,,,,,,,,,,,cyan,hexagon
99.0,6.0,2.0,1.0,4.0,4.0,394.6967681404203,4.0,1.0,phase_1,,,,,,,,,,,,,white,I
77.0,6.0,2.0,1.0,3.0,3.0,460.5774509254843,4.0,1.0,phase_1,,,,,,,,,,,,,white,I
407.0,8.0,4.0,1.0,3.0,3.0,361.7218760773539,4.0,1.0,phase_1,,,,,,,,,,,,,blue,cross
97.0,6.0,2.0,1.0,1.0,1.0,479.7644098289311,4.0,1.0,phase_1,,,,,,,,,,,,,white,I
61.0,5.0,1.0,1.0,3.0,3.0,333.4182240068912,4.0,1.0,phase_1,,,,,,,,,,,,,orange,circle
36.0,5.0,1.0,1.0,1.0,1.0,370.7080038730055,4.0,1.0,phase_1,,,,,,,,,,,,,orange,circle
61.0,1.0,1.0,0.0,4.0,4.0,350.0474598258734,4.0,1.0,phase_1,,,,,,,,,,,,,green,diamond
0.0,8.0,0.0,1.0,1.0,1.0,442.4952040426433,4.0,1.0,phase_1,,,,,,,,,,,,,blue,cross
206.0,7.0,3.0,1.0,3.0,3.0,360.5997289996594,4.0,1.0,phase_1,,,,,,,,,,,,,gray,square
0.0,7.0,0.0,1.0,2.0,2.0,369.6347209624946,4.0,1.0,phase_1,,,,,,,,,,,,,gray,square
110.0,2.0,2.0,0.0,4.0,4.0,368.1435100734234,4.0,1.0,phase_1,,,,,,,,,,,,,yellow,triangle
415.0,8.0,4.0,1.0,3.0,3.0,332.7532210387289,4.0,1.0,phase_1,,,,,,,,,,,,,blue,cross
73.0,5.0,1.0,1.0,3.0,3.0,371.3482420425862,4.0,1.0,phase_1,,,,,,,,,,,,,orange,circle
402.0,8.0,4.0,1.0,1.0,1.0,406.860165996477,4.0,1.0,phase_1,,,,,,,,,,,,,blue,cross
378.0,4.0,4.0,0.0,4.0,4.0,353.5701120272279,4.0,1.0,phase_1,,,,,,,,,,,,,cyan,hexagon
38.0,1.0,1.0,0.0,1.0,1.0,463.8358158990741,4.0,1.0,phase_1,,,,,,,,,,,,,green,diamond
121.0,2.0,2.0,0.0,4.0,4.0,342.3626080621034,4.0,1.0,phase_1,,,,,,,,,,,,,yellow,triangle
211.0,7.0,3.0,1.0,4.0,4.0,427.4815379176289,4.0,1.0,phase_1,,,,,,,,,,,,,gray,square
396.0,4.0,4.0,0.0,1.0,1.0,415.5639777891338,4.0,1.0,phase_1,,,,,,,,,,,,,cyan,hexagon
0.0,2.0,0.0,0.0,4.0,4.0,452.8962061740458,4.0,1.0,phase_1,,,,,,,,,,,,,yellow,triangle
396.0,8.0,4.0,1.0,1.0,1.0,488.1952409632504,4.0,1.0,phase_1,,,,,,,,,,,,,blue,cross
51.0,1.0,1.0,0.0,2.0,2.0,474.4181621354073,4.0,1.0,phase_1,,,,,,,,,,,,,green,diamond
112.0,6.0,2.0,1.0,3.0,3.0,552.5055099278688,4.0,1.0,phase_1,,,,,,,,,,,,,white,I
0.0,7.0,0.0,1.0,4.0,4.0,451.299041043967,4.0,1.0,phase_1,,,,,,,,,,,,,gray,square
33.0,1.0,1.0,0.0,4.0,4.0,386.5044089034199,4.0,1.0,phase_1,,,,,,,,,,,,,green,diamond
90.0,6.0,2.0,1.0,4.0,4.0,405.4625378921628,4.0,1.0,phase_1,,,,,,,,,,,,,white,I
199.0,3.0,3.0,0.0,4.0,4.0,377.4433101061731,4.0,1.0,phase_1,,,,,,,,,,,,,magenta,flipped triangle
0.0,8.0,0.0,1.0,2.0,2.0,365.6816410366446,4.0,1.0,phase_1,,,,,,,,,,,,,blue,cross
382.0,8.0,4.0,1.0,1.0,1.0,482.8876000829041,4.0,1.0,phase_1,,,,,,,,,,,,,blue,cross
0.0,8.0,0.0,1.0,1.0,1.0,394.961911952123,4.0,1.0,phase_1,,,,,,,,,,,,,blue,cross
0.0,3.0,0.0,0.0,3.0,3.0,365.8738061785698,4.0,1.0,phase_1,,,,,,,,,,,,,magenta,flipped triangle
189.0,3.0,3.0,0.0,1.0,1.0,354.2366160545498,4.0,1.0,phase_1,,,,,,,,,,,,,magenta,flipped triangle
77.0,2.0,2.0,0.0,1.0,1.0,455.6236311327666,4.0,1.0,phase_1,,,,,,,,,,,,,yellow,triangle
0.0,6.0,0.0,1.0,4.0,4.0,508.49806098267436,4.0,1.0,phase_1,,,,,,,,,,,,,white,I
399.0,8.0,4.0,1.0,1.0,1.0,403.075081994757,4.0,1.0,phase_1,,,,,,,,,,,,,blue,cross
418.0,8.0,4.0,1.0,2.0,2.0,366.7096758726984,4.0,1.0,phase_1,,,,,,,,,,,,,blue,cross
192.0,3.0,3.0,0.0,2.0,2.0,338.1988981273025,4.0,1.0,phase_1,,,,,,,,,,,,,magenta,flipped triangle
0.0,2.0,0.0,0.0,2.0,2.0,288.8988670893013,4.0,1.0,phase_1,,,,,,,,,,,,,yellow,triangle
108.0,2.0,2.0,0.0,2.0,2.0,348.7896949518472,4.0,1.0,phase_1,,,,,,,,,,,,,yellow,triangle
0.0,6.0,0.0,1.0,1.0,1.0,543.0884389206767,4.0,1.0,phase_1,,,,,,,,,,,,,white,I
58.0,5.0,1.0,1.0,3.0,3.0,355.9975870884955,4.0,1.0,phase_1,,,,,,,,,,,,,orange,circle
81.0,2.0,2.0,0.0,1.0,1.0,458.2739600446075,4.0,1.0,phase_1,,,,,,,,,,,,,yellow,triangle
383.0,4.0,4.0,0.0,2.0,2.0,348.5809911508113,4.0,1.0,phase_1,,,,,,,,,,,,,cyan,hexagon
0.0,6.0,0.0,1.0,3.0,3.0,340.2881491929292,4.0,1.0,phase_1,,,,,,,,,,,,,white,I
400.0,4.0,4.0,0.0,1.0,1.0,351.350235985592,4.0,1.0,phase_1,,,,,,,,,,,,,cyan,hexagon
400.0,4.0,4.0,0.0,3.0,3.0,394.5706998929381,4.0,1.0,phase_1,,,,,,,,,,,,,cyan,hexagon
0.0,1.0,0.0,0.0,3.0,3.0,345.0962021015584,4.0,1.0,phase_1,,,,,,,,,,,,,green,diamond
112.0,2.0,2.0,0.0,1.0,1.0,325.9633539710194,4.0,1.0,phase_1,,,,,,,,,,,,,yellow,triangle
420.0,8.0,4.0,1.0,3.0,3.0,434.410513844341,4.0,1.0,phase_1,,,,,,,,,,,,,blue,cross
421.0,4.0,4.0,0.0,4.0,4.0,449.4783680420369,4.0,1.0,phase_1,,,,,,,,,,,,,cyan,hexagon
123.0,6.0,2.0,1.0,1.0,1.0,434.8063380457461,4.0,1.0,phase_1,,,,,,,,,,,,,white,I
40.0,1.0,1.0,0.0,4.0,4.0,382.8276731073856,4.0,1.0,phase_1,,,,,,,,,,,,,green,diamond
378.0,8.0,4.0,1.0,2.0,2.0,350.202881032601,4.0,1.0,phase_1,,,,,,,,,,,,,blue,cross
190.0,3.0,3.0,0.0,1.0,1.0,434.3824649695307,4.0,1.0,phase_1,,,,,,,,,,,,,magenta,flipped triangle
66.0,1.0,1.0,0.0,1.0,1.0,366.6634338442236,4.0,1.0,phase_1,,,,,,,,,,,,,green,diamond
46.0,1.0,1.0,0.0,2.0,2.0,314.8743598721921,4.0,1.0,phase_1,,,,,,,,,,,,,green,diamond
382.0,8.0,4.0,1.0,4.0,4.0,479.6260080765933,4.0,1.0,phase_1,,,,,,,,,,,,,blue,cross
218.0,7.0,3.0,1.0,3.0,3.0,390.2504630386829,4.0,1.0,phase_1,,,,,,,,,,,,,gray,square
206.0,3.0,3.0,0.0,2.0,2.0,320.1616641599685,4.0,1.0,phase_1,,,,,,,,,,,,,magenta,flipped triangle
0.0,5.0,0.0,1.0,2.0,2.0,342.531275935471,4.0,1.0,phase_1,,,,,,,,,,,,,orange,circle
0.0,4.0,4.0,0.0,5.0,5.0,480.6376849301159,1.0,1.0,phase_2,go,250.0,250.0,1.0,,,,,,,,,cyan,hexagon
0.0,2.0,2.0,0.0,6.0,6.0,272.1050060354173,1.0,1.0,phase_2,go,250.0,250.0,1.0,,,,,,,,,yellow,triangle
0.0,2.0,2.0,0.0,6.0,6.0,272.6279119960964,1.0,1.0,phase_2,go,250.0,250.0,1.0,,,,,,,,,yellow,triangle
0.0,1.0,1.0,0.0,6.0,6.0,261.999414069578,1.0,1.0,phase_2,go,250.0,250.0,1.0,,,,,,,,,green,diamond
0.0,8.0,4.0,1.0,6.0,6.0,284.9116597790271,1.0,1.0,phase_2,go,250.0,250.0,1.0,,,,,,,,,blue,cross
0.0,2.0,2.0,0.0,5.0,5.0,260.3854369372129,1.0,1.0,phase_2,go,250.0,250.0,1.0,,,,,,,,,yellow,triangle
0.0,8.0,4.0,1.0,6.0,0.0,0.0,1.0,1.0,phase_2,stop,250.0,250.0,4.0,,,,,,,,,blue,cross
0.0,2.0,2.0,0.0,5.0,5.0,339.0090849716216,1.0,1.0,phase_2,go,250.0,300.0,1.0,,,,,,,,,yellow,triangle
0.0,7.0,3.0,1.0,5.0,5.0,332.1501789614558,1.0,1.0,phase_2,go,250.0,300.0,1.0,,,,,,,,,gray,square
0.0,6.0,2.0,1.0,5.0,5.0,341.6092770639807,1.0,1.0,phase_2,stop,250.0,300.0,3.0,,,,,,,,,white,I
0.0,5.0,1.0,1.0,6.0,6.0,326.7048348207026,1.0,1.0,phase_2,stop,200.0,300.0,3.0,,,,,,,,,orange,circle
0.0,5.0,1.0,1.0,5.0,5.0,273.1947300489992,1.0,1.0,phase_2,stop,200.0,250.0,3.0,,,,,,,,,orange,circle
0.0,1.0,1.0,0.0,6.0,6.0,275.3030809108168,1.0,1.0,phase_2,go,150.0,250.0,1.0,,,,,,,,,green,diamond
0.0,7.0,3.0,1.0,6.0,6.0,305.3838838823139,1.0,1.0,phase_2,stop,150.0,250.0,3.0,,,,,,,,,gray,square
0.0,8.0,4.0,1.0,6.0,6.0,314.0780047979206,1.0,1.0,phase_2,stop,150.0,200.0,3.0,,,,,,,,,blue,cross
0.0,7.0,3.0,1.0,5.0,5.0,321.3703990913927,1.0,1.0,phase_2,go,150.0,150.0,1.0,,,,,,,,,gray,square
0.0,6.0,2.0,1.0,6.0,6.0,254.2052781209349,1.0,1.0,phase_2,stop,150.0,150.0,3.0,,,,,,,,,white,I
0.0,4.0,4.0,0.0,6.0,6.0,453.7571780383587,1.0,1.0,phase_2,go,150.0,100.0,1.0,,,,,,,,,cyan,hexagon
0.0,8.0,4.0,1.0,5.0,0.0,0.0,1.0,1.0,phase_2,stop,150.0,100.0,4.0,,,,,,,,,blue,cross
0.0,5.0,1.0,1.0,5.0,5.0,372.4498460069299,1.0,1.0,phase_2,go,200.0,100.0,1.0,,,,,,,,,orange,circle
0.0,6.0,2.0,1.0,6.0,0.0,0.0,1.0,1.0,phase_2,stop,200.0,100.0,4.0,,,,,,,,,white,I
0.0,6.0,2.0,1.0,5.0,5.0,366.9575890526175,1.0,1.0,phase_2,stop,200.0,150.0,3.0,,,,,,,,,white,I
0.0,2.0,2.0,0.0,5.0,5.0,469.905441859737,1.0,1.0,phase_2,go,150.0,150.0,1.0,,,,,,,,,yellow,triangle
0.0,7.0,3.0,1.0,6.0,6.0,273.8093079533428,1.0,1.0,phase_2,stop,150.0,150.0,3.0,,,,,,,,,gray,square
0.0,8.0,4.0,1.0,6.0,0.0,0.0,1.0,1.0,phase_2,stop,150.0,100.0,4.0,,,,,,,,,blue,cross
0.0,1.0,1.0,0.0,5.0,5.0,340.1172999292612,1.0,1.0,phase_2,go,150.0,150.0,1.0,,,,,,,,,green,diamond
0.0,1.0,1.0,0.0,6.0,6.0,384.2067078221589,1.0,1.0,phase_2,go,150.0,150.0,1.0,,,,,,,,,green,diamond
0.0,1.0,1.0,0.0,6.0,6.0,378.5601512063294,1.0,1.0,phase_2,go,150.0,150.0,1.0,,,,,,,,,green,diamond
0.0,6.0,2.0,1.0,6.0,6.0,289.0562890097499,1.0,1.0,phase_2,stop,150.0,150.0,3.0,,,,,,,,,white,I
0.0,6.0,2.0,1.0,6.0,0.0,0.0,1.0,1.0,phase_2,stop,150.0,100.0,4.0,,,,,,,,,white,I
0.0,8.0,4.0,1.0,5.0,0.0,0.0,1.0,1.0,phase_2,stop,150.0,150.0,4.0,,,,,,,,,blue,cross
0.0,6.0,2.0,1.0,6.0,6.0,311.6776219103485,1.0,1.0,phase_2,go,200.0,150.0,1.0,,,,,,,,,white,I
0.0,2.0,2.0,0.0,5.0,5.0,372.9923628270626,1.0,1.0,phase_2,go,200.0,150.0,1.0,,,,,,,,,yellow,triangle
0.0,3.0,3.0,0.0,5.0,5.0,367.5872071180492,1.0,1.0,phase_2,go,200.0,150.0,1.0,,,,,,,,,magenta,flipped triangle
0.0,7.0,3.0,1.0,5.0,5.0,367.6262688823044,1.0,1.0,phase_2,stop,200.0,150.0,3.0,,,,,,,,,gray,square
0.0,6.0,2.0,1.0,6.0,0.0,0.0,1.0,1.0,phase_2,stop,150.0,150.0,4.0,,,,,,,,,white,I
0.0,4.0,4.0,0.0,6.0,6.0,515.2432729955763,2.0,1.0,phase_2,go,150.0,200.0,1.0,,,,,,,,,cyan,hexagon
0.0,2.0,2.0,0.0,5.0,5.0,258.9667800348252,2.0,1.0,phase_2,go,150.0,200.0,1.0,,,,,,,,,yellow,triangle
0.0,6.0,2.0,1.0,5.0,5.0,450.9003439452499,2.0,1.0,phase_2,go,150.0,200.0,1.0,,,,,,,,,white,I
0.0,3.0,3.0,0.0,6.0,6.0,294.6479478850961,2.0,1.0,phase_2,go,150.0,200.0,1.0,,,,,,,,,magenta,flipped triangle
0.0,3.0,3.0,0.0,6.0,6.0,288.9643681701273,2.0,1.0,phase_2,go,150.0,200.0,1.0,,,,,,,,,magenta,flipped triangle
0.0,6.0,2.0,1.0,5.0,0.0,0.0,2.0,1.0,phase_2,stop,150.0,200.0,4.0,,,,,,,,,white,I
0.0,5.0,1.0,1.0,5.0,5.0,351.1240850202739,2.0,1.0,phase_2,stop,200.0,200.0,3.0,,,,,,,,,orange,circle
0.0,1.0,1.0,0.0,5.0,5.0,407.5988749973476,2.0,1.0,phase_2,go,150.0,200.0,1.0,,,,,,,,,green,diamond
0.0,5.0,1.0,1.0,6.0,6.0,382.1509759873152,2.0,1.0,phase_2,stop,150.0,200.0,3.0,,,,,,,,,orange,circle
0.0,1.0,1.0,0.0,6.0,6.0,467.3316071275621,2.0,1.0,phase_2,go,150.0,150.0,1.0,,,,,,,,,green,diamond
0.0,1.0,1.0,0.0,5.0,5.0,391.0813010297715,2.0,1.0,phase_2,go,150.0,150.0,1.0,,,,,,,,,green,diamond
0.0,1.0,1.0,0.0,5.0,5.0,308.6050539277494,2.0,1.0,phase_2,go,150.0,150.0,1.0,,,,,,,,,green,diamond
0.0,7.0,3.0,1.0,6.0,6.0,301.5734599903226,2.0,1.0,phase_2,stop,150.0,150.0,3.0,,,,,,,,,gray,square
0.0,2.0,2.0,0.0,6.0,6.0,323.5096780117601,2.0,1.0,phase_2,go,150.0,100.0,1.0,,,,,,,,,yellow,triangle
0.0,5.0,1.0,1.0,5.0,5.0,361.3548178691417,2.0,1.0,phase_2,go,150.0,100.0,1.0,,,,,,,,,orange,circle
0.0,7.0,3.0,1.0,6.0,0.0,0.0,2.0,1.0,phase_2,stop,150.0,100.0,4.0,,,,,,,,,gray,square
0.0,6.0,2.0,1.0,5.0,0.0,0.0,2.0,1.0,phase_2,stop,150.0,150.0,4.0,,,,,,,,,white,I
0.0,5.0,1.0,1.0,6.0,6.0,335.6854028534144,2.0,1.0,phase_2,stop,200.0,150.0,3.0,,,,,,,,,orange,circle
0.0,1.0,1.0,0.0,5.0,5.0,446.5638641268015,2.0,1.0,phase_2,go,200.0,100.0,1.0,,,,,,,,,green,diamond
0.0,7.0,3.0,1.0,5.0,5.0,391.7342689819634,2.0,1.0,phase_2,stop,200.0,100.0,3.0,,,,,,,,,gray,square
0.0,7.0,3.0,1.0,5.0,0.0,0.0,2.0,1.0,phase_2,stop,150.0,100.0,4.0,,,,,,,,,gray,square
0.0,4.0,4.0,0.0,6.0,6.0,344.3910148926079,2.0,1.0,phase_2,go,200.0,100.0,1.0,,,,,,,,,cyan,hexagon
0.0,4.0,4.0,0.0,5.0,5.0,419.9271870311349,2.0,1.0,phase_2,go,200.0,100.0,1.0,,,,,,,,,cyan,hexagon
0.0,6.0,2.0,1.0,6.0,6.0,300.063248956576,2.0,1.0,phase_2,stop,200.0,100.0,3.0,,,,,,,,,white,I
0.0,2.0,2.0,0.0,5.0,5.0,331.0128219891339,2.0,1.0,phase_2,go,200.0,50.0,1.0,,,,,,,,,yellow,triangle
0.0,5.0,1.0,1.0,6.0,0.0,0.0,2.0,1.0,phase_2,stop,200.0,50.0,4.0,,,,,,,,,orange,circle
0.0,2.0,2.0,0.0,5.0,5.0,388.7695549055934,2.0,1.0,phase_2,go,200.0,100.0,1.0,,,,,,,,,yellow,triangle
0.0,7.0,3.0,1.0,6.0,6.0,325.1390201039612,2.0,1.0,phase_2,stop,200.0,100.0,3.0,,,,,,,,,gray,square
0.0,6.0,2.0,1.0,6.0,0.0,0.0,2.0,1.0,phase_2,stop,200.0,50.0,4.0,,,,,,,,,white,I
0.0,5.0,1.0,1.0,5.0,0.0,0.0,2.0,1.0,phase_2,stop,200.0,100.0,4.0,,,,,,,,,orange,circle
0.0,4.0,4.0,0.0,5.0,5.0,393.1747779715806,2.0,1.0,phase_2,go,250.0,100.0,1.0,,,,,,,,,cyan,hexagon
0.0,6.0,2.0,1.0,6.0,0.0,0.0,2.0,1.0,phase_2,stop,250.0,100.0,4.0,,,,,,,,,white,I
0.0,3.0,3.0,0.0,5.0,5.0,439.5287418738007,2.0,1.0,phase_2,go,250.0,150.0,1.0,,,,,,,,,magenta,flipped triangle
0.0,1.0,1.0,0.0,5.0,5.0,441.6811189148575,2.0,1.0,phase_2,go,250.0,150.0,1.0,,,,,,,,,green,diamond
0.0,8.0,4.0,1.0,5.0,5.0,479.0894950274378,2.0,1.0,phase_2,go,250.0,150.0,1.0,,,,,,,,,blue,cross
0.0,5.0,1.0,1.0,6.0,6.0,760.3366950061172,2.0,1.0,phase_2,go,250.0,150.0,1.0,,,,,,,,,orange,circle
0.0,6.0,2.0,1.0,5.0,0.0,0.0,3.0,1.0,phase_2,stop,250.0,150.0,4.0,,,,,,,,,white,I
0.0,8.0,4.0,1.0,6.0,6.0,327.0597790833562,3.0,1.0,phase_2,stop,300.0,150.0,3.0,,,,,,,,,blue,cross
0.0,3.0,3.0,0.0,6.0,6.0,475.6527310237288,3.0,1.0,phase_2,go,300.0,100.0,1.0,,,,,,,,,magenta,flipped triangle
0.0,3.0,3.0,0.0,6.0,6.0,364.052991848439,3.0,1.0,phase_2,go,300.0,100.0,1.0,,,,,,,,,magenta,flipped triangle
0.0,8.0,4.0,1.0,6.0,6.0,356.0266969725489,3.0,1.0,phase_2,go,300.0,100.0,1.0,,,,,,,,,blue,cross
0.0,3.0,3.0,0.0,5.0,5.0,419.3431048188358,3.0,1.0,phase_2,go,300.0,100.0,1.0,,,,,,,,,magenta,flipped triangle
0.0,7.0,3.0,1.0,6.0,6.0,340.1090260595083,3.0,1.0,phase_2,go,300.0,100.0,1.0,,,,,,,,,gray,square
0.0,8.0,4.0,1.0,6.0,6.0,346.9684510491788,3.0,1.0,phase_2,stop,300.0,100.0,3.0,,,,,,,,,blue,cross
0.0,6.0,2.0,1.0,5.0,5.0,1161.9762910995632,3.0,1.0,phase_2,go,300.0,50.0,1.0,,,,,,,,,white,I
0.0,3.0,3.0,0.0,6.0,6.0,391.8433480430394,3.0,1.0,phase_2,go,300.0,50.0,1.0,,,,,,,,,magenta,flipped triangle
0.0,2.0,2.0,0.0,6.0,6.0,319.1381918732077,3.0,1.0,phase_2,go,300.0,50.0,1.0,,,,,,,,,yellow,triangle
0.0,7.0,3.0,1.0,5.0,5.0,448.2754629570991,3.0,1.0,phase_2,go,300.0,50.0,1.0,,,,,,,,,gray,square
0.0,1.0,1.0,0.0,5.0,5.0,352.4134918116033,3.0,1.0,phase_2,go,300.0,50.0,1.0,,,,,,,,,green,diamond
0.0,3.0,3.0,0.0,6.0,6.0,388.7515370734036,3.0,1.0,phase_2,go,300.0,50.0,1.0,,,,,,,,,magenta,flipped triangle
0.0,1.0,1.0,0.0,5.0,5.0,319.7096739895642,3.0,1.0,phase_2,go,300.0,50.0,1.0,,,,,,,,,green,diamond
0.0,1.0,1.0,0.0,6.0,6.0,299.8342039063573,3.0,1.0,phase_2,go,300.0,50.0,1.0,,,,,,,,,green,diamond
0.0,7.0,3.0,1.0,6.0,0.0,0.0,3.0,1.0,phase_2,stop,300.0,50.0,4.0,,,,,,,,,gray,square
0.0,1.0,1.0,0.0,5.0,5.0,340.7003530301153,3.0,1.0,phase_2,go,300.0,100.0,1.0,,,,,,,,,green,diamond
0.0,5.0,1.0,1.0,5.0,5.0,372.9261760599911,3.0,1.0,phase_2,stop,300.0,100.0,3.0,,,,,,,,,orange,circle
0.0,6.0,2.0,1.0,6.0,6.0,315.6821350567043,3.0,1.0,phase_2,stop,250.0,100.0,3.0,,,,,,,,,white,I
0.0,7.0,3.0,1.0,5.0,5.0,417.2523270826787,3.0,1.0,phase_2,go,250.0,50.0,1.0,,,,,,,,,gray,square
0.0,1.0,1.0,0.0,5.0,5.0,299.5221971068531,3.0,1.0,phase_2,go,250.0,50.0,1.0,,,,,,,,,green,diamond
0.0,4.0,4.0,0.0,5.0,5.0,409.6426258329302,3.0,1.0,phase_2,go,250.0,50.0,1.0,,,,,,,,,cyan,hexagon
0.0,2.0,2.0,0.0,6.0,6.0,306.7024738993495,3.0,1.0,phase_2,go,250.0,50.0,1.0,,,,,,,,,yellow,triangle
0.0,1.0,1.0,0.0,5.0,5.0,384.623329853639,3.0,1.0,phase_2,go,250.0,50.0,1.0,,,,,,,,,green,diamond
0.0,2.0,2.0,0.0,5.0,5.0,368.3458410669118,3.0,1.0,phase_2,go,250.0,50.0,1.0,,,,,,,,,yellow,triangle
0.0,8.0,4.0,1.0,5.0,5.0,376.11492886208,3.0,1.0,phase_2,stop,250.0,50.0,3.0,,,,,,,,,blue,cross
0.0,5.0,1.0,1.0,6.0,0.0,0.0,3.0,1.0,phase_2,stop,200.0,50.0,4.0,,,,,,,,,orange,circle
0.0,4.0,4.0,0.0,5.0,5.0,285.5766490101814,3.0,1.0,phase_2,go,200.0,100.0,1.0,,,,,,,,,cyan,hexagon
0.0,7.0,3.0,1.0,6.0,6.0,303.0161699280143,3.0,1.0,phase_2,stop,200.0,100.0,3.0,,,,,,,,,gray,square
0.0,3.0,3.0,0.0,6.0,6.0,507.9375091008842,3.0,1.0,phase_2,go,200.0,50.0,1.0,,,,,,,,,magenta,flipped triangle
0.0,7.0,3.0,1.0,6.0,0.0,0.0,3.0,1.0,phase_2,stop,200.0,50.0,4.0,,,,,,,,,gray,square
0.0,3.0,3.0,0.0,6.0,6.0,357.4854359030723,3.0,1.0,phase_2,go,200.0,100.0,1.0,,,,,,,,,magenta,flipped triangle
0.0,3.0,3.0,0.0,6.0,6.0,349.4063559919595,3.0,1.0,phase_2,go,200.0,100.0,1.0,,,,,,,,,magenta,flipped triangle
0.0,7.0,3.0,1.0,5.0,5.0,355.4410832002759,3.0,1.0,phase_2,stop,200.0,100.0,3.0,,,,,,,,,gray,square
0.0,2.0,2.0,0.0,6.0,6.0,344.3684109952301,3.0,1.0,phase_2,go,150.0,100.0,1.0,,,,,,,,,yellow,triangle
0.0,8.0,4.0,1.0,6.0,6.0,699.9016220215708,4.0,1.0,phase_2,go,150.0,100.0,1.0,,,,,,,,,blue,cross
0.0,8.0,4.0,1.0,5.0,5.0,324.8903669882566,4.0,1.0,phase_2,go,150.0,100.0,1.0,,,,,,,,,blue,cross
0.0,4.0,4.0,0.0,5.0,5.0,444.2466208711266,4.0,1.0,phase_2,go,150.0,100.0,1.0,,,,,,,,,cyan,hexagon
0.0,2.0,2.0,0.0,5.0,5.0,323.5902299638837,4.0,1.0,phase_2,go,150.0,100.0,1.0,,,,,,,,,yellow,triangle
0.0,2.0,2.0,0.0,5.0,5.0,400.5163097754121,4.0,1.0,phase_2,go,150.0,100.0,1.0,,,,,,,,,yellow,triangle
0.0,1.0,1.0,0.0,6.0,6.0,385.6340828351676,4.0,1.0,phase_2,go,150.0,100.0,1.0,,,,,,,,,green,diamond
0.0,8.0,4.0,1.0,6.0,0.0,0.0,4.0,1.0,phase_2,stop,150.0,100.0,4.0,,,,,,,,,blue,cross
0.0,2.0,2.0,0.0,5.0,5.0,549.3358848616481,4.0,1.0,phase_2,go,150.0,150.0,1.0,,,,,,,,,yellow,triangle
0.0,7.0,3.0,1.0,5.0,0.0,0.0,4.0,1.0,phase_2,stop,150.0,150.0,4.0,,,,,,,,,gray,square
0.0,3.0,3.0,0.0,6.0,6.0,500.07188809104264,4.0,1.0,phase_2,go,200.0,150.0,1.0,,,,,,,,,magenta,flipped triangle
0.0,5.0,1.0,1.0,6.0,0.0,0.0,4.0,1.0,phase_2,stop,200.0,150.0,4.0,,,,,,,,,orange,circle
0.0,2.0,2.0,0.0,5.0,5.0,349.6692080516368,4.0,1.0,phase_2,go,200.0,200.0,1.0,,,,,,,,,yellow,triangle
0.0,7.0,3.0,1.0,6.0,6.0,378.824156941846,4.0,1.0,phase_2,stop,200.0,200.0,3.0,,,,,,,,,gray,square
0.0,5.0,1.0,1.0,6.0,0.0,0.0,4.0,1.0,phase_2,stop,200.0,150.0,4.0,,,,,,,,,orange,circle
0.0,2.0,2.0,0.0,5.0,5.0,452.787360874936,4.0,1.0,phase_2,go,200.0,200.0,1.0,,,,,,,,,yellow,triangle
0.0,3.0,3.0,0.0,6.0,6.0,346.5274919290095,4.0,1.0,phase_2,go,200.0,200.0,1.0,,,,,,,,,magenta,flipped triangle
0.0,4.0,4.0,0.0,6.0,6.0,476.4997691381722,4.0,1.0,phase_2,go,200.0,200.0,1.0,,,,,,,,,cyan,hexagon
0.0,4.0,4.0,0.0,6.0,6.0,368.7828879337758,4.0,1.0,phase_2,go,200.0,200.0,1.0,,,,,,,,,cyan,hexagon
0.0,6.0,2.0,1.0,6.0,0.0,0.0,4.0,1.0,phase_2,stop,200.0,200.0,4.0,,,,,,,,,white,I
0.0,7.0,3.0,1.0,5.0,0.0,0.0,4.0,1.0,phase_2,stop,200.0,250.0,4.0,,,,,,,,,gray,square
0.0,2.0,2.0,0.0,6.0,6.0,423.2597330119461,4.0,1.0,phase_2,go,250.0,250.0,1.0,,,,,,,,,yellow,triangle
0.0,3.0,3.0,0.0,5.0,5.0,478.5543819889426,4.0,1.0,phase_2,go,250.0,250.0,1.0,,,,,,,,,magenta,flipped triangle
0.0,8.0,4.0,1.0,6.0,6.0,453.8686219602823,4.0,1.0,phase_2,stop,250.0,250.0,3.0,,,,,,,,,blue,cross
0.0,3.0,3.0,0.0,5.0,5.0,397.1353669185191,4.0,1.0,phase_2,go,250.0,200.0,1.0,,,,,,,,,magenta,flipped triangle
0.0,6.0,2.0,1.0,6.0,0.0,0.0,4.0,1.0,phase_2,stop,250.0,200.0,4.0,,,,,,,,,white,I
0.0,3.0,3.0,0.0,5.0,5.0,493.2951128575951,4.0,1.0,phase_2,go,250.0,250.0,1.0,,,,,,,,,magenta,flipped triangle
0.0,2.0,2.0,0.0,5.0,5.0,367.2424082178622,4.0,1.0,phase_2,go,250.0,250.0,1.0,,,,,,,,,yellow,triangle
0.0,1.0,1.0,0.0,6.0,6.0,339.3121371045708,4.0,1.0,phase_2,go,250.0,250.0,1.0,,,,,,,,,green,diamond
0.0,4.0,4.0,0.0,5.0,5.0,306.6568952053785,4.0,1.0,phase_2,go,250.0,250.0,1.0,,,,,,,,,cyan,hexagon
0.0,2.0,2.0,0.0,6.0,6.0,381.1063999310136,4.0,1.0,phase_2,go,250.0,250.0,1.0,,,,,,,,,yellow,triangle
0.0,3.0,3.0,0.0,5.0,5.0,417.5796180497855,4.0,1.0,phase_2,go,250.0,250.0,1.0,,,,,,,,,magenta,flipped triangle
0.0,4.0,4.0,0.0,5.0,5.0,475.842182058841,4.0,1.0,phase_2,go,250.0,250.0,1.0,,,,,,,,,cyan,hexagon
0.0,3.0,3.0,0.0,6.0,6.0,363.3345658890903,4.0,1.0,phase_2,go,250.0,250.0,1.0,,,,,,,,,magenta,flipped triangle
0.0,5.0,1.0,1.0,5.0,5.0,818.1811331305653,4.0,1.0,phase_2,go,250.0,250.0,1.0,,,,,,,,,orange,circle
0.0,8.0,4.0,1.0,5.0,0.0,0.0,4.0,1.0,phase_2,stop,250.0,250.0,4.0,,,,,,,,,blue,cross
0.0,3.0,3.0,0.0,6.0,6.0,433.4943008143455,4.0,1.0,phase_2,go,300.0,250.0,1.0,,,,,,,,,magenta,flipped triangle
0.0,4.0,4.0,0.0,5.0,5.0,452.380689792335,5.0,1.0,phase_2,go,300.0,250.0,1.0,,,,,,,,,cyan,hexagon
0.0,8.0,4.0,1.0,5.0,0.0,0.0,5.0,1.0,phase_2,stop,300.0,250.0,4.0,,,,,,,,,blue,cross
0.0,1.0,1.0,0.0,6.0,6.0,315.3331561479717,5.0,1.0,phase_2,go,350.0,250.0,1.0,,,,,,,,,green,diamond
0.0,5.0,1.0,1.0,6.0,6.0,349.1385909728706,5.0,1.0,phase_2,stop,350.0,250.0,3.0,,,,,,,,,orange,circle
0.0,8.0,4.0,1.0,6.0,6.0,658.3235329017043,5.0,1.0,phase_2,go,350.0,200.0,1.0,,,,,,,,,blue,cross
0.0,5.0,1.0,1.0,5.0,5.0,373.9595839288085,5.0,1.0,phase_2,stop,350.0,200.0,3.0,,,,,,,,,orange,circle
0.0,4.0,4.0,0.0,5.0,5.0,344.9028469622135,5.0,1.0,phase_2,go,300.0,200.0,1.0,,,,,,,,,cyan,hexagon
0.0,2.0,2.0,0.0,5.0,5.0,392.4597189761698,5.0,1.0,phase_2,go,300.0,200.0,1.0,,,,,,,,,yellow,triangle
0.0,7.0,3.0,1.0,6.0,6.0,824.4225170928985,5.0,1.0,phase_2,go,300.0,200.0,1.0,,,,,,,,,gray,square
0.0,5.0,1.0,1.0,5.0,5.0,647.2397560719401,5.0,1.0,phase_2,go,300.0,200.0,1.0,,,,,,,,,orange,circle
0.0,8.0,4.0,1.0,6.0,0.0,0.0,5.0,1.0,phase_2,stop,300.0,200.0,4.0,,,,,,,,,blue,cross
0.0,2.0,2.0,0.0,6.0,6.0,486.6627319715917,5.0,1.0,phase_2,go,300.0,250.0,1.0,,,,,,,,,yellow,triangle
0.0,5.0,1.0,1.0,6.0,0.0,0.0,5.0,1.0,phase_2,stop,300.0,250.0,4.0,,,,,,,,,orange,circle
0.0,1.0,1.0,0.0,5.0,5.0,414.2647390253842,5.0,1.0,phase_2,go,300.0,300.0,1.0,,,,,,,,,green,diamond
0.0,7.0,3.0,1.0,5.0,5.0,414.0006091911345,5.0,1.0,phase_2,stop,300.0,300.0,3.0,,,,,,,,,gray,square
0.0,8.0,4.0,1.0,5.0,0.0,0.0,5.0,1.0,phase_2,stop,250.0,300.0,4.0,,,,,,,,,blue,cross
0.0,6.0,2.0,1.0,5.0,0.0,0.0,5.0,1.0,phase_2,stop,300.0,300.0,4.0,,,,,,,,,white,I
0.0,2.0,2.0,0.0,6.0,6.0,397.7510309778154,5.0,1.0,phase_2,go,350.0,300.0,1.0,,,,,,,,,yellow,triangle
0.0,4.0,4.0,0.0,6.0,6.0,473.7001131288707,5.0,1.0,phase_2,go,350.0,300.0,1.0,,,,,,,,,cyan,hexagon
0.0,3.0,3.0,0.0,5.0,5.0,458.0955959390849,5.0,1.0,phase_2,go,350.0,300.0,1.0,,,,,,,,,magenta,flipped triangle
0.0,6.0,2.0,1.0,5.0,0.0,0.0,5.0,1.0,phase_2,stop,350.0,300.0,4.0,,,,,,,,,white,I
0.0,4.0,4.0,0.0,6.0,6.0,472.133802017197,5.0,1.0,phase_2,go,400.0,300.0,1.0,,,,,,,,,cyan,hexagon
0.0,4.0,4.0,0.0,5.0,5.0,576.3300380203873,5.0,1.0,phase_2,go,400.0,300.0,1.0,,,,,,,,,cyan,hexagon
0.0,3.0,3.0,0.0,6.0,6.0,422.7765391115099,5.0,1.0,phase_2,go,400.0,300.0,1.0,,,,,,,,,magenta,flipped triangle
0.0,3.0,3.0,0.0,5.0,5.0,433.4303080104291,5.0,1.0,phase_2,go,400.0,300.0,1.0,,,,,,,,,magenta,flipped triangle
0.0,2.0,2.0,0.0,6.0,6.0,478.8931119255721,5.0,1.0,phase_2,go,400.0,300.0,1.0,,,,,,,,,yellow,triangle
0.0,5.0,1.0,1.0,5.0,5.0,544.6383499074727,5.0,1.0,phase_2,stop,400.0,300.0,3.0,,,,,,,,,orange,circle
0.0,4.0,4.0,0.0,5.0,5.0,513.1618301384151,5.0,1.0,phase_2,go,350.0,300.0,1.0,,,,,,,,,cyan,hexagon
0.0,6.0,2.0,1.0,6.0,6.0,1012.807501014322,5.0,1.0,phase_2,go,350.0,300.0,1.0,,,,,,,,,white,I
0.0,5.0,1.0,1.0,6.0,0.0,0.0,5.0,1.0,phase_2,stop,350.0,300.0,4.0,,,,,,,,,orange,circle
0.0,4.0,4.0,0.0,6.0,6.0,445.4819709062576,5.0,1.0,phase_2,go,350.0,350.0,1.0,,,,,,,,,cyan,hexagon
0.0,5.0,1.0,1.0,5.0,0.0,0.0,5.0,1.0,phase_2,stop,350.0,350.0,4.0,,,,,,,,,orange,circle
0.0,5.0,1.0,1.0,6.0,0.0,0.0,5.0,1.0,phase_2,stop,400.0,350.0,4.0,,,,,,,,,orange,circle
0.0,6.0,2.0,1.0,5.0,5.0,908.7509119417518,5.0,1.0,phase_2,go,400.0,400.0,1.0,,,,,,,,,white,I
0.0,4.0,4.0,0.0,6.0,6.0,401.3441298156976,5.0,1.0,phase_2,go,400.0,400.0,1.0,,,,,,,,,cyan,hexagon
0.0,7.0,3.0,1.0,6.0,0.0,0.0,5.0,1.0,phase_2,stop,400.0,400.0,4.0,,,,,,,,,gray,square
0.0,5.0,1.0,1.0,6.0,0.0,0.0,6.0,1.0,phase_2,stop,400.0,450.0,4.0,,,,,,,,,orange,circle
0.0,4.0,4.0,0.0,6.0,6.0,347.6754559669643,6.0,1.0,phase_2,go,400.0,500.0,1.0,,,,,,,,,cyan,hexagon
0.0,2.0,2.0,0.0,6.0,6.0,385.6604569591582,6.0,1.0,phase_2,go,400.0,500.0,1.0,,,,,,,,,yellow,triangle
0.0,8.0,4.0,1.0,6.0,6.0,852.0746799185872,6.0,1.0,phase_2,go,400.0,500.0,1.0,,,,,,,,,blue,cross
0.0,6.0,2.0,1.0,6.0,6.0,565.1992068160325,6.0,1.0,phase_2,go,400.0,500.0,1.0,,,,,,,,,white,I
0.0,6.0,2.0,1.0,5.0,0.0,0.0,6.0,1.0,phase_2,stop,400.0,500.0,4.0,,,,,,,,,white,I
0.0,7.0,3.0,1.0,6.0,6.0,730.7925999630243,6.0,1.0,phase_2,stop,450.0,500.0,3.0,,,,,,,,,gray,square
0.0,1.0,1.0,0.0,6.0,6.0,486.6694950032979,6.0,1.0,phase_2,go,450.0,450.0,1.0,,,,,,,,,green,diamond
0.0,2.0,2.0,0.0,5.0,5.0,480.1509079989046,6.0,1.0,phase_2,go,450.0,450.0,1.0,,,,,,,,,yellow,triangle
0.0,1.0,1.0,0.0,6.0,6.0,493.5919530689716,6.0,1.0,phase_2,go,450.0,450.0,1.0,,,,,,,,,green,diamond
0.0,6.0,2.0,1.0,5.0,0.0,0.0,6.0,1.0,phase_2,stop,450.0,450.0,4.0,,,,,,,,,white,I
0.0,6.0,2.0,1.0,5.0,5.0,702.6246320456266,6.0,1.0,phase_2,go,500.0,450.0,1.0,,,,,,,,,white,I
0.0,2.0,2.0,0.0,6.0,6.0,461.6263159550726,6.0,1.0,phase_2,go,500.0,450.0,1.0,,,,,,,,,yellow,triangle
0.0,2.0,2.0,0.0,5.0,5.0,543.45085285604,6.0,1.0,phase_2,go,500.0,450.0,1.0,,,,,,,,,yellow,triangle
0.0,7.0,3.0,1.0,5.0,0.0,0.0,6.0,1.0,phase_2,stop,500.0,450.0,4.0,,,,,,,,,gray,square
0.0,8.0,4.0,1.0,5.0,5.0,698.1206459458917,6.0,1.0,phase_2,stop,550.0,450.0,3.0,,,,,,,,,blue,cross
0.0,8.0,4.0,1.0,5.0,0.0,0.0,6.0,1.0,phase_2,stop,500.0,450.0,4.0,,,,,,,,,blue,cross
0.0,2.0,2.0,0.0,6.0,6.0,362.9622051957994,6.0,1.0,phase_2,go,550.0,450.0,1.0,,,,,,,,,yellow,triangle
0.0,5.0,1.0,1.0,5.0,5.0,819.0790880471468,6.0,1.0,phase_2,go,550.0,450.0,1.0,,,,,,,,,orange,circle
0.0,2.0,2.0,0.0,6.0,6.0,488.83923306129867,6.0,1.0,phase_2,go,550.0,450.0,1.0,,,,,,,,,yellow,triangle
0.0,7.0,3.0,1.0,5.0,0.0,0.0,6.0,1.0,phase_2,stop,550.0,450.0,4.0,,,,,,,,,gray,square
0.0,3.0,3.0,0.0,5.0,5.0,495.570883853361,6.0,1.0,phase_2,go,600.0,450.0,1.0,,,,,,,,,magenta,flipped triangle
0.0,1.0,1.0,0.0,6.0,6.0,366.3983289152384,6.0,1.0,phase_2,go,600.0,450.0,1.0,,,,,,,,,green,diamond
0.0,6.0,2.0,1.0,6.0,0.0,0.0,6.0,1.0,phase_2,stop,600.0,450.0,4.0,,,,,,,,,white,I
0.0,8.0,4.0,1.0,5.0,5.0,767.3281540628523,6.0,1.0,phase_2,stop,600.0,500.0,3.0,,,,,,,,,blue,cross
0.0,3.0,3.0,0.0,5.0,5.0,591.8068620376289,6.0,1.0,phase_2,go,550.0,500.0,1.0,,,,,,,,,magenta,flipped triangle
0.0,1.0,1.0,0.0,6.0,6.0,452.7950319461524,6.0,1.0,phase_2,go,550.0,500.0,1.0,,,,,,,,,green,diamond
0.0,8.0,4.0,1.0,5.0,0.0,0.0,6.0,1.0,phase_2,stop,550.0,500.0,4.0,,,,,,,,,blue,cross
0.0,6.0,2.0,1.0,5.0,5.0,900.4407289903611,6.0,1.0,phase_2,go,600.0,500.0,1.0,,,,,,,,,white,I
0.0,1.0,1.0,0.0,6.0,6.0,418.4761820361018,6.0,1.0,phase_2,go,600.0,500.0,1.0,,,,,,,,,green,diamond
0.0,5.0,1.0,1.0,6.0,6.0,628.3486341126263,6.0,1.0,phase_2,stop,600.0,500.0,3.0,,,,,,,,,orange,circle
0.0,8.0,4.0,1.0,5.0,0.0,0.0,6.0,1.0,phase_2,stop,600.0,450.0,4.0,,,,,,,,,blue,cross
0.0,8.0,4.0,1.0,6.0,6.0,788.5483491700143,6.0,1.0,phase_2,go,650.0,450.0,1.0,,,,,,,,,blue,cross
0.0,8.0,4.0,1.0,6.0,0.0,0.0,6.0,1.0,phase_2,stop,650.0,450.0,4.0,,,,,,,,,blue,cross
0.0,1.0,1.0,0.0,5.0,5.0,442.3488709144294,6.0,1.0,phase_2,go,650.0,500.0,1.0,,,,,,,,,green,diamond
0.0,4.0,4.0,0.0,6.0,6.0,560.4344150051475,6.0,1.0,phase_2,go,650.0,500.0,1.0,,,,,,,,,cyan,hexagon
0.0,6.0,2.0,1.0,5.0,5.0,740.616048919037,7.0,1.0,phase_2,stop,650.0,500.0,3.0,,,,,,,,,white,I
0.0,3.0,3.0,0.0,5.0,5.0,474.4512280449271,7.0,1.0,phase_2,go,600.0,500.0,1.0,,,,,,,,,magenta,flipped triangle
0.0,5.0,1.0,1.0,6.0,0.0,0.0,7.0,1.0,phase_2,stop,600.0,500.0,4.0,,,,,,,,,orange,circle
0.0,5.0,1.0,1.0,5.0,0.0,0.0,7.0,1.0,phase_2,stop,600.0,550.0,4.0,,,,,,,,,orange,circle
0.0,7.0,3.0,1.0,5.0,5.0,800.488323206082,7.0,1.0,phase_2,go,650.0,550.0,1.0,,,,,,,,,gray,square
0.0,4.0,4.0,0.0,5.0,5.0,657.2237890213728,7.0,1.0,phase_2,go,650.0,550.0,1.0,,,,,,,,,cyan,hexagon
0.0,8.0,4.0,1.0,5.0,0.0,0.0,7.0,1.0,phase_2,stop,650.0,550.0,4.0,,,,,,,,,blue,cross
0.0,7.0,3.0,1.0,5.0,5.0,777.1373309660703,7.0,1.0,phase_2,go,700.0,550.0,1.0,,,,,,,,,gray,square
0.0,2.0,2.0,0.0,5.0,5.0,432.402228936553,7.0,1.0,phase_2,go,700.0,550.0,1.0,,,,,,,,,yellow,triangle
0.0,4.0,4.0,0.0,5.0,5.0,512.3676599469036,7.0,1.0,phase_2,go,700.0,550.0,1.0,,,,,,,,,cyan,hexagon
0.0,1.0,1.0,0.0,6.0,6.0,416.7919810861349,7.0,1.0,phase_2,go,700.0,550.0,1.0,,,,,,,,,green,diamond
0.0,3.0,3.0,0.0,5.0,5.0,468.9525759313255,7.0,1.0,phase_2,go,700.0,550.0,1.0,,,,,,,,,magenta,flipped triangle
0.0,1.0,1.0,0.0,5.0,5.0,414.5224499516189,7.0,1.0,phase_2,go,700.0,550.0,1.0,,,,,,,,,green,diamond
0.0,4.0,4.0,0.0,6.0,6.0,498.9129488822073,7.0,1.0,phase_2,go,700.0,550.0,1.0,,,,,,,,,cyan,hexagon
0.0,5.0,1.0,1.0,5.0,5.0,868.744659004733,7.0,1.0,phase_2,stop,700.0,550.0,3.0,,,,,,,,,orange,circle
0.0,5.0,1.0,1.0,5.0,5.0,606.1849831603467,7.0,1.0,phase_2,stop,650.0,550.0,3.0,,,,,,,,,orange,circle
0.0,3.0,3.0,0.0,5.0,5.0,514.2052350565791,7.0,1.0,phase_2,go,600.0,550.0,1.0,,,,,,,,,magenta,flipped triangle
0.0,7.0,3.0,1.0,6.0,0.0,0.0,7.0,1.0,phase_2,stop,600.0,550.0,4.0,,,,,,,,,gray,square
0.0,8.0,4.0,1.0,5.0,0.0,0.0,7.0,1.0,phase_2,stop,600.0,600.0,4.0,,,,,,,,,blue,cross
0.0,8.0,4.0,1.0,6.0,0.0,0.0,7.0,1.0,phase_2,stop,650.0,600.0,4.0,,,,,,,,,blue,cross
0.0,4.0,4.0,0.0,5.0,5.0,608.0598409753293,7.0,1.0,phase_2,go,650.0,650.0,1.0,,,,,,,,,cyan,hexagon
0.0,4.0,4.0,0.0,6.0,6.0,504.45633195340633,7.0,1.0,phase_2,go,650.0,650.0,1.0,,,,,,,,,cyan,hexagon
0.0,6.0,2.0,1.0,5.0,5.0,768.0527351330966,7.0,1.0,phase_2,stop,650.0,650.0,3.0,,,,,,,,,white,I
0.0,4.0,4.0,0.0,6.0,6.0,391.9706591404974,7.0,1.0,phase_2,go,600.0,650.0,1.0,,,,,,,,,cyan,hexagon
0.0,3.0,3.0,0.0,5.0,5.0,488.9187421649694,7.0,1.0,phase_2,go,600.0,650.0,1.0,,,,,,,,,magenta,flipped triangle
0.0,1.0,1.0,0.0,5.0,5.0,431.4096269663423,7.0,1.0,phase_2,go,600.0,650.0,1.0,,,,,,,,,green,diamond
0.0,5.0,1.0,1.0,6.0,0.0,0.0,7.0,1.0,phase_2,stop,600.0,650.0,4.0,,,,,,,,,orange,circle
0.0,8.0,4.0,1.0,5.0,0.0,0.0,7.0,1.0,phase_2,stop,600.0,700.0,4.0,,,,,,,,,blue,cross
0.0,4.0,4.0,0.0,5.0,5.0,517.5045940559357,7.0,1.0,phase_2,go,650.0,700.0,1.0,,,,,,,,,cyan,hexagon
0.0,5.0,1.0,1.0,5.0,5.0,1074.1065298207104,7.0,1.0,phase_2,go,650.0,700.0,1.0,,,,,,,,,orange,circle
0.0,5.0,1.0,1.0,6.0,0.0,0.0,7.0,1.0,phase_2,stop,650.0,700.0,4.0,,,,,,,,,orange,circle
0.0,7.0,3.0,1.0,6.0,6.0,505.24550513364375,7.0,1.0,phase_2,stop,650.0,750.0,3.0,,,,,,,,,gray,square
0.0,1.0,1.0,0.0,6.0,6.0,345.369866117835,7.0,1.0,phase_2,go,650.0,700.0,1.0,,,,,,,,,green,diamond
0.0,4.0,4.0,0.0,6.0,6.0,584.7998349927366,7.0,1.0,phase_2,go,650.0,700.0,1.0,,,,,,,,,cyan,hexagon
0.0,6.0,2.0,1.0,6.0,0.0,0.0,7.0,1.0,phase_2,stop,650.0,700.0,4.0,,,,,,,,,white,I
0.0,8.0,4.0,1.0,5.0,0.0,0.0,7.0,1.0,phase_2,stop,650.0,750.0,4.0,,,,,,,,,blue,cross
0.0,5.0,1.0,1.0,6.0,6.0,855.9975160751492,8.0,1.0,phase_2,go,700.0,750.0,1.0,,,,,,,,,orange,circle
0.0,7.0,3.0,1.0,6.0,0.0,0.0,8.0,1.0,phase_2,stop,700.0,750.0,4.0,,,,,,,,,gray,square
0.0,5.0,1.0,1.0,5.0,0.0,0.0,8.0,1.0,phase_2,stop,700.0,800.0,4.0,,,,,,,,,orange,circle
0.0,4.0,4.0,0.0,6.0,6.0,574.9277230352163,8.0,1.0,phase_2,go,750.0,800.0,1.0,,,,,,,,,cyan,hexagon
0.0,7.0,3.0,1.0,6.0,6.0,403.4145609475672,8.0,1.0,phase_2,stop,750.0,800.0,3.0,,,,,,,,,gray,square
0.0,6.0,2.0,1.0,5.0,0.0,0.0,8.0,1.0,phase_2,stop,750.0,750.0,4.0,,,,,,,,,white,I
0.0,3.0,3.0,0.0,5.0,5.0,404.00914195925,8.0,1.0,phase_2,go,800.0,750.0,1.0,,,,,,,,,magenta,flipped triangle
0.0,5.0,1.0,1.0,5.0,5.0,890.2358510531485,8.0,1.0,phase_2,go,800.0,750.0,1.0,,,,,,,,,orange,circle
0.0,6.0,2.0,1.0,6.0,0.0,0.0,8.0,1.0,phase_2,stop,800.0,750.0,4.0,,,,,,,,,white,I
0.0,2.0,2.0,0.0,6.0,6.0,475.9825381916016,8.0,1.0,phase_2,go,800.0,800.0,1.0,,,,,,,,,yellow,triangle
0.0,3.0,3.0,0.0,6.0,6.0,512.3551960568875,8.0,1.0,phase_2,go,800.0,800.0,1.0,,,,,,,,,magenta,flipped triangle
0.0,8.0,4.0,1.0,5.0,0.0,0.0,8.0,1.0,phase_2,stop,800.0,800.0,4.0,,,,,,,,,blue,cross
0.0,1.0,1.0,0.0,5.0,5.0,467.3630350735038,8.0,1.0,phase_2,go,850.0,800.0,1.0,,,,,,,,,green,diamond
0.0,3.0,3.0,0.0,5.0,5.0,618.2646749075502,8.0,1.0,phase_2,go,850.0,800.0,1.0,,,,,,,,,magenta,flipped triangle
0.0,4.0,4.0,0.0,5.0,5.0,350.7434099446982,8.0,1.0,phase_2,go,850.0,800.0,1.0,,,,,,,,,cyan,hexagon
0.0,8.0,4.0,1.0,6.0,6.0,839.6152518689632,8.0,1.0,phase_2,stop,850.0,800.0,3.0,,,,,,,,,blue,cross
0.0,3.0,3.0,0.0,6.0,6.0,596.9738210551441,8.0,1.0,phase_2,go,850.0,750.0,1.0,,,,,,,,,magenta,flipped triangle
0.0,8.0,4.0,1.0,6.0,6.0,1084.6224729903042,8.0,1.0,phase_2,go,850.0,750.0,1.0,,,,,,,,,blue,cross
0.0,2.0,2.0,0.0,6.0,6.0,454.2657749261707,8.0,1.0,phase_2,go,850.0,750.0,1.0,,,,,,,,,yellow,triangle
0.0,3.0,3.0,0.0,6.0,6.0,363.2905089762062,8.0,1.0,phase_2,go,850.0,750.0,1.0,,,,,,,,,magenta,flipped triangle
0.0,7.0,3.0,1.0,5.0,5.0,867.1694779768586,8.0,1.0,phase_2,stop,850.0,750.0,3.0,,,,,,,,,gray,square
0.0,1.0,1.0,0.0,6.0,6.0,377.9745229985565,8.0,1.0,phase_2,go,800.0,750.0,1.0,,,,,,,,,green,diamond
0.0,6.0,2.0,1.0,5.0,5.0,1172.8743640705943,8.0,1.0,phase_2,go,800.0,750.0,1.0,,,,,,,,,white,I
0.0,7.0,3.0,1.0,6.0,0.0,0.0,8.0,1.0,phase_2,stop,800.0,750.0,4.0,,,,,,,,,gray,square
0.0,1.0,1.0,0.0,5.0,5.0,388.0188169423491,8.0,1.0,phase_2,go,800.0,800.0,1.0,,,,,,,,,green,diamond
0.0,4.0,4.0,0.0,6.0,6.0,593.0786360986531,8.0,1.0,phase_2,go,800.0,800.0,1.0,,,,,,,,,cyan,hexagon
0.0,6.0,2.0,1.0,6.0,0.0,0.0,8.0,1.0,phase_2,stop,800.0,800.0,4.0,,,,,,,,,white,I
0.0,7.0,3.0,1.0,5.0,0.0,0.0,8.0,1.0,phase_2,stop,800.0,850.0,4.0,,,,,,,,,gray,square
0.0,3.0,3.0,0.0,5.0,5.0,494.9417391326278,8.0,1.0,phase_2,go,850.0,850.0,1.0,,,,,,,,,magenta,flipped triangle
0.0,3.0,3.0,0.0,6.0,6.0,398.7435840535909,8.0,1.0,phase_2,go,850.0,850.0,1.0,,,,,,,,,magenta,flipped triangle
0.0,4.0,4.0,0.0,6.0,6.0,496.5076688677072,8.0,1.0,phase_2,go,850.0,850.0,1.0,,,,,,,,,cyan,hexagon
0.0,2.0,2.0,0.0,6.0,6.0,469.9544939212501,8.0,1.0,phase_2,go,850.0,850.0,1.0,,,,,,,,,yellow,triangle
0.0,1.0,1.0,0.0,6.0,6.0,479.2371981311589,8.0,1.0,phase_2,go,850.0,850.0,1.0,,,,,,,,,green,diamond
0.0,4.0,4.0,0.0,5.0,5.0,566.6223168373108,8.0,1.0,phase_2,go,850.0,850.0,1.0,,,,,,,,,cyan,hexagon
0.0,1.0,1.0,0.0,5.0,5.0,371.1708961054683,8.0,1.0,phase_2,go,850.0,850.0,1.0,,,,,,,,,green,diamond
0.0,7.0,3.0,1.0,5.0,5.0,386.9722399394959,8.0,1.0,phase_2,go,850.0,850.0,1.0,,,,,,,,,gray,square
0.0,4.0,4.0,0.0,7.0,3.0,3325.007170904428,1.0,1.0,phase_3,,,,,49.0,1.0,294.0,196.0,49.0,98.0,147.0,245.0,cyan,hexagon
0.0,2.0,2.0,0.0,7.0,4.0,2488.8429169077426,1.0,1.0,phase_3,,,,,98.0,2.0,196.0,147.0,294.0,98.0,49.0,245.0,yellow,triangle
0.0,5.0,1.0,1.0,7.0,2.0,2067.013470921665,1.0,1.0,phase_3,,,,,44.0,1.0,176.0,44.0,88.0,264.0,220.0,132.0,orange,circle
0.0,3.0,3.0,0.0,7.0,3.0,3083.563124993816,1.0,1.0,phase_3,,,,,195.0,5.0,234.0,39.0,195.0,156.0,117.0,78.0,magenta,flipped triangle
0.0,1.0,1.0,0.0,7.0,2.0,2651.6071839723736,1.0,1.0,phase_3,,,,,204.0,6.0,102.0,204.0,136.0,170.0,34.0,68.0,green,diamond
0.0,1.0,1.0,0.0,7.0,2.0,2564.5573588553816,1.0,1.0,phase_3,,,,,204.0,6.0,170.0,204.0,34.0,102.0,136.0,68.0,green,diamond
0.0,7.0,3.0,1.0,7.0,5.0,1454.4030739925802,1.0,1.0,phase_3,,,,,44.0,1.0,176.0,220.0,132.0,88.0,44.0,264.0,gray,square
0.0,8.0,4.0,1.0,7.0,6.0,2560.0252298172563,1.0,1.0,phase_3,,,,,68.0,2.0,136.0,204.0,102.0,34.0,170.0,68.0,blue,cross
0.0,6.0,2.0,1.0,7.0,4.0,1481.0603349469602,1.0,1.0,phase_3,,,,,34.0,1.0,102.0,170.0,68.0,34.0,204.0,136.0,white,I
0.0,1.0,1.0,0.0,7.0,4.0,1812.6688019838184,1.0,1.0,phase_3,,,,,264.0,6.0,176.0,44.0,88.0,264.0,220.0,132.0,green,diamond
0.0,3.0,3.0,0.0,7.0,2.0,2333.2653120160103,1.0,1.0,phase_3,,,,,270.0,5.0,54.0,270.0,108.0,216.0,324.0,162.0,magenta,flipped triangle
0.0,1.0,1.0,0.0,7.0,5.0,2492.511002114042,1.0,1.0,phase_3,,,,,49.0,1.0,147.0,294.0,196.0,245.0,49.0,98.0,green,diamond
0.0,1.0,1.0,0.0,7.0,3.0,3343.6670990195125,1.0,1.0,phase_3,,,,,216.0,4.0,270.0,162.0,216.0,108.0,324.0,54.0,green,diamond
0.0,1.0,1.0,0.0,7.0,6.0,1535.4629091452807,1.0,1.0,phase_3,,,,,234.0,6.0,39.0,156.0,78.0,195.0,117.0,234.0,green,diamond
0.0,8.0,4.0,1.0,7.0,3.0,1786.7406927980485,1.0,1.0,phase_3,,,,,102.0,3.0,136.0,34.0,102.0,170.0,204.0,68.0,blue,cross
0.0,2.0,2.0,0.0,7.0,6.0,1436.8893781211227,1.0,1.0,phase_3,,,,,204.0,6.0,102.0,136.0,34.0,170.0,68.0,204.0,yellow,triangle
0.0,5.0,1.0,1.0,7.0,1.0,2030.9783949051048,1.0,1.0,phase_3,,,,,39.0,1.0,39.0,234.0,78.0,195.0,156.0,117.0,orange,circle
0.0,5.0,1.0,1.0,7.0,4.0,1956.740858964622,1.0,1.0,phase_3,,,,,49.0,1.0,147.0,196.0,98.0,49.0,245.0,294.0,orange,circle
0.0,6.0,2.0,1.0,7.0,4.0,1216.9587581884116,1.0,1.0,phase_3,,,,,34.0,1.0,204.0,136.0,102.0,34.0,68.0,170.0,white,I
0.0,2.0,2.0,0.0,7.0,3.0,2311.692042974755,1.0,1.0,phase_3,,,,,216.0,4.0,162.0,324.0,216.0,108.0,270.0,54.0,yellow,triangle
0.0,2.0,2.0,0.0,7.0,4.0,1056.8460919894278,2.0,1.0,phase_3,,,,,204.0,6.0,170.0,136.0,68.0,204.0,102.0,34.0,yellow,triangle
0.0,8.0,4.0,1.0,7.0,5.0,1858.3928560838103,2.0,1.0,phase_3,,,,,88.0,2.0,132.0,176.0,264.0,44.0,88.0,220.0,blue,cross
0.0,6.0,2.0,1.0,7.0,4.0,1296.3532370049506,2.0,1.0,phase_3,,,,,49.0,1.0,147.0,196.0,98.0,49.0,245.0,294.0,white,I
0.0,4.0,4.0,0.0,7.0,2.0,2013.9330311212689,2.0,1.0,phase_3,,,,,136.0,4.0,102.0,136.0,68.0,34.0,204.0,170.0,cyan,hexagon
0.0,8.0,4.0,1.0,7.0,4.0,939.4553240854292,2.0,1.0,phase_3,,,,,78.0,2.0,234.0,117.0,156.0,78.0,195.0,39.0,blue,cross
0.0,6.0,2.0,1.0,7.0,1.0,1791.147111915052,2.0,1.0,phase_3,,,,,44.0,1.0,44.0,132.0,88.0,176.0,264.0,220.0,white,I
0.0,5.0,1.0,1.0,7.0,3.0,1383.8538159616292,2.0,1.0,phase_3,,,,,39.0,1.0,195.0,234.0,39.0,117.0,156.0,78.0,orange,circle
0.0,1.0,1.0,0.0,7.0,6.0,2034.3407599721104,2.0,1.0,phase_3,,,,,196.0,4.0,49.0,98.0,245.0,294.0,147.0,196.0,green,diamond
0.0,6.0,2.0,1.0,7.0,4.0,1913.4356679860505,2.0,1.0,phase_3,,,,,49.0,1.0,98.0,294.0,245.0,49.0,196.0,147.0,white,I
0.0,1.0,1.0,0.0,7.0,2.0,1211.175907868892,2.0,1.0,phase_3,,,,,216.0,4.0,324.0,216.0,108.0,54.0,270.0,162.0,green,diamond
0.0,4.0,4.0,0.0,7.0,6.0,3677.748488029465,2.0,1.0,phase_3,,,,,176.0,4.0,264.0,220.0,44.0,132.0,88.0,176.0,cyan,hexagon
0.0,8.0,4.0,1.0,7.0,2.0,2095.291656907648,2.0,1.0,phase_3,,,,,98.0,2.0,245.0,98.0,147.0,196.0,294.0,49.0,blue,cross
0.0,5.0,1.0,1.0,7.0,1.0,1512.0910969562829,2.0,1.0,phase_3,,,,,34.0,1.0,34.0,204.0,68.0,102.0,136.0,170.0,orange,circle
0.0,3.0,3.0,0.0,7.0,3.0,1818.991467822343,2.0,1.0,phase_3,,,,,196.0,4.0,294.0,147.0,196.0,245.0,98.0,49.0,magenta,flipped triangle
0.0,4.0,4.0,0.0,7.0,4.0,2795.8414498716597,2.0,1.0,phase_3,,,,,162.0,3.0,54.0,108.0,270.0,162.0,324.0,216.0,cyan,hexagon
0.0,2.0,2.0,0.0,7.0,4.0,2372.811750043184,2.0,1.0,phase_3,,,,,196.0,4.0,245.0,98.0,294.0,196.0,49.0,147.0,yellow,triangle
0.0,2.0,2.0,0.0,7.0,3.0,1243.8074389938265,2.0,1.0,phase_3,,,,,216.0,4.0,162.0,324.0,216.0,54.0,108.0,270.0,yellow,triangle
0.0,3.0,3.0,0.0,7.0,6.0,2382.019696058705,2.0,1.0,phase_3,,,,,176.0,4.0,44.0,220.0,88.0,264.0,132.0,176.0,magenta,flipped triangle
0.0,7.0,3.0,1.0,7.0,3.0,1121.313703013584,2.0,1.0,phase_3,,,,,34.0,1.0,68.0,102.0,34.0,204.0,136.0,170.0,gray,square
0.0,6.0,2.0,1.0,7.0,4.0,1056.8203199654818,2.0,1.0,phase_3,,,,,39.0,1.0,156.0,234.0,117.0,39.0,195.0,78.0,white,I
0.0,7.0,3.0,1.0,7.0,1.0,1866.130392998457,3.0,1.0,phase_3,,,,,54.0,1.0,54.0,270.0,324.0,216.0,162.0,108.0,gray,square
0.0,2.0,2.0,0.0,7.0,4.0,2571.1571518331766,3.0,1.0,phase_3,,,,,234.0,6.0,39.0,156.0,195.0,234.0,117.0,78.0,yellow,triangle
0.0,7.0,3.0,1.0,7.0,5.0,1990.11601600796,3.0,1.0,phase_3,,,,,39.0,1.0,78.0,117.0,234.0,156.0,39.0,195.0,gray,square
0.0,3.0,3.0,0.0,7.0,6.0,1439.6411010529846,3.0,1.0,phase_3,,,,,204.0,6.0,68.0,136.0,170.0,102.0,34.0,204.0,magenta,flipped triangle
0.0,6.0,2.0,1.0,7.0,3.0,1088.7267789803443,3.0,1.0,phase_3,,,,,44.0,1.0,264.0,132.0,44.0,176.0,88.0,220.0,white,I
0.0,3.0,3.0,0.0,7.0,4.0,2026.725787203759,3.0,1.0,phase_3,,,,,195.0,5.0,234.0,78.0,117.0,195.0,156.0,39.0,magenta,flipped triangle
0.0,6.0,2.0,1.0,7.0,3.0,988.7933139689268,3.0,1.0,phase_3,,,,,39.0,1.0,234.0,78.0,39.0,195.0,117.0,156.0,white,I
0.0,3.0,3.0,0.0,7.0,1.0,1983.1500581931325,3.0,1.0,phase_3,,,,,216.0,4.0,216.0,162.0,270.0,324.0,54.0,108.0,magenta,flipped triangle
0.0,3.0,3.0,0.0,7.0,4.0,2048.4922889154404,3.0,1.0,phase_3,,,,,196.0,4.0,147.0,98.0,245.0,196.0,294.0,49.0,magenta,flipped triangle
0.0,5.0,1.0,1.0,7.0,4.0,1216.519002104178,3.0,1.0,phase_3,,,,,54.0,1.0,108.0,270.0,162.0,54.0,216.0,324.0,orange,circle
0.0,7.0,3.0,1.0,7.0,1.0,1544.983783038333,3.0,1.0,phase_3,,,,,49.0,1.0,49.0,196.0,147.0,98.0,245.0,294.0,gray,square
0.0,4.0,4.0,0.0,7.0,5.0,1320.568026043475,3.0,1.0,phase_3,,,,,195.0,5.0,39.0,78.0,234.0,117.0,195.0,156.0,cyan,hexagon
0.0,7.0,3.0,1.0,7.0,3.0,979.6948051080108,3.0,1.0,phase_3,,,,,196.0,4.0,245.0,49.0,196.0,98.0,294.0,147.0,gray,square
0.0,8.0,4.0,1.0,7.0,4.0,1683.297926094383,3.0,1.0,phase_3,,,,,108.0,2.0,54.0,216.0,162.0,108.0,270.0,324.0,blue,cross
0.0,5.0,1.0,1.0,7.0,4.0,1260.5202018748969,3.0,1.0,phase_3,,,,,44.0,1.0,88.0,132.0,220.0,44.0,264.0,176.0,orange,circle
0.0,2.0,2.0,0.0,7.0,5.0,1151.0943830944598,3.0,1.0,phase_3,,,,,195.0,5.0,78.0,156.0,39.0,234.0,195.0,117.0,yellow,triangle
0.0,1.0,1.0,0.0,7.0,5.0,1971.4930150657888,3.0,1.0,phase_3,,,,,176.0,4.0,132.0,44.0,88.0,220.0,176.0,264.0,green,diamond
0.0,4.0,4.0,0.0,7.0,1.0,1707.9579350538552,3.0,1.0,phase_3,,,,,176.0,4.0,176.0,88.0,132.0,44.0,264.0,220.0,cyan,hexagon
0.0,5.0,1.0,1.0,7.0,3.0,1124.8684779275209,3.0,1.0,phase_3,,,,,34.0,1.0,136.0,170.0,34.0,204.0,102.0,68.0,orange,circle
0.0,8.0,4.0,1.0,7.0,1.0,2053.830950986594,3.0,1.0,phase_3,,,,,49.0,1.0,49.0,196.0,147.0,294.0,98.0,245.0,blue,cross
0.0,7.0,3.0,1.0,7.0,6.0,1594.3659110926092,4.0,1.0,phase_3,,,,,54.0,1.0,162.0,324.0,216.0,108.0,270.0,54.0,gray,square
0.0,7.0,3.0,1.0,7.0,2.0,1515.5213898979127,4.0,1.0,phase_3,,,,,34.0,1.0,204.0,34.0,136.0,170.0,102.0,68.0,gray,square
0.0,8.0,4.0,1.0,7.0,4.0,1301.6637989785522,4.0,1.0,phase_3,,,,,54.0,1.0,108.0,162.0,270.0,54.0,216.0,324.0,blue,cross
0.0,1.0,1.0,0.0,7.0,2.0,1070.5994099844247,4.0,1.0,phase_3,,,,,195.0,5.0,39.0,195.0,234.0,117.0,156.0,78.0,green,diamond
0.0,8.0,4.0,1.0,7.0,3.0,1129.4635711237788,4.0,1.0,phase_3,,,,,44.0,1.0,220.0,264.0,44.0,132.0,176.0,88.0,blue,cross
0.0,4.0,4.0,0.0,7.0,6.0,977.0453460514544,4.0,1.0,phase_3,,,,,195.0,5.0,234.0,39.0,156.0,117.0,78.0,195.0,cyan,hexagon
0.0,3.0,3.0,0.0,7.0,4.0,1059.9761889316142,4.0,1.0,phase_3,,,,,170.0,5.0,102.0,204.0,136.0,170.0,34.0,68.0,magenta,flipped triangle
0.0,7.0,3.0,1.0,7.0,1.0,1307.2679701726884,4.0,1.0,phase_3,,,,,88.0,2.0,88.0,220.0,264.0,132.0,44.0,176.0,gray,square
0.0,6.0,2.0,1.0,7.0,5.0,981.9747591391206,4.0,1.0,phase_3,,,,,54.0,1.0,324.0,216.0,162.0,270.0,54.0,108.0,white,I
0.0,5.0,1.0,1.0,7.0,5.0,1071.5247050393373,4.0,1.0,phase_3,,,,,49.0,1.0,147.0,294.0,196.0,245.0,49.0,98.0,orange,circle
0.0,5.0,1.0,1.0,7.0,2.0,1373.9801060874015,4.0,1.0,phase_3,,,,,54.0,1.0,216.0,54.0,270.0,162.0,324.0,108.0,orange,circle
0.0,2.0,2.0,0.0,7.0,3.0,1345.0732741039246,4.0,1.0,phase_3,,,,,176.0,4.0,132.0,44.0,176.0,264.0,88.0,220.0,yellow,triangle
0.0,4.0,4.0,0.0,7.0,2.0,1907.8329619951544,4.0,1.0,phase_3,,,,,204.0,6.0,170.0,204.0,102.0,68.0,136.0,34.0,cyan,hexagon
0.0,3.0,3.0,0.0,7.0,4.0,1212.9723490215838,4.0,1.0,phase_3,,,,,220.0,5.0,264.0,176.0,88.0,220.0,132.0,44.0,magenta,flipped triangle
0.0,7.0,3.0,1.0,7.0,5.0,1815.435593947768,4.0,1.0,phase_3,,,,,39.0,1.0,234.0,156.0,78.0,117.0,39.0,195.0,gray,square
0.0,2.0,2.0,0.0,7.0,6.0,1863.779841922224,4.0,1.0,phase_3,,,,,220.0,5.0,264.0,88.0,176.0,44.0,132.0,220.0,yellow,triangle
0.0,6.0,2.0,1.0,7.0,6.0,1984.257854986936,4.0,1.0,phase_3,,,,,54.0,1.0,270.0,108.0,324.0,162.0,216.0,54.0,white,I
0.0,4.0,4.0,0.0,7.0,1.0,2528.333961032331,4.0,1.0,phase_3,,,,,245.0,5.0,245.0,294.0,49.0,98.0,147.0,196.0,cyan,hexagon
0.0,4.0,4.0,0.0,7.0,4.0,1748.5773509833962,4.0,1.0,phase_3,,,,,216.0,4.0,324.0,108.0,54.0,216.0,162.0,270.0,cyan,hexagon
0.0,8.0,4.0,1.0,7.0,5.0,1365.463291062042,4.0,1.0,phase_3,,,,,195.0,5.0,156.0,39.0,234.0,117.0,195.0,78.0,blue,cross
