raw_reward_magnitude,stim_reward,stepwise_reward_magnitude,paired_with_stopping,quadrant,response,reaction_time,block,num_trial_presentations,which_part,stop_signal_trial_type,left_SSD,right_SSD,accuracy,chosen_bidding_amount,chosen_bidding_level,possible_bid_1,possible_bid_2,possible_bid_3,possible_bid_4,possible_bid_5,possible_bid_6,color_text,shape_text
404.0,4.0,4.0,0.0,4.0,4.0,321.2755529966671,1.0,1.0,part_1,,,,,,,,,,,,,gray,diamond
0.0,5.0,0.0,1.0,1.0,1.0,310.7987790135667,1.0,1.0,part_1,,,,,,,,,,,,,yellow,circle
414.0,4.0,4.0,0.0,4.0,4.0,242.2443520044908,1.0,1.0,part_1,,,,,,,,,,,,,gray,diamond
94.0,6.0,2.0,1.0,3.0,3.0,293.8332949997857,1.0,1.0,part_1,,,,,,,,,,,,,cyan,flipped triangle
204.0,3.0,3.0,0.0,1.0,1.0,267.6663379825186,1.0,1.0,part_1,,,,,,,,,,,,,orange,square
0.0,7.0,0.0,1.0,4.0,4.0,239.7955459891818,1.0,1.0,part_1,,,,,,,,,,,,,green,hexagon
204.0,7.0,3.0,1.0,3.0,3.0,281.9399660220369,1.0,1.0,part_1,,,,,,,,,,,,,green,hexagon
59.0,5.0,1.0,1.0,3.0,3.0,298.4520760073792,1.0,1.0,part_1,,,,,,,,,,,,,yellow,circle
0.0,8.0,0.0,1.0,1.0,1.0,220.9989669790957,1.0,1.0,part_1,,,,,,,,,,,,,blue,cross
0.0,5.0,0.0,1.0,2.0,2.0,329.3340730015188,1.0,1.0,part_1,,,,,,,,,,,,,yellow,circle
219.0,7.0,3.0,1.0,4.0,4.0,240.6555490160826,1.0,1.0,part_1,,,,,,,,,,,,,green,hexagon
77.0,2.0,2.0,0.0,2.0,2.0,252.9013720049988,1.0,1.0,part_1,,,,,,,,,,,,,magenta,triangle
0.0,5.0,0.0,1.0,4.0,4.0,350.9323140024207,1.0,1.0,part_1,,,,,,,,,,,,,yellow,circle
195.0,3.0,3.0,0.0,2.0,2.0,293.5523589840159,1.0,1.0,part_1,,,,,,,,,,,,,orange,square
74.0,1.0,1.0,0.0,2.0,2.0,298.1551999982912,1.0,1.0,part_1,,,,,,,,,,,,,white,I
222.0,7.0,3.0,1.0,4.0,4.0,301.1665999947581,1.0,1.0,part_1,,,,,,,,,,,,,green,hexagon
120.0,6.0,2.0,1.0,4.0,4.0,281.5855059889145,1.0,1.0,part_1,,,,,,,,,,,,,cyan,flipped triangle
191.0,7.0,3.0,1.0,3.0,3.0,285.9229670139029,1.0,1.0,part_1,,,,,,,,,,,,,green,hexagon
120.0,2.0,2.0,0.0,4.0,4.0,294.0480499819387,1.0,1.0,part_1,,,,,,,,,,,,,magenta,triangle
30.0,5.0,1.0,1.0,2.0,2.0,274.656307999976,1.0,1.0,part_1,,,,,,,,,,,,,yellow,circle
381.0,4.0,4.0,0.0,3.0,3.0,292.9269569867756,1.0,1.0,part_1,,,,,,,,,,,,,gray,diamond
42.0,1.0,1.0,0.0,2.0,2.0,274.5628890115767,1.0,1.0,part_1,,,,,,,,,,,,,white,I
386.0,4.0,4.0,0.0,3.0,3.0,253.6825840070378,1.0,1.0,part_1,,,,,,,,,,,,,gray,diamond
75.0,2.0,2.0,0.0,3.0,3.0,265.9986880025826,1.0,1.0,part_1,,,,,,,,,,,,,magenta,triangle
408.0,8.0,4.0,1.0,1.0,1.0,294.7074289841112,1.0,1.0,part_1,,,,,,,,,,,,,blue,cross
36.0,5.0,1.0,1.0,2.0,2.0,286.4836700027808,1.0,1.0,part_1,,,,,,,,,,,,,yellow,circle
395.0,4.0,4.0,0.0,1.0,1.0,377.0781820057891,1.0,1.0,part_1,,,,,,,,,,,,,gray,diamond
423.0,8.0,4.0,1.0,3.0,3.0,236.689421988558,1.0,1.0,part_1,,,,,,,,,,,,,blue,cross
191.0,7.0,3.0,1.0,4.0,4.0,289.6338870050385,1.0,1.0,part_1,,,,,,,,,,,,,green,hexagon
383.0,8.0,4.0,1.0,3.0,3.0,298.572362982668,1.0,2.0,part_1,,,,,,,,,,,,,blue,cross
116.0,6.0,2.0,1.0,4.0,4.0,321.5130400203634,1.0,1.0,part_1,,,,,,,,,,,,,cyan,flipped triangle
210.0,3.0,3.0,0.0,2.0,2.0,686.9521490007173,1.0,1.0,part_1,,,,,,,,,,,,,orange,square
412.0,4.0,4.0,0.0,1.0,1.0,394.7093140159268,1.0,1.0,part_1,,,,,,,,,,,,,gray,diamond
0.0,4.0,0.0,0.0,1.0,1.0,361.3221469859127,1.0,1.0,part_1,,,,,,,,,,,,,gray,diamond
52.0,1.0,1.0,0.0,2.0,2.0,276.4635639905464,1.0,1.0,part_1,,,,,,,,,,,,,white,I
89.0,6.0,2.0,1.0,2.0,2.0,344.7231719910633,1.0,1.0,part_1,,,,,,,,,,,,,cyan,flipped triangle
421.0,4.0,4.0,0.0,3.0,3.0,292.3219939984847,1.0,1.0,part_1,,,,,,,,,,,,,gray,diamond
402.0,8.0,4.0,1.0,2.0,2.0,504.33118900400586,1.0,1.0,part_1,,,,,,,,,,,,,blue,cross
92.0,2.0,2.0,0.0,1.0,1.0,389.0322530060075,1.0,1.0,part_1,,,,,,,,,,,,,magenta,triangle
190.0,7.0,3.0,1.0,1.0,1.0,261.1370740050915,1.0,1.0,part_1,,,,,,,,,,,,,green,hexagon
66.0,1.0,1.0,0.0,2.0,2.0,277.7085050183814,1.0,1.0,part_1,,,,,,,,,,,,,white,I
72.0,5.0,1.0,1.0,1.0,1.0,251.73925500712357,1.0,1.0,part_1,,,,,,,,,,,,,yellow,circle
197.0,7.0,3.0,1.0,1.0,1.0,288.2565819891169,1.0,1.0,part_1,,,,,,,,,,,,,green,hexagon
0.0,3.0,0.0,0.0,4.0,4.0,293.85546897538,1.0,1.0,part_1,,,,,,,,,,,,,orange,square
394.0,4.0,4.0,0.0,3.0,3.0,268.997960985871,1.0,1.0,part_1,,,,,,,,,,,,,gray,diamond
416.0,8.0,4.0,1.0,3.0,3.0,375.7734560058452,1.0,1.0,part_1,,,,,,,,,,,,,blue,cross
120.0,6.0,2.0,1.0,1.0,1.0,322.3198360064998,1.0,1.0,part_1,,,,,,,,,,,,,cyan,flipped triangle
0.0,4.0,0.0,0.0,4.0,4.0,374.8365850187838,1.0,1.0,part_1,,,,,,,,,,,,,gray,diamond
404.0,4.0,4.0,0.0,4.0,4.0,310.7383140013553,1.0,1.0,part_1,,,,,,,,,,,,,gray,diamond
83.0,2.0,2.0,0.0,2.0,2.0,280.459094006801,1.0,1.0,part_1,,,,,,,,,,,,,magenta,triangle
212.0,7.0,3.0,1.0,2.0,2.0,341.5124799939804,1.0,1.0,part_1,,,,,,,,,,,,,green,hexagon
185.0,7.0,3.0,1.0,2.0,2.0,305.9174529917072,1.0,1.0,part_1,,,,,,,,,,,,,green,hexagon
59.0,1.0,1.0,0.0,1.0,1.0,310.8604599838145,1.0,1.0,part_1,,,,,,,,,,,,,white,I
383.0,4.0,4.0,0.0,1.0,1.0,283.4339970140718,1.0,1.0,part_1,,,,,,,,,,,,,gray,diamond
102.0,6.0,2.0,1.0,3.0,3.0,297.7181419846602,1.0,1.0,part_1,,,,,,,,,,,,,cyan,flipped triangle
57.0,1.0,1.0,0.0,1.0,1.0,260.7716399943456,1.0,1.0,part_1,,,,,,,,,,,,,white,I
413.0,8.0,4.0,1.0,2.0,2.0,257.4492160056252,1.0,1.0,part_1,,,,,,,,,,,,,blue,cross
0.0,3.0,0.0,0.0,2.0,2.0,321.0800499946344,1.0,1.0,part_1,,,,,,,,,,,,,orange,square
422.0,8.0,4.0,1.0,1.0,1.0,260.8088590204716,1.0,1.0,part_1,,,,,,,,,,,,,blue,cross
37.0,1.0,1.0,0.0,3.0,3.0,280.8096439985093,1.0,1.0,part_1,,,,,,,,,,,,,white,I
394.0,8.0,4.0,1.0,3.0,3.0,323.93468701047817,1.0,1.0,part_1,,,,,,,,,,,,,blue,cross
42.0,5.0,1.0,1.0,1.0,1.0,299.649385997327,1.0,1.0,part_1,,,,,,,,,,,,,yellow,circle
35.0,5.0,1.0,1.0,2.0,2.0,264.5564270205796,1.0,1.0,part_1,,,,,,,,,,,,,yellow,circle
185.0,3.0,3.0,0.0,2.0,2.0,307.9167960095219,1.0,1.0,part_1,,,,,,,,,,,,,orange,square
97.0,6.0,2.0,1.0,1.0,1.0,232.4679559969809,1.0,1.0,part_1,,,,,,,,,,,,,cyan,flipped triangle
96.0,2.0,2.0,0.0,3.0,3.0,293.5443409951404,1.0,1.0,part_1,,,,,,,,,,,,,magenta,triangle
206.0,3.0,3.0,0.0,4.0,4.0,297.744782990776,1.0,1.0,part_1,,,,,,,,,,,,,orange,square
116.0,6.0,2.0,1.0,4.0,4.0,304.4499069801532,1.0,1.0,part_1,,,,,,,,,,,,,cyan,flipped triangle
110.0,2.0,2.0,0.0,2.0,2.0,285.3244130092207,1.0,1.0,part_1,,,,,,,,,,,,,magenta,triangle
407.0,4.0,4.0,0.0,3.0,3.0,298.1710390013177,1.0,1.0,part_1,,,,,,,,,,,,,gray,diamond
79.0,2.0,2.0,0.0,1.0,1.0,309.7391650080681,1.0,1.0,part_1,,,,,,,,,,,,,magenta,triangle
64.0,5.0,1.0,1.0,4.0,4.0,297.1942010044586,1.0,1.0,part_1,,,,,,,,,,,,,yellow,circle
30.0,1.0,1.0,0.0,4.0,4.0,341.0291030013468,1.0,1.0,part_1,,,,,,,,,,,,,white,I
114.0,6.0,2.0,1.0,2.0,2.0,274.6308770147152,1.0,1.0,part_1,,,,,,,,,,,,,cyan,flipped triangle
376.0,4.0,4.0,0.0,1.0,1.0,285.3525200043805,1.0,1.0,part_1,,,,,,,,,,,,,gray,diamond
0.0,1.0,0.0,0.0,3.0,3.0,243.5916239919606,1.0,1.0,part_1,,,,,,,,,,,,,white,I
86.0,6.0,2.0,1.0,1.0,1.0,234.5965740096289,1.0,1.0,part_1,,,,,,,,,,,,,cyan,flipped triangle
72.0,1.0,1.0,0.0,4.0,4.0,268.0698430049233,1.0,1.0,part_1,,,,,,,,,,,,,white,I
187.0,3.0,3.0,0.0,4.0,4.0,288.3789239858743,1.0,1.0,part_1,,,,,,,,,,,,,orange,square
0.0,1.0,0.0,0.0,2.0,2.0,293.6190630134661,1.0,1.0,part_1,,,,,,,,,,,,,white,I
177.0,7.0,3.0,1.0,3.0,3.0,260.6225539930165,1.0,1.0,part_1,,,,,,,,,,,,,green,hexagon
0.0,3.0,0.0,0.0,4.0,4.0,280.2374969760421,1.0,1.0,part_1,,,,,,,,,,,,,orange,square
0.0,8.0,0.0,1.0,3.0,3.0,291.7726229934487,1.0,1.0,part_1,,,,,,,,,,,,,blue,cross
219.0,3.0,3.0,0.0,1.0,1.0,256.4361639961134,1.0,1.0,part_1,,,,,,,,,,,,,orange,square
393.0,8.0,4.0,1.0,2.0,2.0,309.0895460045431,1.0,1.0,part_1,,,,,,,,,,,,,blue,cross
218.0,7.0,3.0,1.0,1.0,1.0,224.0350210049655,1.0,2.0,part_1,,,,,,,,,,,,,green,hexagon
0.0,7.0,0.0,1.0,2.0,2.0,331.2328890024218,1.0,1.0,part_1,,,,,,,,,,,,,green,hexagon
37.0,5.0,1.0,1.0,4.0,4.0,303.8021950051188,1.0,1.0,part_1,,,,,,,,,,,,,yellow,circle
42.0,1.0,1.0,0.0,3.0,3.0,380.0283960008528,1.0,1.0,part_1,,,,,,,,,,,,,white,I
105.0,6.0,2.0,1.0,1.0,1.0,280.6990829994902,1.0,1.0,part_1,,,,,,,,,,,,,cyan,flipped triangle
51.0,1.0,1.0,0.0,4.0,4.0,335.4953750094864,1.0,1.0,part_1,,,,,,,,,,,,,white,I
53.0,5.0,1.0,1.0,2.0,2.0,276.9948999921325,1.0,1.0,part_1,,,,,,,,,,,,,yellow,circle
51.0,5.0,1.0,1.0,4.0,4.0,303.4001070191152,1.0,1.0,part_1,,,,,,,,,,,,,yellow,circle
224.0,3.0,3.0,0.0,3.0,3.0,309.3101849954109,1.0,1.0,part_1,,,,,,,,,,,,,orange,square
0.0,3.0,0.0,0.0,4.0,4.0,228.5471629875246,1.0,2.0,part_1,,,,,,,,,,,,,orange,square
181.0,7.0,3.0,1.0,3.0,3.0,353.8202680065296,1.0,1.0,part_1,,,,,,,,,,,,,green,hexagon
423.0,4.0,4.0,0.0,4.0,4.0,375.6677370110992,1.0,1.0,part_1,,,,,,,,,,,,,gray,diamond
379.0,8.0,4.0,1.0,2.0,2.0,276.3886470056604,1.0,1.0,part_1,,,,,,,,,,,,,blue,cross
75.0,2.0,2.0,0.0,2.0,2.0,311.5268000110518,1.0,1.0,part_1,,,,,,,,,,,,,magenta,triangle
404.0,8.0,4.0,1.0,1.0,1.0,279.0647279762197,1.0,1.0,part_1,,,,,,,,,,,,,blue,cross
84.0,6.0,2.0,1.0,3.0,3.0,292.4461369984783,2.0,1.0,part_1,,,,,,,,,,,,,cyan,flipped triangle
75.0,5.0,1.0,1.0,4.0,4.0,345.7372839911841,2.0,1.0,part_1,,,,,,,,,,,,,yellow,circle
378.0,8.0,4.0,1.0,3.0,3.0,271.9873909954913,2.0,1.0,part_1,,,,,,,,,,,,,blue,cross
0.0,6.0,0.0,1.0,3.0,3.0,300.6510389968753,2.0,1.0,part_1,,,,,,,,,,,,,cyan,flipped triangle
46.0,5.0,1.0,1.0,1.0,1.0,344.8465800029225,2.0,1.0,part_1,,,,,,,,,,,,,yellow,circle
60.0,5.0,1.0,1.0,1.0,1.0,326.074158976553,2.0,1.0,part_1,,,,,,,,,,,,,yellow,circle
421.0,8.0,4.0,1.0,1.0,1.0,313.4435429819859,2.0,1.0,part_1,,,,,,,,,,,,,blue,cross
96.0,6.0,2.0,1.0,4.0,4.0,312.730648991419,2.0,1.0,part_1,,,,,,,,,,,,,cyan,flipped triangle
405.0,4.0,4.0,0.0,2.0,2.0,409.6699199872091,2.0,1.0,part_1,,,,,,,,,,,,,gray,diamond
195.0,7.0,3.0,1.0,3.0,3.0,406.5338259970303,2.0,1.0,part_1,,,,,,,,,,,,,green,hexagon
395.0,4.0,4.0,0.0,2.0,2.0,294.5970539876725,2.0,1.0,part_1,,,,,,,,,,,,,gray,diamond
111.0,2.0,2.0,0.0,1.0,1.0,362.2530290158465,2.0,1.0,part_1,,,,,,,,,,,,,magenta,triangle
35.0,1.0,1.0,0.0,1.0,1.0,358.9219260029495,2.0,1.0,part_1,,,,,,,,,,,,,white,I
384.0,8.0,4.0,1.0,4.0,4.0,329.741709982045,2.0,1.0,part_1,,,,,,,,,,,,,blue,cross
181.0,3.0,3.0,0.0,2.0,2.0,397.8136959776748,2.0,1.0,part_1,,,,,,,,,,,,,orange,square
25.0,5.0,1.0,1.0,2.0,2.0,844.428971002344,2.0,1.0,part_1,,,,,,,,,,,,,yellow,circle
0.0,2.0,0.0,0.0,1.0,1.0,329.0349310263991,2.0,1.0,part_1,,,,,,,,,,,,,magenta,triangle
116.0,2.0,2.0,0.0,4.0,4.0,326.7477200133726,2.0,1.0,part_1,,,,,,,,,,,,,magenta,triangle
197.0,3.0,3.0,0.0,2.0,2.0,338.7205360049847,2.0,1.0,part_1,,,,,,,,,,,,,orange,square
191.0,7.0,3.0,1.0,1.0,1.0,285.2194349979982,2.0,1.0,part_1,,,,,,,,,,,,,green,hexagon
0.0,7.0,0.0,1.0,2.0,2.0,317.9305120138451,2.0,1.0,part_1,,,,,,,,,,,,,green,hexagon
0.0,1.0,0.0,0.0,3.0,3.0,329.2110209877137,2.0,1.0,part_1,,,,,,,,,,,,,white,I
0.0,6.0,0.0,1.0,2.0,2.0,333.739924011752,2.0,1.0,part_1,,,,,,,,,,,,,cyan,flipped triangle
30.0,5.0,1.0,1.0,2.0,2.0,295.8798579929862,2.0,1.0,part_1,,,,,,,,,,,,,yellow,circle
43.0,1.0,1.0,0.0,3.0,3.0,178.5752220021095,2.0,2.0,part_1,,,,,,,,,,,,,white,I
105.0,2.0,2.0,0.0,2.0,2.0,264.0884990105405,2.0,1.0,part_1,,,,,,,,,,,,,magenta,triangle
390.0,8.0,4.0,1.0,4.0,4.0,468.7306139967404,2.0,1.0,part_1,,,,,,,,,,,,,blue,cross
76.0,2.0,2.0,0.0,4.0,4.0,323.8423260045238,2.0,1.0,part_1,,,,,,,,,,,,,magenta,triangle
99.0,2.0,2.0,0.0,4.0,4.0,307.8910729964264,2.0,1.0,part_1,,,,,,,,,,,,,magenta,triangle
48.0,5.0,1.0,1.0,4.0,4.0,345.4669739876408,2.0,1.0,part_1,,,,,,,,,,,,,yellow,circle
39.0,1.0,1.0,0.0,2.0,2.0,287.6165190245956,2.0,1.0,part_1,,,,,,,,,,,,,white,I
99.0,2.0,2.0,0.0,3.0,3.0,261.4728370099328,2.0,1.0,part_1,,,,,,,,,,,,,magenta,triangle
204.0,7.0,3.0,1.0,4.0,4.0,311.52945899521,2.0,1.0,part_1,,,,,,,,,,,,,green,hexagon
0.0,8.0,0.0,1.0,4.0,4.0,293.6043030058499,2.0,1.0,part_1,,,,,,,,,,,,,blue,cross
0.0,2.0,0.0,0.0,4.0,4.0,280.6859659904148,2.0,1.0,part_1,,,,,,,,,,,,,magenta,triangle
201.0,7.0,3.0,1.0,1.0,1.0,276.8932809995021,2.0,1.0,part_1,,,,,,,,,,,,,green,hexagon
31.0,1.0,1.0,0.0,2.0,2.0,306.4380600117147,2.0,1.0,part_1,,,,,,,,,,,,,white,I
121.0,6.0,2.0,1.0,4.0,4.0,290.3632909874432,2.0,1.0,part_1,,,,,,,,,,,,,cyan,flipped triangle
182.0,7.0,3.0,1.0,1.0,1.0,333.7963649828452,2.0,1.0,part_1,,,,,,,,,,,,,green,hexagon
66.0,5.0,1.0,1.0,4.0,4.0,330.5695269955322,2.0,1.0,part_1,,,,,,,,,,,,,yellow,circle
33.0,5.0,1.0,1.0,3.0,3.0,408.3360800286755,2.0,1.0,part_1,,,,,,,,,,,,,yellow,circle
94.0,2.0,2.0,0.0,4.0,4.0,409.4225330045447,2.0,1.0,part_1,,,,,,,,,,,,,magenta,triangle
43.0,5.0,1.0,1.0,3.0,3.0,264.9639399896841,2.0,1.0,part_1,,,,,,,,,,,,,yellow,circle
46.0,5.0,1.0,1.0,1.0,1.0,252.7240030176472,2.0,1.0,part_1,,,,,,,,,,,,,yellow,circle
113.0,2.0,2.0,0.0,1.0,1.0,279.6792589942924,2.0,1.0,part_1,,,,,,,,,,,,,magenta,triangle
101.0,2.0,2.0,0.0,3.0,3.0,271.902948996285,2.0,1.0,part_1,,,,,,,,,,,,,magenta,triangle
0.0,7.0,0.0,1.0,4.0,4.0,252.3252750106621,2.0,1.0,part_1,,,,,,,,,,,,,green,hexagon
415.0,8.0,4.0,1.0,1.0,1.0,288.4747000061907,2.0,1.0,part_1,,,,,,,,,,,,,blue,cross
62.0,1.0,1.0,0.0,1.0,1.0,324.7346070129424,2.0,1.0,part_1,,,,,,,,,,,,,white,I
0.0,6.0,0.0,1.0,4.0,4.0,290.7986680220347,2.0,1.0,part_1,,,,,,,,,,,,,cyan,flipped triangle
212.0,3.0,3.0,0.0,3.0,3.0,341.1290329822805,2.0,1.0,part_1,,,,,,,,,,,,,orange,square
52.0,5.0,1.0,1.0,2.0,2.0,361.7687810037751,2.0,1.0,part_1,,,,,,,,,,,,,yellow,circle
40.0,1.0,1.0,0.0,1.0,1.0,324.8310519848019,2.0,1.0,part_1,,,,,,,,,,,,,white,I
74.0,5.0,1.0,1.0,4.0,4.0,289.3576009955723,2.0,1.0,part_1,,,,,,,,,,,,,yellow,circle
64.0,5.0,1.0,1.0,4.0,4.0,334.7963450069073,2.0,1.0,part_1,,,,,,,,,,,,,yellow,circle
71.0,1.0,1.0,0.0,4.0,4.0,395.7596760010347,2.0,1.0,part_1,,,,,,,,,,,,,white,I
395.0,8.0,4.0,1.0,4.0,4.0,305.9260850131977,2.0,1.0,part_1,,,,,,,,,,,,,blue,cross
178.0,3.0,3.0,0.0,1.0,1.0,357.3321510048117,2.0,1.0,part_1,,,,,,,,,,,,,orange,square
0.0,3.0,0.0,0.0,3.0,3.0,268.9288269903045,2.0,1.0,part_1,,,,,,,,,,,,,orange,square
101.0,6.0,2.0,1.0,3.0,3.0,289.2722219985444,2.0,1.0,part_1,,,,,,,,,,,,,cyan,flipped triangle
179.0,3.0,3.0,0.0,4.0,4.0,350.2837219857611,2.0,1.0,part_1,,,,,,,,,,,,,orange,square
394.0,8.0,4.0,1.0,2.0,2.0,313.7439410202205,2.0,1.0,part_1,,,,,,,,,,,,,blue,cross
0.0,3.0,0.0,0.0,2.0,2.0,284.266762988409,2.0,1.0,part_1,,,,,,,,,,,,,orange,square
0.0,2.0,0.0,0.0,3.0,3.0,321.5020080097019,2.0,1.0,part_1,,,,,,,,,,,,,magenta,triangle
0.0,8.0,0.0,1.0,2.0,2.0,309.4680790090933,2.0,1.0,part_1,,,,,,,,,,,,,blue,cross
0.0,1.0,0.0,0.0,2.0,2.0,309.4255810137838,2.0,1.0,part_1,,,,,,,,,,,,,white,I
378.0,4.0,4.0,0.0,1.0,1.0,529.8771249945275,2.0,1.0,part_1,,,,,,,,,,,,,gray,diamond
84.0,2.0,2.0,0.0,4.0,4.0,216.6047210048418,2.0,2.0,part_1,,,,,,,,,,,,,magenta,triangle
40.0,5.0,1.0,1.0,3.0,3.0,276.8055390042718,2.0,1.0,part_1,,,,,,,,,,,,,yellow,circle
0.0,6.0,0.0,1.0,4.0,4.0,329.2822169896681,2.0,1.0,part_1,,,,,,,,,,,,,cyan,flipped triangle
86.0,2.0,2.0,0.0,3.0,3.0,301.6611389757599,2.0,1.0,part_1,,,,,,,,,,,,,magenta,triangle
408.0,4.0,4.0,0.0,4.0,4.0,323.0655849911272,2.0,1.0,part_1,,,,,,,,,,,,,gray,diamond
206.0,7.0,3.0,1.0,3.0,3.0,305.1700579817407,2.0,1.0,part_1,,,,,,,,,,,,,green,hexagon
0.0,8.0,0.0,1.0,2.0,2.0,283.640601002844,2.0,1.0,part_1,,,,,,,,,,,,,blue,cross
408.0,8.0,4.0,1.0,4.0,4.0,297.1852030023001,2.0,1.0,part_1,,,,,,,,,,,,,blue,cross
46.0,1.0,1.0,0.0,1.0,1.0,407.7161950117443,2.0,1.0,part_1,,,,,,,,,,,,,white,I
395.0,8.0,4.0,1.0,2.0,2.0,362.0569499908015,2.0,1.0,part_1,,,,,,,,,,,,,blue,cross
376.0,8.0,4.0,1.0,1.0,1.0,306.3174290000461,2.0,1.0,part_1,,,,,,,,,,,,,blue,cross
191.0,3.0,3.0,0.0,4.0,4.0,301.4930349891074,2.0,1.0,part_1,,,,,,,,,,,,,orange,square
0.0,4.0,0.0,0.0,4.0,4.0,296.7693249811418,2.0,1.0,part_1,,,,,,,,,,,,,gray,diamond
0.0,5.0,0.0,1.0,3.0,3.0,319.3243379937485,2.0,1.0,part_1,,,,,,,,,,,,,yellow,circle
107.0,6.0,2.0,1.0,2.0,2.0,396.2375069968402,2.0,1.0,part_1,,,,,,,,,,,,,cyan,flipped triangle
81.0,2.0,2.0,0.0,1.0,1.0,342.2142720082775,2.0,1.0,part_1,,,,,,,,,,,,,magenta,triangle
379.0,4.0,4.0,0.0,1.0,1.0,317.6486630109139,2.0,1.0,part_1,,,,,,,,,,,,,gray,diamond
110.0,6.0,2.0,1.0,2.0,2.0,289.697158994386,2.0,1.0,part_1,,,,,,,,,,,,,cyan,flipped triangle
94.0,2.0,2.0,0.0,2.0,2.0,268.195440992713,2.0,1.0,part_1,,,,,,,,,,,,,magenta,triangle
0.0,3.0,0.0,0.0,3.0,3.0,314.6494950051419,2.0,1.0,part_1,,,,,,,,,,,,,orange,square
51.0,1.0,1.0,0.0,3.0,3.0,333.3572690025903,2.0,1.0,part_1,,,,,,,,,,,,,white,I
0.0,8.0,0.0,1.0,3.0,3.0,276.1465369840152,2.0,1.0,part_1,,,,,,,,,,,,,blue,cross
77.0,6.0,2.0,1.0,2.0,2.0,271.3289170060307,2.0,1.0,part_1,,,,,,,,,,,,,cyan,flipped triangle
81.0,6.0,2.0,1.0,2.0,2.0,293.7674630084075,2.0,1.0,part_1,,,,,,,,,,,,,cyan,flipped triangle
184.0,3.0,3.0,0.0,2.0,2.0,344.8975550127215,2.0,1.0,part_1,,,,,,,,,,,,,orange,square
41.0,5.0,1.0,1.0,3.0,3.0,337.0878369896672,2.0,1.0,part_1,,,,,,,,,,,,,yellow,circle
107.0,2.0,2.0,0.0,3.0,3.0,299.8517569794785,2.0,1.0,part_1,,,,,,,,,,,,,magenta,triangle
0.0,5.0,0.0,1.0,2.0,2.0,271.267979987897,2.0,1.0,part_1,,,,,,,,,,,,,yellow,circle
391.0,8.0,4.0,1.0,2.0,2.0,300.7555269869044,2.0,1.0,part_1,,,,,,,,,,,,,blue,cross
390.0,8.0,4.0,1.0,1.0,1.0,313.6352419969626,2.0,1.0,part_1,,,,,,,,,,,,,blue,cross
215.0,3.0,3.0,0.0,3.0,3.0,308.3669689949602,2.0,1.0,part_1,,,,,,,,,,,,,orange,square
0.0,8.0,0.0,1.0,4.0,4.0,298.9995969983283,2.0,1.0,part_1,,,,,,,,,,,,,blue,cross
388.0,4.0,4.0,0.0,2.0,2.0,304.4770160049665,2.0,1.0,part_1,,,,,,,,,,,,,gray,diamond
207.0,3.0,3.0,0.0,1.0,1.0,298.1585249945055,3.0,1.0,part_1,,,,,,,,,,,,,orange,square
121.0,2.0,2.0,0.0,1.0,1.0,310.3620669862721,3.0,1.0,part_1,,,,,,,,,,,,,magenta,triangle
404.0,8.0,4.0,1.0,4.0,4.0,276.8780069891363,3.0,1.0,part_1,,,,,,,,,,,,,blue,cross
116.0,2.0,2.0,0.0,3.0,3.0,274.2541849729605,3.0,1.0,part_1,,,,,,,,,,,,,magenta,triangle
0.0,7.0,0.0,1.0,2.0,2.0,261.1678569810465,3.0,1.0,part_1,,,,,,,,,,,,,green,hexagon
31.0,5.0,1.0,1.0,2.0,2.0,256.8265819863882,3.0,1.0,part_1,,,,,,,,,,,,,yellow,circle
0.0,2.0,0.0,0.0,1.0,1.0,272.6226239756215,3.0,1.0,part_1,,,,,,,,,,,,,magenta,triangle
120.0,2.0,2.0,0.0,2.0,2.0,333.4920609777327,3.0,1.0,part_1,,,,,,,,,,,,,magenta,triangle
204.0,3.0,3.0,0.0,3.0,3.0,315.2218370232731,3.0,1.0,part_1,,,,,,,,,,,,,orange,square
224.0,7.0,3.0,1.0,4.0,4.0,429.6532569860574,3.0,1.0,part_1,,,,,,,,,,,,,green,hexagon
412.0,8.0,4.0,1.0,3.0,3.0,628.0005730222911,3.0,1.0,part_1,,,,,,,,,,,,,blue,cross
111.0,6.0,2.0,1.0,4.0,4.0,448.0930730060208,3.0,1.0,part_1,,,,,,,,,,,,,cyan,flipped triangle
405.0,4.0,4.0,0.0,1.0,1.0,330.0469960086047,3.0,1.0,part_1,,,,,,,,,,,,,gray,diamond
393.0,4.0,4.0,0.0,3.0,3.0,279.9553679942619,3.0,1.0,part_1,,,,,,,,,,,,,gray,diamond
216.0,7.0,3.0,1.0,2.0,2.0,251.99655100004748,3.0,1.0,part_1,,,,,,,,,,,,,green,hexagon
216.0,3.0,3.0,0.0,3.0,3.0,328.5009270184673,3.0,1.0,part_1,,,,,,,,,,,,,orange,square
394.0,4.0,4.0,0.0,2.0,2.0,336.1927730147727,3.0,1.0,part_1,,,,,,,,,,,,,gray,diamond
182.0,7.0,3.0,1.0,1.0,1.0,329.5938239898532,3.0,1.0,part_1,,,,,,,,,,,,,green,hexagon
33.0,1.0,1.0,0.0,1.0,1.0,327.3444500227924,3.0,1.0,part_1,,,,,,,,,,,,,white,I
27.0,5.0,1.0,1.0,4.0,4.0,411.7055880196858,3.0,1.0,part_1,,,,,,,,,,,,,yellow,circle
204.0,3.0,3.0,0.0,3.0,3.0,311.9395090034231,3.0,1.0,part_1,,,,,,,,,,,,,orange,square
416.0,8.0,4.0,1.0,4.0,4.0,388.0927110149059,3.0,1.0,part_1,,,,,,,,,,,,,blue,cross
42.0,5.0,1.0,1.0,3.0,3.0,376.8514629919082,3.0,1.0,part_1,,,,,,,,,,,,,yellow,circle
0.0,4.0,0.0,0.0,4.0,4.0,357.9625540005509,3.0,1.0,part_1,,,,,,,,,,,,,gray,diamond
0.0,1.0,0.0,0.0,2.0,2.0,325.5890610162169,3.0,1.0,part_1,,,,,,,,,,,,,white,I
124.0,2.0,2.0,0.0,3.0,3.0,297.6676549878903,3.0,1.0,part_1,,,,,,,,,,,,,magenta,triangle
188.0,3.0,3.0,0.0,2.0,2.0,421.9784039887599,3.0,1.0,part_1,,,,,,,,,,,,,orange,square
124.0,6.0,2.0,1.0,3.0,3.0,305.0673539983108,3.0,1.0,part_1,,,,,,,,,,,,,cyan,flipped triangle
74.0,5.0,1.0,1.0,3.0,3.0,300.8832979830913,3.0,1.0,part_1,,,,,,,,,,,,,yellow,circle
0.0,4.0,0.0,0.0,4.0,4.0,341.2198890000582,3.0,1.0,part_1,,,,,,,,,,,,,gray,diamond
0.0,5.0,0.0,1.0,2.0,2.0,290.343845001189,3.0,1.0,part_1,,,,,,,,,,,,,yellow,circle
57.0,5.0,1.0,1.0,1.0,1.0,300.8282440132461,3.0,1.0,part_1,,,,,,,,,,,,,yellow,circle
201.0,3.0,3.0,0.0,4.0,4.0,395.2939000155311,3.0,1.0,part_1,,,,,,,,,,,,,orange,square
104.0,2.0,2.0,0.0,2.0,2.0,292.6655260089319,3.0,1.0,part_1,,,,,,,,,,,,,magenta,triangle
94.0,6.0,2.0,1.0,3.0,3.0,312.7284740039613,3.0,1.0,part_1,,,,,,,,,,,,,cyan,flipped triangle
69.0,5.0,1.0,1.0,2.0,2.0,414.0058740158565,3.0,1.0,part_1,,,,,,,,,,,,,yellow,circle
39.0,5.0,1.0,1.0,3.0,3.0,65.4981000116095,3.0,2.0,part_1,,,,,,,,,,,,,yellow,circle
86.0,2.0,2.0,0.0,2.0,2.0,292.4426399986259,3.0,1.0,part_1,,,,,,,,,,,,,magenta,triangle
60.0,1.0,1.0,0.0,2.0,2.0,353.3474740106612,3.0,1.0,part_1,,,,,,,,,,,,,white,I
416.0,4.0,4.0,0.0,1.0,1.0,377.1081809827592,3.0,1.0,part_1,,,,,,,,,,,,,gray,diamond
116.0,2.0,2.0,0.0,1.0,1.0,300.9272859781049,3.0,1.0,part_1,,,,,,,,,,,,,magenta,triangle
49.0,5.0,1.0,1.0,1.0,1.0,506.39957599923946,3.0,1.0,part_1,,,,,,,,,,,,,yellow,circle
413.0,4.0,4.0,0.0,3.0,3.0,373.531613004161,3.0,1.0,part_1,,,,,,,,,,,,,gray,diamond
114.0,2.0,2.0,0.0,3.0,3.0,345.6929690146353,3.0,1.0,part_1,,,,,,,,,,,,,magenta,triangle
416.0,4.0,4.0,0.0,1.0,1.0,318.6048209900036,3.0,1.0,part_1,,,,,,,,,,,,,gray,diamond
185.0,3.0,3.0,0.0,3.0,3.0,293.2433700188994,3.0,1.0,part_1,,,,,,,,,,,,,orange,square
390.0,4.0,4.0,0.0,2.0,2.0,285.9947170072701,3.0,1.0,part_1,,,,,,,,,,,,,gray,diamond
178.0,7.0,3.0,1.0,2.0,2.0,436.9842090236489,3.0,1.0,part_1,,,,,,,,,,,,,green,hexagon
0.0,2.0,0.0,0.0,3.0,3.0,416.6121129819657,3.0,1.0,part_1,,,,,,,,,,,,,magenta,triangle
64.0,1.0,1.0,0.0,4.0,4.0,446.7895909911021,3.0,1.0,part_1,,,,,,,,,,,,,white,I
402.0,4.0,4.0,0.0,2.0,2.0,314.9081139999907,3.0,1.0,part_1,,,,,,,,,,,,,gray,diamond
86.0,6.0,2.0,1.0,4.0,4.0,357.5472620141227,3.0,1.0,part_1,,,,,,,,,,,,,cyan,flipped triangle
0.0,1.0,0.0,0.0,4.0,4.0,374.166099994909,3.0,1.0,part_1,,,,,,,,,,,,,white,I
379.0,8.0,4.0,1.0,2.0,2.0,334.2221479979343,3.0,1.0,part_1,,,,,,,,,,,,,blue,cross
113.0,6.0,2.0,1.0,1.0,1.0,374.9023979762569,3.0,1.0,part_1,,,,,,,,,,,,,cyan,flipped triangle
48.0,5.0,1.0,1.0,1.0,1.0,393.0895029916428,3.0,1.0,part_1,,,,,,,,,,,,,yellow,circle
187.0,7.0,3.0,1.0,4.0,4.0,382.2874140169006,3.0,1.0,part_1,,,,,,,,,,,,,green,hexagon
86.0,2.0,2.0,0.0,4.0,4.0,371.5108739852439,3.0,1.0,part_1,,,,,,,,,,,,,magenta,triangle
220.0,7.0,3.0,1.0,4.0,4.0,350.3620169940404,3.0,1.0,part_1,,,,,,,,,,,,,green,hexagon
97.0,2.0,2.0,0.0,4.0,4.0,362.9588500189129,3.0,1.0,part_1,,,,,,,,,,,,,magenta,triangle
191.0,3.0,3.0,0.0,4.0,4.0,370.3847450087778,3.0,1.0,part_1,,,,,,,,,,,,,orange,square
407.0,8.0,4.0,1.0,3.0,3.0,422.5471399840899,3.0,1.0,part_1,,,,,,,,,,,,,blue,cross
0.0,5.0,0.0,1.0,2.0,2.0,284.5252510160208,3.0,1.0,part_1,,,,,,,,,,,,,yellow,circle
215.0,7.0,3.0,1.0,4.0,4.0,325.9986809862312,3.0,1.0,part_1,,,,,,,,,,,,,green,hexagon
197.0,3.0,3.0,0.0,4.0,4.0,316.8069150124211,3.0,1.0,part_1,,,,,,,,,,,,,orange,square
182.0,3.0,3.0,0.0,4.0,4.0,360.6443700264208,3.0,1.0,part_1,,,,,,,,,,,,,orange,square
75.0,1.0,1.0,0.0,1.0,1.0,374.556330993073,3.0,1.0,part_1,,,,,,,,,,,,,white,I
36.0,1.0,1.0,0.0,4.0,4.0,336.3893860077951,3.0,1.0,part_1,,,,,,,,,,,,,white,I
414.0,8.0,4.0,1.0,4.0,4.0,288.8789460121188,3.0,1.0,part_1,,,,,,,,,,,,,blue,cross
0.0,2.0,0.0,0.0,2.0,2.0,292.7291179948952,3.0,1.0,part_1,,,,,,,,,,,,,magenta,triangle
117.0,2.0,2.0,0.0,1.0,1.0,322.4005060037598,3.0,1.0,part_1,,,,,,,,,,,,,magenta,triangle
120.0,6.0,2.0,1.0,2.0,2.0,282.8985649975948,3.0,1.0,part_1,,,,,,,,,,,,,cyan,flipped triangle
417.0,4.0,4.0,0.0,2.0,2.0,289.4967170141171,3.0,1.0,part_1,,,,,,,,,,,,,gray,diamond
412.0,4.0,4.0,0.0,2.0,2.0,343.8030130055267,3.0,1.0,part_1,,,,,,,,,,,,,gray,diamond
224.0,3.0,3.0,0.0,3.0,3.0,308.8379050022922,3.0,1.0,part_1,,,,,,,,,,,,,orange,square
116.0,6.0,2.0,1.0,2.0,2.0,344.4317870016675,3.0,1.0,part_1,,,,,,,,,,,,,cyan,flipped triangle
41.0,1.0,1.0,0.0,3.0,3.0,396.2614619813394,3.0,1.0,part_1,,,,,,,,,,,,,white,I
57.0,5.0,1.0,1.0,1.0,1.0,295.0198150065262,3.0,1.0,part_1,,,,,,,,,,,,,yellow,circle
0.0,4.0,0.0,0.0,3.0,3.0,292.5057060201652,3.0,1.0,part_1,,,,,,,,,,,,,gray,diamond
71.0,5.0,1.0,1.0,1.0,1.0,199.2373040120583,3.0,2.0,part_1,,,,,,,,,,,,,yellow,circle
71.0,1.0,1.0,0.0,3.0,3.0,306.6347909916658,3.0,1.0,part_1,,,,,,,,,,,,,white,I
409.0,8.0,4.0,1.0,4.0,4.0,294.4175809971057,3.0,1.0,part_1,,,,,,,,,,,,,blue,cross
99.0,6.0,2.0,1.0,1.0,1.0,335.0951700122095,3.0,1.0,part_1,,,,,,,,,,,,,cyan,flipped triangle
51.0,5.0,1.0,1.0,3.0,3.0,328.5194569907617,3.0,1.0,part_1,,,,,,,,,,,,,yellow,circle
92.0,6.0,2.0,1.0,1.0,1.0,480.1602369989268,3.0,1.0,part_1,,,,,,,,,,,,,cyan,flipped triangle
53.0,1.0,1.0,0.0,2.0,2.0,308.5174179868772,3.0,1.0,part_1,,,,,,,,,,,,,white,I
0.0,6.0,0.0,1.0,3.0,3.0,301.8407940107863,3.0,1.0,part_1,,,,,,,,,,,,,cyan,flipped triangle
74.0,1.0,1.0,0.0,1.0,1.0,269.1178829991258,3.0,1.0,part_1,,,,,,,,,,,,,white,I
48.0,1.0,1.0,0.0,4.0,4.0,312.3151609906927,3.0,1.0,part_1,,,,,,,,,,,,,white,I
412.0,8.0,4.0,1.0,2.0,2.0,276.7341470171232,3.0,1.0,part_1,,,,,,,,,,,,,blue,cross
0.0,3.0,0.0,0.0,3.0,3.0,387.7701780002098,3.0,1.0,part_1,,,,,,,,,,,,,orange,square
218.0,7.0,3.0,1.0,2.0,2.0,313.2983639952726,3.0,1.0,part_1,,,,,,,,,,,,,green,hexagon
207.0,7.0,3.0,1.0,3.0,3.0,317.4421770090703,3.0,1.0,part_1,,,,,,,,,,,,,green,hexagon
184.0,7.0,3.0,1.0,1.0,1.0,474.8991849774029,3.0,1.0,part_1,,,,,,,,,,,,,green,hexagon
395.0,4.0,4.0,0.0,4.0,4.0,342.4403660173993,3.0,1.0,part_1,,,,,,,,,,,,,gray,diamond
377.0,8.0,4.0,1.0,1.0,1.0,306.2294120027218,3.0,1.0,part_1,,,,,,,,,,,,,blue,cross
48.0,1.0,1.0,0.0,4.0,4.0,333.4291539795231,3.0,1.0,part_1,,,,,,,,,,,,,white,I
79.0,6.0,2.0,1.0,4.0,4.0,330.2651660051197,3.0,1.0,part_1,,,,,,,,,,,,,cyan,flipped triangle
0.0,2.0,0.0,0.0,1.0,1.0,294.5047229877673,3.0,1.0,part_1,,,,,,,,,,,,,magenta,triangle
101.0,2.0,2.0,0.0,4.0,4.0,835.1569249934983,3.0,1.0,part_1,,,,,,,,,,,,,magenta,triangle
102.0,2.0,2.0,0.0,4.0,4.0,330.383429012727,4.0,1.0,part_1,,,,,,,,,,,,,magenta,triangle
86.0,6.0,2.0,1.0,3.0,3.0,296.1713399854488,4.0,1.0,part_1,,,,,,,,,,,,,cyan,flipped triangle
0.0,7.0,0.0,1.0,3.0,3.0,334.2387879965827,4.0,1.0,part_1,,,,,,,,,,,,,green,hexagon
222.0,3.0,3.0,0.0,2.0,2.0,370.3093570074998,4.0,1.0,part_1,,,,,,,,,,,,,orange,square
417.0,8.0,4.0,1.0,2.0,2.0,315.6019620073493,4.0,1.0,part_1,,,,,,,,,,,,,blue,cross
0.0,2.0,0.0,0.0,2.0,2.0,322.0177149923984,4.0,1.0,part_1,,,,,,,,,,,,,magenta,triangle
33.0,1.0,1.0,0.0,3.0,3.0,336.6085200104862,4.0,1.0,part_1,,,,,,,,,,,,,white,I
0.0,3.0,0.0,0.0,2.0,2.0,282.9746300121769,4.0,1.0,part_1,,,,,,,,,,,,,orange,square
204.0,7.0,3.0,1.0,4.0,4.0,297.2073109995108,4.0,1.0,part_1,,,,,,,,,,,,,green,hexagon
220.0,3.0,3.0,0.0,4.0,4.0,325.6699910270981,4.0,1.0,part_1,,,,,,,,,,,,,orange,square
195.0,3.0,3.0,0.0,1.0,1.0,337.743206997402,4.0,1.0,part_1,,,,,,,,,,,,,orange,square
218.0,3.0,3.0,0.0,1.0,1.0,317.1822270087432,4.0,1.0,part_1,,,,,,,,,,,,,orange,square
0.0,7.0,0.0,1.0,2.0,2.0,308.2144309883006,4.0,1.0,part_1,,,,,,,,,,,,,green,hexagon
415.0,4.0,4.0,0.0,3.0,3.0,296.4152969943825,4.0,1.0,part_1,,,,,,,,,,,,,gray,diamond
120.0,2.0,2.0,0.0,1.0,1.0,292.6117129973136,4.0,1.0,part_1,,,,,,,,,,,,,magenta,triangle
377.0,4.0,4.0,0.0,2.0,2.0,273.8068749895319,4.0,1.0,part_1,,,,,,,,,,,,,gray,diamond
388.0,8.0,4.0,1.0,1.0,1.0,203.3377859916072,4.0,2.0,part_1,,,,,,,,,,,,,blue,cross
0.0,1.0,0.0,0.0,1.0,1.0,317.69992999034,4.0,1.0,part_1,,,,,,,,,,,,,white,I
27.0,1.0,1.0,0.0,3.0,3.0,329.4417489960324,4.0,1.0,part_1,,,,,,,,,,,,,white,I
0.0,3.0,0.0,0.0,4.0,4.0,320.6165479787159,4.0,1.0,part_1,,,,,,,,,,,,,orange,square
405.0,8.0,4.0,1.0,3.0,3.0,411.0939509992022,4.0,1.0,part_1,,,,,,,,,,,,,blue,cross
0.0,4.0,0.0,0.0,2.0,2.0,313.735634990735,4.0,1.0,part_1,,,,,,,,,,,,,gray,diamond
25.0,1.0,1.0,0.0,3.0,3.0,293.2692290050909,4.0,1.0,part_1,,,,,,,,,,,,,white,I
33.0,5.0,1.0,1.0,3.0,3.0,322.3098829912487,4.0,1.0,part_1,,,,,,,,,,,,,yellow,circle
99.0,6.0,2.0,1.0,3.0,3.0,304.5244610111695,4.0,1.0,part_1,,,,,,,,,,,,,cyan,flipped triangle
0.0,8.0,0.0,1.0,4.0,4.0,386.5265700151212,4.0,1.0,part_1,,,,,,,,,,,,,blue,cross
0.0,4.0,0.0,0.0,1.0,1.0,338.8085649930872,4.0,1.0,part_1,,,,,,,,,,,,,gray,diamond
0.0,7.0,0.0,1.0,3.0,3.0,467.9936850152444,4.0,1.0,part_1,,,,,,,,,,,,,green,hexagon
83.0,6.0,2.0,1.0,1.0,1.0,296.7552260088268,4.0,1.0,part_1,,,,,,,,,,,,,cyan,flipped triangle
0.0,6.0,0.0,1.0,1.0,1.0,361.2654479802586,4.0,1.0,part_1,,,,,,,,,,,,,cyan,flipped triangle
402.0,4.0,4.0,0.0,4.0,4.0,305.7540940062608,4.0,1.0,part_1,,,,,,,,,,,,,gray,diamond
204.0,7.0,3.0,1.0,2.0,2.0,256.4567489898763,4.0,1.0,part_1,,,,,,,,,,,,,green,hexagon
197.0,3.0,3.0,0.0,2.0,2.0,291.2519739766139,4.0,1.0,part_1,,,,,,,,,,,,,orange,square
188.0,7.0,3.0,1.0,1.0,1.0,279.6684179920703,4.0,1.0,part_1,,,,,,,,,,,,,green,hexagon
89.0,2.0,2.0,0.0,3.0,3.0,261.4017569867428,4.0,1.0,part_1,,,,,,,,,,,,,magenta,triangle
64.0,1.0,1.0,0.0,1.0,1.0,304.9679250107147,4.0,1.0,part_1,,,,,,,,,,,,,white,I
117.0,6.0,2.0,1.0,1.0,1.0,590.8300370210782,4.0,1.0,part_1,,,,,,,,,,,,,cyan,flipped triangle
75.0,6.0,2.0,1.0,1.0,1.0,308.4491699992213,4.0,1.0,part_1,,,,,,,,,,,,,cyan,flipped triangle
195.0,7.0,3.0,1.0,3.0,3.0,306.1342709988821,4.0,1.0,part_1,,,,,,,,,,,,,green,hexagon
0.0,8.0,0.0,1.0,2.0,2.0,309.8692230123561,4.0,1.0,part_1,,,,,,,,,,,,,blue,cross
187.0,3.0,3.0,0.0,1.0,1.0,320.8306719898246,4.0,1.0,part_1,,,,,,,,,,,,,orange,square
76.0,6.0,2.0,1.0,2.0,2.0,301.1136020068079,4.0,1.0,part_1,,,,,,,,,,,,,cyan,flipped triangle
0.0,5.0,0.0,1.0,1.0,1.0,974.5244499936234,4.0,2.0,part_1,,,,,,,,,,,,,yellow,circle
0.0,6.0,0.0,1.0,4.0,4.0,507.5710569799412,4.0,1.0,part_1,,,,,,,,,,,,,cyan,flipped triangle
49.0,1.0,1.0,0.0,2.0,2.0,322.151874017436,4.0,1.0,part_1,,,,,,,,,,,,,white,I
210.0,7.0,3.0,1.0,4.0,4.0,469.309242995223,4.0,1.0,part_1,,,,,,,,,,,,,green,hexagon
0.0,5.0,0.0,1.0,2.0,2.0,313.7659509957302,4.0,1.0,part_1,,,,,,,,,,,,,yellow,circle
402.0,8.0,4.0,1.0,3.0,3.0,362.3259380110539,4.0,1.0,part_1,,,,,,,,,,,,,blue,cross
409.0,4.0,4.0,0.0,3.0,3.0,434.7849719924852,4.0,1.0,part_1,,,,,,,,,,,,,gray,diamond
379.0,4.0,4.0,0.0,3.0,3.0,337.9102239850908,4.0,1.0,part_1,,,,,,,,,,,,,gray,diamond
177.0,3.0,3.0,0.0,1.0,1.0,317.8194130014162,4.0,1.0,part_1,,,,,,,,,,,,,orange,square
71.0,5.0,1.0,1.0,2.0,2.0,321.872586995596,4.0,1.0,part_1,,,,,,,,,,,,,yellow,circle
0.0,2.0,0.0,0.0,4.0,4.0,334.249400999397,4.0,1.0,part_1,,,,,,,,,,,,,magenta,triangle
0.0,8.0,0.0,1.0,1.0,1.0,350.2751769847236,4.0,1.0,part_1,,,,,,,,,,,,,blue,cross
46.0,1.0,1.0,0.0,4.0,4.0,431.838571006665,4.0,1.0,part_1,,,,,,,,,,,,,white,I
204.0,3.0,3.0,0.0,1.0,1.0,343.8190140004735,4.0,1.0,part_1,,,,,,,,,,,,,orange,square
120.0,2.0,2.0,0.0,1.0,1.0,361.3006779924035,4.0,1.0,part_1,,,,,,,,,,,,,magenta,triangle
0.0,7.0,0.0,1.0,2.0,2.0,0.16497398610220002,4.0,2.0,part_1,,,,,,,,,,,,,green,hexagon
197.0,7.0,3.0,1.0,2.0,2.0,334.3015830032527,4.0,1.0,part_1,,,,,,,,,,,,,green,hexagon
0.0,2.0,0.0,0.0,2.0,2.0,341.7377140140161,4.0,1.0,part_1,,,,,,,,,,,,,magenta,triangle
214.0,7.0,3.0,1.0,1.0,1.0,320.3131890040822,4.0,1.0,part_1,,,,,,,,,,,,,green,hexagon
214.0,3.0,3.0,0.0,3.0,3.0,292.5886510056443,4.0,1.0,part_1,,,,,,,,,,,,,orange,square
57.0,1.0,1.0,0.0,2.0,2.0,292.823147989111,4.0,1.0,part_1,,,,,,,,,,,,,white,I
405.0,8.0,4.0,1.0,1.0,1.0,310.1077000028454,4.0,1.0,part_1,,,,,,,,,,,,,blue,cross
381.0,8.0,4.0,1.0,3.0,3.0,317.6192980026826,4.0,1.0,part_1,,,,,,,,,,,,,blue,cross
69.0,1.0,1.0,0.0,3.0,3.0,378.3165080239996,4.0,1.0,part_1,,,,,,,,,,,,,white,I
218.0,3.0,3.0,0.0,3.0,3.0,324.73551001749,4.0,1.0,part_1,,,,,,,,,,,,,orange,square
391.0,4.0,4.0,0.0,4.0,4.0,329.2456759954802,4.0,1.0,part_1,,,,,,,,,,,,,gray,diamond
0.0,6.0,0.0,1.0,4.0,4.0,369.0540470124688,4.0,1.0,part_1,,,,,,,,,,,,,cyan,flipped triangle
0.0,1.0,0.0,0.0,1.0,1.0,330.2486590109765,4.0,1.0,part_1,,,,,,,,,,,,,white,I
30.0,1.0,1.0,0.0,4.0,4.0,305.20377799985,4.0,1.0,part_1,,,,,,,,,,,,,white,I
187.0,7.0,3.0,1.0,2.0,2.0,268.2576590159442,4.0,1.0,part_1,,,,,,,,,,,,,green,hexagon
62.0,5.0,1.0,1.0,4.0,4.0,345.3313270001672,4.0,1.0,part_1,,,,,,,,,,,,,yellow,circle
0.0,4.0,0.0,0.0,2.0,2.0,332.368639006745,4.0,1.0,part_1,,,,,,,,,,,,,gray,diamond
75.0,6.0,2.0,1.0,3.0,3.0,338.3688440080732,4.0,1.0,part_1,,,,,,,,,,,,,cyan,flipped triangle
197.0,7.0,3.0,1.0,3.0,3.0,366.7648940172512,4.0,1.0,part_1,,,,,,,,,,,,,green,hexagon
0.0,6.0,0.0,1.0,2.0,2.0,278.7344650132581,4.0,1.0,part_1,,,,,,,,,,,,,cyan,flipped triangle
190.0,3.0,3.0,0.0,2.0,2.0,313.249625993194,4.0,1.0,part_1,,,,,,,,,,,,,orange,square
101.0,6.0,2.0,1.0,4.0,4.0,334.1584279842209,4.0,1.0,part_1,,,,,,,,,,,,,cyan,flipped triangle
395.0,8.0,4.0,1.0,4.0,4.0,330.8455939986743,4.0,1.0,part_1,,,,,,,,,,,,,blue,cross
422.0,4.0,4.0,0.0,1.0,1.0,317.7841040014755,4.0,1.0,part_1,,,,,,,,,,,,,gray,diamond
191.0,3.0,3.0,0.0,4.0,4.0,395.0581020035315,4.0,1.0,part_1,,,,,,,,,,,,,orange,square
104.0,6.0,2.0,1.0,2.0,2.0,206.5922329784371,4.0,2.0,part_1,,,,,,,,,,,,,cyan,flipped triangle
0.0,7.0,0.0,1.0,2.0,2.0,321.1680920212529,4.0,1.0,part_1,,,,,,,,,,,,,green,hexagon
179.0,7.0,3.0,1.0,2.0,2.0,295.6150530080776,4.0,1.0,part_1,,,,,,,,,,,,,green,hexagon
78.0,6.0,2.0,1.0,4.0,4.0,240.3598309902008,4.0,2.0,part_1,,,,,,,,,,,,,cyan,flipped triangle
0.0,4.0,0.0,0.0,3.0,3.0,340.2541819959879,4.0,1.0,part_1,,,,,,,,,,,,,gray,diamond
224.0,7.0,3.0,1.0,3.0,3.0,380.0042599905282,4.0,1.0,part_1,,,,,,,,,,,,,green,hexagon
120.0,6.0,2.0,1.0,3.0,3.0,234.6807260182686,4.0,2.0,part_1,,,,,,,,,,,,,cyan,flipped triangle
78.0,2.0,2.0,0.0,2.0,2.0,286.246626987122,4.0,1.0,part_1,,,,,,,,,,,,,magenta,triangle
408.0,4.0,4.0,0.0,4.0,4.0,475.5250639864243,4.0,1.0,part_1,,,,,,,,,,,,,gray,diamond
0.0,6.0,0.0,1.0,3.0,3.0,315.0318839761894,4.0,1.0,part_1,,,,,,,,,,,,,cyan,flipped triangle
0.0,5.0,0.0,1.0,2.0,2.0,286.5907099912874,4.0,1.0,part_1,,,,,,,,,,,,,yellow,circle
390.0,4.0,4.0,0.0,4.0,4.0,356.8111939821392,4.0,1.0,part_1,,,,,,,,,,,,,gray,diamond
185.0,7.0,3.0,1.0,2.0,2.0,196.6151050000917,4.0,2.0,part_1,,,,,,,,,,,,,green,hexagon
0.0,1.0,0.0,0.0,2.0,2.0,318.6560239992104,4.0,1.0,part_1,,,,,,,,,,,,,white,I
0.0,1.0,0.0,0.0,4.0,4.0,435.4893479903694,4.0,1.0,part_1,,,,,,,,,,,,,white,I
386.0,8.0,4.0,1.0,4.0,4.0,354.7859190148301,4.0,1.0,part_1,,,,,,,,,,,,,blue,cross
384.0,4.0,4.0,0.0,2.0,2.0,351.4174919982906,4.0,1.0,part_1,,,,,,,,,,,,,gray,diamond
182.0,3.0,3.0,0.0,1.0,1.0,215.3388329898007,4.0,2.0,part_1,,,,,,,,,,,,,orange,square
0.0,1.0,1.0,0.0,6.0,6.0,476.0690319817513,1.0,0.0,part_2,go,250.0,250.0,1.0,,,,,,,,,white,I
0.0,3.0,3.0,0.0,6.0,6.0,435.6115839909762,1.0,0.0,part_2,go,250.0,250.0,1.0,,,,,,,,,orange,square
0.0,3.0,3.0,0.0,6.0,6.0,368.1076829961967,1.0,0.0,part_2,go,250.0,250.0,1.0,,,,,,,,,orange,square
0.0,2.0,2.0,0.0,5.0,5.0,336.7851820075884,1.0,0.0,part_2,go,250.0,250.0,1.0,,,,,,,,,magenta,triangle
0.0,3.0,3.0,0.0,6.0,6.0,306.3673670112621,1.0,0.0,part_2,go,250.0,250.0,1.0,,,,,,,,,orange,square
0.0,1.0,1.0,0.0,5.0,5.0,322.346191998804,1.0,0.0,part_2,go,250.0,250.0,1.0,,,,,,,,,white,I
0.0,7.0,3.0,1.0,6.0,0.0,0.0,1.0,0.0,part_2,stop,250.0,250.0,4.0,,,,,,,,,green,hexagon
0.0,8.0,4.0,1.0,6.0,6.0,444.9751990032382,1.0,0.0,part_2,stop,250.0,300.0,3.0,,,,,,,,,blue,cross
0.0,1.0,1.0,0.0,6.0,6.0,688.1785159930587,1.0,0.0,part_2,go,250.0,250.0,1.0,,,,,,,,,white,I
0.0,2.0,2.0,0.0,5.0,5.0,300.1330750121269,1.0,0.0,part_2,go,250.0,250.0,1.0,,,,,,,,,magenta,triangle
0.0,7.0,3.0,1.0,5.0,0.0,0.0,1.0,0.0,part_2,stop,250.0,250.0,4.0,,,,,,,,,green,hexagon
0.0,2.0,2.0,0.0,5.0,5.0,627.8764060116373,1.0,0.0,part_2,go,300.0,250.0,1.0,,,,,,,,,magenta,triangle
0.0,6.0,2.0,1.0,6.0,6.0,556.8922329985071,1.0,0.0,part_2,go,300.0,250.0,1.0,,,,,,,,,cyan,flipped triangle
0.0,4.0,4.0,0.0,5.0,5.0,412.492838979233,1.0,0.0,part_2,go,300.0,250.0,1.0,,,,,,,,,gray,diamond
0.0,1.0,1.0,0.0,6.0,6.0,467.0728080091066,1.0,0.0,part_2,go,300.0,250.0,1.0,,,,,,,,,white,I
0.0,3.0,3.0,0.0,5.0,5.0,408.9666310173925,1.0,0.0,part_2,go,300.0,250.0,1.0,,,,,,,,,orange,square
0.0,6.0,2.0,1.0,5.0,5.0,344.2451120063197,1.0,0.0,part_2,go,300.0,250.0,1.0,,,,,,,,,cyan,flipped triangle
0.0,2.0,2.0,0.0,6.0,6.0,707.4307280126959,1.0,0.0,part_2,go,300.0,250.0,1.0,,,,,,,,,magenta,triangle
0.0,7.0,3.0,1.0,5.0,5.0,425.9570770082064,1.0,0.0,part_2,stop,300.0,250.0,3.0,,,,,,,,,green,hexagon
0.0,8.0,4.0,1.0,6.0,0.0,0.0,1.0,0.0,part_2,stop,250.0,250.0,4.0,,,,,,,,,blue,cross
0.0,3.0,3.0,0.0,6.0,6.0,670.6446660100482,1.0,0.0,part_2,go,250.0,300.0,1.0,,,,,,,,,orange,square
0.0,8.0,4.0,1.0,5.0,5.0,309.7400600090623,1.0,0.0,part_2,stop,250.0,300.0,3.0,,,,,,,,,blue,cross
0.0,3.0,3.0,0.0,5.0,5.0,822.5446090218611,1.0,0.0,part_2,go,200.0,300.0,1.0,,,,,,,,,orange,square
0.0,6.0,2.0,1.0,5.0,0.0,0.0,1.0,0.0,part_2,stop,200.0,300.0,4.0,,,,,,,,,cyan,flipped triangle
0.0,7.0,3.0,1.0,6.0,6.0,620.5493189918343,1.0,0.0,part_2,go,250.0,300.0,1.0,,,,,,,,,green,hexagon
0.0,1.0,1.0,0.0,5.0,5.0,725.7067149912473,1.0,0.0,part_2,go,250.0,300.0,1.0,,,,,,,,,white,I
0.0,2.0,2.0,0.0,5.0,5.0,899.6382629848085,1.0,0.0,part_2,go,250.0,300.0,1.0,,,,,,,,,magenta,triangle
0.0,2.0,2.0,0.0,5.0,5.0,748.1531809899025,1.0,0.0,part_2,go,250.0,300.0,1.0,,,,,,,,,magenta,triangle
0.0,8.0,4.0,1.0,6.0,6.0,524.1630020027515,1.0,0.0,part_2,go,250.0,300.0,1.0,,,,,,,,,blue,cross
0.0,8.0,4.0,1.0,5.0,0.0,0.0,1.0,0.0,part_2,stop,250.0,300.0,4.0,,,,,,,,,blue,cross
0.0,3.0,3.0,0.0,6.0,6.0,707.8604789858218,1.0,0.0,part_2,go,300.0,300.0,1.0,,,,,,,,,orange,square
0.0,1.0,1.0,0.0,6.0,6.0,691.6436600149609,1.0,0.0,part_2,go,300.0,300.0,1.0,,,,,,,,,white,I
0.0,7.0,3.0,1.0,6.0,6.0,575.2844669914339,1.0,0.0,part_2,go,300.0,300.0,1.0,,,,,,,,,green,hexagon
0.0,3.0,3.0,0.0,5.0,5.0,536.7699989874382,1.0,0.0,part_2,go,300.0,300.0,1.0,,,,,,,,,orange,square
0.0,2.0,2.0,0.0,6.0,6.0,558.0437929893378,1.0,0.0,part_2,go,300.0,300.0,1.0,,,,,,,,,magenta,triangle
0.0,4.0,4.0,0.0,5.0,5.0,589.7261110076215,1.0,0.0,part_2,go,300.0,300.0,1.0,,,,,,,,,gray,diamond
0.0,1.0,1.0,0.0,5.0,5.0,499.9579360010102,2.0,0.0,part_2,go,300.0,300.0,1.0,,,,,,,,,white,I
0.0,7.0,3.0,1.0,6.0,0.0,0.0,2.0,0.0,part_2,stop,300.0,300.0,4.0,,,,,,,,,green,hexagon
0.0,1.0,1.0,0.0,6.0,6.0,778.7280210177414,2.0,0.0,part_2,go,300.0,350.0,1.0,,,,,,,,,white,I
0.0,6.0,2.0,1.0,5.0,0.0,0.0,2.0,0.0,part_2,stop,300.0,350.0,4.0,,,,,,,,,cyan,flipped triangle
0.0,8.0,4.0,1.0,6.0,0.0,0.0,2.0,0.0,part_2,stop,350.0,350.0,4.0,,,,,,,,,blue,cross
0.0,2.0,2.0,0.0,5.0,5.0,581.2576439930126,2.0,0.0,part_2,go,350.0,400.0,1.0,,,,,,,,,magenta,triangle
0.0,2.0,2.0,0.0,6.0,6.0,667.2323539969511,2.0,0.0,part_2,go,350.0,400.0,1.0,,,,,,,,,magenta,triangle
0.0,7.0,3.0,1.0,5.0,5.0,554.2801470146514,2.0,0.0,part_2,go,350.0,400.0,1.0,,,,,,,,,green,hexagon
0.0,4.0,4.0,0.0,5.0,5.0,666.4882589830086,2.0,0.0,part_2,go,350.0,400.0,1.0,,,,,,,,,gray,diamond
0.0,5.0,1.0,1.0,6.0,6.0,631.6731819824781,2.0,0.0,part_2,go,350.0,400.0,1.0,,,,,,,,,yellow,circle
0.0,8.0,4.0,1.0,5.0,0.0,0.0,2.0,0.0,part_2,stop,350.0,400.0,4.0,,,,,,,,,blue,cross
0.0,7.0,3.0,1.0,6.0,6.0,457.8092909941915,2.0,0.0,part_2,stop,400.0,400.0,3.0,,,,,,,,,green,hexagon
0.0,4.0,4.0,0.0,6.0,6.0,792.3889360099565,2.0,0.0,part_2,go,400.0,350.0,1.0,,,,,,,,,gray,diamond
0.0,3.0,3.0,0.0,6.0,6.0,758.4987320005894,2.0,0.0,part_2,go,400.0,350.0,1.0,,,,,,,,,orange,square
0.0,7.0,3.0,1.0,6.0,0.0,0.0,2.0,0.0,part_2,stop,400.0,350.0,4.0,,,,,,,,,green,hexagon
0.0,5.0,1.0,1.0,5.0,0.0,0.0,2.0,0.0,part_2,stop,400.0,400.0,4.0,,,,,,,,,yellow,circle
0.0,8.0,4.0,1.0,5.0,0.0,0.0,2.0,0.0,part_2,stop,450.0,400.0,4.0,,,,,,,,,blue,cross
0.0,4.0,4.0,0.0,6.0,6.0,525.0581160071306,2.0,0.0,part_2,go,500.0,400.0,1.0,,,,,,,,,gray,diamond
0.0,3.0,3.0,0.0,6.0,6.0,557.8307949763257,2.0,0.0,part_2,go,500.0,400.0,1.0,,,,,,,,,orange,square
0.0,1.0,1.0,0.0,5.0,5.0,689.5731880213134,2.0,0.0,part_2,go,500.0,400.0,1.0,,,,,,,,,white,I
0.0,5.0,1.0,1.0,5.0,0.0,0.0,2.0,0.0,part_2,stop,500.0,400.0,4.0,,,,,,,,,yellow,circle
0.0,3.0,3.0,0.0,5.0,5.0,634.5164960075635,2.0,0.0,part_2,go,550.0,400.0,1.0,,,,,,,,,orange,square
0.0,7.0,3.0,1.0,5.0,5.0,649.6609419991728,2.0,0.0,part_2,stop,550.0,400.0,3.0,,,,,,,,,green,hexagon
0.0,4.0,4.0,0.0,5.0,5.0,711.5648259932641,2.0,0.0,part_2,go,500.0,400.0,1.0,,,,,,,,,gray,diamond
0.0,2.0,2.0,0.0,5.0,5.0,721.4100639976095,2.0,0.0,part_2,go,500.0,400.0,1.0,,,,,,,,,magenta,triangle
0.0,4.0,4.0,0.0,6.0,6.0,408.9292779972311,2.0,0.0,part_2,go,500.0,400.0,1.0,,,,,,,,,gray,diamond
0.0,4.0,4.0,0.0,6.0,6.0,329.2044139816426,2.0,0.0,part_2,go,500.0,400.0,1.0,,,,,,,,,gray,diamond
0.0,8.0,4.0,1.0,5.0,5.0,597.7284300024621,2.0,0.0,part_2,go,500.0,400.0,1.0,,,,,,,,,blue,cross
0.0,8.0,4.0,1.0,5.0,5.0,549.2451440077275,2.0,0.0,part_2,stop,500.0,400.0,3.0,,,,,,,,,blue,cross
0.0,3.0,3.0,0.0,6.0,6.0,710.3155810036696,2.0,0.0,part_2,go,450.0,400.0,1.0,,,,,,,,,orange,square
0.0,5.0,1.0,1.0,5.0,0.0,0.0,2.0,0.0,part_2,stop,450.0,400.0,4.0,,,,,,,,,yellow,circle
0.0,4.0,4.0,0.0,5.0,5.0,661.6739549790509,2.0,0.0,part_2,go,500.0,400.0,1.0,,,,,,,,,gray,diamond
0.0,2.0,2.0,0.0,5.0,5.0,593.9205489994492,2.0,0.0,part_2,go,500.0,400.0,1.0,,,,,,,,,magenta,triangle
0.0,1.0,1.0,0.0,5.0,5.0,474.3567279947456,2.0,0.0,part_2,go,500.0,400.0,1.0,,,,,,,,,white,I
0.0,8.0,4.0,1.0,5.0,5.0,378.1117020116653,2.0,0.0,part_2,stop,500.0,400.0,3.0,,,,,,,,,blue,cross
0.0,6.0,2.0,1.0,5.0,0.0,0.0,2.0,0.0,part_2,stop,450.0,400.0,4.0,,,,,,,,,cyan,flipped triangle
0.0,5.0,1.0,1.0,5.0,5.0,412.8812740091234,3.0,0.0,part_2,stop,500.0,400.0,3.0,,,,,,,,,yellow,circle
0.0,1.0,1.0,0.0,6.0,0.0,0.0,3.0,0.0,part_2,go,450.0,400.0,5.0,,,,,,,,,white,I
0.0,1.0,1.0,0.0,6.0,6.0,489.3179950013291,3.0,0.0,part_2,go,450.0,400.0,1.0,,,,,,,,,white,I
0.0,2.0,2.0,0.0,6.0,6.0,450.4533419967629,3.0,0.0,part_2,go,450.0,400.0,1.0,,,,,,,,,magenta,triangle
0.0,4.0,4.0,0.0,5.0,5.0,512.8545780025888,3.0,0.0,part_2,go,450.0,400.0,1.0,,,,,,,,,gray,diamond
0.0,1.0,1.0,0.0,5.0,5.0,467.3198769742157,3.0,0.0,part_2,go,450.0,400.0,1.0,,,,,,,,,white,I
0.0,4.0,4.0,0.0,6.0,6.0,511.7156440101098,3.0,0.0,part_2,go,450.0,400.0,1.0,,,,,,,,,gray,diamond
0.0,6.0,2.0,1.0,5.0,5.0,352.5800310017075,3.0,0.0,part_2,stop,450.0,400.0,3.0,,,,,,,,,cyan,flipped triangle
0.0,6.0,2.0,1.0,5.0,0.0,0.0,3.0,0.0,part_2,stop,400.0,400.0,4.0,,,,,,,,,cyan,flipped triangle
0.0,5.0,1.0,1.0,6.0,6.0,871.3755820062943,3.0,0.0,part_2,go,450.0,400.0,1.0,,,,,,,,,yellow,circle
0.0,7.0,3.0,1.0,5.0,5.0,704.3930079962593,3.0,0.0,part_2,go,450.0,400.0,1.0,,,,,,,,,green,hexagon
0.0,5.0,1.0,1.0,6.0,0.0,0.0,3.0,0.0,part_2,stop,450.0,400.0,4.0,,,,,,,,,yellow,circle
0.0,2.0,2.0,0.0,6.0,6.0,933.7837639905048,3.0,0.0,part_2,go,450.0,450.0,1.0,,,,,,,,,magenta,triangle
0.0,2.0,2.0,0.0,5.0,5.0,740.242423984455,3.0,0.0,part_2,go,450.0,450.0,1.0,,,,,,,,,magenta,triangle
0.0,4.0,4.0,0.0,5.0,5.0,1285.9865020145662,3.0,0.0,part_2,go,450.0,450.0,1.0,,,,,,,,,gray,diamond
0.0,6.0,2.0,1.0,6.0,0.0,0.0,3.0,0.0,part_2,stop,450.0,450.0,4.0,,,,,,,,,cyan,flipped triangle
0.0,8.0,4.0,1.0,6.0,6.0,859.4992450089194,3.0,0.0,part_2,go,450.0,500.0,1.0,,,,,,,,,blue,cross
0.0,4.0,4.0,0.0,5.0,5.0,788.5365520196501,3.0,0.0,part_2,go,450.0,500.0,1.0,,,,,,,,,gray,diamond
0.0,7.0,3.0,1.0,5.0,5.0,624.5922679954674,3.0,0.0,part_2,stop,450.0,500.0,3.0,,,,,,,,,green,hexagon
0.0,4.0,4.0,0.0,6.0,6.0,794.5900630147662,3.0,0.0,part_2,go,400.0,500.0,1.0,,,,,,,,,gray,diamond
0.0,5.0,1.0,1.0,5.0,0.0,0.0,3.0,0.0,part_2,stop,400.0,500.0,4.0,,,,,,,,,yellow,circle
0.0,3.0,3.0,0.0,5.0,5.0,1056.7904910130892,3.0,0.0,part_2,go,450.0,500.0,1.0,,,,,,,,,orange,square
0.0,8.0,4.0,1.0,5.0,0.0,0.0,3.0,0.0,part_2,stop,450.0,500.0,4.0,,,,,,,,,blue,cross
0.0,4.0,4.0,0.0,6.0,6.0,776.2770859990269,3.0,0.0,part_2,go,500.0,500.0,1.0,,,,,,,,,gray,diamond
0.0,1.0,1.0,0.0,6.0,6.0,712.5053670024499,3.0,0.0,part_2,go,500.0,500.0,1.0,,,,,,,,,white,I
0.0,4.0,4.0,0.0,5.0,5.0,712.6925140037201,3.0,0.0,part_2,go,500.0,500.0,1.0,,,,,,,,,gray,diamond
0.0,4.0,4.0,0.0,6.0,6.0,327.3513470194302,3.0,0.0,part_2,go,500.0,500.0,1.0,,,,,,,,,gray,diamond
0.0,5.0,1.0,1.0,5.0,0.0,0.0,3.0,0.0,part_2,stop,500.0,500.0,4.0,,,,,,,,,yellow,circle
0.0,5.0,1.0,1.0,5.0,0.0,0.0,3.0,0.0,part_2,stop,550.0,500.0,4.0,,,,,,,,,yellow,circle
0.0,2.0,2.0,0.0,5.0,5.0,710.3030940052122,3.0,0.0,part_2,go,600.0,500.0,1.0,,,,,,,,,magenta,triangle
0.0,6.0,2.0,1.0,6.0,0.0,0.0,3.0,0.0,part_2,stop,600.0,500.0,4.0,,,,,,,,,cyan,flipped triangle
0.0,8.0,4.0,1.0,6.0,0.0,0.0,3.0,0.0,part_2,stop,600.0,550.0,4.0,,,,,,,,,blue,cross
0.0,1.0,1.0,0.0,6.0,6.0,723.937857983401,3.0,0.0,part_2,go,600.0,600.0,1.0,,,,,,,,,white,I
0.0,7.0,3.0,1.0,6.0,6.0,683.3142440009397,3.0,0.0,part_2,stop,600.0,600.0,3.0,,,,,,,,,green,hexagon
0.0,2.0,2.0,0.0,6.0,6.0,904.1812180075794,3.0,0.0,part_2,go,600.0,550.0,1.0,,,,,,,,,magenta,triangle
0.0,6.0,2.0,1.0,5.0,5.0,551.8516009906307,3.0,0.0,part_2,stop,600.0,550.0,3.0,,,,,,,,,cyan,flipped triangle
0.0,4.0,4.0,0.0,6.0,6.0,472.3282339982688,4.0,0.0,part_2,go,550.0,550.0,1.0,,,,,,,,,gray,diamond
0.0,4.0,4.0,0.0,6.0,6.0,383.7605860026087,4.0,0.0,part_2,go,550.0,550.0,1.0,,,,,,,,,gray,diamond
0.0,8.0,4.0,1.0,5.0,5.0,574.6561560081318,4.0,0.0,part_2,stop,550.0,550.0,3.0,,,,,,,,,blue,cross
0.0,2.0,2.0,0.0,6.0,6.0,758.9497570006642,4.0,0.0,part_2,go,500.0,550.0,1.0,,,,,,,,,magenta,triangle
0.0,8.0,4.0,1.0,6.0,6.0,613.3949380018748,4.0,0.0,part_2,stop,500.0,550.0,3.0,,,,,,,,,blue,cross
0.0,3.0,3.0,0.0,5.0,5.0,612.8652920015156,4.0,0.0,part_2,go,500.0,500.0,1.0,,,,,,,,,orange,square
0.0,8.0,4.0,1.0,5.0,5.0,524.7310120030306,4.0,0.0,part_2,stop,500.0,500.0,3.0,,,,,,,,,blue,cross
0.0,5.0,1.0,1.0,5.0,0.0,0.0,4.0,0.0,part_2,stop,450.0,500.0,4.0,,,,,,,,,yellow,circle
0.0,6.0,2.0,1.0,5.0,5.0,731.341918988619,4.0,0.0,part_2,go,500.0,500.0,1.0,,,,,,,,,cyan,flipped triangle
0.0,2.0,2.0,0.0,5.0,5.0,405.8308629901148,4.0,0.0,part_2,go,500.0,500.0,1.0,,,,,,,,,magenta,triangle
0.0,7.0,3.0,1.0,5.0,0.0,0.0,4.0,0.0,part_2,stop,500.0,500.0,4.0,,,,,,,,,green,hexagon
0.0,7.0,3.0,1.0,6.0,0.0,0.0,4.0,0.0,part_2,stop,550.0,500.0,4.0,,,,,,,,,green,hexagon
0.0,8.0,4.0,1.0,6.0,6.0,673.3825109840836,4.0,0.0,part_2,stop,550.0,550.0,3.0,,,,,,,,,blue,cross
0.0,3.0,3.0,0.0,6.0,6.0,844.0929100033827,4.0,0.0,part_2,go,550.0,500.0,1.0,,,,,,,,,orange,square
0.0,5.0,1.0,1.0,6.0,0.0,0.0,4.0,0.0,part_2,stop,550.0,500.0,4.0,,,,,,,,,yellow,circle
0.0,2.0,2.0,0.0,6.0,6.0,785.2562059997581,4.0,0.0,part_2,go,550.0,550.0,1.0,,,,,,,,,magenta,triangle
0.0,3.0,3.0,0.0,5.0,5.0,713.777362019755,4.0,0.0,part_2,go,550.0,550.0,1.0,,,,,,,,,orange,square
0.0,1.0,1.0,0.0,5.0,5.0,767.3273480031639,4.0,0.0,part_2,go,550.0,550.0,1.0,,,,,,,,,white,I
0.0,4.0,4.0,0.0,5.0,5.0,704.8906490090303,4.0,0.0,part_2,go,550.0,550.0,1.0,,,,,,,,,gray,diamond
0.0,3.0,3.0,0.0,6.0,6.0,487.4644890078343,4.0,0.0,part_2,go,550.0,550.0,1.0,,,,,,,,,orange,square
0.0,7.0,3.0,1.0,5.0,5.0,645.6582459795754,4.0,0.0,part_2,stop,550.0,550.0,3.0,,,,,,,,,green,hexagon
0.0,3.0,3.0,0.0,5.0,5.0,636.2695409916341,4.0,0.0,part_2,go,500.0,550.0,1.0,,,,,,,,,orange,square
0.0,8.0,4.0,1.0,6.0,0.0,0.0,4.0,0.0,part_2,stop,500.0,550.0,4.0,,,,,,,,,blue,cross
0.0,6.0,2.0,1.0,5.0,0.0,0.0,4.0,0.0,part_2,stop,500.0,600.0,4.0,,,,,,,,,cyan,flipped triangle
0.0,6.0,2.0,1.0,5.0,0.0,0.0,4.0,0.0,part_2,stop,550.0,600.0,4.0,,,,,,,,,cyan,flipped triangle
0.0,1.0,1.0,0.0,6.0,6.0,657.3767490044702,4.0,0.0,part_2,go,600.0,600.0,1.0,,,,,,,,,white,I
0.0,4.0,4.0,0.0,6.0,6.0,585.7793629984371,4.0,0.0,part_2,go,600.0,600.0,1.0,,,,,,,,,gray,diamond
0.0,6.0,2.0,1.0,6.0,6.0,368.6648209986742,4.0,0.0,part_2,stop,600.0,600.0,3.0,,,,,,,,,cyan,flipped triangle
0.0,3.0,3.0,0.0,6.0,6.0,802.8349080123007,4.0,0.0,part_2,go,600.0,550.0,1.0,,,,,,,,,orange,square
0.0,3.0,3.0,0.0,6.0,6.0,823.2766060100403,4.0,0.0,part_2,go,600.0,550.0,1.0,,,,,,,,,orange,square
0.0,1.0,1.0,0.0,5.0,5.0,553.2572170195635,4.0,0.0,part_2,go,600.0,550.0,1.0,,,,,,,,,white,I
0.0,5.0,1.0,1.0,5.0,5.0,614.6393190138042,4.0,0.0,part_2,go,600.0,550.0,1.0,,,,,,,,,yellow,circle
0.0,8.0,4.0,1.0,6.0,6.0,336.0522399889305,4.0,0.0,part_2,stop,600.0,550.0,3.0,,,,,,,,,blue,cross
0.0,7.0,3.0,1.0,5.0,5.0,520.7340139895678,4.0,0.0,part_2,stop,600.0,500.0,3.0,,,,,,,,,green,hexagon
0.0,3.0,3.0,0.0,6.0,6.0,677.1347640024032,4.0,0.0,part_2,go,550.0,500.0,1.0,,,,,,,,,orange,square
0.0,3.0,3.0,0.0,6.0,6.0,654.7508669900708,4.0,0.0,part_2,go,550.0,500.0,1.0,,,,,,,,,orange,square
0.0,6.0,2.0,1.0,5.0,5.0,504.1250200010836,5.0,0.0,part_2,stop,550.0,500.0,3.0,,,,,,,,,cyan,flipped triangle
0.0,6.0,2.0,1.0,6.0,6.0,648.3452460088301,5.0,0.0,part_2,stop,500.0,500.0,3.0,,,,,,,,,cyan,flipped triangle
0.0,4.0,4.0,0.0,6.0,6.0,774.3744970066473,5.0,0.0,part_2,go,500.0,450.0,1.0,,,,,,,,,gray,diamond
0.0,2.0,2.0,0.0,6.0,6.0,790.6767620006576,5.0,0.0,part_2,go,500.0,450.0,1.0,,,,,,,,,magenta,triangle
0.0,8.0,4.0,1.0,6.0,6.0,548.9916940277908,5.0,0.0,part_2,stop,500.0,450.0,3.0,,,,,,,,,blue,cross
0.0,3.0,3.0,0.0,6.0,6.0,935.2420390059706,5.0,0.0,part_2,go,500.0,400.0,1.0,,,,,,,,,orange,square
0.0,8.0,4.0,1.0,5.0,5.0,621.883087005699,5.0,0.0,part_2,stop,500.0,400.0,3.0,,,,,,,,,blue,cross
0.0,3.0,3.0,0.0,5.0,5.0,764.1698450024705,5.0,0.0,part_2,go,450.0,400.0,1.0,,,,,,,,,orange,square
0.0,4.0,4.0,0.0,6.0,6.0,683.8681040098891,5.0,0.0,part_2,go,450.0,400.0,1.0,,,,,,,,,gray,diamond
0.0,7.0,3.0,1.0,6.0,6.0,805.2665090071969,5.0,0.0,part_2,go,450.0,400.0,1.0,,,,,,,,,green,hexagon
0.0,1.0,1.0,0.0,6.0,6.0,505.85124600911513,5.0,0.0,part_2,go,450.0,400.0,1.0,,,,,,,,,white,I
0.0,4.0,4.0,0.0,5.0,5.0,540.7428680045996,5.0,0.0,part_2,go,450.0,400.0,1.0,,,,,,,,,gray,diamond
0.0,6.0,2.0,1.0,6.0,6.0,704.512045980664,5.0,0.0,part_2,go,450.0,400.0,1.0,,,,,,,,,cyan,flipped triangle
0.0,8.0,4.0,1.0,6.0,6.0,351.9322999927681,5.0,0.0,part_2,stop,450.0,400.0,3.0,,,,,,,,,blue,cross
0.0,7.0,3.0,1.0,5.0,0.0,0.0,5.0,0.0,part_2,stop,450.0,350.0,4.0,,,,,,,,,green,hexagon
0.0,4.0,4.0,0.0,5.0,5.0,721.9481980137061,5.0,0.0,part_2,go,500.0,350.0,1.0,,,,,,,,,gray,diamond
0.0,5.0,1.0,1.0,5.0,0.0,0.0,5.0,0.0,part_2,stop,500.0,350.0,4.0,,,,,,,,,yellow,circle
0.0,2.0,2.0,0.0,6.0,6.0,744.1383449768182,5.0,0.0,part_2,go,550.0,350.0,1.0,,,,,,,,,magenta,triangle
0.0,5.0,1.0,1.0,6.0,0.0,0.0,5.0,0.0,part_2,stop,550.0,350.0,4.0,,,,,,,,,yellow,circle
0.0,7.0,3.0,1.0,6.0,0.0,0.0,5.0,0.0,part_2,stop,550.0,400.0,4.0,,,,,,,,,green,hexagon
0.0,1.0,1.0,0.0,5.0,5.0,854.5852999959607,5.0,0.0,part_2,go,550.0,450.0,1.0,,,,,,,,,white,I
0.0,6.0,2.0,1.0,6.0,0.0,0.0,5.0,0.0,part_2,stop,550.0,450.0,4.0,,,,,,,,,cyan,flipped triangle
0.0,3.0,3.0,0.0,5.0,5.0,611.6545989934821,5.0,0.0,part_2,go,550.0,500.0,1.0,,,,,,,,,orange,square
0.0,6.0,2.0,1.0,6.0,0.0,0.0,5.0,0.0,part_2,stop,550.0,500.0,4.0,,,,,,,,,cyan,flipped triangle
0.0,5.0,1.0,1.0,6.0,6.0,666.1401829915121,5.0,0.0,part_2,stop,550.0,550.0,3.0,,,,,,,,,yellow,circle
0.0,3.0,3.0,0.0,5.0,5.0,605.3240619949065,5.0,0.0,part_2,go,550.0,500.0,1.0,,,,,,,,,orange,square
0.0,2.0,2.0,0.0,6.0,6.0,665.5731179926079,5.0,0.0,part_2,go,550.0,500.0,1.0,,,,,,,,,magenta,triangle
0.0,5.0,1.0,1.0,6.0,0.0,0.0,5.0,0.0,part_2,stop,550.0,500.0,4.0,,,,,,,,,yellow,circle
0.0,6.0,2.0,1.0,5.0,5.0,627.0290570100769,5.0,0.0,part_2,stop,550.0,550.0,3.0,,,,,,,,,cyan,flipped triangle
0.0,7.0,3.0,1.0,6.0,6.0,809.2299929994624,5.0,0.0,part_2,go,500.0,550.0,1.0,,,,,,,,,green,hexagon
0.0,8.0,4.0,1.0,5.0,0.0,0.0,5.0,0.0,part_2,stop,500.0,550.0,4.0,,,,,,,,,blue,cross
0.0,6.0,2.0,1.0,5.0,0.0,0.0,5.0,0.0,part_2,stop,550.0,550.0,4.0,,,,,,,,,cyan,flipped triangle
0.0,4.0,4.0,0.0,5.0,5.0,761.7309500055853,5.0,0.0,part_2,go,600.0,550.0,1.0,,,,,,,,,gray,diamond
0.0,4.0,4.0,0.0,6.0,6.0,734.7446029889397,5.0,0.0,part_2,go,600.0,550.0,1.0,,,,,,,,,gray,diamond
0.0,6.0,2.0,1.0,6.0,6.0,607.9578839999158,5.0,0.0,part_2,stop,600.0,550.0,3.0,,,,,,,,,cyan,flipped triangle
0.0,5.0,1.0,1.0,6.0,6.0,534.5087960013188,5.0,0.0,part_2,stop,600.0,500.0,3.0,,,,,,,,,yellow,circle
0.0,5.0,1.0,1.0,5.0,5.0,353.2544570043683,6.0,0.0,part_2,stop,600.0,450.0,3.0,,,,,,,,,yellow,circle
0.0,8.0,4.0,1.0,6.0,6.0,628.8303319888655,6.0,0.0,part_2,go,550.0,450.0,1.0,,,,,,,,,blue,cross
0.0,4.0,4.0,0.0,5.0,5.0,381.9722990156151,6.0,0.0,part_2,go,550.0,450.0,1.0,,,,,,,,,gray,diamond
0.0,5.0,1.0,1.0,5.0,5.0,740.739991015289,6.0,0.0,part_2,go,550.0,450.0,1.0,,,,,,,,,yellow,circle
0.0,1.0,1.0,0.0,6.0,6.0,708.657287992537,6.0,0.0,part_2,go,550.0,450.0,1.0,,,,,,,,,white,I
0.0,2.0,2.0,0.0,6.0,6.0,678.662318008719,6.0,0.0,part_2,go,550.0,450.0,1.0,,,,,,,,,magenta,triangle
0.0,6.0,2.0,1.0,6.0,0.0,0.0,6.0,0.0,part_2,stop,550.0,450.0,4.0,,,,,,,,,cyan,flipped triangle
0.0,6.0,2.0,1.0,5.0,5.0,324.039200990228,6.0,0.0,part_2,stop,550.0,500.0,3.0,,,,,,,,,cyan,flipped triangle
0.0,7.0,3.0,1.0,5.0,5.0,619.3090459855739,6.0,0.0,part_2,stop,500.0,500.0,3.0,,,,,,,,,green,hexagon
0.0,3.0,3.0,0.0,6.0,6.0,755.4432670003735,6.0,0.0,part_2,go,450.0,500.0,1.0,,,,,,,,,orange,square
0.0,5.0,1.0,1.0,5.0,0.0,0.0,6.0,0.0,part_2,stop,450.0,500.0,4.0,,,,,,,,,yellow,circle
0.0,7.0,3.0,1.0,6.0,6.0,561.1669679929037,6.0,0.0,part_2,stop,500.0,500.0,3.0,,,,,,,,,green,hexagon
0.0,1.0,1.0,0.0,6.0,6.0,713.3165349951014,6.0,0.0,part_2,go,500.0,450.0,1.0,,,,,,,,,white,I
0.0,8.0,4.0,1.0,5.0,5.0,576.6406490001827,6.0,0.0,part_2,stop,500.0,450.0,3.0,,,,,,,,,blue,cross
0.0,5.0,1.0,1.0,5.0,5.0,736.9128910067957,6.0,0.0,part_2,go,450.0,450.0,1.0,,,,,,,,,yellow,circle
0.0,3.0,3.0,0.0,5.0,5.0,573.7080710241571,6.0,0.0,part_2,go,450.0,450.0,1.0,,,,,,,,,orange,square
0.0,1.0,1.0,0.0,6.0,6.0,709.1081209946424,6.0,0.0,part_2,go,450.0,450.0,1.0,,,,,,,,,white,I
0.0,5.0,1.0,1.0,5.0,0.0,0.0,6.0,0.0,part_2,stop,450.0,450.0,4.0,,,,,,,,,yellow,circle
0.0,8.0,4.0,1.0,6.0,6.0,701.342651998857,6.0,0.0,part_2,go,500.0,450.0,1.0,,,,,,,,,blue,cross
0.0,8.0,4.0,1.0,5.0,5.0,637.9180079966318,6.0,0.0,part_2,stop,500.0,450.0,3.0,,,,,,,,,blue,cross
0.0,4.0,4.0,0.0,5.0,5.0,442.6273870049044,6.0,0.0,part_2,go,450.0,450.0,1.0,,,,,,,,,gray,diamond
0.0,3.0,3.0,0.0,5.0,5.0,459.7063480177894,6.0,0.0,part_2,go,450.0,450.0,1.0,,,,,,,,,orange,square
0.0,5.0,1.0,1.0,6.0,6.0,395.4219839943107,6.0,0.0,part_2,stop,450.0,450.0,3.0,,,,,,,,,yellow,circle
0.0,4.0,4.0,0.0,6.0,6.0,667.3053530103061,6.0,0.0,part_2,go,450.0,400.0,1.0,,,,,,,,,gray,diamond
0.0,3.0,3.0,0.0,5.0,5.0,674.4046290114056,6.0,0.0,part_2,go,450.0,400.0,1.0,,,,,,,,,orange,square
0.0,6.0,2.0,1.0,6.0,6.0,299.227184994379,6.0,0.0,part_2,go,450.0,400.0,1.0,,,,,,,,,cyan,flipped triangle
0.0,5.0,1.0,1.0,6.0,6.0,425.4213430103846,6.0,0.0,part_2,stop,450.0,400.0,3.0,,,,,,,,,yellow,circle
0.0,7.0,3.0,1.0,6.0,0.0,0.0,6.0,0.0,part_2,stop,450.0,350.0,4.0,,,,,,,,,green,hexagon
0.0,6.0,2.0,1.0,6.0,0.0,0.0,6.0,0.0,part_2,stop,450.0,400.0,4.0,,,,,,,,,cyan,flipped triangle
0.0,3.0,3.0,0.0,5.0,5.0,733.4374790079892,6.0,0.0,part_2,go,450.0,450.0,1.0,,,,,,,,,orange,square
0.0,8.0,4.0,1.0,5.0,0.0,0.0,6.0,0.0,part_2,stop,450.0,450.0,4.0,,,,,,,,,blue,cross
0.0,8.0,4.0,1.0,5.0,5.0,454.7637260111514,6.0,0.0,part_2,stop,500.0,450.0,3.0,,,,,,,,,blue,cross
0.0,1.0,1.0,0.0,5.0,5.0,574.7880550043192,6.0,0.0,part_2,go,450.0,450.0,1.0,,,,,,,,,white,I
0.0,6.0,2.0,1.0,6.0,0.0,0.0,6.0,0.0,part_2,stop,450.0,450.0,4.0,,,,,,,,,cyan,flipped triangle
0.0,8.0,4.0,1.0,6.0,6.0,683.6451829876751,6.0,0.0,part_2,go,450.0,500.0,1.0,,,,,,,,,blue,cross
0.0,6.0,2.0,1.0,6.0,6.0,474.9384190072305,6.0,0.0,part_2,go,450.0,500.0,1.0,,,,,,,,,cyan,flipped triangle
0.0,6.0,2.0,1.0,5.0,5.0,459.3478039896581,7.0,0.0,part_2,go,450.0,500.0,1.0,,,,,,,,,cyan,flipped triangle
0.0,7.0,3.0,1.0,5.0,5.0,548.437824996654,7.0,0.0,part_2,stop,450.0,500.0,3.0,,,,,,,,,green,hexagon
0.0,2.0,2.0,0.0,5.0,5.0,597.1616820024792,7.0,0.0,part_2,go,400.0,500.0,1.0,,,,,,,,,magenta,triangle
0.0,5.0,1.0,1.0,5.0,5.0,289.2500989837572,7.0,0.0,part_2,go,400.0,500.0,1.0,,,,,,,,,yellow,circle
0.0,7.0,3.0,1.0,5.0,5.0,481.1928689887281,7.0,0.0,part_2,stop,400.0,500.0,3.0,,,,,,,,,green,hexagon
0.0,4.0,4.0,0.0,6.0,6.0,322.7018539910204,7.0,0.0,part_2,go,350.0,500.0,1.0,,,,,,,,,gray,diamond
0.0,6.0,2.0,1.0,5.0,0.0,0.0,7.0,0.0,part_2,stop,350.0,500.0,4.0,,,,,,,,,cyan,flipped triangle
0.0,1.0,1.0,0.0,5.0,5.0,687.8430229844525,7.0,0.0,part_2,go,400.0,500.0,1.0,,,,,,,,,white,I
0.0,5.0,1.0,1.0,6.0,6.0,351.2625379953533,7.0,0.0,part_2,go,400.0,500.0,1.0,,,,,,,,,yellow,circle
0.0,4.0,4.0,0.0,5.0,5.0,678.4513629972935,7.0,0.0,part_2,go,400.0,500.0,1.0,,,,,,,,,gray,diamond
0.0,5.0,1.0,1.0,6.0,6.0,447.9351970076095,7.0,0.0,part_2,go,400.0,500.0,1.0,,,,,,,,,yellow,circle
0.0,1.0,1.0,0.0,5.0,5.0,373.3054419863038,7.0,0.0,part_2,go,400.0,500.0,1.0,,,,,,,,,white,I
0.0,7.0,3.0,1.0,6.0,6.0,304.2013540107291,7.0,0.0,part_2,go,400.0,500.0,1.0,,,,,,,,,green,hexagon
0.0,6.0,2.0,1.0,6.0,6.0,396.0194819956086,7.0,0.0,part_2,go,400.0,500.0,1.0,,,,,,,,,cyan,flipped triangle
0.0,7.0,3.0,1.0,6.0,6.0,533.108613017248,7.0,0.0,part_2,stop,400.0,500.0,3.0,,,,,,,,,green,hexagon
0.0,8.0,4.0,1.0,6.0,6.0,357.1474830096122,7.0,0.0,part_2,stop,400.0,450.0,3.0,,,,,,,,,blue,cross
0.0,3.0,3.0,0.0,6.0,6.0,332.3533479997422,7.0,0.0,part_2,go,400.0,400.0,1.0,,,,,,,,,orange,square
0.0,6.0,2.0,1.0,5.0,0.0,0.0,7.0,0.0,part_2,stop,400.0,400.0,4.0,,,,,,,,,cyan,flipped triangle
0.0,5.0,1.0,1.0,6.0,0.0,0.0,7.0,0.0,part_2,stop,450.0,400.0,4.0,,,,,,,,,yellow,circle
0.0,1.0,1.0,0.0,6.0,6.0,579.3273430026602,7.0,0.0,part_2,go,450.0,450.0,1.0,,,,,,,,,white,I
0.0,5.0,1.0,1.0,6.0,6.0,505.7798819907475,7.0,0.0,part_2,stop,450.0,450.0,3.0,,,,,,,,,yellow,circle
0.0,5.0,1.0,1.0,5.0,0.0,0.0,7.0,0.0,part_2,stop,450.0,400.0,4.0,,,,,,,,,yellow,circle
0.0,7.0,3.0,1.0,6.0,0.0,0.0,7.0,0.0,part_2,stop,500.0,400.0,4.0,,,,,,,,,green,hexagon
0.0,5.0,1.0,1.0,5.0,5.0,806.5250139916316,7.0,0.0,part_2,go,500.0,450.0,1.0,,,,,,,,,yellow,circle
0.0,5.0,1.0,1.0,6.0,6.0,526.9124149926938,7.0,0.0,part_2,stop,500.0,450.0,3.0,,,,,,,,,yellow,circle
0.0,7.0,3.0,1.0,5.0,5.0,309.6519749960862,7.0,0.0,part_2,stop,500.0,400.0,3.0,,,,,,,,,green,hexagon
0.0,2.0,2.0,0.0,5.0,5.0,614.9297189840581,7.0,0.0,part_2,go,450.0,400.0,1.0,,,,,,,,,magenta,triangle
0.0,4.0,4.0,0.0,5.0,5.0,435.7581959920935,7.0,0.0,part_2,go,450.0,400.0,1.0,,,,,,,,,gray,diamond
0.0,2.0,2.0,0.0,5.0,5.0,327.2239330108277,7.0,0.0,part_2,go,450.0,400.0,1.0,,,,,,,,,magenta,triangle
0.0,1.0,1.0,0.0,5.0,5.0,491.6742320056073,7.0,0.0,part_2,go,450.0,400.0,1.0,,,,,,,,,white,I
0.0,5.0,1.0,1.0,6.0,6.0,426.230590994237,7.0,0.0,part_2,stop,450.0,400.0,3.0,,,,,,,,,yellow,circle
0.0,2.0,2.0,0.0,5.0,5.0,643.6075980018359,7.0,0.0,part_2,go,450.0,350.0,1.0,,,,,,,,,magenta,triangle
0.0,8.0,4.0,1.0,6.0,6.0,548.8135079795029,7.0,0.0,part_2,go,450.0,350.0,1.0,,,,,,,,,blue,cross
0.0,1.0,1.0,0.0,5.0,5.0,307.8977350087371,7.0,0.0,part_2,go,450.0,350.0,1.0,,,,,,,,,white,I
0.0,1.0,1.0,0.0,6.0,6.0,426.9598500104621,7.0,0.0,part_2,go,450.0,350.0,1.0,,,,,,,,,white,I
0.0,2.0,2.0,0.0,5.0,5.0,336.7761819972656,7.0,0.0,part_2,go,450.0,350.0,1.0,,,,,,,,,magenta,triangle
0.0,2.0,2.0,0.0,5.0,5.0,533.281451993389,8.0,0.0,part_2,go,450.0,350.0,1.0,,,,,,,,,magenta,triangle
0.0,1.0,1.0,0.0,5.0,5.0,428.1075269973371,8.0,0.0,part_2,go,450.0,350.0,1.0,,,,,,,,,white,I
0.0,2.0,2.0,0.0,6.0,6.0,689.8322550114244,8.0,0.0,part_2,go,450.0,350.0,1.0,,,,,,,,,magenta,triangle
0.0,7.0,3.0,1.0,5.0,5.0,483.3602659928147,8.0,0.0,part_2,stop,450.0,350.0,3.0,,,,,,,,,green,hexagon
0.0,8.0,4.0,1.0,6.0,6.0,266.8856979871634,8.0,0.0,part_2,go,400.0,350.0,1.0,,,,,,,,,blue,cross
0.0,7.0,3.0,1.0,6.0,6.0,550.7729059900157,8.0,0.0,part_2,go,400.0,350.0,1.0,,,,,,,,,green,hexagon
0.0,3.0,3.0,0.0,5.0,5.0,569.2155180149712,8.0,0.0,part_2,go,400.0,350.0,1.0,,,,,,,,,orange,square
0.0,1.0,1.0,0.0,6.0,6.0,438.9795209863223,8.0,0.0,part_2,go,400.0,350.0,1.0,,,,,,,,,white,I
0.0,1.0,1.0,0.0,5.0,5.0,414.535491989227,8.0,0.0,part_2,go,400.0,350.0,1.0,,,,,,,,,white,I
0.0,7.0,3.0,1.0,6.0,6.0,447.4465379898902,8.0,0.0,part_2,stop,400.0,350.0,3.0,,,,,,,,,green,hexagon
0.0,2.0,2.0,0.0,6.0,6.0,557.9287269792985,8.0,0.0,part_2,go,400.0,300.0,1.0,,,,,,,,,magenta,triangle
0.0,7.0,3.0,1.0,5.0,5.0,526.5309069945943,8.0,0.0,part_2,go,400.0,300.0,1.0,,,,,,,,,green,hexagon
0.0,3.0,3.0,0.0,5.0,5.0,428.5205339838285,8.0,0.0,part_2,go,400.0,300.0,1.0,,,,,,,,,orange,square
0.0,1.0,1.0,0.0,6.0,6.0,538.1197359820362,8.0,0.0,part_2,go,400.0,300.0,1.0,,,,,,,,,white,I
0.0,7.0,3.0,1.0,5.0,5.0,476.0765499959234,8.0,0.0,part_2,stop,400.0,300.0,3.0,,,,,,,,,green,hexagon
0.0,3.0,3.0,0.0,5.0,5.0,514.6946530148853,8.0,0.0,part_2,go,350.0,300.0,1.0,,,,,,,,,orange,square
0.0,7.0,3.0,1.0,5.0,5.0,274.2986459925305,8.0,0.0,part_2,stop,350.0,300.0,3.0,,,,,,,,,green,hexagon
0.0,8.0,4.0,1.0,5.0,0.0,0.0,8.0,0.0,part_2,stop,300.0,300.0,4.0,,,,,,,,,blue,cross
0.0,5.0,1.0,1.0,6.0,6.0,391.2078199791722,8.0,0.0,part_2,stop,350.0,300.0,3.0,,,,,,,,,yellow,circle
0.0,4.0,4.0,0.0,5.0,5.0,655.497080006171,8.0,0.0,part_2,go,350.0,250.0,1.0,,,,,,,,,gray,diamond
0.0,3.0,3.0,0.0,6.0,6.0,397.7680839889217,8.0,0.0,part_2,go,350.0,250.0,1.0,,,,,,,,,orange,square
0.0,2.0,2.0,0.0,6.0,6.0,597.3649100051261,8.0,0.0,part_2,go,350.0,250.0,1.0,,,,,,,,,magenta,triangle
0.0,1.0,1.0,0.0,5.0,5.0,566.9728849898092,8.0,0.0,part_2,go,350.0,250.0,1.0,,,,,,,,,white,I
0.0,8.0,4.0,1.0,5.0,5.0,652.5914049998391,8.0,0.0,part_2,go,350.0,250.0,1.0,,,,,,,,,blue,cross
0.0,1.0,1.0,0.0,5.0,5.0,693.6195410089567,8.0,0.0,part_2,go,350.0,250.0,1.0,,,,,,,,,white,I
0.0,4.0,4.0,0.0,6.0,6.0,575.5229729984421,8.0,0.0,part_2,go,350.0,250.0,1.0,,,,,,,,,gray,diamond
0.0,2.0,2.0,0.0,6.0,6.0,414.5461160223931,8.0,0.0,part_2,go,350.0,250.0,1.0,,,,,,,,,magenta,triangle
0.0,6.0,2.0,1.0,6.0,6.0,364.9834730022121,8.0,0.0,part_2,stop,350.0,250.0,3.0,,,,,,,,,cyan,flipped triangle
0.0,2.0,2.0,0.0,5.0,5.0,740.9882759966422,8.0,0.0,part_2,go,350.0,200.0,1.0,,,,,,,,,magenta,triangle
0.0,6.0,2.0,1.0,5.0,0.0,0.0,8.0,0.0,part_2,stop,350.0,200.0,4.0,,,,,,,,,cyan,flipped triangle
0.0,4.0,4.0,0.0,6.0,6.0,955.7355470024048,8.0,0.0,part_2,go,400.0,200.0,1.0,,,,,,,,,gray,diamond
0.0,6.0,2.0,1.0,6.0,6.0,592.3175490170252,8.0,0.0,part_2,go,400.0,200.0,1.0,,,,,,,,,cyan,flipped triangle
0.0,2.0,2.0,0.0,6.0,6.0,458.217258012155,8.0,0.0,part_2,go,400.0,200.0,1.0,,,,,,,,,magenta,triangle
0.0,2.0,2.0,0.0,6.0,6.0,387.0207410072908,8.0,0.0,part_2,go,400.0,200.0,1.0,,,,,,,,,magenta,triangle
0.0,5.0,1.0,1.0,6.0,0.0,0.0,8.0,0.0,part_2,stop,400.0,200.0,4.0,,,,,,,,,yellow,circle
0.0,6.0,2.0,1.0,6.0,0.0,0.0,8.0,0.0,part_2,stop,400.0,250.0,4.0,,,,,,,,,cyan,flipped triangle
0.0,7.0,3.0,1.0,7.0,3.0,2189.439773996128,1.0,2.0,part_3,go,0.0,0.0,0.0,170.0,5.0,34.0,68.0,170.0,204.0,136.0,102.0,green,hexagon
0.0,4.0,4.0,0.0,7.0,5.0,2108.150273008505,1.0,2.0,part_3,go,0.0,0.0,0.0,136.0,4.0,68.0,34.0,102.0,204.0,136.0,170.0,gray,diamond
0.0,3.0,3.0,0.0,7.0,3.0,2109.728057985194,1.0,1.0,part_3,go,0.0,0.0,0.0,98.0,2.0,49.0,245.0,98.0,147.0,294.0,196.0,orange,square
0.0,5.0,1.0,1.0,7.0,1.0,3008.8290620187763,1.0,1.0,part_3,go,0.0,0.0,0.0,49.0,1.0,49.0,147.0,98.0,294.0,196.0,245.0,yellow,circle
0.0,8.0,4.0,1.0,7.0,5.0,2783.77490901039,1.0,1.0,part_3,go,0.0,0.0,0.0,234.0,6.0,156.0,39.0,195.0,117.0,234.0,78.0,blue,cross
0.0,5.0,1.0,1.0,7.0,3.0,2633.4058189822827,1.0,1.0,part_3,go,0.0,0.0,0.0,54.0,1.0,108.0,216.0,54.0,270.0,162.0,324.0,yellow,circle
0.0,6.0,2.0,1.0,7.0,6.0,2826.506679994054,1.0,1.0,part_3,go,0.0,0.0,0.0,102.0,3.0,34.0,170.0,68.0,136.0,204.0,102.0,cyan,flipped triangle
0.0,2.0,2.0,0.0,7.0,1.0,1660.1461899990682,1.0,1.0,part_3,go,0.0,0.0,0.0,136.0,4.0,136.0,170.0,102.0,34.0,68.0,204.0,magenta,triangle
0.0,2.0,2.0,0.0,7.0,3.0,1151.1789159849286,1.0,1.0,part_3,go,0.0,0.0,0.0,136.0,4.0,102.0,170.0,136.0,204.0,68.0,34.0,magenta,triangle
0.0,4.0,4.0,0.0,7.0,1.0,4801.911778980866,1.0,1.0,part_3,go,0.0,0.0,0.0,147.0,3.0,147.0,294.0,98.0,245.0,196.0,49.0,gray,diamond
0.0,4.0,4.0,0.0,7.0,6.0,2133.342551998794,1.0,1.0,part_3,go,0.0,0.0,0.0,132.0,3.0,88.0,176.0,44.0,264.0,220.0,132.0,gray,diamond
0.0,6.0,2.0,1.0,7.0,1.0,379.1384070063941,1.0,2.0,part_3,go,0.0,0.0,0.0,216.0,4.0,216.0,324.0,108.0,162.0,270.0,54.0,cyan,flipped triangle
0.0,1.0,1.0,0.0,7.0,1.0,2985.0124419899657,1.0,1.0,part_3,go,0.0,0.0,0.0,204.0,6.0,204.0,170.0,102.0,68.0,136.0,34.0,white,I
0.0,3.0,3.0,0.0,7.0,3.0,2259.7883589915,1.0,1.0,part_3,go,0.0,0.0,0.0,170.0,5.0,68.0,204.0,170.0,136.0,34.0,102.0,orange,square
0.0,7.0,3.0,1.0,7.0,3.0,2214.9604260048363,1.0,1.0,part_3,go,0.0,0.0,0.0,220.0,5.0,88.0,264.0,220.0,176.0,132.0,44.0,green,hexagon
0.0,3.0,3.0,0.0,7.0,1.0,3494.4406699796673,1.0,1.0,part_3,go,0.0,0.0,0.0,156.0,4.0,156.0,78.0,117.0,195.0,39.0,234.0,orange,square
0.0,5.0,1.0,1.0,7.0,6.0,1480.4271390021313,1.0,1.0,part_3,go,0.0,0.0,0.0,39.0,1.0,117.0,78.0,195.0,234.0,156.0,39.0,yellow,circle
0.0,4.0,4.0,0.0,7.0,5.0,2057.6519859896507,1.0,1.0,part_3,go,0.0,0.0,0.0,54.0,1.0,270.0,216.0,162.0,108.0,54.0,324.0,gray,diamond
0.0,1.0,1.0,0.0,7.0,1.0,1826.270140009001,1.0,1.0,part_3,go,0.0,0.0,0.0,170.0,5.0,170.0,34.0,136.0,68.0,204.0,102.0,white,I
0.0,6.0,2.0,1.0,7.0,4.0,3187.0296859997325,1.0,1.0,part_3,go,0.0,0.0,0.0,195.0,5.0,78.0,117.0,156.0,195.0,39.0,234.0,cyan,flipped triangle
0.0,4.0,4.0,0.0,7.0,4.0,4177.979277010309,2.0,1.0,part_3,go,0.0,0.0,0.0,162.0,3.0,270.0,108.0,54.0,162.0,324.0,216.0,gray,diamond
0.0,8.0,4.0,1.0,7.0,6.0,2537.4679249944165,2.0,1.0,part_3,go,0.0,0.0,0.0,264.0,6.0,220.0,132.0,176.0,44.0,88.0,264.0,blue,cross
0.0,1.0,1.0,0.0,7.0,4.0,1722.8063539951108,2.0,1.0,part_3,go,0.0,0.0,0.0,245.0,5.0,294.0,49.0,147.0,245.0,196.0,98.0,white,I
0.0,8.0,4.0,1.0,7.0,5.0,2367.6882929867133,2.0,1.0,part_3,go,0.0,0.0,0.0,324.0,6.0,162.0,54.0,270.0,108.0,324.0,216.0,blue,cross
0.0,6.0,2.0,1.0,7.0,4.0,2013.111825013766,2.0,1.0,part_3,go,0.0,0.0,0.0,196.0,4.0,147.0,294.0,98.0,196.0,245.0,49.0,cyan,flipped triangle
0.0,2.0,2.0,0.0,7.0,1.0,3487.0731820119545,2.0,1.0,part_3,go,0.0,0.0,0.0,147.0,3.0,147.0,49.0,196.0,98.0,245.0,294.0,magenta,triangle
0.0,5.0,1.0,1.0,7.0,5.0,1600.9061110089533,2.0,1.0,part_3,go,0.0,0.0,0.0,34.0,1.0,204.0,136.0,170.0,68.0,34.0,102.0,yellow,circle
0.0,8.0,4.0,1.0,7.0,2.0,2241.0903520067222,2.0,1.0,part_3,go,0.0,0.0,0.0,324.0,6.0,216.0,324.0,162.0,54.0,270.0,108.0,blue,cross
0.0,5.0,1.0,1.0,7.0,6.0,1795.3967089997604,2.0,1.0,part_3,go,0.0,0.0,0.0,39.0,1.0,156.0,195.0,78.0,234.0,117.0,39.0,yellow,circle
0.0,2.0,2.0,0.0,7.0,6.0,3358.361666993005,2.0,1.0,part_3,go,0.0,0.0,0.0,176.0,4.0,44.0,220.0,88.0,264.0,132.0,176.0,magenta,triangle
0.0,1.0,1.0,0.0,7.0,3.0,3029.313160979654,2.0,1.0,part_3,go,0.0,0.0,0.0,176.0,4.0,44.0,264.0,176.0,220.0,88.0,132.0,white,I
0.0,7.0,3.0,1.0,7.0,3.0,2410.318120993906,2.0,1.0,part_3,go,0.0,0.0,0.0,195.0,5.0,234.0,39.0,195.0,156.0,117.0,78.0,green,hexagon
0.0,7.0,3.0,1.0,7.0,6.0,2219.616492977366,2.0,1.0,part_3,go,0.0,0.0,0.0,196.0,4.0,98.0,245.0,294.0,147.0,49.0,196.0,green,hexagon
0.0,2.0,2.0,0.0,7.0,4.0,2637.423795007635,2.0,1.0,part_3,go,0.0,0.0,0.0,220.0,5.0,44.0,176.0,264.0,220.0,88.0,132.0,magenta,triangle
0.0,4.0,4.0,0.0,7.0,2.0,1718.602437002119,2.0,1.0,part_3,go,0.0,0.0,0.0,117.0,3.0,234.0,117.0,195.0,39.0,156.0,78.0,gray,diamond
0.0,2.0,2.0,0.0,7.0,6.0,1581.907935993513,2.0,1.0,part_3,go,0.0,0.0,0.0,54.0,1.0,216.0,162.0,108.0,270.0,324.0,54.0,magenta,triangle
0.0,4.0,4.0,0.0,7.0,5.0,1901.3432389765512,2.0,1.0,part_3,go,0.0,0.0,0.0,102.0,3.0,204.0,34.0,136.0,68.0,102.0,170.0,gray,diamond
0.0,1.0,1.0,0.0,7.0,6.0,3527.4450419819914,2.0,1.0,part_3,go,0.0,0.0,0.0,270.0,5.0,54.0,216.0,162.0,324.0,108.0,270.0,white,I
0.0,3.0,3.0,0.0,7.0,5.0,2578.6226479976904,2.0,1.0,part_3,go,0.0,0.0,0.0,162.0,3.0,270.0,108.0,216.0,324.0,162.0,54.0,orange,square
0.0,8.0,4.0,1.0,7.0,5.0,2411.633212992456,2.0,1.0,part_3,go,0.0,0.0,0.0,264.0,6.0,88.0,132.0,44.0,220.0,264.0,176.0,blue,cross
0.0,3.0,3.0,0.0,7.0,6.0,4016.4493979827967,3.0,1.0,part_3,go,0.0,0.0,0.0,170.0,5.0,68.0,136.0,102.0,204.0,34.0,170.0,orange,square
0.0,7.0,3.0,1.0,7.0,5.0,4823.5928649955895,3.0,1.0,part_3,go,0.0,0.0,0.0,196.0,4.0,98.0,294.0,147.0,245.0,196.0,49.0,green,hexagon
0.0,6.0,2.0,1.0,7.0,3.0,2190.8343940158375,3.0,1.0,part_3,go,0.0,0.0,0.0,176.0,4.0,264.0,88.0,176.0,220.0,44.0,132.0,cyan,flipped triangle
0.0,1.0,1.0,0.0,7.0,1.0,1885.5692759971137,3.0,1.0,part_3,go,0.0,0.0,0.0,245.0,5.0,245.0,147.0,98.0,196.0,49.0,294.0,white,I
0.0,7.0,3.0,1.0,7.0,5.0,1704.2713119881228,3.0,1.0,part_3,go,0.0,0.0,0.0,162.0,3.0,324.0,54.0,216.0,108.0,162.0,270.0,green,hexagon
0.0,3.0,3.0,0.0,7.0,1.0,2215.8241090073716,3.0,1.0,part_3,go,0.0,0.0,0.0,132.0,3.0,132.0,88.0,176.0,264.0,44.0,220.0,orange,square
0.0,8.0,4.0,1.0,7.0,6.0,2147.107788012363,3.0,1.0,part_3,go,0.0,0.0,0.0,204.0,6.0,68.0,170.0,136.0,34.0,102.0,204.0,blue,cross
0.0,8.0,4.0,1.0,7.0,3.0,1716.6808859910816,3.0,1.0,part_3,go,0.0,0.0,0.0,234.0,6.0,156.0,195.0,234.0,39.0,117.0,78.0,blue,cross
0.0,7.0,3.0,1.0,7.0,2.0,831.3610480108764,3.0,2.0,part_3,go,0.0,0.0,0.0,102.0,3.0,204.0,102.0,68.0,34.0,136.0,170.0,green,hexagon
0.0,3.0,3.0,0.0,7.0,5.0,1649.1668570088225,3.0,1.0,part_3,go,0.0,0.0,0.0,162.0,3.0,216.0,108.0,54.0,324.0,162.0,270.0,orange,square
0.0,8.0,4.0,1.0,7.0,2.0,1931.5164309809916,3.0,1.0,part_3,go,0.0,0.0,0.0,204.0,6.0,34.0,204.0,170.0,68.0,136.0,102.0,blue,cross
0.0,5.0,1.0,1.0,7.0,2.0,2076.7276359838434,3.0,1.0,part_3,go,0.0,0.0,0.0,54.0,1.0,270.0,54.0,162.0,324.0,108.0,216.0,yellow,circle
0.0,3.0,3.0,0.0,7.0,1.0,516.9474369904492,3.0,2.0,part_3,go,0.0,0.0,0.0,117.0,3.0,117.0,39.0,156.0,78.0,195.0,234.0,orange,square
0.0,2.0,2.0,0.0,7.0,5.0,2285.960454988526,3.0,1.0,part_3,go,0.0,0.0,0.0,156.0,4.0,78.0,195.0,234.0,117.0,156.0,39.0,magenta,triangle
0.0,8.0,4.0,1.0,7.0,3.0,1711.147043009987,3.0,1.0,part_3,go,0.0,0.0,0.0,294.0,6.0,245.0,98.0,294.0,147.0,49.0,196.0,blue,cross
0.0,5.0,1.0,1.0,7.0,6.0,2576.581906992942,3.0,1.0,part_3,go,0.0,0.0,0.0,44.0,1.0,88.0,132.0,264.0,220.0,176.0,44.0,yellow,circle
0.0,1.0,1.0,0.0,7.0,5.0,3544.229446008103,3.0,1.0,part_3,go,0.0,0.0,0.0,234.0,6.0,39.0,117.0,195.0,78.0,234.0,156.0,white,I
0.0,2.0,2.0,0.0,7.0,1.0,2381.3293949933723,3.0,1.0,part_3,go,0.0,0.0,0.0,117.0,3.0,117.0,39.0,234.0,195.0,156.0,78.0,magenta,triangle
0.0,5.0,1.0,1.0,7.0,4.0,1702.8805130103135,3.0,1.0,part_3,go,0.0,0.0,0.0,34.0,1.0,170.0,102.0,204.0,34.0,136.0,68.0,yellow,circle
0.0,6.0,2.0,1.0,7.0,5.0,2141.5053849923424,3.0,1.0,part_3,go,0.0,0.0,0.0,170.0,5.0,136.0,204.0,102.0,68.0,170.0,34.0,cyan,flipped triangle
0.0,2.0,2.0,0.0,7.0,1.0,3081.680625997251,4.0,1.0,part_3,go,0.0,0.0,0.0,147.0,3.0,147.0,196.0,245.0,294.0,49.0,98.0,magenta,triangle
0.0,4.0,4.0,0.0,7.0,5.0,1130.9175259957556,4.0,1.0,part_3,go,0.0,0.0,0.0,147.0,3.0,49.0,294.0,245.0,196.0,147.0,98.0,gray,diamond
0.0,2.0,2.0,0.0,7.0,4.0,2342.928372992901,4.0,1.0,part_3,go,0.0,0.0,0.0,162.0,3.0,54.0,216.0,324.0,162.0,270.0,108.0,magenta,triangle
0.0,5.0,1.0,1.0,7.0,3.0,1591.5412920003291,4.0,1.0,part_3,go,0.0,0.0,0.0,49.0,1.0,196.0,98.0,49.0,147.0,294.0,245.0,yellow,circle
0.0,3.0,3.0,0.0,7.0,4.0,2578.31244400586,4.0,1.0,part_3,go,0.0,0.0,0.0,176.0,4.0,220.0,264.0,132.0,176.0,88.0,44.0,orange,square
0.0,8.0,4.0,1.0,7.0,5.0,2451.0630579898134,4.0,1.0,part_3,go,0.0,0.0,0.0,294.0,6.0,245.0,98.0,196.0,49.0,294.0,147.0,blue,cross
0.0,7.0,3.0,1.0,7.0,1.0,2947.866293019615,4.0,1.0,part_3,go,0.0,0.0,0.0,162.0,3.0,162.0,216.0,324.0,54.0,108.0,270.0,green,hexagon
0.0,3.0,3.0,0.0,7.0,4.0,4243.607976997737,4.0,1.0,part_3,go,0.0,0.0,0.0,147.0,3.0,49.0,98.0,196.0,147.0,245.0,294.0,orange,square
0.0,1.0,1.0,0.0,7.0,3.0,2282.71740701166,4.0,1.0,part_3,go,0.0,0.0,0.0,220.0,5.0,44.0,132.0,220.0,264.0,88.0,176.0,white,I
0.0,4.0,4.0,0.0,7.0,4.0,3089.56739702262,4.0,1.0,part_3,go,0.0,0.0,0.0,156.0,4.0,78.0,39.0,195.0,156.0,117.0,234.0,gray,diamond
0.0,6.0,2.0,1.0,7.0,5.0,1610.4872440046163,4.0,1.0,part_3,go,0.0,0.0,0.0,156.0,4.0,195.0,117.0,39.0,234.0,156.0,78.0,cyan,flipped triangle
0.0,7.0,3.0,1.0,7.0,1.0,3903.0567539739423,4.0,1.0,part_3,go,0.0,0.0,0.0,117.0,3.0,117.0,195.0,156.0,39.0,78.0,234.0,green,hexagon
0.0,6.0,2.0,1.0,7.0,4.0,2081.2418760033324,4.0,1.0,part_3,go,0.0,0.0,0.0,147.0,3.0,49.0,294.0,245.0,147.0,196.0,98.0,cyan,flipped triangle
0.0,1.0,1.0,0.0,7.0,1.0,1782.9930110019632,4.0,1.0,part_3,go,0.0,0.0,0.0,270.0,5.0,270.0,324.0,108.0,54.0,216.0,162.0,white,I
0.0,4.0,4.0,0.0,7.0,4.0,3267.3644030001014,4.0,1.0,part_3,go,0.0,0.0,0.0,176.0,4.0,88.0,264.0,132.0,176.0,220.0,44.0,gray,diamond
0.0,6.0,2.0,1.0,7.0,5.0,1706.1812189931516,4.0,1.0,part_3,go,0.0,0.0,0.0,176.0,4.0,264.0,88.0,44.0,220.0,176.0,132.0,cyan,flipped triangle
0.0,1.0,1.0,0.0,7.0,4.0,1643.648195982678,4.0,1.0,part_3,go,0.0,0.0,0.0,234.0,6.0,195.0,78.0,39.0,234.0,156.0,117.0,white,I
0.0,5.0,1.0,1.0,7.0,5.0,1806.9746769906487,4.0,1.0,part_3,go,0.0,0.0,0.0,44.0,1.0,220.0,264.0,176.0,88.0,44.0,132.0,yellow,circle
0.0,6.0,2.0,1.0,7.0,3.0,3941.9924940157216,4.0,1.0,part_3,go,0.0,0.0,0.0,162.0,3.0,216.0,108.0,162.0,54.0,324.0,270.0,cyan,flipped triangle
0.0,7.0,3.0,1.0,7.0,2.0,1198.9262079878245,4.0,1.0,part_3,go,0.0,0.0,0.0,220.0,5.0,176.0,220.0,44.0,132.0,88.0,264.0,green,hexagon
