raw_reward_magnitude,stim_reward,stepwise_reward_magnitude,paired_with_stopping,stim_location,response,reaction_time,block,num_trial_presentations,which_phase,stop_signal_trial_type,left_SSD,right_SSD,accuracy,chosen_bidding_amount,chosen_bidding_level,possible_bid_1,possible_bid_2,possible_bid_3,possible_bid_4,possible_bid_5,possible_bid_6,color_text,shape_text
425.0,8.0,4.0,1.0,3.0,3.0,463.115922990255,1.0,1.0,phase_1,,,,,,,,,,,,,gray,diamond
0.0,6.0,0.0,1.0,2.0,2.0,361.6974290343933,1.0,1.0,phase_1,,,,,,,,,,,,,orange,circle
96.0,2.0,2.0,0.0,4.0,4.0,312.718370987568,1.0,1.0,phase_1,,,,,,,,,,,,,blue,flipped triangle
37.0,5.0,1.0,1.0,3.0,3.0,343.1784929707646,1.0,1.0,phase_1,,,,,,,,,,,,,cyan,triangle
392.0,8.0,4.0,1.0,4.0,4.0,441.5177149930969,1.0,1.0,phase_1,,,,,,,,,,,,,gray,diamond
393.0,4.0,4.0,0.0,4.0,4.0,303.8397639757022,1.0,1.0,phase_1,,,,,,,,,,,,,green,hexagon
0.0,5.0,0.0,1.0,1.0,1.0,435.1282190182246,1.0,1.0,phase_1,,,,,,,,,,,,,cyan,triangle
399.0,8.0,4.0,1.0,4.0,4.0,383.8556339615024,1.0,1.0,phase_1,,,,,,,,,,,,,gray,diamond
80.0,6.0,2.0,1.0,3.0,3.0,340.6231679837219,1.0,1.0,phase_1,,,,,,,,,,,,,orange,circle
85.0,2.0,2.0,0.0,1.0,1.0,361.5350960171781,1.0,1.0,phase_1,,,,,,,,,,,,,blue,flipped triangle
0.0,3.0,0.0,0.0,3.0,3.0,336.1236969940364,1.0,1.0,phase_1,,,,,,,,,,,,,magenta,I
45.0,1.0,1.0,0.0,1.0,1.0,354.608588037081,1.0,1.0,phase_1,,,,,,,,,,,,,yellow,square
0.0,8.0,0.0,1.0,3.0,3.0,326.8357919878326,1.0,1.0,phase_1,,,,,,,,,,,,,gray,diamond
62.0,1.0,1.0,0.0,3.0,3.0,387.5669259577989,1.0,1.0,phase_1,,,,,,,,,,,,,yellow,square
182.0,7.0,3.0,1.0,3.0,3.0,502.9557810048573,1.0,1.0,phase_1,,,,,,,,,,,,,white,cross
207.0,3.0,3.0,0.0,3.0,3.0,324.0722439950332,1.0,1.0,phase_1,,,,,,,,,,,,,magenta,I
73.0,5.0,1.0,1.0,1.0,1.0,305.3253659745678,1.0,1.0,phase_1,,,,,,,,,,,,,cyan,triangle
111.0,2.0,2.0,0.0,4.0,4.0,536.9163870345801,1.0,1.0,phase_1,,,,,,,,,,,,,blue,flipped triangle
66.0,1.0,1.0,0.0,2.0,2.0,404.9764039809815,1.0,1.0,phase_1,,,,,,,,,,,,,yellow,square
177.0,7.0,3.0,1.0,2.0,2.0,385.6212680111639,1.0,1.0,phase_1,,,,,,,,,,,,,white,cross
71.0,1.0,1.0,0.0,4.0,4.0,379.5510539785027,1.0,1.0,phase_1,,,,,,,,,,,,,yellow,square
407.0,4.0,4.0,0.0,3.0,3.0,279.8732250230387,1.0,1.0,phase_1,,,,,,,,,,,,,green,hexagon
68.0,5.0,1.0,1.0,4.0,4.0,342.2375950030982,1.0,1.0,phase_1,,,,,,,,,,,,,cyan,triangle
183.0,3.0,3.0,0.0,3.0,3.0,340.119204018265,1.0,1.0,phase_1,,,,,,,,,,,,,magenta,I
395.0,8.0,4.0,1.0,1.0,1.0,367.0957610011101,1.0,1.0,phase_1,,,,,,,,,,,,,gray,diamond
204.0,7.0,3.0,1.0,1.0,1.0,372.2423589788377,1.0,1.0,phase_1,,,,,,,,,,,,,white,cross
220.0,3.0,3.0,0.0,2.0,2.0,402.9512439738028,1.0,1.0,phase_1,,,,,,,,,,,,,magenta,I
0.0,5.0,0.0,1.0,2.0,2.0,371.9998829765245,1.0,1.0,phase_1,,,,,,,,,,,,,cyan,triangle
55.0,1.0,1.0,0.0,2.0,2.0,403.525705973152,1.0,1.0,phase_1,,,,,,,,,,,,,yellow,square
0.0,6.0,0.0,1.0,4.0,4.0,372.9378139832988,1.0,1.0,phase_1,,,,,,,,,,,,,orange,circle
40.0,1.0,1.0,0.0,2.0,2.0,355.607150006108,1.0,1.0,phase_1,,,,,,,,,,,,,yellow,square
92.0,6.0,2.0,1.0,4.0,4.0,383.21449898649,1.0,1.0,phase_1,,,,,,,,,,,,,orange,circle
63.0,5.0,1.0,1.0,1.0,1.0,396.7530939844437,1.0,1.0,phase_1,,,,,,,,,,,,,cyan,triangle
0.0,4.0,0.0,0.0,1.0,1.0,457.4174479930661,1.0,1.0,phase_1,,,,,,,,,,,,,green,hexagon
0.0,7.0,0.0,1.0,3.0,3.0,436.7087949649431,1.0,1.0,phase_1,,,,,,,,,,,,,white,cross
0.0,7.0,0.0,1.0,1.0,1.0,491.0356830223463,1.0,1.0,phase_1,,,,,,,,,,,,,white,cross
71.0,5.0,1.0,1.0,4.0,4.0,360.940559010487,1.0,1.0,phase_1,,,,,,,,,,,,,cyan,triangle
50.0,1.0,1.0,0.0,4.0,4.0,348.2344800140708,1.0,1.0,phase_1,,,,,,,,,,,,,yellow,square
75.0,1.0,1.0,0.0,3.0,3.0,353.8631090195849,1.0,1.0,phase_1,,,,,,,,,,,,,yellow,square
0.0,1.0,0.0,0.0,2.0,2.0,470.6424190080724,1.0,1.0,phase_1,,,,,,,,,,,,,yellow,square
0.0,6.0,0.0,1.0,4.0,4.0,283.7739440146833,1.0,1.0,phase_1,,,,,,,,,,,,,orange,circle
120.0,6.0,2.0,1.0,2.0,2.0,487.257870961912,1.0,1.0,phase_1,,,,,,,,,,,,,orange,circle
201.0,7.0,3.0,1.0,2.0,2.0,428.6460399744101,1.0,1.0,phase_1,,,,,,,,,,,,,white,cross
0.0,8.0,0.0,1.0,3.0,3.0,351.8000839976594,1.0,1.0,phase_1,,,,,,,,,,,,,gray,diamond
34.0,1.0,1.0,0.0,2.0,2.0,397.3708879784681,1.0,1.0,phase_1,,,,,,,,,,,,,yellow,square
424.0,4.0,4.0,0.0,2.0,2.0,400.219637027476,1.0,1.0,phase_1,,,,,,,,,,,,,green,hexagon
58.0,1.0,1.0,0.0,3.0,3.0,383.2539510331116,1.0,1.0,phase_1,,,,,,,,,,,,,yellow,square
414.0,4.0,4.0,0.0,4.0,4.0,329.8397769685834,1.0,1.0,phase_1,,,,,,,,,,,,,green,hexagon
82.0,2.0,2.0,0.0,3.0,3.0,265.2371610165573,1.0,1.0,phase_1,,,,,,,,,,,,,blue,flipped triangle
179.0,7.0,3.0,1.0,2.0,2.0,418.3494329918176,1.0,1.0,phase_1,,,,,,,,,,,,,white,cross
216.0,3.0,3.0,0.0,2.0,2.0,425.4251309903338,1.0,1.0,phase_1,,,,,,,,,,,,,magenta,I
124.0,6.0,2.0,1.0,4.0,4.0,374.1749670007266,1.0,1.0,phase_1,,,,,,,,,,,,,orange,circle
109.0,6.0,2.0,1.0,2.0,2.0,395.7219290314242,1.0,1.0,phase_1,,,,,,,,,,,,,orange,circle
73.0,1.0,1.0,0.0,2.0,2.0,365.3523580287583,1.0,1.0,phase_1,,,,,,,,,,,,,yellow,square
183.0,3.0,3.0,0.0,3.0,3.0,418.8505110214464,1.0,1.0,phase_1,,,,,,,,,,,,,magenta,I
0.0,2.0,0.0,0.0,1.0,1.0,319.4694200064987,1.0,1.0,phase_1,,,,,,,,,,,,,blue,flipped triangle
381.0,4.0,4.0,0.0,1.0,1.0,469.471667020116,1.0,1.0,phase_1,,,,,,,,,,,,,green,hexagon
422.0,8.0,4.0,1.0,4.0,4.0,515.5897870426998,1.0,1.0,phase_1,,,,,,,,,,,,,gray,diamond
192.0,3.0,3.0,0.0,2.0,2.0,319.7955910000019,1.0,1.0,phase_1,,,,,,,,,,,,,magenta,I
30.0,1.0,1.0,0.0,3.0,3.0,394.0164359519258,1.0,1.0,phase_1,,,,,,,,,,,,,yellow,square
67.0,1.0,1.0,0.0,3.0,3.0,449.9166260357015,1.0,1.0,phase_1,,,,,,,,,,,,,yellow,square
0.0,8.0,0.0,1.0,1.0,1.0,347.1043379977345,1.0,1.0,phase_1,,,,,,,,,,,,,gray,diamond
217.0,3.0,3.0,0.0,3.0,3.0,384.4247059896588,1.0,1.0,phase_1,,,,,,,,,,,,,magenta,I
207.0,7.0,3.0,1.0,1.0,1.0,368.7302760081365,1.0,1.0,phase_1,,,,,,,,,,,,,white,cross
404.0,4.0,4.0,0.0,2.0,2.0,387.7672289963811,1.0,1.0,phase_1,,,,,,,,,,,,,green,hexagon
412.0,8.0,4.0,1.0,1.0,1.0,441.7039499967359,1.0,1.0,phase_1,,,,,,,,,,,,,gray,diamond
66.0,5.0,1.0,1.0,3.0,3.0,421.8101000296883,1.0,1.0,phase_1,,,,,,,,,,,,,cyan,triangle
187.0,7.0,3.0,1.0,4.0,4.0,432.0987210376188,1.0,1.0,phase_1,,,,,,,,,,,,,white,cross
0.0,4.0,0.0,0.0,1.0,1.0,323.9647410227917,1.0,1.0,phase_1,,,,,,,,,,,,,green,hexagon
182.0,3.0,3.0,0.0,1.0,1.0,348.5141759738326,1.0,1.0,phase_1,,,,,,,,,,,,,magenta,I
0.0,7.0,0.0,1.0,4.0,4.0,335.07017896045,1.0,1.0,phase_1,,,,,,,,,,,,,white,cross
89.0,6.0,2.0,1.0,2.0,2.0,345.6808530027047,1.0,1.0,phase_1,,,,,,,,,,,,,orange,circle
0.0,1.0,0.0,0.0,2.0,2.0,334.6191720338538,1.0,1.0,phase_1,,,,,,,,,,,,,yellow,square
400.0,4.0,4.0,0.0,2.0,2.0,354.9799540196545,1.0,1.0,phase_1,,,,,,,,,,,,,green,hexagon
396.0,4.0,4.0,0.0,2.0,2.0,330.9712580521591,1.0,1.0,phase_1,,,,,,,,,,,,,green,hexagon
395.0,4.0,4.0,0.0,1.0,1.0,351.0423029656522,1.0,1.0,phase_1,,,,,,,,,,,,,green,hexagon
0.0,5.0,0.0,1.0,1.0,1.0,339.0783570357598,1.0,1.0,phase_1,,,,,,,,,,,,,cyan,triangle
62.0,1.0,1.0,0.0,3.0,3.0,406.7157719982788,1.0,1.0,phase_1,,,,,,,,,,,,,yellow,square
60.0,1.0,1.0,0.0,1.0,1.0,277.0993610029109,1.0,1.0,phase_1,,,,,,,,,,,,,yellow,square
103.0,6.0,2.0,1.0,3.0,3.0,338.560736970976,1.0,1.0,phase_1,,,,,,,,,,,,,orange,circle
37.0,1.0,1.0,0.0,4.0,4.0,412.7183459931984,1.0,1.0,phase_1,,,,,,,,,,,,,yellow,square
76.0,6.0,2.0,1.0,2.0,2.0,329.6990770031698,1.0,1.0,phase_1,,,,,,,,,,,,,orange,circle
179.0,7.0,3.0,1.0,1.0,1.0,327.6466619572602,1.0,1.0,phase_1,,,,,,,,,,,,,white,cross
216.0,7.0,3.0,1.0,4.0,4.0,364.118127967231,1.0,1.0,phase_1,,,,,,,,,,,,,white,cross
94.0,6.0,2.0,1.0,4.0,4.0,361.3717990228906,1.0,1.0,phase_1,,,,,,,,,,,,,orange,circle
184.0,3.0,3.0,0.0,1.0,1.0,437.8492290270515,1.0,1.0,phase_1,,,,,,,,,,,,,magenta,I
393.0,8.0,4.0,1.0,2.0,2.0,482.4460899690166,1.0,1.0,phase_1,,,,,,,,,,,,,gray,diamond
52.0,1.0,1.0,0.0,1.0,1.0,364.6637600031681,1.0,1.0,phase_1,,,,,,,,,,,,,yellow,square
0.0,8.0,0.0,1.0,4.0,4.0,412.4701470136642,1.0,1.0,phase_1,,,,,,,,,,,,,gray,diamond
0.0,8.0,0.0,1.0,4.0,4.0,574.3609429919161,1.0,1.0,phase_1,,,,,,,,,,,,,gray,diamond
0.0,7.0,0.0,1.0,4.0,4.0,357.0700470008887,1.0,1.0,phase_1,,,,,,,,,,,,,white,cross
201.0,3.0,3.0,0.0,3.0,3.0,399.8669579741545,1.0,1.0,phase_1,,,,,,,,,,,,,magenta,I
28.0,1.0,1.0,0.0,2.0,2.0,412.5754560227506,1.0,1.0,phase_1,,,,,,,,,,,,,yellow,square
0.0,7.0,0.0,1.0,2.0,2.0,337.1008019894361,1.0,1.0,phase_1,,,,,,,,,,,,,white,cross
60.0,5.0,1.0,1.0,1.0,1.0,438.6786639806814,1.0,1.0,phase_1,,,,,,,,,,,,,cyan,triangle
412.0,4.0,4.0,0.0,4.0,4.0,370.593610976357,1.0,1.0,phase_1,,,,,,,,,,,,,green,hexagon
191.0,3.0,3.0,0.0,2.0,2.0,424.0522959735244,1.0,1.0,phase_1,,,,,,,,,,,,,magenta,I
54.0,5.0,1.0,1.0,2.0,2.0,590.8172309864312,1.0,1.0,phase_1,,,,,,,,,,,,,cyan,triangle
103.0,2.0,2.0,0.0,3.0,3.0,503.18812095792964,1.0,2.0,phase_1,,,,,,,,,,,,,blue,flipped triangle
213.0,3.0,3.0,0.0,1.0,1.0,490.2576599852182,1.0,1.0,phase_1,,,,,,,,,,,,,magenta,I
214.0,3.0,3.0,0.0,4.0,4.0,424.2836979683488,2.0,1.0,phase_1,,,,,,,,,,,,,magenta,I
221.0,7.0,3.0,1.0,3.0,3.0,347.7342309779487,2.0,1.0,phase_1,,,,,,,,,,,,,white,cross
103.0,2.0,2.0,0.0,3.0,3.0,355.3542000008747,2.0,1.0,phase_1,,,,,,,,,,,,,blue,flipped triangle
214.0,7.0,3.0,1.0,2.0,2.0,374.7030469821766,2.0,1.0,phase_1,,,,,,,,,,,,,white,cross
399.0,8.0,4.0,1.0,2.0,2.0,388.2531669805757,2.0,1.0,phase_1,,,,,,,,,,,,,gray,diamond
200.0,7.0,3.0,1.0,3.0,3.0,335.2115729940124,2.0,1.0,phase_1,,,,,,,,,,,,,white,cross
0.0,6.0,0.0,1.0,1.0,1.0,346.79464699001977,2.0,1.0,phase_1,,,,,,,,,,,,,orange,circle
390.0,4.0,4.0,0.0,4.0,4.0,502.96177895506844,2.0,1.0,phase_1,,,,,,,,,,,,,green,hexagon
385.0,8.0,4.0,1.0,3.0,3.0,310.7178999925963,2.0,1.0,phase_1,,,,,,,,,,,,,gray,diamond
406.0,8.0,4.0,1.0,1.0,1.0,323.014075984247,2.0,1.0,phase_1,,,,,,,,,,,,,gray,diamond
423.0,4.0,4.0,0.0,2.0,2.0,380.910299019888,2.0,1.0,phase_1,,,,,,,,,,,,,green,hexagon
55.0,1.0,1.0,0.0,4.0,4.0,323.3650400070473,2.0,1.0,phase_1,,,,,,,,,,,,,yellow,square
182.0,7.0,3.0,1.0,4.0,4.0,385.1406550384126,2.0,1.0,phase_1,,,,,,,,,,,,,white,cross
92.0,6.0,2.0,1.0,3.0,3.0,388.6081259697675,2.0,1.0,phase_1,,,,,,,,,,,,,orange,circle
0.0,7.0,0.0,1.0,1.0,1.0,391.62294002017,2.0,1.0,phase_1,,,,,,,,,,,,,white,cross
416.0,8.0,4.0,1.0,4.0,4.0,367.9186170338653,2.0,1.0,phase_1,,,,,,,,,,,,,gray,diamond
404.0,8.0,4.0,1.0,3.0,3.0,474.4368829997256,2.0,1.0,phase_1,,,,,,,,,,,,,gray,diamond
389.0,8.0,4.0,1.0,2.0,2.0,310.1536449976265,2.0,1.0,phase_1,,,,,,,,,,,,,gray,diamond
71.0,1.0,1.0,0.0,1.0,1.0,403.7879660027101,2.0,1.0,phase_1,,,,,,,,,,,,,yellow,square
406.0,4.0,4.0,0.0,4.0,4.0,386.8495880160481,2.0,1.0,phase_1,,,,,,,,,,,,,green,hexagon
71.0,5.0,1.0,1.0,4.0,4.0,372.4528360180557,2.0,1.0,phase_1,,,,,,,,,,,,,cyan,triangle
207.0,7.0,3.0,1.0,1.0,1.0,386.1634299973957,2.0,1.0,phase_1,,,,,,,,,,,,,white,cross
28.0,1.0,1.0,0.0,3.0,3.0,285.1512420456856,2.0,1.0,phase_1,,,,,,,,,,,,,yellow,square
98.0,2.0,2.0,0.0,4.0,4.0,313.8646309962496,2.0,1.0,phase_1,,,,,,,,,,,,,blue,flipped triangle
44.0,5.0,1.0,1.0,2.0,2.0,318.261259002611,2.0,1.0,phase_1,,,,,,,,,,,,,cyan,triangle
42.0,5.0,1.0,1.0,4.0,4.0,355.4512989940122,2.0,1.0,phase_1,,,,,,,,,,,,,cyan,triangle
203.0,3.0,3.0,0.0,1.0,1.0,367.3570550163276,2.0,1.0,phase_1,,,,,,,,,,,,,magenta,I
52.0,5.0,1.0,1.0,2.0,2.0,429.1736809536814,2.0,1.0,phase_1,,,,,,,,,,,,,cyan,triangle
98.0,6.0,2.0,1.0,1.0,1.0,451.1500550433993,2.0,1.0,phase_1,,,,,,,,,,,,,orange,circle
213.0,7.0,3.0,1.0,3.0,3.0,336.7122990312055,2.0,1.0,phase_1,,,,,,,,,,,,,white,cross
0.0,2.0,0.0,0.0,2.0,2.0,437.1150200022384,2.0,1.0,phase_1,,,,,,,,,,,,,blue,flipped triangle
412.0,4.0,4.0,0.0,4.0,4.0,431.5505099948495,2.0,1.0,phase_1,,,,,,,,,,,,,green,hexagon
381.0,8.0,4.0,1.0,3.0,3.0,372.2721940139308,2.0,1.0,phase_1,,,,,,,,,,,,,gray,diamond
182.0,3.0,3.0,0.0,4.0,4.0,396.5466700028628,2.0,1.0,phase_1,,,,,,,,,,,,,magenta,I
84.0,6.0,2.0,1.0,2.0,2.0,342.3515299800783,2.0,1.0,phase_1,,,,,,,,,,,,,orange,circle
198.0,3.0,3.0,0.0,3.0,3.0,355.5296109989285,2.0,1.0,phase_1,,,,,,,,,,,,,magenta,I
402.0,8.0,4.0,1.0,2.0,2.0,336.5453139995225,2.0,1.0,phase_1,,,,,,,,,,,,,gray,diamond
385.0,4.0,4.0,0.0,1.0,1.0,363.8016410404816,2.0,1.0,phase_1,,,,,,,,,,,,,green,hexagon
0.0,2.0,0.0,0.0,4.0,4.0,401.5624299645424,2.0,1.0,phase_1,,,,,,,,,,,,,blue,flipped triangle
108.0,2.0,2.0,0.0,2.0,2.0,351.8498990451917,2.0,1.0,phase_1,,,,,,,,,,,,,blue,flipped triangle
0.0,8.0,0.0,1.0,2.0,2.0,428.4667790052481,2.0,1.0,phase_1,,,,,,,,,,,,,gray,diamond
385.0,4.0,4.0,0.0,1.0,1.0,336.0263269860297,2.0,1.0,phase_1,,,,,,,,,,,,,green,hexagon
186.0,7.0,3.0,1.0,3.0,3.0,374.7425939654931,2.0,1.0,phase_1,,,,,,,,,,,,,white,cross
39.0,1.0,1.0,0.0,2.0,2.0,383.2255839952267,2.0,1.0,phase_1,,,,,,,,,,,,,yellow,square
48.0,1.0,1.0,0.0,4.0,4.0,334.6257829689421,2.0,1.0,phase_1,,,,,,,,,,,,,yellow,square
83.0,6.0,2.0,1.0,2.0,2.0,380.7324549998157,2.0,1.0,phase_1,,,,,,,,,,,,,orange,circle
0.0,1.0,0.0,0.0,3.0,3.0,335.5432809912599,2.0,1.0,phase_1,,,,,,,,,,,,,yellow,square
0.0,2.0,0.0,0.0,3.0,3.0,396.5671089827083,2.0,1.0,phase_1,,,,,,,,,,,,,blue,flipped triangle
0.0,5.0,0.0,1.0,4.0,4.0,407.1886589517817,2.0,1.0,phase_1,,,,,,,,,,,,,cyan,triangle
407.0,8.0,4.0,1.0,2.0,2.0,396.3031269959174,2.0,1.0,phase_1,,,,,,,,,,,,,gray,diamond
103.0,6.0,2.0,1.0,1.0,1.0,450.6432830239646,2.0,1.0,phase_1,,,,,,,,,,,,,orange,circle
203.0,3.0,3.0,0.0,1.0,1.0,437.8950849641114,2.0,1.0,phase_1,,,,,,,,,,,,,magenta,I
179.0,3.0,3.0,0.0,4.0,4.0,362.467163009569,2.0,1.0,phase_1,,,,,,,,,,,,,magenta,I
415.0,4.0,4.0,0.0,3.0,3.0,441.6299319709651,2.0,1.0,phase_1,,,,,,,,,,,,,green,hexagon
425.0,4.0,4.0,0.0,1.0,1.0,340.5031939619221,2.0,1.0,phase_1,,,,,,,,,,,,,green,hexagon
217.0,7.0,3.0,1.0,1.0,1.0,495.7011570222676,2.0,1.0,phase_1,,,,,,,,,,,,,white,cross
200.0,3.0,3.0,0.0,2.0,2.0,375.4887360264547,2.0,1.0,phase_1,,,,,,,,,,,,,magenta,I
84.0,2.0,2.0,0.0,2.0,2.0,426.5761620481498,2.0,1.0,phase_1,,,,,,,,,,,,,blue,flipped triangle
185.0,7.0,3.0,1.0,4.0,4.0,415.6560549745336,2.0,1.0,phase_1,,,,,,,,,,,,,white,cross
0.0,8.0,0.0,1.0,3.0,3.0,578.2013770076446,2.0,1.0,phase_1,,,,,,,,,,,,,gray,diamond
186.0,3.0,3.0,0.0,4.0,4.0,395.3025410301052,2.0,1.0,phase_1,,,,,,,,,,,,,magenta,I
116.0,6.0,2.0,1.0,4.0,4.0,427.8555799974128,2.0,1.0,phase_1,,,,,,,,,,,,,orange,circle
0.0,8.0,0.0,1.0,1.0,1.0,496.3252579909749,2.0,1.0,phase_1,,,,,,,,,,,,,gray,diamond
417.0,4.0,4.0,0.0,4.0,4.0,304.5850390335545,2.0,1.0,phase_1,,,,,,,,,,,,,green,hexagon
415.0,8.0,4.0,1.0,2.0,2.0,401.7230300232768,2.0,1.0,phase_1,,,,,,,,,,,,,gray,diamond
375.0,4.0,4.0,0.0,2.0,2.0,407.3639760026708,2.0,1.0,phase_1,,,,,,,,,,,,,green,hexagon
0.0,1.0,0.0,0.0,2.0,2.0,373.246455041226,2.0,1.0,phase_1,,,,,,,,,,,,,yellow,square
67.0,5.0,1.0,1.0,3.0,3.0,553.3422370208427,2.0,1.0,phase_1,,,,,,,,,,,,,cyan,triangle
37.0,5.0,1.0,1.0,4.0,4.0,372.5462119909934,2.0,1.0,phase_1,,,,,,,,,,,,,cyan,triangle
197.0,3.0,3.0,0.0,3.0,3.0,368.8522520242259,2.0,1.0,phase_1,,,,,,,,,,,,,magenta,I
58.0,5.0,1.0,1.0,1.0,1.0,424.9101179884746,2.0,1.0,phase_1,,,,,,,,,,,,,cyan,triangle
0.0,8.0,0.0,1.0,1.0,1.0,437.6715979888104,2.0,1.0,phase_1,,,,,,,,,,,,,gray,diamond
121.0,2.0,2.0,0.0,3.0,3.0,351.9215470296331,2.0,1.0,phase_1,,,,,,,,,,,,,blue,flipped triangle
0.0,2.0,0.0,0.0,2.0,2.0,380.7057930389419,2.0,1.0,phase_1,,,,,,,,,,,,,blue,flipped triangle
0.0,3.0,0.0,0.0,2.0,2.0,379.6983319916762,2.0,1.0,phase_1,,,,,,,,,,,,,magenta,I
223.0,7.0,3.0,1.0,2.0,2.0,353.0136190238409,2.0,1.0,phase_1,,,,,,,,,,,,,white,cross
0.0,1.0,0.0,0.0,3.0,3.0,369.8870770167559,2.0,1.0,phase_1,,,,,,,,,,,,,yellow,square
412.0,8.0,4.0,1.0,3.0,3.0,344.5085249841213,2.0,1.0,phase_1,,,,,,,,,,,,,gray,diamond
31.0,1.0,1.0,0.0,4.0,4.0,339.8241460090503,2.0,1.0,phase_1,,,,,,,,,,,,,yellow,square
191.0,7.0,3.0,1.0,1.0,1.0,273.7294880207628,2.0,1.0,phase_1,,,,,,,,,,,,,white,cross
216.0,7.0,3.0,1.0,4.0,4.0,405.5186039768159,2.0,1.0,phase_1,,,,,,,,,,,,,white,cross
80.0,2.0,2.0,0.0,3.0,3.0,635.2748070494272,2.0,1.0,phase_1,,,,,,,,,,,,,blue,flipped triangle
204.0,3.0,3.0,0.0,1.0,1.0,497.8891190257855,2.0,1.0,phase_1,,,,,,,,,,,,,magenta,I
0.0,1.0,0.0,0.0,1.0,1.0,395.7124930457212,2.0,1.0,phase_1,,,,,,,,,,,,,yellow,square
26.0,1.0,1.0,0.0,3.0,3.0,385.4754720232449,2.0,1.0,phase_1,,,,,,,,,,,,,yellow,square
120.0,6.0,2.0,1.0,1.0,1.0,524.3991440511309,2.0,1.0,phase_1,,,,,,,,,,,,,orange,circle
0.0,4.0,0.0,0.0,1.0,1.0,625.5574719980359,2.0,1.0,phase_1,,,,,,,,,,,,,green,hexagon
399.0,4.0,4.0,0.0,3.0,3.0,389.4422559533268,2.0,1.0,phase_1,,,,,,,,,,,,,green,hexagon
116.0,2.0,2.0,0.0,4.0,4.0,391.1814299644902,2.0,2.0,phase_1,,,,,,,,,,,,,blue,flipped triangle
382.0,4.0,4.0,0.0,3.0,3.0,414.5457790000364,2.0,1.0,phase_1,,,,,,,,,,,,,green,hexagon
28.0,5.0,1.0,1.0,2.0,2.0,409.9266859702766,2.0,1.0,phase_1,,,,,,,,,,,,,cyan,triangle
0.0,3.0,0.0,0.0,1.0,1.0,400.9789690026082,2.0,1.0,phase_1,,,,,,,,,,,,,magenta,I
0.0,4.0,0.0,0.0,1.0,1.0,373.5307379974983,2.0,1.0,phase_1,,,,,,,,,,,,,green,hexagon
46.0,1.0,1.0,0.0,4.0,4.0,366.508763981983,2.0,1.0,phase_1,,,,,,,,,,,,,yellow,square
223.0,3.0,3.0,0.0,3.0,3.0,363.3832200430333,2.0,1.0,phase_1,,,,,,,,,,,,,magenta,I
188.0,7.0,3.0,1.0,3.0,3.0,441.5043119806796,2.0,1.0,phase_1,,,,,,,,,,,,,white,cross
400.0,8.0,4.0,1.0,1.0,1.0,464.6959470119327,2.0,1.0,phase_1,,,,,,,,,,,,,gray,diamond
55.0,5.0,1.0,1.0,3.0,3.0,297.2663880209438,2.0,1.0,phase_1,,,,,,,,,,,,,cyan,triangle
110.0,2.0,2.0,0.0,3.0,3.0,359.944666037336,2.0,1.0,phase_1,,,,,,,,,,,,,blue,flipped triangle
0.0,5.0,0.0,1.0,3.0,3.0,355.4471189854666,2.0,1.0,phase_1,,,,,,,,,,,,,cyan,triangle
0.0,3.0,0.0,0.0,1.0,1.0,348.0987490038387,3.0,1.0,phase_1,,,,,,,,,,,,,magenta,I
54.0,1.0,1.0,0.0,2.0,2.0,344.1647569998167,3.0,1.0,phase_1,,,,,,,,,,,,,yellow,square
85.0,6.0,2.0,1.0,4.0,4.0,285.6251929770224,3.0,1.0,phase_1,,,,,,,,,,,,,orange,circle
177.0,3.0,3.0,0.0,4.0,4.0,340.0599519954994,3.0,1.0,phase_1,,,,,,,,,,,,,magenta,I
0.0,1.0,0.0,0.0,2.0,2.0,334.6574250026606,3.0,1.0,phase_1,,,,,,,,,,,,,yellow,square
64.0,5.0,1.0,1.0,4.0,4.0,310.865615028888,3.0,1.0,phase_1,,,,,,,,,,,,,cyan,triangle
376.0,4.0,4.0,0.0,1.0,1.0,400.2493820153177,3.0,1.0,phase_1,,,,,,,,,,,,,green,hexagon
0.0,1.0,0.0,0.0,2.0,2.0,294.2428829846903,3.0,1.0,phase_1,,,,,,,,,,,,,yellow,square
91.0,2.0,2.0,0.0,2.0,2.0,379.66073397547,3.0,1.0,phase_1,,,,,,,,,,,,,blue,flipped triangle
41.0,1.0,1.0,0.0,1.0,1.0,277.6929709943943,3.0,1.0,phase_1,,,,,,,,,,,,,yellow,square
379.0,4.0,4.0,0.0,3.0,3.0,314.4087539985776,3.0,1.0,phase_1,,,,,,,,,,,,,green,hexagon
197.0,7.0,3.0,1.0,1.0,1.0,351.5342329628765,3.0,1.0,phase_1,,,,,,,,,,,,,white,cross
404.0,4.0,4.0,0.0,4.0,4.0,429.6246269950643,3.0,1.0,phase_1,,,,,,,,,,,,,green,hexagon
84.0,2.0,2.0,0.0,4.0,4.0,424.6331460308283,3.0,1.0,phase_1,,,,,,,,,,,,,blue,flipped triangle
109.0,2.0,2.0,0.0,4.0,4.0,453.3408880233764,3.0,1.0,phase_1,,,,,,,,,,,,,blue,flipped triangle
64.0,1.0,1.0,0.0,4.0,4.0,429.0383040206507,3.0,1.0,phase_1,,,,,,,,,,,,,yellow,square
415.0,8.0,4.0,1.0,3.0,3.0,359.597667993512,3.0,1.0,phase_1,,,,,,,,,,,,,gray,diamond
376.0,8.0,4.0,1.0,4.0,4.0,350.6402940256521,3.0,1.0,phase_1,,,,,,,,,,,,,gray,diamond
0.0,3.0,0.0,0.0,4.0,4.0,441.8975950102322,3.0,1.0,phase_1,,,,,,,,,,,,,magenta,I
99.0,2.0,2.0,0.0,2.0,2.0,327.497435035184,3.0,1.0,phase_1,,,,,,,,,,,,,blue,flipped triangle
0.0,4.0,0.0,0.0,4.0,4.0,385.1103300112299,3.0,1.0,phase_1,,,,,,,,,,,,,green,hexagon
31.0,5.0,1.0,1.0,1.0,1.0,496.4986079721711,3.0,1.0,phase_1,,,,,,,,,,,,,cyan,triangle
78.0,6.0,2.0,1.0,3.0,3.0,397.5073170149699,3.0,1.0,phase_1,,,,,,,,,,,,,orange,circle
0.0,1.0,0.0,0.0,4.0,4.0,331.387814017944,3.0,1.0,phase_1,,,,,,,,,,,,,yellow,square
96.0,6.0,2.0,1.0,1.0,1.0,395.6809570081532,3.0,1.0,phase_1,,,,,,,,,,,,,orange,circle
192.0,7.0,3.0,1.0,2.0,2.0,571.9234890420921,3.0,1.0,phase_1,,,,,,,,,,,,,white,cross
188.0,3.0,3.0,0.0,4.0,4.0,437.7434849739074,3.0,1.0,phase_1,,,,,,,,,,,,,magenta,I
107.0,2.0,2.0,0.0,2.0,2.0,474.4756869622506,3.0,1.0,phase_1,,,,,,,,,,,,,blue,flipped triangle
198.0,7.0,3.0,1.0,4.0,4.0,298.8215899677016,3.0,1.0,phase_1,,,,,,,,,,,,,white,cross
62.0,5.0,1.0,1.0,1.0,1.0,285.4030579910613,3.0,1.0,phase_1,,,,,,,,,,,,,cyan,triangle
66.0,1.0,1.0,0.0,2.0,2.0,305.3660019650124,3.0,1.0,phase_1,,,,,,,,,,,,,yellow,square
402.0,8.0,4.0,1.0,2.0,2.0,358.7699179770425,3.0,1.0,phase_1,,,,,,,,,,,,,gray,diamond
187.0,7.0,3.0,1.0,2.0,2.0,353.211903013289,3.0,1.0,phase_1,,,,,,,,,,,,,white,cross
78.0,2.0,2.0,0.0,2.0,2.0,368.4703150065616,3.0,1.0,phase_1,,,,,,,,,,,,,blue,flipped triangle
75.0,5.0,1.0,1.0,2.0,2.0,293.7856590142473,3.0,1.0,phase_1,,,,,,,,,,,,,cyan,triangle
379.0,8.0,4.0,1.0,3.0,3.0,441.7336629703641,3.0,1.0,phase_1,,,,,,,,,,,,,gray,diamond
0.0,2.0,0.0,0.0,3.0,3.0,309.7192840068601,3.0,1.0,phase_1,,,,,,,,,,,,,blue,flipped triangle
48.0,5.0,1.0,1.0,3.0,3.0,340.8835979644209,3.0,1.0,phase_1,,,,,,,,,,,,,cyan,triangle
76.0,2.0,2.0,0.0,1.0,1.0,335.1841130061075,3.0,1.0,phase_1,,,,,,,,,,,,,blue,flipped triangle
203.0,7.0,3.0,1.0,4.0,4.0,389.1371609643101,3.0,1.0,phase_1,,,,,,,,,,,,,white,cross
54.0,1.0,1.0,0.0,2.0,2.0,358.998722047545,3.0,1.0,phase_1,,,,,,,,,,,,,yellow,square
122.0,2.0,2.0,0.0,2.0,2.0,325.9333500172943,3.0,1.0,phase_1,,,,,,,,,,,,,blue,flipped triangle
416.0,4.0,4.0,0.0,3.0,3.0,424.3137410376221,3.0,1.0,phase_1,,,,,,,,,,,,,green,hexagon
420.0,8.0,4.0,1.0,3.0,3.0,302.7662229724228,3.0,1.0,phase_1,,,,,,,,,,,,,gray,diamond
88.0,2.0,2.0,0.0,4.0,4.0,395.4165449831635,3.0,1.0,phase_1,,,,,,,,,,,,,blue,flipped triangle
388.0,4.0,4.0,0.0,1.0,1.0,519.6458730497397,3.0,1.0,phase_1,,,,,,,,,,,,,green,hexagon
0.0,6.0,0.0,1.0,4.0,4.0,396.7524510226212,3.0,1.0,phase_1,,,,,,,,,,,,,orange,circle
26.0,5.0,1.0,1.0,3.0,3.0,412.5355309806764,3.0,2.0,phase_1,,,,,,,,,,,,,cyan,triangle
71.0,1.0,1.0,0.0,3.0,3.0,394.2340830108151,3.0,1.0,phase_1,,,,,,,,,,,,,yellow,square
0.0,2.0,0.0,0.0,3.0,3.0,342.63356897281477,3.0,1.0,phase_1,,,,,,,,,,,,,blue,flipped triangle
30.0,5.0,1.0,1.0,3.0,3.0,542.0175259932876,3.0,1.0,phase_1,,,,,,,,,,,,,cyan,triangle
220.0,7.0,3.0,1.0,4.0,4.0,423.5557029605843,3.0,1.0,phase_1,,,,,,,,,,,,,white,cross
68.0,1.0,1.0,0.0,1.0,1.0,396.4801079710014,3.0,1.0,phase_1,,,,,,,,,,,,,yellow,square
203.0,7.0,3.0,1.0,3.0,3.0,409.2512839706614,3.0,1.0,phase_1,,,,,,,,,,,,,white,cross
37.0,5.0,1.0,1.0,4.0,4.0,389.1846199985593,3.0,1.0,phase_1,,,,,,,,,,,,,cyan,triangle
26.0,5.0,1.0,1.0,4.0,4.0,437.7750419662334,3.0,1.0,phase_1,,,,,,,,,,,,,cyan,triangle
0.0,5.0,0.0,1.0,4.0,4.0,344.5449069840833,3.0,1.0,phase_1,,,,,,,,,,,,,cyan,triangle
382.0,8.0,4.0,1.0,3.0,3.0,315.0581389782019,3.0,1.0,phase_1,,,,,,,,,,,,,gray,diamond
108.0,6.0,2.0,1.0,3.0,3.0,308.0612379708327,3.0,1.0,phase_1,,,,,,,,,,,,,orange,circle
83.0,6.0,2.0,1.0,2.0,2.0,348.5520000103861,3.0,1.0,phase_1,,,,,,,,,,,,,orange,circle
221.0,3.0,3.0,0.0,2.0,2.0,433.84968402097,3.0,1.0,phase_1,,,,,,,,,,,,,magenta,I
385.0,8.0,4.0,1.0,4.0,4.0,344.133669976145,3.0,1.0,phase_1,,,,,,,,,,,,,gray,diamond
37.0,1.0,1.0,0.0,1.0,1.0,469.9638309539296,3.0,1.0,phase_1,,,,,,,,,,,,,yellow,square
28.0,5.0,1.0,1.0,3.0,3.0,402.5476069655269,3.0,1.0,phase_1,,,,,,,,,,,,,cyan,triangle
399.0,4.0,4.0,0.0,3.0,3.0,422.6619300316088,3.0,1.0,phase_1,,,,,,,,,,,,,green,hexagon
206.0,3.0,3.0,0.0,3.0,3.0,513.3462930098176,3.0,1.0,phase_1,,,,,,,,,,,,,magenta,I
96.0,6.0,2.0,1.0,4.0,4.0,495.917480031494,3.0,1.0,phase_1,,,,,,,,,,,,,orange,circle
420.0,4.0,4.0,0.0,1.0,1.0,356.9141800398938,3.0,1.0,phase_1,,,,,,,,,,,,,green,hexagon
96.0,2.0,2.0,0.0,2.0,2.0,390.6351620098576,3.0,1.0,phase_1,,,,,,,,,,,,,blue,flipped triangle
108.0,6.0,2.0,1.0,3.0,3.0,316.3931680028327,3.0,1.0,phase_1,,,,,,,,,,,,,orange,circle
97.0,6.0,2.0,1.0,1.0,1.0,472.8374450351111,3.0,1.0,phase_1,,,,,,,,,,,,,orange,circle
108.0,2.0,2.0,0.0,3.0,3.0,422.7188729564659,3.0,1.0,phase_1,,,,,,,,,,,,,blue,flipped triangle
392.0,8.0,4.0,1.0,4.0,4.0,373.2694800128229,3.0,1.0,phase_1,,,,,,,,,,,,,gray,diamond
420.0,4.0,4.0,0.0,3.0,3.0,430.6359639740549,3.0,1.0,phase_1,,,,,,,,,,,,,green,hexagon
0.0,6.0,0.0,1.0,3.0,3.0,325.9664610377513,3.0,1.0,phase_1,,,,,,,,,,,,,orange,circle
83.0,2.0,2.0,0.0,4.0,4.0,511.69135503005236,3.0,1.0,phase_1,,,,,,,,,,,,,blue,flipped triangle
40.0,5.0,1.0,1.0,3.0,3.0,420.3169079846702,3.0,1.0,phase_1,,,,,,,,,,,,,cyan,triangle
375.0,8.0,4.0,1.0,3.0,3.0,361.7137419641949,3.0,1.0,phase_1,,,,,,,,,,,,,gray,diamond
219.0,3.0,3.0,0.0,1.0,1.0,352.2315100417472,3.0,1.0,phase_1,,,,,,,,,,,,,magenta,I
121.0,6.0,2.0,1.0,2.0,2.0,322.4641340202652,3.0,1.0,phase_1,,,,,,,,,,,,,orange,circle
0.0,4.0,0.0,0.0,3.0,3.0,342.9063209914602,3.0,1.0,phase_1,,,,,,,,,,,,,green,hexagon
377.0,8.0,4.0,1.0,2.0,2.0,429.2636570171453,3.0,1.0,phase_1,,,,,,,,,,,,,gray,diamond
0.0,1.0,0.0,0.0,1.0,1.0,355.8244580053724,3.0,1.0,phase_1,,,,,,,,,,,,,yellow,square
189.0,7.0,3.0,1.0,3.0,3.0,351.6118669649586,3.0,1.0,phase_1,,,,,,,,,,,,,white,cross
54.0,5.0,1.0,1.0,2.0,2.0,290.2205809950828,3.0,1.0,phase_1,,,,,,,,,,,,,cyan,triangle
211.0,7.0,3.0,1.0,3.0,3.0,327.2443849709816,3.0,1.0,phase_1,,,,,,,,,,,,,white,cross
0.0,5.0,0.0,1.0,1.0,1.0,459.3993530143052,3.0,1.0,phase_1,,,,,,,,,,,,,cyan,triangle
89.0,2.0,2.0,0.0,1.0,1.0,568.6214059824124,3.0,1.0,phase_1,,,,,,,,,,,,,blue,flipped triangle
417.0,8.0,4.0,1.0,1.0,1.0,549.9304080149159,3.0,1.0,phase_1,,,,,,,,,,,,,gray,diamond
119.0,6.0,2.0,1.0,4.0,4.0,507.8791379928589,3.0,1.0,phase_1,,,,,,,,,,,,,orange,circle
389.0,4.0,4.0,0.0,2.0,2.0,465.0210969848558,3.0,1.0,phase_1,,,,,,,,,,,,,green,hexagon
0.0,5.0,0.0,1.0,1.0,1.0,586.6852580220439,3.0,1.0,phase_1,,,,,,,,,,,,,cyan,triangle
0.0,6.0,0.0,1.0,2.0,2.0,393.3215720462613,3.0,1.0,phase_1,,,,,,,,,,,,,orange,circle
114.0,6.0,2.0,1.0,1.0,1.0,501.6202609986067,3.0,1.0,phase_1,,,,,,,,,,,,,orange,circle
103.0,2.0,2.0,0.0,2.0,2.0,330.696397984866,3.0,1.0,phase_1,,,,,,,,,,,,,blue,flipped triangle
392.0,4.0,4.0,0.0,2.0,2.0,461.597831977997,3.0,1.0,phase_1,,,,,,,,,,,,,green,hexagon
62.0,5.0,1.0,1.0,1.0,1.0,458.684160024859,3.0,1.0,phase_1,,,,,,,,,,,,,cyan,triangle
37.0,1.0,1.0,0.0,1.0,1.0,367.2157279797829,3.0,1.0,phase_1,,,,,,,,,,,,,yellow,square
82.0,6.0,2.0,1.0,2.0,2.0,299.2564609739929,3.0,1.0,phase_1,,,,,,,,,,,,,orange,circle
105.0,6.0,2.0,1.0,3.0,3.0,483.002495020628,3.0,1.0,phase_1,,,,,,,,,,,,,orange,circle
114.0,2.0,2.0,0.0,1.0,1.0,371.6024759924039,4.0,1.0,phase_1,,,,,,,,,,,,,blue,flipped triangle
0.0,6.0,0.0,1.0,4.0,4.0,409.6062119933776,4.0,1.0,phase_1,,,,,,,,,,,,,orange,circle
46.0,5.0,1.0,1.0,1.0,1.0,347.8946809773333,4.0,1.0,phase_1,,,,,,,,,,,,,cyan,triangle
377.0,4.0,4.0,0.0,1.0,1.0,352.7477430179715,4.0,1.0,phase_1,,,,,,,,,,,,,green,hexagon
183.0,7.0,3.0,1.0,1.0,1.0,372.4255540291779,4.0,1.0,phase_1,,,,,,,,,,,,,white,cross
415.0,4.0,4.0,0.0,4.0,4.0,402.55503496155137,4.0,1.0,phase_1,,,,,,,,,,,,,green,hexagon
402.0,4.0,4.0,0.0,1.0,1.0,310.7466890360228,4.0,1.0,phase_1,,,,,,,,,,,,,green,hexagon
42.0,1.0,1.0,0.0,4.0,4.0,322.6083240006119,4.0,1.0,phase_1,,,,,,,,,,,,,yellow,square
0.0,2.0,0.0,0.0,3.0,3.0,344.3789560114965,4.0,1.0,phase_1,,,,,,,,,,,,,blue,flipped triangle
0.0,4.0,0.0,0.0,3.0,3.0,373.4829379827715,4.0,1.0,phase_1,,,,,,,,,,,,,green,hexagon
106.0,2.0,2.0,0.0,4.0,4.0,425.6169549771584,4.0,1.0,phase_1,,,,,,,,,,,,,blue,flipped triangle
122.0,6.0,2.0,1.0,4.0,4.0,327.4211619864218,4.0,1.0,phase_1,,,,,,,,,,,,,orange,circle
217.0,7.0,3.0,1.0,3.0,3.0,323.5889810021035,4.0,1.0,phase_1,,,,,,,,,,,,,white,cross
206.0,7.0,3.0,1.0,2.0,2.0,328.605874965433,4.0,1.0,phase_1,,,,,,,,,,,,,white,cross
0.0,3.0,0.0,0.0,3.0,3.0,356.3440849538892,4.0,1.0,phase_1,,,,,,,,,,,,,magenta,I
124.0,2.0,2.0,0.0,3.0,3.0,327.4210930103436,4.0,1.0,phase_1,,,,,,,,,,,,,blue,flipped triangle
207.0,3.0,3.0,0.0,4.0,4.0,344.8603069991804,4.0,1.0,phase_1,,,,,,,,,,,,,magenta,I
414.0,8.0,4.0,1.0,1.0,1.0,371.2770029669627,4.0,1.0,phase_1,,,,,,,,,,,,,gray,diamond
120.0,2.0,2.0,0.0,3.0,3.0,326.3652240275405,4.0,1.0,phase_1,,,,,,,,,,,,,blue,flipped triangle
0.0,3.0,0.0,0.0,1.0,1.0,420.3493160312064,4.0,1.0,phase_1,,,,,,,,,,,,,magenta,I
392.0,4.0,4.0,0.0,3.0,3.0,351.5642579877749,4.0,1.0,phase_1,,,,,,,,,,,,,green,hexagon
34.0,5.0,1.0,1.0,2.0,2.0,412.8749700030312,4.0,1.0,phase_1,,,,,,,,,,,,,cyan,triangle
420.0,8.0,4.0,1.0,4.0,4.0,488.7585149845108,4.0,1.0,phase_1,,,,,,,,,,,,,gray,diamond
103.0,2.0,2.0,0.0,4.0,4.0,367.0144790085032,4.0,1.0,phase_1,,,,,,,,,,,,,blue,flipped triangle
389.0,8.0,4.0,1.0,2.0,2.0,508.45433498034254,4.0,1.0,phase_1,,,,,,,,,,,,,gray,diamond
120.0,2.0,2.0,0.0,3.0,3.0,448.6706260358915,4.0,1.0,phase_1,,,,,,,,,,,,,blue,flipped triangle
99.0,6.0,2.0,1.0,3.0,3.0,356.8923080456443,4.0,1.0,phase_1,,,,,,,,,,,,,orange,circle
0.0,8.0,0.0,1.0,1.0,1.0,467.089053010568,4.0,1.0,phase_1,,,,,,,,,,,,,gray,diamond
389.0,4.0,4.0,0.0,3.0,3.0,532.1137440041639,4.0,1.0,phase_1,,,,,,,,,,,,,green,hexagon
0.0,7.0,0.0,1.0,4.0,4.0,323.6872059642337,4.0,1.0,phase_1,,,,,,,,,,,,,white,cross
187.0,3.0,3.0,0.0,1.0,1.0,367.6162239862606,4.0,1.0,phase_1,,,,,,,,,,,,,magenta,I
211.0,3.0,3.0,0.0,1.0,1.0,404.7129839891568,4.0,1.0,phase_1,,,,,,,,,,,,,magenta,I
220.0,7.0,3.0,1.0,1.0,1.0,361.1639470327645,4.0,1.0,phase_1,,,,,,,,,,,,,white,cross
220.0,3.0,3.0,0.0,1.0,1.0,381.5769590437412,4.0,1.0,phase_1,,,,,,,,,,,,,magenta,I
196.0,7.0,3.0,1.0,2.0,2.0,459.4055080087855,4.0,1.0,phase_1,,,,,,,,,,,,,white,cross
92.0,2.0,2.0,0.0,1.0,1.0,356.9548599771224,4.0,1.0,phase_1,,,,,,,,,,,,,blue,flipped triangle
94.0,2.0,2.0,0.0,1.0,1.0,380.5487439967692,4.0,1.0,phase_1,,,,,,,,,,,,,blue,flipped triangle
106.0,6.0,2.0,1.0,1.0,1.0,350.918976997491,4.0,1.0,phase_1,,,,,,,,,,,,,orange,circle
91.0,6.0,2.0,1.0,4.0,4.0,435.93014602083707,4.0,1.0,phase_1,,,,,,,,,,,,,orange,circle
66.0,5.0,1.0,1.0,1.0,1.0,434.6595310489647,4.0,1.0,phase_1,,,,,,,,,,,,,cyan,triangle
0.0,7.0,0.0,1.0,2.0,2.0,358.8167470297776,4.0,1.0,phase_1,,,,,,,,,,,,,white,cross
103.0,6.0,2.0,1.0,4.0,4.0,393.2506190030835,4.0,1.0,phase_1,,,,,,,,,,,,,orange,circle
88.0,6.0,2.0,1.0,1.0,1.0,417.5207070074975,4.0,1.0,phase_1,,,,,,,,,,,,,orange,circle
40.0,1.0,1.0,0.0,4.0,4.0,370.8977939677425,4.0,1.0,phase_1,,,,,,,,,,,,,yellow,square
0.0,2.0,0.0,0.0,4.0,4.0,434.1583490022458,4.0,1.0,phase_1,,,,,,,,,,,,,blue,flipped triangle
63.0,1.0,1.0,0.0,1.0,1.0,342.6491529680788,4.0,1.0,phase_1,,,,,,,,,,,,,yellow,square
424.0,8.0,4.0,1.0,1.0,1.0,379.9173209699802,4.0,1.0,phase_1,,,,,,,,,,,,,gray,diamond
216.0,3.0,3.0,0.0,2.0,2.0,536.9577889796346,4.0,1.0,phase_1,,,,,,,,,,,,,magenta,I
388.0,8.0,4.0,1.0,2.0,2.0,344.8968940065242,4.0,2.0,phase_1,,,,,,,,,,,,,gray,diamond
0.0,6.0,0.0,1.0,2.0,2.0,355.1136060268618,4.0,1.0,phase_1,,,,,,,,,,,,,orange,circle
0.0,5.0,0.0,1.0,3.0,3.0,380.0026920507662,4.0,1.0,phase_1,,,,,,,,,,,,,cyan,triangle
206.0,3.0,3.0,0.0,4.0,4.0,341.1134270136244,4.0,1.0,phase_1,,,,,,,,,,,,,magenta,I
217.0,3.0,3.0,0.0,3.0,3.0,369.3228780175559,4.0,1.0,phase_1,,,,,,,,,,,,,magenta,I
107.0,6.0,2.0,1.0,1.0,1.0,343.9790609991178,4.0,1.0,phase_1,,,,,,,,,,,,,orange,circle
92.0,2.0,2.0,0.0,1.0,1.0,413.9809900079854,4.0,1.0,phase_1,,,,,,,,,,,,,blue,flipped triangle
404.0,8.0,4.0,1.0,4.0,4.0,576.0937610175461,4.0,1.0,phase_1,,,,,,,,,,,,,gray,diamond
396.0,8.0,4.0,1.0,1.0,1.0,519.7997050127015,4.0,1.0,phase_1,,,,,,,,,,,,,gray,diamond
83.0,2.0,2.0,0.0,1.0,1.0,352.2735849837772,4.0,1.0,phase_1,,,,,,,,,,,,,blue,flipped triangle
71.0,5.0,1.0,1.0,4.0,4.0,454.0189399849623,4.0,1.0,phase_1,,,,,,,,,,,,,cyan,triangle
187.0,3.0,3.0,0.0,2.0,2.0,380.9751470107585,4.0,1.0,phase_1,,,,,,,,,,,,,magenta,I
105.0,2.0,2.0,0.0,1.0,1.0,489.5728669944219,4.0,1.0,phase_1,,,,,,,,,,,,,blue,flipped triangle
0.0,6.0,0.0,1.0,4.0,4.0,503.51476698415354,4.0,1.0,phase_1,,,,,,,,,,,,,orange,circle
97.0,2.0,2.0,0.0,1.0,1.0,540.0865279952995,4.0,1.0,phase_1,,,,,,,,,,,,,blue,flipped triangle
390.0,8.0,4.0,1.0,1.0,1.0,325.6071229698136,4.0,1.0,phase_1,,,,,,,,,,,,,gray,diamond
402.0,4.0,4.0,0.0,2.0,2.0,339.3618420232087,4.0,1.0,phase_1,,,,,,,,,,,,,green,hexagon
111.0,6.0,2.0,1.0,2.0,2.0,318.3909259969368,4.0,1.0,phase_1,,,,,,,,,,,,,orange,circle
119.0,2.0,2.0,0.0,2.0,2.0,298.2432980206795,4.0,1.0,phase_1,,,,,,,,,,,,,blue,flipped triangle
185.0,3.0,3.0,0.0,2.0,2.0,339.3533190246671,4.0,1.0,phase_1,,,,,,,,,,,,,magenta,I
39.0,5.0,1.0,1.0,2.0,2.0,399.4331110152416,4.0,1.0,phase_1,,,,,,,,,,,,,cyan,triangle
55.0,5.0,1.0,1.0,1.0,1.0,482.9266020096838,4.0,1.0,phase_1,,,,,,,,,,,,,cyan,triangle
389.0,4.0,4.0,0.0,2.0,2.0,328.0615349649451,4.0,1.0,phase_1,,,,,,,,,,,,,green,hexagon
44.0,1.0,1.0,0.0,1.0,1.0,558.0555680207908,4.0,1.0,phase_1,,,,,,,,,,,,,yellow,square
50.0,5.0,1.0,1.0,3.0,3.0,371.420425013639,4.0,2.0,phase_1,,,,,,,,,,,,,cyan,triangle
196.0,3.0,3.0,0.0,2.0,2.0,282.7512510120868,4.0,1.0,phase_1,,,,,,,,,,,,,magenta,I
0.0,7.0,0.0,1.0,3.0,3.0,352.0497339777648,4.0,1.0,phase_1,,,,,,,,,,,,,white,cross
41.0,5.0,1.0,1.0,4.0,4.0,361.5956760477274,4.0,1.0,phase_1,,,,,,,,,,,,,cyan,triangle
26.0,1.0,1.0,0.0,3.0,3.0,343.7440760317258,4.0,1.0,phase_1,,,,,,,,,,,,,yellow,square
0.0,4.0,0.0,0.0,1.0,1.0,311.0753439832479,4.0,1.0,phase_1,,,,,,,,,,,,,green,hexagon
0.0,5.0,0.0,1.0,1.0,1.0,482.3317300179042,4.0,1.0,phase_1,,,,,,,,,,,,,cyan,triangle
40.0,5.0,1.0,1.0,2.0,2.0,327.037090959493,4.0,1.0,phase_1,,,,,,,,,,,,,cyan,triangle
206.0,7.0,3.0,1.0,2.0,2.0,404.4559400063008,4.0,1.0,phase_1,,,,,,,,,,,,,white,cross
189.0,3.0,3.0,0.0,4.0,4.0,350.4127929918468,4.0,1.0,phase_1,,,,,,,,,,,,,magenta,I
184.0,7.0,3.0,1.0,4.0,4.0,477.0745930145494,4.0,1.0,phase_1,,,,,,,,,,,,,white,cross
0.0,4.0,0.0,0.0,1.0,1.0,489.6529630059376,4.0,1.0,phase_1,,,,,,,,,,,,,green,hexagon
422.0,4.0,4.0,0.0,4.0,4.0,518.6421789694577,4.0,1.0,phase_1,,,,,,,,,,,,,green,hexagon
45.0,5.0,1.0,1.0,2.0,2.0,368.6640670057386,4.0,1.0,phase_1,,,,,,,,,,,,,cyan,triangle
0.0,3.0,0.0,0.0,4.0,4.0,384.3396929441951,4.0,1.0,phase_1,,,,,,,,,,,,,magenta,I
179.0,3.0,3.0,0.0,4.0,4.0,620.5146259744652,4.0,1.0,phase_1,,,,,,,,,,,,,magenta,I
0.0,7.0,0.0,1.0,3.0,3.0,655.3549700183794,4.0,1.0,phase_1,,,,,,,,,,,,,white,cross
219.0,7.0,3.0,1.0,4.0,4.0,677.6597629650496,4.0,1.0,phase_1,,,,,,,,,,,,,white,cross
0.0,3.0,0.0,0.0,4.0,4.0,416.7034139973111,4.0,1.0,phase_1,,,,,,,,,,,,,magenta,I
0.0,3.0,0.0,0.0,1.0,1.0,502.57410295307636,4.0,1.0,phase_1,,,,,,,,,,,,,magenta,I
423.0,8.0,4.0,1.0,1.0,1.0,281.1335989972576,4.0,1.0,phase_1,,,,,,,,,,,,,gray,diamond
84.0,6.0,2.0,1.0,3.0,3.0,433.309446030762,4.0,1.0,phase_1,,,,,,,,,,,,,orange,circle
110.0,6.0,2.0,1.0,3.0,3.0,661.7155789863318,4.0,1.0,phase_1,,,,,,,,,,,,,orange,circle
0.0,4.0,0.0,0.0,4.0,4.0,442.3177609569393,4.0,1.0,phase_1,,,,,,,,,,,,,green,hexagon
103.0,6.0,2.0,1.0,1.0,1.0,399.815833021421,4.0,1.0,phase_1,,,,,,,,,,,,,orange,circle
389.0,8.0,4.0,1.0,4.0,4.0,379.95955301448697,4.0,1.0,phase_1,,,,,,,,,,,,,gray,diamond
183.0,7.0,3.0,1.0,1.0,1.0,368.0594230536371,4.0,1.0,phase_1,,,,,,,,,,,,,white,cross
0.0,2.0,0.0,0.0,3.0,3.0,355.934660998173,4.0,1.0,phase_1,,,,,,,,,,,,,blue,flipped triangle
0.0,8.0,4.0,1.0,6.0,6.0,510.9421859961003,1.0,1.0,phase_2,stop,250.0,250.0,3.0,,,,,,,,,gray,diamond
0.0,1.0,1.0,0.0,5.0,5.0,455.1806210074574,1.0,1.0,phase_2,go,250.0,200.0,1.0,,,,,,,,,yellow,square
0.0,8.0,4.0,1.0,5.0,5.0,328.0524149886332,1.0,1.0,phase_2,stop,250.0,200.0,3.0,,,,,,,,,gray,diamond
0.0,8.0,4.0,1.0,6.0,0.0,0.0,1.0,1.0,phase_2,stop,200.0,200.0,4.0,,,,,,,,,gray,diamond
0.0,1.0,1.0,0.0,6.0,6.0,440.5927599873394,1.0,1.0,phase_2,go,200.0,250.0,1.0,,,,,,,,,yellow,square
0.0,2.0,2.0,0.0,5.0,5.0,487.940660037566,1.0,1.0,phase_2,go,200.0,250.0,1.0,,,,,,,,,blue,flipped triangle
0.0,6.0,2.0,1.0,5.0,0.0,0.0,1.0,1.0,phase_2,stop,200.0,250.0,4.0,,,,,,,,,orange,circle
0.0,5.0,1.0,1.0,5.0,5.0,350.3019730560481,1.0,1.0,phase_2,stop,250.0,250.0,3.0,,,,,,,,,cyan,triangle
0.0,4.0,4.0,0.0,5.0,5.0,509.0328729711473,1.0,1.0,phase_2,go,200.0,250.0,1.0,,,,,,,,,green,hexagon
0.0,5.0,1.0,1.0,6.0,6.0,782.854623044841,1.0,1.0,phase_2,go,200.0,250.0,1.0,,,,,,,,,cyan,triangle
0.0,3.0,3.0,0.0,6.0,6.0,414.2400230048224,1.0,1.0,phase_2,go,200.0,250.0,1.0,,,,,,,,,magenta,I
0.0,3.0,3.0,0.0,5.0,5.0,460.4437249945476,1.0,1.0,phase_2,go,200.0,250.0,1.0,,,,,,,,,magenta,I
0.0,4.0,4.0,0.0,5.0,5.0,484.0206549852155,1.0,1.0,phase_2,go,200.0,250.0,1.0,,,,,,,,,green,hexagon
0.0,5.0,1.0,1.0,6.0,6.0,299.7620739624835,1.0,1.0,phase_2,stop,200.0,250.0,3.0,,,,,,,,,cyan,triangle
0.0,8.0,4.0,1.0,6.0,0.0,0.0,1.0,1.0,phase_2,stop,200.0,200.0,4.0,,,,,,,,,gray,diamond
0.0,6.0,2.0,1.0,5.0,0.0,0.0,1.0,1.0,phase_2,stop,200.0,250.0,4.0,,,,,,,,,orange,circle
0.0,3.0,3.0,0.0,5.0,5.0,594.0910479985178,1.0,1.0,phase_2,go,250.0,250.0,1.0,,,,,,,,,magenta,I
0.0,2.0,2.0,0.0,5.0,5.0,417.5713710137643,1.0,1.0,phase_2,go,250.0,250.0,1.0,,,,,,,,,blue,flipped triangle
0.0,5.0,1.0,1.0,5.0,5.0,335.1935900282115,1.0,1.0,phase_2,stop,250.0,250.0,3.0,,,,,,,,,cyan,triangle
0.0,5.0,1.0,1.0,5.0,0.0,0.0,1.0,1.0,phase_2,stop,200.0,250.0,4.0,,,,,,,,,cyan,triangle
0.0,4.0,4.0,0.0,6.0,6.0,501.71263999072835,1.0,1.0,phase_2,go,250.0,250.0,1.0,,,,,,,,,green,hexagon
0.0,4.0,4.0,0.0,5.0,5.0,352.606130996719,1.0,1.0,phase_2,go,250.0,250.0,1.0,,,,,,,,,green,hexagon
0.0,1.0,1.0,0.0,6.0,6.0,376.0762530146166,1.0,1.0,phase_2,go,250.0,250.0,1.0,,,,,,,,,yellow,square
0.0,4.0,4.0,0.0,6.0,6.0,418.9729699864983,1.0,1.0,phase_2,go,250.0,250.0,1.0,,,,,,,,,green,hexagon
0.0,5.0,1.0,1.0,5.0,5.0,292.5064209848642,1.0,1.0,phase_2,stop,250.0,250.0,3.0,,,,,,,,,cyan,triangle
0.0,1.0,1.0,0.0,6.0,6.0,522.8969129966572,1.0,1.0,phase_2,go,200.0,250.0,1.0,,,,,,,,,yellow,square
0.0,7.0,3.0,1.0,5.0,5.0,386.103498050943,1.0,1.0,phase_2,stop,200.0,250.0,3.0,,,,,,,,,white,cross
0.0,8.0,4.0,1.0,5.0,0.0,0.0,1.0,1.0,phase_2,stop,150.0,250.0,4.0,,,,,,,,,gray,diamond
0.0,7.0,3.0,1.0,6.0,0.0,0.0,1.0,1.0,phase_2,stop,200.0,250.0,4.0,,,,,,,,,white,cross
0.0,7.0,3.0,1.0,6.0,6.0,683.0605400027707,1.0,1.0,phase_2,go,200.0,300.0,1.0,,,,,,,,,white,cross
0.0,2.0,2.0,0.0,6.0,6.0,506.55978999566287,1.0,1.0,phase_2,go,200.0,300.0,1.0,,,,,,,,,blue,flipped triangle
0.0,4.0,4.0,0.0,6.0,6.0,504.2803170508705,1.0,1.0,phase_2,go,200.0,300.0,1.0,,,,,,,,,green,hexagon
0.0,7.0,3.0,1.0,6.0,0.0,0.0,1.0,1.0,phase_2,stop,200.0,300.0,4.0,,,,,,,,,white,cross
0.0,2.0,2.0,0.0,6.0,6.0,512.6131160068326,1.0,1.0,phase_2,go,200.0,350.0,1.0,,,,,,,,,blue,flipped triangle
0.0,6.0,2.0,1.0,6.0,6.0,463.8871990027837,1.0,1.0,phase_2,stop,200.0,350.0,3.0,,,,,,,,,orange,circle
0.0,3.0,3.0,0.0,6.0,6.0,590.469132992439,1.0,1.0,phase_2,go,200.0,300.0,1.0,,,,,,,,,magenta,I
0.0,8.0,4.0,1.0,6.0,6.0,636.6304829716682,2.0,1.0,phase_2,go,200.0,300.0,1.0,,,,,,,,,gray,diamond
0.0,3.0,3.0,0.0,5.0,5.0,452.3687720065936,2.0,1.0,phase_2,go,200.0,300.0,1.0,,,,,,,,,magenta,I
0.0,7.0,3.0,1.0,6.0,6.0,370.3714460134506,2.0,1.0,phase_2,stop,200.0,300.0,3.0,,,,,,,,,white,cross
0.0,4.0,4.0,0.0,5.0,5.0,364.7554799681529,2.0,1.0,phase_2,go,200.0,250.0,1.0,,,,,,,,,green,hexagon
0.0,1.0,1.0,0.0,5.0,5.0,564.8008710122667,2.0,1.0,phase_2,go,200.0,250.0,1.0,,,,,,,,,yellow,square
0.0,8.0,4.0,1.0,6.0,0.0,0.0,2.0,1.0,phase_2,stop,200.0,250.0,4.0,,,,,,,,,gray,diamond
0.0,1.0,1.0,0.0,6.0,6.0,496.5195949771441,2.0,1.0,phase_2,go,200.0,300.0,1.0,,,,,,,,,yellow,square
0.0,5.0,1.0,1.0,6.0,0.0,0.0,2.0,1.0,phase_2,stop,200.0,300.0,4.0,,,,,,,,,cyan,triangle
0.0,2.0,2.0,0.0,6.0,6.0,574.3346349918284,2.0,1.0,phase_2,go,200.0,350.0,1.0,,,,,,,,,blue,flipped triangle
0.0,2.0,2.0,0.0,6.0,6.0,362.1298459474928,2.0,1.0,phase_2,go,200.0,350.0,1.0,,,,,,,,,blue,flipped triangle
0.0,2.0,2.0,0.0,5.0,5.0,617.1629739692435,2.0,1.0,phase_2,go,200.0,350.0,1.0,,,,,,,,,blue,flipped triangle
0.0,3.0,3.0,0.0,6.0,6.0,501.1453960323706,2.0,1.0,phase_2,go,200.0,350.0,1.0,,,,,,,,,magenta,I
0.0,4.0,4.0,0.0,5.0,5.0,508.0374199897051,2.0,1.0,phase_2,go,200.0,350.0,1.0,,,,,,,,,green,hexagon
0.0,6.0,2.0,1.0,5.0,0.0,0.0,2.0,1.0,phase_2,stop,200.0,350.0,4.0,,,,,,,,,orange,circle
0.0,1.0,1.0,0.0,5.0,5.0,404.1292230249382,2.0,1.0,phase_2,go,250.0,350.0,1.0,,,,,,,,,yellow,square
0.0,4.0,4.0,0.0,5.0,5.0,532.39632002078,2.0,1.0,phase_2,go,250.0,350.0,1.0,,,,,,,,,green,hexagon
0.0,6.0,2.0,1.0,6.0,6.0,442.1586290118284,2.0,1.0,phase_2,go,250.0,350.0,1.0,,,,,,,,,orange,circle
0.0,4.0,4.0,0.0,5.0,5.0,433.6750319926068,2.0,1.0,phase_2,go,250.0,350.0,1.0,,,,,,,,,green,hexagon
0.0,8.0,4.0,1.0,5.0,0.0,0.0,2.0,1.0,phase_2,stop,250.0,350.0,4.0,,,,,,,,,gray,diamond
0.0,2.0,2.0,0.0,6.0,6.0,480.5247129988856,2.0,1.0,phase_2,go,300.0,350.0,1.0,,,,,,,,,blue,flipped triangle
0.0,8.0,4.0,1.0,6.0,6.0,403.9310609805397,2.0,1.0,phase_2,stop,300.0,350.0,3.0,,,,,,,,,gray,diamond
0.0,3.0,3.0,0.0,5.0,5.0,463.7391559663228,2.0,1.0,phase_2,go,300.0,300.0,1.0,,,,,,,,,magenta,I
0.0,3.0,3.0,0.0,6.0,6.0,378.1926689553074,2.0,1.0,phase_2,go,300.0,300.0,1.0,,,,,,,,,magenta,I
0.0,4.0,4.0,0.0,5.0,5.0,390.5977200483903,2.0,1.0,phase_2,go,300.0,300.0,1.0,,,,,,,,,green,hexagon
0.0,2.0,2.0,0.0,5.0,5.0,369.3367449450306,2.0,1.0,phase_2,go,300.0,300.0,1.0,,,,,,,,,blue,flipped triangle
0.0,2.0,2.0,0.0,6.0,6.0,436.8023460265249,2.0,1.0,phase_2,go,300.0,300.0,1.0,,,,,,,,,blue,flipped triangle
0.0,4.0,4.0,0.0,6.0,6.0,333.1585410051048,2.0,1.0,phase_2,go,300.0,300.0,1.0,,,,,,,,,green,hexagon
0.0,6.0,2.0,1.0,6.0,0.0,0.0,2.0,1.0,phase_2,stop,300.0,300.0,4.0,,,,,,,,,orange,circle
0.0,4.0,4.0,0.0,6.0,6.0,461.6500969859771,2.0,1.0,phase_2,go,300.0,350.0,1.0,,,,,,,,,green,hexagon
0.0,8.0,4.0,1.0,5.0,5.0,381.4967069774866,2.0,1.0,phase_2,go,300.0,350.0,1.0,,,,,,,,,gray,diamond
0.0,7.0,3.0,1.0,6.0,6.0,470.5466789891943,2.0,1.0,phase_2,stop,300.0,350.0,3.0,,,,,,,,,white,cross
0.0,8.0,4.0,1.0,5.0,5.0,395.9555869805626,2.0,1.0,phase_2,stop,300.0,300.0,3.0,,,,,,,,,gray,diamond
0.0,7.0,3.0,1.0,6.0,0.0,0.0,2.0,1.0,phase_2,stop,250.0,300.0,4.0,,,,,,,,,white,cross
0.0,2.0,2.0,0.0,6.0,6.0,532.6940430095419,2.0,1.0,phase_2,go,250.0,350.0,1.0,,,,,,,,,blue,flipped triangle
0.0,3.0,3.0,0.0,6.0,6.0,496.1713080410845,2.0,1.0,phase_2,go,250.0,350.0,1.0,,,,,,,,,magenta,I
0.0,5.0,1.0,1.0,5.0,0.0,0.0,2.0,1.0,phase_2,stop,250.0,350.0,4.0,,,,,,,,,cyan,triangle
0.0,3.0,3.0,0.0,5.0,5.0,663.608803995885,3.0,1.0,phase_2,go,300.0,350.0,1.0,,,,,,,,,magenta,I
0.0,8.0,4.0,1.0,5.0,5.0,343.2548739947378,3.0,1.0,phase_2,stop,300.0,350.0,3.0,,,,,,,,,gray,diamond
0.0,7.0,3.0,1.0,6.0,6.0,445.3076609643176,3.0,1.0,phase_2,stop,250.0,350.0,3.0,,,,,,,,,white,cross
0.0,4.0,4.0,0.0,5.0,5.0,503.8877520128153,3.0,1.0,phase_2,go,250.0,300.0,1.0,,,,,,,,,green,hexagon
0.0,2.0,2.0,0.0,5.0,5.0,524.1235630237497,3.0,1.0,phase_2,go,250.0,300.0,1.0,,,,,,,,,blue,flipped triangle
0.0,5.0,1.0,1.0,5.0,5.0,383.0388119677081,3.0,1.0,phase_2,go,250.0,300.0,1.0,,,,,,,,,cyan,triangle
0.0,5.0,1.0,1.0,6.0,6.0,386.5732669946737,3.0,1.0,phase_2,stop,250.0,300.0,3.0,,,,,,,,,cyan,triangle
0.0,5.0,1.0,1.0,5.0,5.0,562.4636730062775,3.0,1.0,phase_2,go,250.0,250.0,1.0,,,,,,,,,cyan,triangle
0.0,2.0,2.0,0.0,6.0,6.0,659.9986999644898,3.0,1.0,phase_2,go,250.0,250.0,1.0,,,,,,,,,blue,flipped triangle
0.0,6.0,2.0,1.0,6.0,0.0,0.0,3.0,1.0,phase_2,stop,250.0,250.0,4.0,,,,,,,,,orange,circle
0.0,6.0,2.0,1.0,5.0,5.0,528.0168990138918,3.0,1.0,phase_2,go,250.0,300.0,1.0,,,,,,,,,orange,circle
0.0,8.0,4.0,1.0,5.0,0.0,0.0,3.0,1.0,phase_2,stop,250.0,300.0,4.0,,,,,,,,,gray,diamond
0.0,1.0,1.0,0.0,6.0,6.0,311.0012690303847,3.0,1.0,phase_2,go,300.0,300.0,1.0,,,,,,,,,yellow,square
0.0,1.0,1.0,0.0,6.0,6.0,481.3540619798004,3.0,1.0,phase_2,go,300.0,300.0,1.0,,,,,,,,,yellow,square
0.0,1.0,1.0,0.0,5.0,5.0,670.1594110345468,3.0,1.0,phase_2,go,300.0,300.0,1.0,,,,,,,,,yellow,square
0.0,8.0,4.0,1.0,6.0,0.0,0.0,3.0,1.0,phase_2,stop,300.0,300.0,4.0,,,,,,,,,gray,diamond
0.0,1.0,1.0,0.0,6.0,6.0,388.5267269797623,3.0,1.0,phase_2,go,300.0,350.0,1.0,,,,,,,,,yellow,square
0.0,5.0,1.0,1.0,6.0,0.0,0.0,3.0,1.0,phase_2,stop,300.0,350.0,4.0,,,,,,,,,cyan,triangle
0.0,4.0,4.0,0.0,6.0,6.0,406.0256049851887,3.0,1.0,phase_2,go,300.0,400.0,1.0,,,,,,,,,green,hexagon
0.0,3.0,3.0,0.0,6.0,6.0,523.4193410142325,3.0,1.0,phase_2,go,300.0,400.0,1.0,,,,,,,,,magenta,I
0.0,6.0,2.0,1.0,5.0,0.0,0.0,3.0,1.0,phase_2,stop,300.0,400.0,4.0,,,,,,,,,orange,circle
0.0,7.0,3.0,1.0,6.0,6.0,370.4091280233115,3.0,1.0,phase_2,stop,350.0,400.0,3.0,,,,,,,,,white,cross
0.0,4.0,4.0,0.0,6.0,6.0,427.3973209783435,3.0,1.0,phase_2,go,350.0,350.0,1.0,,,,,,,,,green,hexagon
0.0,7.0,3.0,1.0,5.0,0.0,0.0,3.0,1.0,phase_2,stop,350.0,350.0,4.0,,,,,,,,,white,cross
0.0,5.0,1.0,1.0,6.0,6.0,508.1272990209982,3.0,1.0,phase_2,go,400.0,350.0,1.0,,,,,,,,,cyan,triangle
0.0,6.0,2.0,1.0,6.0,6.0,706.6535460180603,3.0,1.0,phase_2,go,400.0,350.0,1.0,,,,,,,,,orange,circle
0.0,4.0,4.0,0.0,5.0,5.0,441.1161600146442,3.0,1.0,phase_2,go,400.0,350.0,1.0,,,,,,,,,green,hexagon
0.0,6.0,2.0,1.0,6.0,6.0,310.9292780281976,3.0,1.0,phase_2,stop,400.0,350.0,3.0,,,,,,,,,orange,circle
0.0,8.0,4.0,1.0,5.0,5.0,342.7599089918658,3.0,1.0,phase_2,stop,400.0,300.0,3.0,,,,,,,,,gray,diamond
0.0,1.0,1.0,0.0,5.0,5.0,487.7370909671299,3.0,1.0,phase_2,go,350.0,300.0,1.0,,,,,,,,,yellow,square
0.0,8.0,4.0,1.0,5.0,0.0,0.0,3.0,1.0,phase_2,stop,350.0,300.0,4.0,,,,,,,,,gray,diamond
0.0,2.0,2.0,0.0,6.0,6.0,428.6935449927114,3.0,1.0,phase_2,go,400.0,300.0,1.0,,,,,,,,,blue,flipped triangle
0.0,3.0,3.0,0.0,5.0,5.0,437.5059619778767,3.0,1.0,phase_2,go,400.0,300.0,1.0,,,,,,,,,magenta,I
0.0,6.0,2.0,1.0,5.0,0.0,0.0,3.0,1.0,phase_2,stop,400.0,300.0,4.0,,,,,,,,,orange,circle
0.0,6.0,2.0,1.0,6.0,0.0,0.0,3.0,1.0,phase_2,stop,450.0,300.0,4.0,,,,,,,,,orange,circle
0.0,1.0,1.0,0.0,6.0,6.0,411.7656609741971,3.0,1.0,phase_2,go,450.0,350.0,1.0,,,,,,,,,yellow,square
0.0,8.0,4.0,1.0,6.0,6.0,644.4227120373398,4.0,1.0,phase_2,stop,450.0,350.0,3.0,,,,,,,,,gray,diamond
0.0,6.0,2.0,1.0,6.0,0.0,0.0,4.0,1.0,phase_2,stop,450.0,300.0,4.0,,,,,,,,,orange,circle
0.0,1.0,1.0,0.0,6.0,6.0,468.990909983404,4.0,1.0,phase_2,go,450.0,350.0,1.0,,,,,,,,,yellow,square
0.0,6.0,2.0,1.0,5.0,0.0,0.0,4.0,1.0,phase_2,stop,450.0,350.0,4.0,,,,,,,,,orange,circle
0.0,3.0,3.0,0.0,5.0,5.0,434.369551949203,4.0,1.0,phase_2,go,500.0,350.0,1.0,,,,,,,,,magenta,I
0.0,6.0,2.0,1.0,6.0,0.0,0.0,4.0,1.0,phase_2,stop,500.0,350.0,4.0,,,,,,,,,orange,circle
0.0,2.0,2.0,0.0,5.0,5.0,379.7694779932499,4.0,1.0,phase_2,go,500.0,400.0,1.0,,,,,,,,,blue,flipped triangle
0.0,2.0,2.0,0.0,5.0,5.0,387.5348399742506,4.0,1.0,phase_2,go,500.0,400.0,1.0,,,,,,,,,blue,flipped triangle
0.0,5.0,1.0,1.0,6.0,6.0,383.4664209862239,4.0,1.0,phase_2,stop,500.0,400.0,3.0,,,,,,,,,cyan,triangle
0.0,5.0,1.0,1.0,5.0,5.0,544.1855170065537,4.0,1.0,phase_2,stop,500.0,350.0,3.0,,,,,,,,,cyan,triangle
0.0,2.0,2.0,0.0,5.0,5.0,510.7626609969884,4.0,1.0,phase_2,go,450.0,350.0,1.0,,,,,,,,,blue,flipped triangle
0.0,5.0,1.0,1.0,6.0,0.0,0.0,4.0,1.0,phase_2,stop,450.0,350.0,4.0,,,,,,,,,cyan,triangle
0.0,1.0,1.0,0.0,6.0,6.0,445.8965339581482,4.0,1.0,phase_2,go,450.0,400.0,1.0,,,,,,,,,yellow,square
0.0,6.0,2.0,1.0,5.0,0.0,0.0,4.0,1.0,phase_2,stop,450.0,400.0,4.0,,,,,,,,,orange,circle
0.0,7.0,3.0,1.0,6.0,6.0,732.2341470280662,4.0,1.0,phase_2,go,500.0,400.0,1.0,,,,,,,,,white,cross
0.0,3.0,3.0,0.0,5.0,5.0,484.0884119621478,4.0,1.0,phase_2,go,500.0,400.0,1.0,,,,,,,,,magenta,I
0.0,3.0,3.0,0.0,5.0,5.0,387.2341319802217,4.0,1.0,phase_2,go,500.0,400.0,1.0,,,,,,,,,magenta,I
0.0,3.0,3.0,0.0,6.0,6.0,333.8509550085291,4.0,1.0,phase_2,go,500.0,400.0,1.0,,,,,,,,,magenta,I
0.0,7.0,3.0,1.0,5.0,5.0,625.9450259967707,4.0,1.0,phase_2,stop,500.0,400.0,3.0,,,,,,,,,white,cross
0.0,8.0,4.0,1.0,6.0,0.0,0.0,4.0,1.0,phase_2,stop,450.0,400.0,4.0,,,,,,,,,gray,diamond
0.0,2.0,2.0,0.0,5.0,5.0,714.6011529839598,4.0,1.0,phase_2,go,450.0,450.0,1.0,,,,,,,,,blue,flipped triangle
0.0,2.0,2.0,0.0,5.0,5.0,355.0887919845991,4.0,1.0,phase_2,go,450.0,450.0,1.0,,,,,,,,,blue,flipped triangle
0.0,4.0,4.0,0.0,6.0,6.0,415.3390860301442,4.0,1.0,phase_2,go,450.0,450.0,1.0,,,,,,,,,green,hexagon
0.0,1.0,1.0,0.0,5.0,5.0,338.182769017294,4.0,1.0,phase_2,go,450.0,450.0,1.0,,,,,,,,,yellow,square
0.0,6.0,2.0,1.0,6.0,0.0,0.0,4.0,1.0,phase_2,stop,450.0,450.0,4.0,,,,,,,,,orange,circle
0.0,8.0,4.0,1.0,5.0,0.0,0.0,4.0,1.0,phase_2,stop,450.0,500.0,4.0,,,,,,,,,gray,diamond
0.0,3.0,3.0,0.0,6.0,6.0,399.1444389685057,4.0,1.0,phase_2,go,500.0,500.0,1.0,,,,,,,,,magenta,I
0.0,4.0,4.0,0.0,6.0,6.0,444.9571049772203,4.0,1.0,phase_2,go,500.0,500.0,1.0,,,,,,,,,green,hexagon
0.0,1.0,1.0,0.0,6.0,6.0,477.0471139927394,4.0,1.0,phase_2,go,500.0,500.0,1.0,,,,,,,,,yellow,square
0.0,2.0,2.0,0.0,5.0,5.0,627.7029269840568,4.0,1.0,phase_2,go,500.0,500.0,1.0,,,,,,,,,blue,flipped triangle
0.0,7.0,3.0,1.0,5.0,5.0,605.2981929969974,4.0,1.0,phase_2,stop,500.0,500.0,3.0,,,,,,,,,white,cross
0.0,6.0,2.0,1.0,6.0,0.0,0.0,4.0,1.0,phase_2,stop,450.0,500.0,4.0,,,,,,,,,orange,circle
0.0,5.0,1.0,1.0,6.0,6.0,449.7348620207049,4.0,1.0,phase_2,stop,450.0,550.0,3.0,,,,,,,,,cyan,triangle
0.0,3.0,3.0,0.0,6.0,6.0,507.46922800317407,4.0,1.0,phase_2,go,450.0,500.0,1.0,,,,,,,,,magenta,I
0.0,3.0,3.0,0.0,6.0,6.0,418.1165819754824,4.0,1.0,phase_2,go,450.0,500.0,1.0,,,,,,,,,magenta,I
0.0,8.0,4.0,1.0,5.0,0.0,0.0,4.0,1.0,phase_2,stop,450.0,500.0,4.0,,,,,,,,,gray,diamond
0.0,6.0,2.0,1.0,5.0,5.0,579.902324010618,5.0,1.0,phase_2,go,500.0,500.0,1.0,,,,,,,,,orange,circle
0.0,7.0,3.0,1.0,5.0,5.0,570.1921799918637,5.0,1.0,phase_2,stop,500.0,500.0,3.0,,,,,,,,,white,cross
0.0,5.0,1.0,1.0,5.0,5.0,521.743105025962,5.0,1.0,phase_2,go,450.0,500.0,1.0,,,,,,,,,cyan,triangle
0.0,1.0,1.0,0.0,6.0,6.0,374.0892999921925,5.0,1.0,phase_2,go,450.0,500.0,1.0,,,,,,,,,yellow,square
0.0,7.0,3.0,1.0,5.0,0.0,0.0,5.0,1.0,phase_2,stop,450.0,500.0,4.0,,,,,,,,,white,cross
0.0,5.0,1.0,1.0,6.0,6.0,416.6016670060344,5.0,1.0,phase_2,stop,500.0,500.0,3.0,,,,,,,,,cyan,triangle
0.0,1.0,1.0,0.0,6.0,6.0,392.650643014349,5.0,1.0,phase_2,go,500.0,450.0,1.0,,,,,,,,,yellow,square
0.0,8.0,4.0,1.0,6.0,6.0,967.267470958177,5.0,1.0,phase_2,go,500.0,450.0,1.0,,,,,,,,,gray,diamond
0.0,6.0,2.0,1.0,5.0,5.0,883.7200119742192,5.0,1.0,phase_2,go,500.0,450.0,1.0,,,,,,,,,orange,circle
0.0,7.0,3.0,1.0,6.0,6.0,554.6838970039971,5.0,1.0,phase_2,go,500.0,450.0,1.0,,,,,,,,,white,cross
0.0,4.0,4.0,0.0,5.0,5.0,435.2450360311195,5.0,1.0,phase_2,go,500.0,450.0,1.0,,,,,,,,,green,hexagon
0.0,8.0,4.0,1.0,6.0,6.0,330.2220670157112,5.0,1.0,phase_2,go,500.0,450.0,1.0,,,,,,,,,gray,diamond
0.0,4.0,4.0,0.0,5.0,5.0,457.2216240339912,5.0,1.0,phase_2,go,500.0,450.0,1.0,,,,,,,,,green,hexagon
0.0,3.0,3.0,0.0,6.0,6.0,482.8007399919443,5.0,1.0,phase_2,go,500.0,450.0,1.0,,,,,,,,,magenta,I
0.0,7.0,3.0,1.0,5.0,5.0,289.3879860057495,5.0,1.0,phase_2,stop,500.0,450.0,3.0,,,,,,,,,white,cross
0.0,3.0,3.0,0.0,5.0,5.0,384.5289330347441,5.0,1.0,phase_2,go,450.0,450.0,1.0,,,,,,,,,magenta,I
0.0,2.0,2.0,0.0,6.0,6.0,297.7997029665857,5.0,1.0,phase_2,go,450.0,450.0,1.0,,,,,,,,,blue,flipped triangle
0.0,8.0,4.0,1.0,5.0,0.0,0.0,5.0,1.0,phase_2,stop,450.0,450.0,4.0,,,,,,,,,gray,diamond
0.0,6.0,2.0,1.0,6.0,6.0,310.8972019981593,5.0,1.0,phase_2,stop,500.0,450.0,3.0,,,,,,,,,orange,circle
0.0,3.0,3.0,0.0,5.0,5.0,376.8968749791384,5.0,1.0,phase_2,go,500.0,400.0,1.0,,,,,,,,,magenta,I
0.0,8.0,4.0,1.0,6.0,6.0,422.0747679937631,5.0,1.0,phase_2,stop,500.0,400.0,3.0,,,,,,,,,gray,diamond
0.0,8.0,4.0,1.0,6.0,6.0,886.3793030031957,5.0,1.0,phase_2,go,500.0,350.0,1.0,,,,,,,,,gray,diamond
0.0,4.0,4.0,0.0,6.0,6.0,399.8154039727524,5.0,1.0,phase_2,go,500.0,350.0,1.0,,,,,,,,,green,hexagon
0.0,1.0,1.0,0.0,6.0,6.0,455.5107550113462,5.0,1.0,phase_2,go,500.0,350.0,1.0,,,,,,,,,yellow,square
0.0,6.0,2.0,1.0,5.0,5.0,715.636414999608,5.0,1.0,phase_2,go,500.0,350.0,1.0,,,,,,,,,orange,circle
0.0,6.0,2.0,1.0,5.0,5.0,354.7291970462538,5.0,1.0,phase_2,stop,500.0,350.0,3.0,,,,,,,,,orange,circle
0.0,7.0,3.0,1.0,6.0,0.0,0.0,5.0,1.0,phase_2,stop,450.0,350.0,4.0,,,,,,,,,white,cross
0.0,4.0,4.0,0.0,6.0,6.0,467.0588989974931,5.0,1.0,phase_2,go,450.0,400.0,1.0,,,,,,,,,green,hexagon
0.0,3.0,3.0,0.0,6.0,6.0,440.6816600239835,5.0,1.0,phase_2,go,450.0,400.0,1.0,,,,,,,,,magenta,I
0.0,3.0,3.0,0.0,5.0,5.0,396.0177659755572,5.0,1.0,phase_2,go,450.0,400.0,1.0,,,,,,,,,magenta,I
0.0,8.0,4.0,1.0,5.0,0.0,0.0,5.0,1.0,phase_2,stop,450.0,400.0,4.0,,,,,,,,,gray,diamond
0.0,3.0,3.0,0.0,5.0,5.0,362.2498420299962,5.0,1.0,phase_2,go,500.0,400.0,1.0,,,,,,,,,magenta,I
0.0,2.0,2.0,0.0,6.0,6.0,321.7654550098814,5.0,1.0,phase_2,go,500.0,400.0,1.0,,,,,,,,,blue,flipped triangle
0.0,5.0,1.0,1.0,5.0,5.0,498.0288880178705,5.0,1.0,phase_2,go,500.0,400.0,1.0,,,,,,,,,cyan,triangle
0.0,5.0,1.0,1.0,6.0,6.0,831.8102969788015,5.0,1.0,phase_2,go,500.0,400.0,1.0,,,,,,,,,cyan,triangle
0.0,2.0,2.0,0.0,6.0,6.0,480.7433040114119,5.0,1.0,phase_2,go,500.0,400.0,1.0,,,,,,,,,blue,flipped triangle
0.0,8.0,4.0,1.0,6.0,6.0,333.0006119795143,6.0,1.0,phase_2,go,500.0,400.0,1.0,,,,,,,,,gray,diamond
0.0,5.0,1.0,1.0,5.0,5.0,431.2638169503771,6.0,1.0,phase_2,stop,500.0,400.0,3.0,,,,,,,,,cyan,triangle
0.0,4.0,4.0,0.0,5.0,5.0,411.3842569640837,6.0,1.0,phase_2,go,450.0,400.0,1.0,,,,,,,,,green,hexagon
0.0,1.0,1.0,0.0,5.0,5.0,315.1660140138119,6.0,1.0,phase_2,go,450.0,400.0,1.0,,,,,,,,,yellow,square
0.0,1.0,1.0,0.0,5.0,5.0,349.5730510330759,6.0,1.0,phase_2,go,450.0,400.0,1.0,,,,,,,,,yellow,square
0.0,5.0,1.0,1.0,5.0,5.0,299.8965580482036,6.0,1.0,phase_2,stop,450.0,400.0,3.0,,,,,,,,,cyan,triangle
0.0,3.0,3.0,0.0,6.0,6.0,483.8603939861059,6.0,1.0,phase_2,go,400.0,400.0,1.0,,,,,,,,,magenta,I
0.0,6.0,2.0,1.0,5.0,0.0,0.0,6.0,1.0,phase_2,stop,400.0,400.0,4.0,,,,,,,,,orange,circle
0.0,1.0,1.0,0.0,5.0,5.0,410.5782099650241,6.0,1.0,phase_2,go,450.0,400.0,1.0,,,,,,,,,yellow,square
0.0,3.0,3.0,0.0,6.0,6.0,330.9518169844523,6.0,1.0,phase_2,go,450.0,400.0,1.0,,,,,,,,,magenta,I
0.0,6.0,2.0,1.0,6.0,6.0,369.8129439726472,6.0,1.0,phase_2,stop,450.0,400.0,3.0,,,,,,,,,orange,circle
0.0,8.0,4.0,1.0,5.0,5.0,384.5221580122597,6.0,1.0,phase_2,stop,450.0,350.0,3.0,,,,,,,,,gray,diamond
0.0,7.0,3.0,1.0,5.0,5.0,837.5528859905899,6.0,1.0,phase_2,go,400.0,350.0,1.0,,,,,,,,,white,cross
0.0,8.0,4.0,1.0,5.0,0.0,0.0,6.0,1.0,phase_2,stop,400.0,350.0,4.0,,,,,,,,,gray,diamond
0.0,2.0,2.0,0.0,5.0,5.0,464.896519028116,6.0,1.0,phase_2,go,450.0,350.0,1.0,,,,,,,,,blue,flipped triangle
0.0,5.0,1.0,1.0,5.0,5.0,499.7493110131472,6.0,1.0,phase_2,stop,450.0,350.0,3.0,,,,,,,,,cyan,triangle
0.0,7.0,3.0,1.0,6.0,6.0,711.4778060349636,6.0,1.0,phase_2,go,400.0,350.0,1.0,,,,,,,,,white,cross
0.0,5.0,1.0,1.0,6.0,0.0,0.0,6.0,1.0,phase_2,stop,400.0,350.0,4.0,,,,,,,,,cyan,triangle
0.0,4.0,4.0,0.0,5.0,5.0,380.339749972336,6.0,1.0,phase_2,go,400.0,400.0,1.0,,,,,,,,,green,hexagon
0.0,7.0,3.0,1.0,5.0,0.0,0.0,6.0,1.0,phase_2,stop,400.0,400.0,4.0,,,,,,,,,white,cross
0.0,4.0,4.0,0.0,6.0,6.0,418.804690008983,6.0,1.0,phase_2,go,450.0,400.0,1.0,,,,,,,,,green,hexagon
0.0,4.0,4.0,0.0,6.0,6.0,363.2856050389819,6.0,1.0,phase_2,go,450.0,400.0,1.0,,,,,,,,,green,hexagon
0.0,6.0,2.0,1.0,6.0,0.0,0.0,6.0,1.0,phase_2,stop,450.0,400.0,4.0,,,,,,,,,orange,circle
0.0,1.0,1.0,0.0,6.0,6.0,344.4692600169219,6.0,1.0,phase_2,go,450.0,450.0,1.0,,,,,,,,,yellow,square
0.0,8.0,4.0,1.0,5.0,0.0,0.0,6.0,1.0,phase_2,stop,450.0,450.0,4.0,,,,,,,,,gray,diamond
0.0,6.0,2.0,1.0,5.0,0.0,0.0,6.0,1.0,phase_2,stop,500.0,450.0,4.0,,,,,,,,,orange,circle
0.0,7.0,3.0,1.0,5.0,0.0,0.0,6.0,1.0,phase_2,stop,550.0,450.0,4.0,,,,,,,,,white,cross
0.0,1.0,1.0,0.0,6.0,6.0,336.343782953918,6.0,1.0,phase_2,go,600.0,450.0,1.0,,,,,,,,,yellow,square
0.0,5.0,1.0,1.0,6.0,6.0,533.7968560052104,6.0,1.0,phase_2,stop,600.0,450.0,3.0,,,,,,,,,cyan,triangle
0.0,4.0,4.0,0.0,6.0,6.0,364.8894000216387,6.0,1.0,phase_2,go,600.0,400.0,1.0,,,,,,,,,green,hexagon
0.0,2.0,2.0,0.0,5.0,5.0,509.60444897646084,6.0,1.0,phase_2,go,600.0,400.0,1.0,,,,,,,,,blue,flipped triangle
0.0,8.0,4.0,1.0,6.0,6.0,902.7771319961176,6.0,1.0,phase_2,go,600.0,400.0,1.0,,,,,,,,,gray,diamond
0.0,6.0,2.0,1.0,6.0,6.0,852.8528779861517,6.0,1.0,phase_2,go,600.0,400.0,1.0,,,,,,,,,orange,circle
0.0,8.0,4.0,1.0,6.0,0.0,0.0,6.0,1.0,phase_2,stop,600.0,400.0,4.0,,,,,,,,,gray,diamond
0.0,2.0,2.0,0.0,6.0,6.0,477.9436030075885,6.0,1.0,phase_2,go,600.0,450.0,1.0,,,,,,,,,blue,flipped triangle
0.0,4.0,4.0,0.0,5.0,5.0,396.1603339994326,6.0,1.0,phase_2,go,600.0,450.0,1.0,,,,,,,,,green,hexagon
0.0,4.0,4.0,0.0,5.0,5.0,437.2849679784849,7.0,1.0,phase_2,go,600.0,450.0,1.0,,,,,,,,,green,hexagon
0.0,5.0,1.0,1.0,6.0,6.0,347.7759609813802,7.0,1.0,phase_2,go,600.0,450.0,1.0,,,,,,,,,cyan,triangle
0.0,6.0,2.0,1.0,5.0,5.0,595.8897499949671,7.0,1.0,phase_2,go,600.0,450.0,1.0,,,,,,,,,orange,circle
0.0,7.0,3.0,1.0,6.0,6.0,570.5588280106895,7.0,1.0,phase_2,stop,600.0,450.0,3.0,,,,,,,,,white,cross
0.0,7.0,3.0,1.0,5.0,5.0,656.8959700525738,7.0,1.0,phase_2,stop,600.0,400.0,3.0,,,,,,,,,white,cross
0.0,3.0,3.0,0.0,5.0,5.0,440.4042100068182,7.0,1.0,phase_2,go,550.0,400.0,1.0,,,,,,,,,magenta,I
0.0,7.0,3.0,1.0,6.0,0.0,0.0,7.0,1.0,phase_2,stop,550.0,400.0,4.0,,,,,,,,,white,cross
0.0,2.0,2.0,0.0,6.0,6.0,437.454343016725,7.0,1.0,phase_2,go,550.0,450.0,1.0,,,,,,,,,blue,flipped triangle
0.0,7.0,3.0,1.0,6.0,6.0,720.6678729853593,7.0,1.0,phase_2,go,550.0,450.0,1.0,,,,,,,,,white,cross
0.0,4.0,4.0,0.0,5.0,5.0,396.9139329856261,7.0,1.0,phase_2,go,550.0,450.0,1.0,,,,,,,,,green,hexagon
0.0,3.0,3.0,0.0,5.0,5.0,364.2418149975128,7.0,1.0,phase_2,go,550.0,450.0,1.0,,,,,,,,,magenta,I
0.0,4.0,4.0,0.0,6.0,6.0,326.6968030366115,7.0,1.0,phase_2,go,550.0,450.0,1.0,,,,,,,,,green,hexagon
0.0,4.0,4.0,0.0,6.0,6.0,322.6118479506112,7.0,1.0,phase_2,go,550.0,450.0,1.0,,,,,,,,,green,hexagon
0.0,6.0,2.0,1.0,6.0,0.0,0.0,7.0,1.0,phase_2,stop,550.0,450.0,4.0,,,,,,,,,orange,circle
0.0,1.0,1.0,0.0,5.0,5.0,397.4088309914805,7.0,1.0,phase_2,go,550.0,500.0,1.0,,,,,,,,,yellow,square
0.0,1.0,1.0,0.0,5.0,5.0,354.7860989929177,7.0,1.0,phase_2,go,550.0,500.0,1.0,,,,,,,,,yellow,square
0.0,1.0,1.0,0.0,6.0,6.0,338.5360930114984,7.0,1.0,phase_2,go,550.0,500.0,1.0,,,,,,,,,yellow,square
0.0,6.0,2.0,1.0,5.0,5.0,914.9075130117126,7.0,1.0,phase_2,go,550.0,500.0,1.0,,,,,,,,,orange,circle
0.0,1.0,1.0,0.0,5.0,5.0,489.2697129980661,7.0,1.0,phase_2,go,550.0,500.0,1.0,,,,,,,,,yellow,square
0.0,8.0,4.0,1.0,5.0,0.0,0.0,7.0,1.0,phase_2,stop,550.0,500.0,4.0,,,,,,,,,gray,diamond
0.0,7.0,3.0,1.0,5.0,5.0,590.8899580244906,7.0,1.0,phase_2,stop,600.0,500.0,3.0,,,,,,,,,white,cross
0.0,7.0,3.0,1.0,5.0,5.0,727.7331280056387,7.0,1.0,phase_2,go,550.0,500.0,1.0,,,,,,,,,white,cross
0.0,1.0,1.0,0.0,5.0,5.0,375.4454280133359,7.0,1.0,phase_2,go,550.0,500.0,1.0,,,,,,,,,yellow,square
0.0,2.0,2.0,0.0,6.0,6.0,503.35860397899523,7.0,1.0,phase_2,go,550.0,500.0,1.0,,,,,,,,,blue,flipped triangle
0.0,5.0,1.0,1.0,5.0,5.0,463.2067040074616,7.0,1.0,phase_2,stop,550.0,500.0,3.0,,,,,,,,,cyan,triangle
0.0,7.0,3.0,1.0,5.0,0.0,0.0,7.0,1.0,phase_2,stop,500.0,500.0,4.0,,,,,,,,,white,cross
0.0,7.0,3.0,1.0,5.0,0.0,0.0,7.0,1.0,phase_2,stop,550.0,500.0,4.0,,,,,,,,,white,cross
0.0,5.0,1.0,1.0,6.0,6.0,420.5382210202515,7.0,1.0,phase_2,go,600.0,500.0,1.0,,,,,,,,,cyan,triangle
0.0,3.0,3.0,0.0,6.0,6.0,410.0503980298526,7.0,1.0,phase_2,go,600.0,500.0,1.0,,,,,,,,,magenta,I
0.0,2.0,2.0,0.0,5.0,5.0,513.384383986704,7.0,1.0,phase_2,go,600.0,500.0,1.0,,,,,,,,,blue,flipped triangle
0.0,1.0,1.0,0.0,5.0,5.0,475.2784720039926,7.0,1.0,phase_2,go,600.0,500.0,1.0,,,,,,,,,yellow,square
0.0,5.0,1.0,1.0,5.0,5.0,443.2740350021049,7.0,1.0,phase_2,stop,600.0,500.0,3.0,,,,,,,,,cyan,triangle
0.0,1.0,1.0,0.0,6.0,6.0,375.5487879971042,7.0,1.0,phase_2,go,550.0,500.0,1.0,,,,,,,,,yellow,square
0.0,5.0,1.0,1.0,5.0,5.0,467.2814490040764,7.0,1.0,phase_2,stop,550.0,500.0,3.0,,,,,,,,,cyan,triangle
0.0,4.0,4.0,0.0,6.0,6.0,430.5710699991323,7.0,1.0,phase_2,go,500.0,500.0,1.0,,,,,,,,,green,hexagon
0.0,8.0,4.0,1.0,6.0,6.0,393.028090998996,7.0,1.0,phase_2,go,500.0,500.0,1.0,,,,,,,,,gray,diamond
0.0,4.0,4.0,0.0,6.0,6.0,405.2404889953322,8.0,1.0,phase_2,go,500.0,500.0,1.0,,,,,,,,,green,hexagon
0.0,5.0,1.0,1.0,5.0,5.0,270.0660189730115,8.0,1.0,phase_2,stop,500.0,500.0,3.0,,,,,,,,,cyan,triangle
0.0,2.0,2.0,0.0,6.0,6.0,310.5911979801021,8.0,1.0,phase_2,go,450.0,500.0,1.0,,,,,,,,,blue,flipped triangle
0.0,3.0,3.0,0.0,5.0,5.0,326.6107760136947,8.0,1.0,phase_2,go,450.0,500.0,1.0,,,,,,,,,magenta,I
0.0,2.0,2.0,0.0,6.0,6.0,276.4338430133648,8.0,1.0,phase_2,go,450.0,500.0,1.0,,,,,,,,,blue,flipped triangle
0.0,4.0,4.0,0.0,5.0,5.0,306.9444500142708,8.0,1.0,phase_2,go,450.0,500.0,1.0,,,,,,,,,green,hexagon
0.0,3.0,3.0,0.0,6.0,6.0,341.7495649773627,8.0,1.0,phase_2,go,450.0,500.0,1.0,,,,,,,,,magenta,I
0.0,6.0,2.0,1.0,6.0,6.0,330.9101990307681,8.0,1.0,phase_2,stop,450.0,500.0,3.0,,,,,,,,,orange,circle
0.0,7.0,3.0,1.0,5.0,0.0,0.0,8.0,1.0,phase_2,stop,450.0,450.0,4.0,,,,,,,,,white,cross
0.0,8.0,4.0,1.0,6.0,6.0,644.3357890238985,8.0,1.0,phase_2,stop,500.0,450.0,3.0,,,,,,,,,gray,diamond
0.0,3.0,3.0,0.0,5.0,5.0,498.50457801949227,8.0,1.0,phase_2,go,500.0,400.0,1.0,,,,,,,,,magenta,I
0.0,2.0,2.0,0.0,5.0,5.0,410.0973919848911,8.0,1.0,phase_2,go,500.0,400.0,1.0,,,,,,,,,blue,flipped triangle
0.0,7.0,3.0,1.0,6.0,0.0,0.0,8.0,1.0,phase_2,stop,500.0,400.0,4.0,,,,,,,,,white,cross
0.0,5.0,1.0,1.0,6.0,6.0,480.6060140253976,8.0,1.0,phase_2,stop,500.0,450.0,3.0,,,,,,,,,cyan,triangle
0.0,7.0,3.0,1.0,5.0,0.0,0.0,8.0,1.0,phase_2,stop,500.0,400.0,4.0,,,,,,,,,white,cross
0.0,2.0,2.0,0.0,6.0,6.0,817.5642869900912,8.0,1.0,phase_2,go,550.0,400.0,1.0,,,,,,,,,blue,flipped triangle
0.0,1.0,1.0,0.0,5.0,5.0,326.5863620326854,8.0,1.0,phase_2,go,550.0,400.0,1.0,,,,,,,,,yellow,square
0.0,1.0,1.0,0.0,5.0,5.0,396.6345430235378,8.0,1.0,phase_2,go,550.0,400.0,1.0,,,,,,,,,yellow,square
0.0,5.0,1.0,1.0,6.0,6.0,476.7800550325773,8.0,1.0,phase_2,stop,550.0,400.0,3.0,,,,,,,,,cyan,triangle
0.0,7.0,3.0,1.0,6.0,6.0,828.1767889857292,8.0,1.0,phase_2,go,550.0,350.0,1.0,,,,,,,,,white,cross
0.0,8.0,4.0,1.0,5.0,5.0,869.2887949873693,8.0,1.0,phase_2,go,550.0,350.0,1.0,,,,,,,,,gray,diamond
0.0,2.0,2.0,0.0,5.0,5.0,493.0148849962279,8.0,1.0,phase_2,go,550.0,350.0,1.0,,,,,,,,,blue,flipped triangle
0.0,6.0,2.0,1.0,5.0,0.0,0.0,8.0,1.0,phase_2,stop,550.0,350.0,4.0,,,,,,,,,orange,circle
0.0,3.0,3.0,0.0,6.0,6.0,498.9674210082739,8.0,1.0,phase_2,go,600.0,350.0,1.0,,,,,,,,,magenta,I
0.0,1.0,1.0,0.0,5.0,5.0,600.9974780026823,8.0,1.0,phase_2,go,600.0,350.0,1.0,,,,,,,,,yellow,square
0.0,6.0,2.0,1.0,6.0,6.0,373.6732269753702,8.0,1.0,phase_2,stop,600.0,350.0,3.0,,,,,,,,,orange,circle
0.0,5.0,1.0,1.0,6.0,0.0,0.0,8.0,1.0,phase_2,stop,600.0,300.0,4.0,,,,,,,,,cyan,triangle
0.0,3.0,3.0,0.0,5.0,5.0,368.3629109873436,8.0,1.0,phase_2,go,600.0,350.0,1.0,,,,,,,,,magenta,I
0.0,7.0,3.0,1.0,5.0,5.0,777.3497750167735,8.0,1.0,phase_2,go,600.0,350.0,1.0,,,,,,,,,white,cross
0.0,3.0,3.0,0.0,6.0,6.0,446.4184450334869,8.0,1.0,phase_2,go,600.0,350.0,1.0,,,,,,,,,magenta,I
0.0,7.0,3.0,1.0,6.0,6.0,327.0659339614212,8.0,1.0,phase_2,stop,600.0,350.0,3.0,,,,,,,,,white,cross
0.0,5.0,1.0,1.0,5.0,5.0,463.9887689845636,8.0,1.0,phase_2,stop,600.0,300.0,3.0,,,,,,,,,cyan,triangle
0.0,2.0,2.0,0.0,5.0,5.0,572.5126619799994,8.0,1.0,phase_2,go,550.0,300.0,1.0,,,,,,,,,blue,flipped triangle
0.0,6.0,2.0,1.0,5.0,0.0,0.0,8.0,1.0,phase_2,stop,550.0,300.0,4.0,,,,,,,,,orange,circle
0.0,2.0,2.0,0.0,5.0,5.0,533.6612760438584,8.0,1.0,phase_2,go,600.0,300.0,1.0,,,,,,,,,blue,flipped triangle
0.0,1.0,1.0,0.0,5.0,5.0,426.4706330141052,8.0,1.0,phase_2,go,600.0,300.0,1.0,,,,,,,,,yellow,square
0.0,7.0,3.0,1.0,7.0,4.0,4143.563404970337,1.0,1.0,phase_3,,,,,270.0,5.0,108.0,162.0,216.0,270.0,324.0,54.0,white,cross
0.0,6.0,2.0,1.0,7.0,1.0,2976.4047950156964,1.0,1.0,phase_3,,,,,54.0,1.0,54.0,270.0,108.0,324.0,162.0,216.0,orange,circle
0.0,7.0,3.0,1.0,7.0,5.0,2443.9086740021594,1.0,1.0,phase_3,,,,,195.0,5.0,39.0,156.0,117.0,78.0,195.0,234.0,white,cross
0.0,6.0,2.0,1.0,7.0,1.0,4389.233361987863,1.0,1.0,phase_3,,,,,39.0,1.0,39.0,156.0,117.0,78.0,195.0,234.0,orange,circle
0.0,8.0,4.0,1.0,7.0,5.0,3665.7936090487055,1.0,1.0,phase_3,,,,,204.0,6.0,102.0,34.0,68.0,170.0,204.0,136.0,gray,diamond
0.0,3.0,3.0,0.0,7.0,3.0,4349.709412024822,1.0,1.0,phase_3,,,,,132.0,3.0,176.0,88.0,132.0,44.0,220.0,264.0,magenta,I
0.0,5.0,1.0,1.0,7.0,1.0,2405.5826910189357,1.0,1.0,phase_3,,,,,78.0,2.0,78.0,234.0,156.0,195.0,39.0,117.0,cyan,triangle
0.0,2.0,2.0,0.0,7.0,1.0,2581.128695048392,1.0,1.0,phase_3,,,,,117.0,3.0,117.0,195.0,39.0,156.0,234.0,78.0,blue,flipped triangle
0.0,2.0,2.0,0.0,7.0,3.0,3936.751673987601,1.0,1.0,phase_3,,,,,264.0,6.0,220.0,44.0,264.0,176.0,132.0,88.0,blue,flipped triangle
0.0,8.0,4.0,1.0,7.0,2.0,1368.9139030175284,1.0,2.0,phase_3,,,,,234.0,6.0,39.0,234.0,117.0,156.0,195.0,78.0,gray,diamond
0.0,2.0,2.0,0.0,7.0,6.0,2834.389000025112,1.0,1.0,phase_3,,,,,216.0,4.0,324.0,162.0,108.0,270.0,54.0,216.0,blue,flipped triangle
0.0,8.0,4.0,1.0,7.0,2.0,2275.1007989863865,1.0,1.0,phase_3,,,,,324.0,6.0,270.0,324.0,162.0,54.0,108.0,216.0,gray,diamond
0.0,1.0,1.0,0.0,7.0,5.0,3652.60114899138,1.0,1.0,phase_3,,,,,204.0,6.0,136.0,68.0,34.0,102.0,204.0,170.0,yellow,square
0.0,8.0,4.0,1.0,7.0,3.0,1617.934016045183,1.0,1.0,phase_3,,,,,294.0,6.0,147.0,196.0,294.0,49.0,245.0,98.0,gray,diamond
0.0,4.0,4.0,0.0,7.0,5.0,2192.317512992304,1.0,1.0,phase_3,,,,,220.0,5.0,44.0,176.0,264.0,88.0,220.0,132.0,green,hexagon
0.0,5.0,1.0,1.0,7.0,3.0,3698.595195019152,1.0,1.0,phase_3,,,,,204.0,6.0,170.0,34.0,204.0,102.0,68.0,136.0,cyan,triangle
0.0,2.0,2.0,0.0,7.0,2.0,1764.111994008999,1.0,1.0,phase_3,,,,,88.0,2.0,176.0,88.0,220.0,132.0,264.0,44.0,blue,flipped triangle
0.0,8.0,4.0,1.0,7.0,1.0,2236.4876359933987,1.0,1.0,phase_3,,,,,88.0,2.0,88.0,176.0,264.0,220.0,44.0,132.0,gray,diamond
0.0,6.0,2.0,1.0,7.0,3.0,1861.8138270103373,1.0,1.0,phase_3,,,,,132.0,3.0,220.0,264.0,132.0,44.0,88.0,176.0,orange,circle
0.0,7.0,3.0,1.0,7.0,3.0,2746.11188902054,1.0,1.0,phase_3,,,,,195.0,5.0,39.0,156.0,195.0,117.0,78.0,234.0,white,cross
0.0,4.0,4.0,0.0,7.0,1.0,3435.558950004633,2.0,1.0,phase_3,,,,,147.0,3.0,147.0,49.0,294.0,196.0,98.0,245.0,green,hexagon
0.0,7.0,3.0,1.0,7.0,5.0,1418.903757003136,2.0,1.0,phase_3,,,,,136.0,4.0,34.0,68.0,170.0,204.0,136.0,102.0,white,cross
0.0,6.0,2.0,1.0,7.0,6.0,2515.4042359790765,2.0,1.0,phase_3,,,,,54.0,1.0,324.0,216.0,108.0,162.0,270.0,54.0,orange,circle
0.0,6.0,2.0,1.0,7.0,5.0,2355.9306690003723,2.0,1.0,phase_3,,,,,196.0,4.0,98.0,245.0,294.0,49.0,196.0,147.0,orange,circle
0.0,5.0,1.0,1.0,7.0,2.0,1884.8039120202884,2.0,1.0,phase_3,,,,,117.0,3.0,234.0,117.0,39.0,78.0,156.0,195.0,cyan,triangle
0.0,1.0,1.0,0.0,7.0,5.0,2095.264589006547,2.0,1.0,phase_3,,,,,324.0,6.0,216.0,270.0,54.0,162.0,324.0,108.0,yellow,square
0.0,3.0,3.0,0.0,7.0,3.0,3960.535385995172,2.0,1.0,phase_3,,,,,245.0,5.0,49.0,98.0,245.0,294.0,196.0,147.0,magenta,I
0.0,1.0,1.0,0.0,7.0,5.0,1641.1444499972276,2.0,1.0,phase_3,,,,,78.0,2.0,39.0,195.0,156.0,117.0,78.0,234.0,yellow,square
0.0,6.0,2.0,1.0,7.0,3.0,2289.9483569781296,2.0,1.0,phase_3,,,,,170.0,5.0,68.0,204.0,170.0,136.0,34.0,102.0,orange,circle
0.0,7.0,3.0,1.0,7.0,4.0,2389.740794023965,2.0,1.0,phase_3,,,,,102.0,3.0,68.0,170.0,204.0,102.0,34.0,136.0,white,cross
0.0,7.0,3.0,1.0,7.0,6.0,2767.6687530474737,2.0,1.0,phase_3,,,,,132.0,3.0,176.0,220.0,88.0,44.0,264.0,132.0,white,cross
0.0,2.0,2.0,0.0,7.0,3.0,2358.480747032445,2.0,1.0,phase_3,,,,,294.0,6.0,147.0,245.0,294.0,49.0,98.0,196.0,blue,flipped triangle
0.0,4.0,4.0,0.0,7.0,4.0,1947.1108399447985,2.0,1.0,phase_3,,,,,294.0,6.0,196.0,49.0,245.0,294.0,98.0,147.0,green,hexagon
0.0,1.0,1.0,0.0,7.0,2.0,2008.6045709904283,2.0,1.0,phase_3,,,,,170.0,5.0,136.0,170.0,204.0,102.0,68.0,34.0,yellow,square
0.0,4.0,4.0,0.0,7.0,5.0,2891.302187985275,2.0,1.0,phase_3,,,,,44.0,1.0,264.0,88.0,132.0,176.0,44.0,220.0,green,hexagon
0.0,8.0,4.0,1.0,7.0,5.0,1572.4848210229538,2.0,1.0,phase_3,,,,,102.0,3.0,170.0,136.0,68.0,34.0,102.0,204.0,gray,diamond
0.0,7.0,3.0,1.0,7.0,3.0,2502.884738962166,2.0,1.0,phase_3,,,,,196.0,4.0,147.0,294.0,196.0,49.0,98.0,245.0,white,cross
0.0,3.0,3.0,0.0,7.0,1.0,2406.2861150014214,2.0,1.0,phase_3,,,,,294.0,6.0,294.0,196.0,49.0,98.0,147.0,245.0,magenta,I
0.0,8.0,4.0,1.0,7.0,2.0,1615.5935249989852,2.0,1.0,phase_3,,,,,176.0,4.0,220.0,176.0,44.0,264.0,132.0,88.0,gray,diamond
0.0,5.0,1.0,1.0,7.0,4.0,1944.743424013723,2.0,1.0,phase_3,,,,,68.0,2.0,204.0,170.0,136.0,68.0,34.0,102.0,cyan,triangle
0.0,1.0,1.0,0.0,7.0,4.0,2699.955363990739,3.0,1.0,phase_3,,,,,234.0,6.0,156.0,195.0,78.0,234.0,39.0,117.0,yellow,square
0.0,3.0,3.0,0.0,7.0,5.0,2223.702013958245,3.0,1.0,phase_3,,,,,170.0,5.0,136.0,204.0,102.0,68.0,170.0,34.0,magenta,I
0.0,3.0,3.0,0.0,7.0,3.0,1865.7028099987656,3.0,1.0,phase_3,,,,,324.0,6.0,54.0,216.0,324.0,270.0,162.0,108.0,magenta,I
0.0,8.0,4.0,1.0,7.0,1.0,2010.2673399960622,3.0,1.0,phase_3,,,,,98.0,2.0,98.0,196.0,147.0,294.0,49.0,245.0,gray,diamond
0.0,3.0,3.0,0.0,7.0,2.0,3290.0950699695386,3.0,1.0,phase_3,,,,,270.0,5.0,324.0,270.0,54.0,216.0,108.0,162.0,magenta,I
0.0,3.0,3.0,0.0,7.0,4.0,3661.520160967484,3.0,1.0,phase_3,,,,,132.0,3.0,44.0,220.0,88.0,132.0,176.0,264.0,magenta,I
0.0,4.0,4.0,0.0,7.0,3.0,2862.375733035151,3.0,1.0,phase_3,,,,,324.0,6.0,108.0,54.0,324.0,162.0,216.0,270.0,green,hexagon
0.0,7.0,3.0,1.0,7.0,1.0,2904.4536279980093,3.0,1.0,phase_3,,,,,245.0,5.0,245.0,294.0,196.0,49.0,147.0,98.0,white,cross
0.0,7.0,3.0,1.0,7.0,6.0,1910.7092980411835,3.0,1.0,phase_3,,,,,216.0,4.0,162.0,54.0,108.0,324.0,270.0,216.0,white,cross
0.0,1.0,1.0,0.0,7.0,3.0,2377.541203051805,3.0,1.0,phase_3,,,,,147.0,3.0,49.0,98.0,147.0,245.0,294.0,196.0,yellow,square
0.0,5.0,1.0,1.0,7.0,3.0,1777.3549179546535,3.0,1.0,phase_3,,,,,162.0,3.0,54.0,216.0,162.0,270.0,108.0,324.0,cyan,triangle
0.0,4.0,4.0,0.0,7.0,5.0,1250.5532799987122,3.0,1.0,phase_3,,,,,108.0,2.0,54.0,216.0,324.0,270.0,108.0,162.0,green,hexagon
0.0,1.0,1.0,0.0,7.0,2.0,2843.7346610007808,3.0,1.0,phase_3,,,,,132.0,3.0,220.0,132.0,176.0,88.0,44.0,264.0,yellow,square
0.0,3.0,3.0,0.0,7.0,4.0,2612.9104429855943,3.0,1.0,phase_3,,,,,234.0,6.0,117.0,39.0,156.0,234.0,78.0,195.0,magenta,I
0.0,2.0,2.0,0.0,7.0,2.0,2520.2148260432296,3.0,1.0,phase_3,,,,,102.0,3.0,34.0,102.0,136.0,204.0,170.0,68.0,blue,flipped triangle
0.0,2.0,2.0,0.0,7.0,6.0,1455.5386390420608,3.0,1.0,phase_3,,,,,108.0,2.0,216.0,270.0,324.0,162.0,54.0,108.0,blue,flipped triangle
0.0,2.0,2.0,0.0,7.0,3.0,3305.8004080085084,3.0,1.0,phase_3,,,,,49.0,1.0,245.0,196.0,49.0,294.0,147.0,98.0,blue,flipped triangle
0.0,5.0,1.0,1.0,7.0,4.0,1557.9401639988646,3.0,1.0,phase_3,,,,,98.0,2.0,147.0,245.0,196.0,98.0,294.0,49.0,cyan,triangle
0.0,5.0,1.0,1.0,7.0,5.0,1899.7524279984648,3.0,1.0,phase_3,,,,,98.0,2.0,245.0,294.0,196.0,147.0,98.0,49.0,cyan,triangle
0.0,2.0,2.0,0.0,7.0,2.0,2279.3220059829764,3.0,1.0,phase_3,,,,,170.0,5.0,68.0,170.0,34.0,136.0,204.0,102.0,blue,flipped triangle
0.0,8.0,4.0,1.0,7.0,4.0,2279.5227299793623,4.0,1.0,phase_3,,,,,195.0,5.0,39.0,78.0,117.0,195.0,234.0,156.0,gray,diamond
0.0,6.0,2.0,1.0,7.0,3.0,1921.5964039904063,4.0,1.0,phase_3,,,,,34.0,1.0,170.0,204.0,34.0,68.0,136.0,102.0,orange,circle
0.0,2.0,2.0,0.0,7.0,2.0,2407.6197269605477,4.0,1.0,phase_3,,,,,39.0,1.0,78.0,39.0,156.0,195.0,234.0,117.0,blue,flipped triangle
0.0,5.0,1.0,1.0,7.0,4.0,1889.9140189751047,4.0,1.0,phase_3,,,,,176.0,4.0,88.0,44.0,220.0,176.0,264.0,132.0,cyan,triangle
0.0,4.0,4.0,0.0,7.0,5.0,2963.1488419836387,4.0,1.0,phase_3,,,,,234.0,6.0,78.0,39.0,156.0,195.0,234.0,117.0,green,hexagon
0.0,5.0,1.0,1.0,7.0,4.0,2047.0995749928989,4.0,1.0,phase_3,,,,,88.0,2.0,176.0,44.0,264.0,88.0,132.0,220.0,cyan,triangle
0.0,7.0,3.0,1.0,7.0,4.0,2557.323376007844,4.0,1.0,phase_3,,,,,264.0,6.0,220.0,44.0,88.0,264.0,176.0,132.0,white,cross
0.0,6.0,2.0,1.0,7.0,3.0,1791.684195981361,4.0,1.0,phase_3,,,,,195.0,5.0,39.0,156.0,195.0,117.0,78.0,234.0,orange,circle
0.0,1.0,1.0,0.0,7.0,3.0,2530.1728129852563,4.0,1.0,phase_3,,,,,54.0,1.0,216.0,108.0,54.0,324.0,162.0,270.0,yellow,square
0.0,8.0,4.0,1.0,7.0,5.0,1482.893774053082,4.0,1.0,phase_3,,,,,216.0,4.0,162.0,54.0,108.0,270.0,216.0,324.0,gray,diamond
0.0,4.0,4.0,0.0,7.0,2.0,1507.6844360446555,4.0,1.0,phase_3,,,,,170.0,5.0,34.0,170.0,204.0,136.0,68.0,102.0,green,hexagon
0.0,1.0,1.0,0.0,7.0,6.0,1397.7395209949464,4.0,1.0,phase_3,,,,,88.0,2.0,220.0,44.0,132.0,176.0,264.0,88.0,yellow,square
0.0,3.0,3.0,0.0,7.0,2.0,1896.5048780082725,4.0,1.0,phase_3,,,,,204.0,6.0,34.0,204.0,136.0,170.0,68.0,102.0,magenta,I
0.0,6.0,2.0,1.0,7.0,4.0,1682.2584139881656,4.0,1.0,phase_3,,,,,196.0,4.0,147.0,98.0,49.0,196.0,294.0,245.0,orange,circle
0.0,1.0,1.0,0.0,7.0,2.0,2545.1146729756147,4.0,1.0,phase_3,,,,,147.0,3.0,294.0,147.0,245.0,49.0,98.0,196.0,yellow,square
0.0,4.0,4.0,0.0,7.0,2.0,1849.8199330060745,4.0,1.0,phase_3,,,,,204.0,6.0,68.0,204.0,170.0,34.0,102.0,136.0,green,hexagon
0.0,4.0,4.0,0.0,7.0,4.0,1755.1906459848396,4.0,1.0,phase_3,,,,,234.0,6.0,195.0,156.0,117.0,234.0,39.0,78.0,green,hexagon
0.0,6.0,2.0,1.0,7.0,6.0,2132.6814359636046,4.0,1.0,phase_3,,,,,44.0,1.0,220.0,176.0,88.0,132.0,264.0,44.0,orange,circle
0.0,5.0,1.0,1.0,7.0,4.0,1740.844487969298,4.0,1.0,phase_3,,,,,108.0,2.0,270.0,216.0,324.0,108.0,54.0,162.0,cyan,triangle
0.0,3.0,3.0,0.0,7.0,1.0,2582.72747596493,4.0,1.0,phase_3,,,,,117.0,3.0,117.0,195.0,234.0,39.0,78.0,156.0,magenta,I
