raw_reward_magnitude,stim_reward,stepwise_reward_magnitude,paired_with_stopping,stim_location,response,reaction_time,block,num_trial_presentations,which_phase,stop_signal_trial_type,left_SSD,right_SSD,accuracy,chosen_bidding_amount,chosen_bidding_level,possible_bid_1,possible_bid_2,possible_bid_3,possible_bid_4,possible_bid_5,possible_bid_6,color_text,shape_text
180.0,3.0,3.0,0.0,4.0,4.0,396.1621909984387,1.0,1.0,phase_1,,,,,,,,,,,,,yellow,hexagon
111.0,6.0,2.0,1.0,4.0,4.0,456.5865870099515,1.0,1.0,phase_1,,,,,,,,,,,,,cyan,diamond
412.0,4.0,4.0,0.0,2.0,2.0,554.417889972683,1.0,1.0,phase_1,,,,,,,,,,,,,white,I
56.0,5.0,1.0,1.0,3.0,3.0,471.3153879856691,1.0,1.0,phase_1,,,,,,,,,,,,,blue,cross
0.0,5.0,0.0,1.0,4.0,4.0,438.6199819855392,1.0,1.0,phase_1,,,,,,,,,,,,,blue,cross
204.0,7.0,3.0,1.0,4.0,4.0,483.1105440389365,1.0,1.0,phase_1,,,,,,,,,,,,,green,square
120.0,6.0,2.0,1.0,2.0,2.0,496.2285460205748,1.0,1.0,phase_1,,,,,,,,,,,,,cyan,diamond
0.0,4.0,0.0,0.0,2.0,2.0,553.5909089958295,1.0,1.0,phase_1,,,,,,,,,,,,,white,I
387.0,4.0,4.0,0.0,3.0,3.0,899.0815919823945,1.0,3.0,phase_1,,,,,,,,,,,,,white,I
412.0,8.0,4.0,1.0,4.0,4.0,454.64837300824,1.0,1.0,phase_1,,,,,,,,,,,,,magenta,flipped triangle
0.0,7.0,0.0,1.0,4.0,4.0,349.6683010016568,1.0,1.0,phase_1,,,,,,,,,,,,,green,square
421.0,8.0,4.0,1.0,1.0,1.0,430.8674339554272,1.0,1.0,phase_1,,,,,,,,,,,,,magenta,flipped triangle
208.0,3.0,3.0,0.0,3.0,3.0,443.1219369871542,1.0,1.0,phase_1,,,,,,,,,,,,,yellow,hexagon
214.0,7.0,3.0,1.0,1.0,1.0,506.97636598488316,1.0,1.0,phase_1,,,,,,,,,,,,,green,square
90.0,6.0,2.0,1.0,4.0,4.0,415.3453460312448,1.0,1.0,phase_1,,,,,,,,,,,,,cyan,diamond
183.0,3.0,3.0,0.0,2.0,2.0,408.5684199817478,1.0,1.0,phase_1,,,,,,,,,,,,,yellow,hexagon
110.0,6.0,2.0,1.0,4.0,4.0,367.5253659603186,1.0,1.0,phase_1,,,,,,,,,,,,,cyan,diamond
33.0,1.0,1.0,0.0,3.0,3.0,467.9846010403707,1.0,1.0,phase_1,,,,,,,,,,,,,gray,triangle
0.0,3.0,0.0,0.0,1.0,1.0,374.82095498126,1.0,1.0,phase_1,,,,,,,,,,,,,yellow,hexagon
196.0,3.0,3.0,0.0,4.0,4.0,319.2484609899111,1.0,1.0,phase_1,,,,,,,,,,,,,yellow,hexagon
0.0,1.0,0.0,0.0,2.0,2.0,522.7977019967511,1.0,1.0,phase_1,,,,,,,,,,,,,gray,triangle
185.0,3.0,3.0,0.0,3.0,3.0,433.0164960119873,1.0,1.0,phase_1,,,,,,,,,,,,,yellow,hexagon
109.0,6.0,2.0,1.0,4.0,4.0,397.9044379666447,1.0,1.0,phase_1,,,,,,,,,,,,,cyan,diamond
222.0,3.0,3.0,0.0,1.0,1.0,345.608978997916,1.0,1.0,phase_1,,,,,,,,,,,,,yellow,hexagon
387.0,8.0,4.0,1.0,4.0,4.0,381.6980679985136,1.0,1.0,phase_1,,,,,,,,,,,,,magenta,flipped triangle
43.0,5.0,1.0,1.0,3.0,3.0,296.3460899773054,1.0,1.0,phase_1,,,,,,,,,,,,,blue,cross
89.0,6.0,2.0,1.0,4.0,4.0,332.7646949910559,1.0,1.0,phase_1,,,,,,,,,,,,,cyan,diamond
0.0,6.0,0.0,1.0,1.0,1.0,291.9821559917182,1.0,1.0,phase_1,,,,,,,,,,,,,cyan,diamond
33.0,1.0,1.0,0.0,1.0,1.0,342.2053380054422,1.0,1.0,phase_1,,,,,,,,,,,,,gray,triangle
211.0,7.0,3.0,1.0,1.0,1.0,474.5530450018123,1.0,1.0,phase_1,,,,,,,,,,,,,green,square
53.0,5.0,1.0,1.0,3.0,3.0,393.5666309553198,1.0,1.0,phase_1,,,,,,,,,,,,,blue,cross
47.0,1.0,1.0,0.0,3.0,3.0,357.5877450057305,1.0,1.0,phase_1,,,,,,,,,,,,,gray,triangle
36.0,1.0,1.0,0.0,4.0,4.0,337.2487900196574,1.0,1.0,phase_1,,,,,,,,,,,,,gray,triangle
94.0,2.0,2.0,0.0,2.0,2.0,448.3541690278798,1.0,1.0,phase_1,,,,,,,,,,,,,orange,circle
401.0,8.0,4.0,1.0,1.0,1.0,355.1984049845487,1.0,1.0,phase_1,,,,,,,,,,,,,magenta,flipped triangle
0.0,7.0,0.0,1.0,3.0,3.0,338.5473689995706,1.0,1.0,phase_1,,,,,,,,,,,,,green,square
111.0,6.0,2.0,1.0,2.0,2.0,414.1254359856248,1.0,1.0,phase_1,,,,,,,,,,,,,cyan,diamond
102.0,2.0,2.0,0.0,2.0,2.0,401.0609260294586,1.0,1.0,phase_1,,,,,,,,,,,,,orange,circle
91.0,2.0,2.0,0.0,2.0,2.0,343.7423040159046,1.0,1.0,phase_1,,,,,,,,,,,,,orange,circle
378.0,8.0,4.0,1.0,1.0,1.0,385.1014439715072,1.0,1.0,phase_1,,,,,,,,,,,,,magenta,flipped triangle
378.0,8.0,4.0,1.0,3.0,3.0,359.9453530041501,1.0,1.0,phase_1,,,,,,,,,,,,,magenta,flipped triangle
34.0,1.0,1.0,0.0,4.0,4.0,389.4753119675442,1.0,1.0,phase_1,,,,,,,,,,,,,gray,triangle
416.0,8.0,4.0,1.0,2.0,2.0,495.80779398093,1.0,1.0,phase_1,,,,,,,,,,,,,magenta,flipped triangle
377.0,4.0,4.0,0.0,3.0,3.0,396.7446240130812,1.0,1.0,phase_1,,,,,,,,,,,,,white,I
378.0,4.0,4.0,0.0,1.0,1.0,571.645374991931,1.0,1.0,phase_1,,,,,,,,,,,,,white,I
221.0,3.0,3.0,0.0,3.0,3.0,423.6228550435044,1.0,1.0,phase_1,,,,,,,,,,,,,yellow,hexagon
384.0,8.0,4.0,1.0,1.0,1.0,524.5039139990695,1.0,1.0,phase_1,,,,,,,,,,,,,magenta,flipped triangle
202.0,3.0,3.0,0.0,4.0,4.0,415.3483270201832,1.0,1.0,phase_1,,,,,,,,,,,,,yellow,hexagon
0.0,3.0,0.0,0.0,1.0,1.0,501.66254700161517,1.0,1.0,phase_1,,,,,,,,,,,,,yellow,hexagon
384.0,4.0,4.0,0.0,4.0,4.0,433.5978380404413,1.0,1.0,phase_1,,,,,,,,,,,,,white,I
26.0,1.0,1.0,0.0,2.0,2.0,398.1149169849232,1.0,1.0,phase_1,,,,,,,,,,,,,gray,triangle
198.0,3.0,3.0,0.0,4.0,4.0,562.4024459975772,1.0,1.0,phase_1,,,,,,,,,,,,,yellow,hexagon
0.0,5.0,0.0,1.0,1.0,1.0,514.0478280372918,1.0,1.0,phase_1,,,,,,,,,,,,,blue,cross
73.0,5.0,1.0,1.0,4.0,4.0,391.2504539475776,1.0,1.0,phase_1,,,,,,,,,,,,,blue,cross
0.0,7.0,0.0,1.0,1.0,1.0,383.6272989865392,1.0,1.0,phase_1,,,,,,,,,,,,,green,square
191.0,7.0,3.0,1.0,1.0,1.0,452.2117199958302,1.0,1.0,phase_1,,,,,,,,,,,,,green,square
181.0,3.0,3.0,0.0,4.0,4.0,276.0192150017246,1.0,1.0,phase_1,,,,,,,,,,,,,yellow,hexagon
406.0,8.0,4.0,1.0,2.0,2.0,422.2616649931296,1.0,1.0,phase_1,,,,,,,,,,,,,magenta,flipped triangle
411.0,8.0,4.0,1.0,4.0,4.0,387.5322240055538,1.0,1.0,phase_1,,,,,,,,,,,,,magenta,flipped triangle
387.0,4.0,4.0,0.0,1.0,1.0,370.1923589687794,1.0,1.0,phase_1,,,,,,,,,,,,,white,I
47.0,5.0,1.0,1.0,2.0,2.0,411.5973510197364,1.0,1.0,phase_1,,,,,,,,,,,,,blue,cross
202.0,7.0,3.0,1.0,2.0,2.0,434.8276000237092,1.0,1.0,phase_1,,,,,,,,,,,,,green,square
0.0,1.0,0.0,0.0,1.0,1.0,415.3958709794096,1.0,1.0,phase_1,,,,,,,,,,,,,gray,triangle
0.0,7.0,0.0,1.0,4.0,4.0,415.3851779992692,1.0,1.0,phase_1,,,,,,,,,,,,,green,square
88.0,2.0,2.0,0.0,3.0,3.0,384.5884070033207,1.0,1.0,phase_1,,,,,,,,,,,,,orange,circle
52.0,5.0,1.0,1.0,4.0,4.0,460.413732973393,1.0,1.0,phase_1,,,,,,,,,,,,,blue,cross
376.0,8.0,4.0,1.0,4.0,4.0,376.6825500060804,1.0,1.0,phase_1,,,,,,,,,,,,,magenta,flipped triangle
191.0,7.0,3.0,1.0,1.0,1.0,436.8722579674795,1.0,1.0,phase_1,,,,,,,,,,,,,green,square
43.0,1.0,1.0,0.0,2.0,2.0,436.1323110060766,1.0,1.0,phase_1,,,,,,,,,,,,,gray,triangle
222.0,3.0,3.0,0.0,1.0,1.0,544.1193340229802,1.0,1.0,phase_1,,,,,,,,,,,,,yellow,hexagon
395.0,4.0,4.0,0.0,3.0,3.0,502.8575870092027,1.0,1.0,phase_1,,,,,,,,,,,,,white,I
212.0,7.0,3.0,1.0,2.0,2.0,479.5985000091605,1.0,1.0,phase_1,,,,,,,,,,,,,green,square
212.0,3.0,3.0,0.0,2.0,2.0,576.8113270169124,1.0,1.0,phase_1,,,,,,,,,,,,,yellow,hexagon
61.0,5.0,1.0,1.0,4.0,4.0,610.3673069737852,1.0,1.0,phase_1,,,,,,,,,,,,,blue,cross
88.0,2.0,2.0,0.0,4.0,4.0,855.6300079799257,1.0,1.0,phase_1,,,,,,,,,,,,,orange,circle
222.0,7.0,3.0,1.0,3.0,3.0,516.4969489560463,1.0,1.0,phase_1,,,,,,,,,,,,,green,square
392.0,8.0,4.0,1.0,4.0,4.0,503.2540219835937,1.0,1.0,phase_1,,,,,,,,,,,,,magenta,flipped triangle
0.0,3.0,0.0,0.0,3.0,3.0,333.3513009711168,1.0,1.0,phase_1,,,,,,,,,,,,,yellow,hexagon
89.0,2.0,2.0,0.0,3.0,3.0,336.4242099924013,1.0,1.0,phase_1,,,,,,,,,,,,,orange,circle
120.0,6.0,2.0,1.0,3.0,3.0,344.6875339723192,1.0,1.0,phase_1,,,,,,,,,,,,,cyan,diamond
377.0,4.0,4.0,0.0,1.0,1.0,493.4714950504713,1.0,1.0,phase_1,,,,,,,,,,,,,white,I
216.0,7.0,3.0,1.0,3.0,3.0,295.1686480082571,1.0,1.0,phase_1,,,,,,,,,,,,,green,square
191.0,3.0,3.0,0.0,2.0,2.0,445.0861389632337,1.0,1.0,phase_1,,,,,,,,,,,,,yellow,hexagon
183.0,7.0,3.0,1.0,2.0,2.0,393.8565939897671,1.0,1.0,phase_1,,,,,,,,,,,,,green,square
33.0,5.0,1.0,1.0,1.0,1.0,492.3308150027878,1.0,1.0,phase_1,,,,,,,,,,,,,blue,cross
385.0,4.0,4.0,0.0,3.0,3.0,401.2687780195847,1.0,1.0,phase_1,,,,,,,,,,,,,white,I
81.0,2.0,2.0,0.0,3.0,3.0,328.1804259750061,1.0,1.0,phase_1,,,,,,,,,,,,,orange,circle
86.0,6.0,2.0,1.0,1.0,1.0,291.7920399922877,1.0,1.0,phase_1,,,,,,,,,,,,,cyan,diamond
111.0,2.0,2.0,0.0,2.0,2.0,479.7075200476683,1.0,1.0,phase_1,,,,,,,,,,,,,orange,circle
0.0,7.0,0.0,1.0,3.0,3.0,398.871693003457,1.0,1.0,phase_1,,,,,,,,,,,,,green,square
179.0,3.0,3.0,0.0,3.0,3.0,481.0568100074306,1.0,1.0,phase_1,,,,,,,,,,,,,yellow,hexagon
114.0,2.0,2.0,0.0,3.0,3.0,351.1891520465724,1.0,1.0,phase_1,,,,,,,,,,,,,orange,circle
68.0,1.0,1.0,0.0,4.0,4.0,397.3723510280251,1.0,1.0,phase_1,,,,,,,,,,,,,gray,triangle
0.0,4.0,0.0,0.0,1.0,1.0,392.5460949540138,1.0,1.0,phase_1,,,,,,,,,,,,,white,I
0.0,3.0,0.0,0.0,1.0,1.0,459.2883649747818,1.0,1.0,phase_1,,,,,,,,,,,,,yellow,hexagon
0.0,2.0,0.0,0.0,4.0,4.0,507.6703719678335,1.0,1.0,phase_1,,,,,,,,,,,,,orange,circle
384.0,4.0,4.0,0.0,1.0,1.0,518.8940459629521,1.0,1.0,phase_1,,,,,,,,,,,,,white,I
114.0,2.0,2.0,0.0,1.0,1.0,417.3768680193461,1.0,1.0,phase_1,,,,,,,,,,,,,orange,circle
26.0,5.0,1.0,1.0,2.0,2.0,312.6106900162995,1.0,1.0,phase_1,,,,,,,,,,,,,blue,cross
218.0,3.0,3.0,0.0,1.0,1.0,387.2544420300983,1.0,1.0,phase_1,,,,,,,,,,,,,yellow,hexagon
423.0,4.0,4.0,0.0,4.0,4.0,319.8670849669724,2.0,2.0,phase_1,,,,,,,,,,,,,white,I
208.0,7.0,3.0,1.0,1.0,1.0,461.0957899712957,2.0,1.0,phase_1,,,,,,,,,,,,,green,square
419.0,4.0,4.0,0.0,2.0,2.0,417.7429099800065,2.0,1.0,phase_1,,,,,,,,,,,,,white,I
47.0,5.0,1.0,1.0,4.0,4.0,384.0640950365923,2.0,1.0,phase_1,,,,,,,,,,,,,blue,cross
67.0,1.0,1.0,0.0,1.0,1.0,347.8078639600426,2.0,1.0,phase_1,,,,,,,,,,,,,gray,triangle
105.0,2.0,2.0,0.0,4.0,4.0,328.0390959698707,2.0,1.0,phase_1,,,,,,,,,,,,,orange,circle
0.0,2.0,0.0,0.0,1.0,1.0,524.3263220181689,2.0,2.0,phase_1,,,,,,,,,,,,,orange,circle
110.0,6.0,2.0,1.0,4.0,4.0,438.1735469796695,2.0,1.0,phase_1,,,,,,,,,,,,,cyan,diamond
36.0,1.0,1.0,0.0,3.0,3.0,444.331232982222,2.0,1.0,phase_1,,,,,,,,,,,,,gray,triangle
0.0,6.0,0.0,1.0,3.0,3.0,352.87562297889957,2.0,1.0,phase_1,,,,,,,,,,,,,cyan,diamond
0.0,3.0,0.0,0.0,2.0,2.0,438.3665769710205,2.0,1.0,phase_1,,,,,,,,,,,,,yellow,hexagon
216.0,7.0,3.0,1.0,3.0,3.0,491.0090309567749,2.0,1.0,phase_1,,,,,,,,,,,,,green,square
219.0,7.0,3.0,1.0,3.0,3.0,446.7701140092686,2.0,1.0,phase_1,,,,,,,,,,,,,green,square
216.0,3.0,3.0,0.0,1.0,1.0,428.3601240022108,2.0,1.0,phase_1,,,,,,,,,,,,,yellow,hexagon
102.0,2.0,2.0,0.0,1.0,1.0,488.8709530350752,2.0,1.0,phase_1,,,,,,,,,,,,,orange,circle
0.0,8.0,0.0,1.0,2.0,2.0,381.9492100155912,2.0,1.0,phase_1,,,,,,,,,,,,,magenta,flipped triangle
116.0,2.0,2.0,0.0,4.0,4.0,319.4681530003436,2.0,1.0,phase_1,,,,,,,,,,,,,orange,circle
0.0,1.0,0.0,0.0,3.0,3.0,566.5243220282719,2.0,1.0,phase_1,,,,,,,,,,,,,gray,triangle
93.0,2.0,2.0,0.0,4.0,4.0,451.1219060514122,2.0,1.0,phase_1,,,,,,,,,,,,,orange,circle
0.0,1.0,0.0,0.0,2.0,2.0,581.2152459984645,2.0,1.0,phase_1,,,,,,,,,,,,,gray,triangle
180.0,7.0,3.0,1.0,4.0,4.0,427.4786380119622,2.0,1.0,phase_1,,,,,,,,,,,,,green,square
384.0,8.0,4.0,1.0,3.0,3.0,561.5533720119856,2.0,1.0,phase_1,,,,,,,,,,,,,magenta,flipped triangle
378.0,4.0,4.0,0.0,3.0,3.0,414.6116980118677,2.0,1.0,phase_1,,,,,,,,,,,,,white,I
32.0,5.0,1.0,1.0,3.0,3.0,508.443235012237,2.0,1.0,phase_1,,,,,,,,,,,,,blue,cross
95.0,6.0,2.0,1.0,4.0,4.0,552.1472339751199,2.0,1.0,phase_1,,,,,,,,,,,,,cyan,diamond
0.0,8.0,0.0,1.0,4.0,4.0,442.161004000809,2.0,1.0,phase_1,,,,,,,,,,,,,magenta,flipped triangle
69.0,5.0,1.0,1.0,3.0,3.0,433.5036890115589,2.0,1.0,phase_1,,,,,,,,,,,,,blue,cross
380.0,4.0,4.0,0.0,4.0,4.0,452.135580999311,2.0,1.0,phase_1,,,,,,,,,,,,,white,I
0.0,7.0,0.0,1.0,4.0,4.0,432.6328180031851,2.0,1.0,phase_1,,,,,,,,,,,,,green,square
0.0,3.0,0.0,0.0,3.0,3.0,424.4231109623797,2.0,1.0,phase_1,,,,,,,,,,,,,yellow,hexagon
413.0,4.0,4.0,0.0,2.0,2.0,546.1116509977728,2.0,1.0,phase_1,,,,,,,,,,,,,white,I
104.0,2.0,2.0,0.0,4.0,4.0,397.7033080300316,2.0,1.0,phase_1,,,,,,,,,,,,,orange,circle
61.0,1.0,1.0,0.0,3.0,3.0,486.2301440443843,2.0,1.0,phase_1,,,,,,,,,,,,,gray,triangle
0.0,6.0,0.0,1.0,2.0,2.0,712.252085970249,2.0,1.0,phase_1,,,,,,,,,,,,,cyan,diamond
88.0,6.0,2.0,1.0,1.0,1.0,543.3163659763522,2.0,1.0,phase_1,,,,,,,,,,,,,cyan,diamond
180.0,3.0,3.0,0.0,2.0,2.0,408.2922210218385,2.0,1.0,phase_1,,,,,,,,,,,,,yellow,hexagon
90.0,2.0,2.0,0.0,1.0,1.0,376.4592630323022,2.0,1.0,phase_1,,,,,,,,,,,,,orange,circle
0.0,1.0,0.0,0.0,2.0,2.0,500.45676704030484,2.0,1.0,phase_1,,,,,,,,,,,,,gray,triangle
416.0,8.0,4.0,1.0,4.0,4.0,414.9248179746791,2.0,1.0,phase_1,,,,,,,,,,,,,magenta,flipped triangle
52.0,1.0,1.0,0.0,2.0,2.0,501.8464269815013,2.0,1.0,phase_1,,,,,,,,,,,,,gray,triangle
198.0,7.0,3.0,1.0,2.0,2.0,456.7685409565456,2.0,1.0,phase_1,,,,,,,,,,,,,green,square
0.0,3.0,0.0,0.0,2.0,2.0,607.7502699918114,2.0,1.0,phase_1,,,,,,,,,,,,,yellow,hexagon
108.0,6.0,2.0,1.0,3.0,3.0,620.6959859700873,2.0,1.0,phase_1,,,,,,,,,,,,,cyan,diamond
120.0,2.0,2.0,0.0,2.0,2.0,424.0616820170544,2.0,1.0,phase_1,,,,,,,,,,,,,orange,circle
194.0,7.0,3.0,1.0,3.0,3.0,461.2216720124706,2.0,1.0,phase_1,,,,,,,,,,,,,green,square
65.0,1.0,1.0,0.0,2.0,2.0,464.5946369855664,2.0,1.0,phase_1,,,,,,,,,,,,,gray,triangle
185.0,7.0,3.0,1.0,1.0,1.0,566.5350460330956,2.0,1.0,phase_1,,,,,,,,,,,,,green,square
102.0,6.0,2.0,1.0,4.0,4.0,395.061885996256,2.0,1.0,phase_1,,,,,,,,,,,,,cyan,diamond
400.0,8.0,4.0,1.0,1.0,1.0,534.545305010397,2.0,1.0,phase_1,,,,,,,,,,,,,magenta,flipped triangle
183.0,3.0,3.0,0.0,1.0,1.0,460.5226839776151,2.0,1.0,phase_1,,,,,,,,,,,,,yellow,hexagon
73.0,5.0,1.0,1.0,1.0,1.0,495.9350409917533,2.0,1.0,phase_1,,,,,,,,,,,,,blue,cross
419.0,8.0,4.0,1.0,3.0,3.0,550.6711219786666,2.0,1.0,phase_1,,,,,,,,,,,,,magenta,flipped triangle
223.0,7.0,3.0,1.0,1.0,1.0,507.30079697677866,2.0,1.0,phase_1,,,,,,,,,,,,,green,square
180.0,7.0,3.0,1.0,3.0,3.0,456.8441620212979,2.0,1.0,phase_1,,,,,,,,,,,,,green,square
420.0,4.0,4.0,0.0,4.0,4.0,554.5655189780518,2.0,1.0,phase_1,,,,,,,,,,,,,white,I
388.0,4.0,4.0,0.0,4.0,4.0,791.027371014934,2.0,1.0,phase_1,,,,,,,,,,,,,white,I
27.0,5.0,1.0,1.0,3.0,3.0,500.07347896462306,2.0,1.0,phase_1,,,,,,,,,,,,,blue,cross
58.0,1.0,1.0,0.0,2.0,2.0,546.0625059786253,2.0,1.0,phase_1,,,,,,,,,,,,,gray,triangle
119.0,6.0,2.0,1.0,2.0,2.0,622.5714969914407,2.0,1.0,phase_1,,,,,,,,,,,,,cyan,diamond
56.0,1.0,1.0,0.0,1.0,1.0,425.2697519841604,2.0,1.0,phase_1,,,,,,,,,,,,,gray,triangle
0.0,8.0,0.0,1.0,1.0,1.0,441.6706849588081,2.0,1.0,phase_1,,,,,,,,,,,,,magenta,flipped triangle
73.0,1.0,1.0,0.0,4.0,4.0,484.4658690271899,2.0,1.0,phase_1,,,,,,,,,,,,,gray,triangle
178.0,7.0,3.0,1.0,3.0,3.0,679.2981179896742,2.0,1.0,phase_1,,,,,,,,,,,,,green,square
421.0,4.0,4.0,0.0,3.0,3.0,399.9152960022911,2.0,1.0,phase_1,,,,,,,,,,,,,white,I
376.0,4.0,4.0,0.0,2.0,2.0,530.547408037819,2.0,1.0,phase_1,,,,,,,,,,,,,white,I
378.0,8.0,4.0,1.0,3.0,3.0,509.39476303756237,2.0,1.0,phase_1,,,,,,,,,,,,,magenta,flipped triangle
0.0,6.0,0.0,1.0,3.0,3.0,458.1551890005357,2.0,1.0,phase_1,,,,,,,,,,,,,cyan,diamond
378.0,4.0,4.0,0.0,1.0,1.0,447.1915240283124,2.0,1.0,phase_1,,,,,,,,,,,,,white,I
0.0,7.0,0.0,1.0,3.0,3.0,445.67419996019447,2.0,1.0,phase_1,,,,,,,,,,,,,green,square
0.0,6.0,0.0,1.0,3.0,3.0,432.3967309901491,2.0,1.0,phase_1,,,,,,,,,,,,,cyan,diamond
214.0,3.0,3.0,0.0,3.0,3.0,679.4626350165345,2.0,1.0,phase_1,,,,,,,,,,,,,yellow,hexagon
109.0,2.0,2.0,0.0,4.0,4.0,532.289172988385,2.0,1.0,phase_1,,,,,,,,,,,,,orange,circle
179.0,7.0,3.0,1.0,2.0,2.0,526.4159239595756,2.0,1.0,phase_1,,,,,,,,,,,,,green,square
53.0,1.0,1.0,0.0,1.0,1.0,530.4614729830064,2.0,1.0,phase_1,,,,,,,,,,,,,gray,triangle
380.0,8.0,4.0,1.0,1.0,1.0,819.976995990146,2.0,2.0,phase_1,,,,,,,,,,,,,magenta,flipped triangle
395.0,8.0,4.0,1.0,2.0,2.0,585.2565450477414,2.0,1.0,phase_1,,,,,,,,,,,,,magenta,flipped triangle
0.0,1.0,0.0,0.0,3.0,3.0,613.3163009653799,2.0,1.0,phase_1,,,,,,,,,,,,,gray,triangle
403.0,4.0,4.0,0.0,3.0,3.0,453.875845996663,2.0,1.0,phase_1,,,,,,,,,,,,,white,I
82.0,6.0,2.0,1.0,4.0,4.0,505.5597719619982,2.0,1.0,phase_1,,,,,,,,,,,,,cyan,diamond
79.0,2.0,2.0,0.0,2.0,2.0,517.7116959821433,2.0,1.0,phase_1,,,,,,,,,,,,,orange,circle
73.0,1.0,1.0,0.0,2.0,2.0,554.724579968024,2.0,1.0,phase_1,,,,,,,,,,,,,gray,triangle
0.0,5.0,0.0,1.0,4.0,4.0,567.8971839952283,2.0,1.0,phase_1,,,,,,,,,,,,,blue,cross
0.0,7.0,0.0,1.0,4.0,4.0,517.2517289756797,2.0,1.0,phase_1,,,,,,,,,,,,,green,square
400.0,4.0,4.0,0.0,2.0,2.0,632.9887600149959,2.0,1.0,phase_1,,,,,,,,,,,,,white,I
405.0,4.0,4.0,0.0,3.0,3.0,474.9779130215756,2.0,1.0,phase_1,,,,,,,,,,,,,white,I
0.0,2.0,0.0,0.0,1.0,1.0,505.90445002308115,2.0,1.0,phase_1,,,,,,,,,,,,,orange,circle
89.0,6.0,2.0,1.0,3.0,3.0,399.8681310331449,2.0,1.0,phase_1,,,,,,,,,,,,,cyan,diamond
108.0,2.0,2.0,0.0,2.0,2.0,363.7684829882346,2.0,1.0,phase_1,,,,,,,,,,,,,orange,circle
0.0,8.0,0.0,1.0,2.0,2.0,536.7674410226755,2.0,1.0,phase_1,,,,,,,,,,,,,magenta,flipped triangle
223.0,3.0,3.0,0.0,3.0,3.0,468.8192930188961,2.0,1.0,phase_1,,,,,,,,,,,,,yellow,hexagon
108.0,6.0,2.0,1.0,1.0,1.0,337.6963469781913,2.0,1.0,phase_1,,,,,,,,,,,,,cyan,diamond
408.0,4.0,4.0,0.0,2.0,2.0,517.6786700030789,2.0,1.0,phase_1,,,,,,,,,,,,,white,I
0.0,2.0,0.0,0.0,4.0,4.0,488.715068961028,2.0,1.0,phase_1,,,,,,,,,,,,,orange,circle
0.0,6.0,0.0,1.0,1.0,1.0,533.34864100907,2.0,1.0,phase_1,,,,,,,,,,,,,cyan,diamond
51.0,5.0,1.0,1.0,3.0,3.0,825.7166980183683,2.0,1.0,phase_1,,,,,,,,,,,,,blue,cross
183.0,7.0,3.0,1.0,4.0,4.0,449.524587020278,2.0,1.0,phase_1,,,,,,,,,,,,,green,square
65.0,5.0,1.0,1.0,3.0,3.0,411.6827249526977,2.0,1.0,phase_1,,,,,,,,,,,,,blue,cross
388.0,8.0,4.0,1.0,3.0,3.0,386.9731409940868,2.0,1.0,phase_1,,,,,,,,,,,,,magenta,flipped triangle
93.0,6.0,2.0,1.0,3.0,3.0,342.821545957122,2.0,1.0,phase_1,,,,,,,,,,,,,cyan,diamond
423.0,8.0,4.0,1.0,3.0,3.0,379.2917659739032,2.0,1.0,phase_1,,,,,,,,,,,,,magenta,flipped triangle
86.0,2.0,2.0,0.0,3.0,3.0,463.8410499901511,3.0,1.0,phase_1,,,,,,,,,,,,,orange,circle
100.0,2.0,2.0,0.0,1.0,1.0,590.9700660267845,3.0,1.0,phase_1,,,,,,,,,,,,,orange,circle
105.0,6.0,2.0,1.0,3.0,3.0,434.2886420199647,3.0,1.0,phase_1,,,,,,,,,,,,,cyan,diamond
84.0,2.0,2.0,0.0,2.0,2.0,424.6676699840463,3.0,1.0,phase_1,,,,,,,,,,,,,orange,circle
0.0,5.0,0.0,1.0,3.0,3.0,461.5138479857705,3.0,1.0,phase_1,,,,,,,,,,,,,blue,cross
121.0,6.0,2.0,1.0,3.0,3.0,441.1531049991026,3.0,1.0,phase_1,,,,,,,,,,,,,cyan,diamond
416.0,4.0,4.0,0.0,1.0,1.0,459.7137770033441,3.0,1.0,phase_1,,,,,,,,,,,,,white,I
192.0,3.0,3.0,0.0,4.0,4.0,425.4255880368873,3.0,1.0,phase_1,,,,,,,,,,,,,yellow,hexagon
416.0,8.0,4.0,1.0,2.0,2.0,447.8467540466226,3.0,1.0,phase_1,,,,,,,,,,,,,magenta,flipped triangle
406.0,4.0,4.0,0.0,4.0,4.0,389.7140449844301,3.0,1.0,phase_1,,,,,,,,,,,,,white,I
194.0,3.0,3.0,0.0,1.0,1.0,415.4496999690309,3.0,1.0,phase_1,,,,,,,,,,,,,yellow,hexagon
79.0,6.0,2.0,1.0,3.0,3.0,407.4471720377914,3.0,1.0,phase_1,,,,,,,,,,,,,cyan,diamond
27.0,1.0,1.0,0.0,1.0,1.0,400.1104080234654,3.0,1.0,phase_1,,,,,,,,,,,,,gray,triangle
64.0,5.0,1.0,1.0,4.0,4.0,423.6992509686388,3.0,1.0,phase_1,,,,,,,,,,,,,blue,cross
88.0,6.0,2.0,1.0,2.0,2.0,347.2529820282943,3.0,1.0,phase_1,,,,,,,,,,,,,cyan,diamond
0.0,5.0,0.0,1.0,4.0,4.0,350.4199080052785,3.0,1.0,phase_1,,,,,,,,,,,,,blue,cross
51.0,1.0,1.0,0.0,3.0,3.0,532.7143379836343,3.0,1.0,phase_1,,,,,,,,,,,,,gray,triangle
205.0,3.0,3.0,0.0,4.0,4.0,447.2993880044669,3.0,1.0,phase_1,,,,,,,,,,,,,yellow,hexagon
118.0,6.0,2.0,1.0,3.0,3.0,582.2570300078951,3.0,1.0,phase_1,,,,,,,,,,,,,cyan,diamond
0.0,6.0,0.0,1.0,4.0,4.0,418.5816890094429,3.0,1.0,phase_1,,,,,,,,,,,,,cyan,diamond
414.0,4.0,4.0,0.0,1.0,1.0,662.0705900131725,3.0,1.0,phase_1,,,,,,,,,,,,,white,I
73.0,5.0,1.0,1.0,2.0,2.0,612.7302930108272,3.0,1.0,phase_1,,,,,,,,,,,,,blue,cross
124.0,6.0,2.0,1.0,2.0,2.0,558.391758997459,3.0,1.0,phase_1,,,,,,,,,,,,,cyan,diamond
0.0,5.0,0.0,1.0,2.0,2.0,636.672979046125,3.0,1.0,phase_1,,,,,,,,,,,,,blue,cross
118.0,2.0,2.0,0.0,1.0,1.0,544.9955730000511,3.0,1.0,phase_1,,,,,,,,,,,,,orange,circle
72.0,1.0,1.0,0.0,2.0,2.0,703.3606580225751,3.0,1.0,phase_1,,,,,,,,,,,,,gray,triangle
181.0,7.0,3.0,1.0,4.0,4.0,522.4935230216943,3.0,1.0,phase_1,,,,,,,,,,,,,green,square
73.0,1.0,1.0,0.0,4.0,4.0,502.6720999740064,3.0,1.0,phase_1,,,,,,,,,,,,,gray,triangle
183.0,7.0,3.0,1.0,4.0,4.0,541.1255789804272,3.0,1.0,phase_1,,,,,,,,,,,,,green,square
0.0,6.0,0.0,1.0,1.0,1.0,568.223385955207,3.0,1.0,phase_1,,,,,,,,,,,,,cyan,diamond
221.0,7.0,3.0,1.0,4.0,4.0,534.9841350107454,3.0,1.0,phase_1,,,,,,,,,,,,,green,square
110.0,2.0,2.0,0.0,2.0,2.0,739.5302469958551,3.0,1.0,phase_1,,,,,,,,,,,,,orange,circle
205.0,3.0,3.0,0.0,1.0,1.0,457.5778129510581,3.0,1.0,phase_1,,,,,,,,,,,,,yellow,hexagon
35.0,5.0,1.0,1.0,2.0,2.0,546.5242240461521,3.0,1.0,phase_1,,,,,,,,,,,,,blue,cross
0.0,1.0,0.0,0.0,4.0,4.0,521.90137503203,3.0,1.0,phase_1,,,,,,,,,,,,,gray,triangle
387.0,8.0,4.0,1.0,3.0,3.0,814.6498079877347,3.0,1.0,phase_1,,,,,,,,,,,,,magenta,flipped triangle
111.0,2.0,2.0,0.0,4.0,4.0,522.5536469952203,3.0,1.0,phase_1,,,,,,,,,,,,,orange,circle
211.0,7.0,3.0,1.0,3.0,3.0,532.9810510156676,3.0,1.0,phase_1,,,,,,,,,,,,,green,square
410.0,8.0,4.0,1.0,4.0,4.0,511.11834595212713,3.0,2.0,phase_1,,,,,,,,,,,,,magenta,flipped triangle
82.0,6.0,2.0,1.0,1.0,1.0,539.4902299740352,3.0,1.0,phase_1,,,,,,,,,,,,,cyan,diamond
402.0,4.0,4.0,0.0,1.0,1.0,503.8746839854866,3.0,1.0,phase_1,,,,,,,,,,,,,white,I
410.0,4.0,4.0,0.0,4.0,4.0,373.4926710021682,3.0,1.0,phase_1,,,,,,,,,,,,,white,I
36.0,5.0,1.0,1.0,1.0,1.0,393.4987059910781,3.0,1.0,phase_1,,,,,,,,,,,,,blue,cross
42.0,5.0,1.0,1.0,1.0,1.0,518.1221599923447,3.0,1.0,phase_1,,,,,,,,,,,,,blue,cross
114.0,6.0,2.0,1.0,2.0,2.0,581.8256909842603,3.0,1.0,phase_1,,,,,,,,,,,,,cyan,diamond
199.0,3.0,3.0,0.0,2.0,2.0,569.2344569833949,3.0,1.0,phase_1,,,,,,,,,,,,,yellow,hexagon
409.0,4.0,4.0,0.0,1.0,1.0,454.9957329872995,3.0,1.0,phase_1,,,,,,,,,,,,,white,I
0.0,4.0,0.0,0.0,2.0,2.0,496.2067129672505,3.0,1.0,phase_1,,,,,,,,,,,,,white,I
195.0,7.0,3.0,1.0,3.0,3.0,485.6410999782383,3.0,1.0,phase_1,,,,,,,,,,,,,green,square
0.0,2.0,0.0,0.0,3.0,3.0,434.1194769949652,3.0,1.0,phase_1,,,,,,,,,,,,,orange,circle
95.0,6.0,2.0,1.0,1.0,1.0,312.9882370121777,3.0,1.0,phase_1,,,,,,,,,,,,,cyan,diamond
33.0,5.0,1.0,1.0,2.0,2.0,396.2438310263678,3.0,1.0,phase_1,,,,,,,,,,,,,blue,cross
96.0,6.0,2.0,1.0,2.0,2.0,497.3775709513575,3.0,1.0,phase_1,,,,,,,,,,,,,cyan,diamond
0.0,8.0,0.0,1.0,3.0,3.0,546.5368930017576,3.0,1.0,phase_1,,,,,,,,,,,,,magenta,flipped triangle
71.0,1.0,1.0,0.0,2.0,2.0,492.7381179877557,3.0,1.0,phase_1,,,,,,,,,,,,,gray,triangle
95.0,2.0,2.0,0.0,1.0,1.0,505.8608820545487,3.0,1.0,phase_1,,,,,,,,,,,,,orange,circle
408.0,8.0,4.0,1.0,2.0,2.0,587.4675119994208,3.0,1.0,phase_1,,,,,,,,,,,,,magenta,flipped triangle
0.0,8.0,0.0,1.0,1.0,1.0,394.0616920008324,3.0,1.0,phase_1,,,,,,,,,,,,,magenta,flipped triangle
383.0,8.0,4.0,1.0,4.0,4.0,447.6759959943592,3.0,1.0,phase_1,,,,,,,,,,,,,magenta,flipped triangle
43.0,5.0,1.0,1.0,4.0,4.0,370.7118129823357,3.0,1.0,phase_1,,,,,,,,,,,,,blue,cross
73.0,1.0,1.0,0.0,1.0,1.0,414.2244120012037,3.0,1.0,phase_1,,,,,,,,,,,,,gray,triangle
26.0,5.0,1.0,1.0,1.0,1.0,387.162382947281,3.0,1.0,phase_1,,,,,,,,,,,,,blue,cross
0.0,1.0,0.0,0.0,2.0,2.0,462.5469710445031,3.0,1.0,phase_1,,,,,,,,,,,,,gray,triangle
215.0,3.0,3.0,0.0,2.0,2.0,475.350717024412,3.0,1.0,phase_1,,,,,,,,,,,,,yellow,hexagon
401.0,4.0,4.0,0.0,2.0,2.0,440.8240829943679,3.0,1.0,phase_1,,,,,,,,,,,,,white,I
416.0,4.0,4.0,0.0,4.0,4.0,727.6659589842893,3.0,1.0,phase_1,,,,,,,,,,,,,white,I
418.0,8.0,4.0,1.0,3.0,3.0,537.9171090316959,3.0,1.0,phase_1,,,,,,,,,,,,,magenta,flipped triangle
409.0,8.0,4.0,1.0,2.0,2.0,463.3132959716022,3.0,1.0,phase_1,,,,,,,,,,,,,magenta,flipped triangle
183.0,3.0,3.0,0.0,4.0,4.0,327.2975060390308,3.0,1.0,phase_1,,,,,,,,,,,,,yellow,hexagon
385.0,8.0,4.0,1.0,1.0,1.0,306.617138965521,3.0,1.0,phase_1,,,,,,,,,,,,,magenta,flipped triangle
26.0,1.0,1.0,0.0,4.0,4.0,421.6985770035535,3.0,1.0,phase_1,,,,,,,,,,,,,gray,triangle
56.0,1.0,1.0,0.0,3.0,3.0,507.35315098427236,3.0,1.0,phase_1,,,,,,,,,,,,,gray,triangle
192.0,7.0,3.0,1.0,2.0,2.0,536.3438769709319,3.0,1.0,phase_1,,,,,,,,,,,,,green,square
30.0,5.0,1.0,1.0,1.0,1.0,356.2150829820893,3.0,1.0,phase_1,,,,,,,,,,,,,blue,cross
0.0,4.0,0.0,0.0,3.0,3.0,386.5856089978479,3.0,1.0,phase_1,,,,,,,,,,,,,white,I
204.0,3.0,3.0,0.0,1.0,1.0,494.3040729849599,3.0,1.0,phase_1,,,,,,,,,,,,,yellow,hexagon
178.0,3.0,3.0,0.0,4.0,4.0,496.6619560145773,3.0,1.0,phase_1,,,,,,,,,,,,,yellow,hexagon
71.0,5.0,1.0,1.0,2.0,2.0,661.4453779766336,3.0,1.0,phase_1,,,,,,,,,,,,,blue,cross
54.0,5.0,1.0,1.0,1.0,1.0,444.3349229986779,3.0,1.0,phase_1,,,,,,,,,,,,,blue,cross
0.0,2.0,0.0,0.0,3.0,3.0,665.9010440343991,3.0,1.0,phase_1,,,,,,,,,,,,,orange,circle
0.0,2.0,0.0,0.0,2.0,2.0,469.0466320025734,3.0,1.0,phase_1,,,,,,,,,,,,,orange,circle
424.0,8.0,4.0,1.0,1.0,1.0,394.8354410240426,3.0,1.0,phase_1,,,,,,,,,,,,,magenta,flipped triangle
100.0,6.0,2.0,1.0,2.0,2.0,381.6103709978051,3.0,1.0,phase_1,,,,,,,,,,,,,cyan,diamond
30.0,1.0,1.0,0.0,4.0,4.0,492.6387979649007,3.0,1.0,phase_1,,,,,,,,,,,,,gray,triangle
424.0,4.0,4.0,0.0,4.0,4.0,510.32130600651726,3.0,1.0,phase_1,,,,,,,,,,,,,white,I
0.0,3.0,0.0,0.0,2.0,2.0,675.58119102614,3.0,1.0,phase_1,,,,,,,,,,,,,yellow,hexagon
196.0,7.0,3.0,1.0,1.0,1.0,359.2922919779084,3.0,1.0,phase_1,,,,,,,,,,,,,green,square
394.0,8.0,4.0,1.0,2.0,2.0,527.7778779854998,3.0,1.0,phase_1,,,,,,,,,,,,,magenta,flipped triangle
394.0,8.0,4.0,1.0,4.0,4.0,433.6354959523305,3.0,1.0,phase_1,,,,,,,,,,,,,magenta,flipped triangle
95.0,2.0,2.0,0.0,1.0,1.0,425.0860970350913,3.0,1.0,phase_1,,,,,,,,,,,,,orange,circle
64.0,1.0,1.0,0.0,1.0,1.0,369.917627016548,3.0,1.0,phase_1,,,,,,,,,,,,,gray,triangle
102.0,6.0,2.0,1.0,2.0,2.0,431.150509044528,3.0,1.0,phase_1,,,,,,,,,,,,,cyan,diamond
0.0,1.0,0.0,0.0,4.0,4.0,397.4929960095323,3.0,1.0,phase_1,,,,,,,,,,,,,gray,triangle
94.0,6.0,2.0,1.0,1.0,1.0,362.5382410245947,3.0,1.0,phase_1,,,,,,,,,,,,,cyan,diamond
81.0,2.0,2.0,0.0,4.0,4.0,391.4798320038244,3.0,1.0,phase_1,,,,,,,,,,,,,orange,circle
219.0,3.0,3.0,0.0,2.0,2.0,467.341922048945,3.0,1.0,phase_1,,,,,,,,,,,,,yellow,hexagon
414.0,8.0,4.0,1.0,3.0,3.0,497.1789330011233,3.0,1.0,phase_1,,,,,,,,,,,,,magenta,flipped triangle
29.0,5.0,1.0,1.0,4.0,4.0,431.2044429825619,3.0,1.0,phase_1,,,,,,,,,,,,,blue,cross
204.0,7.0,3.0,1.0,1.0,1.0,408.3920759730972,3.0,1.0,phase_1,,,,,,,,,,,,,green,square
81.0,6.0,2.0,1.0,2.0,2.0,406.5308580175042,3.0,1.0,phase_1,,,,,,,,,,,,,cyan,diamond
392.0,4.0,4.0,0.0,4.0,4.0,400.6509929895401,4.0,1.0,phase_1,,,,,,,,,,,,,white,I
418.0,4.0,4.0,0.0,3.0,3.0,383.6587690166197,4.0,1.0,phase_1,,,,,,,,,,,,,white,I
81.0,6.0,2.0,1.0,1.0,1.0,388.432384992484,4.0,1.0,phase_1,,,,,,,,,,,,,cyan,diamond
63.0,1.0,1.0,0.0,1.0,1.0,449.2083929944783,4.0,1.0,phase_1,,,,,,,,,,,,,gray,triangle
411.0,4.0,4.0,0.0,2.0,2.0,706.5129459952004,4.0,1.0,phase_1,,,,,,,,,,,,,white,I
73.0,1.0,1.0,0.0,4.0,4.0,443.37012298638,4.0,2.0,phase_1,,,,,,,,,,,,,gray,triangle
68.0,5.0,1.0,1.0,3.0,3.0,537.7618210040964,4.0,1.0,phase_1,,,,,,,,,,,,,blue,cross
89.0,2.0,2.0,0.0,3.0,3.0,511.0847639734857,4.0,1.0,phase_1,,,,,,,,,,,,,orange,circle
32.0,1.0,1.0,0.0,2.0,2.0,572.4548160214908,4.0,1.0,phase_1,,,,,,,,,,,,,gray,triangle
195.0,3.0,3.0,0.0,1.0,1.0,727.5616709957831,4.0,1.0,phase_1,,,,,,,,,,,,,yellow,hexagon
211.0,3.0,3.0,0.0,2.0,2.0,659.3303409754299,4.0,1.0,phase_1,,,,,,,,,,,,,yellow,hexagon
0.0,8.0,0.0,1.0,4.0,4.0,639.5110940211453,4.0,1.0,phase_1,,,,,,,,,,,,,magenta,flipped triangle
0.0,5.0,0.0,1.0,2.0,2.0,636.2393029849045,4.0,1.0,phase_1,,,,,,,,,,,,,blue,cross
204.0,3.0,3.0,0.0,1.0,1.0,563.7703510001302,4.0,1.0,phase_1,,,,,,,,,,,,,yellow,hexagon
205.0,7.0,3.0,1.0,2.0,2.0,791.3872849894688,4.0,1.0,phase_1,,,,,,,,,,,,,green,square
58.0,5.0,1.0,1.0,1.0,1.0,471.58497502096,4.0,1.0,phase_1,,,,,,,,,,,,,blue,cross
26.0,1.0,1.0,0.0,1.0,1.0,399.5419280254282,4.0,1.0,phase_1,,,,,,,,,,,,,gray,triangle
0.0,6.0,0.0,1.0,2.0,2.0,635.2198050008155,4.0,1.0,phase_1,,,,,,,,,,,,,cyan,diamond
0.0,5.0,0.0,1.0,2.0,2.0,768.2149229804054,4.0,1.0,phase_1,,,,,,,,,,,,,blue,cross
179.0,7.0,3.0,1.0,2.0,2.0,631.8353739916347,4.0,1.0,phase_1,,,,,,,,,,,,,green,square
199.0,7.0,3.0,1.0,2.0,2.0,611.9798380532302,4.0,1.0,phase_1,,,,,,,,,,,,,green,square
83.0,6.0,2.0,1.0,1.0,1.0,520.9952910081483,4.0,1.0,phase_1,,,,,,,,,,,,,cyan,diamond
0.0,2.0,0.0,0.0,3.0,3.0,621.0055879782885,4.0,1.0,phase_1,,,,,,,,,,,,,orange,circle
72.0,5.0,1.0,1.0,1.0,1.0,576.2053190264851,4.0,1.0,phase_1,,,,,,,,,,,,,blue,cross
0.0,4.0,0.0,0.0,4.0,4.0,444.2232600413263,4.0,1.0,phase_1,,,,,,,,,,,,,white,I
36.0,5.0,1.0,1.0,2.0,2.0,491.6908299783245,4.0,1.0,phase_1,,,,,,,,,,,,,blue,cross
216.0,3.0,3.0,0.0,2.0,2.0,727.8247540234588,4.0,1.0,phase_1,,,,,,,,,,,,,yellow,hexagon
69.0,1.0,1.0,0.0,4.0,4.0,643.1583359953947,4.0,1.0,phase_1,,,,,,,,,,,,,gray,triangle
26.0,5.0,1.0,1.0,2.0,2.0,536.0101370024495,4.0,1.0,phase_1,,,,,,,,,,,,,blue,cross
0.0,8.0,0.0,1.0,1.0,1.0,373.7938050180673,4.0,1.0,phase_1,,,,,,,,,,,,,magenta,flipped triangle
42.0,5.0,1.0,1.0,4.0,4.0,340.0256980094127,4.0,1.0,phase_1,,,,,,,,,,,,,blue,cross
394.0,4.0,4.0,0.0,2.0,2.0,470.9215580369346,4.0,1.0,phase_1,,,,,,,,,,,,,white,I
416.0,4.0,4.0,0.0,2.0,2.0,620.1075479621068,4.0,1.0,phase_1,,,,,,,,,,,,,white,I
124.0,2.0,2.0,0.0,4.0,4.0,430.7339889928698,4.0,1.0,phase_1,,,,,,,,,,,,,orange,circle
383.0,4.0,4.0,0.0,1.0,1.0,558.2383830333129,4.0,1.0,phase_1,,,,,,,,,,,,,white,I
34.0,5.0,1.0,1.0,1.0,1.0,519.709886983037,4.0,1.0,phase_1,,,,,,,,,,,,,blue,cross
0.0,7.0,0.0,1.0,1.0,1.0,478.2278629718348,4.0,1.0,phase_1,,,,,,,,,,,,,green,square
35.0,1.0,1.0,0.0,1.0,1.0,426.9763239426538,4.0,1.0,phase_1,,,,,,,,,,,,,gray,triangle
0.0,8.0,0.0,1.0,2.0,2.0,432.0902840117924,4.0,1.0,phase_1,,,,,,,,,,,,,magenta,flipped triangle
119.0,2.0,2.0,0.0,3.0,3.0,484.6286859828979,4.0,1.0,phase_1,,,,,,,,,,,,,orange,circle
110.0,2.0,2.0,0.0,3.0,3.0,519.1673929803073,4.0,1.0,phase_1,,,,,,,,,,,,,orange,circle
405.0,8.0,4.0,1.0,2.0,2.0,516.405546979513,4.0,1.0,phase_1,,,,,,,,,,,,,magenta,flipped triangle
394.0,4.0,4.0,0.0,3.0,3.0,427.1397389820777,4.0,1.0,phase_1,,,,,,,,,,,,,white,I
0.0,6.0,0.0,1.0,2.0,2.0,448.1562790460884,4.0,1.0,phase_1,,,,,,,,,,,,,cyan,diamond
73.0,5.0,1.0,1.0,4.0,4.0,422.6265009492636,4.0,2.0,phase_1,,,,,,,,,,,,,blue,cross
67.0,5.0,1.0,1.0,3.0,3.0,748.6104660201818,4.0,1.0,phase_1,,,,,,,,,,,,,blue,cross
0.0,4.0,0.0,0.0,2.0,2.0,527.8926420141943,4.0,1.0,phase_1,,,,,,,,,,,,,white,I
216.0,3.0,3.0,0.0,4.0,4.0,575.6610439857468,4.0,1.0,phase_1,,,,,,,,,,,,,yellow,hexagon
82.0,2.0,2.0,0.0,4.0,4.0,475.5613310262561,4.0,1.0,phase_1,,,,,,,,,,,,,orange,circle
208.0,7.0,3.0,1.0,4.0,4.0,433.6837079608813,4.0,1.0,phase_1,,,,,,,,,,,,,green,square
96.0,2.0,2.0,0.0,3.0,3.0,548.9675999851897,4.0,1.0,phase_1,,,,,,,,,,,,,orange,circle
84.0,6.0,2.0,1.0,1.0,1.0,433.5642469814047,4.0,1.0,phase_1,,,,,,,,,,,,,cyan,diamond
205.0,7.0,3.0,1.0,4.0,4.0,564.3407159950584,4.0,1.0,phase_1,,,,,,,,,,,,,green,square
121.0,2.0,2.0,0.0,1.0,1.0,516.9303080183454,4.0,1.0,phase_1,,,,,,,,,,,,,orange,circle
208.0,3.0,3.0,0.0,3.0,3.0,686.128782981541,4.0,1.0,phase_1,,,,,,,,,,,,,yellow,hexagon
0.0,3.0,0.0,0.0,1.0,1.0,698.1140550342388,4.0,1.0,phase_1,,,,,,,,,,,,,yellow,hexagon
82.0,2.0,2.0,0.0,1.0,1.0,377.1019339910708,4.0,1.0,phase_1,,,,,,,,,,,,,orange,circle
0.0,2.0,0.0,0.0,3.0,3.0,461.5116060012951,4.0,1.0,phase_1,,,,,,,,,,,,,orange,circle
176.0,7.0,3.0,1.0,3.0,3.0,561.6434109979309,4.0,1.0,phase_1,,,,,,,,,,,,,green,square
29.0,1.0,1.0,0.0,2.0,2.0,520.284973026719,4.0,1.0,phase_1,,,,,,,,,,,,,gray,triangle
402.0,8.0,4.0,1.0,2.0,2.0,577.914335008245,4.0,1.0,phase_1,,,,,,,,,,,,,magenta,flipped triangle
179.0,3.0,3.0,0.0,3.0,3.0,456.9121020031161,4.0,1.0,phase_1,,,,,,,,,,,,,yellow,hexagon
0.0,4.0,0.0,0.0,4.0,4.0,670.9051299840212,4.0,1.0,phase_1,,,,,,,,,,,,,white,I
216.0,7.0,3.0,1.0,2.0,2.0,431.9993630051613,4.0,1.0,phase_1,,,,,,,,,,,,,green,square
108.0,2.0,2.0,0.0,2.0,2.0,565.2595349820331,4.0,1.0,phase_1,,,,,,,,,,,,,orange,circle
104.0,6.0,2.0,1.0,4.0,4.0,457.164598046802,4.0,1.0,phase_1,,,,,,,,,,,,,cyan,diamond
47.0,1.0,1.0,0.0,3.0,3.0,566.2080120528117,4.0,1.0,phase_1,,,,,,,,,,,,,gray,triangle
114.0,6.0,2.0,1.0,3.0,3.0,684.1333659831434,4.0,1.0,phase_1,,,,,,,,,,,,,cyan,diamond
0.0,2.0,0.0,0.0,2.0,2.0,747.2779239760712,4.0,1.0,phase_1,,,,,,,,,,,,,orange,circle
0.0,4.0,0.0,0.0,2.0,2.0,596.53524402529,4.0,1.0,phase_1,,,,,,,,,,,,,white,I
420.0,8.0,4.0,1.0,1.0,1.0,458.61899695592,4.0,1.0,phase_1,,,,,,,,,,,,,magenta,flipped triangle
91.0,6.0,2.0,1.0,3.0,3.0,481.1424189829267,4.0,1.0,phase_1,,,,,,,,,,,,,cyan,diamond
403.0,8.0,4.0,1.0,4.0,4.0,387.9100260091945,4.0,1.0,phase_1,,,,,,,,,,,,,magenta,flipped triangle
0.0,5.0,0.0,1.0,1.0,1.0,464.3679580185562,4.0,1.0,phase_1,,,,,,,,,,,,,blue,cross
191.0,3.0,3.0,0.0,3.0,3.0,605.4332320345566,4.0,1.0,phase_1,,,,,,,,,,,,,yellow,hexagon
56.0,5.0,1.0,1.0,4.0,4.0,608.9106230065227,4.0,1.0,phase_1,,,,,,,,,,,,,blue,cross
83.0,2.0,2.0,0.0,1.0,1.0,434.7708990098908,4.0,2.0,phase_1,,,,,,,,,,,,,orange,circle
176.0,3.0,3.0,0.0,3.0,3.0,409.0685349656269,4.0,1.0,phase_1,,,,,,,,,,,,,yellow,hexagon
218.0,7.0,3.0,1.0,4.0,4.0,373.1971959932707,4.0,1.0,phase_1,,,,,,,,,,,,,green,square
0.0,4.0,0.0,0.0,4.0,4.0,435.1330099743791,4.0,1.0,phase_1,,,,,,,,,,,,,white,I
377.0,8.0,4.0,1.0,2.0,2.0,463.8455649837851,4.0,1.0,phase_1,,,,,,,,,,,,,magenta,flipped triangle
215.0,7.0,3.0,1.0,1.0,1.0,354.7039469704032,4.0,1.0,phase_1,,,,,,,,,,,,,green,square
63.0,5.0,1.0,1.0,2.0,2.0,639.3525070161559,4.0,1.0,phase_1,,,,,,,,,,,,,blue,cross
0.0,3.0,0.0,0.0,2.0,2.0,714.5712170167826,4.0,1.0,phase_1,,,,,,,,,,,,,yellow,hexagon
120.0,2.0,2.0,0.0,3.0,3.0,398.8066560123116,4.0,2.0,phase_1,,,,,,,,,,,,,orange,circle
0.0,8.0,0.0,1.0,2.0,2.0,561.0135369934142,4.0,1.0,phase_1,,,,,,,,,,,,,magenta,flipped triangle
116.0,6.0,2.0,1.0,1.0,1.0,400.7679269998334,4.0,1.0,phase_1,,,,,,,,,,,,,cyan,diamond
377.0,8.0,4.0,1.0,1.0,1.0,363.6410949984565,4.0,1.0,phase_1,,,,,,,,,,,,,magenta,flipped triangle
54.0,1.0,1.0,0.0,3.0,3.0,415.2461129706353,4.0,1.0,phase_1,,,,,,,,,,,,,gray,triangle
43.0,1.0,1.0,0.0,3.0,3.0,418.7896269722841,4.0,1.0,phase_1,,,,,,,,,,,,,gray,triangle
413.0,8.0,4.0,1.0,3.0,3.0,378.676870954223,4.0,1.0,phase_1,,,,,,,,,,,,,magenta,flipped triangle
42.0,1.0,1.0,0.0,3.0,3.0,373.6550959874876,4.0,1.0,phase_1,,,,,,,,,,,,,gray,triangle
0.0,1.0,0.0,0.0,2.0,2.0,456.7253569839522,4.0,1.0,phase_1,,,,,,,,,,,,,gray,triangle
222.0,7.0,3.0,1.0,4.0,4.0,373.7170860404148,4.0,1.0,phase_1,,,,,,,,,,,,,green,square
42.0,1.0,1.0,0.0,4.0,4.0,419.774922018405,4.0,1.0,phase_1,,,,,,,,,,,,,gray,triangle
0.0,7.0,0.0,1.0,1.0,1.0,367.0704260002821,4.0,1.0,phase_1,,,,,,,,,,,,,green,square
0.0,5.0,0.0,1.0,3.0,3.0,503.6478489637375,4.0,1.0,phase_1,,,,,,,,,,,,,blue,cross
211.0,3.0,3.0,0.0,2.0,2.0,556.2206500326283,4.0,1.0,phase_1,,,,,,,,,,,,,yellow,hexagon
0.0,4.0,0.0,0.0,4.0,4.0,471.40258399304,4.0,1.0,phase_1,,,,,,,,,,,,,white,I
73.0,5.0,1.0,1.0,2.0,2.0,428.8266329676844,4.0,1.0,phase_1,,,,,,,,,,,,,blue,cross
0.0,4.0,4.0,0.0,5.0,5.0,390.5803599627688,1.0,1.0,phase_2,go,250.0,250.0,1.0,,,,,,,,,white,I
0.0,6.0,2.0,1.0,5.0,5.0,508.4603619761765,1.0,1.0,phase_2,stop,250.0,250.0,3.0,,,,,,,,,cyan,diamond
0.0,1.0,1.0,0.0,6.0,6.0,341.8550339993089,1.0,1.0,phase_2,go,200.0,250.0,1.0,,,,,,,,,gray,triangle
0.0,6.0,2.0,1.0,5.0,0.0,0.0,1.0,1.0,phase_2,stop,200.0,250.0,4.0,,,,,,,,,cyan,diamond
0.0,8.0,4.0,1.0,5.0,0.0,0.0,1.0,1.0,phase_2,stop,250.0,250.0,4.0,,,,,,,,,magenta,flipped triangle
0.0,7.0,3.0,1.0,5.0,0.0,0.0,1.0,1.0,phase_2,stop,300.0,250.0,4.0,,,,,,,,,green,square
0.0,8.0,4.0,1.0,6.0,6.0,286.1724439426325,1.0,1.0,phase_2,go,350.0,250.0,1.0,,,,,,,,,magenta,flipped triangle
0.0,4.0,4.0,0.0,5.0,5.0,483.0104670254513,1.0,1.0,phase_2,go,350.0,250.0,1.0,,,,,,,,,white,I
0.0,5.0,1.0,1.0,6.0,6.0,298.1848490308039,1.0,1.0,phase_2,stop,350.0,250.0,3.0,,,,,,,,,blue,cross
0.0,4.0,4.0,0.0,6.0,6.0,421.4786639786325,1.0,1.0,phase_2,go,350.0,200.0,1.0,,,,,,,,,white,I
0.0,4.0,4.0,0.0,6.0,6.0,475.9409690159373,1.0,1.0,phase_2,go,350.0,200.0,1.0,,,,,,,,,white,I
0.0,5.0,1.0,1.0,5.0,5.0,427.6690180413425,1.0,1.0,phase_2,stop,350.0,200.0,3.0,,,,,,,,,blue,cross
0.0,2.0,2.0,0.0,5.0,5.0,633.4783880156465,1.0,1.0,phase_2,go,300.0,200.0,1.0,,,,,,,,,orange,circle
0.0,5.0,1.0,1.0,6.0,0.0,0.0,1.0,1.0,phase_2,stop,300.0,200.0,4.0,,,,,,,,,blue,cross
0.0,3.0,3.0,0.0,6.0,6.0,473.8864440005272,1.0,1.0,phase_2,go,300.0,250.0,1.0,,,,,,,,,yellow,hexagon
0.0,6.0,2.0,1.0,6.0,0.0,0.0,1.0,1.0,phase_2,stop,300.0,250.0,4.0,,,,,,,,,cyan,diamond
0.0,4.0,4.0,0.0,6.0,6.0,599.940815998707,1.0,1.0,phase_2,go,300.0,300.0,1.0,,,,,,,,,white,I
0.0,1.0,1.0,0.0,5.0,5.0,797.9666090104729,1.0,1.0,phase_2,go,300.0,300.0,1.0,,,,,,,,,gray,triangle
0.0,7.0,3.0,1.0,6.0,0.0,0.0,1.0,1.0,phase_2,stop,300.0,300.0,4.0,,,,,,,,,green,square
0.0,7.0,3.0,1.0,5.0,5.0,324.2640069802291,1.0,1.0,phase_2,stop,300.0,350.0,3.0,,,,,,,,,green,square
0.0,5.0,1.0,1.0,6.0,0.0,0.0,1.0,1.0,phase_2,stop,250.0,350.0,4.0,,,,,,,,,blue,cross
0.0,8.0,4.0,1.0,6.0,6.0,429.7419699723832,1.0,1.0,phase_2,go,250.0,400.0,1.0,,,,,,,,,magenta,flipped triangle
0.0,5.0,1.0,1.0,6.0,0.0,0.0,1.0,1.0,phase_2,stop,250.0,400.0,4.0,,,,,,,,,blue,cross
0.0,4.0,4.0,0.0,6.0,6.0,469.2265960038639,1.0,1.0,phase_2,go,250.0,450.0,1.0,,,,,,,,,white,I
0.0,5.0,1.0,1.0,5.0,5.0,251.17358501302078,1.0,1.0,phase_2,go,250.0,450.0,1.0,,,,,,,,,blue,cross
0.0,8.0,4.0,1.0,5.0,5.0,385.0199439912103,1.0,1.0,phase_2,stop,250.0,450.0,3.0,,,,,,,,,magenta,flipped triangle
0.0,7.0,3.0,1.0,6.0,6.0,484.2934939661063,1.0,1.0,phase_2,stop,200.0,450.0,3.0,,,,,,,,,green,square
0.0,6.0,2.0,1.0,5.0,0.0,0.0,1.0,1.0,phase_2,stop,200.0,400.0,4.0,,,,,,,,,cyan,diamond
0.0,3.0,3.0,0.0,6.0,6.0,385.716805991251,1.0,1.0,phase_2,go,250.0,400.0,1.0,,,,,,,,,yellow,hexagon
0.0,5.0,1.0,1.0,5.0,5.0,767.0159419649281,1.0,1.0,phase_2,go,250.0,400.0,1.0,,,,,,,,,blue,cross
0.0,8.0,4.0,1.0,6.0,0.0,0.0,1.0,1.0,phase_2,stop,250.0,400.0,4.0,,,,,,,,,magenta,flipped triangle
0.0,1.0,1.0,0.0,6.0,6.0,504.43855696357787,1.0,1.0,phase_2,go,250.0,450.0,1.0,,,,,,,,,gray,triangle
0.0,5.0,1.0,1.0,6.0,6.0,540.942776016891,1.0,1.0,phase_2,stop,250.0,450.0,3.0,,,,,,,,,blue,cross
0.0,6.0,2.0,1.0,6.0,0.0,0.0,1.0,1.0,phase_2,stop,250.0,400.0,4.0,,,,,,,,,cyan,diamond
0.0,1.0,1.0,0.0,6.0,6.0,663.3993909927085,1.0,1.0,phase_2,go,250.0,450.0,1.0,,,,,,,,,gray,triangle
0.0,2.0,2.0,0.0,6.0,6.0,828.7561179604381,1.0,1.0,phase_2,go,250.0,450.0,1.0,,,,,,,,,orange,circle
0.0,8.0,4.0,1.0,5.0,5.0,566.917326010298,2.0,1.0,phase_2,go,250.0,450.0,1.0,,,,,,,,,magenta,flipped triangle
0.0,7.0,3.0,1.0,6.0,6.0,432.9042470199056,2.0,1.0,phase_2,stop,250.0,450.0,3.0,,,,,,,,,green,square
0.0,6.0,2.0,1.0,6.0,0.0,0.0,2.0,1.0,phase_2,stop,250.0,400.0,4.0,,,,,,,,,cyan,diamond
0.0,3.0,3.0,0.0,6.0,6.0,711.3932900247164,2.0,1.0,phase_2,go,250.0,450.0,1.0,,,,,,,,,yellow,hexagon
0.0,3.0,3.0,0.0,6.0,6.0,821.692481986247,2.0,1.0,phase_2,go,250.0,450.0,1.0,,,,,,,,,yellow,hexagon
0.0,3.0,3.0,0.0,6.0,6.0,706.662205979228,2.0,1.0,phase_2,go,250.0,450.0,1.0,,,,,,,,,yellow,hexagon
0.0,5.0,1.0,1.0,6.0,0.0,0.0,2.0,1.0,phase_2,stop,250.0,450.0,4.0,,,,,,,,,blue,cross
0.0,5.0,1.0,1.0,5.0,5.0,627.6327070081607,2.0,1.0,phase_2,go,250.0,500.0,1.0,,,,,,,,,blue,cross
0.0,4.0,4.0,0.0,6.0,6.0,707.9205049667507,2.0,1.0,phase_2,go,250.0,500.0,1.0,,,,,,,,,white,I
0.0,8.0,4.0,1.0,6.0,0.0,0.0,2.0,1.0,phase_2,stop,250.0,500.0,4.0,,,,,,,,,magenta,flipped triangle
0.0,5.0,1.0,1.0,6.0,6.0,391.9054419966414,2.0,1.0,phase_2,stop,250.0,550.0,3.0,,,,,,,,,blue,cross
0.0,6.0,2.0,1.0,5.0,0.0,0.0,2.0,1.0,phase_2,stop,250.0,500.0,4.0,,,,,,,,,cyan,diamond
0.0,2.0,2.0,0.0,6.0,6.0,446.8157620285637,2.0,1.0,phase_2,go,300.0,500.0,1.0,,,,,,,,,orange,circle
0.0,5.0,1.0,1.0,5.0,0.0,0.0,2.0,1.0,phase_2,stop,300.0,500.0,4.0,,,,,,,,,blue,cross
0.0,1.0,1.0,0.0,5.0,5.0,1040.9044320113026,2.0,1.0,phase_2,go,350.0,500.0,1.0,,,,,,,,,gray,triangle
0.0,3.0,3.0,0.0,6.0,6.0,837.7756259869784,2.0,1.0,phase_2,go,350.0,500.0,1.0,,,,,,,,,yellow,hexagon
0.0,1.0,1.0,0.0,6.0,6.0,693.5155320097692,2.0,1.0,phase_2,go,350.0,500.0,1.0,,,,,,,,,gray,triangle
0.0,2.0,2.0,0.0,5.0,5.0,741.6681149625219,2.0,1.0,phase_2,go,350.0,500.0,1.0,,,,,,,,,orange,circle
0.0,4.0,4.0,0.0,6.0,6.0,725.3860399941914,2.0,1.0,phase_2,go,350.0,500.0,1.0,,,,,,,,,white,I
0.0,2.0,2.0,0.0,6.0,6.0,732.2032600059174,2.0,1.0,phase_2,go,350.0,500.0,1.0,,,,,,,,,orange,circle
0.0,2.0,2.0,0.0,6.0,6.0,699.7703910456039,2.0,1.0,phase_2,go,350.0,500.0,1.0,,,,,,,,,orange,circle
0.0,4.0,4.0,0.0,5.0,5.0,490.3042050427757,2.0,1.0,phase_2,go,350.0,500.0,1.0,,,,,,,,,white,I
0.0,1.0,1.0,0.0,5.0,5.0,443.3412550133653,2.0,1.0,phase_2,go,350.0,500.0,1.0,,,,,,,,,gray,triangle
0.0,8.0,4.0,1.0,6.0,6.0,372.2928600036539,2.0,1.0,phase_2,stop,350.0,500.0,3.0,,,,,,,,,magenta,flipped triangle
0.0,8.0,4.0,1.0,6.0,6.0,500.1386220101267,2.0,1.0,phase_2,stop,350.0,450.0,3.0,,,,,,,,,magenta,flipped triangle
0.0,7.0,3.0,1.0,6.0,0.0,0.0,2.0,1.0,phase_2,stop,350.0,400.0,4.0,,,,,,,,,green,square
0.0,6.0,2.0,1.0,6.0,6.0,680.7512890081853,2.0,1.0,phase_2,go,350.0,450.0,1.0,,,,,,,,,cyan,diamond
0.0,4.0,4.0,0.0,6.0,6.0,506.3136059907265,2.0,1.0,phase_2,go,350.0,450.0,1.0,,,,,,,,,white,I
0.0,6.0,2.0,1.0,6.0,0.0,0.0,2.0,1.0,phase_2,stop,350.0,450.0,4.0,,,,,,,,,cyan,diamond
0.0,3.0,3.0,0.0,5.0,5.0,576.6367830219679,2.0,1.0,phase_2,go,350.0,500.0,1.0,,,,,,,,,yellow,hexagon
0.0,4.0,4.0,0.0,5.0,5.0,829.1769429924898,2.0,1.0,phase_2,go,350.0,500.0,1.0,,,,,,,,,white,I
0.0,8.0,4.0,1.0,5.0,0.0,0.0,2.0,1.0,phase_2,stop,350.0,500.0,4.0,,,,,,,,,magenta,flipped triangle
0.0,8.0,4.0,1.0,6.0,0.0,0.0,2.0,1.0,phase_2,stop,400.0,500.0,4.0,,,,,,,,,magenta,flipped triangle
0.0,3.0,3.0,0.0,5.0,5.0,789.2159699695185,2.0,1.0,phase_2,go,400.0,550.0,1.0,,,,,,,,,yellow,hexagon
0.0,4.0,4.0,0.0,5.0,5.0,811.4180869888514,2.0,1.0,phase_2,go,400.0,550.0,1.0,,,,,,,,,white,I
0.0,6.0,2.0,1.0,6.0,6.0,724.9687709845603,2.0,1.0,phase_2,go,400.0,550.0,1.0,,,,,,,,,cyan,diamond
0.0,2.0,2.0,0.0,6.0,6.0,940.5802990077065,3.0,1.0,phase_2,go,400.0,550.0,1.0,,,,,,,,,orange,circle
0.0,2.0,2.0,0.0,5.0,5.0,655.7605210109614,3.0,1.0,phase_2,go,400.0,550.0,1.0,,,,,,,,,orange,circle
0.0,8.0,4.0,1.0,5.0,5.0,832.7312489855103,3.0,1.0,phase_2,go,400.0,550.0,1.0,,,,,,,,,magenta,flipped triangle
0.0,5.0,1.0,1.0,5.0,0.0,0.0,3.0,1.0,phase_2,stop,400.0,550.0,4.0,,,,,,,,,blue,cross
0.0,6.0,2.0,1.0,5.0,0.0,0.0,3.0,1.0,phase_2,stop,450.0,550.0,4.0,,,,,,,,,cyan,diamond
0.0,7.0,3.0,1.0,5.0,0.0,0.0,3.0,1.0,phase_2,stop,500.0,550.0,4.0,,,,,,,,,green,square
0.0,3.0,3.0,0.0,5.0,5.0,616.2849549436942,3.0,1.0,phase_2,go,550.0,550.0,1.0,,,,,,,,,yellow,hexagon
0.0,2.0,2.0,0.0,5.0,5.0,884.5650159637444,3.0,1.0,phase_2,go,550.0,550.0,1.0,,,,,,,,,orange,circle
0.0,3.0,3.0,0.0,6.0,6.0,798.1226320262067,3.0,1.0,phase_2,go,550.0,550.0,1.0,,,,,,,,,yellow,hexagon
0.0,5.0,1.0,1.0,6.0,0.0,0.0,3.0,1.0,phase_2,stop,550.0,550.0,4.0,,,,,,,,,blue,cross
0.0,6.0,2.0,1.0,6.0,0.0,0.0,3.0,1.0,phase_2,stop,550.0,600.0,4.0,,,,,,,,,cyan,diamond
0.0,3.0,3.0,0.0,5.0,5.0,845.570413977839,3.0,1.0,phase_2,go,550.0,650.0,1.0,,,,,,,,,yellow,hexagon
0.0,1.0,1.0,0.0,6.0,6.0,1060.5672600213438,3.0,1.0,phase_2,go,550.0,650.0,1.0,,,,,,,,,gray,triangle
0.0,4.0,4.0,0.0,6.0,6.0,738.0151220131665,3.0,1.0,phase_2,go,550.0,650.0,1.0,,,,,,,,,white,I
0.0,3.0,3.0,0.0,6.0,6.0,657.5606649857946,3.0,1.0,phase_2,go,550.0,650.0,1.0,,,,,,,,,yellow,hexagon
0.0,2.0,2.0,0.0,6.0,6.0,835.4713699663989,3.0,1.0,phase_2,go,550.0,650.0,1.0,,,,,,,,,orange,circle
0.0,4.0,4.0,0.0,5.0,5.0,1000.325289031025,3.0,1.0,phase_2,go,550.0,650.0,1.0,,,,,,,,,white,I
0.0,2.0,2.0,0.0,6.0,6.0,887.5796679640189,3.0,1.0,phase_2,go,550.0,650.0,1.0,,,,,,,,,orange,circle
0.0,4.0,4.0,0.0,6.0,6.0,1026.1898650205694,3.0,1.0,phase_2,go,550.0,650.0,1.0,,,,,,,,,white,I
0.0,6.0,2.0,1.0,5.0,5.0,983.1860850099474,3.0,1.0,phase_2,go,550.0,650.0,1.0,,,,,,,,,cyan,diamond
0.0,5.0,1.0,1.0,6.0,0.0,0.0,3.0,1.0,phase_2,stop,550.0,650.0,4.0,,,,,,,,,blue,cross
0.0,1.0,1.0,0.0,5.0,5.0,384.9190470064059,3.0,1.0,phase_2,go,550.0,700.0,1.0,,,,,,,,,gray,triangle
0.0,4.0,4.0,0.0,5.0,5.0,1100.458482047543,3.0,1.0,phase_2,go,550.0,700.0,1.0,,,,,,,,,white,I
0.0,3.0,3.0,0.0,5.0,5.0,1119.0768440137615,3.0,1.0,phase_2,go,550.0,700.0,1.0,,,,,,,,,yellow,hexagon
0.0,4.0,4.0,0.0,5.0,5.0,643.289955041837,3.0,1.0,phase_2,go,550.0,700.0,1.0,,,,,,,,,white,I
0.0,4.0,4.0,0.0,6.0,6.0,674.6798240346834,3.0,1.0,phase_2,go,550.0,700.0,1.0,,,,,,,,,white,I
0.0,8.0,4.0,1.0,5.0,0.0,0.0,3.0,1.0,phase_2,stop,550.0,700.0,4.0,,,,,,,,,magenta,flipped triangle
0.0,7.0,3.0,1.0,5.0,0.0,0.0,3.0,1.0,phase_2,stop,600.0,700.0,4.0,,,,,,,,,green,square
0.0,8.0,4.0,1.0,6.0,6.0,1033.5357949952595,3.0,1.0,phase_2,go,650.0,700.0,1.0,,,,,,,,,magenta,flipped triangle
0.0,6.0,2.0,1.0,6.0,0.0,0.0,3.0,1.0,phase_2,stop,650.0,700.0,4.0,,,,,,,,,cyan,diamond
0.0,4.0,4.0,0.0,5.0,5.0,1080.7746730279175,3.0,1.0,phase_2,go,650.0,750.0,1.0,,,,,,,,,white,I
0.0,4.0,4.0,0.0,5.0,5.0,1199.582122033462,3.0,1.0,phase_2,go,650.0,750.0,1.0,,,,,,,,,white,I
0.0,2.0,2.0,0.0,6.0,6.0,1114.7136339568533,3.0,1.0,phase_2,go,650.0,750.0,1.0,,,,,,,,,orange,circle
0.0,5.0,1.0,1.0,5.0,0.0,0.0,3.0,1.0,phase_2,stop,650.0,750.0,4.0,,,,,,,,,blue,cross
0.0,2.0,2.0,0.0,5.0,5.0,1064.206707989797,3.0,1.0,phase_2,go,700.0,750.0,1.0,,,,,,,,,orange,circle
0.0,5.0,1.0,1.0,5.0,0.0,0.0,3.0,1.0,phase_2,stop,700.0,750.0,4.0,,,,,,,,,blue,cross
0.0,3.0,3.0,0.0,5.0,5.0,1292.0908239902928,4.0,1.0,phase_2,go,750.0,750.0,1.0,,,,,,,,,yellow,hexagon
0.0,4.0,4.0,0.0,6.0,6.0,1050.837712013163,4.0,1.0,phase_2,go,750.0,750.0,1.0,,,,,,,,,white,I
0.0,6.0,2.0,1.0,6.0,0.0,0.0,4.0,1.0,phase_2,stop,750.0,750.0,4.0,,,,,,,,,cyan,diamond
0.0,1.0,1.0,0.0,6.0,6.0,1059.2513809679076,4.0,1.0,phase_2,go,750.0,800.0,1.0,,,,,,,,,gray,triangle
0.0,2.0,2.0,0.0,6.0,6.0,1338.1651699892243,4.0,1.0,phase_2,go,750.0,800.0,1.0,,,,,,,,,orange,circle
0.0,8.0,4.0,1.0,6.0,0.0,0.0,4.0,1.0,phase_2,stop,750.0,800.0,4.0,,,,,,,,,magenta,flipped triangle
0.0,1.0,1.0,0.0,5.0,5.0,746.5363349765539,4.0,1.0,phase_2,go,750.0,850.0,1.0,,,,,,,,,gray,triangle
0.0,8.0,4.0,1.0,5.0,0.0,0.0,4.0,1.0,phase_2,stop,750.0,850.0,4.0,,,,,,,,,magenta,flipped triangle
0.0,4.0,4.0,0.0,5.0,5.0,1135.803596989717,4.0,1.0,phase_2,go,800.0,850.0,1.0,,,,,,,,,white,I
0.0,8.0,4.0,1.0,6.0,0.0,0.0,4.0,1.0,phase_2,stop,800.0,850.0,4.0,,,,,,,,,magenta,flipped triangle
0.0,5.0,1.0,1.0,5.0,0.0,0.0,4.0,1.0,phase_2,stop,800.0,900.0,4.0,,,,,,,,,blue,cross
0.0,4.0,4.0,0.0,6.0,6.0,1479.204524948727,4.0,1.0,phase_2,go,850.0,900.0,1.0,,,,,,,,,white,I
0.0,2.0,2.0,0.0,5.0,5.0,1223.8517989753743,4.0,1.0,phase_2,go,850.0,900.0,1.0,,,,,,,,,orange,circle
0.0,7.0,3.0,1.0,6.0,6.0,1112.570445984602,4.0,1.0,phase_2,go,850.0,900.0,1.0,,,,,,,,,green,square
0.0,6.0,2.0,1.0,6.0,0.0,0.0,4.0,1.0,phase_2,stop,850.0,900.0,4.0,,,,,,,,,cyan,diamond
0.0,8.0,4.0,1.0,6.0,0.0,0.0,4.0,1.0,phase_2,stop,850.0,950.0,4.0,,,,,,,,,magenta,flipped triangle
0.0,1.0,1.0,0.0,6.0,0.0,0.0,4.0,1.0,phase_2,go,850.0,1000.0,5.0,,,,,,,,,gray,triangle
0.0,7.0,3.0,1.0,5.0,0.0,0.0,4.0,1.0,phase_2,stop,850.0,1000.0,4.0,,,,,,,,,green,square
0.0,8.0,4.0,1.0,5.0,5.0,517.8352349903435,4.0,1.0,phase_2,stop,900.0,1000.0,3.0,,,,,,,,,magenta,flipped triangle
0.0,4.0,4.0,0.0,5.0,5.0,929.855278984178,4.0,1.0,phase_2,go,850.0,1000.0,1.0,,,,,,,,,white,I
0.0,1.0,1.0,0.0,6.0,6.0,1413.0324730067514,4.0,1.0,phase_2,go,850.0,1000.0,1.0,,,,,,,,,gray,triangle
0.0,4.0,4.0,0.0,5.0,5.0,1049.2359610507265,4.0,1.0,phase_2,go,850.0,1000.0,1.0,,,,,,,,,white,I
0.0,1.0,1.0,0.0,5.0,5.0,888.6579980025999,4.0,1.0,phase_2,go,850.0,1000.0,1.0,,,,,,,,,gray,triangle
0.0,7.0,3.0,1.0,6.0,6.0,1161.4458470139652,4.0,1.0,phase_2,go,850.0,1000.0,1.0,,,,,,,,,green,square
0.0,1.0,1.0,0.0,5.0,5.0,1009.6872510039248,4.0,1.0,phase_2,go,850.0,1000.0,1.0,,,,,,,,,gray,triangle
0.0,4.0,4.0,0.0,5.0,5.0,976.1460010195152,4.0,1.0,phase_2,go,850.0,1000.0,1.0,,,,,,,,,white,I
0.0,7.0,3.0,1.0,6.0,6.0,1095.576293009799,4.0,1.0,phase_2,stop,850.0,1000.0,3.0,,,,,,,,,green,square
0.0,6.0,2.0,1.0,6.0,0.0,0.0,4.0,1.0,phase_2,stop,850.0,950.0,4.0,,,,,,,,,cyan,diamond
0.0,7.0,3.0,1.0,5.0,5.0,1174.660070973914,4.0,1.0,phase_2,go,850.0,1000.0,1.0,,,,,,,,,green,square
0.0,4.0,4.0,0.0,5.0,5.0,1159.4889420084655,4.0,1.0,phase_2,go,850.0,1000.0,1.0,,,,,,,,,white,I
0.0,7.0,3.0,1.0,5.0,0.0,0.0,4.0,1.0,phase_2,stop,850.0,1000.0,4.0,,,,,,,,,green,square
0.0,3.0,3.0,0.0,6.0,6.0,1139.4920769962482,4.0,1.0,phase_2,go,900.0,1000.0,1.0,,,,,,,,,yellow,hexagon
0.0,1.0,1.0,0.0,6.0,0.0,0.0,4.0,1.0,phase_2,go,900.0,1000.0,5.0,,,,,,,,,gray,triangle
0.0,8.0,4.0,1.0,6.0,0.0,0.0,4.0,1.0,phase_2,stop,900.0,1000.0,4.0,,,,,,,,,magenta,flipped triangle
0.0,3.0,3.0,0.0,6.0,6.0,1289.985551033169,4.0,1.0,phase_2,go,900.0,1050.0,1.0,,,,,,,,,yellow,hexagon
0.0,1.0,1.0,0.0,6.0,6.0,1404.366024013143,4.0,1.0,phase_2,go,900.0,1050.0,1.0,,,,,,,,,gray,triangle
0.0,7.0,3.0,1.0,5.0,5.0,965.149550989736,5.0,1.0,phase_2,stop,900.0,1050.0,3.0,,,,,,,,,green,square
0.0,2.0,2.0,0.0,6.0,6.0,955.2790430025198,5.0,1.0,phase_2,go,850.0,1050.0,1.0,,,,,,,,,orange,circle
0.0,8.0,4.0,1.0,6.0,6.0,1175.8893670048565,5.0,1.0,phase_2,stop,850.0,1050.0,3.0,,,,,,,,,magenta,flipped triangle
0.0,1.0,1.0,0.0,6.0,0.0,0.0,5.0,1.0,phase_2,go,850.0,1000.0,5.0,,,,,,,,,gray,triangle
0.0,5.0,1.0,1.0,5.0,5.0,874.9891669722274,5.0,1.0,phase_2,stop,850.0,1000.0,3.0,,,,,,,,,blue,cross
0.0,2.0,2.0,0.0,6.0,6.0,368.0693370406516,5.0,1.0,phase_2,go,800.0,1000.0,1.0,,,,,,,,,orange,circle
0.0,2.0,2.0,0.0,5.0,5.0,317.8875080193393,5.0,1.0,phase_2,go,800.0,1000.0,1.0,,,,,,,,,orange,circle
0.0,5.0,1.0,1.0,5.0,5.0,421.4203479932621,5.0,1.0,phase_2,stop,800.0,1000.0,3.0,,,,,,,,,blue,cross
0.0,6.0,2.0,1.0,6.0,6.0,462.2080639819614,5.0,1.0,phase_2,stop,750.0,1000.0,3.0,,,,,,,,,cyan,diamond
0.0,5.0,1.0,1.0,6.0,6.0,918.9669210463762,5.0,1.0,phase_2,go,750.0,950.0,1.0,,,,,,,,,blue,cross
0.0,4.0,4.0,0.0,6.0,6.0,1029.2005219962448,5.0,1.0,phase_2,go,750.0,950.0,1.0,,,,,,,,,white,I
0.0,2.0,2.0,0.0,5.0,5.0,763.2902840268798,5.0,1.0,phase_2,go,750.0,950.0,1.0,,,,,,,,,orange,circle
0.0,6.0,2.0,1.0,6.0,6.0,1066.6058189817704,5.0,1.0,phase_2,stop,750.0,950.0,3.0,,,,,,,,,cyan,diamond
0.0,6.0,2.0,1.0,6.0,6.0,1373.9726499770768,5.0,1.0,phase_2,go,750.0,900.0,1.0,,,,,,,,,cyan,diamond
0.0,1.0,1.0,0.0,6.0,6.0,1121.3111290126108,5.0,1.0,phase_2,go,750.0,900.0,1.0,,,,,,,,,gray,triangle
0.0,5.0,1.0,1.0,5.0,5.0,1155.7883319910616,5.0,1.0,phase_2,go,750.0,900.0,1.0,,,,,,,,,blue,cross
0.0,6.0,2.0,1.0,5.0,5.0,1186.0152590088546,5.0,1.0,phase_2,go,750.0,900.0,1.0,,,,,,,,,cyan,diamond
0.0,2.0,2.0,0.0,5.0,5.0,1296.3918590103276,5.0,1.0,phase_2,go,750.0,900.0,1.0,,,,,,,,,orange,circle
0.0,3.0,3.0,0.0,6.0,6.0,1200.0537930289283,5.0,1.0,phase_2,go,750.0,900.0,1.0,,,,,,,,,yellow,hexagon
0.0,2.0,2.0,0.0,5.0,5.0,985.2042370475828,5.0,1.0,phase_2,go,750.0,900.0,1.0,,,,,,,,,orange,circle
0.0,7.0,3.0,1.0,6.0,6.0,897.2417719778605,5.0,1.0,phase_2,stop,750.0,900.0,3.0,,,,,,,,,green,square
0.0,8.0,4.0,1.0,5.0,5.0,953.538347966969,5.0,1.0,phase_2,go,750.0,850.0,1.0,,,,,,,,,magenta,flipped triangle
0.0,6.0,2.0,1.0,6.0,6.0,942.242042045109,5.0,1.0,phase_2,stop,750.0,850.0,3.0,,,,,,,,,cyan,diamond
0.0,3.0,3.0,0.0,5.0,5.0,1166.9897539541123,5.0,1.0,phase_2,go,750.0,800.0,1.0,,,,,,,,,yellow,hexagon
0.0,8.0,4.0,1.0,5.0,0.0,0.0,5.0,1.0,phase_2,stop,750.0,800.0,4.0,,,,,,,,,magenta,flipped triangle
0.0,2.0,2.0,0.0,5.0,5.0,691.3091920432635,5.0,1.0,phase_2,go,800.0,800.0,1.0,,,,,,,,,orange,circle
0.0,5.0,1.0,1.0,5.0,5.0,1131.508422025945,5.0,1.0,phase_2,go,800.0,800.0,1.0,,,,,,,,,blue,cross
0.0,1.0,1.0,0.0,5.0,5.0,1237.4807060114108,5.0,1.0,phase_2,go,800.0,800.0,1.0,,,,,,,,,gray,triangle
0.0,7.0,3.0,1.0,6.0,0.0,0.0,5.0,1.0,phase_2,stop,800.0,800.0,4.0,,,,,,,,,green,square
0.0,1.0,1.0,0.0,6.0,6.0,947.5550149800256,5.0,1.0,phase_2,go,800.0,850.0,1.0,,,,,,,,,gray,triangle
0.0,3.0,3.0,0.0,6.0,6.0,1376.1999140260739,5.0,1.0,phase_2,go,800.0,850.0,1.0,,,,,,,,,yellow,hexagon
0.0,8.0,4.0,1.0,5.0,0.0,0.0,5.0,1.0,phase_2,stop,800.0,850.0,4.0,,,,,,,,,magenta,flipped triangle
0.0,1.0,1.0,0.0,6.0,6.0,1290.8125090179965,5.0,1.0,phase_2,go,850.0,850.0,1.0,,,,,,,,,gray,triangle
0.0,3.0,3.0,0.0,5.0,0.0,0.0,5.0,1.0,phase_2,go,850.0,850.0,5.0,,,,,,,,,yellow,hexagon
0.0,2.0,2.0,0.0,6.0,6.0,878.2746940269135,5.0,1.0,phase_2,go,850.0,850.0,1.0,,,,,,,,,orange,circle
0.0,4.0,4.0,0.0,5.0,5.0,609.5676810364239,5.0,1.0,phase_2,go,850.0,850.0,1.0,,,,,,,,,white,I
0.0,2.0,2.0,0.0,6.0,6.0,546.931819000747,6.0,1.0,phase_2,go,850.0,850.0,1.0,,,,,,,,,orange,circle
0.0,3.0,3.0,0.0,5.0,5.0,849.82400003355,6.0,1.0,phase_2,go,850.0,850.0,1.0,,,,,,,,,yellow,hexagon
0.0,3.0,3.0,0.0,5.0,5.0,954.8093839548528,6.0,1.0,phase_2,go,850.0,850.0,1.0,,,,,,,,,yellow,hexagon
0.0,8.0,4.0,1.0,6.0,0.0,0.0,6.0,1.0,phase_2,stop,850.0,850.0,4.0,,,,,,,,,magenta,flipped triangle
0.0,6.0,2.0,1.0,5.0,0.0,0.0,6.0,1.0,phase_2,stop,850.0,900.0,4.0,,,,,,,,,cyan,diamond
0.0,1.0,1.0,0.0,5.0,5.0,793.822553998325,6.0,1.0,phase_2,go,900.0,900.0,1.0,,,,,,,,,gray,triangle
0.0,3.0,3.0,0.0,5.0,5.0,814.5777509780601,6.0,1.0,phase_2,go,900.0,900.0,1.0,,,,,,,,,yellow,hexagon
0.0,5.0,1.0,1.0,5.0,5.0,1200.8952420437708,6.0,1.0,phase_2,go,900.0,900.0,1.0,,,,,,,,,blue,cross
0.0,6.0,2.0,1.0,5.0,5.0,759.8394810338505,6.0,1.0,phase_2,stop,900.0,900.0,3.0,,,,,,,,,cyan,diamond
0.0,4.0,4.0,0.0,6.0,6.0,365.3322520549409,6.0,1.0,phase_2,go,850.0,900.0,1.0,,,,,,,,,white,I
0.0,4.0,4.0,0.0,5.0,5.0,311.5504830493592,6.0,1.0,phase_2,go,850.0,900.0,1.0,,,,,,,,,white,I
0.0,8.0,4.0,1.0,5.0,5.0,391.1196690169163,6.0,1.0,phase_2,stop,850.0,900.0,3.0,,,,,,,,,magenta,flipped triangle
0.0,5.0,1.0,1.0,5.0,5.0,643.2678509736434,6.0,1.0,phase_2,stop,800.0,900.0,3.0,,,,,,,,,blue,cross
0.0,1.0,1.0,0.0,6.0,6.0,563.2872330024838,6.0,1.0,phase_2,go,750.0,900.0,1.0,,,,,,,,,gray,triangle
0.0,3.0,3.0,0.0,6.0,6.0,779.1186909889802,6.0,1.0,phase_2,go,750.0,900.0,1.0,,,,,,,,,yellow,hexagon
0.0,1.0,1.0,0.0,5.0,5.0,531.5339500084519,6.0,1.0,phase_2,go,750.0,900.0,1.0,,,,,,,,,gray,triangle
0.0,6.0,2.0,1.0,6.0,6.0,378.9619209710508,6.0,1.0,phase_2,stop,750.0,900.0,3.0,,,,,,,,,cyan,diamond
0.0,1.0,1.0,0.0,5.0,5.0,593.1636310415342,6.0,1.0,phase_2,go,750.0,850.0,1.0,,,,,,,,,gray,triangle
0.0,4.0,4.0,0.0,6.0,6.0,490.9647119930014,6.0,1.0,phase_2,go,750.0,850.0,1.0,,,,,,,,,white,I
0.0,8.0,4.0,1.0,5.0,0.0,0.0,6.0,1.0,phase_2,stop,750.0,850.0,4.0,,,,,,,,,magenta,flipped triangle
0.0,1.0,1.0,0.0,5.0,5.0,608.6407529655844,6.0,1.0,phase_2,go,800.0,850.0,1.0,,,,,,,,,gray,triangle
0.0,7.0,3.0,1.0,5.0,0.0,0.0,6.0,1.0,phase_2,stop,800.0,850.0,4.0,,,,,,,,,green,square
0.0,6.0,2.0,1.0,5.0,5.0,607.6438089949079,6.0,1.0,phase_2,stop,850.0,850.0,3.0,,,,,,,,,cyan,diamond
0.0,3.0,3.0,0.0,6.0,6.0,984.3032489879988,6.0,1.0,phase_2,go,800.0,850.0,1.0,,,,,,,,,yellow,hexagon
0.0,4.0,4.0,0.0,6.0,6.0,564.1543920501135,6.0,1.0,phase_2,go,800.0,850.0,1.0,,,,,,,,,white,I
0.0,7.0,3.0,1.0,5.0,0.0,0.0,6.0,1.0,phase_2,stop,800.0,850.0,4.0,,,,,,,,,green,square
0.0,3.0,3.0,0.0,6.0,6.0,781.6549080307595,6.0,1.0,phase_2,go,850.0,850.0,1.0,,,,,,,,,yellow,hexagon
0.0,2.0,2.0,0.0,5.0,5.0,1116.8036269955337,6.0,1.0,phase_2,go,850.0,850.0,1.0,,,,,,,,,orange,circle
0.0,5.0,1.0,1.0,6.0,0.0,0.0,6.0,1.0,phase_2,stop,850.0,850.0,4.0,,,,,,,,,blue,cross
0.0,5.0,1.0,1.0,6.0,6.0,617.7715210360475,6.0,1.0,phase_2,stop,850.0,900.0,3.0,,,,,,,,,blue,cross
0.0,3.0,3.0,0.0,5.0,5.0,1026.2472180183977,6.0,1.0,phase_2,go,850.0,850.0,1.0,,,,,,,,,yellow,hexagon
0.0,8.0,4.0,1.0,6.0,0.0,0.0,6.0,1.0,phase_2,stop,850.0,850.0,4.0,,,,,,,,,magenta,flipped triangle
0.0,5.0,1.0,1.0,6.0,6.0,666.6162239853293,6.0,1.0,phase_2,stop,850.0,900.0,3.0,,,,,,,,,blue,cross
0.0,7.0,3.0,1.0,6.0,6.0,878.4288799506612,6.0,1.0,phase_2,stop,850.0,850.0,3.0,,,,,,,,,green,square
0.0,2.0,2.0,0.0,5.0,5.0,999.1077210288496,6.0,1.0,phase_2,go,850.0,800.0,1.0,,,,,,,,,orange,circle
0.0,6.0,2.0,1.0,6.0,0.0,0.0,6.0,1.0,phase_2,stop,850.0,800.0,4.0,,,,,,,,,cyan,diamond
0.0,7.0,3.0,1.0,5.0,5.0,1013.9580799732355,7.0,1.0,phase_2,go,850.0,850.0,1.0,,,,,,,,,green,square
0.0,7.0,3.0,1.0,5.0,5.0,1141.7846889817156,7.0,1.0,phase_2,go,850.0,850.0,1.0,,,,,,,,,green,square
0.0,2.0,2.0,0.0,5.0,5.0,832.7694319887087,7.0,1.0,phase_2,go,850.0,850.0,1.0,,,,,,,,,orange,circle
0.0,3.0,3.0,0.0,5.0,5.0,1033.3568089990877,7.0,1.0,phase_2,go,850.0,850.0,1.0,,,,,,,,,yellow,hexagon
0.0,2.0,2.0,0.0,5.0,5.0,1025.1397539977916,7.0,1.0,phase_2,go,850.0,850.0,1.0,,,,,,,,,orange,circle
0.0,7.0,3.0,1.0,5.0,5.0,927.9747830005364,7.0,1.0,phase_2,go,850.0,850.0,1.0,,,,,,,,,green,square
0.0,5.0,1.0,1.0,5.0,5.0,848.8396619795822,7.0,1.0,phase_2,go,850.0,850.0,1.0,,,,,,,,,blue,cross
0.0,3.0,3.0,0.0,6.0,6.0,1086.3513679942116,7.0,1.0,phase_2,go,850.0,850.0,1.0,,,,,,,,,yellow,hexagon
0.0,7.0,3.0,1.0,6.0,6.0,889.2858040053397,7.0,1.0,phase_2,stop,850.0,850.0,3.0,,,,,,,,,green,square
0.0,7.0,3.0,1.0,5.0,0.0,0.0,7.0,1.0,phase_2,stop,850.0,800.0,4.0,,,,,,,,,green,square
0.0,2.0,2.0,0.0,6.0,6.0,660.9529439592734,7.0,1.0,phase_2,go,900.0,800.0,1.0,,,,,,,,,orange,circle
0.0,3.0,3.0,0.0,5.0,5.0,1181.5264300093986,7.0,1.0,phase_2,go,900.0,800.0,1.0,,,,,,,,,yellow,hexagon
0.0,7.0,3.0,1.0,5.0,0.0,0.0,7.0,1.0,phase_2,stop,900.0,800.0,4.0,,,,,,,,,green,square
0.0,7.0,3.0,1.0,6.0,0.0,0.0,7.0,1.0,phase_2,stop,950.0,800.0,4.0,,,,,,,,,green,square
0.0,2.0,2.0,0.0,5.0,5.0,621.8746890081093,7.0,1.0,phase_2,go,950.0,850.0,1.0,,,,,,,,,orange,circle
0.0,8.0,4.0,1.0,5.0,0.0,0.0,7.0,1.0,phase_2,stop,950.0,850.0,4.0,,,,,,,,,magenta,flipped triangle
0.0,6.0,2.0,1.0,5.0,5.0,1172.3719610017724,7.0,1.0,phase_2,go,1000.0,850.0,1.0,,,,,,,,,cyan,diamond
0.0,7.0,3.0,1.0,5.0,0.0,0.0,7.0,1.0,phase_2,stop,1000.0,850.0,4.0,,,,,,,,,green,square
0.0,2.0,2.0,0.0,6.0,6.0,1354.8715190263465,7.0,1.0,phase_2,go,1050.0,850.0,1.0,,,,,,,,,orange,circle
0.0,7.0,3.0,1.0,5.0,5.0,1084.019139991142,7.0,1.0,phase_2,stop,1050.0,850.0,3.0,,,,,,,,,green,square
0.0,7.0,3.0,1.0,6.0,0.0,0.0,7.0,1.0,phase_2,stop,1000.0,850.0,4.0,,,,,,,,,green,square
0.0,6.0,2.0,1.0,6.0,6.0,1113.6852680356242,7.0,1.0,phase_2,go,1000.0,900.0,1.0,,,,,,,,,cyan,diamond
0.0,1.0,1.0,0.0,6.0,0.0,0.0,7.0,1.0,phase_2,go,1000.0,900.0,5.0,,,,,,,,,gray,triangle
0.0,6.0,2.0,1.0,5.0,5.0,689.0248419949785,7.0,1.0,phase_2,go,1000.0,900.0,1.0,,,,,,,,,cyan,diamond
0.0,7.0,3.0,1.0,6.0,0.0,0.0,7.0,1.0,phase_2,stop,1000.0,900.0,4.0,,,,,,,,,green,square
0.0,5.0,1.0,1.0,6.0,6.0,1084.7508900333196,7.0,1.0,phase_2,stop,1000.0,950.0,3.0,,,,,,,,,blue,cross
0.0,8.0,4.0,1.0,5.0,0.0,0.0,7.0,1.0,phase_2,stop,1000.0,900.0,4.0,,,,,,,,,magenta,flipped triangle
0.0,1.0,1.0,0.0,5.0,0.0,0.0,7.0,1.0,phase_2,go,1050.0,900.0,5.0,,,,,,,,,gray,triangle
0.0,8.0,4.0,1.0,6.0,6.0,578.5336800036021,7.0,1.0,phase_2,stop,1050.0,900.0,3.0,,,,,,,,,magenta,flipped triangle
0.0,5.0,1.0,1.0,6.0,6.0,538.641391962301,7.0,1.0,phase_2,go,1050.0,850.0,1.0,,,,,,,,,blue,cross
0.0,3.0,3.0,0.0,6.0,6.0,450.7555789896287,7.0,1.0,phase_2,go,1050.0,850.0,1.0,,,,,,,,,yellow,hexagon
0.0,8.0,4.0,1.0,6.0,6.0,435.6289519928396,7.0,1.0,phase_2,go,1050.0,850.0,1.0,,,,,,,,,magenta,flipped triangle
0.0,1.0,1.0,0.0,5.0,5.0,418.9644450088963,7.0,1.0,phase_2,go,1050.0,850.0,1.0,,,,,,,,,gray,triangle
0.0,8.0,4.0,1.0,5.0,5.0,524.1515390225686,7.0,1.0,phase_2,go,1050.0,850.0,1.0,,,,,,,,,magenta,flipped triangle
0.0,5.0,1.0,1.0,5.0,5.0,739.4110829918645,7.0,1.0,phase_2,stop,1050.0,850.0,3.0,,,,,,,,,blue,cross
0.0,6.0,2.0,1.0,5.0,5.0,553.2704560318962,7.0,1.0,phase_2,stop,1000.0,850.0,3.0,,,,,,,,,cyan,diamond
0.0,4.0,4.0,0.0,5.0,5.0,528.4523329464719,8.0,1.0,phase_2,go,950.0,850.0,1.0,,,,,,,,,white,I
0.0,8.0,4.0,1.0,6.0,6.0,430.5525909876451,8.0,1.0,phase_2,stop,950.0,850.0,3.0,,,,,,,,,magenta,flipped triangle
0.0,7.0,3.0,1.0,6.0,6.0,1329.1804650216363,8.0,1.0,phase_2,go,950.0,800.0,1.0,,,,,,,,,green,square
0.0,6.0,2.0,1.0,5.0,5.0,943.1653500068932,8.0,1.0,phase_2,stop,950.0,800.0,3.0,,,,,,,,,cyan,diamond
0.0,3.0,3.0,0.0,5.0,5.0,1117.8395900060425,8.0,1.0,phase_2,go,900.0,800.0,1.0,,,,,,,,,yellow,hexagon
0.0,5.0,1.0,1.0,6.0,0.0,0.0,8.0,1.0,phase_2,stop,900.0,800.0,4.0,,,,,,,,,blue,cross
0.0,3.0,3.0,0.0,6.0,6.0,1101.0785209946334,8.0,1.0,phase_2,go,900.0,850.0,1.0,,,,,,,,,yellow,hexagon
0.0,3.0,3.0,0.0,5.0,5.0,1170.3439169796184,8.0,1.0,phase_2,go,900.0,850.0,1.0,,,,,,,,,yellow,hexagon
0.0,1.0,1.0,0.0,5.0,5.0,1140.1405740180053,8.0,1.0,phase_2,go,900.0,850.0,1.0,,,,,,,,,gray,triangle
0.0,8.0,4.0,1.0,5.0,5.0,843.4597319574095,8.0,1.0,phase_2,go,900.0,850.0,1.0,,,,,,,,,magenta,flipped triangle
0.0,1.0,1.0,0.0,5.0,5.0,1035.4609329951927,8.0,1.0,phase_2,go,900.0,850.0,1.0,,,,,,,,,gray,triangle
0.0,2.0,2.0,0.0,5.0,5.0,890.197322005406,8.0,1.0,phase_2,go,900.0,850.0,1.0,,,,,,,,,orange,circle
0.0,6.0,2.0,1.0,5.0,5.0,927.6406110147946,8.0,1.0,phase_2,stop,900.0,850.0,3.0,,,,,,,,,cyan,diamond
0.0,3.0,3.0,0.0,5.0,5.0,1170.9397599915974,8.0,1.0,phase_2,go,850.0,850.0,1.0,,,,,,,,,yellow,hexagon
0.0,7.0,3.0,1.0,6.0,6.0,1129.2933010263368,8.0,1.0,phase_2,go,850.0,850.0,1.0,,,,,,,,,green,square
0.0,1.0,1.0,0.0,5.0,5.0,1262.1402429649606,8.0,1.0,phase_2,go,850.0,850.0,1.0,,,,,,,,,gray,triangle
0.0,5.0,1.0,1.0,6.0,0.0,0.0,8.0,1.0,phase_2,stop,850.0,850.0,4.0,,,,,,,,,blue,cross
0.0,8.0,4.0,1.0,5.0,0.0,0.0,8.0,1.0,phase_2,stop,850.0,900.0,4.0,,,,,,,,,magenta,flipped triangle
0.0,1.0,1.0,0.0,6.0,6.0,1487.791549006943,8.0,1.0,phase_2,go,900.0,900.0,1.0,,,,,,,,,gray,triangle
0.0,6.0,2.0,1.0,5.0,0.0,0.0,8.0,1.0,phase_2,stop,900.0,900.0,4.0,,,,,,,,,cyan,diamond
0.0,1.0,1.0,0.0,6.0,6.0,1287.1872780378908,8.0,1.0,phase_2,go,950.0,900.0,1.0,,,,,,,,,gray,triangle
0.0,7.0,3.0,1.0,5.0,0.0,0.0,8.0,1.0,phase_2,stop,950.0,900.0,4.0,,,,,,,,,green,square
0.0,6.0,2.0,1.0,5.0,5.0,1293.3781019528396,8.0,1.0,phase_2,go,1000.0,900.0,1.0,,,,,,,,,cyan,diamond
0.0,2.0,2.0,0.0,6.0,6.0,873.6207900219597,8.0,1.0,phase_2,go,1000.0,900.0,1.0,,,,,,,,,orange,circle
0.0,1.0,1.0,0.0,5.0,5.0,1240.851619048044,8.0,1.0,phase_2,go,1000.0,900.0,1.0,,,,,,,,,gray,triangle
0.0,3.0,3.0,0.0,5.0,5.0,1306.2626789906062,8.0,1.0,phase_2,go,1000.0,900.0,1.0,,,,,,,,,yellow,hexagon
0.0,5.0,1.0,1.0,5.0,0.0,0.0,8.0,1.0,phase_2,stop,1000.0,900.0,4.0,,,,,,,,,blue,cross
0.0,7.0,3.0,1.0,6.0,0.0,0.0,8.0,1.0,phase_2,stop,1050.0,900.0,4.0,,,,,,,,,green,square
0.0,2.0,2.0,0.0,5.0,5.0,1495.0034079956822,8.0,1.0,phase_2,go,1050.0,950.0,1.0,,,,,,,,,orange,circle
0.0,4.0,4.0,0.0,6.0,6.0,1306.5176410018466,8.0,1.0,phase_2,go,1050.0,950.0,1.0,,,,,,,,,white,I
0.0,2.0,2.0,0.0,6.0,6.0,1239.803093019873,8.0,1.0,phase_2,go,1050.0,950.0,1.0,,,,,,,,,orange,circle
0.0,2.0,2.0,0.0,6.0,6.0,1069.2015779786743,8.0,1.0,phase_2,go,1050.0,950.0,1.0,,,,,,,,,orange,circle
0.0,4.0,4.0,0.0,6.0,6.0,1166.1218189983629,8.0,1.0,phase_2,go,1050.0,950.0,1.0,,,,,,,,,white,I
0.0,6.0,2.0,1.0,5.0,5.0,1109.0031249914318,8.0,1.0,phase_2,stop,1050.0,950.0,3.0,,,,,,,,,cyan,diamond
0.0,5.0,1.0,1.0,6.0,0.0,0.0,8.0,1.0,phase_2,stop,1000.0,950.0,4.0,,,,,,,,,blue,cross
0.0,7.0,3.0,1.0,6.0,6.0,1443.1929260026664,8.0,1.0,phase_2,go,1000.0,1000.0,1.0,,,,,,,,,green,square
0.0,2.0,2.0,0.0,7.0,3.0,1594.7638479992747,1.0,3.0,phase_3,,,,,245.0,5.0,49.0,98.0,245.0,147.0,294.0,196.0,orange,circle
0.0,6.0,2.0,1.0,7.0,4.0,4687.635691021569,1.0,1.0,phase_3,,,,,102.0,3.0,136.0,34.0,68.0,102.0,204.0,170.0,cyan,diamond
0.0,3.0,3.0,0.0,7.0,4.0,2630.3193360217847,1.0,1.0,phase_3,,,,,44.0,1.0,176.0,132.0,220.0,44.0,88.0,264.0,yellow,hexagon
0.0,7.0,3.0,1.0,7.0,1.0,3419.042913999874,1.0,1.0,phase_3,,,,,270.0,5.0,270.0,108.0,162.0,216.0,54.0,324.0,green,square
0.0,8.0,4.0,1.0,7.0,3.0,2849.094217002857,1.0,1.0,phase_3,,,,,220.0,5.0,132.0,88.0,220.0,44.0,264.0,176.0,magenta,flipped triangle
0.0,5.0,1.0,1.0,7.0,6.0,1846.9280850258656,1.0,1.0,phase_3,,,,,78.0,2.0,195.0,156.0,234.0,117.0,39.0,78.0,blue,cross
0.0,3.0,3.0,0.0,7.0,3.0,1523.8426360301671,1.0,1.0,phase_3,,,,,234.0,6.0,195.0,78.0,234.0,156.0,117.0,39.0,yellow,hexagon
0.0,8.0,4.0,1.0,7.0,1.0,1302.8508800198324,1.0,1.0,phase_3,,,,,147.0,3.0,147.0,294.0,196.0,98.0,49.0,245.0,magenta,flipped triangle
0.0,2.0,2.0,0.0,7.0,6.0,1406.777560012415,1.0,1.0,phase_3,,,,,54.0,1.0,108.0,162.0,216.0,270.0,324.0,54.0,orange,circle
0.0,4.0,4.0,0.0,7.0,4.0,1642.8128620027564,1.0,1.0,phase_3,,,,,195.0,5.0,78.0,234.0,156.0,195.0,117.0,39.0,white,I
0.0,3.0,3.0,0.0,7.0,5.0,1429.2874310049228,1.0,1.0,phase_3,,,,,170.0,5.0,102.0,204.0,68.0,136.0,170.0,34.0,yellow,hexagon
0.0,3.0,3.0,0.0,7.0,3.0,1229.8486339859664,1.0,1.0,phase_3,,,,,108.0,2.0,216.0,324.0,108.0,162.0,270.0,54.0,yellow,hexagon
0.0,6.0,2.0,1.0,7.0,2.0,1388.2476119906642,1.0,1.0,phase_3,,,,,117.0,3.0,234.0,117.0,195.0,78.0,39.0,156.0,cyan,diamond
0.0,5.0,1.0,1.0,7.0,5.0,1608.7069449713454,1.0,1.0,phase_3,,,,,196.0,4.0,147.0,294.0,98.0,245.0,196.0,49.0,blue,cross
0.0,1.0,1.0,0.0,7.0,3.0,1490.3935070033183,1.0,1.0,phase_3,,,,,156.0,4.0,78.0,117.0,156.0,234.0,195.0,39.0,gray,triangle
0.0,3.0,3.0,0.0,7.0,1.0,1768.4806550387293,1.0,1.0,phase_3,,,,,195.0,5.0,195.0,234.0,156.0,78.0,39.0,117.0,yellow,hexagon
0.0,5.0,1.0,1.0,7.0,3.0,1530.6775370263497,1.0,1.0,phase_3,,,,,176.0,4.0,264.0,220.0,176.0,44.0,132.0,88.0,blue,cross
0.0,5.0,1.0,1.0,7.0,2.0,1549.382146971766,1.0,1.0,phase_3,,,,,170.0,5.0,136.0,170.0,34.0,102.0,68.0,204.0,blue,cross
0.0,6.0,2.0,1.0,7.0,5.0,1908.9209980447777,1.0,1.0,phase_3,,,,,176.0,4.0,132.0,44.0,220.0,264.0,176.0,88.0,cyan,diamond
0.0,3.0,3.0,0.0,7.0,3.0,1127.1374949719757,1.0,1.0,phase_3,,,,,324.0,6.0,216.0,270.0,324.0,108.0,54.0,162.0,yellow,hexagon
0.0,4.0,4.0,0.0,7.0,4.0,2601.5610020258464,2.0,1.0,phase_3,,,,,162.0,3.0,216.0,270.0,54.0,162.0,108.0,324.0,white,I
0.0,2.0,2.0,0.0,7.0,1.0,3979.2064519715495,2.0,1.0,phase_3,,,,,196.0,4.0,196.0,49.0,294.0,98.0,147.0,245.0,orange,circle
0.0,7.0,3.0,1.0,7.0,3.0,1882.890312001109,2.0,1.0,phase_3,,,,,204.0,6.0,102.0,136.0,204.0,170.0,34.0,68.0,green,square
0.0,5.0,1.0,1.0,7.0,5.0,1285.6553440215066,2.0,1.0,phase_3,,,,,264.0,6.0,220.0,44.0,176.0,88.0,264.0,132.0,blue,cross
0.0,5.0,1.0,1.0,7.0,4.0,2678.637051023543,2.0,1.0,phase_3,,,,,294.0,6.0,147.0,245.0,49.0,294.0,196.0,98.0,blue,cross
0.0,2.0,2.0,0.0,7.0,5.0,1767.3439789796248,2.0,1.0,phase_3,,,,,204.0,6.0,102.0,34.0,170.0,68.0,204.0,136.0,orange,circle
0.0,8.0,4.0,1.0,7.0,1.0,1608.696346054785,2.0,1.0,phase_3,,,,,234.0,6.0,234.0,195.0,156.0,78.0,39.0,117.0,magenta,flipped triangle
0.0,5.0,1.0,1.0,7.0,5.0,1060.7707789749838,2.0,1.0,phase_3,,,,,270.0,5.0,216.0,54.0,108.0,324.0,270.0,162.0,blue,cross
0.0,8.0,4.0,1.0,7.0,6.0,1671.1272899992764,2.0,1.0,phase_3,,,,,294.0,6.0,98.0,245.0,196.0,147.0,49.0,294.0,magenta,flipped triangle
0.0,2.0,2.0,0.0,7.0,3.0,1092.6887529785745,2.0,1.0,phase_3,,,,,176.0,4.0,264.0,44.0,176.0,132.0,88.0,220.0,orange,circle
0.0,4.0,4.0,0.0,7.0,6.0,2688.07467300212,2.0,1.0,phase_3,,,,,264.0,6.0,220.0,176.0,132.0,88.0,44.0,264.0,white,I
0.0,4.0,4.0,0.0,7.0,3.0,1247.6808810024522,2.0,1.0,phase_3,,,,,98.0,2.0,294.0,49.0,98.0,245.0,147.0,196.0,white,I
0.0,6.0,2.0,1.0,7.0,3.0,1060.133040009532,2.0,1.0,phase_3,,,,,196.0,4.0,294.0,98.0,196.0,49.0,147.0,245.0,cyan,diamond
0.0,3.0,3.0,0.0,7.0,4.0,1250.4503200179895,2.0,1.0,phase_3,,,,,147.0,3.0,196.0,49.0,98.0,147.0,294.0,245.0,yellow,hexagon
0.0,1.0,1.0,0.0,7.0,4.0,1124.265594989993,2.0,1.0,phase_3,,,,,176.0,4.0,88.0,264.0,132.0,176.0,220.0,44.0,gray,triangle
0.0,7.0,3.0,1.0,7.0,4.0,597.450353030581,2.0,1.0,phase_3,,,,,216.0,4.0,54.0,108.0,162.0,216.0,270.0,324.0,green,square
0.0,7.0,3.0,1.0,7.0,4.0,1313.164721999783,2.0,1.0,phase_3,,,,,156.0,4.0,39.0,117.0,78.0,156.0,195.0,234.0,green,square
0.0,1.0,1.0,0.0,7.0,3.0,1143.8777599832974,2.0,1.0,phase_3,,,,,294.0,6.0,147.0,49.0,294.0,98.0,196.0,245.0,gray,triangle
0.0,1.0,1.0,0.0,7.0,4.0,635.7411969802342,2.0,1.0,phase_3,,,,,102.0,3.0,34.0,136.0,204.0,102.0,170.0,68.0,gray,triangle
0.0,5.0,1.0,1.0,7.0,4.0,2210.22615605034,2.0,1.0,phase_3,,,,,117.0,3.0,234.0,78.0,39.0,117.0,195.0,156.0,blue,cross
0.0,8.0,4.0,1.0,7.0,4.0,1456.3302529859357,3.0,1.0,phase_3,,,,,162.0,3.0,270.0,216.0,54.0,162.0,108.0,324.0,magenta,flipped triangle
0.0,8.0,4.0,1.0,7.0,4.0,1063.1282379617917,3.0,1.0,phase_3,,,,,220.0,5.0,176.0,264.0,132.0,220.0,44.0,88.0,magenta,flipped triangle
0.0,8.0,4.0,1.0,7.0,3.0,1273.026317008771,3.0,1.0,phase_3,,,,,102.0,3.0,68.0,136.0,102.0,34.0,170.0,204.0,magenta,flipped triangle
0.0,4.0,4.0,0.0,7.0,5.0,1042.3975180019625,3.0,1.0,phase_3,,,,,195.0,5.0,234.0,39.0,156.0,78.0,195.0,117.0,white,I
0.0,2.0,2.0,0.0,7.0,3.0,1133.3042579935864,3.0,1.0,phase_3,,,,,195.0,5.0,234.0,39.0,195.0,156.0,117.0,78.0,orange,circle
0.0,7.0,3.0,1.0,7.0,3.0,1221.5829960186966,3.0,1.0,phase_3,,,,,245.0,5.0,196.0,294.0,245.0,147.0,98.0,49.0,green,square
0.0,3.0,3.0,0.0,7.0,5.0,3410.122522036545,3.0,1.0,phase_3,,,,,176.0,4.0,264.0,220.0,44.0,132.0,176.0,88.0,yellow,hexagon
0.0,6.0,2.0,1.0,7.0,4.0,3851.147942012176,3.0,1.0,phase_3,,,,,170.0,5.0,34.0,102.0,68.0,170.0,136.0,204.0,cyan,diamond
0.0,7.0,3.0,1.0,7.0,3.0,1139.9824609979987,3.0,1.0,phase_3,,,,,245.0,5.0,147.0,196.0,245.0,49.0,98.0,294.0,green,square
0.0,2.0,2.0,0.0,7.0,6.0,3052.917023014743,3.0,1.0,phase_3,,,,,264.0,6.0,176.0,132.0,44.0,220.0,88.0,264.0,orange,circle
0.0,1.0,1.0,0.0,7.0,3.0,1261.53953501489,3.0,1.0,phase_3,,,,,216.0,4.0,324.0,162.0,216.0,54.0,270.0,108.0,gray,triangle
0.0,2.0,2.0,0.0,7.0,4.0,1670.8357400493696,3.0,1.0,phase_3,,,,,156.0,4.0,195.0,39.0,78.0,156.0,234.0,117.0,orange,circle
0.0,4.0,4.0,0.0,7.0,4.0,854.1719679487869,3.0,1.0,phase_3,,,,,136.0,4.0,170.0,68.0,34.0,136.0,102.0,204.0,white,I
0.0,7.0,3.0,1.0,7.0,3.0,1224.015518964734,3.0,1.0,phase_3,,,,,220.0,5.0,88.0,44.0,220.0,176.0,264.0,132.0,green,square
0.0,5.0,1.0,1.0,7.0,4.0,1514.294007967692,3.0,1.0,phase_3,,,,,102.0,3.0,136.0,204.0,68.0,102.0,170.0,34.0,blue,cross
0.0,3.0,3.0,0.0,7.0,3.0,1738.43065102119,3.0,1.0,phase_3,,,,,204.0,6.0,136.0,102.0,204.0,170.0,34.0,68.0,yellow,hexagon
0.0,8.0,4.0,1.0,7.0,5.0,1797.7906070300378,3.0,1.0,phase_3,,,,,136.0,4.0,170.0,68.0,102.0,34.0,136.0,204.0,magenta,flipped triangle
0.0,4.0,4.0,0.0,7.0,4.0,1143.888912978582,3.0,1.0,phase_3,,,,,132.0,3.0,220.0,44.0,176.0,132.0,264.0,88.0,white,I
0.0,8.0,4.0,1.0,7.0,3.0,1498.1533890240826,3.0,1.0,phase_3,,,,,270.0,5.0,324.0,162.0,270.0,54.0,108.0,216.0,magenta,flipped triangle
0.0,8.0,4.0,1.0,7.0,4.0,1457.4716949719004,3.0,1.0,phase_3,,,,,195.0,5.0,156.0,78.0,39.0,195.0,117.0,234.0,magenta,flipped triangle
0.0,7.0,3.0,1.0,7.0,3.0,1351.8623519921675,4.0,1.0,phase_3,,,,,264.0,6.0,176.0,88.0,264.0,44.0,132.0,220.0,green,square
0.0,3.0,3.0,0.0,7.0,3.0,1767.0887439744547,4.0,1.0,phase_3,,,,,98.0,2.0,147.0,49.0,98.0,294.0,245.0,196.0,yellow,hexagon
0.0,6.0,2.0,1.0,7.0,5.0,1864.1833759611472,4.0,1.0,phase_3,,,,,245.0,5.0,49.0,98.0,294.0,196.0,245.0,147.0,cyan,diamond
0.0,7.0,3.0,1.0,7.0,3.0,1434.9539539543912,4.0,1.0,phase_3,,,,,195.0,5.0,39.0,156.0,195.0,78.0,117.0,234.0,green,square
0.0,5.0,1.0,1.0,7.0,4.0,1490.488027979154,4.0,1.0,phase_3,,,,,162.0,3.0,108.0,216.0,270.0,162.0,54.0,324.0,blue,cross
0.0,7.0,3.0,1.0,7.0,2.0,1286.690458015073,4.0,1.0,phase_3,,,,,204.0,6.0,136.0,204.0,68.0,34.0,102.0,170.0,green,square
0.0,1.0,1.0,0.0,7.0,4.0,1806.5645739552565,4.0,1.0,phase_3,,,,,234.0,6.0,78.0,39.0,156.0,234.0,195.0,117.0,gray,triangle
0.0,6.0,2.0,1.0,7.0,2.0,1992.638555006124,4.0,1.0,phase_3,,,,,162.0,3.0,324.0,162.0,270.0,216.0,108.0,54.0,cyan,diamond
0.0,6.0,2.0,1.0,7.0,6.0,2570.850260031875,4.0,1.0,phase_3,,,,,88.0,2.0,264.0,44.0,132.0,176.0,220.0,88.0,cyan,diamond
0.0,1.0,1.0,0.0,7.0,5.0,2362.21181799192,4.0,1.0,phase_3,,,,,162.0,3.0,54.0,216.0,324.0,270.0,162.0,108.0,gray,triangle
0.0,4.0,4.0,0.0,7.0,3.0,1830.260807997547,4.0,1.0,phase_3,,,,,324.0,6.0,54.0,216.0,324.0,108.0,162.0,270.0,white,I
0.0,2.0,2.0,0.0,7.0,2.0,1701.359639992006,4.0,1.0,phase_3,,,,,270.0,5.0,54.0,270.0,216.0,108.0,324.0,162.0,orange,circle
0.0,1.0,1.0,0.0,7.0,5.0,2488.7900699977763,4.0,1.0,phase_3,,,,,132.0,3.0,44.0,220.0,176.0,88.0,132.0,264.0,gray,triangle
0.0,2.0,2.0,0.0,7.0,6.0,2488.044794998132,4.0,1.0,phase_3,,,,,136.0,4.0,204.0,170.0,102.0,68.0,34.0,136.0,orange,circle
0.0,6.0,2.0,1.0,7.0,2.0,1535.9632569598034,4.0,1.0,phase_3,,,,,156.0,4.0,39.0,156.0,78.0,195.0,117.0,234.0,cyan,diamond
0.0,6.0,2.0,1.0,7.0,5.0,1820.909939997364,4.0,1.0,phase_3,,,,,216.0,4.0,270.0,54.0,324.0,162.0,216.0,108.0,cyan,diamond
0.0,4.0,4.0,0.0,7.0,2.0,1564.573988027405,4.0,1.0,phase_3,,,,,102.0,3.0,136.0,102.0,68.0,34.0,204.0,170.0,white,I
0.0,1.0,1.0,0.0,7.0,6.0,1936.3718859967776,4.0,1.0,phase_3,,,,,196.0,4.0,98.0,147.0,294.0,245.0,49.0,196.0,gray,triangle
0.0,1.0,1.0,0.0,7.0,3.0,1416.099288035184,4.0,1.0,phase_3,,,,,136.0,4.0,34.0,68.0,136.0,102.0,204.0,170.0,gray,triangle
0.0,4.0,4.0,0.0,7.0,2.0,1535.0644720019773,4.0,1.0,phase_3,,,,,147.0,3.0,294.0,147.0,98.0,49.0,196.0,245.0,white,I
