raw_reward_magnitude,stim_reward,stepwise_reward_magnitude,paired_with_stopping,quadrant,response,reaction_time,block,num_trial_presentations,which_part,stop_signal_trial_type,left_SSD,right_SSD,accuracy,chosen_bidding_amount,chosen_bidding_level,possible_bid_1,possible_bid_2,possible_bid_3,possible_bid_4,possible_bid_5,possible_bid_6,color_text,shape_text
54.0,1.0,1.0,0.0,2.0,2.0,415.2072030119598,1.0,1.0,part_1,,,,,,,,,,,,,green,triangle
203.0,7.0,3.0,1.0,4.0,4.0,266.5442129946314,1.0,1.0,part_1,,,,,,,,,,,,,gray,cross
0.0,4.0,0.0,0.0,4.0,4.0,369.7878919774666,1.0,1.0,part_1,,,,,,,,,,,,,white,flipped triangle
95.0,2.0,2.0,0.0,2.0,2.0,284.5207530190237,1.0,1.0,part_1,,,,,,,,,,,,,blue,I
0.0,8.0,0.0,1.0,3.0,3.0,279.7932549729012,1.0,1.0,part_1,,,,,,,,,,,,,orange,diamond
401.0,8.0,4.0,1.0,4.0,4.0,316.7083910084329,1.0,1.0,part_1,,,,,,,,,,,,,orange,diamond
203.0,3.0,3.0,0.0,2.0,2.0,241.9629879877902,1.0,1.0,part_1,,,,,,,,,,,,,magenta,circle
205.0,7.0,3.0,1.0,3.0,3.0,311.0941090271808,1.0,1.0,part_1,,,,,,,,,,,,,gray,cross
45.0,5.0,1.0,1.0,1.0,1.0,308.3249669871293,1.0,1.0,part_1,,,,,,,,,,,,,yellow,hexagon
100.0,2.0,2.0,0.0,1.0,1.0,296.6148819541558,1.0,1.0,part_1,,,,,,,,,,,,,blue,I
425.0,4.0,4.0,0.0,4.0,4.0,326.6844979953021,1.0,1.0,part_1,,,,,,,,,,,,,white,flipped triangle
392.0,4.0,4.0,0.0,4.0,4.0,321.5699209831655,1.0,1.0,part_1,,,,,,,,,,,,,white,flipped triangle
64.0,1.0,1.0,0.0,4.0,4.0,277.6432090322487,1.0,1.0,part_1,,,,,,,,,,,,,green,triangle
41.0,1.0,1.0,0.0,4.0,4.0,291.2784810177982,1.0,1.0,part_1,,,,,,,,,,,,,green,triangle
0.0,7.0,0.0,1.0,4.0,4.0,258.5795799968764,1.0,1.0,part_1,,,,,,,,,,,,,gray,cross
379.0,4.0,4.0,0.0,2.0,2.0,282.9612120403908,1.0,1.0,part_1,,,,,,,,,,,,,white,flipped triangle
0.0,6.0,0.0,1.0,3.0,3.0,402.4986259755678,1.0,1.0,part_1,,,,,,,,,,,,,cyan,square
208.0,3.0,3.0,0.0,3.0,3.0,296.6155980248004,1.0,1.0,part_1,,,,,,,,,,,,,magenta,circle
0.0,2.0,0.0,0.0,4.0,4.0,340.9163550240919,1.0,1.0,part_1,,,,,,,,,,,,,blue,I
56.0,5.0,1.0,1.0,3.0,3.0,352.7005719952285,1.0,1.0,part_1,,,,,,,,,,,,,yellow,hexagon
0.0,6.0,0.0,1.0,2.0,2.0,229.1559969889931,1.0,1.0,part_1,,,,,,,,,,,,,cyan,square
201.0,3.0,3.0,0.0,2.0,2.0,303.8826480042189,1.0,1.0,part_1,,,,,,,,,,,,,magenta,circle
0.0,2.0,0.0,0.0,4.0,4.0,291.6978590073995,1.0,1.0,part_1,,,,,,,,,,,,,blue,I
57.0,5.0,1.0,1.0,3.0,3.0,328.6624730098992,1.0,1.0,part_1,,,,,,,,,,,,,yellow,hexagon
105.0,6.0,2.0,1.0,2.0,2.0,263.8033840339631,1.0,1.0,part_1,,,,,,,,,,,,,cyan,square
33.0,5.0,1.0,1.0,4.0,4.0,290.712721995078,1.0,1.0,part_1,,,,,,,,,,,,,yellow,hexagon
38.0,5.0,1.0,1.0,1.0,1.0,280.3452049847692,1.0,1.0,part_1,,,,,,,,,,,,,yellow,hexagon
76.0,2.0,2.0,0.0,4.0,4.0,370.8189479657449,1.0,2.0,part_1,,,,,,,,,,,,,blue,I
405.0,8.0,4.0,1.0,1.0,1.0,423.7096660071984,1.0,1.0,part_1,,,,,,,,,,,,,orange,diamond
0.0,8.0,0.0,1.0,1.0,1.0,308.1334150047041,1.0,1.0,part_1,,,,,,,,,,,,,orange,diamond
44.0,1.0,1.0,0.0,3.0,3.0,320.7460570265539,1.0,1.0,part_1,,,,,,,,,,,,,green,triangle
409.0,8.0,4.0,1.0,1.0,1.0,428.2414420158602,1.0,1.0,part_1,,,,,,,,,,,,,orange,diamond
184.0,3.0,3.0,0.0,3.0,3.0,321.3173469994217,1.0,1.0,part_1,,,,,,,,,,,,,magenta,circle
41.0,5.0,1.0,1.0,4.0,4.0,286.6072679753415,1.0,1.0,part_1,,,,,,,,,,,,,yellow,hexagon
187.0,7.0,3.0,1.0,4.0,4.0,328.7900399882346,1.0,1.0,part_1,,,,,,,,,,,,,gray,cross
384.0,4.0,4.0,0.0,4.0,4.0,318.362063029781,1.0,1.0,part_1,,,,,,,,,,,,,white,flipped triangle
98.0,2.0,2.0,0.0,2.0,2.0,404.8827360384166,1.0,1.0,part_1,,,,,,,,,,,,,blue,I
416.0,4.0,4.0,0.0,2.0,2.0,312.1613380499184,1.0,1.0,part_1,,,,,,,,,,,,,white,flipped triangle
108.0,2.0,2.0,0.0,2.0,2.0,331.020885030739,1.0,1.0,part_1,,,,,,,,,,,,,blue,I
400.0,8.0,4.0,1.0,3.0,3.0,452.0771839888766,1.0,1.0,part_1,,,,,,,,,,,,,orange,diamond
416.0,8.0,4.0,1.0,1.0,1.0,421.66821099817747,1.0,1.0,part_1,,,,,,,,,,,,,orange,diamond
409.0,8.0,4.0,1.0,2.0,2.0,333.5856809862889,1.0,1.0,part_1,,,,,,,,,,,,,orange,diamond
220.0,3.0,3.0,0.0,3.0,3.0,334.2382610426284,1.0,1.0,part_1,,,,,,,,,,,,,magenta,circle
0.0,4.0,0.0,0.0,3.0,3.0,355.4901550523937,1.0,1.0,part_1,,,,,,,,,,,,,white,flipped triangle
98.0,2.0,2.0,0.0,2.0,2.0,304.3285090243444,1.0,1.0,part_1,,,,,,,,,,,,,blue,I
64.0,1.0,1.0,0.0,3.0,3.0,284.5426389831118,1.0,1.0,part_1,,,,,,,,,,,,,green,triangle
0.0,3.0,0.0,0.0,2.0,2.0,330.1058929646387,1.0,1.0,part_1,,,,,,,,,,,,,magenta,circle
81.0,6.0,2.0,1.0,3.0,3.0,381.8608190049417,1.0,1.0,part_1,,,,,,,,,,,,,cyan,square
385.0,8.0,4.0,1.0,4.0,4.0,435.1740719866939,1.0,1.0,part_1,,,,,,,,,,,,,orange,diamond
388.0,8.0,4.0,1.0,2.0,2.0,313.5887099779211,1.0,1.0,part_1,,,,,,,,,,,,,orange,diamond
0.0,3.0,0.0,0.0,1.0,1.0,399.3508020066656,1.0,1.0,part_1,,,,,,,,,,,,,magenta,circle
186.0,3.0,3.0,0.0,1.0,1.0,386.8782700155861,1.0,1.0,part_1,,,,,,,,,,,,,magenta,circle
416.0,4.0,4.0,0.0,2.0,2.0,328.911677992437,1.0,1.0,part_1,,,,,,,,,,,,,white,flipped triangle
53.0,5.0,1.0,1.0,1.0,1.0,369.959531002678,1.0,1.0,part_1,,,,,,,,,,,,,yellow,hexagon
0.0,2.0,0.0,0.0,4.0,4.0,414.9568409775384,1.0,1.0,part_1,,,,,,,,,,,,,blue,I
0.0,7.0,0.0,1.0,2.0,2.0,261.344276019372,1.0,1.0,part_1,,,,,,,,,,,,,gray,cross
110.0,2.0,2.0,0.0,3.0,3.0,275.102371990215,1.0,1.0,part_1,,,,,,,,,,,,,blue,I
211.0,7.0,3.0,1.0,2.0,2.0,271.1960169835947,1.0,1.0,part_1,,,,,,,,,,,,,gray,cross
73.0,5.0,1.0,1.0,1.0,1.0,337.9758789669722,1.0,1.0,part_1,,,,,,,,,,,,,yellow,hexagon
103.0,6.0,2.0,1.0,2.0,2.0,271.0670770029537,1.0,1.0,part_1,,,,,,,,,,,,,cyan,square
123.0,6.0,2.0,1.0,2.0,2.0,350.3662549774162,1.0,1.0,part_1,,,,,,,,,,,,,cyan,square
0.0,7.0,0.0,1.0,1.0,1.0,498.1153010157868,1.0,1.0,part_1,,,,,,,,,,,,,gray,cross
38.0,5.0,1.0,1.0,2.0,2.0,302.6039659744128,1.0,1.0,part_1,,,,,,,,,,,,,yellow,hexagon
415.0,4.0,4.0,0.0,1.0,1.0,427.5968589936383,1.0,1.0,part_1,,,,,,,,,,,,,white,flipped triangle
199.0,3.0,3.0,0.0,3.0,3.0,309.3502790434286,1.0,1.0,part_1,,,,,,,,,,,,,magenta,circle
49.0,1.0,1.0,0.0,1.0,1.0,363.9515429968014,1.0,1.0,part_1,,,,,,,,,,,,,green,triangle
195.0,7.0,3.0,1.0,2.0,2.0,286.9316309806891,1.0,1.0,part_1,,,,,,,,,,,,,gray,cross
105.0,2.0,2.0,0.0,1.0,1.0,243.2593019912019,1.0,1.0,part_1,,,,,,,,,,,,,blue,I
73.0,5.0,1.0,1.0,4.0,4.0,283.1366410246119,1.0,1.0,part_1,,,,,,,,,,,,,yellow,hexagon
184.0,7.0,3.0,1.0,1.0,1.0,320.9902299568057,1.0,1.0,part_1,,,,,,,,,,,,,gray,cross
98.0,6.0,2.0,1.0,3.0,3.0,281.2807819573208,1.0,1.0,part_1,,,,,,,,,,,,,cyan,square
199.0,7.0,3.0,1.0,1.0,1.0,287.0055650128051,1.0,1.0,part_1,,,,,,,,,,,,,gray,cross
0.0,5.0,0.0,1.0,1.0,1.0,364.5986230112612,1.0,1.0,part_1,,,,,,,,,,,,,yellow,hexagon
92.0,6.0,2.0,1.0,1.0,1.0,297.7874730131589,1.0,1.0,part_1,,,,,,,,,,,,,cyan,square
41.0,5.0,1.0,1.0,4.0,4.0,361.6201100521721,1.0,2.0,part_1,,,,,,,,,,,,,yellow,hexagon
398.0,8.0,4.0,1.0,1.0,1.0,382.1991730364971,1.0,1.0,part_1,,,,,,,,,,,,,orange,diamond
214.0,7.0,3.0,1.0,2.0,2.0,372.8595440043136,1.0,1.0,part_1,,,,,,,,,,,,,gray,cross
382.0,4.0,4.0,0.0,3.0,3.0,303.8303140201606,1.0,1.0,part_1,,,,,,,,,,,,,white,flipped triangle
400.0,4.0,4.0,0.0,2.0,2.0,342.3660740372725,1.0,1.0,part_1,,,,,,,,,,,,,white,flipped triangle
404.0,4.0,4.0,0.0,3.0,3.0,324.4102270109579,1.0,1.0,part_1,,,,,,,,,,,,,white,flipped triangle
200.0,7.0,3.0,1.0,4.0,4.0,337.2640550369397,1.0,1.0,part_1,,,,,,,,,,,,,gray,cross
423.0,8.0,4.0,1.0,3.0,3.0,325.4194049513899,1.0,1.0,part_1,,,,,,,,,,,,,orange,diamond
63.0,5.0,1.0,1.0,3.0,3.0,366.4757349761203,1.0,1.0,part_1,,,,,,,,,,,,,yellow,hexagon
0.0,1.0,0.0,0.0,3.0,3.0,308.7992240325548,1.0,1.0,part_1,,,,,,,,,,,,,green,triangle
0.0,8.0,0.0,1.0,2.0,2.0,304.5336839859374,1.0,1.0,part_1,,,,,,,,,,,,,orange,diamond
0.0,4.0,0.0,0.0,2.0,2.0,372.6111119613051,1.0,1.0,part_1,,,,,,,,,,,,,white,flipped triangle
98.0,6.0,2.0,1.0,1.0,1.0,467.248177039437,1.0,1.0,part_1,,,,,,,,,,,,,cyan,square
44.0,1.0,1.0,0.0,3.0,3.0,310.6217900058254,1.0,1.0,part_1,,,,,,,,,,,,,green,triangle
0.0,3.0,0.0,0.0,4.0,4.0,426.5836569829844,1.0,1.0,part_1,,,,,,,,,,,,,magenta,circle
70.0,1.0,1.0,0.0,2.0,2.0,299.0636529866606,1.0,1.0,part_1,,,,,,,,,,,,,green,triangle
53.0,5.0,1.0,1.0,3.0,3.0,263.0935090128332,1.0,1.0,part_1,,,,,,,,,,,,,yellow,hexagon
188.0,7.0,3.0,1.0,3.0,3.0,322.6952960249036,1.0,1.0,part_1,,,,,,,,,,,,,gray,cross
177.0,7.0,3.0,1.0,3.0,3.0,311.3173290039412,1.0,1.0,part_1,,,,,,,,,,,,,gray,cross
56.0,1.0,1.0,0.0,2.0,2.0,300.1362399663776,1.0,1.0,part_1,,,,,,,,,,,,,green,triangle
0.0,3.0,0.0,0.0,3.0,3.0,294.9467740254476,1.0,1.0,part_1,,,,,,,,,,,,,magenta,circle
29.0,1.0,1.0,0.0,1.0,1.0,333.0611850251443,1.0,1.0,part_1,,,,,,,,,,,,,green,triangle
184.0,7.0,3.0,1.0,2.0,2.0,314.6618150058202,1.0,1.0,part_1,,,,,,,,,,,,,gray,cross
213.0,7.0,3.0,1.0,1.0,1.0,357.5577790034003,1.0,1.0,part_1,,,,,,,,,,,,,gray,cross
0.0,3.0,0.0,0.0,3.0,3.0,309.5366470515728,1.0,1.0,part_1,,,,,,,,,,,,,magenta,circle
410.0,8.0,4.0,1.0,3.0,3.0,345.2178309671581,1.0,1.0,part_1,,,,,,,,,,,,,orange,diamond
223.0,3.0,3.0,0.0,3.0,3.0,372.8057040134445,2.0,1.0,part_1,,,,,,,,,,,,,magenta,circle
388.0,4.0,4.0,0.0,2.0,2.0,308.6775380070321,2.0,1.0,part_1,,,,,,,,,,,,,white,flipped triangle
409.0,4.0,4.0,0.0,3.0,3.0,280.8766840025782,2.0,1.0,part_1,,,,,,,,,,,,,white,flipped triangle
73.0,1.0,1.0,0.0,1.0,1.0,222.8644679998979,2.0,1.0,part_1,,,,,,,,,,,,,green,triangle
0.0,1.0,0.0,0.0,1.0,1.0,280.1337169948965,2.0,1.0,part_1,,,,,,,,,,,,,green,triangle
74.0,1.0,1.0,0.0,2.0,2.0,270.3306450275704,2.0,1.0,part_1,,,,,,,,,,,,,green,triangle
105.0,2.0,2.0,0.0,3.0,3.0,332.3983369627967,2.0,1.0,part_1,,,,,,,,,,,,,blue,I
66.0,1.0,1.0,0.0,3.0,3.0,304.9341959995217,2.0,1.0,part_1,,,,,,,,,,,,,green,triangle
218.0,3.0,3.0,0.0,2.0,2.0,254.03050798922771,2.0,1.0,part_1,,,,,,,,,,,,,magenta,circle
205.0,3.0,3.0,0.0,1.0,1.0,402.1262750029564,2.0,1.0,part_1,,,,,,,,,,,,,magenta,circle
382.0,8.0,4.0,1.0,4.0,4.0,316.151887003798,2.0,1.0,part_1,,,,,,,,,,,,,orange,diamond
420.0,8.0,4.0,1.0,2.0,2.0,216.9307800359092,2.0,1.0,part_1,,,,,,,,,,,,,orange,diamond
30.0,1.0,1.0,0.0,1.0,1.0,296.2358170188963,2.0,1.0,part_1,,,,,,,,,,,,,green,triangle
0.0,8.0,0.0,1.0,1.0,1.0,290.7434810185805,2.0,1.0,part_1,,,,,,,,,,,,,orange,diamond
204.0,3.0,3.0,0.0,3.0,3.0,318.8721340266056,2.0,1.0,part_1,,,,,,,,,,,,,magenta,circle
204.0,3.0,3.0,0.0,4.0,4.0,363.4753039805218,2.0,1.0,part_1,,,,,,,,,,,,,magenta,circle
0.0,5.0,0.0,1.0,3.0,3.0,300.046004995238,2.0,1.0,part_1,,,,,,,,,,,,,yellow,hexagon
31.0,5.0,1.0,1.0,4.0,4.0,247.587445017416,2.0,1.0,part_1,,,,,,,,,,,,,yellow,hexagon
0.0,2.0,0.0,0.0,3.0,3.0,283.4576059831306,2.0,1.0,part_1,,,,,,,,,,,,,blue,I
400.0,8.0,4.0,1.0,2.0,2.0,254.1991689940914,2.0,1.0,part_1,,,,,,,,,,,,,orange,diamond
100.0,6.0,2.0,1.0,3.0,3.0,283.5140809766017,2.0,1.0,part_1,,,,,,,,,,,,,cyan,square
59.0,5.0,1.0,1.0,3.0,3.0,287.582466029562,2.0,1.0,part_1,,,,,,,,,,,,,yellow,hexagon
0.0,4.0,0.0,0.0,4.0,4.0,292.5330759608187,2.0,1.0,part_1,,,,,,,,,,,,,white,flipped triangle
180.0,3.0,3.0,0.0,2.0,2.0,241.93442496471098,2.0,1.0,part_1,,,,,,,,,,,,,magenta,circle
111.0,2.0,2.0,0.0,4.0,4.0,413.8540800195187,2.0,1.0,part_1,,,,,,,,,,,,,blue,I
100.0,6.0,2.0,1.0,1.0,1.0,378.0951109947637,2.0,1.0,part_1,,,,,,,,,,,,,cyan,square
211.0,3.0,3.0,0.0,2.0,2.0,303.5556199611164,2.0,1.0,part_1,,,,,,,,,,,,,magenta,circle
392.0,8.0,4.0,1.0,4.0,4.0,316.8851830414496,2.0,1.0,part_1,,,,,,,,,,,,,orange,diamond
215.0,7.0,3.0,1.0,1.0,1.0,298.8448680262081,2.0,1.0,part_1,,,,,,,,,,,,,gray,cross
82.0,2.0,2.0,0.0,1.0,1.0,303.6519960151054,2.0,1.0,part_1,,,,,,,,,,,,,blue,I
101.0,6.0,2.0,1.0,3.0,3.0,305.5946740205399,2.0,1.0,part_1,,,,,,,,,,,,,cyan,square
78.0,6.0,2.0,1.0,1.0,1.0,321.4789500343613,2.0,1.0,part_1,,,,,,,,,,,,,cyan,square
380.0,8.0,4.0,1.0,3.0,3.0,306.3993029645644,2.0,2.0,part_1,,,,,,,,,,,,,orange,diamond
80.0,6.0,2.0,1.0,4.0,4.0,311.3104150397703,2.0,1.0,part_1,,,,,,,,,,,,,cyan,square
78.0,2.0,2.0,0.0,1.0,1.0,312.8653300227597,2.0,1.0,part_1,,,,,,,,,,,,,blue,I
192.0,3.0,3.0,0.0,1.0,1.0,303.7196550285443,2.0,1.0,part_1,,,,,,,,,,,,,magenta,circle
88.0,6.0,2.0,1.0,4.0,4.0,323.6794259864837,2.0,1.0,part_1,,,,,,,,,,,,,cyan,square
0.0,1.0,0.0,0.0,1.0,1.0,325.7152599981054,2.0,2.0,part_1,,,,,,,,,,,,,green,triangle
0.0,6.0,0.0,1.0,3.0,3.0,336.3383249961771,2.0,1.0,part_1,,,,,,,,,,,,,cyan,square
204.0,7.0,3.0,1.0,4.0,4.0,415.3912799665704,2.0,1.0,part_1,,,,,,,,,,,,,gray,cross
115.0,2.0,2.0,0.0,2.0,2.0,292.6757970126346,2.0,1.0,part_1,,,,,,,,,,,,,blue,I
86.0,6.0,2.0,1.0,2.0,2.0,319.0142799867317,2.0,1.0,part_1,,,,,,,,,,,,,cyan,square
105.0,6.0,2.0,1.0,1.0,1.0,316.3095130003057,2.0,1.0,part_1,,,,,,,,,,,,,cyan,square
63.0,1.0,1.0,0.0,2.0,2.0,298.7727479776367,2.0,1.0,part_1,,,,,,,,,,,,,green,triangle
187.0,3.0,3.0,0.0,4.0,4.0,413.3526370278559,2.0,1.0,part_1,,,,,,,,,,,,,magenta,circle
0.0,1.0,0.0,0.0,3.0,3.0,338.9424529741518,2.0,1.0,part_1,,,,,,,,,,,,,green,triangle
64.0,1.0,1.0,0.0,1.0,1.0,295.8367390092462,2.0,1.0,part_1,,,,,,,,,,,,,green,triangle
0.0,2.0,0.0,0.0,3.0,3.0,316.1733550368808,2.0,1.0,part_1,,,,,,,,,,,,,blue,I
0.0,7.0,0.0,1.0,1.0,1.0,295.4824560438283,2.0,1.0,part_1,,,,,,,,,,,,,gray,cross
0.0,4.0,0.0,0.0,4.0,4.0,307.6061480096541,2.0,1.0,part_1,,,,,,,,,,,,,white,flipped triangle
108.0,6.0,2.0,1.0,2.0,2.0,264.2537059728056,2.0,1.0,part_1,,,,,,,,,,,,,cyan,square
385.0,4.0,4.0,0.0,1.0,1.0,430.5468570091761,2.0,1.0,part_1,,,,,,,,,,,,,white,flipped triangle
82.0,6.0,2.0,1.0,3.0,3.0,298.6378679634072,2.0,1.0,part_1,,,,,,,,,,,,,cyan,square
94.0,6.0,2.0,1.0,1.0,1.0,304.2186530074104,2.0,1.0,part_1,,,,,,,,,,,,,cyan,square
0.0,5.0,0.0,1.0,3.0,3.0,291.3497420377098,2.0,1.0,part_1,,,,,,,,,,,,,yellow,hexagon
184.0,3.0,3.0,0.0,4.0,4.0,291.1440460011363,2.0,1.0,part_1,,,,,,,,,,,,,magenta,circle
111.0,6.0,2.0,1.0,4.0,4.0,300.4798869951628,2.0,1.0,part_1,,,,,,,,,,,,,cyan,square
391.0,4.0,4.0,0.0,1.0,1.0,386.0469100181944,2.0,1.0,part_1,,,,,,,,,,,,,white,flipped triangle
221.0,3.0,3.0,0.0,1.0,1.0,328.276148007717,2.0,1.0,part_1,,,,,,,,,,,,,magenta,circle
36.0,1.0,1.0,0.0,4.0,4.0,349.5325979893096,2.0,1.0,part_1,,,,,,,,,,,,,green,triangle
74.0,5.0,1.0,1.0,3.0,3.0,337.3157920432277,2.0,1.0,part_1,,,,,,,,,,,,,yellow,hexagon
38.0,1.0,1.0,0.0,4.0,4.0,314.8787629907019,2.0,2.0,part_1,,,,,,,,,,,,,green,triangle
123.0,2.0,2.0,0.0,3.0,3.0,319.5470920181833,2.0,1.0,part_1,,,,,,,,,,,,,blue,I
32.0,1.0,1.0,0.0,2.0,2.0,291.7946919915266,2.0,1.0,part_1,,,,,,,,,,,,,green,triangle
0.0,4.0,0.0,0.0,1.0,1.0,377.4912140215747,2.0,1.0,part_1,,,,,,,,,,,,,white,flipped triangle
423.0,4.0,4.0,0.0,1.0,1.0,319.0548549755476,2.0,1.0,part_1,,,,,,,,,,,,,white,flipped triangle
188.0,3.0,3.0,0.0,1.0,1.0,306.722514971625,2.0,1.0,part_1,,,,,,,,,,,,,magenta,circle
0.0,6.0,0.0,1.0,3.0,3.0,296.5191929833963,2.0,1.0,part_1,,,,,,,,,,,,,cyan,square
31.0,5.0,1.0,1.0,1.0,1.0,234.6349550061859,2.0,1.0,part_1,,,,,,,,,,,,,yellow,hexagon
411.0,8.0,4.0,1.0,1.0,1.0,311.4974609925411,2.0,1.0,part_1,,,,,,,,,,,,,orange,diamond
56.0,5.0,1.0,1.0,1.0,1.0,299.0112869883887,2.0,1.0,part_1,,,,,,,,,,,,,yellow,hexagon
123.0,6.0,2.0,1.0,2.0,2.0,345.3596250037662,2.0,1.0,part_1,,,,,,,,,,,,,cyan,square
192.0,7.0,3.0,1.0,3.0,3.0,320.4463059664704,2.0,1.0,part_1,,,,,,,,,,,,,gray,cross
66.0,5.0,1.0,1.0,3.0,3.0,307.8053090139292,2.0,1.0,part_1,,,,,,,,,,,,,yellow,hexagon
47.0,5.0,1.0,1.0,3.0,3.0,313.4094899869524,2.0,1.0,part_1,,,,,,,,,,,,,yellow,hexagon
88.0,2.0,2.0,0.0,4.0,4.0,374.0918450057506,2.0,1.0,part_1,,,,,,,,,,,,,blue,I
103.0,2.0,2.0,0.0,4.0,4.0,319.4899510126561,2.0,1.0,part_1,,,,,,,,,,,,,blue,I
191.0,7.0,3.0,1.0,2.0,2.0,303.1440519844182,2.0,1.0,part_1,,,,,,,,,,,,,gray,cross
180.0,7.0,3.0,1.0,1.0,1.0,337.1426389785483,2.0,1.0,part_1,,,,,,,,,,,,,gray,cross
53.0,1.0,1.0,0.0,1.0,1.0,333.235134021379,2.0,1.0,part_1,,,,,,,,,,,,,green,triangle
411.0,4.0,4.0,0.0,1.0,1.0,299.5166520122438,2.0,1.0,part_1,,,,,,,,,,,,,white,flipped triangle
410.0,4.0,4.0,0.0,2.0,2.0,286.5665740100667,2.0,1.0,part_1,,,,,,,,,,,,,white,flipped triangle
0.0,1.0,0.0,0.0,3.0,3.0,347.7413830114528,2.0,1.0,part_1,,,,,,,,,,,,,green,triangle
83.0,2.0,2.0,0.0,4.0,4.0,335.1912350044586,2.0,2.0,part_1,,,,,,,,,,,,,blue,I
49.0,5.0,1.0,1.0,1.0,1.0,307.4166040169075,2.0,1.0,part_1,,,,,,,,,,,,,yellow,hexagon
209.0,7.0,3.0,1.0,2.0,2.0,302.7917469735257,2.0,1.0,part_1,,,,,,,,,,,,,gray,cross
0.0,6.0,0.0,1.0,4.0,4.0,339.5871559623629,2.0,1.0,part_1,,,,,,,,,,,,,cyan,square
208.0,7.0,3.0,1.0,1.0,1.0,319.3358500138856,2.0,1.0,part_1,,,,,,,,,,,,,gray,cross
95.0,6.0,2.0,1.0,1.0,1.0,316.2977509782649,2.0,1.0,part_1,,,,,,,,,,,,,cyan,square
404.0,4.0,4.0,0.0,1.0,1.0,274.1874060011469,2.0,1.0,part_1,,,,,,,,,,,,,white,flipped triangle
0.0,8.0,0.0,1.0,2.0,2.0,295.4060269985348,2.0,1.0,part_1,,,,,,,,,,,,,orange,diamond
98.0,6.0,2.0,1.0,3.0,3.0,356.0969730024226,2.0,1.0,part_1,,,,,,,,,,,,,cyan,square
94.0,2.0,2.0,0.0,3.0,3.0,336.649207980372,2.0,1.0,part_1,,,,,,,,,,,,,blue,I
198.0,7.0,3.0,1.0,2.0,2.0,431.1966840177774,2.0,1.0,part_1,,,,,,,,,,,,,gray,cross
0.0,7.0,0.0,1.0,4.0,4.0,336.1291370238177,2.0,1.0,part_1,,,,,,,,,,,,,gray,cross
0.0,2.0,0.0,0.0,3.0,3.0,335.9963209950365,2.0,1.0,part_1,,,,,,,,,,,,,blue,I
115.0,2.0,2.0,0.0,4.0,4.0,348.3589570387266,2.0,1.0,part_1,,,,,,,,,,,,,blue,I
94.0,6.0,2.0,1.0,2.0,2.0,257.8328320523724,2.0,1.0,part_1,,,,,,,,,,,,,cyan,square
115.0,6.0,2.0,1.0,3.0,3.0,274.7924780123867,2.0,1.0,part_1,,,,,,,,,,,,,cyan,square
423.0,4.0,4.0,0.0,3.0,3.0,319.7651359951123,2.0,1.0,part_1,,,,,,,,,,,,,white,flipped triangle
44.0,5.0,1.0,1.0,1.0,1.0,333.6333290208131,3.0,1.0,part_1,,,,,,,,,,,,,yellow,hexagon
70.0,5.0,1.0,1.0,2.0,2.0,242.7229739842005,3.0,1.0,part_1,,,,,,,,,,,,,yellow,hexagon
214.0,3.0,3.0,0.0,1.0,1.0,324.912822979968,3.0,1.0,part_1,,,,,,,,,,,,,magenta,circle
401.0,4.0,4.0,0.0,3.0,3.0,300.4265070194378,3.0,1.0,part_1,,,,,,,,,,,,,white,flipped triangle
0.0,3.0,0.0,0.0,1.0,1.0,328.7732169847004,3.0,1.0,part_1,,,,,,,,,,,,,magenta,circle
197.0,7.0,3.0,1.0,1.0,1.0,336.8633840000257,3.0,2.0,part_1,,,,,,,,,,,,,gray,cross
124.0,2.0,2.0,0.0,1.0,1.0,332.7181889908388,3.0,1.0,part_1,,,,,,,,,,,,,blue,I
0.0,8.0,0.0,1.0,2.0,2.0,299.9187590321526,3.0,1.0,part_1,,,,,,,,,,,,,orange,diamond
57.0,1.0,1.0,0.0,4.0,4.0,378.1031300313771,3.0,1.0,part_1,,,,,,,,,,,,,green,triangle
0.0,7.0,0.0,1.0,2.0,2.0,323.9696089876815,3.0,1.0,part_1,,,,,,,,,,,,,gray,cross
191.0,3.0,3.0,0.0,2.0,2.0,311.3816249533556,3.0,1.0,part_1,,,,,,,,,,,,,magenta,circle
0.0,8.0,0.0,1.0,4.0,4.0,327.933705993928,3.0,1.0,part_1,,,,,,,,,,,,,orange,diamond
115.0,6.0,2.0,1.0,1.0,1.0,274.5768119930289,3.0,1.0,part_1,,,,,,,,,,,,,cyan,square
404.0,8.0,4.0,1.0,3.0,3.0,237.7347690053284,3.0,1.0,part_1,,,,,,,,,,,,,orange,diamond
201.0,7.0,3.0,1.0,1.0,1.0,402.0427409559488,3.0,1.0,part_1,,,,,,,,,,,,,gray,cross
56.0,1.0,1.0,0.0,3.0,3.0,241.03342997841528,3.0,1.0,part_1,,,,,,,,,,,,,green,triangle
0.0,6.0,0.0,1.0,4.0,4.0,380.7897819788195,3.0,1.0,part_1,,,,,,,,,,,,,cyan,square
391.0,8.0,4.0,1.0,1.0,1.0,341.1497810157016,3.0,2.0,part_1,,,,,,,,,,,,,orange,diamond
392.0,8.0,4.0,1.0,1.0,1.0,388.2034529815428,3.0,1.0,part_1,,,,,,,,,,,,,orange,diamond
0.0,4.0,0.0,0.0,4.0,4.0,337.3321820399724,3.0,1.0,part_1,,,,,,,,,,,,,white,flipped triangle
0.0,6.0,0.0,1.0,1.0,1.0,308.8322880212217,3.0,1.0,part_1,,,,,,,,,,,,,cyan,square
191.0,7.0,3.0,1.0,3.0,3.0,327.8344020363875,3.0,1.0,part_1,,,,,,,,,,,,,gray,cross
41.0,1.0,1.0,0.0,2.0,2.0,319.0474479924887,3.0,1.0,part_1,,,,,,,,,,,,,green,triangle
409.0,4.0,4.0,0.0,4.0,4.0,372.459375008475,3.0,1.0,part_1,,,,,,,,,,,,,white,flipped triangle
80.0,2.0,2.0,0.0,4.0,4.0,369.5181920193136,3.0,1.0,part_1,,,,,,,,,,,,,blue,I
213.0,3.0,3.0,0.0,3.0,3.0,357.9897350282408,3.0,1.0,part_1,,,,,,,,,,,,,magenta,circle
409.0,4.0,4.0,0.0,2.0,2.0,296.0220379754901,3.0,1.0,part_1,,,,,,,,,,,,,white,flipped triangle
186.0,7.0,3.0,1.0,4.0,4.0,340.6847710139118,3.0,1.0,part_1,,,,,,,,,,,,,gray,cross
400.0,8.0,4.0,1.0,1.0,1.0,345.7781239994801,3.0,1.0,part_1,,,,,,,,,,,,,orange,diamond
177.0,3.0,3.0,0.0,4.0,4.0,357.584893994499,3.0,1.0,part_1,,,,,,,,,,,,,magenta,circle
0.0,8.0,0.0,1.0,4.0,4.0,306.9583000033162,3.0,1.0,part_1,,,,,,,,,,,,,orange,diamond
59.0,1.0,1.0,0.0,4.0,4.0,305.0717879668809,3.0,1.0,part_1,,,,,,,,,,,,,green,triangle
388.0,8.0,4.0,1.0,2.0,2.0,323.7543040304445,3.0,1.0,part_1,,,,,,,,,,,,,orange,diamond
392.0,4.0,4.0,0.0,4.0,4.0,418.9022739883512,3.0,1.0,part_1,,,,,,,,,,,,,white,flipped triangle
385.0,8.0,4.0,1.0,2.0,2.0,364.5660940092057,3.0,1.0,part_1,,,,,,,,,,,,,orange,diamond
81.0,6.0,2.0,1.0,4.0,4.0,249.1203269455582,3.0,1.0,part_1,,,,,,,,,,,,,cyan,square
202.0,7.0,3.0,1.0,3.0,3.0,336.6457839729264,3.0,1.0,part_1,,,,,,,,,,,,,gray,cross
386.0,8.0,4.0,1.0,2.0,2.0,340.6019539688714,3.0,1.0,part_1,,,,,,,,,,,,,orange,diamond
31.0,1.0,1.0,0.0,4.0,4.0,312.2862599557265,3.0,1.0,part_1,,,,,,,,,,,,,green,triangle
73.0,1.0,1.0,0.0,3.0,3.0,303.4266189788468,3.0,1.0,part_1,,,,,,,,,,,,,green,triangle
65.0,5.0,1.0,1.0,4.0,4.0,328.8853639969602,3.0,1.0,part_1,,,,,,,,,,,,,yellow,hexagon
404.0,8.0,4.0,1.0,3.0,3.0,296.4040060178377,3.0,1.0,part_1,,,,,,,,,,,,,orange,diamond
94.0,2.0,2.0,0.0,3.0,3.0,402.392936986871,3.0,1.0,part_1,,,,,,,,,,,,,blue,I
53.0,1.0,1.0,0.0,1.0,1.0,382.6743940007873,3.0,1.0,part_1,,,,,,,,,,,,,green,triangle
201.0,3.0,3.0,0.0,4.0,4.0,326.5372090390883,3.0,1.0,part_1,,,,,,,,,,,,,magenta,circle
204.0,7.0,3.0,1.0,2.0,2.0,394.6381220011972,3.0,1.0,part_1,,,,,,,,,,,,,gray,cross
66.0,1.0,1.0,0.0,4.0,4.0,337.10272598546,3.0,1.0,part_1,,,,,,,,,,,,,green,triangle
0.0,7.0,0.0,1.0,4.0,4.0,389.6346899564378,3.0,1.0,part_1,,,,,,,,,,,,,gray,cross
194.0,7.0,3.0,1.0,4.0,4.0,338.3991979644634,3.0,1.0,part_1,,,,,,,,,,,,,gray,cross
223.0,3.0,3.0,0.0,2.0,2.0,395.8074430120177,3.0,1.0,part_1,,,,,,,,,,,,,magenta,circle
414.0,4.0,4.0,0.0,3.0,3.0,283.6013699998148,3.0,1.0,part_1,,,,,,,,,,,,,white,flipped triangle
398.0,4.0,4.0,0.0,4.0,4.0,335.4345129919238,3.0,1.0,part_1,,,,,,,,,,,,,white,flipped triangle
0.0,2.0,0.0,0.0,1.0,1.0,353.746751032304,3.0,1.0,part_1,,,,,,,,,,,,,blue,I
191.0,3.0,3.0,0.0,1.0,1.0,383.2859529647976,3.0,1.0,part_1,,,,,,,,,,,,,magenta,circle
385.0,4.0,4.0,0.0,1.0,1.0,357.9332889639772,3.0,1.0,part_1,,,,,,,,,,,,,white,flipped triangle
380.0,4.0,4.0,0.0,1.0,1.0,345.0815730029717,3.0,1.0,part_1,,,,,,,,,,,,,white,flipped triangle
209.0,3.0,3.0,0.0,4.0,4.0,459.0865570353344,3.0,2.0,part_1,,,,,,,,,,,,,magenta,circle
30.0,5.0,1.0,1.0,2.0,2.0,366.3302149507217,3.0,1.0,part_1,,,,,,,,,,,,,yellow,hexagon
45.0,5.0,1.0,1.0,4.0,4.0,314.9662770447321,3.0,1.0,part_1,,,,,,,,,,,,,yellow,hexagon
198.0,3.0,3.0,0.0,1.0,1.0,398.34109600633377,3.0,1.0,part_1,,,,,,,,,,,,,magenta,circle
81.0,2.0,2.0,0.0,4.0,4.0,339.314547018148,3.0,1.0,part_1,,,,,,,,,,,,,blue,I
65.0,1.0,1.0,0.0,3.0,3.0,546.2677699979395,3.0,1.0,part_1,,,,,,,,,,,,,green,triangle
405.0,8.0,4.0,1.0,3.0,3.0,376.5779720270075,3.0,1.0,part_1,,,,,,,,,,,,,orange,diamond
115.0,2.0,2.0,0.0,4.0,4.0,321.073992003221,3.0,1.0,part_1,,,,,,,,,,,,,blue,I
0.0,8.0,0.0,1.0,1.0,1.0,385.9656970016658,3.0,1.0,part_1,,,,,,,,,,,,,orange,diamond
0.0,1.0,0.0,0.0,1.0,1.0,357.7208719798364,3.0,1.0,part_1,,,,,,,,,,,,,green,triangle
106.0,6.0,2.0,1.0,4.0,4.0,371.0960039752535,3.0,1.0,part_1,,,,,,,,,,,,,cyan,square
83.0,6.0,2.0,1.0,4.0,4.0,325.0772409955971,3.0,1.0,part_1,,,,,,,,,,,,,cyan,square
122.0,6.0,2.0,1.0,2.0,2.0,344.4184779655188,3.0,1.0,part_1,,,,,,,,,,,,,cyan,square
0.0,4.0,0.0,0.0,3.0,3.0,360.8720999909565,3.0,1.0,part_1,,,,,,,,,,,,,white,flipped triangle
27.0,5.0,1.0,1.0,2.0,2.0,316.1319750361144,3.0,1.0,part_1,,,,,,,,,,,,,yellow,hexagon
64.0,5.0,1.0,1.0,3.0,3.0,275.0405630213208,3.0,1.0,part_1,,,,,,,,,,,,,yellow,hexagon
83.0,2.0,2.0,0.0,2.0,2.0,365.6139869708568,3.0,1.0,part_1,,,,,,,,,,,,,blue,I
0.0,1.0,0.0,0.0,4.0,4.0,344.4565660320222,3.0,1.0,part_1,,,,,,,,,,,,,green,triangle
115.0,6.0,2.0,1.0,3.0,3.0,372.860713978298,3.0,1.0,part_1,,,,,,,,,,,,,cyan,square
405.0,4.0,4.0,0.0,3.0,3.0,345.5797390197404,3.0,1.0,part_1,,,,,,,,,,,,,white,flipped triangle
208.0,3.0,3.0,0.0,4.0,4.0,438.9833059976809,3.0,1.0,part_1,,,,,,,,,,,,,magenta,circle
223.0,7.0,3.0,1.0,3.0,3.0,350.5673879990354,3.0,1.0,part_1,,,,,,,,,,,,,gray,cross
215.0,3.0,3.0,0.0,3.0,3.0,346.4258030289784,3.0,1.0,part_1,,,,,,,,,,,,,magenta,circle
414.0,8.0,4.0,1.0,4.0,4.0,349.1877719643526,3.0,1.0,part_1,,,,,,,,,,,,,orange,diamond
34.0,5.0,1.0,1.0,2.0,2.0,393.3988279895857,3.0,1.0,part_1,,,,,,,,,,,,,yellow,hexagon
0.0,5.0,0.0,1.0,2.0,2.0,283.3997759735212,3.0,2.0,part_1,,,,,,,,,,,,,yellow,hexagon
0.0,5.0,0.0,1.0,3.0,3.0,258.265157986898,3.0,1.0,part_1,,,,,,,,,,,,,yellow,hexagon
64.0,5.0,1.0,1.0,4.0,4.0,541.8256419943646,3.0,1.0,part_1,,,,,,,,,,,,,yellow,hexagon
405.0,4.0,4.0,0.0,4.0,4.0,373.1384749989956,3.0,2.0,part_1,,,,,,,,,,,,,white,flipped triangle
122.0,2.0,2.0,0.0,2.0,2.0,394.4228820037097,3.0,1.0,part_1,,,,,,,,,,,,,blue,I
93.0,2.0,2.0,0.0,2.0,2.0,374.6695739682764,3.0,1.0,part_1,,,,,,,,,,,,,blue,I
0.0,7.0,0.0,1.0,2.0,2.0,419.9842419475317,3.0,1.0,part_1,,,,,,,,,,,,,gray,cross
191.0,7.0,3.0,1.0,4.0,4.0,386.7455489817075,3.0,1.0,part_1,,,,,,,,,,,,,gray,cross
194.0,3.0,3.0,0.0,4.0,4.0,349.2743300157599,3.0,1.0,part_1,,,,,,,,,,,,,magenta,circle
83.0,6.0,2.0,1.0,3.0,3.0,401.8647809862159,3.0,1.0,part_1,,,,,,,,,,,,,cyan,square
64.0,5.0,1.0,1.0,1.0,1.0,529.0024119894952,3.0,1.0,part_1,,,,,,,,,,,,,yellow,hexagon
117.0,2.0,2.0,0.0,1.0,1.0,421.6610330040566,3.0,1.0,part_1,,,,,,,,,,,,,blue,I
73.0,5.0,1.0,1.0,2.0,2.0,385.5669890181161,3.0,1.0,part_1,,,,,,,,,,,,,yellow,hexagon
221.0,7.0,3.0,1.0,3.0,3.0,323.7108559696935,3.0,1.0,part_1,,,,,,,,,,,,,gray,cross
411.0,4.0,4.0,0.0,1.0,1.0,443.4855140279978,3.0,1.0,part_1,,,,,,,,,,,,,white,flipped triangle
0.0,5.0,0.0,1.0,2.0,2.0,406.1999149853363,3.0,1.0,part_1,,,,,,,,,,,,,yellow,hexagon
409.0,8.0,4.0,1.0,3.0,3.0,299.5173549861647,3.0,1.0,part_1,,,,,,,,,,,,,orange,diamond
45.0,1.0,1.0,0.0,4.0,4.0,376.213469018694,3.0,1.0,part_1,,,,,,,,,,,,,green,triangle
416.0,8.0,4.0,1.0,4.0,4.0,355.4878309951164,3.0,1.0,part_1,,,,,,,,,,,,,orange,diamond
58.0,5.0,1.0,1.0,1.0,1.0,382.3911949875764,4.0,1.0,part_1,,,,,,,,,,,,,yellow,hexagon
100.0,2.0,2.0,0.0,1.0,1.0,304.670866986271,4.0,1.0,part_1,,,,,,,,,,,,,blue,I
76.0,6.0,2.0,1.0,2.0,2.0,281.0840230085887,4.0,1.0,part_1,,,,,,,,,,,,,cyan,square
45.0,1.0,1.0,0.0,2.0,2.0,309.5055909943767,4.0,1.0,part_1,,,,,,,,,,,,,green,triangle
420.0,4.0,4.0,0.0,2.0,2.0,431.0745869879611,4.0,1.0,part_1,,,,,,,,,,,,,white,flipped triangle
31.0,1.0,1.0,0.0,2.0,2.0,381.720049015712,4.0,1.0,part_1,,,,,,,,,,,,,green,triangle
379.0,8.0,4.0,1.0,4.0,4.0,307.7118960209191,4.0,1.0,part_1,,,,,,,,,,,,,orange,diamond
105.0,2.0,2.0,0.0,1.0,1.0,316.625859006308,4.0,1.0,part_1,,,,,,,,,,,,,blue,I
220.0,7.0,3.0,1.0,1.0,1.0,324.88059299066657,4.0,1.0,part_1,,,,,,,,,,,,,gray,cross
0.0,7.0,0.0,1.0,4.0,4.0,312.2790440102108,4.0,1.0,part_1,,,,,,,,,,,,,gray,cross
0.0,3.0,0.0,0.0,3.0,3.0,332.8620379907079,4.0,1.0,part_1,,,,,,,,,,,,,magenta,circle
0.0,1.0,0.0,0.0,3.0,3.0,296.2812250480056,4.0,1.0,part_1,,,,,,,,,,,,,green,triangle
44.0,5.0,1.0,1.0,3.0,3.0,222.0814179745502,4.0,1.0,part_1,,,,,,,,,,,,,yellow,hexagon
201.0,7.0,3.0,1.0,4.0,4.0,274.7530890046619,4.0,1.0,part_1,,,,,,,,,,,,,gray,cross
222.0,7.0,3.0,1.0,2.0,2.0,345.1824829680845,4.0,1.0,part_1,,,,,,,,,,,,,gray,cross
47.0,1.0,1.0,0.0,1.0,1.0,299.118737981189,4.0,1.0,part_1,,,,,,,,,,,,,green,triangle
0.0,3.0,0.0,0.0,4.0,4.0,273.7260470166802,4.0,1.0,part_1,,,,,,,,,,,,,magenta,circle
195.0,3.0,3.0,0.0,2.0,2.0,212.41339499829328,4.0,1.0,part_1,,,,,,,,,,,,,magenta,circle
110.0,6.0,2.0,1.0,4.0,4.0,242.0402700081467,4.0,1.0,part_1,,,,,,,,,,,,,cyan,square
222.0,3.0,3.0,0.0,3.0,3.0,335.9284799662418,4.0,1.0,part_1,,,,,,,,,,,,,magenta,circle
123.0,2.0,2.0,0.0,2.0,2.0,241.9945659930817,4.0,1.0,part_1,,,,,,,,,,,,,blue,I
81.0,2.0,2.0,0.0,3.0,3.0,312.066659971606,4.0,1.0,part_1,,,,,,,,,,,,,blue,I
73.0,1.0,1.0,0.0,3.0,3.0,339.9529589805752,4.0,1.0,part_1,,,,,,,,,,,,,green,triangle
188.0,3.0,3.0,0.0,2.0,2.0,312.1811719611287,4.0,1.0,part_1,,,,,,,,,,,,,magenta,circle
178.0,7.0,3.0,1.0,4.0,4.0,312.4904970172792,4.0,1.0,part_1,,,,,,,,,,,,,gray,cross
423.0,8.0,4.0,1.0,4.0,4.0,333.0796220107004,4.0,1.0,part_1,,,,,,,,,,,,,orange,diamond
92.0,2.0,2.0,0.0,3.0,3.0,333.856821001973,4.0,1.0,part_1,,,,,,,,,,,,,blue,I
94.0,6.0,2.0,1.0,2.0,2.0,316.3488680147566,4.0,1.0,part_1,,,,,,,,,,,,,cyan,square
395.0,4.0,4.0,0.0,2.0,2.0,320.8399180439301,4.0,1.0,part_1,,,,,,,,,,,,,white,flipped triangle
93.0,6.0,2.0,1.0,4.0,4.0,316.0090570454485,4.0,1.0,part_1,,,,,,,,,,,,,cyan,square
35.0,5.0,1.0,1.0,2.0,2.0,251.4722709893249,4.0,1.0,part_1,,,,,,,,,,,,,yellow,hexagon
0.0,3.0,0.0,0.0,1.0,1.0,318.8749839900993,4.0,1.0,part_1,,,,,,,,,,,,,magenta,circle
0.0,1.0,0.0,0.0,1.0,1.0,356.1545119737275,4.0,1.0,part_1,,,,,,,,,,,,,green,triangle
400.0,4.0,4.0,0.0,4.0,4.0,319.5209599798545,4.0,1.0,part_1,,,,,,,,,,,,,white,flipped triangle
94.0,2.0,2.0,0.0,3.0,3.0,365.3523399843834,4.0,1.0,part_1,,,,,,,,,,,,,blue,I
386.0,4.0,4.0,0.0,1.0,1.0,296.6225009877234,4.0,1.0,part_1,,,,,,,,,,,,,white,flipped triangle
188.0,7.0,3.0,1.0,3.0,3.0,324.6721039758995,4.0,1.0,part_1,,,,,,,,,,,,,gray,cross
397.0,4.0,4.0,0.0,2.0,2.0,338.3747840416617,4.0,1.0,part_1,,,,,,,,,,,,,white,flipped triangle
0.0,2.0,0.0,0.0,4.0,4.0,311.6904149646871,4.0,1.0,part_1,,,,,,,,,,,,,blue,I
0.0,7.0,0.0,1.0,1.0,1.0,333.4623659611679,4.0,1.0,part_1,,,,,,,,,,,,,gray,cross
379.0,4.0,4.0,0.0,3.0,3.0,304.2468390194699,4.0,1.0,part_1,,,,,,,,,,,,,white,flipped triangle
388.0,4.0,4.0,0.0,4.0,4.0,303.3361049601808,4.0,1.0,part_1,,,,,,,,,,,,,white,flipped triangle
36.0,5.0,1.0,1.0,2.0,2.0,290.8357729902491,4.0,1.0,part_1,,,,,,,,,,,,,yellow,hexagon
376.0,8.0,4.0,1.0,1.0,1.0,310.2571789640933,4.0,1.0,part_1,,,,,,,,,,,,,orange,diamond
415.0,8.0,4.0,1.0,4.0,4.0,332.1097100269981,4.0,1.0,part_1,,,,,,,,,,,,,orange,diamond
0.0,6.0,0.0,1.0,3.0,3.0,287.6488509937189,4.0,1.0,part_1,,,,,,,,,,,,,cyan,square
98.0,2.0,2.0,0.0,1.0,1.0,332.9704360221512,4.0,1.0,part_1,,,,,,,,,,,,,blue,I
112.0,2.0,2.0,0.0,3.0,3.0,266.874713008292,4.0,1.0,part_1,,,,,,,,,,,,,blue,I
191.0,3.0,3.0,0.0,1.0,1.0,328.9550599874928,4.0,1.0,part_1,,,,,,,,,,,,,magenta,circle
0.0,8.0,0.0,1.0,4.0,4.0,357.6382859610021,4.0,1.0,part_1,,,,,,,,,,,,,orange,diamond
0.0,4.0,0.0,0.0,2.0,2.0,334.8335849586874,4.0,1.0,part_1,,,,,,,,,,,,,white,flipped triangle
411.0,8.0,4.0,1.0,4.0,4.0,331.1137650161981,4.0,1.0,part_1,,,,,,,,,,,,,orange,diamond
66.0,5.0,1.0,1.0,2.0,2.0,319.5445750025101,4.0,1.0,part_1,,,,,,,,,,,,,yellow,hexagon
38.0,1.0,1.0,0.0,4.0,4.0,391.1848909920081,4.0,1.0,part_1,,,,,,,,,,,,,green,triangle
0.0,5.0,0.0,1.0,2.0,2.0,348.7106480170041,4.0,1.0,part_1,,,,,,,,,,,,,yellow,hexagon
33.0,1.0,1.0,0.0,2.0,2.0,353.4053030307404,4.0,1.0,part_1,,,,,,,,,,,,,green,triangle
106.0,2.0,2.0,0.0,4.0,4.0,332.0330540300347,4.0,1.0,part_1,,,,,,,,,,,,,blue,I
384.0,8.0,4.0,1.0,3.0,3.0,553.3209259738214,4.0,1.0,part_1,,,,,,,,,,,,,orange,diamond
29.0,5.0,1.0,1.0,4.0,4.0,351.1406239704229,4.0,1.0,part_1,,,,,,,,,,,,,yellow,hexagon
0.0,5.0,0.0,1.0,3.0,3.0,410.5969759984873,4.0,1.0,part_1,,,,,,,,,,,,,yellow,hexagon
112.0,6.0,2.0,1.0,4.0,4.0,465.3270299895666,4.0,1.0,part_1,,,,,,,,,,,,,cyan,square
400.0,4.0,4.0,0.0,3.0,3.0,306.481237988919,4.0,1.0,part_1,,,,,,,,,,,,,white,flipped triangle
218.0,7.0,3.0,1.0,1.0,1.0,287.3799199587665,4.0,1.0,part_1,,,,,,,,,,,,,gray,cross
105.0,6.0,2.0,1.0,3.0,3.0,293.8749240129255,4.0,1.0,part_1,,,,,,,,,,,,,cyan,square
376.0,4.0,4.0,0.0,4.0,4.0,378.0796419596299,4.0,1.0,part_1,,,,,,,,,,,,,white,flipped triangle
0.0,3.0,0.0,0.0,2.0,2.0,335.2318390388973,4.0,1.0,part_1,,,,,,,,,,,,,magenta,circle
54.0,5.0,1.0,1.0,2.0,2.0,314.8778660106472,4.0,1.0,part_1,,,,,,,,,,,,,yellow,hexagon
395.0,8.0,4.0,1.0,2.0,2.0,312.2062289621681,4.0,1.0,part_1,,,,,,,,,,,,,orange,diamond
124.0,6.0,2.0,1.0,1.0,1.0,541.4846840430982,4.0,1.0,part_1,,,,,,,,,,,,,cyan,square
117.0,6.0,2.0,1.0,1.0,1.0,376.8641600036062,4.0,1.0,part_1,,,,,,,,,,,,,cyan,square
197.0,3.0,3.0,0.0,4.0,4.0,511.9892670190893,4.0,1.0,part_1,,,,,,,,,,,,,magenta,circle
0.0,1.0,0.0,0.0,1.0,1.0,352.4854789720848,4.0,1.0,part_1,,,,,,,,,,,,,green,triangle
180.0,3.0,3.0,0.0,1.0,1.0,357.3384800110943,4.0,1.0,part_1,,,,,,,,,,,,,magenta,circle
0.0,2.0,0.0,0.0,2.0,2.0,357.2035299730487,4.0,1.0,part_1,,,,,,,,,,,,,blue,I
202.0,3.0,3.0,0.0,3.0,3.0,353.3128430135548,4.0,1.0,part_1,,,,,,,,,,,,,magenta,circle
0.0,4.0,0.0,0.0,2.0,2.0,275.6261680042371,4.0,1.0,part_1,,,,,,,,,,,,,white,flipped triangle
223.0,7.0,3.0,1.0,3.0,3.0,344.4996069883927,4.0,1.0,part_1,,,,,,,,,,,,,gray,cross
0.0,6.0,0.0,1.0,3.0,3.0,320.5262779956683,4.0,1.0,part_1,,,,,,,,,,,,,cyan,square
0.0,5.0,0.0,1.0,4.0,4.0,393.5832619899884,4.0,1.0,part_1,,,,,,,,,,,,,yellow,hexagon
200.0,3.0,3.0,0.0,2.0,2.0,303.1134759658016,4.0,1.0,part_1,,,,,,,,,,,,,magenta,circle
208.0,7.0,3.0,1.0,2.0,2.0,387.0995520264841,4.0,1.0,part_1,,,,,,,,,,,,,gray,cross
0.0,2.0,0.0,0.0,1.0,1.0,320.8647479768842,4.0,1.0,part_1,,,,,,,,,,,,,blue,I
34.0,1.0,1.0,0.0,3.0,3.0,312.1114280074835,4.0,1.0,part_1,,,,,,,,,,,,,green,triangle
0.0,5.0,0.0,1.0,4.0,4.0,321.2759610032663,4.0,1.0,part_1,,,,,,,,,,,,,yellow,hexagon
86.0,2.0,2.0,0.0,1.0,1.0,393.4433719841763,4.0,1.0,part_1,,,,,,,,,,,,,blue,I
58.0,1.0,1.0,0.0,1.0,1.0,341.9576960150152,4.0,1.0,part_1,,,,,,,,,,,,,green,triangle
180.0,7.0,3.0,1.0,4.0,4.0,337.7296319813467,4.0,1.0,part_1,,,,,,,,,,,,,gray,cross
101.0,2.0,2.0,0.0,2.0,2.0,271.3869219878688,4.0,1.0,part_1,,,,,,,,,,,,,blue,I
379.0,8.0,4.0,1.0,3.0,3.0,299.3820619885809,4.0,1.0,part_1,,,,,,,,,,,,,orange,diamond
425.0,8.0,4.0,1.0,2.0,2.0,303.0904830084182,4.0,1.0,part_1,,,,,,,,,,,,,orange,diamond
27.0,1.0,1.0,0.0,1.0,1.0,258.497963019181,4.0,1.0,part_1,,,,,,,,,,,,,green,triangle
385.0,8.0,4.0,1.0,2.0,2.0,304.2388230096549,4.0,1.0,part_1,,,,,,,,,,,,,orange,diamond
87.0,6.0,2.0,1.0,4.0,4.0,381.0271119582467,4.0,1.0,part_1,,,,,,,,,,,,,cyan,square
397.0,8.0,4.0,1.0,1.0,1.0,263.9245929894969,4.0,1.0,part_1,,,,,,,,,,,,,orange,diamond
32.0,5.0,1.0,1.0,4.0,4.0,324.8277159873396,4.0,1.0,part_1,,,,,,,,,,,,,yellow,hexagon
87.0,2.0,2.0,0.0,3.0,3.0,393.987087009009,4.0,1.0,part_1,,,,,,,,,,,,,blue,I
35.0,1.0,1.0,0.0,3.0,3.0,326.0861940216273,4.0,1.0,part_1,,,,,,,,,,,,,green,triangle
178.0,3.0,3.0,0.0,4.0,4.0,366.4037900161929,4.0,1.0,part_1,,,,,,,,,,,,,magenta,circle
0.0,6.0,0.0,1.0,1.0,1.0,369.1573030082509,4.0,1.0,part_1,,,,,,,,,,,,,cyan,square
385.0,4.0,4.0,0.0,3.0,3.0,367.2896379721351,4.0,1.0,part_1,,,,,,,,,,,,,white,flipped triangle
0.0,6.0,2.0,1.0,5.0,5.0,405.1247719908133,1.0,0.0,part_2,stop,250.0,250.0,3.0,,,,,,,,,cyan,square
0.0,8.0,4.0,1.0,5.0,5.0,357.106938958168,1.0,0.0,part_2,stop,200.0,250.0,3.0,,,,,,,,,orange,diamond
0.0,4.0,4.0,0.0,5.0,5.0,497.6140260114334,1.0,0.0,part_2,go,150.0,250.0,1.0,,,,,,,,,white,flipped triangle
0.0,6.0,2.0,1.0,6.0,6.0,384.797571983654,1.0,0.0,part_2,stop,150.0,250.0,3.0,,,,,,,,,cyan,square
0.0,7.0,3.0,1.0,6.0,0.0,0.0,1.0,0.0,part_2,stop,150.0,200.0,4.0,,,,,,,,,gray,cross
0.0,3.0,3.0,0.0,6.0,6.0,442.0281440252438,1.0,0.0,part_2,go,150.0,250.0,1.0,,,,,,,,,magenta,circle
0.0,5.0,1.0,1.0,5.0,0.0,0.0,1.0,0.0,part_2,stop,150.0,250.0,4.0,,,,,,,,,yellow,hexagon
0.0,1.0,1.0,0.0,5.0,5.0,416.848532971926,1.0,0.0,part_2,go,200.0,250.0,1.0,,,,,,,,,green,triangle
0.0,7.0,3.0,1.0,6.0,0.0,0.0,1.0,0.0,part_2,stop,200.0,250.0,4.0,,,,,,,,,gray,cross
0.0,7.0,3.0,1.0,6.0,6.0,478.3873810083605,1.0,0.0,part_2,stop,200.0,300.0,3.0,,,,,,,,,gray,cross
0.0,4.0,4.0,0.0,6.0,6.0,597.7602569619194,1.0,0.0,part_2,go,200.0,250.0,1.0,,,,,,,,,white,flipped triangle
0.0,1.0,1.0,0.0,6.0,6.0,647.7543140063062,1.0,0.0,part_2,go,200.0,250.0,1.0,,,,,,,,,green,triangle
0.0,1.0,1.0,0.0,6.0,6.0,436.6431870148517,1.0,0.0,part_2,go,200.0,250.0,1.0,,,,,,,,,green,triangle
0.0,4.0,4.0,0.0,5.0,5.0,525.6744169746526,1.0,0.0,part_2,go,200.0,250.0,1.0,,,,,,,,,white,flipped triangle
0.0,3.0,3.0,0.0,5.0,5.0,517.015966004692,1.0,0.0,part_2,go,200.0,250.0,1.0,,,,,,,,,magenta,circle
0.0,2.0,2.0,0.0,6.0,6.0,514.0063799917698,1.0,0.0,part_2,go,200.0,250.0,1.0,,,,,,,,,blue,I
0.0,6.0,2.0,1.0,6.0,0.0,0.0,1.0,0.0,part_2,stop,200.0,250.0,4.0,,,,,,,,,cyan,square
0.0,3.0,3.0,0.0,5.0,5.0,380.5194160086103,1.0,0.0,part_2,go,200.0,300.0,1.0,,,,,,,,,magenta,circle
0.0,5.0,1.0,1.0,5.0,0.0,0.0,1.0,0.0,part_2,stop,200.0,300.0,4.0,,,,,,,,,yellow,hexagon
0.0,4.0,4.0,0.0,5.0,5.0,506.4671550062485,1.0,0.0,part_2,go,250.0,300.0,1.0,,,,,,,,,white,flipped triangle
0.0,1.0,1.0,0.0,6.0,6.0,394.7826930088922,1.0,0.0,part_2,go,250.0,300.0,1.0,,,,,,,,,green,triangle
0.0,4.0,4.0,0.0,6.0,6.0,618.8713379669935,1.0,0.0,part_2,go,250.0,300.0,1.0,,,,,,,,,white,flipped triangle
0.0,6.0,2.0,1.0,5.0,0.0,0.0,1.0,0.0,part_2,stop,250.0,300.0,4.0,,,,,,,,,cyan,square
0.0,8.0,4.0,1.0,6.0,6.0,462.7084109815769,1.0,0.0,part_2,stop,300.0,300.0,3.0,,,,,,,,,orange,diamond
0.0,2.0,2.0,0.0,5.0,5.0,760.4559870087542,1.0,0.0,part_2,go,300.0,250.0,1.0,,,,,,,,,blue,I
0.0,7.0,3.0,1.0,5.0,5.0,485.9171499847434,1.0,0.0,part_2,go,300.0,250.0,1.0,,,,,,,,,gray,cross
0.0,1.0,1.0,0.0,5.0,5.0,572.3034709808417,1.0,0.0,part_2,go,300.0,250.0,1.0,,,,,,,,,green,triangle
0.0,1.0,1.0,0.0,6.0,6.0,463.8455000240356,1.0,0.0,part_2,go,300.0,250.0,1.0,,,,,,,,,green,triangle
0.0,3.0,3.0,0.0,6.0,6.0,469.0739829675294,1.0,0.0,part_2,go,300.0,250.0,1.0,,,,,,,,,magenta,circle
0.0,6.0,2.0,1.0,5.0,0.0,0.0,1.0,0.0,part_2,stop,300.0,250.0,4.0,,,,,,,,,cyan,square
0.0,7.0,3.0,1.0,6.0,0.0,0.0,1.0,0.0,part_2,stop,350.0,250.0,4.0,,,,,,,,,gray,cross
0.0,3.0,3.0,0.0,5.0,5.0,409.2096259701065,1.0,0.0,part_2,go,350.0,300.0,1.0,,,,,,,,,magenta,circle
0.0,2.0,2.0,0.0,5.0,5.0,465.8697349950671,1.0,0.0,part_2,go,350.0,300.0,1.0,,,,,,,,,blue,I
0.0,4.0,4.0,0.0,6.0,6.0,706.9752640090883,1.0,0.0,part_2,go,350.0,300.0,1.0,,,,,,,,,white,flipped triangle
0.0,5.0,1.0,1.0,5.0,0.0,0.0,1.0,0.0,part_2,stop,350.0,300.0,4.0,,,,,,,,,yellow,hexagon
0.0,5.0,1.0,1.0,6.0,0.0,0.0,1.0,0.0,part_2,stop,400.0,300.0,4.0,,,,,,,,,yellow,hexagon
0.0,8.0,4.0,1.0,5.0,5.0,754.6122359926812,2.0,0.0,part_2,stop,400.0,350.0,3.0,,,,,,,,,orange,diamond
0.0,1.0,1.0,0.0,5.0,5.0,528.1142320018262,2.0,0.0,part_2,go,350.0,350.0,1.0,,,,,,,,,green,triangle
0.0,3.0,3.0,0.0,6.0,6.0,343.7779149971902,2.0,0.0,part_2,go,350.0,350.0,1.0,,,,,,,,,magenta,circle
0.0,4.0,4.0,0.0,5.0,5.0,327.9383429908193,2.0,0.0,part_2,go,350.0,350.0,1.0,,,,,,,,,white,flipped triangle
0.0,6.0,2.0,1.0,5.0,5.0,313.1811729981564,2.0,0.0,part_2,go,350.0,350.0,1.0,,,,,,,,,cyan,square
0.0,6.0,2.0,1.0,5.0,5.0,501.5015319804661,2.0,0.0,part_2,go,350.0,350.0,1.0,,,,,,,,,cyan,square
0.0,7.0,3.0,1.0,5.0,5.0,373.9942400134168,2.0,0.0,part_2,stop,350.0,350.0,3.0,,,,,,,,,gray,cross
0.0,1.0,1.0,0.0,6.0,6.0,470.6662200042046,2.0,0.0,part_2,go,300.0,350.0,1.0,,,,,,,,,green,triangle
0.0,6.0,2.0,1.0,6.0,6.0,413.3875629631802,2.0,0.0,part_2,stop,300.0,350.0,3.0,,,,,,,,,cyan,square
0.0,4.0,4.0,0.0,5.0,5.0,658.9958569966257,2.0,0.0,part_2,go,300.0,300.0,1.0,,,,,,,,,white,flipped triangle
0.0,6.0,2.0,1.0,5.0,0.0,0.0,2.0,0.0,part_2,stop,300.0,300.0,4.0,,,,,,,,,cyan,square
0.0,4.0,4.0,0.0,5.0,5.0,505.5828179465607,2.0,0.0,part_2,go,350.0,300.0,1.0,,,,,,,,,white,flipped triangle
0.0,7.0,3.0,1.0,5.0,5.0,505.5289300507866,2.0,0.0,part_2,stop,350.0,300.0,3.0,,,,,,,,,gray,cross
0.0,5.0,1.0,1.0,5.0,0.0,0.0,2.0,0.0,part_2,stop,300.0,300.0,4.0,,,,,,,,,yellow,hexagon
0.0,7.0,3.0,1.0,5.0,0.0,0.0,2.0,0.0,part_2,stop,350.0,300.0,4.0,,,,,,,,,gray,cross
0.0,1.0,1.0,0.0,5.0,5.0,595.8692220156081,2.0,0.0,part_2,go,400.0,300.0,1.0,,,,,,,,,green,triangle
0.0,2.0,2.0,0.0,6.0,6.0,505.4306539823301,2.0,0.0,part_2,go,400.0,300.0,1.0,,,,,,,,,blue,I
0.0,5.0,1.0,1.0,6.0,6.0,442.5816729781218,2.0,0.0,part_2,stop,400.0,300.0,3.0,,,,,,,,,yellow,hexagon
0.0,1.0,1.0,0.0,5.0,5.0,765.9894240205176,2.0,0.0,part_2,go,400.0,250.0,1.0,,,,,,,,,green,triangle
0.0,5.0,1.0,1.0,6.0,6.0,733.5681350086816,2.0,0.0,part_2,go,400.0,250.0,1.0,,,,,,,,,yellow,hexagon
0.0,8.0,4.0,1.0,5.0,0.0,0.0,2.0,0.0,part_2,stop,400.0,250.0,4.0,,,,,,,,,orange,diamond
0.0,5.0,1.0,1.0,5.0,0.0,0.0,2.0,0.0,part_2,stop,450.0,250.0,4.0,,,,,,,,,yellow,hexagon
0.0,1.0,1.0,0.0,6.0,6.0,655.8938639936969,2.0,0.0,part_2,go,500.0,250.0,1.0,,,,,,,,,green,triangle
0.0,5.0,1.0,1.0,5.0,5.0,619.6271069929935,2.0,0.0,part_2,stop,500.0,250.0,3.0,,,,,,,,,yellow,hexagon
0.0,7.0,3.0,1.0,5.0,5.0,844.5735469576903,2.0,0.0,part_2,go,450.0,250.0,1.0,,,,,,,,,gray,cross
0.0,7.0,3.0,1.0,5.0,0.0,0.0,2.0,0.0,part_2,stop,450.0,250.0,4.0,,,,,,,,,gray,cross
0.0,3.0,3.0,0.0,6.0,6.0,733.8375799590722,2.0,0.0,part_2,go,500.0,250.0,1.0,,,,,,,,,magenta,circle
0.0,2.0,2.0,0.0,6.0,6.0,809.4108439981937,2.0,0.0,part_2,go,500.0,250.0,1.0,,,,,,,,,blue,I
0.0,3.0,3.0,0.0,5.0,5.0,737.5105029786937,2.0,0.0,part_2,go,500.0,250.0,1.0,,,,,,,,,magenta,circle
0.0,1.0,1.0,0.0,6.0,6.0,631.8408449878916,2.0,0.0,part_2,go,500.0,250.0,1.0,,,,,,,,,green,triangle
0.0,1.0,1.0,0.0,6.0,6.0,416.0216510063037,2.0,0.0,part_2,go,500.0,250.0,1.0,,,,,,,,,green,triangle
0.0,1.0,1.0,0.0,5.0,5.0,719.6096469997428,2.0,0.0,part_2,go,500.0,250.0,1.0,,,,,,,,,green,triangle
0.0,5.0,1.0,1.0,6.0,0.0,0.0,2.0,0.0,part_2,stop,500.0,250.0,4.0,,,,,,,,,yellow,hexagon
0.0,7.0,3.0,1.0,6.0,0.0,0.0,2.0,0.0,part_2,stop,500.0,300.0,4.0,,,,,,,,,gray,cross
0.0,2.0,2.0,0.0,5.0,5.0,653.0906080151908,2.0,0.0,part_2,go,500.0,350.0,1.0,,,,,,,,,blue,I
0.0,3.0,3.0,0.0,6.0,6.0,533.7242709938437,2.0,0.0,part_2,go,500.0,350.0,1.0,,,,,,,,,magenta,circle
0.0,5.0,1.0,1.0,5.0,5.0,589.366106025409,3.0,0.0,part_2,go,500.0,350.0,1.0,,,,,,,,,yellow,hexagon
0.0,3.0,3.0,0.0,6.0,6.0,378.8390640402213,3.0,0.0,part_2,go,500.0,350.0,1.0,,,,,,,,,magenta,circle
0.0,3.0,3.0,0.0,5.0,5.0,365.553714975249,3.0,0.0,part_2,go,500.0,350.0,1.0,,,,,,,,,magenta,circle
0.0,6.0,2.0,1.0,5.0,5.0,537.1244859998114,3.0,0.0,part_2,stop,500.0,350.0,3.0,,,,,,,,,cyan,square
0.0,2.0,2.0,0.0,6.0,6.0,411.9968339800834,3.0,0.0,part_2,go,450.0,350.0,1.0,,,,,,,,,blue,I
0.0,1.0,1.0,0.0,6.0,6.0,360.0728979799896,3.0,0.0,part_2,go,450.0,350.0,1.0,,,,,,,,,green,triangle
0.0,7.0,3.0,1.0,6.0,6.0,385.6737440219149,3.0,0.0,part_2,stop,450.0,350.0,3.0,,,,,,,,,gray,cross
0.0,2.0,2.0,0.0,6.0,6.0,519.616273988504,3.0,0.0,part_2,go,450.0,300.0,1.0,,,,,,,,,blue,I
0.0,7.0,3.0,1.0,5.0,0.0,0.0,3.0,0.0,part_2,stop,450.0,300.0,4.0,,,,,,,,,gray,cross
0.0,2.0,2.0,0.0,5.0,5.0,485.7129330048337,3.0,0.0,part_2,go,500.0,300.0,1.0,,,,,,,,,blue,I
0.0,3.0,3.0,0.0,5.0,5.0,469.2234550020657,3.0,0.0,part_2,go,500.0,300.0,1.0,,,,,,,,,magenta,circle
0.0,5.0,1.0,1.0,5.0,5.0,1068.981718970463,3.0,0.0,part_2,go,500.0,300.0,1.0,,,,,,,,,yellow,hexagon
0.0,1.0,1.0,0.0,6.0,6.0,564.1075519961305,3.0,0.0,part_2,go,500.0,300.0,1.0,,,,,,,,,green,triangle
0.0,3.0,3.0,0.0,5.0,5.0,397.9666350060142,3.0,0.0,part_2,go,500.0,300.0,1.0,,,,,,,,,magenta,circle
0.0,5.0,1.0,1.0,5.0,5.0,347.7826879825443,3.0,0.0,part_2,stop,500.0,300.0,3.0,,,,,,,,,yellow,hexagon
0.0,5.0,1.0,1.0,5.0,5.0,701.0848459904082,3.0,0.0,part_2,stop,450.0,300.0,3.0,,,,,,,,,yellow,hexagon
0.0,2.0,2.0,0.0,6.0,6.0,459.5378990052268,3.0,0.0,part_2,go,400.0,300.0,1.0,,,,,,,,,blue,I
0.0,5.0,1.0,1.0,5.0,0.0,0.0,3.0,0.0,part_2,stop,400.0,300.0,4.0,,,,,,,,,yellow,hexagon
0.0,6.0,2.0,1.0,6.0,6.0,363.390218000859,3.0,0.0,part_2,stop,450.0,300.0,3.0,,,,,,,,,cyan,square
0.0,1.0,1.0,0.0,6.0,6.0,602.8006509877741,3.0,0.0,part_2,go,450.0,250.0,1.0,,,,,,,,,green,triangle
0.0,4.0,4.0,0.0,6.0,6.0,623.6634909873828,3.0,0.0,part_2,go,450.0,250.0,1.0,,,,,,,,,white,flipped triangle
0.0,2.0,2.0,0.0,5.0,5.0,786.0569629701786,3.0,0.0,part_2,go,450.0,250.0,1.0,,,,,,,,,blue,I
0.0,7.0,3.0,1.0,6.0,0.0,0.0,3.0,0.0,part_2,stop,450.0,250.0,4.0,,,,,,,,,gray,cross
0.0,6.0,2.0,1.0,6.0,0.0,0.0,3.0,0.0,part_2,stop,450.0,300.0,4.0,,,,,,,,,cyan,square
0.0,8.0,4.0,1.0,6.0,6.0,463.3088120026514,3.0,0.0,part_2,go,450.0,350.0,1.0,,,,,,,,,orange,diamond
0.0,2.0,2.0,0.0,5.0,5.0,519.9878580169752,3.0,0.0,part_2,go,450.0,350.0,1.0,,,,,,,,,blue,I
0.0,3.0,3.0,0.0,6.0,6.0,366.4978360175155,3.0,0.0,part_2,go,450.0,350.0,1.0,,,,,,,,,magenta,circle
0.0,3.0,3.0,0.0,6.0,6.0,366.2602620315738,3.0,0.0,part_2,go,450.0,350.0,1.0,,,,,,,,,magenta,circle
0.0,4.0,4.0,0.0,5.0,5.0,486.3200340187177,3.0,0.0,part_2,go,450.0,350.0,1.0,,,,,,,,,white,flipped triangle
0.0,5.0,1.0,1.0,6.0,0.0,0.0,3.0,0.0,part_2,stop,450.0,350.0,4.0,,,,,,,,,yellow,hexagon
0.0,4.0,4.0,0.0,5.0,5.0,371.3036949629895,3.0,0.0,part_2,go,450.0,400.0,1.0,,,,,,,,,white,flipped triangle
0.0,3.0,3.0,0.0,6.0,6.0,468.0409419815987,3.0,0.0,part_2,go,450.0,400.0,1.0,,,,,,,,,magenta,circle
0.0,6.0,2.0,1.0,5.0,0.0,0.0,3.0,0.0,part_2,stop,450.0,400.0,4.0,,,,,,,,,cyan,square
0.0,8.0,4.0,1.0,6.0,6.0,474.3076050071977,3.0,0.0,part_2,stop,500.0,400.0,3.0,,,,,,,,,orange,diamond
0.0,5.0,1.0,1.0,6.0,6.0,1043.419144989457,3.0,0.0,part_2,go,500.0,350.0,1.0,,,,,,,,,yellow,hexagon
0.0,1.0,1.0,0.0,5.0,5.0,616.0950780031271,3.0,0.0,part_2,go,500.0,350.0,1.0,,,,,,,,,green,triangle
0.0,8.0,4.0,1.0,6.0,6.0,484.9738659686409,4.0,0.0,part_2,stop,500.0,350.0,3.0,,,,,,,,,orange,diamond
0.0,3.0,3.0,0.0,6.0,6.0,453.1054869876243,4.0,0.0,part_2,go,500.0,300.0,1.0,,,,,,,,,magenta,circle
0.0,7.0,3.0,1.0,5.0,0.0,0.0,4.0,0.0,part_2,stop,500.0,300.0,4.0,,,,,,,,,gray,cross
0.0,6.0,2.0,1.0,6.0,0.0,0.0,4.0,0.0,part_2,stop,550.0,300.0,4.0,,,,,,,,,cyan,square
0.0,8.0,4.0,1.0,5.0,5.0,465.7162809744477,4.0,0.0,part_2,stop,550.0,350.0,3.0,,,,,,,,,orange,diamond
0.0,2.0,2.0,0.0,5.0,5.0,624.0299859782681,4.0,0.0,part_2,go,500.0,350.0,1.0,,,,,,,,,blue,I
0.0,8.0,4.0,1.0,6.0,0.0,0.0,4.0,0.0,part_2,stop,500.0,350.0,4.0,,,,,,,,,orange,diamond
0.0,6.0,2.0,1.0,6.0,0.0,0.0,4.0,0.0,part_2,stop,500.0,400.0,4.0,,,,,,,,,cyan,square
0.0,4.0,4.0,0.0,5.0,5.0,535.7345339725725,4.0,0.0,part_2,go,500.0,450.0,1.0,,,,,,,,,white,flipped triangle
0.0,1.0,1.0,0.0,6.0,6.0,583.953935012687,4.0,0.0,part_2,go,500.0,450.0,1.0,,,,,,,,,green,triangle
0.0,6.0,2.0,1.0,6.0,6.0,1134.170944977086,4.0,0.0,part_2,go,500.0,450.0,1.0,,,,,,,,,cyan,square
0.0,1.0,1.0,0.0,6.0,6.0,510.49336994765326,4.0,0.0,part_2,go,500.0,450.0,1.0,,,,,,,,,green,triangle
0.0,7.0,3.0,1.0,6.0,6.0,815.1477850042284,4.0,0.0,part_2,go,500.0,450.0,1.0,,,,,,,,,gray,cross
0.0,5.0,1.0,1.0,5.0,5.0,786.6815329762176,4.0,0.0,part_2,stop,500.0,450.0,3.0,,,,,,,,,yellow,hexagon
0.0,7.0,3.0,1.0,6.0,6.0,836.4156910101883,4.0,0.0,part_2,go,450.0,450.0,1.0,,,,,,,,,gray,cross
0.0,4.0,4.0,0.0,5.0,5.0,564.2698900192045,4.0,0.0,part_2,go,450.0,450.0,1.0,,,,,,,,,white,flipped triangle
0.0,2.0,2.0,0.0,5.0,5.0,565.1109750033356,4.0,0.0,part_2,go,450.0,450.0,1.0,,,,,,,,,blue,I
0.0,8.0,4.0,1.0,5.0,0.0,0.0,4.0,0.0,part_2,stop,450.0,450.0,4.0,,,,,,,,,orange,diamond
0.0,6.0,2.0,1.0,6.0,0.0,0.0,4.0,0.0,part_2,stop,500.0,450.0,4.0,,,,,,,,,cyan,square
0.0,1.0,1.0,0.0,5.0,5.0,451.192049018573,4.0,0.0,part_2,go,500.0,500.0,1.0,,,,,,,,,green,triangle
0.0,6.0,2.0,1.0,5.0,5.0,1023.9706780412234,4.0,0.0,part_2,go,500.0,500.0,1.0,,,,,,,,,cyan,square
0.0,4.0,4.0,0.0,6.0,6.0,534.1330459923483,4.0,0.0,part_2,go,500.0,500.0,1.0,,,,,,,,,white,flipped triangle
0.0,3.0,3.0,0.0,5.0,5.0,488.8873019954189,4.0,0.0,part_2,go,500.0,500.0,1.0,,,,,,,,,magenta,circle
0.0,2.0,2.0,0.0,5.0,5.0,520.2741979737766,4.0,0.0,part_2,go,500.0,500.0,1.0,,,,,,,,,blue,I
0.0,8.0,4.0,1.0,6.0,6.0,509.35774901881814,4.0,0.0,part_2,go,500.0,500.0,1.0,,,,,,,,,orange,diamond
0.0,2.0,2.0,0.0,5.0,5.0,470.6077099544927,4.0,0.0,part_2,go,500.0,500.0,1.0,,,,,,,,,blue,I
0.0,1.0,1.0,0.0,5.0,5.0,534.0507489745505,4.0,0.0,part_2,go,500.0,500.0,1.0,,,,,,,,,green,triangle
0.0,6.0,2.0,1.0,5.0,0.0,0.0,4.0,0.0,part_2,stop,500.0,500.0,4.0,,,,,,,,,cyan,square
0.0,6.0,2.0,1.0,5.0,0.0,0.0,4.0,0.0,part_2,stop,550.0,500.0,4.0,,,,,,,,,cyan,square
0.0,2.0,2.0,0.0,6.0,6.0,501.529908971861,4.0,0.0,part_2,go,600.0,500.0,1.0,,,,,,,,,blue,I
0.0,8.0,4.0,1.0,5.0,0.0,0.0,4.0,0.0,part_2,stop,600.0,500.0,4.0,,,,,,,,,orange,diamond
0.0,8.0,4.0,1.0,6.0,6.0,776.8828619737178,4.0,0.0,part_2,go,650.0,500.0,1.0,,,,,,,,,orange,diamond
0.0,5.0,1.0,1.0,6.0,0.0,0.0,4.0,0.0,part_2,stop,650.0,500.0,4.0,,,,,,,,,yellow,hexagon
0.0,8.0,4.0,1.0,6.0,0.0,0.0,4.0,0.0,part_2,stop,650.0,550.0,4.0,,,,,,,,,orange,diamond
0.0,7.0,3.0,1.0,5.0,5.0,544.9501279508695,4.0,0.0,part_2,stop,650.0,600.0,3.0,,,,,,,,,gray,cross
0.0,3.0,3.0,0.0,5.0,5.0,624.1586519754492,4.0,0.0,part_2,go,600.0,600.0,1.0,,,,,,,,,magenta,circle
0.0,4.0,4.0,0.0,6.0,6.0,504.88570099696517,5.0,0.0,part_2,go,600.0,600.0,1.0,,,,,,,,,white,flipped triangle
0.0,8.0,4.0,1.0,5.0,5.0,498.0855289613828,5.0,0.0,part_2,stop,600.0,600.0,3.0,,,,,,,,,orange,diamond
0.0,8.0,4.0,1.0,5.0,0.0,0.0,5.0,0.0,part_2,stop,550.0,600.0,4.0,,,,,,,,,orange,diamond
0.0,4.0,4.0,0.0,5.0,5.0,536.8045709910803,5.0,0.0,part_2,go,600.0,600.0,1.0,,,,,,,,,white,flipped triangle
0.0,2.0,2.0,0.0,5.0,5.0,569.3641930120066,5.0,0.0,part_2,go,600.0,600.0,1.0,,,,,,,,,blue,I
0.0,4.0,4.0,0.0,6.0,6.0,638.3075389894657,5.0,0.0,part_2,go,600.0,600.0,1.0,,,,,,,,,white,flipped triangle
0.0,6.0,2.0,1.0,5.0,0.0,0.0,5.0,0.0,part_2,stop,600.0,600.0,4.0,,,,,,,,,cyan,square
0.0,6.0,2.0,1.0,5.0,0.0,0.0,5.0,0.0,part_2,stop,650.0,600.0,4.0,,,,,,,,,cyan,square
0.0,5.0,1.0,1.0,6.0,6.0,909.2733890283852,5.0,0.0,part_2,go,700.0,600.0,1.0,,,,,,,,,yellow,hexagon
0.0,1.0,1.0,0.0,6.0,6.0,628.2627509790473,5.0,0.0,part_2,go,700.0,600.0,1.0,,,,,,,,,green,triangle
0.0,8.0,4.0,1.0,5.0,5.0,715.0329240248539,5.0,0.0,part_2,stop,700.0,600.0,3.0,,,,,,,,,orange,diamond
0.0,5.0,1.0,1.0,6.0,0.0,0.0,5.0,0.0,part_2,stop,650.0,600.0,4.0,,,,,,,,,yellow,hexagon
0.0,4.0,4.0,0.0,6.0,6.0,717.2655449830927,5.0,0.0,part_2,go,650.0,650.0,1.0,,,,,,,,,white,flipped triangle
0.0,2.0,2.0,0.0,5.0,5.0,333.0224099918268,5.0,0.0,part_2,go,650.0,650.0,1.0,,,,,,,,,blue,I
0.0,3.0,3.0,0.0,6.0,6.0,474.5712900185026,5.0,0.0,part_2,go,650.0,650.0,1.0,,,,,,,,,magenta,circle
0.0,1.0,1.0,0.0,6.0,6.0,616.6325489757583,5.0,0.0,part_2,go,650.0,650.0,1.0,,,,,,,,,green,triangle
0.0,6.0,2.0,1.0,6.0,0.0,0.0,5.0,0.0,part_2,stop,650.0,650.0,4.0,,,,,,,,,cyan,square
0.0,7.0,3.0,1.0,5.0,5.0,1047.7675889851523,5.0,0.0,part_2,go,650.0,700.0,1.0,,,,,,,,,gray,cross
0.0,8.0,4.0,1.0,6.0,6.0,490.479119005613,5.0,0.0,part_2,stop,650.0,700.0,3.0,,,,,,,,,orange,diamond
0.0,8.0,4.0,1.0,6.0,6.0,1137.5854529906064,5.0,0.0,part_2,go,650.0,650.0,1.0,,,,,,,,,orange,diamond
0.0,3.0,3.0,0.0,6.0,6.0,509.42671101074666,5.0,0.0,part_2,go,650.0,650.0,1.0,,,,,,,,,magenta,circle
0.0,4.0,4.0,0.0,5.0,5.0,608.1488049821928,5.0,0.0,part_2,go,650.0,650.0,1.0,,,,,,,,,white,flipped triangle
0.0,5.0,1.0,1.0,6.0,0.0,0.0,5.0,0.0,part_2,stop,650.0,650.0,4.0,,,,,,,,,yellow,hexagon
0.0,2.0,2.0,0.0,6.0,6.0,508.7322969920933,5.0,0.0,part_2,go,650.0,700.0,1.0,,,,,,,,,blue,I
0.0,1.0,1.0,0.0,5.0,5.0,546.8626419897191,5.0,0.0,part_2,go,650.0,700.0,1.0,,,,,,,,,green,triangle
0.0,7.0,3.0,1.0,6.0,0.0,0.0,5.0,0.0,part_2,stop,650.0,700.0,4.0,,,,,,,,,gray,cross
0.0,1.0,1.0,0.0,6.0,6.0,673.7248490098864,5.0,0.0,part_2,go,650.0,750.0,1.0,,,,,,,,,green,triangle
0.0,4.0,4.0,0.0,6.0,6.0,706.0596739756875,5.0,0.0,part_2,go,650.0,750.0,1.0,,,,,,,,,white,flipped triangle
0.0,5.0,1.0,1.0,6.0,0.0,0.0,5.0,0.0,part_2,stop,650.0,750.0,4.0,,,,,,,,,yellow,hexagon
0.0,1.0,1.0,0.0,5.0,5.0,467.5423699663952,5.0,0.0,part_2,go,650.0,800.0,1.0,,,,,,,,,green,triangle
0.0,6.0,2.0,1.0,5.0,0.0,0.0,5.0,0.0,part_2,stop,650.0,800.0,4.0,,,,,,,,,cyan,square
0.0,4.0,4.0,0.0,6.0,6.0,521.3894880143926,5.0,0.0,part_2,go,700.0,800.0,1.0,,,,,,,,,white,flipped triangle
0.0,2.0,2.0,0.0,5.0,5.0,510.47951402142644,5.0,0.0,part_2,go,700.0,800.0,1.0,,,,,,,,,blue,I
0.0,5.0,1.0,1.0,6.0,0.0,0.0,5.0,0.0,part_2,stop,700.0,800.0,4.0,,,,,,,,,yellow,hexagon
0.0,5.0,1.0,1.0,5.0,0.0,0.0,5.0,0.0,part_2,stop,700.0,850.0,4.0,,,,,,,,,yellow,hexagon
0.0,7.0,3.0,1.0,5.0,5.0,525.3667619545013,5.0,0.0,part_2,stop,750.0,850.0,3.0,,,,,,,,,gray,cross
0.0,1.0,1.0,0.0,5.0,5.0,537.1851100353524,6.0,0.0,part_2,go,700.0,850.0,1.0,,,,,,,,,green,triangle
0.0,7.0,3.0,1.0,6.0,0.0,0.0,6.0,0.0,part_2,stop,700.0,850.0,4.0,,,,,,,,,gray,cross
0.0,7.0,3.0,1.0,5.0,5.0,1332.720767008141,6.0,0.0,part_2,go,700.0,900.0,1.0,,,,,,,,,gray,cross
0.0,2.0,2.0,0.0,5.0,5.0,511.634900001809,6.0,0.0,part_2,go,700.0,900.0,1.0,,,,,,,,,blue,I
0.0,6.0,2.0,1.0,5.0,5.0,1478.0790049699135,6.0,0.0,part_2,go,700.0,900.0,1.0,,,,,,,,,cyan,square
0.0,5.0,1.0,1.0,5.0,5.0,1038.30878197914,6.0,0.0,part_2,go,700.0,900.0,1.0,,,,,,,,,yellow,hexagon
0.0,3.0,3.0,0.0,5.0,5.0,498.5172320157289,6.0,0.0,part_2,go,700.0,900.0,1.0,,,,,,,,,magenta,circle
0.0,6.0,2.0,1.0,6.0,6.0,922.8187219705432,6.0,0.0,part_2,stop,700.0,900.0,3.0,,,,,,,,,cyan,square
0.0,4.0,4.0,0.0,6.0,6.0,580.4483940009959,6.0,0.0,part_2,go,700.0,850.0,1.0,,,,,,,,,white,flipped triangle
0.0,5.0,1.0,1.0,6.0,6.0,489.0188259887509,6.0,0.0,part_2,go,700.0,850.0,1.0,,,,,,,,,yellow,hexagon
0.0,7.0,3.0,1.0,6.0,6.0,393.1046419893391,6.0,0.0,part_2,go,700.0,850.0,1.0,,,,,,,,,gray,cross
0.0,7.0,3.0,1.0,5.0,5.0,514.950159995351,6.0,0.0,part_2,stop,700.0,850.0,3.0,,,,,,,,,gray,cross
0.0,8.0,4.0,1.0,5.0,0.0,0.0,6.0,0.0,part_2,stop,650.0,850.0,4.0,,,,,,,,,orange,diamond
0.0,4.0,4.0,0.0,6.0,6.0,554.4404900283553,6.0,0.0,part_2,go,700.0,850.0,1.0,,,,,,,,,white,flipped triangle
0.0,7.0,3.0,1.0,5.0,0.0,0.0,6.0,0.0,part_2,stop,700.0,850.0,4.0,,,,,,,,,gray,cross
0.0,2.0,2.0,0.0,6.0,6.0,469.3464960437268,6.0,0.0,part_2,go,750.0,850.0,1.0,,,,,,,,,blue,I
0.0,3.0,3.0,0.0,6.0,6.0,352.8251069947146,6.0,0.0,part_2,go,750.0,850.0,1.0,,,,,,,,,magenta,circle
0.0,3.0,3.0,0.0,6.0,6.0,416.3610789692029,6.0,0.0,part_2,go,750.0,850.0,1.0,,,,,,,,,magenta,circle
0.0,5.0,1.0,1.0,5.0,0.0,0.0,6.0,0.0,part_2,stop,750.0,850.0,4.0,,,,,,,,,yellow,hexagon
0.0,5.0,1.0,1.0,6.0,6.0,1437.9354959819466,6.0,0.0,part_2,go,800.0,850.0,1.0,,,,,,,,,yellow,hexagon
0.0,8.0,4.0,1.0,6.0,0.0,0.0,6.0,0.0,part_2,stop,800.0,850.0,4.0,,,,,,,,,orange,diamond
0.0,6.0,2.0,1.0,5.0,0.0,0.0,6.0,0.0,part_2,stop,800.0,900.0,4.0,,,,,,,,,cyan,square
0.0,2.0,2.0,0.0,6.0,6.0,457.5449000112712,6.0,0.0,part_2,go,850.0,900.0,1.0,,,,,,,,,blue,I
0.0,3.0,3.0,0.0,6.0,6.0,538.1395190488547,6.0,0.0,part_2,go,850.0,900.0,1.0,,,,,,,,,magenta,circle
0.0,8.0,4.0,1.0,5.0,0.0,0.0,6.0,0.0,part_2,stop,850.0,900.0,4.0,,,,,,,,,orange,diamond
0.0,4.0,4.0,0.0,6.0,6.0,419.2818939918652,6.0,0.0,part_2,go,900.0,900.0,1.0,,,,,,,,,white,flipped triangle
0.0,1.0,1.0,0.0,6.0,6.0,465.3689219849184,6.0,0.0,part_2,go,900.0,900.0,1.0,,,,,,,,,green,triangle
0.0,7.0,3.0,1.0,6.0,0.0,0.0,6.0,0.0,part_2,stop,900.0,900.0,4.0,,,,,,,,,gray,cross
0.0,3.0,3.0,0.0,5.0,5.0,487.4910039943643,6.0,0.0,part_2,go,900.0,950.0,1.0,,,,,,,,,magenta,circle
0.0,3.0,3.0,0.0,6.0,6.0,472.4457809934392,6.0,0.0,part_2,go,900.0,950.0,1.0,,,,,,,,,magenta,circle
0.0,4.0,4.0,0.0,6.0,6.0,517.4100549775176,6.0,0.0,part_2,go,900.0,950.0,1.0,,,,,,,,,white,flipped triangle
0.0,2.0,2.0,0.0,5.0,5.0,541.2087239674293,6.0,0.0,part_2,go,900.0,950.0,1.0,,,,,,,,,blue,I
0.0,8.0,4.0,1.0,5.0,0.0,0.0,6.0,0.0,part_2,stop,900.0,950.0,4.0,,,,,,,,,orange,diamond
0.0,2.0,2.0,0.0,5.0,5.0,518.1981069617905,6.0,0.0,part_2,go,950.0,950.0,1.0,,,,,,,,,blue,I
0.0,4.0,4.0,0.0,5.0,5.0,494.074935966637,6.0,0.0,part_2,go,950.0,950.0,1.0,,,,,,,,,white,flipped triangle
0.0,8.0,4.0,1.0,6.0,6.0,1446.1699159583077,6.0,0.0,part_2,go,950.0,950.0,1.0,,,,,,,,,orange,diamond
0.0,2.0,2.0,0.0,6.0,6.0,404.1609710548073,7.0,0.0,part_2,go,950.0,950.0,1.0,,,,,,,,,blue,I
0.0,5.0,1.0,1.0,6.0,6.0,563.3052480407059,7.0,0.0,part_2,stop,950.0,950.0,3.0,,,,,,,,,yellow,hexagon
0.0,5.0,1.0,1.0,5.0,5.0,839.1386700095609,7.0,0.0,part_2,stop,950.0,900.0,3.0,,,,,,,,,yellow,hexagon
0.0,2.0,2.0,0.0,6.0,6.0,447.1073879976757,7.0,0.0,part_2,go,900.0,900.0,1.0,,,,,,,,,blue,I
0.0,6.0,2.0,1.0,6.0,6.0,1425.630347977858,7.0,0.0,part_2,go,900.0,900.0,1.0,,,,,,,,,cyan,square
0.0,7.0,3.0,1.0,5.0,5.0,464.6237369743176,7.0,0.0,part_2,stop,900.0,900.0,3.0,,,,,,,,,gray,cross
0.0,2.0,2.0,0.0,6.0,6.0,412.5425750389695,7.0,0.0,part_2,go,850.0,900.0,1.0,,,,,,,,,blue,I
0.0,8.0,4.0,1.0,5.0,5.0,724.0051769767888,7.0,0.0,part_2,go,850.0,900.0,1.0,,,,,,,,,orange,diamond
0.0,7.0,3.0,1.0,6.0,6.0,372.3602169775404,7.0,0.0,part_2,go,850.0,900.0,1.0,,,,,,,,,gray,cross
0.0,5.0,1.0,1.0,6.0,0.0,0.0,7.0,0.0,part_2,stop,850.0,900.0,4.0,,,,,,,,,yellow,hexagon
0.0,6.0,2.0,1.0,6.0,0.0,0.0,7.0,0.0,part_2,go,850.0,950.0,5.0,,,,,,,,,cyan,square
0.0,2.0,2.0,0.0,6.0,6.0,435.2438040077686,7.0,0.0,part_2,go,850.0,950.0,1.0,,,,,,,,,blue,I
0.0,3.0,3.0,0.0,5.0,5.0,476.6087160096504,7.0,0.0,part_2,go,850.0,950.0,1.0,,,,,,,,,magenta,circle
0.0,2.0,2.0,0.0,6.0,6.0,465.7474810373969,7.0,0.0,part_2,go,850.0,950.0,1.0,,,,,,,,,blue,I
0.0,8.0,4.0,1.0,6.0,6.0,635.6797899934463,7.0,0.0,part_2,stop,850.0,950.0,3.0,,,,,,,,,orange,diamond
0.0,3.0,3.0,0.0,5.0,5.0,463.7515909853391,7.0,0.0,part_2,go,850.0,900.0,1.0,,,,,,,,,magenta,circle
0.0,7.0,3.0,1.0,5.0,0.0,0.0,7.0,0.0,part_2,stop,850.0,900.0,4.0,,,,,,,,,gray,cross
0.0,8.0,4.0,1.0,6.0,6.0,442.1939899912104,7.0,0.0,part_2,go,900.0,900.0,1.0,,,,,,,,,orange,diamond
0.0,5.0,1.0,1.0,5.0,5.0,1048.8454849692062,7.0,0.0,part_2,go,900.0,900.0,1.0,,,,,,,,,yellow,hexagon
0.0,2.0,2.0,0.0,6.0,6.0,381.8223560228944,7.0,0.0,part_2,go,900.0,900.0,1.0,,,,,,,,,blue,I
0.0,4.0,4.0,0.0,5.0,5.0,336.1002870369702,7.0,0.0,part_2,go,900.0,900.0,1.0,,,,,,,,,white,flipped triangle
0.0,5.0,1.0,1.0,6.0,6.0,646.5601069503464,7.0,0.0,part_2,stop,900.0,900.0,3.0,,,,,,,,,yellow,hexagon
0.0,3.0,3.0,0.0,5.0,5.0,416.2003960227594,7.0,0.0,part_2,go,900.0,850.0,1.0,,,,,,,,,magenta,circle
0.0,5.0,1.0,1.0,6.0,0.0,0.0,7.0,0.0,part_2,stop,900.0,850.0,4.0,,,,,,,,,yellow,hexagon
0.0,1.0,1.0,0.0,5.0,5.0,436.0261209658347,7.0,0.0,part_2,go,900.0,900.0,1.0,,,,,,,,,green,triangle
0.0,1.0,1.0,0.0,5.0,5.0,386.1055289744399,7.0,0.0,part_2,go,900.0,900.0,1.0,,,,,,,,,green,triangle
0.0,3.0,3.0,0.0,5.0,5.0,394.0608040429652,7.0,0.0,part_2,go,900.0,900.0,1.0,,,,,,,,,magenta,circle
0.0,7.0,3.0,1.0,6.0,6.0,458.0621240311302,7.0,0.0,part_2,stop,900.0,900.0,3.0,,,,,,,,,gray,cross
0.0,6.0,2.0,1.0,6.0,6.0,435.6337789795361,7.0,0.0,part_2,go,900.0,850.0,1.0,,,,,,,,,cyan,square
0.0,1.0,1.0,0.0,5.0,5.0,466.8393920292146,7.0,0.0,part_2,go,900.0,850.0,1.0,,,,,,,,,green,triangle
0.0,6.0,2.0,1.0,6.0,6.0,744.1979310242459,7.0,0.0,part_2,stop,900.0,850.0,3.0,,,,,,,,,cyan,square
0.0,6.0,2.0,1.0,6.0,0.0,0.0,7.0,0.0,part_2,stop,900.0,800.0,4.0,,,,,,,,,cyan,square
0.0,3.0,3.0,0.0,5.0,5.0,401.7161420197226,7.0,0.0,part_2,go,900.0,850.0,1.0,,,,,,,,,magenta,circle
0.0,6.0,2.0,1.0,6.0,6.0,469.9972870294004,7.0,0.0,part_2,go,900.0,850.0,1.0,,,,,,,,,cyan,square
0.0,6.0,2.0,1.0,6.0,0.0,0.0,7.0,0.0,part_2,stop,900.0,850.0,4.0,,,,,,,,,cyan,square
0.0,8.0,4.0,1.0,6.0,6.0,807.0784159936011,7.0,0.0,part_2,stop,900.0,900.0,3.0,,,,,,,,,orange,diamond
0.0,8.0,4.0,1.0,6.0,6.0,393.9363909885287,8.0,0.0,part_2,stop,900.0,850.0,3.0,,,,,,,,,orange,diamond
0.0,4.0,4.0,0.0,5.0,5.0,405.9525500051677,8.0,0.0,part_2,go,900.0,800.0,1.0,,,,,,,,,white,flipped triangle
0.0,7.0,3.0,1.0,6.0,6.0,440.4624259914271,8.0,0.0,part_2,stop,900.0,800.0,3.0,,,,,,,,,gray,cross
0.0,6.0,2.0,1.0,5.0,0.0,0.0,8.0,0.0,part_2,stop,900.0,750.0,4.0,,,,,,,,,cyan,square
0.0,4.0,4.0,0.0,6.0,6.0,447.1045110258274,8.0,0.0,part_2,go,950.0,750.0,1.0,,,,,,,,,white,flipped triangle
0.0,6.0,2.0,1.0,5.0,0.0,0.0,8.0,0.0,part_2,stop,950.0,750.0,4.0,,,,,,,,,cyan,square
0.0,4.0,4.0,0.0,6.0,6.0,516.0190839669667,8.0,0.0,part_2,go,1000.0,750.0,1.0,,,,,,,,,white,flipped triangle
0.0,7.0,3.0,1.0,5.0,5.0,1389.1084269853309,8.0,0.0,part_2,go,1000.0,750.0,1.0,,,,,,,,,gray,cross
0.0,4.0,4.0,0.0,6.0,6.0,723.5878750216216,8.0,0.0,part_2,go,1000.0,750.0,1.0,,,,,,,,,white,flipped triangle
0.0,2.0,2.0,0.0,5.0,5.0,482.3454410070553,8.0,0.0,part_2,go,1000.0,750.0,1.0,,,,,,,,,blue,I
0.0,1.0,1.0,0.0,5.0,5.0,378.8241849979386,8.0,0.0,part_2,go,1000.0,750.0,1.0,,,,,,,,,green,triangle
0.0,8.0,4.0,1.0,5.0,5.0,346.4817409985699,8.0,0.0,part_2,go,1000.0,750.0,1.0,,,,,,,,,orange,diamond
0.0,3.0,3.0,0.0,5.0,5.0,443.3759959647432,8.0,0.0,part_2,go,1000.0,750.0,1.0,,,,,,,,,magenta,circle
0.0,7.0,3.0,1.0,6.0,0.0,0.0,8.0,0.0,part_2,stop,1000.0,750.0,4.0,,,,,,,,,gray,cross
0.0,2.0,2.0,0.0,6.0,6.0,474.6051210095174,8.0,0.0,part_2,go,1000.0,800.0,1.0,,,,,,,,,blue,I
0.0,2.0,2.0,0.0,5.0,5.0,416.1922950297594,8.0,0.0,part_2,go,1000.0,800.0,1.0,,,,,,,,,blue,I
0.0,4.0,4.0,0.0,5.0,5.0,414.3711209762841,8.0,0.0,part_2,go,1000.0,800.0,1.0,,,,,,,,,white,flipped triangle
0.0,8.0,4.0,1.0,6.0,6.0,884.4235829892568,8.0,0.0,part_2,stop,1000.0,800.0,3.0,,,,,,,,,orange,diamond
0.0,8.0,4.0,1.0,5.0,0.0,0.0,8.0,0.0,part_2,stop,1000.0,750.0,4.0,,,,,,,,,orange,diamond
0.0,3.0,3.0,0.0,6.0,6.0,436.0098370234482,8.0,0.0,part_2,go,1050.0,750.0,1.0,,,,,,,,,magenta,circle
0.0,1.0,1.0,0.0,5.0,5.0,444.2499700235203,8.0,0.0,part_2,go,1050.0,750.0,1.0,,,,,,,,,green,triangle
0.0,3.0,3.0,0.0,5.0,5.0,332.8108499990776,8.0,0.0,part_2,go,1050.0,750.0,1.0,,,,,,,,,magenta,circle
0.0,1.0,1.0,0.0,6.0,6.0,395.414593978785,8.0,0.0,part_2,go,1050.0,750.0,1.0,,,,,,,,,green,triangle
0.0,7.0,3.0,1.0,6.0,6.0,353.5080049769021,8.0,0.0,part_2,stop,1050.0,750.0,3.0,,,,,,,,,gray,cross
0.0,8.0,4.0,1.0,5.0,0.0,0.0,8.0,0.0,part_2,stop,1050.0,700.0,4.0,,,,,,,,,orange,diamond
0.0,4.0,4.0,0.0,5.0,5.0,473.8921530079096,8.0,0.0,part_2,go,1100.0,700.0,1.0,,,,,,,,,white,flipped triangle
0.0,8.0,4.0,1.0,5.0,0.0,0.0,8.0,0.0,part_2,stop,1100.0,700.0,4.0,,,,,,,,,orange,diamond
0.0,5.0,1.0,1.0,5.0,0.0,0.0,8.0,0.0,part_2,stop,1150.0,700.0,4.0,,,,,,,,,yellow,hexagon
0.0,8.0,4.0,1.0,5.0,0.0,0.0,8.0,0.0,part_2,stop,1200.0,700.0,4.0,,,,,,,,,orange,diamond
0.0,4.0,4.0,0.0,5.0,5.0,550.9277129895054,8.0,0.0,part_2,go,1250.0,700.0,1.0,,,,,,,,,white,flipped triangle
0.0,8.0,4.0,1.0,6.0,6.0,1287.6270459964871,8.0,0.0,part_2,go,1250.0,700.0,1.0,,,,,,,,,orange,diamond
0.0,3.0,3.0,0.0,6.0,6.0,455.95053199213,8.0,0.0,part_2,go,1250.0,700.0,1.0,,,,,,,,,magenta,circle
0.0,4.0,4.0,0.0,6.0,6.0,484.1972789727151,8.0,0.0,part_2,go,1250.0,700.0,1.0,,,,,,,,,white,flipped triangle
0.0,7.0,3.0,1.0,5.0,5.0,1468.1401510024443,8.0,0.0,part_2,stop,1250.0,700.0,3.0,,,,,,,,,gray,cross
0.0,1.0,1.0,0.0,5.0,5.0,443.313876981847,8.0,0.0,part_2,go,1200.0,700.0,1.0,,,,,,,,,green,triangle
0.0,2.0,2.0,0.0,6.0,6.0,390.9252939629368,8.0,0.0,part_2,go,1200.0,700.0,1.0,,,,,,,,,blue,I
0.0,8.0,4.0,1.0,7.0,3.0,1443.992311018519,1.0,2.0,part_3,go,0.0,0.0,0.0,294.0,6.0,49.0,98.0,294.0,196.0,147.0,245.0,orange,diamond
0.0,8.0,4.0,1.0,7.0,1.0,2625.56647695601,1.0,1.0,part_3,go,0.0,0.0,0.0,234.0,6.0,234.0,117.0,78.0,156.0,195.0,39.0,orange,diamond
0.0,2.0,2.0,0.0,7.0,2.0,4330.940697982442,1.0,1.0,part_3,go,0.0,0.0,0.0,147.0,3.0,294.0,147.0,245.0,98.0,196.0,49.0,blue,I
0.0,5.0,1.0,1.0,7.0,3.0,1936.648326984141,1.0,1.0,part_3,go,0.0,0.0,0.0,44.0,1.0,132.0,176.0,44.0,220.0,88.0,264.0,yellow,hexagon
0.0,4.0,4.0,0.0,7.0,6.0,3247.342141054105,1.0,1.0,part_3,go,0.0,0.0,0.0,264.0,6.0,132.0,44.0,220.0,176.0,88.0,264.0,white,flipped triangle
0.0,4.0,4.0,0.0,7.0,4.0,3000.2085189917125,1.0,1.0,part_3,go,0.0,0.0,0.0,204.0,6.0,34.0,170.0,68.0,204.0,136.0,102.0,white,flipped triangle
0.0,1.0,1.0,0.0,7.0,2.0,2435.826175962575,1.0,1.0,part_3,go,0.0,0.0,0.0,136.0,4.0,204.0,136.0,170.0,68.0,102.0,34.0,green,triangle
0.0,7.0,3.0,1.0,7.0,3.0,4019.918465986848,1.0,1.0,part_3,go,0.0,0.0,0.0,54.0,1.0,324.0,162.0,54.0,108.0,270.0,216.0,gray,cross
0.0,2.0,2.0,0.0,7.0,6.0,3944.2826960003,1.0,1.0,part_3,go,0.0,0.0,0.0,78.0,2.0,156.0,117.0,195.0,39.0,234.0,78.0,blue,I
0.0,5.0,1.0,1.0,7.0,2.0,2193.472021026537,1.0,1.0,part_3,go,0.0,0.0,0.0,34.0,1.0,136.0,34.0,102.0,204.0,170.0,68.0,yellow,hexagon
0.0,2.0,2.0,0.0,7.0,1.0,2581.634231028147,1.0,1.0,part_3,go,0.0,0.0,0.0,98.0,2.0,98.0,294.0,147.0,49.0,196.0,245.0,blue,I
0.0,4.0,4.0,0.0,7.0,5.0,2181.563510966953,1.0,2.0,part_3,go,0.0,0.0,0.0,324.0,6.0,216.0,108.0,270.0,162.0,324.0,54.0,white,flipped triangle
0.0,3.0,3.0,0.0,7.0,2.0,4546.346043993253,1.0,1.0,part_3,go,0.0,0.0,0.0,324.0,6.0,270.0,324.0,54.0,162.0,108.0,216.0,magenta,circle
0.0,6.0,2.0,1.0,7.0,6.0,3330.8179689920507,1.0,1.0,part_3,go,0.0,0.0,0.0,39.0,1.0,78.0,234.0,195.0,117.0,156.0,39.0,cyan,square
0.0,2.0,2.0,0.0,7.0,1.0,3483.5232049808837,1.0,1.0,part_3,go,0.0,0.0,0.0,54.0,1.0,54.0,324.0,216.0,162.0,108.0,270.0,blue,I
0.0,5.0,1.0,1.0,7.0,3.0,2690.035790030379,1.0,1.0,part_3,go,0.0,0.0,0.0,54.0,1.0,270.0,108.0,54.0,162.0,216.0,324.0,yellow,hexagon
0.0,6.0,2.0,1.0,7.0,3.0,3335.201035020873,1.0,1.0,part_3,go,0.0,0.0,0.0,98.0,2.0,245.0,294.0,98.0,49.0,147.0,196.0,cyan,square
0.0,5.0,1.0,1.0,7.0,2.0,2676.207037002314,1.0,1.0,part_3,go,0.0,0.0,0.0,44.0,1.0,264.0,44.0,132.0,88.0,220.0,176.0,yellow,hexagon
0.0,2.0,2.0,0.0,7.0,4.0,1015.4972530435771,1.0,2.0,part_3,go,0.0,0.0,0.0,88.0,2.0,132.0,44.0,220.0,88.0,264.0,176.0,blue,I
0.0,8.0,4.0,1.0,7.0,1.0,2444.097653031349,1.0,1.0,part_3,go,0.0,0.0,0.0,204.0,6.0,204.0,34.0,68.0,136.0,102.0,170.0,orange,diamond
0.0,1.0,1.0,0.0,7.0,1.0,1109.8462869995274,2.0,3.0,part_3,go,0.0,0.0,0.0,162.0,3.0,162.0,54.0,108.0,216.0,324.0,270.0,green,triangle
0.0,7.0,3.0,1.0,7.0,1.0,728.5575779969804,2.0,2.0,part_3,go,0.0,0.0,0.0,98.0,2.0,98.0,196.0,49.0,294.0,245.0,147.0,gray,cross
0.0,6.0,2.0,1.0,7.0,1.0,2298.5967930289917,2.0,1.0,part_3,go,0.0,0.0,0.0,44.0,1.0,44.0,88.0,176.0,132.0,264.0,220.0,cyan,square
0.0,7.0,3.0,1.0,7.0,1.0,2890.7650649780408,2.0,1.0,part_3,go,0.0,0.0,0.0,68.0,2.0,68.0,34.0,136.0,204.0,170.0,102.0,gray,cross
0.0,3.0,3.0,0.0,7.0,4.0,2117.840608989354,2.0,1.0,part_3,go,0.0,0.0,0.0,170.0,5.0,34.0,204.0,136.0,170.0,68.0,102.0,magenta,circle
0.0,5.0,1.0,1.0,7.0,6.0,1863.506767025683,2.0,1.0,part_3,go,0.0,0.0,0.0,34.0,1.0,102.0,170.0,136.0,204.0,68.0,34.0,yellow,hexagon
0.0,1.0,1.0,0.0,7.0,5.0,3831.2237950158305,2.0,1.0,part_3,go,0.0,0.0,0.0,147.0,3.0,245.0,196.0,294.0,98.0,147.0,49.0,green,triangle
0.0,8.0,4.0,1.0,7.0,1.0,3258.012161997613,2.0,1.0,part_3,go,0.0,0.0,0.0,264.0,6.0,264.0,132.0,88.0,176.0,44.0,220.0,orange,diamond
0.0,4.0,4.0,0.0,7.0,6.0,2241.879989975132,2.0,1.0,part_3,go,0.0,0.0,0.0,324.0,6.0,216.0,54.0,108.0,162.0,270.0,324.0,white,flipped triangle
0.0,5.0,1.0,1.0,7.0,5.0,2438.367667957209,2.0,1.0,part_3,go,0.0,0.0,0.0,39.0,1.0,195.0,117.0,156.0,234.0,39.0,78.0,yellow,hexagon
0.0,2.0,2.0,0.0,7.0,1.0,4239.59948902484,2.0,1.0,part_3,go,0.0,0.0,0.0,117.0,3.0,117.0,195.0,234.0,78.0,39.0,156.0,blue,I
0.0,7.0,3.0,1.0,7.0,1.0,3377.898050006479,2.0,1.0,part_3,go,0.0,0.0,0.0,44.0,1.0,44.0,220.0,132.0,88.0,176.0,264.0,gray,cross
0.0,3.0,3.0,0.0,7.0,3.0,2758.011079975404,2.0,1.0,part_3,go,0.0,0.0,0.0,294.0,6.0,49.0,196.0,294.0,245.0,147.0,98.0,magenta,circle
0.0,3.0,3.0,0.0,7.0,2.0,1806.3374880002812,2.0,1.0,part_3,go,0.0,0.0,0.0,270.0,5.0,108.0,270.0,162.0,54.0,216.0,324.0,magenta,circle
0.0,8.0,4.0,1.0,7.0,6.0,2264.3493890063837,2.0,1.0,part_3,go,0.0,0.0,0.0,204.0,6.0,34.0,68.0,170.0,136.0,102.0,204.0,orange,diamond
0.0,5.0,1.0,1.0,7.0,5.0,2136.015902971849,2.0,1.0,part_3,go,0.0,0.0,0.0,49.0,1.0,98.0,294.0,196.0,147.0,49.0,245.0,yellow,hexagon
0.0,5.0,1.0,1.0,7.0,1.0,1978.4309469978325,2.0,1.0,part_3,go,0.0,0.0,0.0,39.0,1.0,39.0,117.0,234.0,78.0,156.0,195.0,yellow,hexagon
0.0,6.0,2.0,1.0,7.0,2.0,2642.054841038771,2.0,1.0,part_3,go,0.0,0.0,0.0,34.0,1.0,136.0,34.0,102.0,68.0,204.0,170.0,cyan,square
0.0,7.0,3.0,1.0,7.0,4.0,2302.616112981923,2.0,1.0,part_3,go,0.0,0.0,0.0,117.0,3.0,195.0,156.0,39.0,117.0,234.0,78.0,gray,cross
0.0,8.0,4.0,1.0,7.0,6.0,2582.656774029602,2.0,1.0,part_3,go,0.0,0.0,0.0,264.0,6.0,220.0,88.0,132.0,176.0,44.0,264.0,orange,diamond
0.0,2.0,2.0,0.0,7.0,1.0,2757.9594330163673,3.0,1.0,part_3,go,0.0,0.0,0.0,108.0,2.0,108.0,324.0,270.0,216.0,54.0,162.0,blue,I
0.0,1.0,1.0,0.0,7.0,1.0,2790.4765600105748,3.0,1.0,part_3,go,0.0,0.0,0.0,264.0,6.0,264.0,44.0,220.0,176.0,132.0,88.0,green,triangle
0.0,3.0,3.0,0.0,7.0,3.0,2439.038173004519,3.0,1.0,part_3,go,0.0,0.0,0.0,204.0,6.0,102.0,68.0,204.0,136.0,170.0,34.0,magenta,circle
0.0,7.0,3.0,1.0,7.0,4.0,3507.4518540059216,3.0,1.0,part_3,go,0.0,0.0,0.0,98.0,2.0,147.0,245.0,294.0,98.0,196.0,49.0,gray,cross
0.0,5.0,1.0,1.0,7.0,4.0,1828.1721340026704,3.0,1.0,part_3,go,0.0,0.0,0.0,54.0,1.0,108.0,216.0,324.0,54.0,162.0,270.0,yellow,hexagon
0.0,7.0,3.0,1.0,7.0,3.0,3205.669541959651,3.0,1.0,part_3,go,0.0,0.0,0.0,108.0,2.0,54.0,324.0,108.0,216.0,270.0,162.0,gray,cross
0.0,7.0,3.0,1.0,7.0,1.0,3636.6021560388617,3.0,1.0,part_3,go,0.0,0.0,0.0,68.0,2.0,68.0,34.0,170.0,204.0,102.0,136.0,gray,cross
0.0,3.0,3.0,0.0,7.0,6.0,3246.5464360429905,3.0,1.0,part_3,go,0.0,0.0,0.0,245.0,5.0,294.0,196.0,147.0,98.0,49.0,245.0,magenta,circle
0.0,6.0,2.0,1.0,7.0,6.0,2346.4913369971327,3.0,1.0,part_3,go,0.0,0.0,0.0,49.0,1.0,196.0,294.0,147.0,245.0,98.0,49.0,cyan,square
0.0,8.0,4.0,1.0,7.0,4.0,2593.218015972525,3.0,1.0,part_3,go,0.0,0.0,0.0,324.0,6.0,108.0,216.0,54.0,324.0,270.0,162.0,orange,diamond
0.0,3.0,3.0,0.0,7.0,5.0,1858.8507330277937,3.0,1.0,part_3,go,0.0,0.0,0.0,220.0,5.0,132.0,176.0,264.0,88.0,220.0,44.0,magenta,circle
0.0,6.0,2.0,1.0,7.0,3.0,2068.183283030521,3.0,1.0,part_3,go,0.0,0.0,0.0,44.0,1.0,264.0,88.0,44.0,220.0,132.0,176.0,cyan,square
0.0,3.0,3.0,0.0,7.0,4.0,2759.3445549719036,3.0,1.0,part_3,go,0.0,0.0,0.0,195.0,5.0,117.0,156.0,39.0,195.0,234.0,78.0,magenta,circle
0.0,5.0,1.0,1.0,7.0,3.0,1277.8815149795264,3.0,1.0,part_3,go,0.0,0.0,0.0,49.0,1.0,196.0,245.0,49.0,98.0,147.0,294.0,yellow,hexagon
0.0,8.0,4.0,1.0,7.0,5.0,2746.220553992316,3.0,1.0,part_3,go,0.0,0.0,0.0,294.0,6.0,49.0,98.0,245.0,196.0,294.0,147.0,orange,diamond
0.0,6.0,2.0,1.0,7.0,6.0,1690.187638043426,3.0,1.0,part_3,go,0.0,0.0,0.0,54.0,1.0,324.0,108.0,162.0,270.0,216.0,54.0,cyan,square
0.0,3.0,3.0,0.0,7.0,1.0,2173.255212022923,3.0,1.0,part_3,go,0.0,0.0,0.0,220.0,5.0,220.0,44.0,88.0,264.0,132.0,176.0,magenta,circle
0.0,1.0,1.0,0.0,7.0,1.0,2132.2869089781307,3.0,1.0,part_3,go,0.0,0.0,0.0,196.0,4.0,196.0,245.0,49.0,294.0,98.0,147.0,green,triangle
0.0,6.0,2.0,1.0,7.0,1.0,1447.7004850050434,3.0,1.0,part_3,go,0.0,0.0,0.0,39.0,1.0,39.0,156.0,234.0,117.0,78.0,195.0,cyan,square
0.0,4.0,4.0,0.0,7.0,1.0,1777.8071130160242,3.0,1.0,part_3,go,0.0,0.0,0.0,204.0,6.0,204.0,102.0,68.0,170.0,136.0,34.0,white,flipped triangle
0.0,4.0,4.0,0.0,7.0,1.0,3227.501615998335,4.0,1.0,part_3,go,0.0,0.0,0.0,195.0,5.0,195.0,234.0,117.0,78.0,39.0,156.0,white,flipped triangle
0.0,3.0,3.0,0.0,7.0,2.0,2238.605746999383,4.0,1.0,part_3,go,0.0,0.0,0.0,195.0,5.0,117.0,195.0,39.0,156.0,78.0,234.0,magenta,circle
0.0,2.0,2.0,0.0,7.0,5.0,2272.3110879887827,4.0,1.0,part_3,go,0.0,0.0,0.0,102.0,3.0,136.0,204.0,68.0,170.0,102.0,34.0,blue,I
0.0,7.0,3.0,1.0,7.0,5.0,2121.4911460410804,4.0,1.0,part_3,go,0.0,0.0,0.0,88.0,2.0,132.0,264.0,176.0,220.0,88.0,44.0,gray,cross
0.0,2.0,2.0,0.0,7.0,4.0,3354.5015460113063,4.0,1.0,part_3,go,0.0,0.0,0.0,132.0,3.0,220.0,88.0,44.0,132.0,176.0,264.0,blue,I
0.0,2.0,2.0,0.0,7.0,3.0,1403.6838989704847,4.0,1.0,part_3,go,0.0,0.0,0.0,102.0,3.0,204.0,34.0,102.0,170.0,68.0,136.0,blue,I
0.0,1.0,1.0,0.0,7.0,4.0,3010.251662984956,4.0,1.0,part_3,go,0.0,0.0,0.0,216.0,4.0,270.0,162.0,108.0,216.0,54.0,324.0,green,triangle
0.0,6.0,2.0,1.0,7.0,3.0,3805.4716270416975,4.0,1.0,part_3,go,0.0,0.0,0.0,34.0,1.0,68.0,204.0,34.0,102.0,136.0,170.0,cyan,square
0.0,1.0,1.0,0.0,7.0,6.0,2084.88728501834,4.0,1.0,part_3,go,0.0,0.0,0.0,204.0,6.0,136.0,34.0,102.0,68.0,170.0,204.0,green,triangle
0.0,4.0,4.0,0.0,7.0,3.0,1777.3510739789344,4.0,1.0,part_3,go,0.0,0.0,0.0,234.0,6.0,156.0,39.0,234.0,117.0,78.0,195.0,white,flipped triangle
0.0,4.0,4.0,0.0,7.0,6.0,2953.3525200095028,4.0,1.0,part_3,go,0.0,0.0,0.0,294.0,6.0,98.0,147.0,49.0,196.0,245.0,294.0,white,flipped triangle
0.0,4.0,4.0,0.0,7.0,5.0,1948.0507440166548,4.0,1.0,part_3,go,0.0,0.0,0.0,294.0,6.0,147.0,196.0,245.0,98.0,294.0,49.0,white,flipped triangle
0.0,1.0,1.0,0.0,7.0,1.0,2460.834195953794,4.0,1.0,part_3,go,0.0,0.0,0.0,234.0,6.0,234.0,156.0,78.0,195.0,117.0,39.0,green,triangle
0.0,8.0,4.0,1.0,7.0,1.0,3572.114998009056,4.0,1.0,part_3,go,0.0,0.0,0.0,234.0,6.0,234.0,117.0,39.0,78.0,156.0,195.0,orange,diamond
0.0,4.0,4.0,0.0,7.0,1.0,3144.3177760229446,4.0,1.0,part_3,go,0.0,0.0,0.0,220.0,5.0,220.0,44.0,176.0,264.0,88.0,132.0,white,flipped triangle
0.0,1.0,1.0,0.0,7.0,4.0,3038.1802629563026,4.0,1.0,part_3,go,0.0,0.0,0.0,234.0,6.0,117.0,39.0,78.0,234.0,156.0,195.0,green,triangle
0.0,6.0,2.0,1.0,7.0,6.0,2112.5823409529403,4.0,1.0,part_3,go,0.0,0.0,0.0,54.0,1.0,216.0,270.0,324.0,108.0,162.0,54.0,cyan,square
0.0,8.0,4.0,1.0,7.0,1.0,1907.5535780284551,4.0,1.0,part_3,go,0.0,0.0,0.0,324.0,6.0,324.0,108.0,54.0,162.0,270.0,216.0,orange,diamond
0.0,1.0,1.0,0.0,7.0,5.0,2530.3812060155906,4.0,1.0,part_3,go,0.0,0.0,0.0,220.0,5.0,264.0,132.0,176.0,88.0,220.0,44.0,green,triangle
0.0,7.0,3.0,1.0,7.0,6.0,2758.5851959884167,4.0,1.0,part_3,go,0.0,0.0,0.0,234.0,6.0,117.0,78.0,39.0,156.0,195.0,234.0,gray,cross
