raw_reward_magnitude,stim_reward,stepwise_reward_magnitude,paired_with_stopping,stim_location,response,reaction_time,block,num_trial_presentations,which_phase,stop_signal_trial_type,left_SSD,right_SSD,accuracy,chosen_bidding_amount,chosen_bidding_level,possible_bid_1,possible_bid_2,possible_bid_3,possible_bid_4,possible_bid_5,possible_bid_6,color_text,shape_text
422.0,4.0,4.0,0.0,4.0,4.0,512.3953770380467,1.0,1.0,phase_1,,,,,,,,,,,,,green,hexagon
47.0,5.0,1.0,1.0,4.0,4.0,427.3472509812563,1.0,1.0,phase_1,,,,,,,,,,,,,yellow,flipped triangle
115.0,6.0,2.0,1.0,3.0,3.0,459.475390962325,1.0,1.0,phase_1,,,,,,,,,,,,,cyan,triangle
77.0,2.0,2.0,0.0,2.0,2.0,429.7506209695712,1.0,1.0,phase_1,,,,,,,,,,,,,magenta,I
31.0,1.0,1.0,0.0,4.0,4.0,393.6362800886854,1.0,1.0,phase_1,,,,,,,,,,,,,blue,diamond
0.0,3.0,0.0,0.0,2.0,2.0,365.1045160368085,1.0,1.0,phase_1,,,,,,,,,,,,,white,cross
121.0,2.0,2.0,0.0,3.0,3.0,348.8579270197078,1.0,1.0,phase_1,,,,,,,,,,,,,magenta,I
31.0,5.0,1.0,1.0,3.0,3.0,367.7729369373992,1.0,1.0,phase_1,,,,,,,,,,,,,yellow,flipped triangle
0.0,8.0,0.0,1.0,2.0,2.0,411.5421109599992,1.0,1.0,phase_1,,,,,,,,,,,,,gray,circle
104.0,2.0,2.0,0.0,4.0,4.0,346.0335519630462,1.0,1.0,phase_1,,,,,,,,,,,,,magenta,I
67.0,1.0,1.0,0.0,3.0,3.0,309.0586609905585,1.0,1.0,phase_1,,,,,,,,,,,,,blue,diamond
382.0,8.0,4.0,1.0,2.0,2.0,353.4918680088594,1.0,1.0,phase_1,,,,,,,,,,,,,gray,circle
0.0,4.0,0.0,0.0,4.0,4.0,342.2772500198334,1.0,1.0,phase_1,,,,,,,,,,,,,green,hexagon
420.0,4.0,4.0,0.0,2.0,2.0,427.1348239853978,1.0,1.0,phase_1,,,,,,,,,,,,,green,hexagon
219.0,7.0,3.0,1.0,1.0,1.0,424.35459897387767,1.0,1.0,phase_1,,,,,,,,,,,,,orange,square
381.0,4.0,4.0,0.0,4.0,4.0,350.3953450126573,1.0,1.0,phase_1,,,,,,,,,,,,,green,hexagon
0.0,7.0,0.0,1.0,3.0,3.0,369.5805720053613,1.0,1.0,phase_1,,,,,,,,,,,,,orange,square
410.0,8.0,4.0,1.0,2.0,2.0,383.5715489694848,1.0,1.0,phase_1,,,,,,,,,,,,,gray,circle
214.0,3.0,3.0,0.0,4.0,4.0,333.8742130436003,1.0,1.0,phase_1,,,,,,,,,,,,,white,cross
413.0,8.0,4.0,1.0,3.0,3.0,336.6174510447308,1.0,1.0,phase_1,,,,,,,,,,,,,gray,circle
389.0,8.0,4.0,1.0,2.0,2.0,316.5265049319714,1.0,1.0,phase_1,,,,,,,,,,,,,gray,circle
399.0,4.0,4.0,0.0,3.0,3.0,386.4197389921173,1.0,1.0,phase_1,,,,,,,,,,,,,green,hexagon
91.0,6.0,2.0,1.0,3.0,3.0,381.1687169363722,1.0,1.0,phase_1,,,,,,,,,,,,,cyan,triangle
79.0,6.0,2.0,1.0,2.0,2.0,338.8782360125333,1.0,1.0,phase_1,,,,,,,,,,,,,cyan,triangle
45.0,5.0,1.0,1.0,3.0,3.0,344.899398041889,1.0,1.0,phase_1,,,,,,,,,,,,,yellow,flipped triangle
404.0,8.0,4.0,1.0,2.0,2.0,349.4976799702272,1.0,1.0,phase_1,,,,,,,,,,,,,gray,circle
222.0,7.0,3.0,1.0,3.0,3.0,352.2782779764384,1.0,1.0,phase_1,,,,,,,,,,,,,orange,square
398.0,4.0,4.0,0.0,4.0,4.0,486.4971889182925,1.0,1.0,phase_1,,,,,,,,,,,,,green,hexagon
47.0,1.0,1.0,0.0,3.0,3.0,394.5022489642724,1.0,1.0,phase_1,,,,,,,,,,,,,blue,diamond
213.0,7.0,3.0,1.0,2.0,2.0,512.8571670502424,1.0,1.0,phase_1,,,,,,,,,,,,,orange,square
50.0,1.0,1.0,0.0,4.0,4.0,452.8247229754925,1.0,1.0,phase_1,,,,,,,,,,,,,blue,diamond
39.0,5.0,1.0,1.0,1.0,1.0,425.7123580900952,1.0,1.0,phase_1,,,,,,,,,,,,,yellow,flipped triangle
402.0,8.0,4.0,1.0,2.0,2.0,324.6075969655067,1.0,1.0,phase_1,,,,,,,,,,,,,gray,circle
0.0,5.0,0.0,1.0,3.0,3.0,395.6315899267792,1.0,1.0,phase_1,,,,,,,,,,,,,yellow,flipped triangle
68.0,5.0,1.0,1.0,4.0,4.0,336.4538030000403,1.0,1.0,phase_1,,,,,,,,,,,,,yellow,flipped triangle
224.0,7.0,3.0,1.0,4.0,4.0,411.2913539865985,1.0,1.0,phase_1,,,,,,,,,,,,,orange,square
213.0,3.0,3.0,0.0,2.0,2.0,430.9730250388384,1.0,1.0,phase_1,,,,,,,,,,,,,white,cross
396.0,8.0,4.0,1.0,1.0,1.0,491.7077290592715,1.0,1.0,phase_1,,,,,,,,,,,,,gray,circle
89.0,2.0,2.0,0.0,3.0,3.0,353.2316839555278,1.0,1.0,phase_1,,,,,,,,,,,,,magenta,I
187.0,7.0,3.0,1.0,1.0,1.0,368.323853937909,1.0,1.0,phase_1,,,,,,,,,,,,,orange,square
376.0,4.0,4.0,0.0,4.0,4.0,387.1935710776597,1.0,1.0,phase_1,,,,,,,,,,,,,green,hexagon
0.0,6.0,0.0,1.0,2.0,2.0,366.0824869293719,1.0,1.0,phase_1,,,,,,,,,,,,,cyan,triangle
380.0,8.0,4.0,1.0,3.0,3.0,403.2559701008722,1.0,1.0,phase_1,,,,,,,,,,,,,gray,circle
98.0,6.0,2.0,1.0,4.0,4.0,457.7363620046526,1.0,1.0,phase_1,,,,,,,,,,,,,cyan,triangle
220.0,3.0,3.0,0.0,4.0,4.0,365.1892959605902,1.0,1.0,phase_1,,,,,,,,,,,,,white,cross
92.0,2.0,2.0,0.0,4.0,4.0,443.1701059220359,1.0,1.0,phase_1,,,,,,,,,,,,,magenta,I
207.0,7.0,3.0,1.0,1.0,1.0,397.5733550032601,1.0,1.0,phase_1,,,,,,,,,,,,,orange,square
100.0,6.0,2.0,1.0,1.0,1.0,403.0329269589856,1.0,1.0,phase_1,,,,,,,,,,,,,cyan,triangle
191.0,3.0,3.0,0.0,4.0,4.0,360.7599199749529,1.0,1.0,phase_1,,,,,,,,,,,,,white,cross
36.0,5.0,1.0,1.0,2.0,2.0,398.6314730718732,1.0,1.0,phase_1,,,,,,,,,,,,,yellow,flipped triangle
117.0,6.0,2.0,1.0,4.0,4.0,304.7520969994366,1.0,1.0,phase_1,,,,,,,,,,,,,cyan,triangle
0.0,1.0,0.0,0.0,1.0,1.0,366.8575009796768,1.0,1.0,phase_1,,,,,,,,,,,,,blue,diamond
108.0,6.0,2.0,1.0,3.0,3.0,314.8380689090118,1.0,1.0,phase_1,,,,,,,,,,,,,cyan,triangle
196.0,3.0,3.0,0.0,2.0,2.0,326.45883201621467,1.0,1.0,phase_1,,,,,,,,,,,,,white,cross
70.0,1.0,1.0,0.0,2.0,2.0,349.4472269667312,1.0,1.0,phase_1,,,,,,,,,,,,,blue,diamond
0.0,5.0,0.0,1.0,3.0,3.0,394.7899729246273,1.0,1.0,phase_1,,,,,,,,,,,,,yellow,flipped triangle
70.0,1.0,1.0,0.0,2.0,2.0,388.1994190160185,1.0,1.0,phase_1,,,,,,,,,,,,,blue,diamond
121.0,6.0,2.0,1.0,4.0,4.0,433.4947499446571,1.0,1.0,phase_1,,,,,,,,,,,,,cyan,triangle
0.0,7.0,0.0,1.0,4.0,4.0,351.5279969433322,1.0,1.0,phase_1,,,,,,,,,,,,,orange,square
189.0,7.0,3.0,1.0,1.0,1.0,430.3683158941567,1.0,1.0,phase_1,,,,,,,,,,,,,orange,square
36.0,1.0,1.0,0.0,2.0,2.0,495.4020259901881,1.0,1.0,phase_1,,,,,,,,,,,,,blue,diamond
378.0,4.0,4.0,0.0,3.0,3.0,366.1034340038895,1.0,1.0,phase_1,,,,,,,,,,,,,green,hexagon
200.0,7.0,3.0,1.0,2.0,2.0,452.1976710529998,1.0,1.0,phase_1,,,,,,,,,,,,,orange,square
0.0,7.0,0.0,1.0,1.0,1.0,469.9677189346403,1.0,1.0,phase_1,,,,,,,,,,,,,orange,square
189.0,3.0,3.0,0.0,2.0,2.0,361.6274149389937,1.0,1.0,phase_1,,,,,,,,,,,,,white,cross
113.0,6.0,2.0,1.0,1.0,1.0,417.6991509739309,1.0,1.0,phase_1,,,,,,,,,,,,,cyan,triangle
403.0,8.0,4.0,1.0,1.0,1.0,340.0284820236265,1.0,1.0,phase_1,,,,,,,,,,,,,gray,circle
181.0,7.0,3.0,1.0,4.0,4.0,323.7475430360064,1.0,1.0,phase_1,,,,,,,,,,,,,orange,square
90.0,6.0,2.0,1.0,1.0,1.0,295.0107509968802,1.0,1.0,phase_1,,,,,,,,,,,,,cyan,triangle
83.0,6.0,2.0,1.0,4.0,4.0,307.8247170196846,1.0,1.0,phase_1,,,,,,,,,,,,,cyan,triangle
92.0,6.0,2.0,1.0,1.0,1.0,279.1046589845791,1.0,1.0,phase_1,,,,,,,,,,,,,cyan,triangle
70.0,5.0,1.0,1.0,2.0,2.0,314.544387976639,1.0,1.0,phase_1,,,,,,,,,,,,,yellow,flipped triangle
70.0,5.0,1.0,1.0,3.0,3.0,282.4469560291618,1.0,1.0,phase_1,,,,,,,,,,,,,yellow,flipped triangle
399.0,8.0,4.0,1.0,4.0,4.0,413.1071970332414,1.0,1.0,phase_1,,,,,,,,,,,,,gray,circle
104.0,6.0,2.0,1.0,4.0,4.0,409.3973429407924,1.0,1.0,phase_1,,,,,,,,,,,,,cyan,triangle
409.0,4.0,4.0,0.0,3.0,3.0,336.7457749554887,1.0,1.0,phase_1,,,,,,,,,,,,,green,hexagon
58.0,1.0,1.0,0.0,3.0,3.0,397.7858850266784,1.0,1.0,phase_1,,,,,,,,,,,,,blue,diamond
204.0,3.0,3.0,0.0,4.0,4.0,417.5877399975434,1.0,1.0,phase_1,,,,,,,,,,,,,white,cross
193.0,3.0,3.0,0.0,1.0,1.0,308.3593460032716,1.0,1.0,phase_1,,,,,,,,,,,,,white,cross
79.0,6.0,2.0,1.0,2.0,2.0,352.5781909702346,1.0,1.0,phase_1,,,,,,,,,,,,,cyan,triangle
181.0,3.0,3.0,0.0,4.0,4.0,384.3063489766791,1.0,1.0,phase_1,,,,,,,,,,,,,white,cross
182.0,3.0,3.0,0.0,3.0,3.0,370.2076900517568,1.0,1.0,phase_1,,,,,,,,,,,,,white,cross
39.0,1.0,1.0,0.0,2.0,2.0,303.3508580410853,1.0,1.0,phase_1,,,,,,,,,,,,,blue,diamond
0.0,5.0,0.0,1.0,4.0,4.0,364.1518179792911,1.0,1.0,phase_1,,,,,,,,,,,,,yellow,flipped triangle
220.0,7.0,3.0,1.0,3.0,3.0,339.0672350069508,1.0,1.0,phase_1,,,,,,,,,,,,,orange,square
43.0,5.0,1.0,1.0,2.0,2.0,356.3044840702787,1.0,1.0,phase_1,,,,,,,,,,,,,yellow,flipped triangle
57.0,1.0,1.0,0.0,3.0,3.0,409.3144159996882,1.0,1.0,phase_1,,,,,,,,,,,,,blue,diamond
177.0,3.0,3.0,0.0,1.0,1.0,367.5981010310352,1.0,1.0,phase_1,,,,,,,,,,,,,white,cross
36.0,5.0,1.0,1.0,1.0,1.0,422.7460720576346,1.0,1.0,phase_1,,,,,,,,,,,,,yellow,flipped triangle
423.0,8.0,4.0,1.0,3.0,3.0,423.982840962708,1.0,1.0,phase_1,,,,,,,,,,,,,gray,circle
90.0,2.0,2.0,0.0,1.0,1.0,316.3266389165073,1.0,1.0,phase_1,,,,,,,,,,,,,magenta,I
386.0,4.0,4.0,0.0,3.0,3.0,308.5076049901545,1.0,1.0,phase_1,,,,,,,,,,,,,green,hexagon
208.0,3.0,3.0,0.0,1.0,1.0,373.1795910280198,1.0,1.0,phase_1,,,,,,,,,,,,,white,cross
43.0,1.0,1.0,0.0,1.0,1.0,325.3926750039682,1.0,1.0,phase_1,,,,,,,,,,,,,blue,diamond
48.0,5.0,1.0,1.0,2.0,2.0,400.7508079521358,1.0,1.0,phase_1,,,,,,,,,,,,,yellow,flipped triangle
29.0,1.0,1.0,0.0,1.0,1.0,364.2979470314458,1.0,1.0,phase_1,,,,,,,,,,,,,blue,diamond
115.0,2.0,2.0,0.0,4.0,4.0,360.2570610819384,1.0,1.0,phase_1,,,,,,,,,,,,,magenta,I
0.0,2.0,0.0,0.0,3.0,3.0,445.7219640025869,1.0,1.0,phase_1,,,,,,,,,,,,,magenta,I
87.0,2.0,2.0,0.0,1.0,1.0,306.3581539317965,1.0,1.0,phase_1,,,,,,,,,,,,,magenta,I
113.0,6.0,2.0,1.0,2.0,2.0,391.6777160484344,1.0,1.0,phase_1,,,,,,,,,,,,,cyan,triangle
182.0,7.0,3.0,1.0,1.0,1.0,419.9878629297018,2.0,1.0,phase_1,,,,,,,,,,,,,orange,square
0.0,8.0,0.0,1.0,2.0,2.0,409.286824055016,2.0,1.0,phase_1,,,,,,,,,,,,,gray,circle
391.0,4.0,4.0,0.0,1.0,1.0,331.3289240468293,2.0,1.0,phase_1,,,,,,,,,,,,,green,hexagon
54.0,5.0,1.0,1.0,4.0,4.0,384.32422792539,2.0,1.0,phase_1,,,,,,,,,,,,,yellow,flipped triangle
180.0,7.0,3.0,1.0,2.0,2.0,395.8804979920387,2.0,1.0,phase_1,,,,,,,,,,,,,orange,square
199.0,3.0,3.0,0.0,4.0,4.0,401.5825319802388,2.0,1.0,phase_1,,,,,,,,,,,,,white,cross
83.0,2.0,2.0,0.0,3.0,3.0,430.2431590622291,2.0,1.0,phase_1,,,,,,,,,,,,,magenta,I
189.0,7.0,3.0,1.0,1.0,1.0,390.0035229744389,2.0,1.0,phase_1,,,,,,,,,,,,,orange,square
189.0,7.0,3.0,1.0,3.0,3.0,361.9053490692749,2.0,1.0,phase_1,,,,,,,,,,,,,orange,square
425.0,8.0,4.0,1.0,4.0,4.0,389.4330849871039,2.0,1.0,phase_1,,,,,,,,,,,,,gray,circle
179.0,7.0,3.0,1.0,4.0,4.0,385.8641099650413,2.0,1.0,phase_1,,,,,,,,,,,,,orange,square
59.0,1.0,1.0,0.0,1.0,1.0,364.609973039478,2.0,1.0,phase_1,,,,,,,,,,,,,blue,diamond
408.0,4.0,4.0,0.0,2.0,2.0,500.69380598142743,2.0,1.0,phase_1,,,,,,,,,,,,,green,hexagon
0.0,7.0,0.0,1.0,4.0,4.0,312.509507057257,2.0,1.0,phase_1,,,,,,,,,,,,,orange,square
0.0,4.0,0.0,0.0,3.0,3.0,381.0802369844168,2.0,1.0,phase_1,,,,,,,,,,,,,green,hexagon
0.0,5.0,0.0,1.0,4.0,4.0,420.7838959991932,2.0,2.0,phase_1,,,,,,,,,,,,,yellow,flipped triangle
396.0,4.0,4.0,0.0,1.0,1.0,491.4294530171901,2.0,1.0,phase_1,,,,,,,,,,,,,green,hexagon
190.0,3.0,3.0,0.0,2.0,2.0,542.3988649854437,2.0,1.0,phase_1,,,,,,,,,,,,,white,cross
99.0,2.0,2.0,0.0,3.0,3.0,370.1647130073979,2.0,1.0,phase_1,,,,,,,,,,,,,magenta,I
0.0,7.0,0.0,1.0,2.0,2.0,495.2747590141371,2.0,1.0,phase_1,,,,,,,,,,,,,orange,square
70.0,5.0,1.0,1.0,2.0,2.0,462.340779020451,2.0,1.0,phase_1,,,,,,,,,,,,,yellow,flipped triangle
0.0,1.0,0.0,0.0,2.0,2.0,451.3435529079288,2.0,1.0,phase_1,,,,,,,,,,,,,blue,diamond
89.0,6.0,2.0,1.0,1.0,1.0,389.5770780509338,2.0,1.0,phase_1,,,,,,,,,,,,,cyan,triangle
80.0,2.0,2.0,0.0,3.0,3.0,450.4527280805632,2.0,1.0,phase_1,,,,,,,,,,,,,magenta,I
77.0,6.0,2.0,1.0,4.0,4.0,504.77803603280336,2.0,1.0,phase_1,,,,,,,,,,,,,cyan,triangle
416.0,8.0,4.0,1.0,1.0,1.0,474.9793499941006,2.0,1.0,phase_1,,,,,,,,,,,,,gray,circle
87.0,6.0,2.0,1.0,3.0,3.0,458.0218059709295,2.0,1.0,phase_1,,,,,,,,,,,,,cyan,triangle
0.0,8.0,0.0,1.0,3.0,3.0,397.2015749895945,2.0,1.0,phase_1,,,,,,,,,,,,,gray,circle
124.0,6.0,2.0,1.0,4.0,4.0,433.23313689325,2.0,1.0,phase_1,,,,,,,,,,,,,cyan,triangle
70.0,1.0,1.0,0.0,3.0,3.0,407.9442359507084,2.0,1.0,phase_1,,,,,,,,,,,,,blue,diamond
415.0,4.0,4.0,0.0,2.0,2.0,403.1372619792819,2.0,1.0,phase_1,,,,,,,,,,,,,green,hexagon
180.0,3.0,3.0,0.0,1.0,1.0,330.2442979766056,2.0,1.0,phase_1,,,,,,,,,,,,,white,cross
113.0,2.0,2.0,0.0,2.0,2.0,356.996656046249,2.0,1.0,phase_1,,,,,,,,,,,,,magenta,I
54.0,5.0,1.0,1.0,1.0,1.0,331.1005380237475,2.0,1.0,phase_1,,,,,,,,,,,,,yellow,flipped triangle
190.0,7.0,3.0,1.0,3.0,3.0,353.380688931793,2.0,1.0,phase_1,,,,,,,,,,,,,orange,square
0.0,3.0,0.0,0.0,2.0,2.0,397.8963550180197,2.0,1.0,phase_1,,,,,,,,,,,,,white,cross
71.0,5.0,1.0,1.0,3.0,3.0,470.6531680421904,2.0,1.0,phase_1,,,,,,,,,,,,,yellow,flipped triangle
0.0,6.0,0.0,1.0,2.0,2.0,340.0266079697758,2.0,1.0,phase_1,,,,,,,,,,,,,cyan,triangle
204.0,7.0,3.0,1.0,1.0,1.0,360.1129839662462,2.0,1.0,phase_1,,,,,,,,,,,,,orange,square
391.0,8.0,4.0,1.0,4.0,4.0,341.4670689962804,2.0,1.0,phase_1,,,,,,,,,,,,,gray,circle
388.0,4.0,4.0,0.0,4.0,4.0,378.6490089260041,2.0,1.0,phase_1,,,,,,,,,,,,,green,hexagon
73.0,5.0,1.0,1.0,2.0,2.0,376.5899250283837,2.0,1.0,phase_1,,,,,,,,,,,,,yellow,flipped triangle
400.0,4.0,4.0,0.0,3.0,3.0,389.3363679526374,2.0,1.0,phase_1,,,,,,,,,,,,,green,hexagon
177.0,7.0,3.0,1.0,1.0,1.0,491.9869460863992,2.0,2.0,phase_1,,,,,,,,,,,,,orange,square
120.0,2.0,2.0,0.0,3.0,3.0,425.2390860347077,2.0,1.0,phase_1,,,,,,,,,,,,,magenta,I
36.0,1.0,1.0,0.0,3.0,3.0,509.46124200709164,2.0,1.0,phase_1,,,,,,,,,,,,,blue,diamond
0.0,5.0,0.0,1.0,1.0,1.0,485.8069609617814,2.0,1.0,phase_1,,,,,,,,,,,,,yellow,flipped triangle
0.0,7.0,0.0,1.0,4.0,4.0,473.9415369695052,2.0,1.0,phase_1,,,,,,,,,,,,,orange,square
179.0,3.0,3.0,0.0,3.0,3.0,382.0811149198562,2.0,1.0,phase_1,,,,,,,,,,,,,white,cross
398.0,8.0,4.0,1.0,3.0,3.0,441.4554900722578,2.0,1.0,phase_1,,,,,,,,,,,,,gray,circle
30.0,1.0,1.0,0.0,1.0,1.0,463.1672849645838,2.0,1.0,phase_1,,,,,,,,,,,,,blue,diamond
79.0,2.0,2.0,0.0,1.0,1.0,433.5183380171656,2.0,1.0,phase_1,,,,,,,,,,,,,magenta,I
203.0,3.0,3.0,0.0,1.0,1.0,495.2448080293834,2.0,1.0,phase_1,,,,,,,,,,,,,white,cross
0.0,2.0,0.0,0.0,2.0,2.0,554.9072140129283,2.0,1.0,phase_1,,,,,,,,,,,,,magenta,I
0.0,3.0,0.0,0.0,4.0,4.0,512.3080580960959,2.0,1.0,phase_1,,,,,,,,,,,,,white,cross
181.0,3.0,3.0,0.0,1.0,1.0,407.2147629922256,2.0,1.0,phase_1,,,,,,,,,,,,,white,cross
416.0,4.0,4.0,0.0,3.0,3.0,427.1778400288895,2.0,1.0,phase_1,,,,,,,,,,,,,green,hexagon
189.0,3.0,3.0,0.0,3.0,3.0,382.4056099401787,2.0,1.0,phase_1,,,,,,,,,,,,,white,cross
107.0,6.0,2.0,1.0,2.0,2.0,644.6055130800232,2.0,1.0,phase_1,,,,,,,,,,,,,cyan,triangle
0.0,5.0,0.0,1.0,4.0,4.0,403.2170139253139,2.0,1.0,phase_1,,,,,,,,,,,,,yellow,flipped triangle
0.0,1.0,0.0,0.0,1.0,1.0,455.2310339640826,2.0,1.0,phase_1,,,,,,,,,,,,,blue,diamond
420.0,8.0,4.0,1.0,4.0,4.0,520.350534003228,2.0,1.0,phase_1,,,,,,,,,,,,,gray,circle
0.0,8.0,0.0,1.0,4.0,4.0,361.2845389870927,2.0,1.0,phase_1,,,,,,,,,,,,,gray,circle
120.0,6.0,2.0,1.0,3.0,3.0,393.8287970377132,2.0,1.0,phase_1,,,,,,,,,,,,,cyan,triangle
53.0,1.0,1.0,0.0,4.0,4.0,456.7765730898827,2.0,1.0,phase_1,,,,,,,,,,,,,blue,diamond
213.0,3.0,3.0,0.0,3.0,3.0,389.7830380592495,2.0,1.0,phase_1,,,,,,,,,,,,,white,cross
196.0,7.0,3.0,1.0,1.0,1.0,376.8353100167587,2.0,1.0,phase_1,,,,,,,,,,,,,orange,square
391.0,4.0,4.0,0.0,1.0,1.0,504.80196299031377,2.0,1.0,phase_1,,,,,,,,,,,,,green,hexagon
420.0,4.0,4.0,0.0,3.0,3.0,331.802572007291,2.0,1.0,phase_1,,,,,,,,,,,,,green,hexagon
114.0,2.0,2.0,0.0,4.0,4.0,328.0279240570962,2.0,1.0,phase_1,,,,,,,,,,,,,magenta,I
420.0,8.0,4.0,1.0,3.0,3.0,389.9228010559454,2.0,1.0,phase_1,,,,,,,,,,,,,gray,circle
93.0,6.0,2.0,1.0,2.0,2.0,361.5906820632517,2.0,1.0,phase_1,,,,,,,,,,,,,cyan,triangle
0.0,3.0,0.0,0.0,4.0,4.0,286.7398140951991,2.0,1.0,phase_1,,,,,,,,,,,,,white,cross
44.0,1.0,1.0,0.0,4.0,4.0,330.4181679850444,2.0,1.0,phase_1,,,,,,,,,,,,,blue,diamond
216.0,7.0,3.0,1.0,3.0,3.0,319.6795169496909,2.0,1.0,phase_1,,,,,,,,,,,,,orange,square
0.0,4.0,0.0,0.0,1.0,1.0,330.5349549045786,2.0,1.0,phase_1,,,,,,,,,,,,,green,hexagon
117.0,2.0,2.0,0.0,2.0,2.0,375.6569559918716,2.0,1.0,phase_1,,,,,,,,,,,,,magenta,I
0.0,6.0,0.0,1.0,2.0,2.0,360.1600140100345,2.0,2.0,phase_1,,,,,,,,,,,,,cyan,triangle
219.0,3.0,3.0,0.0,3.0,3.0,469.9064820306375,2.0,1.0,phase_1,,,,,,,,,,,,,white,cross
104.0,6.0,2.0,1.0,2.0,2.0,372.643934097141,2.0,1.0,phase_1,,,,,,,,,,,,,cyan,triangle
105.0,2.0,2.0,0.0,1.0,1.0,392.863517976366,2.0,1.0,phase_1,,,,,,,,,,,,,magenta,I
386.0,4.0,4.0,0.0,2.0,2.0,405.6926509365439,2.0,1.0,phase_1,,,,,,,,,,,,,green,hexagon
100.0,2.0,2.0,0.0,3.0,3.0,360.9425069298595,2.0,1.0,phase_1,,,,,,,,,,,,,magenta,I
113.0,2.0,2.0,0.0,1.0,1.0,320.0346219819039,2.0,1.0,phase_1,,,,,,,,,,,,,magenta,I
113.0,2.0,2.0,0.0,2.0,2.0,393.371898913756,2.0,1.0,phase_1,,,,,,,,,,,,,magenta,I
67.0,5.0,1.0,1.0,2.0,2.0,398.49645702634,2.0,1.0,phase_1,,,,,,,,,,,,,yellow,flipped triangle
108.0,2.0,2.0,0.0,3.0,3.0,325.224537984468,2.0,1.0,phase_1,,,,,,,,,,,,,magenta,I
64.0,1.0,1.0,0.0,3.0,3.0,356.8615079857409,2.0,2.0,phase_1,,,,,,,,,,,,,blue,diamond
224.0,3.0,3.0,0.0,4.0,4.0,505.4236249998212,2.0,1.0,phase_1,,,,,,,,,,,,,white,cross
216.0,3.0,3.0,0.0,3.0,3.0,407.7989240176976,2.0,1.0,phase_1,,,,,,,,,,,,,white,cross
404.0,4.0,4.0,0.0,1.0,1.0,491.0976279061287,2.0,1.0,phase_1,,,,,,,,,,,,,green,hexagon
0.0,2.0,0.0,0.0,1.0,1.0,449.8264769790694,2.0,1.0,phase_1,,,,,,,,,,,,,magenta,I
91.0,2.0,2.0,0.0,2.0,2.0,540.0544430594891,2.0,1.0,phase_1,,,,,,,,,,,,,magenta,I
413.0,4.0,4.0,0.0,2.0,2.0,336.6210280219093,2.0,1.0,phase_1,,,,,,,,,,,,,green,hexagon
32.0,5.0,1.0,1.0,2.0,2.0,340.6946649774909,2.0,1.0,phase_1,,,,,,,,,,,,,yellow,flipped triangle
101.0,6.0,2.0,1.0,3.0,3.0,401.3700920622796,2.0,1.0,phase_1,,,,,,,,,,,,,cyan,triangle
0.0,3.0,0.0,0.0,2.0,2.0,397.8394259465858,2.0,1.0,phase_1,,,,,,,,,,,,,white,cross
31.0,1.0,1.0,0.0,2.0,2.0,357.6684109866619,2.0,1.0,phase_1,,,,,,,,,,,,,blue,diamond
59.0,5.0,1.0,1.0,4.0,4.0,416.4395530242473,2.0,1.0,phase_1,,,,,,,,,,,,,yellow,flipped triangle
183.0,7.0,3.0,1.0,3.0,3.0,358.2659190287813,2.0,1.0,phase_1,,,,,,,,,,,,,orange,square
216.0,3.0,3.0,0.0,3.0,3.0,401.4863930642605,3.0,1.0,phase_1,,,,,,,,,,,,,white,cross
197.0,3.0,3.0,0.0,2.0,2.0,337.521955021657,3.0,1.0,phase_1,,,,,,,,,,,,,white,cross
413.0,8.0,4.0,1.0,3.0,3.0,372.6077999453991,3.0,1.0,phase_1,,,,,,,,,,,,,gray,circle
56.0,1.0,1.0,0.0,2.0,2.0,320.2332520158961,3.0,1.0,phase_1,,,,,,,,,,,,,blue,diamond
183.0,3.0,3.0,0.0,1.0,1.0,365.492171025835,3.0,1.0,phase_1,,,,,,,,,,,,,white,cross
0.0,6.0,0.0,1.0,2.0,2.0,376.7622170271352,3.0,1.0,phase_1,,,,,,,,,,,,,cyan,triangle
207.0,3.0,3.0,0.0,2.0,2.0,279.5689909253269,3.0,1.0,phase_1,,,,,,,,,,,,,white,cross
0.0,4.0,0.0,0.0,3.0,3.0,349.5517970295623,3.0,1.0,phase_1,,,,,,,,,,,,,green,hexagon
217.0,7.0,3.0,1.0,2.0,2.0,319.8376640211791,3.0,1.0,phase_1,,,,,,,,,,,,,orange,square
96.0,2.0,2.0,0.0,2.0,2.0,342.2021230217069,3.0,1.0,phase_1,,,,,,,,,,,,,magenta,I
80.0,6.0,2.0,1.0,2.0,2.0,329.639200004749,3.0,1.0,phase_1,,,,,,,,,,,,,cyan,triangle
175.0,3.0,3.0,0.0,1.0,1.0,520.225988002494,3.0,1.0,phase_1,,,,,,,,,,,,,white,cross
0.0,8.0,0.0,1.0,4.0,4.0,371.70222599525,3.0,1.0,phase_1,,,,,,,,,,,,,gray,circle
196.0,3.0,3.0,0.0,2.0,2.0,344.6835700888186,3.0,1.0,phase_1,,,,,,,,,,,,,white,cross
0.0,8.0,0.0,1.0,4.0,4.0,423.0777620105073,3.0,1.0,phase_1,,,,,,,,,,,,,gray,circle
213.0,7.0,3.0,1.0,4.0,4.0,387.4418190680444,3.0,1.0,phase_1,,,,,,,,,,,,,orange,square
224.0,7.0,3.0,1.0,3.0,3.0,365.1234050048515,3.0,1.0,phase_1,,,,,,,,,,,,,orange,square
213.0,7.0,3.0,1.0,4.0,4.0,401.5368809923529,3.0,1.0,phase_1,,,,,,,,,,,,,orange,square
0.0,2.0,0.0,0.0,1.0,1.0,353.5714891040697,3.0,1.0,phase_1,,,,,,,,,,,,,magenta,I
63.0,1.0,1.0,0.0,2.0,2.0,430.44883699622,3.0,1.0,phase_1,,,,,,,,,,,,,blue,diamond
0.0,3.0,0.0,0.0,4.0,4.0,303.3397541148588,3.0,1.0,phase_1,,,,,,,,,,,,,white,cross
76.0,6.0,2.0,1.0,1.0,1.0,352.0204829983413,3.0,1.0,phase_1,,,,,,,,,,,,,cyan,triangle
102.0,6.0,2.0,1.0,1.0,1.0,404.0957179386168,3.0,1.0,phase_1,,,,,,,,,,,,,cyan,triangle
29.0,5.0,1.0,1.0,1.0,1.0,360.0975919980556,3.0,1.0,phase_1,,,,,,,,,,,,,yellow,flipped triangle
0.0,2.0,0.0,0.0,4.0,4.0,404.7991900006309,3.0,1.0,phase_1,,,,,,,,,,,,,magenta,I
214.0,7.0,3.0,1.0,4.0,4.0,409.7757469862699,3.0,1.0,phase_1,,,,,,,,,,,,,orange,square
32.0,5.0,1.0,1.0,3.0,3.0,455.4089530138299,3.0,1.0,phase_1,,,,,,,,,,,,,yellow,flipped triangle
0.0,7.0,0.0,1.0,4.0,4.0,369.9424490332603,3.0,1.0,phase_1,,,,,,,,,,,,,orange,square
40.0,1.0,1.0,0.0,2.0,2.0,453.1011829385534,3.0,1.0,phase_1,,,,,,,,,,,,,blue,diamond
80.0,2.0,2.0,0.0,1.0,1.0,442.293539061211,3.0,1.0,phase_1,,,,,,,,,,,,,magenta,I
381.0,8.0,4.0,1.0,1.0,1.0,504.8322200309485,3.0,1.0,phase_1,,,,,,,,,,,,,gray,circle
197.0,7.0,3.0,1.0,4.0,4.0,486.3063369411975,3.0,1.0,phase_1,,,,,,,,,,,,,orange,square
54.0,1.0,1.0,0.0,1.0,1.0,385.0736640160903,3.0,1.0,phase_1,,,,,,,,,,,,,blue,diamond
0.0,6.0,0.0,1.0,4.0,4.0,421.6460050083697,3.0,1.0,phase_1,,,,,,,,,,,,,cyan,triangle
0.0,5.0,0.0,1.0,3.0,3.0,595.4792570555583,3.0,1.0,phase_1,,,,,,,,,,,,,yellow,flipped triangle
417.0,4.0,4.0,0.0,1.0,1.0,352.8412049636245,3.0,1.0,phase_1,,,,,,,,,,,,,green,hexagon
0.0,4.0,0.0,0.0,4.0,4.0,435.2447490673512,3.0,1.0,phase_1,,,,,,,,,,,,,green,hexagon
85.0,6.0,2.0,1.0,2.0,2.0,503.65104200318456,3.0,1.0,phase_1,,,,,,,,,,,,,cyan,triangle
38.0,1.0,1.0,0.0,1.0,1.0,379.8028919845819,3.0,1.0,phase_1,,,,,,,,,,,,,blue,diamond
389.0,4.0,4.0,0.0,4.0,4.0,409.5646489877254,3.0,1.0,phase_1,,,,,,,,,,,,,green,hexagon
403.0,4.0,4.0,0.0,3.0,3.0,415.7703240634873,3.0,1.0,phase_1,,,,,,,,,,,,,green,hexagon
44.0,5.0,1.0,1.0,2.0,2.0,444.5548589574173,3.0,1.0,phase_1,,,,,,,,,,,,,yellow,flipped triangle
58.0,5.0,1.0,1.0,4.0,4.0,286.8198660435155,3.0,1.0,phase_1,,,,,,,,,,,,,yellow,flipped triangle
386.0,8.0,4.0,1.0,1.0,1.0,357.6322379522025,3.0,1.0,phase_1,,,,,,,,,,,,,gray,circle
400.0,8.0,4.0,1.0,2.0,2.0,375.674206065014,3.0,1.0,phase_1,,,,,,,,,,,,,gray,circle
403.0,8.0,4.0,1.0,4.0,4.0,319.6844779886305,3.0,1.0,phase_1,,,,,,,,,,,,,gray,circle
0.0,4.0,0.0,0.0,2.0,2.0,338.9132369775325,3.0,1.0,phase_1,,,,,,,,,,,,,green,hexagon
196.0,7.0,3.0,1.0,2.0,2.0,374.6986630139872,3.0,1.0,phase_1,,,,,,,,,,,,,orange,square
95.0,6.0,2.0,1.0,4.0,4.0,389.0459319809451,3.0,1.0,phase_1,,,,,,,,,,,,,cyan,triangle
422.0,8.0,4.0,1.0,1.0,1.0,482.0518339984119,3.0,1.0,phase_1,,,,,,,,,,,,,gray,circle
96.0,6.0,2.0,1.0,2.0,2.0,431.4230029704049,3.0,1.0,phase_1,,,,,,,,,,,,,cyan,triangle
67.0,1.0,1.0,0.0,2.0,2.0,340.5333861010149,3.0,1.0,phase_1,,,,,,,,,,,,,blue,diamond
187.0,3.0,3.0,0.0,4.0,4.0,272.1316650277003,3.0,1.0,phase_1,,,,,,,,,,,,,white,cross
379.0,4.0,4.0,0.0,4.0,4.0,324.7666719835251,3.0,1.0,phase_1,,,,,,,,,,,,,green,hexagon
380.0,4.0,4.0,0.0,4.0,4.0,328.5353829851374,3.0,1.0,phase_1,,,,,,,,,,,,,green,hexagon
388.0,8.0,4.0,1.0,3.0,3.0,349.4701749878004,3.0,1.0,phase_1,,,,,,,,,,,,,gray,circle
410.0,4.0,4.0,0.0,2.0,2.0,360.2109130006283,3.0,1.0,phase_1,,,,,,,,,,,,,green,hexagon
0.0,1.0,0.0,0.0,3.0,3.0,381.6748079843819,3.0,1.0,phase_1,,,,,,,,,,,,,blue,diamond
0.0,2.0,0.0,0.0,4.0,4.0,307.4147020233795,3.0,1.0,phase_1,,,,,,,,,,,,,magenta,I
0.0,8.0,0.0,1.0,4.0,4.0,327.0614260109141,3.0,1.0,phase_1,,,,,,,,,,,,,gray,circle
50.0,5.0,1.0,1.0,1.0,1.0,380.7819039793685,3.0,1.0,phase_1,,,,,,,,,,,,,yellow,flipped triangle
403.0,4.0,4.0,0.0,2.0,2.0,335.7244250364601,3.0,1.0,phase_1,,,,,,,,,,,,,green,hexagon
413.0,4.0,4.0,0.0,3.0,3.0,328.3394159516319,3.0,1.0,phase_1,,,,,,,,,,,,,green,hexagon
0.0,2.0,0.0,0.0,2.0,2.0,340.3493800433352,3.0,1.0,phase_1,,,,,,,,,,,,,magenta,I
0.0,7.0,0.0,1.0,4.0,4.0,375.8658709703013,3.0,1.0,phase_1,,,,,,,,,,,,,orange,square
410.0,8.0,4.0,1.0,4.0,4.0,380.8043079916388,3.0,1.0,phase_1,,,,,,,,,,,,,gray,circle
105.0,6.0,2.0,1.0,3.0,3.0,416.9424250721931,3.0,1.0,phase_1,,,,,,,,,,,,,cyan,triangle
63.0,5.0,1.0,1.0,1.0,1.0,364.556971937418,3.0,1.0,phase_1,,,,,,,,,,,,,yellow,flipped triangle
105.0,6.0,2.0,1.0,4.0,4.0,306.9404700072482,3.0,1.0,phase_1,,,,,,,,,,,,,cyan,triangle
108.0,6.0,2.0,1.0,1.0,1.0,421.3258610107004,3.0,1.0,phase_1,,,,,,,,,,,,,cyan,triangle
401.0,8.0,4.0,1.0,3.0,3.0,404.5102460077032,3.0,1.0,phase_1,,,,,,,,,,,,,gray,circle
105.0,2.0,2.0,0.0,1.0,1.0,431.1085019726306,3.0,1.0,phase_1,,,,,,,,,,,,,magenta,I
222.0,3.0,3.0,0.0,3.0,3.0,375.4549399018287,3.0,1.0,phase_1,,,,,,,,,,,,,white,cross
189.0,3.0,3.0,0.0,2.0,2.0,403.5301900003105,3.0,1.0,phase_1,,,,,,,,,,,,,white,cross
68.0,1.0,1.0,0.0,4.0,4.0,552.7312429621816,3.0,1.0,phase_1,,,,,,,,,,,,,blue,diamond
32.0,1.0,1.0,0.0,4.0,4.0,306.9723120424896,3.0,1.0,phase_1,,,,,,,,,,,,,blue,diamond
175.0,7.0,3.0,1.0,2.0,2.0,350.4737530602142,3.0,1.0,phase_1,,,,,,,,,,,,,orange,square
187.0,7.0,3.0,1.0,3.0,3.0,330.432458082214,3.0,1.0,phase_1,,,,,,,,,,,,,orange,square
199.0,3.0,3.0,0.0,1.0,1.0,374.9857270158827,3.0,1.0,phase_1,,,,,,,,,,,,,white,cross
76.0,2.0,2.0,0.0,3.0,3.0,368.2554479455575,3.0,1.0,phase_1,,,,,,,,,,,,,magenta,I
32.0,5.0,1.0,1.0,4.0,4.0,322.2085159504786,3.0,1.0,phase_1,,,,,,,,,,,,,yellow,flipped triangle
124.0,2.0,2.0,0.0,2.0,2.0,654.194057919085,3.0,1.0,phase_1,,,,,,,,,,,,,magenta,I
213.0,3.0,3.0,0.0,3.0,3.0,434.3581949360668,3.0,1.0,phase_1,,,,,,,,,,,,,white,cross
0.0,6.0,0.0,1.0,1.0,1.0,537.2137950034812,3.0,1.0,phase_1,,,,,,,,,,,,,cyan,triangle
104.0,2.0,2.0,0.0,4.0,4.0,430.5766250472516,3.0,1.0,phase_1,,,,,,,,,,,,,magenta,I
200.0,3.0,3.0,0.0,3.0,3.0,336.3660079194233,3.0,1.0,phase_1,,,,,,,,,,,,,white,cross
35.0,5.0,1.0,1.0,1.0,1.0,405.1526299444958,3.0,1.0,phase_1,,,,,,,,,,,,,yellow,flipped triangle
386.0,8.0,4.0,1.0,2.0,2.0,426.2589770369231,3.0,1.0,phase_1,,,,,,,,,,,,,gray,circle
40.0,5.0,1.0,1.0,1.0,1.0,374.4365649763495,3.0,1.0,phase_1,,,,,,,,,,,,,yellow,flipped triangle
93.0,6.0,2.0,1.0,3.0,3.0,338.8225500239059,3.0,1.0,phase_1,,,,,,,,,,,,,cyan,triangle
382.0,4.0,4.0,0.0,1.0,1.0,306.7930920515209,3.0,1.0,phase_1,,,,,,,,,,,,,green,hexagon
31.0,5.0,1.0,1.0,3.0,3.0,398.9722540136426,3.0,1.0,phase_1,,,,,,,,,,,,,yellow,flipped triangle
113.0,6.0,2.0,1.0,4.0,4.0,324.9861969379708,3.0,1.0,phase_1,,,,,,,,,,,,,cyan,triangle
95.0,2.0,2.0,0.0,1.0,1.0,360.8156309928745,3.0,1.0,phase_1,,,,,,,,,,,,,magenta,I
0.0,1.0,0.0,0.0,4.0,4.0,357.2650089627132,3.0,1.0,phase_1,,,,,,,,,,,,,blue,diamond
0.0,4.0,0.0,0.0,2.0,2.0,474.6832989621907,3.0,1.0,phase_1,,,,,,,,,,,,,green,hexagon
377.0,4.0,4.0,0.0,2.0,2.0,438.2352579850703,3.0,1.0,phase_1,,,,,,,,,,,,,green,hexagon
193.0,7.0,3.0,1.0,4.0,4.0,328.423345927149,3.0,1.0,phase_1,,,,,,,,,,,,,orange,square
379.0,8.0,4.0,1.0,1.0,1.0,287.3478359542787,3.0,1.0,phase_1,,,,,,,,,,,,,gray,circle
42.0,1.0,1.0,0.0,3.0,3.0,365.3619890101254,3.0,1.0,phase_1,,,,,,,,,,,,,blue,diamond
0.0,1.0,0.0,0.0,3.0,3.0,349.2373879998922,4.0,1.0,phase_1,,,,,,,,,,,,,blue,diamond
0.0,4.0,0.0,0.0,2.0,2.0,274.4543640874326,4.0,1.0,phase_1,,,,,,,,,,,,,green,hexagon
93.0,2.0,2.0,0.0,1.0,1.0,320.8491429686546,4.0,1.0,phase_1,,,,,,,,,,,,,magenta,I
73.0,1.0,1.0,0.0,1.0,1.0,340.2898530475795,4.0,1.0,phase_1,,,,,,,,,,,,,blue,diamond
0.0,6.0,0.0,1.0,3.0,3.0,334.0127599658444,4.0,1.0,phase_1,,,,,,,,,,,,,cyan,triangle
415.0,8.0,4.0,1.0,1.0,1.0,339.900822029449,4.0,1.0,phase_1,,,,,,,,,,,,,gray,circle
425.0,4.0,4.0,0.0,4.0,4.0,377.5290669873357,4.0,1.0,phase_1,,,,,,,,,,,,,green,hexagon
64.0,1.0,1.0,0.0,4.0,4.0,357.3070699349046,4.0,1.0,phase_1,,,,,,,,,,,,,blue,diamond
85.0,2.0,2.0,0.0,2.0,2.0,353.206590982154,4.0,1.0,phase_1,,,,,,,,,,,,,magenta,I
98.0,2.0,2.0,0.0,2.0,2.0,360.8578190905973,4.0,1.0,phase_1,,,,,,,,,,,,,magenta,I
35.0,1.0,1.0,0.0,1.0,1.0,434.3544569564983,4.0,1.0,phase_1,,,,,,,,,,,,,blue,diamond
102.0,2.0,2.0,0.0,1.0,1.0,431.2086650170386,4.0,1.0,phase_1,,,,,,,,,,,,,magenta,I
204.0,7.0,3.0,1.0,2.0,2.0,350.1475170487538,4.0,1.0,phase_1,,,,,,,,,,,,,orange,square
0.0,8.0,0.0,1.0,1.0,1.0,368.741855956614,4.0,1.0,phase_1,,,,,,,,,,,,,gray,circle
99.0,6.0,2.0,1.0,3.0,3.0,367.3549520317465,4.0,1.0,phase_1,,,,,,,,,,,,,cyan,triangle
110.0,2.0,2.0,0.0,4.0,4.0,373.0330649996176,4.0,1.0,phase_1,,,,,,,,,,,,,magenta,I
378.0,8.0,4.0,1.0,4.0,4.0,410.3063149377703,4.0,1.0,phase_1,,,,,,,,,,,,,gray,circle
67.0,5.0,1.0,1.0,4.0,4.0,351.1891840025782,4.0,1.0,phase_1,,,,,,,,,,,,,yellow,flipped triangle
0.0,1.0,0.0,0.0,1.0,1.0,417.3732320778072,4.0,1.0,phase_1,,,,,,,,,,,,,blue,diamond
401.0,4.0,4.0,0.0,1.0,1.0,452.6704149320721,4.0,1.0,phase_1,,,,,,,,,,,,,green,hexagon
212.0,3.0,3.0,0.0,2.0,2.0,420.6840739352628,4.0,1.0,phase_1,,,,,,,,,,,,,white,cross
64.0,5.0,1.0,1.0,3.0,3.0,625.4142099060118,4.0,1.0,phase_1,,,,,,,,,,,,,yellow,flipped triangle
224.0,3.0,3.0,0.0,2.0,2.0,413.959056022577,4.0,1.0,phase_1,,,,,,,,,,,,,white,cross
64.0,5.0,1.0,1.0,1.0,1.0,327.9799959855154,4.0,1.0,phase_1,,,,,,,,,,,,,yellow,flipped triangle
423.0,4.0,4.0,0.0,1.0,1.0,476.6927789896726,4.0,1.0,phase_1,,,,,,,,,,,,,green,hexagon
397.0,4.0,4.0,0.0,1.0,1.0,402.5981569429859,4.0,1.0,phase_1,,,,,,,,,,,,,green,hexagon
417.0,8.0,4.0,1.0,1.0,1.0,431.3134159892797,4.0,1.0,phase_1,,,,,,,,,,,,,gray,circle
62.0,5.0,1.0,1.0,2.0,2.0,460.2902400074526,4.0,1.0,phase_1,,,,,,,,,,,,,yellow,flipped triangle
79.0,2.0,2.0,0.0,4.0,4.0,330.3847350180149,4.0,1.0,phase_1,,,,,,,,,,,,,magenta,I
0.0,3.0,0.0,0.0,3.0,3.0,364.2445049481466,4.0,1.0,phase_1,,,,,,,,,,,,,white,cross
409.0,8.0,4.0,1.0,4.0,4.0,371.5850849403068,4.0,1.0,phase_1,,,,,,,,,,,,,gray,circle
0.0,1.0,0.0,0.0,2.0,2.0,422.8665030095726,4.0,1.0,phase_1,,,,,,,,,,,,,blue,diamond
0.0,2.0,0.0,0.0,2.0,2.0,416.962485993281,4.0,1.0,phase_1,,,,,,,,,,,,,magenta,I
42.0,5.0,1.0,1.0,1.0,1.0,431.251416914165,4.0,1.0,phase_1,,,,,,,,,,,,,yellow,flipped triangle
32.0,1.0,1.0,0.0,4.0,4.0,469.1934110596776,4.0,1.0,phase_1,,,,,,,,,,,,,blue,diamond
47.0,5.0,1.0,1.0,3.0,3.0,402.7832670835778,4.0,1.0,phase_1,,,,,,,,,,,,,yellow,flipped triangle
56.0,5.0,1.0,1.0,4.0,4.0,390.2096460806206,4.0,1.0,phase_1,,,,,,,,,,,,,yellow,flipped triangle
191.0,7.0,3.0,1.0,4.0,4.0,410.3692739736289,4.0,1.0,phase_1,,,,,,,,,,,,,orange,square
383.0,8.0,4.0,1.0,2.0,2.0,518.3746499242261,4.0,1.0,phase_1,,,,,,,,,,,,,gray,circle
408.0,8.0,4.0,1.0,2.0,2.0,484.196429955773,4.0,1.0,phase_1,,,,,,,,,,,,,gray,circle
0.0,6.0,0.0,1.0,3.0,3.0,459.2526899650693,4.0,1.0,phase_1,,,,,,,,,,,,,cyan,triangle
0.0,5.0,0.0,1.0,1.0,1.0,486.3440620247274,4.0,1.0,phase_1,,,,,,,,,,,,,yellow,flipped triangle
93.0,2.0,2.0,0.0,4.0,4.0,377.4675179738551,4.0,1.0,phase_1,,,,,,,,,,,,,magenta,I
107.0,2.0,2.0,0.0,2.0,2.0,406.2133609550074,4.0,1.0,phase_1,,,,,,,,,,,,,magenta,I
118.0,6.0,2.0,1.0,2.0,2.0,441.7784719262272,4.0,1.0,phase_1,,,,,,,,,,,,,cyan,triangle
204.0,3.0,3.0,0.0,4.0,4.0,366.8682050192728,4.0,1.0,phase_1,,,,,,,,,,,,,white,cross
0.0,7.0,0.0,1.0,3.0,3.0,396.3903479743749,4.0,1.0,phase_1,,,,,,,,,,,,,orange,square
376.0,8.0,4.0,1.0,4.0,4.0,442.911566933617,4.0,1.0,phase_1,,,,,,,,,,,,,gray,circle
0.0,1.0,0.0,0.0,3.0,3.0,380.557271069847,4.0,1.0,phase_1,,,,,,,,,,,,,blue,diamond
0.0,2.0,0.0,0.0,4.0,4.0,323.5018790001049,4.0,1.0,phase_1,,,,,,,,,,,,,magenta,I
101.0,2.0,2.0,0.0,4.0,4.0,376.8266399856657,4.0,1.0,phase_1,,,,,,,,,,,,,magenta,I
45.0,1.0,1.0,0.0,4.0,4.0,406.0734179802239,4.0,1.0,phase_1,,,,,,,,,,,,,blue,diamond
391.0,8.0,4.0,1.0,4.0,4.0,393.5079110087827,4.0,1.0,phase_1,,,,,,,,,,,,,gray,circle
0.0,8.0,0.0,1.0,4.0,4.0,406.2065900070593,4.0,1.0,phase_1,,,,,,,,,,,,,gray,circle
54.0,1.0,1.0,0.0,1.0,1.0,433.4634389961138,4.0,1.0,phase_1,,,,,,,,,,,,,blue,diamond
0.0,1.0,0.0,0.0,4.0,4.0,439.611644949764,4.0,1.0,phase_1,,,,,,,,,,,,,blue,diamond
48.0,1.0,1.0,0.0,2.0,2.0,451.0221530217677,4.0,1.0,phase_1,,,,,,,,,,,,,blue,diamond
0.0,2.0,0.0,0.0,3.0,3.0,442.6201779861003,4.0,1.0,phase_1,,,,,,,,,,,,,magenta,I
0.0,5.0,0.0,1.0,4.0,4.0,356.1607110314071,4.0,1.0,phase_1,,,,,,,,,,,,,yellow,flipped triangle
108.0,2.0,2.0,0.0,3.0,3.0,427.0479400875047,4.0,1.0,phase_1,,,,,,,,,,,,,magenta,I
397.0,8.0,4.0,1.0,1.0,1.0,541.5703620528802,4.0,1.0,phase_1,,,,,,,,,,,,,gray,circle
212.0,7.0,3.0,1.0,2.0,2.0,409.5394799951464,4.0,1.0,phase_1,,,,,,,,,,,,,orange,square
0.0,8.0,0.0,1.0,2.0,2.0,439.0821190318092,4.0,1.0,phase_1,,,,,,,,,,,,,gray,circle
110.0,6.0,2.0,1.0,1.0,1.0,358.791736070998,4.0,1.0,phase_1,,,,,,,,,,,,,cyan,triangle
402.0,4.0,4.0,0.0,1.0,1.0,432.586372946389,4.0,1.0,phase_1,,,,,,,,,,,,,green,hexagon
0.0,4.0,0.0,0.0,4.0,4.0,405.7953669689595,4.0,1.0,phase_1,,,,,,,,,,,,,green,hexagon
71.0,1.0,1.0,0.0,4.0,4.0,355.6874289643019,4.0,1.0,phase_1,,,,,,,,,,,,,blue,diamond
377.0,8.0,4.0,1.0,3.0,3.0,361.3075700122863,4.0,1.0,phase_1,,,,,,,,,,,,,gray,circle
181.0,7.0,3.0,1.0,1.0,1.0,396.0127499885857,4.0,1.0,phase_1,,,,,,,,,,,,,orange,square
53.0,5.0,1.0,1.0,4.0,4.0,431.106926058419,4.0,1.0,phase_1,,,,,,,,,,,,,yellow,flipped triangle
57.0,5.0,1.0,1.0,3.0,3.0,517.084175022319,4.0,1.0,phase_1,,,,,,,,,,,,,yellow,flipped triangle
118.0,2.0,2.0,0.0,4.0,4.0,332.5926470570266,4.0,1.0,phase_1,,,,,,,,,,,,,magenta,I
38.0,5.0,1.0,1.0,4.0,4.0,376.9732189830392,4.0,1.0,phase_1,,,,,,,,,,,,,yellow,flipped triangle
0.0,3.0,0.0,0.0,4.0,4.0,325.0560930464417,4.0,1.0,phase_1,,,,,,,,,,,,,white,cross
62.0,1.0,1.0,0.0,3.0,3.0,393.7147459946573,4.0,1.0,phase_1,,,,,,,,,,,,,blue,diamond
32.0,1.0,1.0,0.0,3.0,3.0,382.1097839390859,4.0,1.0,phase_1,,,,,,,,,,,,,blue,diamond
423.0,8.0,4.0,1.0,3.0,3.0,415.6252710381523,4.0,1.0,phase_1,,,,,,,,,,,,,gray,circle
0.0,6.0,0.0,1.0,2.0,2.0,533.0140029545873,4.0,1.0,phase_1,,,,,,,,,,,,,cyan,triangle
394.0,8.0,4.0,1.0,2.0,2.0,409.9923199974,4.0,1.0,phase_1,,,,,,,,,,,,,gray,circle
217.0,3.0,3.0,0.0,4.0,4.0,349.7686829650774,4.0,1.0,phase_1,,,,,,,,,,,,,white,cross
0.0,7.0,0.0,1.0,1.0,1.0,324.9189669732004,4.0,1.0,phase_1,,,,,,,,,,,,,orange,square
114.0,6.0,2.0,1.0,1.0,1.0,329.5772410929203,4.0,1.0,phase_1,,,,,,,,,,,,,cyan,triangle
410.0,4.0,4.0,0.0,4.0,4.0,323.7805069657042,4.0,1.0,phase_1,,,,,,,,,,,,,green,hexagon
0.0,3.0,0.0,0.0,2.0,2.0,385.0387189304456,4.0,1.0,phase_1,,,,,,,,,,,,,white,cross
0.0,4.0,0.0,0.0,4.0,4.0,583.811937016435,4.0,1.0,phase_1,,,,,,,,,,,,,green,hexagon
187.0,3.0,3.0,0.0,1.0,1.0,380.8997259475291,4.0,1.0,phase_1,,,,,,,,,,,,,white,cross
0.0,3.0,0.0,0.0,4.0,4.0,430.8617549249902,4.0,1.0,phase_1,,,,,,,,,,,,,white,cross
423.0,4.0,4.0,0.0,3.0,3.0,398.1834969017654,4.0,1.0,phase_1,,,,,,,,,,,,,green,hexagon
203.0,7.0,3.0,1.0,2.0,2.0,393.9283849904313,4.0,1.0,phase_1,,,,,,,,,,,,,orange,square
394.0,4.0,4.0,0.0,2.0,2.0,470.0108910910785,4.0,1.0,phase_1,,,,,,,,,,,,,green,hexagon
0.0,6.0,0.0,1.0,2.0,2.0,570.4726689727977,4.0,1.0,phase_1,,,,,,,,,,,,,cyan,triangle
47.0,1.0,1.0,0.0,1.0,1.0,470.3588369302451,4.0,1.0,phase_1,,,,,,,,,,,,,blue,diamond
199.0,7.0,3.0,1.0,4.0,4.0,283.1015840638429,4.0,1.0,phase_1,,,,,,,,,,,,,orange,square
383.0,4.0,4.0,0.0,2.0,2.0,410.2722159586847,4.0,1.0,phase_1,,,,,,,,,,,,,green,hexagon
30.0,5.0,1.0,1.0,3.0,3.0,350.5761619890108,4.0,1.0,phase_1,,,,,,,,,,,,,yellow,flipped triangle
0.0,5.0,0.0,1.0,1.0,1.0,392.7391830366105,4.0,1.0,phase_1,,,,,,,,,,,,,yellow,flipped triangle
199.0,7.0,3.0,1.0,2.0,2.0,454.1423110058531,4.0,1.0,phase_1,,,,,,,,,,,,,orange,square
216.0,7.0,3.0,1.0,3.0,3.0,418.5408669291064,4.0,1.0,phase_1,,,,,,,,,,,,,orange,square
208.0,7.0,3.0,1.0,3.0,3.0,343.2242929702624,4.0,1.0,phase_1,,,,,,,,,,,,,orange,square
80.0,6.0,2.0,1.0,3.0,3.0,397.4488439271226,4.0,1.0,phase_1,,,,,,,,,,,,,cyan,triangle
0.0,7.0,3.0,1.0,5.0,4.0,886.9596610311419,1.0,1.0,phase_2,go,250.0,250.0,2.0,,,,,,,,,orange,square
0.0,3.0,3.0,0.0,5.0,1.0,453.5211710026487,1.0,1.0,phase_2,go,250.0,250.0,2.0,,,,,,,,,white,cross
0.0,5.0,1.0,1.0,6.0,2.0,576.4014259912074,1.0,1.0,phase_2,stop,250.0,250.0,3.0,,,,,,,,,yellow,flipped triangle
0.0,7.0,3.0,1.0,6.0,2.0,380.8744549751282,1.0,1.0,phase_2,stop,250.0,200.0,3.0,,,,,,,,,orange,square
0.0,5.0,1.0,1.0,6.0,0.0,0.0,1.0,1.0,phase_2,stop,250.0,150.0,4.0,,,,,,,,,yellow,flipped triangle
0.0,3.0,3.0,0.0,5.0,1.0,460.5095980223268,1.0,1.0,phase_2,go,250.0,200.0,2.0,,,,,,,,,white,cross
0.0,2.0,2.0,0.0,6.0,2.0,330.7655430398881,1.0,1.0,phase_2,go,250.0,200.0,2.0,,,,,,,,,magenta,I
0.0,6.0,2.0,1.0,6.0,2.0,451.1689039645716,1.0,1.0,phase_2,stop,250.0,200.0,3.0,,,,,,,,,cyan,triangle
0.0,6.0,2.0,1.0,5.0,1.0,347.4420909769833,1.0,1.0,phase_2,stop,250.0,150.0,3.0,,,,,,,,,cyan,triangle
0.0,2.0,2.0,0.0,5.0,1.0,441.5972540155053,1.0,1.0,phase_2,go,200.0,150.0,2.0,,,,,,,,,magenta,I
0.0,7.0,3.0,1.0,6.0,0.0,0.0,1.0,1.0,phase_2,stop,200.0,150.0,4.0,,,,,,,,,orange,square
0.0,1.0,1.0,0.0,6.0,2.0,897.2896260675043,1.0,1.0,phase_2,go,200.0,200.0,2.0,,,,,,,,,blue,diamond
0.0,7.0,3.0,1.0,5.0,1.0,313.5085899848491,1.0,1.0,phase_2,stop,200.0,200.0,3.0,,,,,,,,,orange,square
0.0,7.0,3.0,1.0,6.0,2.0,465.5679729767144,1.0,1.0,phase_2,go,150.0,200.0,2.0,,,,,,,,,orange,square
0.0,3.0,3.0,0.0,5.0,0.0,0.0,1.0,1.0,phase_2,go,150.0,200.0,5.0,,,,,,,,,white,cross
0.0,1.0,1.0,0.0,5.0,1.0,559.5972309820354,1.0,1.0,phase_2,go,150.0,200.0,2.0,,,,,,,,,blue,diamond
0.0,1.0,1.0,0.0,5.0,1.0,349.9633040046319,1.0,1.0,phase_2,go,150.0,200.0,2.0,,,,,,,,,blue,diamond
0.0,5.0,1.0,1.0,6.0,2.0,365.1939020492136,1.0,1.0,phase_2,go,150.0,200.0,2.0,,,,,,,,,yellow,flipped triangle
0.0,6.0,2.0,1.0,5.0,1.0,760.2248700568452,1.0,1.0,phase_2,stop,150.0,200.0,3.0,,,,,,,,,cyan,triangle
0.0,2.0,2.0,0.0,5.0,1.0,527.8216599253938,1.0,1.0,phase_2,go,100.0,200.0,2.0,,,,,,,,,magenta,I
0.0,6.0,2.0,1.0,6.0,0.0,0.0,1.0,1.0,phase_2,stop,100.0,200.0,4.0,,,,,,,,,cyan,triangle
0.0,8.0,4.0,1.0,5.0,1.0,780.2617679117247,1.0,1.0,phase_2,go,100.0,250.0,2.0,,,,,,,,,gray,circle
0.0,8.0,4.0,1.0,5.0,0.0,0.0,1.0,1.0,phase_2,stop,100.0,250.0,4.0,,,,,,,,,gray,circle
0.0,8.0,4.0,1.0,6.0,0.0,0.0,1.0,1.0,phase_2,stop,150.0,250.0,4.0,,,,,,,,,gray,circle
0.0,1.0,1.0,0.0,5.0,1.0,475.96325003542,1.0,1.0,phase_2,go,150.0,300.0,2.0,,,,,,,,,blue,diamond
0.0,1.0,1.0,0.0,5.0,1.0,544.437941047363,1.0,1.0,phase_2,go,150.0,300.0,2.0,,,,,,,,,blue,diamond
0.0,7.0,3.0,1.0,6.0,0.0,0.0,1.0,1.0,phase_2,stop,150.0,300.0,4.0,,,,,,,,,orange,square
0.0,5.0,1.0,1.0,6.0,0.0,0.0,1.0,1.0,phase_2,stop,150.0,350.0,4.0,,,,,,,,,yellow,flipped triangle
0.0,3.0,3.0,0.0,5.0,1.0,640.4132629977539,1.0,1.0,phase_2,go,150.0,400.0,2.0,,,,,,,,,white,cross
0.0,3.0,3.0,0.0,5.0,1.0,406.6295459633693,1.0,1.0,phase_2,go,150.0,400.0,2.0,,,,,,,,,white,cross
0.0,7.0,3.0,1.0,6.0,2.0,445.9535300265997,1.0,1.0,phase_2,stop,150.0,400.0,3.0,,,,,,,,,orange,square
0.0,5.0,1.0,1.0,6.0,2.0,712.6360390102491,1.0,1.0,phase_2,go,150.0,350.0,2.0,,,,,,,,,yellow,flipped triangle
0.0,7.0,3.0,1.0,6.0,0.0,0.0,1.0,1.0,phase_2,stop,150.0,350.0,4.0,,,,,,,,,orange,square
0.0,2.0,2.0,0.0,5.0,1.0,508.9064020430669,1.0,1.0,phase_2,go,150.0,400.0,2.0,,,,,,,,,magenta,I
0.0,7.0,3.0,1.0,5.0,0.0,0.0,1.0,1.0,phase_2,stop,150.0,400.0,4.0,,,,,,,,,orange,square
0.0,8.0,4.0,1.0,6.0,2.0,402.5647250236943,1.0,1.0,phase_2,go,200.0,400.0,2.0,,,,,,,,,gray,circle
0.0,3.0,3.0,0.0,6.0,6.0,510.0135710090399,2.0,1.0,phase_2,go,200.0,400.0,1.0,,,,,,,,,white,cross
0.0,4.0,4.0,0.0,6.0,6.0,329.6162630431354,2.0,1.0,phase_2,go,200.0,400.0,1.0,,,,,,,,,green,hexagon
0.0,1.0,1.0,0.0,5.0,5.0,375.5396829219535,2.0,1.0,phase_2,go,200.0,400.0,1.0,,,,,,,,,blue,diamond
0.0,2.0,2.0,0.0,6.0,6.0,325.3573840484023,2.0,1.0,phase_2,go,200.0,400.0,1.0,,,,,,,,,magenta,I
0.0,4.0,4.0,0.0,5.0,5.0,291.6956880362704,2.0,1.0,phase_2,go,200.0,400.0,1.0,,,,,,,,,green,hexagon
0.0,7.0,3.0,1.0,6.0,6.0,263.345347950235,2.0,1.0,phase_2,go,200.0,400.0,1.0,,,,,,,,,orange,square
0.0,4.0,4.0,0.0,6.0,6.0,268.0693300208077,2.0,1.0,phase_2,go,200.0,400.0,1.0,,,,,,,,,green,hexagon
0.0,1.0,1.0,0.0,5.0,5.0,274.8741590185091,2.0,1.0,phase_2,go,200.0,400.0,1.0,,,,,,,,,blue,diamond
0.0,5.0,1.0,1.0,5.0,5.0,317.095267935656,2.0,1.0,phase_2,stop,200.0,400.0,3.0,,,,,,,,,yellow,flipped triangle
0.0,2.0,2.0,0.0,5.0,5.0,378.4232239704579,2.0,1.0,phase_2,go,150.0,400.0,1.0,,,,,,,,,magenta,I
0.0,2.0,2.0,0.0,5.0,5.0,395.0353399850428,2.0,1.0,phase_2,go,150.0,400.0,1.0,,,,,,,,,magenta,I
0.0,8.0,4.0,1.0,6.0,0.0,0.0,2.0,1.0,phase_2,stop,150.0,400.0,4.0,,,,,,,,,gray,circle
0.0,5.0,1.0,1.0,5.0,0.0,0.0,2.0,1.0,phase_2,stop,150.0,450.0,4.0,,,,,,,,,yellow,flipped triangle
0.0,1.0,1.0,0.0,5.0,5.0,599.5697069447488,2.0,1.0,phase_2,go,200.0,450.0,1.0,,,,,,,,,blue,diamond
0.0,8.0,4.0,1.0,6.0,6.0,501.83689093682915,2.0,1.0,phase_2,stop,200.0,450.0,3.0,,,,,,,,,gray,circle
0.0,1.0,1.0,0.0,6.0,6.0,606.5812429878861,2.0,1.0,phase_2,go,200.0,400.0,1.0,,,,,,,,,blue,diamond
0.0,1.0,1.0,0.0,6.0,6.0,617.4078810727224,2.0,1.0,phase_2,go,200.0,400.0,1.0,,,,,,,,,blue,diamond
0.0,4.0,4.0,0.0,5.0,5.0,824.839786044322,2.0,1.0,phase_2,go,200.0,400.0,1.0,,,,,,,,,green,hexagon
0.0,1.0,1.0,0.0,5.0,5.0,583.0772659974173,2.0,1.0,phase_2,go,200.0,400.0,1.0,,,,,,,,,blue,diamond
0.0,4.0,4.0,0.0,6.0,6.0,932.3641980299726,2.0,1.0,phase_2,go,200.0,400.0,1.0,,,,,,,,,green,hexagon
0.0,7.0,3.0,1.0,5.0,0.0,0.0,2.0,1.0,phase_2,stop,200.0,400.0,4.0,,,,,,,,,orange,square
0.0,8.0,4.0,1.0,5.0,0.0,0.0,2.0,1.0,phase_2,stop,250.0,400.0,4.0,,,,,,,,,gray,circle
0.0,6.0,2.0,1.0,6.0,6.0,549.3563329800963,2.0,1.0,phase_2,stop,300.0,400.0,3.0,,,,,,,,,cyan,triangle
0.0,7.0,3.0,1.0,5.0,5.0,316.4113010279834,2.0,1.0,phase_2,go,300.0,350.0,1.0,,,,,,,,,orange,square
0.0,4.0,4.0,0.0,5.0,5.0,626.8334760097787,2.0,1.0,phase_2,go,300.0,350.0,1.0,,,,,,,,,green,hexagon
0.0,1.0,1.0,0.0,5.0,5.0,560.6344699626788,2.0,1.0,phase_2,go,300.0,350.0,1.0,,,,,,,,,blue,diamond
0.0,4.0,4.0,0.0,6.0,6.0,1090.2249799109995,2.0,1.0,phase_2,go,300.0,350.0,1.0,,,,,,,,,green,hexagon
0.0,2.0,2.0,0.0,6.0,6.0,409.1703169979155,2.0,1.0,phase_2,go,300.0,350.0,1.0,,,,,,,,,magenta,I
0.0,2.0,2.0,0.0,6.0,6.0,350.5966020748019,2.0,1.0,phase_2,go,300.0,350.0,1.0,,,,,,,,,magenta,I
0.0,8.0,4.0,1.0,5.0,0.0,0.0,2.0,1.0,phase_2,stop,300.0,350.0,4.0,,,,,,,,,gray,circle
0.0,2.0,2.0,0.0,5.0,5.0,751.5528360381722,2.0,1.0,phase_2,go,350.0,350.0,1.0,,,,,,,,,magenta,I
0.0,7.0,3.0,1.0,5.0,5.0,388.7600511079654,2.0,1.0,phase_2,stop,350.0,350.0,3.0,,,,,,,,,orange,square
0.0,4.0,4.0,0.0,5.0,5.0,772.5442100781947,2.0,1.0,phase_2,go,300.0,350.0,1.0,,,,,,,,,green,hexagon
0.0,8.0,4.0,1.0,5.0,0.0,0.0,2.0,1.0,phase_2,stop,300.0,350.0,4.0,,,,,,,,,gray,circle
0.0,5.0,1.0,1.0,5.0,0.0,0.0,2.0,1.0,phase_2,stop,350.0,350.0,4.0,,,,,,,,,yellow,flipped triangle
0.0,1.0,1.0,0.0,5.0,5.0,637.6103219809011,2.0,1.0,phase_2,go,400.0,350.0,1.0,,,,,,,,,blue,diamond
0.0,8.0,4.0,1.0,6.0,6.0,565.0870270328596,3.0,1.0,phase_2,stop,400.0,350.0,3.0,,,,,,,,,gray,circle
0.0,2.0,2.0,0.0,6.0,6.0,563.3893379708752,3.0,1.0,phase_2,go,400.0,300.0,1.0,,,,,,,,,magenta,I
0.0,4.0,4.0,0.0,5.0,5.0,412.521539023146,3.0,1.0,phase_2,go,400.0,300.0,1.0,,,,,,,,,green,hexagon
0.0,2.0,2.0,0.0,6.0,6.0,531.8217829335481,3.0,1.0,phase_2,go,400.0,300.0,1.0,,,,,,,,,magenta,I
0.0,6.0,2.0,1.0,5.0,0.0,0.0,3.0,1.0,phase_2,stop,400.0,300.0,4.0,,,,,,,,,cyan,triangle
0.0,8.0,4.0,1.0,6.0,0.0,0.0,3.0,1.0,phase_2,stop,450.0,300.0,4.0,,,,,,,,,gray,circle
0.0,6.0,2.0,1.0,5.0,5.0,863.0147479707375,3.0,1.0,phase_2,go,450.0,350.0,1.0,,,,,,,,,cyan,triangle
0.0,6.0,2.0,1.0,5.0,5.0,359.823340899311,3.0,1.0,phase_2,stop,450.0,350.0,3.0,,,,,,,,,cyan,triangle
0.0,5.0,1.0,1.0,5.0,5.0,695.6147949676961,3.0,1.0,phase_2,go,400.0,350.0,1.0,,,,,,,,,yellow,flipped triangle
0.0,5.0,1.0,1.0,6.0,0.0,0.0,3.0,1.0,phase_2,stop,400.0,350.0,4.0,,,,,,,,,yellow,flipped triangle
0.0,4.0,4.0,0.0,5.0,5.0,390.1235130615532,3.0,1.0,phase_2,go,400.0,400.0,1.0,,,,,,,,,green,hexagon
0.0,3.0,3.0,0.0,5.0,5.0,404.6431619208306,3.0,1.0,phase_2,go,400.0,400.0,1.0,,,,,,,,,white,cross
0.0,8.0,4.0,1.0,6.0,6.0,308.288634987548,3.0,1.0,phase_2,go,400.0,400.0,1.0,,,,,,,,,gray,circle
0.0,3.0,3.0,0.0,6.0,6.0,324.6035859920084,3.0,1.0,phase_2,go,400.0,400.0,1.0,,,,,,,,,white,cross
0.0,5.0,1.0,1.0,5.0,5.0,374.2537909420207,3.0,1.0,phase_2,stop,400.0,400.0,3.0,,,,,,,,,yellow,flipped triangle
0.0,1.0,1.0,0.0,5.0,5.0,572.9544140631333,3.0,1.0,phase_2,go,350.0,400.0,1.0,,,,,,,,,blue,diamond
0.0,1.0,1.0,0.0,6.0,6.0,610.995838069357,3.0,1.0,phase_2,go,350.0,400.0,1.0,,,,,,,,,blue,diamond
0.0,7.0,3.0,1.0,6.0,6.0,388.2065810030326,3.0,1.0,phase_2,stop,350.0,400.0,3.0,,,,,,,,,orange,square
0.0,2.0,2.0,0.0,6.0,6.0,611.1374750034884,3.0,1.0,phase_2,go,350.0,350.0,1.0,,,,,,,,,magenta,I
0.0,5.0,1.0,1.0,5.0,0.0,0.0,3.0,1.0,phase_2,stop,350.0,350.0,4.0,,,,,,,,,yellow,flipped triangle
0.0,1.0,1.0,0.0,5.0,5.0,793.71506604366,3.0,1.0,phase_2,go,400.0,350.0,1.0,,,,,,,,,blue,diamond
0.0,8.0,4.0,1.0,6.0,6.0,393.4135970193892,3.0,1.0,phase_2,go,400.0,350.0,1.0,,,,,,,,,gray,circle
0.0,5.0,1.0,1.0,6.0,6.0,464.1250520944595,3.0,1.0,phase_2,stop,400.0,350.0,3.0,,,,,,,,,yellow,flipped triangle
0.0,4.0,4.0,0.0,5.0,5.0,855.7899169391021,3.0,1.0,phase_2,go,400.0,300.0,1.0,,,,,,,,,green,hexagon
0.0,8.0,4.0,1.0,6.0,0.0,0.0,3.0,1.0,phase_2,stop,400.0,300.0,4.0,,,,,,,,,gray,circle
0.0,6.0,2.0,1.0,6.0,0.0,0.0,3.0,1.0,phase_2,stop,400.0,350.0,4.0,,,,,,,,,cyan,triangle
0.0,1.0,1.0,0.0,6.0,6.0,435.3790350724011,3.0,1.0,phase_2,go,400.0,400.0,1.0,,,,,,,,,blue,diamond
0.0,6.0,2.0,1.0,6.0,0.0,0.0,3.0,1.0,phase_2,stop,400.0,400.0,4.0,,,,,,,,,cyan,triangle
0.0,8.0,4.0,1.0,6.0,0.0,0.0,3.0,1.0,phase_2,stop,400.0,450.0,4.0,,,,,,,,,gray,circle
0.0,4.0,4.0,0.0,6.0,6.0,786.8299449328333,3.0,1.0,phase_2,go,400.0,500.0,1.0,,,,,,,,,green,hexagon
0.0,6.0,2.0,1.0,5.0,5.0,829.390533035621,3.0,1.0,phase_2,go,400.0,500.0,1.0,,,,,,,,,cyan,triangle
0.0,5.0,1.0,1.0,6.0,0.0,0.0,3.0,1.0,phase_2,stop,400.0,500.0,4.0,,,,,,,,,yellow,flipped triangle
0.0,3.0,3.0,0.0,6.0,6.0,875.4224110161886,3.0,1.0,phase_2,go,400.0,550.0,1.0,,,,,,,,,white,cross
0.0,1.0,1.0,0.0,5.0,5.0,641.616637003608,3.0,1.0,phase_2,go,400.0,550.0,1.0,,,,,,,,,blue,diamond
0.0,4.0,4.0,0.0,5.0,5.0,626.3843009946868,3.0,1.0,phase_2,go,400.0,550.0,1.0,,,,,,,,,green,hexagon
0.0,6.0,2.0,1.0,5.0,5.0,576.3183670351282,3.0,1.0,phase_2,go,400.0,550.0,1.0,,,,,,,,,cyan,triangle
0.0,3.0,3.0,0.0,6.0,6.0,452.2285660495981,4.0,1.0,phase_2,go,400.0,550.0,1.0,,,,,,,,,white,cross
0.0,3.0,3.0,0.0,6.0,6.0,348.273942945525,4.0,1.0,phase_2,go,400.0,550.0,1.0,,,,,,,,,white,cross
0.0,8.0,4.0,1.0,5.0,5.0,474.9603270320222,4.0,1.0,phase_2,stop,400.0,550.0,3.0,,,,,,,,,gray,circle
0.0,6.0,2.0,1.0,6.0,6.0,292.0359930722043,4.0,1.0,phase_2,stop,350.0,550.0,3.0,,,,,,,,,cyan,triangle
0.0,2.0,2.0,0.0,6.0,6.0,674.7363520553336,4.0,1.0,phase_2,go,350.0,500.0,1.0,,,,,,,,,magenta,I
0.0,4.0,4.0,0.0,6.0,6.0,577.3197000380605,4.0,1.0,phase_2,go,350.0,500.0,1.0,,,,,,,,,green,hexagon
0.0,4.0,4.0,0.0,5.0,5.0,498.1569979572668,4.0,1.0,phase_2,go,350.0,500.0,1.0,,,,,,,,,green,hexagon
0.0,2.0,2.0,0.0,6.0,6.0,617.367893923074,4.0,1.0,phase_2,go,350.0,500.0,1.0,,,,,,,,,magenta,I
0.0,7.0,3.0,1.0,5.0,5.0,526.2231620727107,4.0,1.0,phase_2,go,350.0,500.0,1.0,,,,,,,,,orange,square
0.0,2.0,2.0,0.0,5.0,5.0,316.6291270172223,4.0,1.0,phase_2,go,350.0,500.0,1.0,,,,,,,,,magenta,I
0.0,7.0,3.0,1.0,5.0,5.0,372.4917279323563,4.0,1.0,phase_2,stop,350.0,500.0,3.0,,,,,,,,,orange,square
0.0,2.0,2.0,0.0,5.0,5.0,636.0092499526218,4.0,1.0,phase_2,go,300.0,500.0,1.0,,,,,,,,,magenta,I
0.0,3.0,3.0,0.0,6.0,6.0,309.4316519564017,4.0,1.0,phase_2,go,300.0,500.0,1.0,,,,,,,,,white,cross
0.0,7.0,3.0,1.0,6.0,6.0,626.4863080577925,4.0,1.0,phase_2,stop,300.0,500.0,3.0,,,,,,,,,orange,square
0.0,5.0,1.0,1.0,5.0,5.0,363.8587100431323,4.0,1.0,phase_2,stop,300.0,450.0,3.0,,,,,,,,,yellow,flipped triangle
0.0,2.0,2.0,0.0,5.0,5.0,377.7317209169268,4.0,1.0,phase_2,go,250.0,450.0,1.0,,,,,,,,,magenta,I
0.0,5.0,1.0,1.0,5.0,0.0,0.0,4.0,1.0,phase_2,stop,250.0,450.0,4.0,,,,,,,,,yellow,flipped triangle
0.0,4.0,4.0,0.0,6.0,6.0,659.5645879860967,4.0,1.0,phase_2,go,300.0,450.0,1.0,,,,,,,,,green,hexagon
0.0,5.0,1.0,1.0,5.0,0.0,0.0,4.0,1.0,phase_2,stop,300.0,450.0,4.0,,,,,,,,,yellow,flipped triangle
0.0,3.0,3.0,0.0,6.0,6.0,593.6758209718391,4.0,1.0,phase_2,go,350.0,450.0,1.0,,,,,,,,,white,cross
0.0,8.0,4.0,1.0,5.0,5.0,623.5647810390219,4.0,1.0,phase_2,go,350.0,450.0,1.0,,,,,,,,,gray,circle
0.0,5.0,1.0,1.0,5.0,5.0,377.3345348890871,4.0,1.0,phase_2,stop,350.0,450.0,3.0,,,,,,,,,yellow,flipped triangle
0.0,4.0,4.0,0.0,6.0,6.0,689.1355579718947,4.0,1.0,phase_2,go,300.0,450.0,1.0,,,,,,,,,green,hexagon
0.0,5.0,1.0,1.0,5.0,0.0,0.0,4.0,1.0,phase_2,stop,300.0,450.0,4.0,,,,,,,,,yellow,flipped triangle
0.0,1.0,1.0,0.0,6.0,6.0,782.7640809118748,4.0,1.0,phase_2,go,350.0,450.0,1.0,,,,,,,,,blue,diamond
0.0,8.0,4.0,1.0,5.0,0.0,0.0,4.0,1.0,phase_2,stop,350.0,450.0,4.0,,,,,,,,,gray,circle
0.0,6.0,2.0,1.0,6.0,6.0,427.6016540825367,4.0,1.0,phase_2,stop,400.0,450.0,3.0,,,,,,,,,cyan,triangle
0.0,4.0,4.0,0.0,5.0,5.0,557.1567030856386,4.0,1.0,phase_2,go,400.0,400.0,1.0,,,,,,,,,green,hexagon
0.0,1.0,1.0,0.0,6.0,6.0,829.4837200082839,4.0,1.0,phase_2,go,400.0,400.0,1.0,,,,,,,,,blue,diamond
0.0,7.0,3.0,1.0,6.0,6.0,410.9394890256226,4.0,1.0,phase_2,go,400.0,400.0,1.0,,,,,,,,,orange,square
0.0,7.0,3.0,1.0,5.0,5.0,517.3361400375143,4.0,1.0,phase_2,stop,400.0,400.0,3.0,,,,,,,,,orange,square
0.0,7.0,3.0,1.0,5.0,0.0,0.0,4.0,1.0,phase_2,stop,350.0,400.0,4.0,,,,,,,,,orange,square
0.0,4.0,4.0,0.0,6.0,6.0,857.930941041559,4.0,1.0,phase_2,go,400.0,400.0,1.0,,,,,,,,,green,hexagon
0.0,6.0,2.0,1.0,5.0,0.0,0.0,4.0,1.0,phase_2,stop,400.0,400.0,4.0,,,,,,,,,cyan,triangle
0.0,1.0,1.0,0.0,6.0,6.0,697.7675359230489,4.0,1.0,phase_2,go,450.0,400.0,1.0,,,,,,,,,blue,diamond
0.0,1.0,1.0,0.0,6.0,6.0,656.3602529931813,4.0,1.0,phase_2,go,450.0,400.0,1.0,,,,,,,,,blue,diamond
0.0,3.0,3.0,0.0,6.0,6.0,539.7341930074617,5.0,1.0,phase_2,go,450.0,400.0,1.0,,,,,,,,,white,cross
0.0,6.0,2.0,1.0,5.0,5.0,469.087528064847,5.0,1.0,phase_2,go,450.0,400.0,1.0,,,,,,,,,cyan,triangle
0.0,5.0,1.0,1.0,6.0,6.0,676.8575719324872,5.0,1.0,phase_2,go,450.0,400.0,1.0,,,,,,,,,yellow,flipped triangle
0.0,4.0,4.0,0.0,6.0,6.0,603.7129380274564,5.0,1.0,phase_2,go,450.0,400.0,1.0,,,,,,,,,green,hexagon
0.0,8.0,4.0,1.0,6.0,6.0,427.9801240190863,5.0,1.0,phase_2,stop,450.0,400.0,3.0,,,,,,,,,gray,circle
0.0,1.0,1.0,0.0,6.0,6.0,609.4454990234226,5.0,1.0,phase_2,go,450.0,350.0,1.0,,,,,,,,,blue,diamond
0.0,8.0,4.0,1.0,6.0,6.0,586.9075489463285,5.0,1.0,phase_2,stop,450.0,350.0,3.0,,,,,,,,,gray,circle
0.0,7.0,3.0,1.0,5.0,5.0,511.87611604109406,5.0,1.0,phase_2,stop,450.0,300.0,3.0,,,,,,,,,orange,square
0.0,3.0,3.0,0.0,5.0,5.0,794.915821054019,5.0,1.0,phase_2,go,400.0,300.0,1.0,,,,,,,,,white,cross
0.0,8.0,4.0,1.0,5.0,5.0,857.6949560083449,5.0,1.0,phase_2,go,400.0,300.0,1.0,,,,,,,,,gray,circle
0.0,4.0,4.0,0.0,5.0,5.0,342.0759920263663,5.0,1.0,phase_2,go,400.0,300.0,1.0,,,,,,,,,green,hexagon
0.0,1.0,1.0,0.0,5.0,5.0,637.6258499221876,5.0,1.0,phase_2,go,400.0,300.0,1.0,,,,,,,,,blue,diamond
0.0,4.0,4.0,0.0,5.0,5.0,340.9780550282448,5.0,1.0,phase_2,go,400.0,300.0,1.0,,,,,,,,,green,hexagon
0.0,5.0,1.0,1.0,6.0,0.0,0.0,5.0,1.0,phase_2,stop,400.0,300.0,4.0,,,,,,,,,yellow,flipped triangle
0.0,5.0,1.0,1.0,6.0,0.0,0.0,5.0,1.0,phase_2,stop,400.0,350.0,4.0,,,,,,,,,yellow,flipped triangle
0.0,6.0,2.0,1.0,6.0,0.0,0.0,5.0,1.0,phase_2,stop,400.0,400.0,4.0,,,,,,,,,cyan,triangle
0.0,2.0,2.0,0.0,5.0,5.0,612.9852660233155,5.0,1.0,phase_2,go,400.0,450.0,1.0,,,,,,,,,magenta,I
0.0,6.0,2.0,1.0,5.0,5.0,530.8270379900932,5.0,1.0,phase_2,stop,400.0,450.0,3.0,,,,,,,,,cyan,triangle
0.0,3.0,3.0,0.0,5.0,5.0,769.4900250062346,5.0,1.0,phase_2,go,350.0,450.0,1.0,,,,,,,,,white,cross
0.0,2.0,2.0,0.0,6.0,6.0,764.2587770242244,5.0,1.0,phase_2,go,350.0,450.0,1.0,,,,,,,,,magenta,I
0.0,6.0,2.0,1.0,5.0,0.0,0.0,5.0,1.0,phase_2,stop,350.0,450.0,4.0,,,,,,,,,cyan,triangle
0.0,8.0,4.0,1.0,5.0,0.0,0.0,5.0,1.0,phase_2,stop,400.0,450.0,4.0,,,,,,,,,gray,circle
0.0,8.0,4.0,1.0,6.0,0.0,0.0,5.0,1.0,phase_2,stop,450.0,450.0,4.0,,,,,,,,,gray,circle
0.0,2.0,2.0,0.0,6.0,6.0,807.4883810477331,5.0,1.0,phase_2,go,450.0,500.0,1.0,,,,,,,,,magenta,I
0.0,2.0,2.0,0.0,6.0,6.0,814.8821999784559,5.0,1.0,phase_2,go,450.0,500.0,1.0,,,,,,,,,magenta,I
0.0,3.0,3.0,0.0,5.0,5.0,696.1438250727952,5.0,1.0,phase_2,go,450.0,500.0,1.0,,,,,,,,,white,cross
0.0,6.0,2.0,1.0,6.0,0.0,0.0,5.0,1.0,phase_2,stop,450.0,500.0,4.0,,,,,,,,,cyan,triangle
0.0,1.0,1.0,0.0,5.0,5.0,663.5258720489219,5.0,1.0,phase_2,go,450.0,550.0,1.0,,,,,,,,,blue,diamond
0.0,6.0,2.0,1.0,5.0,5.0,540.7242339570075,5.0,1.0,phase_2,stop,450.0,550.0,3.0,,,,,,,,,cyan,triangle
0.0,4.0,4.0,0.0,5.0,5.0,717.5263540120795,5.0,1.0,phase_2,go,400.0,550.0,1.0,,,,,,,,,green,hexagon
0.0,7.0,3.0,1.0,6.0,0.0,0.0,5.0,1.0,phase_2,stop,400.0,550.0,4.0,,,,,,,,,orange,square
0.0,5.0,1.0,1.0,5.0,5.0,1157.149982987903,5.0,1.0,phase_2,go,400.0,600.0,1.0,,,,,,,,,yellow,flipped triangle
0.0,1.0,1.0,0.0,6.0,0.0,0.0,5.0,1.0,phase_2,go,400.0,600.0,5.0,,,,,,,,,blue,diamond
0.0,7.0,3.0,1.0,6.0,6.0,620.0345288962126,5.0,1.0,phase_2,go,400.0,600.0,1.0,,,,,,,,,orange,square
0.0,8.0,4.0,1.0,6.0,6.0,624.8236709507182,5.0,1.0,phase_2,stop,400.0,600.0,3.0,,,,,,,,,gray,circle
0.0,3.0,3.0,0.0,6.0,6.0,673.2480389764532,5.0,1.0,phase_2,go,400.0,550.0,1.0,,,,,,,,,white,cross
0.0,1.0,1.0,0.0,6.0,6.0,491.2400019820779,6.0,1.0,phase_2,go,400.0,550.0,1.0,,,,,,,,,blue,diamond
0.0,3.0,3.0,0.0,5.0,5.0,274.6595359640196,6.0,1.0,phase_2,go,400.0,550.0,1.0,,,,,,,,,white,cross
0.0,1.0,1.0,0.0,5.0,5.0,353.767940076068,6.0,1.0,phase_2,go,400.0,550.0,1.0,,,,,,,,,blue,diamond
0.0,2.0,2.0,0.0,5.0,5.0,369.8365229647606,6.0,1.0,phase_2,go,400.0,550.0,1.0,,,,,,,,,magenta,I
0.0,2.0,2.0,0.0,5.0,5.0,306.2743230257183,6.0,1.0,phase_2,go,400.0,550.0,1.0,,,,,,,,,magenta,I
0.0,6.0,2.0,1.0,5.0,5.0,312.1591049712151,6.0,1.0,phase_2,stop,400.0,550.0,3.0,,,,,,,,,cyan,triangle
0.0,8.0,4.0,1.0,5.0,5.0,344.862314988859,6.0,1.0,phase_2,stop,350.0,550.0,3.0,,,,,,,,,gray,circle
0.0,6.0,2.0,1.0,5.0,5.0,345.7502709934488,6.0,1.0,phase_2,go,300.0,550.0,1.0,,,,,,,,,cyan,triangle
0.0,2.0,2.0,0.0,5.0,5.0,357.8473069937899,6.0,1.0,phase_2,go,300.0,550.0,1.0,,,,,,,,,magenta,I
0.0,8.0,4.0,1.0,6.0,6.0,406.4596040407195,6.0,1.0,phase_2,stop,300.0,550.0,3.0,,,,,,,,,gray,circle
0.0,2.0,2.0,0.0,6.0,6.0,533.2048969576135,6.0,1.0,phase_2,go,300.0,500.0,1.0,,,,,,,,,magenta,I
0.0,4.0,4.0,0.0,6.0,6.0,324.6892939787358,6.0,1.0,phase_2,go,300.0,500.0,1.0,,,,,,,,,green,hexagon
0.0,6.0,2.0,1.0,6.0,6.0,374.5522199897095,6.0,1.0,phase_2,stop,300.0,500.0,3.0,,,,,,,,,cyan,triangle
0.0,7.0,3.0,1.0,5.0,5.0,323.6715369857847,6.0,1.0,phase_2,stop,300.0,450.0,3.0,,,,,,,,,orange,square
0.0,3.0,3.0,0.0,6.0,6.0,374.6910420013591,6.0,1.0,phase_2,go,250.0,450.0,1.0,,,,,,,,,white,cross
0.0,7.0,3.0,1.0,5.0,0.0,0.0,6.0,1.0,phase_2,stop,250.0,450.0,4.0,,,,,,,,,orange,square
0.0,1.0,1.0,0.0,6.0,6.0,349.451674032025,6.0,1.0,phase_2,go,300.0,450.0,1.0,,,,,,,,,blue,diamond
0.0,5.0,1.0,1.0,6.0,6.0,369.747482938692,6.0,1.0,phase_2,stop,300.0,450.0,3.0,,,,,,,,,yellow,flipped triangle
0.0,3.0,3.0,0.0,5.0,5.0,472.8892039274797,6.0,1.0,phase_2,go,300.0,400.0,1.0,,,,,,,,,white,cross
0.0,5.0,1.0,1.0,5.0,5.0,384.4928820617497,6.0,1.0,phase_2,stop,300.0,400.0,3.0,,,,,,,,,yellow,flipped triangle
0.0,7.0,3.0,1.0,6.0,6.0,367.2769700642675,6.0,1.0,phase_2,stop,250.0,400.0,3.0,,,,,,,,,orange,square
0.0,4.0,4.0,0.0,6.0,6.0,505.2610490238294,6.0,1.0,phase_2,go,250.0,350.0,1.0,,,,,,,,,green,hexagon
0.0,3.0,3.0,0.0,5.0,5.0,470.8777660271153,6.0,1.0,phase_2,go,250.0,350.0,1.0,,,,,,,,,white,cross
0.0,6.0,2.0,1.0,5.0,5.0,526.5981410630047,6.0,1.0,phase_2,go,250.0,350.0,1.0,,,,,,,,,cyan,triangle
0.0,4.0,4.0,0.0,6.0,6.0,329.0457420516759,6.0,1.0,phase_2,go,250.0,350.0,1.0,,,,,,,,,green,hexagon
0.0,8.0,4.0,1.0,5.0,5.0,318.6320039676502,6.0,1.0,phase_2,go,250.0,350.0,1.0,,,,,,,,,gray,circle
0.0,2.0,2.0,0.0,6.0,6.0,317.3758720513433,6.0,1.0,phase_2,go,250.0,350.0,1.0,,,,,,,,,magenta,I
0.0,4.0,4.0,0.0,5.0,5.0,374.6492890641093,6.0,1.0,phase_2,go,250.0,350.0,1.0,,,,,,,,,green,hexagon
0.0,7.0,3.0,1.0,6.0,6.0,346.7005919665098,6.0,1.0,phase_2,stop,250.0,350.0,3.0,,,,,,,,,orange,square
0.0,4.0,4.0,0.0,5.0,5.0,325.7120159687474,6.0,1.0,phase_2,go,250.0,300.0,1.0,,,,,,,,,green,hexagon
0.0,3.0,3.0,0.0,5.0,5.0,325.9682040661573,6.0,1.0,phase_2,go,250.0,300.0,1.0,,,,,,,,,white,cross
0.0,5.0,1.0,1.0,6.0,0.0,0.0,6.0,1.0,phase_2,stop,250.0,300.0,4.0,,,,,,,,,yellow,flipped triangle
0.0,5.0,1.0,1.0,6.0,6.0,376.5747199067846,6.0,1.0,phase_2,stop,250.0,350.0,3.0,,,,,,,,,yellow,flipped triangle
0.0,3.0,3.0,0.0,6.0,6.0,426.0568330064416,6.0,1.0,phase_2,go,250.0,300.0,1.0,,,,,,,,,white,cross
0.0,5.0,1.0,1.0,5.0,5.0,282.7284419909119,6.0,1.0,phase_2,stop,250.0,300.0,3.0,,,,,,,,,yellow,flipped triangle
0.0,1.0,1.0,0.0,6.0,6.0,578.3971180208027,6.0,1.0,phase_2,go,200.0,300.0,1.0,,,,,,,,,blue,diamond
0.0,3.0,3.0,0.0,6.0,6.0,581.6773499827832,7.0,1.0,phase_2,go,200.0,300.0,1.0,,,,,,,,,white,cross
0.0,4.0,4.0,0.0,6.0,6.0,367.7967570256442,7.0,1.0,phase_2,go,200.0,300.0,1.0,,,,,,,,,green,hexagon
0.0,3.0,3.0,0.0,5.0,5.0,484.4674241030589,7.0,1.0,phase_2,go,200.0,300.0,1.0,,,,,,,,,white,cross
0.0,4.0,4.0,0.0,5.0,5.0,483.1067830091342,7.0,1.0,phase_2,go,200.0,300.0,1.0,,,,,,,,,green,hexagon
0.0,3.0,3.0,0.0,6.0,6.0,324.5133600430563,7.0,1.0,phase_2,go,200.0,300.0,1.0,,,,,,,,,white,cross
0.0,2.0,2.0,0.0,6.0,6.0,350.1780359074473,7.0,1.0,phase_2,go,200.0,300.0,1.0,,,,,,,,,magenta,I
0.0,6.0,2.0,1.0,6.0,6.0,325.0340690137818,7.0,1.0,phase_2,stop,200.0,300.0,3.0,,,,,,,,,cyan,triangle
0.0,6.0,2.0,1.0,6.0,6.0,379.2267011012882,7.0,1.0,phase_2,go,200.0,250.0,1.0,,,,,,,,,cyan,triangle
0.0,2.0,2.0,0.0,5.0,5.0,459.847157006152,7.0,1.0,phase_2,go,200.0,250.0,1.0,,,,,,,,,magenta,I
0.0,5.0,1.0,1.0,5.0,5.0,392.0496660284698,7.0,1.0,phase_2,go,200.0,250.0,1.0,,,,,,,,,yellow,flipped triangle
0.0,1.0,1.0,0.0,6.0,6.0,545.1176860369742,7.0,1.0,phase_2,go,200.0,250.0,1.0,,,,,,,,,blue,diamond
0.0,5.0,1.0,1.0,6.0,6.0,342.4543059663847,7.0,1.0,phase_2,go,200.0,250.0,1.0,,,,,,,,,yellow,flipped triangle
0.0,5.0,1.0,1.0,6.0,6.0,385.4719600640237,7.0,1.0,phase_2,stop,200.0,250.0,3.0,,,,,,,,,yellow,flipped triangle
0.0,7.0,3.0,1.0,5.0,0.0,0.0,7.0,1.0,phase_2,stop,200.0,200.0,4.0,,,,,,,,,orange,square
0.0,6.0,2.0,1.0,5.0,5.0,439.9123679613694,7.0,1.0,phase_2,go,250.0,200.0,1.0,,,,,,,,,cyan,triangle
0.0,7.0,3.0,1.0,5.0,5.0,304.8735479824245,7.0,1.0,phase_2,go,250.0,200.0,1.0,,,,,,,,,orange,square
0.0,4.0,4.0,0.0,6.0,6.0,526.8759049940854,7.0,1.0,phase_2,go,250.0,200.0,1.0,,,,,,,,,green,hexagon
0.0,4.0,4.0,0.0,6.0,6.0,572.568628937006,7.0,1.0,phase_2,go,250.0,200.0,1.0,,,,,,,,,green,hexagon
0.0,3.0,3.0,0.0,5.0,5.0,539.3833089619875,7.0,1.0,phase_2,go,250.0,200.0,1.0,,,,,,,,,white,cross
0.0,5.0,1.0,1.0,5.0,0.0,0.0,7.0,1.0,phase_2,stop,250.0,200.0,4.0,,,,,,,,,yellow,flipped triangle
0.0,1.0,1.0,0.0,6.0,6.0,627.575931022875,7.0,1.0,phase_2,go,300.0,200.0,1.0,,,,,,,,,blue,diamond
0.0,2.0,2.0,0.0,6.0,6.0,564.9370719911531,7.0,1.0,phase_2,go,300.0,200.0,1.0,,,,,,,,,magenta,I
0.0,6.0,2.0,1.0,6.0,0.0,0.0,7.0,1.0,phase_2,stop,300.0,200.0,4.0,,,,,,,,,cyan,triangle
0.0,7.0,3.0,1.0,6.0,0.0,0.0,7.0,1.0,phase_2,stop,300.0,250.0,4.0,,,,,,,,,orange,square
0.0,5.0,1.0,1.0,5.0,0.0,0.0,7.0,1.0,phase_2,stop,300.0,300.0,4.0,,,,,,,,,yellow,flipped triangle
0.0,8.0,4.0,1.0,6.0,6.0,736.9962990051135,7.0,1.0,phase_2,go,350.0,300.0,1.0,,,,,,,,,gray,circle
0.0,4.0,4.0,0.0,5.0,5.0,681.0715340543538,7.0,1.0,phase_2,go,350.0,300.0,1.0,,,,,,,,,green,hexagon
0.0,7.0,3.0,1.0,6.0,0.0,0.0,7.0,1.0,phase_2,stop,350.0,300.0,4.0,,,,,,,,,orange,square
0.0,7.0,3.0,1.0,5.0,0.0,0.0,7.0,1.0,phase_2,stop,350.0,350.0,4.0,,,,,,,,,orange,square
0.0,2.0,2.0,0.0,5.0,5.0,375.7189090829342,7.0,1.0,phase_2,go,400.0,350.0,1.0,,,,,,,,,magenta,I
0.0,8.0,4.0,1.0,5.0,5.0,463.1499670213088,7.0,1.0,phase_2,stop,400.0,350.0,3.0,,,,,,,,,gray,circle
0.0,4.0,4.0,0.0,5.0,5.0,564.5993940997869,7.0,1.0,phase_2,go,350.0,350.0,1.0,,,,,,,,,green,hexagon
0.0,6.0,2.0,1.0,6.0,0.0,0.0,7.0,1.0,phase_2,stop,350.0,350.0,4.0,,,,,,,,,cyan,triangle
0.0,3.0,3.0,0.0,5.0,5.0,604.4462990248576,7.0,1.0,phase_2,go,350.0,400.0,1.0,,,,,,,,,white,cross
0.0,3.0,3.0,0.0,6.0,6.0,701.8683280330151,7.0,1.0,phase_2,go,350.0,400.0,1.0,,,,,,,,,white,cross
0.0,3.0,3.0,0.0,6.0,6.0,363.2506499998271,7.0,1.0,phase_2,go,350.0,400.0,1.0,,,,,,,,,white,cross
0.0,2.0,2.0,0.0,6.0,6.0,410.4153020307421,8.0,1.0,phase_2,go,350.0,400.0,1.0,,,,,,,,,magenta,I
0.0,5.0,1.0,1.0,5.0,5.0,426.5589100541547,8.0,1.0,phase_2,stop,350.0,400.0,3.0,,,,,,,,,yellow,flipped triangle
0.0,6.0,2.0,1.0,5.0,0.0,0.0,8.0,1.0,phase_2,stop,300.0,400.0,4.0,,,,,,,,,cyan,triangle
0.0,3.0,3.0,0.0,5.0,5.0,568.0120800388977,8.0,1.0,phase_2,go,350.0,400.0,1.0,,,,,,,,,white,cross
0.0,7.0,3.0,1.0,5.0,0.0,0.0,8.0,1.0,phase_2,stop,350.0,400.0,4.0,,,,,,,,,orange,square
0.0,6.0,2.0,1.0,6.0,6.0,560.1945979287848,8.0,1.0,phase_2,go,400.0,400.0,1.0,,,,,,,,,cyan,triangle
0.0,3.0,3.0,0.0,6.0,6.0,519.7749009821564,8.0,1.0,phase_2,go,400.0,400.0,1.0,,,,,,,,,white,cross
0.0,4.0,4.0,0.0,6.0,6.0,542.1926450217143,8.0,1.0,phase_2,go,400.0,400.0,1.0,,,,,,,,,green,hexagon
0.0,1.0,1.0,0.0,6.0,6.0,523.6692789476365,8.0,1.0,phase_2,go,400.0,400.0,1.0,,,,,,,,,blue,diamond
0.0,8.0,4.0,1.0,5.0,0.0,0.0,8.0,1.0,phase_2,stop,400.0,400.0,4.0,,,,,,,,,gray,circle
0.0,3.0,3.0,0.0,6.0,6.0,668.7522099819034,8.0,1.0,phase_2,go,450.0,400.0,1.0,,,,,,,,,white,cross
0.0,8.0,4.0,1.0,5.0,0.0,0.0,8.0,1.0,phase_2,stop,450.0,400.0,4.0,,,,,,,,,gray,circle
0.0,8.0,4.0,1.0,5.0,0.0,0.0,8.0,1.0,phase_2,stop,500.0,400.0,4.0,,,,,,,,,gray,circle
0.0,2.0,2.0,0.0,6.0,6.0,689.07565693371,8.0,1.0,phase_2,go,550.0,400.0,1.0,,,,,,,,,magenta,I
0.0,7.0,3.0,1.0,6.0,0.0,0.0,8.0,1.0,phase_2,stop,550.0,400.0,4.0,,,,,,,,,orange,square
0.0,6.0,2.0,1.0,6.0,6.0,506.98738102801144,8.0,1.0,phase_2,stop,550.0,450.0,3.0,,,,,,,,,cyan,triangle
0.0,5.0,1.0,1.0,6.0,6.0,545.4180979868397,8.0,1.0,phase_2,go,550.0,400.0,1.0,,,,,,,,,yellow,flipped triangle
0.0,3.0,3.0,0.0,5.0,5.0,1001.9098069751635,8.0,1.0,phase_2,go,550.0,400.0,1.0,,,,,,,,,white,cross
0.0,8.0,4.0,1.0,6.0,0.0,0.0,8.0,1.0,phase_2,stop,550.0,400.0,4.0,,,,,,,,,gray,circle
0.0,7.0,3.0,1.0,5.0,5.0,630.5304480483755,8.0,1.0,phase_2,go,550.0,450.0,1.0,,,,,,,,,orange,square
0.0,1.0,1.0,0.0,5.0,5.0,373.8878429867327,8.0,1.0,phase_2,go,550.0,450.0,1.0,,,,,,,,,blue,diamond
0.0,8.0,4.0,1.0,5.0,5.0,305.4268721025437,8.0,1.0,phase_2,stop,550.0,450.0,3.0,,,,,,,,,gray,circle
0.0,2.0,2.0,0.0,5.0,5.0,355.7039640145376,8.0,1.0,phase_2,go,500.0,450.0,1.0,,,,,,,,,magenta,I
0.0,6.0,2.0,1.0,5.0,5.0,283.3899470278993,8.0,1.0,phase_2,stop,500.0,450.0,3.0,,,,,,,,,cyan,triangle
0.0,6.0,2.0,1.0,6.0,6.0,476.3177029090002,8.0,1.0,phase_2,stop,450.0,450.0,3.0,,,,,,,,,cyan,triangle
0.0,8.0,4.0,1.0,6.0,0.0,0.0,8.0,1.0,phase_2,stop,450.0,400.0,4.0,,,,,,,,,gray,circle
0.0,2.0,2.0,0.0,5.0,5.0,540.416412986815,8.0,1.0,phase_2,go,450.0,450.0,1.0,,,,,,,,,magenta,I
0.0,2.0,2.0,0.0,5.0,5.0,604.5031290268525,8.0,1.0,phase_2,go,450.0,450.0,1.0,,,,,,,,,magenta,I
0.0,6.0,2.0,1.0,6.0,0.0,0.0,8.0,1.0,phase_2,stop,450.0,450.0,4.0,,,,,,,,,cyan,triangle
0.0,7.0,3.0,1.0,6.0,0.0,0.0,8.0,1.0,phase_2,stop,450.0,500.0,4.0,,,,,,,,,orange,square
0.0,1.0,1.0,0.0,6.0,6.0,559.2442699708045,8.0,1.0,phase_2,go,450.0,550.0,1.0,,,,,,,,,blue,diamond
0.0,3.0,3.0,0.0,6.0,6.0,657.8231520252302,8.0,1.0,phase_2,go,450.0,550.0,1.0,,,,,,,,,white,cross
0.0,8.0,4.0,1.0,5.0,5.0,849.5851160259917,8.0,1.0,phase_2,go,450.0,550.0,1.0,,,,,,,,,gray,circle
0.0,1.0,1.0,0.0,5.0,5.0,929.8826190643013,8.0,1.0,phase_2,go,450.0,550.0,1.0,,,,,,,,,blue,diamond
0.0,5.0,1.0,1.0,6.0,6.0,857.1390010183677,8.0,1.0,phase_2,go,450.0,550.0,1.0,,,,,,,,,yellow,flipped triangle
0.0,4.0,4.0,0.0,6.0,6.0,557.3315799701959,8.0,1.0,phase_2,go,450.0,550.0,1.0,,,,,,,,,green,hexagon
0.0,4.0,4.0,0.0,7.0,5.0,2469.1215760540217,1.0,2.0,phase_3,,,,,264.0,6.0,88.0,176.0,132.0,44.0,264.0,220.0,green,hexagon
0.0,7.0,3.0,1.0,7.0,1.0,3900.5369510268793,1.0,1.0,phase_3,,,,,264.0,6.0,264.0,176.0,220.0,44.0,132.0,88.0,orange,square
0.0,1.0,1.0,0.0,7.0,4.0,2395.811773953028,1.0,1.0,phase_3,,,,,176.0,4.0,264.0,132.0,44.0,176.0,220.0,88.0,blue,diamond
0.0,2.0,2.0,0.0,7.0,2.0,2261.38798694592,1.0,1.0,phase_3,,,,,324.0,6.0,162.0,324.0,54.0,270.0,216.0,108.0,magenta,I
0.0,6.0,2.0,1.0,7.0,1.0,2049.668343039229,1.0,1.0,phase_3,,,,,98.0,2.0,98.0,147.0,196.0,294.0,245.0,49.0,cyan,triangle
0.0,8.0,4.0,1.0,7.0,3.0,1408.5231149801984,1.0,1.0,phase_3,,,,,156.0,4.0,39.0,234.0,156.0,117.0,78.0,195.0,gray,circle
0.0,7.0,3.0,1.0,7.0,2.0,1832.861523027532,1.0,1.0,phase_3,,,,,264.0,6.0,220.0,264.0,88.0,132.0,176.0,44.0,orange,square
0.0,6.0,2.0,1.0,7.0,4.0,1250.9476840496063,1.0,1.0,phase_3,,,,,220.0,5.0,176.0,88.0,44.0,220.0,132.0,264.0,cyan,triangle
0.0,2.0,2.0,0.0,7.0,1.0,1453.1310049351305,1.0,1.0,phase_3,,,,,78.0,2.0,78.0,156.0,39.0,117.0,195.0,234.0,magenta,I
0.0,5.0,1.0,1.0,7.0,1.0,2295.158074935898,1.0,1.0,phase_3,,,,,147.0,3.0,147.0,196.0,49.0,245.0,98.0,294.0,yellow,flipped triangle
0.0,5.0,1.0,1.0,7.0,2.0,1342.8418149705976,1.0,1.0,phase_3,,,,,132.0,3.0,44.0,132.0,88.0,264.0,220.0,176.0,yellow,flipped triangle
0.0,3.0,3.0,0.0,7.0,3.0,1530.4413399426269,1.0,1.0,phase_3,,,,,39.0,1.0,78.0,234.0,39.0,117.0,156.0,195.0,white,cross
0.0,8.0,4.0,1.0,7.0,4.0,1097.277582040988,1.0,1.0,phase_3,,,,,204.0,6.0,102.0,34.0,170.0,204.0,136.0,68.0,gray,circle
0.0,2.0,2.0,0.0,7.0,3.0,1419.1086150240153,1.0,1.0,phase_3,,,,,196.0,4.0,49.0,294.0,196.0,147.0,98.0,245.0,magenta,I
0.0,3.0,3.0,0.0,7.0,3.0,1303.0437589623034,1.0,1.0,phase_3,,,,,108.0,2.0,324.0,54.0,108.0,162.0,216.0,270.0,white,cross
0.0,5.0,1.0,1.0,7.0,1.0,1263.9767919899896,1.0,1.0,phase_3,,,,,78.0,2.0,78.0,39.0,117.0,156.0,195.0,234.0,yellow,flipped triangle
0.0,2.0,2.0,0.0,7.0,4.0,1210.6562679400668,1.0,1.0,phase_3,,,,,220.0,5.0,176.0,264.0,88.0,220.0,132.0,44.0,magenta,I
0.0,1.0,1.0,0.0,7.0,4.0,1208.384278928861,1.0,1.0,phase_3,,,,,34.0,1.0,102.0,204.0,68.0,34.0,136.0,170.0,blue,diamond
0.0,2.0,2.0,0.0,7.0,2.0,1298.880117945373,1.0,1.0,phase_3,,,,,34.0,1.0,68.0,34.0,204.0,170.0,136.0,102.0,magenta,I
0.0,6.0,2.0,1.0,7.0,4.0,429.5680620707571,1.0,1.0,phase_3,,,,,162.0,3.0,108.0,54.0,270.0,162.0,324.0,216.0,cyan,triangle
0.0,5.0,1.0,1.0,7.0,1.0,1425.565003999509,2.0,1.0,phase_3,,,,,324.0,6.0,324.0,54.0,162.0,216.0,108.0,270.0,yellow,flipped triangle
0.0,8.0,4.0,1.0,7.0,1.0,1067.696478916332,2.0,1.0,phase_3,,,,,98.0,2.0,98.0,245.0,196.0,49.0,147.0,294.0,gray,circle
0.0,6.0,2.0,1.0,7.0,1.0,266.79594500456,2.0,1.0,phase_3,,,,,49.0,1.0,49.0,245.0,294.0,98.0,147.0,196.0,cyan,triangle
0.0,8.0,4.0,1.0,7.0,1.0,258.3610210567713,2.0,1.0,phase_3,,,,,88.0,2.0,88.0,44.0,132.0,220.0,176.0,264.0,gray,circle
0.0,5.0,1.0,1.0,7.0,4.0,359.8750900710001,2.0,1.0,phase_3,,,,,195.0,5.0,234.0,78.0,117.0,195.0,156.0,39.0,yellow,flipped triangle
0.0,6.0,2.0,1.0,7.0,2.0,608.1582709448412,2.0,1.0,phase_3,,,,,156.0,4.0,234.0,156.0,195.0,78.0,117.0,39.0,cyan,triangle
0.0,8.0,4.0,1.0,7.0,1.0,1166.8355040019378,2.0,1.0,phase_3,,,,,117.0,3.0,117.0,195.0,78.0,39.0,156.0,234.0,gray,circle
0.0,4.0,4.0,0.0,7.0,4.0,1203.7262830417603,2.0,1.0,phase_3,,,,,132.0,3.0,176.0,264.0,44.0,132.0,220.0,88.0,green,hexagon
0.0,7.0,3.0,1.0,7.0,2.0,1322.5218231091276,2.0,1.0,phase_3,,,,,195.0,5.0,78.0,195.0,156.0,234.0,117.0,39.0,orange,square
0.0,2.0,2.0,0.0,7.0,2.0,1349.8684670776129,2.0,1.0,phase_3,,,,,216.0,4.0,270.0,216.0,162.0,54.0,324.0,108.0,magenta,I
0.0,2.0,2.0,0.0,7.0,1.0,1622.3589909495786,2.0,1.0,phase_3,,,,,68.0,2.0,68.0,34.0,136.0,204.0,102.0,170.0,magenta,I
0.0,7.0,3.0,1.0,7.0,1.0,1286.1114219995216,2.0,1.0,phase_3,,,,,68.0,2.0,68.0,170.0,102.0,34.0,136.0,204.0,orange,square
0.0,7.0,3.0,1.0,7.0,2.0,1050.5015099188313,2.0,1.0,phase_3,,,,,294.0,6.0,196.0,294.0,147.0,49.0,245.0,98.0,orange,square
0.0,6.0,2.0,1.0,7.0,2.0,1296.4777870802209,2.0,1.0,phase_3,,,,,136.0,4.0,68.0,136.0,204.0,170.0,34.0,102.0,cyan,triangle
0.0,3.0,3.0,0.0,7.0,1.0,1211.279307026416,2.0,1.0,phase_3,,,,,264.0,6.0,264.0,176.0,220.0,44.0,132.0,88.0,white,cross
0.0,4.0,4.0,0.0,7.0,4.0,1420.0292880414054,2.0,1.0,phase_3,,,,,170.0,5.0,68.0,34.0,102.0,170.0,136.0,204.0,green,hexagon
0.0,8.0,4.0,1.0,7.0,6.0,1284.8637771094218,2.0,1.0,phase_3,,,,,170.0,5.0,34.0,68.0,204.0,136.0,102.0,170.0,gray,circle
0.0,8.0,4.0,1.0,7.0,3.0,1031.027214950882,2.0,1.0,phase_3,,,,,220.0,5.0,132.0,264.0,220.0,44.0,176.0,88.0,gray,circle
0.0,7.0,3.0,1.0,7.0,1.0,1130.3325669141486,2.0,1.0,phase_3,,,,,147.0,3.0,147.0,98.0,49.0,196.0,245.0,294.0,orange,square
0.0,2.0,2.0,0.0,7.0,4.0,1130.89484104421,2.0,1.0,phase_3,,,,,39.0,1.0,234.0,117.0,78.0,39.0,195.0,156.0,magenta,I
0.0,5.0,1.0,1.0,7.0,6.0,2225.592959090136,3.0,1.0,phase_3,,,,,170.0,5.0,34.0,102.0,136.0,204.0,68.0,170.0,yellow,flipped triangle
0.0,4.0,4.0,0.0,7.0,1.0,562.0713270036504,3.0,1.0,phase_3,,,,,39.0,1.0,39.0,156.0,234.0,195.0,117.0,78.0,green,hexagon
0.0,3.0,3.0,0.0,7.0,5.0,312.8365890588611,3.0,1.0,phase_3,,,,,245.0,5.0,294.0,196.0,98.0,49.0,245.0,147.0,white,cross
0.0,4.0,4.0,0.0,7.0,4.0,428.1448200345039,3.0,1.0,phase_3,,,,,170.0,5.0,102.0,34.0,204.0,170.0,136.0,68.0,green,hexagon
0.0,4.0,4.0,0.0,7.0,2.0,2702.5253830943257,3.0,1.0,phase_3,,,,,196.0,4.0,245.0,196.0,147.0,98.0,49.0,294.0,green,hexagon
0.0,4.0,4.0,0.0,7.0,1.0,319.8499730788171,3.0,1.0,phase_3,,,,,324.0,6.0,324.0,270.0,54.0,162.0,216.0,108.0,green,hexagon
0.0,5.0,1.0,1.0,7.0,3.0,311.0824049217626,3.0,1.0,phase_3,,,,,34.0,1.0,170.0,102.0,34.0,136.0,68.0,204.0,yellow,flipped triangle
0.0,8.0,4.0,1.0,7.0,2.0,418.4753999579698,3.0,1.0,phase_3,,,,,49.0,1.0,98.0,49.0,147.0,294.0,196.0,245.0,gray,circle
0.0,3.0,3.0,0.0,7.0,5.0,176.7553199315443,3.0,1.0,phase_3,,,,,234.0,6.0,117.0,78.0,39.0,195.0,234.0,156.0,white,cross
0.0,3.0,3.0,0.0,7.0,1.0,978.6195249762386,3.0,1.0,phase_3,,,,,136.0,4.0,136.0,34.0,102.0,170.0,204.0,68.0,white,cross
0.0,3.0,3.0,0.0,7.0,2.0,358.5259229876101,3.0,1.0,phase_3,,,,,270.0,5.0,54.0,270.0,216.0,324.0,162.0,108.0,white,cross
0.0,8.0,4.0,1.0,7.0,4.0,376.1131259379908,3.0,1.0,phase_3,,,,,270.0,5.0,216.0,324.0,108.0,270.0,54.0,162.0,gray,circle
0.0,6.0,2.0,1.0,7.0,6.0,360.5653329286724,3.0,1.0,phase_3,,,,,270.0,5.0,108.0,216.0,324.0,54.0,162.0,270.0,cyan,triangle
0.0,2.0,2.0,0.0,7.0,5.0,418.1600960437208,3.0,1.0,phase_3,,,,,98.0,2.0,147.0,196.0,49.0,294.0,98.0,245.0,magenta,I
0.0,7.0,3.0,1.0,7.0,4.0,241.1824469454586,3.0,1.0,phase_3,,,,,162.0,3.0,270.0,324.0,54.0,162.0,216.0,108.0,orange,square
0.0,7.0,3.0,1.0,7.0,3.0,171.8270680867135,3.0,1.0,phase_3,,,,,204.0,6.0,170.0,34.0,204.0,102.0,68.0,136.0,orange,square
0.0,7.0,3.0,1.0,7.0,1.0,244.5704840356484,3.0,1.0,phase_3,,,,,324.0,6.0,324.0,216.0,162.0,108.0,270.0,54.0,orange,square
0.0,8.0,4.0,1.0,7.0,4.0,260.98099898081267,3.0,1.0,phase_3,,,,,54.0,1.0,324.0,162.0,270.0,54.0,108.0,216.0,gray,circle
0.0,1.0,1.0,0.0,7.0,4.0,758.3973489236087,3.0,1.0,phase_3,,,,,204.0,6.0,102.0,170.0,136.0,204.0,34.0,68.0,blue,diamond
0.0,1.0,1.0,0.0,7.0,4.0,370.7922879839316,3.0,1.0,phase_3,,,,,294.0,6.0,49.0,245.0,98.0,294.0,196.0,147.0,blue,diamond
0.0,1.0,1.0,0.0,7.0,1.0,417.4402370117605,4.0,1.0,phase_3,,,,,39.0,1.0,39.0,117.0,195.0,156.0,78.0,234.0,blue,diamond
0.0,1.0,1.0,0.0,7.0,4.0,175.6040500476956,4.0,1.0,phase_3,,,,,44.0,1.0,176.0,264.0,220.0,44.0,132.0,88.0,blue,diamond
0.0,3.0,3.0,0.0,7.0,1.0,269.4990650052205,4.0,1.0,phase_3,,,,,170.0,5.0,170.0,102.0,136.0,68.0,34.0,204.0,white,cross
0.0,1.0,1.0,0.0,7.0,5.0,338.9076309977099,4.0,1.0,phase_3,,,,,108.0,2.0,270.0,162.0,54.0,216.0,108.0,324.0,blue,diamond
0.0,1.0,1.0,0.0,7.0,3.0,245.2251369832083,4.0,1.0,phase_3,,,,,294.0,6.0,147.0,245.0,294.0,98.0,49.0,196.0,blue,diamond
0.0,5.0,1.0,1.0,7.0,6.0,319.3769420031458,4.0,1.0,phase_3,,,,,132.0,3.0,220.0,264.0,88.0,176.0,44.0,132.0,yellow,flipped triangle
0.0,3.0,3.0,0.0,7.0,6.0,216.9916259590536,4.0,1.0,phase_3,,,,,245.0,5.0,98.0,49.0,294.0,196.0,147.0,245.0,white,cross
0.0,4.0,4.0,0.0,7.0,5.0,0.1820779871195,4.0,1.0,phase_3,,,,,54.0,1.0,162.0,324.0,270.0,108.0,54.0,216.0,green,hexagon
0.0,1.0,1.0,0.0,7.0,3.0,251.96285999845708,4.0,1.0,phase_3,,,,,117.0,3.0,78.0,195.0,117.0,156.0,39.0,234.0,blue,diamond
0.0,4.0,4.0,0.0,7.0,2.0,197.3905030172318,4.0,1.0,phase_3,,,,,195.0,5.0,234.0,195.0,117.0,156.0,39.0,78.0,green,hexagon
0.0,5.0,1.0,1.0,7.0,4.0,45.2957620145753,4.0,1.0,phase_3,,,,,49.0,1.0,294.0,245.0,98.0,49.0,196.0,147.0,yellow,flipped triangle
0.0,5.0,1.0,1.0,7.0,1.0,189.7798680001869,4.0,1.0,phase_3,,,,,324.0,6.0,324.0,108.0,54.0,216.0,270.0,162.0,yellow,flipped triangle
0.0,3.0,3.0,0.0,7.0,3.0,123.1320810038596,4.0,1.0,phase_3,,,,,88.0,2.0,220.0,264.0,88.0,176.0,44.0,132.0,white,cross
0.0,6.0,2.0,1.0,7.0,2.0,267.4705230165273,4.0,1.0,phase_3,,,,,78.0,2.0,234.0,78.0,117.0,39.0,156.0,195.0,cyan,triangle
0.0,4.0,4.0,0.0,7.0,6.0,73.8685260294005,4.0,1.0,phase_3,,,,,294.0,6.0,196.0,49.0,147.0,98.0,245.0,294.0,green,hexagon
0.0,6.0,2.0,1.0,7.0,2.0,237.3529420001432,4.0,1.0,phase_3,,,,,44.0,1.0,132.0,44.0,88.0,176.0,264.0,220.0,cyan,triangle
0.0,2.0,2.0,0.0,7.0,6.0,221.190646989271,4.0,1.0,phase_3,,,,,88.0,2.0,44.0,220.0,132.0,176.0,264.0,88.0,magenta,I
0.0,7.0,3.0,1.0,7.0,1.0,0.1906489487737,4.0,1.0,phase_3,,,,,78.0,2.0,78.0,234.0,39.0,156.0,195.0,117.0,orange,square
0.0,1.0,1.0,0.0,7.0,6.0,239.2927519977092,4.0,1.0,phase_3,,,,,270.0,5.0,216.0,162.0,108.0,324.0,54.0,270.0,blue,diamond
0.0,6.0,2.0,1.0,7.0,1.0,107.6183950062841,4.0,1.0,phase_3,,,,,34.0,1.0,34.0,136.0,102.0,170.0,204.0,68.0,cyan,triangle
