raw_reward_magnitude,stim_reward,stepwise_reward_magnitude,paired_with_stopping,quadrant,response,reaction_time,block,num_trial_presentations,which_part,stop_signal_trial_type,left_SSD,right_SSD,accuracy,chosen_bidding_amount,chosen_bidding_level,possible_bid_1,possible_bid_2,possible_bid_3,possible_bid_4,possible_bid_5,possible_bid_6,color_text,shape_text
79.0,6.0,2.0,1.0,4.0,4.0,504.39338595606387,1.0,1.0,part_1,,,,,,,,,,,,,orange,I
33.0,5.0,1.0,1.0,3.0,3.0,357.6576290652156,1.0,1.0,part_1,,,,,,,,,,,,,yellow,circle
81.0,6.0,2.0,1.0,4.0,4.0,308.9854159625247,1.0,1.0,part_1,,,,,,,,,,,,,orange,I
71.0,1.0,1.0,0.0,2.0,2.0,335.5873369146138,1.0,1.0,part_1,,,,,,,,,,,,,white,hexagon
36.0,5.0,1.0,1.0,2.0,2.0,308.2790320040658,1.0,1.0,part_1,,,,,,,,,,,,,yellow,circle
382.0,8.0,4.0,1.0,4.0,4.0,266.8888879707083,1.0,1.0,part_1,,,,,,,,,,,,,cyan,triangle
410.0,4.0,4.0,0.0,1.0,1.0,428.563643945381,1.0,1.0,part_1,,,,,,,,,,,,,blue,cross
189.0,7.0,3.0,1.0,3.0,3.0,444.6122439112514,1.0,1.0,part_1,,,,,,,,,,,,,gray,square
94.0,2.0,2.0,0.0,1.0,1.0,365.8042330062017,1.0,1.0,part_1,,,,,,,,,,,,,green,diamond
196.0,3.0,3.0,0.0,4.0,4.0,282.4573859106749,1.0,1.0,part_1,,,,,,,,,,,,,magenta,flipped triangle
204.0,7.0,3.0,1.0,1.0,1.0,289.2065910855308,1.0,1.0,part_1,,,,,,,,,,,,,gray,square
41.0,5.0,1.0,1.0,1.0,1.0,406.0729659395292,1.0,1.0,part_1,,,,,,,,,,,,,yellow,circle
110.0,6.0,2.0,1.0,1.0,1.0,354.4810588937253,1.0,1.0,part_1,,,,,,,,,,,,,orange,I
386.0,8.0,4.0,1.0,1.0,1.0,288.7205430306494,1.0,1.0,part_1,,,,,,,,,,,,,cyan,triangle
115.0,6.0,2.0,1.0,1.0,1.0,330.4632869549095,1.0,1.0,part_1,,,,,,,,,,,,,orange,I
42.0,1.0,1.0,0.0,1.0,1.0,385.7731189345941,1.0,1.0,part_1,,,,,,,,,,,,,white,hexagon
49.0,1.0,1.0,0.0,4.0,4.0,391.2164680659771,1.0,1.0,part_1,,,,,,,,,,,,,white,hexagon
0.0,7.0,0.0,1.0,1.0,1.0,305.7187249651178,1.0,1.0,part_1,,,,,,,,,,,,,gray,square
0.0,6.0,0.0,1.0,2.0,2.0,389.6283130161464,1.0,1.0,part_1,,,,,,,,,,,,,orange,I
0.0,1.0,0.0,0.0,1.0,1.0,309.4745489070192,1.0,1.0,part_1,,,,,,,,,,,,,white,hexagon
45.0,5.0,1.0,1.0,2.0,2.0,377.2361050359905,1.0,1.0,part_1,,,,,,,,,,,,,yellow,circle
224.0,7.0,3.0,1.0,2.0,2.0,341.6305959690362,1.0,1.0,part_1,,,,,,,,,,,,,gray,square
400.0,4.0,4.0,0.0,1.0,1.0,311.7244699969888,1.0,1.0,part_1,,,,,,,,,,,,,blue,cross
406.0,4.0,4.0,0.0,3.0,3.0,404.8880699556321,1.0,1.0,part_1,,,,,,,,,,,,,blue,cross
92.0,2.0,2.0,0.0,4.0,4.0,369.3900010548532,1.0,1.0,part_1,,,,,,,,,,,,,green,diamond
397.0,8.0,4.0,1.0,1.0,1.0,358.3108050515875,1.0,1.0,part_1,,,,,,,,,,,,,cyan,triangle
58.0,5.0,1.0,1.0,3.0,3.0,370.1471199747175,1.0,1.0,part_1,,,,,,,,,,,,,yellow,circle
69.0,1.0,1.0,0.0,2.0,2.0,346.1112990044057,1.0,1.0,part_1,,,,,,,,,,,,,white,hexagon
201.0,7.0,3.0,1.0,2.0,2.0,357.6866909861564,1.0,1.0,part_1,,,,,,,,,,,,,gray,square
0.0,3.0,0.0,0.0,1.0,1.0,331.9288759957999,1.0,1.0,part_1,,,,,,,,,,,,,magenta,flipped triangle
0.0,1.0,0.0,0.0,2.0,2.0,301.3998949900269,1.0,1.0,part_1,,,,,,,,,,,,,white,hexagon
420.0,8.0,4.0,1.0,2.0,2.0,346.5155169833451,1.0,1.0,part_1,,,,,,,,,,,,,cyan,triangle
38.0,5.0,1.0,1.0,1.0,1.0,383.4378399187699,1.0,1.0,part_1,,,,,,,,,,,,,yellow,circle
111.0,6.0,2.0,1.0,3.0,3.0,366.1801870912313,1.0,1.0,part_1,,,,,,,,,,,,,orange,I
109.0,2.0,2.0,0.0,1.0,1.0,312.5597700709477,1.0,1.0,part_1,,,,,,,,,,,,,green,diamond
213.0,7.0,3.0,1.0,1.0,1.0,358.3508420269936,1.0,1.0,part_1,,,,,,,,,,,,,gray,square
62.0,1.0,1.0,0.0,1.0,1.0,268.1125940289348,1.0,1.0,part_1,,,,,,,,,,,,,white,hexagon
0.0,7.0,0.0,1.0,1.0,1.0,261.6904460592195,1.0,1.0,part_1,,,,,,,,,,,,,gray,square
224.0,7.0,3.0,1.0,3.0,3.0,317.7242910023778,1.0,1.0,part_1,,,,,,,,,,,,,gray,square
382.0,4.0,4.0,0.0,3.0,3.0,311.3899660529569,1.0,1.0,part_1,,,,,,,,,,,,,blue,cross
59.0,1.0,1.0,0.0,2.0,2.0,340.7189949648455,1.0,1.0,part_1,,,,,,,,,,,,,white,hexagon
214.0,7.0,3.0,1.0,2.0,2.0,312.2023809701204,1.0,1.0,part_1,,,,,,,,,,,,,gray,square
201.0,3.0,3.0,0.0,2.0,2.0,269.4194249343127,1.0,1.0,part_1,,,,,,,,,,,,,magenta,flipped triangle
0.0,6.0,0.0,1.0,1.0,1.0,369.5798079716041,1.0,1.0,part_1,,,,,,,,,,,,,orange,I
376.0,8.0,4.0,1.0,3.0,3.0,289.3059379421174,1.0,1.0,part_1,,,,,,,,,,,,,cyan,triangle
52.0,5.0,1.0,1.0,3.0,3.0,277.1489749429747,1.0,1.0,part_1,,,,,,,,,,,,,yellow,circle
375.0,4.0,4.0,0.0,3.0,3.0,304.1526309680193,1.0,1.0,part_1,,,,,,,,,,,,,blue,cross
53.0,5.0,1.0,1.0,2.0,2.0,294.5899310288951,1.0,1.0,part_1,,,,,,,,,,,,,yellow,circle
111.0,2.0,2.0,0.0,2.0,2.0,268.0725960526615,1.0,1.0,part_1,,,,,,,,,,,,,green,diamond
0.0,3.0,0.0,0.0,2.0,2.0,293.6194429639727,1.0,1.0,part_1,,,,,,,,,,,,,magenta,flipped triangle
105.0,2.0,2.0,0.0,1.0,1.0,317.9331170395016,1.0,1.0,part_1,,,,,,,,,,,,,green,diamond
217.0,7.0,3.0,1.0,4.0,4.0,433.5219219792634,1.0,1.0,part_1,,,,,,,,,,,,,gray,square
420.0,8.0,4.0,1.0,4.0,4.0,276.2015130138024,1.0,1.0,part_1,,,,,,,,,,,,,cyan,triangle
67.0,5.0,1.0,1.0,4.0,4.0,274.6464039664715,1.0,1.0,part_1,,,,,,,,,,,,,yellow,circle
0.0,3.0,0.0,0.0,1.0,1.0,419.549896963872,1.0,2.0,part_1,,,,,,,,,,,,,magenta,flipped triangle
79.0,2.0,2.0,0.0,3.0,3.0,327.4833069881424,1.0,1.0,part_1,,,,,,,,,,,,,green,diamond
0.0,8.0,0.0,1.0,1.0,1.0,286.016603000462,1.0,1.0,part_1,,,,,,,,,,,,,cyan,triangle
92.0,6.0,2.0,1.0,1.0,1.0,353.2789549790323,1.0,1.0,part_1,,,,,,,,,,,,,orange,I
179.0,3.0,3.0,0.0,1.0,1.0,327.8825189918279,1.0,1.0,part_1,,,,,,,,,,,,,magenta,flipped triangle
0.0,4.0,0.0,0.0,1.0,1.0,365.2424110332504,1.0,1.0,part_1,,,,,,,,,,,,,blue,cross
390.0,8.0,4.0,1.0,3.0,3.0,279.2665320448577,1.0,1.0,part_1,,,,,,,,,,,,,cyan,triangle
116.0,6.0,2.0,1.0,3.0,3.0,306.9383860565722,1.0,1.0,part_1,,,,,,,,,,,,,orange,I
0.0,6.0,0.0,1.0,3.0,3.0,312.9389479290694,1.0,1.0,part_1,,,,,,,,,,,,,orange,I
115.0,2.0,2.0,0.0,3.0,3.0,413.9878079295158,1.0,1.0,part_1,,,,,,,,,,,,,green,diamond
0.0,4.0,0.0,0.0,4.0,4.0,401.3023740844801,1.0,1.0,part_1,,,,,,,,,,,,,blue,cross
202.0,3.0,3.0,0.0,3.0,3.0,295.6393150379881,1.0,1.0,part_1,,,,,,,,,,,,,magenta,flipped triangle
117.0,6.0,2.0,1.0,4.0,4.0,300.5650959676131,1.0,1.0,part_1,,,,,,,,,,,,,orange,I
0.0,3.0,0.0,0.0,1.0,1.0,384.5278560183942,1.0,1.0,part_1,,,,,,,,,,,,,magenta,flipped triangle
80.0,2.0,2.0,0.0,4.0,4.0,383.377477992326,1.0,1.0,part_1,,,,,,,,,,,,,green,diamond
38.0,1.0,1.0,0.0,2.0,2.0,312.2207610867917,1.0,1.0,part_1,,,,,,,,,,,,,white,hexagon
39.0,5.0,1.0,1.0,4.0,4.0,246.3449960341677,1.0,1.0,part_1,,,,,,,,,,,,,yellow,circle
120.0,6.0,2.0,1.0,2.0,2.0,418.9677588874474,1.0,1.0,part_1,,,,,,,,,,,,,orange,I
0.0,8.0,0.0,1.0,1.0,1.0,353.2070270739496,1.0,1.0,part_1,,,,,,,,,,,,,cyan,triangle
409.0,8.0,4.0,1.0,1.0,1.0,349.6717809466645,1.0,1.0,part_1,,,,,,,,,,,,,cyan,triangle
215.0,7.0,3.0,1.0,3.0,3.0,328.4768048906699,1.0,1.0,part_1,,,,,,,,,,,,,gray,square
27.0,1.0,1.0,0.0,2.0,2.0,340.7382629811764,1.0,1.0,part_1,,,,,,,,,,,,,white,hexagon
203.0,3.0,3.0,0.0,2.0,2.0,281.2536789570004,1.0,1.0,part_1,,,,,,,,,,,,,magenta,flipped triangle
96.0,6.0,2.0,1.0,3.0,3.0,302.66892700456077,1.0,1.0,part_1,,,,,,,,,,,,,orange,I
56.0,5.0,1.0,1.0,2.0,2.0,306.3006199663505,1.0,1.0,part_1,,,,,,,,,,,,,yellow,circle
107.0,2.0,2.0,0.0,1.0,1.0,338.0230780458078,1.0,1.0,part_1,,,,,,,,,,,,,green,diamond
79.0,2.0,2.0,0.0,3.0,3.0,332.6093789655715,1.0,1.0,part_1,,,,,,,,,,,,,green,diamond
59.0,5.0,1.0,1.0,4.0,4.0,426.2540430063382,1.0,1.0,part_1,,,,,,,,,,,,,yellow,circle
0.0,8.0,0.0,1.0,3.0,3.0,303.7334299879148,1.0,1.0,part_1,,,,,,,,,,,,,cyan,triangle
197.0,3.0,3.0,0.0,4.0,4.0,496.5056999353692,1.0,2.0,part_1,,,,,,,,,,,,,magenta,flipped triangle
221.0,3.0,3.0,0.0,2.0,2.0,435.1253448985517,1.0,1.0,part_1,,,,,,,,,,,,,magenta,flipped triangle
35.0,1.0,1.0,0.0,1.0,1.0,434.83893701341,1.0,1.0,part_1,,,,,,,,,,,,,white,hexagon
224.0,3.0,3.0,0.0,1.0,1.0,348.7777470145374,1.0,1.0,part_1,,,,,,,,,,,,,magenta,flipped triangle
0.0,8.0,0.0,1.0,2.0,2.0,332.6338309561834,1.0,1.0,part_1,,,,,,,,,,,,,cyan,triangle
71.0,5.0,1.0,1.0,1.0,1.0,359.1948519460857,1.0,1.0,part_1,,,,,,,,,,,,,yellow,circle
408.0,4.0,4.0,0.0,1.0,1.0,430.0914449850097,1.0,1.0,part_1,,,,,,,,,,,,,blue,cross
121.0,2.0,2.0,0.0,1.0,1.0,361.40723596327,1.0,1.0,part_1,,,,,,,,,,,,,green,diamond
214.0,3.0,3.0,0.0,3.0,3.0,324.4118220172822,1.0,1.0,part_1,,,,,,,,,,,,,magenta,flipped triangle
221.0,7.0,3.0,1.0,1.0,1.0,304.9628440057859,1.0,1.0,part_1,,,,,,,,,,,,,gray,square
100.0,6.0,2.0,1.0,2.0,2.0,373.596983961761,1.0,1.0,part_1,,,,,,,,,,,,,orange,I
62.0,5.0,1.0,1.0,1.0,1.0,382.3801119579002,1.0,1.0,part_1,,,,,,,,,,,,,yellow,circle
0.0,3.0,0.0,0.0,1.0,1.0,457.1764909196645,1.0,1.0,part_1,,,,,,,,,,,,,magenta,flipped triangle
32.0,1.0,1.0,0.0,3.0,3.0,438.4948309743777,1.0,1.0,part_1,,,,,,,,,,,,,white,hexagon
189.0,3.0,3.0,0.0,2.0,2.0,377.4109140504151,1.0,1.0,part_1,,,,,,,,,,,,,magenta,flipped triangle
102.0,2.0,2.0,0.0,3.0,3.0,335.3273750981316,1.0,1.0,part_1,,,,,,,,,,,,,green,diamond
183.0,3.0,3.0,0.0,4.0,4.0,435.6887340545654,1.0,1.0,part_1,,,,,,,,,,,,,magenta,flipped triangle
101.0,6.0,2.0,1.0,3.0,3.0,406.2623829813674,2.0,1.0,part_1,,,,,,,,,,,,,orange,I
217.0,3.0,3.0,0.0,3.0,3.0,299.5808699633926,2.0,1.0,part_1,,,,,,,,,,,,,magenta,flipped triangle
382.0,8.0,4.0,1.0,2.0,2.0,323.4640909358859,2.0,1.0,part_1,,,,,,,,,,,,,cyan,triangle
79.0,6.0,2.0,1.0,4.0,4.0,270.4092799685895,2.0,1.0,part_1,,,,,,,,,,,,,orange,I
395.0,4.0,4.0,0.0,1.0,1.0,307.9016030533239,2.0,1.0,part_1,,,,,,,,,,,,,blue,cross
420.0,4.0,4.0,0.0,2.0,2.0,301.3153380015865,2.0,1.0,part_1,,,,,,,,,,,,,blue,cross
43.0,1.0,1.0,0.0,1.0,1.0,373.5550799174234,2.0,1.0,part_1,,,,,,,,,,,,,white,hexagon
44.0,5.0,1.0,1.0,1.0,1.0,303.9914129767567,2.0,1.0,part_1,,,,,,,,,,,,,yellow,circle
190.0,3.0,3.0,0.0,3.0,3.0,269.4905060343444,2.0,1.0,part_1,,,,,,,,,,,,,magenta,flipped triangle
117.0,2.0,2.0,0.0,4.0,4.0,362.4723550165072,2.0,1.0,part_1,,,,,,,,,,,,,green,diamond
73.0,5.0,1.0,1.0,2.0,2.0,287.73187496699387,2.0,1.0,part_1,,,,,,,,,,,,,yellow,circle
419.0,8.0,4.0,1.0,1.0,1.0,397.766159963794,2.0,1.0,part_1,,,,,,,,,,,,,cyan,triangle
78.0,2.0,2.0,0.0,1.0,1.0,328.3552910434082,2.0,1.0,part_1,,,,,,,,,,,,,green,diamond
39.0,1.0,1.0,0.0,1.0,1.0,283.1989550031721,2.0,1.0,part_1,,,,,,,,,,,,,white,hexagon
401.0,4.0,4.0,0.0,2.0,2.0,274.9391689430922,2.0,1.0,part_1,,,,,,,,,,,,,blue,cross
53.0,1.0,1.0,0.0,4.0,4.0,295.5037179635837,2.0,1.0,part_1,,,,,,,,,,,,,white,hexagon
196.0,7.0,3.0,1.0,4.0,4.0,504.82833094429225,2.0,2.0,part_1,,,,,,,,,,,,,gray,square
31.0,1.0,1.0,0.0,2.0,2.0,436.7253230884671,2.0,1.0,part_1,,,,,,,,,,,,,white,hexagon
390.0,4.0,4.0,0.0,3.0,3.0,327.3836359148845,2.0,1.0,part_1,,,,,,,,,,,,,blue,cross
186.0,3.0,3.0,0.0,3.0,3.0,340.7770700287074,2.0,1.0,part_1,,,,,,,,,,,,,magenta,flipped triangle
375.0,8.0,4.0,1.0,3.0,3.0,316.0870249848813,2.0,1.0,part_1,,,,,,,,,,,,,cyan,triangle
0.0,2.0,0.0,0.0,4.0,4.0,253.49753897171468,2.0,1.0,part_1,,,,,,,,,,,,,green,diamond
196.0,7.0,3.0,1.0,4.0,4.0,290.5217389343306,2.0,1.0,part_1,,,,,,,,,,,,,gray,square
213.0,3.0,3.0,0.0,2.0,2.0,336.4207940176129,2.0,1.0,part_1,,,,,,,,,,,,,magenta,flipped triangle
205.0,3.0,3.0,0.0,3.0,3.0,284.0442520100623,2.0,1.0,part_1,,,,,,,,,,,,,magenta,flipped triangle
0.0,5.0,0.0,1.0,3.0,3.0,298.7197269685566,2.0,1.0,part_1,,,,,,,,,,,,,yellow,circle
204.0,3.0,3.0,0.0,2.0,2.0,359.8890569992363,2.0,1.0,part_1,,,,,,,,,,,,,magenta,flipped triangle
0.0,2.0,0.0,0.0,2.0,2.0,413.0514649441466,2.0,1.0,part_1,,,,,,,,,,,,,green,diamond
422.0,8.0,4.0,1.0,3.0,3.0,294.9683739570901,2.0,1.0,part_1,,,,,,,,,,,,,cyan,triangle
202.0,7.0,3.0,1.0,3.0,3.0,306.7141299834475,2.0,1.0,part_1,,,,,,,,,,,,,gray,square
76.0,6.0,2.0,1.0,1.0,1.0,402.5778009090572,2.0,1.0,part_1,,,,,,,,,,,,,orange,I
43.0,5.0,1.0,1.0,3.0,3.0,291.9226890662685,2.0,1.0,part_1,,,,,,,,,,,,,yellow,circle
382.0,4.0,4.0,0.0,4.0,4.0,281.7084999987855,2.0,1.0,part_1,,,,,,,,,,,,,blue,cross
181.0,7.0,3.0,1.0,2.0,2.0,369.2120889900252,2.0,1.0,part_1,,,,,,,,,,,,,gray,square
69.0,5.0,1.0,1.0,2.0,2.0,340.0255769956857,2.0,1.0,part_1,,,,,,,,,,,,,yellow,circle
405.0,8.0,4.0,1.0,1.0,1.0,390.6075429404154,2.0,1.0,part_1,,,,,,,,,,,,,cyan,triangle
203.0,3.0,3.0,0.0,3.0,3.0,310.4214379563927,2.0,1.0,part_1,,,,,,,,,,,,,magenta,flipped triangle
400.0,8.0,4.0,1.0,4.0,4.0,314.8396660108119,2.0,1.0,part_1,,,,,,,,,,,,,cyan,triangle
0.0,1.0,0.0,0.0,2.0,2.0,325.0497140688821,2.0,1.0,part_1,,,,,,,,,,,,,white,hexagon
116.0,2.0,2.0,0.0,4.0,4.0,417.5299600465223,2.0,1.0,part_1,,,,,,,,,,,,,green,diamond
73.0,1.0,1.0,0.0,1.0,1.0,566.1010610638186,2.0,1.0,part_1,,,,,,,,,,,,,white,hexagon
206.0,7.0,3.0,1.0,2.0,2.0,381.7946530180052,2.0,1.0,part_1,,,,,,,,,,,,,gray,square
181.0,3.0,3.0,0.0,3.0,3.0,356.7256149835884,2.0,1.0,part_1,,,,,,,,,,,,,magenta,flipped triangle
67.0,1.0,1.0,0.0,3.0,3.0,327.475909027271,2.0,1.0,part_1,,,,,,,,,,,,,white,hexagon
386.0,4.0,4.0,0.0,3.0,3.0,297.796185943298,2.0,1.0,part_1,,,,,,,,,,,,,blue,cross
69.0,1.0,1.0,0.0,4.0,4.0,303.747471072711,2.0,1.0,part_1,,,,,,,,,,,,,white,hexagon
52.0,1.0,1.0,0.0,4.0,4.0,374.5022040093317,2.0,1.0,part_1,,,,,,,,,,,,,white,hexagon
390.0,8.0,4.0,1.0,3.0,3.0,315.2676840545609,2.0,1.0,part_1,,,,,,,,,,,,,cyan,triangle
218.0,7.0,3.0,1.0,2.0,2.0,364.4893780583516,2.0,1.0,part_1,,,,,,,,,,,,,gray,square
116.0,2.0,2.0,0.0,3.0,3.0,388.0079149967059,2.0,1.0,part_1,,,,,,,,,,,,,green,diamond
180.0,7.0,3.0,1.0,4.0,4.0,365.9212120110169,2.0,1.0,part_1,,,,,,,,,,,,,gray,square
0.0,7.0,0.0,1.0,1.0,1.0,435.0882449652999,2.0,1.0,part_1,,,,,,,,,,,,,gray,square
76.0,6.0,2.0,1.0,1.0,1.0,415.5159249203279,2.0,1.0,part_1,,,,,,,,,,,,,orange,I
205.0,7.0,3.0,1.0,2.0,2.0,357.3306349571794,2.0,1.0,part_1,,,,,,,,,,,,,gray,square
66.0,1.0,1.0,0.0,2.0,2.0,339.8595949402079,2.0,1.0,part_1,,,,,,,,,,,,,white,hexagon
73.0,5.0,1.0,1.0,3.0,3.0,288.3926989743486,2.0,1.0,part_1,,,,,,,,,,,,,yellow,circle
205.0,3.0,3.0,0.0,2.0,2.0,285.1175479590893,2.0,1.0,part_1,,,,,,,,,,,,,magenta,flipped triangle
28.0,1.0,1.0,0.0,4.0,4.0,294.48485490866,2.0,1.0,part_1,,,,,,,,,,,,,white,hexagon
0.0,3.0,0.0,0.0,3.0,3.0,301.0110129835084,2.0,1.0,part_1,,,,,,,,,,,,,magenta,flipped triangle
381.0,8.0,4.0,1.0,3.0,3.0,291.4624109398573,2.0,1.0,part_1,,,,,,,,,,,,,cyan,triangle
56.0,1.0,1.0,0.0,4.0,4.0,304.2302599642426,2.0,1.0,part_1,,,,,,,,,,,,,white,hexagon
180.0,3.0,3.0,0.0,2.0,2.0,402.4821750354022,2.0,1.0,part_1,,,,,,,,,,,,,magenta,flipped triangle
85.0,6.0,2.0,1.0,1.0,1.0,359.9369779694825,2.0,1.0,part_1,,,,,,,,,,,,,orange,I
45.0,5.0,1.0,1.0,4.0,4.0,333.003707928583,2.0,1.0,part_1,,,,,,,,,,,,,yellow,circle
0.0,2.0,0.0,0.0,3.0,3.0,369.9770400999114,2.0,1.0,part_1,,,,,,,,,,,,,green,diamond
0.0,6.0,0.0,1.0,3.0,3.0,307.7747280476615,2.0,1.0,part_1,,,,,,,,,,,,,orange,I
402.0,8.0,4.0,1.0,4.0,4.0,299.0368059836328,2.0,1.0,part_1,,,,,,,,,,,,,cyan,triangle
418.0,4.0,4.0,0.0,4.0,4.0,286.9844350498169,2.0,1.0,part_1,,,,,,,,,,,,,blue,cross
207.0,3.0,3.0,0.0,3.0,3.0,329.3771829921752,2.0,1.0,part_1,,,,,,,,,,,,,magenta,flipped triangle
412.0,8.0,4.0,1.0,4.0,4.0,303.3615190070122,2.0,1.0,part_1,,,,,,,,,,,,,cyan,triangle
423.0,8.0,4.0,1.0,2.0,2.0,322.5826530251652,2.0,1.0,part_1,,,,,,,,,,,,,cyan,triangle
207.0,7.0,3.0,1.0,1.0,1.0,338.7174879899248,2.0,1.0,part_1,,,,,,,,,,,,,gray,square
0.0,8.0,0.0,1.0,2.0,2.0,326.740263029933,2.0,1.0,part_1,,,,,,,,,,,,,cyan,triangle
101.0,6.0,2.0,1.0,2.0,2.0,322.995642083697,2.0,1.0,part_1,,,,,,,,,,,,,orange,I
194.0,3.0,3.0,0.0,1.0,1.0,472.8393150726333,2.0,1.0,part_1,,,,,,,,,,,,,magenta,flipped triangle
388.0,8.0,4.0,1.0,3.0,3.0,299.0250539733097,2.0,1.0,part_1,,,,,,,,,,,,,cyan,triangle
0.0,4.0,0.0,0.0,2.0,2.0,318.6894500395283,2.0,1.0,part_1,,,,,,,,,,,,,blue,cross
415.0,8.0,4.0,1.0,1.0,1.0,341.5421119425446,2.0,1.0,part_1,,,,,,,,,,,,,cyan,triangle
108.0,6.0,2.0,1.0,2.0,2.0,416.6049089981243,2.0,1.0,part_1,,,,,,,,,,,,,orange,I
0.0,5.0,0.0,1.0,2.0,2.0,311.5207359660417,2.0,1.0,part_1,,,,,,,,,,,,,yellow,circle
96.0,2.0,2.0,0.0,3.0,3.0,316.7329430580139,2.0,1.0,part_1,,,,,,,,,,,,,green,diamond
0.0,8.0,0.0,1.0,2.0,2.0,336.1448410432786,2.0,1.0,part_1,,,,,,,,,,,,,cyan,triangle
0.0,3.0,0.0,0.0,2.0,2.0,299.9214050360024,2.0,1.0,part_1,,,,,,,,,,,,,magenta,flipped triangle
211.0,7.0,3.0,1.0,1.0,1.0,369.4061760324985,2.0,1.0,part_1,,,,,,,,,,,,,gray,square
386.0,4.0,4.0,0.0,1.0,1.0,327.7969990158453,2.0,1.0,part_1,,,,,,,,,,,,,blue,cross
0.0,4.0,0.0,0.0,1.0,1.0,324.5754209347069,2.0,1.0,part_1,,,,,,,,,,,,,blue,cross
121.0,6.0,2.0,1.0,2.0,2.0,302.8876779135316,2.0,1.0,part_1,,,,,,,,,,,,,orange,I
45.0,1.0,1.0,0.0,3.0,3.0,290.6642379239201,2.0,1.0,part_1,,,,,,,,,,,,,white,hexagon
179.0,3.0,3.0,0.0,4.0,4.0,393.8545240089297,2.0,1.0,part_1,,,,,,,,,,,,,magenta,flipped triangle
101.0,6.0,2.0,1.0,2.0,2.0,278.5747660091147,2.0,1.0,part_1,,,,,,,,,,,,,orange,I
186.0,7.0,3.0,1.0,1.0,1.0,329.5190669596195,2.0,1.0,part_1,,,,,,,,,,,,,gray,square
0.0,5.0,0.0,1.0,3.0,3.0,317.63681396842,2.0,1.0,part_1,,,,,,,,,,,,,yellow,circle
107.0,6.0,2.0,1.0,2.0,2.0,300.380170927383,2.0,1.0,part_1,,,,,,,,,,,,,orange,I
0.0,1.0,0.0,0.0,4.0,4.0,360.9942910261452,2.0,1.0,part_1,,,,,,,,,,,,,white,hexagon
196.0,3.0,3.0,0.0,1.0,1.0,295.1944860396907,2.0,1.0,part_1,,,,,,,,,,,,,magenta,flipped triangle
108.0,6.0,2.0,1.0,4.0,4.0,290.4120180755853,2.0,1.0,part_1,,,,,,,,,,,,,orange,I
0.0,6.0,0.0,1.0,3.0,3.0,278.0011179856956,2.0,1.0,part_1,,,,,,,,,,,,,orange,I
0.0,3.0,0.0,0.0,2.0,2.0,329.7762979054823,2.0,1.0,part_1,,,,,,,,,,,,,magenta,flipped triangle
108.0,2.0,2.0,0.0,4.0,4.0,248.4684669179842,2.0,1.0,part_1,,,,,,,,,,,,,green,diamond
73.0,5.0,1.0,1.0,3.0,3.0,245.7357660168782,2.0,1.0,part_1,,,,,,,,,,,,,yellow,circle
0.0,4.0,0.0,0.0,4.0,4.0,286.9986719451844,3.0,1.0,part_1,,,,,,,,,,,,,blue,cross
31.0,5.0,1.0,1.0,1.0,1.0,308.8878649286926,3.0,1.0,part_1,,,,,,,,,,,,,yellow,circle
38.0,1.0,1.0,0.0,3.0,3.0,266.771940048784,3.0,1.0,part_1,,,,,,,,,,,,,white,hexagon
183.0,3.0,3.0,0.0,4.0,4.0,254.73138398956507,3.0,1.0,part_1,,,,,,,,,,,,,magenta,flipped triangle
116.0,6.0,2.0,1.0,3.0,3.0,257.1700359694659,3.0,1.0,part_1,,,,,,,,,,,,,orange,I
27.0,5.0,1.0,1.0,2.0,2.0,286.2645069835707,3.0,1.0,part_1,,,,,,,,,,,,,yellow,circle
108.0,2.0,2.0,0.0,2.0,2.0,274.1696980083361,3.0,1.0,part_1,,,,,,,,,,,,,green,diamond
410.0,4.0,4.0,0.0,4.0,4.0,247.7731410181149,3.0,1.0,part_1,,,,,,,,,,,,,blue,cross
124.0,6.0,2.0,1.0,2.0,2.0,278.7522589787841,3.0,1.0,part_1,,,,,,,,,,,,,orange,I
205.0,7.0,3.0,1.0,3.0,3.0,274.5557179441675,3.0,1.0,part_1,,,,,,,,,,,,,gray,square
189.0,3.0,3.0,0.0,1.0,1.0,325.5759510211646,3.0,1.0,part_1,,,,,,,,,,,,,magenta,flipped triangle
58.0,1.0,1.0,0.0,4.0,4.0,324.2089010309428,3.0,1.0,part_1,,,,,,,,,,,,,white,hexagon
0.0,7.0,0.0,1.0,1.0,1.0,334.9775079404935,3.0,1.0,part_1,,,,,,,,,,,,,gray,square
101.0,2.0,2.0,0.0,2.0,2.0,299.7196799842641,3.0,1.0,part_1,,,,,,,,,,,,,green,diamond
191.0,3.0,3.0,0.0,4.0,4.0,282.2902461048215,3.0,1.0,part_1,,,,,,,,,,,,,magenta,flipped triangle
382.0,8.0,4.0,1.0,3.0,3.0,278.5163659136742,3.0,1.0,part_1,,,,,,,,,,,,,cyan,triangle
191.0,3.0,3.0,0.0,3.0,3.0,257.582672056742,3.0,1.0,part_1,,,,,,,,,,,,,magenta,flipped triangle
113.0,6.0,2.0,1.0,1.0,1.0,303.8119719130918,3.0,1.0,part_1,,,,,,,,,,,,,orange,I
191.0,3.0,3.0,0.0,1.0,1.0,340.9013429190963,3.0,1.0,part_1,,,,,,,,,,,,,magenta,flipped triangle
190.0,7.0,3.0,1.0,1.0,1.0,319.5777700748294,3.0,1.0,part_1,,,,,,,,,,,,,gray,square
36.0,1.0,1.0,0.0,1.0,1.0,269.817313994281,3.0,1.0,part_1,,,,,,,,,,,,,white,hexagon
402.0,4.0,4.0,0.0,1.0,1.0,282.8214110340923,3.0,1.0,part_1,,,,,,,,,,,,,blue,cross
376.0,4.0,4.0,0.0,1.0,1.0,254.3008630163967,3.0,1.0,part_1,,,,,,,,,,,,,blue,cross
191.0,7.0,3.0,1.0,3.0,3.0,242.3227119725197,3.0,1.0,part_1,,,,,,,,,,,,,gray,square
395.0,8.0,4.0,1.0,2.0,2.0,286.7217340972274,3.0,1.0,part_1,,,,,,,,,,,,,cyan,triangle
39.0,5.0,1.0,1.0,1.0,1.0,292.5412089098245,3.0,1.0,part_1,,,,,,,,,,,,,yellow,circle
66.0,5.0,1.0,1.0,4.0,4.0,282.5558170443401,3.0,1.0,part_1,,,,,,,,,,,,,yellow,circle
107.0,6.0,2.0,1.0,2.0,2.0,295.4435249557718,3.0,1.0,part_1,,,,,,,,,,,,,orange,I
0.0,5.0,0.0,1.0,1.0,1.0,260.9743459615856,3.0,1.0,part_1,,,,,,,,,,,,,yellow,circle
393.0,8.0,4.0,1.0,1.0,1.0,263.1187600782141,3.0,1.0,part_1,,,,,,,,,,,,,cyan,triangle
0.0,2.0,0.0,0.0,4.0,4.0,309.0421049855649,3.0,1.0,part_1,,,,,,,,,,,,,green,diamond
72.0,1.0,1.0,0.0,3.0,3.0,287.6872160704806,3.0,1.0,part_1,,,,,,,,,,,,,white,hexagon
100.0,2.0,2.0,0.0,1.0,1.0,254.50129597447813,3.0,1.0,part_1,,,,,,,,,,,,,green,diamond
33.0,1.0,1.0,0.0,3.0,3.0,291.9381300453096,3.0,1.0,part_1,,,,,,,,,,,,,white,hexagon
72.0,5.0,1.0,1.0,4.0,4.0,340.8862419892102,3.0,2.0,part_1,,,,,,,,,,,,,yellow,circle
0.0,7.0,0.0,1.0,3.0,3.0,291.0715750185773,3.0,1.0,part_1,,,,,,,,,,,,,gray,square
28.0,5.0,1.0,1.0,3.0,3.0,308.1175489351153,3.0,1.0,part_1,,,,,,,,,,,,,yellow,circle
33.0,5.0,1.0,1.0,2.0,2.0,412.4083319911733,3.0,1.0,part_1,,,,,,,,,,,,,yellow,circle
399.0,4.0,4.0,0.0,1.0,1.0,464.7338918875903,3.0,1.0,part_1,,,,,,,,,,,,,blue,cross
76.0,2.0,2.0,0.0,4.0,4.0,266.2487159250304,3.0,1.0,part_1,,,,,,,,,,,,,green,diamond
64.0,5.0,1.0,1.0,3.0,3.0,242.3712010495364,3.0,1.0,part_1,,,,,,,,,,,,,yellow,circle
400.0,8.0,4.0,1.0,4.0,4.0,375.4859009059146,3.0,1.0,part_1,,,,,,,,,,,,,cyan,triangle
202.0,7.0,3.0,1.0,1.0,1.0,312.2497840085998,3.0,1.0,part_1,,,,,,,,,,,,,gray,square
101.0,2.0,2.0,0.0,4.0,4.0,349.1203859448433,3.0,1.0,part_1,,,,,,,,,,,,,green,diamond
81.0,6.0,2.0,1.0,3.0,3.0,325.0020879786461,3.0,1.0,part_1,,,,,,,,,,,,,orange,I
180.0,3.0,3.0,0.0,4.0,4.0,296.1183339357376,3.0,1.0,part_1,,,,,,,,,,,,,magenta,flipped triangle
423.0,4.0,4.0,0.0,2.0,2.0,510.4285329580307,3.0,1.0,part_1,,,,,,,,,,,,,blue,cross
203.0,7.0,3.0,1.0,3.0,3.0,305.7904669549316,3.0,1.0,part_1,,,,,,,,,,,,,gray,square
419.0,4.0,4.0,0.0,4.0,4.0,436.1677310662344,3.0,1.0,part_1,,,,,,,,,,,,,blue,cross
398.0,4.0,4.0,0.0,2.0,2.0,300.4407610278576,3.0,1.0,part_1,,,,,,,,,,,,,blue,cross
97.0,6.0,2.0,1.0,1.0,1.0,374.0222790511325,3.0,1.0,part_1,,,,,,,,,,,,,orange,I
207.0,3.0,3.0,0.0,1.0,1.0,379.0498609887436,3.0,1.0,part_1,,,,,,,,,,,,,magenta,flipped triangle
124.0,2.0,2.0,0.0,2.0,2.0,353.9744620211422,3.0,1.0,part_1,,,,,,,,,,,,,green,diamond
382.0,4.0,4.0,0.0,2.0,2.0,340.0528179481625,3.0,1.0,part_1,,,,,,,,,,,,,blue,cross
415.0,4.0,4.0,0.0,4.0,4.0,361.0351149691269,3.0,1.0,part_1,,,,,,,,,,,,,blue,cross
422.0,4.0,4.0,0.0,1.0,1.0,320.3855310566723,3.0,1.0,part_1,,,,,,,,,,,,,blue,cross
410.0,8.0,4.0,1.0,4.0,4.0,387.4115269863978,3.0,1.0,part_1,,,,,,,,,,,,,cyan,triangle
189.0,7.0,3.0,1.0,4.0,4.0,360.9211470466107,3.0,1.0,part_1,,,,,,,,,,,,,gray,square
124.0,2.0,2.0,0.0,1.0,1.0,602.8405179968104,3.0,1.0,part_1,,,,,,,,,,,,,green,diamond
215.0,3.0,3.0,0.0,4.0,4.0,311.9648270076141,3.0,1.0,part_1,,,,,,,,,,,,,magenta,flipped triangle
418.0,4.0,4.0,0.0,2.0,2.0,295.0559980235994,3.0,1.0,part_1,,,,,,,,,,,,,blue,cross
0.0,8.0,0.0,1.0,4.0,4.0,266.8853990035131,3.0,1.0,part_1,,,,,,,,,,,,,cyan,triangle
400.0,4.0,4.0,0.0,3.0,3.0,287.7458989387378,3.0,1.0,part_1,,,,,,,,,,,,,blue,cross
418.0,8.0,4.0,1.0,4.0,4.0,324.2389119695872,3.0,1.0,part_1,,,,,,,,,,,,,cyan,triangle
107.0,2.0,2.0,0.0,2.0,2.0,322.9533709818497,3.0,1.0,part_1,,,,,,,,,,,,,green,diamond
420.0,4.0,4.0,0.0,3.0,3.0,278.1765690306201,3.0,1.0,part_1,,,,,,,,,,,,,blue,cross
0.0,5.0,0.0,1.0,2.0,2.0,291.0690520657226,3.0,1.0,part_1,,,,,,,,,,,,,yellow,circle
0.0,8.0,0.0,1.0,3.0,3.0,279.928995994851,3.0,1.0,part_1,,,,,,,,,,,,,cyan,triangle
183.0,7.0,3.0,1.0,2.0,2.0,317.5645440351218,3.0,1.0,part_1,,,,,,,,,,,,,gray,square
179.0,7.0,3.0,1.0,4.0,4.0,279.3039919342845,3.0,1.0,part_1,,,,,,,,,,,,,gray,square
0.0,6.0,0.0,1.0,1.0,1.0,356.9583769422024,3.0,1.0,part_1,,,,,,,,,,,,,orange,I
81.0,2.0,2.0,0.0,4.0,4.0,311.9861700106412,3.0,1.0,part_1,,,,,,,,,,,,,green,diamond
0.0,4.0,0.0,0.0,3.0,3.0,315.1049319421872,3.0,2.0,part_1,,,,,,,,,,,,,blue,cross
90.0,2.0,2.0,0.0,3.0,3.0,304.8108129296452,3.0,1.0,part_1,,,,,,,,,,,,,green,diamond
0.0,2.0,0.0,0.0,3.0,3.0,290.8466479275375,3.0,1.0,part_1,,,,,,,,,,,,,green,diamond
41.0,1.0,1.0,0.0,2.0,2.0,346.5110909892246,3.0,1.0,part_1,,,,,,,,,,,,,white,hexagon
49.0,5.0,1.0,1.0,4.0,4.0,278.9006999228149,3.0,1.0,part_1,,,,,,,,,,,,,yellow,circle
408.0,8.0,4.0,1.0,3.0,3.0,296.846144949086,3.0,1.0,part_1,,,,,,,,,,,,,cyan,triangle
206.0,3.0,3.0,0.0,1.0,1.0,321.31040596868837,3.0,1.0,part_1,,,,,,,,,,,,,magenta,flipped triangle
0.0,5.0,0.0,1.0,4.0,4.0,308.29845496919,3.0,1.0,part_1,,,,,,,,,,,,,yellow,circle
0.0,1.0,0.0,0.0,2.0,2.0,353.370938100852,3.0,1.0,part_1,,,,,,,,,,,,,white,hexagon
180.0,7.0,3.0,1.0,3.0,3.0,317.2004859661683,3.0,1.0,part_1,,,,,,,,,,,,,gray,square
207.0,7.0,3.0,1.0,4.0,4.0,370.3636900754645,3.0,1.0,part_1,,,,,,,,,,,,,gray,square
0.0,4.0,0.0,0.0,3.0,3.0,286.1854290822521,3.0,1.0,part_1,,,,,,,,,,,,,blue,cross
93.0,2.0,2.0,0.0,4.0,4.0,283.5955049376935,3.0,1.0,part_1,,,,,,,,,,,,,green,diamond
90.0,6.0,2.0,1.0,4.0,4.0,386.3945390330627,3.0,1.0,part_1,,,,,,,,,,,,,orange,I
114.0,6.0,2.0,1.0,3.0,3.0,284.7207370214164,3.0,1.0,part_1,,,,,,,,,,,,,orange,I
69.0,5.0,1.0,1.0,1.0,1.0,335.8639109646901,3.0,1.0,part_1,,,,,,,,,,,,,yellow,circle
179.0,7.0,3.0,1.0,4.0,4.0,319.2612390266731,3.0,1.0,part_1,,,,,,,,,,,,,gray,square
73.0,1.0,1.0,0.0,1.0,1.0,369.3051380105316,3.0,1.0,part_1,,,,,,,,,,,,,white,hexagon
81.0,2.0,2.0,0.0,1.0,1.0,341.7980109807104,3.0,1.0,part_1,,,,,,,,,,,,,green,diamond
44.0,1.0,1.0,0.0,4.0,4.0,308.5705490084365,3.0,1.0,part_1,,,,,,,,,,,,,white,hexagon
0.0,5.0,0.0,1.0,3.0,3.0,319.4561389973387,3.0,1.0,part_1,,,,,,,,,,,,,yellow,circle
393.0,4.0,4.0,0.0,2.0,2.0,332.052284036763,3.0,1.0,part_1,,,,,,,,,,,,,blue,cross
0.0,5.0,0.0,1.0,2.0,2.0,313.1748898886144,3.0,1.0,part_1,,,,,,,,,,,,,yellow,circle
94.0,6.0,2.0,1.0,4.0,4.0,327.8050830122083,3.0,1.0,part_1,,,,,,,,,,,,,orange,I
36.0,5.0,1.0,1.0,4.0,4.0,428.974480018951,3.0,1.0,part_1,,,,,,,,,,,,,yellow,circle
386.0,4.0,4.0,0.0,2.0,2.0,286.4711410365999,3.0,1.0,part_1,,,,,,,,,,,,,blue,cross
32.0,5.0,1.0,1.0,3.0,3.0,286.2301890272647,3.0,1.0,part_1,,,,,,,,,,,,,yellow,circle
0.0,7.0,0.0,1.0,2.0,2.0,447.8755310410633,3.0,1.0,part_1,,,,,,,,,,,,,gray,square
406.0,8.0,4.0,1.0,2.0,2.0,434.5243469579145,4.0,1.0,part_1,,,,,,,,,,,,,cyan,triangle
39.0,1.0,1.0,0.0,4.0,4.0,264.0053289942443,4.0,1.0,part_1,,,,,,,,,,,,,white,hexagon
113.0,2.0,2.0,0.0,2.0,2.0,332.5597520451993,4.0,1.0,part_1,,,,,,,,,,,,,green,diamond
0.0,7.0,0.0,1.0,2.0,2.0,320.5543729709461,4.0,1.0,part_1,,,,,,,,,,,,,gray,square
412.0,4.0,4.0,0.0,4.0,4.0,279.211385990493,4.0,1.0,part_1,,,,,,,,,,,,,blue,cross
376.0,4.0,4.0,0.0,4.0,4.0,306.0992859536782,4.0,1.0,part_1,,,,,,,,,,,,,blue,cross
408.0,4.0,4.0,0.0,3.0,3.0,302.672149031423,4.0,1.0,part_1,,,,,,,,,,,,,blue,cross
36.0,1.0,1.0,0.0,4.0,4.0,323.6915520392358,4.0,1.0,part_1,,,,,,,,,,,,,white,hexagon
62.0,1.0,1.0,0.0,1.0,1.0,584.3379850266501,4.0,1.0,part_1,,,,,,,,,,,,,white,hexagon
191.0,7.0,3.0,1.0,2.0,2.0,308.5329569876194,4.0,1.0,part_1,,,,,,,,,,,,,gray,square
120.0,2.0,2.0,0.0,2.0,2.0,307.5420430395752,4.0,1.0,part_1,,,,,,,,,,,,,green,diamond
0.0,4.0,0.0,0.0,3.0,3.0,306.0830140020698,4.0,1.0,part_1,,,,,,,,,,,,,blue,cross
49.0,5.0,1.0,1.0,1.0,1.0,372.9079850018024,4.0,1.0,part_1,,,,,,,,,,,,,yellow,circle
381.0,4.0,4.0,0.0,4.0,4.0,299.145243014209,4.0,1.0,part_1,,,,,,,,,,,,,blue,cross
0.0,6.0,0.0,1.0,3.0,3.0,286.6070340387523,4.0,1.0,part_1,,,,,,,,,,,,,orange,I
0.0,2.0,0.0,0.0,3.0,3.0,324.8114730231464,4.0,1.0,part_1,,,,,,,,,,,,,green,diamond
109.0,6.0,2.0,1.0,3.0,3.0,279.8998639918864,4.0,1.0,part_1,,,,,,,,,,,,,orange,I
0.0,7.0,0.0,1.0,4.0,4.0,290.9347780514508,4.0,1.0,part_1,,,,,,,,,,,,,gray,square
386.0,8.0,4.0,1.0,3.0,3.0,289.8548420052975,4.0,1.0,part_1,,,,,,,,,,,,,cyan,triangle
409.0,4.0,4.0,0.0,2.0,2.0,342.3817659495398,4.0,1.0,part_1,,,,,,,,,,,,,blue,cross
0.0,1.0,0.0,0.0,3.0,3.0,324.5411160169169,4.0,1.0,part_1,,,,,,,,,,,,,white,hexagon
99.0,6.0,2.0,1.0,3.0,3.0,262.9337270045653,4.0,1.0,part_1,,,,,,,,,,,,,orange,I
388.0,4.0,4.0,0.0,4.0,4.0,307.3853279929608,4.0,1.0,part_1,,,,,,,,,,,,,blue,cross
390.0,4.0,4.0,0.0,3.0,3.0,374.1380079882219,4.0,1.0,part_1,,,,,,,,,,,,,blue,cross
124.0,6.0,2.0,1.0,3.0,3.0,333.8948059827089,4.0,1.0,part_1,,,,,,,,,,,,,orange,I
80.0,6.0,2.0,1.0,2.0,2.0,344.3666269304231,4.0,1.0,part_1,,,,,,,,,,,,,orange,I
219.0,7.0,3.0,1.0,4.0,4.0,493.6984960222617,4.0,1.0,part_1,,,,,,,,,,,,,gray,square
33.0,1.0,1.0,0.0,3.0,3.0,300.6190739106387,4.0,1.0,part_1,,,,,,,,,,,,,white,hexagon
99.0,2.0,2.0,0.0,2.0,2.0,366.4356630761176,4.0,1.0,part_1,,,,,,,,,,,,,green,diamond
422.0,4.0,4.0,0.0,4.0,4.0,250.3601480275392,4.0,1.0,part_1,,,,,,,,,,,,,blue,cross
0.0,8.0,0.0,1.0,3.0,3.0,521.4758730726317,4.0,1.0,part_1,,,,,,,,,,,,,cyan,triangle
62.0,5.0,1.0,1.0,2.0,2.0,269.9030339717865,4.0,1.0,part_1,,,,,,,,,,,,,yellow,circle
0.0,8.0,0.0,1.0,4.0,4.0,258.7475210893899,4.0,1.0,part_1,,,,,,,,,,,,,cyan,triangle
194.0,7.0,3.0,1.0,3.0,3.0,278.8583980873227,4.0,1.0,part_1,,,,,,,,,,,,,gray,square
405.0,4.0,4.0,0.0,3.0,3.0,274.6118269860744,4.0,1.0,part_1,,,,,,,,,,,,,blue,cross
42.0,5.0,1.0,1.0,3.0,3.0,270.2119520399719,4.0,1.0,part_1,,,,,,,,,,,,,yellow,circle
0.0,1.0,0.0,0.0,2.0,2.0,340.7901019090786,4.0,1.0,part_1,,,,,,,,,,,,,white,hexagon
0.0,2.0,0.0,0.0,3.0,3.0,303.7586539285257,4.0,1.0,part_1,,,,,,,,,,,,,green,diamond
0.0,3.0,0.0,0.0,2.0,2.0,284.6057220594957,4.0,1.0,part_1,,,,,,,,,,,,,magenta,flipped triangle
34.0,5.0,1.0,1.0,4.0,4.0,282.1859220275655,4.0,1.0,part_1,,,,,,,,,,,,,yellow,circle
45.0,1.0,1.0,0.0,1.0,1.0,345.711912959814,4.0,1.0,part_1,,,,,,,,,,,,,white,hexagon
0.0,2.0,0.0,0.0,1.0,1.0,373.7788329599425,4.0,1.0,part_1,,,,,,,,,,,,,green,diamond
397.0,4.0,4.0,0.0,1.0,1.0,304.0753720561042,4.0,1.0,part_1,,,,,,,,,,,,,blue,cross
401.0,8.0,4.0,1.0,1.0,1.0,324.373316951096,4.0,1.0,part_1,,,,,,,,,,,,,cyan,triangle
110.0,2.0,2.0,0.0,2.0,2.0,292.0058659510687,4.0,1.0,part_1,,,,,,,,,,,,,green,diamond
211.0,3.0,3.0,0.0,2.0,2.0,286.0698770964518,4.0,1.0,part_1,,,,,,,,,,,,,magenta,flipped triangle
101.0,2.0,2.0,0.0,2.0,2.0,285.091609111987,4.0,1.0,part_1,,,,,,,,,,,,,green,diamond
0.0,1.0,0.0,0.0,1.0,1.0,303.5169140202924,4.0,1.0,part_1,,,,,,,,,,,,,white,hexagon
218.0,3.0,3.0,0.0,2.0,2.0,294.9825240066275,4.0,1.0,part_1,,,,,,,,,,,,,magenta,flipped triangle
85.0,2.0,2.0,0.0,1.0,1.0,336.6166380001232,4.0,1.0,part_1,,,,,,,,,,,,,green,diamond
0.0,5.0,0.0,1.0,2.0,2.0,295.8625600440427,4.0,1.0,part_1,,,,,,,,,,,,,yellow,circle
189.0,3.0,3.0,0.0,4.0,4.0,340.9658850869164,4.0,1.0,part_1,,,,,,,,,,,,,magenta,flipped triangle
93.0,6.0,2.0,1.0,1.0,1.0,369.9759161099791,4.0,1.0,part_1,,,,,,,,,,,,,orange,I
49.0,1.0,1.0,0.0,3.0,3.0,283.6848950246349,4.0,1.0,part_1,,,,,,,,,,,,,white,hexagon
422.0,8.0,4.0,1.0,4.0,4.0,467.8480749716982,4.0,1.0,part_1,,,,,,,,,,,,,cyan,triangle
51.0,5.0,1.0,1.0,1.0,1.0,335.4827859438956,4.0,1.0,part_1,,,,,,,,,,,,,yellow,circle
0.0,6.0,0.0,1.0,2.0,2.0,323.785483953543,4.0,1.0,part_1,,,,,,,,,,,,,orange,I
376.0,8.0,4.0,1.0,2.0,2.0,373.5473459819332,4.0,1.0,part_1,,,,,,,,,,,,,cyan,triangle
219.0,3.0,3.0,0.0,1.0,1.0,324.4309410220012,4.0,1.0,part_1,,,,,,,,,,,,,magenta,flipped triangle
0.0,6.0,0.0,1.0,2.0,2.0,294.4965630304068,4.0,1.0,part_1,,,,,,,,,,,,,orange,I
114.0,2.0,2.0,0.0,3.0,3.0,323.6833100672811,4.0,1.0,part_1,,,,,,,,,,,,,green,diamond
64.0,1.0,1.0,0.0,2.0,2.0,360.4578640079126,4.0,1.0,part_1,,,,,,,,,,,,,white,hexagon
376.0,8.0,4.0,1.0,2.0,2.0,326.0714870411902,4.0,1.0,part_1,,,,,,,,,,,,,cyan,triangle
410.0,8.0,4.0,1.0,1.0,1.0,363.9183979248628,4.0,1.0,part_1,,,,,,,,,,,,,cyan,triangle
0.0,2.0,0.0,0.0,1.0,1.0,327.5035399710759,4.0,1.0,part_1,,,,,,,,,,,,,green,diamond
105.0,6.0,2.0,1.0,4.0,4.0,389.7837590193376,4.0,1.0,part_1,,,,,,,,,,,,,orange,I
376.0,4.0,4.0,0.0,2.0,2.0,360.8344609383493,4.0,1.0,part_1,,,,,,,,,,,,,blue,cross
0.0,2.0,0.0,0.0,4.0,4.0,415.2244159486145,4.0,1.0,part_1,,,,,,,,,,,,,green,diamond
0.0,6.0,0.0,1.0,4.0,4.0,403.1365679111331,4.0,1.0,part_1,,,,,,,,,,,,,orange,I
399.0,8.0,4.0,1.0,4.0,4.0,341.8493169592693,4.0,1.0,part_1,,,,,,,,,,,,,cyan,triangle
183.0,7.0,3.0,1.0,1.0,1.0,370.6632669782266,4.0,1.0,part_1,,,,,,,,,,,,,gray,square
86.0,6.0,2.0,1.0,1.0,1.0,363.1485049845651,4.0,1.0,part_1,,,,,,,,,,,,,orange,I
0.0,1.0,0.0,0.0,3.0,3.0,308.4196770796552,4.0,1.0,part_1,,,,,,,,,,,,,white,hexagon
0.0,1.0,0.0,0.0,3.0,3.0,345.2199869789183,4.0,1.0,part_1,,,,,,,,,,,,,white,hexagon
0.0,5.0,0.0,1.0,1.0,1.0,321.3787450222298,4.0,1.0,part_1,,,,,,,,,,,,,yellow,circle
0.0,7.0,0.0,1.0,4.0,4.0,332.8858939930796,4.0,1.0,part_1,,,,,,,,,,,,,gray,square
0.0,7.0,0.0,1.0,4.0,4.0,328.6766550736502,4.0,1.0,part_1,,,,,,,,,,,,,gray,square
189.0,7.0,3.0,1.0,4.0,4.0,300.4792870488018,4.0,1.0,part_1,,,,,,,,,,,,,gray,square
35.0,5.0,1.0,1.0,4.0,4.0,344.0234989393502,4.0,1.0,part_1,,,,,,,,,,,,,yellow,circle
202.0,3.0,3.0,0.0,4.0,4.0,333.1231349147856,4.0,1.0,part_1,,,,,,,,,,,,,magenta,flipped triangle
86.0,2.0,2.0,0.0,4.0,4.0,331.6946229897439,4.0,1.0,part_1,,,,,,,,,,,,,green,diamond
191.0,7.0,3.0,1.0,3.0,3.0,308.7987139588222,4.0,2.0,part_1,,,,,,,,,,,,,gray,square
78.0,6.0,2.0,1.0,4.0,4.0,320.1574310660362,4.0,1.0,part_1,,,,,,,,,,,,,orange,I
0.0,4.0,0.0,0.0,4.0,4.0,348.7876950530335,4.0,1.0,part_1,,,,,,,,,,,,,blue,cross
97.0,2.0,2.0,0.0,3.0,3.0,468.6226850608364,4.0,1.0,part_1,,,,,,,,,,,,,green,diamond
0.0,3.0,0.0,0.0,3.0,3.0,325.544705032371,4.0,1.0,part_1,,,,,,,,,,,,,magenta,flipped triangle
73.0,1.0,1.0,0.0,2.0,2.0,390.1232810458168,4.0,1.0,part_1,,,,,,,,,,,,,white,hexagon
386.0,8.0,4.0,1.0,1.0,1.0,538.2906059967354,4.0,1.0,part_1,,,,,,,,,,,,,cyan,triangle
76.0,2.0,2.0,0.0,3.0,3.0,323.6077139154076,4.0,1.0,part_1,,,,,,,,,,,,,green,diamond
418.0,8.0,4.0,1.0,2.0,2.0,353.3419769955799,4.0,1.0,part_1,,,,,,,,,,,,,cyan,triangle
203.0,7.0,3.0,1.0,1.0,1.0,447.0778799150139,4.0,1.0,part_1,,,,,,,,,,,,,gray,square
0.0,4.0,0.0,0.0,4.0,4.0,362.0789250126108,4.0,1.0,part_1,,,,,,,,,,,,,blue,cross
398.0,8.0,4.0,1.0,2.0,2.0,342.1410429291427,4.0,1.0,part_1,,,,,,,,,,,,,cyan,triangle
34.0,1.0,1.0,0.0,3.0,3.0,308.0981150269508,4.0,1.0,part_1,,,,,,,,,,,,,white,hexagon
38.0,5.0,1.0,1.0,2.0,2.0,337.2911670012399,4.0,1.0,part_1,,,,,,,,,,,,,yellow,circle
224.0,3.0,3.0,0.0,1.0,1.0,391.140986001119,4.0,1.0,part_1,,,,,,,,,,,,,magenta,flipped triangle
102.0,6.0,2.0,1.0,4.0,4.0,537.185929948464,4.0,1.0,part_1,,,,,,,,,,,,,orange,I
197.0,7.0,3.0,1.0,2.0,2.0,406.5896680112928,4.0,1.0,part_1,,,,,,,,,,,,,gray,square
408.0,8.0,4.0,1.0,2.0,2.0,413.8252629199996,4.0,1.0,part_1,,,,,,,,,,,,,cyan,triangle
51.0,1.0,1.0,0.0,3.0,3.0,266.1632930394262,4.0,1.0,part_1,,,,,,,,,,,,,white,hexagon
0.0,8.0,4.0,1.0,5.0,5.0,781.3952290453017,1.0,0.0,part_2,stop,250.0,250.0,3.0,,,,,,,,,cyan,triangle
0.0,3.0,3.0,0.0,6.0,6.0,493.9122810028493,1.0,0.0,part_2,go,200.0,250.0,1.0,,,,,,,,,magenta,flipped triangle
0.0,7.0,3.0,1.0,6.0,0.0,0.0,1.0,0.0,part_2,stop,200.0,250.0,4.0,,,,,,,,,gray,square
0.0,2.0,2.0,0.0,6.0,6.0,556.6484569571912,1.0,0.0,part_2,go,200.0,300.0,1.0,,,,,,,,,green,diamond
0.0,1.0,1.0,0.0,6.0,6.0,860.0828970083967,1.0,0.0,part_2,go,200.0,300.0,1.0,,,,,,,,,white,hexagon
0.0,7.0,3.0,1.0,6.0,0.0,0.0,1.0,0.0,part_2,stop,200.0,300.0,4.0,,,,,,,,,gray,square
0.0,5.0,1.0,1.0,5.0,5.0,324.1570899263024,1.0,0.0,part_2,stop,200.0,350.0,3.0,,,,,,,,,yellow,circle
0.0,3.0,3.0,0.0,6.0,6.0,668.3244759915397,1.0,0.0,part_2,go,150.0,350.0,1.0,,,,,,,,,magenta,flipped triangle
0.0,7.0,3.0,1.0,5.0,0.0,0.0,1.0,0.0,part_2,stop,150.0,350.0,4.0,,,,,,,,,gray,square
0.0,8.0,4.0,1.0,5.0,0.0,0.0,1.0,0.0,part_2,stop,200.0,350.0,4.0,,,,,,,,,cyan,triangle
0.0,1.0,1.0,0.0,6.0,6.0,462.8988880431279,1.0,0.0,part_2,go,250.0,350.0,1.0,,,,,,,,,white,hexagon
0.0,7.0,3.0,1.0,6.0,0.0,0.0,1.0,0.0,part_2,stop,250.0,350.0,4.0,,,,,,,,,gray,square
0.0,1.0,1.0,0.0,5.0,5.0,1208.0801560077816,1.0,0.0,part_2,go,250.0,400.0,1.0,,,,,,,,,white,hexagon
0.0,2.0,2.0,0.0,5.0,5.0,901.3288880232722,1.0,0.0,part_2,go,250.0,400.0,1.0,,,,,,,,,green,diamond
0.0,8.0,4.0,1.0,5.0,0.0,0.0,1.0,0.0,part_2,stop,250.0,400.0,4.0,,,,,,,,,cyan,triangle
0.0,8.0,4.0,1.0,5.0,0.0,0.0,1.0,0.0,part_2,stop,300.0,400.0,4.0,,,,,,,,,cyan,triangle
0.0,7.0,3.0,1.0,5.0,0.0,0.0,1.0,0.0,part_2,stop,350.0,400.0,4.0,,,,,,,,,gray,square
0.0,3.0,3.0,0.0,5.0,5.0,587.5398860080168,1.0,0.0,part_2,go,400.0,400.0,1.0,,,,,,,,,magenta,flipped triangle
0.0,5.0,1.0,1.0,6.0,0.0,0.0,1.0,0.0,part_2,stop,400.0,400.0,4.0,,,,,,,,,yellow,circle
0.0,1.0,1.0,0.0,6.0,6.0,723.5738699091598,1.0,0.0,part_2,go,400.0,450.0,1.0,,,,,,,,,white,hexagon
0.0,8.0,4.0,1.0,6.0,0.0,0.0,1.0,0.0,part_2,go,400.0,450.0,5.0,,,,,,,,,cyan,triangle
0.0,3.0,3.0,0.0,6.0,6.0,1316.2481329636648,1.0,0.0,part_2,go,400.0,450.0,1.0,,,,,,,,,magenta,flipped triangle
0.0,4.0,4.0,0.0,6.0,6.0,827.4123000446707,1.0,0.0,part_2,go,400.0,450.0,1.0,,,,,,,,,blue,cross
0.0,8.0,4.0,1.0,5.0,0.0,0.0,1.0,0.0,part_2,stop,400.0,450.0,4.0,,,,,,,,,cyan,triangle
0.0,6.0,2.0,1.0,5.0,0.0,0.0,1.0,0.0,part_2,stop,450.0,450.0,4.0,,,,,,,,,orange,I
0.0,2.0,2.0,0.0,5.0,5.0,785.0809689844027,1.0,0.0,part_2,go,500.0,450.0,1.0,,,,,,,,,green,diamond
0.0,1.0,1.0,0.0,6.0,6.0,602.0633059088141,1.0,0.0,part_2,go,500.0,450.0,1.0,,,,,,,,,white,hexagon
0.0,2.0,2.0,0.0,5.0,5.0,353.7280689924955,1.0,0.0,part_2,go,500.0,450.0,1.0,,,,,,,,,green,diamond
0.0,5.0,1.0,1.0,5.0,5.0,689.2092740163207,1.0,0.0,part_2,go,500.0,450.0,1.0,,,,,,,,,yellow,circle
0.0,5.0,1.0,1.0,6.0,6.0,367.4872650299221,1.0,0.0,part_2,stop,500.0,450.0,3.0,,,,,,,,,yellow,circle
0.0,3.0,3.0,0.0,6.0,6.0,851.7209799028933,1.0,0.0,part_2,go,500.0,400.0,1.0,,,,,,,,,magenta,flipped triangle
0.0,8.0,4.0,1.0,5.0,5.0,827.8202050132677,1.0,0.0,part_2,go,500.0,400.0,1.0,,,,,,,,,cyan,triangle
0.0,6.0,2.0,1.0,5.0,0.0,0.0,1.0,0.0,part_2,stop,500.0,400.0,4.0,,,,,,,,,orange,I
0.0,1.0,1.0,0.0,5.0,5.0,1052.0297939656302,1.0,0.0,part_2,go,550.0,400.0,1.0,,,,,,,,,white,hexagon
0.0,6.0,2.0,1.0,6.0,0.0,0.0,1.0,0.0,part_2,stop,550.0,400.0,4.0,,,,,,,,,orange,I
0.0,5.0,1.0,1.0,5.0,5.0,596.8078160658479,1.0,0.0,part_2,stop,550.0,450.0,3.0,,,,,,,,,yellow,circle
0.0,5.0,1.0,1.0,5.0,5.0,810.3692550212145,2.0,0.0,part_2,go,500.0,450.0,1.0,,,,,,,,,yellow,circle
0.0,7.0,3.0,1.0,5.0,5.0,327.2356470115483,2.0,0.0,part_2,stop,500.0,450.0,3.0,,,,,,,,,gray,square
0.0,5.0,1.0,1.0,5.0,5.0,504.0582340443507,2.0,0.0,part_2,stop,450.0,450.0,3.0,,,,,,,,,yellow,circle
0.0,2.0,2.0,0.0,6.0,6.0,325.9439060930162,2.0,0.0,part_2,go,400.0,450.0,1.0,,,,,,,,,green,diamond
0.0,4.0,4.0,0.0,6.0,6.0,327.5161070050671,2.0,0.0,part_2,go,400.0,450.0,1.0,,,,,,,,,blue,cross
0.0,7.0,3.0,1.0,5.0,0.0,0.0,2.0,0.0,part_2,stop,400.0,450.0,4.0,,,,,,,,,gray,square
0.0,4.0,4.0,0.0,5.0,5.0,814.9078600108624,2.0,0.0,part_2,go,450.0,450.0,1.0,,,,,,,,,blue,cross
0.0,3.0,3.0,0.0,6.0,6.0,788.0934509448707,2.0,0.0,part_2,go,450.0,450.0,1.0,,,,,,,,,magenta,flipped triangle
0.0,6.0,2.0,1.0,6.0,0.0,0.0,2.0,0.0,part_2,stop,450.0,450.0,4.0,,,,,,,,,orange,I
0.0,8.0,4.0,1.0,5.0,0.0,0.0,2.0,0.0,part_2,stop,450.0,500.0,4.0,,,,,,,,,cyan,triangle
0.0,6.0,2.0,1.0,6.0,0.0,0.0,2.0,0.0,part_2,stop,500.0,500.0,4.0,,,,,,,,,orange,I
0.0,2.0,2.0,0.0,6.0,6.0,609.2168040340766,2.0,0.0,part_2,go,500.0,550.0,1.0,,,,,,,,,green,diamond
0.0,3.0,3.0,0.0,6.0,6.0,978.5149330273272,2.0,0.0,part_2,go,500.0,550.0,1.0,,,,,,,,,magenta,flipped triangle
0.0,3.0,3.0,0.0,5.0,5.0,487.8112650476396,2.0,0.0,part_2,go,500.0,550.0,1.0,,,,,,,,,magenta,flipped triangle
0.0,7.0,3.0,1.0,6.0,0.0,0.0,2.0,0.0,part_2,stop,500.0,550.0,4.0,,,,,,,,,gray,square
0.0,8.0,4.0,1.0,6.0,0.0,0.0,2.0,0.0,part_2,stop,500.0,600.0,4.0,,,,,,,,,cyan,triangle
0.0,1.0,1.0,0.0,5.0,5.0,847.9375540046021,2.0,0.0,part_2,go,500.0,650.0,1.0,,,,,,,,,white,hexagon
0.0,2.0,2.0,0.0,5.0,5.0,934.2611150350422,2.0,0.0,part_2,go,500.0,650.0,1.0,,,,,,,,,green,diamond
0.0,6.0,2.0,1.0,6.0,6.0,344.0303821116686,2.0,0.0,part_2,stop,500.0,650.0,3.0,,,,,,,,,orange,I
0.0,1.0,1.0,0.0,5.0,5.0,664.9369689403102,2.0,0.0,part_2,go,500.0,600.0,1.0,,,,,,,,,white,hexagon
0.0,4.0,4.0,0.0,5.0,5.0,484.4178380444646,2.0,0.0,part_2,go,500.0,600.0,1.0,,,,,,,,,blue,cross
0.0,8.0,4.0,1.0,6.0,6.0,654.597231070511,2.0,0.0,part_2,go,500.0,600.0,1.0,,,,,,,,,cyan,triangle
0.0,2.0,2.0,0.0,5.0,5.0,306.9469339679926,2.0,0.0,part_2,go,500.0,600.0,1.0,,,,,,,,,green,diamond
0.0,2.0,2.0,0.0,5.0,5.0,438.5079640196636,2.0,0.0,part_2,go,500.0,600.0,1.0,,,,,,,,,green,diamond
0.0,7.0,3.0,1.0,6.0,6.0,477.0894430112093,2.0,0.0,part_2,stop,500.0,600.0,3.0,,,,,,,,,gray,square
0.0,5.0,1.0,1.0,5.0,0.0,0.0,2.0,0.0,part_2,stop,500.0,550.0,4.0,,,,,,,,,yellow,circle
0.0,3.0,3.0,0.0,5.0,5.0,1009.0571549953893,2.0,0.0,part_2,go,550.0,550.0,1.0,,,,,,,,,magenta,flipped triangle
0.0,3.0,3.0,0.0,5.0,5.0,776.2981619453058,2.0,0.0,part_2,go,550.0,550.0,1.0,,,,,,,,,magenta,flipped triangle
0.0,1.0,1.0,0.0,5.0,5.0,895.6917590694502,2.0,0.0,part_2,go,550.0,550.0,1.0,,,,,,,,,white,hexagon
0.0,7.0,3.0,1.0,6.0,6.0,297.7570500224828,2.0,0.0,part_2,stop,550.0,550.0,3.0,,,,,,,,,gray,square
0.0,7.0,3.0,1.0,6.0,6.0,622.1932920161635,2.0,0.0,part_2,stop,550.0,500.0,3.0,,,,,,,,,gray,square
0.0,6.0,2.0,1.0,5.0,0.0,0.0,2.0,0.0,part_2,stop,550.0,450.0,4.0,,,,,,,,,orange,I
0.0,6.0,2.0,1.0,6.0,6.0,936.7899349890648,2.0,0.0,part_2,go,600.0,450.0,1.0,,,,,,,,,orange,I
0.0,4.0,4.0,0.0,5.0,5.0,437.2280100360513,2.0,0.0,part_2,go,600.0,450.0,1.0,,,,,,,,,blue,cross
0.0,6.0,2.0,1.0,5.0,0.0,0.0,2.0,0.0,part_2,stop,600.0,450.0,4.0,,,,,,,,,orange,I
0.0,3.0,3.0,0.0,6.0,6.0,743.6407969798893,2.0,0.0,part_2,go,650.0,450.0,1.0,,,,,,,,,magenta,flipped triangle
0.0,7.0,3.0,1.0,6.0,6.0,409.4141840469092,3.0,0.0,part_2,go,650.0,450.0,1.0,,,,,,,,,gray,square
0.0,2.0,2.0,0.0,5.0,5.0,316.9612559722736,3.0,0.0,part_2,go,650.0,450.0,1.0,,,,,,,,,green,diamond
0.0,4.0,4.0,0.0,5.0,5.0,340.5693840468302,3.0,0.0,part_2,go,650.0,450.0,1.0,,,,,,,,,blue,cross
0.0,2.0,2.0,0.0,5.0,5.0,694.9910159455612,3.0,0.0,part_2,go,650.0,450.0,1.0,,,,,,,,,green,diamond
0.0,4.0,4.0,0.0,6.0,6.0,431.5590650076046,3.0,0.0,part_2,go,650.0,450.0,1.0,,,,,,,,,blue,cross
0.0,5.0,1.0,1.0,5.0,5.0,612.5102130463347,3.0,0.0,part_2,stop,650.0,450.0,3.0,,,,,,,,,yellow,circle
0.0,1.0,1.0,0.0,6.0,6.0,283.9942519785836,3.0,0.0,part_2,go,600.0,450.0,1.0,,,,,,,,,white,hexagon
0.0,5.0,1.0,1.0,5.0,5.0,249.5826589874923,3.0,0.0,part_2,stop,600.0,450.0,3.0,,,,,,,,,yellow,circle
0.0,4.0,4.0,0.0,5.0,5.0,500.41121093090624,3.0,0.0,part_2,go,550.0,450.0,1.0,,,,,,,,,blue,cross
0.0,3.0,3.0,0.0,6.0,6.0,568.2368640555069,3.0,0.0,part_2,go,550.0,450.0,1.0,,,,,,,,,magenta,flipped triangle
0.0,4.0,4.0,0.0,6.0,6.0,539.9959259666502,3.0,0.0,part_2,go,550.0,450.0,1.0,,,,,,,,,blue,cross
0.0,4.0,4.0,0.0,5.0,5.0,650.1329870661721,3.0,0.0,part_2,go,550.0,450.0,1.0,,,,,,,,,blue,cross
0.0,4.0,4.0,0.0,6.0,6.0,233.4716579644009,3.0,0.0,part_2,go,550.0,450.0,1.0,,,,,,,,,blue,cross
0.0,6.0,2.0,1.0,5.0,5.0,426.4971630182117,3.0,0.0,part_2,stop,550.0,450.0,3.0,,,,,,,,,orange,I
0.0,1.0,1.0,0.0,6.0,6.0,271.9066480640322,3.0,0.0,part_2,go,500.0,450.0,1.0,,,,,,,,,white,hexagon
0.0,5.0,1.0,1.0,5.0,5.0,440.5760859372094,3.0,0.0,part_2,stop,500.0,450.0,3.0,,,,,,,,,yellow,circle
0.0,6.0,2.0,1.0,5.0,5.0,751.1897319927812,3.0,0.0,part_2,stop,450.0,450.0,3.0,,,,,,,,,orange,I
0.0,5.0,1.0,1.0,6.0,6.0,478.2335779163986,3.0,0.0,part_2,stop,400.0,450.0,3.0,,,,,,,,,yellow,circle
0.0,1.0,1.0,0.0,5.0,5.0,828.4586989320815,3.0,0.0,part_2,go,400.0,400.0,1.0,,,,,,,,,white,hexagon
0.0,5.0,1.0,1.0,6.0,0.0,0.0,3.0,0.0,part_2,stop,400.0,400.0,4.0,,,,,,,,,yellow,circle
0.0,6.0,2.0,1.0,5.0,0.0,0.0,3.0,0.0,part_2,stop,400.0,450.0,4.0,,,,,,,,,orange,I
0.0,7.0,3.0,1.0,5.0,5.0,307.4869239935651,3.0,0.0,part_2,stop,450.0,450.0,3.0,,,,,,,,,gray,square
0.0,4.0,4.0,0.0,5.0,5.0,884.9089100258425,3.0,0.0,part_2,go,400.0,450.0,1.0,,,,,,,,,blue,cross
0.0,6.0,2.0,1.0,6.0,0.0,0.0,3.0,0.0,part_2,stop,400.0,450.0,4.0,,,,,,,,,orange,I
0.0,1.0,1.0,0.0,6.0,6.0,1200.279445038177,3.0,0.0,part_2,go,400.0,500.0,1.0,,,,,,,,,white,hexagon
0.0,3.0,3.0,0.0,5.0,5.0,783.8389109820127,3.0,0.0,part_2,go,400.0,500.0,1.0,,,,,,,,,magenta,flipped triangle
0.0,3.0,3.0,0.0,5.0,5.0,559.2379589797929,3.0,0.0,part_2,go,400.0,500.0,1.0,,,,,,,,,magenta,flipped triangle
0.0,6.0,2.0,1.0,5.0,5.0,290.5920789344236,3.0,0.0,part_2,stop,400.0,500.0,3.0,,,,,,,,,orange,I
0.0,7.0,3.0,1.0,6.0,6.0,784.645625972189,3.0,0.0,part_2,go,350.0,500.0,1.0,,,,,,,,,gray,square
0.0,3.0,3.0,0.0,5.0,5.0,293.5017159907147,3.0,0.0,part_2,go,350.0,500.0,1.0,,,,,,,,,magenta,flipped triangle
0.0,3.0,3.0,0.0,6.0,6.0,336.0026139998808,3.0,0.0,part_2,go,350.0,500.0,1.0,,,,,,,,,magenta,flipped triangle
0.0,7.0,3.0,1.0,5.0,5.0,370.3672089613974,3.0,0.0,part_2,stop,350.0,500.0,3.0,,,,,,,,,gray,square
0.0,4.0,4.0,0.0,6.0,6.0,542.6040139282122,3.0,0.0,part_2,go,300.0,500.0,1.0,,,,,,,,,blue,cross
0.0,3.0,3.0,0.0,5.0,5.0,469.900369993411,3.0,0.0,part_2,go,300.0,500.0,1.0,,,,,,,,,magenta,flipped triangle
0.0,8.0,4.0,1.0,5.0,0.0,0.0,3.0,0.0,part_2,stop,300.0,500.0,4.0,,,,,,,,,cyan,triangle
0.0,5.0,1.0,1.0,6.0,6.0,555.330817005597,3.0,0.0,part_2,stop,350.0,500.0,3.0,,,,,,,,,yellow,circle
0.0,8.0,4.0,1.0,5.0,5.0,588.4328460088,4.0,0.0,part_2,stop,350.0,450.0,3.0,,,,,,,,,cyan,triangle
0.0,3.0,3.0,0.0,6.0,6.0,408.7992920540273,4.0,0.0,part_2,go,300.0,450.0,1.0,,,,,,,,,magenta,flipped triangle
0.0,6.0,2.0,1.0,5.0,5.0,281.1478419462219,4.0,0.0,part_2,stop,300.0,450.0,3.0,,,,,,,,,orange,I
0.0,5.0,1.0,1.0,5.0,0.0,0.0,4.0,0.0,part_2,stop,250.0,450.0,4.0,,,,,,,,,yellow,circle
0.0,3.0,3.0,0.0,6.0,6.0,552.516323979944,4.0,0.0,part_2,go,300.0,450.0,1.0,,,,,,,,,magenta,flipped triangle
0.0,7.0,3.0,1.0,6.0,6.0,477.7321410365402,4.0,0.0,part_2,go,300.0,450.0,1.0,,,,,,,,,gray,square
0.0,2.0,2.0,0.0,5.0,5.0,596.9850380206481,4.0,0.0,part_2,go,300.0,450.0,1.0,,,,,,,,,green,diamond
0.0,3.0,3.0,0.0,5.0,5.0,526.1647070292383,4.0,0.0,part_2,go,300.0,450.0,1.0,,,,,,,,,magenta,flipped triangle
0.0,4.0,4.0,0.0,6.0,6.0,286.8875779677182,4.0,0.0,part_2,go,300.0,450.0,1.0,,,,,,,,,blue,cross
0.0,1.0,1.0,0.0,6.0,6.0,363.7694009812549,4.0,0.0,part_2,go,300.0,450.0,1.0,,,,,,,,,white,hexagon
0.0,8.0,4.0,1.0,5.0,0.0,0.0,4.0,0.0,part_2,stop,300.0,450.0,4.0,,,,,,,,,cyan,triangle
0.0,7.0,3.0,1.0,6.0,6.0,418.2605179958045,4.0,0.0,part_2,stop,350.0,450.0,3.0,,,,,,,,,gray,square
0.0,1.0,1.0,0.0,5.0,5.0,474.9941891059279,4.0,0.0,part_2,go,350.0,400.0,1.0,,,,,,,,,white,hexagon
0.0,2.0,2.0,0.0,5.0,5.0,397.5621750578284,4.0,0.0,part_2,go,350.0,400.0,1.0,,,,,,,,,green,diamond
0.0,1.0,1.0,0.0,6.0,6.0,467.6519050262868,4.0,0.0,part_2,go,350.0,400.0,1.0,,,,,,,,,white,hexagon
0.0,2.0,2.0,0.0,5.0,5.0,584.7778699826449,4.0,0.0,part_2,go,350.0,400.0,1.0,,,,,,,,,green,diamond
0.0,1.0,1.0,0.0,6.0,6.0,658.1354819936678,4.0,0.0,part_2,go,350.0,400.0,1.0,,,,,,,,,white,hexagon
0.0,5.0,1.0,1.0,5.0,5.0,464.1795880161226,4.0,0.0,part_2,stop,350.0,400.0,3.0,,,,,,,,,yellow,circle
0.0,8.0,4.0,1.0,6.0,6.0,351.702686981298,4.0,0.0,part_2,go,300.0,400.0,1.0,,,,,,,,,cyan,triangle
0.0,2.0,2.0,0.0,6.0,6.0,273.7613349454477,4.0,0.0,part_2,go,300.0,400.0,1.0,,,,,,,,,green,diamond
0.0,5.0,1.0,1.0,6.0,0.0,0.0,4.0,0.0,part_2,stop,300.0,400.0,4.0,,,,,,,,,yellow,circle
0.0,4.0,4.0,0.0,6.0,6.0,725.8553890278563,4.0,0.0,part_2,go,300.0,450.0,1.0,,,,,,,,,blue,cross
0.0,4.0,4.0,0.0,5.0,5.0,548.9755250746384,4.0,0.0,part_2,go,300.0,450.0,1.0,,,,,,,,,blue,cross
0.0,5.0,1.0,1.0,6.0,6.0,606.685571023263,4.0,0.0,part_2,go,300.0,450.0,1.0,,,,,,,,,yellow,circle
0.0,2.0,2.0,0.0,5.0,6.0,285.2644879603758,4.0,0.0,part_2,go,300.0,450.0,2.0,,,,,,,,,green,diamond
0.0,5.0,1.0,1.0,6.0,6.0,349.8687160899862,4.0,0.0,part_2,stop,300.0,450.0,3.0,,,,,,,,,yellow,circle
0.0,4.0,4.0,0.0,5.0,5.0,517.1558059519157,4.0,0.0,part_2,go,300.0,400.0,1.0,,,,,,,,,blue,cross
0.0,8.0,4.0,1.0,6.0,6.0,346.3151989271864,4.0,0.0,part_2,stop,300.0,400.0,3.0,,,,,,,,,cyan,triangle
0.0,7.0,3.0,1.0,5.0,5.0,410.9864661004394,4.0,0.0,part_2,stop,300.0,350.0,3.0,,,,,,,,,gray,square
0.0,7.0,3.0,1.0,5.0,5.0,904.5313840033486,4.0,0.0,part_2,go,250.0,350.0,1.0,,,,,,,,,gray,square
0.0,3.0,3.0,0.0,5.0,5.0,698.6648140009493,4.0,0.0,part_2,go,250.0,350.0,1.0,,,,,,,,,magenta,flipped triangle
0.0,6.0,2.0,1.0,6.0,6.0,322.7157039800659,4.0,0.0,part_2,go,250.0,350.0,1.0,,,,,,,,,orange,I
0.0,7.0,3.0,1.0,5.0,0.0,0.0,4.0,0.0,part_2,stop,250.0,350.0,4.0,,,,,,,,,gray,square
0.0,5.0,1.0,1.0,5.0,5.0,542.3010329250246,4.0,0.0,part_2,stop,300.0,350.0,3.0,,,,,,,,,yellow,circle
0.0,8.0,4.0,1.0,6.0,0.0,0.0,4.0,0.0,part_2,stop,250.0,350.0,4.0,,,,,,,,,cyan,triangle
0.0,1.0,1.0,0.0,5.0,5.0,1037.4875940615311,4.0,0.0,part_2,go,250.0,400.0,1.0,,,,,,,,,white,hexagon
0.0,2.0,2.0,0.0,6.0,6.0,417.3068850068375,5.0,0.0,part_2,go,250.0,400.0,1.0,,,,,,,,,green,diamond
0.0,5.0,1.0,1.0,6.0,6.0,290.8194189658388,5.0,0.0,part_2,stop,250.0,400.0,3.0,,,,,,,,,yellow,circle
0.0,2.0,2.0,0.0,5.0,5.0,544.5096309995279,5.0,0.0,part_2,go,250.0,350.0,1.0,,,,,,,,,green,diamond
0.0,6.0,2.0,1.0,5.0,5.0,343.7350549502298,5.0,0.0,part_2,stop,250.0,350.0,3.0,,,,,,,,,orange,I
0.0,3.0,3.0,0.0,6.0,6.0,750.9772760095075,5.0,0.0,part_2,go,200.0,350.0,1.0,,,,,,,,,magenta,flipped triangle
0.0,7.0,3.0,1.0,5.0,0.0,0.0,5.0,0.0,part_2,stop,200.0,350.0,4.0,,,,,,,,,gray,square
0.0,4.0,4.0,0.0,5.0,5.0,663.8111179927364,5.0,0.0,part_2,go,250.0,350.0,1.0,,,,,,,,,blue,cross
0.0,2.0,2.0,0.0,6.0,6.0,608.329413109459,5.0,0.0,part_2,go,250.0,350.0,1.0,,,,,,,,,green,diamond
0.0,7.0,3.0,1.0,5.0,0.0,0.0,5.0,0.0,part_2,stop,250.0,350.0,4.0,,,,,,,,,gray,square
0.0,3.0,3.0,0.0,5.0,5.0,439.6853840444237,5.0,0.0,part_2,go,300.0,350.0,1.0,,,,,,,,,magenta,flipped triangle
0.0,8.0,4.0,1.0,6.0,6.0,295.0829020701349,5.0,0.0,part_2,stop,300.0,350.0,3.0,,,,,,,,,cyan,triangle
0.0,4.0,4.0,0.0,6.0,6.0,523.2708980329335,5.0,0.0,part_2,go,300.0,300.0,1.0,,,,,,,,,blue,cross
0.0,3.0,3.0,0.0,6.0,6.0,619.2201429512352,5.0,0.0,part_2,go,300.0,300.0,1.0,,,,,,,,,magenta,flipped triangle
0.0,2.0,2.0,0.0,6.0,6.0,572.5666820071638,5.0,0.0,part_2,go,300.0,300.0,1.0,,,,,,,,,green,diamond
0.0,2.0,2.0,0.0,5.0,5.0,1036.6714670090005,5.0,0.0,part_2,go,300.0,300.0,1.0,,,,,,,,,green,diamond
0.0,6.0,2.0,1.0,5.0,0.0,0.0,5.0,0.0,part_2,stop,300.0,300.0,4.0,,,,,,,,,orange,I
0.0,4.0,4.0,0.0,5.0,5.0,722.9325409280136,5.0,0.0,part_2,go,350.0,300.0,1.0,,,,,,,,,blue,cross
0.0,5.0,1.0,1.0,6.0,6.0,666.2012999877334,5.0,0.0,part_2,go,350.0,300.0,1.0,,,,,,,,,yellow,circle
0.0,3.0,3.0,0.0,6.0,6.0,634.0379470493644,5.0,0.0,part_2,go,350.0,300.0,1.0,,,,,,,,,magenta,flipped triangle
0.0,6.0,2.0,1.0,6.0,0.0,0.0,5.0,0.0,part_2,stop,350.0,300.0,4.0,,,,,,,,,orange,I
0.0,4.0,4.0,0.0,5.0,5.0,1025.6467870203778,5.0,0.0,part_2,go,350.0,350.0,1.0,,,,,,,,,blue,cross
0.0,8.0,4.0,1.0,6.0,0.0,0.0,5.0,0.0,part_2,stop,350.0,350.0,4.0,,,,,,,,,cyan,triangle
0.0,1.0,1.0,0.0,6.0,6.0,508.94712400622666,5.0,0.0,part_2,go,350.0,400.0,1.0,,,,,,,,,white,hexagon
0.0,4.0,4.0,0.0,6.0,6.0,597.9199500288814,5.0,0.0,part_2,go,350.0,400.0,1.0,,,,,,,,,blue,cross
0.0,6.0,2.0,1.0,5.0,0.0,0.0,5.0,0.0,part_2,stop,350.0,400.0,4.0,,,,,,,,,orange,I
0.0,7.0,3.0,1.0,6.0,6.0,566.4598370203748,5.0,0.0,part_2,go,400.0,400.0,1.0,,,,,,,,,gray,square
0.0,4.0,4.0,0.0,6.0,6.0,702.4116920074448,5.0,0.0,part_2,go,400.0,400.0,1.0,,,,,,,,,blue,cross
0.0,8.0,4.0,1.0,5.0,0.0,0.0,5.0,0.0,part_2,stop,400.0,400.0,4.0,,,,,,,,,cyan,triangle
0.0,5.0,1.0,1.0,6.0,6.0,458.4841729374602,5.0,0.0,part_2,stop,450.0,400.0,3.0,,,,,,,,,yellow,circle
0.0,6.0,2.0,1.0,6.0,0.0,0.0,5.0,0.0,part_2,stop,450.0,350.0,4.0,,,,,,,,,orange,I
0.0,6.0,2.0,1.0,5.0,5.0,748.4067929908633,5.0,0.0,part_2,go,450.0,400.0,1.0,,,,,,,,,orange,I
0.0,3.0,3.0,0.0,6.0,6.0,956.20897191111,5.0,0.0,part_2,go,450.0,400.0,1.0,,,,,,,,,magenta,flipped triangle
0.0,8.0,4.0,1.0,6.0,0.0,0.0,5.0,0.0,part_2,stop,450.0,400.0,4.0,,,,,,,,,cyan,triangle
0.0,1.0,1.0,0.0,5.0,5.0,770.7615790423006,5.0,0.0,part_2,go,450.0,450.0,1.0,,,,,,,,,white,hexagon
0.0,8.0,4.0,1.0,6.0,0.0,0.0,5.0,0.0,part_2,stop,450.0,450.0,4.0,,,,,,,,,cyan,triangle
0.0,5.0,1.0,1.0,5.0,5.0,710.3691499214619,5.0,0.0,part_2,stop,450.0,500.0,3.0,,,,,,,,,yellow,circle
0.0,5.0,1.0,1.0,5.0,5.0,506.54912111349404,6.0,0.0,part_2,go,400.0,500.0,1.0,,,,,,,,,yellow,circle
0.0,4.0,4.0,0.0,6.0,6.0,264.4063890911639,6.0,0.0,part_2,go,400.0,500.0,1.0,,,,,,,,,blue,cross
0.0,2.0,2.0,0.0,6.0,6.0,336.1113599967211,6.0,0.0,part_2,go,400.0,500.0,1.0,,,,,,,,,green,diamond
0.0,8.0,4.0,1.0,6.0,6.0,223.5617919359356,6.0,0.0,part_2,stop,400.0,500.0,3.0,,,,,,,,,cyan,triangle
0.0,2.0,2.0,0.0,6.0,6.0,286.1869420157745,6.0,0.0,part_2,go,400.0,450.0,1.0,,,,,,,,,green,diamond
0.0,8.0,4.0,1.0,5.0,5.0,232.7075980138033,6.0,0.0,part_2,stop,400.0,450.0,3.0,,,,,,,,,cyan,triangle
0.0,3.0,3.0,0.0,5.0,5.0,319.3886999506503,6.0,0.0,part_2,go,350.0,450.0,1.0,,,,,,,,,magenta,flipped triangle
0.0,8.0,4.0,1.0,5.0,5.0,344.1665710415691,6.0,0.0,part_2,stop,350.0,450.0,3.0,,,,,,,,,cyan,triangle
0.0,2.0,2.0,0.0,6.0,6.0,616.0622880561277,6.0,0.0,part_2,go,300.0,450.0,1.0,,,,,,,,,green,diamond
0.0,2.0,2.0,0.0,6.0,6.0,371.4979389915243,6.0,0.0,part_2,go,300.0,450.0,1.0,,,,,,,,,green,diamond
0.0,4.0,4.0,0.0,6.0,6.0,437.2968670213595,6.0,0.0,part_2,go,300.0,450.0,1.0,,,,,,,,,blue,cross
0.0,5.0,1.0,1.0,6.0,6.0,453.4262790111825,6.0,0.0,part_2,go,300.0,450.0,1.0,,,,,,,,,yellow,circle
0.0,1.0,1.0,0.0,6.0,6.0,284.4440260669216,6.0,0.0,part_2,go,300.0,450.0,1.0,,,,,,,,,white,hexagon
0.0,1.0,1.0,0.0,6.0,6.0,291.2441398948431,6.0,0.0,part_2,go,300.0,450.0,1.0,,,,,,,,,white,hexagon
0.0,4.0,4.0,0.0,6.0,6.0,418.045338941738,6.0,0.0,part_2,go,300.0,450.0,1.0,,,,,,,,,blue,cross
0.0,6.0,2.0,1.0,6.0,6.0,643.1350790662691,6.0,0.0,part_2,go,300.0,450.0,1.0,,,,,,,,,orange,I
0.0,5.0,1.0,1.0,5.0,0.0,0.0,6.0,0.0,part_2,stop,300.0,450.0,4.0,,,,,,,,,yellow,circle
0.0,8.0,4.0,1.0,6.0,6.0,330.4559900425374,6.0,0.0,part_2,stop,350.0,450.0,3.0,,,,,,,,,cyan,triangle
0.0,7.0,3.0,1.0,5.0,0.0,0.0,6.0,0.0,part_2,stop,350.0,400.0,4.0,,,,,,,,,gray,square
0.0,7.0,3.0,1.0,6.0,6.0,670.8728719968349,6.0,0.0,part_2,go,400.0,400.0,1.0,,,,,,,,,gray,square
0.0,8.0,4.0,1.0,5.0,5.0,521.0802669171244,6.0,0.0,part_2,go,400.0,400.0,1.0,,,,,,,,,cyan,triangle
0.0,2.0,2.0,0.0,5.0,5.0,464.953585062176,6.0,0.0,part_2,go,400.0,400.0,1.0,,,,,,,,,green,diamond
0.0,4.0,4.0,0.0,5.0,5.0,318.1863729842007,6.0,0.0,part_2,go,400.0,400.0,1.0,,,,,,,,,blue,cross
0.0,7.0,3.0,1.0,5.0,5.0,484.7668980946764,6.0,0.0,part_2,stop,400.0,400.0,3.0,,,,,,,,,gray,square
0.0,4.0,4.0,0.0,5.0,5.0,549.4410949759185,6.0,0.0,part_2,go,350.0,400.0,1.0,,,,,,,,,blue,cross
0.0,8.0,4.0,1.0,6.0,6.0,424.0928300423547,6.0,0.0,part_2,stop,350.0,400.0,3.0,,,,,,,,,cyan,triangle
0.0,2.0,2.0,0.0,6.0,6.0,364.5128980278969,6.0,0.0,part_2,go,350.0,350.0,1.0,,,,,,,,,green,diamond
0.0,6.0,2.0,1.0,6.0,6.0,517.3618940170854,6.0,0.0,part_2,stop,350.0,350.0,3.0,,,,,,,,,orange,I
0.0,2.0,2.0,0.0,5.0,5.0,251.78448506630951,6.0,0.0,part_2,go,350.0,300.0,1.0,,,,,,,,,green,diamond
0.0,4.0,4.0,0.0,5.0,5.0,337.3763430863619,6.0,0.0,part_2,go,350.0,300.0,1.0,,,,,,,,,blue,cross
0.0,2.0,2.0,0.0,6.0,6.0,279.9772439757362,6.0,0.0,part_2,go,350.0,300.0,1.0,,,,,,,,,green,diamond
0.0,3.0,3.0,0.0,6.0,6.0,279.7944740159437,6.0,0.0,part_2,go,350.0,300.0,1.0,,,,,,,,,magenta,flipped triangle
0.0,1.0,1.0,0.0,5.0,5.0,282.4189439415931,6.0,0.0,part_2,go,350.0,300.0,1.0,,,,,,,,,white,hexagon
0.0,6.0,2.0,1.0,6.0,6.0,273.9257869543507,6.0,0.0,part_2,stop,350.0,300.0,3.0,,,,,,,,,orange,I
0.0,1.0,1.0,0.0,5.0,5.0,248.4441619599238,6.0,0.0,part_2,go,350.0,250.0,1.0,,,,,,,,,white,hexagon
0.0,7.0,3.0,1.0,5.0,5.0,341.98441891931,6.0,0.0,part_2,stop,350.0,250.0,3.0,,,,,,,,,gray,square
0.0,5.0,1.0,1.0,6.0,0.0,0.0,7.0,0.0,part_2,stop,300.0,250.0,4.0,,,,,,,,,yellow,circle
0.0,1.0,1.0,0.0,6.0,6.0,554.2244329117239,7.0,0.0,part_2,go,300.0,300.0,1.0,,,,,,,,,white,hexagon
0.0,8.0,4.0,1.0,6.0,6.0,578.3544069854543,7.0,0.0,part_2,go,300.0,300.0,1.0,,,,,,,,,cyan,triangle
0.0,5.0,1.0,1.0,6.0,6.0,276.6261469805613,7.0,0.0,part_2,go,300.0,300.0,1.0,,,,,,,,,yellow,circle
0.0,6.0,2.0,1.0,6.0,6.0,319.1074080532416,7.0,0.0,part_2,stop,300.0,300.0,3.0,,,,,,,,,orange,I
0.0,2.0,2.0,0.0,6.0,6.0,714.0837439801544,7.0,0.0,part_2,go,300.0,250.0,1.0,,,,,,,,,green,diamond
0.0,5.0,1.0,1.0,6.0,6.0,617.6495300605893,7.0,0.0,part_2,go,300.0,250.0,1.0,,,,,,,,,yellow,circle
0.0,3.0,3.0,0.0,5.0,5.0,607.5981030007824,7.0,0.0,part_2,go,300.0,250.0,1.0,,,,,,,,,magenta,flipped triangle
0.0,1.0,1.0,0.0,5.0,5.0,694.9189719744027,7.0,0.0,part_2,go,300.0,250.0,1.0,,,,,,,,,white,hexagon
0.0,5.0,1.0,1.0,5.0,5.0,321.7948050005361,7.0,0.0,part_2,stop,300.0,250.0,3.0,,,,,,,,,yellow,circle
0.0,1.0,1.0,0.0,5.0,5.0,415.5588879948482,7.0,0.0,part_2,go,250.0,250.0,1.0,,,,,,,,,white,hexagon
0.0,1.0,1.0,0.0,6.0,6.0,573.5402930295095,7.0,0.0,part_2,go,250.0,250.0,1.0,,,,,,,,,white,hexagon
0.0,4.0,4.0,0.0,6.0,6.0,500.6486610509455,7.0,0.0,part_2,go,250.0,250.0,1.0,,,,,,,,,blue,cross
0.0,1.0,1.0,0.0,5.0,5.0,774.0312879905105,7.0,0.0,part_2,go,250.0,250.0,1.0,,,,,,,,,white,hexagon
0.0,4.0,4.0,0.0,5.0,5.0,411.1681339563802,7.0,0.0,part_2,go,250.0,250.0,1.0,,,,,,,,,blue,cross
0.0,4.0,4.0,0.0,6.0,6.0,308.940576040186,7.0,0.0,part_2,go,250.0,250.0,1.0,,,,,,,,,blue,cross
0.0,8.0,4.0,1.0,6.0,0.0,0.0,7.0,0.0,part_2,stop,250.0,250.0,4.0,,,,,,,,,cyan,triangle
0.0,7.0,3.0,1.0,6.0,6.0,373.5740440897643,7.0,0.0,part_2,stop,250.0,300.0,3.0,,,,,,,,,gray,square
0.0,8.0,4.0,1.0,6.0,0.0,0.0,7.0,0.0,part_2,stop,250.0,250.0,4.0,,,,,,,,,cyan,triangle
0.0,3.0,3.0,0.0,6.0,6.0,592.4078450771049,7.0,0.0,part_2,go,250.0,300.0,1.0,,,,,,,,,magenta,flipped triangle
0.0,6.0,2.0,1.0,6.0,6.0,659.6142259659246,7.0,0.0,part_2,go,250.0,300.0,1.0,,,,,,,,,orange,I
0.0,1.0,1.0,0.0,5.0,5.0,626.6188999870792,7.0,0.0,part_2,go,250.0,300.0,1.0,,,,,,,,,white,hexagon
0.0,7.0,3.0,1.0,6.0,6.0,346.3669759221375,7.0,0.0,part_2,stop,250.0,300.0,3.0,,,,,,,,,gray,square
0.0,6.0,2.0,1.0,6.0,6.0,682.517473003827,7.0,0.0,part_2,stop,250.0,250.0,3.0,,,,,,,,,orange,I
0.0,4.0,4.0,0.0,5.0,5.0,429.7469230368733,7.0,0.0,part_2,go,250.0,200.0,1.0,,,,,,,,,blue,cross
0.0,6.0,2.0,1.0,5.0,5.0,599.7378210304305,7.0,0.0,part_2,go,250.0,200.0,1.0,,,,,,,,,orange,I
0.0,6.0,2.0,1.0,6.0,6.0,621.1706170579419,7.0,0.0,part_2,go,250.0,200.0,1.0,,,,,,,,,orange,I
0.0,5.0,1.0,1.0,5.0,0.0,0.0,7.0,0.0,part_2,stop,250.0,200.0,4.0,,,,,,,,,yellow,circle
0.0,3.0,3.0,0.0,6.0,6.0,671.4066489366814,7.0,0.0,part_2,go,300.0,200.0,1.0,,,,,,,,,magenta,flipped triangle
0.0,4.0,4.0,0.0,6.0,6.0,662.0015809312463,7.0,0.0,part_2,go,300.0,200.0,1.0,,,,,,,,,blue,cross
0.0,8.0,4.0,1.0,5.0,5.0,298.513778951019,7.0,0.0,part_2,stop,300.0,200.0,3.0,,,,,,,,,cyan,triangle
0.0,2.0,2.0,0.0,6.0,6.0,722.420078003779,7.0,0.0,part_2,go,250.0,200.0,1.0,,,,,,,,,green,diamond
0.0,7.0,3.0,1.0,6.0,0.0,0.0,7.0,0.0,part_2,stop,250.0,200.0,4.0,,,,,,,,,gray,square
0.0,1.0,1.0,0.0,6.0,6.0,548.2119659427553,7.0,0.0,part_2,go,250.0,250.0,1.0,,,,,,,,,white,hexagon
0.0,4.0,4.0,0.0,6.0,6.0,522.8140470571816,7.0,0.0,part_2,go,250.0,250.0,1.0,,,,,,,,,blue,cross
0.0,3.0,3.0,0.0,5.0,5.0,779.1551289847121,7.0,0.0,part_2,go,250.0,250.0,1.0,,,,,,,,,magenta,flipped triangle
0.0,2.0,2.0,0.0,5.0,1.0,618.244262994267,8.0,0.0,part_2,go,250.0,250.0,2.0,,,,,,,,,green,diamond
0.0,7.0,3.0,1.0,5.0,5.0,470.4990190220997,8.0,0.0,part_2,go,250.0,250.0,1.0,,,,,,,,,gray,square
0.0,1.0,1.0,0.0,5.0,5.0,301.2873169500381,8.0,0.0,part_2,go,250.0,250.0,1.0,,,,,,,,,white,hexagon
0.0,2.0,2.0,0.0,6.0,6.0,260.4842250002548,8.0,0.0,part_2,go,250.0,250.0,1.0,,,,,,,,,green,diamond
0.0,6.0,2.0,1.0,5.0,5.0,275.4357879748568,8.0,0.0,part_2,stop,250.0,250.0,3.0,,,,,,,,,orange,I
0.0,6.0,2.0,1.0,6.0,6.0,381.2777990242466,8.0,0.0,part_2,stop,200.0,250.0,3.0,,,,,,,,,orange,I
0.0,3.0,3.0,0.0,5.0,5.0,654.5782519970089,8.0,0.0,part_2,go,200.0,200.0,1.0,,,,,,,,,magenta,flipped triangle
0.0,2.0,2.0,0.0,6.0,6.0,586.6536980029196,8.0,0.0,part_2,go,200.0,200.0,1.0,,,,,,,,,green,diamond
0.0,7.0,3.0,1.0,5.0,0.0,0.0,8.0,0.0,part_2,stop,200.0,200.0,4.0,,,,,,,,,gray,square
0.0,5.0,1.0,1.0,6.0,6.0,604.4513719389215,8.0,0.0,part_2,go,250.0,200.0,1.0,,,,,,,,,yellow,circle
0.0,3.0,3.0,0.0,5.0,5.0,641.6510320268571,8.0,0.0,part_2,go,250.0,200.0,1.0,,,,,,,,,magenta,flipped triangle
0.0,2.0,2.0,0.0,5.0,5.0,592.1105479355901,8.0,0.0,part_2,go,250.0,200.0,1.0,,,,,,,,,green,diamond
0.0,7.0,3.0,1.0,5.0,5.0,314.399590017274,8.0,0.0,part_2,stop,250.0,200.0,3.0,,,,,,,,,gray,square
0.0,7.0,3.0,1.0,5.0,5.0,632.9272609436885,8.0,0.0,part_2,go,200.0,200.0,1.0,,,,,,,,,gray,square
0.0,8.0,4.0,1.0,6.0,6.0,354.5090779662132,8.0,0.0,part_2,go,200.0,200.0,1.0,,,,,,,,,cyan,triangle
0.0,8.0,4.0,1.0,5.0,0.0,0.0,8.0,0.0,part_2,stop,200.0,200.0,4.0,,,,,,,,,cyan,triangle
0.0,1.0,1.0,0.0,5.0,5.0,662.1931130066514,8.0,0.0,part_2,go,250.0,200.0,1.0,,,,,,,,,white,hexagon
0.0,3.0,3.0,0.0,5.0,5.0,573.1709450483322,8.0,0.0,part_2,go,250.0,200.0,1.0,,,,,,,,,magenta,flipped triangle
0.0,1.0,1.0,0.0,6.0,6.0,468.1810629554093,8.0,0.0,part_2,go,250.0,200.0,1.0,,,,,,,,,white,hexagon
0.0,5.0,1.0,1.0,5.0,0.0,0.0,8.0,0.0,part_2,stop,250.0,200.0,4.0,,,,,,,,,yellow,circle
0.0,8.0,4.0,1.0,5.0,5.0,651.8860679352656,8.0,0.0,part_2,go,300.0,200.0,1.0,,,,,,,,,cyan,triangle
0.0,4.0,4.0,0.0,5.0,5.0,619.4403669796884,8.0,0.0,part_2,go,300.0,200.0,1.0,,,,,,,,,blue,cross
0.0,3.0,3.0,0.0,5.0,5.0,387.4489370500669,8.0,0.0,part_2,go,300.0,200.0,1.0,,,,,,,,,magenta,flipped triangle
0.0,8.0,4.0,1.0,6.0,6.0,578.0259179882705,8.0,0.0,part_2,go,300.0,200.0,1.0,,,,,,,,,cyan,triangle
0.0,6.0,2.0,1.0,5.0,5.0,652.7116819052026,8.0,0.0,part_2,stop,300.0,200.0,3.0,,,,,,,,,orange,I
0.0,1.0,1.0,0.0,5.0,5.0,730.7899870211259,8.0,0.0,part_2,go,250.0,200.0,1.0,,,,,,,,,white,hexagon
0.0,8.0,4.0,1.0,5.0,0.0,0.0,8.0,0.0,part_2,stop,250.0,200.0,4.0,,,,,,,,,cyan,triangle
0.0,5.0,1.0,1.0,6.0,0.0,0.0,8.0,0.0,part_2,stop,300.0,200.0,4.0,,,,,,,,,yellow,circle
0.0,6.0,2.0,1.0,5.0,0.0,0.0,8.0,0.0,part_2,stop,300.0,250.0,4.0,,,,,,,,,orange,I
0.0,2.0,2.0,0.0,6.0,6.0,350.5396110704168,8.0,0.0,part_2,go,350.0,250.0,1.0,,,,,,,,,green,diamond
0.0,6.0,2.0,1.0,5.0,5.0,280.7935620658099,8.0,0.0,part_2,go,350.0,250.0,1.0,,,,,,,,,orange,I
0.0,6.0,2.0,1.0,6.0,6.0,232.4311970733106,8.0,0.0,part_2,go,350.0,250.0,1.0,,,,,,,,,orange,I
0.0,1.0,1.0,0.0,6.0,6.0,629.5445580035448,8.0,0.0,part_2,go,350.0,250.0,1.0,,,,,,,,,white,hexagon
0.0,7.0,3.0,1.0,6.0,6.0,365.9038000041619,8.0,0.0,part_2,go,350.0,250.0,1.0,,,,,,,,,gray,square
0.0,5.0,1.0,1.0,6.0,0.0,0.0,8.0,0.0,part_2,stop,350.0,250.0,4.0,,,,,,,,,yellow,circle
0.0,7.0,3.0,1.0,6.0,6.0,492.9880290292203,8.0,0.0,part_2,stop,350.0,300.0,3.0,,,,,,,,,gray,square
0.0,7.0,3.0,1.0,7.0,2.0,2533.98589103017,1.0,1.0,part_3,go,0.0,0.0,0.0,49.0,1.0,294.0,49.0,147.0,245.0,196.0,98.0,gray,square
0.0,6.0,2.0,1.0,7.0,3.0,2850.5903899203986,1.0,1.0,part_3,go,0.0,0.0,0.0,176.0,4.0,132.0,264.0,176.0,88.0,220.0,44.0,orange,I
0.0,6.0,2.0,1.0,7.0,5.0,4114.9106689263135,1.0,1.0,part_3,go,0.0,0.0,0.0,156.0,4.0,117.0,195.0,78.0,234.0,156.0,39.0,orange,I
0.0,1.0,1.0,0.0,7.0,6.0,3429.7274289419875,1.0,1.0,part_3,go,0.0,0.0,0.0,147.0,3.0,98.0,196.0,49.0,245.0,294.0,147.0,white,hexagon
0.0,3.0,3.0,0.0,7.0,2.0,2383.3979280898347,1.0,1.0,part_3,go,0.0,0.0,0.0,294.0,6.0,245.0,294.0,49.0,196.0,98.0,147.0,magenta,flipped triangle
0.0,5.0,1.0,1.0,7.0,5.0,2558.5062849568203,1.0,1.0,part_3,go,0.0,0.0,0.0,68.0,2.0,204.0,136.0,170.0,34.0,68.0,102.0,yellow,circle
0.0,4.0,4.0,0.0,7.0,1.0,2711.4012939855456,1.0,1.0,part_3,go,0.0,0.0,0.0,234.0,6.0,234.0,156.0,195.0,39.0,78.0,117.0,blue,cross
0.0,3.0,3.0,0.0,7.0,3.0,3498.446832993068,1.0,1.0,part_3,go,0.0,0.0,0.0,117.0,3.0,234.0,156.0,117.0,78.0,39.0,195.0,magenta,flipped triangle
0.0,8.0,4.0,1.0,7.0,6.0,2804.847638006322,1.0,1.0,part_3,go,0.0,0.0,0.0,245.0,5.0,294.0,147.0,98.0,196.0,49.0,245.0,cyan,triangle
0.0,7.0,3.0,1.0,7.0,1.0,3933.133863960393,1.0,1.0,part_3,go,0.0,0.0,0.0,102.0,3.0,102.0,34.0,68.0,170.0,136.0,204.0,gray,square
0.0,6.0,2.0,1.0,7.0,2.0,4111.996426945552,1.0,1.0,part_3,go,0.0,0.0,0.0,170.0,5.0,102.0,170.0,68.0,34.0,204.0,136.0,orange,I
0.0,8.0,4.0,1.0,7.0,2.0,2930.2098259795457,1.0,2.0,part_3,go,0.0,0.0,0.0,102.0,3.0,170.0,102.0,34.0,68.0,136.0,204.0,cyan,triangle
0.0,7.0,3.0,1.0,7.0,1.0,3002.1594329737127,1.0,1.0,part_3,go,0.0,0.0,0.0,98.0,2.0,98.0,147.0,245.0,49.0,294.0,196.0,gray,square
0.0,1.0,1.0,0.0,7.0,1.0,3462.3255339683965,1.0,1.0,part_3,go,0.0,0.0,0.0,204.0,6.0,204.0,170.0,136.0,68.0,102.0,34.0,white,hexagon
0.0,8.0,4.0,1.0,7.0,4.0,2557.3979220353067,1.0,1.0,part_3,go,0.0,0.0,0.0,108.0,2.0,324.0,54.0,162.0,108.0,270.0,216.0,cyan,triangle
0.0,8.0,4.0,1.0,7.0,5.0,3424.2450069868937,1.0,1.0,part_3,go,0.0,0.0,0.0,147.0,3.0,196.0,245.0,294.0,98.0,147.0,49.0,cyan,triangle
0.0,4.0,4.0,0.0,7.0,2.0,1632.4035909492522,1.0,1.0,part_3,go,0.0,0.0,0.0,264.0,6.0,44.0,264.0,88.0,220.0,176.0,132.0,blue,cross
0.0,1.0,1.0,0.0,7.0,5.0,1628.8380849873647,1.0,1.0,part_3,go,0.0,0.0,0.0,162.0,3.0,216.0,270.0,108.0,324.0,162.0,54.0,white,hexagon
0.0,5.0,1.0,1.0,7.0,6.0,1549.5526780141518,1.0,1.0,part_3,go,0.0,0.0,0.0,54.0,1.0,270.0,108.0,324.0,162.0,216.0,54.0,yellow,circle
0.0,6.0,2.0,1.0,7.0,2.0,2252.2096490720287,1.0,1.0,part_3,go,0.0,0.0,0.0,102.0,3.0,170.0,102.0,34.0,204.0,136.0,68.0,orange,I
0.0,8.0,4.0,1.0,7.0,2.0,1259.722875081934,2.0,1.0,part_3,go,0.0,0.0,0.0,176.0,4.0,264.0,176.0,220.0,88.0,44.0,132.0,cyan,triangle
0.0,6.0,2.0,1.0,7.0,2.0,2034.3247919809073,2.0,1.0,part_3,go,0.0,0.0,0.0,196.0,4.0,245.0,196.0,98.0,147.0,49.0,294.0,orange,I
0.0,2.0,2.0,0.0,7.0,6.0,2155.5253190454096,2.0,1.0,part_3,go,0.0,0.0,0.0,220.0,5.0,88.0,44.0,264.0,132.0,176.0,220.0,green,diamond
0.0,7.0,3.0,1.0,7.0,4.0,1806.726285954937,2.0,1.0,part_3,go,0.0,0.0,0.0,78.0,2.0,117.0,195.0,156.0,78.0,39.0,234.0,gray,square
0.0,1.0,1.0,0.0,7.0,1.0,2974.1722519975156,2.0,1.0,part_3,go,0.0,0.0,0.0,195.0,5.0,195.0,39.0,156.0,78.0,117.0,234.0,white,hexagon
0.0,2.0,2.0,0.0,7.0,2.0,1841.7667280882597,2.0,1.0,part_3,go,0.0,0.0,0.0,204.0,6.0,170.0,204.0,34.0,102.0,68.0,136.0,green,diamond
0.0,4.0,4.0,0.0,7.0,2.0,1552.344502066262,2.0,1.0,part_3,go,0.0,0.0,0.0,108.0,2.0,162.0,108.0,270.0,54.0,216.0,324.0,blue,cross
0.0,1.0,1.0,0.0,7.0,6.0,3084.0497149620205,2.0,1.0,part_3,go,0.0,0.0,0.0,220.0,5.0,264.0,44.0,176.0,132.0,88.0,220.0,white,hexagon
0.0,2.0,2.0,0.0,7.0,2.0,1707.7822269639,2.0,1.0,part_3,go,0.0,0.0,0.0,117.0,3.0,234.0,117.0,195.0,78.0,39.0,156.0,green,diamond
0.0,2.0,2.0,0.0,7.0,5.0,1798.2522319070997,2.0,1.0,part_3,go,0.0,0.0,0.0,147.0,3.0,294.0,196.0,98.0,245.0,147.0,49.0,green,diamond
0.0,4.0,4.0,0.0,7.0,4.0,1646.7477220576257,2.0,1.0,part_3,go,0.0,0.0,0.0,234.0,6.0,117.0,39.0,195.0,234.0,78.0,156.0,blue,cross
0.0,3.0,3.0,0.0,7.0,1.0,2218.808404984884,2.0,1.0,part_3,go,0.0,0.0,0.0,88.0,2.0,88.0,264.0,44.0,132.0,220.0,176.0,magenta,flipped triangle
0.0,5.0,1.0,1.0,7.0,5.0,1568.3803950669244,2.0,1.0,part_3,go,0.0,0.0,0.0,132.0,3.0,88.0,44.0,220.0,264.0,132.0,176.0,yellow,circle
0.0,8.0,4.0,1.0,7.0,6.0,1717.0708799967542,2.0,1.0,part_3,go,0.0,0.0,0.0,156.0,4.0,78.0,39.0,234.0,117.0,195.0,156.0,cyan,triangle
0.0,1.0,1.0,0.0,7.0,5.0,2143.017961992882,2.0,1.0,part_3,go,0.0,0.0,0.0,216.0,4.0,54.0,108.0,162.0,324.0,216.0,270.0,white,hexagon
0.0,5.0,1.0,1.0,7.0,3.0,1997.5778220687064,2.0,1.0,part_3,go,0.0,0.0,0.0,39.0,1.0,78.0,117.0,39.0,156.0,195.0,234.0,yellow,circle
0.0,3.0,3.0,0.0,7.0,2.0,2477.909327019006,2.0,1.0,part_3,go,0.0,0.0,0.0,324.0,6.0,108.0,324.0,162.0,54.0,270.0,216.0,magenta,flipped triangle
0.0,6.0,2.0,1.0,7.0,3.0,2721.6265470487997,2.0,1.0,part_3,go,0.0,0.0,0.0,176.0,4.0,264.0,220.0,176.0,44.0,132.0,88.0,orange,I
0.0,4.0,4.0,0.0,7.0,6.0,1818.5952949570492,2.0,1.0,part_3,go,0.0,0.0,0.0,245.0,5.0,294.0,147.0,196.0,49.0,98.0,245.0,blue,cross
0.0,5.0,1.0,1.0,7.0,4.0,2843.134323018603,2.0,1.0,part_3,go,0.0,0.0,0.0,78.0,2.0,234.0,117.0,195.0,78.0,39.0,156.0,yellow,circle
0.0,1.0,1.0,0.0,7.0,4.0,1349.7141019906849,3.0,1.0,part_3,go,0.0,0.0,0.0,234.0,6.0,195.0,117.0,39.0,234.0,78.0,156.0,white,hexagon
0.0,7.0,3.0,1.0,7.0,1.0,2527.8951739892364,3.0,1.0,part_3,go,0.0,0.0,0.0,88.0,2.0,88.0,264.0,176.0,44.0,220.0,132.0,gray,square
0.0,5.0,1.0,1.0,7.0,4.0,1534.7791410749778,3.0,1.0,part_3,go,0.0,0.0,0.0,98.0,2.0,49.0,147.0,294.0,98.0,196.0,245.0,yellow,circle
0.0,7.0,3.0,1.0,7.0,5.0,1416.9939260464162,3.0,1.0,part_3,go,0.0,0.0,0.0,54.0,1.0,216.0,324.0,108.0,162.0,54.0,270.0,gray,square
0.0,3.0,3.0,0.0,7.0,2.0,1345.4021411016583,3.0,1.0,part_3,go,0.0,0.0,0.0,170.0,5.0,68.0,170.0,136.0,102.0,34.0,204.0,magenta,flipped triangle
0.0,2.0,2.0,0.0,7.0,6.0,1474.7599030379206,3.0,1.0,part_3,go,0.0,0.0,0.0,245.0,5.0,98.0,196.0,294.0,147.0,49.0,245.0,green,diamond
0.0,7.0,3.0,1.0,7.0,5.0,1375.156500027515,3.0,1.0,part_3,go,0.0,0.0,0.0,88.0,2.0,132.0,220.0,264.0,176.0,88.0,44.0,gray,square
0.0,6.0,2.0,1.0,7.0,3.0,1351.0970599018035,3.0,1.0,part_3,go,0.0,0.0,0.0,117.0,3.0,78.0,39.0,117.0,195.0,156.0,234.0,orange,I
0.0,6.0,2.0,1.0,7.0,2.0,1418.288425076753,3.0,1.0,part_3,go,0.0,0.0,0.0,162.0,3.0,54.0,162.0,216.0,324.0,108.0,270.0,orange,I
0.0,1.0,1.0,0.0,7.0,5.0,2193.517315085046,3.0,1.0,part_3,go,0.0,0.0,0.0,49.0,1.0,294.0,98.0,147.0,196.0,49.0,245.0,white,hexagon
0.0,5.0,1.0,1.0,7.0,3.0,1917.10179799702,3.0,1.0,part_3,go,0.0,0.0,0.0,68.0,2.0,34.0,204.0,68.0,102.0,170.0,136.0,yellow,circle
0.0,3.0,3.0,0.0,7.0,4.0,1700.862369034439,3.0,1.0,part_3,go,0.0,0.0,0.0,176.0,4.0,44.0,88.0,220.0,176.0,264.0,132.0,magenta,flipped triangle
0.0,8.0,4.0,1.0,7.0,2.0,2039.5464790053666,3.0,1.0,part_3,go,0.0,0.0,0.0,108.0,2.0,54.0,108.0,270.0,162.0,216.0,324.0,cyan,triangle
0.0,7.0,3.0,1.0,7.0,1.0,2132.923918077722,3.0,1.0,part_3,go,0.0,0.0,0.0,68.0,2.0,68.0,102.0,170.0,136.0,34.0,204.0,gray,square
0.0,8.0,4.0,1.0,7.0,4.0,1511.254459968768,3.0,1.0,part_3,go,0.0,0.0,0.0,136.0,4.0,204.0,68.0,34.0,136.0,170.0,102.0,cyan,triangle
0.0,2.0,2.0,0.0,7.0,4.0,1394.207871053368,3.0,1.0,part_3,go,0.0,0.0,0.0,170.0,5.0,68.0,102.0,204.0,170.0,34.0,136.0,green,diamond
0.0,3.0,3.0,0.0,7.0,6.0,2290.447726030834,3.0,1.0,part_3,go,0.0,0.0,0.0,156.0,4.0,195.0,78.0,234.0,117.0,39.0,156.0,magenta,flipped triangle
0.0,8.0,4.0,1.0,7.0,6.0,2820.47474803403,3.0,1.0,part_3,go,0.0,0.0,0.0,132.0,3.0,88.0,264.0,220.0,176.0,44.0,132.0,cyan,triangle
0.0,5.0,1.0,1.0,7.0,5.0,1565.3732010396195,3.0,1.0,part_3,go,0.0,0.0,0.0,54.0,1.0,216.0,270.0,324.0,108.0,54.0,162.0,yellow,circle
0.0,4.0,4.0,0.0,7.0,6.0,1655.3406659513712,3.0,1.0,part_3,go,0.0,0.0,0.0,294.0,6.0,147.0,196.0,98.0,245.0,49.0,294.0,blue,cross
0.0,2.0,2.0,0.0,7.0,5.0,1615.1081260759383,4.0,1.0,part_3,go,0.0,0.0,0.0,54.0,1.0,108.0,324.0,270.0,162.0,54.0,216.0,green,diamond
0.0,3.0,3.0,0.0,7.0,4.0,1768.5555890202522,4.0,1.0,part_3,go,0.0,0.0,0.0,196.0,4.0,294.0,245.0,49.0,196.0,147.0,98.0,magenta,flipped triangle
0.0,2.0,2.0,0.0,7.0,2.0,1792.0222299871966,4.0,1.0,part_3,go,0.0,0.0,0.0,108.0,2.0,270.0,108.0,216.0,54.0,324.0,162.0,green,diamond
0.0,2.0,2.0,0.0,7.0,5.0,2323.447625967674,4.0,1.0,part_3,go,0.0,0.0,0.0,264.0,6.0,44.0,132.0,176.0,220.0,264.0,88.0,green,diamond
0.0,1.0,1.0,0.0,7.0,1.0,2141.669929027558,4.0,1.0,part_3,go,0.0,0.0,0.0,136.0,4.0,136.0,204.0,34.0,170.0,68.0,102.0,white,hexagon
0.0,4.0,4.0,0.0,7.0,2.0,2099.683759966865,4.0,1.0,part_3,go,0.0,0.0,0.0,204.0,6.0,136.0,204.0,102.0,34.0,68.0,170.0,blue,cross
0.0,4.0,4.0,0.0,7.0,2.0,2004.4034699676558,4.0,1.0,part_3,go,0.0,0.0,0.0,220.0,5.0,176.0,220.0,88.0,44.0,264.0,132.0,blue,cross
0.0,4.0,4.0,0.0,7.0,3.0,4009.149315999821,4.0,1.0,part_3,go,0.0,0.0,0.0,170.0,5.0,204.0,34.0,170.0,136.0,102.0,68.0,blue,cross
0.0,5.0,1.0,1.0,7.0,3.0,2398.187448969111,4.0,1.0,part_3,go,0.0,0.0,0.0,49.0,1.0,98.0,196.0,49.0,294.0,245.0,147.0,yellow,circle
0.0,3.0,3.0,0.0,7.0,3.0,2608.689185930416,4.0,1.0,part_3,go,0.0,0.0,0.0,102.0,3.0,34.0,204.0,102.0,68.0,136.0,170.0,magenta,flipped triangle
0.0,7.0,3.0,1.0,7.0,3.0,2456.0381260234863,4.0,1.0,part_3,go,0.0,0.0,0.0,78.0,2.0,234.0,156.0,78.0,117.0,39.0,195.0,gray,square
0.0,8.0,4.0,1.0,7.0,2.0,2084.064549067989,4.0,1.0,part_3,go,0.0,0.0,0.0,117.0,3.0,195.0,117.0,39.0,78.0,156.0,234.0,cyan,triangle
0.0,5.0,1.0,1.0,7.0,4.0,2165.7887919573113,4.0,1.0,part_3,go,0.0,0.0,0.0,88.0,2.0,176.0,220.0,132.0,88.0,44.0,264.0,yellow,circle
0.0,4.0,4.0,0.0,7.0,2.0,1795.301710953936,4.0,1.0,part_3,go,0.0,0.0,0.0,270.0,5.0,324.0,270.0,108.0,54.0,162.0,216.0,blue,cross
0.0,2.0,2.0,0.0,7.0,4.0,1927.9036109801384,4.0,1.0,part_3,go,0.0,0.0,0.0,195.0,5.0,117.0,234.0,156.0,195.0,78.0,39.0,green,diamond
0.0,6.0,2.0,1.0,7.0,1.0,2576.1416589375585,4.0,1.0,part_3,go,0.0,0.0,0.0,245.0,5.0,245.0,98.0,294.0,196.0,147.0,49.0,orange,I
0.0,7.0,3.0,1.0,7.0,3.0,3227.4263290455565,4.0,1.0,part_3,go,0.0,0.0,0.0,162.0,3.0,216.0,54.0,162.0,108.0,324.0,270.0,gray,square
0.0,6.0,2.0,1.0,7.0,2.0,2256.9688729709014,4.0,1.0,part_3,go,0.0,0.0,0.0,270.0,5.0,162.0,270.0,216.0,54.0,324.0,108.0,orange,I
0.0,3.0,3.0,0.0,7.0,2.0,2522.286052000709,4.0,1.0,part_3,go,0.0,0.0,0.0,324.0,6.0,108.0,324.0,216.0,270.0,54.0,162.0,magenta,flipped triangle
0.0,1.0,1.0,0.0,7.0,2.0,2415.7483369344845,4.0,1.0,part_3,go,0.0,0.0,0.0,132.0,3.0,264.0,132.0,44.0,176.0,220.0,88.0,white,hexagon
