raw_reward_magnitude,stim_reward,stepwise_reward_magnitude,paired_with_stopping,stim_location,response,reaction_time,block,num_trial_presentations,which_phase,stop_signal_trial_type,left_SSD,right_SSD,accuracy,chosen_bidding_amount,chosen_bidding_level,possible_bid_1,possible_bid_2,possible_bid_3,possible_bid_4,possible_bid_5,possible_bid_6,color_text,shape_text
104.0,2.0,1.0,0.0,3.0,3.0,402.6190340518951,1.0,1.0,phase_1,,,,,,,,,,,,,green,square
94.0,2.0,1.0,0.0,1.0,1.0,348.5297479201108,1.0,1.0,phase_1,,,,,,,,,,,,,green,square
222.0,3.0,2.0,0.0,4.0,4.0,340.5511898454278,1.0,1.0,phase_1,,,,,,,,,,,,,white,triangle
75.0,2.0,1.0,0.0,1.0,1.0,301.5786630567163,1.0,1.0,phase_1,,,,,,,,,,,,,green,square
419.0,4.0,4.0,0.0,4.0,4.0,387.8480410203337,1.0,1.0,phase_1,,,,,,,,,,,,,cyan,I
193.0,7.0,2.0,1.0,3.0,3.0,328.2586031127721,1.0,1.0,phase_1,,,,,,,,,,,,,blue,diamond
412.0,4.0,4.0,0.0,1.0,1.0,323.9876879379153,1.0,1.0,phase_1,,,,,,,,,,,,,cyan,I
116.0,2.0,1.0,0.0,1.0,1.0,331.0571981128305,1.0,1.0,phase_1,,,,,,,,,,,,,green,square
190.0,7.0,2.0,1.0,4.0,4.0,327.6732198428362,1.0,1.0,phase_1,,,,,,,,,,,,,blue,diamond
99.0,2.0,1.0,0.0,4.0,4.0,339.8899231106043,1.0,1.0,phase_1,,,,,,,,,,,,,green,square
0.0,2.0,0.0,0.0,3.0,3.0,287.9742051009089,1.0,1.0,phase_1,,,,,,,,,,,,,green,square
189.0,3.0,2.0,0.0,2.0,2.0,340.847073122859,1.0,1.0,phase_1,,,,,,,,,,,,,white,triangle
421.0,8.0,4.0,1.0,3.0,3.0,378.5515539348125,1.0,1.0,phase_1,,,,,,,,,,,,,orange,flipped triangle
0.0,1.0,0.0,0.0,2.0,2.0,399.0558348596096,1.0,1.0,phase_1,,,,,,,,,,,,,yellow,hexagon
75.0,5.0,0.5,1.0,1.0,1.0,321.3320330251008,1.0,1.0,phase_1,,,,,,,,,,,,,magenta,circle
0.0,8.0,0.0,1.0,4.0,4.0,328.6710800603032,1.0,1.0,phase_1,,,,,,,,,,,,,orange,flipped triangle
0.0,7.0,0.0,1.0,1.0,1.0,300.110740121454,1.0,1.0,phase_1,,,,,,,,,,,,,blue,diamond
0.0,1.0,0.0,0.0,2.0,2.0,305.9836539905518,1.0,1.0,phase_1,,,,,,,,,,,,,yellow,hexagon
94.0,6.0,1.0,1.0,3.0,3.0,366.4464009925723,1.0,1.0,phase_1,,,,,,,,,,,,,gray,cross
421.0,4.0,4.0,0.0,4.0,4.0,316.1674118600786,1.0,1.0,phase_1,,,,,,,,,,,,,cyan,I
122.0,6.0,1.0,1.0,2.0,2.0,352.0681080408394,1.0,1.0,phase_1,,,,,,,,,,,,,gray,cross
100.0,2.0,1.0,0.0,4.0,4.0,266.2973499391228,1.0,1.0,phase_1,,,,,,,,,,,,,green,square
29.0,5.0,0.5,1.0,4.0,4.0,320.6721330061555,1.0,1.0,phase_1,,,,,,,,,,,,,magenta,circle
28.0,1.0,0.5,0.0,4.0,4.0,306.8639980629086,1.0,1.0,phase_1,,,,,,,,,,,,,yellow,hexagon
0.0,5.0,0.0,1.0,1.0,1.0,297.0667439512908,1.0,1.0,phase_1,,,,,,,,,,,,,magenta,circle
213.0,7.0,2.0,1.0,4.0,4.0,280.4984170943498,1.0,1.0,phase_1,,,,,,,,,,,,,blue,diamond
190.0,3.0,2.0,0.0,4.0,4.0,324.2974269669503,1.0,1.0,phase_1,,,,,,,,,,,,,white,triangle
414.0,4.0,4.0,0.0,3.0,3.0,496.8724988866597,1.0,1.0,phase_1,,,,,,,,,,,,,cyan,I
209.0,3.0,2.0,0.0,4.0,4.0,361.2283831462264,1.0,2.0,phase_1,,,,,,,,,,,,,white,triangle
225.0,7.0,2.0,1.0,4.0,4.0,339.5225659478456,1.0,1.0,phase_1,,,,,,,,,,,,,blue,diamond
408.0,8.0,4.0,1.0,4.0,4.0,353.1214050017297,1.0,1.0,phase_1,,,,,,,,,,,,,orange,flipped triangle
95.0,6.0,1.0,1.0,1.0,1.0,360.7096800114959,1.0,1.0,phase_1,,,,,,,,,,,,,gray,cross
394.0,8.0,4.0,1.0,3.0,3.0,364.9038339499384,1.0,1.0,phase_1,,,,,,,,,,,,,orange,flipped triangle
86.0,2.0,1.0,0.0,3.0,3.0,327.573720132932,1.0,1.0,phase_1,,,,,,,,,,,,,green,square
47.0,5.0,0.5,1.0,2.0,2.0,342.9012880660593,1.0,1.0,phase_1,,,,,,,,,,,,,magenta,circle
104.0,6.0,1.0,1.0,2.0,2.0,369.67987800017,1.0,1.0,phase_1,,,,,,,,,,,,,gray,cross
208.0,7.0,2.0,1.0,4.0,4.0,341.4335739798844,1.0,1.0,phase_1,,,,,,,,,,,,,blue,diamond
401.0,8.0,4.0,1.0,2.0,2.0,331.7371481098234,1.0,1.0,phase_1,,,,,,,,,,,,,orange,flipped triangle
53.0,5.0,0.5,1.0,2.0,2.0,373.7410488538444,1.0,1.0,phase_1,,,,,,,,,,,,,magenta,circle
67.0,1.0,0.5,0.0,1.0,1.0,242.3548488877713,1.0,1.0,phase_1,,,,,,,,,,,,,yellow,hexagon
205.0,3.0,2.0,0.0,4.0,4.0,289.2228199634701,1.0,1.0,phase_1,,,,,,,,,,,,,white,triangle
421.0,4.0,4.0,0.0,2.0,2.0,364.712243899703,1.0,1.0,phase_1,,,,,,,,,,,,,cyan,I
123.0,2.0,1.0,0.0,2.0,2.0,353.129853028804,1.0,1.0,phase_1,,,,,,,,,,,,,green,square
0.0,4.0,0.0,0.0,2.0,2.0,345.0164999812841,1.0,1.0,phase_1,,,,,,,,,,,,,cyan,I
0.0,8.0,0.0,1.0,3.0,3.0,357.9180331435054,1.0,1.0,phase_1,,,,,,,,,,,,,orange,flipped triangle
56.0,1.0,0.5,0.0,3.0,3.0,462.4962389934808,1.0,1.0,phase_1,,,,,,,,,,,,,yellow,hexagon
44.0,1.0,0.5,0.0,2.0,2.0,331.7213049158454,1.0,1.0,phase_1,,,,,,,,,,,,,yellow,hexagon
117.0,6.0,1.0,1.0,4.0,4.0,298.7879680003971,1.0,1.0,phase_1,,,,,,,,,,,,,gray,cross
411.0,4.0,4.0,0.0,1.0,1.0,225.3867830149829,1.0,1.0,phase_1,,,,,,,,,,,,,cyan,I
75.0,2.0,1.0,0.0,3.0,3.0,243.3919119648635,1.0,1.0,phase_1,,,,,,,,,,,,,green,square
196.0,3.0,2.0,0.0,1.0,1.0,270.492689916864,1.0,1.0,phase_1,,,,,,,,,,,,,white,triangle
383.0,4.0,4.0,0.0,3.0,3.0,324.5800589211285,1.0,1.0,phase_1,,,,,,,,,,,,,cyan,I
202.0,3.0,2.0,0.0,3.0,3.0,312.0024469681084,1.0,1.0,phase_1,,,,,,,,,,,,,white,triangle
180.0,7.0,2.0,1.0,4.0,4.0,285.7620301656425,1.0,1.0,phase_1,,,,,,,,,,,,,blue,diamond
0.0,6.0,0.0,1.0,2.0,2.0,307.3855119291693,1.0,1.0,phase_1,,,,,,,,,,,,,gray,cross
375.0,4.0,4.0,0.0,1.0,1.0,285.8934130053967,1.0,1.0,phase_1,,,,,,,,,,,,,cyan,I
202.0,3.0,2.0,0.0,4.0,4.0,331.0529428999871,1.0,1.0,phase_1,,,,,,,,,,,,,white,triangle
392.0,4.0,4.0,0.0,2.0,2.0,310.7724508736282,1.0,1.0,phase_1,,,,,,,,,,,,,cyan,I
0.0,1.0,0.0,0.0,2.0,2.0,348.5570182092488,1.0,1.0,phase_1,,,,,,,,,,,,,yellow,hexagon
0.0,2.0,0.0,0.0,3.0,3.0,368.211145978421,1.0,1.0,phase_1,,,,,,,,,,,,,green,square
109.0,6.0,1.0,1.0,4.0,4.0,335.9720548614859,1.0,1.0,phase_1,,,,,,,,,,,,,gray,cross
86.0,2.0,1.0,0.0,3.0,3.0,306.8972190376371,1.0,1.0,phase_1,,,,,,,,,,,,,green,square
408.0,8.0,4.0,1.0,2.0,2.0,246.3560060132295,1.0,1.0,phase_1,,,,,,,,,,,,,orange,flipped triangle
179.0,3.0,2.0,0.0,1.0,1.0,387.7079607918858,1.0,1.0,phase_1,,,,,,,,,,,,,white,triangle
0.0,7.0,0.0,1.0,4.0,4.0,364.0163538511842,1.0,1.0,phase_1,,,,,,,,,,,,,blue,diamond
0.0,3.0,0.0,0.0,3.0,3.0,406.6266969311982,1.0,1.0,phase_1,,,,,,,,,,,,,white,triangle
408.0,4.0,4.0,0.0,3.0,3.0,345.0359518174082,1.0,1.0,phase_1,,,,,,,,,,,,,cyan,I
68.0,5.0,0.5,1.0,2.0,2.0,320.740537950769,1.0,1.0,phase_1,,,,,,,,,,,,,magenta,circle
388.0,8.0,4.0,1.0,3.0,3.0,332.8840611502528,1.0,1.0,phase_1,,,,,,,,,,,,,orange,flipped triangle
415.0,4.0,4.0,0.0,4.0,4.0,328.996469033882,1.0,1.0,phase_1,,,,,,,,,,,,,cyan,I
38.0,5.0,0.5,1.0,1.0,1.0,302.8129900339991,1.0,1.0,phase_1,,,,,,,,,,,,,magenta,circle
61.0,5.0,0.5,1.0,4.0,4.0,266.8301181402057,1.0,1.0,phase_1,,,,,,,,,,,,,magenta,circle
383.0,4.0,4.0,0.0,1.0,1.0,343.8017459120601,1.0,1.0,phase_1,,,,,,,,,,,,,cyan,I
122.0,2.0,1.0,0.0,2.0,2.0,307.0996971800923,1.0,1.0,phase_1,,,,,,,,,,,,,green,square
217.0,3.0,2.0,0.0,3.0,3.0,289.8266820702702,1.0,1.0,phase_1,,,,,,,,,,,,,white,triangle
116.0,6.0,1.0,1.0,3.0,3.0,311.2875930964947,1.0,1.0,phase_1,,,,,,,,,,,,,gray,cross
0.0,8.0,0.0,1.0,1.0,1.0,274.705396965146,1.0,1.0,phase_1,,,,,,,,,,,,,orange,flipped triangle
414.0,8.0,4.0,1.0,1.0,1.0,296.7837429605424,1.0,1.0,phase_1,,,,,,,,,,,,,orange,flipped triangle
217.0,7.0,2.0,1.0,1.0,1.0,321.1293558124453,1.0,1.0,phase_1,,,,,,,,,,,,,blue,diamond
59.0,5.0,0.5,1.0,3.0,3.0,320.9817879833281,1.0,1.0,phase_1,,,,,,,,,,,,,magenta,circle
213.0,3.0,2.0,0.0,1.0,1.0,266.9420179445296,1.0,1.0,phase_1,,,,,,,,,,,,,white,triangle
120.0,6.0,1.0,1.0,2.0,2.0,362.5924109946936,1.0,1.0,phase_1,,,,,,,,,,,,,gray,cross
62.0,5.0,0.5,1.0,2.0,2.0,339.9393351282924,1.0,1.0,phase_1,,,,,,,,,,,,,magenta,circle
52.0,1.0,0.5,0.0,4.0,4.0,286.3178809639066,1.0,2.0,phase_1,,,,,,,,,,,,,yellow,hexagon
59.0,5.0,0.5,1.0,4.0,4.0,373.8817900884896,1.0,1.0,phase_1,,,,,,,,,,,,,magenta,circle
50.0,5.0,0.5,1.0,1.0,1.0,312.19013989903027,1.0,1.0,phase_1,,,,,,,,,,,,,magenta,circle
0.0,4.0,0.0,0.0,2.0,2.0,323.1323601212352,1.0,1.0,phase_1,,,,,,,,,,,,,cyan,I
112.0,2.0,1.0,0.0,2.0,2.0,496.4918030891567,1.0,1.0,phase_1,,,,,,,,,,,,,green,square
106.0,6.0,1.0,1.0,3.0,3.0,319.4985338486731,1.0,1.0,phase_1,,,,,,,,,,,,,gray,cross
400.0,8.0,4.0,1.0,3.0,3.0,378.1449620146304,1.0,1.0,phase_1,,,,,,,,,,,,,orange,flipped triangle
0.0,7.0,0.0,1.0,1.0,1.0,287.1592650189996,1.0,1.0,phase_1,,,,,,,,,,,,,blue,diamond
387.0,8.0,4.0,1.0,3.0,3.0,283.7435908149928,1.0,1.0,phase_1,,,,,,,,,,,,,orange,flipped triangle
213.0,7.0,2.0,1.0,3.0,3.0,303.7192150950432,1.0,1.0,phase_1,,,,,,,,,,,,,blue,diamond
194.0,3.0,2.0,0.0,2.0,2.0,415.4247508849948,1.0,1.0,phase_1,,,,,,,,,,,,,white,triangle
205.0,7.0,2.0,1.0,1.0,1.0,337.0227930136025,1.0,1.0,phase_1,,,,,,,,,,,,,blue,diamond
412.0,8.0,4.0,1.0,2.0,2.0,296.9298048410564,1.0,1.0,phase_1,,,,,,,,,,,,,orange,flipped triangle
117.0,2.0,1.0,0.0,1.0,1.0,365.9020061604678,1.0,1.0,phase_1,,,,,,,,,,,,,green,square
221.0,7.0,2.0,1.0,3.0,3.0,328.5231660120189,1.0,1.0,phase_1,,,,,,,,,,,,,blue,diamond
59.0,1.0,0.5,0.0,2.0,2.0,348.4870030079037,1.0,1.0,phase_1,,,,,,,,,,,,,yellow,hexagon
194.0,7.0,2.0,1.0,3.0,3.0,521.0398850031197,1.0,1.0,phase_1,,,,,,,,,,,,,blue,diamond
114.0,6.0,1.0,1.0,3.0,3.0,656.9543180521578,2.0,1.0,phase_1,,,,,,,,,,,,,gray,cross
58.0,1.0,0.5,0.0,4.0,4.0,278.6263420712203,2.0,1.0,phase_1,,,,,,,,,,,,,yellow,hexagon
190.0,7.0,2.0,1.0,2.0,2.0,304.2483881581574,2.0,1.0,phase_1,,,,,,,,,,,,,blue,diamond
83.0,6.0,1.0,1.0,4.0,4.0,302.8399758040905,2.0,1.0,phase_1,,,,,,,,,,,,,gray,cross
220.0,3.0,2.0,0.0,2.0,2.0,282.252763165161,2.0,1.0,phase_1,,,,,,,,,,,,,white,triangle
397.0,4.0,4.0,0.0,1.0,1.0,310.9049301128834,2.0,1.0,phase_1,,,,,,,,,,,,,cyan,I
0.0,1.0,0.0,0.0,3.0,3.0,292.5841528922319,2.0,1.0,phase_1,,,,,,,,,,,,,yellow,hexagon
26.0,5.0,0.5,1.0,2.0,2.0,335.3517439682036,2.0,1.0,phase_1,,,,,,,,,,,,,magenta,circle
0.0,4.0,0.0,0.0,2.0,2.0,295.9852239582687,2.0,1.0,phase_1,,,,,,,,,,,,,cyan,I
0.0,2.0,0.0,0.0,1.0,1.0,283.6073529906571,2.0,1.0,phase_1,,,,,,,,,,,,,green,square
39.0,5.0,0.5,1.0,4.0,4.0,295.7142000086605,2.0,1.0,phase_1,,,,,,,,,,,,,magenta,circle
86.0,6.0,1.0,1.0,1.0,1.0,291.4060491602868,2.0,1.0,phase_1,,,,,,,,,,,,,gray,cross
52.0,1.0,0.5,0.0,2.0,2.0,313.5562599636614,2.0,1.0,phase_1,,,,,,,,,,,,,yellow,hexagon
26.0,1.0,0.5,0.0,4.0,4.0,324.6077608782798,2.0,1.0,phase_1,,,,,,,,,,,,,yellow,hexagon
100.0,6.0,1.0,1.0,2.0,2.0,345.3693671617657,2.0,1.0,phase_1,,,,,,,,,,,,,gray,cross
53.0,1.0,0.5,0.0,2.0,2.0,414.2353308852762,2.0,1.0,phase_1,,,,,,,,,,,,,yellow,hexagon
0.0,7.0,0.0,1.0,4.0,4.0,325.0282108783722,2.0,1.0,phase_1,,,,,,,,,,,,,blue,diamond
218.0,3.0,2.0,0.0,4.0,4.0,423.271118896082,2.0,1.0,phase_1,,,,,,,,,,,,,white,triangle
421.0,8.0,4.0,1.0,2.0,2.0,258.6821811273694,2.0,1.0,phase_1,,,,,,,,,,,,,orange,flipped triangle
0.0,3.0,0.0,0.0,4.0,4.0,296.0377158597111,2.0,1.0,phase_1,,,,,,,,,,,,,white,triangle
75.0,2.0,1.0,0.0,2.0,2.0,308.7055068463087,2.0,1.0,phase_1,,,,,,,,,,,,,green,square
48.0,5.0,0.5,1.0,3.0,3.0,332.3348620906472,2.0,1.0,phase_1,,,,,,,,,,,,,magenta,circle
72.0,1.0,0.5,0.0,1.0,1.0,288.3461059536785,2.0,1.0,phase_1,,,,,,,,,,,,,yellow,hexagon
411.0,8.0,4.0,1.0,4.0,4.0,306.655750144273,2.0,1.0,phase_1,,,,,,,,,,,,,orange,flipped triangle
195.0,7.0,2.0,1.0,3.0,3.0,307.1038611233234,2.0,1.0,phase_1,,,,,,,,,,,,,blue,diamond
182.0,3.0,2.0,0.0,4.0,4.0,331.8033819086849,2.0,1.0,phase_1,,,,,,,,,,,,,white,triangle
0.0,1.0,0.0,0.0,2.0,2.0,291.8282281607389,2.0,1.0,phase_1,,,,,,,,,,,,,yellow,hexagon
27.0,5.0,0.5,1.0,3.0,3.0,369.4366181734949,2.0,1.0,phase_1,,,,,,,,,,,,,magenta,circle
202.0,7.0,2.0,1.0,2.0,2.0,347.7452478837222,2.0,1.0,phase_1,,,,,,,,,,,,,blue,diamond
0.0,6.0,0.0,1.0,2.0,2.0,401.8725708592683,2.0,1.0,phase_1,,,,,,,,,,,,,gray,cross
0.0,3.0,0.0,0.0,3.0,3.0,342.8293289616704,2.0,1.0,phase_1,,,,,,,,,,,,,white,triangle
417.0,8.0,4.0,1.0,4.0,4.0,304.6296830289066,2.0,1.0,phase_1,,,,,,,,,,,,,orange,flipped triangle
83.0,2.0,1.0,0.0,3.0,3.0,352.952865185216,2.0,1.0,phase_1,,,,,,,,,,,,,green,square
180.0,3.0,2.0,0.0,2.0,2.0,307.4949430301785,2.0,1.0,phase_1,,,,,,,,,,,,,white,triangle
0.0,5.0,0.0,1.0,3.0,3.0,302.2557820659131,2.0,1.0,phase_1,,,,,,,,,,,,,magenta,circle
180.0,3.0,2.0,0.0,1.0,1.0,403.0541600659489,2.0,1.0,phase_1,,,,,,,,,,,,,white,triangle
75.0,6.0,1.0,1.0,3.0,3.0,306.9704030640423,2.0,1.0,phase_1,,,,,,,,,,,,,gray,cross
0.0,5.0,0.0,1.0,2.0,2.0,278.7716179154813,2.0,1.0,phase_1,,,,,,,,,,,,,magenta,circle
106.0,2.0,1.0,0.0,2.0,2.0,315.6397040002048,2.0,1.0,phase_1,,,,,,,,,,,,,green,square
0.0,1.0,0.0,0.0,3.0,3.0,365.8477349672466,2.0,1.0,phase_1,,,,,,,,,,,,,yellow,hexagon
54.0,1.0,0.5,0.0,4.0,4.0,300.178635166958,2.0,1.0,phase_1,,,,,,,,,,,,,yellow,hexagon
392.0,8.0,4.0,1.0,4.0,4.0,370.1410300564021,2.0,1.0,phase_1,,,,,,,,,,,,,orange,flipped triangle
0.0,4.0,0.0,0.0,1.0,1.0,283.7156089954078,2.0,1.0,phase_1,,,,,,,,,,,,,cyan,I
187.0,3.0,2.0,0.0,2.0,2.0,311.8775330949574,2.0,1.0,phase_1,,,,,,,,,,,,,white,triangle
88.0,2.0,1.0,0.0,4.0,4.0,287.63581905514,2.0,1.0,phase_1,,,,,,,,,,,,,green,square
76.0,6.0,1.0,1.0,2.0,2.0,282.1784811094403,2.0,1.0,phase_1,,,,,,,,,,,,,gray,cross
384.0,4.0,4.0,0.0,3.0,3.0,241.8229877948761,2.0,1.0,phase_1,,,,,,,,,,,,,cyan,I
400.0,4.0,4.0,0.0,2.0,2.0,302.5431220885366,2.0,1.0,phase_1,,,,,,,,,,,,,cyan,I
111.0,2.0,1.0,0.0,1.0,1.0,241.67329701595,2.0,1.0,phase_1,,,,,,,,,,,,,green,square
113.0,2.0,1.0,0.0,2.0,2.0,401.3880691491067,2.0,2.0,phase_1,,,,,,,,,,,,,green,square
0.0,1.0,0.0,0.0,4.0,4.0,377.2336849942803,2.0,1.0,phase_1,,,,,,,,,,,,,yellow,hexagon
95.0,6.0,1.0,1.0,3.0,3.0,374.1645528934896,2.0,1.0,phase_1,,,,,,,,,,,,,gray,cross
212.0,3.0,2.0,0.0,2.0,2.0,319.1029611043632,2.0,1.0,phase_1,,,,,,,,,,,,,white,triangle
0.0,6.0,0.0,1.0,2.0,2.0,365.4648170340806,2.0,1.0,phase_1,,,,,,,,,,,,,gray,cross
0.0,3.0,0.0,0.0,1.0,1.0,316.4130710065365,2.0,1.0,phase_1,,,,,,,,,,,,,white,triangle
47.0,5.0,0.5,1.0,3.0,3.0,439.0117370057851,2.0,1.0,phase_1,,,,,,,,,,,,,magenta,circle
392.0,8.0,4.0,1.0,4.0,4.0,306.0636171139776,2.0,1.0,phase_1,,,,,,,,,,,,,orange,flipped triangle
36.0,5.0,0.5,1.0,3.0,3.0,278.509926982224,2.0,1.0,phase_1,,,,,,,,,,,,,magenta,circle
31.0,5.0,0.5,1.0,4.0,4.0,283.2595009822398,2.0,1.0,phase_1,,,,,,,,,,,,,magenta,circle
35.0,5.0,0.5,1.0,1.0,1.0,264.9706138763577,2.0,1.0,phase_1,,,,,,,,,,,,,magenta,circle
123.0,6.0,1.0,1.0,2.0,2.0,327.7892810292542,2.0,1.0,phase_1,,,,,,,,,,,,,gray,cross
96.0,6.0,1.0,1.0,2.0,2.0,332.5281529687345,2.0,1.0,phase_1,,,,,,,,,,,,,gray,cross
52.0,5.0,0.5,1.0,4.0,4.0,328.9953041821718,2.0,1.0,phase_1,,,,,,,,,,,,,magenta,circle
0.0,6.0,0.0,1.0,2.0,2.0,292.6508779637515,2.0,1.0,phase_1,,,,,,,,,,,,,gray,cross
61.0,1.0,0.5,0.0,2.0,2.0,294.988116947934,2.0,1.0,phase_1,,,,,,,,,,,,,yellow,hexagon
376.0,4.0,4.0,0.0,4.0,4.0,351.1899530421942,2.0,1.0,phase_1,,,,,,,,,,,,,cyan,I
53.0,5.0,0.5,1.0,1.0,1.0,290.3920069802552,2.0,1.0,phase_1,,,,,,,,,,,,,magenta,circle
34.0,5.0,0.5,1.0,1.0,1.0,302.4348230101168,2.0,1.0,phase_1,,,,,,,,,,,,,magenta,circle
376.0,8.0,4.0,1.0,1.0,1.0,397.5427530240267,2.0,1.0,phase_1,,,,,,,,,,,,,orange,flipped triangle
0.0,6.0,0.0,1.0,2.0,2.0,282.5564742088318,2.0,1.0,phase_1,,,,,,,,,,,,,gray,cross
39.0,1.0,0.5,0.0,2.0,2.0,398.1529399752617,2.0,1.0,phase_1,,,,,,,,,,,,,yellow,hexagon
0.0,2.0,0.0,0.0,2.0,2.0,288.1399590987712,2.0,1.0,phase_1,,,,,,,,,,,,,green,square
180.0,7.0,2.0,1.0,3.0,3.0,285.0699250120669,2.0,1.0,phase_1,,,,,,,,,,,,,blue,diamond
401.0,8.0,4.0,1.0,1.0,1.0,268.4388540219515,2.0,1.0,phase_1,,,,,,,,,,,,,orange,flipped triangle
99.0,6.0,1.0,1.0,4.0,4.0,550.5550629459321,2.0,1.0,phase_1,,,,,,,,,,,,,gray,cross
0.0,5.0,0.0,1.0,2.0,2.0,388.5025640483945,2.0,1.0,phase_1,,,,,,,,,,,,,magenta,circle
384.0,8.0,4.0,1.0,2.0,2.0,319.9316640384495,2.0,1.0,phase_1,,,,,,,,,,,,,orange,flipped triangle
115.0,2.0,1.0,0.0,3.0,3.0,495.6310470588505,2.0,1.0,phase_1,,,,,,,,,,,,,green,square
0.0,1.0,0.0,0.0,1.0,1.0,377.4062141310423,2.0,1.0,phase_1,,,,,,,,,,,,,yellow,hexagon
195.0,3.0,2.0,0.0,1.0,1.0,328.5182400140911,2.0,1.0,phase_1,,,,,,,,,,,,,white,triangle
112.0,6.0,1.0,1.0,2.0,2.0,325.5535159260034,2.0,1.0,phase_1,,,,,,,,,,,,,gray,cross
44.0,5.0,0.5,1.0,1.0,1.0,538.4414400905371,2.0,1.0,phase_1,,,,,,,,,,,,,magenta,circle
47.0,1.0,0.5,0.0,3.0,3.0,429.7736601438373,2.0,1.0,phase_1,,,,,,,,,,,,,yellow,hexagon
72.0,5.0,0.5,1.0,3.0,3.0,332.2320198640227,2.0,1.0,phase_1,,,,,,,,,,,,,magenta,circle
0.0,5.0,0.0,1.0,1.0,1.0,316.8371799401939,2.0,1.0,phase_1,,,,,,,,,,,,,magenta,circle
0.0,5.0,0.0,1.0,4.0,4.0,275.6029819138348,2.0,1.0,phase_1,,,,,,,,,,,,,magenta,circle
115.0,6.0,1.0,1.0,1.0,1.0,328.3011210151016,2.0,1.0,phase_1,,,,,,,,,,,,,gray,cross
206.0,7.0,2.0,1.0,4.0,4.0,308.0996179487556,2.0,1.0,phase_1,,,,,,,,,,,,,blue,diamond
32.0,5.0,0.5,1.0,4.0,4.0,338.5716800112277,2.0,1.0,phase_1,,,,,,,,,,,,,magenta,circle
179.0,7.0,2.0,1.0,3.0,3.0,316.6101309470832,2.0,1.0,phase_1,,,,,,,,,,,,,blue,diamond
52.0,5.0,0.5,1.0,2.0,2.0,217.9972410667687,2.0,1.0,phase_1,,,,,,,,,,,,,magenta,circle
0.0,8.0,0.0,1.0,1.0,1.0,270.0440080370754,2.0,1.0,phase_1,,,,,,,,,,,,,orange,flipped triangle
90.0,2.0,1.0,0.0,4.0,4.0,251.53484987094998,2.0,1.0,phase_1,,,,,,,,,,,,,green,square
59.0,1.0,0.5,0.0,4.0,4.0,287.9581679590046,2.0,1.0,phase_1,,,,,,,,,,,,,yellow,hexagon
111.0,6.0,1.0,1.0,3.0,3.0,320.1937628909945,2.0,1.0,phase_1,,,,,,,,,,,,,gray,cross
183.0,3.0,2.0,0.0,3.0,3.0,348.7744410522282,2.0,1.0,phase_1,,,,,,,,,,,,,white,triangle
393.0,8.0,4.0,1.0,2.0,2.0,293.4027439914644,2.0,1.0,phase_1,,,,,,,,,,,,,orange,flipped triangle
0.0,8.0,0.0,1.0,4.0,4.0,314.7087879478931,2.0,1.0,phase_1,,,,,,,,,,,,,orange,flipped triangle
101.0,2.0,1.0,0.0,2.0,2.0,328.8627678994089,2.0,1.0,phase_1,,,,,,,,,,,,,green,square
0.0,5.0,0.0,1.0,1.0,1.0,315.8999939914793,2.0,1.0,phase_1,,,,,,,,,,,,,magenta,circle
380.0,4.0,4.0,0.0,3.0,3.0,336.3587029743939,3.0,1.0,phase_1,,,,,,,,,,,,,cyan,I
208.0,3.0,2.0,0.0,3.0,3.0,381.5338290296495,3.0,1.0,phase_1,,,,,,,,,,,,,white,triangle
122.0,2.0,1.0,0.0,1.0,1.0,339.9287408683449,3.0,1.0,phase_1,,,,,,,,,,,,,green,square
213.0,3.0,2.0,0.0,4.0,4.0,296.2208238895982,3.0,1.0,phase_1,,,,,,,,,,,,,white,triangle
0.0,6.0,0.0,1.0,3.0,3.0,293.7793410383165,3.0,1.0,phase_1,,,,,,,,,,,,,gray,cross
0.0,2.0,0.0,0.0,4.0,4.0,295.6305649131536,3.0,1.0,phase_1,,,,,,,,,,,,,green,square
0.0,2.0,0.0,0.0,3.0,3.0,382.7597978524863,3.0,1.0,phase_1,,,,,,,,,,,,,green,square
408.0,4.0,4.0,0.0,1.0,1.0,236.7383739911019,3.0,1.0,phase_1,,,,,,,,,,,,,cyan,I
31.0,1.0,0.5,0.0,2.0,2.0,264.3437548540532,3.0,1.0,phase_1,,,,,,,,,,,,,yellow,hexagon
415.0,8.0,4.0,1.0,4.0,4.0,276.2858408968895,3.0,1.0,phase_1,,,,,,,,,,,,,orange,flipped triangle
189.0,7.0,2.0,1.0,2.0,2.0,262.5030670315027,3.0,1.0,phase_1,,,,,,,,,,,,,blue,diamond
375.0,8.0,4.0,1.0,2.0,2.0,323.6205561552197,3.0,1.0,phase_1,,,,,,,,,,,,,orange,flipped triangle
0.0,7.0,0.0,1.0,3.0,3.0,312.6141601242125,3.0,1.0,phase_1,,,,,,,,,,,,,blue,diamond
88.0,6.0,1.0,1.0,4.0,4.0,316.9938931241631,3.0,1.0,phase_1,,,,,,,,,,,,,gray,cross
82.0,6.0,1.0,1.0,1.0,1.0,315.6443070620298,3.0,1.0,phase_1,,,,,,,,,,,,,gray,cross
187.0,7.0,2.0,1.0,1.0,1.0,288.1656109821051,3.0,1.0,phase_1,,,,,,,,,,,,,blue,diamond
411.0,4.0,4.0,0.0,3.0,3.0,259.5574150327593,3.0,1.0,phase_1,,,,,,,,,,,,,cyan,I
202.0,7.0,2.0,1.0,2.0,2.0,352.55955206230277,3.0,1.0,phase_1,,,,,,,,,,,,,blue,diamond
0.0,5.0,0.0,1.0,3.0,3.0,390.6659649219364,3.0,1.0,phase_1,,,,,,,,,,,,,magenta,circle
424.0,4.0,4.0,0.0,4.0,4.0,299.1562460083514,3.0,1.0,phase_1,,,,,,,,,,,,,cyan,I
206.0,3.0,2.0,0.0,1.0,1.0,253.72375803999597,3.0,1.0,phase_1,,,,,,,,,,,,,white,triangle
63.0,5.0,0.5,1.0,2.0,2.0,238.3628031238913,3.0,1.0,phase_1,,,,,,,,,,,,,magenta,circle
209.0,7.0,2.0,1.0,3.0,3.0,302.4663720279932,3.0,2.0,phase_1,,,,,,,,,,,,,blue,diamond
388.0,4.0,4.0,0.0,4.0,4.0,321.0737919434905,3.0,1.0,phase_1,,,,,,,,,,,,,cyan,I
383.0,8.0,4.0,1.0,4.0,4.0,368.5856040101498,3.0,1.0,phase_1,,,,,,,,,,,,,orange,flipped triangle
187.0,3.0,2.0,0.0,1.0,1.0,276.2725420761853,3.0,1.0,phase_1,,,,,,,,,,,,,white,triangle
67.0,5.0,0.5,1.0,4.0,4.0,241.4436058606952,3.0,1.0,phase_1,,,,,,,,,,,,,magenta,circle
62.0,1.0,0.5,0.0,3.0,3.0,333.2538241520524,3.0,1.0,phase_1,,,,,,,,,,,,,yellow,hexagon
62.0,1.0,0.5,0.0,1.0,1.0,274.9981051310897,3.0,1.0,phase_1,,,,,,,,,,,,,yellow,hexagon
78.0,6.0,1.0,1.0,3.0,3.0,374.6722149662673,3.0,1.0,phase_1,,,,,,,,,,,,,gray,cross
101.0,6.0,1.0,1.0,1.0,1.0,274.7942779678851,3.0,1.0,phase_1,,,,,,,,,,,,,gray,cross
0.0,7.0,0.0,1.0,1.0,1.0,414.5568350795656,3.0,1.0,phase_1,,,,,,,,,,,,,blue,diamond
86.0,6.0,1.0,1.0,1.0,1.0,333.385064965114,3.0,1.0,phase_1,,,,,,,,,,,,,gray,cross
29.0,1.0,0.5,0.0,3.0,3.0,322.3385829478502,3.0,1.0,phase_1,,,,,,,,,,,,,yellow,hexagon
123.0,6.0,1.0,1.0,2.0,2.0,422.886453801766,3.0,1.0,phase_1,,,,,,,,,,,,,gray,cross
94.0,6.0,1.0,1.0,1.0,1.0,316.6276500560343,3.0,1.0,phase_1,,,,,,,,,,,,,gray,cross
401.0,4.0,4.0,0.0,1.0,1.0,296.2661709170788,3.0,1.0,phase_1,,,,,,,,,,,,,cyan,I
89.0,2.0,1.0,0.0,1.0,1.0,267.8909769747406,3.0,1.0,phase_1,,,,,,,,,,,,,green,square
95.0,2.0,1.0,0.0,4.0,4.0,312.9681230057031,3.0,1.0,phase_1,,,,,,,,,,,,,green,square
40.0,1.0,0.5,0.0,3.0,3.0,291.2179420236498,3.0,1.0,phase_1,,,,,,,,,,,,,yellow,hexagon
196.0,7.0,2.0,1.0,2.0,2.0,248.8861768506467,3.0,1.0,phase_1,,,,,,,,,,,,,blue,diamond
0.0,6.0,0.0,1.0,1.0,1.0,295.6550060771405,3.0,1.0,phase_1,,,,,,,,,,,,,gray,cross
123.0,6.0,1.0,1.0,1.0,1.0,282.42121101357037,3.0,1.0,phase_1,,,,,,,,,,,,,gray,cross
396.0,4.0,4.0,0.0,3.0,3.0,358.2587919663638,3.0,1.0,phase_1,,,,,,,,,,,,,cyan,I
75.0,6.0,1.0,1.0,4.0,4.0,299.9925501644611,3.0,1.0,phase_1,,,,,,,,,,,,,gray,cross
0.0,1.0,0.0,0.0,2.0,2.0,241.5530278813094,3.0,1.0,phase_1,,,,,,,,,,,,,yellow,hexagon
50.0,1.0,0.5,0.0,3.0,3.0,286.642838967964,3.0,1.0,phase_1,,,,,,,,,,,,,yellow,hexagon
0.0,8.0,0.0,1.0,4.0,4.0,346.7971060890704,3.0,1.0,phase_1,,,,,,,,,,,,,orange,flipped triangle
0.0,4.0,0.0,0.0,1.0,1.0,272.9374459013343,3.0,1.0,phase_1,,,,,,,,,,,,,cyan,I
116.0,6.0,1.0,1.0,1.0,1.0,309.7521439194679,3.0,1.0,phase_1,,,,,,,,,,,,,gray,cross
76.0,2.0,1.0,0.0,2.0,2.0,263.2153029553592,3.0,1.0,phase_1,,,,,,,,,,,,,green,square
123.0,2.0,1.0,0.0,1.0,1.0,292.0697170775383,3.0,1.0,phase_1,,,,,,,,,,,,,green,square
212.0,7.0,2.0,1.0,1.0,1.0,236.049816943705,3.0,1.0,phase_1,,,,,,,,,,,,,blue,diamond
58.0,5.0,0.5,1.0,2.0,2.0,276.9847169984132,3.0,1.0,phase_1,,,,,,,,,,,,,magenta,circle
198.0,7.0,2.0,1.0,1.0,1.0,250.22789882496,3.0,1.0,phase_1,,,,,,,,,,,,,blue,diamond
0.0,6.0,0.0,1.0,3.0,3.0,346.1085860617459,3.0,1.0,phase_1,,,,,,,,,,,,,gray,cross
122.0,6.0,1.0,1.0,3.0,3.0,324.5734171941876,3.0,1.0,phase_1,,,,,,,,,,,,,gray,cross
391.0,4.0,4.0,0.0,2.0,2.0,330.974284093827,3.0,1.0,phase_1,,,,,,,,,,,,,cyan,I
0.0,3.0,0.0,0.0,3.0,3.0,343.6271930113435,3.0,1.0,phase_1,,,,,,,,,,,,,white,triangle
0.0,7.0,0.0,1.0,4.0,4.0,323.8358271773904,3.0,1.0,phase_1,,,,,,,,,,,,,blue,diamond
0.0,3.0,0.0,0.0,1.0,1.0,279.4451869558543,3.0,1.0,phase_1,,,,,,,,,,,,,white,triangle
70.0,1.0,0.5,0.0,1.0,1.0,354.6196010429412,3.0,1.0,phase_1,,,,,,,,,,,,,yellow,hexagon
213.0,7.0,2.0,1.0,1.0,1.0,272.9089332278818,3.0,1.0,phase_1,,,,,,,,,,,,,blue,diamond
403.0,4.0,4.0,0.0,3.0,3.0,345.8196499850601,3.0,2.0,phase_1,,,,,,,,,,,,,cyan,I
95.0,2.0,1.0,0.0,2.0,2.0,311.7811379488557,3.0,1.0,phase_1,,,,,,,,,,,,,green,square
395.0,4.0,4.0,0.0,1.0,1.0,348.3736829366535,3.0,1.0,phase_1,,,,,,,,,,,,,cyan,I
195.0,3.0,2.0,0.0,3.0,3.0,312.4942379072308,3.0,1.0,phase_1,,,,,,,,,,,,,white,triangle
0.0,8.0,0.0,1.0,1.0,1.0,303.1561309471726,3.0,1.0,phase_1,,,,,,,,,,,,,orange,flipped triangle
218.0,7.0,2.0,1.0,4.0,4.0,378.5522270482033,3.0,1.0,phase_1,,,,,,,,,,,,,blue,diamond
0.0,7.0,0.0,1.0,4.0,4.0,496.52268900536,3.0,1.0,phase_1,,,,,,,,,,,,,blue,diamond
62.0,5.0,0.5,1.0,3.0,3.0,306.9559631403535,3.0,1.0,phase_1,,,,,,,,,,,,,magenta,circle
0.0,4.0,0.0,0.0,4.0,4.0,449.2337540723383,3.0,1.0,phase_1,,,,,,,,,,,,,cyan,I
401.0,4.0,4.0,0.0,4.0,4.0,423.2145990245044,3.0,1.0,phase_1,,,,,,,,,,,,,cyan,I
95.0,6.0,1.0,1.0,4.0,4.0,296.2803991977125,3.0,1.0,phase_1,,,,,,,,,,,,,gray,cross
417.0,8.0,4.0,1.0,3.0,3.0,444.5277762133628,3.0,1.0,phase_1,,,,,,,,,,,,,orange,flipped triangle
90.0,6.0,1.0,1.0,3.0,3.0,362.9798248875886,3.0,1.0,phase_1,,,,,,,,,,,,,gray,cross
27.0,1.0,0.5,0.0,3.0,3.0,320.7300540525466,3.0,1.0,phase_1,,,,,,,,,,,,,yellow,hexagon
421.0,8.0,4.0,1.0,1.0,1.0,356.4286730252206,3.0,1.0,phase_1,,,,,,,,,,,,,orange,flipped triangle
391.0,8.0,4.0,1.0,4.0,4.0,287.5936808995902,3.0,1.0,phase_1,,,,,,,,,,,,,orange,flipped triangle
394.0,4.0,4.0,0.0,4.0,4.0,331.6901889629662,3.0,1.0,phase_1,,,,,,,,,,,,,cyan,I
113.0,6.0,1.0,1.0,4.0,4.0,345.1647569891065,3.0,1.0,phase_1,,,,,,,,,,,,,gray,cross
380.0,8.0,4.0,1.0,2.0,2.0,480.1172029692679,3.0,1.0,phase_1,,,,,,,,,,,,,orange,flipped triangle
396.0,8.0,4.0,1.0,3.0,3.0,276.4140281360596,3.0,1.0,phase_1,,,,,,,,,,,,,orange,flipped triangle
0.0,8.0,0.0,1.0,1.0,1.0,288.2288058754056,3.0,1.0,phase_1,,,,,,,,,,,,,orange,flipped triangle
221.0,3.0,2.0,0.0,4.0,4.0,341.9501369353384,3.0,1.0,phase_1,,,,,,,,,,,,,white,triangle
64.0,1.0,0.5,0.0,1.0,1.0,291.0978060681373,3.0,1.0,phase_1,,,,,,,,,,,,,yellow,hexagon
109.0,2.0,1.0,0.0,3.0,3.0,280.2128749899566,3.0,1.0,phase_1,,,,,,,,,,,,,green,square
414.0,8.0,4.0,1.0,3.0,3.0,385.3466678410768,3.0,1.0,phase_1,,,,,,,,,,,,,orange,flipped triangle
191.0,3.0,2.0,0.0,4.0,4.0,312.2923758346587,3.0,1.0,phase_1,,,,,,,,,,,,,white,triangle
75.0,6.0,1.0,1.0,2.0,2.0,274.3231661152094,3.0,1.0,phase_1,,,,,,,,,,,,,gray,cross
44.0,5.0,0.5,1.0,2.0,2.0,348.5243669711053,3.0,2.0,phase_1,,,,,,,,,,,,,magenta,circle
39.0,1.0,0.5,0.0,1.0,1.0,288.7856930028647,3.0,1.0,phase_1,,,,,,,,,,,,,yellow,hexagon
403.0,8.0,4.0,1.0,1.0,1.0,327.3564111441374,3.0,1.0,phase_1,,,,,,,,,,,,,orange,flipped triangle
90.0,2.0,1.0,0.0,1.0,1.0,349.2690920829773,3.0,1.0,phase_1,,,,,,,,,,,,,green,square
123.0,2.0,1.0,0.0,2.0,2.0,294.2908969707787,3.0,1.0,phase_1,,,,,,,,,,,,,green,square
386.0,4.0,4.0,0.0,2.0,2.0,315.4565969016403,3.0,1.0,phase_1,,,,,,,,,,,,,cyan,I
392.0,4.0,4.0,0.0,3.0,3.0,320.2147949486971,3.0,1.0,phase_1,,,,,,,,,,,,,cyan,I
187.0,7.0,2.0,1.0,1.0,1.0,295.638914918527,3.0,1.0,phase_1,,,,,,,,,,,,,blue,diamond
0.0,5.0,0.0,1.0,3.0,3.0,325.5324449855834,3.0,1.0,phase_1,,,,,,,,,,,,,magenta,circle
191.0,7.0,2.0,1.0,4.0,4.0,327.6784420013428,3.0,1.0,phase_1,,,,,,,,,,,,,blue,diamond
114.0,2.0,1.0,0.0,3.0,3.0,316.5430948138237,4.0,1.0,phase_1,,,,,,,,,,,,,green,square
75.0,1.0,0.5,0.0,1.0,1.0,272.307591047138,4.0,1.0,phase_1,,,,,,,,,,,,,yellow,hexagon
388.0,8.0,4.0,1.0,3.0,3.0,309.8635389469564,4.0,1.0,phase_1,,,,,,,,,,,,,orange,flipped triangle
53.0,5.0,0.5,1.0,4.0,4.0,319.3798570428043,4.0,1.0,phase_1,,,,,,,,,,,,,magenta,circle
34.0,1.0,0.5,0.0,1.0,1.0,286.5288238972425,4.0,1.0,phase_1,,,,,,,,,,,,,yellow,hexagon
53.0,1.0,0.5,0.0,3.0,3.0,288.3350281044841,4.0,1.0,phase_1,,,,,,,,,,,,,yellow,hexagon
0.0,3.0,0.0,0.0,4.0,4.0,312.8315350040793,4.0,1.0,phase_1,,,,,,,,,,,,,white,triangle
190.0,3.0,2.0,0.0,1.0,1.0,283.876716857776,4.0,1.0,phase_1,,,,,,,,,,,,,white,triangle
386.0,8.0,4.0,1.0,2.0,2.0,279.6495140064508,4.0,1.0,phase_1,,,,,,,,,,,,,orange,flipped triangle
90.0,6.0,1.0,1.0,4.0,4.0,254.4487069826573,4.0,1.0,phase_1,,,,,,,,,,,,,gray,cross
0.0,4.0,0.0,0.0,4.0,4.0,299.9379539396614,4.0,1.0,phase_1,,,,,,,,,,,,,cyan,I
209.0,7.0,2.0,1.0,1.0,1.0,493.5358839575201,4.0,1.0,phase_1,,,,,,,,,,,,,blue,diamond
388.0,8.0,4.0,1.0,3.0,3.0,499.6840988751501,4.0,1.0,phase_1,,,,,,,,,,,,,orange,flipped triangle
0.0,7.0,0.0,1.0,2.0,2.0,312.6549641601741,4.0,1.0,phase_1,,,,,,,,,,,,,blue,diamond
101.0,6.0,1.0,1.0,1.0,1.0,300.8658031467348,4.0,1.0,phase_1,,,,,,,,,,,,,gray,cross
216.0,7.0,2.0,1.0,1.0,1.0,290.6324691139161,4.0,1.0,phase_1,,,,,,,,,,,,,blue,diamond
383.0,8.0,4.0,1.0,1.0,1.0,311.5270528942346,4.0,1.0,phase_1,,,,,,,,,,,,,orange,flipped triangle
387.0,4.0,4.0,0.0,2.0,2.0,315.8521701116115,4.0,1.0,phase_1,,,,,,,,,,,,,cyan,I
182.0,7.0,2.0,1.0,2.0,2.0,319.701787084341,4.0,1.0,phase_1,,,,,,,,,,,,,blue,diamond
68.0,1.0,0.5,0.0,4.0,4.0,309.1235209722072,4.0,1.0,phase_1,,,,,,,,,,,,,yellow,hexagon
216.0,3.0,2.0,0.0,3.0,3.0,344.545884989202,4.0,1.0,phase_1,,,,,,,,,,,,,white,triangle
0.0,7.0,0.0,1.0,4.0,4.0,445.6361220218241,4.0,1.0,phase_1,,,,,,,,,,,,,blue,diamond
0.0,8.0,0.0,1.0,1.0,1.0,306.5502541139722,4.0,1.0,phase_1,,,,,,,,,,,,,orange,flipped triangle
400.0,8.0,4.0,1.0,1.0,1.0,324.6376989409327,4.0,1.0,phase_1,,,,,,,,,,,,,orange,flipped triangle
48.0,1.0,0.5,0.0,2.0,2.0,459.5009491313249,4.0,1.0,phase_1,,,,,,,,,,,,,yellow,hexagon
64.0,5.0,0.5,1.0,2.0,2.0,328.9021030068397,4.0,1.0,phase_1,,,,,,,,,,,,,magenta,circle
417.0,4.0,4.0,0.0,3.0,3.0,292.4330360256135,4.0,1.0,phase_1,,,,,,,,,,,,,cyan,I
400.0,4.0,4.0,0.0,1.0,1.0,409.4373600091785,4.0,1.0,phase_1,,,,,,,,,,,,,cyan,I
411.0,8.0,4.0,1.0,1.0,1.0,288.34121208637947,4.0,1.0,phase_1,,,,,,,,,,,,,orange,flipped triangle
35.0,1.0,0.5,0.0,2.0,2.0,355.0869431346655,4.0,1.0,phase_1,,,,,,,,,,,,,yellow,hexagon
28.0,5.0,0.5,1.0,3.0,3.0,313.1660430226475,4.0,1.0,phase_1,,,,,,,,,,,,,magenta,circle
0.0,6.0,0.0,1.0,1.0,1.0,258.6001250892877,4.0,1.0,phase_1,,,,,,,,,,,,,gray,cross
193.0,3.0,2.0,0.0,3.0,3.0,303.8702339399606,4.0,1.0,phase_1,,,,,,,,,,,,,white,triangle
53.0,1.0,0.5,0.0,3.0,3.0,284.7300958819687,4.0,1.0,phase_1,,,,,,,,,,,,,yellow,hexagon
414.0,4.0,4.0,0.0,2.0,2.0,299.2471109610051,4.0,1.0,phase_1,,,,,,,,,,,,,cyan,I
395.0,8.0,4.0,1.0,4.0,4.0,335.7614618726074,4.0,1.0,phase_1,,,,,,,,,,,,,orange,flipped triangle
417.0,4.0,4.0,0.0,4.0,4.0,508.1363609060645,4.0,1.0,phase_1,,,,,,,,,,,,,cyan,I
198.0,3.0,2.0,0.0,3.0,3.0,310.7513829600066,4.0,1.0,phase_1,,,,,,,,,,,,,white,triangle
96.0,2.0,1.0,0.0,4.0,4.0,373.764367075637,4.0,1.0,phase_1,,,,,,,,,,,,,green,square
116.0,2.0,1.0,0.0,3.0,3.0,275.5613371264189,4.0,1.0,phase_1,,,,,,,,,,,,,green,square
209.0,3.0,2.0,0.0,3.0,3.0,296.0067971143871,4.0,1.0,phase_1,,,,,,,,,,,,,white,triangle
0.0,6.0,0.0,1.0,1.0,1.0,265.7597640063613,4.0,1.0,phase_1,,,,,,,,,,,,,gray,cross
0.0,3.0,0.0,0.0,3.0,3.0,278.178600827232,4.0,1.0,phase_1,,,,,,,,,,,,,white,triangle
412.0,8.0,4.0,1.0,2.0,2.0,282.6376280281693,4.0,1.0,phase_1,,,,,,,,,,,,,orange,flipped triangle
101.0,2.0,1.0,0.0,3.0,3.0,338.4432781022042,4.0,1.0,phase_1,,,,,,,,,,,,,green,square
0.0,2.0,0.0,0.0,3.0,3.0,307.0724820718169,4.0,2.0,phase_1,,,,,,,,,,,,,green,square
195.0,3.0,2.0,0.0,2.0,2.0,295.2898810617625,4.0,1.0,phase_1,,,,,,,,,,,,,white,triangle
36.0,1.0,0.5,0.0,4.0,4.0,396.6016201302409,4.0,1.0,phase_1,,,,,,,,,,,,,yellow,hexagon
393.0,4.0,4.0,0.0,2.0,2.0,312.118582194671,4.0,1.0,phase_1,,,,,,,,,,,,,cyan,I
0.0,5.0,0.0,1.0,4.0,4.0,483.6634311359375,4.0,1.0,phase_1,,,,,,,,,,,,,magenta,circle
95.0,2.0,1.0,0.0,4.0,4.0,368.1047828868031,4.0,1.0,phase_1,,,,,,,,,,,,,green,square
388.0,4.0,4.0,0.0,2.0,2.0,292.89624793455,4.0,1.0,phase_1,,,,,,,,,,,,,cyan,I
68.0,5.0,0.5,1.0,3.0,3.0,317.0078119728714,4.0,1.0,phase_1,,,,,,,,,,,,,magenta,circle
218.0,7.0,2.0,1.0,1.0,1.0,288.2021281402558,4.0,1.0,phase_1,,,,,,,,,,,,,blue,diamond
63.0,1.0,0.5,0.0,4.0,4.0,291.9432851485908,4.0,1.0,phase_1,,,,,,,,,,,,,yellow,hexagon
0.0,3.0,0.0,0.0,1.0,1.0,320.3481719829142,4.0,1.0,phase_1,,,,,,,,,,,,,white,triangle
183.0,7.0,2.0,1.0,3.0,3.0,303.3398520201444,4.0,1.0,phase_1,,,,,,,,,,,,,blue,diamond
0.0,4.0,0.0,0.0,1.0,1.0,315.6433408148587,4.0,1.0,phase_1,,,,,,,,,,,,,cyan,I
38.0,1.0,0.5,0.0,4.0,4.0,320.8846170455217,4.0,1.0,phase_1,,,,,,,,,,,,,yellow,hexagon
213.0,3.0,2.0,0.0,1.0,1.0,276.0209639091044,4.0,1.0,phase_1,,,,,,,,,,,,,white,triangle
44.0,1.0,0.5,0.0,1.0,1.0,305.1221091300249,4.0,1.0,phase_1,,,,,,,,,,,,,yellow,hexagon
220.0,7.0,2.0,1.0,2.0,2.0,299.1845479700714,4.0,1.0,phase_1,,,,,,,,,,,,,blue,diamond
419.0,8.0,4.0,1.0,4.0,4.0,319.6912750136107,4.0,2.0,phase_1,,,,,,,,,,,,,orange,flipped triangle
388.0,4.0,4.0,0.0,2.0,2.0,333.5234608966857,4.0,1.0,phase_1,,,,,,,,,,,,,cyan,I
40.0,5.0,0.5,1.0,1.0,1.0,351.3157691340893,4.0,1.0,phase_1,,,,,,,,,,,,,magenta,circle
195.0,7.0,2.0,1.0,3.0,3.0,294.844290940091,4.0,1.0,phase_1,,,,,,,,,,,,,blue,diamond
89.0,6.0,1.0,1.0,4.0,4.0,359.477219171822,4.0,1.0,phase_1,,,,,,,,,,,,,gray,cross
195.0,7.0,2.0,1.0,4.0,4.0,335.803777910769,4.0,1.0,phase_1,,,,,,,,,,,,,blue,diamond
0.0,4.0,0.0,0.0,3.0,3.0,298.1648000422865,4.0,1.0,phase_1,,,,,,,,,,,,,cyan,I
397.0,8.0,4.0,1.0,1.0,1.0,360.3563739452511,4.0,1.0,phase_1,,,,,,,,,,,,,orange,flipped triangle
412.0,4.0,4.0,0.0,4.0,4.0,340.7753619831055,4.0,1.0,phase_1,,,,,,,,,,,,,cyan,I
218.0,3.0,2.0,0.0,2.0,2.0,470.7686258479953,4.0,1.0,phase_1,,,,,,,,,,,,,white,triangle
0.0,2.0,0.0,0.0,4.0,4.0,349.1608190815896,4.0,1.0,phase_1,,,,,,,,,,,,,green,square
0.0,4.0,0.0,0.0,1.0,1.0,324.5857721194625,4.0,1.0,phase_1,,,,,,,,,,,,,cyan,I
421.0,4.0,4.0,0.0,1.0,1.0,319.1296008881181,4.0,1.0,phase_1,,,,,,,,,,,,,cyan,I
0.0,1.0,0.0,0.0,1.0,1.0,389.6805280819535,4.0,1.0,phase_1,,,,,,,,,,,,,yellow,hexagon
54.0,5.0,0.5,1.0,1.0,1.0,345.1570589095354,4.0,1.0,phase_1,,,,,,,,,,,,,magenta,circle
186.0,3.0,2.0,0.0,1.0,1.0,355.994903948158,4.0,1.0,phase_1,,,,,,,,,,,,,white,triangle
189.0,7.0,2.0,1.0,2.0,2.0,299.0720779635012,4.0,1.0,phase_1,,,,,,,,,,,,,blue,diamond
82.0,2.0,1.0,0.0,4.0,4.0,332.8880011104047,4.0,1.0,phase_1,,,,,,,,,,,,,green,square
70.0,5.0,0.5,1.0,4.0,4.0,482.2261999361217,4.0,1.0,phase_1,,,,,,,,,,,,,magenta,circle
188.0,7.0,2.0,1.0,2.0,2.0,377.0678290165961,4.0,1.0,phase_1,,,,,,,,,,,,,blue,diamond
39.0,5.0,0.5,1.0,1.0,1.0,316.9528809376061,4.0,1.0,phase_1,,,,,,,,,,,,,magenta,circle
56.0,5.0,0.5,1.0,3.0,3.0,259.0015958994627,4.0,1.0,phase_1,,,,,,,,,,,,,magenta,circle
32.0,1.0,0.5,0.0,2.0,2.0,303.5867868456989,4.0,1.0,phase_1,,,,,,,,,,,,,yellow,hexagon
188.0,3.0,2.0,0.0,2.0,2.0,307.8643740154803,4.0,1.0,phase_1,,,,,,,,,,,,,white,triangle
120.0,2.0,1.0,0.0,4.0,4.0,319.4599088747054,4.0,1.0,phase_1,,,,,,,,,,,,,green,square
68.0,1.0,0.5,0.0,1.0,1.0,298.5738380812108,4.0,1.0,phase_1,,,,,,,,,,,,,yellow,hexagon
424.0,8.0,4.0,1.0,1.0,1.0,320.7271781284362,4.0,1.0,phase_1,,,,,,,,,,,,,orange,flipped triangle
0.0,2.0,0.0,0.0,3.0,3.0,422.6402079220861,4.0,1.0,phase_1,,,,,,,,,,,,,green,square
78.0,2.0,1.0,0.0,1.0,1.0,312.3176940716803,4.0,1.0,phase_1,,,,,,,,,,,,,green,square
225.0,3.0,2.0,0.0,2.0,2.0,308.33570798859,4.0,1.0,phase_1,,,,,,,,,,,,,white,triangle
189.0,3.0,2.0,0.0,3.0,3.0,305.5957509204745,4.0,1.0,phase_1,,,,,,,,,,,,,white,triangle
47.0,1.0,0.5,0.0,3.0,3.0,342.6864899229258,4.0,1.0,phase_1,,,,,,,,,,,,,yellow,hexagon
94.0,2.0,1.0,0.0,4.0,4.0,391.051618847996,4.0,1.0,phase_1,,,,,,,,,,,,,green,square
0.0,8.0,0.0,1.0,3.0,3.0,361.415509134531,4.0,1.0,phase_1,,,,,,,,,,,,,orange,flipped triangle
222.0,7.0,2.0,1.0,2.0,2.0,318.2895190548152,4.0,1.0,phase_1,,,,,,,,,,,,,blue,diamond
0.0,2.0,0.0,0.0,3.0,3.0,323.2051390223205,4.0,1.0,phase_1,,,,,,,,,,,,,green,square
186.0,7.0,2.0,1.0,4.0,4.0,320.8712509367615,4.0,1.0,phase_1,,,,,,,,,,,,,blue,diamond
0.0,3.0,0.0,0.0,1.0,1.0,429.582430049777,4.0,1.0,phase_1,,,,,,,,,,,,,white,triangle
0.0,4.0,4.0,0.0,6.0,6.0,455.6611450389027,1.0,1.0,phase_2,go,250.0,250.0,1.0,,,,,,,,,cyan,I
0.0,2.0,1.0,0.0,5.0,5.0,386.9230430573225,1.0,1.0,phase_2,go,250.0,250.0,1.0,,,,,,,,,green,square
0.0,8.0,4.0,1.0,6.0,6.0,515.4019929468632,1.0,1.0,phase_2,stop,250.0,250.0,3.0,,,,,,,,,orange,flipped triangle
0.0,2.0,1.0,0.0,5.0,5.0,600.8222158998251,1.0,1.0,phase_2,go,250.0,200.0,1.0,,,,,,,,,green,square
0.0,5.0,0.5,1.0,5.0,5.0,717.6420108880848,1.0,1.0,phase_2,go,250.0,200.0,1.0,,,,,,,,,magenta,circle
0.0,3.0,2.0,0.0,5.0,5.0,805.1668771076947,1.0,1.0,phase_2,go,250.0,200.0,1.0,,,,,,,,,white,triangle
0.0,3.0,2.0,0.0,5.0,5.0,884.6889580599964,1.0,1.0,phase_2,go,250.0,200.0,1.0,,,,,,,,,white,triangle
0.0,8.0,4.0,1.0,5.0,0.0,0.0,1.0,1.0,phase_2,stop,250.0,200.0,4.0,,,,,,,,,orange,flipped triangle
0.0,6.0,1.0,1.0,5.0,5.0,390.8436310011893,1.0,1.0,phase_2,stop,300.0,200.0,3.0,,,,,,,,,gray,cross
0.0,8.0,4.0,1.0,6.0,0.0,0.0,1.0,1.0,phase_2,stop,250.0,200.0,4.0,,,,,,,,,orange,flipped triangle
0.0,1.0,0.5,0.0,6.0,6.0,562.3910080175847,1.0,1.0,phase_2,go,250.0,250.0,1.0,,,,,,,,,yellow,hexagon
0.0,5.0,0.5,1.0,6.0,0.0,0.0,1.0,1.0,phase_2,stop,250.0,250.0,4.0,,,,,,,,,magenta,circle
0.0,1.0,0.5,0.0,5.0,5.0,649.8728450387716,1.0,1.0,phase_2,go,250.0,300.0,1.0,,,,,,,,,yellow,hexagon
0.0,8.0,4.0,1.0,5.0,0.0,0.0,1.0,1.0,phase_2,stop,250.0,300.0,4.0,,,,,,,,,orange,flipped triangle
0.0,5.0,0.5,1.0,6.0,0.0,0.0,1.0,1.0,phase_2,stop,300.0,300.0,4.0,,,,,,,,,magenta,circle
0.0,2.0,1.0,0.0,6.0,6.0,490.0817980524152,1.0,1.0,phase_2,go,300.0,350.0,1.0,,,,,,,,,green,square
0.0,6.0,1.0,1.0,6.0,6.0,632.2109820321202,1.0,1.0,phase_2,go,300.0,350.0,1.0,,,,,,,,,gray,cross
0.0,2.0,1.0,0.0,5.0,5.0,670.320216100663,1.0,1.0,phase_2,go,300.0,350.0,1.0,,,,,,,,,green,square
0.0,3.0,2.0,0.0,6.0,6.0,521.5454630088061,1.0,1.0,phase_2,go,300.0,350.0,1.0,,,,,,,,,white,triangle
0.0,1.0,0.5,0.0,5.0,5.0,607.7457689680159,1.0,1.0,phase_2,go,300.0,350.0,1.0,,,,,,,,,yellow,hexagon
0.0,4.0,4.0,0.0,5.0,5.0,557.0263701956719,1.0,1.0,phase_2,go,300.0,350.0,1.0,,,,,,,,,cyan,I
0.0,1.0,0.5,0.0,6.0,6.0,411.80708585307,1.0,1.0,phase_2,go,300.0,350.0,1.0,,,,,,,,,yellow,hexagon
0.0,7.0,2.0,1.0,5.0,0.0,0.0,1.0,1.0,phase_2,stop,300.0,350.0,4.0,,,,,,,,,blue,diamond
0.0,4.0,4.0,0.0,6.0,6.0,563.1765199359506,1.0,1.0,phase_2,go,350.0,350.0,1.0,,,,,,,,,cyan,I
0.0,7.0,2.0,1.0,5.0,5.0,484.1681930702179,1.0,1.0,phase_2,stop,350.0,350.0,3.0,,,,,,,,,blue,diamond
0.0,3.0,2.0,0.0,6.0,6.0,625.513814156875,1.0,1.0,phase_2,go,300.0,350.0,1.0,,,,,,,,,white,triangle
0.0,3.0,2.0,0.0,5.0,5.0,592.8972871042788,1.0,1.0,phase_2,go,300.0,350.0,1.0,,,,,,,,,white,triangle
0.0,6.0,1.0,1.0,5.0,0.0,0.0,1.0,1.0,phase_2,stop,300.0,350.0,4.0,,,,,,,,,gray,cross
0.0,5.0,0.5,1.0,5.0,0.0,0.0,1.0,1.0,phase_2,stop,350.0,350.0,4.0,,,,,,,,,magenta,circle
0.0,7.0,2.0,1.0,5.0,5.0,447.6927809882909,1.0,1.0,phase_2,go,400.0,350.0,1.0,,,,,,,,,blue,diamond
0.0,3.0,2.0,0.0,6.0,6.0,630.999892950058,1.0,1.0,phase_2,go,400.0,350.0,1.0,,,,,,,,,white,triangle
0.0,4.0,4.0,0.0,6.0,6.0,640.9852700307965,1.0,1.0,phase_2,go,400.0,350.0,1.0,,,,,,,,,cyan,I
0.0,8.0,4.0,1.0,5.0,0.0,0.0,1.0,1.0,phase_2,stop,400.0,350.0,4.0,,,,,,,,,orange,flipped triangle
0.0,4.0,4.0,0.0,5.0,5.0,669.3400538060814,1.0,1.0,phase_2,go,450.0,350.0,1.0,,,,,,,,,cyan,I
0.0,2.0,1.0,0.0,6.0,6.0,549.8266788199544,1.0,1.0,phase_2,go,450.0,350.0,1.0,,,,,,,,,green,square
0.0,7.0,2.0,1.0,6.0,0.0,0.0,1.0,1.0,phase_2,stop,450.0,350.0,4.0,,,,,,,,,blue,diamond
0.0,7.0,2.0,1.0,5.0,0.0,0.0,2.0,1.0,phase_2,stop,450.0,400.0,4.0,,,,,,,,,blue,diamond
0.0,5.0,0.5,1.0,6.0,0.0,0.0,2.0,1.0,phase_2,stop,500.0,400.0,4.0,,,,,,,,,magenta,circle
0.0,3.0,2.0,0.0,6.0,6.0,660.5394710786641,2.0,1.0,phase_2,go,500.0,450.0,1.0,,,,,,,,,white,triangle
0.0,7.0,2.0,1.0,5.0,5.0,539.4235630519688,2.0,1.0,phase_2,stop,500.0,450.0,3.0,,,,,,,,,blue,diamond
0.0,1.0,0.5,0.0,6.0,6.0,600.4588478244841,2.0,1.0,phase_2,go,450.0,450.0,1.0,,,,,,,,,yellow,hexagon
0.0,6.0,1.0,1.0,6.0,0.0,0.0,2.0,1.0,phase_2,stop,450.0,450.0,4.0,,,,,,,,,gray,cross
0.0,1.0,0.5,0.0,5.0,5.0,632.5026450213045,2.0,1.0,phase_2,go,450.0,500.0,1.0,,,,,,,,,yellow,hexagon
0.0,6.0,1.0,1.0,5.0,0.0,0.0,2.0,1.0,phase_2,stop,450.0,500.0,4.0,,,,,,,,,gray,cross
0.0,8.0,4.0,1.0,6.0,6.0,534.7438151948154,2.0,1.0,phase_2,go,500.0,500.0,1.0,,,,,,,,,orange,flipped triangle
0.0,5.0,0.5,1.0,5.0,0.0,0.0,2.0,1.0,phase_2,stop,500.0,500.0,4.0,,,,,,,,,magenta,circle
0.0,1.0,0.5,0.0,5.0,5.0,549.8322760686278,2.0,1.0,phase_2,go,550.0,500.0,1.0,,,,,,,,,yellow,hexagon
0.0,5.0,0.5,1.0,6.0,6.0,684.6775489393622,2.0,1.0,phase_2,go,550.0,500.0,1.0,,,,,,,,,magenta,circle
0.0,4.0,4.0,0.0,6.0,6.0,699.8420970048755,2.0,1.0,phase_2,go,550.0,500.0,1.0,,,,,,,,,cyan,I
0.0,5.0,0.5,1.0,6.0,0.0,0.0,2.0,1.0,phase_2,stop,550.0,500.0,4.0,,,,,,,,,magenta,circle
0.0,3.0,2.0,0.0,6.0,6.0,710.2007200010121,2.0,1.0,phase_2,go,550.0,550.0,1.0,,,,,,,,,white,triangle
0.0,2.0,1.0,0.0,6.0,6.0,653.1697229947895,2.0,1.0,phase_2,go,550.0,550.0,1.0,,,,,,,,,green,square
0.0,6.0,1.0,1.0,5.0,5.0,676.3863661326468,2.0,1.0,phase_2,stop,550.0,550.0,3.0,,,,,,,,,gray,cross
0.0,4.0,4.0,0.0,5.0,5.0,796.5449600014836,2.0,1.0,phase_2,go,500.0,550.0,1.0,,,,,,,,,cyan,I
0.0,6.0,1.0,1.0,5.0,0.0,0.0,2.0,1.0,phase_2,stop,500.0,550.0,4.0,,,,,,,,,gray,cross
0.0,2.0,1.0,0.0,6.0,6.0,664.1559931449592,2.0,1.0,phase_2,go,550.0,550.0,1.0,,,,,,,,,green,square
0.0,7.0,2.0,1.0,5.0,5.0,673.7263470422477,2.0,1.0,phase_2,stop,550.0,550.0,3.0,,,,,,,,,blue,diamond
0.0,1.0,0.5,0.0,5.0,5.0,736.2041759770364,2.0,1.0,phase_2,go,500.0,550.0,1.0,,,,,,,,,yellow,hexagon
0.0,1.0,0.5,0.0,5.0,5.0,778.6174709908664,2.0,1.0,phase_2,go,500.0,550.0,1.0,,,,,,,,,yellow,hexagon
0.0,7.0,2.0,1.0,6.0,6.0,637.8916329704225,2.0,1.0,phase_2,go,500.0,550.0,1.0,,,,,,,,,blue,diamond
0.0,2.0,1.0,0.0,6.0,6.0,694.9393178801984,2.0,1.0,phase_2,go,500.0,550.0,1.0,,,,,,,,,green,square
0.0,5.0,0.5,1.0,5.0,0.0,0.0,2.0,1.0,phase_2,stop,500.0,550.0,4.0,,,,,,,,,magenta,circle
0.0,7.0,2.0,1.0,5.0,0.0,0.0,2.0,1.0,phase_2,stop,550.0,550.0,4.0,,,,,,,,,blue,diamond
0.0,4.0,4.0,0.0,6.0,6.0,566.902301972732,2.0,1.0,phase_2,go,600.0,550.0,1.0,,,,,,,,,cyan,I
0.0,7.0,2.0,1.0,6.0,6.0,773.9496929571033,2.0,1.0,phase_2,go,600.0,550.0,1.0,,,,,,,,,blue,diamond
0.0,7.0,2.0,1.0,5.0,0.0,0.0,2.0,1.0,phase_2,stop,600.0,550.0,4.0,,,,,,,,,blue,diamond
0.0,2.0,1.0,0.0,6.0,6.0,699.9584150034934,2.0,1.0,phase_2,go,650.0,550.0,1.0,,,,,,,,,green,square
0.0,1.0,0.5,0.0,6.0,6.0,771.9095000065863,2.0,1.0,phase_2,go,650.0,550.0,1.0,,,,,,,,,yellow,hexagon
0.0,6.0,1.0,1.0,5.0,5.0,476.1050757952034,2.0,1.0,phase_2,stop,650.0,550.0,3.0,,,,,,,,,gray,cross
0.0,7.0,2.0,1.0,6.0,6.0,778.8094070274383,2.0,1.0,phase_2,go,600.0,550.0,1.0,,,,,,,,,blue,diamond
0.0,6.0,1.0,1.0,6.0,6.0,626.9328009802848,2.0,1.0,phase_2,go,600.0,550.0,1.0,,,,,,,,,gray,cross
0.0,8.0,4.0,1.0,6.0,0.0,0.0,2.0,1.0,phase_2,stop,600.0,550.0,4.0,,,,,,,,,orange,flipped triangle
0.0,3.0,2.0,0.0,6.0,6.0,898.7618719693273,3.0,1.0,phase_2,go,600.0,600.0,1.0,,,,,,,,,white,triangle
0.0,3.0,2.0,0.0,6.0,6.0,280.7427009101957,3.0,1.0,phase_2,go,600.0,600.0,1.0,,,,,,,,,white,triangle
0.0,5.0,0.5,1.0,6.0,6.0,558.9308359194547,3.0,1.0,phase_2,stop,600.0,600.0,3.0,,,,,,,,,magenta,circle
0.0,1.0,0.5,0.0,6.0,6.0,374.2727520875633,3.0,1.0,phase_2,go,600.0,550.0,1.0,,,,,,,,,yellow,hexagon
0.0,6.0,1.0,1.0,6.0,6.0,319.2208888940513,3.0,1.0,phase_2,go,600.0,550.0,1.0,,,,,,,,,gray,cross
0.0,4.0,4.0,0.0,6.0,6.0,455.4277409333735,3.0,1.0,phase_2,go,600.0,550.0,1.0,,,,,,,,,cyan,I
0.0,2.0,1.0,0.0,5.0,5.0,439.2303971108049,3.0,1.0,phase_2,go,600.0,550.0,1.0,,,,,,,,,green,square
0.0,2.0,1.0,0.0,6.0,6.0,300.4502151161432,3.0,1.0,phase_2,go,600.0,550.0,1.0,,,,,,,,,green,square
0.0,6.0,1.0,1.0,6.0,6.0,364.7303110919893,3.0,1.0,phase_2,stop,600.0,550.0,3.0,,,,,,,,,gray,cross
0.0,5.0,0.5,1.0,6.0,6.0,473.470204975456,3.0,1.0,phase_2,stop,600.0,500.0,3.0,,,,,,,,,magenta,circle
0.0,4.0,4.0,0.0,5.0,5.0,332.70632289350027,3.0,1.0,phase_2,go,600.0,450.0,1.0,,,,,,,,,cyan,I
0.0,1.0,0.5,0.0,5.0,5.0,529.2462029028684,3.0,1.0,phase_2,go,600.0,450.0,1.0,,,,,,,,,yellow,hexagon
0.0,7.0,2.0,1.0,6.0,6.0,448.8876890391111,3.0,1.0,phase_2,stop,600.0,450.0,3.0,,,,,,,,,blue,diamond
0.0,2.0,1.0,0.0,5.0,5.0,642.6079019438475,3.0,1.0,phase_2,go,600.0,400.0,1.0,,,,,,,,,green,square
0.0,2.0,1.0,0.0,5.0,5.0,535.5655918829143,3.0,1.0,phase_2,go,600.0,400.0,1.0,,,,,,,,,green,square
0.0,3.0,2.0,0.0,5.0,5.0,736.6915079765022,3.0,1.0,phase_2,go,600.0,400.0,1.0,,,,,,,,,white,triangle
0.0,4.0,4.0,0.0,5.0,5.0,473.7570430152118,3.0,1.0,phase_2,go,600.0,400.0,1.0,,,,,,,,,cyan,I
0.0,8.0,4.0,1.0,6.0,6.0,365.7922190614044,3.0,1.0,phase_2,stop,600.0,400.0,3.0,,,,,,,,,orange,flipped triangle
0.0,4.0,4.0,0.0,6.0,6.0,463.2368360180408,3.0,1.0,phase_2,go,600.0,350.0,1.0,,,,,,,,,cyan,I
0.0,8.0,4.0,1.0,5.0,5.0,623.9132818300277,3.0,1.0,phase_2,stop,600.0,350.0,3.0,,,,,,,,,orange,flipped triangle
0.0,5.0,0.5,1.0,6.0,0.0,0.0,3.0,1.0,phase_2,stop,550.0,350.0,4.0,,,,,,,,,magenta,circle
0.0,8.0,4.0,1.0,6.0,6.0,551.0979760438204,3.0,1.0,phase_2,go,550.0,400.0,1.0,,,,,,,,,orange,flipped triangle
0.0,2.0,1.0,0.0,6.0,6.0,733.0438930075616,3.0,1.0,phase_2,go,550.0,400.0,1.0,,,,,,,,,green,square
0.0,8.0,4.0,1.0,6.0,0.0,0.0,3.0,1.0,phase_2,stop,550.0,400.0,4.0,,,,,,,,,orange,flipped triangle
0.0,2.0,1.0,0.0,6.0,6.0,593.5635690111667,3.0,1.0,phase_2,go,550.0,450.0,1.0,,,,,,,,,green,square
0.0,4.0,4.0,0.0,5.0,5.0,632.8148778993636,3.0,1.0,phase_2,go,550.0,450.0,1.0,,,,,,,,,cyan,I
0.0,4.0,4.0,0.0,6.0,6.0,507.735701976344,3.0,1.0,phase_2,go,550.0,450.0,1.0,,,,,,,,,cyan,I
0.0,2.0,1.0,0.0,6.0,6.0,384.0449887793511,3.0,1.0,phase_2,go,550.0,450.0,1.0,,,,,,,,,green,square
0.0,4.0,4.0,0.0,5.0,5.0,577.610544860363,3.0,1.0,phase_2,go,550.0,450.0,1.0,,,,,,,,,cyan,I
0.0,4.0,4.0,0.0,6.0,6.0,513.1675431039184,3.0,1.0,phase_2,go,550.0,450.0,1.0,,,,,,,,,cyan,I
0.0,6.0,1.0,1.0,6.0,0.0,0.0,3.0,1.0,phase_2,stop,550.0,450.0,4.0,,,,,,,,,gray,cross
0.0,5.0,0.5,1.0,6.0,6.0,550.1027491409332,3.0,1.0,phase_2,go,550.0,500.0,1.0,,,,,,,,,magenta,circle
0.0,3.0,2.0,0.0,6.0,6.0,367.4168840516358,3.0,1.0,phase_2,go,550.0,500.0,1.0,,,,,,,,,white,triangle
0.0,6.0,1.0,1.0,6.0,6.0,614.9183090310544,3.0,1.0,phase_2,stop,550.0,500.0,3.0,,,,,,,,,gray,cross
0.0,8.0,4.0,1.0,6.0,6.0,515.7874890137464,3.0,1.0,phase_2,stop,550.0,450.0,3.0,,,,,,,,,orange,flipped triangle
0.0,4.0,4.0,0.0,6.0,6.0,654.5368290971965,3.0,1.0,phase_2,go,550.0,400.0,1.0,,,,,,,,,cyan,I
0.0,2.0,1.0,0.0,6.0,6.0,545.4269568435848,4.0,1.0,phase_2,go,550.0,400.0,1.0,,,,,,,,,green,square
0.0,8.0,4.0,1.0,6.0,6.0,338.5519192088395,4.0,1.0,phase_2,stop,550.0,400.0,3.0,,,,,,,,,orange,flipped triangle
0.0,4.0,4.0,0.0,6.0,6.0,552.57638101466,4.0,1.0,phase_2,go,550.0,350.0,1.0,,,,,,,,,cyan,I
0.0,1.0,0.5,0.0,5.0,5.0,343.3544270228594,4.0,1.0,phase_2,go,550.0,350.0,1.0,,,,,,,,,yellow,hexagon
0.0,2.0,1.0,0.0,5.0,5.0,583.0878890119493,4.0,1.0,phase_2,go,550.0,350.0,1.0,,,,,,,,,green,square
0.0,5.0,0.5,1.0,6.0,0.0,0.0,4.0,1.0,phase_2,stop,550.0,350.0,4.0,,,,,,,,,magenta,circle
0.0,1.0,0.5,0.0,5.0,5.0,598.3874429948628,4.0,1.0,phase_2,go,550.0,400.0,1.0,,,,,,,,,yellow,hexagon
0.0,2.0,1.0,0.0,6.0,6.0,582.5028519611806,4.0,1.0,phase_2,go,550.0,400.0,1.0,,,,,,,,,green,square
0.0,6.0,1.0,1.0,6.0,0.0,0.0,4.0,1.0,phase_2,stop,550.0,400.0,4.0,,,,,,,,,gray,cross
0.0,4.0,4.0,0.0,6.0,6.0,360.0935679860413,4.0,1.0,phase_2,go,550.0,450.0,1.0,,,,,,,,,cyan,I
0.0,7.0,2.0,1.0,6.0,6.0,555.7574720587581,4.0,1.0,phase_2,stop,550.0,450.0,3.0,,,,,,,,,blue,diamond
0.0,8.0,4.0,1.0,6.0,6.0,507.6844561845064,4.0,1.0,phase_2,stop,550.0,400.0,3.0,,,,,,,,,orange,flipped triangle
0.0,2.0,1.0,0.0,5.0,5.0,491.3788179401308,4.0,1.0,phase_2,go,550.0,350.0,1.0,,,,,,,,,green,square
0.0,4.0,4.0,0.0,5.0,5.0,684.5440419856459,4.0,1.0,phase_2,go,550.0,350.0,1.0,,,,,,,,,cyan,I
0.0,2.0,1.0,0.0,5.0,5.0,635.6818019412458,4.0,1.0,phase_2,go,550.0,350.0,1.0,,,,,,,,,green,square
0.0,7.0,2.0,1.0,6.0,0.0,0.0,4.0,1.0,phase_2,stop,550.0,350.0,4.0,,,,,,,,,blue,diamond
0.0,7.0,2.0,1.0,6.0,0.0,0.0,4.0,1.0,phase_2,stop,550.0,400.0,4.0,,,,,,,,,blue,diamond
0.0,2.0,1.0,0.0,5.0,5.0,402.450192021206,4.0,1.0,phase_2,go,550.0,450.0,1.0,,,,,,,,,green,square
0.0,3.0,2.0,0.0,5.0,5.0,407.5525489170104,4.0,1.0,phase_2,go,550.0,450.0,1.0,,,,,,,,,white,triangle
0.0,2.0,1.0,0.0,5.0,5.0,334.6479008905589,4.0,1.0,phase_2,go,550.0,450.0,1.0,,,,,,,,,green,square
0.0,6.0,1.0,1.0,6.0,6.0,359.7968488465994,4.0,1.0,phase_2,stop,550.0,450.0,3.0,,,,,,,,,gray,cross
0.0,7.0,2.0,1.0,6.0,0.0,0.0,4.0,1.0,phase_2,stop,550.0,400.0,4.0,,,,,,,,,blue,diamond
0.0,3.0,2.0,0.0,5.0,5.0,641.1750460974872,4.0,1.0,phase_2,go,550.0,450.0,1.0,,,,,,,,,white,triangle
0.0,5.0,0.5,1.0,5.0,5.0,328.052791999653,4.0,1.0,phase_2,stop,550.0,450.0,3.0,,,,,,,,,magenta,circle
0.0,1.0,0.5,0.0,5.0,5.0,598.8343409262598,4.0,1.0,phase_2,go,500.0,450.0,1.0,,,,,,,,,yellow,hexagon
0.0,5.0,0.5,1.0,6.0,6.0,566.8318369425833,4.0,1.0,phase_2,stop,500.0,450.0,3.0,,,,,,,,,magenta,circle
0.0,5.0,0.5,1.0,5.0,5.0,526.6787421423942,4.0,1.0,phase_2,stop,500.0,400.0,3.0,,,,,,,,,magenta,circle
0.0,7.0,2.0,1.0,6.0,6.0,650.200845906511,4.0,1.0,phase_2,go,450.0,400.0,1.0,,,,,,,,,blue,diamond
0.0,6.0,1.0,1.0,6.0,6.0,634.854000993073,4.0,1.0,phase_2,go,450.0,400.0,1.0,,,,,,,,,gray,cross
0.0,2.0,1.0,0.0,6.0,6.0,490.9133079927414,4.0,1.0,phase_2,go,450.0,400.0,1.0,,,,,,,,,green,square
0.0,8.0,4.0,1.0,5.0,5.0,540.2633710764349,4.0,1.0,phase_2,stop,450.0,400.0,3.0,,,,,,,,,orange,flipped triangle
0.0,1.0,0.5,0.0,6.0,6.0,620.1897680293769,4.0,1.0,phase_2,go,400.0,400.0,1.0,,,,,,,,,yellow,hexagon
0.0,8.0,4.0,1.0,6.0,6.0,465.1314010843634,4.0,1.0,phase_2,go,400.0,400.0,1.0,,,,,,,,,orange,flipped triangle
0.0,8.0,4.0,1.0,5.0,0.0,0.0,4.0,1.0,phase_2,stop,400.0,400.0,4.0,,,,,,,,,orange,flipped triangle
0.0,1.0,0.5,0.0,6.0,6.0,678.4641479607671,4.0,1.0,phase_2,go,450.0,400.0,1.0,,,,,,,,,yellow,hexagon
0.0,6.0,1.0,1.0,5.0,0.0,0.0,4.0,1.0,phase_2,stop,450.0,400.0,4.0,,,,,,,,,gray,cross
0.0,6.0,1.0,1.0,6.0,6.0,587.3579839244485,5.0,1.0,phase_2,stop,500.0,400.0,3.0,,,,,,,,,gray,cross
0.0,1.0,0.5,0.0,6.0,6.0,442.1176339965313,5.0,1.0,phase_2,go,500.0,350.0,1.0,,,,,,,,,yellow,hexagon
0.0,1.0,0.5,0.0,5.0,5.0,636.0948109067976,5.0,1.0,phase_2,go,500.0,350.0,1.0,,,,,,,,,yellow,hexagon
0.0,1.0,0.5,0.0,6.0,6.0,428.6435770336538,5.0,1.0,phase_2,go,500.0,350.0,1.0,,,,,,,,,yellow,hexagon
0.0,4.0,4.0,0.0,5.0,5.0,602.5957399979234,5.0,1.0,phase_2,go,500.0,350.0,1.0,,,,,,,,,cyan,I
0.0,7.0,2.0,1.0,5.0,5.0,616.3717650342733,5.0,1.0,phase_2,stop,500.0,350.0,3.0,,,,,,,,,blue,diamond
0.0,6.0,1.0,1.0,6.0,6.0,631.955754943192,5.0,1.0,phase_2,go,450.0,350.0,1.0,,,,,,,,,gray,cross
0.0,3.0,2.0,0.0,5.0,5.0,662.6381650567055,5.0,1.0,phase_2,go,450.0,350.0,1.0,,,,,,,,,white,triangle
0.0,5.0,0.5,1.0,5.0,5.0,614.8862489499152,5.0,1.0,phase_2,stop,450.0,350.0,3.0,,,,,,,,,magenta,circle
0.0,3.0,2.0,0.0,6.0,6.0,493.4436460025608,5.0,1.0,phase_2,go,400.0,350.0,1.0,,,,,,,,,white,triangle
0.0,1.0,0.5,0.0,5.0,5.0,599.5493568480015,5.0,1.0,phase_2,go,400.0,350.0,1.0,,,,,,,,,yellow,hexagon
0.0,4.0,4.0,0.0,6.0,6.0,678.8258599117398,5.0,1.0,phase_2,go,400.0,350.0,1.0,,,,,,,,,cyan,I
0.0,1.0,0.5,0.0,6.0,6.0,710.4607161600143,5.0,1.0,phase_2,go,400.0,350.0,1.0,,,,,,,,,yellow,hexagon
0.0,5.0,0.5,1.0,6.0,6.0,597.4898030981421,5.0,1.0,phase_2,go,400.0,350.0,1.0,,,,,,,,,magenta,circle
0.0,2.0,1.0,0.0,6.0,6.0,458.6815780494362,5.0,1.0,phase_2,go,400.0,350.0,1.0,,,,,,,,,green,square
0.0,6.0,1.0,1.0,6.0,6.0,629.2717310134321,5.0,1.0,phase_2,go,400.0,350.0,1.0,,,,,,,,,gray,cross
0.0,6.0,1.0,1.0,6.0,6.0,461.6638261359185,5.0,1.0,phase_2,stop,400.0,350.0,3.0,,,,,,,,,gray,cross
0.0,6.0,1.0,1.0,5.0,0.0,0.0,5.0,1.0,phase_2,stop,400.0,300.0,4.0,,,,,,,,,gray,cross
0.0,8.0,4.0,1.0,5.0,0.0,0.0,5.0,1.0,phase_2,stop,450.0,300.0,4.0,,,,,,,,,orange,flipped triangle
0.0,3.0,2.0,0.0,5.0,5.0,651.0087079368532,5.0,1.0,phase_2,go,500.0,300.0,1.0,,,,,,,,,white,triangle
0.0,8.0,4.0,1.0,6.0,0.0,0.0,5.0,1.0,phase_2,stop,500.0,300.0,4.0,,,,,,,,,orange,flipped triangle
0.0,2.0,1.0,0.0,5.0,5.0,662.7498501911759,5.0,1.0,phase_2,go,500.0,350.0,1.0,,,,,,,,,green,square
0.0,5.0,0.5,1.0,5.0,5.0,542.560979956761,5.0,1.0,phase_2,go,500.0,350.0,1.0,,,,,,,,,magenta,circle
0.0,2.0,1.0,0.0,6.0,6.0,623.0816498864442,5.0,1.0,phase_2,go,500.0,350.0,1.0,,,,,,,,,green,square
0.0,4.0,4.0,0.0,6.0,6.0,485.5330898426473,5.0,1.0,phase_2,go,500.0,350.0,1.0,,,,,,,,,cyan,I
0.0,3.0,2.0,0.0,5.0,5.0,639.3468710593879,5.0,1.0,phase_2,go,500.0,350.0,1.0,,,,,,,,,white,triangle
0.0,3.0,2.0,0.0,5.0,5.0,694.5114941336215,5.0,1.0,phase_2,go,500.0,350.0,1.0,,,,,,,,,white,triangle
0.0,2.0,1.0,0.0,6.0,6.0,723.4709530603141,5.0,1.0,phase_2,go,500.0,350.0,1.0,,,,,,,,,green,square
0.0,4.0,4.0,0.0,5.0,5.0,455.3029220551252,5.0,1.0,phase_2,go,500.0,350.0,1.0,,,,,,,,,cyan,I
0.0,5.0,0.5,1.0,6.0,6.0,419.3023021798581,5.0,1.0,phase_2,stop,500.0,350.0,3.0,,,,,,,,,magenta,circle
0.0,4.0,4.0,0.0,5.0,5.0,522.1395038533956,5.0,1.0,phase_2,go,500.0,300.0,1.0,,,,,,,,,cyan,I
0.0,6.0,1.0,1.0,5.0,0.0,0.0,5.0,1.0,phase_2,stop,500.0,300.0,4.0,,,,,,,,,gray,cross
0.0,8.0,4.0,1.0,5.0,5.0,574.4309849105775,5.0,1.0,phase_2,stop,550.0,300.0,3.0,,,,,,,,,orange,flipped triangle
0.0,4.0,4.0,0.0,5.0,5.0,592.5204430241138,5.0,1.0,phase_2,go,500.0,300.0,1.0,,,,,,,,,cyan,I
0.0,2.0,1.0,0.0,5.0,5.0,683.2127750385553,5.0,1.0,phase_2,go,500.0,300.0,1.0,,,,,,,,,green,square
0.0,3.0,2.0,0.0,6.0,6.0,650.9100941475481,5.0,1.0,phase_2,go,500.0,300.0,1.0,,,,,,,,,white,triangle
0.0,7.0,2.0,1.0,6.0,6.0,504.75363386794925,6.0,1.0,phase_2,go,500.0,300.0,1.0,,,,,,,,,blue,diamond
0.0,6.0,1.0,1.0,6.0,0.0,0.0,6.0,1.0,phase_2,stop,500.0,300.0,4.0,,,,,,,,,gray,cross
0.0,1.0,0.5,0.0,6.0,6.0,629.2015709914267,6.0,1.0,phase_2,go,500.0,350.0,1.0,,,,,,,,,yellow,hexagon
0.0,5.0,0.5,1.0,5.0,5.0,455.5557901039719,6.0,1.0,phase_2,go,500.0,350.0,1.0,,,,,,,,,magenta,circle
0.0,4.0,4.0,0.0,6.0,6.0,468.958165962249,6.0,1.0,phase_2,go,500.0,350.0,1.0,,,,,,,,,cyan,I
0.0,6.0,1.0,1.0,5.0,5.0,520.0621841941029,6.0,1.0,phase_2,stop,500.0,350.0,3.0,,,,,,,,,gray,cross
0.0,7.0,2.0,1.0,5.0,5.0,475.223772926256,6.0,1.0,phase_2,stop,450.0,350.0,3.0,,,,,,,,,blue,diamond
0.0,1.0,0.5,0.0,6.0,6.0,596.6516120824963,6.0,1.0,phase_2,go,400.0,350.0,1.0,,,,,,,,,yellow,hexagon
0.0,8.0,4.0,1.0,5.0,5.0,548.3477211091667,6.0,1.0,phase_2,stop,400.0,350.0,3.0,,,,,,,,,orange,flipped triangle
0.0,4.0,4.0,0.0,5.0,5.0,548.1698629446328,6.0,1.0,phase_2,go,350.0,350.0,1.0,,,,,,,,,cyan,I
0.0,8.0,4.0,1.0,6.0,0.0,0.0,6.0,1.0,phase_2,stop,350.0,350.0,4.0,,,,,,,,,orange,flipped triangle
0.0,1.0,0.5,0.0,6.0,6.0,657.563062151894,6.0,1.0,phase_2,go,350.0,400.0,1.0,,,,,,,,,yellow,hexagon
0.0,7.0,2.0,1.0,6.0,0.0,0.0,6.0,1.0,phase_2,stop,350.0,400.0,4.0,,,,,,,,,blue,diamond
0.0,7.0,2.0,1.0,5.0,5.0,490.9597479272634,6.0,1.0,phase_2,stop,350.0,450.0,3.0,,,,,,,,,blue,diamond
0.0,7.0,2.0,1.0,6.0,6.0,535.2063239552081,6.0,1.0,phase_2,go,300.0,450.0,1.0,,,,,,,,,blue,diamond
0.0,8.0,4.0,1.0,5.0,5.0,535.7597761321813,6.0,1.0,phase_2,go,300.0,450.0,1.0,,,,,,,,,orange,flipped triangle
0.0,2.0,1.0,0.0,5.0,5.0,616.8271999340504,6.0,1.0,phase_2,go,300.0,450.0,1.0,,,,,,,,,green,square
0.0,1.0,0.5,0.0,5.0,5.0,677.3523590527475,6.0,1.0,phase_2,go,300.0,450.0,1.0,,,,,,,,,yellow,hexagon
0.0,7.0,2.0,1.0,6.0,6.0,359.01606711559,6.0,1.0,phase_2,stop,300.0,450.0,3.0,,,,,,,,,blue,diamond
0.0,1.0,0.5,0.0,5.0,5.0,604.8366299364716,6.0,1.0,phase_2,go,300.0,400.0,1.0,,,,,,,,,yellow,hexagon
0.0,6.0,1.0,1.0,5.0,0.0,0.0,6.0,1.0,phase_2,stop,300.0,400.0,4.0,,,,,,,,,gray,cross
0.0,3.0,2.0,0.0,6.0,6.0,556.4005200285465,6.0,1.0,phase_2,go,350.0,400.0,1.0,,,,,,,,,white,triangle
0.0,3.0,2.0,0.0,5.0,5.0,454.0603368077427,6.0,1.0,phase_2,go,350.0,400.0,1.0,,,,,,,,,white,triangle
0.0,5.0,0.5,1.0,5.0,5.0,579.7946660313755,6.0,1.0,phase_2,go,350.0,400.0,1.0,,,,,,,,,magenta,circle
0.0,5.0,0.5,1.0,5.0,5.0,700.8930419106036,6.0,1.0,phase_2,stop,350.0,400.0,3.0,,,,,,,,,magenta,circle
0.0,3.0,2.0,0.0,5.0,5.0,800.8346760179847,6.0,1.0,phase_2,go,300.0,400.0,1.0,,,,,,,,,white,triangle
0.0,8.0,4.0,1.0,6.0,0.0,0.0,6.0,1.0,phase_2,stop,300.0,400.0,4.0,,,,,,,,,orange,flipped triangle
0.0,1.0,0.5,0.0,5.0,5.0,562.0234941598028,6.0,1.0,phase_2,go,300.0,450.0,1.0,,,,,,,,,yellow,hexagon
0.0,4.0,4.0,0.0,5.0,5.0,521.2918468751013,6.0,1.0,phase_2,go,300.0,450.0,1.0,,,,,,,,,cyan,I
0.0,3.0,2.0,0.0,5.0,5.0,528.8216329645365,6.0,1.0,phase_2,go,300.0,450.0,1.0,,,,,,,,,white,triangle
0.0,7.0,2.0,1.0,5.0,0.0,0.0,6.0,1.0,phase_2,stop,300.0,450.0,4.0,,,,,,,,,blue,diamond
0.0,4.0,4.0,0.0,5.0,5.0,893.4478219598532,6.0,1.0,phase_2,go,350.0,450.0,1.0,,,,,,,,,cyan,I
0.0,8.0,4.0,1.0,5.0,0.0,0.0,6.0,1.0,phase_2,stop,350.0,450.0,4.0,,,,,,,,,orange,flipped triangle
0.0,8.0,4.0,1.0,5.0,5.0,1052.2345970384777,6.0,1.0,phase_2,go,400.0,450.0,1.0,,,,,,,,,orange,flipped triangle
0.0,8.0,4.0,1.0,5.0,5.0,480.1975060254335,6.0,1.0,phase_2,stop,400.0,450.0,3.0,,,,,,,,,orange,flipped triangle
0.0,1.0,0.5,0.0,6.0,6.0,525.394206866622,6.0,1.0,phase_2,go,350.0,450.0,1.0,,,,,,,,,yellow,hexagon
0.0,3.0,2.0,0.0,5.0,5.0,474.6337949763983,7.0,1.0,phase_2,go,350.0,450.0,1.0,,,,,,,,,white,triangle
0.0,5.0,0.5,1.0,5.0,5.0,489.2212029080838,7.0,1.0,phase_2,stop,350.0,450.0,3.0,,,,,,,,,magenta,circle
0.0,5.0,0.5,1.0,6.0,6.0,413.6836749967187,7.0,1.0,phase_2,go,300.0,450.0,1.0,,,,,,,,,magenta,circle
0.0,4.0,4.0,0.0,5.0,5.0,653.8710410241038,7.0,1.0,phase_2,go,300.0,450.0,1.0,,,,,,,,,cyan,I
0.0,3.0,2.0,0.0,6.0,6.0,500.11607515625656,7.0,1.0,phase_2,go,300.0,450.0,1.0,,,,,,,,,white,triangle
0.0,1.0,0.5,0.0,6.0,6.0,623.2117349281907,7.0,1.0,phase_2,go,300.0,450.0,1.0,,,,,,,,,yellow,hexagon
0.0,5.0,0.5,1.0,5.0,0.0,0.0,7.0,1.0,phase_2,stop,300.0,450.0,4.0,,,,,,,,,magenta,circle
0.0,5.0,0.5,1.0,5.0,0.0,0.0,7.0,1.0,phase_2,stop,350.0,450.0,4.0,,,,,,,,,magenta,circle
0.0,6.0,1.0,1.0,5.0,5.0,641.9399359729141,7.0,1.0,phase_2,go,400.0,450.0,1.0,,,,,,,,,gray,cross
0.0,1.0,0.5,0.0,5.0,5.0,530.847653048113,7.0,1.0,phase_2,go,400.0,450.0,1.0,,,,,,,,,yellow,hexagon
0.0,3.0,2.0,0.0,6.0,6.0,388.9042290393263,7.0,1.0,phase_2,go,400.0,450.0,1.0,,,,,,,,,white,triangle
0.0,6.0,1.0,1.0,6.0,6.0,507.4038449674845,7.0,1.0,phase_2,stop,400.0,450.0,3.0,,,,,,,,,gray,cross
0.0,2.0,1.0,0.0,5.0,5.0,577.9810659587383,7.0,1.0,phase_2,go,400.0,400.0,1.0,,,,,,,,,green,square
0.0,1.0,0.5,0.0,6.0,6.0,519.9975280556828,7.0,1.0,phase_2,go,400.0,400.0,1.0,,,,,,,,,yellow,hexagon
0.0,3.0,2.0,0.0,6.0,6.0,615.0226269382983,7.0,1.0,phase_2,go,400.0,400.0,1.0,,,,,,,,,white,triangle
0.0,3.0,2.0,0.0,6.0,6.0,542.698492994532,7.0,1.0,phase_2,go,400.0,400.0,1.0,,,,,,,,,white,triangle
0.0,6.0,1.0,1.0,5.0,5.0,505.1817570347339,7.0,1.0,phase_2,stop,400.0,400.0,3.0,,,,,,,,,gray,cross
0.0,8.0,4.0,1.0,5.0,0.0,0.0,7.0,1.0,phase_2,stop,350.0,400.0,4.0,,,,,,,,,orange,flipped triangle
0.0,8.0,4.0,1.0,6.0,6.0,678.9634600281715,7.0,1.0,phase_2,go,400.0,400.0,1.0,,,,,,,,,orange,flipped triangle
0.0,8.0,4.0,1.0,6.0,6.0,572.3002981394529,7.0,1.0,phase_2,go,400.0,400.0,1.0,,,,,,,,,orange,flipped triangle
0.0,5.0,0.5,1.0,6.0,6.0,527.8714050073177,7.0,1.0,phase_2,stop,400.0,400.0,3.0,,,,,,,,,magenta,circle
0.0,3.0,2.0,0.0,6.0,6.0,589.5514900330454,7.0,1.0,phase_2,go,400.0,350.0,1.0,,,,,,,,,white,triangle
0.0,8.0,4.0,1.0,5.0,5.0,525.183416903019,7.0,1.0,phase_2,stop,400.0,350.0,3.0,,,,,,,,,orange,flipped triangle
0.0,6.0,1.0,1.0,5.0,0.0,0.0,7.0,1.0,phase_2,stop,350.0,350.0,4.0,,,,,,,,,gray,cross
0.0,6.0,1.0,1.0,6.0,0.0,0.0,7.0,1.0,phase_2,stop,400.0,350.0,4.0,,,,,,,,,gray,cross
0.0,2.0,1.0,0.0,5.0,5.0,449.5600550435483,7.0,1.0,phase_2,go,400.0,400.0,1.0,,,,,,,,,green,square
0.0,2.0,1.0,0.0,5.0,5.0,608.6191209033132,7.0,1.0,phase_2,go,400.0,400.0,1.0,,,,,,,,,green,square
0.0,5.0,0.5,1.0,6.0,6.0,513.5689990129322,7.0,1.0,phase_2,stop,400.0,400.0,3.0,,,,,,,,,magenta,circle
0.0,5.0,0.5,1.0,6.0,0.0,0.0,7.0,1.0,phase_2,stop,400.0,350.0,4.0,,,,,,,,,magenta,circle
0.0,8.0,4.0,1.0,5.0,0.0,0.0,7.0,1.0,phase_2,stop,400.0,400.0,4.0,,,,,,,,,orange,flipped triangle
0.0,4.0,4.0,0.0,6.0,6.0,687.9339369479567,7.0,1.0,phase_2,go,450.0,400.0,1.0,,,,,,,,,cyan,I
0.0,4.0,4.0,0.0,5.0,5.0,534.1816318687052,7.0,1.0,phase_2,go,450.0,400.0,1.0,,,,,,,,,cyan,I
0.0,7.0,2.0,1.0,6.0,6.0,495.9077329840511,7.0,1.0,phase_2,stop,450.0,400.0,3.0,,,,,,,,,blue,diamond
0.0,7.0,2.0,1.0,5.0,0.0,0.0,7.0,1.0,phase_2,stop,450.0,350.0,4.0,,,,,,,,,blue,diamond
0.0,3.0,2.0,0.0,5.0,5.0,580.7508109137416,7.0,1.0,phase_2,go,500.0,350.0,1.0,,,,,,,,,white,triangle
0.0,4.0,4.0,0.0,5.0,5.0,447.0590038690716,7.0,1.0,phase_2,go,500.0,350.0,1.0,,,,,,,,,cyan,I
0.0,8.0,4.0,1.0,5.0,5.0,574.0345139056444,8.0,1.0,phase_2,go,500.0,350.0,1.0,,,,,,,,,orange,flipped triangle
0.0,8.0,4.0,1.0,6.0,6.0,521.4501731097698,8.0,1.0,phase_2,go,500.0,350.0,1.0,,,,,,,,,orange,flipped triangle
0.0,6.0,1.0,1.0,5.0,5.0,285.8783290721476,8.0,1.0,phase_2,go,500.0,350.0,1.0,,,,,,,,,gray,cross
0.0,6.0,1.0,1.0,5.0,5.0,454.3115831911564,8.0,1.0,phase_2,stop,500.0,350.0,3.0,,,,,,,,,gray,cross
0.0,2.0,1.0,0.0,6.0,6.0,598.5455808695406,8.0,1.0,phase_2,go,450.0,350.0,1.0,,,,,,,,,green,square
0.0,7.0,2.0,1.0,5.0,5.0,716.0693961195648,8.0,1.0,phase_2,go,450.0,350.0,1.0,,,,,,,,,blue,diamond
0.0,3.0,2.0,0.0,5.0,5.0,599.6228780131787,8.0,1.0,phase_2,go,450.0,350.0,1.0,,,,,,,,,white,triangle
0.0,6.0,1.0,1.0,5.0,0.0,0.0,8.0,1.0,phase_2,stop,450.0,350.0,4.0,,,,,,,,,gray,cross
0.0,7.0,2.0,1.0,5.0,0.0,0.0,8.0,1.0,phase_2,stop,500.0,350.0,4.0,,,,,,,,,blue,diamond
0.0,5.0,0.5,1.0,5.0,5.0,625.7771619129926,8.0,1.0,phase_2,stop,550.0,350.0,3.0,,,,,,,,,magenta,circle
0.0,1.0,0.5,0.0,6.0,6.0,554.3984940741211,8.0,1.0,phase_2,go,500.0,350.0,1.0,,,,,,,,,yellow,hexagon
0.0,3.0,2.0,0.0,6.0,6.0,712.3196139000356,8.0,1.0,phase_2,go,500.0,350.0,1.0,,,,,,,,,white,triangle
0.0,8.0,4.0,1.0,6.0,0.0,0.0,8.0,1.0,phase_2,stop,500.0,350.0,4.0,,,,,,,,,orange,flipped triangle
0.0,7.0,2.0,1.0,5.0,5.0,600.4785317927599,8.0,1.0,phase_2,stop,500.0,400.0,3.0,,,,,,,,,blue,diamond
0.0,7.0,2.0,1.0,6.0,0.0,0.0,8.0,1.0,phase_2,stop,450.0,400.0,4.0,,,,,,,,,blue,diamond
0.0,4.0,4.0,0.0,6.0,6.0,670.8009571302682,8.0,1.0,phase_2,go,450.0,450.0,1.0,,,,,,,,,cyan,I
0.0,7.0,2.0,1.0,5.0,5.0,502.10945401340723,8.0,1.0,phase_2,stop,450.0,450.0,3.0,,,,,,,,,blue,diamond
0.0,3.0,2.0,0.0,6.0,6.0,968.4087168425322,8.0,1.0,phase_2,go,400.0,450.0,1.0,,,,,,,,,white,triangle
0.0,3.0,2.0,0.0,5.0,5.0,574.55027801916,8.0,1.0,phase_2,go,400.0,450.0,1.0,,,,,,,,,white,triangle
0.0,3.0,2.0,0.0,5.0,5.0,486.0772718675434,8.0,1.0,phase_2,go,400.0,450.0,1.0,,,,,,,,,white,triangle
0.0,7.0,2.0,1.0,6.0,6.0,574.6982980053872,8.0,1.0,phase_2,stop,400.0,450.0,3.0,,,,,,,,,blue,diamond
0.0,2.0,1.0,0.0,6.0,6.0,588.775706011802,8.0,1.0,phase_2,go,400.0,400.0,1.0,,,,,,,,,green,square
0.0,1.0,0.5,0.0,6.0,6.0,413.0200438667089,8.0,1.0,phase_2,go,400.0,400.0,1.0,,,,,,,,,yellow,hexagon
0.0,1.0,0.5,0.0,5.0,5.0,578.4859389532357,8.0,1.0,phase_2,go,400.0,400.0,1.0,,,,,,,,,yellow,hexagon
0.0,2.0,1.0,0.0,5.0,5.0,514.7043890319765,8.0,1.0,phase_2,go,400.0,400.0,1.0,,,,,,,,,green,square
0.0,5.0,0.5,1.0,5.0,0.0,0.0,8.0,1.0,phase_2,stop,400.0,400.0,4.0,,,,,,,,,magenta,circle
0.0,8.0,4.0,1.0,5.0,0.0,0.0,8.0,1.0,phase_2,stop,450.0,400.0,4.0,,,,,,,,,orange,flipped triangle
0.0,1.0,0.5,0.0,5.0,5.0,505.08740497753024,8.0,1.0,phase_2,go,500.0,400.0,1.0,,,,,,,,,yellow,hexagon
0.0,5.0,0.5,1.0,6.0,0.0,0.0,8.0,1.0,phase_2,stop,500.0,400.0,4.0,,,,,,,,,magenta,circle
0.0,6.0,1.0,1.0,6.0,0.0,0.0,8.0,1.0,phase_2,stop,500.0,450.0,4.0,,,,,,,,,gray,cross
0.0,6.0,1.0,1.0,5.0,5.0,574.0410469006747,8.0,1.0,phase_2,go,500.0,500.0,1.0,,,,,,,,,gray,cross
0.0,7.0,2.0,1.0,6.0,6.0,638.0357760936022,8.0,1.0,phase_2,stop,500.0,500.0,3.0,,,,,,,,,blue,diamond
0.0,4.0,4.0,0.0,6.0,6.0,567.5114698242396,8.0,1.0,phase_2,go,500.0,450.0,1.0,,,,,,,,,cyan,I
0.0,5.0,0.5,1.0,5.0,5.0,525.3341230563819,8.0,1.0,phase_2,stop,500.0,450.0,3.0,,,,,,,,,magenta,circle
0.0,5.0,0.5,1.0,5.0,5.0,869.8349290061742,8.0,1.0,phase_2,go,450.0,450.0,1.0,,,,,,,,,magenta,circle
0.0,7.0,2.0,1.0,5.0,5.0,645.882444921881,8.0,1.0,phase_2,go,450.0,450.0,1.0,,,,,,,,,blue,diamond
0.0,3.0,2.0,0.0,7.0,3.0,2810.6003319844604,1.0,2.0,phase_3,,,,,195.0,5.0,234.0,39.0,195.0,117.0,156.0,78.0,white,triangle
0.0,8.0,4.0,1.0,7.0,6.0,2884.357738075778,1.0,1.0,phase_3,,,,,204.0,6.0,102.0,34.0,68.0,170.0,136.0,204.0,orange,flipped triangle
0.0,4.0,4.0,0.0,7.0,3.0,2136.6888019256294,1.0,1.0,phase_3,,,,,324.0,6.0,270.0,162.0,324.0,54.0,108.0,216.0,cyan,I
0.0,3.0,2.0,0.0,7.0,3.0,2953.936906065792,1.0,1.0,phase_3,,,,,49.0,1.0,294.0,196.0,49.0,98.0,147.0,245.0,white,triangle
0.0,8.0,4.0,1.0,7.0,1.0,1954.6660350169984,1.0,1.0,phase_3,,,,,324.0,6.0,324.0,162.0,54.0,108.0,216.0,270.0,orange,flipped triangle
0.0,6.0,1.0,1.0,7.0,3.0,1666.5191571228206,1.0,1.0,phase_3,,,,,34.0,1.0,204.0,170.0,34.0,136.0,102.0,68.0,gray,cross
0.0,8.0,4.0,1.0,7.0,1.0,2086.8673438671976,1.0,1.0,phase_3,,,,,245.0,5.0,245.0,147.0,196.0,98.0,294.0,49.0,orange,flipped triangle
0.0,6.0,1.0,1.0,7.0,4.0,884.5654809847474,1.0,1.0,phase_3,,,,,54.0,1.0,108.0,162.0,270.0,54.0,324.0,216.0,gray,cross
0.0,7.0,2.0,1.0,7.0,3.0,1618.009409867227,1.0,1.0,phase_3,,,,,195.0,5.0,234.0,156.0,195.0,39.0,117.0,78.0,blue,diamond
0.0,5.0,0.5,1.0,7.0,3.0,1399.5918710716069,1.0,1.0,phase_3,,,,,78.0,2.0,195.0,234.0,78.0,39.0,156.0,117.0,magenta,circle
0.0,5.0,0.5,1.0,7.0,3.0,1876.6748828347768,1.0,1.0,phase_3,,,,,176.0,4.0,132.0,220.0,176.0,44.0,88.0,264.0,magenta,circle
0.0,8.0,4.0,1.0,7.0,6.0,1555.629459908232,1.0,1.0,phase_3,,,,,234.0,6.0,39.0,156.0,195.0,78.0,117.0,234.0,orange,flipped triangle
0.0,5.0,0.5,1.0,7.0,3.0,2262.449068017304,1.0,1.0,phase_3,,,,,44.0,1.0,176.0,88.0,44.0,220.0,264.0,132.0,magenta,circle
0.0,1.0,0.5,0.0,7.0,1.0,1397.3859909456223,1.0,1.0,phase_3,,,,,156.0,4.0,156.0,234.0,195.0,78.0,117.0,39.0,yellow,hexagon
0.0,7.0,2.0,1.0,7.0,5.0,1016.8606778606772,1.0,1.0,phase_3,,,,,264.0,6.0,220.0,44.0,88.0,132.0,264.0,176.0,blue,diamond
0.0,6.0,1.0,1.0,7.0,2.0,1039.2985527869314,1.0,1.0,phase_3,,,,,44.0,1.0,220.0,44.0,88.0,176.0,264.0,132.0,gray,cross
0.0,6.0,1.0,1.0,7.0,5.0,1643.5932668391615,1.0,1.0,phase_3,,,,,44.0,1.0,176.0,220.0,88.0,264.0,44.0,132.0,gray,cross
0.0,3.0,2.0,0.0,7.0,5.0,1700.4425169434398,1.0,1.0,phase_3,,,,,147.0,3.0,245.0,294.0,196.0,98.0,147.0,49.0,white,triangle
0.0,4.0,4.0,0.0,7.0,3.0,1678.9560520555824,1.0,1.0,phase_3,,,,,204.0,6.0,102.0,136.0,204.0,68.0,34.0,170.0,cyan,I
0.0,3.0,2.0,0.0,7.0,5.0,1657.1303000673652,1.0,1.0,phase_3,,,,,88.0,2.0,176.0,264.0,132.0,44.0,88.0,220.0,white,triangle
0.0,4.0,4.0,0.0,7.0,2.0,1428.408786887303,2.0,1.0,phase_3,,,,,294.0,6.0,49.0,294.0,98.0,196.0,245.0,147.0,cyan,I
0.0,7.0,2.0,1.0,7.0,2.0,2261.04030595161,2.0,1.0,phase_3,,,,,216.0,4.0,162.0,216.0,270.0,324.0,54.0,108.0,blue,diamond
0.0,7.0,2.0,1.0,7.0,5.0,2622.5689651910216,2.0,1.0,phase_3,,,,,245.0,5.0,147.0,196.0,49.0,98.0,245.0,294.0,blue,diamond
0.0,4.0,4.0,0.0,7.0,3.0,1083.789189811796,2.0,1.0,phase_3,,,,,264.0,6.0,176.0,88.0,264.0,132.0,220.0,44.0,cyan,I
0.0,7.0,2.0,1.0,7.0,2.0,1283.155226148665,2.0,1.0,phase_3,,,,,156.0,4.0,117.0,156.0,195.0,39.0,78.0,234.0,blue,diamond
0.0,5.0,0.5,1.0,7.0,4.0,1341.3695560302583,2.0,1.0,phase_3,,,,,108.0,2.0,324.0,270.0,162.0,108.0,216.0,54.0,magenta,circle
0.0,6.0,1.0,1.0,7.0,2.0,926.3224902097136,2.0,1.0,phase_3,,,,,39.0,1.0,234.0,39.0,195.0,156.0,78.0,117.0,gray,cross
0.0,2.0,1.0,0.0,7.0,5.0,1295.0356090441346,2.0,1.0,phase_3,,,,,132.0,3.0,176.0,264.0,88.0,220.0,132.0,44.0,green,square
0.0,2.0,1.0,0.0,7.0,4.0,1712.713462067768,2.0,1.0,phase_3,,,,,162.0,3.0,216.0,54.0,270.0,162.0,108.0,324.0,green,square
0.0,7.0,2.0,1.0,7.0,1.0,2336.928698001429,2.0,1.0,phase_3,,,,,196.0,4.0,196.0,294.0,98.0,245.0,49.0,147.0,blue,diamond
0.0,3.0,2.0,0.0,7.0,2.0,2498.5528520774096,2.0,1.0,phase_3,,,,,108.0,2.0,270.0,108.0,162.0,324.0,216.0,54.0,white,triangle
0.0,8.0,4.0,1.0,7.0,3.0,2205.7566980365664,2.0,1.0,phase_3,,,,,204.0,6.0,34.0,68.0,204.0,170.0,102.0,136.0,orange,flipped triangle
0.0,4.0,4.0,0.0,7.0,4.0,2108.9847129769623,2.0,1.0,phase_3,,,,,195.0,5.0,156.0,117.0,78.0,195.0,39.0,234.0,cyan,I
0.0,5.0,0.5,1.0,7.0,5.0,1727.1174241323024,2.0,1.0,phase_3,,,,,98.0,2.0,196.0,147.0,294.0,49.0,98.0,245.0,magenta,circle
0.0,7.0,2.0,1.0,7.0,3.0,1730.8007651008666,2.0,1.0,phase_3,,,,,216.0,4.0,270.0,162.0,216.0,108.0,324.0,54.0,blue,diamond
0.0,1.0,0.5,0.0,7.0,4.0,1450.9246300440282,2.0,1.0,phase_3,,,,,98.0,2.0,49.0,294.0,196.0,98.0,245.0,147.0,yellow,hexagon
0.0,6.0,1.0,1.0,7.0,1.0,995.399204082787,2.0,1.0,phase_3,,,,,49.0,1.0,49.0,294.0,147.0,98.0,196.0,245.0,gray,cross
0.0,4.0,4.0,0.0,7.0,6.0,1692.6999669522047,2.0,1.0,phase_3,,,,,234.0,6.0,195.0,156.0,78.0,39.0,117.0,234.0,cyan,I
0.0,6.0,1.0,1.0,7.0,3.0,935.6020130217076,2.0,1.0,phase_3,,,,,54.0,1.0,216.0,162.0,54.0,270.0,324.0,108.0,gray,cross
0.0,1.0,0.5,0.0,7.0,6.0,2309.484746074304,2.0,1.0,phase_3,,,,,102.0,3.0,34.0,204.0,136.0,68.0,170.0,102.0,yellow,hexagon
0.0,8.0,4.0,1.0,7.0,6.0,1555.504658957943,3.0,1.0,phase_3,,,,,264.0,6.0,176.0,220.0,88.0,132.0,44.0,264.0,orange,flipped triangle
0.0,4.0,4.0,0.0,7.0,3.0,1004.5061600394547,3.0,1.0,phase_3,,,,,294.0,6.0,147.0,49.0,294.0,98.0,196.0,245.0,cyan,I
0.0,4.0,4.0,0.0,7.0,2.0,1918.2051268871876,3.0,1.0,phase_3,,,,,324.0,6.0,270.0,324.0,54.0,216.0,108.0,162.0,cyan,I
0.0,2.0,1.0,0.0,7.0,1.0,1470.8497989922762,3.0,1.0,phase_3,,,,,132.0,3.0,132.0,88.0,44.0,220.0,264.0,176.0,green,square
0.0,2.0,1.0,0.0,7.0,2.0,1066.0976469516754,3.0,1.0,phase_3,,,,,147.0,3.0,196.0,147.0,98.0,49.0,294.0,245.0,green,square
0.0,1.0,0.5,0.0,7.0,2.0,2057.135951938108,3.0,1.0,phase_3,,,,,147.0,3.0,196.0,147.0,294.0,49.0,98.0,245.0,yellow,hexagon
0.0,3.0,2.0,0.0,7.0,6.0,1525.340758031234,3.0,1.0,phase_3,,,,,102.0,3.0,68.0,204.0,34.0,170.0,136.0,102.0,white,triangle
0.0,7.0,2.0,1.0,7.0,4.0,2075.034457957372,3.0,1.0,phase_3,,,,,170.0,5.0,204.0,136.0,68.0,170.0,34.0,102.0,blue,diamond
0.0,7.0,2.0,1.0,7.0,1.0,1580.093625932932,3.0,1.0,phase_3,,,,,176.0,4.0,176.0,44.0,88.0,264.0,220.0,132.0,blue,diamond
0.0,2.0,1.0,0.0,7.0,5.0,2048.206197097897,3.0,1.0,phase_3,,,,,117.0,3.0,39.0,78.0,195.0,234.0,117.0,156.0,green,square
0.0,5.0,0.5,1.0,7.0,5.0,2720.8637308795005,3.0,1.0,phase_3,,,,,98.0,2.0,147.0,245.0,49.0,294.0,98.0,196.0,magenta,circle
0.0,3.0,2.0,0.0,7.0,4.0,1851.480805082247,3.0,1.0,phase_3,,,,,117.0,3.0,234.0,195.0,78.0,117.0,156.0,39.0,white,triangle
0.0,7.0,2.0,1.0,7.0,4.0,1756.873644888401,3.0,1.0,phase_3,,,,,136.0,4.0,102.0,204.0,34.0,136.0,170.0,68.0,blue,diamond
0.0,1.0,0.5,0.0,7.0,2.0,1494.8582448996603,3.0,1.0,phase_3,,,,,78.0,2.0,234.0,78.0,156.0,195.0,39.0,117.0,yellow,hexagon
0.0,8.0,4.0,1.0,7.0,5.0,2231.5083211287856,3.0,1.0,phase_3,,,,,264.0,6.0,132.0,44.0,220.0,176.0,264.0,88.0,orange,flipped triangle
0.0,4.0,4.0,0.0,7.0,1.0,1581.5952089615166,3.0,1.0,phase_3,,,,,204.0,6.0,204.0,34.0,170.0,68.0,102.0,136.0,cyan,I
0.0,4.0,4.0,0.0,7.0,2.0,1047.4757479969412,3.0,1.0,phase_3,,,,,264.0,6.0,176.0,264.0,132.0,88.0,44.0,220.0,cyan,I
0.0,5.0,0.5,1.0,7.0,1.0,2464.8223840631545,3.0,1.0,phase_3,,,,,34.0,1.0,34.0,170.0,68.0,136.0,102.0,204.0,magenta,circle
0.0,6.0,1.0,1.0,7.0,3.0,1522.223823936656,3.0,1.0,phase_3,,,,,39.0,1.0,117.0,195.0,39.0,234.0,156.0,78.0,gray,cross
0.0,1.0,0.5,0.0,7.0,2.0,2405.5867111310363,3.0,1.0,phase_3,,,,,108.0,2.0,54.0,108.0,216.0,324.0,162.0,270.0,yellow,hexagon
0.0,3.0,2.0,0.0,7.0,1.0,3073.724613059312,4.0,1.0,phase_3,,,,,176.0,4.0,176.0,132.0,220.0,264.0,44.0,88.0,white,triangle
0.0,5.0,0.5,1.0,7.0,4.0,1246.1774051189425,4.0,1.0,phase_3,,,,,68.0,2.0,170.0,136.0,102.0,68.0,34.0,204.0,magenta,circle
0.0,5.0,0.5,1.0,7.0,2.0,1878.031768836081,4.0,1.0,phase_3,,,,,162.0,3.0,216.0,162.0,324.0,270.0,54.0,108.0,magenta,circle
0.0,8.0,4.0,1.0,7.0,2.0,1638.1446381565183,4.0,1.0,phase_3,,,,,234.0,6.0,78.0,234.0,117.0,156.0,39.0,195.0,orange,flipped triangle
0.0,6.0,1.0,1.0,7.0,1.0,1889.5018878392875,4.0,1.0,phase_3,,,,,34.0,1.0,34.0,102.0,136.0,204.0,170.0,68.0,gray,cross
0.0,2.0,1.0,0.0,7.0,3.0,1786.771735176444,4.0,1.0,phase_3,,,,,108.0,2.0,324.0,54.0,108.0,216.0,270.0,162.0,green,square
0.0,2.0,1.0,0.0,7.0,5.0,1611.0792409162968,4.0,1.0,phase_3,,,,,102.0,3.0,68.0,204.0,136.0,170.0,102.0,34.0,green,square
0.0,1.0,0.5,0.0,7.0,6.0,2716.3268860895187,4.0,1.0,phase_3,,,,,68.0,2.0,204.0,102.0,136.0,34.0,170.0,68.0,yellow,hexagon
0.0,1.0,0.5,0.0,7.0,6.0,3536.587832029909,4.0,1.0,phase_3,,,,,54.0,1.0,108.0,216.0,270.0,162.0,324.0,54.0,yellow,hexagon
0.0,2.0,1.0,0.0,7.0,5.0,1905.185710871592,4.0,1.0,phase_3,,,,,136.0,4.0,204.0,34.0,68.0,102.0,136.0,170.0,green,square
0.0,1.0,0.5,0.0,7.0,1.0,1848.728968994692,4.0,1.0,phase_3,,,,,88.0,2.0,88.0,132.0,220.0,176.0,44.0,264.0,yellow,hexagon
0.0,3.0,2.0,0.0,7.0,4.0,1979.499990819022,4.0,1.0,phase_3,,,,,68.0,2.0,102.0,34.0,136.0,68.0,170.0,204.0,white,triangle
0.0,1.0,0.5,0.0,7.0,1.0,2763.6609480250627,4.0,1.0,phase_3,,,,,88.0,2.0,88.0,44.0,132.0,264.0,176.0,220.0,yellow,hexagon
0.0,3.0,2.0,0.0,7.0,2.0,2423.851211089641,4.0,1.0,phase_3,,,,,108.0,2.0,162.0,108.0,216.0,324.0,54.0,270.0,white,triangle
0.0,2.0,1.0,0.0,7.0,1.0,2141.067485092208,4.0,1.0,phase_3,,,,,147.0,3.0,147.0,245.0,49.0,196.0,98.0,294.0,green,square
0.0,5.0,0.5,1.0,7.0,5.0,1705.9304278809575,4.0,1.0,phase_3,,,,,78.0,2.0,195.0,156.0,234.0,117.0,78.0,39.0,magenta,circle
0.0,8.0,4.0,1.0,7.0,2.0,1057.695922907442,4.0,1.0,phase_3,,,,,294.0,6.0,196.0,294.0,147.0,49.0,98.0,245.0,orange,flipped triangle
0.0,8.0,4.0,1.0,7.0,1.0,1225.4979661665857,4.0,1.0,phase_3,,,,,216.0,4.0,216.0,162.0,54.0,108.0,324.0,270.0,orange,flipped triangle
0.0,6.0,1.0,1.0,7.0,5.0,1531.5492020454258,4.0,1.0,phase_3,,,,,49.0,1.0,147.0,245.0,294.0,196.0,49.0,98.0,gray,cross
0.0,2.0,1.0,0.0,7.0,3.0,1365.395028842613,4.0,1.0,phase_3,,,,,39.0,1.0,195.0,234.0,39.0,117.0,156.0,78.0,green,square
