raw_reward_magnitude,stim_reward,stepwise_reward_magnitude,paired_with_stopping,stim_location,response,reaction_time,block,num_trial_presentations,which_phase,stop_signal_trial_type,left_SSD,right_SSD,accuracy,chosen_bidding_amount,chosen_bidding_level,possible_bid_1,possible_bid_2,possible_bid_3,possible_bid_4,possible_bid_5,possible_bid_6,color_text,shape_text
377.0,4.0,4.0,0.0,4.0,4.0,412.4638878274709,1.0,1.0,phase_1,,,,,,,,,,,,,white,flipped triangle
99.0,2.0,2.0,0.0,1.0,1.0,359.2064040713012,1.0,1.0,phase_1,,,,,,,,,,,,,cyan,square
64.0,5.0,1.0,1.0,3.0,3.0,270.910190185532,1.0,1.0,phase_1,,,,,,,,,,,,,blue,triangle
43.0,5.0,1.0,1.0,1.0,1.0,346.3650450576097,1.0,1.0,phase_1,,,,,,,,,,,,,blue,triangle
188.0,7.0,3.0,1.0,1.0,1.0,332.3337589390576,1.0,1.0,phase_1,,,,,,,,,,,,,magenta,cross
202.0,7.0,3.0,1.0,3.0,3.0,251.4211658854037,1.0,1.0,phase_1,,,,,,,,,,,,,magenta,cross
198.0,3.0,3.0,0.0,2.0,2.0,270.7294379360974,1.0,1.0,phase_1,,,,,,,,,,,,,yellow,diamond
0.0,2.0,0.0,0.0,4.0,4.0,378.1140099745244,1.0,2.0,phase_1,,,,,,,,,,,,,cyan,square
41.0,5.0,1.0,1.0,3.0,3.0,324.4030398782342,1.0,1.0,phase_1,,,,,,,,,,,,,blue,triangle
99.0,2.0,2.0,0.0,4.0,4.0,338.1388909183442,1.0,1.0,phase_1,,,,,,,,,,,,,cyan,square
0.0,4.0,0.0,0.0,1.0,1.0,332.9463240224868,1.0,1.0,phase_1,,,,,,,,,,,,,white,flipped triangle
0.0,6.0,0.0,1.0,1.0,1.0,353.5167928785085,1.0,1.0,phase_1,,,,,,,,,,,,,orange,hexagon
403.0,4.0,4.0,0.0,3.0,3.0,263.3327220100909,1.0,1.0,phase_1,,,,,,,,,,,,,white,flipped triangle
182.0,3.0,3.0,0.0,4.0,4.0,325.9128490462899,1.0,1.0,phase_1,,,,,,,,,,,,,yellow,diamond
0.0,2.0,0.0,0.0,2.0,2.0,280.8897180948406,1.0,1.0,phase_1,,,,,,,,,,,,,cyan,square
192.0,3.0,3.0,0.0,1.0,1.0,263.1131680682301,1.0,1.0,phase_1,,,,,,,,,,,,,yellow,diamond
113.0,6.0,2.0,1.0,1.0,1.0,328.9345279335975,1.0,1.0,phase_1,,,,,,,,,,,,,orange,hexagon
42.0,1.0,1.0,0.0,4.0,4.0,374.8142048716545,1.0,1.0,phase_1,,,,,,,,,,,,,green,I
203.0,3.0,3.0,0.0,1.0,1.0,349.9297669623047,1.0,1.0,phase_1,,,,,,,,,,,,,yellow,diamond
198.0,7.0,3.0,1.0,3.0,3.0,335.736874025315,1.0,1.0,phase_1,,,,,,,,,,,,,magenta,cross
205.0,3.0,3.0,0.0,2.0,2.0,366.3505930453539,1.0,1.0,phase_1,,,,,,,,,,,,,yellow,diamond
0.0,6.0,0.0,1.0,2.0,2.0,482.22136893309647,1.0,1.0,phase_1,,,,,,,,,,,,,orange,hexagon
80.0,2.0,2.0,0.0,3.0,3.0,313.7598640751093,1.0,1.0,phase_1,,,,,,,,,,,,,cyan,square
223.0,7.0,3.0,1.0,4.0,4.0,349.5448040775955,1.0,1.0,phase_1,,,,,,,,,,,,,magenta,cross
56.0,1.0,1.0,0.0,1.0,1.0,303.1428579706698,1.0,1.0,phase_1,,,,,,,,,,,,,green,I
0.0,6.0,0.0,1.0,4.0,4.0,340.2325131464749,1.0,1.0,phase_1,,,,,,,,,,,,,orange,hexagon
120.0,2.0,2.0,0.0,3.0,3.0,339.3324878998101,1.0,1.0,phase_1,,,,,,,,,,,,,cyan,square
214.0,7.0,3.0,1.0,1.0,1.0,316.6881981305778,1.0,1.0,phase_1,,,,,,,,,,,,,magenta,cross
0.0,2.0,0.0,0.0,1.0,1.0,267.5670050084591,1.0,1.0,phase_1,,,,,,,,,,,,,cyan,square
418.0,8.0,4.0,1.0,1.0,1.0,368.0394201073795,1.0,1.0,phase_1,,,,,,,,,,,,,gray,circle
122.0,2.0,2.0,0.0,1.0,1.0,414.5074358675629,1.0,1.0,phase_1,,,,,,,,,,,,,cyan,square
211.0,7.0,3.0,1.0,2.0,2.0,336.519714910537,1.0,1.0,phase_1,,,,,,,,,,,,,magenta,cross
51.0,5.0,1.0,1.0,2.0,2.0,254.48026391677558,1.0,1.0,phase_1,,,,,,,,,,,,,blue,triangle
93.0,2.0,2.0,0.0,2.0,2.0,299.8946979641914,1.0,1.0,phase_1,,,,,,,,,,,,,cyan,square
107.0,6.0,2.0,1.0,3.0,3.0,417.0004760380834,1.0,1.0,phase_1,,,,,,,,,,,,,orange,hexagon
412.0,8.0,4.0,1.0,4.0,4.0,364.6588528063148,1.0,1.0,phase_1,,,,,,,,,,,,,gray,circle
223.0,3.0,3.0,0.0,3.0,3.0,271.4498438872397,1.0,1.0,phase_1,,,,,,,,,,,,,yellow,diamond
215.0,3.0,3.0,0.0,3.0,3.0,348.4852309338748,1.0,1.0,phase_1,,,,,,,,,,,,,yellow,diamond
122.0,2.0,2.0,0.0,2.0,2.0,388.0023970268667,1.0,1.0,phase_1,,,,,,,,,,,,,cyan,square
215.0,7.0,3.0,1.0,2.0,2.0,374.6742729563266,1.0,1.0,phase_1,,,,,,,,,,,,,magenta,cross
70.0,5.0,1.0,1.0,2.0,2.0,275.4004269372672,1.0,1.0,phase_1,,,,,,,,,,,,,blue,triangle
0.0,8.0,0.0,1.0,2.0,2.0,289.1715848818421,1.0,1.0,phase_1,,,,,,,,,,,,,gray,circle
0.0,6.0,0.0,1.0,3.0,3.0,355.7232080493122,1.0,1.0,phase_1,,,,,,,,,,,,,orange,hexagon
66.0,5.0,1.0,1.0,1.0,1.0,419.515835121274,1.0,1.0,phase_1,,,,,,,,,,,,,blue,triangle
96.0,6.0,2.0,1.0,2.0,2.0,300.2968518994748,1.0,1.0,phase_1,,,,,,,,,,,,,orange,hexagon
42.0,5.0,1.0,1.0,3.0,3.0,276.1998679488897,1.0,1.0,phase_1,,,,,,,,,,,,,blue,triangle
0.0,1.0,0.0,0.0,1.0,1.0,393.8532969914377,1.0,1.0,phase_1,,,,,,,,,,,,,green,I
104.0,6.0,2.0,1.0,3.0,3.0,292.6214239560067,1.0,1.0,phase_1,,,,,,,,,,,,,orange,hexagon
31.0,5.0,1.0,1.0,1.0,1.0,295.5922042019665,1.0,1.0,phase_1,,,,,,,,,,,,,blue,triangle
0.0,6.0,0.0,1.0,1.0,1.0,334.2168929520994,1.0,1.0,phase_1,,,,,,,,,,,,,orange,hexagon
63.0,5.0,1.0,1.0,4.0,4.0,307.7512360177934,1.0,1.0,phase_1,,,,,,,,,,,,,blue,triangle
399.0,4.0,4.0,0.0,3.0,3.0,289.5590141415596,1.0,1.0,phase_1,,,,,,,,,,,,,white,flipped triangle
220.0,3.0,3.0,0.0,4.0,4.0,370.0331798754632,1.0,1.0,phase_1,,,,,,,,,,,,,yellow,diamond
407.0,8.0,4.0,1.0,4.0,4.0,302.7349589392543,1.0,1.0,phase_1,,,,,,,,,,,,,gray,circle
209.0,7.0,3.0,1.0,1.0,1.0,246.7047178652137,1.0,1.0,phase_1,,,,,,,,,,,,,magenta,cross
0.0,3.0,0.0,0.0,4.0,4.0,266.5267940610647,1.0,1.0,phase_1,,,,,,,,,,,,,yellow,diamond
52.0,1.0,1.0,0.0,3.0,3.0,309.4003510195762,1.0,1.0,phase_1,,,,,,,,,,,,,green,I
389.0,8.0,4.0,1.0,2.0,2.0,267.2533821314573,1.0,1.0,phase_1,,,,,,,,,,,,,gray,circle
108.0,2.0,2.0,0.0,1.0,1.0,351.4025169424712,1.0,1.0,phase_1,,,,,,,,,,,,,cyan,square
28.0,1.0,1.0,0.0,4.0,4.0,282.637485070154,1.0,1.0,phase_1,,,,,,,,,,,,,green,I
424.0,8.0,4.0,1.0,2.0,2.0,263.3653949014842,1.0,1.0,phase_1,,,,,,,,,,,,,gray,circle
0.0,3.0,0.0,0.0,3.0,3.0,303.9963711053133,1.0,1.0,phase_1,,,,,,,,,,,,,yellow,diamond
119.0,2.0,2.0,0.0,2.0,2.0,520.8467431366444,1.0,1.0,phase_1,,,,,,,,,,,,,cyan,square
74.0,1.0,1.0,0.0,4.0,4.0,326.980188023299,1.0,1.0,phase_1,,,,,,,,,,,,,green,I
70.0,1.0,1.0,0.0,4.0,4.0,292.6810011267662,1.0,1.0,phase_1,,,,,,,,,,,,,green,I
221.0,7.0,3.0,1.0,1.0,1.0,271.420129109174,1.0,1.0,phase_1,,,,,,,,,,,,,magenta,cross
179.0,3.0,3.0,0.0,4.0,4.0,253.2436139881611,1.0,1.0,phase_1,,,,,,,,,,,,,yellow,diamond
0.0,1.0,0.0,0.0,3.0,3.0,275.9348810650408,1.0,1.0,phase_1,,,,,,,,,,,,,green,I
189.0,7.0,3.0,1.0,4.0,4.0,287.4423151370138,1.0,1.0,phase_1,,,,,,,,,,,,,magenta,cross
175.0,3.0,3.0,0.0,2.0,2.0,251.7768330872059,1.0,1.0,phase_1,,,,,,,,,,,,,yellow,diamond
117.0,2.0,2.0,0.0,1.0,1.0,302.55450704135,1.0,1.0,phase_1,,,,,,,,,,,,,cyan,square
388.0,4.0,4.0,0.0,4.0,4.0,283.292667940259,1.0,1.0,phase_1,,,,,,,,,,,,,white,flipped triangle
36.0,1.0,1.0,0.0,4.0,4.0,338.1984520237893,1.0,1.0,phase_1,,,,,,,,,,,,,green,I
181.0,7.0,3.0,1.0,2.0,2.0,276.2022379320115,1.0,1.0,phase_1,,,,,,,,,,,,,magenta,cross
104.0,2.0,2.0,0.0,1.0,1.0,325.5775228608399,1.0,2.0,phase_1,,,,,,,,,,,,,cyan,square
403.0,4.0,4.0,0.0,2.0,2.0,331.4676939044148,1.0,1.0,phase_1,,,,,,,,,,,,,white,flipped triangle
202.0,3.0,3.0,0.0,4.0,4.0,313.9788140542805,1.0,1.0,phase_1,,,,,,,,,,,,,yellow,diamond
195.0,3.0,3.0,0.0,2.0,2.0,283.5870638955384,1.0,1.0,phase_1,,,,,,,,,,,,,yellow,diamond
34.0,1.0,1.0,0.0,3.0,3.0,489.3928309902549,1.0,1.0,phase_1,,,,,,,,,,,,,green,I
378.0,8.0,4.0,1.0,3.0,3.0,320.2492920681834,1.0,1.0,phase_1,,,,,,,,,,,,,gray,circle
72.0,5.0,1.0,1.0,1.0,1.0,323.0935260653496,1.0,1.0,phase_1,,,,,,,,,,,,,blue,triangle
188.0,3.0,3.0,0.0,1.0,1.0,384.9481849465519,1.0,1.0,phase_1,,,,,,,,,,,,,yellow,diamond
382.0,8.0,4.0,1.0,3.0,3.0,311.4092499017715,1.0,1.0,phase_1,,,,,,,,,,,,,gray,circle
180.0,3.0,3.0,0.0,3.0,3.0,329.7999599017203,1.0,1.0,phase_1,,,,,,,,,,,,,yellow,diamond
203.0,7.0,3.0,1.0,3.0,3.0,335.610463982448,1.0,1.0,phase_1,,,,,,,,,,,,,magenta,cross
0.0,2.0,0.0,0.0,4.0,4.0,330.4863029625267,1.0,1.0,phase_1,,,,,,,,,,,,,cyan,square
0.0,2.0,0.0,0.0,3.0,3.0,271.1419318802655,1.0,1.0,phase_1,,,,,,,,,,,,,cyan,square
180.0,7.0,3.0,1.0,3.0,3.0,299.7167559806257,1.0,1.0,phase_1,,,,,,,,,,,,,magenta,cross
51.0,1.0,1.0,0.0,1.0,1.0,273.4138390514999,1.0,1.0,phase_1,,,,,,,,,,,,,green,I
37.0,5.0,1.0,1.0,2.0,2.0,374.7493969276547,1.0,1.0,phase_1,,,,,,,,,,,,,blue,triangle
0.0,4.0,0.0,0.0,3.0,3.0,259.8065061029047,1.0,1.0,phase_1,,,,,,,,,,,,,white,flipped triangle
394.0,8.0,4.0,1.0,1.0,1.0,333.645363105461,1.0,1.0,phase_1,,,,,,,,,,,,,gray,circle
0.0,5.0,0.0,1.0,1.0,1.0,348.6034381203353,1.0,1.0,phase_1,,,,,,,,,,,,,blue,triangle
421.0,4.0,4.0,0.0,4.0,4.0,359.2875939793885,1.0,1.0,phase_1,,,,,,,,,,,,,white,flipped triangle
0.0,8.0,0.0,1.0,1.0,1.0,350.77815502882,1.0,1.0,phase_1,,,,,,,,,,,,,gray,circle
216.0,3.0,3.0,0.0,2.0,2.0,402.1925218403339,1.0,1.0,phase_1,,,,,,,,,,,,,yellow,diamond
406.0,8.0,4.0,1.0,4.0,4.0,296.2954370304942,1.0,1.0,phase_1,,,,,,,,,,,,,gray,circle
182.0,7.0,3.0,1.0,2.0,2.0,305.1784238778054,1.0,1.0,phase_1,,,,,,,,,,,,,magenta,cross
203.0,7.0,3.0,1.0,2.0,2.0,318.562634056434,1.0,1.0,phase_1,,,,,,,,,,,,,magenta,cross
0.0,3.0,0.0,0.0,3.0,3.0,358.0318260937929,1.0,1.0,phase_1,,,,,,,,,,,,,yellow,diamond
382.0,4.0,4.0,0.0,4.0,4.0,334.2181490734219,2.0,1.0,phase_1,,,,,,,,,,,,,white,flipped triangle
0.0,5.0,0.0,1.0,4.0,4.0,296.3517510797828,2.0,1.0,phase_1,,,,,,,,,,,,,blue,triangle
181.0,3.0,3.0,0.0,2.0,2.0,262.528148945421,2.0,1.0,phase_1,,,,,,,,,,,,,yellow,diamond
209.0,3.0,3.0,0.0,2.0,2.0,307.9006520565599,2.0,1.0,phase_1,,,,,,,,,,,,,yellow,diamond
377.0,4.0,4.0,0.0,1.0,1.0,319.7697529103607,2.0,1.0,phase_1,,,,,,,,,,,,,white,flipped triangle
190.0,7.0,3.0,1.0,2.0,2.0,258.5235249716788,2.0,1.0,phase_1,,,,,,,,,,,,,magenta,cross
120.0,2.0,2.0,0.0,4.0,4.0,279.6275750733912,2.0,1.0,phase_1,,,,,,,,,,,,,cyan,square
31.0,1.0,1.0,0.0,1.0,1.0,299.8816778417676,2.0,1.0,phase_1,,,,,,,,,,,,,green,I
0.0,5.0,0.0,1.0,4.0,4.0,330.4645370226353,2.0,1.0,phase_1,,,,,,,,,,,,,blue,triangle
410.0,4.0,4.0,0.0,2.0,2.0,319.933257997036,2.0,1.0,phase_1,,,,,,,,,,,,,white,flipped triangle
80.0,6.0,2.0,1.0,1.0,1.0,259.7202819306403,2.0,1.0,phase_1,,,,,,,,,,,,,orange,hexagon
419.0,4.0,4.0,0.0,3.0,3.0,271.9150078482926,2.0,1.0,phase_1,,,,,,,,,,,,,white,flipped triangle
412.0,4.0,4.0,0.0,3.0,3.0,389.1993528231978,2.0,1.0,phase_1,,,,,,,,,,,,,white,flipped triangle
54.0,1.0,1.0,0.0,3.0,3.0,320.043918909505,2.0,1.0,phase_1,,,,,,,,,,,,,green,I
120.0,6.0,2.0,1.0,3.0,3.0,312.3174430802464,2.0,1.0,phase_1,,,,,,,,,,,,,orange,hexagon
41.0,1.0,1.0,0.0,3.0,3.0,266.3962780497968,2.0,1.0,phase_1,,,,,,,,,,,,,green,I
0.0,8.0,0.0,1.0,2.0,2.0,328.4510560333729,2.0,1.0,phase_1,,,,,,,,,,,,,gray,circle
400.0,8.0,4.0,1.0,3.0,3.0,253.9058940019458,2.0,1.0,phase_1,,,,,,,,,,,,,gray,circle
86.0,6.0,2.0,1.0,2.0,2.0,344.1001118626445,2.0,1.0,phase_1,,,,,,,,,,,,,orange,hexagon
102.0,6.0,2.0,1.0,3.0,3.0,223.2632089871913,2.0,1.0,phase_1,,,,,,,,,,,,,orange,hexagon
57.0,5.0,1.0,1.0,3.0,3.0,227.153250016272,2.0,1.0,phase_1,,,,,,,,,,,,,blue,triangle
184.0,7.0,3.0,1.0,3.0,3.0,333.4129059221595,2.0,1.0,phase_1,,,,,,,,,,,,,magenta,cross
77.0,6.0,2.0,1.0,3.0,3.0,275.3170358482748,2.0,1.0,phase_1,,,,,,,,,,,,,orange,hexagon
210.0,7.0,3.0,1.0,4.0,4.0,320.9066078998148,2.0,1.0,phase_1,,,,,,,,,,,,,magenta,cross
54.0,5.0,1.0,1.0,2.0,2.0,358.4862060379237,2.0,1.0,phase_1,,,,,,,,,,,,,blue,triangle
413.0,4.0,4.0,0.0,2.0,2.0,370.9159570280462,2.0,1.0,phase_1,,,,,,,,,,,,,white,flipped triangle
123.0,2.0,2.0,0.0,2.0,2.0,318.7487239483744,2.0,1.0,phase_1,,,,,,,,,,,,,cyan,square
407.0,8.0,4.0,1.0,3.0,3.0,274.3445269297808,2.0,1.0,phase_1,,,,,,,,,,,,,gray,circle
88.0,2.0,2.0,0.0,2.0,2.0,342.1496080700308,2.0,1.0,phase_1,,,,,,,,,,,,,cyan,square
190.0,3.0,3.0,0.0,3.0,3.0,293.9716158434748,2.0,1.0,phase_1,,,,,,,,,,,,,yellow,diamond
401.0,4.0,4.0,0.0,3.0,3.0,290.2265929151326,2.0,1.0,phase_1,,,,,,,,,,,,,white,flipped triangle
52.0,5.0,1.0,1.0,2.0,2.0,311.9507629889995,2.0,1.0,phase_1,,,,,,,,,,,,,blue,triangle
70.0,5.0,1.0,1.0,3.0,3.0,283.83309696801,2.0,1.0,phase_1,,,,,,,,,,,,,blue,triangle
33.0,1.0,1.0,0.0,2.0,2.0,328.5755880642682,2.0,1.0,phase_1,,,,,,,,,,,,,green,I
389.0,4.0,4.0,0.0,3.0,3.0,266.5063750464469,2.0,1.0,phase_1,,,,,,,,,,,,,white,flipped triangle
205.0,7.0,3.0,1.0,4.0,4.0,351.6239400487393,2.0,1.0,phase_1,,,,,,,,,,,,,magenta,cross
381.0,4.0,4.0,0.0,4.0,4.0,269.7042028885335,2.0,1.0,phase_1,,,,,,,,,,,,,white,flipped triangle
186.0,7.0,3.0,1.0,2.0,2.0,284.0147370006889,2.0,1.0,phase_1,,,,,,,,,,,,,magenta,cross
73.0,5.0,1.0,1.0,4.0,4.0,248.8008860964328,2.0,1.0,phase_1,,,,,,,,,,,,,blue,triangle
41.0,5.0,1.0,1.0,4.0,4.0,322.1870749257505,2.0,1.0,phase_1,,,,,,,,,,,,,blue,triangle
58.0,1.0,1.0,0.0,3.0,3.0,288.9750320464372,2.0,1.0,phase_1,,,,,,,,,,,,,green,I
0.0,8.0,0.0,1.0,1.0,1.0,326.7159480601549,2.0,1.0,phase_1,,,,,,,,,,,,,gray,circle
77.0,2.0,2.0,0.0,4.0,4.0,284.0331839397549,2.0,1.0,phase_1,,,,,,,,,,,,,cyan,square
72.0,1.0,1.0,0.0,2.0,2.0,301.421431126073,2.0,1.0,phase_1,,,,,,,,,,,,,green,I
0.0,3.0,0.0,0.0,1.0,1.0,327.8973551932722,2.0,2.0,phase_1,,,,,,,,,,,,,yellow,diamond
85.0,2.0,2.0,0.0,3.0,3.0,307.55385896191,2.0,1.0,phase_1,,,,,,,,,,,,,cyan,square
117.0,6.0,2.0,1.0,4.0,4.0,329.1930849663913,2.0,1.0,phase_1,,,,,,,,,,,,,orange,hexagon
26.0,1.0,1.0,0.0,3.0,3.0,347.8942420333624,2.0,1.0,phase_1,,,,,,,,,,,,,green,I
407.0,4.0,4.0,0.0,3.0,3.0,482.5689210556447,2.0,1.0,phase_1,,,,,,,,,,,,,white,flipped triangle
215.0,7.0,3.0,1.0,1.0,1.0,441.1325769033283,2.0,1.0,phase_1,,,,,,,,,,,,,magenta,cross
390.0,8.0,4.0,1.0,1.0,1.0,354.1459899861365,2.0,1.0,phase_1,,,,,,,,,,,,,gray,circle
90.0,2.0,2.0,0.0,2.0,2.0,418.5385371092707,2.0,1.0,phase_1,,,,,,,,,,,,,cyan,square
53.0,5.0,1.0,1.0,1.0,1.0,339.9645169265568,2.0,1.0,phase_1,,,,,,,,,,,,,blue,triangle
80.0,6.0,2.0,1.0,3.0,3.0,352.8862199746072,2.0,1.0,phase_1,,,,,,,,,,,,,orange,hexagon
0.0,1.0,0.0,0.0,2.0,2.0,349.8215440195054,2.0,1.0,phase_1,,,,,,,,,,,,,green,I
193.0,3.0,3.0,0.0,3.0,3.0,332.8290041536093,2.0,1.0,phase_1,,,,,,,,,,,,,yellow,diamond
30.0,5.0,1.0,1.0,3.0,3.0,303.9021329022944,2.0,1.0,phase_1,,,,,,,,,,,,,blue,triangle
0.0,2.0,0.0,0.0,2.0,2.0,275.0987969338894,2.0,1.0,phase_1,,,,,,,,,,,,,cyan,square
77.0,6.0,2.0,1.0,2.0,2.0,281.6924881190061,2.0,1.0,phase_1,,,,,,,,,,,,,orange,hexagon
42.0,5.0,1.0,1.0,3.0,3.0,255.1426379941404,2.0,1.0,phase_1,,,,,,,,,,,,,blue,triangle
0.0,5.0,0.0,1.0,2.0,2.0,312.6224270090461,2.0,1.0,phase_1,,,,,,,,,,,,,blue,triangle
80.0,6.0,2.0,1.0,1.0,1.0,303.8157289847731,2.0,1.0,phase_1,,,,,,,,,,,,,orange,hexagon
390.0,4.0,4.0,0.0,3.0,3.0,242.7520449273288,2.0,1.0,phase_1,,,,,,,,,,,,,white,flipped triangle
89.0,6.0,2.0,1.0,4.0,4.0,319.7061799000948,2.0,1.0,phase_1,,,,,,,,,,,,,orange,hexagon
93.0,2.0,2.0,0.0,4.0,4.0,316.4465159643441,2.0,1.0,phase_1,,,,,,,,,,,,,cyan,square
214.0,3.0,3.0,0.0,1.0,1.0,270.8916249684989,2.0,2.0,phase_1,,,,,,,,,,,,,yellow,diamond
210.0,3.0,3.0,0.0,4.0,4.0,355.9441140387207,2.0,1.0,phase_1,,,,,,,,,,,,,yellow,diamond
0.0,5.0,0.0,1.0,2.0,2.0,342.5248151179403,2.0,1.0,phase_1,,,,,,,,,,,,,blue,triangle
0.0,8.0,0.0,1.0,3.0,3.0,331.9740269798785,2.0,1.0,phase_1,,,,,,,,,,,,,gray,circle
419.0,8.0,4.0,1.0,2.0,2.0,409.6256748307496,2.0,1.0,phase_1,,,,,,,,,,,,,gray,circle
400.0,8.0,4.0,1.0,3.0,3.0,309.0109939221293,2.0,1.0,phase_1,,,,,,,,,,,,,gray,circle
112.0,6.0,2.0,1.0,4.0,4.0,426.8686440773308,2.0,1.0,phase_1,,,,,,,,,,,,,orange,hexagon
45.0,1.0,1.0,0.0,2.0,2.0,358.7033078074455,2.0,1.0,phase_1,,,,,,,,,,,,,green,I
54.0,5.0,1.0,1.0,2.0,2.0,386.5709051024169,2.0,1.0,phase_1,,,,,,,,,,,,,blue,triangle
30.0,1.0,1.0,0.0,1.0,1.0,343.8301978167146,2.0,1.0,phase_1,,,,,,,,,,,,,green,I
394.0,4.0,4.0,0.0,4.0,4.0,356.970600085333,2.0,1.0,phase_1,,,,,,,,,,,,,white,flipped triangle
388.0,8.0,4.0,1.0,4.0,4.0,308.2698779180646,2.0,1.0,phase_1,,,,,,,,,,,,,gray,circle
94.0,6.0,2.0,1.0,1.0,1.0,391.9312870129943,2.0,1.0,phase_1,,,,,,,,,,,,,orange,hexagon
107.0,2.0,2.0,0.0,4.0,4.0,291.3599538151175,2.0,1.0,phase_1,,,,,,,,,,,,,cyan,square
85.0,6.0,2.0,1.0,4.0,4.0,294.998224126175,2.0,1.0,phase_1,,,,,,,,,,,,,orange,hexagon
80.0,2.0,2.0,0.0,3.0,3.0,300.069386139512,2.0,1.0,phase_1,,,,,,,,,,,,,cyan,square
96.0,6.0,2.0,1.0,3.0,3.0,307.5643489137292,2.0,1.0,phase_1,,,,,,,,,,,,,orange,hexagon
0.0,7.0,0.0,1.0,2.0,2.0,302.6915309019387,2.0,1.0,phase_1,,,,,,,,,,,,,magenta,cross
46.0,5.0,1.0,1.0,3.0,3.0,275.1727781724185,2.0,1.0,phase_1,,,,,,,,,,,,,blue,triangle
0.0,3.0,0.0,0.0,1.0,1.0,296.4766258373856,2.0,1.0,phase_1,,,,,,,,,,,,,yellow,diamond
113.0,2.0,2.0,0.0,1.0,1.0,292.7725869230926,2.0,1.0,phase_1,,,,,,,,,,,,,cyan,square
102.0,2.0,2.0,0.0,3.0,3.0,256.0042249970138,2.0,1.0,phase_1,,,,,,,,,,,,,cyan,square
65.0,1.0,1.0,0.0,2.0,2.0,269.4054401945323,2.0,1.0,phase_1,,,,,,,,,,,,,green,I
190.0,7.0,3.0,1.0,1.0,1.0,299.8314891010523,2.0,1.0,phase_1,,,,,,,,,,,,,magenta,cross
99.0,6.0,2.0,1.0,1.0,1.0,382.2755420114845,2.0,1.0,phase_1,,,,,,,,,,,,,orange,hexagon
401.0,8.0,4.0,1.0,2.0,2.0,386.4009180106222,2.0,1.0,phase_1,,,,,,,,,,,,,gray,circle
112.0,2.0,2.0,0.0,4.0,4.0,287.6826708670705,2.0,1.0,phase_1,,,,,,,,,,,,,cyan,square
184.0,3.0,3.0,0.0,4.0,4.0,291.6026278398931,2.0,1.0,phase_1,,,,,,,,,,,,,yellow,diamond
417.0,4.0,4.0,0.0,2.0,2.0,242.5952909979969,2.0,1.0,phase_1,,,,,,,,,,,,,white,flipped triangle
77.0,2.0,2.0,0.0,1.0,1.0,279.4799110852182,2.0,1.0,phase_1,,,,,,,,,,,,,cyan,square
403.0,8.0,4.0,1.0,3.0,3.0,250.4396759904921,2.0,1.0,phase_1,,,,,,,,,,,,,gray,circle
220.0,7.0,3.0,1.0,2.0,2.0,249.5248808991164,2.0,1.0,phase_1,,,,,,,,,,,,,magenta,cross
0.0,8.0,0.0,1.0,4.0,4.0,285.2598959580064,2.0,1.0,phase_1,,,,,,,,,,,,,gray,circle
408.0,4.0,4.0,0.0,2.0,2.0,225.4182579927146,2.0,1.0,phase_1,,,,,,,,,,,,,white,flipped triangle
43.0,1.0,1.0,0.0,3.0,3.0,229.1770249139517,2.0,1.0,phase_1,,,,,,,,,,,,,green,I
0.0,3.0,0.0,0.0,1.0,1.0,258.736175019294,3.0,1.0,phase_1,,,,,,,,,,,,,yellow,diamond
41.0,1.0,1.0,0.0,4.0,4.0,250.0641120132059,3.0,1.0,phase_1,,,,,,,,,,,,,green,I
0.0,3.0,0.0,0.0,1.0,1.0,251.3404418714344,3.0,1.0,phase_1,,,,,,,,,,,,,yellow,diamond
381.0,8.0,4.0,1.0,3.0,3.0,351.8752038944512,3.0,1.0,phase_1,,,,,,,,,,,,,gray,circle
45.0,5.0,1.0,1.0,3.0,3.0,365.3496650513261,3.0,1.0,phase_1,,,,,,,,,,,,,blue,triangle
93.0,6.0,2.0,1.0,1.0,1.0,321.5577290393412,3.0,1.0,phase_1,,,,,,,,,,,,,orange,hexagon
43.0,1.0,1.0,0.0,1.0,1.0,296.652162913233,3.0,1.0,phase_1,,,,,,,,,,,,,green,I
0.0,2.0,0.0,0.0,1.0,1.0,283.1673109903931,3.0,1.0,phase_1,,,,,,,,,,,,,cyan,square
93.0,6.0,2.0,1.0,2.0,2.0,303.6198429763317,3.0,1.0,phase_1,,,,,,,,,,,,,orange,hexagon
112.0,2.0,2.0,0.0,3.0,3.0,254.0818799752742,3.0,1.0,phase_1,,,,,,,,,,,,,cyan,square
0.0,3.0,0.0,0.0,2.0,2.0,234.7870941739529,3.0,1.0,phase_1,,,,,,,,,,,,,yellow,diamond
410.0,8.0,4.0,1.0,4.0,4.0,337.3123500496149,3.0,1.0,phase_1,,,,,,,,,,,,,gray,circle
0.0,4.0,0.0,0.0,4.0,4.0,317.985936999321,3.0,1.0,phase_1,,,,,,,,,,,,,white,flipped triangle
186.0,3.0,3.0,0.0,4.0,4.0,270.6074339803308,3.0,1.0,phase_1,,,,,,,,,,,,,yellow,diamond
388.0,8.0,4.0,1.0,2.0,2.0,246.3036628905683,3.0,1.0,phase_1,,,,,,,,,,,,,gray,circle
0.0,5.0,0.0,1.0,4.0,4.0,287.7677269279957,3.0,1.0,phase_1,,,,,,,,,,,,,blue,triangle
389.0,4.0,4.0,0.0,1.0,1.0,263.590081827715,3.0,1.0,phase_1,,,,,,,,,,,,,white,flipped triangle
48.0,5.0,1.0,1.0,4.0,4.0,233.369342982769,3.0,1.0,phase_1,,,,,,,,,,,,,blue,triangle
212.0,3.0,3.0,0.0,1.0,1.0,262.225269107148,3.0,1.0,phase_1,,,,,,,,,,,,,yellow,diamond
102.0,2.0,2.0,0.0,3.0,3.0,213.79910106770689,3.0,1.0,phase_1,,,,,,,,,,,,,cyan,square
205.0,3.0,3.0,0.0,2.0,2.0,247.8188769891858,3.0,1.0,phase_1,,,,,,,,,,,,,yellow,diamond
190.0,3.0,3.0,0.0,1.0,1.0,332.7452749945223,3.0,1.0,phase_1,,,,,,,,,,,,,yellow,diamond
0.0,5.0,0.0,1.0,1.0,1.0,361.399550922215,3.0,1.0,phase_1,,,,,,,,,,,,,blue,triangle
406.0,4.0,4.0,0.0,2.0,2.0,266.2523409817368,3.0,2.0,phase_1,,,,,,,,,,,,,white,flipped triangle
88.0,6.0,2.0,1.0,2.0,2.0,337.4525909312069,3.0,1.0,phase_1,,,,,,,,,,,,,orange,hexagon
0.0,4.0,0.0,0.0,2.0,2.0,251.5648128464818,3.0,1.0,phase_1,,,,,,,,,,,,,white,flipped triangle
64.0,1.0,1.0,0.0,2.0,2.0,275.0932509079575,3.0,1.0,phase_1,,,,,,,,,,,,,green,I
92.0,6.0,2.0,1.0,1.0,1.0,432.3472320102155,3.0,1.0,phase_1,,,,,,,,,,,,,orange,hexagon
403.0,8.0,4.0,1.0,1.0,1.0,370.3973549418151,3.0,1.0,phase_1,,,,,,,,,,,,,gray,circle
0.0,5.0,0.0,1.0,3.0,3.0,299.8602169100195,3.0,2.0,phase_1,,,,,,,,,,,,,blue,triangle
122.0,6.0,2.0,1.0,4.0,4.0,320.7889699842781,3.0,1.0,phase_1,,,,,,,,,,,,,orange,hexagon
102.0,6.0,2.0,1.0,4.0,4.0,325.977420900017,3.0,1.0,phase_1,,,,,,,,,,,,,orange,hexagon
63.0,1.0,1.0,0.0,4.0,4.0,275.1765849534422,3.0,1.0,phase_1,,,,,,,,,,,,,green,I
80.0,6.0,2.0,1.0,3.0,3.0,312.0408358518034,3.0,1.0,phase_1,,,,,,,,,,,,,orange,hexagon
189.0,3.0,3.0,0.0,4.0,4.0,258.9337211102247,3.0,1.0,phase_1,,,,,,,,,,,,,yellow,diamond
0.0,7.0,0.0,1.0,2.0,2.0,255.2909660153091,3.0,1.0,phase_1,,,,,,,,,,,,,magenta,cross
0.0,4.0,0.0,0.0,4.0,4.0,267.9316429421305,3.0,1.0,phase_1,,,,,,,,,,,,,white,flipped triangle
0.0,7.0,0.0,1.0,2.0,2.0,312.9785021301359,3.0,1.0,phase_1,,,,,,,,,,,,,magenta,cross
109.0,6.0,2.0,1.0,4.0,4.0,247.5657658651471,3.0,1.0,phase_1,,,,,,,,,,,,,orange,hexagon
36.0,5.0,1.0,1.0,4.0,4.0,307.9058970324695,3.0,1.0,phase_1,,,,,,,,,,,,,blue,triangle
49.0,1.0,1.0,0.0,2.0,2.0,263.0482739768922,3.0,2.0,phase_1,,,,,,,,,,,,,green,I
54.0,1.0,1.0,0.0,2.0,2.0,271.4444401208311,3.0,1.0,phase_1,,,,,,,,,,,,,green,I
0.0,1.0,0.0,0.0,4.0,4.0,271.5265718288719,3.0,1.0,phase_1,,,,,,,,,,,,,green,I
0.0,4.0,0.0,0.0,2.0,2.0,258.6332329083234,3.0,1.0,phase_1,,,,,,,,,,,,,white,flipped triangle
0.0,4.0,0.0,0.0,2.0,2.0,271.0301999468356,3.0,1.0,phase_1,,,,,,,,,,,,,white,flipped triangle
70.0,1.0,1.0,0.0,2.0,2.0,340.6510220374912,3.0,1.0,phase_1,,,,,,,,,,,,,green,I
386.0,4.0,4.0,0.0,1.0,1.0,311.8753351736814,3.0,1.0,phase_1,,,,,,,,,,,,,white,flipped triangle
182.0,3.0,3.0,0.0,1.0,1.0,291.6141678579151,3.0,1.0,phase_1,,,,,,,,,,,,,yellow,diamond
194.0,7.0,3.0,1.0,1.0,1.0,304.7074999194592,3.0,1.0,phase_1,,,,,,,,,,,,,magenta,cross
113.0,2.0,2.0,0.0,3.0,3.0,438.0707938689738,3.0,1.0,phase_1,,,,,,,,,,,,,cyan,square
194.0,3.0,3.0,0.0,3.0,3.0,282.5507319066673,3.0,1.0,phase_1,,,,,,,,,,,,,yellow,diamond
32.0,1.0,1.0,0.0,1.0,1.0,345.3363669104874,3.0,1.0,phase_1,,,,,,,,,,,,,green,I
63.0,1.0,1.0,0.0,4.0,4.0,261.4976828917861,3.0,1.0,phase_1,,,,,,,,,,,,,green,I
0.0,6.0,0.0,1.0,4.0,4.0,275.7234030868858,3.0,1.0,phase_1,,,,,,,,,,,,,orange,hexagon
0.0,1.0,0.0,0.0,3.0,3.0,326.1522119864821,3.0,1.0,phase_1,,,,,,,,,,,,,green,I
0.0,8.0,0.0,1.0,4.0,4.0,269.9462289456278,3.0,1.0,phase_1,,,,,,,,,,,,,gray,circle
94.0,2.0,2.0,0.0,2.0,2.0,311.022255802527,3.0,1.0,phase_1,,,,,,,,,,,,,cyan,square
63.0,5.0,1.0,1.0,1.0,1.0,243.3130550198257,3.0,1.0,phase_1,,,,,,,,,,,,,blue,triangle
115.0,2.0,2.0,0.0,4.0,4.0,235.3428879287094,3.0,1.0,phase_1,,,,,,,,,,,,,cyan,square
0.0,5.0,0.0,1.0,2.0,2.0,284.62092904374,3.0,1.0,phase_1,,,,,,,,,,,,,blue,triangle
216.0,7.0,3.0,1.0,4.0,4.0,274.74204916507,3.0,1.0,phase_1,,,,,,,,,,,,,magenta,cross
388.0,4.0,4.0,0.0,1.0,1.0,304.7475109342485,3.0,1.0,phase_1,,,,,,,,,,,,,white,flipped triangle
26.0,5.0,1.0,1.0,4.0,4.0,226.4760709367692,3.0,1.0,phase_1,,,,,,,,,,,,,blue,triangle
91.0,6.0,2.0,1.0,2.0,2.0,279.2494529858231,3.0,1.0,phase_1,,,,,,,,,,,,,orange,hexagon
0.0,3.0,0.0,0.0,2.0,2.0,292.0229020528495,3.0,1.0,phase_1,,,,,,,,,,,,,yellow,diamond
86.0,2.0,2.0,0.0,2.0,2.0,279.9240299500525,3.0,1.0,phase_1,,,,,,,,,,,,,cyan,square
0.0,7.0,0.0,1.0,1.0,1.0,222.8235178627073,3.0,1.0,phase_1,,,,,,,,,,,,,magenta,cross
0.0,4.0,0.0,0.0,2.0,2.0,233.4191878326237,3.0,1.0,phase_1,,,,,,,,,,,,,white,flipped triangle
42.0,1.0,1.0,0.0,1.0,1.0,355.9895041398704,3.0,2.0,phase_1,,,,,,,,,,,,,green,I
49.0,5.0,1.0,1.0,4.0,4.0,315.7485441770404,3.0,1.0,phase_1,,,,,,,,,,,,,blue,triangle
0.0,1.0,0.0,0.0,3.0,3.0,262.5623058993369,3.0,1.0,phase_1,,,,,,,,,,,,,green,I
60.0,1.0,1.0,0.0,3.0,3.0,298.3855430502444,3.0,1.0,phase_1,,,,,,,,,,,,,green,I
0.0,7.0,0.0,1.0,4.0,4.0,254.62873000651598,3.0,1.0,phase_1,,,,,,,,,,,,,magenta,cross
399.0,8.0,4.0,1.0,1.0,1.0,246.6849461197853,3.0,1.0,phase_1,,,,,,,,,,,,,gray,circle
424.0,8.0,4.0,1.0,1.0,1.0,271.5828029904514,3.0,2.0,phase_1,,,,,,,,,,,,,gray,circle
386.0,8.0,4.0,1.0,1.0,1.0,275.72139189578587,3.0,1.0,phase_1,,,,,,,,,,,,,gray,circle
417.0,8.0,4.0,1.0,2.0,2.0,279.3773908633739,3.0,1.0,phase_1,,,,,,,,,,,,,gray,circle
99.0,6.0,2.0,1.0,1.0,1.0,258.9114718139171,3.0,1.0,phase_1,,,,,,,,,,,,,orange,hexagon
424.0,4.0,4.0,0.0,3.0,3.0,364.2199719324708,3.0,2.0,phase_1,,,,,,,,,,,,,white,flipped triangle
91.0,2.0,2.0,0.0,1.0,1.0,299.5055529754609,3.0,1.0,phase_1,,,,,,,,,,,,,cyan,square
57.0,1.0,1.0,0.0,3.0,3.0,276.7838048748672,3.0,1.0,phase_1,,,,,,,,,,,,,green,I
46.0,1.0,1.0,0.0,2.0,2.0,283.541175769642,3.0,1.0,phase_1,,,,,,,,,,,,,green,I
74.0,5.0,1.0,1.0,1.0,1.0,304.4310668483376,3.0,1.0,phase_1,,,,,,,,,,,,,blue,triangle
422.0,8.0,4.0,1.0,3.0,3.0,291.3685978855937,3.0,1.0,phase_1,,,,,,,,,,,,,gray,circle
115.0,6.0,2.0,1.0,3.0,3.0,321.9398739747703,3.0,1.0,phase_1,,,,,,,,,,,,,orange,hexagon
420.0,4.0,4.0,0.0,1.0,1.0,301.318468991667,3.0,1.0,phase_1,,,,,,,,,,,,,white,flipped triangle
181.0,3.0,3.0,0.0,2.0,2.0,411.39181097969407,3.0,1.0,phase_1,,,,,,,,,,,,,yellow,diamond
113.0,6.0,2.0,1.0,4.0,4.0,312.7304019872099,3.0,1.0,phase_1,,,,,,,,,,,,,orange,hexagon
0.0,6.0,0.0,1.0,1.0,1.0,242.2789519187063,3.0,1.0,phase_1,,,,,,,,,,,,,orange,hexagon
377.0,8.0,4.0,1.0,2.0,2.0,415.5288019683212,3.0,1.0,phase_1,,,,,,,,,,,,,gray,circle
377.0,8.0,4.0,1.0,4.0,4.0,279.1155190207064,3.0,1.0,phase_1,,,,,,,,,,,,,gray,circle
0.0,2.0,0.0,0.0,1.0,1.0,283.0549720674753,3.0,1.0,phase_1,,,,,,,,,,,,,cyan,square
400.0,4.0,4.0,0.0,1.0,1.0,262.6679020468145,3.0,1.0,phase_1,,,,,,,,,,,,,white,flipped triangle
193.0,7.0,3.0,1.0,4.0,4.0,307.5744558591395,3.0,1.0,phase_1,,,,,,,,,,,,,magenta,cross
192.0,7.0,3.0,1.0,4.0,4.0,250.49169803969562,3.0,1.0,phase_1,,,,,,,,,,,,,magenta,cross
382.0,4.0,4.0,0.0,3.0,3.0,319.0637910738587,3.0,1.0,phase_1,,,,,,,,,,,,,white,flipped triangle
219.0,7.0,3.0,1.0,1.0,1.0,275.477031012997,3.0,1.0,phase_1,,,,,,,,,,,,,magenta,cross
0.0,6.0,0.0,1.0,1.0,1.0,260.371606098488,3.0,1.0,phase_1,,,,,,,,,,,,,orange,hexagon
179.0,7.0,3.0,1.0,1.0,1.0,270.5824729055166,3.0,2.0,phase_1,,,,,,,,,,,,,magenta,cross
378.0,8.0,4.0,1.0,4.0,4.0,324.1534810513258,3.0,1.0,phase_1,,,,,,,,,,,,,gray,circle
211.0,3.0,3.0,0.0,3.0,3.0,397.2246330231428,4.0,1.0,phase_1,,,,,,,,,,,,,yellow,diamond
120.0,6.0,2.0,1.0,4.0,4.0,352.7782519813627,4.0,1.0,phase_1,,,,,,,,,,,,,orange,hexagon
0.0,1.0,0.0,0.0,2.0,2.0,263.430638005957,4.0,1.0,phase_1,,,,,,,,,,,,,green,I
0.0,1.0,0.0,0.0,2.0,2.0,291.3237330503762,4.0,1.0,phase_1,,,,,,,,,,,,,green,I
0.0,5.0,0.0,1.0,2.0,2.0,300.7701879832893,4.0,1.0,phase_1,,,,,,,,,,,,,blue,triangle
76.0,6.0,2.0,1.0,4.0,4.0,340.8911810256541,4.0,1.0,phase_1,,,,,,,,,,,,,orange,hexagon
203.0,3.0,3.0,0.0,2.0,2.0,273.7189349718392,4.0,1.0,phase_1,,,,,,,,,,,,,yellow,diamond
410.0,8.0,4.0,1.0,1.0,1.0,292.9794960655272,4.0,1.0,phase_1,,,,,,,,,,,,,gray,circle
408.0,8.0,4.0,1.0,4.0,4.0,289.3941779620945,4.0,1.0,phase_1,,,,,,,,,,,,,gray,circle
382.0,8.0,4.0,1.0,2.0,2.0,287.946892902255,4.0,1.0,phase_1,,,,,,,,,,,,,gray,circle
407.0,4.0,4.0,0.0,2.0,2.0,836.553850909695,4.0,1.0,phase_1,,,,,,,,,,,,,white,flipped triangle
80.0,2.0,2.0,0.0,4.0,4.0,558.7077969685197,4.0,1.0,phase_1,,,,,,,,,,,,,cyan,square
0.0,6.0,0.0,1.0,2.0,2.0,299.0304999984801,4.0,1.0,phase_1,,,,,,,,,,,,,orange,hexagon
34.0,5.0,1.0,1.0,2.0,2.0,296.2298349011689,4.0,1.0,phase_1,,,,,,,,,,,,,blue,triangle
424.0,4.0,4.0,0.0,2.0,2.0,292.1068540308624,4.0,1.0,phase_1,,,,,,,,,,,,,white,flipped triangle
394.0,4.0,4.0,0.0,1.0,1.0,328.7886311300099,4.0,1.0,phase_1,,,,,,,,,,,,,white,flipped triangle
181.0,7.0,3.0,1.0,1.0,1.0,335.8933860436082,4.0,1.0,phase_1,,,,,,,,,,,,,magenta,cross
96.0,2.0,2.0,0.0,4.0,4.0,324.9235039111227,4.0,1.0,phase_1,,,,,,,,,,,,,cyan,square
73.0,1.0,1.0,0.0,2.0,2.0,288.6399410199374,4.0,1.0,phase_1,,,,,,,,,,,,,green,I
56.0,5.0,1.0,1.0,3.0,3.0,358.0896819476038,4.0,1.0,phase_1,,,,,,,,,,,,,blue,triangle
0.0,6.0,0.0,1.0,3.0,3.0,354.02430407702917,4.0,1.0,phase_1,,,,,,,,,,,,,orange,hexagon
33.0,5.0,1.0,1.0,2.0,2.0,312.2741500847041,4.0,1.0,phase_1,,,,,,,,,,,,,blue,triangle
89.0,2.0,2.0,0.0,2.0,2.0,410.2955020498484,4.0,1.0,phase_1,,,,,,,,,,,,,cyan,square
404.0,4.0,4.0,0.0,1.0,1.0,328.3494478091597,4.0,1.0,phase_1,,,,,,,,,,,,,white,flipped triangle
36.0,1.0,1.0,0.0,4.0,4.0,275.3439240623265,4.0,1.0,phase_1,,,,,,,,,,,,,green,I
215.0,7.0,3.0,1.0,3.0,3.0,354.9635170493275,4.0,1.0,phase_1,,,,,,,,,,,,,magenta,cross
211.0,7.0,3.0,1.0,3.0,3.0,324.2054600268602,4.0,1.0,phase_1,,,,,,,,,,,,,magenta,cross
76.0,2.0,2.0,0.0,4.0,4.0,337.7008091192692,4.0,1.0,phase_1,,,,,,,,,,,,,cyan,square
122.0,6.0,2.0,1.0,1.0,1.0,293.2623459491879,4.0,1.0,phase_1,,,,,,,,,,,,,orange,hexagon
215.0,3.0,3.0,0.0,3.0,3.0,274.256998905912,4.0,1.0,phase_1,,,,,,,,,,,,,yellow,diamond
378.0,4.0,4.0,0.0,4.0,4.0,274.6779050212353,4.0,1.0,phase_1,,,,,,,,,,,,,white,flipped triangle
389.0,8.0,4.0,1.0,3.0,3.0,356.3488628715276,4.0,1.0,phase_1,,,,,,,,,,,,,gray,circle
188.0,7.0,3.0,1.0,4.0,4.0,258.6758560501039,4.0,1.0,phase_1,,,,,,,,,,,,,magenta,cross
212.0,7.0,3.0,1.0,4.0,4.0,297.1369139850139,4.0,1.0,phase_1,,,,,,,,,,,,,magenta,cross
116.0,6.0,2.0,1.0,2.0,2.0,333.0591330304742,4.0,1.0,phase_1,,,,,,,,,,,,,orange,hexagon
119.0,6.0,2.0,1.0,1.0,1.0,378.1549460254609,4.0,1.0,phase_1,,,,,,,,,,,,,orange,hexagon
37.0,1.0,1.0,0.0,3.0,3.0,291.1482618656009,4.0,1.0,phase_1,,,,,,,,,,,,,green,I
96.0,2.0,2.0,0.0,3.0,3.0,307.9699780791998,4.0,1.0,phase_1,,,,,,,,,,,,,cyan,square
0.0,1.0,0.0,0.0,4.0,4.0,304.4278929010033,4.0,1.0,phase_1,,,,,,,,,,,,,green,I
0.0,8.0,0.0,1.0,3.0,3.0,292.3835341352969,4.0,1.0,phase_1,,,,,,,,,,,,,gray,circle
399.0,8.0,4.0,1.0,4.0,4.0,295.0041659642011,4.0,1.0,phase_1,,,,,,,,,,,,,gray,circle
90.0,6.0,2.0,1.0,3.0,3.0,300.7932940963655,4.0,1.0,phase_1,,,,,,,,,,,,,orange,hexagon
43.0,5.0,1.0,1.0,4.0,4.0,280.1152488682419,4.0,1.0,phase_1,,,,,,,,,,,,,blue,triangle
48.0,1.0,1.0,0.0,1.0,1.0,295.0127150397748,4.0,1.0,phase_1,,,,,,,,,,,,,green,I
202.0,3.0,3.0,0.0,4.0,4.0,233.8038280140608,4.0,1.0,phase_1,,,,,,,,,,,,,yellow,diamond
92.0,2.0,2.0,0.0,2.0,2.0,471.005376894027,4.0,1.0,phase_1,,,,,,,,,,,,,cyan,square
0.0,1.0,0.0,0.0,4.0,4.0,308.161003049463,4.0,1.0,phase_1,,,,,,,,,,,,,green,I
422.0,4.0,4.0,0.0,4.0,4.0,304.8605481162667,4.0,1.0,phase_1,,,,,,,,,,,,,white,flipped triangle
202.0,7.0,3.0,1.0,3.0,3.0,317.26411101408297,4.0,1.0,phase_1,,,,,,,,,,,,,magenta,cross
0.0,7.0,0.0,1.0,2.0,2.0,307.7118769288063,4.0,1.0,phase_1,,,,,,,,,,,,,magenta,cross
195.0,7.0,3.0,1.0,3.0,3.0,312.6400269102305,4.0,1.0,phase_1,,,,,,,,,,,,,magenta,cross
112.0,6.0,2.0,1.0,2.0,2.0,340.8729410730302,4.0,1.0,phase_1,,,,,,,,,,,,,orange,hexagon
219.0,3.0,3.0,0.0,1.0,1.0,339.1756890341639,4.0,2.0,phase_1,,,,,,,,,,,,,yellow,diamond
0.0,4.0,0.0,0.0,1.0,1.0,407.6742539182305,4.0,1.0,phase_1,,,,,,,,,,,,,white,flipped triangle
400.0,4.0,4.0,0.0,2.0,2.0,316.3961539976299,4.0,1.0,phase_1,,,,,,,,,,,,,white,flipped triangle
413.0,8.0,4.0,1.0,2.0,2.0,324.1379919927567,4.0,1.0,phase_1,,,,,,,,,,,,,gray,circle
65.0,5.0,1.0,1.0,4.0,4.0,295.4396789427846,4.0,1.0,phase_1,,,,,,,,,,,,,blue,triangle
0.0,7.0,0.0,1.0,4.0,4.0,299.8850829899311,4.0,1.0,phase_1,,,,,,,,,,,,,magenta,cross
36.0,5.0,1.0,1.0,2.0,2.0,361.6071369033307,4.0,1.0,phase_1,,,,,,,,,,,,,blue,triangle
188.0,3.0,3.0,0.0,3.0,3.0,341.3502380717546,4.0,1.0,phase_1,,,,,,,,,,,,,yellow,diamond
109.0,2.0,2.0,0.0,3.0,3.0,304.8985158093273,4.0,1.0,phase_1,,,,,,,,,,,,,cyan,square
0.0,3.0,0.0,0.0,3.0,3.0,301.0167318861931,4.0,1.0,phase_1,,,,,,,,,,,,,yellow,diamond
58.0,5.0,1.0,1.0,1.0,1.0,384.2214720789343,4.0,2.0,phase_1,,,,,,,,,,,,,blue,triangle
28.0,5.0,1.0,1.0,1.0,1.0,325.1892370171845,4.0,1.0,phase_1,,,,,,,,,,,,,blue,triangle
0.0,7.0,0.0,1.0,4.0,4.0,314.095214009285,4.0,1.0,phase_1,,,,,,,,,,,,,magenta,cross
410.0,4.0,4.0,0.0,4.0,4.0,317.1772370114922,4.0,1.0,phase_1,,,,,,,,,,,,,white,flipped triangle
421.0,8.0,4.0,1.0,1.0,1.0,361.8112329859286,4.0,1.0,phase_1,,,,,,,,,,,,,gray,circle
404.0,8.0,4.0,1.0,3.0,3.0,337.0475789997726,4.0,1.0,phase_1,,,,,,,,,,,,,gray,circle
418.0,4.0,4.0,0.0,4.0,4.0,292.474013986066,4.0,1.0,phase_1,,,,,,,,,,,,,white,flipped triangle
221.0,3.0,3.0,0.0,1.0,1.0,264.1521459445357,4.0,1.0,phase_1,,,,,,,,,,,,,yellow,diamond
57.0,1.0,1.0,0.0,1.0,1.0,308.4285920485854,4.0,1.0,phase_1,,,,,,,,,,,,,green,I
203.0,3.0,3.0,0.0,1.0,1.0,393.3869681786746,4.0,1.0,phase_1,,,,,,,,,,,,,yellow,diamond
0.0,7.0,0.0,1.0,3.0,3.0,287.2416521422565,4.0,1.0,phase_1,,,,,,,,,,,,,magenta,cross
0.0,4.0,0.0,0.0,4.0,4.0,308.0084121320396,4.0,1.0,phase_1,,,,,,,,,,,,,white,flipped triangle
80.0,2.0,2.0,0.0,1.0,1.0,254.1659651324153,4.0,1.0,phase_1,,,,,,,,,,,,,cyan,square
60.0,5.0,1.0,1.0,4.0,4.0,238.8407769612968,4.0,1.0,phase_1,,,,,,,,,,,,,blue,triangle
0.0,7.0,0.0,1.0,3.0,3.0,287.8771810792386,4.0,1.0,phase_1,,,,,,,,,,,,,magenta,cross
66.0,1.0,1.0,0.0,4.0,4.0,279.3437810614705,4.0,1.0,phase_1,,,,,,,,,,,,,green,I
420.0,8.0,4.0,1.0,1.0,1.0,285.1357781328261,4.0,1.0,phase_1,,,,,,,,,,,,,gray,circle
53.0,1.0,1.0,0.0,1.0,1.0,295.1032998971641,4.0,1.0,phase_1,,,,,,,,,,,,,green,I
394.0,8.0,4.0,1.0,4.0,4.0,366.4055899716913,4.0,1.0,phase_1,,,,,,,,,,,,,gray,circle
0.0,8.0,0.0,1.0,1.0,1.0,311.5157480351627,4.0,1.0,phase_1,,,,,,,,,,,,,gray,circle
203.0,7.0,3.0,1.0,3.0,3.0,316.2179891951382,4.0,1.0,phase_1,,,,,,,,,,,,,magenta,cross
57.0,5.0,1.0,1.0,2.0,2.0,315.2635099831968,4.0,1.0,phase_1,,,,,,,,,,,,,blue,triangle
205.0,7.0,3.0,1.0,2.0,2.0,296.0009609814733,4.0,1.0,phase_1,,,,,,,,,,,,,magenta,cross
123.0,6.0,2.0,1.0,2.0,2.0,331.7761169746518,4.0,1.0,phase_1,,,,,,,,,,,,,orange,hexagon
215.0,3.0,3.0,0.0,3.0,3.0,302.9535990208387,4.0,1.0,phase_1,,,,,,,,,,,,,yellow,diamond
0.0,2.0,0.0,0.0,3.0,3.0,335.6983340345323,4.0,1.0,phase_1,,,,,,,,,,,,,cyan,square
396.0,4.0,4.0,0.0,1.0,1.0,291.0973359830677,4.0,1.0,phase_1,,,,,,,,,,,,,white,flipped triangle
116.0,2.0,2.0,0.0,1.0,1.0,318.668456049636,4.0,1.0,phase_1,,,,,,,,,,,,,cyan,square
0.0,2.0,0.0,0.0,1.0,1.0,266.4360550697893,4.0,1.0,phase_1,,,,,,,,,,,,,cyan,square
175.0,7.0,3.0,1.0,4.0,4.0,336.1132219433784,4.0,1.0,phase_1,,,,,,,,,,,,,magenta,cross
396.0,8.0,4.0,1.0,2.0,2.0,308.7418819777667,4.0,1.0,phase_1,,,,,,,,,,,,,gray,circle
108.0,6.0,2.0,1.0,2.0,2.0,319.7039160877466,4.0,1.0,phase_1,,,,,,,,,,,,,orange,hexagon
182.0,7.0,3.0,1.0,2.0,2.0,278.7711981218308,4.0,1.0,phase_1,,,,,,,,,,,,,magenta,cross
0.0,8.0,0.0,1.0,4.0,4.0,305.861831177026,4.0,1.0,phase_1,,,,,,,,,,,,,gray,circle
378.0,4.0,4.0,0.0,1.0,1.0,336.6742827929556,4.0,1.0,phase_1,,,,,,,,,,,,,white,flipped triangle
211.0,3.0,3.0,0.0,4.0,4.0,365.684435935691,4.0,1.0,phase_1,,,,,,,,,,,,,yellow,diamond
399.0,4.0,4.0,0.0,2.0,2.0,270.3870648983866,4.0,1.0,phase_1,,,,,,,,,,,,,white,flipped triangle
32.0,5.0,1.0,1.0,1.0,1.0,435.4838689323514,4.0,1.0,phase_1,,,,,,,,,,,,,blue,triangle
0.0,7.0,3.0,1.0,5.0,5.0,514.8143251426518,1.0,1.0,phase_2,stop,250.0,250.0,3.0,,,,,,,,,magenta,cross
0.0,2.0,2.0,0.0,6.0,6.0,318.0838171392679,1.0,1.0,phase_2,go,200.0,250.0,1.0,,,,,,,,,cyan,square
0.0,5.0,1.0,1.0,5.0,5.0,278.865204192698,1.0,1.0,phase_2,go,200.0,250.0,1.0,,,,,,,,,blue,triangle
0.0,7.0,3.0,1.0,6.0,6.0,320.3480609226972,1.0,1.0,phase_2,stop,200.0,250.0,3.0,,,,,,,,,magenta,cross
0.0,1.0,1.0,0.0,6.0,6.0,399.9922410584986,1.0,1.0,phase_2,go,200.0,200.0,1.0,,,,,,,,,green,I
0.0,3.0,3.0,0.0,6.0,6.0,436.2222389318049,1.0,1.0,phase_2,go,200.0,200.0,1.0,,,,,,,,,yellow,diamond
0.0,6.0,2.0,1.0,5.0,5.0,356.7963780369609,1.0,1.0,phase_2,stop,200.0,200.0,3.0,,,,,,,,,orange,hexagon
0.0,5.0,1.0,1.0,6.0,0.0,0.0,1.0,1.0,phase_2,stop,150.0,200.0,4.0,,,,,,,,,blue,triangle
0.0,5.0,1.0,1.0,5.0,0.0,0.0,1.0,1.0,phase_2,stop,150.0,250.0,4.0,,,,,,,,,blue,triangle
0.0,2.0,2.0,0.0,5.0,5.0,509.39530902542174,1.0,1.0,phase_2,go,200.0,250.0,1.0,,,,,,,,,cyan,square
0.0,4.0,4.0,0.0,5.0,5.0,410.324475960806,1.0,1.0,phase_2,go,200.0,250.0,1.0,,,,,,,,,white,flipped triangle
0.0,8.0,4.0,1.0,6.0,0.0,0.0,1.0,1.0,phase_2,stop,200.0,250.0,4.0,,,,,,,,,gray,circle
0.0,1.0,1.0,0.0,6.0,6.0,737.8434431739151,1.0,1.0,phase_2,go,200.0,300.0,1.0,,,,,,,,,green,I
0.0,2.0,2.0,0.0,6.0,6.0,483.0814879387617,1.0,1.0,phase_2,go,200.0,300.0,1.0,,,,,,,,,cyan,square
0.0,4.0,4.0,0.0,6.0,6.0,739.4172279164195,1.0,1.0,phase_2,go,200.0,300.0,1.0,,,,,,,,,white,flipped triangle
0.0,4.0,4.0,0.0,6.0,6.0,521.0409630089998,1.0,1.0,phase_2,go,200.0,300.0,1.0,,,,,,,,,white,flipped triangle
0.0,4.0,4.0,0.0,6.0,6.0,581.9728032220155,1.0,1.0,phase_2,go,200.0,300.0,1.0,,,,,,,,,white,flipped triangle
0.0,5.0,1.0,1.0,6.0,6.0,351.1501329485327,1.0,1.0,phase_2,go,200.0,300.0,1.0,,,,,,,,,blue,triangle
0.0,4.0,4.0,0.0,5.0,5.0,448.8538389559835,1.0,1.0,phase_2,go,200.0,300.0,1.0,,,,,,,,,white,flipped triangle
0.0,7.0,3.0,1.0,6.0,6.0,381.3587969634682,1.0,1.0,phase_2,stop,200.0,300.0,3.0,,,,,,,,,magenta,cross
0.0,6.0,2.0,1.0,5.0,5.0,750.4529929719865,1.0,1.0,phase_2,go,200.0,250.0,1.0,,,,,,,,,orange,hexagon
0.0,5.0,1.0,1.0,5.0,0.0,0.0,1.0,1.0,phase_2,stop,200.0,250.0,4.0,,,,,,,,,blue,triangle
0.0,2.0,2.0,0.0,5.0,5.0,718.9186390023679,1.0,1.0,phase_2,go,250.0,250.0,1.0,,,,,,,,,cyan,square
0.0,5.0,1.0,1.0,6.0,6.0,626.7703007906675,1.0,1.0,phase_2,go,250.0,250.0,1.0,,,,,,,,,blue,triangle
0.0,6.0,2.0,1.0,6.0,6.0,345.4914090689271,1.0,1.0,phase_2,stop,250.0,250.0,3.0,,,,,,,,,orange,hexagon
0.0,6.0,2.0,1.0,6.0,0.0,0.0,1.0,1.0,phase_2,stop,250.0,200.0,4.0,,,,,,,,,orange,hexagon
0.0,1.0,1.0,0.0,5.0,5.0,450.8289690129459,1.0,1.0,phase_2,go,250.0,250.0,1.0,,,,,,,,,green,I
0.0,2.0,2.0,0.0,6.0,6.0,644.3824791349471,1.0,1.0,phase_2,go,250.0,250.0,1.0,,,,,,,,,cyan,square
0.0,1.0,1.0,0.0,6.0,6.0,375.7529009599238,1.0,1.0,phase_2,go,250.0,250.0,1.0,,,,,,,,,green,I
0.0,8.0,4.0,1.0,5.0,5.0,352.0366218872368,1.0,1.0,phase_2,stop,250.0,250.0,3.0,,,,,,,,,gray,circle
0.0,6.0,2.0,1.0,6.0,6.0,695.0074729975313,1.0,1.0,phase_2,go,200.0,250.0,1.0,,,,,,,,,orange,hexagon
0.0,6.0,2.0,1.0,5.0,0.0,0.0,1.0,1.0,phase_2,stop,200.0,250.0,4.0,,,,,,,,,orange,hexagon
0.0,1.0,1.0,0.0,5.0,5.0,713.0761379376054,1.0,1.0,phase_2,go,250.0,250.0,1.0,,,,,,,,,green,I
0.0,4.0,4.0,0.0,6.0,6.0,470.5095640383661,1.0,1.0,phase_2,go,250.0,250.0,1.0,,,,,,,,,white,flipped triangle
0.0,7.0,3.0,1.0,5.0,0.0,0.0,1.0,1.0,phase_2,stop,250.0,250.0,4.0,,,,,,,,,magenta,cross
0.0,2.0,2.0,0.0,6.0,6.0,548.4088121447712,1.0,1.0,phase_2,go,300.0,250.0,1.0,,,,,,,,,cyan,square
0.0,5.0,1.0,1.0,6.0,6.0,448.4263530466705,2.0,1.0,phase_2,stop,300.0,250.0,3.0,,,,,,,,,blue,triangle
0.0,2.0,2.0,0.0,5.0,5.0,632.0014840457588,2.0,1.0,phase_2,go,300.0,200.0,1.0,,,,,,,,,cyan,square
0.0,5.0,1.0,1.0,6.0,0.0,0.0,2.0,1.0,phase_2,stop,300.0,200.0,4.0,,,,,,,,,blue,triangle
0.0,1.0,1.0,0.0,6.0,6.0,601.6245279461145,2.0,1.0,phase_2,go,300.0,250.0,1.0,,,,,,,,,green,I
0.0,1.0,1.0,0.0,6.0,6.0,502.00875103473663,2.0,1.0,phase_2,go,300.0,250.0,1.0,,,,,,,,,green,I
0.0,7.0,3.0,1.0,6.0,6.0,396.3998209219426,2.0,1.0,phase_2,stop,300.0,250.0,3.0,,,,,,,,,magenta,cross
0.0,6.0,2.0,1.0,5.0,0.0,0.0,2.0,1.0,phase_2,stop,300.0,200.0,4.0,,,,,,,,,orange,hexagon
0.0,5.0,1.0,1.0,5.0,0.0,0.0,2.0,1.0,phase_2,stop,350.0,200.0,4.0,,,,,,,,,blue,triangle
0.0,6.0,2.0,1.0,6.0,6.0,517.7030279301107,2.0,1.0,phase_2,go,400.0,200.0,1.0,,,,,,,,,orange,hexagon
0.0,5.0,1.0,1.0,5.0,5.0,428.9400440175086,2.0,1.0,phase_2,stop,400.0,200.0,3.0,,,,,,,,,blue,triangle
0.0,4.0,4.0,0.0,6.0,6.0,678.0694599729031,2.0,1.0,phase_2,go,350.0,200.0,1.0,,,,,,,,,white,flipped triangle
0.0,4.0,4.0,0.0,5.0,5.0,780.4059851914644,2.0,1.0,phase_2,go,350.0,200.0,1.0,,,,,,,,,white,flipped triangle
0.0,1.0,1.0,0.0,5.0,5.0,508.88940715231,2.0,1.0,phase_2,go,350.0,200.0,1.0,,,,,,,,,green,I
0.0,3.0,3.0,0.0,5.0,5.0,410.8114161062985,2.0,1.0,phase_2,go,350.0,200.0,1.0,,,,,,,,,yellow,diamond
0.0,5.0,1.0,1.0,6.0,0.0,0.0,2.0,1.0,phase_2,stop,350.0,200.0,4.0,,,,,,,,,blue,triangle
0.0,8.0,4.0,1.0,6.0,6.0,610.1454389281571,2.0,1.0,phase_2,go,350.0,250.0,1.0,,,,,,,,,gray,circle
0.0,4.0,4.0,0.0,6.0,6.0,401.268599089235,2.0,1.0,phase_2,go,350.0,250.0,1.0,,,,,,,,,white,flipped triangle
0.0,8.0,4.0,1.0,6.0,6.0,382.3987250216305,2.0,1.0,phase_2,stop,350.0,250.0,3.0,,,,,,,,,gray,circle
0.0,1.0,1.0,0.0,5.0,5.0,511.10847806558013,2.0,1.0,phase_2,go,350.0,200.0,1.0,,,,,,,,,green,I
0.0,5.0,1.0,1.0,5.0,5.0,520.9552471060306,2.0,1.0,phase_2,go,350.0,200.0,1.0,,,,,,,,,blue,triangle
0.0,5.0,1.0,1.0,6.0,6.0,430.5895001161843,2.0,1.0,phase_2,go,350.0,200.0,1.0,,,,,,,,,blue,triangle
0.0,7.0,3.0,1.0,6.0,0.0,0.0,2.0,1.0,phase_2,stop,350.0,200.0,4.0,,,,,,,,,magenta,cross
0.0,3.0,3.0,0.0,6.0,6.0,678.8617079146206,2.0,1.0,phase_2,go,350.0,250.0,1.0,,,,,,,,,yellow,diamond
0.0,2.0,2.0,0.0,5.0,5.0,468.9204921014607,2.0,1.0,phase_2,go,350.0,250.0,1.0,,,,,,,,,cyan,square
0.0,3.0,3.0,0.0,6.0,6.0,331.6195150837302,2.0,1.0,phase_2,go,350.0,250.0,1.0,,,,,,,,,yellow,diamond
0.0,7.0,3.0,1.0,6.0,0.0,0.0,2.0,1.0,phase_2,stop,350.0,250.0,4.0,,,,,,,,,magenta,cross
0.0,5.0,1.0,1.0,5.0,5.0,496.8268789816648,2.0,1.0,phase_2,go,350.0,300.0,1.0,,,,,,,,,blue,triangle
0.0,4.0,4.0,0.0,5.0,5.0,347.4002189468592,2.0,1.0,phase_2,go,350.0,300.0,1.0,,,,,,,,,white,flipped triangle
0.0,8.0,4.0,1.0,5.0,5.0,387.559819035232,2.0,1.0,phase_2,go,350.0,300.0,1.0,,,,,,,,,gray,circle
0.0,1.0,1.0,0.0,6.0,6.0,423.9321709610522,2.0,1.0,phase_2,go,350.0,300.0,1.0,,,,,,,,,green,I
0.0,6.0,2.0,1.0,5.0,5.0,418.0910689756274,2.0,1.0,phase_2,go,350.0,300.0,1.0,,,,,,,,,orange,hexagon
0.0,2.0,2.0,0.0,6.0,6.0,415.2104409877211,2.0,1.0,phase_2,go,350.0,300.0,1.0,,,,,,,,,cyan,square
0.0,3.0,3.0,0.0,6.0,6.0,365.7703089993447,2.0,1.0,phase_2,go,350.0,300.0,1.0,,,,,,,,,yellow,diamond
0.0,7.0,3.0,1.0,5.0,5.0,399.5088059455156,2.0,1.0,phase_2,stop,350.0,300.0,3.0,,,,,,,,,magenta,cross
0.0,7.0,3.0,1.0,5.0,0.0,0.0,2.0,1.0,phase_2,stop,300.0,300.0,4.0,,,,,,,,,magenta,cross
0.0,2.0,2.0,0.0,5.0,5.0,334.9318420514464,2.0,1.0,phase_2,go,350.0,300.0,1.0,,,,,,,,,cyan,square
0.0,1.0,1.0,0.0,6.0,6.0,351.2550781015306,3.0,1.0,phase_2,go,350.0,300.0,1.0,,,,,,,,,green,I
0.0,6.0,2.0,1.0,5.0,5.0,372.4220411386341,3.0,1.0,phase_2,stop,350.0,300.0,3.0,,,,,,,,,orange,hexagon
0.0,2.0,2.0,0.0,5.0,5.0,391.6681390255689,3.0,1.0,phase_2,go,300.0,300.0,1.0,,,,,,,,,cyan,square
0.0,1.0,1.0,0.0,5.0,5.0,333.8182319421321,3.0,1.0,phase_2,go,300.0,300.0,1.0,,,,,,,,,green,I
0.0,6.0,2.0,1.0,5.0,5.0,334.5914878882468,3.0,1.0,phase_2,stop,300.0,300.0,3.0,,,,,,,,,orange,hexagon
0.0,4.0,4.0,0.0,6.0,6.0,283.4801489952951,3.0,1.0,phase_2,go,250.0,300.0,1.0,,,,,,,,,white,flipped triangle
0.0,2.0,2.0,0.0,6.0,6.0,459.4179149717092,3.0,1.0,phase_2,go,250.0,300.0,1.0,,,,,,,,,cyan,square
0.0,5.0,1.0,1.0,6.0,0.0,0.0,3.0,1.0,phase_2,stop,250.0,300.0,4.0,,,,,,,,,blue,triangle
0.0,4.0,4.0,0.0,5.0,5.0,403.9846179075539,3.0,1.0,phase_2,go,250.0,350.0,1.0,,,,,,,,,white,flipped triangle
0.0,3.0,3.0,0.0,5.0,5.0,378.4839091822505,3.0,1.0,phase_2,go,250.0,350.0,1.0,,,,,,,,,yellow,diamond
0.0,8.0,4.0,1.0,6.0,6.0,308.8416620157659,3.0,1.0,phase_2,stop,250.0,350.0,3.0,,,,,,,,,gray,circle
0.0,4.0,4.0,0.0,5.0,5.0,464.9317029397934,3.0,1.0,phase_2,go,250.0,300.0,1.0,,,,,,,,,white,flipped triangle
0.0,6.0,2.0,1.0,6.0,0.0,0.0,3.0,1.0,phase_2,stop,250.0,300.0,4.0,,,,,,,,,orange,hexagon
0.0,3.0,3.0,0.0,6.0,6.0,523.1018599588424,3.0,1.0,phase_2,go,250.0,350.0,1.0,,,,,,,,,yellow,diamond
0.0,4.0,4.0,0.0,5.0,5.0,502.98435613512993,3.0,1.0,phase_2,go,250.0,350.0,1.0,,,,,,,,,white,flipped triangle
0.0,3.0,3.0,0.0,5.0,5.0,310.4627849534154,3.0,1.0,phase_2,go,250.0,350.0,1.0,,,,,,,,,yellow,diamond
0.0,4.0,4.0,0.0,6.0,6.0,672.874400857836,3.0,1.0,phase_2,go,250.0,350.0,1.0,,,,,,,,,white,flipped triangle
0.0,1.0,1.0,0.0,5.0,5.0,357.2749029844999,3.0,1.0,phase_2,go,250.0,350.0,1.0,,,,,,,,,green,I
0.0,1.0,1.0,0.0,5.0,5.0,292.677012970671,3.0,1.0,phase_2,go,250.0,350.0,1.0,,,,,,,,,green,I
0.0,3.0,3.0,0.0,6.0,6.0,396.4311669114977,3.0,1.0,phase_2,go,250.0,350.0,1.0,,,,,,,,,yellow,diamond
0.0,4.0,4.0,0.0,6.0,6.0,374.4991179555654,3.0,1.0,phase_2,go,250.0,350.0,1.0,,,,,,,,,white,flipped triangle
0.0,2.0,2.0,0.0,5.0,5.0,350.8556699380278,3.0,1.0,phase_2,go,250.0,350.0,1.0,,,,,,,,,cyan,square
0.0,7.0,3.0,1.0,5.0,5.0,348.1051041744649,3.0,1.0,phase_2,stop,250.0,350.0,3.0,,,,,,,,,magenta,cross
0.0,1.0,1.0,0.0,5.0,5.0,539.0412169508636,3.0,1.0,phase_2,go,200.0,350.0,1.0,,,,,,,,,green,I
0.0,1.0,1.0,0.0,5.0,5.0,553.9925049524754,3.0,1.0,phase_2,go,200.0,350.0,1.0,,,,,,,,,green,I
0.0,6.0,2.0,1.0,6.0,6.0,505.5719290394336,3.0,1.0,phase_2,go,200.0,350.0,1.0,,,,,,,,,orange,hexagon
0.0,8.0,4.0,1.0,6.0,6.0,428.3065120689571,3.0,1.0,phase_2,stop,200.0,350.0,3.0,,,,,,,,,gray,circle
0.0,3.0,3.0,0.0,5.0,5.0,472.3984231241047,3.0,1.0,phase_2,go,200.0,300.0,1.0,,,,,,,,,yellow,diamond
0.0,6.0,2.0,1.0,5.0,0.0,0.0,3.0,1.0,phase_2,stop,200.0,300.0,4.0,,,,,,,,,orange,hexagon
0.0,6.0,2.0,1.0,6.0,6.0,288.8110000640154,3.0,1.0,phase_2,stop,250.0,300.0,3.0,,,,,,,,,orange,hexagon
0.0,8.0,4.0,1.0,6.0,0.0,0.0,3.0,1.0,phase_2,stop,250.0,250.0,4.0,,,,,,,,,gray,circle
0.0,2.0,2.0,0.0,6.0,6.0,438.8977829366922,3.0,1.0,phase_2,go,250.0,300.0,1.0,,,,,,,,,cyan,square
0.0,2.0,2.0,0.0,6.0,6.0,495.7937551662326,3.0,1.0,phase_2,go,250.0,300.0,1.0,,,,,,,,,cyan,square
0.0,4.0,4.0,0.0,6.0,6.0,543.6086219269782,3.0,1.0,phase_2,go,250.0,300.0,1.0,,,,,,,,,white,flipped triangle
0.0,8.0,4.0,1.0,5.0,5.0,396.9265269115567,3.0,1.0,phase_2,go,250.0,300.0,1.0,,,,,,,,,gray,circle
0.0,4.0,4.0,0.0,5.0,5.0,403.0992009211331,3.0,1.0,phase_2,go,250.0,300.0,1.0,,,,,,,,,white,flipped triangle
0.0,8.0,4.0,1.0,5.0,5.0,537.2677228879184,4.0,1.0,phase_2,stop,250.0,300.0,3.0,,,,,,,,,gray,circle
0.0,2.0,2.0,0.0,5.0,5.0,533.2835759036243,4.0,1.0,phase_2,go,200.0,300.0,1.0,,,,,,,,,cyan,square
0.0,7.0,3.0,1.0,6.0,0.0,0.0,4.0,1.0,phase_2,stop,200.0,300.0,4.0,,,,,,,,,magenta,cross
0.0,6.0,2.0,1.0,6.0,6.0,517.2929710242897,4.0,1.0,phase_2,go,200.0,350.0,1.0,,,,,,,,,orange,hexagon
0.0,7.0,3.0,1.0,5.0,0.0,0.0,4.0,1.0,phase_2,stop,200.0,350.0,4.0,,,,,,,,,magenta,cross
0.0,5.0,1.0,1.0,5.0,0.0,0.0,4.0,1.0,phase_2,stop,250.0,350.0,4.0,,,,,,,,,blue,triangle
0.0,6.0,2.0,1.0,5.0,0.0,0.0,4.0,1.0,phase_2,stop,300.0,350.0,4.0,,,,,,,,,orange,hexagon
0.0,3.0,3.0,0.0,5.0,5.0,650.9450259618461,4.0,1.0,phase_2,go,350.0,350.0,1.0,,,,,,,,,yellow,diamond
0.0,8.0,4.0,1.0,6.0,6.0,444.8400610126555,4.0,1.0,phase_2,stop,350.0,350.0,3.0,,,,,,,,,gray,circle
0.0,7.0,3.0,1.0,6.0,0.0,0.0,4.0,1.0,phase_2,stop,350.0,300.0,4.0,,,,,,,,,magenta,cross
0.0,8.0,4.0,1.0,5.0,5.0,443.1251299101859,4.0,1.0,phase_2,go,350.0,350.0,1.0,,,,,,,,,gray,circle
0.0,3.0,3.0,0.0,5.0,5.0,403.6902140360325,4.0,1.0,phase_2,go,350.0,350.0,1.0,,,,,,,,,yellow,diamond
0.0,2.0,2.0,0.0,6.0,6.0,280.1835970021784,4.0,1.0,phase_2,go,350.0,350.0,1.0,,,,,,,,,cyan,square
0.0,8.0,4.0,1.0,6.0,0.0,0.0,4.0,1.0,phase_2,stop,350.0,350.0,4.0,,,,,,,,,gray,circle
0.0,6.0,2.0,1.0,5.0,0.0,0.0,4.0,1.0,phase_2,stop,350.0,400.0,4.0,,,,,,,,,orange,hexagon
0.0,8.0,4.0,1.0,5.0,5.0,420.0651058927178,4.0,1.0,phase_2,stop,400.0,400.0,3.0,,,,,,,,,gray,circle
0.0,2.0,2.0,0.0,5.0,5.0,781.2344441190362,4.0,1.0,phase_2,go,350.0,400.0,1.0,,,,,,,,,cyan,square
0.0,5.0,1.0,1.0,6.0,0.0,0.0,4.0,1.0,phase_2,stop,350.0,400.0,4.0,,,,,,,,,blue,triangle
0.0,6.0,2.0,1.0,5.0,0.0,0.0,4.0,1.0,phase_2,stop,350.0,450.0,4.0,,,,,,,,,orange,hexagon
0.0,8.0,4.0,1.0,6.0,6.0,643.4338949620724,4.0,1.0,phase_2,go,400.0,450.0,1.0,,,,,,,,,gray,circle
0.0,1.0,1.0,0.0,6.0,6.0,555.9662180021405,4.0,1.0,phase_2,go,400.0,450.0,1.0,,,,,,,,,green,I
0.0,1.0,1.0,0.0,5.0,5.0,523.3718270901591,4.0,1.0,phase_2,go,400.0,450.0,1.0,,,,,,,,,green,I
0.0,2.0,2.0,0.0,6.0,6.0,450.0620670150965,4.0,1.0,phase_2,go,400.0,450.0,1.0,,,,,,,,,cyan,square
0.0,4.0,4.0,0.0,6.0,6.0,477.2808300331235,4.0,1.0,phase_2,go,400.0,450.0,1.0,,,,,,,,,white,flipped triangle
0.0,1.0,1.0,0.0,6.0,6.0,427.3637728765607,4.0,1.0,phase_2,go,400.0,450.0,1.0,,,,,,,,,green,I
0.0,2.0,2.0,0.0,5.0,5.0,513.9625170268118,4.0,1.0,phase_2,go,400.0,450.0,1.0,,,,,,,,,cyan,square
0.0,8.0,4.0,1.0,5.0,5.0,499.5703920722008,4.0,1.0,phase_2,stop,400.0,450.0,3.0,,,,,,,,,gray,circle
0.0,2.0,2.0,0.0,5.0,5.0,759.7690029069781,4.0,1.0,phase_2,go,350.0,450.0,1.0,,,,,,,,,cyan,square
0.0,8.0,4.0,1.0,5.0,0.0,0.0,4.0,1.0,phase_2,stop,350.0,450.0,4.0,,,,,,,,,gray,circle
0.0,7.0,3.0,1.0,6.0,6.0,303.1254019588232,4.0,1.0,phase_2,go,400.0,450.0,1.0,,,,,,,,,magenta,cross
0.0,4.0,4.0,0.0,6.0,6.0,797.6165439467877,4.0,1.0,phase_2,go,400.0,450.0,1.0,,,,,,,,,white,flipped triangle
0.0,1.0,1.0,0.0,6.0,6.0,693.1138031650335,4.0,1.0,phase_2,go,400.0,450.0,1.0,,,,,,,,,green,I
0.0,3.0,3.0,0.0,6.0,6.0,527.7885289397091,4.0,1.0,phase_2,go,400.0,450.0,1.0,,,,,,,,,yellow,diamond
0.0,1.0,1.0,0.0,5.0,5.0,548.0773427989334,4.0,1.0,phase_2,go,400.0,450.0,1.0,,,,,,,,,green,I
0.0,4.0,4.0,0.0,6.0,6.0,413.2534929085523,4.0,1.0,phase_2,go,400.0,450.0,1.0,,,,,,,,,white,flipped triangle
0.0,8.0,4.0,1.0,6.0,6.0,507.5202139560133,4.0,1.0,phase_2,stop,400.0,450.0,3.0,,,,,,,,,gray,circle
0.0,7.0,3.0,1.0,6.0,6.0,366.5969090070575,5.0,1.0,phase_2,stop,400.0,400.0,3.0,,,,,,,,,magenta,cross
0.0,4.0,4.0,0.0,6.0,6.0,631.5384020563215,5.0,1.0,phase_2,go,400.0,350.0,1.0,,,,,,,,,white,flipped triangle
0.0,2.0,2.0,0.0,5.0,5.0,456.6403140779584,5.0,1.0,phase_2,go,400.0,350.0,1.0,,,,,,,,,cyan,square
0.0,2.0,2.0,0.0,5.0,5.0,391.802117228508,5.0,1.0,phase_2,go,400.0,350.0,1.0,,,,,,,,,cyan,square
0.0,7.0,3.0,1.0,5.0,5.0,358.761030016467,5.0,1.0,phase_2,go,400.0,350.0,1.0,,,,,,,,,magenta,cross
0.0,3.0,3.0,0.0,5.0,5.0,333.1034199800342,5.0,1.0,phase_2,go,400.0,350.0,1.0,,,,,,,,,yellow,diamond
0.0,3.0,3.0,0.0,5.0,5.0,315.7096700742841,5.0,1.0,phase_2,go,400.0,350.0,1.0,,,,,,,,,yellow,diamond
0.0,6.0,2.0,1.0,6.0,0.0,0.0,5.0,1.0,phase_2,stop,400.0,350.0,4.0,,,,,,,,,orange,hexagon
0.0,4.0,4.0,0.0,5.0,5.0,524.5376259554178,5.0,1.0,phase_2,go,400.0,400.0,1.0,,,,,,,,,white,flipped triangle
0.0,1.0,1.0,0.0,5.0,5.0,316.8131550773978,5.0,1.0,phase_2,go,400.0,400.0,1.0,,,,,,,,,green,I
0.0,3.0,3.0,0.0,5.0,5.0,355.4946759250015,5.0,1.0,phase_2,go,400.0,400.0,1.0,,,,,,,,,yellow,diamond
0.0,7.0,3.0,1.0,5.0,5.0,482.6466687954962,5.0,1.0,phase_2,stop,400.0,400.0,3.0,,,,,,,,,magenta,cross
0.0,5.0,1.0,1.0,5.0,0.0,0.0,5.0,1.0,phase_2,stop,350.0,400.0,4.0,,,,,,,,,blue,triangle
0.0,5.0,1.0,1.0,6.0,0.0,0.0,5.0,1.0,phase_2,stop,400.0,400.0,4.0,,,,,,,,,blue,triangle
0.0,4.0,4.0,0.0,5.0,5.0,318.6606559902429,5.0,1.0,phase_2,go,400.0,450.0,1.0,,,,,,,,,white,flipped triangle
0.0,2.0,2.0,0.0,5.0,5.0,450.2386809326708,5.0,1.0,phase_2,go,400.0,450.0,1.0,,,,,,,,,cyan,square
0.0,3.0,3.0,0.0,5.0,5.0,385.4976410511881,5.0,1.0,phase_2,go,400.0,450.0,1.0,,,,,,,,,yellow,diamond
0.0,7.0,3.0,1.0,6.0,6.0,392.4346109852195,5.0,1.0,phase_2,stop,400.0,450.0,3.0,,,,,,,,,magenta,cross
0.0,3.0,3.0,0.0,6.0,6.0,678.7772960960865,5.0,1.0,phase_2,go,400.0,400.0,1.0,,,,,,,,,yellow,diamond
0.0,5.0,1.0,1.0,6.0,6.0,445.5499539617449,5.0,1.0,phase_2,go,400.0,400.0,1.0,,,,,,,,,blue,triangle
0.0,1.0,1.0,0.0,5.0,5.0,293.745351023972,5.0,1.0,phase_2,go,400.0,400.0,1.0,,,,,,,,,green,I
0.0,4.0,4.0,0.0,5.0,5.0,390.5014810152352,5.0,1.0,phase_2,go,400.0,400.0,1.0,,,,,,,,,white,flipped triangle
0.0,7.0,3.0,1.0,5.0,5.0,314.7357958368957,5.0,1.0,phase_2,go,400.0,400.0,1.0,,,,,,,,,magenta,cross
0.0,8.0,4.0,1.0,5.0,5.0,341.6062761098146,5.0,1.0,phase_2,stop,400.0,400.0,3.0,,,,,,,,,gray,circle
0.0,3.0,3.0,0.0,6.0,6.0,320.8682399708777,5.0,1.0,phase_2,go,350.0,400.0,1.0,,,,,,,,,yellow,diamond
0.0,8.0,4.0,1.0,5.0,5.0,424.5218839496374,5.0,1.0,phase_2,stop,350.0,400.0,3.0,,,,,,,,,gray,circle
0.0,5.0,1.0,1.0,6.0,0.0,0.0,5.0,1.0,phase_2,stop,300.0,400.0,4.0,,,,,,,,,blue,triangle
0.0,5.0,1.0,1.0,6.0,0.0,0.0,5.0,1.0,phase_2,stop,300.0,450.0,4.0,,,,,,,,,blue,triangle
0.0,5.0,1.0,1.0,5.0,5.0,568.8146059401333,5.0,1.0,phase_2,go,300.0,500.0,1.0,,,,,,,,,blue,triangle
0.0,3.0,3.0,0.0,5.0,5.0,760.5655759107322,5.0,1.0,phase_2,go,300.0,500.0,1.0,,,,,,,,,yellow,diamond
0.0,2.0,2.0,0.0,6.0,6.0,574.6295060962439,5.0,1.0,phase_2,go,300.0,500.0,1.0,,,,,,,,,cyan,square
0.0,8.0,4.0,1.0,5.0,0.0,0.0,5.0,1.0,phase_2,stop,300.0,500.0,4.0,,,,,,,,,gray,circle
0.0,5.0,1.0,1.0,6.0,6.0,591.136883944273,5.0,1.0,phase_2,stop,350.0,500.0,3.0,,,,,,,,,blue,triangle
0.0,3.0,3.0,0.0,6.0,6.0,734.4154110178351,5.0,1.0,phase_2,go,350.0,450.0,1.0,,,,,,,,,yellow,diamond
0.0,7.0,3.0,1.0,5.0,5.0,390.4178449884057,5.0,1.0,phase_2,go,350.0,450.0,1.0,,,,,,,,,magenta,cross
0.0,1.0,1.0,0.0,5.0,5.0,507.21909990534186,5.0,1.0,phase_2,go,350.0,450.0,1.0,,,,,,,,,green,I
0.0,6.0,2.0,1.0,5.0,5.0,420.2478439547121,6.0,1.0,phase_2,stop,350.0,450.0,3.0,,,,,,,,,orange,hexagon
0.0,8.0,4.0,1.0,6.0,6.0,305.9134162031114,6.0,1.0,phase_2,go,300.0,450.0,1.0,,,,,,,,,gray,circle
0.0,4.0,4.0,0.0,5.0,5.0,388.964066049084,6.0,1.0,phase_2,go,300.0,450.0,1.0,,,,,,,,,white,flipped triangle
0.0,1.0,1.0,0.0,6.0,6.0,388.5911300312727,6.0,1.0,phase_2,go,300.0,450.0,1.0,,,,,,,,,green,I
0.0,3.0,3.0,0.0,6.0,6.0,362.9057221114635,6.0,1.0,phase_2,go,300.0,450.0,1.0,,,,,,,,,yellow,diamond
0.0,2.0,2.0,0.0,6.0,6.0,401.9831840414554,6.0,1.0,phase_2,go,300.0,450.0,1.0,,,,,,,,,cyan,square
0.0,7.0,3.0,1.0,5.0,5.0,255.4530380293727,6.0,1.0,phase_2,go,300.0,450.0,1.0,,,,,,,,,magenta,cross
0.0,4.0,4.0,0.0,5.0,5.0,424.1504040546715,6.0,1.0,phase_2,go,300.0,450.0,1.0,,,,,,,,,white,flipped triangle
0.0,1.0,1.0,0.0,5.0,5.0,208.0511839594692,6.0,1.0,phase_2,go,300.0,450.0,1.0,,,,,,,,,green,I
0.0,5.0,1.0,1.0,5.0,5.0,239.7715980187058,6.0,1.0,phase_2,stop,300.0,450.0,3.0,,,,,,,,,blue,triangle
0.0,1.0,1.0,0.0,6.0,6.0,408.2436421886086,6.0,1.0,phase_2,go,250.0,450.0,1.0,,,,,,,,,green,I
0.0,5.0,1.0,1.0,5.0,5.0,416.1055709701031,6.0,1.0,phase_2,stop,250.0,450.0,3.0,,,,,,,,,blue,triangle
0.0,6.0,2.0,1.0,5.0,0.0,0.0,6.0,1.0,phase_2,stop,200.0,450.0,4.0,,,,,,,,,orange,hexagon
0.0,2.0,2.0,0.0,5.0,5.0,309.342429973185,6.0,1.0,phase_2,go,250.0,450.0,1.0,,,,,,,,,cyan,square
0.0,8.0,4.0,1.0,5.0,0.0,0.0,6.0,1.0,phase_2,stop,250.0,450.0,4.0,,,,,,,,,gray,circle
0.0,8.0,4.0,1.0,6.0,6.0,468.7461198773235,6.0,1.0,phase_2,stop,300.0,450.0,3.0,,,,,,,,,gray,circle
0.0,4.0,4.0,0.0,5.0,5.0,652.5181429460645,6.0,1.0,phase_2,go,300.0,400.0,1.0,,,,,,,,,white,flipped triangle
0.0,5.0,1.0,1.0,5.0,5.0,505.33203803934157,6.0,1.0,phase_2,stop,300.0,400.0,3.0,,,,,,,,,blue,triangle
0.0,6.0,2.0,1.0,6.0,0.0,0.0,6.0,1.0,phase_2,stop,250.0,400.0,4.0,,,,,,,,,orange,hexagon
0.0,3.0,3.0,0.0,6.0,6.0,639.6869979798794,6.0,1.0,phase_2,go,250.0,450.0,1.0,,,,,,,,,yellow,diamond
0.0,7.0,3.0,1.0,6.0,0.0,0.0,6.0,1.0,phase_2,stop,250.0,450.0,4.0,,,,,,,,,magenta,cross
0.0,2.0,2.0,0.0,6.0,6.0,894.1069599241018,6.0,1.0,phase_2,go,250.0,500.0,1.0,,,,,,,,,cyan,square
0.0,7.0,3.0,1.0,6.0,6.0,529.5647890307009,6.0,1.0,phase_2,go,250.0,500.0,1.0,,,,,,,,,magenta,cross
0.0,5.0,1.0,1.0,5.0,5.0,249.230446992442,6.0,1.0,phase_2,stop,250.0,500.0,3.0,,,,,,,,,blue,triangle
0.0,4.0,4.0,0.0,6.0,6.0,776.1653629131615,6.0,1.0,phase_2,go,200.0,500.0,1.0,,,,,,,,,white,flipped triangle
0.0,6.0,2.0,1.0,6.0,6.0,412.3498501721769,6.0,1.0,phase_2,stop,200.0,500.0,3.0,,,,,,,,,orange,hexagon
0.0,6.0,2.0,1.0,5.0,0.0,0.0,6.0,1.0,phase_2,stop,200.0,450.0,4.0,,,,,,,,,orange,hexagon
0.0,5.0,1.0,1.0,5.0,0.0,0.0,6.0,1.0,phase_2,stop,250.0,450.0,4.0,,,,,,,,,blue,triangle
0.0,3.0,3.0,0.0,6.0,6.0,492.8617139812559,6.0,1.0,phase_2,go,300.0,450.0,1.0,,,,,,,,,yellow,diamond
0.0,3.0,3.0,0.0,5.0,5.0,747.5641861092299,6.0,1.0,phase_2,go,300.0,450.0,1.0,,,,,,,,,yellow,diamond
0.0,6.0,2.0,1.0,6.0,0.0,0.0,6.0,1.0,phase_2,stop,300.0,450.0,4.0,,,,,,,,,orange,hexagon
0.0,3.0,3.0,0.0,5.0,5.0,658.5367550142109,6.0,1.0,phase_2,go,300.0,500.0,1.0,,,,,,,,,yellow,diamond
0.0,1.0,1.0,0.0,6.0,6.0,601.9048390444368,6.0,1.0,phase_2,go,300.0,500.0,1.0,,,,,,,,,green,I
0.0,7.0,3.0,1.0,5.0,0.0,0.0,6.0,1.0,phase_2,stop,300.0,500.0,4.0,,,,,,,,,magenta,cross
0.0,1.0,1.0,0.0,6.0,6.0,528.0745830386877,6.0,1.0,phase_2,go,350.0,500.0,1.0,,,,,,,,,green,I
0.0,4.0,4.0,0.0,5.0,5.0,608.651340007782,6.0,1.0,phase_2,go,350.0,500.0,1.0,,,,,,,,,white,flipped triangle
0.0,5.0,1.0,1.0,5.0,5.0,516.664284048602,7.0,1.0,phase_2,stop,350.0,500.0,3.0,,,,,,,,,blue,triangle
0.0,6.0,2.0,1.0,6.0,6.0,532.9076901543885,7.0,1.0,phase_2,stop,300.0,500.0,3.0,,,,,,,,,orange,hexagon
0.0,8.0,4.0,1.0,5.0,5.0,721.6580680105835,7.0,1.0,phase_2,go,300.0,450.0,1.0,,,,,,,,,gray,circle
0.0,6.0,2.0,1.0,6.0,6.0,547.7138608694077,7.0,1.0,phase_2,stop,300.0,450.0,3.0,,,,,,,,,orange,hexagon
0.0,7.0,3.0,1.0,6.0,0.0,0.0,7.0,1.0,phase_2,stop,300.0,400.0,4.0,,,,,,,,,magenta,cross
0.0,2.0,2.0,0.0,5.0,5.0,505.8579999022186,7.0,1.0,phase_2,go,300.0,450.0,1.0,,,,,,,,,cyan,square
0.0,1.0,1.0,0.0,6.0,6.0,689.15722402744,7.0,1.0,phase_2,go,300.0,450.0,1.0,,,,,,,,,green,I
0.0,8.0,4.0,1.0,5.0,0.0,0.0,7.0,1.0,phase_2,stop,300.0,450.0,4.0,,,,,,,,,gray,circle
0.0,6.0,2.0,1.0,6.0,6.0,230.3606090135872,7.0,1.0,phase_2,go,350.0,450.0,1.0,,,,,,,,,orange,hexagon
0.0,2.0,2.0,0.0,5.0,5.0,573.4785518143326,7.0,1.0,phase_2,go,350.0,450.0,1.0,,,,,,,,,cyan,square
0.0,7.0,3.0,1.0,5.0,0.0,0.0,7.0,1.0,phase_2,stop,350.0,450.0,4.0,,,,,,,,,magenta,cross
0.0,7.0,3.0,1.0,6.0,0.0,0.0,7.0,1.0,phase_2,stop,400.0,450.0,4.0,,,,,,,,,magenta,cross
0.0,1.0,1.0,0.0,5.0,5.0,565.4324810020626,7.0,1.0,phase_2,go,400.0,500.0,1.0,,,,,,,,,green,I
0.0,6.0,2.0,1.0,5.0,5.0,699.7326479759067,7.0,1.0,phase_2,go,400.0,500.0,1.0,,,,,,,,,orange,hexagon
0.0,3.0,3.0,0.0,6.0,6.0,691.1664039362222,7.0,1.0,phase_2,go,400.0,500.0,1.0,,,,,,,,,yellow,diamond
0.0,8.0,4.0,1.0,5.0,5.0,532.6198451220989,7.0,1.0,phase_2,stop,400.0,500.0,3.0,,,,,,,,,gray,circle
0.0,4.0,4.0,0.0,5.0,5.0,725.2420091535896,7.0,1.0,phase_2,go,350.0,500.0,1.0,,,,,,,,,white,flipped triangle
0.0,1.0,1.0,0.0,5.0,5.0,412.1159960050136,7.0,1.0,phase_2,go,350.0,500.0,1.0,,,,,,,,,green,I
0.0,8.0,4.0,1.0,6.0,6.0,572.1242830622941,7.0,1.0,phase_2,go,350.0,500.0,1.0,,,,,,,,,gray,circle
0.0,8.0,4.0,1.0,6.0,6.0,608.3423630334437,7.0,1.0,phase_2,stop,350.0,500.0,3.0,,,,,,,,,gray,circle
0.0,3.0,3.0,0.0,6.0,6.0,880.0146370194852,7.0,1.0,phase_2,go,350.0,450.0,1.0,,,,,,,,,yellow,diamond
0.0,2.0,2.0,0.0,5.0,5.0,710.9077549539506,7.0,1.0,phase_2,go,350.0,450.0,1.0,,,,,,,,,cyan,square
0.0,8.0,4.0,1.0,5.0,0.0,0.0,7.0,1.0,phase_2,stop,350.0,450.0,4.0,,,,,,,,,gray,circle
0.0,3.0,3.0,0.0,6.0,6.0,678.3734729979187,7.0,1.0,phase_2,go,400.0,450.0,1.0,,,,,,,,,yellow,diamond
0.0,8.0,4.0,1.0,6.0,0.0,0.0,7.0,1.0,phase_2,stop,400.0,450.0,4.0,,,,,,,,,gray,circle
0.0,7.0,3.0,1.0,6.0,6.0,608.2464961800724,7.0,1.0,phase_2,stop,400.0,500.0,3.0,,,,,,,,,magenta,cross
0.0,3.0,3.0,0.0,5.0,5.0,886.903224978596,7.0,1.0,phase_2,go,400.0,450.0,1.0,,,,,,,,,yellow,diamond
0.0,6.0,2.0,1.0,5.0,0.0,0.0,7.0,1.0,phase_2,stop,400.0,450.0,4.0,,,,,,,,,orange,hexagon
0.0,5.0,1.0,1.0,6.0,6.0,684.8395830020308,7.0,1.0,phase_2,go,450.0,450.0,1.0,,,,,,,,,blue,triangle
0.0,7.0,3.0,1.0,5.0,5.0,1062.0469069108367,7.0,1.0,phase_2,go,450.0,450.0,1.0,,,,,,,,,magenta,cross
0.0,4.0,4.0,0.0,6.0,6.0,621.67006614618,7.0,1.0,phase_2,go,450.0,450.0,1.0,,,,,,,,,white,flipped triangle
0.0,8.0,4.0,1.0,6.0,6.0,809.0780361089855,7.0,1.0,phase_2,go,450.0,450.0,1.0,,,,,,,,,gray,circle
0.0,7.0,3.0,1.0,6.0,6.0,763.8869769871235,7.0,1.0,phase_2,go,450.0,450.0,1.0,,,,,,,,,magenta,cross
0.0,5.0,1.0,1.0,6.0,0.0,0.0,7.0,1.0,phase_2,stop,450.0,450.0,4.0,,,,,,,,,blue,triangle
0.0,5.0,1.0,1.0,5.0,5.0,535.6956138275564,7.0,1.0,phase_2,stop,450.0,500.0,3.0,,,,,,,,,blue,triangle
0.0,3.0,3.0,0.0,6.0,6.0,623.324658954516,7.0,1.0,phase_2,go,400.0,500.0,1.0,,,,,,,,,yellow,diamond
0.0,2.0,2.0,0.0,6.0,6.0,444.9051709380001,8.0,1.0,phase_2,go,400.0,500.0,1.0,,,,,,,,,cyan,square
0.0,1.0,1.0,0.0,6.0,6.0,316.1853260826319,8.0,1.0,phase_2,go,400.0,500.0,1.0,,,,,,,,,green,I
0.0,5.0,1.0,1.0,6.0,6.0,347.2506219986826,8.0,1.0,phase_2,stop,400.0,500.0,3.0,,,,,,,,,blue,triangle
0.0,6.0,2.0,1.0,6.0,6.0,305.2469629328698,8.0,1.0,phase_2,stop,400.0,450.0,3.0,,,,,,,,,orange,hexagon
0.0,4.0,4.0,0.0,6.0,6.0,730.8760760352015,8.0,1.0,phase_2,go,400.0,400.0,1.0,,,,,,,,,white,flipped triangle
0.0,2.0,2.0,0.0,6.0,6.0,321.5402481146157,8.0,1.0,phase_2,go,400.0,400.0,1.0,,,,,,,,,cyan,square
0.0,8.0,4.0,1.0,5.0,6.0,503.5824060905725,8.0,1.0,phase_2,stop,400.0,400.0,3.0,,,,,,,,,gray,circle
0.0,1.0,1.0,0.0,5.0,5.0,769.0360080450773,8.0,1.0,phase_2,go,350.0,400.0,1.0,,,,,,,,,green,I
0.0,6.0,2.0,1.0,5.0,0.0,0.0,8.0,1.0,phase_2,stop,350.0,400.0,4.0,,,,,,,,,orange,hexagon
0.0,3.0,3.0,0.0,5.0,5.0,600.2597268670797,8.0,1.0,phase_2,go,400.0,400.0,1.0,,,,,,,,,yellow,diamond
0.0,7.0,3.0,1.0,5.0,0.0,0.0,8.0,1.0,phase_2,stop,400.0,400.0,4.0,,,,,,,,,magenta,cross
0.0,4.0,4.0,0.0,5.0,5.0,797.6210350170732,8.0,1.0,phase_2,go,450.0,400.0,1.0,,,,,,,,,white,flipped triangle
0.0,6.0,2.0,1.0,6.0,0.0,0.0,8.0,1.0,phase_2,stop,450.0,400.0,4.0,,,,,,,,,orange,hexagon
0.0,3.0,3.0,0.0,5.0,5.0,668.2787430472672,8.0,1.0,phase_2,go,450.0,450.0,1.0,,,,,,,,,yellow,diamond
0.0,3.0,3.0,0.0,5.0,5.0,459.316638065502,8.0,1.0,phase_2,go,450.0,450.0,1.0,,,,,,,,,yellow,diamond
0.0,7.0,3.0,1.0,6.0,6.0,605.2503630053252,8.0,1.0,phase_2,go,450.0,450.0,1.0,,,,,,,,,magenta,cross
0.0,4.0,4.0,0.0,6.0,6.0,578.4901140723377,8.0,1.0,phase_2,go,450.0,450.0,1.0,,,,,,,,,white,flipped triangle
0.0,3.0,3.0,0.0,6.0,6.0,330.2350388839841,8.0,1.0,phase_2,go,450.0,450.0,1.0,,,,,,,,,yellow,diamond
0.0,8.0,4.0,1.0,6.0,0.0,0.0,8.0,1.0,phase_2,stop,450.0,450.0,4.0,,,,,,,,,gray,circle
0.0,7.0,3.0,1.0,6.0,0.0,0.0,8.0,1.0,phase_2,stop,450.0,500.0,4.0,,,,,,,,,magenta,cross
0.0,5.0,1.0,1.0,5.0,5.0,440.2943570166826,8.0,1.0,phase_2,stop,450.0,550.0,3.0,,,,,,,,,blue,triangle
0.0,4.0,4.0,0.0,5.0,5.0,306.2817899044603,8.0,1.0,phase_2,go,400.0,550.0,1.0,,,,,,,,,white,flipped triangle
0.0,1.0,1.0,0.0,6.0,6.0,487.0909168384969,8.0,1.0,phase_2,go,400.0,550.0,1.0,,,,,,,,,green,I
0.0,5.0,1.0,1.0,6.0,6.0,406.7872711457312,8.0,1.0,phase_2,stop,400.0,550.0,3.0,,,,,,,,,blue,triangle
0.0,3.0,3.0,0.0,5.0,5.0,733.8038699235767,8.0,1.0,phase_2,go,400.0,500.0,1.0,,,,,,,,,yellow,diamond
0.0,8.0,4.0,1.0,6.0,6.0,582.9635919071734,8.0,1.0,phase_2,stop,400.0,500.0,3.0,,,,,,,,,gray,circle
0.0,6.0,2.0,1.0,6.0,0.0,0.0,8.0,1.0,phase_2,stop,400.0,450.0,4.0,,,,,,,,,orange,hexagon
0.0,1.0,1.0,0.0,6.0,6.0,707.9877899959683,8.0,1.0,phase_2,go,400.0,500.0,1.0,,,,,,,,,green,I
0.0,8.0,4.0,1.0,5.0,5.0,252.9494680929929,8.0,1.0,phase_2,stop,400.0,500.0,3.0,,,,,,,,,gray,circle
0.0,2.0,2.0,0.0,6.0,6.0,546.5294639579952,8.0,1.0,phase_2,go,350.0,500.0,1.0,,,,,,,,,cyan,square
0.0,2.0,2.0,0.0,6.0,6.0,578.3468920271844,8.0,1.0,phase_2,go,350.0,500.0,1.0,,,,,,,,,cyan,square
0.0,7.0,3.0,1.0,5.0,5.0,413.7675319798291,8.0,1.0,phase_2,stop,350.0,500.0,3.0,,,,,,,,,magenta,cross
0.0,7.0,3.0,1.0,5.0,0.0,0.0,8.0,1.0,phase_2,stop,300.0,500.0,4.0,,,,,,,,,magenta,cross
0.0,7.0,3.0,1.0,5.0,5.0,627.6447291020304,8.0,1.0,phase_2,stop,350.0,500.0,3.0,,,,,,,,,magenta,cross
0.0,2.0,2.0,0.0,6.0,6.0,762.120793107897,8.0,1.0,phase_2,go,300.0,500.0,1.0,,,,,,,,,cyan,square
0.0,6.0,2.0,1.0,5.0,5.0,656.2316371127963,8.0,1.0,phase_2,go,300.0,500.0,1.0,,,,,,,,,orange,hexagon
0.0,8.0,4.0,1.0,7.0,4.0,4463.994791964069,1.0,1.0,phase_3,,,,,147.0,3.0,294.0,49.0,98.0,147.0,245.0,196.0,gray,circle
0.0,1.0,1.0,0.0,7.0,2.0,1643.46091914922,1.0,2.0,phase_3,,,,,162.0,3.0,54.0,162.0,324.0,108.0,216.0,270.0,green,I
0.0,8.0,4.0,1.0,7.0,4.0,1564.8798539768904,1.0,1.0,phase_3,,,,,156.0,4.0,195.0,39.0,117.0,156.0,234.0,78.0,gray,circle
0.0,2.0,2.0,0.0,7.0,2.0,3662.0054240338495,1.0,1.0,phase_3,,,,,216.0,4.0,108.0,216.0,324.0,162.0,270.0,54.0,cyan,square
0.0,6.0,2.0,1.0,7.0,1.0,3149.68697889708,1.0,1.0,phase_3,,,,,195.0,5.0,195.0,156.0,234.0,117.0,78.0,39.0,orange,hexagon
0.0,4.0,4.0,0.0,7.0,2.0,3609.3707899563015,1.0,1.0,phase_3,,,,,234.0,6.0,195.0,234.0,39.0,78.0,117.0,156.0,white,flipped triangle
0.0,6.0,2.0,1.0,7.0,4.0,3145.221231970936,1.0,1.0,phase_3,,,,,204.0,6.0,34.0,136.0,170.0,204.0,102.0,68.0,orange,hexagon
0.0,5.0,1.0,1.0,7.0,2.0,3242.1702609863128,1.0,1.0,phase_3,,,,,176.0,4.0,132.0,176.0,88.0,220.0,264.0,44.0,blue,triangle
0.0,6.0,2.0,1.0,7.0,1.0,1957.3628401849417,1.0,1.0,phase_3,,,,,170.0,5.0,170.0,136.0,204.0,102.0,34.0,68.0,orange,hexagon
0.0,3.0,3.0,0.0,7.0,4.0,3143.666706047952,1.0,1.0,phase_3,,,,,102.0,3.0,204.0,68.0,170.0,102.0,34.0,136.0,yellow,diamond
0.0,3.0,3.0,0.0,7.0,6.0,2878.467652015388,1.0,1.0,phase_3,,,,,162.0,3.0,270.0,324.0,108.0,54.0,216.0,162.0,yellow,diamond
0.0,4.0,4.0,0.0,7.0,4.0,2635.57309191674,1.0,1.0,phase_3,,,,,270.0,5.0,216.0,324.0,108.0,270.0,162.0,54.0,white,flipped triangle
0.0,2.0,2.0,0.0,7.0,4.0,2049.509773030877,1.0,1.0,phase_3,,,,,156.0,4.0,39.0,78.0,234.0,156.0,195.0,117.0,cyan,square
0.0,7.0,3.0,1.0,7.0,2.0,3146.358381025493,1.0,1.0,phase_3,,,,,102.0,3.0,170.0,102.0,204.0,136.0,34.0,68.0,magenta,cross
0.0,6.0,2.0,1.0,7.0,2.0,2124.974915990606,1.0,1.0,phase_3,,,,,216.0,4.0,162.0,216.0,270.0,54.0,108.0,324.0,orange,hexagon
0.0,8.0,4.0,1.0,7.0,6.0,2349.237658083439,1.0,1.0,phase_3,,,,,170.0,5.0,136.0,34.0,102.0,204.0,68.0,170.0,gray,circle
0.0,3.0,3.0,0.0,7.0,4.0,2760.005712974817,1.0,1.0,phase_3,,,,,162.0,3.0,324.0,108.0,216.0,162.0,270.0,54.0,yellow,diamond
0.0,6.0,2.0,1.0,7.0,3.0,2808.048471808433,1.0,1.0,phase_3,,,,,176.0,4.0,44.0,264.0,176.0,88.0,220.0,132.0,orange,hexagon
0.0,1.0,1.0,0.0,7.0,2.0,3428.387090098113,1.0,1.0,phase_3,,,,,294.0,6.0,196.0,294.0,147.0,245.0,49.0,98.0,green,I
0.0,4.0,4.0,0.0,7.0,1.0,2597.432184033096,1.0,1.0,phase_3,,,,,162.0,3.0,162.0,54.0,270.0,108.0,216.0,324.0,white,flipped triangle
0.0,3.0,3.0,0.0,7.0,2.0,1416.9050708878783,2.0,1.0,phase_3,,,,,156.0,4.0,117.0,156.0,195.0,78.0,39.0,234.0,yellow,diamond
0.0,6.0,2.0,1.0,7.0,5.0,2556.685615098104,2.0,1.0,phase_3,,,,,264.0,6.0,176.0,220.0,44.0,88.0,264.0,132.0,orange,hexagon
0.0,5.0,1.0,1.0,7.0,4.0,1749.4406891055403,2.0,1.0,phase_3,,,,,162.0,3.0,270.0,54.0,216.0,162.0,108.0,324.0,blue,triangle
0.0,2.0,2.0,0.0,7.0,1.0,1918.8178200274704,2.0,1.0,phase_3,,,,,132.0,3.0,132.0,264.0,44.0,176.0,220.0,88.0,cyan,square
0.0,5.0,1.0,1.0,7.0,6.0,2009.882691083476,2.0,1.0,phase_3,,,,,162.0,3.0,216.0,54.0,324.0,108.0,270.0,162.0,blue,triangle
0.0,3.0,3.0,0.0,7.0,1.0,1599.2864340078086,2.0,1.0,phase_3,,,,,156.0,4.0,156.0,117.0,195.0,234.0,39.0,78.0,yellow,diamond
0.0,4.0,4.0,0.0,7.0,3.0,1867.1007980592549,2.0,1.0,phase_3,,,,,170.0,5.0,102.0,68.0,170.0,136.0,204.0,34.0,white,flipped triangle
0.0,5.0,1.0,1.0,7.0,4.0,2205.7386750821024,2.0,1.0,phase_3,,,,,156.0,4.0,234.0,195.0,117.0,156.0,39.0,78.0,blue,triangle
0.0,5.0,1.0,1.0,7.0,6.0,2572.42501503788,2.0,1.0,phase_3,,,,,196.0,4.0,245.0,98.0,294.0,147.0,49.0,196.0,blue,triangle
0.0,4.0,4.0,0.0,7.0,5.0,2399.313597008586,2.0,1.0,phase_3,,,,,195.0,5.0,39.0,156.0,78.0,234.0,195.0,117.0,white,flipped triangle
0.0,7.0,3.0,1.0,7.0,1.0,2376.696788007393,2.0,1.0,phase_3,,,,,270.0,5.0,270.0,324.0,216.0,162.0,54.0,108.0,magenta,cross
0.0,5.0,1.0,1.0,7.0,2.0,1386.4256960805506,2.0,1.0,phase_3,,,,,170.0,5.0,34.0,170.0,102.0,204.0,68.0,136.0,blue,triangle
0.0,1.0,1.0,0.0,7.0,3.0,2185.020542005077,2.0,1.0,phase_3,,,,,170.0,5.0,204.0,68.0,170.0,34.0,102.0,136.0,green,I
0.0,7.0,3.0,1.0,7.0,2.0,2714.714420028031,2.0,1.0,phase_3,,,,,136.0,4.0,102.0,136.0,170.0,34.0,68.0,204.0,magenta,cross
0.0,3.0,3.0,0.0,7.0,4.0,2436.8351970333606,2.0,1.0,phase_3,,,,,132.0,3.0,264.0,44.0,88.0,132.0,220.0,176.0,yellow,diamond
0.0,1.0,1.0,0.0,7.0,6.0,1969.2219239659607,2.0,1.0,phase_3,,,,,176.0,4.0,44.0,264.0,220.0,132.0,88.0,176.0,green,I
0.0,7.0,3.0,1.0,7.0,3.0,1694.6677200030535,2.0,1.0,phase_3,,,,,176.0,4.0,220.0,264.0,176.0,132.0,44.0,88.0,magenta,cross
0.0,4.0,4.0,0.0,7.0,4.0,2560.2463469840586,2.0,1.0,phase_3,,,,,196.0,4.0,294.0,98.0,49.0,196.0,245.0,147.0,white,flipped triangle
0.0,2.0,2.0,0.0,7.0,3.0,2091.735380934552,2.0,1.0,phase_3,,,,,162.0,3.0,54.0,216.0,162.0,108.0,270.0,324.0,cyan,square
0.0,2.0,2.0,0.0,7.0,2.0,1964.9047290440649,2.0,1.0,phase_3,,,,,136.0,4.0,170.0,136.0,204.0,34.0,102.0,68.0,cyan,square
0.0,7.0,3.0,1.0,7.0,5.0,2443.371893838048,3.0,1.0,phase_3,,,,,147.0,3.0,294.0,245.0,49.0,196.0,147.0,98.0,magenta,cross
0.0,4.0,4.0,0.0,7.0,1.0,2023.7313159741461,3.0,1.0,phase_3,,,,,132.0,3.0,132.0,44.0,220.0,88.0,176.0,264.0,white,flipped triangle
0.0,8.0,4.0,1.0,7.0,3.0,2166.64822306484,3.0,1.0,phase_3,,,,,132.0,3.0,88.0,220.0,132.0,264.0,176.0,44.0,gray,circle
0.0,3.0,3.0,0.0,7.0,3.0,3392.1688951086253,3.0,1.0,phase_3,,,,,147.0,3.0,196.0,294.0,147.0,49.0,98.0,245.0,yellow,diamond
0.0,8.0,4.0,1.0,7.0,5.0,1948.761493898928,3.0,1.0,phase_3,,,,,54.0,1.0,216.0,108.0,162.0,270.0,54.0,324.0,gray,circle
0.0,8.0,4.0,1.0,7.0,3.0,1330.1026478875428,3.0,1.0,phase_3,,,,,78.0,2.0,234.0,156.0,78.0,117.0,195.0,39.0,gray,circle
0.0,1.0,1.0,0.0,7.0,4.0,2181.4879928715527,3.0,1.0,phase_3,,,,,195.0,5.0,234.0,39.0,78.0,195.0,156.0,117.0,green,I
0.0,1.0,1.0,0.0,7.0,4.0,1288.130769971758,3.0,1.0,phase_3,,,,,196.0,4.0,147.0,49.0,98.0,196.0,294.0,245.0,green,I
0.0,1.0,1.0,0.0,7.0,2.0,2753.7131051067263,3.0,1.0,phase_3,,,,,216.0,4.0,270.0,216.0,54.0,162.0,108.0,324.0,green,I
0.0,5.0,1.0,1.0,7.0,6.0,2616.5405639912933,3.0,1.0,phase_3,,,,,176.0,4.0,264.0,220.0,88.0,132.0,44.0,176.0,blue,triangle
0.0,8.0,4.0,1.0,7.0,6.0,1265.965046128258,3.0,1.0,phase_3,,,,,49.0,1.0,147.0,294.0,245.0,98.0,196.0,49.0,gray,circle
0.0,7.0,3.0,1.0,7.0,3.0,2399.163495982066,3.0,1.0,phase_3,,,,,216.0,4.0,270.0,324.0,216.0,108.0,162.0,54.0,magenta,cross
0.0,8.0,4.0,1.0,7.0,3.0,1901.0076778940856,3.0,1.0,phase_3,,,,,68.0,2.0,170.0,204.0,68.0,34.0,136.0,102.0,gray,circle
0.0,1.0,1.0,0.0,7.0,6.0,1885.530099039897,3.0,1.0,phase_3,,,,,204.0,6.0,34.0,68.0,170.0,102.0,136.0,204.0,green,I
0.0,4.0,4.0,0.0,7.0,2.0,1423.4014900866896,3.0,1.0,phase_3,,,,,176.0,4.0,220.0,176.0,44.0,264.0,132.0,88.0,white,flipped triangle
0.0,6.0,2.0,1.0,7.0,2.0,2691.117834066972,3.0,1.0,phase_3,,,,,245.0,5.0,196.0,245.0,294.0,98.0,49.0,147.0,orange,hexagon
0.0,6.0,2.0,1.0,7.0,3.0,2004.25546313636,3.0,1.0,phase_3,,,,,270.0,5.0,162.0,54.0,270.0,108.0,216.0,324.0,orange,hexagon
0.0,6.0,2.0,1.0,7.0,5.0,1862.9621320869771,3.0,1.0,phase_3,,,,,245.0,5.0,294.0,147.0,49.0,98.0,245.0,196.0,orange,hexagon
0.0,2.0,2.0,0.0,7.0,4.0,2360.226097982377,3.0,1.0,phase_3,,,,,156.0,4.0,39.0,117.0,78.0,156.0,195.0,234.0,cyan,square
0.0,2.0,2.0,0.0,7.0,1.0,1926.609535003081,3.0,1.0,phase_3,,,,,132.0,3.0,132.0,220.0,88.0,44.0,264.0,176.0,cyan,square
0.0,5.0,1.0,1.0,7.0,1.0,2808.19724383764,4.0,1.0,phase_3,,,,,170.0,5.0,170.0,34.0,102.0,68.0,204.0,136.0,blue,triangle
0.0,2.0,2.0,0.0,7.0,2.0,914.0817678999156,4.0,1.0,phase_3,,,,,147.0,3.0,245.0,147.0,98.0,49.0,294.0,196.0,cyan,square
0.0,5.0,1.0,1.0,7.0,5.0,1440.2548831421882,4.0,1.0,phase_3,,,,,156.0,4.0,234.0,39.0,117.0,195.0,156.0,78.0,blue,triangle
0.0,8.0,4.0,1.0,7.0,2.0,1620.85762899369,4.0,1.0,phase_3,,,,,54.0,1.0,216.0,54.0,108.0,324.0,162.0,270.0,gray,circle
0.0,4.0,4.0,0.0,7.0,5.0,1838.8832330238076,4.0,1.0,phase_3,,,,,98.0,2.0,147.0,245.0,49.0,196.0,98.0,294.0,white,flipped triangle
0.0,7.0,3.0,1.0,7.0,1.0,1845.3486810904,4.0,1.0,phase_3,,,,,264.0,6.0,264.0,220.0,44.0,176.0,132.0,88.0,magenta,cross
0.0,3.0,3.0,0.0,7.0,3.0,1871.477078879252,4.0,1.0,phase_3,,,,,170.0,5.0,136.0,34.0,170.0,102.0,68.0,204.0,yellow,diamond
0.0,4.0,4.0,0.0,7.0,1.0,2143.726878101006,4.0,1.0,phase_3,,,,,68.0,2.0,68.0,102.0,136.0,170.0,204.0,34.0,white,flipped triangle
0.0,1.0,1.0,0.0,7.0,4.0,2284.3096691649407,4.0,1.0,phase_3,,,,,220.0,5.0,264.0,44.0,132.0,220.0,176.0,88.0,green,I
0.0,7.0,3.0,1.0,7.0,4.0,1865.374756976962,4.0,1.0,phase_3,,,,,234.0,6.0,78.0,117.0,195.0,234.0,156.0,39.0,magenta,cross
0.0,2.0,2.0,0.0,7.0,3.0,2726.852294057608,4.0,1.0,phase_3,,,,,147.0,3.0,49.0,245.0,147.0,294.0,196.0,98.0,cyan,square
0.0,5.0,1.0,1.0,7.0,5.0,2468.9671909436584,4.0,1.0,phase_3,,,,,49.0,1.0,147.0,196.0,294.0,245.0,49.0,98.0,blue,triangle
0.0,3.0,3.0,0.0,7.0,1.0,1424.6092510875314,4.0,1.0,phase_3,,,,,147.0,3.0,147.0,196.0,49.0,294.0,245.0,98.0,yellow,diamond
0.0,7.0,3.0,1.0,7.0,3.0,1721.4515409432352,4.0,1.0,phase_3,,,,,294.0,6.0,49.0,147.0,294.0,98.0,245.0,196.0,magenta,cross
0.0,1.0,1.0,0.0,7.0,6.0,1993.3327368926257,4.0,1.0,phase_3,,,,,195.0,5.0,234.0,39.0,78.0,117.0,156.0,195.0,green,I
0.0,6.0,2.0,1.0,7.0,2.0,2427.5582721456885,4.0,1.0,phase_3,,,,,234.0,6.0,78.0,234.0,117.0,195.0,156.0,39.0,orange,hexagon
0.0,2.0,2.0,0.0,7.0,1.0,2373.900185106322,4.0,1.0,phase_3,,,,,136.0,4.0,136.0,34.0,68.0,170.0,102.0,204.0,cyan,square
0.0,8.0,4.0,1.0,7.0,6.0,1694.750996073708,4.0,1.0,phase_3,,,,,88.0,2.0,132.0,264.0,220.0,176.0,44.0,88.0,gray,circle
0.0,3.0,3.0,0.0,7.0,4.0,2270.151866832748,4.0,1.0,phase_3,,,,,176.0,4.0,132.0,44.0,220.0,176.0,88.0,264.0,yellow,diamond
0.0,7.0,3.0,1.0,7.0,6.0,2482.223101891577,4.0,1.0,phase_3,,,,,156.0,4.0,234.0,39.0,117.0,195.0,78.0,156.0,magenta,cross
