raw_reward_magnitude,stim_reward,stepwise_reward_magnitude,paired_with_stopping,stim_location,response,reaction_time,block,num_trial_presentations,which_phase,stop_signal_trial_type,left_SSD,right_SSD,accuracy,chosen_bidding_amount,chosen_bidding_level,possible_bid_1,possible_bid_2,possible_bid_3,possible_bid_4,possible_bid_5,possible_bid_6,color_text,shape_text
181.0,7.0,3.0,1.0,2.0,2.0,355.2829988766461,1.0,1.0,phase_1,,,,,,,,,,,,,green,square
68.0,5.0,1.0,1.0,3.0,3.0,394.6710668969899,1.0,1.0,phase_1,,,,,,,,,,,,,white,flipped triangle
188.0,7.0,3.0,1.0,4.0,4.0,304.1561460122466,1.0,1.0,phase_1,,,,,,,,,,,,,green,square
50.0,5.0,1.0,1.0,2.0,2.0,332.5776730198413,1.0,1.0,phase_1,,,,,,,,,,,,,white,flipped triangle
112.0,6.0,2.0,1.0,1.0,1.0,431.1465881764889,1.0,1.0,phase_1,,,,,,,,,,,,,gray,hexagon
103.0,6.0,2.0,1.0,1.0,1.0,340.1172589510679,1.0,1.0,phase_1,,,,,,,,,,,,,gray,hexagon
0.0,7.0,0.0,1.0,3.0,3.0,314.6848990581929,1.0,1.0,phase_1,,,,,,,,,,,,,green,square
58.0,5.0,1.0,1.0,4.0,4.0,350.783523870632,1.0,1.0,phase_1,,,,,,,,,,,,,white,flipped triangle
0.0,6.0,0.0,1.0,4.0,4.0,329.5097600203007,1.0,1.0,phase_1,,,,,,,,,,,,,gray,hexagon
407.0,8.0,4.0,1.0,3.0,3.0,336.3080569542944,1.0,1.0,phase_1,,,,,,,,,,,,,cyan,circle
37.0,5.0,1.0,1.0,2.0,2.0,314.8661009036004,1.0,1.0,phase_1,,,,,,,,,,,,,white,flipped triangle
224.0,7.0,3.0,1.0,4.0,4.0,251.0103578679263,1.0,1.0,phase_1,,,,,,,,,,,,,green,square
218.0,3.0,3.0,0.0,4.0,4.0,328.1271809246391,1.0,1.0,phase_1,,,,,,,,,,,,,yellow,diamond
0.0,2.0,0.0,0.0,3.0,3.0,368.8576640561223,1.0,1.0,phase_1,,,,,,,,,,,,,magenta,cross
215.0,7.0,3.0,1.0,1.0,1.0,384.4667440280318,1.0,1.0,phase_1,,,,,,,,,,,,,green,square
64.0,1.0,1.0,0.0,3.0,3.0,347.6098489481956,1.0,1.0,phase_1,,,,,,,,,,,,,orange,I
190.0,7.0,3.0,1.0,4.0,4.0,321.8185668811202,1.0,1.0,phase_1,,,,,,,,,,,,,green,square
80.0,6.0,2.0,1.0,2.0,2.0,341.8249040842056,1.0,1.0,phase_1,,,,,,,,,,,,,gray,hexagon
123.0,2.0,2.0,0.0,1.0,1.0,403.2583788502961,1.0,1.0,phase_1,,,,,,,,,,,,,magenta,cross
413.0,4.0,4.0,0.0,2.0,2.0,288.0104780197143,1.0,1.0,phase_1,,,,,,,,,,,,,blue,triangle
40.0,1.0,1.0,0.0,2.0,2.0,276.5009989961982,1.0,1.0,phase_1,,,,,,,,,,,,,orange,I
109.0,6.0,2.0,1.0,4.0,4.0,297.361483098939,1.0,1.0,phase_1,,,,,,,,,,,,,gray,hexagon
401.0,4.0,4.0,0.0,4.0,4.0,326.6890309751034,1.0,1.0,phase_1,,,,,,,,,,,,,blue,triangle
63.0,1.0,1.0,0.0,1.0,1.0,347.8427368681878,1.0,1.0,phase_1,,,,,,,,,,,,,orange,I
0.0,5.0,0.0,1.0,1.0,1.0,296.232963912189,1.0,1.0,phase_1,,,,,,,,,,,,,white,flipped triangle
415.0,8.0,4.0,1.0,1.0,1.0,276.1284119915217,1.0,1.0,phase_1,,,,,,,,,,,,,cyan,circle
175.0,7.0,3.0,1.0,2.0,2.0,454.3587991502136,1.0,1.0,phase_1,,,,,,,,,,,,,green,square
97.0,2.0,2.0,0.0,2.0,2.0,269.5788010023534,1.0,1.0,phase_1,,,,,,,,,,,,,magenta,cross
118.0,6.0,2.0,1.0,1.0,1.0,295.2445829287171,1.0,1.0,phase_1,,,,,,,,,,,,,gray,hexagon
0.0,7.0,0.0,1.0,4.0,4.0,283.9232869446277,1.0,1.0,phase_1,,,,,,,,,,,,,green,square
415.0,4.0,4.0,0.0,3.0,3.0,313.4985598735511,1.0,1.0,phase_1,,,,,,,,,,,,,blue,triangle
85.0,6.0,2.0,1.0,4.0,4.0,296.0654499474913,1.0,1.0,phase_1,,,,,,,,,,,,,gray,hexagon
411.0,4.0,4.0,0.0,1.0,1.0,315.8148298971355,1.0,1.0,phase_1,,,,,,,,,,,,,blue,triangle
221.0,3.0,3.0,0.0,1.0,1.0,304.081009933725,1.0,1.0,phase_1,,,,,,,,,,,,,yellow,diamond
185.0,7.0,3.0,1.0,1.0,1.0,283.3833978511393,1.0,1.0,phase_1,,,,,,,,,,,,,green,square
29.0,1.0,1.0,0.0,1.0,1.0,391.8034709058702,1.0,1.0,phase_1,,,,,,,,,,,,,orange,I
73.0,5.0,1.0,1.0,1.0,1.0,269.1027880646288,1.0,1.0,phase_1,,,,,,,,,,,,,white,flipped triangle
398.0,8.0,4.0,1.0,1.0,1.0,291.6977959685027,1.0,1.0,phase_1,,,,,,,,,,,,,cyan,circle
41.0,1.0,1.0,0.0,3.0,3.0,353.863026946783,1.0,1.0,phase_1,,,,,,,,,,,,,orange,I
101.0,6.0,2.0,1.0,2.0,2.0,301.5326110180467,1.0,1.0,phase_1,,,,,,,,,,,,,gray,hexagon
420.0,8.0,4.0,1.0,3.0,3.0,343.1987818330526,1.0,1.0,phase_1,,,,,,,,,,,,,cyan,circle
0.0,5.0,0.0,1.0,1.0,1.0,384.1814771294594,1.0,1.0,phase_1,,,,,,,,,,,,,white,flipped triangle
75.0,2.0,2.0,0.0,2.0,2.0,300.3385439515114,1.0,1.0,phase_1,,,,,,,,,,,,,magenta,cross
383.0,4.0,4.0,0.0,2.0,2.0,317.2150149475783,1.0,1.0,phase_1,,,,,,,,,,,,,blue,triangle
103.0,6.0,2.0,1.0,3.0,3.0,366.2732490338385,1.0,1.0,phase_1,,,,,,,,,,,,,gray,hexagon
36.0,1.0,1.0,0.0,4.0,4.0,318.7596411444247,1.0,1.0,phase_1,,,,,,,,,,,,,orange,I
83.0,6.0,2.0,1.0,2.0,2.0,299.914106959477,1.0,1.0,phase_1,,,,,,,,,,,,,gray,hexagon
408.0,4.0,4.0,0.0,3.0,3.0,291.4364200551063,1.0,1.0,phase_1,,,,,,,,,,,,,blue,triangle
0.0,7.0,0.0,1.0,1.0,1.0,301.8110028933733,1.0,1.0,phase_1,,,,,,,,,,,,,green,square
0.0,6.0,0.0,1.0,3.0,3.0,321.6322569642216,1.0,1.0,phase_1,,,,,,,,,,,,,gray,hexagon
0.0,5.0,0.0,1.0,3.0,3.0,317.9812980815768,1.0,1.0,phase_1,,,,,,,,,,,,,white,flipped triangle
221.0,7.0,3.0,1.0,3.0,3.0,334.8192179109901,1.0,1.0,phase_1,,,,,,,,,,,,,green,square
380.0,4.0,4.0,0.0,1.0,1.0,399.6332280803472,1.0,1.0,phase_1,,,,,,,,,,,,,blue,triangle
46.0,1.0,1.0,0.0,2.0,2.0,268.3835860807448,1.0,1.0,phase_1,,,,,,,,,,,,,orange,I
29.0,5.0,1.0,1.0,4.0,4.0,304.8185221850872,1.0,1.0,phase_1,,,,,,,,,,,,,white,flipped triangle
103.0,2.0,2.0,0.0,1.0,1.0,326.4559081289917,1.0,1.0,phase_1,,,,,,,,,,,,,magenta,cross
0.0,6.0,0.0,1.0,1.0,1.0,362.0946849696338,1.0,1.0,phase_1,,,,,,,,,,,,,gray,hexagon
379.0,4.0,4.0,0.0,4.0,4.0,311.4192159846425,1.0,1.0,phase_1,,,,,,,,,,,,,blue,triangle
404.0,8.0,4.0,1.0,3.0,3.0,367.3072829842567,1.0,1.0,phase_1,,,,,,,,,,,,,cyan,circle
90.0,2.0,2.0,0.0,4.0,4.0,337.1567849535495,1.0,1.0,phase_1,,,,,,,,,,,,,magenta,cross
209.0,3.0,3.0,0.0,4.0,4.0,261.8416082113981,1.0,1.0,phase_1,,,,,,,,,,,,,yellow,diamond
187.0,3.0,3.0,0.0,2.0,2.0,293.4758798219263,1.0,1.0,phase_1,,,,,,,,,,,,,yellow,diamond
0.0,2.0,0.0,0.0,4.0,4.0,262.3501978814602,1.0,1.0,phase_1,,,,,,,,,,,,,magenta,cross
81.0,6.0,2.0,1.0,2.0,2.0,299.0387871395796,1.0,1.0,phase_1,,,,,,,,,,,,,gray,hexagon
188.0,7.0,3.0,1.0,1.0,1.0,376.6082101501524,1.0,1.0,phase_1,,,,,,,,,,,,,green,square
41.0,5.0,1.0,1.0,3.0,3.0,381.17670500651,1.0,1.0,phase_1,,,,,,,,,,,,,white,flipped triangle
396.0,4.0,4.0,0.0,2.0,2.0,299.2849058937281,1.0,1.0,phase_1,,,,,,,,,,,,,blue,triangle
0.0,3.0,0.0,0.0,2.0,2.0,279.9177330452949,1.0,1.0,phase_1,,,,,,,,,,,,,yellow,diamond
94.0,2.0,2.0,0.0,3.0,3.0,410.6287229806185,1.0,1.0,phase_1,,,,,,,,,,,,,magenta,cross
37.0,5.0,1.0,1.0,2.0,2.0,278.7550580687821,1.0,1.0,phase_1,,,,,,,,,,,,,white,flipped triangle
395.0,8.0,4.0,1.0,3.0,3.0,300.2437420655042,1.0,1.0,phase_1,,,,,,,,,,,,,cyan,circle
0.0,2.0,0.0,0.0,3.0,3.0,321.3897079695016,1.0,1.0,phase_1,,,,,,,,,,,,,magenta,cross
0.0,4.0,0.0,0.0,4.0,4.0,359.8322619218379,1.0,1.0,phase_1,,,,,,,,,,,,,blue,triangle
181.0,7.0,3.0,1.0,3.0,3.0,372.5995610002428,1.0,1.0,phase_1,,,,,,,,,,,,,green,square
225.0,3.0,3.0,0.0,3.0,3.0,320.9489139262587,1.0,1.0,phase_1,,,,,,,,,,,,,yellow,diamond
46.0,5.0,1.0,1.0,4.0,4.0,286.409918917343,1.0,1.0,phase_1,,,,,,,,,,,,,white,flipped triangle
100.0,6.0,2.0,1.0,4.0,4.0,290.2428980451077,1.0,1.0,phase_1,,,,,,,,,,,,,gray,hexagon
382.0,8.0,4.0,1.0,3.0,3.0,269.5535710081458,1.0,1.0,phase_1,,,,,,,,,,,,,cyan,circle
100.0,2.0,2.0,0.0,1.0,1.0,302.6573189999908,1.0,2.0,phase_1,,,,,,,,,,,,,magenta,cross
0.0,8.0,0.0,1.0,4.0,4.0,397.1258038654923,1.0,1.0,phase_1,,,,,,,,,,,,,cyan,circle
0.0,1.0,0.0,0.0,4.0,4.0,479.600828140974,1.0,1.0,phase_1,,,,,,,,,,,,,orange,I
0.0,5.0,0.0,1.0,2.0,2.0,284.6628099214285,1.0,1.0,phase_1,,,,,,,,,,,,,white,flipped triangle
0.0,7.0,0.0,1.0,2.0,2.0,264.3064821604639,1.0,1.0,phase_1,,,,,,,,,,,,,green,square
43.0,5.0,1.0,1.0,2.0,2.0,286.2227449659258,1.0,1.0,phase_1,,,,,,,,,,,,,white,flipped triangle
398.0,8.0,4.0,1.0,2.0,2.0,308.4702191408723,1.0,1.0,phase_1,,,,,,,,,,,,,cyan,circle
0.0,7.0,0.0,1.0,1.0,1.0,343.1077969726175,1.0,1.0,phase_1,,,,,,,,,,,,,green,square
215.0,7.0,3.0,1.0,3.0,3.0,287.6792068127543,1.0,1.0,phase_1,,,,,,,,,,,,,green,square
199.0,3.0,3.0,0.0,3.0,3.0,315.2646659873426,1.0,1.0,phase_1,,,,,,,,,,,,,yellow,diamond
69.0,1.0,1.0,0.0,3.0,3.0,319.1853868775069,1.0,1.0,phase_1,,,,,,,,,,,,,orange,I
0.0,4.0,0.0,0.0,3.0,3.0,331.5034341067076,1.0,1.0,phase_1,,,,,,,,,,,,,blue,triangle
181.0,3.0,3.0,0.0,2.0,2.0,261.8515649810433,1.0,1.0,phase_1,,,,,,,,,,,,,yellow,diamond
121.0,6.0,2.0,1.0,2.0,2.0,270.6109890714288,1.0,1.0,phase_1,,,,,,,,,,,,,gray,hexagon
188.0,3.0,3.0,0.0,4.0,4.0,329.5405148528516,1.0,1.0,phase_1,,,,,,,,,,,,,yellow,diamond
119.0,2.0,2.0,0.0,4.0,4.0,296.243280172348,1.0,1.0,phase_1,,,,,,,,,,,,,magenta,cross
59.0,5.0,1.0,1.0,4.0,4.0,284.2918301466852,1.0,1.0,phase_1,,,,,,,,,,,,,white,flipped triangle
176.0,7.0,3.0,1.0,2.0,2.0,304.6624739654362,1.0,1.0,phase_1,,,,,,,,,,,,,green,square
209.0,7.0,3.0,1.0,4.0,4.0,227.7595188934356,1.0,1.0,phase_1,,,,,,,,,,,,,green,square
101.0,2.0,2.0,0.0,2.0,2.0,313.8315479736775,1.0,1.0,phase_1,,,,,,,,,,,,,magenta,cross
107.0,6.0,2.0,1.0,1.0,1.0,327.2405138704926,1.0,1.0,phase_1,,,,,,,,,,,,,gray,hexagon
76.0,2.0,2.0,0.0,3.0,3.0,349.1627010516822,1.0,2.0,phase_1,,,,,,,,,,,,,magenta,cross
40.0,5.0,1.0,1.0,2.0,2.0,335.5214041657746,2.0,1.0,phase_1,,,,,,,,,,,,,white,flipped triangle
90.0,6.0,2.0,1.0,3.0,3.0,314.2289959359914,2.0,1.0,phase_1,,,,,,,,,,,,,gray,hexagon
225.0,7.0,3.0,1.0,1.0,1.0,319.1129190381616,2.0,1.0,phase_1,,,,,,,,,,,,,green,square
36.0,5.0,1.0,1.0,1.0,1.0,364.7142630070448,2.0,1.0,phase_1,,,,,,,,,,,,,white,flipped triangle
25.0,1.0,1.0,0.0,3.0,3.0,270.67051990889007,2.0,1.0,phase_1,,,,,,,,,,,,,orange,I
382.0,4.0,4.0,0.0,1.0,1.0,317.854207009077,2.0,1.0,phase_1,,,,,,,,,,,,,blue,triangle
419.0,8.0,4.0,1.0,2.0,2.0,329.2067358270287,2.0,1.0,phase_1,,,,,,,,,,,,,cyan,circle
379.0,8.0,4.0,1.0,1.0,1.0,318.7730631325394,2.0,1.0,phase_1,,,,,,,,,,,,,cyan,circle
206.0,7.0,3.0,1.0,4.0,4.0,316.8918329756707,2.0,1.0,phase_1,,,,,,,,,,,,,green,square
73.0,1.0,1.0,0.0,4.0,4.0,293.6426738742739,2.0,1.0,phase_1,,,,,,,,,,,,,orange,I
37.0,1.0,1.0,0.0,2.0,2.0,292.138404911384,2.0,1.0,phase_1,,,,,,,,,,,,,orange,I
98.0,2.0,2.0,0.0,3.0,3.0,323.1426090933382,2.0,1.0,phase_1,,,,,,,,,,,,,magenta,cross
206.0,3.0,3.0,0.0,3.0,3.0,356.8731839768588,2.0,1.0,phase_1,,,,,,,,,,,,,yellow,diamond
0.0,5.0,0.0,1.0,3.0,3.0,296.5474161319434,2.0,1.0,phase_1,,,,,,,,,,,,,white,flipped triangle
386.0,8.0,4.0,1.0,1.0,1.0,316.5539510082453,2.0,2.0,phase_1,,,,,,,,,,,,,cyan,circle
199.0,7.0,3.0,1.0,4.0,4.0,354.4973549433052,2.0,1.0,phase_1,,,,,,,,,,,,,green,square
391.0,8.0,4.0,1.0,4.0,4.0,285.6950939167291,2.0,1.0,phase_1,,,,,,,,,,,,,cyan,circle
215.0,3.0,3.0,0.0,3.0,3.0,377.9543170239776,2.0,1.0,phase_1,,,,,,,,,,,,,yellow,diamond
409.0,8.0,4.0,1.0,1.0,1.0,360.304316971451,2.0,1.0,phase_1,,,,,,,,,,,,,cyan,circle
112.0,2.0,2.0,0.0,2.0,2.0,360.9657380729913,2.0,1.0,phase_1,,,,,,,,,,,,,magenta,cross
37.0,1.0,1.0,0.0,2.0,2.0,398.1401019264012,2.0,1.0,phase_1,,,,,,,,,,,,,orange,I
0.0,5.0,0.0,1.0,3.0,3.0,373.3038501814008,2.0,1.0,phase_1,,,,,,,,,,,,,white,flipped triangle
107.0,2.0,2.0,0.0,2.0,2.0,345.2795401681214,2.0,1.0,phase_1,,,,,,,,,,,,,magenta,cross
0.0,7.0,0.0,1.0,2.0,2.0,327.323290053755,2.0,1.0,phase_1,,,,,,,,,,,,,green,square
200.0,3.0,3.0,0.0,1.0,1.0,365.3401939664036,2.0,1.0,phase_1,,,,,,,,,,,,,yellow,diamond
0.0,1.0,0.0,0.0,2.0,2.0,328.1260149087757,2.0,1.0,phase_1,,,,,,,,,,,,,orange,I
0.0,1.0,0.0,0.0,2.0,2.0,332.4122088961303,2.0,1.0,phase_1,,,,,,,,,,,,,orange,I
376.0,8.0,4.0,1.0,2.0,2.0,369.224966969341,2.0,1.0,phase_1,,,,,,,,,,,,,cyan,circle
75.0,6.0,2.0,1.0,4.0,4.0,347.4263600073755,2.0,1.0,phase_1,,,,,,,,,,,,,gray,hexagon
202.0,7.0,3.0,1.0,2.0,2.0,307.1461711078882,2.0,1.0,phase_1,,,,,,,,,,,,,green,square
97.0,6.0,2.0,1.0,2.0,2.0,334.7375190351158,2.0,1.0,phase_1,,,,,,,,,,,,,gray,hexagon
84.0,2.0,2.0,0.0,3.0,3.0,451.6800949349999,2.0,1.0,phase_1,,,,,,,,,,,,,magenta,cross
194.0,7.0,3.0,1.0,4.0,4.0,480.6533160153776,2.0,1.0,phase_1,,,,,,,,,,,,,green,square
103.0,2.0,2.0,0.0,1.0,1.0,413.8096000533551,2.0,1.0,phase_1,,,,,,,,,,,,,magenta,cross
398.0,4.0,4.0,0.0,3.0,3.0,360.2029411122203,2.0,1.0,phase_1,,,,,,,,,,,,,blue,triangle
0.0,1.0,0.0,0.0,2.0,2.0,287.2886208351701,2.0,1.0,phase_1,,,,,,,,,,,,,orange,I
0.0,6.0,0.0,1.0,4.0,4.0,313.7317721266299,2.0,1.0,phase_1,,,,,,,,,,,,,gray,hexagon
188.0,3.0,3.0,0.0,4.0,4.0,397.6336680352688,2.0,1.0,phase_1,,,,,,,,,,,,,yellow,diamond
97.0,2.0,2.0,0.0,2.0,2.0,397.3859888501465,2.0,1.0,phase_1,,,,,,,,,,,,,magenta,cross
64.0,5.0,1.0,1.0,2.0,2.0,434.4408728647977,2.0,1.0,phase_1,,,,,,,,,,,,,white,flipped triangle
107.0,6.0,2.0,1.0,4.0,4.0,492.4686448648572,2.0,1.0,phase_1,,,,,,,,,,,,,gray,hexagon
408.0,8.0,4.0,1.0,4.0,4.0,370.2260190621018,2.0,1.0,phase_1,,,,,,,,,,,,,cyan,circle
200.0,7.0,3.0,1.0,3.0,3.0,398.6190899740904,2.0,1.0,phase_1,,,,,,,,,,,,,green,square
394.0,4.0,4.0,0.0,3.0,3.0,389.3091529607773,2.0,1.0,phase_1,,,,,,,,,,,,,blue,triangle
26.0,5.0,1.0,1.0,4.0,4.0,329.9214441794902,2.0,1.0,phase_1,,,,,,,,,,,,,white,flipped triangle
382.0,8.0,4.0,1.0,1.0,1.0,414.825770072639,2.0,1.0,phase_1,,,,,,,,,,,,,cyan,circle
113.0,2.0,2.0,0.0,4.0,4.0,361.421616980806,2.0,1.0,phase_1,,,,,,,,,,,,,magenta,cross
194.0,3.0,3.0,0.0,4.0,4.0,327.497930964455,2.0,1.0,phase_1,,,,,,,,,,,,,yellow,diamond
0.0,5.0,0.0,1.0,4.0,4.0,323.9513300359249,2.0,1.0,phase_1,,,,,,,,,,,,,white,flipped triangle
386.0,4.0,4.0,0.0,2.0,2.0,381.512823048979,2.0,1.0,phase_1,,,,,,,,,,,,,blue,triangle
107.0,2.0,2.0,0.0,1.0,1.0,358.3226860500872,2.0,1.0,phase_1,,,,,,,,,,,,,magenta,cross
379.0,4.0,4.0,0.0,4.0,4.0,352.0168610848486,2.0,1.0,phase_1,,,,,,,,,,,,,blue,triangle
202.0,3.0,3.0,0.0,2.0,2.0,343.1434861849993,2.0,1.0,phase_1,,,,,,,,,,,,,yellow,diamond
0.0,3.0,0.0,0.0,1.0,1.0,402.5023418944329,2.0,1.0,phase_1,,,,,,,,,,,,,yellow,diamond
58.0,1.0,1.0,0.0,1.0,1.0,373.2066419906914,2.0,1.0,phase_1,,,,,,,,,,,,,orange,I
119.0,6.0,2.0,1.0,4.0,4.0,341.8097060639411,2.0,1.0,phase_1,,,,,,,,,,,,,gray,hexagon
414.0,8.0,4.0,1.0,2.0,2.0,329.1022321209311,2.0,1.0,phase_1,,,,,,,,,,,,,cyan,circle
418.0,4.0,4.0,0.0,4.0,4.0,309.3861709348857,2.0,1.0,phase_1,,,,,,,,,,,,,blue,triangle
224.0,3.0,3.0,0.0,1.0,1.0,328.2646269071847,2.0,1.0,phase_1,,,,,,,,,,,,,yellow,diamond
197.0,3.0,3.0,0.0,4.0,4.0,327.78489380143577,2.0,1.0,phase_1,,,,,,,,,,,,,yellow,diamond
0.0,4.0,0.0,0.0,1.0,1.0,323.2739688828587,2.0,1.0,phase_1,,,,,,,,,,,,,blue,triangle
424.0,8.0,4.0,1.0,2.0,2.0,335.1117558777332,2.0,1.0,phase_1,,,,,,,,,,,,,cyan,circle
85.0,6.0,2.0,1.0,1.0,1.0,347.139558987692,2.0,1.0,phase_1,,,,,,,,,,,,,gray,hexagon
394.0,8.0,4.0,1.0,1.0,1.0,323.2988419476896,2.0,1.0,phase_1,,,,,,,,,,,,,cyan,circle
379.0,8.0,4.0,1.0,4.0,4.0,294.0898919478059,2.0,1.0,phase_1,,,,,,,,,,,,,cyan,circle
0.0,4.0,0.0,0.0,3.0,3.0,401.7292279750108,2.0,1.0,phase_1,,,,,,,,,,,,,blue,triangle
110.0,2.0,2.0,0.0,2.0,2.0,368.1173759978264,2.0,1.0,phase_1,,,,,,,,,,,,,magenta,cross
50.0,1.0,1.0,0.0,4.0,4.0,325.4880208987742,2.0,1.0,phase_1,,,,,,,,,,,,,orange,I
85.0,2.0,2.0,0.0,3.0,3.0,370.0792409945279,2.0,1.0,phase_1,,,,,,,,,,,,,magenta,cross
59.0,1.0,1.0,0.0,2.0,2.0,324.5719780679792,2.0,1.0,phase_1,,,,,,,,,,,,,orange,I
26.0,1.0,1.0,0.0,2.0,2.0,329.2038589715957,2.0,1.0,phase_1,,,,,,,,,,,,,orange,I
398.0,4.0,4.0,0.0,2.0,2.0,332.729707006365,2.0,1.0,phase_1,,,,,,,,,,,,,blue,triangle
423.0,8.0,4.0,1.0,4.0,4.0,365.3358330484479,2.0,1.0,phase_1,,,,,,,,,,,,,cyan,circle
0.0,6.0,0.0,1.0,2.0,2.0,320.5995389726013,2.0,1.0,phase_1,,,,,,,,,,,,,gray,hexagon
76.0,6.0,2.0,1.0,4.0,4.0,443.6307728756219,2.0,1.0,phase_1,,,,,,,,,,,,,gray,hexagon
0.0,5.0,0.0,1.0,4.0,4.0,361.6943650413304,2.0,1.0,phase_1,,,,,,,,,,,,,white,flipped triangle
175.0,3.0,3.0,0.0,3.0,3.0,551.97873711586,2.0,1.0,phase_1,,,,,,,,,,,,,yellow,diamond
25.0,5.0,1.0,1.0,3.0,3.0,348.7476410809904,2.0,1.0,phase_1,,,,,,,,,,,,,white,flipped triangle
205.0,7.0,3.0,1.0,3.0,3.0,312.9926950205117,2.0,1.0,phase_1,,,,,,,,,,,,,green,square
401.0,8.0,4.0,1.0,1.0,1.0,413.799321046099,2.0,1.0,phase_1,,,,,,,,,,,,,cyan,circle
213.0,3.0,3.0,0.0,2.0,2.0,321.1855408735573,2.0,1.0,phase_1,,,,,,,,,,,,,yellow,diamond
222.0,3.0,3.0,0.0,3.0,3.0,380.3002838976681,2.0,1.0,phase_1,,,,,,,,,,,,,yellow,diamond
404.0,4.0,4.0,0.0,4.0,4.0,450.685549993068,2.0,1.0,phase_1,,,,,,,,,,,,,blue,triangle
43.0,1.0,1.0,0.0,1.0,1.0,325.0539968721568,2.0,1.0,phase_1,,,,,,,,,,,,,orange,I
0.0,2.0,0.0,0.0,2.0,2.0,364.5212941337377,2.0,1.0,phase_1,,,,,,,,,,,,,magenta,cross
40.0,1.0,1.0,0.0,2.0,2.0,406.442685984075,2.0,1.0,phase_1,,,,,,,,,,,,,orange,I
210.0,3.0,3.0,0.0,2.0,2.0,364.2285589594394,2.0,1.0,phase_1,,,,,,,,,,,,,yellow,diamond
0.0,8.0,0.0,1.0,4.0,4.0,409.5414609182626,2.0,1.0,phase_1,,,,,,,,,,,,,cyan,circle
72.0,5.0,1.0,1.0,3.0,3.0,526.2095299549401,2.0,1.0,phase_1,,,,,,,,,,,,,white,flipped triangle
212.0,3.0,3.0,0.0,1.0,1.0,492.8111738990992,2.0,1.0,phase_1,,,,,,,,,,,,,yellow,diamond
424.0,4.0,4.0,0.0,2.0,2.0,310.2759099565446,2.0,1.0,phase_1,,,,,,,,,,,,,blue,triangle
0.0,2.0,0.0,0.0,4.0,4.0,386.5055060014128,2.0,1.0,phase_1,,,,,,,,,,,,,magenta,cross
407.0,4.0,4.0,0.0,1.0,1.0,439.1753678210079,2.0,1.0,phase_1,,,,,,,,,,,,,blue,triangle
65.0,5.0,1.0,1.0,4.0,4.0,405.3728799335658,2.0,1.0,phase_1,,,,,,,,,,,,,white,flipped triangle
60.0,1.0,1.0,0.0,4.0,4.0,386.86737511307,2.0,1.0,phase_1,,,,,,,,,,,,,orange,I
103.0,2.0,2.0,0.0,2.0,2.0,511.3261230289936,2.0,1.0,phase_1,,,,,,,,,,,,,magenta,cross
121.0,2.0,2.0,0.0,4.0,4.0,339.9172991048544,2.0,1.0,phase_1,,,,,,,,,,,,,magenta,cross
83.0,2.0,2.0,0.0,4.0,4.0,503.2775551080704,2.0,1.0,phase_1,,,,,,,,,,,,,magenta,cross
187.0,3.0,3.0,0.0,3.0,3.0,421.960029983893,2.0,1.0,phase_1,,,,,,,,,,,,,yellow,diamond
0.0,7.0,0.0,1.0,1.0,1.0,346.2283599656075,2.0,1.0,phase_1,,,,,,,,,,,,,green,square
189.0,7.0,3.0,1.0,1.0,1.0,397.9257431346923,3.0,1.0,phase_1,,,,,,,,,,,,,green,square
105.0,2.0,2.0,0.0,4.0,4.0,362.6995789818465,3.0,1.0,phase_1,,,,,,,,,,,,,magenta,cross
393.0,8.0,4.0,1.0,4.0,4.0,338.2390830665827,3.0,1.0,phase_1,,,,,,,,,,,,,cyan,circle
197.0,7.0,3.0,1.0,3.0,3.0,286.4078460261225,3.0,1.0,phase_1,,,,,,,,,,,,,green,square
176.0,7.0,3.0,1.0,3.0,3.0,315.3954739682376,3.0,1.0,phase_1,,,,,,,,,,,,,green,square
0.0,2.0,0.0,0.0,2.0,2.0,365.2926099020988,3.0,1.0,phase_1,,,,,,,,,,,,,magenta,cross
414.0,8.0,4.0,1.0,2.0,2.0,356.0874839313328,3.0,1.0,phase_1,,,,,,,,,,,,,cyan,circle
0.0,6.0,0.0,1.0,4.0,4.0,302.6653518900275,3.0,1.0,phase_1,,,,,,,,,,,,,gray,hexagon
0.0,1.0,0.0,0.0,3.0,3.0,277.6413590181619,3.0,1.0,phase_1,,,,,,,,,,,,,orange,I
424.0,8.0,4.0,1.0,4.0,4.0,323.5643759835511,3.0,1.0,phase_1,,,,,,,,,,,,,cyan,circle
63.0,5.0,1.0,1.0,4.0,4.0,318.3162740897387,3.0,1.0,phase_1,,,,,,,,,,,,,white,flipped triangle
120.0,6.0,2.0,1.0,3.0,3.0,339.7349689621478,3.0,1.0,phase_1,,,,,,,,,,,,,gray,hexagon
74.0,5.0,1.0,1.0,2.0,2.0,352.4734149686992,3.0,1.0,phase_1,,,,,,,,,,,,,white,flipped triangle
118.0,2.0,2.0,0.0,3.0,3.0,372.884068172425,3.0,1.0,phase_1,,,,,,,,,,,,,magenta,cross
25.0,5.0,1.0,1.0,1.0,1.0,370.0732351280749,3.0,1.0,phase_1,,,,,,,,,,,,,white,flipped triangle
379.0,8.0,4.0,1.0,3.0,3.0,308.3115520421415,3.0,1.0,phase_1,,,,,,,,,,,,,cyan,circle
0.0,2.0,0.0,0.0,3.0,3.0,393.9385849516839,3.0,1.0,phase_1,,,,,,,,,,,,,magenta,cross
405.0,4.0,4.0,0.0,2.0,2.0,304.1936729568988,3.0,1.0,phase_1,,,,,,,,,,,,,blue,triangle
0.0,3.0,0.0,0.0,2.0,2.0,299.9127327930182,3.0,1.0,phase_1,,,,,,,,,,,,,yellow,diamond
0.0,7.0,0.0,1.0,4.0,4.0,319.0222410485148,3.0,1.0,phase_1,,,,,,,,,,,,,green,square
32.0,5.0,1.0,1.0,4.0,4.0,341.5255681611597,3.0,1.0,phase_1,,,,,,,,,,,,,white,flipped triangle
69.0,5.0,1.0,1.0,3.0,3.0,346.3805459905416,3.0,1.0,phase_1,,,,,,,,,,,,,white,flipped triangle
120.0,6.0,2.0,1.0,2.0,2.0,341.6675620246678,3.0,1.0,phase_1,,,,,,,,,,,,,gray,hexagon
0.0,4.0,0.0,0.0,1.0,1.0,420.0386961456388,3.0,1.0,phase_1,,,,,,,,,,,,,blue,triangle
0.0,1.0,0.0,0.0,2.0,2.0,296.6838697902858,3.0,1.0,phase_1,,,,,,,,,,,,,orange,I
45.0,5.0,1.0,1.0,1.0,1.0,334.2745860572904,3.0,1.0,phase_1,,,,,,,,,,,,,white,flipped triangle
62.0,5.0,1.0,1.0,4.0,4.0,337.9892250522971,3.0,1.0,phase_1,,,,,,,,,,,,,white,flipped triangle
32.0,5.0,1.0,1.0,4.0,4.0,357.0766090415418,3.0,1.0,phase_1,,,,,,,,,,,,,white,flipped triangle
212.0,7.0,3.0,1.0,1.0,1.0,345.2959461137652,3.0,1.0,phase_1,,,,,,,,,,,,,green,square
388.0,4.0,4.0,0.0,3.0,3.0,321.7703320551663,3.0,1.0,phase_1,,,,,,,,,,,,,blue,triangle
35.0,5.0,1.0,1.0,3.0,3.0,323.1558131519705,3.0,1.0,phase_1,,,,,,,,,,,,,white,flipped triangle
0.0,6.0,0.0,1.0,3.0,3.0,319.4207430351525,3.0,1.0,phase_1,,,,,,,,,,,,,gray,hexagon
418.0,8.0,4.0,1.0,4.0,4.0,311.847701203078,3.0,1.0,phase_1,,,,,,,,,,,,,cyan,circle
0.0,6.0,0.0,1.0,3.0,3.0,299.7649090830236,3.0,1.0,phase_1,,,,,,,,,,,,,gray,hexagon
97.0,6.0,2.0,1.0,2.0,2.0,359.4814280513674,3.0,1.0,phase_1,,,,,,,,,,,,,gray,hexagon
190.0,3.0,3.0,0.0,2.0,2.0,332.1023259777576,3.0,1.0,phase_1,,,,,,,,,,,,,yellow,diamond
424.0,4.0,4.0,0.0,3.0,3.0,334.7329348325729,3.0,1.0,phase_1,,,,,,,,,,,,,blue,triangle
391.0,4.0,4.0,0.0,3.0,3.0,307.4944659601897,3.0,1.0,phase_1,,,,,,,,,,,,,blue,triangle
62.0,1.0,1.0,0.0,3.0,3.0,320.1964099425822,3.0,1.0,phase_1,,,,,,,,,,,,,orange,I
189.0,3.0,3.0,0.0,1.0,1.0,332.6605360489338,3.0,1.0,phase_1,,,,,,,,,,,,,yellow,diamond
383.0,8.0,4.0,1.0,1.0,1.0,305.0687480717897,3.0,1.0,phase_1,,,,,,,,,,,,,cyan,circle
0.0,8.0,0.0,1.0,3.0,3.0,312.6365810167044,3.0,1.0,phase_1,,,,,,,,,,,,,cyan,circle
414.0,4.0,4.0,0.0,3.0,3.0,284.8238428123295,3.0,1.0,phase_1,,,,,,,,,,,,,blue,triangle
105.0,6.0,2.0,1.0,1.0,1.0,330.4092651233077,3.0,1.0,phase_1,,,,,,,,,,,,,gray,hexagon
222.0,7.0,3.0,1.0,2.0,2.0,292.3370979260653,3.0,1.0,phase_1,,,,,,,,,,,,,green,square
201.0,3.0,3.0,0.0,3.0,3.0,329.7116078902036,3.0,1.0,phase_1,,,,,,,,,,,,,yellow,diamond
73.0,1.0,1.0,0.0,3.0,3.0,342.3939058557153,3.0,1.0,phase_1,,,,,,,,,,,,,orange,I
50.0,5.0,1.0,1.0,3.0,3.0,300.6518399342894,3.0,1.0,phase_1,,,,,,,,,,,,,white,flipped triangle
218.0,3.0,3.0,0.0,2.0,2.0,312.9589078016579,3.0,1.0,phase_1,,,,,,,,,,,,,yellow,diamond
214.0,7.0,3.0,1.0,2.0,2.0,291.7629438452422,3.0,1.0,phase_1,,,,,,,,,,,,,green,square
185.0,3.0,3.0,0.0,3.0,3.0,354.5760179404169,3.0,1.0,phase_1,,,,,,,,,,,,,yellow,diamond
98.0,6.0,2.0,1.0,3.0,3.0,321.038523921743,3.0,1.0,phase_1,,,,,,,,,,,,,gray,hexagon
181.0,3.0,3.0,0.0,1.0,1.0,451.7990690656006,3.0,1.0,phase_1,,,,,,,,,,,,,yellow,diamond
70.0,1.0,1.0,0.0,4.0,4.0,335.9906249679625,3.0,1.0,phase_1,,,,,,,,,,,,,orange,I
395.0,4.0,4.0,0.0,3.0,3.0,315.3009167872369,3.0,1.0,phase_1,,,,,,,,,,,,,blue,triangle
377.0,8.0,4.0,1.0,2.0,2.0,299.4236790109426,3.0,1.0,phase_1,,,,,,,,,,,,,cyan,circle
414.0,4.0,4.0,0.0,4.0,4.0,340.4568179976195,3.0,1.0,phase_1,,,,,,,,,,,,,blue,triangle
201.0,7.0,3.0,1.0,1.0,1.0,344.9129380751401,3.0,1.0,phase_1,,,,,,,,,,,,,green,square
0.0,3.0,0.0,0.0,3.0,3.0,369.512302102521,3.0,1.0,phase_1,,,,,,,,,,,,,yellow,diamond
123.0,6.0,2.0,1.0,3.0,3.0,338.7265079654753,3.0,1.0,phase_1,,,,,,,,,,,,,gray,hexagon
118.0,6.0,2.0,1.0,1.0,1.0,305.1276409532875,3.0,1.0,phase_1,,,,,,,,,,,,,gray,hexagon
39.0,5.0,1.0,1.0,3.0,3.0,308.6421559564769,3.0,1.0,phase_1,,,,,,,,,,,,,white,flipped triangle
0.0,4.0,0.0,0.0,4.0,4.0,298.308027908206,3.0,1.0,phase_1,,,,,,,,,,,,,blue,triangle
377.0,4.0,4.0,0.0,1.0,1.0,373.8938830792904,3.0,1.0,phase_1,,,,,,,,,,,,,blue,triangle
113.0,6.0,2.0,1.0,3.0,3.0,853.8194901775569,3.0,1.0,phase_1,,,,,,,,,,,,,gray,hexagon
26.0,1.0,1.0,0.0,4.0,4.0,457.0712859276682,3.0,1.0,phase_1,,,,,,,,,,,,,orange,I
73.0,5.0,1.0,1.0,1.0,1.0,357.8231409192085,3.0,1.0,phase_1,,,,,,,,,,,,,white,flipped triangle
393.0,4.0,4.0,0.0,3.0,3.0,329.5145570300519,3.0,1.0,phase_1,,,,,,,,,,,,,blue,triangle
405.0,8.0,4.0,1.0,2.0,2.0,308.2374399527907,3.0,1.0,phase_1,,,,,,,,,,,,,cyan,circle
0.0,3.0,0.0,0.0,4.0,4.0,324.732402106747,3.0,1.0,phase_1,,,,,,,,,,,,,yellow,diamond
411.0,8.0,4.0,1.0,2.0,2.0,337.6712359022349,3.0,1.0,phase_1,,,,,,,,,,,,,cyan,circle
73.0,1.0,1.0,0.0,1.0,1.0,314.4450229592621,3.0,2.0,phase_1,,,,,,,,,,,,,orange,I
0.0,4.0,0.0,0.0,1.0,1.0,299.7490430716425,3.0,1.0,phase_1,,,,,,,,,,,,,blue,triangle
40.0,5.0,1.0,1.0,2.0,2.0,307.1137999650091,3.0,1.0,phase_1,,,,,,,,,,,,,white,flipped triangle
388.0,4.0,4.0,0.0,1.0,1.0,286.0512039624154,3.0,1.0,phase_1,,,,,,,,,,,,,blue,triangle
81.0,2.0,2.0,0.0,3.0,3.0,339.0404938254505,3.0,1.0,phase_1,,,,,,,,,,,,,magenta,cross
0.0,8.0,0.0,1.0,3.0,3.0,318.8996859826147,3.0,1.0,phase_1,,,,,,,,,,,,,cyan,circle
0.0,7.0,0.0,1.0,2.0,2.0,316.1222739145159,3.0,1.0,phase_1,,,,,,,,,,,,,green,square
65.0,1.0,1.0,0.0,4.0,4.0,387.7353409770876,3.0,1.0,phase_1,,,,,,,,,,,,,orange,I
411.0,8.0,4.0,1.0,4.0,4.0,687.7383620012552,3.0,1.0,phase_1,,,,,,,,,,,,,cyan,circle
98.0,6.0,2.0,1.0,1.0,1.0,340.3153338003903,3.0,1.0,phase_1,,,,,,,,,,,,,gray,hexagon
187.0,7.0,3.0,1.0,1.0,1.0,304.9005661159754,3.0,1.0,phase_1,,,,,,,,,,,,,green,square
78.0,2.0,2.0,0.0,1.0,1.0,283.2438498735428,3.0,1.0,phase_1,,,,,,,,,,,,,magenta,cross
193.0,3.0,3.0,0.0,2.0,2.0,303.4159040544182,3.0,1.0,phase_1,,,,,,,,,,,,,yellow,diamond
420.0,4.0,4.0,0.0,1.0,1.0,262.6335900276899,3.0,1.0,phase_1,,,,,,,,,,,,,blue,triangle
0.0,8.0,0.0,1.0,2.0,2.0,242.5668218638748,3.0,1.0,phase_1,,,,,,,,,,,,,cyan,circle
401.0,8.0,4.0,1.0,3.0,3.0,321.3151139207184,3.0,1.0,phase_1,,,,,,,,,,,,,cyan,circle
85.0,2.0,2.0,0.0,3.0,3.0,306.2496650964021,3.0,1.0,phase_1,,,,,,,,,,,,,magenta,cross
401.0,4.0,4.0,0.0,1.0,1.0,273.6631159204989,3.0,1.0,phase_1,,,,,,,,,,,,,blue,triangle
56.0,1.0,1.0,0.0,3.0,3.0,332.4598120525479,3.0,1.0,phase_1,,,,,,,,,,,,,orange,I
25.0,1.0,1.0,0.0,3.0,3.0,306.5857940819114,3.0,1.0,phase_1,,,,,,,,,,,,,orange,I
0.0,8.0,0.0,1.0,2.0,2.0,332.8774829860776,3.0,1.0,phase_1,,,,,,,,,,,,,cyan,circle
222.0,3.0,3.0,0.0,3.0,3.0,284.9901269655674,3.0,1.0,phase_1,,,,,,,,,,,,,yellow,diamond
45.0,1.0,1.0,0.0,2.0,2.0,233.7741469964385,3.0,1.0,phase_1,,,,,,,,,,,,,orange,I
215.0,3.0,3.0,0.0,1.0,1.0,288.7976800557226,3.0,1.0,phase_1,,,,,,,,,,,,,yellow,diamond
26.0,5.0,1.0,1.0,1.0,1.0,300.1453739125281,3.0,1.0,phase_1,,,,,,,,,,,,,white,flipped triangle
73.0,5.0,1.0,1.0,2.0,2.0,245.847922982648,3.0,1.0,phase_1,,,,,,,,,,,,,white,flipped triangle
379.0,4.0,4.0,0.0,4.0,4.0,333.8258799631148,3.0,2.0,phase_1,,,,,,,,,,,,,blue,triangle
109.0,2.0,2.0,0.0,1.0,1.0,316.4235369767993,3.0,1.0,phase_1,,,,,,,,,,,,,magenta,cross
218.0,7.0,3.0,1.0,2.0,2.0,266.465978929773,3.0,1.0,phase_1,,,,,,,,,,,,,green,square
177.0,3.0,3.0,0.0,4.0,4.0,348.3204490039497,4.0,1.0,phase_1,,,,,,,,,,,,,yellow,diamond
43.0,1.0,1.0,0.0,1.0,1.0,286.0780148766935,4.0,1.0,phase_1,,,,,,,,,,,,,orange,I
218.0,7.0,3.0,1.0,4.0,4.0,261.075128801167,4.0,1.0,phase_1,,,,,,,,,,,,,green,square
103.0,6.0,2.0,1.0,2.0,2.0,272.8422668296844,4.0,1.0,phase_1,,,,,,,,,,,,,gray,hexagon
419.0,4.0,4.0,0.0,2.0,2.0,270.3916712198406,4.0,1.0,phase_1,,,,,,,,,,,,,blue,triangle
0.0,2.0,0.0,0.0,4.0,4.0,283.5426079109311,4.0,1.0,phase_1,,,,,,,,,,,,,magenta,cross
214.0,3.0,3.0,0.0,4.0,4.0,295.5181589350104,4.0,1.0,phase_1,,,,,,,,,,,,,yellow,diamond
0.0,5.0,0.0,1.0,3.0,3.0,274.9757759738713,4.0,1.0,phase_1,,,,,,,,,,,,,white,flipped triangle
0.0,3.0,0.0,0.0,1.0,1.0,287.4694410711527,4.0,1.0,phase_1,,,,,,,,,,,,,yellow,diamond
423.0,4.0,4.0,0.0,1.0,1.0,291.632795939222,4.0,1.0,phase_1,,,,,,,,,,,,,blue,triangle
177.0,7.0,3.0,1.0,4.0,4.0,291.3465150631964,4.0,1.0,phase_1,,,,,,,,,,,,,green,square
39.0,1.0,1.0,0.0,3.0,3.0,239.5973280072212,4.0,1.0,phase_1,,,,,,,,,,,,,orange,I
32.0,1.0,1.0,0.0,1.0,1.0,226.2272029183805,4.0,1.0,phase_1,,,,,,,,,,,,,orange,I
98.0,2.0,2.0,0.0,3.0,3.0,246.0097649600356,4.0,1.0,phase_1,,,,,,,,,,,,,magenta,cross
43.0,5.0,1.0,1.0,1.0,1.0,362.0614481624216,4.0,2.0,phase_1,,,,,,,,,,,,,white,flipped triangle
65.0,1.0,1.0,0.0,2.0,2.0,324.4406178127974,4.0,1.0,phase_1,,,,,,,,,,,,,orange,I
0.0,6.0,0.0,1.0,1.0,1.0,281.9112169090658,4.0,1.0,phase_1,,,,,,,,,,,,,gray,hexagon
176.0,3.0,3.0,0.0,2.0,2.0,310.3750618174672,4.0,1.0,phase_1,,,,,,,,,,,,,yellow,diamond
75.0,6.0,2.0,1.0,3.0,3.0,294.099906925112,4.0,1.0,phase_1,,,,,,,,,,,,,gray,hexagon
376.0,4.0,4.0,0.0,4.0,4.0,313.9623859897256,4.0,1.0,phase_1,,,,,,,,,,,,,blue,triangle
70.0,5.0,1.0,1.0,3.0,3.0,293.8313770573586,4.0,1.0,phase_1,,,,,,,,,,,,,white,flipped triangle
103.0,2.0,2.0,0.0,2.0,2.0,283.7148259859532,4.0,1.0,phase_1,,,,,,,,,,,,,magenta,cross
210.0,7.0,3.0,1.0,2.0,2.0,277.3584059905261,4.0,1.0,phase_1,,,,,,,,,,,,,green,square
34.0,1.0,1.0,0.0,1.0,1.0,330.5850529577583,4.0,1.0,phase_1,,,,,,,,,,,,,orange,I
68.0,1.0,1.0,0.0,4.0,4.0,264.5296039991081,4.0,1.0,phase_1,,,,,,,,,,,,,orange,I
84.0,6.0,2.0,1.0,1.0,1.0,253.382314927876,4.0,1.0,phase_1,,,,,,,,,,,,,gray,hexagon
32.0,1.0,1.0,0.0,2.0,2.0,242.7976648323238,4.0,1.0,phase_1,,,,,,,,,,,,,orange,I
176.0,3.0,3.0,0.0,4.0,4.0,295.0259889476001,4.0,1.0,phase_1,,,,,,,,,,,,,yellow,diamond
200.0,3.0,3.0,0.0,2.0,2.0,284.381217090413,4.0,1.0,phase_1,,,,,,,,,,,,,yellow,diamond
34.0,5.0,1.0,1.0,1.0,1.0,327.7213920373469,4.0,1.0,phase_1,,,,,,,,,,,,,white,flipped triangle
0.0,3.0,0.0,0.0,3.0,3.0,268.1549219414592,4.0,1.0,phase_1,,,,,,,,,,,,,yellow,diamond
0.0,8.0,0.0,1.0,2.0,2.0,256.1784989666194,4.0,1.0,phase_1,,,,,,,,,,,,,cyan,circle
0.0,2.0,0.0,0.0,4.0,4.0,348.7040600739419,4.0,1.0,phase_1,,,,,,,,,,,,,magenta,cross
187.0,7.0,3.0,1.0,3.0,3.0,337.3344880528748,4.0,1.0,phase_1,,,,,,,,,,,,,green,square
409.0,4.0,4.0,0.0,4.0,4.0,320.454795146361,4.0,1.0,phase_1,,,,,,,,,,,,,blue,triangle
53.0,1.0,1.0,0.0,1.0,1.0,349.0090388804674,4.0,1.0,phase_1,,,,,,,,,,,,,orange,I
401.0,8.0,4.0,1.0,3.0,3.0,304.9507259856909,4.0,1.0,phase_1,,,,,,,,,,,,,cyan,circle
56.0,5.0,1.0,1.0,1.0,1.0,332.2414259891957,4.0,1.0,phase_1,,,,,,,,,,,,,white,flipped triangle
77.0,6.0,2.0,1.0,3.0,3.0,296.8088591005653,4.0,1.0,phase_1,,,,,,,,,,,,,gray,hexagon
120.0,2.0,2.0,0.0,4.0,4.0,232.7421309892088,4.0,1.0,phase_1,,,,,,,,,,,,,magenta,cross
193.0,7.0,3.0,1.0,3.0,3.0,275.5166310817003,4.0,1.0,phase_1,,,,,,,,,,,,,green,square
53.0,5.0,1.0,1.0,1.0,1.0,272.8469159919768,4.0,1.0,phase_1,,,,,,,,,,,,,white,flipped triangle
423.0,8.0,4.0,1.0,4.0,4.0,258.7002641521394,4.0,1.0,phase_1,,,,,,,,,,,,,cyan,circle
0.0,2.0,0.0,0.0,4.0,4.0,248.11111600138238,4.0,1.0,phase_1,,,,,,,,,,,,,magenta,cross
0.0,8.0,0.0,1.0,1.0,1.0,358.1303120590746,4.0,1.0,phase_1,,,,,,,,,,,,,cyan,circle
0.0,8.0,0.0,1.0,4.0,4.0,323.3873699791729,4.0,1.0,phase_1,,,,,,,,,,,,,cyan,circle
80.0,2.0,2.0,0.0,1.0,1.0,279.207388870418,4.0,1.0,phase_1,,,,,,,,,,,,,magenta,cross
0.0,4.0,0.0,0.0,2.0,2.0,307.3114310391247,4.0,1.0,phase_1,,,,,,,,,,,,,blue,triangle
123.0,6.0,2.0,1.0,4.0,4.0,257.9648129176348,4.0,1.0,phase_1,,,,,,,,,,,,,gray,hexagon
123.0,2.0,2.0,0.0,1.0,1.0,265.9550940152257,4.0,2.0,phase_1,,,,,,,,,,,,,magenta,cross
382.0,4.0,4.0,0.0,4.0,4.0,282.3612899519503,4.0,2.0,phase_1,,,,,,,,,,,,,blue,triangle
94.0,6.0,2.0,1.0,3.0,3.0,353.0355831608176,4.0,1.0,phase_1,,,,,,,,,,,,,gray,hexagon
200.0,7.0,3.0,1.0,1.0,1.0,308.1798849161714,4.0,1.0,phase_1,,,,,,,,,,,,,green,square
98.0,2.0,2.0,0.0,4.0,4.0,343.6620798893273,4.0,1.0,phase_1,,,,,,,,,,,,,magenta,cross
65.0,5.0,1.0,1.0,2.0,2.0,317.0834279153496,4.0,1.0,phase_1,,,,,,,,,,,,,white,flipped triangle
423.0,4.0,4.0,0.0,2.0,2.0,285.1038810331374,4.0,1.0,phase_1,,,,,,,,,,,,,blue,triangle
222.0,7.0,3.0,1.0,2.0,2.0,289.6913678850978,4.0,1.0,phase_1,,,,,,,,,,,,,green,square
213.0,7.0,3.0,1.0,1.0,1.0,350.37961602211,4.0,1.0,phase_1,,,,,,,,,,,,,green,square
380.0,8.0,4.0,1.0,3.0,3.0,335.2181350346654,4.0,1.0,phase_1,,,,,,,,,,,,,cyan,circle
0.0,1.0,0.0,0.0,3.0,3.0,284.3589910771698,4.0,1.0,phase_1,,,,,,,,,,,,,orange,I
98.0,6.0,2.0,1.0,4.0,4.0,378.1802118755877,4.0,1.0,phase_1,,,,,,,,,,,,,gray,hexagon
0.0,8.0,0.0,1.0,4.0,4.0,288.4314530529082,4.0,1.0,phase_1,,,,,,,,,,,,,cyan,circle
184.0,7.0,3.0,1.0,4.0,4.0,275.9722259361297,4.0,1.0,phase_1,,,,,,,,,,,,,green,square
60.0,5.0,1.0,1.0,3.0,3.0,313.4499089792371,4.0,1.0,phase_1,,,,,,,,,,,,,white,flipped triangle
78.0,6.0,2.0,1.0,3.0,3.0,331.5678308717906,4.0,1.0,phase_1,,,,,,,,,,,,,gray,hexagon
0.0,7.0,0.0,1.0,1.0,1.0,386.9001478888094,4.0,1.0,phase_1,,,,,,,,,,,,,green,square
413.0,8.0,4.0,1.0,4.0,4.0,294.9671540409326,4.0,1.0,phase_1,,,,,,,,,,,,,cyan,circle
201.0,7.0,3.0,1.0,3.0,3.0,349.7815071605146,4.0,1.0,phase_1,,,,,,,,,,,,,green,square
216.0,7.0,3.0,1.0,2.0,2.0,360.9510818496346,4.0,1.0,phase_1,,,,,,,,,,,,,green,square
35.0,1.0,1.0,0.0,1.0,1.0,378.8593460340053,4.0,1.0,phase_1,,,,,,,,,,,,,orange,I
0.0,3.0,0.0,0.0,1.0,1.0,361.429690150544,4.0,1.0,phase_1,,,,,,,,,,,,,yellow,diamond
0.0,1.0,0.0,0.0,1.0,1.0,326.964657055214,4.0,1.0,phase_1,,,,,,,,,,,,,orange,I
110.0,6.0,2.0,1.0,2.0,2.0,313.8438779860735,4.0,1.0,phase_1,,,,,,,,,,,,,gray,hexagon
0.0,1.0,0.0,0.0,2.0,2.0,310.5278541333973,4.0,1.0,phase_1,,,,,,,,,,,,,orange,I
105.0,6.0,2.0,1.0,1.0,1.0,363.8726989738643,4.0,1.0,phase_1,,,,,,,,,,,,,gray,hexagon
0.0,6.0,0.0,1.0,3.0,3.0,314.1055300366133,4.0,1.0,phase_1,,,,,,,,,,,,,gray,hexagon
388.0,8.0,4.0,1.0,2.0,2.0,269.966185092926,4.0,1.0,phase_1,,,,,,,,,,,,,cyan,circle
216.0,3.0,3.0,0.0,1.0,1.0,314.9619079194963,4.0,1.0,phase_1,,,,,,,,,,,,,yellow,diamond
105.0,2.0,2.0,0.0,4.0,4.0,344.1095510497689,4.0,1.0,phase_1,,,,,,,,,,,,,magenta,cross
401.0,4.0,4.0,0.0,1.0,1.0,347.7459740824997,4.0,1.0,phase_1,,,,,,,,,,,,,blue,triangle
120.0,2.0,2.0,0.0,2.0,2.0,328.4918030258268,4.0,1.0,phase_1,,,,,,,,,,,,,magenta,cross
50.0,1.0,1.0,0.0,4.0,4.0,317.08301207982,4.0,1.0,phase_1,,,,,,,,,,,,,orange,I
72.0,1.0,1.0,0.0,3.0,3.0,311.9616699405014,4.0,1.0,phase_1,,,,,,,,,,,,,orange,I
0.0,3.0,0.0,0.0,1.0,1.0,288.5974659584462,4.0,1.0,phase_1,,,,,,,,,,,,,yellow,diamond
396.0,8.0,4.0,1.0,3.0,3.0,323.8187120296061,4.0,1.0,phase_1,,,,,,,,,,,,,cyan,circle
118.0,2.0,2.0,0.0,3.0,3.0,312.5918600708246,4.0,1.0,phase_1,,,,,,,,,,,,,magenta,cross
388.0,8.0,4.0,1.0,1.0,1.0,349.9960261397064,4.0,1.0,phase_1,,,,,,,,,,,,,cyan,circle
0.0,1.0,0.0,0.0,4.0,4.0,304.5453110244125,4.0,1.0,phase_1,,,,,,,,,,,,,orange,I
0.0,4.0,0.0,0.0,1.0,1.0,270.3352731186896,4.0,1.0,phase_1,,,,,,,,,,,,,blue,triangle
411.0,4.0,4.0,0.0,2.0,2.0,304.4338750187307,4.0,1.0,phase_1,,,,,,,,,,,,,blue,triangle
184.0,3.0,3.0,0.0,1.0,1.0,286.9559209793806,4.0,1.0,phase_1,,,,,,,,,,,,,yellow,diamond
77.0,2.0,2.0,0.0,4.0,4.0,297.6861258503049,4.0,1.0,phase_1,,,,,,,,,,,,,magenta,cross
75.0,2.0,2.0,0.0,1.0,1.0,318.5340871568769,4.0,1.0,phase_1,,,,,,,,,,,,,magenta,cross
0.0,3.0,0.0,0.0,2.0,2.0,295.1608549337834,4.0,1.0,phase_1,,,,,,,,,,,,,yellow,diamond
103.0,6.0,2.0,1.0,4.0,4.0,274.6562119573354,4.0,1.0,phase_1,,,,,,,,,,,,,gray,hexagon
0.0,4.0,0.0,0.0,4.0,4.0,269.4343090988695,4.0,1.0,phase_1,,,,,,,,,,,,,blue,triangle
201.0,3.0,3.0,0.0,1.0,1.0,289.3525911495089,4.0,1.0,phase_1,,,,,,,,,,,,,yellow,diamond
205.0,3.0,3.0,0.0,4.0,4.0,278.8442380260676,4.0,1.0,phase_1,,,,,,,,,,,,,yellow,diamond
0.0,5.0,0.0,1.0,1.0,1.0,306.3979130238294,4.0,1.0,phase_1,,,,,,,,,,,,,white,flipped triangle
74.0,1.0,1.0,0.0,4.0,4.0,344.0658950712532,4.0,1.0,phase_1,,,,,,,,,,,,,orange,I
0.0,2.0,2.0,0.0,5.0,5.0,327.7359621133655,1.0,1.0,phase_2,go,250.0,250.0,1.0,,,,,,,,,magenta,cross
0.0,8.0,4.0,1.0,5.0,0.0,0.0,1.0,1.0,phase_2,stop,250.0,250.0,4.0,,,,,,,,,cyan,circle
0.0,1.0,1.0,0.0,5.0,5.0,305.0172140356153,1.0,1.0,phase_2,go,300.0,250.0,1.0,,,,,,,,,orange,I
0.0,8.0,4.0,1.0,6.0,6.0,310.6448280159384,1.0,1.0,phase_2,go,300.0,250.0,1.0,,,,,,,,,cyan,circle
0.0,7.0,3.0,1.0,6.0,6.0,332.6860668603331,1.0,1.0,phase_2,go,300.0,250.0,1.0,,,,,,,,,green,square
0.0,2.0,2.0,0.0,6.0,6.0,318.303634179756,1.0,1.0,phase_2,go,300.0,250.0,1.0,,,,,,,,,magenta,cross
0.0,3.0,3.0,0.0,5.0,5.0,300.7532327901572,1.0,1.0,phase_2,go,300.0,250.0,1.0,,,,,,,,,yellow,diamond
0.0,6.0,2.0,1.0,5.0,5.0,285.0602159742266,1.0,1.0,phase_2,stop,300.0,250.0,3.0,,,,,,,,,gray,hexagon
0.0,5.0,1.0,1.0,5.0,5.0,291.377488989383,1.0,1.0,phase_2,stop,250.0,250.0,3.0,,,,,,,,,white,flipped triangle
0.0,2.0,2.0,0.0,6.0,6.0,281.6990548744797,1.0,1.0,phase_2,go,200.0,250.0,1.0,,,,,,,,,magenta,cross
0.0,2.0,2.0,0.0,5.0,5.0,280.6266320403665,1.0,1.0,phase_2,go,200.0,250.0,1.0,,,,,,,,,magenta,cross
0.0,1.0,1.0,0.0,6.0,6.0,282.3476539924741,1.0,1.0,phase_2,go,200.0,250.0,1.0,,,,,,,,,orange,I
0.0,8.0,4.0,1.0,5.0,5.0,328.1808409374207,1.0,1.0,phase_2,stop,200.0,250.0,3.0,,,,,,,,,cyan,circle
0.0,2.0,2.0,0.0,5.0,5.0,314.1122120432555,1.0,1.0,phase_2,go,150.0,250.0,1.0,,,,,,,,,magenta,cross
0.0,8.0,4.0,1.0,5.0,5.0,350.3446071408689,1.0,1.0,phase_2,stop,150.0,250.0,3.0,,,,,,,,,cyan,circle
0.0,4.0,4.0,0.0,5.0,5.0,517.4582579638809,1.0,1.0,phase_2,go,100.0,250.0,1.0,,,,,,,,,blue,triangle
0.0,7.0,3.0,1.0,5.0,5.0,629.8210548702627,1.0,1.0,phase_2,stop,100.0,250.0,3.0,,,,,,,,,green,square
0.0,6.0,2.0,1.0,6.0,0.0,0.0,1.0,1.0,phase_2,stop,50.0,250.0,4.0,,,,,,,,,gray,hexagon
0.0,2.0,2.0,0.0,5.0,5.0,292.7013321314007,1.0,1.0,phase_2,go,50.0,300.0,1.0,,,,,,,,,magenta,cross
0.0,6.0,2.0,1.0,6.0,6.0,359.2413607984781,1.0,1.0,phase_2,stop,50.0,300.0,3.0,,,,,,,,,gray,hexagon
0.0,8.0,4.0,1.0,6.0,6.0,325.9102760348469,1.0,1.0,phase_2,stop,50.0,250.0,3.0,,,,,,,,,cyan,circle
0.0,5.0,1.0,1.0,5.0,5.0,309.964925982058,1.0,1.0,phase_2,go,50.0,200.0,1.0,,,,,,,,,white,flipped triangle
0.0,5.0,1.0,1.0,5.0,5.0,393.9781349617988,1.0,1.0,phase_2,go,50.0,200.0,1.0,,,,,,,,,white,flipped triangle
0.0,6.0,2.0,1.0,5.0,0.0,0.0,1.0,1.0,phase_2,stop,50.0,200.0,4.0,,,,,,,,,gray,hexagon
0.0,6.0,2.0,1.0,5.0,5.0,280.6943929754197,1.0,1.0,phase_2,go,100.0,200.0,1.0,,,,,,,,,gray,hexagon
0.0,2.0,2.0,0.0,5.0,5.0,306.6337041091174,1.0,1.0,phase_2,go,100.0,200.0,1.0,,,,,,,,,magenta,cross
0.0,8.0,4.0,1.0,6.0,6.0,266.1965421866625,1.0,1.0,phase_2,go,100.0,200.0,1.0,,,,,,,,,cyan,circle
0.0,1.0,1.0,0.0,6.0,6.0,281.96226595900947,1.0,1.0,phase_2,go,100.0,200.0,1.0,,,,,,,,,orange,I
0.0,2.0,2.0,0.0,5.0,5.0,296.5891489293426,1.0,1.0,phase_2,go,100.0,200.0,1.0,,,,,,,,,magenta,cross
0.0,4.0,4.0,0.0,6.0,6.0,250.1621558330953,1.0,1.0,phase_2,go,100.0,200.0,1.0,,,,,,,,,blue,triangle
0.0,7.0,3.0,1.0,5.0,5.0,253.42650315724308,1.0,1.0,phase_2,stop,100.0,200.0,3.0,,,,,,,,,green,square
0.0,2.0,2.0,0.0,6.0,6.0,301.7451139166951,1.0,1.0,phase_2,go,50.0,200.0,1.0,,,,,,,,,magenta,cross
0.0,5.0,1.0,1.0,6.0,6.0,327.98973005265,1.0,1.0,phase_2,stop,50.0,200.0,3.0,,,,,,,,,white,flipped triangle
0.0,6.0,2.0,1.0,6.0,6.0,324.3952090851962,1.0,1.0,phase_2,stop,50.0,150.0,3.0,,,,,,,,,gray,hexagon
0.0,3.0,3.0,0.0,5.0,5.0,603.7762907799333,1.0,1.0,phase_2,go,50.0,100.0,1.0,,,,,,,,,yellow,diamond
0.0,7.0,3.0,1.0,5.0,0.0,0.0,1.0,1.0,phase_2,stop,50.0,100.0,4.0,,,,,,,,,green,square
0.0,7.0,3.0,1.0,6.0,6.0,603.4253160469234,2.0,1.0,phase_2,go,100.0,100.0,1.0,,,,,,,,,green,square
0.0,7.0,3.0,1.0,6.0,6.0,281.497340882197,2.0,1.0,phase_2,go,100.0,100.0,1.0,,,,,,,,,green,square
0.0,6.0,2.0,1.0,5.0,5.0,264.5546260755509,2.0,1.0,phase_2,stop,100.0,100.0,3.0,,,,,,,,,gray,hexagon
0.0,4.0,4.0,0.0,5.0,5.0,274.7607100754976,2.0,1.0,phase_2,go,50.0,100.0,1.0,,,,,,,,,blue,triangle
0.0,2.0,2.0,0.0,6.0,6.0,257.6406239531934,2.0,1.0,phase_2,go,50.0,100.0,1.0,,,,,,,,,magenta,cross
0.0,8.0,4.0,1.0,6.0,6.0,273.8608359359205,2.0,1.0,phase_2,go,50.0,100.0,1.0,,,,,,,,,cyan,circle
0.0,6.0,2.0,1.0,6.0,6.0,274.1345451213419,2.0,1.0,phase_2,stop,50.0,100.0,3.0,,,,,,,,,gray,hexagon
0.0,2.0,2.0,0.0,5.0,5.0,269.5249379612505,2.0,1.0,phase_2,go,50.0,50.0,1.0,,,,,,,,,magenta,cross
0.0,1.0,1.0,0.0,5.0,5.0,295.5182848963886,2.0,1.0,phase_2,go,50.0,50.0,1.0,,,,,,,,,orange,I
0.0,5.0,1.0,1.0,5.0,0.0,0.0,2.0,1.0,phase_2,stop,50.0,50.0,4.0,,,,,,,,,white,flipped triangle
0.0,1.0,1.0,0.0,5.0,5.0,310.5379969347268,2.0,1.0,phase_2,go,100.0,50.0,1.0,,,,,,,,,orange,I
0.0,4.0,4.0,0.0,6.0,6.0,267.8510639816522,2.0,1.0,phase_2,go,100.0,50.0,1.0,,,,,,,,,blue,triangle
0.0,8.0,4.0,1.0,5.0,5.0,242.8666749037802,2.0,1.0,phase_2,stop,100.0,50.0,3.0,,,,,,,,,cyan,circle
0.0,5.0,1.0,1.0,6.0,6.0,243.9516310114413,2.0,1.0,phase_2,stop,50.0,50.0,3.0,,,,,,,,,white,flipped triangle
0.0,2.0,2.0,0.0,5.0,5.0,330.0996047910303,2.0,1.0,phase_2,go,50.0,0.0,1.0,,,,,,,,,magenta,cross
0.0,8.0,4.0,1.0,6.0,0.0,0.0,2.0,1.0,phase_2,stop,50.0,0.0,4.0,,,,,,,,,cyan,circle
0.0,6.0,2.0,1.0,5.0,5.0,296.7788970563561,2.0,1.0,phase_2,stop,50.0,50.0,3.0,,,,,,,,,gray,hexagon
0.0,3.0,3.0,0.0,6.0,6.0,282.2156092151999,2.0,1.0,phase_2,go,0.0,50.0,1.0,,,,,,,,,yellow,diamond
0.0,3.0,3.0,0.0,6.0,6.0,289.973831968382,2.0,1.0,phase_2,go,0.0,50.0,1.0,,,,,,,,,yellow,diamond
0.0,6.0,2.0,1.0,5.0,5.0,246.978442883119,2.0,1.0,phase_2,stop,0.0,50.0,3.0,,,,,,,,,gray,hexagon
0.0,3.0,3.0,0.0,6.0,6.0,302.8813221026212,2.0,1.0,phase_2,go,0.0,50.0,1.0,,,,,,,,,yellow,diamond
0.0,4.0,4.0,0.0,6.0,6.0,320.2640870586037,2.0,1.0,phase_2,go,0.0,50.0,1.0,,,,,,,,,blue,triangle
0.0,7.0,3.0,1.0,5.0,0.0,0.0,2.0,1.0,phase_2,stop,0.0,50.0,4.0,,,,,,,,,green,square
0.0,7.0,3.0,1.0,6.0,6.0,254.1235219687223,2.0,1.0,phase_2,stop,50.0,50.0,3.0,,,,,,,,,green,square
0.0,4.0,4.0,0.0,6.0,6.0,400.1967068761587,2.0,1.0,phase_2,go,50.0,0.0,1.0,,,,,,,,,blue,triangle
0.0,4.0,4.0,0.0,6.0,6.0,286.1580632161349,2.0,1.0,phase_2,go,50.0,0.0,1.0,,,,,,,,,blue,triangle
0.0,7.0,3.0,1.0,6.0,0.0,0.0,2.0,1.0,phase_2,stop,50.0,0.0,4.0,,,,,,,,,green,square
0.0,1.0,1.0,0.0,6.0,6.0,387.670385884121,2.0,1.0,phase_2,go,50.0,50.0,1.0,,,,,,,,,orange,I
0.0,6.0,2.0,1.0,5.0,5.0,268.105620983988,2.0,1.0,phase_2,stop,50.0,50.0,3.0,,,,,,,,,gray,hexagon
0.0,5.0,1.0,1.0,6.0,6.0,267.3679839354008,2.0,1.0,phase_2,stop,0.0,50.0,3.0,,,,,,,,,white,flipped triangle
0.0,2.0,2.0,0.0,5.0,5.0,352.9708408750593,2.0,1.0,phase_2,go,0.0,0.0,1.0,,,,,,,,,magenta,cross
0.0,7.0,3.0,1.0,6.0,6.0,248.4977550338953,2.0,1.0,phase_2,stop,0.0,0.0,3.0,,,,,,,,,green,square
0.0,8.0,4.0,1.0,5.0,5.0,410.8229898847639,2.0,1.0,phase_2,go,0.0,0.0,1.0,,,,,,,,,cyan,circle
0.0,7.0,3.0,1.0,6.0,6.0,282.0650460198521,2.0,1.0,phase_2,go,0.0,0.0,1.0,,,,,,,,,green,square
0.0,4.0,4.0,0.0,5.0,5.0,257.7274939976632,2.0,1.0,phase_2,go,0.0,0.0,1.0,,,,,,,,,blue,triangle
0.0,3.0,3.0,0.0,5.0,5.0,310.8808868564665,2.0,1.0,phase_2,go,0.0,0.0,1.0,,,,,,,,,yellow,diamond
0.0,1.0,1.0,0.0,5.0,5.0,575.8340510074049,3.0,1.0,phase_2,go,0.0,0.0,1.0,,,,,,,,,orange,I
0.0,6.0,2.0,1.0,5.0,0.0,0.0,3.0,1.0,phase_2,stop,0.0,0.0,4.0,,,,,,,,,gray,hexagon
0.0,4.0,4.0,0.0,5.0,5.0,358.3873461466282,3.0,1.0,phase_2,go,50.0,0.0,1.0,,,,,,,,,blue,triangle
0.0,1.0,1.0,0.0,6.0,6.0,381.0018619988113,3.0,1.0,phase_2,go,50.0,0.0,1.0,,,,,,,,,orange,I
0.0,7.0,3.0,1.0,5.0,0.0,0.0,3.0,1.0,phase_2,stop,50.0,0.0,4.0,,,,,,,,,green,square
0.0,4.0,4.0,0.0,5.0,5.0,322.6690171286464,3.0,1.0,phase_2,go,100.0,0.0,1.0,,,,,,,,,blue,triangle
0.0,4.0,4.0,0.0,6.0,6.0,313.9034700579941,3.0,1.0,phase_2,go,100.0,0.0,1.0,,,,,,,,,blue,triangle
0.0,6.0,2.0,1.0,5.0,0.0,0.0,3.0,1.0,phase_2,stop,100.0,0.0,4.0,,,,,,,,,gray,hexagon
0.0,5.0,1.0,1.0,5.0,0.0,0.0,3.0,1.0,phase_2,stop,150.0,0.0,4.0,,,,,,,,,white,flipped triangle
0.0,7.0,3.0,1.0,5.0,5.0,343.5518508777022,3.0,1.0,phase_2,stop,200.0,0.0,3.0,,,,,,,,,green,square
0.0,3.0,3.0,0.0,6.0,6.0,346.5321811381727,3.0,1.0,phase_2,go,150.0,0.0,1.0,,,,,,,,,yellow,diamond
0.0,2.0,2.0,0.0,6.0,6.0,441.6310270316899,3.0,1.0,phase_2,go,150.0,0.0,1.0,,,,,,,,,magenta,cross
0.0,7.0,3.0,1.0,6.0,0.0,0.0,3.0,1.0,phase_2,stop,150.0,0.0,4.0,,,,,,,,,green,square
0.0,8.0,4.0,1.0,5.0,0.0,0.0,3.0,1.0,phase_2,stop,150.0,50.0,4.0,,,,,,,,,cyan,circle
0.0,4.0,4.0,0.0,5.0,5.0,396.8335259705782,3.0,1.0,phase_2,go,200.0,50.0,1.0,,,,,,,,,blue,triangle
0.0,8.0,4.0,1.0,5.0,0.0,0.0,3.0,1.0,phase_2,stop,200.0,50.0,4.0,,,,,,,,,cyan,circle
0.0,6.0,2.0,1.0,5.0,0.0,0.0,3.0,1.0,phase_2,stop,250.0,50.0,4.0,,,,,,,,,gray,hexagon
0.0,4.0,4.0,0.0,6.0,6.0,555.3586860187352,3.0,1.0,phase_2,go,300.0,50.0,1.0,,,,,,,,,blue,triangle
0.0,5.0,1.0,1.0,5.0,0.0,0.0,3.0,1.0,phase_2,stop,300.0,50.0,4.0,,,,,,,,,white,flipped triangle
0.0,4.0,4.0,0.0,5.0,5.0,500.6007859483361,3.0,1.0,phase_2,go,350.0,50.0,1.0,,,,,,,,,blue,triangle
0.0,5.0,1.0,1.0,5.0,5.0,508.2634170539677,3.0,1.0,phase_2,stop,350.0,50.0,3.0,,,,,,,,,white,flipped triangle
0.0,7.0,3.0,1.0,6.0,0.0,0.0,3.0,1.0,phase_2,stop,300.0,50.0,4.0,,,,,,,,,green,square
0.0,3.0,3.0,0.0,5.0,5.0,451.2116881087422,3.0,1.0,phase_2,go,300.0,100.0,1.0,,,,,,,,,yellow,diamond
0.0,1.0,1.0,0.0,5.0,5.0,459.3992729205638,3.0,1.0,phase_2,go,300.0,100.0,1.0,,,,,,,,,orange,I
0.0,5.0,1.0,1.0,6.0,0.0,0.0,3.0,1.0,phase_2,stop,300.0,100.0,4.0,,,,,,,,,white,flipped triangle
0.0,1.0,1.0,0.0,5.0,5.0,566.5056710131466,3.0,1.0,phase_2,go,300.0,150.0,1.0,,,,,,,,,orange,I
0.0,3.0,3.0,0.0,6.0,6.0,497.6952560245991,3.0,1.0,phase_2,go,300.0,150.0,1.0,,,,,,,,,yellow,diamond
0.0,8.0,4.0,1.0,6.0,0.0,0.0,3.0,1.0,phase_2,stop,300.0,150.0,4.0,,,,,,,,,cyan,circle
0.0,8.0,4.0,1.0,5.0,0.0,0.0,3.0,1.0,phase_2,stop,300.0,200.0,4.0,,,,,,,,,cyan,circle
0.0,3.0,3.0,0.0,5.0,5.0,525.3486789297312,3.0,1.0,phase_2,go,350.0,200.0,1.0,,,,,,,,,yellow,diamond
0.0,2.0,2.0,0.0,6.0,6.0,467.6252701319754,3.0,1.0,phase_2,go,350.0,200.0,1.0,,,,,,,,,magenta,cross
0.0,2.0,2.0,0.0,6.0,6.0,523.6012910027057,3.0,1.0,phase_2,go,350.0,200.0,1.0,,,,,,,,,magenta,cross
0.0,6.0,2.0,1.0,6.0,0.0,0.0,3.0,1.0,phase_2,stop,350.0,200.0,4.0,,,,,,,,,gray,hexagon
0.0,1.0,1.0,0.0,5.0,5.0,498.2971141580492,3.0,1.0,phase_2,go,350.0,250.0,1.0,,,,,,,,,orange,I
0.0,7.0,3.0,1.0,5.0,5.0,381.8423170596361,3.0,1.0,phase_2,go,350.0,250.0,1.0,,,,,,,,,green,square
0.0,6.0,2.0,1.0,6.0,6.0,385.6812929734587,3.0,1.0,phase_2,go,350.0,250.0,1.0,,,,,,,,,gray,hexagon
0.0,8.0,4.0,1.0,5.0,0.0,0.0,4.0,1.0,phase_2,stop,350.0,250.0,4.0,,,,,,,,,cyan,circle
0.0,1.0,1.0,0.0,5.0,5.0,501.3455040752888,4.0,1.0,phase_2,go,400.0,250.0,1.0,,,,,,,,,orange,I
0.0,1.0,1.0,0.0,6.0,6.0,543.207072885707,4.0,1.0,phase_2,go,400.0,250.0,1.0,,,,,,,,,orange,I
0.0,1.0,1.0,0.0,6.0,6.0,373.3390679117292,4.0,1.0,phase_2,go,400.0,250.0,1.0,,,,,,,,,orange,I
0.0,3.0,3.0,0.0,6.0,6.0,469.5389110129326,4.0,1.0,phase_2,go,400.0,250.0,1.0,,,,,,,,,yellow,diamond
0.0,4.0,4.0,0.0,6.0,6.0,405.8552929200232,4.0,1.0,phase_2,go,400.0,250.0,1.0,,,,,,,,,blue,triangle
0.0,3.0,3.0,0.0,5.0,5.0,410.5767000000924,4.0,1.0,phase_2,go,400.0,250.0,1.0,,,,,,,,,yellow,diamond
0.0,8.0,4.0,1.0,6.0,6.0,290.9805399831384,4.0,1.0,phase_2,go,400.0,250.0,1.0,,,,,,,,,cyan,circle
0.0,4.0,4.0,0.0,6.0,6.0,298.7402169965207,4.0,1.0,phase_2,go,400.0,250.0,1.0,,,,,,,,,blue,triangle
0.0,1.0,1.0,0.0,5.0,5.0,348.100156057626,4.0,1.0,phase_2,go,400.0,250.0,1.0,,,,,,,,,orange,I
0.0,5.0,1.0,1.0,5.0,5.0,323.1157271657139,4.0,1.0,phase_2,stop,400.0,250.0,3.0,,,,,,,,,white,flipped triangle
0.0,6.0,2.0,1.0,6.0,6.0,368.2932639494538,4.0,1.0,phase_2,stop,350.0,250.0,3.0,,,,,,,,,gray,hexagon
0.0,7.0,3.0,1.0,6.0,6.0,567.022284027189,4.0,1.0,phase_2,go,350.0,200.0,1.0,,,,,,,,,green,square
0.0,4.0,4.0,0.0,6.0,6.0,518.8296670094132,4.0,1.0,phase_2,go,350.0,200.0,1.0,,,,,,,,,blue,triangle
0.0,4.0,4.0,0.0,6.0,6.0,471.1226548533886,4.0,1.0,phase_2,go,350.0,200.0,1.0,,,,,,,,,blue,triangle
0.0,8.0,4.0,1.0,5.0,0.0,0.0,4.0,1.0,phase_2,stop,350.0,200.0,4.0,,,,,,,,,cyan,circle
0.0,3.0,3.0,0.0,5.0,5.0,614.4992110785097,4.0,1.0,phase_2,go,400.0,200.0,1.0,,,,,,,,,yellow,diamond
0.0,6.0,2.0,1.0,5.0,5.0,348.6463059671223,4.0,1.0,phase_2,go,400.0,200.0,1.0,,,,,,,,,gray,hexagon
0.0,6.0,2.0,1.0,6.0,0.0,0.0,4.0,1.0,phase_2,stop,400.0,200.0,4.0,,,,,,,,,gray,hexagon
0.0,1.0,1.0,0.0,5.0,5.0,522.6104990579188,4.0,1.0,phase_2,go,400.0,250.0,1.0,,,,,,,,,orange,I
0.0,1.0,1.0,0.0,6.0,6.0,513.9962451066822,4.0,1.0,phase_2,go,400.0,250.0,1.0,,,,,,,,,orange,I
0.0,8.0,4.0,1.0,5.0,0.0,0.0,4.0,1.0,phase_2,stop,400.0,250.0,4.0,,,,,,,,,cyan,circle
0.0,2.0,2.0,0.0,5.0,5.0,409.3819989357143,4.0,1.0,phase_2,go,450.0,250.0,1.0,,,,,,,,,magenta,cross
0.0,3.0,3.0,0.0,5.0,5.0,348.0642798822373,4.0,1.0,phase_2,go,450.0,250.0,1.0,,,,,,,,,yellow,diamond
0.0,4.0,4.0,0.0,5.0,5.0,504.948167828843,4.0,1.0,phase_2,go,450.0,250.0,1.0,,,,,,,,,blue,triangle
0.0,7.0,3.0,1.0,6.0,6.0,351.4347288291901,4.0,1.0,phase_2,stop,450.0,250.0,3.0,,,,,,,,,green,square
0.0,2.0,2.0,0.0,6.0,6.0,734.4823700841516,4.0,1.0,phase_2,go,450.0,200.0,1.0,,,,,,,,,magenta,cross
0.0,3.0,3.0,0.0,5.0,5.0,656.3694190699607,4.0,1.0,phase_2,go,450.0,200.0,1.0,,,,,,,,,yellow,diamond
0.0,6.0,2.0,1.0,5.0,5.0,537.1209650766104,4.0,1.0,phase_2,stop,450.0,200.0,3.0,,,,,,,,,gray,hexagon
0.0,7.0,3.0,1.0,6.0,0.0,0.0,4.0,1.0,phase_2,stop,400.0,200.0,4.0,,,,,,,,,green,square
0.0,7.0,3.0,1.0,6.0,6.0,716.8406150303781,4.0,1.0,phase_2,go,400.0,250.0,1.0,,,,,,,,,green,square
0.0,5.0,1.0,1.0,5.0,0.0,0.0,4.0,1.0,phase_2,stop,400.0,250.0,4.0,,,,,,,,,white,flipped triangle
0.0,6.0,2.0,1.0,6.0,0.0,0.0,4.0,1.0,phase_2,stop,450.0,250.0,4.0,,,,,,,,,gray,hexagon
0.0,4.0,4.0,0.0,6.0,6.0,798.3225018251687,4.0,1.0,phase_2,go,450.0,300.0,1.0,,,,,,,,,blue,triangle
0.0,6.0,2.0,1.0,5.0,5.0,938.8331030495464,4.0,1.0,phase_2,go,450.0,300.0,1.0,,,,,,,,,gray,hexagon
0.0,7.0,3.0,1.0,6.0,6.0,385.96428092569107,4.0,1.0,phase_2,stop,450.0,300.0,3.0,,,,,,,,,green,square
0.0,3.0,3.0,0.0,6.0,6.0,812.0087669230998,5.0,1.0,phase_2,go,450.0,250.0,1.0,,,,,,,,,yellow,diamond
0.0,4.0,4.0,0.0,5.0,5.0,380.6507859844714,5.0,1.0,phase_2,go,450.0,250.0,1.0,,,,,,,,,blue,triangle
0.0,7.0,3.0,1.0,5.0,5.0,500.4677551332861,5.0,1.0,phase_2,stop,450.0,250.0,3.0,,,,,,,,,green,square
0.0,4.0,4.0,0.0,6.0,6.0,442.9138698615134,5.0,1.0,phase_2,go,400.0,250.0,1.0,,,,,,,,,blue,triangle
0.0,5.0,1.0,1.0,6.0,6.0,432.4939327780157,5.0,1.0,phase_2,go,400.0,250.0,1.0,,,,,,,,,white,flipped triangle
0.0,5.0,1.0,1.0,6.0,0.0,0.0,5.0,1.0,phase_2,stop,400.0,250.0,4.0,,,,,,,,,white,flipped triangle
0.0,6.0,2.0,1.0,6.0,0.0,0.0,5.0,1.0,phase_2,stop,400.0,300.0,4.0,,,,,,,,,gray,hexagon
0.0,2.0,2.0,0.0,6.0,6.0,549.8216198757291,5.0,1.0,phase_2,go,400.0,350.0,1.0,,,,,,,,,magenta,cross
0.0,1.0,1.0,0.0,5.0,5.0,485.4278969578445,5.0,1.0,phase_2,go,400.0,350.0,1.0,,,,,,,,,orange,I
0.0,3.0,3.0,0.0,5.0,5.0,447.8260460309684,5.0,1.0,phase_2,go,400.0,350.0,1.0,,,,,,,,,yellow,diamond
0.0,4.0,4.0,0.0,6.0,6.0,396.1494949180633,5.0,1.0,phase_2,go,400.0,350.0,1.0,,,,,,,,,blue,triangle
0.0,4.0,4.0,0.0,5.0,5.0,413.5728939436376,5.0,1.0,phase_2,go,400.0,350.0,1.0,,,,,,,,,blue,triangle
0.0,4.0,4.0,0.0,5.0,5.0,419.3091480992734,5.0,1.0,phase_2,go,400.0,350.0,1.0,,,,,,,,,blue,triangle
0.0,3.0,3.0,0.0,5.0,5.0,363.5725651402026,5.0,1.0,phase_2,go,400.0,350.0,1.0,,,,,,,,,yellow,diamond
0.0,5.0,1.0,1.0,6.0,6.0,444.6424790658057,5.0,1.0,phase_2,go,400.0,350.0,1.0,,,,,,,,,white,flipped triangle
0.0,1.0,1.0,0.0,6.0,6.0,381.00246200338,5.0,1.0,phase_2,go,400.0,350.0,1.0,,,,,,,,,orange,I
0.0,8.0,4.0,1.0,5.0,5.0,416.9296200852841,5.0,1.0,phase_2,stop,400.0,350.0,3.0,,,,,,,,,cyan,circle
0.0,3.0,3.0,0.0,5.0,5.0,448.3481801580637,5.0,1.0,phase_2,go,350.0,350.0,1.0,,,,,,,,,yellow,diamond
0.0,6.0,2.0,1.0,6.0,6.0,657.7588929794729,5.0,1.0,phase_2,go,350.0,350.0,1.0,,,,,,,,,gray,hexagon
0.0,3.0,3.0,0.0,6.0,6.0,414.8339841049164,5.0,1.0,phase_2,go,350.0,350.0,1.0,,,,,,,,,yellow,diamond
0.0,5.0,1.0,1.0,6.0,6.0,391.8141529429704,5.0,1.0,phase_2,stop,350.0,350.0,3.0,,,,,,,,,white,flipped triangle
0.0,5.0,1.0,1.0,5.0,0.0,0.0,5.0,1.0,phase_2,stop,350.0,300.0,4.0,,,,,,,,,white,flipped triangle
0.0,3.0,3.0,0.0,6.0,6.0,687.8916539717466,5.0,1.0,phase_2,go,400.0,300.0,1.0,,,,,,,,,yellow,diamond
0.0,2.0,2.0,0.0,5.0,5.0,513.2002190221101,5.0,1.0,phase_2,go,400.0,300.0,1.0,,,,,,,,,magenta,cross
0.0,1.0,1.0,0.0,6.0,6.0,532.2497910819948,5.0,1.0,phase_2,go,400.0,300.0,1.0,,,,,,,,,orange,I
0.0,4.0,4.0,0.0,5.0,5.0,421.8401450198143,5.0,1.0,phase_2,go,400.0,300.0,1.0,,,,,,,,,blue,triangle
0.0,3.0,3.0,0.0,5.0,5.0,565.5907629989088,5.0,1.0,phase_2,go,400.0,300.0,1.0,,,,,,,,,yellow,diamond
0.0,2.0,2.0,0.0,6.0,6.0,485.7810789253562,5.0,1.0,phase_2,go,400.0,300.0,1.0,,,,,,,,,magenta,cross
0.0,5.0,1.0,1.0,6.0,0.0,0.0,5.0,1.0,phase_2,stop,400.0,300.0,4.0,,,,,,,,,white,flipped triangle
0.0,6.0,2.0,1.0,5.0,5.0,465.9765791147947,5.0,1.0,phase_2,go,400.0,350.0,1.0,,,,,,,,,gray,hexagon
0.0,1.0,1.0,0.0,5.0,5.0,827.8709009755403,5.0,1.0,phase_2,go,400.0,350.0,1.0,,,,,,,,,orange,I
0.0,2.0,2.0,0.0,6.0,6.0,552.5253210216761,5.0,1.0,phase_2,go,400.0,350.0,1.0,,,,,,,,,magenta,cross
0.0,3.0,3.0,0.0,6.0,6.0,666.471908101812,5.0,1.0,phase_2,go,400.0,350.0,1.0,,,,,,,,,yellow,diamond
0.0,2.0,2.0,0.0,5.0,5.0,771.6239381115884,5.0,1.0,phase_2,go,400.0,350.0,1.0,,,,,,,,,magenta,cross
0.0,6.0,2.0,1.0,5.0,0.0,0.0,5.0,1.0,phase_2,stop,400.0,350.0,4.0,,,,,,,,,gray,hexagon
0.0,3.0,3.0,0.0,5.0,5.0,472.7033509407192,5.0,1.0,phase_2,go,450.0,350.0,1.0,,,,,,,,,yellow,diamond
0.0,8.0,4.0,1.0,6.0,0.0,0.0,6.0,1.0,phase_2,stop,450.0,350.0,4.0,,,,,,,,,cyan,circle
0.0,5.0,1.0,1.0,6.0,6.0,504.078668076545,6.0,1.0,phase_2,go,450.0,400.0,1.0,,,,,,,,,white,flipped triangle
0.0,2.0,2.0,0.0,5.0,5.0,438.6115979868918,6.0,1.0,phase_2,go,450.0,400.0,1.0,,,,,,,,,magenta,cross
0.0,2.0,2.0,0.0,6.0,6.0,384.4343330711126,6.0,1.0,phase_2,go,450.0,400.0,1.0,,,,,,,,,magenta,cross
0.0,6.0,2.0,1.0,6.0,6.0,343.6811252031475,6.0,1.0,phase_2,go,450.0,400.0,1.0,,,,,,,,,gray,hexagon
0.0,8.0,4.0,1.0,5.0,0.0,0.0,6.0,1.0,phase_2,stop,450.0,400.0,4.0,,,,,,,,,cyan,circle
0.0,1.0,1.0,0.0,5.0,5.0,469.8756779544055,6.0,1.0,phase_2,go,500.0,400.0,1.0,,,,,,,,,orange,I
0.0,5.0,1.0,1.0,6.0,6.0,403.8914539851248,6.0,1.0,phase_2,go,500.0,400.0,1.0,,,,,,,,,white,flipped triangle
0.0,8.0,4.0,1.0,6.0,0.0,0.0,6.0,1.0,phase_2,stop,500.0,400.0,4.0,,,,,,,,,cyan,circle
0.0,5.0,1.0,1.0,5.0,0.0,0.0,6.0,1.0,phase_2,stop,500.0,450.0,4.0,,,,,,,,,white,flipped triangle
0.0,8.0,4.0,1.0,6.0,0.0,0.0,6.0,1.0,phase_2,stop,550.0,450.0,4.0,,,,,,,,,cyan,circle
0.0,4.0,4.0,0.0,5.0,5.0,593.6112420167774,6.0,1.0,phase_2,go,550.0,500.0,1.0,,,,,,,,,blue,triangle
0.0,8.0,4.0,1.0,6.0,0.0,0.0,6.0,1.0,phase_2,stop,550.0,500.0,4.0,,,,,,,,,cyan,circle
0.0,3.0,3.0,0.0,6.0,6.0,435.18584896810347,6.0,1.0,phase_2,go,550.0,550.0,1.0,,,,,,,,,yellow,diamond
0.0,3.0,3.0,0.0,5.0,5.0,424.7654608916491,6.0,1.0,phase_2,go,550.0,550.0,1.0,,,,,,,,,yellow,diamond
0.0,8.0,4.0,1.0,5.0,5.0,1498.344095889479,6.0,1.0,phase_2,go,550.0,550.0,1.0,,,,,,,,,cyan,circle
0.0,5.0,1.0,1.0,5.0,5.0,480.117331026122,6.0,1.0,phase_2,stop,550.0,550.0,3.0,,,,,,,,,white,flipped triangle
0.0,3.0,3.0,0.0,6.0,6.0,369.3987829610705,6.0,1.0,phase_2,go,500.0,550.0,1.0,,,,,,,,,yellow,diamond
0.0,6.0,2.0,1.0,5.0,5.0,567.7433498203754,6.0,1.0,phase_2,stop,500.0,550.0,3.0,,,,,,,,,gray,hexagon
0.0,1.0,1.0,0.0,6.0,6.0,517.2714930959046,6.0,1.0,phase_2,go,450.0,550.0,1.0,,,,,,,,,orange,I
0.0,4.0,4.0,0.0,5.0,5.0,501.4531179331243,6.0,1.0,phase_2,go,450.0,550.0,1.0,,,,,,,,,blue,triangle
0.0,6.0,2.0,1.0,5.0,0.0,0.0,6.0,1.0,phase_2,stop,450.0,550.0,4.0,,,,,,,,,gray,hexagon
0.0,7.0,3.0,1.0,5.0,5.0,343.6269289813936,6.0,1.0,phase_2,stop,500.0,550.0,3.0,,,,,,,,,green,square
0.0,3.0,3.0,0.0,5.0,5.0,517.4325690604746,6.0,1.0,phase_2,go,450.0,550.0,1.0,,,,,,,,,yellow,diamond
0.0,7.0,3.0,1.0,5.0,5.0,483.0687609501183,6.0,1.0,phase_2,stop,450.0,550.0,3.0,,,,,,,,,green,square
0.0,7.0,3.0,1.0,6.0,6.0,635.6504270806909,6.0,1.0,phase_2,stop,400.0,550.0,3.0,,,,,,,,,green,square
0.0,6.0,2.0,1.0,6.0,0.0,0.0,6.0,1.0,phase_2,stop,400.0,500.0,4.0,,,,,,,,,gray,hexagon
0.0,2.0,2.0,0.0,5.0,5.0,531.9672289770097,6.0,1.0,phase_2,go,400.0,550.0,1.0,,,,,,,,,magenta,cross
0.0,1.0,1.0,0.0,6.0,6.0,481.9359660614282,6.0,1.0,phase_2,go,400.0,550.0,1.0,,,,,,,,,orange,I
0.0,6.0,2.0,1.0,6.0,0.0,0.0,6.0,1.0,phase_2,stop,400.0,550.0,4.0,,,,,,,,,gray,hexagon
0.0,3.0,3.0,0.0,6.0,6.0,759.2471379321069,6.0,1.0,phase_2,go,400.0,600.0,1.0,,,,,,,,,yellow,diamond
0.0,8.0,4.0,1.0,5.0,0.0,0.0,6.0,1.0,phase_2,stop,400.0,600.0,4.0,,,,,,,,,cyan,circle
0.0,8.0,4.0,1.0,5.0,5.0,950.8516490459442,6.0,1.0,phase_2,go,450.0,600.0,1.0,,,,,,,,,cyan,circle
0.0,5.0,1.0,1.0,5.0,0.0,0.0,6.0,1.0,phase_2,stop,450.0,600.0,4.0,,,,,,,,,white,flipped triangle
0.0,7.0,3.0,1.0,5.0,5.0,599.2851050104946,6.0,1.0,phase_2,stop,500.0,600.0,3.0,,,,,,,,,green,square
0.0,4.0,4.0,0.0,6.0,6.0,557.3687651194632,6.0,1.0,phase_2,go,450.0,600.0,1.0,,,,,,,,,blue,triangle
0.0,3.0,3.0,0.0,6.0,6.0,531.9132430013269,7.0,1.0,phase_2,go,450.0,600.0,1.0,,,,,,,,,yellow,diamond
0.0,2.0,2.0,0.0,6.0,6.0,439.2180540598929,7.0,1.0,phase_2,go,450.0,600.0,1.0,,,,,,,,,magenta,cross
0.0,5.0,1.0,1.0,6.0,6.0,742.1328108757734,7.0,1.0,phase_2,stop,450.0,600.0,3.0,,,,,,,,,white,flipped triangle
0.0,2.0,2.0,0.0,5.0,5.0,602.558258920908,7.0,1.0,phase_2,go,450.0,550.0,1.0,,,,,,,,,magenta,cross
0.0,4.0,4.0,0.0,5.0,5.0,620.9740308113396,7.0,1.0,phase_2,go,450.0,550.0,1.0,,,,,,,,,blue,triangle
0.0,7.0,3.0,1.0,6.0,6.0,475.7595548871904,7.0,1.0,phase_2,go,450.0,550.0,1.0,,,,,,,,,green,square
0.0,1.0,1.0,0.0,6.0,6.0,427.4930551182478,7.0,1.0,phase_2,go,450.0,550.0,1.0,,,,,,,,,orange,I
0.0,6.0,2.0,1.0,6.0,0.0,0.0,7.0,1.0,phase_2,stop,450.0,550.0,4.0,,,,,,,,,gray,hexagon
0.0,5.0,1.0,1.0,5.0,0.0,0.0,7.0,1.0,phase_2,stop,450.0,600.0,4.0,,,,,,,,,white,flipped triangle
0.0,6.0,2.0,1.0,6.0,0.0,0.0,7.0,1.0,phase_2,stop,500.0,600.0,4.0,,,,,,,,,gray,hexagon
0.0,3.0,3.0,0.0,6.0,6.0,601.0309241246432,7.0,1.0,phase_2,go,500.0,650.0,1.0,,,,,,,,,yellow,diamond
0.0,1.0,1.0,0.0,6.0,6.0,446.1927958764136,7.0,1.0,phase_2,go,500.0,650.0,1.0,,,,,,,,,orange,I
0.0,8.0,4.0,1.0,6.0,0.0,0.0,7.0,1.0,phase_2,stop,500.0,650.0,4.0,,,,,,,,,cyan,circle
0.0,3.0,3.0,0.0,5.0,5.0,429.1809180285781,7.0,1.0,phase_2,go,500.0,700.0,1.0,,,,,,,,,yellow,diamond
0.0,2.0,2.0,0.0,5.0,5.0,372.803877107799,7.0,1.0,phase_2,go,500.0,700.0,1.0,,,,,,,,,magenta,cross
0.0,8.0,4.0,1.0,6.0,0.0,0.0,7.0,1.0,phase_2,stop,500.0,700.0,4.0,,,,,,,,,cyan,circle
0.0,1.0,1.0,0.0,6.0,6.0,459.9591579753905,7.0,1.0,phase_2,go,500.0,750.0,1.0,,,,,,,,,orange,I
0.0,1.0,1.0,0.0,5.0,5.0,347.6816648617387,7.0,1.0,phase_2,go,500.0,750.0,1.0,,,,,,,,,orange,I
0.0,4.0,4.0,0.0,6.0,6.0,539.5908730570227,7.0,1.0,phase_2,go,500.0,750.0,1.0,,,,,,,,,blue,triangle
0.0,7.0,3.0,1.0,5.0,5.0,396.1460839491337,7.0,1.0,phase_2,stop,500.0,750.0,3.0,,,,,,,,,green,square
0.0,6.0,2.0,1.0,6.0,0.0,0.0,7.0,1.0,phase_2,stop,450.0,750.0,4.0,,,,,,,,,gray,hexagon
0.0,2.0,2.0,0.0,6.0,6.0,416.3770349696278,7.0,1.0,phase_2,go,450.0,800.0,1.0,,,,,,,,,magenta,cross
0.0,7.0,3.0,1.0,5.0,5.0,335.9602820128202,7.0,1.0,phase_2,stop,450.0,800.0,3.0,,,,,,,,,green,square
0.0,2.0,2.0,0.0,5.0,5.0,498.2209019362926,7.0,1.0,phase_2,go,400.0,800.0,1.0,,,,,,,,,magenta,cross
0.0,7.0,3.0,1.0,5.0,0.0,0.0,7.0,1.0,phase_2,stop,400.0,800.0,4.0,,,,,,,,,green,square
0.0,2.0,2.0,0.0,6.0,6.0,463.0896099843085,7.0,1.0,phase_2,go,450.0,800.0,1.0,,,,,,,,,magenta,cross
0.0,8.0,4.0,1.0,6.0,0.0,0.0,7.0,1.0,phase_2,stop,450.0,800.0,4.0,,,,,,,,,cyan,circle
0.0,2.0,2.0,0.0,5.0,5.0,438.1504929624498,7.0,1.0,phase_2,go,450.0,850.0,1.0,,,,,,,,,magenta,cross
0.0,1.0,1.0,0.0,6.0,6.0,405.1939321216196,7.0,1.0,phase_2,go,450.0,850.0,1.0,,,,,,,,,orange,I
0.0,2.0,2.0,0.0,6.0,6.0,391.5700751822442,7.0,1.0,phase_2,go,450.0,850.0,1.0,,,,,,,,,magenta,cross
0.0,4.0,4.0,0.0,6.0,6.0,509.8305968567729,7.0,1.0,phase_2,go,450.0,850.0,1.0,,,,,,,,,blue,triangle
0.0,1.0,1.0,0.0,5.0,5.0,371.6497840359807,7.0,1.0,phase_2,go,450.0,850.0,1.0,,,,,,,,,orange,I
0.0,4.0,4.0,0.0,5.0,5.0,442.7192241419106,7.0,1.0,phase_2,go,450.0,850.0,1.0,,,,,,,,,blue,triangle
0.0,7.0,3.0,1.0,5.0,5.0,381.3760201446712,7.0,1.0,phase_2,stop,450.0,850.0,3.0,,,,,,,,,green,square
0.0,5.0,1.0,1.0,6.0,6.0,381.4182099886238,7.0,1.0,phase_2,stop,400.0,850.0,3.0,,,,,,,,,white,flipped triangle
0.0,1.0,1.0,0.0,6.0,6.0,570.8653919864446,7.0,1.0,phase_2,go,400.0,800.0,1.0,,,,,,,,,orange,I
0.0,5.0,1.0,1.0,5.0,0.0,0.0,8.0,1.0,phase_2,stop,400.0,800.0,4.0,,,,,,,,,white,flipped triangle
0.0,5.0,1.0,1.0,6.0,0.0,0.0,8.0,1.0,phase_2,stop,450.0,800.0,4.0,,,,,,,,,white,flipped triangle
0.0,7.0,3.0,1.0,5.0,0.0,0.0,8.0,1.0,phase_2,stop,450.0,850.0,4.0,,,,,,,,,green,square
0.0,5.0,1.0,1.0,5.0,5.0,1029.706232016906,8.0,1.0,phase_2,go,500.0,850.0,1.0,,,,,,,,,white,flipped triangle
0.0,5.0,1.0,1.0,6.0,6.0,843.762347009033,8.0,1.0,phase_2,stop,500.0,850.0,3.0,,,,,,,,,white,flipped triangle
0.0,2.0,2.0,0.0,6.0,6.0,783.2039289642125,8.0,1.0,phase_2,go,500.0,800.0,1.0,,,,,,,,,magenta,cross
0.0,1.0,1.0,0.0,5.0,5.0,458.7897101882845,8.0,1.0,phase_2,go,500.0,800.0,1.0,,,,,,,,,orange,I
0.0,1.0,1.0,0.0,6.0,6.0,466.3959199097007,8.0,1.0,phase_2,go,500.0,800.0,1.0,,,,,,,,,orange,I
0.0,7.0,3.0,1.0,6.0,6.0,397.7790030185133,8.0,1.0,phase_2,stop,500.0,800.0,3.0,,,,,,,,,green,square
0.0,5.0,1.0,1.0,5.0,5.0,1203.4820928238332,8.0,1.0,phase_2,go,500.0,750.0,1.0,,,,,,,,,white,flipped triangle
0.0,1.0,1.0,0.0,5.0,5.0,465.8929721917957,8.0,1.0,phase_2,go,500.0,750.0,1.0,,,,,,,,,orange,I
0.0,5.0,1.0,1.0,6.0,6.0,856.2304710503668,8.0,1.0,phase_2,stop,500.0,750.0,3.0,,,,,,,,,white,flipped triangle
0.0,8.0,4.0,1.0,6.0,0.0,0.0,8.0,1.0,phase_2,stop,500.0,700.0,4.0,,,,,,,,,cyan,circle
0.0,4.0,4.0,0.0,6.0,6.0,848.722374998033,8.0,1.0,phase_2,go,500.0,750.0,1.0,,,,,,,,,blue,triangle
0.0,4.0,4.0,0.0,5.0,5.0,655.1764570176601,8.0,1.0,phase_2,go,500.0,750.0,1.0,,,,,,,,,blue,triangle
0.0,3.0,3.0,0.0,6.0,6.0,991.8027129024268,8.0,1.0,phase_2,go,500.0,750.0,1.0,,,,,,,,,yellow,diamond
0.0,7.0,3.0,1.0,5.0,5.0,1023.325621150434,8.0,1.0,phase_2,go,500.0,750.0,1.0,,,,,,,,,green,square
0.0,2.0,2.0,0.0,6.0,6.0,413.874584948644,8.0,1.0,phase_2,go,500.0,750.0,1.0,,,,,,,,,magenta,cross
0.0,1.0,1.0,0.0,5.0,5.0,372.4043490365147,8.0,1.0,phase_2,go,500.0,750.0,1.0,,,,,,,,,orange,I
0.0,3.0,3.0,0.0,5.0,5.0,340.3030950576067,8.0,1.0,phase_2,go,500.0,750.0,1.0,,,,,,,,,yellow,diamond
0.0,5.0,1.0,1.0,5.0,5.0,357.9736701212823,8.0,1.0,phase_2,stop,500.0,750.0,3.0,,,,,,,,,white,flipped triangle
0.0,8.0,4.0,1.0,5.0,0.0,0.0,8.0,1.0,phase_2,stop,450.0,750.0,4.0,,,,,,,,,cyan,circle
0.0,5.0,1.0,1.0,6.0,6.0,1092.3544799443334,8.0,1.0,phase_2,go,500.0,750.0,1.0,,,,,,,,,white,flipped triangle
0.0,6.0,2.0,1.0,5.0,5.0,1004.1778068989515,8.0,1.0,phase_2,go,500.0,750.0,1.0,,,,,,,,,gray,hexagon
0.0,7.0,3.0,1.0,6.0,6.0,433.6200379766524,8.0,1.0,phase_2,stop,500.0,750.0,3.0,,,,,,,,,green,square
0.0,5.0,1.0,1.0,6.0,0.0,0.0,8.0,1.0,phase_2,stop,500.0,700.0,4.0,,,,,,,,,white,flipped triangle
0.0,1.0,1.0,0.0,6.0,6.0,529.5573810581118,8.0,1.0,phase_2,go,500.0,750.0,1.0,,,,,,,,,orange,I
0.0,4.0,4.0,0.0,5.0,5.0,552.2933329921216,8.0,1.0,phase_2,go,500.0,750.0,1.0,,,,,,,,,blue,triangle
0.0,8.0,4.0,1.0,6.0,6.0,1167.3211241140962,8.0,1.0,phase_2,go,500.0,750.0,1.0,,,,,,,,,cyan,circle
0.0,8.0,4.0,1.0,6.0,0.0,0.0,8.0,1.0,phase_2,stop,500.0,750.0,4.0,,,,,,,,,cyan,circle
0.0,3.0,3.0,0.0,6.0,6.0,551.9671840593219,8.0,1.0,phase_2,go,500.0,800.0,1.0,,,,,,,,,yellow,diamond
0.0,3.0,3.0,0.0,6.0,6.0,404.7403428703546,8.0,1.0,phase_2,go,500.0,800.0,1.0,,,,,,,,,yellow,diamond
0.0,8.0,4.0,1.0,6.0,6.0,1014.3442249391228,8.0,1.0,phase_2,go,500.0,800.0,1.0,,,,,,,,,cyan,circle
0.0,6.0,2.0,1.0,6.0,6.0,719.2675850819796,8.0,1.0,phase_2,go,500.0,800.0,1.0,,,,,,,,,gray,hexagon
0.0,7.0,3.0,1.0,5.0,0.0,0.0,8.0,1.0,phase_2,stop,500.0,800.0,4.0,,,,,,,,,green,square
0.0,8.0,4.0,1.0,5.0,0.0,0.0,8.0,1.0,phase_2,stop,550.0,800.0,4.0,,,,,,,,,cyan,circle
0.0,5.0,1.0,1.0,7.0,4.0,1682.5807050336152,1.0,2.0,phase_3,,,,,88.0,2.0,264.0,44.0,176.0,88.0,132.0,220.0,white,flipped triangle
0.0,1.0,1.0,0.0,7.0,3.0,4163.930446840823,1.0,1.0,phase_3,,,,,68.0,2.0,34.0,204.0,68.0,170.0,102.0,136.0,orange,I
0.0,8.0,4.0,1.0,7.0,2.0,3448.83467303589,1.0,1.0,phase_3,,,,,204.0,6.0,136.0,204.0,68.0,34.0,102.0,170.0,cyan,circle
0.0,3.0,3.0,0.0,7.0,5.0,1994.445119984448,1.0,1.0,phase_3,,,,,220.0,5.0,88.0,44.0,264.0,132.0,220.0,176.0,yellow,diamond
0.0,7.0,3.0,1.0,7.0,2.0,1951.693719951436,1.0,1.0,phase_3,,,,,204.0,6.0,68.0,204.0,34.0,136.0,170.0,102.0,green,square
0.0,2.0,2.0,0.0,7.0,6.0,2360.6176720932126,1.0,1.0,phase_3,,,,,54.0,1.0,324.0,216.0,108.0,270.0,162.0,54.0,magenta,cross
0.0,8.0,4.0,1.0,7.0,2.0,1872.856181813404,1.0,1.0,phase_3,,,,,220.0,5.0,132.0,220.0,88.0,44.0,264.0,176.0,cyan,circle
0.0,8.0,4.0,1.0,7.0,5.0,2665.8590890001506,1.0,1.0,phase_3,,,,,270.0,5.0,108.0,216.0,162.0,324.0,270.0,54.0,cyan,circle
0.0,1.0,1.0,0.0,7.0,2.0,2315.0586939882487,1.0,1.0,phase_3,,,,,68.0,2.0,102.0,68.0,204.0,170.0,136.0,34.0,orange,I
0.0,6.0,2.0,1.0,7.0,6.0,1578.89681099914,1.0,1.0,phase_3,,,,,39.0,1.0,117.0,78.0,195.0,234.0,156.0,39.0,gray,hexagon
0.0,3.0,3.0,0.0,7.0,1.0,2379.858943866566,1.0,1.0,phase_3,,,,,216.0,4.0,216.0,324.0,108.0,162.0,270.0,54.0,yellow,diamond
0.0,6.0,2.0,1.0,7.0,6.0,2044.951126910746,1.0,1.0,phase_3,,,,,44.0,1.0,88.0,176.0,132.0,220.0,264.0,44.0,gray,hexagon
0.0,3.0,3.0,0.0,7.0,1.0,1673.5610850155354,1.0,1.0,phase_3,,,,,234.0,6.0,234.0,117.0,78.0,39.0,195.0,156.0,yellow,diamond
0.0,4.0,4.0,0.0,7.0,4.0,2929.5516731217504,1.0,1.0,phase_3,,,,,294.0,6.0,245.0,147.0,196.0,294.0,98.0,49.0,blue,triangle
0.0,2.0,2.0,0.0,7.0,6.0,2356.8372861482203,1.0,1.0,phase_3,,,,,88.0,2.0,176.0,264.0,220.0,44.0,132.0,88.0,magenta,cross
0.0,2.0,2.0,0.0,7.0,2.0,1579.5760750770569,1.0,1.0,phase_3,,,,,108.0,2.0,54.0,108.0,324.0,216.0,162.0,270.0,magenta,cross
0.0,5.0,1.0,1.0,7.0,6.0,1622.9182330425829,1.0,1.0,phase_3,,,,,78.0,2.0,234.0,39.0,117.0,195.0,156.0,78.0,white,flipped triangle
0.0,3.0,3.0,0.0,7.0,1.0,2086.2846840173006,1.0,1.0,phase_3,,,,,196.0,4.0,196.0,98.0,147.0,294.0,49.0,245.0,yellow,diamond
0.0,1.0,1.0,0.0,7.0,6.0,1463.419287931174,1.0,1.0,phase_3,,,,,44.0,1.0,132.0,88.0,264.0,220.0,176.0,44.0,orange,I
0.0,7.0,3.0,1.0,7.0,5.0,2082.137804944068,1.0,1.0,phase_3,,,,,216.0,4.0,270.0,108.0,324.0,162.0,216.0,54.0,green,square
0.0,6.0,2.0,1.0,7.0,3.0,2238.1616558413957,2.0,1.0,phase_3,,,,,44.0,1.0,176.0,264.0,44.0,220.0,88.0,132.0,gray,hexagon
0.0,6.0,2.0,1.0,7.0,3.0,1494.8105169460175,2.0,1.0,phase_3,,,,,39.0,1.0,78.0,156.0,39.0,117.0,195.0,234.0,gray,hexagon
0.0,6.0,2.0,1.0,7.0,1.0,1464.6743088960648,2.0,1.0,phase_3,,,,,54.0,1.0,54.0,162.0,324.0,270.0,108.0,216.0,gray,hexagon
0.0,5.0,1.0,1.0,7.0,5.0,1377.6506728027016,2.0,1.0,phase_3,,,,,68.0,2.0,136.0,34.0,170.0,204.0,68.0,102.0,white,flipped triangle
0.0,8.0,4.0,1.0,7.0,3.0,1580.3884868510067,2.0,1.0,phase_3,,,,,294.0,6.0,98.0,196.0,294.0,245.0,147.0,49.0,cyan,circle
0.0,2.0,2.0,0.0,7.0,5.0,2276.5954739879817,2.0,1.0,phase_3,,,,,88.0,2.0,176.0,44.0,132.0,264.0,88.0,220.0,magenta,cross
0.0,4.0,4.0,0.0,7.0,4.0,2180.9375800658017,2.0,1.0,phase_3,,,,,234.0,6.0,117.0,39.0,156.0,234.0,78.0,195.0,blue,triangle
0.0,7.0,3.0,1.0,7.0,1.0,2336.1840511206537,2.0,1.0,phase_3,,,,,196.0,4.0,196.0,98.0,49.0,245.0,147.0,294.0,green,square
0.0,4.0,4.0,0.0,7.0,1.0,2089.827740099281,2.0,1.0,phase_3,,,,,234.0,6.0,234.0,117.0,78.0,39.0,195.0,156.0,blue,triangle
0.0,6.0,2.0,1.0,7.0,1.0,1368.9250980969518,2.0,1.0,phase_3,,,,,54.0,1.0,54.0,162.0,108.0,216.0,270.0,324.0,gray,hexagon
0.0,1.0,1.0,0.0,7.0,3.0,1259.7353409510106,2.0,1.0,phase_3,,,,,54.0,1.0,162.0,324.0,54.0,216.0,108.0,270.0,orange,I
0.0,1.0,1.0,0.0,7.0,1.0,1700.559553923085,2.0,1.0,phase_3,,,,,78.0,2.0,78.0,234.0,156.0,39.0,195.0,117.0,orange,I
0.0,6.0,2.0,1.0,7.0,2.0,1533.1104139331728,2.0,1.0,phase_3,,,,,34.0,1.0,136.0,34.0,102.0,170.0,204.0,68.0,gray,hexagon
0.0,6.0,2.0,1.0,7.0,1.0,1834.5427880994976,2.0,1.0,phase_3,,,,,49.0,1.0,49.0,245.0,147.0,294.0,98.0,196.0,gray,hexagon
0.0,5.0,1.0,1.0,7.0,4.0,1435.887292958796,2.0,1.0,phase_3,,,,,132.0,3.0,220.0,176.0,264.0,132.0,44.0,88.0,white,flipped triangle
0.0,2.0,2.0,0.0,7.0,3.0,1353.376975050196,2.0,1.0,phase_3,,,,,49.0,1.0,196.0,98.0,49.0,245.0,294.0,147.0,magenta,cross
0.0,8.0,4.0,1.0,7.0,4.0,1658.8142898399385,2.0,1.0,phase_3,,,,,270.0,5.0,324.0,54.0,108.0,270.0,216.0,162.0,cyan,circle
0.0,8.0,4.0,1.0,7.0,1.0,2686.6571109276265,2.0,1.0,phase_3,,,,,204.0,6.0,204.0,34.0,102.0,68.0,136.0,170.0,cyan,circle
0.0,8.0,4.0,1.0,7.0,3.0,1503.532740985975,2.0,1.0,phase_3,,,,,234.0,6.0,195.0,117.0,234.0,78.0,156.0,39.0,cyan,circle
0.0,4.0,4.0,0.0,7.0,4.0,1974.6988150291145,2.0,1.0,phase_3,,,,,204.0,6.0,136.0,68.0,34.0,204.0,102.0,170.0,blue,triangle
0.0,4.0,4.0,0.0,7.0,1.0,1851.2298071291295,3.0,1.0,phase_3,,,,,264.0,6.0,264.0,44.0,176.0,220.0,132.0,88.0,blue,triangle
0.0,4.0,4.0,0.0,7.0,5.0,2020.019707037136,3.0,1.0,phase_3,,,,,324.0,6.0,108.0,54.0,162.0,216.0,324.0,270.0,blue,triangle
0.0,1.0,1.0,0.0,7.0,1.0,1504.09273407422,3.0,1.0,phase_3,,,,,44.0,1.0,44.0,88.0,220.0,264.0,176.0,132.0,orange,I
0.0,7.0,3.0,1.0,7.0,5.0,1743.3722619898615,3.0,1.0,phase_3,,,,,204.0,6.0,170.0,102.0,34.0,68.0,204.0,136.0,green,square
0.0,7.0,3.0,1.0,7.0,4.0,1703.924540895969,3.0,1.0,phase_3,,,,,196.0,4.0,245.0,49.0,98.0,196.0,147.0,294.0,green,square
0.0,7.0,3.0,1.0,7.0,3.0,2410.4330849368125,3.0,1.0,phase_3,,,,,216.0,4.0,270.0,162.0,216.0,324.0,54.0,108.0,green,square
0.0,4.0,4.0,0.0,7.0,5.0,1884.176145074889,3.0,1.0,phase_3,,,,,294.0,6.0,49.0,147.0,98.0,196.0,294.0,245.0,blue,triangle
0.0,1.0,1.0,0.0,7.0,1.0,1631.3555520027876,3.0,1.0,phase_3,,,,,49.0,1.0,49.0,147.0,294.0,245.0,196.0,98.0,orange,I
0.0,2.0,2.0,0.0,7.0,6.0,1573.3423989731818,3.0,1.0,phase_3,,,,,68.0,2.0,136.0,170.0,34.0,102.0,204.0,68.0,magenta,cross
0.0,4.0,4.0,0.0,7.0,1.0,1290.7365919090807,3.0,1.0,phase_3,,,,,324.0,6.0,324.0,108.0,54.0,270.0,162.0,216.0,blue,triangle
0.0,5.0,1.0,1.0,7.0,4.0,994.9699009303004,3.0,1.0,phase_3,,,,,34.0,1.0,68.0,102.0,170.0,34.0,204.0,136.0,white,flipped triangle
0.0,2.0,2.0,0.0,7.0,2.0,1235.1604490540922,3.0,1.0,phase_3,,,,,68.0,2.0,34.0,68.0,102.0,136.0,170.0,204.0,magenta,cross
0.0,1.0,1.0,0.0,7.0,4.0,1834.5332040917128,3.0,1.0,phase_3,,,,,49.0,1.0,294.0,196.0,98.0,49.0,245.0,147.0,orange,I
0.0,3.0,3.0,0.0,7.0,5.0,1125.2991009969264,3.0,2.0,phase_3,,,,,196.0,4.0,49.0,294.0,245.0,98.0,196.0,147.0,yellow,diamond
0.0,1.0,1.0,0.0,7.0,5.0,1422.378335148096,3.0,1.0,phase_3,,,,,39.0,1.0,156.0,117.0,78.0,195.0,39.0,234.0,orange,I
0.0,2.0,2.0,0.0,7.0,2.0,3311.8138569407165,3.0,1.0,phase_3,,,,,49.0,1.0,196.0,49.0,245.0,147.0,98.0,294.0,magenta,cross
0.0,7.0,3.0,1.0,7.0,5.0,2411.330709932372,3.0,1.0,phase_3,,,,,220.0,5.0,44.0,264.0,132.0,176.0,220.0,88.0,green,square
0.0,3.0,3.0,0.0,7.0,2.0,1930.267826886848,3.0,1.0,phase_3,,,,,195.0,5.0,156.0,195.0,234.0,117.0,39.0,78.0,yellow,diamond
0.0,4.0,4.0,0.0,7.0,5.0,2005.4929449688643,3.0,1.0,phase_3,,,,,204.0,6.0,170.0,102.0,136.0,68.0,204.0,34.0,blue,triangle
0.0,6.0,2.0,1.0,7.0,6.0,1437.627974897623,3.0,1.0,phase_3,,,,,34.0,1.0,68.0,136.0,170.0,102.0,204.0,34.0,gray,hexagon
0.0,5.0,1.0,1.0,7.0,5.0,1704.59467289038,4.0,1.0,phase_3,,,,,54.0,1.0,324.0,216.0,108.0,162.0,54.0,270.0,white,flipped triangle
0.0,7.0,3.0,1.0,7.0,6.0,2068.1085840333253,4.0,1.0,phase_3,,,,,195.0,5.0,117.0,78.0,156.0,39.0,234.0,195.0,green,square
0.0,5.0,1.0,1.0,7.0,2.0,1607.1703010238707,4.0,1.0,phase_3,,,,,54.0,1.0,270.0,54.0,108.0,216.0,324.0,162.0,white,flipped triangle
0.0,4.0,4.0,0.0,7.0,3.0,2228.6994960159063,4.0,1.0,phase_3,,,,,264.0,6.0,132.0,44.0,264.0,176.0,220.0,88.0,blue,triangle
0.0,3.0,3.0,0.0,7.0,5.0,2238.097216002643,4.0,1.0,phase_3,,,,,170.0,5.0,204.0,68.0,34.0,102.0,170.0,136.0,yellow,diamond
0.0,5.0,1.0,1.0,7.0,1.0,1753.358342917636,4.0,1.0,phase_3,,,,,78.0,2.0,78.0,195.0,234.0,39.0,117.0,156.0,white,flipped triangle
0.0,3.0,3.0,0.0,7.0,4.0,2160.757304867729,4.0,1.0,phase_3,,,,,162.0,3.0,216.0,54.0,324.0,162.0,108.0,270.0,yellow,diamond
0.0,8.0,4.0,1.0,7.0,3.0,2025.4196680616587,4.0,1.0,phase_3,,,,,234.0,6.0,117.0,78.0,234.0,195.0,39.0,156.0,cyan,circle
0.0,6.0,2.0,1.0,7.0,2.0,2186.501018004492,4.0,1.0,phase_3,,,,,49.0,1.0,294.0,49.0,245.0,147.0,196.0,98.0,gray,hexagon
0.0,5.0,1.0,1.0,7.0,2.0,1357.159491861239,4.0,1.0,phase_3,,,,,49.0,1.0,245.0,49.0,294.0,147.0,196.0,98.0,white,flipped triangle
0.0,3.0,3.0,0.0,7.0,4.0,1928.6720589734612,4.0,1.0,phase_3,,,,,176.0,4.0,220.0,44.0,88.0,176.0,132.0,264.0,yellow,diamond
0.0,8.0,4.0,1.0,7.0,5.0,2183.3631549961865,4.0,1.0,phase_3,,,,,220.0,5.0,44.0,88.0,264.0,176.0,220.0,132.0,cyan,circle
0.0,3.0,3.0,0.0,7.0,3.0,1740.059786941856,4.0,1.0,phase_3,,,,,204.0,6.0,68.0,34.0,204.0,102.0,170.0,136.0,yellow,diamond
0.0,2.0,2.0,0.0,7.0,4.0,1356.5950370393691,4.0,1.0,phase_3,,,,,78.0,2.0,195.0,156.0,39.0,78.0,234.0,117.0,magenta,cross
0.0,7.0,3.0,1.0,7.0,1.0,1644.3538500461727,4.0,1.0,phase_3,,,,,195.0,5.0,195.0,39.0,156.0,117.0,78.0,234.0,green,square
0.0,5.0,1.0,1.0,7.0,4.0,1872.0768899656832,4.0,1.0,phase_3,,,,,49.0,1.0,294.0,147.0,245.0,49.0,196.0,98.0,white,flipped triangle
0.0,8.0,4.0,1.0,7.0,6.0,3110.5332479346544,4.0,1.0,phase_3,,,,,245.0,5.0,147.0,294.0,98.0,49.0,196.0,245.0,cyan,circle
0.0,2.0,2.0,0.0,7.0,1.0,2263.824398862198,4.0,1.0,phase_3,,,,,39.0,1.0,39.0,117.0,78.0,234.0,195.0,156.0,magenta,cross
0.0,7.0,3.0,1.0,7.0,6.0,2721.210252027958,4.0,1.0,phase_3,,,,,176.0,4.0,88.0,44.0,132.0,264.0,220.0,176.0,green,square
0.0,1.0,1.0,0.0,7.0,1.0,2379.7123241238296,4.0,1.0,phase_3,,,,,216.0,4.0,216.0,270.0,162.0,54.0,108.0,324.0,orange,I
