raw_reward_magnitude,stim_reward,stepwise_reward_magnitude,paired_with_stopping,stim_location,response,reaction_time,block,num_trial_presentations,which_phase,stop_signal_trial_type,left_SSD,right_SSD,accuracy,chosen_bidding_amount,chosen_bidding_level,possible_bid_1,possible_bid_2,possible_bid_3,possible_bid_4,possible_bid_5,possible_bid_6,color_text,shape_text
196.0,7.0,3.0,1.0,4.0,4.0,434.7986481152475,1.0,1.0,phase_1,,,,,,,,,,,,,orange,cross
376.0,8.0,4.0,1.0,3.0,3.0,343.0004129186272,1.0,1.0,phase_1,,,,,,,,,,,,,green,triangle
421.0,4.0,4.0,0.0,1.0,1.0,395.1816549524665,1.0,1.0,phase_1,,,,,,,,,,,,,magenta,square
44.0,1.0,1.0,0.0,1.0,1.0,361.88037507236,1.0,1.0,phase_1,,,,,,,,,,,,,white,diamond
106.0,2.0,2.0,0.0,3.0,3.0,333.3715621847659,1.0,1.0,phase_1,,,,,,,,,,,,,yellow,hexagon
97.0,6.0,2.0,1.0,1.0,1.0,402.5784630794078,1.0,1.0,phase_1,,,,,,,,,,,,,gray,circle
68.0,5.0,1.0,1.0,1.0,1.0,349.9113891739398,1.0,1.0,phase_1,,,,,,,,,,,,,cyan,I
47.0,5.0,1.0,1.0,1.0,1.0,359.0178219601512,1.0,1.0,phase_1,,,,,,,,,,,,,cyan,I
177.0,7.0,3.0,1.0,2.0,2.0,345.2978890854865,1.0,1.0,phase_1,,,,,,,,,,,,,orange,cross
106.0,6.0,2.0,1.0,4.0,4.0,367.4997279886156,1.0,1.0,phase_1,,,,,,,,,,,,,gray,circle
105.0,2.0,2.0,0.0,4.0,4.0,360.9187919646501,1.0,1.0,phase_1,,,,,,,,,,,,,yellow,hexagon
59.0,1.0,1.0,0.0,3.0,3.0,318.1646200828254,1.0,1.0,phase_1,,,,,,,,,,,,,white,diamond
178.0,3.0,3.0,0.0,4.0,4.0,446.4816611725837,1.0,1.0,phase_1,,,,,,,,,,,,,blue,flipped triangle
0.0,8.0,0.0,1.0,2.0,2.0,481.5534870140254,1.0,1.0,phase_1,,,,,,,,,,,,,green,triangle
114.0,6.0,2.0,1.0,3.0,3.0,332.4657978955656,1.0,1.0,phase_1,,,,,,,,,,,,,gray,circle
83.0,2.0,2.0,0.0,3.0,3.0,312.1125630568713,1.0,1.0,phase_1,,,,,,,,,,,,,yellow,hexagon
36.0,1.0,1.0,0.0,4.0,4.0,360.1341701578349,1.0,1.0,phase_1,,,,,,,,,,,,,white,diamond
191.0,3.0,3.0,0.0,2.0,2.0,325.3128100186586,1.0,1.0,phase_1,,,,,,,,,,,,,blue,flipped triangle
0.0,1.0,0.0,0.0,3.0,3.0,330.4475471377373,1.0,1.0,phase_1,,,,,,,,,,,,,white,diamond
380.0,4.0,4.0,0.0,3.0,3.0,342.8626828826964,1.0,1.0,phase_1,,,,,,,,,,,,,magenta,square
33.0,5.0,1.0,1.0,3.0,3.0,377.6067381259054,1.0,1.0,phase_1,,,,,,,,,,,,,cyan,I
387.0,8.0,4.0,1.0,3.0,3.0,365.1617839932441,1.0,1.0,phase_1,,,,,,,,,,,,,green,triangle
0.0,2.0,0.0,0.0,4.0,4.0,427.3190030362457,1.0,1.0,phase_1,,,,,,,,,,,,,yellow,hexagon
378.0,4.0,4.0,0.0,1.0,1.0,382.2895679622888,1.0,1.0,phase_1,,,,,,,,,,,,,magenta,square
25.0,1.0,1.0,0.0,4.0,4.0,437.2959278989583,1.0,1.0,phase_1,,,,,,,,,,,,,white,diamond
0.0,1.0,0.0,0.0,1.0,1.0,391.2548820953816,1.0,1.0,phase_1,,,,,,,,,,,,,white,diamond
192.0,7.0,3.0,1.0,4.0,4.0,479.1757329367101,1.0,1.0,phase_1,,,,,,,,,,,,,orange,cross
42.0,1.0,1.0,0.0,4.0,4.0,379.4668489135802,1.0,1.0,phase_1,,,,,,,,,,,,,white,diamond
0.0,5.0,0.0,1.0,2.0,2.0,326.0881898459047,1.0,1.0,phase_1,,,,,,,,,,,,,cyan,I
116.0,6.0,2.0,1.0,4.0,4.0,379.6864880714565,1.0,1.0,phase_1,,,,,,,,,,,,,gray,circle
0.0,8.0,0.0,1.0,4.0,4.0,391.1260729655623,1.0,1.0,phase_1,,,,,,,,,,,,,green,triangle
86.0,6.0,2.0,1.0,4.0,4.0,373.904078034684,1.0,1.0,phase_1,,,,,,,,,,,,,gray,circle
215.0,7.0,3.0,1.0,3.0,3.0,329.8785181250423,1.0,1.0,phase_1,,,,,,,,,,,,,orange,cross
380.0,8.0,4.0,1.0,4.0,4.0,326.5161339659244,1.0,1.0,phase_1,,,,,,,,,,,,,green,triangle
0.0,2.0,0.0,0.0,2.0,2.0,299.2496178485453,1.0,1.0,phase_1,,,,,,,,,,,,,yellow,hexagon
83.0,2.0,2.0,0.0,3.0,3.0,342.7020548842847,1.0,1.0,phase_1,,,,,,,,,,,,,yellow,hexagon
420.0,4.0,4.0,0.0,2.0,2.0,380.3959339857101,1.0,1.0,phase_1,,,,,,,,,,,,,magenta,square
0.0,6.0,0.0,1.0,1.0,1.0,361.3990519661456,1.0,1.0,phase_1,,,,,,,,,,,,,gray,circle
107.0,2.0,2.0,0.0,1.0,1.0,495.2386741060763,1.0,1.0,phase_1,,,,,,,,,,,,,yellow,hexagon
51.0,5.0,1.0,1.0,4.0,4.0,408.8491690345108,1.0,1.0,phase_1,,,,,,,,,,,,,cyan,I
0.0,6.0,0.0,1.0,3.0,3.0,599.6521150227636,1.0,1.0,phase_1,,,,,,,,,,,,,gray,circle
122.0,2.0,2.0,0.0,4.0,4.0,443.8740909099579,1.0,1.0,phase_1,,,,,,,,,,,,,yellow,hexagon
0.0,3.0,0.0,0.0,2.0,2.0,352.9581250622868,1.0,1.0,phase_1,,,,,,,,,,,,,blue,flipped triangle
218.0,3.0,3.0,0.0,4.0,4.0,358.4576020948589,1.0,1.0,phase_1,,,,,,,,,,,,,blue,flipped triangle
0.0,3.0,0.0,0.0,2.0,2.0,345.7266420591622,1.0,1.0,phase_1,,,,,,,,,,,,,blue,flipped triangle
67.0,1.0,1.0,0.0,2.0,2.0,406.7674109246582,1.0,1.0,phase_1,,,,,,,,,,,,,white,diamond
125.0,6.0,2.0,1.0,2.0,2.0,349.2214281577617,1.0,1.0,phase_1,,,,,,,,,,,,,gray,circle
416.0,4.0,4.0,0.0,1.0,1.0,361.042208969593,1.0,1.0,phase_1,,,,,,,,,,,,,magenta,square
0.0,3.0,0.0,0.0,4.0,4.0,322.7600380778312,1.0,1.0,phase_1,,,,,,,,,,,,,blue,flipped triangle
182.0,7.0,3.0,1.0,1.0,1.0,353.7949060555547,1.0,1.0,phase_1,,,,,,,,,,,,,orange,cross
0.0,3.0,0.0,0.0,4.0,4.0,308.6654820945114,1.0,1.0,phase_1,,,,,,,,,,,,,blue,flipped triangle
40.0,5.0,1.0,1.0,3.0,3.0,316.9206951279193,1.0,1.0,phase_1,,,,,,,,,,,,,cyan,I
51.0,5.0,1.0,1.0,2.0,2.0,353.0147920828312,1.0,1.0,phase_1,,,,,,,,,,,,,cyan,I
106.0,2.0,2.0,0.0,4.0,4.0,380.9537889901548,1.0,1.0,phase_1,,,,,,,,,,,,,yellow,hexagon
205.0,3.0,3.0,0.0,2.0,2.0,330.1456321496516,1.0,1.0,phase_1,,,,,,,,,,,,,blue,flipped triangle
389.0,8.0,4.0,1.0,1.0,1.0,300.4335588775575,1.0,1.0,phase_1,,,,,,,,,,,,,green,triangle
181.0,7.0,3.0,1.0,1.0,1.0,320.3917038626969,1.0,1.0,phase_1,,,,,,,,,,,,,orange,cross
0.0,7.0,0.0,1.0,1.0,1.0,333.2510399632156,1.0,1.0,phase_1,,,,,,,,,,,,,orange,cross
37.0,5.0,1.0,1.0,4.0,4.0,439.6305549889803,1.0,2.0,phase_1,,,,,,,,,,,,,cyan,I
0.0,7.0,0.0,1.0,4.0,4.0,422.959211980924,1.0,1.0,phase_1,,,,,,,,,,,,,orange,cross
56.0,5.0,1.0,1.0,1.0,1.0,360.6404950842261,1.0,1.0,phase_1,,,,,,,,,,,,,cyan,I
181.0,3.0,3.0,0.0,4.0,4.0,399.0119530353695,1.0,1.0,phase_1,,,,,,,,,,,,,blue,flipped triangle
185.0,3.0,3.0,0.0,3.0,3.0,435.39027008228,1.0,1.0,phase_1,,,,,,,,,,,,,blue,flipped triangle
99.0,6.0,2.0,1.0,1.0,1.0,360.3649921715259,1.0,1.0,phase_1,,,,,,,,,,,,,gray,circle
187.0,7.0,3.0,1.0,4.0,4.0,373.5143269877881,1.0,1.0,phase_1,,,,,,,,,,,,,orange,cross
403.0,8.0,4.0,1.0,3.0,3.0,377.4864480365067,1.0,1.0,phase_1,,,,,,,,,,,,,green,triangle
37.0,5.0,1.0,1.0,4.0,4.0,424.1139469668269,1.0,1.0,phase_1,,,,,,,,,,,,,cyan,I
177.0,3.0,3.0,0.0,1.0,1.0,377.1303109824657,1.0,1.0,phase_1,,,,,,,,,,,,,blue,flipped triangle
76.0,2.0,2.0,0.0,1.0,1.0,360.677408054471,1.0,1.0,phase_1,,,,,,,,,,,,,yellow,hexagon
0.0,1.0,0.0,0.0,2.0,2.0,570.1448968611658,1.0,1.0,phase_1,,,,,,,,,,,,,white,diamond
67.0,5.0,1.0,1.0,3.0,3.0,505.5464617908001,1.0,1.0,phase_1,,,,,,,,,,,,,cyan,I
116.0,2.0,2.0,0.0,2.0,2.0,349.3139429483562,1.0,1.0,phase_1,,,,,,,,,,,,,yellow,hexagon
95.0,2.0,2.0,0.0,2.0,2.0,323.496449040249,1.0,1.0,phase_1,,,,,,,,,,,,,yellow,hexagon
210.0,7.0,3.0,1.0,1.0,1.0,373.297031968832,1.0,1.0,phase_1,,,,,,,,,,,,,orange,cross
119.0,6.0,2.0,1.0,3.0,3.0,329.561066115275,1.0,1.0,phase_1,,,,,,,,,,,,,gray,circle
0.0,1.0,0.0,0.0,4.0,4.0,384.342678822577,1.0,1.0,phase_1,,,,,,,,,,,,,white,diamond
83.0,6.0,2.0,1.0,2.0,2.0,435.2576259989291,1.0,1.0,phase_1,,,,,,,,,,,,,gray,circle
51.0,1.0,1.0,0.0,3.0,3.0,511.45961601287127,1.0,1.0,phase_1,,,,,,,,,,,,,white,diamond
40.0,1.0,1.0,0.0,3.0,3.0,348.2254650443792,1.0,1.0,phase_1,,,,,,,,,,,,,white,diamond
90.0,6.0,2.0,1.0,4.0,4.0,459.7466120030731,1.0,1.0,phase_1,,,,,,,,,,,,,gray,circle
53.0,5.0,1.0,1.0,1.0,1.0,376.4192890375852,1.0,1.0,phase_1,,,,,,,,,,,,,cyan,I
197.0,3.0,3.0,0.0,1.0,1.0,364.4925490953028,1.0,1.0,phase_1,,,,,,,,,,,,,blue,flipped triangle
215.0,7.0,3.0,1.0,4.0,4.0,376.2399679981172,1.0,1.0,phase_1,,,,,,,,,,,,,orange,cross
379.0,4.0,4.0,0.0,4.0,4.0,470.4004798550159,1.0,1.0,phase_1,,,,,,,,,,,,,magenta,square
84.0,2.0,2.0,0.0,3.0,3.0,340.1829551439732,1.0,1.0,phase_1,,,,,,,,,,,,,yellow,hexagon
0.0,2.0,0.0,0.0,2.0,2.0,324.4982310570776,1.0,1.0,phase_1,,,,,,,,,,,,,yellow,hexagon
420.0,8.0,4.0,1.0,4.0,4.0,362.4325669370591,1.0,1.0,phase_1,,,,,,,,,,,,,green,triangle
407.0,4.0,4.0,0.0,3.0,3.0,358.2372430246323,1.0,1.0,phase_1,,,,,,,,,,,,,magenta,square
210.0,7.0,3.0,1.0,2.0,2.0,414.8619791958481,1.0,1.0,phase_1,,,,,,,,,,,,,orange,cross
391.0,8.0,4.0,1.0,1.0,1.0,369.8650379665196,1.0,1.0,phase_1,,,,,,,,,,,,,green,triangle
0.0,4.0,0.0,0.0,1.0,1.0,438.8132831081748,1.0,1.0,phase_1,,,,,,,,,,,,,magenta,square
0.0,3.0,0.0,0.0,3.0,3.0,324.0180721040815,1.0,1.0,phase_1,,,,,,,,,,,,,blue,flipped triangle
209.0,3.0,3.0,0.0,3.0,3.0,384.5668111462146,1.0,1.0,phase_1,,,,,,,,,,,,,blue,flipped triangle
401.0,4.0,4.0,0.0,4.0,4.0,483.5434812121093,1.0,1.0,phase_1,,,,,,,,,,,,,magenta,square
424.0,8.0,4.0,1.0,4.0,4.0,360.7939050998539,1.0,1.0,phase_1,,,,,,,,,,,,,green,triangle
0.0,4.0,0.0,0.0,1.0,1.0,525.0407319981605,1.0,1.0,phase_1,,,,,,,,,,,,,magenta,square
105.0,6.0,2.0,1.0,4.0,4.0,457.46586099267,1.0,1.0,phase_1,,,,,,,,,,,,,gray,circle
38.0,1.0,1.0,0.0,2.0,2.0,590.0425468571484,1.0,1.0,phase_1,,,,,,,,,,,,,white,diamond
47.0,1.0,1.0,0.0,1.0,1.0,451.6105710063129,1.0,1.0,phase_1,,,,,,,,,,,,,white,diamond
216.0,3.0,3.0,0.0,1.0,1.0,378.8407258689403,1.0,1.0,phase_1,,,,,,,,,,,,,blue,flipped triangle
184.0,7.0,3.0,1.0,4.0,4.0,441.7053000070154,2.0,1.0,phase_1,,,,,,,,,,,,,orange,cross
0.0,6.0,0.0,1.0,1.0,1.0,327.7431898750365,2.0,1.0,phase_1,,,,,,,,,,,,,gray,circle
97.0,6.0,2.0,1.0,4.0,4.0,389.1965288203209,2.0,1.0,phase_1,,,,,,,,,,,,,gray,circle
200.0,7.0,3.0,1.0,2.0,2.0,335.6432218570262,2.0,1.0,phase_1,,,,,,,,,,,,,orange,cross
102.0,2.0,2.0,0.0,1.0,1.0,302.7379331178963,2.0,1.0,phase_1,,,,,,,,,,,,,yellow,hexagon
0.0,1.0,0.0,0.0,1.0,1.0,331.911165965721,2.0,1.0,phase_1,,,,,,,,,,,,,white,diamond
398.0,4.0,4.0,0.0,3.0,3.0,381.9633079692721,2.0,1.0,phase_1,,,,,,,,,,,,,magenta,square
382.0,8.0,4.0,1.0,3.0,3.0,397.1554411109537,2.0,1.0,phase_1,,,,,,,,,,,,,green,triangle
425.0,4.0,4.0,0.0,4.0,4.0,386.4712570793926,2.0,1.0,phase_1,,,,,,,,,,,,,magenta,square
92.0,6.0,2.0,1.0,2.0,2.0,525.3597339615226,2.0,1.0,phase_1,,,,,,,,,,,,,gray,circle
29.0,1.0,1.0,0.0,3.0,3.0,323.0698581319302,2.0,1.0,phase_1,,,,,,,,,,,,,white,diamond
38.0,5.0,1.0,1.0,2.0,2.0,303.1750721856951,2.0,1.0,phase_1,,,,,,,,,,,,,cyan,I
386.0,8.0,4.0,1.0,1.0,1.0,364.291202975437,2.0,1.0,phase_1,,,,,,,,,,,,,green,triangle
211.0,7.0,3.0,1.0,1.0,1.0,349.9772059731185,2.0,1.0,phase_1,,,,,,,,,,,,,orange,cross
100.0,2.0,2.0,0.0,4.0,4.0,450.6530771031976,2.0,1.0,phase_1,,,,,,,,,,,,,yellow,hexagon
391.0,8.0,4.0,1.0,1.0,1.0,369.5919390302151,2.0,1.0,phase_1,,,,,,,,,,,,,green,triangle
0.0,7.0,0.0,1.0,4.0,4.0,422.31483291834587,2.0,1.0,phase_1,,,,,,,,,,,,,orange,cross
95.0,6.0,2.0,1.0,1.0,1.0,368.6876529827714,2.0,1.0,phase_1,,,,,,,,,,,,,gray,circle
92.0,6.0,2.0,1.0,2.0,2.0,344.6736098267138,2.0,1.0,phase_1,,,,,,,,,,,,,gray,circle
76.0,2.0,2.0,0.0,2.0,2.0,405.4026422090828,2.0,1.0,phase_1,,,,,,,,,,,,,yellow,hexagon
97.0,2.0,2.0,0.0,4.0,4.0,369.2541180644184,2.0,1.0,phase_1,,,,,,,,,,,,,yellow,hexagon
119.0,2.0,2.0,0.0,3.0,3.0,315.5255930032581,2.0,1.0,phase_1,,,,,,,,,,,,,yellow,hexagon
213.0,7.0,3.0,1.0,1.0,1.0,314.6653180010617,2.0,1.0,phase_1,,,,,,,,,,,,,orange,cross
47.0,1.0,1.0,0.0,4.0,4.0,441.8085920624435,2.0,2.0,phase_1,,,,,,,,,,,,,white,diamond
0.0,7.0,0.0,1.0,2.0,2.0,319.9850099626928,2.0,1.0,phase_1,,,,,,,,,,,,,orange,cross
0.0,1.0,0.0,0.0,1.0,1.0,461.619502864778,2.0,1.0,phase_1,,,,,,,,,,,,,white,diamond
114.0,2.0,2.0,0.0,1.0,1.0,361.6043459624052,2.0,1.0,phase_1,,,,,,,,,,,,,yellow,hexagon
423.0,8.0,4.0,1.0,2.0,2.0,341.2470140028745,2.0,1.0,phase_1,,,,,,,,,,,,,green,triangle
0.0,8.0,0.0,1.0,3.0,3.0,369.0483849495649,2.0,1.0,phase_1,,,,,,,,,,,,,green,triangle
410.0,4.0,4.0,0.0,3.0,3.0,414.1995760146528,2.0,1.0,phase_1,,,,,,,,,,,,,magenta,square
205.0,3.0,3.0,0.0,2.0,2.0,413.9541459735483,2.0,1.0,phase_1,,,,,,,,,,,,,blue,flipped triangle
79.0,6.0,2.0,1.0,2.0,2.0,337.4442909844219,2.0,1.0,phase_1,,,,,,,,,,,,,gray,circle
124.0,6.0,2.0,1.0,2.0,2.0,341.4459191262722,2.0,1.0,phase_1,,,,,,,,,,,,,gray,circle
0.0,6.0,0.0,1.0,1.0,1.0,346.0309030488133,2.0,1.0,phase_1,,,,,,,,,,,,,gray,circle
97.0,2.0,2.0,0.0,2.0,2.0,376.8374829087406,2.0,1.0,phase_1,,,,,,,,,,,,,yellow,hexagon
0.0,6.0,0.0,1.0,1.0,1.0,381.2910360284149,2.0,1.0,phase_1,,,,,,,,,,,,,gray,circle
215.0,3.0,3.0,0.0,3.0,3.0,352.9486439656466,2.0,1.0,phase_1,,,,,,,,,,,,,blue,flipped triangle
61.0,1.0,1.0,0.0,2.0,2.0,437.7707780804485,2.0,1.0,phase_1,,,,,,,,,,,,,white,diamond
0.0,7.0,0.0,1.0,4.0,4.0,548.000565962866,2.0,1.0,phase_1,,,,,,,,,,,,,orange,cross
0.0,7.0,0.0,1.0,3.0,3.0,372.9370729997754,2.0,1.0,phase_1,,,,,,,,,,,,,orange,cross
97.0,6.0,2.0,1.0,1.0,1.0,482.7430818695575,2.0,1.0,phase_1,,,,,,,,,,,,,gray,circle
224.0,7.0,3.0,1.0,4.0,4.0,526.970244012773,2.0,1.0,phase_1,,,,,,,,,,,,,orange,cross
97.0,2.0,2.0,0.0,2.0,2.0,372.6551719009876,2.0,1.0,phase_1,,,,,,,,,,,,,yellow,hexagon
0.0,5.0,0.0,1.0,3.0,3.0,385.5134011246264,2.0,1.0,phase_1,,,,,,,,,,,,,cyan,I
221.0,3.0,3.0,0.0,3.0,3.0,399.6469799894839,2.0,1.0,phase_1,,,,,,,,,,,,,blue,flipped triangle
213.0,3.0,3.0,0.0,2.0,2.0,344.5985098369419,2.0,1.0,phase_1,,,,,,,,,,,,,blue,flipped triangle
119.0,6.0,2.0,1.0,3.0,3.0,357.3914568405598,2.0,1.0,phase_1,,,,,,,,,,,,,gray,circle
200.0,3.0,3.0,0.0,4.0,4.0,484.2656198889017,2.0,1.0,phase_1,,,,,,,,,,,,,blue,flipped triangle
0.0,6.0,0.0,1.0,1.0,1.0,568.5519718099385,2.0,1.0,phase_1,,,,,,,,,,,,,gray,circle
424.0,4.0,4.0,0.0,3.0,3.0,355.7013759855181,2.0,1.0,phase_1,,,,,,,,,,,,,magenta,square
42.0,5.0,1.0,1.0,2.0,2.0,339.7292529698461,2.0,1.0,phase_1,,,,,,,,,,,,,cyan,I
202.0,7.0,3.0,1.0,1.0,1.0,404.7324301209301,2.0,1.0,phase_1,,,,,,,,,,,,,orange,cross
0.0,3.0,0.0,0.0,4.0,4.0,516.2582348566502,2.0,1.0,phase_1,,,,,,,,,,,,,blue,flipped triangle
190.0,7.0,3.0,1.0,3.0,3.0,560.1015989668667,2.0,1.0,phase_1,,,,,,,,,,,,,orange,cross
0.0,8.0,0.0,1.0,1.0,1.0,381.065163994208,2.0,1.0,phase_1,,,,,,,,,,,,,green,triangle
403.0,4.0,4.0,0.0,1.0,1.0,359.4182778615504,2.0,1.0,phase_1,,,,,,,,,,,,,magenta,square
38.0,5.0,1.0,1.0,4.0,4.0,462.5308248214423,2.0,1.0,phase_1,,,,,,,,,,,,,cyan,I
122.0,6.0,2.0,1.0,4.0,4.0,467.034004162997,2.0,1.0,phase_1,,,,,,,,,,,,,gray,circle
49.0,1.0,1.0,0.0,1.0,1.0,312.3431280255317,2.0,1.0,phase_1,,,,,,,,,,,,,white,diamond
0.0,3.0,0.0,0.0,4.0,4.0,381.8163888063282,2.0,1.0,phase_1,,,,,,,,,,,,,blue,flipped triangle
211.0,3.0,3.0,0.0,1.0,1.0,303.6829819902777,2.0,1.0,phase_1,,,,,,,,,,,,,blue,flipped triangle
0.0,6.0,0.0,1.0,4.0,4.0,583.2600521389395,2.0,1.0,phase_1,,,,,,,,,,,,,gray,circle
387.0,4.0,4.0,0.0,3.0,3.0,337.1212119236588,2.0,1.0,phase_1,,,,,,,,,,,,,magenta,square
0.0,3.0,0.0,0.0,3.0,3.0,504.2791720479727,2.0,1.0,phase_1,,,,,,,,,,,,,blue,flipped triangle
0.0,4.0,0.0,0.0,3.0,3.0,356.0363368596881,2.0,1.0,phase_1,,,,,,,,,,,,,magenta,square
0.0,5.0,0.0,1.0,3.0,3.0,358.9191930368542,2.0,1.0,phase_1,,,,,,,,,,,,,cyan,I
189.0,7.0,3.0,1.0,3.0,3.0,379.1652231011539,2.0,1.0,phase_1,,,,,,,,,,,,,orange,cross
396.0,8.0,4.0,1.0,4.0,4.0,449.9054178595543,2.0,1.0,phase_1,,,,,,,,,,,,,green,triangle
80.0,6.0,2.0,1.0,1.0,1.0,503.7533810827881,2.0,1.0,phase_1,,,,,,,,,,,,,gray,circle
124.0,2.0,2.0,0.0,3.0,3.0,355.2157289814204,2.0,1.0,phase_1,,,,,,,,,,,,,yellow,hexagon
36.0,5.0,1.0,1.0,3.0,3.0,401.5655438415706,2.0,1.0,phase_1,,,,,,,,,,,,,cyan,I
210.0,3.0,3.0,0.0,1.0,1.0,397.3744770046323,2.0,1.0,phase_1,,,,,,,,,,,,,blue,flipped triangle
178.0,7.0,3.0,1.0,3.0,3.0,393.6477839015424,2.0,1.0,phase_1,,,,,,,,,,,,,orange,cross
44.0,5.0,1.0,1.0,2.0,2.0,340.1023468468338,2.0,1.0,phase_1,,,,,,,,,,,,,cyan,I
185.0,7.0,3.0,1.0,3.0,3.0,380.7905160356313,2.0,1.0,phase_1,,,,,,,,,,,,,orange,cross
61.0,5.0,1.0,1.0,3.0,3.0,373.2100289780646,2.0,1.0,phase_1,,,,,,,,,,,,,cyan,I
205.0,7.0,3.0,1.0,2.0,2.0,306.1543700750917,2.0,1.0,phase_1,,,,,,,,,,,,,orange,cross
223.0,3.0,3.0,0.0,2.0,2.0,335.3758689481765,2.0,1.0,phase_1,,,,,,,,,,,,,blue,flipped triangle
213.0,7.0,3.0,1.0,2.0,2.0,355.5101181846112,2.0,1.0,phase_1,,,,,,,,,,,,,orange,cross
186.0,7.0,3.0,1.0,3.0,3.0,355.6366220582276,2.0,1.0,phase_1,,,,,,,,,,,,,orange,cross
0.0,5.0,0.0,1.0,2.0,2.0,372.6850908715278,2.0,1.0,phase_1,,,,,,,,,,,,,cyan,I
124.0,2.0,2.0,0.0,1.0,1.0,339.5274931099266,2.0,1.0,phase_1,,,,,,,,,,,,,yellow,hexagon
73.0,5.0,1.0,1.0,2.0,2.0,328.6885109264403,2.0,1.0,phase_1,,,,,,,,,,,,,cyan,I
213.0,3.0,3.0,0.0,2.0,2.0,405.6846580933779,2.0,1.0,phase_1,,,,,,,,,,,,,blue,flipped triangle
67.0,5.0,1.0,1.0,3.0,3.0,360.5108419433236,2.0,1.0,phase_1,,,,,,,,,,,,,cyan,I
73.0,5.0,1.0,1.0,4.0,4.0,341.8302680365741,2.0,1.0,phase_1,,,,,,,,,,,,,cyan,I
73.0,1.0,1.0,0.0,1.0,1.0,388.0693530663848,2.0,1.0,phase_1,,,,,,,,,,,,,white,diamond
60.0,1.0,1.0,0.0,2.0,2.0,293.6917298939079,2.0,1.0,phase_1,,,,,,,,,,,,,white,diamond
186.0,3.0,3.0,0.0,3.0,3.0,338.4742238558829,2.0,1.0,phase_1,,,,,,,,,,,,,blue,flipped triangle
28.0,5.0,1.0,1.0,3.0,3.0,410.0318220444023,2.0,1.0,phase_1,,,,,,,,,,,,,cyan,I
0.0,1.0,0.0,0.0,3.0,3.0,293.8805059529841,2.0,1.0,phase_1,,,,,,,,,,,,,white,diamond
401.0,8.0,4.0,1.0,2.0,2.0,331.0498830396682,2.0,1.0,phase_1,,,,,,,,,,,,,green,triangle
222.0,3.0,3.0,0.0,2.0,2.0,404.6385718975216,2.0,2.0,phase_1,,,,,,,,,,,,,blue,flipped triangle
401.0,4.0,4.0,0.0,4.0,4.0,511.0368551686406,2.0,1.0,phase_1,,,,,,,,,,,,,magenta,square
380.0,8.0,4.0,1.0,2.0,2.0,310.7030638493597,2.0,1.0,phase_1,,,,,,,,,,,,,green,triangle
405.0,4.0,4.0,0.0,4.0,4.0,402.0189051516354,2.0,1.0,phase_1,,,,,,,,,,,,,magenta,square
0.0,4.0,0.0,0.0,4.0,4.0,405.5784000083804,2.0,1.0,phase_1,,,,,,,,,,,,,magenta,square
218.0,7.0,3.0,1.0,2.0,2.0,298.9181608427316,2.0,1.0,phase_1,,,,,,,,,,,,,orange,cross
29.0,1.0,1.0,0.0,4.0,4.0,361.81960813701147,2.0,1.0,phase_1,,,,,,,,,,,,,white,diamond
179.0,3.0,3.0,0.0,4.0,4.0,389.0439060050994,2.0,1.0,phase_1,,,,,,,,,,,,,blue,flipped triangle
382.0,4.0,4.0,0.0,3.0,3.0,339.3224119208753,3.0,1.0,phase_1,,,,,,,,,,,,,magenta,square
28.0,1.0,1.0,0.0,2.0,2.0,310.8429678250104,3.0,1.0,phase_1,,,,,,,,,,,,,white,diamond
416.0,4.0,4.0,0.0,1.0,1.0,332.3805890977382,3.0,1.0,phase_1,,,,,,,,,,,,,magenta,square
378.0,4.0,4.0,0.0,1.0,1.0,332.5324179604649,3.0,1.0,phase_1,,,,,,,,,,,,,magenta,square
100.0,6.0,2.0,1.0,1.0,1.0,396.7384360730648,3.0,1.0,phase_1,,,,,,,,,,,,,gray,circle
0.0,1.0,0.0,0.0,4.0,4.0,314.4120040815323,3.0,1.0,phase_1,,,,,,,,,,,,,white,diamond
380.0,4.0,4.0,0.0,4.0,4.0,318.5947220772505,3.0,1.0,phase_1,,,,,,,,,,,,,magenta,square
0.0,4.0,0.0,0.0,1.0,1.0,339.0268969815224,3.0,1.0,phase_1,,,,,,,,,,,,,magenta,square
97.0,6.0,2.0,1.0,2.0,2.0,418.2588569819927,3.0,1.0,phase_1,,,,,,,,,,,,,gray,circle
99.0,2.0,2.0,0.0,2.0,2.0,340.2587929740548,3.0,1.0,phase_1,,,,,,,,,,,,,yellow,hexagon
189.0,3.0,3.0,0.0,4.0,4.0,347.711332142353,3.0,1.0,phase_1,,,,,,,,,,,,,blue,flipped triangle
121.0,6.0,2.0,1.0,4.0,4.0,574.2349522188306,3.0,1.0,phase_1,,,,,,,,,,,,,gray,circle
88.0,2.0,2.0,0.0,1.0,1.0,357.9778000712394,3.0,1.0,phase_1,,,,,,,,,,,,,yellow,hexagon
397.0,4.0,4.0,0.0,1.0,1.0,335.8324379660189,3.0,1.0,phase_1,,,,,,,,,,,,,magenta,square
392.0,8.0,4.0,1.0,4.0,4.0,381.829418009147,3.0,1.0,phase_1,,,,,,,,,,,,,green,triangle
70.0,1.0,1.0,0.0,1.0,1.0,411.1916339024901,3.0,1.0,phase_1,,,,,,,,,,,,,white,diamond
79.0,2.0,2.0,0.0,4.0,4.0,379.9255490303039,3.0,2.0,phase_1,,,,,,,,,,,,,yellow,hexagon
51.0,1.0,1.0,0.0,3.0,3.0,426.2091228738427,3.0,1.0,phase_1,,,,,,,,,,,,,white,diamond
0.0,2.0,0.0,0.0,1.0,1.0,347.3486939910799,3.0,1.0,phase_1,,,,,,,,,,,,,yellow,hexagon
76.0,6.0,2.0,1.0,3.0,3.0,376.6048890538513,3.0,1.0,phase_1,,,,,,,,,,,,,gray,circle
53.0,1.0,1.0,0.0,4.0,4.0,388.8534079305827,3.0,1.0,phase_1,,,,,,,,,,,,,white,diamond
0.0,8.0,0.0,1.0,1.0,1.0,348.474838072434,3.0,1.0,phase_1,,,,,,,,,,,,,green,triangle
402.0,4.0,4.0,0.0,4.0,4.0,410.2818809915334,3.0,1.0,phase_1,,,,,,,,,,,,,magenta,square
125.0,6.0,2.0,1.0,4.0,4.0,427.2108220029622,3.0,1.0,phase_1,,,,,,,,,,,,,gray,circle
51.0,5.0,1.0,1.0,4.0,4.0,394.4215551018715,3.0,1.0,phase_1,,,,,,,,,,,,,cyan,I
176.0,3.0,3.0,0.0,1.0,1.0,340.9228390082717,3.0,1.0,phase_1,,,,,,,,,,,,,blue,flipped triangle
90.0,2.0,2.0,0.0,4.0,4.0,409.6154340077191,3.0,1.0,phase_1,,,,,,,,,,,,,yellow,hexagon
56.0,5.0,1.0,1.0,1.0,1.0,462.9918329883367,3.0,1.0,phase_1,,,,,,,,,,,,,cyan,I
423.0,4.0,4.0,0.0,2.0,2.0,404.5035950839519,3.0,1.0,phase_1,,,,,,,,,,,,,magenta,square
416.0,8.0,4.0,1.0,2.0,2.0,528.6628070753068,3.0,1.0,phase_1,,,,,,,,,,,,,green,triangle
80.0,2.0,2.0,0.0,3.0,3.0,356.199684087187,3.0,1.0,phase_1,,,,,,,,,,,,,yellow,hexagon
418.0,4.0,4.0,0.0,1.0,1.0,340.3844870626926,3.0,1.0,phase_1,,,,,,,,,,,,,magenta,square
182.0,3.0,3.0,0.0,1.0,1.0,413.5084338486194,3.0,1.0,phase_1,,,,,,,,,,,,,blue,flipped triangle
53.0,5.0,1.0,1.0,3.0,3.0,314.5576980896294,3.0,1.0,phase_1,,,,,,,,,,,,,cyan,I
0.0,4.0,0.0,0.0,2.0,2.0,336.8505979888141,3.0,1.0,phase_1,,,,,,,,,,,,,magenta,square
425.0,8.0,4.0,1.0,1.0,1.0,348.9838859532028,3.0,1.0,phase_1,,,,,,,,,,,,,green,triangle
92.0,2.0,2.0,0.0,2.0,2.0,303.2001790124923,3.0,1.0,phase_1,,,,,,,,,,,,,yellow,hexagon
0.0,8.0,0.0,1.0,1.0,1.0,364.5252790302038,3.0,1.0,phase_1,,,,,,,,,,,,,green,triangle
0.0,4.0,0.0,0.0,3.0,3.0,340.0603728368878,3.0,1.0,phase_1,,,,,,,,,,,,,magenta,square
191.0,7.0,3.0,1.0,1.0,1.0,327.6597710791975,3.0,1.0,phase_1,,,,,,,,,,,,,orange,cross
424.0,8.0,4.0,1.0,3.0,3.0,385.5868298560381,3.0,2.0,phase_1,,,,,,,,,,,,,green,triangle
61.0,1.0,1.0,0.0,2.0,2.0,303.482191869989,3.0,1.0,phase_1,,,,,,,,,,,,,white,diamond
0.0,1.0,0.0,0.0,3.0,3.0,344.5180850103497,3.0,1.0,phase_1,,,,,,,,,,,,,white,diamond
200.0,3.0,3.0,0.0,4.0,4.0,470.7795139402151,3.0,1.0,phase_1,,,,,,,,,,,,,blue,flipped triangle
399.0,4.0,4.0,0.0,2.0,2.0,353.3288459293544,3.0,1.0,phase_1,,,,,,,,,,,,,magenta,square
0.0,2.0,0.0,0.0,2.0,2.0,319.6915669832378,3.0,1.0,phase_1,,,,,,,,,,,,,yellow,hexagon
418.0,8.0,4.0,1.0,4.0,4.0,467.1668710652739,3.0,2.0,phase_1,,,,,,,,,,,,,green,triangle
209.0,7.0,3.0,1.0,2.0,2.0,318.3529321104288,3.0,1.0,phase_1,,,,,,,,,,,,,orange,cross
37.0,1.0,1.0,0.0,1.0,1.0,418.2205959223211,3.0,1.0,phase_1,,,,,,,,,,,,,white,diamond
190.0,3.0,3.0,0.0,4.0,4.0,401.0933970566839,3.0,1.0,phase_1,,,,,,,,,,,,,blue,flipped triangle
175.0,7.0,3.0,1.0,1.0,1.0,380.3829469252378,3.0,1.0,phase_1,,,,,,,,,,,,,orange,cross
401.0,8.0,4.0,1.0,4.0,4.0,409.3687462154776,3.0,1.0,phase_1,,,,,,,,,,,,,green,triangle
25.0,5.0,1.0,1.0,3.0,3.0,448.0454130098223,3.0,1.0,phase_1,,,,,,,,,,,,,cyan,I
38.0,1.0,1.0,0.0,3.0,3.0,330.5936858523637,3.0,1.0,phase_1,,,,,,,,,,,,,white,diamond
192.0,3.0,3.0,0.0,1.0,1.0,334.39366100355977,3.0,1.0,phase_1,,,,,,,,,,,,,blue,flipped triangle
47.0,5.0,1.0,1.0,2.0,2.0,372.6676309015602,3.0,1.0,phase_1,,,,,,,,,,,,,cyan,I
90.0,2.0,2.0,0.0,2.0,2.0,279.0481380652636,3.0,1.0,phase_1,,,,,,,,,,,,,yellow,hexagon
47.0,5.0,1.0,1.0,4.0,4.0,519.3256309721619,3.0,1.0,phase_1,,,,,,,,,,,,,cyan,I
33.0,1.0,1.0,0.0,2.0,2.0,339.9901730008423,3.0,1.0,phase_1,,,,,,,,,,,,,white,diamond
407.0,8.0,4.0,1.0,4.0,4.0,367.9261801298708,3.0,1.0,phase_1,,,,,,,,,,,,,green,triangle
107.0,6.0,2.0,1.0,2.0,2.0,996.1141590029,3.0,1.0,phase_1,,,,,,,,,,,,,gray,circle
83.0,6.0,2.0,1.0,3.0,3.0,352.0742270629853,3.0,1.0,phase_1,,,,,,,,,,,,,gray,circle
410.0,8.0,4.0,1.0,2.0,2.0,278.5157659091055,3.0,1.0,phase_1,,,,,,,,,,,,,green,triangle
0.0,4.0,0.0,0.0,3.0,3.0,344.8826409876346,3.0,1.0,phase_1,,,,,,,,,,,,,magenta,square
28.0,5.0,1.0,1.0,2.0,2.0,366.3897619117051,3.0,1.0,phase_1,,,,,,,,,,,,,cyan,I
405.0,8.0,4.0,1.0,3.0,3.0,308.941104914993,3.0,1.0,phase_1,,,,,,,,,,,,,green,triangle
222.0,7.0,3.0,1.0,2.0,2.0,343.5022179037332,3.0,1.0,phase_1,,,,,,,,,,,,,orange,cross
389.0,4.0,4.0,0.0,3.0,3.0,315.3311528731137,3.0,1.0,phase_1,,,,,,,,,,,,,magenta,square
70.0,5.0,1.0,1.0,2.0,2.0,310.5554520152509,3.0,1.0,phase_1,,,,,,,,,,,,,cyan,I
389.0,8.0,4.0,1.0,2.0,2.0,379.634051118046,3.0,1.0,phase_1,,,,,,,,,,,,,green,triangle
0.0,7.0,0.0,1.0,2.0,2.0,344.6691869758069,3.0,1.0,phase_1,,,,,,,,,,,,,orange,cross
0.0,2.0,0.0,0.0,4.0,4.0,332.9211918171495,3.0,2.0,phase_1,,,,,,,,,,,,,yellow,hexagon
92.0,2.0,2.0,0.0,1.0,1.0,375.1835990697145,3.0,1.0,phase_1,,,,,,,,,,,,,yellow,hexagon
386.0,8.0,4.0,1.0,3.0,3.0,333.7902999483049,3.0,1.0,phase_1,,,,,,,,,,,,,green,triangle
210.0,7.0,3.0,1.0,1.0,1.0,568.5170399956405,3.0,1.0,phase_1,,,,,,,,,,,,,orange,cross
90.0,6.0,2.0,1.0,3.0,3.0,405.0505158957094,3.0,1.0,phase_1,,,,,,,,,,,,,gray,circle
402.0,4.0,4.0,0.0,2.0,2.0,388.7024789582938,3.0,1.0,phase_1,,,,,,,,,,,,,magenta,square
205.0,7.0,3.0,1.0,4.0,4.0,639.5306859631091,3.0,1.0,phase_1,,,,,,,,,,,,,orange,cross
386.0,4.0,4.0,0.0,3.0,3.0,397.493242053315,3.0,1.0,phase_1,,,,,,,,,,,,,magenta,square
119.0,2.0,2.0,0.0,3.0,3.0,400.4590918775648,3.0,1.0,phase_1,,,,,,,,,,,,,yellow,hexagon
0.0,6.0,0.0,1.0,2.0,2.0,499.9751020222902,3.0,1.0,phase_1,,,,,,,,,,,,,gray,circle
187.0,3.0,3.0,0.0,2.0,2.0,547.468438046053,3.0,1.0,phase_1,,,,,,,,,,,,,blue,flipped triangle
0.0,8.0,0.0,1.0,4.0,4.0,535.9851368702948,3.0,1.0,phase_1,,,,,,,,,,,,,green,triangle
76.0,6.0,2.0,1.0,2.0,2.0,379.0734850335866,3.0,1.0,phase_1,,,,,,,,,,,,,gray,circle
398.0,8.0,4.0,1.0,3.0,3.0,351.2320190202445,3.0,1.0,phase_1,,,,,,,,,,,,,green,triangle
219.0,7.0,3.0,1.0,4.0,4.0,461.6952037904411,3.0,1.0,phase_1,,,,,,,,,,,,,orange,cross
421.0,8.0,4.0,1.0,2.0,2.0,879.8729099798948,3.0,1.0,phase_1,,,,,,,,,,,,,green,triangle
60.0,5.0,1.0,1.0,2.0,2.0,344.4126879330724,3.0,1.0,phase_1,,,,,,,,,,,,,cyan,I
192.0,3.0,3.0,0.0,2.0,2.0,321.5454139281064,3.0,1.0,phase_1,,,,,,,,,,,,,blue,flipped triangle
402.0,8.0,4.0,1.0,1.0,1.0,432.7162341214716,3.0,1.0,phase_1,,,,,,,,,,,,,green,triangle
216.0,7.0,3.0,1.0,4.0,4.0,380.7635370176285,3.0,1.0,phase_1,,,,,,,,,,,,,orange,cross
0.0,5.0,0.0,1.0,3.0,3.0,376.3682020362466,3.0,1.0,phase_1,,,,,,,,,,,,,cyan,I
0.0,5.0,0.0,1.0,4.0,4.0,384.888906031847,3.0,2.0,phase_1,,,,,,,,,,,,,cyan,I
378.0,8.0,4.0,1.0,3.0,3.0,375.891043106094,3.0,1.0,phase_1,,,,,,,,,,,,,green,triangle
72.0,5.0,1.0,1.0,4.0,4.0,395.8826579619199,3.0,1.0,phase_1,,,,,,,,,,,,,cyan,I
176.0,7.0,3.0,1.0,3.0,3.0,391.1925100255757,3.0,1.0,phase_1,,,,,,,,,,,,,orange,cross
386.0,4.0,4.0,0.0,3.0,3.0,367.8623689338565,3.0,1.0,phase_1,,,,,,,,,,,,,magenta,square
102.0,6.0,2.0,1.0,1.0,1.0,353.1283389311284,3.0,1.0,phase_1,,,,,,,,,,,,,gray,circle
47.0,1.0,1.0,0.0,1.0,1.0,508.63395514898,3.0,1.0,phase_1,,,,,,,,,,,,,white,diamond
408.0,8.0,4.0,1.0,2.0,2.0,393.2806879747659,3.0,2.0,phase_1,,,,,,,,,,,,,green,triangle
0.0,4.0,0.0,0.0,4.0,4.0,347.2562471870333,4.0,1.0,phase_1,,,,,,,,,,,,,magenta,square
60.0,5.0,1.0,1.0,1.0,1.0,329.0968458168208,4.0,1.0,phase_1,,,,,,,,,,,,,cyan,I
0.0,2.0,0.0,0.0,3.0,3.0,302.5862979702651,4.0,1.0,phase_1,,,,,,,,,,,,,yellow,hexagon
424.0,4.0,4.0,0.0,4.0,4.0,337.9944399930537,4.0,1.0,phase_1,,,,,,,,,,,,,magenta,square
61.0,5.0,1.0,1.0,2.0,2.0,285.9964650124311,4.0,1.0,phase_1,,,,,,,,,,,,,cyan,I
378.0,8.0,4.0,1.0,1.0,1.0,290.9799821209162,4.0,1.0,phase_1,,,,,,,,,,,,,green,triangle
121.0,2.0,2.0,0.0,3.0,3.0,298.8528641872108,4.0,1.0,phase_1,,,,,,,,,,,,,yellow,hexagon
84.0,6.0,2.0,1.0,2.0,2.0,543.8301849644631,4.0,1.0,phase_1,,,,,,,,,,,,,gray,circle
391.0,4.0,4.0,0.0,2.0,2.0,306.0250030830502,4.0,1.0,phase_1,,,,,,,,,,,,,magenta,square
37.0,1.0,1.0,0.0,1.0,1.0,319.3681901320815,4.0,1.0,phase_1,,,,,,,,,,,,,white,diamond
59.0,5.0,1.0,1.0,3.0,3.0,323.0031309649348,4.0,1.0,phase_1,,,,,,,,,,,,,cyan,I
0.0,8.0,0.0,1.0,4.0,4.0,544.4372990168631,4.0,1.0,phase_1,,,,,,,,,,,,,green,triangle
92.0,6.0,2.0,1.0,3.0,3.0,468.8624278642237,4.0,1.0,phase_1,,,,,,,,,,,,,gray,circle
72.0,1.0,1.0,0.0,1.0,1.0,424.2231750395149,4.0,1.0,phase_1,,,,,,,,,,,,,white,diamond
402.0,8.0,4.0,1.0,1.0,1.0,335.4554788675159,4.0,1.0,phase_1,,,,,,,,,,,,,green,triangle
0.0,6.0,0.0,1.0,2.0,2.0,305.8012179099023,4.0,1.0,phase_1,,,,,,,,,,,,,gray,circle
86.0,2.0,2.0,0.0,1.0,1.0,376.8383241258561,4.0,1.0,phase_1,,,,,,,,,,,,,yellow,hexagon
399.0,8.0,4.0,1.0,2.0,2.0,515.5141209252179,4.0,1.0,phase_1,,,,,,,,,,,,,green,triangle
0.0,3.0,0.0,0.0,4.0,4.0,511.59307709895074,4.0,1.0,phase_1,,,,,,,,,,,,,blue,flipped triangle
88.0,6.0,2.0,1.0,3.0,3.0,336.2619609106332,4.0,1.0,phase_1,,,,,,,,,,,,,gray,circle
0.0,7.0,0.0,1.0,2.0,2.0,288.8365720864385,4.0,1.0,phase_1,,,,,,,,,,,,,orange,cross
0.0,2.0,0.0,0.0,1.0,1.0,310.3185810614377,4.0,1.0,phase_1,,,,,,,,,,,,,yellow,hexagon
0.0,3.0,0.0,0.0,1.0,1.0,290.5994700267911,4.0,1.0,phase_1,,,,,,,,,,,,,blue,flipped triangle
68.0,1.0,1.0,0.0,4.0,4.0,423.6775150056928,4.0,1.0,phase_1,,,,,,,,,,,,,white,diamond
60.0,1.0,1.0,0.0,3.0,3.0,342.7405171096325,4.0,1.0,phase_1,,,,,,,,,,,,,white,diamond
28.0,1.0,1.0,0.0,2.0,2.0,312.0528331492096,4.0,1.0,phase_1,,,,,,,,,,,,,white,diamond
408.0,4.0,4.0,0.0,1.0,1.0,381.1943610198796,4.0,1.0,phase_1,,,,,,,,,,,,,magenta,square
0.0,8.0,0.0,1.0,4.0,4.0,331.5943800844252,4.0,1.0,phase_1,,,,,,,,,,,,,green,triangle
184.0,3.0,3.0,0.0,3.0,3.0,353.6664079874754,4.0,1.0,phase_1,,,,,,,,,,,,,blue,flipped triangle
0.0,2.0,0.0,0.0,1.0,1.0,365.2572380378842,4.0,1.0,phase_1,,,,,,,,,,,,,yellow,hexagon
99.0,2.0,2.0,0.0,4.0,4.0,362.6973258797079,4.0,1.0,phase_1,,,,,,,,,,,,,yellow,hexagon
392.0,4.0,4.0,0.0,1.0,1.0,380.3133999463171,4.0,1.0,phase_1,,,,,,,,,,,,,magenta,square
99.0,6.0,2.0,1.0,4.0,4.0,490.0235428940505,4.0,1.0,phase_1,,,,,,,,,,,,,gray,circle
29.0,5.0,1.0,1.0,4.0,4.0,417.8463181015104,4.0,1.0,phase_1,,,,,,,,,,,,,cyan,I
73.0,1.0,1.0,0.0,3.0,3.0,412.8786739893257,4.0,1.0,phase_1,,,,,,,,,,,,,white,diamond
179.0,7.0,3.0,1.0,3.0,3.0,335.3999499231577,4.0,1.0,phase_1,,,,,,,,,,,,,orange,cross
0.0,5.0,0.0,1.0,2.0,2.0,327.5145820807665,4.0,1.0,phase_1,,,,,,,,,,,,,cyan,I
60.0,5.0,1.0,1.0,1.0,1.0,323.1209241785109,4.0,1.0,phase_1,,,,,,,,,,,,,cyan,I
76.0,2.0,2.0,0.0,2.0,2.0,360.2616540156305,4.0,1.0,phase_1,,,,,,,,,,,,,yellow,hexagon
42.0,5.0,1.0,1.0,1.0,1.0,372.5423619616776,4.0,1.0,phase_1,,,,,,,,,,,,,cyan,I
76.0,6.0,2.0,1.0,1.0,1.0,312.1218690648675,4.0,1.0,phase_1,,,,,,,,,,,,,gray,circle
202.0,3.0,3.0,0.0,3.0,3.0,382.9696299508214,4.0,1.0,phase_1,,,,,,,,,,,,,blue,flipped triangle
0.0,7.0,0.0,1.0,4.0,4.0,416.7730640619993,4.0,1.0,phase_1,,,,,,,,,,,,,orange,cross
0.0,5.0,0.0,1.0,3.0,3.0,360.9567729290575,4.0,1.0,phase_1,,,,,,,,,,,,,cyan,I
42.0,1.0,1.0,0.0,4.0,4.0,475.644608028233,4.0,1.0,phase_1,,,,,,,,,,,,,white,diamond
0.0,5.0,0.0,1.0,2.0,2.0,429.9051270354539,4.0,1.0,phase_1,,,,,,,,,,,,,cyan,I
190.0,7.0,3.0,1.0,3.0,3.0,331.6123650874942,4.0,1.0,phase_1,,,,,,,,,,,,,orange,cross
401.0,4.0,4.0,0.0,2.0,2.0,321.4093670248985,4.0,1.0,phase_1,,,,,,,,,,,,,magenta,square
47.0,5.0,1.0,1.0,4.0,4.0,532.3298699222505,4.0,1.0,phase_1,,,,,,,,,,,,,cyan,I
221.0,7.0,3.0,1.0,4.0,4.0,474.6490630786866,4.0,1.0,phase_1,,,,,,,,,,,,,orange,cross
113.0,2.0,2.0,0.0,4.0,4.0,461.6106420289725,4.0,1.0,phase_1,,,,,,,,,,,,,yellow,hexagon
56.0,1.0,1.0,0.0,2.0,2.0,453.3661177847534,4.0,1.0,phase_1,,,,,,,,,,,,,white,diamond
425.0,4.0,4.0,0.0,2.0,2.0,384.6081921365112,4.0,1.0,phase_1,,,,,,,,,,,,,magenta,square
224.0,3.0,3.0,0.0,4.0,4.0,403.903640108183,4.0,1.0,phase_1,,,,,,,,,,,,,blue,flipped triangle
380.0,4.0,4.0,0.0,2.0,2.0,331.1003830749541,4.0,1.0,phase_1,,,,,,,,,,,,,magenta,square
401.0,8.0,4.0,1.0,2.0,2.0,317.8678310941905,4.0,1.0,phase_1,,,,,,,,,,,,,green,triangle
0.0,7.0,0.0,1.0,3.0,3.0,398.1011731084436,4.0,1.0,phase_1,,,,,,,,,,,,,orange,cross
210.0,3.0,3.0,0.0,2.0,2.0,375.5508118774742,4.0,1.0,phase_1,,,,,,,,,,,,,blue,flipped triangle
0.0,4.0,0.0,0.0,2.0,2.0,331.3748128712177,4.0,1.0,phase_1,,,,,,,,,,,,,magenta,square
0.0,8.0,0.0,1.0,4.0,4.0,400.8706000167876,4.0,1.0,phase_1,,,,,,,,,,,,,green,triangle
92.0,2.0,2.0,0.0,2.0,2.0,428.2217598520219,4.0,1.0,phase_1,,,,,,,,,,,,,yellow,hexagon
200.0,7.0,3.0,1.0,2.0,2.0,281.6042827907949,4.0,1.0,phase_1,,,,,,,,,,,,,orange,cross
219.0,3.0,3.0,0.0,1.0,1.0,345.9307441953569,4.0,1.0,phase_1,,,,,,,,,,,,,blue,flipped triangle
379.0,8.0,4.0,1.0,4.0,4.0,450.4226921126246,4.0,1.0,phase_1,,,,,,,,,,,,,green,triangle
425.0,8.0,4.0,1.0,1.0,1.0,319.327310891822,4.0,1.0,phase_1,,,,,,,,,,,,,green,triangle
53.0,1.0,1.0,0.0,1.0,1.0,316.8726391158998,4.0,1.0,phase_1,,,,,,,,,,,,,white,diamond
89.0,2.0,2.0,0.0,4.0,4.0,425.7021490484476,4.0,1.0,phase_1,,,,,,,,,,,,,yellow,hexagon
125.0,2.0,2.0,0.0,3.0,3.0,357.9916171729564,4.0,1.0,phase_1,,,,,,,,,,,,,yellow,hexagon
113.0,6.0,2.0,1.0,1.0,1.0,449.8837608844042,4.0,1.0,phase_1,,,,,,,,,,,,,gray,circle
223.0,7.0,3.0,1.0,2.0,2.0,328.013694146648,4.0,1.0,phase_1,,,,,,,,,,,,,orange,cross
0.0,6.0,0.0,1.0,3.0,3.0,358.0340479966253,4.0,1.0,phase_1,,,,,,,,,,,,,gray,circle
380.0,8.0,4.0,1.0,1.0,1.0,376.8244490493089,4.0,1.0,phase_1,,,,,,,,,,,,,green,triangle
106.0,6.0,2.0,1.0,3.0,3.0,429.5305260457098,4.0,1.0,phase_1,,,,,,,,,,,,,gray,circle
396.0,4.0,4.0,0.0,4.0,4.0,332.2408278472721,4.0,1.0,phase_1,,,,,,,,,,,,,magenta,square
51.0,1.0,1.0,0.0,2.0,2.0,334.639874054119,4.0,1.0,phase_1,,,,,,,,,,,,,white,diamond
391.0,4.0,4.0,0.0,2.0,2.0,372.7495318744331,4.0,1.0,phase_1,,,,,,,,,,,,,magenta,square
124.0,6.0,2.0,1.0,1.0,1.0,346.1738959886133,4.0,1.0,phase_1,,,,,,,,,,,,,gray,circle
0.0,1.0,0.0,0.0,4.0,4.0,396.3643340393901,4.0,1.0,phase_1,,,,,,,,,,,,,white,diamond
89.0,6.0,2.0,1.0,3.0,3.0,386.0101657919585,4.0,1.0,phase_1,,,,,,,,,,,,,gray,circle
196.0,3.0,3.0,0.0,1.0,1.0,414.0073808375746,4.0,1.0,phase_1,,,,,,,,,,,,,blue,flipped triangle
47.0,1.0,1.0,0.0,4.0,4.0,490.4644310008734,4.0,1.0,phase_1,,,,,,,,,,,,,white,diamond
210.0,3.0,3.0,0.0,3.0,3.0,456.819447921589,4.0,1.0,phase_1,,,,,,,,,,,,,blue,flipped triangle
376.0,4.0,4.0,0.0,4.0,4.0,364.4689100328833,4.0,1.0,phase_1,,,,,,,,,,,,,magenta,square
416.0,8.0,4.0,1.0,3.0,3.0,458.6657551117241,4.0,1.0,phase_1,,,,,,,,,,,,,green,triangle
97.0,2.0,2.0,0.0,1.0,1.0,344.0479889977723,4.0,1.0,phase_1,,,,,,,,,,,,,yellow,hexagon
125.0,2.0,2.0,0.0,1.0,1.0,361.2695902120322,4.0,1.0,phase_1,,,,,,,,,,,,,yellow,hexagon
0.0,5.0,0.0,1.0,2.0,2.0,361.1720139160752,4.0,1.0,phase_1,,,,,,,,,,,,,cyan,I
215.0,3.0,3.0,0.0,3.0,3.0,307.5365039985627,4.0,1.0,phase_1,,,,,,,,,,,,,blue,flipped triangle
29.0,5.0,1.0,1.0,1.0,1.0,361.5521681495011,4.0,1.0,phase_1,,,,,,,,,,,,,cyan,I
49.0,5.0,1.0,1.0,1.0,1.0,397.1829421352595,4.0,1.0,phase_1,,,,,,,,,,,,,cyan,I
0.0,2.0,0.0,0.0,1.0,1.0,408.7753961794078,4.0,1.0,phase_1,,,,,,,,,,,,,yellow,hexagon
67.0,1.0,1.0,0.0,3.0,3.0,431.652789004147,4.0,1.0,phase_1,,,,,,,,,,,,,white,diamond
397.0,8.0,4.0,1.0,4.0,4.0,628.7431421224028,4.0,1.0,phase_1,,,,,,,,,,,,,green,triangle
190.0,3.0,3.0,0.0,4.0,4.0,415.1139638852328,4.0,1.0,phase_1,,,,,,,,,,,,,blue,flipped triangle
192.0,7.0,3.0,1.0,3.0,3.0,339.772358071059,4.0,1.0,phase_1,,,,,,,,,,,,,orange,cross
389.0,4.0,4.0,0.0,2.0,2.0,412.183023057878,4.0,1.0,phase_1,,,,,,,,,,,,,magenta,square
56.0,1.0,1.0,0.0,3.0,3.0,333.6371059995144,4.0,1.0,phase_1,,,,,,,,,,,,,white,diamond
175.0,3.0,3.0,0.0,3.0,3.0,404.2201759293675,4.0,1.0,phase_1,,,,,,,,,,,,,blue,flipped triangle
197.0,7.0,3.0,1.0,1.0,1.0,424.5812869630754,4.0,1.0,phase_1,,,,,,,,,,,,,orange,cross
60.0,1.0,1.0,0.0,4.0,4.0,374.7340799309313,4.0,1.0,phase_1,,,,,,,,,,,,,white,diamond
0.0,1.0,1.0,0.0,5.0,5.0,328.4488189965486,1.0,1.0,phase_2,go,250.0,250.0,1.0,,,,,,,,,white,diamond
0.0,5.0,1.0,1.0,5.0,5.0,508.96692904643714,1.0,1.0,phase_2,stop,250.0,250.0,3.0,,,,,,,,,cyan,I
0.0,7.0,3.0,1.0,5.0,5.0,688.9775530435145,1.0,1.0,phase_2,go,200.0,250.0,1.0,,,,,,,,,orange,cross
0.0,5.0,1.0,1.0,5.0,0.0,0.0,1.0,1.0,phase_2,stop,200.0,250.0,4.0,,,,,,,,,cyan,I
0.0,4.0,4.0,0.0,6.0,6.0,536.188550060615,1.0,1.0,phase_2,go,250.0,250.0,1.0,,,,,,,,,magenta,square
0.0,4.0,4.0,0.0,6.0,6.0,669.7849391493946,1.0,1.0,phase_2,go,250.0,250.0,1.0,,,,,,,,,magenta,square
0.0,8.0,4.0,1.0,6.0,0.0,0.0,1.0,1.0,phase_2,stop,250.0,250.0,4.0,,,,,,,,,green,triangle
0.0,1.0,1.0,0.0,6.0,6.0,295.5249859951436,1.0,1.0,phase_2,go,250.0,300.0,1.0,,,,,,,,,white,diamond
0.0,5.0,1.0,1.0,5.0,0.0,0.0,1.0,1.0,phase_2,stop,250.0,300.0,4.0,,,,,,,,,cyan,I
0.0,8.0,4.0,1.0,5.0,0.0,0.0,1.0,1.0,phase_2,stop,300.0,300.0,4.0,,,,,,,,,green,triangle
0.0,3.0,3.0,0.0,5.0,5.0,634.3096808996052,1.0,1.0,phase_2,go,350.0,300.0,1.0,,,,,,,,,blue,flipped triangle
0.0,7.0,3.0,1.0,5.0,0.0,0.0,1.0,1.0,phase_2,stop,350.0,300.0,4.0,,,,,,,,,orange,cross
0.0,3.0,3.0,0.0,5.0,5.0,856.6246200352907,1.0,1.0,phase_2,go,400.0,300.0,1.0,,,,,,,,,blue,flipped triangle
0.0,8.0,4.0,1.0,5.0,0.0,0.0,1.0,1.0,phase_2,stop,400.0,300.0,4.0,,,,,,,,,green,triangle
0.0,5.0,1.0,1.0,6.0,0.0,0.0,1.0,1.0,phase_2,stop,450.0,300.0,4.0,,,,,,,,,cyan,I
0.0,5.0,1.0,1.0,5.0,5.0,706.5614480525255,1.0,1.0,phase_2,go,450.0,350.0,1.0,,,,,,,,,cyan,I
0.0,5.0,1.0,1.0,6.0,0.0,0.0,1.0,1.0,phase_2,stop,450.0,350.0,4.0,,,,,,,,,cyan,I
0.0,6.0,2.0,1.0,6.0,6.0,597.8691619820893,1.0,1.0,phase_2,go,450.0,400.0,1.0,,,,,,,,,gray,circle
0.0,4.0,4.0,0.0,5.0,5.0,645.7436268683523,1.0,1.0,phase_2,go,450.0,400.0,1.0,,,,,,,,,magenta,square
0.0,6.0,2.0,1.0,6.0,0.0,0.0,1.0,1.0,phase_2,stop,450.0,400.0,4.0,,,,,,,,,gray,circle
0.0,5.0,1.0,1.0,6.0,6.0,822.7192300837487,1.0,1.0,phase_2,go,450.0,450.0,1.0,,,,,,,,,cyan,I
0.0,1.0,1.0,0.0,5.0,5.0,599.1016868501902,1.0,1.0,phase_2,go,450.0,450.0,1.0,,,,,,,,,white,diamond
0.0,8.0,4.0,1.0,6.0,0.0,0.0,1.0,1.0,phase_2,stop,450.0,450.0,4.0,,,,,,,,,green,triangle
0.0,2.0,2.0,0.0,6.0,6.0,1045.0494659598917,1.0,1.0,phase_2,go,450.0,500.0,1.0,,,,,,,,,yellow,hexagon
0.0,7.0,3.0,1.0,6.0,0.0,0.0,1.0,1.0,phase_2,stop,450.0,500.0,4.0,,,,,,,,,orange,cross
0.0,1.0,1.0,0.0,6.0,6.0,747.7587000466883,1.0,1.0,phase_2,go,450.0,550.0,1.0,,,,,,,,,white,diamond
0.0,6.0,2.0,1.0,5.0,0.0,0.0,1.0,1.0,phase_2,stop,450.0,550.0,4.0,,,,,,,,,gray,circle
0.0,5.0,1.0,1.0,6.0,6.0,835.4765940457582,1.0,1.0,phase_2,go,500.0,550.0,1.0,,,,,,,,,cyan,I
0.0,1.0,1.0,0.0,6.0,6.0,817.9477509111166,1.0,1.0,phase_2,go,500.0,550.0,1.0,,,,,,,,,white,diamond
0.0,1.0,1.0,0.0,5.0,5.0,912.1926890220492,1.0,1.0,phase_2,go,500.0,550.0,1.0,,,,,,,,,white,diamond
0.0,6.0,2.0,1.0,6.0,0.0,0.0,1.0,1.0,phase_2,stop,500.0,550.0,4.0,,,,,,,,,gray,circle
0.0,4.0,4.0,0.0,6.0,6.0,848.140676971525,1.0,1.0,phase_2,go,500.0,600.0,1.0,,,,,,,,,magenta,square
0.0,1.0,1.0,0.0,6.0,6.0,760.7637960463762,1.0,1.0,phase_2,go,500.0,600.0,1.0,,,,,,,,,white,diamond
0.0,5.0,1.0,1.0,6.0,6.0,973.8787207752466,1.0,1.0,phase_2,go,500.0,600.0,1.0,,,,,,,,,cyan,I
0.0,3.0,3.0,0.0,5.0,5.0,799.8978381510824,1.0,1.0,phase_2,go,500.0,600.0,1.0,,,,,,,,,blue,flipped triangle
0.0,6.0,2.0,1.0,5.0,0.0,0.0,1.0,1.0,phase_2,stop,500.0,600.0,4.0,,,,,,,,,gray,circle
0.0,8.0,4.0,1.0,5.0,5.0,412.1154369786381,2.0,1.0,phase_2,stop,550.0,600.0,3.0,,,,,,,,,green,triangle
0.0,5.0,1.0,1.0,6.0,6.0,391.1943121347576,2.0,1.0,phase_2,stop,500.0,600.0,3.0,,,,,,,,,cyan,I
0.0,7.0,3.0,1.0,5.0,5.0,510.5777040589601,2.0,1.0,phase_2,go,500.0,550.0,1.0,,,,,,,,,orange,cross
0.0,3.0,3.0,0.0,6.0,6.0,464.0518098603934,2.0,1.0,phase_2,go,500.0,550.0,1.0,,,,,,,,,blue,flipped triangle
0.0,6.0,2.0,1.0,5.0,5.0,701.4754330739379,2.0,1.0,phase_2,go,500.0,550.0,1.0,,,,,,,,,gray,circle
0.0,4.0,4.0,0.0,6.0,6.0,327.9355650302022,2.0,1.0,phase_2,go,500.0,550.0,1.0,,,,,,,,,magenta,square
0.0,3.0,3.0,0.0,6.0,6.0,420.7195800263434,2.0,1.0,phase_2,go,500.0,550.0,1.0,,,,,,,,,blue,flipped triangle
0.0,8.0,4.0,1.0,6.0,6.0,652.3676461074501,2.0,1.0,phase_2,stop,500.0,550.0,3.0,,,,,,,,,green,triangle
0.0,4.0,4.0,0.0,6.0,6.0,517.0408701524138,2.0,1.0,phase_2,go,500.0,500.0,1.0,,,,,,,,,magenta,square
0.0,1.0,1.0,0.0,5.0,5.0,370.9485749714076,2.0,1.0,phase_2,go,500.0,500.0,1.0,,,,,,,,,white,diamond
0.0,4.0,4.0,0.0,5.0,5.0,466.4144678972661,2.0,1.0,phase_2,go,500.0,500.0,1.0,,,,,,,,,magenta,square
0.0,4.0,4.0,0.0,5.0,5.0,364.8683039937168,2.0,1.0,phase_2,go,500.0,500.0,1.0,,,,,,,,,magenta,square
0.0,7.0,3.0,1.0,5.0,5.0,467.7818729542196,2.0,1.0,phase_2,stop,500.0,500.0,3.0,,,,,,,,,orange,cross
0.0,1.0,1.0,0.0,6.0,6.0,434.6606947947293,2.0,1.0,phase_2,go,450.0,500.0,1.0,,,,,,,,,white,diamond
0.0,3.0,3.0,0.0,5.0,5.0,624.1541770286858,2.0,1.0,phase_2,go,450.0,500.0,1.0,,,,,,,,,blue,flipped triangle
0.0,7.0,3.0,1.0,5.0,5.0,539.5308069419116,2.0,1.0,phase_2,stop,450.0,500.0,3.0,,,,,,,,,orange,cross
0.0,3.0,3.0,0.0,6.0,6.0,345.9200069773942,2.0,1.0,phase_2,go,400.0,500.0,1.0,,,,,,,,,blue,flipped triangle
0.0,6.0,2.0,1.0,5.0,5.0,320.9685569163412,2.0,1.0,phase_2,go,400.0,500.0,1.0,,,,,,,,,gray,circle
0.0,2.0,2.0,0.0,6.0,6.0,301.8130059354007,2.0,1.0,phase_2,go,400.0,500.0,1.0,,,,,,,,,yellow,hexagon
0.0,8.0,4.0,1.0,5.0,5.0,349.3256629444659,2.0,1.0,phase_2,go,400.0,500.0,1.0,,,,,,,,,green,triangle
0.0,1.0,1.0,0.0,5.0,5.0,293.640909017995,2.0,1.0,phase_2,go,400.0,500.0,1.0,,,,,,,,,white,diamond
0.0,2.0,2.0,0.0,5.0,5.0,327.40970980376,2.0,1.0,phase_2,go,400.0,500.0,1.0,,,,,,,,,yellow,hexagon
0.0,5.0,1.0,1.0,5.0,5.0,283.6516639217734,2.0,1.0,phase_2,stop,400.0,500.0,3.0,,,,,,,,,cyan,I
0.0,5.0,1.0,1.0,5.0,5.0,461.0881330445409,2.0,1.0,phase_2,go,350.0,500.0,1.0,,,,,,,,,cyan,I
0.0,5.0,1.0,1.0,6.0,6.0,294.9000040534884,2.0,1.0,phase_2,stop,350.0,500.0,3.0,,,,,,,,,cyan,I
0.0,2.0,2.0,0.0,5.0,5.0,309.2545468825847,2.0,1.0,phase_2,go,350.0,450.0,1.0,,,,,,,,,yellow,hexagon
0.0,7.0,3.0,1.0,5.0,5.0,339.5232670009136,2.0,1.0,phase_2,stop,350.0,450.0,3.0,,,,,,,,,orange,cross
0.0,8.0,4.0,1.0,5.0,0.0,0.0,2.0,1.0,phase_2,stop,300.0,450.0,4.0,,,,,,,,,green,triangle
0.0,2.0,2.0,0.0,5.0,5.0,356.5061020199209,2.0,1.0,phase_2,go,350.0,450.0,1.0,,,,,,,,,yellow,hexagon
0.0,1.0,1.0,0.0,5.0,5.0,338.3803709875792,2.0,1.0,phase_2,go,350.0,450.0,1.0,,,,,,,,,white,diamond
0.0,2.0,2.0,0.0,6.0,6.0,464.0407080296427,2.0,1.0,phase_2,go,350.0,450.0,1.0,,,,,,,,,yellow,hexagon
0.0,8.0,4.0,1.0,5.0,5.0,399.7713571880013,2.0,1.0,phase_2,stop,350.0,450.0,3.0,,,,,,,,,green,triangle
0.0,3.0,3.0,0.0,5.0,5.0,584.2806799337268,2.0,1.0,phase_2,go,300.0,450.0,1.0,,,,,,,,,blue,flipped triangle
0.0,8.0,4.0,1.0,6.0,6.0,439.5097999367863,2.0,1.0,phase_2,stop,300.0,450.0,3.0,,,,,,,,,green,triangle
0.0,6.0,2.0,1.0,6.0,6.0,599.964533932507,2.0,1.0,phase_2,go,300.0,400.0,1.0,,,,,,,,,gray,circle
0.0,7.0,3.0,1.0,6.0,0.0,0.0,2.0,1.0,phase_2,stop,300.0,400.0,4.0,,,,,,,,,orange,cross
0.0,1.0,1.0,0.0,6.0,6.0,363.8669748324901,3.0,1.0,phase_2,go,300.0,450.0,1.0,,,,,,,,,white,diamond
0.0,1.0,1.0,0.0,6.0,6.0,347.847179044038,3.0,1.0,phase_2,go,300.0,450.0,1.0,,,,,,,,,white,diamond
0.0,8.0,4.0,1.0,5.0,5.0,246.9976691063493,3.0,1.0,phase_2,go,300.0,450.0,1.0,,,,,,,,,green,triangle
0.0,6.0,2.0,1.0,5.0,5.0,272.4016660358757,3.0,1.0,phase_2,stop,300.0,450.0,3.0,,,,,,,,,gray,circle
0.0,6.0,2.0,1.0,6.0,6.0,352.2722688503563,3.0,1.0,phase_2,stop,250.0,450.0,3.0,,,,,,,,,gray,circle
0.0,3.0,3.0,0.0,5.0,5.0,301.6488698776811,3.0,1.0,phase_2,go,250.0,400.0,1.0,,,,,,,,,blue,flipped triangle
0.0,7.0,3.0,1.0,5.0,5.0,270.1220610179007,3.0,1.0,phase_2,stop,250.0,400.0,3.0,,,,,,,,,orange,cross
0.0,5.0,1.0,1.0,5.0,5.0,575.3308311104774,3.0,1.0,phase_2,go,200.0,400.0,1.0,,,,,,,,,cyan,I
0.0,6.0,2.0,1.0,5.0,5.0,300.9131150320172,3.0,1.0,phase_2,stop,200.0,400.0,3.0,,,,,,,,,gray,circle
0.0,4.0,4.0,0.0,5.0,5.0,421.5395071078092,3.0,1.0,phase_2,go,150.0,400.0,1.0,,,,,,,,,magenta,square
0.0,4.0,4.0,0.0,5.0,5.0,436.3942400086671,3.0,1.0,phase_2,go,150.0,400.0,1.0,,,,,,,,,magenta,square
0.0,7.0,3.0,1.0,6.0,6.0,269.5097031537443,3.0,1.0,phase_2,stop,150.0,400.0,3.0,,,,,,,,,orange,cross
0.0,8.0,4.0,1.0,5.0,5.0,330.9246799908578,3.0,1.0,phase_2,go,150.0,350.0,1.0,,,,,,,,,green,triangle
0.0,5.0,1.0,1.0,6.0,6.0,274.0264779422432,3.0,1.0,phase_2,stop,150.0,350.0,3.0,,,,,,,,,cyan,I
0.0,2.0,2.0,0.0,5.0,5.0,400.6695440039038,3.0,1.0,phase_2,go,150.0,300.0,1.0,,,,,,,,,yellow,hexagon
0.0,4.0,4.0,0.0,5.0,5.0,353.0853479169309,3.0,1.0,phase_2,go,150.0,300.0,1.0,,,,,,,,,magenta,square
0.0,1.0,1.0,0.0,6.0,6.0,313.8554599136114,3.0,1.0,phase_2,go,150.0,300.0,1.0,,,,,,,,,white,diamond
0.0,7.0,3.0,1.0,6.0,6.0,302.9369739815593,3.0,1.0,phase_2,go,150.0,300.0,1.0,,,,,,,,,orange,cross
0.0,3.0,3.0,0.0,6.0,6.0,310.7817149721086,3.0,1.0,phase_2,go,150.0,300.0,1.0,,,,,,,,,blue,flipped triangle
0.0,8.0,4.0,1.0,6.0,0.0,0.0,3.0,1.0,phase_2,stop,150.0,300.0,4.0,,,,,,,,,green,triangle
0.0,2.0,2.0,0.0,5.0,5.0,310.0096539128572,3.0,1.0,phase_2,go,150.0,350.0,1.0,,,,,,,,,yellow,hexagon
0.0,8.0,4.0,1.0,6.0,6.0,295.4334390815347,3.0,1.0,phase_2,stop,150.0,350.0,3.0,,,,,,,,,green,triangle
0.0,1.0,1.0,0.0,6.0,6.0,326.7808500677347,3.0,1.0,phase_2,go,150.0,300.0,1.0,,,,,,,,,white,diamond
0.0,8.0,4.0,1.0,6.0,6.0,284.8991588689387,3.0,1.0,phase_2,stop,150.0,300.0,3.0,,,,,,,,,green,triangle
0.0,6.0,2.0,1.0,5.0,5.0,334.1074518393725,3.0,1.0,phase_2,stop,150.0,250.0,3.0,,,,,,,,,gray,circle
0.0,7.0,3.0,1.0,6.0,6.0,318.3061371091753,3.0,1.0,phase_2,stop,100.0,250.0,3.0,,,,,,,,,orange,cross
0.0,1.0,1.0,0.0,6.0,6.0,316.8711350299418,3.0,1.0,phase_2,go,100.0,200.0,1.0,,,,,,,,,white,diamond
0.0,1.0,1.0,0.0,6.0,6.0,515.4171271715313,3.0,1.0,phase_2,go,100.0,200.0,1.0,,,,,,,,,white,diamond
0.0,7.0,3.0,1.0,5.0,5.0,346.5504199266433,3.0,1.0,phase_2,go,100.0,200.0,1.0,,,,,,,,,orange,cross
0.0,2.0,2.0,0.0,6.0,6.0,312.4623470939696,3.0,1.0,phase_2,go,100.0,200.0,1.0,,,,,,,,,yellow,hexagon
0.0,6.0,2.0,1.0,6.0,6.0,306.8575211800635,3.0,1.0,phase_2,stop,100.0,200.0,3.0,,,,,,,,,gray,circle
0.0,5.0,1.0,1.0,5.0,5.0,295.2412539161742,3.0,1.0,phase_2,stop,100.0,150.0,3.0,,,,,,,,,cyan,I
0.0,8.0,4.0,1.0,6.0,6.0,498.0077140498906,3.0,1.0,phase_2,go,50.0,150.0,1.0,,,,,,,,,green,triangle
0.0,2.0,2.0,0.0,5.0,5.0,522.152302088216,3.0,1.0,phase_2,go,50.0,150.0,1.0,,,,,,,,,yellow,hexagon
0.0,2.0,2.0,0.0,5.0,5.0,607.0794388651848,3.0,1.0,phase_2,go,50.0,150.0,1.0,,,,,,,,,yellow,hexagon
0.0,1.0,1.0,0.0,6.0,6.0,312.3444109223783,3.0,1.0,phase_2,go,50.0,150.0,1.0,,,,,,,,,white,diamond
0.0,3.0,3.0,0.0,5.0,5.0,322.4287740886211,4.0,1.0,phase_2,go,50.0,150.0,1.0,,,,,,,,,blue,flipped triangle
0.0,6.0,2.0,1.0,6.0,6.0,252.0046359859407,4.0,1.0,phase_2,stop,50.0,150.0,3.0,,,,,,,,,gray,circle
0.0,1.0,1.0,0.0,5.0,5.0,257.6850969344377,4.0,1.0,phase_2,go,50.0,100.0,1.0,,,,,,,,,white,diamond
0.0,6.0,2.0,1.0,6.0,6.0,292.2615029383451,4.0,1.0,phase_2,go,50.0,100.0,1.0,,,,,,,,,gray,circle
0.0,2.0,2.0,0.0,6.0,6.0,403.0565770808607,4.0,1.0,phase_2,go,50.0,100.0,1.0,,,,,,,,,yellow,hexagon
0.0,1.0,1.0,0.0,6.0,6.0,289.8644641973078,4.0,1.0,phase_2,go,50.0,100.0,1.0,,,,,,,,,white,diamond
0.0,6.0,2.0,1.0,6.0,6.0,313.8998670037836,4.0,1.0,phase_2,stop,50.0,100.0,3.0,,,,,,,,,gray,circle
0.0,6.0,2.0,1.0,5.0,5.0,336.9409060105681,4.0,1.0,phase_2,go,50.0,50.0,1.0,,,,,,,,,gray,circle
0.0,5.0,1.0,1.0,5.0,5.0,287.1209969744086,4.0,1.0,phase_2,stop,50.0,50.0,3.0,,,,,,,,,cyan,I
0.0,4.0,4.0,0.0,6.0,6.0,455.9767791070044,4.0,1.0,phase_2,go,0.0,50.0,1.0,,,,,,,,,magenta,square
0.0,2.0,2.0,0.0,6.0,6.0,397.9544648900628,4.0,1.0,phase_2,go,0.0,50.0,1.0,,,,,,,,,yellow,hexagon
0.0,1.0,1.0,0.0,5.0,5.0,468.8746160827577,4.0,1.0,phase_2,go,0.0,50.0,1.0,,,,,,,,,white,diamond
0.0,5.0,1.0,1.0,6.0,6.0,383.7714788969606,4.0,1.0,phase_2,stop,0.0,50.0,3.0,,,,,,,,,cyan,I
0.0,2.0,2.0,0.0,5.0,5.0,331.3618688844144,4.0,1.0,phase_2,go,0.0,0.0,1.0,,,,,,,,,yellow,hexagon
0.0,2.0,2.0,0.0,6.0,6.0,295.2742669731378,4.0,1.0,phase_2,go,0.0,0.0,1.0,,,,,,,,,yellow,hexagon
0.0,3.0,3.0,0.0,6.0,6.0,386.1084911040962,4.0,1.0,phase_2,go,0.0,0.0,1.0,,,,,,,,,blue,flipped triangle
0.0,5.0,1.0,1.0,6.0,6.0,526.1294872034341,4.0,1.0,phase_2,go,0.0,0.0,1.0,,,,,,,,,cyan,I
0.0,5.0,1.0,1.0,5.0,0.0,0.0,4.0,1.0,phase_2,stop,0.0,0.0,4.0,,,,,,,,,cyan,I
0.0,1.0,1.0,0.0,6.0,6.0,348.2529849279672,4.0,1.0,phase_2,go,50.0,0.0,1.0,,,,,,,,,white,diamond
0.0,8.0,4.0,1.0,6.0,0.0,0.0,4.0,1.0,phase_2,stop,50.0,0.0,4.0,,,,,,,,,green,triangle
0.0,2.0,2.0,0.0,6.0,6.0,744.7840489912778,4.0,1.0,phase_2,go,50.0,50.0,1.0,,,,,,,,,yellow,hexagon
0.0,6.0,2.0,1.0,5.0,5.0,947.2841611132026,4.0,1.0,phase_2,stop,50.0,50.0,3.0,,,,,,,,,gray,circle
0.0,7.0,3.0,1.0,6.0,6.0,690.8354950137436,4.0,1.0,phase_2,stop,0.0,50.0,3.0,,,,,,,,,orange,cross
0.0,8.0,4.0,1.0,5.0,5.0,825.2867788542062,4.0,1.0,phase_2,stop,0.0,0.0,3.0,,,,,,,,,green,triangle
0.0,7.0,3.0,1.0,5.0,5.0,673.8410140387714,4.0,1.0,phase_2,go,0.0,0.0,1.0,,,,,,,,,orange,cross
0.0,2.0,2.0,0.0,6.0,6.0,559.3987589236349,4.0,1.0,phase_2,go,0.0,0.0,1.0,,,,,,,,,yellow,hexagon
0.0,2.0,2.0,0.0,5.0,5.0,470.994550967589,4.0,1.0,phase_2,go,0.0,0.0,1.0,,,,,,,,,yellow,hexagon
0.0,3.0,3.0,0.0,5.0,5.0,365.01798289828,4.0,1.0,phase_2,go,0.0,0.0,1.0,,,,,,,,,blue,flipped triangle
0.0,6.0,2.0,1.0,5.0,5.0,630.6976419873536,4.0,1.0,phase_2,stop,0.0,0.0,3.0,,,,,,,,,gray,circle
0.0,2.0,2.0,0.0,5.0,5.0,691.4390670135617,4.0,1.0,phase_2,go,0.0,0.0,1.0,,,,,,,,,yellow,hexagon
0.0,3.0,3.0,0.0,6.0,6.0,395.0216642115265,4.0,1.0,phase_2,go,0.0,0.0,1.0,,,,,,,,,blue,flipped triangle
0.0,3.0,3.0,0.0,5.0,5.0,627.9702400788665,4.0,1.0,phase_2,go,0.0,0.0,1.0,,,,,,,,,blue,flipped triangle
0.0,4.0,4.0,0.0,6.0,6.0,257.5056159403175,4.0,1.0,phase_2,go,0.0,0.0,1.0,,,,,,,,,magenta,square
0.0,3.0,3.0,0.0,6.0,6.0,505.2803719881922,4.0,1.0,phase_2,go,0.0,0.0,1.0,,,,,,,,,blue,flipped triangle
0.0,5.0,1.0,1.0,5.0,5.0,482.3786409106105,4.0,1.0,phase_2,stop,0.0,0.0,3.0,,,,,,,,,cyan,I
0.0,1.0,1.0,0.0,5.0,5.0,761.6605551447719,4.0,1.0,phase_2,go,0.0,0.0,1.0,,,,,,,,,white,diamond
0.0,5.0,1.0,1.0,5.0,5.0,803.6471030209213,5.0,1.0,phase_2,go,0.0,0.0,1.0,,,,,,,,,cyan,I
0.0,2.0,2.0,0.0,5.0,5.0,819.3041789345443,5.0,1.0,phase_2,go,0.0,0.0,1.0,,,,,,,,,yellow,hexagon
0.0,4.0,4.0,0.0,5.0,5.0,449.0693430416286,5.0,1.0,phase_2,go,0.0,0.0,1.0,,,,,,,,,magenta,square
0.0,7.0,3.0,1.0,5.0,5.0,322.648769011721,5.0,1.0,phase_2,stop,0.0,0.0,3.0,,,,,,,,,orange,cross
0.0,1.0,1.0,0.0,5.0,5.0,384.5896888524294,5.0,1.0,phase_2,go,0.0,0.0,1.0,,,,,,,,,white,diamond
0.0,3.0,3.0,0.0,6.0,6.0,471.8979110475629,5.0,1.0,phase_2,go,0.0,0.0,1.0,,,,,,,,,blue,flipped triangle
0.0,7.0,3.0,1.0,6.0,6.0,480.9465219732374,5.0,1.0,phase_2,go,0.0,0.0,1.0,,,,,,,,,orange,cross
0.0,8.0,4.0,1.0,5.0,5.0,238.4436109568923,5.0,1.0,phase_2,stop,0.0,0.0,3.0,,,,,,,,,green,triangle
0.0,2.0,2.0,0.0,6.0,6.0,277.1187268663198,5.0,1.0,phase_2,go,0.0,0.0,1.0,,,,,,,,,yellow,hexagon
0.0,7.0,3.0,1.0,6.0,6.0,566.3392480928451,5.0,1.0,phase_2,stop,0.0,0.0,3.0,,,,,,,,,orange,cross
0.0,7.0,3.0,1.0,5.0,5.0,539.8555449210107,5.0,1.0,phase_2,stop,0.0,0.0,3.0,,,,,,,,,orange,cross
0.0,3.0,3.0,0.0,5.0,5.0,428.5112828947603,5.0,1.0,phase_2,go,0.0,0.0,1.0,,,,,,,,,blue,flipped triangle
0.0,6.0,2.0,1.0,6.0,6.0,314.8422450758517,5.0,1.0,phase_2,go,0.0,0.0,1.0,,,,,,,,,gray,circle
0.0,5.0,1.0,1.0,6.0,6.0,289.0816750004887,5.0,1.0,phase_2,stop,0.0,0.0,3.0,,,,,,,,,cyan,I
0.0,3.0,3.0,0.0,6.0,6.0,340.2426838874817,5.0,1.0,phase_2,go,0.0,0.0,1.0,,,,,,,,,blue,flipped triangle
0.0,5.0,1.0,1.0,5.0,5.0,355.6996011175215,5.0,1.0,phase_2,stop,0.0,0.0,3.0,,,,,,,,,cyan,I
0.0,7.0,3.0,1.0,6.0,0.0,0.0,5.0,1.0,phase_2,go,0.0,0.0,5.0,,,,,,,,,orange,cross
0.0,6.0,2.0,1.0,5.0,5.0,369.4717949256301,5.0,1.0,phase_2,stop,0.0,0.0,3.0,,,,,,,,,gray,circle
0.0,6.0,2.0,1.0,6.0,6.0,422.5677289068699,5.0,1.0,phase_2,stop,0.0,0.0,3.0,,,,,,,,,gray,circle
0.0,1.0,1.0,0.0,5.0,5.0,350.8356779348105,5.0,1.0,phase_2,go,0.0,0.0,1.0,,,,,,,,,white,diamond
0.0,2.0,2.0,0.0,6.0,6.0,279.1072519030422,5.0,1.0,phase_2,go,0.0,0.0,1.0,,,,,,,,,yellow,hexagon
0.0,3.0,3.0,0.0,5.0,5.0,327.8819629922509,5.0,1.0,phase_2,go,0.0,0.0,1.0,,,,,,,,,blue,flipped triangle
0.0,5.0,1.0,1.0,5.0,5.0,295.384082943201,5.0,1.0,phase_2,go,0.0,0.0,1.0,,,,,,,,,cyan,I
0.0,5.0,1.0,1.0,6.0,6.0,286.3112180493772,5.0,1.0,phase_2,stop,0.0,0.0,3.0,,,,,,,,,cyan,I
0.0,1.0,1.0,0.0,6.0,6.0,315.8187281806022,5.0,1.0,phase_2,go,0.0,0.0,1.0,,,,,,,,,white,diamond
0.0,8.0,4.0,1.0,6.0,6.0,267.9366290103644,5.0,1.0,phase_2,stop,0.0,0.0,3.0,,,,,,,,,green,triangle
0.0,4.0,4.0,0.0,6.0,6.0,301.6563418786973,5.0,1.0,phase_2,go,0.0,0.0,1.0,,,,,,,,,magenta,square
0.0,5.0,1.0,1.0,5.0,5.0,292.2453600913286,5.0,1.0,phase_2,stop,0.0,0.0,3.0,,,,,,,,,cyan,I
0.0,8.0,4.0,1.0,5.0,5.0,465.3442159760743,5.0,1.0,phase_2,stop,0.0,0.0,3.0,,,,,,,,,green,triangle
0.0,1.0,1.0,0.0,5.0,5.0,331.4530740026384,5.0,1.0,phase_2,go,0.0,0.0,1.0,,,,,,,,,white,diamond
0.0,8.0,4.0,1.0,6.0,6.0,265.7453760039061,5.0,1.0,phase_2,stop,0.0,0.0,3.0,,,,,,,,,green,triangle
0.0,4.0,4.0,0.0,6.0,6.0,553.7187559530139,5.0,1.0,phase_2,go,0.0,0.0,1.0,,,,,,,,,magenta,square
0.0,4.0,4.0,0.0,6.0,6.0,587.0848661288619,5.0,1.0,phase_2,go,0.0,0.0,1.0,,,,,,,,,magenta,square
0.0,1.0,1.0,0.0,6.0,6.0,286.3523948471993,5.0,1.0,phase_2,go,0.0,0.0,1.0,,,,,,,,,white,diamond
0.0,2.0,2.0,0.0,6.0,6.0,320.1069650240242,5.0,1.0,phase_2,go,0.0,0.0,1.0,,,,,,,,,yellow,hexagon
0.0,8.0,4.0,1.0,5.0,5.0,301.9698280841112,5.0,1.0,phase_2,go,0.0,0.0,1.0,,,,,,,,,green,triangle
0.0,5.0,1.0,1.0,5.0,5.0,291.8823498766869,6.0,1.0,phase_2,stop,0.0,0.0,3.0,,,,,,,,,cyan,I
0.0,7.0,3.0,1.0,6.0,6.0,363.6338298674673,6.0,1.0,phase_2,stop,0.0,0.0,3.0,,,,,,,,,orange,cross
0.0,2.0,2.0,0.0,5.0,5.0,342.3584070987999,6.0,1.0,phase_2,go,0.0,0.0,1.0,,,,,,,,,yellow,hexagon
0.0,8.0,4.0,1.0,6.0,6.0,306.2423390801996,6.0,1.0,phase_2,stop,0.0,0.0,3.0,,,,,,,,,green,triangle
0.0,4.0,4.0,0.0,6.0,6.0,282.6522621326148,6.0,1.0,phase_2,go,0.0,0.0,1.0,,,,,,,,,magenta,square
0.0,8.0,4.0,1.0,6.0,6.0,323.7999428529292,6.0,1.0,phase_2,go,0.0,0.0,1.0,,,,,,,,,green,triangle
0.0,8.0,4.0,1.0,6.0,6.0,203.3811521250754,6.0,1.0,phase_2,stop,0.0,0.0,3.0,,,,,,,,,green,triangle
0.0,2.0,2.0,0.0,6.0,6.0,447.8749099653214,6.0,1.0,phase_2,go,0.0,0.0,1.0,,,,,,,,,yellow,hexagon
0.0,2.0,2.0,0.0,6.0,6.0,359.7692269831896,6.0,1.0,phase_2,go,0.0,0.0,1.0,,,,,,,,,yellow,hexagon
0.0,8.0,4.0,1.0,5.0,5.0,624.8704618774354,6.0,1.0,phase_2,stop,0.0,0.0,3.0,,,,,,,,,green,triangle
0.0,4.0,4.0,0.0,5.0,5.0,526.1558499187231,6.0,1.0,phase_2,go,0.0,0.0,1.0,,,,,,,,,magenta,square
0.0,7.0,3.0,1.0,5.0,5.0,478.1181327998638,6.0,1.0,phase_2,stop,0.0,0.0,3.0,,,,,,,,,orange,cross
0.0,4.0,4.0,0.0,5.0,5.0,414.2508858349174,6.0,1.0,phase_2,go,0.0,0.0,1.0,,,,,,,,,magenta,square
0.0,7.0,3.0,1.0,6.0,6.0,533.087203046307,6.0,1.0,phase_2,stop,0.0,0.0,3.0,,,,,,,,,orange,cross
0.0,5.0,1.0,1.0,6.0,6.0,446.4492748957127,6.0,1.0,phase_2,stop,0.0,0.0,3.0,,,,,,,,,cyan,I
0.0,8.0,4.0,1.0,6.0,6.0,276.8538501113653,6.0,1.0,phase_2,stop,0.0,0.0,3.0,,,,,,,,,green,triangle
0.0,6.0,2.0,1.0,6.0,6.0,434.8664369899779,6.0,1.0,phase_2,go,0.0,0.0,1.0,,,,,,,,,gray,circle
0.0,7.0,3.0,1.0,5.0,5.0,338.2853528019041,6.0,1.0,phase_2,stop,0.0,0.0,3.0,,,,,,,,,orange,cross
0.0,4.0,4.0,0.0,6.0,6.0,299.0380590781569,6.0,1.0,phase_2,go,0.0,0.0,1.0,,,,,,,,,magenta,square
0.0,8.0,4.0,1.0,5.0,5.0,521.6819050256163,6.0,1.0,phase_2,stop,0.0,0.0,3.0,,,,,,,,,green,triangle
0.0,2.0,2.0,0.0,5.0,5.0,464.6438129711896,6.0,1.0,phase_2,go,0.0,0.0,1.0,,,,,,,,,yellow,hexagon
0.0,7.0,3.0,1.0,5.0,5.0,344.6457542013377,6.0,1.0,phase_2,stop,0.0,0.0,3.0,,,,,,,,,orange,cross
0.0,4.0,4.0,0.0,5.0,5.0,467.3404388595372,6.0,1.0,phase_2,go,0.0,0.0,1.0,,,,,,,,,magenta,square
0.0,3.0,3.0,0.0,6.0,6.0,273.9903251640498,6.0,1.0,phase_2,go,0.0,0.0,1.0,,,,,,,,,blue,flipped triangle
0.0,8.0,4.0,1.0,5.0,5.0,558.9926990214735,6.0,1.0,phase_2,stop,0.0,0.0,3.0,,,,,,,,,green,triangle
0.0,6.0,2.0,1.0,5.0,5.0,617.1077680774033,6.0,1.0,phase_2,stop,0.0,0.0,3.0,,,,,,,,,gray,circle
0.0,6.0,2.0,1.0,5.0,5.0,720.353604061529,6.0,1.0,phase_2,stop,0.0,0.0,3.0,,,,,,,,,gray,circle
0.0,4.0,4.0,0.0,5.0,5.0,686.6898348089308,6.0,1.0,phase_2,go,0.0,0.0,1.0,,,,,,,,,magenta,square
0.0,3.0,3.0,0.0,5.0,5.0,660.5842600110918,6.0,1.0,phase_2,go,0.0,0.0,1.0,,,,,,,,,blue,flipped triangle
0.0,4.0,4.0,0.0,6.0,6.0,620.3069221228361,6.0,1.0,phase_2,go,0.0,0.0,1.0,,,,,,,,,magenta,square
0.0,2.0,2.0,0.0,5.0,5.0,597.8608671575785,6.0,1.0,phase_2,go,0.0,0.0,1.0,,,,,,,,,yellow,hexagon
0.0,2.0,2.0,0.0,5.0,5.0,717.0558110810816,6.0,1.0,phase_2,go,0.0,0.0,1.0,,,,,,,,,yellow,hexagon
0.0,3.0,3.0,0.0,6.0,6.0,410.6433209963143,6.0,1.0,phase_2,go,0.0,0.0,1.0,,,,,,,,,blue,flipped triangle
0.0,8.0,4.0,1.0,6.0,6.0,372.087940108031,6.0,1.0,phase_2,go,0.0,0.0,1.0,,,,,,,,,green,triangle
0.0,8.0,4.0,1.0,5.0,0.0,0.0,6.0,1.0,phase_2,stop,0.0,0.0,4.0,,,,,,,,,green,triangle
0.0,5.0,1.0,1.0,6.0,0.0,0.0,6.0,1.0,phase_2,stop,50.0,0.0,4.0,,,,,,,,,cyan,I
0.0,6.0,2.0,1.0,5.0,0.0,0.0,7.0,1.0,phase_2,stop,50.0,50.0,4.0,,,,,,,,,gray,circle
0.0,4.0,4.0,0.0,5.0,5.0,413.684023078531,7.0,1.0,phase_2,go,100.0,50.0,1.0,,,,,,,,,magenta,square
0.0,7.0,3.0,1.0,6.0,6.0,325.9173249825835,7.0,1.0,phase_2,go,100.0,50.0,1.0,,,,,,,,,orange,cross
0.0,6.0,2.0,1.0,5.0,5.0,311.737772077322,7.0,1.0,phase_2,stop,100.0,50.0,3.0,,,,,,,,,gray,circle
0.0,5.0,1.0,1.0,5.0,5.0,643.5822369530797,7.0,1.0,phase_2,stop,50.0,50.0,3.0,,,,,,,,,cyan,I
0.0,4.0,4.0,0.0,6.0,6.0,514.7462231107056,7.0,1.0,phase_2,go,0.0,50.0,1.0,,,,,,,,,magenta,square
0.0,6.0,2.0,1.0,5.0,5.0,502.64165201224387,7.0,1.0,phase_2,go,0.0,50.0,1.0,,,,,,,,,gray,circle
0.0,8.0,4.0,1.0,6.0,6.0,356.1846970114857,7.0,1.0,phase_2,go,0.0,50.0,1.0,,,,,,,,,green,triangle
0.0,2.0,2.0,0.0,5.0,5.0,433.9836281724274,7.0,1.0,phase_2,go,0.0,50.0,1.0,,,,,,,,,yellow,hexagon
0.0,4.0,4.0,0.0,5.0,5.0,356.5954659134149,7.0,1.0,phase_2,go,0.0,50.0,1.0,,,,,,,,,magenta,square
0.0,3.0,3.0,0.0,5.0,5.0,312.3399489559233,7.0,1.0,phase_2,go,0.0,50.0,1.0,,,,,,,,,blue,flipped triangle
0.0,6.0,2.0,1.0,6.0,6.0,298.8540709484368,7.0,1.0,phase_2,stop,0.0,50.0,3.0,,,,,,,,,gray,circle
0.0,3.0,3.0,0.0,5.0,5.0,559.2891059350222,7.0,1.0,phase_2,go,0.0,0.0,1.0,,,,,,,,,blue,flipped triangle
0.0,3.0,3.0,0.0,6.0,6.0,426.7964211758226,7.0,1.0,phase_2,go,0.0,0.0,1.0,,,,,,,,,blue,flipped triangle
0.0,7.0,3.0,1.0,6.0,0.0,0.0,7.0,1.0,phase_2,stop,0.0,0.0,4.0,,,,,,,,,orange,cross
0.0,4.0,4.0,0.0,5.0,5.0,455.764097860083,7.0,1.0,phase_2,go,0.0,50.0,1.0,,,,,,,,,magenta,square
0.0,6.0,2.0,1.0,6.0,0.0,0.0,7.0,1.0,phase_2,stop,0.0,50.0,4.0,,,,,,,,,gray,circle
0.0,7.0,3.0,1.0,5.0,0.0,0.0,7.0,1.0,phase_2,stop,0.0,100.0,4.0,,,,,,,,,orange,cross
0.0,1.0,1.0,0.0,6.0,6.0,519.8002380784601,7.0,1.0,phase_2,go,50.0,100.0,1.0,,,,,,,,,white,diamond
0.0,7.0,3.0,1.0,5.0,0.0,0.0,7.0,1.0,phase_2,stop,50.0,100.0,4.0,,,,,,,,,orange,cross
0.0,5.0,1.0,1.0,6.0,6.0,310.4077589232474,7.0,1.0,phase_2,stop,100.0,100.0,3.0,,,,,,,,,cyan,I
0.0,3.0,3.0,0.0,6.0,6.0,509.27529600448906,7.0,1.0,phase_2,go,100.0,50.0,1.0,,,,,,,,,blue,flipped triangle
0.0,8.0,4.0,1.0,5.0,5.0,517.06498907879,7.0,1.0,phase_2,go,100.0,50.0,1.0,,,,,,,,,green,triangle
0.0,8.0,4.0,1.0,6.0,0.0,0.0,7.0,1.0,phase_2,stop,100.0,50.0,4.0,,,,,,,,,green,triangle
0.0,7.0,3.0,1.0,6.0,6.0,340.6296579632908,7.0,1.0,phase_2,go,100.0,100.0,1.0,,,,,,,,,orange,cross
0.0,6.0,2.0,1.0,5.0,5.0,329.1403648909181,7.0,1.0,phase_2,stop,100.0,100.0,3.0,,,,,,,,,gray,circle
0.0,7.0,3.0,1.0,6.0,6.0,338.1074850913137,7.0,1.0,phase_2,stop,50.0,100.0,3.0,,,,,,,,,orange,cross
0.0,6.0,2.0,1.0,6.0,0.0,0.0,7.0,1.0,phase_2,stop,50.0,50.0,4.0,,,,,,,,,gray,circle
0.0,4.0,4.0,0.0,6.0,6.0,526.3937721028924,7.0,1.0,phase_2,go,50.0,100.0,1.0,,,,,,,,,magenta,square
0.0,1.0,1.0,0.0,6.0,6.0,488.7299339752644,7.0,1.0,phase_2,go,50.0,100.0,1.0,,,,,,,,,white,diamond
0.0,3.0,3.0,0.0,6.0,6.0,534.0309699531645,7.0,1.0,phase_2,go,50.0,100.0,1.0,,,,,,,,,blue,flipped triangle
0.0,4.0,4.0,0.0,6.0,6.0,327.5715890340507,7.0,1.0,phase_2,go,50.0,100.0,1.0,,,,,,,,,magenta,square
0.0,2.0,2.0,0.0,6.0,6.0,524.9576878268272,7.0,1.0,phase_2,go,50.0,100.0,1.0,,,,,,,,,yellow,hexagon
0.0,1.0,1.0,0.0,5.0,5.0,459.5765280537307,7.0,1.0,phase_2,go,50.0,100.0,1.0,,,,,,,,,white,diamond
0.0,1.0,1.0,0.0,5.0,5.0,366.9292009435594,7.0,1.0,phase_2,go,50.0,100.0,1.0,,,,,,,,,white,diamond
0.0,6.0,2.0,1.0,5.0,5.0,570.9945179987699,7.0,1.0,phase_2,stop,50.0,100.0,3.0,,,,,,,,,gray,circle
0.0,4.0,4.0,0.0,5.0,5.0,279.7914161346853,8.0,1.0,phase_2,go,0.0,100.0,1.0,,,,,,,,,magenta,square
0.0,7.0,3.0,1.0,6.0,6.0,285.6865839567035,8.0,1.0,phase_2,stop,0.0,100.0,3.0,,,,,,,,,orange,cross
0.0,5.0,1.0,1.0,5.0,0.0,0.0,8.0,1.0,phase_2,stop,0.0,50.0,4.0,,,,,,,,,cyan,I
0.0,3.0,3.0,0.0,6.0,6.0,564.2667470965534,8.0,1.0,phase_2,go,50.0,50.0,1.0,,,,,,,,,blue,flipped triangle
0.0,2.0,2.0,0.0,6.0,6.0,311.100736958906,8.0,1.0,phase_2,go,50.0,50.0,1.0,,,,,,,,,yellow,hexagon
0.0,1.0,1.0,0.0,5.0,5.0,325.9490539785474,8.0,1.0,phase_2,go,50.0,50.0,1.0,,,,,,,,,white,diamond
0.0,4.0,4.0,0.0,6.0,6.0,338.7653159443289,8.0,1.0,phase_2,go,50.0,50.0,1.0,,,,,,,,,magenta,square
0.0,1.0,1.0,0.0,5.0,5.0,315.4489009175449,8.0,1.0,phase_2,go,50.0,50.0,1.0,,,,,,,,,white,diamond
0.0,3.0,3.0,0.0,6.0,6.0,330.815837951377,8.0,1.0,phase_2,go,50.0,50.0,1.0,,,,,,,,,blue,flipped triangle
0.0,7.0,3.0,1.0,6.0,0.0,0.0,8.0,1.0,phase_2,stop,50.0,50.0,4.0,,,,,,,,,orange,cross
0.0,2.0,2.0,0.0,6.0,6.0,338.7953280471265,8.0,1.0,phase_2,go,50.0,100.0,1.0,,,,,,,,,yellow,hexagon
0.0,6.0,2.0,1.0,6.0,6.0,279.9747579265386,8.0,1.0,phase_2,stop,50.0,100.0,3.0,,,,,,,,,gray,circle
0.0,1.0,1.0,0.0,5.0,5.0,649.053760105744,8.0,1.0,phase_2,go,50.0,50.0,1.0,,,,,,,,,white,diamond
0.0,5.0,1.0,1.0,6.0,6.0,336.9183719623834,8.0,1.0,phase_2,stop,50.0,50.0,3.0,,,,,,,,,cyan,I
0.0,3.0,3.0,0.0,5.0,5.0,360.8963089063763,8.0,1.0,phase_2,go,50.0,0.0,1.0,,,,,,,,,blue,flipped triangle
0.0,5.0,1.0,1.0,6.0,0.0,0.0,8.0,1.0,phase_2,stop,50.0,0.0,4.0,,,,,,,,,cyan,I
0.0,6.0,2.0,1.0,6.0,0.0,0.0,8.0,1.0,phase_2,stop,50.0,50.0,4.0,,,,,,,,,gray,circle
0.0,7.0,3.0,1.0,5.0,0.0,0.0,8.0,1.0,phase_2,stop,50.0,100.0,4.0,,,,,,,,,orange,cross
0.0,4.0,4.0,0.0,5.0,5.0,363.3640839252621,8.0,1.0,phase_2,go,100.0,100.0,1.0,,,,,,,,,magenta,square
0.0,3.0,3.0,0.0,5.0,5.0,391.1619170103222,8.0,1.0,phase_2,go,100.0,100.0,1.0,,,,,,,,,blue,flipped triangle
0.0,4.0,4.0,0.0,5.0,5.0,333.7890540715307,8.0,1.0,phase_2,go,100.0,100.0,1.0,,,,,,,,,magenta,square
0.0,4.0,4.0,0.0,6.0,6.0,443.6114279087633,8.0,1.0,phase_2,go,100.0,100.0,1.0,,,,,,,,,magenta,square
0.0,1.0,1.0,0.0,5.0,5.0,305.5839580483734,8.0,1.0,phase_2,go,100.0,100.0,1.0,,,,,,,,,white,diamond
0.0,2.0,2.0,0.0,5.0,5.0,338.4310598485172,8.0,1.0,phase_2,go,100.0,100.0,1.0,,,,,,,,,yellow,hexagon
0.0,4.0,4.0,0.0,5.0,5.0,368.193473899737,8.0,1.0,phase_2,go,100.0,100.0,1.0,,,,,,,,,magenta,square
0.0,3.0,3.0,0.0,6.0,6.0,351.2183451093733,8.0,1.0,phase_2,go,100.0,100.0,1.0,,,,,,,,,blue,flipped triangle
0.0,5.0,1.0,1.0,6.0,0.0,0.0,8.0,1.0,phase_2,stop,100.0,100.0,4.0,,,,,,,,,cyan,I
0.0,2.0,2.0,0.0,6.0,6.0,593.0324010550976,8.0,1.0,phase_2,go,100.0,150.0,1.0,,,,,,,,,yellow,hexagon
0.0,8.0,4.0,1.0,5.0,0.0,0.0,8.0,1.0,phase_2,stop,100.0,150.0,4.0,,,,,,,,,green,triangle
0.0,2.0,2.0,0.0,5.0,5.0,424.506921088323,8.0,1.0,phase_2,go,150.0,150.0,1.0,,,,,,,,,yellow,hexagon
0.0,6.0,2.0,1.0,6.0,6.0,311.1884070094675,8.0,1.0,phase_2,stop,150.0,150.0,3.0,,,,,,,,,gray,circle
0.0,7.0,3.0,1.0,5.0,0.0,0.0,8.0,1.0,phase_2,stop,150.0,100.0,4.0,,,,,,,,,orange,cross
0.0,7.0,3.0,1.0,6.0,0.0,0.0,8.0,1.0,phase_2,stop,200.0,100.0,4.0,,,,,,,,,orange,cross
0.0,3.0,3.0,0.0,5.0,5.0,475.2230220474303,8.0,1.0,phase_2,go,200.0,150.0,1.0,,,,,,,,,blue,flipped triangle
0.0,3.0,3.0,0.0,6.0,6.0,403.0524850822985,8.0,1.0,phase_2,go,200.0,150.0,1.0,,,,,,,,,blue,flipped triangle
0.0,3.0,3.0,0.0,5.0,5.0,426.9183920696378,8.0,1.0,phase_2,go,200.0,150.0,1.0,,,,,,,,,blue,flipped triangle
0.0,8.0,4.0,1.0,7.0,3.0,1403.1832618638873,1.0,2.0,phase_3,,,,,195.0,5.0,234.0,156.0,195.0,78.0,39.0,117.0,green,triangle
0.0,7.0,3.0,1.0,7.0,4.0,3057.6470280066133,1.0,1.0,phase_3,,,,,54.0,1.0,108.0,270.0,162.0,54.0,216.0,324.0,orange,cross
0.0,6.0,2.0,1.0,7.0,2.0,2122.9823960457,1.0,1.0,phase_3,,,,,49.0,1.0,245.0,49.0,196.0,147.0,294.0,98.0,gray,circle
0.0,8.0,4.0,1.0,7.0,5.0,1813.754622125998,1.0,1.0,phase_3,,,,,132.0,3.0,176.0,88.0,264.0,220.0,132.0,44.0,green,triangle
0.0,6.0,2.0,1.0,7.0,2.0,2608.026712900028,1.0,1.0,phase_3,,,,,136.0,4.0,68.0,136.0,34.0,170.0,204.0,102.0,gray,circle
0.0,2.0,2.0,0.0,7.0,5.0,2823.4326341189444,1.0,1.0,phase_3,,,,,245.0,5.0,147.0,196.0,98.0,294.0,245.0,49.0,yellow,hexagon
0.0,5.0,1.0,1.0,7.0,5.0,2522.7415149565786,1.0,1.0,phase_3,,,,,196.0,4.0,147.0,245.0,49.0,294.0,196.0,98.0,cyan,I
0.0,5.0,1.0,1.0,7.0,5.0,1801.012279931456,1.0,1.0,phase_3,,,,,176.0,4.0,132.0,220.0,88.0,44.0,176.0,264.0,cyan,I
0.0,4.0,4.0,0.0,7.0,2.0,1868.9327149186283,1.0,1.0,phase_3,,,,,294.0,6.0,98.0,294.0,147.0,49.0,196.0,245.0,magenta,square
0.0,6.0,2.0,1.0,7.0,2.0,2399.0397569723427,1.0,1.0,phase_3,,,,,68.0,2.0,136.0,68.0,170.0,34.0,204.0,102.0,gray,circle
0.0,3.0,3.0,0.0,7.0,3.0,3071.9124239403754,1.0,1.0,phase_3,,,,,132.0,3.0,88.0,220.0,132.0,176.0,264.0,44.0,blue,flipped triangle
0.0,1.0,1.0,0.0,7.0,4.0,2128.609288018197,1.0,1.0,phase_3,,,,,44.0,1.0,132.0,264.0,220.0,44.0,176.0,88.0,white,diamond
0.0,3.0,3.0,0.0,7.0,4.0,2312.0896650943905,1.0,1.0,phase_3,,,,,98.0,2.0,294.0,245.0,147.0,98.0,49.0,196.0,blue,flipped triangle
0.0,7.0,3.0,1.0,7.0,6.0,2569.32026008144,1.0,1.0,phase_3,,,,,176.0,4.0,132.0,264.0,88.0,220.0,44.0,176.0,orange,cross
0.0,1.0,1.0,0.0,7.0,5.0,1732.613235944882,1.0,1.0,phase_3,,,,,88.0,2.0,176.0,220.0,132.0,44.0,88.0,264.0,white,diamond
0.0,5.0,1.0,1.0,7.0,4.0,2390.816835919395,1.0,1.0,phase_3,,,,,264.0,6.0,132.0,88.0,176.0,264.0,220.0,44.0,cyan,I
0.0,7.0,3.0,1.0,7.0,3.0,2391.095546074212,1.0,1.0,phase_3,,,,,245.0,5.0,294.0,49.0,245.0,98.0,196.0,147.0,orange,cross
0.0,1.0,1.0,0.0,7.0,5.0,2322.107857093215,1.0,1.0,phase_3,,,,,108.0,2.0,162.0,270.0,54.0,324.0,108.0,216.0,white,diamond
0.0,7.0,3.0,1.0,7.0,1.0,3240.583471953869,1.0,1.0,phase_3,,,,,294.0,6.0,294.0,245.0,196.0,98.0,49.0,147.0,orange,cross
0.0,3.0,3.0,0.0,7.0,2.0,2764.1438969876617,1.0,1.0,phase_3,,,,,156.0,4.0,117.0,156.0,195.0,78.0,39.0,234.0,blue,flipped triangle
0.0,3.0,3.0,0.0,7.0,4.0,1593.4181311167777,2.0,1.0,phase_3,,,,,170.0,5.0,68.0,34.0,204.0,170.0,136.0,102.0,blue,flipped triangle
0.0,4.0,4.0,0.0,7.0,2.0,2377.0624520257115,2.0,1.0,phase_3,,,,,264.0,6.0,88.0,264.0,176.0,44.0,132.0,220.0,magenta,square
0.0,5.0,1.0,1.0,7.0,5.0,1585.2328820619732,2.0,1.0,phase_3,,,,,234.0,6.0,39.0,195.0,117.0,78.0,234.0,156.0,cyan,I
0.0,2.0,2.0,0.0,7.0,3.0,1721.8429220374674,2.0,1.0,phase_3,,,,,204.0,6.0,68.0,102.0,204.0,136.0,170.0,34.0,yellow,hexagon
0.0,6.0,2.0,1.0,7.0,2.0,1787.0588260702789,2.0,1.0,phase_3,,,,,117.0,3.0,39.0,117.0,195.0,78.0,156.0,234.0,gray,circle
0.0,8.0,4.0,1.0,7.0,3.0,1998.33620688878,2.0,1.0,phase_3,,,,,196.0,4.0,245.0,49.0,196.0,147.0,98.0,294.0,green,triangle
0.0,8.0,4.0,1.0,7.0,1.0,2062.024228041992,2.0,1.0,phase_3,,,,,147.0,3.0,147.0,294.0,49.0,245.0,98.0,196.0,green,triangle
0.0,1.0,1.0,0.0,7.0,4.0,2249.7168169356883,2.0,1.0,phase_3,,,,,49.0,1.0,98.0,147.0,294.0,49.0,245.0,196.0,white,diamond
0.0,4.0,4.0,0.0,7.0,1.0,1602.433759951964,2.0,1.0,phase_3,,,,,264.0,6.0,264.0,44.0,132.0,220.0,88.0,176.0,magenta,square
0.0,4.0,4.0,0.0,7.0,4.0,1716.4363618940115,2.0,1.0,phase_3,,,,,324.0,6.0,108.0,270.0,162.0,324.0,54.0,216.0,magenta,square
0.0,1.0,1.0,0.0,7.0,5.0,1943.1445440277455,2.0,1.0,phase_3,,,,,108.0,2.0,270.0,216.0,324.0,162.0,108.0,54.0,white,diamond
0.0,6.0,2.0,1.0,7.0,2.0,2583.515702979639,2.0,1.0,phase_3,,,,,132.0,3.0,44.0,132.0,264.0,88.0,220.0,176.0,gray,circle
0.0,6.0,2.0,1.0,7.0,5.0,1354.2384530883282,2.0,1.0,phase_3,,,,,108.0,2.0,324.0,54.0,162.0,270.0,108.0,216.0,gray,circle
0.0,2.0,2.0,0.0,7.0,2.0,2257.076728856191,2.0,1.0,phase_3,,,,,234.0,6.0,195.0,234.0,117.0,156.0,39.0,78.0,yellow,hexagon
0.0,4.0,4.0,0.0,7.0,6.0,3108.49322588183,2.0,1.0,phase_3,,,,,204.0,6.0,170.0,34.0,102.0,68.0,136.0,204.0,magenta,square
0.0,3.0,3.0,0.0,7.0,5.0,2396.0634181275964,2.0,1.0,phase_3,,,,,117.0,3.0,195.0,78.0,234.0,156.0,117.0,39.0,blue,flipped triangle
0.0,5.0,1.0,1.0,7.0,2.0,3982.589403167367,2.0,1.0,phase_3,,,,,324.0,6.0,162.0,324.0,54.0,108.0,216.0,270.0,cyan,I
0.0,6.0,2.0,1.0,7.0,5.0,2035.8060169965029,2.0,1.0,phase_3,,,,,88.0,2.0,132.0,44.0,264.0,220.0,88.0,176.0,gray,circle
0.0,3.0,3.0,0.0,7.0,4.0,2549.002616899088,2.0,1.0,phase_3,,,,,162.0,3.0,54.0,324.0,108.0,162.0,270.0,216.0,blue,flipped triangle
0.0,4.0,4.0,0.0,7.0,6.0,1833.0727140419183,2.0,1.0,phase_3,,,,,234.0,6.0,39.0,78.0,156.0,195.0,117.0,234.0,magenta,square
0.0,2.0,2.0,0.0,7.0,3.0,1568.6533250845969,3.0,1.0,phase_3,,,,,204.0,6.0,136.0,170.0,204.0,34.0,68.0,102.0,yellow,hexagon
0.0,4.0,4.0,0.0,7.0,5.0,1861.584687139839,3.0,1.0,phase_3,,,,,204.0,6.0,68.0,136.0,102.0,34.0,204.0,170.0,magenta,square
0.0,8.0,4.0,1.0,7.0,2.0,2429.923014948145,3.0,1.0,phase_3,,,,,136.0,4.0,34.0,136.0,102.0,204.0,68.0,170.0,green,triangle
0.0,2.0,2.0,0.0,7.0,4.0,1845.2144209295511,3.0,1.0,phase_3,,,,,324.0,6.0,54.0,162.0,216.0,324.0,270.0,108.0,yellow,hexagon
0.0,2.0,2.0,0.0,7.0,3.0,1832.5661988928916,3.0,1.0,phase_3,,,,,234.0,6.0,78.0,117.0,234.0,39.0,156.0,195.0,yellow,hexagon
0.0,1.0,1.0,0.0,7.0,4.0,2939.928327919916,3.0,1.0,phase_3,,,,,136.0,4.0,170.0,102.0,34.0,136.0,204.0,68.0,white,diamond
0.0,1.0,1.0,0.0,7.0,2.0,1667.7373237907889,3.0,1.0,phase_3,,,,,78.0,2.0,156.0,78.0,39.0,195.0,117.0,234.0,white,diamond
0.0,2.0,2.0,0.0,7.0,5.0,2586.3372460007668,3.0,1.0,phase_3,,,,,176.0,4.0,88.0,44.0,220.0,132.0,176.0,264.0,yellow,hexagon
0.0,8.0,4.0,1.0,7.0,1.0,2300.3338540438563,3.0,1.0,phase_3,,,,,170.0,5.0,170.0,68.0,204.0,102.0,34.0,136.0,green,triangle
0.0,3.0,3.0,0.0,7.0,4.0,2248.7310129217803,3.0,1.0,phase_3,,,,,176.0,4.0,264.0,88.0,132.0,176.0,44.0,220.0,blue,flipped triangle
0.0,5.0,1.0,1.0,7.0,5.0,2374.696939950809,3.0,1.0,phase_3,,,,,102.0,3.0,204.0,136.0,34.0,68.0,102.0,170.0,cyan,I
0.0,5.0,1.0,1.0,7.0,1.0,2137.8001992125064,3.0,1.0,phase_3,,,,,108.0,2.0,108.0,216.0,270.0,324.0,162.0,54.0,cyan,I
0.0,2.0,2.0,0.0,7.0,4.0,1721.515967976302,3.0,1.0,phase_3,,,,,216.0,4.0,54.0,270.0,324.0,216.0,162.0,108.0,yellow,hexagon
0.0,7.0,3.0,1.0,7.0,3.0,2212.906706146896,3.0,1.0,phase_3,,,,,195.0,5.0,39.0,78.0,195.0,156.0,234.0,117.0,orange,cross
0.0,6.0,2.0,1.0,7.0,2.0,2799.5391220320016,3.0,1.0,phase_3,,,,,78.0,2.0,39.0,78.0,195.0,117.0,234.0,156.0,gray,circle
0.0,8.0,4.0,1.0,7.0,2.0,3918.4588368516415,3.0,1.0,phase_3,,,,,162.0,3.0,216.0,162.0,108.0,270.0,54.0,324.0,green,triangle
0.0,4.0,4.0,0.0,7.0,3.0,1816.1250301636755,3.0,1.0,phase_3,,,,,294.0,6.0,49.0,98.0,294.0,245.0,196.0,147.0,magenta,square
0.0,1.0,1.0,0.0,7.0,2.0,1635.5047491379082,3.0,1.0,phase_3,,,,,78.0,2.0,39.0,78.0,156.0,117.0,195.0,234.0,white,diamond
0.0,5.0,1.0,1.0,7.0,4.0,1635.3632749523968,3.0,1.0,phase_3,,,,,204.0,6.0,34.0,102.0,136.0,204.0,170.0,68.0,cyan,I
0.0,4.0,4.0,0.0,7.0,6.0,2581.733416998759,3.0,1.0,phase_3,,,,,234.0,6.0,117.0,78.0,39.0,195.0,156.0,234.0,magenta,square
0.0,5.0,1.0,1.0,7.0,4.0,1726.8045728560537,4.0,1.0,phase_3,,,,,156.0,4.0,234.0,78.0,117.0,156.0,195.0,39.0,cyan,I
0.0,7.0,3.0,1.0,7.0,4.0,3482.897775946185,4.0,1.0,phase_3,,,,,162.0,3.0,216.0,108.0,270.0,162.0,54.0,324.0,orange,cross
0.0,3.0,3.0,0.0,7.0,1.0,4353.435853030533,4.0,1.0,phase_3,,,,,170.0,5.0,170.0,68.0,204.0,102.0,34.0,136.0,blue,flipped triangle
0.0,7.0,3.0,1.0,7.0,4.0,3058.7305878289044,4.0,1.0,phase_3,,,,,156.0,4.0,195.0,78.0,39.0,156.0,234.0,117.0,orange,cross
0.0,7.0,3.0,1.0,7.0,2.0,1789.2966479994357,4.0,1.0,phase_3,,,,,136.0,4.0,170.0,136.0,34.0,204.0,102.0,68.0,orange,cross
0.0,2.0,2.0,0.0,7.0,6.0,1908.320368966088,4.0,1.0,phase_3,,,,,245.0,5.0,294.0,147.0,196.0,98.0,49.0,245.0,yellow,hexagon
0.0,5.0,1.0,1.0,7.0,5.0,2664.472992066294,4.0,1.0,phase_3,,,,,147.0,3.0,98.0,196.0,245.0,294.0,147.0,49.0,cyan,I
0.0,8.0,4.0,1.0,7.0,4.0,4127.278181957081,4.0,1.0,phase_3,,,,,270.0,5.0,324.0,108.0,216.0,270.0,54.0,162.0,green,triangle
0.0,2.0,2.0,0.0,7.0,6.0,2628.611946012825,4.0,1.0,phase_3,,,,,264.0,6.0,88.0,220.0,132.0,176.0,44.0,264.0,yellow,hexagon
0.0,6.0,2.0,1.0,7.0,6.0,2277.815994108096,4.0,1.0,phase_3,,,,,108.0,2.0,162.0,216.0,324.0,270.0,54.0,108.0,gray,circle
0.0,4.0,4.0,0.0,7.0,4.0,2125.8989949710667,4.0,1.0,phase_3,,,,,324.0,6.0,162.0,270.0,108.0,324.0,216.0,54.0,magenta,square
0.0,8.0,4.0,1.0,7.0,1.0,3269.475613022223,4.0,1.0,phase_3,,,,,117.0,3.0,117.0,195.0,156.0,234.0,78.0,39.0,green,triangle
0.0,7.0,3.0,1.0,7.0,5.0,1543.1677119340748,4.0,1.0,phase_3,,,,,132.0,3.0,264.0,220.0,88.0,176.0,132.0,44.0,orange,cross
0.0,3.0,3.0,0.0,7.0,5.0,3010.027753887698,4.0,1.0,phase_3,,,,,196.0,4.0,294.0,245.0,49.0,147.0,196.0,98.0,blue,flipped triangle
0.0,1.0,1.0,0.0,7.0,2.0,2956.847323803231,4.0,1.0,phase_3,,,,,102.0,3.0,136.0,102.0,170.0,34.0,68.0,204.0,white,diamond
0.0,7.0,3.0,1.0,7.0,4.0,2286.033512093127,4.0,1.0,phase_3,,,,,204.0,6.0,102.0,34.0,68.0,204.0,136.0,170.0,orange,cross
0.0,1.0,1.0,0.0,7.0,4.0,2628.542031859979,4.0,1.0,phase_3,,,,,98.0,2.0,245.0,196.0,294.0,98.0,147.0,49.0,white,diamond
0.0,6.0,2.0,1.0,7.0,5.0,3213.482269784436,4.0,1.0,phase_3,,,,,98.0,2.0,245.0,147.0,196.0,49.0,98.0,294.0,gray,circle
0.0,8.0,4.0,1.0,7.0,3.0,2342.9182779509574,4.0,1.0,phase_3,,,,,132.0,3.0,44.0,220.0,132.0,176.0,88.0,264.0,green,triangle
0.0,3.0,3.0,0.0,7.0,4.0,3352.067724103108,4.0,1.0,phase_3,,,,,324.0,6.0,54.0,216.0,108.0,324.0,162.0,270.0,blue,flipped triangle
