raw_reward_magnitude,stim_reward,stepwise_reward_magnitude,paired_with_stopping,stim_location,response,reaction_time,block,num_trial_presentations,which_phase,stop_signal_trial_type,left_SSD,right_SSD,accuracy,chosen_bidding_amount,chosen_bidding_level,possible_bid_1,possible_bid_2,possible_bid_3,possible_bid_4,possible_bid_5,possible_bid_6,color_text,shape_text
41.0,5.0,1.0,1.0,3.0,3.0,514.8630489129573,1.0,1.0,phase_1,,,,,,,,,,,,,blue,I
200.0,3.0,3.0,0.0,2.0,2.0,423.2278990093618,1.0,1.0,phase_1,,,,,,,,,,,,,magenta,flipped triangle
413.0,4.0,4.0,0.0,2.0,2.0,378.8533150218427,1.0,1.0,phase_1,,,,,,,,,,,,,white,circle
423.0,4.0,4.0,0.0,3.0,3.0,279.2004810180515,1.0,1.0,phase_1,,,,,,,,,,,,,white,circle
401.0,4.0,4.0,0.0,1.0,1.0,318.4695281088352,1.0,1.0,phase_1,,,,,,,,,,,,,white,circle
389.0,8.0,4.0,1.0,2.0,2.0,344.7139179334044,1.0,1.0,phase_1,,,,,,,,,,,,,cyan,triangle
183.0,7.0,3.0,1.0,2.0,2.0,317.9068260360509,1.0,2.0,phase_1,,,,,,,,,,,,,yellow,hexagon
84.0,6.0,2.0,1.0,4.0,4.0,382.9414248466491,1.0,1.0,phase_1,,,,,,,,,,,,,orange,square
0.0,8.0,0.0,1.0,4.0,4.0,310.7251150067895,1.0,1.0,phase_1,,,,,,,,,,,,,cyan,triangle
419.0,4.0,4.0,0.0,4.0,4.0,356.3738251104951,1.0,1.0,phase_1,,,,,,,,,,,,,white,circle
0.0,8.0,0.0,1.0,1.0,1.0,341.5479799732566,1.0,1.0,phase_1,,,,,,,,,,,,,cyan,triangle
391.0,8.0,4.0,1.0,3.0,3.0,266.5458570700139,1.0,1.0,phase_1,,,,,,,,,,,,,cyan,triangle
66.0,1.0,1.0,0.0,2.0,2.0,262.4733729753643,1.0,1.0,phase_1,,,,,,,,,,,,,green,cross
0.0,7.0,0.0,1.0,2.0,2.0,298.9698839373886,1.0,1.0,phase_1,,,,,,,,,,,,,yellow,hexagon
0.0,8.0,0.0,1.0,2.0,2.0,319.7965258732438,1.0,1.0,phase_1,,,,,,,,,,,,,cyan,triangle
0.0,2.0,0.0,0.0,3.0,3.0,320.4455848317593,1.0,1.0,phase_1,,,,,,,,,,,,,gray,diamond
213.0,7.0,3.0,1.0,4.0,4.0,313.0282338242978,1.0,1.0,phase_1,,,,,,,,,,,,,yellow,hexagon
101.0,2.0,2.0,0.0,3.0,3.0,320.2029338572174,1.0,1.0,phase_1,,,,,,,,,,,,,gray,diamond
204.0,7.0,3.0,1.0,3.0,3.0,366.0865870770067,1.0,1.0,phase_1,,,,,,,,,,,,,yellow,hexagon
35.0,1.0,1.0,0.0,2.0,2.0,306.9507861509919,1.0,1.0,phase_1,,,,,,,,,,,,,green,cross
32.0,5.0,1.0,1.0,3.0,3.0,262.017167173326,1.0,1.0,phase_1,,,,,,,,,,,,,blue,I
422.0,4.0,4.0,0.0,3.0,3.0,332.4746428988874,1.0,1.0,phase_1,,,,,,,,,,,,,white,circle
52.0,5.0,1.0,1.0,2.0,2.0,309.686420019716,1.0,1.0,phase_1,,,,,,,,,,,,,blue,I
413.0,8.0,4.0,1.0,1.0,1.0,324.3115590885281,1.0,1.0,phase_1,,,,,,,,,,,,,cyan,triangle
0.0,8.0,0.0,1.0,2.0,2.0,237.2325349133461,1.0,2.0,phase_1,,,,,,,,,,,,,cyan,triangle
48.0,5.0,1.0,1.0,3.0,3.0,329.8074379563331,1.0,1.0,phase_1,,,,,,,,,,,,,blue,I
0.0,6.0,0.0,1.0,2.0,2.0,268.1684428825974,1.0,1.0,phase_1,,,,,,,,,,,,,orange,square
91.0,6.0,2.0,1.0,2.0,2.0,250.3701460082084,1.0,1.0,phase_1,,,,,,,,,,,,,orange,square
189.0,3.0,3.0,0.0,1.0,1.0,373.8413939718157,1.0,1.0,phase_1,,,,,,,,,,,,,magenta,flipped triangle
51.0,5.0,1.0,1.0,1.0,1.0,482.5868371408432,1.0,1.0,phase_1,,,,,,,,,,,,,blue,I
215.0,3.0,3.0,0.0,4.0,4.0,454.4800601433962,1.0,2.0,phase_1,,,,,,,,,,,,,magenta,flipped triangle
105.0,6.0,2.0,1.0,2.0,2.0,274.7404349502176,1.0,1.0,phase_1,,,,,,,,,,,,,orange,square
49.0,1.0,1.0,0.0,2.0,2.0,237.746253143996,1.0,1.0,phase_1,,,,,,,,,,,,,green,cross
80.0,2.0,2.0,0.0,4.0,4.0,356.9880500435829,1.0,1.0,phase_1,,,,,,,,,,,,,gray,diamond
176.0,3.0,3.0,0.0,2.0,2.0,233.228086028248,1.0,1.0,phase_1,,,,,,,,,,,,,magenta,flipped triangle
117.0,2.0,2.0,0.0,1.0,1.0,253.498847130686,1.0,1.0,phase_1,,,,,,,,,,,,,gray,diamond
390.0,4.0,4.0,0.0,1.0,1.0,282.6566679868847,1.0,1.0,phase_1,,,,,,,,,,,,,white,circle
185.0,7.0,3.0,1.0,1.0,1.0,311.956383055076,1.0,1.0,phase_1,,,,,,,,,,,,,yellow,hexagon
0.0,6.0,0.0,1.0,2.0,2.0,271.0592348594218,1.0,2.0,phase_1,,,,,,,,,,,,,orange,square
0.0,3.0,0.0,0.0,2.0,2.0,291.4681530091911,1.0,1.0,phase_1,,,,,,,,,,,,,magenta,flipped triangle
382.0,8.0,4.0,1.0,4.0,4.0,305.532697122544,1.0,1.0,phase_1,,,,,,,,,,,,,cyan,triangle
389.0,8.0,4.0,1.0,4.0,4.0,316.5468440856784,1.0,1.0,phase_1,,,,,,,,,,,,,cyan,triangle
176.0,7.0,3.0,1.0,4.0,4.0,275.5268660839647,1.0,1.0,phase_1,,,,,,,,,,,,,yellow,hexagon
0.0,3.0,0.0,0.0,4.0,4.0,296.378003899008,1.0,1.0,phase_1,,,,,,,,,,,,,magenta,flipped triangle
26.0,5.0,1.0,1.0,1.0,1.0,378.0530930962413,1.0,1.0,phase_1,,,,,,,,,,,,,blue,I
50.0,5.0,1.0,1.0,3.0,3.0,391.2577950395643,1.0,1.0,phase_1,,,,,,,,,,,,,blue,I
0.0,1.0,0.0,0.0,3.0,3.0,323.8837111275643,1.0,1.0,phase_1,,,,,,,,,,,,,green,cross
91.0,2.0,2.0,0.0,1.0,1.0,355.1210849545896,1.0,1.0,phase_1,,,,,,,,,,,,,gray,diamond
118.0,6.0,2.0,1.0,2.0,2.0,309.160937089473,1.0,1.0,phase_1,,,,,,,,,,,,,orange,square
410.0,4.0,4.0,0.0,3.0,3.0,330.3177368361503,1.0,1.0,phase_1,,,,,,,,,,,,,white,circle
32.0,1.0,1.0,0.0,4.0,4.0,306.1550459824502,1.0,1.0,phase_1,,,,,,,,,,,,,green,cross
194.0,3.0,3.0,0.0,1.0,1.0,283.3858740050345,1.0,1.0,phase_1,,,,,,,,,,,,,magenta,flipped triangle
86.0,6.0,2.0,1.0,4.0,4.0,320.5107960384339,1.0,1.0,phase_1,,,,,,,,,,,,,orange,square
184.0,3.0,3.0,0.0,3.0,3.0,404.6734850853681,1.0,1.0,phase_1,,,,,,,,,,,,,magenta,flipped triangle
59.0,1.0,1.0,0.0,4.0,4.0,309.2157510109246,1.0,1.0,phase_1,,,,,,,,,,,,,green,cross
119.0,6.0,2.0,1.0,1.0,1.0,310.3342759422958,1.0,1.0,phase_1,,,,,,,,,,,,,orange,square
418.0,4.0,4.0,0.0,1.0,1.0,387.1636800467968,1.0,1.0,phase_1,,,,,,,,,,,,,white,circle
200.0,3.0,3.0,0.0,3.0,3.0,329.8572511412203,1.0,1.0,phase_1,,,,,,,,,,,,,magenta,flipped triangle
68.0,1.0,1.0,0.0,2.0,2.0,291.6670888662338,1.0,1.0,phase_1,,,,,,,,,,,,,green,cross
75.0,6.0,2.0,1.0,1.0,1.0,234.4089210964739,1.0,1.0,phase_1,,,,,,,,,,,,,orange,square
409.0,8.0,4.0,1.0,1.0,1.0,230.922918068245,1.0,1.0,phase_1,,,,,,,,,,,,,cyan,triangle
61.0,5.0,1.0,1.0,1.0,1.0,212.5269279349595,1.0,1.0,phase_1,,,,,,,,,,,,,blue,I
98.0,6.0,2.0,1.0,4.0,4.0,281.9096450693905,1.0,1.0,phase_1,,,,,,,,,,,,,orange,square
0.0,8.0,0.0,1.0,3.0,3.0,302.6505620218813,1.0,1.0,phase_1,,,,,,,,,,,,,cyan,triangle
107.0,6.0,2.0,1.0,1.0,1.0,290.4128599911928,1.0,1.0,phase_1,,,,,,,,,,,,,orange,square
220.0,3.0,3.0,0.0,3.0,3.0,327.8358858078718,1.0,1.0,phase_1,,,,,,,,,,,,,magenta,flipped triangle
190.0,3.0,3.0,0.0,3.0,3.0,290.5035740695894,1.0,1.0,phase_1,,,,,,,,,,,,,magenta,flipped triangle
189.0,7.0,3.0,1.0,2.0,2.0,271.0924870334565,1.0,1.0,phase_1,,,,,,,,,,,,,yellow,hexagon
0.0,6.0,0.0,1.0,4.0,4.0,263.6055829934776,1.0,2.0,phase_1,,,,,,,,,,,,,orange,square
0.0,2.0,0.0,0.0,1.0,1.0,276.6780010424554,1.0,1.0,phase_1,,,,,,,,,,,,,gray,diamond
42.0,5.0,1.0,1.0,3.0,3.0,282.8996509779244,1.0,1.0,phase_1,,,,,,,,,,,,,blue,I
60.0,1.0,1.0,0.0,3.0,3.0,361.7217729333788,1.0,1.0,phase_1,,,,,,,,,,,,,green,cross
413.0,4.0,4.0,0.0,4.0,4.0,300.083469832316,1.0,1.0,phase_1,,,,,,,,,,,,,white,circle
185.0,3.0,3.0,0.0,2.0,2.0,305.8222238905728,1.0,1.0,phase_1,,,,,,,,,,,,,magenta,flipped triangle
94.0,2.0,2.0,0.0,2.0,2.0,427.4503099732101,1.0,1.0,phase_1,,,,,,,,,,,,,gray,diamond
379.0,4.0,4.0,0.0,4.0,4.0,321.8065148685127,1.0,1.0,phase_1,,,,,,,,,,,,,white,circle
400.0,8.0,4.0,1.0,4.0,4.0,349.6942739002406,1.0,1.0,phase_1,,,,,,,,,,,,,cyan,triangle
389.0,4.0,4.0,0.0,3.0,3.0,313.65534686483437,1.0,1.0,phase_1,,,,,,,,,,,,,white,circle
0.0,3.0,0.0,0.0,3.0,3.0,350.5307550076395,1.0,1.0,phase_1,,,,,,,,,,,,,magenta,flipped triangle
27.0,1.0,1.0,0.0,1.0,1.0,380.9205919969827,1.0,1.0,phase_1,,,,,,,,,,,,,green,cross
399.0,4.0,4.0,0.0,1.0,1.0,332.6070772018283,1.0,1.0,phase_1,,,,,,,,,,,,,white,circle
183.0,3.0,3.0,0.0,4.0,4.0,357.4866210110485,1.0,1.0,phase_1,,,,,,,,,,,,,magenta,flipped triangle
0.0,1.0,0.0,0.0,4.0,4.0,289.022970944643,1.0,1.0,phase_1,,,,,,,,,,,,,green,cross
394.0,8.0,4.0,1.0,3.0,3.0,310.9155620913952,1.0,1.0,phase_1,,,,,,,,,,,,,cyan,triangle
104.0,6.0,2.0,1.0,2.0,2.0,258.478983072564,1.0,1.0,phase_1,,,,,,,,,,,,,orange,square
0.0,1.0,0.0,0.0,4.0,4.0,352.6600708719343,1.0,1.0,phase_1,,,,,,,,,,,,,green,cross
221.0,3.0,3.0,0.0,2.0,2.0,324.6657119598239,1.0,1.0,phase_1,,,,,,,,,,,,,magenta,flipped triangle
47.0,1.0,1.0,0.0,4.0,4.0,273.6119199544191,1.0,1.0,phase_1,,,,,,,,,,,,,green,cross
385.0,4.0,4.0,0.0,4.0,4.0,285.1000931113958,1.0,1.0,phase_1,,,,,,,,,,,,,white,circle
195.0,3.0,3.0,0.0,3.0,3.0,437.4723169021308,1.0,1.0,phase_1,,,,,,,,,,,,,magenta,flipped triangle
0.0,5.0,0.0,1.0,4.0,4.0,309.175776084885,1.0,2.0,phase_1,,,,,,,,,,,,,blue,I
83.0,2.0,2.0,0.0,4.0,4.0,235.1150179747492,1.0,1.0,phase_1,,,,,,,,,,,,,gray,diamond
0.0,4.0,0.0,0.0,1.0,1.0,256.1772880144417,1.0,1.0,phase_1,,,,,,,,,,,,,white,circle
200.0,7.0,3.0,1.0,1.0,1.0,307.7637341339141,1.0,1.0,phase_1,,,,,,,,,,,,,yellow,hexagon
78.0,2.0,2.0,0.0,2.0,2.0,294.3100179545581,1.0,1.0,phase_1,,,,,,,,,,,,,gray,diamond
396.0,8.0,4.0,1.0,1.0,1.0,340.8903840463608,1.0,1.0,phase_1,,,,,,,,,,,,,cyan,triangle
385.0,8.0,4.0,1.0,3.0,3.0,263.6306488420814,1.0,1.0,phase_1,,,,,,,,,,,,,cyan,triangle
94.0,6.0,2.0,1.0,1.0,1.0,414.6297639235854,1.0,1.0,phase_1,,,,,,,,,,,,,orange,square
77.0,6.0,2.0,1.0,2.0,2.0,299.7496130410582,1.0,1.0,phase_1,,,,,,,,,,,,,orange,square
116.0,6.0,2.0,1.0,1.0,1.0,269.5710069965571,1.0,1.0,phase_1,,,,,,,,,,,,,orange,square
398.0,4.0,4.0,0.0,4.0,4.0,381.081550847739,2.0,1.0,phase_1,,,,,,,,,,,,,white,circle
0.0,6.0,0.0,1.0,1.0,1.0,356.7982518579811,2.0,1.0,phase_1,,,,,,,,,,,,,orange,square
0.0,2.0,0.0,0.0,1.0,1.0,288.8707178644836,2.0,1.0,phase_1,,,,,,,,,,,,,gray,diamond
0.0,4.0,0.0,0.0,2.0,2.0,291.3216101005673,2.0,1.0,phase_1,,,,,,,,,,,,,white,circle
195.0,7.0,3.0,1.0,1.0,1.0,262.9202760290354,2.0,1.0,phase_1,,,,,,,,,,,,,yellow,hexagon
0.0,6.0,0.0,1.0,4.0,4.0,279.7004270832985,2.0,1.0,phase_1,,,,,,,,,,,,,orange,square
94.0,2.0,2.0,0.0,1.0,1.0,257.4596891645342,2.0,1.0,phase_1,,,,,,,,,,,,,gray,diamond
0.0,4.0,0.0,0.0,3.0,3.0,278.6323179025203,2.0,1.0,phase_1,,,,,,,,,,,,,white,circle
0.0,2.0,0.0,0.0,2.0,2.0,245.1816899701953,2.0,1.0,phase_1,,,,,,,,,,,,,gray,diamond
113.0,6.0,2.0,1.0,4.0,4.0,312.3315370175987,2.0,1.0,phase_1,,,,,,,,,,,,,orange,square
0.0,3.0,0.0,0.0,2.0,2.0,213.7386358808726,2.0,1.0,phase_1,,,,,,,,,,,,,magenta,flipped triangle
49.0,1.0,1.0,0.0,4.0,4.0,218.1449769996106,2.0,1.0,phase_1,,,,,,,,,,,,,green,cross
0.0,1.0,0.0,0.0,2.0,2.0,294.6612699888646,2.0,1.0,phase_1,,,,,,,,,,,,,green,cross
0.0,2.0,0.0,0.0,1.0,1.0,303.2584220636636,2.0,2.0,phase_1,,,,,,,,,,,,,gray,diamond
61.0,1.0,1.0,0.0,3.0,3.0,276.3752001337707,2.0,1.0,phase_1,,,,,,,,,,,,,green,cross
55.0,1.0,1.0,0.0,1.0,1.0,216.2858969531953,2.0,1.0,phase_1,,,,,,,,,,,,,green,cross
105.0,2.0,2.0,0.0,2.0,2.0,295.5821570940316,2.0,1.0,phase_1,,,,,,,,,,,,,gray,diamond
80.0,6.0,2.0,1.0,3.0,3.0,369.2732411436736,2.0,1.0,phase_1,,,,,,,,,,,,,orange,square
84.0,2.0,2.0,0.0,4.0,4.0,286.9219519197941,2.0,1.0,phase_1,,,,,,,,,,,,,gray,diamond
47.0,5.0,1.0,1.0,2.0,2.0,282.438286114484,2.0,1.0,phase_1,,,,,,,,,,,,,blue,I
35.0,5.0,1.0,1.0,4.0,4.0,328.0981360003352,2.0,1.0,phase_1,,,,,,,,,,,,,blue,I
102.0,2.0,2.0,0.0,1.0,1.0,219.7351099457591,2.0,1.0,phase_1,,,,,,,,,,,,,gray,diamond
68.0,5.0,1.0,1.0,4.0,4.0,264.8954598698765,2.0,1.0,phase_1,,,,,,,,,,,,,blue,I
0.0,5.0,0.0,1.0,2.0,2.0,261.3478109706193,2.0,1.0,phase_1,,,,,,,,,,,,,blue,I
401.0,8.0,4.0,1.0,1.0,1.0,261.160033987835,2.0,1.0,phase_1,,,,,,,,,,,,,cyan,triangle
72.0,5.0,1.0,1.0,3.0,3.0,262.4297640286386,2.0,1.0,phase_1,,,,,,,,,,,,,blue,I
207.0,3.0,3.0,0.0,4.0,4.0,267.7619918249547,2.0,1.0,phase_1,,,,,,,,,,,,,magenta,flipped triangle
195.0,7.0,3.0,1.0,3.0,3.0,287.5565078575164,2.0,1.0,phase_1,,,,,,,,,,,,,yellow,hexagon
403.0,8.0,4.0,1.0,2.0,2.0,247.9664778802544,2.0,1.0,phase_1,,,,,,,,,,,,,cyan,triangle
206.0,3.0,3.0,0.0,1.0,1.0,218.6791349668055,2.0,1.0,phase_1,,,,,,,,,,,,,magenta,flipped triangle
28.0,5.0,1.0,1.0,1.0,1.0,325.497288024053,2.0,1.0,phase_1,,,,,,,,,,,,,blue,I
88.0,2.0,2.0,0.0,4.0,4.0,335.5261320248246,2.0,2.0,phase_1,,,,,,,,,,,,,gray,diamond
194.0,7.0,3.0,1.0,4.0,4.0,270.8410921040922,2.0,1.0,phase_1,,,,,,,,,,,,,yellow,hexagon
0.0,4.0,0.0,0.0,4.0,4.0,275.6460590753704,2.0,1.0,phase_1,,,,,,,,,,,,,white,circle
104.0,6.0,2.0,1.0,4.0,4.0,264.2873970326036,2.0,1.0,phase_1,,,,,,,,,,,,,orange,square
389.0,4.0,4.0,0.0,3.0,3.0,300.4135671071708,2.0,1.0,phase_1,,,,,,,,,,,,,white,circle
80.0,6.0,2.0,1.0,4.0,4.0,289.0654460061341,2.0,1.0,phase_1,,,,,,,,,,,,,orange,square
77.0,2.0,2.0,0.0,3.0,3.0,259.9668509792536,2.0,1.0,phase_1,,,,,,,,,,,,,gray,diamond
50.0,1.0,1.0,0.0,1.0,1.0,295.5700061284005,2.0,1.0,phase_1,,,,,,,,,,,,,green,cross
204.0,7.0,3.0,1.0,2.0,2.0,238.0159508902579,2.0,1.0,phase_1,,,,,,,,,,,,,yellow,hexagon
49.0,5.0,1.0,1.0,1.0,1.0,308.3574569318443,2.0,1.0,phase_1,,,,,,,,,,,,,blue,I
375.0,4.0,4.0,0.0,2.0,2.0,214.420260163024,2.0,1.0,phase_1,,,,,,,,,,,,,white,circle
218.0,7.0,3.0,1.0,3.0,3.0,301.6345640644431,2.0,1.0,phase_1,,,,,,,,,,,,,yellow,hexagon
0.0,7.0,0.0,1.0,1.0,1.0,263.370226835832,2.0,1.0,phase_1,,,,,,,,,,,,,yellow,hexagon
104.0,2.0,2.0,0.0,1.0,1.0,308.385563082993,2.0,1.0,phase_1,,,,,,,,,,,,,gray,diamond
216.0,3.0,3.0,0.0,2.0,2.0,296.1882329545915,2.0,1.0,phase_1,,,,,,,,,,,,,magenta,flipped triangle
182.0,3.0,3.0,0.0,4.0,4.0,333.0934580881148,2.0,1.0,phase_1,,,,,,,,,,,,,magenta,flipped triangle
105.0,2.0,2.0,0.0,4.0,4.0,308.4387129638344,2.0,2.0,phase_1,,,,,,,,,,,,,gray,diamond
56.0,1.0,1.0,0.0,3.0,3.0,349.5895031373948,2.0,1.0,phase_1,,,,,,,,,,,,,green,cross
71.0,1.0,1.0,0.0,1.0,1.0,362.6459371298551,2.0,1.0,phase_1,,,,,,,,,,,,,green,cross
375.0,8.0,4.0,1.0,2.0,2.0,308.9088120032102,2.0,1.0,phase_1,,,,,,,,,,,,,cyan,triangle
111.0,6.0,2.0,1.0,3.0,3.0,307.4350450187921,2.0,1.0,phase_1,,,,,,,,,,,,,orange,square
28.0,1.0,1.0,0.0,2.0,2.0,269.9976498261094,2.0,1.0,phase_1,,,,,,,,,,,,,green,cross
0.0,7.0,0.0,1.0,3.0,3.0,408.157967031002,2.0,1.0,phase_1,,,,,,,,,,,,,yellow,hexagon
210.0,7.0,3.0,1.0,3.0,3.0,314.457941101864,2.0,1.0,phase_1,,,,,,,,,,,,,yellow,hexagon
41.0,1.0,1.0,0.0,3.0,3.0,269.9775919318199,2.0,1.0,phase_1,,,,,,,,,,,,,green,cross
37.0,5.0,1.0,1.0,4.0,4.0,258.3467329386621,2.0,1.0,phase_1,,,,,,,,,,,,,blue,I
107.0,6.0,2.0,1.0,1.0,1.0,328.4478238783777,2.0,1.0,phase_1,,,,,,,,,,,,,orange,square
210.0,3.0,3.0,0.0,2.0,2.0,316.4598559960723,2.0,1.0,phase_1,,,,,,,,,,,,,magenta,flipped triangle
101.0,6.0,2.0,1.0,4.0,4.0,263.5831669904291,2.0,1.0,phase_1,,,,,,,,,,,,,orange,square
201.0,7.0,3.0,1.0,2.0,2.0,316.3777817972004,2.0,1.0,phase_1,,,,,,,,,,,,,yellow,hexagon
191.0,7.0,3.0,1.0,2.0,2.0,345.6836198456585,2.0,1.0,phase_1,,,,,,,,,,,,,yellow,hexagon
0.0,5.0,0.0,1.0,3.0,3.0,296.5513688977808,2.0,1.0,phase_1,,,,,,,,,,,,,blue,I
384.0,4.0,4.0,0.0,3.0,3.0,268.2098380755633,2.0,1.0,phase_1,,,,,,,,,,,,,white,circle
389.0,4.0,4.0,0.0,1.0,1.0,311.0792781226337,2.0,1.0,phase_1,,,,,,,,,,,,,white,circle
0.0,2.0,0.0,0.0,2.0,2.0,251.1113749351352,2.0,1.0,phase_1,,,,,,,,,,,,,gray,diamond
0.0,3.0,0.0,0.0,1.0,1.0,275.583652080968,2.0,1.0,phase_1,,,,,,,,,,,,,magenta,flipped triangle
0.0,5.0,0.0,1.0,1.0,1.0,308.3833649288863,2.0,1.0,phase_1,,,,,,,,,,,,,blue,I
32.0,5.0,1.0,1.0,3.0,3.0,267.0968030579388,2.0,1.0,phase_1,,,,,,,,,,,,,blue,I
176.0,3.0,3.0,0.0,4.0,4.0,287.6456521917134,2.0,1.0,phase_1,,,,,,,,,,,,,magenta,flipped triangle
0.0,4.0,0.0,0.0,2.0,2.0,275.3022729884833,2.0,1.0,phase_1,,,,,,,,,,,,,white,circle
204.0,7.0,3.0,1.0,1.0,1.0,346.4013191405684,2.0,1.0,phase_1,,,,,,,,,,,,,yellow,hexagon
0.0,5.0,0.0,1.0,4.0,4.0,422.767291078344,2.0,1.0,phase_1,,,,,,,,,,,,,blue,I
176.0,7.0,3.0,1.0,4.0,4.0,338.1238260772079,2.0,1.0,phase_1,,,,,,,,,,,,,yellow,hexagon
55.0,5.0,1.0,1.0,2.0,2.0,303.6854730453342,2.0,1.0,phase_1,,,,,,,,,,,,,blue,I
64.0,1.0,1.0,0.0,1.0,1.0,290.5850878451019,2.0,1.0,phase_1,,,,,,,,,,,,,green,cross
107.0,2.0,2.0,0.0,1.0,1.0,318.4384568594396,2.0,1.0,phase_1,,,,,,,,,,,,,gray,diamond
389.0,4.0,4.0,0.0,3.0,3.0,303.0311658512801,2.0,1.0,phase_1,,,,,,,,,,,,,white,circle
382.0,4.0,4.0,0.0,2.0,2.0,435.8556731604039,2.0,1.0,phase_1,,,,,,,,,,,,,white,circle
0.0,3.0,0.0,0.0,4.0,4.0,257.875198032707,2.0,2.0,phase_1,,,,,,,,,,,,,magenta,flipped triangle
0.0,7.0,0.0,1.0,2.0,2.0,319.8294090107083,2.0,1.0,phase_1,,,,,,,,,,,,,yellow,hexagon
117.0,6.0,2.0,1.0,4.0,4.0,241.5157698560506,2.0,2.0,phase_1,,,,,,,,,,,,,orange,square
0.0,4.0,0.0,0.0,3.0,3.0,272.062388015911,2.0,1.0,phase_1,,,,,,,,,,,,,white,circle
0.0,4.0,0.0,0.0,1.0,1.0,344.8262540623545,2.0,1.0,phase_1,,,,,,,,,,,,,white,circle
118.0,2.0,2.0,0.0,3.0,3.0,272.453464102,2.0,1.0,phase_1,,,,,,,,,,,,,gray,diamond
419.0,8.0,4.0,1.0,1.0,1.0,361.938803922385,2.0,1.0,phase_1,,,,,,,,,,,,,cyan,triangle
101.0,6.0,2.0,1.0,1.0,1.0,321.74436096102,2.0,1.0,phase_1,,,,,,,,,,,,,orange,square
197.0,7.0,3.0,1.0,3.0,3.0,284.3467709608376,2.0,1.0,phase_1,,,,,,,,,,,,,yellow,hexagon
0.0,3.0,0.0,0.0,4.0,4.0,427.8773341793567,2.0,1.0,phase_1,,,,,,,,,,,,,magenta,flipped triangle
210.0,3.0,3.0,0.0,1.0,1.0,470.8367460407316,2.0,1.0,phase_1,,,,,,,,,,,,,magenta,flipped triangle
176.0,7.0,3.0,1.0,3.0,3.0,301.6000632196665,2.0,1.0,phase_1,,,,,,,,,,,,,yellow,hexagon
101.0,2.0,2.0,0.0,4.0,4.0,297.1382238902151,2.0,1.0,phase_1,,,,,,,,,,,,,gray,diamond
40.0,1.0,1.0,0.0,2.0,2.0,293.1089389603585,2.0,1.0,phase_1,,,,,,,,,,,,,green,cross
376.0,8.0,4.0,1.0,3.0,3.0,280.4430660326034,2.0,1.0,phase_1,,,,,,,,,,,,,cyan,triangle
412.0,8.0,4.0,1.0,1.0,1.0,308.6615139618516,2.0,1.0,phase_1,,,,,,,,,,,,,cyan,triangle
0.0,2.0,0.0,0.0,4.0,4.0,237.1431200299412,2.0,1.0,phase_1,,,,,,,,,,,,,gray,diamond
216.0,7.0,3.0,1.0,2.0,2.0,280.6422701105475,2.0,1.0,phase_1,,,,,,,,,,,,,yellow,hexagon
51.0,1.0,1.0,0.0,3.0,3.0,246.5661868918687,2.0,1.0,phase_1,,,,,,,,,,,,,green,cross
377.0,4.0,4.0,0.0,2.0,2.0,431.6352701280266,2.0,1.0,phase_1,,,,,,,,,,,,,white,circle
75.0,2.0,2.0,0.0,2.0,2.0,367.3735279589891,2.0,1.0,phase_1,,,,,,,,,,,,,gray,diamond
90.0,2.0,2.0,0.0,3.0,3.0,353.0972569715231,3.0,1.0,phase_1,,,,,,,,,,,,,gray,diamond
113.0,2.0,2.0,0.0,3.0,3.0,308.8290819432586,3.0,1.0,phase_1,,,,,,,,,,,,,gray,diamond
218.0,3.0,3.0,0.0,4.0,4.0,345.5674650613218,3.0,1.0,phase_1,,,,,,,,,,,,,magenta,flipped triangle
62.0,5.0,1.0,1.0,1.0,1.0,383.7110381573438,3.0,1.0,phase_1,,,,,,,,,,,,,blue,I
73.0,1.0,1.0,0.0,4.0,4.0,282.5452229008078,3.0,1.0,phase_1,,,,,,,,,,,,,green,cross
199.0,3.0,3.0,0.0,4.0,4.0,290.7910181675106,3.0,1.0,phase_1,,,,,,,,,,,,,magenta,flipped triangle
216.0,3.0,3.0,0.0,2.0,2.0,270.7557340618223,3.0,1.0,phase_1,,,,,,,,,,,,,magenta,flipped triangle
376.0,4.0,4.0,0.0,4.0,4.0,387.5014958903193,3.0,1.0,phase_1,,,,,,,,,,,,,white,circle
182.0,7.0,3.0,1.0,2.0,2.0,212.5199660658836,3.0,1.0,phase_1,,,,,,,,,,,,,yellow,hexagon
219.0,3.0,3.0,0.0,2.0,2.0,292.3663440160453,3.0,1.0,phase_1,,,,,,,,,,,,,magenta,flipped triangle
377.0,8.0,4.0,1.0,1.0,1.0,343.5811398085207,3.0,1.0,phase_1,,,,,,,,,,,,,cyan,triangle
190.0,7.0,3.0,1.0,4.0,4.0,382.6396060176193,3.0,1.0,phase_1,,,,,,,,,,,,,yellow,hexagon
180.0,7.0,3.0,1.0,4.0,4.0,290.5343321617692,3.0,1.0,phase_1,,,,,,,,,,,,,yellow,hexagon
49.0,5.0,1.0,1.0,1.0,1.0,365.2795138768852,3.0,1.0,phase_1,,,,,,,,,,,,,blue,I
396.0,8.0,4.0,1.0,3.0,3.0,307.6444999314844,3.0,1.0,phase_1,,,,,,,,,,,,,cyan,triangle
0.0,6.0,0.0,1.0,1.0,1.0,302.102455869317,3.0,1.0,phase_1,,,,,,,,,,,,,orange,square
207.0,7.0,3.0,1.0,1.0,1.0,252.68904003314668,3.0,1.0,phase_1,,,,,,,,,,,,,yellow,hexagon
37.0,1.0,1.0,0.0,1.0,1.0,336.5156829822808,3.0,1.0,phase_1,,,,,,,,,,,,,green,cross
111.0,2.0,2.0,0.0,4.0,4.0,295.3937980346381,3.0,1.0,phase_1,,,,,,,,,,,,,gray,diamond
62.0,1.0,1.0,0.0,3.0,3.0,344.9943689629435,3.0,1.0,phase_1,,,,,,,,,,,,,green,cross
26.0,1.0,1.0,0.0,3.0,3.0,262.4854499008506,3.0,1.0,phase_1,,,,,,,,,,,,,green,cross
0.0,5.0,0.0,1.0,1.0,1.0,283.8457790203392,3.0,1.0,phase_1,,,,,,,,,,,,,blue,I
40.0,1.0,1.0,0.0,4.0,4.0,312.9360030870884,3.0,1.0,phase_1,,,,,,,,,,,,,green,cross
400.0,4.0,4.0,0.0,2.0,2.0,219.2637100815773,3.0,1.0,phase_1,,,,,,,,,,,,,white,circle
104.0,2.0,2.0,0.0,2.0,2.0,304.4410371221602,3.0,2.0,phase_1,,,,,,,,,,,,,gray,diamond
48.0,1.0,1.0,0.0,4.0,4.0,301.0440999642014,3.0,1.0,phase_1,,,,,,,,,,,,,green,cross
422.0,4.0,4.0,0.0,3.0,3.0,288.34464796818787,3.0,1.0,phase_1,,,,,,,,,,,,,white,circle
207.0,3.0,3.0,0.0,3.0,3.0,309.6416820771992,3.0,1.0,phase_1,,,,,,,,,,,,,magenta,flipped triangle
204.0,3.0,3.0,0.0,1.0,1.0,280.4506910033524,3.0,1.0,phase_1,,,,,,,,,,,,,magenta,flipped triangle
176.0,3.0,3.0,0.0,1.0,1.0,263.1684308871627,3.0,1.0,phase_1,,,,,,,,,,,,,magenta,flipped triangle
390.0,8.0,4.0,1.0,2.0,2.0,275.094443000853,3.0,1.0,phase_1,,,,,,,,,,,,,cyan,triangle
64.0,5.0,1.0,1.0,1.0,1.0,254.4937110505998,3.0,1.0,phase_1,,,,,,,,,,,,,blue,I
0.0,7.0,0.0,1.0,1.0,1.0,262.8970411606133,3.0,2.0,phase_1,,,,,,,,,,,,,yellow,hexagon
201.0,3.0,3.0,0.0,2.0,2.0,259.4993349630385,3.0,2.0,phase_1,,,,,,,,,,,,,magenta,flipped triangle
213.0,3.0,3.0,0.0,4.0,4.0,336.5428100805729,3.0,1.0,phase_1,,,,,,,,,,,,,magenta,flipped triangle
52.0,5.0,1.0,1.0,4.0,4.0,291.7976230382919,3.0,1.0,phase_1,,,,,,,,,,,,,blue,I
0.0,8.0,0.0,1.0,1.0,1.0,277.9757960233837,3.0,1.0,phase_1,,,,,,,,,,,,,cyan,triangle
123.0,2.0,2.0,0.0,3.0,3.0,275.7003440055996,3.0,1.0,phase_1,,,,,,,,,,,,,gray,diamond
38.0,5.0,1.0,1.0,4.0,4.0,335.6389189139008,3.0,1.0,phase_1,,,,,,,,,,,,,blue,I
210.0,7.0,3.0,1.0,1.0,1.0,308.1997369881719,3.0,1.0,phase_1,,,,,,,,,,,,,yellow,hexagon
88.0,6.0,2.0,1.0,1.0,1.0,290.2510310523212,3.0,1.0,phase_1,,,,,,,,,,,,,orange,square
416.0,4.0,4.0,0.0,4.0,4.0,365.6138170044869,3.0,1.0,phase_1,,,,,,,,,,,,,white,circle
0.0,1.0,0.0,0.0,3.0,3.0,283.8238959666341,3.0,1.0,phase_1,,,,,,,,,,,,,green,cross
0.0,8.0,0.0,1.0,1.0,1.0,335.1191219408065,3.0,1.0,phase_1,,,,,,,,,,,,,cyan,triangle
59.0,5.0,1.0,1.0,1.0,1.0,315.191808855161,3.0,1.0,phase_1,,,,,,,,,,,,,blue,I
30.0,5.0,1.0,1.0,3.0,3.0,291.3481711875647,3.0,1.0,phase_1,,,,,,,,,,,,,blue,I
94.0,6.0,2.0,1.0,1.0,1.0,368.2617649901658,3.0,1.0,phase_1,,,,,,,,,,,,,orange,square
110.0,2.0,2.0,0.0,1.0,1.0,317.4785519950092,3.0,1.0,phase_1,,,,,,,,,,,,,gray,diamond
420.0,8.0,4.0,1.0,4.0,4.0,351.0003758128732,3.0,1.0,phase_1,,,,,,,,,,,,,cyan,triangle
0.0,5.0,0.0,1.0,4.0,4.0,365.710818208754,3.0,1.0,phase_1,,,,,,,,,,,,,blue,I
208.0,7.0,3.0,1.0,3.0,3.0,449.4080329313874,3.0,1.0,phase_1,,,,,,,,,,,,,yellow,hexagon
197.0,7.0,3.0,1.0,3.0,3.0,318.9911320805549,3.0,1.0,phase_1,,,,,,,,,,,,,yellow,hexagon
421.0,4.0,4.0,0.0,3.0,3.0,434.164181118831,3.0,1.0,phase_1,,,,,,,,,,,,,white,circle
391.0,4.0,4.0,0.0,3.0,3.0,654.7341078985482,3.0,1.0,phase_1,,,,,,,,,,,,,white,circle
206.0,7.0,3.0,1.0,2.0,2.0,366.4573580026626,3.0,1.0,phase_1,,,,,,,,,,,,,yellow,hexagon
57.0,5.0,1.0,1.0,2.0,2.0,313.7916778214276,3.0,1.0,phase_1,,,,,,,,,,,,,blue,I
204.0,3.0,3.0,0.0,1.0,1.0,300.0789450015872,3.0,1.0,phase_1,,,,,,,,,,,,,magenta,flipped triangle
83.0,6.0,2.0,1.0,2.0,2.0,330.4451259318739,3.0,1.0,phase_1,,,,,,,,,,,,,orange,square
410.0,8.0,4.0,1.0,2.0,2.0,296.5316958725452,3.0,1.0,phase_1,,,,,,,,,,,,,cyan,triangle
408.0,4.0,4.0,0.0,2.0,2.0,242.31091421097508,3.0,1.0,phase_1,,,,,,,,,,,,,white,circle
101.0,6.0,2.0,1.0,2.0,2.0,240.3477870393544,3.0,1.0,phase_1,,,,,,,,,,,,,orange,square
396.0,4.0,4.0,0.0,1.0,1.0,290.7672778237611,3.0,2.0,phase_1,,,,,,,,,,,,,white,circle
221.0,7.0,3.0,1.0,2.0,2.0,310.3805519640445,3.0,1.0,phase_1,,,,,,,,,,,,,yellow,hexagon
404.0,8.0,4.0,1.0,2.0,2.0,275.1744131091982,3.0,1.0,phase_1,,,,,,,,,,,,,cyan,triangle
388.0,8.0,4.0,1.0,1.0,1.0,296.01104487665,3.0,1.0,phase_1,,,,,,,,,,,,,cyan,triangle
122.0,6.0,2.0,1.0,2.0,2.0,261.9616538286209,3.0,1.0,phase_1,,,,,,,,,,,,,orange,square
420.0,8.0,4.0,1.0,3.0,3.0,345.3093029092997,3.0,1.0,phase_1,,,,,,,,,,,,,cyan,triangle
120.0,2.0,2.0,0.0,1.0,1.0,351.882471004501,3.0,3.0,phase_1,,,,,,,,,,,,,gray,diamond
0.0,7.0,0.0,1.0,3.0,3.0,266.4124008733779,3.0,1.0,phase_1,,,,,,,,,,,,,yellow,hexagon
0.0,6.0,0.0,1.0,2.0,2.0,313.4790831245482,3.0,1.0,phase_1,,,,,,,,,,,,,orange,square
52.0,5.0,1.0,1.0,1.0,1.0,342.7291738335043,3.0,1.0,phase_1,,,,,,,,,,,,,blue,I
195.0,3.0,3.0,0.0,1.0,1.0,338.0688668694347,3.0,1.0,phase_1,,,,,,,,,,,,,magenta,flipped triangle
207.0,7.0,3.0,1.0,3.0,3.0,302.3648399394005,3.0,1.0,phase_1,,,,,,,,,,,,,yellow,hexagon
52.0,1.0,1.0,0.0,2.0,2.0,289.8431040812284,3.0,1.0,phase_1,,,,,,,,,,,,,green,cross
30.0,1.0,1.0,0.0,1.0,1.0,321.19367294944817,3.0,1.0,phase_1,,,,,,,,,,,,,green,cross
122.0,2.0,2.0,0.0,2.0,2.0,310.5474070180207,3.0,1.0,phase_1,,,,,,,,,,,,,gray,diamond
423.0,8.0,4.0,1.0,3.0,3.0,391.8300359509885,3.0,1.0,phase_1,,,,,,,,,,,,,cyan,triangle
115.0,2.0,2.0,0.0,3.0,3.0,383.0072940327227,3.0,1.0,phase_1,,,,,,,,,,,,,gray,diamond
38.0,1.0,1.0,0.0,3.0,3.0,346.0346499923616,3.0,1.0,phase_1,,,,,,,,,,,,,green,cross
98.0,2.0,2.0,0.0,2.0,2.0,366.4260068908334,3.0,1.0,phase_1,,,,,,,,,,,,,gray,diamond
193.0,7.0,3.0,1.0,4.0,4.0,364.9345398880541,3.0,1.0,phase_1,,,,,,,,,,,,,yellow,hexagon
68.0,1.0,1.0,0.0,1.0,1.0,338.8669530395418,3.0,1.0,phase_1,,,,,,,,,,,,,green,cross
0.0,1.0,0.0,0.0,2.0,2.0,412.7154778689146,3.0,1.0,phase_1,,,,,,,,,,,,,green,cross
56.0,5.0,1.0,1.0,2.0,2.0,344.6192401461303,3.0,1.0,phase_1,,,,,,,,,,,,,blue,I
220.0,7.0,3.0,1.0,1.0,1.0,351.2092682067305,3.0,1.0,phase_1,,,,,,,,,,,,,yellow,hexagon
78.0,6.0,2.0,1.0,3.0,3.0,955.952653195709,3.0,1.0,phase_1,,,,,,,,,,,,,orange,square
101.0,2.0,2.0,0.0,1.0,1.0,366.3095461670309,3.0,1.0,phase_1,,,,,,,,,,,,,gray,diamond
40.0,5.0,1.0,1.0,4.0,4.0,332.2231860365718,3.0,1.0,phase_1,,,,,,,,,,,,,blue,I
403.0,4.0,4.0,0.0,4.0,4.0,355.4015441332012,3.0,1.0,phase_1,,,,,,,,,,,,,white,circle
107.0,2.0,2.0,0.0,2.0,2.0,355.5352198891341,3.0,2.0,phase_1,,,,,,,,,,,,,gray,diamond
197.0,3.0,3.0,0.0,1.0,1.0,353.651775047183,3.0,1.0,phase_1,,,,,,,,,,,,,magenta,flipped triangle
0.0,1.0,0.0,0.0,1.0,1.0,340.9260509070009,3.0,1.0,phase_1,,,,,,,,,,,,,green,cross
399.0,8.0,4.0,1.0,4.0,4.0,289.2095220740884,3.0,1.0,phase_1,,,,,,,,,,,,,cyan,triangle
409.0,4.0,4.0,0.0,1.0,1.0,358.7145009078085,3.0,1.0,phase_1,,,,,,,,,,,,,white,circle
399.0,8.0,4.0,1.0,3.0,3.0,276.5106030274182,3.0,1.0,phase_1,,,,,,,,,,,,,cyan,triangle
96.0,2.0,2.0,0.0,3.0,3.0,343.4177599847317,3.0,1.0,phase_1,,,,,,,,,,,,,gray,diamond
388.0,4.0,4.0,0.0,4.0,4.0,258.9327178429812,3.0,1.0,phase_1,,,,,,,,,,,,,white,circle
0.0,7.0,0.0,1.0,1.0,1.0,280.2486279979348,3.0,1.0,phase_1,,,,,,,,,,,,,yellow,hexagon
119.0,2.0,2.0,0.0,4.0,4.0,302.4163439404219,3.0,1.0,phase_1,,,,,,,,,,,,,gray,diamond
60.0,5.0,1.0,1.0,2.0,2.0,276.0566151700914,3.0,1.0,phase_1,,,,,,,,,,,,,blue,I
422.0,8.0,4.0,1.0,4.0,4.0,342.8173419088125,4.0,1.0,phase_1,,,,,,,,,,,,,cyan,triangle
54.0,5.0,1.0,1.0,3.0,3.0,251.8582979682833,4.0,1.0,phase_1,,,,,,,,,,,,,blue,I
81.0,2.0,2.0,0.0,2.0,2.0,396.5292379725724,4.0,1.0,phase_1,,,,,,,,,,,,,gray,diamond
0.0,2.0,0.0,0.0,1.0,1.0,308.3033519797027,4.0,1.0,phase_1,,,,,,,,,,,,,gray,diamond
191.0,3.0,3.0,0.0,3.0,3.0,254.8897578381002,4.0,1.0,phase_1,,,,,,,,,,,,,magenta,flipped triangle
86.0,2.0,2.0,0.0,4.0,4.0,254.70399297773838,4.0,1.0,phase_1,,,,,,,,,,,,,gray,diamond
86.0,2.0,2.0,0.0,4.0,4.0,271.2642590049654,4.0,1.0,phase_1,,,,,,,,,,,,,gray,diamond
200.0,7.0,3.0,1.0,1.0,1.0,279.2614968493581,4.0,1.0,phase_1,,,,,,,,,,,,,yellow,hexagon
81.0,6.0,2.0,1.0,3.0,3.0,242.8401750512421,4.0,1.0,phase_1,,,,,,,,,,,,,orange,square
0.0,3.0,0.0,0.0,4.0,4.0,245.9540199488401,4.0,1.0,phase_1,,,,,,,,,,,,,magenta,flipped triangle
413.0,8.0,4.0,1.0,4.0,4.0,307.0322920102626,4.0,1.0,phase_1,,,,,,,,,,,,,cyan,triangle
57.0,1.0,1.0,0.0,3.0,3.0,241.9332379940897,4.0,1.0,phase_1,,,,,,,,,,,,,green,cross
199.0,7.0,3.0,1.0,4.0,4.0,324.2405590135604,4.0,1.0,phase_1,,,,,,,,,,,,,yellow,hexagon
215.0,7.0,3.0,1.0,1.0,1.0,274.1721197962761,4.0,1.0,phase_1,,,,,,,,,,,,,yellow,hexagon
0.0,7.0,0.0,1.0,2.0,2.0,284.0951301623136,4.0,1.0,phase_1,,,,,,,,,,,,,yellow,hexagon
0.0,3.0,0.0,0.0,2.0,2.0,371.81824794970447,4.0,1.0,phase_1,,,,,,,,,,,,,magenta,flipped triangle
377.0,4.0,4.0,0.0,1.0,1.0,312.1421691030264,4.0,1.0,phase_1,,,,,,,,,,,,,white,circle
0.0,5.0,0.0,1.0,2.0,2.0,260.8229359611869,4.0,1.0,phase_1,,,,,,,,,,,,,blue,I
184.0,7.0,3.0,1.0,4.0,4.0,305.5463519413024,4.0,1.0,phase_1,,,,,,,,,,,,,yellow,hexagon
0.0,2.0,0.0,0.0,2.0,2.0,325.4094610456377,4.0,1.0,phase_1,,,,,,,,,,,,,gray,diamond
0.0,8.0,0.0,1.0,3.0,3.0,243.2112039532512,4.0,1.0,phase_1,,,,,,,,,,,,,cyan,triangle
0.0,2.0,0.0,0.0,2.0,2.0,287.9245239309966,4.0,1.0,phase_1,,,,,,,,,,,,,gray,diamond
223.0,3.0,3.0,0.0,3.0,3.0,260.5224850121885,4.0,1.0,phase_1,,,,,,,,,,,,,magenta,flipped triangle
379.0,8.0,4.0,1.0,1.0,1.0,295.6346948631108,4.0,1.0,phase_1,,,,,,,,,,,,,cyan,triangle
0.0,4.0,0.0,0.0,1.0,1.0,371.6092118993401,4.0,1.0,phase_1,,,,,,,,,,,,,white,circle
27.0,5.0,1.0,1.0,4.0,4.0,272.20653090626,4.0,1.0,phase_1,,,,,,,,,,,,,blue,I
394.0,4.0,4.0,0.0,4.0,4.0,288.63633912988,4.0,1.0,phase_1,,,,,,,,,,,,,white,circle
116.0,2.0,2.0,0.0,3.0,3.0,308.3913950249553,4.0,1.0,phase_1,,,,,,,,,,,,,gray,diamond
0.0,7.0,0.0,1.0,2.0,2.0,250.1757489517331,4.0,1.0,phase_1,,,,,,,,,,,,,yellow,hexagon
84.0,2.0,2.0,0.0,2.0,2.0,324.0536879748106,4.0,1.0,phase_1,,,,,,,,,,,,,gray,diamond
35.0,5.0,1.0,1.0,2.0,2.0,317.3378340434283,4.0,1.0,phase_1,,,,,,,,,,,,,blue,I
180.0,3.0,3.0,0.0,4.0,4.0,310.9090360812843,4.0,1.0,phase_1,,,,,,,,,,,,,magenta,flipped triangle
0.0,1.0,0.0,0.0,1.0,1.0,330.3355399984866,4.0,1.0,phase_1,,,,,,,,,,,,,green,cross
0.0,1.0,0.0,0.0,4.0,4.0,319.3881539627909,4.0,1.0,phase_1,,,,,,,,,,,,,green,cross
0.0,5.0,0.0,1.0,2.0,2.0,254.4901508372277,4.0,1.0,phase_1,,,,,,,,,,,,,blue,I
204.0,3.0,3.0,0.0,3.0,3.0,272.8288050275296,4.0,1.0,phase_1,,,,,,,,,,,,,magenta,flipped triangle
197.0,3.0,3.0,0.0,1.0,1.0,269.5269109681248,4.0,1.0,phase_1,,,,,,,,,,,,,magenta,flipped triangle
0.0,3.0,0.0,0.0,3.0,3.0,281.5588768571615,4.0,1.0,phase_1,,,,,,,,,,,,,magenta,flipped triangle
67.0,5.0,1.0,1.0,4.0,4.0,285.7974891085177,4.0,1.0,phase_1,,,,,,,,,,,,,blue,I
123.0,6.0,2.0,1.0,1.0,1.0,308.0410209950059,4.0,1.0,phase_1,,,,,,,,,,,,,orange,square
412.0,4.0,4.0,0.0,2.0,2.0,225.3980000969022,4.0,1.0,phase_1,,,,,,,,,,,,,white,circle
72.0,1.0,1.0,0.0,1.0,1.0,342.5680438522249,4.0,1.0,phase_1,,,,,,,,,,,,,green,cross
54.0,1.0,1.0,0.0,4.0,4.0,304.7484538983553,4.0,1.0,phase_1,,,,,,,,,,,,,green,cross
0.0,8.0,0.0,1.0,4.0,4.0,280.8444779366255,4.0,1.0,phase_1,,,,,,,,,,,,,cyan,triangle
102.0,6.0,2.0,1.0,2.0,2.0,267.6017431076616,4.0,1.0,phase_1,,,,,,,,,,,,,orange,square
0.0,6.0,0.0,1.0,1.0,1.0,287.4667479190975,4.0,1.0,phase_1,,,,,,,,,,,,,orange,square
116.0,6.0,2.0,1.0,3.0,3.0,309.1010919306427,4.0,1.0,phase_1,,,,,,,,,,,,,orange,square
71.0,5.0,1.0,1.0,3.0,3.0,304.8551219981164,4.0,1.0,phase_1,,,,,,,,,,,,,blue,I
219.0,7.0,3.0,1.0,1.0,1.0,286.9584888685494,4.0,1.0,phase_1,,,,,,,,,,,,,yellow,hexagon
180.0,3.0,3.0,0.0,3.0,3.0,273.1716341804713,4.0,1.0,phase_1,,,,,,,,,,,,,magenta,flipped triangle
384.0,8.0,4.0,1.0,2.0,2.0,289.2115691211074,4.0,1.0,phase_1,,,,,,,,,,,,,cyan,triangle
40.0,5.0,1.0,1.0,2.0,2.0,299.7043991927057,4.0,1.0,phase_1,,,,,,,,,,,,,blue,I
0.0,6.0,0.0,1.0,1.0,1.0,271.5684468857944,4.0,1.0,phase_1,,,,,,,,,,,,,orange,square
80.0,2.0,2.0,0.0,1.0,1.0,323.4355868771672,4.0,1.0,phase_1,,,,,,,,,,,,,gray,diamond
404.0,4.0,4.0,0.0,1.0,1.0,362.35407483763987,4.0,1.0,phase_1,,,,,,,,,,,,,white,circle
0.0,8.0,0.0,1.0,4.0,4.0,246.8495771754533,4.0,1.0,phase_1,,,,,,,,,,,,,cyan,triangle
418.0,8.0,4.0,1.0,3.0,3.0,258.2476960960775,4.0,1.0,phase_1,,,,,,,,,,,,,cyan,triangle
116.0,2.0,2.0,0.0,3.0,3.0,278.1304758973419,4.0,1.0,phase_1,,,,,,,,,,,,,gray,diamond
66.0,5.0,1.0,1.0,4.0,4.0,307.1863160002976,4.0,1.0,phase_1,,,,,,,,,,,,,blue,I
32.0,1.0,1.0,0.0,4.0,4.0,314.3686188850552,4.0,1.0,phase_1,,,,,,,,,,,,,green,cross
0.0,5.0,0.0,1.0,1.0,1.0,319.6084301453084,4.0,1.0,phase_1,,,,,,,,,,,,,blue,I
52.0,1.0,1.0,0.0,3.0,3.0,330.8314280584454,4.0,1.0,phase_1,,,,,,,,,,,,,green,cross
68.0,5.0,1.0,1.0,2.0,2.0,245.66435790620739,4.0,1.0,phase_1,,,,,,,,,,,,,blue,I
420.0,4.0,4.0,0.0,2.0,2.0,306.5979499369859,4.0,1.0,phase_1,,,,,,,,,,,,,white,circle
35.0,1.0,1.0,0.0,2.0,2.0,287.4339330010116,4.0,1.0,phase_1,,,,,,,,,,,,,green,cross
180.0,7.0,3.0,1.0,2.0,2.0,239.0487159136682,4.0,1.0,phase_1,,,,,,,,,,,,,yellow,hexagon
34.0,1.0,1.0,0.0,2.0,2.0,291.8203179724514,4.0,1.0,phase_1,,,,,,,,,,,,,green,cross
193.0,3.0,3.0,0.0,2.0,2.0,341.4543711114675,4.0,1.0,phase_1,,,,,,,,,,,,,magenta,flipped triangle
115.0,6.0,2.0,1.0,3.0,3.0,386.0765860881656,4.0,1.0,phase_1,,,,,,,,,,,,,orange,square
0.0,4.0,0.0,0.0,2.0,2.0,289.2241650260985,4.0,1.0,phase_1,,,,,,,,,,,,,white,circle
399.0,4.0,4.0,0.0,2.0,2.0,261.1892761196941,4.0,1.0,phase_1,,,,,,,,,,,,,white,circle
73.0,5.0,1.0,1.0,4.0,4.0,288.3014301769435,4.0,1.0,phase_1,,,,,,,,,,,,,blue,I
408.0,8.0,4.0,1.0,1.0,1.0,332.8586078714579,4.0,1.0,phase_1,,,,,,,,,,,,,cyan,triangle
0.0,1.0,0.0,0.0,1.0,1.0,309.1946609783917,4.0,1.0,phase_1,,,,,,,,,,,,,green,cross
422.0,8.0,4.0,1.0,4.0,4.0,295.9660249762237,4.0,1.0,phase_1,,,,,,,,,,,,,cyan,triangle
421.0,8.0,4.0,1.0,2.0,2.0,237.3250629752874,4.0,1.0,phase_1,,,,,,,,,,,,,cyan,triangle
389.0,8.0,4.0,1.0,2.0,2.0,311.9242819957435,4.0,1.0,phase_1,,,,,,,,,,,,,cyan,triangle
52.0,1.0,1.0,0.0,2.0,2.0,307.3809519410133,4.0,1.0,phase_1,,,,,,,,,,,,,green,cross
84.0,6.0,2.0,1.0,3.0,3.0,298.4411248471588,4.0,1.0,phase_1,,,,,,,,,,,,,orange,square
42.0,1.0,1.0,0.0,4.0,4.0,328.5071339923888,4.0,1.0,phase_1,,,,,,,,,,,,,green,cross
34.0,5.0,1.0,1.0,2.0,2.0,293.749714968726,4.0,1.0,phase_1,,,,,,,,,,,,,blue,I
120.0,6.0,2.0,1.0,3.0,3.0,281.8633839488029,4.0,1.0,phase_1,,,,,,,,,,,,,orange,square
0.0,6.0,0.0,1.0,4.0,4.0,347.9381760116666,4.0,1.0,phase_1,,,,,,,,,,,,,orange,square
208.0,3.0,3.0,0.0,4.0,4.0,289.6601180545985,4.0,1.0,phase_1,,,,,,,,,,,,,magenta,flipped triangle
90.0,6.0,2.0,1.0,4.0,4.0,302.8532590251416,4.0,1.0,phase_1,,,,,,,,,,,,,orange,square
377.0,8.0,4.0,1.0,4.0,4.0,282.4296851176768,4.0,1.0,phase_1,,,,,,,,,,,,,cyan,triangle
420.0,4.0,4.0,0.0,1.0,1.0,350.7531620562076,4.0,1.0,phase_1,,,,,,,,,,,,,white,circle
396.0,4.0,4.0,0.0,2.0,2.0,262.6022479962557,4.0,1.0,phase_1,,,,,,,,,,,,,white,circle
398.0,8.0,4.0,1.0,3.0,3.0,343.5172578319907,4.0,1.0,phase_1,,,,,,,,,,,,,cyan,triangle
86.0,6.0,2.0,1.0,4.0,4.0,252.07432988099748,4.0,1.0,phase_1,,,,,,,,,,,,,orange,square
67.0,1.0,1.0,0.0,1.0,1.0,308.0901629291475,4.0,1.0,phase_1,,,,,,,,,,,,,green,cross
96.0,6.0,2.0,1.0,3.0,3.0,382.3037468828261,4.0,1.0,phase_1,,,,,,,,,,,,,orange,square
0.0,7.0,0.0,1.0,4.0,4.0,309.1963529586792,4.0,1.0,phase_1,,,,,,,,,,,,,yellow,hexagon
216.0,7.0,3.0,1.0,3.0,3.0,303.8782838266343,4.0,1.0,phase_1,,,,,,,,,,,,,yellow,hexagon
416.0,8.0,4.0,1.0,4.0,4.0,309.7733550239354,4.0,1.0,phase_1,,,,,,,,,,,,,cyan,triangle
389.0,8.0,4.0,1.0,2.0,2.0,312.6136551145464,4.0,1.0,phase_1,,,,,,,,,,,,,cyan,triangle
0.0,4.0,0.0,0.0,1.0,1.0,308.9799669105559,4.0,1.0,phase_1,,,,,,,,,,,,,white,circle
110.0,6.0,2.0,1.0,3.0,3.0,300.7498639635741,4.0,1.0,phase_1,,,,,,,,,,,,,orange,square
223.0,7.0,3.0,1.0,4.0,4.0,321.4481531176716,4.0,1.0,phase_1,,,,,,,,,,,,,yellow,hexagon
105.0,6.0,2.0,1.0,2.0,2.0,333.3329998422414,4.0,1.0,phase_1,,,,,,,,,,,,,orange,square
0.0,2.0,2.0,0.0,5.0,5.0,402.3806068580597,1.0,1.0,phase_2,go,250.0,250.0,1.0,,,,,,,,,gray,diamond
0.0,5.0,1.0,1.0,6.0,6.0,719.9346229899675,1.0,1.0,phase_2,stop,250.0,250.0,3.0,,,,,,,,,blue,I
0.0,4.0,4.0,0.0,6.0,6.0,726.4010948128998,1.0,1.0,phase_2,go,250.0,200.0,1.0,,,,,,,,,white,circle
0.0,6.0,2.0,1.0,5.0,0.0,0.0,1.0,1.0,phase_2,stop,250.0,200.0,4.0,,,,,,,,,orange,square
0.0,1.0,1.0,0.0,5.0,5.0,764.3186950590461,1.0,1.0,phase_2,go,300.0,200.0,1.0,,,,,,,,,green,cross
0.0,1.0,1.0,0.0,5.0,5.0,741.7084060143679,1.0,1.0,phase_2,go,300.0,200.0,1.0,,,,,,,,,green,cross
0.0,2.0,2.0,0.0,5.0,5.0,795.3688388224691,1.0,1.0,phase_2,go,300.0,200.0,1.0,,,,,,,,,gray,diamond
0.0,6.0,2.0,1.0,5.0,5.0,482.4532719794661,1.0,1.0,phase_2,stop,300.0,200.0,3.0,,,,,,,,,orange,square
0.0,2.0,2.0,0.0,6.0,6.0,293.1252890266478,1.0,1.0,phase_2,go,250.0,200.0,1.0,,,,,,,,,gray,diamond
0.0,3.0,3.0,0.0,6.0,6.0,740.9511890728027,1.0,1.0,phase_2,go,250.0,200.0,1.0,,,,,,,,,magenta,flipped triangle
0.0,7.0,3.0,1.0,6.0,0.0,0.0,1.0,1.0,phase_2,stop,250.0,200.0,4.0,,,,,,,,,yellow,hexagon
0.0,4.0,4.0,0.0,5.0,5.0,696.3448310270905,1.0,1.0,phase_2,go,250.0,250.0,1.0,,,,,,,,,white,circle
0.0,5.0,1.0,1.0,6.0,0.0,0.0,1.0,1.0,phase_2,stop,250.0,250.0,4.0,,,,,,,,,blue,I
0.0,4.0,4.0,0.0,5.0,5.0,615.5276221688837,1.0,1.0,phase_2,go,250.0,300.0,1.0,,,,,,,,,white,circle
0.0,2.0,2.0,0.0,5.0,5.0,806.5375951118767,1.0,1.0,phase_2,go,250.0,300.0,1.0,,,,,,,,,gray,diamond
0.0,3.0,3.0,0.0,6.0,6.0,712.1830210089684,1.0,1.0,phase_2,go,250.0,300.0,1.0,,,,,,,,,magenta,flipped triangle
0.0,5.0,1.0,1.0,6.0,6.0,679.68187504448,1.0,1.0,phase_2,go,250.0,300.0,1.0,,,,,,,,,blue,I
0.0,2.0,2.0,0.0,6.0,6.0,789.1103310976177,1.0,1.0,phase_2,go,250.0,300.0,1.0,,,,,,,,,gray,diamond
0.0,7.0,3.0,1.0,6.0,0.0,0.0,1.0,1.0,phase_2,stop,250.0,300.0,4.0,,,,,,,,,yellow,hexagon
0.0,8.0,4.0,1.0,6.0,0.0,0.0,1.0,1.0,phase_2,stop,250.0,350.0,4.0,,,,,,,,,cyan,triangle
0.0,5.0,1.0,1.0,6.0,6.0,686.7889650166035,1.0,1.0,phase_2,go,250.0,400.0,1.0,,,,,,,,,blue,I
0.0,4.0,4.0,0.0,6.0,6.0,810.634481953457,1.0,1.0,phase_2,go,250.0,400.0,1.0,,,,,,,,,white,circle
0.0,8.0,4.0,1.0,6.0,0.0,0.0,1.0,1.0,phase_2,stop,250.0,400.0,4.0,,,,,,,,,cyan,triangle
0.0,2.0,2.0,0.0,5.0,5.0,629.3379908893257,1.0,1.0,phase_2,go,250.0,450.0,1.0,,,,,,,,,gray,diamond
0.0,6.0,2.0,1.0,6.0,6.0,546.2799968663603,1.0,1.0,phase_2,stop,250.0,450.0,3.0,,,,,,,,,orange,square
0.0,6.0,2.0,1.0,6.0,0.0,0.0,1.0,1.0,phase_2,stop,250.0,400.0,4.0,,,,,,,,,orange,square
0.0,7.0,3.0,1.0,6.0,0.0,0.0,1.0,1.0,phase_2,stop,250.0,450.0,4.0,,,,,,,,,yellow,hexagon
0.0,2.0,2.0,0.0,6.0,6.0,770.8288819994777,1.0,1.0,phase_2,go,250.0,500.0,1.0,,,,,,,,,gray,diamond
0.0,6.0,2.0,1.0,5.0,5.0,751.6530849970877,1.0,1.0,phase_2,go,250.0,500.0,1.0,,,,,,,,,orange,square
0.0,5.0,1.0,1.0,5.0,0.0,0.0,1.0,1.0,phase_2,stop,250.0,500.0,4.0,,,,,,,,,blue,I
0.0,1.0,1.0,0.0,5.0,5.0,656.5185149665922,1.0,1.0,phase_2,go,300.0,500.0,1.0,,,,,,,,,green,cross
0.0,1.0,1.0,0.0,5.0,5.0,959.761596051976,1.0,1.0,phase_2,go,300.0,500.0,1.0,,,,,,,,,green,cross
0.0,2.0,2.0,0.0,5.0,5.0,863.3288918063045,1.0,1.0,phase_2,go,300.0,500.0,1.0,,,,,,,,,gray,diamond
0.0,8.0,4.0,1.0,6.0,0.0,0.0,1.0,1.0,phase_2,go,300.0,500.0,5.0,,,,,,,,,cyan,triangle
0.0,3.0,3.0,0.0,6.0,6.0,620.8125401753932,1.0,1.0,phase_2,go,300.0,500.0,1.0,,,,,,,,,magenta,flipped triangle
0.0,7.0,3.0,1.0,5.0,0.0,0.0,1.0,1.0,phase_2,stop,300.0,500.0,4.0,,,,,,,,,yellow,hexagon
0.0,1.0,1.0,0.0,5.0,5.0,390.191504964605,2.0,1.0,phase_2,go,350.0,500.0,1.0,,,,,,,,,green,cross
0.0,4.0,4.0,0.0,5.0,5.0,572.202695067972,2.0,1.0,phase_2,go,350.0,500.0,1.0,,,,,,,,,white,circle
0.0,4.0,4.0,0.0,6.0,6.0,516.971745993942,2.0,1.0,phase_2,go,350.0,500.0,1.0,,,,,,,,,white,circle
0.0,1.0,1.0,0.0,5.0,5.0,544.3037168588489,2.0,1.0,phase_2,go,350.0,500.0,1.0,,,,,,,,,green,cross
0.0,1.0,1.0,0.0,5.0,5.0,650.15330305323,2.0,1.0,phase_2,go,350.0,500.0,1.0,,,,,,,,,green,cross
0.0,4.0,4.0,0.0,6.0,6.0,689.3331408500671,2.0,1.0,phase_2,go,350.0,500.0,1.0,,,,,,,,,white,circle
0.0,5.0,1.0,1.0,5.0,0.0,0.0,2.0,1.0,phase_2,stop,350.0,500.0,4.0,,,,,,,,,blue,I
0.0,8.0,4.0,1.0,5.0,0.0,0.0,2.0,1.0,phase_2,stop,400.0,500.0,4.0,,,,,,,,,cyan,triangle
0.0,4.0,4.0,0.0,5.0,5.0,662.9495900124311,2.0,1.0,phase_2,go,450.0,500.0,1.0,,,,,,,,,white,circle
0.0,4.0,4.0,0.0,6.0,6.0,632.2119319811463,2.0,1.0,phase_2,go,450.0,500.0,1.0,,,,,,,,,white,circle
0.0,6.0,2.0,1.0,5.0,0.0,0.0,2.0,1.0,phase_2,stop,450.0,500.0,4.0,,,,,,,,,orange,square
0.0,1.0,1.0,0.0,5.0,5.0,607.4163620360196,2.0,1.0,phase_2,go,500.0,500.0,1.0,,,,,,,,,green,cross
0.0,5.0,1.0,1.0,6.0,0.0,0.0,2.0,1.0,phase_2,stop,500.0,500.0,4.0,,,,,,,,,blue,I
0.0,6.0,2.0,1.0,6.0,0.0,0.0,2.0,1.0,phase_2,stop,500.0,550.0,4.0,,,,,,,,,orange,square
0.0,8.0,4.0,1.0,6.0,6.0,486.5921090822667,2.0,1.0,phase_2,stop,500.0,600.0,3.0,,,,,,,,,cyan,triangle
0.0,1.0,1.0,0.0,6.0,6.0,778.2070941757411,2.0,1.0,phase_2,go,500.0,550.0,1.0,,,,,,,,,green,cross
0.0,8.0,4.0,1.0,6.0,6.0,641.4668560028076,2.0,1.0,phase_2,stop,500.0,550.0,3.0,,,,,,,,,cyan,triangle
0.0,6.0,2.0,1.0,5.0,0.0,0.0,2.0,1.0,phase_2,stop,500.0,500.0,4.0,,,,,,,,,orange,square
0.0,6.0,2.0,1.0,5.0,0.0,0.0,2.0,1.0,phase_2,stop,550.0,500.0,4.0,,,,,,,,,orange,square
0.0,2.0,2.0,0.0,6.0,6.0,752.1312211174518,2.0,1.0,phase_2,go,600.0,500.0,1.0,,,,,,,,,gray,diamond
0.0,3.0,3.0,0.0,5.0,5.0,713.5147100780159,2.0,1.0,phase_2,go,600.0,500.0,1.0,,,,,,,,,magenta,flipped triangle
0.0,8.0,4.0,1.0,5.0,0.0,0.0,2.0,1.0,phase_2,stop,600.0,500.0,4.0,,,,,,,,,cyan,triangle
0.0,2.0,2.0,0.0,6.0,6.0,624.5636029634625,2.0,1.0,phase_2,go,650.0,500.0,1.0,,,,,,,,,gray,diamond
0.0,8.0,4.0,1.0,5.0,5.0,809.2899429611862,2.0,1.0,phase_2,stop,650.0,500.0,3.0,,,,,,,,,cyan,triangle
0.0,3.0,3.0,0.0,5.0,5.0,888.7441109400243,2.0,1.0,phase_2,go,600.0,500.0,1.0,,,,,,,,,magenta,flipped triangle
0.0,4.0,4.0,0.0,6.0,6.0,821.5432979632169,2.0,1.0,phase_2,go,600.0,500.0,1.0,,,,,,,,,white,circle
0.0,2.0,2.0,0.0,6.0,6.0,788.221336202696,2.0,1.0,phase_2,go,600.0,500.0,1.0,,,,,,,,,gray,diamond
0.0,3.0,3.0,0.0,5.0,5.0,644.5580399595201,2.0,1.0,phase_2,go,600.0,500.0,1.0,,,,,,,,,magenta,flipped triangle
0.0,5.0,1.0,1.0,6.0,6.0,820.5563719384372,2.0,1.0,phase_2,go,600.0,500.0,1.0,,,,,,,,,blue,I
0.0,3.0,3.0,0.0,5.0,5.0,700.0729199498892,2.0,1.0,phase_2,go,600.0,500.0,1.0,,,,,,,,,magenta,flipped triangle
0.0,5.0,1.0,1.0,5.0,0.0,0.0,2.0,1.0,phase_2,stop,600.0,500.0,4.0,,,,,,,,,blue,I
0.0,7.0,3.0,1.0,5.0,0.0,0.0,2.0,1.0,phase_2,stop,650.0,500.0,4.0,,,,,,,,,yellow,hexagon
0.0,4.0,4.0,0.0,6.0,6.0,973.033325979486,2.0,1.0,phase_2,go,700.0,500.0,1.0,,,,,,,,,white,circle
0.0,5.0,1.0,1.0,6.0,0.0,0.0,2.0,1.0,phase_2,stop,700.0,500.0,4.0,,,,,,,,,blue,I
0.0,7.0,3.0,1.0,6.0,6.0,680.7838201057166,2.0,1.0,phase_2,stop,700.0,550.0,3.0,,,,,,,,,yellow,hexagon
0.0,5.0,1.0,1.0,6.0,0.0,0.0,2.0,1.0,phase_2,stop,700.0,500.0,4.0,,,,,,,,,blue,I
0.0,4.0,4.0,0.0,6.0,6.0,988.8493989128621,3.0,1.0,phase_2,go,700.0,550.0,1.0,,,,,,,,,white,circle
0.0,8.0,4.0,1.0,5.0,5.0,413.6768500320613,3.0,1.0,phase_2,stop,700.0,550.0,3.0,,,,,,,,,cyan,triangle
0.0,7.0,3.0,1.0,6.0,6.0,497.3263628780842,3.0,1.0,phase_2,stop,650.0,550.0,3.0,,,,,,,,,yellow,hexagon
0.0,2.0,2.0,0.0,5.0,5.0,729.4612529221922,3.0,1.0,phase_2,go,650.0,500.0,1.0,,,,,,,,,gray,diamond
0.0,5.0,1.0,1.0,6.0,0.0,0.0,3.0,1.0,phase_2,stop,650.0,500.0,4.0,,,,,,,,,blue,I
0.0,2.0,2.0,0.0,6.0,6.0,759.7268628887832,3.0,1.0,phase_2,go,650.0,550.0,1.0,,,,,,,,,gray,diamond
0.0,4.0,4.0,0.0,6.0,6.0,615.9209408797324,3.0,1.0,phase_2,go,650.0,550.0,1.0,,,,,,,,,white,circle
0.0,5.0,1.0,1.0,6.0,6.0,616.9988890178502,3.0,1.0,phase_2,stop,650.0,550.0,3.0,,,,,,,,,blue,I
0.0,3.0,3.0,0.0,6.0,6.0,838.8012701179832,3.0,1.0,phase_2,go,650.0,500.0,1.0,,,,,,,,,magenta,flipped triangle
0.0,2.0,2.0,0.0,6.0,6.0,856.0073508415371,3.0,1.0,phase_2,go,650.0,500.0,1.0,,,,,,,,,gray,diamond
0.0,7.0,3.0,1.0,5.0,5.0,695.3692699316889,3.0,1.0,phase_2,go,650.0,500.0,1.0,,,,,,,,,yellow,hexagon
0.0,3.0,3.0,0.0,6.0,6.0,772.5483211688697,3.0,1.0,phase_2,go,650.0,500.0,1.0,,,,,,,,,magenta,flipped triangle
0.0,2.0,2.0,0.0,6.0,6.0,732.8617610037327,3.0,1.0,phase_2,go,650.0,500.0,1.0,,,,,,,,,gray,diamond
0.0,5.0,1.0,1.0,6.0,6.0,667.897273087874,3.0,1.0,phase_2,go,650.0,500.0,1.0,,,,,,,,,blue,I
0.0,4.0,4.0,0.0,5.0,5.0,581.8518938031048,3.0,1.0,phase_2,go,650.0,500.0,1.0,,,,,,,,,white,circle
0.0,8.0,4.0,1.0,6.0,6.0,707.6675209682435,3.0,1.0,phase_2,go,650.0,500.0,1.0,,,,,,,,,cyan,triangle
0.0,1.0,1.0,0.0,5.0,5.0,461.4644520916044,3.0,1.0,phase_2,go,650.0,500.0,1.0,,,,,,,,,green,cross
0.0,8.0,4.0,1.0,6.0,6.0,532.9131549224257,3.0,1.0,phase_2,stop,650.0,500.0,3.0,,,,,,,,,cyan,triangle
0.0,7.0,3.0,1.0,5.0,5.0,264.4112429115921,3.0,1.0,phase_2,stop,650.0,450.0,3.0,,,,,,,,,yellow,hexagon
0.0,6.0,2.0,1.0,6.0,6.0,562.5183340162039,3.0,1.0,phase_2,stop,600.0,450.0,3.0,,,,,,,,,orange,square
0.0,3.0,3.0,0.0,5.0,5.0,800.289954058826,3.0,1.0,phase_2,go,600.0,400.0,1.0,,,,,,,,,magenta,flipped triangle
0.0,8.0,4.0,1.0,5.0,0.0,0.0,3.0,1.0,phase_2,stop,600.0,400.0,4.0,,,,,,,,,cyan,triangle
0.0,3.0,3.0,0.0,6.0,6.0,849.0288299508393,3.0,1.0,phase_2,go,650.0,400.0,1.0,,,,,,,,,magenta,flipped triangle
0.0,5.0,1.0,1.0,5.0,5.0,744.451283942908,3.0,1.0,phase_2,stop,650.0,400.0,3.0,,,,,,,,,blue,I
0.0,5.0,1.0,1.0,5.0,0.0,0.0,3.0,1.0,phase_2,stop,600.0,400.0,4.0,,,,,,,,,blue,I
0.0,7.0,3.0,1.0,5.0,0.0,0.0,3.0,1.0,phase_2,stop,650.0,400.0,4.0,,,,,,,,,yellow,hexagon
0.0,5.0,1.0,1.0,6.0,6.0,902.109666960314,3.0,1.0,phase_2,go,700.0,400.0,1.0,,,,,,,,,blue,I
0.0,6.0,2.0,1.0,6.0,0.0,0.0,3.0,1.0,phase_2,stop,700.0,400.0,4.0,,,,,,,,,orange,square
0.0,8.0,4.0,1.0,6.0,0.0,0.0,3.0,1.0,phase_2,stop,700.0,450.0,4.0,,,,,,,,,cyan,triangle
0.0,8.0,4.0,1.0,5.0,5.0,610.2190159726888,3.0,1.0,phase_2,go,700.0,500.0,1.0,,,,,,,,,cyan,triangle
0.0,7.0,3.0,1.0,6.0,6.0,749.803434824571,3.0,1.0,phase_2,go,700.0,500.0,1.0,,,,,,,,,yellow,hexagon
0.0,3.0,3.0,0.0,6.0,6.0,793.985779164359,3.0,1.0,phase_2,go,700.0,500.0,1.0,,,,,,,,,magenta,flipped triangle
0.0,3.0,3.0,0.0,6.0,6.0,905.4955488536508,3.0,1.0,phase_2,go,700.0,500.0,1.0,,,,,,,,,magenta,flipped triangle
0.0,7.0,3.0,1.0,6.0,6.0,715.4564659576863,3.0,1.0,phase_2,go,700.0,500.0,1.0,,,,,,,,,yellow,hexagon
0.0,6.0,2.0,1.0,5.0,5.0,832.5194420758635,3.0,1.0,phase_2,stop,700.0,500.0,3.0,,,,,,,,,orange,square
0.0,6.0,2.0,1.0,5.0,0.0,0.0,3.0,1.0,phase_2,stop,650.0,500.0,4.0,,,,,,,,,orange,square
0.0,5.0,1.0,1.0,6.0,0.0,0.0,4.0,1.0,phase_2,stop,700.0,500.0,4.0,,,,,,,,,blue,I
0.0,1.0,1.0,0.0,6.0,6.0,629.7080989461392,4.0,1.0,phase_2,go,700.0,550.0,1.0,,,,,,,,,green,cross
0.0,4.0,4.0,0.0,6.0,6.0,632.1577809285372,4.0,1.0,phase_2,go,700.0,550.0,1.0,,,,,,,,,white,circle
0.0,4.0,4.0,0.0,5.0,5.0,772.6052079815418,4.0,1.0,phase_2,go,700.0,550.0,1.0,,,,,,,,,white,circle
0.0,2.0,2.0,0.0,5.0,5.0,780.8929891325533,4.0,1.0,phase_2,go,700.0,550.0,1.0,,,,,,,,,gray,diamond
0.0,8.0,4.0,1.0,5.0,5.0,684.4121450558305,4.0,1.0,phase_2,stop,700.0,550.0,3.0,,,,,,,,,cyan,triangle
0.0,1.0,1.0,0.0,6.0,6.0,780.9412169735879,4.0,1.0,phase_2,go,650.0,550.0,1.0,,,,,,,,,green,cross
0.0,8.0,4.0,1.0,6.0,6.0,913.7568620499223,4.0,1.0,phase_2,go,650.0,550.0,1.0,,,,,,,,,cyan,triangle
0.0,1.0,1.0,0.0,6.0,6.0,568.874869029969,4.0,1.0,phase_2,go,650.0,550.0,1.0,,,,,,,,,green,cross
0.0,8.0,4.0,1.0,5.0,0.0,0.0,4.0,1.0,phase_2,stop,650.0,550.0,4.0,,,,,,,,,cyan,triangle
0.0,4.0,4.0,0.0,6.0,6.0,698.7604598980397,4.0,1.0,phase_2,go,700.0,550.0,1.0,,,,,,,,,white,circle
0.0,4.0,4.0,0.0,6.0,6.0,919.434995856136,4.0,1.0,phase_2,go,700.0,550.0,1.0,,,,,,,,,white,circle
0.0,1.0,1.0,0.0,6.0,6.0,890.7433899585158,4.0,1.0,phase_2,go,700.0,550.0,1.0,,,,,,,,,green,cross
0.0,5.0,1.0,1.0,5.0,5.0,1048.400096129626,4.0,1.0,phase_2,go,700.0,550.0,1.0,,,,,,,,,blue,I
0.0,6.0,2.0,1.0,6.0,6.0,638.1861260160804,4.0,1.0,phase_2,go,700.0,550.0,1.0,,,,,,,,,orange,square
0.0,8.0,4.0,1.0,6.0,0.0,0.0,4.0,1.0,phase_2,stop,700.0,550.0,4.0,,,,,,,,,cyan,triangle
0.0,6.0,2.0,1.0,6.0,6.0,692.6000060047954,4.0,1.0,phase_2,stop,700.0,600.0,3.0,,,,,,,,,orange,square
0.0,4.0,4.0,0.0,5.0,5.0,892.2224100679159,4.0,1.0,phase_2,go,700.0,550.0,1.0,,,,,,,,,white,circle
0.0,3.0,3.0,0.0,5.0,5.0,718.7627740204334,4.0,1.0,phase_2,go,700.0,550.0,1.0,,,,,,,,,magenta,flipped triangle
0.0,5.0,1.0,1.0,5.0,5.0,763.0286270286888,4.0,1.0,phase_2,stop,700.0,550.0,3.0,,,,,,,,,blue,I
0.0,5.0,1.0,1.0,5.0,0.0,0.0,4.0,1.0,phase_2,stop,650.0,550.0,4.0,,,,,,,,,blue,I
0.0,1.0,1.0,0.0,5.0,5.0,650.1482839230448,4.0,1.0,phase_2,go,700.0,550.0,1.0,,,,,,,,,green,cross
0.0,2.0,2.0,0.0,6.0,6.0,627.4829560425133,4.0,1.0,phase_2,go,700.0,550.0,1.0,,,,,,,,,gray,diamond
0.0,3.0,3.0,0.0,5.0,5.0,720.2565600164235,4.0,1.0,phase_2,go,700.0,550.0,1.0,,,,,,,,,magenta,flipped triangle
0.0,2.0,2.0,0.0,6.0,6.0,712.3192888684571,4.0,1.0,phase_2,go,700.0,550.0,1.0,,,,,,,,,gray,diamond
0.0,1.0,1.0,0.0,5.0,5.0,786.0422278754413,4.0,1.0,phase_2,go,700.0,550.0,1.0,,,,,,,,,green,cross
0.0,7.0,3.0,1.0,5.0,5.0,725.8412211667746,4.0,1.0,phase_2,stop,700.0,550.0,3.0,,,,,,,,,yellow,hexagon
0.0,8.0,4.0,1.0,6.0,0.0,0.0,4.0,1.0,phase_2,stop,650.0,550.0,4.0,,,,,,,,,cyan,triangle
0.0,4.0,4.0,0.0,5.0,5.0,722.08530199714,4.0,1.0,phase_2,go,650.0,600.0,1.0,,,,,,,,,white,circle
0.0,1.0,1.0,0.0,6.0,6.0,719.713127007708,4.0,1.0,phase_2,go,650.0,600.0,1.0,,,,,,,,,green,cross
0.0,4.0,4.0,0.0,5.0,5.0,670.3124439809471,4.0,1.0,phase_2,go,650.0,600.0,1.0,,,,,,,,,white,circle
0.0,2.0,2.0,0.0,6.0,6.0,759.1068090405315,4.0,1.0,phase_2,go,650.0,600.0,1.0,,,,,,,,,gray,diamond
0.0,6.0,2.0,1.0,6.0,0.0,0.0,4.0,1.0,phase_2,stop,650.0,600.0,4.0,,,,,,,,,orange,square
0.0,5.0,1.0,1.0,5.0,0.0,0.0,4.0,1.0,phase_2,stop,650.0,650.0,4.0,,,,,,,,,blue,I
0.0,1.0,1.0,0.0,5.0,5.0,915.4626959934832,4.0,1.0,phase_2,go,700.0,650.0,1.0,,,,,,,,,green,cross
0.0,4.0,4.0,0.0,6.0,6.0,885.9025819692761,4.0,1.0,phase_2,go,700.0,650.0,1.0,,,,,,,,,white,circle
0.0,1.0,1.0,0.0,6.0,5.0,895.8495419938117,5.0,1.0,phase_2,go,700.0,650.0,2.0,,,,,,,,,green,cross
0.0,3.0,3.0,0.0,6.0,6.0,766.8392430059612,5.0,1.0,phase_2,go,700.0,650.0,1.0,,,,,,,,,magenta,flipped triangle
0.0,3.0,3.0,0.0,5.0,5.0,408.2678221166134,5.0,1.0,phase_2,go,700.0,650.0,1.0,,,,,,,,,magenta,flipped triangle
0.0,4.0,4.0,0.0,5.0,5.0,620.865770848468,5.0,1.0,phase_2,go,700.0,650.0,1.0,,,,,,,,,white,circle
0.0,6.0,2.0,1.0,6.0,6.0,508.66473582573235,5.0,1.0,phase_2,stop,700.0,650.0,3.0,,,,,,,,,orange,square
0.0,7.0,3.0,1.0,5.0,5.0,501.78584503009915,5.0,1.0,phase_2,stop,700.0,600.0,3.0,,,,,,,,,yellow,hexagon
0.0,4.0,4.0,0.0,5.0,5.0,363.6254270095378,5.0,1.0,phase_2,go,650.0,600.0,1.0,,,,,,,,,white,circle
0.0,3.0,3.0,0.0,5.0,5.0,514.6346860565245,5.0,1.0,phase_2,go,650.0,600.0,1.0,,,,,,,,,magenta,flipped triangle
0.0,6.0,2.0,1.0,5.0,5.0,690.5531669035554,5.0,1.0,phase_2,stop,650.0,600.0,3.0,,,,,,,,,orange,square
0.0,6.0,2.0,1.0,6.0,0.0,0.0,5.0,1.0,phase_2,stop,600.0,600.0,4.0,,,,,,,,,orange,square
0.0,3.0,3.0,0.0,6.0,6.0,643.2743729092181,5.0,1.0,phase_2,go,600.0,650.0,1.0,,,,,,,,,magenta,flipped triangle
0.0,6.0,2.0,1.0,5.0,5.0,803.7479449994862,5.0,1.0,phase_2,go,600.0,650.0,1.0,,,,,,,,,orange,square
0.0,2.0,2.0,0.0,5.0,5.0,688.1745317950845,5.0,1.0,phase_2,go,600.0,650.0,1.0,,,,,,,,,gray,diamond
0.0,4.0,4.0,0.0,6.0,6.0,720.667886082083,5.0,1.0,phase_2,go,600.0,650.0,1.0,,,,,,,,,white,circle
0.0,1.0,1.0,0.0,6.0,6.0,718.8025789801031,5.0,1.0,phase_2,go,600.0,650.0,1.0,,,,,,,,,green,cross
0.0,5.0,1.0,1.0,5.0,0.0,0.0,5.0,1.0,phase_2,stop,600.0,650.0,4.0,,,,,,,,,blue,I
0.0,4.0,4.0,0.0,5.0,5.0,704.7936900053173,5.0,1.0,phase_2,go,650.0,650.0,1.0,,,,,,,,,white,circle
0.0,6.0,2.0,1.0,6.0,6.0,590.2013489976525,5.0,1.0,phase_2,stop,650.0,650.0,3.0,,,,,,,,,orange,square
0.0,5.0,1.0,1.0,6.0,6.0,742.8853269666433,5.0,1.0,phase_2,go,650.0,600.0,1.0,,,,,,,,,blue,I
0.0,3.0,3.0,0.0,5.0,5.0,672.0595778897405,5.0,1.0,phase_2,go,650.0,600.0,1.0,,,,,,,,,magenta,flipped triangle
0.0,6.0,2.0,1.0,5.0,0.0,0.0,5.0,1.0,phase_2,stop,650.0,600.0,4.0,,,,,,,,,orange,square
0.0,8.0,4.0,1.0,6.0,6.0,694.7980138938874,5.0,1.0,phase_2,go,700.0,600.0,1.0,,,,,,,,,cyan,triangle
0.0,8.0,4.0,1.0,5.0,5.0,724.5600861497223,5.0,1.0,phase_2,stop,700.0,600.0,3.0,,,,,,,,,cyan,triangle
0.0,5.0,1.0,1.0,5.0,0.0,0.0,5.0,1.0,phase_2,stop,650.0,600.0,4.0,,,,,,,,,blue,I
0.0,1.0,1.0,0.0,5.0,5.0,634.6525771077722,5.0,1.0,phase_2,go,700.0,600.0,1.0,,,,,,,,,green,cross
0.0,8.0,4.0,1.0,6.0,6.0,568.8728480599821,5.0,1.0,phase_2,stop,700.0,600.0,3.0,,,,,,,,,cyan,triangle
0.0,3.0,3.0,0.0,6.0,6.0,834.4920799136162,5.0,1.0,phase_2,go,700.0,550.0,1.0,,,,,,,,,magenta,flipped triangle
0.0,4.0,4.0,0.0,5.0,5.0,771.4709299616516,5.0,1.0,phase_2,go,700.0,550.0,1.0,,,,,,,,,white,circle
0.0,6.0,2.0,1.0,5.0,5.0,728.1377839390188,5.0,1.0,phase_2,stop,700.0,550.0,3.0,,,,,,,,,orange,square
0.0,7.0,3.0,1.0,5.0,5.0,513.4923118166625,5.0,1.0,phase_2,stop,650.0,550.0,3.0,,,,,,,,,yellow,hexagon
0.0,5.0,1.0,1.0,5.0,0.0,0.0,5.0,1.0,phase_2,stop,600.0,550.0,4.0,,,,,,,,,blue,I
0.0,7.0,3.0,1.0,5.0,5.0,743.9861509483308,5.0,1.0,phase_2,go,650.0,550.0,1.0,,,,,,,,,yellow,hexagon
0.0,2.0,2.0,0.0,5.0,5.0,799.8978130053729,5.0,1.0,phase_2,go,650.0,550.0,1.0,,,,,,,,,gray,diamond
0.0,1.0,1.0,0.0,6.0,6.0,885.7192560099065,5.0,1.0,phase_2,go,650.0,550.0,1.0,,,,,,,,,green,cross
0.0,3.0,3.0,0.0,6.0,6.0,380.5635280441493,5.0,1.0,phase_2,go,650.0,550.0,1.0,,,,,,,,,magenta,flipped triangle
0.0,7.0,3.0,1.0,5.0,5.0,285.3780300356447,5.0,1.0,phase_2,go,650.0,550.0,1.0,,,,,,,,,yellow,hexagon
0.0,2.0,2.0,0.0,6.0,6.0,557.0385009050369,6.0,1.0,phase_2,go,650.0,550.0,1.0,,,,,,,,,gray,diamond
0.0,7.0,3.0,1.0,6.0,6.0,338.1762739736587,6.0,1.0,phase_2,stop,650.0,550.0,3.0,,,,,,,,,yellow,hexagon
0.0,3.0,3.0,0.0,6.0,6.0,572.3274471238256,6.0,1.0,phase_2,go,650.0,500.0,1.0,,,,,,,,,magenta,flipped triangle
0.0,1.0,1.0,0.0,5.0,5.0,440.9049639943987,6.0,1.0,phase_2,go,650.0,500.0,1.0,,,,,,,,,green,cross
0.0,1.0,1.0,0.0,5.0,5.0,514.744610991329,6.0,1.0,phase_2,go,650.0,500.0,1.0,,,,,,,,,green,cross
0.0,6.0,2.0,1.0,6.0,6.0,504.06364793889225,6.0,1.0,phase_2,go,650.0,500.0,1.0,,,,,,,,,orange,square
0.0,2.0,2.0,0.0,6.0,6.0,647.137600928545,6.0,1.0,phase_2,go,650.0,500.0,1.0,,,,,,,,,gray,diamond
0.0,1.0,1.0,0.0,5.0,5.0,642.4889639019966,6.0,1.0,phase_2,go,650.0,500.0,1.0,,,,,,,,,green,cross
0.0,5.0,1.0,1.0,5.0,5.0,638.7657590676099,6.0,1.0,phase_2,stop,650.0,500.0,3.0,,,,,,,,,blue,I
0.0,1.0,1.0,0.0,5.0,5.0,689.2743979115039,6.0,1.0,phase_2,go,600.0,500.0,1.0,,,,,,,,,green,cross
0.0,5.0,1.0,1.0,5.0,5.0,534.3291920144111,6.0,1.0,phase_2,stop,600.0,500.0,3.0,,,,,,,,,blue,I
0.0,1.0,1.0,0.0,5.0,5.0,480.5254100356251,6.0,1.0,phase_2,go,550.0,500.0,1.0,,,,,,,,,green,cross
0.0,8.0,4.0,1.0,5.0,5.0,636.1918719485402,6.0,1.0,phase_2,go,550.0,500.0,1.0,,,,,,,,,cyan,triangle
0.0,3.0,3.0,0.0,5.0,5.0,455.7132110930979,6.0,1.0,phase_2,go,550.0,500.0,1.0,,,,,,,,,magenta,flipped triangle
0.0,3.0,3.0,0.0,5.0,5.0,317.1093149576336,6.0,1.0,phase_2,go,550.0,500.0,1.0,,,,,,,,,magenta,flipped triangle
0.0,7.0,3.0,1.0,6.0,6.0,478.7638678681105,6.0,1.0,phase_2,stop,550.0,500.0,3.0,,,,,,,,,yellow,hexagon
0.0,6.0,2.0,1.0,5.0,5.0,380.2824569866061,6.0,1.0,phase_2,stop,550.0,450.0,3.0,,,,,,,,,orange,square
0.0,2.0,2.0,0.0,5.0,5.0,668.0878840852529,6.0,1.0,phase_2,go,500.0,450.0,1.0,,,,,,,,,gray,diamond
0.0,2.0,2.0,0.0,5.0,5.0,699.246333912015,6.0,1.0,phase_2,go,500.0,450.0,1.0,,,,,,,,,gray,diamond
0.0,6.0,2.0,1.0,5.0,5.0,736.4616191480309,6.0,1.0,phase_2,go,500.0,450.0,1.0,,,,,,,,,orange,square
0.0,1.0,1.0,0.0,6.0,6.0,811.0133679583669,6.0,1.0,phase_2,go,500.0,450.0,1.0,,,,,,,,,green,cross
0.0,1.0,1.0,0.0,6.0,6.0,297.7513379883021,6.0,1.0,phase_2,go,500.0,450.0,1.0,,,,,,,,,green,cross
0.0,8.0,4.0,1.0,5.0,5.0,542.8258490283042,6.0,1.0,phase_2,stop,500.0,450.0,3.0,,,,,,,,,cyan,triangle
0.0,1.0,1.0,0.0,6.0,6.0,711.0963009763509,6.0,1.0,phase_2,go,450.0,450.0,1.0,,,,,,,,,green,cross
0.0,2.0,2.0,0.0,5.0,5.0,721.8490061350167,6.0,1.0,phase_2,go,450.0,450.0,1.0,,,,,,,,,gray,diamond
0.0,7.0,3.0,1.0,6.0,0.0,0.0,6.0,1.0,phase_2,stop,450.0,450.0,4.0,,,,,,,,,yellow,hexagon
0.0,6.0,2.0,1.0,5.0,0.0,0.0,6.0,1.0,phase_2,stop,450.0,500.0,4.0,,,,,,,,,orange,square
0.0,6.0,2.0,1.0,6.0,6.0,671.5597861912102,6.0,1.0,phase_2,go,500.0,500.0,1.0,,,,,,,,,orange,square
0.0,2.0,2.0,0.0,5.0,5.0,477.7991999872029,6.0,1.0,phase_2,go,500.0,500.0,1.0,,,,,,,,,gray,diamond
0.0,8.0,4.0,1.0,5.0,0.0,0.0,6.0,1.0,phase_2,stop,500.0,500.0,4.0,,,,,,,,,cyan,triangle
0.0,4.0,4.0,0.0,6.0,6.0,498.3679200522601,6.0,1.0,phase_2,go,550.0,500.0,1.0,,,,,,,,,white,circle
0.0,7.0,3.0,1.0,5.0,5.0,578.6083911079913,6.0,1.0,phase_2,stop,550.0,500.0,3.0,,,,,,,,,yellow,hexagon
0.0,7.0,3.0,1.0,5.0,0.0,0.0,6.0,1.0,phase_2,stop,500.0,500.0,4.0,,,,,,,,,yellow,hexagon
0.0,7.0,3.0,1.0,6.0,0.0,0.0,6.0,1.0,phase_2,stop,550.0,500.0,4.0,,,,,,,,,yellow,hexagon
0.0,2.0,2.0,0.0,5.0,5.0,416.8488390278071,6.0,1.0,phase_2,go,550.0,550.0,1.0,,,,,,,,,gray,diamond
0.0,6.0,2.0,1.0,6.0,0.0,0.0,6.0,1.0,phase_2,stop,550.0,550.0,4.0,,,,,,,,,orange,square
0.0,3.0,3.0,0.0,5.0,5.0,644.6058368310332,7.0,1.0,phase_2,go,550.0,600.0,1.0,,,,,,,,,magenta,flipped triangle
0.0,8.0,4.0,1.0,5.0,5.0,397.6725079119205,7.0,1.0,phase_2,stop,550.0,600.0,3.0,,,,,,,,,cyan,triangle
0.0,5.0,1.0,1.0,6.0,6.0,651.1612329632044,7.0,1.0,phase_2,stop,500.0,600.0,3.0,,,,,,,,,blue,I
0.0,2.0,2.0,0.0,6.0,6.0,650.2106878906488,7.0,1.0,phase_2,go,500.0,550.0,1.0,,,,,,,,,gray,diamond
0.0,5.0,1.0,1.0,5.0,5.0,817.2606599982828,7.0,1.0,phase_2,go,500.0,550.0,1.0,,,,,,,,,blue,I
0.0,8.0,4.0,1.0,6.0,6.0,642.5823299214244,7.0,1.0,phase_2,stop,500.0,550.0,3.0,,,,,,,,,cyan,triangle
0.0,6.0,2.0,1.0,5.0,0.0,0.0,7.0,1.0,phase_2,stop,500.0,500.0,4.0,,,,,,,,,orange,square
0.0,8.0,4.0,1.0,6.0,6.0,727.8419099748135,7.0,1.0,phase_2,go,550.0,500.0,1.0,,,,,,,,,cyan,triangle
0.0,3.0,3.0,0.0,6.0,6.0,666.358154034242,7.0,1.0,phase_2,go,550.0,500.0,1.0,,,,,,,,,magenta,flipped triangle
0.0,4.0,4.0,0.0,5.0,5.0,622.6466118823737,7.0,1.0,phase_2,go,550.0,500.0,1.0,,,,,,,,,white,circle
0.0,4.0,4.0,0.0,6.0,6.0,389.8864269722253,7.0,1.0,phase_2,go,550.0,500.0,1.0,,,,,,,,,white,circle
0.0,1.0,1.0,0.0,6.0,6.0,494.9719158466905,7.0,1.0,phase_2,go,550.0,500.0,1.0,,,,,,,,,green,cross
0.0,1.0,1.0,0.0,6.0,6.0,663.693540962413,7.0,1.0,phase_2,go,550.0,500.0,1.0,,,,,,,,,green,cross
0.0,7.0,3.0,1.0,6.0,0.0,0.0,7.0,1.0,phase_2,stop,550.0,500.0,4.0,,,,,,,,,yellow,hexagon
0.0,8.0,4.0,1.0,5.0,5.0,495.5718999262899,7.0,1.0,phase_2,stop,550.0,550.0,3.0,,,,,,,,,cyan,triangle
0.0,4.0,4.0,0.0,5.0,5.0,741.8842019978911,7.0,1.0,phase_2,go,500.0,550.0,1.0,,,,,,,,,white,circle
0.0,5.0,1.0,1.0,5.0,0.0,0.0,7.0,1.0,phase_2,stop,500.0,550.0,4.0,,,,,,,,,blue,I
0.0,3.0,3.0,0.0,6.0,6.0,604.6398039907217,7.0,1.0,phase_2,go,550.0,550.0,1.0,,,,,,,,,magenta,flipped triangle
0.0,7.0,3.0,1.0,6.0,6.0,852.3178470786661,7.0,1.0,phase_2,go,550.0,550.0,1.0,,,,,,,,,yellow,hexagon
0.0,4.0,4.0,0.0,5.0,5.0,497.7948509622365,7.0,1.0,phase_2,go,550.0,550.0,1.0,,,,,,,,,white,circle
0.0,4.0,4.0,0.0,6.0,6.0,859.8704899195582,7.0,1.0,phase_2,go,550.0,550.0,1.0,,,,,,,,,white,circle
0.0,6.0,2.0,1.0,6.0,6.0,489.0974899753928,7.0,1.0,phase_2,stop,550.0,550.0,3.0,,,,,,,,,orange,square
0.0,3.0,3.0,0.0,5.0,5.0,702.9760431032628,7.0,1.0,phase_2,go,550.0,500.0,1.0,,,,,,,,,magenta,flipped triangle
0.0,1.0,1.0,0.0,6.0,6.0,392.7711939904839,7.0,1.0,phase_2,go,550.0,500.0,1.0,,,,,,,,,green,cross
0.0,3.0,3.0,0.0,5.0,5.0,672.8284012060612,7.0,1.0,phase_2,go,550.0,500.0,1.0,,,,,,,,,magenta,flipped triangle
0.0,3.0,3.0,0.0,6.0,6.0,399.0362558979541,7.0,1.0,phase_2,go,550.0,500.0,1.0,,,,,,,,,magenta,flipped triangle
0.0,2.0,2.0,0.0,6.0,6.0,637.668940005824,7.0,1.0,phase_2,go,550.0,500.0,1.0,,,,,,,,,gray,diamond
0.0,5.0,1.0,1.0,5.0,0.0,0.0,7.0,1.0,phase_2,stop,550.0,500.0,4.0,,,,,,,,,blue,I
0.0,1.0,1.0,0.0,6.0,6.0,686.1203650478274,7.0,1.0,phase_2,go,600.0,500.0,1.0,,,,,,,,,green,cross
0.0,7.0,3.0,1.0,5.0,0.0,0.0,7.0,1.0,phase_2,stop,600.0,500.0,4.0,,,,,,,,,yellow,hexagon
0.0,6.0,2.0,1.0,6.0,6.0,606.537810061127,7.0,1.0,phase_2,go,650.0,500.0,1.0,,,,,,,,,orange,square
0.0,8.0,4.0,1.0,6.0,0.0,0.0,7.0,1.0,phase_2,stop,650.0,500.0,4.0,,,,,,,,,cyan,triangle
0.0,7.0,3.0,1.0,6.0,0.0,0.0,7.0,1.0,phase_2,stop,650.0,550.0,4.0,,,,,,,,,yellow,hexagon
0.0,7.0,3.0,1.0,6.0,6.0,748.9505461417139,7.0,1.0,phase_2,go,650.0,600.0,1.0,,,,,,,,,yellow,hexagon
0.0,8.0,4.0,1.0,5.0,5.0,1112.4062268063426,7.0,1.0,phase_2,go,650.0,600.0,1.0,,,,,,,,,cyan,triangle
0.0,3.0,3.0,0.0,5.0,5.0,536.6227580234408,7.0,1.0,phase_2,go,650.0,600.0,1.0,,,,,,,,,magenta,flipped triangle
0.0,4.0,4.0,0.0,5.0,5.0,433.4382889792323,8.0,1.0,phase_2,go,650.0,600.0,1.0,,,,,,,,,white,circle
0.0,6.0,2.0,1.0,5.0,5.0,601.581335067749,8.0,1.0,phase_2,go,650.0,600.0,1.0,,,,,,,,,orange,square
0.0,5.0,1.0,1.0,5.0,5.0,356.3317880034446,8.0,1.0,phase_2,go,650.0,600.0,1.0,,,,,,,,,blue,I
0.0,7.0,3.0,1.0,5.0,5.0,681.8351258989424,8.0,1.0,phase_2,stop,650.0,600.0,3.0,,,,,,,,,yellow,hexagon
0.0,3.0,3.0,0.0,6.0,6.0,607.2359171230346,8.0,1.0,phase_2,go,600.0,600.0,1.0,,,,,,,,,magenta,flipped triangle
0.0,4.0,4.0,0.0,5.0,5.0,590.4657409992069,8.0,1.0,phase_2,go,600.0,600.0,1.0,,,,,,,,,white,circle
0.0,1.0,1.0,0.0,6.0,6.0,654.6092398930341,8.0,1.0,phase_2,go,600.0,600.0,1.0,,,,,,,,,green,cross
0.0,8.0,4.0,1.0,6.0,6.0,422.5814540404826,8.0,1.0,phase_2,stop,600.0,600.0,3.0,,,,,,,,,cyan,triangle
0.0,6.0,2.0,1.0,5.0,5.0,517.1332731842995,8.0,1.0,phase_2,go,600.0,550.0,1.0,,,,,,,,,orange,square
0.0,7.0,3.0,1.0,5.0,5.0,617.6454401575029,8.0,1.0,phase_2,stop,600.0,550.0,3.0,,,,,,,,,yellow,hexagon
0.0,3.0,3.0,0.0,6.0,6.0,701.640416868031,8.0,1.0,phase_2,go,550.0,550.0,1.0,,,,,,,,,magenta,flipped triangle
0.0,5.0,1.0,1.0,6.0,0.0,0.0,8.0,1.0,phase_2,stop,550.0,550.0,4.0,,,,,,,,,blue,I
0.0,2.0,2.0,0.0,6.0,6.0,733.2889051176608,8.0,1.0,phase_2,go,550.0,600.0,1.0,,,,,,,,,gray,diamond
0.0,2.0,2.0,0.0,5.0,5.0,644.9222038500011,8.0,1.0,phase_2,go,550.0,600.0,1.0,,,,,,,,,gray,diamond
0.0,2.0,2.0,0.0,6.0,6.0,509.7414059564471,8.0,1.0,phase_2,go,550.0,600.0,1.0,,,,,,,,,gray,diamond
0.0,7.0,3.0,1.0,5.0,5.0,889.9054520297796,8.0,1.0,phase_2,go,550.0,600.0,1.0,,,,,,,,,yellow,hexagon
0.0,7.0,3.0,1.0,6.0,0.0,0.0,8.0,1.0,phase_2,stop,550.0,600.0,4.0,,,,,,,,,yellow,hexagon
0.0,7.0,3.0,1.0,6.0,0.0,0.0,8.0,1.0,phase_2,stop,550.0,650.0,4.0,,,,,,,,,yellow,hexagon
0.0,1.0,1.0,0.0,6.0,6.0,586.7809681221843,8.0,1.0,phase_2,go,550.0,700.0,1.0,,,,,,,,,green,cross
0.0,6.0,2.0,1.0,6.0,6.0,734.9721449427307,8.0,1.0,phase_2,stop,550.0,700.0,3.0,,,,,,,,,orange,square
0.0,6.0,2.0,1.0,6.0,0.0,0.0,8.0,1.0,phase_2,stop,550.0,650.0,4.0,,,,,,,,,orange,square
0.0,3.0,3.0,0.0,5.0,5.0,605.8941008523107,8.0,1.0,phase_2,go,550.0,700.0,1.0,,,,,,,,,magenta,flipped triangle
0.0,2.0,2.0,0.0,5.0,5.0,517.192505998537,8.0,1.0,phase_2,go,550.0,700.0,1.0,,,,,,,,,gray,diamond
0.0,2.0,2.0,0.0,5.0,5.0,412.9213530104607,8.0,1.0,phase_2,go,550.0,700.0,1.0,,,,,,,,,gray,diamond
0.0,8.0,4.0,1.0,5.0,0.0,0.0,8.0,1.0,phase_2,stop,550.0,700.0,4.0,,,,,,,,,cyan,triangle
0.0,7.0,3.0,1.0,6.0,6.0,605.4147821851075,8.0,1.0,phase_2,stop,600.0,700.0,3.0,,,,,,,,,yellow,hexagon
0.0,8.0,4.0,1.0,5.0,5.0,773.8725219387561,8.0,1.0,phase_2,go,600.0,650.0,1.0,,,,,,,,,cyan,triangle
0.0,7.0,3.0,1.0,5.0,5.0,1014.8992219474169,8.0,1.0,phase_2,go,600.0,650.0,1.0,,,,,,,,,yellow,hexagon
0.0,8.0,4.0,1.0,6.0,0.0,0.0,8.0,1.0,phase_2,stop,600.0,650.0,4.0,,,,,,,,,cyan,triangle
0.0,8.0,4.0,1.0,5.0,0.0,0.0,8.0,1.0,phase_2,stop,600.0,700.0,4.0,,,,,,,,,cyan,triangle
0.0,2.0,2.0,0.0,5.0,5.0,529.5622888952494,8.0,1.0,phase_2,go,650.0,700.0,1.0,,,,,,,,,gray,diamond
0.0,5.0,1.0,1.0,6.0,6.0,370.9662798792124,8.0,1.0,phase_2,stop,650.0,700.0,3.0,,,,,,,,,blue,I
0.0,7.0,3.0,1.0,5.0,0.0,0.0,8.0,1.0,phase_2,stop,650.0,650.0,4.0,,,,,,,,,yellow,hexagon
0.0,3.0,3.0,0.0,5.0,5.0,659.5069111790508,8.0,1.0,phase_2,go,700.0,650.0,1.0,,,,,,,,,magenta,flipped triangle
0.0,5.0,1.0,1.0,6.0,6.0,822.8783181402832,8.0,1.0,phase_2,stop,700.0,650.0,3.0,,,,,,,,,blue,I
0.0,4.0,4.0,0.0,6.0,6.0,648.871251847595,8.0,1.0,phase_2,go,700.0,600.0,1.0,,,,,,,,,white,circle
0.0,3.0,3.0,0.0,7.0,4.0,2147.290247000001,1.0,1.0,phase_3,,,,,78.0,2.0,117.0,234.0,195.0,78.0,39.0,156.0,magenta,flipped triangle
0.0,2.0,2.0,0.0,7.0,5.0,2346.309953000002,1.0,1.0,phase_3,,,,,176.0,4.0,88.0,44.0,264.0,220.0,176.0,132.0,gray,diamond
0.0,7.0,3.0,1.0,7.0,3.0,1271.575188000014,1.0,1.0,phase_3,,,,,234.0,6.0,117.0,78.0,234.0,156.0,39.0,195.0,yellow,hexagon
0.0,2.0,2.0,0.0,7.0,2.0,1913.8090189999843,1.0,1.0,phase_3,,,,,78.0,2.0,117.0,78.0,234.0,195.0,156.0,39.0,gray,diamond
0.0,1.0,1.0,0.0,7.0,5.0,1142.4885099999926,1.0,1.0,phase_3,,,,,88.0,2.0,264.0,176.0,220.0,132.0,88.0,44.0,green,cross
0.0,5.0,1.0,1.0,7.0,6.0,1709.8423310000044,1.0,1.0,phase_3,,,,,34.0,1.0,170.0,204.0,102.0,136.0,68.0,34.0,blue,I
0.0,5.0,1.0,1.0,7.0,2.0,1589.2019370000128,1.0,1.0,phase_3,,,,,132.0,3.0,176.0,132.0,264.0,220.0,88.0,44.0,blue,I
0.0,3.0,3.0,0.0,7.0,5.0,1200.8152870000115,1.0,1.0,phase_3,,,,,270.0,5.0,216.0,162.0,108.0,54.0,270.0,324.0,magenta,flipped triangle
0.0,8.0,4.0,1.0,7.0,2.0,1360.103539999983,1.0,1.0,phase_3,,,,,88.0,2.0,264.0,88.0,132.0,176.0,44.0,220.0,cyan,triangle
0.0,6.0,2.0,1.0,7.0,4.0,1220.0516899999911,1.0,1.0,phase_3,,,,,196.0,4.0,49.0,294.0,245.0,196.0,147.0,98.0,orange,square
0.0,3.0,3.0,0.0,7.0,3.0,1446.5367009999852,1.0,1.0,phase_3,,,,,136.0,4.0,204.0,34.0,136.0,170.0,102.0,68.0,magenta,flipped triangle
0.0,2.0,2.0,0.0,7.0,5.0,1341.7262960000187,1.0,1.0,phase_3,,,,,147.0,3.0,245.0,294.0,49.0,98.0,147.0,196.0,gray,diamond
0.0,7.0,3.0,1.0,7.0,2.0,1128.3233380000013,1.0,1.0,phase_3,,,,,216.0,4.0,324.0,216.0,108.0,54.0,270.0,162.0,yellow,hexagon
0.0,2.0,2.0,0.0,7.0,3.0,2058.8447910000127,1.0,1.0,phase_3,,,,,117.0,3.0,39.0,195.0,117.0,234.0,156.0,78.0,gray,diamond
0.0,3.0,3.0,0.0,7.0,6.0,1384.379989000024,1.0,1.0,phase_3,,,,,264.0,6.0,220.0,176.0,44.0,88.0,132.0,264.0,magenta,flipped triangle
0.0,5.0,1.0,1.0,7.0,4.0,2145.684205000009,1.0,1.0,phase_3,,,,,195.0,5.0,234.0,39.0,117.0,195.0,156.0,78.0,blue,I
0.0,5.0,1.0,1.0,7.0,2.0,2013.9575270000023,1.0,1.0,phase_3,,,,,195.0,5.0,156.0,195.0,117.0,234.0,39.0,78.0,blue,I
0.0,6.0,2.0,1.0,7.0,1.0,1653.349917000014,1.0,1.0,phase_3,,,,,132.0,3.0,132.0,264.0,220.0,44.0,176.0,88.0,orange,square
0.0,7.0,3.0,1.0,7.0,3.0,1608.9874169999805,1.0,1.0,phase_3,,,,,270.0,5.0,54.0,216.0,270.0,162.0,324.0,108.0,yellow,hexagon
0.0,8.0,4.0,1.0,7.0,4.0,1385.6460129999846,1.0,1.0,phase_3,,,,,204.0,6.0,34.0,136.0,102.0,204.0,68.0,170.0,cyan,triangle
0.0,6.0,2.0,1.0,7.0,5.0,1848.4348640000119,2.0,1.0,phase_3,,,,,170.0,5.0,34.0,136.0,68.0,102.0,170.0,204.0,orange,square
0.0,4.0,4.0,0.0,7.0,6.0,2186.869891000015,2.0,1.0,phase_3,,,,,117.0,3.0,234.0,39.0,78.0,156.0,195.0,117.0,white,circle
0.0,2.0,2.0,0.0,7.0,3.0,1932.761801999959,2.0,1.0,phase_3,,,,,136.0,4.0,204.0,34.0,136.0,102.0,170.0,68.0,gray,diamond
0.0,1.0,1.0,0.0,7.0,2.0,2188.3139180000057,2.0,1.0,phase_3,,,,,220.0,5.0,176.0,220.0,44.0,132.0,264.0,88.0,green,cross
0.0,7.0,3.0,1.0,7.0,2.0,1838.4634260000323,2.0,1.0,phase_3,,,,,294.0,6.0,147.0,294.0,245.0,98.0,196.0,49.0,yellow,hexagon
0.0,4.0,4.0,0.0,7.0,5.0,1409.2182899999557,2.0,1.0,phase_3,,,,,102.0,3.0,204.0,136.0,68.0,34.0,102.0,170.0,white,circle
0.0,1.0,1.0,0.0,7.0,2.0,2603.9751679999767,2.0,1.0,phase_3,,,,,54.0,1.0,270.0,54.0,108.0,162.0,324.0,216.0,green,cross
0.0,3.0,3.0,0.0,7.0,4.0,2321.4091070000222,2.0,1.0,phase_3,,,,,34.0,1.0,170.0,102.0,68.0,34.0,136.0,204.0,magenta,flipped triangle
0.0,2.0,2.0,0.0,7.0,6.0,2043.9612030000376,2.0,1.0,phase_3,,,,,132.0,3.0,88.0,176.0,264.0,220.0,44.0,132.0,gray,diamond
0.0,6.0,2.0,1.0,7.0,2.0,2222.1050160000004,2.0,1.0,phase_3,,,,,162.0,3.0,54.0,162.0,324.0,216.0,108.0,270.0,orange,square
0.0,1.0,1.0,0.0,7.0,2.0,1263.9631050000162,2.0,1.0,phase_3,,,,,245.0,5.0,196.0,245.0,49.0,294.0,147.0,98.0,green,cross
0.0,7.0,3.0,1.0,7.0,3.0,2319.363414000009,2.0,1.0,phase_3,,,,,196.0,4.0,294.0,49.0,196.0,98.0,245.0,147.0,yellow,hexagon
0.0,4.0,4.0,0.0,7.0,3.0,1456.2019549999832,2.0,1.0,phase_3,,,,,54.0,1.0,216.0,108.0,54.0,162.0,324.0,270.0,white,circle
0.0,7.0,3.0,1.0,7.0,2.0,2387.97884600001,2.0,1.0,phase_3,,,,,170.0,5.0,204.0,170.0,68.0,34.0,102.0,136.0,yellow,hexagon
0.0,8.0,4.0,1.0,7.0,1.0,2147.139041999992,2.0,1.0,phase_3,,,,,78.0,2.0,78.0,234.0,117.0,156.0,195.0,39.0,cyan,triangle
0.0,6.0,2.0,1.0,7.0,5.0,2485.955425000043,2.0,1.0,phase_3,,,,,156.0,4.0,117.0,195.0,78.0,39.0,156.0,234.0,orange,square
0.0,5.0,1.0,1.0,7.0,4.0,1653.441105000013,2.0,1.0,phase_3,,,,,270.0,5.0,162.0,324.0,216.0,270.0,108.0,54.0,blue,I
0.0,6.0,2.0,1.0,7.0,1.0,1840.1531559999853,2.0,1.0,phase_3,,,,,162.0,3.0,162.0,216.0,270.0,54.0,108.0,324.0,orange,square
0.0,5.0,1.0,1.0,7.0,5.0,1618.77976400001,2.0,1.0,phase_3,,,,,270.0,5.0,54.0,216.0,324.0,108.0,270.0,162.0,blue,I
0.0,1.0,1.0,0.0,7.0,6.0,2268.6439589999736,2.0,1.0,phase_3,,,,,204.0,6.0,102.0,34.0,136.0,68.0,170.0,204.0,green,cross
0.0,4.0,4.0,0.0,7.0,5.0,2683.381967999992,3.0,1.0,phase_3,,,,,176.0,4.0,220.0,44.0,132.0,88.0,176.0,264.0,white,circle
0.0,8.0,4.0,1.0,7.0,1.0,2838.8804049999976,3.0,1.0,phase_3,,,,,216.0,4.0,216.0,108.0,54.0,324.0,162.0,270.0,cyan,triangle
0.0,5.0,1.0,1.0,7.0,5.0,2728.386009000019,3.0,1.0,phase_3,,,,,49.0,1.0,294.0,147.0,245.0,196.0,49.0,98.0,blue,I
0.0,1.0,1.0,0.0,7.0,2.0,2319.035078000013,3.0,1.0,phase_3,,,,,78.0,2.0,195.0,78.0,234.0,117.0,156.0,39.0,green,cross
0.0,1.0,1.0,0.0,7.0,4.0,1775.5667170000038,3.0,1.0,phase_3,,,,,78.0,2.0,234.0,39.0,195.0,78.0,117.0,156.0,green,cross
0.0,8.0,4.0,1.0,7.0,2.0,1465.155526999979,3.0,1.0,phase_3,,,,,294.0,6.0,98.0,294.0,147.0,245.0,196.0,49.0,cyan,triangle
0.0,6.0,2.0,1.0,7.0,6.0,1149.9922369999922,3.0,1.0,phase_3,,,,,136.0,4.0,102.0,34.0,204.0,170.0,68.0,136.0,orange,square
0.0,2.0,2.0,0.0,7.0,5.0,1166.9559320000076,3.0,1.0,phase_3,,,,,294.0,6.0,196.0,98.0,147.0,245.0,294.0,49.0,gray,diamond
0.0,2.0,2.0,0.0,7.0,3.0,1873.227820000011,3.0,1.0,phase_3,,,,,270.0,5.0,54.0,162.0,270.0,216.0,324.0,108.0,gray,diamond
0.0,4.0,4.0,0.0,7.0,5.0,3049.075242000015,3.0,1.0,phase_3,,,,,216.0,4.0,108.0,54.0,162.0,324.0,216.0,270.0,white,circle
0.0,6.0,2.0,1.0,7.0,4.0,1369.7293669999908,3.0,1.0,phase_3,,,,,220.0,5.0,44.0,88.0,264.0,220.0,176.0,132.0,orange,square
0.0,4.0,4.0,0.0,7.0,5.0,1753.9871349999885,3.0,1.0,phase_3,,,,,147.0,3.0,294.0,245.0,196.0,98.0,147.0,49.0,white,circle
0.0,3.0,3.0,0.0,7.0,5.0,2171.426217999965,3.0,1.0,phase_3,,,,,220.0,5.0,176.0,132.0,88.0,44.0,220.0,264.0,magenta,flipped triangle
0.0,2.0,2.0,0.0,7.0,2.0,1428.2235039999591,3.0,1.0,phase_3,,,,,68.0,2.0,204.0,68.0,136.0,102.0,170.0,34.0,gray,diamond
0.0,4.0,4.0,0.0,7.0,3.0,2192.12517699998,3.0,1.0,phase_3,,,,,147.0,3.0,196.0,49.0,147.0,98.0,294.0,245.0,white,circle
0.0,4.0,4.0,0.0,7.0,5.0,1448.7475590000258,3.0,1.0,phase_3,,,,,264.0,6.0,44.0,88.0,220.0,176.0,264.0,132.0,white,circle
0.0,7.0,3.0,1.0,7.0,3.0,1642.6363670000228,3.0,1.0,phase_3,,,,,220.0,5.0,132.0,176.0,220.0,88.0,264.0,44.0,yellow,hexagon
0.0,8.0,4.0,1.0,7.0,6.0,1242.6594050000404,3.0,1.0,phase_3,,,,,294.0,6.0,196.0,245.0,98.0,49.0,147.0,294.0,cyan,triangle
0.0,7.0,3.0,1.0,7.0,5.0,1402.794278999977,3.0,1.0,phase_3,,,,,234.0,6.0,195.0,78.0,117.0,39.0,234.0,156.0,yellow,hexagon
0.0,8.0,4.0,1.0,7.0,2.0,2478.173079000044,3.0,1.0,phase_3,,,,,78.0,2.0,39.0,78.0,195.0,234.0,156.0,117.0,cyan,triangle
0.0,7.0,3.0,1.0,7.0,3.0,2007.6725559999886,4.0,1.0,phase_3,,,,,132.0,3.0,220.0,44.0,132.0,176.0,264.0,88.0,yellow,hexagon
0.0,3.0,3.0,0.0,7.0,4.0,1640.3035780000437,4.0,1.0,phase_3,,,,,39.0,1.0,78.0,234.0,195.0,39.0,117.0,156.0,magenta,flipped triangle
0.0,2.0,2.0,0.0,7.0,3.0,2727.1795750000365,4.0,1.0,phase_3,,,,,162.0,3.0,324.0,216.0,162.0,108.0,54.0,270.0,gray,diamond
0.0,3.0,3.0,0.0,7.0,4.0,1505.2117440000077,4.0,1.0,phase_3,,,,,49.0,1.0,98.0,294.0,147.0,49.0,245.0,196.0,magenta,flipped triangle
0.0,8.0,4.0,1.0,7.0,6.0,2484.4339559999758,4.0,1.0,phase_3,,,,,264.0,6.0,88.0,176.0,132.0,220.0,44.0,264.0,cyan,triangle
0.0,8.0,4.0,1.0,7.0,4.0,1853.491909000013,4.0,1.0,phase_3,,,,,136.0,4.0,102.0,34.0,204.0,136.0,68.0,170.0,cyan,triangle
0.0,1.0,1.0,0.0,7.0,5.0,2588.324739000086,4.0,1.0,phase_3,,,,,68.0,2.0,102.0,136.0,170.0,34.0,68.0,204.0,green,cross
0.0,3.0,3.0,0.0,7.0,5.0,1798.5852489999845,4.0,1.0,phase_3,,,,,54.0,1.0,270.0,108.0,216.0,324.0,54.0,162.0,magenta,flipped triangle
0.0,6.0,2.0,1.0,7.0,1.0,1678.8756540000804,4.0,1.0,phase_3,,,,,196.0,4.0,196.0,147.0,245.0,98.0,294.0,49.0,orange,square
0.0,1.0,1.0,0.0,7.0,2.0,1587.5647609999533,4.0,1.0,phase_3,,,,,162.0,3.0,270.0,162.0,216.0,54.0,324.0,108.0,green,cross
0.0,7.0,3.0,1.0,7.0,4.0,1756.1837760000572,4.0,1.0,phase_3,,,,,34.0,1.0,68.0,136.0,170.0,34.0,204.0,102.0,yellow,hexagon
0.0,6.0,2.0,1.0,7.0,3.0,1949.7970329999816,4.0,1.0,phase_3,,,,,234.0,6.0,78.0,117.0,234.0,195.0,156.0,39.0,orange,square
0.0,4.0,4.0,0.0,7.0,5.0,1989.487641999972,4.0,1.0,phase_3,,,,,195.0,5.0,117.0,78.0,39.0,156.0,195.0,234.0,white,circle
0.0,1.0,1.0,0.0,7.0,6.0,3191.1924989999534,4.0,1.0,phase_3,,,,,147.0,3.0,294.0,49.0,245.0,196.0,98.0,147.0,green,cross
0.0,3.0,3.0,0.0,7.0,4.0,1713.6254159998998,4.0,1.0,phase_3,,,,,49.0,1.0,196.0,294.0,147.0,49.0,245.0,98.0,magenta,flipped triangle
0.0,5.0,1.0,1.0,7.0,3.0,1457.1229009999342,4.0,1.0,phase_3,,,,,132.0,3.0,264.0,176.0,132.0,220.0,44.0,88.0,blue,I
0.0,8.0,4.0,1.0,7.0,4.0,1916.0925569999565,4.0,1.0,phase_3,,,,,216.0,4.0,324.0,162.0,108.0,216.0,54.0,270.0,cyan,triangle
0.0,5.0,1.0,1.0,7.0,2.0,2997.098651999977,4.0,1.0,phase_3,,,,,245.0,5.0,98.0,245.0,196.0,49.0,294.0,147.0,blue,I
0.0,5.0,1.0,1.0,7.0,1.0,2568.2962380000163,4.0,1.0,phase_3,,,,,204.0,6.0,204.0,34.0,102.0,170.0,136.0,68.0,blue,I
0.0,4.0,4.0,0.0,7.0,4.0,2025.0958509999464,4.0,1.0,phase_3,,,,,204.0,6.0,34.0,170.0,102.0,204.0,68.0,136.0,white,circle
