raw_reward_magnitude,stim_reward,stepwise_reward_magnitude,paired_with_stopping,stim_location,response,reaction_time,block,num_trial_presentations,which_phase,stop_signal_trial_type,left_SSD,right_SSD,accuracy,chosen_bidding_amount,chosen_bidding_level,possible_bid_1,possible_bid_2,possible_bid_3,possible_bid_4,possible_bid_5,possible_bid_6,color_text,shape_text
0.0,6.0,0.0,1.0,4.0,4.0,376.4598499983549,1.0,1.0,phase_1,,,,,,,,,,,,,blue,hexagon
0.0,2.0,0.0,0.0,4.0,4.0,496.1876099987421,1.0,1.0,phase_1,,,,,,,,,,,,,gray,I
82.0,6.0,1.0,1.0,2.0,2.0,308.3667519968003,1.0,1.0,phase_1,,,,,,,,,,,,,blue,hexagon
40.0,1.0,0.5,0.0,3.0,3.0,343.6216700065415,1.0,1.0,phase_1,,,,,,,,,,,,,cyan,diamond
193.0,3.0,2.0,0.0,4.0,4.0,299.4914580049226,1.0,1.0,phase_1,,,,,,,,,,,,,green,flipped triangle
26.0,5.0,0.5,1.0,2.0,2.0,319.9353939999128,1.0,1.0,phase_1,,,,,,,,,,,,,magenta,square
0.0,7.0,0.0,1.0,1.0,1.0,338.6901810008567,1.0,2.0,phase_1,,,,,,,,,,,,,white,triangle
415.0,4.0,4.0,0.0,3.0,3.0,301.6960340028163,1.0,1.0,phase_1,,,,,,,,,,,,,yellow,cross
0.0,2.0,0.0,0.0,3.0,3.0,435.487987997476,1.0,1.0,phase_1,,,,,,,,,,,,,gray,I
412.0,4.0,4.0,0.0,1.0,1.0,327.9466179956216,1.0,1.0,phase_1,,,,,,,,,,,,,yellow,cross
203.0,3.0,2.0,0.0,3.0,3.0,243.6768280022079,1.0,1.0,phase_1,,,,,,,,,,,,,green,flipped triangle
218.0,7.0,2.0,1.0,4.0,4.0,281.5467530017486,1.0,1.0,phase_1,,,,,,,,,,,,,white,triangle
0.0,2.0,0.0,0.0,4.0,4.0,270.0658589892555,1.0,1.0,phase_1,,,,,,,,,,,,,gray,I
411.0,8.0,4.0,1.0,4.0,4.0,299.7553669993067,1.0,1.0,phase_1,,,,,,,,,,,,,orange,circle
0.0,7.0,0.0,1.0,2.0,2.0,247.2394090000307,1.0,1.0,phase_1,,,,,,,,,,,,,white,triangle
204.0,7.0,2.0,1.0,3.0,3.0,236.2890549993608,1.0,1.0,phase_1,,,,,,,,,,,,,white,triangle
116.0,2.0,1.0,0.0,2.0,2.0,265.1225230074487,1.0,1.0,phase_1,,,,,,,,,,,,,gray,I
88.0,2.0,1.0,0.0,1.0,1.0,288.6046079947846,1.0,1.0,phase_1,,,,,,,,,,,,,gray,I
404.0,8.0,4.0,1.0,3.0,3.0,313.8875300064683,1.0,1.0,phase_1,,,,,,,,,,,,,orange,circle
200.0,3.0,2.0,0.0,1.0,1.0,305.6320629984839,1.0,1.0,phase_1,,,,,,,,,,,,,green,flipped triangle
425.0,8.0,4.0,1.0,3.0,3.0,337.3843949957518,1.0,2.0,phase_1,,,,,,,,,,,,,orange,circle
86.0,6.0,1.0,1.0,4.0,4.0,307.9084510100074,1.0,1.0,phase_1,,,,,,,,,,,,,blue,hexagon
198.0,3.0,2.0,0.0,3.0,3.0,329.6861479902873,1.0,1.0,phase_1,,,,,,,,,,,,,green,flipped triangle
389.0,4.0,4.0,0.0,3.0,3.0,256.2176919891499,1.0,1.0,phase_1,,,,,,,,,,,,,yellow,cross
59.0,1.0,0.5,0.0,1.0,1.0,275.8225619909353,1.0,1.0,phase_1,,,,,,,,,,,,,cyan,diamond
394.0,4.0,4.0,0.0,4.0,4.0,249.9739269987912,1.0,1.0,phase_1,,,,,,,,,,,,,yellow,cross
190.0,3.0,2.0,0.0,3.0,3.0,269.1845009976532,1.0,1.0,phase_1,,,,,,,,,,,,,green,flipped triangle
413.0,8.0,4.0,1.0,4.0,4.0,324.1739220102317,1.0,1.0,phase_1,,,,,,,,,,,,,orange,circle
377.0,4.0,4.0,0.0,2.0,2.0,304.084764997242,1.0,1.0,phase_1,,,,,,,,,,,,,yellow,cross
205.0,7.0,2.0,1.0,1.0,1.0,307.4958590004826,1.0,1.0,phase_1,,,,,,,,,,,,,white,triangle
0.0,1.0,0.0,0.0,3.0,3.0,363.2171049976023,1.0,2.0,phase_1,,,,,,,,,,,,,cyan,diamond
104.0,6.0,1.0,1.0,4.0,4.0,355.5776709981728,1.0,1.0,phase_1,,,,,,,,,,,,,blue,hexagon
410.0,8.0,4.0,1.0,3.0,3.0,302.1868020005058,1.0,1.0,phase_1,,,,,,,,,,,,,orange,circle
388.0,8.0,4.0,1.0,1.0,1.0,283.1459100125357,1.0,1.0,phase_1,,,,,,,,,,,,,orange,circle
0.0,8.0,0.0,1.0,3.0,3.0,246.4230799960205,1.0,1.0,phase_1,,,,,,,,,,,,,orange,circle
381.0,8.0,4.0,1.0,3.0,3.0,275.4660060018068,1.0,1.0,phase_1,,,,,,,,,,,,,orange,circle
46.0,1.0,0.5,0.0,2.0,2.0,306.9292030122597,1.0,1.0,phase_1,,,,,,,,,,,,,cyan,diamond
56.0,1.0,0.5,0.0,1.0,1.0,300.5372100014938,1.0,1.0,phase_1,,,,,,,,,,,,,cyan,diamond
198.0,7.0,2.0,1.0,1.0,1.0,236.0332570096943,1.0,1.0,phase_1,,,,,,,,,,,,,white,triangle
216.0,7.0,2.0,1.0,1.0,1.0,271.1520529992413,1.0,1.0,phase_1,,,,,,,,,,,,,white,triangle
0.0,2.0,0.0,0.0,1.0,1.0,293.4798630012665,1.0,1.0,phase_1,,,,,,,,,,,,,gray,I
182.0,7.0,2.0,1.0,4.0,4.0,349.7434309974778,1.0,2.0,phase_1,,,,,,,,,,,,,white,triangle
197.0,3.0,2.0,0.0,2.0,2.0,338.4061559918336,1.0,1.0,phase_1,,,,,,,,,,,,,green,flipped triangle
400.0,8.0,4.0,1.0,4.0,4.0,336.0005819995422,1.0,1.0,phase_1,,,,,,,,,,,,,orange,circle
383.0,4.0,4.0,0.0,2.0,2.0,324.3344229995273,1.0,1.0,phase_1,,,,,,,,,,,,,yellow,cross
56.0,5.0,0.5,1.0,2.0,2.0,310.8543870039284,1.0,1.0,phase_1,,,,,,,,,,,,,magenta,square
68.0,1.0,0.5,0.0,2.0,2.0,322.8187450004043,1.0,1.0,phase_1,,,,,,,,,,,,,cyan,diamond
96.0,6.0,1.0,1.0,2.0,2.0,287.0190879912115,1.0,1.0,phase_1,,,,,,,,,,,,,blue,hexagon
185.0,7.0,2.0,1.0,1.0,1.0,285.8875289966818,1.0,1.0,phase_1,,,,,,,,,,,,,white,triangle
388.0,4.0,4.0,0.0,1.0,1.0,312.9497500049183,1.0,1.0,phase_1,,,,,,,,,,,,,yellow,cross
72.0,1.0,0.5,0.0,3.0,3.0,294.0174219984328,1.0,1.0,phase_1,,,,,,,,,,,,,cyan,diamond
184.0,3.0,2.0,0.0,4.0,4.0,298.14970199367957,1.0,1.0,phase_1,,,,,,,,,,,,,green,flipped triangle
0.0,5.0,0.0,1.0,1.0,1.0,302.6090859930264,1.0,1.0,phase_1,,,,,,,,,,,,,magenta,square
199.0,7.0,2.0,1.0,2.0,2.0,366.68221099535,1.0,1.0,phase_1,,,,,,,,,,,,,white,triangle
63.0,5.0,0.5,1.0,4.0,4.0,363.932713997201,1.0,1.0,phase_1,,,,,,,,,,,,,magenta,square
420.0,4.0,4.0,0.0,1.0,1.0,360.6105530052446,1.0,1.0,phase_1,,,,,,,,,,,,,yellow,cross
403.0,4.0,4.0,0.0,2.0,2.0,243.7117810040945,1.0,1.0,phase_1,,,,,,,,,,,,,yellow,cross
112.0,6.0,1.0,1.0,4.0,4.0,280.0906729971757,1.0,1.0,phase_1,,,,,,,,,,,,,blue,hexagon
31.0,1.0,0.5,0.0,4.0,4.0,277.128685003845,1.0,1.0,phase_1,,,,,,,,,,,,,cyan,diamond
198.0,7.0,2.0,1.0,2.0,2.0,287.696074010455,1.0,1.0,phase_1,,,,,,,,,,,,,white,triangle
0.0,4.0,0.0,0.0,3.0,3.0,244.9028840055689,1.0,1.0,phase_1,,,,,,,,,,,,,yellow,cross
377.0,4.0,4.0,0.0,3.0,3.0,269.0029479999793,1.0,1.0,phase_1,,,,,,,,,,,,,yellow,cross
418.0,8.0,4.0,1.0,2.0,2.0,262.332754995441,1.0,1.0,phase_1,,,,,,,,,,,,,orange,circle
0.0,3.0,0.0,0.0,4.0,4.0,245.2291230001719,1.0,1.0,phase_1,,,,,,,,,,,,,green,flipped triangle
63.0,1.0,0.5,0.0,4.0,4.0,337.2264290082967,1.0,1.0,phase_1,,,,,,,,,,,,,cyan,diamond
0.0,5.0,0.0,1.0,2.0,2.0,268.9178589935181,1.0,1.0,phase_1,,,,,,,,,,,,,magenta,square
37.0,5.0,0.5,1.0,1.0,1.0,280.4235820076428,1.0,1.0,phase_1,,,,,,,,,,,,,magenta,square
0.0,8.0,0.0,1.0,1.0,1.0,326.5181070019025,1.0,1.0,phase_1,,,,,,,,,,,,,orange,circle
41.0,5.0,0.5,1.0,2.0,2.0,268.8406910019694,1.0,1.0,phase_1,,,,,,,,,,,,,magenta,square
110.0,2.0,1.0,0.0,3.0,3.0,329.740548011614,1.0,1.0,phase_1,,,,,,,,,,,,,gray,I
389.0,4.0,4.0,0.0,4.0,4.0,304.0624970017234,1.0,2.0,phase_1,,,,,,,,,,,,,yellow,cross
34.0,5.0,0.5,1.0,3.0,3.0,366.57242399815,1.0,1.0,phase_1,,,,,,,,,,,,,magenta,square
218.0,3.0,2.0,0.0,1.0,1.0,312.9275270039215,1.0,1.0,phase_1,,,,,,,,,,,,,green,flipped triangle
91.0,6.0,1.0,1.0,1.0,1.0,345.1350850082235,1.0,1.0,phase_1,,,,,,,,,,,,,blue,hexagon
388.0,8.0,4.0,1.0,1.0,1.0,300.2715140028158,1.0,1.0,phase_1,,,,,,,,,,,,,orange,circle
37.0,1.0,0.5,0.0,1.0,1.0,295.9812530025374,1.0,1.0,phase_1,,,,,,,,,,,,,cyan,diamond
0.0,8.0,0.0,1.0,4.0,4.0,356.5505430015037,1.0,1.0,phase_1,,,,,,,,,,,,,orange,circle
0.0,4.0,0.0,0.0,3.0,3.0,298.742750994279,1.0,1.0,phase_1,,,,,,,,,,,,,yellow,cross
419.0,4.0,4.0,0.0,2.0,2.0,272.4415929988026,1.0,1.0,phase_1,,,,,,,,,,,,,yellow,cross
99.0,6.0,1.0,1.0,3.0,3.0,333.8425020046998,1.0,1.0,phase_1,,,,,,,,,,,,,blue,hexagon
76.0,6.0,1.0,1.0,2.0,2.0,240.4607689968543,1.0,1.0,phase_1,,,,,,,,,,,,,blue,hexagon
84.0,2.0,1.0,0.0,1.0,1.0,288.3233339962316,1.0,2.0,phase_1,,,,,,,,,,,,,gray,I
102.0,6.0,1.0,1.0,4.0,4.0,284.5807900012005,1.0,1.0,phase_1,,,,,,,,,,,,,blue,hexagon
0.0,1.0,0.0,0.0,4.0,4.0,419.0399939980125,1.0,1.0,phase_1,,,,,,,,,,,,,cyan,diamond
384.0,8.0,4.0,1.0,2.0,2.0,285.7817600015551,1.0,1.0,phase_1,,,,,,,,,,,,,orange,circle
0.0,5.0,0.0,1.0,3.0,3.0,350.3812889975961,1.0,1.0,phase_1,,,,,,,,,,,,,magenta,square
57.0,1.0,0.5,0.0,3.0,3.0,289.9330640066182,1.0,1.0,phase_1,,,,,,,,,,,,,cyan,diamond
0.0,3.0,0.0,0.0,3.0,3.0,277.4382579955272,1.0,1.0,phase_1,,,,,,,,,,,,,green,flipped triangle
0.0,1.0,0.0,0.0,2.0,2.0,298.6761270003626,1.0,1.0,phase_1,,,,,,,,,,,,,cyan,diamond
0.0,8.0,0.0,1.0,2.0,2.0,285.5526810017181,1.0,1.0,phase_1,,,,,,,,,,,,,orange,circle
0.0,4.0,0.0,0.0,2.0,2.0,243.3721950073959,1.0,1.0,phase_1,,,,,,,,,,,,,yellow,cross
40.0,5.0,0.5,1.0,1.0,1.0,297.2168760024942,1.0,1.0,phase_1,,,,,,,,,,,,,magenta,square
222.0,7.0,2.0,1.0,4.0,4.0,336.5211539930897,1.0,2.0,phase_1,,,,,,,,,,,,,white,triangle
92.0,6.0,1.0,1.0,4.0,4.0,300.8820300019579,1.0,1.0,phase_1,,,,,,,,,,,,,blue,hexagon
216.0,7.0,2.0,1.0,1.0,1.0,331.5885550109669,1.0,1.0,phase_1,,,,,,,,,,,,,white,triangle
120.0,2.0,1.0,0.0,2.0,2.0,312.8544399951352,1.0,1.0,phase_1,,,,,,,,,,,,,gray,I
70.0,5.0,0.5,1.0,1.0,1.0,291.553171002306,1.0,1.0,phase_1,,,,,,,,,,,,,magenta,square
403.0,8.0,4.0,1.0,2.0,2.0,266.3527019903995,1.0,1.0,phase_1,,,,,,,,,,,,,orange,circle
36.0,5.0,0.5,1.0,4.0,4.0,332.314076993498,1.0,1.0,phase_1,,,,,,,,,,,,,magenta,square
215.0,3.0,2.0,0.0,1.0,1.0,289.085537995561,1.0,1.0,phase_1,,,,,,,,,,,,,green,flipped triangle
26.0,5.0,0.5,1.0,3.0,3.0,305.5269559990847,2.0,1.0,phase_1,,,,,,,,,,,,,magenta,square
107.0,2.0,1.0,0.0,1.0,1.0,300.4021579981781,2.0,1.0,phase_1,,,,,,,,,,,,,gray,I
117.0,2.0,1.0,0.0,3.0,3.0,352.8708939993521,2.0,1.0,phase_1,,,,,,,,,,,,,gray,I
0.0,2.0,0.0,0.0,3.0,3.0,356.1536349880043,2.0,1.0,phase_1,,,,,,,,,,,,,gray,I
56.0,1.0,0.5,0.0,2.0,2.0,258.5906730091665,2.0,1.0,phase_1,,,,,,,,,,,,,cyan,diamond
0.0,1.0,0.0,0.0,3.0,3.0,345.5960420105839,2.0,2.0,phase_1,,,,,,,,,,,,,cyan,diamond
397.0,8.0,4.0,1.0,3.0,3.0,392.8219529916532,2.0,1.0,phase_1,,,,,,,,,,,,,orange,circle
104.0,2.0,1.0,0.0,4.0,4.0,350.1908680045744,2.0,1.0,phase_1,,,,,,,,,,,,,gray,I
83.0,2.0,1.0,0.0,3.0,3.0,364.2039690021192,2.0,1.0,phase_1,,,,,,,,,,,,,gray,I
410.0,8.0,4.0,1.0,3.0,3.0,320.5071830016095,2.0,1.0,phase_1,,,,,,,,,,,,,orange,circle
51.0,1.0,0.5,0.0,1.0,1.0,404.4885280018206,2.0,1.0,phase_1,,,,,,,,,,,,,cyan,diamond
404.0,4.0,4.0,0.0,1.0,1.0,311.7046640109038,2.0,1.0,phase_1,,,,,,,,,,,,,yellow,cross
40.0,5.0,0.5,1.0,1.0,1.0,290.6534710054984,2.0,1.0,phase_1,,,,,,,,,,,,,magenta,square
0.0,5.0,0.0,1.0,4.0,4.0,323.1273770070402,2.0,1.0,phase_1,,,,,,,,,,,,,magenta,square
181.0,7.0,2.0,1.0,2.0,2.0,271.5134340105578,2.0,1.0,phase_1,,,,,,,,,,,,,white,triangle
30.0,5.0,0.5,1.0,3.0,3.0,273.4920450020581,2.0,1.0,phase_1,,,,,,,,,,,,,magenta,square
37.0,5.0,0.5,1.0,3.0,3.0,287.6358520006761,2.0,1.0,phase_1,,,,,,,,,,,,,magenta,square
31.0,1.0,0.5,0.0,2.0,2.0,268.2583929999964,2.0,1.0,phase_1,,,,,,,,,,,,,cyan,diamond
119.0,2.0,1.0,0.0,3.0,3.0,370.7236789923627,2.0,1.0,phase_1,,,,,,,,,,,,,gray,I
215.0,7.0,2.0,1.0,2.0,2.0,251.20374299876858,2.0,1.0,phase_1,,,,,,,,,,,,,white,triangle
210.0,3.0,2.0,0.0,2.0,2.0,288.9436830009799,2.0,1.0,phase_1,,,,,,,,,,,,,green,flipped triangle
26.0,1.0,0.5,0.0,3.0,3.0,286.8479799944907,2.0,1.0,phase_1,,,,,,,,,,,,,cyan,diamond
116.0,2.0,1.0,0.0,3.0,3.0,298.5739930009004,2.0,1.0,phase_1,,,,,,,,,,,,,gray,I
115.0,2.0,1.0,0.0,2.0,2.0,302.9247249942273,2.0,1.0,phase_1,,,,,,,,,,,,,gray,I
177.0,3.0,2.0,0.0,4.0,4.0,266.8396759981988,2.0,1.0,phase_1,,,,,,,,,,,,,green,flipped triangle
95.0,6.0,1.0,1.0,4.0,4.0,274.8373840004205,2.0,1.0,phase_1,,,,,,,,,,,,,blue,hexagon
69.0,5.0,0.5,1.0,2.0,2.0,247.5228620023699,2.0,1.0,phase_1,,,,,,,,,,,,,magenta,square
0.0,7.0,0.0,1.0,1.0,1.0,299.1377399885095,2.0,1.0,phase_1,,,,,,,,,,,,,white,triangle
179.0,3.0,2.0,0.0,1.0,1.0,279.5689909980865,2.0,1.0,phase_1,,,,,,,,,,,,,green,flipped triangle
120.0,2.0,1.0,0.0,1.0,1.0,267.8698739910032,2.0,1.0,phase_1,,,,,,,,,,,,,gray,I
399.0,4.0,4.0,0.0,2.0,2.0,247.4926080030854,2.0,1.0,phase_1,,,,,,,,,,,,,yellow,cross
92.0,2.0,1.0,0.0,4.0,4.0,267.8258489904692,2.0,1.0,phase_1,,,,,,,,,,,,,gray,I
26.0,1.0,0.5,0.0,3.0,3.0,289.1376570041757,2.0,1.0,phase_1,,,,,,,,,,,,,cyan,diamond
211.0,7.0,2.0,1.0,3.0,3.0,376.9977979973191,2.0,1.0,phase_1,,,,,,,,,,,,,white,triangle
0.0,7.0,0.0,1.0,3.0,3.0,316.5231309976661,2.0,1.0,phase_1,,,,,,,,,,,,,white,triangle
401.0,8.0,4.0,1.0,2.0,2.0,246.8771350104361,2.0,1.0,phase_1,,,,,,,,,,,,,orange,circle
0.0,3.0,0.0,0.0,1.0,1.0,251.25087601190899,2.0,1.0,phase_1,,,,,,,,,,,,,green,flipped triangle
83.0,6.0,1.0,1.0,3.0,3.0,314.6463409939315,2.0,1.0,phase_1,,,,,,,,,,,,,blue,hexagon
389.0,8.0,4.0,1.0,4.0,4.0,302.462520005065,2.0,1.0,phase_1,,,,,,,,,,,,,orange,circle
205.0,3.0,2.0,0.0,3.0,3.0,307.3587480030255,2.0,1.0,phase_1,,,,,,,,,,,,,green,flipped triangle
41.0,1.0,0.5,0.0,4.0,4.0,295.0265879917424,2.0,1.0,phase_1,,,,,,,,,,,,,cyan,diamond
397.0,4.0,4.0,0.0,2.0,2.0,258.5264270019252,2.0,1.0,phase_1,,,,,,,,,,,,,yellow,cross
35.0,1.0,0.5,0.0,2.0,2.0,247.5914859969634,2.0,1.0,phase_1,,,,,,,,,,,,,cyan,diamond
99.0,2.0,1.0,0.0,4.0,4.0,320.1018800027668,2.0,1.0,phase_1,,,,,,,,,,,,,gray,I
216.0,3.0,2.0,0.0,4.0,4.0,306.7756859963992,2.0,1.0,phase_1,,,,,,,,,,,,,green,flipped triangle
107.0,6.0,1.0,1.0,2.0,2.0,256.8417910079006,2.0,1.0,phase_1,,,,,,,,,,,,,blue,hexagon
39.0,1.0,0.5,0.0,1.0,1.0,283.0670639959862,2.0,1.0,phase_1,,,,,,,,,,,,,cyan,diamond
0.0,1.0,0.0,0.0,4.0,4.0,313.6386380065232,2.0,1.0,phase_1,,,,,,,,,,,,,cyan,diamond
205.0,3.0,2.0,0.0,2.0,2.0,251.9328210037201,2.0,1.0,phase_1,,,,,,,,,,,,,green,flipped triangle
413.0,4.0,4.0,0.0,2.0,2.0,282.6681040023686,2.0,1.0,phase_1,,,,,,,,,,,,,yellow,cross
96.0,2.0,1.0,0.0,2.0,2.0,255.97273599123582,2.0,1.0,phase_1,,,,,,,,,,,,,gray,I
422.0,4.0,4.0,0.0,3.0,3.0,259.7013720078394,2.0,1.0,phase_1,,,,,,,,,,,,,yellow,cross
0.0,2.0,0.0,0.0,1.0,1.0,263.5944850044325,2.0,1.0,phase_1,,,,,,,,,,,,,gray,I
211.0,3.0,2.0,0.0,1.0,1.0,315.7562689884798,2.0,1.0,phase_1,,,,,,,,,,,,,green,flipped triangle
52.0,1.0,0.5,0.0,4.0,4.0,341.667200991651,2.0,2.0,phase_1,,,,,,,,,,,,,cyan,diamond
205.0,7.0,2.0,1.0,3.0,3.0,386.1438319872832,2.0,1.0,phase_1,,,,,,,,,,,,,white,triangle
0.0,8.0,0.0,1.0,2.0,2.0,309.6883670077659,2.0,1.0,phase_1,,,,,,,,,,,,,orange,circle
57.0,5.0,0.5,1.0,3.0,3.0,284.6749029995408,2.0,1.0,phase_1,,,,,,,,,,,,,magenta,square
0.0,5.0,0.0,1.0,2.0,2.0,282.7730979915941,2.0,1.0,phase_1,,,,,,,,,,,,,magenta,square
198.0,3.0,2.0,0.0,1.0,1.0,374.10609200014727,2.0,1.0,phase_1,,,,,,,,,,,,,green,flipped triangle
0.0,7.0,0.0,1.0,3.0,3.0,546.1326479999116,2.0,1.0,phase_1,,,,,,,,,,,,,white,triangle
419.0,8.0,4.0,1.0,4.0,4.0,321.2778249871917,2.0,1.0,phase_1,,,,,,,,,,,,,orange,circle
79.0,2.0,1.0,0.0,3.0,3.0,298.8794679986313,2.0,1.0,phase_1,,,,,,,,,,,,,gray,I
211.0,7.0,2.0,1.0,3.0,3.0,310.8427500119433,2.0,1.0,phase_1,,,,,,,,,,,,,white,triangle
54.0,5.0,0.5,1.0,2.0,2.0,309.6535070071695,2.0,1.0,phase_1,,,,,,,,,,,,,magenta,square
187.0,7.0,2.0,1.0,2.0,2.0,279.629851997015,2.0,1.0,phase_1,,,,,,,,,,,,,white,triangle
87.0,2.0,1.0,0.0,2.0,2.0,287.2627420001663,2.0,1.0,phase_1,,,,,,,,,,,,,gray,I
382.0,8.0,4.0,1.0,2.0,2.0,276.4933159924112,2.0,1.0,phase_1,,,,,,,,,,,,,orange,circle
222.0,3.0,2.0,0.0,4.0,4.0,312.8300390089862,2.0,1.0,phase_1,,,,,,,,,,,,,green,flipped triangle
116.0,6.0,1.0,1.0,2.0,2.0,252.68264400074258,2.0,1.0,phase_1,,,,,,,,,,,,,blue,hexagon
177.0,7.0,2.0,1.0,4.0,4.0,322.290438998607,2.0,1.0,phase_1,,,,,,,,,,,,,white,triangle
0.0,4.0,0.0,0.0,3.0,3.0,326.7025829991326,2.0,1.0,phase_1,,,,,,,,,,,,,yellow,cross
88.0,6.0,1.0,1.0,1.0,1.0,392.2402059979504,2.0,1.0,phase_1,,,,,,,,,,,,,blue,hexagon
86.0,2.0,1.0,0.0,3.0,3.0,359.7821180010214,2.0,1.0,phase_1,,,,,,,,,,,,,gray,I
383.0,8.0,4.0,1.0,1.0,1.0,380.8304669946665,2.0,1.0,phase_1,,,,,,,,,,,,,orange,circle
0.0,4.0,0.0,0.0,3.0,3.0,305.9911559976171,2.0,1.0,phase_1,,,,,,,,,,,,,yellow,cross
412.0,8.0,4.0,1.0,1.0,1.0,293.3992800099076,2.0,1.0,phase_1,,,,,,,,,,,,,orange,circle
0.0,2.0,0.0,0.0,2.0,2.0,275.8230100007495,2.0,1.0,phase_1,,,,,,,,,,,,,gray,I
116.0,2.0,1.0,0.0,1.0,1.0,304.6017989981919,2.0,1.0,phase_1,,,,,,,,,,,,,gray,I
89.0,2.0,1.0,0.0,3.0,3.0,349.2085509933531,2.0,1.0,phase_1,,,,,,,,,,,,,gray,I
0.0,1.0,0.0,0.0,3.0,3.0,335.6959180091508,2.0,1.0,phase_1,,,,,,,,,,,,,cyan,diamond
383.0,4.0,4.0,0.0,1.0,1.0,260.0896380026825,2.0,1.0,phase_1,,,,,,,,,,,,,yellow,cross
179.0,7.0,2.0,1.0,4.0,4.0,337.4118339997949,2.0,1.0,phase_1,,,,,,,,,,,,,white,triangle
72.0,5.0,0.5,1.0,2.0,2.0,292.4704659963026,2.0,1.0,phase_1,,,,,,,,,,,,,magenta,square
66.0,1.0,0.5,0.0,4.0,4.0,362.0829939900432,2.0,1.0,phase_1,,,,,,,,,,,,,cyan,diamond
220.0,7.0,2.0,1.0,4.0,4.0,329.1399659938179,2.0,1.0,phase_1,,,,,,,,,,,,,white,triangle
0.0,6.0,0.0,1.0,1.0,1.0,252.62995400407812,2.0,1.0,phase_1,,,,,,,,,,,,,blue,hexagon
0.0,2.0,0.0,0.0,4.0,4.0,312.5590959971305,2.0,1.0,phase_1,,,,,,,,,,,,,gray,I
0.0,6.0,0.0,1.0,1.0,1.0,413.8202189933508,2.0,1.0,phase_1,,,,,,,,,,,,,blue,hexagon
84.0,6.0,1.0,1.0,3.0,3.0,403.7891030020546,2.0,1.0,phase_1,,,,,,,,,,,,,blue,hexagon
48.0,5.0,0.5,1.0,3.0,3.0,342.7117350074695,2.0,1.0,phase_1,,,,,,,,,,,,,magenta,square
0.0,3.0,0.0,0.0,1.0,1.0,322.2948780021397,2.0,1.0,phase_1,,,,,,,,,,,,,green,flipped triangle
223.0,3.0,2.0,0.0,1.0,1.0,369.601401995169,2.0,1.0,phase_1,,,,,,,,,,,,,green,flipped triangle
375.0,8.0,4.0,1.0,4.0,4.0,315.9149520070059,2.0,1.0,phase_1,,,,,,,,,,,,,orange,circle
213.0,3.0,2.0,0.0,1.0,1.0,337.076055991929,2.0,1.0,phase_1,,,,,,,,,,,,,green,flipped triangle
415.0,4.0,4.0,0.0,1.0,1.0,342.9279319971101,2.0,1.0,phase_1,,,,,,,,,,,,,yellow,cross
200.0,3.0,2.0,0.0,4.0,4.0,379.9960059986915,2.0,1.0,phase_1,,,,,,,,,,,,,green,flipped triangle
407.0,8.0,4.0,1.0,1.0,1.0,288.0890160013223,2.0,1.0,phase_1,,,,,,,,,,,,,orange,circle
213.0,3.0,2.0,0.0,3.0,3.0,307.0811870129546,2.0,2.0,phase_1,,,,,,,,,,,,,green,flipped triangle
110.0,6.0,1.0,1.0,1.0,1.0,391.0832999972626,2.0,1.0,phase_1,,,,,,,,,,,,,blue,hexagon
401.0,4.0,4.0,0.0,4.0,4.0,336.6773560119327,3.0,1.0,phase_1,,,,,,,,,,,,,yellow,cross
102.0,2.0,1.0,0.0,1.0,1.0,271.2790430086897,3.0,1.0,phase_1,,,,,,,,,,,,,gray,I
88.0,6.0,1.0,1.0,2.0,2.0,275.7142439950257,3.0,1.0,phase_1,,,,,,,,,,,,,blue,hexagon
68.0,5.0,0.5,1.0,3.0,3.0,319.1349370026728,3.0,1.0,phase_1,,,,,,,,,,,,,magenta,square
0.0,3.0,0.0,0.0,2.0,2.0,267.2055309958523,3.0,1.0,phase_1,,,,,,,,,,,,,green,flipped triangle
0.0,8.0,0.0,1.0,3.0,3.0,295.5980830010958,3.0,1.0,phase_1,,,,,,,,,,,,,orange,circle
425.0,4.0,4.0,0.0,3.0,3.0,318.3244059910066,3.0,1.0,phase_1,,,,,,,,,,,,,yellow,cross
57.0,5.0,0.5,1.0,1.0,1.0,315.6160359940259,3.0,1.0,phase_1,,,,,,,,,,,,,magenta,square
205.0,3.0,2.0,0.0,2.0,2.0,280.8791119896341,3.0,1.0,phase_1,,,,,,,,,,,,,green,flipped triangle
0.0,4.0,0.0,0.0,4.0,4.0,335.2802340086782,3.0,2.0,phase_1,,,,,,,,,,,,,yellow,cross
0.0,7.0,0.0,1.0,3.0,3.0,308.6216399969999,3.0,1.0,phase_1,,,,,,,,,,,,,white,triangle
190.0,7.0,2.0,1.0,3.0,3.0,306.3461450074101,3.0,1.0,phase_1,,,,,,,,,,,,,white,triangle
198.0,3.0,2.0,0.0,4.0,4.0,296.1746850050986,3.0,1.0,phase_1,,,,,,,,,,,,,green,flipped triangle
0.0,1.0,0.0,0.0,4.0,4.0,244.0432909934315,3.0,1.0,phase_1,,,,,,,,,,,,,cyan,diamond
115.0,6.0,1.0,1.0,3.0,3.0,311.2935130047845,3.0,1.0,phase_1,,,,,,,,,,,,,blue,hexagon
389.0,8.0,4.0,1.0,2.0,2.0,276.8784170038998,3.0,1.0,phase_1,,,,,,,,,,,,,orange,circle
0.0,5.0,0.0,1.0,4.0,4.0,260.127054003533,3.0,1.0,phase_1,,,,,,,,,,,,,magenta,square
197.0,7.0,2.0,1.0,1.0,1.0,247.7315450087189,3.0,1.0,phase_1,,,,,,,,,,,,,white,triangle
113.0,6.0,1.0,1.0,4.0,4.0,308.5602409992134,3.0,1.0,phase_1,,,,,,,,,,,,,blue,hexagon
69.0,1.0,0.5,0.0,1.0,1.0,417.1112430049106,3.0,1.0,phase_1,,,,,,,,,,,,,cyan,diamond
0.0,5.0,0.0,1.0,4.0,4.0,292.4233910016482,3.0,1.0,phase_1,,,,,,,,,,,,,magenta,square
0.0,5.0,0.0,1.0,1.0,1.0,345.0637640053173,3.0,1.0,phase_1,,,,,,,,,,,,,magenta,square
109.0,2.0,1.0,0.0,4.0,4.0,254.8379639920313,3.0,1.0,phase_1,,,,,,,,,,,,,gray,I
210.0,7.0,2.0,1.0,1.0,1.0,243.2011519995285,3.0,1.0,phase_1,,,,,,,,,,,,,white,triangle
0.0,4.0,0.0,0.0,1.0,1.0,286.2480879994109,3.0,1.0,phase_1,,,,,,,,,,,,,yellow,cross
179.0,7.0,2.0,1.0,4.0,4.0,246.1397209990536,3.0,1.0,phase_1,,,,,,,,,,,,,white,triangle
76.0,2.0,1.0,0.0,2.0,2.0,271.0874290060019,3.0,1.0,phase_1,,,,,,,,,,,,,gray,I
197.0,7.0,2.0,1.0,1.0,1.0,235.469032995752,3.0,1.0,phase_1,,,,,,,,,,,,,white,triangle
223.0,3.0,2.0,0.0,3.0,3.0,355.8876790048089,3.0,1.0,phase_1,,,,,,,,,,,,,green,flipped triangle
420.0,8.0,4.0,1.0,4.0,4.0,359.984536000411,3.0,1.0,phase_1,,,,,,,,,,,,,orange,circle
223.0,7.0,2.0,1.0,4.0,4.0,300.3716160019394,3.0,1.0,phase_1,,,,,,,,,,,,,white,triangle
0.0,6.0,0.0,1.0,1.0,1.0,327.0982209942303,3.0,1.0,phase_1,,,,,,,,,,,,,blue,hexagon
50.0,1.0,0.5,0.0,2.0,2.0,283.7913220137125,3.0,1.0,phase_1,,,,,,,,,,,,,cyan,diamond
120.0,6.0,1.0,1.0,3.0,3.0,283.1737870001234,3.0,1.0,phase_1,,,,,,,,,,,,,blue,hexagon
89.0,6.0,1.0,1.0,2.0,2.0,324.5966429967666,3.0,1.0,phase_1,,,,,,,,,,,,,blue,hexagon
377.0,8.0,4.0,1.0,3.0,3.0,285.0545940018492,3.0,1.0,phase_1,,,,,,,,,,,,,orange,circle
48.0,1.0,0.5,0.0,2.0,2.0,382.5472150056157,3.0,1.0,phase_1,,,,,,,,,,,,,cyan,diamond
103.0,2.0,1.0,0.0,4.0,4.0,275.4367779998574,3.0,1.0,phase_1,,,,,,,,,,,,,gray,I
408.0,8.0,4.0,1.0,1.0,1.0,344.8992259945953,3.0,1.0,phase_1,,,,,,,,,,,,,orange,circle
418.0,4.0,4.0,0.0,4.0,4.0,307.9750899923965,3.0,1.0,phase_1,,,,,,,,,,,,,yellow,cross
82.0,2.0,1.0,0.0,1.0,1.0,259.4625059864484,3.0,1.0,phase_1,,,,,,,,,,,,,gray,I
73.0,1.0,0.5,0.0,4.0,4.0,264.147039008094,3.0,1.0,phase_1,,,,,,,,,,,,,cyan,diamond
0.0,4.0,0.0,0.0,2.0,2.0,284.7850440011825,3.0,1.0,phase_1,,,,,,,,,,,,,yellow,cross
204.0,3.0,2.0,0.0,3.0,3.0,313.2369850063696,3.0,1.0,phase_1,,,,,,,,,,,,,green,flipped triangle
54.0,1.0,0.5,0.0,4.0,4.0,341.0816060059005,3.0,1.0,phase_1,,,,,,,,,,,,,cyan,diamond
81.0,2.0,1.0,0.0,3.0,3.0,474.8568270006217,3.0,1.0,phase_1,,,,,,,,,,,,,gray,I
72.0,5.0,0.5,1.0,3.0,3.0,292.3492120025912,3.0,1.0,phase_1,,,,,,,,,,,,,magenta,square
119.0,6.0,1.0,1.0,3.0,3.0,371.2537480023457,3.0,1.0,phase_1,,,,,,,,,,,,,blue,hexagon
91.0,2.0,1.0,0.0,4.0,4.0,312.3059919889783,3.0,1.0,phase_1,,,,,,,,,,,,,gray,I
182.0,3.0,2.0,0.0,2.0,2.0,258.2420779945096,3.0,1.0,phase_1,,,,,,,,,,,,,green,flipped triangle
37.0,5.0,0.5,1.0,1.0,1.0,318.6930319934618,3.0,2.0,phase_1,,,,,,,,,,,,,magenta,square
39.0,5.0,0.5,1.0,1.0,1.0,290.6152979994658,3.0,1.0,phase_1,,,,,,,,,,,,,magenta,square
185.0,3.0,2.0,0.0,1.0,1.0,320.1038559927838,3.0,1.0,phase_1,,,,,,,,,,,,,green,flipped triangle
182.0,7.0,2.0,1.0,2.0,2.0,274.4362950033974,3.0,1.0,phase_1,,,,,,,,,,,,,white,triangle
0.0,4.0,0.0,0.0,3.0,3.0,323.6949920101324,3.0,2.0,phase_1,,,,,,,,,,,,,yellow,cross
50.0,5.0,0.5,1.0,4.0,4.0,308.2272920000832,3.0,1.0,phase_1,,,,,,,,,,,,,magenta,square
184.0,7.0,2.0,1.0,4.0,4.0,296.5265529928729,3.0,1.0,phase_1,,,,,,,,,,,,,white,triangle
380.0,8.0,4.0,1.0,2.0,2.0,305.0511579931481,3.0,1.0,phase_1,,,,,,,,,,,,,orange,circle
0.0,6.0,0.0,1.0,3.0,3.0,286.9899659999646,3.0,1.0,phase_1,,,,,,,,,,,,,blue,hexagon
0.0,6.0,0.0,1.0,3.0,3.0,283.9022900006966,3.0,1.0,phase_1,,,,,,,,,,,,,blue,hexagon
78.0,6.0,1.0,1.0,1.0,1.0,343.817728004069,3.0,1.0,phase_1,,,,,,,,,,,,,blue,hexagon
114.0,6.0,1.0,1.0,3.0,3.0,356.5288090030662,3.0,1.0,phase_1,,,,,,,,,,,,,blue,hexagon
0.0,6.0,0.0,1.0,3.0,3.0,316.193471007864,3.0,1.0,phase_1,,,,,,,,,,,,,blue,hexagon
387.0,4.0,4.0,0.0,4.0,4.0,287.752440010081,3.0,1.0,phase_1,,,,,,,,,,,,,yellow,cross
0.0,8.0,0.0,1.0,2.0,2.0,228.4548850002465,3.0,1.0,phase_1,,,,,,,,,,,,,orange,circle
0.0,8.0,0.0,1.0,3.0,3.0,319.8132980032824,3.0,1.0,phase_1,,,,,,,,,,,,,orange,circle
181.0,3.0,2.0,0.0,1.0,1.0,284.0604130033171,3.0,1.0,phase_1,,,,,,,,,,,,,green,flipped triangle
63.0,1.0,0.5,0.0,2.0,2.0,296.8682149949018,3.0,1.0,phase_1,,,,,,,,,,,,,cyan,diamond
26.0,1.0,0.5,0.0,3.0,3.0,263.1285579991527,3.0,1.0,phase_1,,,,,,,,,,,,,cyan,diamond
380.0,4.0,4.0,0.0,1.0,1.0,299.9774399941088,3.0,1.0,phase_1,,,,,,,,,,,,,yellow,cross
110.0,6.0,1.0,1.0,1.0,1.0,281.613949991879,3.0,1.0,phase_1,,,,,,,,,,,,,blue,hexagon
0.0,3.0,0.0,0.0,3.0,3.0,347.6591959915822,3.0,1.0,phase_1,,,,,,,,,,,,,green,flipped triangle
215.0,7.0,2.0,1.0,1.0,1.0,272.3314289905829,3.0,1.0,phase_1,,,,,,,,,,,,,white,triangle
409.0,4.0,4.0,0.0,1.0,1.0,254.5979760034242,3.0,1.0,phase_1,,,,,,,,,,,,,yellow,cross
30.0,1.0,0.5,0.0,4.0,4.0,313.0461809923872,3.0,2.0,phase_1,,,,,,,,,,,,,cyan,diamond
96.0,2.0,1.0,0.0,2.0,2.0,307.8388169960817,3.0,1.0,phase_1,,,,,,,,,,,,,gray,I
215.0,3.0,2.0,0.0,2.0,2.0,286.9567610032391,3.0,1.0,phase_1,,,,,,,,,,,,,green,flipped triangle
197.0,3.0,2.0,0.0,2.0,2.0,293.8816579990089,3.0,1.0,phase_1,,,,,,,,,,,,,green,flipped triangle
200.0,7.0,2.0,1.0,3.0,3.0,344.5668630010914,3.0,1.0,phase_1,,,,,,,,,,,,,white,triangle
388.0,4.0,4.0,0.0,3.0,3.0,309.1090439993422,3.0,1.0,phase_1,,,,,,,,,,,,,yellow,cross
407.0,4.0,4.0,0.0,2.0,2.0,292.0377010013908,3.0,1.0,phase_1,,,,,,,,,,,,,yellow,cross
59.0,5.0,0.5,1.0,2.0,2.0,247.2941699961666,3.0,1.0,phase_1,,,,,,,,,,,,,magenta,square
213.0,7.0,2.0,1.0,2.0,2.0,301.422292002826,3.0,1.0,phase_1,,,,,,,,,,,,,white,triangle
88.0,2.0,1.0,0.0,4.0,4.0,360.322205000557,3.0,1.0,phase_1,,,,,,,,,,,,,gray,I
72.0,1.0,0.5,0.0,1.0,1.0,304.7017690114444,3.0,1.0,phase_1,,,,,,,,,,,,,cyan,diamond
52.0,5.0,0.5,1.0,1.0,1.0,299.8262009932659,3.0,1.0,phase_1,,,,,,,,,,,,,magenta,square
87.0,6.0,1.0,1.0,4.0,4.0,294.6176670084242,3.0,1.0,phase_1,,,,,,,,,,,,,blue,hexagon
117.0,6.0,1.0,1.0,3.0,3.0,458.922393998364,3.0,1.0,phase_1,,,,,,,,,,,,,blue,hexagon
182.0,3.0,2.0,0.0,2.0,2.0,415.2453150018118,3.0,1.0,phase_1,,,,,,,,,,,,,green,flipped triangle
51.0,5.0,0.5,1.0,3.0,3.0,328.2082380028441,3.0,1.0,phase_1,,,,,,,,,,,,,magenta,square
31.0,5.0,0.5,1.0,4.0,4.0,347.836544009624,3.0,1.0,phase_1,,,,,,,,,,,,,magenta,square
408.0,4.0,4.0,0.0,2.0,2.0,278.294707997702,3.0,1.0,phase_1,,,,,,,,,,,,,yellow,cross
35.0,5.0,0.5,1.0,4.0,4.0,299.0041660086717,3.0,1.0,phase_1,,,,,,,,,,,,,magenta,square
0.0,2.0,0.0,0.0,3.0,3.0,329.3067420017905,3.0,1.0,phase_1,,,,,,,,,,,,,gray,I
109.0,6.0,1.0,1.0,4.0,4.0,343.9280229940777,3.0,1.0,phase_1,,,,,,,,,,,,,blue,hexagon
187.0,3.0,2.0,0.0,3.0,3.0,364.0402669989271,3.0,1.0,phase_1,,,,,,,,,,,,,green,flipped triangle
91.0,2.0,1.0,0.0,4.0,4.0,248.3037929923739,3.0,1.0,phase_1,,,,,,,,,,,,,gray,I
0.0,8.0,0.0,1.0,4.0,4.0,290.4464409948559,3.0,1.0,phase_1,,,,,,,,,,,,,orange,circle
96.0,2.0,1.0,0.0,4.0,4.0,246.2587250047363,3.0,1.0,phase_1,,,,,,,,,,,,,gray,I
200.0,7.0,2.0,1.0,1.0,1.0,253.7032489926787,3.0,1.0,phase_1,,,,,,,,,,,,,white,triangle
0.0,1.0,0.0,0.0,2.0,2.0,331.7892979976022,4.0,1.0,phase_1,,,,,,,,,,,,,cyan,diamond
213.0,7.0,2.0,1.0,3.0,3.0,360.9135150036309,4.0,1.0,phase_1,,,,,,,,,,,,,white,triangle
74.0,1.0,0.5,0.0,3.0,3.0,374.4500199973117,4.0,1.0,phase_1,,,,,,,,,,,,,cyan,diamond
410.0,4.0,4.0,0.0,4.0,4.0,321.2578509992454,4.0,1.0,phase_1,,,,,,,,,,,,,yellow,cross
36.0,1.0,0.5,0.0,1.0,1.0,220.6996750028338,4.0,1.0,phase_1,,,,,,,,,,,,,cyan,diamond
31.0,5.0,0.5,1.0,2.0,2.0,276.1654399946565,4.0,1.0,phase_1,,,,,,,,,,,,,magenta,square
415.0,8.0,4.0,1.0,3.0,3.0,320.9193779912311,4.0,1.0,phase_1,,,,,,,,,,,,,orange,circle
121.0,6.0,1.0,1.0,3.0,3.0,301.2990970019018,4.0,1.0,phase_1,,,,,,,,,,,,,blue,hexagon
405.0,4.0,4.0,0.0,4.0,4.0,247.5499709980795,4.0,1.0,phase_1,,,,,,,,,,,,,yellow,cross
375.0,4.0,4.0,0.0,2.0,2.0,263.3483529934892,4.0,1.0,phase_1,,,,,,,,,,,,,yellow,cross
203.0,7.0,2.0,1.0,2.0,2.0,272.2701629973016,4.0,1.0,phase_1,,,,,,,,,,,,,white,triangle
66.0,5.0,0.5,1.0,4.0,4.0,264.2496390035376,4.0,1.0,phase_1,,,,,,,,,,,,,magenta,square
0.0,3.0,0.0,0.0,4.0,4.0,385.7506679923972,4.0,1.0,phase_1,,,,,,,,,,,,,green,flipped triangle
409.0,8.0,4.0,1.0,1.0,1.0,247.9758139961632,4.0,1.0,phase_1,,,,,,,,,,,,,orange,circle
419.0,8.0,4.0,1.0,2.0,2.0,324.6164250012953,4.0,1.0,phase_1,,,,,,,,,,,,,orange,circle
397.0,4.0,4.0,0.0,1.0,1.0,311.7986529978225,4.0,1.0,phase_1,,,,,,,,,,,,,yellow,cross
121.0,2.0,1.0,0.0,1.0,1.0,223.357725990354,4.0,1.0,phase_1,,,,,,,,,,,,,gray,I
72.0,5.0,0.5,1.0,4.0,4.0,315.1862509985221,4.0,1.0,phase_1,,,,,,,,,,,,,magenta,square
0.0,6.0,0.0,1.0,3.0,3.0,368.6854619882069,4.0,1.0,phase_1,,,,,,,,,,,,,blue,hexagon
103.0,6.0,1.0,1.0,4.0,4.0,308.3251200005179,4.0,1.0,phase_1,,,,,,,,,,,,,blue,hexagon
91.0,6.0,1.0,1.0,1.0,1.0,352.6955209963489,4.0,1.0,phase_1,,,,,,,,,,,,,blue,hexagon
0.0,5.0,0.0,1.0,2.0,2.0,259.452667000005,4.0,1.0,phase_1,,,,,,,,,,,,,magenta,square
0.0,3.0,0.0,0.0,2.0,2.0,272.143694004626,4.0,1.0,phase_1,,,,,,,,,,,,,green,flipped triangle
420.0,4.0,4.0,0.0,3.0,3.0,337.1521020017098,4.0,1.0,phase_1,,,,,,,,,,,,,yellow,cross
410.0,4.0,4.0,0.0,3.0,3.0,275.5712419893825,4.0,1.0,phase_1,,,,,,,,,,,,,yellow,cross
0.0,2.0,0.0,0.0,1.0,1.0,305.317152000498,4.0,1.0,phase_1,,,,,,,,,,,,,gray,I
81.0,6.0,1.0,1.0,1.0,1.0,251.3305530010257,4.0,1.0,phase_1,,,,,,,,,,,,,blue,hexagon
29.0,1.0,0.5,0.0,2.0,2.0,255.9618369996315,4.0,1.0,phase_1,,,,,,,,,,,,,cyan,diamond
405.0,8.0,4.0,1.0,4.0,4.0,283.7687309947796,4.0,2.0,phase_1,,,,,,,,,,,,,orange,circle
220.0,3.0,2.0,0.0,2.0,2.0,317.71959400794,4.0,1.0,phase_1,,,,,,,,,,,,,green,flipped triangle
116.0,6.0,1.0,1.0,1.0,1.0,308.4443099942291,4.0,1.0,phase_1,,,,,,,,,,,,,blue,hexagon
193.0,7.0,2.0,1.0,2.0,2.0,263.6437620094511,4.0,1.0,phase_1,,,,,,,,,,,,,white,triangle
70.0,1.0,0.5,0.0,1.0,1.0,247.5359499949263,4.0,1.0,phase_1,,,,,,,,,,,,,cyan,diamond
26.0,5.0,0.5,1.0,3.0,3.0,308.43495899171097,4.0,1.0,phase_1,,,,,,,,,,,,,magenta,square
0.0,1.0,0.0,0.0,3.0,3.0,264.2348029912682,4.0,1.0,phase_1,,,,,,,,,,,,,cyan,diamond
109.0,6.0,1.0,1.0,1.0,1.0,259.5732149929972,4.0,1.0,phase_1,,,,,,,,,,,,,blue,hexagon
112.0,2.0,1.0,0.0,1.0,1.0,329.1534529998898,4.0,1.0,phase_1,,,,,,,,,,,,,gray,I
205.0,7.0,2.0,1.0,3.0,3.0,299.7239560063462,4.0,1.0,phase_1,,,,,,,,,,,,,white,triangle
110.0,2.0,1.0,0.0,2.0,2.0,288.5811000014655,4.0,1.0,phase_1,,,,,,,,,,,,,gray,I
216.0,3.0,2.0,0.0,3.0,3.0,380.522977997316,4.0,1.0,phase_1,,,,,,,,,,,,,green,flipped triangle
113.0,2.0,1.0,0.0,3.0,3.0,332.2557710052933,4.0,1.0,phase_1,,,,,,,,,,,,,gray,I
185.0,7.0,2.0,1.0,3.0,3.0,279.9686479993397,4.0,1.0,phase_1,,,,,,,,,,,,,white,triangle
175.0,7.0,2.0,1.0,4.0,4.0,300.4552740021609,4.0,1.0,phase_1,,,,,,,,,,,,,white,triangle
0.0,3.0,0.0,0.0,4.0,4.0,279.6653469995362,4.0,1.0,phase_1,,,,,,,,,,,,,green,flipped triangle
175.0,3.0,2.0,0.0,4.0,4.0,280.275402998086,4.0,1.0,phase_1,,,,,,,,,,,,,green,flipped triangle
0.0,7.0,0.0,1.0,4.0,4.0,235.3397039987612,4.0,1.0,phase_1,,,,,,,,,,,,,white,triangle
96.0,6.0,1.0,1.0,2.0,2.0,271.4276699989568,4.0,1.0,phase_1,,,,,,,,,,,,,blue,hexagon
114.0,2.0,1.0,0.0,2.0,2.0,349.7918499924708,4.0,1.0,phase_1,,,,,,,,,,,,,gray,I
223.0,7.0,2.0,1.0,3.0,3.0,318.8737599994056,4.0,2.0,phase_1,,,,,,,,,,,,,white,triangle
40.0,1.0,0.5,0.0,3.0,3.0,280.3457310074009,4.0,1.0,phase_1,,,,,,,,,,,,,cyan,diamond
0.0,3.0,0.0,0.0,1.0,1.0,344.8904029937694,4.0,1.0,phase_1,,,,,,,,,,,,,green,flipped triangle
79.0,6.0,1.0,1.0,1.0,1.0,293.3680379937868,4.0,1.0,phase_1,,,,,,,,,,,,,blue,hexagon
46.0,5.0,0.5,1.0,4.0,4.0,350.184993003495,4.0,1.0,phase_1,,,,,,,,,,,,,magenta,square
37.0,1.0,0.5,0.0,1.0,1.0,298.9764279918745,4.0,1.0,phase_1,,,,,,,,,,,,,cyan,diamond
400.0,4.0,4.0,0.0,3.0,3.0,291.9666820089333,4.0,1.0,phase_1,,,,,,,,,,,,,yellow,cross
0.0,7.0,0.0,1.0,4.0,4.0,320.7609740056796,4.0,1.0,phase_1,,,,,,,,,,,,,white,triangle
420.0,8.0,4.0,1.0,2.0,2.0,291.9291830039583,4.0,1.0,phase_1,,,,,,,,,,,,,orange,circle
0.0,7.0,0.0,1.0,2.0,2.0,288.3514419954736,4.0,1.0,phase_1,,,,,,,,,,,,,white,triangle
199.0,3.0,2.0,0.0,4.0,4.0,270.5926210037432,4.0,1.0,phase_1,,,,,,,,,,,,,green,flipped triangle
73.0,5.0,0.5,1.0,2.0,2.0,320.0909650040557,4.0,1.0,phase_1,,,,,,,,,,,,,magenta,square
0.0,7.0,0.0,1.0,3.0,3.0,279.9940010008868,4.0,1.0,phase_1,,,,,,,,,,,,,white,triangle
422.0,8.0,4.0,1.0,2.0,2.0,267.6566240115789,4.0,1.0,phase_1,,,,,,,,,,,,,orange,circle
0.0,6.0,0.0,1.0,4.0,4.0,286.9899369979976,4.0,1.0,phase_1,,,,,,,,,,,,,blue,hexagon
96.0,6.0,1.0,1.0,2.0,2.0,245.655146005447,4.0,1.0,phase_1,,,,,,,,,,,,,blue,hexagon
198.0,7.0,2.0,1.0,2.0,2.0,313.7893079983769,4.0,1.0,phase_1,,,,,,,,,,,,,white,triangle
34.0,1.0,0.5,0.0,3.0,3.0,366.0432060132734,4.0,1.0,phase_1,,,,,,,,,,,,,cyan,diamond
179.0,3.0,2.0,0.0,2.0,2.0,263.5032779944595,4.0,1.0,phase_1,,,,,,,,,,,,,green,flipped triangle
0.0,5.0,0.0,1.0,2.0,2.0,228.2114870031364,4.0,1.0,phase_1,,,,,,,,,,,,,magenta,square
37.0,1.0,0.5,0.0,3.0,3.0,276.5861100051552,4.0,1.0,phase_1,,,,,,,,,,,,,cyan,diamond
399.0,8.0,4.0,1.0,4.0,4.0,295.7236229995033,4.0,1.0,phase_1,,,,,,,,,,,,,orange,circle
383.0,8.0,4.0,1.0,4.0,4.0,306.5604680014075,4.0,1.0,phase_1,,,,,,,,,,,,,orange,circle
382.0,4.0,4.0,0.0,3.0,3.0,304.0297539992025,4.0,1.0,phase_1,,,,,,,,,,,,,yellow,cross
63.0,5.0,0.5,1.0,1.0,1.0,254.8643399932189,4.0,1.0,phase_1,,,,,,,,,,,,,magenta,square
120.0,6.0,1.0,1.0,3.0,3.0,251.2877709959866,4.0,1.0,phase_1,,,,,,,,,,,,,blue,hexagon
0.0,6.0,0.0,1.0,1.0,1.0,319.8651779966894,4.0,1.0,phase_1,,,,,,,,,,,,,blue,hexagon
397.0,8.0,4.0,1.0,1.0,1.0,323.9342300075805,4.0,1.0,phase_1,,,,,,,,,,,,,orange,circle
211.0,3.0,2.0,0.0,3.0,3.0,309.008095995523,4.0,2.0,phase_1,,,,,,,,,,,,,green,flipped triangle
74.0,5.0,0.5,1.0,1.0,1.0,312.4689669930376,4.0,1.0,phase_1,,,,,,,,,,,,,magenta,square
109.0,2.0,1.0,0.0,1.0,1.0,327.7311619895044,4.0,1.0,phase_1,,,,,,,,,,,,,gray,I
95.0,2.0,1.0,0.0,4.0,4.0,304.3918660114286,4.0,2.0,phase_1,,,,,,,,,,,,,gray,I
0.0,4.0,0.0,0.0,3.0,3.0,323.7642309977673,4.0,1.0,phase_1,,,,,,,,,,,,,yellow,cross
78.0,2.0,1.0,0.0,2.0,2.0,327.5255689950427,4.0,1.0,phase_1,,,,,,,,,,,,,gray,I
415.0,8.0,4.0,1.0,3.0,3.0,405.0753339979565,4.0,1.0,phase_1,,,,,,,,,,,,,orange,circle
185.0,3.0,2.0,0.0,4.0,4.0,357.1662949980236,4.0,1.0,phase_1,,,,,,,,,,,,,green,flipped triangle
419.0,4.0,4.0,0.0,4.0,4.0,328.5389310040045,4.0,1.0,phase_1,,,,,,,,,,,,,yellow,cross
0.0,8.0,0.0,1.0,3.0,3.0,438.3920660038711,4.0,1.0,phase_1,,,,,,,,,,,,,orange,circle
75.0,5.0,0.5,1.0,2.0,2.0,270.8962129981955,4.0,1.0,phase_1,,,,,,,,,,,,,magenta,square
381.0,4.0,4.0,0.0,4.0,4.0,295.5032200115965,4.0,1.0,phase_1,,,,,,,,,,,,,yellow,cross
0.0,1.0,0.0,0.0,4.0,4.0,259.2707809963031,4.0,1.0,phase_1,,,,,,,,,,,,,cyan,diamond
56.0,5.0,0.5,1.0,4.0,4.0,254.9927060026675,4.0,1.0,phase_1,,,,,,,,,,,,,magenta,square
116.0,6.0,1.0,1.0,2.0,2.0,283.6654190032277,4.0,1.0,phase_1,,,,,,,,,,,,,blue,hexagon
384.0,4.0,4.0,0.0,4.0,4.0,271.6494210035307,4.0,1.0,phase_1,,,,,,,,,,,,,yellow,cross
29.0,5.0,0.5,1.0,4.0,4.0,278.2830630021635,4.0,1.0,phase_1,,,,,,,,,,,,,magenta,square
411.0,4.0,4.0,0.0,1.0,1.0,329.6457559918053,4.0,1.0,phase_1,,,,,,,,,,,,,yellow,cross
75.0,1.0,0.5,0.0,2.0,2.0,279.5225059962831,4.0,1.0,phase_1,,,,,,,,,,,,,cyan,diamond
394.0,8.0,4.0,1.0,3.0,3.0,299.5928980089957,4.0,1.0,phase_1,,,,,,,,,,,,,orange,circle
57.0,1.0,0.5,0.0,4.0,4.0,330.7577319937991,4.0,2.0,phase_1,,,,,,,,,,,,,cyan,diamond
387.0,8.0,4.0,1.0,1.0,1.0,369.0527279977686,4.0,1.0,phase_1,,,,,,,,,,,,,orange,circle
377.0,8.0,4.0,1.0,1.0,1.0,525.86814899405,4.0,1.0,phase_1,,,,,,,,,,,,,orange,circle
72.0,1.0,0.5,0.0,4.0,4.0,306.7518600000767,4.0,1.0,phase_1,,,,,,,,,,,,,cyan,diamond
0.0,5.0,0.5,1.0,6.0,0.0,0.0,1.0,1.0,phase_2,stop,250.0,250.0,4.0,,,,,,,,,magenta,square
0.0,6.0,1.0,1.0,5.0,5.0,662.104253002326,1.0,1.0,phase_2,go,250.0,300.0,1.0,,,,,,,,,blue,hexagon
0.0,6.0,1.0,1.0,5.0,5.0,436.1449790012557,1.0,1.0,phase_2,stop,250.0,300.0,3.0,,,,,,,,,blue,hexagon
0.0,5.0,0.5,1.0,6.0,0.0,0.0,1.0,1.0,phase_2,stop,200.0,300.0,4.0,,,,,,,,,magenta,square
0.0,6.0,1.0,1.0,6.0,0.0,0.0,1.0,1.0,phase_2,stop,200.0,350.0,4.0,,,,,,,,,blue,hexagon
0.0,1.0,0.5,0.0,5.0,5.0,538.5343600064516,1.0,1.0,phase_2,go,200.0,400.0,1.0,,,,,,,,,cyan,diamond
0.0,5.0,0.5,1.0,6.0,6.0,683.788837006432,1.0,1.0,phase_2,go,200.0,400.0,1.0,,,,,,,,,magenta,square
0.0,6.0,1.0,1.0,5.0,0.0,0.0,1.0,1.0,phase_2,stop,200.0,400.0,4.0,,,,,,,,,blue,hexagon
0.0,3.0,2.0,0.0,5.0,5.0,640.6029790086905,1.0,1.0,phase_2,go,250.0,400.0,1.0,,,,,,,,,green,flipped triangle
0.0,6.0,1.0,1.0,6.0,0.0,0.0,1.0,1.0,phase_2,stop,250.0,400.0,4.0,,,,,,,,,blue,hexagon
0.0,1.0,0.5,0.0,5.0,5.0,815.3811340016546,1.0,1.0,phase_2,go,250.0,450.0,1.0,,,,,,,,,cyan,diamond
0.0,4.0,4.0,0.0,5.0,5.0,654.0931950003142,1.0,1.0,phase_2,go,250.0,450.0,1.0,,,,,,,,,yellow,cross
0.0,8.0,4.0,1.0,6.0,0.0,0.0,1.0,1.0,phase_2,stop,250.0,450.0,4.0,,,,,,,,,orange,circle
0.0,2.0,1.0,0.0,5.0,5.0,756.4004209998529,1.0,1.0,phase_2,go,250.0,500.0,1.0,,,,,,,,,gray,I
0.0,2.0,1.0,0.0,6.0,6.0,717.8454379900359,1.0,1.0,phase_2,go,250.0,500.0,1.0,,,,,,,,,gray,I
0.0,2.0,1.0,0.0,5.0,5.0,796.9363769952906,1.0,1.0,phase_2,go,250.0,500.0,1.0,,,,,,,,,gray,I
0.0,8.0,4.0,1.0,5.0,0.0,0.0,1.0,1.0,phase_2,stop,250.0,500.0,4.0,,,,,,,,,orange,circle
0.0,2.0,1.0,0.0,5.0,5.0,707.666557005723,1.0,1.0,phase_2,go,300.0,500.0,1.0,,,,,,,,,gray,I
0.0,6.0,1.0,1.0,5.0,5.0,353.5668129916303,1.0,1.0,phase_2,stop,300.0,500.0,3.0,,,,,,,,,blue,hexagon
0.0,1.0,0.5,0.0,5.0,5.0,617.7434879937209,1.0,1.0,phase_2,go,250.0,500.0,1.0,,,,,,,,,cyan,diamond
0.0,6.0,1.0,1.0,5.0,0.0,0.0,1.0,1.0,phase_2,stop,250.0,500.0,4.0,,,,,,,,,blue,hexagon
0.0,1.0,0.5,0.0,5.0,5.0,1129.665597996791,1.0,1.0,phase_2,go,300.0,500.0,1.0,,,,,,,,,cyan,diamond
0.0,6.0,1.0,1.0,6.0,6.0,640.5533799988916,1.0,1.0,phase_2,go,300.0,500.0,1.0,,,,,,,,,blue,hexagon
0.0,4.0,4.0,0.0,6.0,6.0,313.2495549943996,1.0,1.0,phase_2,go,300.0,500.0,1.0,,,,,,,,,yellow,cross
0.0,6.0,1.0,1.0,6.0,6.0,681.8677550036227,1.0,1.0,phase_2,go,300.0,500.0,1.0,,,,,,,,,blue,hexagon
0.0,7.0,2.0,1.0,6.0,6.0,350.3470290015684,1.0,1.0,phase_2,go,300.0,500.0,1.0,,,,,,,,,white,triangle
0.0,7.0,2.0,1.0,6.0,6.0,328.1856050016358,1.0,1.0,phase_2,stop,300.0,500.0,3.0,,,,,,,,,white,triangle
0.0,5.0,0.5,1.0,6.0,0.0,0.0,1.0,1.0,phase_2,stop,300.0,450.0,4.0,,,,,,,,,magenta,square
0.0,8.0,4.0,1.0,6.0,6.0,660.5698829953326,1.0,1.0,phase_2,stop,300.0,500.0,3.0,,,,,,,,,orange,circle
0.0,2.0,1.0,0.0,6.0,6.0,746.9708790013101,1.0,1.0,phase_2,go,300.0,450.0,1.0,,,,,,,,,gray,I
0.0,2.0,1.0,0.0,6.0,6.0,877.7433089999249,1.0,1.0,phase_2,go,300.0,450.0,1.0,,,,,,,,,gray,I
0.0,2.0,1.0,0.0,5.0,5.0,699.4734299951233,1.0,1.0,phase_2,go,300.0,450.0,1.0,,,,,,,,,gray,I
0.0,3.0,2.0,0.0,5.0,5.0,594.8664500028826,1.0,1.0,phase_2,go,300.0,450.0,1.0,,,,,,,,,green,flipped triangle
0.0,6.0,1.0,1.0,6.0,0.0,0.0,1.0,1.0,phase_2,stop,300.0,450.0,4.0,,,,,,,,,blue,hexagon
0.0,1.0,0.5,0.0,6.0,6.0,635.2624449937139,1.0,1.0,phase_2,go,300.0,500.0,1.0,,,,,,,,,cyan,diamond
0.0,8.0,4.0,1.0,5.0,0.0,0.0,1.0,1.0,phase_2,stop,300.0,500.0,4.0,,,,,,,,,orange,circle
0.0,5.0,0.5,1.0,6.0,6.0,359.4009389926214,2.0,1.0,phase_2,stop,350.0,500.0,3.0,,,,,,,,,magenta,square
0.0,7.0,2.0,1.0,5.0,5.0,382.3116959974868,2.0,1.0,phase_2,stop,350.0,450.0,3.0,,,,,,,,,white,triangle
0.0,8.0,4.0,1.0,6.0,6.0,799.0336759976344,2.0,1.0,phase_2,go,300.0,450.0,1.0,,,,,,,,,orange,circle
0.0,3.0,2.0,0.0,6.0,6.0,453.2165069977054,2.0,1.0,phase_2,go,300.0,450.0,1.0,,,,,,,,,green,flipped triangle
0.0,7.0,2.0,1.0,6.0,6.0,358.2003150077071,2.0,1.0,phase_2,stop,300.0,450.0,3.0,,,,,,,,,white,triangle
0.0,6.0,1.0,1.0,6.0,0.0,0.0,2.0,1.0,phase_2,stop,300.0,400.0,4.0,,,,,,,,,blue,hexagon
0.0,1.0,0.5,0.0,5.0,5.0,507.00819700432476,2.0,1.0,phase_2,go,300.0,450.0,1.0,,,,,,,,,cyan,diamond
0.0,4.0,4.0,0.0,5.0,5.0,500.87067700224,2.0,1.0,phase_2,go,300.0,450.0,1.0,,,,,,,,,yellow,cross
0.0,3.0,2.0,0.0,6.0,6.0,669.9325460067485,2.0,1.0,phase_2,go,300.0,450.0,1.0,,,,,,,,,green,flipped triangle
0.0,2.0,1.0,0.0,6.0,6.0,321.4678289950825,2.0,1.0,phase_2,go,300.0,450.0,1.0,,,,,,,,,gray,I
0.0,6.0,1.0,1.0,5.0,5.0,322.2872210026253,2.0,1.0,phase_2,stop,300.0,450.0,3.0,,,,,,,,,blue,hexagon
0.0,3.0,2.0,0.0,6.0,6.0,300.4852669982938,2.0,1.0,phase_2,go,250.0,450.0,1.0,,,,,,,,,green,flipped triangle
0.0,6.0,1.0,1.0,5.0,0.0,0.0,2.0,1.0,phase_2,stop,250.0,450.0,4.0,,,,,,,,,blue,hexagon
0.0,6.0,1.0,1.0,5.0,0.0,0.0,2.0,1.0,phase_2,stop,300.0,450.0,4.0,,,,,,,,,blue,hexagon
0.0,1.0,0.5,0.0,6.0,6.0,544.4842779979808,2.0,1.0,phase_2,go,350.0,450.0,1.0,,,,,,,,,cyan,diamond
0.0,1.0,0.5,0.0,6.0,6.0,361.0348399961367,2.0,1.0,phase_2,go,350.0,450.0,1.0,,,,,,,,,cyan,diamond
0.0,4.0,4.0,0.0,6.0,6.0,413.0428019998362,2.0,1.0,phase_2,go,350.0,450.0,1.0,,,,,,,,,yellow,cross
0.0,4.0,4.0,0.0,6.0,6.0,640.5877950019203,2.0,1.0,phase_2,go,350.0,450.0,1.0,,,,,,,,,yellow,cross
0.0,2.0,1.0,0.0,6.0,6.0,319.7293800039915,2.0,1.0,phase_2,go,350.0,450.0,1.0,,,,,,,,,gray,I
0.0,7.0,2.0,1.0,6.0,6.0,292.2488320036791,2.0,1.0,phase_2,stop,350.0,450.0,3.0,,,,,,,,,white,triangle
0.0,2.0,1.0,0.0,6.0,6.0,638.476307009114,2.0,1.0,phase_2,go,350.0,400.0,1.0,,,,,,,,,gray,I
0.0,7.0,2.0,1.0,5.0,5.0,277.0782779989531,2.0,1.0,phase_2,go,350.0,400.0,1.0,,,,,,,,,white,triangle
0.0,5.0,0.5,1.0,5.0,5.0,461.9937520037638,2.0,1.0,phase_2,stop,350.0,400.0,3.0,,,,,,,,,magenta,square
0.0,2.0,1.0,0.0,5.0,5.0,699.6316339937039,2.0,1.0,phase_2,go,300.0,400.0,1.0,,,,,,,,,gray,I
0.0,7.0,2.0,1.0,6.0,6.0,284.0987699892139,2.0,1.0,phase_2,go,300.0,400.0,1.0,,,,,,,,,white,triangle
0.0,3.0,2.0,0.0,5.0,5.0,473.1677599920658,2.0,1.0,phase_2,go,300.0,400.0,1.0,,,,,,,,,green,flipped triangle
0.0,3.0,2.0,0.0,6.0,6.0,240.6956060003722,2.0,1.0,phase_2,go,300.0,400.0,1.0,,,,,,,,,green,flipped triangle
0.0,4.0,4.0,0.0,5.0,5.0,513.7627410003915,2.0,1.0,phase_2,go,300.0,400.0,1.0,,,,,,,,,yellow,cross
0.0,6.0,1.0,1.0,5.0,5.0,384.9264379969099,2.0,1.0,phase_2,stop,300.0,400.0,3.0,,,,,,,,,blue,hexagon
0.0,3.0,2.0,0.0,6.0,6.0,882.2671429952607,2.0,1.0,phase_2,go,250.0,400.0,1.0,,,,,,,,,green,flipped triangle
0.0,6.0,1.0,1.0,6.0,6.0,418.6513269960414,2.0,1.0,phase_2,stop,250.0,400.0,3.0,,,,,,,,,blue,hexagon
0.0,4.0,4.0,0.0,5.0,5.0,669.3900119862519,2.0,1.0,phase_2,go,250.0,350.0,1.0,,,,,,,,,yellow,cross
0.0,4.0,4.0,0.0,6.0,6.0,381.1169159889687,2.0,1.0,phase_2,go,250.0,350.0,1.0,,,,,,,,,yellow,cross
0.0,2.0,1.0,0.0,5.0,5.0,436.9743129936978,2.0,1.0,phase_2,go,250.0,350.0,1.0,,,,,,,,,gray,I
0.0,1.0,0.5,0.0,5.0,5.0,566.6994909988716,2.0,1.0,phase_2,go,250.0,350.0,1.0,,,,,,,,,cyan,diamond
0.0,2.0,1.0,0.0,5.0,5.0,303.10680999537,2.0,1.0,phase_2,go,250.0,350.0,1.0,,,,,,,,,gray,I
0.0,1.0,0.5,0.0,6.0,6.0,399.5023030001903,3.0,1.0,phase_2,go,250.0,350.0,1.0,,,,,,,,,cyan,diamond
0.0,4.0,4.0,0.0,6.0,6.0,327.7112759969895,3.0,1.0,phase_2,go,250.0,350.0,1.0,,,,,,,,,yellow,cross
0.0,8.0,4.0,1.0,5.0,5.0,333.9053609961411,3.0,1.0,phase_2,go,250.0,350.0,1.0,,,,,,,,,orange,circle
0.0,2.0,1.0,0.0,5.0,5.0,350.1863480050815,3.0,1.0,phase_2,go,250.0,350.0,1.0,,,,,,,,,gray,I
0.0,7.0,2.0,1.0,5.0,5.0,364.9050890089711,3.0,1.0,phase_2,stop,250.0,350.0,3.0,,,,,,,,,white,triangle
0.0,2.0,1.0,0.0,6.0,6.0,618.4803229989484,3.0,1.0,phase_2,go,200.0,350.0,1.0,,,,,,,,,gray,I
0.0,5.0,0.5,1.0,6.0,6.0,282.2729769977741,3.0,1.0,phase_2,stop,200.0,350.0,3.0,,,,,,,,,magenta,square
0.0,8.0,4.0,1.0,6.0,6.0,499.834036003449,3.0,1.0,phase_2,stop,200.0,300.0,3.0,,,,,,,,,orange,circle
0.0,7.0,2.0,1.0,6.0,0.0,0.0,3.0,1.0,phase_2,stop,200.0,250.0,4.0,,,,,,,,,white,triangle
0.0,3.0,2.0,0.0,6.0,6.0,444.0240799885941,3.0,1.0,phase_2,go,200.0,300.0,1.0,,,,,,,,,green,flipped triangle
0.0,3.0,2.0,0.0,6.0,6.0,401.7059500038158,3.0,1.0,phase_2,go,200.0,300.0,1.0,,,,,,,,,green,flipped triangle
0.0,3.0,2.0,0.0,6.0,6.0,393.9483419962926,3.0,1.0,phase_2,go,200.0,300.0,1.0,,,,,,,,,green,flipped triangle
0.0,5.0,0.5,1.0,5.0,0.0,0.0,3.0,1.0,phase_2,stop,200.0,300.0,4.0,,,,,,,,,magenta,square
0.0,2.0,1.0,0.0,5.0,5.0,584.4686470081797,3.0,1.0,phase_2,go,250.0,300.0,1.0,,,,,,,,,gray,I
0.0,3.0,2.0,0.0,5.0,5.0,422.175514002447,3.0,1.0,phase_2,go,250.0,300.0,1.0,,,,,,,,,green,flipped triangle
0.0,5.0,0.5,1.0,6.0,0.0,0.0,3.0,1.0,phase_2,stop,250.0,300.0,4.0,,,,,,,,,magenta,square
0.0,6.0,1.0,1.0,5.0,5.0,381.8125690013403,3.0,1.0,phase_2,stop,250.0,350.0,3.0,,,,,,,,,blue,hexagon
0.0,3.0,2.0,0.0,5.0,5.0,1092.1350169955986,3.0,1.0,phase_2,go,200.0,350.0,1.0,,,,,,,,,green,flipped triangle
0.0,2.0,1.0,0.0,5.0,5.0,515.2869960002135,3.0,1.0,phase_2,go,200.0,350.0,1.0,,,,,,,,,gray,I
0.0,4.0,4.0,0.0,5.0,5.0,437.2772610076936,3.0,1.0,phase_2,go,200.0,350.0,1.0,,,,,,,,,yellow,cross
0.0,1.0,0.5,0.0,5.0,5.0,394.3232960009482,3.0,1.0,phase_2,go,200.0,350.0,1.0,,,,,,,,,cyan,diamond
0.0,6.0,1.0,1.0,6.0,6.0,258.2363980036462,3.0,1.0,phase_2,go,200.0,350.0,1.0,,,,,,,,,blue,hexagon
0.0,3.0,2.0,0.0,5.0,5.0,227.0901269948808,3.0,1.0,phase_2,go,200.0,350.0,1.0,,,,,,,,,green,flipped triangle
0.0,6.0,1.0,1.0,6.0,6.0,251.17469200631598,3.0,1.0,phase_2,stop,200.0,350.0,3.0,,,,,,,,,blue,hexagon
0.0,7.0,2.0,1.0,6.0,0.0,0.0,3.0,1.0,phase_2,stop,200.0,300.0,4.0,,,,,,,,,white,triangle
0.0,6.0,1.0,1.0,6.0,6.0,651.1943009973038,3.0,1.0,phase_2,go,200.0,350.0,1.0,,,,,,,,,blue,hexagon
0.0,2.0,1.0,0.0,6.0,6.0,417.5648880045628,3.0,1.0,phase_2,go,200.0,350.0,1.0,,,,,,,,,gray,I
0.0,7.0,2.0,1.0,5.0,0.0,0.0,3.0,1.0,phase_2,stop,200.0,350.0,4.0,,,,,,,,,white,triangle
0.0,3.0,2.0,0.0,5.0,5.0,846.5783980063861,3.0,1.0,phase_2,go,250.0,350.0,1.0,,,,,,,,,green,flipped triangle
0.0,7.0,2.0,1.0,6.0,6.0,784.2601229931461,3.0,1.0,phase_2,go,250.0,350.0,1.0,,,,,,,,,white,triangle
0.0,6.0,1.0,1.0,6.0,6.0,405.9208580001723,3.0,1.0,phase_2,stop,250.0,350.0,3.0,,,,,,,,,blue,hexagon
0.0,4.0,4.0,0.0,6.0,6.0,646.3150509953266,3.0,1.0,phase_2,go,250.0,300.0,1.0,,,,,,,,,yellow,cross
0.0,1.0,0.5,0.0,5.0,5.0,559.3954729993129,3.0,1.0,phase_2,go,250.0,300.0,1.0,,,,,,,,,cyan,diamond
0.0,6.0,1.0,1.0,6.0,6.0,379.452098000911,3.0,1.0,phase_2,stop,250.0,300.0,3.0,,,,,,,,,blue,hexagon
0.0,3.0,2.0,0.0,5.0,5.0,595.2061190037057,3.0,1.0,phase_2,go,250.0,250.0,1.0,,,,,,,,,green,flipped triangle
0.0,8.0,4.0,1.0,6.0,6.0,427.1916380093898,3.0,1.0,phase_2,stop,250.0,250.0,3.0,,,,,,,,,orange,circle
0.0,7.0,2.0,1.0,5.0,5.0,399.1824130062014,4.0,1.0,phase_2,stop,250.0,200.0,3.0,,,,,,,,,white,triangle
0.0,4.0,4.0,0.0,5.0,5.0,594.2592469946248,4.0,1.0,phase_2,go,200.0,200.0,1.0,,,,,,,,,yellow,cross
0.0,7.0,2.0,1.0,5.0,5.0,342.9505160020198,4.0,1.0,phase_2,stop,200.0,200.0,3.0,,,,,,,,,white,triangle
0.0,1.0,0.5,0.0,6.0,6.0,528.6882049986161,4.0,1.0,phase_2,go,150.0,200.0,1.0,,,,,,,,,cyan,diamond
0.0,3.0,2.0,0.0,6.0,6.0,311.0510980040999,4.0,1.0,phase_2,go,150.0,200.0,1.0,,,,,,,,,green,flipped triangle
0.0,4.0,4.0,0.0,6.0,6.0,356.5107859903946,4.0,1.0,phase_2,go,150.0,200.0,1.0,,,,,,,,,yellow,cross
0.0,1.0,0.5,0.0,5.0,5.0,411.54922101122787,4.0,1.0,phase_2,go,150.0,200.0,1.0,,,,,,,,,cyan,diamond
0.0,1.0,0.5,0.0,6.0,6.0,269.9926310015144,4.0,1.0,phase_2,go,150.0,200.0,1.0,,,,,,,,,cyan,diamond
0.0,6.0,1.0,1.0,5.0,0.0,0.0,4.0,1.0,phase_2,stop,150.0,200.0,4.0,,,,,,,,,blue,hexagon
0.0,6.0,1.0,1.0,5.0,5.0,338.9155600016238,4.0,1.0,phase_2,stop,200.0,200.0,3.0,,,,,,,,,blue,hexagon
0.0,7.0,2.0,1.0,6.0,6.0,298.6064949946012,4.0,1.0,phase_2,stop,150.0,200.0,3.0,,,,,,,,,white,triangle
0.0,2.0,1.0,0.0,6.0,6.0,529.4222380034626,4.0,1.0,phase_2,go,150.0,150.0,1.0,,,,,,,,,gray,I
0.0,1.0,0.5,0.0,5.0,5.0,577.638164992095,4.0,1.0,phase_2,go,150.0,150.0,1.0,,,,,,,,,cyan,diamond
0.0,6.0,1.0,1.0,6.0,0.0,0.0,4.0,1.0,phase_2,stop,150.0,150.0,4.0,,,,,,,,,blue,hexagon
0.0,1.0,0.5,0.0,6.0,6.0,430.9423999948194,4.0,1.0,phase_2,go,150.0,200.0,1.0,,,,,,,,,cyan,diamond
0.0,8.0,4.0,1.0,5.0,0.0,0.0,4.0,1.0,phase_2,stop,150.0,200.0,4.0,,,,,,,,,orange,circle
0.0,1.0,0.5,0.0,6.0,6.0,488.0528399953618,4.0,1.0,phase_2,go,200.0,200.0,1.0,,,,,,,,,cyan,diamond
0.0,3.0,2.0,0.0,5.0,5.0,465.1102969946805,4.0,1.0,phase_2,go,200.0,200.0,1.0,,,,,,,,,green,flipped triangle
0.0,4.0,4.0,0.0,6.0,6.0,348.7513559957733,4.0,1.0,phase_2,go,200.0,200.0,1.0,,,,,,,,,yellow,cross
0.0,2.0,1.0,0.0,6.0,6.0,373.0797739990521,4.0,1.0,phase_2,go,200.0,200.0,1.0,,,,,,,,,gray,I
0.0,8.0,4.0,1.0,6.0,6.0,355.6734979938483,4.0,1.0,phase_2,stop,200.0,200.0,3.0,,,,,,,,,orange,circle
0.0,7.0,2.0,1.0,5.0,0.0,0.0,4.0,1.0,phase_2,stop,200.0,150.0,4.0,,,,,,,,,white,triangle
0.0,2.0,1.0,0.0,5.0,5.0,446.1291740008164,4.0,1.0,phase_2,go,250.0,150.0,1.0,,,,,,,,,gray,I
0.0,8.0,4.0,1.0,5.0,0.0,0.0,4.0,1.0,phase_2,stop,250.0,150.0,4.0,,,,,,,,,orange,circle
0.0,6.0,1.0,1.0,5.0,5.0,396.9954810017952,4.0,1.0,phase_2,stop,300.0,150.0,3.0,,,,,,,,,blue,hexagon
0.0,1.0,0.5,0.0,6.0,6.0,561.0238360095536,4.0,1.0,phase_2,go,250.0,150.0,1.0,,,,,,,,,cyan,diamond
0.0,3.0,2.0,0.0,6.0,6.0,761.3042869925266,4.0,1.0,phase_2,go,250.0,150.0,1.0,,,,,,,,,green,flipped triangle
0.0,7.0,2.0,1.0,6.0,6.0,404.1640820069005,4.0,1.0,phase_2,stop,250.0,150.0,3.0,,,,,,,,,white,triangle
0.0,5.0,0.5,1.0,6.0,0.0,0.0,4.0,1.0,phase_2,stop,250.0,100.0,4.0,,,,,,,,,magenta,square
0.0,3.0,2.0,0.0,6.0,6.0,623.624743995606,4.0,1.0,phase_2,go,250.0,150.0,1.0,,,,,,,,,green,flipped triangle
0.0,5.0,0.5,1.0,6.0,0.0,0.0,4.0,1.0,phase_2,stop,250.0,150.0,4.0,,,,,,,,,magenta,square
0.0,7.0,2.0,1.0,5.0,0.0,0.0,4.0,1.0,phase_2,stop,250.0,200.0,4.0,,,,,,,,,white,triangle
0.0,2.0,1.0,0.0,6.0,6.0,447.3919220035895,4.0,1.0,phase_2,go,300.0,200.0,1.0,,,,,,,,,gray,I
0.0,8.0,4.0,1.0,5.0,0.0,0.0,4.0,1.0,phase_2,stop,300.0,200.0,4.0,,,,,,,,,orange,circle
0.0,7.0,2.0,1.0,6.0,0.0,0.0,4.0,1.0,phase_2,stop,350.0,200.0,4.0,,,,,,,,,white,triangle
0.0,1.0,0.5,0.0,5.0,5.0,517.7765150001505,4.0,1.0,phase_2,go,350.0,250.0,1.0,,,,,,,,,cyan,diamond
0.0,8.0,4.0,1.0,6.0,6.0,357.6730500062695,5.0,1.0,phase_2,go,350.0,250.0,1.0,,,,,,,,,orange,circle
0.0,2.0,1.0,0.0,6.0,6.0,354.9453570012701,5.0,1.0,phase_2,go,350.0,250.0,1.0,,,,,,,,,gray,I
0.0,1.0,0.5,0.0,5.0,5.0,506.15520200517494,5.0,1.0,phase_2,go,350.0,250.0,1.0,,,,,,,,,cyan,diamond
0.0,5.0,0.5,1.0,6.0,6.0,355.2645860036136,5.0,1.0,phase_2,go,350.0,250.0,1.0,,,,,,,,,magenta,square
0.0,7.0,2.0,1.0,5.0,5.0,481.1126320128096,5.0,1.0,phase_2,stop,350.0,250.0,3.0,,,,,,,,,white,triangle
0.0,4.0,4.0,0.0,6.0,6.0,447.9021089937305,5.0,1.0,phase_2,go,300.0,250.0,1.0,,,,,,,,,yellow,cross
0.0,8.0,4.0,1.0,5.0,5.0,458.2983290019911,5.0,1.0,phase_2,stop,300.0,250.0,3.0,,,,,,,,,orange,circle
0.0,7.0,2.0,1.0,5.0,0.0,0.0,5.0,1.0,phase_2,stop,250.0,250.0,4.0,,,,,,,,,white,triangle
0.0,6.0,1.0,1.0,6.0,6.0,560.3528100036783,5.0,1.0,phase_2,go,300.0,250.0,1.0,,,,,,,,,blue,hexagon
0.0,3.0,2.0,0.0,5.0,5.0,504.57787299819756,5.0,1.0,phase_2,go,300.0,250.0,1.0,,,,,,,,,green,flipped triangle
0.0,8.0,4.0,1.0,6.0,0.0,0.0,5.0,1.0,phase_2,stop,300.0,250.0,4.0,,,,,,,,,orange,circle
0.0,4.0,4.0,0.0,6.0,6.0,494.3818559986539,5.0,1.0,phase_2,go,300.0,300.0,1.0,,,,,,,,,yellow,cross
0.0,1.0,0.5,0.0,6.0,6.0,419.502045988338,5.0,1.0,phase_2,go,300.0,300.0,1.0,,,,,,,,,cyan,diamond
0.0,5.0,0.5,1.0,5.0,5.0,508.31892900168896,5.0,1.0,phase_2,stop,300.0,300.0,3.0,,,,,,,,,magenta,square
0.0,7.0,2.0,1.0,6.0,0.0,0.0,5.0,1.0,phase_2,stop,250.0,300.0,4.0,,,,,,,,,white,triangle
0.0,8.0,4.0,1.0,6.0,6.0,708.1660609983373,5.0,1.0,phase_2,go,250.0,350.0,1.0,,,,,,,,,orange,circle
0.0,6.0,1.0,1.0,5.0,0.0,0.0,5.0,1.0,phase_2,stop,250.0,350.0,4.0,,,,,,,,,blue,hexagon
0.0,8.0,4.0,1.0,5.0,0.0,0.0,5.0,1.0,phase_2,stop,300.0,350.0,4.0,,,,,,,,,orange,circle
0.0,1.0,0.5,0.0,6.0,6.0,619.0623139991658,5.0,1.0,phase_2,go,350.0,350.0,1.0,,,,,,,,,cyan,diamond
0.0,1.0,0.5,0.0,6.0,6.0,710.730662001879,5.0,1.0,phase_2,go,350.0,350.0,1.0,,,,,,,,,cyan,diamond
0.0,7.0,2.0,1.0,5.0,5.0,521.0603680025088,5.0,1.0,phase_2,go,350.0,350.0,1.0,,,,,,,,,white,triangle
0.0,4.0,4.0,0.0,5.0,5.0,718.0175419925945,5.0,1.0,phase_2,go,350.0,350.0,1.0,,,,,,,,,yellow,cross
0.0,7.0,2.0,1.0,5.0,5.0,371.3293140026508,5.0,1.0,phase_2,stop,350.0,350.0,3.0,,,,,,,,,white,triangle
0.0,7.0,2.0,1.0,5.0,5.0,486.7924239952117,5.0,1.0,phase_2,go,300.0,350.0,1.0,,,,,,,,,white,triangle
0.0,2.0,1.0,0.0,5.0,5.0,471.6216949891532,5.0,1.0,phase_2,go,300.0,350.0,1.0,,,,,,,,,gray,I
0.0,5.0,0.5,1.0,5.0,5.0,358.6429499991936,5.0,1.0,phase_2,go,300.0,350.0,1.0,,,,,,,,,magenta,square
0.0,1.0,0.5,0.0,5.0,5.0,477.3493370012147,5.0,1.0,phase_2,go,300.0,350.0,1.0,,,,,,,,,cyan,diamond
0.0,5.0,0.5,1.0,6.0,6.0,459.4668560021091,5.0,1.0,phase_2,stop,300.0,350.0,3.0,,,,,,,,,magenta,square
0.0,5.0,0.5,1.0,5.0,0.0,0.0,5.0,1.0,phase_2,stop,300.0,300.0,4.0,,,,,,,,,magenta,square
0.0,5.0,0.5,1.0,5.0,5.0,597.1397009998327,5.0,1.0,phase_2,go,350.0,300.0,1.0,,,,,,,,,magenta,square
0.0,6.0,1.0,1.0,5.0,5.0,587.7555129991379,5.0,1.0,phase_2,go,350.0,300.0,1.0,,,,,,,,,blue,hexagon
0.0,7.0,2.0,1.0,5.0,0.0,0.0,5.0,1.0,phase_2,stop,350.0,300.0,4.0,,,,,,,,,white,triangle
0.0,2.0,1.0,0.0,6.0,6.0,498.2358570123324,5.0,1.0,phase_2,go,400.0,300.0,1.0,,,,,,,,,gray,I
0.0,8.0,4.0,1.0,5.0,5.0,554.5198859908851,5.0,1.0,phase_2,go,400.0,300.0,1.0,,,,,,,,,orange,circle
0.0,6.0,1.0,1.0,6.0,6.0,377.838991000317,5.0,1.0,phase_2,go,400.0,300.0,1.0,,,,,,,,,blue,hexagon
0.0,8.0,4.0,1.0,6.0,6.0,422.408872997039,5.0,1.0,phase_2,stop,400.0,300.0,3.0,,,,,,,,,orange,circle
0.0,8.0,4.0,1.0,5.0,5.0,394.3831170035992,6.0,1.0,phase_2,stop,400.0,250.0,3.0,,,,,,,,,orange,circle
0.0,3.0,2.0,0.0,6.0,6.0,387.722039988148,6.0,1.0,phase_2,go,350.0,250.0,1.0,,,,,,,,,green,flipped triangle
0.0,4.0,4.0,0.0,6.0,6.0,360.9886949998326,6.0,1.0,phase_2,go,350.0,250.0,1.0,,,,,,,,,yellow,cross
0.0,3.0,2.0,0.0,6.0,6.0,273.6231699964264,6.0,1.0,phase_2,go,350.0,250.0,1.0,,,,,,,,,green,flipped triangle
0.0,2.0,1.0,0.0,5.0,5.0,475.1709169941023,6.0,1.0,phase_2,go,350.0,250.0,1.0,,,,,,,,,gray,I
0.0,2.0,1.0,0.0,5.0,5.0,312.576494005043,6.0,1.0,phase_2,go,350.0,250.0,1.0,,,,,,,,,gray,I
0.0,7.0,2.0,1.0,5.0,5.0,311.125849999371,6.0,1.0,phase_2,go,350.0,250.0,1.0,,,,,,,,,white,triangle
0.0,5.0,0.5,1.0,5.0,5.0,573.483717002091,6.0,1.0,phase_2,stop,350.0,250.0,3.0,,,,,,,,,magenta,square
0.0,3.0,2.0,0.0,5.0,5.0,477.4933489970863,6.0,1.0,phase_2,go,300.0,250.0,1.0,,,,,,,,,green,flipped triangle
0.0,2.0,1.0,0.0,5.0,5.0,414.6456320013385,6.0,1.0,phase_2,go,300.0,250.0,1.0,,,,,,,,,gray,I
0.0,5.0,0.5,1.0,5.0,5.0,456.1907659954158,6.0,1.0,phase_2,go,300.0,250.0,1.0,,,,,,,,,magenta,square
0.0,2.0,1.0,0.0,6.0,6.0,443.5726230003638,6.0,1.0,phase_2,go,300.0,250.0,1.0,,,,,,,,,gray,I
0.0,8.0,4.0,1.0,6.0,0.0,0.0,6.0,1.0,phase_2,stop,300.0,250.0,4.0,,,,,,,,,orange,circle
0.0,5.0,0.5,1.0,6.0,6.0,638.5954769939417,6.0,1.0,phase_2,go,300.0,300.0,1.0,,,,,,,,,magenta,square
0.0,3.0,2.0,0.0,5.0,5.0,489.6368320041802,6.0,1.0,phase_2,go,300.0,300.0,1.0,,,,,,,,,green,flipped triangle
0.0,8.0,4.0,1.0,5.0,5.0,521.8244999996386,6.0,1.0,phase_2,go,300.0,300.0,1.0,,,,,,,,,orange,circle
0.0,1.0,0.5,0.0,6.0,6.0,337.2251030086772,6.0,1.0,phase_2,go,300.0,300.0,1.0,,,,,,,,,cyan,diamond
0.0,1.0,0.5,0.0,6.0,6.0,291.5644369932124,6.0,1.0,phase_2,go,300.0,300.0,1.0,,,,,,,,,cyan,diamond
0.0,7.0,2.0,1.0,6.0,6.0,318.3392380014993,6.0,1.0,phase_2,stop,300.0,300.0,3.0,,,,,,,,,white,triangle
0.0,7.0,2.0,1.0,5.0,0.0,0.0,6.0,1.0,phase_2,stop,300.0,250.0,4.0,,,,,,,,,white,triangle
0.0,8.0,4.0,1.0,5.0,5.0,474.6217569918372,6.0,1.0,phase_2,stop,350.0,250.0,3.0,,,,,,,,,orange,circle
0.0,3.0,2.0,0.0,6.0,6.0,432.1968329895753,6.0,1.0,phase_2,go,300.0,250.0,1.0,,,,,,,,,green,flipped triangle
0.0,3.0,2.0,0.0,6.0,6.0,557.4830979894614,6.0,1.0,phase_2,go,300.0,250.0,1.0,,,,,,,,,green,flipped triangle
0.0,4.0,4.0,0.0,5.0,5.0,401.0042959998827,6.0,1.0,phase_2,go,300.0,250.0,1.0,,,,,,,,,yellow,cross
0.0,1.0,0.5,0.0,5.0,5.0,484.1987679974409,6.0,1.0,phase_2,go,300.0,250.0,1.0,,,,,,,,,cyan,diamond
0.0,1.0,0.5,0.0,6.0,6.0,595.4472650046227,6.0,1.0,phase_2,go,300.0,250.0,1.0,,,,,,,,,cyan,diamond
0.0,7.0,2.0,1.0,6.0,6.0,301.6495819902047,6.0,1.0,phase_2,go,300.0,250.0,1.0,,,,,,,,,white,triangle
0.0,3.0,2.0,0.0,5.0,5.0,606.6979399911361,6.0,1.0,phase_2,go,300.0,250.0,1.0,,,,,,,,,green,flipped triangle
0.0,5.0,0.5,1.0,5.0,5.0,380.2052589890081,6.0,1.0,phase_2,stop,300.0,250.0,3.0,,,,,,,,,magenta,square
0.0,2.0,1.0,0.0,6.0,6.0,434.3063580017769,6.0,1.0,phase_2,go,250.0,250.0,1.0,,,,,,,,,gray,I
0.0,4.0,4.0,0.0,5.0,5.0,467.8308440052205,6.0,1.0,phase_2,go,250.0,250.0,1.0,,,,,,,,,yellow,cross
0.0,5.0,0.5,1.0,5.0,0.0,0.0,6.0,1.0,phase_2,stop,250.0,250.0,4.0,,,,,,,,,magenta,square
0.0,8.0,4.0,1.0,5.0,0.0,0.0,6.0,1.0,phase_2,stop,300.0,250.0,4.0,,,,,,,,,orange,circle
0.0,2.0,1.0,0.0,5.0,5.0,553.7748360075057,6.0,1.0,phase_2,go,350.0,250.0,1.0,,,,,,,,,gray,I
0.0,4.0,4.0,0.0,5.0,5.0,432.8363359963987,6.0,1.0,phase_2,go,350.0,250.0,1.0,,,,,,,,,yellow,cross
0.0,2.0,1.0,0.0,5.0,5.0,377.8541949868668,6.0,1.0,phase_2,go,350.0,250.0,1.0,,,,,,,,,gray,I
0.0,2.0,1.0,0.0,6.0,6.0,291.9998509896686,7.0,1.0,phase_2,go,350.0,250.0,1.0,,,,,,,,,gray,I
0.0,1.0,0.5,0.0,6.0,6.0,300.4781449999427,7.0,1.0,phase_2,go,350.0,250.0,1.0,,,,,,,,,cyan,diamond
0.0,4.0,4.0,0.0,5.0,5.0,364.2288589908276,7.0,1.0,phase_2,go,350.0,250.0,1.0,,,,,,,,,yellow,cross
0.0,4.0,4.0,0.0,5.0,5.0,316.8433280079625,7.0,1.0,phase_2,go,350.0,250.0,1.0,,,,,,,,,yellow,cross
0.0,4.0,4.0,0.0,5.0,5.0,365.5624200036982,7.0,1.0,phase_2,go,350.0,250.0,1.0,,,,,,,,,yellow,cross
0.0,5.0,0.5,1.0,5.0,5.0,371.2462670082459,7.0,1.0,phase_2,stop,350.0,250.0,3.0,,,,,,,,,magenta,square
0.0,2.0,1.0,0.0,6.0,6.0,409.261858992977,7.0,1.0,phase_2,go,300.0,250.0,1.0,,,,,,,,,gray,I
0.0,6.0,1.0,1.0,6.0,6.0,465.45628900639707,7.0,1.0,phase_2,stop,300.0,250.0,3.0,,,,,,,,,blue,hexagon
0.0,4.0,4.0,0.0,5.0,5.0,728.5901720024412,7.0,1.0,phase_2,go,300.0,200.0,1.0,,,,,,,,,yellow,cross
0.0,7.0,2.0,1.0,5.0,0.0,0.0,7.0,1.0,phase_2,stop,300.0,200.0,4.0,,,,,,,,,white,triangle
0.0,3.0,2.0,0.0,5.0,5.0,480.7346320012584,7.0,1.0,phase_2,go,350.0,200.0,1.0,,,,,,,,,green,flipped triangle
0.0,5.0,0.5,1.0,6.0,6.0,663.0312240013154,7.0,1.0,phase_2,go,350.0,200.0,1.0,,,,,,,,,magenta,square
0.0,4.0,4.0,0.0,6.0,6.0,366.0015380010009,7.0,1.0,phase_2,go,350.0,200.0,1.0,,,,,,,,,yellow,cross
0.0,6.0,1.0,1.0,6.0,6.0,324.8702549899462,7.0,1.0,phase_2,stop,350.0,200.0,3.0,,,,,,,,,blue,hexagon
0.0,4.0,4.0,0.0,6.0,6.0,740.4296010063263,7.0,1.0,phase_2,go,350.0,150.0,1.0,,,,,,,,,yellow,cross
0.0,2.0,1.0,0.0,5.0,5.0,300.5006110033719,7.0,1.0,phase_2,go,350.0,150.0,1.0,,,,,,,,,gray,I
0.0,4.0,4.0,0.0,6.0,6.0,451.5590719965985,7.0,1.0,phase_2,go,350.0,150.0,1.0,,,,,,,,,yellow,cross
0.0,3.0,2.0,0.0,5.0,5.0,373.7537909910315,7.0,1.0,phase_2,go,350.0,150.0,1.0,,,,,,,,,green,flipped triangle
0.0,1.0,0.5,0.0,6.0,6.0,371.2647750071483,7.0,1.0,phase_2,go,350.0,150.0,1.0,,,,,,,,,cyan,diamond
0.0,5.0,0.5,1.0,5.0,0.0,0.0,7.0,1.0,phase_2,stop,350.0,150.0,4.0,,,,,,,,,magenta,square
0.0,3.0,2.0,0.0,6.0,6.0,505.79389100312255,7.0,1.0,phase_2,go,400.0,150.0,1.0,,,,,,,,,green,flipped triangle
0.0,8.0,4.0,1.0,6.0,6.0,346.257607001462,7.0,1.0,phase_2,stop,400.0,150.0,3.0,,,,,,,,,orange,circle
0.0,3.0,2.0,0.0,5.0,5.0,504.19407899607904,7.0,1.0,phase_2,go,400.0,100.0,1.0,,,,,,,,,green,flipped triangle
0.0,8.0,4.0,1.0,6.0,6.0,529.3237930018222,7.0,1.0,phase_2,go,400.0,100.0,1.0,,,,,,,,,orange,circle
0.0,7.0,2.0,1.0,6.0,0.0,0.0,7.0,1.0,phase_2,stop,400.0,100.0,4.0,,,,,,,,,white,triangle
0.0,4.0,4.0,0.0,5.0,5.0,432.2519550041761,7.0,1.0,phase_2,go,400.0,150.0,1.0,,,,,,,,,yellow,cross
0.0,5.0,0.5,1.0,5.0,5.0,369.1576209967024,7.0,1.0,phase_2,stop,400.0,150.0,3.0,,,,,,,,,magenta,square
0.0,7.0,2.0,1.0,6.0,0.0,0.0,7.0,1.0,phase_2,stop,350.0,150.0,4.0,,,,,,,,,white,triangle
0.0,1.0,0.5,0.0,6.0,6.0,556.6726289980579,7.0,1.0,phase_2,go,350.0,200.0,1.0,,,,,,,,,cyan,diamond
0.0,8.0,4.0,1.0,6.0,6.0,486.2019159918418,7.0,1.0,phase_2,go,350.0,200.0,1.0,,,,,,,,,orange,circle
0.0,5.0,0.5,1.0,6.0,6.0,340.1439239969477,7.0,1.0,phase_2,stop,350.0,200.0,3.0,,,,,,,,,magenta,square
0.0,6.0,1.0,1.0,5.0,5.0,527.2309799911454,7.0,1.0,phase_2,stop,350.0,150.0,3.0,,,,,,,,,blue,hexagon
0.0,5.0,0.5,1.0,6.0,6.0,499.545719998423,7.0,1.0,phase_2,go,300.0,150.0,1.0,,,,,,,,,magenta,square
0.0,5.0,0.5,1.0,5.0,0.0,0.0,7.0,1.0,phase_2,stop,300.0,150.0,4.0,,,,,,,,,magenta,square
0.0,8.0,4.0,1.0,5.0,0.0,0.0,7.0,1.0,phase_2,stop,350.0,150.0,4.0,,,,,,,,,orange,circle
0.0,5.0,0.5,1.0,6.0,6.0,482.7714690036373,7.0,1.0,phase_2,go,400.0,150.0,1.0,,,,,,,,,magenta,square
0.0,6.0,1.0,1.0,5.0,5.0,467.1378560015,8.0,1.0,phase_2,stop,400.0,150.0,3.0,,,,,,,,,blue,hexagon
0.0,3.0,2.0,0.0,5.0,5.0,474.156155003584,8.0,1.0,phase_2,go,350.0,150.0,1.0,,,,,,,,,green,flipped triangle
0.0,7.0,2.0,1.0,6.0,6.0,446.8064329994377,8.0,1.0,phase_2,go,350.0,150.0,1.0,,,,,,,,,white,triangle
0.0,1.0,0.5,0.0,5.0,5.0,273.1861919892253,8.0,1.0,phase_2,go,350.0,150.0,1.0,,,,,,,,,cyan,diamond
0.0,4.0,4.0,0.0,5.0,5.0,424.2961999989347,8.0,1.0,phase_2,go,350.0,150.0,1.0,,,,,,,,,yellow,cross
0.0,8.0,4.0,1.0,6.0,0.0,0.0,8.0,1.0,phase_2,stop,350.0,150.0,4.0,,,,,,,,,orange,circle
0.0,8.0,4.0,1.0,5.0,5.0,476.7671540030278,8.0,1.0,phase_2,stop,350.0,200.0,3.0,,,,,,,,,orange,circle
0.0,6.0,1.0,1.0,6.0,0.0,0.0,8.0,1.0,phase_2,stop,300.0,200.0,4.0,,,,,,,,,blue,hexagon
0.0,4.0,4.0,0.0,6.0,6.0,420.1113739982247,8.0,1.0,phase_2,go,300.0,250.0,1.0,,,,,,,,,yellow,cross
0.0,8.0,4.0,1.0,5.0,0.0,0.0,8.0,1.0,phase_2,stop,300.0,250.0,4.0,,,,,,,,,orange,circle
0.0,3.0,2.0,0.0,6.0,6.0,565.4088399896864,8.0,1.0,phase_2,go,350.0,250.0,1.0,,,,,,,,,green,flipped triangle
0.0,4.0,4.0,0.0,5.0,5.0,605.7076439901721,8.0,1.0,phase_2,go,350.0,250.0,1.0,,,,,,,,,yellow,cross
0.0,8.0,4.0,1.0,6.0,0.0,0.0,8.0,1.0,phase_2,stop,350.0,250.0,4.0,,,,,,,,,orange,circle
0.0,4.0,4.0,0.0,6.0,6.0,409.7555609914707,8.0,1.0,phase_2,go,350.0,300.0,1.0,,,,,,,,,yellow,cross
0.0,7.0,2.0,1.0,6.0,6.0,415.9514909988502,8.0,1.0,phase_2,stop,350.0,300.0,3.0,,,,,,,,,white,triangle
0.0,7.0,2.0,1.0,5.0,0.0,0.0,8.0,1.0,phase_2,stop,350.0,250.0,4.0,,,,,,,,,white,triangle
0.0,3.0,2.0,0.0,5.0,5.0,544.7378829994705,8.0,1.0,phase_2,go,400.0,250.0,1.0,,,,,,,,,green,flipped triangle
0.0,4.0,4.0,0.0,6.0,6.0,297.1341169904917,8.0,1.0,phase_2,go,400.0,250.0,1.0,,,,,,,,,yellow,cross
0.0,1.0,0.5,0.0,5.0,5.0,487.8933250001864,8.0,1.0,phase_2,go,400.0,250.0,1.0,,,,,,,,,cyan,diamond
0.0,8.0,4.0,1.0,5.0,0.0,0.0,8.0,1.0,phase_2,stop,400.0,250.0,4.0,,,,,,,,,orange,circle
0.0,3.0,2.0,0.0,6.0,6.0,375.2909729955718,8.0,1.0,phase_2,go,450.0,250.0,1.0,,,,,,,,,green,flipped triangle
0.0,5.0,0.5,1.0,5.0,5.0,373.8357280089985,8.0,1.0,phase_2,stop,450.0,250.0,3.0,,,,,,,,,magenta,square
0.0,2.0,1.0,0.0,6.0,6.0,629.3329740001354,8.0,1.0,phase_2,go,400.0,250.0,1.0,,,,,,,,,gray,I
0.0,5.0,0.5,1.0,6.0,6.0,389.7657860070467,8.0,1.0,phase_2,stop,400.0,250.0,3.0,,,,,,,,,magenta,square
0.0,8.0,4.0,1.0,6.0,0.0,0.0,8.0,1.0,phase_2,stop,400.0,200.0,4.0,,,,,,,,,orange,circle
0.0,1.0,0.5,0.0,5.0,5.0,385.9528940083692,8.0,1.0,phase_2,go,400.0,250.0,1.0,,,,,,,,,cyan,diamond
0.0,5.0,0.5,1.0,5.0,5.0,465.5219889973523,8.0,1.0,phase_2,stop,400.0,250.0,3.0,,,,,,,,,magenta,square
0.0,8.0,4.0,1.0,5.0,0.0,0.0,8.0,1.0,phase_2,stop,350.0,250.0,4.0,,,,,,,,,orange,circle
0.0,1.0,0.5,0.0,5.0,5.0,528.531465010019,8.0,1.0,phase_2,go,400.0,250.0,1.0,,,,,,,,,cyan,diamond
0.0,8.0,4.0,1.0,6.0,6.0,650.5141130037373,8.0,1.0,phase_2,go,400.0,250.0,1.0,,,,,,,,,orange,circle
0.0,4.0,4.0,0.0,5.0,5.0,439.2781989881769,8.0,1.0,phase_2,go,400.0,250.0,1.0,,,,,,,,,yellow,cross
0.0,4.0,4.0,0.0,6.0,6.0,438.8343059981707,8.0,1.0,phase_2,go,400.0,250.0,1.0,,,,,,,,,yellow,cross
0.0,5.0,0.5,1.0,5.0,5.0,431.9394590129377,8.0,1.0,phase_2,stop,400.0,250.0,3.0,,,,,,,,,magenta,square
0.0,5.0,0.5,1.0,6.0,0.0,0.0,8.0,1.0,phase_2,stop,350.0,250.0,4.0,,,,,,,,,magenta,square
0.0,5.0,0.5,1.0,5.0,5.0,565.1055380003527,8.0,1.0,phase_2,stop,350.0,300.0,3.0,,,,,,,,,magenta,square
0.0,6.0,1.0,1.0,5.0,5.0,612.5988309941022,8.0,1.0,phase_2,go,300.0,300.0,1.0,,,,,,,,,blue,hexagon
0.0,5.0,0.5,1.0,7.0,2.0,3702.3982840037206,1.0,1.0,phase_3,,,,,88.0,2.0,264.0,88.0,132.0,176.0,220.0,44.0,magenta,square
0.0,5.0,0.5,1.0,7.0,1.0,3802.6276679884177,1.0,1.0,phase_3,,,,,108.0,2.0,108.0,162.0,54.0,270.0,216.0,324.0,magenta,square
0.0,7.0,2.0,1.0,7.0,1.0,4528.621694000321,1.0,1.0,phase_3,,,,,176.0,4.0,176.0,88.0,264.0,132.0,220.0,44.0,white,triangle
0.0,4.0,4.0,0.0,7.0,3.0,3843.07693199662,1.0,1.0,phase_3,,,,,245.0,5.0,49.0,196.0,245.0,98.0,294.0,147.0,yellow,cross
0.0,5.0,0.5,1.0,7.0,4.0,4751.464130997192,1.0,1.0,phase_3,,,,,102.0,3.0,136.0,34.0,170.0,102.0,68.0,204.0,magenta,square
0.0,2.0,1.0,0.0,7.0,2.0,2542.7954490005504,1.0,1.0,phase_3,,,,,98.0,2.0,245.0,98.0,147.0,49.0,294.0,196.0,gray,I
0.0,1.0,0.5,0.0,7.0,1.0,2424.6383260033326,1.0,1.0,phase_3,,,,,162.0,3.0,162.0,108.0,324.0,54.0,216.0,270.0,cyan,diamond
0.0,5.0,0.5,1.0,7.0,1.0,3290.040082007181,1.0,1.0,phase_3,,,,,147.0,3.0,147.0,98.0,245.0,294.0,49.0,196.0,magenta,square
0.0,7.0,2.0,1.0,7.0,2.0,3961.589090002235,1.0,1.0,phase_3,,,,,204.0,6.0,170.0,204.0,102.0,34.0,68.0,136.0,white,triangle
0.0,1.0,0.5,0.0,7.0,2.0,3338.498900993727,1.0,2.0,phase_3,,,,,156.0,4.0,117.0,156.0,195.0,234.0,78.0,39.0,cyan,diamond
0.0,1.0,0.5,0.0,7.0,2.0,2882.0146299985936,1.0,1.0,phase_3,,,,,132.0,3.0,176.0,132.0,88.0,264.0,220.0,44.0,cyan,diamond
0.0,6.0,1.0,1.0,7.0,5.0,2749.6544379973784,1.0,1.0,phase_3,,,,,176.0,4.0,132.0,264.0,220.0,44.0,176.0,88.0,blue,hexagon
0.0,4.0,4.0,0.0,7.0,6.0,2472.743765989435,1.0,1.0,phase_3,,,,,324.0,6.0,270.0,54.0,216.0,108.0,162.0,324.0,yellow,cross
0.0,6.0,1.0,1.0,7.0,4.0,2968.593964003958,1.0,1.0,phase_3,,,,,117.0,3.0,156.0,78.0,39.0,117.0,234.0,195.0,blue,hexagon
0.0,4.0,4.0,0.0,7.0,4.0,2466.241864996846,1.0,1.0,phase_3,,,,,264.0,6.0,176.0,132.0,88.0,264.0,44.0,220.0,yellow,cross
0.0,6.0,1.0,1.0,7.0,5.0,3724.4678560091415,1.0,1.0,phase_3,,,,,162.0,3.0,324.0,216.0,108.0,270.0,162.0,54.0,blue,hexagon
0.0,3.0,2.0,0.0,7.0,4.0,2452.8696330089588,1.0,1.0,phase_3,,,,,196.0,4.0,98.0,147.0,49.0,196.0,294.0,245.0,green,flipped triangle
0.0,2.0,1.0,0.0,7.0,2.0,3119.0628740005195,1.0,1.0,phase_3,,,,,88.0,2.0,44.0,88.0,176.0,264.0,132.0,220.0,gray,I
0.0,7.0,2.0,1.0,7.0,2.0,2280.123353993986,1.0,2.0,phase_3,,,,,156.0,4.0,117.0,156.0,39.0,78.0,234.0,195.0,white,triangle
0.0,5.0,0.5,1.0,7.0,5.0,1904.584133008029,1.0,1.0,phase_3,,,,,98.0,2.0,49.0,147.0,196.0,294.0,98.0,245.0,magenta,square
0.0,6.0,1.0,1.0,7.0,2.0,2333.01307700458,2.0,1.0,phase_3,,,,,132.0,3.0,44.0,132.0,176.0,220.0,264.0,88.0,blue,hexagon
0.0,7.0,2.0,1.0,7.0,1.0,1941.7000980029115,2.0,1.0,phase_3,,,,,196.0,4.0,196.0,49.0,98.0,147.0,294.0,245.0,white,triangle
0.0,4.0,4.0,0.0,7.0,1.0,1902.533725995454,2.0,1.0,phase_3,,,,,294.0,6.0,294.0,49.0,98.0,245.0,196.0,147.0,yellow,cross
0.0,2.0,1.0,0.0,7.0,3.0,1710.667471998022,2.0,1.0,phase_3,,,,,108.0,2.0,216.0,270.0,108.0,162.0,324.0,54.0,gray,I
0.0,4.0,4.0,0.0,7.0,3.0,2032.8529349935707,2.0,1.0,phase_3,,,,,204.0,6.0,136.0,102.0,204.0,170.0,68.0,34.0,yellow,cross
0.0,6.0,1.0,1.0,7.0,5.0,2627.933594005299,2.0,1.0,phase_3,,,,,102.0,3.0,68.0,136.0,170.0,34.0,102.0,204.0,blue,hexagon
0.0,2.0,1.0,0.0,7.0,6.0,3090.179674007232,2.0,1.0,phase_3,,,,,176.0,4.0,88.0,220.0,132.0,44.0,264.0,176.0,gray,I
0.0,2.0,1.0,0.0,7.0,2.0,3548.24869800359,2.0,1.0,phase_3,,,,,49.0,1.0,245.0,49.0,294.0,147.0,98.0,196.0,gray,I
0.0,5.0,0.5,1.0,7.0,5.0,2828.4495620027883,2.0,1.0,phase_3,,,,,156.0,4.0,78.0,234.0,39.0,195.0,156.0,117.0,magenta,square
0.0,2.0,1.0,0.0,7.0,5.0,1934.1298110084608,2.0,1.0,phase_3,,,,,68.0,2.0,204.0,102.0,136.0,170.0,68.0,34.0,gray,I
0.0,3.0,2.0,0.0,7.0,4.0,3047.9149260063423,2.0,1.0,phase_3,,,,,132.0,3.0,264.0,44.0,176.0,132.0,88.0,220.0,green,flipped triangle
0.0,3.0,2.0,0.0,7.0,4.0,2881.41896801244,2.0,1.0,phase_3,,,,,156.0,4.0,195.0,78.0,117.0,156.0,234.0,39.0,green,flipped triangle
0.0,8.0,4.0,1.0,7.0,4.0,2618.357693005237,2.0,1.0,phase_3,,,,,294.0,6.0,147.0,196.0,49.0,294.0,245.0,98.0,orange,circle
0.0,5.0,0.5,1.0,7.0,2.0,3079.7228869923856,2.0,1.0,phase_3,,,,,136.0,4.0,170.0,136.0,204.0,34.0,68.0,102.0,magenta,square
0.0,2.0,1.0,0.0,7.0,1.0,2942.747272987617,2.0,1.0,phase_3,,,,,102.0,3.0,102.0,68.0,204.0,170.0,136.0,34.0,gray,I
0.0,8.0,4.0,1.0,7.0,6.0,1600.5399379937444,2.0,1.0,phase_3,,,,,245.0,5.0,98.0,147.0,294.0,196.0,49.0,245.0,orange,circle
0.0,5.0,0.5,1.0,7.0,2.0,2522.1889930107864,2.0,1.0,phase_3,,,,,108.0,2.0,216.0,108.0,162.0,54.0,270.0,324.0,magenta,square
0.0,4.0,4.0,0.0,7.0,5.0,2066.044275998138,2.0,1.0,phase_3,,,,,264.0,6.0,88.0,44.0,220.0,176.0,264.0,132.0,yellow,cross
0.0,6.0,1.0,1.0,7.0,6.0,1674.9050320067909,2.0,1.0,phase_3,,,,,98.0,2.0,147.0,245.0,49.0,196.0,294.0,98.0,blue,hexagon
0.0,5.0,0.5,1.0,7.0,1.0,1278.1286890094634,2.0,1.0,phase_3,,,,,39.0,1.0,39.0,117.0,156.0,234.0,78.0,195.0,magenta,square
0.0,7.0,2.0,1.0,7.0,2.0,1826.8790389993228,3.0,1.0,phase_3,,,,,245.0,5.0,49.0,245.0,98.0,294.0,196.0,147.0,white,triangle
0.0,6.0,1.0,1.0,7.0,2.0,1374.4898670120165,3.0,1.0,phase_3,,,,,34.0,1.0,204.0,34.0,170.0,68.0,136.0,102.0,blue,hexagon
0.0,3.0,2.0,0.0,7.0,6.0,2126.3788439973723,3.0,1.0,phase_3,,,,,117.0,3.0,156.0,39.0,195.0,234.0,78.0,117.0,green,flipped triangle
0.0,7.0,2.0,1.0,7.0,2.0,1273.7845899973763,3.0,1.0,phase_3,,,,,156.0,4.0,234.0,156.0,195.0,39.0,78.0,117.0,white,triangle
0.0,8.0,4.0,1.0,7.0,6.0,1920.509595991461,3.0,1.0,phase_3,,,,,264.0,6.0,132.0,220.0,176.0,44.0,88.0,264.0,orange,circle
0.0,1.0,0.5,0.0,7.0,6.0,2933.217286001309,3.0,1.0,phase_3,,,,,136.0,4.0,102.0,204.0,34.0,68.0,170.0,136.0,cyan,diamond
0.0,8.0,4.0,1.0,7.0,4.0,1837.8948350000428,3.0,1.0,phase_3,,,,,270.0,5.0,162.0,54.0,216.0,270.0,324.0,108.0,orange,circle
0.0,2.0,1.0,0.0,7.0,2.0,3407.465020995005,3.0,1.0,phase_3,,,,,156.0,4.0,78.0,156.0,39.0,117.0,195.0,234.0,gray,I
0.0,1.0,0.5,0.0,7.0,5.0,1665.9719220042462,3.0,1.0,phase_3,,,,,68.0,2.0,34.0,170.0,204.0,136.0,68.0,102.0,cyan,diamond
0.0,8.0,4.0,1.0,7.0,1.0,1825.961911992636,3.0,1.0,phase_3,,,,,204.0,6.0,204.0,34.0,102.0,170.0,136.0,68.0,orange,circle
0.0,4.0,4.0,0.0,7.0,1.0,1915.116009986377,3.0,1.0,phase_3,,,,,324.0,6.0,324.0,54.0,270.0,162.0,108.0,216.0,yellow,cross
0.0,1.0,0.5,0.0,7.0,2.0,2589.6473829925526,3.0,1.0,phase_3,,,,,98.0,2.0,147.0,98.0,245.0,196.0,294.0,49.0,cyan,diamond
0.0,3.0,2.0,0.0,7.0,1.0,1908.0808010039616,3.0,1.0,phase_3,,,,,147.0,3.0,147.0,98.0,294.0,49.0,245.0,196.0,green,flipped triangle
0.0,8.0,4.0,1.0,7.0,3.0,2541.016679999302,3.0,1.0,phase_3,,,,,234.0,6.0,117.0,195.0,234.0,39.0,78.0,156.0,orange,circle
0.0,4.0,4.0,0.0,7.0,6.0,2437.926084996434,3.0,1.0,phase_3,,,,,234.0,6.0,78.0,117.0,39.0,156.0,195.0,234.0,yellow,cross
0.0,4.0,4.0,0.0,7.0,2.0,1999.3571349914416,3.0,1.0,phase_3,,,,,204.0,6.0,102.0,204.0,68.0,170.0,34.0,136.0,yellow,cross
0.0,5.0,0.5,1.0,7.0,4.0,1793.868239998119,3.0,1.0,phase_3,,,,,44.0,1.0,176.0,264.0,132.0,44.0,88.0,220.0,magenta,square
0.0,2.0,1.0,0.0,7.0,2.0,3347.7828040049644,3.0,1.0,phase_3,,,,,39.0,1.0,117.0,39.0,156.0,78.0,234.0,195.0,gray,I
0.0,2.0,1.0,0.0,7.0,2.0,3092.6319909922317,3.0,1.0,phase_3,,,,,108.0,2.0,216.0,108.0,324.0,270.0,162.0,54.0,gray,I
0.0,7.0,2.0,1.0,7.0,6.0,2303.012996009784,3.0,1.0,phase_3,,,,,216.0,4.0,108.0,54.0,324.0,270.0,162.0,216.0,white,triangle
0.0,1.0,0.5,0.0,7.0,4.0,2806.734301993856,4.0,1.0,phase_3,,,,,196.0,4.0,294.0,49.0,98.0,196.0,147.0,245.0,cyan,diamond
0.0,8.0,4.0,1.0,7.0,3.0,2079.050753993215,4.0,1.0,phase_3,,,,,324.0,6.0,270.0,54.0,324.0,162.0,108.0,216.0,orange,circle
0.0,8.0,4.0,1.0,7.0,3.0,1465.0483010045718,4.0,1.0,phase_3,,,,,204.0,6.0,34.0,170.0,204.0,68.0,136.0,102.0,orange,circle
0.0,1.0,0.5,0.0,7.0,4.0,2303.16100899654,4.0,1.0,phase_3,,,,,54.0,1.0,162.0,216.0,324.0,54.0,108.0,270.0,cyan,diamond
0.0,6.0,1.0,1.0,7.0,5.0,1203.044358000625,4.0,1.0,phase_3,,,,,49.0,1.0,245.0,98.0,294.0,147.0,49.0,196.0,blue,hexagon
0.0,3.0,2.0,0.0,7.0,2.0,1682.3890599916922,4.0,1.0,phase_3,,,,,170.0,5.0,34.0,170.0,204.0,136.0,68.0,102.0,green,flipped triangle
0.0,3.0,2.0,0.0,7.0,5.0,1867.4055909941671,4.0,1.0,phase_3,,,,,132.0,3.0,220.0,88.0,264.0,44.0,132.0,176.0,green,flipped triangle
0.0,1.0,0.5,0.0,7.0,2.0,2029.511878004996,4.0,1.0,phase_3,,,,,117.0,3.0,156.0,117.0,78.0,39.0,234.0,195.0,cyan,diamond
0.0,3.0,2.0,0.0,7.0,2.0,1735.3315829968778,4.0,1.0,phase_3,,,,,162.0,3.0,324.0,162.0,270.0,108.0,216.0,54.0,green,flipped triangle
0.0,7.0,2.0,1.0,7.0,6.0,3055.815206986153,4.0,1.0,phase_3,,,,,136.0,4.0,68.0,170.0,34.0,204.0,102.0,136.0,white,triangle
0.0,3.0,2.0,0.0,7.0,3.0,1913.523973998963,4.0,1.0,phase_3,,,,,170.0,5.0,34.0,204.0,170.0,102.0,68.0,136.0,green,flipped triangle
0.0,1.0,0.5,0.0,7.0,4.0,2204.312255998957,4.0,1.0,phase_3,,,,,88.0,2.0,44.0,220.0,264.0,88.0,176.0,132.0,cyan,diamond
0.0,8.0,4.0,1.0,7.0,5.0,1807.683592007379,4.0,1.0,phase_3,,,,,264.0,6.0,176.0,220.0,88.0,132.0,264.0,44.0,orange,circle
0.0,8.0,4.0,1.0,7.0,4.0,2671.3801349978894,4.0,1.0,phase_3,,,,,234.0,6.0,117.0,156.0,78.0,234.0,39.0,195.0,orange,circle
0.0,7.0,2.0,1.0,7.0,4.0,3298.11733099632,4.0,1.0,phase_3,,,,,108.0,2.0,216.0,54.0,162.0,108.0,270.0,324.0,white,triangle
0.0,6.0,1.0,1.0,7.0,5.0,1458.365997998044,4.0,1.0,phase_3,,,,,39.0,1.0,195.0,78.0,156.0,234.0,39.0,117.0,blue,hexagon
0.0,7.0,2.0,1.0,7.0,5.0,1676.615218995721,4.0,1.0,phase_3,,,,,132.0,3.0,264.0,220.0,44.0,176.0,132.0,88.0,white,triangle
0.0,3.0,2.0,0.0,7.0,1.0,2093.869236006867,4.0,1.0,phase_3,,,,,162.0,3.0,162.0,270.0,54.0,216.0,108.0,324.0,green,flipped triangle
0.0,6.0,1.0,1.0,7.0,2.0,2428.9420029963367,4.0,1.0,phase_3,,,,,108.0,2.0,54.0,108.0,162.0,270.0,324.0,216.0,blue,hexagon
0.0,4.0,4.0,0.0,7.0,6.0,1701.3161100039724,4.0,1.0,phase_3,,,,,39.0,1.0,234.0,117.0,78.0,156.0,195.0,39.0,yellow,cross
