raw_reward_magnitude,stim_reward,stepwise_reward_magnitude,paired_with_stopping,stim_location,response,reaction_time,block,num_trial_presentations,which_phase,stop_signal_trial_type,left_SSD,right_SSD,accuracy,chosen_bidding_amount,chosen_bidding_level,possible_bid_1,possible_bid_2,possible_bid_3,possible_bid_4,possible_bid_5,possible_bid_6,color_text,shape_text
104.0,2.0,1.0,0.0,1.0,1.0,365.1374990004115,1.0,1.0,phase_1,,,,,,,,,,,,,green,square
0.0,4.0,0.0,0.0,3.0,3.0,391.1423480021767,1.0,1.0,phase_1,,,,,,,,,,,,,blue,I
46.0,5.0,0.5,1.0,4.0,4.0,351.1059239972383,1.0,1.0,phase_1,,,,,,,,,,,,,orange,circle
87.0,6.0,1.0,1.0,3.0,3.0,322.3387750331312,1.0,1.0,phase_1,,,,,,,,,,,,,gray,cross
111.0,2.0,1.0,0.0,1.0,1.0,349.2886319872923,1.0,1.0,phase_1,,,,,,,,,,,,,green,square
216.0,7.0,2.0,1.0,1.0,1.0,341.6142869973555,1.0,1.0,phase_1,,,,,,,,,,,,,yellow,diamond
223.0,7.0,2.0,1.0,2.0,2.0,377.5854120030999,1.0,1.0,phase_1,,,,,,,,,,,,,yellow,diamond
214.0,7.0,2.0,1.0,2.0,2.0,254.7847279929556,1.0,1.0,phase_1,,,,,,,,,,,,,yellow,diamond
0.0,8.0,0.0,1.0,1.0,1.0,372.0577550120651,1.0,1.0,phase_1,,,,,,,,,,,,,white,hexagon
31.0,5.0,0.5,1.0,1.0,1.0,596.5213360032067,1.0,1.0,phase_1,,,,,,,,,,,,,orange,circle
411.0,4.0,4.0,0.0,1.0,1.0,332.8724669991061,1.0,1.0,phase_1,,,,,,,,,,,,,blue,I
390.0,4.0,4.0,0.0,2.0,2.0,301.7122970195487,1.0,1.0,phase_1,,,,,,,,,,,,,blue,I
51.0,5.0,0.5,1.0,3.0,3.0,282.8565060044639,1.0,1.0,phase_1,,,,,,,,,,,,,orange,circle
176.0,3.0,2.0,0.0,3.0,3.0,289.082502014935,1.0,1.0,phase_1,,,,,,,,,,,,,magenta,flipped triangle
63.0,5.0,0.5,1.0,2.0,2.0,287.7523269853554,1.0,1.0,phase_1,,,,,,,,,,,,,orange,circle
0.0,7.0,0.0,1.0,4.0,4.0,328.7668589618988,1.0,1.0,phase_1,,,,,,,,,,,,,yellow,diamond
200.0,7.0,2.0,1.0,4.0,4.0,518.1389090139419,1.0,1.0,phase_1,,,,,,,,,,,,,yellow,diamond
0.0,7.0,0.0,1.0,4.0,4.0,293.9088410348631,1.0,1.0,phase_1,,,,,,,,,,,,,yellow,diamond
0.0,1.0,0.0,0.0,2.0,2.0,281.314967025537,1.0,1.0,phase_1,,,,,,,,,,,,,cyan,triangle
411.0,8.0,4.0,1.0,4.0,4.0,317.58793303743,1.0,1.0,phase_1,,,,,,,,,,,,,white,hexagon
0.0,5.0,0.0,1.0,4.0,4.0,288.4969920269213,1.0,1.0,phase_1,,,,,,,,,,,,,orange,circle
125.0,6.0,1.0,1.0,2.0,2.0,269.8782139923423,1.0,1.0,phase_1,,,,,,,,,,,,,gray,cross
77.0,6.0,1.0,1.0,3.0,3.0,321.9296499737538,1.0,1.0,phase_1,,,,,,,,,,,,,gray,cross
200.0,3.0,2.0,0.0,2.0,2.0,281.4763210481033,1.0,1.0,phase_1,,,,,,,,,,,,,magenta,flipped triangle
62.0,1.0,0.5,0.0,3.0,3.0,333.5363129735924,1.0,1.0,phase_1,,,,,,,,,,,,,cyan,triangle
59.0,1.0,0.5,0.0,1.0,1.0,288.2866120198741,1.0,1.0,phase_1,,,,,,,,,,,,,cyan,triangle
419.0,4.0,4.0,0.0,4.0,4.0,333.9632980059832,1.0,1.0,phase_1,,,,,,,,,,,,,blue,I
201.0,7.0,2.0,1.0,4.0,4.0,261.1210600007325,1.0,1.0,phase_1,,,,,,,,,,,,,yellow,diamond
395.0,4.0,4.0,0.0,4.0,4.0,270.0166249996982,1.0,1.0,phase_1,,,,,,,,,,,,,blue,I
186.0,7.0,2.0,1.0,1.0,1.0,500.9796840022318,1.0,1.0,phase_1,,,,,,,,,,,,,yellow,diamond
0.0,2.0,0.0,0.0,2.0,2.0,401.0488009662367,1.0,1.0,phase_1,,,,,,,,,,,,,green,square
180.0,3.0,2.0,0.0,1.0,1.0,316.5108800167218,1.0,1.0,phase_1,,,,,,,,,,,,,magenta,flipped triangle
71.0,1.0,0.5,0.0,4.0,4.0,326.0362739674747,1.0,2.0,phase_1,,,,,,,,,,,,,cyan,triangle
419.0,8.0,4.0,1.0,3.0,3.0,308.1729529658332,1.0,1.0,phase_1,,,,,,,,,,,,,white,hexagon
110.0,6.0,1.0,1.0,2.0,2.0,311.3964420044794,1.0,1.0,phase_1,,,,,,,,,,,,,gray,cross
68.0,1.0,0.5,0.0,3.0,3.0,325.7087430101819,1.0,1.0,phase_1,,,,,,,,,,,,,cyan,triangle
48.0,5.0,0.5,1.0,4.0,4.0,304.6553919557482,1.0,1.0,phase_1,,,,,,,,,,,,,orange,circle
208.0,3.0,2.0,0.0,4.0,4.0,300.7333530113101,1.0,1.0,phase_1,,,,,,,,,,,,,magenta,flipped triangle
99.0,6.0,1.0,1.0,3.0,3.0,363.3875700179487,1.0,1.0,phase_1,,,,,,,,,,,,,gray,cross
182.0,3.0,2.0,0.0,4.0,4.0,304.1973499930464,1.0,1.0,phase_1,,,,,,,,,,,,,magenta,flipped triangle
387.0,8.0,4.0,1.0,3.0,3.0,276.6784520354122,1.0,1.0,phase_1,,,,,,,,,,,,,white,hexagon
378.0,4.0,4.0,0.0,4.0,4.0,280.2921400289051,1.0,1.0,phase_1,,,,,,,,,,,,,blue,I
33.0,5.0,0.5,1.0,3.0,3.0,284.775162988808,1.0,1.0,phase_1,,,,,,,,,,,,,orange,circle
44.0,1.0,0.5,0.0,1.0,1.0,341.6491670068353,1.0,2.0,phase_1,,,,,,,,,,,,,cyan,triangle
83.0,6.0,1.0,1.0,2.0,2.0,378.4399929572828,1.0,1.0,phase_1,,,,,,,,,,,,,gray,cross
211.0,7.0,2.0,1.0,3.0,3.0,378.8866859977133,1.0,1.0,phase_1,,,,,,,,,,,,,yellow,diamond
44.0,5.0,0.5,1.0,1.0,1.0,371.5618699789047,1.0,1.0,phase_1,,,,,,,,,,,,,orange,circle
48.0,5.0,0.5,1.0,4.0,4.0,346.4286560192704,1.0,1.0,phase_1,,,,,,,,,,,,,orange,circle
0.0,3.0,0.0,0.0,3.0,3.0,345.2444360009394,1.0,1.0,phase_1,,,,,,,,,,,,,magenta,flipped triangle
376.0,8.0,4.0,1.0,2.0,2.0,369.7843560366891,1.0,1.0,phase_1,,,,,,,,,,,,,white,hexagon
121.0,2.0,1.0,0.0,4.0,4.0,343.0361560313031,1.0,1.0,phase_1,,,,,,,,,,,,,green,square
0.0,1.0,0.0,0.0,3.0,3.0,403.2648249994963,1.0,1.0,phase_1,,,,,,,,,,,,,cyan,triangle
37.0,1.0,0.5,0.0,1.0,1.0,377.6847710250877,1.0,1.0,phase_1,,,,,,,,,,,,,cyan,triangle
31.0,1.0,0.5,0.0,4.0,4.0,302.4123819777742,1.0,1.0,phase_1,,,,,,,,,,,,,cyan,triangle
59.0,5.0,0.5,1.0,4.0,4.0,361.3019210170023,1.0,1.0,phase_1,,,,,,,,,,,,,orange,circle
402.0,8.0,4.0,1.0,1.0,1.0,456.8224959657527,1.0,1.0,phase_1,,,,,,,,,,,,,white,hexagon
0.0,5.0,0.0,1.0,3.0,3.0,365.8256590133533,1.0,1.0,phase_1,,,,,,,,,,,,,orange,circle
30.0,5.0,0.5,1.0,4.0,4.0,329.5510230236687,1.0,1.0,phase_1,,,,,,,,,,,,,orange,circle
0.0,1.0,0.0,0.0,2.0,2.0,309.6442529931664,1.0,1.0,phase_1,,,,,,,,,,,,,cyan,triangle
0.0,5.0,0.0,1.0,4.0,4.0,337.481835973449,1.0,1.0,phase_1,,,,,,,,,,,,,orange,circle
66.0,1.0,0.5,0.0,2.0,2.0,381.9042959949001,1.0,1.0,phase_1,,,,,,,,,,,,,cyan,triangle
0.0,6.0,0.0,1.0,3.0,3.0,337.9354220232926,1.0,1.0,phase_1,,,,,,,,,,,,,gray,cross
83.0,6.0,1.0,1.0,1.0,1.0,335.6079549994319,1.0,1.0,phase_1,,,,,,,,,,,,,gray,cross
208.0,3.0,2.0,0.0,1.0,1.0,331.6710529616102,1.0,1.0,phase_1,,,,,,,,,,,,,magenta,flipped triangle
395.0,8.0,4.0,1.0,4.0,4.0,313.5526830446906,1.0,1.0,phase_1,,,,,,,,,,,,,white,hexagon
216.0,7.0,2.0,1.0,2.0,2.0,276.5387300169095,1.0,1.0,phase_1,,,,,,,,,,,,,yellow,diamond
0.0,5.0,0.0,1.0,4.0,4.0,633.6893300176598,1.0,1.0,phase_1,,,,,,,,,,,,,orange,circle
0.0,7.0,0.0,1.0,2.0,2.0,421.6764169977978,1.0,1.0,phase_1,,,,,,,,,,,,,yellow,diamond
405.0,4.0,4.0,0.0,3.0,3.0,374.5183480205014,1.0,1.0,phase_1,,,,,,,,,,,,,blue,I
106.0,2.0,1.0,0.0,1.0,1.0,314.4637980149127,1.0,1.0,phase_1,,,,,,,,,,,,,green,square
188.0,3.0,2.0,0.0,2.0,2.0,358.3675630507059,1.0,1.0,phase_1,,,,,,,,,,,,,magenta,flipped triangle
63.0,1.0,0.5,0.0,1.0,1.0,353.2801760011352,1.0,1.0,phase_1,,,,,,,,,,,,,cyan,triangle
0.0,8.0,0.0,1.0,1.0,1.0,480.6469900067895,1.0,1.0,phase_1,,,,,,,,,,,,,white,hexagon
387.0,8.0,4.0,1.0,4.0,4.0,338.2182560162619,1.0,1.0,phase_1,,,,,,,,,,,,,white,hexagon
409.0,4.0,4.0,0.0,3.0,3.0,400.745051971171,1.0,1.0,phase_1,,,,,,,,,,,,,blue,I
387.0,8.0,4.0,1.0,3.0,3.0,388.3605090086348,1.0,1.0,phase_1,,,,,,,,,,,,,white,hexagon
78.0,2.0,1.0,0.0,2.0,2.0,363.7771480134688,1.0,1.0,phase_1,,,,,,,,,,,,,green,square
376.0,4.0,4.0,0.0,1.0,1.0,374.9833859619684,1.0,1.0,phase_1,,,,,,,,,,,,,blue,I
67.0,1.0,0.5,0.0,2.0,2.0,387.4265099875629,1.0,1.0,phase_1,,,,,,,,,,,,,cyan,triangle
69.0,1.0,0.5,0.0,3.0,3.0,326.9485259661451,1.0,1.0,phase_1,,,,,,,,,,,,,cyan,triangle
100.0,6.0,1.0,1.0,3.0,3.0,356.9440810242668,1.0,1.0,phase_1,,,,,,,,,,,,,gray,cross
378.0,8.0,4.0,1.0,1.0,1.0,367.5033249892294,1.0,1.0,phase_1,,,,,,,,,,,,,white,hexagon
186.0,3.0,2.0,0.0,3.0,3.0,340.896192996297,1.0,1.0,phase_1,,,,,,,,,,,,,magenta,flipped triangle
83.0,2.0,1.0,0.0,4.0,4.0,321.4699829695746,1.0,1.0,phase_1,,,,,,,,,,,,,green,square
0.0,2.0,0.0,0.0,2.0,2.0,349.4442449882626,1.0,1.0,phase_1,,,,,,,,,,,,,green,square
71.0,1.0,0.5,0.0,1.0,1.0,308.7323410436511,1.0,1.0,phase_1,,,,,,,,,,,,,cyan,triangle
0.0,4.0,0.0,0.0,4.0,4.0,343.648556037806,1.0,1.0,phase_1,,,,,,,,,,,,,blue,I
0.0,3.0,0.0,0.0,2.0,2.0,427.9097690014168,1.0,1.0,phase_1,,,,,,,,,,,,,magenta,flipped triangle
408.0,8.0,4.0,1.0,1.0,1.0,379.8903609858826,1.0,1.0,phase_1,,,,,,,,,,,,,white,hexagon
188.0,7.0,2.0,1.0,3.0,3.0,367.9520890000276,1.0,1.0,phase_1,,,,,,,,,,,,,yellow,diamond
0.0,8.0,0.0,1.0,1.0,1.0,369.8628330021165,1.0,1.0,phase_1,,,,,,,,,,,,,white,hexagon
0.0,1.0,0.0,0.0,3.0,3.0,353.4895099583082,1.0,1.0,phase_1,,,,,,,,,,,,,cyan,triangle
392.0,4.0,4.0,0.0,2.0,2.0,475.3784089698456,1.0,1.0,phase_1,,,,,,,,,,,,,blue,I
390.0,8.0,4.0,1.0,1.0,1.0,443.627902015578,1.0,1.0,phase_1,,,,,,,,,,,,,white,hexagon
28.0,5.0,0.5,1.0,2.0,2.0,372.4715179996565,1.0,1.0,phase_1,,,,,,,,,,,,,orange,circle
119.0,2.0,1.0,0.0,1.0,1.0,385.0325049716048,1.0,1.0,phase_1,,,,,,,,,,,,,green,square
72.0,1.0,0.5,0.0,4.0,4.0,350.0172140193172,1.0,1.0,phase_1,,,,,,,,,,,,,cyan,triangle
0.0,2.0,0.0,0.0,3.0,3.0,388.621692021843,1.0,1.0,phase_1,,,,,,,,,,,,,green,square
48.0,1.0,0.5,0.0,2.0,2.0,288.7002470088191,1.0,1.0,phase_1,,,,,,,,,,,,,cyan,triangle
77.0,2.0,1.0,0.0,3.0,3.0,342.011506028939,1.0,1.0,phase_1,,,,,,,,,,,,,green,square
104.0,6.0,1.0,1.0,2.0,2.0,804.7464860137552,2.0,1.0,phase_1,,,,,,,,,,,,,gray,cross
67.0,5.0,0.5,1.0,3.0,3.0,370.0936159584671,2.0,1.0,phase_1,,,,,,,,,,,,,orange,circle
79.0,2.0,1.0,0.0,2.0,2.0,396.5792020317167,2.0,1.0,phase_1,,,,,,,,,,,,,green,square
100.0,2.0,1.0,0.0,4.0,4.0,369.4812430185266,2.0,1.0,phase_1,,,,,,,,,,,,,green,square
120.0,2.0,1.0,0.0,3.0,3.0,349.825637997128,2.0,1.0,phase_1,,,,,,,,,,,,,green,square
121.0,6.0,1.0,1.0,4.0,4.0,330.5490579805337,2.0,1.0,phase_1,,,,,,,,,,,,,gray,cross
0.0,8.0,0.0,1.0,2.0,2.0,294.9792720028199,2.0,1.0,phase_1,,,,,,,,,,,,,white,hexagon
394.0,4.0,4.0,0.0,4.0,4.0,347.4591380218044,2.0,1.0,phase_1,,,,,,,,,,,,,blue,I
200.0,7.0,2.0,1.0,2.0,2.0,609.5374990254641,2.0,1.0,phase_1,,,,,,,,,,,,,yellow,diamond
201.0,3.0,2.0,0.0,4.0,4.0,684.7523140022531,2.0,1.0,phase_1,,,,,,,,,,,,,magenta,flipped triangle
111.0,6.0,1.0,1.0,2.0,2.0,337.5336900353431,2.0,1.0,phase_1,,,,,,,,,,,,,gray,cross
0.0,8.0,0.0,1.0,2.0,2.0,541.4242359693162,2.0,1.0,phase_1,,,,,,,,,,,,,white,hexagon
26.0,1.0,0.5,0.0,4.0,4.0,282.5008209911175,2.0,1.0,phase_1,,,,,,,,,,,,,cyan,triangle
216.0,3.0,2.0,0.0,4.0,4.0,267.3597089597024,2.0,1.0,phase_1,,,,,,,,,,,,,magenta,flipped triangle
28.0,5.0,0.5,1.0,2.0,2.0,276.3970080413855,2.0,1.0,phase_1,,,,,,,,,,,,,orange,circle
225.0,3.0,2.0,0.0,3.0,3.0,280.7392079848796,2.0,1.0,phase_1,,,,,,,,,,,,,magenta,flipped triangle
380.0,8.0,4.0,1.0,3.0,3.0,358.0247480422258,2.0,1.0,phase_1,,,,,,,,,,,,,white,hexagon
73.0,5.0,0.5,1.0,2.0,2.0,266.8692069710232,2.0,1.0,phase_1,,,,,,,,,,,,,orange,circle
74.0,1.0,0.5,0.0,2.0,2.0,313.145752006676,2.0,1.0,phase_1,,,,,,,,,,,,,cyan,triangle
398.0,4.0,4.0,0.0,2.0,2.0,349.8330870061181,2.0,1.0,phase_1,,,,,,,,,,,,,blue,I
92.0,6.0,1.0,1.0,2.0,2.0,490.750744997058,2.0,1.0,phase_1,,,,,,,,,,,,,gray,cross
27.0,5.0,0.5,1.0,1.0,1.0,341.6880589793436,2.0,1.0,phase_1,,,,,,,,,,,,,orange,circle
197.0,3.0,2.0,0.0,2.0,2.0,300.610852020327,2.0,1.0,phase_1,,,,,,,,,,,,,magenta,flipped triangle
379.0,4.0,4.0,0.0,3.0,3.0,360.7604309800081,2.0,1.0,phase_1,,,,,,,,,,,,,blue,I
176.0,7.0,2.0,1.0,2.0,2.0,316.7151489760726,2.0,1.0,phase_1,,,,,,,,,,,,,yellow,diamond
77.0,2.0,1.0,0.0,1.0,1.0,320.4640420153737,2.0,1.0,phase_1,,,,,,,,,,,,,green,square
208.0,7.0,2.0,1.0,1.0,1.0,288.123099016957,2.0,1.0,phase_1,,,,,,,,,,,,,yellow,diamond
214.0,7.0,2.0,1.0,1.0,1.0,330.3440070012584,2.0,1.0,phase_1,,,,,,,,,,,,,yellow,diamond
0.0,5.0,0.0,1.0,4.0,4.0,309.6084209973924,2.0,1.0,phase_1,,,,,,,,,,,,,orange,circle
38.0,1.0,0.5,0.0,4.0,4.0,330.4052260355092,2.0,1.0,phase_1,,,,,,,,,,,,,cyan,triangle
92.0,2.0,1.0,0.0,3.0,3.0,354.4314799946733,2.0,1.0,phase_1,,,,,,,,,,,,,green,square
67.0,5.0,0.5,1.0,3.0,3.0,371.6716289636679,2.0,1.0,phase_1,,,,,,,,,,,,,orange,circle
0.0,5.0,0.0,1.0,1.0,1.0,466.4063220261596,2.0,1.0,phase_1,,,,,,,,,,,,,orange,circle
0.0,1.0,0.0,0.0,1.0,1.0,424.8914230265654,2.0,1.0,phase_1,,,,,,,,,,,,,cyan,triangle
417.0,4.0,4.0,0.0,1.0,1.0,329.6034969971515,2.0,1.0,phase_1,,,,,,,,,,,,,blue,I
0.0,7.0,0.0,1.0,3.0,3.0,472.2525360411964,2.0,1.0,phase_1,,,,,,,,,,,,,yellow,diamond
72.0,5.0,0.5,1.0,1.0,1.0,419.5718090049922,2.0,1.0,phase_1,,,,,,,,,,,,,orange,circle
188.0,7.0,2.0,1.0,3.0,3.0,520.5844529555179,2.0,1.0,phase_1,,,,,,,,,,,,,yellow,diamond
88.0,2.0,1.0,0.0,4.0,4.0,404.2322160094045,2.0,1.0,phase_1,,,,,,,,,,,,,green,square
423.0,8.0,4.0,1.0,2.0,2.0,353.951319004409,2.0,1.0,phase_1,,,,,,,,,,,,,white,hexagon
418.0,8.0,4.0,1.0,2.0,2.0,600.0079360092059,2.0,1.0,phase_1,,,,,,,,,,,,,white,hexagon
41.0,1.0,0.5,0.0,3.0,3.0,500.81562396371737,2.0,1.0,phase_1,,,,,,,,,,,,,cyan,triangle
116.0,2.0,1.0,0.0,4.0,4.0,395.1917520025745,2.0,1.0,phase_1,,,,,,,,,,,,,green,square
200.0,3.0,2.0,0.0,1.0,1.0,373.9132439950481,2.0,1.0,phase_1,,,,,,,,,,,,,magenta,flipped triangle
58.0,5.0,0.5,1.0,3.0,3.0,443.1396150030195,2.0,1.0,phase_1,,,,,,,,,,,,,orange,circle
0.0,2.0,0.0,0.0,4.0,4.0,341.8780239881016,2.0,1.0,phase_1,,,,,,,,,,,,,green,square
182.0,7.0,2.0,1.0,3.0,3.0,308.901252981741,2.0,1.0,phase_1,,,,,,,,,,,,,yellow,diamond
93.0,2.0,1.0,0.0,4.0,4.0,314.431243983563,2.0,1.0,phase_1,,,,,,,,,,,,,green,square
423.0,4.0,4.0,0.0,1.0,1.0,381.7348260199651,2.0,1.0,phase_1,,,,,,,,,,,,,blue,I
405.0,4.0,4.0,0.0,2.0,2.0,431.4591489965096,2.0,1.0,phase_1,,,,,,,,,,,,,blue,I
200.0,7.0,2.0,1.0,2.0,2.0,390.5309059773572,2.0,1.0,phase_1,,,,,,,,,,,,,yellow,diamond
66.0,5.0,0.5,1.0,4.0,4.0,401.5611080103554,2.0,1.0,phase_1,,,,,,,,,,,,,orange,circle
392.0,8.0,4.0,1.0,2.0,2.0,345.0998369953595,2.0,1.0,phase_1,,,,,,,,,,,,,white,hexagon
382.0,8.0,4.0,1.0,4.0,4.0,458.6016629473306,2.0,1.0,phase_1,,,,,,,,,,,,,white,hexagon
379.0,8.0,4.0,1.0,1.0,1.0,346.6684809536673,2.0,1.0,phase_1,,,,,,,,,,,,,white,hexagon
88.0,2.0,1.0,0.0,2.0,2.0,534.3543930212036,2.0,1.0,phase_1,,,,,,,,,,,,,green,square
0.0,4.0,0.0,0.0,4.0,4.0,459.2157769948244,2.0,1.0,phase_1,,,,,,,,,,,,,blue,I
0.0,8.0,0.0,1.0,1.0,1.0,375.3728079609573,2.0,1.0,phase_1,,,,,,,,,,,,,white,hexagon
106.0,6.0,1.0,1.0,1.0,1.0,434.5328650088049,2.0,1.0,phase_1,,,,,,,,,,,,,gray,cross
0.0,2.0,0.0,0.0,4.0,4.0,326.9519250025041,2.0,1.0,phase_1,,,,,,,,,,,,,green,square
419.0,8.0,4.0,1.0,1.0,1.0,383.3911339752376,2.0,1.0,phase_1,,,,,,,,,,,,,white,hexagon
404.0,4.0,4.0,0.0,1.0,1.0,411.9932979810983,2.0,1.0,phase_1,,,,,,,,,,,,,blue,I
0.0,7.0,0.0,1.0,1.0,1.0,325.5292780231684,2.0,1.0,phase_1,,,,,,,,,,,,,yellow,diamond
380.0,4.0,4.0,0.0,3.0,3.0,459.1716050053946,2.0,1.0,phase_1,,,,,,,,,,,,,blue,I
89.0,2.0,1.0,0.0,2.0,2.0,440.5365569982677,2.0,1.0,phase_1,,,,,,,,,,,,,green,square
121.0,6.0,1.0,1.0,4.0,4.0,403.4969109925441,2.0,1.0,phase_1,,,,,,,,,,,,,gray,cross
413.0,4.0,4.0,0.0,1.0,1.0,402.1111019537784,2.0,1.0,phase_1,,,,,,,,,,,,,blue,I
91.0,2.0,1.0,0.0,2.0,2.0,358.2138550118543,2.0,1.0,phase_1,,,,,,,,,,,,,green,square
32.0,5.0,0.5,1.0,1.0,1.0,387.2480880236253,2.0,1.0,phase_1,,,,,,,,,,,,,orange,circle
197.0,3.0,2.0,0.0,4.0,4.0,369.8699800297618,2.0,1.0,phase_1,,,,,,,,,,,,,magenta,flipped triangle
202.0,3.0,2.0,0.0,2.0,2.0,371.8538639950566,2.0,1.0,phase_1,,,,,,,,,,,,,magenta,flipped triangle
97.0,6.0,1.0,1.0,1.0,1.0,382.8658369602635,2.0,1.0,phase_1,,,,,,,,,,,,,gray,cross
0.0,5.0,0.0,1.0,1.0,1.0,436.1712710233405,2.0,1.0,phase_1,,,,,,,,,,,,,orange,circle
418.0,4.0,4.0,0.0,2.0,2.0,386.8159190169535,2.0,1.0,phase_1,,,,,,,,,,,,,blue,I
0.0,6.0,0.0,1.0,2.0,2.0,422.8983990033157,2.0,1.0,phase_1,,,,,,,,,,,,,gray,cross
32.0,1.0,0.5,0.0,1.0,1.0,316.635287948884,2.0,1.0,phase_1,,,,,,,,,,,,,cyan,triangle
36.0,1.0,0.5,0.0,2.0,2.0,313.276546949055,2.0,1.0,phase_1,,,,,,,,,,,,,cyan,triangle
120.0,6.0,1.0,1.0,3.0,3.0,381.5623819828033,2.0,1.0,phase_1,,,,,,,,,,,,,gray,cross
55.0,1.0,0.5,0.0,1.0,1.0,371.7001240001991,2.0,1.0,phase_1,,,,,,,,,,,,,cyan,triangle
0.0,4.0,0.0,0.0,1.0,1.0,285.0092009757645,2.0,1.0,phase_1,,,,,,,,,,,,,blue,I
88.0,6.0,1.0,1.0,1.0,1.0,402.0181599771604,2.0,1.0,phase_1,,,,,,,,,,,,,gray,cross
0.0,3.0,0.0,0.0,4.0,4.0,410.757846024353,2.0,2.0,phase_1,,,,,,,,,,,,,magenta,flipped triangle
39.0,1.0,0.5,0.0,1.0,1.0,430.9768009698018,2.0,1.0,phase_1,,,,,,,,,,,,,cyan,triangle
79.0,6.0,1.0,1.0,2.0,2.0,357.6606120332144,2.0,1.0,phase_1,,,,,,,,,,,,,gray,cross
177.0,3.0,2.0,0.0,1.0,1.0,376.4832579763606,2.0,1.0,phase_1,,,,,,,,,,,,,magenta,flipped triangle
408.0,4.0,4.0,0.0,1.0,1.0,374.4481800240464,2.0,1.0,phase_1,,,,,,,,,,,,,blue,I
382.0,4.0,4.0,0.0,3.0,3.0,435.7223479892127,2.0,1.0,phase_1,,,,,,,,,,,,,blue,I
225.0,7.0,2.0,1.0,3.0,3.0,472.0190159860067,2.0,1.0,phase_1,,,,,,,,,,,,,yellow,diamond
405.0,8.0,4.0,1.0,3.0,3.0,365.7480760011822,2.0,1.0,phase_1,,,,,,,,,,,,,white,hexagon
214.0,3.0,2.0,0.0,4.0,4.0,504.4014999875799,2.0,1.0,phase_1,,,,,,,,,,,,,magenta,flipped triangle
224.0,3.0,2.0,0.0,2.0,2.0,343.529595003929,2.0,1.0,phase_1,,,,,,,,,,,,,magenta,flipped triangle
402.0,4.0,4.0,0.0,4.0,4.0,450.1595280016772,2.0,1.0,phase_1,,,,,,,,,,,,,blue,I
182.0,7.0,2.0,1.0,2.0,2.0,446.92817598115647,2.0,1.0,phase_1,,,,,,,,,,,,,yellow,diamond
195.0,7.0,2.0,1.0,4.0,4.0,397.8798010502942,2.0,1.0,phase_1,,,,,,,,,,,,,yellow,diamond
68.0,5.0,0.5,1.0,1.0,1.0,386.1856879666447,2.0,1.0,phase_1,,,,,,,,,,,,,orange,circle
419.0,8.0,4.0,1.0,2.0,2.0,300.8756950148381,2.0,1.0,phase_1,,,,,,,,,,,,,white,hexagon
396.0,4.0,4.0,0.0,2.0,2.0,393.8550049788318,2.0,1.0,phase_1,,,,,,,,,,,,,blue,I
404.0,8.0,4.0,1.0,2.0,2.0,357.4309439864009,2.0,1.0,phase_1,,,,,,,,,,,,,white,hexagon
387.0,4.0,4.0,0.0,4.0,4.0,467.9454970173538,2.0,1.0,phase_1,,,,,,,,,,,,,blue,I
122.0,6.0,1.0,1.0,4.0,4.0,456.553105963394,2.0,1.0,phase_1,,,,,,,,,,,,,gray,cross
188.0,3.0,2.0,0.0,3.0,3.0,463.3328419877216,3.0,1.0,phase_1,,,,,,,,,,,,,magenta,flipped triangle
91.0,6.0,1.0,1.0,1.0,1.0,688.1638749619015,3.0,1.0,phase_1,,,,,,,,,,,,,gray,cross
92.0,2.0,1.0,0.0,4.0,4.0,352.5072479969822,3.0,1.0,phase_1,,,,,,,,,,,,,green,square
0.0,1.0,0.0,0.0,2.0,2.0,317.4542420310899,3.0,1.0,phase_1,,,,,,,,,,,,,cyan,triangle
47.0,5.0,0.5,1.0,3.0,3.0,328.8329939823597,3.0,2.0,phase_1,,,,,,,,,,,,,orange,circle
188.0,3.0,2.0,0.0,2.0,2.0,318.2308769901283,3.0,1.0,phase_1,,,,,,,,,,,,,magenta,flipped triangle
0.0,5.0,0.0,1.0,1.0,1.0,370.3503659926355,3.0,1.0,phase_1,,,,,,,,,,,,,orange,circle
201.0,3.0,2.0,0.0,1.0,1.0,461.7089950479567,3.0,1.0,phase_1,,,,,,,,,,,,,magenta,flipped triangle
212.0,3.0,2.0,0.0,1.0,1.0,466.6669379803352,3.0,1.0,phase_1,,,,,,,,,,,,,magenta,flipped triangle
401.0,4.0,4.0,0.0,2.0,2.0,407.6947220019065,3.0,1.0,phase_1,,,,,,,,,,,,,blue,I
0.0,6.0,0.0,1.0,4.0,4.0,395.4955390072427,3.0,1.0,phase_1,,,,,,,,,,,,,gray,cross
99.0,2.0,1.0,0.0,2.0,2.0,304.8811560147442,3.0,1.0,phase_1,,,,,,,,,,,,,green,square
420.0,8.0,4.0,1.0,3.0,3.0,399.4191010133363,3.0,1.0,phase_1,,,,,,,,,,,,,white,hexagon
0.0,5.0,0.0,1.0,1.0,1.0,512.7707120263949,3.0,1.0,phase_1,,,,,,,,,,,,,orange,circle
400.0,8.0,4.0,1.0,2.0,2.0,320.5653519835323,3.0,1.0,phase_1,,,,,,,,,,,,,white,hexagon
425.0,8.0,4.0,1.0,1.0,1.0,404.6177049749531,3.0,1.0,phase_1,,,,,,,,,,,,,white,hexagon
94.0,6.0,1.0,1.0,4.0,4.0,319.1763099748641,3.0,1.0,phase_1,,,,,,,,,,,,,gray,cross
115.0,2.0,1.0,0.0,3.0,3.0,309.7295889747329,3.0,1.0,phase_1,,,,,,,,,,,,,green,square
400.0,4.0,4.0,0.0,4.0,4.0,331.804990011733,3.0,1.0,phase_1,,,,,,,,,,,,,blue,I
197.0,7.0,2.0,1.0,4.0,4.0,457.2110709850676,3.0,1.0,phase_1,,,,,,,,,,,,,yellow,diamond
33.0,1.0,0.5,0.0,3.0,3.0,371.7151390155777,3.0,1.0,phase_1,,,,,,,,,,,,,cyan,triangle
78.0,6.0,1.0,1.0,2.0,2.0,457.3119899723679,3.0,1.0,phase_1,,,,,,,,,,,,,gray,cross
0.0,2.0,0.0,0.0,1.0,1.0,333.1037050229497,3.0,1.0,phase_1,,,,,,,,,,,,,green,square
83.0,6.0,1.0,1.0,4.0,4.0,339.914430049248,3.0,1.0,phase_1,,,,,,,,,,,,,gray,cross
71.0,5.0,0.5,1.0,3.0,3.0,341.7466680402867,3.0,1.0,phase_1,,,,,,,,,,,,,orange,circle
26.0,5.0,0.5,1.0,2.0,2.0,345.9282430121675,3.0,1.0,phase_1,,,,,,,,,,,,,orange,circle
192.0,7.0,2.0,1.0,1.0,1.0,326.1593400384299,3.0,1.0,phase_1,,,,,,,,,,,,,yellow,diamond
218.0,3.0,2.0,0.0,3.0,3.0,466.5993860107846,3.0,1.0,phase_1,,,,,,,,,,,,,magenta,flipped triangle
103.0,6.0,1.0,1.0,2.0,2.0,402.4244709871709,3.0,1.0,phase_1,,,,,,,,,,,,,gray,cross
201.0,7.0,2.0,1.0,1.0,1.0,499.7933880076743,3.0,1.0,phase_1,,,,,,,,,,,,,yellow,diamond
110.0,2.0,1.0,0.0,4.0,4.0,338.726237998344,3.0,1.0,phase_1,,,,,,,,,,,,,green,square
69.0,5.0,0.5,1.0,1.0,1.0,431.0169789823703,3.0,1.0,phase_1,,,,,,,,,,,,,orange,circle
0.0,4.0,0.0,0.0,4.0,4.0,326.1372569832019,3.0,1.0,phase_1,,,,,,,,,,,,,blue,I
0.0,8.0,0.0,1.0,1.0,1.0,369.9467730475589,3.0,1.0,phase_1,,,,,,,,,,,,,white,hexagon
0.0,8.0,0.0,1.0,1.0,1.0,438.5912480065599,3.0,1.0,phase_1,,,,,,,,,,,,,white,hexagon
61.0,5.0,0.5,1.0,2.0,2.0,305.0871749874204,3.0,1.0,phase_1,,,,,,,,,,,,,orange,circle
199.0,7.0,2.0,1.0,4.0,4.0,375.4875509766862,3.0,1.0,phase_1,,,,,,,,,,,,,yellow,diamond
405.0,8.0,4.0,1.0,3.0,3.0,370.7291129976511,3.0,1.0,phase_1,,,,,,,,,,,,,white,hexagon
376.0,4.0,4.0,0.0,4.0,4.0,326.5235029975883,3.0,1.0,phase_1,,,,,,,,,,,,,blue,I
119.0,6.0,1.0,1.0,4.0,4.0,334.7514789784327,3.0,1.0,phase_1,,,,,,,,,,,,,gray,cross
74.0,5.0,0.5,1.0,1.0,1.0,407.4431729968637,3.0,1.0,phase_1,,,,,,,,,,,,,orange,circle
187.0,3.0,2.0,0.0,3.0,3.0,524.1000410169363,3.0,1.0,phase_1,,,,,,,,,,,,,magenta,flipped triangle
51.0,1.0,0.5,0.0,4.0,4.0,324.8074210132472,3.0,1.0,phase_1,,,,,,,,,,,,,cyan,triangle
0.0,3.0,0.0,0.0,4.0,4.0,313.6118950205855,3.0,1.0,phase_1,,,,,,,,,,,,,magenta,flipped triangle
26.0,1.0,0.5,0.0,3.0,3.0,418.5783389839344,3.0,1.0,phase_1,,,,,,,,,,,,,cyan,triangle
50.0,5.0,0.5,1.0,4.0,4.0,295.8942389814183,3.0,1.0,phase_1,,,,,,,,,,,,,orange,circle
71.0,5.0,0.5,1.0,4.0,4.0,284.4092830200679,3.0,1.0,phase_1,,,,,,,,,,,,,orange,circle
33.0,5.0,0.5,1.0,2.0,2.0,491.8394139967859,3.0,1.0,phase_1,,,,,,,,,,,,,orange,circle
101.0,6.0,1.0,1.0,1.0,1.0,316.9854820007458,3.0,1.0,phase_1,,,,,,,,,,,,,gray,cross
38.0,5.0,0.5,1.0,1.0,1.0,414.6005879738368,3.0,2.0,phase_1,,,,,,,,,,,,,orange,circle
420.0,4.0,4.0,0.0,2.0,2.0,446.2994360364973,3.0,1.0,phase_1,,,,,,,,,,,,,blue,I
86.0,2.0,1.0,0.0,1.0,1.0,370.6566400360316,3.0,1.0,phase_1,,,,,,,,,,,,,green,square
26.0,5.0,0.5,1.0,2.0,2.0,389.2262339941226,3.0,1.0,phase_1,,,,,,,,,,,,,orange,circle
97.0,2.0,1.0,0.0,2.0,2.0,341.0926519427448,3.0,1.0,phase_1,,,,,,,,,,,,,green,square
417.0,8.0,4.0,1.0,3.0,3.0,536.3871270092204,3.0,1.0,phase_1,,,,,,,,,,,,,white,hexagon
395.0,4.0,4.0,0.0,3.0,3.0,420.3295040060766,3.0,1.0,phase_1,,,,,,,,,,,,,blue,I
28.0,1.0,0.5,0.0,2.0,2.0,471.7451549950056,3.0,1.0,phase_1,,,,,,,,,,,,,cyan,triangle
216.0,3.0,2.0,0.0,4.0,4.0,479.5828130445443,3.0,1.0,phase_1,,,,,,,,,,,,,magenta,flipped triangle
0.0,8.0,0.0,1.0,1.0,1.0,492.1339399879798,3.0,1.0,phase_1,,,,,,,,,,,,,white,hexagon
0.0,7.0,0.0,1.0,2.0,2.0,365.465699986089,3.0,1.0,phase_1,,,,,,,,,,,,,yellow,diamond
89.0,6.0,1.0,1.0,3.0,3.0,323.9531660219654,3.0,1.0,phase_1,,,,,,,,,,,,,gray,cross
124.0,6.0,1.0,1.0,4.0,4.0,378.5283250035718,3.0,1.0,phase_1,,,,,,,,,,,,,gray,cross
208.0,7.0,2.0,1.0,2.0,2.0,437.7918029786087,3.0,1.0,phase_1,,,,,,,,,,,,,yellow,diamond
93.0,6.0,1.0,1.0,3.0,3.0,370.5275620450265,3.0,1.0,phase_1,,,,,,,,,,,,,gray,cross
413.0,8.0,4.0,1.0,1.0,1.0,454.6881080023013,3.0,1.0,phase_1,,,,,,,,,,,,,white,hexagon
0.0,3.0,0.0,0.0,2.0,2.0,387.7791470149532,3.0,1.0,phase_1,,,,,,,,,,,,,magenta,flipped triangle
39.0,5.0,0.5,1.0,4.0,4.0,318.0974589777179,3.0,1.0,phase_1,,,,,,,,,,,,,orange,circle
214.0,3.0,2.0,0.0,1.0,1.0,349.8169000376947,3.0,1.0,phase_1,,,,,,,,,,,,,magenta,flipped triangle
398.0,8.0,4.0,1.0,4.0,4.0,490.5229089781642,3.0,1.0,phase_1,,,,,,,,,,,,,white,hexagon
94.0,2.0,1.0,0.0,4.0,4.0,431.2355939764529,3.0,1.0,phase_1,,,,,,,,,,,,,green,square
394.0,8.0,4.0,1.0,2.0,2.0,474.991797003895,3.0,1.0,phase_1,,,,,,,,,,,,,white,hexagon
124.0,2.0,1.0,0.0,2.0,2.0,412.0132940006442,3.0,2.0,phase_1,,,,,,,,,,,,,green,square
0.0,2.0,0.0,0.0,3.0,3.0,337.5731499982066,3.0,1.0,phase_1,,,,,,,,,,,,,green,square
177.0,7.0,2.0,1.0,3.0,3.0,372.284330020193,3.0,1.0,phase_1,,,,,,,,,,,,,yellow,diamond
197.0,7.0,2.0,1.0,1.0,1.0,345.4757940489799,3.0,1.0,phase_1,,,,,,,,,,,,,yellow,diamond
0.0,3.0,0.0,0.0,4.0,4.0,406.9690019823611,3.0,1.0,phase_1,,,,,,,,,,,,,magenta,flipped triangle
192.0,3.0,2.0,0.0,3.0,3.0,714.548815973103,3.0,1.0,phase_1,,,,,,,,,,,,,magenta,flipped triangle
108.0,2.0,1.0,0.0,3.0,3.0,418.4846449643373,3.0,1.0,phase_1,,,,,,,,,,,,,green,square
177.0,7.0,2.0,1.0,3.0,3.0,467.2429810161702,3.0,1.0,phase_1,,,,,,,,,,,,,yellow,diamond
37.0,5.0,0.5,1.0,3.0,3.0,505.13051002053544,3.0,1.0,phase_1,,,,,,,,,,,,,orange,circle
121.0,2.0,1.0,0.0,3.0,3.0,404.5321730081923,3.0,1.0,phase_1,,,,,,,,,,,,,green,square
177.0,3.0,2.0,0.0,1.0,1.0,749.0298280026764,3.0,1.0,phase_1,,,,,,,,,,,,,magenta,flipped triangle
0.0,6.0,0.0,1.0,3.0,3.0,454.5580259873532,3.0,1.0,phase_1,,,,,,,,,,,,,gray,cross
73.0,1.0,0.5,0.0,4.0,4.0,395.4022080288268,3.0,1.0,phase_1,,,,,,,,,,,,,cyan,triangle
387.0,4.0,4.0,0.0,4.0,4.0,472.0790690043941,3.0,1.0,phase_1,,,,,,,,,,,,,blue,I
28.0,1.0,0.5,0.0,3.0,3.0,567.8507540142164,3.0,1.0,phase_1,,,,,,,,,,,,,cyan,triangle
0.0,6.0,0.0,1.0,3.0,3.0,466.8021849938668,3.0,1.0,phase_1,,,,,,,,,,,,,gray,cross
62.0,5.0,0.5,1.0,2.0,2.0,456.8104139761999,3.0,1.0,phase_1,,,,,,,,,,,,,orange,circle
211.0,3.0,2.0,0.0,1.0,1.0,571.2232140358537,3.0,1.0,phase_1,,,,,,,,,,,,,magenta,flipped triangle
0.0,6.0,0.0,1.0,2.0,2.0,406.6876639844849,3.0,1.0,phase_1,,,,,,,,,,,,,gray,cross
115.0,6.0,1.0,1.0,4.0,4.0,462.4089339631609,3.0,1.0,phase_1,,,,,,,,,,,,,gray,cross
0.0,6.0,0.0,1.0,2.0,2.0,354.7987659694627,3.0,1.0,phase_1,,,,,,,,,,,,,gray,cross
87.0,2.0,1.0,0.0,3.0,3.0,464.8506820085458,3.0,1.0,phase_1,,,,,,,,,,,,,green,square
122.0,2.0,1.0,0.0,3.0,3.0,300.9568689740263,3.0,1.0,phase_1,,,,,,,,,,,,,green,square
88.0,6.0,1.0,1.0,3.0,3.0,381.9036660133861,3.0,1.0,phase_1,,,,,,,,,,,,,gray,cross
197.0,3.0,2.0,0.0,2.0,2.0,366.2145489943214,3.0,1.0,phase_1,,,,,,,,,,,,,magenta,flipped triangle
218.0,7.0,2.0,1.0,4.0,4.0,419.2677759565413,3.0,1.0,phase_1,,,,,,,,,,,,,yellow,diamond
0.0,5.0,0.0,1.0,4.0,4.0,436.3324879668653,3.0,1.0,phase_1,,,,,,,,,,,,,orange,circle
83.0,2.0,1.0,0.0,1.0,1.0,468.3316379669122,3.0,1.0,phase_1,,,,,,,,,,,,,green,square
415.0,4.0,4.0,0.0,2.0,2.0,462.1096109622158,3.0,1.0,phase_1,,,,,,,,,,,,,blue,I
101.0,2.0,1.0,0.0,2.0,2.0,355.3326010005548,4.0,1.0,phase_1,,,,,,,,,,,,,green,square
111.0,2.0,1.0,0.0,3.0,3.0,345.559535024222,4.0,1.0,phase_1,,,,,,,,,,,,,green,square
116.0,6.0,1.0,1.0,2.0,2.0,358.6057890206575,4.0,1.0,phase_1,,,,,,,,,,,,,gray,cross
30.0,1.0,0.5,0.0,2.0,2.0,337.0530529646203,4.0,1.0,phase_1,,,,,,,,,,,,,cyan,triangle
404.0,4.0,4.0,0.0,1.0,1.0,414.9511699797585,4.0,1.0,phase_1,,,,,,,,,,,,,blue,I
197.0,7.0,2.0,1.0,4.0,4.0,427.2780000464991,4.0,1.0,phase_1,,,,,,,,,,,,,yellow,diamond
396.0,8.0,4.0,1.0,2.0,2.0,352.8406400000676,4.0,1.0,phase_1,,,,,,,,,,,,,white,hexagon
61.0,1.0,0.5,0.0,4.0,4.0,300.7768190000206,4.0,1.0,phase_1,,,,,,,,,,,,,cyan,triangle
0.0,7.0,0.0,1.0,4.0,4.0,337.0724570122547,4.0,1.0,phase_1,,,,,,,,,,,,,yellow,diamond
409.0,8.0,4.0,1.0,1.0,1.0,559.4064950128086,4.0,1.0,phase_1,,,,,,,,,,,,,white,hexagon
199.0,3.0,2.0,0.0,3.0,3.0,429.8501099692657,4.0,1.0,phase_1,,,,,,,,,,,,,magenta,flipped triangle
0.0,2.0,0.0,0.0,4.0,4.0,407.2988310363143,4.0,1.0,phase_1,,,,,,,,,,,,,green,square
180.0,7.0,2.0,1.0,3.0,3.0,365.1038039824925,4.0,1.0,phase_1,,,,,,,,,,,,,yellow,diamond
412.0,8.0,4.0,1.0,4.0,4.0,403.0788079835474,4.0,1.0,phase_1,,,,,,,,,,,,,white,hexagon
412.0,4.0,4.0,0.0,3.0,3.0,365.5562530038878,4.0,1.0,phase_1,,,,,,,,,,,,,blue,I
41.0,5.0,0.5,1.0,3.0,3.0,573.035200999584,4.0,1.0,phase_1,,,,,,,,,,,,,orange,circle
391.0,8.0,4.0,1.0,1.0,1.0,553.0353059875779,4.0,1.0,phase_1,,,,,,,,,,,,,white,hexagon
382.0,4.0,4.0,0.0,3.0,3.0,499.4392429944128,4.0,1.0,phase_1,,,,,,,,,,,,,blue,I
54.0,5.0,0.5,1.0,3.0,3.0,354.5622249948792,4.0,1.0,phase_1,,,,,,,,,,,,,orange,circle
0.0,6.0,0.0,1.0,4.0,4.0,454.81594401644537,4.0,1.0,phase_1,,,,,,,,,,,,,gray,cross
419.0,4.0,4.0,0.0,1.0,1.0,568.9026219770312,4.0,1.0,phase_1,,,,,,,,,,,,,blue,I
177.0,7.0,2.0,1.0,4.0,4.0,334.3371439841576,4.0,1.0,phase_1,,,,,,,,,,,,,yellow,diamond
415.0,8.0,4.0,1.0,3.0,3.0,468.5683529824018,4.0,1.0,phase_1,,,,,,,,,,,,,white,hexagon
101.0,2.0,1.0,0.0,3.0,3.0,378.6719019990414,4.0,1.0,phase_1,,,,,,,,,,,,,green,square
391.0,4.0,4.0,0.0,1.0,1.0,444.1863969550468,4.0,1.0,phase_1,,,,,,,,,,,,,blue,I
0.0,2.0,0.0,0.0,4.0,4.0,312.4765590182505,4.0,1.0,phase_1,,,,,,,,,,,,,green,square
87.0,6.0,1.0,1.0,1.0,1.0,421.7410209821537,4.0,1.0,phase_1,,,,,,,,,,,,,gray,cross
177.0,3.0,2.0,0.0,4.0,4.0,332.6844350085594,4.0,1.0,phase_1,,,,,,,,,,,,,magenta,flipped triangle
107.0,2.0,1.0,0.0,4.0,4.0,286.4113220130093,4.0,1.0,phase_1,,,,,,,,,,,,,green,square
33.0,1.0,0.5,0.0,2.0,2.0,437.9889689735137,4.0,1.0,phase_1,,,,,,,,,,,,,cyan,triangle
395.0,8.0,4.0,1.0,3.0,3.0,855.6469369796105,4.0,1.0,phase_1,,,,,,,,,,,,,white,hexagon
27.0,1.0,0.5,0.0,3.0,3.0,396.645562024787,4.0,1.0,phase_1,,,,,,,,,,,,,cyan,triangle
92.0,6.0,1.0,1.0,1.0,1.0,352.8109280159697,4.0,1.0,phase_1,,,,,,,,,,,,,gray,cross
197.0,3.0,2.0,0.0,4.0,4.0,369.9441100470721,4.0,1.0,phase_1,,,,,,,,,,,,,magenta,flipped triangle
0.0,3.0,0.0,0.0,1.0,1.0,508.00889905076474,4.0,1.0,phase_1,,,,,,,,,,,,,magenta,flipped triangle
50.0,1.0,0.5,0.0,3.0,3.0,505.95822400646284,4.0,1.0,phase_1,,,,,,,,,,,,,cyan,triangle
67.0,1.0,0.5,0.0,3.0,3.0,339.7821360267699,4.0,1.0,phase_1,,,,,,,,,,,,,cyan,triangle
0.0,6.0,0.0,1.0,1.0,1.0,368.9181869849562,4.0,1.0,phase_1,,,,,,,,,,,,,gray,cross
125.0,2.0,1.0,0.0,1.0,1.0,381.2409259844571,4.0,1.0,phase_1,,,,,,,,,,,,,green,square
0.0,7.0,0.0,1.0,3.0,3.0,465.8834139700047,4.0,1.0,phase_1,,,,,,,,,,,,,yellow,diamond
46.0,1.0,0.5,0.0,4.0,4.0,418.8246589619666,4.0,1.0,phase_1,,,,,,,,,,,,,cyan,triangle
0.0,1.0,0.0,0.0,3.0,3.0,404.6818400383927,4.0,1.0,phase_1,,,,,,,,,,,,,cyan,triangle
111.0,6.0,1.0,1.0,3.0,3.0,336.6956689860672,4.0,1.0,phase_1,,,,,,,,,,,,,gray,cross
77.0,6.0,1.0,1.0,1.0,1.0,423.6207550275139,4.0,1.0,phase_1,,,,,,,,,,,,,gray,cross
47.0,1.0,0.5,0.0,2.0,2.0,407.1413630153984,4.0,2.0,phase_1,,,,,,,,,,,,,cyan,triangle
195.0,3.0,2.0,0.0,2.0,2.0,411.7136929999105,4.0,1.0,phase_1,,,,,,,,,,,,,magenta,flipped triangle
208.0,3.0,2.0,0.0,4.0,4.0,480.9738420299254,4.0,1.0,phase_1,,,,,,,,,,,,,magenta,flipped triangle
48.0,1.0,0.5,0.0,4.0,4.0,516.8416029773653,4.0,1.0,phase_1,,,,,,,,,,,,,cyan,triangle
212.0,7.0,2.0,1.0,3.0,3.0,707.2860940243118,4.0,1.0,phase_1,,,,,,,,,,,,,yellow,diamond
36.0,5.0,0.5,1.0,1.0,1.0,373.8773569930345,4.0,1.0,phase_1,,,,,,,,,,,,,orange,circle
218.0,7.0,2.0,1.0,1.0,1.0,500.52567396778613,4.0,1.0,phase_1,,,,,,,,,,,,,yellow,diamond
86.0,6.0,1.0,1.0,4.0,4.0,497.3911119741387,4.0,1.0,phase_1,,,,,,,,,,,,,gray,cross
108.0,6.0,1.0,1.0,1.0,1.0,415.5853909906,4.0,1.0,phase_1,,,,,,,,,,,,,gray,cross
107.0,6.0,1.0,1.0,4.0,4.0,383.9281360269524,4.0,1.0,phase_1,,,,,,,,,,,,,gray,cross
376.0,8.0,4.0,1.0,4.0,4.0,478.7932690232992,4.0,1.0,phase_1,,,,,,,,,,,,,white,hexagon
377.0,8.0,4.0,1.0,4.0,4.0,332.7595180016942,4.0,1.0,phase_1,,,,,,,,,,,,,white,hexagon
0.0,4.0,0.0,0.0,1.0,1.0,849.8536520055495,4.0,1.0,phase_1,,,,,,,,,,,,,blue,I
0.0,6.0,0.0,1.0,2.0,2.0,477.3491420201026,4.0,1.0,phase_1,,,,,,,,,,,,,gray,cross
187.0,7.0,2.0,1.0,1.0,1.0,407.3663940071128,4.0,1.0,phase_1,,,,,,,,,,,,,yellow,diamond
382.0,8.0,4.0,1.0,4.0,4.0,436.2201070180163,4.0,1.0,phase_1,,,,,,,,,,,,,white,hexagon
425.0,4.0,4.0,0.0,3.0,3.0,476.8145279958844,4.0,1.0,phase_1,,,,,,,,,,,,,blue,I
202.0,7.0,2.0,1.0,4.0,4.0,496.5664909686893,4.0,1.0,phase_1,,,,,,,,,,,,,yellow,diamond
0.0,7.0,0.0,1.0,2.0,2.0,538.6064060148783,4.0,1.0,phase_1,,,,,,,,,,,,,yellow,diamond
182.0,3.0,2.0,0.0,1.0,1.0,431.6348559805192,4.0,1.0,phase_1,,,,,,,,,,,,,magenta,flipped triangle
66.0,1.0,0.5,0.0,2.0,2.0,383.0534890294075,4.0,1.0,phase_1,,,,,,,,,,,,,cyan,triangle
66.0,5.0,0.5,1.0,2.0,2.0,489.4362079794518,4.0,1.0,phase_1,,,,,,,,,,,,,orange,circle
387.0,4.0,4.0,0.0,3.0,3.0,582.8156070201658,4.0,1.0,phase_1,,,,,,,,,,,,,blue,I
101.0,6.0,1.0,1.0,3.0,3.0,454.1369510116055,4.0,1.0,phase_1,,,,,,,,,,,,,gray,cross
54.0,1.0,0.5,0.0,1.0,1.0,711.2550239544362,4.0,1.0,phase_1,,,,,,,,,,,,,cyan,triangle
58.0,1.0,0.5,0.0,1.0,1.0,638.023374020122,4.0,1.0,phase_1,,,,,,,,,,,,,cyan,triangle
0.0,1.0,0.0,0.0,4.0,4.0,409.8290690453723,4.0,1.0,phase_1,,,,,,,,,,,,,cyan,triangle
87.0,2.0,1.0,0.0,1.0,1.0,436.4344439818524,4.0,1.0,phase_1,,,,,,,,,,,,,green,square
0.0,4.0,0.0,0.0,1.0,1.0,419.110037968494,4.0,1.0,phase_1,,,,,,,,,,,,,blue,I
0.0,4.0,0.0,0.0,4.0,4.0,495.4494689591229,4.0,1.0,phase_1,,,,,,,,,,,,,blue,I
200.0,3.0,2.0,0.0,2.0,2.0,436.5614209673367,4.0,1.0,phase_1,,,,,,,,,,,,,magenta,flipped triangle
0.0,3.0,0.0,0.0,2.0,2.0,434.0889000450261,4.0,1.0,phase_1,,,,,,,,,,,,,magenta,flipped triangle
0.0,1.0,0.0,0.0,1.0,1.0,727.2016509668902,4.0,1.0,phase_1,,,,,,,,,,,,,cyan,triangle
419.0,4.0,4.0,0.0,2.0,2.0,395.9746959735639,4.0,1.0,phase_1,,,,,,,,,,,,,blue,I
83.0,2.0,1.0,0.0,1.0,1.0,496.5695719583891,4.0,1.0,phase_1,,,,,,,,,,,,,green,square
0.0,2.0,0.0,0.0,1.0,1.0,534.034474985674,4.0,1.0,phase_1,,,,,,,,,,,,,green,square
0.0,4.0,0.0,0.0,4.0,4.0,393.5505209956318,4.0,1.0,phase_1,,,,,,,,,,,,,blue,I
0.0,8.0,0.0,1.0,2.0,2.0,349.897856998723,4.0,1.0,phase_1,,,,,,,,,,,,,white,hexagon
0.0,3.0,0.0,0.0,1.0,1.0,411.0490780440159,4.0,1.0,phase_1,,,,,,,,,,,,,magenta,flipped triangle
223.0,7.0,2.0,1.0,1.0,1.0,350.9841740014963,4.0,1.0,phase_1,,,,,,,,,,,,,yellow,diamond
0.0,4.0,0.0,0.0,1.0,1.0,428.5942419664934,4.0,1.0,phase_1,,,,,,,,,,,,,blue,I
401.0,8.0,4.0,1.0,2.0,2.0,497.7737869485281,4.0,1.0,phase_1,,,,,,,,,,,,,white,hexagon
188.0,7.0,2.0,1.0,2.0,2.0,349.9557619797997,4.0,1.0,phase_1,,,,,,,,,,,,,yellow,diamond
55.0,5.0,0.5,1.0,4.0,4.0,427.6610829983838,4.0,1.0,phase_1,,,,,,,,,,,,,orange,circle
377.0,4.0,4.0,0.0,4.0,4.0,525.0415209447965,4.0,1.0,phase_1,,,,,,,,,,,,,blue,I
103.0,2.0,1.0,0.0,2.0,2.0,481.108715001028,4.0,1.0,phase_1,,,,,,,,,,,,,green,square
197.0,7.0,2.0,1.0,3.0,3.0,600.5853720125742,4.0,1.0,phase_1,,,,,,,,,,,,,yellow,diamond
208.0,7.0,2.0,1.0,4.0,4.0,452.4442260153591,4.0,1.0,phase_1,,,,,,,,,,,,,yellow,diamond
223.0,3.0,2.0,0.0,3.0,3.0,467.6231420016847,4.0,1.0,phase_1,,,,,,,,,,,,,magenta,flipped triangle
0.0,7.0,0.0,1.0,1.0,1.0,467.866746999789,4.0,1.0,phase_1,,,,,,,,,,,,,yellow,diamond
218.0,3.0,2.0,0.0,3.0,3.0,643.9078279654495,4.0,1.0,phase_1,,,,,,,,,,,,,magenta,flipped triangle
223.0,3.0,2.0,0.0,2.0,2.0,333.1154200132005,4.0,1.0,phase_1,,,,,,,,,,,,,magenta,flipped triangle
224.0,7.0,2.0,1.0,2.0,2.0,380.1787959528155,4.0,1.0,phase_1,,,,,,,,,,,,,yellow,diamond
0.0,3.0,0.0,0.0,4.0,4.0,329.423566989135,4.0,1.0,phase_1,,,,,,,,,,,,,magenta,flipped triangle
0.0,1.0,0.0,0.0,1.0,1.0,603.210294037126,4.0,1.0,phase_1,,,,,,,,,,,,,cyan,triangle
404.0,8.0,4.0,1.0,4.0,4.0,552.9713779687881,4.0,1.0,phase_1,,,,,,,,,,,,,white,hexagon
0.0,7.0,2.0,1.0,6.0,6.0,1200.3396279760636,1.0,1.0,phase_2,go,250.0,250.0,1.0,,,,,,,,,yellow,diamond
0.0,5.0,0.5,1.0,5.0,0.0,0.0,1.0,1.0,phase_2,stop,250.0,250.0,4.0,,,,,,,,,orange,circle
0.0,1.0,0.5,0.0,6.0,6.0,294.1797969979234,1.0,1.0,phase_2,go,300.0,250.0,1.0,,,,,,,,,cyan,triangle
0.0,6.0,1.0,1.0,6.0,6.0,322.3685760167427,1.0,1.0,phase_2,stop,300.0,250.0,3.0,,,,,,,,,gray,cross
0.0,7.0,2.0,1.0,6.0,6.0,290.6114470097236,1.0,1.0,phase_2,stop,300.0,200.0,3.0,,,,,,,,,yellow,diamond
0.0,6.0,1.0,1.0,6.0,6.0,549.5909760356881,1.0,1.0,phase_2,go,300.0,150.0,1.0,,,,,,,,,gray,cross
0.0,2.0,1.0,0.0,5.0,5.0,306.1768069746904,1.0,1.0,phase_2,go,300.0,150.0,1.0,,,,,,,,,green,square
0.0,2.0,1.0,0.0,5.0,5.0,401.381715957541,1.0,1.0,phase_2,go,300.0,150.0,1.0,,,,,,,,,green,square
0.0,5.0,0.5,1.0,5.0,5.0,362.6877670176327,1.0,1.0,phase_2,stop,300.0,150.0,3.0,,,,,,,,,orange,circle
0.0,2.0,1.0,0.0,6.0,6.0,265.8165770117193,1.0,1.0,phase_2,go,250.0,150.0,1.0,,,,,,,,,green,square
0.0,1.0,0.5,0.0,6.0,6.0,339.2928730463609,1.0,1.0,phase_2,go,250.0,150.0,1.0,,,,,,,,,cyan,triangle
0.0,3.0,2.0,0.0,5.0,5.0,751.3118389761075,1.0,1.0,phase_2,go,250.0,150.0,1.0,,,,,,,,,magenta,flipped triangle
0.0,4.0,4.0,0.0,5.0,5.0,432.9783559660427,1.0,1.0,phase_2,go,250.0,150.0,1.0,,,,,,,,,blue,I
0.0,4.0,4.0,0.0,5.0,5.0,329.1284080478363,1.0,1.0,phase_2,go,250.0,150.0,1.0,,,,,,,,,blue,I
0.0,1.0,0.5,0.0,5.0,5.0,384.7444709972478,1.0,1.0,phase_2,go,250.0,150.0,1.0,,,,,,,,,cyan,triangle
0.0,4.0,4.0,0.0,5.0,5.0,304.0798220317811,1.0,1.0,phase_2,go,250.0,150.0,1.0,,,,,,,,,blue,I
0.0,6.0,1.0,1.0,5.0,5.0,293.5055120033212,1.0,1.0,phase_2,stop,250.0,150.0,3.0,,,,,,,,,gray,cross
0.0,1.0,0.5,0.0,6.0,6.0,405.8192430529743,1.0,1.0,phase_2,go,200.0,150.0,1.0,,,,,,,,,cyan,triangle
0.0,5.0,0.5,1.0,6.0,6.0,372.9045919608325,1.0,1.0,phase_2,go,200.0,150.0,1.0,,,,,,,,,orange,circle
0.0,7.0,2.0,1.0,6.0,6.0,637.3749419581145,1.0,1.0,phase_2,stop,200.0,150.0,3.0,,,,,,,,,yellow,diamond
0.0,8.0,4.0,1.0,6.0,6.0,413.7644299771637,1.0,1.0,phase_2,go,200.0,100.0,1.0,,,,,,,,,white,hexagon
0.0,5.0,0.5,1.0,5.0,0.0,0.0,1.0,1.0,phase_2,stop,200.0,100.0,4.0,,,,,,,,,orange,circle
0.0,3.0,2.0,0.0,5.0,5.0,417.1323520131409,1.0,1.0,phase_2,go,250.0,100.0,1.0,,,,,,,,,magenta,flipped triangle
0.0,6.0,1.0,1.0,6.0,6.0,330.2678380277939,1.0,1.0,phase_2,stop,250.0,100.0,3.0,,,,,,,,,gray,cross
0.0,5.0,0.5,1.0,6.0,0.0,0.0,1.0,1.0,phase_2,stop,250.0,50.0,4.0,,,,,,,,,orange,circle
0.0,2.0,1.0,0.0,6.0,6.0,337.8174909739755,1.0,1.0,phase_2,go,250.0,100.0,1.0,,,,,,,,,green,square
0.0,6.0,1.0,1.0,5.0,0.0,0.0,1.0,1.0,phase_2,stop,250.0,100.0,4.0,,,,,,,,,gray,cross
0.0,5.0,0.5,1.0,6.0,6.0,305.5116799660027,1.0,1.0,phase_2,go,300.0,100.0,1.0,,,,,,,,,orange,circle
0.0,1.0,0.5,0.0,5.0,5.0,374.7234950424172,1.0,1.0,phase_2,go,300.0,100.0,1.0,,,,,,,,,cyan,triangle
0.0,7.0,2.0,1.0,6.0,6.0,388.8653749600053,1.0,1.0,phase_2,stop,300.0,100.0,3.0,,,,,,,,,yellow,diamond
0.0,8.0,4.0,1.0,5.0,5.0,372.2155669820495,1.0,1.0,phase_2,stop,300.0,50.0,3.0,,,,,,,,,white,hexagon
0.0,5.0,0.5,1.0,6.0,0.0,0.0,1.0,1.0,phase_2,stop,250.0,50.0,4.0,,,,,,,,,orange,circle
0.0,4.0,4.0,0.0,5.0,5.0,454.26408003550017,1.0,1.0,phase_2,go,250.0,100.0,1.0,,,,,,,,,blue,I
0.0,2.0,1.0,0.0,5.0,5.0,578.5392650286667,1.0,1.0,phase_2,go,250.0,100.0,1.0,,,,,,,,,green,square
0.0,4.0,4.0,0.0,6.0,6.0,634.151802980341,1.0,1.0,phase_2,go,250.0,100.0,1.0,,,,,,,,,blue,I
0.0,6.0,1.0,1.0,6.0,0.0,0.0,1.0,1.0,phase_2,stop,250.0,100.0,4.0,,,,,,,,,gray,cross
0.0,8.0,4.0,1.0,5.0,0.0,0.0,2.0,1.0,phase_2,stop,250.0,150.0,4.0,,,,,,,,,white,hexagon
0.0,7.0,2.0,1.0,6.0,0.0,0.0,2.0,1.0,phase_2,stop,300.0,150.0,4.0,,,,,,,,,yellow,diamond
0.0,2.0,1.0,0.0,5.0,0.0,0.0,2.0,1.0,phase_2,go,300.0,200.0,5.0,,,,,,,,,green,square
0.0,1.0,0.5,0.0,6.0,6.0,407.8550859703682,2.0,1.0,phase_2,go,300.0,200.0,1.0,,,,,,,,,cyan,triangle
0.0,2.0,1.0,0.0,6.0,6.0,361.0753249959089,2.0,1.0,phase_2,go,300.0,200.0,1.0,,,,,,,,,green,square
0.0,7.0,2.0,1.0,6.0,6.0,350.8220760268159,2.0,1.0,phase_2,go,300.0,200.0,1.0,,,,,,,,,yellow,diamond
0.0,3.0,2.0,0.0,5.0,5.0,311.4620329579338,2.0,1.0,phase_2,go,300.0,200.0,1.0,,,,,,,,,magenta,flipped triangle
0.0,2.0,1.0,0.0,6.0,6.0,372.5080260192044,2.0,1.0,phase_2,go,300.0,200.0,1.0,,,,,,,,,green,square
0.0,1.0,0.5,0.0,5.0,5.0,498.9603470312431,2.0,1.0,phase_2,go,300.0,200.0,1.0,,,,,,,,,cyan,triangle
0.0,7.0,2.0,1.0,6.0,0.0,0.0,2.0,1.0,phase_2,stop,300.0,200.0,4.0,,,,,,,,,yellow,diamond
0.0,3.0,2.0,0.0,6.0,6.0,637.9136170144193,2.0,1.0,phase_2,go,300.0,250.0,1.0,,,,,,,,,magenta,flipped triangle
0.0,3.0,2.0,0.0,6.0,6.0,389.4691210007295,2.0,1.0,phase_2,go,300.0,250.0,1.0,,,,,,,,,magenta,flipped triangle
0.0,7.0,2.0,1.0,6.0,0.0,0.0,2.0,1.0,phase_2,stop,300.0,250.0,4.0,,,,,,,,,yellow,diamond
0.0,2.0,1.0,0.0,5.0,5.0,452.2346440353431,2.0,1.0,phase_2,go,300.0,300.0,1.0,,,,,,,,,green,square
0.0,6.0,1.0,1.0,5.0,5.0,504.41869703354314,2.0,1.0,phase_2,go,300.0,300.0,1.0,,,,,,,,,gray,cross
0.0,7.0,2.0,1.0,5.0,0.0,0.0,2.0,1.0,phase_2,stop,300.0,300.0,4.0,,,,,,,,,yellow,diamond
0.0,4.0,4.0,0.0,5.0,5.0,745.5161089892499,2.0,1.0,phase_2,go,350.0,300.0,1.0,,,,,,,,,blue,I
0.0,2.0,1.0,0.0,6.0,6.0,454.618655028753,2.0,1.0,phase_2,go,350.0,300.0,1.0,,,,,,,,,green,square
0.0,7.0,2.0,1.0,5.0,0.0,0.0,2.0,1.0,phase_2,stop,350.0,300.0,4.0,,,,,,,,,yellow,diamond
0.0,5.0,0.5,1.0,6.0,0.0,0.0,2.0,1.0,phase_2,stop,400.0,300.0,4.0,,,,,,,,,orange,circle
0.0,2.0,1.0,0.0,6.0,6.0,462.9900460131466,2.0,1.0,phase_2,go,400.0,350.0,1.0,,,,,,,,,green,square
0.0,7.0,2.0,1.0,6.0,6.0,677.282529999502,2.0,1.0,phase_2,go,400.0,350.0,1.0,,,,,,,,,yellow,diamond
0.0,3.0,2.0,0.0,6.0,6.0,670.0993599952199,2.0,1.0,phase_2,go,400.0,350.0,1.0,,,,,,,,,magenta,flipped triangle
0.0,2.0,1.0,0.0,5.0,5.0,437.4382789828814,2.0,1.0,phase_2,go,400.0,350.0,1.0,,,,,,,,,green,square
0.0,8.0,4.0,1.0,6.0,6.0,485.0185940158553,2.0,1.0,phase_2,go,400.0,350.0,1.0,,,,,,,,,white,hexagon
0.0,8.0,4.0,1.0,6.0,6.0,445.4806669964455,2.0,1.0,phase_2,stop,400.0,350.0,3.0,,,,,,,,,white,hexagon
0.0,8.0,4.0,1.0,5.0,5.0,467.2214729944244,2.0,1.0,phase_2,stop,400.0,300.0,3.0,,,,,,,,,white,hexagon
0.0,1.0,0.5,0.0,6.0,6.0,617.1810299856588,2.0,1.0,phase_2,go,350.0,300.0,1.0,,,,,,,,,cyan,triangle
0.0,6.0,1.0,1.0,6.0,0.0,0.0,2.0,1.0,phase_2,stop,350.0,300.0,4.0,,,,,,,,,gray,cross
0.0,6.0,1.0,1.0,5.0,5.0,351.210867986083,2.0,1.0,phase_2,go,350.0,350.0,1.0,,,,,,,,,gray,cross
0.0,1.0,0.5,0.0,5.0,5.0,673.8102979725227,2.0,1.0,phase_2,go,350.0,350.0,1.0,,,,,,,,,cyan,triangle
0.0,3.0,2.0,0.0,5.0,5.0,959.12924798904,2.0,1.0,phase_2,go,350.0,350.0,1.0,,,,,,,,,magenta,flipped triangle
0.0,5.0,0.5,1.0,6.0,0.0,0.0,2.0,1.0,phase_2,stop,350.0,350.0,4.0,,,,,,,,,orange,circle
0.0,4.0,4.0,0.0,5.0,5.0,649.3115469929762,2.0,1.0,phase_2,go,350.0,400.0,1.0,,,,,,,,,blue,I
0.0,7.0,2.0,1.0,6.0,6.0,519.8260610341094,2.0,1.0,phase_2,stop,350.0,400.0,3.0,,,,,,,,,yellow,diamond
0.0,8.0,4.0,1.0,6.0,0.0,0.0,2.0,1.0,phase_2,stop,350.0,350.0,4.0,,,,,,,,,white,hexagon
0.0,8.0,4.0,1.0,6.0,0.0,0.0,3.0,1.0,phase_2,stop,350.0,400.0,4.0,,,,,,,,,white,hexagon
0.0,1.0,0.5,0.0,6.0,6.0,1437.7011259784922,3.0,1.0,phase_2,go,350.0,450.0,1.0,,,,,,,,,cyan,triangle
0.0,1.0,0.5,0.0,6.0,6.0,483.5579799837433,3.0,1.0,phase_2,go,350.0,450.0,1.0,,,,,,,,,cyan,triangle
0.0,7.0,2.0,1.0,5.0,0.0,0.0,3.0,1.0,phase_2,stop,350.0,450.0,4.0,,,,,,,,,yellow,diamond
0.0,6.0,1.0,1.0,5.0,0.0,0.0,3.0,1.0,phase_2,stop,400.0,450.0,4.0,,,,,,,,,gray,cross
0.0,7.0,2.0,1.0,5.0,0.0,0.0,3.0,1.0,phase_2,stop,450.0,450.0,4.0,,,,,,,,,yellow,diamond
0.0,1.0,0.5,0.0,5.0,5.0,376.0901960195042,3.0,1.0,phase_2,go,500.0,450.0,1.0,,,,,,,,,cyan,triangle
0.0,2.0,1.0,0.0,6.0,6.0,632.8529070015065,3.0,1.0,phase_2,go,500.0,450.0,1.0,,,,,,,,,green,square
0.0,8.0,4.0,1.0,6.0,6.0,401.55968896579,3.0,1.0,phase_2,stop,500.0,450.0,3.0,,,,,,,,,white,hexagon
0.0,7.0,2.0,1.0,6.0,0.0,0.0,3.0,1.0,phase_2,stop,500.0,400.0,4.0,,,,,,,,,yellow,diamond
0.0,4.0,4.0,0.0,6.0,6.0,565.037261985708,3.0,1.0,phase_2,go,500.0,450.0,1.0,,,,,,,,,blue,I
0.0,1.0,0.5,0.0,5.0,5.0,479.1441070265136,3.0,1.0,phase_2,go,500.0,450.0,1.0,,,,,,,,,cyan,triangle
0.0,2.0,1.0,0.0,5.0,5.0,592.3282129806466,3.0,1.0,phase_2,go,500.0,450.0,1.0,,,,,,,,,green,square
0.0,8.0,4.0,1.0,5.0,5.0,463.1776239839382,3.0,1.0,phase_2,stop,500.0,450.0,3.0,,,,,,,,,white,hexagon
0.0,1.0,0.5,0.0,5.0,5.0,1084.7257709829137,3.0,1.0,phase_2,go,450.0,450.0,1.0,,,,,,,,,cyan,triangle
0.0,3.0,2.0,0.0,6.0,6.0,618.758889962919,3.0,1.0,phase_2,go,450.0,450.0,1.0,,,,,,,,,magenta,flipped triangle
0.0,6.0,1.0,1.0,5.0,0.0,0.0,3.0,1.0,phase_2,stop,450.0,450.0,4.0,,,,,,,,,gray,cross
0.0,3.0,2.0,0.0,6.0,6.0,477.4376190034672,3.0,1.0,phase_2,go,500.0,450.0,1.0,,,,,,,,,magenta,flipped triangle
0.0,6.0,1.0,1.0,6.0,6.0,785.5308669968508,3.0,1.0,phase_2,go,500.0,450.0,1.0,,,,,,,,,gray,cross
0.0,8.0,4.0,1.0,6.0,0.0,0.0,3.0,1.0,phase_2,stop,500.0,450.0,4.0,,,,,,,,,white,hexagon
0.0,7.0,2.0,1.0,5.0,5.0,415.7151989638805,3.0,1.0,phase_2,stop,500.0,500.0,3.0,,,,,,,,,yellow,diamond
0.0,1.0,0.5,0.0,5.0,5.0,1088.4318799944597,3.0,1.0,phase_2,go,450.0,500.0,1.0,,,,,,,,,cyan,triangle
0.0,8.0,4.0,1.0,6.0,6.0,424.4404839701019,3.0,1.0,phase_2,stop,450.0,500.0,3.0,,,,,,,,,white,hexagon
0.0,8.0,4.0,1.0,6.0,0.0,0.0,3.0,1.0,phase_2,stop,450.0,450.0,4.0,,,,,,,,,white,hexagon
0.0,1.0,0.5,0.0,5.0,5.0,608.6395540041849,3.0,1.0,phase_2,go,450.0,500.0,1.0,,,,,,,,,cyan,triangle
0.0,2.0,1.0,0.0,5.0,5.0,1007.3506549815647,3.0,1.0,phase_2,go,450.0,500.0,1.0,,,,,,,,,green,square
0.0,5.0,0.5,1.0,5.0,0.0,0.0,3.0,1.0,phase_2,stop,450.0,500.0,4.0,,,,,,,,,orange,circle
0.0,6.0,1.0,1.0,6.0,6.0,990.5298360390588,3.0,1.0,phase_2,go,500.0,500.0,1.0,,,,,,,,,gray,cross
0.0,4.0,4.0,0.0,6.0,6.0,734.6156170242466,3.0,1.0,phase_2,go,500.0,500.0,1.0,,,,,,,,,blue,I
0.0,8.0,4.0,1.0,5.0,0.0,0.0,3.0,1.0,phase_2,stop,500.0,500.0,4.0,,,,,,,,,white,hexagon
0.0,1.0,0.5,0.0,6.0,6.0,813.0206930218264,3.0,1.0,phase_2,go,550.0,500.0,1.0,,,,,,,,,cyan,triangle
0.0,4.0,4.0,0.0,6.0,6.0,851.284297008533,3.0,1.0,phase_2,go,550.0,500.0,1.0,,,,,,,,,blue,I
0.0,2.0,1.0,0.0,6.0,6.0,650.6246679928154,3.0,1.0,phase_2,go,550.0,500.0,1.0,,,,,,,,,green,square
0.0,3.0,2.0,0.0,5.0,5.0,659.3615579768084,3.0,1.0,phase_2,go,550.0,500.0,1.0,,,,,,,,,magenta,flipped triangle
0.0,8.0,4.0,1.0,5.0,5.0,616.4196989848278,3.0,1.0,phase_2,stop,550.0,500.0,3.0,,,,,,,,,white,hexagon
0.0,3.0,2.0,0.0,5.0,5.0,426.3063539983704,3.0,1.0,phase_2,go,500.0,500.0,1.0,,,,,,,,,magenta,flipped triangle
0.0,4.0,4.0,0.0,5.0,0.0,0.0,4.0,1.0,phase_2,go,500.0,500.0,5.0,,,,,,,,,blue,I
0.0,1.0,0.5,0.0,6.0,6.0,351.6241029719822,4.0,1.0,phase_2,go,500.0,500.0,1.0,,,,,,,,,cyan,triangle
0.0,4.0,4.0,0.0,6.0,6.0,320.4835039796307,4.0,1.0,phase_2,go,500.0,500.0,1.0,,,,,,,,,blue,I
0.0,3.0,2.0,0.0,6.0,6.0,452.9407959780656,4.0,1.0,phase_2,go,500.0,500.0,1.0,,,,,,,,,magenta,flipped triangle
0.0,6.0,1.0,1.0,6.0,6.0,340.7699260278605,4.0,1.0,phase_2,stop,500.0,500.0,3.0,,,,,,,,,gray,cross
0.0,2.0,1.0,0.0,5.0,5.0,396.1829249747097,4.0,1.0,phase_2,go,500.0,450.0,1.0,,,,,,,,,green,square
0.0,2.0,1.0,0.0,5.0,5.0,454.9582609906792,4.0,1.0,phase_2,go,500.0,450.0,1.0,,,,,,,,,green,square
0.0,2.0,1.0,0.0,6.0,6.0,730.4690420278348,4.0,1.0,phase_2,go,500.0,450.0,1.0,,,,,,,,,green,square
0.0,7.0,2.0,1.0,6.0,6.0,492.8541299887001,4.0,1.0,phase_2,stop,500.0,450.0,3.0,,,,,,,,,yellow,diamond
0.0,4.0,4.0,0.0,6.0,6.0,875.5989770288579,4.0,1.0,phase_2,go,500.0,400.0,1.0,,,,,,,,,blue,I
0.0,6.0,1.0,1.0,6.0,0.0,0.0,4.0,1.0,phase_2,stop,500.0,400.0,4.0,,,,,,,,,gray,cross
0.0,5.0,0.5,1.0,6.0,0.0,0.0,4.0,1.0,phase_2,stop,500.0,450.0,4.0,,,,,,,,,orange,circle
0.0,5.0,0.5,1.0,5.0,5.0,873.5746670281515,4.0,1.0,phase_2,go,500.0,500.0,1.0,,,,,,,,,orange,circle
0.0,3.0,2.0,0.0,6.0,6.0,1154.2759209987707,4.0,1.0,phase_2,go,500.0,500.0,1.0,,,,,,,,,magenta,flipped triangle
0.0,6.0,1.0,1.0,5.0,0.0,0.0,4.0,1.0,phase_2,stop,500.0,500.0,4.0,,,,,,,,,gray,cross
0.0,6.0,1.0,1.0,5.0,5.0,536.4450329798274,4.0,1.0,phase_2,stop,550.0,500.0,3.0,,,,,,,,,gray,cross
0.0,2.0,1.0,0.0,5.0,5.0,639.5388990058564,4.0,1.0,phase_2,go,500.0,500.0,1.0,,,,,,,,,green,square
0.0,1.0,0.5,0.0,6.0,6.0,565.5326300184242,4.0,1.0,phase_2,go,500.0,500.0,1.0,,,,,,,,,cyan,triangle
0.0,6.0,1.0,1.0,6.0,6.0,767.2757349791937,4.0,1.0,phase_2,go,500.0,500.0,1.0,,,,,,,,,gray,cross
0.0,4.0,4.0,0.0,6.0,6.0,558.386042015627,4.0,1.0,phase_2,go,500.0,500.0,1.0,,,,,,,,,blue,I
0.0,3.0,2.0,0.0,6.0,6.0,679.3130969745107,4.0,1.0,phase_2,go,500.0,500.0,1.0,,,,,,,,,magenta,flipped triangle
0.0,4.0,4.0,0.0,5.0,5.0,430.6908670114353,4.0,1.0,phase_2,go,500.0,500.0,1.0,,,,,,,,,blue,I
0.0,8.0,4.0,1.0,5.0,5.0,545.8484329865314,4.0,1.0,phase_2,go,500.0,500.0,1.0,,,,,,,,,white,hexagon
0.0,7.0,2.0,1.0,6.0,6.0,581.4706240198575,4.0,1.0,phase_2,stop,500.0,500.0,3.0,,,,,,,,,yellow,diamond
0.0,4.0,4.0,0.0,6.0,6.0,756.2978619826026,4.0,1.0,phase_2,go,500.0,450.0,1.0,,,,,,,,,blue,I
0.0,7.0,2.0,1.0,5.0,6.0,624.1785610327497,4.0,1.0,phase_2,stop,500.0,450.0,3.0,,,,,,,,,yellow,diamond
0.0,3.0,2.0,0.0,5.0,5.0,539.0213779755868,4.0,1.0,phase_2,go,450.0,450.0,1.0,,,,,,,,,magenta,flipped triangle
0.0,5.0,0.5,1.0,5.0,0.0,0.0,4.0,1.0,phase_2,stop,450.0,450.0,4.0,,,,,,,,,orange,circle
0.0,1.0,0.5,0.0,5.0,5.0,1346.241941966582,4.0,1.0,phase_2,go,500.0,450.0,1.0,,,,,,,,,cyan,triangle
0.0,3.0,2.0,0.0,6.0,6.0,960.1089200004936,4.0,1.0,phase_2,go,500.0,450.0,1.0,,,,,,,,,magenta,flipped triangle
0.0,5.0,0.5,1.0,6.0,0.0,0.0,4.0,1.0,phase_2,stop,500.0,450.0,4.0,,,,,,,,,orange,circle
0.0,3.0,2.0,0.0,5.0,5.0,575.3969799843617,4.0,1.0,phase_2,go,500.0,500.0,1.0,,,,,,,,,magenta,flipped triangle
0.0,5.0,0.5,1.0,6.0,0.0,0.0,4.0,1.0,phase_2,stop,500.0,500.0,4.0,,,,,,,,,orange,circle
0.0,8.0,4.0,1.0,6.0,0.0,0.0,4.0,1.0,phase_2,stop,500.0,550.0,4.0,,,,,,,,,white,hexagon
0.0,7.0,2.0,1.0,5.0,5.0,973.9455849630758,4.0,1.0,phase_2,go,500.0,600.0,1.0,,,,,,,,,yellow,diamond
0.0,4.0,4.0,0.0,6.0,6.0,1006.7022169823758,4.0,1.0,phase_2,go,500.0,600.0,1.0,,,,,,,,,blue,I
0.0,4.0,4.0,0.0,6.0,6.0,677.7899700100534,5.0,1.0,phase_2,go,500.0,600.0,1.0,,,,,,,,,blue,I
0.0,3.0,2.0,0.0,6.0,6.0,430.3947429871186,5.0,1.0,phase_2,go,500.0,600.0,1.0,,,,,,,,,magenta,flipped triangle
0.0,3.0,2.0,0.0,5.0,5.0,382.066541002132,5.0,1.0,phase_2,go,500.0,600.0,1.0,,,,,,,,,magenta,flipped triangle
0.0,7.0,2.0,1.0,6.0,6.0,508.18903202889487,5.0,1.0,phase_2,stop,500.0,600.0,3.0,,,,,,,,,yellow,diamond
0.0,8.0,4.0,1.0,5.0,5.0,394.3485060008243,5.0,1.0,phase_2,stop,500.0,550.0,3.0,,,,,,,,,white,hexagon
0.0,7.0,2.0,1.0,5.0,0.0,0.0,5.0,1.0,phase_2,stop,450.0,550.0,4.0,,,,,,,,,yellow,diamond
0.0,1.0,0.5,0.0,5.0,5.0,772.0428969478235,5.0,1.0,phase_2,go,500.0,550.0,1.0,,,,,,,,,cyan,triangle
0.0,7.0,2.0,1.0,5.0,5.0,593.8512919819914,5.0,1.0,phase_2,stop,500.0,550.0,3.0,,,,,,,,,yellow,diamond
0.0,3.0,2.0,0.0,5.0,5.0,711.1351430066861,5.0,1.0,phase_2,go,450.0,550.0,1.0,,,,,,,,,magenta,flipped triangle
0.0,4.0,4.0,0.0,6.0,6.0,857.4939529644325,5.0,1.0,phase_2,go,450.0,550.0,1.0,,,,,,,,,blue,I
0.0,8.0,4.0,1.0,5.0,0.0,0.0,5.0,1.0,phase_2,stop,450.0,550.0,4.0,,,,,,,,,white,hexagon
0.0,3.0,2.0,0.0,6.0,6.0,909.9484870093876,5.0,1.0,phase_2,go,500.0,550.0,1.0,,,,,,,,,magenta,flipped triangle
0.0,5.0,0.5,1.0,5.0,0.0,0.0,5.0,1.0,phase_2,stop,500.0,550.0,4.0,,,,,,,,,orange,circle
0.0,8.0,4.0,1.0,5.0,5.0,1044.3251109682024,5.0,1.0,phase_2,go,550.0,550.0,1.0,,,,,,,,,white,hexagon
0.0,4.0,4.0,0.0,5.0,5.0,1422.7796570048667,5.0,1.0,phase_2,go,550.0,550.0,1.0,,,,,,,,,blue,I
0.0,1.0,0.5,0.0,5.0,5.0,1102.481475973036,5.0,1.0,phase_2,go,550.0,550.0,1.0,,,,,,,,,cyan,triangle
0.0,3.0,2.0,0.0,5.0,5.0,628.5697220009752,5.0,1.0,phase_2,go,550.0,550.0,1.0,,,,,,,,,magenta,flipped triangle
0.0,2.0,1.0,0.0,5.0,5.0,630.5306850117631,5.0,1.0,phase_2,go,550.0,550.0,1.0,,,,,,,,,green,square
0.0,3.0,2.0,0.0,5.0,5.0,570.619928999804,5.0,1.0,phase_2,go,550.0,550.0,1.0,,,,,,,,,magenta,flipped triangle
0.0,6.0,1.0,1.0,6.0,6.0,637.4384409864433,5.0,1.0,phase_2,stop,550.0,550.0,3.0,,,,,,,,,gray,cross
0.0,5.0,0.5,1.0,6.0,0.0,0.0,5.0,1.0,phase_2,stop,550.0,500.0,4.0,,,,,,,,,orange,circle
0.0,3.0,2.0,0.0,6.0,6.0,1024.3632739875466,5.0,1.0,phase_2,go,550.0,550.0,1.0,,,,,,,,,magenta,flipped triangle
0.0,6.0,1.0,1.0,5.0,0.0,0.0,5.0,1.0,phase_2,stop,550.0,550.0,4.0,,,,,,,,,gray,cross
0.0,2.0,1.0,0.0,5.0,5.0,691.086770966649,5.0,1.0,phase_2,go,600.0,550.0,1.0,,,,,,,,,green,square
0.0,1.0,0.5,0.0,6.0,6.0,422.4740830250084,5.0,1.0,phase_2,go,600.0,550.0,1.0,,,,,,,,,cyan,triangle
0.0,1.0,0.5,0.0,5.0,5.0,713.6674899957143,5.0,1.0,phase_2,go,600.0,550.0,1.0,,,,,,,,,cyan,triangle
0.0,8.0,4.0,1.0,6.0,6.0,512.3118949704804,5.0,1.0,phase_2,stop,600.0,550.0,3.0,,,,,,,,,white,hexagon
0.0,1.0,0.5,0.0,6.0,6.0,837.4608690501191,5.0,1.0,phase_2,go,600.0,500.0,1.0,,,,,,,,,cyan,triangle
0.0,8.0,4.0,1.0,6.0,6.0,932.3404299793764,5.0,1.0,phase_2,go,600.0,500.0,1.0,,,,,,,,,white,hexagon
0.0,8.0,4.0,1.0,5.0,5.0,708.1086240359582,5.0,1.0,phase_2,go,600.0,500.0,1.0,,,,,,,,,white,hexagon
0.0,5.0,0.5,1.0,6.0,0.0,0.0,5.0,1.0,phase_2,stop,600.0,500.0,4.0,,,,,,,,,orange,circle
0.0,7.0,2.0,1.0,6.0,6.0,749.6030899928883,5.0,1.0,phase_2,go,600.0,550.0,1.0,,,,,,,,,yellow,diamond
0.0,5.0,0.5,1.0,6.0,0.0,0.0,5.0,1.0,phase_2,stop,600.0,550.0,4.0,,,,,,,,,orange,circle
0.0,2.0,1.0,0.0,5.0,5.0,841.3619200000539,5.0,1.0,phase_2,go,600.0,600.0,1.0,,,,,,,,,green,square
0.0,6.0,1.0,1.0,6.0,0.0,0.0,5.0,1.0,phase_2,stop,600.0,600.0,4.0,,,,,,,,,gray,cross
0.0,5.0,0.5,1.0,6.0,6.0,803.5276999580674,5.0,1.0,phase_2,go,600.0,650.0,1.0,,,,,,,,,orange,circle
0.0,5.0,0.5,1.0,6.0,6.0,510.80985501175746,6.0,1.0,phase_2,stop,600.0,650.0,3.0,,,,,,,,,orange,circle
0.0,2.0,1.0,0.0,6.0,6.0,362.5542430090718,6.0,1.0,phase_2,go,600.0,600.0,1.0,,,,,,,,,green,square
0.0,3.0,2.0,0.0,5.0,5.0,756.2341750017367,6.0,1.0,phase_2,go,600.0,600.0,1.0,,,,,,,,,magenta,flipped triangle
0.0,1.0,0.5,0.0,5.0,5.0,539.6653440548107,6.0,1.0,phase_2,go,600.0,600.0,1.0,,,,,,,,,cyan,triangle
0.0,2.0,1.0,0.0,5.0,5.0,634.5519620226696,6.0,1.0,phase_2,go,600.0,600.0,1.0,,,,,,,,,green,square
0.0,2.0,1.0,0.0,6.0,6.0,650.8726429892704,6.0,1.0,phase_2,go,600.0,600.0,1.0,,,,,,,,,green,square
0.0,6.0,1.0,1.0,5.0,5.0,500.33178500598297,6.0,1.0,phase_2,stop,600.0,600.0,3.0,,,,,,,,,gray,cross
0.0,3.0,2.0,0.0,5.0,5.0,1136.2525959848426,6.0,1.0,phase_2,go,550.0,600.0,1.0,,,,,,,,,magenta,flipped triangle
0.0,6.0,1.0,1.0,5.0,5.0,528.8268380099908,6.0,1.0,phase_2,stop,550.0,600.0,3.0,,,,,,,,,gray,cross
0.0,7.0,2.0,1.0,5.0,5.0,527.5974759715609,6.0,1.0,phase_2,go,500.0,600.0,1.0,,,,,,,,,yellow,diamond
0.0,6.0,1.0,1.0,6.0,6.0,650.0196790439077,6.0,1.0,phase_2,stop,500.0,600.0,3.0,,,,,,,,,gray,cross
0.0,4.0,4.0,0.0,5.0,5.0,885.4287579888478,6.0,1.0,phase_2,go,500.0,550.0,1.0,,,,,,,,,blue,I
0.0,7.0,2.0,1.0,5.0,0.0,0.0,6.0,1.0,phase_2,stop,500.0,550.0,4.0,,,,,,,,,yellow,diamond
0.0,5.0,0.5,1.0,5.0,5.0,1013.4767510462552,6.0,1.0,phase_2,go,550.0,550.0,1.0,,,,,,,,,orange,circle
0.0,7.0,2.0,1.0,5.0,5.0,747.8934130049311,6.0,1.0,phase_2,go,550.0,550.0,1.0,,,,,,,,,yellow,diamond
0.0,2.0,1.0,0.0,6.0,6.0,1350.2494170097634,6.0,1.0,phase_2,go,550.0,550.0,1.0,,,,,,,,,green,square
0.0,5.0,0.5,1.0,5.0,5.0,442.9405350238085,6.0,1.0,phase_2,stop,550.0,550.0,3.0,,,,,,,,,orange,circle
0.0,6.0,1.0,1.0,5.0,5.0,540.5812459648587,6.0,1.0,phase_2,go,500.0,550.0,1.0,,,,,,,,,gray,cross
0.0,4.0,4.0,0.0,6.0,6.0,474.5136849815026,6.0,1.0,phase_2,go,500.0,550.0,1.0,,,,,,,,,blue,I
0.0,2.0,1.0,0.0,5.0,5.0,448.9180399687029,6.0,1.0,phase_2,go,500.0,550.0,1.0,,,,,,,,,green,square
0.0,4.0,4.0,0.0,5.0,5.0,419.0894259954802,6.0,1.0,phase_2,go,500.0,550.0,1.0,,,,,,,,,blue,I
0.0,7.0,2.0,1.0,5.0,5.0,337.4674249789677,6.0,1.0,phase_2,stop,500.0,550.0,3.0,,,,,,,,,yellow,diamond
0.0,1.0,0.5,0.0,6.0,6.0,369.8781299754046,6.0,1.0,phase_2,go,450.0,550.0,1.0,,,,,,,,,cyan,triangle
0.0,5.0,0.5,1.0,5.0,5.0,552.9075060039759,6.0,1.0,phase_2,go,450.0,550.0,1.0,,,,,,,,,orange,circle
0.0,1.0,0.5,0.0,5.0,5.0,649.8132970300503,6.0,1.0,phase_2,go,450.0,550.0,1.0,,,,,,,,,cyan,triangle
0.0,2.0,1.0,0.0,6.0,6.0,359.012160974089,6.0,1.0,phase_2,go,450.0,550.0,1.0,,,,,,,,,green,square
0.0,5.0,0.5,1.0,5.0,5.0,377.0663869800046,6.0,1.0,phase_2,go,450.0,550.0,1.0,,,,,,,,,orange,circle
0.0,4.0,4.0,0.0,6.0,6.0,327.1371769951656,6.0,1.0,phase_2,go,450.0,550.0,1.0,,,,,,,,,blue,I
0.0,5.0,0.5,1.0,5.0,5.0,387.6828619977459,6.0,1.0,phase_2,stop,450.0,550.0,3.0,,,,,,,,,orange,circle
0.0,4.0,4.0,0.0,6.0,6.0,332.1892830426804,6.0,1.0,phase_2,go,400.0,550.0,1.0,,,,,,,,,blue,I
0.0,5.0,0.5,1.0,5.0,0.0,0.0,6.0,1.0,phase_2,stop,400.0,550.0,4.0,,,,,,,,,orange,circle
0.0,4.0,4.0,0.0,5.0,5.0,546.5693559963256,6.0,1.0,phase_2,go,450.0,550.0,1.0,,,,,,,,,blue,I
0.0,1.0,0.5,0.0,5.0,5.0,650.1219770289026,6.0,1.0,phase_2,go,450.0,550.0,1.0,,,,,,,,,cyan,triangle
0.0,5.0,0.5,1.0,5.0,0.0,0.0,6.0,1.0,phase_2,stop,450.0,550.0,4.0,,,,,,,,,orange,circle
0.0,3.0,2.0,0.0,5.0,5.0,699.189132952597,6.0,1.0,phase_2,go,500.0,550.0,1.0,,,,,,,,,magenta,flipped triangle
0.0,7.0,2.0,1.0,5.0,0.0,0.0,6.0,1.0,phase_2,stop,500.0,550.0,4.0,,,,,,,,,yellow,diamond
0.0,4.0,4.0,0.0,5.0,5.0,815.2861070120707,7.0,1.0,phase_2,go,550.0,550.0,1.0,,,,,,,,,blue,I
0.0,8.0,4.0,1.0,6.0,6.0,430.6059420341626,7.0,1.0,phase_2,go,550.0,550.0,1.0,,,,,,,,,white,hexagon
0.0,6.0,1.0,1.0,6.0,6.0,403.0355549766682,7.0,1.0,phase_2,stop,550.0,550.0,3.0,,,,,,,,,gray,cross
0.0,5.0,0.5,1.0,5.0,5.0,515.5278919846751,7.0,1.0,phase_2,stop,550.0,500.0,3.0,,,,,,,,,orange,circle
0.0,4.0,4.0,0.0,6.0,6.0,614.0527009847574,7.0,1.0,phase_2,go,500.0,500.0,1.0,,,,,,,,,blue,I
0.0,3.0,2.0,0.0,6.0,6.0,1033.6489329929464,7.0,1.0,phase_2,go,500.0,500.0,1.0,,,,,,,,,magenta,flipped triangle
0.0,4.0,4.0,0.0,5.0,5.0,424.6632810099982,7.0,1.0,phase_2,go,500.0,500.0,1.0,,,,,,,,,blue,I
0.0,7.0,2.0,1.0,6.0,0.0,0.0,7.0,1.0,phase_2,stop,500.0,500.0,4.0,,,,,,,,,yellow,diamond
0.0,6.0,1.0,1.0,6.0,6.0,651.1485729715787,7.0,1.0,phase_2,stop,500.0,550.0,3.0,,,,,,,,,gray,cross
0.0,3.0,2.0,0.0,6.0,6.0,546.423688007053,7.0,1.0,phase_2,go,500.0,500.0,1.0,,,,,,,,,magenta,flipped triangle
0.0,4.0,4.0,0.0,6.0,6.0,801.6046999837272,7.0,1.0,phase_2,go,500.0,500.0,1.0,,,,,,,,,blue,I
0.0,1.0,0.5,0.0,5.0,5.0,393.228011962492,7.0,1.0,phase_2,go,500.0,500.0,1.0,,,,,,,,,cyan,triangle
0.0,5.0,0.5,1.0,6.0,6.0,629.3972310377285,7.0,1.0,phase_2,stop,500.0,500.0,3.0,,,,,,,,,orange,circle
0.0,1.0,0.5,0.0,6.0,6.0,823.8860410056077,7.0,1.0,phase_2,go,500.0,450.0,1.0,,,,,,,,,cyan,triangle
0.0,6.0,1.0,1.0,5.0,0.0,0.0,7.0,1.0,phase_2,stop,500.0,450.0,4.0,,,,,,,,,gray,cross
0.0,4.0,4.0,0.0,5.0,5.0,1063.7914450489916,7.0,1.0,phase_2,go,550.0,450.0,1.0,,,,,,,,,blue,I
0.0,7.0,2.0,1.0,6.0,6.0,1343.713762005791,7.0,1.0,phase_2,stop,550.0,450.0,3.0,,,,,,,,,yellow,diamond
0.0,2.0,1.0,0.0,6.0,6.0,878.428521042224,7.0,1.0,phase_2,go,550.0,400.0,1.0,,,,,,,,,green,square
0.0,3.0,2.0,0.0,6.0,6.0,926.5182879753412,7.0,1.0,phase_2,go,550.0,400.0,1.0,,,,,,,,,magenta,flipped triangle
0.0,7.0,2.0,1.0,5.0,5.0,1426.0656189871952,7.0,1.0,phase_2,stop,550.0,400.0,3.0,,,,,,,,,yellow,diamond
0.0,8.0,4.0,1.0,6.0,0.0,0.0,7.0,1.0,phase_2,stop,500.0,400.0,4.0,,,,,,,,,white,hexagon
0.0,6.0,1.0,1.0,6.0,0.0,0.0,7.0,1.0,phase_2,stop,500.0,450.0,4.0,,,,,,,,,gray,cross
0.0,2.0,1.0,0.0,5.0,5.0,355.1730950130149,7.0,1.0,phase_2,go,500.0,500.0,1.0,,,,,,,,,green,square
0.0,3.0,2.0,0.0,6.0,6.0,650.8076330064796,7.0,1.0,phase_2,go,500.0,500.0,1.0,,,,,,,,,magenta,flipped triangle
0.0,8.0,4.0,1.0,5.0,5.0,658.3931589848362,7.0,1.0,phase_2,go,500.0,500.0,1.0,,,,,,,,,white,hexagon
0.0,4.0,4.0,0.0,6.0,6.0,359.5359189785085,7.0,1.0,phase_2,go,500.0,500.0,1.0,,,,,,,,,blue,I
0.0,2.0,1.0,0.0,6.0,6.0,736.2128699896857,7.0,1.0,phase_2,go,500.0,500.0,1.0,,,,,,,,,green,square
0.0,8.0,4.0,1.0,6.0,0.0,0.0,7.0,1.0,phase_2,stop,500.0,500.0,4.0,,,,,,,,,white,hexagon
0.0,5.0,0.5,1.0,6.0,6.0,677.4019160075113,7.0,1.0,phase_2,go,500.0,550.0,1.0,,,,,,,,,orange,circle
0.0,8.0,4.0,1.0,5.0,5.0,316.6649960330687,7.0,1.0,phase_2,stop,500.0,550.0,3.0,,,,,,,,,white,hexagon
0.0,7.0,2.0,1.0,5.0,5.0,775.7029269705527,7.0,1.0,phase_2,go,450.0,550.0,1.0,,,,,,,,,yellow,diamond
0.0,6.0,1.0,1.0,5.0,5.0,829.9952070228755,7.0,1.0,phase_2,go,450.0,550.0,1.0,,,,,,,,,gray,cross
0.0,6.0,1.0,1.0,5.0,0.0,0.0,7.0,1.0,phase_2,stop,450.0,550.0,4.0,,,,,,,,,gray,cross
0.0,4.0,4.0,0.0,5.0,5.0,1154.053764010314,7.0,1.0,phase_2,go,500.0,550.0,1.0,,,,,,,,,blue,I
0.0,8.0,4.0,1.0,6.0,6.0,353.6817000131123,7.0,1.0,phase_2,stop,500.0,550.0,3.0,,,,,,,,,white,hexagon
0.0,6.0,1.0,1.0,6.0,0.0,0.0,7.0,1.0,phase_2,stop,500.0,500.0,4.0,,,,,,,,,gray,cross
0.0,5.0,0.5,1.0,6.0,6.0,521.051796968095,8.0,1.0,phase_2,stop,500.0,550.0,3.0,,,,,,,,,orange,circle
0.0,3.0,2.0,0.0,5.0,5.0,312.0799509924836,8.0,1.0,phase_2,go,500.0,500.0,1.0,,,,,,,,,magenta,flipped triangle
0.0,1.0,0.5,0.0,5.0,5.0,462.9599199979566,8.0,1.0,phase_2,go,500.0,500.0,1.0,,,,,,,,,cyan,triangle
0.0,4.0,4.0,0.0,6.0,6.0,517.9588939645328,8.0,1.0,phase_2,go,500.0,500.0,1.0,,,,,,,,,blue,I
0.0,6.0,1.0,1.0,5.0,5.0,352.1536780172027,8.0,1.0,phase_2,stop,500.0,500.0,3.0,,,,,,,,,gray,cross
0.0,8.0,4.0,1.0,5.0,5.0,515.4339949949645,8.0,1.0,phase_2,stop,450.0,500.0,3.0,,,,,,,,,white,hexagon
0.0,3.0,2.0,0.0,6.0,6.0,301.013040007092,8.0,1.0,phase_2,go,400.0,500.0,1.0,,,,,,,,,magenta,flipped triangle
0.0,8.0,4.0,1.0,5.0,0.0,0.0,8.0,1.0,phase_2,stop,400.0,500.0,4.0,,,,,,,,,white,hexagon
0.0,7.0,2.0,1.0,6.0,6.0,282.328627014067,8.0,1.0,phase_2,stop,450.0,500.0,3.0,,,,,,,,,yellow,diamond
0.0,5.0,0.5,1.0,5.0,5.0,395.1441739918664,8.0,1.0,phase_2,stop,450.0,450.0,3.0,,,,,,,,,orange,circle
0.0,2.0,1.0,0.0,6.0,6.0,644.0811870270409,8.0,1.0,phase_2,go,400.0,450.0,1.0,,,,,,,,,green,square
0.0,6.0,1.0,1.0,5.0,5.0,352.7505460078828,8.0,1.0,phase_2,stop,400.0,450.0,3.0,,,,,,,,,gray,cross
0.0,5.0,0.5,1.0,5.0,5.0,848.1593189644627,8.0,1.0,phase_2,go,350.0,450.0,1.0,,,,,,,,,orange,circle
0.0,1.0,0.5,0.0,6.0,6.0,367.5384160014801,8.0,1.0,phase_2,go,350.0,450.0,1.0,,,,,,,,,cyan,triangle
0.0,6.0,1.0,1.0,5.0,0.0,0.0,8.0,1.0,phase_2,stop,350.0,450.0,4.0,,,,,,,,,gray,cross
0.0,3.0,2.0,0.0,5.0,5.0,520.3576509957202,8.0,1.0,phase_2,go,400.0,450.0,1.0,,,,,,,,,magenta,flipped triangle
0.0,5.0,0.5,1.0,6.0,6.0,553.468136000447,8.0,1.0,phase_2,stop,400.0,450.0,3.0,,,,,,,,,orange,circle
0.0,1.0,0.5,0.0,6.0,6.0,617.1317350235768,8.0,1.0,phase_2,go,400.0,400.0,1.0,,,,,,,,,cyan,triangle
0.0,1.0,0.5,0.0,6.0,6.0,623.4244509832934,8.0,1.0,phase_2,go,400.0,400.0,1.0,,,,,,,,,cyan,triangle
0.0,8.0,4.0,1.0,5.0,0.0,0.0,8.0,1.0,phase_2,stop,400.0,400.0,4.0,,,,,,,,,white,hexagon
0.0,8.0,4.0,1.0,6.0,0.0,0.0,8.0,1.0,phase_2,stop,450.0,400.0,4.0,,,,,,,,,white,hexagon
0.0,8.0,4.0,1.0,5.0,5.0,325.7924519712105,8.0,1.0,phase_2,stop,450.0,450.0,3.0,,,,,,,,,white,hexagon
0.0,6.0,1.0,1.0,6.0,6.0,883.1955280038528,8.0,1.0,phase_2,go,400.0,450.0,1.0,,,,,,,,,gray,cross
0.0,8.0,4.0,1.0,5.0,0.0,0.0,8.0,1.0,phase_2,stop,400.0,450.0,4.0,,,,,,,,,white,hexagon
0.0,7.0,2.0,1.0,5.0,5.0,972.2889540134928,8.0,1.0,phase_2,go,450.0,450.0,1.0,,,,,,,,,yellow,diamond
0.0,8.0,4.0,1.0,6.0,6.0,363.5524319834076,8.0,1.0,phase_2,go,450.0,450.0,1.0,,,,,,,,,white,hexagon
0.0,1.0,0.5,0.0,6.0,6.0,666.5617160033435,8.0,1.0,phase_2,go,450.0,450.0,1.0,,,,,,,,,cyan,triangle
0.0,4.0,4.0,0.0,5.0,5.0,672.4772790330462,8.0,1.0,phase_2,go,450.0,450.0,1.0,,,,,,,,,blue,I
0.0,2.0,1.0,0.0,6.0,6.0,575.3986859926954,8.0,1.0,phase_2,go,450.0,450.0,1.0,,,,,,,,,green,square
0.0,3.0,2.0,0.0,6.0,6.0,761.7182389949448,8.0,1.0,phase_2,go,450.0,450.0,1.0,,,,,,,,,magenta,flipped triangle
0.0,2.0,1.0,0.0,5.0,5.0,294.7966569918208,8.0,1.0,phase_2,go,450.0,450.0,1.0,,,,,,,,,green,square
0.0,4.0,4.0,0.0,5.0,5.0,336.1650260048918,8.0,1.0,phase_2,go,450.0,450.0,1.0,,,,,,,,,blue,I
0.0,7.0,2.0,1.0,5.0,5.0,296.0845229681581,8.0,1.0,phase_2,stop,450.0,450.0,3.0,,,,,,,,,yellow,diamond
0.0,3.0,2.0,0.0,5.0,5.0,340.2862350340001,8.0,1.0,phase_2,go,400.0,450.0,1.0,,,,,,,,,magenta,flipped triangle
0.0,2.0,1.0,0.0,6.0,6.0,323.8727599964477,8.0,1.0,phase_2,go,400.0,450.0,1.0,,,,,,,,,green,square
0.0,5.0,0.5,1.0,5.0,0.0,0.0,8.0,1.0,phase_2,stop,400.0,450.0,4.0,,,,,,,,,orange,circle
0.0,2.0,1.0,0.0,7.0,2.0,2762.5922660226934,1.0,1.0,phase_3,,,,,136.0,4.0,204.0,136.0,102.0,68.0,170.0,34.0,green,square
0.0,6.0,1.0,1.0,7.0,5.0,4291.067701997235,1.0,1.0,phase_3,,,,,245.0,5.0,49.0,98.0,196.0,147.0,245.0,294.0,gray,cross
0.0,2.0,1.0,0.0,7.0,2.0,2319.180183985736,1.0,1.0,phase_3,,,,,44.0,1.0,264.0,44.0,176.0,132.0,220.0,88.0,green,square
0.0,1.0,0.5,0.0,7.0,1.0,3088.573921995703,1.0,1.0,phase_3,,,,,196.0,4.0,196.0,49.0,294.0,245.0,98.0,147.0,cyan,triangle
0.0,6.0,1.0,1.0,7.0,1.0,3151.074265013449,1.0,1.0,phase_3,,,,,147.0,3.0,147.0,294.0,49.0,98.0,196.0,245.0,gray,cross
0.0,3.0,2.0,0.0,7.0,6.0,4329.47429799242,1.0,1.0,phase_3,,,,,216.0,4.0,162.0,54.0,324.0,270.0,108.0,216.0,magenta,flipped triangle
0.0,6.0,1.0,1.0,7.0,4.0,2188.282165036071,1.0,1.0,phase_3,,,,,176.0,4.0,264.0,88.0,44.0,176.0,220.0,132.0,gray,cross
0.0,5.0,0.5,1.0,7.0,1.0,2055.0010160077363,1.0,1.0,phase_3,,,,,195.0,5.0,195.0,78.0,234.0,117.0,156.0,39.0,orange,circle
0.0,4.0,4.0,0.0,7.0,3.0,1455.637592007406,1.0,1.0,phase_3,,,,,234.0,6.0,195.0,117.0,234.0,156.0,78.0,39.0,blue,I
0.0,2.0,1.0,0.0,7.0,6.0,2526.0131990071386,1.0,1.0,phase_3,,,,,108.0,2.0,162.0,54.0,216.0,324.0,270.0,108.0,green,square
0.0,3.0,2.0,0.0,7.0,1.0,667.0820420258678,1.0,1.0,phase_3,,,,,136.0,4.0,136.0,170.0,204.0,102.0,68.0,34.0,magenta,flipped triangle
0.0,8.0,4.0,1.0,7.0,2.0,1346.7712569981811,1.0,1.0,phase_3,,,,,264.0,6.0,132.0,264.0,220.0,176.0,44.0,88.0,white,hexagon
0.0,5.0,0.5,1.0,7.0,6.0,597.6864320109598,1.0,1.0,phase_3,,,,,147.0,3.0,98.0,49.0,294.0,245.0,196.0,147.0,orange,circle
0.0,8.0,4.0,1.0,7.0,1.0,1999.2883369559424,1.0,1.0,phase_3,,,,,294.0,6.0,294.0,147.0,196.0,245.0,49.0,98.0,white,hexagon
0.0,5.0,0.5,1.0,7.0,4.0,821.8229860067368,1.0,1.0,phase_3,,,,,44.0,1.0,264.0,176.0,132.0,44.0,88.0,220.0,orange,circle
0.0,4.0,4.0,0.0,7.0,4.0,1712.7405480132438,1.0,1.0,phase_3,,,,,324.0,6.0,216.0,54.0,162.0,324.0,270.0,108.0,blue,I
0.0,5.0,0.5,1.0,7.0,1.0,657.4959270074032,1.0,1.0,phase_3,,,,,220.0,5.0,220.0,88.0,132.0,44.0,264.0,176.0,orange,circle
0.0,5.0,0.5,1.0,7.0,4.0,1475.2199489739724,1.0,1.0,phase_3,,,,,98.0,2.0,294.0,245.0,147.0,98.0,49.0,196.0,orange,circle
0.0,5.0,0.5,1.0,7.0,1.0,2987.205152050592,1.0,1.0,phase_3,,,,,102.0,3.0,102.0,68.0,204.0,170.0,34.0,136.0,orange,circle
0.0,4.0,4.0,0.0,7.0,5.0,2470.8903310238384,1.0,1.0,phase_3,,,,,220.0,5.0,44.0,88.0,132.0,264.0,220.0,176.0,blue,I
0.0,2.0,1.0,0.0,7.0,1.0,1005.6777169811539,2.0,1.0,phase_3,,,,,156.0,4.0,156.0,78.0,195.0,117.0,234.0,39.0,green,square
0.0,3.0,2.0,0.0,7.0,4.0,969.0887870383448,2.0,1.0,phase_3,,,,,117.0,3.0,195.0,39.0,234.0,117.0,78.0,156.0,magenta,flipped triangle
0.0,6.0,1.0,1.0,7.0,6.0,1243.2467130129226,2.0,1.0,phase_3,,,,,270.0,5.0,216.0,108.0,324.0,54.0,162.0,270.0,gray,cross
0.0,7.0,2.0,1.0,7.0,4.0,941.8522259802558,2.0,1.0,phase_3,,,,,220.0,5.0,44.0,264.0,132.0,220.0,88.0,176.0,yellow,diamond
0.0,6.0,1.0,1.0,7.0,6.0,725.7226460496895,2.0,1.0,phase_3,,,,,216.0,4.0,162.0,108.0,270.0,54.0,324.0,216.0,gray,cross
0.0,2.0,1.0,0.0,7.0,5.0,1117.6226200186647,2.0,1.0,phase_3,,,,,39.0,1.0,195.0,156.0,78.0,234.0,39.0,117.0,green,square
0.0,3.0,2.0,0.0,7.0,5.0,2097.183451987803,2.0,1.0,phase_3,,,,,108.0,2.0,270.0,162.0,54.0,216.0,108.0,324.0,magenta,flipped triangle
0.0,3.0,2.0,0.0,7.0,5.0,2503.14194499515,2.0,1.0,phase_3,,,,,264.0,6.0,132.0,220.0,44.0,88.0,264.0,176.0,magenta,flipped triangle
0.0,4.0,4.0,0.0,7.0,5.0,1768.800485995598,2.0,1.0,phase_3,,,,,108.0,2.0,216.0,162.0,270.0,54.0,108.0,324.0,blue,I
0.0,1.0,0.5,0.0,7.0,5.0,1474.3176610209048,2.0,1.0,phase_3,,,,,108.0,2.0,324.0,162.0,270.0,54.0,108.0,216.0,cyan,triangle
0.0,1.0,0.5,0.0,7.0,4.0,2276.15785098169,2.0,1.0,phase_3,,,,,234.0,6.0,117.0,156.0,195.0,234.0,39.0,78.0,cyan,triangle
0.0,3.0,2.0,0.0,7.0,5.0,1277.3682990227826,2.0,1.0,phase_3,,,,,234.0,6.0,117.0,156.0,78.0,39.0,234.0,195.0,magenta,flipped triangle
0.0,8.0,4.0,1.0,7.0,5.0,1574.3240400333889,2.0,1.0,phase_3,,,,,234.0,6.0,117.0,156.0,78.0,195.0,234.0,39.0,white,hexagon
0.0,4.0,4.0,0.0,7.0,3.0,2480.603242991492,2.0,1.0,phase_3,,,,,204.0,6.0,34.0,68.0,204.0,136.0,170.0,102.0,blue,I
0.0,3.0,2.0,0.0,7.0,3.0,2516.8109299847856,2.0,1.0,phase_3,,,,,204.0,6.0,102.0,34.0,204.0,136.0,170.0,68.0,magenta,flipped triangle
0.0,6.0,1.0,1.0,7.0,4.0,1475.7373899919912,2.0,1.0,phase_3,,,,,195.0,5.0,78.0,234.0,39.0,195.0,117.0,156.0,gray,cross
0.0,8.0,4.0,1.0,7.0,5.0,1005.5366070009768,2.0,1.0,phase_3,,,,,196.0,4.0,294.0,245.0,98.0,49.0,196.0,147.0,white,hexagon
0.0,4.0,4.0,0.0,7.0,5.0,688.7806910090148,2.0,1.0,phase_3,,,,,245.0,5.0,294.0,98.0,147.0,196.0,245.0,49.0,blue,I
0.0,1.0,0.5,0.0,7.0,4.0,1695.4395190114155,2.0,1.0,phase_3,,,,,88.0,2.0,176.0,132.0,264.0,88.0,220.0,44.0,cyan,triangle
0.0,1.0,0.5,0.0,7.0,1.0,1898.6010369844732,2.0,1.0,phase_3,,,,,234.0,6.0,234.0,39.0,117.0,195.0,78.0,156.0,cyan,triangle
0.0,7.0,2.0,1.0,7.0,4.0,715.203768981155,3.0,1.0,phase_3,,,,,234.0,6.0,195.0,117.0,156.0,234.0,78.0,39.0,yellow,diamond
0.0,7.0,2.0,1.0,7.0,4.0,2093.1128340307623,3.0,1.0,phase_3,,,,,204.0,6.0,34.0,136.0,170.0,204.0,68.0,102.0,yellow,diamond
0.0,2.0,1.0,0.0,7.0,1.0,1189.4308859482408,3.0,1.0,phase_3,,,,,102.0,3.0,102.0,136.0,204.0,170.0,68.0,34.0,green,square
0.0,1.0,0.5,0.0,7.0,1.0,2949.6090080356225,3.0,1.0,phase_3,,,,,102.0,3.0,102.0,136.0,170.0,34.0,68.0,204.0,cyan,triangle
0.0,8.0,4.0,1.0,7.0,5.0,3249.343189003412,3.0,1.0,phase_3,,,,,156.0,4.0,234.0,195.0,78.0,39.0,156.0,117.0,white,hexagon
0.0,7.0,2.0,1.0,7.0,1.0,2112.074125034269,3.0,1.0,phase_3,,,,,147.0,3.0,147.0,294.0,245.0,49.0,196.0,98.0,yellow,diamond
0.0,7.0,2.0,1.0,7.0,1.0,469.2770969704725,3.0,1.0,phase_3,,,,,264.0,6.0,264.0,88.0,132.0,220.0,176.0,44.0,yellow,diamond
0.0,8.0,4.0,1.0,7.0,4.0,1430.8113979641348,3.0,1.0,phase_3,,,,,204.0,6.0,170.0,34.0,102.0,204.0,68.0,136.0,white,hexagon
0.0,6.0,1.0,1.0,7.0,1.0,1701.3647300191224,3.0,1.0,phase_3,,,,,204.0,6.0,204.0,136.0,102.0,34.0,170.0,68.0,gray,cross
0.0,7.0,2.0,1.0,7.0,5.0,1871.577643963974,3.0,1.0,phase_3,,,,,245.0,5.0,49.0,98.0,294.0,147.0,245.0,196.0,yellow,diamond
0.0,3.0,2.0,0.0,7.0,3.0,2722.8361290181056,3.0,1.0,phase_3,,,,,264.0,6.0,176.0,44.0,264.0,220.0,132.0,88.0,magenta,flipped triangle
0.0,6.0,1.0,1.0,7.0,4.0,1569.7308530216103,3.0,1.0,phase_3,,,,,220.0,5.0,88.0,264.0,132.0,220.0,44.0,176.0,gray,cross
0.0,1.0,0.5,0.0,7.0,3.0,3066.5386529872194,3.0,1.0,phase_3,,,,,264.0,6.0,132.0,220.0,264.0,88.0,44.0,176.0,cyan,triangle
0.0,5.0,0.5,1.0,7.0,3.0,1420.086744998116,3.0,1.0,phase_3,,,,,136.0,4.0,102.0,34.0,136.0,68.0,204.0,170.0,orange,circle
0.0,7.0,2.0,1.0,7.0,4.0,886.1588010331616,3.0,1.0,phase_3,,,,,39.0,1.0,117.0,195.0,78.0,39.0,156.0,234.0,yellow,diamond
0.0,2.0,1.0,0.0,7.0,5.0,2406.106786977034,3.0,1.0,phase_3,,,,,147.0,3.0,294.0,98.0,196.0,245.0,147.0,49.0,green,square
0.0,8.0,4.0,1.0,7.0,4.0,2009.0645150048658,3.0,1.0,phase_3,,,,,34.0,1.0,102.0,170.0,68.0,34.0,204.0,136.0,white,hexagon
0.0,4.0,4.0,0.0,7.0,6.0,1979.715934023261,3.0,1.0,phase_3,,,,,264.0,6.0,88.0,176.0,44.0,132.0,220.0,264.0,blue,I
0.0,6.0,1.0,1.0,7.0,1.0,1066.3318340084516,3.0,1.0,phase_3,,,,,34.0,1.0,34.0,136.0,68.0,170.0,102.0,204.0,gray,cross
0.0,5.0,0.5,1.0,7.0,4.0,1499.4424419710413,3.0,1.0,phase_3,,,,,162.0,3.0,270.0,54.0,108.0,162.0,216.0,324.0,orange,circle
0.0,7.0,2.0,1.0,7.0,2.0,1392.7074550301768,4.0,1.0,phase_3,,,,,216.0,4.0,108.0,216.0,270.0,324.0,54.0,162.0,yellow,diamond
0.0,4.0,4.0,0.0,7.0,4.0,1215.745025954675,4.0,1.0,phase_3,,,,,245.0,5.0,294.0,147.0,49.0,245.0,98.0,196.0,blue,I
0.0,2.0,1.0,0.0,7.0,6.0,3191.935128998012,4.0,1.0,phase_3,,,,,324.0,6.0,270.0,108.0,54.0,162.0,216.0,324.0,green,square
0.0,8.0,4.0,1.0,7.0,2.0,1673.4370200429112,4.0,1.0,phase_3,,,,,324.0,6.0,216.0,324.0,162.0,108.0,54.0,270.0,white,hexagon
0.0,5.0,0.5,1.0,7.0,1.0,722.9253780096769,4.0,1.0,phase_3,,,,,162.0,3.0,162.0,216.0,108.0,270.0,324.0,54.0,orange,circle
0.0,4.0,4.0,0.0,7.0,2.0,1243.4804959921166,4.0,1.0,phase_3,,,,,156.0,4.0,195.0,156.0,39.0,78.0,234.0,117.0,blue,I
0.0,6.0,1.0,1.0,7.0,6.0,1585.123486991506,4.0,1.0,phase_3,,,,,117.0,3.0,234.0,195.0,39.0,156.0,78.0,117.0,gray,cross
0.0,4.0,4.0,0.0,7.0,1.0,1328.081329993438,4.0,1.0,phase_3,,,,,102.0,3.0,102.0,204.0,170.0,136.0,34.0,68.0,blue,I
0.0,2.0,1.0,0.0,7.0,4.0,1368.71001299005,4.0,1.0,phase_3,,,,,264.0,6.0,132.0,176.0,220.0,264.0,88.0,44.0,green,square
0.0,8.0,4.0,1.0,7.0,1.0,3268.3703069924377,4.0,1.0,phase_3,,,,,324.0,6.0,324.0,216.0,162.0,270.0,108.0,54.0,white,hexagon
0.0,1.0,0.5,0.0,7.0,4.0,1388.4668800164943,4.0,1.0,phase_3,,,,,162.0,3.0,54.0,216.0,324.0,162.0,108.0,270.0,cyan,triangle
0.0,7.0,2.0,1.0,7.0,4.0,1966.8879570090207,4.0,1.0,phase_3,,,,,324.0,6.0,54.0,162.0,216.0,324.0,108.0,270.0,yellow,diamond
0.0,1.0,0.5,0.0,7.0,3.0,1701.7791660036892,4.0,1.0,phase_3,,,,,170.0,5.0,136.0,68.0,170.0,34.0,102.0,204.0,cyan,triangle
0.0,7.0,2.0,1.0,7.0,4.0,1450.0185290235097,4.0,1.0,phase_3,,,,,170.0,5.0,136.0,34.0,102.0,170.0,68.0,204.0,yellow,diamond
0.0,5.0,0.5,1.0,7.0,4.0,3272.5119959795848,4.0,1.0,phase_3,,,,,117.0,3.0,78.0,39.0,195.0,117.0,234.0,156.0,orange,circle
0.0,1.0,0.5,0.0,7.0,2.0,3057.14689695742,4.0,1.0,phase_3,,,,,196.0,4.0,147.0,196.0,245.0,49.0,98.0,294.0,cyan,triangle
0.0,3.0,2.0,0.0,7.0,1.0,3234.772666008212,4.0,1.0,phase_3,,,,,147.0,3.0,147.0,294.0,196.0,245.0,98.0,49.0,magenta,flipped triangle
0.0,8.0,4.0,1.0,7.0,4.0,1677.8737980057483,4.0,1.0,phase_3,,,,,264.0,6.0,132.0,88.0,44.0,264.0,176.0,220.0,white,hexagon
0.0,2.0,1.0,0.0,7.0,3.0,1557.4451339780353,4.0,1.0,phase_3,,,,,245.0,5.0,147.0,49.0,245.0,196.0,294.0,98.0,green,square
0.0,3.0,2.0,0.0,7.0,5.0,1449.4948760257105,4.0,1.0,phase_3,,,,,147.0,3.0,98.0,245.0,49.0,294.0,147.0,196.0,magenta,flipped triangle
