raw_reward_magnitude,stim_reward,stepwise_reward_magnitude,paired_with_stopping,stim_location,response,reaction_time,block,num_trial_presentations,which_phase,stop_signal_trial_type,left_SSD,right_SSD,accuracy,chosen_bidding_amount,chosen_bidding_level,possible_bid_1,possible_bid_2,possible_bid_3,possible_bid_4,possible_bid_5,possible_bid_6,color_text,shape_text
204.0,3.0,2.0,0.0,3.0,3.0,448.3171820174902,1.0,1.0,phase_1,,,,,,,,,,,,,orange,diamond
101.0,2.0,1.0,0.0,3.0,3.0,404.7552119009197,1.0,1.0,phase_1,,,,,,,,,,,,,white,square
28.0,5.0,0.5,1.0,1.0,1.0,438.9516200171783,1.0,1.0,phase_1,,,,,,,,,,,,,gray,I
402.0,4.0,4.0,0.0,2.0,2.0,491.4509690133855,1.0,1.0,phase_1,,,,,,,,,,,,,green,circle
0.0,1.0,0.0,0.0,2.0,2.0,352.5264330673963,1.0,2.0,phase_1,,,,,,,,,,,,,cyan,triangle
43.0,5.0,0.5,1.0,2.0,2.0,409.5227610087022,1.0,1.0,phase_1,,,,,,,,,,,,,gray,I
100.0,2.0,1.0,0.0,4.0,4.0,407.0688730571419,1.0,1.0,phase_1,,,,,,,,,,,,,white,square
0.0,8.0,0.0,1.0,4.0,4.0,612.6487299334258,1.0,1.0,phase_1,,,,,,,,,,,,,yellow,hexagon
0.0,7.0,0.0,1.0,4.0,4.0,425.6488439859822,1.0,1.0,phase_1,,,,,,,,,,,,,magenta,flipped triangle
411.0,8.0,4.0,1.0,2.0,2.0,438.2995279738679,1.0,1.0,phase_1,,,,,,,,,,,,,yellow,hexagon
190.0,7.0,2.0,1.0,3.0,3.0,497.8269380517304,1.0,1.0,phase_1,,,,,,,,,,,,,magenta,flipped triangle
202.0,7.0,2.0,1.0,1.0,1.0,413.8185420306399,1.0,1.0,phase_1,,,,,,,,,,,,,magenta,flipped triangle
224.0,7.0,2.0,1.0,1.0,1.0,442.3115249956026,1.0,1.0,phase_1,,,,,,,,,,,,,magenta,flipped triangle
117.0,6.0,1.0,1.0,1.0,1.0,479.7088139457628,1.0,1.0,phase_1,,,,,,,,,,,,,blue,cross
198.0,7.0,2.0,1.0,2.0,2.0,436.5666989469901,1.0,1.0,phase_1,,,,,,,,,,,,,magenta,flipped triangle
0.0,4.0,0.0,0.0,2.0,2.0,433.3647249732166,1.0,1.0,phase_1,,,,,,,,,,,,,green,circle
82.0,2.0,1.0,0.0,3.0,3.0,559.0600799769163,1.0,1.0,phase_1,,,,,,,,,,,,,white,square
210.0,3.0,2.0,0.0,3.0,3.0,418.3369589736685,1.0,1.0,phase_1,,,,,,,,,,,,,orange,diamond
93.0,6.0,1.0,1.0,3.0,3.0,318.5632328968495,1.0,1.0,phase_1,,,,,,,,,,,,,blue,cross
29.0,5.0,0.5,1.0,3.0,3.0,495.2061290387064,1.0,1.0,phase_1,,,,,,,,,,,,,gray,I
198.0,3.0,2.0,0.0,1.0,1.0,578.0894160270691,1.0,1.0,phase_1,,,,,,,,,,,,,orange,diamond
108.0,6.0,1.0,1.0,4.0,4.0,348.6506029730662,1.0,1.0,phase_1,,,,,,,,,,,,,blue,cross
0.0,3.0,0.0,0.0,4.0,4.0,467.0813989359885,1.0,1.0,phase_1,,,,,,,,,,,,,orange,diamond
66.0,5.0,0.5,1.0,4.0,4.0,425.0405220082029,1.0,1.0,phase_1,,,,,,,,,,,,,gray,I
0.0,3.0,0.0,0.0,1.0,1.0,458.73448101338,1.0,1.0,phase_1,,,,,,,,,,,,,orange,diamond
381.0,4.0,4.0,0.0,4.0,4.0,593.3782870415598,1.0,1.0,phase_1,,,,,,,,,,,,,green,circle
209.0,3.0,2.0,0.0,2.0,2.0,502.3549390025437,1.0,1.0,phase_1,,,,,,,,,,,,,orange,diamond
0.0,1.0,0.0,0.0,1.0,1.0,450.2905929693952,1.0,1.0,phase_1,,,,,,,,,,,,,cyan,triangle
0.0,4.0,0.0,0.0,1.0,1.0,441.4012089837342,1.0,1.0,phase_1,,,,,,,,,,,,,green,circle
0.0,2.0,0.0,0.0,3.0,3.0,387.8809900488704,1.0,1.0,phase_1,,,,,,,,,,,,,white,square
102.0,2.0,1.0,0.0,2.0,2.0,400.8679299149662,1.0,1.0,phase_1,,,,,,,,,,,,,white,square
376.0,4.0,4.0,0.0,1.0,1.0,470.4977070214227,1.0,1.0,phase_1,,,,,,,,,,,,,green,circle
212.0,7.0,2.0,1.0,3.0,3.0,408.0202330369502,1.0,1.0,phase_1,,,,,,,,,,,,,magenta,flipped triangle
0.0,1.0,0.0,0.0,4.0,4.0,464.0574450604617,1.0,1.0,phase_1,,,,,,,,,,,,,cyan,triangle
210.0,7.0,2.0,1.0,1.0,1.0,405.3741099778563,1.0,1.0,phase_1,,,,,,,,,,,,,magenta,flipped triangle
422.0,4.0,4.0,0.0,1.0,1.0,465.9809391014278,1.0,1.0,phase_1,,,,,,,,,,,,,green,circle
116.0,6.0,1.0,1.0,2.0,2.0,380.6889440165832,1.0,1.0,phase_1,,,,,,,,,,,,,blue,cross
93.0,2.0,1.0,0.0,4.0,4.0,409.1878479812294,1.0,1.0,phase_1,,,,,,,,,,,,,white,square
56.0,1.0,0.5,0.0,1.0,1.0,557.4201680719852,1.0,1.0,phase_1,,,,,,,,,,,,,cyan,triangle
0.0,2.0,0.0,0.0,2.0,2.0,440.8493670634925,1.0,1.0,phase_1,,,,,,,,,,,,,white,square
123.0,6.0,1.0,1.0,1.0,1.0,481.4600209938362,1.0,1.0,phase_1,,,,,,,,,,,,,blue,cross
209.0,7.0,2.0,1.0,2.0,2.0,542.0154470484704,1.0,1.0,phase_1,,,,,,,,,,,,,magenta,flipped triangle
193.0,7.0,2.0,1.0,4.0,4.0,410.65102501306677,1.0,1.0,phase_1,,,,,,,,,,,,,magenta,flipped triangle
193.0,7.0,2.0,1.0,4.0,4.0,502.08601099438965,1.0,1.0,phase_1,,,,,,,,,,,,,magenta,flipped triangle
59.0,5.0,0.5,1.0,2.0,2.0,379.3616580078378,1.0,1.0,phase_1,,,,,,,,,,,,,gray,I
0.0,5.0,0.0,1.0,4.0,4.0,592.8919629659504,1.0,1.0,phase_1,,,,,,,,,,,,,gray,I
66.0,1.0,0.5,0.0,1.0,1.0,404.9551240168512,1.0,1.0,phase_1,,,,,,,,,,,,,cyan,triangle
59.0,1.0,0.5,0.0,3.0,3.0,415.6194820534438,1.0,1.0,phase_1,,,,,,,,,,,,,cyan,triangle
0.0,2.0,0.0,0.0,4.0,4.0,404.2553129838779,1.0,1.0,phase_1,,,,,,,,,,,,,white,square
0.0,5.0,0.0,1.0,1.0,1.0,354.7475381055847,1.0,1.0,phase_1,,,,,,,,,,,,,gray,I
397.0,4.0,4.0,0.0,1.0,1.0,471.5075199492275,1.0,1.0,phase_1,,,,,,,,,,,,,green,circle
98.0,6.0,1.0,1.0,1.0,1.0,331.901622004807,1.0,1.0,phase_1,,,,,,,,,,,,,blue,cross
100.0,6.0,1.0,1.0,2.0,2.0,415.6769450055435,1.0,1.0,phase_1,,,,,,,,,,,,,blue,cross
0.0,7.0,0.0,1.0,4.0,4.0,523.5705979866907,1.0,1.0,phase_1,,,,,,,,,,,,,magenta,flipped triangle
204.0,7.0,2.0,1.0,4.0,4.0,425.372347002849,1.0,1.0,phase_1,,,,,,,,,,,,,magenta,flipped triangle
198.0,3.0,2.0,0.0,1.0,1.0,413.9303100528195,1.0,1.0,phase_1,,,,,,,,,,,,,orange,diamond
0.0,7.0,0.0,1.0,4.0,4.0,409.6378650283441,1.0,1.0,phase_1,,,,,,,,,,,,,magenta,flipped triangle
31.0,5.0,0.5,1.0,3.0,3.0,441.2349950289354,1.0,1.0,phase_1,,,,,,,,,,,,,gray,I
406.0,4.0,4.0,0.0,1.0,1.0,332.8996740747243,1.0,1.0,phase_1,,,,,,,,,,,,,green,circle
84.0,2.0,1.0,0.0,2.0,2.0,310.4695450747385,1.0,1.0,phase_1,,,,,,,,,,,,,white,square
29.0,5.0,0.5,1.0,1.0,1.0,347.3015909548849,1.0,1.0,phase_1,,,,,,,,,,,,,gray,I
0.0,8.0,0.0,1.0,1.0,1.0,416.7302430141717,1.0,1.0,phase_1,,,,,,,,,,,,,yellow,hexagon
85.0,6.0,1.0,1.0,2.0,2.0,334.3423119513318,1.0,1.0,phase_1,,,,,,,,,,,,,blue,cross
0.0,7.0,0.0,1.0,1.0,1.0,354.2710830224678,1.0,1.0,phase_1,,,,,,,,,,,,,magenta,flipped triangle
385.0,4.0,4.0,0.0,4.0,4.0,430.5038100574165,1.0,1.0,phase_1,,,,,,,,,,,,,green,circle
38.0,5.0,0.5,1.0,4.0,4.0,429.9651370383799,1.0,1.0,phase_1,,,,,,,,,,,,,gray,I
63.0,1.0,0.5,0.0,3.0,3.0,451.5839779051021,1.0,1.0,phase_1,,,,,,,,,,,,,cyan,triangle
388.0,4.0,4.0,0.0,2.0,2.0,583.7226900039241,1.0,1.0,phase_1,,,,,,,,,,,,,green,circle
201.0,3.0,2.0,0.0,4.0,4.0,401.0927190538496,1.0,1.0,phase_1,,,,,,,,,,,,,orange,diamond
117.0,2.0,1.0,0.0,4.0,4.0,462.3733200132847,1.0,1.0,phase_1,,,,,,,,,,,,,white,square
208.0,3.0,2.0,0.0,1.0,1.0,502.07637692801654,1.0,1.0,phase_1,,,,,,,,,,,,,orange,diamond
401.0,4.0,4.0,0.0,3.0,3.0,367.8070550085976,1.0,1.0,phase_1,,,,,,,,,,,,,green,circle
69.0,5.0,0.5,1.0,3.0,3.0,477.8272119583562,1.0,1.0,phase_1,,,,,,,,,,,,,gray,I
118.0,2.0,1.0,0.0,4.0,4.0,332.2965350234881,1.0,1.0,phase_1,,,,,,,,,,,,,white,square
120.0,2.0,1.0,0.0,3.0,3.0,407.7934749657288,1.0,1.0,phase_1,,,,,,,,,,,,,white,square
49.0,1.0,0.5,0.0,4.0,4.0,282.42817602586,1.0,1.0,phase_1,,,,,,,,,,,,,cyan,triangle
98.0,6.0,1.0,1.0,3.0,3.0,375.6753359921276,1.0,1.0,phase_1,,,,,,,,,,,,,blue,cross
0.0,1.0,0.0,0.0,2.0,2.0,444.3868499947712,1.0,1.0,phase_1,,,,,,,,,,,,,cyan,triangle
0.0,4.0,0.0,0.0,1.0,1.0,407.8611360164359,1.0,1.0,phase_1,,,,,,,,,,,,,green,circle
0.0,4.0,0.0,0.0,4.0,4.0,384.7298629116267,1.0,1.0,phase_1,,,,,,,,,,,,,green,circle
221.0,7.0,2.0,1.0,2.0,2.0,404.2927880072966,1.0,1.0,phase_1,,,,,,,,,,,,,magenta,flipped triangle
63.0,1.0,0.5,0.0,2.0,2.0,400.0387859996408,1.0,1.0,phase_1,,,,,,,,,,,,,cyan,triangle
0.0,7.0,0.0,1.0,3.0,3.0,394.36580997426057,1.0,1.0,phase_1,,,,,,,,,,,,,magenta,flipped triangle
193.0,3.0,2.0,0.0,1.0,1.0,442.1103469794616,1.0,1.0,phase_1,,,,,,,,,,,,,orange,diamond
213.0,3.0,2.0,0.0,4.0,4.0,334.8774110199883,1.0,1.0,phase_1,,,,,,,,,,,,,orange,diamond
85.0,2.0,1.0,0.0,2.0,2.0,482.3696640087291,1.0,1.0,phase_1,,,,,,,,,,,,,white,square
106.0,6.0,1.0,1.0,1.0,1.0,344.1769949859008,1.0,1.0,phase_1,,,,,,,,,,,,,blue,cross
47.0,1.0,0.5,0.0,1.0,1.0,396.9324249774217,1.0,1.0,phase_1,,,,,,,,,,,,,cyan,triangle
0.0,3.0,0.0,0.0,3.0,3.0,496.0135059664026,1.0,1.0,phase_1,,,,,,,,,,,,,orange,diamond
37.0,5.0,0.5,1.0,3.0,3.0,483.4752479800954,1.0,1.0,phase_1,,,,,,,,,,,,,gray,I
53.0,1.0,0.5,0.0,3.0,3.0,427.3932919604704,1.0,1.0,phase_1,,,,,,,,,,,,,cyan,triangle
376.0,8.0,4.0,1.0,2.0,2.0,439.8602329893037,1.0,1.0,phase_1,,,,,,,,,,,,,yellow,hexagon
90.0,2.0,1.0,0.0,2.0,2.0,418.1125980103388,1.0,1.0,phase_1,,,,,,,,,,,,,white,square
84.0,6.0,1.0,1.0,4.0,4.0,439.8369730915874,1.0,1.0,phase_1,,,,,,,,,,,,,blue,cross
81.0,6.0,1.0,1.0,3.0,3.0,390.6126590445637,1.0,1.0,phase_1,,,,,,,,,,,,,blue,cross
90.0,6.0,1.0,1.0,2.0,2.0,513.8104150537401,1.0,1.0,phase_1,,,,,,,,,,,,,blue,cross
43.0,1.0,0.5,0.0,1.0,1.0,397.9153269901871,1.0,1.0,phase_1,,,,,,,,,,,,,cyan,triangle
0.0,4.0,0.0,0.0,1.0,1.0,592.5235790200531,1.0,1.0,phase_1,,,,,,,,,,,,,green,circle
208.0,7.0,2.0,1.0,3.0,3.0,301.5879250597209,1.0,1.0,phase_1,,,,,,,,,,,,,magenta,flipped triangle
218.0,3.0,2.0,0.0,4.0,4.0,485.2274149889126,1.0,1.0,phase_1,,,,,,,,,,,,,orange,diamond
198.0,3.0,2.0,0.0,1.0,1.0,448.0981939705089,2.0,1.0,phase_1,,,,,,,,,,,,,orange,diamond
404.0,4.0,4.0,0.0,2.0,2.0,364.6261350950226,2.0,1.0,phase_1,,,,,,,,,,,,,green,circle
49.0,5.0,0.5,1.0,1.0,1.0,415.1922840392217,2.0,1.0,phase_1,,,,,,,,,,,,,gray,I
415.0,4.0,4.0,0.0,2.0,2.0,396.3297560112551,2.0,1.0,phase_1,,,,,,,,,,,,,green,circle
425.0,4.0,4.0,0.0,1.0,1.0,506.4258729107678,2.0,1.0,phase_1,,,,,,,,,,,,,green,circle
98.0,2.0,1.0,0.0,3.0,3.0,383.2910340279341,2.0,1.0,phase_1,,,,,,,,,,,,,white,square
390.0,8.0,4.0,1.0,4.0,4.0,444.9089600238949,2.0,1.0,phase_1,,,,,,,,,,,,,yellow,hexagon
77.0,6.0,1.0,1.0,4.0,4.0,464.6369789261371,2.0,1.0,phase_1,,,,,,,,,,,,,blue,cross
205.0,7.0,2.0,1.0,2.0,2.0,420.5107530578971,2.0,1.0,phase_1,,,,,,,,,,,,,magenta,flipped triangle
0.0,6.0,0.0,1.0,3.0,3.0,394.0708150621503,2.0,1.0,phase_1,,,,,,,,,,,,,blue,cross
118.0,6.0,1.0,1.0,3.0,3.0,366.7896060505882,2.0,1.0,phase_1,,,,,,,,,,,,,blue,cross
64.0,5.0,0.5,1.0,4.0,4.0,443.8956779194996,2.0,1.0,phase_1,,,,,,,,,,,,,gray,I
199.0,7.0,2.0,1.0,4.0,4.0,349.6170240687206,2.0,1.0,phase_1,,,,,,,,,,,,,magenta,flipped triangle
47.0,5.0,0.5,1.0,4.0,4.0,435.6588160153478,2.0,1.0,phase_1,,,,,,,,,,,,,gray,I
0.0,5.0,0.0,1.0,3.0,3.0,342.9417300503701,2.0,1.0,phase_1,,,,,,,,,,,,,gray,I
410.0,8.0,4.0,1.0,4.0,4.0,398.2156980782747,2.0,1.0,phase_1,,,,,,,,,,,,,yellow,hexagon
379.0,4.0,4.0,0.0,2.0,2.0,473.7057560123503,2.0,1.0,phase_1,,,,,,,,,,,,,green,circle
54.0,5.0,0.5,1.0,2.0,2.0,375.397113035433,2.0,1.0,phase_1,,,,,,,,,,,,,gray,I
205.0,3.0,2.0,0.0,3.0,3.0,419.0516660455614,2.0,1.0,phase_1,,,,,,,,,,,,,orange,diamond
111.0,2.0,1.0,0.0,4.0,4.0,536.1481829313561,2.0,1.0,phase_1,,,,,,,,,,,,,white,square
28.0,5.0,0.5,1.0,3.0,3.0,354.6107989968732,2.0,1.0,phase_1,,,,,,,,,,,,,gray,I
194.0,3.0,2.0,0.0,2.0,2.0,371.1481540231034,2.0,1.0,phase_1,,,,,,,,,,,,,orange,diamond
0.0,7.0,0.0,1.0,1.0,1.0,364.4277059938758,2.0,1.0,phase_1,,,,,,,,,,,,,magenta,flipped triangle
125.0,6.0,1.0,1.0,4.0,4.0,394.5616040145978,2.0,1.0,phase_1,,,,,,,,,,,,,blue,cross
383.0,4.0,4.0,0.0,4.0,4.0,359.6141500165686,2.0,1.0,phase_1,,,,,,,,,,,,,green,circle
184.0,3.0,2.0,0.0,1.0,1.0,349.3939789477736,2.0,1.0,phase_1,,,,,,,,,,,,,orange,diamond
95.0,6.0,1.0,1.0,1.0,1.0,487.1981700416654,2.0,1.0,phase_1,,,,,,,,,,,,,blue,cross
0.0,3.0,0.0,0.0,4.0,4.0,372.2400719998404,2.0,1.0,phase_1,,,,,,,,,,,,,orange,diamond
193.0,3.0,2.0,0.0,1.0,1.0,451.5475219814107,2.0,1.0,phase_1,,,,,,,,,,,,,orange,diamond
30.0,5.0,0.5,1.0,4.0,4.0,468.8919279724359,2.0,2.0,phase_1,,,,,,,,,,,,,gray,I
120.0,6.0,1.0,1.0,4.0,4.0,431.2516479985788,2.0,1.0,phase_1,,,,,,,,,,,,,blue,cross
0.0,4.0,0.0,0.0,3.0,3.0,548.8252229988575,2.0,1.0,phase_1,,,,,,,,,,,,,green,circle
46.0,1.0,0.5,0.0,1.0,1.0,519.6458509890363,2.0,1.0,phase_1,,,,,,,,,,,,,cyan,triangle
65.0,5.0,0.5,1.0,1.0,1.0,492.3610190162435,2.0,1.0,phase_1,,,,,,,,,,,,,gray,I
202.0,3.0,2.0,0.0,3.0,3.0,370.0850179884583,2.0,1.0,phase_1,,,,,,,,,,,,,orange,diamond
0.0,7.0,0.0,1.0,1.0,1.0,414.6207579178735,2.0,1.0,phase_1,,,,,,,,,,,,,magenta,flipped triangle
423.0,4.0,4.0,0.0,1.0,1.0,419.3617319688201,2.0,1.0,phase_1,,,,,,,,,,,,,green,circle
191.0,3.0,2.0,0.0,4.0,4.0,497.5906800245866,2.0,1.0,phase_1,,,,,,,,,,,,,orange,diamond
224.0,7.0,2.0,1.0,4.0,4.0,463.4195809485391,2.0,1.0,phase_1,,,,,,,,,,,,,magenta,flipped triangle
123.0,2.0,1.0,0.0,1.0,1.0,612.1603869833052,2.0,1.0,phase_1,,,,,,,,,,,,,white,square
0.0,5.0,0.0,1.0,3.0,3.0,480.229562963359,2.0,1.0,phase_1,,,,,,,,,,,,,gray,I
189.0,3.0,2.0,0.0,2.0,2.0,612.3825759859756,2.0,1.0,phase_1,,,,,,,,,,,,,orange,diamond
201.0,3.0,2.0,0.0,4.0,4.0,494.867580011487,2.0,1.0,phase_1,,,,,,,,,,,,,orange,diamond
180.0,7.0,2.0,1.0,4.0,4.0,459.3284410657361,2.0,1.0,phase_1,,,,,,,,,,,,,magenta,flipped triangle
388.0,4.0,4.0,0.0,1.0,1.0,475.7850889582187,2.0,1.0,phase_1,,,,,,,,,,,,,green,circle
108.0,2.0,1.0,0.0,1.0,1.0,439.1861030599102,2.0,1.0,phase_1,,,,,,,,,,,,,white,square
0.0,2.0,0.0,0.0,1.0,1.0,435.8345699729398,2.0,1.0,phase_1,,,,,,,,,,,,,white,square
199.0,7.0,2.0,1.0,3.0,3.0,486.5514510311186,2.0,1.0,phase_1,,,,,,,,,,,,,magenta,flipped triangle
54.0,1.0,0.5,0.0,4.0,4.0,506.61494594532996,2.0,1.0,phase_1,,,,,,,,,,,,,cyan,triangle
180.0,3.0,2.0,0.0,4.0,4.0,471.465594950132,2.0,1.0,phase_1,,,,,,,,,,,,,orange,diamond
120.0,2.0,1.0,0.0,4.0,4.0,391.9580919900909,2.0,1.0,phase_1,,,,,,,,,,,,,white,square
0.0,6.0,0.0,1.0,2.0,2.0,434.9321080371737,2.0,1.0,phase_1,,,,,,,,,,,,,blue,cross
0.0,3.0,0.0,0.0,1.0,1.0,517.746775993146,2.0,1.0,phase_1,,,,,,,,,,,,,orange,diamond
66.0,1.0,0.5,0.0,2.0,2.0,462.0655509643256,2.0,1.0,phase_1,,,,,,,,,,,,,cyan,triangle
383.0,8.0,4.0,1.0,2.0,2.0,567.1652720775455,2.0,1.0,phase_1,,,,,,,,,,,,,yellow,hexagon
0.0,8.0,0.0,1.0,2.0,2.0,341.785809956491,2.0,1.0,phase_1,,,,,,,,,,,,,yellow,hexagon
411.0,4.0,4.0,0.0,3.0,3.0,427.3763180244714,2.0,1.0,phase_1,,,,,,,,,,,,,green,circle
392.0,4.0,4.0,0.0,4.0,4.0,577.1460440009832,2.0,1.0,phase_1,,,,,,,,,,,,,green,circle
0.0,2.0,0.0,0.0,4.0,4.0,573.5540699679404,2.0,1.0,phase_1,,,,,,,,,,,,,white,square
80.0,2.0,1.0,0.0,2.0,2.0,473.4758130507543,2.0,1.0,phase_1,,,,,,,,,,,,,white,square
78.0,6.0,1.0,1.0,3.0,3.0,484.7467950312421,2.0,1.0,phase_1,,,,,,,,,,,,,blue,cross
65.0,1.0,0.5,0.0,1.0,1.0,439.4835900748148,2.0,1.0,phase_1,,,,,,,,,,,,,cyan,triangle
412.0,4.0,4.0,0.0,3.0,3.0,431.503536994569,2.0,1.0,phase_1,,,,,,,,,,,,,green,circle
177.0,7.0,2.0,1.0,3.0,3.0,443.1334380060434,2.0,1.0,phase_1,,,,,,,,,,,,,magenta,flipped triangle
54.0,1.0,0.5,0.0,1.0,1.0,512.9227769793943,2.0,1.0,phase_1,,,,,,,,,,,,,cyan,triangle
103.0,6.0,1.0,1.0,4.0,4.0,450.289191910997,2.0,1.0,phase_1,,,,,,,,,,,,,blue,cross
0.0,1.0,0.0,0.0,4.0,4.0,463.7625499162823,2.0,1.0,phase_1,,,,,,,,,,,,,cyan,triangle
417.0,4.0,4.0,0.0,1.0,1.0,526.4488200191408,2.0,1.0,phase_1,,,,,,,,,,,,,green,circle
396.0,4.0,4.0,0.0,2.0,2.0,482.6843659393489,2.0,1.0,phase_1,,,,,,,,,,,,,green,circle
400.0,8.0,4.0,1.0,1.0,1.0,413.8379230862483,2.0,1.0,phase_1,,,,,,,,,,,,,yellow,hexagon
201.0,7.0,2.0,1.0,2.0,2.0,563.1342580309138,2.0,1.0,phase_1,,,,,,,,,,,,,magenta,flipped triangle
69.0,1.0,0.5,0.0,4.0,4.0,606.4062810037285,2.0,1.0,phase_1,,,,,,,,,,,,,cyan,triangle
219.0,3.0,2.0,0.0,2.0,2.0,514.9207739159465,2.0,1.0,phase_1,,,,,,,,,,,,,orange,diamond
118.0,2.0,1.0,0.0,1.0,1.0,459.5752160530537,2.0,1.0,phase_1,,,,,,,,,,,,,white,square
0.0,8.0,0.0,1.0,4.0,4.0,516.6115199681371,2.0,1.0,phase_1,,,,,,,,,,,,,yellow,hexagon
38.0,1.0,0.5,0.0,4.0,4.0,434.2023959616199,2.0,1.0,phase_1,,,,,,,,,,,,,cyan,triangle
0.0,5.0,0.0,1.0,1.0,1.0,454.6365649439394,2.0,1.0,phase_1,,,,,,,,,,,,,gray,I
198.0,7.0,2.0,1.0,3.0,3.0,469.8090349556878,2.0,1.0,phase_1,,,,,,,,,,,,,magenta,flipped triangle
224.0,3.0,2.0,0.0,3.0,3.0,432.1613869396969,2.0,1.0,phase_1,,,,,,,,,,,,,orange,diamond
63.0,5.0,0.5,1.0,3.0,3.0,532.4032210046425,2.0,1.0,phase_1,,,,,,,,,,,,,gray,I
63.0,5.0,0.5,1.0,4.0,4.0,601.7876809928566,2.0,1.0,phase_1,,,,,,,,,,,,,gray,I
66.0,5.0,0.5,1.0,3.0,3.0,472.1461599692702,2.0,1.0,phase_1,,,,,,,,,,,,,gray,I
114.0,2.0,1.0,0.0,3.0,3.0,442.7414359524846,2.0,1.0,phase_1,,,,,,,,,,,,,white,square
385.0,4.0,4.0,0.0,1.0,1.0,535.4678679723293,2.0,1.0,phase_1,,,,,,,,,,,,,green,circle
0.0,1.0,0.0,0.0,1.0,1.0,447.4727169144898,2.0,1.0,phase_1,,,,,,,,,,,,,cyan,triangle
37.0,1.0,0.5,0.0,3.0,3.0,296.8219929607585,2.0,1.0,phase_1,,,,,,,,,,,,,cyan,triangle
191.0,7.0,2.0,1.0,1.0,1.0,472.5822039181366,2.0,1.0,phase_1,,,,,,,,,,,,,magenta,flipped triangle
29.0,1.0,0.5,0.0,4.0,4.0,545.3833349747583,2.0,1.0,phase_1,,,,,,,,,,,,,cyan,triangle
0.0,7.0,0.0,1.0,2.0,2.0,447.3913391120732,2.0,1.0,phase_1,,,,,,,,,,,,,magenta,flipped triangle
118.0,6.0,1.0,1.0,2.0,2.0,459.4655379187315,2.0,1.0,phase_1,,,,,,,,,,,,,blue,cross
92.0,2.0,1.0,0.0,4.0,4.0,419.8206509463489,2.0,1.0,phase_1,,,,,,,,,,,,,white,square
388.0,8.0,4.0,1.0,4.0,4.0,468.2310839416459,2.0,1.0,phase_1,,,,,,,,,,,,,yellow,hexagon
77.0,2.0,1.0,0.0,1.0,1.0,450.5526609718799,2.0,1.0,phase_1,,,,,,,,,,,,,white,square
187.0,3.0,2.0,0.0,2.0,2.0,565.8941640285775,2.0,1.0,phase_1,,,,,,,,,,,,,orange,diamond
0.0,6.0,0.0,1.0,4.0,4.0,613.8482809765264,2.0,1.0,phase_1,,,,,,,,,,,,,blue,cross
387.0,8.0,4.0,1.0,3.0,3.0,351.4683350222185,2.0,1.0,phase_1,,,,,,,,,,,,,yellow,hexagon
47.0,1.0,0.5,0.0,4.0,4.0,454.549003043212,2.0,1.0,phase_1,,,,,,,,,,,,,cyan,triangle
109.0,6.0,1.0,1.0,1.0,1.0,377.7223720680922,2.0,1.0,phase_1,,,,,,,,,,,,,blue,cross
101.0,6.0,1.0,1.0,1.0,1.0,423.3755759196356,2.0,1.0,phase_1,,,,,,,,,,,,,blue,cross
62.0,5.0,0.5,1.0,2.0,2.0,468.0058029480278,2.0,1.0,phase_1,,,,,,,,,,,,,gray,I
0.0,6.0,0.0,1.0,2.0,2.0,467.9137440398335,3.0,1.0,phase_1,,,,,,,,,,,,,blue,cross
63.0,5.0,0.5,1.0,3.0,3.0,416.5648350026458,3.0,1.0,phase_1,,,,,,,,,,,,,gray,I
177.0,3.0,2.0,0.0,3.0,3.0,428.1276910332963,3.0,1.0,phase_1,,,,,,,,,,,,,orange,diamond
403.0,8.0,4.0,1.0,4.0,4.0,499.0416819928214,3.0,1.0,phase_1,,,,,,,,,,,,,yellow,hexagon
72.0,5.0,0.5,1.0,1.0,1.0,475.8146849926561,3.0,1.0,phase_1,,,,,,,,,,,,,gray,I
84.0,6.0,1.0,1.0,1.0,1.0,464.9370139231905,3.0,1.0,phase_1,,,,,,,,,,,,,blue,cross
194.0,7.0,2.0,1.0,4.0,4.0,584.7741879988462,3.0,1.0,phase_1,,,,,,,,,,,,,magenta,flipped triangle
81.0,2.0,1.0,0.0,3.0,3.0,380.3413580171764,3.0,1.0,phase_1,,,,,,,,,,,,,white,square
405.0,8.0,4.0,1.0,2.0,2.0,424.2957109818235,3.0,1.0,phase_1,,,,,,,,,,,,,yellow,hexagon
63.0,1.0,0.5,0.0,1.0,1.0,418.4975629905239,3.0,1.0,phase_1,,,,,,,,,,,,,cyan,triangle
100.0,6.0,1.0,1.0,1.0,1.0,506.0276900185272,3.0,1.0,phase_1,,,,,,,,,,,,,blue,cross
47.0,5.0,0.5,1.0,1.0,1.0,399.6101639932021,3.0,1.0,phase_1,,,,,,,,,,,,,gray,I
59.0,1.0,0.5,0.0,1.0,1.0,378.3794930204749,3.0,1.0,phase_1,,,,,,,,,,,,,cyan,triangle
395.0,4.0,4.0,0.0,3.0,3.0,479.1610790416598,3.0,1.0,phase_1,,,,,,,,,,,,,green,circle
194.0,7.0,2.0,1.0,1.0,1.0,708.8234489783645,3.0,1.0,phase_1,,,,,,,,,,,,,magenta,flipped triangle
403.0,4.0,4.0,0.0,3.0,3.0,439.6086970809847,3.0,1.0,phase_1,,,,,,,,,,,,,green,circle
0.0,4.0,0.0,0.0,2.0,2.0,500.5122940056026,3.0,1.0,phase_1,,,,,,,,,,,,,green,circle
377.0,8.0,4.0,1.0,4.0,4.0,618.087567971088,3.0,1.0,phase_1,,,,,,,,,,,,,yellow,hexagon
199.0,3.0,2.0,0.0,4.0,4.0,525.4760929383337,3.0,1.0,phase_1,,,,,,,,,,,,,orange,diamond
423.0,8.0,4.0,1.0,4.0,4.0,643.4919439489022,3.0,1.0,phase_1,,,,,,,,,,,,,yellow,hexagon
65.0,5.0,0.5,1.0,3.0,3.0,497.391487006098,3.0,1.0,phase_1,,,,,,,,,,,,,gray,I
0.0,2.0,0.0,0.0,1.0,1.0,578.7414150545374,3.0,1.0,phase_1,,,,,,,,,,,,,white,square
117.0,2.0,1.0,0.0,2.0,2.0,440.4460149817168,3.0,1.0,phase_1,,,,,,,,,,,,,white,square
53.0,5.0,0.5,1.0,1.0,1.0,566.5921350009739,3.0,1.0,phase_1,,,,,,,,,,,,,gray,I
111.0,6.0,1.0,1.0,3.0,3.0,546.9310249900445,3.0,1.0,phase_1,,,,,,,,,,,,,blue,cross
117.0,6.0,1.0,1.0,4.0,4.0,589.8945970693603,3.0,1.0,phase_1,,,,,,,,,,,,,blue,cross
0.0,6.0,0.0,1.0,3.0,3.0,470.4209750052541,3.0,1.0,phase_1,,,,,,,,,,,,,blue,cross
213.0,7.0,2.0,1.0,1.0,1.0,578.2723299926147,3.0,1.0,phase_1,,,,,,,,,,,,,magenta,flipped triangle
422.0,8.0,4.0,1.0,1.0,1.0,428.34110895637417,3.0,1.0,phase_1,,,,,,,,,,,,,yellow,hexagon
401.0,8.0,4.0,1.0,2.0,2.0,363.5469280416146,3.0,1.0,phase_1,,,,,,,,,,,,,yellow,hexagon
49.0,1.0,0.5,0.0,2.0,2.0,399.511213065125,3.0,1.0,phase_1,,,,,,,,,,,,,cyan,triangle
84.0,2.0,1.0,0.0,1.0,1.0,555.5104040540755,3.0,1.0,phase_1,,,,,,,,,,,,,white,square
36.0,5.0,0.5,1.0,2.0,2.0,431.622095988132,3.0,1.0,phase_1,,,,,,,,,,,,,gray,I
34.0,1.0,0.5,0.0,1.0,1.0,406.7798189353198,3.0,1.0,phase_1,,,,,,,,,,,,,cyan,triangle
0.0,5.0,0.0,1.0,2.0,2.0,442.3720370978117,3.0,1.0,phase_1,,,,,,,,,,,,,gray,I
72.0,1.0,0.5,0.0,2.0,2.0,420.2053860062733,3.0,1.0,phase_1,,,,,,,,,,,,,cyan,triangle
187.0,7.0,2.0,1.0,4.0,4.0,587.7524360548705,3.0,1.0,phase_1,,,,,,,,,,,,,magenta,flipped triangle
418.0,8.0,4.0,1.0,4.0,4.0,478.722839965485,3.0,1.0,phase_1,,,,,,,,,,,,,yellow,hexagon
402.0,8.0,4.0,1.0,1.0,1.0,548.7449819920585,3.0,1.0,phase_1,,,,,,,,,,,,,yellow,hexagon
0.0,2.0,0.0,0.0,4.0,4.0,479.5405219774693,3.0,1.0,phase_1,,,,,,,,,,,,,white,square
98.0,2.0,1.0,0.0,1.0,1.0,548.3239229070023,3.0,1.0,phase_1,,,,,,,,,,,,,white,square
0.0,3.0,0.0,0.0,1.0,1.0,435.2036669151857,3.0,1.0,phase_1,,,,,,,,,,,,,orange,diamond
57.0,5.0,0.5,1.0,1.0,1.0,464.697299990803,3.0,1.0,phase_1,,,,,,,,,,,,,gray,I
0.0,3.0,0.0,0.0,2.0,2.0,442.4057089490816,3.0,1.0,phase_1,,,,,,,,,,,,,orange,diamond
31.0,1.0,0.5,0.0,2.0,2.0,398.5456260852515,3.0,1.0,phase_1,,,,,,,,,,,,,cyan,triangle
412.0,8.0,4.0,1.0,3.0,3.0,526.6269469866529,3.0,1.0,phase_1,,,,,,,,,,,,,yellow,hexagon
395.0,8.0,4.0,1.0,3.0,3.0,450.2635999815538,3.0,1.0,phase_1,,,,,,,,,,,,,yellow,hexagon
401.0,4.0,4.0,0.0,2.0,2.0,436.6917179431766,3.0,1.0,phase_1,,,,,,,,,,,,,green,circle
28.0,1.0,0.5,0.0,2.0,2.0,396.8236850341782,3.0,1.0,phase_1,,,,,,,,,,,,,cyan,triangle
0.0,8.0,0.0,1.0,4.0,4.0,559.485389967449,3.0,1.0,phase_1,,,,,,,,,,,,,yellow,hexagon
177.0,3.0,2.0,0.0,4.0,4.0,420.4650359461084,3.0,1.0,phase_1,,,,,,,,,,,,,orange,diamond
387.0,4.0,4.0,0.0,2.0,2.0,618.1266329949722,3.0,1.0,phase_1,,,,,,,,,,,,,green,circle
385.0,8.0,4.0,1.0,1.0,1.0,404.3911269400269,3.0,1.0,phase_1,,,,,,,,,,,,,yellow,hexagon
85.0,6.0,1.0,1.0,4.0,4.0,418.1833980837837,3.0,1.0,phase_1,,,,,,,,,,,,,blue,cross
0.0,3.0,0.0,0.0,2.0,2.0,374.8236189130693,3.0,1.0,phase_1,,,,,,,,,,,,,orange,diamond
33.0,5.0,0.5,1.0,2.0,2.0,379.4373120181262,3.0,1.0,phase_1,,,,,,,,,,,,,gray,I
120.0,6.0,1.0,1.0,3.0,3.0,441.411889041774,3.0,1.0,phase_1,,,,,,,,,,,,,blue,cross
177.0,3.0,2.0,0.0,3.0,3.0,363.9662120258435,3.0,1.0,phase_1,,,,,,,,,,,,,orange,diamond
82.0,6.0,1.0,1.0,4.0,4.0,520.9707890171558,3.0,1.0,phase_1,,,,,,,,,,,,,blue,cross
109.0,2.0,1.0,0.0,1.0,1.0,525.0920839607716,3.0,1.0,phase_1,,,,,,,,,,,,,white,square
379.0,8.0,4.0,1.0,3.0,3.0,388.2347220787778,3.0,1.0,phase_1,,,,,,,,,,,,,yellow,hexagon
216.0,7.0,2.0,1.0,2.0,2.0,457.4203070951625,3.0,1.0,phase_1,,,,,,,,,,,,,magenta,flipped triangle
385.0,8.0,4.0,1.0,2.0,2.0,418.6545789707452,3.0,1.0,phase_1,,,,,,,,,,,,,yellow,hexagon
0.0,2.0,0.0,0.0,1.0,1.0,511.9386659935117,3.0,1.0,phase_1,,,,,,,,,,,,,white,square
418.0,4.0,4.0,0.0,2.0,2.0,358.8871289975941,3.0,1.0,phase_1,,,,,,,,,,,,,green,circle
28.0,1.0,0.5,0.0,3.0,3.0,501.3984889956191,3.0,1.0,phase_1,,,,,,,,,,,,,cyan,triangle
216.0,3.0,2.0,0.0,2.0,2.0,367.920009070076,3.0,1.0,phase_1,,,,,,,,,,,,,orange,diamond
419.0,4.0,4.0,0.0,3.0,3.0,362.690195092,3.0,1.0,phase_1,,,,,,,,,,,,,green,circle
77.0,2.0,1.0,0.0,3.0,3.0,399.2253680480644,3.0,1.0,phase_1,,,,,,,,,,,,,white,square
100.0,2.0,1.0,0.0,2.0,2.0,422.4593570688739,3.0,1.0,phase_1,,,,,,,,,,,,,white,square
0.0,6.0,0.0,1.0,3.0,3.0,476.4048170763999,3.0,1.0,phase_1,,,,,,,,,,,,,blue,cross
417.0,8.0,4.0,1.0,4.0,4.0,541.4439449086785,3.0,1.0,phase_1,,,,,,,,,,,,,yellow,hexagon
0.0,3.0,0.0,0.0,1.0,1.0,524.7234390117228,3.0,1.0,phase_1,,,,,,,,,,,,,orange,diamond
116.0,2.0,1.0,0.0,3.0,3.0,394.8323919903487,3.0,1.0,phase_1,,,,,,,,,,,,,white,square
53.0,5.0,0.5,1.0,1.0,1.0,435.4317400138825,3.0,1.0,phase_1,,,,,,,,,,,,,gray,I
0.0,1.0,0.0,0.0,3.0,3.0,322.5354159949347,3.0,1.0,phase_1,,,,,,,,,,,,,cyan,triangle
392.0,8.0,4.0,1.0,1.0,1.0,541.3316679187119,3.0,1.0,phase_1,,,,,,,,,,,,,yellow,hexagon
402.0,4.0,4.0,0.0,4.0,4.0,385.9950579935685,3.0,1.0,phase_1,,,,,,,,,,,,,green,circle
405.0,4.0,4.0,0.0,2.0,2.0,438.4125930955633,3.0,1.0,phase_1,,,,,,,,,,,,,green,circle
43.0,5.0,0.5,1.0,4.0,4.0,651.4281770214438,3.0,1.0,phase_1,,,,,,,,,,,,,gray,I
220.0,7.0,2.0,1.0,4.0,4.0,696.6153669636697,3.0,1.0,phase_1,,,,,,,,,,,,,magenta,flipped triangle
38.0,1.0,0.5,0.0,3.0,3.0,443.9496090635657,3.0,1.0,phase_1,,,,,,,,,,,,,cyan,triangle
377.0,4.0,4.0,0.0,4.0,4.0,428.4782520262524,3.0,1.0,phase_1,,,,,,,,,,,,,green,circle
53.0,1.0,0.5,0.0,3.0,3.0,414.4196499837562,3.0,1.0,phase_1,,,,,,,,,,,,,cyan,triangle
221.0,3.0,2.0,0.0,3.0,3.0,346.5402800356969,3.0,1.0,phase_1,,,,,,,,,,,,,orange,diamond
80.0,6.0,1.0,1.0,2.0,2.0,407.6179550029337,3.0,1.0,phase_1,,,,,,,,,,,,,blue,cross
0.0,8.0,0.0,1.0,4.0,4.0,558.6841729236767,3.0,1.0,phase_1,,,,,,,,,,,,,yellow,hexagon
394.0,4.0,4.0,0.0,3.0,3.0,435.095472028479,3.0,1.0,phase_1,,,,,,,,,,,,,green,circle
98.0,6.0,1.0,1.0,1.0,1.0,492.9422360146418,3.0,1.0,phase_1,,,,,,,,,,,,,blue,cross
0.0,6.0,0.0,1.0,2.0,2.0,450.7820770377293,3.0,1.0,phase_1,,,,,,,,,,,,,blue,cross
56.0,5.0,0.5,1.0,4.0,4.0,554.4509410392493,3.0,1.0,phase_1,,,,,,,,,,,,,gray,I
63.0,1.0,0.5,0.0,3.0,3.0,406.7822970682755,3.0,1.0,phase_1,,,,,,,,,,,,,cyan,triangle
425.0,8.0,4.0,1.0,4.0,4.0,455.7445029495284,3.0,1.0,phase_1,,,,,,,,,,,,,yellow,hexagon
199.0,3.0,2.0,0.0,2.0,2.0,431.072941981256,3.0,1.0,phase_1,,,,,,,,,,,,,orange,diamond
0.0,4.0,0.0,0.0,4.0,4.0,501.50884001050144,3.0,1.0,phase_1,,,,,,,,,,,,,green,circle
224.0,3.0,2.0,0.0,2.0,2.0,326.5958339907229,3.0,1.0,phase_1,,,,,,,,,,,,,orange,diamond
0.0,8.0,0.0,1.0,4.0,4.0,365.6511500012129,3.0,1.0,phase_1,,,,,,,,,,,,,yellow,hexagon
29.0,1.0,0.5,0.0,4.0,4.0,600.0619769329205,3.0,1.0,phase_1,,,,,,,,,,,,,cyan,triangle
0.0,4.0,0.0,0.0,4.0,4.0,366.2238250253722,3.0,1.0,phase_1,,,,,,,,,,,,,green,circle
95.0,2.0,1.0,0.0,2.0,2.0,521.3427379494533,3.0,1.0,phase_1,,,,,,,,,,,,,white,square
397.0,8.0,4.0,1.0,1.0,1.0,352.0144510548562,4.0,1.0,phase_1,,,,,,,,,,,,,yellow,hexagon
36.0,1.0,0.5,0.0,4.0,4.0,425.3720688866451,4.0,1.0,phase_1,,,,,,,,,,,,,cyan,triangle
102.0,6.0,1.0,1.0,4.0,4.0,398.0072590056807,4.0,1.0,phase_1,,,,,,,,,,,,,blue,cross
214.0,7.0,2.0,1.0,4.0,4.0,260.6415710179135,4.0,1.0,phase_1,,,,,,,,,,,,,magenta,flipped triangle
96.0,2.0,1.0,0.0,4.0,4.0,350.7580989971757,4.0,1.0,phase_1,,,,,,,,,,,,,white,square
106.0,2.0,1.0,0.0,2.0,2.0,395.9089140407741,4.0,1.0,phase_1,,,,,,,,,,,,,white,square
407.0,8.0,4.0,1.0,3.0,3.0,362.8425489878282,4.0,1.0,phase_1,,,,,,,,,,,,,yellow,hexagon
114.0,6.0,1.0,1.0,2.0,2.0,358.7661300553009,4.0,1.0,phase_1,,,,,,,,,,,,,blue,cross
191.0,3.0,2.0,0.0,1.0,1.0,401.6204400686547,4.0,1.0,phase_1,,,,,,,,,,,,,orange,diamond
194.0,3.0,2.0,0.0,2.0,2.0,337.1409240644425,4.0,1.0,phase_1,,,,,,,,,,,,,orange,diamond
0.0,5.0,0.0,1.0,2.0,2.0,358.1926430342719,4.0,1.0,phase_1,,,,,,,,,,,,,gray,I
38.0,5.0,0.5,1.0,2.0,2.0,288.5430359747261,4.0,1.0,phase_1,,,,,,,,,,,,,gray,I
423.0,4.0,4.0,0.0,1.0,1.0,408.5541409440338,4.0,1.0,phase_1,,,,,,,,,,,,,green,circle
415.0,8.0,4.0,1.0,3.0,3.0,507.8417669283226,4.0,1.0,phase_1,,,,,,,,,,,,,yellow,hexagon
30.0,1.0,0.5,0.0,2.0,2.0,352.9702360974625,4.0,1.0,phase_1,,,,,,,,,,,,,cyan,triangle
398.0,8.0,4.0,1.0,3.0,3.0,349.0333629306406,4.0,1.0,phase_1,,,,,,,,,,,,,yellow,hexagon
419.0,8.0,4.0,1.0,1.0,1.0,431.3506509643048,4.0,1.0,phase_1,,,,,,,,,,,,,yellow,hexagon
413.0,8.0,4.0,1.0,2.0,2.0,373.7763039534911,4.0,1.0,phase_1,,,,,,,,,,,,,yellow,hexagon
63.0,5.0,0.5,1.0,1.0,1.0,507.8248280333355,4.0,1.0,phase_1,,,,,,,,,,,,,gray,I
0.0,5.0,0.0,1.0,4.0,4.0,525.0677269650623,4.0,1.0,phase_1,,,,,,,,,,,,,gray,I
0.0,6.0,0.0,1.0,2.0,2.0,338.5513490065932,4.0,1.0,phase_1,,,,,,,,,,,,,blue,cross
224.0,7.0,2.0,1.0,3.0,3.0,350.5239799851551,4.0,1.0,phase_1,,,,,,,,,,,,,magenta,flipped triangle
0.0,2.0,0.0,0.0,2.0,2.0,355.5800010217353,4.0,1.0,phase_1,,,,,,,,,,,,,white,square
382.0,8.0,4.0,1.0,2.0,2.0,298.7210110295564,4.0,1.0,phase_1,,,,,,,,,,,,,yellow,hexagon
388.0,8.0,4.0,1.0,1.0,1.0,396.772664040327,4.0,1.0,phase_1,,,,,,,,,,,,,yellow,hexagon
400.0,4.0,4.0,0.0,3.0,3.0,505.49958797637373,4.0,1.0,phase_1,,,,,,,,,,,,,green,circle
65.0,1.0,0.5,0.0,3.0,3.0,367.3721010563895,4.0,1.0,phase_1,,,,,,,,,,,,,cyan,triangle
183.0,7.0,2.0,1.0,3.0,3.0,363.3715499890968,4.0,1.0,phase_1,,,,,,,,,,,,,magenta,flipped triangle
191.0,7.0,2.0,1.0,1.0,1.0,372.4540640832856,4.0,2.0,phase_1,,,,,,,,,,,,,magenta,flipped triangle
189.0,7.0,2.0,1.0,3.0,3.0,525.0438910443336,4.0,1.0,phase_1,,,,,,,,,,,,,magenta,flipped triangle
0.0,2.0,0.0,0.0,2.0,2.0,429.1179259307682,4.0,1.0,phase_1,,,,,,,,,,,,,white,square
413.0,4.0,4.0,0.0,4.0,4.0,386.8962660199031,4.0,1.0,phase_1,,,,,,,,,,,,,green,circle
92.0,6.0,1.0,1.0,3.0,3.0,337.7561969682574,4.0,1.0,phase_1,,,,,,,,,,,,,blue,cross
90.0,6.0,1.0,1.0,2.0,2.0,468.396972049959,4.0,1.0,phase_1,,,,,,,,,,,,,blue,cross
218.0,7.0,2.0,1.0,1.0,1.0,427.6521439896896,4.0,1.0,phase_1,,,,,,,,,,,,,magenta,flipped triangle
125.0,2.0,1.0,0.0,2.0,2.0,431.8031050497666,4.0,1.0,phase_1,,,,,,,,,,,,,white,square
382.0,4.0,4.0,0.0,3.0,3.0,338.4676459245384,4.0,1.0,phase_1,,,,,,,,,,,,,green,circle
212.0,3.0,2.0,0.0,4.0,4.0,495.3200410818681,4.0,1.0,phase_1,,,,,,,,,,,,,orange,diamond
118.0,6.0,1.0,1.0,3.0,3.0,485.3878690628335,4.0,1.0,phase_1,,,,,,,,,,,,,blue,cross
390.0,4.0,4.0,0.0,4.0,4.0,376.5287999995053,4.0,1.0,phase_1,,,,,,,,,,,,,green,circle
49.0,5.0,0.5,1.0,2.0,2.0,301.4725570101291,4.0,1.0,phase_1,,,,,,,,,,,,,gray,I
0.0,8.0,0.0,1.0,2.0,2.0,354.6668150229379,4.0,1.0,phase_1,,,,,,,,,,,,,yellow,hexagon
54.0,5.0,0.5,1.0,4.0,4.0,439.4459099275991,4.0,1.0,phase_1,,,,,,,,,,,,,gray,I
183.0,3.0,2.0,0.0,3.0,3.0,789.038693998009,4.0,1.0,phase_1,,,,,,,,,,,,,orange,diamond
0.0,5.0,0.0,1.0,2.0,2.0,473.9947249181568,4.0,1.0,phase_1,,,,,,,,,,,,,gray,I
0.0,3.0,0.0,0.0,1.0,1.0,342.1672380063683,4.0,1.0,phase_1,,,,,,,,,,,,,orange,diamond
43.0,1.0,0.5,0.0,2.0,2.0,347.1113910200074,4.0,1.0,phase_1,,,,,,,,,,,,,cyan,triangle
177.0,3.0,2.0,0.0,1.0,1.0,357.9737429972738,4.0,1.0,phase_1,,,,,,,,,,,,,orange,diamond
54.0,1.0,0.5,0.0,2.0,2.0,322.4474140442908,4.0,1.0,phase_1,,,,,,,,,,,,,cyan,triangle
78.0,2.0,1.0,0.0,1.0,1.0,264.5891410065815,4.0,1.0,phase_1,,,,,,,,,,,,,white,square
80.0,2.0,1.0,0.0,1.0,1.0,388.8414540560916,4.0,1.0,phase_1,,,,,,,,,,,,,white,square
410.0,4.0,4.0,0.0,3.0,3.0,673.6853889888152,4.0,1.0,phase_1,,,,,,,,,,,,,green,circle
398.0,4.0,4.0,0.0,4.0,4.0,398.814479005523,4.0,1.0,phase_1,,,,,,,,,,,,,green,circle
0.0,6.0,0.0,1.0,2.0,2.0,289.6935769822448,4.0,1.0,phase_1,,,,,,,,,,,,,blue,cross
396.0,8.0,4.0,1.0,2.0,2.0,374.299936927855,4.0,1.0,phase_1,,,,,,,,,,,,,yellow,hexagon
62.0,1.0,0.5,0.0,2.0,2.0,349.8538199346512,4.0,1.0,phase_1,,,,,,,,,,,,,cyan,triangle
96.0,6.0,1.0,1.0,2.0,2.0,294.7737559443339,4.0,1.0,phase_1,,,,,,,,,,,,,blue,cross
57.0,1.0,0.5,0.0,4.0,4.0,459.81173904147,4.0,1.0,phase_1,,,,,,,,,,,,,cyan,triangle
0.0,8.0,0.0,1.0,4.0,4.0,435.584966908209,4.0,1.0,phase_1,,,,,,,,,,,,,yellow,hexagon
190.0,3.0,2.0,0.0,1.0,1.0,462.9232130246237,4.0,1.0,phase_1,,,,,,,,,,,,,orange,diamond
64.0,1.0,0.5,0.0,4.0,4.0,362.8619769588113,4.0,1.0,phase_1,,,,,,,,,,,,,cyan,triangle
33.0,1.0,0.5,0.0,3.0,3.0,371.6880900319665,4.0,2.0,phase_1,,,,,,,,,,,,,cyan,triangle
0.0,7.0,0.0,1.0,4.0,4.0,448.6876369919628,4.0,1.0,phase_1,,,,,,,,,,,,,magenta,flipped triangle
0.0,1.0,0.0,0.0,2.0,2.0,381.5452569397166,4.0,1.0,phase_1,,,,,,,,,,,,,cyan,triangle
34.0,5.0,0.5,1.0,2.0,2.0,329.8075300408527,4.0,1.0,phase_1,,,,,,,,,,,,,gray,I
90.0,2.0,1.0,0.0,4.0,4.0,378.2537080114707,4.0,1.0,phase_1,,,,,,,,,,,,,white,square
177.0,7.0,2.0,1.0,2.0,2.0,286.7868390167132,4.0,1.0,phase_1,,,,,,,,,,,,,magenta,flipped triangle
407.0,4.0,4.0,0.0,4.0,4.0,432.3774969670921,4.0,1.0,phase_1,,,,,,,,,,,,,green,circle
103.0,2.0,1.0,0.0,3.0,3.0,392.0383300865069,4.0,1.0,phase_1,,,,,,,,,,,,,white,square
184.0,7.0,2.0,1.0,2.0,2.0,354.0958079975098,4.0,1.0,phase_1,,,,,,,,,,,,,magenta,flipped triangle
406.0,8.0,4.0,1.0,3.0,3.0,360.2078640833497,4.0,1.0,phase_1,,,,,,,,,,,,,yellow,hexagon
0.0,6.0,0.0,1.0,1.0,1.0,421.4489249279722,4.0,1.0,phase_1,,,,,,,,,,,,,blue,cross
404.0,8.0,4.0,1.0,4.0,4.0,359.78354304097587,4.0,1.0,phase_1,,,,,,,,,,,,,yellow,hexagon
402.0,8.0,4.0,1.0,3.0,3.0,301.3060929952189,4.0,1.0,phase_1,,,,,,,,,,,,,yellow,hexagon
224.0,3.0,2.0,0.0,2.0,2.0,283.9308440452441,4.0,1.0,phase_1,,,,,,,,,,,,,orange,diamond
201.0,7.0,2.0,1.0,2.0,2.0,365.4173000250011,4.0,1.0,phase_1,,,,,,,,,,,,,magenta,flipped triangle
198.0,7.0,2.0,1.0,1.0,1.0,434.4908109633252,4.0,1.0,phase_1,,,,,,,,,,,,,magenta,flipped triangle
177.0,7.0,2.0,1.0,1.0,1.0,350.5152240395546,4.0,1.0,phase_1,,,,,,,,,,,,,magenta,flipped triangle
219.0,7.0,2.0,1.0,2.0,2.0,299.9046450713649,4.0,1.0,phase_1,,,,,,,,,,,,,magenta,flipped triangle
381.0,8.0,4.0,1.0,1.0,1.0,576.9590269774199,4.0,1.0,phase_1,,,,,,,,,,,,,yellow,hexagon
54.0,5.0,0.5,1.0,4.0,4.0,548.9625030895695,4.0,1.0,phase_1,,,,,,,,,,,,,gray,I
0.0,1.0,0.0,0.0,3.0,3.0,517.0267289504409,4.0,1.0,phase_1,,,,,,,,,,,,,cyan,triangle
220.0,3.0,2.0,0.0,3.0,3.0,374.1108330432325,4.0,1.0,phase_1,,,,,,,,,,,,,orange,diamond
46.0,5.0,0.5,1.0,2.0,2.0,372.6262750569731,4.0,1.0,phase_1,,,,,,,,,,,,,gray,I
423.0,8.0,4.0,1.0,2.0,2.0,330.2471999777481,4.0,1.0,phase_1,,,,,,,,,,,,,yellow,hexagon
177.0,7.0,2.0,1.0,3.0,3.0,375.1037820475176,4.0,1.0,phase_1,,,,,,,,,,,,,magenta,flipped triangle
0.0,5.0,0.0,1.0,2.0,2.0,339.2657149815932,4.0,1.0,phase_1,,,,,,,,,,,,,gray,I
214.0,3.0,2.0,0.0,4.0,4.0,505.6928660487756,4.0,1.0,phase_1,,,,,,,,,,,,,orange,diamond
0.0,7.0,0.0,1.0,4.0,4.0,413.1420688936487,4.0,1.0,phase_1,,,,,,,,,,,,,magenta,flipped triangle
77.0,6.0,1.0,1.0,2.0,2.0,305.8928239624947,4.0,1.0,phase_1,,,,,,,,,,,,,blue,cross
401.0,8.0,4.0,1.0,3.0,3.0,575.0187609810382,4.0,1.0,phase_1,,,,,,,,,,,,,yellow,hexagon
0.0,1.0,0.0,0.0,4.0,4.0,466.0987620009109,4.0,1.0,phase_1,,,,,,,,,,,,,cyan,triangle
118.0,2.0,1.0,0.0,3.0,3.0,334.5869249897077,4.0,1.0,phase_1,,,,,,,,,,,,,white,square
98.0,2.0,1.0,0.0,4.0,4.0,413.6094469577074,4.0,1.0,phase_1,,,,,,,,,,,,,white,square
80.0,6.0,1.0,1.0,3.0,3.0,384.635187103413,4.0,1.0,phase_1,,,,,,,,,,,,,blue,cross
59.0,5.0,0.5,1.0,3.0,3.0,306.9636260624975,4.0,1.0,phase_1,,,,,,,,,,,,,gray,I
85.0,2.0,1.0,0.0,1.0,1.0,505.7657459983602,4.0,1.0,phase_1,,,,,,,,,,,,,white,square
394.0,8.0,4.0,1.0,1.0,1.0,501.2210870627314,4.0,1.0,phase_1,,,,,,,,,,,,,yellow,hexagon
0.0,4.0,0.0,0.0,1.0,1.0,696.7397760599852,4.0,1.0,phase_1,,,,,,,,,,,,,green,circle
0.0,8.0,0.0,1.0,2.0,2.0,392.5940179033205,4.0,1.0,phase_1,,,,,,,,,,,,,yellow,hexagon
0.0,3.0,2.0,0.0,5.0,5.0,494.1754890605807,1.0,1.0,phase_2,go,250.0,250.0,1.0,,,,,,,,,orange,diamond
0.0,1.0,0.5,0.0,6.0,6.0,542.6235449267551,1.0,1.0,phase_2,go,250.0,250.0,1.0,,,,,,,,,cyan,triangle
0.0,4.0,4.0,0.0,5.0,5.0,439.9739289656281,1.0,1.0,phase_2,go,250.0,250.0,1.0,,,,,,,,,green,circle
0.0,7.0,2.0,1.0,6.0,6.0,509.0530350571498,1.0,1.0,phase_2,stop,250.0,250.0,3.0,,,,,,,,,magenta,flipped triangle
0.0,7.0,2.0,1.0,6.0,0.0,0.0,1.0,1.0,phase_2,stop,250.0,200.0,4.0,,,,,,,,,magenta,flipped triangle
0.0,6.0,1.0,1.0,5.0,5.0,443.9615600276738,1.0,1.0,phase_2,stop,250.0,250.0,3.0,,,,,,,,,blue,cross
0.0,2.0,1.0,0.0,6.0,6.0,487.1385509613901,1.0,1.0,phase_2,go,200.0,250.0,1.0,,,,,,,,,white,square
0.0,2.0,1.0,0.0,5.0,5.0,381.0284599894658,1.0,1.0,phase_2,go,200.0,250.0,1.0,,,,,,,,,white,square
0.0,8.0,4.0,1.0,5.0,5.0,500.6687379209325,1.0,1.0,phase_2,go,200.0,250.0,1.0,,,,,,,,,yellow,hexagon
0.0,8.0,4.0,1.0,6.0,6.0,658.6076619569212,1.0,1.0,phase_2,go,200.0,250.0,1.0,,,,,,,,,yellow,hexagon
0.0,2.0,1.0,0.0,5.0,5.0,659.2349710408598,1.0,1.0,phase_2,go,200.0,250.0,1.0,,,,,,,,,white,square
0.0,3.0,2.0,0.0,5.0,5.0,808.8613450527191,1.0,1.0,phase_2,go,200.0,250.0,1.0,,,,,,,,,orange,diamond
0.0,3.0,2.0,0.0,6.0,6.0,535.5276030022651,1.0,1.0,phase_2,go,200.0,250.0,1.0,,,,,,,,,orange,diamond
0.0,8.0,4.0,1.0,6.0,0.0,0.0,1.0,1.0,phase_2,stop,200.0,250.0,4.0,,,,,,,,,yellow,hexagon
0.0,8.0,4.0,1.0,6.0,6.0,617.4895029980689,1.0,1.0,phase_2,stop,200.0,300.0,3.0,,,,,,,,,yellow,hexagon
0.0,4.0,4.0,0.0,5.0,5.0,550.9869439993054,1.0,1.0,phase_2,go,200.0,250.0,1.0,,,,,,,,,green,circle
0.0,6.0,1.0,1.0,6.0,6.0,687.7725849626586,1.0,1.0,phase_2,go,200.0,250.0,1.0,,,,,,,,,blue,cross
0.0,7.0,2.0,1.0,6.0,0.0,0.0,1.0,1.0,phase_2,stop,200.0,250.0,4.0,,,,,,,,,magenta,flipped triangle
0.0,6.0,1.0,1.0,6.0,0.0,0.0,1.0,1.0,phase_2,stop,200.0,300.0,4.0,,,,,,,,,blue,cross
0.0,6.0,1.0,1.0,6.0,0.0,0.0,1.0,1.0,phase_2,stop,200.0,350.0,4.0,,,,,,,,,blue,cross
0.0,8.0,4.0,1.0,5.0,5.0,550.7450609002262,1.0,1.0,phase_2,go,200.0,400.0,1.0,,,,,,,,,yellow,hexagon
0.0,2.0,1.0,0.0,6.0,6.0,931.3270399579778,1.0,1.0,phase_2,go,200.0,400.0,1.0,,,,,,,,,white,square
0.0,5.0,0.5,1.0,6.0,0.0,0.0,1.0,1.0,phase_2,stop,200.0,400.0,4.0,,,,,,,,,gray,I
0.0,1.0,0.5,0.0,6.0,6.0,1028.8346949964762,1.0,1.0,phase_2,go,200.0,450.0,1.0,,,,,,,,,cyan,triangle
0.0,7.0,2.0,1.0,5.0,5.0,517.034275108017,1.0,1.0,phase_2,go,200.0,450.0,1.0,,,,,,,,,magenta,flipped triangle
0.0,7.0,2.0,1.0,5.0,0.0,0.0,1.0,1.0,phase_2,stop,200.0,450.0,4.0,,,,,,,,,magenta,flipped triangle
0.0,4.0,4.0,0.0,6.0,6.0,856.1466030078009,1.0,1.0,phase_2,go,250.0,450.0,1.0,,,,,,,,,green,circle
0.0,5.0,0.5,1.0,6.0,6.0,931.4820650033652,1.0,1.0,phase_2,go,250.0,450.0,1.0,,,,,,,,,gray,I
0.0,8.0,4.0,1.0,6.0,6.0,529.9624250037596,1.0,1.0,phase_2,stop,250.0,450.0,3.0,,,,,,,,,yellow,hexagon
0.0,4.0,4.0,0.0,6.0,6.0,871.2863179389387,1.0,1.0,phase_2,go,250.0,400.0,1.0,,,,,,,,,green,circle
0.0,4.0,4.0,0.0,5.0,5.0,1318.588541005738,1.0,1.0,phase_2,go,250.0,400.0,1.0,,,,,,,,,green,circle
0.0,4.0,4.0,0.0,5.0,5.0,407.3144139256328,1.0,1.0,phase_2,go,250.0,400.0,1.0,,,,,,,,,green,circle
0.0,1.0,0.5,0.0,6.0,6.0,839.7778070066124,1.0,1.0,phase_2,go,250.0,400.0,1.0,,,,,,,,,cyan,triangle
0.0,3.0,2.0,0.0,5.0,5.0,719.8988089803606,1.0,1.0,phase_2,go,250.0,400.0,1.0,,,,,,,,,orange,diamond
0.0,6.0,1.0,1.0,6.0,6.0,444.3803209578618,1.0,1.0,phase_2,go,250.0,400.0,1.0,,,,,,,,,blue,cross
0.0,5.0,0.5,1.0,6.0,0.0,0.0,1.0,1.0,phase_2,stop,250.0,400.0,4.0,,,,,,,,,gray,I
0.0,2.0,1.0,0.0,6.0,6.0,547.1187049988657,2.0,1.0,phase_2,go,250.0,450.0,1.0,,,,,,,,,white,square
0.0,2.0,1.0,0.0,6.0,6.0,345.4804180655628,2.0,1.0,phase_2,go,250.0,450.0,1.0,,,,,,,,,white,square
0.0,1.0,0.5,0.0,5.0,5.0,280.3516760468483,2.0,1.0,phase_2,go,250.0,450.0,1.0,,,,,,,,,cyan,triangle
0.0,7.0,2.0,1.0,6.0,6.0,382.6115549309179,2.0,1.0,phase_2,go,250.0,450.0,1.0,,,,,,,,,magenta,flipped triangle
0.0,6.0,1.0,1.0,5.0,5.0,303.6737149814144,2.0,1.0,phase_2,stop,250.0,450.0,3.0,,,,,,,,,blue,cross
0.0,7.0,2.0,1.0,6.0,6.0,473.2071229955181,2.0,1.0,phase_2,stop,200.0,450.0,3.0,,,,,,,,,magenta,flipped triangle
0.0,6.0,1.0,1.0,5.0,0.0,0.0,2.0,1.0,phase_2,stop,200.0,400.0,4.0,,,,,,,,,blue,cross
0.0,3.0,2.0,0.0,6.0,6.0,629.0741249686107,2.0,1.0,phase_2,go,250.0,400.0,1.0,,,,,,,,,orange,diamond
0.0,6.0,1.0,1.0,5.0,5.0,476.4792049536481,2.0,1.0,phase_2,stop,250.0,400.0,3.0,,,,,,,,,blue,cross
0.0,3.0,2.0,0.0,5.0,5.0,531.2658420298249,2.0,1.0,phase_2,go,200.0,400.0,1.0,,,,,,,,,orange,diamond
0.0,7.0,2.0,1.0,6.0,6.0,260.4294359916821,2.0,1.0,phase_2,stop,200.0,400.0,3.0,,,,,,,,,magenta,flipped triangle
0.0,8.0,4.0,1.0,6.0,6.0,429.679206921719,2.0,1.0,phase_2,go,200.0,350.0,1.0,,,,,,,,,yellow,hexagon
0.0,2.0,1.0,0.0,5.0,5.0,507.6380089158192,2.0,1.0,phase_2,go,200.0,350.0,1.0,,,,,,,,,white,square
0.0,4.0,4.0,0.0,6.0,6.0,448.7368540139869,2.0,1.0,phase_2,go,200.0,350.0,1.0,,,,,,,,,green,circle
0.0,3.0,2.0,0.0,6.0,6.0,338.4880470111966,2.0,1.0,phase_2,go,200.0,350.0,1.0,,,,,,,,,orange,diamond
0.0,6.0,1.0,1.0,6.0,6.0,433.7101560086012,2.0,1.0,phase_2,stop,200.0,350.0,3.0,,,,,,,,,blue,cross
0.0,8.0,4.0,1.0,6.0,6.0,546.4312878903002,2.0,1.0,phase_2,go,200.0,300.0,1.0,,,,,,,,,yellow,hexagon
0.0,1.0,0.5,0.0,5.0,5.0,696.7979409964755,2.0,1.0,phase_2,go,200.0,300.0,1.0,,,,,,,,,cyan,triangle
0.0,7.0,2.0,1.0,5.0,0.0,0.0,2.0,1.0,phase_2,stop,200.0,300.0,4.0,,,,,,,,,magenta,flipped triangle
0.0,3.0,2.0,0.0,6.0,6.0,298.0052060447633,2.0,1.0,phase_2,go,250.0,300.0,1.0,,,,,,,,,orange,diamond
0.0,3.0,2.0,0.0,6.0,5.0,350.9363910416141,2.0,1.0,phase_2,go,250.0,300.0,2.0,,,,,,,,,orange,diamond
0.0,3.0,2.0,0.0,5.0,5.0,566.8086810037494,2.0,1.0,phase_2,go,250.0,300.0,1.0,,,,,,,,,orange,diamond
0.0,7.0,2.0,1.0,5.0,0.0,0.0,2.0,1.0,phase_2,stop,250.0,300.0,4.0,,,,,,,,,magenta,flipped triangle
0.0,6.0,1.0,1.0,5.0,0.0,0.0,2.0,1.0,phase_2,stop,300.0,300.0,4.0,,,,,,,,,blue,cross
0.0,6.0,1.0,1.0,5.0,0.0,0.0,2.0,1.0,phase_2,stop,350.0,300.0,4.0,,,,,,,,,blue,cross
0.0,6.0,1.0,1.0,5.0,6.0,684.453236986883,2.0,1.0,phase_2,go,400.0,300.0,2.0,,,,,,,,,blue,cross
0.0,5.0,0.5,1.0,5.0,0.0,0.0,2.0,1.0,phase_2,stop,400.0,300.0,4.0,,,,,,,,,gray,I
0.0,8.0,4.0,1.0,5.0,0.0,0.0,2.0,1.0,phase_2,stop,450.0,300.0,4.0,,,,,,,,,yellow,hexagon
0.0,2.0,1.0,0.0,5.0,5.0,466.0927649820223,2.0,1.0,phase_2,go,500.0,300.0,1.0,,,,,,,,,white,square
0.0,2.0,1.0,0.0,5.0,5.0,713.9448899542913,2.0,1.0,phase_2,go,500.0,300.0,1.0,,,,,,,,,white,square
0.0,2.0,1.0,0.0,5.0,5.0,977.018557023257,2.0,1.0,phase_2,go,500.0,300.0,1.0,,,,,,,,,white,square
0.0,4.0,4.0,0.0,6.0,6.0,551.561392028816,2.0,1.0,phase_2,go,500.0,300.0,1.0,,,,,,,,,green,circle
0.0,7.0,2.0,1.0,5.0,5.0,497.9718000395223,2.0,1.0,phase_2,stop,500.0,300.0,3.0,,,,,,,,,magenta,flipped triangle
0.0,5.0,0.5,1.0,6.0,0.0,0.0,2.0,1.0,phase_2,stop,450.0,300.0,4.0,,,,,,,,,gray,I
0.0,1.0,0.5,0.0,5.0,5.0,528.1514109810814,2.0,1.0,phase_2,go,450.0,350.0,1.0,,,,,,,,,cyan,triangle
0.0,3.0,2.0,0.0,5.0,5.0,461.2426029052585,2.0,1.0,phase_2,go,450.0,350.0,1.0,,,,,,,,,orange,diamond
0.0,2.0,1.0,0.0,5.0,5.0,863.9578269794583,3.0,1.0,phase_2,go,450.0,350.0,1.0,,,,,,,,,white,square
0.0,4.0,4.0,0.0,6.0,6.0,351.6293660504743,3.0,1.0,phase_2,go,450.0,350.0,1.0,,,,,,,,,green,circle
0.0,7.0,2.0,1.0,6.0,6.0,344.0064958995208,3.0,1.0,phase_2,stop,450.0,350.0,3.0,,,,,,,,,magenta,flipped triangle
0.0,8.0,4.0,1.0,5.0,0.0,0.0,3.0,1.0,phase_2,stop,450.0,300.0,4.0,,,,,,,,,yellow,hexagon
0.0,8.0,4.0,1.0,6.0,6.0,333.694699103944,3.0,1.0,phase_2,stop,500.0,300.0,3.0,,,,,,,,,yellow,hexagon
0.0,6.0,1.0,1.0,5.0,5.0,344.2425969988107,3.0,1.0,phase_2,go,500.0,250.0,1.0,,,,,,,,,blue,cross
0.0,2.0,1.0,0.0,5.0,5.0,383.6348110344261,3.0,1.0,phase_2,go,500.0,250.0,1.0,,,,,,,,,white,square
0.0,1.0,0.5,0.0,5.0,5.0,400.4354641074314,3.0,1.0,phase_2,go,500.0,250.0,1.0,,,,,,,,,cyan,triangle
0.0,8.0,4.0,1.0,5.0,5.0,420.2875479822978,3.0,1.0,phase_2,stop,500.0,250.0,3.0,,,,,,,,,yellow,hexagon
0.0,6.0,1.0,1.0,6.0,6.0,403.9481169311329,3.0,1.0,phase_2,go,450.0,250.0,1.0,,,,,,,,,blue,cross
0.0,6.0,1.0,1.0,6.0,0.0,0.0,3.0,1.0,phase_2,stop,450.0,250.0,4.0,,,,,,,,,blue,cross
0.0,5.0,0.5,1.0,5.0,5.0,370.2205350855365,3.0,1.0,phase_2,stop,450.0,300.0,3.0,,,,,,,,,gray,I
0.0,5.0,0.5,1.0,5.0,5.0,771.1064319591969,3.0,1.0,phase_2,go,400.0,300.0,1.0,,,,,,,,,gray,I
0.0,7.0,2.0,1.0,6.0,6.0,329.3526190100238,3.0,1.0,phase_2,go,400.0,300.0,1.0,,,,,,,,,magenta,flipped triangle
0.0,3.0,2.0,0.0,5.0,5.0,411.7071619257331,3.0,1.0,phase_2,go,400.0,300.0,1.0,,,,,,,,,orange,diamond
0.0,1.0,0.5,0.0,6.0,6.0,297.0711500383913,3.0,1.0,phase_2,go,400.0,300.0,1.0,,,,,,,,,cyan,triangle
0.0,5.0,0.5,1.0,5.0,5.0,255.4828630527481,3.0,1.0,phase_2,stop,400.0,300.0,3.0,,,,,,,,,gray,I
0.0,3.0,2.0,0.0,6.0,6.0,346.0660979617387,3.0,1.0,phase_2,go,350.0,300.0,1.0,,,,,,,,,orange,diamond
0.0,3.0,2.0,0.0,5.0,5.0,687.5865639885888,3.0,1.0,phase_2,go,350.0,300.0,1.0,,,,,,,,,orange,diamond
0.0,5.0,0.5,1.0,6.0,0.0,0.0,3.0,1.0,phase_2,stop,350.0,300.0,4.0,,,,,,,,,gray,I
0.0,4.0,4.0,0.0,5.0,5.0,485.8294239966199,3.0,1.0,phase_2,go,350.0,350.0,1.0,,,,,,,,,green,circle
0.0,7.0,2.0,1.0,5.0,5.0,703.4645969979465,3.0,1.0,phase_2,go,350.0,350.0,1.0,,,,,,,,,magenta,flipped triangle
0.0,5.0,0.5,1.0,6.0,0.0,0.0,3.0,1.0,phase_2,stop,350.0,350.0,4.0,,,,,,,,,gray,I
0.0,7.0,2.0,1.0,5.0,0.0,0.0,3.0,1.0,phase_2,stop,350.0,400.0,4.0,,,,,,,,,magenta,flipped triangle
0.0,3.0,2.0,0.0,5.0,5.0,670.5036050407216,3.0,1.0,phase_2,go,400.0,400.0,1.0,,,,,,,,,orange,diamond
0.0,2.0,1.0,0.0,5.0,5.0,396.2735200766474,3.0,1.0,phase_2,go,400.0,400.0,1.0,,,,,,,,,white,square
0.0,4.0,4.0,0.0,6.0,6.0,516.7647460475564,3.0,1.0,phase_2,go,400.0,400.0,1.0,,,,,,,,,green,circle
0.0,5.0,0.5,1.0,6.0,0.0,0.0,3.0,1.0,phase_2,stop,400.0,400.0,4.0,,,,,,,,,gray,I
0.0,2.0,1.0,0.0,5.0,5.0,1273.7120470264929,3.0,1.0,phase_2,go,400.0,450.0,1.0,,,,,,,,,white,square
0.0,8.0,4.0,1.0,6.0,6.0,268.0449539329856,3.0,1.0,phase_2,stop,400.0,450.0,3.0,,,,,,,,,yellow,hexagon
0.0,8.0,4.0,1.0,5.0,5.0,399.6836759615689,3.0,1.0,phase_2,stop,400.0,400.0,3.0,,,,,,,,,yellow,hexagon
0.0,6.0,1.0,1.0,5.0,5.0,466.9757889350876,3.0,1.0,phase_2,go,350.0,400.0,1.0,,,,,,,,,blue,cross
0.0,2.0,1.0,0.0,5.0,5.0,442.5740779843181,3.0,1.0,phase_2,go,350.0,400.0,1.0,,,,,,,,,white,square
0.0,3.0,2.0,0.0,5.0,5.0,442.0544980093837,3.0,1.0,phase_2,go,350.0,400.0,1.0,,,,,,,,,orange,diamond
0.0,5.0,0.5,1.0,6.0,6.0,288.218691945076,3.0,1.0,phase_2,stop,350.0,400.0,3.0,,,,,,,,,gray,I
0.0,8.0,4.0,1.0,5.0,5.0,328.3924559364095,3.0,1.0,phase_2,stop,350.0,350.0,3.0,,,,,,,,,yellow,hexagon
0.0,3.0,2.0,0.0,5.0,5.0,497.1301909536123,4.0,1.0,phase_2,go,300.0,350.0,1.0,,,,,,,,,orange,diamond
0.0,4.0,4.0,0.0,5.0,5.0,371.4747950434685,4.0,1.0,phase_2,go,300.0,350.0,1.0,,,,,,,,,green,circle
0.0,3.0,2.0,0.0,6.0,6.0,399.5949880918488,4.0,1.0,phase_2,go,300.0,350.0,1.0,,,,,,,,,orange,diamond
0.0,1.0,0.5,0.0,6.0,6.0,441.238287021406,4.0,1.0,phase_2,go,300.0,350.0,1.0,,,,,,,,,cyan,triangle
0.0,8.0,4.0,1.0,5.0,5.0,681.8970879539847,4.0,1.0,phase_2,go,300.0,350.0,1.0,,,,,,,,,yellow,hexagon
0.0,7.0,2.0,1.0,6.0,6.0,416.4526079548523,4.0,1.0,phase_2,stop,300.0,350.0,3.0,,,,,,,,,magenta,flipped triangle
0.0,3.0,2.0,0.0,5.0,5.0,487.1988359373063,4.0,1.0,phase_2,go,300.0,300.0,1.0,,,,,,,,,orange,diamond
0.0,8.0,4.0,1.0,5.0,5.0,360.7516889460385,4.0,1.0,phase_2,stop,300.0,300.0,3.0,,,,,,,,,yellow,hexagon
0.0,1.0,0.5,0.0,6.0,6.0,300.4717120202258,4.0,1.0,phase_2,go,250.0,300.0,1.0,,,,,,,,,cyan,triangle
0.0,1.0,0.5,0.0,5.0,5.0,509.75556299090385,4.0,1.0,phase_2,go,250.0,300.0,1.0,,,,,,,,,cyan,triangle
0.0,6.0,1.0,1.0,5.0,5.0,311.5815500495955,4.0,1.0,phase_2,stop,250.0,300.0,3.0,,,,,,,,,blue,cross
0.0,4.0,4.0,0.0,5.0,5.0,436.6324830334633,4.0,1.0,phase_2,go,200.0,300.0,1.0,,,,,,,,,green,circle
0.0,8.0,4.0,1.0,5.0,5.0,357.3183820117265,4.0,1.0,phase_2,stop,200.0,300.0,3.0,,,,,,,,,yellow,hexagon
0.0,4.0,4.0,0.0,6.0,6.0,362.3856569174677,4.0,1.0,phase_2,go,150.0,300.0,1.0,,,,,,,,,green,circle
0.0,5.0,0.5,1.0,6.0,6.0,283.2135000498965,4.0,1.0,phase_2,stop,150.0,300.0,3.0,,,,,,,,,gray,I
0.0,5.0,0.5,1.0,6.0,6.0,824.57041204907,4.0,1.0,phase_2,go,150.0,250.0,1.0,,,,,,,,,gray,I
0.0,5.0,0.5,1.0,6.0,6.0,296.577243017964,4.0,1.0,phase_2,stop,150.0,250.0,3.0,,,,,,,,,gray,I
0.0,8.0,4.0,1.0,5.0,0.0,0.0,4.0,1.0,phase_2,stop,150.0,200.0,4.0,,,,,,,,,yellow,hexagon
0.0,4.0,4.0,0.0,6.0,6.0,607.6101459329948,4.0,1.0,phase_2,go,200.0,200.0,1.0,,,,,,,,,green,circle
0.0,1.0,0.5,0.0,5.0,5.0,328.2604410778731,4.0,1.0,phase_2,go,200.0,200.0,1.0,,,,,,,,,cyan,triangle
0.0,3.0,2.0,0.0,5.0,5.0,313.9145419700071,4.0,1.0,phase_2,go,200.0,200.0,1.0,,,,,,,,,orange,diamond
0.0,4.0,4.0,0.0,5.0,5.0,312.1900029946118,4.0,1.0,phase_2,go,200.0,200.0,1.0,,,,,,,,,green,circle
0.0,2.0,1.0,0.0,6.0,6.0,231.6710130544379,4.0,1.0,phase_2,go,200.0,200.0,1.0,,,,,,,,,white,square
0.0,5.0,0.5,1.0,5.0,5.0,326.0699099628255,4.0,1.0,phase_2,go,200.0,200.0,1.0,,,,,,,,,gray,I
0.0,6.0,1.0,1.0,6.0,6.0,223.0087659554556,4.0,1.0,phase_2,stop,200.0,200.0,3.0,,,,,,,,,blue,cross
0.0,2.0,1.0,0.0,6.0,6.0,354.7023300779983,4.0,1.0,phase_2,go,200.0,150.0,1.0,,,,,,,,,white,square
0.0,1.0,0.5,0.0,6.0,6.0,300.6608509458601,4.0,1.0,phase_2,go,200.0,150.0,1.0,,,,,,,,,cyan,triangle
0.0,7.0,2.0,1.0,6.0,0.0,0.0,4.0,1.0,phase_2,stop,200.0,150.0,4.0,,,,,,,,,magenta,flipped triangle
0.0,7.0,2.0,1.0,6.0,6.0,273.2178260339424,4.0,1.0,phase_2,stop,200.0,200.0,3.0,,,,,,,,,magenta,flipped triangle
0.0,6.0,1.0,1.0,5.0,0.0,0.0,4.0,1.0,phase_2,stop,200.0,150.0,4.0,,,,,,,,,blue,cross
0.0,2.0,1.0,0.0,5.0,5.0,595.5750390421599,4.0,1.0,phase_2,go,250.0,150.0,1.0,,,,,,,,,white,square
0.0,2.0,1.0,0.0,5.0,5.0,591.8819059152156,4.0,1.0,phase_2,go,250.0,150.0,1.0,,,,,,,,,white,square
0.0,4.0,4.0,0.0,6.0,6.0,338.1665720371529,4.0,1.0,phase_2,go,250.0,150.0,1.0,,,,,,,,,green,circle
0.0,7.0,2.0,1.0,6.0,0.0,0.0,4.0,1.0,phase_2,stop,250.0,150.0,4.0,,,,,,,,,magenta,flipped triangle
0.0,8.0,4.0,1.0,6.0,0.0,0.0,4.0,1.0,phase_2,stop,250.0,200.0,4.0,,,,,,,,,yellow,hexagon
0.0,1.0,0.5,0.0,5.0,5.0,453.5129099385813,4.0,1.0,phase_2,go,250.0,250.0,1.0,,,,,,,,,cyan,triangle
0.0,4.0,4.0,0.0,6.0,6.0,490.8496189163998,5.0,1.0,phase_2,go,250.0,250.0,1.0,,,,,,,,,green,circle
0.0,1.0,0.5,0.0,6.0,6.0,310.8281110180542,5.0,1.0,phase_2,go,250.0,250.0,1.0,,,,,,,,,cyan,triangle
0.0,6.0,1.0,1.0,6.0,6.0,296.9624729594216,5.0,1.0,phase_2,stop,250.0,250.0,3.0,,,,,,,,,blue,cross
0.0,2.0,1.0,0.0,6.0,6.0,326.0449620429426,5.0,1.0,phase_2,go,250.0,200.0,1.0,,,,,,,,,white,square
0.0,8.0,4.0,1.0,6.0,6.0,348.8258449360728,5.0,1.0,phase_2,go,250.0,200.0,1.0,,,,,,,,,yellow,hexagon
0.0,7.0,2.0,1.0,5.0,5.0,284.1843760106712,5.0,1.0,phase_2,go,250.0,200.0,1.0,,,,,,,,,magenta,flipped triangle
0.0,3.0,2.0,0.0,6.0,6.0,283.5786059731617,5.0,1.0,phase_2,go,250.0,200.0,1.0,,,,,,,,,orange,diamond
0.0,7.0,2.0,1.0,6.0,6.0,275.8702560095116,5.0,1.0,phase_2,stop,250.0,200.0,3.0,,,,,,,,,magenta,flipped triangle
0.0,6.0,1.0,1.0,6.0,0.0,0.0,5.0,1.0,phase_2,stop,250.0,150.0,4.0,,,,,,,,,blue,cross
0.0,2.0,1.0,0.0,5.0,5.0,361.9753740495071,5.0,1.0,phase_2,go,250.0,200.0,1.0,,,,,,,,,white,square
0.0,2.0,1.0,0.0,6.0,6.0,445.2677450608462,5.0,1.0,phase_2,go,250.0,200.0,1.0,,,,,,,,,white,square
0.0,4.0,4.0,0.0,6.0,6.0,388.5565060190856,5.0,1.0,phase_2,go,250.0,200.0,1.0,,,,,,,,,green,circle
0.0,8.0,4.0,1.0,6.0,0.0,0.0,5.0,1.0,phase_2,stop,250.0,200.0,4.0,,,,,,,,,yellow,hexagon
0.0,6.0,1.0,1.0,5.0,0.0,0.0,5.0,1.0,phase_2,stop,250.0,250.0,4.0,,,,,,,,,blue,cross
0.0,2.0,1.0,0.0,6.0,6.0,270.8824289729818,5.0,1.0,phase_2,go,300.0,250.0,1.0,,,,,,,,,white,square
0.0,6.0,1.0,1.0,6.0,0.0,0.0,5.0,1.0,phase_2,stop,300.0,250.0,4.0,,,,,,,,,blue,cross
0.0,4.0,4.0,0.0,5.0,5.0,399.3126379791647,5.0,1.0,phase_2,go,300.0,300.0,1.0,,,,,,,,,green,circle
0.0,3.0,2.0,0.0,5.0,5.0,445.3355139121413,5.0,1.0,phase_2,go,300.0,300.0,1.0,,,,,,,,,orange,diamond
0.0,3.0,2.0,0.0,6.0,6.0,360.7896169414744,5.0,1.0,phase_2,go,300.0,300.0,1.0,,,,,,,,,orange,diamond
0.0,3.0,2.0,0.0,6.0,6.0,383.2842209376395,5.0,1.0,phase_2,go,300.0,300.0,1.0,,,,,,,,,orange,diamond
0.0,4.0,4.0,0.0,5.0,5.0,350.1291259890422,5.0,1.0,phase_2,go,300.0,300.0,1.0,,,,,,,,,green,circle
0.0,2.0,1.0,0.0,6.0,6.0,315.3323399601504,5.0,1.0,phase_2,go,300.0,300.0,1.0,,,,,,,,,white,square
0.0,3.0,2.0,0.0,6.0,5.0,333.7812059326097,5.0,1.0,phase_2,go,300.0,300.0,2.0,,,,,,,,,orange,diamond
0.0,3.0,2.0,0.0,5.0,5.0,370.123348897323,5.0,1.0,phase_2,go,300.0,300.0,1.0,,,,,,,,,orange,diamond
0.0,7.0,2.0,1.0,6.0,6.0,316.2528509274125,5.0,1.0,phase_2,stop,300.0,300.0,3.0,,,,,,,,,magenta,flipped triangle
0.0,4.0,4.0,0.0,5.0,5.0,378.0275020981207,5.0,1.0,phase_2,go,300.0,250.0,1.0,,,,,,,,,green,circle
0.0,8.0,4.0,1.0,6.0,6.0,284.8194029647857,5.0,1.0,phase_2,stop,300.0,250.0,3.0,,,,,,,,,yellow,hexagon
0.0,4.0,4.0,0.0,6.0,6.0,497.7848739363253,5.0,1.0,phase_2,go,300.0,200.0,1.0,,,,,,,,,green,circle
0.0,6.0,1.0,1.0,5.0,5.0,395.6068400293588,5.0,1.0,phase_2,stop,300.0,200.0,3.0,,,,,,,,,blue,cross
0.0,5.0,0.5,1.0,6.0,6.0,304.0044569643214,5.0,1.0,phase_2,stop,250.0,200.0,3.0,,,,,,,,,gray,I
0.0,4.0,4.0,0.0,6.0,6.0,400.4809499019757,5.0,1.0,phase_2,go,250.0,150.0,1.0,,,,,,,,,green,circle
0.0,5.0,0.5,1.0,5.0,0.0,0.0,5.0,1.0,phase_2,stop,250.0,150.0,4.0,,,,,,,,,gray,I
0.0,7.0,2.0,1.0,5.0,0.0,0.0,5.0,1.0,phase_2,stop,300.0,150.0,4.0,,,,,,,,,magenta,flipped triangle
0.0,7.0,2.0,1.0,5.0,0.0,0.0,5.0,1.0,phase_2,stop,350.0,150.0,4.0,,,,,,,,,magenta,flipped triangle
0.0,3.0,2.0,0.0,5.0,5.0,438.8056200696155,5.0,1.0,phase_2,go,400.0,150.0,1.0,,,,,,,,,orange,diamond
0.0,7.0,2.0,1.0,5.0,5.0,398.5112219816074,5.0,1.0,phase_2,stop,400.0,150.0,3.0,,,,,,,,,magenta,flipped triangle
0.0,1.0,0.5,0.0,5.0,5.0,454.0321030654013,6.0,1.0,phase_2,go,350.0,150.0,1.0,,,,,,,,,cyan,triangle
0.0,8.0,4.0,1.0,5.0,0.0,0.0,6.0,1.0,phase_2,stop,350.0,150.0,4.0,,,,,,,,,yellow,hexagon
0.0,1.0,0.5,0.0,5.0,5.0,803.3119860338047,6.0,1.0,phase_2,go,400.0,150.0,1.0,,,,,,,,,cyan,triangle
0.0,7.0,2.0,1.0,5.0,5.0,1059.5090240240097,6.0,1.0,phase_2,go,400.0,150.0,1.0,,,,,,,,,magenta,flipped triangle
0.0,5.0,0.5,1.0,5.0,0.0,0.0,6.0,1.0,phase_2,stop,400.0,150.0,4.0,,,,,,,,,gray,I
0.0,6.0,1.0,1.0,5.0,0.0,0.0,6.0,1.0,phase_2,stop,450.0,150.0,4.0,,,,,,,,,blue,cross
0.0,1.0,0.5,0.0,5.0,5.0,369.0196250099689,6.0,1.0,phase_2,go,500.0,150.0,1.0,,,,,,,,,cyan,triangle
0.0,7.0,2.0,1.0,5.0,5.0,718.6672210227698,6.0,1.0,phase_2,go,500.0,150.0,1.0,,,,,,,,,magenta,flipped triangle
0.0,3.0,2.0,0.0,6.0,6.0,543.2402620790526,6.0,1.0,phase_2,go,500.0,150.0,1.0,,,,,,,,,orange,diamond
0.0,1.0,0.5,0.0,6.0,6.0,437.0601919945329,6.0,1.0,phase_2,go,500.0,150.0,1.0,,,,,,,,,cyan,triangle
0.0,5.0,0.5,1.0,5.0,5.0,591.1246140021831,6.0,1.0,phase_2,stop,500.0,150.0,3.0,,,,,,,,,gray,I
0.0,5.0,0.5,1.0,5.0,5.0,707.9711989499629,6.0,1.0,phase_2,go,450.0,150.0,1.0,,,,,,,,,gray,I
0.0,6.0,1.0,1.0,6.0,0.0,0.0,6.0,1.0,phase_2,stop,450.0,150.0,4.0,,,,,,,,,blue,cross
0.0,7.0,2.0,1.0,5.0,5.0,414.9705258896574,6.0,1.0,phase_2,stop,450.0,200.0,3.0,,,,,,,,,magenta,flipped triangle
0.0,4.0,4.0,0.0,6.0,6.0,619.2418410209939,6.0,1.0,phase_2,go,400.0,200.0,1.0,,,,,,,,,green,circle
0.0,1.0,0.5,0.0,6.0,6.0,713.3711860515177,6.0,1.0,phase_2,go,400.0,200.0,1.0,,,,,,,,,cyan,triangle
0.0,1.0,0.5,0.0,5.0,5.0,635.4489850345999,6.0,1.0,phase_2,go,400.0,200.0,1.0,,,,,,,,,cyan,triangle
0.0,6.0,1.0,1.0,5.0,0.0,0.0,6.0,1.0,phase_2,stop,400.0,200.0,4.0,,,,,,,,,blue,cross
0.0,5.0,0.5,1.0,6.0,6.0,802.5658230762929,6.0,1.0,phase_2,go,450.0,200.0,1.0,,,,,,,,,gray,I
0.0,1.0,0.5,0.0,5.0,5.0,739.333535078913,6.0,1.0,phase_2,go,450.0,200.0,1.0,,,,,,,,,cyan,triangle
0.0,1.0,0.5,0.0,5.0,5.0,439.5972170168534,6.0,1.0,phase_2,go,450.0,200.0,1.0,,,,,,,,,cyan,triangle
0.0,1.0,0.5,0.0,5.0,5.0,722.4013329250738,6.0,1.0,phase_2,go,450.0,200.0,1.0,,,,,,,,,cyan,triangle
0.0,8.0,4.0,1.0,6.0,0.0,0.0,6.0,1.0,phase_2,stop,450.0,200.0,4.0,,,,,,,,,yellow,hexagon
0.0,4.0,4.0,0.0,5.0,5.0,775.6036400096491,6.0,1.0,phase_2,go,450.0,250.0,1.0,,,,,,,,,green,circle
0.0,8.0,4.0,1.0,6.0,6.0,273.5016229562461,6.0,1.0,phase_2,stop,450.0,250.0,3.0,,,,,,,,,yellow,hexagon
0.0,7.0,2.0,1.0,6.0,0.0,0.0,6.0,1.0,phase_2,stop,450.0,200.0,4.0,,,,,,,,,magenta,flipped triangle
0.0,6.0,1.0,1.0,6.0,6.0,763.8112501008436,6.0,1.0,phase_2,go,450.0,250.0,1.0,,,,,,,,,blue,cross
0.0,5.0,0.5,1.0,6.0,6.0,387.7746870275587,6.0,1.0,phase_2,stop,450.0,250.0,3.0,,,,,,,,,gray,I
0.0,4.0,4.0,0.0,5.0,5.0,605.5769009981304,6.0,1.0,phase_2,go,450.0,200.0,1.0,,,,,,,,,green,circle
0.0,6.0,1.0,1.0,5.0,5.0,468.8585950061679,6.0,1.0,phase_2,stop,450.0,200.0,3.0,,,,,,,,,blue,cross
0.0,8.0,4.0,1.0,5.0,5.0,753.9062809664756,6.0,1.0,phase_2,go,400.0,200.0,1.0,,,,,,,,,yellow,hexagon
0.0,8.0,4.0,1.0,5.0,0.0,0.0,6.0,1.0,phase_2,stop,400.0,200.0,4.0,,,,,,,,,yellow,hexagon
0.0,8.0,4.0,1.0,5.0,0.0,0.0,6.0,1.0,phase_2,stop,450.0,200.0,4.0,,,,,,,,,yellow,hexagon
0.0,3.0,2.0,0.0,5.0,5.0,707.2164929704741,6.0,1.0,phase_2,go,500.0,200.0,1.0,,,,,,,,,orange,diamond
0.0,3.0,2.0,0.0,6.0,6.0,775.2442080527544,6.0,1.0,phase_2,go,500.0,200.0,1.0,,,,,,,,,orange,diamond
0.0,3.0,2.0,0.0,5.0,5.0,623.3913640026003,6.0,1.0,phase_2,go,500.0,200.0,1.0,,,,,,,,,orange,diamond
0.0,5.0,0.5,1.0,5.0,5.0,377.0960930269211,7.0,1.0,phase_2,stop,500.0,200.0,3.0,,,,,,,,,gray,I
0.0,7.0,2.0,1.0,6.0,6.0,331.9107060087845,7.0,1.0,phase_2,stop,450.0,200.0,3.0,,,,,,,,,magenta,flipped triangle
0.0,7.0,2.0,1.0,6.0,6.0,339.2226860160008,7.0,1.0,phase_2,go,450.0,150.0,1.0,,,,,,,,,magenta,flipped triangle
0.0,3.0,2.0,0.0,6.0,6.0,615.2257169596851,7.0,1.0,phase_2,go,450.0,150.0,1.0,,,,,,,,,orange,diamond
0.0,2.0,1.0,0.0,6.0,6.0,423.6705970251933,7.0,1.0,phase_2,go,450.0,150.0,1.0,,,,,,,,,white,square
0.0,1.0,0.5,0.0,5.0,5.0,437.5871160300448,7.0,1.0,phase_2,go,450.0,150.0,1.0,,,,,,,,,cyan,triangle
0.0,1.0,0.5,0.0,6.0,6.0,413.5833471082151,7.0,1.0,phase_2,go,450.0,150.0,1.0,,,,,,,,,cyan,triangle
0.0,3.0,2.0,0.0,6.0,6.0,420.3434600494802,7.0,1.0,phase_2,go,450.0,150.0,1.0,,,,,,,,,orange,diamond
0.0,5.0,0.5,1.0,5.0,0.0,0.0,7.0,1.0,phase_2,stop,450.0,150.0,4.0,,,,,,,,,gray,I
0.0,8.0,4.0,1.0,6.0,0.0,0.0,7.0,1.0,phase_2,stop,500.0,150.0,4.0,,,,,,,,,yellow,hexagon
0.0,5.0,0.5,1.0,5.0,5.0,444.4302109768614,7.0,1.0,phase_2,go,500.0,200.0,1.0,,,,,,,,,gray,I
0.0,4.0,4.0,0.0,6.0,6.0,642.807130003348,7.0,1.0,phase_2,go,500.0,200.0,1.0,,,,,,,,,green,circle
0.0,5.0,0.5,1.0,5.0,0.0,0.0,7.0,1.0,phase_2,stop,500.0,200.0,4.0,,,,,,,,,gray,I
0.0,1.0,0.5,0.0,5.0,5.0,801.4120499137789,7.0,1.0,phase_2,go,550.0,200.0,1.0,,,,,,,,,cyan,triangle
0.0,2.0,1.0,0.0,5.0,5.0,880.9249569894746,7.0,1.0,phase_2,go,550.0,200.0,1.0,,,,,,,,,white,square
0.0,2.0,1.0,0.0,6.0,6.0,836.380016990006,7.0,1.0,phase_2,go,550.0,200.0,1.0,,,,,,,,,white,square
0.0,7.0,2.0,1.0,6.0,0.0,0.0,7.0,1.0,phase_2,stop,550.0,200.0,4.0,,,,,,,,,magenta,flipped triangle
0.0,5.0,0.5,1.0,6.0,6.0,727.3703889222816,7.0,1.0,phase_2,go,550.0,250.0,1.0,,,,,,,,,gray,I
0.0,1.0,0.5,0.0,6.0,6.0,815.3779850108549,7.0,1.0,phase_2,go,550.0,250.0,1.0,,,,,,,,,cyan,triangle
0.0,3.0,2.0,0.0,6.0,6.0,968.2878049788995,7.0,1.0,phase_2,go,550.0,250.0,1.0,,,,,,,,,orange,diamond
0.0,8.0,4.0,1.0,6.0,0.0,0.0,7.0,1.0,phase_2,stop,550.0,250.0,4.0,,,,,,,,,yellow,hexagon
0.0,6.0,1.0,1.0,6.0,0.0,0.0,7.0,1.0,phase_2,stop,550.0,300.0,4.0,,,,,,,,,blue,cross
0.0,8.0,4.0,1.0,6.0,0.0,0.0,7.0,1.0,phase_2,stop,550.0,350.0,4.0,,,,,,,,,yellow,hexagon
0.0,1.0,0.5,0.0,6.0,6.0,412.139790947549,7.0,1.0,phase_2,go,550.0,400.0,1.0,,,,,,,,,cyan,triangle
0.0,4.0,4.0,0.0,6.0,6.0,750.04676298704,7.0,1.0,phase_2,go,550.0,400.0,1.0,,,,,,,,,green,circle
0.0,4.0,4.0,0.0,6.0,6.0,693.3292399626225,7.0,1.0,phase_2,go,550.0,400.0,1.0,,,,,,,,,green,circle
0.0,2.0,1.0,0.0,6.0,6.0,606.3594829756767,7.0,1.0,phase_2,go,550.0,400.0,1.0,,,,,,,,,white,square
0.0,1.0,0.5,0.0,6.0,6.0,284.5287659438327,7.0,1.0,phase_2,go,550.0,400.0,1.0,,,,,,,,,cyan,triangle
0.0,6.0,1.0,1.0,6.0,0.0,0.0,7.0,1.0,phase_2,stop,550.0,400.0,4.0,,,,,,,,,blue,cross
0.0,5.0,0.5,1.0,5.0,0.0,0.0,7.0,1.0,phase_2,stop,550.0,450.0,4.0,,,,,,,,,gray,I
0.0,6.0,1.0,1.0,6.0,6.0,746.673930902034,7.0,1.0,phase_2,go,600.0,450.0,1.0,,,,,,,,,blue,cross
0.0,4.0,4.0,0.0,5.0,5.0,767.5106480019167,7.0,1.0,phase_2,go,600.0,450.0,1.0,,,,,,,,,green,circle
0.0,2.0,1.0,0.0,6.0,6.0,594.5434659952298,7.0,1.0,phase_2,go,600.0,450.0,1.0,,,,,,,,,white,square
0.0,4.0,4.0,0.0,5.0,5.0,561.0128440894186,7.0,1.0,phase_2,go,600.0,450.0,1.0,,,,,,,,,green,circle
0.0,6.0,1.0,1.0,5.0,5.0,677.8631629422307,7.0,1.0,phase_2,go,600.0,450.0,1.0,,,,,,,,,blue,cross
0.0,3.0,2.0,0.0,6.0,6.0,493.4104660060256,7.0,1.0,phase_2,go,600.0,450.0,1.0,,,,,,,,,orange,diamond
0.0,2.0,1.0,0.0,6.0,6.0,407.3317890288308,8.0,1.0,phase_2,go,600.0,450.0,1.0,,,,,,,,,white,square
0.0,8.0,4.0,1.0,6.0,6.0,383.5193009581417,8.0,1.0,phase_2,stop,600.0,450.0,3.0,,,,,,,,,yellow,hexagon
0.0,2.0,1.0,0.0,6.0,6.0,494.2875700071454,8.0,1.0,phase_2,go,600.0,400.0,1.0,,,,,,,,,white,square
0.0,3.0,2.0,0.0,6.0,6.0,387.3432179680094,8.0,1.0,phase_2,go,600.0,400.0,1.0,,,,,,,,,orange,diamond
0.0,7.0,2.0,1.0,5.0,5.0,620.9951450582594,8.0,1.0,phase_2,go,600.0,400.0,1.0,,,,,,,,,magenta,flipped triangle
0.0,6.0,1.0,1.0,6.0,0.0,0.0,8.0,1.0,phase_2,stop,600.0,400.0,4.0,,,,,,,,,blue,cross
0.0,7.0,2.0,1.0,5.0,5.0,419.2517950432375,8.0,1.0,phase_2,stop,600.0,450.0,3.0,,,,,,,,,magenta,flipped triangle
0.0,2.0,1.0,0.0,6.0,6.0,563.2069709245116,8.0,1.0,phase_2,go,550.0,450.0,1.0,,,,,,,,,white,square
0.0,5.0,0.5,1.0,6.0,0.0,0.0,8.0,1.0,phase_2,stop,550.0,450.0,4.0,,,,,,,,,gray,I
0.0,4.0,4.0,0.0,5.0,5.0,569.8923439485952,8.0,1.0,phase_2,go,550.0,500.0,1.0,,,,,,,,,green,circle
0.0,4.0,4.0,0.0,5.0,5.0,457.5916469329968,8.0,1.0,phase_2,go,550.0,500.0,1.0,,,,,,,,,green,circle
0.0,5.0,0.5,1.0,5.0,0.0,0.0,8.0,1.0,phase_2,stop,550.0,500.0,4.0,,,,,,,,,gray,I
0.0,5.0,0.5,1.0,5.0,0.0,0.0,8.0,1.0,phase_2,stop,600.0,500.0,4.0,,,,,,,,,gray,I
0.0,7.0,2.0,1.0,5.0,5.0,717.6532599842176,8.0,1.0,phase_2,stop,650.0,500.0,3.0,,,,,,,,,magenta,flipped triangle
0.0,2.0,1.0,0.0,5.0,5.0,624.0204899804667,8.0,1.0,phase_2,go,600.0,500.0,1.0,,,,,,,,,white,square
0.0,2.0,1.0,0.0,5.0,5.0,552.1298999665305,8.0,1.0,phase_2,go,600.0,500.0,1.0,,,,,,,,,white,square
0.0,1.0,0.5,0.0,5.0,5.0,556.3824239652604,8.0,1.0,phase_2,go,600.0,500.0,1.0,,,,,,,,,cyan,triangle
0.0,2.0,1.0,0.0,6.0,6.0,464.037402998656,8.0,1.0,phase_2,go,600.0,500.0,1.0,,,,,,,,,white,square
0.0,5.0,0.5,1.0,6.0,6.0,342.5477240234613,8.0,1.0,phase_2,stop,600.0,500.0,3.0,,,,,,,,,gray,I
0.0,8.0,4.0,1.0,5.0,5.0,426.7817899817601,8.0,1.0,phase_2,stop,600.0,450.0,3.0,,,,,,,,,yellow,hexagon
0.0,4.0,4.0,0.0,6.0,6.0,300.7905959384516,8.0,1.0,phase_2,go,550.0,450.0,1.0,,,,,,,,,green,circle
0.0,2.0,1.0,0.0,5.0,5.0,402.2468919865787,8.0,1.0,phase_2,go,550.0,450.0,1.0,,,,,,,,,white,square
0.0,1.0,0.5,0.0,6.0,6.0,284.9142369814217,8.0,1.0,phase_2,go,550.0,450.0,1.0,,,,,,,,,cyan,triangle
0.0,6.0,1.0,1.0,5.0,5.0,370.4894199036062,8.0,1.0,phase_2,stop,550.0,450.0,3.0,,,,,,,,,blue,cross
0.0,5.0,0.5,1.0,6.0,6.0,563.3749760454521,8.0,1.0,phase_2,go,500.0,450.0,1.0,,,,,,,,,gray,I
0.0,6.0,1.0,1.0,6.0,6.0,345.8462069975212,8.0,1.0,phase_2,stop,500.0,450.0,3.0,,,,,,,,,blue,cross
0.0,5.0,0.5,1.0,5.0,0.0,0.0,8.0,1.0,phase_2,stop,500.0,400.0,4.0,,,,,,,,,gray,I
0.0,1.0,0.5,0.0,5.0,5.0,774.2668419377878,8.0,1.0,phase_2,go,550.0,400.0,1.0,,,,,,,,,cyan,triangle
0.0,1.0,0.5,0.0,6.0,6.0,1014.3882309785113,8.0,1.0,phase_2,go,550.0,400.0,1.0,,,,,,,,,cyan,triangle
0.0,7.0,2.0,1.0,5.0,0.0,0.0,8.0,1.0,phase_2,stop,550.0,400.0,4.0,,,,,,,,,magenta,flipped triangle
0.0,1.0,0.5,0.0,6.0,6.0,604.5733720529824,8.0,1.0,phase_2,go,600.0,400.0,1.0,,,,,,,,,cyan,triangle
0.0,8.0,4.0,1.0,5.0,5.0,708.108326070942,8.0,1.0,phase_2,go,600.0,400.0,1.0,,,,,,,,,yellow,hexagon
0.0,5.0,0.5,1.0,5.0,5.0,523.5152740497142,8.0,1.0,phase_2,stop,600.0,400.0,3.0,,,,,,,,,gray,I
0.0,1.0,0.5,0.0,6.0,6.0,722.5751599762589,8.0,1.0,phase_2,go,550.0,400.0,1.0,,,,,,,,,cyan,triangle
0.0,8.0,4.0,1.0,5.0,5.0,653.8529020035639,8.0,1.0,phase_2,stop,550.0,400.0,3.0,,,,,,,,,yellow,hexagon
0.0,4.0,4.0,0.0,5.0,5.0,428.619340993464,8.0,1.0,phase_2,go,500.0,400.0,1.0,,,,,,,,,green,circle
0.0,3.0,2.0,0.0,7.0,5.0,1985.1737290155145,1.0,2.0,phase_3,,,,,270.0,5.0,216.0,162.0,324.0,108.0,270.0,54.0,orange,diamond
0.0,7.0,2.0,1.0,7.0,1.0,2361.893021967262,1.0,1.0,phase_3,,,,,270.0,5.0,270.0,324.0,108.0,216.0,54.0,162.0,magenta,flipped triangle
0.0,5.0,0.5,1.0,7.0,3.0,1622.927134972997,1.0,1.0,phase_3,,,,,170.0,5.0,136.0,34.0,170.0,102.0,204.0,68.0,gray,I
0.0,8.0,4.0,1.0,7.0,6.0,1407.050790032372,1.0,1.0,phase_3,,,,,245.0,5.0,147.0,294.0,49.0,196.0,98.0,245.0,yellow,hexagon
0.0,7.0,2.0,1.0,7.0,2.0,2134.039340075105,1.0,1.0,phase_3,,,,,196.0,4.0,98.0,196.0,294.0,49.0,245.0,147.0,magenta,flipped triangle
0.0,8.0,4.0,1.0,7.0,5.0,2432.744684978388,1.0,1.0,phase_3,,,,,234.0,6.0,39.0,195.0,156.0,78.0,234.0,117.0,yellow,hexagon
0.0,2.0,1.0,0.0,7.0,1.0,1256.7513859830797,1.0,1.0,phase_3,,,,,102.0,3.0,102.0,170.0,204.0,68.0,34.0,136.0,white,square
0.0,5.0,0.5,1.0,7.0,2.0,1963.5274750180545,1.0,1.0,phase_3,,,,,220.0,5.0,264.0,220.0,176.0,132.0,88.0,44.0,gray,I
0.0,5.0,0.5,1.0,7.0,6.0,1950.8296659914777,1.0,1.0,phase_3,,,,,216.0,4.0,324.0,162.0,108.0,54.0,270.0,216.0,gray,I
0.0,3.0,2.0,0.0,7.0,2.0,1415.0517269736156,1.0,1.0,phase_3,,,,,220.0,5.0,176.0,220.0,132.0,264.0,88.0,44.0,orange,diamond
0.0,2.0,1.0,0.0,7.0,2.0,1638.7259609764442,1.0,1.0,phase_3,,,,,39.0,1.0,78.0,39.0,195.0,234.0,117.0,156.0,white,square
0.0,6.0,1.0,1.0,7.0,4.0,1575.119951041415,1.0,1.0,phase_3,,,,,204.0,6.0,68.0,136.0,170.0,204.0,102.0,34.0,blue,cross
0.0,1.0,0.5,0.0,7.0,1.0,1402.2565149934962,1.0,1.0,phase_3,,,,,264.0,6.0,264.0,132.0,220.0,88.0,176.0,44.0,cyan,triangle
0.0,7.0,2.0,1.0,7.0,5.0,1782.073099981062,1.0,1.0,phase_3,,,,,216.0,4.0,54.0,108.0,324.0,270.0,216.0,162.0,magenta,flipped triangle
0.0,6.0,1.0,1.0,7.0,3.0,1941.8304760474712,1.0,1.0,phase_3,,,,,88.0,2.0,44.0,264.0,88.0,176.0,132.0,220.0,blue,cross
0.0,3.0,2.0,0.0,7.0,2.0,1279.9380860524252,1.0,1.0,phase_3,,,,,117.0,3.0,234.0,117.0,195.0,78.0,39.0,156.0,orange,diamond
0.0,8.0,4.0,1.0,7.0,4.0,1501.8791559850797,1.0,1.0,phase_3,,,,,117.0,3.0,195.0,78.0,156.0,117.0,39.0,234.0,yellow,hexagon
0.0,8.0,4.0,1.0,7.0,6.0,1530.4609430022538,1.0,1.0,phase_3,,,,,294.0,6.0,245.0,98.0,196.0,49.0,147.0,294.0,yellow,hexagon
0.0,1.0,0.5,0.0,7.0,4.0,2128.654733998701,1.0,1.0,phase_3,,,,,245.0,5.0,147.0,49.0,196.0,245.0,294.0,98.0,cyan,triangle
0.0,5.0,0.5,1.0,7.0,3.0,1402.6166909607127,1.0,1.0,phase_3,,,,,44.0,1.0,220.0,264.0,44.0,176.0,88.0,132.0,gray,I
0.0,6.0,1.0,1.0,7.0,3.0,622.8337930515409,2.0,1.0,phase_3,,,,,245.0,5.0,147.0,98.0,245.0,294.0,49.0,196.0,blue,cross
0.0,8.0,4.0,1.0,7.0,5.0,582.9899129457772,2.0,1.0,phase_3,,,,,176.0,4.0,264.0,132.0,220.0,44.0,176.0,88.0,yellow,hexagon
0.0,2.0,1.0,0.0,7.0,1.0,1344.4282710552216,2.0,1.0,phase_3,,,,,176.0,4.0,176.0,264.0,132.0,88.0,220.0,44.0,white,square
0.0,6.0,1.0,1.0,7.0,3.0,331.4336180919781,2.0,1.0,phase_3,,,,,176.0,4.0,44.0,264.0,176.0,88.0,220.0,132.0,blue,cross
0.0,6.0,1.0,1.0,7.0,5.0,1299.6835310477763,2.0,1.0,phase_3,,,,,234.0,6.0,195.0,117.0,39.0,156.0,234.0,78.0,blue,cross
0.0,3.0,2.0,0.0,7.0,2.0,855.0112660741434,2.0,1.0,phase_3,,,,,176.0,4.0,44.0,176.0,264.0,88.0,132.0,220.0,orange,diamond
0.0,4.0,4.0,0.0,7.0,3.0,502.5545860407874,2.0,1.0,phase_3,,,,,176.0,4.0,264.0,132.0,176.0,44.0,220.0,88.0,green,circle
0.0,7.0,2.0,1.0,7.0,4.0,1335.7893290231004,2.0,1.0,phase_3,,,,,234.0,6.0,78.0,195.0,117.0,234.0,156.0,39.0,magenta,flipped triangle
0.0,3.0,2.0,0.0,7.0,2.0,675.1949950121343,2.0,1.0,phase_3,,,,,162.0,3.0,270.0,162.0,54.0,324.0,216.0,108.0,orange,diamond
0.0,2.0,1.0,0.0,7.0,3.0,1802.32729006093,2.0,1.0,phase_3,,,,,294.0,6.0,196.0,147.0,294.0,245.0,98.0,49.0,white,square
0.0,6.0,1.0,1.0,7.0,6.0,541.5978750679642,2.0,1.0,phase_3,,,,,216.0,4.0,108.0,324.0,54.0,162.0,270.0,216.0,blue,cross
0.0,1.0,0.5,0.0,7.0,3.0,1607.1448790607974,2.0,1.0,phase_3,,,,,170.0,5.0,136.0,34.0,170.0,102.0,68.0,204.0,cyan,triangle
0.0,3.0,2.0,0.0,7.0,1.0,1329.4396869605407,2.0,1.0,phase_3,,,,,204.0,6.0,204.0,34.0,68.0,170.0,136.0,102.0,orange,diamond
0.0,5.0,0.5,1.0,7.0,3.0,1089.0761400805786,2.0,1.0,phase_3,,,,,39.0,1.0,156.0,234.0,39.0,195.0,117.0,78.0,gray,I
0.0,8.0,4.0,1.0,7.0,1.0,2011.2570420606062,2.0,1.0,phase_3,,,,,108.0,2.0,108.0,216.0,270.0,54.0,324.0,162.0,yellow,hexagon
0.0,2.0,1.0,0.0,7.0,5.0,1174.107895931229,2.0,1.0,phase_3,,,,,234.0,6.0,117.0,156.0,195.0,39.0,234.0,78.0,white,square
0.0,4.0,4.0,0.0,7.0,5.0,1806.9515509996563,2.0,1.0,phase_3,,,,,98.0,2.0,49.0,294.0,245.0,147.0,98.0,196.0,green,circle
0.0,1.0,0.5,0.0,7.0,4.0,1351.1095709400252,2.0,1.0,phase_3,,,,,39.0,1.0,78.0,156.0,117.0,39.0,234.0,195.0,cyan,triangle
0.0,2.0,1.0,0.0,7.0,4.0,2200.925036915578,2.0,1.0,phase_3,,,,,108.0,2.0,270.0,54.0,216.0,108.0,324.0,162.0,white,square
0.0,3.0,2.0,0.0,7.0,3.0,2225.3005240345374,2.0,1.0,phase_3,,,,,68.0,2.0,170.0,34.0,68.0,136.0,204.0,102.0,orange,diamond
0.0,3.0,2.0,0.0,7.0,4.0,690.2369840536267,3.0,1.0,phase_3,,,,,49.0,1.0,245.0,98.0,147.0,49.0,196.0,294.0,orange,diamond
0.0,8.0,4.0,1.0,7.0,2.0,555.8143469970673,3.0,1.0,phase_3,,,,,162.0,3.0,324.0,162.0,108.0,54.0,270.0,216.0,yellow,hexagon
0.0,1.0,0.5,0.0,7.0,5.0,668.7035229988396,3.0,1.0,phase_3,,,,,132.0,3.0,176.0,264.0,44.0,220.0,132.0,88.0,cyan,triangle
0.0,4.0,4.0,0.0,7.0,1.0,612.411467009224,3.0,1.0,phase_3,,,,,324.0,6.0,324.0,108.0,216.0,162.0,54.0,270.0,green,circle
0.0,8.0,4.0,1.0,7.0,3.0,534.5037219813094,3.0,1.0,phase_3,,,,,170.0,5.0,68.0,34.0,170.0,204.0,102.0,136.0,yellow,hexagon
0.0,7.0,2.0,1.0,7.0,6.0,735.7986569404602,3.0,1.0,phase_3,,,,,170.0,5.0,204.0,68.0,34.0,136.0,102.0,170.0,magenta,flipped triangle
0.0,1.0,0.5,0.0,7.0,3.0,657.0012780139223,3.0,1.0,phase_3,,,,,196.0,4.0,294.0,49.0,196.0,245.0,147.0,98.0,cyan,triangle
0.0,6.0,1.0,1.0,7.0,2.0,517.0445400290191,3.0,1.0,phase_3,,,,,156.0,4.0,234.0,156.0,78.0,117.0,195.0,39.0,blue,cross
0.0,4.0,4.0,0.0,7.0,6.0,575.228929053992,3.0,1.0,phase_3,,,,,78.0,2.0,156.0,195.0,117.0,234.0,39.0,78.0,green,circle
0.0,8.0,4.0,1.0,7.0,2.0,796.7552500776947,3.0,1.0,phase_3,,,,,176.0,4.0,220.0,176.0,44.0,88.0,132.0,264.0,yellow,hexagon
0.0,1.0,0.5,0.0,7.0,6.0,782.1451120544225,3.0,1.0,phase_3,,,,,162.0,3.0,216.0,270.0,54.0,324.0,108.0,162.0,cyan,triangle
0.0,4.0,4.0,0.0,7.0,2.0,359.644882963039,3.0,1.0,phase_3,,,,,220.0,5.0,88.0,220.0,176.0,264.0,44.0,132.0,green,circle
0.0,2.0,1.0,0.0,7.0,1.0,347.9238450527191,3.0,1.0,phase_3,,,,,196.0,4.0,196.0,98.0,49.0,294.0,147.0,245.0,white,square
0.0,5.0,0.5,1.0,7.0,5.0,428.337559918873,3.0,1.0,phase_3,,,,,136.0,4.0,204.0,170.0,34.0,68.0,136.0,102.0,gray,I
0.0,4.0,4.0,0.0,7.0,4.0,542.4840069608763,3.0,1.0,phase_3,,,,,102.0,3.0,170.0,34.0,204.0,102.0,136.0,68.0,green,circle
0.0,5.0,0.5,1.0,7.0,6.0,325.812162947841,3.0,1.0,phase_3,,,,,196.0,4.0,294.0,147.0,98.0,49.0,245.0,196.0,gray,I
0.0,5.0,0.5,1.0,7.0,2.0,425.4161129938438,3.0,1.0,phase_3,,,,,39.0,1.0,117.0,39.0,234.0,78.0,195.0,156.0,gray,I
0.0,2.0,1.0,0.0,7.0,3.0,279.4601089553907,3.0,1.0,phase_3,,,,,102.0,3.0,170.0,204.0,102.0,68.0,34.0,136.0,white,square
0.0,7.0,2.0,1.0,7.0,5.0,162.7033409895375,3.0,1.0,phase_3,,,,,234.0,6.0,39.0,156.0,78.0,117.0,234.0,195.0,magenta,flipped triangle
0.0,5.0,0.5,1.0,7.0,2.0,322.868446004577,3.0,1.0,phase_3,,,,,196.0,4.0,294.0,196.0,49.0,147.0,98.0,245.0,gray,I
0.0,4.0,4.0,0.0,7.0,3.0,987.479610950686,4.0,1.0,phase_3,,,,,147.0,3.0,98.0,196.0,147.0,245.0,294.0,49.0,green,circle
0.0,7.0,2.0,1.0,7.0,2.0,1357.0888980757445,4.0,1.0,phase_3,,,,,204.0,6.0,102.0,204.0,136.0,170.0,34.0,68.0,magenta,flipped triangle
0.0,4.0,4.0,0.0,7.0,5.0,678.4190851030871,4.0,1.0,phase_3,,,,,54.0,1.0,270.0,162.0,324.0,108.0,54.0,216.0,green,circle
0.0,7.0,2.0,1.0,7.0,6.0,919.5421589538456,4.0,1.0,phase_3,,,,,220.0,5.0,264.0,132.0,88.0,176.0,44.0,220.0,magenta,flipped triangle
0.0,7.0,2.0,1.0,7.0,3.0,417.0519079780206,4.0,1.0,phase_3,,,,,98.0,2.0,294.0,49.0,98.0,147.0,245.0,196.0,magenta,flipped triangle
0.0,1.0,0.5,0.0,7.0,5.0,285.8883930603042,4.0,1.0,phase_3,,,,,324.0,6.0,54.0,270.0,108.0,216.0,324.0,162.0,cyan,triangle
0.0,2.0,1.0,0.0,7.0,2.0,444.003134034574,4.0,1.0,phase_3,,,,,54.0,1.0,324.0,54.0,216.0,108.0,162.0,270.0,white,square
0.0,4.0,4.0,0.0,7.0,5.0,742.3951029777527,4.0,1.0,phase_3,,,,,39.0,1.0,195.0,78.0,156.0,234.0,39.0,117.0,green,circle
0.0,6.0,1.0,1.0,7.0,4.0,529.9619799479842,4.0,1.0,phase_3,,,,,102.0,3.0,170.0,136.0,68.0,102.0,34.0,204.0,blue,cross
0.0,3.0,2.0,0.0,7.0,2.0,586.7280979873613,4.0,1.0,phase_3,,,,,147.0,3.0,245.0,147.0,294.0,98.0,49.0,196.0,orange,diamond
0.0,7.0,2.0,1.0,7.0,6.0,281.5710449358448,4.0,1.0,phase_3,,,,,264.0,6.0,44.0,88.0,220.0,176.0,132.0,264.0,magenta,flipped triangle
0.0,6.0,1.0,1.0,7.0,2.0,486.7275919532403,4.0,1.0,phase_3,,,,,147.0,3.0,196.0,147.0,294.0,245.0,98.0,49.0,blue,cross
0.0,2.0,1.0,0.0,7.0,3.0,543.4403900289908,4.0,1.0,phase_3,,,,,132.0,3.0,176.0,264.0,132.0,44.0,88.0,220.0,white,square
0.0,8.0,4.0,1.0,7.0,4.0,574.4455109816045,4.0,1.0,phase_3,,,,,102.0,3.0,34.0,204.0,170.0,102.0,136.0,68.0,yellow,hexagon
0.0,1.0,0.5,0.0,7.0,2.0,904.8284159507602,4.0,1.0,phase_3,,,,,39.0,1.0,234.0,39.0,78.0,156.0,117.0,195.0,cyan,triangle
0.0,1.0,0.5,0.0,7.0,5.0,648.7159809330478,4.0,1.0,phase_3,,,,,68.0,2.0,136.0,170.0,102.0,204.0,68.0,34.0,cyan,triangle
0.0,4.0,4.0,0.0,7.0,5.0,572.5671800319105,4.0,1.0,phase_3,,,,,170.0,5.0,34.0,102.0,68.0,204.0,170.0,136.0,green,circle
0.0,6.0,1.0,1.0,7.0,2.0,487.1604049112648,4.0,1.0,phase_3,,,,,54.0,1.0,270.0,54.0,162.0,324.0,216.0,108.0,blue,cross
0.0,5.0,0.5,1.0,7.0,2.0,1390.8849259605631,4.0,1.0,phase_3,,,,,54.0,1.0,162.0,54.0,324.0,270.0,108.0,216.0,gray,I
0.0,3.0,2.0,0.0,7.0,6.0,679.5337500516325,4.0,1.0,phase_3,,,,,117.0,3.0,234.0,195.0,78.0,156.0,39.0,117.0,orange,diamond
