raw_reward_magnitude,stim_reward,stepwise_reward_magnitude,paired_with_stopping,stim_location,response,reaction_time,block,num_trial_presentations,which_phase,stop_signal_trial_type,left_SSD,right_SSD,accuracy,chosen_bidding_amount,chosen_bidding_level,possible_bid_1,possible_bid_2,possible_bid_3,possible_bid_4,possible_bid_5,possible_bid_6,color_text,shape_text
100.0,6.0,1.0,1.0,3.0,3.0,391.5440490236506,1.0,1.0,phase_1,,,,,,,,,,,,,magenta,diamond
108.0,6.0,1.0,1.0,1.0,1.0,333.8144669542089,1.0,1.0,phase_1,,,,,,,,,,,,,magenta,diamond
0.0,6.0,0.0,1.0,3.0,3.0,295.020809979178,1.0,1.0,phase_1,,,,,,,,,,,,,magenta,diamond
0.0,2.0,0.0,0.0,1.0,1.0,259.4732569996267,1.0,1.0,phase_1,,,,,,,,,,,,,cyan,hexagon
113.0,6.0,1.0,1.0,3.0,3.0,276.0922609595582,1.0,1.0,phase_1,,,,,,,,,,,,,magenta,diamond
208.0,3.0,2.0,0.0,2.0,2.0,308.2926350180059,1.0,1.0,phase_1,,,,,,,,,,,,,gray,triangle
28.0,1.0,0.5,0.0,1.0,1.0,315.508987987414,1.0,1.0,phase_1,,,,,,,,,,,,,green,square
70.0,1.0,0.5,0.0,1.0,1.0,288.6934030102566,1.0,1.0,phase_1,,,,,,,,,,,,,green,square
0.0,4.0,0.0,0.0,2.0,2.0,308.2249360159039,1.0,1.0,phase_1,,,,,,,,,,,,,yellow,cross
178.0,7.0,2.0,1.0,3.0,3.0,304.5296319760382,1.0,1.0,phase_1,,,,,,,,,,,,,orange,circle
208.0,7.0,2.0,1.0,2.0,2.0,292.6763499854132,1.0,1.0,phase_1,,,,,,,,,,,,,orange,circle
0.0,5.0,0.0,1.0,1.0,1.0,280.7416620198637,1.0,1.0,phase_1,,,,,,,,,,,,,blue,flipped triangle
192.0,3.0,2.0,0.0,1.0,1.0,304.6953269513324,1.0,1.0,phase_1,,,,,,,,,,,,,gray,triangle
399.0,8.0,4.0,1.0,1.0,1.0,284.2905400320887,1.0,1.0,phase_1,,,,,,,,,,,,,white,I
216.0,7.0,2.0,1.0,3.0,3.0,296.9541749916971,1.0,1.0,phase_1,,,,,,,,,,,,,orange,circle
378.0,8.0,4.0,1.0,3.0,3.0,334.282784955576,1.0,1.0,phase_1,,,,,,,,,,,,,white,I
416.0,4.0,4.0,0.0,4.0,4.0,314.6039879648015,1.0,1.0,phase_1,,,,,,,,,,,,,yellow,cross
0.0,1.0,0.0,0.0,1.0,1.0,268.8848569523543,1.0,1.0,phase_1,,,,,,,,,,,,,green,square
67.0,5.0,0.5,1.0,2.0,2.0,293.2916090358048,1.0,1.0,phase_1,,,,,,,,,,,,,blue,flipped triangle
125.0,6.0,1.0,1.0,2.0,2.0,305.0649350043386,1.0,1.0,phase_1,,,,,,,,,,,,,magenta,diamond
398.0,8.0,4.0,1.0,4.0,4.0,533.1605350365862,1.0,1.0,phase_1,,,,,,,,,,,,,white,I
408.0,8.0,4.0,1.0,1.0,1.0,615.6192820053548,1.0,1.0,phase_1,,,,,,,,,,,,,white,I
85.0,2.0,1.0,0.0,2.0,2.0,751.426842994988,1.0,1.0,phase_1,,,,,,,,,,,,,cyan,hexagon
206.0,7.0,2.0,1.0,2.0,2.0,897.7105460362509,1.0,1.0,phase_1,,,,,,,,,,,,,orange,circle
179.0,7.0,2.0,1.0,2.0,2.0,411.0454499023035,1.0,2.0,phase_1,,,,,,,,,,,,,orange,circle
179.0,3.0,2.0,0.0,2.0,2.0,343.7270040158182,1.0,1.0,phase_1,,,,,,,,,,,,,gray,triangle
25.0,1.0,0.5,0.0,1.0,1.0,327.8138649184257,1.0,1.0,phase_1,,,,,,,,,,,,,green,square
0.0,7.0,0.0,1.0,2.0,2.0,308.1520029809326,1.0,1.0,phase_1,,,,,,,,,,,,,orange,circle
210.0,3.0,2.0,0.0,2.0,2.0,334.7162309801206,1.0,1.0,phase_1,,,,,,,,,,,,,gray,triangle
225.0,3.0,2.0,0.0,4.0,4.0,341.859707958065,1.0,1.0,phase_1,,,,,,,,,,,,,gray,triangle
104.0,2.0,1.0,0.0,1.0,1.0,438.6646569473669,1.0,1.0,phase_1,,,,,,,,,,,,,cyan,hexagon
219.0,7.0,2.0,1.0,4.0,4.0,380.8117579901591,1.0,1.0,phase_1,,,,,,,,,,,,,orange,circle
53.0,1.0,0.5,0.0,2.0,2.0,297.6292460225522,1.0,1.0,phase_1,,,,,,,,,,,,,green,square
119.0,6.0,1.0,1.0,2.0,2.0,559.456484974362,1.0,1.0,phase_1,,,,,,,,,,,,,magenta,diamond
125.0,2.0,1.0,0.0,1.0,1.0,540.7617839518934,1.0,1.0,phase_1,,,,,,,,,,,,,cyan,hexagon
420.0,8.0,4.0,1.0,2.0,2.0,533.8108920259401,1.0,1.0,phase_1,,,,,,,,,,,,,white,I
0.0,4.0,0.0,0.0,3.0,3.0,598.00710901618,1.0,1.0,phase_1,,,,,,,,,,,,,yellow,cross
122.0,2.0,1.0,0.0,2.0,2.0,337.6568320672959,1.0,1.0,phase_1,,,,,,,,,,,,,cyan,hexagon
25.0,1.0,0.5,0.0,3.0,3.0,359.9062940338626,1.0,1.0,phase_1,,,,,,,,,,,,,green,square
418.0,4.0,4.0,0.0,4.0,4.0,393.894788925536,1.0,1.0,phase_1,,,,,,,,,,,,,yellow,cross
399.0,4.0,4.0,0.0,4.0,4.0,326.8132410012185,1.0,1.0,phase_1,,,,,,,,,,,,,yellow,cross
78.0,2.0,1.0,0.0,3.0,3.0,341.9784409925341,1.0,1.0,phase_1,,,,,,,,,,,,,cyan,hexagon
52.0,1.0,0.5,0.0,1.0,1.0,297.4800349911675,1.0,1.0,phase_1,,,,,,,,,,,,,green,square
38.0,5.0,0.5,1.0,2.0,2.0,317.0673010172322,1.0,1.0,phase_1,,,,,,,,,,,,,blue,flipped triangle
186.0,7.0,2.0,1.0,4.0,4.0,281.3545379322022,1.0,1.0,phase_1,,,,,,,,,,,,,orange,circle
411.0,4.0,4.0,0.0,2.0,2.0,285.5845969170332,1.0,1.0,phase_1,,,,,,,,,,,,,yellow,cross
225.0,7.0,2.0,1.0,4.0,4.0,305.6154110236093,1.0,1.0,phase_1,,,,,,,,,,,,,orange,circle
67.0,1.0,0.5,0.0,4.0,4.0,318.1855379370972,1.0,1.0,phase_1,,,,,,,,,,,,,green,square
73.0,5.0,0.5,1.0,3.0,3.0,333.7189219892025,1.0,1.0,phase_1,,,,,,,,,,,,,blue,flipped triangle
96.0,2.0,1.0,0.0,4.0,4.0,499.7319499962032,1.0,1.0,phase_1,,,,,,,,,,,,,cyan,hexagon
407.0,4.0,4.0,0.0,3.0,3.0,316.9459790224209,1.0,1.0,phase_1,,,,,,,,,,,,,yellow,cross
0.0,1.0,0.0,0.0,3.0,3.0,338.8107910286635,1.0,1.0,phase_1,,,,,,,,,,,,,green,square
91.0,6.0,1.0,1.0,1.0,1.0,320.8237299695611,1.0,1.0,phase_1,,,,,,,,,,,,,magenta,diamond
0.0,4.0,0.0,0.0,2.0,2.0,299.1486310493201,1.0,1.0,phase_1,,,,,,,,,,,,,yellow,cross
387.0,4.0,4.0,0.0,3.0,3.0,287.9570130025968,1.0,1.0,phase_1,,,,,,,,,,,,,yellow,cross
78.0,6.0,1.0,1.0,4.0,4.0,325.4611029988155,1.0,1.0,phase_1,,,,,,,,,,,,,magenta,diamond
411.0,4.0,4.0,0.0,4.0,4.0,348.7811249215156,1.0,1.0,phase_1,,,,,,,,,,,,,yellow,cross
0.0,6.0,0.0,1.0,2.0,2.0,285.2329040179029,1.0,1.0,phase_1,,,,,,,,,,,,,magenta,diamond
420.0,4.0,4.0,0.0,3.0,3.0,293.7746880343184,1.0,1.0,phase_1,,,,,,,,,,,,,yellow,cross
0.0,5.0,0.0,1.0,4.0,4.0,322.2186949569732,1.0,1.0,phase_1,,,,,,,,,,,,,blue,flipped triangle
109.0,2.0,1.0,0.0,3.0,3.0,301.2488100212067,1.0,1.0,phase_1,,,,,,,,,,,,,cyan,hexagon
208.0,3.0,2.0,0.0,4.0,4.0,336.4086539950222,1.0,1.0,phase_1,,,,,,,,,,,,,gray,triangle
0.0,3.0,0.0,0.0,3.0,3.0,292.5781919620931,1.0,1.0,phase_1,,,,,,,,,,,,,gray,triangle
0.0,3.0,0.0,0.0,1.0,1.0,304.9615089548751,1.0,1.0,phase_1,,,,,,,,,,,,,gray,triangle
198.0,7.0,2.0,1.0,4.0,4.0,305.9940970269963,1.0,1.0,phase_1,,,,,,,,,,,,,orange,circle
206.0,3.0,2.0,0.0,1.0,1.0,298.3483040006831,1.0,1.0,phase_1,,,,,,,,,,,,,gray,triangle
91.0,2.0,1.0,0.0,3.0,3.0,271.9682599417865,1.0,1.0,phase_1,,,,,,,,,,,,,cyan,hexagon
378.0,4.0,4.0,0.0,4.0,4.0,300.44134007766837,1.0,1.0,phase_1,,,,,,,,,,,,,yellow,cross
176.0,3.0,2.0,0.0,4.0,4.0,289.2357120290398,1.0,1.0,phase_1,,,,,,,,,,,,,gray,triangle
68.0,5.0,0.5,1.0,4.0,4.0,288.0413759266957,1.0,1.0,phase_1,,,,,,,,,,,,,blue,flipped triangle
419.0,8.0,4.0,1.0,1.0,1.0,307.5294729787856,1.0,1.0,phase_1,,,,,,,,,,,,,white,I
0.0,8.0,0.0,1.0,3.0,3.0,295.4363080207258,1.0,1.0,phase_1,,,,,,,,,,,,,white,I
122.0,6.0,1.0,1.0,3.0,3.0,333.0184749793261,1.0,1.0,phase_1,,,,,,,,,,,,,magenta,diamond
35.0,5.0,0.5,1.0,1.0,1.0,327.8313929913565,1.0,1.0,phase_1,,,,,,,,,,,,,blue,flipped triangle
55.0,5.0,0.5,1.0,3.0,3.0,317.0792130986228,1.0,1.0,phase_1,,,,,,,,,,,,,blue,flipped triangle
176.0,7.0,2.0,1.0,1.0,1.0,284.4718151027336,1.0,1.0,phase_1,,,,,,,,,,,,,orange,circle
124.0,2.0,1.0,0.0,2.0,2.0,304.0716570103541,1.0,1.0,phase_1,,,,,,,,,,,,,cyan,hexagon
83.0,2.0,1.0,0.0,3.0,3.0,283.4980679908767,1.0,1.0,phase_1,,,,,,,,,,,,,cyan,hexagon
42.0,1.0,0.5,0.0,2.0,2.0,281.3442790647968,1.0,1.0,phase_1,,,,,,,,,,,,,green,square
51.0,5.0,0.5,1.0,3.0,3.0,308.1003139959648,1.0,1.0,phase_1,,,,,,,,,,,,,blue,flipped triangle
37.0,5.0,0.5,1.0,1.0,1.0,297.8749310132116,1.0,1.0,phase_1,,,,,,,,,,,,,blue,flipped triangle
124.0,6.0,1.0,1.0,2.0,2.0,255.7874140329659,1.0,1.0,phase_1,,,,,,,,,,,,,magenta,diamond
201.0,3.0,2.0,0.0,4.0,4.0,324.7545809717849,1.0,1.0,phase_1,,,,,,,,,,,,,gray,triangle
196.0,7.0,2.0,1.0,3.0,3.0,298.4938570298254,1.0,1.0,phase_1,,,,,,,,,,,,,orange,circle
0.0,8.0,0.0,1.0,2.0,2.0,307.3270649183541,1.0,1.0,phase_1,,,,,,,,,,,,,white,I
95.0,2.0,1.0,0.0,4.0,4.0,313.0687329685315,1.0,1.0,phase_1,,,,,,,,,,,,,cyan,hexagon
376.0,4.0,4.0,0.0,2.0,2.0,311.9548379909247,1.0,1.0,phase_1,,,,,,,,,,,,,yellow,cross
50.0,1.0,0.5,0.0,2.0,2.0,338.2688729325309,1.0,1.0,phase_1,,,,,,,,,,,,,green,square
0.0,2.0,0.0,0.0,4.0,4.0,318.1273440131917,1.0,1.0,phase_1,,,,,,,,,,,,,cyan,hexagon
78.0,6.0,1.0,1.0,3.0,3.0,326.4464889653027,1.0,1.0,phase_1,,,,,,,,,,,,,magenta,diamond
419.0,4.0,4.0,0.0,3.0,3.0,296.1874209577217,1.0,1.0,phase_1,,,,,,,,,,,,,yellow,cross
101.0,2.0,1.0,0.0,2.0,2.0,260.7172050047666,1.0,1.0,phase_1,,,,,,,,,,,,,cyan,hexagon
413.0,8.0,4.0,1.0,1.0,1.0,325.1670909812674,1.0,1.0,phase_1,,,,,,,,,,,,,white,I
112.0,2.0,1.0,0.0,1.0,1.0,304.8214559676125,1.0,1.0,phase_1,,,,,,,,,,,,,cyan,hexagon
70.0,5.0,0.5,1.0,2.0,2.0,301.5071660047397,1.0,1.0,phase_1,,,,,,,,,,,,,blue,flipped triangle
194.0,3.0,2.0,0.0,2.0,2.0,296.7839839402586,1.0,1.0,phase_1,,,,,,,,,,,,,gray,triangle
413.0,8.0,4.0,1.0,2.0,2.0,291.6392729384824,1.0,1.0,phase_1,,,,,,,,,,,,,white,I
97.0,6.0,1.0,1.0,4.0,4.0,377.320414991118,1.0,1.0,phase_1,,,,,,,,,,,,,magenta,diamond
0.0,4.0,0.0,0.0,2.0,2.0,256.2113649910316,1.0,1.0,phase_1,,,,,,,,,,,,,yellow,cross
0.0,3.0,0.0,0.0,1.0,1.0,324.0538529353216,1.0,1.0,phase_1,,,,,,,,,,,,,gray,triangle
35.0,5.0,0.5,1.0,1.0,1.0,328.0575829558074,2.0,1.0,phase_1,,,,,,,,,,,,,blue,flipped triangle
0.0,8.0,0.0,1.0,2.0,2.0,293.7451510224491,2.0,1.0,phase_1,,,,,,,,,,,,,white,I
419.0,4.0,4.0,0.0,1.0,1.0,285.6767699122429,2.0,1.0,phase_1,,,,,,,,,,,,,yellow,cross
393.0,8.0,4.0,1.0,4.0,4.0,311.4875549217686,2.0,1.0,phase_1,,,,,,,,,,,,,white,I
50.0,1.0,0.5,0.0,4.0,4.0,308.5920159937814,2.0,1.0,phase_1,,,,,,,,,,,,,green,square
73.0,5.0,0.5,1.0,4.0,4.0,295.6423390423879,2.0,1.0,phase_1,,,,,,,,,,,,,blue,flipped triangle
60.0,5.0,0.5,1.0,1.0,1.0,300.2102879108861,2.0,1.0,phase_1,,,,,,,,,,,,,blue,flipped triangle
0.0,5.0,0.0,1.0,3.0,3.0,305.2576590562239,2.0,1.0,phase_1,,,,,,,,,,,,,blue,flipped triangle
80.0,2.0,1.0,0.0,3.0,3.0,336.1747469753027,2.0,1.0,phase_1,,,,,,,,,,,,,cyan,hexagon
178.0,7.0,2.0,1.0,1.0,1.0,306.5836649620905,2.0,1.0,phase_1,,,,,,,,,,,,,orange,circle
81.0,6.0,1.0,1.0,1.0,1.0,295.3216239111498,2.0,1.0,phase_1,,,,,,,,,,,,,magenta,diamond
36.0,5.0,0.5,1.0,2.0,2.0,332.1661439258605,2.0,1.0,phase_1,,,,,,,,,,,,,blue,flipped triangle
38.0,1.0,0.5,0.0,4.0,4.0,337.3202600050717,2.0,1.0,phase_1,,,,,,,,,,,,,green,square
0.0,8.0,0.0,1.0,2.0,2.0,344.3621359765529,2.0,1.0,phase_1,,,,,,,,,,,,,white,I
205.0,3.0,2.0,0.0,3.0,3.0,300.848472979851,2.0,1.0,phase_1,,,,,,,,,,,,,gray,triangle
387.0,8.0,4.0,1.0,3.0,3.0,304.7666389029473,2.0,1.0,phase_1,,,,,,,,,,,,,white,I
53.0,5.0,0.5,1.0,3.0,3.0,311.3947049714625,2.0,1.0,phase_1,,,,,,,,,,,,,blue,flipped triangle
56.0,1.0,0.5,0.0,1.0,1.0,288.3344310102984,2.0,1.0,phase_1,,,,,,,,,,,,,green,square
419.0,8.0,4.0,1.0,4.0,4.0,284.8326299572363,2.0,1.0,phase_1,,,,,,,,,,,,,white,I
112.0,6.0,1.0,1.0,4.0,4.0,315.9943310311064,2.0,1.0,phase_1,,,,,,,,,,,,,magenta,diamond
401.0,4.0,4.0,0.0,1.0,1.0,271.0848909337073,2.0,1.0,phase_1,,,,,,,,,,,,,yellow,cross
35.0,1.0,0.5,0.0,2.0,2.0,300.7553319912404,2.0,1.0,phase_1,,,,,,,,,,,,,green,square
33.0,1.0,0.5,0.0,2.0,2.0,296.4372499845922,2.0,1.0,phase_1,,,,,,,,,,,,,green,square
60.0,1.0,0.5,0.0,2.0,2.0,301.7021049745381,2.0,1.0,phase_1,,,,,,,,,,,,,green,square
109.0,6.0,1.0,1.0,4.0,4.0,321.4015020057559,2.0,1.0,phase_1,,,,,,,,,,,,,magenta,diamond
399.0,4.0,4.0,0.0,3.0,3.0,317.2630320768803,2.0,1.0,phase_1,,,,,,,,,,,,,yellow,cross
385.0,4.0,4.0,0.0,2.0,2.0,301.6646340256557,2.0,1.0,phase_1,,,,,,,,,,,,,yellow,cross
68.0,1.0,0.5,0.0,3.0,3.0,320.5085929948836,2.0,1.0,phase_1,,,,,,,,,,,,,green,square
0.0,6.0,0.0,1.0,1.0,1.0,299.5170939248055,2.0,1.0,phase_1,,,,,,,,,,,,,magenta,diamond
0.0,2.0,0.0,0.0,1.0,1.0,322.3286879947409,2.0,1.0,phase_1,,,,,,,,,,,,,cyan,hexagon
0.0,7.0,0.0,1.0,3.0,3.0,342.7220029989257,2.0,1.0,phase_1,,,,,,,,,,,,,orange,circle
418.0,8.0,4.0,1.0,1.0,1.0,353.4665700281039,2.0,1.0,phase_1,,,,,,,,,,,,,white,I
408.0,8.0,4.0,1.0,1.0,1.0,305.2638359367847,2.0,1.0,phase_1,,,,,,,,,,,,,white,I
67.0,1.0,0.5,0.0,4.0,4.0,316.5794409578666,2.0,1.0,phase_1,,,,,,,,,,,,,green,square
178.0,3.0,2.0,0.0,1.0,1.0,307.7530550071969,2.0,1.0,phase_1,,,,,,,,,,,,,gray,triangle
407.0,8.0,4.0,1.0,3.0,3.0,333.1019729375839,2.0,1.0,phase_1,,,,,,,,,,,,,white,I
0.0,6.0,0.0,1.0,2.0,2.0,280.6124279741198,2.0,1.0,phase_1,,,,,,,,,,,,,magenta,diamond
85.0,6.0,1.0,1.0,1.0,1.0,265.2515299851075,2.0,1.0,phase_1,,,,,,,,,,,,,magenta,diamond
0.0,1.0,0.0,0.0,4.0,4.0,308.7408230639994,2.0,1.0,phase_1,,,,,,,,,,,,,green,square
73.0,1.0,0.5,0.0,1.0,1.0,262.8006800077855,2.0,1.0,phase_1,,,,,,,,,,,,,green,square
196.0,7.0,2.0,1.0,1.0,1.0,307.7538179932162,2.0,1.0,phase_1,,,,,,,,,,,,,orange,circle
89.0,6.0,1.0,1.0,3.0,3.0,304.7187409829348,2.0,1.0,phase_1,,,,,,,,,,,,,magenta,diamond
408.0,4.0,4.0,0.0,4.0,4.0,312.79194902163,2.0,1.0,phase_1,,,,,,,,,,,,,yellow,cross
196.0,3.0,2.0,0.0,3.0,3.0,300.5875289672985,2.0,1.0,phase_1,,,,,,,,,,,,,gray,triangle
25.0,5.0,0.5,1.0,1.0,1.0,288.8168198987841,2.0,1.0,phase_1,,,,,,,,,,,,,blue,flipped triangle
186.0,3.0,2.0,0.0,3.0,3.0,307.6283079572022,2.0,1.0,phase_1,,,,,,,,,,,,,gray,triangle
411.0,8.0,4.0,1.0,3.0,3.0,312.76185193564737,2.0,1.0,phase_1,,,,,,,,,,,,,white,I
0.0,4.0,0.0,0.0,3.0,3.0,288.7311439262703,2.0,1.0,phase_1,,,,,,,,,,,,,yellow,cross
398.0,8.0,4.0,1.0,2.0,2.0,321.2492029415443,2.0,1.0,phase_1,,,,,,,,,,,,,white,I
0.0,4.0,0.0,0.0,4.0,4.0,346.0884880041703,2.0,1.0,phase_1,,,,,,,,,,,,,yellow,cross
0.0,6.0,0.0,1.0,2.0,2.0,419.6922249393537,2.0,1.0,phase_1,,,,,,,,,,,,,magenta,diamond
0.0,5.0,0.0,1.0,4.0,4.0,345.3111960552633,2.0,1.0,phase_1,,,,,,,,,,,,,blue,flipped triangle
0.0,6.0,0.0,1.0,3.0,3.0,309.6868080319837,2.0,1.0,phase_1,,,,,,,,,,,,,magenta,diamond
33.0,1.0,0.5,0.0,1.0,1.0,313.0496450467035,2.0,1.0,phase_1,,,,,,,,,,,,,green,square
381.0,4.0,4.0,0.0,1.0,1.0,313.4144418872893,2.0,1.0,phase_1,,,,,,,,,,,,,yellow,cross
180.0,3.0,2.0,0.0,1.0,1.0,299.9371800106019,2.0,1.0,phase_1,,,,,,,,,,,,,gray,triangle
195.0,7.0,2.0,1.0,1.0,1.0,265.1350159430876,2.0,1.0,phase_1,,,,,,,,,,,,,orange,circle
224.0,7.0,2.0,1.0,1.0,1.0,268.26856599655,2.0,1.0,phase_1,,,,,,,,,,,,,orange,circle
418.0,8.0,4.0,1.0,2.0,2.0,303.9514179108664,2.0,1.0,phase_1,,,,,,,,,,,,,white,I
398.0,4.0,4.0,0.0,3.0,3.0,308.7130459025502,2.0,1.0,phase_1,,,,,,,,,,,,,yellow,cross
424.0,4.0,4.0,0.0,4.0,4.0,300.1552789937705,2.0,1.0,phase_1,,,,,,,,,,,,,yellow,cross
177.0,3.0,2.0,0.0,2.0,2.0,304.553820984438,2.0,1.0,phase_1,,,,,,,,,,,,,gray,triangle
94.0,2.0,1.0,0.0,4.0,4.0,259.5710710156709,2.0,1.0,phase_1,,,,,,,,,,,,,cyan,hexagon
97.0,2.0,1.0,0.0,3.0,3.0,386.6341790417209,2.0,1.0,phase_1,,,,,,,,,,,,,cyan,hexagon
399.0,8.0,4.0,1.0,4.0,4.0,301.0180160636082,2.0,1.0,phase_1,,,,,,,,,,,,,white,I
411.0,4.0,4.0,0.0,1.0,1.0,308.9207039447501,2.0,1.0,phase_1,,,,,,,,,,,,,yellow,cross
0.0,4.0,0.0,0.0,1.0,1.0,279.9633679678663,2.0,1.0,phase_1,,,,,,,,,,,,,yellow,cross
25.0,5.0,0.5,1.0,3.0,3.0,292.2080759890377,2.0,1.0,phase_1,,,,,,,,,,,,,blue,flipped triangle
63.0,1.0,0.5,0.0,3.0,3.0,297.1583659527823,2.0,1.0,phase_1,,,,,,,,,,,,,green,square
376.0,8.0,4.0,1.0,2.0,2.0,311.1432549776509,2.0,1.0,phase_1,,,,,,,,,,,,,white,I
0.0,3.0,0.0,0.0,1.0,1.0,304.670660989359,2.0,1.0,phase_1,,,,,,,,,,,,,gray,triangle
94.0,6.0,1.0,1.0,2.0,2.0,308.9740470750257,2.0,1.0,phase_1,,,,,,,,,,,,,magenta,diamond
404.0,4.0,4.0,0.0,2.0,2.0,305.6264340411871,2.0,1.0,phase_1,,,,,,,,,,,,,yellow,cross
0.0,6.0,0.0,1.0,2.0,2.0,282.0469589205459,2.0,1.0,phase_1,,,,,,,,,,,,,magenta,diamond
384.0,4.0,4.0,0.0,3.0,3.0,309.49671799317,2.0,1.0,phase_1,,,,,,,,,,,,,yellow,cross
214.0,3.0,2.0,0.0,1.0,1.0,321.3775550248101,2.0,1.0,phase_1,,,,,,,,,,,,,gray,triangle
0.0,2.0,0.0,0.0,3.0,3.0,301.3127399608493,2.0,1.0,phase_1,,,,,,,,,,,,,cyan,hexagon
59.0,1.0,0.5,0.0,3.0,3.0,305.4165119538083,2.0,1.0,phase_1,,,,,,,,,,,,,green,square
91.0,2.0,1.0,0.0,4.0,4.0,302.1134160226211,2.0,1.0,phase_1,,,,,,,,,,,,,cyan,hexagon
120.0,6.0,1.0,1.0,4.0,4.0,307.7208950417116,2.0,1.0,phase_1,,,,,,,,,,,,,magenta,diamond
104.0,6.0,1.0,1.0,4.0,4.0,313.6927679879591,2.0,1.0,phase_1,,,,,,,,,,,,,magenta,diamond
51.0,1.0,0.5,0.0,3.0,3.0,300.5269489949569,2.0,1.0,phase_1,,,,,,,,,,,,,green,square
83.0,6.0,1.0,1.0,2.0,2.0,320.590793970041,2.0,1.0,phase_1,,,,,,,,,,,,,magenta,diamond
221.0,7.0,2.0,1.0,1.0,1.0,317.3647139919922,2.0,1.0,phase_1,,,,,,,,,,,,,orange,circle
0.0,4.0,0.0,0.0,4.0,4.0,333.1210239557549,2.0,1.0,phase_1,,,,,,,,,,,,,yellow,cross
419.0,4.0,4.0,0.0,2.0,2.0,304.8972900724038,2.0,1.0,phase_1,,,,,,,,,,,,,yellow,cross
97.0,2.0,1.0,0.0,1.0,1.0,300.5379980895668,2.0,1.0,phase_1,,,,,,,,,,,,,cyan,hexagon
0.0,7.0,0.0,1.0,3.0,3.0,313.8936709146946,2.0,1.0,phase_1,,,,,,,,,,,,,orange,circle
192.0,7.0,2.0,1.0,3.0,3.0,303.7869639229029,2.0,1.0,phase_1,,,,,,,,,,,,,orange,circle
100.0,2.0,1.0,0.0,1.0,1.0,306.6036340314895,2.0,1.0,phase_1,,,,,,,,,,,,,cyan,hexagon
376.0,4.0,4.0,0.0,3.0,3.0,305.2634409395978,2.0,1.0,phase_1,,,,,,,,,,,,,yellow,cross
0.0,7.0,0.0,1.0,2.0,2.0,372.6582999806851,2.0,1.0,phase_1,,,,,,,,,,,,,orange,circle
213.0,7.0,2.0,1.0,3.0,3.0,304.2158120078966,2.0,1.0,phase_1,,,,,,,,,,,,,orange,circle
83.0,6.0,1.0,1.0,2.0,2.0,307.7992349863052,2.0,1.0,phase_1,,,,,,,,,,,,,magenta,diamond
0.0,3.0,0.0,0.0,3.0,3.0,324.4072910165414,2.0,1.0,phase_1,,,,,,,,,,,,,gray,triangle
0.0,7.0,0.0,1.0,3.0,3.0,317.7417970728129,2.0,1.0,phase_1,,,,,,,,,,,,,orange,circle
35.0,5.0,0.5,1.0,4.0,4.0,316.6464200476184,2.0,1.0,phase_1,,,,,,,,,,,,,blue,flipped triangle
76.0,2.0,1.0,0.0,2.0,2.0,343.9531980548054,2.0,1.0,phase_1,,,,,,,,,,,,,cyan,hexagon
390.0,4.0,4.0,0.0,2.0,2.0,333.7775380350649,2.0,1.0,phase_1,,,,,,,,,,,,,yellow,cross
70.0,1.0,0.5,0.0,3.0,3.0,307.9222419764846,2.0,1.0,phase_1,,,,,,,,,,,,,green,square
0.0,3.0,0.0,0.0,3.0,3.0,333.0870530335232,3.0,1.0,phase_1,,,,,,,,,,,,,gray,triangle
0.0,1.0,0.0,0.0,4.0,4.0,329.6347990399226,3.0,1.0,phase_1,,,,,,,,,,,,,green,square
215.0,7.0,2.0,1.0,4.0,4.0,287.9888650495559,3.0,1.0,phase_1,,,,,,,,,,,,,orange,circle
76.0,6.0,1.0,1.0,1.0,1.0,316.8831040384248,3.0,1.0,phase_1,,,,,,,,,,,,,magenta,diamond
40.0,5.0,0.5,1.0,4.0,4.0,295.9947329945862,3.0,1.0,phase_1,,,,,,,,,,,,,blue,flipped triangle
0.0,3.0,0.0,0.0,1.0,1.0,522.572061046958,3.0,1.0,phase_1,,,,,,,,,,,,,gray,triangle
199.0,3.0,2.0,0.0,3.0,3.0,311.8820990202948,3.0,1.0,phase_1,,,,,,,,,,,,,gray,triangle
176.0,7.0,2.0,1.0,2.0,2.0,291.9540150323882,3.0,1.0,phase_1,,,,,,,,,,,,,orange,circle
214.0,7.0,2.0,1.0,3.0,3.0,300.3904060460627,3.0,1.0,phase_1,,,,,,,,,,,,,orange,circle
102.0,2.0,1.0,0.0,2.0,2.0,296.0742879658937,3.0,1.0,phase_1,,,,,,,,,,,,,cyan,hexagon
54.0,1.0,0.5,0.0,2.0,2.0,306.5244590397924,3.0,1.0,phase_1,,,,,,,,,,,,,green,square
105.0,6.0,1.0,1.0,1.0,1.0,305.5007919901982,3.0,1.0,phase_1,,,,,,,,,,,,,magenta,diamond
63.0,5.0,0.5,1.0,2.0,2.0,284.0772690251469,3.0,1.0,phase_1,,,,,,,,,,,,,blue,flipped triangle
393.0,8.0,4.0,1.0,1.0,1.0,328.6568990442902,3.0,1.0,phase_1,,,,,,,,,,,,,white,I
47.0,5.0,0.5,1.0,1.0,1.0,311.1691859085113,3.0,1.0,phase_1,,,,,,,,,,,,,blue,flipped triangle
54.0,5.0,0.5,1.0,1.0,1.0,314.4842380424961,3.0,1.0,phase_1,,,,,,,,,,,,,blue,flipped triangle
75.0,2.0,1.0,0.0,1.0,1.0,272.9556040139869,3.0,1.0,phase_1,,,,,,,,,,,,,cyan,hexagon
80.0,6.0,1.0,1.0,3.0,3.0,315.5379199888557,3.0,1.0,phase_1,,,,,,,,,,,,,magenta,diamond
378.0,8.0,4.0,1.0,4.0,4.0,320.8966039819643,3.0,1.0,phase_1,,,,,,,,,,,,,white,I
390.0,8.0,4.0,1.0,4.0,4.0,300.3990820143372,3.0,1.0,phase_1,,,,,,,,,,,,,white,I
33.0,5.0,0.5,1.0,2.0,2.0,320.4251630231738,3.0,1.0,phase_1,,,,,,,,,,,,,blue,flipped triangle
105.0,2.0,1.0,0.0,4.0,4.0,295.647370046936,3.0,1.0,phase_1,,,,,,,,,,,,,cyan,hexagon
68.0,5.0,0.5,1.0,2.0,2.0,317.0047339517623,3.0,1.0,phase_1,,,,,,,,,,,,,blue,flipped triangle
394.0,8.0,4.0,1.0,3.0,3.0,272.6567270001396,3.0,1.0,phase_1,,,,,,,,,,,,,white,I
177.0,7.0,2.0,1.0,4.0,4.0,308.4175329422578,3.0,1.0,phase_1,,,,,,,,,,,,,orange,circle
413.0,4.0,4.0,0.0,4.0,4.0,292.7826480008662,3.0,1.0,phase_1,,,,,,,,,,,,,yellow,cross
35.0,1.0,0.5,0.0,1.0,1.0,292.8955780807882,3.0,1.0,phase_1,,,,,,,,,,,,,green,square
199.0,7.0,2.0,1.0,3.0,3.0,301.7317019402981,3.0,1.0,phase_1,,,,,,,,,,,,,orange,circle
55.0,1.0,0.5,0.0,2.0,2.0,273.5817950451746,3.0,1.0,phase_1,,,,,,,,,,,,,green,square
25.0,1.0,0.5,0.0,1.0,1.0,347.0801849616691,3.0,1.0,phase_1,,,,,,,,,,,,,green,square
389.0,4.0,4.0,0.0,3.0,3.0,297.736914944835,3.0,1.0,phase_1,,,,,,,,,,,,,yellow,cross
109.0,6.0,1.0,1.0,3.0,3.0,276.6098950523883,3.0,1.0,phase_1,,,,,,,,,,,,,magenta,diamond
0.0,6.0,0.0,1.0,2.0,2.0,296.5305499965325,3.0,1.0,phase_1,,,,,,,,,,,,,magenta,diamond
220.0,7.0,2.0,1.0,2.0,2.0,311.8266901001334,3.0,1.0,phase_1,,,,,,,,,,,,,orange,circle
408.0,4.0,4.0,0.0,1.0,1.0,308.68944094982,3.0,1.0,phase_1,,,,,,,,,,,,,yellow,cross
413.0,4.0,4.0,0.0,2.0,2.0,279.2516490444541,3.0,1.0,phase_1,,,,,,,,,,,,,yellow,cross
398.0,4.0,4.0,0.0,1.0,1.0,294.5577120408416,3.0,1.0,phase_1,,,,,,,,,,,,,yellow,cross
75.0,6.0,1.0,1.0,2.0,2.0,272.7794669335708,3.0,1.0,phase_1,,,,,,,,,,,,,magenta,diamond
383.0,4.0,4.0,0.0,2.0,2.0,285.7911200262606,3.0,1.0,phase_1,,,,,,,,,,,,,yellow,cross
96.0,6.0,1.0,1.0,1.0,1.0,273.6058509908616,3.0,1.0,phase_1,,,,,,,,,,,,,magenta,diamond
49.0,1.0,0.5,0.0,3.0,3.0,345.0184650719166,3.0,1.0,phase_1,,,,,,,,,,,,,green,square
0.0,2.0,0.0,0.0,2.0,2.0,286.9295900454744,3.0,1.0,phase_1,,,,,,,,,,,,,cyan,hexagon
0.0,2.0,0.0,0.0,3.0,3.0,315.8380339154973,3.0,1.0,phase_1,,,,,,,,,,,,,cyan,hexagon
0.0,6.0,0.0,1.0,2.0,2.0,270.4600909492001,3.0,1.0,phase_1,,,,,,,,,,,,,magenta,diamond
394.0,4.0,4.0,0.0,4.0,4.0,281.642407993786,3.0,1.0,phase_1,,,,,,,,,,,,,yellow,cross
182.0,7.0,2.0,1.0,4.0,4.0,274.2039409931749,3.0,1.0,phase_1,,,,,,,,,,,,,orange,circle
84.0,2.0,1.0,0.0,1.0,1.0,302.7177979238331,3.0,1.0,phase_1,,,,,,,,,,,,,cyan,hexagon
401.0,4.0,4.0,0.0,1.0,1.0,297.4330340512097,3.0,1.0,phase_1,,,,,,,,,,,,,yellow,cross
0.0,2.0,0.0,0.0,4.0,4.0,317.6847619470209,3.0,1.0,phase_1,,,,,,,,,,,,,cyan,hexagon
0.0,3.0,0.0,0.0,3.0,3.0,314.8222439922392,3.0,1.0,phase_1,,,,,,,,,,,,,gray,triangle
220.0,3.0,2.0,0.0,2.0,2.0,280.8771249838173,3.0,1.0,phase_1,,,,,,,,,,,,,gray,triangle
213.0,3.0,2.0,0.0,3.0,3.0,300.916701904498,3.0,1.0,phase_1,,,,,,,,,,,,,gray,triangle
376.0,8.0,4.0,1.0,4.0,4.0,314.4974200986326,3.0,1.0,phase_1,,,,,,,,,,,,,white,I
176.0,3.0,2.0,0.0,3.0,3.0,350.8720450336113,3.0,1.0,phase_1,,,,,,,,,,,,,gray,triangle
385.0,8.0,4.0,1.0,3.0,3.0,347.4867119221017,3.0,1.0,phase_1,,,,,,,,,,,,,white,I
404.0,8.0,4.0,1.0,1.0,1.0,308.5729950107634,3.0,1.0,phase_1,,,,,,,,,,,,,white,I
84.0,6.0,1.0,1.0,4.0,4.0,281.3159259967506,3.0,1.0,phase_1,,,,,,,,,,,,,magenta,diamond
109.0,2.0,1.0,0.0,4.0,4.0,298.0030489852652,3.0,1.0,phase_1,,,,,,,,,,,,,cyan,hexagon
0.0,3.0,0.0,0.0,3.0,3.0,294.0784500679001,3.0,1.0,phase_1,,,,,,,,,,,,,gray,triangle
0.0,7.0,0.0,1.0,1.0,1.0,281.7675649421289,3.0,1.0,phase_1,,,,,,,,,,,,,orange,circle
208.0,7.0,2.0,1.0,2.0,2.0,310.9408690361306,3.0,1.0,phase_1,,,,,,,,,,,,,orange,circle
418.0,4.0,4.0,0.0,1.0,1.0,347.6192159578204,3.0,1.0,phase_1,,,,,,,,,,,,,yellow,cross
215.0,3.0,2.0,0.0,4.0,4.0,341.8009470915422,3.0,1.0,phase_1,,,,,,,,,,,,,gray,triangle
49.0,5.0,0.5,1.0,2.0,2.0,286.0104519641027,3.0,1.0,phase_1,,,,,,,,,,,,,blue,flipped triangle
78.0,2.0,1.0,0.0,3.0,3.0,274.4843810796737,3.0,1.0,phase_1,,,,,,,,,,,,,cyan,hexagon
94.0,6.0,1.0,1.0,2.0,2.0,260.5700870044529,3.0,1.0,phase_1,,,,,,,,,,,,,magenta,diamond
62.0,5.0,0.5,1.0,4.0,4.0,298.3126679901033,3.0,1.0,phase_1,,,,,,,,,,,,,blue,flipped triangle
120.0,2.0,1.0,0.0,4.0,4.0,293.4849590528756,3.0,1.0,phase_1,,,,,,,,,,,,,cyan,hexagon
87.0,2.0,1.0,0.0,3.0,3.0,355.5594879435375,3.0,1.0,phase_1,,,,,,,,,,,,,cyan,hexagon
401.0,8.0,4.0,1.0,1.0,1.0,305.0865390105173,3.0,1.0,phase_1,,,,,,,,,,,,,white,I
389.0,8.0,4.0,1.0,2.0,2.0,285.8298569917679,3.0,1.0,phase_1,,,,,,,,,,,,,white,I
196.0,3.0,2.0,0.0,1.0,1.0,336.5465140668675,3.0,1.0,phase_1,,,,,,,,,,,,,gray,triangle
424.0,8.0,4.0,1.0,3.0,3.0,350.5229880101979,3.0,1.0,phase_1,,,,,,,,,,,,,white,I
376.0,8.0,4.0,1.0,2.0,2.0,260.1656799670309,3.0,1.0,phase_1,,,,,,,,,,,,,white,I
0.0,7.0,0.0,1.0,2.0,2.0,310.9418910462409,3.0,1.0,phase_1,,,,,,,,,,,,,orange,circle
87.0,6.0,1.0,1.0,3.0,3.0,316.0852720029652,3.0,1.0,phase_1,,,,,,,,,,,,,magenta,diamond
113.0,2.0,1.0,0.0,2.0,2.0,328.9535070070997,3.0,1.0,phase_1,,,,,,,,,,,,,cyan,hexagon
180.0,7.0,2.0,1.0,4.0,4.0,340.5017768964171,3.0,1.0,phase_1,,,,,,,,,,,,,orange,circle
42.0,5.0,0.5,1.0,4.0,4.0,338.6511779390275,3.0,1.0,phase_1,,,,,,,,,,,,,blue,flipped triangle
224.0,3.0,2.0,0.0,2.0,2.0,293.3062060037628,3.0,1.0,phase_1,,,,,,,,,,,,,gray,triangle
0.0,5.0,0.0,1.0,2.0,2.0,316.1491500213742,3.0,1.0,phase_1,,,,,,,,,,,,,blue,flipped triangle
109.0,6.0,1.0,1.0,2.0,2.0,247.6801930461079,3.0,1.0,phase_1,,,,,,,,,,,,,magenta,diamond
0.0,1.0,0.0,0.0,1.0,1.0,309.8541260696947,3.0,1.0,phase_1,,,,,,,,,,,,,green,square
52.0,5.0,0.5,1.0,3.0,3.0,290.4031389625743,3.0,1.0,phase_1,,,,,,,,,,,,,blue,flipped triangle
119.0,2.0,1.0,0.0,2.0,2.0,277.5842410046607,3.0,1.0,phase_1,,,,,,,,,,,,,cyan,hexagon
0.0,7.0,0.0,1.0,3.0,3.0,306.4194500911981,3.0,1.0,phase_1,,,,,,,,,,,,,orange,circle
401.0,8.0,4.0,1.0,3.0,3.0,303.9988520322367,3.0,1.0,phase_1,,,,,,,,,,,,,white,I
59.0,5.0,0.5,1.0,4.0,4.0,310.504172113724,3.0,1.0,phase_1,,,,,,,,,,,,,blue,flipped triangle
195.0,3.0,2.0,0.0,1.0,1.0,311.1601680284366,3.0,1.0,phase_1,,,,,,,,,,,,,gray,triangle
0.0,5.0,0.0,1.0,1.0,1.0,311.7754809791222,3.0,1.0,phase_1,,,,,,,,,,,,,blue,flipped triangle
186.0,3.0,2.0,0.0,4.0,4.0,307.0655949413776,3.0,1.0,phase_1,,,,,,,,,,,,,gray,triangle
186.0,3.0,2.0,0.0,4.0,4.0,309.6211170777678,3.0,1.0,phase_1,,,,,,,,,,,,,gray,triangle
49.0,1.0,0.5,0.0,4.0,4.0,267.9762369953096,3.0,1.0,phase_1,,,,,,,,,,,,,green,square
0.0,8.0,0.0,1.0,3.0,3.0,306.8966449936852,3.0,1.0,phase_1,,,,,,,,,,,,,white,I
376.0,4.0,4.0,0.0,2.0,2.0,286.7444129660725,3.0,1.0,phase_1,,,,,,,,,,,,,yellow,cross
381.0,8.0,4.0,1.0,3.0,3.0,288.7965900590643,3.0,1.0,phase_1,,,,,,,,,,,,,white,I
50.0,5.0,0.5,1.0,4.0,4.0,325.861218967475,3.0,1.0,phase_1,,,,,,,,,,,,,blue,flipped triangle
200.0,3.0,2.0,0.0,2.0,2.0,290.378634002991,3.0,1.0,phase_1,,,,,,,,,,,,,gray,triangle
0.0,1.0,0.0,0.0,3.0,3.0,265.3623579535633,3.0,1.0,phase_1,,,,,,,,,,,,,green,square
205.0,7.0,2.0,1.0,4.0,4.0,308.739545987919,3.0,1.0,phase_1,,,,,,,,,,,,,orange,circle
91.0,6.0,1.0,1.0,3.0,3.0,401.0242950171232,4.0,1.0,phase_1,,,,,,,,,,,,,magenta,diamond
224.0,7.0,2.0,1.0,1.0,1.0,270.8173129940405,4.0,1.0,phase_1,,,,,,,,,,,,,orange,circle
37.0,1.0,0.5,0.0,4.0,4.0,274.2805769667029,4.0,1.0,phase_1,,,,,,,,,,,,,green,square
81.0,2.0,1.0,0.0,1.0,1.0,245.733035961166,4.0,1.0,phase_1,,,,,,,,,,,,,cyan,hexagon
404.0,4.0,4.0,0.0,3.0,3.0,298.5744150355458,4.0,1.0,phase_1,,,,,,,,,,,,,yellow,cross
0.0,8.0,0.0,1.0,4.0,4.0,311.4242060109973,4.0,1.0,phase_1,,,,,,,,,,,,,white,I
35.0,1.0,0.5,0.0,3.0,3.0,282.9431409481913,4.0,1.0,phase_1,,,,,,,,,,,,,green,square
118.0,6.0,1.0,1.0,4.0,4.0,280.2932020276785,4.0,1.0,phase_1,,,,,,,,,,,,,magenta,diamond
68.0,1.0,0.5,0.0,4.0,4.0,268.5082349926233,4.0,1.0,phase_1,,,,,,,,,,,,,green,square
188.0,3.0,2.0,0.0,4.0,4.0,284.0813550865277,4.0,1.0,phase_1,,,,,,,,,,,,,gray,triangle
383.0,8.0,4.0,1.0,2.0,2.0,317.4436980625614,4.0,1.0,phase_1,,,,,,,,,,,,,white,I
117.0,6.0,1.0,1.0,2.0,2.0,307.2987790219486,4.0,1.0,phase_1,,,,,,,,,,,,,magenta,diamond
0.0,1.0,0.0,0.0,3.0,3.0,327.8265509288758,4.0,1.0,phase_1,,,,,,,,,,,,,green,square
0.0,2.0,0.0,0.0,4.0,4.0,294.019935070537,4.0,1.0,phase_1,,,,,,,,,,,,,cyan,hexagon
411.0,8.0,4.0,1.0,2.0,2.0,260.3099830448627,4.0,1.0,phase_1,,,,,,,,,,,,,white,I
201.0,3.0,2.0,0.0,4.0,4.0,317.4376530805602,4.0,1.0,phase_1,,,,,,,,,,,,,gray,triangle
216.0,3.0,2.0,0.0,1.0,1.0,276.7559019848704,4.0,1.0,phase_1,,,,,,,,,,,,,gray,triangle
393.0,4.0,4.0,0.0,4.0,4.0,305.5122150108218,4.0,1.0,phase_1,,,,,,,,,,,,,yellow,cross
102.0,6.0,1.0,1.0,4.0,4.0,293.1217680452391,4.0,1.0,phase_1,,,,,,,,,,,,,magenta,diamond
33.0,5.0,0.5,1.0,3.0,3.0,259.6074370667338,4.0,1.0,phase_1,,,,,,,,,,,,,blue,flipped triangle
36.0,1.0,0.5,0.0,4.0,4.0,264.902799972333,4.0,1.0,phase_1,,,,,,,,,,,,,green,square
0.0,8.0,0.0,1.0,3.0,3.0,309.027804993093,4.0,1.0,phase_1,,,,,,,,,,,,,white,I
49.0,5.0,0.5,1.0,1.0,1.0,246.2448299629613,4.0,1.0,phase_1,,,,,,,,,,,,,blue,flipped triangle
25.0,5.0,0.5,1.0,4.0,4.0,270.2125769574195,4.0,1.0,phase_1,,,,,,,,,,,,,blue,flipped triangle
48.0,1.0,0.5,0.0,2.0,2.0,249.8167488956824,4.0,1.0,phase_1,,,,,,,,,,,,,green,square
108.0,2.0,1.0,0.0,4.0,4.0,294.8753470554948,4.0,1.0,phase_1,,,,,,,,,,,,,cyan,hexagon
178.0,3.0,2.0,0.0,3.0,3.0,313.2374610286206,4.0,1.0,phase_1,,,,,,,,,,,,,gray,triangle
419.0,8.0,4.0,1.0,2.0,2.0,278.0303070321679,4.0,1.0,phase_1,,,,,,,,,,,,,white,I
221.0,3.0,2.0,0.0,1.0,1.0,266.5430760243907,4.0,1.0,phase_1,,,,,,,,,,,,,gray,triangle
0.0,7.0,0.0,1.0,1.0,1.0,306.2038850039243,4.0,1.0,phase_1,,,,,,,,,,,,,orange,circle
0.0,2.0,0.0,0.0,2.0,2.0,278.5627989796921,4.0,1.0,phase_1,,,,,,,,,,,,,cyan,hexagon
220.0,7.0,2.0,1.0,2.0,2.0,299.3568539386615,4.0,1.0,phase_1,,,,,,,,,,,,,orange,circle
416.0,8.0,4.0,1.0,1.0,1.0,236.9321329751983,4.0,1.0,phase_1,,,,,,,,,,,,,white,I
0.0,2.0,0.0,0.0,4.0,4.0,330.1352940034121,4.0,1.0,phase_1,,,,,,,,,,,,,cyan,hexagon
0.0,4.0,0.0,0.0,4.0,4.0,297.7232100674882,4.0,1.0,phase_1,,,,,,,,,,,,,yellow,cross
0.0,6.0,0.0,1.0,3.0,3.0,301.7974570393562,4.0,1.0,phase_1,,,,,,,,,,,,,magenta,diamond
101.0,6.0,1.0,1.0,1.0,1.0,296.4790950063616,4.0,1.0,phase_1,,,,,,,,,,,,,magenta,diamond
186.0,7.0,2.0,1.0,1.0,1.0,325.797768891789,4.0,1.0,phase_1,,,,,,,,,,,,,orange,circle
224.0,3.0,2.0,0.0,1.0,1.0,281.3116220058873,4.0,1.0,phase_1,,,,,,,,,,,,,gray,triangle
207.0,7.0,2.0,1.0,1.0,1.0,254.0053790435195,4.0,1.0,phase_1,,,,,,,,,,,,,orange,circle
83.0,2.0,1.0,0.0,4.0,4.0,290.4972500400617,4.0,1.0,phase_1,,,,,,,,,,,,,cyan,hexagon
28.0,5.0,0.5,1.0,2.0,2.0,265.2192390523851,4.0,1.0,phase_1,,,,,,,,,,,,,blue,flipped triangle
194.0,7.0,2.0,1.0,2.0,2.0,285.7866099802777,4.0,1.0,phase_1,,,,,,,,,,,,,orange,circle
50.0,5.0,0.5,1.0,1.0,1.0,299.1663049906492,4.0,1.0,phase_1,,,,,,,,,,,,,blue,flipped triangle
68.0,5.0,0.5,1.0,3.0,3.0,288.6133950669318,4.0,1.0,phase_1,,,,,,,,,,,,,blue,flipped triangle
56.0,5.0,0.5,1.0,2.0,2.0,268.6941960128024,4.0,1.0,phase_1,,,,,,,,,,,,,blue,flipped triangle
47.0,1.0,0.5,0.0,4.0,4.0,274.2522570770234,4.0,1.0,phase_1,,,,,,,,,,,,,green,square
404.0,8.0,4.0,1.0,3.0,3.0,315.7698260620236,4.0,1.0,phase_1,,,,,,,,,,,,,white,I
384.0,8.0,4.0,1.0,4.0,4.0,280.7412469992414,4.0,1.0,phase_1,,,,,,,,,,,,,white,I
201.0,7.0,2.0,1.0,4.0,4.0,285.2363780839368,4.0,1.0,phase_1,,,,,,,,,,,,,orange,circle
378.0,4.0,4.0,0.0,1.0,1.0,265.7941849902272,4.0,1.0,phase_1,,,,,,,,,,,,,yellow,cross
411.0,8.0,4.0,1.0,4.0,4.0,272.9371460154652,4.0,1.0,phase_1,,,,,,,,,,,,,white,I
207.0,3.0,2.0,0.0,2.0,2.0,293.7429669545963,4.0,1.0,phase_1,,,,,,,,,,,,,gray,triangle
389.0,4.0,4.0,0.0,2.0,2.0,297.0327750081196,4.0,1.0,phase_1,,,,,,,,,,,,,yellow,cross
0.0,1.0,0.0,0.0,3.0,3.0,300.2869499614462,4.0,1.0,phase_1,,,,,,,,,,,,,green,square
0.0,1.0,0.0,0.0,1.0,1.0,296.6119090560823,4.0,1.0,phase_1,,,,,,,,,,,,,green,square
0.0,5.0,0.0,1.0,4.0,4.0,288.676158990711,4.0,1.0,phase_1,,,,,,,,,,,,,blue,flipped triangle
109.0,2.0,1.0,0.0,1.0,1.0,300.5684569943696,4.0,1.0,phase_1,,,,,,,,,,,,,cyan,hexagon
111.0,6.0,1.0,1.0,4.0,4.0,304.4291629921645,4.0,1.0,phase_1,,,,,,,,,,,,,magenta,diamond
97.0,6.0,1.0,1.0,3.0,3.0,320.4945879988372,4.0,2.0,phase_1,,,,,,,,,,,,,magenta,diamond
62.0,1.0,0.5,0.0,2.0,2.0,311.4718849537894,4.0,1.0,phase_1,,,,,,,,,,,,,green,square
0.0,4.0,0.0,0.0,2.0,2.0,316.7906709713861,4.0,1.0,phase_1,,,,,,,,,,,,,yellow,cross
64.0,1.0,0.5,0.0,3.0,3.0,313.2237739628181,4.0,1.0,phase_1,,,,,,,,,,,,,green,square
182.0,3.0,2.0,0.0,4.0,4.0,315.2369800955057,4.0,1.0,phase_1,,,,,,,,,,,,,gray,triangle
0.0,5.0,0.0,1.0,4.0,4.0,338.7424378888681,4.0,1.0,phase_1,,,,,,,,,,,,,blue,flipped triangle
0.0,3.0,0.0,0.0,1.0,1.0,310.765680973418,4.0,1.0,phase_1,,,,,,,,,,,,,gray,triangle
94.0,2.0,1.0,0.0,3.0,3.0,313.8553119497373,4.0,1.0,phase_1,,,,,,,,,,,,,cyan,hexagon
188.0,7.0,2.0,1.0,3.0,3.0,319.7281931061297,4.0,1.0,phase_1,,,,,,,,,,,,,orange,circle
389.0,8.0,4.0,1.0,4.0,4.0,318.5588689520955,4.0,1.0,phase_1,,,,,,,,,,,,,white,I
210.0,7.0,2.0,1.0,3.0,3.0,306.2528079608455,4.0,1.0,phase_1,,,,,,,,,,,,,orange,circle
0.0,8.0,0.0,1.0,4.0,4.0,325.9197000879794,4.0,1.0,phase_1,,,,,,,,,,,,,white,I
95.0,6.0,1.0,1.0,1.0,1.0,314.1855900175869,4.0,1.0,phase_1,,,,,,,,,,,,,magenta,diamond
0.0,8.0,0.0,1.0,2.0,2.0,319.0966499969363,4.0,1.0,phase_1,,,,,,,,,,,,,white,I
186.0,7.0,2.0,1.0,3.0,3.0,314.2916799988597,4.0,1.0,phase_1,,,,,,,,,,,,,orange,circle
73.0,1.0,0.5,0.0,3.0,3.0,338.6671990156173,4.0,1.0,phase_1,,,,,,,,,,,,,green,square
121.0,6.0,1.0,1.0,1.0,1.0,292.1263590687886,4.0,1.0,phase_1,,,,,,,,,,,,,magenta,diamond
206.0,3.0,2.0,0.0,3.0,3.0,304.738785023801,4.0,1.0,phase_1,,,,,,,,,,,,,gray,triangle
0.0,1.0,0.0,0.0,4.0,4.0,279.7161130001768,4.0,1.0,phase_1,,,,,,,,,,,,,green,square
40.0,1.0,0.5,0.0,1.0,1.0,276.9912340445444,4.0,1.0,phase_1,,,,,,,,,,,,,green,square
111.0,2.0,1.0,0.0,2.0,2.0,345.1505310367793,4.0,1.0,phase_1,,,,,,,,,,,,,cyan,hexagon
0.0,8.0,0.0,1.0,1.0,1.0,302.2708750795573,4.0,1.0,phase_1,,,,,,,,,,,,,white,I
67.0,5.0,0.5,1.0,3.0,3.0,626.0842380579561,4.0,1.0,phase_1,,,,,,,,,,,,,blue,flipped triangle
68.0,1.0,0.5,0.0,4.0,4.0,315.9308029571548,4.0,1.0,phase_1,,,,,,,,,,,,,green,square
0.0,5.0,0.0,1.0,1.0,1.0,272.8707250207662,4.0,1.0,phase_1,,,,,,,,,,,,,blue,flipped triangle
0.0,7.0,0.0,1.0,1.0,1.0,309.5200610114261,4.0,1.0,phase_1,,,,,,,,,,,,,orange,circle
206.0,7.0,2.0,1.0,2.0,2.0,283.1451990641653,4.0,1.0,phase_1,,,,,,,,,,,,,orange,circle
393.0,4.0,4.0,0.0,1.0,1.0,297.1477280370891,4.0,1.0,phase_1,,,,,,,,,,,,,yellow,cross
117.0,2.0,1.0,0.0,1.0,1.0,292.5784930121153,4.0,1.0,phase_1,,,,,,,,,,,,,cyan,hexagon
198.0,3.0,2.0,0.0,3.0,3.0,320.0169489718973,4.0,1.0,phase_1,,,,,,,,,,,,,gray,triangle
219.0,3.0,2.0,0.0,2.0,2.0,268.6530570499599,4.0,1.0,phase_1,,,,,,,,,,,,,gray,triangle
0.0,5.0,0.0,1.0,2.0,2.0,289.3627660814672,4.0,1.0,phase_1,,,,,,,,,,,,,blue,flipped triangle
201.0,7.0,2.0,1.0,1.0,1.0,301.8654999323189,4.0,1.0,phase_1,,,,,,,,,,,,,orange,circle
121.0,2.0,1.0,0.0,4.0,4.0,314.7151200100779,4.0,1.0,phase_1,,,,,,,,,,,,,cyan,hexagon
220.0,3.0,2.0,0.0,3.0,3.0,320.1408350141719,4.0,1.0,phase_1,,,,,,,,,,,,,gray,triangle
200.0,7.0,2.0,1.0,2.0,2.0,294.8552300222218,4.0,1.0,phase_1,,,,,,,,,,,,,orange,circle
89.0,2.0,1.0,0.0,3.0,3.0,329.2033768957481,4.0,1.0,phase_1,,,,,,,,,,,,,cyan,hexagon
48.0,5.0,0.5,1.0,1.0,1.0,317.7721229149028,4.0,1.0,phase_1,,,,,,,,,,,,,blue,flipped triangle
70.0,5.0,0.5,1.0,4.0,4.0,292.5990610383451,4.0,1.0,phase_1,,,,,,,,,,,,,blue,flipped triangle
118.0,2.0,1.0,0.0,2.0,2.0,337.622120976448,4.0,1.0,phase_1,,,,,,,,,,,,,cyan,hexagon
64.0,5.0,0.5,1.0,3.0,3.0,323.6502689542249,4.0,1.0,phase_1,,,,,,,,,,,,,blue,flipped triangle
0.0,3.0,2.0,0.0,5.0,5.0,665.3284711064771,1.0,1.0,phase_2,go,250.0,250.0,1.0,,,,,,,,,gray,triangle
0.0,6.0,1.0,1.0,5.0,5.0,695.5053720157593,1.0,1.0,phase_2,stop,250.0,250.0,3.0,,,,,,,,,magenta,diamond
0.0,2.0,1.0,0.0,6.0,6.0,648.6654309555888,1.0,1.0,phase_2,go,200.0,250.0,1.0,,,,,,,,,cyan,hexagon
0.0,1.0,0.5,0.0,6.0,6.0,814.4343439489603,1.0,1.0,phase_2,go,200.0,250.0,1.0,,,,,,,,,green,square
0.0,4.0,4.0,0.0,5.0,5.0,725.4852910991758,1.0,1.0,phase_2,go,200.0,250.0,1.0,,,,,,,,,yellow,cross
0.0,2.0,1.0,0.0,5.0,5.0,502.3910639574751,1.0,1.0,phase_2,go,200.0,250.0,1.0,,,,,,,,,cyan,hexagon
0.0,3.0,2.0,0.0,6.0,6.0,614.3501600017771,1.0,1.0,phase_2,go,200.0,250.0,1.0,,,,,,,,,gray,triangle
0.0,7.0,2.0,1.0,6.0,0.0,0.0,1.0,1.0,phase_2,stop,200.0,250.0,4.0,,,,,,,,,orange,circle
0.0,5.0,0.5,1.0,6.0,0.0,0.0,1.0,1.0,phase_2,stop,200.0,300.0,4.0,,,,,,,,,blue,flipped triangle
0.0,3.0,2.0,0.0,5.0,5.0,554.5135400025174,1.0,1.0,phase_2,go,200.0,350.0,1.0,,,,,,,,,gray,triangle
0.0,4.0,4.0,0.0,5.0,5.0,579.0194219443947,1.0,1.0,phase_2,go,200.0,350.0,1.0,,,,,,,,,yellow,cross
0.0,1.0,0.5,0.0,6.0,6.0,601.2605850119144,1.0,1.0,phase_2,go,200.0,350.0,1.0,,,,,,,,,green,square
0.0,8.0,4.0,1.0,5.0,0.0,0.0,1.0,1.0,phase_2,stop,200.0,350.0,4.0,,,,,,,,,white,I
0.0,3.0,2.0,0.0,6.0,6.0,634.5759760588408,1.0,1.0,phase_2,go,250.0,350.0,1.0,,,,,,,,,gray,triangle
0.0,3.0,2.0,0.0,6.0,6.0,671.6517279855907,1.0,1.0,phase_2,go,250.0,350.0,1.0,,,,,,,,,gray,triangle
0.0,7.0,2.0,1.0,6.0,0.0,0.0,1.0,1.0,phase_2,stop,250.0,350.0,4.0,,,,,,,,,orange,circle
0.0,8.0,4.0,1.0,6.0,6.0,650.5090310238302,1.0,1.0,phase_2,go,250.0,400.0,1.0,,,,,,,,,white,I
0.0,7.0,2.0,1.0,5.0,0.0,0.0,1.0,1.0,phase_2,stop,250.0,400.0,4.0,,,,,,,,,orange,circle
0.0,2.0,1.0,0.0,6.0,6.0,629.383591003716,1.0,1.0,phase_2,go,300.0,400.0,1.0,,,,,,,,,cyan,hexagon
0.0,3.0,2.0,0.0,5.0,5.0,629.5875329524279,1.0,1.0,phase_2,go,300.0,400.0,1.0,,,,,,,,,gray,triangle
0.0,2.0,1.0,0.0,6.0,6.0,556.4717180095613,1.0,1.0,phase_2,go,300.0,400.0,1.0,,,,,,,,,cyan,hexagon
0.0,6.0,1.0,1.0,6.0,0.0,0.0,1.0,1.0,phase_2,stop,300.0,400.0,4.0,,,,,,,,,magenta,diamond
0.0,7.0,2.0,1.0,6.0,6.0,596.1157589918002,1.0,1.0,phase_2,go,300.0,450.0,1.0,,,,,,,,,orange,circle
0.0,1.0,0.5,0.0,6.0,6.0,557.1709080832079,1.0,1.0,phase_2,go,300.0,450.0,1.0,,,,,,,,,green,square
0.0,4.0,4.0,0.0,6.0,6.0,538.45456300769,1.0,1.0,phase_2,go,300.0,450.0,1.0,,,,,,,,,yellow,cross
0.0,6.0,1.0,1.0,5.0,0.0,0.0,1.0,1.0,phase_2,stop,300.0,450.0,4.0,,,,,,,,,magenta,diamond
0.0,8.0,4.0,1.0,5.0,0.0,0.0,1.0,1.0,phase_2,stop,350.0,450.0,4.0,,,,,,,,,white,I
0.0,8.0,4.0,1.0,5.0,5.0,635.2540369844064,1.0,1.0,phase_2,go,400.0,450.0,1.0,,,,,,,,,white,I
0.0,3.0,2.0,0.0,5.0,5.0,578.9111210033298,1.0,1.0,phase_2,go,400.0,450.0,1.0,,,,,,,,,gray,triangle
0.0,4.0,4.0,0.0,5.0,5.0,642.6510449964553,1.0,1.0,phase_2,go,400.0,450.0,1.0,,,,,,,,,yellow,cross
0.0,5.0,0.5,1.0,5.0,5.0,367.6596950972453,1.0,1.0,phase_2,stop,400.0,450.0,3.0,,,,,,,,,blue,flipped triangle
0.0,1.0,0.5,0.0,5.0,5.0,753.7857650313526,1.0,1.0,phase_2,go,350.0,450.0,1.0,,,,,,,,,green,square
0.0,1.0,0.5,0.0,6.0,6.0,686.4904870744795,1.0,1.0,phase_2,go,350.0,450.0,1.0,,,,,,,,,green,square
0.0,8.0,4.0,1.0,5.0,0.0,0.0,1.0,1.0,phase_2,stop,350.0,450.0,4.0,,,,,,,,,white,I
0.0,8.0,4.0,1.0,6.0,0.0,0.0,1.0,1.0,phase_2,stop,400.0,450.0,4.0,,,,,,,,,white,I
0.0,7.0,2.0,1.0,6.0,6.0,671.5221320046112,1.0,1.0,phase_2,go,400.0,500.0,1.0,,,,,,,,,orange,circle
0.0,5.0,0.5,1.0,5.0,5.0,422.2212249878794,2.0,1.0,phase_2,stop,400.0,500.0,3.0,,,,,,,,,blue,flipped triangle
0.0,7.0,2.0,1.0,5.0,5.0,721.1469769245014,2.0,1.0,phase_2,go,350.0,500.0,1.0,,,,,,,,,orange,circle
0.0,4.0,4.0,0.0,5.0,5.0,656.6645640414208,2.0,1.0,phase_2,go,350.0,500.0,1.0,,,,,,,,,yellow,cross
0.0,4.0,4.0,0.0,6.0,6.0,569.8371570324525,2.0,1.0,phase_2,go,350.0,500.0,1.0,,,,,,,,,yellow,cross
0.0,6.0,1.0,1.0,5.0,5.0,509.2992919962853,2.0,1.0,phase_2,go,350.0,500.0,1.0,,,,,,,,,magenta,diamond
0.0,6.0,1.0,1.0,6.0,6.0,631.2651410698891,2.0,1.0,phase_2,stop,350.0,500.0,3.0,,,,,,,,,magenta,diamond
0.0,3.0,2.0,0.0,5.0,5.0,679.4365330133587,2.0,1.0,phase_2,go,350.0,450.0,1.0,,,,,,,,,gray,triangle
0.0,7.0,2.0,1.0,6.0,0.0,0.0,2.0,1.0,phase_2,stop,350.0,450.0,4.0,,,,,,,,,orange,circle
0.0,1.0,0.5,0.0,6.0,6.0,677.0620049210265,2.0,1.0,phase_2,go,350.0,500.0,1.0,,,,,,,,,green,square
0.0,6.0,1.0,1.0,6.0,0.0,0.0,2.0,1.0,phase_2,stop,350.0,500.0,4.0,,,,,,,,,magenta,diamond
0.0,4.0,4.0,0.0,5.0,5.0,661.1925619654357,2.0,1.0,phase_2,go,350.0,550.0,1.0,,,,,,,,,yellow,cross
0.0,5.0,0.5,1.0,5.0,0.0,0.0,2.0,1.0,phase_2,stop,350.0,550.0,4.0,,,,,,,,,blue,flipped triangle
0.0,6.0,1.0,1.0,5.0,0.0,0.0,2.0,1.0,phase_2,stop,400.0,550.0,4.0,,,,,,,,,magenta,diamond
0.0,2.0,1.0,0.0,6.0,6.0,721.8912800308317,2.0,1.0,phase_2,go,450.0,550.0,1.0,,,,,,,,,cyan,hexagon
0.0,8.0,4.0,1.0,5.0,0.0,0.0,2.0,1.0,phase_2,stop,450.0,550.0,4.0,,,,,,,,,white,I
0.0,3.0,2.0,0.0,6.0,6.0,682.0256119826809,2.0,1.0,phase_2,go,500.0,550.0,1.0,,,,,,,,,gray,triangle
0.0,4.0,4.0,0.0,6.0,6.0,721.0782970068976,2.0,1.0,phase_2,go,500.0,550.0,1.0,,,,,,,,,yellow,cross
0.0,2.0,1.0,0.0,6.0,6.0,806.0387059813365,2.0,1.0,phase_2,go,500.0,550.0,1.0,,,,,,,,,cyan,hexagon
0.0,5.0,0.5,1.0,5.0,0.0,0.0,2.0,1.0,phase_2,stop,500.0,550.0,4.0,,,,,,,,,blue,flipped triangle
0.0,7.0,2.0,1.0,5.0,5.0,639.5373150007799,2.0,1.0,phase_2,go,550.0,550.0,1.0,,,,,,,,,orange,circle
0.0,6.0,1.0,1.0,6.0,6.0,597.2817769506946,2.0,1.0,phase_2,stop,550.0,550.0,3.0,,,,,,,,,magenta,diamond
0.0,1.0,0.5,0.0,6.0,6.0,756.5082299988717,2.0,1.0,phase_2,go,550.0,500.0,1.0,,,,,,,,,green,square
0.0,4.0,4.0,0.0,6.0,6.0,715.7078379532322,2.0,1.0,phase_2,go,550.0,500.0,1.0,,,,,,,,,yellow,cross
0.0,5.0,0.5,1.0,5.0,5.0,654.4202759396285,2.0,1.0,phase_2,stop,550.0,500.0,3.0,,,,,,,,,blue,flipped triangle
0.0,1.0,0.5,0.0,5.0,5.0,690.9790030913427,2.0,1.0,phase_2,go,500.0,500.0,1.0,,,,,,,,,green,square
0.0,7.0,2.0,1.0,5.0,0.0,0.0,2.0,1.0,phase_2,stop,500.0,500.0,4.0,,,,,,,,,orange,circle
0.0,3.0,2.0,0.0,5.0,5.0,739.3406149931252,2.0,1.0,phase_2,go,550.0,500.0,1.0,,,,,,,,,gray,triangle
0.0,7.0,2.0,1.0,5.0,0.0,0.0,2.0,1.0,phase_2,stop,550.0,500.0,4.0,,,,,,,,,orange,circle
0.0,7.0,2.0,1.0,6.0,0.0,0.0,2.0,1.0,phase_2,stop,600.0,500.0,4.0,,,,,,,,,orange,circle
0.0,6.0,1.0,1.0,5.0,5.0,728.8137970026582,2.0,1.0,phase_2,go,600.0,550.0,1.0,,,,,,,,,magenta,diamond
0.0,7.0,2.0,1.0,6.0,6.0,577.2317769005895,2.0,1.0,phase_2,stop,600.0,550.0,3.0,,,,,,,,,orange,circle
0.0,1.0,0.5,0.0,5.0,5.0,727.9275500914082,2.0,1.0,phase_2,go,600.0,500.0,1.0,,,,,,,,,green,square
0.0,6.0,1.0,1.0,6.0,0.0,0.0,2.0,1.0,phase_2,stop,600.0,500.0,4.0,,,,,,,,,magenta,diamond
0.0,8.0,4.0,1.0,6.0,0.0,0.0,2.0,1.0,phase_2,stop,600.0,550.0,4.0,,,,,,,,,white,I
0.0,7.0,2.0,1.0,5.0,0.0,0.0,2.0,1.0,phase_2,stop,600.0,600.0,4.0,,,,,,,,,orange,circle
0.0,6.0,1.0,1.0,6.0,6.0,848.3178920578212,2.0,1.0,phase_2,go,650.0,600.0,1.0,,,,,,,,,magenta,diamond
0.0,8.0,4.0,1.0,5.0,5.0,442.7832260262221,3.0,1.0,phase_2,stop,650.0,600.0,3.0,,,,,,,,,white,I
0.0,2.0,1.0,0.0,6.0,6.0,467.3216149676591,3.0,1.0,phase_2,go,600.0,600.0,1.0,,,,,,,,,cyan,hexagon
0.0,8.0,4.0,1.0,6.0,6.0,275.4819110268727,3.0,1.0,phase_2,stop,600.0,600.0,3.0,,,,,,,,,white,I
0.0,1.0,0.5,0.0,6.0,6.0,408.5046730469912,3.0,1.0,phase_2,go,600.0,550.0,1.0,,,,,,,,,green,square
0.0,1.0,0.5,0.0,5.0,5.0,238.8547169975936,3.0,1.0,phase_2,go,600.0,550.0,1.0,,,,,,,,,green,square
0.0,2.0,1.0,0.0,6.0,6.0,287.3434439534321,3.0,1.0,phase_2,go,600.0,550.0,1.0,,,,,,,,,cyan,hexagon
0.0,5.0,0.5,1.0,5.0,5.0,257.7260149409994,3.0,1.0,phase_2,stop,600.0,550.0,3.0,,,,,,,,,blue,flipped triangle
0.0,5.0,0.5,1.0,5.0,5.0,406.298742047511,3.0,1.0,phase_2,go,550.0,550.0,1.0,,,,,,,,,blue,flipped triangle
0.0,4.0,4.0,0.0,5.0,5.0,373.2472859555855,3.0,1.0,phase_2,go,550.0,550.0,1.0,,,,,,,,,yellow,cross
0.0,6.0,1.0,1.0,5.0,5.0,304.5787389855832,3.0,1.0,phase_2,go,550.0,550.0,1.0,,,,,,,,,magenta,diamond
0.0,2.0,1.0,0.0,6.0,6.0,359.9882499547675,3.0,1.0,phase_2,go,550.0,550.0,1.0,,,,,,,,,cyan,hexagon
0.0,2.0,1.0,0.0,5.0,5.0,438.3268289966509,3.0,1.0,phase_2,go,550.0,550.0,1.0,,,,,,,,,cyan,hexagon
0.0,3.0,2.0,0.0,6.0,6.0,267.8207029821351,3.0,1.0,phase_2,go,550.0,550.0,1.0,,,,,,,,,gray,triangle
0.0,5.0,0.5,1.0,5.0,5.0,250.75531203765422,3.0,1.0,phase_2,stop,550.0,550.0,3.0,,,,,,,,,blue,flipped triangle
0.0,1.0,0.5,0.0,6.0,6.0,275.0846389681101,3.0,1.0,phase_2,go,500.0,550.0,1.0,,,,,,,,,green,square
0.0,3.0,2.0,0.0,6.0,6.0,419.5110689615831,3.0,1.0,phase_2,go,500.0,550.0,1.0,,,,,,,,,gray,triangle
0.0,6.0,1.0,1.0,6.0,6.0,304.2454289970919,3.0,1.0,phase_2,stop,500.0,550.0,3.0,,,,,,,,,magenta,diamond
0.0,6.0,1.0,1.0,5.0,5.0,527.4500729283318,3.0,1.0,phase_2,stop,500.0,500.0,3.0,,,,,,,,,magenta,diamond
0.0,7.0,2.0,1.0,6.0,6.0,353.4635930554941,3.0,1.0,phase_2,stop,450.0,500.0,3.0,,,,,,,,,orange,circle
0.0,3.0,2.0,0.0,5.0,5.0,632.0476819528267,3.0,1.0,phase_2,go,450.0,450.0,1.0,,,,,,,,,gray,triangle
0.0,6.0,1.0,1.0,6.0,0.0,0.0,3.0,1.0,phase_2,stop,450.0,450.0,4.0,,,,,,,,,magenta,diamond
0.0,2.0,1.0,0.0,5.0,5.0,661.5943459328264,3.0,1.0,phase_2,go,450.0,500.0,1.0,,,,,,,,,cyan,hexagon
0.0,1.0,0.5,0.0,5.0,5.0,733.644794090651,3.0,1.0,phase_2,go,450.0,500.0,1.0,,,,,,,,,green,square
0.0,2.0,1.0,0.0,5.0,5.0,517.4337479984388,3.0,1.0,phase_2,go,450.0,500.0,1.0,,,,,,,,,cyan,hexagon
0.0,1.0,0.5,0.0,5.0,5.0,487.3679940355941,3.0,1.0,phase_2,go,450.0,500.0,1.0,,,,,,,,,green,square
0.0,8.0,4.0,1.0,6.0,6.0,446.9350459985435,3.0,1.0,phase_2,go,450.0,500.0,1.0,,,,,,,,,white,I
0.0,6.0,1.0,1.0,5.0,5.0,426.9862220389768,3.0,1.0,phase_2,stop,450.0,500.0,3.0,,,,,,,,,magenta,diamond
0.0,6.0,1.0,1.0,6.0,6.0,564.5803649676964,3.0,1.0,phase_2,stop,400.0,500.0,3.0,,,,,,,,,magenta,diamond
0.0,2.0,1.0,0.0,6.0,6.0,652.4210519855842,3.0,1.0,phase_2,go,400.0,450.0,1.0,,,,,,,,,cyan,hexagon
0.0,5.0,0.5,1.0,5.0,0.0,0.0,3.0,1.0,phase_2,stop,400.0,450.0,4.0,,,,,,,,,blue,flipped triangle
0.0,2.0,1.0,0.0,5.0,5.0,624.9136230908334,3.0,1.0,phase_2,go,450.0,450.0,1.0,,,,,,,,,cyan,hexagon
0.0,8.0,4.0,1.0,5.0,0.0,0.0,3.0,1.0,phase_2,stop,450.0,450.0,4.0,,,,,,,,,white,I
0.0,1.0,0.5,0.0,5.0,5.0,688.1293860496953,3.0,1.0,phase_2,go,500.0,450.0,1.0,,,,,,,,,green,square
0.0,1.0,0.5,0.0,5.0,5.0,336.8753620889038,3.0,1.0,phase_2,go,500.0,450.0,1.0,,,,,,,,,green,square
0.0,7.0,2.0,1.0,5.0,5.0,386.503810994327,3.0,1.0,phase_2,stop,500.0,450.0,3.0,,,,,,,,,orange,circle
0.0,7.0,2.0,1.0,6.0,0.0,0.0,3.0,1.0,phase_2,stop,450.0,450.0,4.0,,,,,,,,,orange,circle
0.0,4.0,4.0,0.0,5.0,5.0,431.6685500089079,4.0,1.0,phase_2,go,450.0,500.0,1.0,,,,,,,,,yellow,cross
0.0,6.0,1.0,1.0,5.0,5.0,302.8354198904708,4.0,1.0,phase_2,stop,450.0,500.0,3.0,,,,,,,,,magenta,diamond
0.0,7.0,2.0,1.0,6.0,6.0,544.4367899326608,4.0,1.0,phase_2,go,400.0,500.0,1.0,,,,,,,,,orange,circle
0.0,4.0,4.0,0.0,5.0,5.0,295.5208930652588,4.0,1.0,phase_2,go,400.0,500.0,1.0,,,,,,,,,yellow,cross
0.0,7.0,2.0,1.0,5.0,5.0,365.0091169402003,4.0,1.0,phase_2,stop,400.0,500.0,3.0,,,,,,,,,orange,circle
0.0,5.0,0.5,1.0,5.0,0.0,0.0,4.0,1.0,phase_2,stop,350.0,500.0,4.0,,,,,,,,,blue,flipped triangle
0.0,3.0,2.0,0.0,5.0,5.0,524.8221399961039,4.0,1.0,phase_2,go,400.0,500.0,1.0,,,,,,,,,gray,triangle
0.0,3.0,2.0,0.0,5.0,5.0,274.757044040598,4.0,1.0,phase_2,go,400.0,500.0,1.0,,,,,,,,,gray,triangle
0.0,5.0,0.5,1.0,6.0,6.0,523.6563290236518,4.0,1.0,phase_2,stop,400.0,500.0,3.0,,,,,,,,,blue,flipped triangle
0.0,6.0,1.0,1.0,6.0,6.0,491.1874079843983,4.0,1.0,phase_2,stop,400.0,450.0,3.0,,,,,,,,,magenta,diamond
0.0,7.0,2.0,1.0,5.0,0.0,0.0,4.0,1.0,phase_2,stop,400.0,400.0,4.0,,,,,,,,,orange,circle
0.0,3.0,2.0,0.0,6.0,6.0,640.715079032816,4.0,1.0,phase_2,go,450.0,400.0,1.0,,,,,,,,,gray,triangle
0.0,2.0,1.0,0.0,5.0,5.0,553.0320969410241,4.0,1.0,phase_2,go,450.0,400.0,1.0,,,,,,,,,cyan,hexagon
0.0,3.0,2.0,0.0,6.0,6.0,483.2328240154311,4.0,1.0,phase_2,go,450.0,400.0,1.0,,,,,,,,,gray,triangle
0.0,4.0,4.0,0.0,6.0,6.0,401.059765019454,4.0,1.0,phase_2,go,450.0,400.0,1.0,,,,,,,,,yellow,cross
0.0,2.0,1.0,0.0,5.0,5.0,239.1876830952242,4.0,1.0,phase_2,go,450.0,400.0,1.0,,,,,,,,,cyan,hexagon
0.0,4.0,4.0,0.0,6.0,6.0,614.2394680064172,4.0,1.0,phase_2,go,450.0,400.0,1.0,,,,,,,,,yellow,cross
0.0,8.0,4.0,1.0,6.0,6.0,328.7440700223669,4.0,1.0,phase_2,stop,450.0,400.0,3.0,,,,,,,,,white,I
0.0,5.0,0.5,1.0,6.0,6.0,580.272447085008,4.0,1.0,phase_2,go,450.0,350.0,1.0,,,,,,,,,blue,flipped triangle
0.0,4.0,4.0,0.0,5.0,5.0,295.2392710139975,4.0,1.0,phase_2,go,450.0,350.0,1.0,,,,,,,,,yellow,cross
0.0,3.0,2.0,0.0,5.0,5.0,435.9530860092491,4.0,1.0,phase_2,go,450.0,350.0,1.0,,,,,,,,,gray,triangle
0.0,5.0,0.5,1.0,5.0,5.0,510.79241500701755,4.0,1.0,phase_2,stop,450.0,350.0,3.0,,,,,,,,,blue,flipped triangle
0.0,4.0,4.0,0.0,6.0,6.0,573.9493099972606,4.0,1.0,phase_2,go,400.0,350.0,1.0,,,,,,,,,yellow,cross
0.0,1.0,0.5,0.0,5.0,5.0,564.8957469966263,4.0,1.0,phase_2,go,400.0,350.0,1.0,,,,,,,,,green,square
0.0,2.0,1.0,0.0,5.0,5.0,517.0092059997842,4.0,1.0,phase_2,go,400.0,350.0,1.0,,,,,,,,,cyan,hexagon
0.0,2.0,1.0,0.0,6.0,6.0,443.610219983384,4.0,1.0,phase_2,go,400.0,350.0,1.0,,,,,,,,,cyan,hexagon
0.0,3.0,2.0,0.0,6.0,6.0,327.8463350143283,4.0,1.0,phase_2,go,400.0,350.0,1.0,,,,,,,,,gray,triangle
0.0,7.0,2.0,1.0,5.0,5.0,327.3227449972182,4.0,1.0,phase_2,stop,400.0,350.0,3.0,,,,,,,,,orange,circle
0.0,1.0,0.5,0.0,6.0,6.0,401.1167829157784,4.0,1.0,phase_2,go,350.0,350.0,1.0,,,,,,,,,green,square
0.0,8.0,4.0,1.0,6.0,0.0,0.0,4.0,1.0,phase_2,stop,350.0,350.0,4.0,,,,,,,,,white,I
0.0,5.0,0.5,1.0,6.0,0.0,0.0,4.0,1.0,phase_2,stop,350.0,400.0,4.0,,,,,,,,,blue,flipped triangle
0.0,2.0,1.0,0.0,6.0,6.0,589.0547069720924,4.0,1.0,phase_2,go,350.0,450.0,1.0,,,,,,,,,cyan,hexagon
0.0,7.0,2.0,1.0,6.0,6.0,576.6153699951246,4.0,1.0,phase_2,stop,350.0,450.0,3.0,,,,,,,,,orange,circle
0.0,4.0,4.0,0.0,6.0,6.0,550.3495619632304,4.0,1.0,phase_2,go,350.0,400.0,1.0,,,,,,,,,yellow,cross
0.0,7.0,2.0,1.0,6.0,0.0,0.0,4.0,1.0,phase_2,stop,350.0,400.0,4.0,,,,,,,,,orange,circle
0.0,8.0,4.0,1.0,5.0,0.0,0.0,4.0,1.0,phase_2,stop,350.0,450.0,4.0,,,,,,,,,white,I
0.0,5.0,0.5,1.0,5.0,5.0,413.8456039363518,5.0,1.0,phase_2,go,400.0,450.0,1.0,,,,,,,,,blue,flipped triangle
0.0,5.0,0.5,1.0,5.0,5.0,372.3054460715502,5.0,1.0,phase_2,go,400.0,450.0,1.0,,,,,,,,,blue,flipped triangle
0.0,5.0,0.5,1.0,6.0,6.0,590.2221429860219,5.0,1.0,phase_2,stop,400.0,450.0,3.0,,,,,,,,,blue,flipped triangle
0.0,1.0,0.5,0.0,6.0,6.0,650.9217509301379,5.0,1.0,phase_2,go,400.0,400.0,1.0,,,,,,,,,green,square
0.0,7.0,2.0,1.0,6.0,0.0,0.0,5.0,1.0,phase_2,stop,400.0,400.0,4.0,,,,,,,,,orange,circle
0.0,3.0,2.0,0.0,6.0,6.0,490.3480500215664,5.0,1.0,phase_2,go,400.0,450.0,1.0,,,,,,,,,gray,triangle
0.0,6.0,1.0,1.0,5.0,0.0,0.0,5.0,1.0,phase_2,stop,400.0,450.0,4.0,,,,,,,,,magenta,diamond
0.0,7.0,2.0,1.0,5.0,5.0,633.2780049415305,5.0,1.0,phase_2,go,450.0,450.0,1.0,,,,,,,,,orange,circle
0.0,4.0,4.0,0.0,6.0,6.0,623.497444903478,5.0,1.0,phase_2,go,450.0,450.0,1.0,,,,,,,,,yellow,cross
0.0,5.0,0.5,1.0,5.0,5.0,499.3812969187274,5.0,1.0,phase_2,go,450.0,450.0,1.0,,,,,,,,,blue,flipped triangle
0.0,2.0,1.0,0.0,5.0,5.0,489.2897029640153,5.0,1.0,phase_2,go,450.0,450.0,1.0,,,,,,,,,cyan,hexagon
0.0,7.0,2.0,1.0,6.0,6.0,560.3075139224529,5.0,1.0,phase_2,stop,450.0,450.0,3.0,,,,,,,,,orange,circle
0.0,3.0,2.0,0.0,6.0,6.0,542.9143739165738,5.0,1.0,phase_2,go,450.0,400.0,1.0,,,,,,,,,gray,triangle
0.0,1.0,0.5,0.0,5.0,5.0,496.1113339522853,5.0,1.0,phase_2,go,450.0,400.0,1.0,,,,,,,,,green,square
0.0,5.0,0.5,1.0,6.0,0.0,0.0,5.0,1.0,phase_2,stop,450.0,400.0,4.0,,,,,,,,,blue,flipped triangle
0.0,1.0,0.5,0.0,5.0,5.0,644.5659700548276,5.0,1.0,phase_2,go,450.0,450.0,1.0,,,,,,,,,green,square
0.0,6.0,1.0,1.0,6.0,6.0,447.1024989616126,5.0,1.0,phase_2,stop,450.0,450.0,3.0,,,,,,,,,magenta,diamond
0.0,2.0,1.0,0.0,5.0,5.0,702.5159830227494,5.0,1.0,phase_2,go,450.0,400.0,1.0,,,,,,,,,cyan,hexagon
0.0,7.0,2.0,1.0,5.0,0.0,0.0,5.0,1.0,phase_2,stop,450.0,400.0,4.0,,,,,,,,,orange,circle
0.0,8.0,4.0,1.0,6.0,0.0,0.0,5.0,1.0,phase_2,stop,500.0,400.0,4.0,,,,,,,,,white,I
0.0,6.0,1.0,1.0,5.0,0.0,0.0,5.0,1.0,phase_2,stop,500.0,450.0,4.0,,,,,,,,,magenta,diamond
0.0,4.0,4.0,0.0,5.0,5.0,676.9080680096522,5.0,1.0,phase_2,go,550.0,450.0,1.0,,,,,,,,,yellow,cross
0.0,6.0,1.0,1.0,5.0,5.0,722.2037960309535,5.0,1.0,phase_2,go,550.0,450.0,1.0,,,,,,,,,magenta,diamond
0.0,8.0,4.0,1.0,6.0,6.0,599.3966420646757,5.0,1.0,phase_2,go,550.0,450.0,1.0,,,,,,,,,white,I
0.0,3.0,2.0,0.0,6.0,6.0,592.4597269622609,5.0,1.0,phase_2,go,550.0,450.0,1.0,,,,,,,,,gray,triangle
0.0,5.0,0.5,1.0,5.0,5.0,470.2614960260689,5.0,1.0,phase_2,stop,550.0,450.0,3.0,,,,,,,,,blue,flipped triangle
0.0,6.0,1.0,1.0,6.0,6.0,544.1571359988302,5.0,1.0,phase_2,go,500.0,450.0,1.0,,,,,,,,,magenta,diamond
0.0,8.0,4.0,1.0,6.0,0.0,0.0,5.0,1.0,phase_2,stop,500.0,450.0,4.0,,,,,,,,,white,I
0.0,8.0,4.0,1.0,5.0,5.0,565.495916060172,5.0,1.0,phase_2,stop,500.0,500.0,3.0,,,,,,,,,white,I
0.0,3.0,2.0,0.0,6.0,6.0,742.8896790370345,5.0,1.0,phase_2,go,450.0,500.0,1.0,,,,,,,,,gray,triangle
0.0,3.0,2.0,0.0,5.0,5.0,740.0566880824044,5.0,1.0,phase_2,go,450.0,500.0,1.0,,,,,,,,,gray,triangle
0.0,7.0,2.0,1.0,5.0,5.0,795.4984839307144,5.0,1.0,phase_2,go,450.0,500.0,1.0,,,,,,,,,orange,circle
0.0,1.0,0.5,0.0,6.0,6.0,675.1270529348403,5.0,1.0,phase_2,go,450.0,500.0,1.0,,,,,,,,,green,square
0.0,8.0,4.0,1.0,5.0,0.0,0.0,5.0,1.0,phase_2,stop,450.0,500.0,4.0,,,,,,,,,white,I
0.0,3.0,2.0,0.0,5.0,5.0,473.4441109467298,5.0,1.0,phase_2,go,500.0,500.0,1.0,,,,,,,,,gray,triangle
0.0,6.0,1.0,1.0,6.0,6.0,364.3556629540398,5.0,1.0,phase_2,stop,500.0,500.0,3.0,,,,,,,,,magenta,diamond
0.0,5.0,0.5,1.0,6.0,6.0,371.4120059739798,6.0,1.0,phase_2,stop,500.0,450.0,3.0,,,,,,,,,blue,flipped triangle
0.0,1.0,0.5,0.0,5.0,5.0,627.0591820357367,6.0,1.0,phase_2,go,500.0,400.0,1.0,,,,,,,,,green,square
0.0,7.0,2.0,1.0,6.0,0.0,0.0,6.0,1.0,phase_2,stop,500.0,400.0,4.0,,,,,,,,,orange,circle
0.0,1.0,0.5,0.0,6.0,6.0,562.5168969854712,6.0,1.0,phase_2,go,500.0,450.0,1.0,,,,,,,,,green,square
0.0,1.0,0.5,0.0,6.0,6.0,673.0810960289091,6.0,1.0,phase_2,go,500.0,450.0,1.0,,,,,,,,,green,square
0.0,8.0,4.0,1.0,5.0,5.0,490.7256430014968,6.0,1.0,phase_2,stop,500.0,450.0,3.0,,,,,,,,,white,I
0.0,5.0,0.5,1.0,5.0,0.0,0.0,6.0,1.0,phase_2,stop,450.0,450.0,4.0,,,,,,,,,blue,flipped triangle
0.0,2.0,1.0,0.0,5.0,5.0,608.070702990517,6.0,1.0,phase_2,go,500.0,450.0,1.0,,,,,,,,,cyan,hexagon
0.0,4.0,4.0,0.0,5.0,5.0,296.4303280459717,6.0,1.0,phase_2,go,500.0,450.0,1.0,,,,,,,,,yellow,cross
0.0,8.0,4.0,1.0,6.0,6.0,278.6656919633969,6.0,1.0,phase_2,stop,500.0,450.0,3.0,,,,,,,,,white,I
0.0,6.0,1.0,1.0,6.0,6.0,444.5077299606055,6.0,1.0,phase_2,stop,500.0,400.0,3.0,,,,,,,,,magenta,diamond
0.0,4.0,4.0,0.0,5.0,5.0,652.3120980709791,6.0,1.0,phase_2,go,500.0,350.0,1.0,,,,,,,,,yellow,cross
0.0,4.0,4.0,0.0,5.0,5.0,590.4557950561866,6.0,1.0,phase_2,go,500.0,350.0,1.0,,,,,,,,,yellow,cross
0.0,7.0,2.0,1.0,5.0,5.0,595.3087829984725,6.0,1.0,phase_2,stop,500.0,350.0,3.0,,,,,,,,,orange,circle
0.0,1.0,0.5,0.0,5.0,5.0,707.7580780023709,6.0,1.0,phase_2,go,450.0,350.0,1.0,,,,,,,,,green,square
0.0,5.0,0.5,1.0,6.0,0.0,0.0,6.0,1.0,phase_2,stop,450.0,350.0,4.0,,,,,,,,,blue,flipped triangle
0.0,7.0,2.0,1.0,5.0,0.0,0.0,6.0,1.0,phase_2,stop,450.0,400.0,4.0,,,,,,,,,orange,circle
0.0,5.0,0.5,1.0,6.0,6.0,586.163830012083,6.0,1.0,phase_2,go,500.0,400.0,1.0,,,,,,,,,blue,flipped triangle
0.0,4.0,4.0,0.0,6.0,6.0,656.558315968141,6.0,1.0,phase_2,go,500.0,400.0,1.0,,,,,,,,,yellow,cross
0.0,2.0,1.0,0.0,6.0,6.0,712.0254160836339,6.0,1.0,phase_2,go,500.0,400.0,1.0,,,,,,,,,cyan,hexagon
0.0,7.0,2.0,1.0,5.0,5.0,599.3211430031806,6.0,1.0,phase_2,go,500.0,400.0,1.0,,,,,,,,,orange,circle
0.0,6.0,1.0,1.0,5.0,0.0,0.0,6.0,1.0,phase_2,stop,500.0,400.0,4.0,,,,,,,,,magenta,diamond
0.0,2.0,1.0,0.0,6.0,6.0,736.8433069204912,6.0,1.0,phase_2,go,550.0,400.0,1.0,,,,,,,,,cyan,hexagon
0.0,4.0,4.0,0.0,5.0,5.0,764.7514359559864,6.0,1.0,phase_2,go,550.0,400.0,1.0,,,,,,,,,yellow,cross
0.0,3.0,2.0,0.0,5.0,5.0,823.6188360024244,6.0,1.0,phase_2,go,550.0,400.0,1.0,,,,,,,,,gray,triangle
0.0,2.0,1.0,0.0,5.0,5.0,710.7148839859292,6.0,1.0,phase_2,go,550.0,400.0,1.0,,,,,,,,,cyan,hexagon
0.0,1.0,0.5,0.0,5.0,5.0,764.7804489824921,6.0,1.0,phase_2,go,550.0,400.0,1.0,,,,,,,,,green,square
0.0,3.0,2.0,0.0,5.0,5.0,718.3542920975015,6.0,1.0,phase_2,go,550.0,400.0,1.0,,,,,,,,,gray,triangle
0.0,5.0,0.5,1.0,6.0,0.0,0.0,6.0,1.0,phase_2,stop,550.0,400.0,4.0,,,,,,,,,blue,flipped triangle
0.0,7.0,2.0,1.0,6.0,0.0,0.0,6.0,1.0,phase_2,stop,550.0,450.0,4.0,,,,,,,,,orange,circle
0.0,3.0,2.0,0.0,5.0,5.0,700.5995309446007,6.0,1.0,phase_2,go,550.0,500.0,1.0,,,,,,,,,gray,triangle
0.0,2.0,1.0,0.0,5.0,5.0,609.1100840130821,6.0,1.0,phase_2,go,550.0,500.0,1.0,,,,,,,,,cyan,hexagon
0.0,3.0,2.0,0.0,6.0,6.0,658.6286359233782,6.0,1.0,phase_2,go,550.0,500.0,1.0,,,,,,,,,gray,triangle
0.0,8.0,4.0,1.0,6.0,6.0,655.6489130016416,6.0,1.0,phase_2,go,550.0,500.0,1.0,,,,,,,,,white,I
0.0,2.0,1.0,0.0,6.0,6.0,575.3683799412102,6.0,1.0,phase_2,go,550.0,500.0,1.0,,,,,,,,,cyan,hexagon
0.0,1.0,0.5,0.0,5.0,5.0,695.4492389922962,6.0,1.0,phase_2,go,550.0,500.0,1.0,,,,,,,,,green,square
0.0,4.0,4.0,0.0,6.0,6.0,443.9830899937078,7.0,1.0,phase_2,go,550.0,500.0,1.0,,,,,,,,,yellow,cross
0.0,8.0,4.0,1.0,6.0,6.0,327.7493169298395,7.0,1.0,phase_2,stop,550.0,500.0,3.0,,,,,,,,,white,I
0.0,1.0,0.5,0.0,5.0,5.0,455.4274620022625,7.0,1.0,phase_2,go,550.0,450.0,1.0,,,,,,,,,green,square
0.0,3.0,2.0,0.0,5.0,5.0,282.7531779184937,7.0,1.0,phase_2,go,550.0,450.0,1.0,,,,,,,,,gray,triangle
0.0,8.0,4.0,1.0,5.0,5.0,234.1950259869918,7.0,1.0,phase_2,stop,550.0,450.0,3.0,,,,,,,,,white,I
0.0,3.0,2.0,0.0,6.0,6.0,393.3401579270139,7.0,1.0,phase_2,go,500.0,450.0,1.0,,,,,,,,,gray,triangle
0.0,2.0,1.0,0.0,5.0,5.0,340.157312923111,7.0,1.0,phase_2,go,500.0,450.0,1.0,,,,,,,,,cyan,hexagon
0.0,8.0,4.0,1.0,6.0,6.0,249.5518820360303,7.0,1.0,phase_2,go,500.0,450.0,1.0,,,,,,,,,white,I
0.0,5.0,0.5,1.0,5.0,5.0,208.4253850625828,7.0,1.0,phase_2,stop,500.0,450.0,3.0,,,,,,,,,blue,flipped triangle
0.0,5.0,0.5,1.0,6.0,6.0,319.2931800149381,7.0,1.0,phase_2,stop,450.0,450.0,3.0,,,,,,,,,blue,flipped triangle
0.0,4.0,4.0,0.0,6.0,6.0,463.3559150388464,7.0,1.0,phase_2,go,450.0,400.0,1.0,,,,,,,,,yellow,cross
0.0,1.0,0.5,0.0,5.0,5.0,258.2317740889266,7.0,1.0,phase_2,go,450.0,400.0,1.0,,,,,,,,,green,square
0.0,5.0,0.5,1.0,6.0,6.0,286.6322710178792,7.0,1.0,phase_2,go,450.0,400.0,1.0,,,,,,,,,blue,flipped triangle
0.0,6.0,1.0,1.0,5.0,5.0,197.2065239679068,7.0,1.0,phase_2,stop,450.0,400.0,3.0,,,,,,,,,magenta,diamond
0.0,5.0,0.5,1.0,5.0,5.0,365.0919100036844,7.0,1.0,phase_2,stop,400.0,400.0,3.0,,,,,,,,,blue,flipped triangle
0.0,8.0,4.0,1.0,6.0,6.0,436.3959080073982,7.0,1.0,phase_2,go,350.0,400.0,1.0,,,,,,,,,white,I
0.0,2.0,1.0,0.0,6.0,6.0,270.2041330048814,7.0,1.0,phase_2,go,350.0,400.0,1.0,,,,,,,,,cyan,hexagon
0.0,8.0,4.0,1.0,5.0,5.0,379.4978379737586,7.0,1.0,phase_2,stop,350.0,400.0,3.0,,,,,,,,,white,I
0.0,5.0,0.5,1.0,6.0,6.0,258.3440199960023,7.0,1.0,phase_2,go,300.0,400.0,1.0,,,,,,,,,blue,flipped triangle
0.0,8.0,4.0,1.0,6.0,6.0,261.9193670107052,7.0,1.0,phase_2,stop,300.0,400.0,3.0,,,,,,,,,white,I
0.0,1.0,0.5,0.0,5.0,5.0,323.187333997339,7.0,1.0,phase_2,go,300.0,350.0,1.0,,,,,,,,,green,square
0.0,2.0,1.0,0.0,6.0,6.0,211.7279090452939,7.0,1.0,phase_2,go,300.0,350.0,1.0,,,,,,,,,cyan,hexagon
0.0,8.0,4.0,1.0,6.0,6.0,266.1908670561388,7.0,1.0,phase_2,go,300.0,350.0,1.0,,,,,,,,,white,I
0.0,4.0,4.0,0.0,6.0,6.0,275.1142920460552,7.0,1.0,phase_2,go,300.0,350.0,1.0,,,,,,,,,yellow,cross
0.0,4.0,4.0,0.0,6.0,6.0,225.5449310177937,7.0,1.0,phase_2,go,300.0,350.0,1.0,,,,,,,,,yellow,cross
0.0,3.0,2.0,0.0,5.0,5.0,415.6841969816014,7.0,1.0,phase_2,go,300.0,350.0,1.0,,,,,,,,,gray,triangle
0.0,5.0,0.5,1.0,6.0,6.0,293.8029009383172,7.0,1.0,phase_2,go,300.0,350.0,1.0,,,,,,,,,blue,flipped triangle
0.0,6.0,1.0,1.0,5.0,5.0,269.9766190489754,7.0,1.0,phase_2,stop,300.0,350.0,3.0,,,,,,,,,magenta,diamond
0.0,4.0,4.0,0.0,5.0,5.0,461.7695870110765,7.0,1.0,phase_2,go,250.0,350.0,1.0,,,,,,,,,yellow,cross
0.0,2.0,1.0,0.0,6.0,6.0,462.4643729766831,7.0,1.0,phase_2,go,250.0,350.0,1.0,,,,,,,,,cyan,hexagon
0.0,7.0,2.0,1.0,5.0,5.0,405.1606090506539,7.0,1.0,phase_2,stop,250.0,350.0,3.0,,,,,,,,,orange,circle
0.0,3.0,2.0,0.0,6.0,6.0,558.136917068623,7.0,1.0,phase_2,go,200.0,350.0,1.0,,,,,,,,,gray,triangle
0.0,3.0,2.0,0.0,6.0,6.0,562.7706949599087,7.0,1.0,phase_2,go,200.0,350.0,1.0,,,,,,,,,gray,triangle
0.0,6.0,1.0,1.0,5.0,5.0,268.2751440443098,7.0,1.0,phase_2,stop,200.0,350.0,3.0,,,,,,,,,magenta,diamond
0.0,3.0,2.0,0.0,6.0,6.0,338.1207990460098,7.0,1.0,phase_2,go,150.0,350.0,1.0,,,,,,,,,gray,triangle
0.0,4.0,4.0,0.0,5.0,5.0,305.8604560792446,7.0,1.0,phase_2,go,150.0,350.0,1.0,,,,,,,,,yellow,cross
0.0,6.0,1.0,1.0,6.0,6.0,589.743799995631,8.0,1.0,phase_2,go,150.0,350.0,1.0,,,,,,,,,magenta,diamond
0.0,2.0,1.0,0.0,5.0,5.0,461.8856799788773,8.0,1.0,phase_2,go,150.0,350.0,1.0,,,,,,,,,cyan,hexagon
0.0,4.0,4.0,0.0,6.0,6.0,298.1315460056066,8.0,1.0,phase_2,go,150.0,350.0,1.0,,,,,,,,,yellow,cross
0.0,6.0,1.0,1.0,5.0,5.0,305.5723799625411,8.0,1.0,phase_2,stop,150.0,350.0,3.0,,,,,,,,,magenta,diamond
0.0,2.0,1.0,0.0,5.0,5.0,408.836047980003,8.0,1.0,phase_2,go,100.0,350.0,1.0,,,,,,,,,cyan,hexagon
0.0,5.0,0.5,1.0,6.0,6.0,336.5805119974538,8.0,1.0,phase_2,stop,100.0,350.0,3.0,,,,,,,,,blue,flipped triangle
0.0,1.0,0.5,0.0,6.0,6.0,569.3792209494859,8.0,1.0,phase_2,go,100.0,300.0,1.0,,,,,,,,,green,square
0.0,5.0,0.5,1.0,6.0,0.0,0.0,8.0,1.0,phase_2,stop,100.0,300.0,4.0,,,,,,,,,blue,flipped triangle
0.0,1.0,0.5,0.0,6.0,6.0,552.8221320128068,8.0,1.0,phase_2,go,100.0,350.0,1.0,,,,,,,,,green,square
0.0,8.0,4.0,1.0,6.0,0.0,0.0,8.0,1.0,phase_2,stop,100.0,350.0,4.0,,,,,,,,,white,I
0.0,1.0,0.5,0.0,6.0,6.0,477.6964349439367,8.0,1.0,phase_2,go,100.0,400.0,1.0,,,,,,,,,green,square
0.0,7.0,2.0,1.0,5.0,0.0,0.0,8.0,1.0,phase_2,stop,100.0,400.0,4.0,,,,,,,,,orange,circle
0.0,6.0,1.0,1.0,6.0,6.0,494.337212992832,8.0,1.0,phase_2,stop,150.0,400.0,3.0,,,,,,,,,magenta,diamond
0.0,7.0,2.0,1.0,6.0,6.0,479.1015980299562,8.0,1.0,phase_2,go,150.0,350.0,1.0,,,,,,,,,orange,circle
0.0,6.0,1.0,1.0,5.0,0.0,0.0,8.0,1.0,phase_2,stop,150.0,350.0,4.0,,,,,,,,,magenta,diamond
0.0,7.0,2.0,1.0,6.0,0.0,0.0,8.0,1.0,phase_2,stop,200.0,350.0,4.0,,,,,,,,,orange,circle
0.0,5.0,0.5,1.0,6.0,0.0,0.0,8.0,1.0,phase_2,stop,200.0,400.0,4.0,,,,,,,,,blue,flipped triangle
0.0,8.0,4.0,1.0,5.0,5.0,573.7979180412367,8.0,1.0,phase_2,go,200.0,450.0,1.0,,,,,,,,,white,I
0.0,4.0,4.0,0.0,6.0,6.0,580.5096270050853,8.0,1.0,phase_2,go,200.0,450.0,1.0,,,,,,,,,yellow,cross
0.0,2.0,1.0,0.0,5.0,5.0,529.3005540734157,8.0,1.0,phase_2,go,200.0,450.0,1.0,,,,,,,,,cyan,hexagon
0.0,3.0,2.0,0.0,5.0,5.0,507.52926198765635,8.0,1.0,phase_2,go,200.0,450.0,1.0,,,,,,,,,gray,triangle
0.0,8.0,4.0,1.0,5.0,0.0,0.0,8.0,1.0,phase_2,stop,200.0,450.0,4.0,,,,,,,,,white,I
0.0,1.0,0.5,0.0,6.0,6.0,554.7169459750876,8.0,1.0,phase_2,go,250.0,450.0,1.0,,,,,,,,,green,square
0.0,1.0,0.5,0.0,6.0,6.0,600.1221350161359,8.0,1.0,phase_2,go,250.0,450.0,1.0,,,,,,,,,green,square
0.0,4.0,4.0,0.0,6.0,6.0,575.3073609666899,8.0,1.0,phase_2,go,250.0,450.0,1.0,,,,,,,,,yellow,cross
0.0,8.0,4.0,1.0,5.0,0.0,0.0,8.0,1.0,phase_2,stop,250.0,450.0,4.0,,,,,,,,,white,I
0.0,4.0,4.0,0.0,6.0,6.0,545.0879960553721,8.0,1.0,phase_2,go,300.0,450.0,1.0,,,,,,,,,yellow,cross
0.0,8.0,4.0,1.0,5.0,0.0,0.0,8.0,1.0,phase_2,stop,300.0,450.0,4.0,,,,,,,,,white,I
0.0,4.0,4.0,0.0,5.0,5.0,581.1380950035527,8.0,1.0,phase_2,go,350.0,450.0,1.0,,,,,,,,,yellow,cross
0.0,2.0,1.0,0.0,5.0,5.0,574.2923590587452,8.0,1.0,phase_2,go,350.0,450.0,1.0,,,,,,,,,cyan,hexagon
0.0,5.0,0.5,1.0,6.0,0.0,0.0,8.0,1.0,phase_2,stop,350.0,450.0,4.0,,,,,,,,,blue,flipped triangle
0.0,8.0,4.0,1.0,5.0,0.0,0.0,8.0,1.0,phase_2,stop,350.0,500.0,4.0,,,,,,,,,white,I
0.0,6.0,1.0,1.0,6.0,6.0,652.6321220444515,8.0,1.0,phase_2,go,400.0,500.0,1.0,,,,,,,,,magenta,diamond
0.0,6.0,1.0,1.0,6.0,6.0,600.7027319865301,8.0,1.0,phase_2,go,400.0,500.0,1.0,,,,,,,,,magenta,diamond
0.0,4.0,4.0,0.0,5.0,5.0,564.6353219635785,8.0,1.0,phase_2,go,400.0,500.0,1.0,,,,,,,,,yellow,cross
0.0,2.0,1.0,0.0,6.0,6.0,578.897473984398,8.0,1.0,phase_2,go,400.0,500.0,1.0,,,,,,,,,cyan,hexagon
0.0,1.0,0.5,0.0,7.0,2.0,2166.338774957694,1.0,1.0,phase_3,,,,,78.0,2.0,195.0,78.0,39.0,234.0,117.0,156.0,green,square
0.0,1.0,0.5,0.0,7.0,4.0,3355.447810026817,1.0,1.0,phase_3,,,,,49.0,1.0,196.0,294.0,98.0,49.0,245.0,147.0,green,square
0.0,8.0,4.0,1.0,7.0,1.0,1745.3806929988789,1.0,1.0,phase_3,,,,,204.0,6.0,204.0,170.0,34.0,68.0,102.0,136.0,white,I
0.0,1.0,0.5,0.0,7.0,4.0,2180.0280699972063,1.0,1.0,phase_3,,,,,39.0,1.0,195.0,117.0,78.0,39.0,156.0,234.0,green,square
0.0,4.0,4.0,0.0,7.0,3.0,2125.639136065729,1.0,1.0,phase_3,,,,,245.0,5.0,196.0,49.0,245.0,147.0,98.0,294.0,yellow,cross
0.0,3.0,2.0,0.0,7.0,6.0,1110.1487720152363,1.0,1.0,phase_3,,,,,54.0,1.0,216.0,270.0,162.0,108.0,324.0,54.0,gray,triangle
0.0,2.0,1.0,0.0,7.0,6.0,1722.1687040291729,1.0,1.0,phase_3,,,,,88.0,2.0,132.0,264.0,44.0,220.0,176.0,88.0,cyan,hexagon
0.0,4.0,4.0,0.0,7.0,2.0,1608.3607020555064,1.0,1.0,phase_3,,,,,245.0,5.0,98.0,245.0,294.0,196.0,147.0,49.0,yellow,cross
0.0,5.0,0.5,1.0,7.0,1.0,1132.2928529698402,1.0,1.0,phase_3,,,,,49.0,1.0,49.0,245.0,98.0,147.0,294.0,196.0,blue,flipped triangle
0.0,6.0,1.0,1.0,7.0,1.0,835.5396650731564,1.0,1.0,phase_3,,,,,39.0,1.0,39.0,156.0,195.0,78.0,117.0,234.0,magenta,diamond
0.0,8.0,4.0,1.0,7.0,6.0,1007.431454025209,1.0,1.0,phase_3,,,,,204.0,6.0,102.0,170.0,34.0,136.0,68.0,204.0,white,I
0.0,1.0,0.5,0.0,7.0,2.0,1135.3582929586992,1.0,1.0,phase_3,,,,,44.0,1.0,220.0,44.0,264.0,176.0,88.0,132.0,green,square
0.0,1.0,0.5,0.0,7.0,6.0,935.5766270309688,1.0,1.0,phase_3,,,,,44.0,1.0,176.0,264.0,132.0,88.0,220.0,44.0,green,square
0.0,6.0,1.0,1.0,7.0,2.0,1801.1820639949292,1.0,1.0,phase_3,,,,,88.0,2.0,132.0,88.0,220.0,176.0,44.0,264.0,magenta,diamond
0.0,8.0,4.0,1.0,7.0,2.0,1273.4083969844503,1.0,1.0,phase_3,,,,,294.0,6.0,49.0,294.0,245.0,196.0,98.0,147.0,white,I
0.0,4.0,4.0,0.0,7.0,5.0,1222.3434379557148,1.0,1.0,phase_3,,,,,220.0,5.0,44.0,176.0,264.0,88.0,220.0,132.0,yellow,cross
0.0,5.0,0.5,1.0,7.0,6.0,1037.3634399147704,1.0,1.0,phase_3,,,,,34.0,1.0,102.0,170.0,68.0,204.0,136.0,34.0,blue,flipped triangle
0.0,1.0,0.5,0.0,7.0,2.0,832.4385000159964,1.0,1.0,phase_3,,,,,108.0,2.0,270.0,108.0,54.0,324.0,162.0,216.0,green,square
0.0,1.0,0.5,0.0,7.0,6.0,913.3612959412858,1.0,1.0,phase_3,,,,,34.0,1.0,170.0,204.0,102.0,68.0,136.0,34.0,green,square
0.0,6.0,1.0,1.0,7.0,6.0,1296.351928031072,1.0,1.0,phase_3,,,,,88.0,2.0,132.0,176.0,220.0,44.0,264.0,88.0,magenta,diamond
0.0,8.0,4.0,1.0,7.0,4.0,1250.0935720745474,2.0,1.0,phase_3,,,,,245.0,5.0,49.0,147.0,196.0,245.0,98.0,294.0,white,I
0.0,3.0,2.0,0.0,7.0,1.0,1397.543268976733,2.0,1.0,phase_3,,,,,98.0,2.0,98.0,147.0,196.0,294.0,49.0,245.0,gray,triangle
0.0,5.0,0.5,1.0,7.0,3.0,1035.525593906641,2.0,1.0,phase_3,,,,,34.0,1.0,136.0,68.0,34.0,204.0,102.0,170.0,blue,flipped triangle
0.0,7.0,2.0,1.0,7.0,3.0,2413.058938924223,2.0,1.0,phase_3,,,,,147.0,3.0,245.0,196.0,147.0,98.0,49.0,294.0,orange,circle
0.0,3.0,2.0,0.0,7.0,3.0,2093.5817239806056,2.0,1.0,phase_3,,,,,49.0,1.0,98.0,147.0,49.0,245.0,294.0,196.0,gray,triangle
0.0,3.0,2.0,0.0,7.0,1.0,1505.9779030270877,2.0,1.0,phase_3,,,,,44.0,1.0,44.0,176.0,132.0,88.0,220.0,264.0,gray,triangle
0.0,3.0,2.0,0.0,7.0,4.0,1880.6148150470108,2.0,1.0,phase_3,,,,,78.0,2.0,156.0,39.0,195.0,78.0,117.0,234.0,gray,triangle
0.0,5.0,0.5,1.0,7.0,2.0,874.6067590545863,2.0,1.0,phase_3,,,,,39.0,1.0,156.0,39.0,78.0,117.0,234.0,195.0,blue,flipped triangle
0.0,4.0,4.0,0.0,7.0,5.0,1459.8860200494528,2.0,1.0,phase_3,,,,,170.0,5.0,68.0,102.0,136.0,34.0,170.0,204.0,yellow,cross
0.0,5.0,0.5,1.0,7.0,3.0,1845.716014970094,2.0,1.0,phase_3,,,,,49.0,1.0,98.0,294.0,49.0,245.0,196.0,147.0,blue,flipped triangle
0.0,5.0,0.5,1.0,7.0,5.0,991.994027979672,2.0,1.0,phase_3,,,,,54.0,1.0,162.0,324.0,108.0,216.0,54.0,270.0,blue,flipped triangle
0.0,1.0,0.5,0.0,7.0,6.0,1471.8261249363422,2.0,1.0,phase_3,,,,,49.0,1.0,147.0,98.0,196.0,294.0,245.0,49.0,green,square
0.0,7.0,2.0,1.0,7.0,6.0,1665.6027439748868,2.0,1.0,phase_3,,,,,102.0,3.0,34.0,136.0,204.0,68.0,170.0,102.0,orange,circle
0.0,2.0,1.0,0.0,7.0,5.0,2027.6506800437346,2.0,1.0,phase_3,,,,,54.0,1.0,324.0,270.0,162.0,216.0,54.0,108.0,cyan,hexagon
0.0,4.0,4.0,0.0,7.0,5.0,1851.4234309550372,2.0,1.0,phase_3,,,,,270.0,5.0,54.0,216.0,162.0,324.0,270.0,108.0,yellow,cross
0.0,6.0,1.0,1.0,7.0,5.0,1821.672284975648,2.0,1.0,phase_3,,,,,54.0,1.0,324.0,216.0,108.0,270.0,54.0,162.0,magenta,diamond
0.0,2.0,1.0,0.0,7.0,1.0,1719.012337969616,2.0,1.0,phase_3,,,,,49.0,1.0,49.0,147.0,245.0,294.0,98.0,196.0,cyan,hexagon
0.0,5.0,0.5,1.0,7.0,6.0,1530.7574180187655,2.0,1.0,phase_3,,,,,44.0,1.0,220.0,264.0,176.0,132.0,88.0,44.0,blue,flipped triangle
0.0,2.0,1.0,0.0,7.0,3.0,2953.1039310386404,2.0,1.0,phase_3,,,,,39.0,1.0,78.0,234.0,39.0,156.0,195.0,117.0,cyan,hexagon
0.0,7.0,2.0,1.0,7.0,5.0,2501.6410960815847,2.0,1.0,phase_3,,,,,98.0,2.0,49.0,147.0,196.0,245.0,98.0,294.0,orange,circle
0.0,6.0,1.0,1.0,7.0,3.0,1426.7425910802558,3.0,1.0,phase_3,,,,,34.0,1.0,204.0,136.0,34.0,102.0,68.0,170.0,magenta,diamond
0.0,5.0,0.5,1.0,7.0,4.0,994.5925120264292,3.0,1.0,phase_3,,,,,54.0,1.0,324.0,270.0,162.0,54.0,108.0,216.0,blue,flipped triangle
0.0,5.0,0.5,1.0,7.0,6.0,1231.820316053927,3.0,1.0,phase_3,,,,,39.0,1.0,234.0,78.0,195.0,117.0,156.0,39.0,blue,flipped triangle
0.0,6.0,1.0,1.0,7.0,3.0,2087.2033630730584,3.0,1.0,phase_3,,,,,49.0,1.0,294.0,196.0,49.0,245.0,98.0,147.0,magenta,diamond
0.0,8.0,4.0,1.0,7.0,5.0,1766.4351190906018,3.0,1.0,phase_3,,,,,264.0,6.0,220.0,132.0,44.0,176.0,264.0,88.0,white,I
0.0,6.0,1.0,1.0,7.0,1.0,1411.5441710455343,3.0,1.0,phase_3,,,,,49.0,1.0,49.0,294.0,147.0,196.0,98.0,245.0,magenta,diamond
0.0,1.0,0.5,0.0,7.0,5.0,962.15541602578,3.0,1.0,phase_3,,,,,34.0,1.0,102.0,204.0,68.0,136.0,34.0,170.0,green,square
0.0,8.0,4.0,1.0,7.0,1.0,1557.9017900163308,3.0,1.0,phase_3,,,,,234.0,6.0,234.0,117.0,195.0,156.0,39.0,78.0,white,I
0.0,7.0,2.0,1.0,7.0,6.0,1902.2870240733027,3.0,1.0,phase_3,,,,,132.0,3.0,176.0,220.0,44.0,88.0,264.0,132.0,orange,circle
0.0,3.0,2.0,0.0,7.0,1.0,1478.0064639635384,3.0,1.0,phase_3,,,,,88.0,2.0,88.0,132.0,264.0,44.0,176.0,220.0,gray,triangle
0.0,4.0,4.0,0.0,7.0,4.0,1624.8617470264437,3.0,1.0,phase_3,,,,,270.0,5.0,162.0,216.0,54.0,270.0,108.0,324.0,yellow,cross
0.0,4.0,4.0,0.0,7.0,6.0,1535.8671189751476,3.0,1.0,phase_3,,,,,234.0,6.0,195.0,156.0,117.0,78.0,39.0,234.0,yellow,cross
0.0,2.0,1.0,0.0,7.0,3.0,2130.4090609774,3.0,1.0,phase_3,,,,,78.0,2.0,234.0,195.0,78.0,156.0,39.0,117.0,cyan,hexagon
0.0,1.0,0.5,0.0,7.0,3.0,1075.2737099537626,3.0,1.0,phase_3,,,,,54.0,1.0,270.0,216.0,54.0,162.0,108.0,324.0,green,square
0.0,5.0,0.5,1.0,7.0,2.0,957.232558983378,3.0,1.0,phase_3,,,,,44.0,1.0,132.0,44.0,88.0,264.0,176.0,220.0,blue,flipped triangle
0.0,2.0,1.0,0.0,7.0,2.0,2182.810458005406,3.0,1.0,phase_3,,,,,68.0,2.0,170.0,68.0,136.0,204.0,102.0,34.0,cyan,hexagon
0.0,7.0,2.0,1.0,7.0,4.0,2119.7852350305766,3.0,1.0,phase_3,,,,,117.0,3.0,156.0,78.0,234.0,117.0,195.0,39.0,orange,circle
0.0,6.0,1.0,1.0,7.0,6.0,1192.6679480820894,3.0,1.0,phase_3,,,,,54.0,1.0,216.0,108.0,162.0,324.0,270.0,54.0,magenta,diamond
0.0,4.0,4.0,0.0,7.0,4.0,1579.5369630213827,3.0,1.0,phase_3,,,,,234.0,6.0,39.0,117.0,195.0,234.0,156.0,78.0,yellow,cross
0.0,7.0,2.0,1.0,7.0,3.0,2955.3930549882352,3.0,1.0,phase_3,,,,,132.0,3.0,44.0,264.0,132.0,176.0,88.0,220.0,orange,circle
0.0,2.0,1.0,0.0,7.0,1.0,1290.033270022832,4.0,1.0,phase_3,,,,,68.0,2.0,68.0,170.0,34.0,136.0,204.0,102.0,cyan,hexagon
0.0,3.0,2.0,0.0,7.0,4.0,1259.4835030613467,4.0,1.0,phase_3,,,,,68.0,2.0,102.0,170.0,136.0,68.0,34.0,204.0,gray,triangle
0.0,8.0,4.0,1.0,7.0,6.0,1159.2630019877106,4.0,1.0,phase_3,,,,,324.0,6.0,270.0,162.0,54.0,216.0,108.0,324.0,white,I
0.0,7.0,2.0,1.0,7.0,6.0,1861.926748068072,4.0,1.0,phase_3,,,,,108.0,2.0,270.0,162.0,324.0,54.0,216.0,108.0,orange,circle
0.0,8.0,4.0,1.0,7.0,5.0,2409.404566977173,4.0,1.0,phase_3,,,,,195.0,5.0,39.0,156.0,234.0,117.0,195.0,78.0,white,I
0.0,4.0,4.0,0.0,7.0,3.0,1658.0141000449655,4.0,1.0,phase_3,,,,,204.0,6.0,102.0,136.0,204.0,170.0,68.0,34.0,yellow,cross
0.0,3.0,2.0,0.0,7.0,5.0,2750.435794936493,4.0,1.0,phase_3,,,,,68.0,2.0,102.0,204.0,170.0,136.0,68.0,34.0,gray,triangle
0.0,8.0,4.0,1.0,7.0,1.0,3189.0186549862847,4.0,1.0,phase_3,,,,,270.0,5.0,270.0,324.0,162.0,54.0,216.0,108.0,white,I
0.0,6.0,1.0,1.0,7.0,6.0,2676.667024032213,4.0,1.0,phase_3,,,,,39.0,1.0,78.0,117.0,156.0,234.0,195.0,39.0,magenta,diamond
0.0,7.0,2.0,1.0,7.0,5.0,1410.210756934248,4.0,1.0,phase_3,,,,,108.0,2.0,324.0,270.0,162.0,54.0,108.0,216.0,orange,circle
0.0,6.0,1.0,1.0,7.0,6.0,994.6120550157502,4.0,1.0,phase_3,,,,,34.0,1.0,136.0,102.0,170.0,204.0,68.0,34.0,magenta,diamond
0.0,7.0,2.0,1.0,7.0,3.0,2832.960798055865,4.0,1.0,phase_3,,,,,117.0,3.0,78.0,195.0,117.0,156.0,234.0,39.0,orange,circle
0.0,3.0,2.0,0.0,7.0,1.0,2564.2424820689484,4.0,1.0,phase_3,,,,,54.0,1.0,54.0,270.0,216.0,162.0,324.0,108.0,gray,triangle
0.0,2.0,1.0,0.0,7.0,3.0,1142.9917010245845,4.0,1.0,phase_3,,,,,49.0,1.0,196.0,98.0,49.0,245.0,147.0,294.0,cyan,hexagon
0.0,7.0,2.0,1.0,7.0,2.0,4165.297452942468,4.0,1.0,phase_3,,,,,68.0,2.0,34.0,68.0,170.0,102.0,136.0,204.0,orange,circle
0.0,4.0,4.0,0.0,7.0,4.0,2830.440178979188,4.0,1.0,phase_3,,,,,220.0,5.0,176.0,264.0,88.0,220.0,132.0,44.0,yellow,cross
0.0,8.0,4.0,1.0,7.0,5.0,2247.5618689786643,4.0,1.0,phase_3,,,,,264.0,6.0,176.0,88.0,132.0,44.0,264.0,220.0,white,I
0.0,2.0,1.0,0.0,7.0,2.0,1785.956223960966,4.0,1.0,phase_3,,,,,44.0,1.0,88.0,44.0,220.0,264.0,176.0,132.0,cyan,hexagon
0.0,3.0,2.0,0.0,7.0,6.0,1716.4955340558663,4.0,1.0,phase_3,,,,,78.0,2.0,156.0,195.0,117.0,234.0,39.0,78.0,gray,triangle
0.0,2.0,1.0,0.0,7.0,4.0,2883.458930067718,4.0,1.0,phase_3,,,,,54.0,1.0,162.0,108.0,324.0,54.0,270.0,216.0,cyan,hexagon
