raw_reward_magnitude,stim_reward,stepwise_reward_magnitude,paired_with_stopping,quadrant,response,reaction_time,block,num_trial_presentations,which_part,stop_signal_trial_type,left_SSD,right_SSD,accuracy,chosen_bidding_amount,chosen_bidding_level,possible_bid_1,possible_bid_2,possible_bid_3,possible_bid_4,possible_bid_5,possible_bid_6,color_text,shape_text
104.0,6.0,2.0,1.0,4.0,4.0,407.1108850184828,1.0,1.0,part_1,,,,,,,,,,,,,gray,circle
62.0,1.0,1.0,0.0,2.0,2.0,254.68352704774588,1.0,1.0,part_1,,,,,,,,,,,,,magenta,diamond
123.0,2.0,2.0,0.0,3.0,3.0,281.7189219640568,1.0,1.0,part_1,,,,,,,,,,,,,white,cross
0.0,8.0,0.0,1.0,1.0,1.0,285.9172039898112,1.0,1.0,part_1,,,,,,,,,,,,,orange,I
413.0,8.0,4.0,1.0,1.0,1.0,301.7707740655169,1.0,1.0,part_1,,,,,,,,,,,,,orange,I
72.0,5.0,1.0,1.0,4.0,4.0,296.9576050527394,1.0,1.0,part_1,,,,,,,,,,,,,cyan,triangle
380.0,4.0,4.0,0.0,2.0,2.0,228.7332450505346,1.0,1.0,part_1,,,,,,,,,,,,,yellow,flipped triangle
0.0,8.0,0.0,1.0,2.0,2.0,282.358870957978,1.0,1.0,part_1,,,,,,,,,,,,,orange,I
0.0,5.0,0.0,1.0,2.0,2.0,252.38560501020402,1.0,1.0,part_1,,,,,,,,,,,,,cyan,triangle
66.0,1.0,1.0,0.0,1.0,1.0,220.1194049557671,1.0,1.0,part_1,,,,,,,,,,,,,magenta,diamond
32.0,5.0,1.0,1.0,2.0,2.0,288.7085520196706,1.0,1.0,part_1,,,,,,,,,,,,,cyan,triangle
386.0,8.0,4.0,1.0,2.0,2.0,251.2386719463393,1.0,1.0,part_1,,,,,,,,,,,,,orange,I
87.0,2.0,2.0,0.0,1.0,1.0,231.5601849695667,1.0,1.0,part_1,,,,,,,,,,,,,white,cross
41.0,5.0,1.0,1.0,1.0,1.0,236.8353300262242,1.0,1.0,part_1,,,,,,,,,,,,,cyan,triangle
101.0,2.0,2.0,0.0,2.0,2.0,264.9801369989291,1.0,1.0,part_1,,,,,,,,,,,,,white,cross
101.0,6.0,2.0,1.0,2.0,2.0,264.7869100328535,1.0,1.0,part_1,,,,,,,,,,,,,gray,circle
200.0,7.0,3.0,1.0,3.0,3.0,281.2103750184178,1.0,2.0,part_1,,,,,,,,,,,,,blue,square
0.0,6.0,0.0,1.0,3.0,3.0,316.4135600673035,1.0,1.0,part_1,,,,,,,,,,,,,gray,circle
0.0,1.0,0.0,0.0,4.0,4.0,289.160136017017,1.0,1.0,part_1,,,,,,,,,,,,,magenta,diamond
222.0,3.0,3.0,0.0,2.0,2.0,237.0691279647871,1.0,1.0,part_1,,,,,,,,,,,,,green,hexagon
0.0,3.0,0.0,0.0,3.0,3.0,205.3570749703794,1.0,1.0,part_1,,,,,,,,,,,,,green,hexagon
202.0,7.0,3.0,1.0,1.0,1.0,218.1675370084121,1.0,1.0,part_1,,,,,,,,,,,,,blue,square
0.0,6.0,0.0,1.0,3.0,3.0,221.3454329175874,1.0,1.0,part_1,,,,,,,,,,,,,gray,circle
0.0,7.0,0.0,1.0,1.0,1.0,265.8215019619092,1.0,1.0,part_1,,,,,,,,,,,,,blue,square
196.0,3.0,3.0,0.0,2.0,2.0,244.8824429884553,1.0,1.0,part_1,,,,,,,,,,,,,green,hexagon
205.0,7.0,3.0,1.0,1.0,1.0,244.6890260325744,1.0,1.0,part_1,,,,,,,,,,,,,blue,square
66.0,1.0,1.0,0.0,1.0,1.0,253.600426018238,1.0,1.0,part_1,,,,,,,,,,,,,magenta,diamond
79.0,6.0,2.0,1.0,3.0,3.0,260.758020915091,1.0,1.0,part_1,,,,,,,,,,,,,gray,circle
0.0,2.0,0.0,0.0,3.0,3.0,313.9020149828866,1.0,1.0,part_1,,,,,,,,,,,,,white,cross
122.0,6.0,2.0,1.0,1.0,1.0,260.8879880281165,1.0,1.0,part_1,,,,,,,,,,,,,gray,circle
0.0,6.0,0.0,1.0,4.0,4.0,264.704487985,1.0,1.0,part_1,,,,,,,,,,,,,gray,circle
113.0,2.0,2.0,0.0,4.0,4.0,262.91759905871,1.0,2.0,part_1,,,,,,,,,,,,,white,cross
378.0,4.0,4.0,0.0,1.0,1.0,232.2242429945618,1.0,1.0,part_1,,,,,,,,,,,,,yellow,flipped triangle
36.0,5.0,1.0,1.0,3.0,3.0,251.47617293987417,1.0,1.0,part_1,,,,,,,,,,,,,cyan,triangle
222.0,3.0,3.0,0.0,3.0,3.0,272.2310660174116,1.0,1.0,part_1,,,,,,,,,,,,,green,hexagon
71.0,1.0,1.0,0.0,2.0,2.0,276.6224639490247,1.0,1.0,part_1,,,,,,,,,,,,,magenta,diamond
378.0,8.0,4.0,1.0,2.0,2.0,265.0645340327173,1.0,1.0,part_1,,,,,,,,,,,,,orange,I
0.0,2.0,0.0,0.0,1.0,1.0,256.1521540628746,1.0,1.0,part_1,,,,,,,,,,,,,white,cross
49.0,5.0,1.0,1.0,1.0,1.0,243.6327909817919,1.0,1.0,part_1,,,,,,,,,,,,,cyan,triangle
53.0,1.0,1.0,0.0,1.0,1.0,255.4524830775335,1.0,1.0,part_1,,,,,,,,,,,,,magenta,diamond
31.0,1.0,1.0,0.0,1.0,1.0,243.9578080084175,1.0,1.0,part_1,,,,,,,,,,,,,magenta,diamond
29.0,1.0,1.0,0.0,3.0,3.0,273.5176569549367,1.0,1.0,part_1,,,,,,,,,,,,,magenta,diamond
187.0,7.0,3.0,1.0,4.0,4.0,294.1592200659215,1.0,1.0,part_1,,,,,,,,,,,,,blue,square
26.0,1.0,1.0,0.0,4.0,4.0,262.2024040902033,1.0,1.0,part_1,,,,,,,,,,,,,magenta,diamond
79.0,2.0,2.0,0.0,1.0,1.0,233.2293490180745,1.0,1.0,part_1,,,,,,,,,,,,,white,cross
73.0,1.0,1.0,0.0,4.0,4.0,284.3688649591058,1.0,1.0,part_1,,,,,,,,,,,,,magenta,diamond
91.0,2.0,2.0,0.0,1.0,1.0,220.1223040465265,1.0,1.0,part_1,,,,,,,,,,,,,white,cross
113.0,2.0,2.0,0.0,3.0,3.0,285.4996119858697,1.0,1.0,part_1,,,,,,,,,,,,,white,cross
420.0,4.0,4.0,0.0,2.0,2.0,283.5026000393554,1.0,1.0,part_1,,,,,,,,,,,,,yellow,flipped triangle
178.0,7.0,3.0,1.0,2.0,2.0,305.0243620527908,1.0,1.0,part_1,,,,,,,,,,,,,blue,square
417.0,8.0,4.0,1.0,3.0,3.0,277.4418579647317,1.0,1.0,part_1,,,,,,,,,,,,,orange,I
0.0,6.0,0.0,1.0,4.0,4.0,297.5506769726053,1.0,1.0,part_1,,,,,,,,,,,,,gray,circle
0.0,3.0,0.0,0.0,2.0,2.0,267.9970859317109,1.0,1.0,part_1,,,,,,,,,,,,,green,hexagon
413.0,4.0,4.0,0.0,2.0,2.0,240.9825359936803,1.0,2.0,part_1,,,,,,,,,,,,,yellow,flipped triangle
385.0,8.0,4.0,1.0,1.0,1.0,293.9388619270175,1.0,1.0,part_1,,,,,,,,,,,,,orange,I
73.0,5.0,1.0,1.0,2.0,2.0,271.7240459751338,1.0,1.0,part_1,,,,,,,,,,,,,cyan,triangle
0.0,4.0,0.0,0.0,3.0,3.0,267.6915720803663,1.0,1.0,part_1,,,,,,,,,,,,,yellow,flipped triangle
0.0,4.0,0.0,0.0,1.0,1.0,227.6498710270971,1.0,1.0,part_1,,,,,,,,,,,,,yellow,flipped triangle
25.0,1.0,1.0,0.0,3.0,3.0,288.1355130812153,1.0,1.0,part_1,,,,,,,,,,,,,magenta,diamond
216.0,7.0,3.0,1.0,4.0,4.0,277.0566559629515,1.0,1.0,part_1,,,,,,,,,,,,,blue,square
113.0,6.0,2.0,1.0,2.0,2.0,256.6532879136503,1.0,1.0,part_1,,,,,,,,,,,,,gray,circle
120.0,2.0,2.0,0.0,1.0,1.0,259.9192570196464,1.0,1.0,part_1,,,,,,,,,,,,,white,cross
0.0,2.0,0.0,0.0,2.0,2.0,243.8164110062644,1.0,1.0,part_1,,,,,,,,,,,,,white,cross
98.0,2.0,2.0,0.0,1.0,1.0,224.0764430025592,1.0,1.0,part_1,,,,,,,,,,,,,white,cross
0.0,1.0,0.0,0.0,4.0,4.0,267.2293230425566,1.0,1.0,part_1,,,,,,,,,,,,,magenta,diamond
0.0,1.0,0.0,0.0,1.0,1.0,254.8213190166279,1.0,1.0,part_1,,,,,,,,,,,,,magenta,diamond
32.0,1.0,1.0,0.0,4.0,4.0,259.5441630110144,1.0,1.0,part_1,,,,,,,,,,,,,magenta,diamond
41.0,1.0,1.0,0.0,3.0,3.0,280.1343589089811,1.0,2.0,part_1,,,,,,,,,,,,,magenta,diamond
64.0,5.0,1.0,1.0,3.0,3.0,276.0982760228216,1.0,1.0,part_1,,,,,,,,,,,,,cyan,triangle
0.0,2.0,0.0,0.0,1.0,1.0,232.4813499581068,1.0,1.0,part_1,,,,,,,,,,,,,white,cross
53.0,5.0,1.0,1.0,4.0,4.0,260.4161719791591,1.0,1.0,part_1,,,,,,,,,,,,,cyan,triangle
212.0,3.0,3.0,0.0,2.0,2.0,272.7060699835419,1.0,1.0,part_1,,,,,,,,,,,,,green,hexagon
0.0,4.0,0.0,0.0,4.0,4.0,251.30761100444943,1.0,1.0,part_1,,,,,,,,,,,,,yellow,flipped triangle
36.0,1.0,1.0,0.0,2.0,2.0,264.5367410732433,1.0,1.0,part_1,,,,,,,,,,,,,magenta,diamond
58.0,5.0,1.0,1.0,2.0,2.0,284.6682469826191,1.0,1.0,part_1,,,,,,,,,,,,,cyan,triangle
0.0,5.0,0.0,1.0,3.0,3.0,292.8039319813251,1.0,1.0,part_1,,,,,,,,,,,,,cyan,triangle
0.0,6.0,0.0,1.0,2.0,2.0,240.4005690477788,1.0,1.0,part_1,,,,,,,,,,,,,gray,circle
406.0,4.0,4.0,0.0,1.0,1.0,211.3685960648581,1.0,1.0,part_1,,,,,,,,,,,,,yellow,flipped triangle
402.0,8.0,4.0,1.0,1.0,1.0,322.6084199268371,1.0,1.0,part_1,,,,,,,,,,,,,orange,I
419.0,4.0,4.0,0.0,1.0,1.0,252.21190403681248,1.0,1.0,part_1,,,,,,,,,,,,,yellow,flipped triangle
0.0,4.0,0.0,0.0,2.0,2.0,300.6871120305732,1.0,1.0,part_1,,,,,,,,,,,,,yellow,flipped triangle
222.0,7.0,3.0,1.0,4.0,4.0,279.961097985506,1.0,1.0,part_1,,,,,,,,,,,,,blue,square
66.0,5.0,1.0,1.0,2.0,2.0,260.3415529010817,1.0,1.0,part_1,,,,,,,,,,,,,cyan,triangle
109.0,2.0,2.0,0.0,3.0,3.0,263.7357789790258,1.0,1.0,part_1,,,,,,,,,,,,,white,cross
66.0,5.0,1.0,1.0,4.0,4.0,300.3541920334101,1.0,1.0,part_1,,,,,,,,,,,,,cyan,triangle
86.0,2.0,2.0,0.0,2.0,2.0,240.5094959540292,1.0,1.0,part_1,,,,,,,,,,,,,white,cross
103.0,2.0,2.0,0.0,2.0,2.0,276.6274199821055,1.0,1.0,part_1,,,,,,,,,,,,,white,cross
62.0,5.0,1.0,1.0,1.0,1.0,235.3063130285591,1.0,1.0,part_1,,,,,,,,,,,,,cyan,triangle
98.0,6.0,2.0,1.0,4.0,4.0,296.7046439880505,1.0,1.0,part_1,,,,,,,,,,,,,gray,circle
183.0,7.0,3.0,1.0,2.0,2.0,235.8168300706893,1.0,1.0,part_1,,,,,,,,,,,,,blue,square
401.0,4.0,4.0,0.0,4.0,4.0,333.3230930147692,1.0,2.0,part_1,,,,,,,,,,,,,yellow,flipped triangle
177.0,7.0,3.0,1.0,2.0,2.0,249.4000949664041,1.0,1.0,part_1,,,,,,,,,,,,,blue,square
42.0,5.0,1.0,1.0,1.0,1.0,231.6943990299478,1.0,1.0,part_1,,,,,,,,,,,,,cyan,triangle
195.0,7.0,3.0,1.0,1.0,1.0,241.2517339689657,1.0,2.0,part_1,,,,,,,,,,,,,blue,square
187.0,3.0,3.0,0.0,4.0,4.0,309.663483989425,1.0,1.0,part_1,,,,,,,,,,,,,green,hexagon
210.0,3.0,3.0,0.0,1.0,1.0,232.5589749962091,1.0,1.0,part_1,,,,,,,,,,,,,green,hexagon
0.0,6.0,0.0,1.0,2.0,2.0,297.1502490108832,1.0,1.0,part_1,,,,,,,,,,,,,gray,circle
0.0,3.0,0.0,0.0,1.0,1.0,219.9201789917424,1.0,1.0,part_1,,,,,,,,,,,,,green,hexagon
0.0,3.0,0.0,0.0,2.0,2.0,281.8338789511472,1.0,1.0,part_1,,,,,,,,,,,,,green,hexagon
27.0,1.0,1.0,0.0,2.0,2.0,277.5058069964871,1.0,1.0,part_1,,,,,,,,,,,,,magenta,diamond
31.0,5.0,1.0,1.0,1.0,1.0,345.3113699797541,2.0,1.0,part_1,,,,,,,,,,,,,cyan,triangle
0.0,8.0,0.0,1.0,2.0,2.0,244.9258939595893,2.0,1.0,part_1,,,,,,,,,,,,,orange,I
195.0,3.0,3.0,0.0,4.0,4.0,266.2827030289918,2.0,1.0,part_1,,,,,,,,,,,,,green,hexagon
124.0,2.0,2.0,0.0,3.0,3.0,266.0116769839078,2.0,1.0,part_1,,,,,,,,,,,,,white,cross
186.0,7.0,3.0,1.0,1.0,1.0,245.8372709807008,2.0,1.0,part_1,,,,,,,,,,,,,blue,square
0.0,7.0,0.0,1.0,2.0,2.0,215.3550169896334,2.0,1.0,part_1,,,,,,,,,,,,,blue,square
25.0,5.0,1.0,1.0,4.0,4.0,268.3787619462237,2.0,1.0,part_1,,,,,,,,,,,,,cyan,triangle
91.0,6.0,2.0,1.0,2.0,2.0,250.8511568885296,2.0,1.0,part_1,,,,,,,,,,,,,gray,circle
180.0,3.0,3.0,0.0,2.0,2.0,239.6494129206985,2.0,1.0,part_1,,,,,,,,,,,,,green,hexagon
114.0,6.0,2.0,1.0,3.0,3.0,268.5425470117479,2.0,1.0,part_1,,,,,,,,,,,,,gray,circle
0.0,8.0,0.0,1.0,1.0,1.0,191.0355610307306,2.0,1.0,part_1,,,,,,,,,,,,,orange,I
49.0,1.0,1.0,0.0,2.0,2.0,220.6733209313824,2.0,1.0,part_1,,,,,,,,,,,,,magenta,diamond
186.0,3.0,3.0,0.0,1.0,1.0,186.4087170688435,2.0,1.0,part_1,,,,,,,,,,,,,green,hexagon
122.0,6.0,2.0,1.0,2.0,2.0,237.4847829341888,2.0,1.0,part_1,,,,,,,,,,,,,gray,circle
224.0,3.0,3.0,0.0,4.0,4.0,334.3327919719741,2.0,2.0,part_1,,,,,,,,,,,,,green,hexagon
0.0,8.0,0.0,1.0,2.0,2.0,340.3029550099745,2.0,1.0,part_1,,,,,,,,,,,,,orange,I
27.0,5.0,1.0,1.0,2.0,2.0,274.460667045787,2.0,1.0,part_1,,,,,,,,,,,,,cyan,triangle
397.0,8.0,4.0,1.0,3.0,3.0,312.5901559833437,2.0,1.0,part_1,,,,,,,,,,,,,orange,I
43.0,1.0,1.0,0.0,3.0,3.0,256.9619549904018,2.0,1.0,part_1,,,,,,,,,,,,,magenta,diamond
406.0,4.0,4.0,0.0,1.0,1.0,260.6446469435468,2.0,2.0,part_1,,,,,,,,,,,,,yellow,flipped triangle
103.0,6.0,2.0,1.0,3.0,3.0,297.3984470590949,2.0,1.0,part_1,,,,,,,,,,,,,gray,circle
391.0,4.0,4.0,0.0,4.0,4.0,284.4140060478821,2.0,1.0,part_1,,,,,,,,,,,,,yellow,flipped triangle
182.0,3.0,3.0,0.0,4.0,4.0,280.4685219889506,2.0,1.0,part_1,,,,,,,,,,,,,green,hexagon
191.0,7.0,3.0,1.0,3.0,3.0,265.5547800241038,2.0,1.0,part_1,,,,,,,,,,,,,blue,square
0.0,3.0,0.0,0.0,2.0,2.0,244.8067290242761,2.0,1.0,part_1,,,,,,,,,,,,,green,hexagon
388.0,8.0,4.0,1.0,3.0,3.0,286.5258880192414,2.0,1.0,part_1,,,,,,,,,,,,,orange,I
102.0,2.0,2.0,0.0,4.0,4.0,260.09789702948177,2.0,1.0,part_1,,,,,,,,,,,,,white,cross
0.0,5.0,0.0,1.0,2.0,2.0,256.3866530545056,2.0,1.0,part_1,,,,,,,,,,,,,cyan,triangle
0.0,2.0,0.0,0.0,1.0,1.0,223.3652069699019,2.0,1.0,part_1,,,,,,,,,,,,,white,cross
183.0,3.0,3.0,0.0,4.0,4.0,268.8822889467701,2.0,1.0,part_1,,,,,,,,,,,,,green,hexagon
408.0,8.0,4.0,1.0,3.0,3.0,312.9175649955868,2.0,1.0,part_1,,,,,,,,,,,,,orange,I
0.0,2.0,0.0,0.0,1.0,1.0,235.0509989773854,2.0,1.0,part_1,,,,,,,,,,,,,white,cross
204.0,7.0,3.0,1.0,2.0,2.0,238.9912790386006,2.0,1.0,part_1,,,,,,,,,,,,,blue,square
30.0,5.0,1.0,1.0,3.0,3.0,308.1512259086594,2.0,1.0,part_1,,,,,,,,,,,,,cyan,triangle
425.0,4.0,4.0,0.0,4.0,4.0,308.5246039554477,2.0,1.0,part_1,,,,,,,,,,,,,yellow,flipped triangle
43.0,5.0,1.0,1.0,4.0,4.0,303.6913969554007,2.0,1.0,part_1,,,,,,,,,,,,,cyan,triangle
115.0,6.0,2.0,1.0,3.0,3.0,275.2023570938036,2.0,1.0,part_1,,,,,,,,,,,,,gray,circle
115.0,2.0,2.0,0.0,4.0,4.0,303.0751859769225,2.0,1.0,part_1,,,,,,,,,,,,,white,cross
396.0,8.0,4.0,1.0,3.0,3.0,300.0791230006143,2.0,1.0,part_1,,,,,,,,,,,,,orange,I
417.0,4.0,4.0,0.0,3.0,3.0,305.1153570413589,2.0,1.0,part_1,,,,,,,,,,,,,yellow,flipped triangle
75.0,1.0,1.0,0.0,4.0,4.0,280.1049520494416,2.0,1.0,part_1,,,,,,,,,,,,,magenta,diamond
0.0,6.0,0.0,1.0,4.0,4.0,308.2234369358048,2.0,1.0,part_1,,,,,,,,,,,,,gray,circle
54.0,1.0,1.0,0.0,1.0,1.0,280.3986000362783,2.0,1.0,part_1,,,,,,,,,,,,,magenta,diamond
210.0,7.0,3.0,1.0,4.0,4.0,227.5365049717947,2.0,1.0,part_1,,,,,,,,,,,,,blue,square
87.0,2.0,2.0,0.0,2.0,2.0,247.5533010438084,2.0,1.0,part_1,,,,,,,,,,,,,white,cross
58.0,1.0,1.0,0.0,1.0,1.0,231.4790480304509,2.0,1.0,part_1,,,,,,,,,,,,,magenta,diamond
388.0,4.0,4.0,0.0,2.0,2.0,258.8557979324832,2.0,1.0,part_1,,,,,,,,,,,,,yellow,flipped triangle
94.0,2.0,2.0,0.0,2.0,2.0,271.7556999996304,2.0,1.0,part_1,,,,,,,,,,,,,white,cross
38.0,1.0,1.0,0.0,4.0,4.0,309.5813409890979,2.0,1.0,part_1,,,,,,,,,,,,,magenta,diamond
0.0,6.0,0.0,1.0,1.0,1.0,257.1282850112766,2.0,1.0,part_1,,,,,,,,,,,,,gray,circle
413.0,8.0,4.0,1.0,2.0,2.0,260.0157120032236,2.0,1.0,part_1,,,,,,,,,,,,,orange,I
54.0,5.0,1.0,1.0,4.0,4.0,306.0890899505466,2.0,1.0,part_1,,,,,,,,,,,,,cyan,triangle
81.0,6.0,2.0,1.0,1.0,1.0,245.947708026506,2.0,1.0,part_1,,,,,,,,,,,,,gray,circle
385.0,4.0,4.0,0.0,1.0,1.0,325.0038140686229,2.0,1.0,part_1,,,,,,,,,,,,,yellow,flipped triangle
380.0,8.0,4.0,1.0,3.0,3.0,342.7208740031346,2.0,1.0,part_1,,,,,,,,,,,,,orange,I
53.0,1.0,1.0,0.0,4.0,4.0,285.4281991021707,2.0,1.0,part_1,,,,,,,,,,,,,magenta,diamond
425.0,8.0,4.0,1.0,1.0,1.0,231.6232220036909,2.0,1.0,part_1,,,,,,,,,,,,,orange,I
395.0,4.0,4.0,0.0,2.0,2.0,278.7627780344337,2.0,1.0,part_1,,,,,,,,,,,,,yellow,flipped triangle
71.0,5.0,1.0,1.0,1.0,1.0,227.2688129451125,2.0,1.0,part_1,,,,,,,,,,,,,cyan,triangle
386.0,4.0,4.0,0.0,1.0,1.0,231.5738330362364,2.0,1.0,part_1,,,,,,,,,,,,,yellow,flipped triangle
122.0,2.0,2.0,0.0,3.0,3.0,293.49721793551,2.0,1.0,part_1,,,,,,,,,,,,,white,cross
401.0,8.0,4.0,1.0,3.0,3.0,303.6839860724285,2.0,1.0,part_1,,,,,,,,,,,,,orange,I
116.0,6.0,2.0,1.0,1.0,1.0,255.6036779424175,2.0,1.0,part_1,,,,,,,,,,,,,gray,circle
0.0,3.0,0.0,0.0,1.0,1.0,220.6750829936936,2.0,1.0,part_1,,,,,,,,,,,,,green,hexagon
0.0,8.0,0.0,1.0,3.0,3.0,297.2537910100072,2.0,1.0,part_1,,,,,,,,,,,,,orange,I
106.0,6.0,2.0,1.0,4.0,4.0,276.0828320169821,2.0,1.0,part_1,,,,,,,,,,,,,gray,circle
188.0,7.0,3.0,1.0,2.0,2.0,238.4580520447343,2.0,1.0,part_1,,,,,,,,,,,,,blue,square
376.0,4.0,4.0,0.0,2.0,2.0,259.962443029508,2.0,1.0,part_1,,,,,,,,,,,,,yellow,flipped triangle
122.0,2.0,2.0,0.0,4.0,4.0,268.1048479862511,2.0,1.0,part_1,,,,,,,,,,,,,white,cross
80.0,6.0,2.0,1.0,2.0,2.0,216.1490300204605,2.0,1.0,part_1,,,,,,,,,,,,,gray,circle
45.0,5.0,1.0,1.0,2.0,2.0,260.1339259417727,2.0,1.0,part_1,,,,,,,,,,,,,cyan,triangle
0.0,4.0,0.0,0.0,3.0,3.0,289.7968100151047,2.0,1.0,part_1,,,,,,,,,,,,,yellow,flipped triangle
78.0,6.0,2.0,1.0,4.0,4.0,308.9773249812424,2.0,1.0,part_1,,,,,,,,,,,,,gray,circle
400.0,8.0,4.0,1.0,2.0,2.0,216.0003390163183,2.0,1.0,part_1,,,,,,,,,,,,,orange,I
0.0,4.0,0.0,0.0,4.0,4.0,277.8141800081357,2.0,1.0,part_1,,,,,,,,,,,,,yellow,flipped triangle
120.0,6.0,2.0,1.0,2.0,2.0,204.2261849856004,2.0,1.0,part_1,,,,,,,,,,,,,gray,circle
74.0,5.0,1.0,1.0,1.0,1.0,277.5192100089043,2.0,1.0,part_1,,,,,,,,,,,,,cyan,triangle
209.0,3.0,3.0,0.0,3.0,3.0,269.368696026504,2.0,1.0,part_1,,,,,,,,,,,,,green,hexagon
94.0,6.0,2.0,1.0,3.0,3.0,313.4195050224662,2.0,1.0,part_1,,,,,,,,,,,,,gray,circle
0.0,2.0,0.0,0.0,1.0,1.0,236.4901109831407,2.0,1.0,part_1,,,,,,,,,,,,,white,cross
0.0,6.0,0.0,1.0,2.0,2.0,219.3756470223888,2.0,1.0,part_1,,,,,,,,,,,,,gray,circle
0.0,5.0,0.0,1.0,4.0,4.0,225.3325040219351,2.0,1.0,part_1,,,,,,,,,,,,,cyan,triangle
103.0,6.0,2.0,1.0,4.0,4.0,297.9929430875927,2.0,1.0,part_1,,,,,,,,,,,,,gray,circle
78.0,2.0,2.0,0.0,1.0,1.0,231.5703900530934,2.0,1.0,part_1,,,,,,,,,,,,,white,cross
0.0,3.0,0.0,0.0,3.0,3.0,263.6814730940386,2.0,2.0,part_1,,,,,,,,,,,,,green,hexagon
217.0,7.0,3.0,1.0,4.0,4.0,277.1874620812014,2.0,1.0,part_1,,,,,,,,,,,,,blue,square
389.0,8.0,4.0,1.0,3.0,3.0,276.8587709870189,2.0,1.0,part_1,,,,,,,,,,,,,orange,I
115.0,2.0,2.0,0.0,2.0,2.0,264.7488750517368,2.0,1.0,part_1,,,,,,,,,,,,,white,cross
380.0,4.0,4.0,0.0,4.0,4.0,236.3591219764202,2.0,1.0,part_1,,,,,,,,,,,,,yellow,flipped triangle
206.0,3.0,3.0,0.0,1.0,1.0,207.1666530100628,2.0,1.0,part_1,,,,,,,,,,,,,green,hexagon
38.0,1.0,1.0,0.0,4.0,4.0,277.9490230605006,2.0,1.0,part_1,,,,,,,,,,,,,magenta,diamond
84.0,6.0,2.0,1.0,4.0,4.0,281.4040739322081,2.0,1.0,part_1,,,,,,,,,,,,,gray,circle
92.0,2.0,2.0,0.0,3.0,3.0,358.0184330930933,2.0,1.0,part_1,,,,,,,,,,,,,white,cross
113.0,6.0,2.0,1.0,2.0,2.0,289.9926040554419,2.0,1.0,part_1,,,,,,,,,,,,,gray,circle
53.0,5.0,1.0,1.0,3.0,3.0,257.5933679472655,2.0,1.0,part_1,,,,,,,,,,,,,cyan,triangle
42.0,1.0,1.0,0.0,2.0,2.0,309.6047959988937,2.0,1.0,part_1,,,,,,,,,,,,,magenta,diamond
412.0,8.0,4.0,1.0,1.0,1.0,280.8698449516669,2.0,1.0,part_1,,,,,,,,,,,,,orange,I
209.0,7.0,3.0,1.0,2.0,2.0,262.3013419797644,2.0,1.0,part_1,,,,,,,,,,,,,blue,square
206.0,7.0,3.0,1.0,3.0,3.0,265.5321670463308,2.0,1.0,part_1,,,,,,,,,,,,,blue,square
415.0,4.0,4.0,0.0,3.0,3.0,277.9740780824795,2.0,1.0,part_1,,,,,,,,,,,,,yellow,flipped triangle
53.0,1.0,1.0,0.0,3.0,3.0,318.228533025831,3.0,1.0,part_1,,,,,,,,,,,,,magenta,diamond
214.0,7.0,3.0,1.0,2.0,2.0,228.3818229334429,3.0,1.0,part_1,,,,,,,,,,,,,blue,square
212.0,3.0,3.0,0.0,2.0,2.0,231.026723049581,3.0,1.0,part_1,,,,,,,,,,,,,green,hexagon
177.0,3.0,3.0,0.0,3.0,3.0,260.6623090105131,3.0,1.0,part_1,,,,,,,,,,,,,green,hexagon
53.0,5.0,1.0,1.0,1.0,1.0,223.8741969922557,3.0,1.0,part_1,,,,,,,,,,,,,cyan,triangle
38.0,5.0,1.0,1.0,4.0,4.0,253.5437480546534,3.0,1.0,part_1,,,,,,,,,,,,,cyan,triangle
0.0,2.0,0.0,0.0,1.0,1.0,195.4957790439948,3.0,1.0,part_1,,,,,,,,,,,,,white,cross
0.0,5.0,0.0,1.0,3.0,3.0,327.1440629614517,3.0,1.0,part_1,,,,,,,,,,,,,cyan,triangle
87.0,6.0,2.0,1.0,2.0,2.0,289.6759019931778,3.0,1.0,part_1,,,,,,,,,,,,,gray,circle
0.0,8.0,0.0,1.0,3.0,3.0,272.4100830964744,3.0,1.0,part_1,,,,,,,,,,,,,orange,I
212.0,7.0,3.0,1.0,1.0,1.0,211.6679750615731,3.0,1.0,part_1,,,,,,,,,,,,,blue,square
196.0,7.0,3.0,1.0,3.0,3.0,243.9084369689226,3.0,1.0,part_1,,,,,,,,,,,,,blue,square
0.0,8.0,0.0,1.0,1.0,1.0,268.626544973813,3.0,1.0,part_1,,,,,,,,,,,,,orange,I
45.0,1.0,1.0,0.0,3.0,3.0,260.8962910016998,3.0,1.0,part_1,,,,,,,,,,,,,magenta,diamond
26.0,5.0,1.0,1.0,1.0,1.0,256.8070149281993,3.0,1.0,part_1,,,,,,,,,,,,,cyan,triangle
96.0,2.0,2.0,0.0,4.0,4.0,253.823152044788,3.0,1.0,part_1,,,,,,,,,,,,,white,cross
217.0,3.0,3.0,0.0,4.0,4.0,264.2711610533297,3.0,1.0,part_1,,,,,,,,,,,,,green,hexagon
391.0,8.0,4.0,1.0,1.0,1.0,204.1582730598747,3.0,1.0,part_1,,,,,,,,,,,,,orange,I
0.0,5.0,0.0,1.0,1.0,1.0,236.526894965209,3.0,1.0,part_1,,,,,,,,,,,,,cyan,triangle
123.0,2.0,2.0,0.0,4.0,4.0,285.2558160666376,3.0,1.0,part_1,,,,,,,,,,,,,white,cross
222.0,7.0,3.0,1.0,3.0,3.0,261.2762559438124,3.0,1.0,part_1,,,,,,,,,,,,,blue,square
378.0,8.0,4.0,1.0,4.0,4.0,314.3620740156621,3.0,1.0,part_1,,,,,,,,,,,,,orange,I
75.0,5.0,1.0,1.0,4.0,4.0,301.6849120613187,3.0,1.0,part_1,,,,,,,,,,,,,cyan,triangle
105.0,2.0,2.0,0.0,2.0,2.0,257.0310999872163,3.0,1.0,part_1,,,,,,,,,,,,,white,cross
404.0,4.0,4.0,0.0,4.0,4.0,262.8286570543423,3.0,1.0,part_1,,,,,,,,,,,,,yellow,flipped triangle
123.0,6.0,2.0,1.0,4.0,4.0,265.4031589627266,3.0,1.0,part_1,,,,,,,,,,,,,gray,circle
378.0,4.0,4.0,0.0,3.0,3.0,241.264002979733,3.0,1.0,part_1,,,,,,,,,,,,,yellow,flipped triangle
92.0,6.0,2.0,1.0,1.0,1.0,195.6260580336675,3.0,1.0,part_1,,,,,,,,,,,,,gray,circle
113.0,6.0,2.0,1.0,3.0,3.0,255.86951000150287,3.0,1.0,part_1,,,,,,,,,,,,,gray,circle
115.0,6.0,2.0,1.0,3.0,3.0,325.9704919764772,3.0,1.0,part_1,,,,,,,,,,,,,gray,circle
0.0,8.0,0.0,1.0,2.0,2.0,281.4482470275834,3.0,1.0,part_1,,,,,,,,,,,,,orange,I
30.0,1.0,1.0,0.0,2.0,2.0,256.1319830128923,3.0,1.0,part_1,,,,,,,,,,,,,magenta,diamond
105.0,6.0,2.0,1.0,1.0,1.0,244.6043470408767,3.0,1.0,part_1,,,,,,,,,,,,,gray,circle
203.0,7.0,3.0,1.0,1.0,1.0,297.1037140814587,3.0,1.0,part_1,,,,,,,,,,,,,blue,square
38.0,5.0,1.0,1.0,2.0,2.0,243.8897499814629,3.0,1.0,part_1,,,,,,,,,,,,,cyan,triangle
124.0,6.0,2.0,1.0,1.0,1.0,235.0915180286392,3.0,1.0,part_1,,,,,,,,,,,,,gray,circle
190.0,7.0,3.0,1.0,3.0,3.0,279.4737629592418,3.0,1.0,part_1,,,,,,,,,,,,,blue,square
45.0,1.0,1.0,0.0,1.0,1.0,218.120435019955,3.0,1.0,part_1,,,,,,,,,,,,,magenta,diamond
0.0,5.0,0.0,1.0,2.0,2.0,231.0171109857037,3.0,1.0,part_1,,,,,,,,,,,,,cyan,triangle
86.0,6.0,2.0,1.0,1.0,1.0,267.929398920387,3.0,1.0,part_1,,,,,,,,,,,,,gray,circle
79.0,2.0,2.0,0.0,2.0,2.0,256.0782430227846,3.0,1.0,part_1,,,,,,,,,,,,,white,cross
188.0,3.0,3.0,0.0,3.0,3.0,276.5242590103298,3.0,1.0,part_1,,,,,,,,,,,,,green,hexagon
224.0,7.0,3.0,1.0,2.0,2.0,245.1125469524413,3.0,1.0,part_1,,,,,,,,,,,,,blue,square
108.0,6.0,2.0,1.0,3.0,3.0,287.6225400250405,3.0,1.0,part_1,,,,,,,,,,,,,gray,circle
200.0,3.0,3.0,0.0,3.0,3.0,267.2413359396159,3.0,1.0,part_1,,,,,,,,,,,,,green,hexagon
26.0,5.0,1.0,1.0,3.0,3.0,228.0397920403629,3.0,2.0,part_1,,,,,,,,,,,,,cyan,triangle
0.0,1.0,0.0,0.0,3.0,3.0,300.8137749275192,3.0,1.0,part_1,,,,,,,,,,,,,magenta,diamond
217.0,7.0,3.0,1.0,3.0,3.0,454.1022899793461,3.0,1.0,part_1,,,,,,,,,,,,,blue,square
0.0,1.0,0.0,0.0,3.0,3.0,212.3900019796565,3.0,1.0,part_1,,,,,,,,,,,,,magenta,diamond
79.0,6.0,2.0,1.0,4.0,4.0,287.5487030250951,3.0,1.0,part_1,,,,,,,,,,,,,gray,circle
116.0,2.0,2.0,0.0,1.0,1.0,227.8285269858315,3.0,1.0,part_1,,,,,,,,,,,,,white,cross
211.0,3.0,3.0,0.0,4.0,4.0,236.3792939577251,3.0,1.0,part_1,,,,,,,,,,,,,green,hexagon
419.0,8.0,4.0,1.0,4.0,4.0,240.0800740579143,3.0,1.0,part_1,,,,,,,,,,,,,orange,I
215.0,7.0,3.0,1.0,4.0,4.0,219.884710968472,3.0,1.0,part_1,,,,,,,,,,,,,blue,square
377.0,4.0,4.0,0.0,4.0,4.0,182.7879979973659,3.0,1.0,part_1,,,,,,,,,,,,,yellow,flipped triangle
72.0,1.0,1.0,0.0,3.0,3.0,259.565511951223,3.0,1.0,part_1,,,,,,,,,,,,,magenta,diamond
211.0,7.0,3.0,1.0,4.0,4.0,264.287746977061,3.0,1.0,part_1,,,,,,,,,,,,,blue,square
123.0,6.0,2.0,1.0,2.0,2.0,257.3246939573437,3.0,2.0,part_1,,,,,,,,,,,,,gray,circle
396.0,8.0,4.0,1.0,3.0,3.0,264.6435149945318,3.0,1.0,part_1,,,,,,,,,,,,,orange,I
60.0,5.0,1.0,1.0,3.0,3.0,251.15250598173589,3.0,1.0,part_1,,,,,,,,,,,,,cyan,triangle
409.0,8.0,4.0,1.0,4.0,4.0,234.6525120083242,3.0,1.0,part_1,,,,,,,,,,,,,orange,I
0.0,5.0,0.0,1.0,2.0,2.0,238.9112459495663,3.0,1.0,part_1,,,,,,,,,,,,,cyan,triangle
50.0,1.0,1.0,0.0,4.0,4.0,248.6990360775962,3.0,1.0,part_1,,,,,,,,,,,,,magenta,diamond
0.0,4.0,0.0,0.0,3.0,3.0,216.1581179825589,3.0,1.0,part_1,,,,,,,,,,,,,yellow,flipped triangle
0.0,2.0,0.0,0.0,4.0,4.0,219.6288648992777,3.0,1.0,part_1,,,,,,,,,,,,,white,cross
177.0,3.0,3.0,0.0,2.0,2.0,216.541459900327,3.0,1.0,part_1,,,,,,,,,,,,,green,hexagon
402.0,4.0,4.0,0.0,4.0,4.0,238.1007919320836,3.0,1.0,part_1,,,,,,,,,,,,,yellow,flipped triangle
210.0,7.0,3.0,1.0,4.0,4.0,249.7526709921658,3.0,1.0,part_1,,,,,,,,,,,,,blue,square
376.0,8.0,4.0,1.0,3.0,3.0,277.353503042832,3.0,1.0,part_1,,,,,,,,,,,,,orange,I
72.0,5.0,1.0,1.0,2.0,2.0,252.53518798854202,3.0,1.0,part_1,,,,,,,,,,,,,cyan,triangle
0.0,4.0,0.0,0.0,4.0,4.0,281.6819800063967,3.0,1.0,part_1,,,,,,,,,,,,,yellow,flipped triangle
207.0,3.0,3.0,0.0,3.0,3.0,219.8930570157244,3.0,1.0,part_1,,,,,,,,,,,,,green,hexagon
0.0,3.0,0.0,0.0,1.0,1.0,299.1877200547606,3.0,1.0,part_1,,,,,,,,,,,,,green,hexagon
0.0,8.0,0.0,1.0,1.0,1.0,268.6032790224999,3.0,1.0,part_1,,,,,,,,,,,,,orange,I
409.0,4.0,4.0,0.0,2.0,2.0,232.7122180722654,3.0,1.0,part_1,,,,,,,,,,,,,yellow,flipped triangle
424.0,4.0,4.0,0.0,4.0,4.0,183.2296740030869,3.0,1.0,part_1,,,,,,,,,,,,,yellow,flipped triangle
81.0,2.0,2.0,0.0,4.0,4.0,290.2701460989192,3.0,1.0,part_1,,,,,,,,,,,,,white,cross
0.0,1.0,0.0,0.0,3.0,3.0,233.2059640903026,3.0,1.0,part_1,,,,,,,,,,,,,magenta,diamond
0.0,4.0,0.0,0.0,1.0,1.0,235.419733915478,3.0,1.0,part_1,,,,,,,,,,,,,yellow,flipped triangle
80.0,2.0,2.0,0.0,4.0,4.0,241.7712910100817,3.0,1.0,part_1,,,,,,,,,,,,,white,cross
186.0,3.0,3.0,0.0,1.0,1.0,231.1360680032521,3.0,1.0,part_1,,,,,,,,,,,,,green,hexagon
98.0,2.0,2.0,0.0,1.0,1.0,222.7908290224149,3.0,2.0,part_1,,,,,,,,,,,,,white,cross
209.0,3.0,3.0,0.0,2.0,2.0,251.51633599307388,3.0,1.0,part_1,,,,,,,,,,,,,green,hexagon
217.0,3.0,3.0,0.0,2.0,2.0,247.8927359916269,3.0,1.0,part_1,,,,,,,,,,,,,green,hexagon
377.0,8.0,4.0,1.0,1.0,1.0,203.8490090053528,3.0,1.0,part_1,,,,,,,,,,,,,orange,I
113.0,2.0,2.0,0.0,3.0,3.0,264.121621963568,3.0,2.0,part_1,,,,,,,,,,,,,white,cross
78.0,2.0,2.0,0.0,1.0,1.0,196.110269986093,3.0,1.0,part_1,,,,,,,,,,,,,white,cross
75.0,5.0,1.0,1.0,3.0,3.0,306.9064279552549,3.0,1.0,part_1,,,,,,,,,,,,,cyan,triangle
29.0,5.0,1.0,1.0,3.0,3.0,317.6729950355366,3.0,1.0,part_1,,,,,,,,,,,,,cyan,triangle
0.0,1.0,0.0,0.0,3.0,3.0,236.0448399558663,3.0,1.0,part_1,,,,,,,,,,,,,magenta,diamond
78.0,6.0,2.0,1.0,2.0,2.0,309.4891529763117,3.0,1.0,part_1,,,,,,,,,,,,,gray,circle
389.0,4.0,4.0,0.0,3.0,3.0,236.2469339277595,3.0,1.0,part_1,,,,,,,,,,,,,yellow,flipped triangle
43.0,1.0,1.0,0.0,3.0,3.0,258.5462729912251,3.0,1.0,part_1,,,,,,,,,,,,,magenta,diamond
205.0,3.0,3.0,0.0,1.0,1.0,264.5762140164152,3.0,2.0,part_1,,,,,,,,,,,,,green,hexagon
187.0,3.0,3.0,0.0,2.0,2.0,220.5226130317896,3.0,1.0,part_1,,,,,,,,,,,,,green,hexagon
0.0,5.0,0.0,1.0,1.0,1.0,273.9797229878604,3.0,1.0,part_1,,,,,,,,,,,,,cyan,triangle
408.0,4.0,4.0,0.0,3.0,3.0,257.344388985075,3.0,1.0,part_1,,,,,,,,,,,,,yellow,flipped triangle
215.0,3.0,3.0,0.0,2.0,2.0,282.3350001126528,3.0,1.0,part_1,,,,,,,,,,,,,green,hexagon
178.0,3.0,3.0,0.0,4.0,4.0,280.6812960188836,3.0,3.0,part_1,,,,,,,,,,,,,green,hexagon
406.0,8.0,4.0,1.0,4.0,4.0,293.8280630623922,3.0,1.0,part_1,,,,,,,,,,,,,orange,I
72.0,1.0,1.0,0.0,1.0,1.0,231.6540440078824,4.0,1.0,part_1,,,,,,,,,,,,,magenta,diamond
40.0,1.0,1.0,0.0,4.0,4.0,230.1236690254882,4.0,1.0,part_1,,,,,,,,,,,,,magenta,diamond
420.0,8.0,4.0,1.0,1.0,1.0,249.8889900743961,4.0,1.0,part_1,,,,,,,,,,,,,orange,I
40.0,5.0,1.0,1.0,2.0,2.0,253.37209599092603,4.0,1.0,part_1,,,,,,,,,,,,,cyan,triangle
96.0,6.0,2.0,1.0,1.0,1.0,220.2551430091262,4.0,1.0,part_1,,,,,,,,,,,,,gray,circle
406.0,8.0,4.0,1.0,2.0,2.0,217.5469299545511,4.0,1.0,part_1,,,,,,,,,,,,,orange,I
207.0,7.0,3.0,1.0,4.0,4.0,269.6612740401178,4.0,1.0,part_1,,,,,,,,,,,,,blue,square
75.0,1.0,1.0,0.0,2.0,2.0,241.1409299820661,4.0,1.0,part_1,,,,,,,,,,,,,magenta,diamond
401.0,8.0,4.0,1.0,1.0,1.0,228.3567220438271,4.0,1.0,part_1,,,,,,,,,,,,,orange,I
0.0,7.0,0.0,1.0,4.0,4.0,241.7808669852093,4.0,1.0,part_1,,,,,,,,,,,,,blue,square
377.0,8.0,4.0,1.0,4.0,4.0,268.958333064802,4.0,2.0,part_1,,,,,,,,,,,,,orange,I
216.0,3.0,3.0,0.0,3.0,3.0,416.5042069507763,4.0,1.0,part_1,,,,,,,,,,,,,green,hexagon
0.0,6.0,0.0,1.0,4.0,4.0,275.6377769401297,4.0,1.0,part_1,,,,,,,,,,,,,gray,circle
177.0,7.0,3.0,1.0,1.0,1.0,285.5517810676247,4.0,2.0,part_1,,,,,,,,,,,,,blue,square
412.0,4.0,4.0,0.0,4.0,4.0,298.9620430162176,4.0,1.0,part_1,,,,,,,,,,,,,yellow,flipped triangle
108.0,2.0,2.0,0.0,4.0,4.0,242.0380420517176,4.0,1.0,part_1,,,,,,,,,,,,,white,cross
186.0,7.0,3.0,1.0,2.0,2.0,252.6703240582719,4.0,1.0,part_1,,,,,,,,,,,,,blue,square
74.0,5.0,1.0,1.0,4.0,4.0,241.6058550588786,4.0,1.0,part_1,,,,,,,,,,,,,cyan,triangle
109.0,6.0,2.0,1.0,1.0,1.0,252.4522229796275,4.0,1.0,part_1,,,,,,,,,,,,,gray,circle
400.0,4.0,4.0,0.0,3.0,3.0,233.687067986466,4.0,1.0,part_1,,,,,,,,,,,,,yellow,flipped triangle
64.0,1.0,1.0,0.0,3.0,3.0,253.7899320013821,4.0,1.0,part_1,,,,,,,,,,,,,magenta,diamond
0.0,7.0,0.0,1.0,3.0,3.0,247.1418170025572,4.0,2.0,part_1,,,,,,,,,,,,,blue,square
415.0,8.0,4.0,1.0,4.0,4.0,278.6481810035184,4.0,1.0,part_1,,,,,,,,,,,,,orange,I
214.0,3.0,3.0,0.0,4.0,4.0,282.9712479142472,4.0,1.0,part_1,,,,,,,,,,,,,green,hexagon
180.0,7.0,3.0,1.0,1.0,1.0,424.0604100050404,4.0,1.0,part_1,,,,,,,,,,,,,blue,square
190.0,3.0,3.0,0.0,1.0,1.0,331.5401599975303,4.0,1.0,part_1,,,,,,,,,,,,,green,hexagon
404.0,8.0,4.0,1.0,4.0,4.0,215.6156980199739,4.0,1.0,part_1,,,,,,,,,,,,,orange,I
209.0,7.0,3.0,1.0,3.0,3.0,252.8282239800319,4.0,1.0,part_1,,,,,,,,,,,,,blue,square
26.0,1.0,1.0,0.0,1.0,1.0,302.0372649189085,4.0,2.0,part_1,,,,,,,,,,,,,magenta,diamond
74.0,1.0,1.0,0.0,3.0,3.0,273.5269530676305,4.0,1.0,part_1,,,,,,,,,,,,,magenta,diamond
421.0,4.0,4.0,0.0,3.0,3.0,286.4024440059438,4.0,1.0,part_1,,,,,,,,,,,,,yellow,flipped triangle
391.0,8.0,4.0,1.0,4.0,4.0,293.9274728996679,4.0,1.0,part_1,,,,,,,,,,,,,orange,I
102.0,6.0,2.0,1.0,4.0,4.0,289.2480380833149,4.0,1.0,part_1,,,,,,,,,,,,,gray,circle
87.0,6.0,2.0,1.0,1.0,1.0,277.7100950479507,4.0,1.0,part_1,,,,,,,,,,,,,gray,circle
0.0,4.0,0.0,0.0,1.0,1.0,240.543388063088,4.0,1.0,part_1,,,,,,,,,,,,,yellow,flipped triangle
0.0,1.0,0.0,0.0,4.0,4.0,297.4021920235827,4.0,1.0,part_1,,,,,,,,,,,,,magenta,diamond
412.0,4.0,4.0,0.0,1.0,1.0,244.8751260526478,4.0,1.0,part_1,,,,,,,,,,,,,yellow,flipped triangle
77.0,2.0,2.0,0.0,4.0,4.0,281.4261780586093,4.0,1.0,part_1,,,,,,,,,,,,,white,cross
0.0,5.0,0.0,1.0,3.0,3.0,294.9141330318525,4.0,1.0,part_1,,,,,,,,,,,,,cyan,triangle
98.0,6.0,2.0,1.0,4.0,4.0,306.1198579380288,4.0,1.0,part_1,,,,,,,,,,,,,gray,circle
417.0,8.0,4.0,1.0,1.0,1.0,223.9620279287919,4.0,1.0,part_1,,,,,,,,,,,,,orange,I
50.0,5.0,1.0,1.0,1.0,1.0,322.0714760245755,4.0,1.0,part_1,,,,,,,,,,,,,cyan,triangle
0.0,1.0,0.0,0.0,2.0,2.0,278.8050080416724,4.0,1.0,part_1,,,,,,,,,,,,,magenta,diamond
186.0,7.0,3.0,1.0,2.0,2.0,270.4977779649198,4.0,1.0,part_1,,,,,,,,,,,,,blue,square
191.0,3.0,3.0,0.0,1.0,1.0,241.1742020631209,4.0,1.0,part_1,,,,,,,,,,,,,green,hexagon
0.0,1.0,0.0,0.0,2.0,2.0,253.3610860118642,4.0,1.0,part_1,,,,,,,,,,,,,magenta,diamond
380.0,8.0,4.0,1.0,2.0,2.0,265.5497980304062,4.0,1.0,part_1,,,,,,,,,,,,,orange,I
74.0,1.0,1.0,0.0,2.0,2.0,269.5612900424748,4.0,1.0,part_1,,,,,,,,,,,,,magenta,diamond
203.0,3.0,3.0,0.0,3.0,3.0,338.3254009531811,4.0,1.0,part_1,,,,,,,,,,,,,green,hexagon
208.0,7.0,3.0,1.0,3.0,3.0,289.7762820357457,4.0,1.0,part_1,,,,,,,,,,,,,blue,square
393.0,8.0,4.0,1.0,2.0,2.0,267.9269110085442,4.0,1.0,part_1,,,,,,,,,,,,,orange,I
60.0,1.0,1.0,0.0,1.0,1.0,249.117147992365,4.0,1.0,part_1,,,,,,,,,,,,,magenta,diamond
396.0,4.0,4.0,0.0,3.0,3.0,245.084767928347,4.0,1.0,part_1,,,,,,,,,,,,,yellow,flipped triangle
39.0,1.0,1.0,0.0,4.0,4.0,261.9514709804207,4.0,1.0,part_1,,,,,,,,,,,,,magenta,diamond
193.0,3.0,3.0,0.0,1.0,1.0,232.8703429084271,4.0,1.0,part_1,,,,,,,,,,,,,green,hexagon
45.0,5.0,1.0,1.0,4.0,4.0,292.8760949289426,4.0,1.0,part_1,,,,,,,,,,,,,cyan,triangle
391.0,4.0,4.0,0.0,2.0,2.0,249.3783449754119,4.0,1.0,part_1,,,,,,,,,,,,,yellow,flipped triangle
187.0,7.0,3.0,1.0,4.0,4.0,232.1446241112426,4.0,1.0,part_1,,,,,,,,,,,,,blue,square
103.0,2.0,2.0,0.0,2.0,2.0,304.7607738990336,4.0,1.0,part_1,,,,,,,,,,,,,white,cross
202.0,3.0,3.0,0.0,3.0,3.0,282.0209109922871,4.0,1.0,part_1,,,,,,,,,,,,,green,hexagon
182.0,7.0,3.0,1.0,1.0,1.0,227.39379608538,4.0,1.0,part_1,,,,,,,,,,,,,blue,square
212.0,7.0,3.0,1.0,1.0,1.0,265.5522460117936,4.0,1.0,part_1,,,,,,,,,,,,,blue,square
397.0,4.0,4.0,0.0,1.0,1.0,261.3732509780675,4.0,1.0,part_1,,,,,,,,,,,,,yellow,flipped triangle
0.0,3.0,0.0,0.0,3.0,3.0,273.5157869756222,4.0,1.0,part_1,,,,,,,,,,,,,green,hexagon
210.0,3.0,3.0,0.0,1.0,1.0,208.3771069301292,4.0,1.0,part_1,,,,,,,,,,,,,green,hexagon
208.0,3.0,3.0,0.0,1.0,1.0,218.7270279973745,4.0,1.0,part_1,,,,,,,,,,,,,green,hexagon
395.0,8.0,4.0,1.0,2.0,2.0,264.4649350550025,4.0,1.0,part_1,,,,,,,,,,,,,orange,I
43.0,5.0,1.0,1.0,3.0,3.0,259.5171780558303,4.0,1.0,part_1,,,,,,,,,,,,,cyan,triangle
78.0,6.0,2.0,1.0,3.0,3.0,297.3490880103782,4.0,1.0,part_1,,,,,,,,,,,,,gray,circle
377.0,4.0,4.0,0.0,2.0,2.0,253.24708397965878,4.0,1.0,part_1,,,,,,,,,,,,,yellow,flipped triangle
413.0,4.0,4.0,0.0,3.0,3.0,244.2882119212299,4.0,1.0,part_1,,,,,,,,,,,,,yellow,flipped triangle
0.0,3.0,0.0,0.0,3.0,3.0,278.2208330463618,4.0,1.0,part_1,,,,,,,,,,,,,green,hexagon
0.0,7.0,0.0,1.0,3.0,3.0,244.6184019790962,4.0,1.0,part_1,,,,,,,,,,,,,blue,square
0.0,7.0,0.0,1.0,2.0,2.0,266.2121329922229,4.0,1.0,part_1,,,,,,,,,,,,,blue,square
0.0,7.0,0.0,1.0,2.0,2.0,223.9269380224868,4.0,1.0,part_1,,,,,,,,,,,,,blue,square
0.0,7.0,0.0,1.0,3.0,3.0,208.8287159567698,4.0,1.0,part_1,,,,,,,,,,,,,blue,square
114.0,2.0,2.0,0.0,3.0,3.0,302.5073759490624,4.0,1.0,part_1,,,,,,,,,,,,,white,cross
0.0,7.0,0.0,1.0,1.0,1.0,247.5211409619078,4.0,2.0,part_1,,,,,,,,,,,,,blue,square
186.0,3.0,3.0,0.0,4.0,4.0,252.00017599854618,4.0,1.0,part_1,,,,,,,,,,,,,green,hexagon
77.0,6.0,2.0,1.0,3.0,3.0,295.9701509680599,4.0,2.0,part_1,,,,,,,,,,,,,gray,circle
424.0,8.0,4.0,1.0,2.0,2.0,277.6428679935634,4.0,1.0,part_1,,,,,,,,,,,,,orange,I
106.0,2.0,2.0,0.0,3.0,3.0,207.2985509876161,4.0,1.0,part_1,,,,,,,,,,,,,white,cross
401.0,4.0,4.0,0.0,3.0,3.0,292.8103350568563,4.0,1.0,part_1,,,,,,,,,,,,,yellow,flipped triangle
396.0,4.0,4.0,0.0,1.0,1.0,232.5770109891891,4.0,1.0,part_1,,,,,,,,,,,,,yellow,flipped triangle
193.0,7.0,3.0,1.0,3.0,3.0,240.3550570597872,4.0,1.0,part_1,,,,,,,,,,,,,blue,square
414.0,4.0,4.0,0.0,1.0,1.0,329.668810009025,4.0,1.0,part_1,,,,,,,,,,,,,yellow,flipped triangle
417.0,4.0,4.0,0.0,4.0,4.0,216.80057991761709,4.0,1.0,part_1,,,,,,,,,,,,,yellow,flipped triangle
104.0,2.0,2.0,0.0,1.0,1.0,245.5607899464666,4.0,1.0,part_1,,,,,,,,,,,,,white,cross
412.0,8.0,4.0,1.0,2.0,2.0,296.4399009943008,4.0,1.0,part_1,,,,,,,,,,,,,orange,I
204.0,3.0,3.0,0.0,3.0,3.0,268.5486020054668,4.0,1.0,part_1,,,,,,,,,,,,,green,hexagon
393.0,4.0,4.0,0.0,2.0,2.0,273.1036399491131,4.0,1.0,part_1,,,,,,,,,,,,,yellow,flipped triangle
0.0,2.0,0.0,0.0,3.0,3.0,261.0993210691958,4.0,1.0,part_1,,,,,,,,,,,,,white,cross
68.0,5.0,1.0,1.0,3.0,3.0,265.9947180654853,4.0,1.0,part_1,,,,,,,,,,,,,cyan,triangle
39.0,5.0,1.0,1.0,2.0,2.0,278.0827090609818,4.0,1.0,part_1,,,,,,,,,,,,,cyan,triangle
78.0,2.0,2.0,0.0,2.0,2.0,269.7159550152719,4.0,1.0,part_1,,,,,,,,,,,,,white,cross
414.0,8.0,4.0,1.0,4.0,4.0,272.5836629979312,4.0,1.0,part_1,,,,,,,,,,,,,orange,I
84.0,2.0,2.0,0.0,3.0,3.0,296.2982660392299,4.0,1.0,part_1,,,,,,,,,,,,,white,cross
68.0,1.0,1.0,0.0,2.0,2.0,250.4774570697918,4.0,1.0,part_1,,,,,,,,,,,,,magenta,diamond
421.0,8.0,4.0,1.0,4.0,4.0,346.2259009247646,4.0,1.0,part_1,,,,,,,,,,,,,orange,I
0.0,7.0,0.0,1.0,1.0,1.0,253.7621950032189,4.0,1.0,part_1,,,,,,,,,,,,,blue,square
0.0,1.0,1.0,0.0,6.0,6.0,276.7276420490816,1.0,0.0,part_2,go,250.0,250.0,1.0,,,,,,,,,magenta,diamond
0.0,4.0,4.0,0.0,5.0,5.0,270.1435449998826,1.0,0.0,part_2,go,250.0,250.0,1.0,,,,,,,,,yellow,flipped triangle
0.0,6.0,2.0,1.0,5.0,0.0,0.0,1.0,0.0,part_2,stop,250.0,250.0,4.0,,,,,,,,,gray,circle
0.0,4.0,4.0,0.0,6.0,6.0,414.4708259264007,1.0,0.0,part_2,go,300.0,250.0,1.0,,,,,,,,,yellow,flipped triangle
0.0,1.0,1.0,0.0,5.0,5.0,301.7175430431962,1.0,0.0,part_2,go,300.0,250.0,1.0,,,,,,,,,magenta,diamond
0.0,4.0,4.0,0.0,6.0,6.0,228.0066380044445,1.0,0.0,part_2,go,300.0,250.0,1.0,,,,,,,,,yellow,flipped triangle
0.0,8.0,4.0,1.0,6.0,6.0,274.0081079537049,1.0,0.0,part_2,stop,300.0,250.0,3.0,,,,,,,,,orange,I
0.0,4.0,4.0,0.0,5.0,5.0,216.5680530015379,1.0,0.0,part_2,go,300.0,200.0,1.0,,,,,,,,,yellow,flipped triangle
0.0,2.0,2.0,0.0,6.0,6.0,210.2507040835917,1.0,0.0,part_2,go,300.0,200.0,1.0,,,,,,,,,white,cross
0.0,5.0,1.0,1.0,6.0,6.0,272.3646959057078,1.0,0.0,part_2,stop,300.0,200.0,3.0,,,,,,,,,cyan,triangle
0.0,6.0,2.0,1.0,5.0,5.0,266.9039750471711,1.0,0.0,part_2,stop,300.0,150.0,3.0,,,,,,,,,gray,circle
0.0,7.0,3.0,1.0,5.0,5.0,272.2099870443344,1.0,0.0,part_2,stop,250.0,150.0,3.0,,,,,,,,,blue,square
0.0,7.0,3.0,1.0,6.0,6.0,217.1990079805255,1.0,0.0,part_2,go,200.0,150.0,1.0,,,,,,,,,blue,square
0.0,3.0,3.0,0.0,6.0,6.0,304.3767339549958,1.0,0.0,part_2,go,200.0,150.0,1.0,,,,,,,,,green,hexagon
0.0,7.0,3.0,1.0,5.0,5.0,702.1312059368938,1.0,0.0,part_2,go,200.0,150.0,1.0,,,,,,,,,blue,square
0.0,2.0,2.0,0.0,5.0,5.0,566.3540540263057,1.0,0.0,part_2,go,200.0,150.0,1.0,,,,,,,,,white,cross
0.0,7.0,3.0,1.0,5.0,0.0,0.0,1.0,0.0,part_2,stop,200.0,150.0,4.0,,,,,,,,,blue,square
0.0,1.0,1.0,0.0,6.0,6.0,267.1998150181025,1.0,0.0,part_2,go,250.0,150.0,1.0,,,,,,,,,magenta,diamond
0.0,6.0,2.0,1.0,5.0,5.0,275.8668470196426,1.0,0.0,part_2,stop,250.0,150.0,3.0,,,,,,,,,gray,circle
0.0,5.0,1.0,1.0,5.0,5.0,243.5591119574383,1.0,0.0,part_2,stop,200.0,150.0,3.0,,,,,,,,,cyan,triangle
0.0,4.0,4.0,0.0,5.0,5.0,221.4312240248546,1.0,0.0,part_2,go,150.0,150.0,1.0,,,,,,,,,yellow,flipped triangle
0.0,8.0,4.0,1.0,5.0,5.0,305.2128929411992,1.0,0.0,part_2,stop,150.0,150.0,3.0,,,,,,,,,orange,I
0.0,1.0,1.0,0.0,6.0,6.0,274.2977309972048,1.0,0.0,part_2,go,100.0,150.0,1.0,,,,,,,,,magenta,diamond
0.0,8.0,4.0,1.0,6.0,0.0,0.0,1.0,0.0,part_2,stop,100.0,150.0,4.0,,,,,,,,,orange,I
0.0,4.0,4.0,0.0,5.0,5.0,255.0746980123222,1.0,0.0,part_2,go,100.0,200.0,1.0,,,,,,,,,yellow,flipped triangle
0.0,7.0,3.0,1.0,5.0,0.0,0.0,1.0,0.0,part_2,stop,100.0,200.0,4.0,,,,,,,,,blue,square
0.0,8.0,4.0,1.0,5.0,0.0,0.0,1.0,0.0,part_2,stop,150.0,200.0,4.0,,,,,,,,,orange,I
0.0,4.0,4.0,0.0,6.0,6.0,263.1714219460264,1.0,0.0,part_2,go,200.0,200.0,1.0,,,,,,,,,yellow,flipped triangle
0.0,8.0,4.0,1.0,5.0,0.0,0.0,1.0,0.0,part_2,stop,200.0,200.0,4.0,,,,,,,,,orange,I
0.0,7.0,3.0,1.0,6.0,6.0,264.5638219546526,1.0,0.0,part_2,stop,250.0,200.0,3.0,,,,,,,,,blue,square
0.0,1.0,1.0,0.0,5.0,5.0,319.6394660044461,1.0,0.0,part_2,go,250.0,150.0,1.0,,,,,,,,,magenta,diamond
0.0,5.0,1.0,1.0,5.0,5.0,275.3830370493233,1.0,0.0,part_2,stop,250.0,150.0,3.0,,,,,,,,,cyan,triangle
0.0,7.0,3.0,1.0,6.0,6.0,250.38726802449668,1.0,0.0,part_2,stop,200.0,150.0,3.0,,,,,,,,,blue,square
0.0,6.0,2.0,1.0,6.0,0.0,0.0,1.0,0.0,part_2,stop,200.0,100.0,4.0,,,,,,,,,gray,circle
0.0,2.0,2.0,0.0,5.0,5.0,282.9148849705234,1.0,0.0,part_2,go,200.0,150.0,1.0,,,,,,,,,white,cross
0.0,5.0,1.0,1.0,5.0,5.0,331.5541340271011,1.0,0.0,part_2,go,200.0,150.0,1.0,,,,,,,,,cyan,triangle
0.0,7.0,3.0,1.0,5.0,0.0,0.0,2.0,0.0,part_2,stop,200.0,150.0,4.0,,,,,,,,,blue,square
0.0,1.0,1.0,0.0,6.0,6.0,254.2900129919871,2.0,0.0,part_2,go,250.0,150.0,1.0,,,,,,,,,magenta,diamond
0.0,8.0,4.0,1.0,6.0,6.0,315.7909109722823,2.0,0.0,part_2,go,250.0,150.0,1.0,,,,,,,,,orange,I
0.0,6.0,2.0,1.0,5.0,0.0,0.0,2.0,0.0,part_2,stop,250.0,150.0,4.0,,,,,,,,,gray,circle
0.0,6.0,2.0,1.0,6.0,0.0,0.0,2.0,0.0,part_2,stop,300.0,150.0,4.0,,,,,,,,,gray,circle
0.0,8.0,4.0,1.0,5.0,0.0,0.0,2.0,0.0,part_2,stop,300.0,200.0,4.0,,,,,,,,,orange,I
0.0,2.0,2.0,0.0,6.0,6.0,532.6513270847499,2.0,0.0,part_2,go,350.0,200.0,1.0,,,,,,,,,white,cross
0.0,2.0,2.0,0.0,6.0,6.0,485.0873310351744,2.0,0.0,part_2,go,350.0,200.0,1.0,,,,,,,,,white,cross
0.0,8.0,4.0,1.0,6.0,0.0,0.0,2.0,0.0,part_2,stop,350.0,200.0,4.0,,,,,,,,,orange,I
0.0,3.0,3.0,0.0,6.0,6.0,345.6784070003778,2.0,0.0,part_2,go,350.0,250.0,1.0,,,,,,,,,green,hexagon
0.0,6.0,2.0,1.0,6.0,0.0,0.0,2.0,0.0,part_2,stop,350.0,250.0,4.0,,,,,,,,,gray,circle
0.0,5.0,1.0,1.0,5.0,5.0,454.5693930704146,2.0,0.0,part_2,stop,350.0,300.0,3.0,,,,,,,,,cyan,triangle
0.0,5.0,1.0,1.0,5.0,0.0,0.0,2.0,0.0,part_2,stop,300.0,300.0,4.0,,,,,,,,,cyan,triangle
0.0,8.0,4.0,1.0,5.0,5.0,621.4537529740483,2.0,0.0,part_2,go,350.0,300.0,1.0,,,,,,,,,orange,I
0.0,3.0,3.0,0.0,5.0,5.0,557.0032300893217,2.0,0.0,part_2,go,350.0,300.0,1.0,,,,,,,,,green,hexagon
0.0,3.0,3.0,0.0,6.0,6.0,567.0872400514781,2.0,0.0,part_2,go,350.0,300.0,1.0,,,,,,,,,green,hexagon
0.0,3.0,3.0,0.0,6.0,6.0,671.8181469477713,2.0,0.0,part_2,go,350.0,300.0,1.0,,,,,,,,,green,hexagon
0.0,8.0,4.0,1.0,6.0,0.0,0.0,2.0,0.0,part_2,stop,350.0,300.0,4.0,,,,,,,,,orange,I
0.0,7.0,3.0,1.0,5.0,5.0,436.9177209446206,2.0,0.0,part_2,stop,350.0,350.0,3.0,,,,,,,,,blue,square
0.0,3.0,3.0,0.0,6.0,6.0,557.6367410831153,2.0,0.0,part_2,go,300.0,350.0,1.0,,,,,,,,,green,hexagon
0.0,6.0,2.0,1.0,6.0,0.0,0.0,2.0,0.0,part_2,stop,300.0,350.0,4.0,,,,,,,,,gray,circle
0.0,2.0,2.0,0.0,6.0,6.0,257.6692519942298,2.0,0.0,part_2,go,300.0,400.0,1.0,,,,,,,,,white,cross
0.0,6.0,2.0,1.0,6.0,0.0,0.0,2.0,0.0,part_2,stop,300.0,400.0,4.0,,,,,,,,,gray,circle
0.0,3.0,3.0,0.0,5.0,5.0,308.3183789858594,2.0,0.0,part_2,go,300.0,450.0,1.0,,,,,,,,,green,hexagon
0.0,8.0,4.0,1.0,6.0,6.0,575.3990360535681,2.0,0.0,part_2,stop,300.0,450.0,3.0,,,,,,,,,orange,I
0.0,4.0,4.0,0.0,5.0,5.0,679.3007069500163,2.0,0.0,part_2,go,300.0,400.0,1.0,,,,,,,,,yellow,flipped triangle
0.0,5.0,1.0,1.0,6.0,6.0,599.8975620605052,2.0,0.0,part_2,go,300.0,400.0,1.0,,,,,,,,,cyan,triangle
0.0,1.0,1.0,0.0,6.0,6.0,521.8597459606826,2.0,0.0,part_2,go,300.0,400.0,1.0,,,,,,,,,magenta,diamond
0.0,6.0,2.0,1.0,6.0,6.0,333.0995930591598,2.0,0.0,part_2,go,300.0,400.0,1.0,,,,,,,,,gray,circle
0.0,5.0,1.0,1.0,6.0,0.0,0.0,2.0,0.0,part_2,stop,300.0,400.0,4.0,,,,,,,,,cyan,triangle
0.0,2.0,2.0,0.0,5.0,5.0,614.4583560526371,2.0,0.0,part_2,go,300.0,450.0,1.0,,,,,,,,,white,cross
0.0,2.0,2.0,0.0,5.0,5.0,772.6332868915051,2.0,0.0,part_2,go,300.0,450.0,1.0,,,,,,,,,white,cross
0.0,4.0,4.0,0.0,6.0,6.0,475.5393470404669,2.0,0.0,part_2,go,300.0,450.0,1.0,,,,,,,,,yellow,flipped triangle
0.0,4.0,4.0,0.0,5.0,5.0,357.9802500316873,2.0,0.0,part_2,go,300.0,450.0,1.0,,,,,,,,,yellow,flipped triangle
0.0,2.0,2.0,0.0,5.0,5.0,390.1704460149631,2.0,0.0,part_2,go,300.0,450.0,1.0,,,,,,,,,white,cross
0.0,2.0,2.0,0.0,6.0,6.0,585.527268005535,2.0,0.0,part_2,go,300.0,450.0,1.0,,,,,,,,,white,cross
0.0,4.0,4.0,0.0,5.0,5.0,335.8138760086149,3.0,0.0,part_2,go,300.0,450.0,1.0,,,,,,,,,yellow,flipped triangle
0.0,3.0,3.0,0.0,6.0,6.0,327.0877680042758,3.0,0.0,part_2,go,300.0,450.0,1.0,,,,,,,,,green,hexagon
0.0,3.0,3.0,0.0,5.0,5.0,374.0868250606581,3.0,0.0,part_2,go,300.0,450.0,1.0,,,,,,,,,green,hexagon
0.0,5.0,1.0,1.0,6.0,6.0,421.7648999765515,3.0,0.0,part_2,stop,300.0,450.0,3.0,,,,,,,,,cyan,triangle
0.0,6.0,2.0,1.0,5.0,5.0,356.0858309501782,3.0,0.0,part_2,stop,300.0,400.0,3.0,,,,,,,,,gray,circle
0.0,1.0,1.0,0.0,5.0,5.0,441.7119870195165,3.0,0.0,part_2,go,250.0,400.0,1.0,,,,,,,,,magenta,diamond
0.0,7.0,3.0,1.0,5.0,5.0,370.9982049185782,3.0,0.0,part_2,go,250.0,400.0,1.0,,,,,,,,,blue,square
0.0,2.0,2.0,0.0,5.0,5.0,689.5185959292576,3.0,0.0,part_2,go,250.0,400.0,1.0,,,,,,,,,white,cross
0.0,1.0,1.0,0.0,6.0,6.0,407.5237750075757,3.0,0.0,part_2,go,250.0,400.0,1.0,,,,,,,,,magenta,diamond
0.0,1.0,1.0,0.0,6.0,6.0,351.7273330362513,3.0,0.0,part_2,go,250.0,400.0,1.0,,,,,,,,,magenta,diamond
0.0,3.0,3.0,0.0,5.0,5.0,335.3085509734228,3.0,0.0,part_2,go,250.0,400.0,1.0,,,,,,,,,green,hexagon
0.0,8.0,4.0,1.0,5.0,0.0,0.0,3.0,0.0,part_2,stop,250.0,400.0,4.0,,,,,,,,,orange,I
0.0,2.0,2.0,0.0,6.0,6.0,381.8483139621094,3.0,0.0,part_2,go,300.0,400.0,1.0,,,,,,,,,white,cross
0.0,3.0,3.0,0.0,6.0,6.0,373.9307989599183,3.0,0.0,part_2,go,300.0,400.0,1.0,,,,,,,,,green,hexagon
0.0,7.0,3.0,1.0,6.0,0.0,0.0,3.0,0.0,part_2,stop,300.0,400.0,4.0,,,,,,,,,blue,square
0.0,4.0,4.0,0.0,6.0,6.0,572.3991059930995,3.0,0.0,part_2,go,300.0,450.0,1.0,,,,,,,,,yellow,flipped triangle
0.0,6.0,2.0,1.0,6.0,0.0,0.0,3.0,0.0,part_2,stop,300.0,450.0,4.0,,,,,,,,,gray,circle
0.0,2.0,2.0,0.0,6.0,6.0,316.2586269900203,3.0,0.0,part_2,go,300.0,500.0,1.0,,,,,,,,,white,cross
0.0,8.0,4.0,1.0,6.0,6.0,627.0038679940626,3.0,0.0,part_2,go,300.0,500.0,1.0,,,,,,,,,orange,I
0.0,1.0,1.0,0.0,6.0,6.0,689.4039380131289,3.0,0.0,part_2,go,300.0,500.0,1.0,,,,,,,,,magenta,diamond
0.0,7.0,3.0,1.0,6.0,6.0,323.2283629477024,3.0,0.0,part_2,stop,300.0,500.0,3.0,,,,,,,,,blue,square
0.0,5.0,1.0,1.0,6.0,0.0,0.0,3.0,0.0,part_2,stop,300.0,450.0,4.0,,,,,,,,,cyan,triangle
0.0,4.0,4.0,0.0,6.0,6.0,439.7771470248699,3.0,0.0,part_2,go,300.0,500.0,1.0,,,,,,,,,yellow,flipped triangle
0.0,8.0,4.0,1.0,6.0,6.0,551.6582250129431,3.0,0.0,part_2,stop,300.0,500.0,3.0,,,,,,,,,orange,I
0.0,7.0,3.0,1.0,5.0,5.0,334.7184910671785,3.0,0.0,part_2,stop,300.0,450.0,3.0,,,,,,,,,blue,square
0.0,3.0,3.0,0.0,5.0,5.0,615.8810280030593,3.0,0.0,part_2,go,250.0,450.0,1.0,,,,,,,,,green,hexagon
0.0,1.0,1.0,0.0,5.0,5.0,798.3876310754567,3.0,0.0,part_2,go,250.0,450.0,1.0,,,,,,,,,magenta,diamond
0.0,4.0,4.0,0.0,5.0,5.0,537.3383311089128,3.0,0.0,part_2,go,250.0,450.0,1.0,,,,,,,,,yellow,flipped triangle
0.0,4.0,4.0,0.0,6.0,6.0,312.8861610312015,3.0,0.0,part_2,go,250.0,450.0,1.0,,,,,,,,,yellow,flipped triangle
0.0,4.0,4.0,0.0,6.0,6.0,484.8206889582798,3.0,0.0,part_2,go,250.0,450.0,1.0,,,,,,,,,yellow,flipped triangle
0.0,3.0,3.0,0.0,6.0,6.0,518.9751420402899,3.0,0.0,part_2,go,250.0,450.0,1.0,,,,,,,,,green,hexagon
0.0,3.0,3.0,0.0,5.0,5.0,267.4595480784774,3.0,0.0,part_2,go,250.0,450.0,1.0,,,,,,,,,green,hexagon
0.0,5.0,1.0,1.0,5.0,5.0,333.3342809928581,3.0,0.0,part_2,go,250.0,450.0,1.0,,,,,,,,,cyan,triangle
0.0,7.0,3.0,1.0,6.0,6.0,315.0677110534161,3.0,0.0,part_2,stop,250.0,450.0,3.0,,,,,,,,,blue,square
0.0,6.0,2.0,1.0,6.0,0.0,0.0,3.0,0.0,part_2,stop,250.0,400.0,4.0,,,,,,,,,gray,circle
0.0,5.0,1.0,1.0,6.0,0.0,0.0,3.0,0.0,part_2,stop,250.0,450.0,4.0,,,,,,,,,cyan,triangle
0.0,5.0,1.0,1.0,5.0,5.0,377.8977160109207,4.0,0.0,part_2,go,250.0,500.0,1.0,,,,,,,,,cyan,triangle
0.0,4.0,4.0,0.0,5.0,5.0,337.0553989661857,4.0,0.0,part_2,go,250.0,500.0,1.0,,,,,,,,,yellow,flipped triangle
0.0,5.0,1.0,1.0,5.0,5.0,296.8314799945801,4.0,0.0,part_2,stop,250.0,500.0,3.0,,,,,,,,,cyan,triangle
0.0,4.0,4.0,0.0,6.0,6.0,304.8386659938842,4.0,0.0,part_2,go,200.0,500.0,1.0,,,,,,,,,yellow,flipped triangle
0.0,3.0,3.0,0.0,5.0,5.0,449.5993599994108,4.0,0.0,part_2,go,200.0,500.0,1.0,,,,,,,,,green,hexagon
0.0,5.0,1.0,1.0,6.0,6.0,320.1333170291036,4.0,0.0,part_2,stop,200.0,500.0,3.0,,,,,,,,,cyan,triangle
0.0,8.0,4.0,1.0,5.0,5.0,333.6999689927324,4.0,0.0,part_2,stop,200.0,450.0,3.0,,,,,,,,,orange,I
0.0,7.0,3.0,1.0,6.0,0.0,0.0,4.0,0.0,part_2,stop,150.0,450.0,4.0,,,,,,,,,blue,square
0.0,4.0,4.0,0.0,5.0,5.0,871.9623050419614,4.0,0.0,part_2,go,150.0,500.0,1.0,,,,,,,,,yellow,flipped triangle
0.0,3.0,3.0,0.0,6.0,6.0,622.4463990656659,4.0,0.0,part_2,go,150.0,500.0,1.0,,,,,,,,,green,hexagon
0.0,6.0,2.0,1.0,6.0,0.0,0.0,4.0,0.0,part_2,stop,150.0,500.0,4.0,,,,,,,,,gray,circle
0.0,4.0,4.0,0.0,6.0,6.0,347.76844503358,4.0,0.0,part_2,go,150.0,550.0,1.0,,,,,,,,,yellow,flipped triangle
0.0,8.0,4.0,1.0,6.0,0.0,0.0,4.0,0.0,part_2,stop,150.0,550.0,4.0,,,,,,,,,orange,I
0.0,8.0,4.0,1.0,5.0,0.0,0.0,4.0,0.0,part_2,stop,150.0,600.0,4.0,,,,,,,,,orange,I
0.0,8.0,4.0,1.0,5.0,0.0,0.0,4.0,0.0,part_2,stop,200.0,600.0,4.0,,,,,,,,,orange,I
0.0,2.0,2.0,0.0,6.0,6.0,498.9488569553941,4.0,0.0,part_2,go,250.0,600.0,1.0,,,,,,,,,white,cross
0.0,8.0,4.0,1.0,5.0,0.0,0.0,4.0,0.0,part_2,stop,250.0,600.0,4.0,,,,,,,,,orange,I
0.0,3.0,3.0,0.0,6.0,6.0,713.454213924706,4.0,0.0,part_2,go,300.0,600.0,1.0,,,,,,,,,green,hexagon
0.0,4.0,4.0,0.0,5.0,5.0,632.2835379978642,4.0,0.0,part_2,go,300.0,600.0,1.0,,,,,,,,,yellow,flipped triangle
0.0,5.0,1.0,1.0,5.0,5.0,394.8310960549861,4.0,0.0,part_2,go,300.0,600.0,1.0,,,,,,,,,cyan,triangle
0.0,2.0,2.0,0.0,5.0,5.0,312.4521939316764,4.0,0.0,part_2,go,300.0,600.0,1.0,,,,,,,,,white,cross
0.0,3.0,3.0,0.0,6.0,6.0,567.1940760221332,4.0,0.0,part_2,go,300.0,600.0,1.0,,,,,,,,,green,hexagon
0.0,7.0,3.0,1.0,6.0,6.0,541.8348299572244,4.0,0.0,part_2,go,300.0,600.0,1.0,,,,,,,,,blue,square
0.0,3.0,3.0,0.0,6.0,6.0,342.728482093662,4.0,0.0,part_2,go,300.0,600.0,1.0,,,,,,,,,green,hexagon
0.0,8.0,4.0,1.0,5.0,0.0,0.0,4.0,0.0,part_2,stop,300.0,600.0,4.0,,,,,,,,,orange,I
0.0,6.0,2.0,1.0,6.0,6.0,716.1461400100961,4.0,0.0,part_2,stop,350.0,600.0,3.0,,,,,,,,,gray,circle
0.0,2.0,2.0,0.0,5.0,5.0,598.4220969257876,4.0,0.0,part_2,go,350.0,550.0,1.0,,,,,,,,,white,cross
0.0,3.0,3.0,0.0,6.0,6.0,521.9252149108797,4.0,0.0,part_2,go,350.0,550.0,1.0,,,,,,,,,green,hexagon
0.0,3.0,3.0,0.0,5.0,5.0,587.7161739626899,4.0,0.0,part_2,go,350.0,550.0,1.0,,,,,,,,,green,hexagon
0.0,5.0,1.0,1.0,6.0,6.0,522.7021330501884,4.0,0.0,part_2,stop,350.0,550.0,3.0,,,,,,,,,cyan,triangle
0.0,8.0,4.0,1.0,5.0,5.0,739.885909948498,4.0,0.0,part_2,go,350.0,500.0,1.0,,,,,,,,,orange,I
0.0,5.0,1.0,1.0,5.0,0.0,0.0,4.0,0.0,part_2,stop,350.0,500.0,4.0,,,,,,,,,cyan,triangle
0.0,5.0,1.0,1.0,5.0,5.0,336.0762699740007,4.0,0.0,part_2,stop,400.0,500.0,3.0,,,,,,,,,cyan,triangle
0.0,8.0,4.0,1.0,6.0,6.0,687.9964530235156,4.0,0.0,part_2,go,350.0,500.0,1.0,,,,,,,,,orange,I
0.0,1.0,1.0,0.0,5.0,5.0,558.6094349855557,4.0,0.0,part_2,go,350.0,500.0,1.0,,,,,,,,,magenta,diamond
0.0,4.0,4.0,0.0,6.0,6.0,416.8465100228786,4.0,0.0,part_2,go,350.0,500.0,1.0,,,,,,,,,yellow,flipped triangle
0.0,6.0,2.0,1.0,5.0,5.0,365.1466839946806,5.0,0.0,part_2,stop,350.0,500.0,3.0,,,,,,,,,gray,circle
0.0,2.0,2.0,0.0,6.0,6.0,416.9535540277138,5.0,0.0,part_2,go,300.0,500.0,1.0,,,,,,,,,white,cross
0.0,5.0,1.0,1.0,6.0,6.0,303.92415903043,5.0,0.0,part_2,stop,300.0,500.0,3.0,,,,,,,,,cyan,triangle
0.0,6.0,2.0,1.0,5.0,5.0,322.2295730374753,5.0,0.0,part_2,stop,300.0,450.0,3.0,,,,,,,,,gray,circle
0.0,7.0,3.0,1.0,6.0,6.0,373.7445930019021,5.0,0.0,part_2,go,250.0,450.0,1.0,,,,,,,,,blue,square
0.0,1.0,1.0,0.0,5.0,5.0,508.861280977726,5.0,0.0,part_2,go,250.0,450.0,1.0,,,,,,,,,magenta,diamond
0.0,5.0,1.0,1.0,6.0,6.0,311.4508140133694,5.0,0.0,part_2,stop,250.0,450.0,3.0,,,,,,,,,cyan,triangle
0.0,2.0,2.0,0.0,6.0,6.0,509.52741492073983,5.0,0.0,part_2,go,250.0,400.0,1.0,,,,,,,,,white,cross
0.0,8.0,4.0,1.0,5.0,0.0,0.0,5.0,0.0,part_2,stop,250.0,400.0,4.0,,,,,,,,,orange,I
0.0,1.0,1.0,0.0,5.0,5.0,518.7048040097579,5.0,0.0,part_2,go,300.0,400.0,1.0,,,,,,,,,magenta,diamond
0.0,1.0,1.0,0.0,6.0,6.0,545.5506430007517,5.0,0.0,part_2,go,300.0,400.0,1.0,,,,,,,,,magenta,diamond
0.0,2.0,2.0,0.0,6.0,6.0,493.5456180246547,5.0,0.0,part_2,go,300.0,400.0,1.0,,,,,,,,,white,cross
0.0,1.0,1.0,0.0,6.0,6.0,554.8478049458936,5.0,0.0,part_2,go,300.0,400.0,1.0,,,,,,,,,magenta,diamond
0.0,4.0,4.0,0.0,5.0,5.0,312.7068199682981,5.0,0.0,part_2,go,300.0,400.0,1.0,,,,,,,,,yellow,flipped triangle
0.0,6.0,2.0,1.0,5.0,5.0,319.83469997067,5.0,0.0,part_2,stop,300.0,400.0,3.0,,,,,,,,,gray,circle
0.0,4.0,4.0,0.0,6.0,6.0,514.4637579796836,5.0,0.0,part_2,go,250.0,400.0,1.0,,,,,,,,,yellow,flipped triangle
0.0,6.0,2.0,1.0,5.0,0.0,0.0,5.0,0.0,part_2,stop,250.0,400.0,4.0,,,,,,,,,gray,circle
0.0,2.0,2.0,0.0,6.0,6.0,247.377440915443,5.0,0.0,part_2,go,300.0,400.0,1.0,,,,,,,,,white,cross
0.0,7.0,3.0,1.0,6.0,6.0,351.3961239950731,5.0,0.0,part_2,stop,300.0,400.0,3.0,,,,,,,,,blue,square
0.0,8.0,4.0,1.0,6.0,0.0,0.0,5.0,0.0,part_2,stop,300.0,350.0,4.0,,,,,,,,,orange,I
0.0,7.0,3.0,1.0,5.0,0.0,0.0,5.0,0.0,part_2,stop,300.0,400.0,4.0,,,,,,,,,blue,square
0.0,6.0,2.0,1.0,5.0,5.0,356.7290880018845,5.0,0.0,part_2,go,350.0,400.0,1.0,,,,,,,,,gray,circle
0.0,1.0,1.0,0.0,5.0,5.0,414.4530110061168,5.0,0.0,part_2,go,350.0,400.0,1.0,,,,,,,,,magenta,diamond
0.0,1.0,1.0,0.0,6.0,6.0,410.8146090293303,5.0,0.0,part_2,go,350.0,400.0,1.0,,,,,,,,,magenta,diamond
0.0,1.0,1.0,0.0,5.0,5.0,658.8100249646232,5.0,0.0,part_2,go,350.0,400.0,1.0,,,,,,,,,magenta,diamond
0.0,8.0,4.0,1.0,6.0,0.0,0.0,5.0,0.0,part_2,stop,350.0,400.0,4.0,,,,,,,,,orange,I
0.0,8.0,4.0,1.0,5.0,0.0,0.0,5.0,0.0,part_2,stop,350.0,450.0,4.0,,,,,,,,,orange,I
0.0,2.0,2.0,0.0,5.0,5.0,600.6748039508238,5.0,0.0,part_2,go,400.0,450.0,1.0,,,,,,,,,white,cross
0.0,7.0,3.0,1.0,6.0,6.0,520.7738849567249,5.0,0.0,part_2,stop,400.0,450.0,3.0,,,,,,,,,blue,square
0.0,1.0,1.0,0.0,6.0,6.0,823.1369609711692,5.0,0.0,part_2,go,400.0,400.0,1.0,,,,,,,,,magenta,diamond
0.0,7.0,3.0,1.0,5.0,0.0,0.0,5.0,0.0,part_2,stop,400.0,400.0,4.0,,,,,,,,,blue,square
0.0,3.0,3.0,0.0,5.0,5.0,766.2290470907465,5.0,0.0,part_2,go,450.0,400.0,1.0,,,,,,,,,green,hexagon
0.0,5.0,1.0,1.0,5.0,0.0,0.0,5.0,0.0,part_2,stop,450.0,400.0,4.0,,,,,,,,,cyan,triangle
0.0,3.0,3.0,0.0,6.0,6.0,789.0819240128621,5.0,0.0,part_2,go,500.0,400.0,1.0,,,,,,,,,green,hexagon
0.0,7.0,3.0,1.0,6.0,6.0,582.8333719400689,5.0,0.0,part_2,go,500.0,400.0,1.0,,,,,,,,,blue,square
0.0,7.0,3.0,1.0,5.0,5.0,484.7779569681734,5.0,0.0,part_2,stop,500.0,400.0,3.0,,,,,,,,,blue,square
0.0,4.0,4.0,0.0,6.0,6.0,452.0591789623722,6.0,0.0,part_2,go,450.0,400.0,1.0,,,,,,,,,yellow,flipped triangle
0.0,1.0,1.0,0.0,6.0,6.0,395.6799959996715,6.0,0.0,part_2,go,450.0,400.0,1.0,,,,,,,,,magenta,diamond
0.0,5.0,1.0,1.0,5.0,5.0,435.5636410182342,6.0,0.0,part_2,stop,450.0,400.0,3.0,,,,,,,,,cyan,triangle
0.0,2.0,2.0,0.0,6.0,6.0,528.0316679272801,6.0,0.0,part_2,go,400.0,400.0,1.0,,,,,,,,,white,cross
0.0,8.0,4.0,1.0,6.0,6.0,416.942052077502,6.0,0.0,part_2,stop,400.0,400.0,3.0,,,,,,,,,orange,I
0.0,1.0,1.0,0.0,6.0,6.0,439.3889940110966,6.0,0.0,part_2,go,400.0,350.0,1.0,,,,,,,,,magenta,diamond
0.0,4.0,4.0,0.0,5.0,5.0,312.9813190316781,6.0,0.0,part_2,go,400.0,350.0,1.0,,,,,,,,,yellow,flipped triangle
0.0,8.0,4.0,1.0,6.0,0.0,0.0,6.0,0.0,part_2,stop,400.0,350.0,4.0,,,,,,,,,orange,I
0.0,7.0,3.0,1.0,6.0,6.0,446.4087389642373,6.0,0.0,part_2,stop,400.0,400.0,3.0,,,,,,,,,blue,square
0.0,4.0,4.0,0.0,5.0,5.0,509.2700100503862,6.0,0.0,part_2,go,400.0,350.0,1.0,,,,,,,,,yellow,flipped triangle
0.0,5.0,1.0,1.0,6.0,0.0,0.0,6.0,0.0,part_2,stop,400.0,350.0,4.0,,,,,,,,,cyan,triangle
0.0,6.0,2.0,1.0,5.0,5.0,293.7984979944303,6.0,0.0,part_2,stop,400.0,400.0,3.0,,,,,,,,,gray,circle
0.0,6.0,2.0,1.0,6.0,0.0,0.0,6.0,0.0,part_2,stop,350.0,400.0,4.0,,,,,,,,,gray,circle
0.0,3.0,3.0,0.0,6.0,6.0,620.2021490316838,6.0,0.0,part_2,go,350.0,450.0,1.0,,,,,,,,,green,hexagon
0.0,2.0,2.0,0.0,6.0,6.0,428.3265980193391,6.0,0.0,part_2,go,350.0,450.0,1.0,,,,,,,,,white,cross
0.0,7.0,3.0,1.0,6.0,0.0,0.0,6.0,0.0,part_2,stop,350.0,450.0,4.0,,,,,,,,,blue,square
0.0,2.0,2.0,0.0,5.0,5.0,627.4827510351315,6.0,0.0,part_2,go,350.0,500.0,1.0,,,,,,,,,white,cross
0.0,6.0,2.0,1.0,6.0,6.0,699.7672249563038,6.0,0.0,part_2,go,350.0,500.0,1.0,,,,,,,,,gray,circle
0.0,1.0,1.0,0.0,6.0,6.0,496.4093179441988,6.0,0.0,part_2,go,350.0,500.0,1.0,,,,,,,,,magenta,diamond
0.0,2.0,2.0,0.0,5.0,5.0,481.9730739109218,6.0,0.0,part_2,go,350.0,500.0,1.0,,,,,,,,,white,cross
0.0,3.0,3.0,0.0,5.0,5.0,423.6001060344279,6.0,0.0,part_2,go,350.0,500.0,1.0,,,,,,,,,green,hexagon
0.0,8.0,4.0,1.0,6.0,6.0,321.8857439933344,6.0,0.0,part_2,stop,350.0,500.0,3.0,,,,,,,,,orange,I
0.0,1.0,1.0,0.0,5.0,5.0,591.6770519688725,6.0,0.0,part_2,go,350.0,450.0,1.0,,,,,,,,,magenta,diamond
0.0,2.0,2.0,0.0,6.0,6.0,717.6325890468433,6.0,0.0,part_2,go,350.0,450.0,1.0,,,,,,,,,white,cross
0.0,6.0,2.0,1.0,6.0,0.0,0.0,6.0,0.0,part_2,stop,350.0,450.0,4.0,,,,,,,,,gray,circle
0.0,4.0,4.0,0.0,6.0,6.0,587.8385490505025,6.0,0.0,part_2,go,350.0,500.0,1.0,,,,,,,,,yellow,flipped triangle
0.0,6.0,2.0,1.0,5.0,5.0,718.3957549277693,6.0,0.0,part_2,go,350.0,500.0,1.0,,,,,,,,,gray,circle
0.0,8.0,4.0,1.0,5.0,5.0,798.8839250756428,6.0,0.0,part_2,go,350.0,500.0,1.0,,,,,,,,,orange,I
0.0,6.0,2.0,1.0,6.0,6.0,620.286209974438,6.0,0.0,part_2,stop,350.0,500.0,3.0,,,,,,,,,gray,circle
0.0,4.0,4.0,0.0,5.0,5.0,587.8006350249052,6.0,0.0,part_2,go,350.0,450.0,1.0,,,,,,,,,yellow,flipped triangle
0.0,7.0,3.0,1.0,6.0,6.0,473.5642969608307,6.0,0.0,part_2,stop,350.0,450.0,3.0,,,,,,,,,blue,square
0.0,8.0,4.0,1.0,5.0,5.0,632.5957990484312,6.0,0.0,part_2,go,350.0,400.0,1.0,,,,,,,,,orange,I
0.0,5.0,1.0,1.0,5.0,0.0,0.0,6.0,0.0,part_2,stop,350.0,400.0,4.0,,,,,,,,,cyan,triangle
0.0,7.0,3.0,1.0,5.0,5.0,569.9474660214037,6.0,0.0,part_2,go,400.0,400.0,1.0,,,,,,,,,blue,square
0.0,3.0,3.0,0.0,5.0,5.0,497.393685975112,6.0,0.0,part_2,go,400.0,400.0,1.0,,,,,,,,,green,hexagon
0.0,5.0,1.0,1.0,6.0,6.0,656.50281496346,6.0,0.0,part_2,go,400.0,400.0,1.0,,,,,,,,,cyan,triangle
0.0,3.0,3.0,0.0,5.0,5.0,382.8931280877441,7.0,0.0,part_2,go,400.0,400.0,1.0,,,,,,,,,green,hexagon
0.0,5.0,1.0,1.0,6.0,6.0,417.6282699918374,7.0,0.0,part_2,stop,400.0,400.0,3.0,,,,,,,,,cyan,triangle
0.0,1.0,1.0,0.0,5.0,5.0,398.2362800743431,7.0,0.0,part_2,go,400.0,350.0,1.0,,,,,,,,,magenta,diamond
0.0,1.0,1.0,0.0,6.0,6.0,518.0186480283737,7.0,0.0,part_2,go,400.0,350.0,1.0,,,,,,,,,magenta,diamond
0.0,1.0,1.0,0.0,5.0,5.0,537.6796389464289,7.0,0.0,part_2,go,400.0,350.0,1.0,,,,,,,,,magenta,diamond
0.0,6.0,2.0,1.0,6.0,6.0,729.7773959580809,7.0,0.0,part_2,go,400.0,350.0,1.0,,,,,,,,,gray,circle
0.0,2.0,2.0,0.0,5.0,5.0,528.5155739402398,7.0,0.0,part_2,go,400.0,350.0,1.0,,,,,,,,,white,cross
0.0,4.0,4.0,0.0,5.0,5.0,386.4227780140936,7.0,0.0,part_2,go,400.0,350.0,1.0,,,,,,,,,yellow,flipped triangle
0.0,7.0,3.0,1.0,5.0,5.0,289.4251450197771,7.0,0.0,part_2,stop,400.0,350.0,3.0,,,,,,,,,blue,square
0.0,4.0,4.0,0.0,6.0,6.0,506.81478797923774,7.0,0.0,part_2,go,350.0,350.0,1.0,,,,,,,,,yellow,flipped triangle
0.0,1.0,1.0,0.0,5.0,5.0,434.2621129471808,7.0,0.0,part_2,go,350.0,350.0,1.0,,,,,,,,,magenta,diamond
0.0,2.0,2.0,0.0,5.0,5.0,378.161470987834,7.0,0.0,part_2,go,350.0,350.0,1.0,,,,,,,,,white,cross
0.0,6.0,2.0,1.0,5.0,5.0,376.0759929427877,7.0,0.0,part_2,stop,350.0,350.0,3.0,,,,,,,,,gray,circle
0.0,2.0,2.0,0.0,6.0,6.0,300.8404709398746,7.0,0.0,part_2,go,300.0,350.0,1.0,,,,,,,,,white,cross
0.0,8.0,4.0,1.0,5.0,0.0,0.0,7.0,0.0,part_2,stop,300.0,350.0,4.0,,,,,,,,,orange,I
0.0,2.0,2.0,0.0,5.0,5.0,365.4718620236963,7.0,0.0,part_2,go,350.0,350.0,1.0,,,,,,,,,white,cross
0.0,7.0,3.0,1.0,5.0,0.0,0.0,7.0,0.0,part_2,stop,350.0,350.0,4.0,,,,,,,,,blue,square
0.0,3.0,3.0,0.0,6.0,6.0,539.9413988925517,7.0,0.0,part_2,go,400.0,350.0,1.0,,,,,,,,,green,hexagon
0.0,4.0,4.0,0.0,6.0,6.0,564.853563089855,7.0,0.0,part_2,go,400.0,350.0,1.0,,,,,,,,,yellow,flipped triangle
0.0,5.0,1.0,1.0,5.0,5.0,508.8199799647555,7.0,0.0,part_2,go,400.0,350.0,1.0,,,,,,,,,cyan,triangle
0.0,1.0,1.0,0.0,6.0,6.0,516.4296169532463,7.0,0.0,part_2,go,400.0,350.0,1.0,,,,,,,,,magenta,diamond
0.0,4.0,4.0,0.0,5.0,5.0,410.2719590300694,7.0,0.0,part_2,go,400.0,350.0,1.0,,,,,,,,,yellow,flipped triangle
0.0,6.0,2.0,1.0,5.0,5.0,427.0228070672601,7.0,0.0,part_2,stop,400.0,350.0,3.0,,,,,,,,,gray,circle
0.0,2.0,2.0,0.0,5.0,5.0,336.1237330827862,7.0,0.0,part_2,go,350.0,350.0,1.0,,,,,,,,,white,cross
0.0,5.0,1.0,1.0,5.0,5.0,378.17078595981,7.0,0.0,part_2,stop,350.0,350.0,3.0,,,,,,,,,cyan,triangle
0.0,2.0,2.0,0.0,6.0,6.0,458.3181490888819,7.0,0.0,part_2,go,300.0,350.0,1.0,,,,,,,,,white,cross
0.0,5.0,1.0,1.0,6.0,6.0,641.6424890048802,7.0,0.0,part_2,go,300.0,350.0,1.0,,,,,,,,,cyan,triangle
0.0,1.0,1.0,0.0,5.0,5.0,463.0519279744476,7.0,0.0,part_2,go,300.0,350.0,1.0,,,,,,,,,magenta,diamond
0.0,5.0,1.0,1.0,6.0,6.0,1031.4675330882892,7.0,0.0,part_2,stop,300.0,350.0,3.0,,,,,,,,,cyan,triangle
0.0,8.0,4.0,1.0,6.0,0.0,0.0,7.0,0.0,part_2,stop,300.0,300.0,4.0,,,,,,,,,orange,I
0.0,2.0,2.0,0.0,5.0,5.0,462.95046398881817,7.0,0.0,part_2,go,300.0,350.0,1.0,,,,,,,,,white,cross
0.0,2.0,2.0,0.0,6.0,6.0,579.9464089795947,7.0,0.0,part_2,go,300.0,350.0,1.0,,,,,,,,,white,cross
0.0,3.0,3.0,0.0,5.0,5.0,501.3872809940949,7.0,0.0,part_2,go,300.0,350.0,1.0,,,,,,,,,green,hexagon
0.0,7.0,3.0,1.0,5.0,0.0,0.0,7.0,0.0,part_2,stop,300.0,350.0,4.0,,,,,,,,,blue,square
0.0,6.0,2.0,1.0,6.0,0.0,0.0,7.0,0.0,part_2,stop,350.0,350.0,4.0,,,,,,,,,gray,circle
0.0,8.0,4.0,1.0,6.0,0.0,0.0,7.0,0.0,part_2,stop,350.0,400.0,4.0,,,,,,,,,orange,I
0.0,2.0,2.0,0.0,5.0,5.0,1284.507256001234,8.0,0.0,part_2,go,350.0,450.0,1.0,,,,,,,,,white,cross
0.0,6.0,2.0,1.0,5.0,5.0,504.5795269543305,8.0,0.0,part_2,go,350.0,450.0,1.0,,,,,,,,,gray,circle
0.0,7.0,3.0,1.0,5.0,0.0,0.0,8.0,0.0,part_2,stop,350.0,450.0,4.0,,,,,,,,,blue,square
0.0,1.0,1.0,0.0,5.0,5.0,592.6016611047089,8.0,0.0,part_2,go,400.0,450.0,1.0,,,,,,,,,magenta,diamond
0.0,3.0,3.0,0.0,5.0,5.0,511.02809596341103,8.0,0.0,part_2,go,400.0,450.0,1.0,,,,,,,,,green,hexagon
0.0,5.0,1.0,1.0,6.0,6.0,415.2946829563007,8.0,0.0,part_2,stop,400.0,450.0,3.0,,,,,,,,,cyan,triangle
0.0,6.0,2.0,1.0,5.0,5.0,481.976113980636,8.0,0.0,part_2,go,400.0,400.0,1.0,,,,,,,,,gray,circle
0.0,3.0,3.0,0.0,6.0,6.0,664.8522079922259,8.0,0.0,part_2,go,400.0,400.0,1.0,,,,,,,,,green,hexagon
0.0,1.0,1.0,0.0,6.0,6.0,429.2314460035413,8.0,0.0,part_2,go,400.0,400.0,1.0,,,,,,,,,magenta,diamond
0.0,7.0,3.0,1.0,6.0,6.0,485.4706269688904,8.0,0.0,part_2,go,400.0,400.0,1.0,,,,,,,,,blue,square
0.0,7.0,3.0,1.0,6.0,6.0,540.3734049759805,8.0,0.0,part_2,stop,400.0,400.0,3.0,,,,,,,,,blue,square
0.0,1.0,1.0,0.0,5.0,5.0,547.1675080480054,8.0,0.0,part_2,go,400.0,350.0,1.0,,,,,,,,,magenta,diamond
0.0,3.0,3.0,0.0,5.0,5.0,410.3256149683147,8.0,0.0,part_2,go,400.0,350.0,1.0,,,,,,,,,green,hexagon
0.0,6.0,2.0,1.0,5.0,0.0,0.0,8.0,0.0,part_2,stop,400.0,350.0,4.0,,,,,,,,,gray,circle
0.0,8.0,4.0,1.0,6.0,6.0,661.6871380247176,8.0,0.0,part_2,go,450.0,350.0,1.0,,,,,,,,,orange,I
0.0,7.0,3.0,1.0,5.0,5.0,427.5054119061678,8.0,0.0,part_2,go,450.0,350.0,1.0,,,,,,,,,blue,square
0.0,2.0,2.0,0.0,5.0,5.0,418.2580319466069,8.0,0.0,part_2,go,450.0,350.0,1.0,,,,,,,,,white,cross
0.0,3.0,3.0,0.0,5.0,5.0,474.2313090246171,8.0,0.0,part_2,go,450.0,350.0,1.0,,,,,,,,,green,hexagon
0.0,5.0,1.0,1.0,5.0,5.0,361.4148959750309,8.0,0.0,part_2,stop,450.0,350.0,3.0,,,,,,,,,cyan,triangle
0.0,5.0,1.0,1.0,6.0,6.0,466.3107499945909,8.0,0.0,part_2,go,400.0,350.0,1.0,,,,,,,,,cyan,triangle
0.0,6.0,2.0,1.0,6.0,6.0,527.8646500082687,8.0,0.0,part_2,go,400.0,350.0,1.0,,,,,,,,,gray,circle
0.0,8.0,4.0,1.0,5.0,5.0,526.6122549073771,8.0,0.0,part_2,go,400.0,350.0,1.0,,,,,,,,,orange,I
0.0,6.0,2.0,1.0,5.0,5.0,320.0171419885009,8.0,0.0,part_2,stop,400.0,350.0,3.0,,,,,,,,,gray,circle
0.0,1.0,1.0,0.0,5.0,5.0,456.0033780289814,8.0,0.0,part_2,go,350.0,350.0,1.0,,,,,,,,,magenta,diamond
0.0,5.0,1.0,1.0,5.0,5.0,462.5798850320279,8.0,0.0,part_2,stop,350.0,350.0,3.0,,,,,,,,,cyan,triangle
0.0,1.0,1.0,0.0,5.0,5.0,518.0476519744843,8.0,0.0,part_2,go,300.0,350.0,1.0,,,,,,,,,magenta,diamond
0.0,3.0,3.0,0.0,6.0,6.0,494.3258449202403,8.0,0.0,part_2,go,300.0,350.0,1.0,,,,,,,,,green,hexagon
0.0,4.0,4.0,0.0,6.0,6.0,366.1537779262289,8.0,0.0,part_2,go,300.0,350.0,1.0,,,,,,,,,yellow,flipped triangle
0.0,7.0,3.0,1.0,6.0,6.0,426.0262220632285,8.0,0.0,part_2,stop,300.0,350.0,3.0,,,,,,,,,blue,square
0.0,3.0,3.0,0.0,5.0,5.0,530.5588280316442,8.0,0.0,part_2,go,300.0,300.0,1.0,,,,,,,,,green,hexagon
0.0,6.0,2.0,1.0,6.0,6.0,553.6609900882468,8.0,0.0,part_2,go,300.0,300.0,1.0,,,,,,,,,gray,circle
0.0,4.0,4.0,0.0,6.0,6.0,512.9633360775188,8.0,0.0,part_2,go,300.0,300.0,1.0,,,,,,,,,yellow,flipped triangle
0.0,7.0,3.0,1.0,5.0,5.0,392.5850299419835,8.0,0.0,part_2,stop,300.0,300.0,3.0,,,,,,,,,blue,square
0.0,5.0,1.0,1.0,6.0,0.0,0.0,8.0,0.0,part_2,stop,250.0,300.0,4.0,,,,,,,,,cyan,triangle
0.0,4.0,4.0,0.0,5.0,5.0,545.6384690478444,8.0,0.0,part_2,go,250.0,350.0,1.0,,,,,,,,,yellow,flipped triangle
0.0,3.0,3.0,0.0,5.0,5.0,488.8078939402476,8.0,0.0,part_2,go,250.0,350.0,1.0,,,,,,,,,green,hexagon
0.0,5.0,1.0,1.0,7.0,1.0,1670.8190549999954,1.0,1.0,part_3,go,0.0,0.0,0.0,54.0,1.0,54.0,108.0,270.0,162.0,324.0,216.0,cyan,triangle
0.0,2.0,2.0,0.0,7.0,2.0,1438.7260839999954,1.0,1.0,part_3,go,0.0,0.0,0.0,34.0,1.0,136.0,34.0,204.0,102.0,170.0,68.0,white,cross
0.0,2.0,2.0,0.0,7.0,6.0,2596.4476380000006,1.0,1.0,part_3,go,0.0,0.0,0.0,54.0,1.0,324.0,216.0,270.0,108.0,162.0,54.0,white,cross
0.0,6.0,2.0,1.0,7.0,6.0,1976.7113660000036,1.0,1.0,part_3,go,0.0,0.0,0.0,54.0,1.0,108.0,162.0,270.0,216.0,324.0,54.0,gray,circle
0.0,1.0,1.0,0.0,7.0,6.0,1231.627880000005,1.0,1.0,part_3,go,0.0,0.0,0.0,39.0,1.0,78.0,117.0,156.0,195.0,234.0,39.0,magenta,diamond
0.0,7.0,3.0,1.0,7.0,4.0,818.9180429999965,1.0,1.0,part_3,go,0.0,0.0,0.0,54.0,1.0,216.0,162.0,270.0,54.0,108.0,324.0,blue,square
0.0,4.0,4.0,0.0,7.0,2.0,2555.8357809999848,1.0,1.0,part_3,go,0.0,0.0,0.0,234.0,6.0,78.0,234.0,195.0,117.0,39.0,156.0,yellow,flipped triangle
0.0,8.0,4.0,1.0,7.0,5.0,1125.8079520000024,1.0,1.0,part_3,go,0.0,0.0,0.0,117.0,3.0,78.0,195.0,156.0,234.0,117.0,39.0,orange,I
0.0,5.0,1.0,1.0,7.0,3.0,1694.4566379999912,1.0,1.0,part_3,go,0.0,0.0,0.0,220.0,5.0,88.0,264.0,220.0,132.0,44.0,176.0,cyan,triangle
0.0,6.0,2.0,1.0,7.0,6.0,934.4128589999912,1.0,1.0,part_3,go,0.0,0.0,0.0,49.0,1.0,245.0,196.0,98.0,147.0,294.0,49.0,gray,circle
0.0,5.0,1.0,1.0,7.0,1.0,2610.1380279999944,1.0,1.0,part_3,go,0.0,0.0,0.0,117.0,3.0,117.0,78.0,234.0,39.0,195.0,156.0,cyan,triangle
0.0,6.0,2.0,1.0,7.0,6.0,1352.744606000016,1.0,1.0,part_3,go,0.0,0.0,0.0,294.0,6.0,98.0,196.0,49.0,245.0,147.0,294.0,gray,circle
0.0,2.0,2.0,0.0,7.0,3.0,1021.791109999981,1.0,1.0,part_3,go,0.0,0.0,0.0,147.0,3.0,294.0,49.0,147.0,98.0,245.0,196.0,white,cross
0.0,1.0,1.0,0.0,7.0,4.0,757.0469929999888,1.0,1.0,part_3,go,0.0,0.0,0.0,220.0,5.0,132.0,264.0,44.0,220.0,176.0,88.0,magenta,diamond
0.0,6.0,2.0,1.0,7.0,3.0,692.4934529999973,1.0,1.0,part_3,go,0.0,0.0,0.0,204.0,6.0,34.0,102.0,204.0,68.0,136.0,170.0,gray,circle
0.0,1.0,1.0,0.0,7.0,6.0,959.1751300000057,1.0,1.0,part_3,go,0.0,0.0,0.0,324.0,6.0,162.0,270.0,108.0,216.0,54.0,324.0,magenta,diamond
0.0,6.0,2.0,1.0,7.0,2.0,1034.4625379999854,1.0,1.0,part_3,go,0.0,0.0,0.0,102.0,3.0,34.0,102.0,170.0,204.0,136.0,68.0,gray,circle
0.0,4.0,4.0,0.0,7.0,4.0,1387.8375319999918,1.0,1.0,part_3,go,0.0,0.0,0.0,136.0,4.0,34.0,68.0,204.0,136.0,170.0,102.0,yellow,flipped triangle
0.0,5.0,1.0,1.0,7.0,3.0,788.8531240000134,1.0,1.0,part_3,go,0.0,0.0,0.0,108.0,2.0,270.0,54.0,108.0,324.0,216.0,162.0,cyan,triangle
0.0,3.0,3.0,0.0,7.0,4.0,837.7458420000039,1.0,1.0,part_3,go,0.0,0.0,0.0,108.0,2.0,162.0,54.0,270.0,108.0,324.0,216.0,green,hexagon
0.0,8.0,4.0,1.0,7.0,3.0,797.3911120000139,2.0,1.0,part_3,go,0.0,0.0,0.0,156.0,4.0,78.0,39.0,156.0,234.0,195.0,117.0,orange,I
0.0,1.0,1.0,0.0,7.0,5.0,1226.353740999997,2.0,1.0,part_3,go,0.0,0.0,0.0,98.0,2.0,196.0,49.0,147.0,294.0,98.0,245.0,magenta,diamond
0.0,8.0,4.0,1.0,7.0,2.0,1321.874871999995,2.0,1.0,part_3,go,0.0,0.0,0.0,196.0,4.0,147.0,196.0,245.0,49.0,294.0,98.0,orange,I
0.0,1.0,1.0,0.0,7.0,3.0,760.8530569999914,2.0,1.0,part_3,go,0.0,0.0,0.0,170.0,5.0,102.0,68.0,170.0,136.0,204.0,34.0,magenta,diamond
0.0,4.0,4.0,0.0,7.0,5.0,1003.0719320000117,2.0,1.0,part_3,go,0.0,0.0,0.0,195.0,5.0,234.0,117.0,39.0,78.0,195.0,156.0,yellow,flipped triangle
0.0,5.0,1.0,1.0,7.0,2.0,660.4770470000005,2.0,1.0,part_3,go,0.0,0.0,0.0,102.0,3.0,204.0,102.0,136.0,34.0,170.0,68.0,cyan,triangle
0.0,2.0,2.0,0.0,7.0,3.0,712.7332280000189,2.0,1.0,part_3,go,0.0,0.0,0.0,102.0,3.0,136.0,68.0,102.0,34.0,204.0,170.0,white,cross
0.0,3.0,3.0,0.0,7.0,2.0,838.3466599999849,2.0,1.0,part_3,go,0.0,0.0,0.0,156.0,4.0,78.0,156.0,234.0,195.0,117.0,39.0,green,hexagon
0.0,4.0,4.0,0.0,7.0,3.0,631.6903680000223,2.0,1.0,part_3,go,0.0,0.0,0.0,162.0,3.0,216.0,108.0,162.0,54.0,324.0,270.0,yellow,flipped triangle
0.0,7.0,3.0,1.0,7.0,4.0,713.6697760000175,2.0,1.0,part_3,go,0.0,0.0,0.0,108.0,2.0,162.0,270.0,216.0,108.0,324.0,54.0,blue,square
0.0,2.0,2.0,0.0,7.0,5.0,1437.9758059999972,2.0,1.0,part_3,go,0.0,0.0,0.0,147.0,3.0,245.0,49.0,98.0,294.0,147.0,196.0,white,cross
0.0,6.0,2.0,1.0,7.0,3.0,1116.411739,2.0,1.0,part_3,go,0.0,0.0,0.0,54.0,1.0,108.0,162.0,54.0,270.0,216.0,324.0,gray,circle
0.0,7.0,3.0,1.0,7.0,2.0,942.1375229999852,2.0,1.0,part_3,go,0.0,0.0,0.0,49.0,1.0,294.0,49.0,245.0,196.0,98.0,147.0,blue,square
0.0,2.0,2.0,0.0,7.0,3.0,1231.5939609999873,2.0,1.0,part_3,go,0.0,0.0,0.0,176.0,4.0,88.0,44.0,176.0,264.0,132.0,220.0,white,cross
0.0,3.0,3.0,0.0,7.0,4.0,1184.3140920000224,2.0,1.0,part_3,go,0.0,0.0,0.0,245.0,5.0,294.0,196.0,98.0,245.0,147.0,49.0,green,hexagon
0.0,3.0,3.0,0.0,7.0,2.0,1037.191526000015,2.0,1.0,part_3,go,0.0,0.0,0.0,324.0,6.0,270.0,324.0,54.0,162.0,216.0,108.0,green,hexagon
0.0,4.0,4.0,0.0,7.0,3.0,787.0303910000302,2.0,1.0,part_3,go,0.0,0.0,0.0,204.0,6.0,68.0,102.0,204.0,34.0,136.0,170.0,yellow,flipped triangle
0.0,1.0,1.0,0.0,7.0,5.0,728.5174959999949,2.0,1.0,part_3,go,0.0,0.0,0.0,147.0,3.0,294.0,245.0,49.0,98.0,147.0,196.0,magenta,diamond
0.0,2.0,2.0,0.0,7.0,6.0,248.8827760000163,2.0,1.0,part_3,go,0.0,0.0,0.0,156.0,4.0,234.0,39.0,117.0,78.0,195.0,156.0,white,cross
0.0,3.0,3.0,0.0,7.0,1.0,664.6809310000208,2.0,1.0,part_3,go,0.0,0.0,0.0,136.0,4.0,136.0,34.0,68.0,102.0,204.0,170.0,green,hexagon
0.0,5.0,1.0,1.0,7.0,3.0,705.0177409999492,3.0,1.0,part_3,go,0.0,0.0,0.0,98.0,2.0,245.0,294.0,98.0,147.0,49.0,196.0,cyan,triangle
0.0,6.0,2.0,1.0,7.0,5.0,1377.8797649999888,3.0,1.0,part_3,go,0.0,0.0,0.0,264.0,6.0,44.0,88.0,132.0,176.0,264.0,220.0,gray,circle
0.0,2.0,2.0,0.0,7.0,3.0,805.9004030000096,3.0,1.0,part_3,go,0.0,0.0,0.0,176.0,4.0,220.0,132.0,176.0,88.0,264.0,44.0,white,cross
0.0,1.0,1.0,0.0,7.0,2.0,981.1830800000508,3.0,1.0,part_3,go,0.0,0.0,0.0,44.0,1.0,264.0,44.0,220.0,88.0,176.0,132.0,magenta,diamond
0.0,2.0,2.0,0.0,7.0,5.0,742.7771060000055,3.0,1.0,part_3,go,0.0,0.0,0.0,162.0,3.0,216.0,54.0,108.0,324.0,162.0,270.0,white,cross
0.0,7.0,3.0,1.0,7.0,3.0,1041.246785999988,3.0,1.0,part_3,go,0.0,0.0,0.0,170.0,5.0,68.0,34.0,170.0,102.0,204.0,136.0,blue,square
0.0,7.0,3.0,1.0,7.0,5.0,1217.7384760000225,3.0,1.0,part_3,go,0.0,0.0,0.0,132.0,3.0,264.0,44.0,220.0,88.0,132.0,176.0,blue,square
0.0,5.0,1.0,1.0,7.0,6.0,2124.6419109999692,3.0,1.0,part_3,go,0.0,0.0,0.0,147.0,3.0,196.0,49.0,98.0,245.0,294.0,147.0,cyan,triangle
0.0,7.0,3.0,1.0,7.0,6.0,2707.8631429999973,3.0,1.0,part_3,go,0.0,0.0,0.0,156.0,4.0,78.0,195.0,117.0,234.0,39.0,156.0,blue,square
0.0,8.0,4.0,1.0,7.0,3.0,2527.8350549999686,3.0,1.0,part_3,go,0.0,0.0,0.0,102.0,3.0,170.0,136.0,102.0,68.0,204.0,34.0,orange,I
0.0,7.0,3.0,1.0,7.0,3.0,1135.0402680000116,3.0,1.0,part_3,go,0.0,0.0,0.0,117.0,3.0,156.0,39.0,117.0,234.0,78.0,195.0,blue,square
0.0,7.0,3.0,1.0,7.0,3.0,1183.2172819999869,3.0,1.0,part_3,go,0.0,0.0,0.0,147.0,3.0,49.0,98.0,147.0,245.0,294.0,196.0,blue,square
0.0,8.0,4.0,1.0,7.0,4.0,1121.2818570000422,3.0,1.0,part_3,go,0.0,0.0,0.0,176.0,4.0,132.0,44.0,88.0,176.0,264.0,220.0,orange,I
0.0,3.0,3.0,0.0,7.0,5.0,1434.324007999976,3.0,1.0,part_3,go,0.0,0.0,0.0,176.0,4.0,132.0,44.0,264.0,220.0,176.0,88.0,green,hexagon
0.0,6.0,2.0,1.0,7.0,5.0,1111.7905419999945,3.0,1.0,part_3,go,0.0,0.0,0.0,117.0,3.0,234.0,78.0,156.0,39.0,117.0,195.0,gray,circle
0.0,5.0,1.0,1.0,7.0,6.0,1055.0349879999883,3.0,1.0,part_3,go,0.0,0.0,0.0,156.0,4.0,78.0,234.0,195.0,39.0,117.0,156.0,cyan,triangle
0.0,7.0,3.0,1.0,7.0,5.0,1474.510172000009,3.0,1.0,part_3,go,0.0,0.0,0.0,204.0,6.0,34.0,136.0,170.0,68.0,204.0,102.0,blue,square
0.0,6.0,2.0,1.0,7.0,4.0,658.8747909999597,3.0,1.0,part_3,go,0.0,0.0,0.0,44.0,1.0,132.0,264.0,220.0,44.0,176.0,88.0,gray,circle
0.0,1.0,1.0,0.0,7.0,3.0,1241.577506999988,3.0,1.0,part_3,go,0.0,0.0,0.0,204.0,6.0,68.0,34.0,204.0,102.0,136.0,170.0,magenta,diamond
0.0,3.0,3.0,0.0,7.0,6.0,1450.3260889999865,3.0,1.0,part_3,go,0.0,0.0,0.0,176.0,4.0,132.0,264.0,220.0,88.0,44.0,176.0,green,hexagon
0.0,4.0,4.0,0.0,7.0,4.0,1289.4743930000343,4.0,1.0,part_3,go,0.0,0.0,0.0,49.0,1.0,294.0,196.0,98.0,49.0,147.0,245.0,yellow,flipped triangle
0.0,2.0,2.0,0.0,7.0,4.0,2046.8615600000248,4.0,1.0,part_3,go,0.0,0.0,0.0,234.0,6.0,117.0,195.0,39.0,234.0,78.0,156.0,white,cross
0.0,3.0,3.0,0.0,7.0,6.0,1330.292872999962,4.0,1.0,part_3,go,0.0,0.0,0.0,170.0,5.0,102.0,34.0,204.0,136.0,68.0,170.0,green,hexagon
0.0,8.0,4.0,1.0,7.0,5.0,1161.466507,4.0,1.0,part_3,go,0.0,0.0,0.0,136.0,4.0,204.0,170.0,34.0,68.0,136.0,102.0,orange,I
0.0,7.0,3.0,1.0,7.0,4.0,951.0972359999528,4.0,1.0,part_3,go,0.0,0.0,0.0,132.0,3.0,88.0,264.0,44.0,132.0,220.0,176.0,blue,square
0.0,5.0,1.0,1.0,7.0,2.0,1772.641589999978,4.0,1.0,part_3,go,0.0,0.0,0.0,204.0,6.0,170.0,204.0,34.0,102.0,136.0,68.0,cyan,triangle
0.0,1.0,1.0,0.0,7.0,3.0,881.5225980000037,4.0,1.0,part_3,go,0.0,0.0,0.0,156.0,4.0,78.0,117.0,156.0,195.0,39.0,234.0,magenta,diamond
0.0,5.0,1.0,1.0,7.0,5.0,655.5481370000393,4.0,1.0,part_3,go,0.0,0.0,0.0,220.0,5.0,88.0,44.0,132.0,176.0,220.0,264.0,cyan,triangle
0.0,1.0,1.0,0.0,7.0,5.0,769.266081000012,4.0,1.0,part_3,go,0.0,0.0,0.0,270.0,5.0,324.0,54.0,162.0,216.0,270.0,108.0,magenta,diamond
0.0,8.0,4.0,1.0,7.0,4.0,260.2745140000024,4.0,1.0,part_3,go,0.0,0.0,0.0,132.0,3.0,88.0,176.0,264.0,132.0,44.0,220.0,orange,I
0.0,4.0,4.0,0.0,7.0,6.0,125.7080100000394,4.0,1.0,part_3,go,0.0,0.0,0.0,132.0,3.0,264.0,88.0,176.0,220.0,44.0,132.0,yellow,flipped triangle
0.0,8.0,4.0,1.0,7.0,2.0,1261.4225050000414,4.0,1.0,part_3,go,0.0,0.0,0.0,270.0,5.0,324.0,270.0,54.0,108.0,162.0,216.0,orange,I
0.0,6.0,2.0,1.0,7.0,3.0,941.7285870000568,4.0,1.0,part_3,go,0.0,0.0,0.0,78.0,2.0,39.0,117.0,78.0,234.0,156.0,195.0,gray,circle
0.0,3.0,3.0,0.0,7.0,3.0,897.305408999955,4.0,1.0,part_3,go,0.0,0.0,0.0,245.0,5.0,294.0,196.0,245.0,49.0,147.0,98.0,green,hexagon
0.0,4.0,4.0,0.0,7.0,3.0,873.0956059999926,4.0,1.0,part_3,go,0.0,0.0,0.0,264.0,6.0,88.0,220.0,264.0,44.0,132.0,176.0,yellow,flipped triangle
0.0,3.0,3.0,0.0,7.0,4.0,1108.062106000034,4.0,1.0,part_3,go,0.0,0.0,0.0,156.0,4.0,117.0,78.0,39.0,156.0,195.0,234.0,green,hexagon
0.0,4.0,4.0,0.0,7.0,3.0,1116.3473419999264,4.0,1.0,part_3,go,0.0,0.0,0.0,245.0,5.0,294.0,49.0,245.0,98.0,147.0,196.0,yellow,flipped triangle
0.0,8.0,4.0,1.0,7.0,3.0,2726.01927900007,4.0,1.0,part_3,go,0.0,0.0,0.0,216.0,4.0,162.0,108.0,216.0,270.0,324.0,54.0,orange,I
0.0,4.0,4.0,0.0,7.0,4.0,969.1465490000156,4.0,1.0,part_3,go,0.0,0.0,0.0,216.0,4.0,162.0,324.0,54.0,216.0,108.0,270.0,yellow,flipped triangle
0.0,8.0,4.0,1.0,7.0,5.0,1113.7128079999457,4.0,1.0,part_3,go,0.0,0.0,0.0,98.0,2.0,49.0,196.0,245.0,294.0,98.0,147.0,orange,I
