raw_reward_magnitude,stim_reward,stepwise_reward_magnitude,paired_with_stopping,quadrant,response,reaction_time,block,num_trial_presentations,which_part,stop_signal_trial_type,left_SSD,right_SSD,accuracy,chosen_bidding_amount,chosen_bidding_level,possible_bid_1,possible_bid_2,possible_bid_3,possible_bid_4,possible_bid_5,possible_bid_6,color_text,shape_text
399.0,4.0,4.0,0.0,3.0,3.0,360.2461460104678,1.0,1.0,part_1,,,,,,,,,,,,,yellow,I
94.0,2.0,2.0,0.0,2.0,2.0,316.2062620103825,1.0,1.0,part_1,,,,,,,,,,,,,gray,flipped triangle
121.0,6.0,2.0,1.0,4.0,4.0,323.2415209931787,1.0,1.0,part_1,,,,,,,,,,,,,orange,diamond
204.0,7.0,3.0,1.0,2.0,2.0,366.464887978509,1.0,1.0,part_1,,,,,,,,,,,,,green,triangle
189.0,3.0,3.0,0.0,4.0,4.0,300.7113240018952,1.0,1.0,part_1,,,,,,,,,,,,,cyan,square
0.0,5.0,0.0,1.0,1.0,1.0,265.7864720094949,1.0,1.0,part_1,,,,,,,,,,,,,blue,cross
84.0,2.0,2.0,0.0,1.0,1.0,300.4119649995118,1.0,1.0,part_1,,,,,,,,,,,,,gray,flipped triangle
0.0,3.0,0.0,0.0,4.0,4.0,316.6524379921611,1.0,1.0,part_1,,,,,,,,,,,,,cyan,square
217.0,7.0,3.0,1.0,2.0,2.0,271.0582140134647,1.0,1.0,part_1,,,,,,,,,,,,,green,triangle
411.0,4.0,4.0,0.0,4.0,4.0,315.9260370011907,1.0,1.0,part_1,,,,,,,,,,,,,yellow,I
379.0,4.0,4.0,0.0,1.0,1.0,271.7417759995442,1.0,1.0,part_1,,,,,,,,,,,,,yellow,I
39.0,5.0,1.0,1.0,3.0,3.0,371.8037600046955,1.0,1.0,part_1,,,,,,,,,,,,,blue,cross
399.0,4.0,4.0,0.0,3.0,3.0,331.8787440075539,1.0,1.0,part_1,,,,,,,,,,,,,yellow,I
56.0,5.0,1.0,1.0,2.0,2.0,287.1382609882857,1.0,1.0,part_1,,,,,,,,,,,,,blue,cross
422.0,4.0,4.0,0.0,4.0,4.0,291.4577180054039,1.0,1.0,part_1,,,,,,,,,,,,,yellow,I
102.0,6.0,2.0,1.0,2.0,2.0,325.4177340131718,1.0,1.0,part_1,,,,,,,,,,,,,orange,diamond
387.0,8.0,4.0,1.0,4.0,4.0,322.9568189999554,1.0,1.0,part_1,,,,,,,,,,,,,magenta,hexagon
378.0,8.0,4.0,1.0,3.0,3.0,321.0453540086746,1.0,1.0,part_1,,,,,,,,,,,,,magenta,hexagon
116.0,6.0,2.0,1.0,4.0,4.0,388.685126992641,1.0,1.0,part_1,,,,,,,,,,,,,orange,diamond
402.0,4.0,4.0,0.0,2.0,2.0,368.8072920194827,1.0,1.0,part_1,,,,,,,,,,,,,yellow,I
96.0,2.0,2.0,0.0,1.0,1.0,335.4041259735822,1.0,1.0,part_1,,,,,,,,,,,,,gray,flipped triangle
202.0,3.0,3.0,0.0,3.0,3.0,338.0864180217031,1.0,1.0,part_1,,,,,,,,,,,,,cyan,square
0.0,8.0,0.0,1.0,1.0,1.0,320.7641379849519,1.0,1.0,part_1,,,,,,,,,,,,,magenta,hexagon
205.0,3.0,3.0,0.0,2.0,2.0,285.880052979337,1.0,1.0,part_1,,,,,,,,,,,,,cyan,square
187.0,7.0,3.0,1.0,4.0,4.0,328.2387140206992,1.0,1.0,part_1,,,,,,,,,,,,,green,triangle
104.0,2.0,2.0,0.0,2.0,2.0,279.7341119730845,1.0,1.0,part_1,,,,,,,,,,,,,gray,flipped triangle
401.0,8.0,4.0,1.0,2.0,2.0,369.411266001407,1.0,1.0,part_1,,,,,,,,,,,,,magenta,hexagon
0.0,8.0,0.0,1.0,4.0,4.0,337.82687201164657,1.0,1.0,part_1,,,,,,,,,,,,,magenta,hexagon
402.0,8.0,4.0,1.0,1.0,1.0,275.4602300119586,1.0,1.0,part_1,,,,,,,,,,,,,magenta,hexagon
29.0,1.0,1.0,0.0,2.0,2.0,320.0162620050832,1.0,1.0,part_1,,,,,,,,,,,,,white,circle
121.0,6.0,2.0,1.0,1.0,1.0,344.6936059917789,1.0,2.0,part_1,,,,,,,,,,,,,orange,diamond
114.0,2.0,2.0,0.0,4.0,4.0,312.4179570004344,1.0,1.0,part_1,,,,,,,,,,,,,gray,flipped triangle
207.0,7.0,3.0,1.0,3.0,3.0,315.2888210024684,1.0,1.0,part_1,,,,,,,,,,,,,green,triangle
32.0,1.0,1.0,0.0,1.0,1.0,320.6456690095365,1.0,1.0,part_1,,,,,,,,,,,,,white,circle
51.0,5.0,1.0,1.0,1.0,1.0,453.7131839897483,1.0,1.0,part_1,,,,,,,,,,,,,blue,cross
0.0,6.0,0.0,1.0,2.0,2.0,411.6441610094625,1.0,1.0,part_1,,,,,,,,,,,,,orange,diamond
184.0,7.0,3.0,1.0,4.0,4.0,277.7027539850678,1.0,1.0,part_1,,,,,,,,,,,,,green,triangle
25.0,5.0,1.0,1.0,4.0,4.0,355.1473719999194,1.0,1.0,part_1,,,,,,,,,,,,,blue,cross
117.0,2.0,2.0,0.0,3.0,3.0,327.1248230012133,1.0,1.0,part_1,,,,,,,,,,,,,gray,flipped triangle
125.0,2.0,2.0,0.0,1.0,1.0,266.8479160056449,1.0,1.0,part_1,,,,,,,,,,,,,gray,flipped triangle
28.0,5.0,1.0,1.0,4.0,4.0,311.73577197478147,1.0,1.0,part_1,,,,,,,,,,,,,blue,cross
0.0,5.0,0.0,1.0,2.0,2.0,326.8553969974164,1.0,1.0,part_1,,,,,,,,,,,,,blue,cross
385.0,4.0,4.0,0.0,3.0,3.0,425.7144239963963,1.0,1.0,part_1,,,,,,,,,,,,,yellow,I
0.0,7.0,0.0,1.0,3.0,3.0,344.2544520075898,1.0,1.0,part_1,,,,,,,,,,,,,green,triangle
122.0,6.0,2.0,1.0,1.0,1.0,316.2503100174945,1.0,1.0,part_1,,,,,,,,,,,,,orange,diamond
76.0,6.0,2.0,1.0,3.0,3.0,343.4027609764598,1.0,1.0,part_1,,,,,,,,,,,,,orange,diamond
0.0,3.0,0.0,0.0,1.0,1.0,379.8268369864672,1.0,1.0,part_1,,,,,,,,,,,,,cyan,square
179.0,3.0,3.0,0.0,1.0,1.0,340.0668740214314,1.0,1.0,part_1,,,,,,,,,,,,,cyan,square
0.0,1.0,0.0,0.0,4.0,4.0,558.1489100004546,1.0,2.0,part_1,,,,,,,,,,,,,white,circle
412.0,4.0,4.0,0.0,3.0,3.0,321.6905299923382,1.0,1.0,part_1,,,,,,,,,,,,,yellow,I
207.0,3.0,3.0,0.0,2.0,2.0,338.9357100240886,1.0,1.0,part_1,,,,,,,,,,,,,cyan,square
0.0,6.0,0.0,1.0,4.0,4.0,323.3907829853706,1.0,1.0,part_1,,,,,,,,,,,,,orange,diamond
218.0,7.0,3.0,1.0,3.0,3.0,311.2269200209994,1.0,1.0,part_1,,,,,,,,,,,,,green,triangle
191.0,3.0,3.0,0.0,2.0,2.0,323.891175998142,1.0,1.0,part_1,,,,,,,,,,,,,cyan,square
0.0,6.0,0.0,1.0,3.0,3.0,278.3269899955485,1.0,1.0,part_1,,,,,,,,,,,,,orange,diamond
202.0,7.0,3.0,1.0,3.0,3.0,331.4500949927605,1.0,1.0,part_1,,,,,,,,,,,,,green,triangle
0.0,4.0,0.0,0.0,2.0,2.0,311.0385369800497,1.0,1.0,part_1,,,,,,,,,,,,,yellow,I
176.0,3.0,3.0,0.0,3.0,3.0,324.2267339956015,1.0,1.0,part_1,,,,,,,,,,,,,cyan,square
0.0,7.0,0.0,1.0,1.0,1.0,284.0052739775274,1.0,1.0,part_1,,,,,,,,,,,,,green,triangle
36.0,5.0,1.0,1.0,2.0,2.0,360.077960009221,1.0,1.0,part_1,,,,,,,,,,,,,blue,cross
118.0,6.0,2.0,1.0,3.0,3.0,266.9076160236727,1.0,1.0,part_1,,,,,,,,,,,,,orange,diamond
56.0,1.0,1.0,0.0,1.0,1.0,295.4340820142533,1.0,1.0,part_1,,,,,,,,,,,,,white,circle
217.0,3.0,3.0,0.0,4.0,4.0,310.8254849794321,1.0,1.0,part_1,,,,,,,,,,,,,cyan,square
96.0,2.0,2.0,0.0,4.0,4.0,370.6714480067603,1.0,1.0,part_1,,,,,,,,,,,,,gray,flipped triangle
422.0,8.0,4.0,1.0,4.0,4.0,349.9911190010607,1.0,1.0,part_1,,,,,,,,,,,,,magenta,hexagon
0.0,7.0,0.0,1.0,3.0,3.0,340.1796789839864,1.0,1.0,part_1,,,,,,,,,,,,,green,triangle
0.0,3.0,0.0,0.0,3.0,3.0,328.0203249887563,1.0,1.0,part_1,,,,,,,,,,,,,cyan,square
66.0,1.0,1.0,0.0,2.0,2.0,362.9331639967859,1.0,1.0,part_1,,,,,,,,,,,,,white,circle
69.0,5.0,1.0,1.0,1.0,1.0,368.4425959945656,1.0,1.0,part_1,,,,,,,,,,,,,blue,cross
87.0,2.0,2.0,0.0,2.0,2.0,335.5164169915952,1.0,1.0,part_1,,,,,,,,,,,,,gray,flipped triangle
179.0,7.0,3.0,1.0,1.0,1.0,355.2346710057463,1.0,1.0,part_1,,,,,,,,,,,,,green,triangle
54.0,5.0,1.0,1.0,2.0,2.0,385.1571980048902,1.0,1.0,part_1,,,,,,,,,,,,,blue,cross
121.0,2.0,2.0,0.0,3.0,3.0,363.9570619852748,1.0,1.0,part_1,,,,,,,,,,,,,gray,flipped triangle
202.0,7.0,3.0,1.0,2.0,2.0,266.0729749768507,1.0,1.0,part_1,,,,,,,,,,,,,green,triangle
77.0,6.0,2.0,1.0,1.0,1.0,339.5586489932611,1.0,1.0,part_1,,,,,,,,,,,,,orange,diamond
44.0,1.0,1.0,0.0,4.0,4.0,308.3369949890766,1.0,1.0,part_1,,,,,,,,,,,,,white,circle
60.0,5.0,1.0,1.0,1.0,1.0,373.4129020012915,1.0,1.0,part_1,,,,,,,,,,,,,blue,cross
101.0,6.0,2.0,1.0,1.0,1.0,361.8187370011583,1.0,1.0,part_1,,,,,,,,,,,,,orange,diamond
39.0,1.0,1.0,0.0,4.0,4.0,430.3794900188222,1.0,1.0,part_1,,,,,,,,,,,,,white,circle
0.0,6.0,0.0,1.0,3.0,3.0,323.4976889798417,1.0,1.0,part_1,,,,,,,,,,,,,orange,diamond
31.0,1.0,1.0,0.0,2.0,2.0,328.2043159997556,1.0,1.0,part_1,,,,,,,,,,,,,white,circle
0.0,5.0,0.0,1.0,1.0,1.0,406.2358149967622,1.0,1.0,part_1,,,,,,,,,,,,,blue,cross
25.0,1.0,1.0,0.0,3.0,3.0,349.1667659836821,1.0,1.0,part_1,,,,,,,,,,,,,white,circle
208.0,7.0,3.0,1.0,1.0,1.0,382.1112200093921,1.0,1.0,part_1,,,,,,,,,,,,,green,triangle
102.0,2.0,2.0,0.0,4.0,4.0,323.437017010292,1.0,1.0,part_1,,,,,,,,,,,,,gray,flipped triangle
98.0,6.0,2.0,1.0,2.0,2.0,330.1836339815054,1.0,1.0,part_1,,,,,,,,,,,,,orange,diamond
0.0,8.0,0.0,1.0,3.0,3.0,331.9274540117476,1.0,1.0,part_1,,,,,,,,,,,,,magenta,hexagon
0.0,2.0,0.0,0.0,4.0,4.0,360.7042469957378,1.0,1.0,part_1,,,,,,,,,,,,,gray,flipped triangle
208.0,3.0,3.0,0.0,4.0,4.0,310.8801849884912,1.0,1.0,part_1,,,,,,,,,,,,,cyan,square
191.0,7.0,3.0,1.0,3.0,3.0,357.5059190043248,1.0,1.0,part_1,,,,,,,,,,,,,green,triangle
0.0,6.0,0.0,1.0,2.0,2.0,369.0415780001785,1.0,1.0,part_1,,,,,,,,,,,,,orange,diamond
60.0,5.0,1.0,1.0,2.0,2.0,315.4047259886283,1.0,1.0,part_1,,,,,,,,,,,,,blue,cross
0.0,2.0,0.0,0.0,3.0,3.0,327.8598800243344,1.0,2.0,part_1,,,,,,,,,,,,,gray,flipped triangle
69.0,5.0,1.0,1.0,4.0,4.0,323.6483509826939,1.0,1.0,part_1,,,,,,,,,,,,,blue,cross
205.0,7.0,3.0,1.0,4.0,4.0,328.343089990085,1.0,1.0,part_1,,,,,,,,,,,,,green,triangle
202.0,3.0,3.0,0.0,4.0,4.0,348.8682929892093,1.0,1.0,part_1,,,,,,,,,,,,,cyan,square
72.0,5.0,1.0,1.0,2.0,2.0,607.2150969994254,1.0,1.0,part_1,,,,,,,,,,,,,blue,cross
179.0,7.0,3.0,1.0,3.0,3.0,311.3598469935823,1.0,1.0,part_1,,,,,,,,,,,,,green,triangle
217.0,7.0,3.0,1.0,2.0,2.0,348.7342779990285,1.0,1.0,part_1,,,,,,,,,,,,,green,triangle
0.0,8.0,0.0,1.0,3.0,3.0,352.9047540214378,1.0,1.0,part_1,,,,,,,,,,,,,magenta,hexagon
186.0,3.0,3.0,0.0,3.0,3.0,346.8585259979591,2.0,1.0,part_1,,,,,,,,,,,,,cyan,square
415.0,8.0,4.0,1.0,1.0,1.0,314.4945559906773,2.0,1.0,part_1,,,,,,,,,,,,,magenta,hexagon
381.0,8.0,4.0,1.0,4.0,4.0,311.7922740057111,2.0,1.0,part_1,,,,,,,,,,,,,magenta,hexagon
0.0,7.0,0.0,1.0,3.0,3.0,339.6209079946857,2.0,1.0,part_1,,,,,,,,,,,,,green,triangle
98.0,6.0,2.0,1.0,4.0,4.0,349.1522890108172,2.0,1.0,part_1,,,,,,,,,,,,,orange,diamond
185.0,7.0,3.0,1.0,1.0,1.0,306.2878850032575,2.0,1.0,part_1,,,,,,,,,,,,,green,triangle
400.0,8.0,4.0,1.0,2.0,2.0,377.0796580065507,2.0,1.0,part_1,,,,,,,,,,,,,magenta,hexagon
385.0,4.0,4.0,0.0,2.0,2.0,450.8786299847998,2.0,1.0,part_1,,,,,,,,,,,,,yellow,I
86.0,2.0,2.0,0.0,4.0,4.0,328.8857139996253,2.0,1.0,part_1,,,,,,,,,,,,,gray,flipped triangle
44.0,5.0,1.0,1.0,2.0,2.0,375.4814589919988,2.0,1.0,part_1,,,,,,,,,,,,,blue,cross
0.0,7.0,0.0,1.0,4.0,4.0,345.4112019971944,2.0,1.0,part_1,,,,,,,,,,,,,green,triangle
217.0,3.0,3.0,0.0,3.0,3.0,342.1596430125646,2.0,1.0,part_1,,,,,,,,,,,,,cyan,square
72.0,1.0,1.0,0.0,1.0,1.0,269.3661229859572,2.0,1.0,part_1,,,,,,,,,,,,,white,circle
213.0,7.0,3.0,1.0,4.0,4.0,298.4903390170075,2.0,1.0,part_1,,,,,,,,,,,,,green,triangle
57.0,5.0,1.0,1.0,3.0,3.0,375.4362989857327,2.0,1.0,part_1,,,,,,,,,,,,,blue,cross
116.0,2.0,2.0,0.0,4.0,4.0,371.6118860174902,2.0,1.0,part_1,,,,,,,,,,,,,gray,flipped triangle
0.0,2.0,0.0,0.0,3.0,3.0,352.7216729999054,2.0,1.0,part_1,,,,,,,,,,,,,gray,flipped triangle
185.0,3.0,3.0,0.0,2.0,2.0,363.1894919963088,2.0,1.0,part_1,,,,,,,,,,,,,cyan,square
198.0,7.0,3.0,1.0,1.0,1.0,465.7780030102003,2.0,1.0,part_1,,,,,,,,,,,,,green,triangle
27.0,1.0,1.0,0.0,4.0,4.0,302.4517440062482,2.0,1.0,part_1,,,,,,,,,,,,,white,circle
84.0,2.0,2.0,0.0,1.0,1.0,380.0623010029085,2.0,1.0,part_1,,,,,,,,,,,,,gray,flipped triangle
84.0,6.0,2.0,1.0,1.0,1.0,358.4926849871408,2.0,1.0,part_1,,,,,,,,,,,,,orange,diamond
390.0,8.0,4.0,1.0,1.0,1.0,475.2439190051518,2.0,1.0,part_1,,,,,,,,,,,,,magenta,hexagon
85.0,6.0,2.0,1.0,2.0,2.0,344.5150420011487,2.0,1.0,part_1,,,,,,,,,,,,,orange,diamond
0.0,7.0,0.0,1.0,1.0,1.0,379.5153770188335,2.0,1.0,part_1,,,,,,,,,,,,,green,triangle
61.0,5.0,1.0,1.0,3.0,3.0,391.6466310038231,2.0,1.0,part_1,,,,,,,,,,,,,blue,cross
47.0,1.0,1.0,0.0,4.0,4.0,309.4106419885065,2.0,1.0,part_1,,,,,,,,,,,,,white,circle
87.0,2.0,2.0,0.0,2.0,2.0,296.6675450152252,2.0,1.0,part_1,,,,,,,,,,,,,gray,flipped triangle
30.0,5.0,1.0,1.0,4.0,4.0,326.2050390185322,2.0,1.0,part_1,,,,,,,,,,,,,blue,cross
113.0,6.0,2.0,1.0,4.0,4.0,330.6134970043786,2.0,1.0,part_1,,,,,,,,,,,,,orange,diamond
213.0,3.0,3.0,0.0,3.0,3.0,337.7450280240737,2.0,1.0,part_1,,,,,,,,,,,,,cyan,square
85.0,2.0,2.0,0.0,3.0,3.0,333.8132850185502,2.0,1.0,part_1,,,,,,,,,,,,,gray,flipped triangle
67.0,1.0,1.0,0.0,4.0,4.0,331.1427130247466,2.0,1.0,part_1,,,,,,,,,,,,,white,circle
182.0,3.0,3.0,0.0,2.0,2.0,349.7339019959327,2.0,1.0,part_1,,,,,,,,,,,,,cyan,square
104.0,6.0,2.0,1.0,3.0,3.0,530.1676160015631,2.0,1.0,part_1,,,,,,,,,,,,,orange,diamond
218.0,3.0,3.0,0.0,4.0,4.0,329.8202969890553,2.0,1.0,part_1,,,,,,,,,,,,,cyan,square
59.0,5.0,1.0,1.0,1.0,1.0,358.1060550059192,2.0,1.0,part_1,,,,,,,,,,,,,blue,cross
118.0,6.0,2.0,1.0,3.0,3.0,281.6646190185565,2.0,1.0,part_1,,,,,,,,,,,,,orange,diamond
30.0,1.0,1.0,0.0,2.0,2.0,310.8247369818855,2.0,1.0,part_1,,,,,,,,,,,,,white,circle
29.0,5.0,1.0,1.0,1.0,1.0,425.9449269738979,2.0,1.0,part_1,,,,,,,,,,,,,blue,cross
91.0,2.0,2.0,0.0,1.0,1.0,431.6757860069629,2.0,1.0,part_1,,,,,,,,,,,,,gray,flipped triangle
96.0,6.0,2.0,1.0,4.0,4.0,388.2519930193666,2.0,1.0,part_1,,,,,,,,,,,,,orange,diamond
390.0,4.0,4.0,0.0,4.0,4.0,319.4155879900791,2.0,1.0,part_1,,,,,,,,,,,,,yellow,I
182.0,7.0,3.0,1.0,4.0,4.0,309.89768600557,2.0,1.0,part_1,,,,,,,,,,,,,green,triangle
178.0,3.0,3.0,0.0,1.0,1.0,425.7533740019426,2.0,1.0,part_1,,,,,,,,,,,,,cyan,square
40.0,1.0,1.0,0.0,4.0,4.0,293.9043530204799,2.0,1.0,part_1,,,,,,,,,,,,,white,circle
379.0,4.0,4.0,0.0,1.0,1.0,322.5654519919771,2.0,1.0,part_1,,,,,,,,,,,,,yellow,I
0.0,8.0,0.0,1.0,2.0,2.0,329.7511589771602,2.0,1.0,part_1,,,,,,,,,,,,,magenta,hexagon
32.0,5.0,1.0,1.0,3.0,3.0,285.3358410065993,2.0,1.0,part_1,,,,,,,,,,,,,blue,cross
395.0,8.0,4.0,1.0,4.0,4.0,291.3761639792938,2.0,1.0,part_1,,,,,,,,,,,,,magenta,hexagon
39.0,1.0,1.0,0.0,2.0,2.0,371.8123119906522,2.0,2.0,part_1,,,,,,,,,,,,,white,circle
121.0,6.0,2.0,1.0,1.0,1.0,310.3122960019391,2.0,1.0,part_1,,,,,,,,,,,,,orange,diamond
60.0,1.0,1.0,0.0,2.0,2.0,317.2151719918474,2.0,1.0,part_1,,,,,,,,,,,,,white,circle
114.0,6.0,2.0,1.0,4.0,4.0,322.671536996495,2.0,1.0,part_1,,,,,,,,,,,,,orange,diamond
63.0,1.0,1.0,0.0,4.0,4.0,399.8797000094782,2.0,1.0,part_1,,,,,,,,,,,,,white,circle
0.0,3.0,0.0,0.0,2.0,2.0,346.774600999197,2.0,1.0,part_1,,,,,,,,,,,,,cyan,square
192.0,3.0,3.0,0.0,4.0,4.0,391.5561180037912,2.0,1.0,part_1,,,,,,,,,,,,,cyan,square
71.0,5.0,1.0,1.0,4.0,4.0,404.8398089944385,2.0,1.0,part_1,,,,,,,,,,,,,blue,cross
218.0,3.0,3.0,0.0,2.0,2.0,375.7544030086137,2.0,1.0,part_1,,,,,,,,,,,,,cyan,square
98.0,2.0,2.0,0.0,2.0,2.0,415.1306220155675,2.0,1.0,part_1,,,,,,,,,,,,,gray,flipped triangle
380.0,4.0,4.0,0.0,2.0,2.0,347.343235014705,2.0,1.0,part_1,,,,,,,,,,,,,yellow,I
0.0,6.0,0.0,1.0,3.0,3.0,317.5205459992867,2.0,1.0,part_1,,,,,,,,,,,,,orange,diamond
109.0,2.0,2.0,0.0,3.0,3.0,380.9300350258127,2.0,1.0,part_1,,,,,,,,,,,,,gray,flipped triangle
421.0,4.0,4.0,0.0,3.0,3.0,335.201820009388,2.0,1.0,part_1,,,,,,,,,,,,,yellow,I
114.0,6.0,2.0,1.0,2.0,2.0,429.2460730066523,2.0,1.0,part_1,,,,,,,,,,,,,orange,diamond
54.0,5.0,1.0,1.0,1.0,1.0,327.9419430182315,2.0,1.0,part_1,,,,,,,,,,,,,blue,cross
0.0,8.0,0.0,1.0,4.0,4.0,286.8698909878731,2.0,1.0,part_1,,,,,,,,,,,,,magenta,hexagon
0.0,1.0,0.0,0.0,2.0,2.0,417.1462630038149,2.0,1.0,part_1,,,,,,,,,,,,,white,circle
383.0,4.0,4.0,0.0,3.0,3.0,358.8482630148064,2.0,1.0,part_1,,,,,,,,,,,,,yellow,I
198.0,3.0,3.0,0.0,2.0,2.0,362.9533129860647,2.0,1.0,part_1,,,,,,,,,,,,,cyan,square
39.0,5.0,1.0,1.0,3.0,3.0,336.418507999042,2.0,1.0,part_1,,,,,,,,,,,,,blue,cross
395.0,4.0,4.0,0.0,4.0,4.0,318.3445349859539,2.0,1.0,part_1,,,,,,,,,,,,,yellow,I
388.0,4.0,4.0,0.0,4.0,4.0,323.0398239975329,2.0,1.0,part_1,,,,,,,,,,,,,yellow,I
425.0,8.0,4.0,1.0,2.0,2.0,326.3468410004861,2.0,1.0,part_1,,,,,,,,,,,,,magenta,hexagon
44.0,1.0,1.0,0.0,4.0,4.0,338.6408019869122,2.0,1.0,part_1,,,,,,,,,,,,,white,circle
408.0,8.0,4.0,1.0,2.0,2.0,351.0915809893049,2.0,1.0,part_1,,,,,,,,,,,,,magenta,hexagon
94.0,6.0,2.0,1.0,1.0,1.0,355.3006169968284,2.0,1.0,part_1,,,,,,,,,,,,,orange,diamond
67.0,1.0,1.0,0.0,1.0,1.0,529.0503569995053,2.0,1.0,part_1,,,,,,,,,,,,,white,circle
25.0,1.0,1.0,0.0,3.0,3.0,519.2494929942768,2.0,1.0,part_1,,,,,,,,,,,,,white,circle
25.0,5.0,1.0,1.0,3.0,3.0,329.4439469755161,2.0,1.0,part_1,,,,,,,,,,,,,blue,cross
113.0,2.0,2.0,0.0,1.0,1.0,309.8471179837361,2.0,1.0,part_1,,,,,,,,,,,,,gray,flipped triangle
0.0,3.0,0.0,0.0,4.0,4.0,314.7778199927415,2.0,1.0,part_1,,,,,,,,,,,,,cyan,square
0.0,5.0,0.0,1.0,1.0,1.0,362.4644119990989,2.0,1.0,part_1,,,,,,,,,,,,,blue,cross
86.0,6.0,2.0,1.0,4.0,4.0,483.8545990060083,2.0,1.0,part_1,,,,,,,,,,,,,orange,diamond
98.0,2.0,2.0,0.0,1.0,1.0,356.4564260013867,2.0,1.0,part_1,,,,,,,,,,,,,gray,flipped triangle
201.0,7.0,3.0,1.0,4.0,4.0,302.5865379895549,2.0,1.0,part_1,,,,,,,,,,,,,green,triangle
0.0,4.0,0.0,0.0,3.0,3.0,326.5028140158392,2.0,1.0,part_1,,,,,,,,,,,,,yellow,I
0.0,5.0,0.0,1.0,3.0,3.0,335.097795992624,2.0,1.0,part_1,,,,,,,,,,,,,blue,cross
72.0,5.0,1.0,1.0,3.0,3.0,374.7014389955438,2.0,1.0,part_1,,,,,,,,,,,,,blue,cross
408.0,4.0,4.0,0.0,2.0,2.0,370.9948699979577,2.0,1.0,part_1,,,,,,,,,,,,,yellow,I
381.0,4.0,4.0,0.0,4.0,4.0,326.3856650155503,2.0,1.0,part_1,,,,,,,,,,,,,yellow,I
78.0,6.0,2.0,1.0,1.0,1.0,277.74236901314,2.0,1.0,part_1,,,,,,,,,,,,,orange,diamond
415.0,4.0,4.0,0.0,1.0,1.0,329.8561350093223,2.0,1.0,part_1,,,,,,,,,,,,,yellow,I
403.0,8.0,4.0,1.0,3.0,3.0,334.1342079802416,2.0,1.0,part_1,,,,,,,,,,,,,magenta,hexagon
422.0,8.0,4.0,1.0,2.0,2.0,314.5273069967516,2.0,1.0,part_1,,,,,,,,,,,,,magenta,hexagon
58.0,1.0,1.0,0.0,1.0,1.0,381.3774019945413,2.0,1.0,part_1,,,,,,,,,,,,,white,circle
402.0,4.0,4.0,0.0,3.0,3.0,420.007471984718,2.0,1.0,part_1,,,,,,,,,,,,,yellow,I
0.0,3.0,0.0,0.0,4.0,4.0,313.7396970123518,2.0,1.0,part_1,,,,,,,,,,,,,cyan,square
222.0,7.0,3.0,1.0,1.0,1.0,333.9495210093446,2.0,1.0,part_1,,,,,,,,,,,,,green,triangle
67.0,5.0,1.0,1.0,4.0,4.0,366.919488995336,2.0,1.0,part_1,,,,,,,,,,,,,blue,cross
109.0,6.0,2.0,1.0,3.0,3.0,325.6744120153598,3.0,1.0,part_1,,,,,,,,,,,,,orange,diamond
0.0,4.0,0.0,0.0,1.0,1.0,273.1162289856002,3.0,1.0,part_1,,,,,,,,,,,,,yellow,I
69.0,1.0,1.0,0.0,3.0,3.0,293.9941080112476,3.0,1.0,part_1,,,,,,,,,,,,,white,circle
106.0,2.0,2.0,0.0,3.0,3.0,296.5855779766571,3.0,1.0,part_1,,,,,,,,,,,,,gray,flipped triangle
184.0,3.0,3.0,0.0,4.0,4.0,333.9579489838797,3.0,1.0,part_1,,,,,,,,,,,,,cyan,square
222.0,3.0,3.0,0.0,1.0,1.0,321.8759360024705,3.0,1.0,part_1,,,,,,,,,,,,,cyan,square
213.0,3.0,3.0,0.0,1.0,1.0,362.7261370129417,3.0,1.0,part_1,,,,,,,,,,,,,cyan,square
0.0,8.0,0.0,1.0,4.0,4.0,331.7600930167828,3.0,1.0,part_1,,,,,,,,,,,,,magenta,hexagon
0.0,1.0,0.0,0.0,1.0,1.0,370.1992050046101,3.0,1.0,part_1,,,,,,,,,,,,,white,circle
58.0,5.0,1.0,1.0,2.0,2.0,303.8031219912227,3.0,1.0,part_1,,,,,,,,,,,,,blue,cross
207.0,7.0,3.0,1.0,2.0,2.0,316.7217049922328,3.0,1.0,part_1,,,,,,,,,,,,,green,triangle
417.0,8.0,4.0,1.0,4.0,4.0,370.740960992407,3.0,1.0,part_1,,,,,,,,,,,,,magenta,hexagon
0.0,8.0,0.0,1.0,4.0,4.0,372.8065050090663,3.0,1.0,part_1,,,,,,,,,,,,,magenta,hexagon
0.0,2.0,0.0,0.0,2.0,2.0,368.5764160181861,3.0,1.0,part_1,,,,,,,,,,,,,gray,flipped triangle
206.0,7.0,3.0,1.0,1.0,1.0,325.2912919851951,3.0,1.0,part_1,,,,,,,,,,,,,green,triangle
425.0,4.0,4.0,0.0,2.0,2.0,336.6199669835623,3.0,1.0,part_1,,,,,,,,,,,,,yellow,I
104.0,2.0,2.0,0.0,3.0,3.0,296.17535698344,3.0,1.0,part_1,,,,,,,,,,,,,gray,flipped triangle
391.0,4.0,4.0,0.0,4.0,4.0,314.4677999953273,3.0,1.0,part_1,,,,,,,,,,,,,yellow,I
0.0,5.0,0.0,1.0,3.0,3.0,343.8993179879617,3.0,1.0,part_1,,,,,,,,,,,,,blue,cross
0.0,2.0,0.0,0.0,2.0,2.0,268.2649719936307,3.0,1.0,part_1,,,,,,,,,,,,,gray,flipped triangle
72.0,5.0,1.0,1.0,2.0,2.0,304.4626049813814,3.0,1.0,part_1,,,,,,,,,,,,,blue,cross
0.0,1.0,0.0,0.0,4.0,4.0,349.7513089969288,3.0,1.0,part_1,,,,,,,,,,,,,white,circle
189.0,7.0,3.0,1.0,3.0,3.0,377.5877059961203,3.0,1.0,part_1,,,,,,,,,,,,,green,triangle
177.0,3.0,3.0,0.0,3.0,3.0,337.5024100241717,3.0,1.0,part_1,,,,,,,,,,,,,cyan,square
385.0,8.0,4.0,1.0,3.0,3.0,334.1220679867547,3.0,1.0,part_1,,,,,,,,,,,,,magenta,hexagon
412.0,8.0,4.0,1.0,3.0,3.0,320.4065840109251,3.0,1.0,part_1,,,,,,,,,,,,,magenta,hexagon
31.0,5.0,1.0,1.0,4.0,4.0,356.4377290022094,3.0,1.0,part_1,,,,,,,,,,,,,blue,cross
0.0,5.0,0.0,1.0,3.0,3.0,338.0722379952203,3.0,1.0,part_1,,,,,,,,,,,,,blue,cross
0.0,1.0,0.0,0.0,3.0,3.0,321.1130629933905,3.0,1.0,part_1,,,,,,,,,,,,,white,circle
378.0,4.0,4.0,0.0,2.0,2.0,308.6854499997571,3.0,1.0,part_1,,,,,,,,,,,,,yellow,I
183.0,7.0,3.0,1.0,2.0,2.0,336.1994450096972,3.0,1.0,part_1,,,,,,,,,,,,,green,triangle
207.0,3.0,3.0,0.0,1.0,1.0,287.8030110150575,3.0,1.0,part_1,,,,,,,,,,,,,cyan,square
41.0,1.0,1.0,0.0,1.0,1.0,483.3721199829597,3.0,1.0,part_1,,,,,,,,,,,,,white,circle
417.0,4.0,4.0,0.0,1.0,1.0,349.2596999858506,3.0,1.0,part_1,,,,,,,,,,,,,yellow,I
403.0,4.0,4.0,0.0,4.0,4.0,283.5680569987744,3.0,1.0,part_1,,,,,,,,,,,,,yellow,I
0.0,7.0,0.0,1.0,2.0,2.0,262.7291300159413,3.0,1.0,part_1,,,,,,,,,,,,,green,triangle
402.0,8.0,4.0,1.0,1.0,1.0,365.26863102335477,3.0,1.0,part_1,,,,,,,,,,,,,magenta,hexagon
0.0,7.0,0.0,1.0,4.0,4.0,331.9461639912333,3.0,1.0,part_1,,,,,,,,,,,,,green,triangle
106.0,6.0,2.0,1.0,3.0,3.0,255.3500150097534,3.0,1.0,part_1,,,,,,,,,,,,,orange,diamond
72.0,1.0,1.0,0.0,4.0,4.0,323.9014379796572,3.0,1.0,part_1,,,,,,,,,,,,,white,circle
36.0,1.0,1.0,0.0,4.0,4.0,353.2131730171386,3.0,1.0,part_1,,,,,,,,,,,,,white,circle
67.0,5.0,1.0,1.0,1.0,1.0,539.3922410148662,3.0,1.0,part_1,,,,,,,,,,,,,blue,cross
98.0,2.0,2.0,0.0,4.0,4.0,295.9087250055745,3.0,1.0,part_1,,,,,,,,,,,,,gray,flipped triangle
0.0,8.0,0.0,1.0,3.0,3.0,284.4976500200573,3.0,1.0,part_1,,,,,,,,,,,,,magenta,hexagon
206.0,3.0,3.0,0.0,4.0,4.0,317.13270599721,3.0,1.0,part_1,,,,,,,,,,,,,cyan,square
118.0,2.0,2.0,0.0,2.0,2.0,281.3120470091235,3.0,1.0,part_1,,,,,,,,,,,,,gray,flipped triangle
0.0,3.0,0.0,0.0,4.0,4.0,308.4632090176455,3.0,1.0,part_1,,,,,,,,,,,,,cyan,square
71.0,1.0,1.0,0.0,3.0,3.0,310.8868440031074,3.0,1.0,part_1,,,,,,,,,,,,,white,circle
217.0,3.0,3.0,0.0,1.0,1.0,319.02252099826,3.0,1.0,part_1,,,,,,,,,,,,,cyan,square
76.0,2.0,2.0,0.0,4.0,4.0,296.3446460198611,3.0,1.0,part_1,,,,,,,,,,,,,gray,flipped triangle
420.0,4.0,4.0,0.0,1.0,1.0,341.1275190010201,3.0,2.0,part_1,,,,,,,,,,,,,yellow,I
0.0,2.0,0.0,0.0,1.0,1.0,398.6845820036251,3.0,1.0,part_1,,,,,,,,,,,,,gray,flipped triangle
178.0,7.0,3.0,1.0,2.0,2.0,333.3070359949488,3.0,1.0,part_1,,,,,,,,,,,,,green,triangle
121.0,2.0,2.0,0.0,2.0,2.0,321.7643160023726,3.0,1.0,part_1,,,,,,,,,,,,,gray,flipped triangle
114.0,2.0,2.0,0.0,4.0,4.0,310.4036040022038,3.0,1.0,part_1,,,,,,,,,,,,,gray,flipped triangle
118.0,2.0,2.0,0.0,3.0,3.0,313.7078179861419,3.0,1.0,part_1,,,,,,,,,,,,,gray,flipped triangle
382.0,4.0,4.0,0.0,2.0,2.0,391.2578509771265,3.0,1.0,part_1,,,,,,,,,,,,,yellow,I
422.0,4.0,4.0,0.0,4.0,4.0,314.5365200180094,3.0,1.0,part_1,,,,,,,,,,,,,yellow,I
98.0,6.0,2.0,1.0,4.0,4.0,377.2713530051987,3.0,1.0,part_1,,,,,,,,,,,,,orange,diamond
222.0,7.0,3.0,1.0,4.0,4.0,316.6672259976621,3.0,1.0,part_1,,,,,,,,,,,,,green,triangle
27.0,5.0,1.0,1.0,4.0,4.0,377.4121660098899,3.0,1.0,part_1,,,,,,,,,,,,,blue,cross
93.0,6.0,2.0,1.0,3.0,3.0,553.7426829978358,3.0,1.0,part_1,,,,,,,,,,,,,orange,diamond
59.0,1.0,1.0,0.0,1.0,1.0,300.7160940032918,3.0,1.0,part_1,,,,,,,,,,,,,white,circle
84.0,6.0,2.0,1.0,4.0,4.0,305.4408339958172,3.0,1.0,part_1,,,,,,,,,,,,,orange,diamond
44.0,5.0,1.0,1.0,4.0,4.0,309.1817250242457,3.0,1.0,part_1,,,,,,,,,,,,,blue,cross
0.0,2.0,0.0,0.0,4.0,4.0,315.1159179979004,3.0,1.0,part_1,,,,,,,,,,,,,gray,flipped triangle
51.0,1.0,1.0,0.0,1.0,1.0,269.40500899218017,3.0,1.0,part_1,,,,,,,,,,,,,white,circle
211.0,7.0,3.0,1.0,2.0,2.0,300.4254029947333,3.0,1.0,part_1,,,,,,,,,,,,,green,triangle
47.0,1.0,1.0,0.0,2.0,2.0,305.354306998197,3.0,1.0,part_1,,,,,,,,,,,,,white,circle
392.0,4.0,4.0,0.0,3.0,3.0,325.9241369960364,3.0,1.0,part_1,,,,,,,,,,,,,yellow,I
383.0,8.0,4.0,1.0,1.0,1.0,303.8566019968129,3.0,1.0,part_1,,,,,,,,,,,,,magenta,hexagon
0.0,1.0,0.0,0.0,4.0,4.0,325.8567540033255,3.0,1.0,part_1,,,,,,,,,,,,,white,circle
91.0,6.0,2.0,1.0,2.0,2.0,244.3247560004238,3.0,1.0,part_1,,,,,,,,,,,,,orange,diamond
0.0,3.0,0.0,0.0,1.0,1.0,302.5318559957668,3.0,1.0,part_1,,,,,,,,,,,,,cyan,square
388.0,8.0,4.0,1.0,3.0,3.0,277.9565349919721,3.0,1.0,part_1,,,,,,,,,,,,,magenta,hexagon
60.0,1.0,1.0,0.0,1.0,1.0,330.512402986642,3.0,1.0,part_1,,,,,,,,,,,,,white,circle
59.0,1.0,1.0,0.0,3.0,3.0,334.136392979417,3.0,1.0,part_1,,,,,,,,,,,,,white,circle
392.0,8.0,4.0,1.0,3.0,3.0,298.1024070177227,3.0,1.0,part_1,,,,,,,,,,,,,magenta,hexagon
225.0,7.0,3.0,1.0,4.0,4.0,357.8637659957167,3.0,1.0,part_1,,,,,,,,,,,,,green,triangle
0.0,6.0,0.0,1.0,4.0,4.0,340.8542939869221,3.0,1.0,part_1,,,,,,,,,,,,,orange,diamond
201.0,3.0,3.0,0.0,1.0,1.0,304.8684120003599,3.0,1.0,part_1,,,,,,,,,,,,,cyan,square
398.0,4.0,4.0,0.0,1.0,1.0,348.7161730008665,3.0,1.0,part_1,,,,,,,,,,,,,yellow,I
96.0,6.0,2.0,1.0,3.0,3.0,345.6487120129168,3.0,1.0,part_1,,,,,,,,,,,,,orange,diamond
104.0,6.0,2.0,1.0,2.0,2.0,301.4637330197729,3.0,1.0,part_1,,,,,,,,,,,,,orange,diamond
54.0,1.0,1.0,0.0,2.0,2.0,308.8254850008525,3.0,1.0,part_1,,,,,,,,,,,,,white,circle
213.0,7.0,3.0,1.0,2.0,2.0,279.8065959941596,3.0,1.0,part_1,,,,,,,,,,,,,green,triangle
41.0,5.0,1.0,1.0,4.0,4.0,349.1802310163621,3.0,1.0,part_1,,,,,,,,,,,,,blue,cross
125.0,6.0,2.0,1.0,1.0,1.0,319.6777449920773,3.0,1.0,part_1,,,,,,,,,,,,,orange,diamond
0.0,5.0,0.0,1.0,4.0,4.0,319.8822269914672,3.0,1.0,part_1,,,,,,,,,,,,,blue,cross
0.0,6.0,0.0,1.0,3.0,3.0,467.8695860202424,3.0,1.0,part_1,,,,,,,,,,,,,orange,diamond
220.0,3.0,3.0,0.0,1.0,1.0,333.5980019764974,3.0,1.0,part_1,,,,,,,,,,,,,cyan,square
0.0,5.0,0.0,1.0,3.0,3.0,324.9918509973213,3.0,1.0,part_1,,,,,,,,,,,,,blue,cross
69.0,1.0,1.0,0.0,3.0,3.0,361.5447740012314,3.0,1.0,part_1,,,,,,,,,,,,,white,circle
87.0,6.0,2.0,1.0,1.0,1.0,349.54722301336,3.0,1.0,part_1,,,,,,,,,,,,,orange,diamond
206.0,3.0,3.0,0.0,2.0,2.0,335.5370220087934,3.0,1.0,part_1,,,,,,,,,,,,,cyan,square
63.0,5.0,1.0,1.0,3.0,3.0,308.9600839884951,3.0,1.0,part_1,,,,,,,,,,,,,blue,cross
416.0,4.0,4.0,0.0,2.0,2.0,370.4060729942284,3.0,1.0,part_1,,,,,,,,,,,,,yellow,I
0.0,8.0,0.0,1.0,4.0,4.0,286.7783560068346,3.0,1.0,part_1,,,,,,,,,,,,,magenta,hexagon
84.0,2.0,2.0,0.0,2.0,2.0,309.6144149894826,3.0,1.0,part_1,,,,,,,,,,,,,gray,flipped triangle
0.0,7.0,0.0,1.0,1.0,1.0,305.4466269968543,3.0,1.0,part_1,,,,,,,,,,,,,green,triangle
55.0,1.0,1.0,0.0,1.0,1.0,323.1223399925511,4.0,1.0,part_1,,,,,,,,,,,,,white,circle
85.0,2.0,2.0,0.0,3.0,3.0,335.1437280070968,4.0,1.0,part_1,,,,,,,,,,,,,gray,flipped triangle
80.0,6.0,2.0,1.0,2.0,2.0,314.7838290024083,4.0,1.0,part_1,,,,,,,,,,,,,orange,diamond
122.0,6.0,2.0,1.0,2.0,2.0,310.4782519803848,4.0,1.0,part_1,,,,,,,,,,,,,orange,diamond
176.0,7.0,3.0,1.0,2.0,2.0,326.9036530109588,4.0,1.0,part_1,,,,,,,,,,,,,green,triangle
40.0,5.0,1.0,1.0,3.0,3.0,330.1407679973636,4.0,1.0,part_1,,,,,,,,,,,,,blue,cross
420.0,8.0,4.0,1.0,1.0,1.0,302.7100280160084,4.0,1.0,part_1,,,,,,,,,,,,,magenta,hexagon
380.0,8.0,4.0,1.0,2.0,2.0,273.4402120113373,4.0,1.0,part_1,,,,,,,,,,,,,magenta,hexagon
410.0,4.0,4.0,0.0,1.0,1.0,333.824918983737,4.0,1.0,part_1,,,,,,,,,,,,,yellow,I
47.0,5.0,1.0,1.0,2.0,2.0,277.7112890034914,4.0,1.0,part_1,,,,,,,,,,,,,blue,cross
222.0,3.0,3.0,0.0,3.0,3.0,306.2045019760262,4.0,1.0,part_1,,,,,,,,,,,,,cyan,square
0.0,3.0,0.0,0.0,3.0,3.0,308.1152430095244,4.0,1.0,part_1,,,,,,,,,,,,,cyan,square
418.0,8.0,4.0,1.0,4.0,4.0,281.5988080110401,4.0,1.0,part_1,,,,,,,,,,,,,magenta,hexagon
57.0,1.0,1.0,0.0,2.0,2.0,268.9761260116938,4.0,1.0,part_1,,,,,,,,,,,,,white,circle
40.0,1.0,1.0,0.0,3.0,3.0,284.7607980074826,4.0,1.0,part_1,,,,,,,,,,,,,white,circle
399.0,8.0,4.0,1.0,2.0,2.0,257.3909800266847,4.0,1.0,part_1,,,,,,,,,,,,,magenta,hexagon
418.0,8.0,4.0,1.0,1.0,1.0,353.9267070009373,4.0,2.0,part_1,,,,,,,,,,,,,magenta,hexagon
87.0,6.0,2.0,1.0,2.0,2.0,301.3463599781971,4.0,1.0,part_1,,,,,,,,,,,,,orange,diamond
204.0,3.0,3.0,0.0,3.0,3.0,285.7400790089741,4.0,1.0,part_1,,,,,,,,,,,,,cyan,square
187.0,3.0,3.0,0.0,2.0,2.0,302.3826060234569,4.0,1.0,part_1,,,,,,,,,,,,,cyan,square
85.0,6.0,2.0,1.0,3.0,3.0,315.5531270022038,4.0,2.0,part_1,,,,,,,,,,,,,orange,diamond
101.0,2.0,2.0,0.0,2.0,2.0,348.5510579776019,4.0,1.0,part_1,,,,,,,,,,,,,gray,flipped triangle
28.0,1.0,1.0,0.0,3.0,3.0,313.8988519785926,4.0,1.0,part_1,,,,,,,,,,,,,white,circle
0.0,7.0,0.0,1.0,3.0,3.0,281.2655360030476,4.0,1.0,part_1,,,,,,,,,,,,,green,triangle
186.0,7.0,3.0,1.0,4.0,4.0,325.6484419980552,4.0,1.0,part_1,,,,,,,,,,,,,green,triangle
395.0,8.0,4.0,1.0,4.0,4.0,335.5427340138703,4.0,1.0,part_1,,,,,,,,,,,,,magenta,hexagon
55.0,5.0,1.0,1.0,1.0,1.0,308.4071640041657,4.0,1.0,part_1,,,,,,,,,,,,,blue,cross
382.0,8.0,4.0,1.0,4.0,4.0,346.736877982039,4.0,1.0,part_1,,,,,,,,,,,,,magenta,hexagon
411.0,8.0,4.0,1.0,2.0,2.0,397.923239012016,4.0,1.0,part_1,,,,,,,,,,,,,magenta,hexagon
0.0,4.0,0.0,0.0,3.0,3.0,329.7169250145089,4.0,1.0,part_1,,,,,,,,,,,,,yellow,I
379.0,8.0,4.0,1.0,3.0,3.0,305.2612869942095,4.0,1.0,part_1,,,,,,,,,,,,,magenta,hexagon
225.0,3.0,3.0,0.0,3.0,3.0,326.1950419982895,4.0,1.0,part_1,,,,,,,,,,,,,cyan,square
78.0,2.0,2.0,0.0,4.0,4.0,322.9250709991902,4.0,1.0,part_1,,,,,,,,,,,,,gray,flipped triangle
84.0,6.0,2.0,1.0,3.0,3.0,263.716353016207,4.0,1.0,part_1,,,,,,,,,,,,,orange,diamond
217.0,7.0,3.0,1.0,3.0,3.0,346.5456220146734,4.0,1.0,part_1,,,,,,,,,,,,,green,triangle
191.0,3.0,3.0,0.0,1.0,1.0,302.353283012053,4.0,1.0,part_1,,,,,,,,,,,,,cyan,square
0.0,1.0,0.0,0.0,4.0,4.0,394.9187910184264,4.0,1.0,part_1,,,,,,,,,,,,,white,circle
40.0,5.0,1.0,1.0,2.0,2.0,319.30508397636,4.0,1.0,part_1,,,,,,,,,,,,,blue,cross
0.0,2.0,0.0,0.0,1.0,1.0,437.074786023004,4.0,1.0,part_1,,,,,,,,,,,,,gray,flipped triangle
183.0,3.0,3.0,0.0,3.0,3.0,306.6605569911189,4.0,1.0,part_1,,,,,,,,,,,,,cyan,square
0.0,4.0,0.0,0.0,4.0,4.0,465.5549129820429,4.0,1.0,part_1,,,,,,,,,,,,,yellow,I
59.0,5.0,1.0,1.0,3.0,3.0,324.1274640022311,4.0,1.0,part_1,,,,,,,,,,,,,blue,cross
0.0,4.0,0.0,0.0,4.0,4.0,318.5530759801622,4.0,1.0,part_1,,,,,,,,,,,,,yellow,I
385.0,8.0,4.0,1.0,1.0,1.0,350.7710279955063,4.0,1.0,part_1,,,,,,,,,,,,,magenta,hexagon
47.0,5.0,1.0,1.0,1.0,1.0,356.0794240038376,4.0,1.0,part_1,,,,,,,,,,,,,blue,cross
80.0,2.0,2.0,0.0,1.0,1.0,383.4117029909976,4.0,1.0,part_1,,,,,,,,,,,,,gray,flipped triangle
218.0,7.0,3.0,1.0,3.0,3.0,332.537219976075,4.0,1.0,part_1,,,,,,,,,,,,,green,triangle
0.0,3.0,0.0,0.0,1.0,1.0,333.9350210153498,4.0,1.0,part_1,,,,,,,,,,,,,cyan,square
66.0,5.0,1.0,1.0,1.0,1.0,438.7930449738633,4.0,1.0,part_1,,,,,,,,,,,,,blue,cross
0.0,4.0,0.0,0.0,2.0,2.0,329.8406239773612,4.0,1.0,part_1,,,,,,,,,,,,,yellow,I
387.0,4.0,4.0,0.0,1.0,1.0,437.0077880157623,4.0,1.0,part_1,,,,,,,,,,,,,yellow,I
193.0,3.0,3.0,0.0,4.0,4.0,273.6405359755736,4.0,1.0,part_1,,,,,,,,,,,,,cyan,square
391.0,8.0,4.0,1.0,2.0,2.0,257.0755360065959,4.0,1.0,part_1,,,,,,,,,,,,,magenta,hexagon
179.0,3.0,3.0,0.0,4.0,4.0,338.5296780033968,4.0,1.0,part_1,,,,,,,,,,,,,cyan,square
398.0,8.0,4.0,1.0,1.0,1.0,369.7882980050053,4.0,1.0,part_1,,,,,,,,,,,,,magenta,hexagon
0.0,1.0,0.0,0.0,4.0,4.0,316.4587839855812,4.0,1.0,part_1,,,,,,,,,,,,,white,circle
399.0,8.0,4.0,1.0,2.0,2.0,272.0589190139435,4.0,1.0,part_1,,,,,,,,,,,,,magenta,hexagon
379.0,8.0,4.0,1.0,3.0,3.0,311.4028600102756,4.0,1.0,part_1,,,,,,,,,,,,,magenta,hexagon
420.0,8.0,4.0,1.0,1.0,1.0,284.7934839955996,4.0,1.0,part_1,,,,,,,,,,,,,magenta,hexagon
117.0,6.0,2.0,1.0,4.0,4.0,312.8187209949828,4.0,1.0,part_1,,,,,,,,,,,,,orange,diamond
77.0,2.0,2.0,0.0,1.0,1.0,374.69654699089,4.0,1.0,part_1,,,,,,,,,,,,,gray,flipped triangle
202.0,7.0,3.0,1.0,1.0,1.0,352.2981450078077,4.0,1.0,part_1,,,,,,,,,,,,,green,triangle
0.0,2.0,0.0,0.0,2.0,2.0,327.5722120015416,4.0,1.0,part_1,,,,,,,,,,,,,gray,flipped triangle
0.0,6.0,0.0,1.0,2.0,2.0,331.7052449856419,4.0,1.0,part_1,,,,,,,,,,,,,orange,diamond
416.0,8.0,4.0,1.0,3.0,3.0,334.4890440057497,4.0,1.0,part_1,,,,,,,,,,,,,magenta,hexagon
418.0,4.0,4.0,0.0,2.0,2.0,348.0137899750843,4.0,1.0,part_1,,,,,,,,,,,,,yellow,I
421.0,8.0,4.0,1.0,3.0,3.0,346.8758300004992,4.0,1.0,part_1,,,,,,,,,,,,,magenta,hexagon
0.0,4.0,0.0,0.0,4.0,4.0,318.5803689993918,4.0,1.0,part_1,,,,,,,,,,,,,yellow,I
220.0,7.0,3.0,1.0,1.0,1.0,282.3164190049283,4.0,1.0,part_1,,,,,,,,,,,,,green,triangle
410.0,8.0,4.0,1.0,4.0,4.0,285.945358016761,4.0,1.0,part_1,,,,,,,,,,,,,magenta,hexagon
61.0,1.0,1.0,0.0,2.0,2.0,461.1220440128818,4.0,1.0,part_1,,,,,,,,,,,,,white,circle
0.0,4.0,0.0,0.0,3.0,3.0,295.0799210229888,4.0,1.0,part_1,,,,,,,,,,,,,yellow,I
0.0,4.0,0.0,0.0,1.0,1.0,291.0018050170038,4.0,1.0,part_1,,,,,,,,,,,,,yellow,I
94.0,6.0,2.0,1.0,2.0,2.0,256.7668949777726,4.0,1.0,part_1,,,,,,,,,,,,,orange,diamond
0.0,5.0,0.0,1.0,2.0,2.0,310.7632570026908,4.0,1.0,part_1,,,,,,,,,,,,,blue,cross
191.0,7.0,3.0,1.0,1.0,1.0,354.2028719966765,4.0,1.0,part_1,,,,,,,,,,,,,green,triangle
0.0,6.0,0.0,1.0,3.0,3.0,326.1823669890873,4.0,1.0,part_1,,,,,,,,,,,,,orange,diamond
122.0,2.0,2.0,0.0,3.0,3.0,333.5895359923597,4.0,1.0,part_1,,,,,,,,,,,,,gray,flipped triangle
121.0,2.0,2.0,0.0,1.0,1.0,347.2172420006245,4.0,1.0,part_1,,,,,,,,,,,,,gray,flipped triangle
381.0,4.0,4.0,0.0,4.0,4.0,308.7186049961019,4.0,1.0,part_1,,,,,,,,,,,,,yellow,I
192.0,7.0,3.0,1.0,3.0,3.0,354.4413630152121,4.0,1.0,part_1,,,,,,,,,,,,,green,triangle
206.0,7.0,3.0,1.0,3.0,3.0,336.5813290001824,4.0,1.0,part_1,,,,,,,,,,,,,green,triangle
418.0,4.0,4.0,0.0,3.0,3.0,332.7351290208753,4.0,1.0,part_1,,,,,,,,,,,,,yellow,I
72.0,1.0,1.0,0.0,3.0,3.0,336.6177850111853,4.0,1.0,part_1,,,,,,,,,,,,,white,circle
0.0,1.0,0.0,0.0,4.0,4.0,327.556012023706,4.0,1.0,part_1,,,,,,,,,,,,,white,circle
54.0,1.0,1.0,0.0,3.0,3.0,322.5240180036053,4.0,1.0,part_1,,,,,,,,,,,,,white,circle
401.0,4.0,4.0,0.0,3.0,3.0,285.5577319860458,4.0,1.0,part_1,,,,,,,,,,,,,yellow,I
0.0,2.0,0.0,0.0,1.0,1.0,370.5487950064707,4.0,1.0,part_1,,,,,,,,,,,,,gray,flipped triangle
93.0,2.0,2.0,0.0,2.0,2.0,278.8233589963056,4.0,1.0,part_1,,,,,,,,,,,,,gray,flipped triangle
193.0,7.0,3.0,1.0,1.0,1.0,411.3443550013471,4.0,1.0,part_1,,,,,,,,,,,,,green,triangle
211.0,3.0,3.0,0.0,2.0,2.0,314.4470129918773,4.0,1.0,part_1,,,,,,,,,,,,,cyan,square
0.0,1.0,0.0,0.0,1.0,1.0,372.8424499859102,4.0,1.0,part_1,,,,,,,,,,,,,white,circle
122.0,2.0,2.0,0.0,3.0,3.0,301.3368189858738,4.0,1.0,part_1,,,,,,,,,,,,,gray,flipped triangle
420.0,4.0,4.0,0.0,2.0,2.0,341.9654589961283,4.0,1.0,part_1,,,,,,,,,,,,,yellow,I
400.0,4.0,4.0,0.0,1.0,1.0,306.5516710048541,4.0,1.0,part_1,,,,,,,,,,,,,yellow,I
202.0,3.0,3.0,0.0,1.0,1.0,330.1113370107487,4.0,1.0,part_1,,,,,,,,,,,,,cyan,square
94.0,2.0,2.0,0.0,4.0,4.0,284.8895210190676,4.0,1.0,part_1,,,,,,,,,,,,,gray,flipped triangle
381.0,8.0,4.0,1.0,4.0,4.0,322.5471350015141,4.0,1.0,part_1,,,,,,,,,,,,,magenta,hexagon
395.0,4.0,4.0,0.0,1.0,1.0,357.4276459985412,4.0,1.0,part_1,,,,,,,,,,,,,yellow,I
177.0,7.0,3.0,1.0,4.0,4.0,369.9449849955272,4.0,1.0,part_1,,,,,,,,,,,,,green,triangle
0.0,2.0,2.0,0.0,6.0,6.0,379.3262039835099,1.0,0.0,part_2,go,250.0,250.0,1.0,,,,,,,,,gray,flipped triangle
0.0,2.0,2.0,0.0,5.0,5.0,598.5083479899913,1.0,0.0,part_2,go,250.0,250.0,1.0,,,,,,,,,gray,flipped triangle
0.0,5.0,1.0,1.0,6.0,6.0,538.0583009973634,1.0,0.0,part_2,go,250.0,250.0,1.0,,,,,,,,,blue,cross
0.0,5.0,1.0,1.0,5.0,5.0,554.1305569931865,1.0,0.0,part_2,stop,250.0,250.0,3.0,,,,,,,,,blue,cross
0.0,4.0,4.0,0.0,5.0,5.0,628.0147779907566,1.0,0.0,part_2,go,200.0,250.0,1.0,,,,,,,,,yellow,I
0.0,4.0,4.0,0.0,5.0,5.0,985.8173789980356,1.0,0.0,part_2,go,200.0,250.0,1.0,,,,,,,,,yellow,I
0.0,1.0,1.0,0.0,5.0,5.0,479.6141350234393,1.0,0.0,part_2,go,200.0,250.0,1.0,,,,,,,,,white,circle
0.0,5.0,1.0,1.0,6.0,0.0,0.0,1.0,0.0,part_2,stop,200.0,250.0,4.0,,,,,,,,,blue,cross
0.0,3.0,3.0,0.0,5.0,5.0,658.4848570055328,1.0,0.0,part_2,go,200.0,300.0,1.0,,,,,,,,,cyan,square
0.0,2.0,2.0,0.0,6.0,6.0,662.6308689883444,1.0,0.0,part_2,go,200.0,300.0,1.0,,,,,,,,,gray,flipped triangle
0.0,7.0,3.0,1.0,5.0,5.0,629.9934790004045,1.0,0.0,part_2,go,200.0,300.0,1.0,,,,,,,,,green,triangle
0.0,4.0,4.0,0.0,5.0,5.0,880.6758139980957,1.0,0.0,part_2,go,200.0,300.0,1.0,,,,,,,,,yellow,I
0.0,2.0,2.0,0.0,5.0,5.0,727.9817710223142,1.0,0.0,part_2,go,200.0,300.0,1.0,,,,,,,,,gray,flipped triangle
0.0,1.0,1.0,0.0,6.0,6.0,539.8059100261889,1.0,0.0,part_2,go,200.0,300.0,1.0,,,,,,,,,white,circle
0.0,8.0,4.0,1.0,6.0,0.0,0.0,1.0,0.0,part_2,stop,200.0,300.0,4.0,,,,,,,,,magenta,hexagon
0.0,4.0,4.0,0.0,5.0,5.0,509.98886799789034,1.0,0.0,part_2,go,200.0,350.0,1.0,,,,,,,,,yellow,I
0.0,7.0,3.0,1.0,6.0,0.0,0.0,1.0,0.0,part_2,stop,200.0,350.0,4.0,,,,,,,,,green,triangle
0.0,6.0,2.0,1.0,6.0,0.0,0.0,1.0,0.0,part_2,stop,200.0,400.0,4.0,,,,,,,,,orange,diamond
0.0,1.0,1.0,0.0,5.0,5.0,427.2579599928576,1.0,0.0,part_2,go,200.0,450.0,1.0,,,,,,,,,white,circle
0.0,8.0,4.0,1.0,5.0,0.0,0.0,1.0,0.0,part_2,stop,200.0,450.0,4.0,,,,,,,,,magenta,hexagon
0.0,1.0,1.0,0.0,6.0,6.0,636.054361006245,1.0,0.0,part_2,go,250.0,450.0,1.0,,,,,,,,,white,circle
0.0,8.0,4.0,1.0,6.0,6.0,346.2254139885772,1.0,0.0,part_2,go,250.0,450.0,1.0,,,,,,,,,magenta,hexagon
0.0,1.0,1.0,0.0,6.0,6.0,529.279118985869,1.0,0.0,part_2,go,250.0,450.0,1.0,,,,,,,,,white,circle
0.0,2.0,2.0,0.0,6.0,6.0,577.9642369889189,1.0,0.0,part_2,go,250.0,450.0,1.0,,,,,,,,,gray,flipped triangle
0.0,2.0,2.0,0.0,5.0,5.0,758.2864790165331,1.0,0.0,part_2,go,250.0,450.0,1.0,,,,,,,,,gray,flipped triangle
0.0,8.0,4.0,1.0,6.0,0.0,0.0,1.0,0.0,part_2,stop,250.0,450.0,4.0,,,,,,,,,magenta,hexagon
0.0,4.0,4.0,0.0,6.0,6.0,687.7143970050383,1.0,0.0,part_2,go,250.0,500.0,1.0,,,,,,,,,yellow,I
0.0,4.0,4.0,0.0,5.0,5.0,390.757979999762,1.0,0.0,part_2,go,250.0,500.0,1.0,,,,,,,,,yellow,I
0.0,5.0,1.0,1.0,5.0,0.0,0.0,1.0,0.0,part_2,stop,250.0,500.0,4.0,,,,,,,,,blue,cross
0.0,8.0,4.0,1.0,5.0,5.0,677.5146049913019,1.0,0.0,part_2,go,300.0,500.0,1.0,,,,,,,,,magenta,hexagon
0.0,5.0,1.0,1.0,6.0,6.0,333.4450240072328,1.0,0.0,part_2,stop,300.0,500.0,3.0,,,,,,,,,blue,cross
0.0,6.0,2.0,1.0,5.0,5.0,529.605604999233,1.0,0.0,part_2,go,300.0,450.0,1.0,,,,,,,,,orange,diamond
0.0,7.0,3.0,1.0,6.0,6.0,690.9281569824088,1.0,0.0,part_2,go,300.0,450.0,1.0,,,,,,,,,green,triangle
0.0,6.0,2.0,1.0,5.0,0.0,0.0,1.0,0.0,part_2,stop,300.0,450.0,4.0,,,,,,,,,orange,diamond
0.0,8.0,4.0,1.0,6.0,6.0,496.6474730172194,1.0,0.0,part_2,stop,350.0,450.0,3.0,,,,,,,,,magenta,hexagon
0.0,2.0,2.0,0.0,6.0,6.0,659.1451760032214,1.0,0.0,part_2,go,350.0,400.0,1.0,,,,,,,,,gray,flipped triangle
0.0,7.0,3.0,1.0,5.0,0.0,0.0,2.0,0.0,part_2,stop,350.0,400.0,4.0,,,,,,,,,green,triangle
0.0,3.0,3.0,0.0,6.0,6.0,452.0330670056864,2.0,0.0,part_2,go,400.0,400.0,1.0,,,,,,,,,cyan,square
0.0,2.0,2.0,0.0,6.0,6.0,407.5713579950388,2.0,0.0,part_2,go,400.0,400.0,1.0,,,,,,,,,gray,flipped triangle
0.0,6.0,2.0,1.0,6.0,0.0,0.0,2.0,0.0,part_2,stop,400.0,400.0,4.0,,,,,,,,,orange,diamond
0.0,1.0,1.0,0.0,5.0,5.0,636.6596239968203,2.0,0.0,part_2,go,400.0,450.0,1.0,,,,,,,,,white,circle
0.0,4.0,4.0,0.0,5.0,5.0,409.6816660021432,2.0,0.0,part_2,go,400.0,450.0,1.0,,,,,,,,,yellow,I
0.0,8.0,4.0,1.0,5.0,5.0,570.8258060039952,2.0,0.0,part_2,go,400.0,450.0,1.0,,,,,,,,,magenta,hexagon
0.0,5.0,1.0,1.0,5.0,5.0,666.9322449888568,2.0,0.0,part_2,go,400.0,450.0,1.0,,,,,,,,,blue,cross
0.0,3.0,3.0,0.0,5.0,5.0,611.7933730129153,2.0,0.0,part_2,go,400.0,450.0,1.0,,,,,,,,,cyan,square
0.0,3.0,3.0,0.0,6.0,6.0,591.7425480147358,2.0,0.0,part_2,go,400.0,450.0,1.0,,,,,,,,,cyan,square
0.0,5.0,1.0,1.0,5.0,5.0,336.0649539972655,2.0,0.0,part_2,stop,400.0,450.0,3.0,,,,,,,,,blue,cross
0.0,1.0,1.0,0.0,5.0,5.0,641.1375929892529,2.0,0.0,part_2,go,350.0,450.0,1.0,,,,,,,,,white,circle
0.0,6.0,2.0,1.0,6.0,6.0,576.9002369779628,2.0,0.0,part_2,stop,350.0,450.0,3.0,,,,,,,,,orange,diamond
0.0,3.0,3.0,0.0,6.0,6.0,589.777295012027,2.0,0.0,part_2,go,350.0,400.0,1.0,,,,,,,,,cyan,square
0.0,5.0,1.0,1.0,5.0,0.0,0.0,2.0,0.0,part_2,stop,350.0,400.0,4.0,,,,,,,,,blue,cross
0.0,4.0,4.0,0.0,6.0,6.0,755.8769989991561,2.0,0.0,part_2,go,400.0,400.0,1.0,,,,,,,,,yellow,I
0.0,2.0,2.0,0.0,5.0,5.0,629.689812019933,2.0,0.0,part_2,go,400.0,400.0,1.0,,,,,,,,,gray,flipped triangle
0.0,5.0,1.0,1.0,6.0,0.0,0.0,2.0,0.0,part_2,stop,400.0,400.0,4.0,,,,,,,,,blue,cross
0.0,1.0,1.0,0.0,6.0,6.0,618.3441680041142,2.0,0.0,part_2,go,400.0,450.0,1.0,,,,,,,,,white,circle
0.0,5.0,1.0,1.0,5.0,5.0,452.622158016311,2.0,0.0,part_2,go,400.0,450.0,1.0,,,,,,,,,blue,cross
0.0,2.0,2.0,0.0,5.0,5.0,785.3137640049681,2.0,0.0,part_2,go,400.0,450.0,1.0,,,,,,,,,gray,flipped triangle
0.0,3.0,3.0,0.0,5.0,5.0,417.4439930066,2.0,0.0,part_2,go,400.0,450.0,1.0,,,,,,,,,cyan,square
0.0,8.0,4.0,1.0,5.0,0.0,0.0,2.0,0.0,part_2,stop,400.0,450.0,4.0,,,,,,,,,magenta,hexagon
0.0,1.0,1.0,0.0,6.0,6.0,610.7577370130457,2.0,0.0,part_2,go,450.0,450.0,1.0,,,,,,,,,white,circle
0.0,7.0,3.0,1.0,5.0,5.0,488.0815549986437,2.0,0.0,part_2,stop,450.0,450.0,3.0,,,,,,,,,green,triangle
0.0,2.0,2.0,0.0,5.0,5.0,522.7065479848534,2.0,0.0,part_2,go,400.0,450.0,1.0,,,,,,,,,gray,flipped triangle
0.0,8.0,4.0,1.0,6.0,6.0,639.1922920010984,2.0,0.0,part_2,go,400.0,450.0,1.0,,,,,,,,,magenta,hexagon
0.0,2.0,2.0,0.0,5.0,5.0,432.6997960160952,2.0,0.0,part_2,go,400.0,450.0,1.0,,,,,,,,,gray,flipped triangle
0.0,4.0,4.0,0.0,5.0,5.0,510.13792300364,2.0,0.0,part_2,go,400.0,450.0,1.0,,,,,,,,,yellow,I
0.0,4.0,4.0,0.0,5.0,5.0,448.5254829924088,2.0,0.0,part_2,go,400.0,450.0,1.0,,,,,,,,,yellow,I
0.0,6.0,2.0,1.0,6.0,0.0,0.0,2.0,0.0,part_2,stop,400.0,450.0,4.0,,,,,,,,,orange,diamond
0.0,1.0,1.0,0.0,5.0,5.0,462.1738389832899,2.0,0.0,part_2,go,400.0,500.0,1.0,,,,,,,,,white,circle
0.0,7.0,3.0,1.0,5.0,5.0,443.3099120215047,2.0,0.0,part_2,go,400.0,500.0,1.0,,,,,,,,,green,triangle
0.0,3.0,3.0,0.0,5.0,5.0,602.5963409920223,2.0,0.0,part_2,go,400.0,500.0,1.0,,,,,,,,,cyan,square
0.0,3.0,3.0,0.0,5.0,5.0,580.2951130026486,2.0,0.0,part_2,go,400.0,500.0,1.0,,,,,,,,,cyan,square
0.0,6.0,2.0,1.0,6.0,0.0,0.0,2.0,0.0,part_2,stop,400.0,500.0,4.0,,,,,,,,,orange,diamond
0.0,4.0,4.0,0.0,6.0,6.0,485.0095979927573,3.0,0.0,part_2,go,400.0,550.0,1.0,,,,,,,,,yellow,I
0.0,6.0,2.0,1.0,6.0,6.0,670.6844069994986,3.0,0.0,part_2,stop,400.0,550.0,3.0,,,,,,,,,orange,diamond
0.0,1.0,1.0,0.0,5.0,5.0,547.1612859982997,3.0,0.0,part_2,go,400.0,500.0,1.0,,,,,,,,,white,circle
0.0,7.0,3.0,1.0,6.0,6.0,580.4163359862287,3.0,0.0,part_2,stop,400.0,500.0,3.0,,,,,,,,,green,triangle
0.0,4.0,4.0,0.0,5.0,5.0,393.6525500030257,3.0,0.0,part_2,go,400.0,450.0,1.0,,,,,,,,,yellow,I
0.0,2.0,2.0,0.0,6.0,6.0,633.9844939939212,3.0,0.0,part_2,go,400.0,450.0,1.0,,,,,,,,,gray,flipped triangle
0.0,4.0,4.0,0.0,6.0,6.0,346.8550089746713,3.0,0.0,part_2,go,400.0,450.0,1.0,,,,,,,,,yellow,I
0.0,6.0,2.0,1.0,6.0,6.0,305.3778950124979,3.0,0.0,part_2,stop,400.0,450.0,3.0,,,,,,,,,orange,diamond
0.0,3.0,3.0,0.0,6.0,6.0,402.9586380056571,3.0,0.0,part_2,go,400.0,400.0,1.0,,,,,,,,,cyan,square
0.0,5.0,1.0,1.0,5.0,0.0,0.0,3.0,0.0,part_2,stop,400.0,400.0,4.0,,,,,,,,,blue,cross
0.0,1.0,1.0,0.0,6.0,6.0,498.5071670089382,3.0,0.0,part_2,go,450.0,400.0,1.0,,,,,,,,,white,circle
0.0,6.0,2.0,1.0,6.0,0.0,0.0,3.0,0.0,part_2,stop,450.0,400.0,4.0,,,,,,,,,orange,diamond
0.0,4.0,4.0,0.0,5.0,5.0,709.6028279920574,3.0,0.0,part_2,go,450.0,450.0,1.0,,,,,,,,,yellow,I
0.0,5.0,1.0,1.0,5.0,5.0,684.9340820044745,3.0,0.0,part_2,go,450.0,450.0,1.0,,,,,,,,,blue,cross
0.0,1.0,1.0,0.0,5.0,5.0,557.3065269854851,3.0,0.0,part_2,go,450.0,450.0,1.0,,,,,,,,,white,circle
0.0,6.0,2.0,1.0,5.0,0.0,0.0,3.0,0.0,part_2,stop,450.0,450.0,4.0,,,,,,,,,orange,diamond
0.0,6.0,2.0,1.0,5.0,0.0,0.0,3.0,0.0,part_2,stop,500.0,450.0,4.0,,,,,,,,,orange,diamond
0.0,3.0,3.0,0.0,5.0,5.0,638.4117550041992,3.0,0.0,part_2,go,550.0,450.0,1.0,,,,,,,,,cyan,square
0.0,4.0,4.0,0.0,6.0,6.0,694.3570919975173,3.0,0.0,part_2,go,550.0,450.0,1.0,,,,,,,,,yellow,I
0.0,3.0,3.0,0.0,6.0,6.0,585.9048530110158,3.0,0.0,part_2,go,550.0,450.0,1.0,,,,,,,,,cyan,square
0.0,8.0,4.0,1.0,6.0,0.0,0.0,3.0,0.0,part_2,stop,550.0,450.0,4.0,,,,,,,,,magenta,hexagon
0.0,7.0,3.0,1.0,5.0,5.0,658.6349809949752,3.0,0.0,part_2,stop,550.0,500.0,3.0,,,,,,,,,green,triangle
0.0,7.0,3.0,1.0,6.0,6.0,554.9215100181755,3.0,0.0,part_2,go,500.0,500.0,1.0,,,,,,,,,green,triangle
0.0,8.0,4.0,1.0,6.0,0.0,0.0,3.0,0.0,part_2,stop,500.0,500.0,4.0,,,,,,,,,magenta,hexagon
0.0,3.0,3.0,0.0,5.0,5.0,673.1574950099457,3.0,0.0,part_2,go,500.0,550.0,1.0,,,,,,,,,cyan,square
0.0,3.0,3.0,0.0,6.0,6.0,535.1344159862492,3.0,0.0,part_2,go,500.0,550.0,1.0,,,,,,,,,cyan,square
0.0,5.0,1.0,1.0,5.0,5.0,655.764346010983,3.0,0.0,part_2,stop,500.0,550.0,3.0,,,,,,,,,blue,cross
0.0,8.0,4.0,1.0,5.0,0.0,0.0,3.0,0.0,part_2,stop,450.0,550.0,4.0,,,,,,,,,magenta,hexagon
0.0,7.0,3.0,1.0,5.0,0.0,0.0,3.0,0.0,part_2,stop,500.0,550.0,4.0,,,,,,,,,green,triangle
0.0,6.0,2.0,1.0,5.0,5.0,798.0126189941075,3.0,0.0,part_2,go,550.0,550.0,1.0,,,,,,,,,orange,diamond
0.0,4.0,4.0,0.0,5.0,5.0,603.3190570014995,3.0,0.0,part_2,go,550.0,550.0,1.0,,,,,,,,,yellow,I
0.0,1.0,1.0,0.0,6.0,6.0,703.1588979880325,3.0,0.0,part_2,go,550.0,550.0,1.0,,,,,,,,,white,circle
0.0,4.0,4.0,0.0,5.0,5.0,876.4176520053297,3.0,0.0,part_2,go,550.0,550.0,1.0,,,,,,,,,yellow,I
0.0,7.0,3.0,1.0,5.0,5.0,618.3092260034755,3.0,0.0,part_2,stop,550.0,550.0,3.0,,,,,,,,,green,triangle
0.0,7.0,3.0,1.0,6.0,6.0,437.5422080047428,3.0,0.0,part_2,stop,500.0,550.0,3.0,,,,,,,,,green,triangle
0.0,5.0,1.0,1.0,6.0,6.0,555.055186006939,3.0,0.0,part_2,go,500.0,500.0,1.0,,,,,,,,,blue,cross
0.0,6.0,2.0,1.0,5.0,5.0,670.2719659951981,4.0,0.0,part_2,stop,500.0,500.0,3.0,,,,,,,,,orange,diamond
0.0,2.0,2.0,0.0,5.0,5.0,598.3034330129158,4.0,0.0,part_2,go,450.0,500.0,1.0,,,,,,,,,gray,flipped triangle
0.0,2.0,2.0,0.0,6.0,6.0,540.0786309910472,4.0,0.0,part_2,go,450.0,500.0,1.0,,,,,,,,,gray,flipped triangle
0.0,3.0,3.0,0.0,5.0,5.0,815.1720360037871,4.0,0.0,part_2,go,450.0,500.0,1.0,,,,,,,,,cyan,square
0.0,6.0,2.0,1.0,6.0,6.0,310.6686150131281,4.0,0.0,part_2,go,450.0,500.0,1.0,,,,,,,,,orange,diamond
0.0,8.0,4.0,1.0,5.0,5.0,357.8496150148567,4.0,0.0,part_2,stop,450.0,500.0,3.0,,,,,,,,,magenta,hexagon
0.0,4.0,4.0,0.0,5.0,5.0,427.6243099884595,4.0,0.0,part_2,go,400.0,500.0,1.0,,,,,,,,,yellow,I
0.0,4.0,4.0,0.0,5.0,5.0,444.6951099962462,4.0,0.0,part_2,go,400.0,500.0,1.0,,,,,,,,,yellow,I
0.0,8.0,4.0,1.0,6.0,6.0,522.6864180003759,4.0,0.0,part_2,stop,400.0,500.0,3.0,,,,,,,,,magenta,hexagon
0.0,8.0,4.0,1.0,6.0,0.0,0.0,4.0,0.0,part_2,stop,400.0,450.0,4.0,,,,,,,,,magenta,hexagon
0.0,6.0,2.0,1.0,5.0,5.0,511.1334630055353,4.0,0.0,part_2,stop,400.0,500.0,3.0,,,,,,,,,orange,diamond
0.0,6.0,2.0,1.0,5.0,5.0,790.713236987358,4.0,0.0,part_2,go,350.0,500.0,1.0,,,,,,,,,orange,diamond
0.0,4.0,4.0,0.0,6.0,6.0,569.308975012973,4.0,0.0,part_2,go,350.0,500.0,1.0,,,,,,,,,yellow,I
0.0,4.0,4.0,0.0,6.0,6.0,769.6959740133025,4.0,0.0,part_2,go,350.0,500.0,1.0,,,,,,,,,yellow,I
0.0,6.0,2.0,1.0,5.0,5.0,461.271174979629,4.0,0.0,part_2,go,350.0,500.0,1.0,,,,,,,,,orange,diamond
0.0,3.0,3.0,0.0,5.0,5.0,412.7031289972365,4.0,0.0,part_2,go,350.0,500.0,1.0,,,,,,,,,cyan,square
0.0,3.0,3.0,0.0,6.0,6.0,580.8450490003452,4.0,0.0,part_2,go,350.0,500.0,1.0,,,,,,,,,cyan,square
0.0,1.0,1.0,0.0,5.0,5.0,629.5672859996557,4.0,0.0,part_2,go,350.0,500.0,1.0,,,,,,,,,white,circle
0.0,7.0,3.0,1.0,5.0,0.0,0.0,4.0,0.0,part_2,stop,350.0,500.0,4.0,,,,,,,,,green,triangle
0.0,1.0,1.0,0.0,6.0,6.0,460.1770470035262,4.0,0.0,part_2,go,400.0,500.0,1.0,,,,,,,,,white,circle
0.0,5.0,1.0,1.0,6.0,6.0,524.8376539966557,4.0,0.0,part_2,stop,400.0,500.0,3.0,,,,,,,,,blue,cross
0.0,6.0,2.0,1.0,5.0,0.0,0.0,4.0,0.0,part_2,stop,400.0,450.0,4.0,,,,,,,,,orange,diamond
0.0,6.0,2.0,1.0,5.0,0.0,0.0,4.0,0.0,part_2,stop,450.0,450.0,4.0,,,,,,,,,orange,diamond
0.0,1.0,1.0,0.0,5.0,5.0,641.2029259954579,4.0,0.0,part_2,go,500.0,450.0,1.0,,,,,,,,,white,circle
0.0,8.0,4.0,1.0,6.0,6.0,553.9951579994522,4.0,0.0,part_2,stop,500.0,450.0,3.0,,,,,,,,,magenta,hexagon
0.0,5.0,1.0,1.0,6.0,0.0,0.0,4.0,0.0,part_2,stop,500.0,400.0,4.0,,,,,,,,,blue,cross
0.0,8.0,4.0,1.0,5.0,0.0,0.0,4.0,0.0,part_2,stop,500.0,450.0,4.0,,,,,,,,,magenta,hexagon
0.0,2.0,2.0,0.0,6.0,6.0,679.2202719952911,4.0,0.0,part_2,go,550.0,450.0,1.0,,,,,,,,,gray,flipped triangle
0.0,2.0,2.0,0.0,6.0,6.0,749.3403689877596,4.0,0.0,part_2,go,550.0,450.0,1.0,,,,,,,,,gray,flipped triangle
0.0,7.0,3.0,1.0,5.0,5.0,469.2687389906496,4.0,0.0,part_2,go,550.0,450.0,1.0,,,,,,,,,green,triangle
0.0,7.0,3.0,1.0,5.0,0.0,0.0,4.0,0.0,part_2,stop,550.0,450.0,4.0,,,,,,,,,green,triangle
0.0,4.0,4.0,0.0,5.0,5.0,822.8525980084669,4.0,0.0,part_2,go,600.0,450.0,1.0,,,,,,,,,yellow,I
0.0,2.0,2.0,0.0,5.0,5.0,628.4047329972964,4.0,0.0,part_2,go,600.0,450.0,1.0,,,,,,,,,gray,flipped triangle
0.0,7.0,3.0,1.0,6.0,0.0,0.0,4.0,0.0,part_2,stop,600.0,450.0,4.0,,,,,,,,,green,triangle
0.0,6.0,2.0,1.0,5.0,5.0,666.6441880224738,4.0,0.0,part_2,stop,600.0,500.0,3.0,,,,,,,,,orange,diamond
0.0,5.0,1.0,1.0,5.0,5.0,795.7589100115001,4.0,0.0,part_2,go,550.0,500.0,1.0,,,,,,,,,blue,cross
0.0,7.0,3.0,1.0,6.0,0.0,0.0,5.0,0.0,part_2,stop,550.0,500.0,4.0,,,,,,,,,green,triangle
0.0,2.0,2.0,0.0,6.0,6.0,633.4608430042863,5.0,0.0,part_2,go,550.0,550.0,1.0,,,,,,,,,gray,flipped triangle
0.0,2.0,2.0,0.0,5.0,5.0,362.4655359890312,5.0,0.0,part_2,go,550.0,550.0,1.0,,,,,,,,,gray,flipped triangle
0.0,4.0,4.0,0.0,6.0,6.0,497.65836898586707,5.0,0.0,part_2,go,550.0,550.0,1.0,,,,,,,,,yellow,I
0.0,7.0,3.0,1.0,5.0,0.0,0.0,5.0,0.0,part_2,stop,550.0,550.0,4.0,,,,,,,,,green,triangle
0.0,3.0,3.0,0.0,6.0,6.0,726.3332389993593,5.0,0.0,part_2,go,600.0,550.0,1.0,,,,,,,,,cyan,square
0.0,2.0,2.0,0.0,6.0,6.0,841.5869549789932,5.0,0.0,part_2,go,600.0,550.0,1.0,,,,,,,,,gray,flipped triangle
0.0,3.0,3.0,0.0,6.0,6.0,375.2472120104357,5.0,0.0,part_2,go,600.0,550.0,1.0,,,,,,,,,cyan,square
0.0,8.0,4.0,1.0,5.0,5.0,615.5470889934804,5.0,0.0,part_2,go,600.0,550.0,1.0,,,,,,,,,magenta,hexagon
0.0,8.0,4.0,1.0,5.0,5.0,647.0130550151225,5.0,0.0,part_2,stop,600.0,550.0,3.0,,,,,,,,,magenta,hexagon
0.0,5.0,1.0,1.0,6.0,6.0,572.5296320160851,5.0,0.0,part_2,stop,550.0,550.0,3.0,,,,,,,,,blue,cross
0.0,3.0,3.0,0.0,6.0,6.0,829.6402379928622,5.0,0.0,part_2,go,550.0,500.0,1.0,,,,,,,,,cyan,square
0.0,3.0,3.0,0.0,5.0,5.0,794.1003160085529,5.0,0.0,part_2,go,550.0,500.0,1.0,,,,,,,,,cyan,square
0.0,5.0,1.0,1.0,5.0,5.0,682.5669889803976,5.0,0.0,part_2,stop,550.0,500.0,3.0,,,,,,,,,blue,cross
0.0,5.0,1.0,1.0,6.0,6.0,674.1148449946195,5.0,0.0,part_2,go,500.0,500.0,1.0,,,,,,,,,blue,cross
0.0,5.0,1.0,1.0,5.0,0.0,0.0,5.0,0.0,part_2,stop,500.0,500.0,4.0,,,,,,,,,blue,cross
0.0,1.0,1.0,0.0,6.0,6.0,594.0602920018137,5.0,0.0,part_2,go,550.0,500.0,1.0,,,,,,,,,white,circle
0.0,7.0,3.0,1.0,6.0,0.0,0.0,5.0,0.0,part_2,stop,550.0,500.0,4.0,,,,,,,,,green,triangle
0.0,6.0,2.0,1.0,6.0,0.0,0.0,5.0,0.0,part_2,stop,550.0,550.0,4.0,,,,,,,,,orange,diamond
0.0,3.0,3.0,0.0,6.0,6.0,961.6023319831584,5.0,0.0,part_2,go,550.0,600.0,1.0,,,,,,,,,cyan,square
0.0,8.0,4.0,1.0,6.0,6.0,825.9978919813875,5.0,0.0,part_2,go,550.0,600.0,1.0,,,,,,,,,magenta,hexagon
0.0,1.0,1.0,0.0,5.0,5.0,791.7250079917721,5.0,0.0,part_2,go,550.0,600.0,1.0,,,,,,,,,white,circle
0.0,8.0,4.0,1.0,5.0,5.0,793.0596040096134,5.0,0.0,part_2,go,550.0,600.0,1.0,,,,,,,,,magenta,hexagon
0.0,7.0,3.0,1.0,5.0,0.0,0.0,5.0,0.0,part_2,stop,550.0,600.0,4.0,,,,,,,,,green,triangle
0.0,2.0,2.0,0.0,6.0,0.0,0.0,5.0,0.0,part_2,go,600.0,600.0,5.0,,,,,,,,,gray,flipped triangle
0.0,4.0,4.0,0.0,6.0,6.0,715.7966110098641,5.0,0.0,part_2,go,600.0,600.0,1.0,,,,,,,,,yellow,I
0.0,8.0,4.0,1.0,6.0,6.0,700.08616099949,5.0,0.0,part_2,stop,600.0,600.0,3.0,,,,,,,,,magenta,hexagon
0.0,3.0,3.0,0.0,5.0,5.0,380.3222489950713,5.0,0.0,part_2,go,600.0,550.0,1.0,,,,,,,,,cyan,square
0.0,5.0,1.0,1.0,6.0,6.0,538.7500209908467,5.0,0.0,part_2,stop,600.0,550.0,3.0,,,,,,,,,blue,cross
0.0,7.0,3.0,1.0,6.0,6.0,529.2086450208444,5.0,0.0,part_2,stop,600.0,500.0,3.0,,,,,,,,,green,triangle
0.0,1.0,1.0,0.0,6.0,6.0,633.148021006491,5.0,0.0,part_2,go,600.0,450.0,1.0,,,,,,,,,white,circle
0.0,2.0,2.0,0.0,5.0,5.0,520.3951619914733,5.0,0.0,part_2,go,600.0,450.0,1.0,,,,,,,,,gray,flipped triangle
0.0,5.0,1.0,1.0,5.0,5.0,643.4112910064869,5.0,0.0,part_2,stop,600.0,450.0,3.0,,,,,,,,,blue,cross
0.0,1.0,1.0,0.0,6.0,6.0,502.71614801022224,5.0,0.0,part_2,go,550.0,450.0,1.0,,,,,,,,,white,circle
0.0,4.0,4.0,0.0,5.0,5.0,616.083497996442,5.0,0.0,part_2,go,550.0,450.0,1.0,,,,,,,,,yellow,I
0.0,6.0,2.0,1.0,5.0,5.0,584.0646639990155,5.0,0.0,part_2,go,550.0,450.0,1.0,,,,,,,,,orange,diamond
0.0,4.0,4.0,0.0,6.0,6.0,460.4432930063922,6.0,0.0,part_2,go,550.0,450.0,1.0,,,,,,,,,yellow,I
0.0,1.0,1.0,0.0,5.0,5.0,492.4760569992941,6.0,0.0,part_2,go,550.0,450.0,1.0,,,,,,,,,white,circle
0.0,5.0,1.0,1.0,6.0,6.0,444.8385080031585,6.0,0.0,part_2,stop,550.0,450.0,3.0,,,,,,,,,blue,cross
0.0,8.0,4.0,1.0,5.0,5.0,546.8863630085252,6.0,0.0,part_2,stop,550.0,400.0,3.0,,,,,,,,,magenta,hexagon
0.0,2.0,2.0,0.0,5.0,5.0,593.3036700007506,6.0,0.0,part_2,go,500.0,400.0,1.0,,,,,,,,,gray,flipped triangle
0.0,8.0,4.0,1.0,5.0,5.0,711.4496149879415,6.0,0.0,part_2,go,500.0,400.0,1.0,,,,,,,,,magenta,hexagon
0.0,7.0,3.0,1.0,5.0,0.0,0.0,6.0,0.0,part_2,stop,500.0,400.0,4.0,,,,,,,,,green,triangle
0.0,5.0,1.0,1.0,6.0,6.0,586.7885950137861,6.0,0.0,part_2,go,550.0,400.0,1.0,,,,,,,,,blue,cross
0.0,8.0,4.0,1.0,5.0,0.0,0.0,6.0,0.0,part_2,stop,550.0,400.0,4.0,,,,,,,,,magenta,hexagon
0.0,8.0,4.0,1.0,6.0,0.0,0.0,6.0,0.0,part_2,stop,600.0,400.0,4.0,,,,,,,,,magenta,hexagon
0.0,1.0,1.0,0.0,5.0,5.0,841.1022719810717,6.0,0.0,part_2,go,600.0,450.0,1.0,,,,,,,,,white,circle
0.0,2.0,2.0,0.0,6.0,6.0,654.9531719938386,6.0,0.0,part_2,go,600.0,450.0,1.0,,,,,,,,,gray,flipped triangle
0.0,1.0,1.0,0.0,6.0,6.0,421.659328014357,6.0,0.0,part_2,go,600.0,450.0,1.0,,,,,,,,,white,circle
0.0,2.0,2.0,0.0,5.0,5.0,661.1398630193435,6.0,0.0,part_2,go,600.0,450.0,1.0,,,,,,,,,gray,flipped triangle
0.0,1.0,1.0,0.0,6.0,6.0,438.8149610022083,6.0,0.0,part_2,go,600.0,450.0,1.0,,,,,,,,,white,circle
0.0,8.0,4.0,1.0,5.0,5.0,698.6531489819754,6.0,0.0,part_2,stop,600.0,450.0,3.0,,,,,,,,,magenta,hexagon
0.0,7.0,3.0,1.0,5.0,0.0,0.0,6.0,0.0,part_2,stop,550.0,450.0,4.0,,,,,,,,,green,triangle
0.0,6.0,2.0,1.0,6.0,0.0,0.0,6.0,0.0,part_2,stop,600.0,450.0,4.0,,,,,,,,,orange,diamond
0.0,3.0,3.0,0.0,6.0,6.0,768.6432710033841,6.0,0.0,part_2,go,600.0,500.0,1.0,,,,,,,,,cyan,square
0.0,4.0,4.0,0.0,6.0,6.0,696.3419759995304,6.0,0.0,part_2,go,600.0,500.0,1.0,,,,,,,,,yellow,I
0.0,1.0,1.0,0.0,6.0,6.0,699.2878059973009,6.0,0.0,part_2,go,600.0,500.0,1.0,,,,,,,,,white,circle
0.0,7.0,3.0,1.0,6.0,0.0,0.0,6.0,0.0,part_2,stop,600.0,500.0,4.0,,,,,,,,,green,triangle
0.0,6.0,2.0,1.0,6.0,6.0,1086.9021780090409,6.0,0.0,part_2,go,600.0,550.0,1.0,,,,,,,,,orange,diamond
0.0,6.0,2.0,1.0,5.0,0.0,0.0,6.0,0.0,part_2,stop,600.0,550.0,4.0,,,,,,,,,orange,diamond
0.0,1.0,1.0,0.0,5.0,5.0,679.9814679834526,6.0,0.0,part_2,go,650.0,550.0,1.0,,,,,,,,,white,circle
0.0,3.0,3.0,0.0,5.0,5.0,631.2873789865989,6.0,0.0,part_2,go,650.0,550.0,1.0,,,,,,,,,cyan,square
0.0,5.0,1.0,1.0,5.0,5.0,704.3372500047553,6.0,0.0,part_2,stop,650.0,550.0,3.0,,,,,,,,,blue,cross
0.0,6.0,2.0,1.0,6.0,0.0,0.0,6.0,0.0,part_2,stop,600.0,550.0,4.0,,,,,,,,,orange,diamond
0.0,5.0,1.0,1.0,5.0,0.0,0.0,6.0,0.0,part_2,stop,600.0,600.0,4.0,,,,,,,,,blue,cross
0.0,2.0,2.0,0.0,6.0,6.0,684.8842150066048,6.0,0.0,part_2,go,650.0,600.0,1.0,,,,,,,,,gray,flipped triangle
0.0,5.0,1.0,1.0,6.0,0.0,0.0,6.0,0.0,part_2,stop,650.0,600.0,4.0,,,,,,,,,blue,cross
0.0,4.0,4.0,0.0,6.0,6.0,748.7610079988372,6.0,0.0,part_2,go,650.0,650.0,1.0,,,,,,,,,yellow,I
0.0,6.0,2.0,1.0,6.0,0.0,0.0,6.0,0.0,part_2,stop,650.0,650.0,4.0,,,,,,,,,orange,diamond
0.0,4.0,4.0,0.0,6.0,6.0,636.565670982236,6.0,0.0,part_2,go,650.0,700.0,1.0,,,,,,,,,yellow,I
0.0,2.0,2.0,0.0,5.0,5.0,746.6565359791275,6.0,0.0,part_2,go,650.0,700.0,1.0,,,,,,,,,gray,flipped triangle
0.0,7.0,3.0,1.0,6.0,6.0,882.172832993092,6.0,0.0,part_2,go,650.0,700.0,1.0,,,,,,,,,green,triangle
0.0,6.0,2.0,1.0,5.0,5.0,616.057303006528,7.0,0.0,part_2,stop,650.0,700.0,3.0,,,,,,,,,orange,diamond
0.0,8.0,4.0,1.0,5.0,5.0,591.2032639898825,7.0,0.0,part_2,stop,600.0,700.0,3.0,,,,,,,,,magenta,hexagon
0.0,8.0,4.0,1.0,5.0,0.0,0.0,7.0,0.0,part_2,stop,550.0,700.0,4.0,,,,,,,,,magenta,hexagon
0.0,3.0,3.0,0.0,5.0,5.0,693.04112799,7.0,0.0,part_2,go,600.0,700.0,1.0,,,,,,,,,cyan,square
0.0,2.0,2.0,0.0,5.0,5.0,701.2116909900215,7.0,0.0,part_2,go,600.0,700.0,1.0,,,,,,,,,gray,flipped triangle
0.0,6.0,2.0,1.0,5.0,5.0,637.9286049923394,7.0,0.0,part_2,stop,600.0,700.0,3.0,,,,,,,,,orange,diamond
0.0,8.0,4.0,1.0,6.0,6.0,498.4565869963262,7.0,0.0,part_2,stop,550.0,700.0,3.0,,,,,,,,,magenta,hexagon
0.0,2.0,2.0,0.0,6.0,6.0,1000.6158309988678,7.0,0.0,part_2,go,550.0,650.0,1.0,,,,,,,,,gray,flipped triangle
0.0,5.0,1.0,1.0,6.0,6.0,480.9019409876782,7.0,0.0,part_2,stop,550.0,650.0,3.0,,,,,,,,,blue,cross
0.0,5.0,1.0,1.0,6.0,6.0,650.9435300249606,7.0,0.0,part_2,stop,550.0,600.0,3.0,,,,,,,,,blue,cross
0.0,6.0,2.0,1.0,6.0,0.0,0.0,7.0,0.0,part_2,stop,550.0,550.0,4.0,,,,,,,,,orange,diamond
0.0,2.0,2.0,0.0,5.0,5.0,617.7647320146207,7.0,0.0,part_2,go,550.0,600.0,1.0,,,,,,,,,gray,flipped triangle
0.0,3.0,3.0,0.0,6.0,6.0,855.7911149982829,7.0,0.0,part_2,go,550.0,600.0,1.0,,,,,,,,,cyan,square
0.0,6.0,2.0,1.0,6.0,6.0,696.8855750164948,7.0,0.0,part_2,stop,550.0,600.0,3.0,,,,,,,,,orange,diamond
0.0,4.0,4.0,0.0,6.0,6.0,748.5440559976269,7.0,0.0,part_2,go,550.0,550.0,1.0,,,,,,,,,yellow,I
0.0,7.0,3.0,1.0,6.0,6.0,892.8369790082797,7.0,0.0,part_2,go,550.0,550.0,1.0,,,,,,,,,green,triangle
0.0,8.0,4.0,1.0,6.0,6.0,790.0759009935427,7.0,0.0,part_2,go,550.0,550.0,1.0,,,,,,,,,magenta,hexagon
0.0,3.0,3.0,0.0,6.0,6.0,1149.8818680120166,7.0,0.0,part_2,go,550.0,550.0,1.0,,,,,,,,,cyan,square
0.0,4.0,4.0,0.0,6.0,6.0,826.9714479974937,7.0,0.0,part_2,go,550.0,550.0,1.0,,,,,,,,,yellow,I
0.0,1.0,1.0,0.0,6.0,6.0,532.9357539885677,7.0,0.0,part_2,go,550.0,550.0,1.0,,,,,,,,,white,circle
0.0,5.0,1.0,1.0,5.0,0.0,0.0,7.0,0.0,part_2,stop,550.0,550.0,4.0,,,,,,,,,blue,cross
0.0,5.0,1.0,1.0,6.0,6.0,643.7952730047982,7.0,0.0,part_2,stop,600.0,550.0,3.0,,,,,,,,,blue,cross
0.0,6.0,2.0,1.0,5.0,0.0,0.0,7.0,0.0,part_2,stop,600.0,500.0,4.0,,,,,,,,,orange,diamond
0.0,3.0,3.0,0.0,6.0,6.0,544.8363090108614,7.0,0.0,part_2,go,650.0,500.0,1.0,,,,,,,,,cyan,square
0.0,1.0,1.0,0.0,6.0,6.0,651.2934180209413,7.0,0.0,part_2,go,650.0,500.0,1.0,,,,,,,,,white,circle
0.0,1.0,1.0,0.0,5.0,5.0,750.8095820085146,7.0,0.0,part_2,go,650.0,500.0,1.0,,,,,,,,,white,circle
0.0,8.0,4.0,1.0,6.0,0.0,0.0,7.0,0.0,part_2,stop,650.0,500.0,4.0,,,,,,,,,magenta,hexagon
0.0,1.0,1.0,0.0,6.0,6.0,727.3354909848422,7.0,0.0,part_2,go,650.0,550.0,1.0,,,,,,,,,white,circle
0.0,6.0,2.0,1.0,6.0,0.0,0.0,7.0,0.0,part_2,stop,650.0,550.0,4.0,,,,,,,,,orange,diamond
0.0,7.0,3.0,1.0,6.0,0.0,0.0,7.0,0.0,part_2,stop,650.0,600.0,4.0,,,,,,,,,green,triangle
0.0,2.0,2.0,0.0,6.0,6.0,567.7725260029547,7.0,0.0,part_2,go,650.0,650.0,1.0,,,,,,,,,gray,flipped triangle
0.0,4.0,4.0,0.0,5.0,5.0,494.645897008013,7.0,0.0,part_2,go,650.0,650.0,1.0,,,,,,,,,yellow,I
0.0,7.0,3.0,1.0,5.0,5.0,580.8274100127164,7.0,0.0,part_2,stop,650.0,650.0,3.0,,,,,,,,,green,triangle
0.0,3.0,3.0,0.0,5.0,5.0,405.4701659770217,7.0,0.0,part_2,go,600.0,650.0,1.0,,,,,,,,,cyan,square
0.0,5.0,1.0,1.0,6.0,0.0,0.0,7.0,0.0,part_2,stop,600.0,650.0,4.0,,,,,,,,,blue,cross
0.0,5.0,1.0,1.0,5.0,5.0,547.621143021388,7.0,0.0,part_2,go,600.0,700.0,1.0,,,,,,,,,blue,cross
0.0,7.0,3.0,1.0,6.0,6.0,336.5702510054689,8.0,0.0,part_2,stop,600.0,700.0,3.0,,,,,,,,,green,triangle
0.0,7.0,3.0,1.0,5.0,5.0,426.6504730039742,8.0,0.0,part_2,go,600.0,650.0,1.0,,,,,,,,,green,triangle
0.0,8.0,4.0,1.0,6.0,6.0,473.891244007973,8.0,0.0,part_2,stop,600.0,650.0,3.0,,,,,,,,,magenta,hexagon
0.0,3.0,3.0,0.0,5.0,5.0,542.3860440205317,8.0,0.0,part_2,go,600.0,600.0,1.0,,,,,,,,,cyan,square
0.0,2.0,2.0,0.0,5.0,5.0,550.2687400148716,8.0,0.0,part_2,go,600.0,600.0,1.0,,,,,,,,,gray,flipped triangle
0.0,6.0,2.0,1.0,6.0,6.0,537.0276260073297,8.0,0.0,part_2,go,600.0,600.0,1.0,,,,,,,,,orange,diamond
0.0,4.0,4.0,0.0,6.0,6.0,488.3562139875721,8.0,0.0,part_2,go,600.0,600.0,1.0,,,,,,,,,yellow,I
0.0,2.0,2.0,0.0,6.0,6.0,587.9767290025484,8.0,0.0,part_2,go,600.0,600.0,1.0,,,,,,,,,gray,flipped triangle
0.0,1.0,1.0,0.0,5.0,5.0,517.1587549848482,8.0,0.0,part_2,go,600.0,600.0,1.0,,,,,,,,,white,circle
0.0,7.0,3.0,1.0,6.0,6.0,334.4890209846198,8.0,0.0,part_2,stop,600.0,600.0,3.0,,,,,,,,,green,triangle
0.0,3.0,3.0,0.0,6.0,6.0,445.3438729979098,8.0,0.0,part_2,go,600.0,550.0,1.0,,,,,,,,,cyan,square
0.0,7.0,3.0,1.0,6.0,6.0,373.0340410256758,8.0,0.0,part_2,go,600.0,550.0,1.0,,,,,,,,,green,triangle
0.0,3.0,3.0,0.0,6.0,6.0,555.8092349965591,8.0,0.0,part_2,go,600.0,550.0,1.0,,,,,,,,,cyan,square
0.0,1.0,1.0,0.0,6.0,6.0,552.8811760013923,8.0,0.0,part_2,go,600.0,550.0,1.0,,,,,,,,,white,circle
0.0,2.0,2.0,0.0,5.0,5.0,377.0896240021102,8.0,0.0,part_2,go,600.0,550.0,1.0,,,,,,,,,gray,flipped triangle
0.0,8.0,4.0,1.0,6.0,6.0,328.4824999864213,8.0,0.0,part_2,stop,600.0,550.0,3.0,,,,,,,,,magenta,hexagon
0.0,8.0,4.0,1.0,5.0,5.0,466.3188910053577,8.0,0.0,part_2,stop,600.0,500.0,3.0,,,,,,,,,magenta,hexagon
0.0,1.0,1.0,0.0,5.0,5.0,511.59437000751495,8.0,0.0,part_2,go,550.0,500.0,1.0,,,,,,,,,white,circle
0.0,4.0,4.0,0.0,6.0,6.0,454.0008390031289,8.0,0.0,part_2,go,550.0,500.0,1.0,,,,,,,,,yellow,I
0.0,3.0,3.0,0.0,6.0,6.0,510.3262290067505,8.0,0.0,part_2,go,550.0,500.0,1.0,,,,,,,,,cyan,square
0.0,4.0,4.0,0.0,6.0,6.0,663.5661420004908,8.0,0.0,part_2,go,550.0,500.0,1.0,,,,,,,,,yellow,I
0.0,3.0,3.0,0.0,5.0,5.0,564.4718969997484,8.0,0.0,part_2,go,550.0,500.0,1.0,,,,,,,,,cyan,square
0.0,7.0,3.0,1.0,5.0,5.0,365.3579499805346,8.0,0.0,part_2,stop,550.0,500.0,3.0,,,,,,,,,green,triangle
0.0,5.0,1.0,1.0,5.0,5.0,619.900442979997,8.0,0.0,part_2,stop,500.0,500.0,3.0,,,,,,,,,blue,cross
0.0,6.0,2.0,1.0,5.0,5.0,675.0680689874571,8.0,0.0,part_2,go,450.0,500.0,1.0,,,,,,,,,orange,diamond
0.0,7.0,3.0,1.0,6.0,6.0,540.0960700062569,8.0,0.0,part_2,stop,450.0,500.0,3.0,,,,,,,,,green,triangle
0.0,7.0,3.0,1.0,5.0,0.0,0.0,8.0,0.0,part_2,stop,450.0,450.0,4.0,,,,,,,,,green,triangle
0.0,7.0,3.0,1.0,6.0,6.0,512.9870519740507,8.0,0.0,part_2,stop,500.0,450.0,3.0,,,,,,,,,green,triangle
0.0,2.0,2.0,0.0,6.0,6.0,524.3138399964664,8.0,0.0,part_2,go,500.0,400.0,1.0,,,,,,,,,gray,flipped triangle
0.0,8.0,4.0,1.0,5.0,5.0,639.8014570004307,8.0,0.0,part_2,stop,500.0,400.0,3.0,,,,,,,,,magenta,hexagon
0.0,5.0,1.0,1.0,6.0,0.0,0.0,8.0,0.0,part_2,stop,450.0,400.0,4.0,,,,,,,,,blue,cross
0.0,1.0,1.0,0.0,5.0,5.0,545.5798580078408,8.0,0.0,part_2,go,450.0,450.0,1.0,,,,,,,,,white,circle
0.0,3.0,3.0,0.0,5.0,5.0,648.7044969981071,8.0,0.0,part_2,go,450.0,450.0,1.0,,,,,,,,,cyan,square
0.0,4.0,4.0,0.0,5.0,5.0,399.6195470099337,8.0,0.0,part_2,go,450.0,450.0,1.0,,,,,,,,,yellow,I
0.0,3.0,3.0,0.0,5.0,5.0,369.2163300001994,8.0,0.0,part_2,go,450.0,450.0,1.0,,,,,,,,,cyan,square
0.0,1.0,1.0,0.0,5.0,5.0,367.8805850213393,8.0,0.0,part_2,go,450.0,450.0,1.0,,,,,,,,,white,circle
0.0,5.0,1.0,1.0,7.0,4.0,4031.9338960107416,1.0,1.0,part_3,go,0.0,0.0,0.0,245.0,5.0,196.0,294.0,147.0,245.0,49.0,98.0,blue,cross
0.0,8.0,4.0,1.0,7.0,6.0,2988.72689701966,1.0,1.0,part_3,go,0.0,0.0,0.0,264.0,6.0,88.0,44.0,176.0,132.0,220.0,264.0,magenta,hexagon
0.0,1.0,1.0,0.0,7.0,1.0,2512.456142983865,1.0,1.0,part_3,go,0.0,0.0,0.0,195.0,5.0,195.0,234.0,39.0,78.0,156.0,117.0,white,circle
0.0,2.0,2.0,0.0,7.0,2.0,3659.5497129892465,1.0,1.0,part_3,go,0.0,0.0,0.0,195.0,5.0,78.0,195.0,39.0,117.0,156.0,234.0,gray,flipped triangle
0.0,5.0,1.0,1.0,7.0,5.0,3123.028464004165,1.0,1.0,part_3,go,0.0,0.0,0.0,220.0,5.0,88.0,132.0,176.0,44.0,220.0,264.0,blue,cross
0.0,2.0,2.0,0.0,7.0,5.0,4613.608938991092,1.0,1.0,part_3,go,0.0,0.0,0.0,216.0,4.0,54.0,162.0,270.0,324.0,216.0,108.0,gray,flipped triangle
0.0,1.0,1.0,0.0,7.0,4.0,2313.505538011668,1.0,1.0,part_3,go,0.0,0.0,0.0,196.0,4.0,294.0,49.0,98.0,196.0,147.0,245.0,white,circle
0.0,6.0,2.0,1.0,7.0,4.0,2954.418804991292,1.0,1.0,part_3,go,0.0,0.0,0.0,220.0,5.0,44.0,264.0,132.0,220.0,176.0,88.0,orange,diamond
0.0,1.0,1.0,0.0,7.0,1.0,3078.3440789964516,1.0,1.0,part_3,go,0.0,0.0,0.0,264.0,6.0,264.0,176.0,132.0,88.0,220.0,44.0,white,circle
0.0,7.0,3.0,1.0,7.0,4.0,2429.34606000199,1.0,1.0,part_3,go,0.0,0.0,0.0,220.0,5.0,44.0,88.0,132.0,220.0,176.0,264.0,green,triangle
0.0,3.0,3.0,0.0,7.0,3.0,1687.944453995442,1.0,2.0,part_3,go,0.0,0.0,0.0,216.0,4.0,324.0,162.0,216.0,270.0,54.0,108.0,cyan,square
0.0,7.0,3.0,1.0,7.0,2.0,1624.7711789910682,1.0,1.0,part_3,go,0.0,0.0,0.0,195.0,5.0,156.0,195.0,234.0,117.0,39.0,78.0,green,triangle
0.0,5.0,1.0,1.0,7.0,1.0,1730.9313300065696,1.0,1.0,part_3,go,0.0,0.0,0.0,245.0,5.0,245.0,294.0,49.0,98.0,196.0,147.0,blue,cross
0.0,2.0,2.0,0.0,7.0,4.0,1486.483788001351,1.0,1.0,part_3,go,0.0,0.0,0.0,88.0,2.0,176.0,264.0,132.0,88.0,44.0,220.0,gray,flipped triangle
0.0,8.0,4.0,1.0,7.0,2.0,1870.3017410007303,1.0,1.0,part_3,go,0.0,0.0,0.0,98.0,2.0,49.0,98.0,245.0,294.0,147.0,196.0,magenta,hexagon
0.0,7.0,3.0,1.0,7.0,5.0,1196.9164530164562,1.0,1.0,part_3,go,0.0,0.0,0.0,220.0,5.0,88.0,44.0,132.0,176.0,220.0,264.0,green,triangle
0.0,4.0,4.0,0.0,7.0,6.0,2713.248557993211,1.0,1.0,part_3,go,0.0,0.0,0.0,204.0,6.0,68.0,34.0,170.0,136.0,102.0,204.0,yellow,I
0.0,1.0,1.0,0.0,7.0,2.0,1031.944910006132,1.0,1.0,part_3,go,0.0,0.0,0.0,156.0,4.0,78.0,156.0,195.0,117.0,39.0,234.0,white,circle
0.0,3.0,3.0,0.0,7.0,4.0,1723.7951199931558,1.0,1.0,part_3,go,0.0,0.0,0.0,162.0,3.0,270.0,108.0,324.0,162.0,54.0,216.0,cyan,square
0.0,7.0,3.0,1.0,7.0,5.0,990.5575699813198,1.0,1.0,part_3,go,0.0,0.0,0.0,196.0,4.0,98.0,147.0,294.0,49.0,196.0,245.0,green,triangle
0.0,4.0,4.0,0.0,7.0,2.0,804.308033984853,2.0,1.0,part_3,go,0.0,0.0,0.0,102.0,3.0,34.0,102.0,136.0,68.0,204.0,170.0,yellow,I
0.0,1.0,1.0,0.0,7.0,5.0,1012.3552889854182,2.0,1.0,part_3,go,0.0,0.0,0.0,264.0,6.0,176.0,88.0,132.0,220.0,264.0,44.0,white,circle
0.0,5.0,1.0,1.0,7.0,4.0,1352.1206169971265,2.0,1.0,part_3,go,0.0,0.0,0.0,102.0,3.0,34.0,68.0,170.0,102.0,204.0,136.0,blue,cross
0.0,3.0,3.0,0.0,7.0,6.0,959.4247910135892,2.0,1.0,part_3,go,0.0,0.0,0.0,204.0,6.0,102.0,170.0,136.0,34.0,68.0,204.0,cyan,square
0.0,2.0,2.0,0.0,7.0,4.0,1720.903942012228,2.0,1.0,part_3,go,0.0,0.0,0.0,216.0,4.0,270.0,54.0,324.0,216.0,108.0,162.0,gray,flipped triangle
0.0,8.0,4.0,1.0,7.0,2.0,1314.212661003694,2.0,1.0,part_3,go,0.0,0.0,0.0,216.0,4.0,108.0,216.0,54.0,324.0,270.0,162.0,magenta,hexagon
0.0,8.0,4.0,1.0,7.0,6.0,1052.7225990081206,2.0,1.0,part_3,go,0.0,0.0,0.0,234.0,6.0,39.0,78.0,156.0,117.0,195.0,234.0,magenta,hexagon
0.0,7.0,3.0,1.0,7.0,3.0,1485.1194380025845,2.0,1.0,part_3,go,0.0,0.0,0.0,216.0,4.0,270.0,54.0,216.0,162.0,108.0,324.0,green,triangle
0.0,2.0,2.0,0.0,7.0,6.0,1060.5417159968056,2.0,1.0,part_3,go,0.0,0.0,0.0,196.0,4.0,49.0,245.0,147.0,294.0,98.0,196.0,gray,flipped triangle
0.0,8.0,4.0,1.0,7.0,2.0,1561.549129022751,2.0,1.0,part_3,go,0.0,0.0,0.0,136.0,4.0,68.0,136.0,102.0,34.0,170.0,204.0,magenta,hexagon
0.0,2.0,2.0,0.0,7.0,1.0,1826.5560239960903,2.0,1.0,part_3,go,0.0,0.0,0.0,195.0,5.0,195.0,78.0,39.0,156.0,117.0,234.0,gray,flipped triangle
0.0,6.0,2.0,1.0,7.0,4.0,1667.8587060014252,2.0,1.0,part_3,go,0.0,0.0,0.0,216.0,4.0,324.0,108.0,162.0,216.0,270.0,54.0,orange,diamond
0.0,8.0,4.0,1.0,7.0,5.0,1187.2912859835196,2.0,1.0,part_3,go,0.0,0.0,0.0,216.0,4.0,324.0,270.0,108.0,162.0,216.0,54.0,magenta,hexagon
0.0,1.0,1.0,0.0,7.0,1.0,1037.81247799634,2.0,1.0,part_3,go,0.0,0.0,0.0,245.0,5.0,245.0,49.0,98.0,196.0,294.0,147.0,white,circle
0.0,4.0,4.0,0.0,7.0,3.0,1303.0952230037656,2.0,1.0,part_3,go,0.0,0.0,0.0,156.0,4.0,78.0,117.0,156.0,234.0,195.0,39.0,yellow,I
0.0,6.0,2.0,1.0,7.0,4.0,968.7541739840526,2.0,1.0,part_3,go,0.0,0.0,0.0,78.0,2.0,195.0,156.0,39.0,78.0,234.0,117.0,orange,diamond
0.0,8.0,4.0,1.0,7.0,2.0,1793.7533209915273,2.0,1.0,part_3,go,0.0,0.0,0.0,196.0,4.0,294.0,196.0,147.0,98.0,49.0,245.0,magenta,hexagon
0.0,6.0,2.0,1.0,7.0,4.0,1320.7668349787127,2.0,1.0,part_3,go,0.0,0.0,0.0,162.0,3.0,324.0,216.0,54.0,162.0,270.0,108.0,orange,diamond
0.0,3.0,3.0,0.0,7.0,1.0,1293.960811017314,2.0,1.0,part_3,go,0.0,0.0,0.0,245.0,5.0,245.0,294.0,196.0,98.0,49.0,147.0,cyan,square
0.0,6.0,2.0,1.0,7.0,5.0,1212.1467450051568,2.0,1.0,part_3,go,0.0,0.0,0.0,136.0,4.0,102.0,170.0,68.0,204.0,136.0,34.0,orange,diamond
0.0,5.0,1.0,1.0,7.0,4.0,1339.194662985392,3.0,1.0,part_3,go,0.0,0.0,0.0,220.0,5.0,88.0,264.0,44.0,220.0,132.0,176.0,blue,cross
0.0,6.0,2.0,1.0,7.0,1.0,917.3864430049434,3.0,1.0,part_3,go,0.0,0.0,0.0,147.0,3.0,147.0,294.0,196.0,98.0,245.0,49.0,orange,diamond
0.0,4.0,4.0,0.0,7.0,5.0,1675.4548670141958,3.0,1.0,part_3,go,0.0,0.0,0.0,270.0,5.0,324.0,216.0,162.0,54.0,270.0,108.0,yellow,I
0.0,8.0,4.0,1.0,7.0,1.0,1141.10558401444,3.0,1.0,part_3,go,0.0,0.0,0.0,170.0,5.0,170.0,68.0,136.0,34.0,102.0,204.0,magenta,hexagon
0.0,5.0,1.0,1.0,7.0,5.0,1791.9345580157824,3.0,1.0,part_3,go,0.0,0.0,0.0,216.0,4.0,162.0,54.0,108.0,324.0,216.0,270.0,blue,cross
0.0,2.0,2.0,0.0,7.0,4.0,1615.1854019844905,3.0,1.0,part_3,go,0.0,0.0,0.0,245.0,5.0,98.0,147.0,294.0,245.0,49.0,196.0,gray,flipped triangle
0.0,6.0,2.0,1.0,7.0,1.0,1026.8437250051647,3.0,1.0,part_3,go,0.0,0.0,0.0,117.0,3.0,117.0,78.0,195.0,234.0,39.0,156.0,orange,diamond
0.0,6.0,2.0,1.0,7.0,2.0,1154.2093839962035,3.0,1.0,part_3,go,0.0,0.0,0.0,220.0,5.0,176.0,220.0,44.0,88.0,132.0,264.0,orange,diamond
0.0,2.0,2.0,0.0,7.0,3.0,1443.8195149996318,3.0,1.0,part_3,go,0.0,0.0,0.0,264.0,6.0,88.0,44.0,264.0,220.0,176.0,132.0,gray,flipped triangle
0.0,7.0,3.0,1.0,7.0,5.0,1197.1272059890907,3.0,1.0,part_3,go,0.0,0.0,0.0,156.0,4.0,195.0,117.0,78.0,234.0,156.0,39.0,green,triangle
0.0,1.0,1.0,0.0,7.0,2.0,1430.8733200014103,3.0,1.0,part_3,go,0.0,0.0,0.0,162.0,3.0,54.0,162.0,324.0,108.0,216.0,270.0,white,circle
0.0,7.0,3.0,1.0,7.0,4.0,1471.7482150008436,3.0,1.0,part_3,go,0.0,0.0,0.0,170.0,5.0,34.0,68.0,102.0,170.0,204.0,136.0,green,triangle
0.0,4.0,4.0,0.0,7.0,2.0,1171.494565991452,3.0,1.0,part_3,go,0.0,0.0,0.0,132.0,3.0,44.0,132.0,176.0,220.0,88.0,264.0,yellow,I
0.0,4.0,4.0,0.0,7.0,6.0,1541.0418579995169,3.0,1.0,part_3,go,0.0,0.0,0.0,176.0,4.0,264.0,88.0,44.0,132.0,220.0,176.0,yellow,I
0.0,1.0,1.0,0.0,7.0,5.0,1491.7405500018504,3.0,1.0,part_3,go,0.0,0.0,0.0,204.0,6.0,34.0,102.0,68.0,170.0,204.0,136.0,white,circle
0.0,5.0,1.0,1.0,7.0,2.0,1223.6316199996509,3.0,1.0,part_3,go,0.0,0.0,0.0,204.0,6.0,34.0,204.0,68.0,170.0,102.0,136.0,blue,cross
0.0,5.0,1.0,1.0,7.0,5.0,1230.9335699828807,3.0,1.0,part_3,go,0.0,0.0,0.0,234.0,6.0,195.0,117.0,78.0,39.0,234.0,156.0,blue,cross
0.0,3.0,3.0,0.0,7.0,2.0,1139.056410989724,3.0,1.0,part_3,go,0.0,0.0,0.0,195.0,5.0,234.0,195.0,117.0,39.0,78.0,156.0,cyan,square
0.0,3.0,3.0,0.0,7.0,1.0,1337.6881830045022,3.0,1.0,part_3,go,0.0,0.0,0.0,220.0,5.0,220.0,44.0,176.0,264.0,132.0,88.0,cyan,square
0.0,5.0,1.0,1.0,7.0,1.0,1268.567579012597,3.0,1.0,part_3,go,0.0,0.0,0.0,234.0,6.0,234.0,195.0,117.0,156.0,39.0,78.0,blue,cross
0.0,6.0,2.0,1.0,7.0,6.0,1518.412573990645,4.0,1.0,part_3,go,0.0,0.0,0.0,170.0,5.0,68.0,34.0,204.0,136.0,102.0,170.0,orange,diamond
0.0,4.0,4.0,0.0,7.0,5.0,1538.6236530030146,4.0,1.0,part_3,go,0.0,0.0,0.0,156.0,4.0,39.0,117.0,78.0,195.0,156.0,234.0,yellow,I
0.0,3.0,3.0,0.0,7.0,5.0,969.3153409752996,4.0,1.0,part_3,go,0.0,0.0,0.0,294.0,6.0,49.0,245.0,196.0,98.0,294.0,147.0,cyan,square
0.0,3.0,3.0,0.0,7.0,3.0,1213.1702119950205,4.0,1.0,part_3,go,0.0,0.0,0.0,264.0,6.0,220.0,88.0,264.0,132.0,44.0,176.0,cyan,square
0.0,4.0,4.0,0.0,7.0,1.0,1142.8854850237258,4.0,1.0,part_3,go,0.0,0.0,0.0,245.0,5.0,245.0,294.0,49.0,196.0,147.0,98.0,yellow,I
0.0,3.0,3.0,0.0,7.0,6.0,983.9543949929066,4.0,1.0,part_3,go,0.0,0.0,0.0,136.0,4.0,204.0,34.0,102.0,170.0,68.0,136.0,cyan,square
0.0,5.0,1.0,1.0,7.0,1.0,1583.3255049947184,4.0,1.0,part_3,go,0.0,0.0,0.0,216.0,4.0,216.0,324.0,162.0,270.0,54.0,108.0,blue,cross
0.0,8.0,4.0,1.0,7.0,3.0,1180.1107759820295,4.0,1.0,part_3,go,0.0,0.0,0.0,220.0,5.0,132.0,176.0,220.0,88.0,264.0,44.0,magenta,hexagon
0.0,2.0,2.0,0.0,7.0,5.0,841.5756670001429,4.0,1.0,part_3,go,0.0,0.0,0.0,136.0,4.0,204.0,68.0,170.0,102.0,136.0,34.0,gray,flipped triangle
0.0,4.0,4.0,0.0,7.0,4.0,1117.1141049999278,4.0,1.0,part_3,go,0.0,0.0,0.0,147.0,3.0,196.0,49.0,245.0,147.0,98.0,294.0,yellow,I
0.0,7.0,3.0,1.0,7.0,2.0,1495.0785889814142,4.0,1.0,part_3,go,0.0,0.0,0.0,170.0,5.0,102.0,170.0,68.0,136.0,204.0,34.0,green,triangle
0.0,8.0,4.0,1.0,7.0,3.0,1033.4536830196157,4.0,1.0,part_3,go,0.0,0.0,0.0,234.0,6.0,156.0,78.0,234.0,117.0,39.0,195.0,magenta,hexagon
0.0,6.0,2.0,1.0,7.0,1.0,1753.0987089849075,4.0,1.0,part_3,go,0.0,0.0,0.0,147.0,3.0,147.0,294.0,98.0,196.0,245.0,49.0,orange,diamond
0.0,7.0,3.0,1.0,7.0,6.0,946.2909889989533,4.0,1.0,part_3,go,0.0,0.0,0.0,245.0,5.0,49.0,294.0,196.0,98.0,147.0,245.0,green,triangle
0.0,3.0,3.0,0.0,7.0,5.0,1148.4746360220015,4.0,1.0,part_3,go,0.0,0.0,0.0,195.0,5.0,117.0,234.0,78.0,39.0,195.0,156.0,cyan,square
0.0,1.0,1.0,0.0,7.0,1.0,2011.6863299917895,4.0,1.0,part_3,go,0.0,0.0,0.0,270.0,5.0,270.0,324.0,54.0,108.0,216.0,162.0,white,circle
0.0,4.0,4.0,0.0,7.0,2.0,1264.5252190122849,4.0,1.0,part_3,go,0.0,0.0,0.0,216.0,4.0,108.0,216.0,324.0,54.0,162.0,270.0,yellow,I
0.0,1.0,1.0,0.0,7.0,5.0,1960.1396530051716,4.0,1.0,part_3,go,0.0,0.0,0.0,102.0,3.0,34.0,136.0,204.0,170.0,102.0,68.0,white,circle
0.0,7.0,3.0,1.0,7.0,2.0,1281.4515200152528,4.0,1.0,part_3,go,0.0,0.0,0.0,108.0,2.0,162.0,108.0,270.0,216.0,54.0,324.0,green,triangle
0.0,2.0,2.0,0.0,7.0,2.0,1426.0576499800663,4.0,1.0,part_3,go,0.0,0.0,0.0,170.0,5.0,34.0,170.0,136.0,204.0,102.0,68.0,gray,flipped triangle
