raw_reward_magnitude,stim_reward,stepwise_reward_magnitude,paired_with_stopping,stim_location,response,reaction_time,block,num_trial_presentations,which_phase,stop_signal_trial_type,left_SSD,right_SSD,accuracy,chosen_bidding_amount,chosen_bidding_level,possible_bid_1,possible_bid_2,possible_bid_3,possible_bid_4,possible_bid_5,possible_bid_6,color_text,shape_text
399.0,4.0,4.0,0.0,4.0,4.0,508.6630780133419,1.0,1.0,phase_1,,,,,,,,,,,,,yellow,diamond
175.0,7.0,3.0,1.0,4.0,4.0,418.1527320179157,1.0,1.0,phase_1,,,,,,,,,,,,,magenta,square
46.0,1.0,1.0,0.0,1.0,1.0,439.0088060172274,1.0,1.0,phase_1,,,,,,,,,,,,,white,flipped triangle
182.0,3.0,3.0,0.0,4.0,4.0,317.3200879828073,1.0,1.0,phase_1,,,,,,,,,,,,,orange,hexagon
0.0,4.0,0.0,0.0,3.0,3.0,352.9348489828408,1.0,1.0,phase_1,,,,,,,,,,,,,yellow,diamond
383.0,4.0,4.0,0.0,2.0,2.0,396.49981103139,1.0,1.0,phase_1,,,,,,,,,,,,,yellow,diamond
420.0,4.0,4.0,0.0,3.0,3.0,436.7638069670647,1.0,1.0,phase_1,,,,,,,,,,,,,yellow,diamond
112.0,6.0,2.0,1.0,1.0,1.0,351.5359459561296,1.0,1.0,phase_1,,,,,,,,,,,,,cyan,circle
85.0,2.0,2.0,0.0,3.0,3.0,347.8357320418581,1.0,1.0,phase_1,,,,,,,,,,,,,blue,cross
414.0,4.0,4.0,0.0,3.0,3.0,322.7111870073713,1.0,1.0,phase_1,,,,,,,,,,,,,yellow,diamond
75.0,5.0,1.0,1.0,1.0,1.0,446.0501699941233,1.0,1.0,phase_1,,,,,,,,,,,,,gray,I
225.0,3.0,3.0,0.0,4.0,4.0,320.4197449958883,1.0,1.0,phase_1,,,,,,,,,,,,,orange,hexagon
101.0,2.0,2.0,0.0,3.0,3.0,381.6728480160236,1.0,1.0,phase_1,,,,,,,,,,,,,blue,cross
0.0,7.0,0.0,1.0,3.0,3.0,340.9742829971947,1.0,1.0,phase_1,,,,,,,,,,,,,magenta,square
60.0,1.0,1.0,0.0,4.0,4.0,430.8036179863848,1.0,1.0,phase_1,,,,,,,,,,,,,white,flipped triangle
188.0,7.0,3.0,1.0,4.0,4.0,277.8916190145537,1.0,1.0,phase_1,,,,,,,,,,,,,magenta,square
398.0,4.0,4.0,0.0,4.0,4.0,282.3019750067033,1.0,1.0,phase_1,,,,,,,,,,,,,yellow,diamond
417.0,8.0,4.0,1.0,1.0,1.0,335.2155450265854,1.0,1.0,phase_1,,,,,,,,,,,,,green,triangle
0.0,4.0,0.0,0.0,3.0,3.0,297.7816259954124,1.0,1.0,phase_1,,,,,,,,,,,,,yellow,diamond
0.0,4.0,0.0,0.0,2.0,2.0,416.6002969723195,1.0,1.0,phase_1,,,,,,,,,,,,,yellow,diamond
52.0,5.0,1.0,1.0,4.0,4.0,326.3556669699028,1.0,1.0,phase_1,,,,,,,,,,,,,gray,I
417.0,8.0,4.0,1.0,2.0,2.0,376.9726030295715,1.0,1.0,phase_1,,,,,,,,,,,,,green,triangle
195.0,3.0,3.0,0.0,3.0,3.0,372.2271820297465,1.0,1.0,phase_1,,,,,,,,,,,,,orange,hexagon
75.0,5.0,1.0,1.0,4.0,4.0,298.6411440069787,1.0,1.0,phase_1,,,,,,,,,,,,,gray,I
0.0,5.0,0.0,1.0,2.0,2.0,311.2051989883184,1.0,1.0,phase_1,,,,,,,,,,,,,gray,I
383.0,4.0,4.0,0.0,4.0,4.0,297.8816920076497,1.0,1.0,phase_1,,,,,,,,,,,,,yellow,diamond
0.0,5.0,0.0,1.0,1.0,1.0,326.98207302019,1.0,1.0,phase_1,,,,,,,,,,,,,gray,I
180.0,7.0,3.0,1.0,1.0,1.0,364.8231899715028,1.0,1.0,phase_1,,,,,,,,,,,,,magenta,square
28.0,1.0,1.0,0.0,1.0,1.0,410.1809329586103,1.0,1.0,phase_1,,,,,,,,,,,,,white,flipped triangle
117.0,2.0,2.0,0.0,1.0,1.0,295.711693004705,1.0,1.0,phase_1,,,,,,,,,,,,,blue,cross
180.0,3.0,3.0,0.0,3.0,3.0,364.9778069811873,1.0,1.0,phase_1,,,,,,,,,,,,,orange,hexagon
195.0,7.0,3.0,1.0,2.0,2.0,303.1297189882025,1.0,1.0,phase_1,,,,,,,,,,,,,magenta,square
42.0,1.0,1.0,0.0,4.0,4.0,333.2617150153965,1.0,1.0,phase_1,,,,,,,,,,,,,white,flipped triangle
209.0,7.0,3.0,1.0,2.0,2.0,298.7814990337938,1.0,1.0,phase_1,,,,,,,,,,,,,magenta,square
96.0,2.0,2.0,0.0,1.0,1.0,299.9708810239099,1.0,1.0,phase_1,,,,,,,,,,,,,blue,cross
42.0,5.0,1.0,1.0,3.0,3.0,292.0947180246003,1.0,1.0,phase_1,,,,,,,,,,,,,gray,I
0.0,3.0,0.0,0.0,4.0,4.0,401.6611370025202,1.0,1.0,phase_1,,,,,,,,,,,,,orange,hexagon
0.0,7.0,0.0,1.0,2.0,2.0,420.9340360248461,1.0,1.0,phase_1,,,,,,,,,,,,,magenta,square
0.0,4.0,0.0,0.0,4.0,4.0,315.0915169971995,1.0,1.0,phase_1,,,,,,,,,,,,,yellow,diamond
54.0,1.0,1.0,0.0,2.0,2.0,372.0150830340571,1.0,1.0,phase_1,,,,,,,,,,,,,white,flipped triangle
387.0,8.0,4.0,1.0,3.0,3.0,307.2868349845521,1.0,1.0,phase_1,,,,,,,,,,,,,green,triangle
123.0,6.0,2.0,1.0,4.0,4.0,309.2772820382379,1.0,1.0,phase_1,,,,,,,,,,,,,cyan,circle
394.0,4.0,4.0,0.0,4.0,4.0,292.8063630242832,1.0,1.0,phase_1,,,,,,,,,,,,,yellow,diamond
0.0,4.0,0.0,0.0,2.0,2.0,289.7112920181826,1.0,1.0,phase_1,,,,,,,,,,,,,yellow,diamond
0.0,7.0,0.0,1.0,4.0,4.0,285.1885679992847,1.0,1.0,phase_1,,,,,,,,,,,,,magenta,square
196.0,3.0,3.0,0.0,2.0,2.0,274.2252729949541,1.0,1.0,phase_1,,,,,,,,,,,,,orange,hexagon
84.0,6.0,2.0,1.0,1.0,1.0,359.5716659910977,1.0,1.0,phase_1,,,,,,,,,,,,,cyan,circle
376.0,8.0,4.0,1.0,4.0,4.0,315.7839410123415,1.0,1.0,phase_1,,,,,,,,,,,,,green,triangle
0.0,5.0,0.0,1.0,4.0,4.0,383.978888974525,1.0,1.0,phase_1,,,,,,,,,,,,,gray,I
0.0,7.0,0.0,1.0,2.0,2.0,355.045934964437,1.0,1.0,phase_1,,,,,,,,,,,,,magenta,square
0.0,6.0,0.0,1.0,2.0,2.0,337.0329339522868,1.0,1.0,phase_1,,,,,,,,,,,,,cyan,circle
43.0,5.0,1.0,1.0,3.0,3.0,367.9799449746497,1.0,1.0,phase_1,,,,,,,,,,,,,gray,I
108.0,6.0,2.0,1.0,2.0,2.0,241.1735749919898,1.0,1.0,phase_1,,,,,,,,,,,,,cyan,circle
0.0,7.0,0.0,1.0,2.0,2.0,213.7044579721987,1.0,1.0,phase_1,,,,,,,,,,,,,magenta,square
111.0,6.0,2.0,1.0,3.0,3.0,354.1644479846582,1.0,1.0,phase_1,,,,,,,,,,,,,cyan,circle
204.0,3.0,3.0,0.0,2.0,2.0,321.8098520301282,1.0,1.0,phase_1,,,,,,,,,,,,,orange,hexagon
82.0,2.0,2.0,0.0,2.0,2.0,302.3544399766251,1.0,1.0,phase_1,,,,,,,,,,,,,blue,cross
45.0,5.0,1.0,1.0,2.0,2.0,282.0513200131245,1.0,1.0,phase_1,,,,,,,,,,,,,gray,I
0.0,2.0,0.0,0.0,2.0,2.0,260.9125339658931,1.0,1.0,phase_1,,,,,,,,,,,,,blue,cross
0.0,3.0,0.0,0.0,1.0,1.0,358.6658230051398,1.0,2.0,phase_1,,,,,,,,,,,,,orange,hexagon
45.0,1.0,1.0,0.0,3.0,3.0,326.3778850086964,1.0,1.0,phase_1,,,,,,,,,,,,,white,flipped triangle
410.0,4.0,4.0,0.0,2.0,2.0,307.2596860001795,1.0,1.0,phase_1,,,,,,,,,,,,,yellow,diamond
28.0,5.0,1.0,1.0,4.0,4.0,311.5098259877413,1.0,1.0,phase_1,,,,,,,,,,,,,gray,I
34.0,5.0,1.0,1.0,3.0,3.0,409.5064050052315,1.0,1.0,phase_1,,,,,,,,,,,,,gray,I
0.0,5.0,0.0,1.0,4.0,4.0,381.9943509879522,1.0,1.0,phase_1,,,,,,,,,,,,,gray,I
197.0,3.0,3.0,0.0,1.0,1.0,266.31290797377,1.0,1.0,phase_1,,,,,,,,,,,,,orange,hexagon
69.0,5.0,1.0,1.0,4.0,4.0,273.9546409575268,1.0,1.0,phase_1,,,,,,,,,,,,,gray,I
57.0,1.0,1.0,0.0,3.0,3.0,310.7034449931234,1.0,1.0,phase_1,,,,,,,,,,,,,white,flipped triangle
387.0,4.0,4.0,0.0,4.0,4.0,347.8189280140213,1.0,1.0,phase_1,,,,,,,,,,,,,yellow,diamond
208.0,7.0,3.0,1.0,2.0,2.0,333.4957539918832,1.0,1.0,phase_1,,,,,,,,,,,,,magenta,square
207.0,7.0,3.0,1.0,4.0,4.0,261.3262630184181,1.0,1.0,phase_1,,,,,,,,,,,,,magenta,square
0.0,2.0,0.0,0.0,1.0,1.0,350.5268170265481,1.0,1.0,phase_1,,,,,,,,,,,,,blue,cross
0.0,8.0,0.0,1.0,3.0,3.0,316.8072229600511,1.0,1.0,phase_1,,,,,,,,,,,,,green,triangle
40.0,1.0,1.0,0.0,3.0,3.0,313.94054798875,1.0,1.0,phase_1,,,,,,,,,,,,,white,flipped triangle
177.0,3.0,3.0,0.0,3.0,3.0,342.4474769853987,1.0,1.0,phase_1,,,,,,,,,,,,,orange,hexagon
0.0,2.0,0.0,0.0,1.0,1.0,289.4676660071127,1.0,1.0,phase_1,,,,,,,,,,,,,blue,cross
72.0,5.0,1.0,1.0,3.0,3.0,376.5059309662319,1.0,1.0,phase_1,,,,,,,,,,,,,gray,I
116.0,6.0,2.0,1.0,3.0,3.0,362.8801599843427,1.0,1.0,phase_1,,,,,,,,,,,,,cyan,circle
190.0,3.0,3.0,0.0,1.0,1.0,322.9118529707193,1.0,1.0,phase_1,,,,,,,,,,,,,orange,hexagon
116.0,2.0,2.0,0.0,2.0,2.0,357.4327760143205,1.0,1.0,phase_1,,,,,,,,,,,,,blue,cross
423.0,8.0,4.0,1.0,2.0,2.0,299.1747999913059,1.0,1.0,phase_1,,,,,,,,,,,,,green,triangle
28.0,5.0,1.0,1.0,1.0,1.0,303.3768049790524,1.0,1.0,phase_1,,,,,,,,,,,,,gray,I
394.0,4.0,4.0,0.0,3.0,3.0,274.5280949748121,1.0,1.0,phase_1,,,,,,,,,,,,,yellow,diamond
48.0,1.0,1.0,0.0,2.0,2.0,265.6181220081635,1.0,1.0,phase_1,,,,,,,,,,,,,white,flipped triangle
0.0,8.0,0.0,1.0,1.0,1.0,269.7212570346892,1.0,1.0,phase_1,,,,,,,,,,,,,green,triangle
190.0,7.0,3.0,1.0,1.0,1.0,249.329837039113,1.0,1.0,phase_1,,,,,,,,,,,,,magenta,square
0.0,1.0,0.0,0.0,3.0,3.0,392.3377020400949,1.0,1.0,phase_1,,,,,,,,,,,,,white,flipped triangle
40.0,5.0,1.0,1.0,4.0,4.0,298.3035289798863,1.0,1.0,phase_1,,,,,,,,,,,,,gray,I
410.0,8.0,4.0,1.0,3.0,3.0,277.8465580195188,1.0,1.0,phase_1,,,,,,,,,,,,,green,triangle
204.0,7.0,3.0,1.0,4.0,4.0,319.063221977558,1.0,1.0,phase_1,,,,,,,,,,,,,magenta,square
35.0,1.0,1.0,0.0,2.0,2.0,319.4172370131127,1.0,1.0,phase_1,,,,,,,,,,,,,white,flipped triangle
0.0,8.0,0.0,1.0,3.0,3.0,277.6789320050739,1.0,1.0,phase_1,,,,,,,,,,,,,green,triangle
178.0,7.0,3.0,1.0,3.0,3.0,384.8556409939192,1.0,1.0,phase_1,,,,,,,,,,,,,magenta,square
185.0,3.0,3.0,0.0,1.0,1.0,319.2590639810078,1.0,1.0,phase_1,,,,,,,,,,,,,orange,hexagon
0.0,8.0,0.0,1.0,4.0,4.0,286.8858239962719,1.0,1.0,phase_1,,,,,,,,,,,,,green,triangle
206.0,3.0,3.0,0.0,1.0,1.0,274.042228993494,1.0,1.0,phase_1,,,,,,,,,,,,,orange,hexagon
391.0,4.0,4.0,0.0,2.0,2.0,252.3840310168452,1.0,1.0,phase_1,,,,,,,,,,,,,yellow,diamond
118.0,2.0,2.0,0.0,1.0,1.0,289.1999499988742,1.0,1.0,phase_1,,,,,,,,,,,,,blue,cross
377.0,4.0,4.0,0.0,4.0,4.0,249.0169600350782,1.0,1.0,phase_1,,,,,,,,,,,,,yellow,diamond
0.0,3.0,0.0,0.0,3.0,3.0,281.9668129668571,1.0,1.0,phase_1,,,,,,,,,,,,,orange,hexagon
385.0,4.0,4.0,0.0,4.0,4.0,471.0454029846005,2.0,1.0,phase_1,,,,,,,,,,,,,yellow,diamond
195.0,3.0,3.0,0.0,2.0,2.0,386.567511013709,2.0,1.0,phase_1,,,,,,,,,,,,,orange,hexagon
380.0,4.0,4.0,0.0,1.0,1.0,343.5402020113542,2.0,1.0,phase_1,,,,,,,,,,,,,yellow,diamond
36.0,5.0,1.0,1.0,3.0,3.0,438.6700199684128,2.0,1.0,phase_1,,,,,,,,,,,,,gray,I
96.0,6.0,2.0,1.0,4.0,4.0,388.5324849979952,2.0,1.0,phase_1,,,,,,,,,,,,,cyan,circle
0.0,8.0,0.0,1.0,4.0,4.0,336.1513079726137,2.0,1.0,phase_1,,,,,,,,,,,,,green,triangle
207.0,3.0,3.0,0.0,3.0,3.0,324.4953779503703,2.0,1.0,phase_1,,,,,,,,,,,,,orange,hexagon
178.0,7.0,3.0,1.0,4.0,4.0,335.6156949885189,2.0,1.0,phase_1,,,,,,,,,,,,,magenta,square
376.0,4.0,4.0,0.0,3.0,3.0,342.0191189507022,2.0,1.0,phase_1,,,,,,,,,,,,,yellow,diamond
57.0,5.0,1.0,1.0,2.0,2.0,295.4437540029175,2.0,1.0,phase_1,,,,,,,,,,,,,gray,I
219.0,7.0,3.0,1.0,4.0,4.0,262.6257740193978,2.0,1.0,phase_1,,,,,,,,,,,,,magenta,square
0.0,1.0,0.0,0.0,3.0,3.0,242.0867520268075,2.0,1.0,phase_1,,,,,,,,,,,,,white,flipped triangle
0.0,7.0,0.0,1.0,4.0,4.0,265.5974670196883,2.0,1.0,phase_1,,,,,,,,,,,,,magenta,square
0.0,3.0,0.0,0.0,4.0,4.0,258.5407060105353,2.0,1.0,phase_1,,,,,,,,,,,,,orange,hexagon
65.0,1.0,1.0,0.0,2.0,2.0,282.2498469613492,2.0,1.0,phase_1,,,,,,,,,,,,,white,flipped triangle
0.0,4.0,0.0,0.0,4.0,4.0,261.1865610233508,2.0,1.0,phase_1,,,,,,,,,,,,,yellow,diamond
406.0,8.0,4.0,1.0,3.0,3.0,297.7366889826953,2.0,1.0,phase_1,,,,,,,,,,,,,green,triangle
179.0,3.0,3.0,0.0,2.0,2.0,295.0742740067653,2.0,1.0,phase_1,,,,,,,,,,,,,orange,hexagon
0.0,5.0,0.0,1.0,2.0,2.0,346.1474900250323,2.0,1.0,phase_1,,,,,,,,,,,,,gray,I
0.0,6.0,0.0,1.0,4.0,4.0,297.3217570106499,2.0,1.0,phase_1,,,,,,,,,,,,,cyan,circle
108.0,6.0,2.0,1.0,3.0,3.0,364.0568850096315,2.0,1.0,phase_1,,,,,,,,,,,,,cyan,circle
380.0,8.0,4.0,1.0,4.0,4.0,274.1942810243927,2.0,1.0,phase_1,,,,,,,,,,,,,green,triangle
406.0,4.0,4.0,0.0,1.0,1.0,447.4748270004056,2.0,1.0,phase_1,,,,,,,,,,,,,yellow,diamond
113.0,2.0,2.0,0.0,1.0,1.0,393.3993469690904,2.0,1.0,phase_1,,,,,,,,,,,,,blue,cross
62.0,1.0,1.0,0.0,3.0,3.0,265.1445579831488,2.0,1.0,phase_1,,,,,,,,,,,,,white,flipped triangle
224.0,3.0,3.0,0.0,2.0,2.0,388.190854981076,2.0,1.0,phase_1,,,,,,,,,,,,,orange,hexagon
406.0,8.0,4.0,1.0,1.0,1.0,303.4628229797818,2.0,1.0,phase_1,,,,,,,,,,,,,green,triangle
201.0,3.0,3.0,0.0,1.0,1.0,511.117085989099,2.0,1.0,phase_1,,,,,,,,,,,,,orange,hexagon
118.0,6.0,2.0,1.0,1.0,1.0,347.8919470217079,2.0,1.0,phase_1,,,,,,,,,,,,,cyan,circle
194.0,7.0,3.0,1.0,4.0,4.0,345.2762810047716,2.0,1.0,phase_1,,,,,,,,,,,,,magenta,square
0.0,6.0,0.0,1.0,1.0,1.0,348.6462239525281,2.0,1.0,phase_1,,,,,,,,,,,,,cyan,circle
94.0,2.0,2.0,0.0,2.0,2.0,273.9273570477962,2.0,1.0,phase_1,,,,,,,,,,,,,blue,cross
0.0,7.0,0.0,1.0,3.0,3.0,259.5297059742734,2.0,1.0,phase_1,,,,,,,,,,,,,magenta,square
58.0,5.0,1.0,1.0,1.0,1.0,284.1142099932767,2.0,1.0,phase_1,,,,,,,,,,,,,gray,I
208.0,3.0,3.0,0.0,3.0,3.0,413.1686940090731,2.0,1.0,phase_1,,,,,,,,,,,,,orange,hexagon
100.0,2.0,2.0,0.0,3.0,3.0,290.7863259897567,2.0,1.0,phase_1,,,,,,,,,,,,,blue,cross
215.0,3.0,3.0,0.0,2.0,2.0,278.8662089733407,2.0,1.0,phase_1,,,,,,,,,,,,,orange,hexagon
84.0,6.0,2.0,1.0,3.0,3.0,244.7053189971484,2.0,1.0,phase_1,,,,,,,,,,,,,cyan,circle
397.0,8.0,4.0,1.0,4.0,4.0,417.703164042905,2.0,1.0,phase_1,,,,,,,,,,,,,green,triangle
0.0,2.0,0.0,0.0,3.0,3.0,295.500436972361,2.0,1.0,phase_1,,,,,,,,,,,,,blue,cross
188.0,3.0,3.0,0.0,1.0,1.0,257.8587179887108,2.0,1.0,phase_1,,,,,,,,,,,,,orange,hexagon
0.0,4.0,0.0,0.0,2.0,2.0,232.18838800676158,2.0,1.0,phase_1,,,,,,,,,,,,,yellow,diamond
387.0,8.0,4.0,1.0,2.0,2.0,348.9922520238906,2.0,1.0,phase_1,,,,,,,,,,,,,green,triangle
99.0,6.0,2.0,1.0,3.0,3.0,295.4259859980084,2.0,1.0,phase_1,,,,,,,,,,,,,cyan,circle
0.0,2.0,0.0,0.0,1.0,1.0,277.8081829892471,2.0,1.0,phase_1,,,,,,,,,,,,,blue,cross
0.0,1.0,0.0,0.0,4.0,4.0,540.6880590016954,2.0,1.0,phase_1,,,,,,,,,,,,,white,flipped triangle
50.0,1.0,1.0,0.0,3.0,3.0,302.5342620094307,2.0,1.0,phase_1,,,,,,,,,,,,,white,flipped triangle
0.0,1.0,0.0,0.0,2.0,2.0,257.9657089663669,2.0,1.0,phase_1,,,,,,,,,,,,,white,flipped triangle
75.0,1.0,1.0,0.0,1.0,1.0,274.7519789845682,2.0,1.0,phase_1,,,,,,,,,,,,,white,flipped triangle
212.0,3.0,3.0,0.0,3.0,3.0,342.9765069740824,2.0,1.0,phase_1,,,,,,,,,,,,,orange,hexagon
425.0,8.0,4.0,1.0,3.0,3.0,313.1899120053276,2.0,1.0,phase_1,,,,,,,,,,,,,green,triangle
417.0,8.0,4.0,1.0,2.0,2.0,260.3217220166698,2.0,1.0,phase_1,,,,,,,,,,,,,green,triangle
224.0,7.0,3.0,1.0,3.0,3.0,245.602216979023,2.0,1.0,phase_1,,,,,,,,,,,,,magenta,square
60.0,5.0,1.0,1.0,2.0,2.0,233.2522260257974,2.0,1.0,phase_1,,,,,,,,,,,,,gray,I
97.0,2.0,2.0,0.0,4.0,4.0,326.3826529728248,2.0,1.0,phase_1,,,,,,,,,,,,,blue,cross
214.0,3.0,3.0,0.0,4.0,4.0,357.9445129726082,2.0,2.0,phase_1,,,,,,,,,,,,,orange,hexagon
405.0,4.0,4.0,0.0,2.0,2.0,249.4743749848567,2.0,1.0,phase_1,,,,,,,,,,,,,yellow,diamond
203.0,3.0,3.0,0.0,3.0,3.0,247.4412369774654,2.0,1.0,phase_1,,,,,,,,,,,,,orange,hexagon
207.0,7.0,3.0,1.0,3.0,3.0,292.109518952202,2.0,1.0,phase_1,,,,,,,,,,,,,magenta,square
35.0,5.0,1.0,1.0,2.0,2.0,417.3301269765943,2.0,1.0,phase_1,,,,,,,,,,,,,gray,I
86.0,2.0,2.0,0.0,2.0,2.0,295.3490790096111,2.0,1.0,phase_1,,,,,,,,,,,,,blue,cross
389.0,4.0,4.0,0.0,1.0,1.0,337.4178780359216,2.0,1.0,phase_1,,,,,,,,,,,,,yellow,diamond
0.0,6.0,0.0,1.0,1.0,1.0,335.6579649844207,2.0,1.0,phase_1,,,,,,,,,,,,,cyan,circle
0.0,8.0,0.0,1.0,1.0,1.0,339.7667839890346,2.0,1.0,phase_1,,,,,,,,,,,,,green,triangle
50.0,5.0,1.0,1.0,2.0,2.0,327.1007959847338,2.0,1.0,phase_1,,,,,,,,,,,,,gray,I
0.0,7.0,0.0,1.0,3.0,3.0,379.0715240174904,2.0,1.0,phase_1,,,,,,,,,,,,,magenta,square
34.0,1.0,1.0,0.0,2.0,2.0,287.180321989581,2.0,1.0,phase_1,,,,,,,,,,,,,white,flipped triangle
417.0,4.0,4.0,0.0,1.0,1.0,236.2688489956781,2.0,1.0,phase_1,,,,,,,,,,,,,yellow,diamond
86.0,6.0,2.0,1.0,1.0,1.0,265.9805070143193,2.0,1.0,phase_1,,,,,,,,,,,,,cyan,circle
0.0,2.0,0.0,0.0,4.0,4.0,327.9610709869303,2.0,1.0,phase_1,,,,,,,,,,,,,blue,cross
393.0,8.0,4.0,1.0,2.0,2.0,290.3690150124021,2.0,1.0,phase_1,,,,,,,,,,,,,green,triangle
104.0,6.0,2.0,1.0,4.0,4.0,378.2428969861939,2.0,1.0,phase_1,,,,,,,,,,,,,cyan,circle
425.0,4.0,4.0,0.0,4.0,4.0,340.0777810020372,2.0,1.0,phase_1,,,,,,,,,,,,,yellow,diamond
223.0,7.0,3.0,1.0,1.0,1.0,306.7034360137768,2.0,1.0,phase_1,,,,,,,,,,,,,magenta,square
72.0,1.0,1.0,0.0,4.0,4.0,441.2378519773483,2.0,1.0,phase_1,,,,,,,,,,,,,white,flipped triangle
26.0,1.0,1.0,0.0,2.0,2.0,289.971305988729,2.0,1.0,phase_1,,,,,,,,,,,,,white,flipped triangle
111.0,6.0,2.0,1.0,4.0,4.0,303.128486033529,2.0,1.0,phase_1,,,,,,,,,,,,,cyan,circle
400.0,8.0,4.0,1.0,1.0,1.0,317.6568259950727,2.0,1.0,phase_1,,,,,,,,,,,,,green,triangle
175.0,3.0,3.0,0.0,4.0,4.0,298.3004249981604,2.0,1.0,phase_1,,,,,,,,,,,,,orange,hexagon
104.0,2.0,2.0,0.0,3.0,3.0,360.6506140204146,2.0,1.0,phase_1,,,,,,,,,,,,,blue,cross
122.0,2.0,2.0,0.0,4.0,4.0,417.1580400434322,2.0,1.0,phase_1,,,,,,,,,,,,,blue,cross
99.0,2.0,2.0,0.0,3.0,3.0,414.2935259733349,2.0,1.0,phase_1,,,,,,,,,,,,,blue,cross
36.0,1.0,1.0,0.0,1.0,1.0,373.8149959826842,2.0,1.0,phase_1,,,,,,,,,,,,,white,flipped triangle
80.0,2.0,2.0,0.0,3.0,3.0,370.3739499906078,2.0,1.0,phase_1,,,,,,,,,,,,,blue,cross
405.0,8.0,4.0,1.0,3.0,3.0,381.6832019947469,2.0,1.0,phase_1,,,,,,,,,,,,,green,triangle
60.0,1.0,1.0,0.0,3.0,3.0,267.9042890085839,2.0,1.0,phase_1,,,,,,,,,,,,,white,flipped triangle
0.0,6.0,0.0,1.0,2.0,2.0,301.7552749952301,2.0,1.0,phase_1,,,,,,,,,,,,,cyan,circle
43.0,5.0,1.0,1.0,3.0,3.0,331.7700519692153,2.0,1.0,phase_1,,,,,,,,,,,,,gray,I
0.0,7.0,0.0,1.0,1.0,1.0,304.1339310002513,2.0,1.0,phase_1,,,,,,,,,,,,,magenta,square
223.0,3.0,3.0,0.0,4.0,4.0,278.5429590148851,2.0,1.0,phase_1,,,,,,,,,,,,,orange,hexagon
0.0,1.0,0.0,0.0,1.0,1.0,319.9615179910324,2.0,1.0,phase_1,,,,,,,,,,,,,white,flipped triangle
0.0,3.0,0.0,0.0,2.0,2.0,312.592476955615,2.0,1.0,phase_1,,,,,,,,,,,,,orange,hexagon
112.0,2.0,2.0,0.0,3.0,3.0,337.9611520213075,2.0,1.0,phase_1,,,,,,,,,,,,,blue,cross
0.0,1.0,0.0,0.0,4.0,4.0,335.1471780333668,2.0,1.0,phase_1,,,,,,,,,,,,,white,flipped triangle
0.0,6.0,0.0,1.0,4.0,4.0,397.5521760294214,2.0,1.0,phase_1,,,,,,,,,,,,,cyan,circle
224.0,7.0,3.0,1.0,1.0,1.0,298.4454740071669,2.0,1.0,phase_1,,,,,,,,,,,,,magenta,square
377.0,8.0,4.0,1.0,1.0,1.0,286.8392589734867,2.0,1.0,phase_1,,,,,,,,,,,,,green,triangle
196.0,7.0,3.0,1.0,3.0,3.0,643.2922050007619,2.0,1.0,phase_1,,,,,,,,,,,,,magenta,square
84.0,2.0,2.0,0.0,1.0,1.0,309.7630789852701,2.0,1.0,phase_1,,,,,,,,,,,,,blue,cross
56.0,5.0,1.0,1.0,2.0,2.0,324.0610100328922,2.0,1.0,phase_1,,,,,,,,,,,,,gray,I
214.0,7.0,3.0,1.0,1.0,1.0,796.5754009783268,3.0,4.0,phase_1,,,,,,,,,,,,,magenta,square
390.0,8.0,4.0,1.0,2.0,2.0,409.65316799702117,3.0,1.0,phase_1,,,,,,,,,,,,,green,triangle
420.0,8.0,4.0,1.0,1.0,1.0,331.9592080079019,3.0,1.0,phase_1,,,,,,,,,,,,,green,triangle
77.0,2.0,2.0,0.0,2.0,2.0,264.4134819856845,3.0,1.0,phase_1,,,,,,,,,,,,,blue,cross
108.0,6.0,2.0,1.0,2.0,2.0,262.0797659619711,3.0,1.0,phase_1,,,,,,,,,,,,,cyan,circle
65.0,5.0,1.0,1.0,2.0,2.0,236.7178960121236,3.0,1.0,phase_1,,,,,,,,,,,,,gray,I
207.0,3.0,3.0,0.0,4.0,4.0,415.3430960141122,3.0,1.0,phase_1,,,,,,,,,,,,,orange,hexagon
376.0,8.0,4.0,1.0,1.0,1.0,286.7147259530611,3.0,1.0,phase_1,,,,,,,,,,,,,green,triangle
91.0,6.0,2.0,1.0,2.0,2.0,264.9401619564742,3.0,1.0,phase_1,,,,,,,,,,,,,cyan,circle
53.0,5.0,1.0,1.0,1.0,1.0,292.9627720150165,3.0,1.0,phase_1,,,,,,,,,,,,,gray,I
385.0,8.0,4.0,1.0,2.0,2.0,225.5757059901952,3.0,1.0,phase_1,,,,,,,,,,,,,green,triangle
420.0,8.0,4.0,1.0,1.0,1.0,310.5204320163466,3.0,1.0,phase_1,,,,,,,,,,,,,green,triangle
0.0,8.0,0.0,1.0,1.0,1.0,307.820514019113,3.0,1.0,phase_1,,,,,,,,,,,,,green,triangle
0.0,6.0,0.0,1.0,2.0,2.0,250.89009100338438,3.0,1.0,phase_1,,,,,,,,,,,,,cyan,circle
52.0,1.0,1.0,0.0,4.0,4.0,348.2599550043233,3.0,1.0,phase_1,,,,,,,,,,,,,white,flipped triangle
84.0,2.0,2.0,0.0,3.0,3.0,267.3128810129128,3.0,1.0,phase_1,,,,,,,,,,,,,blue,cross
123.0,2.0,2.0,0.0,2.0,2.0,257.3813080089167,3.0,1.0,phase_1,,,,,,,,,,,,,blue,cross
48.0,5.0,1.0,1.0,3.0,3.0,381.4938369905576,3.0,1.0,phase_1,,,,,,,,,,,,,gray,I
38.0,1.0,1.0,0.0,3.0,3.0,328.6535870283842,3.0,1.0,phase_1,,,,,,,,,,,,,white,flipped triangle
0.0,2.0,0.0,0.0,3.0,3.0,383.9802049915306,3.0,1.0,phase_1,,,,,,,,,,,,,blue,cross
55.0,1.0,1.0,0.0,4.0,4.0,424.6011050418019,3.0,1.0,phase_1,,,,,,,,,,,,,white,flipped triangle
194.0,3.0,3.0,0.0,1.0,1.0,352.154728025198,3.0,1.0,phase_1,,,,,,,,,,,,,orange,hexagon
62.0,5.0,1.0,1.0,1.0,1.0,339.9568449822254,3.0,1.0,phase_1,,,,,,,,,,,,,gray,I
420.0,4.0,4.0,0.0,2.0,2.0,257.3501669685356,3.0,1.0,phase_1,,,,,,,,,,,,,yellow,diamond
208.0,7.0,3.0,1.0,1.0,1.0,298.9529790356755,3.0,1.0,phase_1,,,,,,,,,,,,,magenta,square
180.0,3.0,3.0,0.0,2.0,2.0,257.2438030038029,3.0,1.0,phase_1,,,,,,,,,,,,,orange,hexagon
109.0,6.0,2.0,1.0,2.0,2.0,332.4286200222559,3.0,1.0,phase_1,,,,,,,,,,,,,cyan,circle
406.0,8.0,4.0,1.0,2.0,2.0,322.35963299172,3.0,1.0,phase_1,,,,,,,,,,,,,green,triangle
0.0,3.0,0.0,0.0,2.0,2.0,319.2506770137697,3.0,1.0,phase_1,,,,,,,,,,,,,orange,hexagon
28.0,1.0,1.0,0.0,4.0,4.0,315.1372110005468,3.0,1.0,phase_1,,,,,,,,,,,,,white,flipped triangle
201.0,7.0,3.0,1.0,2.0,2.0,305.864670954179,3.0,1.0,phase_1,,,,,,,,,,,,,magenta,square
0.0,1.0,0.0,0.0,2.0,2.0,364.5480010309256,3.0,1.0,phase_1,,,,,,,,,,,,,white,flipped triangle
186.0,7.0,3.0,1.0,2.0,2.0,315.4175630188547,3.0,1.0,phase_1,,,,,,,,,,,,,magenta,square
202.0,3.0,3.0,0.0,2.0,2.0,240.987661993131,3.0,1.0,phase_1,,,,,,,,,,,,,orange,hexagon
54.0,5.0,1.0,1.0,2.0,2.0,265.657759970054,3.0,1.0,phase_1,,,,,,,,,,,,,gray,I
60.0,5.0,1.0,1.0,4.0,4.0,486.6463330108672,3.0,1.0,phase_1,,,,,,,,,,,,,gray,I
376.0,4.0,4.0,0.0,1.0,1.0,279.5647479943,3.0,1.0,phase_1,,,,,,,,,,,,,yellow,diamond
103.0,2.0,2.0,0.0,1.0,1.0,307.6428220374509,3.0,1.0,phase_1,,,,,,,,,,,,,blue,cross
0.0,4.0,0.0,0.0,2.0,2.0,237.7588860108517,3.0,1.0,phase_1,,,,,,,,,,,,,yellow,diamond
0.0,6.0,0.0,1.0,1.0,1.0,274.0562239778228,3.0,1.0,phase_1,,,,,,,,,,,,,cyan,circle
412.0,4.0,4.0,0.0,2.0,2.0,249.4477159925736,3.0,1.0,phase_1,,,,,,,,,,,,,yellow,diamond
192.0,7.0,3.0,1.0,3.0,3.0,477.5765319936909,3.0,1.0,phase_1,,,,,,,,,,,,,magenta,square
0.0,8.0,0.0,1.0,4.0,4.0,452.9732950031757,3.0,2.0,phase_1,,,,,,,,,,,,,green,triangle
390.0,4.0,4.0,0.0,1.0,1.0,424.9979589949362,3.0,1.0,phase_1,,,,,,,,,,,,,yellow,diamond
93.0,2.0,2.0,0.0,4.0,4.0,381.5651520271785,3.0,1.0,phase_1,,,,,,,,,,,,,blue,cross
417.0,4.0,4.0,0.0,1.0,1.0,363.3290900033898,3.0,1.0,phase_1,,,,,,,,,,,,,yellow,diamond
414.0,8.0,4.0,1.0,1.0,1.0,303.0067709623836,3.0,1.0,phase_1,,,,,,,,,,,,,green,triangle
26.0,5.0,1.0,1.0,1.0,1.0,379.8023490235209,3.0,1.0,phase_1,,,,,,,,,,,,,gray,I
34.0,5.0,1.0,1.0,3.0,3.0,356.2743559596129,3.0,1.0,phase_1,,,,,,,,,,,,,gray,I
0.0,3.0,0.0,0.0,1.0,1.0,396.7917390400544,3.0,1.0,phase_1,,,,,,,,,,,,,orange,hexagon
113.0,6.0,2.0,1.0,3.0,3.0,371.8378219637088,3.0,1.0,phase_1,,,,,,,,,,,,,cyan,circle
186.0,3.0,3.0,0.0,1.0,1.0,377.6482139946893,3.0,1.0,phase_1,,,,,,,,,,,,,orange,hexagon
0.0,8.0,0.0,1.0,1.0,1.0,326.1942809913307,3.0,1.0,phase_1,,,,,,,,,,,,,green,triangle
97.0,6.0,2.0,1.0,1.0,1.0,322.3162820213474,3.0,1.0,phase_1,,,,,,,,,,,,,cyan,circle
391.0,8.0,4.0,1.0,3.0,3.0,544.3473010091111,3.0,1.0,phase_1,,,,,,,,,,,,,green,triangle
0.0,2.0,0.0,0.0,2.0,2.0,409.3774399952963,3.0,1.0,phase_1,,,,,,,,,,,,,blue,cross
79.0,2.0,2.0,0.0,1.0,1.0,478.5343559924513,3.0,1.0,phase_1,,,,,,,,,,,,,blue,cross
119.0,2.0,2.0,0.0,4.0,4.0,556.9196320138872,3.0,1.0,phase_1,,,,,,,,,,,,,blue,cross
178.0,3.0,3.0,0.0,3.0,3.0,394.2322910297662,3.0,1.0,phase_1,,,,,,,,,,,,,orange,hexagon
103.0,6.0,2.0,1.0,2.0,2.0,295.1689119799994,3.0,1.0,phase_1,,,,,,,,,,,,,cyan,circle
394.0,8.0,4.0,1.0,4.0,4.0,409.3983740312978,3.0,1.0,phase_1,,,,,,,,,,,,,green,triangle
219.0,3.0,3.0,0.0,3.0,3.0,360.9237320488319,3.0,1.0,phase_1,,,,,,,,,,,,,orange,hexagon
100.0,6.0,2.0,1.0,1.0,1.0,331.2220739899203,3.0,1.0,phase_1,,,,,,,,,,,,,cyan,circle
206.0,7.0,3.0,1.0,2.0,2.0,351.6783329541795,3.0,1.0,phase_1,,,,,,,,,,,,,magenta,square
424.0,4.0,4.0,0.0,4.0,4.0,457.6988850021735,3.0,2.0,phase_1,,,,,,,,,,,,,yellow,diamond
34.0,1.0,1.0,0.0,2.0,2.0,262.7561049885116,3.0,1.0,phase_1,,,,,,,,,,,,,white,flipped triangle
56.0,1.0,1.0,0.0,4.0,4.0,323.9289509947411,3.0,1.0,phase_1,,,,,,,,,,,,,white,flipped triangle
0.0,3.0,0.0,0.0,3.0,3.0,512.1786799863912,3.0,1.0,phase_1,,,,,,,,,,,,,orange,hexagon
0.0,4.0,0.0,0.0,2.0,2.0,605.5660469573922,3.0,1.0,phase_1,,,,,,,,,,,,,yellow,diamond
108.0,2.0,2.0,0.0,2.0,2.0,417.3943820060231,3.0,1.0,phase_1,,,,,,,,,,,,,blue,cross
212.0,7.0,3.0,1.0,2.0,2.0,301.6775450087152,3.0,1.0,phase_1,,,,,,,,,,,,,magenta,square
420.0,4.0,4.0,0.0,3.0,3.0,332.6189439976588,3.0,1.0,phase_1,,,,,,,,,,,,,yellow,diamond
423.0,4.0,4.0,0.0,3.0,3.0,359.9210300017148,3.0,1.0,phase_1,,,,,,,,,,,,,yellow,diamond
379.0,4.0,4.0,0.0,3.0,3.0,322.2740829805843,3.0,1.0,phase_1,,,,,,,,,,,,,yellow,diamond
414.0,8.0,4.0,1.0,4.0,4.0,318.963400030043,3.0,1.0,phase_1,,,,,,,,,,,,,green,triangle
215.0,7.0,3.0,1.0,2.0,2.0,461.4352519856766,3.0,1.0,phase_1,,,,,,,,,,,,,magenta,square
37.0,5.0,1.0,1.0,1.0,1.0,363.1356929545291,3.0,1.0,phase_1,,,,,,,,,,,,,gray,I
107.0,2.0,2.0,0.0,4.0,4.0,293.5812050127424,3.0,1.0,phase_1,,,,,,,,,,,,,blue,cross
107.0,6.0,2.0,1.0,4.0,4.0,338.229754997883,3.0,1.0,phase_1,,,,,,,,,,,,,cyan,circle
197.0,7.0,3.0,1.0,1.0,1.0,486.0906419926323,3.0,1.0,phase_1,,,,,,,,,,,,,magenta,square
379.0,8.0,4.0,1.0,3.0,3.0,419.9630210059695,3.0,1.0,phase_1,,,,,,,,,,,,,green,triangle
66.0,5.0,1.0,1.0,4.0,4.0,381.0994980158284,3.0,2.0,phase_1,,,,,,,,,,,,,gray,I
43.0,1.0,1.0,0.0,1.0,1.0,307.6045359484851,3.0,1.0,phase_1,,,,,,,,,,,,,white,flipped triangle
72.0,5.0,1.0,1.0,4.0,4.0,383.8818789809011,3.0,1.0,phase_1,,,,,,,,,,,,,gray,I
72.0,5.0,1.0,1.0,4.0,4.0,314.2517320229672,3.0,1.0,phase_1,,,,,,,,,,,,,gray,I
180.0,7.0,3.0,1.0,1.0,1.0,350.9823030326515,3.0,1.0,phase_1,,,,,,,,,,,,,magenta,square
108.0,2.0,2.0,0.0,1.0,1.0,293.97484799847,3.0,1.0,phase_1,,,,,,,,,,,,,blue,cross
214.0,3.0,3.0,0.0,2.0,2.0,316.0478830104694,3.0,1.0,phase_1,,,,,,,,,,,,,orange,hexagon
376.0,8.0,4.0,1.0,4.0,4.0,469.8380670160986,3.0,1.0,phase_1,,,,,,,,,,,,,green,triangle
84.0,2.0,2.0,0.0,4.0,4.0,362.6925359712913,3.0,1.0,phase_1,,,,,,,,,,,,,blue,cross
424.0,8.0,4.0,1.0,3.0,3.0,622.4254139815457,3.0,1.0,phase_1,,,,,,,,,,,,,green,triangle
50.0,5.0,1.0,1.0,2.0,2.0,515.3880850411952,3.0,1.0,phase_1,,,,,,,,,,,,,gray,I
201.0,3.0,3.0,0.0,1.0,1.0,419.4996020523831,3.0,1.0,phase_1,,,,,,,,,,,,,orange,hexagon
202.0,7.0,3.0,1.0,3.0,3.0,429.3462950154207,3.0,1.0,phase_1,,,,,,,,,,,,,magenta,square
399.0,8.0,4.0,1.0,4.0,4.0,508.3014630363323,3.0,1.0,phase_1,,,,,,,,,,,,,green,triangle
397.0,4.0,4.0,0.0,1.0,1.0,360.8548599877395,3.0,1.0,phase_1,,,,,,,,,,,,,yellow,diamond
387.0,4.0,4.0,0.0,3.0,3.0,331.7071130149998,3.0,1.0,phase_1,,,,,,,,,,,,,yellow,diamond
0.0,4.0,0.0,0.0,1.0,1.0,330.4592100321315,3.0,1.0,phase_1,,,,,,,,,,,,,yellow,diamond
0.0,5.0,0.0,1.0,3.0,3.0,326.306133007165,3.0,1.0,phase_1,,,,,,,,,,,,,gray,I
80.0,6.0,2.0,1.0,2.0,2.0,441.4073210209608,3.0,1.0,phase_1,,,,,,,,,,,,,cyan,circle
417.0,4.0,4.0,0.0,2.0,2.0,427.5991040049121,4.0,1.0,phase_1,,,,,,,,,,,,,yellow,diamond
77.0,6.0,2.0,1.0,2.0,2.0,343.9599119592458,4.0,1.0,phase_1,,,,,,,,,,,,,cyan,circle
0.0,5.0,0.0,1.0,1.0,1.0,299.1438330500386,4.0,1.0,phase_1,,,,,,,,,,,,,gray,I
224.0,3.0,3.0,0.0,4.0,4.0,258.5053090006113,4.0,1.0,phase_1,,,,,,,,,,,,,orange,hexagon
91.0,2.0,2.0,0.0,3.0,3.0,279.6400759834796,4.0,1.0,phase_1,,,,,,,,,,,,,blue,cross
28.0,1.0,1.0,0.0,3.0,3.0,323.1767800170928,4.0,1.0,phase_1,,,,,,,,,,,,,white,flipped triangle
400.0,4.0,4.0,0.0,2.0,2.0,270.5960890161805,4.0,1.0,phase_1,,,,,,,,,,,,,yellow,diamond
82.0,6.0,2.0,1.0,1.0,1.0,261.7666519945487,4.0,1.0,phase_1,,,,,,,,,,,,,cyan,circle
56.0,5.0,1.0,1.0,3.0,3.0,298.9043610286899,4.0,1.0,phase_1,,,,,,,,,,,,,gray,I
119.0,6.0,2.0,1.0,1.0,1.0,315.5713069718331,4.0,1.0,phase_1,,,,,,,,,,,,,cyan,circle
26.0,5.0,1.0,1.0,3.0,3.0,356.3548729871399,4.0,1.0,phase_1,,,,,,,,,,,,,gray,I
376.0,4.0,4.0,0.0,2.0,2.0,285.2748659788631,4.0,1.0,phase_1,,,,,,,,,,,,,yellow,diamond
0.0,2.0,0.0,0.0,3.0,3.0,261.5214640391059,4.0,1.0,phase_1,,,,,,,,,,,,,blue,cross
50.0,1.0,1.0,0.0,4.0,4.0,454.6175480354577,4.0,1.0,phase_1,,,,,,,,,,,,,white,flipped triangle
38.0,5.0,1.0,1.0,1.0,1.0,294.9174810200929,4.0,1.0,phase_1,,,,,,,,,,,,,gray,I
120.0,2.0,2.0,0.0,4.0,4.0,369.4687410024926,4.0,1.0,phase_1,,,,,,,,,,,,,blue,cross
398.0,8.0,4.0,1.0,3.0,3.0,318.6565439682454,4.0,1.0,phase_1,,,,,,,,,,,,,green,triangle
111.0,2.0,2.0,0.0,2.0,2.0,266.929607023485,4.0,1.0,phase_1,,,,,,,,,,,,,blue,cross
406.0,4.0,4.0,0.0,1.0,1.0,246.269638009835,4.0,1.0,phase_1,,,,,,,,,,,,,yellow,diamond
192.0,3.0,3.0,0.0,4.0,4.0,315.3514279983938,4.0,1.0,phase_1,,,,,,,,,,,,,orange,hexagon
0.0,3.0,0.0,0.0,1.0,1.0,331.4639239688404,4.0,1.0,phase_1,,,,,,,,,,,,,orange,hexagon
394.0,8.0,4.0,1.0,3.0,3.0,391.8737290077843,4.0,1.0,phase_1,,,,,,,,,,,,,green,triangle
223.0,3.0,3.0,0.0,1.0,1.0,552.3529970087111,4.0,1.0,phase_1,,,,,,,,,,,,,orange,hexagon
46.0,5.0,1.0,1.0,4.0,4.0,373.564853973221,4.0,1.0,phase_1,,,,,,,,,,,,,gray,I
26.0,1.0,1.0,0.0,1.0,1.0,298.5563219990581,4.0,1.0,phase_1,,,,,,,,,,,,,white,flipped triangle
214.0,7.0,3.0,1.0,2.0,2.0,374.6563349850476,4.0,1.0,phase_1,,,,,,,,,,,,,magenta,square
194.0,3.0,3.0,0.0,4.0,4.0,411.2906560185365,4.0,1.0,phase_1,,,,,,,,,,,,,orange,hexagon
37.0,1.0,1.0,0.0,4.0,4.0,360.0059369928203,4.0,1.0,phase_1,,,,,,,,,,,,,white,flipped triangle
105.0,2.0,2.0,0.0,4.0,4.0,405.6303600082174,4.0,1.0,phase_1,,,,,,,,,,,,,blue,cross
406.0,4.0,4.0,0.0,4.0,4.0,325.7362699951045,4.0,1.0,phase_1,,,,,,,,,,,,,yellow,diamond
79.0,6.0,2.0,1.0,3.0,3.0,360.1629610056989,4.0,1.0,phase_1,,,,,,,,,,,,,cyan,circle
72.0,1.0,1.0,0.0,1.0,1.0,308.826764987316,4.0,1.0,phase_1,,,,,,,,,,,,,white,flipped triangle
393.0,4.0,4.0,0.0,3.0,3.0,433.0520299845375,4.0,1.0,phase_1,,,,,,,,,,,,,yellow,diamond
422.0,8.0,4.0,1.0,1.0,1.0,396.8358719721436,4.0,1.0,phase_1,,,,,,,,,,,,,green,triangle
94.0,6.0,2.0,1.0,2.0,2.0,300.6337639526464,4.0,1.0,phase_1,,,,,,,,,,,,,cyan,circle
0.0,1.0,0.0,0.0,2.0,2.0,302.2031940054148,4.0,1.0,phase_1,,,,,,,,,,,,,white,flipped triangle
223.0,7.0,3.0,1.0,1.0,1.0,298.2237510150298,4.0,1.0,phase_1,,,,,,,,,,,,,magenta,square
96.0,2.0,2.0,0.0,2.0,2.0,265.8000290393829,4.0,1.0,phase_1,,,,,,,,,,,,,blue,cross
0.0,5.0,0.0,1.0,3.0,3.0,316.0068200086243,4.0,1.0,phase_1,,,,,,,,,,,,,gray,I
389.0,8.0,4.0,1.0,4.0,4.0,339.0949720051139,4.0,1.0,phase_1,,,,,,,,,,,,,green,triangle
58.0,1.0,1.0,0.0,3.0,3.0,310.73633703636,4.0,1.0,phase_1,,,,,,,,,,,,,white,flipped triangle
399.0,4.0,4.0,0.0,3.0,3.0,285.9959180350415,4.0,1.0,phase_1,,,,,,,,,,,,,yellow,diamond
383.0,8.0,4.0,1.0,2.0,2.0,286.9204870075919,4.0,1.0,phase_1,,,,,,,,,,,,,green,triangle
177.0,7.0,3.0,1.0,3.0,3.0,302.5130730238743,4.0,1.0,phase_1,,,,,,,,,,,,,magenta,square
88.0,2.0,2.0,0.0,1.0,1.0,282.0884519605897,4.0,1.0,phase_1,,,,,,,,,,,,,blue,cross
209.0,3.0,3.0,0.0,2.0,2.0,303.141746961046,4.0,1.0,phase_1,,,,,,,,,,,,,orange,hexagon
420.0,8.0,4.0,1.0,4.0,4.0,325.2331460244022,4.0,1.0,phase_1,,,,,,,,,,,,,green,triangle
422.0,4.0,4.0,0.0,1.0,1.0,302.6969360071234,4.0,1.0,phase_1,,,,,,,,,,,,,yellow,diamond
84.0,6.0,2.0,1.0,4.0,4.0,371.1790550150908,4.0,1.0,phase_1,,,,,,,,,,,,,cyan,circle
111.0,2.0,2.0,0.0,3.0,3.0,287.1251659817062,4.0,1.0,phase_1,,,,,,,,,,,,,blue,cross
399.0,8.0,4.0,1.0,2.0,2.0,333.5602870211005,4.0,1.0,phase_1,,,,,,,,,,,,,green,triangle
225.0,7.0,3.0,1.0,3.0,3.0,385.040799039416,4.0,1.0,phase_1,,,,,,,,,,,,,magenta,square
0.0,8.0,0.0,1.0,2.0,2.0,269.9819839908741,4.0,1.0,phase_1,,,,,,,,,,,,,green,triangle
117.0,6.0,2.0,1.0,1.0,1.0,233.6695769918151,4.0,1.0,phase_1,,,,,,,,,,,,,cyan,circle
105.0,6.0,2.0,1.0,2.0,2.0,318.8868110300973,4.0,1.0,phase_1,,,,,,,,,,,,,cyan,circle
0.0,1.0,0.0,0.0,3.0,3.0,357.4575000093318,4.0,1.0,phase_1,,,,,,,,,,,,,white,flipped triangle
85.0,6.0,2.0,1.0,4.0,4.0,256.031705008354,4.0,1.0,phase_1,,,,,,,,,,,,,cyan,circle
72.0,1.0,1.0,0.0,1.0,1.0,279.1387030156329,4.0,1.0,phase_1,,,,,,,,,,,,,white,flipped triangle
28.0,5.0,1.0,1.0,1.0,1.0,250.3130540135316,4.0,1.0,phase_1,,,,,,,,,,,,,gray,I
36.0,5.0,1.0,1.0,1.0,1.0,336.037196975667,4.0,1.0,phase_1,,,,,,,,,,,,,gray,I
414.0,4.0,4.0,0.0,2.0,2.0,274.9724360182881,4.0,1.0,phase_1,,,,,,,,,,,,,yellow,diamond
80.0,6.0,2.0,1.0,3.0,3.0,361.127671028953,4.0,1.0,phase_1,,,,,,,,,,,,,cyan,circle
0.0,5.0,0.0,1.0,4.0,4.0,559.7596860025078,4.0,1.0,phase_1,,,,,,,,,,,,,gray,I
0.0,3.0,0.0,0.0,2.0,2.0,291.1130260326899,4.0,1.0,phase_1,,,,,,,,,,,,,orange,hexagon
0.0,1.0,0.0,0.0,2.0,2.0,278.9481660001911,4.0,1.0,phase_1,,,,,,,,,,,,,white,flipped triangle
75.0,1.0,1.0,0.0,1.0,1.0,298.1343810097314,4.0,1.0,phase_1,,,,,,,,,,,,,white,flipped triangle
80.0,2.0,2.0,0.0,4.0,4.0,314.1974660102278,4.0,1.0,phase_1,,,,,,,,,,,,,blue,cross
69.0,1.0,1.0,0.0,3.0,3.0,363.3718420169316,4.0,1.0,phase_1,,,,,,,,,,,,,white,flipped triangle
179.0,7.0,3.0,1.0,2.0,2.0,274.4513350189663,4.0,1.0,phase_1,,,,,,,,,,,,,magenta,square
66.0,1.0,1.0,0.0,2.0,2.0,312.0076340273954,4.0,1.0,phase_1,,,,,,,,,,,,,white,flipped triangle
208.0,3.0,3.0,0.0,3.0,3.0,372.4104260327294,4.0,1.0,phase_1,,,,,,,,,,,,,orange,hexagon
0.0,5.0,0.0,1.0,1.0,1.0,425.7675850531086,4.0,1.0,phase_1,,,,,,,,,,,,,gray,I
55.0,5.0,1.0,1.0,2.0,2.0,565.6117130420171,4.0,1.0,phase_1,,,,,,,,,,,,,gray,I
122.0,6.0,2.0,1.0,3.0,3.0,499.5342680485919,4.0,1.0,phase_1,,,,,,,,,,,,,cyan,circle
96.0,6.0,2.0,1.0,4.0,4.0,429.3289840570651,4.0,1.0,phase_1,,,,,,,,,,,,,cyan,circle
0.0,2.0,0.0,0.0,1.0,1.0,340.9331400180235,4.0,1.0,phase_1,,,,,,,,,,,,,blue,cross
56.0,1.0,1.0,0.0,2.0,2.0,521.6363330255263,4.0,1.0,phase_1,,,,,,,,,,,,,white,flipped triangle
182.0,7.0,3.0,1.0,1.0,1.0,292.5099330022931,4.0,1.0,phase_1,,,,,,,,,,,,,magenta,square
0.0,6.0,0.0,1.0,2.0,2.0,257.6881269924342,4.0,1.0,phase_1,,,,,,,,,,,,,cyan,circle
194.0,7.0,3.0,1.0,3.0,3.0,335.7037199893966,4.0,1.0,phase_1,,,,,,,,,,,,,magenta,square
101.0,6.0,2.0,1.0,1.0,1.0,377.064830972813,4.0,1.0,phase_1,,,,,,,,,,,,,cyan,circle
201.0,7.0,3.0,1.0,4.0,4.0,359.932221006602,4.0,1.0,phase_1,,,,,,,,,,,,,magenta,square
178.0,3.0,3.0,0.0,4.0,4.0,347.9004009859636,4.0,1.0,phase_1,,,,,,,,,,,,,orange,hexagon
109.0,2.0,2.0,0.0,4.0,4.0,302.6604559854604,4.0,1.0,phase_1,,,,,,,,,,,,,blue,cross
103.0,6.0,2.0,1.0,4.0,4.0,286.1658699694089,4.0,1.0,phase_1,,,,,,,,,,,,,cyan,circle
108.0,2.0,2.0,0.0,1.0,1.0,319.7051679599099,4.0,1.0,phase_1,,,,,,,,,,,,,blue,cross
88.0,6.0,2.0,1.0,4.0,4.0,280.289564980194,4.0,1.0,phase_1,,,,,,,,,,,,,cyan,circle
103.0,2.0,2.0,0.0,2.0,2.0,274.0683119627647,4.0,1.0,phase_1,,,,,,,,,,,,,blue,cross
412.0,8.0,4.0,1.0,1.0,1.0,269.8718369938433,4.0,1.0,phase_1,,,,,,,,,,,,,green,triangle
120.0,6.0,2.0,1.0,2.0,2.0,282.8003350296058,4.0,1.0,phase_1,,,,,,,,,,,,,cyan,circle
36.0,1.0,1.0,0.0,4.0,4.0,360.0093450513668,4.0,2.0,phase_1,,,,,,,,,,,,,white,flipped triangle
43.0,1.0,1.0,0.0,2.0,2.0,363.7686690199189,4.0,1.0,phase_1,,,,,,,,,,,,,white,flipped triangle
0.0,7.0,0.0,1.0,1.0,1.0,351.338266977109,4.0,1.0,phase_1,,,,,,,,,,,,,magenta,square
383.0,8.0,4.0,1.0,4.0,4.0,315.8116689883172,4.0,1.0,phase_1,,,,,,,,,,,,,green,triangle
195.0,7.0,3.0,1.0,4.0,4.0,544.6026040008292,4.0,1.0,phase_1,,,,,,,,,,,,,magenta,square
53.0,1.0,1.0,0.0,1.0,1.0,366.7220740462653,4.0,1.0,phase_1,,,,,,,,,,,,,white,flipped triangle
93.0,6.0,2.0,1.0,3.0,3.0,352.3437890107743,4.0,1.0,phase_1,,,,,,,,,,,,,cyan,circle
185.0,7.0,3.0,1.0,4.0,4.0,454.7174280160106,4.0,1.0,phase_1,,,,,,,,,,,,,magenta,square
0.0,6.0,0.0,1.0,2.0,2.0,291.7908880044706,4.0,1.0,phase_1,,,,,,,,,,,,,cyan,circle
203.0,7.0,3.0,1.0,3.0,3.0,319.4370080018416,4.0,1.0,phase_1,,,,,,,,,,,,,magenta,square
0.0,4.0,4.0,0.0,5.0,5.0,664.7469580057077,1.0,1.0,phase_2,go,250.0,250.0,1.0,,,,,,,,,yellow,diamond
0.0,8.0,4.0,1.0,5.0,5.0,944.791488989722,1.0,1.0,phase_2,go,250.0,250.0,1.0,,,,,,,,,green,triangle
0.0,3.0,3.0,0.0,5.0,5.0,888.5431259986944,1.0,1.0,phase_2,go,250.0,250.0,1.0,,,,,,,,,orange,hexagon
0.0,3.0,3.0,0.0,6.0,6.0,797.8820219868794,1.0,1.0,phase_2,go,250.0,250.0,1.0,,,,,,,,,orange,hexagon
0.0,8.0,4.0,1.0,6.0,0.0,0.0,1.0,1.0,phase_2,stop,250.0,250.0,4.0,,,,,,,,,green,triangle
0.0,2.0,2.0,0.0,6.0,6.0,853.8208359968849,1.0,1.0,phase_2,go,250.0,300.0,1.0,,,,,,,,,blue,cross
0.0,4.0,4.0,0.0,6.0,6.0,990.352107968647,1.0,1.0,phase_2,go,250.0,300.0,1.0,,,,,,,,,yellow,diamond
0.0,7.0,3.0,1.0,5.0,0.0,0.0,1.0,1.0,phase_2,stop,250.0,300.0,4.0,,,,,,,,,magenta,square
0.0,7.0,3.0,1.0,6.0,0.0,0.0,1.0,1.0,phase_2,stop,300.0,300.0,4.0,,,,,,,,,magenta,square
0.0,5.0,1.0,1.0,5.0,0.0,0.0,1.0,1.0,phase_2,stop,300.0,350.0,4.0,,,,,,,,,gray,I
0.0,4.0,4.0,0.0,5.0,5.0,795.3073959797621,1.0,1.0,phase_2,go,350.0,350.0,1.0,,,,,,,,,yellow,diamond
0.0,1.0,1.0,0.0,6.0,6.0,800.7619850104675,1.0,1.0,phase_2,go,350.0,350.0,1.0,,,,,,,,,white,flipped triangle
0.0,6.0,2.0,1.0,5.0,0.0,0.0,1.0,1.0,phase_2,stop,350.0,350.0,4.0,,,,,,,,,cyan,circle
0.0,7.0,3.0,1.0,5.0,5.0,1138.58105201507,1.0,1.0,phase_2,go,400.0,350.0,1.0,,,,,,,,,magenta,square
0.0,5.0,1.0,1.0,5.0,5.0,1027.0283229765482,1.0,1.0,phase_2,go,400.0,350.0,1.0,,,,,,,,,gray,I
0.0,6.0,2.0,1.0,6.0,0.0,0.0,1.0,1.0,phase_2,stop,400.0,350.0,4.0,,,,,,,,,cyan,circle
0.0,4.0,4.0,0.0,6.0,6.0,1078.996165015269,1.0,1.0,phase_2,go,400.0,400.0,1.0,,,,,,,,,yellow,diamond
0.0,7.0,3.0,1.0,6.0,0.0,0.0,1.0,1.0,phase_2,stop,400.0,400.0,4.0,,,,,,,,,magenta,square
0.0,4.0,4.0,0.0,6.0,6.0,1151.4269239851274,1.0,1.0,phase_2,go,400.0,450.0,1.0,,,,,,,,,yellow,diamond
0.0,2.0,2.0,0.0,5.0,5.0,1183.5079190204851,1.0,1.0,phase_2,go,400.0,450.0,1.0,,,,,,,,,blue,cross
0.0,2.0,2.0,0.0,6.0,6.0,1205.7025090325624,1.0,1.0,phase_2,go,400.0,450.0,1.0,,,,,,,,,blue,cross
0.0,7.0,3.0,1.0,6.0,6.0,931.6527509945444,1.0,1.0,phase_2,go,400.0,450.0,1.0,,,,,,,,,magenta,square
0.0,2.0,2.0,0.0,6.0,6.0,1102.0207739784382,1.0,1.0,phase_2,go,400.0,450.0,1.0,,,,,,,,,blue,cross
0.0,4.0,4.0,0.0,5.0,5.0,860.5174949625507,1.0,1.0,phase_2,go,400.0,450.0,1.0,,,,,,,,,yellow,diamond
0.0,1.0,1.0,0.0,6.0,6.0,987.1826019953004,1.0,1.0,phase_2,go,400.0,450.0,1.0,,,,,,,,,white,flipped triangle
0.0,5.0,1.0,1.0,6.0,0.0,0.0,1.0,1.0,phase_2,stop,400.0,450.0,4.0,,,,,,,,,gray,I
0.0,2.0,2.0,0.0,5.0,5.0,883.6167280096561,1.0,1.0,phase_2,go,400.0,500.0,1.0,,,,,,,,,blue,cross
0.0,7.0,3.0,1.0,5.0,0.0,0.0,1.0,1.0,phase_2,stop,400.0,500.0,4.0,,,,,,,,,magenta,square
0.0,6.0,2.0,1.0,5.0,0.0,0.0,1.0,1.0,phase_2,stop,450.0,500.0,4.0,,,,,,,,,cyan,circle
0.0,2.0,2.0,0.0,5.0,5.0,978.264328034129,1.0,1.0,phase_2,go,500.0,500.0,1.0,,,,,,,,,blue,cross
0.0,3.0,3.0,0.0,5.0,5.0,991.4024350000544,1.0,1.0,phase_2,go,500.0,500.0,1.0,,,,,,,,,orange,hexagon
0.0,8.0,4.0,1.0,6.0,0.0,0.0,1.0,1.0,phase_2,stop,500.0,500.0,4.0,,,,,,,,,green,triangle
0.0,8.0,4.0,1.0,5.0,0.0,0.0,1.0,1.0,phase_2,stop,500.0,550.0,4.0,,,,,,,,,green,triangle
0.0,8.0,4.0,1.0,5.0,0.0,0.0,1.0,1.0,phase_2,stop,550.0,550.0,4.0,,,,,,,,,green,triangle
0.0,1.0,1.0,0.0,5.0,5.0,1240.012330992613,1.0,1.0,phase_2,go,600.0,550.0,1.0,,,,,,,,,white,flipped triangle
0.0,5.0,1.0,1.0,6.0,0.0,0.0,1.0,1.0,phase_2,stop,600.0,550.0,4.0,,,,,,,,,gray,I
0.0,6.0,2.0,1.0,6.0,6.0,591.8778019840829,2.0,1.0,phase_2,stop,600.0,600.0,3.0,,,,,,,,,cyan,circle
0.0,5.0,1.0,1.0,6.0,6.0,704.1972539736889,2.0,1.0,phase_2,go,600.0,550.0,1.0,,,,,,,,,gray,I
0.0,2.0,2.0,0.0,5.0,5.0,464.4966869964264,2.0,1.0,phase_2,go,600.0,550.0,1.0,,,,,,,,,blue,cross
0.0,7.0,3.0,1.0,5.0,5.0,521.2696430389769,2.0,1.0,phase_2,go,600.0,550.0,1.0,,,,,,,,,magenta,square
0.0,3.0,3.0,0.0,6.0,6.0,391.5245570242405,2.0,1.0,phase_2,go,600.0,550.0,1.0,,,,,,,,,orange,hexagon
0.0,4.0,4.0,0.0,5.0,5.0,471.9916420290246,2.0,1.0,phase_2,go,600.0,550.0,1.0,,,,,,,,,yellow,diamond
0.0,6.0,2.0,1.0,5.0,5.0,541.472653974779,2.0,1.0,phase_2,go,600.0,550.0,1.0,,,,,,,,,cyan,circle
0.0,2.0,2.0,0.0,5.0,5.0,775.3817689954303,2.0,1.0,phase_2,go,600.0,550.0,1.0,,,,,,,,,blue,cross
0.0,8.0,4.0,1.0,5.0,5.0,645.6738819833845,2.0,1.0,phase_2,go,600.0,550.0,1.0,,,,,,,,,green,triangle
0.0,5.0,1.0,1.0,6.0,6.0,394.5672670379281,2.0,1.0,phase_2,stop,600.0,550.0,3.0,,,,,,,,,gray,I
0.0,6.0,2.0,1.0,6.0,6.0,521.8309570336714,2.0,1.0,phase_2,stop,600.0,500.0,3.0,,,,,,,,,cyan,circle
0.0,8.0,4.0,1.0,6.0,6.0,764.9369190330617,2.0,1.0,phase_2,go,600.0,450.0,1.0,,,,,,,,,green,triangle
0.0,5.0,1.0,1.0,5.0,0.0,0.0,2.0,1.0,phase_2,stop,600.0,450.0,4.0,,,,,,,,,gray,I
0.0,6.0,2.0,1.0,6.0,6.0,479.7717779874801,2.0,1.0,phase_2,stop,650.0,450.0,3.0,,,,,,,,,cyan,circle
0.0,1.0,1.0,0.0,6.0,6.0,626.2179589830339,2.0,1.0,phase_2,go,650.0,400.0,1.0,,,,,,,,,white,flipped triangle
0.0,7.0,3.0,1.0,5.0,5.0,550.7123519782908,2.0,1.0,phase_2,go,650.0,400.0,1.0,,,,,,,,,magenta,square
0.0,8.0,4.0,1.0,5.0,0.0,0.0,2.0,1.0,phase_2,stop,650.0,400.0,4.0,,,,,,,,,green,triangle
0.0,8.0,4.0,1.0,5.0,5.0,806.5971589530818,2.0,1.0,phase_2,stop,700.0,400.0,3.0,,,,,,,,,green,triangle
0.0,1.0,1.0,0.0,5.0,5.0,894.1607750020921,2.0,1.0,phase_2,go,650.0,400.0,1.0,,,,,,,,,white,flipped triangle
0.0,8.0,4.0,1.0,5.0,0.0,0.0,2.0,1.0,phase_2,stop,650.0,400.0,4.0,,,,,,,,,green,triangle
0.0,5.0,1.0,1.0,6.0,0.0,0.0,2.0,1.0,phase_2,stop,700.0,400.0,4.0,,,,,,,,,gray,I
0.0,5.0,1.0,1.0,5.0,5.0,614.6549039985985,2.0,1.0,phase_2,stop,700.0,450.0,3.0,,,,,,,,,gray,I
0.0,1.0,1.0,0.0,6.0,6.0,614.8245430085808,2.0,1.0,phase_2,go,650.0,450.0,1.0,,,,,,,,,white,flipped triangle
0.0,4.0,4.0,0.0,6.0,6.0,1106.616010016296,2.0,1.0,phase_2,go,650.0,450.0,1.0,,,,,,,,,yellow,diamond
0.0,7.0,3.0,1.0,5.0,0.0,0.0,2.0,1.0,phase_2,stop,650.0,450.0,4.0,,,,,,,,,magenta,square
0.0,4.0,4.0,0.0,5.0,5.0,633.8816119823605,2.0,1.0,phase_2,go,700.0,450.0,1.0,,,,,,,,,yellow,diamond
0.0,1.0,1.0,0.0,5.0,5.0,939.5241269958206,2.0,1.0,phase_2,go,700.0,450.0,1.0,,,,,,,,,white,flipped triangle
0.0,3.0,3.0,0.0,6.0,6.0,848.1941749923863,2.0,1.0,phase_2,go,700.0,450.0,1.0,,,,,,,,,orange,hexagon
0.0,5.0,1.0,1.0,5.0,5.0,522.7641540113837,2.0,1.0,phase_2,stop,700.0,450.0,3.0,,,,,,,,,gray,I
0.0,3.0,3.0,0.0,6.0,6.0,650.9050789754838,2.0,1.0,phase_2,go,650.0,450.0,1.0,,,,,,,,,orange,hexagon
0.0,7.0,3.0,1.0,6.0,6.0,296.53258196776727,2.0,1.0,phase_2,stop,650.0,450.0,3.0,,,,,,,,,magenta,square
0.0,8.0,4.0,1.0,5.0,6.0,0.1650699996389,2.0,1.0,phase_2,stop,650.0,400.0,3.0,,,,,,,,,green,triangle
0.0,6.0,2.0,1.0,5.0,5.0,566.0326369688846,2.0,1.0,phase_2,stop,600.0,400.0,3.0,,,,,,,,,cyan,circle
0.0,4.0,4.0,0.0,6.0,6.0,558.620845025871,2.0,1.0,phase_2,go,550.0,400.0,1.0,,,,,,,,,yellow,diamond
0.0,6.0,2.0,1.0,5.0,0.0,0.0,2.0,1.0,phase_2,stop,550.0,400.0,4.0,,,,,,,,,cyan,circle
0.0,1.0,1.0,0.0,6.0,6.0,935.0303090177476,2.0,1.0,phase_2,go,600.0,400.0,1.0,,,,,,,,,white,flipped triangle
0.0,2.0,2.0,0.0,6.0,6.0,951.2641049805096,3.0,1.0,phase_2,go,600.0,400.0,1.0,,,,,,,,,blue,cross
0.0,3.0,3.0,0.0,5.0,5.0,311.5934120141901,3.0,1.0,phase_2,go,600.0,400.0,1.0,,,,,,,,,orange,hexagon
0.0,7.0,3.0,1.0,6.0,6.0,468.9184440067038,3.0,1.0,phase_2,stop,600.0,400.0,3.0,,,,,,,,,magenta,square
0.0,3.0,3.0,0.0,5.0,5.0,309.8377040005289,3.0,1.0,phase_2,go,600.0,350.0,1.0,,,,,,,,,orange,hexagon
0.0,1.0,1.0,0.0,5.0,5.0,307.0380489807576,3.0,1.0,phase_2,go,600.0,350.0,1.0,,,,,,,,,white,flipped triangle
0.0,3.0,3.0,0.0,6.0,6.0,348.67681999458,3.0,1.0,phase_2,go,600.0,350.0,1.0,,,,,,,,,orange,hexagon
0.0,6.0,2.0,1.0,6.0,6.0,321.9274430302903,3.0,1.0,phase_2,go,600.0,350.0,1.0,,,,,,,,,cyan,circle
0.0,3.0,3.0,0.0,5.0,5.0,458.9164369972422,3.0,1.0,phase_2,go,600.0,350.0,1.0,,,,,,,,,orange,hexagon
0.0,7.0,3.0,1.0,6.0,6.0,305.5090050329454,3.0,1.0,phase_2,go,600.0,350.0,1.0,,,,,,,,,magenta,square
0.0,5.0,1.0,1.0,5.0,5.0,235.8360840007662,3.0,1.0,phase_2,stop,600.0,350.0,3.0,,,,,,,,,gray,I
0.0,6.0,2.0,1.0,5.0,5.0,483.1310180015862,3.0,1.0,phase_2,stop,550.0,350.0,3.0,,,,,,,,,cyan,circle
0.0,4.0,4.0,0.0,5.0,5.0,385.3507150197401,3.0,1.0,phase_2,go,500.0,350.0,1.0,,,,,,,,,yellow,diamond
0.0,6.0,2.0,1.0,6.0,6.0,298.8677959656343,3.0,1.0,phase_2,go,500.0,350.0,1.0,,,,,,,,,cyan,circle
0.0,6.0,2.0,1.0,5.0,5.0,432.1527869906276,3.0,1.0,phase_2,stop,500.0,350.0,3.0,,,,,,,,,cyan,circle
0.0,5.0,1.0,1.0,5.0,5.0,439.0794039936736,3.0,1.0,phase_2,go,450.0,350.0,1.0,,,,,,,,,gray,I
0.0,8.0,4.0,1.0,6.0,6.0,264.5236580283381,3.0,1.0,phase_2,stop,450.0,350.0,3.0,,,,,,,,,green,triangle
0.0,4.0,4.0,0.0,5.0,5.0,351.2473150040023,3.0,1.0,phase_2,go,450.0,300.0,1.0,,,,,,,,,yellow,diamond
0.0,3.0,3.0,0.0,6.0,6.0,535.5170979746617,3.0,1.0,phase_2,go,450.0,300.0,1.0,,,,,,,,,orange,hexagon
0.0,5.0,1.0,1.0,5.0,5.0,268.1066119694151,3.0,1.0,phase_2,stop,450.0,300.0,3.0,,,,,,,,,gray,I
0.0,8.0,4.0,1.0,5.0,5.0,325.2317850128747,3.0,1.0,phase_2,stop,400.0,300.0,3.0,,,,,,,,,green,triangle
0.0,3.0,3.0,0.0,6.0,6.0,330.2427909802645,3.0,1.0,phase_2,go,350.0,300.0,1.0,,,,,,,,,orange,hexagon
0.0,4.0,4.0,0.0,6.0,6.0,273.9842250011861,3.0,1.0,phase_2,go,350.0,300.0,1.0,,,,,,,,,yellow,diamond
0.0,3.0,3.0,0.0,5.0,5.0,244.3012769799679,3.0,1.0,phase_2,go,350.0,300.0,1.0,,,,,,,,,orange,hexagon
0.0,6.0,2.0,1.0,6.0,6.0,284.4279049895704,3.0,1.0,phase_2,stop,350.0,300.0,3.0,,,,,,,,,cyan,circle
0.0,3.0,3.0,0.0,6.0,6.0,420.1211269828491,3.0,1.0,phase_2,go,350.0,250.0,1.0,,,,,,,,,orange,hexagon
0.0,7.0,3.0,1.0,6.0,6.0,268.1720110122114,3.0,1.0,phase_2,stop,350.0,250.0,3.0,,,,,,,,,magenta,square
0.0,8.0,4.0,1.0,6.0,6.0,243.1999040418304,3.0,1.0,phase_2,go,350.0,200.0,1.0,,,,,,,,,green,triangle
0.0,3.0,3.0,0.0,6.0,6.0,194.358785985969,3.0,1.0,phase_2,go,350.0,200.0,1.0,,,,,,,,,orange,hexagon
0.0,7.0,3.0,1.0,6.0,6.0,398.5058040125295,3.0,1.0,phase_2,stop,350.0,200.0,3.0,,,,,,,,,magenta,square
0.0,5.0,1.0,1.0,6.0,6.0,654.3950900086202,3.0,1.0,phase_2,go,350.0,150.0,1.0,,,,,,,,,gray,I
0.0,5.0,1.0,1.0,6.0,0.0,0.0,3.0,1.0,phase_2,stop,350.0,150.0,4.0,,,,,,,,,gray,I
0.0,2.0,2.0,0.0,5.0,5.0,408.1552459974773,3.0,1.0,phase_2,go,350.0,200.0,1.0,,,,,,,,,blue,cross
0.0,4.0,4.0,0.0,6.0,6.0,198.1888769660145,3.0,1.0,phase_2,go,350.0,200.0,1.0,,,,,,,,,yellow,diamond
0.0,7.0,3.0,1.0,5.0,5.0,231.1726810294203,3.0,1.0,phase_2,stop,350.0,200.0,3.0,,,,,,,,,magenta,square
0.0,3.0,3.0,0.0,6.0,6.0,411.5854310221039,3.0,1.0,phase_2,go,300.0,200.0,1.0,,,,,,,,,orange,hexagon
0.0,6.0,2.0,1.0,5.0,5.0,379.7091080341488,3.0,1.0,phase_2,go,300.0,200.0,1.0,,,,,,,,,cyan,circle
0.0,5.0,1.0,1.0,5.0,0.0,0.0,4.0,1.0,phase_2,stop,300.0,200.0,4.0,,,,,,,,,gray,I
0.0,8.0,4.0,1.0,5.0,0.0,0.0,4.0,1.0,phase_2,stop,350.0,200.0,4.0,,,,,,,,,green,triangle
0.0,5.0,1.0,1.0,6.0,0.0,0.0,4.0,1.0,phase_2,stop,400.0,200.0,4.0,,,,,,,,,gray,I
0.0,5.0,1.0,1.0,5.0,5.0,290.2988190180622,4.0,1.0,phase_2,go,400.0,250.0,1.0,,,,,,,,,gray,I
0.0,3.0,3.0,0.0,6.0,6.0,445.1484099845402,4.0,1.0,phase_2,go,400.0,250.0,1.0,,,,,,,,,orange,hexagon
0.0,1.0,1.0,0.0,5.0,5.0,238.060966017656,4.0,1.0,phase_2,go,400.0,250.0,1.0,,,,,,,,,white,flipped triangle
0.0,5.0,1.0,1.0,5.0,5.0,284.9672950105741,4.0,1.0,phase_2,stop,400.0,250.0,3.0,,,,,,,,,gray,I
0.0,1.0,1.0,0.0,5.0,5.0,269.6809169719927,4.0,1.0,phase_2,go,350.0,250.0,1.0,,,,,,,,,white,flipped triangle
0.0,6.0,2.0,1.0,6.0,6.0,238.5370309930294,4.0,1.0,phase_2,stop,350.0,250.0,3.0,,,,,,,,,cyan,circle
0.0,8.0,4.0,1.0,6.0,5.0,54.079003049992,4.0,1.0,phase_2,stop,350.0,200.0,3.0,,,,,,,,,green,triangle
0.0,8.0,4.0,1.0,6.0,6.0,403.8354940130375,4.0,1.0,phase_2,stop,350.0,150.0,3.0,,,,,,,,,green,triangle
0.0,4.0,4.0,0.0,5.0,5.0,372.0371029921807,4.0,1.0,phase_2,go,350.0,100.0,1.0,,,,,,,,,yellow,diamond
0.0,7.0,3.0,1.0,5.0,5.0,433.0768460058607,4.0,1.0,phase_2,stop,350.0,100.0,3.0,,,,,,,,,magenta,square
0.0,5.0,1.0,1.0,6.0,0.0,0.0,4.0,1.0,phase_2,stop,300.0,100.0,4.0,,,,,,,,,gray,I
0.0,3.0,3.0,0.0,5.0,5.0,283.9511680067517,4.0,1.0,phase_2,go,300.0,150.0,1.0,,,,,,,,,orange,hexagon
0.0,1.0,1.0,0.0,6.0,6.0,536.2754199886695,4.0,1.0,phase_2,go,300.0,150.0,1.0,,,,,,,,,white,flipped triangle
0.0,1.0,1.0,0.0,5.0,5.0,383.3883720217272,4.0,1.0,phase_2,go,300.0,150.0,1.0,,,,,,,,,white,flipped triangle
0.0,7.0,3.0,1.0,6.0,6.0,262.1984189609065,4.0,1.0,phase_2,stop,300.0,150.0,3.0,,,,,,,,,magenta,square
0.0,8.0,4.0,1.0,6.0,6.0,288.015000987798,4.0,1.0,phase_2,stop,300.0,100.0,3.0,,,,,,,,,green,triangle
0.0,3.0,3.0,0.0,5.0,5.0,317.6328859990462,4.0,1.0,phase_2,go,300.0,50.0,1.0,,,,,,,,,orange,hexagon
0.0,8.0,4.0,1.0,6.0,0.0,0.0,4.0,1.0,phase_2,stop,300.0,50.0,4.0,,,,,,,,,green,triangle
0.0,6.0,2.0,1.0,5.0,5.0,315.9793450031429,4.0,1.0,phase_2,stop,300.0,100.0,3.0,,,,,,,,,cyan,circle
0.0,1.0,1.0,0.0,6.0,6.0,461.7855299729854,4.0,1.0,phase_2,go,250.0,100.0,1.0,,,,,,,,,white,flipped triangle
0.0,4.0,4.0,0.0,6.0,6.0,411.0078379744664,4.0,1.0,phase_2,go,250.0,100.0,1.0,,,,,,,,,yellow,diamond
0.0,4.0,4.0,0.0,5.0,5.0,370.6128079793416,4.0,1.0,phase_2,go,250.0,100.0,1.0,,,,,,,,,yellow,diamond
0.0,5.0,1.0,1.0,5.0,5.0,282.6353879645467,4.0,1.0,phase_2,stop,250.0,100.0,3.0,,,,,,,,,gray,I
0.0,8.0,4.0,1.0,6.0,0.0,0.0,4.0,1.0,phase_2,stop,200.0,100.0,4.0,,,,,,,,,green,triangle
0.0,1.0,1.0,0.0,5.0,5.0,259.0161859989166,4.0,1.0,phase_2,go,200.0,150.0,1.0,,,,,,,,,white,flipped triangle
0.0,7.0,3.0,1.0,6.0,6.0,537.0061910361983,4.0,1.0,phase_2,go,200.0,150.0,1.0,,,,,,,,,magenta,square
0.0,1.0,1.0,0.0,5.0,5.0,271.5392399695702,4.0,1.0,phase_2,go,200.0,150.0,1.0,,,,,,,,,white,flipped triangle
0.0,8.0,4.0,1.0,5.0,5.0,330.0132160075009,4.0,1.0,phase_2,go,200.0,150.0,1.0,,,,,,,,,green,triangle
0.0,5.0,1.0,1.0,6.0,6.0,272.905977035407,4.0,1.0,phase_2,stop,200.0,150.0,3.0,,,,,,,,,gray,I
0.0,5.0,1.0,1.0,6.0,6.0,214.1691349679604,4.0,1.0,phase_2,stop,200.0,100.0,3.0,,,,,,,,,gray,I
0.0,3.0,3.0,0.0,6.0,6.0,256.6596129909158,4.0,1.0,phase_2,go,200.0,50.0,1.0,,,,,,,,,orange,hexagon
0.0,3.0,3.0,0.0,5.0,5.0,256.5190700115636,4.0,1.0,phase_2,go,200.0,50.0,1.0,,,,,,,,,orange,hexagon
0.0,7.0,3.0,1.0,5.0,5.0,277.7012099977582,4.0,1.0,phase_2,stop,200.0,50.0,3.0,,,,,,,,,magenta,square
0.0,5.0,1.0,1.0,6.0,6.0,511.43885898636654,5.0,1.0,phase_2,go,150.0,50.0,1.0,,,,,,,,,gray,I
0.0,6.0,2.0,1.0,5.0,0.0,0.0,5.0,1.0,phase_2,stop,150.0,50.0,4.0,,,,,,,,,cyan,circle
0.0,3.0,3.0,0.0,5.0,5.0,395.1904179994017,5.0,1.0,phase_2,go,200.0,50.0,1.0,,,,,,,,,orange,hexagon
0.0,2.0,2.0,0.0,5.0,5.0,268.5610240441747,5.0,1.0,phase_2,go,200.0,50.0,1.0,,,,,,,,,blue,cross
0.0,8.0,4.0,1.0,6.0,6.0,325.4287759773433,5.0,1.0,phase_2,go,200.0,50.0,1.0,,,,,,,,,green,triangle
0.0,2.0,2.0,0.0,6.0,6.0,268.1238400400616,5.0,1.0,phase_2,go,200.0,50.0,1.0,,,,,,,,,blue,cross
0.0,6.0,2.0,1.0,6.0,6.0,256.7796260118484,5.0,1.0,phase_2,go,200.0,50.0,1.0,,,,,,,,,cyan,circle
0.0,2.0,2.0,0.0,6.0,6.0,227.7939770137891,5.0,1.0,phase_2,go,200.0,50.0,1.0,,,,,,,,,blue,cross
0.0,7.0,3.0,1.0,6.0,6.0,226.8128450377844,5.0,1.0,phase_2,stop,200.0,50.0,3.0,,,,,,,,,magenta,square
0.0,1.0,1.0,0.0,5.0,5.0,247.4143269937485,5.0,1.0,phase_2,go,200.0,0.0,1.0,,,,,,,,,white,flipped triangle
0.0,2.0,2.0,0.0,6.0,6.0,233.7978649884462,5.0,1.0,phase_2,go,200.0,0.0,1.0,,,,,,,,,blue,cross
0.0,4.0,4.0,0.0,6.0,6.0,233.1048549967818,5.0,1.0,phase_2,go,200.0,0.0,1.0,,,,,,,,,yellow,diamond
0.0,2.0,2.0,0.0,6.0,6.0,263.4672530111857,5.0,1.0,phase_2,go,200.0,0.0,1.0,,,,,,,,,blue,cross
0.0,4.0,4.0,0.0,6.0,6.0,391.8218609760515,5.0,1.0,phase_2,go,200.0,0.0,1.0,,,,,,,,,yellow,diamond
0.0,8.0,4.0,1.0,6.0,0.0,0.0,5.0,1.0,phase_2,stop,200.0,0.0,4.0,,,,,,,,,green,triangle
0.0,1.0,1.0,0.0,6.0,6.0,508.53517901850864,5.0,1.0,phase_2,go,200.0,50.0,1.0,,,,,,,,,white,flipped triangle
0.0,7.0,3.0,1.0,5.0,5.0,279.4846399920061,5.0,1.0,phase_2,stop,200.0,50.0,3.0,,,,,,,,,magenta,square
0.0,4.0,4.0,0.0,6.0,6.0,428.7367140059359,5.0,1.0,phase_2,go,150.0,50.0,1.0,,,,,,,,,yellow,diamond
0.0,8.0,4.0,1.0,6.0,0.0,0.0,5.0,1.0,phase_2,stop,150.0,50.0,4.0,,,,,,,,,green,triangle
0.0,3.0,3.0,0.0,6.0,6.0,483.7303879903629,5.0,1.0,phase_2,go,150.0,100.0,1.0,,,,,,,,,orange,hexagon
0.0,1.0,1.0,0.0,6.0,6.0,264.9039829848334,5.0,1.0,phase_2,go,150.0,100.0,1.0,,,,,,,,,white,flipped triangle
0.0,5.0,1.0,1.0,5.0,5.0,259.0175989898853,5.0,1.0,phase_2,stop,150.0,100.0,3.0,,,,,,,,,gray,I
0.0,2.0,2.0,0.0,5.0,5.0,288.7355079874396,5.0,1.0,phase_2,go,100.0,100.0,1.0,,,,,,,,,blue,cross
0.0,1.0,1.0,0.0,6.0,6.0,243.7148799654096,5.0,1.0,phase_2,go,100.0,100.0,1.0,,,,,,,,,white,flipped triangle
0.0,8.0,4.0,1.0,6.0,6.0,267.2110929852351,5.0,1.0,phase_2,stop,100.0,100.0,3.0,,,,,,,,,green,triangle
0.0,4.0,4.0,0.0,5.0,5.0,375.0610740389675,5.0,1.0,phase_2,go,100.0,50.0,1.0,,,,,,,,,yellow,diamond
0.0,8.0,4.0,1.0,5.0,0.0,0.0,5.0,1.0,phase_2,stop,100.0,50.0,4.0,,,,,,,,,green,triangle
0.0,3.0,3.0,0.0,5.0,6.0,343.9502259716391,5.0,1.0,phase_2,go,150.0,50.0,2.0,,,,,,,,,orange,hexagon
0.0,3.0,3.0,0.0,6.0,6.0,310.8154350193217,5.0,1.0,phase_2,go,150.0,50.0,1.0,,,,,,,,,orange,hexagon
0.0,3.0,3.0,0.0,6.0,6.0,326.8553439993411,5.0,1.0,phase_2,go,150.0,50.0,1.0,,,,,,,,,orange,hexagon
0.0,7.0,3.0,1.0,5.0,0.0,0.0,5.0,1.0,phase_2,stop,150.0,50.0,4.0,,,,,,,,,magenta,square
0.0,4.0,4.0,0.0,5.0,5.0,301.7058389959857,5.0,1.0,phase_2,go,200.0,50.0,1.0,,,,,,,,,yellow,diamond
0.0,4.0,4.0,0.0,6.0,6.0,291.1516460007988,5.0,1.0,phase_2,go,200.0,50.0,1.0,,,,,,,,,yellow,diamond
0.0,5.0,1.0,1.0,5.0,0.0,0.0,5.0,1.0,phase_2,stop,200.0,50.0,4.0,,,,,,,,,gray,I
0.0,7.0,3.0,1.0,6.0,6.0,249.6709229890257,5.0,1.0,phase_2,stop,250.0,50.0,3.0,,,,,,,,,magenta,square
0.0,7.0,3.0,1.0,5.0,5.0,227.4985040421597,5.0,1.0,phase_2,stop,250.0,0.0,3.0,,,,,,,,,magenta,square
0.0,3.0,3.0,0.0,5.0,5.0,723.1930559501052,6.0,1.0,phase_2,go,200.0,0.0,1.0,,,,,,,,,orange,hexagon
0.0,2.0,2.0,0.0,6.0,6.0,658.5967089631595,6.0,1.0,phase_2,go,200.0,0.0,1.0,,,,,,,,,blue,cross
0.0,2.0,2.0,0.0,6.0,6.0,500.8672309922986,6.0,1.0,phase_2,go,200.0,0.0,1.0,,,,,,,,,blue,cross
0.0,1.0,1.0,0.0,6.0,6.0,531.0974689782597,6.0,1.0,phase_2,go,200.0,0.0,1.0,,,,,,,,,white,flipped triangle
0.0,3.0,3.0,0.0,5.0,5.0,647.0725529943593,6.0,1.0,phase_2,go,200.0,0.0,1.0,,,,,,,,,orange,hexagon
0.0,7.0,3.0,1.0,6.0,0.0,0.0,6.0,1.0,phase_2,stop,200.0,0.0,4.0,,,,,,,,,magenta,square
0.0,6.0,2.0,1.0,6.0,0.0,0.0,6.0,1.0,phase_2,stop,200.0,50.0,4.0,,,,,,,,,cyan,circle
0.0,6.0,2.0,1.0,6.0,0.0,0.0,6.0,1.0,phase_2,stop,200.0,100.0,4.0,,,,,,,,,cyan,circle
0.0,7.0,3.0,1.0,6.0,6.0,541.4675059728324,6.0,1.0,phase_2,go,200.0,150.0,1.0,,,,,,,,,magenta,square
0.0,2.0,2.0,0.0,5.0,5.0,463.1023440160788,6.0,1.0,phase_2,go,200.0,150.0,1.0,,,,,,,,,blue,cross
0.0,7.0,3.0,1.0,5.0,0.0,0.0,6.0,1.0,phase_2,stop,200.0,150.0,4.0,,,,,,,,,magenta,square
0.0,4.0,4.0,0.0,5.0,5.0,557.253341015894,6.0,1.0,phase_2,go,250.0,150.0,1.0,,,,,,,,,yellow,diamond
0.0,2.0,2.0,0.0,6.0,6.0,581.6754660336301,6.0,1.0,phase_2,go,250.0,150.0,1.0,,,,,,,,,blue,cross
0.0,6.0,2.0,1.0,5.0,0.0,0.0,6.0,1.0,phase_2,stop,250.0,150.0,4.0,,,,,,,,,cyan,circle
0.0,8.0,4.0,1.0,5.0,5.0,561.4644509623758,6.0,1.0,phase_2,go,300.0,150.0,1.0,,,,,,,,,green,triangle
0.0,3.0,3.0,0.0,5.0,5.0,528.8094239658676,6.0,1.0,phase_2,go,300.0,150.0,1.0,,,,,,,,,orange,hexagon
0.0,2.0,2.0,0.0,5.0,5.0,624.3513090303168,6.0,1.0,phase_2,go,300.0,150.0,1.0,,,,,,,,,blue,cross
0.0,7.0,3.0,1.0,5.0,0.0,0.0,6.0,1.0,phase_2,stop,300.0,150.0,4.0,,,,,,,,,magenta,square
0.0,2.0,2.0,0.0,6.0,6.0,527.5784049881622,6.0,1.0,phase_2,go,350.0,150.0,1.0,,,,,,,,,blue,cross
0.0,1.0,1.0,0.0,5.0,5.0,504.97715699020773,6.0,1.0,phase_2,go,350.0,150.0,1.0,,,,,,,,,white,flipped triangle
0.0,1.0,1.0,0.0,5.0,5.0,569.234566995874,6.0,1.0,phase_2,go,350.0,150.0,1.0,,,,,,,,,white,flipped triangle
0.0,2.0,2.0,0.0,6.0,6.0,621.6789149912074,6.0,1.0,phase_2,go,350.0,150.0,1.0,,,,,,,,,blue,cross
0.0,1.0,1.0,0.0,6.0,6.0,606.759185960982,6.0,1.0,phase_2,go,350.0,150.0,1.0,,,,,,,,,white,flipped triangle
0.0,5.0,1.0,1.0,5.0,0.0,0.0,6.0,1.0,phase_2,stop,350.0,150.0,4.0,,,,,,,,,gray,I
0.0,8.0,4.0,1.0,5.0,5.0,571.9309720443562,6.0,1.0,phase_2,go,400.0,150.0,1.0,,,,,,,,,green,triangle
0.0,7.0,3.0,1.0,6.0,0.0,0.0,6.0,1.0,phase_2,stop,400.0,150.0,4.0,,,,,,,,,magenta,square
0.0,6.0,2.0,1.0,6.0,0.0,0.0,6.0,1.0,phase_2,stop,400.0,200.0,4.0,,,,,,,,,cyan,circle
0.0,7.0,3.0,1.0,5.0,0.0,0.0,6.0,1.0,phase_2,stop,400.0,250.0,4.0,,,,,,,,,magenta,square
0.0,2.0,2.0,0.0,5.0,5.0,453.1618719920516,6.0,1.0,phase_2,go,450.0,250.0,1.0,,,,,,,,,blue,cross
0.0,2.0,2.0,0.0,5.0,5.0,628.0473150545731,6.0,1.0,phase_2,go,450.0,250.0,1.0,,,,,,,,,blue,cross
0.0,1.0,1.0,0.0,5.0,5.0,769.0762749989517,6.0,1.0,phase_2,go,450.0,250.0,1.0,,,,,,,,,white,flipped triangle
0.0,1.0,1.0,0.0,6.0,6.0,594.4907229859382,6.0,1.0,phase_2,go,450.0,250.0,1.0,,,,,,,,,white,flipped triangle
0.0,4.0,4.0,0.0,6.0,6.0,488.5106149595231,6.0,1.0,phase_2,go,450.0,250.0,1.0,,,,,,,,,yellow,diamond
0.0,4.0,4.0,0.0,5.0,5.0,687.6487680128776,6.0,1.0,phase_2,go,450.0,250.0,1.0,,,,,,,,,yellow,diamond
0.0,5.0,1.0,1.0,6.0,0.0,0.0,6.0,1.0,phase_2,stop,450.0,250.0,4.0,,,,,,,,,gray,I
0.0,1.0,1.0,0.0,6.0,6.0,677.7028309879825,6.0,1.0,phase_2,go,450.0,300.0,1.0,,,,,,,,,white,flipped triangle
0.0,7.0,3.0,1.0,6.0,0.0,0.0,7.0,1.0,phase_2,stop,450.0,300.0,4.0,,,,,,,,,magenta,square
0.0,2.0,2.0,0.0,6.0,6.0,649.933622975368,7.0,1.0,phase_2,go,450.0,350.0,1.0,,,,,,,,,blue,cross
0.0,2.0,2.0,0.0,6.0,6.0,364.0400470467284,7.0,1.0,phase_2,go,450.0,350.0,1.0,,,,,,,,,blue,cross
0.0,6.0,2.0,1.0,6.0,0.0,0.0,7.0,1.0,phase_2,stop,450.0,350.0,4.0,,,,,,,,,cyan,circle
0.0,7.0,3.0,1.0,5.0,5.0,535.6364459730685,7.0,1.0,phase_2,stop,450.0,400.0,3.0,,,,,,,,,magenta,square
0.0,8.0,4.0,1.0,6.0,0.0,0.0,7.0,1.0,phase_2,stop,400.0,400.0,4.0,,,,,,,,,green,triangle
0.0,6.0,2.0,1.0,5.0,5.0,834.3830379890278,7.0,1.0,phase_2,go,400.0,450.0,1.0,,,,,,,,,cyan,circle
0.0,8.0,4.0,1.0,5.0,0.0,0.0,7.0,1.0,phase_2,stop,400.0,450.0,4.0,,,,,,,,,green,triangle
0.0,2.0,2.0,0.0,5.0,5.0,791.3342280080542,7.0,1.0,phase_2,go,450.0,450.0,1.0,,,,,,,,,blue,cross
0.0,1.0,1.0,0.0,5.0,5.0,1013.636443996802,7.0,1.0,phase_2,go,450.0,450.0,1.0,,,,,,,,,white,flipped triangle
0.0,2.0,2.0,0.0,5.0,5.0,807.3489450034685,7.0,1.0,phase_2,go,450.0,450.0,1.0,,,,,,,,,blue,cross
0.0,2.0,2.0,0.0,6.0,6.0,638.5089199757203,7.0,1.0,phase_2,go,450.0,450.0,1.0,,,,,,,,,blue,cross
0.0,7.0,3.0,1.0,5.0,5.0,363.2431080332026,7.0,1.0,phase_2,go,450.0,450.0,1.0,,,,,,,,,magenta,square
0.0,3.0,3.0,0.0,6.0,6.0,661.9320279569365,7.0,1.0,phase_2,go,450.0,450.0,1.0,,,,,,,,,orange,hexagon
0.0,4.0,4.0,0.0,6.0,6.0,642.2848899965174,7.0,1.0,phase_2,go,450.0,450.0,1.0,,,,,,,,,yellow,diamond
0.0,8.0,4.0,1.0,5.0,0.0,0.0,7.0,1.0,phase_2,stop,450.0,450.0,4.0,,,,,,,,,green,triangle
0.0,4.0,4.0,0.0,6.0,6.0,516.2949170335196,7.0,1.0,phase_2,go,500.0,450.0,1.0,,,,,,,,,yellow,diamond
0.0,4.0,4.0,0.0,5.0,5.0,656.6985319950618,7.0,1.0,phase_2,go,500.0,450.0,1.0,,,,,,,,,yellow,diamond
0.0,2.0,2.0,0.0,5.0,5.0,651.3189050019719,7.0,1.0,phase_2,go,500.0,450.0,1.0,,,,,,,,,blue,cross
0.0,7.0,3.0,1.0,5.0,5.0,561.6016730200499,7.0,1.0,phase_2,go,500.0,450.0,1.0,,,,,,,,,magenta,square
0.0,6.0,2.0,1.0,6.0,0.0,0.0,7.0,1.0,phase_2,stop,500.0,450.0,4.0,,,,,,,,,cyan,circle
0.0,2.0,2.0,0.0,6.0,6.0,720.532163977623,7.0,1.0,phase_2,go,500.0,500.0,1.0,,,,,,,,,blue,cross
0.0,3.0,3.0,0.0,5.0,5.0,671.8220649636351,7.0,1.0,phase_2,go,500.0,500.0,1.0,,,,,,,,,orange,hexagon
0.0,1.0,1.0,0.0,6.0,6.0,919.9819919886068,7.0,1.0,phase_2,go,500.0,500.0,1.0,,,,,,,,,white,flipped triangle
0.0,5.0,1.0,1.0,6.0,0.0,0.0,7.0,1.0,phase_2,stop,500.0,500.0,4.0,,,,,,,,,gray,I
0.0,3.0,3.0,0.0,6.0,6.0,655.825118010398,7.0,1.0,phase_2,go,500.0,550.0,1.0,,,,,,,,,orange,hexagon
0.0,5.0,1.0,1.0,6.0,6.0,670.4419210436754,7.0,1.0,phase_2,stop,500.0,550.0,3.0,,,,,,,,,gray,I
0.0,3.0,3.0,0.0,5.0,5.0,379.5283060171641,7.0,1.0,phase_2,go,500.0,500.0,1.0,,,,,,,,,orange,hexagon
0.0,1.0,1.0,0.0,5.0,5.0,723.6301059601828,7.0,1.0,phase_2,go,500.0,500.0,1.0,,,,,,,,,white,flipped triangle
0.0,5.0,1.0,1.0,6.0,6.0,493.4920860105194,7.0,1.0,phase_2,stop,500.0,500.0,3.0,,,,,,,,,gray,I
0.0,4.0,4.0,0.0,6.0,6.0,529.4879670254886,7.0,1.0,phase_2,go,500.0,450.0,1.0,,,,,,,,,yellow,diamond
0.0,3.0,3.0,0.0,6.0,6.0,568.9716429915279,7.0,1.0,phase_2,go,500.0,450.0,1.0,,,,,,,,,orange,hexagon
0.0,6.0,2.0,1.0,5.0,5.0,347.4911650409922,7.0,1.0,phase_2,stop,500.0,450.0,3.0,,,,,,,,,cyan,circle
0.0,8.0,4.0,1.0,6.0,6.0,559.8699640249833,7.0,1.0,phase_2,go,450.0,450.0,1.0,,,,,,,,,green,triangle
0.0,1.0,1.0,0.0,5.0,5.0,534.9541429895908,7.0,1.0,phase_2,go,450.0,450.0,1.0,,,,,,,,,white,flipped triangle
0.0,2.0,2.0,0.0,6.0,6.0,535.3208410087973,7.0,1.0,phase_2,go,450.0,450.0,1.0,,,,,,,,,blue,cross
0.0,5.0,1.0,1.0,6.0,6.0,554.7297850134782,8.0,1.0,phase_2,go,450.0,450.0,1.0,,,,,,,,,gray,I
0.0,7.0,3.0,1.0,6.0,6.0,559.1585779911838,8.0,1.0,phase_2,stop,450.0,450.0,3.0,,,,,,,,,magenta,square
0.0,4.0,4.0,0.0,6.0,6.0,593.1323349941522,8.0,1.0,phase_2,go,450.0,400.0,1.0,,,,,,,,,yellow,diamond
0.0,6.0,2.0,1.0,6.0,0.0,0.0,8.0,1.0,phase_2,stop,450.0,400.0,4.0,,,,,,,,,cyan,circle
0.0,8.0,4.0,1.0,5.0,5.0,296.4778589666821,8.0,1.0,phase_2,stop,450.0,450.0,3.0,,,,,,,,,green,triangle
0.0,4.0,4.0,0.0,6.0,6.0,542.2449799953029,8.0,1.0,phase_2,go,400.0,450.0,1.0,,,,,,,,,yellow,diamond
0.0,8.0,4.0,1.0,6.0,0.0,0.0,8.0,1.0,phase_2,stop,400.0,450.0,4.0,,,,,,,,,green,triangle
0.0,1.0,1.0,0.0,6.0,6.0,493.8771769520826,8.0,1.0,phase_2,go,400.0,500.0,1.0,,,,,,,,,white,flipped triangle
0.0,2.0,2.0,0.0,5.0,5.0,547.1677469904535,8.0,1.0,phase_2,go,400.0,500.0,1.0,,,,,,,,,blue,cross
0.0,1.0,1.0,0.0,5.0,5.0,620.3737730393186,8.0,1.0,phase_2,go,400.0,500.0,1.0,,,,,,,,,white,flipped triangle
0.0,6.0,2.0,1.0,5.0,0.0,0.0,8.0,1.0,phase_2,stop,400.0,500.0,4.0,,,,,,,,,cyan,circle
0.0,1.0,1.0,0.0,6.0,6.0,572.7932369918562,8.0,1.0,phase_2,go,450.0,500.0,1.0,,,,,,,,,white,flipped triangle
0.0,6.0,2.0,1.0,5.0,0.0,0.0,8.0,1.0,phase_2,stop,450.0,500.0,4.0,,,,,,,,,cyan,circle
0.0,1.0,1.0,0.0,5.0,5.0,787.6532149966806,8.0,1.0,phase_2,go,500.0,500.0,1.0,,,,,,,,,white,flipped triangle
0.0,6.0,2.0,1.0,5.0,0.0,0.0,8.0,1.0,phase_2,stop,500.0,500.0,4.0,,,,,,,,,cyan,circle
0.0,4.0,4.0,0.0,5.0,5.0,919.3204379989766,8.0,1.0,phase_2,go,550.0,500.0,1.0,,,,,,,,,yellow,diamond
0.0,8.0,4.0,1.0,5.0,5.0,571.7415480175987,8.0,1.0,phase_2,stop,550.0,500.0,3.0,,,,,,,,,green,triangle
0.0,4.0,4.0,0.0,5.0,5.0,1023.2473840005696,8.0,1.0,phase_2,go,500.0,500.0,1.0,,,,,,,,,yellow,diamond
0.0,5.0,1.0,1.0,6.0,0.0,0.0,8.0,1.0,phase_2,stop,500.0,500.0,4.0,,,,,,,,,gray,I
0.0,5.0,1.0,1.0,5.0,5.0,855.4961429908872,8.0,1.0,phase_2,go,500.0,550.0,1.0,,,,,,,,,gray,I
0.0,2.0,2.0,0.0,5.0,5.0,972.4832639913076,8.0,1.0,phase_2,go,500.0,550.0,1.0,,,,,,,,,blue,cross
0.0,3.0,3.0,0.0,5.0,5.0,868.7991419574246,8.0,1.0,phase_2,go,500.0,550.0,1.0,,,,,,,,,orange,hexagon
0.0,6.0,2.0,1.0,5.0,0.0,0.0,8.0,1.0,phase_2,stop,500.0,550.0,4.0,,,,,,,,,cyan,circle
0.0,7.0,3.0,1.0,6.0,6.0,650.6861579837278,8.0,1.0,phase_2,stop,550.0,550.0,3.0,,,,,,,,,magenta,square
0.0,4.0,4.0,0.0,5.0,5.0,706.3313529943116,8.0,1.0,phase_2,go,550.0,500.0,1.0,,,,,,,,,yellow,diamond
0.0,1.0,1.0,0.0,6.0,6.0,1277.061760018114,8.0,1.0,phase_2,go,550.0,500.0,1.0,,,,,,,,,white,flipped triangle
0.0,3.0,3.0,0.0,5.0,5.0,781.2170970137231,8.0,1.0,phase_2,go,550.0,500.0,1.0,,,,,,,,,orange,hexagon
0.0,4.0,4.0,0.0,5.0,5.0,826.4145890134387,8.0,1.0,phase_2,go,550.0,500.0,1.0,,,,,,,,,yellow,diamond
0.0,6.0,2.0,1.0,6.0,6.0,1152.090275019873,8.0,1.0,phase_2,go,550.0,500.0,1.0,,,,,,,,,cyan,circle
0.0,8.0,4.0,1.0,6.0,0.0,0.0,8.0,1.0,phase_2,stop,550.0,500.0,4.0,,,,,,,,,green,triangle
0.0,5.0,1.0,1.0,5.0,5.0,761.6347650182433,8.0,1.0,phase_2,go,550.0,550.0,1.0,,,,,,,,,gray,I
0.0,2.0,2.0,0.0,5.0,5.0,1048.471356974915,8.0,1.0,phase_2,go,550.0,550.0,1.0,,,,,,,,,blue,cross
0.0,6.0,2.0,1.0,6.0,6.0,749.7399889980443,8.0,1.0,phase_2,go,550.0,550.0,1.0,,,,,,,,,cyan,circle
0.0,5.0,1.0,1.0,5.0,0.0,0.0,8.0,1.0,phase_2,stop,550.0,550.0,4.0,,,,,,,,,gray,I
0.0,6.0,2.0,1.0,6.0,0.0,0.0,8.0,1.0,phase_2,stop,600.0,550.0,4.0,,,,,,,,,cyan,circle
0.0,6.0,2.0,1.0,5.0,5.0,800.0748510239646,8.0,1.0,phase_2,go,600.0,600.0,1.0,,,,,,,,,cyan,circle
0.0,1.0,1.0,0.0,7.0,1.0,1724.7592540225014,1.0,2.0,phase_3,,,,,68.0,2.0,68.0,34.0,102.0,170.0,204.0,136.0,white,flipped triangle
0.0,3.0,3.0,0.0,7.0,2.0,2379.448520950973,1.0,1.0,phase_3,,,,,195.0,5.0,117.0,195.0,39.0,156.0,234.0,78.0,orange,hexagon
0.0,4.0,4.0,0.0,7.0,5.0,1860.573114012368,1.0,1.0,phase_3,,,,,204.0,6.0,170.0,102.0,136.0,34.0,204.0,68.0,yellow,diamond
0.0,5.0,1.0,1.0,7.0,1.0,1399.801234016195,1.0,1.0,phase_3,,,,,34.0,1.0,34.0,204.0,102.0,170.0,136.0,68.0,gray,I
0.0,4.0,4.0,0.0,7.0,2.0,2321.697052975651,1.0,1.0,phase_3,,,,,170.0,5.0,204.0,170.0,34.0,68.0,102.0,136.0,yellow,diamond
0.0,4.0,4.0,0.0,7.0,5.0,1883.4997180383648,1.0,1.0,phase_3,,,,,176.0,4.0,220.0,132.0,88.0,44.0,176.0,264.0,yellow,diamond
0.0,7.0,3.0,1.0,7.0,2.0,2500.541012035683,1.0,1.0,phase_3,,,,,245.0,5.0,49.0,245.0,196.0,98.0,294.0,147.0,magenta,square
0.0,6.0,2.0,1.0,7.0,1.0,2870.726252964232,1.0,1.0,phase_3,,,,,147.0,3.0,147.0,49.0,196.0,294.0,98.0,245.0,cyan,circle
0.0,7.0,3.0,1.0,7.0,4.0,2535.223233047873,1.0,1.0,phase_3,,,,,264.0,6.0,176.0,220.0,44.0,264.0,132.0,88.0,magenta,square
0.0,7.0,3.0,1.0,7.0,2.0,3078.117403027136,1.0,1.0,phase_3,,,,,170.0,5.0,204.0,170.0,34.0,68.0,102.0,136.0,magenta,square
0.0,2.0,2.0,0.0,7.0,5.0,2385.3018209920265,1.0,1.0,phase_3,,,,,136.0,4.0,170.0,102.0,68.0,204.0,136.0,34.0,blue,cross
0.0,6.0,2.0,1.0,7.0,5.0,2933.003045036457,1.0,1.0,phase_3,,,,,117.0,3.0,78.0,39.0,234.0,195.0,117.0,156.0,cyan,circle
0.0,8.0,4.0,1.0,7.0,1.0,2732.897911046166,1.0,1.0,phase_3,,,,,176.0,4.0,176.0,132.0,44.0,220.0,264.0,88.0,green,triangle
0.0,5.0,1.0,1.0,7.0,4.0,1779.660147964023,1.0,1.0,phase_3,,,,,44.0,1.0,88.0,132.0,220.0,44.0,176.0,264.0,gray,I
0.0,8.0,4.0,1.0,7.0,3.0,2348.998305969872,1.0,1.0,phase_3,,,,,270.0,5.0,216.0,324.0,270.0,54.0,162.0,108.0,green,triangle
0.0,6.0,2.0,1.0,7.0,3.0,3072.806040989235,1.0,1.0,phase_3,,,,,132.0,3.0,44.0,88.0,132.0,264.0,220.0,176.0,cyan,circle
0.0,6.0,2.0,1.0,7.0,3.0,3369.353870046325,1.0,1.0,phase_3,,,,,132.0,3.0,176.0,264.0,132.0,88.0,44.0,220.0,cyan,circle
0.0,3.0,3.0,0.0,7.0,3.0,2977.510521013756,1.0,1.0,phase_3,,,,,324.0,6.0,108.0,270.0,324.0,216.0,54.0,162.0,orange,hexagon
0.0,4.0,4.0,0.0,7.0,1.0,3131.061137013603,1.0,1.0,phase_3,,,,,196.0,4.0,196.0,294.0,49.0,98.0,147.0,245.0,yellow,diamond
0.0,4.0,4.0,0.0,7.0,3.0,3279.087739996612,1.0,1.0,phase_3,,,,,156.0,4.0,39.0,78.0,156.0,195.0,234.0,117.0,yellow,diamond
0.0,7.0,3.0,1.0,7.0,1.0,2225.213281984906,2.0,1.0,phase_3,,,,,156.0,4.0,156.0,195.0,78.0,117.0,39.0,234.0,magenta,square
0.0,1.0,1.0,0.0,7.0,1.0,4149.4287139503285,2.0,1.0,phase_3,,,,,78.0,2.0,78.0,39.0,117.0,195.0,156.0,234.0,white,flipped triangle
0.0,6.0,2.0,1.0,7.0,2.0,2781.428235990461,2.0,1.0,phase_3,,,,,162.0,3.0,216.0,162.0,270.0,108.0,54.0,324.0,cyan,circle
0.0,5.0,1.0,1.0,7.0,6.0,2013.287189998664,2.0,1.0,phase_3,,,,,39.0,1.0,78.0,156.0,195.0,117.0,234.0,39.0,gray,I
0.0,1.0,1.0,0.0,7.0,3.0,3431.543931015767,2.0,1.0,phase_3,,,,,68.0,2.0,170.0,34.0,68.0,102.0,204.0,136.0,white,flipped triangle
0.0,6.0,2.0,1.0,7.0,1.0,2471.894551999867,2.0,1.0,phase_3,,,,,147.0,3.0,147.0,196.0,245.0,294.0,98.0,49.0,cyan,circle
0.0,3.0,3.0,0.0,7.0,4.0,1652.11902896408,2.0,1.0,phase_3,,,,,245.0,5.0,196.0,294.0,147.0,245.0,49.0,98.0,orange,hexagon
0.0,3.0,3.0,0.0,7.0,2.0,2181.939853995573,2.0,1.0,phase_3,,,,,204.0,6.0,170.0,204.0,102.0,34.0,68.0,136.0,orange,hexagon
0.0,3.0,3.0,0.0,7.0,5.0,1981.4746750053016,2.0,1.0,phase_3,,,,,170.0,5.0,136.0,68.0,34.0,102.0,170.0,204.0,orange,hexagon
0.0,5.0,1.0,1.0,7.0,5.0,2118.623929040041,2.0,1.0,phase_3,,,,,44.0,1.0,264.0,176.0,88.0,132.0,44.0,220.0,gray,I
0.0,4.0,4.0,0.0,7.0,6.0,1920.7048829994164,2.0,1.0,phase_3,,,,,270.0,5.0,108.0,216.0,54.0,324.0,162.0,270.0,yellow,diamond
0.0,3.0,3.0,0.0,7.0,3.0,2663.887149014045,2.0,1.0,phase_3,,,,,245.0,5.0,294.0,98.0,245.0,147.0,196.0,49.0,orange,hexagon
0.0,2.0,2.0,0.0,7.0,4.0,2048.7994109862484,2.0,1.0,phase_3,,,,,176.0,4.0,44.0,88.0,264.0,176.0,220.0,132.0,blue,cross
0.0,8.0,4.0,1.0,7.0,6.0,3683.997020998504,2.0,1.0,phase_3,,,,,170.0,5.0,68.0,34.0,136.0,102.0,204.0,170.0,green,triangle
0.0,7.0,3.0,1.0,7.0,6.0,3868.337413005065,2.0,1.0,phase_3,,,,,170.0,5.0,68.0,102.0,136.0,34.0,204.0,170.0,magenta,square
0.0,8.0,4.0,1.0,7.0,1.0,2222.077380982228,2.0,1.0,phase_3,,,,,132.0,3.0,132.0,220.0,44.0,88.0,264.0,176.0,green,triangle
0.0,5.0,1.0,1.0,7.0,6.0,960.1434509968384,2.0,1.0,phase_3,,,,,49.0,1.0,98.0,294.0,245.0,147.0,196.0,49.0,gray,I
0.0,8.0,4.0,1.0,7.0,2.0,2587.3983309720643,2.0,1.0,phase_3,,,,,245.0,5.0,147.0,245.0,98.0,49.0,294.0,196.0,green,triangle
0.0,6.0,2.0,1.0,7.0,5.0,2194.471533992328,2.0,1.0,phase_3,,,,,195.0,5.0,234.0,156.0,39.0,78.0,195.0,117.0,cyan,circle
0.0,7.0,3.0,1.0,7.0,2.0,3404.9993160297163,2.0,1.0,phase_3,,,,,196.0,4.0,294.0,196.0,245.0,147.0,49.0,98.0,magenta,square
0.0,8.0,4.0,1.0,7.0,5.0,1779.8587629804388,3.0,1.0,phase_3,,,,,170.0,5.0,34.0,68.0,102.0,136.0,170.0,204.0,green,triangle
0.0,5.0,1.0,1.0,7.0,3.0,2333.175967040006,3.0,1.0,phase_3,,,,,108.0,2.0,270.0,54.0,108.0,216.0,324.0,162.0,gray,I
0.0,7.0,3.0,1.0,7.0,2.0,3200.328538019676,3.0,1.0,phase_3,,,,,270.0,5.0,324.0,270.0,216.0,108.0,54.0,162.0,magenta,square
0.0,8.0,4.0,1.0,7.0,6.0,2536.4849920151755,3.0,1.0,phase_3,,,,,156.0,4.0,234.0,117.0,195.0,78.0,39.0,156.0,green,triangle
0.0,3.0,3.0,0.0,7.0,6.0,2977.3201920324937,3.0,1.0,phase_3,,,,,176.0,4.0,220.0,44.0,88.0,264.0,132.0,176.0,orange,hexagon
0.0,1.0,1.0,0.0,7.0,1.0,2114.802072988823,3.0,1.0,phase_3,,,,,162.0,3.0,162.0,270.0,108.0,324.0,54.0,216.0,white,flipped triangle
0.0,6.0,2.0,1.0,7.0,3.0,2981.981344986707,3.0,1.0,phase_3,,,,,170.0,5.0,102.0,68.0,170.0,34.0,204.0,136.0,cyan,circle
0.0,3.0,3.0,0.0,7.0,2.0,2604.5710560283624,3.0,1.0,phase_3,,,,,156.0,4.0,39.0,156.0,78.0,195.0,117.0,234.0,orange,hexagon
0.0,2.0,2.0,0.0,7.0,4.0,3055.39296194911,3.0,1.0,phase_3,,,,,176.0,4.0,264.0,220.0,132.0,176.0,44.0,88.0,blue,cross
0.0,2.0,2.0,0.0,7.0,4.0,2238.247487985064,3.0,1.0,phase_3,,,,,147.0,3.0,294.0,49.0,98.0,147.0,196.0,245.0,blue,cross
0.0,1.0,1.0,0.0,7.0,6.0,1921.3855980196968,3.0,1.0,phase_3,,,,,98.0,2.0,245.0,49.0,196.0,294.0,147.0,98.0,white,flipped triangle
0.0,5.0,1.0,1.0,7.0,1.0,2897.6523249875754,3.0,1.0,phase_3,,,,,98.0,2.0,98.0,294.0,147.0,196.0,49.0,245.0,gray,I
0.0,2.0,2.0,0.0,7.0,2.0,2530.4400520399213,3.0,1.0,phase_3,,,,,162.0,3.0,54.0,162.0,324.0,270.0,108.0,216.0,blue,cross
0.0,1.0,1.0,0.0,7.0,2.0,3477.6122150360607,3.0,1.0,phase_3,,,,,176.0,4.0,44.0,176.0,220.0,132.0,88.0,264.0,white,flipped triangle
0.0,1.0,1.0,0.0,7.0,4.0,1294.3204610492105,3.0,1.0,phase_3,,,,,98.0,2.0,147.0,196.0,49.0,98.0,245.0,294.0,white,flipped triangle
0.0,7.0,3.0,1.0,7.0,2.0,2678.2604559557512,3.0,1.0,phase_3,,,,,195.0,5.0,117.0,195.0,234.0,39.0,156.0,78.0,magenta,square
0.0,1.0,1.0,0.0,7.0,6.0,3747.7860919898376,3.0,1.0,phase_3,,,,,108.0,2.0,324.0,162.0,216.0,54.0,270.0,108.0,white,flipped triangle
0.0,7.0,3.0,1.0,7.0,3.0,3409.7303510061465,3.0,1.0,phase_3,,,,,216.0,4.0,162.0,108.0,216.0,270.0,324.0,54.0,magenta,square
0.0,7.0,3.0,1.0,7.0,2.0,2693.720676994417,3.0,1.0,phase_3,,,,,220.0,5.0,88.0,220.0,44.0,132.0,176.0,264.0,magenta,square
0.0,8.0,4.0,1.0,7.0,6.0,2757.753618003335,3.0,1.0,phase_3,,,,,196.0,4.0,294.0,49.0,245.0,98.0,147.0,196.0,green,triangle
0.0,5.0,1.0,1.0,7.0,2.0,1643.8770410022698,4.0,1.0,phase_3,,,,,68.0,2.0,136.0,68.0,102.0,34.0,204.0,170.0,gray,I
0.0,2.0,2.0,0.0,7.0,1.0,2936.7628369946037,4.0,1.0,phase_3,,,,,196.0,4.0,196.0,294.0,245.0,49.0,98.0,147.0,blue,cross
0.0,3.0,3.0,0.0,7.0,1.0,3208.2481419784017,4.0,1.0,phase_3,,,,,270.0,5.0,270.0,54.0,108.0,216.0,162.0,324.0,orange,hexagon
0.0,4.0,4.0,0.0,7.0,3.0,3672.910835011862,4.0,1.0,phase_3,,,,,176.0,4.0,220.0,44.0,176.0,88.0,132.0,264.0,yellow,diamond
0.0,2.0,2.0,0.0,7.0,6.0,3092.0608430169523,4.0,1.0,phase_3,,,,,102.0,3.0,170.0,68.0,34.0,204.0,136.0,102.0,blue,cross
0.0,3.0,3.0,0.0,7.0,3.0,2292.809450009372,4.0,1.0,phase_3,,,,,264.0,6.0,220.0,88.0,264.0,176.0,44.0,132.0,orange,hexagon
0.0,6.0,2.0,1.0,7.0,2.0,2140.4141430393797,4.0,1.0,phase_3,,,,,102.0,3.0,170.0,102.0,68.0,34.0,136.0,204.0,cyan,circle
0.0,5.0,1.0,1.0,7.0,2.0,2661.4450269844383,4.0,1.0,phase_3,,,,,54.0,1.0,270.0,54.0,162.0,216.0,108.0,324.0,gray,I
0.0,4.0,4.0,0.0,7.0,1.0,3479.2530320119117,4.0,1.0,phase_3,,,,,270.0,5.0,270.0,162.0,216.0,324.0,108.0,54.0,yellow,diamond
0.0,2.0,2.0,0.0,7.0,1.0,2944.245950027834,4.0,1.0,phase_3,,,,,216.0,4.0,216.0,54.0,270.0,324.0,108.0,162.0,blue,cross
0.0,2.0,2.0,0.0,7.0,1.0,2169.5669990149327,4.0,1.0,phase_3,,,,,195.0,5.0,195.0,156.0,117.0,39.0,78.0,234.0,blue,cross
0.0,4.0,4.0,0.0,7.0,6.0,3699.515648011584,4.0,1.0,phase_3,,,,,147.0,3.0,49.0,196.0,98.0,294.0,245.0,147.0,yellow,diamond
0.0,8.0,4.0,1.0,7.0,2.0,2463.4560959530063,4.0,1.0,phase_3,,,,,270.0,5.0,324.0,270.0,162.0,54.0,108.0,216.0,green,triangle
0.0,6.0,2.0,1.0,7.0,6.0,4537.81234199414,4.0,1.0,phase_3,,,,,108.0,2.0,270.0,162.0,324.0,54.0,216.0,108.0,cyan,circle
0.0,2.0,2.0,0.0,7.0,6.0,2727.202484966256,4.0,1.0,phase_3,,,,,195.0,5.0,117.0,234.0,156.0,39.0,78.0,195.0,blue,cross
0.0,1.0,1.0,0.0,7.0,1.0,1706.548097950872,4.0,1.0,phase_3,,,,,88.0,2.0,88.0,220.0,176.0,44.0,264.0,132.0,white,flipped triangle
0.0,1.0,1.0,0.0,7.0,6.0,3107.802913989872,4.0,1.0,phase_3,,,,,117.0,3.0,234.0,78.0,195.0,156.0,39.0,117.0,white,flipped triangle
0.0,5.0,1.0,1.0,7.0,6.0,2540.6629029894248,4.0,1.0,phase_3,,,,,39.0,1.0,156.0,117.0,195.0,78.0,234.0,39.0,gray,I
0.0,4.0,4.0,0.0,7.0,4.0,1885.9677109867332,4.0,1.0,phase_3,,,,,156.0,4.0,78.0,195.0,117.0,156.0,39.0,234.0,yellow,diamond
0.0,8.0,4.0,1.0,7.0,1.0,2313.369502022397,4.0,1.0,phase_3,,,,,156.0,4.0,156.0,117.0,78.0,39.0,234.0,195.0,green,triangle
