raw_reward_magnitude,stim_reward,stepwise_reward_magnitude,paired_with_stopping,stim_location,response,reaction_time,block,num_trial_presentations,which_phase,stop_signal_trial_type,left_SSD,right_SSD,accuracy,chosen_bidding_amount,chosen_bidding_level,possible_bid_1,possible_bid_2,possible_bid_3,possible_bid_4,possible_bid_5,possible_bid_6,color_text,shape_text
398.0,4.0,4.0,0.0,1.0,1.0,325.9881859994493,1.0,1.0,phase_1,,,,,,,,,,,,,magenta,flipped triangle
122.0,2.0,1.0,0.0,4.0,4.0,303.5801370278932,1.0,1.0,phase_1,,,,,,,,,,,,,orange,diamond
0.0,4.0,0.0,0.0,4.0,4.0,336.1639259965159,1.0,1.0,phase_1,,,,,,,,,,,,,magenta,flipped triangle
0.0,1.0,0.0,0.0,1.0,1.0,300.5970870144665,1.0,1.0,phase_1,,,,,,,,,,,,,green,circle
0.0,7.0,0.0,1.0,4.0,4.0,295.3767299768515,1.0,1.0,phase_1,,,,,,,,,,,,,cyan,triangle
202.0,7.0,2.0,1.0,1.0,1.0,282.6649600174278,1.0,1.0,phase_1,,,,,,,,,,,,,cyan,triangle
83.0,6.0,1.0,1.0,1.0,1.0,278.5418040002696,1.0,1.0,phase_1,,,,,,,,,,,,,blue,hexagon
42.0,5.0,0.5,1.0,3.0,3.0,315.1854369789362,1.0,2.0,phase_1,,,,,,,,,,,,,yellow,cross
0.0,1.0,0.0,0.0,3.0,3.0,352.9695449979044,1.0,1.0,phase_1,,,,,,,,,,,,,green,circle
108.0,2.0,1.0,0.0,1.0,1.0,282.1680459892377,1.0,1.0,phase_1,,,,,,,,,,,,,orange,diamond
378.0,4.0,4.0,0.0,2.0,2.0,344.4312370265834,1.0,1.0,phase_1,,,,,,,,,,,,,magenta,flipped triangle
31.0,1.0,0.5,0.0,4.0,4.0,261.5996199892834,1.0,1.0,phase_1,,,,,,,,,,,,,green,circle
37.0,5.0,0.5,1.0,2.0,2.0,327.2739599924534,1.0,1.0,phase_1,,,,,,,,,,,,,yellow,cross
0.0,3.0,0.0,0.0,4.0,4.0,528.0295690172352,1.0,1.0,phase_1,,,,,,,,,,,,,gray,I
204.0,7.0,2.0,1.0,4.0,4.0,313.8268189504742,1.0,1.0,phase_1,,,,,,,,,,,,,cyan,triangle
67.0,1.0,0.5,0.0,1.0,1.0,349.452513968572,1.0,1.0,phase_1,,,,,,,,,,,,,green,circle
54.0,5.0,0.5,1.0,3.0,3.0,274.1716660093516,1.0,1.0,phase_1,,,,,,,,,,,,,yellow,cross
89.0,6.0,1.0,1.0,1.0,1.0,290.2788349892944,1.0,1.0,phase_1,,,,,,,,,,,,,blue,hexagon
89.0,2.0,1.0,0.0,2.0,2.0,422.0382630010135,1.0,1.0,phase_1,,,,,,,,,,,,,orange,diamond
416.0,4.0,4.0,0.0,4.0,4.0,323.7263999762945,1.0,1.0,phase_1,,,,,,,,,,,,,magenta,flipped triangle
399.0,8.0,4.0,1.0,1.0,1.0,236.9263980071991,1.0,1.0,phase_1,,,,,,,,,,,,,white,square
0.0,8.0,0.0,1.0,3.0,3.0,297.8490279638208,1.0,1.0,phase_1,,,,,,,,,,,,,white,square
30.0,1.0,0.5,0.0,4.0,4.0,384.8921899916604,1.0,1.0,phase_1,,,,,,,,,,,,,green,circle
0.0,3.0,0.0,0.0,3.0,3.0,355.2146389847621,1.0,1.0,phase_1,,,,,,,,,,,,,gray,I
0.0,3.0,0.0,0.0,2.0,2.0,459.7213510423898,1.0,1.0,phase_1,,,,,,,,,,,,,gray,I
213.0,7.0,2.0,1.0,4.0,4.0,279.4508009683341,1.0,1.0,phase_1,,,,,,,,,,,,,cyan,triangle
80.0,2.0,1.0,0.0,3.0,3.0,306.0184149653651,1.0,1.0,phase_1,,,,,,,,,,,,,orange,diamond
182.0,7.0,2.0,1.0,1.0,1.0,266.0648129531182,1.0,1.0,phase_1,,,,,,,,,,,,,cyan,triangle
191.0,7.0,2.0,1.0,3.0,3.0,324.7836119844578,1.0,1.0,phase_1,,,,,,,,,,,,,cyan,triangle
412.0,8.0,4.0,1.0,4.0,4.0,287.5134189962409,1.0,1.0,phase_1,,,,,,,,,,,,,white,square
200.0,3.0,2.0,0.0,3.0,3.0,307.7128700097091,1.0,1.0,phase_1,,,,,,,,,,,,,gray,I
384.0,8.0,4.0,1.0,3.0,3.0,283.9848089497536,1.0,1.0,phase_1,,,,,,,,,,,,,white,square
118.0,2.0,1.0,0.0,4.0,4.0,279.493702983018,1.0,1.0,phase_1,,,,,,,,,,,,,orange,diamond
124.0,2.0,1.0,0.0,2.0,2.0,324.1345250280574,1.0,1.0,phase_1,,,,,,,,,,,,,orange,diamond
422.0,4.0,4.0,0.0,1.0,1.0,329.7710659680888,1.0,1.0,phase_1,,,,,,,,,,,,,magenta,flipped triangle
61.0,1.0,0.5,0.0,2.0,2.0,269.8059139656834,1.0,1.0,phase_1,,,,,,,,,,,,,green,circle
103.0,6.0,1.0,1.0,3.0,3.0,297.8335240040906,1.0,1.0,phase_1,,,,,,,,,,,,,blue,hexagon
87.0,6.0,1.0,1.0,4.0,4.0,352.4799239821732,1.0,1.0,phase_1,,,,,,,,,,,,,blue,hexagon
94.0,2.0,1.0,0.0,2.0,2.0,331.6059760400094,1.0,1.0,phase_1,,,,,,,,,,,,,orange,diamond
419.0,8.0,4.0,1.0,3.0,3.0,305.7796889916062,1.0,1.0,phase_1,,,,,,,,,,,,,white,square
121.0,2.0,1.0,0.0,2.0,2.0,314.5866149570793,1.0,1.0,phase_1,,,,,,,,,,,,,orange,diamond
48.0,1.0,0.5,0.0,3.0,3.0,331.6438689944334,1.0,1.0,phase_1,,,,,,,,,,,,,green,circle
53.0,5.0,0.5,1.0,2.0,2.0,324.2293009534478,1.0,1.0,phase_1,,,,,,,,,,,,,yellow,cross
188.0,7.0,2.0,1.0,3.0,3.0,309.103661973495,1.0,1.0,phase_1,,,,,,,,,,,,,cyan,triangle
87.0,2.0,1.0,0.0,2.0,2.0,270.4471920151263,1.0,1.0,phase_1,,,,,,,,,,,,,orange,diamond
416.0,8.0,4.0,1.0,4.0,4.0,315.256978967227,1.0,1.0,phase_1,,,,,,,,,,,,,white,square
0.0,2.0,0.0,0.0,1.0,1.0,336.7466520285234,1.0,1.0,phase_1,,,,,,,,,,,,,orange,diamond
385.0,4.0,4.0,0.0,4.0,4.0,324.361625011079,1.0,1.0,phase_1,,,,,,,,,,,,,magenta,flipped triangle
53.0,5.0,0.5,1.0,4.0,4.0,344.9254669831134,1.0,1.0,phase_1,,,,,,,,,,,,,yellow,cross
205.0,7.0,2.0,1.0,2.0,2.0,295.4922509961761,1.0,1.0,phase_1,,,,,,,,,,,,,cyan,triangle
216.0,3.0,2.0,0.0,4.0,4.0,299.7798439464532,1.0,1.0,phase_1,,,,,,,,,,,,,gray,I
72.0,5.0,0.5,1.0,1.0,1.0,295.1898679602891,1.0,1.0,phase_1,,,,,,,,,,,,,yellow,cross
0.0,3.0,0.0,0.0,3.0,3.0,298.8498670165427,1.0,1.0,phase_1,,,,,,,,,,,,,gray,I
35.0,5.0,0.5,1.0,2.0,2.0,319.4936759537086,1.0,1.0,phase_1,,,,,,,,,,,,,yellow,cross
42.0,1.0,0.5,0.0,1.0,1.0,335.2982910000719,1.0,1.0,phase_1,,,,,,,,,,,,,green,circle
93.0,6.0,1.0,1.0,1.0,1.0,292.6495189894922,1.0,1.0,phase_1,,,,,,,,,,,,,blue,hexagon
0.0,6.0,0.0,1.0,1.0,1.0,376.6737030236982,1.0,1.0,phase_1,,,,,,,,,,,,,blue,hexagon
75.0,6.0,1.0,1.0,3.0,3.0,363.9193759881891,1.0,1.0,phase_1,,,,,,,,,,,,,blue,hexagon
401.0,8.0,4.0,1.0,1.0,1.0,273.0440939776599,1.0,1.0,phase_1,,,,,,,,,,,,,white,square
196.0,3.0,2.0,0.0,1.0,1.0,343.2356219855137,1.0,1.0,phase_1,,,,,,,,,,,,,gray,I
112.0,2.0,1.0,0.0,2.0,2.0,457.4185669771395,1.0,1.0,phase_1,,,,,,,,,,,,,orange,diamond
0.0,5.0,0.0,1.0,2.0,2.0,328.4859440173022,1.0,1.0,phase_1,,,,,,,,,,,,,yellow,cross
84.0,6.0,1.0,1.0,1.0,1.0,299.7172000468708,1.0,1.0,phase_1,,,,,,,,,,,,,blue,hexagon
203.0,7.0,2.0,1.0,1.0,1.0,318.5127629549242,1.0,1.0,phase_1,,,,,,,,,,,,,cyan,triangle
43.0,1.0,0.5,0.0,3.0,3.0,267.81138504156837,1.0,1.0,phase_1,,,,,,,,,,,,,green,circle
73.0,5.0,0.5,1.0,1.0,1.0,263.8840220170095,1.0,1.0,phase_1,,,,,,,,,,,,,yellow,cross
412.0,8.0,4.0,1.0,3.0,3.0,314.8889059666544,1.0,2.0,phase_1,,,,,,,,,,,,,white,square
0.0,4.0,0.0,0.0,1.0,1.0,350.2067790250294,1.0,1.0,phase_1,,,,,,,,,,,,,magenta,flipped triangle
0.0,4.0,0.0,0.0,4.0,4.0,356.4883470535278,1.0,1.0,phase_1,,,,,,,,,,,,,magenta,flipped triangle
0.0,1.0,0.0,0.0,1.0,1.0,343.6560850241221,1.0,1.0,phase_1,,,,,,,,,,,,,green,circle
118.0,6.0,1.0,1.0,3.0,3.0,333.087324979715,1.0,1.0,phase_1,,,,,,,,,,,,,blue,hexagon
0.0,7.0,0.0,1.0,2.0,2.0,425.3114949679002,1.0,1.0,phase_1,,,,,,,,,,,,,cyan,triangle
385.0,4.0,4.0,0.0,2.0,2.0,399.654601002112,1.0,1.0,phase_1,,,,,,,,,,,,,magenta,flipped triangle
79.0,2.0,1.0,0.0,3.0,3.0,333.4772019879892,1.0,1.0,phase_1,,,,,,,,,,,,,orange,diamond
62.0,5.0,0.5,1.0,4.0,4.0,350.7760689826682,1.0,1.0,phase_1,,,,,,,,,,,,,yellow,cross
0.0,8.0,0.0,1.0,1.0,1.0,324.5508749969303,1.0,1.0,phase_1,,,,,,,,,,,,,white,square
381.0,8.0,4.0,1.0,2.0,2.0,343.8762110308744,1.0,1.0,phase_1,,,,,,,,,,,,,white,square
424.0,8.0,4.0,1.0,3.0,3.0,422.5046639912762,1.0,1.0,phase_1,,,,,,,,,,,,,white,square
202.0,7.0,2.0,1.0,1.0,1.0,457.9047770239413,1.0,1.0,phase_1,,,,,,,,,,,,,cyan,triangle
384.0,4.0,4.0,0.0,2.0,2.0,335.3851500432938,1.0,1.0,phase_1,,,,,,,,,,,,,magenta,flipped triangle
212.0,3.0,2.0,0.0,2.0,2.0,348.0382309644483,1.0,1.0,phase_1,,,,,,,,,,,,,gray,I
125.0,6.0,1.0,1.0,1.0,1.0,296.2207150412723,1.0,1.0,phase_1,,,,,,,,,,,,,blue,hexagon
76.0,6.0,1.0,1.0,4.0,4.0,295.948723971378,1.0,1.0,phase_1,,,,,,,,,,,,,blue,hexagon
398.0,4.0,4.0,0.0,3.0,3.0,409.962881996762,1.0,1.0,phase_1,,,,,,,,,,,,,magenta,flipped triangle
109.0,6.0,1.0,1.0,2.0,2.0,376.7813669983297,1.0,1.0,phase_1,,,,,,,,,,,,,blue,hexagon
0.0,5.0,0.0,1.0,1.0,1.0,286.4113069954328,1.0,1.0,phase_1,,,,,,,,,,,,,yellow,cross
73.0,1.0,0.5,0.0,1.0,1.0,306.0725359828211,1.0,1.0,phase_1,,,,,,,,,,,,,green,circle
0.0,4.0,0.0,0.0,3.0,3.0,349.7718120343052,1.0,1.0,phase_1,,,,,,,,,,,,,magenta,flipped triangle
387.0,4.0,4.0,0.0,2.0,2.0,282.8634150209836,1.0,1.0,phase_1,,,,,,,,,,,,,magenta,flipped triangle
73.0,5.0,0.5,1.0,4.0,4.0,353.3412030083127,1.0,1.0,phase_1,,,,,,,,,,,,,yellow,cross
0.0,5.0,0.0,1.0,3.0,3.0,323.2086710049771,1.0,1.0,phase_1,,,,,,,,,,,,,yellow,cross
425.0,8.0,4.0,1.0,1.0,1.0,401.5866109984927,1.0,1.0,phase_1,,,,,,,,,,,,,white,square
50.0,1.0,0.5,0.0,2.0,2.0,317.6544170128181,1.0,1.0,phase_1,,,,,,,,,,,,,green,circle
176.0,7.0,2.0,1.0,4.0,4.0,384.1376100317575,1.0,1.0,phase_1,,,,,,,,,,,,,cyan,triangle
196.0,7.0,2.0,1.0,4.0,4.0,374.8434430453926,1.0,1.0,phase_1,,,,,,,,,,,,,cyan,triangle
221.0,3.0,2.0,0.0,2.0,2.0,333.1479030312039,1.0,1.0,phase_1,,,,,,,,,,,,,gray,I
424.0,4.0,4.0,0.0,3.0,3.0,280.9698180062696,1.0,1.0,phase_1,,,,,,,,,,,,,magenta,flipped triangle
177.0,3.0,2.0,0.0,2.0,2.0,429.2695019976236,1.0,1.0,phase_1,,,,,,,,,,,,,gray,I
0.0,6.0,0.0,1.0,3.0,3.0,399.9657420208677,1.0,1.0,phase_1,,,,,,,,,,,,,blue,hexagon
33.0,5.0,0.5,1.0,3.0,3.0,326.5619869926013,1.0,1.0,phase_1,,,,,,,,,,,,,yellow,cross
389.0,4.0,4.0,0.0,3.0,3.0,292.415807954967,2.0,1.0,phase_1,,,,,,,,,,,,,magenta,flipped triangle
0.0,6.0,0.0,1.0,4.0,4.0,345.3339230036363,2.0,1.0,phase_1,,,,,,,,,,,,,blue,hexagon
398.0,8.0,4.0,1.0,3.0,3.0,385.533888998907,2.0,1.0,phase_1,,,,,,,,,,,,,white,square
113.0,2.0,1.0,0.0,3.0,3.0,372.7768199751153,2.0,1.0,phase_1,,,,,,,,,,,,,orange,diamond
42.0,5.0,0.5,1.0,3.0,3.0,361.4141520229168,2.0,1.0,phase_1,,,,,,,,,,,,,yellow,cross
0.0,5.0,0.0,1.0,4.0,4.0,333.7076200405136,2.0,1.0,phase_1,,,,,,,,,,,,,yellow,cross
202.0,3.0,2.0,0.0,1.0,1.0,298.1742650154046,2.0,1.0,phase_1,,,,,,,,,,,,,gray,I
42.0,1.0,0.5,0.0,2.0,2.0,359.9426959990524,2.0,1.0,phase_1,,,,,,,,,,,,,green,circle
185.0,7.0,2.0,1.0,2.0,2.0,369.0574420033954,2.0,1.0,phase_1,,,,,,,,,,,,,cyan,triangle
181.0,7.0,2.0,1.0,2.0,2.0,336.230129993055,2.0,1.0,phase_1,,,,,,,,,,,,,cyan,triangle
394.0,8.0,4.0,1.0,4.0,4.0,302.2896139882505,2.0,1.0,phase_1,,,,,,,,,,,,,white,square
0.0,8.0,0.0,1.0,3.0,3.0,450.620227959007,2.0,1.0,phase_1,,,,,,,,,,,,,white,square
399.0,4.0,4.0,0.0,3.0,3.0,381.7951129749417,2.0,1.0,phase_1,,,,,,,,,,,,,magenta,flipped triangle
32.0,5.0,0.5,1.0,3.0,3.0,356.7996190395206,2.0,1.0,phase_1,,,,,,,,,,,,,yellow,cross
0.0,7.0,0.0,1.0,4.0,4.0,358.3794859587215,2.0,1.0,phase_1,,,,,,,,,,,,,cyan,triangle
204.0,3.0,2.0,0.0,4.0,4.0,307.0781070273369,2.0,1.0,phase_1,,,,,,,,,,,,,gray,I
79.0,6.0,1.0,1.0,2.0,2.0,327.2879230207763,2.0,1.0,phase_1,,,,,,,,,,,,,blue,hexagon
204.0,7.0,2.0,1.0,4.0,4.0,324.4627479580231,2.0,1.0,phase_1,,,,,,,,,,,,,cyan,triangle
48.0,1.0,0.5,0.0,1.0,1.0,360.2430849568918,2.0,1.0,phase_1,,,,,,,,,,,,,green,circle
405.0,8.0,4.0,1.0,2.0,2.0,375.1011389540508,2.0,1.0,phase_1,,,,,,,,,,,,,white,square
200.0,3.0,2.0,0.0,4.0,4.0,385.6559250270948,2.0,1.0,phase_1,,,,,,,,,,,,,gray,I
91.0,6.0,1.0,1.0,4.0,4.0,353.798841999378,2.0,1.0,phase_1,,,,,,,,,,,,,blue,hexagon
0.0,2.0,0.0,0.0,3.0,3.0,339.3537579686381,2.0,1.0,phase_1,,,,,,,,,,,,,orange,diamond
190.0,7.0,2.0,1.0,4.0,4.0,401.8816199968569,2.0,1.0,phase_1,,,,,,,,,,,,,cyan,triangle
125.0,2.0,1.0,0.0,4.0,4.0,336.4412099472247,2.0,1.0,phase_1,,,,,,,,,,,,,orange,diamond
383.0,8.0,4.0,1.0,2.0,2.0,315.4236450209282,2.0,1.0,phase_1,,,,,,,,,,,,,white,square
177.0,7.0,2.0,1.0,4.0,4.0,319.6278359973803,2.0,1.0,phase_1,,,,,,,,,,,,,cyan,triangle
178.0,7.0,2.0,1.0,1.0,1.0,317.3789079883136,2.0,1.0,phase_1,,,,,,,,,,,,,cyan,triangle
216.0,7.0,2.0,1.0,4.0,4.0,343.0725469952449,2.0,1.0,phase_1,,,,,,,,,,,,,cyan,triangle
113.0,6.0,1.0,1.0,2.0,2.0,324.1893309750594,2.0,1.0,phase_1,,,,,,,,,,,,,blue,hexagon
203.0,3.0,2.0,0.0,1.0,1.0,403.755850973539,2.0,1.0,phase_1,,,,,,,,,,,,,gray,I
124.0,6.0,1.0,1.0,3.0,3.0,312.1613080147654,2.0,1.0,phase_1,,,,,,,,,,,,,blue,hexagon
200.0,7.0,2.0,1.0,3.0,3.0,332.8749280190095,2.0,1.0,phase_1,,,,,,,,,,,,,cyan,triangle
94.0,6.0,1.0,1.0,2.0,2.0,294.9974670191295,2.0,1.0,phase_1,,,,,,,,,,,,,blue,hexagon
33.0,1.0,0.5,0.0,4.0,4.0,325.6636050064116,2.0,1.0,phase_1,,,,,,,,,,,,,green,circle
184.0,3.0,2.0,0.0,3.0,3.0,370.6262959749438,2.0,1.0,phase_1,,,,,,,,,,,,,gray,I
119.0,2.0,1.0,0.0,4.0,4.0,349.0560780046507,2.0,1.0,phase_1,,,,,,,,,,,,,orange,diamond
31.0,5.0,0.5,1.0,2.0,2.0,400.9462860412895,2.0,1.0,phase_1,,,,,,,,,,,,,yellow,cross
0.0,8.0,0.0,1.0,2.0,2.0,302.0619599847123,2.0,1.0,phase_1,,,,,,,,,,,,,white,square
199.0,3.0,2.0,0.0,1.0,1.0,333.2474110065959,2.0,1.0,phase_1,,,,,,,,,,,,,gray,I
0.0,1.0,0.0,0.0,2.0,2.0,298.2226880267262,2.0,1.0,phase_1,,,,,,,,,,,,,green,circle
61.0,5.0,0.5,1.0,2.0,2.0,396.4879510458559,2.0,1.0,phase_1,,,,,,,,,,,,,yellow,cross
421.0,4.0,4.0,0.0,2.0,2.0,298.437237041071,2.0,1.0,phase_1,,,,,,,,,,,,,magenta,flipped triangle
76.0,2.0,1.0,0.0,2.0,2.0,294.4011660292744,2.0,1.0,phase_1,,,,,,,,,,,,,orange,diamond
78.0,6.0,1.0,1.0,4.0,4.0,298.7971120164729,2.0,1.0,phase_1,,,,,,,,,,,,,blue,hexagon
98.0,2.0,1.0,0.0,3.0,3.0,383.6867890204303,2.0,1.0,phase_1,,,,,,,,,,,,,orange,diamond
0.0,3.0,0.0,0.0,2.0,2.0,291.1802570451982,2.0,1.0,phase_1,,,,,,,,,,,,,gray,I
43.0,5.0,0.5,1.0,1.0,1.0,377.8988060075789,2.0,1.0,phase_1,,,,,,,,,,,,,yellow,cross
0.0,8.0,0.0,1.0,1.0,1.0,296.7353429994546,2.0,1.0,phase_1,,,,,,,,,,,,,white,square
379.0,4.0,4.0,0.0,1.0,1.0,308.8654520106502,2.0,1.0,phase_1,,,,,,,,,,,,,magenta,flipped triangle
84.0,2.0,1.0,0.0,1.0,1.0,456.7176590207964,2.0,1.0,phase_1,,,,,,,,,,,,,orange,diamond
103.0,2.0,1.0,0.0,1.0,1.0,330.8870749897323,2.0,1.0,phase_1,,,,,,,,,,,,,orange,diamond
401.0,4.0,4.0,0.0,2.0,2.0,351.8240179982967,2.0,1.0,phase_1,,,,,,,,,,,,,magenta,flipped triangle
119.0,6.0,1.0,1.0,3.0,3.0,606.755920976866,2.0,1.0,phase_1,,,,,,,,,,,,,blue,hexagon
85.0,6.0,1.0,1.0,2.0,2.0,359.0468110051006,2.0,2.0,phase_1,,,,,,,,,,,,,blue,hexagon
74.0,5.0,0.5,1.0,1.0,1.0,474.5551900123246,2.0,1.0,phase_1,,,,,,,,,,,,,yellow,cross
73.0,1.0,0.5,0.0,4.0,4.0,586.7625460377894,2.0,1.0,phase_1,,,,,,,,,,,,,green,circle
381.0,8.0,4.0,1.0,4.0,4.0,351.5650680055842,2.0,1.0,phase_1,,,,,,,,,,,,,white,square
0.0,2.0,0.0,0.0,4.0,4.0,330.7528590084985,2.0,1.0,phase_1,,,,,,,,,,,,,orange,diamond
91.0,2.0,1.0,0.0,1.0,1.0,319.2220340133644,2.0,1.0,phase_1,,,,,,,,,,,,,orange,diamond
220.0,7.0,2.0,1.0,1.0,1.0,273.7411049893126,2.0,1.0,phase_1,,,,,,,,,,,,,cyan,triangle
74.0,1.0,0.5,0.0,1.0,1.0,282.6219670241698,2.0,1.0,phase_1,,,,,,,,,,,,,green,circle
389.0,8.0,4.0,1.0,1.0,1.0,310.5712750111706,2.0,1.0,phase_1,,,,,,,,,,,,,white,square
398.0,8.0,4.0,1.0,2.0,2.0,339.7892779903486,2.0,1.0,phase_1,,,,,,,,,,,,,white,square
0.0,6.0,0.0,1.0,4.0,4.0,342.8110720124095,2.0,1.0,phase_1,,,,,,,,,,,,,blue,hexagon
208.0,3.0,2.0,0.0,1.0,1.0,321.3362419628538,2.0,1.0,phase_1,,,,,,,,,,,,,gray,I
409.0,4.0,4.0,0.0,4.0,4.0,389.8627809830941,2.0,2.0,phase_1,,,,,,,,,,,,,magenta,flipped triangle
109.0,2.0,1.0,0.0,1.0,1.0,402.5488760089502,2.0,1.0,phase_1,,,,,,,,,,,,,orange,diamond
119.0,6.0,1.0,1.0,3.0,3.0,294.8500160127878,2.0,1.0,phase_1,,,,,,,,,,,,,blue,hexagon
0.0,4.0,0.0,0.0,3.0,3.0,369.8379130219109,2.0,1.0,phase_1,,,,,,,,,,,,,magenta,flipped triangle
112.0,6.0,1.0,1.0,4.0,4.0,333.2939310348592,2.0,1.0,phase_1,,,,,,,,,,,,,blue,hexagon
190.0,3.0,2.0,0.0,1.0,1.0,286.1591670080088,2.0,1.0,phase_1,,,,,,,,,,,,,gray,I
0.0,7.0,0.0,1.0,1.0,1.0,335.4834549827501,2.0,1.0,phase_1,,,,,,,,,,,,,cyan,triangle
196.0,7.0,2.0,1.0,1.0,1.0,509.76743397768587,2.0,1.0,phase_1,,,,,,,,,,,,,cyan,triangle
29.0,1.0,0.5,0.0,3.0,3.0,362.4875269597396,2.0,1.0,phase_1,,,,,,,,,,,,,green,circle
0.0,7.0,0.0,1.0,3.0,3.0,392.5914910505526,2.0,1.0,phase_1,,,,,,,,,,,,,cyan,triangle
117.0,6.0,1.0,1.0,4.0,4.0,307.6173120061867,2.0,1.0,phase_1,,,,,,,,,,,,,blue,hexagon
0.0,2.0,0.0,0.0,3.0,3.0,358.4443859872408,2.0,1.0,phase_1,,,,,,,,,,,,,orange,diamond
108.0,6.0,1.0,1.0,2.0,2.0,444.6089319535531,2.0,1.0,phase_1,,,,,,,,,,,,,blue,hexagon
185.0,3.0,2.0,0.0,3.0,3.0,402.6600799988955,2.0,1.0,phase_1,,,,,,,,,,,,,gray,I
383.0,4.0,4.0,0.0,4.0,4.0,372.5788840092718,2.0,1.0,phase_1,,,,,,,,,,,,,magenta,flipped triangle
0.0,2.0,0.0,0.0,1.0,1.0,305.6991909979842,2.0,1.0,phase_1,,,,,,,,,,,,,orange,diamond
379.0,8.0,4.0,1.0,3.0,3.0,326.4194409712218,2.0,1.0,phase_1,,,,,,,,,,,,,white,square
0.0,5.0,0.0,1.0,2.0,2.0,331.6081840312108,2.0,1.0,phase_1,,,,,,,,,,,,,yellow,cross
0.0,5.0,0.0,1.0,3.0,3.0,330.3738519898616,2.0,1.0,phase_1,,,,,,,,,,,,,yellow,cross
394.0,4.0,4.0,0.0,1.0,1.0,327.3452420253306,2.0,1.0,phase_1,,,,,,,,,,,,,magenta,flipped triangle
0.0,2.0,0.0,0.0,3.0,3.0,332.1856210241094,2.0,1.0,phase_1,,,,,,,,,,,,,orange,diamond
406.0,4.0,4.0,0.0,4.0,4.0,342.0825790381059,2.0,1.0,phase_1,,,,,,,,,,,,,magenta,flipped triangle
0.0,6.0,0.0,1.0,2.0,2.0,290.3583670267835,2.0,1.0,phase_1,,,,,,,,,,,,,blue,hexagon
0.0,7.0,0.0,1.0,3.0,3.0,350.4662690102123,2.0,1.0,phase_1,,,,,,,,,,,,,cyan,triangle
0.0,6.0,0.0,1.0,2.0,2.0,310.3531090309843,2.0,1.0,phase_1,,,,,,,,,,,,,blue,hexagon
207.0,3.0,2.0,0.0,4.0,4.0,344.0559220034629,2.0,1.0,phase_1,,,,,,,,,,,,,gray,I
57.0,5.0,0.5,1.0,4.0,4.0,332.541613955982,2.0,1.0,phase_1,,,,,,,,,,,,,yellow,cross
83.0,2.0,1.0,0.0,3.0,3.0,299.7765300096944,2.0,1.0,phase_1,,,,,,,,,,,,,orange,diamond
57.0,1.0,0.5,0.0,4.0,4.0,321.7457000282593,2.0,1.0,phase_1,,,,,,,,,,,,,green,circle
38.0,1.0,0.5,0.0,2.0,2.0,382.4498670292087,2.0,1.0,phase_1,,,,,,,,,,,,,green,circle
191.0,3.0,2.0,0.0,2.0,2.0,408.300154027529,2.0,1.0,phase_1,,,,,,,,,,,,,gray,I
47.0,1.0,0.5,0.0,1.0,1.0,381.0366750112735,2.0,1.0,phase_1,,,,,,,,,,,,,green,circle
122.0,6.0,1.0,1.0,3.0,3.0,320.7290089922026,2.0,1.0,phase_1,,,,,,,,,,,,,blue,hexagon
199.0,7.0,2.0,1.0,1.0,1.0,357.8857810352929,2.0,1.0,phase_1,,,,,,,,,,,,,cyan,triangle
117.0,2.0,1.0,0.0,3.0,3.0,336.4715900388546,3.0,1.0,phase_1,,,,,,,,,,,,,orange,diamond
191.0,3.0,2.0,0.0,2.0,2.0,351.6870269668288,3.0,1.0,phase_1,,,,,,,,,,,,,gray,I
93.0,2.0,1.0,0.0,1.0,1.0,322.5731349666603,3.0,1.0,phase_1,,,,,,,,,,,,,orange,diamond
53.0,1.0,0.5,0.0,1.0,1.0,434.2041199561208,3.0,1.0,phase_1,,,,,,,,,,,,,green,circle
202.0,3.0,2.0,0.0,4.0,4.0,373.7623520428315,3.0,1.0,phase_1,,,,,,,,,,,,,gray,I
68.0,5.0,0.5,1.0,2.0,2.0,378.8920269580558,3.0,1.0,phase_1,,,,,,,,,,,,,yellow,cross
116.0,6.0,1.0,1.0,4.0,4.0,335.3633339866064,3.0,1.0,phase_1,,,,,,,,,,,,,blue,hexagon
55.0,5.0,0.5,1.0,2.0,2.0,296.769987035077,3.0,1.0,phase_1,,,,,,,,,,,,,yellow,cross
122.0,2.0,1.0,0.0,3.0,3.0,526.3911849469878,3.0,1.0,phase_1,,,,,,,,,,,,,orange,diamond
48.0,5.0,0.5,1.0,4.0,4.0,364.5568820065819,3.0,1.0,phase_1,,,,,,,,,,,,,yellow,cross
61.0,1.0,0.5,0.0,4.0,4.0,362.3713360284455,3.0,1.0,phase_1,,,,,,,,,,,,,green,circle
408.0,8.0,4.0,1.0,4.0,4.0,332.4202669900842,3.0,1.0,phase_1,,,,,,,,,,,,,white,square
84.0,2.0,1.0,0.0,4.0,4.0,296.4224939933046,3.0,1.0,phase_1,,,,,,,,,,,,,orange,diamond
200.0,7.0,2.0,1.0,3.0,3.0,333.1218069652095,3.0,1.0,phase_1,,,,,,,,,,,,,cyan,triangle
32.0,1.0,0.5,0.0,3.0,3.0,325.5415530293248,3.0,1.0,phase_1,,,,,,,,,,,,,green,circle
56.0,5.0,0.5,1.0,4.0,4.0,306.4129409613088,3.0,1.0,phase_1,,,,,,,,,,,,,yellow,cross
29.0,5.0,0.5,1.0,1.0,1.0,341.9925339985639,3.0,1.0,phase_1,,,,,,,,,,,,,yellow,cross
381.0,4.0,4.0,0.0,3.0,3.0,338.1709670065902,3.0,1.0,phase_1,,,,,,,,,,,,,magenta,flipped triangle
0.0,7.0,0.0,1.0,1.0,1.0,342.6944609964266,3.0,1.0,phase_1,,,,,,,,,,,,,cyan,triangle
425.0,4.0,4.0,0.0,1.0,1.0,361.9553390308283,3.0,1.0,phase_1,,,,,,,,,,,,,magenta,flipped triangle
0.0,4.0,0.0,0.0,1.0,1.0,343.0671420064755,3.0,1.0,phase_1,,,,,,,,,,,,,magenta,flipped triangle
0.0,6.0,0.0,1.0,4.0,4.0,323.9120849757455,3.0,1.0,phase_1,,,,,,,,,,,,,blue,hexagon
213.0,3.0,2.0,0.0,2.0,2.0,370.9507489693351,3.0,1.0,phase_1,,,,,,,,,,,,,gray,I
401.0,4.0,4.0,0.0,2.0,2.0,439.2733699642122,3.0,1.0,phase_1,,,,,,,,,,,,,magenta,flipped triangle
83.0,6.0,1.0,1.0,2.0,2.0,380.4159780265763,3.0,1.0,phase_1,,,,,,,,,,,,,blue,hexagon
98.0,6.0,1.0,1.0,3.0,3.0,461.3195080310106,3.0,1.0,phase_1,,,,,,,,,,,,,blue,hexagon
95.0,2.0,1.0,0.0,1.0,1.0,349.3262699921615,3.0,1.0,phase_1,,,,,,,,,,,,,orange,diamond
73.0,5.0,0.5,1.0,3.0,3.0,344.8407989926636,3.0,1.0,phase_1,,,,,,,,,,,,,yellow,cross
48.0,5.0,0.5,1.0,1.0,1.0,324.2957009933889,3.0,1.0,phase_1,,,,,,,,,,,,,yellow,cross
407.0,8.0,4.0,1.0,1.0,1.0,346.8301750253886,3.0,1.0,phase_1,,,,,,,,,,,,,white,square
45.0,1.0,0.5,0.0,2.0,2.0,312.4613319523632,3.0,1.0,phase_1,,,,,,,,,,,,,green,circle
189.0,7.0,2.0,1.0,3.0,3.0,340.6451169867068,3.0,1.0,phase_1,,,,,,,,,,,,,cyan,triangle
121.0,6.0,1.0,1.0,1.0,1.0,295.5564519506879,3.0,1.0,phase_1,,,,,,,,,,,,,blue,hexagon
27.0,5.0,0.5,1.0,2.0,2.0,291.3411909830756,3.0,1.0,phase_1,,,,,,,,,,,,,yellow,cross
96.0,2.0,1.0,0.0,2.0,2.0,409.5682839979417,3.0,1.0,phase_1,,,,,,,,,,,,,orange,diamond
208.0,3.0,2.0,0.0,3.0,3.0,503.58351500472054,3.0,1.0,phase_1,,,,,,,,,,,,,gray,I
404.0,8.0,4.0,1.0,2.0,2.0,299.7424320201389,3.0,1.0,phase_1,,,,,,,,,,,,,white,square
0.0,4.0,0.0,0.0,4.0,4.0,341.9076349819079,3.0,1.0,phase_1,,,,,,,,,,,,,magenta,flipped triangle
96.0,6.0,1.0,1.0,4.0,4.0,307.9445699695498,3.0,1.0,phase_1,,,,,,,,,,,,,blue,hexagon
55.0,1.0,0.5,0.0,4.0,4.0,407.9449829878285,3.0,1.0,phase_1,,,,,,,,,,,,,green,circle
396.0,4.0,4.0,0.0,1.0,1.0,261.4435579744167,3.0,1.0,phase_1,,,,,,,,,,,,,magenta,flipped triangle
189.0,3.0,2.0,0.0,1.0,1.0,315.6932319980114,3.0,1.0,phase_1,,,,,,,,,,,,,gray,I
0.0,6.0,0.0,1.0,4.0,4.0,320.8496510051191,3.0,1.0,phase_1,,,,,,,,,,,,,blue,hexagon
78.0,2.0,1.0,0.0,3.0,3.0,357.5032950029708,3.0,1.0,phase_1,,,,,,,,,,,,,orange,diamond
91.0,2.0,1.0,0.0,4.0,4.0,340.710629010573,3.0,2.0,phase_1,,,,,,,,,,,,,orange,diamond
53.0,1.0,0.5,0.0,3.0,3.0,322.9117849841714,3.0,1.0,phase_1,,,,,,,,,,,,,green,circle
422.0,8.0,4.0,1.0,4.0,4.0,302.7889369986951,3.0,1.0,phase_1,,,,,,,,,,,,,white,square
0.0,1.0,0.0,0.0,3.0,3.0,547.4242849741131,3.0,1.0,phase_1,,,,,,,,,,,,,green,circle
0.0,8.0,0.0,1.0,4.0,4.0,304.1311519918963,3.0,1.0,phase_1,,,,,,,,,,,,,white,square
390.0,8.0,4.0,1.0,1.0,1.0,347.2403269843198,3.0,1.0,phase_1,,,,,,,,,,,,,white,square
177.0,3.0,2.0,0.0,1.0,1.0,450.3065040335059,3.0,1.0,phase_1,,,,,,,,,,,,,gray,I
378.0,4.0,4.0,0.0,3.0,3.0,317.825220990926,3.0,1.0,phase_1,,,,,,,,,,,,,magenta,flipped triangle
47.0,5.0,0.5,1.0,4.0,4.0,305.4126490023918,3.0,1.0,phase_1,,,,,,,,,,,,,yellow,cross
116.0,2.0,1.0,0.0,1.0,1.0,325.261413003318,3.0,1.0,phase_1,,,,,,,,,,,,,orange,diamond
0.0,5.0,0.0,1.0,4.0,4.0,333.426341006998,3.0,1.0,phase_1,,,,,,,,,,,,,yellow,cross
38.0,5.0,0.5,1.0,1.0,1.0,480.7476780260913,3.0,1.0,phase_1,,,,,,,,,,,,,yellow,cross
89.0,6.0,1.0,1.0,1.0,1.0,371.5158500126563,3.0,1.0,phase_1,,,,,,,,,,,,,blue,hexagon
179.0,3.0,2.0,0.0,3.0,3.0,331.6760350135155,3.0,1.0,phase_1,,,,,,,,,,,,,gray,I
220.0,3.0,2.0,0.0,4.0,4.0,350.2461379976012,3.0,1.0,phase_1,,,,,,,,,,,,,gray,I
207.0,7.0,2.0,1.0,2.0,2.0,340.8432609867304,3.0,1.0,phase_1,,,,,,,,,,,,,cyan,triangle
61.0,5.0,0.5,1.0,2.0,2.0,328.3116100355983,3.0,1.0,phase_1,,,,,,,,,,,,,yellow,cross
412.0,4.0,4.0,0.0,3.0,3.0,422.0932569587603,3.0,1.0,phase_1,,,,,,,,,,,,,magenta,flipped triangle
396.0,8.0,4.0,1.0,4.0,4.0,336.5005159866996,3.0,1.0,phase_1,,,,,,,,,,,,,white,square
213.0,7.0,2.0,1.0,3.0,3.0,340.1555030141026,3.0,1.0,phase_1,,,,,,,,,,,,,cyan,triangle
184.0,7.0,2.0,1.0,3.0,3.0,328.735806979239,3.0,1.0,phase_1,,,,,,,,,,,,,cyan,triangle
55.0,5.0,0.5,1.0,4.0,4.0,413.9874270185828,3.0,1.0,phase_1,,,,,,,,,,,,,yellow,cross
385.0,8.0,4.0,1.0,2.0,2.0,323.6308699706569,3.0,2.0,phase_1,,,,,,,,,,,,,white,square
217.0,7.0,2.0,1.0,2.0,2.0,342.6256880047731,3.0,1.0,phase_1,,,,,,,,,,,,,cyan,triangle
0.0,7.0,0.0,1.0,3.0,3.0,336.5863799699582,3.0,1.0,phase_1,,,,,,,,,,,,,cyan,triangle
222.0,7.0,2.0,1.0,3.0,3.0,358.0815980094485,3.0,1.0,phase_1,,,,,,,,,,,,,cyan,triangle
404.0,4.0,4.0,0.0,1.0,1.0,368.069006013684,3.0,2.0,phase_1,,,,,,,,,,,,,magenta,flipped triangle
213.0,3.0,2.0,0.0,2.0,2.0,363.3310259901918,3.0,1.0,phase_1,,,,,,,,,,,,,gray,I
222.0,3.0,2.0,0.0,3.0,3.0,394.4242860306985,3.0,1.0,phase_1,,,,,,,,,,,,,gray,I
177.0,7.0,2.0,1.0,4.0,4.0,461.4138430333696,3.0,1.0,phase_1,,,,,,,,,,,,,cyan,triangle
404.0,4.0,4.0,0.0,2.0,2.0,377.1215490414761,3.0,1.0,phase_1,,,,,,,,,,,,,magenta,flipped triangle
196.0,3.0,2.0,0.0,1.0,1.0,357.8279539942741,3.0,1.0,phase_1,,,,,,,,,,,,,gray,I
204.0,3.0,2.0,0.0,3.0,3.0,340.8400669577531,3.0,1.0,phase_1,,,,,,,,,,,,,gray,I
405.0,4.0,4.0,0.0,3.0,3.0,347.312159021385,3.0,1.0,phase_1,,,,,,,,,,,,,magenta,flipped triangle
48.0,1.0,0.5,0.0,4.0,4.0,316.0486430278979,3.0,1.0,phase_1,,,,,,,,,,,,,green,circle
0.0,3.0,0.0,0.0,3.0,3.0,378.1677959486842,3.0,1.0,phase_1,,,,,,,,,,,,,gray,I
111.0,2.0,1.0,0.0,3.0,3.0,310.8488980215043,3.0,1.0,phase_1,,,,,,,,,,,,,orange,diamond
37.0,1.0,0.5,0.0,2.0,2.0,372.4518190138042,3.0,1.0,phase_1,,,,,,,,,,,,,green,circle
0.0,4.0,0.0,0.0,2.0,2.0,537.2627779725008,3.0,1.0,phase_1,,,,,,,,,,,,,magenta,flipped triangle
221.0,7.0,2.0,1.0,2.0,2.0,326.552945014555,3.0,1.0,phase_1,,,,,,,,,,,,,cyan,triangle
179.0,7.0,2.0,1.0,2.0,2.0,344.9901039712131,3.0,1.0,phase_1,,,,,,,,,,,,,cyan,triangle
404.0,8.0,4.0,1.0,3.0,3.0,358.9619930135086,3.0,1.0,phase_1,,,,,,,,,,,,,white,square
51.0,1.0,0.5,0.0,3.0,3.0,370.0881529948674,3.0,1.0,phase_1,,,,,,,,,,,,,green,circle
51.0,5.0,0.5,1.0,3.0,3.0,334.2150879907422,3.0,1.0,phase_1,,,,,,,,,,,,,yellow,cross
83.0,2.0,1.0,0.0,1.0,1.0,453.7910429644398,3.0,1.0,phase_1,,,,,,,,,,,,,orange,diamond
181.0,3.0,2.0,0.0,4.0,4.0,389.798741962295,3.0,2.0,phase_1,,,,,,,,,,,,,gray,I
408.0,4.0,4.0,0.0,3.0,3.0,344.7977500036359,3.0,1.0,phase_1,,,,,,,,,,,,,magenta,flipped triangle
412.0,4.0,4.0,0.0,2.0,2.0,357.1531909983605,3.0,1.0,phase_1,,,,,,,,,,,,,magenta,flipped triangle
0.0,2.0,0.0,0.0,3.0,3.0,378.4020249731838,3.0,1.0,phase_1,,,,,,,,,,,,,orange,diamond
385.0,4.0,4.0,0.0,1.0,1.0,474.5850259787403,3.0,1.0,phase_1,,,,,,,,,,,,,magenta,flipped triangle
0.0,5.0,0.0,1.0,2.0,2.0,446.6415559872985,3.0,1.0,phase_1,,,,,,,,,,,,,yellow,cross
217.0,3.0,2.0,0.0,2.0,2.0,419.1281889798119,3.0,1.0,phase_1,,,,,,,,,,,,,gray,I
223.0,3.0,2.0,0.0,3.0,3.0,353.1167000182904,3.0,1.0,phase_1,,,,,,,,,,,,,gray,I
378.0,8.0,4.0,1.0,1.0,1.0,330.43655601795757,3.0,1.0,phase_1,,,,,,,,,,,,,white,square
212.0,7.0,2.0,1.0,3.0,3.0,423.1813910300843,3.0,1.0,phase_1,,,,,,,,,,,,,cyan,triangle
84.0,6.0,1.0,1.0,1.0,1.0,331.622248981148,3.0,1.0,phase_1,,,,,,,,,,,,,blue,hexagon
84.0,6.0,1.0,1.0,4.0,4.0,329.6816020156257,4.0,1.0,phase_1,,,,,,,,,,,,,blue,hexagon
45.0,5.0,0.5,1.0,1.0,1.0,299.1549259750172,4.0,1.0,phase_1,,,,,,,,,,,,,yellow,cross
54.0,1.0,0.5,0.0,3.0,3.0,329.6844589640386,4.0,1.0,phase_1,,,,,,,,,,,,,green,circle
378.0,8.0,4.0,1.0,3.0,3.0,332.627429976128,4.0,1.0,phase_1,,,,,,,,,,,,,white,square
48.0,5.0,0.5,1.0,1.0,1.0,330.8047769824043,4.0,1.0,phase_1,,,,,,,,,,,,,yellow,cross
73.0,1.0,0.5,0.0,3.0,3.0,345.3562229988165,4.0,1.0,phase_1,,,,,,,,,,,,,green,circle
0.0,1.0,0.0,0.0,1.0,1.0,308.338848000858,4.0,1.0,phase_1,,,,,,,,,,,,,green,circle
217.0,3.0,2.0,0.0,2.0,2.0,551.1077910196036,4.0,1.0,phase_1,,,,,,,,,,,,,gray,I
378.0,8.0,4.0,1.0,1.0,1.0,347.5963589735329,4.0,1.0,phase_1,,,,,,,,,,,,,white,square
415.0,4.0,4.0,0.0,2.0,2.0,369.2135660094209,4.0,1.0,phase_1,,,,,,,,,,,,,magenta,flipped triangle
390.0,4.0,4.0,0.0,4.0,4.0,317.020185990259,4.0,1.0,phase_1,,,,,,,,,,,,,magenta,flipped triangle
105.0,2.0,1.0,0.0,4.0,4.0,323.6112400190905,4.0,1.0,phase_1,,,,,,,,,,,,,orange,diamond
421.0,8.0,4.0,1.0,4.0,4.0,377.1061199950054,4.0,1.0,phase_1,,,,,,,,,,,,,white,square
72.0,5.0,0.5,1.0,4.0,4.0,363.5320789762772,4.0,1.0,phase_1,,,,,,,,,,,,,yellow,cross
0.0,8.0,0.0,1.0,3.0,3.0,322.8965169982984,4.0,1.0,phase_1,,,,,,,,,,,,,white,square
0.0,3.0,0.0,0.0,3.0,3.0,348.3009880292229,4.0,1.0,phase_1,,,,,,,,,,,,,gray,I
0.0,1.0,0.0,0.0,4.0,4.0,384.8775849910453,4.0,1.0,phase_1,,,,,,,,,,,,,green,circle
378.0,4.0,4.0,0.0,3.0,3.0,326.7778949812054,4.0,1.0,phase_1,,,,,,,,,,,,,magenta,flipped triangle
0.0,4.0,0.0,0.0,2.0,2.0,299.0872350055724,4.0,1.0,phase_1,,,,,,,,,,,,,magenta,flipped triangle
0.0,1.0,0.0,0.0,4.0,4.0,455.1448699785396,4.0,1.0,phase_1,,,,,,,,,,,,,green,circle
385.0,8.0,4.0,1.0,4.0,4.0,342.4126019817777,4.0,1.0,phase_1,,,,,,,,,,,,,white,square
26.0,5.0,0.5,1.0,2.0,2.0,321.3592630345374,4.0,1.0,phase_1,,,,,,,,,,,,,yellow,cross
208.0,7.0,2.0,1.0,1.0,1.0,317.553256987594,4.0,1.0,phase_1,,,,,,,,,,,,,cyan,triangle
84.0,2.0,1.0,0.0,4.0,4.0,306.0437639942392,4.0,1.0,phase_1,,,,,,,,,,,,,orange,diamond
205.0,3.0,2.0,0.0,3.0,3.0,512.2279379866086,4.0,1.0,phase_1,,,,,,,,,,,,,gray,I
208.0,7.0,2.0,1.0,1.0,1.0,315.5355379567481,4.0,1.0,phase_1,,,,,,,,,,,,,cyan,triangle
425.0,4.0,4.0,0.0,4.0,4.0,753.7464880151674,4.0,1.0,phase_1,,,,,,,,,,,,,magenta,flipped triangle
387.0,8.0,4.0,1.0,2.0,2.0,398.7604589783586,4.0,1.0,phase_1,,,,,,,,,,,,,white,square
67.0,5.0,0.5,1.0,3.0,3.0,338.3326450129971,4.0,1.0,phase_1,,,,,,,,,,,,,yellow,cross
56.0,1.0,0.5,0.0,4.0,4.0,370.0447830487974,4.0,1.0,phase_1,,,,,,,,,,,,,green,circle
0.0,3.0,0.0,0.0,1.0,1.0,317.7178680198267,4.0,1.0,phase_1,,,,,,,,,,,,,gray,I
0.0,7.0,0.0,1.0,1.0,1.0,362.4726590351201,4.0,1.0,phase_1,,,,,,,,,,,,,cyan,triangle
27.0,1.0,0.5,0.0,3.0,3.0,328.2486739917658,4.0,1.0,phase_1,,,,,,,,,,,,,green,circle
50.0,5.0,0.5,1.0,4.0,4.0,324.1166090010665,4.0,1.0,phase_1,,,,,,,,,,,,,yellow,cross
425.0,8.0,4.0,1.0,2.0,2.0,345.204895013012,4.0,1.0,phase_1,,,,,,,,,,,,,white,square
394.0,4.0,4.0,0.0,1.0,1.0,381.4932399545796,4.0,1.0,phase_1,,,,,,,,,,,,,magenta,flipped triangle
48.0,1.0,0.5,0.0,1.0,1.0,335.3468209970742,4.0,1.0,phase_1,,,,,,,,,,,,,green,circle
32.0,5.0,0.5,1.0,3.0,3.0,310.8941140235401,4.0,1.0,phase_1,,,,,,,,,,,,,yellow,cross
223.0,7.0,2.0,1.0,2.0,2.0,410.759485035669,4.0,1.0,phase_1,,,,,,,,,,,,,cyan,triangle
0.0,7.0,0.0,1.0,1.0,1.0,335.5055869906209,4.0,1.0,phase_1,,,,,,,,,,,,,cyan,triangle
0.0,8.0,0.0,1.0,1.0,1.0,298.7997899763286,4.0,1.0,phase_1,,,,,,,,,,,,,white,square
415.0,8.0,4.0,1.0,4.0,4.0,294.3590140203014,4.0,1.0,phase_1,,,,,,,,,,,,,white,square
0.0,2.0,0.0,0.0,2.0,2.0,331.1675459844991,4.0,1.0,phase_1,,,,,,,,,,,,,orange,diamond
182.0,3.0,2.0,0.0,4.0,4.0,289.4465790013782,4.0,1.0,phase_1,,,,,,,,,,,,,gray,I
385.0,8.0,4.0,1.0,3.0,3.0,360.7694960082881,4.0,1.0,phase_1,,,,,,,,,,,,,white,square
0.0,5.0,0.0,1.0,4.0,4.0,337.5698539894074,4.0,1.0,phase_1,,,,,,,,,,,,,yellow,cross
48.0,5.0,0.5,1.0,3.0,3.0,327.671761973761,4.0,1.0,phase_1,,,,,,,,,,,,,yellow,cross
419.0,4.0,4.0,0.0,4.0,4.0,316.7175730341114,4.0,1.0,phase_1,,,,,,,,,,,,,magenta,flipped triangle
108.0,6.0,1.0,1.0,1.0,1.0,395.1541120186448,4.0,1.0,phase_1,,,,,,,,,,,,,blue,hexagon
401.0,8.0,4.0,1.0,2.0,2.0,381.8652200279757,4.0,1.0,phase_1,,,,,,,,,,,,,white,square
108.0,2.0,1.0,0.0,2.0,2.0,361.1652500112541,4.0,1.0,phase_1,,,,,,,,,,,,,orange,diamond
111.0,6.0,1.0,1.0,4.0,4.0,336.2101870006881,4.0,1.0,phase_1,,,,,,,,,,,,,blue,hexagon
35.0,1.0,0.5,0.0,1.0,1.0,332.9149300116114,4.0,1.0,phase_1,,,,,,,,,,,,,green,circle
105.0,6.0,1.0,1.0,3.0,3.0,519.1079630167224,4.0,1.0,phase_1,,,,,,,,,,,,,blue,hexagon
0.0,3.0,0.0,0.0,4.0,4.0,316.2452050019055,4.0,1.0,phase_1,,,,,,,,,,,,,gray,I
219.0,3.0,2.0,0.0,1.0,1.0,337.6497579738498,4.0,1.0,phase_1,,,,,,,,,,,,,gray,I
30.0,5.0,0.5,1.0,1.0,1.0,389.0058289980516,4.0,1.0,phase_1,,,,,,,,,,,,,yellow,cross
72.0,1.0,0.5,0.0,2.0,2.0,484.3604689813219,4.0,1.0,phase_1,,,,,,,,,,,,,green,circle
406.0,8.0,4.0,1.0,1.0,1.0,336.1238240031525,4.0,1.0,phase_1,,,,,,,,,,,,,white,square
217.0,7.0,2.0,1.0,2.0,2.0,340.7524770009331,4.0,1.0,phase_1,,,,,,,,,,,,,cyan,triangle
91.0,6.0,1.0,1.0,1.0,1.0,474.7875809553079,4.0,1.0,phase_1,,,,,,,,,,,,,blue,hexagon
85.0,2.0,1.0,0.0,4.0,4.0,500.93548803124577,4.0,1.0,phase_1,,,,,,,,,,,,,orange,diamond
419.0,4.0,4.0,0.0,4.0,4.0,474.4628440239467,4.0,1.0,phase_1,,,,,,,,,,,,,magenta,flipped triangle
176.0,3.0,2.0,0.0,2.0,2.0,438.2353879627771,4.0,1.0,phase_1,,,,,,,,,,,,,gray,I
26.0,1.0,0.5,0.0,3.0,3.0,347.6779169868678,4.0,1.0,phase_1,,,,,,,,,,,,,green,circle
32.0,1.0,0.5,0.0,1.0,1.0,298.1709150481038,4.0,1.0,phase_1,,,,,,,,,,,,,green,circle
119.0,2.0,1.0,0.0,4.0,4.0,339.3746450310573,4.0,1.0,phase_1,,,,,,,,,,,,,orange,diamond
419.0,8.0,4.0,1.0,2.0,2.0,393.0159850278869,4.0,1.0,phase_1,,,,,,,,,,,,,white,square
0.0,4.0,0.0,0.0,4.0,4.0,332.58772600675,4.0,1.0,phase_1,,,,,,,,,,,,,magenta,flipped triangle
0.0,6.0,0.0,1.0,3.0,3.0,377.4932730011642,4.0,1.0,phase_1,,,,,,,,,,,,,blue,hexagon
409.0,8.0,4.0,1.0,1.0,1.0,304.4344600057229,4.0,1.0,phase_1,,,,,,,,,,,,,white,square
80.0,6.0,1.0,1.0,2.0,2.0,317.3613590188324,4.0,1.0,phase_1,,,,,,,,,,,,,blue,hexagon
190.0,7.0,2.0,1.0,4.0,4.0,377.7879870031029,4.0,1.0,phase_1,,,,,,,,,,,,,cyan,triangle
0.0,5.0,0.0,1.0,2.0,2.0,374.818084994331,4.0,1.0,phase_1,,,,,,,,,,,,,yellow,cross
0.0,6.0,0.0,1.0,4.0,4.0,509.2436220147647,4.0,1.0,phase_1,,,,,,,,,,,,,blue,hexagon
188.0,3.0,2.0,0.0,4.0,4.0,353.8609389797784,4.0,1.0,phase_1,,,,,,,,,,,,,gray,I
0.0,1.0,0.0,0.0,1.0,1.0,356.2333130394108,4.0,1.0,phase_1,,,,,,,,,,,,,green,circle
95.0,6.0,1.0,1.0,3.0,3.0,305.8425009949133,4.0,1.0,phase_1,,,,,,,,,,,,,blue,hexagon
191.0,7.0,2.0,1.0,3.0,3.0,309.9055430502631,4.0,1.0,phase_1,,,,,,,,,,,,,cyan,triangle
219.0,7.0,2.0,1.0,2.0,2.0,353.0494500300847,4.0,1.0,phase_1,,,,,,,,,,,,,cyan,triangle
0.0,8.0,0.0,1.0,3.0,3.0,328.283506038133,4.0,1.0,phase_1,,,,,,,,,,,,,white,square
190.0,3.0,2.0,0.0,4.0,4.0,387.7917610225267,4.0,1.0,phase_1,,,,,,,,,,,,,gray,I
0.0,2.0,0.0,0.0,1.0,1.0,287.02517499914387,4.0,1.0,phase_1,,,,,,,,,,,,,orange,diamond
55.0,1.0,0.5,0.0,2.0,2.0,355.3330540307797,4.0,1.0,phase_1,,,,,,,,,,,,,green,circle
72.0,1.0,0.5,0.0,4.0,4.0,409.9871980142779,4.0,1.0,phase_1,,,,,,,,,,,,,green,circle
89.0,2.0,1.0,0.0,2.0,2.0,324.4728400022723,4.0,1.0,phase_1,,,,,,,,,,,,,orange,diamond
0.0,1.0,0.0,0.0,4.0,4.0,338.2288319990039,4.0,1.0,phase_1,,,,,,,,,,,,,green,circle
75.0,2.0,1.0,0.0,1.0,1.0,329.2161809513345,4.0,1.0,phase_1,,,,,,,,,,,,,orange,diamond
178.0,3.0,2.0,0.0,3.0,3.0,357.829587010201,4.0,1.0,phase_1,,,,,,,,,,,,,gray,I
110.0,6.0,1.0,1.0,2.0,2.0,375.4586260183714,4.0,1.0,phase_1,,,,,,,,,,,,,blue,hexagon
68.0,1.0,0.5,0.0,2.0,2.0,397.9607239598408,4.0,1.0,phase_1,,,,,,,,,,,,,green,circle
122.0,6.0,1.0,1.0,2.0,2.0,332.5220169499516,4.0,1.0,phase_1,,,,,,,,,,,,,blue,hexagon
381.0,4.0,4.0,0.0,4.0,4.0,318.417401984334,4.0,1.0,phase_1,,,,,,,,,,,,,magenta,flipped triangle
394.0,8.0,4.0,1.0,3.0,3.0,354.5030539971776,4.0,1.0,phase_1,,,,,,,,,,,,,white,square
407.0,4.0,4.0,0.0,1.0,1.0,430.3858820348978,4.0,1.0,phase_1,,,,,,,,,,,,,magenta,flipped triangle
62.0,1.0,0.5,0.0,2.0,2.0,435.8480430091731,4.0,1.0,phase_1,,,,,,,,,,,,,green,circle
0.0,3.0,0.0,0.0,4.0,4.0,368.8248469843529,4.0,1.0,phase_1,,,,,,,,,,,,,gray,I
110.0,2.0,1.0,0.0,3.0,3.0,380.5717410286888,4.0,1.0,phase_1,,,,,,,,,,,,,orange,diamond
0.0,2.0,0.0,0.0,4.0,4.0,364.6698700031265,4.0,1.0,phase_1,,,,,,,,,,,,,orange,diamond
0.0,8.0,0.0,1.0,2.0,2.0,382.3375120409764,4.0,1.0,phase_1,,,,,,,,,,,,,white,square
0.0,8.0,4.0,1.0,6.0,0.0,0.0,1.0,1.0,phase_2,stop,250.0,250.0,4.0,,,,,,,,,white,square
0.0,4.0,4.0,0.0,6.0,6.0,342.462575994432,1.0,1.0,phase_2,go,250.0,300.0,1.0,,,,,,,,,magenta,flipped triangle
0.0,3.0,2.0,0.0,6.0,6.0,557.8975469688885,1.0,1.0,phase_2,go,250.0,300.0,1.0,,,,,,,,,gray,I
0.0,4.0,4.0,0.0,6.0,6.0,534.2841499950737,1.0,1.0,phase_2,go,250.0,300.0,1.0,,,,,,,,,magenta,flipped triangle
0.0,2.0,1.0,0.0,5.0,5.0,986.874917987734,1.0,1.0,phase_2,go,250.0,300.0,1.0,,,,,,,,,orange,diamond
0.0,3.0,2.0,0.0,5.0,5.0,892.4406919977628,1.0,1.0,phase_2,go,250.0,300.0,1.0,,,,,,,,,gray,I
0.0,5.0,0.5,1.0,6.0,0.0,0.0,1.0,1.0,phase_2,stop,250.0,300.0,4.0,,,,,,,,,yellow,cross
0.0,4.0,4.0,0.0,5.0,5.0,361.6627239971421,1.0,1.0,phase_2,go,250.0,350.0,1.0,,,,,,,,,magenta,flipped triangle
0.0,7.0,2.0,1.0,5.0,0.0,0.0,1.0,1.0,phase_2,stop,250.0,350.0,4.0,,,,,,,,,cyan,triangle
0.0,4.0,4.0,0.0,5.0,5.0,657.9185659647919,1.0,1.0,phase_2,go,300.0,350.0,1.0,,,,,,,,,magenta,flipped triangle
0.0,4.0,4.0,0.0,6.0,6.0,808.5981689509936,1.0,1.0,phase_2,go,300.0,350.0,1.0,,,,,,,,,magenta,flipped triangle
0.0,3.0,2.0,0.0,5.0,5.0,431.2457609921694,1.0,1.0,phase_2,go,300.0,350.0,1.0,,,,,,,,,gray,I
0.0,4.0,4.0,0.0,5.0,5.0,576.9912659889087,1.0,1.0,phase_2,go,300.0,350.0,1.0,,,,,,,,,magenta,flipped triangle
0.0,5.0,0.5,1.0,6.0,6.0,486.3793779513798,1.0,1.0,phase_2,stop,300.0,350.0,3.0,,,,,,,,,yellow,cross
0.0,1.0,0.5,0.0,6.0,6.0,493.5310049913823,1.0,1.0,phase_2,go,300.0,300.0,1.0,,,,,,,,,green,circle
0.0,3.0,2.0,0.0,5.0,5.0,527.9912009718828,1.0,1.0,phase_2,go,300.0,300.0,1.0,,,,,,,,,gray,I
0.0,8.0,4.0,1.0,5.0,0.0,0.0,1.0,1.0,phase_2,stop,300.0,300.0,4.0,,,,,,,,,white,square
0.0,1.0,0.5,0.0,6.0,6.0,636.1381890019402,1.0,1.0,phase_2,go,350.0,300.0,1.0,,,,,,,,,green,circle
0.0,4.0,4.0,0.0,5.0,5.0,658.8998920051381,1.0,1.0,phase_2,go,350.0,300.0,1.0,,,,,,,,,magenta,flipped triangle
0.0,4.0,4.0,0.0,6.0,6.0,763.3355759899132,1.0,1.0,phase_2,go,350.0,300.0,1.0,,,,,,,,,magenta,flipped triangle
0.0,8.0,4.0,1.0,6.0,0.0,0.0,1.0,1.0,phase_2,stop,350.0,300.0,4.0,,,,,,,,,white,square
0.0,3.0,2.0,0.0,6.0,6.0,573.728029965423,1.0,1.0,phase_2,go,350.0,350.0,1.0,,,,,,,,,gray,I
0.0,8.0,4.0,1.0,6.0,6.0,483.1774829654023,1.0,1.0,phase_2,stop,350.0,350.0,3.0,,,,,,,,,white,square
0.0,3.0,2.0,0.0,6.0,6.0,784.4251880305819,1.0,1.0,phase_2,go,350.0,300.0,1.0,,,,,,,,,gray,I
0.0,7.0,2.0,1.0,6.0,0.0,0.0,1.0,1.0,phase_2,stop,350.0,300.0,4.0,,,,,,,,,cyan,triangle
0.0,1.0,0.5,0.0,6.0,6.0,650.562718976289,1.0,1.0,phase_2,go,350.0,350.0,1.0,,,,,,,,,green,circle
0.0,6.0,1.0,1.0,6.0,0.0,0.0,1.0,1.0,phase_2,stop,350.0,350.0,4.0,,,,,,,,,blue,hexagon
0.0,6.0,1.0,1.0,5.0,0.0,0.0,1.0,1.0,phase_2,stop,350.0,400.0,4.0,,,,,,,,,blue,hexagon
0.0,3.0,2.0,0.0,5.0,5.0,655.6880830321461,1.0,1.0,phase_2,go,400.0,400.0,1.0,,,,,,,,,gray,I
0.0,5.0,0.5,1.0,6.0,6.0,599.939075007569,1.0,1.0,phase_2,go,400.0,400.0,1.0,,,,,,,,,yellow,cross
0.0,7.0,2.0,1.0,5.0,0.0,0.0,1.0,1.0,phase_2,stop,400.0,400.0,4.0,,,,,,,,,cyan,triangle
0.0,3.0,2.0,0.0,5.0,5.0,718.833833001554,1.0,1.0,phase_2,go,450.0,400.0,1.0,,,,,,,,,gray,I
0.0,7.0,2.0,1.0,5.0,0.0,0.0,1.0,1.0,phase_2,stop,450.0,400.0,4.0,,,,,,,,,cyan,triangle
0.0,4.0,4.0,0.0,6.0,6.0,637.3964470112696,1.0,1.0,phase_2,go,500.0,400.0,1.0,,,,,,,,,magenta,flipped triangle
0.0,4.0,4.0,0.0,6.0,6.0,578.3630500081927,1.0,1.0,phase_2,go,500.0,400.0,1.0,,,,,,,,,magenta,flipped triangle
0.0,3.0,2.0,0.0,6.0,6.0,699.4459600537084,1.0,1.0,phase_2,go,500.0,400.0,1.0,,,,,,,,,gray,I
0.0,3.0,2.0,0.0,5.0,5.0,755.8577000163496,2.0,1.0,phase_2,go,500.0,400.0,1.0,,,,,,,,,gray,I
0.0,4.0,4.0,0.0,5.0,5.0,649.3277170229703,2.0,1.0,phase_2,go,500.0,400.0,1.0,,,,,,,,,magenta,flipped triangle
0.0,6.0,1.0,1.0,5.0,0.0,0.0,2.0,1.0,phase_2,stop,500.0,400.0,4.0,,,,,,,,,blue,hexagon
0.0,6.0,1.0,1.0,6.0,6.0,374.07022499246517,2.0,1.0,phase_2,stop,550.0,400.0,3.0,,,,,,,,,blue,hexagon
0.0,2.0,1.0,0.0,6.0,6.0,632.4791850056499,2.0,1.0,phase_2,go,550.0,350.0,1.0,,,,,,,,,orange,diamond
0.0,4.0,4.0,0.0,5.0,5.0,375.0247249845415,2.0,1.0,phase_2,go,550.0,350.0,1.0,,,,,,,,,magenta,flipped triangle
0.0,6.0,1.0,1.0,5.0,5.0,487.1663319645449,2.0,1.0,phase_2,stop,550.0,350.0,3.0,,,,,,,,,blue,hexagon
0.0,8.0,4.0,1.0,6.0,0.0,0.0,2.0,1.0,phase_2,stop,500.0,350.0,4.0,,,,,,,,,white,square
0.0,5.0,0.5,1.0,5.0,5.0,443.4935490135103,2.0,1.0,phase_2,stop,500.0,400.0,3.0,,,,,,,,,yellow,cross
0.0,3.0,2.0,0.0,6.0,6.0,669.463585014455,2.0,1.0,phase_2,go,450.0,400.0,1.0,,,,,,,,,gray,I
0.0,7.0,2.0,1.0,5.0,5.0,635.4044130421244,2.0,1.0,phase_2,stop,450.0,400.0,3.0,,,,,,,,,cyan,triangle
0.0,8.0,4.0,1.0,5.0,0.0,0.0,2.0,1.0,phase_2,stop,400.0,400.0,4.0,,,,,,,,,white,square
0.0,5.0,0.5,1.0,5.0,5.0,596.3857009774074,2.0,1.0,phase_2,go,450.0,400.0,1.0,,,,,,,,,yellow,cross
0.0,3.0,2.0,0.0,6.0,6.0,745.5742339952849,2.0,1.0,phase_2,go,450.0,400.0,1.0,,,,,,,,,gray,I
0.0,8.0,4.0,1.0,5.0,0.0,0.0,2.0,1.0,phase_2,stop,450.0,400.0,4.0,,,,,,,,,white,square
0.0,7.0,2.0,1.0,6.0,6.0,570.2098819892853,2.0,1.0,phase_2,go,500.0,400.0,1.0,,,,,,,,,cyan,triangle
0.0,2.0,1.0,0.0,6.0,6.0,639.2722550081089,2.0,1.0,phase_2,go,500.0,400.0,1.0,,,,,,,,,orange,diamond
0.0,5.0,0.5,1.0,6.0,6.0,729.4357399805449,2.0,1.0,phase_2,go,500.0,400.0,1.0,,,,,,,,,yellow,cross
0.0,6.0,1.0,1.0,6.0,0.0,0.0,2.0,1.0,phase_2,stop,500.0,400.0,4.0,,,,,,,,,blue,hexagon
0.0,7.0,2.0,1.0,6.0,0.0,0.0,2.0,1.0,phase_2,stop,500.0,450.0,4.0,,,,,,,,,cyan,triangle
0.0,8.0,4.0,1.0,5.0,5.0,766.9379319995642,2.0,1.0,phase_2,go,500.0,500.0,1.0,,,,,,,,,white,square
0.0,5.0,0.5,1.0,5.0,5.0,597.4297299981117,2.0,1.0,phase_2,stop,500.0,500.0,3.0,,,,,,,,,yellow,cross
0.0,6.0,1.0,1.0,6.0,6.0,709.4852139707655,2.0,1.0,phase_2,stop,450.0,500.0,3.0,,,,,,,,,blue,hexagon
0.0,7.0,2.0,1.0,6.0,6.0,1156.4169990015216,2.0,1.0,phase_2,go,450.0,450.0,1.0,,,,,,,,,cyan,triangle
0.0,5.0,0.5,1.0,6.0,6.0,798.861671006307,2.0,1.0,phase_2,go,450.0,450.0,1.0,,,,,,,,,yellow,cross
0.0,4.0,4.0,0.0,6.0,6.0,796.0538750048727,2.0,1.0,phase_2,go,450.0,450.0,1.0,,,,,,,,,magenta,flipped triangle
0.0,5.0,0.5,1.0,5.0,5.0,548.0854639899917,2.0,1.0,phase_2,stop,450.0,450.0,3.0,,,,,,,,,yellow,cross
0.0,3.0,2.0,0.0,6.0,6.0,587.8178380080499,2.0,1.0,phase_2,go,400.0,450.0,1.0,,,,,,,,,gray,I
0.0,1.0,0.5,0.0,5.0,5.0,674.8141970019788,2.0,1.0,phase_2,go,400.0,450.0,1.0,,,,,,,,,green,circle
0.0,3.0,2.0,0.0,5.0,5.0,984.6200040192344,2.0,1.0,phase_2,go,400.0,450.0,1.0,,,,,,,,,gray,I
0.0,2.0,1.0,0.0,6.0,6.0,937.0150580070912,2.0,1.0,phase_2,go,400.0,450.0,1.0,,,,,,,,,orange,diamond
0.0,8.0,4.0,1.0,5.0,5.0,614.754821988754,2.0,1.0,phase_2,stop,400.0,450.0,3.0,,,,,,,,,white,square
0.0,6.0,1.0,1.0,5.0,5.0,822.108116990421,2.0,1.0,phase_2,go,350.0,450.0,1.0,,,,,,,,,blue,hexagon
0.0,6.0,1.0,1.0,5.0,0.0,0.0,2.0,1.0,phase_2,stop,350.0,450.0,4.0,,,,,,,,,blue,hexagon
0.0,6.0,1.0,1.0,5.0,5.0,479.8975199810229,2.0,1.0,phase_2,go,400.0,450.0,1.0,,,,,,,,,blue,hexagon
0.0,4.0,4.0,0.0,5.0,5.0,694.0700649865903,2.0,1.0,phase_2,go,400.0,450.0,1.0,,,,,,,,,magenta,flipped triangle
0.0,1.0,0.5,0.0,5.0,5.0,377.8472960111685,3.0,1.0,phase_2,go,400.0,450.0,1.0,,,,,,,,,green,circle
0.0,5.0,0.5,1.0,5.0,5.0,433.2103229826316,3.0,1.0,phase_2,go,400.0,450.0,1.0,,,,,,,,,yellow,cross
0.0,3.0,2.0,0.0,5.0,5.0,572.0246930141002,3.0,1.0,phase_2,go,400.0,450.0,1.0,,,,,,,,,gray,I
0.0,8.0,4.0,1.0,5.0,0.0,0.0,3.0,1.0,phase_2,stop,400.0,450.0,4.0,,,,,,,,,white,square
0.0,5.0,0.5,1.0,6.0,6.0,400.8091139839962,3.0,1.0,phase_2,stop,450.0,450.0,3.0,,,,,,,,,yellow,cross
0.0,5.0,0.5,1.0,5.0,5.0,569.9211009778082,3.0,1.0,phase_2,stop,450.0,400.0,3.0,,,,,,,,,yellow,cross
0.0,3.0,2.0,0.0,6.0,6.0,698.7662659958005,3.0,1.0,phase_2,go,400.0,400.0,1.0,,,,,,,,,gray,I
0.0,6.0,1.0,1.0,5.0,0.0,0.0,3.0,1.0,phase_2,stop,400.0,400.0,4.0,,,,,,,,,blue,hexagon
0.0,2.0,1.0,0.0,6.0,6.0,645.1917899539694,3.0,1.0,phase_2,go,450.0,400.0,1.0,,,,,,,,,orange,diamond
0.0,3.0,2.0,0.0,6.0,6.0,645.7027820288204,3.0,1.0,phase_2,go,450.0,400.0,1.0,,,,,,,,,gray,I
0.0,1.0,0.5,0.0,5.0,5.0,396.4976179995574,3.0,1.0,phase_2,go,450.0,400.0,1.0,,,,,,,,,green,circle
0.0,8.0,4.0,1.0,6.0,0.0,0.0,3.0,1.0,phase_2,stop,450.0,400.0,4.0,,,,,,,,,white,square
0.0,4.0,4.0,0.0,5.0,5.0,485.2799659711309,3.0,1.0,phase_2,go,450.0,450.0,1.0,,,,,,,,,magenta,flipped triangle
0.0,4.0,4.0,0.0,6.0,6.0,476.1495430138893,3.0,1.0,phase_2,go,450.0,450.0,1.0,,,,,,,,,magenta,flipped triangle
0.0,5.0,0.5,1.0,6.0,0.0,0.0,3.0,1.0,phase_2,stop,450.0,450.0,4.0,,,,,,,,,yellow,cross
0.0,8.0,4.0,1.0,6.0,6.0,587.3776050284505,3.0,1.0,phase_2,go,450.0,500.0,1.0,,,,,,,,,white,square
0.0,1.0,0.5,0.0,6.0,6.0,689.1282710130326,3.0,1.0,phase_2,go,450.0,500.0,1.0,,,,,,,,,green,circle
0.0,8.0,4.0,1.0,5.0,5.0,352.8377349721268,3.0,1.0,phase_2,go,450.0,500.0,1.0,,,,,,,,,white,square
0.0,7.0,2.0,1.0,6.0,0.0,0.0,3.0,1.0,phase_2,stop,450.0,500.0,4.0,,,,,,,,,cyan,triangle
0.0,1.0,0.5,0.0,5.0,5.0,522.3903959849849,3.0,1.0,phase_2,go,450.0,550.0,1.0,,,,,,,,,green,circle
0.0,7.0,2.0,1.0,5.0,0.0,0.0,3.0,1.0,phase_2,stop,450.0,550.0,4.0,,,,,,,,,cyan,triangle
0.0,1.0,0.5,0.0,5.0,5.0,390.1144170085899,3.0,1.0,phase_2,go,500.0,550.0,1.0,,,,,,,,,green,circle
0.0,1.0,0.5,0.0,5.0,5.0,383.9753729989752,3.0,1.0,phase_2,go,500.0,550.0,1.0,,,,,,,,,green,circle
0.0,1.0,0.5,0.0,6.0,6.0,769.0778809483163,3.0,1.0,phase_2,go,500.0,550.0,1.0,,,,,,,,,green,circle
0.0,8.0,4.0,1.0,6.0,6.0,333.5452330065891,3.0,1.0,phase_2,stop,500.0,550.0,3.0,,,,,,,,,white,square
0.0,3.0,2.0,0.0,5.0,5.0,452.0076360204257,3.0,1.0,phase_2,go,500.0,500.0,1.0,,,,,,,,,gray,I
0.0,6.0,1.0,1.0,5.0,5.0,718.7982879695483,3.0,1.0,phase_2,go,500.0,500.0,1.0,,,,,,,,,blue,hexagon
0.0,8.0,4.0,1.0,5.0,5.0,372.9883769992739,3.0,1.0,phase_2,stop,500.0,500.0,3.0,,,,,,,,,white,square
0.0,5.0,0.5,1.0,5.0,5.0,492.3280699877068,3.0,1.0,phase_2,go,450.0,500.0,1.0,,,,,,,,,yellow,cross
0.0,1.0,0.5,0.0,6.0,6.0,641.7301180190407,3.0,1.0,phase_2,go,450.0,500.0,1.0,,,,,,,,,green,circle
0.0,6.0,1.0,1.0,6.0,6.0,621.5424049878493,3.0,1.0,phase_2,go,450.0,500.0,1.0,,,,,,,,,blue,hexagon
0.0,1.0,0.5,0.0,6.0,6.0,1042.0849720248953,3.0,1.0,phase_2,go,450.0,500.0,1.0,,,,,,,,,green,circle
0.0,4.0,4.0,0.0,6.0,6.0,649.6275149984285,3.0,1.0,phase_2,go,450.0,500.0,1.0,,,,,,,,,magenta,flipped triangle
0.0,7.0,2.0,1.0,6.0,6.0,539.6879310137592,3.0,1.0,phase_2,stop,450.0,500.0,3.0,,,,,,,,,cyan,triangle
0.0,5.0,0.5,1.0,6.0,6.0,555.5208300356753,3.0,1.0,phase_2,stop,450.0,450.0,3.0,,,,,,,,,yellow,cross
0.0,6.0,1.0,1.0,5.0,5.0,642.0268449583091,3.0,1.0,phase_2,go,450.0,400.0,1.0,,,,,,,,,blue,hexagon
0.0,4.0,4.0,0.0,6.0,6.0,427.5747259962372,4.0,1.0,phase_2,go,450.0,400.0,1.0,,,,,,,,,magenta,flipped triangle
0.0,7.0,2.0,1.0,6.0,6.0,450.651174003724,4.0,1.0,phase_2,stop,450.0,400.0,3.0,,,,,,,,,cyan,triangle
0.0,2.0,1.0,0.0,5.0,5.0,518.1090779951774,4.0,1.0,phase_2,go,450.0,350.0,1.0,,,,,,,,,orange,diamond
0.0,2.0,1.0,0.0,6.0,6.0,570.3872389858589,4.0,1.0,phase_2,go,450.0,350.0,1.0,,,,,,,,,orange,diamond
0.0,8.0,4.0,1.0,5.0,5.0,371.0768699529581,4.0,1.0,phase_2,stop,450.0,350.0,3.0,,,,,,,,,white,square
0.0,4.0,4.0,0.0,5.0,5.0,586.3821170059964,4.0,1.0,phase_2,go,400.0,350.0,1.0,,,,,,,,,magenta,flipped triangle
0.0,7.0,2.0,1.0,5.0,5.0,417.9722210392356,4.0,1.0,phase_2,go,400.0,350.0,1.0,,,,,,,,,cyan,triangle
0.0,2.0,1.0,0.0,5.0,5.0,579.829036956653,4.0,1.0,phase_2,go,400.0,350.0,1.0,,,,,,,,,orange,diamond
0.0,1.0,0.5,0.0,5.0,5.0,554.1724030044861,4.0,1.0,phase_2,go,400.0,350.0,1.0,,,,,,,,,green,circle
0.0,5.0,0.5,1.0,6.0,0.0,0.0,4.0,1.0,phase_2,stop,400.0,350.0,4.0,,,,,,,,,yellow,cross
0.0,4.0,4.0,0.0,5.0,5.0,512.9249059827998,4.0,1.0,phase_2,go,400.0,400.0,1.0,,,,,,,,,magenta,flipped triangle
0.0,6.0,1.0,1.0,6.0,0.0,0.0,4.0,1.0,phase_2,stop,400.0,400.0,4.0,,,,,,,,,blue,hexagon
0.0,5.0,0.5,1.0,6.0,6.0,518.7552130082622,4.0,1.0,phase_2,go,400.0,450.0,1.0,,,,,,,,,yellow,cross
0.0,8.0,4.0,1.0,6.0,6.0,520.4392240266316,4.0,1.0,phase_2,go,400.0,450.0,1.0,,,,,,,,,white,square
0.0,7.0,2.0,1.0,6.0,6.0,421.0573460441082,4.0,1.0,phase_2,stop,400.0,450.0,3.0,,,,,,,,,cyan,triangle
0.0,5.0,0.5,1.0,5.0,5.0,483.2725470187142,4.0,1.0,phase_2,stop,400.0,400.0,3.0,,,,,,,,,yellow,cross
0.0,6.0,1.0,1.0,6.0,6.0,378.6493990337476,4.0,1.0,phase_2,stop,350.0,400.0,3.0,,,,,,,,,blue,hexagon
0.0,3.0,2.0,0.0,5.0,5.0,604.761031048838,4.0,1.0,phase_2,go,350.0,350.0,1.0,,,,,,,,,gray,I
0.0,3.0,2.0,0.0,5.0,5.0,538.4743150207214,4.0,1.0,phase_2,go,350.0,350.0,1.0,,,,,,,,,gray,I
0.0,8.0,4.0,1.0,5.0,5.0,537.711451004725,4.0,1.0,phase_2,go,350.0,350.0,1.0,,,,,,,,,white,square
0.0,3.0,2.0,0.0,6.0,6.0,435.0339729571715,4.0,1.0,phase_2,go,350.0,350.0,1.0,,,,,,,,,gray,I
0.0,3.0,2.0,0.0,5.0,5.0,640.0088089867495,4.0,1.0,phase_2,go,350.0,350.0,1.0,,,,,,,,,gray,I
0.0,7.0,2.0,1.0,5.0,0.0,0.0,4.0,1.0,phase_2,stop,350.0,350.0,4.0,,,,,,,,,cyan,triangle
0.0,1.0,0.5,0.0,6.0,6.0,472.8412900003604,4.0,1.0,phase_2,go,400.0,350.0,1.0,,,,,,,,,green,circle
0.0,1.0,0.5,0.0,6.0,6.0,573.9161579986103,4.0,1.0,phase_2,go,400.0,350.0,1.0,,,,,,,,,green,circle
0.0,7.0,2.0,1.0,5.0,5.0,489.8490000050515,4.0,1.0,phase_2,stop,400.0,350.0,3.0,,,,,,,,,cyan,triangle
0.0,4.0,4.0,0.0,5.0,5.0,357.236935000401,4.0,1.0,phase_2,go,350.0,350.0,1.0,,,,,,,,,magenta,flipped triangle
0.0,8.0,4.0,1.0,5.0,5.0,468.6222209711559,4.0,1.0,phase_2,go,350.0,350.0,1.0,,,,,,,,,white,square
0.0,6.0,1.0,1.0,5.0,0.0,0.0,4.0,1.0,phase_2,stop,350.0,350.0,4.0,,,,,,,,,blue,hexagon
0.0,5.0,0.5,1.0,6.0,6.0,492.3919050488621,4.0,1.0,phase_2,stop,400.0,350.0,3.0,,,,,,,,,yellow,cross
0.0,5.0,0.5,1.0,5.0,5.0,671.1250949883834,4.0,1.0,phase_2,go,400.0,300.0,1.0,,,,,,,,,yellow,cross
0.0,7.0,2.0,1.0,5.0,0.0,0.0,4.0,1.0,phase_2,stop,400.0,300.0,4.0,,,,,,,,,cyan,triangle
0.0,5.0,0.5,1.0,5.0,0.0,0.0,4.0,1.0,phase_2,stop,450.0,300.0,4.0,,,,,,,,,yellow,cross
0.0,7.0,2.0,1.0,6.0,0.0,0.0,4.0,1.0,phase_2,stop,500.0,300.0,4.0,,,,,,,,,cyan,triangle
0.0,1.0,0.5,0.0,5.0,5.0,504.62639599572867,4.0,1.0,phase_2,go,500.0,350.0,1.0,,,,,,,,,green,circle
0.0,7.0,2.0,1.0,6.0,0.0,0.0,4.0,1.0,phase_2,stop,500.0,350.0,4.0,,,,,,,,,cyan,triangle
0.0,2.0,1.0,0.0,6.0,6.0,504.52818401390687,5.0,1.0,phase_2,go,500.0,400.0,1.0,,,,,,,,,orange,diamond
0.0,1.0,0.5,0.0,6.0,6.0,559.5738449483179,5.0,1.0,phase_2,go,500.0,400.0,1.0,,,,,,,,,green,circle
0.0,8.0,4.0,1.0,5.0,5.0,502.1252239821479,5.0,1.0,phase_2,go,500.0,400.0,1.0,,,,,,,,,white,square
0.0,2.0,1.0,0.0,6.0,6.0,739.9137530010194,5.0,1.0,phase_2,go,500.0,400.0,1.0,,,,,,,,,orange,diamond
0.0,2.0,1.0,0.0,5.0,5.0,373.5189660219475,5.0,1.0,phase_2,go,500.0,400.0,1.0,,,,,,,,,orange,diamond
0.0,3.0,2.0,0.0,6.0,6.0,434.5589620061219,5.0,1.0,phase_2,go,500.0,400.0,1.0,,,,,,,,,gray,I
0.0,2.0,1.0,0.0,6.0,6.0,788.8037909870036,5.0,1.0,phase_2,go,500.0,400.0,1.0,,,,,,,,,orange,diamond
0.0,1.0,0.5,0.0,5.0,5.0,852.3314629564993,5.0,1.0,phase_2,go,500.0,400.0,1.0,,,,,,,,,green,circle
0.0,8.0,4.0,1.0,5.0,5.0,708.3796530496329,5.0,1.0,phase_2,stop,500.0,400.0,3.0,,,,,,,,,white,square
0.0,7.0,2.0,1.0,5.0,0.0,0.0,5.0,1.0,phase_2,stop,450.0,400.0,4.0,,,,,,,,,cyan,triangle
0.0,1.0,0.5,0.0,6.0,6.0,704.3883849983104,5.0,1.0,phase_2,go,500.0,400.0,1.0,,,,,,,,,green,circle
0.0,1.0,0.5,0.0,5.0,5.0,567.4697479698807,5.0,1.0,phase_2,go,500.0,400.0,1.0,,,,,,,,,green,circle
0.0,5.0,0.5,1.0,5.0,5.0,504.8364060348831,5.0,1.0,phase_2,go,500.0,400.0,1.0,,,,,,,,,yellow,cross
0.0,2.0,1.0,0.0,6.0,6.0,437.8255999763496,5.0,1.0,phase_2,go,500.0,400.0,1.0,,,,,,,,,orange,diamond
0.0,7.0,2.0,1.0,6.0,0.0,0.0,5.0,1.0,phase_2,stop,500.0,400.0,4.0,,,,,,,,,cyan,triangle
0.0,3.0,2.0,0.0,5.0,5.0,524.8839319683611,5.0,1.0,phase_2,go,500.0,450.0,1.0,,,,,,,,,gray,I
0.0,4.0,4.0,0.0,5.0,5.0,678.5704669891857,5.0,1.0,phase_2,go,500.0,450.0,1.0,,,,,,,,,magenta,flipped triangle
0.0,6.0,1.0,1.0,6.0,0.0,0.0,5.0,1.0,phase_2,stop,500.0,450.0,4.0,,,,,,,,,blue,hexagon
0.0,2.0,1.0,0.0,6.0,6.0,670.0428280164488,5.0,1.0,phase_2,go,500.0,500.0,1.0,,,,,,,,,orange,diamond
0.0,5.0,0.5,1.0,6.0,6.0,539.9802270112559,5.0,1.0,phase_2,stop,500.0,500.0,3.0,,,,,,,,,yellow,cross
0.0,7.0,2.0,1.0,6.0,0.0,0.0,5.0,1.0,phase_2,stop,500.0,450.0,4.0,,,,,,,,,cyan,triangle
0.0,1.0,0.5,0.0,6.0,6.0,642.1132830437273,5.0,1.0,phase_2,go,500.0,500.0,1.0,,,,,,,,,green,circle
0.0,5.0,0.5,1.0,5.0,5.0,519.0897510037757,5.0,1.0,phase_2,stop,500.0,500.0,3.0,,,,,,,,,yellow,cross
0.0,1.0,0.5,0.0,6.0,6.0,547.1813920303248,5.0,1.0,phase_2,go,450.0,500.0,1.0,,,,,,,,,green,circle
0.0,1.0,0.5,0.0,5.0,5.0,609.5255000400357,5.0,1.0,phase_2,go,450.0,500.0,1.0,,,,,,,,,green,circle
0.0,7.0,2.0,1.0,5.0,0.0,0.0,5.0,1.0,phase_2,stop,450.0,500.0,4.0,,,,,,,,,cyan,triangle
0.0,1.0,0.5,0.0,6.0,6.0,538.5319439810701,5.0,1.0,phase_2,go,500.0,500.0,1.0,,,,,,,,,green,circle
0.0,2.0,1.0,0.0,5.0,5.0,536.9815499871038,5.0,1.0,phase_2,go,500.0,500.0,1.0,,,,,,,,,orange,diamond
0.0,2.0,1.0,0.0,5.0,5.0,550.1982269925065,5.0,1.0,phase_2,go,500.0,500.0,1.0,,,,,,,,,orange,diamond
0.0,3.0,2.0,0.0,6.0,6.0,516.487026005052,5.0,1.0,phase_2,go,500.0,500.0,1.0,,,,,,,,,gray,I
0.0,5.0,0.5,1.0,5.0,5.0,520.5167779931799,5.0,1.0,phase_2,stop,500.0,500.0,3.0,,,,,,,,,yellow,cross
0.0,2.0,1.0,0.0,5.0,5.0,655.0581519841217,5.0,1.0,phase_2,go,450.0,500.0,1.0,,,,,,,,,orange,diamond
0.0,2.0,1.0,0.0,6.0,6.0,552.0500800339505,5.0,1.0,phase_2,go,450.0,500.0,1.0,,,,,,,,,orange,diamond
0.0,2.0,1.0,0.0,6.0,6.0,948.789856978692,5.0,1.0,phase_2,go,450.0,500.0,1.0,,,,,,,,,orange,diamond
0.0,1.0,0.5,0.0,5.0,5.0,666.0903839510866,5.0,1.0,phase_2,go,450.0,500.0,1.0,,,,,,,,,green,circle
0.0,1.0,0.5,0.0,5.0,5.0,515.2320319903083,5.0,1.0,phase_2,go,450.0,500.0,1.0,,,,,,,,,green,circle
0.0,4.0,4.0,0.0,6.0,6.0,400.8217249647714,6.0,1.0,phase_2,go,450.0,500.0,1.0,,,,,,,,,magenta,flipped triangle
0.0,5.0,0.5,1.0,5.0,5.0,489.9706210126169,6.0,1.0,phase_2,stop,450.0,500.0,3.0,,,,,,,,,yellow,cross
0.0,1.0,0.5,0.0,6.0,6.0,591.8685259530321,6.0,1.0,phase_2,go,400.0,500.0,1.0,,,,,,,,,green,circle
0.0,3.0,2.0,0.0,6.0,6.0,457.3114499798976,6.0,1.0,phase_2,go,400.0,500.0,1.0,,,,,,,,,gray,I
0.0,2.0,1.0,0.0,5.0,5.0,473.9043270237744,6.0,1.0,phase_2,go,400.0,500.0,1.0,,,,,,,,,orange,diamond
0.0,1.0,0.5,0.0,6.0,6.0,479.9447549739852,6.0,1.0,phase_2,go,400.0,500.0,1.0,,,,,,,,,green,circle
0.0,3.0,2.0,0.0,5.0,5.0,422.2206900012679,6.0,1.0,phase_2,go,400.0,500.0,1.0,,,,,,,,,gray,I
0.0,1.0,0.5,0.0,6.0,6.0,494.3759700399823,6.0,1.0,phase_2,go,400.0,500.0,1.0,,,,,,,,,green,circle
0.0,2.0,1.0,0.0,6.0,6.0,597.3488799645565,6.0,1.0,phase_2,go,400.0,500.0,1.0,,,,,,,,,orange,diamond
0.0,4.0,4.0,0.0,5.0,5.0,429.2199880001135,6.0,1.0,phase_2,go,400.0,500.0,1.0,,,,,,,,,magenta,flipped triangle
0.0,2.0,1.0,0.0,6.0,6.0,461.0682589700445,6.0,1.0,phase_2,go,400.0,500.0,1.0,,,,,,,,,orange,diamond
0.0,8.0,4.0,1.0,6.0,0.0,0.0,6.0,1.0,phase_2,stop,400.0,500.0,4.0,,,,,,,,,white,square
0.0,2.0,1.0,0.0,5.0,5.0,443.7950910069048,6.0,1.0,phase_2,go,400.0,550.0,1.0,,,,,,,,,orange,diamond
0.0,6.0,1.0,1.0,5.0,0.0,0.0,6.0,1.0,phase_2,stop,400.0,550.0,4.0,,,,,,,,,blue,hexagon
0.0,4.0,4.0,0.0,6.0,6.0,467.3504310194403,6.0,1.0,phase_2,go,450.0,550.0,1.0,,,,,,,,,magenta,flipped triangle
0.0,8.0,4.0,1.0,5.0,5.0,345.6891450332477,6.0,1.0,phase_2,stop,450.0,550.0,3.0,,,,,,,,,white,square
0.0,6.0,1.0,1.0,6.0,6.0,339.4266759860329,6.0,1.0,phase_2,stop,400.0,550.0,3.0,,,,,,,,,blue,hexagon
0.0,4.0,4.0,0.0,6.0,6.0,489.9185569956898,6.0,1.0,phase_2,go,400.0,500.0,1.0,,,,,,,,,magenta,flipped triangle
0.0,6.0,1.0,1.0,5.0,5.0,383.4584769792855,6.0,1.0,phase_2,stop,400.0,500.0,3.0,,,,,,,,,blue,hexagon
0.0,2.0,1.0,0.0,5.0,5.0,593.8701150007546,6.0,1.0,phase_2,go,350.0,500.0,1.0,,,,,,,,,orange,diamond
0.0,8.0,4.0,1.0,5.0,0.0,0.0,6.0,1.0,phase_2,stop,350.0,500.0,4.0,,,,,,,,,white,square
0.0,3.0,2.0,0.0,6.0,6.0,510.5268399929628,6.0,1.0,phase_2,go,400.0,500.0,1.0,,,,,,,,,gray,I
0.0,6.0,1.0,1.0,6.0,6.0,425.0057030003518,6.0,1.0,phase_2,stop,400.0,500.0,3.0,,,,,,,,,blue,hexagon
0.0,5.0,0.5,1.0,6.0,0.0,0.0,6.0,1.0,phase_2,stop,400.0,450.0,4.0,,,,,,,,,yellow,cross
0.0,7.0,2.0,1.0,5.0,0.0,0.0,6.0,1.0,phase_2,stop,400.0,500.0,4.0,,,,,,,,,cyan,triangle
0.0,2.0,1.0,0.0,5.0,5.0,590.7458729925565,6.0,1.0,phase_2,go,450.0,500.0,1.0,,,,,,,,,orange,diamond
0.0,3.0,2.0,0.0,6.0,6.0,494.0338560263626,6.0,1.0,phase_2,go,450.0,500.0,1.0,,,,,,,,,gray,I
0.0,8.0,4.0,1.0,6.0,6.0,345.5453339847736,6.0,1.0,phase_2,stop,450.0,500.0,3.0,,,,,,,,,white,square
0.0,2.0,1.0,0.0,5.0,5.0,677.3880609543994,6.0,1.0,phase_2,go,450.0,450.0,1.0,,,,,,,,,orange,diamond
0.0,6.0,1.0,1.0,5.0,5.0,492.028389009647,6.0,1.0,phase_2,stop,450.0,450.0,3.0,,,,,,,,,blue,hexagon
0.0,4.0,4.0,0.0,6.0,6.0,585.3136610239744,6.0,1.0,phase_2,go,400.0,450.0,1.0,,,,,,,,,magenta,flipped triangle
0.0,5.0,0.5,1.0,5.0,5.0,418.8363829744048,6.0,1.0,phase_2,stop,400.0,450.0,3.0,,,,,,,,,yellow,cross
0.0,7.0,2.0,1.0,5.0,5.0,489.7741270251572,6.0,1.0,phase_2,stop,350.0,450.0,3.0,,,,,,,,,cyan,triangle
0.0,6.0,1.0,1.0,6.0,6.0,512.4700659653172,6.0,1.0,phase_2,stop,300.0,450.0,3.0,,,,,,,,,blue,hexagon
0.0,4.0,4.0,0.0,6.0,6.0,502.6602629804984,6.0,1.0,phase_2,go,300.0,400.0,1.0,,,,,,,,,magenta,flipped triangle
0.0,7.0,2.0,1.0,6.0,6.0,742.1622500405647,6.0,1.0,phase_2,go,300.0,400.0,1.0,,,,,,,,,cyan,triangle
0.0,6.0,1.0,1.0,5.0,1.0,474.6234040358104,7.0,1.0,phase_2,stop,300.0,400.0,3.0,,,,,,,,,blue,hexagon
0.0,6.0,1.0,1.0,6.0,6.0,497.4207490449771,7.0,1.0,phase_2,stop,250.0,400.0,3.0,,,,,,,,,blue,hexagon
0.0,4.0,4.0,0.0,6.0,6.0,688.1876969709992,7.0,1.0,phase_2,go,250.0,350.0,1.0,,,,,,,,,magenta,flipped triangle
0.0,5.0,0.5,1.0,5.0,0.0,0.0,7.0,1.0,phase_2,stop,250.0,350.0,4.0,,,,,,,,,yellow,cross
0.0,5.0,0.5,1.0,6.0,0.0,0.0,7.0,1.0,phase_2,stop,300.0,350.0,4.0,,,,,,,,,yellow,cross
0.0,4.0,4.0,0.0,5.0,5.0,605.4977669846267,7.0,1.0,phase_2,go,300.0,400.0,1.0,,,,,,,,,magenta,flipped triangle
0.0,4.0,4.0,0.0,5.0,5.0,828.2811240060255,7.0,1.0,phase_2,go,300.0,400.0,1.0,,,,,,,,,magenta,flipped triangle
0.0,6.0,1.0,1.0,5.0,5.0,771.6840470093302,7.0,1.0,phase_2,go,300.0,400.0,1.0,,,,,,,,,blue,hexagon
0.0,8.0,4.0,1.0,6.0,0.0,0.0,7.0,1.0,phase_2,stop,300.0,400.0,4.0,,,,,,,,,white,square
0.0,3.0,2.0,0.0,6.0,6.0,701.3823660090566,7.0,1.0,phase_2,go,300.0,450.0,1.0,,,,,,,,,gray,I
0.0,4.0,4.0,0.0,5.0,5.0,746.1012990097515,7.0,1.0,phase_2,go,300.0,450.0,1.0,,,,,,,,,magenta,flipped triangle
0.0,1.0,0.5,0.0,5.0,5.0,585.5706610018387,7.0,1.0,phase_2,go,300.0,450.0,1.0,,,,,,,,,green,circle
0.0,6.0,1.0,1.0,6.0,6.0,541.0025330493227,7.0,1.0,phase_2,stop,300.0,450.0,3.0,,,,,,,,,blue,hexagon
0.0,2.0,1.0,0.0,5.0,5.0,736.1955170053989,7.0,1.0,phase_2,go,300.0,400.0,1.0,,,,,,,,,orange,diamond
0.0,8.0,4.0,1.0,5.0,0.0,0.0,7.0,1.0,phase_2,stop,300.0,400.0,4.0,,,,,,,,,white,square
0.0,4.0,4.0,0.0,5.0,5.0,672.097684990149,7.0,1.0,phase_2,go,350.0,400.0,1.0,,,,,,,,,magenta,flipped triangle
0.0,7.0,2.0,1.0,6.0,6.0,761.4170419983566,7.0,1.0,phase_2,go,350.0,400.0,1.0,,,,,,,,,cyan,triangle
0.0,1.0,0.5,0.0,5.0,5.0,662.2695269761607,7.0,1.0,phase_2,go,350.0,400.0,1.0,,,,,,,,,green,circle
0.0,3.0,2.0,0.0,6.0,6.0,775.8361720480025,7.0,1.0,phase_2,go,350.0,400.0,1.0,,,,,,,,,gray,I
0.0,2.0,1.0,0.0,6.0,6.0,630.7262280024588,7.0,1.0,phase_2,go,350.0,400.0,1.0,,,,,,,,,orange,diamond
0.0,4.0,4.0,0.0,5.0,5.0,582.6710679684766,7.0,1.0,phase_2,go,350.0,400.0,1.0,,,,,,,,,magenta,flipped triangle
0.0,7.0,2.0,1.0,5.0,0.0,0.0,7.0,1.0,phase_2,stop,350.0,400.0,4.0,,,,,,,,,cyan,triangle
0.0,8.0,4.0,1.0,6.0,0.0,0.0,7.0,1.0,phase_2,stop,400.0,400.0,4.0,,,,,,,,,white,square
0.0,4.0,4.0,0.0,6.0,6.0,446.3293459848501,7.0,1.0,phase_2,go,400.0,450.0,1.0,,,,,,,,,magenta,flipped triangle
0.0,3.0,2.0,0.0,5.0,5.0,548.0096070095897,7.0,1.0,phase_2,go,400.0,450.0,1.0,,,,,,,,,gray,I
0.0,2.0,1.0,0.0,6.0,6.0,685.8479190268554,7.0,1.0,phase_2,go,400.0,450.0,1.0,,,,,,,,,orange,diamond
0.0,8.0,4.0,1.0,6.0,6.0,589.2573819728568,7.0,1.0,phase_2,go,400.0,450.0,1.0,,,,,,,,,white,square
0.0,5.0,0.5,1.0,6.0,6.0,496.556915983092,7.0,1.0,phase_2,stop,400.0,450.0,3.0,,,,,,,,,yellow,cross
0.0,5.0,0.5,1.0,6.0,0.0,0.0,7.0,1.0,phase_2,stop,400.0,400.0,4.0,,,,,,,,,yellow,cross
0.0,2.0,1.0,0.0,6.0,6.0,529.4793240027502,7.0,1.0,phase_2,go,400.0,450.0,1.0,,,,,,,,,orange,diamond
0.0,5.0,0.5,1.0,6.0,6.0,530.1593439653516,7.0,1.0,phase_2,stop,400.0,450.0,3.0,,,,,,,,,yellow,cross
0.0,2.0,1.0,0.0,5.0,5.0,617.0416889945045,7.0,1.0,phase_2,go,400.0,400.0,1.0,,,,,,,,,orange,diamond
0.0,5.0,0.5,1.0,5.0,0.0,0.0,7.0,1.0,phase_2,stop,400.0,400.0,4.0,,,,,,,,,yellow,cross
0.0,6.0,1.0,1.0,6.0,0.0,0.0,7.0,1.0,phase_2,stop,450.0,400.0,4.0,,,,,,,,,blue,hexagon
0.0,6.0,1.0,1.0,6.0,6.0,559.3728579697199,7.0,1.0,phase_2,stop,450.0,450.0,3.0,,,,,,,,,blue,hexagon
0.0,2.0,1.0,0.0,5.0,5.0,630.380682006944,7.0,1.0,phase_2,go,450.0,400.0,1.0,,,,,,,,,orange,diamond
0.0,7.0,2.0,1.0,6.0,6.0,350.2531879930757,8.0,1.0,phase_2,stop,450.0,400.0,3.0,,,,,,,,,cyan,triangle
0.0,2.0,1.0,0.0,5.0,5.0,415.832974947989,8.0,1.0,phase_2,go,450.0,350.0,1.0,,,,,,,,,orange,diamond
0.0,8.0,4.0,1.0,5.0,5.0,468.0889910086989,8.0,1.0,phase_2,stop,450.0,350.0,3.0,,,,,,,,,white,square
0.0,8.0,4.0,1.0,6.0,6.0,451.2153249816037,8.0,1.0,phase_2,stop,400.0,350.0,3.0,,,,,,,,,white,square
0.0,2.0,1.0,0.0,5.0,5.0,317.0725249801762,8.0,1.0,phase_2,go,400.0,300.0,1.0,,,,,,,,,orange,diamond
0.0,8.0,4.0,1.0,6.0,6.0,579.8897229833528,8.0,1.0,phase_2,go,400.0,300.0,1.0,,,,,,,,,white,square
0.0,7.0,2.0,1.0,6.0,6.0,596.9475409947336,8.0,1.0,phase_2,go,400.0,300.0,1.0,,,,,,,,,cyan,triangle
0.0,3.0,2.0,0.0,5.0,5.0,516.4366929675452,8.0,1.0,phase_2,go,400.0,300.0,1.0,,,,,,,,,gray,I
0.0,2.0,1.0,0.0,5.0,5.0,539.9750799988396,8.0,1.0,phase_2,go,400.0,300.0,1.0,,,,,,,,,orange,diamond
0.0,4.0,4.0,0.0,6.0,6.0,433.6984140099957,8.0,1.0,phase_2,go,400.0,300.0,1.0,,,,,,,,,magenta,flipped triangle
0.0,5.0,0.5,1.0,6.0,0.0,0.0,8.0,1.0,phase_2,stop,400.0,300.0,4.0,,,,,,,,,yellow,cross
0.0,7.0,2.0,1.0,5.0,5.0,386.4051140262745,8.0,1.0,phase_2,stop,400.0,350.0,3.0,,,,,,,,,cyan,triangle
0.0,6.0,1.0,1.0,5.0,0.0,0.0,8.0,1.0,phase_2,stop,350.0,350.0,4.0,,,,,,,,,blue,hexagon
0.0,3.0,2.0,0.0,5.0,5.0,453.0753060244024,8.0,1.0,phase_2,go,400.0,350.0,1.0,,,,,,,,,gray,I
0.0,6.0,1.0,1.0,5.0,5.0,540.8495910232887,8.0,1.0,phase_2,go,400.0,350.0,1.0,,,,,,,,,blue,hexagon
0.0,8.0,4.0,1.0,6.0,0.0,0.0,8.0,1.0,phase_2,stop,400.0,350.0,4.0,,,,,,,,,white,square
0.0,5.0,0.5,1.0,5.0,5.0,431.314751971513,8.0,1.0,phase_2,stop,400.0,400.0,3.0,,,,,,,,,yellow,cross
0.0,3.0,2.0,0.0,5.0,5.0,405.5156179820187,8.0,1.0,phase_2,go,350.0,400.0,1.0,,,,,,,,,gray,I
0.0,1.0,0.5,0.0,5.0,5.0,518.464554043021,8.0,1.0,phase_2,go,350.0,400.0,1.0,,,,,,,,,green,circle
0.0,1.0,0.5,0.0,5.0,5.0,369.6500560035929,8.0,1.0,phase_2,go,350.0,400.0,1.0,,,,,,,,,green,circle
0.0,6.0,1.0,1.0,6.0,0.0,0.0,8.0,1.0,phase_2,stop,350.0,400.0,4.0,,,,,,,,,blue,hexagon
0.0,7.0,2.0,1.0,6.0,6.0,657.4977139825933,8.0,1.0,phase_2,go,350.0,450.0,1.0,,,,,,,,,cyan,triangle
0.0,8.0,4.0,1.0,5.0,0.0,0.0,8.0,1.0,phase_2,stop,350.0,450.0,4.0,,,,,,,,,white,square
0.0,8.0,4.0,1.0,6.0,6.0,539.4747870159335,8.0,1.0,phase_2,stop,400.0,450.0,3.0,,,,,,,,,white,square
0.0,1.0,0.5,0.0,6.0,6.0,552.9212299734354,8.0,1.0,phase_2,go,400.0,400.0,1.0,,,,,,,,,green,circle
0.0,6.0,1.0,1.0,6.0,6.0,658.4898189757951,8.0,1.0,phase_2,go,400.0,400.0,1.0,,,,,,,,,blue,hexagon
0.0,7.0,2.0,1.0,6.0,6.0,506.05785695370287,8.0,1.0,phase_2,go,400.0,400.0,1.0,,,,,,,,,cyan,triangle
0.0,6.0,1.0,1.0,5.0,5.0,517.6693550311029,8.0,1.0,phase_2,stop,400.0,400.0,3.0,,,,,,,,,blue,hexagon
0.0,6.0,1.0,1.0,6.0,6.0,604.7596760326996,8.0,1.0,phase_2,go,350.0,400.0,1.0,,,,,,,,,blue,hexagon
0.0,7.0,2.0,1.0,5.0,0.0,0.0,8.0,1.0,phase_2,stop,350.0,400.0,4.0,,,,,,,,,cyan,triangle
0.0,8.0,4.0,1.0,6.0,6.0,551.1294429888949,8.0,1.0,phase_2,stop,400.0,400.0,3.0,,,,,,,,,white,square
0.0,7.0,2.0,1.0,5.0,5.0,550.2925519831479,8.0,1.0,phase_2,go,400.0,350.0,1.0,,,,,,,,,cyan,triangle
0.0,2.0,1.0,0.0,6.0,6.0,725.6171259796247,8.0,1.0,phase_2,go,400.0,350.0,1.0,,,,,,,,,orange,diamond
0.0,3.0,2.0,0.0,6.0,6.0,565.1136179803871,8.0,1.0,phase_2,go,400.0,350.0,1.0,,,,,,,,,gray,I
0.0,1.0,0.5,0.0,5.0,5.0,564.2590629868209,8.0,1.0,phase_2,go,400.0,350.0,1.0,,,,,,,,,green,circle
0.0,7.0,2.0,1.0,5.0,0.0,0.0,8.0,1.0,phase_2,stop,400.0,350.0,4.0,,,,,,,,,cyan,triangle
0.0,4.0,4.0,0.0,7.0,2.0,3700.2360870246775,1.0,1.0,phase_3,,,,,204.0,6.0,136.0,204.0,68.0,170.0,34.0,102.0,magenta,flipped triangle
0.0,4.0,4.0,0.0,7.0,5.0,2683.428093965631,1.0,1.0,phase_3,,,,,216.0,4.0,324.0,162.0,270.0,108.0,216.0,54.0,magenta,flipped triangle
0.0,1.0,0.5,0.0,7.0,2.0,2910.449480987154,1.0,1.0,phase_3,,,,,108.0,2.0,54.0,108.0,162.0,270.0,324.0,216.0,green,circle
0.0,2.0,1.0,0.0,7.0,3.0,2200.853857968468,1.0,1.0,phase_3,,,,,264.0,6.0,88.0,176.0,264.0,44.0,220.0,132.0,orange,diamond
0.0,4.0,4.0,0.0,7.0,2.0,2274.902699980885,1.0,1.0,phase_3,,,,,170.0,5.0,136.0,170.0,204.0,68.0,34.0,102.0,magenta,flipped triangle
0.0,6.0,1.0,1.0,7.0,6.0,4241.511580999941,1.0,1.0,phase_3,,,,,234.0,6.0,78.0,117.0,156.0,39.0,195.0,234.0,blue,hexagon
0.0,3.0,2.0,0.0,7.0,5.0,2254.200013994705,1.0,1.0,phase_3,,,,,39.0,1.0,234.0,156.0,78.0,117.0,39.0,195.0,gray,I
0.0,7.0,2.0,1.0,7.0,1.0,4082.0660670287907,1.0,1.0,phase_3,,,,,170.0,5.0,170.0,34.0,68.0,102.0,204.0,136.0,cyan,triangle
0.0,6.0,1.0,1.0,7.0,6.0,2635.2941560326144,1.0,1.0,phase_3,,,,,234.0,6.0,39.0,156.0,117.0,195.0,78.0,234.0,blue,hexagon
0.0,7.0,2.0,1.0,7.0,4.0,2335.3851580177434,1.0,1.0,phase_3,,,,,294.0,6.0,196.0,98.0,147.0,294.0,245.0,49.0,cyan,triangle
0.0,5.0,0.5,1.0,7.0,3.0,2457.854041014798,1.0,1.0,phase_3,,,,,294.0,6.0,49.0,98.0,294.0,245.0,147.0,196.0,yellow,cross
0.0,5.0,0.5,1.0,7.0,6.0,1578.4036829718389,1.0,1.0,phase_3,,,,,234.0,6.0,39.0,78.0,156.0,117.0,195.0,234.0,yellow,cross
0.0,2.0,1.0,0.0,7.0,5.0,4515.812945028301,1.0,1.0,phase_3,,,,,270.0,5.0,54.0,324.0,108.0,162.0,270.0,216.0,orange,diamond
0.0,7.0,2.0,1.0,7.0,2.0,2563.894202990923,1.0,2.0,phase_3,,,,,108.0,2.0,270.0,108.0,162.0,54.0,324.0,216.0,cyan,triangle
0.0,8.0,4.0,1.0,7.0,4.0,889.1611690050922,1.0,1.0,phase_3,,,,,102.0,3.0,170.0,68.0,204.0,102.0,34.0,136.0,white,square
0.0,7.0,2.0,1.0,7.0,6.0,1913.0053750122895,1.0,1.0,phase_3,,,,,170.0,5.0,204.0,102.0,34.0,136.0,68.0,170.0,cyan,triangle
0.0,3.0,2.0,0.0,7.0,1.0,2151.8996139639057,1.0,1.0,phase_3,,,,,49.0,1.0,49.0,294.0,98.0,245.0,196.0,147.0,gray,I
0.0,1.0,0.5,0.0,7.0,1.0,2681.160522974096,1.0,1.0,phase_3,,,,,98.0,2.0,98.0,294.0,245.0,196.0,49.0,147.0,green,circle
0.0,8.0,4.0,1.0,7.0,2.0,2677.848562016152,1.0,1.0,phase_3,,,,,245.0,5.0,147.0,245.0,98.0,294.0,49.0,196.0,white,square
0.0,7.0,2.0,1.0,7.0,4.0,2134.6421689959243,1.0,1.0,phase_3,,,,,162.0,3.0,108.0,270.0,324.0,162.0,54.0,216.0,cyan,triangle
0.0,6.0,1.0,1.0,7.0,6.0,2022.403845039662,2.0,1.0,phase_3,,,,,264.0,6.0,88.0,176.0,220.0,44.0,132.0,264.0,blue,hexagon
0.0,8.0,4.0,1.0,7.0,4.0,2375.5049040191807,2.0,1.0,phase_3,,,,,270.0,5.0,108.0,54.0,324.0,270.0,216.0,162.0,white,square
0.0,2.0,1.0,0.0,7.0,3.0,1543.727710028179,2.0,1.0,phase_3,,,,,88.0,2.0,220.0,264.0,88.0,44.0,176.0,132.0,orange,diamond
0.0,7.0,2.0,1.0,7.0,5.0,1207.7419459819794,2.0,1.0,phase_3,,,,,39.0,1.0,195.0,78.0,117.0,234.0,39.0,156.0,cyan,triangle
0.0,4.0,4.0,0.0,7.0,1.0,2505.6354390108027,2.0,1.0,phase_3,,,,,294.0,6.0,294.0,98.0,147.0,49.0,196.0,245.0,magenta,flipped triangle
0.0,5.0,0.5,1.0,7.0,3.0,2028.812400996685,2.0,1.0,phase_3,,,,,324.0,6.0,108.0,162.0,324.0,270.0,54.0,216.0,yellow,cross
0.0,1.0,0.5,0.0,7.0,4.0,1348.637912014965,2.0,1.0,phase_3,,,,,68.0,2.0,34.0,102.0,204.0,68.0,136.0,170.0,green,circle
0.0,1.0,0.5,0.0,7.0,1.0,2092.873801011592,2.0,1.0,phase_3,,,,,78.0,2.0,78.0,156.0,234.0,195.0,39.0,117.0,green,circle
0.0,4.0,4.0,0.0,7.0,4.0,2503.839609969873,2.0,1.0,phase_3,,,,,234.0,6.0,156.0,195.0,78.0,234.0,117.0,39.0,magenta,flipped triangle
0.0,2.0,1.0,0.0,7.0,6.0,2202.6143259718083,2.0,1.0,phase_3,,,,,147.0,3.0,294.0,196.0,49.0,98.0,245.0,147.0,orange,diamond
0.0,8.0,4.0,1.0,7.0,2.0,1729.1408549644984,2.0,1.0,phase_3,,,,,39.0,1.0,195.0,39.0,156.0,78.0,234.0,117.0,white,square
0.0,7.0,2.0,1.0,7.0,1.0,2165.6411690055397,2.0,1.0,phase_3,,,,,88.0,2.0,88.0,176.0,44.0,264.0,220.0,132.0,cyan,triangle
0.0,6.0,1.0,1.0,7.0,3.0,1764.239793003071,2.0,1.0,phase_3,,,,,162.0,3.0,324.0,216.0,162.0,54.0,108.0,270.0,blue,hexagon
0.0,7.0,2.0,1.0,7.0,5.0,1991.380785999354,2.0,1.0,phase_3,,,,,88.0,2.0,264.0,132.0,220.0,176.0,88.0,44.0,cyan,triangle
0.0,2.0,1.0,0.0,7.0,1.0,2062.142394017428,2.0,1.0,phase_3,,,,,78.0,2.0,78.0,234.0,117.0,39.0,156.0,195.0,orange,diamond
0.0,3.0,2.0,0.0,7.0,4.0,2432.6131860143505,2.0,1.0,phase_3,,,,,68.0,2.0,170.0,102.0,34.0,68.0,204.0,136.0,gray,I
0.0,5.0,0.5,1.0,7.0,3.0,3172.406679019332,2.0,1.0,phase_3,,,,,196.0,4.0,294.0,245.0,196.0,98.0,49.0,147.0,yellow,cross
0.0,8.0,4.0,1.0,7.0,3.0,1970.7208659965545,2.0,1.0,phase_3,,,,,132.0,3.0,264.0,176.0,132.0,220.0,88.0,44.0,white,square
0.0,4.0,4.0,0.0,7.0,2.0,2367.098060029093,2.0,1.0,phase_3,,,,,98.0,2.0,49.0,98.0,196.0,245.0,294.0,147.0,magenta,flipped triangle
0.0,7.0,2.0,1.0,7.0,4.0,2623.787819989957,2.0,1.0,phase_3,,,,,49.0,1.0,98.0,245.0,147.0,49.0,196.0,294.0,cyan,triangle
0.0,6.0,1.0,1.0,7.0,4.0,1727.8719039750283,3.0,1.0,phase_3,,,,,204.0,6.0,102.0,34.0,136.0,204.0,170.0,68.0,blue,hexagon
0.0,5.0,0.5,1.0,7.0,4.0,1501.2906840420328,3.0,1.0,phase_3,,,,,204.0,6.0,68.0,34.0,102.0,204.0,136.0,170.0,yellow,cross
0.0,6.0,1.0,1.0,7.0,2.0,1393.7541750492528,3.0,1.0,phase_3,,,,,204.0,6.0,170.0,204.0,68.0,102.0,34.0,136.0,blue,hexagon
0.0,5.0,0.5,1.0,7.0,3.0,2385.080184030812,3.0,1.0,phase_3,,,,,234.0,6.0,39.0,117.0,234.0,78.0,195.0,156.0,yellow,cross
0.0,1.0,0.5,0.0,7.0,1.0,2147.420282009989,3.0,1.0,phase_3,,,,,108.0,2.0,108.0,54.0,162.0,216.0,270.0,324.0,green,circle
0.0,8.0,4.0,1.0,7.0,2.0,3602.710940001998,3.0,1.0,phase_3,,,,,98.0,2.0,245.0,98.0,49.0,196.0,147.0,294.0,white,square
0.0,3.0,2.0,0.0,7.0,3.0,2148.1720249867067,3.0,1.0,phase_3,,,,,170.0,5.0,136.0,102.0,170.0,68.0,204.0,34.0,gray,I
0.0,3.0,2.0,0.0,7.0,5.0,2430.056743964087,3.0,1.0,phase_3,,,,,245.0,5.0,98.0,196.0,147.0,294.0,245.0,49.0,gray,I
0.0,2.0,1.0,0.0,7.0,2.0,2774.912274966482,3.0,1.0,phase_3,,,,,136.0,4.0,102.0,136.0,170.0,68.0,34.0,204.0,orange,diamond
0.0,5.0,0.5,1.0,7.0,1.0,2586.784954997711,3.0,1.0,phase_3,,,,,220.0,5.0,220.0,44.0,132.0,264.0,176.0,88.0,yellow,cross
0.0,8.0,4.0,1.0,7.0,3.0,1843.3555630035696,3.0,1.0,phase_3,,,,,176.0,4.0,132.0,88.0,176.0,44.0,264.0,220.0,white,square
0.0,2.0,1.0,0.0,7.0,1.0,2723.555665987078,3.0,1.0,phase_3,,,,,147.0,3.0,147.0,98.0,196.0,245.0,294.0,49.0,orange,diamond
0.0,4.0,4.0,0.0,7.0,6.0,2877.960684010759,3.0,1.0,phase_3,,,,,108.0,2.0,162.0,54.0,324.0,216.0,270.0,108.0,magenta,flipped triangle
0.0,2.0,1.0,0.0,7.0,5.0,3110.965749016032,3.0,1.0,phase_3,,,,,170.0,5.0,68.0,34.0,204.0,102.0,170.0,136.0,orange,diamond
0.0,3.0,2.0,0.0,7.0,4.0,1522.715087980032,3.0,1.0,phase_3,,,,,54.0,1.0,162.0,108.0,324.0,54.0,270.0,216.0,gray,I
0.0,5.0,0.5,1.0,7.0,3.0,2651.830891030841,3.0,1.0,phase_3,,,,,176.0,4.0,220.0,88.0,176.0,132.0,44.0,264.0,yellow,cross
0.0,6.0,1.0,1.0,7.0,1.0,2226.8506649998017,3.0,1.0,phase_3,,,,,264.0,6.0,264.0,220.0,176.0,88.0,44.0,132.0,blue,hexagon
0.0,6.0,1.0,1.0,7.0,1.0,2190.856842964422,3.0,1.0,phase_3,,,,,270.0,5.0,270.0,108.0,54.0,216.0,162.0,324.0,blue,hexagon
0.0,3.0,2.0,0.0,7.0,6.0,2261.8449620204046,3.0,1.0,phase_3,,,,,88.0,2.0,220.0,176.0,264.0,132.0,44.0,88.0,gray,I
0.0,3.0,2.0,0.0,7.0,5.0,2846.8354109791107,3.0,1.0,phase_3,,,,,264.0,6.0,176.0,88.0,44.0,220.0,264.0,132.0,gray,I
0.0,8.0,4.0,1.0,7.0,4.0,2205.071291013155,4.0,1.0,phase_3,,,,,68.0,2.0,34.0,204.0,102.0,68.0,136.0,170.0,white,square
0.0,3.0,2.0,0.0,7.0,6.0,1601.9341819919646,4.0,1.0,phase_3,,,,,162.0,3.0,54.0,216.0,270.0,324.0,108.0,162.0,gray,I
0.0,6.0,1.0,1.0,7.0,1.0,2640.3375979862176,4.0,1.0,phase_3,,,,,196.0,4.0,196.0,49.0,147.0,98.0,294.0,245.0,blue,hexagon
0.0,4.0,4.0,0.0,7.0,5.0,2985.298371000681,4.0,1.0,phase_3,,,,,220.0,5.0,176.0,44.0,264.0,88.0,220.0,132.0,magenta,flipped triangle
0.0,1.0,0.5,0.0,7.0,3.0,2585.971515043638,4.0,1.0,phase_3,,,,,170.0,5.0,34.0,204.0,170.0,102.0,136.0,68.0,green,circle
0.0,8.0,4.0,1.0,7.0,5.0,1899.7253269772043,4.0,1.0,phase_3,,,,,54.0,1.0,108.0,324.0,270.0,216.0,54.0,162.0,white,square
0.0,2.0,1.0,0.0,7.0,1.0,1870.5403009662405,4.0,1.0,phase_3,,,,,156.0,4.0,156.0,234.0,117.0,78.0,39.0,195.0,orange,diamond
0.0,1.0,0.5,0.0,7.0,3.0,3127.883282955736,4.0,1.0,phase_3,,,,,44.0,1.0,88.0,264.0,44.0,220.0,132.0,176.0,green,circle
0.0,1.0,0.5,0.0,7.0,3.0,1867.63452203013,4.0,1.0,phase_3,,,,,78.0,2.0,234.0,39.0,78.0,195.0,117.0,156.0,green,circle
0.0,1.0,0.5,0.0,7.0,6.0,1745.5702649895102,4.0,1.0,phase_3,,,,,98.0,2.0,147.0,196.0,294.0,49.0,245.0,98.0,green,circle
0.0,1.0,0.5,0.0,7.0,2.0,1893.7301390105856,4.0,1.0,phase_3,,,,,44.0,1.0,264.0,44.0,176.0,88.0,132.0,220.0,green,circle
0.0,4.0,4.0,0.0,7.0,3.0,4318.63259797683,4.0,1.0,phase_3,,,,,195.0,5.0,117.0,234.0,195.0,78.0,156.0,39.0,magenta,flipped triangle
0.0,6.0,1.0,1.0,7.0,3.0,1957.450854999479,4.0,1.0,phase_3,,,,,294.0,6.0,147.0,49.0,294.0,245.0,98.0,196.0,blue,hexagon
0.0,5.0,0.5,1.0,7.0,2.0,2712.888968992047,4.0,1.0,phase_3,,,,,216.0,4.0,324.0,216.0,54.0,270.0,108.0,162.0,yellow,cross
0.0,3.0,2.0,0.0,7.0,4.0,2720.509961014613,4.0,1.0,phase_3,,,,,39.0,1.0,156.0,234.0,195.0,39.0,117.0,78.0,gray,I
0.0,7.0,2.0,1.0,7.0,2.0,3193.6196819879115,4.0,1.0,phase_3,,,,,156.0,4.0,78.0,156.0,117.0,234.0,39.0,195.0,cyan,triangle
0.0,4.0,4.0,0.0,7.0,6.0,3028.0370709951967,4.0,1.0,phase_3,,,,,88.0,2.0,220.0,132.0,176.0,44.0,264.0,88.0,magenta,flipped triangle
0.0,8.0,4.0,1.0,7.0,6.0,2711.556085967459,4.0,1.0,phase_3,,,,,78.0,2.0,156.0,39.0,195.0,234.0,117.0,78.0,white,square
0.0,5.0,0.5,1.0,7.0,5.0,2520.7138020196,4.0,1.0,phase_3,,,,,170.0,5.0,102.0,136.0,34.0,68.0,170.0,204.0,yellow,cross
0.0,2.0,1.0,0.0,7.0,5.0,1872.9466359945943,4.0,1.0,phase_3,,,,,162.0,3.0,108.0,324.0,270.0,216.0,162.0,54.0,orange,diamond
