raw_reward_magnitude,stim_reward,stepwise_reward_magnitude,paired_with_stopping,quadrant,response,reaction_time,block,num_trial_presentations,which_part,stop_signal_trial_type,left_SSD,right_SSD,accuracy,chosen_bidding_amount,chosen_bidding_level,possible_bid_1,possible_bid_2,possible_bid_3,possible_bid_4,possible_bid_5,possible_bid_6,color_text,shape_text
410.0,4.0,4.0,0.0,2.0,2.0,408.4377019898966,1.0,1.0,part_1,,,,,,,,,,,,,orange,cross
424.0,4.0,4.0,0.0,4.0,4.0,389.4123390200548,1.0,1.0,part_1,,,,,,,,,,,,,orange,cross
176.0,7.0,3.0,1.0,3.0,3.0,502.88033101242036,1.0,1.0,part_1,,,,,,,,,,,,,white,triangle
205.0,7.0,3.0,1.0,1.0,1.0,391.3785599870607,1.0,1.0,part_1,,,,,,,,,,,,,white,triangle
378.0,4.0,4.0,0.0,2.0,2.0,335.9620189876295,1.0,1.0,part_1,,,,,,,,,,,,,orange,cross
379.0,4.0,4.0,0.0,2.0,2.0,405.8925340068526,1.0,1.0,part_1,,,,,,,,,,,,,orange,cross
110.0,6.0,2.0,1.0,2.0,2.0,425.3927009995095,1.0,1.0,part_1,,,,,,,,,,,,,blue,diamond
32.0,5.0,1.0,1.0,4.0,4.0,360.0766289746389,1.0,1.0,part_1,,,,,,,,,,,,,green,hexagon
382.0,4.0,4.0,0.0,3.0,3.0,388.9406769885681,1.0,1.0,part_1,,,,,,,,,,,,,orange,cross
107.0,6.0,2.0,1.0,2.0,2.0,322.5891739712097,1.0,1.0,part_1,,,,,,,,,,,,,blue,diamond
117.0,2.0,2.0,0.0,3.0,3.0,349.5518729905598,1.0,1.0,part_1,,,,,,,,,,,,,magenta,square
82.0,2.0,2.0,0.0,4.0,4.0,393.5784079949371,1.0,1.0,part_1,,,,,,,,,,,,,magenta,square
123.0,2.0,2.0,0.0,1.0,1.0,377.5558409979567,1.0,1.0,part_1,,,,,,,,,,,,,magenta,square
376.0,4.0,4.0,0.0,1.0,1.0,378.3758360077627,1.0,1.0,part_1,,,,,,,,,,,,,orange,cross
0.0,8.0,0.0,1.0,4.0,4.0,393.9660549513064,1.0,1.0,part_1,,,,,,,,,,,,,yellow,I
409.0,8.0,4.0,1.0,3.0,3.0,287.5002369983122,1.0,1.0,part_1,,,,,,,,,,,,,yellow,I
94.0,2.0,2.0,0.0,2.0,2.0,330.4716480197385,1.0,1.0,part_1,,,,,,,,,,,,,magenta,square
58.0,1.0,1.0,0.0,3.0,3.0,271.7777600046247,1.0,1.0,part_1,,,,,,,,,,,,,cyan,circle
77.0,6.0,2.0,1.0,1.0,1.0,314.0874630189501,1.0,1.0,part_1,,,,,,,,,,,,,blue,diamond
404.0,4.0,4.0,0.0,2.0,2.0,290.0122000137344,1.0,1.0,part_1,,,,,,,,,,,,,orange,cross
69.0,5.0,1.0,1.0,4.0,4.0,603.937704989221,1.0,1.0,part_1,,,,,,,,,,,,,green,hexagon
407.0,8.0,4.0,1.0,2.0,2.0,346.0853460128419,1.0,1.0,part_1,,,,,,,,,,,,,yellow,I
101.0,2.0,2.0,0.0,1.0,1.0,428.36135905236,1.0,1.0,part_1,,,,,,,,,,,,,magenta,square
31.0,5.0,1.0,1.0,4.0,4.0,329.7149479622021,1.0,1.0,part_1,,,,,,,,,,,,,green,hexagon
108.0,2.0,2.0,0.0,3.0,3.0,408.6050319601781,1.0,1.0,part_1,,,,,,,,,,,,,magenta,square
117.0,2.0,2.0,0.0,3.0,3.0,308.508274029009,1.0,1.0,part_1,,,,,,,,,,,,,magenta,square
0.0,3.0,0.0,0.0,3.0,3.0,371.1965230177156,1.0,1.0,part_1,,,,,,,,,,,,,gray,flipped triangle
216.0,7.0,3.0,1.0,1.0,1.0,317.4236349877901,1.0,1.0,part_1,,,,,,,,,,,,,white,triangle
0.0,7.0,0.0,1.0,4.0,4.0,356.1585940187797,1.0,1.0,part_1,,,,,,,,,,,,,white,triangle
109.0,2.0,2.0,0.0,1.0,1.0,463.2303629769012,1.0,1.0,part_1,,,,,,,,,,,,,magenta,square
413.0,8.0,4.0,1.0,4.0,4.0,314.9498079437762,1.0,1.0,part_1,,,,,,,,,,,,,yellow,I
72.0,5.0,1.0,1.0,3.0,3.0,335.7372899772599,1.0,1.0,part_1,,,,,,,,,,,,,green,hexagon
212.0,3.0,3.0,0.0,3.0,3.0,357.6374750118702,1.0,1.0,part_1,,,,,,,,,,,,,gray,flipped triangle
39.0,1.0,1.0,0.0,1.0,1.0,480.0832939799875,1.0,1.0,part_1,,,,,,,,,,,,,cyan,circle
28.0,1.0,1.0,0.0,4.0,4.0,492.5513990456238,1.0,1.0,part_1,,,,,,,,,,,,,cyan,circle
218.0,3.0,3.0,0.0,2.0,2.0,418.0281630251556,1.0,1.0,part_1,,,,,,,,,,,,,gray,flipped triangle
43.0,1.0,1.0,0.0,2.0,2.0,471.2501969770528,1.0,1.0,part_1,,,,,,,,,,,,,cyan,circle
110.0,2.0,2.0,0.0,2.0,2.0,365.7576499972492,1.0,1.0,part_1,,,,,,,,,,,,,magenta,square
76.0,6.0,2.0,1.0,4.0,4.0,377.7429659967311,1.0,1.0,part_1,,,,,,,,,,,,,blue,diamond
0.0,8.0,0.0,1.0,3.0,3.0,341.5107530308887,1.0,1.0,part_1,,,,,,,,,,,,,yellow,I
0.0,4.0,0.0,0.0,2.0,2.0,344.536118034739,1.0,1.0,part_1,,,,,,,,,,,,,orange,cross
58.0,5.0,1.0,1.0,3.0,3.0,319.3499440094456,1.0,1.0,part_1,,,,,,,,,,,,,green,hexagon
408.0,8.0,4.0,1.0,1.0,1.0,388.9496650081128,1.0,1.0,part_1,,,,,,,,,,,,,yellow,I
99.0,6.0,2.0,1.0,3.0,3.0,382.8069450100884,1.0,2.0,part_1,,,,,,,,,,,,,blue,diamond
116.0,2.0,2.0,0.0,2.0,2.0,587.7948050037958,1.0,1.0,part_1,,,,,,,,,,,,,magenta,square
42.0,1.0,1.0,0.0,4.0,4.0,470.9289789898321,1.0,1.0,part_1,,,,,,,,,,,,,cyan,circle
110.0,6.0,2.0,1.0,4.0,4.0,421.1771390400827,1.0,1.0,part_1,,,,,,,,,,,,,blue,diamond
27.0,5.0,1.0,1.0,1.0,1.0,575.5339370225556,1.0,1.0,part_1,,,,,,,,,,,,,green,hexagon
206.0,7.0,3.0,1.0,3.0,3.0,387.6596789923496,1.0,1.0,part_1,,,,,,,,,,,,,white,triangle
39.0,5.0,1.0,1.0,3.0,3.0,427.78896499658,1.0,1.0,part_1,,,,,,,,,,,,,green,hexagon
101.0,6.0,2.0,1.0,1.0,1.0,503.70660703629255,1.0,1.0,part_1,,,,,,,,,,,,,blue,diamond
30.0,5.0,1.0,1.0,2.0,2.0,520.887688966468,1.0,1.0,part_1,,,,,,,,,,,,,green,hexagon
68.0,1.0,1.0,0.0,2.0,2.0,421.6079380130395,1.0,1.0,part_1,,,,,,,,,,,,,cyan,circle
85.0,6.0,2.0,1.0,1.0,1.0,388.6583699495531,1.0,1.0,part_1,,,,,,,,,,,,,blue,diamond
194.0,7.0,3.0,1.0,2.0,2.0,416.2012659944594,1.0,1.0,part_1,,,,,,,,,,,,,white,triangle
197.0,3.0,3.0,0.0,3.0,3.0,360.6824759626761,1.0,1.0,part_1,,,,,,,,,,,,,gray,flipped triangle
107.0,2.0,2.0,0.0,2.0,2.0,458.1718929694034,1.0,1.0,part_1,,,,,,,,,,,,,magenta,square
0.0,8.0,0.0,1.0,1.0,1.0,381.1192609719001,1.0,1.0,part_1,,,,,,,,,,,,,yellow,I
0.0,8.0,0.0,1.0,4.0,4.0,460.6784040224738,1.0,1.0,part_1,,,,,,,,,,,,,yellow,I
0.0,2.0,0.0,0.0,4.0,4.0,383.3632540190592,1.0,1.0,part_1,,,,,,,,,,,,,magenta,square
0.0,4.0,0.0,0.0,4.0,4.0,438.316002022475,1.0,1.0,part_1,,,,,,,,,,,,,orange,cross
77.0,6.0,2.0,1.0,4.0,4.0,457.7729349839501,1.0,1.0,part_1,,,,,,,,,,,,,blue,diamond
414.0,8.0,4.0,1.0,4.0,4.0,336.2325960188173,1.0,1.0,part_1,,,,,,,,,,,,,yellow,I
0.0,1.0,0.0,0.0,4.0,4.0,513.6729379883036,1.0,1.0,part_1,,,,,,,,,,,,,cyan,circle
58.0,5.0,1.0,1.0,3.0,3.0,481.1656969832256,1.0,1.0,part_1,,,,,,,,,,,,,green,hexagon
0.0,6.0,0.0,1.0,3.0,3.0,373.9493949688039,1.0,1.0,part_1,,,,,,,,,,,,,blue,diamond
376.0,8.0,4.0,1.0,3.0,3.0,329.0652160067111,1.0,1.0,part_1,,,,,,,,,,,,,yellow,I
190.0,3.0,3.0,0.0,4.0,4.0,398.7692079972476,1.0,1.0,part_1,,,,,,,,,,,,,gray,flipped triangle
0.0,2.0,0.0,0.0,1.0,1.0,444.4168249610811,1.0,1.0,part_1,,,,,,,,,,,,,magenta,square
80.0,6.0,2.0,1.0,3.0,3.0,567.38556799246,1.0,1.0,part_1,,,,,,,,,,,,,blue,diamond
225.0,3.0,3.0,0.0,3.0,3.0,405.8653099928051,1.0,1.0,part_1,,,,,,,,,,,,,gray,flipped triangle
202.0,3.0,3.0,0.0,4.0,4.0,353.1825490063056,1.0,1.0,part_1,,,,,,,,,,,,,gray,flipped triangle
60.0,5.0,1.0,1.0,1.0,1.0,547.3972999607213,1.0,1.0,part_1,,,,,,,,,,,,,green,hexagon
425.0,8.0,4.0,1.0,2.0,2.0,442.1530809486285,1.0,1.0,part_1,,,,,,,,,,,,,yellow,I
0.0,4.0,0.0,0.0,1.0,1.0,461.4608340198174,1.0,1.0,part_1,,,,,,,,,,,,,orange,cross
194.0,3.0,3.0,0.0,1.0,1.0,339.3444929970428,1.0,1.0,part_1,,,,,,,,,,,,,gray,flipped triangle
220.0,3.0,3.0,0.0,1.0,1.0,430.2645959542133,1.0,1.0,part_1,,,,,,,,,,,,,gray,flipped triangle
26.0,5.0,1.0,1.0,3.0,3.0,486.8513729888946,1.0,1.0,part_1,,,,,,,,,,,,,green,hexagon
413.0,4.0,4.0,0.0,3.0,3.0,337.7609580056742,1.0,1.0,part_1,,,,,,,,,,,,,orange,cross
395.0,4.0,4.0,0.0,4.0,4.0,520.4313499853015,1.0,1.0,part_1,,,,,,,,,,,,,orange,cross
425.0,4.0,4.0,0.0,1.0,1.0,523.216234985739,1.0,1.0,part_1,,,,,,,,,,,,,orange,cross
408.0,4.0,4.0,0.0,2.0,2.0,445.1440349803306,1.0,1.0,part_1,,,,,,,,,,,,,orange,cross
380.0,8.0,4.0,1.0,3.0,3.0,453.4240519860759,1.0,1.0,part_1,,,,,,,,,,,,,yellow,I
0.0,4.0,0.0,0.0,3.0,3.0,463.833714951761,1.0,1.0,part_1,,,,,,,,,,,,,orange,cross
0.0,1.0,0.0,0.0,4.0,4.0,468.7172080157324,1.0,1.0,part_1,,,,,,,,,,,,,cyan,circle
43.0,1.0,1.0,0.0,1.0,1.0,385.0532519863918,1.0,1.0,part_1,,,,,,,,,,,,,cyan,circle
0.0,1.0,0.0,0.0,4.0,4.0,429.4603919843212,1.0,1.0,part_1,,,,,,,,,,,,,cyan,circle
105.0,2.0,2.0,0.0,4.0,4.0,389.0646579675376,1.0,1.0,part_1,,,,,,,,,,,,,magenta,square
0.0,2.0,0.0,0.0,1.0,1.0,481.8177619599737,1.0,1.0,part_1,,,,,,,,,,,,,magenta,square
116.0,2.0,2.0,0.0,2.0,2.0,493.1245259940624,1.0,1.0,part_1,,,,,,,,,,,,,magenta,square
395.0,8.0,4.0,1.0,4.0,4.0,344.1521710483357,1.0,1.0,part_1,,,,,,,,,,,,,yellow,I
104.0,6.0,2.0,1.0,4.0,4.0,445.5453080008738,1.0,1.0,part_1,,,,,,,,,,,,,blue,diamond
73.0,5.0,1.0,1.0,1.0,1.0,561.948845977895,1.0,1.0,part_1,,,,,,,,,,,,,green,hexagon
86.0,6.0,2.0,1.0,1.0,1.0,453.6230390076525,1.0,1.0,part_1,,,,,,,,,,,,,blue,diamond
49.0,5.0,1.0,1.0,2.0,2.0,364.4722250173799,1.0,1.0,part_1,,,,,,,,,,,,,green,hexagon
40.0,1.0,1.0,0.0,1.0,1.0,530.9807860176079,1.0,1.0,part_1,,,,,,,,,,,,,cyan,circle
0.0,6.0,0.0,1.0,1.0,1.0,366.9954650104046,1.0,1.0,part_1,,,,,,,,,,,,,blue,diamond
389.0,4.0,4.0,0.0,2.0,2.0,371.3927590288222,1.0,1.0,part_1,,,,,,,,,,,,,orange,cross
182.0,3.0,3.0,0.0,2.0,2.0,396.9482139800675,1.0,1.0,part_1,,,,,,,,,,,,,gray,flipped triangle
97.0,2.0,2.0,0.0,4.0,4.0,381.709409004543,1.0,1.0,part_1,,,,,,,,,,,,,magenta,square
122.0,2.0,2.0,0.0,1.0,1.0,373.5554010490887,2.0,1.0,part_1,,,,,,,,,,,,,magenta,square
205.0,3.0,3.0,0.0,2.0,2.0,343.7634240253828,2.0,1.0,part_1,,,,,,,,,,,,,gray,flipped triangle
96.0,2.0,2.0,0.0,1.0,1.0,381.3988270121626,2.0,1.0,part_1,,,,,,,,,,,,,magenta,square
384.0,8.0,4.0,1.0,4.0,4.0,482.3334370157681,2.0,1.0,part_1,,,,,,,,,,,,,yellow,I
176.0,3.0,3.0,0.0,2.0,2.0,366.8824200285598,2.0,1.0,part_1,,,,,,,,,,,,,gray,flipped triangle
0.0,8.0,0.0,1.0,1.0,1.0,340.9754160093143,2.0,1.0,part_1,,,,,,,,,,,,,yellow,I
108.0,6.0,2.0,1.0,1.0,1.0,327.9084039968438,2.0,1.0,part_1,,,,,,,,,,,,,blue,diamond
116.0,6.0,2.0,1.0,3.0,3.0,467.3193729831837,2.0,1.0,part_1,,,,,,,,,,,,,blue,diamond
0.0,2.0,0.0,0.0,4.0,4.0,433.2540230243467,2.0,1.0,part_1,,,,,,,,,,,,,magenta,square
92.0,2.0,2.0,0.0,4.0,4.0,396.3271949905902,2.0,1.0,part_1,,,,,,,,,,,,,magenta,square
76.0,2.0,2.0,0.0,2.0,2.0,385.5241959681734,2.0,1.0,part_1,,,,,,,,,,,,,magenta,square
176.0,3.0,3.0,0.0,1.0,1.0,390.9192790160887,2.0,1.0,part_1,,,,,,,,,,,,,gray,flipped triangle
224.0,3.0,3.0,0.0,1.0,1.0,386.5765650407411,2.0,1.0,part_1,,,,,,,,,,,,,gray,flipped triangle
69.0,5.0,1.0,1.0,2.0,2.0,289.0439250040799,2.0,1.0,part_1,,,,,,,,,,,,,green,hexagon
180.0,3.0,3.0,0.0,3.0,3.0,442.8715300164185,2.0,2.0,part_1,,,,,,,,,,,,,gray,flipped triangle
182.0,7.0,3.0,1.0,1.0,1.0,358.019391016569,2.0,1.0,part_1,,,,,,,,,,,,,white,triangle
420.0,8.0,4.0,1.0,2.0,2.0,529.9180390429683,2.0,1.0,part_1,,,,,,,,,,,,,yellow,I
45.0,5.0,1.0,1.0,4.0,4.0,369.4289280101657,2.0,1.0,part_1,,,,,,,,,,,,,green,hexagon
67.0,1.0,1.0,0.0,4.0,4.0,350.1458410173654,2.0,1.0,part_1,,,,,,,,,,,,,cyan,circle
90.0,6.0,2.0,1.0,3.0,3.0,424.6415829984471,2.0,1.0,part_1,,,,,,,,,,,,,blue,diamond
194.0,3.0,3.0,0.0,3.0,3.0,414.8266559932381,2.0,1.0,part_1,,,,,,,,,,,,,gray,flipped triangle
0.0,4.0,0.0,0.0,1.0,1.0,481.2300439807586,2.0,1.0,part_1,,,,,,,,,,,,,orange,cross
378.0,8.0,4.0,1.0,2.0,2.0,494.0754949930124,2.0,1.0,part_1,,,,,,,,,,,,,yellow,I
60.0,1.0,1.0,0.0,1.0,1.0,340.1682050316594,2.0,1.0,part_1,,,,,,,,,,,,,cyan,circle
103.0,6.0,2.0,1.0,2.0,2.0,472.7125240024179,2.0,1.0,part_1,,,,,,,,,,,,,blue,diamond
189.0,7.0,3.0,1.0,1.0,1.0,429.1245499625802,2.0,1.0,part_1,,,,,,,,,,,,,white,triangle
0.0,6.0,0.0,1.0,3.0,3.0,562.6847409876063,2.0,1.0,part_1,,,,,,,,,,,,,blue,diamond
0.0,5.0,0.0,1.0,1.0,1.0,488.127946970053,2.0,1.0,part_1,,,,,,,,,,,,,green,hexagon
69.0,1.0,1.0,0.0,1.0,1.0,412.8842299687676,2.0,1.0,part_1,,,,,,,,,,,,,cyan,circle
394.0,4.0,4.0,0.0,1.0,1.0,393.7585100065917,2.0,1.0,part_1,,,,,,,,,,,,,orange,cross
0.0,3.0,0.0,0.0,1.0,1.0,483.4479059791192,2.0,1.0,part_1,,,,,,,,,,,,,gray,flipped triangle
188.0,7.0,3.0,1.0,3.0,3.0,475.6320439628325,2.0,1.0,part_1,,,,,,,,,,,,,white,triangle
50.0,5.0,1.0,1.0,4.0,4.0,756.8375039845705,2.0,1.0,part_1,,,,,,,,,,,,,green,hexagon
74.0,1.0,1.0,0.0,3.0,3.0,563.0664300406352,2.0,1.0,part_1,,,,,,,,,,,,,cyan,circle
108.0,2.0,2.0,0.0,2.0,2.0,526.8980120308697,2.0,1.0,part_1,,,,,,,,,,,,,magenta,square
68.0,5.0,1.0,1.0,1.0,1.0,509.8349579493515,2.0,1.0,part_1,,,,,,,,,,,,,green,hexagon
419.0,8.0,4.0,1.0,4.0,4.0,568.4823649935424,2.0,1.0,part_1,,,,,,,,,,,,,yellow,I
50.0,1.0,1.0,0.0,2.0,2.0,629.9857660196722,2.0,1.0,part_1,,,,,,,,,,,,,cyan,circle
107.0,6.0,2.0,1.0,2.0,2.0,528.6889100098051,2.0,1.0,part_1,,,,,,,,,,,,,blue,diamond
0.0,5.0,0.0,1.0,3.0,3.0,553.8718990283087,2.0,1.0,part_1,,,,,,,,,,,,,green,hexagon
381.0,8.0,4.0,1.0,3.0,3.0,750.1168909948319,2.0,1.0,part_1,,,,,,,,,,,,,yellow,I
0.0,1.0,0.0,0.0,2.0,2.0,536.969861947,2.0,1.0,part_1,,,,,,,,,,,,,cyan,circle
117.0,6.0,2.0,1.0,2.0,2.0,429.7174480161629,2.0,1.0,part_1,,,,,,,,,,,,,blue,diamond
395.0,4.0,4.0,0.0,2.0,2.0,544.5132940076292,2.0,1.0,part_1,,,,,,,,,,,,,orange,cross
0.0,4.0,0.0,0.0,2.0,2.0,485.1871710270643,2.0,1.0,part_1,,,,,,,,,,,,,orange,cross
376.0,4.0,4.0,0.0,4.0,4.0,706.1162310419604,2.0,1.0,part_1,,,,,,,,,,,,,orange,cross
392.0,8.0,4.0,1.0,1.0,1.0,528.9411140256561,2.0,1.0,part_1,,,,,,,,,,,,,yellow,I
399.0,8.0,4.0,1.0,3.0,3.0,646.5715179801919,2.0,1.0,part_1,,,,,,,,,,,,,yellow,I
379.0,8.0,4.0,1.0,4.0,4.0,665.6361609930173,2.0,1.0,part_1,,,,,,,,,,,,,yellow,I
382.0,8.0,4.0,1.0,4.0,4.0,446.8762220349163,2.0,1.0,part_1,,,,,,,,,,,,,yellow,I
222.0,3.0,3.0,0.0,2.0,2.0,529.7209200216457,2.0,1.0,part_1,,,,,,,,,,,,,gray,flipped triangle
181.0,3.0,3.0,0.0,1.0,1.0,432.7811260009184,2.0,1.0,part_1,,,,,,,,,,,,,gray,flipped triangle
381.0,4.0,4.0,0.0,3.0,3.0,514.6220519673079,2.0,1.0,part_1,,,,,,,,,,,,,orange,cross
0.0,5.0,0.0,1.0,3.0,3.0,432.8110849601216,2.0,1.0,part_1,,,,,,,,,,,,,green,hexagon
216.0,7.0,3.0,1.0,4.0,4.0,724.4488589931279,2.0,1.0,part_1,,,,,,,,,,,,,white,triangle
414.0,4.0,4.0,0.0,1.0,1.0,499.9918030225672,2.0,1.0,part_1,,,,,,,,,,,,,orange,cross
389.0,8.0,4.0,1.0,2.0,2.0,439.9009769549593,2.0,1.0,part_1,,,,,,,,,,,,,yellow,I
90.0,2.0,2.0,0.0,1.0,1.0,434.4367950106971,2.0,1.0,part_1,,,,,,,,,,,,,magenta,square
112.0,2.0,2.0,0.0,4.0,4.0,608.8584199897014,2.0,1.0,part_1,,,,,,,,,,,,,magenta,square
30.0,1.0,1.0,0.0,2.0,2.0,374.3318819906562,2.0,1.0,part_1,,,,,,,,,,,,,cyan,circle
39.0,5.0,1.0,1.0,2.0,2.0,362.7482620067894,2.0,1.0,part_1,,,,,,,,,,,,,green,hexagon
39.0,1.0,1.0,0.0,1.0,1.0,616.3550870260224,2.0,1.0,part_1,,,,,,,,,,,,,cyan,circle
0.0,6.0,0.0,1.0,1.0,1.0,380.1517989486456,2.0,1.0,part_1,,,,,,,,,,,,,blue,diamond
28.0,5.0,1.0,1.0,3.0,3.0,425.7655600085854,2.0,1.0,part_1,,,,,,,,,,,,,green,hexagon
410.0,8.0,4.0,1.0,2.0,2.0,349.5570989907719,2.0,1.0,part_1,,,,,,,,,,,,,yellow,I
419.0,8.0,4.0,1.0,1.0,1.0,467.3353789839893,2.0,1.0,part_1,,,,,,,,,,,,,yellow,I
0.0,7.0,0.0,1.0,3.0,3.0,648.3854230027646,2.0,1.0,part_1,,,,,,,,,,,,,white,triangle
414.0,4.0,4.0,0.0,3.0,3.0,593.5446239891462,2.0,1.0,part_1,,,,,,,,,,,,,orange,cross
210.0,3.0,3.0,0.0,3.0,3.0,997.3065999802202,2.0,1.0,part_1,,,,,,,,,,,,,gray,flipped triangle
77.0,2.0,2.0,0.0,3.0,3.0,579.7882109764032,2.0,1.0,part_1,,,,,,,,,,,,,magenta,square
124.0,6.0,2.0,1.0,2.0,2.0,519.7860000189394,2.0,1.0,part_1,,,,,,,,,,,,,blue,diamond
99.0,2.0,2.0,0.0,4.0,4.0,459.5523199532181,2.0,1.0,part_1,,,,,,,,,,,,,magenta,square
181.0,7.0,3.0,1.0,4.0,4.0,672.510382020846,2.0,1.0,part_1,,,,,,,,,,,,,white,triangle
91.0,6.0,2.0,1.0,3.0,3.0,480.2427609683946,2.0,1.0,part_1,,,,,,,,,,,,,blue,diamond
85.0,2.0,2.0,0.0,4.0,4.0,450.463144981768,2.0,1.0,part_1,,,,,,,,,,,,,magenta,square
0.0,8.0,0.0,1.0,1.0,1.0,409.4075220054947,2.0,1.0,part_1,,,,,,,,,,,,,yellow,I
50.0,1.0,1.0,0.0,3.0,3.0,348.8139930414036,2.0,1.0,part_1,,,,,,,,,,,,,cyan,circle
109.0,6.0,2.0,1.0,1.0,1.0,367.5023089745082,2.0,1.0,part_1,,,,,,,,,,,,,blue,diamond
0.0,6.0,0.0,1.0,3.0,3.0,388.6991170002147,2.0,1.0,part_1,,,,,,,,,,,,,blue,diamond
195.0,3.0,3.0,0.0,2.0,2.0,404.2264280142262,2.0,1.0,part_1,,,,,,,,,,,,,gray,flipped triangle
416.0,4.0,4.0,0.0,3.0,3.0,501.7033370095305,2.0,1.0,part_1,,,,,,,,,,,,,orange,cross
190.0,3.0,3.0,0.0,4.0,4.0,461.3441019901074,2.0,1.0,part_1,,,,,,,,,,,,,gray,flipped triangle
0.0,1.0,0.0,0.0,3.0,3.0,480.9012679615989,2.0,1.0,part_1,,,,,,,,,,,,,cyan,circle
123.0,6.0,2.0,1.0,4.0,4.0,652.0649490412325,2.0,1.0,part_1,,,,,,,,,,,,,blue,diamond
82.0,6.0,2.0,1.0,3.0,3.0,443.6383970314637,2.0,1.0,part_1,,,,,,,,,,,,,blue,diamond
384.0,8.0,4.0,1.0,3.0,3.0,520.0423250207677,2.0,1.0,part_1,,,,,,,,,,,,,yellow,I
200.0,3.0,3.0,0.0,4.0,4.0,397.1009819651954,2.0,1.0,part_1,,,,,,,,,,,,,gray,flipped triangle
419.0,4.0,4.0,0.0,3.0,3.0,392.2239629901014,2.0,1.0,part_1,,,,,,,,,,,,,orange,cross
207.0,7.0,3.0,1.0,2.0,2.0,594.8794709984213,2.0,1.0,part_1,,,,,,,,,,,,,white,triangle
0.0,1.0,0.0,0.0,1.0,1.0,450.0227890093811,2.0,1.0,part_1,,,,,,,,,,,,,cyan,circle
202.0,7.0,3.0,1.0,1.0,1.0,542.6143400254659,2.0,1.0,part_1,,,,,,,,,,,,,white,triangle
176.0,3.0,3.0,0.0,2.0,2.0,525.8361579617485,2.0,1.0,part_1,,,,,,,,,,,,,gray,flipped triangle
416.0,4.0,4.0,0.0,4.0,4.0,408.6551910149865,2.0,1.0,part_1,,,,,,,,,,,,,orange,cross
220.0,3.0,3.0,0.0,1.0,1.0,434.4536229618825,2.0,2.0,part_1,,,,,,,,,,,,,gray,flipped triangle
189.0,3.0,3.0,0.0,4.0,4.0,519.7428729734384,2.0,1.0,part_1,,,,,,,,,,,,,gray,flipped triangle
0.0,4.0,0.0,0.0,2.0,2.0,450.8920530206524,2.0,1.0,part_1,,,,,,,,,,,,,orange,cross
49.0,1.0,1.0,0.0,3.0,3.0,575.4039000021294,2.0,1.0,part_1,,,,,,,,,,,,,cyan,circle
107.0,2.0,2.0,0.0,1.0,1.0,532.1318359929137,2.0,1.0,part_1,,,,,,,,,,,,,magenta,square
0.0,7.0,0.0,1.0,3.0,3.0,544.4855790119618,2.0,1.0,part_1,,,,,,,,,,,,,white,triangle
95.0,2.0,2.0,0.0,4.0,4.0,487.6045850105583,2.0,1.0,part_1,,,,,,,,,,,,,magenta,square
190.0,7.0,3.0,1.0,3.0,3.0,451.1031660367735,3.0,1.0,part_1,,,,,,,,,,,,,white,triangle
0.0,5.0,0.0,1.0,4.0,4.0,447.2098370315507,3.0,1.0,part_1,,,,,,,,,,,,,green,hexagon
206.0,3.0,3.0,0.0,4.0,4.0,468.3742510387674,3.0,1.0,part_1,,,,,,,,,,,,,gray,flipped triangle
225.0,7.0,3.0,1.0,4.0,4.0,489.2508169868961,3.0,1.0,part_1,,,,,,,,,,,,,white,triangle
224.0,7.0,3.0,1.0,4.0,4.0,414.3032960128039,3.0,1.0,part_1,,,,,,,,,,,,,white,triangle
195.0,7.0,3.0,1.0,3.0,3.0,629.0131079731509,3.0,1.0,part_1,,,,,,,,,,,,,white,triangle
190.0,7.0,3.0,1.0,2.0,2.0,534.87321495777,3.0,1.0,part_1,,,,,,,,,,,,,white,triangle
207.0,3.0,3.0,0.0,4.0,4.0,563.0132899968885,3.0,1.0,part_1,,,,,,,,,,,,,gray,flipped triangle
198.0,3.0,3.0,0.0,1.0,1.0,575.6530330399983,3.0,1.0,part_1,,,,,,,,,,,,,gray,flipped triangle
74.0,5.0,1.0,1.0,1.0,1.0,564.7023089695722,3.0,1.0,part_1,,,,,,,,,,,,,green,hexagon
0.0,2.0,0.0,0.0,2.0,2.0,537.9629589733668,3.0,1.0,part_1,,,,,,,,,,,,,magenta,square
194.0,7.0,3.0,1.0,3.0,3.0,471.1183119798079,3.0,1.0,part_1,,,,,,,,,,,,,white,triangle
89.0,6.0,2.0,1.0,2.0,2.0,498.7755940528586,3.0,1.0,part_1,,,,,,,,,,,,,blue,diamond
192.0,3.0,3.0,0.0,1.0,1.0,442.8430990083143,3.0,1.0,part_1,,,,,,,,,,,,,gray,flipped triangle
0.0,6.0,0.0,1.0,3.0,3.0,748.770026024431,3.0,1.0,part_1,,,,,,,,,,,,,blue,diamond
112.0,6.0,2.0,1.0,3.0,3.0,453.1331750331446,3.0,1.0,part_1,,,,,,,,,,,,,blue,diamond
181.0,7.0,3.0,1.0,3.0,3.0,493.3898880262859,3.0,1.0,part_1,,,,,,,,,,,,,white,triangle
0.0,6.0,0.0,1.0,3.0,3.0,382.2326560039073,3.0,1.0,part_1,,,,,,,,,,,,,blue,diamond
42.0,5.0,1.0,1.0,4.0,4.0,624.616969958879,3.0,1.0,part_1,,,,,,,,,,,,,green,hexagon
0.0,1.0,0.0,0.0,4.0,4.0,629.5563519815914,3.0,1.0,part_1,,,,,,,,,,,,,cyan,circle
0.0,7.0,0.0,1.0,4.0,4.0,610.8731050044298,3.0,1.0,part_1,,,,,,,,,,,,,white,triangle
205.0,3.0,3.0,0.0,4.0,4.0,381.409135996364,3.0,1.0,part_1,,,,,,,,,,,,,gray,flipped triangle
0.0,2.0,0.0,0.0,1.0,1.0,529.9585970351472,3.0,1.0,part_1,,,,,,,,,,,,,magenta,square
0.0,4.0,0.0,0.0,1.0,1.0,455.1868889830075,3.0,1.0,part_1,,,,,,,,,,,,,orange,cross
104.0,2.0,2.0,0.0,1.0,1.0,447.2387499990873,3.0,1.0,part_1,,,,,,,,,,,,,magenta,square
0.0,8.0,0.0,1.0,2.0,2.0,563.3474509813823,3.0,1.0,part_1,,,,,,,,,,,,,yellow,I
213.0,7.0,3.0,1.0,4.0,4.0,373.419564042706,3.0,1.0,part_1,,,,,,,,,,,,,white,triangle
0.0,3.0,0.0,0.0,2.0,2.0,361.0381649923511,3.0,1.0,part_1,,,,,,,,,,,,,gray,flipped triangle
222.0,7.0,3.0,1.0,1.0,1.0,377.5757600087672,3.0,1.0,part_1,,,,,,,,,,,,,white,triangle
213.0,3.0,3.0,0.0,3.0,3.0,420.1542339869775,3.0,1.0,part_1,,,,,,,,,,,,,gray,flipped triangle
395.0,4.0,4.0,0.0,3.0,3.0,511.1774100223556,3.0,1.0,part_1,,,,,,,,,,,,,orange,cross
46.0,5.0,1.0,1.0,1.0,1.0,455.7778480229899,3.0,1.0,part_1,,,,,,,,,,,,,green,hexagon
395.0,8.0,4.0,1.0,4.0,4.0,450.3206979716196,3.0,1.0,part_1,,,,,,,,,,,,,yellow,I
78.0,6.0,2.0,1.0,1.0,1.0,559.2638489906676,3.0,1.0,part_1,,,,,,,,,,,,,blue,diamond
190.0,7.0,3.0,1.0,4.0,4.0,467.4216200364753,3.0,1.0,part_1,,,,,,,,,,,,,white,triangle
0.0,5.0,0.0,1.0,2.0,2.0,590.0523349992,3.0,1.0,part_1,,,,,,,,,,,,,green,hexagon
423.0,4.0,4.0,0.0,4.0,4.0,565.4761590412818,3.0,1.0,part_1,,,,,,,,,,,,,orange,cross
0.0,3.0,0.0,0.0,3.0,3.0,498.938471020665,3.0,1.0,part_1,,,,,,,,,,,,,gray,flipped triangle
0.0,7.0,0.0,1.0,3.0,3.0,445.0899349758401,3.0,1.0,part_1,,,,,,,,,,,,,white,triangle
0.0,4.0,0.0,0.0,1.0,1.0,377.3382919607684,3.0,1.0,part_1,,,,,,,,,,,,,orange,cross
217.0,3.0,3.0,0.0,4.0,4.0,495.8545670378953,3.0,1.0,part_1,,,,,,,,,,,,,gray,flipped triangle
30.0,1.0,1.0,0.0,1.0,1.0,388.8274409691803,3.0,1.0,part_1,,,,,,,,,,,,,cyan,circle
103.0,2.0,2.0,0.0,3.0,3.0,402.5983830215409,3.0,1.0,part_1,,,,,,,,,,,,,magenta,square
0.0,1.0,0.0,0.0,3.0,3.0,435.7965419767424,3.0,1.0,part_1,,,,,,,,,,,,,cyan,circle
0.0,7.0,0.0,1.0,4.0,4.0,408.7443820317276,3.0,1.0,part_1,,,,,,,,,,,,,white,triangle
416.0,8.0,4.0,1.0,2.0,2.0,566.654380003456,3.0,1.0,part_1,,,,,,,,,,,,,yellow,I
0.0,3.0,0.0,0.0,3.0,3.0,426.1347019928507,3.0,1.0,part_1,,,,,,,,,,,,,gray,flipped triangle
0.0,8.0,0.0,1.0,3.0,3.0,438.6054209899157,3.0,1.0,part_1,,,,,,,,,,,,,yellow,I
27.0,1.0,1.0,0.0,4.0,4.0,629.4944330002181,3.0,1.0,part_1,,,,,,,,,,,,,cyan,circle
217.0,7.0,3.0,1.0,4.0,4.0,343.9157579559833,3.0,1.0,part_1,,,,,,,,,,,,,white,triangle
406.0,8.0,4.0,1.0,1.0,1.0,575.5673619569279,3.0,1.0,part_1,,,,,,,,,,,,,yellow,I
216.0,3.0,3.0,0.0,1.0,1.0,467.8988950327039,3.0,1.0,part_1,,,,,,,,,,,,,gray,flipped triangle
0.0,2.0,0.0,0.0,4.0,4.0,368.045852985233,3.0,1.0,part_1,,,,,,,,,,,,,magenta,square
192.0,7.0,3.0,1.0,1.0,1.0,469.8878360213712,3.0,1.0,part_1,,,,,,,,,,,,,white,triangle
117.0,6.0,2.0,1.0,2.0,2.0,463.7467460124753,3.0,1.0,part_1,,,,,,,,,,,,,blue,diamond
406.0,8.0,4.0,1.0,3.0,3.0,496.3204030063934,3.0,1.0,part_1,,,,,,,,,,,,,yellow,I
0.0,3.0,0.0,0.0,4.0,4.0,428.5846269922331,3.0,1.0,part_1,,,,,,,,,,,,,gray,flipped triangle
116.0,6.0,2.0,1.0,3.0,3.0,534.1484049567953,3.0,1.0,part_1,,,,,,,,,,,,,blue,diamond
32.0,1.0,1.0,0.0,3.0,3.0,396.2690100306645,3.0,1.0,part_1,,,,,,,,,,,,,cyan,circle
393.0,4.0,4.0,0.0,1.0,1.0,471.4244509814307,3.0,1.0,part_1,,,,,,,,,,,,,orange,cross
108.0,6.0,2.0,1.0,4.0,4.0,435.8733109547756,3.0,1.0,part_1,,,,,,,,,,,,,blue,diamond
105.0,2.0,2.0,0.0,3.0,3.0,355.1220609806478,3.0,1.0,part_1,,,,,,,,,,,,,magenta,square
0.0,7.0,0.0,1.0,2.0,2.0,360.0956220179796,3.0,1.0,part_1,,,,,,,,,,,,,white,triangle
77.0,2.0,2.0,0.0,2.0,2.0,466.519451001659,3.0,1.0,part_1,,,,,,,,,,,,,magenta,square
73.0,1.0,1.0,0.0,4.0,4.0,310.8468350255862,3.0,1.0,part_1,,,,,,,,,,,,,cyan,circle
393.0,8.0,4.0,1.0,2.0,2.0,788.6996830347925,3.0,1.0,part_1,,,,,,,,,,,,,yellow,I
52.0,5.0,1.0,1.0,4.0,4.0,739.2611580435187,3.0,1.0,part_1,,,,,,,,,,,,,green,hexagon
200.0,7.0,3.0,1.0,2.0,2.0,613.7585339602083,3.0,1.0,part_1,,,,,,,,,,,,,white,triangle
410.0,8.0,4.0,1.0,1.0,1.0,483.4111540112644,3.0,1.0,part_1,,,,,,,,,,,,,yellow,I
0.0,3.0,0.0,0.0,2.0,2.0,390.5406579724513,3.0,1.0,part_1,,,,,,,,,,,,,gray,flipped triangle
409.0,4.0,4.0,0.0,4.0,4.0,450.4441549652256,3.0,1.0,part_1,,,,,,,,,,,,,orange,cross
0.0,2.0,0.0,0.0,3.0,3.0,610.6485630152747,3.0,1.0,part_1,,,,,,,,,,,,,magenta,square
56.0,5.0,1.0,1.0,3.0,3.0,459.9686649744399,3.0,1.0,part_1,,,,,,,,,,,,,green,hexagon
104.0,2.0,2.0,0.0,3.0,3.0,411.3500750390813,3.0,1.0,part_1,,,,,,,,,,,,,magenta,square
124.0,2.0,2.0,0.0,3.0,3.0,405.7480710325762,3.0,1.0,part_1,,,,,,,,,,,,,magenta,square
58.0,1.0,1.0,0.0,2.0,2.0,601.8949559656903,3.0,1.0,part_1,,,,,,,,,,,,,cyan,circle
0.0,6.0,0.0,1.0,2.0,2.0,569.1267490037717,3.0,1.0,part_1,,,,,,,,,,,,,blue,diamond
204.0,7.0,3.0,1.0,1.0,1.0,563.75977298012,3.0,1.0,part_1,,,,,,,,,,,,,white,triangle
188.0,3.0,3.0,0.0,3.0,3.0,698.406190960668,3.0,1.0,part_1,,,,,,,,,,,,,gray,flipped triangle
384.0,4.0,4.0,0.0,1.0,1.0,453.5967300180346,3.0,1.0,part_1,,,,,,,,,,,,,orange,cross
84.0,6.0,2.0,1.0,4.0,4.0,397.81892503378907,3.0,1.0,part_1,,,,,,,,,,,,,blue,diamond
92.0,6.0,2.0,1.0,4.0,4.0,573.9727530162781,3.0,1.0,part_1,,,,,,,,,,,,,blue,diamond
401.0,4.0,4.0,0.0,3.0,3.0,747.0851059770212,3.0,1.0,part_1,,,,,,,,,,,,,orange,cross
0.0,7.0,0.0,1.0,2.0,2.0,600.7933859946206,3.0,1.0,part_1,,,,,,,,,,,,,white,triangle
410.0,4.0,4.0,0.0,4.0,4.0,447.719969030004,3.0,1.0,part_1,,,,,,,,,,,,,orange,cross
0.0,8.0,0.0,1.0,2.0,2.0,432.5093899969943,3.0,1.0,part_1,,,,,,,,,,,,,yellow,I
0.0,6.0,0.0,1.0,2.0,2.0,457.0712959975935,3.0,1.0,part_1,,,,,,,,,,,,,blue,diamond
69.0,1.0,1.0,0.0,3.0,3.0,423.7555650179274,3.0,2.0,part_1,,,,,,,,,,,,,cyan,circle
43.0,5.0,1.0,1.0,2.0,2.0,475.9151230100542,3.0,1.0,part_1,,,,,,,,,,,,,green,hexagon
399.0,4.0,4.0,0.0,2.0,2.0,465.2349689858965,3.0,1.0,part_1,,,,,,,,,,,,,orange,cross
186.0,7.0,3.0,1.0,2.0,2.0,397.7705299621448,3.0,1.0,part_1,,,,,,,,,,,,,white,triangle
392.0,4.0,4.0,0.0,1.0,1.0,442.0812329626642,3.0,1.0,part_1,,,,,,,,,,,,,orange,cross
0.0,8.0,0.0,1.0,1.0,1.0,454.7217370127328,3.0,1.0,part_1,,,,,,,,,,,,,yellow,I
84.0,2.0,2.0,0.0,2.0,2.0,454.5766490045935,3.0,1.0,part_1,,,,,,,,,,,,,magenta,square
105.0,6.0,2.0,1.0,4.0,4.0,402.9142580111511,3.0,1.0,part_1,,,,,,,,,,,,,blue,diamond
380.0,4.0,4.0,0.0,2.0,2.0,376.259354990907,3.0,1.0,part_1,,,,,,,,,,,,,orange,cross
73.0,1.0,1.0,0.0,1.0,1.0,427.5803840137087,3.0,1.0,part_1,,,,,,,,,,,,,cyan,circle
200.0,3.0,3.0,0.0,4.0,4.0,502.05426703905687,3.0,1.0,part_1,,,,,,,,,,,,,gray,flipped triangle
0.0,5.0,0.0,1.0,4.0,4.0,462.6242939848453,3.0,1.0,part_1,,,,,,,,,,,,,green,hexagon
0.0,2.0,0.0,0.0,3.0,3.0,462.8056630026549,3.0,1.0,part_1,,,,,,,,,,,,,magenta,square
0.0,3.0,0.0,0.0,2.0,2.0,420.1581499655731,4.0,1.0,part_1,,,,,,,,,,,,,gray,flipped triangle
198.0,7.0,3.0,1.0,2.0,2.0,421.9818580313585,4.0,1.0,part_1,,,,,,,,,,,,,white,triangle
423.0,8.0,4.0,1.0,2.0,2.0,450.4382450249977,4.0,1.0,part_1,,,,,,,,,,,,,yellow,I
78.0,2.0,2.0,0.0,3.0,3.0,495.2141569810919,4.0,1.0,part_1,,,,,,,,,,,,,magenta,square
0.0,4.0,0.0,0.0,1.0,1.0,572.14927097084,4.0,1.0,part_1,,,,,,,,,,,,,orange,cross
0.0,7.0,0.0,1.0,1.0,1.0,440.6698580132797,4.0,1.0,part_1,,,,,,,,,,,,,white,triangle
86.0,2.0,2.0,0.0,3.0,3.0,367.2578959958628,4.0,1.0,part_1,,,,,,,,,,,,,magenta,square
52.0,1.0,1.0,0.0,2.0,2.0,404.512319015339,4.0,1.0,part_1,,,,,,,,,,,,,cyan,circle
54.0,1.0,1.0,0.0,2.0,2.0,415.5001559993252,4.0,1.0,part_1,,,,,,,,,,,,,cyan,circle
94.0,6.0,2.0,1.0,1.0,1.0,470.834155974444,4.0,1.0,part_1,,,,,,,,,,,,,blue,diamond
216.0,3.0,3.0,0.0,3.0,3.0,499.2582090198993,4.0,1.0,part_1,,,,,,,,,,,,,gray,flipped triangle
36.0,1.0,1.0,0.0,3.0,3.0,398.6087839584797,4.0,1.0,part_1,,,,,,,,,,,,,cyan,circle
0.0,5.0,0.0,1.0,4.0,4.0,681.7902610055171,4.0,1.0,part_1,,,,,,,,,,,,,green,hexagon
96.0,6.0,2.0,1.0,2.0,2.0,367.7301740390248,4.0,1.0,part_1,,,,,,,,,,,,,blue,diamond
56.0,1.0,1.0,0.0,4.0,4.0,546.5500319842249,4.0,1.0,part_1,,,,,,,,,,,,,cyan,circle
97.0,6.0,2.0,1.0,1.0,1.0,785.4955890215933,4.0,1.0,part_1,,,,,,,,,,,,,blue,diamond
392.0,4.0,4.0,0.0,3.0,3.0,543.3652569772676,4.0,1.0,part_1,,,,,,,,,,,,,orange,cross
377.0,8.0,4.0,1.0,1.0,1.0,450.6823159754276,4.0,1.0,part_1,,,,,,,,,,,,,yellow,I
45.0,1.0,1.0,0.0,4.0,4.0,533.9891460025683,4.0,1.0,part_1,,,,,,,,,,,,,cyan,circle
0.0,3.0,0.0,0.0,2.0,2.0,426.2189510045573,4.0,1.0,part_1,,,,,,,,,,,,,gray,flipped triangle
186.0,3.0,3.0,0.0,2.0,2.0,438.5184519924223,4.0,1.0,part_1,,,,,,,,,,,,,gray,flipped triangle
46.0,1.0,1.0,0.0,4.0,4.0,383.6738099926151,4.0,1.0,part_1,,,,,,,,,,,,,cyan,circle
80.0,2.0,2.0,0.0,4.0,4.0,425.4425700055435,4.0,1.0,part_1,,,,,,,,,,,,,magenta,square
0.0,2.0,0.0,0.0,1.0,1.0,502.84375599585474,4.0,1.0,part_1,,,,,,,,,,,,,magenta,square
65.0,5.0,1.0,1.0,2.0,2.0,428.9795570075512,4.0,1.0,part_1,,,,,,,,,,,,,green,hexagon
210.0,7.0,3.0,1.0,2.0,2.0,469.9764419929124,4.0,1.0,part_1,,,,,,,,,,,,,white,triangle
55.0,5.0,1.0,1.0,1.0,1.0,438.690998009406,4.0,1.0,part_1,,,,,,,,,,,,,green,hexagon
0.0,1.0,0.0,0.0,4.0,4.0,423.5201500123366,4.0,1.0,part_1,,,,,,,,,,,,,cyan,circle
104.0,6.0,2.0,1.0,4.0,4.0,364.3379079876467,4.0,1.0,part_1,,,,,,,,,,,,,blue,diamond
377.0,8.0,4.0,1.0,3.0,3.0,483.6163049913011,4.0,1.0,part_1,,,,,,,,,,,,,yellow,I
394.0,8.0,4.0,1.0,2.0,2.0,583.6002049618401,4.0,1.0,part_1,,,,,,,,,,,,,yellow,I
122.0,6.0,2.0,1.0,1.0,1.0,484.6582440077327,4.0,1.0,part_1,,,,,,,,,,,,,blue,diamond
95.0,6.0,2.0,1.0,3.0,3.0,569.6682819980197,4.0,1.0,part_1,,,,,,,,,,,,,blue,diamond
43.0,5.0,1.0,1.0,3.0,3.0,615.5120200128295,4.0,1.0,part_1,,,,,,,,,,,,,green,hexagon
200.0,7.0,3.0,1.0,2.0,2.0,512.3787079937756,4.0,1.0,part_1,,,,,,,,,,,,,white,triangle
197.0,7.0,3.0,1.0,2.0,2.0,503.1185839907266,4.0,1.0,part_1,,,,,,,,,,,,,white,triangle
89.0,2.0,2.0,0.0,1.0,1.0,716.7928909766488,4.0,1.0,part_1,,,,,,,,,,,,,magenta,square
105.0,6.0,2.0,1.0,2.0,2.0,599.6010359958746,4.0,1.0,part_1,,,,,,,,,,,,,blue,diamond
420.0,4.0,4.0,0.0,4.0,4.0,607.246681000106,4.0,1.0,part_1,,,,,,,,,,,,,orange,cross
0.0,5.0,0.0,1.0,4.0,4.0,520.3637619852088,4.0,1.0,part_1,,,,,,,,,,,,,green,hexagon
72.0,1.0,1.0,0.0,4.0,4.0,566.5287419687957,4.0,1.0,part_1,,,,,,,,,,,,,cyan,circle
205.0,7.0,3.0,1.0,4.0,4.0,570.2777440310456,4.0,1.0,part_1,,,,,,,,,,,,,white,triangle
30.0,1.0,1.0,0.0,2.0,2.0,629.7538370126858,4.0,1.0,part_1,,,,,,,,,,,,,cyan,circle
73.0,5.0,1.0,1.0,1.0,1.0,573.5284549882635,4.0,1.0,part_1,,,,,,,,,,,,,green,hexagon
377.0,4.0,4.0,0.0,4.0,4.0,608.0919539672323,4.0,1.0,part_1,,,,,,,,,,,,,orange,cross
404.0,8.0,4.0,1.0,1.0,1.0,524.2227150010876,4.0,1.0,part_1,,,,,,,,,,,,,yellow,I
188.0,3.0,3.0,0.0,3.0,3.0,682.8112449729815,4.0,1.0,part_1,,,,,,,,,,,,,gray,flipped triangle
50.0,5.0,1.0,1.0,4.0,4.0,848.1349869980477,4.0,1.0,part_1,,,,,,,,,,,,,green,hexagon
55.0,1.0,1.0,0.0,2.0,2.0,741.2308570346795,4.0,1.0,part_1,,,,,,,,,,,,,cyan,circle
67.0,5.0,1.0,1.0,2.0,2.0,554.8009040066972,4.0,1.0,part_1,,,,,,,,,,,,,green,hexagon
30.0,5.0,1.0,1.0,3.0,3.0,693.6441310099326,4.0,1.0,part_1,,,,,,,,,,,,,green,hexagon
392.0,8.0,4.0,1.0,3.0,3.0,544.1925280028954,4.0,1.0,part_1,,,,,,,,,,,,,yellow,I
49.0,1.0,1.0,0.0,3.0,3.0,470.7607390009798,4.0,1.0,part_1,,,,,,,,,,,,,cyan,circle
416.0,8.0,4.0,1.0,1.0,1.0,562.2182930237614,4.0,1.0,part_1,,,,,,,,,,,,,yellow,I
121.0,2.0,2.0,0.0,4.0,4.0,657.4038029648364,4.0,1.0,part_1,,,,,,,,,,,,,magenta,square
377.0,4.0,4.0,0.0,1.0,1.0,534.8102590069175,4.0,1.0,part_1,,,,,,,,,,,,,orange,cross
91.0,2.0,2.0,0.0,1.0,1.0,490.579692996107,4.0,1.0,part_1,,,,,,,,,,,,,magenta,square
72.0,5.0,1.0,1.0,1.0,1.0,524.2849299684167,4.0,1.0,part_1,,,,,,,,,,,,,green,hexagon
181.0,3.0,3.0,0.0,2.0,2.0,523.8211849937215,4.0,1.0,part_1,,,,,,,,,,,,,gray,flipped triangle
31.0,1.0,1.0,0.0,2.0,2.0,423.5091779846698,4.0,1.0,part_1,,,,,,,,,,,,,cyan,circle
176.0,7.0,3.0,1.0,2.0,2.0,506.5763319726102,4.0,1.0,part_1,,,,,,,,,,,,,white,triangle
26.0,1.0,1.0,0.0,3.0,3.0,422.6562340045348,4.0,2.0,part_1,,,,,,,,,,,,,cyan,circle
176.0,7.0,3.0,1.0,3.0,3.0,380.2181279752403,4.0,1.0,part_1,,,,,,,,,,,,,white,triangle
0.0,5.0,0.0,1.0,2.0,2.0,524.7827660059556,4.0,1.0,part_1,,,,,,,,,,,,,green,hexagon
220.0,7.0,3.0,1.0,1.0,1.0,549.0181989734992,4.0,1.0,part_1,,,,,,,,,,,,,white,triangle
376.0,8.0,4.0,1.0,4.0,4.0,734.4774800003506,4.0,1.0,part_1,,,,,,,,,,,,,yellow,I
0.0,3.0,0.0,0.0,3.0,3.0,589.4426489830948,4.0,1.0,part_1,,,,,,,,,,,,,gray,flipped triangle
110.0,2.0,2.0,0.0,2.0,2.0,579.3679690104909,4.0,1.0,part_1,,,,,,,,,,,,,magenta,square
395.0,8.0,4.0,1.0,1.0,1.0,548.2715510297567,4.0,1.0,part_1,,,,,,,,,,,,,yellow,I
36.0,5.0,1.0,1.0,4.0,4.0,732.0189049933106,4.0,1.0,part_1,,,,,,,,,,,,,green,hexagon
121.0,6.0,2.0,1.0,3.0,3.0,592.022709955927,4.0,1.0,part_1,,,,,,,,,,,,,blue,diamond
414.0,8.0,4.0,1.0,3.0,3.0,595.4086659476161,4.0,1.0,part_1,,,,,,,,,,,,,yellow,I
40.0,5.0,1.0,1.0,3.0,3.0,570.19662798848,4.0,1.0,part_1,,,,,,,,,,,,,green,hexagon
57.0,1.0,1.0,0.0,4.0,4.0,558.6005119839683,4.0,1.0,part_1,,,,,,,,,,,,,cyan,circle
72.0,1.0,1.0,0.0,1.0,1.0,609.5628319890238,4.0,1.0,part_1,,,,,,,,,,,,,cyan,circle
218.0,7.0,3.0,1.0,4.0,4.0,560.3681390057318,4.0,1.0,part_1,,,,,,,,,,,,,white,triangle
49.0,5.0,1.0,1.0,2.0,2.0,629.8237490118481,4.0,1.0,part_1,,,,,,,,,,,,,green,hexagon
424.0,8.0,4.0,1.0,1.0,1.0,633.6496900185011,4.0,1.0,part_1,,,,,,,,,,,,,yellow,I
188.0,7.0,3.0,1.0,4.0,4.0,611.3758629653603,4.0,1.0,part_1,,,,,,,,,,,,,white,triangle
30.0,5.0,1.0,1.0,1.0,1.0,458.6202829959802,4.0,1.0,part_1,,,,,,,,,,,,,green,hexagon
0.0,5.0,0.0,1.0,3.0,3.0,741.4683480164967,4.0,1.0,part_1,,,,,,,,,,,,,green,hexagon
406.0,4.0,4.0,0.0,3.0,3.0,454.3327100109309,4.0,1.0,part_1,,,,,,,,,,,,,orange,cross
0.0,7.0,0.0,1.0,4.0,4.0,498.3454960165545,4.0,1.0,part_1,,,,,,,,,,,,,white,triangle
204.0,3.0,3.0,0.0,2.0,2.0,434.7125450149178,4.0,1.0,part_1,,,,,,,,,,,,,gray,flipped triangle
49.0,1.0,1.0,0.0,1.0,1.0,423.598185996525,4.0,1.0,part_1,,,,,,,,,,,,,cyan,circle
419.0,4.0,4.0,0.0,4.0,4.0,455.9988899854943,4.0,1.0,part_1,,,,,,,,,,,,,orange,cross
401.0,8.0,4.0,1.0,4.0,4.0,536.8990729912184,4.0,1.0,part_1,,,,,,,,,,,,,yellow,I
54.0,5.0,1.0,1.0,2.0,2.0,471.791433985345,4.0,1.0,part_1,,,,,,,,,,,,,green,hexagon
0.0,6.0,0.0,1.0,3.0,3.0,629.2202239856124,4.0,1.0,part_1,,,,,,,,,,,,,blue,diamond
0.0,1.0,0.0,0.0,1.0,1.0,688.6419010115787,4.0,1.0,part_1,,,,,,,,,,,,,cyan,circle
190.0,3.0,3.0,0.0,1.0,1.0,87.4530330183915,4.0,1.0,part_1,,,,,,,,,,,,,gray,flipped triangle
212.0,7.0,3.0,1.0,3.0,3.0,388.3511800086126,4.0,1.0,part_1,,,,,,,,,,,,,white,triangle
220.0,7.0,3.0,1.0,3.0,3.0,432.8877399675548,4.0,1.0,part_1,,,,,,,,,,,,,white,triangle
407.0,4.0,4.0,0.0,1.0,1.0,451.2074160156771,4.0,1.0,part_1,,,,,,,,,,,,,orange,cross
180.0,7.0,3.0,1.0,1.0,1.0,478.9197539794259,4.0,1.0,part_1,,,,,,,,,,,,,white,triangle
384.0,4.0,4.0,0.0,1.0,1.0,453.1593840220012,4.0,1.0,part_1,,,,,,,,,,,,,orange,cross
65.0,1.0,1.0,0.0,3.0,3.0,722.5136600318365,4.0,1.0,part_1,,,,,,,,,,,,,cyan,circle
406.0,4.0,4.0,0.0,2.0,2.0,631.6313209827058,4.0,1.0,part_1,,,,,,,,,,,,,orange,cross
57.0,5.0,1.0,1.0,2.0,2.0,723.8682900206186,4.0,1.0,part_1,,,,,,,,,,,,,green,hexagon
49.0,5.0,1.0,1.0,4.0,4.0,646.238818007987,4.0,1.0,part_1,,,,,,,,,,,,,green,hexagon
0.0,8.0,4.0,1.0,6.0,6.0,398.2452769996598,1.0,0.0,part_2,go,250.0,250.0,1.0,,,,,,,,,yellow,I
0.0,1.0,1.0,0.0,5.0,5.0,339.6282530156895,1.0,0.0,part_2,go,250.0,250.0,1.0,,,,,,,,,cyan,circle
0.0,7.0,3.0,1.0,5.0,5.0,509.205564041622,1.0,0.0,part_2,stop,250.0,250.0,3.0,,,,,,,,,white,triangle
0.0,6.0,2.0,1.0,5.0,0.0,0.0,1.0,0.0,part_2,stop,200.0,250.0,4.0,,,,,,,,,blue,diamond
0.0,8.0,4.0,1.0,6.0,6.0,433.7545760208741,1.0,0.0,part_2,go,250.0,250.0,1.0,,,,,,,,,yellow,I
0.0,2.0,2.0,0.0,6.0,6.0,537.5966650317423,1.0,0.0,part_2,go,250.0,250.0,1.0,,,,,,,,,magenta,square
0.0,4.0,4.0,0.0,6.0,6.0,466.1365380161442,1.0,0.0,part_2,go,250.0,250.0,1.0,,,,,,,,,orange,cross
0.0,6.0,2.0,1.0,6.0,0.0,0.0,1.0,0.0,part_2,stop,250.0,250.0,4.0,,,,,,,,,blue,diamond
0.0,3.0,3.0,0.0,5.0,5.0,495.3488269820809,1.0,0.0,part_2,go,250.0,300.0,1.0,,,,,,,,,gray,flipped triangle
0.0,2.0,2.0,0.0,6.0,6.0,450.16921899514267,1.0,0.0,part_2,go,250.0,300.0,1.0,,,,,,,,,magenta,square
0.0,3.0,3.0,0.0,5.0,5.0,479.7532180091366,1.0,0.0,part_2,go,250.0,300.0,1.0,,,,,,,,,gray,flipped triangle
0.0,6.0,2.0,1.0,5.0,5.0,494.4537499686703,1.0,0.0,part_2,go,250.0,300.0,1.0,,,,,,,,,blue,diamond
0.0,7.0,3.0,1.0,6.0,0.0,0.0,1.0,0.0,part_2,stop,250.0,300.0,4.0,,,,,,,,,white,triangle
0.0,7.0,3.0,1.0,6.0,0.0,0.0,1.0,0.0,part_2,stop,250.0,350.0,4.0,,,,,,,,,white,triangle
0.0,4.0,4.0,0.0,6.0,6.0,662.205470027402,1.0,0.0,part_2,go,250.0,400.0,1.0,,,,,,,,,orange,cross
0.0,8.0,4.0,1.0,5.0,5.0,438.2918300107121,1.0,0.0,part_2,stop,250.0,400.0,3.0,,,,,,,,,yellow,I
0.0,4.0,4.0,0.0,5.0,5.0,612.8658630186692,1.0,0.0,part_2,go,200.0,400.0,1.0,,,,,,,,,orange,cross
0.0,1.0,1.0,0.0,5.0,5.0,500.414150999859,1.0,0.0,part_2,go,200.0,400.0,1.0,,,,,,,,,cyan,circle
0.0,8.0,4.0,1.0,6.0,6.0,570.8468230441213,1.0,0.0,part_2,stop,200.0,400.0,3.0,,,,,,,,,yellow,I
0.0,5.0,1.0,1.0,5.0,0.0,0.0,1.0,0.0,part_2,stop,200.0,350.0,4.0,,,,,,,,,green,hexagon
0.0,7.0,3.0,1.0,6.0,0.0,0.0,1.0,0.0,part_2,stop,250.0,350.0,4.0,,,,,,,,,white,triangle
0.0,2.0,2.0,0.0,6.0,6.0,579.1608900181018,1.0,0.0,part_2,go,250.0,400.0,1.0,,,,,,,,,magenta,square
0.0,5.0,1.0,1.0,6.0,0.0,0.0,1.0,0.0,part_2,stop,250.0,400.0,4.0,,,,,,,,,green,hexagon
0.0,3.0,3.0,0.0,5.0,5.0,617.9475730168633,1.0,0.0,part_2,go,250.0,450.0,1.0,,,,,,,,,gray,flipped triangle
0.0,5.0,1.0,1.0,5.0,0.0,0.0,1.0,0.0,part_2,stop,250.0,450.0,4.0,,,,,,,,,green,hexagon
0.0,6.0,2.0,1.0,6.0,0.0,0.0,1.0,0.0,part_2,stop,300.0,450.0,4.0,,,,,,,,,blue,diamond
0.0,6.0,2.0,1.0,6.0,6.0,625.227560987696,1.0,0.0,part_2,stop,300.0,500.0,3.0,,,,,,,,,blue,diamond
0.0,3.0,3.0,0.0,5.0,5.0,813.8916890020482,1.0,0.0,part_2,go,300.0,450.0,1.0,,,,,,,,,gray,flipped triangle
0.0,3.0,3.0,0.0,5.0,5.0,781.3140359940007,1.0,0.0,part_2,go,300.0,450.0,1.0,,,,,,,,,gray,flipped triangle
0.0,6.0,2.0,1.0,5.0,0.0,0.0,1.0,0.0,part_2,stop,300.0,450.0,4.0,,,,,,,,,blue,diamond
0.0,7.0,3.0,1.0,5.0,0.0,0.0,1.0,0.0,part_2,stop,350.0,450.0,4.0,,,,,,,,,white,triangle
0.0,1.0,1.0,0.0,5.0,5.0,730.9502339921892,1.0,0.0,part_2,go,400.0,450.0,1.0,,,,,,,,,cyan,circle
0.0,5.0,1.0,1.0,5.0,0.0,0.0,1.0,0.0,part_2,stop,400.0,450.0,4.0,,,,,,,,,green,hexagon
0.0,4.0,4.0,0.0,6.0,6.0,1033.905029995367,1.0,0.0,part_2,go,450.0,450.0,1.0,,,,,,,,,orange,cross
0.0,4.0,4.0,0.0,6.0,6.0,1025.8823659969494,1.0,0.0,part_2,go,450.0,450.0,1.0,,,,,,,,,orange,cross
0.0,2.0,2.0,0.0,6.0,6.0,931.9713879958726,1.0,0.0,part_2,go,450.0,450.0,1.0,,,,,,,,,magenta,square
0.0,6.0,2.0,1.0,5.0,5.0,623.5700870165601,2.0,0.0,part_2,stop,450.0,450.0,3.0,,,,,,,,,blue,diamond
0.0,7.0,3.0,1.0,6.0,6.0,573.8807829911821,2.0,0.0,part_2,go,400.0,450.0,1.0,,,,,,,,,white,triangle
0.0,4.0,4.0,0.0,5.0,5.0,549.3231280124746,2.0,0.0,part_2,go,400.0,450.0,1.0,,,,,,,,,orange,cross
0.0,5.0,1.0,1.0,6.0,6.0,356.0801060521044,2.0,0.0,part_2,stop,400.0,450.0,3.0,,,,,,,,,green,hexagon
0.0,8.0,4.0,1.0,6.0,6.0,578.3386710099876,2.0,0.0,part_2,go,400.0,400.0,1.0,,,,,,,,,yellow,I
0.0,1.0,1.0,0.0,6.0,6.0,736.8040760047734,2.0,0.0,part_2,go,400.0,400.0,1.0,,,,,,,,,cyan,circle
0.0,7.0,3.0,1.0,6.0,0.0,0.0,2.0,0.0,part_2,stop,400.0,400.0,4.0,,,,,,,,,white,triangle
0.0,2.0,2.0,0.0,6.0,6.0,625.5541520076804,2.0,0.0,part_2,go,400.0,450.0,1.0,,,,,,,,,magenta,square
0.0,2.0,2.0,0.0,6.0,6.0,675.2062190207653,2.0,0.0,part_2,go,400.0,450.0,1.0,,,,,,,,,magenta,square
0.0,5.0,1.0,1.0,5.0,0.0,0.0,2.0,0.0,part_2,stop,400.0,450.0,4.0,,,,,,,,,green,hexagon
0.0,4.0,4.0,0.0,6.0,6.0,613.7190270237625,2.0,0.0,part_2,go,450.0,450.0,1.0,,,,,,,,,orange,cross
0.0,8.0,4.0,1.0,6.0,6.0,592.9583909455687,2.0,0.0,part_2,stop,450.0,450.0,3.0,,,,,,,,,yellow,I
0.0,4.0,4.0,0.0,5.0,5.0,668.5494920238853,2.0,0.0,part_2,go,450.0,400.0,1.0,,,,,,,,,orange,cross
0.0,1.0,1.0,0.0,5.0,5.0,780.9934709803201,2.0,0.0,part_2,go,450.0,400.0,1.0,,,,,,,,,cyan,circle
0.0,2.0,2.0,0.0,5.0,5.0,503.4004090121016,2.0,0.0,part_2,go,450.0,400.0,1.0,,,,,,,,,magenta,square
0.0,3.0,3.0,0.0,5.0,5.0,534.5869890297763,2.0,0.0,part_2,go,450.0,400.0,1.0,,,,,,,,,gray,flipped triangle
0.0,3.0,3.0,0.0,6.0,6.0,686.3923710188828,2.0,0.0,part_2,go,450.0,400.0,1.0,,,,,,,,,gray,flipped triangle
0.0,8.0,4.0,1.0,5.0,0.0,0.0,2.0,0.0,part_2,stop,450.0,400.0,4.0,,,,,,,,,yellow,I
0.0,1.0,1.0,0.0,6.0,6.0,629.7840700135566,2.0,0.0,part_2,go,500.0,400.0,1.0,,,,,,,,,cyan,circle
0.0,1.0,1.0,0.0,5.0,5.0,635.9609810169786,2.0,0.0,part_2,go,500.0,400.0,1.0,,,,,,,,,cyan,circle
0.0,2.0,2.0,0.0,5.0,5.0,594.2177170072682,2.0,0.0,part_2,go,500.0,400.0,1.0,,,,,,,,,magenta,square
0.0,8.0,4.0,1.0,5.0,5.0,497.0178460353054,2.0,0.0,part_2,stop,500.0,400.0,3.0,,,,,,,,,yellow,I
0.0,1.0,1.0,0.0,6.0,6.0,490.3015530435368,2.0,0.0,part_2,go,450.0,400.0,1.0,,,,,,,,,cyan,circle
0.0,7.0,3.0,1.0,5.0,0.0,0.0,2.0,0.0,part_2,stop,450.0,400.0,4.0,,,,,,,,,white,triangle
0.0,1.0,1.0,0.0,6.0,6.0,712.7855939907022,2.0,0.0,part_2,go,500.0,400.0,1.0,,,,,,,,,cyan,circle
0.0,1.0,1.0,0.0,6.0,6.0,686.4065759582445,2.0,0.0,part_2,go,500.0,400.0,1.0,,,,,,,,,cyan,circle
0.0,1.0,1.0,0.0,5.0,5.0,511.90860400674865,2.0,0.0,part_2,go,500.0,400.0,1.0,,,,,,,,,cyan,circle
0.0,5.0,1.0,1.0,6.0,0.0,0.0,2.0,0.0,part_2,stop,500.0,400.0,4.0,,,,,,,,,green,hexagon
0.0,2.0,2.0,0.0,6.0,6.0,678.2663449994288,2.0,0.0,part_2,go,500.0,450.0,1.0,,,,,,,,,magenta,square
0.0,6.0,2.0,1.0,6.0,0.0,0.0,2.0,0.0,part_2,stop,500.0,450.0,4.0,,,,,,,,,blue,diamond
0.0,2.0,2.0,0.0,5.0,5.0,622.2189270192757,2.0,0.0,part_2,go,500.0,500.0,1.0,,,,,,,,,magenta,square
0.0,8.0,4.0,1.0,6.0,0.0,0.0,2.0,0.0,part_2,stop,500.0,500.0,4.0,,,,,,,,,yellow,I
0.0,3.0,3.0,0.0,6.0,6.0,898.5857529914938,2.0,0.0,part_2,go,500.0,550.0,1.0,,,,,,,,,gray,flipped triangle
0.0,8.0,4.0,1.0,6.0,0.0,0.0,2.0,0.0,part_2,stop,500.0,550.0,4.0,,,,,,,,,yellow,I
0.0,1.0,1.0,0.0,6.0,6.0,691.4681229973212,2.0,0.0,part_2,go,500.0,600.0,1.0,,,,,,,,,cyan,circle
0.0,6.0,2.0,1.0,5.0,5.0,778.6953820032068,2.0,0.0,part_2,stop,500.0,600.0,3.0,,,,,,,,,blue,diamond
0.0,8.0,4.0,1.0,5.0,0.0,0.0,3.0,0.0,part_2,stop,450.0,600.0,4.0,,,,,,,,,yellow,I
0.0,3.0,3.0,0.0,5.0,5.0,772.8124450077303,3.0,0.0,part_2,go,500.0,600.0,1.0,,,,,,,,,gray,flipped triangle
0.0,1.0,1.0,0.0,5.0,5.0,444.3811850505881,3.0,0.0,part_2,go,500.0,600.0,1.0,,,,,,,,,cyan,circle
0.0,1.0,1.0,0.0,5.0,5.0,693.7590339803137,3.0,0.0,part_2,go,500.0,600.0,1.0,,,,,,,,,cyan,circle
0.0,1.0,1.0,0.0,5.0,5.0,635.27091400465,3.0,0.0,part_2,go,500.0,600.0,1.0,,,,,,,,,cyan,circle
0.0,6.0,2.0,1.0,5.0,5.0,748.5456039430574,3.0,0.0,part_2,go,500.0,600.0,1.0,,,,,,,,,blue,diamond
0.0,7.0,3.0,1.0,6.0,6.0,626.1607860215008,3.0,0.0,part_2,stop,500.0,600.0,3.0,,,,,,,,,white,triangle
0.0,3.0,3.0,0.0,6.0,6.0,684.2909420374781,3.0,0.0,part_2,go,500.0,550.0,1.0,,,,,,,,,gray,flipped triangle
0.0,7.0,3.0,1.0,5.0,0.0,0.0,3.0,0.0,part_2,stop,500.0,550.0,4.0,,,,,,,,,white,triangle
0.0,6.0,2.0,1.0,6.0,6.0,650.4430030472577,3.0,0.0,part_2,stop,550.0,550.0,3.0,,,,,,,,,blue,diamond
0.0,3.0,3.0,0.0,6.0,6.0,793.957265035715,3.0,0.0,part_2,go,550.0,500.0,1.0,,,,,,,,,gray,flipped triangle
0.0,6.0,2.0,1.0,6.0,6.0,1065.387020993512,3.0,0.0,part_2,go,550.0,500.0,1.0,,,,,,,,,blue,diamond
0.0,6.0,2.0,1.0,5.0,5.0,952.6134129846467,3.0,0.0,part_2,go,550.0,500.0,1.0,,,,,,,,,blue,diamond
0.0,5.0,1.0,1.0,6.0,0.0,0.0,3.0,0.0,part_2,stop,550.0,500.0,4.0,,,,,,,,,green,hexagon
0.0,7.0,3.0,1.0,5.0,5.0,934.9078679806552,3.0,0.0,part_2,go,550.0,550.0,1.0,,,,,,,,,white,triangle
0.0,2.0,2.0,0.0,6.0,6.0,1039.3971650046296,3.0,0.0,part_2,go,550.0,550.0,1.0,,,,,,,,,magenta,square
0.0,3.0,3.0,0.0,6.0,6.0,1103.9428309886716,3.0,0.0,part_2,go,550.0,550.0,1.0,,,,,,,,,gray,flipped triangle
0.0,7.0,3.0,1.0,5.0,0.0,0.0,3.0,0.0,part_2,stop,550.0,550.0,4.0,,,,,,,,,white,triangle
0.0,5.0,1.0,1.0,6.0,0.0,0.0,3.0,0.0,part_2,stop,600.0,550.0,4.0,,,,,,,,,green,hexagon
0.0,4.0,4.0,0.0,5.0,5.0,1221.5686289709993,3.0,0.0,part_2,go,600.0,600.0,1.0,,,,,,,,,orange,cross
0.0,2.0,2.0,0.0,5.0,5.0,1477.5043400004506,3.0,0.0,part_2,go,600.0,600.0,1.0,,,,,,,,,magenta,square
0.0,6.0,2.0,1.0,6.0,6.0,780.3444610326551,3.0,0.0,part_2,stop,600.0,600.0,3.0,,,,,,,,,blue,diamond
0.0,3.0,3.0,0.0,5.0,5.0,740.9286120091565,3.0,0.0,part_2,go,600.0,550.0,1.0,,,,,,,,,gray,flipped triangle
0.0,8.0,4.0,1.0,5.0,0.0,0.0,3.0,0.0,part_2,stop,600.0,550.0,4.0,,,,,,,,,yellow,I
0.0,7.0,3.0,1.0,5.0,0.0,0.0,3.0,0.0,part_2,stop,650.0,550.0,4.0,,,,,,,,,white,triangle
0.0,4.0,4.0,0.0,5.0,5.0,912.0198469609022,3.0,0.0,part_2,go,700.0,550.0,1.0,,,,,,,,,orange,cross
0.0,3.0,3.0,0.0,5.0,5.0,946.7332559870556,3.0,0.0,part_2,go,700.0,550.0,1.0,,,,,,,,,gray,flipped triangle
0.0,1.0,1.0,0.0,5.0,5.0,833.9417920215055,3.0,0.0,part_2,go,700.0,550.0,1.0,,,,,,,,,cyan,circle
0.0,6.0,2.0,1.0,5.0,0.0,0.0,3.0,0.0,part_2,stop,700.0,550.0,4.0,,,,,,,,,blue,diamond
0.0,5.0,1.0,1.0,5.0,0.0,0.0,3.0,0.0,part_2,stop,750.0,550.0,4.0,,,,,,,,,green,hexagon
0.0,3.0,3.0,0.0,6.0,6.0,775.9802070213482,3.0,0.0,part_2,go,800.0,550.0,1.0,,,,,,,,,gray,flipped triangle
0.0,2.0,2.0,0.0,5.0,5.0,933.2826479803772,3.0,0.0,part_2,go,800.0,550.0,1.0,,,,,,,,,magenta,square
0.0,5.0,1.0,1.0,5.0,5.0,1253.0970759689808,3.0,0.0,part_2,go,800.0,550.0,1.0,,,,,,,,,green,hexagon
0.0,7.0,3.0,1.0,5.0,5.0,843.6338659957983,3.0,0.0,part_2,stop,800.0,550.0,3.0,,,,,,,,,white,triangle
0.0,3.0,3.0,0.0,5.0,5.0,930.3845780086704,3.0,0.0,part_2,go,750.0,550.0,1.0,,,,,,,,,gray,flipped triangle
0.0,6.0,2.0,1.0,5.0,5.0,874.3235529982485,3.0,0.0,part_2,stop,750.0,550.0,3.0,,,,,,,,,blue,diamond
0.0,5.0,1.0,1.0,5.0,5.0,344.012328016106,4.0,0.0,part_2,go,700.0,550.0,1.0,,,,,,,,,green,hexagon
0.0,8.0,4.0,1.0,6.0,6.0,389.704569010064,4.0,0.0,part_2,stop,700.0,550.0,3.0,,,,,,,,,yellow,I
0.0,3.0,3.0,0.0,6.0,6.0,572.7934530004859,4.0,0.0,part_2,go,700.0,500.0,1.0,,,,,,,,,gray,flipped triangle
0.0,2.0,2.0,0.0,6.0,6.0,493.1210500071756,4.0,0.0,part_2,go,700.0,500.0,1.0,,,,,,,,,magenta,square
0.0,7.0,3.0,1.0,6.0,6.0,413.7969859875738,4.0,0.0,part_2,stop,700.0,500.0,3.0,,,,,,,,,white,triangle
0.0,2.0,2.0,0.0,5.0,5.0,443.0647810222581,4.0,0.0,part_2,go,700.0,450.0,1.0,,,,,,,,,magenta,square
0.0,5.0,1.0,1.0,6.0,6.0,453.6730970139615,4.0,0.0,part_2,go,700.0,450.0,1.0,,,,,,,,,green,hexagon
0.0,3.0,3.0,0.0,5.0,5.0,426.975013979245,4.0,0.0,part_2,go,700.0,450.0,1.0,,,,,,,,,gray,flipped triangle
0.0,3.0,3.0,0.0,6.0,6.0,457.6440330129117,4.0,0.0,part_2,go,700.0,450.0,1.0,,,,,,,,,gray,flipped triangle
0.0,2.0,2.0,0.0,5.0,5.0,411.6267560166307,4.0,0.0,part_2,go,700.0,450.0,1.0,,,,,,,,,magenta,square
0.0,7.0,3.0,1.0,6.0,6.0,352.6392670464702,4.0,0.0,part_2,stop,700.0,450.0,3.0,,,,,,,,,white,triangle
0.0,8.0,4.0,1.0,6.0,6.0,392.4756670021452,4.0,0.0,part_2,stop,700.0,400.0,3.0,,,,,,,,,yellow,I
0.0,2.0,2.0,0.0,5.0,5.0,656.4607609761879,4.0,0.0,part_2,go,700.0,350.0,1.0,,,,,,,,,magenta,square
0.0,7.0,3.0,1.0,6.0,6.0,390.8634519902989,4.0,0.0,part_2,go,700.0,350.0,1.0,,,,,,,,,white,triangle
0.0,4.0,4.0,0.0,5.0,5.0,511.053410009481,4.0,0.0,part_2,go,700.0,350.0,1.0,,,,,,,,,orange,cross
0.0,6.0,2.0,1.0,5.0,5.0,813.7460919679143,4.0,0.0,part_2,stop,700.0,350.0,3.0,,,,,,,,,blue,diamond
0.0,5.0,1.0,1.0,6.0,0.0,0.0,4.0,0.0,part_2,stop,650.0,350.0,4.0,,,,,,,,,green,hexagon
0.0,3.0,3.0,0.0,6.0,6.0,709.6391490194947,4.0,0.0,part_2,go,650.0,400.0,1.0,,,,,,,,,gray,flipped triangle
0.0,5.0,1.0,1.0,6.0,0.0,0.0,4.0,0.0,part_2,stop,650.0,400.0,4.0,,,,,,,,,green,hexagon
0.0,8.0,4.0,1.0,5.0,5.0,677.5702480226755,4.0,0.0,part_2,stop,650.0,450.0,3.0,,,,,,,,,yellow,I
0.0,2.0,2.0,0.0,5.0,5.0,772.4914280115627,4.0,0.0,part_2,go,600.0,450.0,1.0,,,,,,,,,magenta,square
0.0,8.0,4.0,1.0,6.0,6.0,574.5742699946277,4.0,0.0,part_2,stop,600.0,450.0,3.0,,,,,,,,,yellow,I
0.0,1.0,1.0,0.0,5.0,5.0,450.9346659760922,4.0,0.0,part_2,go,600.0,400.0,1.0,,,,,,,,,cyan,circle
0.0,2.0,2.0,0.0,6.0,6.0,739.1448710113764,4.0,0.0,part_2,go,600.0,400.0,1.0,,,,,,,,,magenta,square
0.0,8.0,4.0,1.0,6.0,0.0,0.0,4.0,0.0,part_2,stop,600.0,400.0,4.0,,,,,,,,,yellow,I
0.0,6.0,2.0,1.0,5.0,5.0,594.1214499762282,4.0,0.0,part_2,stop,600.0,450.0,3.0,,,,,,,,,blue,diamond
0.0,8.0,4.0,1.0,5.0,5.0,495.3637120197527,4.0,0.0,part_2,stop,550.0,450.0,3.0,,,,,,,,,yellow,I
0.0,2.0,2.0,0.0,6.0,6.0,498.85589198675,4.0,0.0,part_2,go,500.0,450.0,1.0,,,,,,,,,magenta,square
0.0,6.0,2.0,1.0,5.0,0.0,0.0,4.0,0.0,part_2,stop,500.0,450.0,4.0,,,,,,,,,blue,diamond
0.0,7.0,3.0,1.0,5.0,5.0,662.9689440014772,4.0,0.0,part_2,go,550.0,450.0,1.0,,,,,,,,,white,triangle
0.0,1.0,1.0,0.0,5.0,5.0,521.8234260100871,4.0,0.0,part_2,go,550.0,450.0,1.0,,,,,,,,,cyan,circle
0.0,6.0,2.0,1.0,5.0,5.0,575.1035819994286,4.0,0.0,part_2,stop,550.0,450.0,3.0,,,,,,,,,blue,diamond
0.0,5.0,1.0,1.0,5.0,5.0,982.7493720222265,4.0,0.0,part_2,go,500.0,450.0,1.0,,,,,,,,,green,hexagon
0.0,2.0,2.0,0.0,6.0,6.0,596.3910470018163,4.0,0.0,part_2,go,500.0,450.0,1.0,,,,,,,,,magenta,square
0.0,7.0,3.0,1.0,6.0,6.0,615.1390530285425,4.0,0.0,part_2,stop,500.0,450.0,3.0,,,,,,,,,white,triangle
0.0,2.0,2.0,0.0,5.0,5.0,725.2187249832787,4.0,0.0,part_2,go,500.0,400.0,1.0,,,,,,,,,magenta,square
0.0,7.0,3.0,1.0,6.0,6.0,625.8696800214238,5.0,0.0,part_2,stop,500.0,400.0,3.0,,,,,,,,,white,triangle
0.0,7.0,3.0,1.0,5.0,5.0,539.4193070242181,5.0,0.0,part_2,stop,500.0,350.0,3.0,,,,,,,,,white,triangle
0.0,3.0,3.0,0.0,6.0,6.0,575.6912090000696,5.0,0.0,part_2,go,450.0,350.0,1.0,,,,,,,,,gray,flipped triangle
0.0,7.0,3.0,1.0,6.0,0.0,0.0,5.0,0.0,part_2,stop,450.0,350.0,4.0,,,,,,,,,white,triangle
0.0,1.0,1.0,0.0,6.0,6.0,647.605282953009,5.0,0.0,part_2,go,450.0,400.0,1.0,,,,,,,,,cyan,circle
0.0,8.0,4.0,1.0,5.0,5.0,510.13905002037063,5.0,0.0,part_2,stop,450.0,400.0,3.0,,,,,,,,,yellow,I
0.0,7.0,3.0,1.0,5.0,5.0,631.2911519780755,5.0,0.0,part_2,stop,400.0,400.0,3.0,,,,,,,,,white,triangle
0.0,6.0,2.0,1.0,5.0,5.0,780.3626459790394,5.0,0.0,part_2,go,350.0,400.0,1.0,,,,,,,,,blue,diamond
0.0,4.0,4.0,0.0,5.0,5.0,555.1785409916192,5.0,0.0,part_2,go,350.0,400.0,1.0,,,,,,,,,orange,cross
0.0,4.0,4.0,0.0,5.0,5.0,645.628937985748,5.0,0.0,part_2,go,350.0,400.0,1.0,,,,,,,,,orange,cross
0.0,2.0,2.0,0.0,5.0,5.0,677.4164329981431,5.0,0.0,part_2,go,350.0,400.0,1.0,,,,,,,,,magenta,square
0.0,8.0,4.0,1.0,5.0,5.0,507.80471396865323,5.0,0.0,part_2,stop,350.0,400.0,3.0,,,,,,,,,yellow,I
0.0,1.0,1.0,0.0,6.0,6.0,521.5931599959731,5.0,0.0,part_2,go,300.0,400.0,1.0,,,,,,,,,cyan,circle
0.0,4.0,4.0,0.0,5.0,5.0,764.6709909895435,5.0,0.0,part_2,go,300.0,400.0,1.0,,,,,,,,,orange,cross
0.0,3.0,3.0,0.0,5.0,5.0,474.4130040053278,5.0,0.0,part_2,go,300.0,400.0,1.0,,,,,,,,,gray,flipped triangle
0.0,8.0,4.0,1.0,5.0,5.0,479.5363200246356,5.0,0.0,part_2,go,300.0,400.0,1.0,,,,,,,,,yellow,I
0.0,3.0,3.0,0.0,6.0,6.0,775.0362840015441,5.0,0.0,part_2,go,300.0,400.0,1.0,,,,,,,,,gray,flipped triangle
0.0,2.0,2.0,0.0,5.0,5.0,592.6972000161186,5.0,0.0,part_2,go,300.0,400.0,1.0,,,,,,,,,magenta,square
0.0,7.0,3.0,1.0,6.0,6.0,657.6605250011198,5.0,0.0,part_2,go,300.0,400.0,1.0,,,,,,,,,white,triangle
0.0,6.0,2.0,1.0,6.0,0.0,0.0,5.0,0.0,part_2,stop,300.0,400.0,4.0,,,,,,,,,blue,diamond
0.0,4.0,4.0,0.0,5.0,5.0,566.9684539898299,5.0,0.0,part_2,go,300.0,450.0,1.0,,,,,,,,,orange,cross
0.0,6.0,2.0,1.0,6.0,6.0,517.7322910167277,5.0,0.0,part_2,stop,300.0,450.0,3.0,,,,,,,,,blue,diamond
0.0,7.0,3.0,1.0,6.0,6.0,565.499346004799,5.0,0.0,part_2,go,300.0,400.0,1.0,,,,,,,,,white,triangle
0.0,1.0,1.0,0.0,5.0,5.0,603.8317469647154,5.0,0.0,part_2,go,300.0,400.0,1.0,,,,,,,,,cyan,circle
0.0,5.0,1.0,1.0,5.0,0.0,0.0,5.0,0.0,part_2,stop,300.0,400.0,4.0,,,,,,,,,green,hexagon
0.0,4.0,4.0,0.0,6.0,6.0,581.0115729691461,5.0,0.0,part_2,go,350.0,400.0,1.0,,,,,,,,,orange,cross
0.0,8.0,4.0,1.0,6.0,6.0,809.5828840159811,5.0,0.0,part_2,go,350.0,400.0,1.0,,,,,,,,,yellow,I
0.0,6.0,2.0,1.0,6.0,0.0,0.0,5.0,0.0,part_2,stop,350.0,400.0,4.0,,,,,,,,,blue,diamond
0.0,8.0,4.0,1.0,5.0,0.0,0.0,5.0,0.0,part_2,stop,350.0,450.0,4.0,,,,,,,,,yellow,I
0.0,1.0,1.0,0.0,6.0,6.0,667.6506390213035,5.0,0.0,part_2,go,400.0,450.0,1.0,,,,,,,,,cyan,circle
0.0,5.0,1.0,1.0,6.0,6.0,646.9907150021754,5.0,0.0,part_2,go,400.0,450.0,1.0,,,,,,,,,green,hexagon
0.0,5.0,1.0,1.0,5.0,0.0,0.0,5.0,0.0,part_2,stop,400.0,450.0,4.0,,,,,,,,,green,hexagon
0.0,4.0,4.0,0.0,5.0,5.0,674.0362500422634,5.0,0.0,part_2,go,450.0,450.0,1.0,,,,,,,,,orange,cross
0.0,8.0,4.0,1.0,6.0,0.0,0.0,5.0,0.0,part_2,stop,450.0,450.0,4.0,,,,,,,,,yellow,I
0.0,6.0,2.0,1.0,6.0,6.0,543.0094680050388,5.0,0.0,part_2,stop,450.0,500.0,3.0,,,,,,,,,blue,diamond
0.0,2.0,2.0,0.0,5.0,5.0,661.4379849634133,5.0,0.0,part_2,go,450.0,450.0,1.0,,,,,,,,,magenta,square
0.0,8.0,4.0,1.0,5.0,5.0,566.9319109874777,6.0,0.0,part_2,go,450.0,450.0,1.0,,,,,,,,,yellow,I
0.0,3.0,3.0,0.0,5.0,5.0,581.6120800445788,6.0,0.0,part_2,go,450.0,450.0,1.0,,,,,,,,,gray,flipped triangle
0.0,4.0,4.0,0.0,6.0,6.0,483.0012119491584,6.0,0.0,part_2,go,450.0,450.0,1.0,,,,,,,,,orange,cross
0.0,2.0,2.0,0.0,6.0,6.0,613.0947910132818,6.0,0.0,part_2,go,450.0,450.0,1.0,,,,,,,,,magenta,square
0.0,5.0,1.0,1.0,6.0,6.0,353.2906110049225,6.0,0.0,part_2,stop,450.0,450.0,3.0,,,,,,,,,green,hexagon
0.0,3.0,3.0,0.0,5.0,5.0,705.0425849738531,6.0,0.0,part_2,go,450.0,400.0,1.0,,,,,,,,,gray,flipped triangle
0.0,4.0,4.0,0.0,5.0,5.0,520.9948740084656,6.0,0.0,part_2,go,450.0,400.0,1.0,,,,,,,,,orange,cross
0.0,2.0,2.0,0.0,5.0,5.0,297.8408060153015,6.0,0.0,part_2,go,450.0,400.0,1.0,,,,,,,,,magenta,square
0.0,8.0,4.0,1.0,5.0,5.0,409.2178930295631,6.0,0.0,part_2,stop,450.0,400.0,3.0,,,,,,,,,yellow,I
0.0,7.0,3.0,1.0,6.0,6.0,489.6012170356698,6.0,0.0,part_2,stop,400.0,400.0,3.0,,,,,,,,,white,triangle
0.0,1.0,1.0,0.0,5.0,5.0,474.6126300306059,6.0,0.0,part_2,go,400.0,350.0,1.0,,,,,,,,,cyan,circle
0.0,3.0,3.0,0.0,6.0,6.0,408.9908709865995,6.0,0.0,part_2,go,400.0,350.0,1.0,,,,,,,,,gray,flipped triangle
0.0,6.0,2.0,1.0,5.0,0.0,0.0,6.0,0.0,part_2,stop,400.0,350.0,4.0,,,,,,,,,blue,diamond
0.0,2.0,2.0,0.0,5.0,5.0,725.2718239906244,6.0,0.0,part_2,go,450.0,350.0,1.0,,,,,,,,,magenta,square
0.0,2.0,2.0,0.0,5.0,5.0,875.9363470016979,6.0,0.0,part_2,go,450.0,350.0,1.0,,,,,,,,,magenta,square
0.0,5.0,1.0,1.0,5.0,0.0,0.0,6.0,0.0,part_2,stop,450.0,350.0,4.0,,,,,,,,,green,hexagon
0.0,7.0,3.0,1.0,5.0,0.0,0.0,6.0,0.0,part_2,stop,500.0,350.0,4.0,,,,,,,,,white,triangle
0.0,1.0,1.0,0.0,5.0,5.0,1010.8051089919172,6.0,0.0,part_2,go,550.0,350.0,1.0,,,,,,,,,cyan,circle
0.0,4.0,4.0,0.0,5.0,5.0,805.2228320157155,6.0,0.0,part_2,go,550.0,350.0,1.0,,,,,,,,,orange,cross
0.0,8.0,4.0,1.0,5.0,5.0,737.3405140242539,6.0,0.0,part_2,go,550.0,350.0,1.0,,,,,,,,,yellow,I
0.0,3.0,3.0,0.0,6.0,6.0,491.9510890031233,6.0,0.0,part_2,go,550.0,350.0,1.0,,,,,,,,,gray,flipped triangle
0.0,6.0,2.0,1.0,6.0,0.0,0.0,6.0,0.0,part_2,stop,550.0,350.0,4.0,,,,,,,,,blue,diamond
0.0,3.0,3.0,0.0,6.0,6.0,551.3193809892982,6.0,0.0,part_2,go,550.0,400.0,1.0,,,,,,,,,gray,flipped triangle
0.0,7.0,3.0,1.0,5.0,5.0,560.133979015518,6.0,0.0,part_2,go,550.0,400.0,1.0,,,,,,,,,white,triangle
0.0,1.0,1.0,0.0,5.0,5.0,600.3573049674742,6.0,0.0,part_2,go,550.0,400.0,1.0,,,,,,,,,cyan,circle
0.0,5.0,1.0,1.0,6.0,0.0,0.0,6.0,0.0,part_2,stop,550.0,400.0,4.0,,,,,,,,,green,hexagon
0.0,2.0,2.0,0.0,6.0,6.0,680.4472680087201,6.0,0.0,part_2,go,550.0,450.0,1.0,,,,,,,,,magenta,square
0.0,1.0,1.0,0.0,6.0,6.0,734.7141890204512,6.0,0.0,part_2,go,550.0,450.0,1.0,,,,,,,,,cyan,circle
0.0,1.0,1.0,0.0,6.0,6.0,1183.7020519888029,6.0,0.0,part_2,go,550.0,450.0,1.0,,,,,,,,,cyan,circle
0.0,1.0,1.0,0.0,5.0,5.0,694.6447240188718,6.0,0.0,part_2,go,550.0,450.0,1.0,,,,,,,,,cyan,circle
0.0,3.0,3.0,0.0,5.0,5.0,399.2690760060213,6.0,0.0,part_2,go,550.0,450.0,1.0,,,,,,,,,gray,flipped triangle
0.0,4.0,4.0,0.0,5.0,5.0,659.4195659854449,6.0,0.0,part_2,go,550.0,450.0,1.0,,,,,,,,,orange,cross
0.0,6.0,2.0,1.0,6.0,6.0,900.0236190040596,6.0,0.0,part_2,go,550.0,450.0,1.0,,,,,,,,,blue,diamond
0.0,8.0,4.0,1.0,6.0,0.0,0.0,6.0,0.0,part_2,stop,550.0,450.0,4.0,,,,,,,,,yellow,I
0.0,4.0,4.0,0.0,5.0,5.0,841.1862790235318,6.0,0.0,part_2,go,550.0,500.0,1.0,,,,,,,,,orange,cross
0.0,3.0,3.0,0.0,5.0,5.0,1026.177040010225,6.0,0.0,part_2,go,550.0,500.0,1.0,,,,,,,,,gray,flipped triangle
0.0,8.0,4.0,1.0,5.0,5.0,511.74264296423644,7.0,0.0,part_2,stop,550.0,500.0,3.0,,,,,,,,,yellow,I
0.0,7.0,3.0,1.0,5.0,5.0,404.3193320394493,7.0,0.0,part_2,stop,500.0,500.0,3.0,,,,,,,,,white,triangle
0.0,6.0,2.0,1.0,6.0,6.0,523.0060870526358,7.0,0.0,part_2,stop,450.0,500.0,3.0,,,,,,,,,blue,diamond
0.0,1.0,1.0,0.0,6.0,6.0,687.6912830048241,7.0,0.0,part_2,go,450.0,450.0,1.0,,,,,,,,,cyan,circle
0.0,4.0,4.0,0.0,5.0,5.0,466.9026100309565,7.0,0.0,part_2,go,450.0,450.0,1.0,,,,,,,,,orange,cross
0.0,2.0,2.0,0.0,5.0,5.0,339.4473569933325,7.0,0.0,part_2,go,450.0,450.0,1.0,,,,,,,,,magenta,square
0.0,8.0,4.0,1.0,5.0,5.0,433.7128059705719,7.0,0.0,part_2,stop,450.0,450.0,3.0,,,,,,,,,yellow,I
0.0,4.0,4.0,0.0,6.0,6.0,387.810397951398,7.0,0.0,part_2,go,400.0,450.0,1.0,,,,,,,,,orange,cross
0.0,8.0,4.0,1.0,5.0,5.0,492.0337760122493,7.0,0.0,part_2,stop,400.0,450.0,3.0,,,,,,,,,yellow,I
0.0,7.0,3.0,1.0,5.0,0.0,0.0,7.0,0.0,part_2,stop,350.0,450.0,4.0,,,,,,,,,white,triangle
0.0,1.0,1.0,0.0,6.0,6.0,488.6047919862903,7.0,0.0,part_2,go,400.0,450.0,1.0,,,,,,,,,cyan,circle
0.0,5.0,1.0,1.0,5.0,0.0,0.0,7.0,0.0,part_2,stop,400.0,450.0,4.0,,,,,,,,,green,hexagon
0.0,6.0,2.0,1.0,6.0,6.0,599.2451429483481,7.0,0.0,part_2,go,450.0,450.0,1.0,,,,,,,,,blue,diamond
0.0,4.0,4.0,0.0,6.0,6.0,705.6592160370201,7.0,0.0,part_2,go,450.0,450.0,1.0,,,,,,,,,orange,cross
0.0,5.0,1.0,1.0,6.0,6.0,382.6760979718528,7.0,0.0,part_2,stop,450.0,450.0,3.0,,,,,,,,,green,hexagon
0.0,7.0,3.0,1.0,5.0,0.0,0.0,7.0,0.0,part_2,stop,450.0,400.0,4.0,,,,,,,,,white,triangle
0.0,3.0,3.0,0.0,5.0,5.0,527.9276440269314,7.0,0.0,part_2,go,500.0,400.0,1.0,,,,,,,,,gray,flipped triangle
0.0,8.0,4.0,1.0,6.0,0.0,0.0,7.0,0.0,part_2,stop,500.0,400.0,4.0,,,,,,,,,yellow,I
0.0,3.0,3.0,0.0,6.0,6.0,615.0349620147608,7.0,0.0,part_2,go,500.0,450.0,1.0,,,,,,,,,gray,flipped triangle
0.0,4.0,4.0,0.0,6.0,6.0,379.8145379987545,7.0,0.0,part_2,go,500.0,450.0,1.0,,,,,,,,,orange,cross
0.0,1.0,1.0,0.0,6.0,6.0,618.2621709886007,7.0,0.0,part_2,go,500.0,450.0,1.0,,,,,,,,,cyan,circle
0.0,4.0,4.0,0.0,6.0,6.0,508.3074839785695,7.0,0.0,part_2,go,500.0,450.0,1.0,,,,,,,,,orange,cross
0.0,7.0,3.0,1.0,6.0,6.0,396.9275240087881,7.0,0.0,part_2,stop,500.0,450.0,3.0,,,,,,,,,white,triangle
0.0,8.0,4.0,1.0,5.0,5.0,586.2882810179144,7.0,0.0,part_2,stop,500.0,400.0,3.0,,,,,,,,,yellow,I
0.0,4.0,4.0,0.0,6.0,6.0,615.905535989441,7.0,0.0,part_2,go,450.0,400.0,1.0,,,,,,,,,orange,cross
0.0,5.0,1.0,1.0,6.0,6.0,450.5159099935554,7.0,0.0,part_2,go,450.0,400.0,1.0,,,,,,,,,green,hexagon
0.0,5.0,1.0,1.0,6.0,6.0,393.2345579960383,7.0,0.0,part_2,stop,450.0,400.0,3.0,,,,,,,,,green,hexagon
0.0,8.0,4.0,1.0,6.0,6.0,760.319544991944,7.0,0.0,part_2,go,450.0,350.0,1.0,,,,,,,,,yellow,I
0.0,6.0,2.0,1.0,6.0,0.0,0.0,7.0,0.0,part_2,stop,450.0,350.0,4.0,,,,,,,,,blue,diamond
0.0,5.0,1.0,1.0,5.0,5.0,526.4060799963772,7.0,0.0,part_2,stop,450.0,400.0,3.0,,,,,,,,,green,hexagon
0.0,3.0,3.0,0.0,5.0,5.0,871.7402890324593,7.0,0.0,part_2,go,400.0,400.0,1.0,,,,,,,,,gray,flipped triangle
0.0,2.0,2.0,0.0,6.0,6.0,580.8378750225529,7.0,0.0,part_2,go,400.0,400.0,1.0,,,,,,,,,magenta,square
0.0,7.0,3.0,1.0,6.0,0.0,0.0,7.0,0.0,part_2,stop,400.0,400.0,4.0,,,,,,,,,white,triangle
0.0,4.0,4.0,0.0,5.0,5.0,603.4303060150705,7.0,0.0,part_2,go,400.0,450.0,1.0,,,,,,,,,orange,cross
0.0,5.0,1.0,1.0,5.0,0.0,0.0,7.0,0.0,part_2,stop,400.0,450.0,4.0,,,,,,,,,green,hexagon
0.0,3.0,3.0,0.0,6.0,6.0,843.5642080148682,7.0,0.0,part_2,go,450.0,450.0,1.0,,,,,,,,,gray,flipped triangle
0.0,4.0,4.0,0.0,6.0,6.0,508.56783700874075,8.0,0.0,part_2,go,450.0,450.0,1.0,,,,,,,,,orange,cross
0.0,4.0,4.0,0.0,6.0,6.0,395.8594860159792,8.0,0.0,part_2,go,450.0,450.0,1.0,,,,,,,,,orange,cross
0.0,2.0,2.0,0.0,6.0,6.0,627.2532239672728,8.0,0.0,part_2,go,450.0,450.0,1.0,,,,,,,,,magenta,square
0.0,7.0,3.0,1.0,5.0,5.0,600.5779999541119,8.0,0.0,part_2,stop,450.0,450.0,3.0,,,,,,,,,white,triangle
0.0,2.0,2.0,0.0,6.0,6.0,777.9333279468119,8.0,0.0,part_2,go,400.0,450.0,1.0,,,,,,,,,magenta,square
0.0,3.0,3.0,0.0,6.0,6.0,738.2995569496416,8.0,0.0,part_2,go,400.0,450.0,1.0,,,,,,,,,gray,flipped triangle
0.0,1.0,1.0,0.0,5.0,5.0,655.3428309853189,8.0,0.0,part_2,go,400.0,450.0,1.0,,,,,,,,,cyan,circle
0.0,2.0,2.0,0.0,5.0,5.0,720.3730550245382,8.0,0.0,part_2,go,400.0,450.0,1.0,,,,,,,,,magenta,square
0.0,6.0,2.0,1.0,5.0,0.0,0.0,8.0,0.0,part_2,stop,400.0,450.0,4.0,,,,,,,,,blue,diamond
0.0,5.0,1.0,1.0,6.0,0.0,0.0,8.0,0.0,part_2,stop,450.0,450.0,4.0,,,,,,,,,green,hexagon
0.0,5.0,1.0,1.0,5.0,5.0,719.7347049950622,8.0,0.0,part_2,go,450.0,500.0,1.0,,,,,,,,,green,hexagon
0.0,5.0,1.0,1.0,6.0,6.0,613.1240119575523,8.0,0.0,part_2,stop,450.0,500.0,3.0,,,,,,,,,green,hexagon
0.0,4.0,4.0,0.0,6.0,6.0,990.9372690017336,8.0,0.0,part_2,go,450.0,450.0,1.0,,,,,,,,,orange,cross
0.0,2.0,2.0,0.0,6.0,6.0,741.5084360400215,8.0,0.0,part_2,go,450.0,450.0,1.0,,,,,,,,,magenta,square
0.0,1.0,1.0,0.0,6.0,6.0,763.4915729868226,8.0,0.0,part_2,go,450.0,450.0,1.0,,,,,,,,,cyan,circle
0.0,6.0,2.0,1.0,5.0,5.0,1177.0548290223817,8.0,0.0,part_2,go,450.0,450.0,1.0,,,,,,,,,blue,diamond
0.0,3.0,3.0,0.0,6.0,6.0,849.9997079488821,8.0,0.0,part_2,go,450.0,450.0,1.0,,,,,,,,,gray,flipped triangle
0.0,8.0,4.0,1.0,6.0,6.0,856.7468050168827,8.0,0.0,part_2,go,450.0,450.0,1.0,,,,,,,,,yellow,I
0.0,5.0,1.0,1.0,6.0,6.0,896.0336589952931,8.0,0.0,part_2,go,450.0,450.0,1.0,,,,,,,,,green,hexagon
0.0,5.0,1.0,1.0,6.0,0.0,0.0,8.0,0.0,part_2,stop,450.0,450.0,4.0,,,,,,,,,green,hexagon
0.0,4.0,4.0,0.0,6.0,6.0,706.2090240069665,8.0,0.0,part_2,go,450.0,500.0,1.0,,,,,,,,,orange,cross
0.0,1.0,1.0,0.0,6.0,6.0,773.5281549976207,8.0,0.0,part_2,go,450.0,500.0,1.0,,,,,,,,,cyan,circle
0.0,5.0,1.0,1.0,5.0,0.0,0.0,8.0,0.0,part_2,stop,450.0,500.0,4.0,,,,,,,,,green,hexagon
0.0,6.0,2.0,1.0,5.0,0.0,0.0,8.0,0.0,part_2,stop,500.0,500.0,4.0,,,,,,,,,blue,diamond
0.0,1.0,1.0,0.0,6.0,6.0,652.2559069562703,8.0,0.0,part_2,go,550.0,500.0,1.0,,,,,,,,,cyan,circle
0.0,6.0,2.0,1.0,6.0,6.0,591.2055179942399,8.0,0.0,part_2,stop,550.0,500.0,3.0,,,,,,,,,blue,diamond
0.0,4.0,4.0,0.0,6.0,6.0,795.5032900208607,8.0,0.0,part_2,go,550.0,450.0,1.0,,,,,,,,,orange,cross
0.0,5.0,1.0,1.0,5.0,5.0,878.7923770141788,8.0,0.0,part_2,go,550.0,450.0,1.0,,,,,,,,,green,hexagon
0.0,5.0,1.0,1.0,5.0,0.0,0.0,8.0,0.0,part_2,stop,550.0,450.0,4.0,,,,,,,,,green,hexagon
0.0,4.0,4.0,0.0,6.0,6.0,676.4619129826315,8.0,0.0,part_2,go,600.0,450.0,1.0,,,,,,,,,orange,cross
0.0,7.0,3.0,1.0,5.0,5.0,712.8900760435499,8.0,0.0,part_2,go,600.0,450.0,1.0,,,,,,,,,white,triangle
0.0,7.0,3.0,1.0,6.0,6.0,636.0768979648128,8.0,0.0,part_2,go,600.0,450.0,1.0,,,,,,,,,white,triangle
0.0,8.0,4.0,1.0,6.0,0.0,0.0,8.0,0.0,part_2,stop,600.0,450.0,4.0,,,,,,,,,yellow,I
0.0,4.0,4.0,0.0,5.0,5.0,743.9816190162674,8.0,0.0,part_2,go,600.0,500.0,1.0,,,,,,,,,orange,cross
0.0,1.0,1.0,0.0,6.0,6.0,760.3180719888769,8.0,0.0,part_2,go,600.0,500.0,1.0,,,,,,,,,cyan,circle
0.0,6.0,2.0,1.0,6.0,6.0,672.2382960142568,8.0,0.0,part_2,go,600.0,500.0,1.0,,,,,,,,,blue,diamond
0.0,2.0,2.0,0.0,7.0,2.0,3979.6127330046143,1.0,1.0,part_3,go,0.0,0.0,0.0,44.0,1.0,264.0,44.0,220.0,132.0,176.0,88.0,magenta,square
0.0,4.0,4.0,0.0,7.0,5.0,4972.017928957939,1.0,1.0,part_3,go,0.0,0.0,0.0,234.0,6.0,156.0,117.0,195.0,39.0,234.0,78.0,orange,cross
0.0,4.0,4.0,0.0,7.0,3.0,2899.877494026441,1.0,1.0,part_3,go,0.0,0.0,0.0,324.0,6.0,216.0,54.0,324.0,270.0,162.0,108.0,orange,cross
0.0,2.0,2.0,0.0,7.0,4.0,3675.758842029609,1.0,1.0,part_3,go,0.0,0.0,0.0,49.0,1.0,147.0,245.0,98.0,49.0,294.0,196.0,magenta,square
0.0,4.0,4.0,0.0,7.0,5.0,3235.343139967881,1.0,1.0,part_3,go,0.0,0.0,0.0,204.0,6.0,34.0,68.0,102.0,136.0,204.0,170.0,orange,cross
0.0,5.0,1.0,1.0,7.0,6.0,3989.5586170023303,1.0,1.0,part_3,go,0.0,0.0,0.0,34.0,1.0,102.0,136.0,68.0,204.0,170.0,34.0,green,hexagon
0.0,1.0,1.0,0.0,7.0,5.0,2598.7185120466165,1.0,1.0,part_3,go,0.0,0.0,0.0,44.0,1.0,264.0,176.0,220.0,88.0,44.0,132.0,cyan,circle
0.0,7.0,3.0,1.0,7.0,6.0,4126.287739025429,1.0,1.0,part_3,go,0.0,0.0,0.0,156.0,4.0,234.0,117.0,39.0,78.0,195.0,156.0,white,triangle
0.0,2.0,2.0,0.0,7.0,6.0,2439.41570201423,1.0,1.0,part_3,go,0.0,0.0,0.0,98.0,2.0,196.0,245.0,294.0,49.0,147.0,98.0,magenta,square
0.0,7.0,3.0,1.0,7.0,2.0,3171.7526170541532,1.0,1.0,part_3,go,0.0,0.0,0.0,170.0,5.0,102.0,170.0,204.0,34.0,136.0,68.0,white,triangle
0.0,7.0,3.0,1.0,7.0,3.0,788.2157010026276,1.0,2.0,part_3,go,0.0,0.0,0.0,216.0,4.0,270.0,324.0,216.0,108.0,54.0,162.0,white,triangle
0.0,5.0,1.0,1.0,7.0,2.0,2428.3881439478137,1.0,1.0,part_3,go,0.0,0.0,0.0,117.0,3.0,195.0,117.0,234.0,156.0,78.0,39.0,green,hexagon
0.0,8.0,4.0,1.0,7.0,2.0,2316.827367991209,1.0,1.0,part_3,go,0.0,0.0,0.0,204.0,6.0,34.0,204.0,102.0,68.0,136.0,170.0,yellow,I
0.0,5.0,1.0,1.0,7.0,4.0,1784.639993973542,1.0,1.0,part_3,go,0.0,0.0,0.0,147.0,3.0,49.0,294.0,245.0,147.0,98.0,196.0,green,hexagon
0.0,6.0,2.0,1.0,7.0,6.0,3688.823064032477,1.0,1.0,part_3,go,0.0,0.0,0.0,98.0,2.0,147.0,196.0,245.0,294.0,49.0,98.0,blue,diamond
0.0,6.0,2.0,1.0,7.0,2.0,1273.9228759892285,1.0,1.0,part_3,go,0.0,0.0,0.0,102.0,3.0,68.0,102.0,34.0,204.0,136.0,170.0,blue,diamond
0.0,7.0,3.0,1.0,7.0,4.0,2346.193110977765,1.0,1.0,part_3,go,0.0,0.0,0.0,220.0,5.0,88.0,176.0,264.0,220.0,132.0,44.0,white,triangle
0.0,4.0,4.0,0.0,7.0,6.0,2238.0404099822044,1.0,1.0,part_3,go,0.0,0.0,0.0,294.0,6.0,196.0,245.0,147.0,98.0,49.0,294.0,orange,cross
0.0,4.0,4.0,0.0,7.0,4.0,2469.9623610358685,1.0,1.0,part_3,go,0.0,0.0,0.0,264.0,6.0,88.0,176.0,132.0,264.0,220.0,44.0,orange,cross
0.0,1.0,1.0,0.0,7.0,2.0,2330.2809959859587,1.0,1.0,part_3,go,0.0,0.0,0.0,54.0,1.0,270.0,54.0,324.0,108.0,162.0,216.0,cyan,circle
0.0,8.0,4.0,1.0,7.0,5.0,2853.990736999549,2.0,1.0,part_3,go,0.0,0.0,0.0,294.0,6.0,147.0,49.0,98.0,245.0,294.0,196.0,yellow,I
0.0,7.0,3.0,1.0,7.0,3.0,2174.294363008812,2.0,1.0,part_3,go,0.0,0.0,0.0,176.0,4.0,44.0,132.0,176.0,220.0,264.0,88.0,white,triangle
0.0,1.0,1.0,0.0,7.0,3.0,3223.536402976606,2.0,1.0,part_3,go,0.0,0.0,0.0,49.0,1.0,196.0,98.0,49.0,245.0,294.0,147.0,cyan,circle
0.0,5.0,1.0,1.0,7.0,5.0,1821.2782479822636,2.0,1.0,part_3,go,0.0,0.0,0.0,68.0,2.0,34.0,170.0,204.0,136.0,68.0,102.0,green,hexagon
0.0,5.0,1.0,1.0,7.0,3.0,2642.6832760334946,2.0,1.0,part_3,go,0.0,0.0,0.0,108.0,2.0,324.0,162.0,108.0,216.0,54.0,270.0,green,hexagon
0.0,3.0,3.0,0.0,7.0,1.0,2366.670379007701,2.0,1.0,part_3,go,0.0,0.0,0.0,170.0,5.0,170.0,102.0,204.0,68.0,136.0,34.0,gray,flipped triangle
0.0,6.0,2.0,1.0,7.0,2.0,2325.71567496052,2.0,1.0,part_3,go,0.0,0.0,0.0,108.0,2.0,270.0,108.0,54.0,162.0,324.0,216.0,blue,diamond
0.0,8.0,4.0,1.0,7.0,3.0,2302.874315995723,2.0,1.0,part_3,go,0.0,0.0,0.0,234.0,6.0,156.0,78.0,234.0,39.0,195.0,117.0,yellow,I
0.0,5.0,1.0,1.0,7.0,1.0,1940.2298899949528,2.0,1.0,part_3,go,0.0,0.0,0.0,108.0,2.0,108.0,54.0,270.0,324.0,216.0,162.0,green,hexagon
0.0,4.0,4.0,0.0,7.0,4.0,2163.97006099578,2.0,1.0,part_3,go,0.0,0.0,0.0,234.0,6.0,195.0,117.0,78.0,234.0,39.0,156.0,orange,cross
0.0,6.0,2.0,1.0,7.0,3.0,3501.6893539577723,2.0,1.0,part_3,go,0.0,0.0,0.0,49.0,1.0,147.0,294.0,49.0,196.0,98.0,245.0,blue,diamond
0.0,3.0,3.0,0.0,7.0,5.0,2944.3313869996928,2.0,1.0,part_3,go,0.0,0.0,0.0,216.0,4.0,270.0,108.0,162.0,324.0,216.0,54.0,gray,flipped triangle
0.0,5.0,1.0,1.0,7.0,5.0,1998.3464510296471,2.0,1.0,part_3,go,0.0,0.0,0.0,117.0,3.0,195.0,234.0,39.0,156.0,117.0,78.0,green,hexagon
0.0,6.0,2.0,1.0,7.0,3.0,2847.5015470176004,2.0,1.0,part_3,go,0.0,0.0,0.0,54.0,1.0,324.0,270.0,54.0,108.0,162.0,216.0,blue,diamond
0.0,4.0,4.0,0.0,7.0,3.0,2396.0003580432385,2.0,1.0,part_3,go,0.0,0.0,0.0,264.0,6.0,88.0,44.0,264.0,220.0,176.0,132.0,orange,cross
0.0,6.0,2.0,1.0,7.0,5.0,2597.4146539811045,2.0,1.0,part_3,go,0.0,0.0,0.0,88.0,2.0,132.0,220.0,176.0,264.0,88.0,44.0,blue,diamond
0.0,5.0,1.0,1.0,7.0,3.0,2277.876948995982,2.0,1.0,part_3,go,0.0,0.0,0.0,88.0,2.0,220.0,132.0,88.0,176.0,264.0,44.0,green,hexagon
0.0,3.0,3.0,0.0,7.0,4.0,3166.880256030709,2.0,1.0,part_3,go,0.0,0.0,0.0,196.0,4.0,245.0,294.0,49.0,196.0,147.0,98.0,gray,flipped triangle
0.0,8.0,4.0,1.0,7.0,5.0,2057.073404022958,2.0,1.0,part_3,go,0.0,0.0,0.0,264.0,6.0,220.0,176.0,88.0,44.0,264.0,132.0,yellow,I
0.0,3.0,3.0,0.0,7.0,1.0,1985.7745629851704,2.0,1.0,part_3,go,0.0,0.0,0.0,216.0,4.0,216.0,270.0,108.0,54.0,324.0,162.0,gray,flipped triangle
0.0,1.0,1.0,0.0,7.0,6.0,1669.659306993708,3.0,1.0,part_3,go,0.0,0.0,0.0,34.0,1.0,136.0,204.0,102.0,170.0,68.0,34.0,cyan,circle
0.0,4.0,4.0,0.0,7.0,1.0,2414.0530749573372,3.0,1.0,part_3,go,0.0,0.0,0.0,294.0,6.0,294.0,49.0,98.0,196.0,245.0,147.0,orange,cross
0.0,1.0,1.0,0.0,7.0,6.0,1762.7067029825412,3.0,1.0,part_3,go,0.0,0.0,0.0,39.0,1.0,156.0,78.0,195.0,234.0,117.0,39.0,cyan,circle
0.0,7.0,3.0,1.0,7.0,6.0,2979.0556550142355,3.0,1.0,part_3,go,0.0,0.0,0.0,195.0,5.0,156.0,39.0,78.0,117.0,234.0,195.0,white,triangle
0.0,7.0,3.0,1.0,7.0,2.0,2836.8352130055428,3.0,1.0,part_3,go,0.0,0.0,0.0,196.0,4.0,49.0,196.0,147.0,245.0,98.0,294.0,white,triangle
0.0,5.0,1.0,1.0,7.0,6.0,2399.649863014929,3.0,1.0,part_3,go,0.0,0.0,0.0,98.0,2.0,294.0,196.0,49.0,147.0,245.0,98.0,green,hexagon
0.0,3.0,3.0,0.0,7.0,2.0,3532.9057599883527,3.0,1.0,part_3,go,0.0,0.0,0.0,195.0,5.0,78.0,195.0,234.0,117.0,39.0,156.0,gray,flipped triangle
0.0,1.0,1.0,0.0,7.0,6.0,1671.740191988647,3.0,1.0,part_3,go,0.0,0.0,0.0,39.0,1.0,156.0,234.0,78.0,117.0,195.0,39.0,cyan,circle
0.0,1.0,1.0,0.0,7.0,1.0,1994.1869110334665,3.0,1.0,part_3,go,0.0,0.0,0.0,44.0,1.0,44.0,176.0,264.0,132.0,88.0,220.0,cyan,circle
0.0,4.0,4.0,0.0,7.0,5.0,2963.2845310261473,3.0,1.0,part_3,go,0.0,0.0,0.0,324.0,6.0,216.0,108.0,162.0,270.0,324.0,54.0,orange,cross
0.0,1.0,1.0,0.0,7.0,2.0,2202.4627259816043,3.0,1.0,part_3,go,0.0,0.0,0.0,49.0,1.0,294.0,49.0,98.0,196.0,245.0,147.0,cyan,circle
0.0,1.0,1.0,0.0,7.0,1.0,1452.8213319717906,3.0,1.0,part_3,go,0.0,0.0,0.0,54.0,1.0,54.0,162.0,216.0,270.0,108.0,324.0,cyan,circle
0.0,7.0,3.0,1.0,7.0,2.0,2725.8538380265236,3.0,1.0,part_3,go,0.0,0.0,0.0,196.0,4.0,49.0,196.0,98.0,294.0,147.0,245.0,white,triangle
0.0,5.0,1.0,1.0,7.0,4.0,2426.7875339719467,3.0,1.0,part_3,go,0.0,0.0,0.0,176.0,4.0,264.0,88.0,220.0,176.0,132.0,44.0,green,hexagon
0.0,8.0,4.0,1.0,7.0,4.0,2498.1984179466963,3.0,1.0,part_3,go,0.0,0.0,0.0,294.0,6.0,147.0,245.0,196.0,294.0,49.0,98.0,yellow,I
0.0,3.0,3.0,0.0,7.0,3.0,1749.106216011569,3.0,1.0,part_3,go,0.0,0.0,0.0,245.0,5.0,49.0,294.0,245.0,98.0,147.0,196.0,gray,flipped triangle
0.0,2.0,2.0,0.0,7.0,3.0,3294.1002980223857,3.0,1.0,part_3,go,0.0,0.0,0.0,54.0,1.0,216.0,324.0,54.0,108.0,162.0,270.0,magenta,square
0.0,1.0,1.0,0.0,7.0,2.0,1342.1594279934652,3.0,1.0,part_3,go,0.0,0.0,0.0,34.0,1.0,204.0,34.0,68.0,136.0,170.0,102.0,cyan,circle
0.0,3.0,3.0,0.0,7.0,3.0,3455.262914998457,3.0,1.0,part_3,go,0.0,0.0,0.0,220.0,5.0,176.0,44.0,220.0,264.0,132.0,88.0,gray,flipped triangle
0.0,3.0,3.0,0.0,7.0,6.0,2354.3500259984285,3.0,1.0,part_3,go,0.0,0.0,0.0,195.0,5.0,39.0,234.0,78.0,117.0,156.0,195.0,gray,flipped triangle
0.0,2.0,2.0,0.0,7.0,5.0,3217.769567039795,4.0,1.0,part_3,go,0.0,0.0,0.0,136.0,4.0,68.0,170.0,204.0,34.0,136.0,102.0,magenta,square
0.0,3.0,3.0,0.0,7.0,3.0,2132.0245179813355,4.0,1.0,part_3,go,0.0,0.0,0.0,204.0,6.0,34.0,170.0,204.0,102.0,68.0,136.0,gray,flipped triangle
0.0,6.0,2.0,1.0,7.0,2.0,1338.6750119971111,4.0,1.0,part_3,go,0.0,0.0,0.0,156.0,4.0,39.0,156.0,78.0,234.0,195.0,117.0,blue,diamond
0.0,6.0,2.0,1.0,7.0,6.0,2951.966000953689,4.0,1.0,part_3,go,0.0,0.0,0.0,136.0,4.0,170.0,204.0,102.0,68.0,34.0,136.0,blue,diamond
0.0,2.0,2.0,0.0,7.0,5.0,3045.4282839782536,4.0,1.0,part_3,go,0.0,0.0,0.0,117.0,3.0,78.0,39.0,156.0,234.0,117.0,195.0,magenta,square
0.0,4.0,4.0,0.0,7.0,4.0,2898.4722680179398,4.0,1.0,part_3,go,0.0,0.0,0.0,204.0,6.0,102.0,34.0,136.0,204.0,170.0,68.0,orange,cross
0.0,2.0,2.0,0.0,7.0,5.0,2250.03201601794,4.0,1.0,part_3,go,0.0,0.0,0.0,108.0,2.0,216.0,324.0,54.0,162.0,108.0,270.0,magenta,square
0.0,2.0,2.0,0.0,7.0,2.0,2299.603004998062,4.0,1.0,part_3,go,0.0,0.0,0.0,136.0,4.0,102.0,136.0,68.0,204.0,34.0,170.0,magenta,square
0.0,7.0,3.0,1.0,7.0,6.0,2365.1077550021,4.0,1.0,part_3,go,0.0,0.0,0.0,216.0,4.0,162.0,54.0,270.0,324.0,108.0,216.0,white,triangle
0.0,2.0,2.0,0.0,7.0,5.0,2399.5559059549123,4.0,1.0,part_3,go,0.0,0.0,0.0,132.0,3.0,264.0,176.0,88.0,220.0,132.0,44.0,magenta,square
0.0,7.0,3.0,1.0,7.0,4.0,3886.173528968357,4.0,1.0,part_3,go,0.0,0.0,0.0,204.0,6.0,136.0,68.0,102.0,204.0,34.0,170.0,white,triangle
0.0,8.0,4.0,1.0,7.0,4.0,3561.03235197952,4.0,1.0,part_3,go,0.0,0.0,0.0,234.0,6.0,78.0,195.0,39.0,234.0,156.0,117.0,yellow,I
0.0,8.0,4.0,1.0,7.0,5.0,2097.3973520449363,4.0,1.0,part_3,go,0.0,0.0,0.0,264.0,6.0,132.0,220.0,88.0,44.0,264.0,176.0,yellow,I
0.0,2.0,2.0,0.0,7.0,2.0,2445.6040670047514,4.0,1.0,part_3,go,0.0,0.0,0.0,117.0,3.0,156.0,117.0,78.0,234.0,195.0,39.0,magenta,square
0.0,6.0,2.0,1.0,7.0,2.0,3117.2018949873745,4.0,1.0,part_3,go,0.0,0.0,0.0,156.0,4.0,117.0,156.0,195.0,234.0,39.0,78.0,blue,diamond
0.0,8.0,4.0,1.0,7.0,3.0,3309.514133958146,4.0,1.0,part_3,go,0.0,0.0,0.0,324.0,6.0,54.0,270.0,324.0,108.0,216.0,162.0,yellow,I
0.0,8.0,4.0,1.0,7.0,4.0,2448.7225270131603,4.0,1.0,part_3,go,0.0,0.0,0.0,324.0,6.0,162.0,216.0,270.0,324.0,54.0,108.0,yellow,I
0.0,3.0,3.0,0.0,7.0,3.0,2135.4064979823306,4.0,1.0,part_3,go,0.0,0.0,0.0,220.0,5.0,132.0,264.0,220.0,44.0,88.0,176.0,gray,flipped triangle
0.0,8.0,4.0,1.0,7.0,6.0,2330.281984002795,4.0,1.0,part_3,go,0.0,0.0,0.0,204.0,6.0,68.0,34.0,136.0,102.0,170.0,204.0,yellow,I
0.0,6.0,2.0,1.0,7.0,6.0,3378.183515043929,4.0,1.0,part_3,go,0.0,0.0,0.0,264.0,6.0,132.0,88.0,220.0,44.0,176.0,264.0,blue,diamond
