raw_reward_magnitude,stim_reward,stepwise_reward_magnitude,paired_with_stopping,stim_location,response,reaction_time,block,num_trial_presentations,which_phase,stop_signal_trial_type,left_SSD,right_SSD,accuracy,chosen_bidding_amount,chosen_bidding_level,possible_bid_1,possible_bid_2,possible_bid_3,possible_bid_4,possible_bid_5,possible_bid_6,color_text,shape_text
389.0,4.0,4.0,0.0,2.0,2.0,415.4423809959553,1.0,1.0,phase_1,,,,,,,,,,,,,magenta,flipped triangle
0.0,3.0,0.0,0.0,1.0,1.0,341.1767520010471,1.0,1.0,phase_1,,,,,,,,,,,,,cyan,hexagon
78.0,2.0,1.0,0.0,2.0,2.0,344.8573820060119,1.0,1.0,phase_1,,,,,,,,,,,,,white,circle
397.0,4.0,4.0,0.0,4.0,4.0,332.4011170188896,1.0,1.0,phase_1,,,,,,,,,,,,,magenta,flipped triangle
33.0,5.0,0.5,1.0,4.0,4.0,314.859906968195,1.0,1.0,phase_1,,,,,,,,,,,,,green,square
222.0,7.0,2.0,1.0,2.0,2.0,328.0433500185609,1.0,1.0,phase_1,,,,,,,,,,,,,gray,diamond
216.0,3.0,2.0,0.0,2.0,2.0,332.058647996746,1.0,1.0,phase_1,,,,,,,,,,,,,cyan,hexagon
0.0,1.0,0.0,0.0,3.0,3.0,393.3979209978133,1.0,1.0,phase_1,,,,,,,,,,,,,orange,I
38.0,5.0,0.5,1.0,4.0,4.0,259.4680380425416,1.0,1.0,phase_1,,,,,,,,,,,,,green,square
222.0,3.0,2.0,0.0,4.0,4.0,344.2534399800934,1.0,1.0,phase_1,,,,,,,,,,,,,cyan,hexagon
0.0,2.0,0.0,0.0,1.0,1.0,300.1402979716658,1.0,1.0,phase_1,,,,,,,,,,,,,white,circle
49.0,5.0,0.5,1.0,1.0,1.0,251.10371899791062,1.0,1.0,phase_1,,,,,,,,,,,,,green,square
86.0,2.0,1.0,0.0,1.0,1.0,320.2574669849127,1.0,1.0,phase_1,,,,,,,,,,,,,white,circle
377.0,8.0,4.0,1.0,3.0,3.0,282.8492000116966,1.0,1.0,phase_1,,,,,,,,,,,,,blue,triangle
205.0,3.0,2.0,0.0,1.0,1.0,303.1083000241779,1.0,1.0,phase_1,,,,,,,,,,,,,cyan,hexagon
114.0,6.0,1.0,1.0,1.0,1.0,318.6901049921289,1.0,1.0,phase_1,,,,,,,,,,,,,yellow,cross
100.0,2.0,1.0,0.0,3.0,3.0,312.4023930286057,1.0,1.0,phase_1,,,,,,,,,,,,,white,circle
97.0,6.0,1.0,1.0,2.0,2.0,295.1476629823446,1.0,1.0,phase_1,,,,,,,,,,,,,yellow,cross
190.0,7.0,2.0,1.0,4.0,4.0,290.0904639973305,1.0,1.0,phase_1,,,,,,,,,,,,,gray,diamond
37.0,5.0,0.5,1.0,4.0,4.0,303.9337359950878,1.0,1.0,phase_1,,,,,,,,,,,,,green,square
27.0,1.0,0.5,0.0,3.0,3.0,380.1013670163229,1.0,1.0,phase_1,,,,,,,,,,,,,orange,I
52.0,1.0,0.5,0.0,4.0,4.0,307.2603190084919,1.0,1.0,phase_1,,,,,,,,,,,,,orange,I
396.0,8.0,4.0,1.0,4.0,4.0,357.3532499722205,1.0,1.0,phase_1,,,,,,,,,,,,,blue,triangle
101.0,6.0,1.0,1.0,4.0,4.0,340.6171399983577,1.0,1.0,phase_1,,,,,,,,,,,,,yellow,cross
196.0,7.0,2.0,1.0,2.0,2.0,345.2221640036441,1.0,1.0,phase_1,,,,,,,,,,,,,gray,diamond
94.0,6.0,1.0,1.0,2.0,2.0,300.5594279966317,1.0,1.0,phase_1,,,,,,,,,,,,,yellow,cross
78.0,6.0,1.0,1.0,3.0,3.0,370.6224219640717,1.0,1.0,phase_1,,,,,,,,,,,,,yellow,cross
79.0,6.0,1.0,1.0,4.0,4.0,316.3438529591076,1.0,1.0,phase_1,,,,,,,,,,,,,yellow,cross
0.0,4.0,0.0,0.0,3.0,3.0,291.914822999388,1.0,1.0,phase_1,,,,,,,,,,,,,magenta,flipped triangle
411.0,8.0,4.0,1.0,2.0,2.0,356.9374639773741,1.0,2.0,phase_1,,,,,,,,,,,,,blue,triangle
201.0,3.0,2.0,0.0,1.0,1.0,319.1094399662688,1.0,1.0,phase_1,,,,,,,,,,,,,cyan,hexagon
412.0,4.0,4.0,0.0,4.0,4.0,339.4440829870291,1.0,1.0,phase_1,,,,,,,,,,,,,magenta,flipped triangle
59.0,5.0,0.5,1.0,1.0,1.0,395.1351049472578,1.0,1.0,phase_1,,,,,,,,,,,,,green,square
108.0,2.0,1.0,0.0,1.0,1.0,270.727330003865,1.0,1.0,phase_1,,,,,,,,,,,,,white,circle
0.0,8.0,0.0,1.0,4.0,4.0,299.9343249830417,1.0,1.0,phase_1,,,,,,,,,,,,,blue,triangle
37.0,1.0,0.5,0.0,1.0,1.0,305.1440849667415,1.0,1.0,phase_1,,,,,,,,,,,,,orange,I
408.0,4.0,4.0,0.0,2.0,2.0,341.8824440450407,1.0,1.0,phase_1,,,,,,,,,,,,,magenta,flipped triangle
68.0,1.0,0.5,0.0,4.0,4.0,378.806275955867,1.0,1.0,phase_1,,,,,,,,,,,,,orange,I
36.0,5.0,0.5,1.0,1.0,1.0,308.3557040081359,1.0,1.0,phase_1,,,,,,,,,,,,,green,square
87.0,6.0,1.0,1.0,2.0,2.0,268.5766450013034,1.0,1.0,phase_1,,,,,,,,,,,,,yellow,cross
0.0,7.0,0.0,1.0,3.0,3.0,341.7180720134638,1.0,1.0,phase_1,,,,,,,,,,,,,gray,diamond
388.0,4.0,4.0,0.0,3.0,3.0,357.4746630038135,1.0,1.0,phase_1,,,,,,,,,,,,,magenta,flipped triangle
387.0,4.0,4.0,0.0,4.0,4.0,296.7066600103862,1.0,1.0,phase_1,,,,,,,,,,,,,magenta,flipped triangle
124.0,2.0,1.0,0.0,2.0,2.0,333.3589689573273,1.0,1.0,phase_1,,,,,,,,,,,,,white,circle
210.0,3.0,2.0,0.0,1.0,1.0,304.3522600200958,1.0,1.0,phase_1,,,,,,,,,,,,,cyan,hexagon
99.0,2.0,1.0,0.0,2.0,2.0,423.0702240020036,1.0,1.0,phase_1,,,,,,,,,,,,,white,circle
0.0,2.0,0.0,0.0,4.0,4.0,485.8831830206327,1.0,1.0,phase_1,,,,,,,,,,,,,white,circle
45.0,1.0,0.5,0.0,1.0,1.0,312.8554210416041,1.0,1.0,phase_1,,,,,,,,,,,,,orange,I
221.0,7.0,2.0,1.0,2.0,2.0,364.8557979613542,1.0,1.0,phase_1,,,,,,,,,,,,,gray,diamond
0.0,5.0,0.0,1.0,2.0,2.0,378.1549920095131,1.0,1.0,phase_1,,,,,,,,,,,,,green,square
186.0,3.0,2.0,0.0,2.0,2.0,389.2635439988225,1.0,2.0,phase_1,,,,,,,,,,,,,cyan,hexagon
67.0,5.0,0.5,1.0,1.0,1.0,373.9295039558783,1.0,1.0,phase_1,,,,,,,,,,,,,green,square
100.0,6.0,1.0,1.0,3.0,3.0,450.9349120198749,1.0,1.0,phase_1,,,,,,,,,,,,,yellow,cross
200.0,7.0,2.0,1.0,4.0,4.0,394.522937014699,1.0,1.0,phase_1,,,,,,,,,,,,,gray,diamond
0.0,1.0,0.0,0.0,1.0,1.0,351.5715759713202,1.0,1.0,phase_1,,,,,,,,,,,,,orange,I
383.0,4.0,4.0,0.0,3.0,3.0,434.2095619649626,1.0,1.0,phase_1,,,,,,,,,,,,,magenta,flipped triangle
409.0,8.0,4.0,1.0,3.0,3.0,391.0244680009782,1.0,1.0,phase_1,,,,,,,,,,,,,blue,triangle
421.0,8.0,4.0,1.0,2.0,2.0,338.9362840098329,1.0,1.0,phase_1,,,,,,,,,,,,,blue,triangle
205.0,7.0,2.0,1.0,4.0,4.0,422.7654260466806,1.0,1.0,phase_1,,,,,,,,,,,,,gray,diamond
208.0,3.0,2.0,0.0,4.0,4.0,364.1252350062132,1.0,1.0,phase_1,,,,,,,,,,,,,cyan,hexagon
408.0,8.0,4.0,1.0,4.0,4.0,340.2581859845668,1.0,1.0,phase_1,,,,,,,,,,,,,blue,triangle
86.0,6.0,1.0,1.0,2.0,2.0,341.1026119720191,1.0,1.0,phase_1,,,,,,,,,,,,,yellow,cross
205.0,3.0,2.0,0.0,3.0,3.0,379.4430500129238,1.0,1.0,phase_1,,,,,,,,,,,,,cyan,hexagon
66.0,5.0,0.5,1.0,2.0,2.0,486.9778749998659,1.0,1.0,phase_1,,,,,,,,,,,,,green,square
78.0,6.0,1.0,1.0,1.0,1.0,403.9482939988374,1.0,1.0,phase_1,,,,,,,,,,,,,yellow,cross
78.0,2.0,1.0,0.0,1.0,1.0,345.8917590323835,1.0,1.0,phase_1,,,,,,,,,,,,,white,circle
393.0,4.0,4.0,0.0,3.0,3.0,292.6231300225481,1.0,1.0,phase_1,,,,,,,,,,,,,magenta,flipped triangle
77.0,2.0,1.0,0.0,3.0,3.0,337.9515270353295,1.0,1.0,phase_1,,,,,,,,,,,,,white,circle
400.0,8.0,4.0,1.0,3.0,3.0,407.7007540035993,1.0,1.0,phase_1,,,,,,,,,,,,,blue,triangle
177.0,3.0,2.0,0.0,2.0,2.0,349.38426601001987,1.0,1.0,phase_1,,,,,,,,,,,,,cyan,hexagon
417.0,4.0,4.0,0.0,4.0,4.0,423.6782870138995,1.0,1.0,phase_1,,,,,,,,,,,,,magenta,flipped triangle
0.0,5.0,0.0,1.0,4.0,4.0,437.9751940141432,1.0,1.0,phase_1,,,,,,,,,,,,,green,square
195.0,7.0,2.0,1.0,1.0,1.0,394.4957799976691,1.0,1.0,phase_1,,,,,,,,,,,,,gray,diamond
119.0,2.0,1.0,0.0,1.0,1.0,349.7196999960579,1.0,1.0,phase_1,,,,,,,,,,,,,white,circle
415.0,4.0,4.0,0.0,3.0,3.0,378.9251319831237,1.0,1.0,phase_1,,,,,,,,,,,,,magenta,flipped triangle
54.0,5.0,0.5,1.0,3.0,3.0,360.6328769819811,1.0,1.0,phase_1,,,,,,,,,,,,,green,square
42.0,5.0,0.5,1.0,4.0,4.0,387.46712700231,1.0,1.0,phase_1,,,,,,,,,,,,,green,square
45.0,5.0,0.5,1.0,4.0,4.0,338.992804987356,1.0,1.0,phase_1,,,,,,,,,,,,,green,square
0.0,6.0,0.0,1.0,3.0,3.0,431.3261299976147,1.0,1.0,phase_1,,,,,,,,,,,,,yellow,cross
36.0,1.0,0.5,0.0,3.0,3.0,323.6605399870313,1.0,1.0,phase_1,,,,,,,,,,,,,orange,I
97.0,2.0,1.0,0.0,2.0,2.0,326.739270996768,1.0,1.0,phase_1,,,,,,,,,,,,,white,circle
205.0,3.0,2.0,0.0,2.0,2.0,310.0491910008713,1.0,1.0,phase_1,,,,,,,,,,,,,cyan,hexagon
0.0,6.0,0.0,1.0,4.0,4.0,335.9976839856244,1.0,1.0,phase_1,,,,,,,,,,,,,yellow,cross
0.0,7.0,0.0,1.0,2.0,2.0,327.3841000045649,1.0,1.0,phase_1,,,,,,,,,,,,,gray,diamond
0.0,6.0,0.0,1.0,4.0,4.0,323.7933710333891,1.0,1.0,phase_1,,,,,,,,,,,,,yellow,cross
210.0,7.0,2.0,1.0,3.0,3.0,329.0654940064996,1.0,1.0,phase_1,,,,,,,,,,,,,gray,diamond
201.0,7.0,2.0,1.0,4.0,4.0,356.930105946958,1.0,1.0,phase_1,,,,,,,,,,,,,gray,diamond
120.0,2.0,1.0,0.0,3.0,3.0,314.392474014312,1.0,1.0,phase_1,,,,,,,,,,,,,white,circle
398.0,4.0,4.0,0.0,1.0,1.0,365.3993670013733,1.0,1.0,phase_1,,,,,,,,,,,,,magenta,flipped triangle
388.0,8.0,4.0,1.0,2.0,2.0,299.0981269977055,1.0,1.0,phase_1,,,,,,,,,,,,,blue,triangle
91.0,6.0,1.0,1.0,4.0,4.0,477.9276369954459,1.0,1.0,phase_1,,,,,,,,,,,,,yellow,cross
74.0,1.0,0.5,0.0,3.0,3.0,324.4959310395643,1.0,1.0,phase_1,,,,,,,,,,,,,orange,I
38.0,1.0,0.5,0.0,3.0,3.0,280.1338150165975,1.0,1.0,phase_1,,,,,,,,,,,,,orange,I
224.0,7.0,2.0,1.0,1.0,1.0,325.3750349977053,1.0,1.0,phase_1,,,,,,,,,,,,,gray,diamond
205.0,3.0,2.0,0.0,1.0,1.0,395.3191580367274,1.0,1.0,phase_1,,,,,,,,,,,,,cyan,hexagon
421.0,4.0,4.0,0.0,4.0,4.0,382.6203210046515,1.0,1.0,phase_1,,,,,,,,,,,,,magenta,flipped triangle
46.0,5.0,0.5,1.0,1.0,1.0,320.6257959827781,1.0,1.0,phase_1,,,,,,,,,,,,,green,square
105.0,2.0,1.0,0.0,2.0,2.0,336.3713600556366,1.0,1.0,phase_1,,,,,,,,,,,,,white,circle
36.0,5.0,0.5,1.0,4.0,4.0,358.057799981907,1.0,1.0,phase_1,,,,,,,,,,,,,green,square
395.0,8.0,4.0,1.0,4.0,4.0,337.7199169481173,1.0,1.0,phase_1,,,,,,,,,,,,,blue,triangle
187.0,7.0,2.0,1.0,3.0,3.0,360.395880008582,2.0,1.0,phase_1,,,,,,,,,,,,,gray,diamond
0.0,4.0,0.0,0.0,4.0,4.0,361.5947409998625,2.0,1.0,phase_1,,,,,,,,,,,,,magenta,flipped triangle
114.0,2.0,1.0,0.0,4.0,4.0,336.5907439729199,2.0,1.0,phase_1,,,,,,,,,,,,,white,circle
0.0,3.0,0.0,0.0,2.0,2.0,258.8764540269039,2.0,1.0,phase_1,,,,,,,,,,,,,cyan,hexagon
0.0,7.0,0.0,1.0,2.0,2.0,303.6778310197405,2.0,1.0,phase_1,,,,,,,,,,,,,gray,diamond
62.0,5.0,0.5,1.0,2.0,2.0,299.549225019291,2.0,1.0,phase_1,,,,,,,,,,,,,green,square
184.0,7.0,2.0,1.0,4.0,4.0,272.9859399842098,2.0,1.0,phase_1,,,,,,,,,,,,,gray,diamond
387.0,8.0,4.0,1.0,1.0,1.0,407.2705809958279,2.0,1.0,phase_1,,,,,,,,,,,,,blue,triangle
38.0,5.0,0.5,1.0,3.0,3.0,292.7812659763731,2.0,1.0,phase_1,,,,,,,,,,,,,green,square
124.0,6.0,1.0,1.0,3.0,3.0,338.0340309813618,2.0,1.0,phase_1,,,,,,,,,,,,,yellow,cross
201.0,7.0,2.0,1.0,3.0,3.0,316.2337350076996,2.0,1.0,phase_1,,,,,,,,,,,,,gray,diamond
176.0,7.0,2.0,1.0,2.0,2.0,353.9247509907,2.0,1.0,phase_1,,,,,,,,,,,,,gray,diamond
423.0,4.0,4.0,0.0,2.0,2.0,324.605573026929,2.0,1.0,phase_1,,,,,,,,,,,,,magenta,flipped triangle
75.0,5.0,0.5,1.0,3.0,3.0,317.3294339794665,2.0,1.0,phase_1,,,,,,,,,,,,,green,square
0.0,2.0,0.0,0.0,2.0,2.0,307.0945159997791,2.0,2.0,phase_1,,,,,,,,,,,,,white,circle
82.0,2.0,1.0,0.0,3.0,3.0,426.9577260129154,2.0,1.0,phase_1,,,,,,,,,,,,,white,circle
415.0,8.0,4.0,1.0,2.0,2.0,300.4864540416747,2.0,1.0,phase_1,,,,,,,,,,,,,blue,triangle
397.0,4.0,4.0,0.0,2.0,2.0,257.9102030140348,2.0,1.0,phase_1,,,,,,,,,,,,,magenta,flipped triangle
409.0,4.0,4.0,0.0,2.0,2.0,277.1029739524238,2.0,1.0,phase_1,,,,,,,,,,,,,magenta,flipped triangle
208.0,7.0,2.0,1.0,3.0,3.0,362.677043012809,2.0,1.0,phase_1,,,,,,,,,,,,,gray,diamond
212.0,3.0,2.0,0.0,3.0,3.0,360.4598809615709,2.0,1.0,phase_1,,,,,,,,,,,,,cyan,hexagon
178.0,7.0,2.0,1.0,2.0,2.0,307.5791719602421,2.0,1.0,phase_1,,,,,,,,,,,,,gray,diamond
0.0,6.0,0.0,1.0,3.0,3.0,299.7209880268201,2.0,1.0,phase_1,,,,,,,,,,,,,yellow,cross
0.0,7.0,0.0,1.0,1.0,1.0,390.750192978885,2.0,1.0,phase_1,,,,,,,,,,,,,gray,diamond
418.0,4.0,4.0,0.0,1.0,1.0,300.2497929846868,2.0,1.0,phase_1,,,,,,,,,,,,,magenta,flipped triangle
384.0,4.0,4.0,0.0,3.0,3.0,304.0086060063913,2.0,1.0,phase_1,,,,,,,,,,,,,magenta,flipped triangle
109.0,6.0,1.0,1.0,3.0,3.0,308.5381569690071,2.0,1.0,phase_1,,,,,,,,,,,,,yellow,cross
223.0,7.0,2.0,1.0,1.0,1.0,267.4509500502608,2.0,1.0,phase_1,,,,,,,,,,,,,gray,diamond
48.0,1.0,0.5,0.0,1.0,1.0,278.6613820353523,2.0,1.0,phase_1,,,,,,,,,,,,,orange,I
0.0,4.0,0.0,0.0,2.0,2.0,401.7710619955323,2.0,1.0,phase_1,,,,,,,,,,,,,magenta,flipped triangle
35.0,5.0,0.5,1.0,4.0,4.0,353.5243950318545,2.0,1.0,phase_1,,,,,,,,,,,,,green,square
26.0,5.0,0.5,1.0,1.0,1.0,235.1934040198102,2.0,1.0,phase_1,,,,,,,,,,,,,green,square
193.0,7.0,2.0,1.0,2.0,2.0,234.2509860172867,2.0,1.0,phase_1,,,,,,,,,,,,,gray,diamond
204.0,7.0,2.0,1.0,4.0,4.0,311.8191609974019,2.0,1.0,phase_1,,,,,,,,,,,,,gray,diamond
0.0,7.0,0.0,1.0,1.0,1.0,320.3618350089527,2.0,1.0,phase_1,,,,,,,,,,,,,gray,diamond
0.0,1.0,0.0,0.0,3.0,3.0,345.2053039800375,2.0,1.0,phase_1,,,,,,,,,,,,,orange,I
423.0,8.0,4.0,1.0,1.0,1.0,233.494306972716,2.0,1.0,phase_1,,,,,,,,,,,,,blue,triangle
184.0,3.0,2.0,0.0,2.0,2.0,303.4249820047989,2.0,1.0,phase_1,,,,,,,,,,,,,cyan,hexagon
0.0,2.0,0.0,0.0,4.0,4.0,293.2443430181592,2.0,1.0,phase_1,,,,,,,,,,,,,white,circle
190.0,3.0,2.0,0.0,2.0,2.0,281.9583810050972,2.0,1.0,phase_1,,,,,,,,,,,,,cyan,hexagon
42.0,5.0,0.5,1.0,1.0,1.0,263.8968109968118,2.0,1.0,phase_1,,,,,,,,,,,,,green,square
101.0,2.0,1.0,0.0,4.0,4.0,330.7721589808352,2.0,1.0,phase_1,,,,,,,,,,,,,white,circle
62.0,1.0,0.5,0.0,2.0,2.0,249.6231729746796,2.0,1.0,phase_1,,,,,,,,,,,,,orange,I
417.0,8.0,4.0,1.0,2.0,2.0,293.7520050327293,2.0,1.0,phase_1,,,,,,,,,,,,,blue,triangle
103.0,6.0,1.0,1.0,3.0,3.0,359.3235639855265,2.0,1.0,phase_1,,,,,,,,,,,,,yellow,cross
112.0,2.0,1.0,0.0,3.0,3.0,325.7890039822086,2.0,1.0,phase_1,,,,,,,,,,,,,white,circle
102.0,2.0,1.0,0.0,4.0,4.0,372.6789829670451,2.0,1.0,phase_1,,,,,,,,,,,,,white,circle
35.0,1.0,0.5,0.0,1.0,1.0,295.1913909637369,2.0,1.0,phase_1,,,,,,,,,,,,,orange,I
59.0,1.0,0.5,0.0,4.0,4.0,347.8869819664396,2.0,1.0,phase_1,,,,,,,,,,,,,orange,I
103.0,6.0,1.0,1.0,3.0,3.0,328.6310490220785,2.0,1.0,phase_1,,,,,,,,,,,,,yellow,cross
32.0,5.0,0.5,1.0,3.0,3.0,380.9984640101902,2.0,1.0,phase_1,,,,,,,,,,,,,green,square
68.0,5.0,0.5,1.0,3.0,3.0,387.0661720284261,2.0,1.0,phase_1,,,,,,,,,,,,,green,square
400.0,4.0,4.0,0.0,1.0,1.0,263.6342999758199,2.0,1.0,phase_1,,,,,,,,,,,,,magenta,flipped triangle
411.0,4.0,4.0,0.0,1.0,1.0,315.9442149917595,2.0,1.0,phase_1,,,,,,,,,,,,,magenta,flipped triangle
63.0,1.0,0.5,0.0,1.0,1.0,238.2730899844318,2.0,1.0,phase_1,,,,,,,,,,,,,orange,I
215.0,3.0,2.0,0.0,2.0,2.0,309.4647609977983,2.0,1.0,phase_1,,,,,,,,,,,,,cyan,hexagon
46.0,1.0,0.5,0.0,1.0,1.0,263.5103549691848,2.0,1.0,phase_1,,,,,,,,,,,,,orange,I
0.0,5.0,0.0,1.0,1.0,1.0,292.7150469622575,2.0,1.0,phase_1,,,,,,,,,,,,,green,square
95.0,2.0,1.0,0.0,3.0,3.0,328.80444801412517,2.0,1.0,phase_1,,,,,,,,,,,,,white,circle
416.0,4.0,4.0,0.0,3.0,3.0,361.5704179974273,2.0,1.0,phase_1,,,,,,,,,,,,,magenta,flipped triangle
195.0,3.0,2.0,0.0,4.0,4.0,348.4643370029516,2.0,1.0,phase_1,,,,,,,,,,,,,cyan,hexagon
420.0,8.0,4.0,1.0,2.0,2.0,328.2795589766465,2.0,1.0,phase_1,,,,,,,,,,,,,blue,triangle
0.0,3.0,0.0,0.0,2.0,2.0,492.2863010433502,2.0,1.0,phase_1,,,,,,,,,,,,,cyan,hexagon
0.0,6.0,0.0,1.0,3.0,3.0,344.135963008739,2.0,1.0,phase_1,,,,,,,,,,,,,yellow,cross
398.0,8.0,4.0,1.0,4.0,4.0,325.5943990079686,2.0,1.0,phase_1,,,,,,,,,,,,,blue,triangle
72.0,5.0,0.5,1.0,2.0,2.0,331.2701939721592,2.0,1.0,phase_1,,,,,,,,,,,,,green,square
0.0,5.0,0.0,1.0,1.0,1.0,278.9839340257458,2.0,1.0,phase_1,,,,,,,,,,,,,green,square
212.0,3.0,2.0,0.0,1.0,1.0,467.308928957209,2.0,1.0,phase_1,,,,,,,,,,,,,cyan,hexagon
215.0,7.0,2.0,1.0,1.0,1.0,303.3418360282667,2.0,1.0,phase_1,,,,,,,,,,,,,gray,diamond
180.0,3.0,2.0,0.0,3.0,3.0,311.8215419817716,2.0,1.0,phase_1,,,,,,,,,,,,,cyan,hexagon
114.0,2.0,1.0,0.0,4.0,4.0,381.2290409696288,2.0,1.0,phase_1,,,,,,,,,,,,,white,circle
78.0,6.0,1.0,1.0,1.0,1.0,272.1950650447979,2.0,1.0,phase_1,,,,,,,,,,,,,yellow,cross
0.0,3.0,0.0,0.0,3.0,3.0,340.3048869804479,2.0,1.0,phase_1,,,,,,,,,,,,,cyan,hexagon
424.0,4.0,4.0,0.0,1.0,1.0,303.68229001760477,2.0,1.0,phase_1,,,,,,,,,,,,,magenta,flipped triangle
99.0,6.0,1.0,1.0,1.0,1.0,279.8112099990248,2.0,1.0,phase_1,,,,,,,,,,,,,yellow,cross
0.0,5.0,0.0,1.0,4.0,4.0,324.7596229775809,2.0,1.0,phase_1,,,,,,,,,,,,,green,square
204.0,3.0,2.0,0.0,3.0,3.0,368.3688779710792,2.0,1.0,phase_1,,,,,,,,,,,,,cyan,hexagon
72.0,1.0,0.5,0.0,4.0,4.0,336.0366180422716,2.0,2.0,phase_1,,,,,,,,,,,,,orange,I
0.0,1.0,0.0,0.0,4.0,4.0,358.95038099261,2.0,1.0,phase_1,,,,,,,,,,,,,orange,I
103.0,2.0,1.0,0.0,4.0,4.0,408.9327080291696,2.0,1.0,phase_1,,,,,,,,,,,,,white,circle
179.0,3.0,2.0,0.0,2.0,2.0,460.6403550133109,2.0,1.0,phase_1,,,,,,,,,,,,,cyan,hexagon
217.0,7.0,2.0,1.0,4.0,4.0,377.8857540455647,2.0,1.0,phase_1,,,,,,,,,,,,,gray,diamond
42.0,1.0,0.5,0.0,2.0,2.0,336.3928020116873,2.0,1.0,phase_1,,,,,,,,,,,,,orange,I
108.0,6.0,1.0,1.0,1.0,1.0,310.8671099762432,2.0,1.0,phase_1,,,,,,,,,,,,,yellow,cross
205.0,7.0,2.0,1.0,1.0,1.0,257.6358279911801,2.0,1.0,phase_1,,,,,,,,,,,,,gray,diamond
0.0,6.0,0.0,1.0,4.0,4.0,435.5535539798438,2.0,2.0,phase_1,,,,,,,,,,,,,yellow,cross
36.0,1.0,0.5,0.0,4.0,4.0,357.9531760187819,2.0,1.0,phase_1,,,,,,,,,,,,,orange,I
179.0,7.0,2.0,1.0,3.0,3.0,443.0612939759157,2.0,1.0,phase_1,,,,,,,,,,,,,gray,diamond
224.0,3.0,2.0,0.0,4.0,4.0,424.8589780181646,2.0,1.0,phase_1,,,,,,,,,,,,,cyan,hexagon
0.0,7.0,0.0,1.0,3.0,3.0,343.0110680055804,2.0,1.0,phase_1,,,,,,,,,,,,,gray,diamond
212.0,7.0,2.0,1.0,2.0,2.0,487.7693220041692,2.0,1.0,phase_1,,,,,,,,,,,,,gray,diamond
0.0,4.0,0.0,0.0,1.0,1.0,375.0379339908249,2.0,1.0,phase_1,,,,,,,,,,,,,magenta,flipped triangle
0.0,4.0,0.0,0.0,3.0,3.0,409.4396199798211,2.0,1.0,phase_1,,,,,,,,,,,,,magenta,flipped triangle
54.0,1.0,0.5,0.0,4.0,4.0,366.1000430001877,2.0,1.0,phase_1,,,,,,,,,,,,,orange,I
124.0,2.0,1.0,0.0,4.0,4.0,451.0800180141814,2.0,1.0,phase_1,,,,,,,,,,,,,white,circle
0.0,5.0,0.0,1.0,2.0,2.0,288.4103489923291,2.0,1.0,phase_1,,,,,,,,,,,,,green,square
390.0,8.0,4.0,1.0,1.0,1.0,293.1812200113199,2.0,1.0,phase_1,,,,,,,,,,,,,blue,triangle
72.0,5.0,0.5,1.0,2.0,2.0,316.8281399994157,2.0,1.0,phase_1,,,,,,,,,,,,,green,square
424.0,8.0,4.0,1.0,2.0,2.0,353.0133690219372,2.0,1.0,phase_1,,,,,,,,,,,,,blue,triangle
79.0,6.0,1.0,1.0,2.0,2.0,324.7479619458318,2.0,1.0,phase_1,,,,,,,,,,,,,yellow,cross
0.0,8.0,0.0,1.0,2.0,2.0,352.753915998619,3.0,1.0,phase_1,,,,,,,,,,,,,blue,triangle
55.0,5.0,0.5,1.0,4.0,4.0,336.1444249749183,3.0,1.0,phase_1,,,,,,,,,,,,,green,square
0.0,3.0,0.0,0.0,1.0,1.0,284.0967130032368,3.0,1.0,phase_1,,,,,,,,,,,,,cyan,hexagon
0.0,4.0,0.0,0.0,2.0,2.0,328.1494590337388,3.0,1.0,phase_1,,,,,,,,,,,,,magenta,flipped triangle
397.0,8.0,4.0,1.0,3.0,3.0,390.6874769600108,3.0,1.0,phase_1,,,,,,,,,,,,,blue,triangle
390.0,4.0,4.0,0.0,4.0,4.0,328.3695880090818,3.0,1.0,phase_1,,,,,,,,,,,,,magenta,flipped triangle
58.0,1.0,0.5,0.0,2.0,2.0,301.097736984957,3.0,1.0,phase_1,,,,,,,,,,,,,orange,I
384.0,4.0,4.0,0.0,2.0,2.0,307.2256430168636,3.0,1.0,phase_1,,,,,,,,,,,,,magenta,flipped triangle
43.0,5.0,0.5,1.0,3.0,3.0,325.7697999943048,3.0,1.0,phase_1,,,,,,,,,,,,,green,square
67.0,1.0,0.5,0.0,1.0,1.0,324.8508429969661,3.0,1.0,phase_1,,,,,,,,,,,,,orange,I
0.0,1.0,0.0,0.0,4.0,4.0,455.8535499963909,3.0,2.0,phase_1,,,,,,,,,,,,,orange,I
0.0,7.0,0.0,1.0,4.0,4.0,354.4025510200299,3.0,1.0,phase_1,,,,,,,,,,,,,gray,diamond
111.0,6.0,1.0,1.0,4.0,4.0,375.2123920130543,3.0,1.0,phase_1,,,,,,,,,,,,,yellow,cross
178.0,3.0,2.0,0.0,1.0,1.0,420.4725309973582,3.0,1.0,phase_1,,,,,,,,,,,,,cyan,hexagon
194.0,3.0,2.0,0.0,3.0,3.0,383.9311469928361,3.0,1.0,phase_1,,,,,,,,,,,,,cyan,hexagon
205.0,7.0,2.0,1.0,1.0,1.0,307.4960940284654,3.0,1.0,phase_1,,,,,,,,,,,,,gray,diamond
91.0,2.0,1.0,0.0,3.0,3.0,320.2151939622126,3.0,1.0,phase_1,,,,,,,,,,,,,white,circle
0.0,6.0,0.0,1.0,1.0,1.0,325.9586949716322,3.0,1.0,phase_1,,,,,,,,,,,,,yellow,cross
387.0,4.0,4.0,0.0,2.0,2.0,402.6049269596115,3.0,1.0,phase_1,,,,,,,,,,,,,magenta,flipped triangle
55.0,1.0,0.5,0.0,4.0,4.0,304.6192559995688,3.0,1.0,phase_1,,,,,,,,,,,,,orange,I
26.0,5.0,0.5,1.0,1.0,1.0,318.7090669525787,3.0,1.0,phase_1,,,,,,,,,,,,,green,square
188.0,7.0,2.0,1.0,3.0,3.0,641.4607129991055,3.0,1.0,phase_1,,,,,,,,,,,,,gray,diamond
200.0,3.0,2.0,0.0,3.0,3.0,357.6957769691944,3.0,1.0,phase_1,,,,,,,,,,,,,cyan,hexagon
100.0,2.0,1.0,0.0,4.0,4.0,365.7126299804076,3.0,2.0,phase_1,,,,,,,,,,,,,white,circle
417.0,8.0,4.0,1.0,1.0,1.0,437.941571988631,3.0,1.0,phase_1,,,,,,,,,,,,,blue,triangle
376.0,4.0,4.0,0.0,3.0,3.0,353.441554994788,3.0,1.0,phase_1,,,,,,,,,,,,,magenta,flipped triangle
416.0,8.0,4.0,1.0,3.0,3.0,379.6170220011845,3.0,1.0,phase_1,,,,,,,,,,,,,blue,triangle
420.0,4.0,4.0,0.0,1.0,1.0,384.2444880283437,3.0,1.0,phase_1,,,,,,,,,,,,,magenta,flipped triangle
74.0,1.0,0.5,0.0,4.0,4.0,593.3247540378943,3.0,1.0,phase_1,,,,,,,,,,,,,orange,I
0.0,1.0,0.0,0.0,2.0,2.0,540.7561330357566,3.0,1.0,phase_1,,,,,,,,,,,,,orange,I
82.0,6.0,1.0,1.0,3.0,3.0,393.4668240253813,3.0,1.0,phase_1,,,,,,,,,,,,,yellow,cross
400.0,4.0,4.0,0.0,4.0,4.0,439.1747990157455,3.0,1.0,phase_1,,,,,,,,,,,,,magenta,flipped triangle
0.0,8.0,0.0,1.0,4.0,4.0,394.8669109959155,3.0,1.0,phase_1,,,,,,,,,,,,,blue,triangle
400.0,4.0,4.0,0.0,3.0,3.0,348.3011610223911,3.0,1.0,phase_1,,,,,,,,,,,,,magenta,flipped triangle
201.0,7.0,2.0,1.0,2.0,2.0,347.2770249936729,3.0,1.0,phase_1,,,,,,,,,,,,,gray,diamond
221.0,3.0,2.0,0.0,4.0,4.0,496.9996729632839,3.0,1.0,phase_1,,,,,,,,,,,,,cyan,hexagon
0.0,6.0,0.0,1.0,2.0,2.0,451.4860199997201,3.0,1.0,phase_1,,,,,,,,,,,,,yellow,cross
33.0,1.0,0.5,0.0,2.0,2.0,375.0762760173529,3.0,1.0,phase_1,,,,,,,,,,,,,orange,I
383.0,4.0,4.0,0.0,4.0,4.0,431.6009129979647,3.0,1.0,phase_1,,,,,,,,,,,,,magenta,flipped triangle
0.0,1.0,0.0,0.0,4.0,4.0,370.1557260355912,3.0,1.0,phase_1,,,,,,,,,,,,,orange,I
77.0,6.0,1.0,1.0,1.0,1.0,373.0638090055436,3.0,1.0,phase_1,,,,,,,,,,,,,yellow,cross
49.0,1.0,0.5,0.0,3.0,3.0,330.0101040513254,3.0,1.0,phase_1,,,,,,,,,,,,,orange,I
0.0,2.0,0.0,0.0,2.0,2.0,446.293200016953,3.0,1.0,phase_1,,,,,,,,,,,,,white,circle
89.0,2.0,1.0,0.0,2.0,2.0,350.1539130229503,3.0,1.0,phase_1,,,,,,,,,,,,,white,circle
118.0,2.0,1.0,0.0,1.0,1.0,337.2042330447584,3.0,1.0,phase_1,,,,,,,,,,,,,white,circle
43.0,1.0,0.5,0.0,2.0,2.0,300.3770420327782,3.0,1.0,phase_1,,,,,,,,,,,,,orange,I
103.0,2.0,1.0,0.0,3.0,3.0,329.3443780275993,3.0,1.0,phase_1,,,,,,,,,,,,,white,circle
384.0,8.0,4.0,1.0,2.0,2.0,389.8650470073335,3.0,1.0,phase_1,,,,,,,,,,,,,blue,triangle
122.0,6.0,1.0,1.0,4.0,4.0,445.0702219619415,3.0,1.0,phase_1,,,,,,,,,,,,,yellow,cross
26.0,1.0,0.5,0.0,3.0,3.0,455.8675150037743,3.0,1.0,phase_1,,,,,,,,,,,,,orange,I
0.0,3.0,0.0,0.0,2.0,2.0,438.447458029259,3.0,1.0,phase_1,,,,,,,,,,,,,cyan,hexagon
409.0,4.0,4.0,0.0,1.0,1.0,425.4474269691854,3.0,1.0,phase_1,,,,,,,,,,,,,magenta,flipped triangle
212.0,3.0,2.0,0.0,3.0,3.0,346.0488540004007,3.0,2.0,phase_1,,,,,,,,,,,,,cyan,hexagon
72.0,1.0,0.5,0.0,2.0,2.0,401.3318189536221,3.0,1.0,phase_1,,,,,,,,,,,,,orange,I
180.0,7.0,2.0,1.0,1.0,1.0,343.1016420363448,3.0,1.0,phase_1,,,,,,,,,,,,,gray,diamond
0.0,1.0,0.0,0.0,4.0,4.0,315.5537019483745,3.0,1.0,phase_1,,,,,,,,,,,,,orange,I
412.0,8.0,4.0,1.0,4.0,4.0,461.3121800357476,3.0,1.0,phase_1,,,,,,,,,,,,,blue,triangle
87.0,2.0,1.0,0.0,1.0,1.0,393.4287399752065,3.0,1.0,phase_1,,,,,,,,,,,,,white,circle
201.0,3.0,2.0,0.0,1.0,1.0,400.2931999857537,3.0,1.0,phase_1,,,,,,,,,,,,,cyan,hexagon
187.0,3.0,2.0,0.0,3.0,3.0,348.3903899905272,3.0,1.0,phase_1,,,,,,,,,,,,,cyan,hexagon
408.0,8.0,4.0,1.0,3.0,3.0,435.9968260396272,3.0,1.0,phase_1,,,,,,,,,,,,,blue,triangle
220.0,7.0,2.0,1.0,2.0,2.0,364.4691499648615,3.0,1.0,phase_1,,,,,,,,,,,,,gray,diamond
0.0,4.0,0.0,0.0,2.0,2.0,368.8652609707787,3.0,1.0,phase_1,,,,,,,,,,,,,magenta,flipped triangle
118.0,6.0,1.0,1.0,1.0,1.0,304.6728700282983,3.0,1.0,phase_1,,,,,,,,,,,,,yellow,cross
59.0,1.0,0.5,0.0,1.0,1.0,389.2142240074463,3.0,1.0,phase_1,,,,,,,,,,,,,orange,I
376.0,8.0,4.0,1.0,1.0,1.0,360.0979539914988,3.0,1.0,phase_1,,,,,,,,,,,,,blue,triangle
0.0,7.0,0.0,1.0,3.0,3.0,390.257453022059,3.0,1.0,phase_1,,,,,,,,,,,,,gray,diamond
90.0,2.0,1.0,0.0,2.0,2.0,467.6853520213626,3.0,1.0,phase_1,,,,,,,,,,,,,white,circle
196.0,3.0,2.0,0.0,1.0,1.0,597.2515309695154,3.0,1.0,phase_1,,,,,,,,,,,,,cyan,hexagon
0.0,5.0,0.0,1.0,1.0,1.0,340.8012539730407,3.0,1.0,phase_1,,,,,,,,,,,,,green,square
205.0,7.0,2.0,1.0,1.0,1.0,343.7287309789099,3.0,1.0,phase_1,,,,,,,,,,,,,gray,diamond
217.0,3.0,2.0,0.0,4.0,4.0,430.7312869932502,3.0,1.0,phase_1,,,,,,,,,,,,,cyan,hexagon
407.0,8.0,4.0,1.0,4.0,4.0,417.8838889929466,3.0,1.0,phase_1,,,,,,,,,,,,,blue,triangle
0.0,3.0,0.0,0.0,3.0,3.0,414.7273420239799,3.0,1.0,phase_1,,,,,,,,,,,,,cyan,hexagon
74.0,5.0,0.5,1.0,3.0,3.0,385.4663799866102,3.0,1.0,phase_1,,,,,,,,,,,,,green,square
400.0,8.0,4.0,1.0,3.0,3.0,495.512341032736,3.0,1.0,phase_1,,,,,,,,,,,,,blue,triangle
48.0,5.0,0.5,1.0,3.0,3.0,348.0749789741821,3.0,1.0,phase_1,,,,,,,,,,,,,green,square
193.0,3.0,2.0,0.0,1.0,1.0,294.4444619934074,3.0,2.0,phase_1,,,,,,,,,,,,,cyan,hexagon
111.0,6.0,1.0,1.0,1.0,1.0,258.2401960389688,3.0,1.0,phase_1,,,,,,,,,,,,,yellow,cross
32.0,1.0,0.5,0.0,3.0,3.0,343.2620179955847,3.0,1.0,phase_1,,,,,,,,,,,,,orange,I
0.0,6.0,0.0,1.0,3.0,3.0,379.7441970091313,3.0,1.0,phase_1,,,,,,,,,,,,,yellow,cross
395.0,4.0,4.0,0.0,2.0,2.0,376.672834972851,3.0,1.0,phase_1,,,,,,,,,,,,,magenta,flipped triangle
94.0,2.0,1.0,0.0,3.0,3.0,373.8902839832008,3.0,1.0,phase_1,,,,,,,,,,,,,white,circle
184.0,7.0,2.0,1.0,1.0,1.0,279.8901480273343,3.0,1.0,phase_1,,,,,,,,,,,,,gray,diamond
377.0,4.0,4.0,0.0,2.0,2.0,327.9393740231171,3.0,1.0,phase_1,,,,,,,,,,,,,magenta,flipped triangle
0.0,8.0,0.0,1.0,2.0,2.0,313.1533800042234,3.0,1.0,phase_1,,,,,,,,,,,,,blue,triangle
212.0,7.0,2.0,1.0,4.0,4.0,462.3854979872703,3.0,1.0,phase_1,,,,,,,,,,,,,gray,diamond
400.0,8.0,4.0,1.0,4.0,4.0,325.9317799820564,3.0,1.0,phase_1,,,,,,,,,,,,,blue,triangle
0.0,5.0,0.0,1.0,1.0,1.0,287.5151219777763,3.0,1.0,phase_1,,,,,,,,,,,,,green,square
0.0,4.0,0.0,0.0,4.0,4.0,396.9236220000312,3.0,1.0,phase_1,,,,,,,,,,,,,magenta,flipped triangle
58.0,5.0,0.5,1.0,2.0,2.0,344.6679720073007,3.0,1.0,phase_1,,,,,,,,,,,,,green,square
81.0,2.0,1.0,0.0,2.0,2.0,303.8200559676625,3.0,1.0,phase_1,,,,,,,,,,,,,white,circle
184.0,3.0,2.0,0.0,2.0,2.0,402.8275719610974,3.0,1.0,phase_1,,,,,,,,,,,,,cyan,hexagon
0.0,8.0,0.0,1.0,1.0,1.0,473.0251359869726,3.0,1.0,phase_1,,,,,,,,,,,,,blue,triangle
0.0,8.0,0.0,1.0,4.0,4.0,421.2118029827252,3.0,1.0,phase_1,,,,,,,,,,,,,blue,triangle
0.0,2.0,0.0,0.0,4.0,4.0,360.924385022372,3.0,1.0,phase_1,,,,,,,,,,,,,white,circle
0.0,2.0,0.0,0.0,3.0,3.0,414.7213159594685,3.0,1.0,phase_1,,,,,,,,,,,,,white,circle
197.0,3.0,2.0,0.0,4.0,4.0,332.8182369587011,3.0,1.0,phase_1,,,,,,,,,,,,,cyan,hexagon
417.0,4.0,4.0,0.0,3.0,3.0,331.2827629852108,3.0,2.0,phase_1,,,,,,,,,,,,,magenta,flipped triangle
402.0,8.0,4.0,1.0,1.0,1.0,311.5675760200247,3.0,1.0,phase_1,,,,,,,,,,,,,blue,triangle
120.0,2.0,1.0,0.0,1.0,1.0,309.2116949846968,4.0,1.0,phase_1,,,,,,,,,,,,,white,circle
194.0,3.0,2.0,0.0,1.0,1.0,314.0355970244854,4.0,1.0,phase_1,,,,,,,,,,,,,cyan,hexagon
102.0,6.0,1.0,1.0,2.0,2.0,334.2830670299008,4.0,1.0,phase_1,,,,,,,,,,,,,yellow,cross
378.0,4.0,4.0,0.0,1.0,1.0,269.6950359968468,4.0,1.0,phase_1,,,,,,,,,,,,,magenta,flipped triangle
396.0,4.0,4.0,0.0,1.0,1.0,289.9891480337828,4.0,1.0,phase_1,,,,,,,,,,,,,magenta,flipped triangle
0.0,3.0,0.0,0.0,1.0,1.0,255.7914350181818,4.0,1.0,phase_1,,,,,,,,,,,,,cyan,hexagon
89.0,6.0,1.0,1.0,4.0,4.0,403.669232968241,4.0,1.0,phase_1,,,,,,,,,,,,,yellow,cross
201.0,3.0,2.0,0.0,4.0,4.0,310.5419920175336,4.0,1.0,phase_1,,,,,,,,,,,,,cyan,hexagon
0.0,7.0,0.0,1.0,4.0,4.0,340.8832760178484,4.0,1.0,phase_1,,,,,,,,,,,,,gray,diamond
177.0,7.0,2.0,1.0,4.0,4.0,304.5156460138969,4.0,1.0,phase_1,,,,,,,,,,,,,gray,diamond
0.0,2.0,0.0,0.0,3.0,3.0,373.8918990129605,4.0,1.0,phase_1,,,,,,,,,,,,,white,circle
383.0,8.0,4.0,1.0,1.0,1.0,344.3211150006391,4.0,1.0,phase_1,,,,,,,,,,,,,blue,triangle
117.0,6.0,1.0,1.0,3.0,3.0,333.9510899968445,4.0,1.0,phase_1,,,,,,,,,,,,,yellow,cross
117.0,2.0,1.0,0.0,2.0,2.0,354.7013069619424,4.0,1.0,phase_1,,,,,,,,,,,,,white,circle
100.0,6.0,1.0,1.0,1.0,1.0,369.4149079965427,4.0,1.0,phase_1,,,,,,,,,,,,,yellow,cross
94.0,6.0,1.0,1.0,1.0,1.0,340.079462970607,4.0,1.0,phase_1,,,,,,,,,,,,,yellow,cross
383.0,8.0,4.0,1.0,2.0,2.0,352.2657729918137,4.0,1.0,phase_1,,,,,,,,,,,,,blue,triangle
188.0,3.0,2.0,0.0,3.0,3.0,413.7222630088217,4.0,1.0,phase_1,,,,,,,,,,,,,cyan,hexagon
391.0,4.0,4.0,0.0,2.0,2.0,248.9516269997693,4.0,2.0,phase_1,,,,,,,,,,,,,magenta,flipped triangle
78.0,2.0,1.0,0.0,3.0,3.0,349.4834060547873,4.0,1.0,phase_1,,,,,,,,,,,,,white,circle
52.0,5.0,0.5,1.0,3.0,3.0,345.5450719920918,4.0,1.0,phase_1,,,,,,,,,,,,,green,square
0.0,8.0,0.0,1.0,1.0,1.0,367.9334950284101,4.0,1.0,phase_1,,,,,,,,,,,,,blue,triangle
114.0,6.0,1.0,1.0,4.0,4.0,460.8336669625714,4.0,1.0,phase_1,,,,,,,,,,,,,yellow,cross
105.0,6.0,1.0,1.0,4.0,4.0,343.2737240218557,4.0,1.0,phase_1,,,,,,,,,,,,,yellow,cross
75.0,1.0,0.5,0.0,2.0,2.0,363.0641900235787,4.0,1.0,phase_1,,,,,,,,,,,,,orange,I
384.0,8.0,4.0,1.0,4.0,4.0,442.4493319820612,4.0,1.0,phase_1,,,,,,,,,,,,,blue,triangle
124.0,6.0,1.0,1.0,2.0,2.0,356.4144750125706,4.0,1.0,phase_1,,,,,,,,,,,,,yellow,cross
112.0,6.0,1.0,1.0,2.0,2.0,354.9880780046806,4.0,1.0,phase_1,,,,,,,,,,,,,yellow,cross
50.0,1.0,0.5,0.0,2.0,2.0,413.1636659731157,4.0,1.0,phase_1,,,,,,,,,,,,,orange,I
46.0,1.0,0.5,0.0,1.0,1.0,316.3979109958745,4.0,1.0,phase_1,,,,,,,,,,,,,orange,I
79.0,2.0,1.0,0.0,4.0,4.0,352.7318959822878,4.0,1.0,phase_1,,,,,,,,,,,,,white,circle
62.0,5.0,0.5,1.0,4.0,4.0,299.2004349944182,4.0,1.0,phase_1,,,,,,,,,,,,,green,square
194.0,7.0,2.0,1.0,3.0,3.0,464.6343360072933,4.0,1.0,phase_1,,,,,,,,,,,,,gray,diamond
30.0,1.0,0.5,0.0,2.0,2.0,405.2313739666715,4.0,1.0,phase_1,,,,,,,,,,,,,orange,I
0.0,8.0,0.0,1.0,2.0,2.0,341.09292703215027,4.0,1.0,phase_1,,,,,,,,,,,,,blue,triangle
63.0,5.0,0.5,1.0,2.0,2.0,312.9264430026524,4.0,1.0,phase_1,,,,,,,,,,,,,green,square
408.0,4.0,4.0,0.0,4.0,4.0,402.6637530187145,4.0,1.0,phase_1,,,,,,,,,,,,,magenta,flipped triangle
216.0,7.0,2.0,1.0,3.0,3.0,391.7644830071367,4.0,1.0,phase_1,,,,,,,,,,,,,gray,diamond
0.0,1.0,0.0,0.0,1.0,1.0,407.4622230255045,4.0,1.0,phase_1,,,,,,,,,,,,,orange,I
90.0,6.0,1.0,1.0,2.0,2.0,402.4583019781858,4.0,1.0,phase_1,,,,,,,,,,,,,yellow,cross
81.0,6.0,1.0,1.0,4.0,4.0,407.2713219793513,4.0,1.0,phase_1,,,,,,,,,,,,,yellow,cross
418.0,8.0,4.0,1.0,3.0,3.0,460.0273369578644,4.0,1.0,phase_1,,,,,,,,,,,,,blue,triangle
194.0,7.0,2.0,1.0,2.0,2.0,361.0790529637597,4.0,1.0,phase_1,,,,,,,,,,,,,gray,diamond
50.0,5.0,0.5,1.0,3.0,3.0,356.4424869837239,4.0,1.0,phase_1,,,,,,,,,,,,,green,square
46.0,5.0,0.5,1.0,2.0,2.0,332.7895139809698,4.0,2.0,phase_1,,,,,,,,,,,,,green,square
120.0,6.0,1.0,1.0,3.0,3.0,364.2523810267448,4.0,1.0,phase_1,,,,,,,,,,,,,yellow,cross
0.0,4.0,0.0,0.0,2.0,2.0,385.2399829775095,4.0,1.0,phase_1,,,,,,,,,,,,,magenta,flipped triangle
0.0,8.0,0.0,1.0,2.0,2.0,386.5173890371807,4.0,1.0,phase_1,,,,,,,,,,,,,blue,triangle
62.0,1.0,0.5,0.0,2.0,2.0,352.3817610112019,4.0,1.0,phase_1,,,,,,,,,,,,,orange,I
0.0,2.0,0.0,0.0,4.0,4.0,453.1519599840976,4.0,1.0,phase_1,,,,,,,,,,,,,white,circle
27.0,5.0,0.5,1.0,2.0,2.0,353.7558920215815,4.0,1.0,phase_1,,,,,,,,,,,,,green,square
122.0,2.0,1.0,0.0,1.0,1.0,381.9169129710644,4.0,1.0,phase_1,,,,,,,,,,,,,white,circle
0.0,3.0,0.0,0.0,3.0,3.0,434.4745890120975,4.0,1.0,phase_1,,,,,,,,,,,,,cyan,hexagon
389.0,8.0,4.0,1.0,3.0,3.0,407.1493879891932,4.0,1.0,phase_1,,,,,,,,,,,,,blue,triangle
111.0,2.0,1.0,0.0,2.0,2.0,355.477372999303,4.0,1.0,phase_1,,,,,,,,,,,,,white,circle
383.0,8.0,4.0,1.0,2.0,2.0,339.5416910061613,4.0,1.0,phase_1,,,,,,,,,,,,,blue,triangle
393.0,8.0,4.0,1.0,1.0,1.0,311.068715993315,4.0,1.0,phase_1,,,,,,,,,,,,,blue,triangle
119.0,6.0,1.0,1.0,4.0,4.0,314.5140400156379,4.0,1.0,phase_1,,,,,,,,,,,,,yellow,cross
220.0,3.0,2.0,0.0,3.0,3.0,335.2122720098123,4.0,1.0,phase_1,,,,,,,,,,,,,cyan,hexagon
52.0,1.0,0.5,0.0,3.0,3.0,365.5011350056156,4.0,1.0,phase_1,,,,,,,,,,,,,orange,I
111.0,2.0,1.0,0.0,4.0,4.0,401.7574980389327,4.0,1.0,phase_1,,,,,,,,,,,,,white,circle
30.0,5.0,0.5,1.0,2.0,2.0,377.3668310022913,4.0,2.0,phase_1,,,,,,,,,,,,,green,square
79.0,2.0,1.0,0.0,1.0,1.0,360.7042329967953,4.0,1.0,phase_1,,,,,,,,,,,,,white,circle
66.0,1.0,0.5,0.0,1.0,1.0,324.4254309684038,4.0,1.0,phase_1,,,,,,,,,,,,,orange,I
176.0,3.0,2.0,0.0,4.0,4.0,352.3442939622327,4.0,1.0,phase_1,,,,,,,,,,,,,cyan,hexagon
109.0,2.0,1.0,0.0,1.0,1.0,332.7152549754828,4.0,1.0,phase_1,,,,,,,,,,,,,white,circle
188.0,3.0,2.0,0.0,4.0,4.0,337.3545570066198,4.0,1.0,phase_1,,,,,,,,,,,,,cyan,hexagon
197.0,7.0,2.0,1.0,1.0,1.0,369.1726590041071,4.0,1.0,phase_1,,,,,,,,,,,,,gray,diamond
387.0,8.0,4.0,1.0,1.0,1.0,323.9534689928405,4.0,1.0,phase_1,,,,,,,,,,,,,blue,triangle
0.0,8.0,0.0,1.0,1.0,1.0,321.5189260081388,4.0,1.0,phase_1,,,,,,,,,,,,,blue,triangle
223.0,3.0,2.0,0.0,2.0,2.0,434.9228219944052,4.0,1.0,phase_1,,,,,,,,,,,,,cyan,hexagon
378.0,8.0,4.0,1.0,1.0,1.0,488.4100740309804,4.0,1.0,phase_1,,,,,,,,,,,,,blue,triangle
391.0,8.0,4.0,1.0,4.0,4.0,390.8339240006171,4.0,1.0,phase_1,,,,,,,,,,,,,blue,triangle
0.0,1.0,0.0,0.0,2.0,2.0,378.9935319800861,4.0,1.0,phase_1,,,,,,,,,,,,,orange,I
409.0,8.0,4.0,1.0,3.0,3.0,440.4322659829631,4.0,1.0,phase_1,,,,,,,,,,,,,blue,triangle
74.0,5.0,0.5,1.0,4.0,4.0,430.9717760188505,4.0,1.0,phase_1,,,,,,,,,,,,,green,square
38.0,1.0,0.5,0.0,3.0,3.0,391.7500650277361,4.0,1.0,phase_1,,,,,,,,,,,,,orange,I
26.0,1.0,0.5,0.0,3.0,3.0,413.1568290176801,4.0,1.0,phase_1,,,,,,,,,,,,,orange,I
0.0,2.0,0.0,0.0,2.0,2.0,384.3504990218207,4.0,1.0,phase_1,,,,,,,,,,,,,white,circle
42.0,1.0,0.5,0.0,4.0,4.0,384.2148930416442,4.0,1.0,phase_1,,,,,,,,,,,,,orange,I
94.0,2.0,1.0,0.0,4.0,4.0,314.7408639779314,4.0,1.0,phase_1,,,,,,,,,,,,,white,circle
383.0,4.0,4.0,0.0,3.0,3.0,319.7027670103125,4.0,1.0,phase_1,,,,,,,,,,,,,magenta,flipped triangle
402.0,4.0,4.0,0.0,4.0,4.0,381.302775000222,4.0,1.0,phase_1,,,,,,,,,,,,,magenta,flipped triangle
407.0,4.0,4.0,0.0,1.0,1.0,538.3303060079925,4.0,1.0,phase_1,,,,,,,,,,,,,magenta,flipped triangle
61.0,5.0,0.5,1.0,2.0,2.0,325.4801720031537,4.0,1.0,phase_1,,,,,,,,,,,,,green,square
0.0,7.0,0.0,1.0,3.0,3.0,341.8638199800625,4.0,1.0,phase_1,,,,,,,,,,,,,gray,diamond
186.0,7.0,2.0,1.0,3.0,3.0,537.1804650058039,4.0,1.0,phase_1,,,,,,,,,,,,,gray,diamond
0.0,5.0,0.0,1.0,1.0,1.0,333.2379410276189,4.0,1.0,phase_1,,,,,,,,,,,,,green,square
59.0,5.0,0.5,1.0,1.0,1.0,331.8120230105705,4.0,1.0,phase_1,,,,,,,,,,,,,green,square
397.0,8.0,4.0,1.0,4.0,4.0,341.3614690070972,4.0,1.0,phase_1,,,,,,,,,,,,,blue,triangle
0.0,3.0,0.0,0.0,3.0,3.0,385.0988599588163,4.0,1.0,phase_1,,,,,,,,,,,,,cyan,hexagon
95.0,6.0,1.0,1.0,2.0,2.0,328.9383330265991,4.0,1.0,phase_1,,,,,,,,,,,,,yellow,cross
0.0,4.0,0.0,0.0,4.0,4.0,403.1862940173596,4.0,1.0,phase_1,,,,,,,,,,,,,magenta,flipped triangle
52.0,5.0,0.5,1.0,1.0,1.0,369.2133639706298,4.0,1.0,phase_1,,,,,,,,,,,,,green,square
0.0,6.0,0.0,1.0,1.0,1.0,581.740110006649,4.0,1.0,phase_1,,,,,,,,,,,,,yellow,cross
0.0,5.0,0.0,1.0,4.0,4.0,450.4599010106176,4.0,1.0,phase_1,,,,,,,,,,,,,green,square
61.0,1.0,0.5,0.0,4.0,4.0,380.9697779943235,4.0,1.0,phase_1,,,,,,,,,,,,,orange,I
212.0,7.0,2.0,1.0,4.0,4.0,426.6118539962917,4.0,1.0,phase_1,,,,,,,,,,,,,gray,diamond
188.0,7.0,2.0,1.0,3.0,3.0,391.0264199948869,4.0,1.0,phase_1,,,,,,,,,,,,,gray,diamond
120.0,6.0,1.0,1.0,3.0,3.0,379.3697190121747,4.0,1.0,phase_1,,,,,,,,,,,,,yellow,cross
0.0,3.0,2.0,0.0,6.0,6.0,402.8824499691836,1.0,1.0,phase_2,go,250.0,250.0,1.0,,,,,,,,,cyan,hexagon
0.0,3.0,2.0,0.0,5.0,5.0,337.6008929917589,1.0,1.0,phase_2,go,250.0,250.0,1.0,,,,,,,,,cyan,hexagon
0.0,3.0,2.0,0.0,6.0,6.0,344.4323129951954,1.0,1.0,phase_2,go,250.0,250.0,1.0,,,,,,,,,cyan,hexagon
0.0,4.0,4.0,0.0,5.0,5.0,327.0713500096462,1.0,1.0,phase_2,go,250.0,250.0,1.0,,,,,,,,,magenta,flipped triangle
0.0,6.0,1.0,1.0,6.0,6.0,306.0673029976897,1.0,1.0,phase_2,go,250.0,250.0,1.0,,,,,,,,,yellow,cross
0.0,8.0,4.0,1.0,5.0,0.0,0.0,1.0,1.0,phase_2,stop,250.0,250.0,4.0,,,,,,,,,blue,triangle
0.0,4.0,4.0,0.0,6.0,6.0,436.4255020045675,1.0,1.0,phase_2,go,300.0,250.0,1.0,,,,,,,,,magenta,flipped triangle
0.0,2.0,1.0,0.0,6.0,6.0,344.2355169681832,1.0,1.0,phase_2,go,300.0,250.0,1.0,,,,,,,,,white,circle
0.0,4.0,4.0,0.0,6.0,6.0,323.7402070080861,1.0,1.0,phase_2,go,300.0,250.0,1.0,,,,,,,,,magenta,flipped triangle
0.0,4.0,4.0,0.0,6.0,6.0,324.9705170164816,1.0,1.0,phase_2,go,300.0,250.0,1.0,,,,,,,,,magenta,flipped triangle
0.0,6.0,1.0,1.0,5.0,5.0,381.2624609563499,1.0,1.0,phase_2,stop,300.0,250.0,3.0,,,,,,,,,yellow,cross
0.0,5.0,0.5,1.0,6.0,6.0,386.461723013781,1.0,1.0,phase_2,go,250.0,250.0,1.0,,,,,,,,,green,square
0.0,2.0,1.0,0.0,6.0,6.0,428.4853480057791,1.0,1.0,phase_2,go,250.0,250.0,1.0,,,,,,,,,white,circle
0.0,6.0,1.0,1.0,5.0,0.0,0.0,1.0,1.0,phase_2,stop,250.0,250.0,4.0,,,,,,,,,yellow,cross
0.0,2.0,1.0,0.0,6.0,6.0,316.4474449586123,1.0,1.0,phase_2,go,300.0,250.0,1.0,,,,,,,,,white,circle
0.0,8.0,4.0,1.0,5.0,0.0,0.0,1.0,1.0,phase_2,stop,300.0,250.0,4.0,,,,,,,,,blue,triangle
0.0,1.0,0.5,0.0,5.0,5.0,839.3614799715579,1.0,1.0,phase_2,go,350.0,250.0,1.0,,,,,,,,,orange,I
0.0,8.0,4.0,1.0,6.0,0.0,0.0,1.0,1.0,phase_2,stop,350.0,250.0,4.0,,,,,,,,,blue,triangle
0.0,6.0,1.0,1.0,6.0,6.0,462.5951710040681,1.0,1.0,phase_2,stop,350.0,300.0,3.0,,,,,,,,,yellow,cross
0.0,4.0,4.0,0.0,5.0,5.0,536.1431000055745,1.0,1.0,phase_2,go,350.0,250.0,1.0,,,,,,,,,magenta,flipped triangle
0.0,2.0,1.0,0.0,6.0,6.0,568.1400920148008,1.0,1.0,phase_2,go,350.0,250.0,1.0,,,,,,,,,white,circle
0.0,5.0,0.5,1.0,5.0,5.0,663.8225149945356,1.0,1.0,phase_2,go,350.0,250.0,1.0,,,,,,,,,green,square
0.0,3.0,2.0,0.0,5.0,5.0,671.6134059824981,1.0,1.0,phase_2,go,350.0,250.0,1.0,,,,,,,,,cyan,hexagon
0.0,4.0,4.0,0.0,6.0,6.0,539.5617299946025,1.0,1.0,phase_2,go,350.0,250.0,1.0,,,,,,,,,magenta,flipped triangle
0.0,7.0,2.0,1.0,6.0,6.0,796.5342940296978,1.0,1.0,phase_2,go,350.0,250.0,1.0,,,,,,,,,gray,diamond
0.0,6.0,1.0,1.0,6.0,6.0,1126.3145199627616,1.0,1.0,phase_2,go,350.0,250.0,1.0,,,,,,,,,yellow,cross
0.0,7.0,2.0,1.0,6.0,0.0,0.0,1.0,1.0,phase_2,stop,350.0,250.0,4.0,,,,,,,,,gray,diamond
0.0,3.0,2.0,0.0,6.0,6.0,467.1355350292288,1.0,1.0,phase_2,go,350.0,300.0,1.0,,,,,,,,,cyan,hexagon
0.0,5.0,0.5,1.0,6.0,6.0,898.9549490506761,1.0,1.0,phase_2,go,350.0,300.0,1.0,,,,,,,,,green,square
0.0,2.0,1.0,0.0,6.0,6.0,608.9107670122758,1.0,1.0,phase_2,go,350.0,300.0,1.0,,,,,,,,,white,circle
0.0,4.0,4.0,0.0,5.0,5.0,578.2457850291394,1.0,1.0,phase_2,go,350.0,300.0,1.0,,,,,,,,,magenta,flipped triangle
0.0,5.0,0.5,1.0,5.0,5.0,1096.4797270135025,1.0,1.0,phase_2,go,350.0,300.0,1.0,,,,,,,,,green,square
0.0,3.0,2.0,0.0,6.0,6.0,1350.43546394445,1.0,1.0,phase_2,go,350.0,300.0,1.0,,,,,,,,,cyan,hexagon
0.0,7.0,2.0,1.0,5.0,0.0,0.0,1.0,1.0,phase_2,stop,350.0,300.0,4.0,,,,,,,,,gray,diamond
0.0,4.0,4.0,0.0,5.0,5.0,725.4058819962665,1.0,1.0,phase_2,go,400.0,300.0,1.0,,,,,,,,,magenta,flipped triangle
0.0,3.0,2.0,0.0,6.0,6.0,928.7772679817864,1.0,1.0,phase_2,go,400.0,300.0,1.0,,,,,,,,,cyan,hexagon
0.0,8.0,4.0,1.0,6.0,6.0,976.784177008085,2.0,1.0,phase_2,go,400.0,300.0,1.0,,,,,,,,,blue,triangle
0.0,4.0,4.0,0.0,6.0,6.0,761.032840993721,2.0,1.0,phase_2,go,400.0,300.0,1.0,,,,,,,,,magenta,flipped triangle
0.0,8.0,4.0,1.0,5.0,5.0,841.8684130301699,2.0,1.0,phase_2,go,400.0,300.0,1.0,,,,,,,,,blue,triangle
0.0,3.0,2.0,0.0,6.0,6.0,744.4198679877445,2.0,1.0,phase_2,go,400.0,300.0,1.0,,,,,,,,,cyan,hexagon
0.0,7.0,2.0,1.0,6.0,0.0,0.0,2.0,1.0,phase_2,stop,400.0,300.0,4.0,,,,,,,,,gray,diamond
0.0,4.0,4.0,0.0,6.0,6.0,830.8236479642801,2.0,1.0,phase_2,go,400.0,350.0,1.0,,,,,,,,,magenta,flipped triangle
0.0,1.0,0.5,0.0,6.0,6.0,927.570826956071,2.0,1.0,phase_2,go,400.0,350.0,1.0,,,,,,,,,orange,I
0.0,5.0,0.5,1.0,5.0,0.0,0.0,2.0,1.0,phase_2,stop,400.0,350.0,4.0,,,,,,,,,green,square
0.0,8.0,4.0,1.0,5.0,5.0,485.9372900100425,2.0,1.0,phase_2,stop,450.0,350.0,3.0,,,,,,,,,blue,triangle
0.0,7.0,2.0,1.0,5.0,0.0,0.0,2.0,1.0,phase_2,stop,400.0,350.0,4.0,,,,,,,,,gray,diamond
0.0,5.0,0.5,1.0,5.0,5.0,756.9649289944209,2.0,1.0,phase_2,go,450.0,350.0,1.0,,,,,,,,,green,square
0.0,8.0,4.0,1.0,6.0,0.0,0.0,2.0,1.0,phase_2,stop,450.0,350.0,4.0,,,,,,,,,blue,triangle
0.0,6.0,1.0,1.0,5.0,5.0,748.4158470178954,2.0,1.0,phase_2,go,450.0,400.0,1.0,,,,,,,,,yellow,cross
0.0,2.0,1.0,0.0,6.0,6.0,897.5326049840078,2.0,1.0,phase_2,go,450.0,400.0,1.0,,,,,,,,,white,circle
0.0,8.0,4.0,1.0,5.0,0.0,0.0,2.0,1.0,phase_2,stop,450.0,400.0,4.0,,,,,,,,,blue,triangle
0.0,5.0,0.5,1.0,5.0,0.0,0.0,2.0,1.0,phase_2,stop,500.0,400.0,4.0,,,,,,,,,green,square
0.0,5.0,0.5,1.0,6.0,0.0,0.0,2.0,1.0,phase_2,stop,550.0,400.0,4.0,,,,,,,,,green,square
0.0,1.0,0.5,0.0,6.0,6.0,808.5414150264114,2.0,1.0,phase_2,go,550.0,450.0,1.0,,,,,,,,,orange,I
0.0,2.0,1.0,0.0,5.0,5.0,1048.8589870510625,2.0,1.0,phase_2,go,550.0,450.0,1.0,,,,,,,,,white,circle
0.0,1.0,0.5,0.0,5.0,5.0,952.3551010061057,2.0,1.0,phase_2,go,550.0,450.0,1.0,,,,,,,,,orange,I
0.0,3.0,2.0,0.0,6.0,6.0,976.6026100260206,2.0,1.0,phase_2,go,550.0,450.0,1.0,,,,,,,,,cyan,hexagon
0.0,2.0,1.0,0.0,6.0,6.0,1093.7753670150414,2.0,1.0,phase_2,go,550.0,450.0,1.0,,,,,,,,,white,circle
0.0,7.0,2.0,1.0,6.0,0.0,0.0,2.0,1.0,phase_2,stop,550.0,450.0,4.0,,,,,,,,,gray,diamond
0.0,4.0,4.0,0.0,5.0,5.0,1133.0339289852418,2.0,1.0,phase_2,go,550.0,500.0,1.0,,,,,,,,,magenta,flipped triangle
0.0,6.0,1.0,1.0,6.0,0.0,0.0,2.0,1.0,phase_2,stop,550.0,500.0,4.0,,,,,,,,,yellow,cross
0.0,8.0,4.0,1.0,5.0,0.0,0.0,2.0,1.0,phase_2,stop,550.0,550.0,4.0,,,,,,,,,blue,triangle
0.0,3.0,2.0,0.0,5.0,5.0,980.6375980260782,2.0,1.0,phase_2,go,600.0,550.0,1.0,,,,,,,,,cyan,hexagon
0.0,4.0,4.0,0.0,5.0,5.0,1352.934666967485,2.0,1.0,phase_2,go,600.0,550.0,1.0,,,,,,,,,magenta,flipped triangle
0.0,2.0,1.0,0.0,5.0,5.0,1018.993430014234,2.0,1.0,phase_2,go,600.0,550.0,1.0,,,,,,,,,white,circle
0.0,1.0,0.5,0.0,5.0,5.0,1057.8168759820985,2.0,1.0,phase_2,go,600.0,550.0,1.0,,,,,,,,,orange,I
0.0,5.0,0.5,1.0,6.0,0.0,0.0,2.0,1.0,phase_2,stop,600.0,550.0,4.0,,,,,,,,,green,square
0.0,2.0,1.0,0.0,5.0,5.0,1312.3985530110076,2.0,1.0,phase_2,go,600.0,600.0,1.0,,,,,,,,,white,circle
0.0,1.0,0.5,0.0,5.0,5.0,1104.0949010057377,2.0,1.0,phase_2,go,600.0,600.0,1.0,,,,,,,,,orange,I
0.0,5.0,0.5,1.0,6.0,0.0,0.0,2.0,1.0,phase_2,stop,600.0,600.0,4.0,,,,,,,,,green,square
0.0,7.0,2.0,1.0,5.0,5.0,981.0121760237962,2.0,1.0,phase_2,go,600.0,650.0,1.0,,,,,,,,,gray,diamond
0.0,4.0,4.0,0.0,6.0,6.0,1110.7399690081363,2.0,1.0,phase_2,go,600.0,650.0,1.0,,,,,,,,,magenta,flipped triangle
0.0,2.0,1.0,0.0,6.0,6.0,554.6090580173768,3.0,1.0,phase_2,go,600.0,650.0,1.0,,,,,,,,,white,circle
0.0,3.0,2.0,0.0,5.0,5.0,292.1622259891592,3.0,1.0,phase_2,go,600.0,650.0,1.0,,,,,,,,,cyan,hexagon
0.0,8.0,4.0,1.0,6.0,6.0,683.583837992046,3.0,1.0,phase_2,stop,600.0,650.0,3.0,,,,,,,,,blue,triangle
0.0,6.0,1.0,1.0,5.0,0.0,0.0,3.0,1.0,phase_2,stop,600.0,600.0,4.0,,,,,,,,,yellow,cross
0.0,2.0,1.0,0.0,5.0,5.0,634.3388119712472,3.0,1.0,phase_2,go,650.0,600.0,1.0,,,,,,,,,white,circle
0.0,5.0,0.5,1.0,5.0,5.0,331.0876109753735,3.0,1.0,phase_2,stop,650.0,600.0,3.0,,,,,,,,,green,square
0.0,6.0,1.0,1.0,5.0,5.0,755.245970969554,3.0,1.0,phase_2,stop,600.0,600.0,3.0,,,,,,,,,yellow,cross
0.0,7.0,2.0,1.0,5.0,0.0,0.0,3.0,1.0,phase_2,stop,550.0,600.0,4.0,,,,,,,,,gray,diamond
0.0,2.0,1.0,0.0,5.0,5.0,1008.7581349653192,3.0,1.0,phase_2,go,600.0,600.0,1.0,,,,,,,,,white,circle
0.0,2.0,1.0,0.0,6.0,6.0,817.094444995746,3.0,1.0,phase_2,go,600.0,600.0,1.0,,,,,,,,,white,circle
0.0,8.0,4.0,1.0,6.0,6.0,679.7057650401257,3.0,1.0,phase_2,stop,600.0,600.0,3.0,,,,,,,,,blue,triangle
0.0,6.0,1.0,1.0,6.0,0.0,0.0,3.0,1.0,phase_2,stop,600.0,550.0,4.0,,,,,,,,,yellow,cross
0.0,4.0,4.0,0.0,5.0,5.0,859.69789797673,3.0,1.0,phase_2,go,600.0,600.0,1.0,,,,,,,,,magenta,flipped triangle
0.0,8.0,4.0,1.0,6.0,0.0,0.0,3.0,1.0,phase_2,stop,600.0,600.0,4.0,,,,,,,,,blue,triangle
0.0,6.0,1.0,1.0,6.0,0.0,0.0,3.0,1.0,phase_2,stop,600.0,650.0,4.0,,,,,,,,,yellow,cross
0.0,3.0,2.0,0.0,6.0,6.0,837.4985849950463,3.0,1.0,phase_2,go,600.0,700.0,1.0,,,,,,,,,cyan,hexagon
0.0,3.0,2.0,0.0,5.0,5.0,972.962922998704,3.0,1.0,phase_2,go,600.0,700.0,1.0,,,,,,,,,cyan,hexagon
0.0,8.0,4.0,1.0,5.0,5.0,643.0201419861987,3.0,1.0,phase_2,stop,600.0,700.0,3.0,,,,,,,,,blue,triangle
0.0,8.0,4.0,1.0,6.0,0.0,0.0,3.0,1.0,phase_2,stop,550.0,700.0,4.0,,,,,,,,,blue,triangle
0.0,3.0,2.0,0.0,5.0,5.0,859.0473550138995,3.0,1.0,phase_2,go,550.0,750.0,1.0,,,,,,,,,cyan,hexagon
0.0,6.0,1.0,1.0,6.0,6.0,930.6519309757276,3.0,1.0,phase_2,go,550.0,750.0,1.0,,,,,,,,,yellow,cross
0.0,2.0,1.0,0.0,5.0,5.0,415.9359460463747,3.0,1.0,phase_2,go,550.0,750.0,1.0,,,,,,,,,white,circle
0.0,8.0,4.0,1.0,6.0,6.0,438.5448559769429,3.0,1.0,phase_2,go,550.0,750.0,1.0,,,,,,,,,blue,triangle
0.0,4.0,4.0,0.0,5.0,5.0,430.7903639855794,3.0,1.0,phase_2,go,550.0,750.0,1.0,,,,,,,,,magenta,flipped triangle
0.0,8.0,4.0,1.0,6.0,6.0,400.098108977545,3.0,1.0,phase_2,stop,550.0,750.0,3.0,,,,,,,,,blue,triangle
0.0,3.0,2.0,0.0,5.0,5.0,296.9701129477471,3.0,1.0,phase_2,go,550.0,700.0,1.0,,,,,,,,,cyan,hexagon
0.0,3.0,2.0,0.0,5.0,5.0,652.0007900544442,3.0,1.0,phase_2,go,550.0,700.0,1.0,,,,,,,,,cyan,hexagon
0.0,1.0,0.5,0.0,5.0,5.0,852.4561779922806,3.0,1.0,phase_2,go,550.0,700.0,1.0,,,,,,,,,orange,I
0.0,6.0,1.0,1.0,5.0,0.0,0.0,3.0,1.0,phase_2,stop,550.0,700.0,4.0,,,,,,,,,yellow,cross
0.0,8.0,4.0,1.0,5.0,5.0,702.5520469760522,3.0,1.0,phase_2,stop,600.0,700.0,3.0,,,,,,,,,blue,triangle
0.0,1.0,0.5,0.0,5.0,5.0,803.9804570144042,3.0,1.0,phase_2,go,550.0,700.0,1.0,,,,,,,,,orange,I
0.0,7.0,2.0,1.0,5.0,0.0,0.0,3.0,1.0,phase_2,stop,550.0,700.0,4.0,,,,,,,,,gray,diamond
0.0,3.0,2.0,0.0,6.0,6.0,776.5924319974147,3.0,1.0,phase_2,go,600.0,700.0,1.0,,,,,,,,,cyan,hexagon
0.0,6.0,1.0,1.0,5.0,5.0,412.1806389885023,3.0,1.0,phase_2,go,600.0,700.0,1.0,,,,,,,,,yellow,cross
0.0,7.0,2.0,1.0,5.0,5.0,945.1752090244554,3.0,1.0,phase_2,go,600.0,700.0,1.0,,,,,,,,,gray,diamond
0.0,3.0,2.0,0.0,5.0,5.0,1154.7020729631186,3.0,1.0,phase_2,go,600.0,700.0,1.0,,,,,,,,,cyan,hexagon
0.0,8.0,4.0,1.0,6.0,6.0,397.2948800073936,4.0,1.0,phase_2,stop,600.0,700.0,3.0,,,,,,,,,blue,triangle
0.0,5.0,0.5,1.0,5.0,5.0,284.278163977433,4.0,1.0,phase_2,stop,600.0,650.0,3.0,,,,,,,,,green,square
0.0,2.0,1.0,0.0,5.0,5.0,350.9372459957376,4.0,1.0,phase_2,go,550.0,650.0,1.0,,,,,,,,,white,circle
0.0,2.0,1.0,0.0,5.0,5.0,302.0286129903979,4.0,1.0,phase_2,go,550.0,650.0,1.0,,,,,,,,,white,circle
0.0,4.0,4.0,0.0,6.0,6.0,277.3196999914944,4.0,1.0,phase_2,go,550.0,650.0,1.0,,,,,,,,,magenta,flipped triangle
0.0,7.0,2.0,1.0,6.0,6.0,333.1932830042206,4.0,1.0,phase_2,go,550.0,650.0,1.0,,,,,,,,,gray,diamond
0.0,4.0,4.0,0.0,6.0,6.0,317.81542400131,4.0,1.0,phase_2,go,550.0,650.0,1.0,,,,,,,,,magenta,flipped triangle
0.0,5.0,0.5,1.0,6.0,6.0,297.9861570056528,4.0,1.0,phase_2,stop,550.0,650.0,3.0,,,,,,,,,green,square
0.0,2.0,1.0,0.0,5.0,5.0,276.6182740451768,4.0,1.0,phase_2,go,550.0,600.0,1.0,,,,,,,,,white,circle
0.0,1.0,0.5,0.0,6.0,6.0,304.3013740098104,4.0,1.0,phase_2,go,550.0,600.0,1.0,,,,,,,,,orange,I
0.0,7.0,2.0,1.0,6.0,6.0,331.3739820150658,4.0,1.0,phase_2,stop,550.0,600.0,3.0,,,,,,,,,gray,diamond
0.0,3.0,2.0,0.0,5.0,5.0,378.1215460039675,4.0,1.0,phase_2,go,550.0,550.0,1.0,,,,,,,,,cyan,hexagon
0.0,7.0,2.0,1.0,6.0,6.0,438.8411029940471,4.0,1.0,phase_2,stop,550.0,550.0,3.0,,,,,,,,,gray,diamond
0.0,6.0,1.0,1.0,6.0,6.0,437.9653130308725,4.0,1.0,phase_2,stop,550.0,500.0,3.0,,,,,,,,,yellow,cross
0.0,1.0,0.5,0.0,6.0,6.0,711.9832370080985,4.0,1.0,phase_2,go,550.0,450.0,1.0,,,,,,,,,orange,I
0.0,4.0,4.0,0.0,5.0,5.0,637.173332972452,4.0,1.0,phase_2,go,550.0,450.0,1.0,,,,,,,,,magenta,flipped triangle
0.0,7.0,2.0,1.0,5.0,5.0,604.5107750105672,4.0,1.0,phase_2,stop,550.0,450.0,3.0,,,,,,,,,gray,diamond
0.0,5.0,0.5,1.0,6.0,0.0,0.0,4.0,1.0,phase_2,stop,500.0,450.0,4.0,,,,,,,,,green,square
0.0,2.0,1.0,0.0,6.0,6.0,533.6777869961224,4.0,1.0,phase_2,go,500.0,500.0,1.0,,,,,,,,,white,circle
0.0,2.0,1.0,0.0,6.0,6.0,787.2647210024297,4.0,1.0,phase_2,go,500.0,500.0,1.0,,,,,,,,,white,circle
0.0,5.0,0.5,1.0,6.0,6.0,681.6555249970406,4.0,1.0,phase_2,go,500.0,500.0,1.0,,,,,,,,,green,square
0.0,3.0,2.0,0.0,6.0,6.0,652.7870300342329,4.0,1.0,phase_2,go,500.0,500.0,1.0,,,,,,,,,cyan,hexagon
0.0,2.0,1.0,0.0,6.0,6.0,689.408176986035,4.0,1.0,phase_2,go,500.0,500.0,1.0,,,,,,,,,white,circle
0.0,4.0,4.0,0.0,6.0,6.0,432.2204519994557,4.0,1.0,phase_2,go,500.0,500.0,1.0,,,,,,,,,magenta,flipped triangle
0.0,4.0,4.0,0.0,5.0,5.0,512.2563010081649,4.0,1.0,phase_2,go,500.0,500.0,1.0,,,,,,,,,magenta,flipped triangle
0.0,6.0,1.0,1.0,6.0,6.0,569.2243390367366,4.0,1.0,phase_2,stop,500.0,500.0,3.0,,,,,,,,,yellow,cross
0.0,1.0,0.5,0.0,6.0,6.0,334.3237019726075,4.0,1.0,phase_2,go,500.0,450.0,1.0,,,,,,,,,orange,I
0.0,1.0,0.5,0.0,6.0,6.0,438.1754510104656,4.0,1.0,phase_2,go,500.0,450.0,1.0,,,,,,,,,orange,I
0.0,2.0,1.0,0.0,6.0,6.0,325.3957480192184,4.0,1.0,phase_2,go,500.0,450.0,1.0,,,,,,,,,white,circle
0.0,1.0,0.5,0.0,6.0,6.0,383.6615160107612,4.0,1.0,phase_2,go,500.0,450.0,1.0,,,,,,,,,orange,I
0.0,2.0,1.0,0.0,6.0,6.0,302.4049699888564,4.0,1.0,phase_2,go,500.0,450.0,1.0,,,,,,,,,white,circle
0.0,6.0,1.0,1.0,6.0,6.0,293.0441100033931,4.0,1.0,phase_2,go,500.0,450.0,1.0,,,,,,,,,yellow,cross
0.0,1.0,0.5,0.0,6.0,6.0,366.857108019758,4.0,1.0,phase_2,go,500.0,450.0,1.0,,,,,,,,,orange,I
0.0,7.0,2.0,1.0,5.0,5.0,331.731772981584,4.0,1.0,phase_2,stop,500.0,450.0,3.0,,,,,,,,,gray,diamond
0.0,5.0,0.5,1.0,6.0,6.0,436.7350719985552,4.0,1.0,phase_2,stop,450.0,450.0,3.0,,,,,,,,,green,square
0.0,7.0,2.0,1.0,6.0,6.0,531.1721349717118,4.0,1.0,phase_2,stop,450.0,400.0,3.0,,,,,,,,,gray,diamond
0.0,4.0,4.0,0.0,6.0,6.0,310.3751980233937,5.0,1.0,phase_2,go,450.0,350.0,1.0,,,,,,,,,magenta,flipped triangle
0.0,8.0,4.0,1.0,5.0,5.0,308.960079040844,5.0,1.0,phase_2,stop,450.0,350.0,3.0,,,,,,,,,blue,triangle
0.0,6.0,1.0,1.0,6.0,6.0,254.9300050013698,5.0,1.0,phase_2,go,400.0,350.0,1.0,,,,,,,,,yellow,cross
0.0,8.0,4.0,1.0,6.0,0.0,0.0,5.0,1.0,phase_2,stop,400.0,350.0,4.0,,,,,,,,,blue,triangle
0.0,8.0,4.0,1.0,5.0,0.0,0.0,5.0,1.0,phase_2,stop,400.0,400.0,4.0,,,,,,,,,blue,triangle
0.0,6.0,1.0,1.0,6.0,6.0,634.7149889916182,5.0,1.0,phase_2,stop,450.0,400.0,3.0,,,,,,,,,yellow,cross
0.0,5.0,0.5,1.0,5.0,5.0,812.1370010194369,5.0,1.0,phase_2,go,450.0,350.0,1.0,,,,,,,,,green,square
0.0,7.0,2.0,1.0,6.0,6.0,378.4714950015768,5.0,1.0,phase_2,go,450.0,350.0,1.0,,,,,,,,,gray,diamond
0.0,3.0,2.0,0.0,6.0,6.0,322.2732450230978,5.0,1.0,phase_2,go,450.0,350.0,1.0,,,,,,,,,cyan,hexagon
0.0,5.0,0.5,1.0,5.0,5.0,353.340306028258,5.0,1.0,phase_2,stop,450.0,350.0,3.0,,,,,,,,,green,square
0.0,5.0,0.5,1.0,5.0,5.0,386.4819700247608,5.0,1.0,phase_2,stop,400.0,350.0,3.0,,,,,,,,,green,square
0.0,2.0,1.0,0.0,5.0,5.0,442.1459220466204,5.0,1.0,phase_2,go,350.0,350.0,1.0,,,,,,,,,white,circle
0.0,3.0,2.0,0.0,5.0,5.0,687.4592559761368,5.0,1.0,phase_2,go,350.0,350.0,1.0,,,,,,,,,cyan,hexagon
0.0,7.0,2.0,1.0,5.0,5.0,312.1667369850911,5.0,1.0,phase_2,stop,350.0,350.0,3.0,,,,,,,,,gray,diamond
0.0,1.0,0.5,0.0,6.0,6.0,536.7196740116924,5.0,1.0,phase_2,go,300.0,350.0,1.0,,,,,,,,,orange,I
0.0,4.0,4.0,0.0,5.0,5.0,288.3400360005907,5.0,1.0,phase_2,go,300.0,350.0,1.0,,,,,,,,,magenta,flipped triangle
0.0,5.0,0.5,1.0,6.0,6.0,477.7816740097478,5.0,1.0,phase_2,stop,300.0,350.0,3.0,,,,,,,,,green,square
0.0,2.0,1.0,0.0,5.0,5.0,334.4262390164658,5.0,1.0,phase_2,go,300.0,300.0,1.0,,,,,,,,,white,circle
0.0,1.0,0.5,0.0,5.0,5.0,435.7619810034521,5.0,1.0,phase_2,go,300.0,300.0,1.0,,,,,,,,,orange,I
0.0,4.0,4.0,0.0,5.0,5.0,357.3171530151739,5.0,1.0,phase_2,go,300.0,300.0,1.0,,,,,,,,,magenta,flipped triangle
0.0,4.0,4.0,0.0,5.0,5.0,492.552082054317,5.0,1.0,phase_2,go,300.0,300.0,1.0,,,,,,,,,magenta,flipped triangle
0.0,1.0,0.5,0.0,6.0,6.0,362.0400940417312,5.0,1.0,phase_2,go,300.0,300.0,1.0,,,,,,,,,orange,I
0.0,8.0,4.0,1.0,6.0,6.0,331.4836770296097,5.0,1.0,phase_2,go,300.0,300.0,1.0,,,,,,,,,blue,triangle
0.0,3.0,2.0,0.0,5.0,5.0,261.1208679736592,5.0,1.0,phase_2,go,300.0,300.0,1.0,,,,,,,,,cyan,hexagon
0.0,4.0,4.0,0.0,5.0,5.0,329.2965319706127,5.0,1.0,phase_2,go,300.0,300.0,1.0,,,,,,,,,magenta,flipped triangle
0.0,7.0,2.0,1.0,6.0,6.0,347.663848020602,5.0,1.0,phase_2,stop,300.0,300.0,3.0,,,,,,,,,gray,diamond
0.0,3.0,2.0,0.0,6.0,6.0,330.5118809803389,5.0,1.0,phase_2,go,300.0,250.0,1.0,,,,,,,,,cyan,hexagon
0.0,5.0,0.5,1.0,6.0,6.0,303.4656459931284,5.0,1.0,phase_2,stop,300.0,250.0,3.0,,,,,,,,,green,square
0.0,5.0,0.5,1.0,6.0,0.0,0.0,5.0,1.0,phase_2,stop,300.0,200.0,4.0,,,,,,,,,green,square
0.0,1.0,0.5,0.0,6.0,6.0,614.5127339987084,5.0,1.0,phase_2,go,300.0,250.0,1.0,,,,,,,,,orange,I
0.0,7.0,2.0,1.0,5.0,5.0,549.7520979843102,5.0,1.0,phase_2,go,300.0,250.0,1.0,,,,,,,,,gray,diamond
0.0,6.0,1.0,1.0,5.0,5.0,493.6040589818731,5.0,1.0,phase_2,go,300.0,250.0,1.0,,,,,,,,,yellow,cross
0.0,8.0,4.0,1.0,5.0,5.0,331.7063400172628,5.0,1.0,phase_2,stop,300.0,250.0,3.0,,,,,,,,,blue,triangle
0.0,7.0,2.0,1.0,6.0,6.0,443.5310959815979,5.0,1.0,phase_2,stop,250.0,250.0,3.0,,,,,,,,,gray,diamond
0.0,1.0,0.5,0.0,5.0,5.0,517.8282620036043,5.0,1.0,phase_2,go,250.0,200.0,1.0,,,,,,,,,orange,I
0.0,4.0,4.0,0.0,6.0,6.0,338.2888960186392,5.0,1.0,phase_2,go,250.0,200.0,1.0,,,,,,,,,magenta,flipped triangle
0.0,7.0,2.0,1.0,5.0,5.0,392.9838469484821,6.0,1.0,phase_2,stop,250.0,200.0,3.0,,,,,,,,,gray,diamond
0.0,8.0,4.0,1.0,6.0,6.0,318.668014020659,6.0,1.0,phase_2,stop,200.0,200.0,3.0,,,,,,,,,blue,triangle
0.0,2.0,1.0,0.0,6.0,6.0,580.4626060416922,6.0,1.0,phase_2,go,200.0,150.0,1.0,,,,,,,,,white,circle
0.0,5.0,0.5,1.0,6.0,0.0,0.0,6.0,1.0,phase_2,stop,200.0,150.0,4.0,,,,,,,,,green,square
0.0,1.0,0.5,0.0,6.0,6.0,558.7402180535719,6.0,1.0,phase_2,go,200.0,200.0,1.0,,,,,,,,,orange,I
0.0,1.0,0.5,0.0,5.0,5.0,292.9860660224221,6.0,1.0,phase_2,go,200.0,200.0,1.0,,,,,,,,,orange,I
0.0,6.0,1.0,1.0,6.0,6.0,350.955996022094,6.0,1.0,phase_2,stop,200.0,200.0,3.0,,,,,,,,,yellow,cross
0.0,7.0,2.0,1.0,6.0,0.0,0.0,6.0,1.0,phase_2,stop,200.0,150.0,4.0,,,,,,,,,gray,diamond
0.0,7.0,2.0,1.0,5.0,0.0,0.0,6.0,1.0,phase_2,stop,200.0,200.0,4.0,,,,,,,,,gray,diamond
0.0,1.0,0.5,0.0,5.0,5.0,521.3845960097387,6.0,1.0,phase_2,go,250.0,200.0,1.0,,,,,,,,,orange,I
0.0,7.0,2.0,1.0,6.0,0.0,0.0,6.0,1.0,phase_2,stop,250.0,200.0,4.0,,,,,,,,,gray,diamond
0.0,1.0,0.5,0.0,5.0,5.0,587.251100980211,6.0,1.0,phase_2,go,250.0,250.0,1.0,,,,,,,,,orange,I
0.0,4.0,4.0,0.0,5.0,5.0,658.7306089932099,6.0,1.0,phase_2,go,250.0,250.0,1.0,,,,,,,,,magenta,flipped triangle
0.0,8.0,4.0,1.0,6.0,6.0,535.6087299878709,6.0,1.0,phase_2,go,250.0,250.0,1.0,,,,,,,,,blue,triangle
0.0,1.0,0.5,0.0,5.0,5.0,441.7847659788094,6.0,1.0,phase_2,go,250.0,250.0,1.0,,,,,,,,,orange,I
0.0,7.0,2.0,1.0,6.0,6.0,389.9593140231445,6.0,1.0,phase_2,stop,250.0,250.0,3.0,,,,,,,,,gray,diamond
0.0,5.0,0.5,1.0,5.0,0.0,0.0,6.0,1.0,phase_2,stop,250.0,200.0,4.0,,,,,,,,,green,square
0.0,4.0,4.0,0.0,5.0,5.0,629.0644219843671,6.0,1.0,phase_2,go,300.0,200.0,1.0,,,,,,,,,magenta,flipped triangle
0.0,7.0,2.0,1.0,5.0,0.0,0.0,6.0,1.0,phase_2,stop,300.0,200.0,4.0,,,,,,,,,gray,diamond
0.0,5.0,0.5,1.0,6.0,0.0,0.0,6.0,1.0,phase_2,stop,350.0,200.0,4.0,,,,,,,,,green,square
0.0,1.0,0.5,0.0,6.0,6.0,530.9230249840766,6.0,1.0,phase_2,go,350.0,250.0,1.0,,,,,,,,,orange,I
0.0,6.0,1.0,1.0,5.0,0.0,0.0,6.0,1.0,phase_2,stop,350.0,250.0,4.0,,,,,,,,,yellow,cross
0.0,3.0,2.0,0.0,6.0,6.0,652.7003569644876,6.0,1.0,phase_2,go,400.0,250.0,1.0,,,,,,,,,cyan,hexagon
0.0,4.0,4.0,0.0,5.0,5.0,530.0897790002637,6.0,1.0,phase_2,go,400.0,250.0,1.0,,,,,,,,,magenta,flipped triangle
0.0,5.0,0.5,1.0,5.0,5.0,491.2257789983414,6.0,1.0,phase_2,stop,400.0,250.0,3.0,,,,,,,,,green,square
0.0,5.0,0.5,1.0,5.0,5.0,425.3207090077922,6.0,1.0,phase_2,stop,350.0,250.0,3.0,,,,,,,,,green,square
0.0,4.0,4.0,0.0,6.0,6.0,416.5051720337942,6.0,1.0,phase_2,go,300.0,250.0,1.0,,,,,,,,,magenta,flipped triangle
0.0,6.0,1.0,1.0,5.0,5.0,370.6687670201063,6.0,1.0,phase_2,stop,300.0,250.0,3.0,,,,,,,,,yellow,cross
0.0,6.0,1.0,1.0,5.0,0.0,0.0,6.0,1.0,phase_2,stop,250.0,250.0,4.0,,,,,,,,,yellow,cross
0.0,7.0,2.0,1.0,5.0,5.0,706.0312189860269,6.0,1.0,phase_2,go,300.0,250.0,1.0,,,,,,,,,gray,diamond
0.0,5.0,0.5,1.0,5.0,0.0,0.0,6.0,1.0,phase_2,stop,300.0,250.0,4.0,,,,,,,,,green,square
0.0,2.0,1.0,0.0,5.0,5.0,588.8926889747381,6.0,1.0,phase_2,go,350.0,250.0,1.0,,,,,,,,,white,circle
0.0,2.0,1.0,0.0,5.0,5.0,326.3009979855269,6.0,1.0,phase_2,go,350.0,250.0,1.0,,,,,,,,,white,circle
0.0,7.0,2.0,1.0,6.0,6.0,254.1469429852441,6.0,1.0,phase_2,go,350.0,250.0,1.0,,,,,,,,,gray,diamond
0.0,8.0,4.0,1.0,6.0,6.0,358.4078069543466,6.0,1.0,phase_2,go,350.0,250.0,1.0,,,,,,,,,blue,triangle
0.0,6.0,1.0,1.0,5.0,5.0,522.8195429663174,6.0,1.0,phase_2,stop,350.0,250.0,3.0,,,,,,,,,yellow,cross
0.0,3.0,2.0,0.0,6.0,6.0,407.1613120031543,7.0,1.0,phase_2,go,300.0,250.0,1.0,,,,,,,,,cyan,hexagon
0.0,2.0,1.0,0.0,6.0,6.0,326.0025480412878,7.0,1.0,phase_2,go,300.0,250.0,1.0,,,,,,,,,white,circle
0.0,8.0,4.0,1.0,6.0,6.0,262.0392610551789,7.0,1.0,phase_2,go,300.0,250.0,1.0,,,,,,,,,blue,triangle
0.0,5.0,0.5,1.0,6.0,6.0,266.6526429820806,7.0,1.0,phase_2,stop,300.0,250.0,3.0,,,,,,,,,green,square
0.0,6.0,1.0,1.0,6.0,6.0,292.3755819792859,7.0,1.0,phase_2,stop,300.0,200.0,3.0,,,,,,,,,yellow,cross
0.0,1.0,0.5,0.0,6.0,6.0,329.2777379974723,7.0,1.0,phase_2,go,300.0,150.0,1.0,,,,,,,,,orange,I
0.0,4.0,4.0,0.0,6.0,6.0,313.3138790144585,7.0,1.0,phase_2,go,300.0,150.0,1.0,,,,,,,,,magenta,flipped triangle
0.0,3.0,2.0,0.0,5.0,5.0,304.4408729765564,7.0,1.0,phase_2,go,300.0,150.0,1.0,,,,,,,,,cyan,hexagon
0.0,2.0,1.0,0.0,6.0,6.0,280.0793189671822,7.0,1.0,phase_2,go,300.0,150.0,1.0,,,,,,,,,white,circle
0.0,3.0,2.0,0.0,5.0,5.0,273.121831996832,7.0,1.0,phase_2,go,300.0,150.0,1.0,,,,,,,,,cyan,hexagon
0.0,5.0,0.5,1.0,5.0,5.0,273.2044049771502,7.0,1.0,phase_2,stop,300.0,150.0,3.0,,,,,,,,,green,square
0.0,6.0,1.0,1.0,5.0,5.0,272.5244520115666,7.0,1.0,phase_2,stop,250.0,150.0,3.0,,,,,,,,,yellow,cross
0.0,1.0,0.5,0.0,5.0,5.0,295.9255930036306,7.0,1.0,phase_2,go,200.0,150.0,1.0,,,,,,,,,orange,I
0.0,7.0,2.0,1.0,5.0,5.0,311.1869709682651,7.0,1.0,phase_2,stop,200.0,150.0,3.0,,,,,,,,,gray,diamond
0.0,1.0,0.5,0.0,5.0,5.0,300.9977040346712,7.0,1.0,phase_2,go,150.0,150.0,1.0,,,,,,,,,orange,I
0.0,6.0,1.0,1.0,6.0,0.0,0.0,7.0,1.0,phase_2,stop,150.0,150.0,4.0,,,,,,,,,yellow,cross
0.0,3.0,2.0,0.0,6.0,6.0,371.4225589646958,7.0,1.0,phase_2,go,150.0,200.0,1.0,,,,,,,,,cyan,hexagon
0.0,6.0,1.0,1.0,5.0,5.0,306.8998340168036,7.0,1.0,phase_2,stop,150.0,200.0,3.0,,,,,,,,,yellow,cross
0.0,1.0,0.5,0.0,5.0,5.0,588.3063020301051,7.0,1.0,phase_2,go,100.0,200.0,1.0,,,,,,,,,orange,I
0.0,1.0,0.5,0.0,6.0,6.0,419.5183740230277,7.0,1.0,phase_2,go,100.0,200.0,1.0,,,,,,,,,orange,I
0.0,6.0,1.0,1.0,5.0,0.0,0.0,7.0,1.0,phase_2,stop,100.0,200.0,4.0,,,,,,,,,yellow,cross
0.0,1.0,0.5,0.0,6.0,6.0,346.7655070126056,7.0,1.0,phase_2,go,150.0,200.0,1.0,,,,,,,,,orange,I
0.0,4.0,4.0,0.0,6.0,6.0,419.1757810185663,7.0,1.0,phase_2,go,150.0,200.0,1.0,,,,,,,,,magenta,flipped triangle
0.0,6.0,1.0,1.0,6.0,0.0,0.0,7.0,1.0,phase_2,stop,150.0,200.0,4.0,,,,,,,,,yellow,cross
0.0,8.0,4.0,1.0,6.0,6.0,378.8867910043336,7.0,1.0,phase_2,stop,150.0,250.0,3.0,,,,,,,,,blue,triangle
0.0,2.0,1.0,0.0,5.0,5.0,617.4108539707959,7.0,1.0,phase_2,go,150.0,200.0,1.0,,,,,,,,,white,circle
0.0,8.0,4.0,1.0,5.0,0.0,0.0,7.0,1.0,phase_2,stop,150.0,200.0,4.0,,,,,,,,,blue,triangle
0.0,3.0,2.0,0.0,6.0,6.0,533.2493860041723,7.0,1.0,phase_2,go,200.0,200.0,1.0,,,,,,,,,cyan,hexagon
0.0,2.0,1.0,0.0,5.0,5.0,334.2432749923318,7.0,1.0,phase_2,go,200.0,200.0,1.0,,,,,,,,,white,circle
0.0,5.0,0.5,1.0,5.0,5.0,359.5140170073136,7.0,1.0,phase_2,stop,200.0,200.0,3.0,,,,,,,,,green,square
0.0,8.0,4.0,1.0,5.0,0.0,0.0,7.0,1.0,phase_2,stop,150.0,200.0,4.0,,,,,,,,,blue,triangle
0.0,6.0,1.0,1.0,5.0,0.0,0.0,7.0,1.0,phase_2,stop,200.0,200.0,4.0,,,,,,,,,yellow,cross
0.0,8.0,4.0,1.0,5.0,5.0,595.7008670084178,7.0,1.0,phase_2,go,250.0,200.0,1.0,,,,,,,,,blue,triangle
0.0,1.0,0.5,0.0,6.0,6.0,589.8553570150398,7.0,1.0,phase_2,go,250.0,200.0,1.0,,,,,,,,,orange,I
0.0,6.0,1.0,1.0,6.0,0.0,0.0,7.0,1.0,phase_2,stop,250.0,200.0,4.0,,,,,,,,,yellow,cross
0.0,3.0,2.0,0.0,6.0,6.0,417.3747760360129,7.0,1.0,phase_2,go,250.0,250.0,1.0,,,,,,,,,cyan,hexagon
0.0,5.0,0.5,1.0,6.0,6.0,409.2938869725913,8.0,1.0,phase_2,stop,250.0,250.0,3.0,,,,,,,,,green,square
0.0,3.0,2.0,0.0,6.0,6.0,326.9048570073209,8.0,1.0,phase_2,go,250.0,200.0,1.0,,,,,,,,,cyan,hexagon
0.0,1.0,0.5,0.0,5.0,5.0,305.5751870269887,8.0,1.0,phase_2,go,250.0,200.0,1.0,,,,,,,,,orange,I
0.0,7.0,2.0,1.0,5.0,5.0,319.7978549869731,8.0,1.0,phase_2,stop,250.0,200.0,3.0,,,,,,,,,gray,diamond
0.0,5.0,0.5,1.0,5.0,5.0,329.3472629738971,8.0,1.0,phase_2,stop,200.0,200.0,3.0,,,,,,,,,green,square
0.0,5.0,0.5,1.0,5.0,5.0,364.7121139802038,8.0,1.0,phase_2,go,150.0,200.0,1.0,,,,,,,,,green,square
0.0,4.0,4.0,0.0,6.0,6.0,300.5671469727531,8.0,1.0,phase_2,go,150.0,200.0,1.0,,,,,,,,,magenta,flipped triangle
0.0,7.0,2.0,1.0,5.0,5.0,293.4856889769435,8.0,1.0,phase_2,stop,150.0,200.0,3.0,,,,,,,,,gray,diamond
0.0,8.0,4.0,1.0,5.0,0.0,0.0,8.0,1.0,phase_2,stop,100.0,200.0,4.0,,,,,,,,,blue,triangle
0.0,6.0,1.0,1.0,5.0,5.0,459.8138250294141,8.0,1.0,phase_2,go,150.0,200.0,1.0,,,,,,,,,yellow,cross
0.0,1.0,0.5,0.0,5.0,5.0,411.8290719925426,8.0,1.0,phase_2,go,150.0,200.0,1.0,,,,,,,,,orange,I
0.0,7.0,2.0,1.0,6.0,6.0,299.2836310295388,8.0,1.0,phase_2,stop,150.0,200.0,3.0,,,,,,,,,gray,diamond
0.0,5.0,0.5,1.0,6.0,6.0,460.3226769831963,8.0,1.0,phase_2,go,150.0,150.0,1.0,,,,,,,,,green,square
0.0,7.0,2.0,1.0,5.0,5.0,337.2106490423903,8.0,1.0,phase_2,go,150.0,150.0,1.0,,,,,,,,,gray,diamond
0.0,2.0,1.0,0.0,5.0,5.0,416.0511929658241,8.0,1.0,phase_2,go,150.0,150.0,1.0,,,,,,,,,white,circle
0.0,2.0,1.0,0.0,6.0,6.0,395.3353140386753,8.0,1.0,phase_2,go,150.0,150.0,1.0,,,,,,,,,white,circle
0.0,7.0,2.0,1.0,6.0,0.0,0.0,8.0,1.0,phase_2,stop,150.0,150.0,4.0,,,,,,,,,gray,diamond
0.0,4.0,4.0,0.0,5.0,5.0,303.5253679845482,8.0,1.0,phase_2,go,150.0,200.0,1.0,,,,,,,,,magenta,flipped triangle
0.0,3.0,2.0,0.0,5.0,5.0,373.8835479598492,8.0,1.0,phase_2,go,150.0,200.0,1.0,,,,,,,,,cyan,hexagon
0.0,4.0,4.0,0.0,6.0,6.0,359.9856110522523,8.0,1.0,phase_2,go,150.0,200.0,1.0,,,,,,,,,magenta,flipped triangle
0.0,3.0,2.0,0.0,5.0,5.0,333.4376439452171,8.0,1.0,phase_2,go,150.0,200.0,1.0,,,,,,,,,cyan,hexagon
0.0,3.0,2.0,0.0,5.0,5.0,316.0562019911594,8.0,1.0,phase_2,go,150.0,200.0,1.0,,,,,,,,,cyan,hexagon
0.0,2.0,1.0,0.0,5.0,5.0,292.4140979885123,8.0,1.0,phase_2,go,150.0,200.0,1.0,,,,,,,,,white,circle
0.0,4.0,4.0,0.0,6.0,6.0,317.6740109920501,8.0,1.0,phase_2,go,150.0,200.0,1.0,,,,,,,,,magenta,flipped triangle
0.0,6.0,1.0,1.0,6.0,6.0,323.1429029838182,8.0,1.0,phase_2,stop,150.0,200.0,3.0,,,,,,,,,yellow,cross
0.0,5.0,0.5,1.0,6.0,0.0,0.0,8.0,1.0,phase_2,stop,150.0,150.0,4.0,,,,,,,,,green,square
0.0,8.0,4.0,1.0,6.0,6.0,283.0512409564107,8.0,1.0,phase_2,go,150.0,200.0,1.0,,,,,,,,,blue,triangle
0.0,2.0,1.0,0.0,5.0,5.0,243.2256100000813,8.0,1.0,phase_2,go,150.0,200.0,1.0,,,,,,,,,white,circle
0.0,6.0,1.0,1.0,5.0,6.0,248.0311489780433,8.0,1.0,phase_2,stop,150.0,200.0,3.0,,,,,,,,,yellow,cross
0.0,8.0,4.0,1.0,5.0,0.0,0.0,8.0,1.0,phase_2,stop,100.0,200.0,4.0,,,,,,,,,blue,triangle
0.0,8.0,4.0,1.0,5.0,0.0,0.0,8.0,1.0,phase_2,stop,150.0,200.0,4.0,,,,,,,,,blue,triangle
0.0,3.0,2.0,0.0,5.0,5.0,502.7931929798797,8.0,1.0,phase_2,go,200.0,200.0,1.0,,,,,,,,,cyan,hexagon
0.0,1.0,0.5,0.0,5.0,5.0,391.8252420262433,8.0,1.0,phase_2,go,200.0,200.0,1.0,,,,,,,,,orange,I
0.0,7.0,2.0,1.0,6.0,6.0,392.3085200367495,8.0,1.0,phase_2,stop,200.0,200.0,3.0,,,,,,,,,gray,diamond
0.0,1.0,0.5,0.0,6.0,6.0,367.6399310352281,8.0,1.0,phase_2,go,200.0,150.0,1.0,,,,,,,,,orange,I
0.0,8.0,4.0,1.0,5.0,5.0,317.8728039492853,8.0,1.0,phase_2,stop,200.0,150.0,3.0,,,,,,,,,blue,triangle
0.0,7.0,2.0,1.0,7.0,6.0,875.5051179905422,1.0,2.0,phase_3,,,,,162.0,3.0,108.0,270.0,324.0,216.0,54.0,162.0,gray,diamond
0.0,5.0,0.5,1.0,7.0,1.0,1816.3796130102128,1.0,1.0,phase_3,,,,,245.0,5.0,245.0,49.0,196.0,294.0,147.0,98.0,green,square
0.0,8.0,4.0,1.0,7.0,5.0,1647.9753110324964,1.0,1.0,phase_3,,,,,264.0,6.0,176.0,132.0,88.0,44.0,264.0,220.0,blue,triangle
0.0,4.0,4.0,0.0,7.0,6.0,1802.222508995328,1.0,1.0,phase_3,,,,,68.0,2.0,136.0,170.0,34.0,102.0,204.0,68.0,magenta,flipped triangle
0.0,8.0,4.0,1.0,7.0,1.0,1681.019769050181,1.0,1.0,phase_3,,,,,264.0,6.0,264.0,220.0,176.0,88.0,132.0,44.0,blue,triangle
0.0,6.0,1.0,1.0,7.0,3.0,1316.7312160367146,1.0,1.0,phase_3,,,,,136.0,4.0,102.0,34.0,136.0,68.0,170.0,204.0,yellow,cross
0.0,6.0,1.0,1.0,7.0,3.0,1155.518451007083,1.0,1.0,phase_3,,,,,176.0,4.0,132.0,44.0,176.0,88.0,220.0,264.0,yellow,cross
0.0,2.0,1.0,0.0,7.0,6.0,1405.6462100124918,1.0,1.0,phase_3,,,,,49.0,1.0,98.0,147.0,245.0,294.0,196.0,49.0,white,circle
0.0,5.0,0.5,1.0,7.0,2.0,1318.7601789832115,1.0,1.0,phase_3,,,,,176.0,4.0,88.0,176.0,220.0,264.0,44.0,132.0,green,square
0.0,5.0,0.5,1.0,7.0,2.0,1248.43542202143,1.0,1.0,phase_3,,,,,234.0,6.0,195.0,234.0,78.0,156.0,39.0,117.0,green,square
0.0,6.0,1.0,1.0,7.0,1.0,1066.8880000011995,1.0,1.0,phase_3,,,,,294.0,6.0,294.0,196.0,98.0,147.0,245.0,49.0,yellow,cross
0.0,8.0,4.0,1.0,7.0,4.0,1845.7464890088888,1.0,1.0,phase_3,,,,,324.0,6.0,216.0,270.0,108.0,324.0,162.0,54.0,blue,triangle
0.0,1.0,0.5,0.0,7.0,6.0,1436.9299170211889,1.0,1.0,phase_3,,,,,270.0,5.0,324.0,216.0,54.0,162.0,108.0,270.0,orange,I
0.0,4.0,4.0,0.0,7.0,2.0,1510.397387028206,1.0,1.0,phase_3,,,,,44.0,1.0,220.0,44.0,176.0,264.0,132.0,88.0,magenta,flipped triangle
0.0,3.0,2.0,0.0,7.0,4.0,1504.7377939918078,1.0,1.0,phase_3,,,,,162.0,3.0,54.0,324.0,270.0,162.0,216.0,108.0,cyan,hexagon
0.0,4.0,4.0,0.0,7.0,3.0,1367.8954100469127,1.0,1.0,phase_3,,,,,54.0,1.0,216.0,108.0,54.0,324.0,162.0,270.0,magenta,flipped triangle
0.0,1.0,0.5,0.0,7.0,2.0,1609.3144330079667,1.0,1.0,phase_3,,,,,176.0,4.0,264.0,176.0,88.0,132.0,220.0,44.0,orange,I
0.0,5.0,0.5,1.0,7.0,1.0,2218.5719549888745,1.0,1.0,phase_3,,,,,136.0,4.0,136.0,170.0,204.0,34.0,68.0,102.0,green,square
0.0,8.0,4.0,1.0,7.0,2.0,1509.273067000322,1.0,1.0,phase_3,,,,,294.0,6.0,245.0,294.0,98.0,147.0,196.0,49.0,blue,triangle
0.0,3.0,2.0,0.0,7.0,4.0,1345.019382017199,1.0,1.0,phase_3,,,,,195.0,5.0,78.0,234.0,156.0,195.0,39.0,117.0,cyan,hexagon
0.0,6.0,1.0,1.0,7.0,2.0,980.4275160422548,2.0,1.0,phase_3,,,,,270.0,5.0,324.0,270.0,54.0,108.0,162.0,216.0,yellow,cross
0.0,6.0,1.0,1.0,7.0,2.0,375.7577000069432,2.0,1.0,phase_3,,,,,176.0,4.0,132.0,176.0,88.0,44.0,220.0,264.0,yellow,cross
0.0,2.0,1.0,0.0,7.0,1.0,918.6859150067904,2.0,1.0,phase_3,,,,,49.0,1.0,49.0,294.0,245.0,147.0,98.0,196.0,white,circle
0.0,4.0,4.0,0.0,7.0,4.0,1390.311462979298,2.0,1.0,phase_3,,,,,78.0,2.0,234.0,195.0,39.0,78.0,117.0,156.0,magenta,flipped triangle
0.0,5.0,0.5,1.0,7.0,2.0,1130.0211810157634,2.0,1.0,phase_3,,,,,196.0,4.0,245.0,196.0,147.0,98.0,49.0,294.0,green,square
0.0,7.0,2.0,1.0,7.0,4.0,1091.267999028787,2.0,1.0,phase_3,,,,,117.0,3.0,234.0,78.0,195.0,117.0,156.0,39.0,gray,diamond
0.0,5.0,0.5,1.0,7.0,2.0,709.6359980059788,2.0,1.0,phase_3,,,,,108.0,2.0,162.0,108.0,54.0,270.0,216.0,324.0,green,square
0.0,3.0,2.0,0.0,7.0,6.0,1166.7444789782166,2.0,1.0,phase_3,,,,,147.0,3.0,294.0,196.0,49.0,98.0,245.0,147.0,cyan,hexagon
0.0,7.0,2.0,1.0,7.0,1.0,1231.8866529967636,2.0,1.0,phase_3,,,,,196.0,4.0,196.0,245.0,147.0,294.0,98.0,49.0,gray,diamond
0.0,5.0,0.5,1.0,7.0,6.0,775.0154460081831,2.0,1.0,phase_3,,,,,108.0,2.0,270.0,216.0,162.0,324.0,54.0,108.0,green,square
0.0,3.0,2.0,0.0,7.0,1.0,760.781555029098,2.0,1.0,phase_3,,,,,102.0,3.0,102.0,34.0,170.0,136.0,68.0,204.0,cyan,hexagon
0.0,2.0,1.0,0.0,7.0,6.0,1017.5676820217632,2.0,1.0,phase_3,,,,,44.0,1.0,220.0,264.0,88.0,132.0,176.0,44.0,white,circle
0.0,1.0,0.5,0.0,7.0,2.0,1350.869480986148,2.0,1.0,phase_3,,,,,294.0,6.0,98.0,294.0,49.0,196.0,147.0,245.0,orange,I
0.0,3.0,2.0,0.0,7.0,4.0,1318.8741060439495,2.0,1.0,phase_3,,,,,176.0,4.0,132.0,44.0,220.0,176.0,88.0,264.0,cyan,hexagon
0.0,7.0,2.0,1.0,7.0,2.0,737.2938070329838,2.0,1.0,phase_3,,,,,102.0,3.0,136.0,102.0,170.0,34.0,68.0,204.0,gray,diamond
0.0,8.0,4.0,1.0,7.0,2.0,1400.9233660181053,2.0,1.0,phase_3,,,,,204.0,6.0,170.0,204.0,102.0,136.0,34.0,68.0,blue,triangle
0.0,3.0,2.0,0.0,7.0,1.0,1376.463988039177,2.0,1.0,phase_3,,,,,136.0,4.0,136.0,34.0,102.0,204.0,170.0,68.0,cyan,hexagon
0.0,6.0,1.0,1.0,7.0,5.0,1195.9182420396246,2.0,1.0,phase_3,,,,,108.0,2.0,54.0,270.0,162.0,324.0,108.0,216.0,yellow,cross
0.0,3.0,2.0,0.0,7.0,6.0,1996.8991829664449,2.0,1.0,phase_3,,,,,162.0,3.0,216.0,54.0,270.0,324.0,108.0,162.0,cyan,hexagon
0.0,7.0,2.0,1.0,7.0,6.0,1344.136682979297,2.0,1.0,phase_3,,,,,108.0,2.0,216.0,54.0,270.0,162.0,324.0,108.0,gray,diamond
0.0,6.0,1.0,1.0,7.0,1.0,926.9827860407532,3.0,1.0,phase_3,,,,,117.0,3.0,117.0,156.0,39.0,234.0,195.0,78.0,yellow,cross
0.0,8.0,4.0,1.0,7.0,5.0,992.476035025902,3.0,1.0,phase_3,,,,,234.0,6.0,78.0,156.0,39.0,117.0,234.0,195.0,blue,triangle
0.0,8.0,4.0,1.0,7.0,3.0,1127.13277497096,3.0,1.0,phase_3,,,,,234.0,6.0,117.0,195.0,234.0,156.0,78.0,39.0,blue,triangle
0.0,5.0,0.5,1.0,7.0,6.0,896.0519329993986,3.0,1.0,phase_3,,,,,102.0,3.0,136.0,170.0,34.0,204.0,68.0,102.0,green,square
0.0,2.0,1.0,0.0,7.0,5.0,1011.1667370074429,3.0,1.0,phase_3,,,,,34.0,1.0,170.0,68.0,204.0,102.0,34.0,136.0,white,circle
0.0,5.0,0.5,1.0,7.0,6.0,1199.6337520540692,3.0,1.0,phase_3,,,,,117.0,3.0,39.0,234.0,78.0,195.0,156.0,117.0,green,square
0.0,4.0,4.0,0.0,7.0,2.0,896.3121169945225,3.0,1.0,phase_3,,,,,98.0,2.0,147.0,98.0,245.0,196.0,49.0,294.0,magenta,flipped triangle
0.0,6.0,1.0,1.0,7.0,5.0,1664.7048679878935,3.0,1.0,phase_3,,,,,49.0,1.0,294.0,98.0,245.0,147.0,49.0,196.0,yellow,cross
0.0,2.0,1.0,0.0,7.0,2.0,641.216428950429,3.0,1.0,phase_3,,,,,39.0,1.0,156.0,39.0,195.0,117.0,234.0,78.0,white,circle
0.0,7.0,2.0,1.0,7.0,5.0,640.8266220241785,3.0,1.0,phase_3,,,,,68.0,2.0,136.0,102.0,204.0,34.0,68.0,170.0,gray,diamond
0.0,3.0,2.0,0.0,7.0,2.0,769.7758210124448,3.0,1.0,phase_3,,,,,132.0,3.0,44.0,132.0,176.0,220.0,264.0,88.0,cyan,hexagon
0.0,1.0,0.5,0.0,7.0,5.0,822.0077190198936,3.0,1.0,phase_3,,,,,195.0,5.0,156.0,39.0,234.0,117.0,195.0,78.0,orange,I
0.0,1.0,0.5,0.0,7.0,2.0,1070.7050820346922,3.0,1.0,phase_3,,,,,102.0,3.0,136.0,102.0,68.0,170.0,204.0,34.0,orange,I
0.0,8.0,4.0,1.0,7.0,5.0,853.7255200208165,3.0,1.0,phase_3,,,,,216.0,4.0,270.0,162.0,108.0,54.0,216.0,324.0,blue,triangle
0.0,2.0,1.0,0.0,7.0,4.0,1241.3280280306935,3.0,1.0,phase_3,,,,,39.0,1.0,156.0,117.0,78.0,39.0,234.0,195.0,white,circle
0.0,7.0,2.0,1.0,7.0,6.0,969.4095500162804,3.0,1.0,phase_3,,,,,88.0,2.0,264.0,176.0,220.0,44.0,132.0,88.0,gray,diamond
0.0,4.0,4.0,0.0,7.0,4.0,1156.0551970032975,3.0,1.0,phase_3,,,,,68.0,2.0,170.0,204.0,136.0,68.0,102.0,34.0,magenta,flipped triangle
0.0,7.0,2.0,1.0,7.0,5.0,947.3553950083442,3.0,1.0,phase_3,,,,,49.0,1.0,245.0,196.0,98.0,294.0,49.0,147.0,gray,diamond
0.0,1.0,0.5,0.0,7.0,6.0,1564.4609229639173,3.0,1.0,phase_3,,,,,220.0,5.0,44.0,264.0,176.0,132.0,88.0,220.0,orange,I
0.0,1.0,0.5,0.0,7.0,2.0,1857.1850369917229,3.0,1.0,phase_3,,,,,294.0,6.0,196.0,294.0,245.0,147.0,49.0,98.0,orange,I
0.0,3.0,2.0,0.0,7.0,5.0,845.6791670178063,4.0,1.0,phase_3,,,,,147.0,3.0,49.0,294.0,196.0,98.0,147.0,245.0,cyan,hexagon
0.0,6.0,1.0,1.0,7.0,1.0,809.1921319719404,4.0,1.0,phase_3,,,,,195.0,5.0,195.0,78.0,156.0,39.0,234.0,117.0,yellow,cross
0.0,1.0,0.5,0.0,7.0,5.0,1106.7622000118718,4.0,1.0,phase_3,,,,,270.0,5.0,324.0,108.0,216.0,162.0,270.0,54.0,orange,I
0.0,2.0,1.0,0.0,7.0,1.0,691.9068670249544,4.0,1.0,phase_3,,,,,54.0,1.0,54.0,324.0,270.0,162.0,108.0,216.0,white,circle
0.0,4.0,4.0,0.0,7.0,3.0,1237.5104789971374,4.0,1.0,phase_3,,,,,44.0,1.0,88.0,132.0,44.0,176.0,220.0,264.0,magenta,flipped triangle
0.0,3.0,2.0,0.0,7.0,2.0,805.5739919655025,4.0,1.0,phase_3,,,,,39.0,1.0,78.0,39.0,156.0,234.0,117.0,195.0,cyan,hexagon
0.0,6.0,1.0,1.0,7.0,3.0,823.9606320275925,4.0,1.0,phase_3,,,,,34.0,1.0,102.0,136.0,34.0,68.0,204.0,170.0,yellow,cross
0.0,1.0,0.5,0.0,7.0,5.0,656.2836819794029,4.0,1.0,phase_3,,,,,102.0,3.0,204.0,34.0,170.0,136.0,102.0,68.0,orange,I
0.0,8.0,4.0,1.0,7.0,2.0,929.17826899793,4.0,1.0,phase_3,,,,,294.0,6.0,245.0,294.0,147.0,98.0,196.0,49.0,blue,triangle
0.0,4.0,4.0,0.0,7.0,2.0,1018.03234097315,4.0,1.0,phase_3,,,,,98.0,2.0,294.0,98.0,245.0,196.0,147.0,49.0,magenta,flipped triangle
0.0,5.0,0.5,1.0,7.0,6.0,1323.2867490150966,4.0,1.0,phase_3,,,,,132.0,3.0,264.0,44.0,220.0,88.0,176.0,132.0,green,square
0.0,2.0,1.0,0.0,7.0,5.0,720.7915779436007,4.0,1.0,phase_3,,,,,34.0,1.0,136.0,102.0,170.0,204.0,34.0,68.0,white,circle
0.0,7.0,2.0,1.0,7.0,2.0,800.8450270281173,4.0,1.0,phase_3,,,,,39.0,1.0,78.0,39.0,195.0,156.0,234.0,117.0,gray,diamond
0.0,7.0,2.0,1.0,7.0,5.0,882.0941129815765,4.0,1.0,phase_3,,,,,220.0,5.0,176.0,264.0,88.0,44.0,220.0,132.0,gray,diamond
0.0,2.0,1.0,0.0,7.0,3.0,924.772962986026,4.0,1.0,phase_3,,,,,44.0,1.0,176.0,220.0,44.0,264.0,88.0,132.0,white,circle
0.0,1.0,0.5,0.0,7.0,5.0,1357.189633010421,4.0,1.0,phase_3,,,,,39.0,1.0,195.0,234.0,156.0,117.0,39.0,78.0,orange,I
0.0,4.0,4.0,0.0,7.0,3.0,1255.3599670063704,4.0,1.0,phase_3,,,,,39.0,1.0,156.0,78.0,39.0,234.0,117.0,195.0,magenta,flipped triangle
0.0,4.0,4.0,0.0,7.0,5.0,1072.899286984466,4.0,1.0,phase_3,,,,,324.0,6.0,108.0,270.0,162.0,54.0,324.0,216.0,magenta,flipped triangle
0.0,8.0,4.0,1.0,7.0,1.0,1576.5390149899758,4.0,1.0,phase_3,,,,,204.0,6.0,204.0,102.0,170.0,34.0,68.0,136.0,blue,triangle
0.0,2.0,1.0,0.0,7.0,1.0,1114.706763997674,4.0,1.0,phase_3,,,,,324.0,6.0,324.0,216.0,54.0,108.0,270.0,162.0,white,circle
