raw_reward_magnitude,stim_reward,stepwise_reward_magnitude,paired_with_stopping,quadrant,response,reaction_time,block,num_trial_presentations,which_part,stop_signal_trial_type,left_SSD,right_SSD,accuracy,chosen_bidding_amount,chosen_bidding_level,possible_bid_1,possible_bid_2,possible_bid_3,possible_bid_4,possible_bid_5,possible_bid_6,color_text,shape_text
0.0,4.0,0.0,0.0,1.0,1.0,357.0027449168265,1.0,1.0,part_1,,,,,,,,,,,,,gray,hexagon
35.0,1.0,1.0,0.0,1.0,1.0,396.8923731008544,1.0,1.0,part_1,,,,,,,,,,,,,blue,square
91.0,2.0,2.0,0.0,2.0,2.0,360.8433890622109,1.0,1.0,part_1,,,,,,,,,,,,,orange,cross
36.0,1.0,1.0,0.0,1.0,1.0,291.2640640279278,1.0,1.0,part_1,,,,,,,,,,,,,blue,square
0.0,3.0,0.0,0.0,4.0,4.0,257.4351240182295,1.0,1.0,part_1,,,,,,,,,,,,,cyan,I
110.0,2.0,2.0,0.0,1.0,1.0,284.1550889424979,1.0,1.0,part_1,,,,,,,,,,,,,orange,cross
113.0,6.0,2.0,1.0,1.0,1.0,347.9040740057826,1.0,1.0,part_1,,,,,,,,,,,,,magenta,circle
389.0,4.0,4.0,0.0,4.0,4.0,312.9190920153633,1.0,1.0,part_1,,,,,,,,,,,,,gray,hexagon
93.0,6.0,2.0,1.0,3.0,3.0,338.7861869996413,1.0,1.0,part_1,,,,,,,,,,,,,magenta,circle
41.0,1.0,1.0,0.0,2.0,2.0,310.6476650573313,1.0,1.0,part_1,,,,,,,,,,,,,blue,square
0.0,3.0,0.0,0.0,1.0,1.0,269.658662029542,1.0,1.0,part_1,,,,,,,,,,,,,cyan,I
80.0,2.0,2.0,0.0,1.0,1.0,281.8858620012179,1.0,1.0,part_1,,,,,,,,,,,,,orange,cross
424.0,8.0,4.0,1.0,1.0,1.0,452.86196609959,1.0,1.0,part_1,,,,,,,,,,,,,white,diamond
200.0,3.0,3.0,0.0,4.0,4.0,298.3693931018933,1.0,1.0,part_1,,,,,,,,,,,,,cyan,I
57.0,5.0,1.0,1.0,3.0,3.0,358.1169269746169,1.0,1.0,part_1,,,,,,,,,,,,,green,triangle
30.0,5.0,1.0,1.0,1.0,1.0,251.50606909301132,1.0,1.0,part_1,,,,,,,,,,,,,green,triangle
195.0,3.0,3.0,0.0,4.0,4.0,280.9013890800997,1.0,1.0,part_1,,,,,,,,,,,,,cyan,I
413.0,8.0,4.0,1.0,1.0,1.0,326.3072971021756,1.0,1.0,part_1,,,,,,,,,,,,,white,diamond
117.0,2.0,2.0,0.0,4.0,4.0,331.0027440311387,1.0,1.0,part_1,,,,,,,,,,,,,orange,cross
106.0,6.0,2.0,1.0,2.0,2.0,302.114614052698,1.0,1.0,part_1,,,,,,,,,,,,,magenta,circle
185.0,7.0,3.0,1.0,4.0,4.0,267.0692959800362,1.0,1.0,part_1,,,,,,,,,,,,,yellow,flipped triangle
43.0,1.0,1.0,0.0,3.0,3.0,320.2740560518577,1.0,1.0,part_1,,,,,,,,,,,,,blue,square
122.0,6.0,2.0,1.0,3.0,3.0,311.3717040978372,1.0,1.0,part_1,,,,,,,,,,,,,magenta,circle
412.0,4.0,4.0,0.0,2.0,2.0,298.71307592839,1.0,1.0,part_1,,,,,,,,,,,,,gray,hexagon
0.0,8.0,0.0,1.0,4.0,4.0,245.6962660653516,1.0,1.0,part_1,,,,,,,,,,,,,white,diamond
412.0,8.0,4.0,1.0,2.0,2.0,236.3332440145313,1.0,1.0,part_1,,,,,,,,,,,,,white,diamond
113.0,2.0,2.0,0.0,3.0,3.0,266.0329620121047,1.0,1.0,part_1,,,,,,,,,,,,,orange,cross
88.0,2.0,2.0,0.0,4.0,4.0,303.1263330485672,1.0,1.0,part_1,,,,,,,,,,,,,orange,cross
422.0,8.0,4.0,1.0,1.0,1.0,250.4091650480404,1.0,1.0,part_1,,,,,,,,,,,,,white,diamond
394.0,8.0,4.0,1.0,2.0,2.0,331.8430479848757,1.0,1.0,part_1,,,,,,,,,,,,,white,diamond
382.0,8.0,4.0,1.0,4.0,4.0,322.7930320426821,1.0,1.0,part_1,,,,,,,,,,,,,white,diamond
121.0,2.0,2.0,0.0,4.0,4.0,269.7423599893227,1.0,1.0,part_1,,,,,,,,,,,,,orange,cross
193.0,3.0,3.0,0.0,3.0,3.0,338.7163300067186,1.0,1.0,part_1,,,,,,,,,,,,,cyan,I
52.0,1.0,1.0,0.0,1.0,1.0,266.2971559911966,1.0,1.0,part_1,,,,,,,,,,,,,blue,square
77.0,6.0,2.0,1.0,2.0,2.0,278.8406129693612,1.0,1.0,part_1,,,,,,,,,,,,,magenta,circle
124.0,2.0,2.0,0.0,1.0,1.0,273.0871810344979,1.0,1.0,part_1,,,,,,,,,,,,,orange,cross
181.0,7.0,3.0,1.0,4.0,4.0,278.3170660259202,1.0,1.0,part_1,,,,,,,,,,,,,yellow,flipped triangle
396.0,8.0,4.0,1.0,2.0,2.0,233.4475690731778,1.0,1.0,part_1,,,,,,,,,,,,,white,diamond
121.0,6.0,2.0,1.0,4.0,4.0,345.3681740211323,1.0,1.0,part_1,,,,,,,,,,,,,magenta,circle
219.0,3.0,3.0,0.0,2.0,2.0,307.2216400178149,1.0,1.0,part_1,,,,,,,,,,,,,cyan,I
0.0,6.0,0.0,1.0,2.0,2.0,311.706786043942,1.0,1.0,part_1,,,,,,,,,,,,,magenta,circle
73.0,5.0,1.0,1.0,4.0,4.0,284.9974120035767,1.0,1.0,part_1,,,,,,,,,,,,,green,triangle
216.0,3.0,3.0,0.0,4.0,4.0,298.1034039985388,1.0,1.0,part_1,,,,,,,,,,,,,cyan,I
403.0,4.0,4.0,0.0,1.0,1.0,309.7636720631271,1.0,1.0,part_1,,,,,,,,,,,,,gray,hexagon
420.0,4.0,4.0,0.0,3.0,3.0,290.5609209556132,1.0,1.0,part_1,,,,,,,,,,,,,gray,hexagon
57.0,1.0,1.0,0.0,2.0,2.0,297.4145379848778,1.0,1.0,part_1,,,,,,,,,,,,,blue,square
0.0,2.0,0.0,0.0,1.0,1.0,335.6615770608186,1.0,1.0,part_1,,,,,,,,,,,,,orange,cross
417.0,4.0,4.0,0.0,2.0,2.0,267.1656550373882,1.0,1.0,part_1,,,,,,,,,,,,,gray,hexagon
218.0,3.0,3.0,0.0,4.0,4.0,270.9931499557569,1.0,1.0,part_1,,,,,,,,,,,,,cyan,I
375.0,4.0,4.0,0.0,4.0,4.0,294.2255480447784,1.0,1.0,part_1,,,,,,,,,,,,,gray,hexagon
0.0,4.0,0.0,0.0,4.0,4.0,262.5454579247162,1.0,1.0,part_1,,,,,,,,,,,,,gray,hexagon
413.0,4.0,4.0,0.0,1.0,1.0,323.5369230387732,1.0,1.0,part_1,,,,,,,,,,,,,gray,hexagon
190.0,3.0,3.0,0.0,2.0,2.0,298.9778759656474,1.0,1.0,part_1,,,,,,,,,,,,,cyan,I
105.0,6.0,2.0,1.0,2.0,2.0,335.9477320918813,1.0,1.0,part_1,,,,,,,,,,,,,magenta,circle
26.0,1.0,1.0,0.0,1.0,1.0,379.8733259318396,1.0,1.0,part_1,,,,,,,,,,,,,blue,square
0.0,8.0,0.0,1.0,2.0,2.0,318.2286649243906,1.0,1.0,part_1,,,,,,,,,,,,,white,diamond
108.0,2.0,2.0,0.0,4.0,4.0,332.7299400698393,1.0,1.0,part_1,,,,,,,,,,,,,orange,cross
57.0,1.0,1.0,0.0,4.0,4.0,296.3291819905862,1.0,1.0,part_1,,,,,,,,,,,,,blue,square
82.0,2.0,2.0,0.0,1.0,1.0,287.1259950334206,1.0,1.0,part_1,,,,,,,,,,,,,orange,cross
51.0,5.0,1.0,1.0,4.0,4.0,249.1390180075541,1.0,1.0,part_1,,,,,,,,,,,,,green,triangle
66.0,5.0,1.0,1.0,3.0,3.0,304.109878023155,1.0,1.0,part_1,,,,,,,,,,,,,green,triangle
60.0,5.0,1.0,1.0,1.0,1.0,237.7887829206884,1.0,1.0,part_1,,,,,,,,,,,,,green,triangle
219.0,3.0,3.0,0.0,4.0,4.0,304.7301140613854,1.0,1.0,part_1,,,,,,,,,,,,,cyan,I
0.0,2.0,0.0,0.0,3.0,3.0,315.4590100748464,1.0,1.0,part_1,,,,,,,,,,,,,orange,cross
191.0,7.0,3.0,1.0,3.0,3.0,306.6707049729302,1.0,1.0,part_1,,,,,,,,,,,,,yellow,flipped triangle
0.0,7.0,0.0,1.0,4.0,4.0,293.9387860242277,1.0,1.0,part_1,,,,,,,,,,,,,yellow,flipped triangle
404.0,8.0,4.0,1.0,3.0,3.0,371.6215119929984,1.0,1.0,part_1,,,,,,,,,,,,,white,diamond
0.0,3.0,0.0,0.0,4.0,4.0,256.4660799689591,1.0,1.0,part_1,,,,,,,,,,,,,cyan,I
95.0,2.0,2.0,0.0,1.0,1.0,310.0118710426613,1.0,1.0,part_1,,,,,,,,,,,,,orange,cross
0.0,3.0,0.0,0.0,3.0,3.0,298.9398090867325,1.0,1.0,part_1,,,,,,,,,,,,,cyan,I
0.0,8.0,0.0,1.0,4.0,4.0,229.1051599895581,1.0,1.0,part_1,,,,,,,,,,,,,white,diamond
43.0,5.0,1.0,1.0,4.0,4.0,313.5346269700676,1.0,1.0,part_1,,,,,,,,,,,,,green,triangle
86.0,6.0,2.0,1.0,1.0,1.0,303.7918580230325,1.0,1.0,part_1,,,,,,,,,,,,,magenta,circle
189.0,7.0,3.0,1.0,4.0,4.0,380.8660589857027,1.0,1.0,part_1,,,,,,,,,,,,,yellow,flipped triangle
420.0,8.0,4.0,1.0,3.0,3.0,319.5764439878985,1.0,1.0,part_1,,,,,,,,,,,,,white,diamond
0.0,6.0,0.0,1.0,3.0,3.0,278.4353949828073,1.0,1.0,part_1,,,,,,,,,,,,,magenta,circle
84.0,6.0,2.0,1.0,1.0,1.0,289.6104180254042,1.0,1.0,part_1,,,,,,,,,,,,,magenta,circle
189.0,3.0,3.0,0.0,1.0,1.0,279.1624190285802,1.0,1.0,part_1,,,,,,,,,,,,,cyan,I
0.0,5.0,0.0,1.0,1.0,1.0,363.6155399726704,1.0,1.0,part_1,,,,,,,,,,,,,green,triangle
210.0,3.0,3.0,0.0,3.0,3.0,345.255639986135,1.0,1.0,part_1,,,,,,,,,,,,,cyan,I
0.0,1.0,0.0,0.0,2.0,2.0,316.1078909179196,1.0,1.0,part_1,,,,,,,,,,,,,blue,square
377.0,8.0,4.0,1.0,4.0,4.0,321.7980499612167,1.0,1.0,part_1,,,,,,,,,,,,,white,diamond
113.0,2.0,2.0,0.0,4.0,4.0,324.8894209973514,1.0,1.0,part_1,,,,,,,,,,,,,orange,cross
209.0,7.0,3.0,1.0,1.0,1.0,283.4386499598622,1.0,1.0,part_1,,,,,,,,,,,,,yellow,flipped triangle
404.0,8.0,4.0,1.0,1.0,1.0,262.4195730313658,1.0,1.0,part_1,,,,,,,,,,,,,white,diamond
414.0,4.0,4.0,0.0,1.0,1.0,278.8947600638494,1.0,1.0,part_1,,,,,,,,,,,,,gray,hexagon
177.0,3.0,3.0,0.0,3.0,3.0,320.1744580874219,1.0,1.0,part_1,,,,,,,,,,,,,cyan,I
46.0,5.0,1.0,1.0,1.0,1.0,270.4751909477636,1.0,1.0,part_1,,,,,,,,,,,,,green,triangle
204.0,7.0,3.0,1.0,3.0,3.0,363.4290200425312,1.0,1.0,part_1,,,,,,,,,,,,,yellow,flipped triangle
192.0,7.0,3.0,1.0,4.0,4.0,512.7850049175322,1.0,1.0,part_1,,,,,,,,,,,,,yellow,flipped triangle
212.0,7.0,3.0,1.0,1.0,1.0,284.6515390556305,1.0,1.0,part_1,,,,,,,,,,,,,yellow,flipped triangle
73.0,1.0,1.0,0.0,2.0,2.0,359.8398190224543,1.0,1.0,part_1,,,,,,,,,,,,,blue,square
424.0,8.0,4.0,1.0,1.0,1.0,307.286583003588,1.0,1.0,part_1,,,,,,,,,,,,,white,diamond
0.0,1.0,0.0,0.0,2.0,2.0,434.6449809381738,1.0,1.0,part_1,,,,,,,,,,,,,blue,square
411.0,8.0,4.0,1.0,4.0,4.0,264.614803949371,1.0,1.0,part_1,,,,,,,,,,,,,white,diamond
387.0,4.0,4.0,0.0,2.0,2.0,277.2238369798288,1.0,1.0,part_1,,,,,,,,,,,,,gray,hexagon
0.0,7.0,0.0,1.0,1.0,1.0,262.4063900439068,1.0,1.0,part_1,,,,,,,,,,,,,yellow,flipped triangle
0.0,1.0,0.0,0.0,3.0,3.0,331.2762319110334,1.0,1.0,part_1,,,,,,,,,,,,,blue,square
98.0,6.0,2.0,1.0,4.0,4.0,297.8479070588946,1.0,1.0,part_1,,,,,,,,,,,,,magenta,circle
190.0,7.0,3.0,1.0,1.0,1.0,239.286937052384,1.0,1.0,part_1,,,,,,,,,,,,,yellow,flipped triangle
67.0,5.0,1.0,1.0,4.0,4.0,440.0702379643917,2.0,1.0,part_1,,,,,,,,,,,,,green,triangle
396.0,4.0,4.0,0.0,3.0,3.0,324.9767000088468,2.0,1.0,part_1,,,,,,,,,,,,,gray,hexagon
118.0,2.0,2.0,0.0,3.0,3.0,355.2361140027642,2.0,1.0,part_1,,,,,,,,,,,,,orange,cross
49.0,1.0,1.0,0.0,4.0,4.0,309.3945380533114,2.0,1.0,part_1,,,,,,,,,,,,,blue,square
40.0,5.0,1.0,1.0,1.0,1.0,321.6124420287087,2.0,1.0,part_1,,,,,,,,,,,,,green,triangle
200.0,7.0,3.0,1.0,4.0,4.0,304.7618219861761,2.0,1.0,part_1,,,,,,,,,,,,,yellow,flipped triangle
84.0,2.0,2.0,0.0,3.0,3.0,355.4781719576567,2.0,1.0,part_1,,,,,,,,,,,,,orange,cross
80.0,6.0,2.0,1.0,2.0,2.0,335.1912470534444,2.0,1.0,part_1,,,,,,,,,,,,,magenta,circle
402.0,4.0,4.0,0.0,2.0,2.0,327.8620189521462,2.0,1.0,part_1,,,,,,,,,,,,,gray,hexagon
0.0,4.0,0.0,0.0,1.0,1.0,387.6906270161271,2.0,1.0,part_1,,,,,,,,,,,,,gray,hexagon
195.0,3.0,3.0,0.0,3.0,3.0,327.0690659992397,2.0,1.0,part_1,,,,,,,,,,,,,cyan,I
219.0,7.0,3.0,1.0,2.0,2.0,338.3551680017262,2.0,1.0,part_1,,,,,,,,,,,,,yellow,flipped triangle
394.0,4.0,4.0,0.0,3.0,3.0,345.7735449774191,2.0,1.0,part_1,,,,,,,,,,,,,gray,hexagon
121.0,2.0,2.0,0.0,2.0,2.0,302.1604160312563,2.0,1.0,part_1,,,,,,,,,,,,,orange,cross
0.0,1.0,0.0,0.0,2.0,2.0,304.3462469941005,2.0,1.0,part_1,,,,,,,,,,,,,blue,square
412.0,8.0,4.0,1.0,3.0,3.0,333.4391720127314,2.0,1.0,part_1,,,,,,,,,,,,,white,diamond
187.0,7.0,3.0,1.0,2.0,2.0,292.7807880332693,2.0,1.0,part_1,,,,,,,,,,,,,yellow,flipped triangle
74.0,5.0,1.0,1.0,4.0,4.0,330.3330619819462,2.0,1.0,part_1,,,,,,,,,,,,,green,triangle
0.0,8.0,0.0,1.0,3.0,3.0,484.8093129694462,2.0,1.0,part_1,,,,,,,,,,,,,white,diamond
51.0,1.0,1.0,0.0,4.0,4.0,319.4446340203285,2.0,1.0,part_1,,,,,,,,,,,,,blue,square
51.0,5.0,1.0,1.0,3.0,3.0,398.4329920494929,2.0,1.0,part_1,,,,,,,,,,,,,green,triangle
0.0,5.0,0.0,1.0,3.0,3.0,409.8929360043257,2.0,1.0,part_1,,,,,,,,,,,,,green,triangle
98.0,2.0,2.0,0.0,3.0,3.0,369.8073090054095,2.0,1.0,part_1,,,,,,,,,,,,,orange,cross
86.0,6.0,2.0,1.0,4.0,4.0,300.7145610172301,2.0,1.0,part_1,,,,,,,,,,,,,magenta,circle
220.0,7.0,3.0,1.0,3.0,3.0,255.7896040380001,2.0,1.0,part_1,,,,,,,,,,,,,yellow,flipped triangle
404.0,8.0,4.0,1.0,1.0,1.0,357.6136090559885,2.0,1.0,part_1,,,,,,,,,,,,,white,diamond
0.0,2.0,0.0,0.0,2.0,2.0,312.9273209488019,2.0,1.0,part_1,,,,,,,,,,,,,orange,cross
181.0,3.0,3.0,0.0,3.0,3.0,247.9661530815065,2.0,1.0,part_1,,,,,,,,,,,,,cyan,I
70.0,1.0,1.0,0.0,3.0,3.0,292.6549969706684,2.0,1.0,part_1,,,,,,,,,,,,,blue,square
0.0,6.0,0.0,1.0,4.0,4.0,321.5706259943545,2.0,1.0,part_1,,,,,,,,,,,,,magenta,circle
195.0,7.0,3.0,1.0,1.0,1.0,315.0120730279013,2.0,1.0,part_1,,,,,,,,,,,,,yellow,flipped triangle
387.0,8.0,4.0,1.0,2.0,2.0,255.9561040252447,2.0,1.0,part_1,,,,,,,,,,,,,white,diamond
192.0,7.0,3.0,1.0,3.0,3.0,348.8130860496312,2.0,1.0,part_1,,,,,,,,,,,,,yellow,flipped triangle
106.0,2.0,2.0,0.0,3.0,3.0,321.432615048252,2.0,1.0,part_1,,,,,,,,,,,,,orange,cross
192.0,3.0,3.0,0.0,1.0,1.0,282.0115679642185,2.0,1.0,part_1,,,,,,,,,,,,,cyan,I
99.0,2.0,2.0,0.0,3.0,3.0,334.5254209125414,2.0,1.0,part_1,,,,,,,,,,,,,orange,cross
53.0,1.0,1.0,0.0,2.0,2.0,322.4453680450097,2.0,1.0,part_1,,,,,,,,,,,,,blue,square
220.0,7.0,3.0,1.0,2.0,2.0,451.4695050893351,2.0,1.0,part_1,,,,,,,,,,,,,yellow,flipped triangle
383.0,8.0,4.0,1.0,3.0,3.0,361.3277620170265,2.0,1.0,part_1,,,,,,,,,,,,,white,diamond
0.0,8.0,0.0,1.0,3.0,3.0,302.0306300604716,2.0,1.0,part_1,,,,,,,,,,,,,white,diamond
60.0,5.0,1.0,1.0,1.0,1.0,293.9861469203606,2.0,1.0,part_1,,,,,,,,,,,,,green,triangle
403.0,8.0,4.0,1.0,4.0,4.0,345.4379030736163,2.0,1.0,part_1,,,,,,,,,,,,,white,diamond
0.0,7.0,0.0,1.0,4.0,4.0,318.5744539368897,2.0,1.0,part_1,,,,,,,,,,,,,yellow,flipped triangle
412.0,4.0,4.0,0.0,2.0,2.0,306.3637659652158,2.0,1.0,part_1,,,,,,,,,,,,,gray,hexagon
209.0,3.0,3.0,0.0,3.0,3.0,286.5550209535286,2.0,1.0,part_1,,,,,,,,,,,,,cyan,I
95.0,6.0,2.0,1.0,3.0,3.0,289.4565830938518,2.0,1.0,part_1,,,,,,,,,,,,,magenta,circle
192.0,7.0,3.0,1.0,2.0,2.0,232.4208160862326,2.0,1.0,part_1,,,,,,,,,,,,,yellow,flipped triangle
397.0,4.0,4.0,0.0,3.0,3.0,293.7278349418193,2.0,1.0,part_1,,,,,,,,,,,,,gray,hexagon
220.0,3.0,3.0,0.0,4.0,4.0,323.7142880680039,2.0,1.0,part_1,,,,,,,,,,,,,cyan,I
52.0,1.0,1.0,0.0,4.0,4.0,310.5426030233502,2.0,1.0,part_1,,,,,,,,,,,,,blue,square
80.0,2.0,2.0,0.0,3.0,3.0,306.9390839664265,2.0,1.0,part_1,,,,,,,,,,,,,orange,cross
86.0,2.0,2.0,0.0,3.0,3.0,254.43422992248088,2.0,1.0,part_1,,,,,,,,,,,,,orange,cross
415.0,4.0,4.0,0.0,4.0,4.0,298.8353580003604,2.0,1.0,part_1,,,,,,,,,,,,,gray,hexagon
182.0,7.0,3.0,1.0,2.0,2.0,263.2906821090728,2.0,1.0,part_1,,,,,,,,,,,,,yellow,flipped triangle
62.0,5.0,1.0,1.0,4.0,4.0,414.2690749140456,2.0,1.0,part_1,,,,,,,,,,,,,green,triangle
27.0,1.0,1.0,0.0,3.0,3.0,267.0960340183228,2.0,1.0,part_1,,,,,,,,,,,,,blue,square
0.0,6.0,0.0,1.0,3.0,3.0,376.9784020259976,2.0,1.0,part_1,,,,,,,,,,,,,magenta,circle
0.0,5.0,0.0,1.0,1.0,1.0,356.8646489875391,2.0,1.0,part_1,,,,,,,,,,,,,green,triangle
35.0,1.0,1.0,0.0,4.0,4.0,270.3936139587313,2.0,1.0,part_1,,,,,,,,,,,,,blue,square
210.0,3.0,3.0,0.0,2.0,2.0,299.104829900898,2.0,1.0,part_1,,,,,,,,,,,,,cyan,I
32.0,5.0,1.0,1.0,3.0,3.0,289.7523819701746,2.0,1.0,part_1,,,,,,,,,,,,,green,triangle
0.0,2.0,0.0,0.0,1.0,1.0,254.22449398320168,2.0,1.0,part_1,,,,,,,,,,,,,orange,cross
46.0,1.0,1.0,0.0,3.0,3.0,313.5153369512409,2.0,1.0,part_1,,,,,,,,,,,,,blue,square
0.0,4.0,0.0,0.0,2.0,2.0,344.8570490581915,2.0,1.0,part_1,,,,,,,,,,,,,gray,hexagon
195.0,7.0,3.0,1.0,4.0,4.0,282.5101219350472,2.0,1.0,part_1,,,,,,,,,,,,,yellow,flipped triangle
61.0,5.0,1.0,1.0,2.0,2.0,294.6654600091278,2.0,1.0,part_1,,,,,,,,,,,,,green,triangle
411.0,4.0,4.0,0.0,4.0,4.0,421.1560880066827,2.0,1.0,part_1,,,,,,,,,,,,,gray,hexagon
0.0,5.0,0.0,1.0,1.0,1.0,281.2230730196461,2.0,1.0,part_1,,,,,,,,,,,,,green,triangle
378.0,8.0,4.0,1.0,1.0,1.0,352.5790310231969,2.0,1.0,part_1,,,,,,,,,,,,,white,diamond
395.0,4.0,4.0,0.0,2.0,2.0,274.2136649321764,2.0,1.0,part_1,,,,,,,,,,,,,gray,hexagon
185.0,3.0,3.0,0.0,4.0,4.0,281.386494054459,2.0,1.0,part_1,,,,,,,,,,,,,cyan,I
74.0,1.0,1.0,0.0,1.0,1.0,395.8313210168853,2.0,1.0,part_1,,,,,,,,,,,,,blue,square
0.0,5.0,0.0,1.0,2.0,2.0,343.524371040985,2.0,1.0,part_1,,,,,,,,,,,,,green,triangle
29.0,5.0,1.0,1.0,1.0,1.0,318.7735700048506,2.0,1.0,part_1,,,,,,,,,,,,,green,triangle
191.0,3.0,3.0,0.0,1.0,1.0,290.11950397398317,2.0,1.0,part_1,,,,,,,,,,,,,cyan,I
93.0,2.0,2.0,0.0,4.0,4.0,288.7856919551268,2.0,1.0,part_1,,,,,,,,,,,,,orange,cross
0.0,4.0,0.0,0.0,1.0,1.0,350.3855810267851,2.0,1.0,part_1,,,,,,,,,,,,,gray,hexagon
206.0,3.0,3.0,0.0,1.0,1.0,289.8470760555938,2.0,1.0,part_1,,,,,,,,,,,,,cyan,I
47.0,5.0,1.0,1.0,2.0,2.0,335.3656660765409,2.0,1.0,part_1,,,,,,,,,,,,,green,triangle
110.0,6.0,2.0,1.0,2.0,2.0,298.7427869811654,2.0,1.0,part_1,,,,,,,,,,,,,magenta,circle
0.0,4.0,0.0,0.0,2.0,2.0,286.547951051034,2.0,1.0,part_1,,,,,,,,,,,,,gray,hexagon
79.0,6.0,2.0,1.0,2.0,2.0,309.7928110510111,2.0,1.0,part_1,,,,,,,,,,,,,magenta,circle
414.0,8.0,4.0,1.0,4.0,4.0,471.728517091833,2.0,1.0,part_1,,,,,,,,,,,,,white,diamond
35.0,5.0,1.0,1.0,2.0,2.0,269.6097589796409,2.0,1.0,part_1,,,,,,,,,,,,,green,triangle
0.0,8.0,0.0,1.0,2.0,2.0,324.1787709994241,2.0,1.0,part_1,,,,,,,,,,,,,white,diamond
113.0,6.0,2.0,1.0,2.0,2.0,303.1009859405458,2.0,1.0,part_1,,,,,,,,,,,,,magenta,circle
108.0,2.0,2.0,0.0,1.0,1.0,282.5689220335334,2.0,1.0,part_1,,,,,,,,,,,,,orange,cross
403.0,8.0,4.0,1.0,1.0,1.0,233.2836469868198,2.0,1.0,part_1,,,,,,,,,,,,,white,diamond
376.0,4.0,4.0,0.0,2.0,2.0,253.52760509122157,2.0,1.0,part_1,,,,,,,,,,,,,gray,hexagon
86.0,2.0,2.0,0.0,2.0,2.0,283.0088069895282,2.0,1.0,part_1,,,,,,,,,,,,,orange,cross
384.0,8.0,4.0,1.0,4.0,4.0,404.3896549846977,2.0,1.0,part_1,,,,,,,,,,,,,white,diamond
376.0,8.0,4.0,1.0,2.0,2.0,273.8453159108758,2.0,1.0,part_1,,,,,,,,,,,,,white,diamond
80.0,6.0,2.0,1.0,4.0,4.0,293.8996430020779,2.0,1.0,part_1,,,,,,,,,,,,,magenta,circle
192.0,3.0,3.0,0.0,1.0,1.0,362.5757599947974,2.0,1.0,part_1,,,,,,,,,,,,,cyan,I
0.0,7.0,0.0,1.0,1.0,1.0,319.93004691321397,2.0,1.0,part_1,,,,,,,,,,,,,yellow,flipped triangle
206.0,7.0,3.0,1.0,4.0,4.0,327.1747529506683,2.0,1.0,part_1,,,,,,,,,,,,,yellow,flipped triangle
66.0,1.0,1.0,0.0,1.0,1.0,281.333931023255,2.0,1.0,part_1,,,,,,,,,,,,,blue,square
377.0,4.0,4.0,0.0,2.0,2.0,253.6616830620914,2.0,1.0,part_1,,,,,,,,,,,,,gray,hexagon
383.0,4.0,4.0,0.0,1.0,1.0,317.9119559936225,2.0,1.0,part_1,,,,,,,,,,,,,gray,hexagon
201.0,3.0,3.0,0.0,1.0,1.0,338.0531519651413,2.0,1.0,part_1,,,,,,,,,,,,,cyan,I
120.0,2.0,2.0,0.0,4.0,4.0,447.4827540107071,3.0,1.0,part_1,,,,,,,,,,,,,orange,cross
0.0,3.0,0.0,0.0,4.0,4.0,307.3826339095831,3.0,1.0,part_1,,,,,,,,,,,,,cyan,I
0.0,1.0,0.0,0.0,4.0,4.0,384.3115860363468,3.0,1.0,part_1,,,,,,,,,,,,,blue,square
196.0,7.0,3.0,1.0,4.0,4.0,343.8450429821387,3.0,1.0,part_1,,,,,,,,,,,,,yellow,flipped triangle
0.0,1.0,0.0,0.0,2.0,2.0,364.1765600768849,3.0,1.0,part_1,,,,,,,,,,,,,blue,square
113.0,6.0,2.0,1.0,2.0,2.0,353.4552280325442,3.0,1.0,part_1,,,,,,,,,,,,,magenta,circle
113.0,2.0,2.0,0.0,1.0,1.0,331.2267509754747,3.0,1.0,part_1,,,,,,,,,,,,,orange,cross
415.0,4.0,4.0,0.0,1.0,1.0,282.2474009590223,3.0,1.0,part_1,,,,,,,,,,,,,gray,hexagon
193.0,7.0,3.0,1.0,1.0,1.0,286.5747050382197,3.0,1.0,part_1,,,,,,,,,,,,,yellow,flipped triangle
91.0,6.0,2.0,1.0,1.0,1.0,299.1885179653764,3.0,1.0,part_1,,,,,,,,,,,,,magenta,circle
421.0,4.0,4.0,0.0,3.0,3.0,303.5604410106316,3.0,1.0,part_1,,,,,,,,,,,,,gray,hexagon
41.0,5.0,1.0,1.0,2.0,2.0,355.8215521043166,3.0,1.0,part_1,,,,,,,,,,,,,green,triangle
388.0,4.0,4.0,0.0,4.0,4.0,454.5385909732431,3.0,1.0,part_1,,,,,,,,,,,,,gray,hexagon
0.0,8.0,0.0,1.0,3.0,3.0,261.2475450150668,3.0,1.0,part_1,,,,,,,,,,,,,white,diamond
75.0,5.0,1.0,1.0,3.0,3.0,315.3832600219175,3.0,1.0,part_1,,,,,,,,,,,,,green,triangle
51.0,1.0,1.0,0.0,4.0,4.0,294.4518690928817,3.0,1.0,part_1,,,,,,,,,,,,,blue,square
195.0,7.0,3.0,1.0,2.0,2.0,252.8345009777695,3.0,1.0,part_1,,,,,,,,,,,,,yellow,flipped triangle
75.0,1.0,1.0,0.0,2.0,2.0,311.4703479222953,3.0,1.0,part_1,,,,,,,,,,,,,blue,square
102.0,6.0,2.0,1.0,1.0,1.0,290.3967549791559,3.0,1.0,part_1,,,,,,,,,,,,,magenta,circle
0.0,8.0,0.0,1.0,1.0,1.0,249.8426330275833,3.0,1.0,part_1,,,,,,,,,,,,,white,diamond
178.0,7.0,3.0,1.0,1.0,1.0,253.23589495383197,3.0,1.0,part_1,,,,,,,,,,,,,yellow,flipped triangle
192.0,7.0,3.0,1.0,3.0,3.0,306.9106910843402,3.0,1.0,part_1,,,,,,,,,,,,,yellow,flipped triangle
99.0,6.0,2.0,1.0,4.0,4.0,304.0907559916377,3.0,1.0,part_1,,,,,,,,,,,,,magenta,circle
51.0,1.0,1.0,0.0,2.0,2.0,258.5833210032433,3.0,1.0,part_1,,,,,,,,,,,,,blue,square
222.0,7.0,3.0,1.0,4.0,4.0,394.9033089447766,3.0,1.0,part_1,,,,,,,,,,,,,yellow,flipped triangle
108.0,6.0,2.0,1.0,2.0,2.0,283.3871189504862,3.0,1.0,part_1,,,,,,,,,,,,,magenta,circle
30.0,1.0,1.0,0.0,4.0,4.0,250.8879490196705,3.0,1.0,part_1,,,,,,,,,,,,,blue,square
223.0,3.0,3.0,0.0,3.0,3.0,332.6136170653626,3.0,1.0,part_1,,,,,,,,,,,,,cyan,I
47.0,5.0,1.0,1.0,2.0,2.0,259.4170660013333,3.0,1.0,part_1,,,,,,,,,,,,,green,triangle
219.0,7.0,3.0,1.0,3.0,3.0,254.2698479956016,3.0,1.0,part_1,,,,,,,,,,,,,yellow,flipped triangle
100.0,2.0,2.0,0.0,4.0,4.0,262.5357989454642,3.0,1.0,part_1,,,,,,,,,,,,,orange,cross
84.0,2.0,2.0,0.0,2.0,2.0,242.4552569864317,3.0,1.0,part_1,,,,,,,,,,,,,orange,cross
209.0,3.0,3.0,0.0,3.0,3.0,262.6066410448402,3.0,1.0,part_1,,,,,,,,,,,,,cyan,I
421.0,8.0,4.0,1.0,1.0,1.0,225.5392359802499,3.0,1.0,part_1,,,,,,,,,,,,,white,diamond
409.0,8.0,4.0,1.0,3.0,3.0,245.5100869992748,3.0,1.0,part_1,,,,,,,,,,,,,white,diamond
46.0,5.0,1.0,1.0,1.0,1.0,282.3114070342853,3.0,1.0,part_1,,,,,,,,,,,,,green,triangle
402.0,8.0,4.0,1.0,2.0,2.0,224.7706659836694,3.0,1.0,part_1,,,,,,,,,,,,,white,diamond
0.0,3.0,0.0,0.0,2.0,2.0,261.8123649153858,3.0,1.0,part_1,,,,,,,,,,,,,cyan,I
0.0,2.0,0.0,0.0,1.0,1.0,259.3936999328434,3.0,1.0,part_1,,,,,,,,,,,,,orange,cross
196.0,3.0,3.0,0.0,2.0,2.0,260.9765459783375,3.0,1.0,part_1,,,,,,,,,,,,,cyan,I
0.0,7.0,0.0,1.0,4.0,4.0,426.2429700465873,3.0,1.0,part_1,,,,,,,,,,,,,yellow,flipped triangle
424.0,4.0,4.0,0.0,1.0,1.0,265.8265399513766,3.0,1.0,part_1,,,,,,,,,,,,,gray,hexagon
0.0,2.0,0.0,0.0,4.0,4.0,331.8976840237155,3.0,1.0,part_1,,,,,,,,,,,,,orange,cross
82.0,6.0,2.0,1.0,3.0,3.0,290.8556640613824,3.0,1.0,part_1,,,,,,,,,,,,,magenta,circle
0.0,2.0,0.0,0.0,4.0,4.0,285.6773319654166,3.0,1.0,part_1,,,,,,,,,,,,,orange,cross
198.0,7.0,3.0,1.0,2.0,2.0,249.0223380737006,3.0,1.0,part_1,,,,,,,,,,,,,yellow,flipped triangle
192.0,3.0,3.0,0.0,2.0,2.0,269.3687380524352,3.0,1.0,part_1,,,,,,,,,,,,,cyan,I
0.0,5.0,0.0,1.0,3.0,3.0,294.4771390175447,3.0,1.0,part_1,,,,,,,,,,,,,green,triangle
389.0,8.0,4.0,1.0,3.0,3.0,291.2669200450182,3.0,1.0,part_1,,,,,,,,,,,,,white,diamond
0.0,2.0,0.0,0.0,3.0,3.0,277.805823017843,3.0,1.0,part_1,,,,,,,,,,,,,orange,cross
0.0,5.0,0.0,1.0,1.0,1.0,217.1585489995777,3.0,1.0,part_1,,,,,,,,,,,,,green,triangle
404.0,4.0,4.0,0.0,3.0,3.0,519.8383139213547,3.0,1.0,part_1,,,,,,,,,,,,,gray,hexagon
0.0,7.0,0.0,1.0,3.0,3.0,282.3316729627549,3.0,1.0,part_1,,,,,,,,,,,,,yellow,flipped triangle
222.0,3.0,3.0,0.0,2.0,2.0,384.8302590195089,3.0,1.0,part_1,,,,,,,,,,,,,cyan,I
178.0,3.0,3.0,0.0,4.0,4.0,307.4170290492475,3.0,1.0,part_1,,,,,,,,,,,,,cyan,I
388.0,8.0,4.0,1.0,4.0,4.0,360.882832086645,3.0,1.0,part_1,,,,,,,,,,,,,white,diamond
60.0,1.0,1.0,0.0,1.0,1.0,302.2635000525042,3.0,1.0,part_1,,,,,,,,,,,,,blue,square
122.0,2.0,2.0,0.0,4.0,4.0,305.5974669987336,3.0,1.0,part_1,,,,,,,,,,,,,orange,cross
108.0,6.0,2.0,1.0,4.0,4.0,280.683558085002,3.0,1.0,part_1,,,,,,,,,,,,,magenta,circle
53.0,5.0,1.0,1.0,2.0,2.0,282.3452609591186,3.0,1.0,part_1,,,,,,,,,,,,,green,triangle
406.0,8.0,4.0,1.0,2.0,2.0,497.259531985037,3.0,1.0,part_1,,,,,,,,,,,,,white,diamond
121.0,6.0,2.0,1.0,4.0,4.0,364.8071269271895,3.0,1.0,part_1,,,,,,,,,,,,,magenta,circle
390.0,8.0,4.0,1.0,3.0,3.0,283.4470069501549,3.0,1.0,part_1,,,,,,,,,,,,,white,diamond
390.0,4.0,4.0,0.0,2.0,2.0,253.410922945477,3.0,1.0,part_1,,,,,,,,,,,,,gray,hexagon
72.0,5.0,1.0,1.0,3.0,3.0,245.9388650022447,3.0,1.0,part_1,,,,,,,,,,,,,green,triangle
32.0,5.0,1.0,1.0,2.0,2.0,304.7183559974655,3.0,1.0,part_1,,,,,,,,,,,,,green,triangle
32.0,1.0,1.0,0.0,1.0,1.0,220.45798203907898,3.0,1.0,part_1,,,,,,,,,,,,,blue,square
0.0,6.0,0.0,1.0,3.0,3.0,248.9364739740267,3.0,1.0,part_1,,,,,,,,,,,,,magenta,circle
404.0,4.0,4.0,0.0,1.0,1.0,262.502909055911,3.0,1.0,part_1,,,,,,,,,,,,,gray,hexagon
387.0,4.0,4.0,0.0,4.0,4.0,437.1155579574406,3.0,1.0,part_1,,,,,,,,,,,,,gray,hexagon
218.0,7.0,3.0,1.0,1.0,1.0,294.1012129886076,3.0,1.0,part_1,,,,,,,,,,,,,yellow,flipped triangle
0.0,1.0,0.0,0.0,1.0,1.0,242.590483976528,3.0,1.0,part_1,,,,,,,,,,,,,blue,square
415.0,8.0,4.0,1.0,2.0,2.0,338.4898490039632,3.0,1.0,part_1,,,,,,,,,,,,,white,diamond
100.0,6.0,2.0,1.0,1.0,1.0,310.1095820311457,3.0,1.0,part_1,,,,,,,,,,,,,magenta,circle
89.0,6.0,2.0,1.0,1.0,1.0,275.2748779021203,3.0,1.0,part_1,,,,,,,,,,,,,magenta,circle
0.0,6.0,0.0,1.0,3.0,3.0,382.5850049033761,3.0,1.0,part_1,,,,,,,,,,,,,magenta,circle
102.0,2.0,2.0,0.0,2.0,2.0,317.0203879708424,3.0,1.0,part_1,,,,,,,,,,,,,orange,cross
210.0,7.0,3.0,1.0,1.0,1.0,241.488137980923,3.0,1.0,part_1,,,,,,,,,,,,,yellow,flipped triangle
409.0,4.0,4.0,0.0,3.0,3.0,285.7858058996498,3.0,1.0,part_1,,,,,,,,,,,,,gray,hexagon
41.0,5.0,1.0,1.0,3.0,3.0,290.970588917844,3.0,1.0,part_1,,,,,,,,,,,,,green,triangle
182.0,3.0,3.0,0.0,1.0,1.0,293.5540470061824,3.0,1.0,part_1,,,,,,,,,,,,,cyan,I
382.0,4.0,4.0,0.0,1.0,1.0,412.7682669786736,3.0,1.0,part_1,,,,,,,,,,,,,gray,hexagon
0.0,8.0,0.0,1.0,3.0,3.0,320.2729260083288,3.0,1.0,part_1,,,,,,,,,,,,,white,diamond
415.0,8.0,4.0,1.0,4.0,4.0,365.1800870429724,3.0,1.0,part_1,,,,,,,,,,,,,white,diamond
209.0,7.0,3.0,1.0,3.0,3.0,312.131613958627,3.0,1.0,part_1,,,,,,,,,,,,,yellow,flipped triangle
409.0,4.0,4.0,0.0,3.0,3.0,303.7182359257713,3.0,1.0,part_1,,,,,,,,,,,,,gray,hexagon
204.0,3.0,3.0,0.0,4.0,4.0,393.2034830795601,3.0,1.0,part_1,,,,,,,,,,,,,cyan,I
0.0,2.0,0.0,0.0,3.0,3.0,319.9836079729721,3.0,1.0,part_1,,,,,,,,,,,,,orange,cross
201.0,7.0,3.0,1.0,3.0,3.0,349.8406049329787,3.0,1.0,part_1,,,,,,,,,,,,,yellow,flipped triangle
0.0,5.0,0.0,1.0,3.0,3.0,283.3346769912168,3.0,1.0,part_1,,,,,,,,,,,,,green,triangle
198.0,3.0,3.0,0.0,3.0,3.0,286.4459489937871,3.0,1.0,part_1,,,,,,,,,,,,,cyan,I
403.0,4.0,4.0,0.0,1.0,1.0,258.7663109879941,3.0,1.0,part_1,,,,,,,,,,,,,gray,hexagon
117.0,6.0,2.0,1.0,3.0,3.0,303.2639940502122,3.0,1.0,part_1,,,,,,,,,,,,,magenta,circle
110.0,6.0,2.0,1.0,3.0,3.0,316.7502320138737,3.0,1.0,part_1,,,,,,,,,,,,,magenta,circle
84.0,2.0,2.0,0.0,3.0,3.0,303.298418992199,3.0,1.0,part_1,,,,,,,,,,,,,orange,cross
0.0,8.0,0.0,1.0,1.0,1.0,308.0885059898719,3.0,1.0,part_1,,,,,,,,,,,,,white,diamond
397.0,8.0,4.0,1.0,3.0,3.0,264.2684280872345,3.0,1.0,part_1,,,,,,,,,,,,,white,diamond
201.0,3.0,3.0,0.0,1.0,1.0,221.3784939376637,3.0,1.0,part_1,,,,,,,,,,,,,cyan,I
0.0,7.0,0.0,1.0,4.0,4.0,309.316050959751,3.0,1.0,part_1,,,,,,,,,,,,,yellow,flipped triangle
0.0,6.0,0.0,1.0,4.0,4.0,320.2738129766658,3.0,1.0,part_1,,,,,,,,,,,,,magenta,circle
212.0,3.0,3.0,0.0,3.0,3.0,308.5006319452077,4.0,1.0,part_1,,,,,,,,,,,,,cyan,I
102.0,2.0,2.0,0.0,2.0,2.0,282.2484349599108,4.0,1.0,part_1,,,,,,,,,,,,,orange,cross
384.0,4.0,4.0,0.0,3.0,3.0,246.323061059229,4.0,1.0,part_1,,,,,,,,,,,,,gray,hexagon
106.0,6.0,2.0,1.0,3.0,3.0,305.6746759684756,4.0,1.0,part_1,,,,,,,,,,,,,magenta,circle
395.0,8.0,4.0,1.0,4.0,4.0,286.3503500120714,4.0,1.0,part_1,,,,,,,,,,,,,white,diamond
79.0,2.0,2.0,0.0,1.0,1.0,228.3032259438187,4.0,1.0,part_1,,,,,,,,,,,,,orange,cross
55.0,5.0,1.0,1.0,2.0,2.0,425.3603350371122,4.0,1.0,part_1,,,,,,,,,,,,,green,triangle
223.0,7.0,3.0,1.0,2.0,2.0,317.6739759510383,4.0,1.0,part_1,,,,,,,,,,,,,yellow,flipped triangle
0.0,3.0,0.0,0.0,3.0,3.0,291.5444109821692,4.0,1.0,part_1,,,,,,,,,,,,,cyan,I
0.0,7.0,0.0,1.0,3.0,3.0,312.1231140103191,4.0,1.0,part_1,,,,,,,,,,,,,yellow,flipped triangle
72.0,1.0,1.0,0.0,4.0,4.0,257.8166349558159,4.0,1.0,part_1,,,,,,,,,,,,,blue,square
424.0,4.0,4.0,0.0,3.0,3.0,320.5548649420962,4.0,1.0,part_1,,,,,,,,,,,,,gray,hexagon
404.0,4.0,4.0,0.0,1.0,1.0,259.1908830218017,4.0,1.0,part_1,,,,,,,,,,,,,gray,hexagon
54.0,5.0,1.0,1.0,4.0,4.0,250.7493660086766,4.0,1.0,part_1,,,,,,,,,,,,,green,triangle
177.0,7.0,3.0,1.0,2.0,2.0,284.4557160278782,4.0,1.0,part_1,,,,,,,,,,,,,yellow,flipped triangle
84.0,6.0,2.0,1.0,1.0,1.0,212.786115007475,4.0,1.0,part_1,,,,,,,,,,,,,magenta,circle
210.0,7.0,3.0,1.0,3.0,3.0,400.5220460239798,4.0,1.0,part_1,,,,,,,,,,,,,yellow,flipped triangle
60.0,1.0,1.0,0.0,2.0,2.0,277.20568608492607,4.0,1.0,part_1,,,,,,,,,,,,,blue,square
398.0,4.0,4.0,0.0,4.0,4.0,258.4039049688726,4.0,1.0,part_1,,,,,,,,,,,,,gray,hexagon
201.0,7.0,3.0,1.0,1.0,1.0,190.3133079176768,4.0,1.0,part_1,,,,,,,,,,,,,yellow,flipped triangle
105.0,2.0,2.0,0.0,1.0,1.0,353.3374819671735,4.0,1.0,part_1,,,,,,,,,,,,,orange,cross
220.0,3.0,3.0,0.0,2.0,2.0,305.1247899420559,4.0,1.0,part_1,,,,,,,,,,,,,cyan,I
40.0,1.0,1.0,0.0,1.0,1.0,234.2962820548564,4.0,1.0,part_1,,,,,,,,,,,,,blue,square
375.0,8.0,4.0,1.0,3.0,3.0,290.6042009126395,4.0,1.0,part_1,,,,,,,,,,,,,white,diamond
216.0,7.0,3.0,1.0,3.0,3.0,302.53830505535,4.0,1.0,part_1,,,,,,,,,,,,,yellow,flipped triangle
35.0,5.0,1.0,1.0,4.0,4.0,289.8948700167238,4.0,1.0,part_1,,,,,,,,,,,,,green,triangle
77.0,2.0,2.0,0.0,2.0,2.0,349.3371200747788,4.0,1.0,part_1,,,,,,,,,,,,,orange,cross
110.0,6.0,2.0,1.0,4.0,4.0,327.3762279422954,4.0,2.0,part_1,,,,,,,,,,,,,magenta,circle
178.0,7.0,3.0,1.0,2.0,2.0,445.519368047826,4.0,1.0,part_1,,,,,,,,,,,,,yellow,flipped triangle
214.0,3.0,3.0,0.0,1.0,1.0,298.62425790634,4.0,1.0,part_1,,,,,,,,,,,,,cyan,I
51.0,5.0,1.0,1.0,3.0,3.0,286.9614830706268,4.0,1.0,part_1,,,,,,,,,,,,,green,triangle
0.0,1.0,0.0,0.0,2.0,2.0,282.9099929658696,4.0,1.0,part_1,,,,,,,,,,,,,blue,square
41.0,1.0,1.0,0.0,3.0,3.0,343.347315909341,4.0,1.0,part_1,,,,,,,,,,,,,blue,square
62.0,1.0,1.0,0.0,1.0,1.0,438.1008080672472,4.0,1.0,part_1,,,,,,,,,,,,,blue,square
189.0,3.0,3.0,0.0,1.0,1.0,343.6534950742498,4.0,1.0,part_1,,,,,,,,,,,,,cyan,I
422.0,4.0,4.0,0.0,2.0,2.0,307.0514689898118,4.0,1.0,part_1,,,,,,,,,,,,,gray,hexagon
0.0,3.0,0.0,0.0,4.0,4.0,272.9855520883575,4.0,1.0,part_1,,,,,,,,,,,,,cyan,I
52.0,5.0,1.0,1.0,1.0,1.0,230.3904599975794,4.0,1.0,part_1,,,,,,,,,,,,,green,triangle
106.0,2.0,2.0,0.0,2.0,2.0,289.9307500338182,4.0,1.0,part_1,,,,,,,,,,,,,orange,cross
120.0,6.0,2.0,1.0,3.0,3.0,359.9932610522955,4.0,1.0,part_1,,,,,,,,,,,,,magenta,circle
0.0,4.0,0.0,0.0,4.0,4.0,279.0870550088584,4.0,1.0,part_1,,,,,,,,,,,,,gray,hexagon
0.0,7.0,0.0,1.0,1.0,1.0,224.4950680760666,4.0,1.0,part_1,,,,,,,,,,,,,yellow,flipped triangle
417.0,8.0,4.0,1.0,2.0,2.0,269.5518039399758,4.0,1.0,part_1,,,,,,,,,,,,,white,diamond
36.0,5.0,1.0,1.0,4.0,4.0,273.1692889938131,4.0,1.0,part_1,,,,,,,,,,,,,green,triangle
0.0,1.0,0.0,0.0,1.0,1.0,257.4071480194106,4.0,1.0,part_1,,,,,,,,,,,,,blue,square
88.0,6.0,2.0,1.0,4.0,4.0,372.7294729324057,4.0,1.0,part_1,,,,,,,,,,,,,magenta,circle
387.0,8.0,4.0,1.0,1.0,1.0,255.20666397642339,4.0,1.0,part_1,,,,,,,,,,,,,white,diamond
378.0,4.0,4.0,0.0,4.0,4.0,294.3985708989203,4.0,1.0,part_1,,,,,,,,,,,,,gray,hexagon
102.0,6.0,2.0,1.0,1.0,1.0,225.101422984153,4.0,1.0,part_1,,,,,,,,,,,,,magenta,circle
0.0,5.0,0.0,1.0,1.0,1.0,277.5262710638344,4.0,1.0,part_1,,,,,,,,,,,,,green,triangle
91.0,6.0,2.0,1.0,3.0,3.0,297.5608069682494,4.0,1.0,part_1,,,,,,,,,,,,,magenta,circle
409.0,8.0,4.0,1.0,4.0,4.0,318.6430629575625,4.0,1.0,part_1,,,,,,,,,,,,,white,diamond
195.0,3.0,3.0,0.0,4.0,4.0,293.4822710230946,4.0,1.0,part_1,,,,,,,,,,,,,cyan,I
192.0,3.0,3.0,0.0,2.0,2.0,314.1771120717749,4.0,1.0,part_1,,,,,,,,,,,,,cyan,I
118.0,6.0,2.0,1.0,1.0,1.0,205.298304092139,4.0,1.0,part_1,,,,,,,,,,,,,magenta,circle
49.0,5.0,1.0,1.0,1.0,1.0,257.1441089967266,4.0,1.0,part_1,,,,,,,,,,,,,green,triangle
29.0,1.0,1.0,0.0,2.0,2.0,301.7589570954442,4.0,1.0,part_1,,,,,,,,,,,,,blue,square
92.0,6.0,2.0,1.0,3.0,3.0,298.5169870080426,4.0,1.0,part_1,,,,,,,,,,,,,magenta,circle
70.0,5.0,1.0,1.0,3.0,3.0,315.4035839252174,4.0,1.0,part_1,,,,,,,,,,,,,green,triangle
124.0,6.0,2.0,1.0,4.0,4.0,355.8392090490088,4.0,1.0,part_1,,,,,,,,,,,,,magenta,circle
0.0,5.0,0.0,1.0,2.0,2.0,257.2643819730729,4.0,1.0,part_1,,,,,,,,,,,,,green,triangle
375.0,8.0,4.0,1.0,3.0,3.0,270.5757189542055,4.0,1.0,part_1,,,,,,,,,,,,,white,diamond
52.0,5.0,1.0,1.0,2.0,2.0,420.8203200250864,4.0,1.0,part_1,,,,,,,,,,,,,green,triangle
0.0,4.0,0.0,0.0,2.0,2.0,335.8415429247543,4.0,1.0,part_1,,,,,,,,,,,,,gray,hexagon
61.0,1.0,1.0,0.0,4.0,4.0,319.3811241071671,4.0,1.0,part_1,,,,,,,,,,,,,blue,square
92.0,2.0,2.0,0.0,2.0,2.0,298.590725986287,4.0,1.0,part_1,,,,,,,,,,,,,orange,cross
60.0,5.0,1.0,1.0,3.0,3.0,319.3448380334303,4.0,1.0,part_1,,,,,,,,,,,,,green,triangle
0.0,4.0,0.0,0.0,3.0,3.0,347.8891929844394,4.0,1.0,part_1,,,,,,,,,,,,,gray,hexagon
26.0,5.0,1.0,1.0,2.0,2.0,249.863991048187,4.0,1.0,part_1,,,,,,,,,,,,,green,triangle
189.0,7.0,3.0,1.0,1.0,1.0,277.0263740094378,4.0,1.0,part_1,,,,,,,,,,,,,yellow,flipped triangle
0.0,1.0,0.0,0.0,2.0,2.0,282.6662929728627,4.0,1.0,part_1,,,,,,,,,,,,,blue,square
60.0,1.0,1.0,0.0,2.0,2.0,303.2844590488821,4.0,1.0,part_1,,,,,,,,,,,,,blue,square
178.0,3.0,3.0,0.0,2.0,2.0,306.579747935757,4.0,1.0,part_1,,,,,,,,,,,,,cyan,I
55.0,1.0,1.0,0.0,3.0,3.0,310.3184379870072,4.0,1.0,part_1,,,,,,,,,,,,,blue,square
214.0,7.0,3.0,1.0,4.0,4.0,274.2619140772149,4.0,1.0,part_1,,,,,,,,,,,,,yellow,flipped triangle
0.0,6.0,0.0,1.0,4.0,4.0,313.96619300358,4.0,1.0,part_1,,,,,,,,,,,,,magenta,circle
89.0,2.0,2.0,0.0,1.0,1.0,252.59134301450098,4.0,1.0,part_1,,,,,,,,,,,,,orange,cross
91.0,2.0,2.0,0.0,3.0,3.0,281.2307900749147,4.0,1.0,part_1,,,,,,,,,,,,,orange,cross
57.0,5.0,1.0,1.0,1.0,1.0,310.794358025305,4.0,1.0,part_1,,,,,,,,,,,,,green,triangle
47.0,1.0,1.0,0.0,2.0,2.0,373.4326428966597,4.0,1.0,part_1,,,,,,,,,,,,,blue,square
110.0,2.0,2.0,0.0,2.0,2.0,279.1785859735682,4.0,1.0,part_1,,,,,,,,,,,,,orange,cross
67.0,1.0,1.0,0.0,3.0,3.0,319.1927090520039,4.0,1.0,part_1,,,,,,,,,,,,,blue,square
0.0,2.0,0.0,0.0,1.0,1.0,299.7502839425578,4.0,1.0,part_1,,,,,,,,,,,,,orange,cross
32.0,1.0,1.0,0.0,3.0,3.0,445.2026620274409,4.0,1.0,part_1,,,,,,,,,,,,,blue,square
0.0,4.0,0.0,0.0,1.0,1.0,392.9206290049478,4.0,1.0,part_1,,,,,,,,,,,,,gray,hexagon
406.0,4.0,4.0,0.0,4.0,4.0,335.4845329886302,4.0,1.0,part_1,,,,,,,,,,,,,gray,hexagon
27.0,5.0,1.0,1.0,4.0,4.0,362.7434669760987,4.0,1.0,part_1,,,,,,,,,,,,,green,triangle
47.0,1.0,1.0,0.0,3.0,3.0,473.3853809302673,4.0,1.0,part_1,,,,,,,,,,,,,blue,square
398.0,8.0,4.0,1.0,2.0,2.0,302.6537840487435,4.0,1.0,part_1,,,,,,,,,,,,,white,diamond
0.0,3.0,0.0,0.0,1.0,1.0,339.6090440219268,4.0,1.0,part_1,,,,,,,,,,,,,cyan,I
187.0,3.0,3.0,0.0,2.0,2.0,373.1012239586562,4.0,1.0,part_1,,,,,,,,,,,,,cyan,I
46.0,1.0,1.0,0.0,4.0,4.0,306.7397469421848,4.0,1.0,part_1,,,,,,,,,,,,,blue,square
54.0,1.0,1.0,0.0,3.0,3.0,368.4165349695831,4.0,1.0,part_1,,,,,,,,,,,,,blue,square
0.0,3.0,0.0,0.0,2.0,2.0,302.7129420079291,4.0,1.0,part_1,,,,,,,,,,,,,cyan,I
0.0,7.0,0.0,1.0,2.0,2.0,323.6860079923644,4.0,1.0,part_1,,,,,,,,,,,,,yellow,flipped triangle
0.0,6.0,0.0,1.0,1.0,1.0,326.60647889133537,4.0,1.0,part_1,,,,,,,,,,,,,magenta,circle
375.0,4.0,4.0,0.0,4.0,4.0,330.2119929576292,4.0,1.0,part_1,,,,,,,,,,,,,gray,hexagon
0.0,6.0,0.0,1.0,3.0,3.0,350.0262279994786,4.0,1.0,part_1,,,,,,,,,,,,,magenta,circle
84.0,6.0,2.0,1.0,2.0,2.0,322.3593449220061,4.0,1.0,part_1,,,,,,,,,,,,,magenta,circle
110.0,2.0,2.0,0.0,4.0,4.0,416.2489990703761,4.0,1.0,part_1,,,,,,,,,,,,,orange,cross
0.0,7.0,3.0,1.0,5.0,0.0,0.0,1.0,0.0,part_2,stop,250.0,250.0,4.0,,,,,,,,,yellow,flipped triangle
0.0,1.0,1.0,0.0,6.0,6.0,251.99337408412248,1.0,0.0,part_2,go,300.0,250.0,1.0,,,,,,,,,blue,square
0.0,1.0,1.0,0.0,5.0,5.0,227.4482629727572,1.0,0.0,part_2,go,300.0,250.0,1.0,,,,,,,,,blue,square
0.0,7.0,3.0,1.0,5.0,5.0,276.8319209571928,1.0,0.0,part_2,stop,300.0,250.0,3.0,,,,,,,,,yellow,flipped triangle
0.0,4.0,4.0,0.0,6.0,6.0,219.3697170587256,1.0,0.0,part_2,go,250.0,250.0,1.0,,,,,,,,,gray,hexagon
0.0,1.0,1.0,0.0,5.0,5.0,228.1643720343709,1.0,0.0,part_2,go,250.0,250.0,1.0,,,,,,,,,blue,square
0.0,2.0,2.0,0.0,6.0,6.0,370.9112630458548,1.0,0.0,part_2,go,250.0,250.0,1.0,,,,,,,,,orange,cross
0.0,4.0,4.0,0.0,6.0,6.0,347.7026460459456,1.0,0.0,part_2,go,250.0,250.0,1.0,,,,,,,,,gray,hexagon
0.0,2.0,2.0,0.0,5.0,5.0,255.62952097970992,1.0,0.0,part_2,go,250.0,250.0,1.0,,,,,,,,,orange,cross
0.0,8.0,4.0,1.0,6.0,6.0,234.9593719700351,1.0,0.0,part_2,go,250.0,250.0,1.0,,,,,,,,,white,diamond
0.0,4.0,4.0,0.0,5.0,5.0,246.614851988852,1.0,0.0,part_2,go,250.0,250.0,1.0,,,,,,,,,gray,hexagon
0.0,5.0,1.0,1.0,5.0,5.0,312.8643779782578,1.0,0.0,part_2,stop,250.0,250.0,3.0,,,,,,,,,green,triangle
0.0,6.0,2.0,1.0,6.0,6.0,271.9431651057675,1.0,0.0,part_2,stop,200.0,250.0,3.0,,,,,,,,,magenta,circle
0.0,1.0,1.0,0.0,5.0,5.0,214.3891230225563,1.0,0.0,part_2,go,200.0,200.0,1.0,,,,,,,,,blue,square
0.0,8.0,4.0,1.0,5.0,5.0,261.2625620095059,1.0,0.0,part_2,stop,200.0,200.0,3.0,,,,,,,,,white,diamond
0.0,8.0,4.0,1.0,5.0,5.0,268.7836779514327,1.0,0.0,part_2,go,150.0,200.0,1.0,,,,,,,,,white,diamond
0.0,6.0,2.0,1.0,5.0,5.0,251.06687296647578,1.0,0.0,part_2,go,150.0,200.0,1.0,,,,,,,,,magenta,circle
0.0,5.0,1.0,1.0,5.0,5.0,234.2640610877424,1.0,0.0,part_2,stop,150.0,200.0,3.0,,,,,,,,,green,triangle
0.0,7.0,3.0,1.0,6.0,6.0,245.8277629921212,1.0,0.0,part_2,stop,100.0,200.0,3.0,,,,,,,,,yellow,flipped triangle
0.0,6.0,2.0,1.0,5.0,5.0,249.5543040568009,1.0,0.0,part_2,go,100.0,150.0,1.0,,,,,,,,,magenta,circle
0.0,6.0,2.0,1.0,5.0,5.0,250.7137639913708,1.0,0.0,part_2,stop,100.0,150.0,3.0,,,,,,,,,magenta,circle
0.0,1.0,1.0,0.0,5.0,5.0,338.853899971582,1.0,0.0,part_2,go,50.0,150.0,1.0,,,,,,,,,blue,square
0.0,3.0,3.0,0.0,5.0,5.0,258.6692230543121,1.0,0.0,part_2,go,50.0,150.0,1.0,,,,,,,,,cyan,I
0.0,7.0,3.0,1.0,5.0,0.0,0.0,1.0,0.0,part_2,stop,50.0,150.0,4.0,,,,,,,,,yellow,flipped triangle
0.0,5.0,1.0,1.0,5.0,5.0,288.8913889182731,1.0,0.0,part_2,go,100.0,150.0,1.0,,,,,,,,,green,triangle
0.0,2.0,2.0,0.0,5.0,5.0,271.6611219802871,1.0,0.0,part_2,go,100.0,150.0,1.0,,,,,,,,,orange,cross
0.0,3.0,3.0,0.0,5.0,5.0,222.4073989782482,1.0,0.0,part_2,go,100.0,150.0,1.0,,,,,,,,,cyan,I
0.0,5.0,1.0,1.0,5.0,0.0,0.0,1.0,0.0,part_2,stop,100.0,150.0,4.0,,,,,,,,,green,triangle
0.0,3.0,3.0,0.0,6.0,6.0,272.4169649882242,1.0,0.0,part_2,go,150.0,150.0,1.0,,,,,,,,,cyan,I
0.0,4.0,4.0,0.0,6.0,6.0,310.7478159945458,1.0,0.0,part_2,go,150.0,150.0,1.0,,,,,,,,,gray,hexagon
0.0,7.0,3.0,1.0,6.0,6.0,300.1999460393563,1.0,0.0,part_2,stop,150.0,150.0,3.0,,,,,,,,,yellow,flipped triangle
0.0,7.0,3.0,1.0,5.0,0.0,0.0,1.0,0.0,part_2,stop,150.0,100.0,4.0,,,,,,,,,yellow,flipped triangle
0.0,8.0,4.0,1.0,6.0,0.0,0.0,1.0,0.0,part_2,stop,200.0,100.0,4.0,,,,,,,,,white,diamond
0.0,1.0,1.0,0.0,6.0,6.0,389.7832450456917,1.0,0.0,part_2,go,200.0,150.0,1.0,,,,,,,,,blue,square
0.0,5.0,1.0,1.0,6.0,6.0,329.8589750193059,1.0,0.0,part_2,stop,200.0,150.0,3.0,,,,,,,,,green,triangle
0.0,3.0,3.0,0.0,5.0,5.0,395.3936209436506,1.0,0.0,part_2,go,200.0,100.0,1.0,,,,,,,,,cyan,I
0.0,7.0,3.0,1.0,6.0,0.0,0.0,2.0,0.0,part_2,stop,200.0,100.0,4.0,,,,,,,,,yellow,flipped triangle
0.0,4.0,4.0,0.0,6.0,6.0,602.6838090037927,2.0,0.0,part_2,go,200.0,150.0,1.0,,,,,,,,,gray,hexagon
0.0,8.0,4.0,1.0,5.0,0.0,0.0,2.0,0.0,part_2,stop,200.0,150.0,4.0,,,,,,,,,white,diamond
0.0,7.0,3.0,1.0,5.0,5.0,685.793865006417,2.0,0.0,part_2,go,250.0,150.0,1.0,,,,,,,,,yellow,flipped triangle
0.0,3.0,3.0,0.0,6.0,6.0,461.0757899936288,2.0,0.0,part_2,go,250.0,150.0,1.0,,,,,,,,,cyan,I
0.0,5.0,1.0,1.0,5.0,5.0,384.2852870002389,2.0,0.0,part_2,stop,250.0,150.0,3.0,,,,,,,,,green,triangle
0.0,7.0,3.0,1.0,5.0,5.0,384.9388400558382,2.0,0.0,part_2,go,200.0,150.0,1.0,,,,,,,,,yellow,flipped triangle
0.0,5.0,1.0,1.0,5.0,5.0,344.3625139771029,2.0,0.0,part_2,stop,200.0,150.0,3.0,,,,,,,,,green,triangle
0.0,6.0,2.0,1.0,5.0,0.0,0.0,2.0,0.0,part_2,stop,150.0,150.0,4.0,,,,,,,,,magenta,circle
0.0,6.0,2.0,1.0,5.0,0.0,0.0,2.0,0.0,part_2,stop,200.0,150.0,4.0,,,,,,,,,magenta,circle
0.0,1.0,1.0,0.0,5.0,5.0,470.2888720203191,2.0,0.0,part_2,go,250.0,150.0,1.0,,,,,,,,,blue,square
0.0,2.0,2.0,0.0,6.0,6.0,464.7497889818623,2.0,0.0,part_2,go,250.0,150.0,1.0,,,,,,,,,orange,cross
0.0,7.0,3.0,1.0,5.0,0.0,0.0,2.0,0.0,part_2,stop,250.0,150.0,4.0,,,,,,,,,yellow,flipped triangle
0.0,2.0,2.0,0.0,5.0,5.0,333.8934819912538,2.0,0.0,part_2,go,300.0,150.0,1.0,,,,,,,,,orange,cross
0.0,6.0,2.0,1.0,6.0,0.0,0.0,2.0,0.0,part_2,stop,300.0,150.0,4.0,,,,,,,,,magenta,circle
0.0,1.0,1.0,0.0,5.0,5.0,498.7607740331441,2.0,0.0,part_2,go,300.0,200.0,1.0,,,,,,,,,blue,square
0.0,6.0,2.0,1.0,6.0,6.0,717.7281730109826,2.0,0.0,part_2,go,300.0,200.0,1.0,,,,,,,,,magenta,circle
0.0,8.0,4.0,1.0,5.0,5.0,340.7425630139187,2.0,0.0,part_2,go,300.0,200.0,1.0,,,,,,,,,white,diamond
0.0,4.0,4.0,0.0,6.0,6.0,354.0810470003634,2.0,0.0,part_2,go,300.0,200.0,1.0,,,,,,,,,gray,hexagon
0.0,7.0,3.0,1.0,6.0,6.0,361.9037350872531,2.0,0.0,part_2,stop,300.0,200.0,3.0,,,,,,,,,yellow,flipped triangle
0.0,3.0,3.0,0.0,5.0,5.0,465.3064139420166,2.0,0.0,part_2,go,300.0,150.0,1.0,,,,,,,,,cyan,I
0.0,5.0,1.0,1.0,5.0,5.0,386.2723580095917,2.0,0.0,part_2,stop,300.0,150.0,3.0,,,,,,,,,green,triangle
0.0,2.0,2.0,0.0,6.0,6.0,279.7886759508401,2.0,0.0,part_2,go,250.0,150.0,1.0,,,,,,,,,orange,cross
0.0,7.0,3.0,1.0,5.0,0.0,0.0,2.0,0.0,part_2,stop,250.0,150.0,4.0,,,,,,,,,yellow,flipped triangle
0.0,6.0,2.0,1.0,6.0,0.0,0.0,2.0,0.0,part_2,stop,300.0,150.0,4.0,,,,,,,,,magenta,circle
0.0,3.0,3.0,0.0,5.0,5.0,381.6347360843792,2.0,0.0,part_2,go,300.0,200.0,1.0,,,,,,,,,cyan,I
0.0,1.0,1.0,0.0,6.0,6.0,424.5508209569379,2.0,0.0,part_2,go,300.0,200.0,1.0,,,,,,,,,blue,square
0.0,7.0,3.0,1.0,5.0,5.0,568.2219569571316,2.0,0.0,part_2,stop,300.0,200.0,3.0,,,,,,,,,yellow,flipped triangle
0.0,1.0,1.0,0.0,6.0,6.0,613.1963469088078,2.0,0.0,part_2,go,250.0,200.0,1.0,,,,,,,,,blue,square
0.0,7.0,3.0,1.0,6.0,6.0,470.370871014893,2.0,0.0,part_2,go,250.0,200.0,1.0,,,,,,,,,yellow,flipped triangle
0.0,3.0,3.0,0.0,5.0,5.0,462.7781030721962,2.0,0.0,part_2,go,250.0,200.0,1.0,,,,,,,,,cyan,I
0.0,8.0,4.0,1.0,5.0,0.0,0.0,2.0,0.0,part_2,stop,250.0,200.0,4.0,,,,,,,,,white,diamond
0.0,5.0,1.0,1.0,5.0,0.0,0.0,2.0,0.0,part_2,stop,300.0,200.0,4.0,,,,,,,,,green,triangle
0.0,8.0,4.0,1.0,6.0,0.0,0.0,2.0,0.0,part_2,stop,350.0,200.0,4.0,,,,,,,,,white,diamond
0.0,4.0,4.0,0.0,6.0,6.0,396.7177660670131,2.0,0.0,part_2,go,350.0,250.0,1.0,,,,,,,,,gray,hexagon
0.0,5.0,1.0,1.0,5.0,5.0,411.9930650340393,2.0,0.0,part_2,stop,350.0,250.0,3.0,,,,,,,,,green,triangle
0.0,4.0,4.0,0.0,6.0,6.0,789.6699570119381,3.0,0.0,part_2,go,300.0,250.0,1.0,,,,,,,,,gray,hexagon
0.0,4.0,4.0,0.0,5.0,5.0,545.1726609608158,3.0,0.0,part_2,go,300.0,250.0,1.0,,,,,,,,,gray,hexagon
0.0,6.0,2.0,1.0,6.0,6.0,524.8004070017487,3.0,0.0,part_2,go,300.0,250.0,1.0,,,,,,,,,magenta,circle
0.0,2.0,2.0,0.0,6.0,6.0,400.080966996029,3.0,0.0,part_2,go,300.0,250.0,1.0,,,,,,,,,orange,cross
0.0,2.0,2.0,0.0,5.0,5.0,417.1698789577931,3.0,0.0,part_2,go,300.0,250.0,1.0,,,,,,,,,orange,cross
0.0,7.0,3.0,1.0,5.0,5.0,290.9080979879945,3.0,0.0,part_2,stop,300.0,250.0,3.0,,,,,,,,,yellow,flipped triangle
0.0,2.0,2.0,0.0,6.0,6.0,272.770651965402,3.0,0.0,part_2,go,250.0,250.0,1.0,,,,,,,,,orange,cross
0.0,2.0,2.0,0.0,6.0,6.0,301.7790480516851,3.0,0.0,part_2,go,250.0,250.0,1.0,,,,,,,,,orange,cross
0.0,3.0,3.0,0.0,6.0,6.0,302.2408899851143,3.0,0.0,part_2,go,250.0,250.0,1.0,,,,,,,,,cyan,I
0.0,6.0,2.0,1.0,6.0,6.0,351.7792960628867,3.0,0.0,part_2,stop,250.0,250.0,3.0,,,,,,,,,magenta,circle
0.0,1.0,1.0,0.0,5.0,5.0,292.9318799870088,3.0,0.0,part_2,go,250.0,200.0,1.0,,,,,,,,,blue,square
0.0,8.0,4.0,1.0,5.0,5.0,274.3209130130708,3.0,0.0,part_2,stop,250.0,200.0,3.0,,,,,,,,,white,diamond
0.0,5.0,1.0,1.0,6.0,0.0,0.0,3.0,0.0,part_2,stop,200.0,200.0,4.0,,,,,,,,,green,triangle
0.0,4.0,4.0,0.0,6.0,6.0,516.4910309249535,3.0,0.0,part_2,go,200.0,250.0,1.0,,,,,,,,,gray,hexagon
0.0,3.0,3.0,0.0,5.0,5.0,501.91313098184764,3.0,0.0,part_2,go,200.0,250.0,1.0,,,,,,,,,cyan,I
0.0,5.0,1.0,1.0,5.0,5.0,482.1850539883598,3.0,0.0,part_2,go,200.0,250.0,1.0,,,,,,,,,green,triangle
0.0,1.0,1.0,0.0,6.0,6.0,344.4735599914565,3.0,0.0,part_2,go,200.0,250.0,1.0,,,,,,,,,blue,square
0.0,5.0,1.0,1.0,6.0,6.0,392.2210190212354,3.0,0.0,part_2,go,200.0,250.0,1.0,,,,,,,,,green,triangle
0.0,7.0,3.0,1.0,6.0,6.0,287.6356480410322,3.0,0.0,part_2,stop,200.0,250.0,3.0,,,,,,,,,yellow,flipped triangle
0.0,7.0,3.0,1.0,6.0,6.0,280.0074339611456,3.0,0.0,part_2,stop,200.0,200.0,3.0,,,,,,,,,yellow,flipped triangle
0.0,1.0,1.0,0.0,5.0,5.0,319.2452799994498,3.0,0.0,part_2,go,200.0,150.0,1.0,,,,,,,,,blue,square
0.0,4.0,4.0,0.0,6.0,6.0,528.5781190032139,3.0,0.0,part_2,go,200.0,150.0,1.0,,,,,,,,,gray,hexagon
0.0,5.0,1.0,1.0,6.0,0.0,0.0,3.0,0.0,part_2,stop,200.0,150.0,4.0,,,,,,,,,green,triangle
0.0,7.0,3.0,1.0,6.0,0.0,0.0,3.0,0.0,part_2,stop,200.0,200.0,4.0,,,,,,,,,yellow,flipped triangle
0.0,3.0,3.0,0.0,6.0,6.0,517.1745009720325,3.0,0.0,part_2,go,200.0,250.0,1.0,,,,,,,,,cyan,I
0.0,4.0,4.0,0.0,5.0,5.0,495.0576350092888,3.0,0.0,part_2,go,200.0,250.0,1.0,,,,,,,,,gray,hexagon
0.0,8.0,4.0,1.0,5.0,0.0,0.0,3.0,0.0,part_2,stop,200.0,250.0,4.0,,,,,,,,,white,diamond
0.0,1.0,1.0,0.0,6.0,6.0,453.025899012573,3.0,0.0,part_2,go,250.0,250.0,1.0,,,,,,,,,blue,square
0.0,7.0,3.0,1.0,5.0,0.0,0.0,3.0,0.0,part_2,stop,250.0,250.0,4.0,,,,,,,,,yellow,flipped triangle
0.0,8.0,4.0,1.0,6.0,6.0,292.8254149155691,3.0,0.0,part_2,stop,300.0,250.0,3.0,,,,,,,,,white,diamond
0.0,2.0,2.0,0.0,5.0,5.0,381.2903279904276,3.0,0.0,part_2,go,300.0,200.0,1.0,,,,,,,,,orange,cross
0.0,5.0,1.0,1.0,6.0,0.0,0.0,3.0,0.0,part_2,stop,300.0,200.0,4.0,,,,,,,,,green,triangle
0.0,7.0,3.0,1.0,6.0,6.0,465.4335589148104,3.0,0.0,part_2,go,300.0,250.0,1.0,,,,,,,,,yellow,flipped triangle
0.0,6.0,2.0,1.0,5.0,0.0,0.0,3.0,0.0,part_2,stop,300.0,250.0,4.0,,,,,,,,,magenta,circle
0.0,3.0,3.0,0.0,5.0,5.0,496.8460280215367,3.0,0.0,part_2,go,350.0,250.0,1.0,,,,,,,,,cyan,I
0.0,1.0,1.0,0.0,6.0,6.0,463.1492310436442,3.0,0.0,part_2,go,350.0,250.0,1.0,,,,,,,,,blue,square
0.0,3.0,3.0,0.0,6.0,6.0,341.3759839022532,4.0,0.0,part_2,go,350.0,250.0,1.0,,,,,,,,,cyan,I
0.0,2.0,2.0,0.0,6.0,6.0,370.1711900066584,4.0,0.0,part_2,go,350.0,250.0,1.0,,,,,,,,,orange,cross
0.0,3.0,3.0,0.0,5.0,5.0,428.054932039231,4.0,0.0,part_2,go,350.0,250.0,1.0,,,,,,,,,cyan,I
0.0,4.0,4.0,0.0,6.0,6.0,339.3063489347696,4.0,0.0,part_2,go,350.0,250.0,1.0,,,,,,,,,gray,hexagon
0.0,1.0,1.0,0.0,6.0,6.0,329.7811299562454,4.0,0.0,part_2,go,350.0,250.0,1.0,,,,,,,,,blue,square
0.0,8.0,4.0,1.0,6.0,6.0,335.8113660942763,4.0,0.0,part_2,stop,350.0,250.0,3.0,,,,,,,,,white,diamond
0.0,3.0,3.0,0.0,5.0,5.0,414.6620210958645,4.0,0.0,part_2,go,350.0,200.0,1.0,,,,,,,,,cyan,I
0.0,1.0,1.0,0.0,6.0,6.0,255.43870101682842,4.0,0.0,part_2,go,350.0,200.0,1.0,,,,,,,,,blue,square
0.0,4.0,4.0,0.0,6.0,6.0,341.6447310009971,4.0,0.0,part_2,go,350.0,200.0,1.0,,,,,,,,,gray,hexagon
0.0,3.0,3.0,0.0,5.0,5.0,401.1850979877636,4.0,0.0,part_2,go,350.0,200.0,1.0,,,,,,,,,cyan,I
0.0,1.0,1.0,0.0,5.0,5.0,390.6006440520286,4.0,0.0,part_2,go,350.0,200.0,1.0,,,,,,,,,blue,square
0.0,1.0,1.0,0.0,5.0,5.0,367.1288890764117,4.0,0.0,part_2,go,350.0,200.0,1.0,,,,,,,,,blue,square
0.0,5.0,1.0,1.0,6.0,0.0,0.0,4.0,0.0,part_2,stop,350.0,200.0,4.0,,,,,,,,,green,triangle
0.0,8.0,4.0,1.0,6.0,6.0,325.7147659314796,4.0,0.0,part_2,stop,350.0,250.0,3.0,,,,,,,,,white,diamond
0.0,8.0,4.0,1.0,5.0,0.0,0.0,4.0,0.0,part_2,stop,350.0,200.0,4.0,,,,,,,,,white,diamond
0.0,5.0,1.0,1.0,6.0,6.0,476.928855990991,4.0,0.0,part_2,go,400.0,200.0,1.0,,,,,,,,,green,triangle
0.0,6.0,2.0,1.0,6.0,0.0,0.0,4.0,0.0,part_2,stop,400.0,200.0,4.0,,,,,,,,,magenta,circle
0.0,8.0,4.0,1.0,5.0,5.0,497.4117010133341,4.0,0.0,part_2,stop,400.0,250.0,3.0,,,,,,,,,white,diamond
0.0,6.0,2.0,1.0,5.0,5.0,920.1231750193984,4.0,0.0,part_2,go,350.0,250.0,1.0,,,,,,,,,magenta,circle
0.0,1.0,1.0,0.0,5.0,5.0,392.3486499115824,4.0,0.0,part_2,go,350.0,250.0,1.0,,,,,,,,,blue,square
0.0,2.0,2.0,0.0,6.0,6.0,510.5735589750111,4.0,0.0,part_2,go,350.0,250.0,1.0,,,,,,,,,orange,cross
0.0,3.0,3.0,0.0,5.0,5.0,390.8716860460117,4.0,0.0,part_2,go,350.0,250.0,1.0,,,,,,,,,cyan,I
0.0,4.0,4.0,0.0,5.0,5.0,297.2185079706833,4.0,0.0,part_2,go,350.0,250.0,1.0,,,,,,,,,gray,hexagon
0.0,7.0,3.0,1.0,6.0,6.0,231.6904279869049,4.0,0.0,part_2,stop,350.0,250.0,3.0,,,,,,,,,yellow,flipped triangle
0.0,8.0,4.0,1.0,5.0,5.0,455.8016950031742,4.0,0.0,part_2,stop,350.0,200.0,3.0,,,,,,,,,white,diamond
0.0,8.0,4.0,1.0,6.0,6.0,454.2546129086986,4.0,0.0,part_2,go,300.0,200.0,1.0,,,,,,,,,white,diamond
0.0,2.0,2.0,0.0,6.0,6.0,483.2778309937566,4.0,0.0,part_2,go,300.0,200.0,1.0,,,,,,,,,orange,cross
0.0,8.0,4.0,1.0,5.0,0.0,0.0,4.0,0.0,part_2,stop,300.0,200.0,4.0,,,,,,,,,white,diamond
0.0,1.0,1.0,0.0,5.0,5.0,498.2804519822821,4.0,0.0,part_2,go,350.0,200.0,1.0,,,,,,,,,blue,square
0.0,8.0,4.0,1.0,6.0,6.0,530.6566039798781,4.0,0.0,part_2,go,350.0,200.0,1.0,,,,,,,,,white,diamond
0.0,1.0,1.0,0.0,6.0,6.0,483.4774709306657,4.0,0.0,part_2,go,350.0,200.0,1.0,,,,,,,,,blue,square
0.0,7.0,3.0,1.0,6.0,0.0,0.0,4.0,0.0,part_2,stop,350.0,200.0,4.0,,,,,,,,,yellow,flipped triangle
0.0,5.0,1.0,1.0,6.0,6.0,556.205076049082,4.0,0.0,part_2,go,350.0,250.0,1.0,,,,,,,,,green,triangle
0.0,3.0,3.0,0.0,5.0,5.0,631.8054309813306,4.0,0.0,part_2,go,350.0,250.0,1.0,,,,,,,,,cyan,I
0.0,2.0,2.0,0.0,6.0,6.0,322.7137200301513,4.0,0.0,part_2,go,350.0,250.0,1.0,,,,,,,,,orange,cross
0.0,7.0,3.0,1.0,5.0,5.0,448.9164630649611,4.0,0.0,part_2,stop,350.0,250.0,3.0,,,,,,,,,yellow,flipped triangle
0.0,6.0,2.0,1.0,6.0,6.0,354.8061429755762,5.0,0.0,part_2,stop,300.0,250.0,3.0,,,,,,,,,magenta,circle
0.0,4.0,4.0,0.0,5.0,5.0,587.6104619819671,5.0,0.0,part_2,go,300.0,200.0,1.0,,,,,,,,,gray,hexagon
0.0,6.0,2.0,1.0,5.0,5.0,292.0074959984049,5.0,0.0,part_2,stop,300.0,200.0,3.0,,,,,,,,,magenta,circle
0.0,2.0,2.0,0.0,6.0,6.0,425.3115570172667,5.0,0.0,part_2,go,250.0,200.0,1.0,,,,,,,,,orange,cross
0.0,1.0,1.0,0.0,6.0,6.0,327.1581239532679,5.0,0.0,part_2,go,250.0,200.0,1.0,,,,,,,,,blue,square
0.0,8.0,4.0,1.0,6.0,6.0,301.7149210209027,5.0,0.0,part_2,stop,250.0,200.0,3.0,,,,,,,,,white,diamond
0.0,7.0,3.0,1.0,6.0,0.0,0.0,5.0,0.0,part_2,stop,250.0,150.0,4.0,,,,,,,,,yellow,flipped triangle
0.0,4.0,4.0,0.0,5.0,5.0,413.4833139833063,5.0,0.0,part_2,go,250.0,200.0,1.0,,,,,,,,,gray,hexagon
0.0,6.0,2.0,1.0,6.0,6.0,493.7769949901849,5.0,0.0,part_2,go,250.0,200.0,1.0,,,,,,,,,magenta,circle
0.0,2.0,2.0,0.0,5.0,5.0,357.6092140283435,5.0,0.0,part_2,go,250.0,200.0,1.0,,,,,,,,,orange,cross
0.0,4.0,4.0,0.0,5.0,5.0,355.6438509840518,5.0,0.0,part_2,go,250.0,200.0,1.0,,,,,,,,,gray,hexagon
0.0,5.0,1.0,1.0,5.0,5.0,380.6046299869194,5.0,0.0,part_2,go,250.0,200.0,1.0,,,,,,,,,green,triangle
0.0,3.0,3.0,0.0,6.0,6.0,450.7225638953969,5.0,0.0,part_2,go,250.0,200.0,1.0,,,,,,,,,cyan,I
0.0,2.0,2.0,0.0,5.0,5.0,421.77789891138667,5.0,0.0,part_2,go,250.0,200.0,1.0,,,,,,,,,orange,cross
0.0,2.0,2.0,0.0,5.0,5.0,404.540934949182,5.0,0.0,part_2,go,250.0,200.0,1.0,,,,,,,,,orange,cross
0.0,2.0,2.0,0.0,5.0,5.0,376.8499389989301,5.0,0.0,part_2,go,250.0,200.0,1.0,,,,,,,,,orange,cross
0.0,8.0,4.0,1.0,6.0,0.0,0.0,5.0,0.0,part_2,stop,250.0,200.0,4.0,,,,,,,,,white,diamond
0.0,1.0,1.0,0.0,6.0,6.0,465.8343320479616,5.0,0.0,part_2,go,250.0,250.0,1.0,,,,,,,,,blue,square
0.0,8.0,4.0,1.0,5.0,0.0,0.0,5.0,0.0,part_2,stop,250.0,250.0,4.0,,,,,,,,,white,diamond
0.0,6.0,2.0,1.0,5.0,0.0,0.0,5.0,0.0,part_2,stop,300.0,250.0,4.0,,,,,,,,,magenta,circle
0.0,2.0,2.0,0.0,5.0,5.0,655.8350030099973,5.0,0.0,part_2,go,350.0,250.0,1.0,,,,,,,,,orange,cross
0.0,5.0,1.0,1.0,6.0,0.0,0.0,5.0,0.0,part_2,stop,350.0,250.0,4.0,,,,,,,,,green,triangle
0.0,4.0,4.0,0.0,6.0,6.0,519.8953170329332,5.0,0.0,part_2,go,350.0,300.0,1.0,,,,,,,,,gray,hexagon
0.0,1.0,1.0,0.0,6.0,6.0,549.5668000075966,5.0,0.0,part_2,go,350.0,300.0,1.0,,,,,,,,,blue,square
0.0,4.0,4.0,0.0,6.0,6.0,500.35855104215443,5.0,0.0,part_2,go,350.0,300.0,1.0,,,,,,,,,gray,hexagon
0.0,3.0,3.0,0.0,6.0,6.0,499.06922201625997,5.0,0.0,part_2,go,350.0,300.0,1.0,,,,,,,,,cyan,I
0.0,5.0,1.0,1.0,6.0,6.0,366.7453090893104,5.0,0.0,part_2,stop,350.0,300.0,3.0,,,,,,,,,green,triangle
0.0,8.0,4.0,1.0,6.0,6.0,309.3750530388206,5.0,0.0,part_2,stop,350.0,250.0,3.0,,,,,,,,,white,diamond
0.0,4.0,4.0,0.0,6.0,6.0,500.32228499185294,5.0,0.0,part_2,go,350.0,200.0,1.0,,,,,,,,,gray,hexagon
0.0,3.0,3.0,0.0,6.0,6.0,464.651798014529,5.0,0.0,part_2,go,350.0,200.0,1.0,,,,,,,,,cyan,I
0.0,8.0,4.0,1.0,6.0,0.0,0.0,5.0,0.0,part_2,stop,350.0,200.0,4.0,,,,,,,,,white,diamond
0.0,8.0,4.0,1.0,5.0,0.0,0.0,5.0,0.0,part_2,stop,350.0,250.0,4.0,,,,,,,,,white,diamond
0.0,1.0,1.0,0.0,5.0,5.0,543.6997290235013,5.0,0.0,part_2,go,400.0,250.0,1.0,,,,,,,,,blue,square
0.0,5.0,1.0,1.0,6.0,0.0,0.0,5.0,0.0,part_2,stop,400.0,250.0,4.0,,,,,,,,,green,triangle
0.0,3.0,3.0,0.0,6.0,6.0,359.1221969109028,5.0,0.0,part_2,go,400.0,300.0,1.0,,,,,,,,,cyan,I
0.0,2.0,2.0,0.0,5.0,5.0,560.6765879783779,5.0,0.0,part_2,go,400.0,300.0,1.0,,,,,,,,,orange,cross
0.0,1.0,1.0,0.0,6.0,6.0,387.6765900058672,6.0,0.0,part_2,go,400.0,300.0,1.0,,,,,,,,,blue,square
0.0,7.0,3.0,1.0,5.0,5.0,466.0220469813794,6.0,0.0,part_2,stop,400.0,300.0,3.0,,,,,,,,,yellow,flipped triangle
0.0,3.0,3.0,0.0,5.0,5.0,291.7419809382409,6.0,0.0,part_2,go,350.0,300.0,1.0,,,,,,,,,cyan,I
0.0,3.0,3.0,0.0,6.0,6.0,272.31622103136027,6.0,0.0,part_2,go,350.0,300.0,1.0,,,,,,,,,cyan,I
0.0,4.0,4.0,0.0,5.0,5.0,289.5098789595067,6.0,0.0,part_2,go,350.0,300.0,1.0,,,,,,,,,gray,hexagon
0.0,8.0,4.0,1.0,5.0,5.0,297.9670810746029,6.0,0.0,part_2,stop,350.0,300.0,3.0,,,,,,,,,white,diamond
0.0,2.0,2.0,0.0,6.0,6.0,352.2614900721237,6.0,0.0,part_2,go,300.0,300.0,1.0,,,,,,,,,orange,cross
0.0,6.0,2.0,1.0,6.0,6.0,327.4172480450943,6.0,0.0,part_2,stop,300.0,300.0,3.0,,,,,,,,,magenta,circle
0.0,5.0,1.0,1.0,6.0,0.0,0.0,6.0,0.0,part_2,go,300.0,250.0,5.0,,,,,,,,,green,triangle
0.0,1.0,1.0,0.0,6.0,6.0,420.972062041983,6.0,0.0,part_2,go,300.0,250.0,1.0,,,,,,,,,blue,square
0.0,8.0,4.0,1.0,6.0,6.0,509.809204027988,6.0,0.0,part_2,go,300.0,250.0,1.0,,,,,,,,,white,diamond
0.0,7.0,3.0,1.0,6.0,6.0,389.3160300794989,6.0,0.0,part_2,stop,300.0,250.0,3.0,,,,,,,,,yellow,flipped triangle
0.0,3.0,3.0,0.0,6.0,6.0,290.8345570322126,6.0,0.0,part_2,go,300.0,200.0,1.0,,,,,,,,,cyan,I
0.0,3.0,3.0,0.0,6.0,6.0,316.75706198439,6.0,0.0,part_2,go,300.0,200.0,1.0,,,,,,,,,cyan,I
0.0,4.0,4.0,0.0,5.0,5.0,453.2017930177971,6.0,0.0,part_2,go,300.0,200.0,1.0,,,,,,,,,gray,hexagon
0.0,6.0,2.0,1.0,5.0,0.0,0.0,6.0,0.0,part_2,stop,300.0,200.0,4.0,,,,,,,,,magenta,circle
0.0,4.0,4.0,0.0,6.0,6.0,339.5144650712609,6.0,0.0,part_2,go,350.0,200.0,1.0,,,,,,,,,gray,hexagon
0.0,3.0,3.0,0.0,6.0,6.0,305.1635009469464,6.0,0.0,part_2,go,350.0,200.0,1.0,,,,,,,,,cyan,I
0.0,4.0,4.0,0.0,5.0,5.0,423.9088140893727,6.0,0.0,part_2,go,350.0,200.0,1.0,,,,,,,,,gray,hexagon
0.0,4.0,4.0,0.0,5.0,5.0,283.0270300619304,6.0,0.0,part_2,go,350.0,200.0,1.0,,,,,,,,,gray,hexagon
0.0,5.0,1.0,1.0,6.0,6.0,281.240671989508,6.0,0.0,part_2,stop,350.0,200.0,3.0,,,,,,,,,green,triangle
0.0,1.0,1.0,0.0,5.0,5.0,413.9766739681363,6.0,0.0,part_2,go,350.0,150.0,1.0,,,,,,,,,blue,square
0.0,4.0,4.0,0.0,5.0,5.0,583.5642650490627,6.0,0.0,part_2,go,350.0,150.0,1.0,,,,,,,,,gray,hexagon
0.0,7.0,3.0,1.0,6.0,6.0,589.4389859167859,6.0,0.0,part_2,go,350.0,150.0,1.0,,,,,,,,,yellow,flipped triangle
0.0,4.0,4.0,0.0,5.0,5.0,534.8502449924126,6.0,0.0,part_2,go,350.0,150.0,1.0,,,,,,,,,gray,hexagon
0.0,6.0,2.0,1.0,6.0,0.0,0.0,6.0,0.0,part_2,stop,350.0,150.0,4.0,,,,,,,,,magenta,circle
0.0,2.0,2.0,0.0,5.0,5.0,587.4034709995613,6.0,0.0,part_2,go,350.0,200.0,1.0,,,,,,,,,orange,cross
0.0,7.0,3.0,1.0,6.0,6.0,709.1459949733689,6.0,0.0,part_2,go,350.0,200.0,1.0,,,,,,,,,yellow,flipped triangle
0.0,7.0,3.0,1.0,6.0,6.0,404.5877389144152,6.0,0.0,part_2,go,350.0,200.0,1.0,,,,,,,,,yellow,flipped triangle
0.0,7.0,3.0,1.0,5.0,5.0,427.8024210361764,6.0,0.0,part_2,stop,350.0,200.0,3.0,,,,,,,,,yellow,flipped triangle
0.0,6.0,2.0,1.0,6.0,0.0,0.0,6.0,0.0,part_2,stop,300.0,200.0,4.0,,,,,,,,,magenta,circle
0.0,7.0,3.0,1.0,5.0,5.0,508.1116099609062,6.0,0.0,part_2,go,300.0,250.0,1.0,,,,,,,,,yellow,flipped triangle
0.0,1.0,1.0,0.0,6.0,6.0,595.0691000325605,6.0,0.0,part_2,go,300.0,250.0,1.0,,,,,,,,,blue,square
0.0,3.0,3.0,0.0,6.0,6.0,487.4421949498355,6.0,0.0,part_2,go,300.0,250.0,1.0,,,,,,,,,cyan,I
0.0,5.0,1.0,1.0,6.0,0.0,0.0,6.0,0.0,part_2,stop,300.0,250.0,4.0,,,,,,,,,green,triangle
0.0,3.0,3.0,0.0,5.0,5.0,607.3786600027233,6.0,0.0,part_2,go,300.0,300.0,1.0,,,,,,,,,cyan,I
0.0,4.0,4.0,0.0,6.0,6.0,618.3072970015928,7.0,0.0,part_2,go,300.0,300.0,1.0,,,,,,,,,gray,hexagon
0.0,3.0,3.0,0.0,5.0,5.0,474.7028480051085,7.0,0.0,part_2,go,300.0,300.0,1.0,,,,,,,,,cyan,I
0.0,5.0,1.0,1.0,5.0,5.0,373.9685129839927,7.0,0.0,part_2,go,300.0,300.0,1.0,,,,,,,,,green,triangle
0.0,8.0,4.0,1.0,5.0,5.0,439.258860074915,7.0,0.0,part_2,go,300.0,300.0,1.0,,,,,,,,,white,diamond
0.0,6.0,2.0,1.0,6.0,0.0,0.0,7.0,0.0,part_2,stop,300.0,300.0,4.0,,,,,,,,,magenta,circle
0.0,8.0,4.0,1.0,6.0,0.0,0.0,7.0,0.0,part_2,stop,300.0,350.0,4.0,,,,,,,,,white,diamond
0.0,2.0,2.0,0.0,5.0,5.0,646.2878989987075,7.0,0.0,part_2,go,300.0,400.0,1.0,,,,,,,,,orange,cross
0.0,1.0,1.0,0.0,6.0,6.0,686.2754280446097,7.0,0.0,part_2,go,300.0,400.0,1.0,,,,,,,,,blue,square
0.0,2.0,2.0,0.0,5.0,5.0,636.636553099379,7.0,0.0,part_2,go,300.0,400.0,1.0,,,,,,,,,orange,cross
0.0,6.0,2.0,1.0,5.0,0.0,0.0,7.0,0.0,part_2,stop,300.0,400.0,4.0,,,,,,,,,magenta,circle
0.0,1.0,1.0,0.0,5.0,5.0,659.4094950705767,7.0,0.0,part_2,go,350.0,400.0,1.0,,,,,,,,,blue,square
0.0,8.0,4.0,1.0,6.0,0.0,0.0,7.0,0.0,part_2,stop,350.0,400.0,4.0,,,,,,,,,white,diamond
0.0,3.0,3.0,0.0,6.0,6.0,675.383425084874,7.0,0.0,part_2,go,350.0,450.0,1.0,,,,,,,,,cyan,I
0.0,2.0,2.0,0.0,6.0,6.0,696.3247519452125,7.0,0.0,part_2,go,350.0,450.0,1.0,,,,,,,,,orange,cross
0.0,2.0,2.0,0.0,6.0,6.0,657.3329549282789,7.0,0.0,part_2,go,350.0,450.0,1.0,,,,,,,,,orange,cross
0.0,1.0,1.0,0.0,5.0,5.0,752.9523241100833,7.0,0.0,part_2,go,350.0,450.0,1.0,,,,,,,,,blue,square
0.0,7.0,3.0,1.0,5.0,5.0,770.5986280925572,7.0,0.0,part_2,go,350.0,450.0,1.0,,,,,,,,,yellow,flipped triangle
0.0,3.0,3.0,0.0,6.0,6.0,642.0096619985998,7.0,0.0,part_2,go,350.0,450.0,1.0,,,,,,,,,cyan,I
0.0,1.0,1.0,0.0,5.0,5.0,745.3384130494669,7.0,0.0,part_2,go,350.0,450.0,1.0,,,,,,,,,blue,square
0.0,5.0,1.0,1.0,5.0,0.0,0.0,7.0,0.0,part_2,stop,350.0,450.0,4.0,,,,,,,,,green,triangle
0.0,4.0,4.0,0.0,5.0,5.0,511.0458249691874,7.0,0.0,part_2,go,400.0,450.0,1.0,,,,,,,,,gray,hexagon
0.0,7.0,3.0,1.0,6.0,0.0,0.0,7.0,0.0,part_2,stop,400.0,450.0,4.0,,,,,,,,,yellow,flipped triangle
0.0,4.0,4.0,0.0,6.0,6.0,611.4310030825436,7.0,0.0,part_2,go,400.0,500.0,1.0,,,,,,,,,gray,hexagon
0.0,5.0,1.0,1.0,5.0,0.0,0.0,7.0,0.0,part_2,stop,400.0,500.0,4.0,,,,,,,,,green,triangle
0.0,1.0,1.0,0.0,5.0,5.0,738.4517870377749,7.0,0.0,part_2,go,450.0,500.0,1.0,,,,,,,,,blue,square
0.0,2.0,2.0,0.0,5.0,5.0,676.5770190395415,7.0,0.0,part_2,go,450.0,500.0,1.0,,,,,,,,,orange,cross
0.0,8.0,4.0,1.0,5.0,5.0,660.8940049773082,7.0,0.0,part_2,go,450.0,500.0,1.0,,,,,,,,,white,diamond
0.0,8.0,4.0,1.0,6.0,0.0,0.0,7.0,0.0,part_2,stop,450.0,500.0,4.0,,,,,,,,,white,diamond
0.0,3.0,3.0,0.0,5.0,5.0,483.8158530183136,7.0,0.0,part_2,go,450.0,550.0,1.0,,,,,,,,,cyan,I
0.0,6.0,2.0,1.0,6.0,6.0,617.7406549686566,7.0,0.0,part_2,stop,450.0,550.0,3.0,,,,,,,,,magenta,circle
0.0,5.0,1.0,1.0,6.0,6.0,649.7713970020413,7.0,0.0,part_2,go,450.0,500.0,1.0,,,,,,,,,green,triangle
0.0,8.0,4.0,1.0,6.0,6.0,523.503034026362,7.0,0.0,part_2,stop,450.0,500.0,3.0,,,,,,,,,white,diamond
0.0,6.0,2.0,1.0,6.0,6.0,512.6009290106595,7.0,0.0,part_2,stop,450.0,450.0,3.0,,,,,,,,,magenta,circle
0.0,5.0,1.0,1.0,5.0,5.0,500.67870295606554,7.0,0.0,part_2,stop,450.0,400.0,3.0,,,,,,,,,green,triangle
0.0,2.0,2.0,0.0,5.0,5.0,509.1379840159789,7.0,0.0,part_2,go,400.0,400.0,1.0,,,,,,,,,orange,cross
0.0,2.0,2.0,0.0,6.0,6.0,502.05570191610605,7.0,0.0,part_2,go,400.0,400.0,1.0,,,,,,,,,orange,cross
0.0,6.0,2.0,1.0,5.0,5.0,510.6088320026174,8.0,0.0,part_2,stop,400.0,400.0,3.0,,,,,,,,,magenta,circle
0.0,4.0,4.0,0.0,5.0,5.0,491.6056590154767,8.0,0.0,part_2,go,350.0,400.0,1.0,,,,,,,,,gray,hexagon
0.0,5.0,1.0,1.0,6.0,6.0,565.4535159701481,8.0,0.0,part_2,stop,350.0,400.0,3.0,,,,,,,,,green,triangle
0.0,6.0,2.0,1.0,6.0,0.0,0.0,8.0,0.0,part_2,stop,350.0,350.0,4.0,,,,,,,,,magenta,circle
0.0,8.0,4.0,1.0,5.0,0.0,0.0,8.0,0.0,part_2,stop,350.0,400.0,4.0,,,,,,,,,white,diamond
0.0,3.0,3.0,0.0,5.0,5.0,522.3507429473102,8.0,0.0,part_2,go,400.0,400.0,1.0,,,,,,,,,cyan,I
0.0,2.0,2.0,0.0,6.0,6.0,609.6483200090006,8.0,0.0,part_2,go,400.0,400.0,1.0,,,,,,,,,orange,cross
0.0,6.0,2.0,1.0,5.0,5.0,699.8519250191748,8.0,0.0,part_2,go,400.0,400.0,1.0,,,,,,,,,magenta,circle
0.0,6.0,2.0,1.0,6.0,0.0,0.0,8.0,0.0,part_2,stop,400.0,400.0,4.0,,,,,,,,,magenta,circle
0.0,6.0,2.0,1.0,5.0,5.0,496.9504789914936,8.0,0.0,part_2,stop,400.0,450.0,3.0,,,,,,,,,magenta,circle
0.0,3.0,3.0,0.0,6.0,6.0,528.6000079941005,8.0,0.0,part_2,go,350.0,450.0,1.0,,,,,,,,,cyan,I
0.0,4.0,4.0,0.0,6.0,6.0,383.4158180980012,8.0,0.0,part_2,go,350.0,450.0,1.0,,,,,,,,,gray,hexagon
0.0,1.0,1.0,0.0,6.0,6.0,447.3061510361731,8.0,0.0,part_2,go,350.0,450.0,1.0,,,,,,,,,blue,square
0.0,5.0,1.0,1.0,6.0,6.0,543.9983230317011,8.0,0.0,part_2,stop,350.0,450.0,3.0,,,,,,,,,green,triangle
0.0,8.0,4.0,1.0,6.0,6.0,494.8785080341622,8.0,0.0,part_2,stop,350.0,400.0,3.0,,,,,,,,,white,diamond
0.0,3.0,3.0,0.0,6.0,6.0,655.430193990469,8.0,0.0,part_2,go,350.0,350.0,1.0,,,,,,,,,cyan,I
0.0,6.0,2.0,1.0,5.0,0.0,0.0,8.0,0.0,part_2,stop,350.0,350.0,4.0,,,,,,,,,magenta,circle
0.0,6.0,2.0,1.0,5.0,5.0,779.0383469546214,8.0,0.0,part_2,go,400.0,350.0,1.0,,,,,,,,,magenta,circle
0.0,7.0,3.0,1.0,6.0,0.0,0.0,8.0,0.0,part_2,stop,400.0,350.0,4.0,,,,,,,,,yellow,flipped triangle
0.0,6.0,2.0,1.0,5.0,5.0,572.8969000047073,8.0,0.0,part_2,go,400.0,400.0,1.0,,,,,,,,,magenta,circle
0.0,4.0,4.0,0.0,5.0,5.0,506.54521700926125,8.0,0.0,part_2,go,400.0,400.0,1.0,,,,,,,,,gray,hexagon
0.0,7.0,3.0,1.0,5.0,5.0,498.9798200549558,8.0,0.0,part_2,stop,400.0,400.0,3.0,,,,,,,,,yellow,flipped triangle
0.0,2.0,2.0,0.0,6.0,6.0,527.929539908655,8.0,0.0,part_2,go,350.0,400.0,1.0,,,,,,,,,orange,cross
0.0,6.0,2.0,1.0,6.0,0.0,0.0,8.0,0.0,part_2,stop,350.0,400.0,4.0,,,,,,,,,magenta,circle
0.0,6.0,2.0,1.0,5.0,0.0,0.0,8.0,0.0,part_2,stop,350.0,450.0,4.0,,,,,,,,,magenta,circle
0.0,5.0,1.0,1.0,5.0,0.0,0.0,8.0,0.0,part_2,stop,400.0,450.0,4.0,,,,,,,,,green,triangle
0.0,2.0,2.0,0.0,5.0,5.0,593.3547209715471,8.0,0.0,part_2,go,450.0,450.0,1.0,,,,,,,,,orange,cross
0.0,5.0,1.0,1.0,5.0,5.0,581.9124690024182,8.0,0.0,part_2,stop,450.0,450.0,3.0,,,,,,,,,green,triangle
0.0,5.0,1.0,1.0,5.0,0.0,0.0,8.0,0.0,part_2,stop,400.0,450.0,4.0,,,,,,,,,green,triangle
0.0,8.0,4.0,1.0,5.0,5.0,542.5246480153874,8.0,0.0,part_2,go,450.0,450.0,1.0,,,,,,,,,white,diamond
0.0,4.0,4.0,0.0,5.0,5.0,552.2510709706694,8.0,0.0,part_2,go,450.0,450.0,1.0,,,,,,,,,gray,hexagon
0.0,2.0,2.0,0.0,6.0,6.0,595.806406927295,8.0,0.0,part_2,go,450.0,450.0,1.0,,,,,,,,,orange,cross
0.0,4.0,4.0,0.0,5.0,5.0,531.575332977809,8.0,0.0,part_2,go,450.0,450.0,1.0,,,,,,,,,gray,hexagon
0.0,2.0,2.0,0.0,5.0,5.0,437.8364640288055,8.0,0.0,part_2,go,450.0,450.0,1.0,,,,,,,,,orange,cross
0.0,5.0,1.0,1.0,6.0,0.0,0.0,8.0,0.0,part_2,stop,450.0,450.0,4.0,,,,,,,,,green,triangle
0.0,7.0,3.0,1.0,5.0,0.0,0.0,8.0,0.0,part_2,stop,450.0,500.0,4.0,,,,,,,,,yellow,flipped triangle
0.0,6.0,2.0,1.0,7.0,3.0,623.4031160129234,1.0,1.0,part_3,go,0.0,0.0,0.0,132.0,3.0,220.0,44.0,132.0,264.0,176.0,88.0,magenta,circle
0.0,2.0,2.0,0.0,7.0,2.0,4430.856265942566,1.0,1.0,part_3,go,0.0,0.0,0.0,44.0,1.0,176.0,44.0,220.0,88.0,264.0,132.0,orange,cross
0.0,3.0,3.0,0.0,7.0,5.0,1745.374810998328,1.0,2.0,part_3,go,0.0,0.0,0.0,39.0,1.0,78.0,117.0,234.0,156.0,39.0,195.0,cyan,I
0.0,7.0,3.0,1.0,7.0,1.0,3210.0869689602405,1.0,1.0,part_3,go,0.0,0.0,0.0,245.0,5.0,245.0,196.0,98.0,49.0,147.0,294.0,yellow,flipped triangle
0.0,8.0,4.0,1.0,7.0,3.0,3842.4439049558714,1.0,1.0,part_3,go,0.0,0.0,0.0,54.0,1.0,162.0,270.0,54.0,216.0,324.0,108.0,white,diamond
0.0,8.0,4.0,1.0,7.0,3.0,1492.8265400230885,1.0,1.0,part_3,go,0.0,0.0,0.0,54.0,1.0,216.0,270.0,54.0,162.0,324.0,108.0,white,diamond
0.0,7.0,3.0,1.0,7.0,4.0,3887.0942359790206,1.0,1.0,part_3,go,0.0,0.0,0.0,136.0,4.0,102.0,170.0,204.0,136.0,68.0,34.0,yellow,flipped triangle
0.0,5.0,1.0,1.0,7.0,3.0,1837.3707010177895,1.0,1.0,part_3,go,0.0,0.0,0.0,234.0,6.0,195.0,78.0,234.0,117.0,156.0,39.0,green,triangle
0.0,6.0,2.0,1.0,7.0,6.0,2614.9561560014263,1.0,1.0,part_3,go,0.0,0.0,0.0,108.0,2.0,324.0,54.0,162.0,270.0,216.0,108.0,magenta,circle
0.0,7.0,3.0,1.0,7.0,5.0,2810.498532024212,1.0,1.0,part_3,go,0.0,0.0,0.0,195.0,5.0,117.0,156.0,39.0,234.0,195.0,78.0,yellow,flipped triangle
0.0,4.0,4.0,0.0,7.0,1.0,2459.096422069706,1.0,1.0,part_3,go,0.0,0.0,0.0,54.0,1.0,54.0,162.0,216.0,324.0,108.0,270.0,gray,hexagon
0.0,8.0,4.0,1.0,7.0,3.0,2196.981896995567,1.0,1.0,part_3,go,0.0,0.0,0.0,102.0,3.0,34.0,136.0,102.0,68.0,204.0,170.0,white,diamond
0.0,1.0,1.0,0.0,7.0,1.0,2382.3755049379542,1.0,1.0,part_3,go,0.0,0.0,0.0,264.0,6.0,264.0,44.0,220.0,176.0,132.0,88.0,blue,square
0.0,3.0,3.0,0.0,7.0,2.0,3740.5218449421222,1.0,1.0,part_3,go,0.0,0.0,0.0,196.0,4.0,147.0,196.0,245.0,98.0,294.0,49.0,cyan,I
0.0,5.0,1.0,1.0,7.0,3.0,1320.4084129538387,1.0,1.0,part_3,go,0.0,0.0,0.0,78.0,2.0,156.0,195.0,78.0,234.0,117.0,39.0,green,triangle
0.0,6.0,2.0,1.0,7.0,6.0,1912.4699629610404,1.0,1.0,part_3,go,0.0,0.0,0.0,270.0,5.0,216.0,108.0,54.0,162.0,324.0,270.0,magenta,circle
0.0,1.0,1.0,0.0,7.0,2.0,1753.3794339979067,1.0,1.0,part_3,go,0.0,0.0,0.0,117.0,3.0,78.0,117.0,234.0,195.0,39.0,156.0,blue,square
0.0,8.0,4.0,1.0,7.0,3.0,2171.220532967709,1.0,1.0,part_3,go,0.0,0.0,0.0,78.0,2.0,117.0,234.0,78.0,39.0,195.0,156.0,white,diamond
0.0,6.0,2.0,1.0,7.0,5.0,2870.7479890435934,1.0,1.0,part_3,go,0.0,0.0,0.0,34.0,1.0,170.0,136.0,102.0,204.0,34.0,68.0,magenta,circle
0.0,5.0,1.0,1.0,7.0,5.0,3140.7866820227355,1.0,1.0,part_3,go,0.0,0.0,0.0,147.0,3.0,245.0,49.0,98.0,196.0,147.0,294.0,green,triangle
0.0,4.0,4.0,0.0,7.0,4.0,1609.79082796257,2.0,1.0,part_3,go,0.0,0.0,0.0,98.0,2.0,49.0,294.0,245.0,98.0,196.0,147.0,gray,hexagon
0.0,6.0,2.0,1.0,7.0,1.0,1713.869313010946,2.0,1.0,part_3,go,0.0,0.0,0.0,195.0,5.0,195.0,156.0,39.0,234.0,78.0,117.0,magenta,circle
0.0,4.0,4.0,0.0,7.0,3.0,2015.187782002613,2.0,1.0,part_3,go,0.0,0.0,0.0,34.0,1.0,204.0,136.0,34.0,170.0,102.0,68.0,gray,hexagon
0.0,4.0,4.0,0.0,7.0,5.0,1599.3692770134658,2.0,1.0,part_3,go,0.0,0.0,0.0,156.0,4.0,195.0,78.0,234.0,117.0,156.0,39.0,gray,hexagon
0.0,5.0,1.0,1.0,7.0,4.0,1856.8574810633436,2.0,1.0,part_3,go,0.0,0.0,0.0,176.0,4.0,132.0,44.0,88.0,176.0,264.0,220.0,green,triangle
0.0,6.0,2.0,1.0,7.0,4.0,1728.559141047299,2.0,1.0,part_3,go,0.0,0.0,0.0,39.0,1.0,234.0,117.0,156.0,39.0,78.0,195.0,magenta,circle
0.0,2.0,2.0,0.0,7.0,5.0,1768.7175440369174,2.0,1.0,part_3,go,0.0,0.0,0.0,216.0,4.0,162.0,54.0,270.0,108.0,216.0,324.0,orange,cross
0.0,8.0,4.0,1.0,7.0,2.0,1674.9538470758123,2.0,1.0,part_3,go,0.0,0.0,0.0,98.0,2.0,196.0,98.0,147.0,49.0,294.0,245.0,white,diamond
0.0,4.0,4.0,0.0,7.0,1.0,1805.329117923975,2.0,1.0,part_3,go,0.0,0.0,0.0,68.0,2.0,68.0,204.0,102.0,34.0,136.0,170.0,gray,hexagon
0.0,7.0,3.0,1.0,7.0,5.0,2333.0539310118183,2.0,1.0,part_3,go,0.0,0.0,0.0,196.0,4.0,147.0,294.0,98.0,49.0,196.0,245.0,yellow,flipped triangle
0.0,7.0,3.0,1.0,7.0,5.0,1233.575046993792,2.0,1.0,part_3,go,0.0,0.0,0.0,102.0,3.0,136.0,204.0,170.0,68.0,102.0,34.0,yellow,flipped triangle
0.0,4.0,4.0,0.0,7.0,6.0,2143.728889990598,2.0,1.0,part_3,go,0.0,0.0,0.0,196.0,4.0,147.0,294.0,245.0,98.0,49.0,196.0,gray,hexagon
0.0,8.0,4.0,1.0,7.0,3.0,1817.19862902537,2.0,1.0,part_3,go,0.0,0.0,0.0,102.0,3.0,170.0,204.0,102.0,68.0,34.0,136.0,white,diamond
0.0,5.0,1.0,1.0,7.0,5.0,1557.2544439928606,2.0,1.0,part_3,go,0.0,0.0,0.0,220.0,5.0,44.0,176.0,264.0,88.0,220.0,132.0,green,triangle
0.0,5.0,1.0,1.0,7.0,1.0,1773.6578929470852,2.0,1.0,part_3,go,0.0,0.0,0.0,204.0,6.0,204.0,136.0,102.0,34.0,170.0,68.0,green,triangle
0.0,6.0,2.0,1.0,7.0,3.0,1287.4579530907797,2.0,1.0,part_3,go,0.0,0.0,0.0,245.0,5.0,49.0,147.0,245.0,196.0,294.0,98.0,magenta,circle
0.0,8.0,4.0,1.0,7.0,5.0,1464.067967957817,2.0,1.0,part_3,go,0.0,0.0,0.0,156.0,4.0,117.0,195.0,234.0,39.0,156.0,78.0,white,diamond
0.0,8.0,4.0,1.0,7.0,6.0,855.6029320461676,2.0,1.0,part_3,go,0.0,0.0,0.0,176.0,4.0,44.0,264.0,88.0,132.0,220.0,176.0,white,diamond
0.0,6.0,2.0,1.0,7.0,3.0,1476.5846390509978,2.0,1.0,part_3,go,0.0,0.0,0.0,49.0,1.0,245.0,196.0,49.0,147.0,294.0,98.0,magenta,circle
0.0,8.0,4.0,1.0,7.0,2.0,3250.8843989344314,2.0,1.0,part_3,go,0.0,0.0,0.0,132.0,3.0,44.0,132.0,88.0,264.0,220.0,176.0,white,diamond
0.0,1.0,1.0,0.0,7.0,5.0,4647.458783001639,3.0,1.0,part_3,go,0.0,0.0,0.0,294.0,6.0,196.0,49.0,98.0,147.0,294.0,245.0,blue,square
0.0,8.0,4.0,1.0,7.0,3.0,2177.4394379463047,3.0,1.0,part_3,go,0.0,0.0,0.0,49.0,1.0,98.0,294.0,49.0,147.0,196.0,245.0,white,diamond
0.0,3.0,3.0,0.0,7.0,6.0,2365.5241490341723,3.0,1.0,part_3,go,0.0,0.0,0.0,68.0,2.0,34.0,204.0,102.0,136.0,170.0,68.0,cyan,I
0.0,3.0,3.0,0.0,7.0,5.0,1502.6628059567884,3.0,1.0,part_3,go,0.0,0.0,0.0,162.0,3.0,216.0,108.0,270.0,324.0,162.0,54.0,cyan,I
0.0,5.0,1.0,1.0,7.0,3.0,3278.3681800356135,3.0,1.0,part_3,go,0.0,0.0,0.0,49.0,1.0,196.0,147.0,49.0,294.0,98.0,245.0,green,triangle
0.0,3.0,3.0,0.0,7.0,5.0,1112.3587919864804,3.0,1.0,part_3,go,0.0,0.0,0.0,117.0,3.0,156.0,39.0,78.0,234.0,117.0,195.0,cyan,I
0.0,5.0,1.0,1.0,7.0,5.0,2297.706185025163,3.0,1.0,part_3,go,0.0,0.0,0.0,108.0,2.0,162.0,270.0,216.0,324.0,108.0,54.0,green,triangle
0.0,1.0,1.0,0.0,7.0,1.0,1043.7506940215826,3.0,1.0,part_3,go,0.0,0.0,0.0,88.0,2.0,88.0,132.0,44.0,176.0,220.0,264.0,blue,square
0.0,2.0,2.0,0.0,7.0,4.0,3628.7581900833175,3.0,1.0,part_3,go,0.0,0.0,0.0,132.0,3.0,264.0,44.0,88.0,132.0,176.0,220.0,orange,cross
0.0,7.0,3.0,1.0,7.0,6.0,2542.562420014292,3.0,1.0,part_3,go,0.0,0.0,0.0,264.0,6.0,220.0,176.0,88.0,132.0,44.0,264.0,yellow,flipped triangle
0.0,1.0,1.0,0.0,7.0,5.0,3566.92607095465,3.0,1.0,part_3,go,0.0,0.0,0.0,34.0,1.0,102.0,170.0,68.0,136.0,34.0,204.0,blue,square
0.0,4.0,4.0,0.0,7.0,6.0,4378.492441028357,3.0,1.0,part_3,go,0.0,0.0,0.0,220.0,5.0,132.0,44.0,176.0,88.0,264.0,220.0,gray,hexagon
0.0,2.0,2.0,0.0,7.0,1.0,2545.0216709868982,3.0,1.0,part_3,go,0.0,0.0,0.0,68.0,2.0,68.0,102.0,136.0,34.0,170.0,204.0,orange,cross
0.0,4.0,4.0,0.0,7.0,4.0,2458.6555500281975,3.0,1.0,part_3,go,0.0,0.0,0.0,78.0,2.0,195.0,156.0,39.0,78.0,117.0,234.0,gray,hexagon
0.0,7.0,3.0,1.0,7.0,6.0,2320.938052958809,3.0,1.0,part_3,go,0.0,0.0,0.0,117.0,3.0,39.0,156.0,195.0,78.0,234.0,117.0,yellow,flipped triangle
0.0,1.0,1.0,0.0,7.0,4.0,1810.8564709546044,3.0,1.0,part_3,go,0.0,0.0,0.0,324.0,6.0,162.0,54.0,108.0,324.0,270.0,216.0,blue,square
0.0,2.0,2.0,0.0,7.0,1.0,2277.4384890217334,3.0,1.0,part_3,go,0.0,0.0,0.0,195.0,5.0,195.0,39.0,78.0,117.0,156.0,234.0,orange,cross
0.0,6.0,2.0,1.0,7.0,1.0,2360.932379029691,3.0,1.0,part_3,go,0.0,0.0,0.0,68.0,2.0,68.0,170.0,204.0,136.0,34.0,102.0,magenta,circle
0.0,6.0,2.0,1.0,7.0,2.0,3103.686828049831,3.0,1.0,part_3,go,0.0,0.0,0.0,220.0,5.0,176.0,220.0,264.0,132.0,88.0,44.0,magenta,circle
0.0,7.0,3.0,1.0,7.0,6.0,1964.12657701876,3.0,1.0,part_3,go,0.0,0.0,0.0,176.0,4.0,132.0,44.0,220.0,264.0,88.0,176.0,yellow,flipped triangle
0.0,4.0,4.0,0.0,7.0,1.0,1865.718335029669,4.0,1.0,part_3,go,0.0,0.0,0.0,88.0,2.0,88.0,132.0,176.0,264.0,220.0,44.0,gray,hexagon
0.0,2.0,2.0,0.0,7.0,2.0,1593.4590928955004,4.0,1.0,part_3,go,0.0,0.0,0.0,98.0,2.0,245.0,98.0,196.0,147.0,294.0,49.0,orange,cross
0.0,4.0,4.0,0.0,7.0,6.0,1202.5003320304677,4.0,1.0,part_3,go,0.0,0.0,0.0,216.0,4.0,162.0,324.0,270.0,108.0,54.0,216.0,gray,hexagon
0.0,3.0,3.0,0.0,7.0,5.0,1684.1730100568384,4.0,1.0,part_3,go,0.0,0.0,0.0,176.0,4.0,44.0,88.0,264.0,220.0,176.0,132.0,cyan,I
0.0,3.0,3.0,0.0,7.0,5.0,800.3211579052731,4.0,1.0,part_3,go,0.0,0.0,0.0,170.0,5.0,136.0,102.0,204.0,68.0,170.0,34.0,cyan,I
0.0,1.0,1.0,0.0,7.0,1.0,2160.5681619839743,4.0,1.0,part_3,go,0.0,0.0,0.0,98.0,2.0,98.0,294.0,49.0,196.0,245.0,147.0,blue,square
0.0,2.0,2.0,0.0,7.0,2.0,1585.7783349929375,4.0,1.0,part_3,go,0.0,0.0,0.0,216.0,4.0,108.0,216.0,270.0,162.0,54.0,324.0,orange,cross
0.0,3.0,3.0,0.0,7.0,5.0,2707.149123074487,4.0,1.0,part_3,go,0.0,0.0,0.0,132.0,3.0,88.0,220.0,264.0,176.0,132.0,44.0,cyan,I
0.0,3.0,3.0,0.0,7.0,5.0,804.2675559408963,4.0,1.0,part_3,go,0.0,0.0,0.0,162.0,3.0,54.0,216.0,324.0,108.0,162.0,270.0,cyan,I
0.0,7.0,3.0,1.0,7.0,6.0,2556.990764918737,4.0,1.0,part_3,go,0.0,0.0,0.0,108.0,2.0,324.0,54.0,270.0,162.0,216.0,108.0,yellow,flipped triangle
0.0,1.0,1.0,0.0,7.0,3.0,2360.713684000075,4.0,1.0,part_3,go,0.0,0.0,0.0,216.0,4.0,324.0,108.0,216.0,54.0,270.0,162.0,blue,square
0.0,5.0,1.0,1.0,7.0,5.0,4145.082108909264,4.0,1.0,part_3,go,0.0,0.0,0.0,108.0,2.0,270.0,324.0,54.0,216.0,108.0,162.0,green,triangle
0.0,1.0,1.0,0.0,7.0,6.0,2675.283307908103,4.0,1.0,part_3,go,0.0,0.0,0.0,102.0,3.0,170.0,34.0,136.0,204.0,68.0,102.0,blue,square
0.0,3.0,3.0,0.0,7.0,3.0,3609.671538928524,4.0,1.0,part_3,go,0.0,0.0,0.0,49.0,1.0,196.0,294.0,49.0,245.0,98.0,147.0,cyan,I
0.0,2.0,2.0,0.0,7.0,1.0,1794.8815000709146,4.0,1.0,part_3,go,0.0,0.0,0.0,34.0,1.0,34.0,102.0,68.0,170.0,136.0,204.0,orange,cross
0.0,2.0,2.0,0.0,7.0,1.0,1216.005664085969,4.0,1.0,part_3,go,0.0,0.0,0.0,39.0,1.0,39.0,78.0,234.0,156.0,117.0,195.0,orange,cross
0.0,2.0,2.0,0.0,7.0,2.0,1215.5422130599618,4.0,1.0,part_3,go,0.0,0.0,0.0,49.0,1.0,245.0,49.0,196.0,147.0,294.0,98.0,orange,cross
0.0,1.0,1.0,0.0,7.0,4.0,1761.8655050173402,4.0,1.0,part_3,go,0.0,0.0,0.0,78.0,2.0,234.0,117.0,156.0,78.0,39.0,195.0,blue,square
0.0,7.0,3.0,1.0,7.0,5.0,2371.596129029058,4.0,1.0,part_3,go,0.0,0.0,0.0,324.0,6.0,216.0,270.0,54.0,108.0,324.0,162.0,yellow,flipped triangle
0.0,5.0,1.0,1.0,7.0,6.0,1937.4886869918555,4.0,1.0,part_3,go,0.0,0.0,0.0,68.0,2.0,34.0,102.0,204.0,170.0,136.0,68.0,green,triangle
