raw_reward_magnitude,stim_reward,stepwise_reward_magnitude,paired_with_stopping,stim_location,response,reaction_time,block,num_trial_presentations,which_phase,stop_signal_trial_type,left_SSD,right_SSD,accuracy,chosen_bidding_amount,chosen_bidding_level,possible_bid_1,possible_bid_2,possible_bid_3,possible_bid_4,possible_bid_5,possible_bid_6,color_text,shape_text
187.0,3.0,3.0,0.0,3.0,3.0,361.0441009514034,1.0,1.0,phase_1,,,,,,,,,,,,,green,cross
62.0,1.0,1.0,0.0,2.0,2.0,386.3076840061694,1.0,1.0,phase_1,,,,,,,,,,,,,yellow,triangle
0.0,7.0,0.0,1.0,3.0,3.0,312.2086159419268,1.0,1.0,phase_1,,,,,,,,,,,,,orange,flipped triangle
405.0,8.0,4.0,1.0,4.0,4.0,333.7529000127688,1.0,1.0,phase_1,,,,,,,,,,,,,gray,hexagon
199.0,7.0,3.0,1.0,1.0,1.0,259.4886389560997,1.0,1.0,phase_1,,,,,,,,,,,,,orange,flipped triangle
0.0,4.0,0.0,0.0,2.0,2.0,360.8518590917811,1.0,1.0,phase_1,,,,,,,,,,,,,magenta,I
34.0,5.0,1.0,1.0,2.0,2.0,315.672097960487,1.0,1.0,phase_1,,,,,,,,,,,,,cyan,circle
62.0,1.0,1.0,0.0,1.0,1.0,295.4022980993613,1.0,1.0,phase_1,,,,,,,,,,,,,yellow,triangle
409.0,4.0,4.0,0.0,2.0,2.0,307.3946050135419,1.0,1.0,phase_1,,,,,,,,,,,,,magenta,I
98.0,2.0,2.0,0.0,3.0,3.0,265.6205920502543,1.0,1.0,phase_1,,,,,,,,,,,,,white,diamond
182.0,7.0,3.0,1.0,3.0,3.0,312.8831450594589,1.0,1.0,phase_1,,,,,,,,,,,,,orange,flipped triangle
397.0,8.0,4.0,1.0,4.0,4.0,274.7267660452053,1.0,1.0,phase_1,,,,,,,,,,,,,gray,hexagon
119.0,6.0,2.0,1.0,3.0,3.0,328.3653409453109,1.0,1.0,phase_1,,,,,,,,,,,,,blue,square
124.0,2.0,2.0,0.0,2.0,2.0,299.0044170292094,1.0,1.0,phase_1,,,,,,,,,,,,,white,diamond
62.0,5.0,1.0,1.0,4.0,4.0,290.8767550252378,1.0,1.0,phase_1,,,,,,,,,,,,,cyan,circle
44.0,5.0,1.0,1.0,2.0,2.0,343.5967939440161,1.0,1.0,phase_1,,,,,,,,,,,,,cyan,circle
0.0,2.0,0.0,0.0,3.0,3.0,332.1601500501856,1.0,1.0,phase_1,,,,,,,,,,,,,white,diamond
101.0,2.0,2.0,0.0,4.0,4.0,343.3740159962326,1.0,1.0,phase_1,,,,,,,,,,,,,white,diamond
76.0,6.0,2.0,1.0,4.0,4.0,333.1203690031543,1.0,1.0,phase_1,,,,,,,,,,,,,blue,square
387.0,4.0,4.0,0.0,3.0,3.0,291.1788739729672,1.0,1.0,phase_1,,,,,,,,,,,,,magenta,I
182.0,3.0,3.0,0.0,3.0,3.0,316.0396410385147,1.0,1.0,phase_1,,,,,,,,,,,,,green,cross
217.0,7.0,3.0,1.0,3.0,3.0,336.8366620270535,1.0,1.0,phase_1,,,,,,,,,,,,,orange,flipped triangle
187.0,7.0,3.0,1.0,4.0,4.0,373.230756027624,1.0,1.0,phase_1,,,,,,,,,,,,,orange,flipped triangle
392.0,4.0,4.0,0.0,2.0,2.0,316.4776109624654,1.0,1.0,phase_1,,,,,,,,,,,,,magenta,I
50.0,1.0,1.0,0.0,3.0,3.0,312.6756289275363,1.0,1.0,phase_1,,,,,,,,,,,,,yellow,triangle
389.0,8.0,4.0,1.0,3.0,3.0,292.9204510292038,1.0,1.0,phase_1,,,,,,,,,,,,,gray,hexagon
0.0,3.0,0.0,0.0,3.0,3.0,344.5108010200783,1.0,1.0,phase_1,,,,,,,,,,,,,green,cross
412.0,8.0,4.0,1.0,1.0,1.0,358.2495469599962,1.0,1.0,phase_1,,,,,,,,,,,,,gray,hexagon
383.0,4.0,4.0,0.0,1.0,1.0,377.3936149664223,1.0,1.0,phase_1,,,,,,,,,,,,,magenta,I
201.0,3.0,3.0,0.0,1.0,1.0,279.7687670681625,1.0,1.0,phase_1,,,,,,,,,,,,,green,cross
203.0,3.0,3.0,0.0,3.0,3.0,267.1972019597888,1.0,1.0,phase_1,,,,,,,,,,,,,green,cross
221.0,7.0,3.0,1.0,3.0,3.0,319.5199349429458,1.0,1.0,phase_1,,,,,,,,,,,,,orange,flipped triangle
392.0,8.0,4.0,1.0,2.0,2.0,340.316565008834,1.0,1.0,phase_1,,,,,,,,,,,,,gray,hexagon
405.0,4.0,4.0,0.0,3.0,3.0,298.9532909123227,1.0,1.0,phase_1,,,,,,,,,,,,,magenta,I
67.0,5.0,1.0,1.0,1.0,1.0,245.3759550116956,1.0,1.0,phase_1,,,,,,,,,,,,,cyan,circle
26.0,1.0,1.0,0.0,3.0,3.0,270.1549179619178,1.0,1.0,phase_1,,,,,,,,,,,,,yellow,triangle
0.0,5.0,0.0,1.0,2.0,2.0,287.2762819752097,1.0,1.0,phase_1,,,,,,,,,,,,,cyan,circle
0.0,4.0,0.0,0.0,3.0,3.0,327.7340700151399,1.0,1.0,phase_1,,,,,,,,,,,,,magenta,I
0.0,2.0,0.0,0.0,2.0,2.0,377.3094540229067,1.0,1.0,phase_1,,,,,,,,,,,,,white,diamond
118.0,2.0,2.0,0.0,1.0,1.0,389.8216100642457,1.0,1.0,phase_1,,,,,,,,,,,,,white,diamond
0.0,4.0,0.0,0.0,4.0,4.0,323.497855104506,1.0,1.0,phase_1,,,,,,,,,,,,,magenta,I
41.0,1.0,1.0,0.0,2.0,2.0,302.6378400390968,1.0,1.0,phase_1,,,,,,,,,,,,,yellow,triangle
101.0,6.0,2.0,1.0,2.0,2.0,315.4106630245223,1.0,1.0,phase_1,,,,,,,,,,,,,blue,square
0.0,2.0,0.0,0.0,4.0,4.0,352.2438399959355,1.0,1.0,phase_1,,,,,,,,,,,,,white,diamond
116.0,6.0,2.0,1.0,2.0,2.0,303.5241729812696,1.0,1.0,phase_1,,,,,,,,,,,,,blue,square
118.0,2.0,2.0,0.0,4.0,4.0,324.0571459755301,1.0,1.0,phase_1,,,,,,,,,,,,,white,diamond
0.0,1.0,0.0,0.0,4.0,4.0,319.398234016262,1.0,1.0,phase_1,,,,,,,,,,,,,yellow,triangle
379.0,8.0,4.0,1.0,2.0,2.0,339.3538439413532,1.0,1.0,phase_1,,,,,,,,,,,,,gray,hexagon
0.0,3.0,0.0,0.0,2.0,2.0,271.2272549979388,1.0,1.0,phase_1,,,,,,,,,,,,,green,cross
0.0,2.0,0.0,0.0,4.0,4.0,443.9086709171533,1.0,1.0,phase_1,,,,,,,,,,,,,white,diamond
410.0,4.0,4.0,0.0,3.0,3.0,392.5570860737934,1.0,1.0,phase_1,,,,,,,,,,,,,magenta,I
424.0,8.0,4.0,1.0,2.0,2.0,333.9099060976878,1.0,1.0,phase_1,,,,,,,,,,,,,gray,hexagon
71.0,1.0,1.0,0.0,1.0,1.0,411.7273499723524,1.0,1.0,phase_1,,,,,,,,,,,,,yellow,triangle
54.0,1.0,1.0,0.0,4.0,4.0,329.36283200979227,1.0,1.0,phase_1,,,,,,,,,,,,,yellow,triangle
216.0,3.0,3.0,0.0,2.0,2.0,299.2627349449321,1.0,1.0,phase_1,,,,,,,,,,,,,green,cross
62.0,5.0,1.0,1.0,2.0,2.0,290.8280419651419,1.0,1.0,phase_1,,,,,,,,,,,,,cyan,circle
377.0,4.0,4.0,0.0,3.0,3.0,327.571794972755,1.0,1.0,phase_1,,,,,,,,,,,,,magenta,I
412.0,4.0,4.0,0.0,1.0,1.0,266.6735190432518,1.0,1.0,phase_1,,,,,,,,,,,,,magenta,I
210.0,3.0,3.0,0.0,3.0,3.0,297.4441710393876,1.0,1.0,phase_1,,,,,,,,,,,,,green,cross
203.0,7.0,3.0,1.0,2.0,2.0,259.3802170595154,1.0,1.0,phase_1,,,,,,,,,,,,,orange,flipped triangle
406.0,4.0,4.0,0.0,2.0,2.0,353.3266680315137,1.0,1.0,phase_1,,,,,,,,,,,,,magenta,I
392.0,4.0,4.0,0.0,4.0,4.0,262.8655009903013,1.0,1.0,phase_1,,,,,,,,,,,,,magenta,I
38.0,5.0,1.0,1.0,1.0,1.0,259.8245330154896,1.0,1.0,phase_1,,,,,,,,,,,,,cyan,circle
0.0,7.0,0.0,1.0,4.0,4.0,262.3159079812467,1.0,1.0,phase_1,,,,,,,,,,,,,orange,flipped triangle
187.0,3.0,3.0,0.0,3.0,3.0,315.5965680489316,1.0,1.0,phase_1,,,,,,,,,,,,,green,cross
62.0,1.0,1.0,0.0,4.0,4.0,389.89948097150767,1.0,2.0,phase_1,,,,,,,,,,,,,yellow,triangle
415.0,4.0,4.0,0.0,4.0,4.0,303.8700550096109,1.0,1.0,phase_1,,,,,,,,,,,,,magenta,I
90.0,2.0,2.0,0.0,3.0,3.0,414.60575198289,1.0,1.0,phase_1,,,,,,,,,,,,,white,diamond
50.0,5.0,1.0,1.0,1.0,1.0,306.828572996892,1.0,1.0,phase_1,,,,,,,,,,,,,cyan,circle
224.0,7.0,3.0,1.0,4.0,4.0,422.4744690582156,1.0,1.0,phase_1,,,,,,,,,,,,,orange,flipped triangle
122.0,6.0,2.0,1.0,4.0,4.0,283.3568330388516,1.0,1.0,phase_1,,,,,,,,,,,,,blue,square
38.0,1.0,1.0,0.0,2.0,2.0,304.3712270446121,1.0,1.0,phase_1,,,,,,,,,,,,,yellow,triangle
219.0,7.0,3.0,1.0,4.0,4.0,303.4714700188488,1.0,1.0,phase_1,,,,,,,,,,,,,orange,flipped triangle
0.0,6.0,0.0,1.0,2.0,2.0,314.9966580094769,1.0,1.0,phase_1,,,,,,,,,,,,,blue,square
0.0,2.0,0.0,0.0,1.0,1.0,312.3598020756617,1.0,1.0,phase_1,,,,,,,,,,,,,white,diamond
70.0,5.0,1.0,1.0,3.0,3.0,251.1589049827307,1.0,1.0,phase_1,,,,,,,,,,,,,cyan,circle
197.0,3.0,3.0,0.0,4.0,4.0,306.5786949591711,1.0,1.0,phase_1,,,,,,,,,,,,,green,cross
48.0,5.0,1.0,1.0,4.0,4.0,324.0007350686937,1.0,1.0,phase_1,,,,,,,,,,,,,cyan,circle
0.0,6.0,0.0,1.0,4.0,4.0,356.6486190538853,1.0,1.0,phase_1,,,,,,,,,,,,,blue,square
397.0,4.0,4.0,0.0,2.0,2.0,286.6426840191707,1.0,1.0,phase_1,,,,,,,,,,,,,magenta,I
111.0,2.0,2.0,0.0,2.0,2.0,307.4988089501858,1.0,1.0,phase_1,,,,,,,,,,,,,white,diamond
0.0,1.0,0.0,0.0,2.0,2.0,302.3457491071895,1.0,1.0,phase_1,,,,,,,,,,,,,yellow,triangle
98.0,2.0,2.0,0.0,1.0,1.0,315.2885510353371,1.0,1.0,phase_1,,,,,,,,,,,,,white,diamond
67.0,1.0,1.0,0.0,4.0,4.0,307.7831330010667,1.0,1.0,phase_1,,,,,,,,,,,,,yellow,triangle
76.0,2.0,2.0,0.0,3.0,3.0,287.5126180006191,1.0,1.0,phase_1,,,,,,,,,,,,,white,diamond
416.0,8.0,4.0,1.0,3.0,3.0,267.2952379798516,1.0,1.0,phase_1,,,,,,,,,,,,,gray,hexagon
0.0,1.0,0.0,0.0,4.0,4.0,335.6718490831554,1.0,1.0,phase_1,,,,,,,,,,,,,yellow,triangle
0.0,6.0,0.0,1.0,3.0,3.0,307.3839980643242,1.0,1.0,phase_1,,,,,,,,,,,,,blue,square
0.0,4.0,0.0,0.0,2.0,2.0,418.8774559879675,1.0,1.0,phase_1,,,,,,,,,,,,,magenta,I
199.0,7.0,3.0,1.0,2.0,2.0,340.4807889601215,1.0,1.0,phase_1,,,,,,,,,,,,,orange,flipped triangle
410.0,8.0,4.0,1.0,1.0,1.0,328.6830621073022,1.0,1.0,phase_1,,,,,,,,,,,,,gray,hexagon
38.0,5.0,1.0,1.0,1.0,1.0,328.6630449583754,1.0,1.0,phase_1,,,,,,,,,,,,,cyan,circle
181.0,7.0,3.0,1.0,4.0,4.0,308.0493740271777,1.0,1.0,phase_1,,,,,,,,,,,,,orange,flipped triangle
92.0,2.0,2.0,0.0,4.0,4.0,281.1443909304216,1.0,1.0,phase_1,,,,,,,,,,,,,white,diamond
203.0,3.0,3.0,0.0,3.0,3.0,300.4879090003669,1.0,1.0,phase_1,,,,,,,,,,,,,green,cross
383.0,8.0,4.0,1.0,1.0,1.0,296.4274340774864,1.0,1.0,phase_1,,,,,,,,,,,,,gray,hexagon
98.0,6.0,2.0,1.0,3.0,3.0,292.5472649512812,1.0,1.0,phase_1,,,,,,,,,,,,,blue,square
92.0,6.0,2.0,1.0,1.0,1.0,402.3436029674485,1.0,1.0,phase_1,,,,,,,,,,,,,blue,square
383.0,8.0,4.0,1.0,4.0,4.0,337.0514630805701,1.0,1.0,phase_1,,,,,,,,,,,,,gray,hexagon
116.0,6.0,2.0,1.0,1.0,1.0,291.6557329008356,1.0,1.0,phase_1,,,,,,,,,,,,,blue,square
377.0,4.0,4.0,0.0,4.0,4.0,358.6332510458305,2.0,1.0,phase_1,,,,,,,,,,,,,magenta,I
113.0,2.0,2.0,0.0,4.0,4.0,360.5509810149669,2.0,1.0,phase_1,,,,,,,,,,,,,white,diamond
39.0,5.0,1.0,1.0,2.0,2.0,381.8011760013178,2.0,1.0,phase_1,,,,,,,,,,,,,cyan,circle
111.0,6.0,2.0,1.0,4.0,4.0,353.8652668939903,2.0,1.0,phase_1,,,,,,,,,,,,,blue,square
52.0,1.0,1.0,0.0,1.0,1.0,294.987672008574,2.0,1.0,phase_1,,,,,,,,,,,,,yellow,triangle
221.0,3.0,3.0,0.0,3.0,3.0,286.4761899691075,2.0,1.0,phase_1,,,,,,,,,,,,,green,cross
0.0,3.0,0.0,0.0,1.0,1.0,283.8112079771235,2.0,1.0,phase_1,,,,,,,,,,,,,green,cross
0.0,1.0,0.0,0.0,4.0,4.0,280.8254259871319,2.0,1.0,phase_1,,,,,,,,,,,,,yellow,triangle
211.0,3.0,3.0,0.0,1.0,1.0,266.068872064352,2.0,1.0,phase_1,,,,,,,,,,,,,green,cross
46.0,1.0,1.0,0.0,3.0,3.0,262.9277469823137,2.0,1.0,phase_1,,,,,,,,,,,,,yellow,triangle
391.0,8.0,4.0,1.0,4.0,4.0,291.460467968136,2.0,1.0,phase_1,,,,,,,,,,,,,gray,hexagon
46.0,5.0,1.0,1.0,1.0,1.0,257.7523239888251,2.0,1.0,phase_1,,,,,,,,,,,,,cyan,circle
176.0,7.0,3.0,1.0,3.0,3.0,269.4444860098883,2.0,1.0,phase_1,,,,,,,,,,,,,orange,flipped triangle
0.0,3.0,0.0,0.0,4.0,4.0,356.8155530374497,2.0,1.0,phase_1,,,,,,,,,,,,,green,cross
73.0,5.0,1.0,1.0,4.0,4.0,350.2489120000973,2.0,1.0,phase_1,,,,,,,,,,,,,cyan,circle
76.0,6.0,2.0,1.0,3.0,3.0,258.2395520294085,2.0,1.0,phase_1,,,,,,,,,,,,,blue,square
386.0,4.0,4.0,0.0,2.0,2.0,286.7148360237479,2.0,1.0,phase_1,,,,,,,,,,,,,magenta,I
84.0,2.0,2.0,0.0,2.0,2.0,618.9202860696241,2.0,1.0,phase_1,,,,,,,,,,,,,white,diamond
98.0,6.0,2.0,1.0,3.0,3.0,368.3232559124008,2.0,1.0,phase_1,,,,,,,,,,,,,blue,square
205.0,3.0,3.0,0.0,1.0,1.0,393.8342520268634,2.0,2.0,phase_1,,,,,,,,,,,,,green,cross
386.0,8.0,4.0,1.0,3.0,3.0,361.6986379493028,2.0,1.0,phase_1,,,,,,,,,,,,,gray,hexagon
400.0,8.0,4.0,1.0,3.0,3.0,303.1371990218758,2.0,1.0,phase_1,,,,,,,,,,,,,gray,hexagon
100.0,2.0,2.0,0.0,2.0,2.0,303.4646200248971,2.0,1.0,phase_1,,,,,,,,,,,,,white,diamond
76.0,6.0,2.0,1.0,1.0,1.0,278.5600780043751,2.0,1.0,phase_1,,,,,,,,,,,,,blue,square
76.0,2.0,2.0,0.0,3.0,3.0,306.7209860309958,2.0,1.0,phase_1,,,,,,,,,,,,,white,diamond
204.0,3.0,3.0,0.0,1.0,1.0,384.4441790133714,2.0,1.0,phase_1,,,,,,,,,,,,,green,cross
119.0,2.0,2.0,0.0,4.0,4.0,266.3795310072601,2.0,1.0,phase_1,,,,,,,,,,,,,white,diamond
0.0,7.0,0.0,1.0,4.0,4.0,337.5496360240504,2.0,1.0,phase_1,,,,,,,,,,,,,orange,flipped triangle
0.0,1.0,0.0,0.0,4.0,4.0,395.2068319777027,2.0,2.0,phase_1,,,,,,,,,,,,,yellow,triangle
0.0,3.0,0.0,0.0,1.0,1.0,436.2151180393994,2.0,2.0,phase_1,,,,,,,,,,,,,green,cross
0.0,2.0,0.0,0.0,4.0,4.0,422.9815700091421,2.0,1.0,phase_1,,,,,,,,,,,,,white,diamond
399.0,8.0,4.0,1.0,1.0,1.0,341.5193639229983,2.0,1.0,phase_1,,,,,,,,,,,,,gray,hexagon
0.0,7.0,0.0,1.0,4.0,4.0,335.946928942576,2.0,1.0,phase_1,,,,,,,,,,,,,orange,flipped triangle
0.0,8.0,0.0,1.0,1.0,1.0,300.5230150884017,2.0,1.0,phase_1,,,,,,,,,,,,,gray,hexagon
70.0,1.0,1.0,0.0,4.0,4.0,649.9804590130225,2.0,1.0,phase_1,,,,,,,,,,,,,yellow,triangle
0.0,2.0,0.0,0.0,4.0,4.0,327.1458769449964,2.0,1.0,phase_1,,,,,,,,,,,,,white,diamond
109.0,6.0,2.0,1.0,1.0,1.0,355.305508011952,2.0,1.0,phase_1,,,,,,,,,,,,,blue,square
73.0,1.0,1.0,0.0,2.0,2.0,338.4702859912067,2.0,1.0,phase_1,,,,,,,,,,,,,yellow,triangle
0.0,7.0,0.0,1.0,4.0,4.0,356.201461981982,2.0,1.0,phase_1,,,,,,,,,,,,,orange,flipped triangle
175.0,7.0,3.0,1.0,1.0,1.0,274.8554369900375,2.0,1.0,phase_1,,,,,,,,,,,,,orange,flipped triangle
188.0,3.0,3.0,0.0,2.0,2.0,344.7171170264482,2.0,1.0,phase_1,,,,,,,,,,,,,green,cross
178.0,7.0,3.0,1.0,2.0,2.0,395.3054930316284,2.0,1.0,phase_1,,,,,,,,,,,,,orange,flipped triangle
124.0,6.0,2.0,1.0,2.0,2.0,424.7062670765444,2.0,1.0,phase_1,,,,,,,,,,,,,blue,square
47.0,1.0,1.0,0.0,1.0,1.0,379.1358530288562,2.0,1.0,phase_1,,,,,,,,,,,,,yellow,triangle
223.0,3.0,3.0,0.0,2.0,2.0,368.11957298778,2.0,1.0,phase_1,,,,,,,,,,,,,green,cross
376.0,8.0,4.0,1.0,2.0,2.0,318.1399119785055,2.0,1.0,phase_1,,,,,,,,,,,,,gray,hexagon
201.0,7.0,3.0,1.0,4.0,4.0,396.6606180183589,2.0,1.0,phase_1,,,,,,,,,,,,,orange,flipped triangle
54.0,5.0,1.0,1.0,2.0,2.0,311.2900119740516,2.0,1.0,phase_1,,,,,,,,,,,,,cyan,circle
34.0,1.0,1.0,0.0,2.0,2.0,282.556934049353,2.0,1.0,phase_1,,,,,,,,,,,,,yellow,triangle
389.0,4.0,4.0,0.0,1.0,1.0,459.1112280031666,2.0,1.0,phase_1,,,,,,,,,,,,,magenta,I
424.0,8.0,4.0,1.0,4.0,4.0,341.0816729301587,2.0,1.0,phase_1,,,,,,,,,,,,,gray,hexagon
120.0,2.0,2.0,0.0,1.0,1.0,306.9295990280807,2.0,1.0,phase_1,,,,,,,,,,,,,white,diamond
181.0,3.0,3.0,0.0,4.0,4.0,343.7824860448017,2.0,1.0,phase_1,,,,,,,,,,,,,green,cross
41.0,5.0,1.0,1.0,3.0,3.0,365.9867009846493,2.0,1.0,phase_1,,,,,,,,,,,,,cyan,circle
210.0,3.0,3.0,0.0,3.0,3.0,442.7806329913437,2.0,1.0,phase_1,,,,,,,,,,,,,green,cross
381.0,8.0,4.0,1.0,1.0,1.0,292.3581210197881,2.0,1.0,phase_1,,,,,,,,,,,,,gray,hexagon
0.0,6.0,0.0,1.0,1.0,1.0,336.31498797331,2.0,1.0,phase_1,,,,,,,,,,,,,blue,square
0.0,8.0,0.0,1.0,2.0,2.0,365.477776969783,2.0,1.0,phase_1,,,,,,,,,,,,,gray,hexagon
214.0,7.0,3.0,1.0,4.0,4.0,308.7246919749304,2.0,1.0,phase_1,,,,,,,,,,,,,orange,flipped triangle
395.0,8.0,4.0,1.0,2.0,2.0,402.3349769413471,2.0,1.0,phase_1,,,,,,,,,,,,,gray,hexagon
44.0,1.0,1.0,0.0,3.0,3.0,427.2980949608609,2.0,1.0,phase_1,,,,,,,,,,,,,yellow,triangle
0.0,4.0,0.0,0.0,1.0,1.0,323.9642539992928,2.0,1.0,phase_1,,,,,,,,,,,,,magenta,I
86.0,2.0,2.0,0.0,2.0,2.0,308.3673289511353,2.0,1.0,phase_1,,,,,,,,,,,,,white,diamond
111.0,2.0,2.0,0.0,4.0,4.0,297.7649710373953,2.0,1.0,phase_1,,,,,,,,,,,,,white,diamond
381.0,4.0,4.0,0.0,1.0,1.0,432.0469090016559,2.0,1.0,phase_1,,,,,,,,,,,,,magenta,I
63.0,1.0,1.0,0.0,2.0,2.0,298.8887149840593,2.0,1.0,phase_1,,,,,,,,,,,,,yellow,triangle
53.0,5.0,1.0,1.0,4.0,4.0,352.250694995746,2.0,1.0,phase_1,,,,,,,,,,,,,cyan,circle
409.0,8.0,4.0,1.0,1.0,1.0,262.1952379122376,2.0,1.0,phase_1,,,,,,,,,,,,,gray,hexagon
406.0,8.0,4.0,1.0,4.0,4.0,323.1227180222049,2.0,1.0,phase_1,,,,,,,,,,,,,gray,hexagon
38.0,1.0,1.0,0.0,1.0,1.0,270.9467069944367,2.0,1.0,phase_1,,,,,,,,,,,,,yellow,triangle
84.0,2.0,2.0,0.0,4.0,4.0,282.1006600279361,2.0,1.0,phase_1,,,,,,,,,,,,,white,diamond
96.0,2.0,2.0,0.0,4.0,4.0,441.3377630989998,2.0,1.0,phase_1,,,,,,,,,,,,,white,diamond
99.0,2.0,2.0,0.0,4.0,4.0,422.2768960753456,2.0,1.0,phase_1,,,,,,,,,,,,,white,diamond
26.0,5.0,1.0,1.0,2.0,2.0,295.7476080628112,2.0,1.0,phase_1,,,,,,,,,,,,,cyan,circle
398.0,4.0,4.0,0.0,2.0,2.0,336.5523220272735,2.0,1.0,phase_1,,,,,,,,,,,,,magenta,I
0.0,5.0,0.0,1.0,4.0,4.0,371.0880430880934,2.0,1.0,phase_1,,,,,,,,,,,,,cyan,circle
46.0,1.0,1.0,0.0,4.0,4.0,302.9028580058366,2.0,1.0,phase_1,,,,,,,,,,,,,yellow,triangle
403.0,4.0,4.0,0.0,1.0,1.0,362.7758909715339,2.0,1.0,phase_1,,,,,,,,,,,,,magenta,I
0.0,4.0,0.0,0.0,3.0,3.0,263.4331510635093,2.0,1.0,phase_1,,,,,,,,,,,,,magenta,I
71.0,5.0,1.0,1.0,3.0,3.0,302.5622629793361,2.0,1.0,phase_1,,,,,,,,,,,,,cyan,circle
377.0,8.0,4.0,1.0,4.0,4.0,340.43365099933,2.0,1.0,phase_1,,,,,,,,,,,,,gray,hexagon
71.0,5.0,1.0,1.0,1.0,1.0,455.7069350266829,2.0,1.0,phase_1,,,,,,,,,,,,,cyan,circle
64.0,5.0,1.0,1.0,4.0,4.0,315.6380340224132,2.0,1.0,phase_1,,,,,,,,,,,,,cyan,circle
43.0,5.0,1.0,1.0,1.0,1.0,376.4222310855984,2.0,1.0,phase_1,,,,,,,,,,,,,cyan,circle
109.0,6.0,2.0,1.0,2.0,2.0,418.3790870010853,2.0,2.0,phase_1,,,,,,,,,,,,,blue,square
0.0,5.0,0.0,1.0,2.0,2.0,294.8140379739925,2.0,1.0,phase_1,,,,,,,,,,,,,cyan,circle
85.0,6.0,2.0,1.0,3.0,3.0,373.07005107868457,2.0,1.0,phase_1,,,,,,,,,,,,,blue,square
118.0,6.0,2.0,1.0,4.0,4.0,304.0564849507063,2.0,1.0,phase_1,,,,,,,,,,,,,blue,square
0.0,4.0,0.0,0.0,4.0,4.0,370.76140893623227,2.0,1.0,phase_1,,,,,,,,,,,,,magenta,I
224.0,3.0,3.0,0.0,4.0,4.0,315.1059210067615,2.0,1.0,phase_1,,,,,,,,,,,,,green,cross
57.0,1.0,1.0,0.0,1.0,1.0,283.9291560230776,2.0,1.0,phase_1,,,,,,,,,,,,,yellow,triangle
196.0,3.0,3.0,0.0,4.0,4.0,289.7416560444981,2.0,1.0,phase_1,,,,,,,,,,,,,green,cross
217.0,3.0,3.0,0.0,4.0,4.0,368.9345750026405,2.0,1.0,phase_1,,,,,,,,,,,,,green,cross
0.0,8.0,0.0,1.0,1.0,1.0,324.640161008574,2.0,1.0,phase_1,,,,,,,,,,,,,gray,hexagon
55.0,1.0,1.0,0.0,2.0,2.0,543.780341045931,2.0,1.0,phase_1,,,,,,,,,,,,,yellow,triangle
37.0,5.0,1.0,1.0,2.0,2.0,347.4224590463564,2.0,1.0,phase_1,,,,,,,,,,,,,cyan,circle
34.0,1.0,1.0,0.0,2.0,2.0,312.7159819705412,2.0,1.0,phase_1,,,,,,,,,,,,,yellow,triangle
46.0,5.0,1.0,1.0,2.0,2.0,320.4082389129326,2.0,1.0,phase_1,,,,,,,,,,,,,cyan,circle
37.0,5.0,1.0,1.0,3.0,3.0,409.7640990512445,2.0,1.0,phase_1,,,,,,,,,,,,,cyan,circle
94.0,6.0,2.0,1.0,1.0,1.0,270.274766953662,2.0,1.0,phase_1,,,,,,,,,,,,,blue,square
116.0,2.0,2.0,0.0,1.0,1.0,430.7755579939112,3.0,1.0,phase_1,,,,,,,,,,,,,white,diamond
210.0,7.0,3.0,1.0,1.0,1.0,291.1485130898654,3.0,1.0,phase_1,,,,,,,,,,,,,orange,flipped triangle
36.0,1.0,1.0,0.0,4.0,4.0,286.8947549723089,3.0,1.0,phase_1,,,,,,,,,,,,,yellow,triangle
0.0,7.0,0.0,1.0,1.0,1.0,290.1623590150848,3.0,1.0,phase_1,,,,,,,,,,,,,orange,flipped triangle
116.0,2.0,2.0,0.0,2.0,2.0,326.8595429835841,3.0,1.0,phase_1,,,,,,,,,,,,,white,diamond
46.0,5.0,1.0,1.0,1.0,1.0,251.1286730878055,3.0,1.0,phase_1,,,,,,,,,,,,,cyan,circle
36.0,5.0,1.0,1.0,3.0,3.0,324.1438610712066,3.0,1.0,phase_1,,,,,,,,,,,,,cyan,circle
405.0,4.0,4.0,0.0,2.0,2.0,311.8603969924152,3.0,1.0,phase_1,,,,,,,,,,,,,magenta,I
391.0,4.0,4.0,0.0,4.0,4.0,257.4844979681074,3.0,1.0,phase_1,,,,,,,,,,,,,magenta,I
39.0,1.0,1.0,0.0,1.0,1.0,320.9305190248415,3.0,1.0,phase_1,,,,,,,,,,,,,yellow,triangle
223.0,7.0,3.0,1.0,2.0,2.0,283.2545660203323,3.0,1.0,phase_1,,,,,,,,,,,,,orange,flipped triangle
91.0,2.0,2.0,0.0,1.0,1.0,328.1318850349635,3.0,1.0,phase_1,,,,,,,,,,,,,white,diamond
0.0,2.0,0.0,0.0,2.0,2.0,931.2295690178872,3.0,2.0,phase_1,,,,,,,,,,,,,white,diamond
62.0,5.0,1.0,1.0,3.0,3.0,357.5044199824333,3.0,1.0,phase_1,,,,,,,,,,,,,cyan,circle
71.0,1.0,1.0,0.0,4.0,4.0,364.3964070361107,3.0,1.0,phase_1,,,,,,,,,,,,,yellow,triangle
86.0,6.0,2.0,1.0,2.0,2.0,614.8152699461207,3.0,1.0,phase_1,,,,,,,,,,,,,blue,square
109.0,2.0,2.0,0.0,1.0,1.0,349.0400050068274,3.0,1.0,phase_1,,,,,,,,,,,,,white,diamond
0.0,7.0,0.0,1.0,4.0,4.0,283.385191927664,3.0,1.0,phase_1,,,,,,,,,,,,,orange,flipped triangle
0.0,8.0,0.0,1.0,4.0,4.0,332.718686084263,3.0,1.0,phase_1,,,,,,,,,,,,,gray,hexagon
0.0,1.0,0.0,0.0,3.0,3.0,371.9566400395706,3.0,1.0,phase_1,,,,,,,,,,,,,yellow,triangle
214.0,3.0,3.0,0.0,4.0,4.0,399.0065640537068,3.0,1.0,phase_1,,,,,,,,,,,,,green,cross
120.0,6.0,2.0,1.0,4.0,4.0,316.1583240143955,3.0,1.0,phase_1,,,,,,,,,,,,,blue,square
197.0,7.0,3.0,1.0,4.0,4.0,410.4573139920831,3.0,1.0,phase_1,,,,,,,,,,,,,orange,flipped triangle
120.0,2.0,2.0,0.0,3.0,3.0,374.1589280543849,3.0,1.0,phase_1,,,,,,,,,,,,,white,diamond
93.0,2.0,2.0,0.0,3.0,3.0,298.9088189788162,3.0,1.0,phase_1,,,,,,,,,,,,,white,diamond
221.0,7.0,3.0,1.0,2.0,2.0,565.4760869219899,3.0,1.0,phase_1,,,,,,,,,,,,,orange,flipped triangle
376.0,4.0,4.0,0.0,3.0,3.0,364.617059007287,3.0,1.0,phase_1,,,,,,,,,,,,,magenta,I
216.0,7.0,3.0,1.0,1.0,1.0,409.433442982845,3.0,1.0,phase_1,,,,,,,,,,,,,orange,flipped triangle
34.0,5.0,1.0,1.0,1.0,1.0,382.2235100669786,3.0,1.0,phase_1,,,,,,,,,,,,,cyan,circle
412.0,8.0,4.0,1.0,2.0,2.0,314.7810329683125,3.0,1.0,phase_1,,,,,,,,,,,,,gray,hexagon
87.0,6.0,2.0,1.0,3.0,3.0,385.308628086932,3.0,1.0,phase_1,,,,,,,,,,,,,blue,square
48.0,1.0,1.0,0.0,3.0,3.0,306.7048010416329,3.0,1.0,phase_1,,,,,,,,,,,,,yellow,triangle
84.0,6.0,2.0,1.0,4.0,4.0,352.6068379869684,3.0,1.0,phase_1,,,,,,,,,,,,,blue,square
181.0,3.0,3.0,0.0,1.0,1.0,275.7825650041923,3.0,1.0,phase_1,,,,,,,,,,,,,green,cross
403.0,8.0,4.0,1.0,1.0,1.0,336.533076944761,3.0,1.0,phase_1,,,,,,,,,,,,,gray,hexagon
408.0,8.0,4.0,1.0,4.0,4.0,430.3558480460197,3.0,1.0,phase_1,,,,,,,,,,,,,gray,hexagon
85.0,2.0,2.0,0.0,2.0,2.0,434.8736340180039,3.0,1.0,phase_1,,,,,,,,,,,,,white,diamond
186.0,3.0,3.0,0.0,4.0,4.0,517.7871930645779,3.0,1.0,phase_1,,,,,,,,,,,,,green,cross
37.0,1.0,1.0,0.0,4.0,4.0,373.8938289461657,3.0,1.0,phase_1,,,,,,,,,,,,,yellow,triangle
175.0,3.0,3.0,0.0,4.0,4.0,352.4378300644457,3.0,1.0,phase_1,,,,,,,,,,,,,green,cross
0.0,6.0,0.0,1.0,4.0,4.0,301.6551600303501,3.0,1.0,phase_1,,,,,,,,,,,,,blue,square
191.0,7.0,3.0,1.0,4.0,4.0,299.5489239692688,3.0,1.0,phase_1,,,,,,,,,,,,,orange,flipped triangle
87.0,2.0,2.0,0.0,2.0,2.0,271.7384069692343,3.0,1.0,phase_1,,,,,,,,,,,,,white,diamond
65.0,1.0,1.0,0.0,2.0,2.0,282.3271449888125,3.0,1.0,phase_1,,,,,,,,,,,,,yellow,triangle
82.0,2.0,2.0,0.0,1.0,1.0,569.6586079429835,3.0,1.0,phase_1,,,,,,,,,,,,,white,diamond
178.0,7.0,3.0,1.0,2.0,2.0,383.1504579866305,3.0,1.0,phase_1,,,,,,,,,,,,,orange,flipped triangle
400.0,4.0,4.0,0.0,1.0,1.0,632.61925696861,3.0,1.0,phase_1,,,,,,,,,,,,,magenta,I
399.0,4.0,4.0,0.0,3.0,3.0,941.3976520299911,3.0,1.0,phase_1,,,,,,,,,,,,,magenta,I
405.0,8.0,4.0,1.0,4.0,4.0,323.6041499767452,3.0,1.0,phase_1,,,,,,,,,,,,,gray,hexagon
416.0,4.0,4.0,0.0,3.0,3.0,318.9666490070522,3.0,1.0,phase_1,,,,,,,,,,,,,magenta,I
202.0,7.0,3.0,1.0,3.0,3.0,382.3561780154705,3.0,1.0,phase_1,,,,,,,,,,,,,orange,flipped triangle
0.0,3.0,0.0,0.0,2.0,2.0,319.2776809446513,3.0,1.0,phase_1,,,,,,,,,,,,,green,cross
0.0,5.0,0.0,1.0,1.0,1.0,311.2370290327817,3.0,1.0,phase_1,,,,,,,,,,,,,cyan,circle
77.0,6.0,2.0,1.0,2.0,2.0,378.0215539736673,3.0,1.0,phase_1,,,,,,,,,,,,,blue,square
205.0,7.0,3.0,1.0,3.0,3.0,416.35940899141127,3.0,1.0,phase_1,,,,,,,,,,,,,orange,flipped triangle
81.0,2.0,2.0,0.0,2.0,2.0,372.7492679608986,3.0,1.0,phase_1,,,,,,,,,,,,,white,diamond
94.0,2.0,2.0,0.0,3.0,3.0,328.6807519616559,3.0,1.0,phase_1,,,,,,,,,,,,,white,diamond
124.0,2.0,2.0,0.0,1.0,1.0,333.2204719772562,3.0,1.0,phase_1,,,,,,,,,,,,,white,diamond
106.0,2.0,2.0,0.0,3.0,3.0,323.4975920058787,3.0,1.0,phase_1,,,,,,,,,,,,,white,diamond
31.0,1.0,1.0,0.0,4.0,4.0,374.0645850775763,3.0,1.0,phase_1,,,,,,,,,,,,,yellow,triangle
408.0,4.0,4.0,0.0,1.0,1.0,299.9021529685706,3.0,1.0,phase_1,,,,,,,,,,,,,magenta,I
210.0,7.0,3.0,1.0,1.0,1.0,319.0561300143599,3.0,1.0,phase_1,,,,,,,,,,,,,orange,flipped triangle
31.0,5.0,1.0,1.0,3.0,3.0,348.7797799753025,3.0,1.0,phase_1,,,,,,,,,,,,,cyan,circle
0.0,8.0,0.0,1.0,4.0,4.0,327.8504180489108,3.0,1.0,phase_1,,,,,,,,,,,,,gray,hexagon
377.0,8.0,4.0,1.0,2.0,2.0,502.16776004526764,3.0,1.0,phase_1,,,,,,,,,,,,,gray,hexagon
219.0,3.0,3.0,0.0,2.0,2.0,356.73369304276997,3.0,1.0,phase_1,,,,,,,,,,,,,green,cross
0.0,1.0,0.0,0.0,2.0,2.0,345.4768650699407,3.0,1.0,phase_1,,,,,,,,,,,,,yellow,triangle
421.0,8.0,4.0,1.0,1.0,1.0,365.8188540721312,3.0,1.0,phase_1,,,,,,,,,,,,,gray,hexagon
0.0,2.0,0.0,0.0,2.0,2.0,296.2457370012998,3.0,1.0,phase_1,,,,,,,,,,,,,white,diamond
419.0,8.0,4.0,1.0,3.0,3.0,525.4713189788163,3.0,1.0,phase_1,,,,,,,,,,,,,gray,hexagon
0.0,6.0,0.0,1.0,4.0,4.0,312.7992510562762,3.0,1.0,phase_1,,,,,,,,,,,,,blue,square
405.0,8.0,4.0,1.0,2.0,2.0,324.993908056058,3.0,1.0,phase_1,,,,,,,,,,,,,gray,hexagon
203.0,7.0,3.0,1.0,3.0,3.0,323.665444040671,3.0,1.0,phase_1,,,,,,,,,,,,,orange,flipped triangle
29.0,5.0,1.0,1.0,4.0,4.0,369.2990900017321,3.0,1.0,phase_1,,,,,,,,,,,,,cyan,circle
199.0,3.0,3.0,0.0,4.0,4.0,405.7027288945392,3.0,1.0,phase_1,,,,,,,,,,,,,green,cross
378.0,8.0,4.0,1.0,3.0,3.0,384.584167972207,3.0,1.0,phase_1,,,,,,,,,,,,,gray,hexagon
57.0,5.0,1.0,1.0,1.0,1.0,357.4007779825479,3.0,1.0,phase_1,,,,,,,,,,,,,cyan,circle
0.0,5.0,0.0,1.0,3.0,3.0,377.9063139809295,3.0,1.0,phase_1,,,,,,,,,,,,,cyan,circle
43.0,1.0,1.0,0.0,1.0,1.0,406.3128480920568,3.0,2.0,phase_1,,,,,,,,,,,,,yellow,triangle
64.0,1.0,1.0,0.0,3.0,3.0,332.2453949367627,3.0,2.0,phase_1,,,,,,,,,,,,,yellow,triangle
186.0,7.0,3.0,1.0,1.0,1.0,426.1252890573814,3.0,1.0,phase_1,,,,,,,,,,,,,orange,flipped triangle
181.0,7.0,3.0,1.0,4.0,4.0,407.8184800455346,3.0,1.0,phase_1,,,,,,,,,,,,,orange,flipped triangle
0.0,6.0,0.0,1.0,1.0,1.0,413.4517940692603,3.0,1.0,phase_1,,,,,,,,,,,,,blue,square
195.0,3.0,3.0,0.0,1.0,1.0,378.9654850261286,3.0,1.0,phase_1,,,,,,,,,,,,,green,cross
81.0,6.0,2.0,1.0,2.0,2.0,333.1735769752413,3.0,1.0,phase_1,,,,,,,,,,,,,blue,square
176.0,3.0,3.0,0.0,4.0,4.0,315.7546450383961,3.0,1.0,phase_1,,,,,,,,,,,,,green,cross
124.0,6.0,2.0,1.0,2.0,2.0,406.989729963243,3.0,1.0,phase_1,,,,,,,,,,,,,blue,square
96.0,6.0,2.0,1.0,4.0,4.0,427.0013628993183,3.0,1.0,phase_1,,,,,,,,,,,,,blue,square
383.0,4.0,4.0,0.0,4.0,4.0,399.277773918584,3.0,1.0,phase_1,,,,,,,,,,,,,magenta,I
219.0,3.0,3.0,0.0,3.0,3.0,332.2878000326454,3.0,1.0,phase_1,,,,,,,,,,,,,green,cross
91.0,6.0,2.0,1.0,1.0,1.0,307.8743750229478,3.0,1.0,phase_1,,,,,,,,,,,,,blue,square
194.0,7.0,3.0,1.0,2.0,2.0,294.7800720576197,3.0,1.0,phase_1,,,,,,,,,,,,,orange,flipped triangle
0.0,8.0,0.0,1.0,3.0,3.0,301.2104239314794,3.0,1.0,phase_1,,,,,,,,,,,,,gray,hexagon
0.0,5.0,0.0,1.0,2.0,2.0,389.5891179563477,3.0,1.0,phase_1,,,,,,,,,,,,,cyan,circle
53.0,1.0,1.0,0.0,1.0,1.0,394.7698919801041,3.0,1.0,phase_1,,,,,,,,,,,,,yellow,triangle
405.0,4.0,4.0,0.0,3.0,3.0,345.1419370248914,3.0,1.0,phase_1,,,,,,,,,,,,,magenta,I
90.0,6.0,2.0,1.0,3.0,3.0,360.0470899837091,3.0,1.0,phase_1,,,,,,,,,,,,,blue,square
414.0,4.0,4.0,0.0,2.0,2.0,408.3306500688195,3.0,1.0,phase_1,,,,,,,,,,,,,magenta,I
55.0,5.0,1.0,1.0,4.0,4.0,398.4324779594317,3.0,1.0,phase_1,,,,,,,,,,,,,cyan,circle
47.0,5.0,1.0,1.0,3.0,3.0,356.7169770831242,3.0,1.0,phase_1,,,,,,,,,,,,,cyan,circle
414.0,8.0,4.0,1.0,4.0,4.0,393.6720340279862,4.0,1.0,phase_1,,,,,,,,,,,,,gray,hexagon
0.0,3.0,0.0,0.0,4.0,4.0,318.9139739843085,4.0,1.0,phase_1,,,,,,,,,,,,,green,cross
29.0,1.0,1.0,0.0,3.0,3.0,310.7214460615068,4.0,1.0,phase_1,,,,,,,,,,,,,yellow,triangle
118.0,6.0,2.0,1.0,4.0,4.0,314.4378730794415,4.0,1.0,phase_1,,,,,,,,,,,,,blue,square
0.0,7.0,0.0,1.0,1.0,1.0,286.3792920252308,4.0,1.0,phase_1,,,,,,,,,,,,,orange,flipped triangle
0.0,6.0,0.0,1.0,1.0,1.0,294.69093400985,4.0,2.0,phase_1,,,,,,,,,,,,,blue,square
0.0,1.0,0.0,0.0,2.0,2.0,289.9461470078677,4.0,1.0,phase_1,,,,,,,,,,,,,yellow,triangle
202.0,3.0,3.0,0.0,2.0,2.0,360.9115390572697,4.0,1.0,phase_1,,,,,,,,,,,,,green,cross
0.0,1.0,0.0,0.0,4.0,4.0,324.174320907332,4.0,1.0,phase_1,,,,,,,,,,,,,yellow,triangle
47.0,1.0,1.0,0.0,3.0,3.0,283.9691940462217,4.0,1.0,phase_1,,,,,,,,,,,,,yellow,triangle
46.0,1.0,1.0,0.0,4.0,4.0,541.7881320463493,4.0,1.0,phase_1,,,,,,,,,,,,,yellow,triangle
191.0,3.0,3.0,0.0,2.0,2.0,299.8290659161284,4.0,1.0,phase_1,,,,,,,,,,,,,green,cross
219.0,7.0,3.0,1.0,1.0,1.0,337.2933639911935,4.0,1.0,phase_1,,,,,,,,,,,,,orange,flipped triangle
94.0,6.0,2.0,1.0,1.0,1.0,299.3156210286543,4.0,1.0,phase_1,,,,,,,,,,,,,blue,square
395.0,4.0,4.0,0.0,4.0,4.0,314.701693947427,4.0,1.0,phase_1,,,,,,,,,,,,,magenta,I
403.0,4.0,4.0,0.0,3.0,3.0,296.2770059239119,4.0,1.0,phase_1,,,,,,,,,,,,,magenta,I
196.0,7.0,3.0,1.0,2.0,2.0,402.6140329660848,4.0,1.0,phase_1,,,,,,,,,,,,,orange,flipped triangle
0.0,5.0,0.0,1.0,3.0,3.0,360.0240309024229,4.0,1.0,phase_1,,,,,,,,,,,,,cyan,circle
387.0,8.0,4.0,1.0,2.0,2.0,300.0644809799269,4.0,1.0,phase_1,,,,,,,,,,,,,gray,hexagon
408.0,4.0,4.0,0.0,4.0,4.0,345.2637059381231,4.0,1.0,phase_1,,,,,,,,,,,,,magenta,I
37.0,1.0,1.0,0.0,3.0,3.0,295.6356060458347,4.0,1.0,phase_1,,,,,,,,,,,,,yellow,triangle
194.0,3.0,3.0,0.0,2.0,2.0,385.2698430418968,4.0,1.0,phase_1,,,,,,,,,,,,,green,cross
187.0,7.0,3.0,1.0,3.0,3.0,303.9938699221238,4.0,1.0,phase_1,,,,,,,,,,,,,orange,flipped triangle
100.0,6.0,2.0,1.0,3.0,3.0,279.2898039333522,4.0,1.0,phase_1,,,,,,,,,,,,,blue,square
57.0,5.0,1.0,1.0,3.0,3.0,278.7711409619078,4.0,1.0,phase_1,,,,,,,,,,,,,cyan,circle
221.0,3.0,3.0,0.0,2.0,2.0,278.2825010363012,4.0,1.0,phase_1,,,,,,,,,,,,,green,cross
101.0,2.0,2.0,0.0,1.0,1.0,290.8737519755959,4.0,1.0,phase_1,,,,,,,,,,,,,white,diamond
178.0,3.0,3.0,0.0,3.0,3.0,344.7103780927136,4.0,1.0,phase_1,,,,,,,,,,,,,green,cross
84.0,6.0,2.0,1.0,2.0,2.0,299.1545590339228,4.0,1.0,phase_1,,,,,,,,,,,,,blue,square
207.0,3.0,3.0,0.0,1.0,1.0,250.41173992212862,4.0,1.0,phase_1,,,,,,,,,,,,,green,cross
122.0,2.0,2.0,0.0,3.0,3.0,619.9912120355293,4.0,1.0,phase_1,,,,,,,,,,,,,white,diamond
50.0,5.0,1.0,1.0,4.0,4.0,311.7711810627952,4.0,1.0,phase_1,,,,,,,,,,,,,cyan,circle
424.0,4.0,4.0,0.0,4.0,4.0,320.1625940855592,4.0,1.0,phase_1,,,,,,,,,,,,,magenta,I
415.0,8.0,4.0,1.0,3.0,3.0,410.6016999576241,4.0,1.0,phase_1,,,,,,,,,,,,,gray,hexagon
63.0,5.0,1.0,1.0,4.0,4.0,343.6537900706753,4.0,1.0,phase_1,,,,,,,,,,,,,cyan,circle
424.0,4.0,4.0,0.0,3.0,3.0,316.0270319785923,4.0,1.0,phase_1,,,,,,,,,,,,,magenta,I
0.0,5.0,0.0,1.0,4.0,4.0,270.8928909851238,4.0,1.0,phase_1,,,,,,,,,,,,,cyan,circle
0.0,8.0,0.0,1.0,1.0,1.0,329.0760189993307,4.0,2.0,phase_1,,,,,,,,,,,,,gray,hexagon
0.0,5.0,0.0,1.0,4.0,4.0,308.7475500069558,4.0,2.0,phase_1,,,,,,,,,,,,,cyan,circle
0.0,3.0,0.0,0.0,1.0,1.0,425.7117639062926,4.0,1.0,phase_1,,,,,,,,,,,,,green,cross
0.0,3.0,0.0,0.0,1.0,1.0,259.6383489435538,4.0,1.0,phase_1,,,,,,,,,,,,,green,cross
207.0,7.0,3.0,1.0,2.0,2.0,735.6589600676671,4.0,1.0,phase_1,,,,,,,,,,,,,orange,flipped triangle
0.0,3.0,0.0,0.0,4.0,4.0,335.6192460050806,4.0,1.0,phase_1,,,,,,,,,,,,,green,cross
77.0,2.0,2.0,0.0,2.0,2.0,268.145203939639,4.0,1.0,phase_1,,,,,,,,,,,,,white,diamond
199.0,7.0,3.0,1.0,3.0,3.0,277.9956610174849,4.0,1.0,phase_1,,,,,,,,,,,,,orange,flipped triangle
378.0,4.0,4.0,0.0,1.0,1.0,314.4671060144901,4.0,1.0,phase_1,,,,,,,,,,,,,magenta,I
82.0,6.0,2.0,1.0,1.0,1.0,352.7399089653045,4.0,1.0,phase_1,,,,,,,,,,,,,blue,square
195.0,7.0,3.0,1.0,1.0,1.0,488.1059740437194,4.0,1.0,phase_1,,,,,,,,,,,,,orange,flipped triangle
188.0,7.0,3.0,1.0,4.0,4.0,423.1247660936788,4.0,2.0,phase_1,,,,,,,,,,,,,orange,flipped triangle
93.0,6.0,2.0,1.0,2.0,2.0,381.0070100007579,4.0,1.0,phase_1,,,,,,,,,,,,,blue,square
223.0,7.0,3.0,1.0,2.0,2.0,335.918728960678,4.0,1.0,phase_1,,,,,,,,,,,,,orange,flipped triangle
392.0,8.0,4.0,1.0,1.0,1.0,447.6107970112934,4.0,1.0,phase_1,,,,,,,,,,,,,gray,hexagon
0.0,4.0,0.0,0.0,2.0,2.0,320.3487549908459,4.0,1.0,phase_1,,,,,,,,,,,,,magenta,I
421.0,4.0,4.0,0.0,2.0,2.0,320.178444031626,4.0,1.0,phase_1,,,,,,,,,,,,,magenta,I
67.0,5.0,1.0,1.0,2.0,2.0,349.0852720569819,4.0,1.0,phase_1,,,,,,,,,,,,,cyan,circle
0.0,4.0,0.0,0.0,2.0,2.0,345.2395770000294,4.0,1.0,phase_1,,,,,,,,,,,,,magenta,I
109.0,2.0,2.0,0.0,4.0,4.0,319.5453869411722,4.0,2.0,phase_1,,,,,,,,,,,,,white,diamond
211.0,7.0,3.0,1.0,1.0,1.0,380.5967359803617,4.0,1.0,phase_1,,,,,,,,,,,,,orange,flipped triangle
111.0,6.0,2.0,1.0,3.0,3.0,329.2173909721896,4.0,1.0,phase_1,,,,,,,,,,,,,blue,square
0.0,7.0,0.0,1.0,4.0,4.0,319.8243579827249,4.0,1.0,phase_1,,,,,,,,,,,,,orange,flipped triangle
47.0,5.0,1.0,1.0,2.0,2.0,658.4678259678185,4.0,1.0,phase_1,,,,,,,,,,,,,cyan,circle
0.0,6.0,0.0,1.0,3.0,3.0,369.9694729875773,4.0,1.0,phase_1,,,,,,,,,,,,,blue,square
0.0,1.0,0.0,0.0,1.0,1.0,390.6844400335103,4.0,1.0,phase_1,,,,,,,,,,,,,yellow,triangle
0.0,4.0,0.0,0.0,2.0,2.0,307.6298630330711,4.0,1.0,phase_1,,,,,,,,,,,,,magenta,I
403.0,8.0,4.0,1.0,2.0,2.0,311.9594720192253,4.0,1.0,phase_1,,,,,,,,,,,,,gray,hexagon
199.0,3.0,3.0,0.0,2.0,2.0,321.5739179868251,4.0,1.0,phase_1,,,,,,,,,,,,,green,cross
120.0,6.0,2.0,1.0,3.0,3.0,689.3747340654954,4.0,1.0,phase_1,,,,,,,,,,,,,blue,square
67.0,1.0,1.0,0.0,1.0,1.0,427.1325370064005,4.0,1.0,phase_1,,,,,,,,,,,,,yellow,triangle
94.0,2.0,2.0,0.0,3.0,3.0,274.7239950112998,4.0,1.0,phase_1,,,,,,,,,,,,,white,diamond
76.0,2.0,2.0,0.0,1.0,1.0,262.9316028906032,4.0,1.0,phase_1,,,,,,,,,,,,,white,diamond
0.0,5.0,0.0,1.0,3.0,3.0,289.7942729759961,4.0,1.0,phase_1,,,,,,,,,,,,,cyan,circle
101.0,6.0,2.0,1.0,1.0,1.0,286.9855130556971,4.0,1.0,phase_1,,,,,,,,,,,,,blue,square
412.0,4.0,4.0,0.0,1.0,1.0,331.2794490484521,4.0,1.0,phase_1,,,,,,,,,,,,,magenta,I
419.0,4.0,4.0,0.0,4.0,4.0,946.5851689456032,4.0,1.0,phase_1,,,,,,,,,,,,,magenta,I
99.0,6.0,2.0,1.0,4.0,4.0,348.6280880169943,4.0,1.0,phase_1,,,,,,,,,,,,,blue,square
106.0,6.0,2.0,1.0,4.0,4.0,274.6298629790544,4.0,1.0,phase_1,,,,,,,,,,,,,blue,square
204.0,7.0,3.0,1.0,1.0,1.0,344.3060329882428,4.0,1.0,phase_1,,,,,,,,,,,,,orange,flipped triangle
0.0,8.0,0.0,1.0,1.0,1.0,356.8651640089229,4.0,1.0,phase_1,,,,,,,,,,,,,gray,hexagon
0.0,8.0,0.0,1.0,2.0,2.0,351.3502299319953,4.0,1.0,phase_1,,,,,,,,,,,,,gray,hexagon
193.0,3.0,3.0,0.0,1.0,1.0,434.1973699629307,4.0,2.0,phase_1,,,,,,,,,,,,,green,cross
113.0,6.0,2.0,1.0,1.0,1.0,327.4269280955195,4.0,1.0,phase_1,,,,,,,,,,,,,blue,square
0.0,6.0,0.0,1.0,4.0,4.0,467.1302540227771,4.0,1.0,phase_1,,,,,,,,,,,,,blue,square
199.0,3.0,3.0,0.0,1.0,1.0,318.5671089449897,4.0,1.0,phase_1,,,,,,,,,,,,,green,cross
57.0,1.0,1.0,0.0,3.0,3.0,836.7511699907482,4.0,1.0,phase_1,,,,,,,,,,,,,yellow,triangle
379.0,4.0,4.0,0.0,4.0,4.0,303.8152629742399,4.0,1.0,phase_1,,,,,,,,,,,,,magenta,I
0.0,2.0,0.0,0.0,3.0,3.0,455.9706829022616,4.0,1.0,phase_1,,,,,,,,,,,,,white,diamond
389.0,8.0,4.0,1.0,3.0,3.0,378.7923149066046,4.0,1.0,phase_1,,,,,,,,,,,,,gray,hexagon
389.0,4.0,4.0,0.0,2.0,2.0,312.7527170581743,4.0,1.0,phase_1,,,,,,,,,,,,,magenta,I
193.0,7.0,3.0,1.0,3.0,3.0,422.1454019425437,4.0,1.0,phase_1,,,,,,,,,,,,,orange,flipped triangle
50.0,1.0,1.0,0.0,2.0,2.0,327.615046990104,4.0,1.0,phase_1,,,,,,,,,,,,,yellow,triangle
65.0,5.0,1.0,1.0,3.0,3.0,299.0203649969771,4.0,2.0,phase_1,,,,,,,,,,,,,cyan,circle
0.0,8.0,0.0,1.0,2.0,2.0,304.5051099034026,4.0,1.0,phase_1,,,,,,,,,,,,,gray,hexagon
52.0,5.0,1.0,1.0,4.0,4.0,355.8933840831741,4.0,1.0,phase_1,,,,,,,,,,,,,cyan,circle
0.0,7.0,0.0,1.0,4.0,4.0,382.170969969593,4.0,1.0,phase_1,,,,,,,,,,,,,orange,flipped triangle
415.0,4.0,4.0,0.0,1.0,1.0,355.7479529408738,4.0,1.0,phase_1,,,,,,,,,,,,,magenta,I
408.0,8.0,4.0,1.0,3.0,3.0,512.6860350137576,4.0,1.0,phase_1,,,,,,,,,,,,,gray,hexagon
223.0,3.0,3.0,0.0,1.0,1.0,288.1576200015843,4.0,1.0,phase_1,,,,,,,,,,,,,green,cross
178.0,3.0,3.0,0.0,2.0,2.0,265.3840039856732,4.0,1.0,phase_1,,,,,,,,,,,,,green,cross
415.0,8.0,4.0,1.0,1.0,1.0,327.1361539373174,4.0,1.0,phase_1,,,,,,,,,,,,,gray,hexagon
398.0,8.0,4.0,1.0,3.0,3.0,406.8145039491355,4.0,1.0,phase_1,,,,,,,,,,,,,gray,hexagon
0.0,5.0,1.0,1.0,5.0,5.0,695.8845109911636,1.0,1.0,phase_2,stop,250.0,250.0,3.0,,,,,,,,,cyan,circle
0.0,3.0,3.0,0.0,5.0,5.0,622.3281290149316,1.0,1.0,phase_2,go,200.0,250.0,1.0,,,,,,,,,green,cross
0.0,3.0,3.0,0.0,5.0,5.0,836.9798739440739,1.0,1.0,phase_2,go,200.0,250.0,1.0,,,,,,,,,green,cross
0.0,5.0,1.0,1.0,6.0,0.0,0.0,1.0,1.0,phase_2,stop,200.0,250.0,4.0,,,,,,,,,cyan,circle
0.0,3.0,3.0,0.0,5.0,5.0,389.4927069777623,1.0,1.0,phase_2,go,200.0,300.0,1.0,,,,,,,,,green,cross
0.0,5.0,1.0,1.0,5.0,0.0,0.0,1.0,1.0,phase_2,stop,200.0,300.0,4.0,,,,,,,,,cyan,circle
0.0,7.0,3.0,1.0,5.0,5.0,538.2795589976013,1.0,1.0,phase_2,stop,250.0,300.0,3.0,,,,,,,,,orange,flipped triangle
0.0,2.0,2.0,0.0,6.0,6.0,472.8264959994703,1.0,1.0,phase_2,go,200.0,300.0,1.0,,,,,,,,,white,diamond
0.0,8.0,4.0,1.0,6.0,6.0,475.2878970466554,1.0,1.0,phase_2,stop,200.0,300.0,3.0,,,,,,,,,gray,hexagon
0.0,6.0,2.0,1.0,5.0,5.0,1175.7278209552169,1.0,1.0,phase_2,go,200.0,250.0,1.0,,,,,,,,,blue,square
0.0,1.0,1.0,0.0,6.0,6.0,882.6124100014567,1.0,1.0,phase_2,go,200.0,250.0,1.0,,,,,,,,,yellow,triangle
0.0,8.0,4.0,1.0,5.0,5.0,702.7982160216197,1.0,1.0,phase_2,go,200.0,250.0,1.0,,,,,,,,,gray,hexagon
0.0,7.0,3.0,1.0,5.0,0.0,0.0,1.0,1.0,phase_2,stop,200.0,250.0,4.0,,,,,,,,,orange,flipped triangle
0.0,5.0,1.0,1.0,6.0,6.0,686.9506039656699,1.0,1.0,phase_2,go,250.0,250.0,1.0,,,,,,,,,cyan,circle
0.0,7.0,3.0,1.0,6.0,0.0,0.0,1.0,1.0,phase_2,stop,250.0,250.0,4.0,,,,,,,,,orange,flipped triangle
0.0,2.0,2.0,0.0,5.0,5.0,651.2781690107659,1.0,1.0,phase_2,go,250.0,300.0,1.0,,,,,,,,,white,diamond
0.0,6.0,2.0,1.0,6.0,0.0,0.0,1.0,1.0,phase_2,stop,250.0,300.0,4.0,,,,,,,,,blue,square
0.0,3.0,3.0,0.0,6.0,6.0,741.0537609830499,1.0,1.0,phase_2,go,250.0,350.0,1.0,,,,,,,,,green,cross
0.0,4.0,4.0,0.0,5.0,5.0,722.776003065519,1.0,1.0,phase_2,go,250.0,350.0,1.0,,,,,,,,,magenta,I
0.0,7.0,3.0,1.0,6.0,6.0,612.2692350763828,1.0,1.0,phase_2,go,250.0,350.0,1.0,,,,,,,,,orange,flipped triangle
0.0,1.0,1.0,0.0,6.0,6.0,404.9339409684762,1.0,1.0,phase_2,go,250.0,350.0,1.0,,,,,,,,,yellow,triangle
0.0,5.0,1.0,1.0,5.0,0.0,0.0,1.0,1.0,phase_2,stop,250.0,350.0,4.0,,,,,,,,,cyan,circle
0.0,1.0,1.0,0.0,6.0,6.0,330.7988418964669,1.0,1.0,phase_2,go,300.0,350.0,1.0,,,,,,,,,yellow,triangle
0.0,8.0,4.0,1.0,5.0,0.0,0.0,1.0,1.0,phase_2,stop,300.0,350.0,4.0,,,,,,,,,gray,hexagon
0.0,1.0,1.0,0.0,5.0,5.0,623.7935719545931,1.0,1.0,phase_2,go,350.0,350.0,1.0,,,,,,,,,yellow,triangle
0.0,2.0,2.0,0.0,5.0,5.0,454.4987929984927,1.0,1.0,phase_2,go,350.0,350.0,1.0,,,,,,,,,white,diamond
0.0,8.0,4.0,1.0,5.0,5.0,465.7158519839868,1.0,1.0,phase_2,stop,350.0,350.0,3.0,,,,,,,,,gray,hexagon
0.0,1.0,1.0,0.0,6.0,6.0,909.7524030366912,1.0,1.0,phase_2,go,300.0,350.0,1.0,,,,,,,,,yellow,triangle
0.0,5.0,1.0,1.0,6.0,0.0,0.0,1.0,1.0,phase_2,stop,300.0,350.0,4.0,,,,,,,,,cyan,circle
0.0,2.0,2.0,0.0,5.0,5.0,559.0177559060976,1.0,1.0,phase_2,go,300.0,400.0,1.0,,,,,,,,,white,diamond
0.0,3.0,3.0,0.0,5.0,5.0,643.7990129925311,1.0,1.0,phase_2,go,300.0,400.0,1.0,,,,,,,,,green,cross
0.0,3.0,3.0,0.0,6.0,6.0,646.2475670268759,1.0,1.0,phase_2,go,300.0,400.0,1.0,,,,,,,,,green,cross
0.0,2.0,2.0,0.0,5.0,5.0,740.3695690445602,1.0,1.0,phase_2,go,300.0,400.0,1.0,,,,,,,,,white,diamond
0.0,6.0,2.0,1.0,5.0,0.0,0.0,1.0,1.0,phase_2,stop,300.0,400.0,4.0,,,,,,,,,blue,square
0.0,3.0,3.0,0.0,6.0,6.0,434.4972360413521,1.0,1.0,phase_2,go,350.0,400.0,1.0,,,,,,,,,green,cross
0.0,4.0,4.0,0.0,5.0,5.0,424.4503700174391,1.0,1.0,phase_2,go,350.0,400.0,1.0,,,,,,,,,magenta,I
0.0,4.0,4.0,0.0,6.0,6.0,1221.467857947573,2.0,1.0,phase_2,go,350.0,400.0,1.0,,,,,,,,,magenta,I
0.0,5.0,1.0,1.0,6.0,6.0,340.1907300576567,2.0,1.0,phase_2,stop,350.0,400.0,3.0,,,,,,,,,cyan,circle
0.0,3.0,3.0,0.0,5.0,5.0,430.0881770905107,2.0,1.0,phase_2,go,350.0,350.0,1.0,,,,,,,,,green,cross
0.0,8.0,4.0,1.0,5.0,0.0,0.0,2.0,1.0,phase_2,stop,350.0,350.0,4.0,,,,,,,,,gray,hexagon
0.0,3.0,3.0,0.0,5.0,5.0,849.2395799839869,2.0,1.0,phase_2,go,400.0,350.0,1.0,,,,,,,,,green,cross
0.0,4.0,4.0,0.0,5.0,5.0,675.6862270412967,2.0,1.0,phase_2,go,400.0,350.0,1.0,,,,,,,,,magenta,I
0.0,4.0,4.0,0.0,6.0,6.0,616.6195549303666,2.0,1.0,phase_2,go,400.0,350.0,1.0,,,,,,,,,magenta,I
0.0,5.0,1.0,1.0,6.0,0.0,0.0,2.0,1.0,phase_2,stop,400.0,350.0,4.0,,,,,,,,,cyan,circle
0.0,7.0,3.0,1.0,6.0,0.0,0.0,2.0,1.0,phase_2,stop,400.0,400.0,4.0,,,,,,,,,orange,flipped triangle
0.0,6.0,2.0,1.0,5.0,5.0,305.0396930193528,2.0,1.0,phase_2,stop,400.0,450.0,3.0,,,,,,,,,blue,square
0.0,6.0,2.0,1.0,6.0,6.0,457.33215694781387,2.0,1.0,phase_2,go,350.0,450.0,1.0,,,,,,,,,blue,square
0.0,6.0,2.0,1.0,5.0,0.0,0.0,2.0,1.0,phase_2,stop,350.0,450.0,4.0,,,,,,,,,blue,square
0.0,3.0,3.0,0.0,6.0,6.0,629.413512069732,2.0,1.0,phase_2,go,400.0,450.0,1.0,,,,,,,,,green,cross
0.0,4.0,4.0,0.0,6.0,6.0,576.0392110096291,2.0,1.0,phase_2,go,400.0,450.0,1.0,,,,,,,,,magenta,I
0.0,8.0,4.0,1.0,6.0,0.0,0.0,2.0,1.0,phase_2,stop,400.0,450.0,4.0,,,,,,,,,gray,hexagon
0.0,4.0,4.0,0.0,5.0,5.0,619.5509259123355,2.0,1.0,phase_2,go,400.0,500.0,1.0,,,,,,,,,magenta,I
0.0,4.0,4.0,0.0,6.0,6.0,734.2423769878224,2.0,1.0,phase_2,go,400.0,500.0,1.0,,,,,,,,,magenta,I
0.0,8.0,4.0,1.0,5.0,0.0,0.0,2.0,1.0,phase_2,go,400.0,500.0,5.0,,,,,,,,,gray,hexagon
0.0,6.0,2.0,1.0,5.0,5.0,423.5894699813798,2.0,1.0,phase_2,stop,400.0,500.0,3.0,,,,,,,,,blue,square
0.0,3.0,3.0,0.0,5.0,5.0,812.8167249960825,2.0,1.0,phase_2,go,350.0,500.0,1.0,,,,,,,,,green,cross
0.0,8.0,4.0,1.0,6.0,0.0,0.0,2.0,1.0,phase_2,stop,350.0,500.0,4.0,,,,,,,,,gray,hexagon
0.0,6.0,2.0,1.0,5.0,0.0,0.0,2.0,1.0,phase_2,stop,350.0,550.0,4.0,,,,,,,,,blue,square
0.0,1.0,1.0,0.0,6.0,6.0,570.8042900077999,2.0,1.0,phase_2,go,400.0,550.0,1.0,,,,,,,,,yellow,triangle
0.0,8.0,4.0,1.0,6.0,6.0,689.2610850045457,2.0,1.0,phase_2,go,400.0,550.0,1.0,,,,,,,,,gray,hexagon
0.0,3.0,3.0,0.0,5.0,5.0,520.7060490502045,2.0,1.0,phase_2,go,400.0,550.0,1.0,,,,,,,,,green,cross
0.0,6.0,2.0,1.0,6.0,6.0,649.6821739710867,2.0,1.0,phase_2,stop,400.0,550.0,3.0,,,,,,,,,blue,square
0.0,1.0,1.0,0.0,6.0,6.0,622.2361590480432,2.0,1.0,phase_2,go,400.0,500.0,1.0,,,,,,,,,yellow,triangle
0.0,1.0,1.0,0.0,5.0,5.0,712.3687230050564,2.0,1.0,phase_2,go,400.0,500.0,1.0,,,,,,,,,yellow,triangle
0.0,6.0,2.0,1.0,5.0,0.0,0.0,2.0,1.0,phase_2,stop,400.0,500.0,4.0,,,,,,,,,blue,square
0.0,7.0,3.0,1.0,5.0,0.0,0.0,2.0,1.0,phase_2,go,450.0,500.0,5.0,,,,,,,,,orange,flipped triangle
0.0,4.0,4.0,0.0,6.0,6.0,644.244204973802,2.0,1.0,phase_2,go,450.0,500.0,1.0,,,,,,,,,magenta,I
0.0,3.0,3.0,0.0,5.0,5.0,563.9361289795488,2.0,1.0,phase_2,go,450.0,500.0,1.0,,,,,,,,,green,cross
0.0,1.0,1.0,0.0,5.0,5.0,429.039538023062,2.0,1.0,phase_2,go,450.0,500.0,1.0,,,,,,,,,yellow,triangle
0.0,8.0,4.0,1.0,5.0,5.0,554.2070339433849,2.0,1.0,phase_2,stop,450.0,500.0,3.0,,,,,,,,,gray,hexagon
0.0,6.0,2.0,1.0,5.0,5.0,715.8446270041168,2.0,1.0,phase_2,stop,400.0,500.0,3.0,,,,,,,,,blue,square
0.0,8.0,4.0,1.0,6.0,0.0,0.0,2.0,1.0,phase_2,stop,350.0,500.0,4.0,,,,,,,,,gray,hexagon
0.0,3.0,3.0,0.0,6.0,6.0,895.593588007614,3.0,1.0,phase_2,go,350.0,550.0,1.0,,,,,,,,,green,cross
0.0,6.0,2.0,1.0,6.0,0.0,0.0,3.0,1.0,phase_2,stop,350.0,550.0,4.0,,,,,,,,,blue,square
0.0,4.0,4.0,0.0,5.0,5.0,702.540687052533,3.0,1.0,phase_2,go,350.0,600.0,1.0,,,,,,,,,magenta,I
0.0,8.0,4.0,1.0,6.0,0.0,0.0,3.0,1.0,phase_2,go,350.0,600.0,5.0,,,,,,,,,gray,hexagon
0.0,2.0,2.0,0.0,6.0,6.0,732.8553179977462,3.0,1.0,phase_2,go,350.0,600.0,1.0,,,,,,,,,white,diamond
0.0,5.0,1.0,1.0,5.0,0.0,0.0,3.0,1.0,phase_2,stop,350.0,600.0,4.0,,,,,,,,,cyan,circle
0.0,4.0,4.0,0.0,6.0,6.0,516.5675070602447,3.0,1.0,phase_2,go,400.0,600.0,1.0,,,,,,,,,magenta,I
0.0,2.0,2.0,0.0,5.0,5.0,603.3005970530212,3.0,1.0,phase_2,go,400.0,600.0,1.0,,,,,,,,,white,diamond
0.0,5.0,1.0,1.0,5.0,0.0,0.0,3.0,1.0,phase_2,stop,400.0,600.0,4.0,,,,,,,,,cyan,circle
0.0,4.0,4.0,0.0,5.0,5.0,538.8430260354653,3.0,1.0,phase_2,go,450.0,600.0,1.0,,,,,,,,,magenta,I
0.0,4.0,4.0,0.0,5.0,5.0,402.5448670145124,3.0,1.0,phase_2,go,450.0,600.0,1.0,,,,,,,,,magenta,I
0.0,7.0,3.0,1.0,5.0,0.0,0.0,3.0,1.0,phase_2,stop,450.0,600.0,4.0,,,,,,,,,orange,flipped triangle
0.0,3.0,3.0,0.0,6.0,6.0,484.6703479997813,3.0,1.0,phase_2,go,500.0,600.0,1.0,,,,,,,,,green,cross
0.0,3.0,3.0,0.0,6.0,6.0,938.4792889468372,3.0,1.0,phase_2,go,500.0,600.0,1.0,,,,,,,,,green,cross
0.0,4.0,4.0,0.0,5.0,5.0,839.6387189859524,3.0,1.0,phase_2,go,500.0,600.0,1.0,,,,,,,,,magenta,I
0.0,4.0,4.0,0.0,6.0,6.0,719.0836200024933,3.0,1.0,phase_2,go,500.0,600.0,1.0,,,,,,,,,magenta,I
0.0,8.0,4.0,1.0,5.0,0.0,0.0,3.0,1.0,phase_2,stop,500.0,600.0,4.0,,,,,,,,,gray,hexagon
0.0,3.0,3.0,0.0,5.0,5.0,510.8735620742664,3.0,1.0,phase_2,go,550.0,600.0,1.0,,,,,,,,,green,cross
0.0,2.0,2.0,0.0,5.0,5.0,741.3109919289127,3.0,1.0,phase_2,go,550.0,600.0,1.0,,,,,,,,,white,diamond
0.0,3.0,3.0,0.0,5.0,5.0,767.660778015852,3.0,1.0,phase_2,go,550.0,600.0,1.0,,,,,,,,,green,cross
0.0,1.0,1.0,0.0,5.0,5.0,852.1841770270839,3.0,1.0,phase_2,go,550.0,600.0,1.0,,,,,,,,,yellow,triangle
0.0,2.0,2.0,0.0,6.0,6.0,1108.5675390204417,3.0,1.0,phase_2,go,550.0,600.0,1.0,,,,,,,,,white,diamond
0.0,1.0,1.0,0.0,5.0,5.0,829.1043089702725,3.0,1.0,phase_2,go,550.0,600.0,1.0,,,,,,,,,yellow,triangle
0.0,8.0,4.0,1.0,6.0,0.0,0.0,3.0,1.0,phase_2,stop,550.0,600.0,4.0,,,,,,,,,gray,hexagon
0.0,3.0,3.0,0.0,6.0,6.0,581.0543510597199,3.0,1.0,phase_2,go,550.0,650.0,1.0,,,,,,,,,green,cross
0.0,1.0,1.0,0.0,6.0,6.0,842.3911640420556,3.0,1.0,phase_2,go,550.0,650.0,1.0,,,,,,,,,yellow,triangle
0.0,3.0,3.0,0.0,5.0,5.0,656.7262690514326,3.0,1.0,phase_2,go,550.0,650.0,1.0,,,,,,,,,green,cross
0.0,8.0,4.0,1.0,5.0,5.0,448.4499129466712,3.0,1.0,phase_2,stop,550.0,650.0,3.0,,,,,,,,,gray,hexagon
0.0,1.0,1.0,0.0,6.0,6.0,714.4327810965478,3.0,1.0,phase_2,go,500.0,650.0,1.0,,,,,,,,,yellow,triangle
0.0,4.0,4.0,0.0,6.0,6.0,735.4447540128604,3.0,1.0,phase_2,go,500.0,650.0,1.0,,,,,,,,,magenta,I
0.0,6.0,2.0,1.0,5.0,0.0,0.0,3.0,1.0,phase_2,stop,500.0,650.0,4.0,,,,,,,,,blue,square
0.0,7.0,3.0,1.0,6.0,6.0,816.2476129364222,3.0,1.0,phase_2,go,550.0,650.0,1.0,,,,,,,,,orange,flipped triangle
0.0,7.0,3.0,1.0,6.0,0.0,0.0,3.0,1.0,phase_2,stop,550.0,650.0,4.0,,,,,,,,,orange,flipped triangle
0.0,4.0,4.0,0.0,5.0,5.0,605.8683559531346,3.0,1.0,phase_2,go,550.0,700.0,1.0,,,,,,,,,magenta,I
0.0,5.0,1.0,1.0,6.0,6.0,549.6351909823716,3.0,1.0,phase_2,go,550.0,700.0,1.0,,,,,,,,,cyan,circle
0.0,8.0,4.0,1.0,5.0,0.0,0.0,3.0,1.0,phase_2,stop,550.0,700.0,4.0,,,,,,,,,gray,hexagon
0.0,5.0,1.0,1.0,5.0,5.0,862.0231690583751,4.0,1.0,phase_2,go,600.0,700.0,1.0,,,,,,,,,cyan,circle
0.0,8.0,4.0,1.0,6.0,6.0,507.08408292848617,4.0,1.0,phase_2,go,600.0,700.0,1.0,,,,,,,,,gray,hexagon
0.0,7.0,3.0,1.0,5.0,5.0,326.047049020417,4.0,1.0,phase_2,go,600.0,700.0,1.0,,,,,,,,,orange,flipped triangle
0.0,3.0,3.0,0.0,6.0,6.0,403.3185880398378,4.0,1.0,phase_2,go,600.0,700.0,1.0,,,,,,,,,green,cross
0.0,2.0,2.0,0.0,6.0,6.0,309.9430409492925,4.0,1.0,phase_2,go,600.0,700.0,1.0,,,,,,,,,white,diamond
0.0,1.0,1.0,0.0,6.0,6.0,329.6639480395242,4.0,1.0,phase_2,go,600.0,700.0,1.0,,,,,,,,,yellow,triangle
0.0,8.0,4.0,1.0,5.0,5.0,338.3092370349914,4.0,1.0,phase_2,stop,600.0,700.0,3.0,,,,,,,,,gray,hexagon
0.0,4.0,4.0,0.0,5.0,5.0,330.1035970216617,4.0,1.0,phase_2,go,550.0,700.0,1.0,,,,,,,,,magenta,I
0.0,5.0,1.0,1.0,5.0,5.0,264.4444950856268,4.0,1.0,phase_2,stop,550.0,700.0,3.0,,,,,,,,,cyan,circle
0.0,6.0,2.0,1.0,6.0,6.0,296.8622379703447,4.0,1.0,phase_2,go,500.0,700.0,1.0,,,,,,,,,blue,square
0.0,7.0,3.0,1.0,5.0,5.0,446.6021769912913,4.0,1.0,phase_2,stop,500.0,700.0,3.0,,,,,,,,,orange,flipped triangle
0.0,4.0,4.0,0.0,6.0,6.0,632.1032290579751,4.0,1.0,phase_2,go,450.0,700.0,1.0,,,,,,,,,magenta,I
0.0,7.0,3.0,1.0,6.0,6.0,399.3657740065828,4.0,1.0,phase_2,stop,450.0,700.0,3.0,,,,,,,,,orange,flipped triangle
0.0,8.0,4.0,1.0,5.0,5.0,558.5648959968239,4.0,1.0,phase_2,stop,450.0,650.0,3.0,,,,,,,,,gray,hexagon
0.0,8.0,4.0,1.0,5.0,5.0,644.6107539813966,4.0,1.0,phase_2,go,400.0,650.0,1.0,,,,,,,,,gray,hexagon
0.0,5.0,1.0,1.0,6.0,6.0,574.5854169363156,4.0,1.0,phase_2,stop,400.0,650.0,3.0,,,,,,,,,cyan,circle
0.0,4.0,4.0,0.0,6.0,6.0,363.8837229227647,4.0,1.0,phase_2,go,400.0,600.0,1.0,,,,,,,,,magenta,I
0.0,6.0,2.0,1.0,5.0,5.0,654.4601650675759,4.0,1.0,phase_2,go,400.0,600.0,1.0,,,,,,,,,blue,square
0.0,1.0,1.0,0.0,5.0,5.0,650.876740925014,4.0,1.0,phase_2,go,400.0,600.0,1.0,,,,,,,,,yellow,triangle
0.0,3.0,3.0,0.0,6.0,6.0,994.7005319409072,4.0,1.0,phase_2,go,400.0,600.0,1.0,,,,,,,,,green,cross
0.0,7.0,3.0,1.0,5.0,5.0,492.0509429648518,4.0,1.0,phase_2,stop,400.0,600.0,3.0,,,,,,,,,orange,flipped triangle
0.0,7.0,3.0,1.0,6.0,6.0,313.3666790090501,4.0,1.0,phase_2,stop,350.0,600.0,3.0,,,,,,,,,orange,flipped triangle
0.0,5.0,1.0,1.0,6.0,6.0,540.1666340185329,4.0,1.0,phase_2,stop,350.0,550.0,3.0,,,,,,,,,cyan,circle
0.0,2.0,2.0,0.0,6.0,6.0,641.2366410950199,4.0,1.0,phase_2,go,350.0,500.0,1.0,,,,,,,,,white,diamond
0.0,5.0,1.0,1.0,5.0,0.0,0.0,4.0,1.0,phase_2,stop,350.0,500.0,4.0,,,,,,,,,cyan,circle
0.0,6.0,2.0,1.0,6.0,6.0,497.3598899086937,4.0,1.0,phase_2,stop,400.0,500.0,3.0,,,,,,,,,blue,square
0.0,7.0,3.0,1.0,5.0,0.0,0.0,4.0,1.0,phase_2,stop,400.0,450.0,4.0,,,,,,,,,orange,flipped triangle
0.0,4.0,4.0,0.0,6.0,6.0,613.5826320387423,4.0,1.0,phase_2,go,450.0,450.0,1.0,,,,,,,,,magenta,I
0.0,3.0,3.0,0.0,6.0,6.0,612.7950820373371,4.0,1.0,phase_2,go,450.0,450.0,1.0,,,,,,,,,green,cross
0.0,5.0,1.0,1.0,6.0,6.0,495.5215329537168,4.0,1.0,phase_2,stop,450.0,450.0,3.0,,,,,,,,,cyan,circle
0.0,6.0,2.0,1.0,5.0,5.0,805.5114470189437,4.0,1.0,phase_2,go,450.0,400.0,1.0,,,,,,,,,blue,square
0.0,1.0,1.0,0.0,5.0,5.0,764.8739709984511,4.0,1.0,phase_2,go,450.0,400.0,1.0,,,,,,,,,yellow,triangle
0.0,6.0,2.0,1.0,6.0,6.0,444.6060570189729,4.0,1.0,phase_2,stop,450.0,400.0,3.0,,,,,,,,,blue,square
0.0,5.0,1.0,1.0,6.0,0.0,0.0,4.0,1.0,phase_2,stop,450.0,350.0,4.0,,,,,,,,,cyan,circle
0.0,6.0,2.0,1.0,5.0,5.0,476.359807071276,4.0,1.0,phase_2,stop,450.0,400.0,3.0,,,,,,,,,blue,square
0.0,2.0,2.0,0.0,6.0,6.0,633.451147004962,4.0,1.0,phase_2,go,400.0,400.0,1.0,,,,,,,,,white,diamond
0.0,6.0,2.0,1.0,6.0,6.0,777.3621240630746,5.0,1.0,phase_2,stop,400.0,400.0,3.0,,,,,,,,,blue,square
0.0,2.0,2.0,0.0,5.0,5.0,331.40701695811,5.0,1.0,phase_2,go,400.0,350.0,1.0,,,,,,,,,white,diamond
0.0,4.0,4.0,0.0,6.0,6.0,361.4323609508574,5.0,1.0,phase_2,go,400.0,350.0,1.0,,,,,,,,,magenta,I
0.0,3.0,3.0,0.0,6.0,6.0,409.3595050508156,5.0,1.0,phase_2,go,400.0,350.0,1.0,,,,,,,,,green,cross
0.0,8.0,4.0,1.0,5.0,5.0,518.2137950323522,5.0,1.0,phase_2,go,400.0,350.0,1.0,,,,,,,,,gray,hexagon
0.0,3.0,3.0,0.0,5.0,5.0,392.4897069809958,5.0,1.0,phase_2,go,400.0,350.0,1.0,,,,,,,,,green,cross
0.0,2.0,2.0,0.0,5.0,5.0,679.4480910757557,5.0,1.0,phase_2,go,400.0,350.0,1.0,,,,,,,,,white,diamond
0.0,3.0,3.0,0.0,5.0,5.0,485.9941429458558,5.0,1.0,phase_2,go,400.0,350.0,1.0,,,,,,,,,green,cross
0.0,2.0,2.0,0.0,6.0,6.0,551.222532056272,5.0,1.0,phase_2,go,400.0,350.0,1.0,,,,,,,,,white,diamond
0.0,6.0,2.0,1.0,5.0,0.0,0.0,5.0,1.0,phase_2,stop,400.0,350.0,4.0,,,,,,,,,blue,square
0.0,1.0,1.0,0.0,5.0,5.0,690.3644719859585,5.0,1.0,phase_2,go,450.0,350.0,1.0,,,,,,,,,yellow,triangle
0.0,5.0,1.0,1.0,5.0,5.0,666.2922650575638,5.0,1.0,phase_2,go,450.0,350.0,1.0,,,,,,,,,cyan,circle
0.0,2.0,2.0,0.0,6.0,6.0,492.6447859033942,5.0,1.0,phase_2,go,450.0,350.0,1.0,,,,,,,,,white,diamond
0.0,1.0,1.0,0.0,5.0,5.0,260.9515710501,5.0,1.0,phase_2,go,450.0,350.0,1.0,,,,,,,,,yellow,triangle
0.0,1.0,1.0,0.0,6.0,6.0,402.1400630008429,5.0,1.0,phase_2,go,450.0,350.0,1.0,,,,,,,,,yellow,triangle
0.0,2.0,2.0,0.0,5.0,5.0,667.7647309843451,5.0,1.0,phase_2,go,450.0,350.0,1.0,,,,,,,,,white,diamond
0.0,1.0,1.0,0.0,5.0,5.0,534.6314349444583,5.0,1.0,phase_2,go,450.0,350.0,1.0,,,,,,,,,yellow,triangle
0.0,4.0,4.0,0.0,5.0,5.0,351.3176899868995,5.0,1.0,phase_2,go,450.0,350.0,1.0,,,,,,,,,magenta,I
0.0,6.0,2.0,1.0,5.0,5.0,384.2161279171705,5.0,1.0,phase_2,go,450.0,350.0,1.0,,,,,,,,,blue,square
0.0,5.0,1.0,1.0,5.0,0.0,0.0,5.0,1.0,phase_2,stop,450.0,350.0,4.0,,,,,,,,,cyan,circle
0.0,7.0,3.0,1.0,5.0,5.0,621.3321590330452,5.0,1.0,phase_2,go,500.0,350.0,1.0,,,,,,,,,orange,flipped triangle
0.0,7.0,3.0,1.0,5.0,5.0,486.5528189111501,5.0,1.0,phase_2,stop,500.0,350.0,3.0,,,,,,,,,orange,flipped triangle
0.0,7.0,3.0,1.0,6.0,6.0,660.4453750187531,5.0,1.0,phase_2,go,450.0,350.0,1.0,,,,,,,,,orange,flipped triangle
0.0,2.0,2.0,0.0,6.0,6.0,467.1327869873494,5.0,1.0,phase_2,go,450.0,350.0,1.0,,,,,,,,,white,diamond
0.0,7.0,3.0,1.0,6.0,0.0,0.0,5.0,1.0,phase_2,stop,450.0,350.0,4.0,,,,,,,,,orange,flipped triangle
0.0,1.0,1.0,0.0,5.0,5.0,379.3612049194053,5.0,1.0,phase_2,go,450.0,400.0,1.0,,,,,,,,,yellow,triangle
0.0,6.0,2.0,1.0,6.0,0.0,0.0,5.0,1.0,phase_2,stop,450.0,400.0,4.0,,,,,,,,,blue,square
0.0,8.0,4.0,1.0,6.0,6.0,514.5901340292767,5.0,1.0,phase_2,go,450.0,450.0,1.0,,,,,,,,,gray,hexagon
0.0,7.0,3.0,1.0,5.0,5.0,632.2530109900981,5.0,1.0,phase_2,go,450.0,450.0,1.0,,,,,,,,,orange,flipped triangle
0.0,4.0,4.0,0.0,6.0,6.0,647.5620060227811,5.0,1.0,phase_2,go,450.0,450.0,1.0,,,,,,,,,magenta,I
0.0,4.0,4.0,0.0,6.0,6.0,367.4313479568809,5.0,1.0,phase_2,go,450.0,450.0,1.0,,,,,,,,,magenta,I
0.0,3.0,3.0,0.0,5.0,5.0,529.0616200072691,5.0,1.0,phase_2,go,450.0,450.0,1.0,,,,,,,,,green,cross
0.0,8.0,4.0,1.0,5.0,5.0,304.953639046289,5.0,1.0,phase_2,stop,450.0,450.0,3.0,,,,,,,,,gray,hexagon
0.0,5.0,1.0,1.0,5.0,5.0,341.3530240068212,5.0,1.0,phase_2,stop,400.0,450.0,3.0,,,,,,,,,cyan,circle
0.0,6.0,2.0,1.0,6.0,6.0,496.4598410297185,5.0,1.0,phase_2,go,350.0,450.0,1.0,,,,,,,,,blue,square
0.0,7.0,3.0,1.0,5.0,0.0,0.0,5.0,1.0,phase_2,stop,350.0,450.0,4.0,,,,,,,,,orange,flipped triangle
0.0,2.0,2.0,0.0,5.0,5.0,648.1423509540036,6.0,1.0,phase_2,go,400.0,450.0,1.0,,,,,,,,,white,diamond
0.0,3.0,3.0,0.0,5.0,5.0,425.2344169653952,6.0,1.0,phase_2,go,400.0,450.0,1.0,,,,,,,,,green,cross
0.0,1.0,1.0,0.0,5.0,5.0,400.0603969907388,6.0,1.0,phase_2,go,400.0,450.0,1.0,,,,,,,,,yellow,triangle
0.0,8.0,4.0,1.0,5.0,5.0,336.9558959966525,6.0,1.0,phase_2,stop,400.0,450.0,3.0,,,,,,,,,gray,hexagon
0.0,5.0,1.0,1.0,6.0,6.0,264.3191519891843,6.0,1.0,phase_2,go,350.0,450.0,1.0,,,,,,,,,cyan,circle
0.0,7.0,3.0,1.0,5.0,0.0,0.0,6.0,1.0,phase_2,stop,350.0,450.0,4.0,,,,,,,,,orange,flipped triangle
0.0,6.0,2.0,1.0,6.0,6.0,437.5438130227849,6.0,1.0,phase_2,stop,400.0,450.0,3.0,,,,,,,,,blue,square
0.0,5.0,1.0,1.0,6.0,6.0,504.00208693463355,6.0,1.0,phase_2,stop,400.0,400.0,3.0,,,,,,,,,cyan,circle
0.0,7.0,3.0,1.0,6.0,6.0,707.9280540347099,6.0,1.0,phase_2,go,400.0,350.0,1.0,,,,,,,,,orange,flipped triangle
0.0,4.0,4.0,0.0,6.0,6.0,445.2613709727302,6.0,1.0,phase_2,go,400.0,350.0,1.0,,,,,,,,,magenta,I
0.0,3.0,3.0,0.0,6.0,6.0,492.1748450724408,6.0,1.0,phase_2,go,400.0,350.0,1.0,,,,,,,,,green,cross
0.0,2.0,2.0,0.0,6.0,6.0,353.7836651084944,6.0,1.0,phase_2,go,400.0,350.0,1.0,,,,,,,,,white,diamond
0.0,6.0,2.0,1.0,6.0,0.0,0.0,6.0,1.0,phase_2,stop,400.0,350.0,4.0,,,,,,,,,blue,square
0.0,2.0,2.0,0.0,5.0,5.0,403.7035660585388,6.0,1.0,phase_2,go,400.0,400.0,1.0,,,,,,,,,white,diamond
0.0,6.0,2.0,1.0,5.0,0.0,0.0,6.0,1.0,phase_2,stop,400.0,400.0,4.0,,,,,,,,,blue,square
0.0,4.0,4.0,0.0,5.0,5.0,400.6786020472646,6.0,1.0,phase_2,go,450.0,400.0,1.0,,,,,,,,,magenta,I
0.0,1.0,1.0,0.0,6.0,6.0,546.75301106181,6.0,1.0,phase_2,go,450.0,400.0,1.0,,,,,,,,,yellow,triangle
0.0,6.0,2.0,1.0,6.0,6.0,626.0217030066997,6.0,1.0,phase_2,go,450.0,400.0,1.0,,,,,,,,,blue,square
0.0,2.0,2.0,0.0,6.0,6.0,566.8611159780994,6.0,1.0,phase_2,go,450.0,400.0,1.0,,,,,,,,,white,diamond
0.0,8.0,4.0,1.0,6.0,6.0,478.8791449973359,6.0,1.0,phase_2,go,450.0,400.0,1.0,,,,,,,,,gray,hexagon
0.0,1.0,1.0,0.0,5.0,5.0,1279.8401900799945,6.0,1.0,phase_2,go,450.0,400.0,1.0,,,,,,,,,yellow,triangle
0.0,8.0,4.0,1.0,6.0,0.0,0.0,6.0,1.0,phase_2,stop,450.0,400.0,4.0,,,,,,,,,gray,hexagon
0.0,2.0,2.0,0.0,6.0,6.0,573.036098969169,6.0,1.0,phase_2,go,450.0,450.0,1.0,,,,,,,,,white,diamond
0.0,7.0,3.0,1.0,6.0,0.0,0.0,6.0,1.0,phase_2,stop,450.0,450.0,4.0,,,,,,,,,orange,flipped triangle
0.0,2.0,2.0,0.0,6.0,6.0,363.1489709950983,6.0,1.0,phase_2,go,450.0,500.0,1.0,,,,,,,,,white,diamond
0.0,8.0,4.0,1.0,6.0,6.0,338.5904780589044,6.0,1.0,phase_2,stop,450.0,500.0,3.0,,,,,,,,,gray,hexagon
0.0,7.0,3.0,1.0,5.0,5.0,473.6411250196397,6.0,1.0,phase_2,stop,450.0,450.0,3.0,,,,,,,,,orange,flipped triangle
0.0,1.0,1.0,0.0,6.0,6.0,357.1277359733358,6.0,1.0,phase_2,go,400.0,450.0,1.0,,,,,,,,,yellow,triangle
0.0,6.0,2.0,1.0,6.0,6.0,499.373565078713,6.0,1.0,phase_2,go,400.0,450.0,1.0,,,,,,,,,blue,square
0.0,2.0,2.0,0.0,6.0,6.0,529.278198024258,6.0,1.0,phase_2,go,400.0,450.0,1.0,,,,,,,,,white,diamond
0.0,6.0,2.0,1.0,5.0,5.0,427.9592029051855,6.0,1.0,phase_2,stop,400.0,450.0,3.0,,,,,,,,,blue,square
0.0,7.0,3.0,1.0,5.0,0.0,0.0,6.0,1.0,phase_2,stop,350.0,450.0,4.0,,,,,,,,,orange,flipped triangle
0.0,2.0,2.0,0.0,6.0,6.0,616.7684759711847,6.0,1.0,phase_2,go,400.0,450.0,1.0,,,,,,,,,white,diamond
0.0,4.0,4.0,0.0,5.0,5.0,678.8312940625474,6.0,1.0,phase_2,go,400.0,450.0,1.0,,,,,,,,,magenta,I
0.0,3.0,3.0,0.0,5.0,5.0,391.6748180054128,6.0,1.0,phase_2,go,400.0,450.0,1.0,,,,,,,,,green,cross
0.0,6.0,2.0,1.0,6.0,6.0,428.9844779996201,6.0,1.0,phase_2,stop,400.0,450.0,3.0,,,,,,,,,blue,square
0.0,8.0,4.0,1.0,5.0,5.0,424.359573982656,7.0,1.0,phase_2,stop,400.0,400.0,3.0,,,,,,,,,gray,hexagon
0.0,5.0,1.0,1.0,6.0,6.0,306.7182899685576,7.0,1.0,phase_2,go,350.0,400.0,1.0,,,,,,,,,cyan,circle
0.0,3.0,3.0,0.0,5.0,5.0,287.728606024757,7.0,1.0,phase_2,go,350.0,400.0,1.0,,,,,,,,,green,cross
0.0,7.0,3.0,1.0,6.0,6.0,441.6745980270207,7.0,1.0,phase_2,stop,350.0,400.0,3.0,,,,,,,,,orange,flipped triangle
0.0,7.0,3.0,1.0,5.0,5.0,320.9809850668534,7.0,1.0,phase_2,stop,350.0,350.0,3.0,,,,,,,,,orange,flipped triangle
0.0,4.0,4.0,0.0,5.0,5.0,710.487668053247,7.0,1.0,phase_2,go,300.0,350.0,1.0,,,,,,,,,magenta,I
0.0,1.0,1.0,0.0,5.0,5.0,557.4845960363746,7.0,1.0,phase_2,go,300.0,350.0,1.0,,,,,,,,,yellow,triangle
0.0,3.0,3.0,0.0,6.0,6.0,325.9865150321275,7.0,1.0,phase_2,go,300.0,350.0,1.0,,,,,,,,,green,cross
0.0,4.0,4.0,0.0,6.0,6.0,579.632475040853,7.0,1.0,phase_2,go,300.0,350.0,1.0,,,,,,,,,magenta,I
0.0,2.0,2.0,0.0,5.0,5.0,404.5941130025312,7.0,1.0,phase_2,go,300.0,350.0,1.0,,,,,,,,,white,diamond
0.0,1.0,1.0,0.0,6.0,6.0,292.3944350332021,7.0,1.0,phase_2,go,300.0,350.0,1.0,,,,,,,,,yellow,triangle
0.0,5.0,1.0,1.0,6.0,6.0,396.8057469464838,7.0,1.0,phase_2,go,300.0,350.0,1.0,,,,,,,,,cyan,circle
0.0,3.0,3.0,0.0,6.0,6.0,555.6454469915479,7.0,1.0,phase_2,go,300.0,350.0,1.0,,,,,,,,,green,cross
0.0,7.0,3.0,1.0,6.0,6.0,313.8744949828833,7.0,1.0,phase_2,stop,300.0,350.0,3.0,,,,,,,,,orange,flipped triangle
0.0,4.0,4.0,0.0,5.0,5.0,330.3982699289918,7.0,1.0,phase_2,go,300.0,300.0,1.0,,,,,,,,,magenta,I
0.0,8.0,4.0,1.0,6.0,0.0,0.0,7.0,1.0,phase_2,stop,300.0,300.0,4.0,,,,,,,,,gray,hexagon
0.0,5.0,1.0,1.0,5.0,5.0,322.6241279626265,7.0,1.0,phase_2,stop,300.0,350.0,3.0,,,,,,,,,cyan,circle
0.0,2.0,2.0,0.0,6.0,6.0,258.6318680550903,7.0,1.0,phase_2,go,250.0,350.0,1.0,,,,,,,,,white,diamond
0.0,1.0,1.0,0.0,6.0,6.0,496.2894429918378,7.0,1.0,phase_2,go,250.0,350.0,1.0,,,,,,,,,yellow,triangle
0.0,5.0,1.0,1.0,5.0,0.0,0.0,7.0,1.0,phase_2,stop,250.0,350.0,4.0,,,,,,,,,cyan,circle
0.0,2.0,2.0,0.0,5.0,5.0,565.7973800553009,7.0,1.0,phase_2,go,300.0,350.0,1.0,,,,,,,,,white,diamond
0.0,7.0,3.0,1.0,6.0,0.0,0.0,7.0,1.0,phase_2,stop,300.0,350.0,4.0,,,,,,,,,orange,flipped triangle
0.0,3.0,3.0,0.0,6.0,6.0,476.1155709857121,7.0,1.0,phase_2,go,300.0,400.0,1.0,,,,,,,,,green,cross
0.0,2.0,2.0,0.0,5.0,5.0,628.5977000370622,7.0,1.0,phase_2,go,300.0,400.0,1.0,,,,,,,,,white,diamond
0.0,5.0,1.0,1.0,5.0,5.0,317.9604639299214,7.0,1.0,phase_2,go,300.0,400.0,1.0,,,,,,,,,cyan,circle
0.0,6.0,2.0,1.0,6.0,6.0,525.1885339384899,7.0,1.0,phase_2,stop,300.0,400.0,3.0,,,,,,,,,blue,square
0.0,1.0,1.0,0.0,6.0,6.0,578.9151539793238,7.0,1.0,phase_2,go,300.0,350.0,1.0,,,,,,,,,yellow,triangle
0.0,6.0,2.0,1.0,6.0,0.0,0.0,7.0,1.0,phase_2,stop,300.0,350.0,4.0,,,,,,,,,blue,square
0.0,2.0,2.0,0.0,5.0,5.0,288.5815309127792,7.0,1.0,phase_2,go,300.0,400.0,1.0,,,,,,,,,white,diamond
0.0,7.0,3.0,1.0,6.0,6.0,472.1728949807584,7.0,1.0,phase_2,stop,300.0,400.0,3.0,,,,,,,,,orange,flipped triangle
0.0,5.0,1.0,1.0,5.0,0.0,0.0,7.0,1.0,phase_2,stop,300.0,350.0,4.0,,,,,,,,,cyan,circle
0.0,7.0,3.0,1.0,6.0,0.0,0.0,7.0,1.0,phase_2,stop,350.0,350.0,4.0,,,,,,,,,orange,flipped triangle
0.0,5.0,1.0,1.0,5.0,5.0,650.3601509612054,7.0,1.0,phase_2,go,350.0,400.0,1.0,,,,,,,,,cyan,circle
0.0,7.0,3.0,1.0,6.0,6.0,303.8412920432165,7.0,1.0,phase_2,stop,350.0,400.0,3.0,,,,,,,,,orange,flipped triangle
0.0,3.0,3.0,0.0,6.0,6.0,712.1145089622587,7.0,1.0,phase_2,go,350.0,350.0,1.0,,,,,,,,,green,cross
0.0,4.0,4.0,0.0,5.0,5.0,448.9606970455497,7.0,1.0,phase_2,go,350.0,350.0,1.0,,,,,,,,,magenta,I
0.0,4.0,4.0,0.0,5.0,5.0,565.990102943033,8.0,1.0,phase_2,go,350.0,350.0,1.0,,,,,,,,,magenta,I
0.0,4.0,4.0,0.0,6.0,6.0,509.0844799997285,8.0,1.0,phase_2,go,350.0,350.0,1.0,,,,,,,,,magenta,I
0.0,5.0,1.0,1.0,5.0,0.0,0.0,8.0,1.0,phase_2,stop,350.0,350.0,4.0,,,,,,,,,cyan,circle
0.0,1.0,1.0,0.0,5.0,5.0,508.26994597446173,8.0,1.0,phase_2,go,400.0,350.0,1.0,,,,,,,,,yellow,triangle
0.0,8.0,4.0,1.0,6.0,6.0,331.1703279614448,8.0,1.0,phase_2,stop,400.0,350.0,3.0,,,,,,,,,gray,hexagon
0.0,4.0,4.0,0.0,6.0,6.0,504.07384405843914,8.0,1.0,phase_2,go,400.0,300.0,1.0,,,,,,,,,magenta,I
0.0,5.0,1.0,1.0,6.0,0.0,0.0,8.0,1.0,phase_2,stop,400.0,300.0,4.0,,,,,,,,,cyan,circle
0.0,1.0,1.0,0.0,5.0,5.0,306.928044068627,8.0,1.0,phase_2,go,400.0,350.0,1.0,,,,,,,,,yellow,triangle
0.0,6.0,2.0,1.0,5.0,5.0,470.6198229687288,8.0,1.0,phase_2,stop,400.0,350.0,3.0,,,,,,,,,blue,square
0.0,1.0,1.0,0.0,6.0,6.0,910.018927999772,8.0,1.0,phase_2,go,350.0,350.0,1.0,,,,,,,,,yellow,triangle
0.0,7.0,3.0,1.0,6.0,6.0,536.0386540414765,8.0,1.0,phase_2,go,350.0,350.0,1.0,,,,,,,,,orange,flipped triangle
0.0,2.0,2.0,0.0,6.0,6.0,444.7099899407476,8.0,1.0,phase_2,go,350.0,350.0,1.0,,,,,,,,,white,diamond
0.0,5.0,1.0,1.0,5.0,5.0,422.440055059269,8.0,1.0,phase_2,stop,350.0,350.0,3.0,,,,,,,,,cyan,circle
0.0,1.0,1.0,0.0,6.0,6.0,500.16259599942714,8.0,1.0,phase_2,go,300.0,350.0,1.0,,,,,,,,,yellow,triangle
0.0,8.0,4.0,1.0,6.0,6.0,461.5137280197814,8.0,1.0,phase_2,stop,300.0,350.0,3.0,,,,,,,,,gray,hexagon
0.0,3.0,3.0,0.0,6.0,6.0,498.2069419929757,8.0,1.0,phase_2,go,300.0,300.0,1.0,,,,,,,,,green,cross
0.0,8.0,4.0,1.0,5.0,0.0,0.0,8.0,1.0,phase_2,stop,300.0,300.0,4.0,,,,,,,,,gray,hexagon
0.0,8.0,4.0,1.0,5.0,5.0,557.2055120719597,8.0,1.0,phase_2,stop,350.0,300.0,3.0,,,,,,,,,gray,hexagon
0.0,4.0,4.0,0.0,5.0,5.0,539.6267910255119,8.0,1.0,phase_2,go,300.0,300.0,1.0,,,,,,,,,magenta,I
0.0,1.0,1.0,0.0,5.0,5.0,466.3824340095743,8.0,1.0,phase_2,go,300.0,300.0,1.0,,,,,,,,,yellow,triangle
0.0,8.0,4.0,1.0,6.0,6.0,418.9092859160155,8.0,1.0,phase_2,stop,300.0,300.0,3.0,,,,,,,,,gray,hexagon
0.0,8.0,4.0,1.0,6.0,6.0,319.3018049933016,8.0,1.0,phase_2,stop,300.0,250.0,3.0,,,,,,,,,gray,hexagon
0.0,6.0,2.0,1.0,6.0,0.0,0.0,8.0,1.0,phase_2,stop,300.0,200.0,4.0,,,,,,,,,blue,square
0.0,2.0,2.0,0.0,5.0,5.0,600.2999190241098,8.0,1.0,phase_2,go,300.0,250.0,1.0,,,,,,,,,white,diamond
0.0,7.0,3.0,1.0,5.0,5.0,360.7816150179133,8.0,1.0,phase_2,stop,300.0,250.0,3.0,,,,,,,,,orange,flipped triangle
0.0,2.0,2.0,0.0,5.0,5.0,310.0133129628375,8.0,1.0,phase_2,go,250.0,250.0,1.0,,,,,,,,,white,diamond
0.0,2.0,2.0,0.0,5.0,5.0,556.8965339334682,8.0,1.0,phase_2,go,250.0,250.0,1.0,,,,,,,,,white,diamond
0.0,2.0,2.0,0.0,6.0,6.0,268.1171230506152,8.0,1.0,phase_2,go,250.0,250.0,1.0,,,,,,,,,white,diamond
0.0,5.0,1.0,1.0,6.0,6.0,382.5092080514878,8.0,1.0,phase_2,stop,250.0,250.0,3.0,,,,,,,,,cyan,circle
0.0,1.0,1.0,0.0,5.0,5.0,284.5483110286295,8.0,1.0,phase_2,go,250.0,200.0,1.0,,,,,,,,,yellow,triangle
0.0,7.0,3.0,1.0,5.0,0.0,0.0,8.0,1.0,phase_2,stop,250.0,200.0,4.0,,,,,,,,,orange,flipped triangle
0.0,6.0,2.0,1.0,5.0,0.0,0.0,8.0,1.0,phase_2,stop,300.0,200.0,4.0,,,,,,,,,blue,square
0.0,8.0,4.0,1.0,6.0,6.0,386.9170190300792,8.0,1.0,phase_2,stop,350.0,200.0,3.0,,,,,,,,,gray,hexagon
0.0,1.0,1.0,0.0,6.0,6.0,595.8910380722955,8.0,1.0,phase_2,go,350.0,150.0,1.0,,,,,,,,,yellow,triangle
0.0,5.0,1.0,1.0,6.0,0.0,0.0,8.0,1.0,phase_2,stop,350.0,150.0,4.0,,,,,,,,,cyan,circle
0.0,5.0,1.0,1.0,6.0,0.0,0.0,8.0,1.0,phase_2,stop,350.0,200.0,4.0,,,,,,,,,cyan,circle
0.0,2.0,2.0,0.0,7.0,5.0,1925.4140680423009,1.0,2.0,phase_3,,,,,245.0,5.0,196.0,147.0,49.0,98.0,245.0,294.0,white,diamond
0.0,3.0,3.0,0.0,7.0,4.0,2152.2697689943016,1.0,1.0,phase_3,,,,,264.0,6.0,132.0,88.0,44.0,264.0,176.0,220.0,green,cross
0.0,5.0,1.0,1.0,7.0,6.0,2824.845813098364,1.0,1.0,phase_3,,,,,196.0,4.0,147.0,294.0,245.0,98.0,49.0,196.0,cyan,circle
0.0,3.0,3.0,0.0,7.0,4.0,1668.1733829900622,1.0,1.0,phase_3,,,,,294.0,6.0,98.0,147.0,245.0,294.0,196.0,49.0,green,cross
0.0,2.0,2.0,0.0,7.0,1.0,1526.6161689069122,1.0,1.0,phase_3,,,,,132.0,3.0,132.0,220.0,44.0,88.0,264.0,176.0,white,diamond
0.0,5.0,1.0,1.0,7.0,6.0,1564.4322750158608,1.0,1.0,phase_3,,,,,220.0,5.0,132.0,264.0,176.0,44.0,88.0,220.0,cyan,circle
0.0,7.0,3.0,1.0,7.0,3.0,1117.8821859648451,1.0,1.0,phase_3,,,,,162.0,3.0,324.0,216.0,162.0,270.0,54.0,108.0,orange,flipped triangle
0.0,3.0,3.0,0.0,7.0,4.0,1598.7580850487575,1.0,1.0,phase_3,,,,,162.0,3.0,108.0,270.0,324.0,162.0,54.0,216.0,green,cross
0.0,3.0,3.0,0.0,7.0,6.0,1476.5431920532135,1.0,1.0,phase_3,,,,,156.0,4.0,78.0,117.0,234.0,39.0,195.0,156.0,green,cross
0.0,3.0,3.0,0.0,7.0,2.0,1138.1463460857049,1.0,1.0,phase_3,,,,,204.0,6.0,102.0,204.0,34.0,170.0,136.0,68.0,green,cross
0.0,7.0,3.0,1.0,7.0,5.0,1980.0177979050204,1.0,1.0,phase_3,,,,,195.0,5.0,117.0,156.0,39.0,78.0,195.0,234.0,orange,flipped triangle
0.0,8.0,4.0,1.0,7.0,1.0,1868.6590869911013,1.0,1.0,phase_3,,,,,136.0,4.0,136.0,34.0,68.0,102.0,170.0,204.0,gray,hexagon
0.0,3.0,3.0,0.0,7.0,2.0,1405.8328239480034,1.0,1.0,phase_3,,,,,245.0,5.0,294.0,245.0,98.0,196.0,49.0,147.0,green,cross
0.0,8.0,4.0,1.0,7.0,3.0,1018.8806219957769,1.0,1.0,phase_3,,,,,132.0,3.0,220.0,264.0,132.0,44.0,88.0,176.0,gray,hexagon
0.0,6.0,2.0,1.0,7.0,3.0,1064.739987021312,1.0,1.0,phase_3,,,,,195.0,5.0,78.0,117.0,195.0,39.0,156.0,234.0,blue,square
0.0,1.0,1.0,0.0,7.0,6.0,947.5787639385088,1.0,1.0,phase_3,,,,,156.0,4.0,234.0,39.0,195.0,117.0,78.0,156.0,yellow,triangle
0.0,8.0,4.0,1.0,7.0,2.0,1511.2623579334468,1.0,1.0,phase_3,,,,,176.0,4.0,44.0,176.0,264.0,132.0,220.0,88.0,gray,hexagon
0.0,7.0,3.0,1.0,7.0,2.0,1237.529997015372,1.0,1.0,phase_3,,,,,204.0,6.0,136.0,204.0,102.0,34.0,170.0,68.0,orange,flipped triangle
0.0,7.0,3.0,1.0,7.0,4.0,1400.7979009766132,1.0,1.0,phase_3,,,,,147.0,3.0,98.0,196.0,294.0,147.0,49.0,245.0,orange,flipped triangle
0.0,1.0,1.0,0.0,7.0,2.0,891.4649719372392,1.0,1.0,phase_3,,,,,196.0,4.0,294.0,196.0,245.0,98.0,147.0,49.0,yellow,triangle
0.0,4.0,4.0,0.0,7.0,3.0,1333.6067739874125,2.0,1.0,phase_3,,,,,264.0,6.0,88.0,176.0,264.0,44.0,220.0,132.0,magenta,I
0.0,1.0,1.0,0.0,7.0,4.0,1363.3782740216702,2.0,1.0,phase_3,,,,,136.0,4.0,204.0,68.0,34.0,136.0,170.0,102.0,yellow,triangle
0.0,5.0,1.0,1.0,7.0,1.0,1062.593104899861,2.0,1.0,phase_3,,,,,324.0,6.0,324.0,270.0,108.0,216.0,162.0,54.0,cyan,circle
0.0,2.0,2.0,0.0,7.0,2.0,761.7524859961122,2.0,1.0,phase_3,,,,,245.0,5.0,294.0,245.0,49.0,98.0,196.0,147.0,white,diamond
0.0,7.0,3.0,1.0,7.0,6.0,889.4387999316677,2.0,1.0,phase_3,,,,,196.0,4.0,98.0,294.0,49.0,245.0,147.0,196.0,orange,flipped triangle
0.0,6.0,2.0,1.0,7.0,2.0,1129.6128960093483,2.0,1.0,phase_3,,,,,34.0,1.0,102.0,34.0,170.0,68.0,136.0,204.0,blue,square
0.0,6.0,2.0,1.0,7.0,4.0,970.6427319906652,2.0,1.0,phase_3,,,,,132.0,3.0,264.0,44.0,176.0,132.0,220.0,88.0,blue,square
0.0,5.0,1.0,1.0,7.0,2.0,1107.2983830235898,2.0,1.0,phase_3,,,,,245.0,5.0,49.0,245.0,196.0,98.0,294.0,147.0,cyan,circle
0.0,4.0,4.0,0.0,7.0,4.0,1014.7288029547781,2.0,1.0,phase_3,,,,,294.0,6.0,147.0,196.0,49.0,294.0,245.0,98.0,magenta,I
0.0,7.0,3.0,1.0,7.0,2.0,1089.1157269943506,2.0,1.0,phase_3,,,,,162.0,3.0,216.0,162.0,54.0,270.0,324.0,108.0,orange,flipped triangle
0.0,2.0,2.0,0.0,7.0,3.0,816.3018419872969,2.0,1.0,phase_3,,,,,108.0,2.0,162.0,324.0,108.0,270.0,216.0,54.0,white,diamond
0.0,5.0,1.0,1.0,7.0,4.0,1059.8389350343496,2.0,1.0,phase_3,,,,,117.0,3.0,195.0,156.0,234.0,117.0,39.0,78.0,cyan,circle
0.0,6.0,2.0,1.0,7.0,3.0,1405.4356389679017,2.0,1.0,phase_3,,,,,270.0,5.0,54.0,108.0,270.0,216.0,324.0,162.0,blue,square
0.0,2.0,2.0,0.0,7.0,5.0,1195.931593072601,2.0,1.0,phase_3,,,,,234.0,6.0,117.0,156.0,195.0,78.0,234.0,39.0,white,diamond
0.0,6.0,2.0,1.0,7.0,1.0,909.7636659862474,2.0,1.0,phase_3,,,,,136.0,4.0,136.0,170.0,34.0,68.0,102.0,204.0,blue,square
0.0,3.0,3.0,0.0,7.0,6.0,703.1073910184205,2.0,1.0,phase_3,,,,,234.0,6.0,39.0,195.0,78.0,156.0,117.0,234.0,green,cross
0.0,7.0,3.0,1.0,7.0,2.0,1192.6578220445665,2.0,1.0,phase_3,,,,,234.0,6.0,78.0,234.0,156.0,195.0,39.0,117.0,orange,flipped triangle
0.0,8.0,4.0,1.0,7.0,3.0,635.7642059447244,2.0,1.0,phase_3,,,,,98.0,2.0,294.0,196.0,98.0,147.0,245.0,49.0,gray,hexagon
0.0,6.0,2.0,1.0,7.0,5.0,701.7541700042784,2.0,1.0,phase_3,,,,,78.0,2.0,117.0,234.0,156.0,195.0,78.0,39.0,blue,square
0.0,4.0,4.0,0.0,7.0,4.0,645.2249869471416,2.0,1.0,phase_3,,,,,78.0,2.0,156.0,195.0,39.0,78.0,234.0,117.0,magenta,I
0.0,1.0,1.0,0.0,7.0,3.0,833.0545399803668,3.0,1.0,phase_3,,,,,220.0,5.0,176.0,44.0,220.0,132.0,264.0,88.0,yellow,triangle
0.0,4.0,4.0,0.0,7.0,3.0,984.435125021264,3.0,1.0,phase_3,,,,,195.0,5.0,78.0,117.0,195.0,156.0,234.0,39.0,magenta,I
0.0,3.0,3.0,0.0,7.0,3.0,1060.891518020071,3.0,1.0,phase_3,,,,,162.0,3.0,216.0,270.0,162.0,108.0,324.0,54.0,green,cross
0.0,3.0,3.0,0.0,7.0,4.0,794.5420850301161,3.0,1.0,phase_3,,,,,264.0,6.0,220.0,44.0,176.0,264.0,88.0,132.0,green,cross
0.0,1.0,1.0,0.0,7.0,5.0,798.148978035897,3.0,1.0,phase_3,,,,,324.0,6.0,270.0,162.0,216.0,54.0,324.0,108.0,yellow,triangle
0.0,4.0,4.0,0.0,7.0,3.0,1614.9841930018738,3.0,1.0,phase_3,,,,,220.0,5.0,132.0,88.0,220.0,176.0,264.0,44.0,magenta,I
0.0,8.0,4.0,1.0,7.0,4.0,1151.282545062713,3.0,1.0,phase_3,,,,,156.0,4.0,39.0,78.0,195.0,156.0,117.0,234.0,gray,hexagon
0.0,4.0,4.0,0.0,7.0,2.0,679.5062270248309,3.0,1.0,phase_3,,,,,245.0,5.0,49.0,245.0,196.0,294.0,147.0,98.0,magenta,I
0.0,4.0,4.0,0.0,7.0,2.0,1315.9842119785026,3.0,1.0,phase_3,,,,,324.0,6.0,216.0,324.0,108.0,54.0,162.0,270.0,magenta,I
0.0,2.0,2.0,0.0,7.0,5.0,667.4020109931007,3.0,1.0,phase_3,,,,,136.0,4.0,102.0,204.0,34.0,68.0,136.0,170.0,white,diamond
0.0,8.0,4.0,1.0,7.0,4.0,998.012099065818,3.0,1.0,phase_3,,,,,78.0,2.0,156.0,39.0,195.0,78.0,234.0,117.0,gray,hexagon
0.0,7.0,3.0,1.0,7.0,2.0,655.2365960087627,3.0,1.0,phase_3,,,,,44.0,1.0,220.0,44.0,176.0,132.0,88.0,264.0,orange,flipped triangle
0.0,1.0,1.0,0.0,7.0,3.0,1416.5294819977134,3.0,1.0,phase_3,,,,,195.0,5.0,117.0,156.0,195.0,39.0,78.0,234.0,yellow,triangle
0.0,6.0,2.0,1.0,7.0,3.0,1321.764153894037,3.0,1.0,phase_3,,,,,220.0,5.0,44.0,176.0,220.0,264.0,132.0,88.0,blue,square
0.0,8.0,4.0,1.0,7.0,5.0,732.1025190176442,3.0,1.0,phase_3,,,,,136.0,4.0,204.0,68.0,34.0,102.0,136.0,170.0,gray,hexagon
0.0,3.0,3.0,0.0,7.0,3.0,1340.6566879712043,3.0,1.0,phase_3,,,,,102.0,3.0,34.0,170.0,102.0,204.0,136.0,68.0,green,cross
0.0,5.0,1.0,1.0,7.0,1.0,864.4609089242294,3.0,1.0,phase_3,,,,,162.0,3.0,162.0,108.0,216.0,324.0,270.0,54.0,cyan,circle
0.0,1.0,1.0,0.0,7.0,4.0,1232.3076450265944,3.0,1.0,phase_3,,,,,264.0,6.0,88.0,132.0,44.0,264.0,220.0,176.0,yellow,triangle
0.0,2.0,2.0,0.0,7.0,2.0,905.0824890146032,3.0,1.0,phase_3,,,,,220.0,5.0,44.0,220.0,176.0,264.0,132.0,88.0,white,diamond
0.0,5.0,1.0,1.0,7.0,5.0,1104.3764490168542,3.0,1.0,phase_3,,,,,220.0,5.0,88.0,264.0,132.0,176.0,220.0,44.0,cyan,circle
0.0,5.0,1.0,1.0,7.0,3.0,1105.1811199868098,4.0,1.0,phase_3,,,,,204.0,6.0,34.0,102.0,204.0,136.0,68.0,170.0,cyan,circle
0.0,6.0,2.0,1.0,7.0,5.0,929.53343805857,4.0,1.0,phase_3,,,,,54.0,1.0,324.0,108.0,270.0,216.0,54.0,162.0,blue,square
0.0,4.0,4.0,0.0,7.0,6.0,1252.645403961651,4.0,1.0,phase_3,,,,,204.0,6.0,170.0,136.0,102.0,68.0,34.0,204.0,magenta,I
0.0,1.0,1.0,0.0,7.0,4.0,1188.1399039411915,4.0,1.0,phase_3,,,,,102.0,3.0,170.0,136.0,68.0,102.0,34.0,204.0,yellow,triangle
0.0,7.0,3.0,1.0,7.0,6.0,1575.4776840331033,4.0,1.0,phase_3,,,,,88.0,2.0,132.0,44.0,264.0,220.0,176.0,88.0,orange,flipped triangle
0.0,6.0,2.0,1.0,7.0,3.0,1063.7885329779238,4.0,1.0,phase_3,,,,,294.0,6.0,49.0,147.0,294.0,245.0,98.0,196.0,blue,square
0.0,8.0,4.0,1.0,7.0,4.0,1689.261651947163,4.0,1.0,phase_3,,,,,294.0,6.0,245.0,49.0,98.0,294.0,147.0,196.0,gray,hexagon
0.0,2.0,2.0,0.0,7.0,2.0,1417.6781439455226,4.0,1.0,phase_3,,,,,170.0,5.0,34.0,170.0,136.0,102.0,68.0,204.0,white,diamond
0.0,2.0,2.0,0.0,7.0,3.0,1438.1635420722887,4.0,1.0,phase_3,,,,,216.0,4.0,324.0,270.0,216.0,162.0,54.0,108.0,white,diamond
0.0,5.0,1.0,1.0,7.0,6.0,981.5061709377916,4.0,1.0,phase_3,,,,,102.0,3.0,34.0,204.0,68.0,136.0,170.0,102.0,cyan,circle
0.0,4.0,4.0,0.0,7.0,3.0,1305.2954939194024,4.0,1.0,phase_3,,,,,324.0,6.0,108.0,54.0,324.0,216.0,270.0,162.0,magenta,I
0.0,7.0,3.0,1.0,7.0,3.0,722.4005790194497,4.0,1.0,phase_3,,,,,204.0,6.0,68.0,34.0,204.0,102.0,170.0,136.0,orange,flipped triangle
0.0,4.0,4.0,0.0,7.0,5.0,811.8262669304386,4.0,1.0,phase_3,,,,,102.0,3.0,136.0,34.0,204.0,68.0,102.0,170.0,magenta,I
0.0,8.0,4.0,1.0,7.0,2.0,1358.0212789820507,4.0,1.0,phase_3,,,,,270.0,5.0,216.0,270.0,108.0,324.0,54.0,162.0,gray,hexagon
0.0,2.0,2.0,0.0,7.0,6.0,742.6584210479632,4.0,1.0,phase_3,,,,,234.0,6.0,195.0,156.0,117.0,39.0,78.0,234.0,white,diamond
0.0,5.0,1.0,1.0,7.0,1.0,1334.1827569529414,4.0,1.0,phase_3,,,,,234.0,6.0,234.0,117.0,39.0,195.0,156.0,78.0,cyan,circle
0.0,6.0,2.0,1.0,7.0,4.0,1248.8732760539278,4.0,1.0,phase_3,,,,,196.0,4.0,245.0,147.0,49.0,196.0,98.0,294.0,blue,square
0.0,8.0,4.0,1.0,7.0,6.0,922.9765409836546,4.0,1.0,phase_3,,,,,270.0,5.0,108.0,162.0,216.0,324.0,54.0,270.0,gray,hexagon
0.0,1.0,1.0,0.0,7.0,4.0,1024.9297610716894,4.0,1.0,phase_3,,,,,270.0,5.0,324.0,54.0,162.0,270.0,216.0,108.0,yellow,triangle
0.0,1.0,1.0,0.0,7.0,6.0,1338.151291012764,4.0,1.0,phase_3,,,,,294.0,6.0,147.0,49.0,245.0,98.0,196.0,294.0,yellow,triangle
