raw_reward_magnitude,stim_reward,stepwise_reward_magnitude,paired_with_stopping,stim_location,response,reaction_time,block,num_trial_presentations,which_phase,stop_signal_trial_type,left_SSD,right_SSD,accuracy,chosen_bidding_amount,chosen_bidding_level,possible_bid_1,possible_bid_2,possible_bid_3,possible_bid_4,possible_bid_5,possible_bid_6,color_text,shape_text
120.0,2.0,2.0,0.0,2.0,2.0,415.1217270409688,1.0,1.0,phase_1,,,,,,,,,,,,,white,diamond
0.0,7.0,0.0,1.0,3.0,3.0,324.0028419531882,1.0,1.0,phase_1,,,,,,,,,,,,,magenta,triangle
419.0,4.0,4.0,0.0,2.0,2.0,390.5371759319678,1.0,1.0,phase_1,,,,,,,,,,,,,gray,circle
43.0,5.0,1.0,1.0,2.0,2.0,322.9934220435098,1.0,1.0,phase_1,,,,,,,,,,,,,cyan,hexagon
76.0,6.0,2.0,1.0,4.0,4.0,376.0758760618046,1.0,1.0,phase_1,,,,,,,,,,,,,blue,cross
77.0,6.0,2.0,1.0,1.0,1.0,287.5409739790484,1.0,1.0,phase_1,,,,,,,,,,,,,blue,cross
412.0,4.0,4.0,0.0,1.0,1.0,354.0612069191411,1.0,1.0,phase_1,,,,,,,,,,,,,gray,circle
57.0,1.0,1.0,0.0,1.0,1.0,350.9090100415051,1.0,1.0,phase_1,,,,,,,,,,,,,orange,square
113.0,6.0,2.0,1.0,2.0,2.0,300.9577660122886,1.0,1.0,phase_1,,,,,,,,,,,,,blue,cross
121.0,6.0,2.0,1.0,2.0,2.0,304.550472064875,1.0,1.0,phase_1,,,,,,,,,,,,,blue,cross
0.0,3.0,0.0,0.0,4.0,4.0,304.282907047309,1.0,1.0,phase_1,,,,,,,,,,,,,green,I
66.0,5.0,1.0,1.0,4.0,4.0,352.9203690122813,1.0,1.0,phase_1,,,,,,,,,,,,,cyan,hexagon
177.0,3.0,3.0,0.0,3.0,3.0,360.3043899638578,1.0,1.0,phase_1,,,,,,,,,,,,,green,I
0.0,7.0,0.0,1.0,1.0,1.0,354.2865809286013,1.0,1.0,phase_1,,,,,,,,,,,,,magenta,triangle
411.0,8.0,4.0,1.0,4.0,4.0,335.6345769716427,1.0,1.0,phase_1,,,,,,,,,,,,,yellow,flipped triangle
114.0,2.0,2.0,0.0,4.0,4.0,299.487464944832,1.0,1.0,phase_1,,,,,,,,,,,,,white,diamond
114.0,6.0,2.0,1.0,1.0,1.0,332.0968199986964,1.0,1.0,phase_1,,,,,,,,,,,,,blue,cross
66.0,1.0,1.0,0.0,3.0,3.0,344.0997760044411,1.0,1.0,phase_1,,,,,,,,,,,,,orange,square
29.0,1.0,1.0,0.0,1.0,1.0,332.8845059731975,1.0,1.0,phase_1,,,,,,,,,,,,,orange,square
222.0,3.0,3.0,0.0,1.0,1.0,336.6116400575265,1.0,1.0,phase_1,,,,,,,,,,,,,green,I
28.0,1.0,1.0,0.0,2.0,2.0,306.9735940080136,1.0,1.0,phase_1,,,,,,,,,,,,,orange,square
177.0,7.0,3.0,1.0,2.0,2.0,295.445158961229,1.0,1.0,phase_1,,,,,,,,,,,,,magenta,triangle
390.0,8.0,4.0,1.0,4.0,4.0,340.239419019781,1.0,1.0,phase_1,,,,,,,,,,,,,yellow,flipped triangle
211.0,3.0,3.0,0.0,2.0,2.0,312.8459599101916,1.0,1.0,phase_1,,,,,,,,,,,,,green,I
95.0,2.0,2.0,0.0,4.0,4.0,353.3884399803355,1.0,1.0,phase_1,,,,,,,,,,,,,white,diamond
216.0,3.0,3.0,0.0,1.0,1.0,349.6226099086925,1.0,1.0,phase_1,,,,,,,,,,,,,green,I
414.0,8.0,4.0,1.0,3.0,3.0,314.3798250239342,1.0,1.0,phase_1,,,,,,,,,,,,,yellow,flipped triangle
95.0,6.0,2.0,1.0,4.0,4.0,339.7900589043274,1.0,1.0,phase_1,,,,,,,,,,,,,blue,cross
110.0,2.0,2.0,0.0,3.0,3.0,336.5446269745007,1.0,1.0,phase_1,,,,,,,,,,,,,white,diamond
415.0,8.0,4.0,1.0,4.0,4.0,319.3852079566568,1.0,1.0,phase_1,,,,,,,,,,,,,yellow,flipped triangle
36.0,1.0,1.0,0.0,3.0,3.0,298.195495037362,1.0,1.0,phase_1,,,,,,,,,,,,,orange,square
0.0,5.0,0.0,1.0,4.0,4.0,328.3017870271578,1.0,1.0,phase_1,,,,,,,,,,,,,cyan,hexagon
116.0,2.0,2.0,0.0,3.0,3.0,319.0386990318075,1.0,1.0,phase_1,,,,,,,,,,,,,white,diamond
96.0,6.0,2.0,1.0,1.0,1.0,283.0080121057108,1.0,1.0,phase_1,,,,,,,,,,,,,blue,cross
419.0,8.0,4.0,1.0,2.0,2.0,304.0185970021412,1.0,1.0,phase_1,,,,,,,,,,,,,yellow,flipped triangle
393.0,4.0,4.0,0.0,1.0,1.0,365.2022659080103,1.0,1.0,phase_1,,,,,,,,,,,,,gray,circle
389.0,8.0,4.0,1.0,1.0,1.0,481.0825700405985,1.0,1.0,phase_1,,,,,,,,,,,,,yellow,flipped triangle
212.0,7.0,3.0,1.0,1.0,1.0,307.7282060403377,1.0,1.0,phase_1,,,,,,,,,,,,,magenta,triangle
98.0,2.0,2.0,0.0,1.0,1.0,287.3802270041778,1.0,1.0,phase_1,,,,,,,,,,,,,white,diamond
384.0,4.0,4.0,0.0,3.0,3.0,304.1136580286547,1.0,1.0,phase_1,,,,,,,,,,,,,gray,circle
59.0,5.0,1.0,1.0,4.0,4.0,308.0475919414311,1.0,1.0,phase_1,,,,,,,,,,,,,cyan,hexagon
421.0,8.0,4.0,1.0,4.0,4.0,301.4343560207635,1.0,1.0,phase_1,,,,,,,,,,,,,yellow,flipped triangle
192.0,3.0,3.0,0.0,4.0,4.0,283.1001610029489,1.0,1.0,phase_1,,,,,,,,,,,,,green,I
43.0,1.0,1.0,0.0,3.0,3.0,352.8331279521808,1.0,1.0,phase_1,,,,,,,,,,,,,orange,square
85.0,2.0,2.0,0.0,2.0,2.0,299.7034569270909,1.0,1.0,phase_1,,,,,,,,,,,,,white,diamond
35.0,5.0,1.0,1.0,2.0,2.0,290.9263889305293,1.0,1.0,phase_1,,,,,,,,,,,,,cyan,hexagon
200.0,7.0,3.0,1.0,2.0,2.0,308.6158420192078,1.0,1.0,phase_1,,,,,,,,,,,,,magenta,triangle
69.0,1.0,1.0,0.0,4.0,4.0,316.4581800810992,1.0,1.0,phase_1,,,,,,,,,,,,,orange,square
0.0,3.0,0.0,0.0,2.0,2.0,337.2057569213211,1.0,1.0,phase_1,,,,,,,,,,,,,green,I
66.0,1.0,1.0,0.0,4.0,4.0,332.1058599976823,1.0,1.0,phase_1,,,,,,,,,,,,,orange,square
69.0,5.0,1.0,1.0,3.0,3.0,321.3558930438012,1.0,1.0,phase_1,,,,,,,,,,,,,cyan,hexagon
195.0,3.0,3.0,0.0,2.0,2.0,414.5153970457613,1.0,1.0,phase_1,,,,,,,,,,,,,green,I
390.0,4.0,4.0,0.0,3.0,3.0,344.7355600073933,1.0,1.0,phase_1,,,,,,,,,,,,,gray,circle
98.0,6.0,2.0,1.0,3.0,3.0,302.475232980214,1.0,1.0,phase_1,,,,,,,,,,,,,blue,cross
103.0,6.0,2.0,1.0,4.0,4.0,302.3910690099001,1.0,1.0,phase_1,,,,,,,,,,,,,blue,cross
418.0,4.0,4.0,0.0,2.0,2.0,342.7192410454154,1.0,1.0,phase_1,,,,,,,,,,,,,gray,circle
195.0,7.0,3.0,1.0,2.0,2.0,286.3980149850249,1.0,1.0,phase_1,,,,,,,,,,,,,magenta,triangle
220.0,3.0,3.0,0.0,3.0,3.0,265.1685570599511,1.0,1.0,phase_1,,,,,,,,,,,,,green,I
0.0,6.0,0.0,1.0,1.0,1.0,301.5091449487954,1.0,1.0,phase_1,,,,,,,,,,,,,blue,cross
205.0,3.0,3.0,0.0,4.0,4.0,290.1342050172388,1.0,1.0,phase_1,,,,,,,,,,,,,green,I
186.0,3.0,3.0,0.0,4.0,4.0,287.0454610092565,1.0,1.0,phase_1,,,,,,,,,,,,,green,I
0.0,4.0,0.0,0.0,1.0,1.0,311.1477519851178,1.0,1.0,phase_1,,,,,,,,,,,,,gray,circle
76.0,2.0,2.0,0.0,1.0,1.0,307.9631790751591,1.0,1.0,phase_1,,,,,,,,,,,,,white,diamond
74.0,1.0,1.0,0.0,2.0,2.0,261.640295968391,1.0,1.0,phase_1,,,,,,,,,,,,,orange,square
0.0,1.0,0.0,0.0,1.0,1.0,324.1658440092578,1.0,1.0,phase_1,,,,,,,,,,,,,orange,square
105.0,6.0,2.0,1.0,4.0,4.0,345.9988390095532,1.0,1.0,phase_1,,,,,,,,,,,,,blue,cross
53.0,1.0,1.0,0.0,2.0,2.0,339.5446910290047,1.0,1.0,phase_1,,,,,,,,,,,,,orange,square
66.0,5.0,1.0,1.0,2.0,2.0,295.755062950775,1.0,1.0,phase_1,,,,,,,,,,,,,cyan,hexagon
210.0,3.0,3.0,0.0,2.0,2.0,302.9497339157387,1.0,1.0,phase_1,,,,,,,,,,,,,green,I
63.0,5.0,1.0,1.0,2.0,2.0,323.9045139634982,1.0,1.0,phase_1,,,,,,,,,,,,,cyan,hexagon
402.0,4.0,4.0,0.0,3.0,3.0,327.0907929399982,1.0,1.0,phase_1,,,,,,,,,,,,,gray,circle
216.0,3.0,3.0,0.0,2.0,2.0,290.3512449702248,1.0,1.0,phase_1,,,,,,,,,,,,,green,I
0.0,8.0,0.0,1.0,2.0,2.0,306.4657419454306,1.0,1.0,phase_1,,,,,,,,,,,,,yellow,flipped triangle
0.0,8.0,0.0,1.0,2.0,2.0,267.5912639824673,1.0,1.0,phase_1,,,,,,,,,,,,,yellow,flipped triangle
0.0,1.0,0.0,0.0,2.0,2.0,290.5682940036058,1.0,1.0,phase_1,,,,,,,,,,,,,orange,square
0.0,4.0,0.0,0.0,2.0,2.0,342.5586119992658,1.0,1.0,phase_1,,,,,,,,,,,,,gray,circle
197.0,3.0,3.0,0.0,4.0,4.0,321.6879849787801,1.0,1.0,phase_1,,,,,,,,,,,,,green,I
393.0,8.0,4.0,1.0,2.0,2.0,302.4214090546593,1.0,1.0,phase_1,,,,,,,,,,,,,yellow,flipped triangle
389.0,8.0,4.0,1.0,2.0,2.0,245.1158880721777,1.0,1.0,phase_1,,,,,,,,,,,,,yellow,flipped triangle
408.0,4.0,4.0,0.0,2.0,2.0,290.5504709342494,1.0,1.0,phase_1,,,,,,,,,,,,,gray,circle
57.0,5.0,1.0,1.0,4.0,4.0,298.8043080549687,1.0,2.0,phase_1,,,,,,,,,,,,,cyan,hexagon
384.0,8.0,4.0,1.0,3.0,3.0,343.1407740572467,1.0,1.0,phase_1,,,,,,,,,,,,,yellow,flipped triangle
0.0,4.0,0.0,0.0,3.0,3.0,349.4352840352803,1.0,1.0,phase_1,,,,,,,,,,,,,gray,circle
0.0,4.0,0.0,0.0,2.0,2.0,303.8114400114864,1.0,1.0,phase_1,,,,,,,,,,,,,gray,circle
85.0,6.0,2.0,1.0,1.0,1.0,331.7365850089118,1.0,1.0,phase_1,,,,,,,,,,,,,blue,cross
0.0,3.0,0.0,0.0,1.0,1.0,377.0547040039673,1.0,1.0,phase_1,,,,,,,,,,,,,green,I
188.0,7.0,3.0,1.0,3.0,3.0,320.1391199836507,1.0,1.0,phase_1,,,,,,,,,,,,,magenta,triangle
0.0,8.0,0.0,1.0,1.0,1.0,337.8653980325907,1.0,1.0,phase_1,,,,,,,,,,,,,yellow,flipped triangle
87.0,6.0,2.0,1.0,2.0,2.0,296.4334459975362,1.0,1.0,phase_1,,,,,,,,,,,,,blue,cross
379.0,4.0,4.0,0.0,3.0,3.0,331.4567420165986,1.0,1.0,phase_1,,,,,,,,,,,,,gray,circle
188.0,3.0,3.0,0.0,2.0,2.0,321.4622770901769,1.0,1.0,phase_1,,,,,,,,,,,,,green,I
420.0,4.0,4.0,0.0,4.0,4.0,372.6996349869296,1.0,1.0,phase_1,,,,,,,,,,,,,gray,circle
0.0,5.0,0.0,1.0,2.0,2.0,331.1841490212828,1.0,1.0,phase_1,,,,,,,,,,,,,cyan,hexagon
222.0,7.0,3.0,1.0,2.0,2.0,289.63706898503,1.0,1.0,phase_1,,,,,,,,,,,,,magenta,triangle
195.0,7.0,3.0,1.0,4.0,4.0,307.677682954818,1.0,1.0,phase_1,,,,,,,,,,,,,magenta,triangle
0.0,2.0,0.0,0.0,4.0,4.0,298.8876679446548,1.0,1.0,phase_1,,,,,,,,,,,,,white,diamond
220.0,7.0,3.0,1.0,4.0,4.0,285.7535089133307,1.0,1.0,phase_1,,,,,,,,,,,,,magenta,triangle
411.0,4.0,4.0,0.0,1.0,1.0,306.3143959734589,1.0,1.0,phase_1,,,,,,,,,,,,,gray,circle
182.0,3.0,3.0,0.0,4.0,4.0,303.8536789827049,1.0,1.0,phase_1,,,,,,,,,,,,,green,I
403.0,4.0,4.0,0.0,4.0,4.0,338.0514369346201,1.0,1.0,phase_1,,,,,,,,,,,,,gray,circle
115.0,6.0,2.0,1.0,3.0,3.0,341.7205980513245,2.0,1.0,phase_1,,,,,,,,,,,,,blue,cross
406.0,4.0,4.0,0.0,1.0,1.0,311.8286420358345,2.0,1.0,phase_1,,,,,,,,,,,,,gray,circle
412.0,8.0,4.0,1.0,1.0,1.0,320.3697870485484,2.0,1.0,phase_1,,,,,,,,,,,,,yellow,flipped triangle
35.0,1.0,1.0,0.0,4.0,4.0,307.4557220097631,2.0,1.0,phase_1,,,,,,,,,,,,,orange,square
56.0,1.0,1.0,0.0,4.0,4.0,281.513876048848,2.0,1.0,phase_1,,,,,,,,,,,,,orange,square
44.0,5.0,1.0,1.0,2.0,2.0,316.5467620128765,2.0,1.0,phase_1,,,,,,,,,,,,,cyan,hexagon
105.0,2.0,2.0,0.0,2.0,2.0,263.1241559283808,2.0,1.0,phase_1,,,,,,,,,,,,,white,diamond
0.0,5.0,0.0,1.0,3.0,3.0,327.401552000083,2.0,1.0,phase_1,,,,,,,,,,,,,cyan,hexagon
0.0,8.0,0.0,1.0,2.0,2.0,265.8014519838616,2.0,1.0,phase_1,,,,,,,,,,,,,yellow,flipped triangle
412.0,8.0,4.0,1.0,4.0,4.0,303.4442350035533,2.0,1.0,phase_1,,,,,,,,,,,,,yellow,flipped triangle
92.0,2.0,2.0,0.0,3.0,3.0,292.2779050422832,2.0,1.0,phase_1,,,,,,,,,,,,,white,diamond
0.0,5.0,0.0,1.0,1.0,1.0,257.0977689465508,2.0,1.0,phase_1,,,,,,,,,,,,,cyan,hexagon
37.0,5.0,1.0,1.0,1.0,1.0,301.5640609664842,2.0,1.0,phase_1,,,,,,,,,,,,,cyan,hexagon
96.0,2.0,2.0,0.0,4.0,4.0,314.9263839004561,2.0,1.0,phase_1,,,,,,,,,,,,,white,diamond
37.0,1.0,1.0,0.0,1.0,1.0,309.9566949531436,2.0,1.0,phase_1,,,,,,,,,,,,,orange,square
0.0,8.0,0.0,1.0,2.0,2.0,348.9405639702454,2.0,1.0,phase_1,,,,,,,,,,,,,yellow,flipped triangle
52.0,1.0,1.0,0.0,1.0,1.0,286.2200119998306,2.0,1.0,phase_1,,,,,,,,,,,,,orange,square
99.0,6.0,2.0,1.0,3.0,3.0,310.1355499820784,2.0,1.0,phase_1,,,,,,,,,,,,,blue,cross
420.0,8.0,4.0,1.0,2.0,2.0,298.5942299710586,2.0,1.0,phase_1,,,,,,,,,,,,,yellow,flipped triangle
30.0,1.0,1.0,0.0,1.0,1.0,285.7145870802924,2.0,1.0,phase_1,,,,,,,,,,,,,orange,square
92.0,2.0,2.0,0.0,1.0,1.0,290.8942350186407,2.0,1.0,phase_1,,,,,,,,,,,,,white,diamond
0.0,2.0,0.0,0.0,1.0,1.0,302.6494140503928,2.0,1.0,phase_1,,,,,,,,,,,,,white,diamond
403.0,8.0,4.0,1.0,1.0,1.0,267.0949649764225,2.0,1.0,phase_1,,,,,,,,,,,,,yellow,flipped triangle
100.0,6.0,2.0,1.0,2.0,2.0,303.3557529561221,2.0,1.0,phase_1,,,,,,,,,,,,,blue,cross
0.0,3.0,0.0,0.0,4.0,4.0,389.6593180252239,2.0,1.0,phase_1,,,,,,,,,,,,,green,I
420.0,4.0,4.0,0.0,2.0,2.0,290.3478189837187,2.0,1.0,phase_1,,,,,,,,,,,,,gray,circle
0.0,2.0,0.0,0.0,1.0,1.0,278.942467062734,2.0,1.0,phase_1,,,,,,,,,,,,,white,diamond
421.0,4.0,4.0,0.0,4.0,4.0,291.8209109921008,2.0,1.0,phase_1,,,,,,,,,,,,,gray,circle
175.0,3.0,3.0,0.0,3.0,3.0,319.5108149666339,2.0,1.0,phase_1,,,,,,,,,,,,,green,I
197.0,7.0,3.0,1.0,2.0,2.0,283.2981760147959,2.0,1.0,phase_1,,,,,,,,,,,,,magenta,triangle
393.0,8.0,4.0,1.0,3.0,3.0,273.6517590237781,2.0,1.0,phase_1,,,,,,,,,,,,,yellow,flipped triangle
64.0,5.0,1.0,1.0,1.0,1.0,303.8789430866018,2.0,1.0,phase_1,,,,,,,,,,,,,cyan,hexagon
184.0,3.0,3.0,0.0,3.0,3.0,339.6077629877254,2.0,1.0,phase_1,,,,,,,,,,,,,green,I
181.0,3.0,3.0,0.0,1.0,1.0,320.9124159766361,2.0,1.0,phase_1,,,,,,,,,,,,,green,I
0.0,4.0,0.0,0.0,1.0,1.0,331.2887500505894,2.0,1.0,phase_1,,,,,,,,,,,,,gray,circle
207.0,3.0,3.0,0.0,2.0,2.0,345.7497580675408,2.0,1.0,phase_1,,,,,,,,,,,,,green,I
206.0,7.0,3.0,1.0,3.0,3.0,294.6903429692611,2.0,1.0,phase_1,,,,,,,,,,,,,magenta,triangle
0.0,1.0,0.0,0.0,4.0,4.0,333.1542919622734,2.0,1.0,phase_1,,,,,,,,,,,,,orange,square
219.0,3.0,3.0,0.0,1.0,1.0,277.8397190850228,2.0,1.0,phase_1,,,,,,,,,,,,,green,I
0.0,7.0,0.0,1.0,3.0,3.0,306.2327089719474,2.0,1.0,phase_1,,,,,,,,,,,,,magenta,triangle
414.0,4.0,4.0,0.0,2.0,2.0,287.6771700102836,2.0,1.0,phase_1,,,,,,,,,,,,,gray,circle
0.0,1.0,0.0,0.0,3.0,3.0,356.3624339876696,2.0,1.0,phase_1,,,,,,,,,,,,,orange,square
54.0,1.0,1.0,0.0,1.0,1.0,266.5147810475901,2.0,1.0,phase_1,,,,,,,,,,,,,orange,square
71.0,1.0,1.0,0.0,1.0,1.0,301.9579979591071,2.0,1.0,phase_1,,,,,,,,,,,,,orange,square
406.0,4.0,4.0,0.0,3.0,3.0,290.5932400608435,2.0,1.0,phase_1,,,,,,,,,,,,,gray,circle
36.0,5.0,1.0,1.0,3.0,3.0,319.4272340042516,2.0,1.0,phase_1,,,,,,,,,,,,,cyan,hexagon
382.0,4.0,4.0,0.0,3.0,3.0,308.928754995577,2.0,1.0,phase_1,,,,,,,,,,,,,gray,circle
196.0,7.0,3.0,1.0,3.0,3.0,274.6256050886586,2.0,1.0,phase_1,,,,,,,,,,,,,magenta,triangle
42.0,1.0,1.0,0.0,3.0,3.0,316.3069110596552,2.0,1.0,phase_1,,,,,,,,,,,,,orange,square
190.0,7.0,3.0,1.0,1.0,1.0,299.9850059859454,2.0,1.0,phase_1,,,,,,,,,,,,,magenta,triangle
389.0,4.0,4.0,0.0,2.0,2.0,303.9804850704968,2.0,1.0,phase_1,,,,,,,,,,,,,gray,circle
0.0,2.0,0.0,0.0,2.0,2.0,292.6902349572629,2.0,1.0,phase_1,,,,,,,,,,,,,white,diamond
378.0,8.0,4.0,1.0,1.0,1.0,303.8737280294299,2.0,1.0,phase_1,,,,,,,,,,,,,yellow,flipped triangle
57.0,1.0,1.0,0.0,4.0,4.0,344.0866009332239,2.0,1.0,phase_1,,,,,,,,,,,,,orange,square
210.0,7.0,3.0,1.0,1.0,1.0,291.7177580529824,2.0,1.0,phase_1,,,,,,,,,,,,,magenta,triangle
377.0,8.0,4.0,1.0,3.0,3.0,311.4601480774581,2.0,1.0,phase_1,,,,,,,,,,,,,yellow,flipped triangle
190.0,3.0,3.0,0.0,3.0,3.0,316.440958995372,2.0,1.0,phase_1,,,,,,,,,,,,,green,I
410.0,4.0,4.0,0.0,2.0,2.0,290.5862650368362,2.0,1.0,phase_1,,,,,,,,,,,,,gray,circle
0.0,8.0,0.0,1.0,3.0,3.0,303.6063320469111,2.0,1.0,phase_1,,,,,,,,,,,,,yellow,flipped triangle
0.0,2.0,0.0,0.0,3.0,3.0,273.1803879141807,2.0,1.0,phase_1,,,,,,,,,,,,,white,diamond
0.0,7.0,0.0,1.0,4.0,4.0,283.1990330014378,2.0,2.0,phase_1,,,,,,,,,,,,,magenta,triangle
379.0,8.0,4.0,1.0,3.0,3.0,278.0457210028544,2.0,1.0,phase_1,,,,,,,,,,,,,yellow,flipped triangle
61.0,1.0,1.0,0.0,3.0,3.0,291.4936400484293,2.0,1.0,phase_1,,,,,,,,,,,,,orange,square
32.0,1.0,1.0,0.0,1.0,1.0,298.2882910873741,2.0,1.0,phase_1,,,,,,,,,,,,,orange,square
212.0,3.0,3.0,0.0,2.0,2.0,326.827178010717,2.0,1.0,phase_1,,,,,,,,,,,,,green,I
59.0,1.0,1.0,0.0,4.0,4.0,314.8312859702855,2.0,1.0,phase_1,,,,,,,,,,,,,orange,square
0.0,4.0,0.0,0.0,3.0,3.0,303.2401619711891,2.0,1.0,phase_1,,,,,,,,,,,,,gray,circle
115.0,6.0,2.0,1.0,3.0,3.0,307.7015730086714,2.0,1.0,phase_1,,,,,,,,,,,,,blue,cross
211.0,3.0,3.0,0.0,3.0,3.0,254.6848079655319,2.0,1.0,phase_1,,,,,,,,,,,,,green,I
54.0,5.0,1.0,1.0,3.0,3.0,348.4800909645855,2.0,1.0,phase_1,,,,,,,,,,,,,cyan,hexagon
0.0,3.0,0.0,0.0,2.0,2.0,336.8980080122128,2.0,1.0,phase_1,,,,,,,,,,,,,green,I
0.0,3.0,0.0,0.0,2.0,2.0,271.2964050006121,2.0,1.0,phase_1,,,,,,,,,,,,,green,I
190.0,3.0,3.0,0.0,4.0,4.0,297.4660609615966,2.0,1.0,phase_1,,,,,,,,,,,,,green,I
120.0,6.0,2.0,1.0,3.0,3.0,327.2108780220151,2.0,1.0,phase_1,,,,,,,,,,,,,blue,cross
85.0,2.0,2.0,0.0,2.0,2.0,282.5794949894771,2.0,1.0,phase_1,,,,,,,,,,,,,white,diamond
0.0,4.0,0.0,0.0,1.0,1.0,336.3902869168669,2.0,1.0,phase_1,,,,,,,,,,,,,gray,circle
42.0,1.0,1.0,0.0,1.0,1.0,319.4606979377568,2.0,1.0,phase_1,,,,,,,,,,,,,orange,square
71.0,5.0,1.0,1.0,1.0,1.0,323.6191590549424,2.0,1.0,phase_1,,,,,,,,,,,,,cyan,hexagon
76.0,6.0,2.0,1.0,4.0,4.0,318.9024869352579,2.0,1.0,phase_1,,,,,,,,,,,,,blue,cross
0.0,6.0,0.0,1.0,1.0,1.0,324.7667390387505,2.0,1.0,phase_1,,,,,,,,,,,,,blue,cross
69.0,5.0,1.0,1.0,4.0,4.0,311.1523690167814,2.0,1.0,phase_1,,,,,,,,,,,,,cyan,hexagon
0.0,5.0,0.0,1.0,2.0,2.0,270.8432829240337,2.0,1.0,phase_1,,,,,,,,,,,,,cyan,hexagon
100.0,2.0,2.0,0.0,3.0,3.0,290.9337170422077,2.0,1.0,phase_1,,,,,,,,,,,,,white,diamond
380.0,4.0,4.0,0.0,3.0,3.0,304.0073909796774,2.0,1.0,phase_1,,,,,,,,,,,,,gray,circle
0.0,4.0,0.0,0.0,3.0,3.0,275.054536992684,2.0,1.0,phase_1,,,,,,,,,,,,,gray,circle
42.0,5.0,1.0,1.0,3.0,3.0,266.5696680778637,2.0,1.0,phase_1,,,,,,,,,,,,,cyan,hexagon
85.0,6.0,2.0,1.0,1.0,1.0,390.1043180376291,2.0,1.0,phase_1,,,,,,,,,,,,,blue,cross
195.0,3.0,3.0,0.0,1.0,1.0,338.081442983821,2.0,1.0,phase_1,,,,,,,,,,,,,green,I
106.0,6.0,2.0,1.0,4.0,4.0,334.7279069712385,2.0,1.0,phase_1,,,,,,,,,,,,,blue,cross
378.0,4.0,4.0,0.0,4.0,4.0,290.4244919773191,2.0,1.0,phase_1,,,,,,,,,,,,,gray,circle
201.0,7.0,3.0,1.0,1.0,1.0,270.2939769951626,2.0,1.0,phase_1,,,,,,,,,,,,,magenta,triangle
0.0,2.0,0.0,0.0,1.0,1.0,306.4936079317704,2.0,1.0,phase_1,,,,,,,,,,,,,white,diamond
406.0,8.0,4.0,1.0,1.0,1.0,345.2875439543277,2.0,1.0,phase_1,,,,,,,,,,,,,yellow,flipped triangle
415.0,4.0,4.0,0.0,4.0,4.0,302.0922919968143,2.0,1.0,phase_1,,,,,,,,,,,,,gray,circle
412.0,4.0,4.0,0.0,4.0,4.0,307.1109589654952,2.0,1.0,phase_1,,,,,,,,,,,,,gray,circle
42.0,5.0,1.0,1.0,4.0,4.0,301.5839270083233,2.0,1.0,phase_1,,,,,,,,,,,,,cyan,hexagon
0.0,5.0,0.0,1.0,4.0,4.0,285.9268869506195,2.0,1.0,phase_1,,,,,,,,,,,,,cyan,hexagon
0.0,7.0,0.0,1.0,1.0,1.0,274.0706939948722,2.0,1.0,phase_1,,,,,,,,,,,,,magenta,triangle
74.0,5.0,1.0,1.0,2.0,2.0,326.9642050145194,2.0,1.0,phase_1,,,,,,,,,,,,,cyan,hexagon
201.0,3.0,3.0,0.0,1.0,1.0,368.3711129706353,2.0,1.0,phase_1,,,,,,,,,,,,,green,I
28.0,5.0,1.0,1.0,3.0,3.0,462.4586020363495,3.0,1.0,phase_1,,,,,,,,,,,,,cyan,hexagon
212.0,7.0,3.0,1.0,3.0,3.0,277.2348480066284,3.0,1.0,phase_1,,,,,,,,,,,,,magenta,triangle
99.0,2.0,2.0,0.0,1.0,1.0,281.9127599941566,3.0,1.0,phase_1,,,,,,,,,,,,,white,diamond
402.0,8.0,4.0,1.0,2.0,2.0,352.2708510281518,3.0,1.0,phase_1,,,,,,,,,,,,,yellow,flipped triangle
64.0,1.0,1.0,0.0,2.0,2.0,290.9244179027155,3.0,1.0,phase_1,,,,,,,,,,,,,orange,square
0.0,1.0,0.0,0.0,3.0,3.0,417.1274940017611,3.0,1.0,phase_1,,,,,,,,,,,,,orange,square
0.0,4.0,0.0,0.0,4.0,4.0,323.1502389535308,3.0,1.0,phase_1,,,,,,,,,,,,,gray,circle
395.0,4.0,4.0,0.0,1.0,1.0,322.1166969742626,3.0,1.0,phase_1,,,,,,,,,,,,,gray,circle
381.0,8.0,4.0,1.0,1.0,1.0,268.803124083206,3.0,1.0,phase_1,,,,,,,,,,,,,yellow,flipped triangle
185.0,3.0,3.0,0.0,2.0,2.0,290.3729939134791,3.0,1.0,phase_1,,,,,,,,,,,,,green,I
396.0,8.0,4.0,1.0,4.0,4.0,320.3734679846093,3.0,1.0,phase_1,,,,,,,,,,,,,yellow,flipped triangle
100.0,2.0,2.0,0.0,1.0,1.0,277.1608809707686,3.0,1.0,phase_1,,,,,,,,,,,,,white,diamond
84.0,2.0,2.0,0.0,4.0,4.0,297.8444199543446,3.0,1.0,phase_1,,,,,,,,,,,,,white,diamond
0.0,2.0,0.0,0.0,3.0,3.0,311.5496470127255,3.0,1.0,phase_1,,,,,,,,,,,,,white,diamond
408.0,8.0,4.0,1.0,3.0,3.0,314.151341910474,3.0,1.0,phase_1,,,,,,,,,,,,,yellow,flipped triangle
207.0,3.0,3.0,0.0,3.0,3.0,286.5722370333969,3.0,1.0,phase_1,,,,,,,,,,,,,green,I
86.0,2.0,2.0,0.0,4.0,4.0,314.9320640368387,3.0,1.0,phase_1,,,,,,,,,,,,,white,diamond
112.0,6.0,2.0,1.0,4.0,4.0,281.3547470141202,3.0,1.0,phase_1,,,,,,,,,,,,,blue,cross
216.0,7.0,3.0,1.0,4.0,4.0,310.5757690500468,3.0,1.0,phase_1,,,,,,,,,,,,,magenta,triangle
86.0,6.0,2.0,1.0,2.0,2.0,290.9886370180174,3.0,1.0,phase_1,,,,,,,,,,,,,blue,cross
56.0,5.0,1.0,1.0,1.0,1.0,278.4065579762682,3.0,1.0,phase_1,,,,,,,,,,,,,cyan,hexagon
0.0,6.0,0.0,1.0,2.0,2.0,281.1520550167188,3.0,1.0,phase_1,,,,,,,,,,,,,blue,cross
181.0,7.0,3.0,1.0,4.0,4.0,295.3387349843979,3.0,1.0,phase_1,,,,,,,,,,,,,magenta,triangle
207.0,7.0,3.0,1.0,4.0,4.0,290.5619289958849,3.0,1.0,phase_1,,,,,,,,,,,,,magenta,triangle
0.0,8.0,0.0,1.0,4.0,4.0,302.9643319314345,3.0,1.0,phase_1,,,,,,,,,,,,,yellow,flipped triangle
216.0,7.0,3.0,1.0,3.0,3.0,347.9490770259872,3.0,1.0,phase_1,,,,,,,,,,,,,magenta,triangle
31.0,1.0,1.0,0.0,3.0,3.0,298.7908850191161,3.0,1.0,phase_1,,,,,,,,,,,,,orange,square
225.0,7.0,3.0,1.0,4.0,4.0,311.3431910751387,3.0,1.0,phase_1,,,,,,,,,,,,,magenta,triangle
186.0,7.0,3.0,1.0,4.0,4.0,299.5674449484795,3.0,1.0,phase_1,,,,,,,,,,,,,magenta,triangle
91.0,2.0,2.0,0.0,3.0,3.0,289.1548140905797,3.0,1.0,phase_1,,,,,,,,,,,,,white,diamond
0.0,3.0,0.0,0.0,1.0,1.0,315.2664859080687,3.0,1.0,phase_1,,,,,,,,,,,,,green,I
175.0,7.0,3.0,1.0,3.0,3.0,265.0360299739986,3.0,1.0,phase_1,,,,,,,,,,,,,magenta,triangle
32.0,5.0,1.0,1.0,4.0,4.0,303.4692730288952,3.0,1.0,phase_1,,,,,,,,,,,,,cyan,hexagon
105.0,2.0,2.0,0.0,1.0,1.0,265.9242640947923,3.0,1.0,phase_1,,,,,,,,,,,,,white,diamond
0.0,6.0,0.0,1.0,3.0,3.0,273.8540809368714,3.0,1.0,phase_1,,,,,,,,,,,,,blue,cross
0.0,7.0,0.0,1.0,1.0,1.0,283.169429982081,3.0,1.0,phase_1,,,,,,,,,,,,,magenta,triangle
399.0,4.0,4.0,0.0,2.0,2.0,306.9048589095473,3.0,1.0,phase_1,,,,,,,,,,,,,gray,circle
396.0,4.0,4.0,0.0,1.0,1.0,294.8788609355688,3.0,1.0,phase_1,,,,,,,,,,,,,gray,circle
103.0,2.0,2.0,0.0,2.0,2.0,323.1645110063255,3.0,1.0,phase_1,,,,,,,,,,,,,white,diamond
100.0,6.0,2.0,1.0,2.0,2.0,272.8764129569754,3.0,1.0,phase_1,,,,,,,,,,,,,blue,cross
184.0,7.0,3.0,1.0,4.0,4.0,315.1874820468947,3.0,1.0,phase_1,,,,,,,,,,,,,magenta,triangle
31.0,1.0,1.0,0.0,2.0,2.0,273.7697020638734,3.0,1.0,phase_1,,,,,,,,,,,,,orange,square
214.0,7.0,3.0,1.0,1.0,1.0,285.5445879977196,3.0,1.0,phase_1,,,,,,,,,,,,,magenta,triangle
381.0,4.0,4.0,0.0,2.0,2.0,319.5630420232191,3.0,1.0,phase_1,,,,,,,,,,,,,gray,circle
415.0,8.0,4.0,1.0,2.0,2.0,238.782495027408,3.0,1.0,phase_1,,,,,,,,,,,,,yellow,flipped triangle
103.0,6.0,2.0,1.0,1.0,1.0,274.2036199197173,3.0,1.0,phase_1,,,,,,,,,,,,,blue,cross
389.0,4.0,4.0,0.0,1.0,1.0,310.3789129527285,3.0,1.0,phase_1,,,,,,,,,,,,,gray,circle
108.0,2.0,2.0,0.0,2.0,2.0,274.5974120916798,3.0,1.0,phase_1,,,,,,,,,,,,,white,diamond
87.0,2.0,2.0,0.0,2.0,2.0,319.162392988801,3.0,1.0,phase_1,,,,,,,,,,,,,white,diamond
177.0,7.0,3.0,1.0,2.0,2.0,270.600441028364,3.0,1.0,phase_1,,,,,,,,,,,,,magenta,triangle
201.0,3.0,3.0,0.0,1.0,1.0,363.7496139854193,3.0,1.0,phase_1,,,,,,,,,,,,,green,I
0.0,1.0,0.0,0.0,2.0,2.0,302.115797996521,3.0,1.0,phase_1,,,,,,,,,,,,,orange,square
185.0,7.0,3.0,1.0,3.0,3.0,316.6401350172236,3.0,1.0,phase_1,,,,,,,,,,,,,magenta,triangle
31.0,5.0,1.0,1.0,1.0,1.0,286.702818935737,3.0,1.0,phase_1,,,,,,,,,,,,,cyan,hexagon
410.0,8.0,4.0,1.0,3.0,3.0,325.7387150079012,3.0,1.0,phase_1,,,,,,,,,,,,,yellow,flipped triangle
0.0,3.0,0.0,0.0,3.0,3.0,355.9214760316536,3.0,1.0,phase_1,,,,,,,,,,,,,green,I
106.0,2.0,2.0,0.0,1.0,1.0,285.3079190244898,3.0,1.0,phase_1,,,,,,,,,,,,,white,diamond
195.0,7.0,3.0,1.0,3.0,3.0,315.6120770145207,3.0,1.0,phase_1,,,,,,,,,,,,,magenta,triangle
219.0,7.0,3.0,1.0,1.0,1.0,294.4751699687913,3.0,1.0,phase_1,,,,,,,,,,,,,magenta,triangle
69.0,1.0,1.0,0.0,3.0,3.0,301.1596750002354,3.0,1.0,phase_1,,,,,,,,,,,,,orange,square
0.0,5.0,0.0,1.0,1.0,1.0,343.7486790353432,3.0,1.0,phase_1,,,,,,,,,,,,,cyan,hexagon
205.0,7.0,3.0,1.0,4.0,4.0,388.4496570099145,3.0,1.0,phase_1,,,,,,,,,,,,,magenta,triangle
177.0,3.0,3.0,0.0,4.0,4.0,275.2878789324313,3.0,1.0,phase_1,,,,,,,,,,,,,green,I
412.0,4.0,4.0,0.0,4.0,4.0,317.7599869668484,3.0,1.0,phase_1,,,,,,,,,,,,,gray,circle
30.0,5.0,1.0,1.0,2.0,2.0,293.9475430175662,3.0,1.0,phase_1,,,,,,,,,,,,,cyan,hexagon
57.0,5.0,1.0,1.0,3.0,3.0,322.6563329808414,3.0,1.0,phase_1,,,,,,,,,,,,,cyan,hexagon
0.0,3.0,0.0,0.0,1.0,1.0,318.7137759523466,3.0,1.0,phase_1,,,,,,,,,,,,,green,I
77.0,2.0,2.0,0.0,4.0,4.0,299.6243210509419,3.0,1.0,phase_1,,,,,,,,,,,,,white,diamond
105.0,6.0,2.0,1.0,1.0,1.0,310.3607769589871,3.0,1.0,phase_1,,,,,,,,,,,,,blue,cross
94.0,2.0,2.0,0.0,3.0,3.0,282.2140279458835,3.0,1.0,phase_1,,,,,,,,,,,,,white,diamond
206.0,3.0,3.0,0.0,4.0,4.0,289.7408709395677,3.0,1.0,phase_1,,,,,,,,,,,,,green,I
380.0,8.0,4.0,1.0,2.0,2.0,294.9561070417985,3.0,1.0,phase_1,,,,,,,,,,,,,yellow,flipped triangle
389.0,8.0,4.0,1.0,3.0,3.0,291.410120902583,3.0,1.0,phase_1,,,,,,,,,,,,,yellow,flipped triangle
0.0,7.0,0.0,1.0,2.0,2.0,279.3015459319576,3.0,1.0,phase_1,,,,,,,,,,,,,magenta,triangle
395.0,8.0,4.0,1.0,4.0,4.0,297.2169771092012,3.0,1.0,phase_1,,,,,,,,,,,,,yellow,flipped triangle
422.0,8.0,4.0,1.0,3.0,3.0,319.2374079953879,3.0,1.0,phase_1,,,,,,,,,,,,,yellow,flipped triangle
47.0,5.0,1.0,1.0,3.0,3.0,276.7289989860728,3.0,1.0,phase_1,,,,,,,,,,,,,cyan,hexagon
54.0,5.0,1.0,1.0,1.0,1.0,272.6244250079617,3.0,1.0,phase_1,,,,,,,,,,,,,cyan,hexagon
0.0,6.0,0.0,1.0,4.0,4.0,317.8711669752374,3.0,1.0,phase_1,,,,,,,,,,,,,blue,cross
116.0,6.0,2.0,1.0,1.0,1.0,283.6873370688408,3.0,1.0,phase_1,,,,,,,,,,,,,blue,cross
113.0,2.0,2.0,0.0,4.0,4.0,270.3831050312146,3.0,1.0,phase_1,,,,,,,,,,,,,white,diamond
406.0,8.0,4.0,1.0,4.0,4.0,297.9917220072821,3.0,1.0,phase_1,,,,,,,,,,,,,yellow,flipped triangle
112.0,2.0,2.0,0.0,1.0,1.0,326.8781020306051,3.0,1.0,phase_1,,,,,,,,,,,,,white,diamond
190.0,7.0,3.0,1.0,1.0,1.0,302.9179379809648,3.0,1.0,phase_1,,,,,,,,,,,,,magenta,triangle
0.0,5.0,0.0,1.0,3.0,3.0,281.1090130126104,3.0,1.0,phase_1,,,,,,,,,,,,,cyan,hexagon
31.0,5.0,1.0,1.0,1.0,1.0,279.1469669900834,3.0,1.0,phase_1,,,,,,,,,,,,,cyan,hexagon
94.0,6.0,2.0,1.0,2.0,2.0,316.2829190259799,3.0,1.0,phase_1,,,,,,,,,,,,,blue,cross
47.0,1.0,1.0,0.0,4.0,4.0,302.5745259365067,3.0,1.0,phase_1,,,,,,,,,,,,,orange,square
108.0,6.0,2.0,1.0,2.0,2.0,260.9211429953575,3.0,1.0,phase_1,,,,,,,,,,,,,blue,cross
182.0,7.0,3.0,1.0,3.0,3.0,313.8247020542621,3.0,1.0,phase_1,,,,,,,,,,,,,magenta,triangle
414.0,8.0,4.0,1.0,2.0,2.0,294.0889729652554,3.0,1.0,phase_1,,,,,,,,,,,,,yellow,flipped triangle
84.0,6.0,2.0,1.0,4.0,4.0,296.8740600626915,3.0,1.0,phase_1,,,,,,,,,,,,,blue,cross
59.0,1.0,1.0,0.0,1.0,1.0,301.9133120542392,3.0,1.0,phase_1,,,,,,,,,,,,,orange,square
59.0,5.0,1.0,1.0,4.0,4.0,293.4191769454628,3.0,1.0,phase_1,,,,,,,,,,,,,cyan,hexagon
91.0,6.0,2.0,1.0,3.0,3.0,281.0932879801839,3.0,1.0,phase_1,,,,,,,,,,,,,blue,cross
105.0,2.0,2.0,0.0,3.0,3.0,351.7539459280669,3.0,1.0,phase_1,,,,,,,,,,,,,white,diamond
0.0,1.0,0.0,0.0,1.0,1.0,339.3475280608982,3.0,1.0,phase_1,,,,,,,,,,,,,orange,square
195.0,3.0,3.0,0.0,4.0,4.0,286.309932009317,3.0,1.0,phase_1,,,,,,,,,,,,,green,I
207.0,7.0,3.0,1.0,1.0,1.0,265.68097108975047,3.0,1.0,phase_1,,,,,,,,,,,,,magenta,triangle
76.0,2.0,2.0,0.0,1.0,1.0,265.5609709909186,3.0,1.0,phase_1,,,,,,,,,,,,,white,diamond
0.0,6.0,0.0,1.0,3.0,3.0,494.7638780577108,4.0,1.0,phase_1,,,,,,,,,,,,,blue,cross
200.0,3.0,3.0,0.0,3.0,3.0,248.6328430240973,4.0,1.0,phase_1,,,,,,,,,,,,,green,I
182.0,3.0,3.0,0.0,1.0,1.0,252.9423469677567,4.0,1.0,phase_1,,,,,,,,,,,,,green,I
95.0,6.0,2.0,1.0,2.0,2.0,265.4760850127786,4.0,1.0,phase_1,,,,,,,,,,,,,blue,cross
26.0,5.0,1.0,1.0,3.0,3.0,327.2804029984399,4.0,1.0,phase_1,,,,,,,,,,,,,cyan,hexagon
36.0,5.0,1.0,1.0,2.0,2.0,270.4710399266332,4.0,1.0,phase_1,,,,,,,,,,,,,cyan,hexagon
103.0,2.0,2.0,0.0,4.0,4.0,283.041573013179,4.0,1.0,phase_1,,,,,,,,,,,,,white,diamond
377.0,4.0,4.0,0.0,1.0,1.0,285.8959810109809,4.0,1.0,phase_1,,,,,,,,,,,,,gray,circle
74.0,1.0,1.0,0.0,4.0,4.0,268.6028090538457,4.0,1.0,phase_1,,,,,,,,,,,,,orange,square
418.0,8.0,4.0,1.0,1.0,1.0,270.2031949302181,4.0,1.0,phase_1,,,,,,,,,,,,,yellow,flipped triangle
0.0,8.0,0.0,1.0,4.0,4.0,286.7363539990037,4.0,1.0,phase_1,,,,,,,,,,,,,yellow,flipped triangle
182.0,7.0,3.0,1.0,3.0,3.0,258.4116930374875,4.0,1.0,phase_1,,,,,,,,,,,,,magenta,triangle
0.0,6.0,0.0,1.0,3.0,3.0,270.2549319947138,4.0,1.0,phase_1,,,,,,,,,,,,,blue,cross
211.0,7.0,3.0,1.0,2.0,2.0,240.8635549945756,4.0,1.0,phase_1,,,,,,,,,,,,,magenta,triangle
0.0,1.0,0.0,0.0,2.0,2.0,310.1013980340212,4.0,1.0,phase_1,,,,,,,,,,,,,orange,square
110.0,6.0,2.0,1.0,3.0,3.0,298.3630469534546,4.0,1.0,phase_1,,,,,,,,,,,,,blue,cross
211.0,7.0,3.0,1.0,2.0,2.0,278.9376599248498,4.0,1.0,phase_1,,,,,,,,,,,,,magenta,triangle
0.0,2.0,0.0,0.0,4.0,4.0,331.5705279819667,4.0,1.0,phase_1,,,,,,,,,,,,,white,diamond
29.0,5.0,1.0,1.0,1.0,1.0,267.1343660913408,4.0,1.0,phase_1,,,,,,,,,,,,,cyan,hexagon
0.0,7.0,0.0,1.0,3.0,3.0,301.22817796655,4.0,1.0,phase_1,,,,,,,,,,,,,magenta,triangle
0.0,7.0,0.0,1.0,4.0,4.0,307.2229060344398,4.0,1.0,phase_1,,,,,,,,,,,,,magenta,triangle
118.0,2.0,2.0,0.0,2.0,2.0,286.4162920741364,4.0,1.0,phase_1,,,,,,,,,,,,,white,diamond
412.0,8.0,4.0,1.0,2.0,2.0,236.0591390170157,4.0,1.0,phase_1,,,,,,,,,,,,,yellow,flipped triangle
69.0,1.0,1.0,0.0,2.0,2.0,239.8782820673659,4.0,1.0,phase_1,,,,,,,,,,,,,orange,square
0.0,7.0,0.0,1.0,1.0,1.0,327.5929210940376,4.0,1.0,phase_1,,,,,,,,,,,,,magenta,triangle
52.0,5.0,1.0,1.0,2.0,2.0,299.8195929685607,4.0,1.0,phase_1,,,,,,,,,,,,,cyan,hexagon
0.0,6.0,0.0,1.0,2.0,2.0,256.6856530029326,4.0,1.0,phase_1,,,,,,,,,,,,,blue,cross
54.0,1.0,1.0,0.0,4.0,4.0,290.5152119928971,4.0,1.0,phase_1,,,,,,,,,,,,,orange,square
375.0,8.0,4.0,1.0,4.0,4.0,321.5167550370097,4.0,1.0,phase_1,,,,,,,,,,,,,yellow,flipped triangle
119.0,6.0,2.0,1.0,3.0,3.0,301.7387560103088,4.0,1.0,phase_1,,,,,,,,,,,,,blue,cross
0.0,2.0,0.0,0.0,2.0,2.0,241.0028049489483,4.0,1.0,phase_1,,,,,,,,,,,,,white,diamond
389.0,4.0,4.0,0.0,4.0,4.0,302.7182950172573,4.0,1.0,phase_1,,,,,,,,,,,,,gray,circle
199.0,3.0,3.0,0.0,2.0,2.0,284.7459509503096,4.0,1.0,phase_1,,,,,,,,,,,,,green,I
207.0,3.0,3.0,0.0,2.0,2.0,297.5192399462685,4.0,1.0,phase_1,,,,,,,,,,,,,green,I
115.0,2.0,2.0,0.0,1.0,1.0,347.0271769911051,4.0,1.0,phase_1,,,,,,,,,,,,,white,diamond
36.0,5.0,1.0,1.0,3.0,3.0,297.5809520576149,4.0,1.0,phase_1,,,,,,,,,,,,,cyan,hexagon
0.0,5.0,0.0,1.0,3.0,3.0,276.654668035917,4.0,1.0,phase_1,,,,,,,,,,,,,cyan,hexagon
0.0,8.0,0.0,1.0,1.0,1.0,261.1617810325697,4.0,1.0,phase_1,,,,,,,,,,,,,yellow,flipped triangle
212.0,3.0,3.0,0.0,3.0,3.0,302.6816539932042,4.0,1.0,phase_1,,,,,,,,,,,,,green,I
0.0,1.0,0.0,0.0,3.0,3.0,293.2583990041166,4.0,1.0,phase_1,,,,,,,,,,,,,orange,square
115.0,2.0,2.0,0.0,3.0,3.0,242.0136840082705,4.0,1.0,phase_1,,,,,,,,,,,,,white,diamond
63.0,1.0,1.0,0.0,2.0,2.0,326.7132999608293,4.0,1.0,phase_1,,,,,,,,,,,,,orange,square
53.0,5.0,1.0,1.0,2.0,2.0,282.5783470179885,4.0,1.0,phase_1,,,,,,,,,,,,,cyan,hexagon
44.0,1.0,1.0,0.0,2.0,2.0,295.330645982176,4.0,1.0,phase_1,,,,,,,,,,,,,orange,square
222.0,3.0,3.0,0.0,1.0,1.0,339.6911959862336,4.0,1.0,phase_1,,,,,,,,,,,,,green,I
384.0,4.0,4.0,0.0,3.0,3.0,398.8213390111923,4.0,1.0,phase_1,,,,,,,,,,,,,gray,circle
225.0,3.0,3.0,0.0,1.0,1.0,339.8474149871617,4.0,1.0,phase_1,,,,,,,,,,,,,green,I
40.0,5.0,1.0,1.0,4.0,4.0,290.5606790445745,4.0,1.0,phase_1,,,,,,,,,,,,,cyan,hexagon
384.0,8.0,4.0,1.0,1.0,1.0,269.6471980307251,4.0,1.0,phase_1,,,,,,,,,,,,,yellow,flipped triangle
406.0,8.0,4.0,1.0,1.0,1.0,250.46399503480637,4.0,1.0,phase_1,,,,,,,,,,,,,yellow,flipped triangle
66.0,5.0,1.0,1.0,4.0,4.0,294.5301230065524,4.0,1.0,phase_1,,,,,,,,,,,,,cyan,hexagon
119.0,2.0,2.0,0.0,2.0,2.0,355.7097250595689,4.0,1.0,phase_1,,,,,,,,,,,,,white,diamond
107.0,2.0,2.0,0.0,3.0,3.0,267.4194449791685,4.0,1.0,phase_1,,,,,,,,,,,,,white,diamond
196.0,3.0,3.0,0.0,3.0,3.0,296.2722079828381,4.0,1.0,phase_1,,,,,,,,,,,,,green,I
0.0,6.0,0.0,1.0,4.0,4.0,298.8469179254025,4.0,1.0,phase_1,,,,,,,,,,,,,blue,cross
192.0,7.0,3.0,1.0,2.0,2.0,245.360217988491,4.0,1.0,phase_1,,,,,,,,,,,,,magenta,triangle
0.0,4.0,0.0,0.0,4.0,4.0,314.5246879430488,4.0,1.0,phase_1,,,,,,,,,,,,,gray,circle
0.0,8.0,0.0,1.0,2.0,2.0,306.6960340365767,4.0,1.0,phase_1,,,,,,,,,,,,,yellow,flipped triangle
92.0,6.0,2.0,1.0,4.0,4.0,270.0251899659633,4.0,1.0,phase_1,,,,,,,,,,,,,blue,cross
31.0,5.0,1.0,1.0,1.0,1.0,283.32808194682,4.0,1.0,phase_1,,,,,,,,,,,,,cyan,hexagon
214.0,3.0,3.0,0.0,4.0,4.0,278.5769320325926,4.0,1.0,phase_1,,,,,,,,,,,,,green,I
0.0,1.0,0.0,0.0,1.0,1.0,306.3841640250757,4.0,1.0,phase_1,,,,,,,,,,,,,orange,square
385.0,8.0,4.0,1.0,2.0,2.0,282.3144840076566,4.0,1.0,phase_1,,,,,,,,,,,,,yellow,flipped triangle
82.0,2.0,2.0,0.0,4.0,4.0,293.4604850597679,4.0,1.0,phase_1,,,,,,,,,,,,,white,diamond
107.0,6.0,2.0,1.0,3.0,3.0,306.5576899098232,4.0,1.0,phase_1,,,,,,,,,,,,,blue,cross
84.0,6.0,2.0,1.0,2.0,2.0,282.580383005552,4.0,2.0,phase_1,,,,,,,,,,,,,blue,cross
84.0,2.0,2.0,0.0,3.0,3.0,311.9838900165632,4.0,1.0,phase_1,,,,,,,,,,,,,white,diamond
82.0,6.0,2.0,1.0,1.0,1.0,315.3987859841436,4.0,1.0,phase_1,,,,,,,,,,,,,blue,cross
40.0,1.0,1.0,0.0,3.0,3.0,266.3870200049132,4.0,1.0,phase_1,,,,,,,,,,,,,orange,square
222.0,7.0,3.0,1.0,2.0,2.0,285.9588670544326,4.0,1.0,phase_1,,,,,,,,,,,,,magenta,triangle
61.0,5.0,1.0,1.0,1.0,1.0,280.9831789927557,4.0,1.0,phase_1,,,,,,,,,,,,,cyan,hexagon
0.0,5.0,0.0,1.0,1.0,1.0,295.3212920110672,4.0,1.0,phase_1,,,,,,,,,,,,,cyan,hexagon
375.0,4.0,4.0,0.0,4.0,4.0,321.8675820389762,4.0,1.0,phase_1,,,,,,,,,,,,,gray,circle
36.0,1.0,1.0,0.0,3.0,3.0,351.0326419491321,4.0,1.0,phase_1,,,,,,,,,,,,,orange,square
95.0,2.0,2.0,0.0,2.0,2.0,286.7632289417088,4.0,1.0,phase_1,,,,,,,,,,,,,white,diamond
393.0,4.0,4.0,0.0,1.0,1.0,306.178597966209,4.0,1.0,phase_1,,,,,,,,,,,,,gray,circle
399.0,8.0,4.0,1.0,4.0,4.0,327.6485769310966,4.0,1.0,phase_1,,,,,,,,,,,,,yellow,flipped triangle
415.0,4.0,4.0,0.0,3.0,3.0,315.8472799696028,4.0,1.0,phase_1,,,,,,,,,,,,,gray,circle
201.0,7.0,3.0,1.0,1.0,1.0,286.6594759980216,4.0,1.0,phase_1,,,,,,,,,,,,,magenta,triangle
406.0,4.0,4.0,0.0,2.0,2.0,323.4533430077135,4.0,1.0,phase_1,,,,,,,,,,,,,gray,circle
385.0,4.0,4.0,0.0,1.0,1.0,303.2659289892763,4.0,1.0,phase_1,,,,,,,,,,,,,gray,circle
0.0,6.0,0.0,1.0,2.0,2.0,262.5412960769608,4.0,1.0,phase_1,,,,,,,,,,,,,blue,cross
36.0,1.0,1.0,0.0,2.0,2.0,241.61608808208248,4.0,1.0,phase_1,,,,,,,,,,,,,orange,square
420.0,8.0,4.0,1.0,3.0,3.0,289.5890410291031,4.0,1.0,phase_1,,,,,,,,,,,,,yellow,flipped triangle
92.0,6.0,2.0,1.0,4.0,4.0,274.4998130947351,4.0,1.0,phase_1,,,,,,,,,,,,,blue,cross
382.0,8.0,4.0,1.0,1.0,1.0,241.9536119559779,4.0,1.0,phase_1,,,,,,,,,,,,,yellow,flipped triangle
74.0,5.0,1.0,1.0,3.0,3.0,294.788280967623,4.0,1.0,phase_1,,,,,,,,,,,,,cyan,hexagon
105.0,6.0,2.0,1.0,3.0,3.0,312.0910179568454,4.0,1.0,phase_1,,,,,,,,,,,,,blue,cross
199.0,7.0,3.0,1.0,4.0,4.0,328.6823079688474,4.0,1.0,phase_1,,,,,,,,,,,,,magenta,triangle
422.0,4.0,4.0,0.0,4.0,4.0,314.5065139979124,4.0,1.0,phase_1,,,,,,,,,,,,,gray,circle
414.0,4.0,4.0,0.0,3.0,3.0,286.1454270314425,4.0,1.0,phase_1,,,,,,,,,,,,,gray,circle
0.0,2.0,0.0,0.0,1.0,1.0,261.6193720605224,4.0,1.0,phase_1,,,,,,,,,,,,,white,diamond
26.0,1.0,1.0,0.0,3.0,3.0,282.7466949820518,4.0,1.0,phase_1,,,,,,,,,,,,,orange,square
31.0,1.0,1.0,0.0,4.0,4.0,303.0415889807045,4.0,1.0,phase_1,,,,,,,,,,,,,orange,square
121.0,2.0,2.0,0.0,4.0,4.0,257.1417390136048,4.0,1.0,phase_1,,,,,,,,,,,,,white,diamond
69.0,5.0,1.0,1.0,4.0,4.0,273.9576669409871,4.0,1.0,phase_1,,,,,,,,,,,,,cyan,hexagon
66.0,1.0,1.0,0.0,2.0,2.0,277.7244159951806,4.0,1.0,phase_1,,,,,,,,,,,,,orange,square
207.0,7.0,3.0,1.0,1.0,1.0,274.2930470267311,4.0,1.0,phase_1,,,,,,,,,,,,,magenta,triangle
118.0,6.0,2.0,1.0,1.0,1.0,261.5913730114698,4.0,1.0,phase_1,,,,,,,,,,,,,blue,cross
0.0,3.0,0.0,0.0,1.0,1.0,257.7331870561465,4.0,1.0,phase_1,,,,,,,,,,,,,green,I
0.0,4.0,4.0,0.0,5.0,5.0,550.4766890080646,1.0,1.0,phase_2,go,250.0,250.0,1.0,,,,,,,,,gray,circle
0.0,7.0,3.0,1.0,5.0,5.0,475.9174599312246,1.0,1.0,phase_2,go,250.0,250.0,1.0,,,,,,,,,magenta,triangle
0.0,7.0,3.0,1.0,6.0,6.0,365.5373030342161,1.0,1.0,phase_2,go,250.0,250.0,1.0,,,,,,,,,magenta,triangle
0.0,4.0,4.0,0.0,6.0,6.0,467.2913959948346,1.0,1.0,phase_2,go,250.0,250.0,1.0,,,,,,,,,gray,circle
0.0,7.0,3.0,1.0,6.0,6.0,741.1454849643633,1.0,1.0,phase_2,stop,250.0,250.0,3.0,,,,,,,,,magenta,triangle
0.0,2.0,2.0,0.0,5.0,5.0,621.8493049964309,1.0,1.0,phase_2,go,250.0,200.0,1.0,,,,,,,,,white,diamond
0.0,8.0,4.0,1.0,5.0,5.0,529.460160061717,1.0,1.0,phase_2,go,250.0,200.0,1.0,,,,,,,,,yellow,flipped triangle
0.0,5.0,1.0,1.0,5.0,5.0,577.3005810333416,1.0,1.0,phase_2,go,250.0,200.0,1.0,,,,,,,,,cyan,hexagon
0.0,5.0,1.0,1.0,6.0,6.0,400.1894879620522,1.0,1.0,phase_2,go,250.0,200.0,1.0,,,,,,,,,cyan,hexagon
0.0,4.0,4.0,0.0,5.0,5.0,481.5068040043115,1.0,1.0,phase_2,go,250.0,200.0,1.0,,,,,,,,,gray,circle
0.0,8.0,4.0,1.0,5.0,0.0,0.0,1.0,1.0,phase_2,stop,250.0,200.0,4.0,,,,,,,,,yellow,flipped triangle
0.0,2.0,2.0,0.0,6.0,6.0,336.4959299797192,1.0,1.0,phase_2,go,300.0,200.0,1.0,,,,,,,,,white,diamond
0.0,1.0,1.0,0.0,6.0,6.0,593.8762539299205,1.0,1.0,phase_2,go,300.0,200.0,1.0,,,,,,,,,orange,square
0.0,4.0,4.0,0.0,5.0,5.0,493.7138230307027,1.0,1.0,phase_2,go,300.0,200.0,1.0,,,,,,,,,gray,circle
0.0,1.0,1.0,0.0,5.0,5.0,510.0255130091682,1.0,1.0,phase_2,go,300.0,200.0,1.0,,,,,,,,,orange,square
0.0,2.0,2.0,0.0,5.0,5.0,549.8360190540552,1.0,1.0,phase_2,go,300.0,200.0,1.0,,,,,,,,,white,diamond
0.0,8.0,4.0,1.0,6.0,0.0,0.0,1.0,1.0,phase_2,stop,300.0,200.0,4.0,,,,,,,,,yellow,flipped triangle
0.0,5.0,1.0,1.0,6.0,6.0,463.6748220073059,1.0,1.0,phase_2,go,300.0,250.0,1.0,,,,,,,,,cyan,hexagon
0.0,6.0,2.0,1.0,6.0,0.0,0.0,1.0,1.0,phase_2,stop,300.0,250.0,4.0,,,,,,,,,blue,cross
0.0,1.0,1.0,0.0,6.0,6.0,502.50297598540783,1.0,1.0,phase_2,go,300.0,300.0,1.0,,,,,,,,,orange,square
0.0,2.0,2.0,0.0,5.0,5.0,507.2970950277522,1.0,1.0,phase_2,go,300.0,300.0,1.0,,,,,,,,,white,diamond
0.0,3.0,3.0,0.0,6.0,6.0,401.671048020944,1.0,1.0,phase_2,go,300.0,300.0,1.0,,,,,,,,,green,I
0.0,3.0,3.0,0.0,5.0,5.0,498.7461119890213,1.0,1.0,phase_2,go,300.0,300.0,1.0,,,,,,,,,green,I
0.0,4.0,4.0,0.0,6.0,6.0,343.7341280514374,1.0,1.0,phase_2,go,300.0,300.0,1.0,,,,,,,,,gray,circle
0.0,8.0,4.0,1.0,6.0,6.0,439.8436120245605,1.0,1.0,phase_2,stop,300.0,300.0,3.0,,,,,,,,,yellow,flipped triangle
0.0,8.0,4.0,1.0,6.0,6.0,610.4560800595209,1.0,1.0,phase_2,go,300.0,250.0,1.0,,,,,,,,,yellow,flipped triangle
0.0,3.0,3.0,0.0,6.0,6.0,569.3946259561926,1.0,1.0,phase_2,go,300.0,250.0,1.0,,,,,,,,,green,I
0.0,8.0,4.0,1.0,6.0,0.0,0.0,1.0,1.0,phase_2,stop,300.0,250.0,4.0,,,,,,,,,yellow,flipped triangle
0.0,7.0,3.0,1.0,5.0,5.0,399.2723789997399,1.0,1.0,phase_2,stop,300.0,300.0,3.0,,,,,,,,,magenta,triangle
0.0,1.0,1.0,0.0,5.0,5.0,637.4388220719993,1.0,1.0,phase_2,go,250.0,300.0,1.0,,,,,,,,,orange,square
0.0,8.0,4.0,1.0,6.0,6.0,372.304965974763,1.0,1.0,phase_2,stop,250.0,300.0,3.0,,,,,,,,,yellow,flipped triangle
0.0,6.0,2.0,1.0,5.0,5.0,510.6425449484959,1.0,1.0,phase_2,go,250.0,250.0,1.0,,,,,,,,,blue,cross
0.0,1.0,1.0,0.0,6.0,6.0,445.1901280554011,1.0,1.0,phase_2,go,250.0,250.0,1.0,,,,,,,,,orange,square
0.0,5.0,1.0,1.0,5.0,5.0,650.5629899911582,1.0,1.0,phase_2,go,250.0,250.0,1.0,,,,,,,,,cyan,hexagon
0.0,6.0,2.0,1.0,6.0,0.0,0.0,1.0,1.0,phase_2,stop,250.0,250.0,4.0,,,,,,,,,blue,cross
0.0,6.0,2.0,1.0,6.0,0.0,0.0,1.0,1.0,phase_2,stop,250.0,300.0,4.0,,,,,,,,,blue,cross
0.0,4.0,4.0,0.0,6.0,6.0,806.8162250565365,2.0,1.0,phase_2,go,250.0,350.0,1.0,,,,,,,,,gray,circle
0.0,1.0,1.0,0.0,5.0,5.0,476.8638360546902,2.0,1.0,phase_2,go,250.0,350.0,1.0,,,,,,,,,orange,square
0.0,2.0,2.0,0.0,6.0,6.0,511.0144030768424,2.0,1.0,phase_2,go,250.0,350.0,1.0,,,,,,,,,white,diamond
0.0,1.0,1.0,0.0,6.0,6.0,403.4066490130499,2.0,1.0,phase_2,go,250.0,350.0,1.0,,,,,,,,,orange,square
0.0,7.0,3.0,1.0,6.0,6.0,377.52629804890597,2.0,1.0,phase_2,stop,250.0,350.0,3.0,,,,,,,,,magenta,triangle
0.0,7.0,3.0,1.0,6.0,0.0,0.0,2.0,1.0,phase_2,stop,250.0,300.0,4.0,,,,,,,,,magenta,triangle
0.0,8.0,4.0,1.0,6.0,0.0,0.0,2.0,1.0,phase_2,stop,250.0,350.0,4.0,,,,,,,,,yellow,flipped triangle
0.0,1.0,1.0,0.0,5.0,5.0,496.5094549115747,2.0,1.0,phase_2,go,250.0,400.0,1.0,,,,,,,,,orange,square
0.0,4.0,4.0,0.0,6.0,6.0,514.3706169910729,2.0,1.0,phase_2,go,250.0,400.0,1.0,,,,,,,,,gray,circle
0.0,3.0,3.0,0.0,5.0,5.0,551.4703929657117,2.0,1.0,phase_2,go,250.0,400.0,1.0,,,,,,,,,green,I
0.0,2.0,2.0,0.0,5.0,5.0,447.8748369729146,2.0,1.0,phase_2,go,250.0,400.0,1.0,,,,,,,,,white,diamond
0.0,3.0,3.0,0.0,6.0,6.0,414.794621989131,2.0,1.0,phase_2,go,250.0,400.0,1.0,,,,,,,,,green,I
0.0,3.0,3.0,0.0,5.0,5.0,441.6543169645592,2.0,1.0,phase_2,go,250.0,400.0,1.0,,,,,,,,,green,I
0.0,4.0,4.0,0.0,6.0,6.0,558.6487100226805,2.0,1.0,phase_2,go,250.0,400.0,1.0,,,,,,,,,gray,circle
0.0,2.0,2.0,0.0,5.0,5.0,436.774339992553,2.0,1.0,phase_2,go,250.0,400.0,1.0,,,,,,,,,white,diamond
0.0,6.0,2.0,1.0,6.0,6.0,429.0224319556728,2.0,1.0,phase_2,go,250.0,400.0,1.0,,,,,,,,,blue,cross
0.0,8.0,4.0,1.0,5.0,0.0,0.0,2.0,1.0,phase_2,stop,250.0,400.0,4.0,,,,,,,,,yellow,flipped triangle
0.0,7.0,3.0,1.0,5.0,0.0,0.0,2.0,1.0,phase_2,stop,300.0,400.0,4.0,,,,,,,,,magenta,triangle
0.0,6.0,2.0,1.0,5.0,0.0,0.0,2.0,1.0,phase_2,stop,350.0,400.0,4.0,,,,,,,,,blue,cross
0.0,2.0,2.0,0.0,6.0,6.0,437.0153959607705,2.0,1.0,phase_2,go,400.0,400.0,1.0,,,,,,,,,white,diamond
0.0,8.0,4.0,1.0,5.0,5.0,482.8595789149403,2.0,1.0,phase_2,go,400.0,400.0,1.0,,,,,,,,,yellow,flipped triangle
0.0,4.0,4.0,0.0,6.0,6.0,361.4827430574223,2.0,1.0,phase_2,go,400.0,400.0,1.0,,,,,,,,,gray,circle
0.0,2.0,2.0,0.0,5.0,5.0,388.0810140399262,2.0,1.0,phase_2,go,400.0,400.0,1.0,,,,,,,,,white,diamond
0.0,2.0,2.0,0.0,6.0,6.0,431.5703700995072,2.0,1.0,phase_2,go,400.0,400.0,1.0,,,,,,,,,white,diamond
0.0,3.0,3.0,0.0,6.0,6.0,399.0252759540453,2.0,1.0,phase_2,go,400.0,400.0,1.0,,,,,,,,,green,I
0.0,5.0,1.0,1.0,6.0,6.0,338.5378640377894,2.0,1.0,phase_2,stop,400.0,400.0,3.0,,,,,,,,,cyan,hexagon
0.0,8.0,4.0,1.0,6.0,6.0,470.8511190256104,2.0,1.0,phase_2,stop,400.0,350.0,3.0,,,,,,,,,yellow,flipped triangle
0.0,8.0,4.0,1.0,6.0,0.0,0.0,2.0,1.0,phase_2,stop,400.0,300.0,4.0,,,,,,,,,yellow,flipped triangle
0.0,6.0,2.0,1.0,6.0,6.0,566.842700005509,2.0,1.0,phase_2,go,400.0,350.0,1.0,,,,,,,,,blue,cross
0.0,6.0,2.0,1.0,6.0,0.0,0.0,2.0,1.0,phase_2,stop,400.0,350.0,4.0,,,,,,,,,blue,cross
0.0,7.0,3.0,1.0,6.0,6.0,551.1322560487315,2.0,1.0,phase_2,stop,400.0,400.0,3.0,,,,,,,,,magenta,triangle
0.0,2.0,2.0,0.0,6.0,6.0,612.132042995654,2.0,1.0,phase_2,go,400.0,350.0,1.0,,,,,,,,,white,diamond
0.0,2.0,2.0,0.0,6.0,6.0,772.7082580095157,2.0,1.0,phase_2,go,400.0,350.0,1.0,,,,,,,,,white,diamond
0.0,1.0,1.0,0.0,6.0,6.0,637.0932819554582,2.0,1.0,phase_2,go,400.0,350.0,1.0,,,,,,,,,orange,square
0.0,2.0,2.0,0.0,6.0,6.0,428.9220500504598,2.0,1.0,phase_2,go,400.0,350.0,1.0,,,,,,,,,white,diamond
0.0,4.0,4.0,0.0,5.0,5.0,669.1661259392276,2.0,1.0,phase_2,go,400.0,350.0,1.0,,,,,,,,,gray,circle
0.0,3.0,3.0,0.0,6.0,6.0,588.8969519874081,3.0,1.0,phase_2,go,400.0,350.0,1.0,,,,,,,,,green,I
0.0,6.0,2.0,1.0,5.0,5.0,467.3226550221443,3.0,1.0,phase_2,stop,400.0,350.0,3.0,,,,,,,,,blue,cross
0.0,5.0,1.0,1.0,5.0,0.0,0.0,3.0,1.0,phase_2,stop,350.0,350.0,4.0,,,,,,,,,cyan,hexagon
0.0,4.0,4.0,0.0,6.0,6.0,521.4603479253128,3.0,1.0,phase_2,go,400.0,350.0,1.0,,,,,,,,,gray,circle
0.0,5.0,1.0,1.0,6.0,0.0,0.0,3.0,1.0,phase_2,stop,400.0,350.0,4.0,,,,,,,,,cyan,hexagon
0.0,3.0,3.0,0.0,6.0,6.0,623.5525449737906,3.0,1.0,phase_2,go,400.0,400.0,1.0,,,,,,,,,green,I
0.0,5.0,1.0,1.0,5.0,5.0,521.3319379836321,3.0,1.0,phase_2,go,400.0,400.0,1.0,,,,,,,,,cyan,hexagon
0.0,7.0,3.0,1.0,6.0,6.0,457.8546640696004,3.0,1.0,phase_2,stop,400.0,400.0,3.0,,,,,,,,,magenta,triangle
0.0,8.0,4.0,1.0,5.0,5.0,744.7166730416939,3.0,1.0,phase_2,go,400.0,350.0,1.0,,,,,,,,,yellow,flipped triangle
0.0,1.0,1.0,0.0,5.0,5.0,833.2565069431439,3.0,1.0,phase_2,go,400.0,350.0,1.0,,,,,,,,,orange,square
0.0,3.0,3.0,0.0,5.0,5.0,863.3569290395826,3.0,1.0,phase_2,go,400.0,350.0,1.0,,,,,,,,,green,I
0.0,6.0,2.0,1.0,5.0,5.0,519.2406709538773,3.0,1.0,phase_2,stop,400.0,350.0,3.0,,,,,,,,,blue,cross
0.0,3.0,3.0,0.0,5.0,5.0,516.1018379731104,3.0,1.0,phase_2,go,350.0,350.0,1.0,,,,,,,,,green,I
0.0,5.0,1.0,1.0,5.0,0.0,0.0,3.0,1.0,phase_2,stop,350.0,350.0,4.0,,,,,,,,,cyan,hexagon
0.0,1.0,1.0,0.0,6.0,6.0,637.5040329294279,3.0,1.0,phase_2,go,400.0,350.0,1.0,,,,,,,,,orange,square
0.0,8.0,4.0,1.0,5.0,0.0,0.0,3.0,1.0,phase_2,stop,400.0,350.0,4.0,,,,,,,,,yellow,flipped triangle
0.0,7.0,3.0,1.0,5.0,5.0,434.7075369441882,3.0,1.0,phase_2,stop,450.0,350.0,3.0,,,,,,,,,magenta,triangle
0.0,3.0,3.0,0.0,6.0,6.0,650.6691810209304,3.0,1.0,phase_2,go,400.0,350.0,1.0,,,,,,,,,green,I
0.0,5.0,1.0,1.0,5.0,0.0,0.0,3.0,1.0,phase_2,stop,400.0,350.0,4.0,,,,,,,,,cyan,hexagon
0.0,3.0,3.0,0.0,5.0,5.0,704.2815340682864,3.0,1.0,phase_2,go,450.0,350.0,1.0,,,,,,,,,green,I
0.0,2.0,2.0,0.0,6.0,6.0,702.9907080577686,3.0,1.0,phase_2,go,450.0,350.0,1.0,,,,,,,,,white,diamond
0.0,6.0,2.0,1.0,6.0,0.0,0.0,3.0,1.0,phase_2,stop,450.0,350.0,4.0,,,,,,,,,blue,cross
0.0,5.0,1.0,1.0,6.0,0.0,0.0,3.0,1.0,phase_2,stop,450.0,400.0,4.0,,,,,,,,,cyan,hexagon
0.0,7.0,3.0,1.0,5.0,0.0,0.0,3.0,1.0,phase_2,stop,450.0,450.0,4.0,,,,,,,,,magenta,triangle
0.0,1.0,1.0,0.0,6.0,6.0,700.743395020254,3.0,1.0,phase_2,go,500.0,450.0,1.0,,,,,,,,,orange,square
0.0,4.0,4.0,0.0,6.0,6.0,703.4447330515832,3.0,1.0,phase_2,go,500.0,450.0,1.0,,,,,,,,,gray,circle
0.0,3.0,3.0,0.0,6.0,6.0,835.8826539479196,3.0,1.0,phase_2,go,500.0,450.0,1.0,,,,,,,,,green,I
0.0,6.0,2.0,1.0,6.0,0.0,0.0,3.0,1.0,phase_2,stop,500.0,450.0,4.0,,,,,,,,,blue,cross
0.0,3.0,3.0,0.0,5.0,5.0,837.2910809703171,3.0,1.0,phase_2,go,500.0,500.0,1.0,,,,,,,,,green,I
0.0,3.0,3.0,0.0,6.0,6.0,802.1623899694532,3.0,1.0,phase_2,go,500.0,500.0,1.0,,,,,,,,,green,I
0.0,1.0,1.0,0.0,6.0,6.0,745.8800870226696,3.0,1.0,phase_2,go,500.0,500.0,1.0,,,,,,,,,orange,square
0.0,7.0,3.0,1.0,6.0,0.0,0.0,3.0,1.0,phase_2,stop,500.0,500.0,4.0,,,,,,,,,magenta,triangle
0.0,6.0,2.0,1.0,5.0,5.0,522.7398859569803,3.0,1.0,phase_2,stop,500.0,550.0,3.0,,,,,,,,,blue,cross
0.0,3.0,3.0,0.0,5.0,5.0,730.3206759970635,3.0,1.0,phase_2,go,450.0,550.0,1.0,,,,,,,,,green,I
0.0,6.0,2.0,1.0,6.0,6.0,865.0617889361456,3.0,1.0,phase_2,go,450.0,550.0,1.0,,,,,,,,,blue,cross
0.0,3.0,3.0,0.0,5.0,5.0,673.837456968613,3.0,1.0,phase_2,go,450.0,550.0,1.0,,,,,,,,,green,I
0.0,7.0,3.0,1.0,6.0,0.0,0.0,4.0,1.0,phase_2,stop,450.0,550.0,4.0,,,,,,,,,magenta,triangle
0.0,4.0,4.0,0.0,5.0,5.0,519.2374979378656,4.0,1.0,phase_2,go,450.0,600.0,1.0,,,,,,,,,gray,circle
0.0,5.0,1.0,1.0,5.0,0.0,0.0,4.0,1.0,phase_2,stop,450.0,600.0,4.0,,,,,,,,,cyan,hexagon
0.0,1.0,1.0,0.0,6.0,6.0,751.6000709729269,4.0,1.0,phase_2,go,500.0,600.0,1.0,,,,,,,,,orange,square
0.0,4.0,4.0,0.0,5.0,5.0,949.8577259946616,4.0,1.0,phase_2,go,500.0,600.0,1.0,,,,,,,,,gray,circle
0.0,8.0,4.0,1.0,5.0,0.0,0.0,4.0,1.0,phase_2,stop,500.0,600.0,4.0,,,,,,,,,yellow,flipped triangle
0.0,1.0,1.0,0.0,6.0,6.0,669.4422219879925,4.0,1.0,phase_2,go,550.0,600.0,1.0,,,,,,,,,orange,square
0.0,4.0,4.0,0.0,6.0,6.0,700.8010790450498,4.0,1.0,phase_2,go,550.0,600.0,1.0,,,,,,,,,gray,circle
0.0,7.0,3.0,1.0,5.0,0.0,0.0,4.0,1.0,phase_2,stop,550.0,600.0,4.0,,,,,,,,,magenta,triangle
0.0,6.0,2.0,1.0,5.0,0.0,0.0,4.0,1.0,phase_2,stop,600.0,600.0,4.0,,,,,,,,,blue,cross
0.0,7.0,3.0,1.0,5.0,0.0,0.0,4.0,1.0,phase_2,stop,650.0,600.0,4.0,,,,,,,,,magenta,triangle
0.0,1.0,1.0,0.0,6.0,6.0,815.4311270918697,4.0,1.0,phase_2,go,700.0,600.0,1.0,,,,,,,,,orange,square
0.0,1.0,1.0,0.0,5.0,5.0,906.1548319878056,4.0,1.0,phase_2,go,700.0,600.0,1.0,,,,,,,,,orange,square
0.0,6.0,2.0,1.0,6.0,0.0,0.0,4.0,1.0,phase_2,stop,700.0,600.0,4.0,,,,,,,,,blue,cross
0.0,3.0,3.0,0.0,5.0,5.0,767.9967080475762,4.0,1.0,phase_2,go,700.0,650.0,1.0,,,,,,,,,green,I
0.0,6.0,2.0,1.0,6.0,0.0,0.0,4.0,1.0,phase_2,stop,700.0,650.0,4.0,,,,,,,,,blue,cross
0.0,4.0,4.0,0.0,6.0,6.0,861.3081920193508,4.0,1.0,phase_2,go,700.0,700.0,1.0,,,,,,,,,gray,circle
0.0,6.0,2.0,1.0,5.0,0.0,0.0,4.0,1.0,phase_2,go,700.0,700.0,5.0,,,,,,,,,blue,cross
0.0,1.0,1.0,0.0,5.0,5.0,965.480512008071,4.0,1.0,phase_2,go,700.0,700.0,1.0,,,,,,,,,orange,square
0.0,7.0,3.0,1.0,6.0,6.0,493.0228739976883,4.0,1.0,phase_2,go,700.0,700.0,1.0,,,,,,,,,magenta,triangle
0.0,5.0,1.0,1.0,6.0,6.0,726.5609869500622,4.0,1.0,phase_2,stop,700.0,700.0,3.0,,,,,,,,,cyan,hexagon
0.0,2.0,2.0,0.0,5.0,5.0,770.840090001002,4.0,1.0,phase_2,go,700.0,650.0,1.0,,,,,,,,,white,diamond
0.0,4.0,4.0,0.0,5.0,5.0,1161.6191209759563,4.0,1.0,phase_2,go,700.0,650.0,1.0,,,,,,,,,gray,circle
0.0,7.0,3.0,1.0,5.0,0.0,0.0,4.0,1.0,phase_2,stop,700.0,650.0,4.0,,,,,,,,,magenta,triangle
0.0,1.0,1.0,0.0,6.0,6.0,1009.3573040794579,4.0,1.0,phase_2,go,750.0,650.0,1.0,,,,,,,,,orange,square
0.0,7.0,3.0,1.0,5.0,0.0,0.0,4.0,1.0,phase_2,stop,750.0,650.0,4.0,,,,,,,,,magenta,triangle
0.0,7.0,3.0,1.0,6.0,0.0,0.0,4.0,1.0,phase_2,stop,800.0,650.0,4.0,,,,,,,,,magenta,triangle
0.0,8.0,4.0,1.0,5.0,5.0,961.901054950431,4.0,1.0,phase_2,go,800.0,700.0,1.0,,,,,,,,,yellow,flipped triangle
0.0,8.0,4.0,1.0,6.0,0.0,0.0,4.0,1.0,phase_2,stop,800.0,700.0,4.0,,,,,,,,,yellow,flipped triangle
0.0,2.0,2.0,0.0,6.0,6.0,957.8442099737003,4.0,1.0,phase_2,go,800.0,750.0,1.0,,,,,,,,,white,diamond
0.0,2.0,2.0,0.0,6.0,6.0,1024.2765960283575,4.0,1.0,phase_2,go,800.0,750.0,1.0,,,,,,,,,white,diamond
0.0,7.0,3.0,1.0,5.0,5.0,888.8700270326808,4.0,1.0,phase_2,go,800.0,750.0,1.0,,,,,,,,,magenta,triangle
0.0,8.0,4.0,1.0,5.0,5.0,879.0930729592219,4.0,1.0,phase_2,go,800.0,750.0,1.0,,,,,,,,,yellow,flipped triangle
0.0,8.0,4.0,1.0,6.0,6.0,646.149729960598,4.0,1.0,phase_2,go,800.0,750.0,1.0,,,,,,,,,yellow,flipped triangle
0.0,7.0,3.0,1.0,5.0,5.0,667.587800999172,4.0,1.0,phase_2,stop,800.0,750.0,3.0,,,,,,,,,magenta,triangle
0.0,2.0,2.0,0.0,5.0,5.0,994.8545049410312,4.0,1.0,phase_2,go,750.0,750.0,1.0,,,,,,,,,white,diamond
0.0,4.0,4.0,0.0,5.0,5.0,474.51053303666407,5.0,1.0,phase_2,go,750.0,750.0,1.0,,,,,,,,,gray,circle
0.0,5.0,1.0,1.0,5.0,5.0,321.4300859253853,5.0,1.0,phase_2,stop,750.0,750.0,3.0,,,,,,,,,cyan,hexagon
0.0,4.0,4.0,0.0,5.0,5.0,529.3944459408522,5.0,1.0,phase_2,go,700.0,750.0,1.0,,,,,,,,,gray,circle
0.0,7.0,3.0,1.0,5.0,5.0,498.5082899220288,5.0,1.0,phase_2,stop,700.0,750.0,3.0,,,,,,,,,magenta,triangle
0.0,2.0,2.0,0.0,6.0,6.0,422.5960249314084,5.0,1.0,phase_2,go,650.0,750.0,1.0,,,,,,,,,white,diamond
0.0,4.0,4.0,0.0,5.0,5.0,429.1819280479103,5.0,1.0,phase_2,go,650.0,750.0,1.0,,,,,,,,,gray,circle
0.0,2.0,2.0,0.0,5.0,5.0,471.4902469422668,5.0,1.0,phase_2,go,650.0,750.0,1.0,,,,,,,,,white,diamond
0.0,8.0,4.0,1.0,6.0,6.0,504.50799404643476,5.0,1.0,phase_2,stop,650.0,750.0,3.0,,,,,,,,,yellow,flipped triangle
0.0,5.0,1.0,1.0,6.0,6.0,363.4804239263758,5.0,1.0,phase_2,stop,650.0,700.0,3.0,,,,,,,,,cyan,hexagon
0.0,8.0,4.0,1.0,6.0,6.0,404.3850640300661,5.0,1.0,phase_2,stop,650.0,650.0,3.0,,,,,,,,,yellow,flipped triangle
0.0,5.0,1.0,1.0,6.0,6.0,338.6347111081704,5.0,1.0,phase_2,go,650.0,600.0,1.0,,,,,,,,,cyan,hexagon
0.0,3.0,3.0,0.0,5.0,5.0,292.6460459129885,5.0,1.0,phase_2,go,650.0,600.0,1.0,,,,,,,,,green,I
0.0,7.0,3.0,1.0,5.0,5.0,313.469058019109,5.0,1.0,phase_2,stop,650.0,600.0,3.0,,,,,,,,,magenta,triangle
0.0,2.0,2.0,0.0,5.0,5.0,499.3194109993055,5.0,1.0,phase_2,go,600.0,600.0,1.0,,,,,,,,,white,diamond
0.0,2.0,2.0,0.0,5.0,5.0,376.6414260026067,5.0,1.0,phase_2,go,600.0,600.0,1.0,,,,,,,,,white,diamond
0.0,6.0,2.0,1.0,6.0,6.0,511.5289620589465,5.0,1.0,phase_2,go,600.0,600.0,1.0,,,,,,,,,blue,cross
0.0,1.0,1.0,0.0,5.0,5.0,431.9085760507732,5.0,1.0,phase_2,go,600.0,600.0,1.0,,,,,,,,,orange,square
0.0,1.0,1.0,0.0,5.0,5.0,496.1440509650856,5.0,1.0,phase_2,go,600.0,600.0,1.0,,,,,,,,,orange,square
0.0,7.0,3.0,1.0,6.0,6.0,384.1436059447005,5.0,1.0,phase_2,go,600.0,600.0,1.0,,,,,,,,,magenta,triangle
0.0,8.0,4.0,1.0,5.0,5.0,618.825132958591,5.0,1.0,phase_2,stop,600.0,600.0,3.0,,,,,,,,,yellow,flipped triangle
0.0,8.0,4.0,1.0,5.0,5.0,455.8165950002149,5.0,1.0,phase_2,go,550.0,600.0,1.0,,,,,,,,,yellow,flipped triangle
0.0,6.0,2.0,1.0,6.0,6.0,293.3911709114909,5.0,1.0,phase_2,stop,550.0,600.0,3.0,,,,,,,,,blue,cross
0.0,3.0,3.0,0.0,6.0,6.0,566.9253480155021,5.0,1.0,phase_2,go,550.0,550.0,1.0,,,,,,,,,green,I
0.0,6.0,2.0,1.0,5.0,5.0,324.0813730517402,5.0,1.0,phase_2,go,550.0,550.0,1.0,,,,,,,,,blue,cross
0.0,5.0,1.0,1.0,5.0,5.0,510.9472470358014,5.0,1.0,phase_2,stop,550.0,550.0,3.0,,,,,,,,,cyan,hexagon
0.0,5.0,1.0,1.0,5.0,5.0,521.2124929530546,5.0,1.0,phase_2,stop,500.0,550.0,3.0,,,,,,,,,cyan,hexagon
0.0,7.0,3.0,1.0,6.0,6.0,348.6030279891565,5.0,1.0,phase_2,go,450.0,550.0,1.0,,,,,,,,,magenta,triangle
0.0,6.0,2.0,1.0,6.0,6.0,451.3270619791001,5.0,1.0,phase_2,stop,450.0,550.0,3.0,,,,,,,,,blue,cross
0.0,3.0,3.0,0.0,6.0,6.0,289.198406971991,5.0,1.0,phase_2,go,450.0,500.0,1.0,,,,,,,,,green,I
0.0,4.0,4.0,0.0,5.0,5.0,476.0473339119926,5.0,1.0,phase_2,go,450.0,500.0,1.0,,,,,,,,,gray,circle
0.0,3.0,3.0,0.0,5.0,5.0,514.8193540517241,5.0,1.0,phase_2,go,450.0,500.0,1.0,,,,,,,,,green,I
0.0,5.0,1.0,1.0,6.0,6.0,307.4486149707809,5.0,1.0,phase_2,stop,450.0,500.0,3.0,,,,,,,,,cyan,hexagon
0.0,3.0,3.0,0.0,6.0,6.0,602.2712059784681,5.0,1.0,phase_2,go,450.0,450.0,1.0,,,,,,,,,green,I
0.0,5.0,1.0,1.0,6.0,6.0,351.9647310022264,5.0,1.0,phase_2,stop,450.0,450.0,3.0,,,,,,,,,cyan,hexagon
0.0,6.0,2.0,1.0,5.0,5.0,470.9331480553373,5.0,1.0,phase_2,go,450.0,400.0,1.0,,,,,,,,,blue,cross
0.0,5.0,1.0,1.0,5.0,5.0,470.7782750483602,5.0,1.0,phase_2,stop,450.0,400.0,3.0,,,,,,,,,cyan,hexagon
0.0,5.0,1.0,1.0,6.0,6.0,943.12680803705,6.0,1.0,phase_2,stop,400.0,400.0,3.0,,,,,,,,,cyan,hexagon
0.0,5.0,1.0,1.0,6.0,6.0,736.1291459528729,6.0,1.0,phase_2,go,400.0,350.0,1.0,,,,,,,,,cyan,hexagon
0.0,6.0,2.0,1.0,5.0,5.0,431.8567560985684,6.0,1.0,phase_2,stop,400.0,350.0,3.0,,,,,,,,,blue,cross
0.0,2.0,2.0,0.0,6.0,6.0,320.7718170015141,6.0,1.0,phase_2,go,350.0,350.0,1.0,,,,,,,,,white,diamond
0.0,4.0,4.0,0.0,6.0,6.0,294.808080070652,6.0,1.0,phase_2,go,350.0,350.0,1.0,,,,,,,,,gray,circle
0.0,4.0,4.0,0.0,5.0,5.0,319.759621983394,6.0,1.0,phase_2,go,350.0,350.0,1.0,,,,,,,,,gray,circle
0.0,6.0,2.0,1.0,5.0,5.0,308.6412999546155,6.0,1.0,phase_2,stop,350.0,350.0,3.0,,,,,,,,,blue,cross
0.0,1.0,1.0,0.0,5.0,5.0,675.5911230575293,6.0,1.0,phase_2,go,300.0,350.0,1.0,,,,,,,,,orange,square
0.0,6.0,2.0,1.0,5.0,0.0,0.0,6.0,1.0,phase_2,stop,300.0,350.0,4.0,,,,,,,,,blue,cross
0.0,8.0,4.0,1.0,5.0,5.0,332.3733829893172,6.0,1.0,phase_2,stop,350.0,350.0,3.0,,,,,,,,,yellow,flipped triangle
0.0,8.0,4.0,1.0,5.0,0.0,0.0,6.0,1.0,phase_2,stop,300.0,350.0,4.0,,,,,,,,,yellow,flipped triangle
0.0,4.0,4.0,0.0,6.0,6.0,450.3498460398987,6.0,1.0,phase_2,go,350.0,350.0,1.0,,,,,,,,,gray,circle
0.0,8.0,4.0,1.0,5.0,0.0,0.0,6.0,1.0,phase_2,stop,350.0,350.0,4.0,,,,,,,,,yellow,flipped triangle
0.0,6.0,2.0,1.0,5.0,5.0,371.3502120226621,6.0,1.0,phase_2,stop,400.0,350.0,3.0,,,,,,,,,blue,cross
0.0,6.0,2.0,1.0,5.0,5.0,519.4196570664644,6.0,1.0,phase_2,stop,350.0,350.0,3.0,,,,,,,,,blue,cross
0.0,3.0,3.0,0.0,6.0,6.0,1206.7939538974315,6.0,1.0,phase_2,go,300.0,350.0,1.0,,,,,,,,,green,I
0.0,2.0,2.0,0.0,5.0,5.0,297.4940369604155,6.0,1.0,phase_2,go,300.0,350.0,1.0,,,,,,,,,white,diamond
0.0,7.0,3.0,1.0,6.0,6.0,415.6768770189956,6.0,1.0,phase_2,stop,300.0,350.0,3.0,,,,,,,,,magenta,triangle
0.0,8.0,4.0,1.0,5.0,5.0,342.3706430476159,6.0,1.0,phase_2,go,300.0,300.0,1.0,,,,,,,,,yellow,flipped triangle
0.0,5.0,1.0,1.0,6.0,6.0,391.886746045202,6.0,1.0,phase_2,stop,300.0,300.0,3.0,,,,,,,,,cyan,hexagon
0.0,2.0,2.0,0.0,6.0,6.0,565.075488993898,6.0,1.0,phase_2,go,300.0,250.0,1.0,,,,,,,,,white,diamond
0.0,8.0,4.0,1.0,6.0,0.0,0.0,6.0,1.0,phase_2,stop,300.0,250.0,4.0,,,,,,,,,yellow,flipped triangle
0.0,3.0,3.0,0.0,5.0,5.0,388.7807660503313,6.0,1.0,phase_2,go,300.0,300.0,1.0,,,,,,,,,green,I
0.0,7.0,3.0,1.0,6.0,0.0,0.0,6.0,1.0,phase_2,stop,300.0,300.0,4.0,,,,,,,,,magenta,triangle
0.0,7.0,3.0,1.0,6.0,6.0,449.6758859604597,6.0,1.0,phase_2,stop,300.0,350.0,3.0,,,,,,,,,magenta,triangle
0.0,4.0,4.0,0.0,5.0,5.0,475.1995330443606,6.0,1.0,phase_2,go,300.0,300.0,1.0,,,,,,,,,gray,circle
0.0,4.0,4.0,0.0,6.0,6.0,345.0343729928136,6.0,1.0,phase_2,go,300.0,300.0,1.0,,,,,,,,,gray,circle
0.0,3.0,3.0,0.0,5.0,5.0,362.4609229154885,6.0,1.0,phase_2,go,300.0,300.0,1.0,,,,,,,,,green,I
0.0,6.0,2.0,1.0,5.0,0.0,0.0,6.0,1.0,phase_2,stop,300.0,300.0,4.0,,,,,,,,,blue,cross
0.0,1.0,1.0,0.0,5.0,5.0,410.0255180383101,6.0,1.0,phase_2,go,350.0,300.0,1.0,,,,,,,,,orange,square
0.0,1.0,1.0,0.0,5.0,5.0,439.4273390062153,6.0,1.0,phase_2,go,350.0,300.0,1.0,,,,,,,,,orange,square
0.0,4.0,4.0,0.0,5.0,5.0,453.8302390137687,6.0,1.0,phase_2,go,350.0,300.0,1.0,,,,,,,,,gray,circle
0.0,1.0,1.0,0.0,6.0,6.0,433.6260160198435,6.0,1.0,phase_2,go,350.0,300.0,1.0,,,,,,,,,orange,square
0.0,8.0,4.0,1.0,6.0,6.0,407.3530799942091,6.0,1.0,phase_2,stop,350.0,300.0,3.0,,,,,,,,,yellow,flipped triangle
0.0,8.0,4.0,1.0,6.0,0.0,0.0,6.0,1.0,phase_2,stop,350.0,250.0,4.0,,,,,,,,,yellow,flipped triangle
0.0,4.0,4.0,0.0,5.0,5.0,382.3115259874612,6.0,1.0,phase_2,go,350.0,300.0,1.0,,,,,,,,,gray,circle
0.0,6.0,2.0,1.0,6.0,0.0,0.0,7.0,1.0,phase_2,stop,350.0,300.0,4.0,,,,,,,,,blue,cross
0.0,8.0,4.0,1.0,5.0,0.0,0.0,7.0,1.0,phase_2,stop,350.0,350.0,4.0,,,,,,,,,yellow,flipped triangle
0.0,1.0,1.0,0.0,5.0,5.0,431.9557899143547,7.0,1.0,phase_2,go,400.0,350.0,1.0,,,,,,,,,orange,square
0.0,5.0,1.0,1.0,6.0,0.0,0.0,7.0,1.0,phase_2,stop,400.0,350.0,4.0,,,,,,,,,cyan,hexagon
0.0,8.0,4.0,1.0,6.0,6.0,516.1879159277305,7.0,1.0,phase_2,stop,400.0,400.0,3.0,,,,,,,,,yellow,flipped triangle
0.0,7.0,3.0,1.0,5.0,5.0,692.6782679511234,7.0,1.0,phase_2,go,400.0,350.0,1.0,,,,,,,,,magenta,triangle
0.0,7.0,3.0,1.0,6.0,6.0,286.4693379960954,7.0,1.0,phase_2,stop,400.0,350.0,3.0,,,,,,,,,magenta,triangle
0.0,5.0,1.0,1.0,5.0,5.0,339.7249990375712,7.0,1.0,phase_2,stop,400.0,300.0,3.0,,,,,,,,,cyan,hexagon
0.0,2.0,2.0,0.0,5.0,5.0,434.3286630464718,7.0,1.0,phase_2,go,350.0,300.0,1.0,,,,,,,,,white,diamond
0.0,7.0,3.0,1.0,5.0,5.0,450.5787750240415,7.0,1.0,phase_2,stop,350.0,300.0,3.0,,,,,,,,,magenta,triangle
0.0,5.0,1.0,1.0,6.0,6.0,266.9456269359216,7.0,1.0,phase_2,stop,300.0,300.0,3.0,,,,,,,,,cyan,hexagon
0.0,1.0,1.0,0.0,6.0,6.0,314.7700109984725,7.0,1.0,phase_2,go,300.0,250.0,1.0,,,,,,,,,orange,square
0.0,2.0,2.0,0.0,5.0,5.0,289.6746350452304,7.0,1.0,phase_2,go,300.0,250.0,1.0,,,,,,,,,white,diamond
0.0,8.0,4.0,1.0,6.0,6.0,367.7025409415364,7.0,1.0,phase_2,stop,300.0,250.0,3.0,,,,,,,,,yellow,flipped triangle
0.0,1.0,1.0,0.0,5.0,5.0,400.8311450015753,7.0,1.0,phase_2,go,300.0,200.0,1.0,,,,,,,,,orange,square
0.0,1.0,1.0,0.0,6.0,6.0,367.1844779746607,7.0,1.0,phase_2,go,300.0,200.0,1.0,,,,,,,,,orange,square
0.0,1.0,1.0,0.0,5.0,5.0,368.532414897345,7.0,1.0,phase_2,go,300.0,200.0,1.0,,,,,,,,,orange,square
0.0,5.0,1.0,1.0,5.0,5.0,365.042632096447,7.0,1.0,phase_2,stop,300.0,200.0,3.0,,,,,,,,,cyan,hexagon
0.0,5.0,1.0,1.0,6.0,6.0,508.58479004818946,7.0,1.0,phase_2,stop,250.0,200.0,3.0,,,,,,,,,cyan,hexagon
0.0,4.0,4.0,0.0,6.0,6.0,534.9425009917468,7.0,1.0,phase_2,go,250.0,150.0,1.0,,,,,,,,,gray,circle
0.0,3.0,3.0,0.0,6.0,6.0,371.7351279919967,7.0,1.0,phase_2,go,250.0,150.0,1.0,,,,,,,,,green,I
0.0,3.0,3.0,0.0,5.0,5.0,431.2256349949166,7.0,1.0,phase_2,go,250.0,150.0,1.0,,,,,,,,,green,I
0.0,5.0,1.0,1.0,6.0,6.0,299.0177809260785,7.0,1.0,phase_2,stop,250.0,150.0,3.0,,,,,,,,,cyan,hexagon
0.0,7.0,3.0,1.0,5.0,0.0,0.0,7.0,1.0,phase_2,stop,250.0,100.0,4.0,,,,,,,,,magenta,triangle
0.0,4.0,4.0,0.0,6.0,6.0,330.0424319459125,7.0,1.0,phase_2,go,300.0,100.0,1.0,,,,,,,,,gray,circle
0.0,1.0,1.0,0.0,6.0,6.0,360.5657019652426,7.0,1.0,phase_2,go,300.0,100.0,1.0,,,,,,,,,orange,square
0.0,2.0,2.0,0.0,5.0,5.0,476.4964249916374,7.0,1.0,phase_2,go,300.0,100.0,1.0,,,,,,,,,white,diamond
0.0,6.0,2.0,1.0,5.0,0.0,0.0,7.0,1.0,phase_2,stop,300.0,100.0,4.0,,,,,,,,,blue,cross
0.0,2.0,2.0,0.0,6.0,6.0,395.1126830652356,7.0,1.0,phase_2,go,350.0,100.0,1.0,,,,,,,,,white,diamond
0.0,3.0,3.0,0.0,6.0,6.0,358.7323689134791,7.0,1.0,phase_2,go,350.0,100.0,1.0,,,,,,,,,green,I
0.0,4.0,4.0,0.0,5.0,5.0,446.6055789962411,7.0,1.0,phase_2,go,350.0,100.0,1.0,,,,,,,,,gray,circle
0.0,2.0,2.0,0.0,5.0,5.0,381.4785850699991,7.0,1.0,phase_2,go,350.0,100.0,1.0,,,,,,,,,white,diamond
0.0,5.0,1.0,1.0,5.0,5.0,471.0060718934983,7.0,1.0,phase_2,stop,350.0,100.0,3.0,,,,,,,,,cyan,hexagon
0.0,7.0,3.0,1.0,6.0,0.0,0.0,7.0,1.0,phase_2,stop,300.0,100.0,4.0,,,,,,,,,magenta,triangle
0.0,4.0,4.0,0.0,6.0,6.0,287.61824790854,7.0,1.0,phase_2,go,300.0,150.0,1.0,,,,,,,,,gray,circle
0.0,6.0,2.0,1.0,5.0,5.0,333.0021459842101,7.0,1.0,phase_2,stop,300.0,150.0,3.0,,,,,,,,,blue,cross
0.0,5.0,1.0,1.0,5.0,5.0,583.0398340476677,8.0,1.0,phase_2,go,250.0,150.0,1.0,,,,,,,,,cyan,hexagon
0.0,1.0,1.0,0.0,5.0,5.0,309.9346940871328,8.0,1.0,phase_2,go,250.0,150.0,1.0,,,,,,,,,orange,square
0.0,5.0,1.0,1.0,5.0,0.0,0.0,8.0,1.0,phase_2,stop,250.0,150.0,4.0,,,,,,,,,cyan,hexagon
0.0,3.0,3.0,0.0,6.0,6.0,299.9116500141099,8.0,1.0,phase_2,go,300.0,150.0,1.0,,,,,,,,,green,I
0.0,3.0,3.0,0.0,6.0,6.0,334.2106069903821,8.0,1.0,phase_2,go,300.0,150.0,1.0,,,,,,,,,green,I
0.0,4.0,4.0,0.0,5.0,5.0,356.389835011214,8.0,1.0,phase_2,go,300.0,150.0,1.0,,,,,,,,,gray,circle
0.0,4.0,4.0,0.0,6.0,6.0,355.9095389209687,8.0,1.0,phase_2,go,300.0,150.0,1.0,,,,,,,,,gray,circle
0.0,3.0,3.0,0.0,6.0,6.0,300.6530409911647,8.0,1.0,phase_2,go,300.0,150.0,1.0,,,,,,,,,green,I
0.0,1.0,1.0,0.0,6.0,6.0,379.8183979233727,8.0,1.0,phase_2,go,300.0,150.0,1.0,,,,,,,,,orange,square
0.0,7.0,3.0,1.0,6.0,6.0,328.3473290503025,8.0,1.0,phase_2,go,300.0,150.0,1.0,,,,,,,,,magenta,triangle
0.0,2.0,2.0,0.0,6.0,6.0,297.3054549656808,8.0,1.0,phase_2,go,300.0,150.0,1.0,,,,,,,,,white,diamond
0.0,2.0,2.0,0.0,5.0,5.0,327.2190920542925,8.0,1.0,phase_2,go,300.0,150.0,1.0,,,,,,,,,white,diamond
0.0,8.0,4.0,1.0,5.0,5.0,327.9726749751717,8.0,1.0,phase_2,stop,300.0,150.0,3.0,,,,,,,,,yellow,flipped triangle
0.0,7.0,3.0,1.0,5.0,5.0,328.6849448923021,8.0,1.0,phase_2,stop,250.0,150.0,3.0,,,,,,,,,magenta,triangle
0.0,1.0,1.0,0.0,6.0,6.0,336.5858099423349,8.0,1.0,phase_2,go,200.0,150.0,1.0,,,,,,,,,orange,square
0.0,6.0,2.0,1.0,5.0,5.0,430.9603259898722,8.0,1.0,phase_2,go,200.0,150.0,1.0,,,,,,,,,blue,cross
0.0,1.0,1.0,0.0,5.0,5.0,285.0271880161017,8.0,1.0,phase_2,go,200.0,150.0,1.0,,,,,,,,,orange,square
0.0,4.0,4.0,0.0,5.0,5.0,414.8322369437665,8.0,1.0,phase_2,go,200.0,150.0,1.0,,,,,,,,,gray,circle
0.0,6.0,2.0,1.0,6.0,0.0,0.0,8.0,1.0,phase_2,stop,200.0,150.0,4.0,,,,,,,,,blue,cross
0.0,4.0,4.0,0.0,6.0,6.0,298.6872799228877,8.0,1.0,phase_2,go,200.0,200.0,1.0,,,,,,,,,gray,circle
0.0,5.0,1.0,1.0,5.0,5.0,285.0523450179025,8.0,1.0,phase_2,go,200.0,200.0,1.0,,,,,,,,,cyan,hexagon
0.0,2.0,2.0,0.0,6.0,6.0,313.8828499941155,8.0,1.0,phase_2,go,200.0,200.0,1.0,,,,,,,,,white,diamond
0.0,3.0,3.0,0.0,5.0,5.0,293.0024979868904,8.0,1.0,phase_2,go,200.0,200.0,1.0,,,,,,,,,green,I
0.0,6.0,2.0,1.0,6.0,6.0,224.2301841033622,8.0,1.0,phase_2,stop,200.0,200.0,3.0,,,,,,,,,blue,cross
0.0,2.0,2.0,0.0,5.0,5.0,304.4527639867738,8.0,1.0,phase_2,go,200.0,150.0,1.0,,,,,,,,,white,diamond
0.0,1.0,1.0,0.0,5.0,5.0,393.4356399113312,8.0,1.0,phase_2,go,200.0,150.0,1.0,,,,,,,,,orange,square
0.0,2.0,2.0,0.0,6.0,6.0,289.7546570748091,8.0,1.0,phase_2,go,200.0,150.0,1.0,,,,,,,,,white,diamond
0.0,3.0,3.0,0.0,5.0,5.0,321.5959130320698,8.0,1.0,phase_2,go,200.0,150.0,1.0,,,,,,,,,green,I
0.0,5.0,1.0,1.0,6.0,6.0,279.82418902684,8.0,1.0,phase_2,stop,200.0,150.0,3.0,,,,,,,,,cyan,hexagon
0.0,6.0,2.0,1.0,6.0,0.0,0.0,8.0,1.0,phase_2,stop,200.0,100.0,4.0,,,,,,,,,blue,cross
0.0,8.0,4.0,1.0,5.0,0.0,0.0,8.0,1.0,phase_2,stop,200.0,150.0,4.0,,,,,,,,,yellow,flipped triangle
0.0,7.0,3.0,1.0,5.0,5.0,295.1392600079998,8.0,1.0,phase_2,go,250.0,150.0,1.0,,,,,,,,,magenta,triangle
0.0,2.0,2.0,0.0,6.0,6.0,286.8110470008105,8.0,1.0,phase_2,go,250.0,150.0,1.0,,,,,,,,,white,diamond
0.0,5.0,1.0,1.0,5.0,5.0,331.9223059806973,8.0,1.0,phase_2,stop,250.0,150.0,3.0,,,,,,,,,cyan,hexagon
0.0,8.0,4.0,1.0,6.0,0.0,0.0,8.0,1.0,phase_2,stop,200.0,150.0,4.0,,,,,,,,,yellow,flipped triangle
0.0,3.0,3.0,0.0,5.0,5.0,268.4617961058393,8.0,1.0,phase_2,go,200.0,200.0,1.0,,,,,,,,,green,I
0.0,7.0,3.0,1.0,7.0,5.0,2944.167281035334,1.0,2.0,phase_3,,,,,196.0,4.0,49.0,294.0,147.0,98.0,196.0,245.0,magenta,triangle
0.0,8.0,4.0,1.0,7.0,2.0,3031.4211600925773,1.0,1.0,phase_3,,,,,176.0,4.0,132.0,176.0,44.0,220.0,88.0,264.0,yellow,flipped triangle
0.0,2.0,2.0,0.0,7.0,6.0,2120.682709966786,1.0,1.0,phase_3,,,,,220.0,5.0,132.0,176.0,264.0,44.0,88.0,220.0,white,diamond
0.0,3.0,3.0,0.0,7.0,2.0,2628.823275095783,1.0,3.0,phase_3,,,,,204.0,6.0,102.0,204.0,136.0,170.0,68.0,34.0,green,I
0.0,1.0,1.0,0.0,7.0,1.0,3583.275896031409,1.0,1.0,phase_3,,,,,216.0,4.0,216.0,108.0,270.0,324.0,54.0,162.0,orange,square
0.0,2.0,2.0,0.0,7.0,5.0,1896.1989670060573,1.0,1.0,phase_3,,,,,234.0,6.0,156.0,117.0,78.0,39.0,234.0,195.0,white,diamond
0.0,4.0,4.0,0.0,7.0,1.0,2144.38324701041,1.0,3.0,phase_3,,,,,234.0,6.0,234.0,78.0,195.0,156.0,117.0,39.0,gray,circle
0.0,2.0,2.0,0.0,7.0,5.0,4723.336213966832,1.0,2.0,phase_3,,,,,54.0,1.0,270.0,324.0,216.0,162.0,54.0,108.0,white,diamond
0.0,3.0,3.0,0.0,7.0,1.0,2275.4378539975733,1.0,1.0,phase_3,,,,,108.0,2.0,108.0,216.0,324.0,54.0,270.0,162.0,green,I
0.0,8.0,4.0,1.0,7.0,1.0,1438.067072071135,1.0,1.0,phase_3,,,,,102.0,3.0,102.0,204.0,136.0,170.0,34.0,68.0,yellow,flipped triangle
0.0,8.0,4.0,1.0,7.0,3.0,3984.346073004417,1.0,1.0,phase_3,,,,,78.0,2.0,195.0,39.0,78.0,234.0,117.0,156.0,yellow,flipped triangle
0.0,4.0,4.0,0.0,7.0,1.0,2816.4855969371274,1.0,4.0,phase_3,,,,,162.0,3.0,162.0,54.0,216.0,108.0,324.0,270.0,gray,circle
0.0,2.0,2.0,0.0,7.0,2.0,2619.081621058285,1.0,1.0,phase_3,,,,,102.0,3.0,34.0,102.0,68.0,136.0,170.0,204.0,white,diamond
0.0,5.0,1.0,1.0,7.0,3.0,2597.3886819556355,1.0,1.0,phase_3,,,,,132.0,3.0,220.0,176.0,132.0,264.0,44.0,88.0,cyan,hexagon
0.0,7.0,3.0,1.0,7.0,5.0,3006.416014046408,1.0,1.0,phase_3,,,,,162.0,3.0,54.0,216.0,270.0,324.0,162.0,108.0,magenta,triangle
0.0,3.0,3.0,0.0,7.0,3.0,2877.518918015994,1.0,1.0,phase_3,,,,,54.0,1.0,270.0,216.0,54.0,108.0,324.0,162.0,green,I
0.0,1.0,1.0,0.0,7.0,2.0,1785.0784799084067,1.0,1.0,phase_3,,,,,54.0,1.0,270.0,54.0,324.0,108.0,216.0,162.0,orange,square
0.0,6.0,2.0,1.0,7.0,1.0,1843.440386001021,1.0,1.0,phase_3,,,,,147.0,3.0,147.0,245.0,196.0,98.0,49.0,294.0,blue,cross
0.0,6.0,2.0,1.0,7.0,6.0,3691.8811890063807,1.0,1.0,phase_3,,,,,108.0,2.0,162.0,270.0,216.0,324.0,54.0,108.0,blue,cross
0.0,6.0,2.0,1.0,7.0,2.0,2467.29870303534,1.0,1.0,phase_3,,,,,102.0,3.0,34.0,102.0,170.0,136.0,68.0,204.0,blue,cross
0.0,2.0,2.0,0.0,7.0,1.0,2266.0630989121278,2.0,1.0,phase_3,,,,,78.0,2.0,78.0,39.0,156.0,117.0,195.0,234.0,white,diamond
0.0,1.0,1.0,0.0,7.0,1.0,1149.2609730921686,2.0,1.0,phase_3,,,,,88.0,2.0,88.0,44.0,176.0,220.0,132.0,264.0,orange,square
0.0,8.0,4.0,1.0,7.0,3.0,2012.361966073513,2.0,1.0,phase_3,,,,,196.0,4.0,147.0,294.0,196.0,245.0,49.0,98.0,yellow,flipped triangle
0.0,8.0,4.0,1.0,7.0,1.0,1613.5902289533988,2.0,1.0,phase_3,,,,,170.0,5.0,170.0,68.0,34.0,204.0,102.0,136.0,yellow,flipped triangle
0.0,6.0,2.0,1.0,7.0,2.0,2033.6997989797965,2.0,1.0,phase_3,,,,,88.0,2.0,176.0,88.0,44.0,264.0,220.0,132.0,blue,cross
0.0,1.0,1.0,0.0,7.0,3.0,1772.9059290140867,2.0,1.0,phase_3,,,,,78.0,2.0,156.0,39.0,78.0,117.0,234.0,195.0,orange,square
0.0,3.0,3.0,0.0,7.0,1.0,1729.3704650364816,2.0,1.0,phase_3,,,,,49.0,1.0,49.0,294.0,147.0,98.0,245.0,196.0,green,I
0.0,1.0,1.0,0.0,7.0,3.0,1797.5293030031023,2.0,1.0,phase_3,,,,,68.0,2.0,204.0,34.0,68.0,136.0,170.0,102.0,orange,square
0.0,5.0,1.0,1.0,7.0,1.0,2724.1949720773846,2.0,1.0,phase_3,,,,,102.0,3.0,102.0,170.0,68.0,136.0,34.0,204.0,cyan,hexagon
0.0,8.0,4.0,1.0,7.0,3.0,2334.0275390073657,2.0,1.0,phase_3,,,,,220.0,5.0,132.0,44.0,220.0,176.0,88.0,264.0,yellow,flipped triangle
0.0,7.0,3.0,1.0,7.0,2.0,2575.756200007163,2.0,1.0,phase_3,,,,,102.0,3.0,34.0,102.0,68.0,136.0,204.0,170.0,magenta,triangle
0.0,7.0,3.0,1.0,7.0,6.0,2208.516043960117,2.0,1.0,phase_3,,,,,108.0,2.0,270.0,54.0,162.0,324.0,216.0,108.0,magenta,triangle
0.0,5.0,1.0,1.0,7.0,1.0,2092.3971669981256,2.0,1.0,phase_3,,,,,102.0,3.0,102.0,170.0,136.0,204.0,34.0,68.0,cyan,hexagon
0.0,6.0,2.0,1.0,7.0,3.0,2035.9992199810222,2.0,1.0,phase_3,,,,,102.0,3.0,34.0,136.0,102.0,204.0,170.0,68.0,blue,cross
0.0,4.0,4.0,0.0,7.0,4.0,2324.621172971092,2.0,1.0,phase_3,,,,,264.0,6.0,44.0,132.0,88.0,264.0,220.0,176.0,gray,circle
0.0,5.0,1.0,1.0,7.0,5.0,3813.900324050337,2.0,1.0,phase_3,,,,,98.0,2.0,49.0,147.0,196.0,245.0,98.0,294.0,cyan,hexagon
0.0,4.0,4.0,0.0,7.0,3.0,1999.1469460073856,2.0,1.0,phase_3,,,,,204.0,6.0,102.0,68.0,204.0,170.0,136.0,34.0,gray,circle
0.0,1.0,1.0,0.0,7.0,6.0,2364.6535159787163,2.0,1.0,phase_3,,,,,98.0,2.0,196.0,245.0,49.0,294.0,147.0,98.0,orange,square
0.0,2.0,2.0,0.0,7.0,6.0,2620.571529958397,2.0,1.0,phase_3,,,,,88.0,2.0,132.0,264.0,44.0,220.0,176.0,88.0,white,diamond
0.0,4.0,4.0,0.0,7.0,1.0,1915.367534966208,2.0,1.0,phase_3,,,,,102.0,3.0,102.0,136.0,170.0,34.0,68.0,204.0,gray,circle
0.0,4.0,4.0,0.0,7.0,2.0,1802.3114289389923,3.0,1.0,phase_3,,,,,234.0,6.0,39.0,234.0,195.0,117.0,156.0,78.0,gray,circle
0.0,3.0,3.0,0.0,7.0,2.0,2055.3498880472034,3.0,1.0,phase_3,,,,,68.0,2.0,170.0,68.0,34.0,204.0,136.0,102.0,green,I
0.0,2.0,2.0,0.0,7.0,6.0,2624.0037600509822,3.0,1.0,phase_3,,,,,98.0,2.0,196.0,245.0,147.0,294.0,49.0,98.0,white,diamond
0.0,3.0,3.0,0.0,7.0,2.0,3457.949221949093,3.0,1.0,phase_3,,,,,44.0,1.0,88.0,44.0,220.0,264.0,132.0,176.0,green,I
0.0,7.0,3.0,1.0,7.0,2.0,1872.7294859709216,3.0,1.0,phase_3,,,,,102.0,3.0,136.0,102.0,204.0,68.0,34.0,170.0,magenta,triangle
0.0,1.0,1.0,0.0,7.0,6.0,2594.822164042853,3.0,1.0,phase_3,,,,,102.0,3.0,34.0,68.0,204.0,136.0,170.0,102.0,orange,square
0.0,8.0,4.0,1.0,7.0,3.0,2995.032735983841,3.0,1.0,phase_3,,,,,195.0,5.0,39.0,234.0,195.0,156.0,117.0,78.0,yellow,flipped triangle
0.0,8.0,4.0,1.0,7.0,3.0,2019.542691996321,3.0,1.0,phase_3,,,,,216.0,4.0,54.0,324.0,216.0,270.0,162.0,108.0,yellow,flipped triangle
0.0,8.0,4.0,1.0,7.0,5.0,2037.0407770387828,3.0,1.0,phase_3,,,,,216.0,4.0,324.0,270.0,54.0,162.0,216.0,108.0,yellow,flipped triangle
0.0,6.0,2.0,1.0,7.0,4.0,3406.349114025943,3.0,1.0,phase_3,,,,,117.0,3.0,234.0,195.0,78.0,117.0,156.0,39.0,blue,cross
0.0,5.0,1.0,1.0,7.0,4.0,2360.539747984149,3.0,1.0,phase_3,,,,,98.0,2.0,147.0,245.0,294.0,98.0,49.0,196.0,cyan,hexagon
0.0,5.0,1.0,1.0,7.0,3.0,2373.1166450306773,3.0,1.0,phase_3,,,,,117.0,3.0,234.0,39.0,117.0,78.0,156.0,195.0,cyan,hexagon
0.0,2.0,2.0,0.0,7.0,2.0,1349.3753320071846,3.0,1.0,phase_3,,,,,108.0,2.0,216.0,108.0,324.0,162.0,54.0,270.0,white,diamond
0.0,6.0,2.0,1.0,7.0,1.0,2414.021425996907,3.0,1.0,phase_3,,,,,98.0,2.0,98.0,147.0,196.0,294.0,245.0,49.0,blue,cross
0.0,7.0,3.0,1.0,7.0,6.0,1885.5126049602404,3.0,1.0,phase_3,,,,,88.0,2.0,132.0,220.0,176.0,264.0,44.0,88.0,magenta,triangle
0.0,7.0,3.0,1.0,7.0,6.0,2119.684102013707,3.0,1.0,phase_3,,,,,78.0,2.0,234.0,195.0,39.0,156.0,117.0,78.0,magenta,triangle
0.0,7.0,3.0,1.0,7.0,6.0,1667.495460016653,3.0,1.0,phase_3,,,,,78.0,2.0,195.0,156.0,39.0,234.0,117.0,78.0,magenta,triangle
0.0,6.0,2.0,1.0,7.0,2.0,2866.109253023751,3.0,1.0,phase_3,,,,,88.0,2.0,132.0,88.0,264.0,176.0,220.0,44.0,blue,cross
0.0,6.0,2.0,1.0,7.0,6.0,2454.407308017835,3.0,1.0,phase_3,,,,,108.0,2.0,324.0,216.0,54.0,162.0,270.0,108.0,blue,cross
0.0,1.0,1.0,0.0,7.0,4.0,2579.9755880143493,3.0,1.0,phase_3,,,,,98.0,2.0,196.0,147.0,49.0,98.0,245.0,294.0,orange,square
0.0,3.0,3.0,0.0,7.0,6.0,1443.537137005478,4.0,1.0,phase_3,,,,,49.0,1.0,245.0,98.0,196.0,147.0,294.0,49.0,green,I
0.0,4.0,4.0,0.0,7.0,4.0,1380.4281570483,4.0,1.0,phase_3,,,,,294.0,6.0,147.0,49.0,196.0,294.0,245.0,98.0,gray,circle
0.0,3.0,3.0,0.0,7.0,6.0,2174.4622229598463,4.0,1.0,phase_3,,,,,39.0,1.0,195.0,234.0,78.0,117.0,156.0,39.0,green,I
0.0,7.0,3.0,1.0,7.0,6.0,1777.38517196849,4.0,1.0,phase_3,,,,,98.0,2.0,147.0,49.0,245.0,196.0,294.0,98.0,magenta,triangle
0.0,5.0,1.0,1.0,7.0,1.0,1934.4252089504157,4.0,1.0,phase_3,,,,,88.0,2.0,88.0,176.0,264.0,44.0,220.0,132.0,cyan,hexagon
0.0,5.0,1.0,1.0,7.0,1.0,1472.908632014878,4.0,1.0,phase_3,,,,,108.0,2.0,108.0,216.0,324.0,54.0,270.0,162.0,cyan,hexagon
0.0,5.0,1.0,1.0,7.0,1.0,1453.1084530754017,4.0,1.0,phase_3,,,,,117.0,3.0,117.0,234.0,78.0,39.0,195.0,156.0,cyan,hexagon
0.0,4.0,4.0,0.0,7.0,4.0,1299.671616056003,4.0,1.0,phase_3,,,,,245.0,5.0,49.0,98.0,147.0,245.0,196.0,294.0,gray,circle
0.0,6.0,2.0,1.0,7.0,6.0,1687.3034830205142,4.0,1.0,phase_3,,,,,117.0,3.0,156.0,78.0,39.0,195.0,234.0,117.0,blue,cross
0.0,4.0,4.0,0.0,7.0,2.0,1742.4872760893777,4.0,1.0,phase_3,,,,,264.0,6.0,88.0,264.0,176.0,132.0,220.0,44.0,gray,circle
0.0,1.0,1.0,0.0,7.0,2.0,2399.7711779084057,4.0,1.0,phase_3,,,,,117.0,3.0,195.0,117.0,78.0,39.0,156.0,234.0,orange,square
0.0,8.0,4.0,1.0,7.0,3.0,1435.130428057164,4.0,1.0,phase_3,,,,,196.0,4.0,147.0,98.0,196.0,294.0,245.0,49.0,yellow,flipped triangle
0.0,3.0,3.0,0.0,7.0,5.0,1837.453732965514,4.0,1.0,phase_3,,,,,39.0,1.0,195.0,234.0,78.0,117.0,39.0,156.0,green,I
0.0,2.0,2.0,0.0,7.0,2.0,2365.8070989185944,4.0,1.0,phase_3,,,,,102.0,3.0,68.0,102.0,170.0,204.0,136.0,34.0,white,diamond
0.0,1.0,1.0,0.0,7.0,5.0,2100.235598976724,4.0,1.0,phase_3,,,,,88.0,2.0,132.0,220.0,176.0,44.0,88.0,264.0,orange,square
0.0,2.0,2.0,0.0,7.0,4.0,2008.644360932521,4.0,1.0,phase_3,,,,,98.0,2.0,49.0,245.0,294.0,98.0,196.0,147.0,white,diamond
0.0,5.0,1.0,1.0,7.0,5.0,1927.9395750490949,4.0,1.0,phase_3,,,,,108.0,2.0,216.0,324.0,54.0,270.0,108.0,162.0,cyan,hexagon
0.0,3.0,3.0,0.0,7.0,3.0,2089.229409932159,4.0,1.0,phase_3,,,,,44.0,1.0,132.0,220.0,44.0,264.0,176.0,88.0,green,I
0.0,7.0,3.0,1.0,7.0,3.0,2307.7036070171744,4.0,1.0,phase_3,,,,,88.0,2.0,132.0,44.0,88.0,176.0,220.0,264.0,magenta,triangle
0.0,4.0,4.0,0.0,7.0,2.0,1163.4859499754384,4.0,1.0,phase_3,,,,,108.0,2.0,54.0,108.0,270.0,162.0,324.0,216.0,gray,circle
