raw_reward_magnitude,stim_reward,stepwise_reward_magnitude,paired_with_stopping,quadrant,response,reaction_time,block,num_trial_presentations,which_part,stop_signal_trial_type,left_SSD,right_SSD,accuracy,chosen_bidding_amount,chosen_bidding_level,possible_bid_1,possible_bid_2,possible_bid_3,possible_bid_4,possible_bid_5,possible_bid_6,color_text,shape_text
114.0,2.0,2.0,0.0,3.0,3.0,404.5938500203192,1.0,1.0,part_1,,,,,,,,,,,,,blue,cross
207.0,7.0,3.0,1.0,4.0,4.0,473.0846390593797,1.0,1.0,part_1,,,,,,,,,,,,,magenta,diamond
103.0,6.0,2.0,1.0,2.0,2.0,572.7018248289824,1.0,1.0,part_1,,,,,,,,,,,,,gray,square
400.0,4.0,4.0,0.0,2.0,2.0,338.5883399751037,1.0,1.0,part_1,,,,,,,,,,,,,green,I
407.0,8.0,4.0,1.0,1.0,1.0,332.9925939906388,1.0,1.0,part_1,,,,,,,,,,,,,cyan,hexagon
192.0,3.0,3.0,0.0,3.0,3.0,452.8787611052394,1.0,1.0,part_1,,,,,,,,,,,,,orange,flipped triangle
0.0,3.0,0.0,0.0,2.0,2.0,353.8135760463774,1.0,1.0,part_1,,,,,,,,,,,,,orange,flipped triangle
53.0,5.0,1.0,1.0,3.0,3.0,366.9102340936661,1.0,1.0,part_1,,,,,,,,,,,,,white,circle
42.0,5.0,1.0,1.0,3.0,3.0,274.2850510403514,1.0,1.0,part_1,,,,,,,,,,,,,white,circle
201.0,7.0,3.0,1.0,3.0,3.0,279.6668459195643,1.0,1.0,part_1,,,,,,,,,,,,,magenta,diamond
397.0,4.0,4.0,0.0,3.0,3.0,297.8788609616458,1.0,1.0,part_1,,,,,,,,,,,,,green,I
385.0,8.0,4.0,1.0,1.0,1.0,270.0559301301837,1.0,1.0,part_1,,,,,,,,,,,,,cyan,hexagon
34.0,5.0,1.0,1.0,4.0,4.0,285.9417509753257,1.0,1.0,part_1,,,,,,,,,,,,,white,circle
0.0,5.0,0.0,1.0,2.0,2.0,434.372398070991,1.0,1.0,part_1,,,,,,,,,,,,,white,circle
190.0,7.0,3.0,1.0,1.0,1.0,295.2960729598999,1.0,1.0,part_1,,,,,,,,,,,,,magenta,diamond
53.0,5.0,1.0,1.0,1.0,1.0,289.3558028154075,1.0,1.0,part_1,,,,,,,,,,,,,white,circle
386.0,4.0,4.0,0.0,4.0,4.0,310.4642329271883,1.0,1.0,part_1,,,,,,,,,,,,,green,I
0.0,6.0,0.0,1.0,1.0,1.0,250.4516679327935,1.0,1.0,part_1,,,,,,,,,,,,,gray,square
58.0,1.0,1.0,0.0,3.0,3.0,407.9188420437276,1.0,1.0,part_1,,,,,,,,,,,,,yellow,triangle
200.0,7.0,3.0,1.0,2.0,2.0,461.9130829814821,1.0,1.0,part_1,,,,,,,,,,,,,magenta,diamond
378.0,8.0,4.0,1.0,2.0,2.0,281.2364739365875,1.0,1.0,part_1,,,,,,,,,,,,,cyan,hexagon
0.0,5.0,0.0,1.0,4.0,4.0,268.9659378957003,1.0,1.0,part_1,,,,,,,,,,,,,white,circle
103.0,2.0,2.0,0.0,2.0,2.0,275.9160110726952,1.0,1.0,part_1,,,,,,,,,,,,,blue,cross
209.0,3.0,3.0,0.0,2.0,2.0,312.7400209195912,1.0,1.0,part_1,,,,,,,,,,,,,orange,flipped triangle
0.0,1.0,0.0,0.0,4.0,4.0,316.8017580173909,1.0,1.0,part_1,,,,,,,,,,,,,yellow,triangle
387.0,4.0,4.0,0.0,3.0,3.0,320.1337298378348,1.0,1.0,part_1,,,,,,,,,,,,,green,I
206.0,3.0,3.0,0.0,4.0,4.0,335.1735991891473,1.0,1.0,part_1,,,,,,,,,,,,,orange,flipped triangle
0.0,7.0,0.0,1.0,2.0,2.0,300.1575751695782,1.0,1.0,part_1,,,,,,,,,,,,,magenta,diamond
409.0,8.0,4.0,1.0,2.0,2.0,295.7696761004627,1.0,1.0,part_1,,,,,,,,,,,,,cyan,hexagon
416.0,8.0,4.0,1.0,3.0,3.0,292.5325520336628,1.0,1.0,part_1,,,,,,,,,,,,,cyan,hexagon
0.0,2.0,0.0,0.0,4.0,4.0,369.8139099869877,1.0,1.0,part_1,,,,,,,,,,,,,blue,cross
0.0,1.0,0.0,0.0,1.0,1.0,268.258485943079,1.0,1.0,part_1,,,,,,,,,,,,,yellow,triangle
394.0,4.0,4.0,0.0,1.0,1.0,289.0286881010979,1.0,1.0,part_1,,,,,,,,,,,,,green,I
71.0,1.0,1.0,0.0,3.0,3.0,295.1229449827224,1.0,1.0,part_1,,,,,,,,,,,,,yellow,triangle
115.0,6.0,2.0,1.0,1.0,1.0,341.7860618792474,1.0,1.0,part_1,,,,,,,,,,,,,gray,square
178.0,3.0,3.0,0.0,4.0,4.0,391.0588771104812,1.0,1.0,part_1,,,,,,,,,,,,,orange,flipped triangle
195.0,7.0,3.0,1.0,3.0,3.0,294.5911260321736,1.0,1.0,part_1,,,,,,,,,,,,,magenta,diamond
0.0,3.0,0.0,0.0,4.0,4.0,331.2250741291791,1.0,1.0,part_1,,,,,,,,,,,,,orange,flipped triangle
394.0,8.0,4.0,1.0,1.0,1.0,335.3712370153516,1.0,1.0,part_1,,,,,,,,,,,,,cyan,hexagon
176.0,3.0,3.0,0.0,2.0,2.0,251.78849510848522,1.0,1.0,part_1,,,,,,,,,,,,,orange,flipped triangle
193.0,7.0,3.0,1.0,3.0,3.0,241.6476581711322,1.0,1.0,part_1,,,,,,,,,,,,,magenta,diamond
207.0,3.0,3.0,0.0,3.0,3.0,354.616065043956,1.0,1.0,part_1,,,,,,,,,,,,,orange,flipped triangle
60.0,5.0,1.0,1.0,1.0,1.0,241.3010979071259,1.0,1.0,part_1,,,,,,,,,,,,,white,circle
114.0,6.0,2.0,1.0,3.0,3.0,292.9381169378757,1.0,1.0,part_1,,,,,,,,,,,,,gray,square
416.0,8.0,4.0,1.0,1.0,1.0,249.4126320816576,1.0,1.0,part_1,,,,,,,,,,,,,cyan,hexagon
0.0,3.0,0.0,0.0,2.0,2.0,294.3427569698542,1.0,1.0,part_1,,,,,,,,,,,,,orange,flipped triangle
215.0,3.0,3.0,0.0,2.0,2.0,281.4841200597584,1.0,2.0,part_1,,,,,,,,,,,,,orange,flipped triangle
0.0,6.0,0.0,1.0,2.0,2.0,342.8407900501042,1.0,1.0,part_1,,,,,,,,,,,,,gray,square
104.0,6.0,2.0,1.0,3.0,3.0,322.4850310944021,1.0,1.0,part_1,,,,,,,,,,,,,gray,square
26.0,5.0,1.0,1.0,4.0,4.0,278.5951779223978,1.0,1.0,part_1,,,,,,,,,,,,,white,circle
399.0,8.0,4.0,1.0,4.0,4.0,322.3654560279101,1.0,1.0,part_1,,,,,,,,,,,,,cyan,hexagon
77.0,2.0,2.0,0.0,3.0,3.0,318.5450909659266,1.0,1.0,part_1,,,,,,,,,,,,,blue,cross
423.0,8.0,4.0,1.0,4.0,4.0,319.4262648466974,1.0,1.0,part_1,,,,,,,,,,,,,cyan,hexagon
92.0,6.0,2.0,1.0,2.0,2.0,330.7521538808942,1.0,1.0,part_1,,,,,,,,,,,,,gray,square
53.0,1.0,1.0,0.0,4.0,4.0,261.2191820517182,1.0,1.0,part_1,,,,,,,,,,,,,yellow,triangle
86.0,2.0,2.0,0.0,1.0,1.0,441.3151470944285,1.0,1.0,part_1,,,,,,,,,,,,,blue,cross
191.0,3.0,3.0,0.0,3.0,3.0,369.680733885616,1.0,1.0,part_1,,,,,,,,,,,,,orange,flipped triangle
184.0,3.0,3.0,0.0,1.0,1.0,258.5829810705036,1.0,1.0,part_1,,,,,,,,,,,,,orange,flipped triangle
40.0,5.0,1.0,1.0,1.0,1.0,339.1782150138169,1.0,1.0,part_1,,,,,,,,,,,,,white,circle
43.0,1.0,1.0,0.0,4.0,4.0,309.7176619339734,1.0,1.0,part_1,,,,,,,,,,,,,yellow,triangle
180.0,3.0,3.0,0.0,1.0,1.0,364.1629470512271,1.0,1.0,part_1,,,,,,,,,,,,,orange,flipped triangle
98.0,2.0,2.0,0.0,1.0,1.0,336.1393460072577,1.0,1.0,part_1,,,,,,,,,,,,,blue,cross
180.0,3.0,3.0,0.0,4.0,4.0,307.0894090924412,1.0,1.0,part_1,,,,,,,,,,,,,orange,flipped triangle
0.0,5.0,0.0,1.0,2.0,2.0,310.5714579578489,1.0,1.0,part_1,,,,,,,,,,,,,white,circle
79.0,2.0,2.0,0.0,3.0,3.0,286.4219399634748,1.0,1.0,part_1,,,,,,,,,,,,,blue,cross
0.0,5.0,0.0,1.0,1.0,1.0,248.9408541005104,1.0,1.0,part_1,,,,,,,,,,,,,white,circle
409.0,4.0,4.0,0.0,2.0,2.0,303.2190289814025,1.0,1.0,part_1,,,,,,,,,,,,,green,I
0.0,7.0,0.0,1.0,2.0,2.0,417.5530760549009,1.0,1.0,part_1,,,,,,,,,,,,,magenta,diamond
379.0,8.0,4.0,1.0,4.0,4.0,392.0321010518819,1.0,1.0,part_1,,,,,,,,,,,,,cyan,hexagon
69.0,5.0,1.0,1.0,3.0,3.0,317.9998891428113,1.0,1.0,part_1,,,,,,,,,,,,,white,circle
58.0,5.0,1.0,1.0,1.0,1.0,231.2616659328341,1.0,1.0,part_1,,,,,,,,,,,,,white,circle
423.0,4.0,4.0,0.0,4.0,4.0,335.2309900801629,1.0,1.0,part_1,,,,,,,,,,,,,green,I
103.0,6.0,2.0,1.0,1.0,1.0,458.5988449398428,1.0,1.0,part_1,,,,,,,,,,,,,gray,square
37.0,1.0,1.0,0.0,1.0,1.0,342.3129979055375,1.0,1.0,part_1,,,,,,,,,,,,,yellow,triangle
385.0,4.0,4.0,0.0,2.0,2.0,293.5638797935098,1.0,1.0,part_1,,,,,,,,,,,,,green,I
0.0,8.0,0.0,1.0,2.0,2.0,319.7053680196404,1.0,1.0,part_1,,,,,,,,,,,,,cyan,hexagon
177.0,3.0,3.0,0.0,3.0,3.0,327.4505389854312,1.0,1.0,part_1,,,,,,,,,,,,,orange,flipped triangle
91.0,2.0,2.0,0.0,3.0,3.0,426.7030900809914,1.0,1.0,part_1,,,,,,,,,,,,,blue,cross
59.0,1.0,1.0,0.0,2.0,2.0,252.6347239036113,1.0,1.0,part_1,,,,,,,,,,,,,yellow,triangle
225.0,3.0,3.0,0.0,4.0,4.0,285.7440030202269,1.0,1.0,part_1,,,,,,,,,,,,,orange,flipped triangle
123.0,2.0,2.0,0.0,4.0,4.0,319.0955210011452,1.0,1.0,part_1,,,,,,,,,,,,,blue,cross
0.0,7.0,0.0,1.0,4.0,4.0,367.0196989551186,1.0,1.0,part_1,,,,,,,,,,,,,magenta,diamond
33.0,1.0,1.0,0.0,4.0,4.0,289.576434995979,1.0,1.0,part_1,,,,,,,,,,,,,yellow,triangle
399.0,4.0,4.0,0.0,2.0,2.0,296.0170588921755,1.0,1.0,part_1,,,,,,,,,,,,,green,I
219.0,3.0,3.0,0.0,4.0,4.0,291.0953441169113,1.0,1.0,part_1,,,,,,,,,,,,,orange,flipped triangle
216.0,7.0,3.0,1.0,4.0,4.0,304.8597639426589,1.0,1.0,part_1,,,,,,,,,,,,,magenta,diamond
415.0,8.0,4.0,1.0,3.0,3.0,282.5307520106435,1.0,1.0,part_1,,,,,,,,,,,,,cyan,hexagon
43.0,5.0,1.0,1.0,2.0,2.0,310.7206309214234,1.0,1.0,part_1,,,,,,,,,,,,,white,circle
0.0,3.0,0.0,0.0,1.0,1.0,284.6731978934258,1.0,1.0,part_1,,,,,,,,,,,,,orange,flipped triangle
106.0,6.0,2.0,1.0,3.0,3.0,306.9116359110921,1.0,1.0,part_1,,,,,,,,,,,,,gray,square
62.0,5.0,1.0,1.0,4.0,4.0,261.9268230628222,1.0,1.0,part_1,,,,,,,,,,,,,white,circle
0.0,3.0,0.0,0.0,3.0,3.0,298.2143848203122,1.0,1.0,part_1,,,,,,,,,,,,,orange,flipped triangle
77.0,6.0,2.0,1.0,1.0,1.0,311.2143748439848,1.0,1.0,part_1,,,,,,,,,,,,,gray,square
392.0,4.0,4.0,0.0,1.0,1.0,331.1348089482635,1.0,1.0,part_1,,,,,,,,,,,,,green,I
424.0,8.0,4.0,1.0,3.0,3.0,314.2431969754398,1.0,1.0,part_1,,,,,,,,,,,,,cyan,hexagon
0.0,4.0,0.0,0.0,3.0,3.0,334.8064569290727,1.0,1.0,part_1,,,,,,,,,,,,,green,I
34.0,1.0,1.0,0.0,3.0,3.0,313.9276888687163,1.0,1.0,part_1,,,,,,,,,,,,,yellow,triangle
219.0,7.0,3.0,1.0,4.0,4.0,302.1821358706802,1.0,1.0,part_1,,,,,,,,,,,,,magenta,diamond
418.0,4.0,4.0,0.0,4.0,4.0,269.0557250753045,1.0,1.0,part_1,,,,,,,,,,,,,green,I
0.0,4.0,0.0,0.0,3.0,3.0,240.1131989900022,1.0,1.0,part_1,,,,,,,,,,,,,green,I
0.0,5.0,0.0,1.0,3.0,3.0,273.6702091060579,2.0,1.0,part_1,,,,,,,,,,,,,white,circle
408.0,8.0,4.0,1.0,4.0,4.0,293.6541149392724,2.0,1.0,part_1,,,,,,,,,,,,,cyan,hexagon
0.0,5.0,0.0,1.0,3.0,3.0,360.1735341362655,2.0,1.0,part_1,,,,,,,,,,,,,white,circle
195.0,7.0,3.0,1.0,2.0,2.0,277.7903559617698,2.0,1.0,part_1,,,,,,,,,,,,,magenta,diamond
71.0,5.0,1.0,1.0,2.0,2.0,449.5522109791636,2.0,1.0,part_1,,,,,,,,,,,,,white,circle
101.0,6.0,2.0,1.0,4.0,4.0,336.4380840212106,2.0,1.0,part_1,,,,,,,,,,,,,gray,square
414.0,8.0,4.0,1.0,2.0,2.0,254.07152902334929,2.0,1.0,part_1,,,,,,,,,,,,,cyan,hexagon
0.0,2.0,0.0,0.0,1.0,1.0,314.665483077988,2.0,1.0,part_1,,,,,,,,,,,,,blue,cross
49.0,1.0,1.0,0.0,4.0,4.0,246.3824918959289,2.0,1.0,part_1,,,,,,,,,,,,,yellow,triangle
89.0,2.0,2.0,0.0,4.0,4.0,330.2884751465171,2.0,1.0,part_1,,,,,,,,,,,,,blue,cross
192.0,3.0,3.0,0.0,2.0,2.0,382.0717509370297,2.0,1.0,part_1,,,,,,,,,,,,,orange,flipped triangle
68.0,1.0,1.0,0.0,2.0,2.0,258.4382321219891,2.0,1.0,part_1,,,,,,,,,,,,,yellow,triangle
193.0,7.0,3.0,1.0,1.0,1.0,338.4599511045962,2.0,1.0,part_1,,,,,,,,,,,,,magenta,diamond
57.0,5.0,1.0,1.0,3.0,3.0,311.0606831032783,2.0,1.0,part_1,,,,,,,,,,,,,white,circle
56.0,1.0,1.0,0.0,2.0,2.0,425.0033430289477,2.0,1.0,part_1,,,,,,,,,,,,,yellow,triangle
0.0,1.0,0.0,0.0,1.0,1.0,270.8665342070162,2.0,1.0,part_1,,,,,,,,,,,,,yellow,triangle
0.0,4.0,0.0,0.0,3.0,3.0,378.4035861026495,2.0,1.0,part_1,,,,,,,,,,,,,green,I
71.0,1.0,1.0,0.0,2.0,2.0,249.32149494998148,2.0,1.0,part_1,,,,,,,,,,,,,yellow,triangle
56.0,5.0,1.0,1.0,2.0,2.0,363.5171849746257,2.0,1.0,part_1,,,,,,,,,,,,,white,circle
86.0,2.0,2.0,0.0,2.0,2.0,338.2708230055868,2.0,1.0,part_1,,,,,,,,,,,,,blue,cross
375.0,4.0,4.0,0.0,4.0,4.0,302.27503599599,2.0,1.0,part_1,,,,,,,,,,,,,green,I
40.0,1.0,1.0,0.0,4.0,4.0,339.9513598997146,2.0,1.0,part_1,,,,,,,,,,,,,yellow,triangle
49.0,5.0,1.0,1.0,3.0,3.0,282.2617560159415,2.0,1.0,part_1,,,,,,,,,,,,,white,circle
125.0,2.0,2.0,0.0,1.0,1.0,387.58408813737327,2.0,1.0,part_1,,,,,,,,,,,,,blue,cross
0.0,6.0,0.0,1.0,4.0,4.0,298.5023690853268,2.0,1.0,part_1,,,,,,,,,,,,,gray,square
43.0,1.0,1.0,0.0,2.0,2.0,301.9475410692394,2.0,1.0,part_1,,,,,,,,,,,,,yellow,triangle
0.0,5.0,0.0,1.0,1.0,1.0,300.637714099139,2.0,1.0,part_1,,,,,,,,,,,,,white,circle
56.0,5.0,1.0,1.0,1.0,1.0,296.7323330231011,2.0,1.0,part_1,,,,,,,,,,,,,white,circle
34.0,1.0,1.0,0.0,1.0,1.0,388.4015118237585,2.0,1.0,part_1,,,,,,,,,,,,,yellow,triangle
387.0,4.0,4.0,0.0,2.0,2.0,318.976717069745,2.0,1.0,part_1,,,,,,,,,,,,,green,I
111.0,6.0,2.0,1.0,4.0,4.0,558.7365529499948,2.0,1.0,part_1,,,,,,,,,,,,,gray,square
392.0,8.0,4.0,1.0,3.0,3.0,456.8834998644888,2.0,1.0,part_1,,,,,,,,,,,,,cyan,hexagon
122.0,6.0,2.0,1.0,3.0,3.0,327.49789906665677,2.0,1.0,part_1,,,,,,,,,,,,,gray,square
103.0,2.0,2.0,0.0,2.0,2.0,418.4850701130926,2.0,1.0,part_1,,,,,,,,,,,,,blue,cross
193.0,3.0,3.0,0.0,2.0,2.0,417.1375250443816,2.0,1.0,part_1,,,,,,,,,,,,,orange,flipped triangle
207.0,7.0,3.0,1.0,3.0,3.0,325.4417730495333,2.0,1.0,part_1,,,,,,,,,,,,,magenta,diamond
37.0,5.0,1.0,1.0,4.0,4.0,298.794575035572,2.0,1.0,part_1,,,,,,,,,,,,,white,circle
93.0,6.0,2.0,1.0,3.0,3.0,373.1747209094465,2.0,1.0,part_1,,,,,,,,,,,,,gray,square
50.0,5.0,1.0,1.0,3.0,3.0,315.1813249569386,2.0,1.0,part_1,,,,,,,,,,,,,white,circle
111.0,2.0,2.0,0.0,2.0,2.0,477.8164569288492,2.0,1.0,part_1,,,,,,,,,,,,,blue,cross
387.0,8.0,4.0,1.0,4.0,4.0,330.61523293145,2.0,1.0,part_1,,,,,,,,,,,,,cyan,hexagon
38.0,1.0,1.0,0.0,3.0,3.0,291.0411439370364,2.0,1.0,part_1,,,,,,,,,,,,,yellow,triangle
0.0,7.0,0.0,1.0,4.0,4.0,348.0172650888562,2.0,1.0,part_1,,,,,,,,,,,,,magenta,diamond
109.0,2.0,2.0,0.0,1.0,1.0,360.3604012168944,2.0,1.0,part_1,,,,,,,,,,,,,blue,cross
416.0,4.0,4.0,0.0,1.0,1.0,336.0067601315677,2.0,1.0,part_1,,,,,,,,,,,,,green,I
0.0,7.0,0.0,1.0,2.0,2.0,250.4880668129772,2.0,1.0,part_1,,,,,,,,,,,,,magenta,diamond
57.0,1.0,1.0,0.0,1.0,1.0,320.3213619999587,2.0,1.0,part_1,,,,,,,,,,,,,yellow,triangle
0.0,8.0,0.0,1.0,2.0,2.0,283.3100978750735,2.0,1.0,part_1,,,,,,,,,,,,,cyan,hexagon
96.0,6.0,2.0,1.0,1.0,1.0,291.8591359630227,2.0,1.0,part_1,,,,,,,,,,,,,gray,square
113.0,6.0,2.0,1.0,1.0,1.0,561.0601131338626,2.0,2.0,part_1,,,,,,,,,,,,,gray,square
97.0,2.0,2.0,0.0,3.0,3.0,376.3517229817807,2.0,1.0,part_1,,,,,,,,,,,,,blue,cross
86.0,6.0,2.0,1.0,1.0,1.0,306.8391131237149,2.0,1.0,part_1,,,,,,,,,,,,,gray,square
408.0,4.0,4.0,0.0,3.0,3.0,274.4802220258862,2.0,1.0,part_1,,,,,,,,,,,,,green,I
119.0,2.0,2.0,0.0,3.0,3.0,284.857593011111,2.0,1.0,part_1,,,,,,,,,,,,,blue,cross
178.0,7.0,3.0,1.0,2.0,2.0,280.8643539901823,2.0,1.0,part_1,,,,,,,,,,,,,magenta,diamond
0.0,1.0,0.0,0.0,3.0,3.0,273.1750190723687,2.0,1.0,part_1,,,,,,,,,,,,,yellow,triangle
423.0,4.0,4.0,0.0,2.0,2.0,277.8845198918134,2.0,1.0,part_1,,,,,,,,,,,,,green,I
0.0,2.0,0.0,0.0,3.0,3.0,272.2016479820013,2.0,1.0,part_1,,,,,,,,,,,,,blue,cross
90.0,6.0,2.0,1.0,3.0,3.0,379.5459980610758,2.0,1.0,part_1,,,,,,,,,,,,,gray,square
67.0,1.0,1.0,0.0,1.0,1.0,394.633857998997,2.0,1.0,part_1,,,,,,,,,,,,,yellow,triangle
221.0,3.0,3.0,0.0,2.0,2.0,239.1476859338581,2.0,1.0,part_1,,,,,,,,,,,,,orange,flipped triangle
178.0,7.0,3.0,1.0,4.0,4.0,308.4932349156588,2.0,1.0,part_1,,,,,,,,,,,,,magenta,diamond
26.0,1.0,1.0,0.0,3.0,3.0,335.9810709953308,2.0,1.0,part_1,,,,,,,,,,,,,yellow,triangle
189.0,3.0,3.0,0.0,1.0,1.0,270.6870359834283,2.0,1.0,part_1,,,,,,,,,,,,,orange,flipped triangle
204.0,7.0,3.0,1.0,4.0,4.0,344.4862000178545,2.0,1.0,part_1,,,,,,,,,,,,,magenta,diamond
87.0,2.0,2.0,0.0,3.0,3.0,349.0182750392705,2.0,1.0,part_1,,,,,,,,,,,,,blue,cross
84.0,6.0,2.0,1.0,2.0,2.0,377.8387669008225,2.0,1.0,part_1,,,,,,,,,,,,,gray,square
403.0,4.0,4.0,0.0,2.0,2.0,415.7176311127841,2.0,1.0,part_1,,,,,,,,,,,,,green,I
60.0,1.0,1.0,0.0,4.0,4.0,314.64723800309,2.0,1.0,part_1,,,,,,,,,,,,,yellow,triangle
0.0,3.0,0.0,0.0,4.0,4.0,368.6949801631272,2.0,1.0,part_1,,,,,,,,,,,,,orange,flipped triangle
40.0,1.0,1.0,0.0,2.0,2.0,287.0179670862853,2.0,1.0,part_1,,,,,,,,,,,,,yellow,triangle
113.0,2.0,2.0,0.0,3.0,3.0,315.4189821798354,2.0,1.0,part_1,,,,,,,,,,,,,blue,cross
77.0,2.0,2.0,0.0,4.0,4.0,469.9414181523025,2.0,1.0,part_1,,,,,,,,,,,,,blue,cross
0.0,8.0,0.0,1.0,2.0,2.0,290.1552489493042,2.0,1.0,part_1,,,,,,,,,,,,,cyan,hexagon
61.0,5.0,1.0,1.0,2.0,2.0,290.242268005386,2.0,1.0,part_1,,,,,,,,,,,,,white,circle
224.0,7.0,3.0,1.0,2.0,2.0,349.7113201301545,2.0,1.0,part_1,,,,,,,,,,,,,magenta,diamond
50.0,1.0,1.0,0.0,3.0,3.0,374.0205760113895,2.0,1.0,part_1,,,,,,,,,,,,,yellow,triangle
0.0,4.0,0.0,0.0,3.0,3.0,429.2306329589337,2.0,1.0,part_1,,,,,,,,,,,,,green,I
0.0,6.0,0.0,1.0,1.0,1.0,322.8534839581698,2.0,1.0,part_1,,,,,,,,,,,,,gray,square
200.0,3.0,3.0,0.0,3.0,3.0,414.0840419568121,2.0,1.0,part_1,,,,,,,,,,,,,orange,flipped triangle
410.0,4.0,4.0,0.0,4.0,4.0,276.5312970150262,2.0,1.0,part_1,,,,,,,,,,,,,green,I
94.0,2.0,2.0,0.0,4.0,4.0,359.0786589775234,2.0,1.0,part_1,,,,,,,,,,,,,blue,cross
38.0,5.0,1.0,1.0,3.0,3.0,628.4759130794555,2.0,1.0,part_1,,,,,,,,,,,,,white,circle
0.0,4.0,0.0,0.0,2.0,2.0,299.7495580930263,2.0,1.0,part_1,,,,,,,,,,,,,green,I
192.0,7.0,3.0,1.0,2.0,2.0,328.6271889228374,2.0,1.0,part_1,,,,,,,,,,,,,magenta,diamond
424.0,4.0,4.0,0.0,1.0,1.0,396.8447148799896,2.0,1.0,part_1,,,,,,,,,,,,,green,I
119.0,6.0,2.0,1.0,3.0,3.0,302.8295009862631,2.0,1.0,part_1,,,,,,,,,,,,,gray,square
0.0,8.0,0.0,1.0,3.0,3.0,471.5901820454746,2.0,1.0,part_1,,,,,,,,,,,,,cyan,hexagon
397.0,8.0,4.0,1.0,3.0,3.0,343.8802468590438,2.0,1.0,part_1,,,,,,,,,,,,,cyan,hexagon
78.0,6.0,2.0,1.0,1.0,1.0,446.595132118091,2.0,1.0,part_1,,,,,,,,,,,,,gray,square
209.0,3.0,3.0,0.0,4.0,4.0,323.7774630542844,2.0,1.0,part_1,,,,,,,,,,,,,orange,flipped triangle
0.0,5.0,0.0,1.0,2.0,2.0,503.58224799856544,2.0,1.0,part_1,,,,,,,,,,,,,white,circle
59.0,5.0,1.0,1.0,2.0,2.0,413.8391469605267,2.0,1.0,part_1,,,,,,,,,,,,,white,circle
214.0,7.0,3.0,1.0,4.0,4.0,385.5793951079249,2.0,1.0,part_1,,,,,,,,,,,,,magenta,diamond
195.0,3.0,3.0,0.0,3.0,3.0,319.2939008586108,2.0,1.0,part_1,,,,,,,,,,,,,orange,flipped triangle
115.0,2.0,2.0,0.0,3.0,3.0,304.7491351608187,2.0,1.0,part_1,,,,,,,,,,,,,blue,cross
222.0,3.0,3.0,0.0,3.0,3.0,329.6961260493845,2.0,1.0,part_1,,,,,,,,,,,,,orange,flipped triangle
0.0,4.0,0.0,0.0,1.0,1.0,461.2025509122759,2.0,1.0,part_1,,,,,,,,,,,,,green,I
224.0,3.0,3.0,0.0,1.0,1.0,318.9803939312696,2.0,1.0,part_1,,,,,,,,,,,,,orange,flipped triangle
71.0,5.0,1.0,1.0,4.0,4.0,439.9545781780034,2.0,1.0,part_1,,,,,,,,,,,,,white,circle
77.0,6.0,2.0,1.0,4.0,4.0,295.22689199075097,3.0,1.0,part_1,,,,,,,,,,,,,gray,square
94.0,6.0,2.0,1.0,2.0,2.0,281.7403709050268,3.0,1.0,part_1,,,,,,,,,,,,,gray,square
409.0,4.0,4.0,0.0,3.0,3.0,261.839932994917,3.0,1.0,part_1,,,,,,,,,,,,,green,I
382.0,8.0,4.0,1.0,2.0,2.0,292.6844570320099,3.0,1.0,part_1,,,,,,,,,,,,,cyan,hexagon
400.0,8.0,4.0,1.0,3.0,3.0,256.54908712022,3.0,1.0,part_1,,,,,,,,,,,,,cyan,hexagon
33.0,5.0,1.0,1.0,3.0,3.0,325.7089650724083,3.0,1.0,part_1,,,,,,,,,,,,,white,circle
0.0,1.0,0.0,0.0,4.0,4.0,248.9401609636843,3.0,1.0,part_1,,,,,,,,,,,,,yellow,triangle
375.0,8.0,4.0,1.0,2.0,2.0,293.5614560265094,3.0,1.0,part_1,,,,,,,,,,,,,cyan,hexagon
0.0,4.0,0.0,0.0,1.0,1.0,317.7759509999305,3.0,1.0,part_1,,,,,,,,,,,,,green,I
399.0,8.0,4.0,1.0,2.0,2.0,273.1448400299996,3.0,1.0,part_1,,,,,,,,,,,,,cyan,hexagon
0.0,3.0,0.0,0.0,2.0,2.0,311.2244110088795,3.0,1.0,part_1,,,,,,,,,,,,,orange,flipped triangle
209.0,7.0,3.0,1.0,3.0,3.0,424.3795489892363,3.0,1.0,part_1,,,,,,,,,,,,,magenta,diamond
184.0,3.0,3.0,0.0,1.0,1.0,335.7300399802625,3.0,1.0,part_1,,,,,,,,,,,,,orange,flipped triangle
378.0,4.0,4.0,0.0,1.0,1.0,340.2335380669683,3.0,1.0,part_1,,,,,,,,,,,,,green,I
50.0,5.0,1.0,1.0,3.0,3.0,297.0773829147219,3.0,1.0,part_1,,,,,,,,,,,,,white,circle
98.0,6.0,2.0,1.0,2.0,2.0,477.8752010315656,3.0,1.0,part_1,,,,,,,,,,,,,gray,square
31.0,1.0,1.0,0.0,4.0,4.0,352.3800359107554,3.0,1.0,part_1,,,,,,,,,,,,,yellow,triangle
51.0,5.0,1.0,1.0,4.0,4.0,326.9847931805998,3.0,1.0,part_1,,,,,,,,,,,,,white,circle
51.0,1.0,1.0,0.0,1.0,1.0,594.7302510030568,3.0,1.0,part_1,,,,,,,,,,,,,yellow,triangle
0.0,1.0,0.0,0.0,3.0,3.0,345.653077121824,3.0,1.0,part_1,,,,,,,,,,,,,yellow,triangle
0.0,1.0,0.0,0.0,3.0,3.0,298.8717958796769,3.0,1.0,part_1,,,,,,,,,,,,,yellow,triangle
86.0,6.0,2.0,1.0,2.0,2.0,360.9014861285686,3.0,1.0,part_1,,,,,,,,,,,,,gray,square
0.0,6.0,0.0,1.0,2.0,2.0,292.2416250221431,3.0,1.0,part_1,,,,,,,,,,,,,gray,square
94.0,2.0,2.0,0.0,2.0,2.0,280.0062829628587,3.0,1.0,part_1,,,,,,,,,,,,,blue,cross
195.0,3.0,3.0,0.0,1.0,1.0,367.6119719166308,3.0,1.0,part_1,,,,,,,,,,,,,orange,flipped triangle
125.0,6.0,2.0,1.0,4.0,4.0,299.6861669234931,3.0,1.0,part_1,,,,,,,,,,,,,gray,square
104.0,2.0,2.0,0.0,2.0,2.0,336.5223091095686,3.0,1.0,part_1,,,,,,,,,,,,,blue,cross
406.0,8.0,4.0,1.0,4.0,4.0,373.2322740834206,3.0,1.0,part_1,,,,,,,,,,,,,cyan,hexagon
0.0,4.0,0.0,0.0,2.0,2.0,249.6768590062856,3.0,1.0,part_1,,,,,,,,,,,,,green,I
0.0,2.0,0.0,0.0,2.0,2.0,383.2813201006502,3.0,1.0,part_1,,,,,,,,,,,,,blue,cross
379.0,4.0,4.0,0.0,3.0,3.0,330.1858908962458,3.0,1.0,part_1,,,,,,,,,,,,,green,I
399.0,4.0,4.0,0.0,4.0,4.0,359.3285090755671,3.0,1.0,part_1,,,,,,,,,,,,,green,I
124.0,2.0,2.0,0.0,4.0,4.0,461.6892558988184,3.0,1.0,part_1,,,,,,,,,,,,,blue,cross
0.0,7.0,0.0,1.0,3.0,3.0,482.8267961274832,3.0,1.0,part_1,,,,,,,,,,,,,magenta,diamond
213.0,7.0,3.0,1.0,4.0,4.0,655.6999799795449,3.0,1.0,part_1,,,,,,,,,,,,,magenta,diamond
108.0,2.0,2.0,0.0,1.0,1.0,401.3186451047659,3.0,1.0,part_1,,,,,,,,,,,,,blue,cross
205.0,3.0,3.0,0.0,2.0,2.0,277.7336260769516,3.0,1.0,part_1,,,,,,,,,,,,,orange,flipped triangle
176.0,7.0,3.0,1.0,3.0,3.0,302.0839160308242,3.0,1.0,part_1,,,,,,,,,,,,,magenta,diamond
410.0,8.0,4.0,1.0,3.0,3.0,350.8146428503096,3.0,1.0,part_1,,,,,,,,,,,,,cyan,hexagon
0.0,3.0,0.0,0.0,3.0,3.0,355.6829588487744,3.0,1.0,part_1,,,,,,,,,,,,,orange,flipped triangle
49.0,1.0,1.0,0.0,2.0,2.0,338.8996701687574,3.0,1.0,part_1,,,,,,,,,,,,,yellow,triangle
403.0,8.0,4.0,1.0,3.0,3.0,392.6071000751108,3.0,1.0,part_1,,,,,,,,,,,,,cyan,hexagon
415.0,4.0,4.0,0.0,4.0,4.0,315.4736550059169,3.0,1.0,part_1,,,,,,,,,,,,,green,I
0.0,2.0,0.0,0.0,2.0,2.0,366.0672619007528,3.0,1.0,part_1,,,,,,,,,,,,,blue,cross
84.0,2.0,2.0,0.0,4.0,4.0,287.8774609416723,3.0,2.0,part_1,,,,,,,,,,,,,blue,cross
0.0,1.0,0.0,0.0,3.0,3.0,399.6185408905148,3.0,1.0,part_1,,,,,,,,,,,,,yellow,triangle
209.0,7.0,3.0,1.0,2.0,2.0,305.698431096971,3.0,1.0,part_1,,,,,,,,,,,,,magenta,diamond
382.0,4.0,4.0,0.0,2.0,2.0,328.3599510323256,3.0,1.0,part_1,,,,,,,,,,,,,green,I
40.0,5.0,1.0,1.0,1.0,1.0,458.8262808974832,3.0,1.0,part_1,,,,,,,,,,,,,white,circle
188.0,3.0,3.0,0.0,3.0,3.0,351.0082690045237,3.0,1.0,part_1,,,,,,,,,,,,,orange,flipped triangle
223.0,3.0,3.0,0.0,4.0,4.0,295.0497209094465,3.0,1.0,part_1,,,,,,,,,,,,,orange,flipped triangle
390.0,8.0,4.0,1.0,2.0,2.0,266.7649048380553,3.0,1.0,part_1,,,,,,,,,,,,,cyan,hexagon
215.0,7.0,3.0,1.0,3.0,3.0,312.3686250764876,3.0,1.0,part_1,,,,,,,,,,,,,magenta,diamond
177.0,7.0,3.0,1.0,2.0,2.0,291.5872989688068,3.0,1.0,part_1,,,,,,,,,,,,,magenta,diamond
418.0,8.0,4.0,1.0,1.0,1.0,415.0335351005196,3.0,1.0,part_1,,,,,,,,,,,,,cyan,hexagon
191.0,7.0,3.0,1.0,2.0,2.0,291.643463075161,3.0,1.0,part_1,,,,,,,,,,,,,magenta,diamond
31.0,1.0,1.0,0.0,4.0,4.0,338.2788421586156,3.0,1.0,part_1,,,,,,,,,,,,,yellow,triangle
68.0,5.0,1.0,1.0,2.0,2.0,381.0210721567273,3.0,1.0,part_1,,,,,,,,,,,,,white,circle
0.0,7.0,0.0,1.0,2.0,2.0,601.490557892248,3.0,1.0,part_1,,,,,,,,,,,,,magenta,diamond
0.0,4.0,0.0,0.0,3.0,3.0,319.5679129566997,3.0,1.0,part_1,,,,,,,,,,,,,green,I
119.0,2.0,2.0,0.0,4.0,4.0,322.7431389968842,3.0,1.0,part_1,,,,,,,,,,,,,blue,cross
47.0,1.0,1.0,0.0,3.0,3.0,415.2470070403069,3.0,1.0,part_1,,,,,,,,,,,,,yellow,triangle
207.0,3.0,3.0,0.0,2.0,2.0,277.6945850346237,3.0,1.0,part_1,,,,,,,,,,,,,orange,flipped triangle
0.0,2.0,0.0,0.0,3.0,3.0,450.6202950142324,3.0,1.0,part_1,,,,,,,,,,,,,blue,cross
50.0,1.0,1.0,0.0,1.0,1.0,312.9238698165864,3.0,1.0,part_1,,,,,,,,,,,,,yellow,triangle
42.0,1.0,1.0,0.0,3.0,3.0,259.9668779876083,3.0,1.0,part_1,,,,,,,,,,,,,yellow,triangle
392.0,4.0,4.0,0.0,3.0,3.0,288.7520198710263,3.0,1.0,part_1,,,,,,,,,,,,,green,I
61.0,1.0,1.0,0.0,3.0,3.0,267.9816239979118,3.0,1.0,part_1,,,,,,,,,,,,,yellow,triangle
180.0,7.0,3.0,1.0,1.0,1.0,339.4979960285127,3.0,1.0,part_1,,,,,,,,,,,,,magenta,diamond
0.0,5.0,0.0,1.0,2.0,2.0,350.8520780596882,3.0,1.0,part_1,,,,,,,,,,,,,white,circle
206.0,7.0,3.0,1.0,4.0,4.0,348.3194960281253,3.0,1.0,part_1,,,,,,,,,,,,,magenta,diamond
180.0,7.0,3.0,1.0,1.0,1.0,353.060653898865,3.0,1.0,part_1,,,,,,,,,,,,,magenta,diamond
204.0,3.0,3.0,0.0,1.0,1.0,347.0718578901142,3.0,1.0,part_1,,,,,,,,,,,,,orange,flipped triangle
392.0,8.0,4.0,1.0,4.0,4.0,353.412525029853,3.0,1.0,part_1,,,,,,,,,,,,,cyan,hexagon
0.0,2.0,0.0,0.0,3.0,3.0,271.9135000370443,3.0,1.0,part_1,,,,,,,,,,,,,blue,cross
0.0,7.0,0.0,1.0,4.0,4.0,353.1851021107286,3.0,1.0,part_1,,,,,,,,,,,,,magenta,diamond
188.0,7.0,3.0,1.0,3.0,3.0,525.3237648867071,3.0,1.0,part_1,,,,,,,,,,,,,magenta,diamond
93.0,6.0,2.0,1.0,2.0,2.0,425.6374340038746,3.0,1.0,part_1,,,,,,,,,,,,,gray,square
380.0,4.0,4.0,0.0,4.0,4.0,416.9670301489532,3.0,1.0,part_1,,,,,,,,,,,,,green,I
0.0,3.0,0.0,0.0,2.0,2.0,278.5996180027723,3.0,1.0,part_1,,,,,,,,,,,,,orange,flipped triangle
401.0,4.0,4.0,0.0,1.0,1.0,324.1160828620195,3.0,1.0,part_1,,,,,,,,,,,,,green,I
222.0,7.0,3.0,1.0,1.0,1.0,510.6204869225621,3.0,1.0,part_1,,,,,,,,,,,,,magenta,diamond
215.0,7.0,3.0,1.0,2.0,2.0,299.7662499547004,3.0,1.0,part_1,,,,,,,,,,,,,magenta,diamond
184.0,7.0,3.0,1.0,3.0,3.0,289.2412799410522,3.0,1.0,part_1,,,,,,,,,,,,,magenta,diamond
189.0,3.0,3.0,0.0,2.0,2.0,306.4595581963658,3.0,1.0,part_1,,,,,,,,,,,,,orange,flipped triangle
96.0,2.0,2.0,0.0,1.0,1.0,327.5965470820665,3.0,1.0,part_1,,,,,,,,,,,,,blue,cross
109.0,6.0,2.0,1.0,2.0,2.0,300.5121618043631,3.0,1.0,part_1,,,,,,,,,,,,,gray,square
407.0,4.0,4.0,0.0,2.0,2.0,297.8231839369982,3.0,1.0,part_1,,,,,,,,,,,,,green,I
93.0,2.0,2.0,0.0,2.0,2.0,301.7842378467321,3.0,1.0,part_1,,,,,,,,,,,,,blue,cross
82.0,6.0,2.0,1.0,4.0,4.0,642.4524229951203,3.0,1.0,part_1,,,,,,,,,,,,,gray,square
0.0,8.0,0.0,1.0,2.0,2.0,298.2370101381093,3.0,1.0,part_1,,,,,,,,,,,,,cyan,hexagon
35.0,5.0,1.0,1.0,2.0,2.0,285.6627230066806,3.0,1.0,part_1,,,,,,,,,,,,,white,circle
214.0,3.0,3.0,0.0,4.0,4.0,289.0743198804557,3.0,1.0,part_1,,,,,,,,,,,,,orange,flipped triangle
215.0,3.0,3.0,0.0,2.0,2.0,287.2759001329541,3.0,1.0,part_1,,,,,,,,,,,,,orange,flipped triangle
53.0,5.0,1.0,1.0,1.0,1.0,330.2623101044446,3.0,1.0,part_1,,,,,,,,,,,,,white,circle
415.0,8.0,4.0,1.0,4.0,4.0,306.0131040401757,3.0,1.0,part_1,,,,,,,,,,,,,cyan,hexagon
62.0,1.0,1.0,0.0,2.0,2.0,365.6097801867872,3.0,1.0,part_1,,,,,,,,,,,,,yellow,triangle
93.0,2.0,2.0,0.0,1.0,1.0,331.6951000597328,3.0,1.0,part_1,,,,,,,,,,,,,blue,cross
225.0,7.0,3.0,1.0,3.0,3.0,327.1484058350324,3.0,1.0,part_1,,,,,,,,,,,,,magenta,diamond
390.0,4.0,4.0,0.0,1.0,1.0,424.9244609382003,3.0,1.0,part_1,,,,,,,,,,,,,green,I
90.0,2.0,2.0,0.0,4.0,4.0,291.5177289396524,4.0,1.0,part_1,,,,,,,,,,,,,blue,cross
201.0,3.0,3.0,0.0,3.0,3.0,295.5105588771403,4.0,1.0,part_1,,,,,,,,,,,,,orange,flipped triangle
89.0,6.0,2.0,1.0,3.0,3.0,298.6731030978262,4.0,1.0,part_1,,,,,,,,,,,,,gray,square
0.0,8.0,0.0,1.0,2.0,2.0,319.8677019681781,4.0,1.0,part_1,,,,,,,,,,,,,cyan,hexagon
416.0,4.0,4.0,0.0,3.0,3.0,303.8949489127844,4.0,1.0,part_1,,,,,,,,,,,,,green,I
384.0,4.0,4.0,0.0,4.0,4.0,288.8195239938795,4.0,1.0,part_1,,,,,,,,,,,,,green,I
0.0,8.0,0.0,1.0,3.0,3.0,310.8893190510571,4.0,1.0,part_1,,,,,,,,,,,,,cyan,hexagon
47.0,5.0,1.0,1.0,3.0,3.0,281.5468579065054,4.0,1.0,part_1,,,,,,,,,,,,,white,circle
0.0,8.0,0.0,1.0,1.0,1.0,350.439446978271,4.0,1.0,part_1,,,,,,,,,,,,,cyan,hexagon
386.0,8.0,4.0,1.0,1.0,1.0,408.9067350141704,4.0,1.0,part_1,,,,,,,,,,,,,cyan,hexagon
98.0,6.0,2.0,1.0,4.0,4.0,345.9913739934563,4.0,1.0,part_1,,,,,,,,,,,,,gray,square
0.0,1.0,0.0,0.0,4.0,4.0,380.736940074712,4.0,1.0,part_1,,,,,,,,,,,,,yellow,triangle
416.0,4.0,4.0,0.0,1.0,1.0,473.4801109880209,4.0,1.0,part_1,,,,,,,,,,,,,green,I
43.0,5.0,1.0,1.0,2.0,2.0,300.610019126907,4.0,1.0,part_1,,,,,,,,,,,,,white,circle
401.0,8.0,4.0,1.0,3.0,3.0,345.801382092759,4.0,1.0,part_1,,,,,,,,,,,,,cyan,hexagon
0.0,8.0,0.0,1.0,3.0,3.0,408.5349701344967,4.0,1.0,part_1,,,,,,,,,,,,,cyan,hexagon
192.0,7.0,3.0,1.0,1.0,1.0,475.7956271059811,4.0,1.0,part_1,,,,,,,,,,,,,magenta,diamond
409.0,8.0,4.0,1.0,2.0,2.0,295.9835270885378,4.0,1.0,part_1,,,,,,,,,,,,,cyan,hexagon
34.0,5.0,1.0,1.0,2.0,2.0,435.1299831178039,4.0,1.0,part_1,,,,,,,,,,,,,white,circle
115.0,2.0,2.0,0.0,2.0,2.0,316.1363520193845,4.0,1.0,part_1,,,,,,,,,,,,,blue,cross
0.0,6.0,0.0,1.0,1.0,1.0,392.3845181707293,4.0,1.0,part_1,,,,,,,,,,,,,gray,square
416.0,8.0,4.0,1.0,1.0,1.0,409.567496040836,4.0,1.0,part_1,,,,,,,,,,,,,cyan,hexagon
35.0,1.0,1.0,0.0,2.0,2.0,286.0434169415384,4.0,1.0,part_1,,,,,,,,,,,,,yellow,triangle
0.0,6.0,0.0,1.0,4.0,4.0,295.0862250290811,4.0,1.0,part_1,,,,,,,,,,,,,gray,square
106.0,2.0,2.0,0.0,2.0,2.0,295.2156029641628,4.0,1.0,part_1,,,,,,,,,,,,,blue,cross
35.0,1.0,1.0,0.0,3.0,3.0,294.7041599545628,4.0,1.0,part_1,,,,,,,,,,,,,yellow,triangle
0.0,1.0,0.0,0.0,2.0,2.0,465.800415026024,4.0,1.0,part_1,,,,,,,,,,,,,yellow,triangle
53.0,1.0,1.0,0.0,1.0,1.0,311.634651850909,4.0,1.0,part_1,,,,,,,,,,,,,yellow,triangle
400.0,8.0,4.0,1.0,2.0,2.0,365.852853981778,4.0,1.0,part_1,,,,,,,,,,,,,cyan,hexagon
417.0,8.0,4.0,1.0,3.0,3.0,361.3017399329692,4.0,1.0,part_1,,,,,,,,,,,,,cyan,hexagon
184.0,7.0,3.0,1.0,1.0,1.0,276.51556301862,4.0,1.0,part_1,,,,,,,,,,,,,magenta,diamond
221.0,7.0,3.0,1.0,2.0,2.0,499.5557279326021,4.0,1.0,part_1,,,,,,,,,,,,,magenta,diamond
104.0,6.0,2.0,1.0,4.0,4.0,327.0539499353617,4.0,1.0,part_1,,,,,,,,,,,,,gray,square
98.0,2.0,2.0,0.0,1.0,1.0,364.5892948843539,4.0,1.0,part_1,,,,,,,,,,,,,blue,cross
49.0,5.0,1.0,1.0,4.0,4.0,358.5548219271004,4.0,1.0,part_1,,,,,,,,,,,,,white,circle
124.0,6.0,2.0,1.0,1.0,1.0,268.3187441434711,4.0,1.0,part_1,,,,,,,,,,,,,gray,square
189.0,7.0,3.0,1.0,1.0,1.0,330.7041430380195,4.0,1.0,part_1,,,,,,,,,,,,,magenta,diamond
0.0,2.0,0.0,0.0,2.0,2.0,400.2885359805077,4.0,1.0,part_1,,,,,,,,,,,,,blue,cross
69.0,1.0,1.0,0.0,1.0,1.0,378.8950438611209,4.0,1.0,part_1,,,,,,,,,,,,,yellow,triangle
73.0,5.0,1.0,1.0,4.0,4.0,381.8794100079685,4.0,1.0,part_1,,,,,,,,,,,,,white,circle
31.0,5.0,1.0,1.0,1.0,1.0,350.818227045238,4.0,1.0,part_1,,,,,,,,,,,,,white,circle
97.0,6.0,2.0,1.0,4.0,4.0,372.0742200966924,4.0,2.0,part_1,,,,,,,,,,,,,gray,square
213.0,3.0,3.0,0.0,1.0,1.0,482.4023230466991,4.0,1.0,part_1,,,,,,,,,,,,,orange,flipped triangle
415.0,4.0,4.0,0.0,4.0,4.0,433.0359401647001,4.0,1.0,part_1,,,,,,,,,,,,,green,I
417.0,4.0,4.0,0.0,1.0,1.0,299.2465361021459,4.0,1.0,part_1,,,,,,,,,,,,,green,I
104.0,2.0,2.0,0.0,4.0,4.0,278.5708578303456,4.0,1.0,part_1,,,,,,,,,,,,,blue,cross
56.0,1.0,1.0,0.0,2.0,2.0,371.6119099408388,4.0,1.0,part_1,,,,,,,,,,,,,yellow,triangle
94.0,6.0,2.0,1.0,1.0,1.0,306.7541851196438,4.0,1.0,part_1,,,,,,,,,,,,,gray,square
92.0,2.0,2.0,0.0,3.0,3.0,376.14217097871,4.0,1.0,part_1,,,,,,,,,,,,,blue,cross
216.0,3.0,3.0,0.0,3.0,3.0,403.6939621437341,4.0,1.0,part_1,,,,,,,,,,,,,orange,flipped triangle
0.0,6.0,0.0,1.0,4.0,4.0,351.9861279055476,4.0,1.0,part_1,,,,,,,,,,,,,gray,square
377.0,8.0,4.0,1.0,1.0,1.0,378.9071699138731,4.0,1.0,part_1,,,,,,,,,,,,,cyan,hexagon
0.0,3.0,0.0,0.0,1.0,1.0,570.632521994412,4.0,1.0,part_1,,,,,,,,,,,,,orange,flipped triangle
203.0,7.0,3.0,1.0,1.0,1.0,428.8659780286252,4.0,1.0,part_1,,,,,,,,,,,,,magenta,diamond
0.0,6.0,0.0,1.0,4.0,4.0,321.104978909716,4.0,1.0,part_1,,,,,,,,,,,,,gray,square
108.0,6.0,2.0,1.0,3.0,3.0,345.5825659912079,4.0,1.0,part_1,,,,,,,,,,,,,gray,square
38.0,1.0,1.0,0.0,4.0,4.0,475.0718909781426,4.0,1.0,part_1,,,,,,,,,,,,,yellow,triangle
35.0,5.0,1.0,1.0,1.0,1.0,455.1693140529096,4.0,1.0,part_1,,,,,,,,,,,,,white,circle
223.0,7.0,3.0,1.0,1.0,1.0,318.4951830189675,4.0,1.0,part_1,,,,,,,,,,,,,magenta,diamond
79.0,6.0,2.0,1.0,2.0,2.0,466.5275809820741,4.0,1.0,part_1,,,,,,,,,,,,,gray,square
414.0,4.0,4.0,0.0,2.0,2.0,527.4793021380901,4.0,1.0,part_1,,,,,,,,,,,,,green,I
31.0,5.0,1.0,1.0,4.0,4.0,293.9479080960154,4.0,1.0,part_1,,,,,,,,,,,,,white,circle
380.0,8.0,4.0,1.0,4.0,4.0,273.486620048061,4.0,1.0,part_1,,,,,,,,,,,,,cyan,hexagon
384.0,8.0,4.0,1.0,2.0,2.0,308.9721170254051,4.0,1.0,part_1,,,,,,,,,,,,,cyan,hexagon
205.0,7.0,3.0,1.0,4.0,4.0,305.2931770216673,4.0,1.0,part_1,,,,,,,,,,,,,magenta,diamond
74.0,5.0,1.0,1.0,2.0,2.0,261.9283718522638,4.0,1.0,part_1,,,,,,,,,,,,,white,circle
82.0,2.0,2.0,0.0,2.0,2.0,299.4313181843608,4.0,1.0,part_1,,,,,,,,,,,,,blue,cross
0.0,7.0,0.0,1.0,3.0,3.0,616.0232149995863,4.0,1.0,part_1,,,,,,,,,,,,,magenta,diamond
0.0,5.0,0.0,1.0,4.0,4.0,468.6189428903162,4.0,1.0,part_1,,,,,,,,,,,,,white,circle
73.0,1.0,1.0,0.0,4.0,4.0,305.1364189013839,4.0,1.0,part_1,,,,,,,,,,,,,yellow,triangle
384.0,4.0,4.0,0.0,3.0,3.0,336.1174929887056,4.0,1.0,part_1,,,,,,,,,,,,,green,I
0.0,2.0,0.0,0.0,3.0,3.0,449.5030930265784,4.0,1.0,part_1,,,,,,,,,,,,,blue,cross
400.0,4.0,4.0,0.0,1.0,1.0,270.4171168152243,4.0,1.0,part_1,,,,,,,,,,,,,green,I
189.0,7.0,3.0,1.0,4.0,4.0,339.8080219049006,4.0,1.0,part_1,,,,,,,,,,,,,magenta,diamond
123.0,6.0,2.0,1.0,4.0,4.0,408.5407929960638,4.0,1.0,part_1,,,,,,,,,,,,,gray,square
119.0,6.0,2.0,1.0,1.0,1.0,421.8734891619533,4.0,1.0,part_1,,,,,,,,,,,,,gray,square
203.0,3.0,3.0,0.0,4.0,4.0,299.1828338708728,4.0,1.0,part_1,,,,,,,,,,,,,orange,flipped triangle
0.0,7.0,0.0,1.0,2.0,2.0,424.39606902189547,4.0,1.0,part_1,,,,,,,,,,,,,magenta,diamond
0.0,8.0,0.0,1.0,2.0,2.0,330.3297720849514,4.0,1.0,part_1,,,,,,,,,,,,,cyan,hexagon
423.0,8.0,4.0,1.0,4.0,4.0,303.8076439406723,4.0,1.0,part_1,,,,,,,,,,,,,cyan,hexagon
38.0,5.0,1.0,1.0,1.0,1.0,307.436770061031,4.0,1.0,part_1,,,,,,,,,,,,,white,circle
193.0,3.0,3.0,0.0,1.0,1.0,322.2467240411788,4.0,1.0,part_1,,,,,,,,,,,,,orange,flipped triangle
0.0,4.0,0.0,0.0,2.0,2.0,300.7197980768978,4.0,1.0,part_1,,,,,,,,,,,,,green,I
78.0,2.0,2.0,0.0,1.0,1.0,385.8406299259513,4.0,1.0,part_1,,,,,,,,,,,,,blue,cross
384.0,8.0,4.0,1.0,1.0,1.0,298.9090611226856,4.0,1.0,part_1,,,,,,,,,,,,,cyan,hexagon
53.0,1.0,1.0,0.0,1.0,1.0,348.2021121308207,4.0,1.0,part_1,,,,,,,,,,,,,yellow,triangle
122.0,2.0,2.0,0.0,1.0,1.0,313.8090958818793,4.0,1.0,part_1,,,,,,,,,,,,,blue,cross
74.0,1.0,1.0,0.0,1.0,1.0,278.4058689139783,4.0,1.0,part_1,,,,,,,,,,,,,yellow,triangle
178.0,3.0,3.0,0.0,1.0,1.0,320.9936409257352,4.0,1.0,part_1,,,,,,,,,,,,,orange,flipped triangle
377.0,4.0,4.0,0.0,3.0,3.0,383.0156920012086,4.0,1.0,part_1,,,,,,,,,,,,,green,I
115.0,6.0,2.0,1.0,3.0,3.0,333.8770880363881,4.0,1.0,part_1,,,,,,,,,,,,,gray,square
387.0,8.0,4.0,1.0,1.0,1.0,314.3725430127233,4.0,1.0,part_1,,,,,,,,,,,,,cyan,hexagon
67.0,5.0,1.0,1.0,4.0,4.0,681.8520249798894,4.0,2.0,part_1,,,,,,,,,,,,,white,circle
0.0,6.0,0.0,1.0,3.0,3.0,372.3750219214707,4.0,1.0,part_1,,,,,,,,,,,,,gray,square
0.0,2.0,0.0,0.0,3.0,3.0,313.8150449376553,4.0,1.0,part_1,,,,,,,,,,,,,blue,cross
87.0,6.0,2.0,1.0,2.0,2.0,334.2661361675709,4.0,1.0,part_1,,,,,,,,,,,,,gray,square
91.0,6.0,2.0,1.0,4.0,4.0,379.441985161975,4.0,1.0,part_1,,,,,,,,,,,,,gray,square
406.0,4.0,4.0,0.0,3.0,3.0,299.3428779300302,4.0,1.0,part_1,,,,,,,,,,,,,green,I
101.0,2.0,2.0,0.0,4.0,4.0,454.430968966335,4.0,1.0,part_1,,,,,,,,,,,,,blue,cross
190.0,3.0,3.0,0.0,4.0,4.0,384.6239999402314,4.0,1.0,part_1,,,,,,,,,,,,,orange,flipped triangle
0.0,6.0,2.0,1.0,6.0,6.0,512.4901609960943,1.0,0.0,part_2,stop,250.0,250.0,3.0,,,,,,,,,gray,square
0.0,1.0,1.0,0.0,5.0,5.0,329.5860958751291,1.0,0.0,part_2,go,250.0,200.0,1.0,,,,,,,,,yellow,triangle
0.0,1.0,1.0,0.0,5.0,5.0,582.6737999450415,1.0,0.0,part_2,go,250.0,200.0,1.0,,,,,,,,,yellow,triangle
0.0,7.0,3.0,1.0,6.0,0.0,0.0,1.0,0.0,part_2,stop,250.0,200.0,4.0,,,,,,,,,magenta,diamond
0.0,8.0,4.0,1.0,5.0,5.0,513.4509610943496,1.0,0.0,part_2,stop,250.0,250.0,3.0,,,,,,,,,cyan,hexagon
0.0,8.0,4.0,1.0,6.0,6.0,519.9179179035127,1.0,0.0,part_2,go,200.0,250.0,1.0,,,,,,,,,cyan,hexagon
0.0,2.0,2.0,0.0,6.0,6.0,631.6404431127012,1.0,0.0,part_2,go,200.0,250.0,1.0,,,,,,,,,blue,cross
0.0,6.0,2.0,1.0,5.0,0.0,0.0,1.0,0.0,part_2,stop,200.0,250.0,4.0,,,,,,,,,gray,square
0.0,4.0,4.0,0.0,6.0,6.0,541.8390189297497,1.0,0.0,part_2,go,250.0,250.0,1.0,,,,,,,,,green,I
0.0,5.0,1.0,1.0,6.0,0.0,0.0,1.0,0.0,part_2,stop,250.0,250.0,4.0,,,,,,,,,white,circle
0.0,5.0,1.0,1.0,5.0,0.0,0.0,1.0,0.0,part_2,stop,250.0,300.0,4.0,,,,,,,,,white,circle
0.0,6.0,2.0,1.0,6.0,0.0,0.0,1.0,0.0,part_2,stop,300.0,300.0,4.0,,,,,,,,,gray,square
0.0,4.0,4.0,0.0,5.0,5.0,448.7681651953608,1.0,0.0,part_2,go,300.0,350.0,1.0,,,,,,,,,green,I
0.0,8.0,4.0,1.0,5.0,0.0,0.0,1.0,0.0,part_2,stop,300.0,350.0,4.0,,,,,,,,,cyan,hexagon
0.0,8.0,4.0,1.0,6.0,6.0,337.825319962576,1.0,0.0,part_2,go,350.0,350.0,1.0,,,,,,,,,cyan,hexagon
0.0,1.0,1.0,0.0,6.0,6.0,583.6259848438203,1.0,0.0,part_2,go,350.0,350.0,1.0,,,,,,,,,yellow,triangle
0.0,7.0,3.0,1.0,5.0,0.0,0.0,1.0,0.0,part_2,stop,350.0,350.0,4.0,,,,,,,,,magenta,diamond
0.0,3.0,3.0,0.0,5.0,5.0,591.4049360435456,1.0,0.0,part_2,go,400.0,350.0,1.0,,,,,,,,,orange,flipped triangle
0.0,1.0,1.0,0.0,5.0,5.0,429.823312908411,1.0,0.0,part_2,go,400.0,350.0,1.0,,,,,,,,,yellow,triangle
0.0,4.0,4.0,0.0,6.0,6.0,544.1271460149437,1.0,0.0,part_2,go,400.0,350.0,1.0,,,,,,,,,green,I
0.0,6.0,2.0,1.0,5.0,0.0,0.0,1.0,0.0,part_2,stop,400.0,350.0,4.0,,,,,,,,,gray,square
0.0,5.0,1.0,1.0,5.0,0.0,0.0,1.0,0.0,part_2,stop,450.0,350.0,4.0,,,,,,,,,white,circle
0.0,7.0,3.0,1.0,5.0,0.0,0.0,1.0,0.0,part_2,stop,500.0,350.0,4.0,,,,,,,,,magenta,diamond
0.0,1.0,1.0,0.0,6.0,6.0,677.8067029081285,1.0,0.0,part_2,go,550.0,350.0,1.0,,,,,,,,,yellow,triangle
0.0,4.0,4.0,0.0,6.0,6.0,702.2743590641767,1.0,0.0,part_2,go,550.0,350.0,1.0,,,,,,,,,green,I
0.0,8.0,4.0,1.0,5.0,5.0,572.2461929544806,1.0,0.0,part_2,stop,550.0,350.0,3.0,,,,,,,,,cyan,hexagon
0.0,7.0,3.0,1.0,5.0,0.0,0.0,1.0,0.0,part_2,stop,500.0,350.0,4.0,,,,,,,,,magenta,diamond
0.0,5.0,1.0,1.0,5.0,5.0,748.0991350021213,1.0,0.0,part_2,go,550.0,350.0,1.0,,,,,,,,,white,circle
0.0,1.0,1.0,0.0,5.0,5.0,387.9171481821686,1.0,0.0,part_2,go,550.0,350.0,1.0,,,,,,,,,yellow,triangle
0.0,6.0,2.0,1.0,6.0,6.0,699.3203440215439,1.0,0.0,part_2,go,550.0,350.0,1.0,,,,,,,,,gray,square
0.0,7.0,3.0,1.0,6.0,6.0,794.4985369686037,1.0,0.0,part_2,go,550.0,350.0,1.0,,,,,,,,,magenta,diamond
0.0,6.0,2.0,1.0,5.0,5.0,512.2321699745953,1.0,0.0,part_2,stop,550.0,350.0,3.0,,,,,,,,,gray,square
0.0,4.0,4.0,0.0,6.0,6.0,671.6638437937945,1.0,0.0,part_2,go,500.0,350.0,1.0,,,,,,,,,green,I
0.0,7.0,3.0,1.0,5.0,0.0,0.0,1.0,0.0,part_2,stop,500.0,350.0,4.0,,,,,,,,,magenta,diamond
0.0,2.0,2.0,0.0,5.0,5.0,709.2166300863028,1.0,0.0,part_2,go,550.0,350.0,1.0,,,,,,,,,blue,cross
0.0,6.0,2.0,1.0,6.0,0.0,0.0,1.0,0.0,part_2,stop,550.0,350.0,4.0,,,,,,,,,gray,square
0.0,6.0,2.0,1.0,5.0,0.0,0.0,2.0,0.0,part_2,go,550.0,400.0,5.0,,,,,,,,,gray,square
0.0,8.0,4.0,1.0,6.0,0.0,0.0,2.0,0.0,part_2,stop,550.0,400.0,4.0,,,,,,,,,cyan,hexagon
0.0,3.0,3.0,0.0,5.0,5.0,400.6363821681589,2.0,0.0,part_2,go,550.0,450.0,1.0,,,,,,,,,orange,flipped triangle
0.0,1.0,1.0,0.0,6.0,6.0,312.9039860796183,2.0,0.0,part_2,go,550.0,450.0,1.0,,,,,,,,,yellow,triangle
0.0,7.0,3.0,1.0,6.0,0.0,0.0,2.0,0.0,part_2,stop,550.0,450.0,4.0,,,,,,,,,magenta,diamond
0.0,8.0,4.0,1.0,6.0,6.0,664.7230449598283,2.0,0.0,part_2,stop,550.0,500.0,3.0,,,,,,,,,cyan,hexagon
0.0,7.0,3.0,1.0,5.0,0.0,0.0,2.0,0.0,part_2,stop,550.0,450.0,4.0,,,,,,,,,magenta,diamond
0.0,1.0,1.0,0.0,5.0,5.0,637.6508930698037,2.0,0.0,part_2,go,600.0,450.0,1.0,,,,,,,,,yellow,triangle
0.0,3.0,3.0,0.0,5.0,5.0,944.1337620373816,2.0,0.0,part_2,go,600.0,450.0,1.0,,,,,,,,,orange,flipped triangle
0.0,7.0,3.0,1.0,6.0,6.0,648.582941154018,2.0,0.0,part_2,go,600.0,450.0,1.0,,,,,,,,,magenta,diamond
0.0,6.0,2.0,1.0,5.0,0.0,0.0,2.0,0.0,part_2,stop,600.0,450.0,4.0,,,,,,,,,gray,square
0.0,7.0,3.0,1.0,5.0,5.0,695.5945938825607,2.0,0.0,part_2,stop,650.0,450.0,3.0,,,,,,,,,magenta,diamond
0.0,1.0,1.0,0.0,6.0,6.0,837.6423220615834,2.0,0.0,part_2,go,600.0,450.0,1.0,,,,,,,,,yellow,triangle
0.0,5.0,1.0,1.0,6.0,0.0,0.0,2.0,0.0,part_2,stop,600.0,450.0,4.0,,,,,,,,,white,circle
0.0,2.0,2.0,0.0,5.0,5.0,1129.7167660668492,2.0,0.0,part_2,go,600.0,500.0,1.0,,,,,,,,,blue,cross
0.0,8.0,4.0,1.0,5.0,0.0,0.0,2.0,0.0,part_2,stop,600.0,500.0,4.0,,,,,,,,,cyan,hexagon
0.0,4.0,4.0,0.0,6.0,6.0,732.2815270163119,2.0,0.0,part_2,go,650.0,500.0,1.0,,,,,,,,,green,I
0.0,7.0,3.0,1.0,6.0,0.0,0.0,2.0,0.0,part_2,stop,650.0,500.0,4.0,,,,,,,,,magenta,diamond
0.0,5.0,1.0,1.0,5.0,0.0,0.0,2.0,0.0,part_2,stop,650.0,550.0,4.0,,,,,,,,,white,circle
0.0,7.0,3.0,1.0,5.0,5.0,759.1779381036758,2.0,0.0,part_2,stop,700.0,550.0,3.0,,,,,,,,,magenta,diamond
0.0,8.0,4.0,1.0,5.0,0.0,0.0,2.0,0.0,part_2,go,650.0,550.0,5.0,,,,,,,,,cyan,hexagon
0.0,1.0,1.0,0.0,5.0,5.0,1045.7606909330934,2.0,0.0,part_2,go,650.0,550.0,1.0,,,,,,,,,yellow,triangle
0.0,5.0,1.0,1.0,6.0,6.0,441.7376769706607,2.0,0.0,part_2,stop,650.0,550.0,3.0,,,,,,,,,white,circle
0.0,2.0,2.0,0.0,6.0,6.0,1132.704314077273,2.0,0.0,part_2,go,650.0,500.0,1.0,,,,,,,,,blue,cross
0.0,2.0,2.0,0.0,6.0,6.0,276.250259950757,2.0,0.0,part_2,go,650.0,500.0,1.0,,,,,,,,,blue,cross
0.0,5.0,1.0,1.0,6.0,0.0,0.0,2.0,0.0,part_2,stop,650.0,500.0,4.0,,,,,,,,,white,circle
0.0,7.0,3.0,1.0,5.0,5.0,877.170227933675,2.0,0.0,part_2,go,650.0,550.0,1.0,,,,,,,,,magenta,diamond
0.0,2.0,2.0,0.0,5.0,5.0,517.2248058952391,2.0,0.0,part_2,go,650.0,550.0,1.0,,,,,,,,,blue,cross
0.0,5.0,1.0,1.0,6.0,6.0,396.0730039980262,2.0,0.0,part_2,stop,650.0,550.0,3.0,,,,,,,,,white,circle
0.0,2.0,2.0,0.0,6.0,6.0,1353.4079410601407,2.0,0.0,part_2,go,650.0,500.0,1.0,,,,,,,,,blue,cross
0.0,3.0,3.0,0.0,5.0,5.0,521.8501500785351,2.0,0.0,part_2,go,650.0,500.0,1.0,,,,,,,,,orange,flipped triangle
0.0,6.0,2.0,1.0,5.0,5.0,523.1888308189809,2.0,0.0,part_2,stop,650.0,500.0,3.0,,,,,,,,,gray,square
0.0,6.0,2.0,1.0,6.0,0.0,0.0,2.0,0.0,part_2,stop,600.0,500.0,4.0,,,,,,,,,gray,square
0.0,1.0,1.0,0.0,6.0,6.0,1033.5147199220955,2.0,0.0,part_2,go,600.0,550.0,1.0,,,,,,,,,yellow,triangle
0.0,1.0,1.0,0.0,5.0,5.0,1057.591964956373,2.0,0.0,part_2,go,600.0,550.0,1.0,,,,,,,,,yellow,triangle
0.0,4.0,4.0,0.0,5.0,5.0,727.8484720736742,2.0,0.0,part_2,go,600.0,550.0,1.0,,,,,,,,,green,I
0.0,3.0,3.0,0.0,5.0,5.0,1229.2816259432584,3.0,0.0,part_2,go,600.0,550.0,1.0,,,,,,,,,orange,flipped triangle
0.0,3.0,3.0,0.0,6.0,6.0,335.743956035003,3.0,0.0,part_2,go,600.0,550.0,1.0,,,,,,,,,orange,flipped triangle
0.0,8.0,4.0,1.0,5.0,5.0,367.2156180255115,3.0,0.0,part_2,go,600.0,550.0,1.0,,,,,,,,,cyan,hexagon
0.0,5.0,1.0,1.0,5.0,5.0,727.0417439285666,3.0,0.0,part_2,go,600.0,550.0,1.0,,,,,,,,,white,circle
0.0,8.0,4.0,1.0,6.0,6.0,678.2651159446687,3.0,0.0,part_2,stop,600.0,550.0,3.0,,,,,,,,,cyan,hexagon
0.0,3.0,3.0,0.0,6.0,6.0,509.3551620375365,3.0,0.0,part_2,go,600.0,500.0,1.0,,,,,,,,,orange,flipped triangle
0.0,5.0,1.0,1.0,5.0,5.0,664.9433628190309,3.0,0.0,part_2,stop,600.0,500.0,3.0,,,,,,,,,white,circle
0.0,3.0,3.0,0.0,5.0,5.0,651.6996009740978,3.0,0.0,part_2,go,550.0,500.0,1.0,,,,,,,,,orange,flipped triangle
0.0,5.0,1.0,1.0,5.0,5.0,570.9977818187326,3.0,0.0,part_2,stop,550.0,500.0,3.0,,,,,,,,,white,circle
0.0,8.0,4.0,1.0,5.0,0.0,0.0,3.0,0.0,part_2,stop,500.0,500.0,4.0,,,,,,,,,cyan,hexagon
0.0,3.0,3.0,0.0,5.0,5.0,689.9176810402423,3.0,0.0,part_2,go,550.0,500.0,1.0,,,,,,,,,orange,flipped triangle
0.0,8.0,4.0,1.0,5.0,0.0,0.0,3.0,0.0,part_2,stop,550.0,500.0,4.0,,,,,,,,,cyan,hexagon
0.0,4.0,4.0,0.0,5.0,5.0,480.1034138072282,3.0,0.0,part_2,go,600.0,500.0,1.0,,,,,,,,,green,I
0.0,8.0,4.0,1.0,5.0,5.0,1157.5894670095297,3.0,0.0,part_2,stop,600.0,500.0,3.0,,,,,,,,,cyan,hexagon
0.0,8.0,4.0,1.0,6.0,0.0,0.0,3.0,0.0,part_2,stop,550.0,500.0,4.0,,,,,,,,,cyan,hexagon
0.0,2.0,2.0,0.0,5.0,5.0,1268.4693599585444,3.0,0.0,part_2,go,550.0,550.0,1.0,,,,,,,,,blue,cross
0.0,3.0,3.0,0.0,5.0,0.0,0.0,3.0,0.0,part_2,go,550.0,550.0,5.0,,,,,,,,,orange,flipped triangle
0.0,2.0,2.0,0.0,6.0,6.0,620.4942499753088,3.0,0.0,part_2,go,550.0,550.0,1.0,,,,,,,,,blue,cross
0.0,2.0,2.0,0.0,5.0,5.0,435.1274501532316,3.0,0.0,part_2,go,550.0,550.0,1.0,,,,,,,,,blue,cross
0.0,2.0,2.0,0.0,5.0,5.0,388.4857611265033,3.0,0.0,part_2,go,550.0,550.0,1.0,,,,,,,,,blue,cross
0.0,4.0,4.0,0.0,5.0,5.0,682.0567138493061,3.0,0.0,part_2,go,550.0,550.0,1.0,,,,,,,,,green,I
0.0,3.0,3.0,0.0,5.0,5.0,649.6630981564522,3.0,0.0,part_2,go,550.0,550.0,1.0,,,,,,,,,orange,flipped triangle
0.0,7.0,3.0,1.0,5.0,5.0,1128.3175100106746,3.0,0.0,part_2,go,550.0,550.0,1.0,,,,,,,,,magenta,diamond
0.0,1.0,1.0,0.0,5.0,5.0,810.7620999217033,3.0,0.0,part_2,go,550.0,550.0,1.0,,,,,,,,,yellow,triangle
0.0,8.0,4.0,1.0,6.0,0.0,0.0,3.0,0.0,part_2,stop,550.0,550.0,4.0,,,,,,,,,cyan,hexagon
0.0,5.0,1.0,1.0,5.0,0.0,0.0,3.0,0.0,part_2,stop,550.0,600.0,4.0,,,,,,,,,white,circle
0.0,4.0,4.0,0.0,6.0,6.0,656.5567851066589,3.0,0.0,part_2,go,600.0,600.0,1.0,,,,,,,,,green,I
0.0,6.0,2.0,1.0,5.0,0.0,0.0,3.0,0.0,part_2,stop,600.0,600.0,4.0,,,,,,,,,gray,square
0.0,3.0,3.0,0.0,5.0,5.0,1125.425203004852,3.0,0.0,part_2,go,650.0,600.0,1.0,,,,,,,,,orange,flipped triangle
0.0,3.0,3.0,0.0,6.0,6.0,806.8931680172682,3.0,0.0,part_2,go,650.0,600.0,1.0,,,,,,,,,orange,flipped triangle
0.0,4.0,4.0,0.0,6.0,6.0,812.1946579776704,3.0,0.0,part_2,go,650.0,600.0,1.0,,,,,,,,,green,I
0.0,4.0,4.0,0.0,5.0,5.0,1021.4274739846587,3.0,0.0,part_2,go,650.0,600.0,1.0,,,,,,,,,green,I
0.0,8.0,4.0,1.0,6.0,6.0,355.8907271362841,3.0,0.0,part_2,stop,650.0,600.0,3.0,,,,,,,,,cyan,hexagon
0.0,5.0,1.0,1.0,5.0,5.0,846.0967061109841,3.0,0.0,part_2,go,650.0,550.0,1.0,,,,,,,,,white,circle
0.0,1.0,1.0,0.0,5.0,5.0,492.7534440066665,3.0,0.0,part_2,go,650.0,550.0,1.0,,,,,,,,,yellow,triangle
0.0,1.0,1.0,0.0,6.0,6.0,459.4403279479593,3.0,0.0,part_2,go,650.0,550.0,1.0,,,,,,,,,yellow,triangle
0.0,6.0,2.0,1.0,5.0,5.0,686.8387190625072,4.0,0.0,part_2,stop,650.0,550.0,3.0,,,,,,,,,gray,square
0.0,6.0,2.0,1.0,5.0,5.0,405.8249259833246,4.0,0.0,part_2,stop,600.0,550.0,3.0,,,,,,,,,gray,square
0.0,6.0,2.0,1.0,5.0,5.0,455.1145920995623,4.0,0.0,part_2,stop,550.0,550.0,3.0,,,,,,,,,gray,square
0.0,3.0,3.0,0.0,6.0,6.0,660.8135490678251,4.0,0.0,part_2,go,500.0,550.0,1.0,,,,,,,,,orange,flipped triangle
0.0,3.0,3.0,0.0,6.0,6.0,597.0291479025036,4.0,0.0,part_2,go,500.0,550.0,1.0,,,,,,,,,orange,flipped triangle
0.0,2.0,2.0,0.0,6.0,6.0,547.0798250753433,4.0,0.0,part_2,go,500.0,550.0,1.0,,,,,,,,,blue,cross
0.0,8.0,4.0,1.0,5.0,5.0,745.1559379696846,4.0,0.0,part_2,go,500.0,550.0,1.0,,,,,,,,,cyan,hexagon
0.0,4.0,4.0,0.0,5.0,5.0,632.2853299789131,4.0,0.0,part_2,go,500.0,550.0,1.0,,,,,,,,,green,I
0.0,7.0,3.0,1.0,6.0,6.0,512.2378510423005,4.0,0.0,part_2,stop,500.0,550.0,3.0,,,,,,,,,magenta,diamond
0.0,7.0,3.0,1.0,6.0,6.0,919.3998661357908,4.0,0.0,part_2,go,500.0,500.0,1.0,,,,,,,,,magenta,diamond
0.0,3.0,3.0,0.0,5.0,5.0,442.7502569742501,4.0,0.0,part_2,go,500.0,500.0,1.0,,,,,,,,,orange,flipped triangle
0.0,1.0,1.0,0.0,5.0,5.0,550.1509909518063,4.0,0.0,part_2,go,500.0,500.0,1.0,,,,,,,,,yellow,triangle
0.0,8.0,4.0,1.0,6.0,6.0,437.9386841319501,4.0,0.0,part_2,stop,500.0,500.0,3.0,,,,,,,,,cyan,hexagon
0.0,7.0,3.0,1.0,6.0,0.0,0.0,4.0,0.0,part_2,stop,500.0,450.0,4.0,,,,,,,,,magenta,diamond
0.0,6.0,2.0,1.0,6.0,6.0,572.8587647899985,4.0,0.0,part_2,stop,500.0,500.0,3.0,,,,,,,,,gray,square
0.0,2.0,2.0,0.0,6.0,6.0,734.5454408787191,4.0,0.0,part_2,go,500.0,450.0,1.0,,,,,,,,,blue,cross
0.0,7.0,3.0,1.0,5.0,5.0,428.2316360622644,4.0,0.0,part_2,go,500.0,450.0,1.0,,,,,,,,,magenta,diamond
0.0,1.0,1.0,0.0,6.0,6.0,323.4976350795477,4.0,0.0,part_2,go,500.0,450.0,1.0,,,,,,,,,yellow,triangle
0.0,6.0,2.0,1.0,5.0,0.0,0.0,4.0,0.0,part_2,stop,500.0,450.0,4.0,,,,,,,,,gray,square
0.0,3.0,3.0,0.0,6.0,6.0,940.6129859853536,4.0,0.0,part_2,go,550.0,450.0,1.0,,,,,,,,,orange,flipped triangle
0.0,3.0,3.0,0.0,5.0,5.0,920.9334009792656,4.0,0.0,part_2,go,550.0,450.0,1.0,,,,,,,,,orange,flipped triangle
0.0,5.0,1.0,1.0,6.0,6.0,482.8759629745036,4.0,0.0,part_2,stop,550.0,450.0,3.0,,,,,,,,,white,circle
0.0,3.0,3.0,0.0,5.0,5.0,363.7759489938617,4.0,0.0,part_2,go,550.0,400.0,1.0,,,,,,,,,orange,flipped triangle
0.0,1.0,1.0,0.0,6.0,6.0,409.3557929154485,4.0,0.0,part_2,go,550.0,400.0,1.0,,,,,,,,,yellow,triangle
0.0,3.0,3.0,0.0,6.0,6.0,690.6322129070759,4.0,0.0,part_2,go,550.0,400.0,1.0,,,,,,,,,orange,flipped triangle
0.0,5.0,1.0,1.0,6.0,0.0,0.0,4.0,0.0,part_2,stop,550.0,400.0,4.0,,,,,,,,,white,circle
0.0,1.0,1.0,0.0,6.0,6.0,1120.8233360666782,4.0,0.0,part_2,go,550.0,450.0,1.0,,,,,,,,,yellow,triangle
0.0,7.0,3.0,1.0,6.0,0.0,0.0,4.0,0.0,part_2,stop,550.0,450.0,4.0,,,,,,,,,magenta,diamond
0.0,7.0,3.0,1.0,6.0,6.0,853.6104920785874,4.0,0.0,part_2,go,550.0,500.0,1.0,,,,,,,,,magenta,diamond
0.0,6.0,2.0,1.0,6.0,6.0,596.0744628682733,4.0,0.0,part_2,stop,550.0,500.0,3.0,,,,,,,,,gray,square
0.0,8.0,4.0,1.0,5.0,0.0,0.0,4.0,0.0,part_2,stop,550.0,450.0,4.0,,,,,,,,,cyan,hexagon
0.0,6.0,2.0,1.0,6.0,0.0,0.0,4.0,0.0,part_2,stop,600.0,450.0,4.0,,,,,,,,,gray,square
0.0,5.0,1.0,1.0,5.0,5.0,482.2942879982292,4.0,0.0,part_2,go,600.0,500.0,1.0,,,,,,,,,white,circle
0.0,4.0,4.0,0.0,5.0,5.0,459.7823331132531,4.0,0.0,part_2,go,600.0,500.0,1.0,,,,,,,,,green,I
0.0,8.0,4.0,1.0,5.0,5.0,587.7095710020512,4.0,0.0,part_2,stop,600.0,500.0,3.0,,,,,,,,,cyan,hexagon
0.0,5.0,1.0,1.0,6.0,0.0,0.0,4.0,0.0,part_2,stop,550.0,500.0,4.0,,,,,,,,,white,circle
0.0,3.0,3.0,0.0,5.0,5.0,1469.3901629652828,5.0,0.0,part_2,go,550.0,550.0,1.0,,,,,,,,,orange,flipped triangle
0.0,8.0,4.0,1.0,5.0,5.0,612.2462200000882,5.0,0.0,part_2,stop,550.0,550.0,3.0,,,,,,,,,cyan,hexagon
0.0,2.0,2.0,0.0,5.0,5.0,419.1672680899501,5.0,0.0,part_2,go,500.0,550.0,1.0,,,,,,,,,blue,cross
0.0,4.0,4.0,0.0,5.0,5.0,484.1751588974148,5.0,0.0,part_2,go,500.0,550.0,1.0,,,,,,,,,green,I
0.0,5.0,1.0,1.0,5.0,5.0,449.7603650670498,5.0,0.0,part_2,stop,500.0,550.0,3.0,,,,,,,,,white,circle
0.0,6.0,2.0,1.0,5.0,5.0,737.4866721220315,5.0,0.0,part_2,go,450.0,550.0,1.0,,,,,,,,,gray,square
0.0,4.0,4.0,0.0,6.0,6.0,783.3129449281842,5.0,0.0,part_2,go,450.0,550.0,1.0,,,,,,,,,green,I
0.0,7.0,3.0,1.0,5.0,5.0,397.9465700685978,5.0,0.0,part_2,stop,450.0,550.0,3.0,,,,,,,,,magenta,diamond
0.0,7.0,3.0,1.0,6.0,0.0,0.0,5.0,0.0,part_2,stop,400.0,550.0,4.0,,,,,,,,,magenta,diamond
0.0,4.0,4.0,0.0,5.0,5.0,885.5793350376189,5.0,0.0,part_2,go,400.0,600.0,1.0,,,,,,,,,green,I
0.0,4.0,4.0,0.0,6.0,6.0,780.2421390078962,5.0,0.0,part_2,go,400.0,600.0,1.0,,,,,,,,,green,I
0.0,4.0,4.0,0.0,5.0,5.0,747.7076770737767,5.0,0.0,part_2,go,400.0,600.0,1.0,,,,,,,,,green,I
0.0,2.0,2.0,0.0,5.0,5.0,468.1538280565291,5.0,0.0,part_2,go,400.0,600.0,1.0,,,,,,,,,blue,cross
0.0,2.0,2.0,0.0,5.0,5.0,509.3120529782027,5.0,0.0,part_2,go,400.0,600.0,1.0,,,,,,,,,blue,cross
0.0,5.0,1.0,1.0,6.0,6.0,626.7082327976823,5.0,0.0,part_2,stop,400.0,600.0,3.0,,,,,,,,,white,circle
0.0,8.0,4.0,1.0,6.0,0.0,0.0,5.0,0.0,part_2,stop,400.0,550.0,4.0,,,,,,,,,cyan,hexagon
0.0,1.0,1.0,0.0,6.0,6.0,964.931588154286,5.0,0.0,part_2,go,400.0,600.0,1.0,,,,,,,,,yellow,triangle
0.0,2.0,2.0,0.0,5.0,5.0,755.1931289490312,5.0,0.0,part_2,go,400.0,600.0,1.0,,,,,,,,,blue,cross
0.0,4.0,4.0,0.0,6.0,6.0,490.2114239521324,5.0,0.0,part_2,go,400.0,600.0,1.0,,,,,,,,,green,I
0.0,2.0,2.0,0.0,6.0,6.0,496.9234860036522,5.0,0.0,part_2,go,400.0,600.0,1.0,,,,,,,,,blue,cross
0.0,4.0,4.0,0.0,5.0,5.0,418.1691510602832,5.0,0.0,part_2,go,400.0,600.0,1.0,,,,,,,,,green,I
0.0,8.0,4.0,1.0,6.0,6.0,952.0132360048592,5.0,0.0,part_2,go,400.0,600.0,1.0,,,,,,,,,cyan,hexagon
0.0,6.0,2.0,1.0,6.0,0.0,0.0,5.0,0.0,part_2,stop,400.0,600.0,4.0,,,,,,,,,gray,square
0.0,4.0,4.0,0.0,5.0,5.0,999.0522919688374,5.0,0.0,part_2,go,400.0,650.0,1.0,,,,,,,,,green,I
0.0,5.0,1.0,1.0,6.0,0.0,0.0,5.0,0.0,part_2,stop,400.0,650.0,4.0,,,,,,,,,white,circle
0.0,4.0,4.0,0.0,6.0,6.0,966.440990101546,5.0,0.0,part_2,go,400.0,700.0,1.0,,,,,,,,,green,I
0.0,8.0,4.0,1.0,6.0,0.0,0.0,5.0,0.0,part_2,stop,400.0,700.0,4.0,,,,,,,,,cyan,hexagon
0.0,2.0,2.0,0.0,5.0,5.0,726.4185550156981,5.0,0.0,part_2,go,400.0,750.0,1.0,,,,,,,,,blue,cross
0.0,4.0,4.0,0.0,6.0,6.0,614.1232170630246,5.0,0.0,part_2,go,400.0,750.0,1.0,,,,,,,,,green,I
0.0,8.0,4.0,1.0,5.0,5.0,507.9572410322726,5.0,0.0,part_2,go,400.0,750.0,1.0,,,,,,,,,cyan,hexagon
0.0,5.0,1.0,1.0,5.0,5.0,681.2280900776386,5.0,0.0,part_2,go,400.0,750.0,1.0,,,,,,,,,white,circle
0.0,4.0,4.0,0.0,5.0,5.0,658.3734669256955,5.0,0.0,part_2,go,400.0,750.0,1.0,,,,,,,,,green,I
0.0,4.0,4.0,0.0,5.0,5.0,409.0788878966123,5.0,0.0,part_2,go,400.0,750.0,1.0,,,,,,,,,green,I
0.0,3.0,3.0,0.0,6.0,6.0,810.694393934682,5.0,0.0,part_2,go,400.0,750.0,1.0,,,,,,,,,orange,flipped triangle
0.0,4.0,4.0,0.0,6.0,6.0,545.8452538587153,5.0,0.0,part_2,go,400.0,750.0,1.0,,,,,,,,,green,I
0.0,2.0,2.0,0.0,6.0,6.0,1000.2069189213216,5.0,0.0,part_2,go,400.0,750.0,1.0,,,,,,,,,blue,cross
0.0,6.0,2.0,1.0,5.0,5.0,659.4692319631577,6.0,0.0,part_2,stop,400.0,750.0,3.0,,,,,,,,,gray,square
0.0,8.0,4.0,1.0,5.0,5.0,375.2904741559177,6.0,0.0,part_2,stop,350.0,750.0,3.0,,,,,,,,,cyan,hexagon
0.0,5.0,1.0,1.0,6.0,6.0,315.5656449962407,6.0,0.0,part_2,go,300.0,750.0,1.0,,,,,,,,,white,circle
0.0,3.0,3.0,0.0,6.0,6.0,369.2780591081828,6.0,0.0,part_2,go,300.0,750.0,1.0,,,,,,,,,orange,flipped triangle
0.0,1.0,1.0,0.0,6.0,6.0,289.8899458814412,6.0,0.0,part_2,go,300.0,750.0,1.0,,,,,,,,,yellow,triangle
0.0,7.0,3.0,1.0,5.0,5.0,338.827715953812,6.0,0.0,part_2,stop,300.0,750.0,3.0,,,,,,,,,magenta,diamond
0.0,4.0,4.0,0.0,6.0,6.0,346.9057148322463,6.0,0.0,part_2,go,250.0,750.0,1.0,,,,,,,,,green,I
0.0,3.0,3.0,0.0,6.0,6.0,296.8534170649946,6.0,0.0,part_2,go,250.0,750.0,1.0,,,,,,,,,orange,flipped triangle
0.0,5.0,1.0,1.0,5.0,5.0,478.2361900433898,6.0,0.0,part_2,stop,250.0,750.0,3.0,,,,,,,,,white,circle
0.0,3.0,3.0,0.0,6.0,6.0,526.3566400390118,6.0,0.0,part_2,go,200.0,750.0,1.0,,,,,,,,,orange,flipped triangle
0.0,5.0,1.0,1.0,6.0,6.0,457.3076358065009,6.0,0.0,part_2,stop,200.0,750.0,3.0,,,,,,,,,white,circle
0.0,5.0,1.0,1.0,5.0,5.0,623.3301018364727,6.0,0.0,part_2,go,200.0,700.0,1.0,,,,,,,,,white,circle
0.0,6.0,2.0,1.0,6.0,6.0,795.7377301063389,6.0,0.0,part_2,stop,200.0,700.0,3.0,,,,,,,,,gray,square
0.0,8.0,4.0,1.0,6.0,6.0,684.8856341093779,6.0,0.0,part_2,go,200.0,650.0,1.0,,,,,,,,,cyan,hexagon
0.0,8.0,4.0,1.0,5.0,0.0,0.0,6.0,0.0,part_2,stop,200.0,650.0,4.0,,,,,,,,,cyan,hexagon
0.0,3.0,3.0,0.0,5.0,5.0,669.8638601228595,6.0,0.0,part_2,go,250.0,650.0,1.0,,,,,,,,,orange,flipped triangle
0.0,6.0,2.0,1.0,5.0,5.0,483.7737230118364,6.0,0.0,part_2,go,250.0,650.0,1.0,,,,,,,,,gray,square
0.0,3.0,3.0,0.0,5.0,5.0,493.486792081967,6.0,0.0,part_2,go,250.0,650.0,1.0,,,,,,,,,orange,flipped triangle
0.0,5.0,1.0,1.0,6.0,6.0,466.5052939672023,6.0,0.0,part_2,stop,250.0,650.0,3.0,,,,,,,,,white,circle
0.0,7.0,3.0,1.0,5.0,5.0,347.7831301279366,6.0,0.0,part_2,go,250.0,600.0,1.0,,,,,,,,,magenta,diamond
0.0,6.0,2.0,1.0,6.0,6.0,400.226451922208,6.0,0.0,part_2,stop,250.0,600.0,3.0,,,,,,,,,gray,square
0.0,4.0,4.0,0.0,6.0,6.0,538.1841941270977,6.0,0.0,part_2,go,250.0,550.0,1.0,,,,,,,,,green,I
0.0,4.0,4.0,0.0,6.0,6.0,314.1224449500441,6.0,0.0,part_2,go,250.0,550.0,1.0,,,,,,,,,green,I
0.0,2.0,2.0,0.0,6.0,6.0,624.3178490549326,6.0,0.0,part_2,go,250.0,550.0,1.0,,,,,,,,,blue,cross
0.0,8.0,4.0,1.0,5.0,5.0,415.76789598912,6.0,0.0,part_2,go,250.0,550.0,1.0,,,,,,,,,cyan,hexagon
0.0,2.0,2.0,0.0,5.0,5.0,326.5350959263742,6.0,0.0,part_2,go,250.0,550.0,1.0,,,,,,,,,blue,cross
0.0,8.0,4.0,1.0,6.0,0.0,0.0,6.0,0.0,part_2,stop,250.0,550.0,4.0,,,,,,,,,cyan,hexagon
0.0,6.0,2.0,1.0,6.0,6.0,524.827356915921,6.0,0.0,part_2,go,250.0,600.0,1.0,,,,,,,,,gray,square
0.0,6.0,2.0,1.0,6.0,6.0,396.3145460002124,6.0,0.0,part_2,stop,250.0,600.0,3.0,,,,,,,,,gray,square
0.0,2.0,2.0,0.0,6.0,6.0,421.4235751423985,6.0,0.0,part_2,go,250.0,550.0,1.0,,,,,,,,,blue,cross
0.0,2.0,2.0,0.0,6.0,6.0,698.437807848677,6.0,0.0,part_2,go,250.0,550.0,1.0,,,,,,,,,blue,cross
0.0,2.0,2.0,0.0,5.0,5.0,651.8344429787248,6.0,0.0,part_2,go,250.0,550.0,1.0,,,,,,,,,blue,cross
0.0,6.0,2.0,1.0,6.0,6.0,404.3261702172458,6.0,0.0,part_2,go,250.0,550.0,1.0,,,,,,,,,gray,square
0.0,2.0,2.0,0.0,5.0,5.0,394.2530658096075,6.0,0.0,part_2,go,250.0,550.0,1.0,,,,,,,,,blue,cross
0.0,7.0,3.0,1.0,5.0,0.0,0.0,6.0,0.0,part_2,stop,250.0,550.0,4.0,,,,,,,,,magenta,diamond
0.0,4.0,4.0,0.0,5.0,5.0,703.6063100676984,6.0,0.0,part_2,go,300.0,550.0,1.0,,,,,,,,,green,I
0.0,2.0,2.0,0.0,5.0,5.0,615.5173119623214,7.0,0.0,part_2,go,300.0,550.0,1.0,,,,,,,,,blue,cross
0.0,7.0,3.0,1.0,6.0,6.0,301.3565419241786,7.0,0.0,part_2,stop,300.0,550.0,3.0,,,,,,,,,magenta,diamond
0.0,1.0,1.0,0.0,5.0,5.0,413.7902171351015,7.0,0.0,part_2,go,300.0,500.0,1.0,,,,,,,,,yellow,triangle
0.0,7.0,3.0,1.0,6.0,6.0,340.9829349257052,7.0,0.0,part_2,stop,300.0,500.0,3.0,,,,,,,,,magenta,diamond
0.0,1.0,1.0,0.0,5.0,5.0,346.2944610510021,7.0,0.0,part_2,go,300.0,450.0,1.0,,,,,,,,,yellow,triangle
0.0,4.0,4.0,0.0,5.0,5.0,363.3310368750244,7.0,0.0,part_2,go,300.0,450.0,1.0,,,,,,,,,green,I
0.0,2.0,2.0,0.0,6.0,6.0,336.93743404001,7.0,0.0,part_2,go,300.0,450.0,1.0,,,,,,,,,blue,cross
0.0,1.0,1.0,0.0,6.0,6.0,530.9539358131588,7.0,0.0,part_2,go,300.0,450.0,1.0,,,,,,,,,yellow,triangle
0.0,1.0,1.0,0.0,5.0,5.0,305.7545160409063,7.0,0.0,part_2,go,300.0,450.0,1.0,,,,,,,,,yellow,triangle
0.0,1.0,1.0,0.0,5.0,5.0,368.781795958057,7.0,0.0,part_2,go,300.0,450.0,1.0,,,,,,,,,yellow,triangle
0.0,7.0,3.0,1.0,5.0,5.0,298.0107059702277,7.0,0.0,part_2,stop,300.0,450.0,3.0,,,,,,,,,magenta,diamond
0.0,3.0,3.0,0.0,5.0,5.0,1025.1241689547896,7.0,0.0,part_2,go,250.0,450.0,1.0,,,,,,,,,orange,flipped triangle
0.0,1.0,1.0,0.0,5.0,5.0,334.11536202766,7.0,0.0,part_2,go,250.0,450.0,1.0,,,,,,,,,yellow,triangle
0.0,8.0,4.0,1.0,5.0,0.0,0.0,7.0,0.0,part_2,stop,250.0,450.0,4.0,,,,,,,,,cyan,hexagon
0.0,5.0,1.0,1.0,6.0,6.0,679.4406070839614,7.0,0.0,part_2,stop,300.0,450.0,3.0,,,,,,,,,white,circle
0.0,3.0,3.0,0.0,5.0,5.0,787.9672460258007,7.0,0.0,part_2,go,300.0,400.0,1.0,,,,,,,,,orange,flipped triangle
0.0,2.0,2.0,0.0,6.0,6.0,859.8809989634901,7.0,0.0,part_2,go,300.0,400.0,1.0,,,,,,,,,blue,cross
0.0,1.0,1.0,0.0,6.0,6.0,974.5626158546656,7.0,0.0,part_2,go,300.0,400.0,1.0,,,,,,,,,yellow,triangle
0.0,5.0,1.0,1.0,6.0,0.0,0.0,7.0,0.0,part_2,stop,300.0,400.0,4.0,,,,,,,,,white,circle
0.0,3.0,3.0,0.0,6.0,6.0,666.1111728753895,7.0,0.0,part_2,go,300.0,450.0,1.0,,,,,,,,,orange,flipped triangle
0.0,1.0,1.0,0.0,6.0,6.0,563.9725159853697,7.0,0.0,part_2,go,300.0,450.0,1.0,,,,,,,,,yellow,triangle
0.0,3.0,3.0,0.0,6.0,6.0,603.4331889823079,7.0,0.0,part_2,go,300.0,450.0,1.0,,,,,,,,,orange,flipped triangle
0.0,6.0,2.0,1.0,5.0,0.0,0.0,7.0,0.0,part_2,stop,300.0,450.0,4.0,,,,,,,,,gray,square
0.0,1.0,1.0,0.0,5.0,5.0,426.2545718811452,7.0,0.0,part_2,go,350.0,450.0,1.0,,,,,,,,,yellow,triangle
0.0,7.0,3.0,1.0,6.0,6.0,327.467885799706,7.0,0.0,part_2,go,350.0,450.0,1.0,,,,,,,,,magenta,diamond
0.0,6.0,2.0,1.0,5.0,0.0,0.0,7.0,0.0,part_2,stop,350.0,450.0,4.0,,,,,,,,,gray,square
0.0,4.0,4.0,0.0,5.0,5.0,509.85631300136447,7.0,0.0,part_2,go,400.0,450.0,1.0,,,,,,,,,green,I
0.0,4.0,4.0,0.0,6.0,6.0,318.1903390213847,7.0,0.0,part_2,go,400.0,450.0,1.0,,,,,,,,,green,I
0.0,4.0,4.0,0.0,6.0,6.0,334.9393389653414,7.0,0.0,part_2,go,400.0,450.0,1.0,,,,,,,,,green,I
0.0,1.0,1.0,0.0,5.0,5.0,396.8618588987738,7.0,0.0,part_2,go,400.0,450.0,1.0,,,,,,,,,yellow,triangle
0.0,7.0,3.0,1.0,5.0,5.0,357.7229590155184,7.0,0.0,part_2,stop,400.0,450.0,3.0,,,,,,,,,magenta,diamond
0.0,1.0,1.0,0.0,6.0,6.0,412.889010971412,7.0,0.0,part_2,go,350.0,450.0,1.0,,,,,,,,,yellow,triangle
0.0,7.0,3.0,1.0,6.0,6.0,486.0823908820748,7.0,0.0,part_2,stop,350.0,450.0,3.0,,,,,,,,,magenta,diamond
0.0,1.0,1.0,0.0,5.0,5.0,953.91987496987,7.0,0.0,part_2,go,350.0,400.0,1.0,,,,,,,,,yellow,triangle
0.0,7.0,3.0,1.0,6.0,6.0,421.5743190143257,7.0,0.0,part_2,stop,350.0,400.0,3.0,,,,,,,,,magenta,diamond
0.0,5.0,1.0,1.0,5.0,0.0,0.0,7.0,0.0,part_2,stop,350.0,350.0,4.0,,,,,,,,,white,circle
0.0,3.0,3.0,0.0,6.0,6.0,1049.7484640218318,8.0,0.0,part_2,go,400.0,350.0,1.0,,,,,,,,,orange,flipped triangle
0.0,5.0,1.0,1.0,5.0,5.0,450.3106977790594,8.0,0.0,part_2,go,400.0,350.0,1.0,,,,,,,,,white,circle
0.0,7.0,3.0,1.0,6.0,6.0,383.7354429997504,8.0,0.0,part_2,stop,400.0,350.0,3.0,,,,,,,,,magenta,diamond
0.0,5.0,1.0,1.0,6.0,0.0,0.0,8.0,0.0,part_2,stop,400.0,300.0,4.0,,,,,,,,,white,circle
0.0,7.0,3.0,1.0,5.0,5.0,432.4523459654301,8.0,0.0,part_2,stop,400.0,350.0,3.0,,,,,,,,,magenta,diamond
0.0,6.0,2.0,1.0,6.0,6.0,709.3767349142581,8.0,0.0,part_2,go,350.0,350.0,1.0,,,,,,,,,gray,square
0.0,7.0,3.0,1.0,5.0,0.0,0.0,8.0,0.0,part_2,stop,350.0,350.0,4.0,,,,,,,,,magenta,diamond
0.0,3.0,3.0,0.0,6.0,6.0,779.9604700412601,8.0,0.0,part_2,go,400.0,350.0,1.0,,,,,,,,,orange,flipped triangle
0.0,6.0,2.0,1.0,6.0,6.0,822.5644310005009,8.0,0.0,part_2,go,400.0,350.0,1.0,,,,,,,,,gray,square
0.0,5.0,1.0,1.0,5.0,5.0,380.4486698936671,8.0,0.0,part_2,stop,400.0,350.0,3.0,,,,,,,,,white,circle
0.0,8.0,4.0,1.0,6.0,0.0,0.0,8.0,0.0,part_2,stop,350.0,350.0,4.0,,,,,,,,,cyan,hexagon
0.0,2.0,2.0,0.0,6.0,6.0,452.9848829843104,8.0,0.0,part_2,go,350.0,400.0,1.0,,,,,,,,,blue,cross
0.0,1.0,1.0,0.0,6.0,6.0,577.5917279534042,8.0,0.0,part_2,go,350.0,400.0,1.0,,,,,,,,,yellow,triangle
0.0,8.0,4.0,1.0,6.0,6.0,384.7158860880881,8.0,0.0,part_2,stop,350.0,400.0,3.0,,,,,,,,,cyan,hexagon
0.0,2.0,2.0,0.0,5.0,5.0,544.9081179685891,8.0,0.0,part_2,go,350.0,350.0,1.0,,,,,,,,,blue,cross
0.0,1.0,1.0,0.0,6.0,6.0,1137.82416889444,8.0,0.0,part_2,go,350.0,350.0,1.0,,,,,,,,,yellow,triangle
0.0,6.0,2.0,1.0,6.0,6.0,331.0335539281368,8.0,0.0,part_2,stop,350.0,350.0,3.0,,,,,,,,,gray,square
0.0,4.0,4.0,0.0,5.0,5.0,591.1664739251137,8.0,0.0,part_2,go,350.0,300.0,1.0,,,,,,,,,green,I
0.0,8.0,4.0,1.0,6.0,0.0,0.0,8.0,0.0,part_2,stop,350.0,300.0,4.0,,,,,,,,,cyan,hexagon
0.0,6.0,2.0,1.0,5.0,0.0,0.0,8.0,0.0,part_2,stop,350.0,350.0,4.0,,,,,,,,,gray,square
0.0,2.0,2.0,0.0,6.0,6.0,453.4866150934249,8.0,0.0,part_2,go,400.0,350.0,1.0,,,,,,,,,blue,cross
0.0,1.0,1.0,0.0,6.0,6.0,603.9474420249462,8.0,0.0,part_2,go,400.0,350.0,1.0,,,,,,,,,yellow,triangle
0.0,6.0,2.0,1.0,6.0,6.0,739.5747911650687,8.0,0.0,part_2,go,400.0,350.0,1.0,,,,,,,,,gray,square
0.0,6.0,2.0,1.0,5.0,5.0,534.2095999512821,8.0,0.0,part_2,stop,400.0,350.0,3.0,,,,,,,,,gray,square
0.0,5.0,1.0,1.0,6.0,0.0,0.0,8.0,0.0,part_2,stop,350.0,350.0,4.0,,,,,,,,,white,circle
0.0,7.0,3.0,1.0,6.0,0.0,0.0,8.0,0.0,part_2,stop,350.0,400.0,4.0,,,,,,,,,magenta,diamond
0.0,2.0,2.0,0.0,6.0,0.0,0.0,8.0,0.0,part_2,go,350.0,450.0,5.0,,,,,,,,,blue,cross
0.0,3.0,3.0,0.0,6.0,6.0,585.9334769193083,8.0,0.0,part_2,go,350.0,450.0,1.0,,,,,,,,,orange,flipped triangle
0.0,3.0,3.0,0.0,6.0,6.0,372.0255398657173,8.0,0.0,part_2,go,350.0,450.0,1.0,,,,,,,,,orange,flipped triangle
0.0,2.0,2.0,0.0,6.0,6.0,474.9052419792861,8.0,0.0,part_2,go,350.0,450.0,1.0,,,,,,,,,blue,cross
0.0,2.0,2.0,0.0,5.0,5.0,569.6012659464031,8.0,0.0,part_2,go,350.0,450.0,1.0,,,,,,,,,blue,cross
0.0,2.0,2.0,0.0,5.0,5.0,352.6070769876241,8.0,0.0,part_2,go,350.0,450.0,1.0,,,,,,,,,blue,cross
0.0,3.0,3.0,0.0,6.0,6.0,321.3775749318301,8.0,0.0,part_2,go,350.0,450.0,1.0,,,,,,,,,orange,flipped triangle
0.0,5.0,1.0,1.0,5.0,5.0,447.3995850421488,8.0,0.0,part_2,stop,350.0,450.0,3.0,,,,,,,,,white,circle
0.0,8.0,4.0,1.0,6.0,6.0,361.036088084802,8.0,0.0,part_2,stop,300.0,450.0,3.0,,,,,,,,,cyan,hexagon
0.0,5.0,1.0,1.0,6.0,6.0,310.1283290889114,8.0,0.0,part_2,go,300.0,400.0,1.0,,,,,,,,,white,circle
0.0,6.0,2.0,1.0,7.0,2.0,3988.59137785621,1.0,1.0,part_3,go,0.0,0.0,0.0,264.0,6.0,44.0,264.0,220.0,88.0,132.0,176.0,gray,square
0.0,5.0,1.0,1.0,7.0,3.0,1710.703177144751,1.0,2.0,part_3,go,0.0,0.0,0.0,195.0,5.0,117.0,234.0,195.0,39.0,156.0,78.0,white,circle
0.0,5.0,1.0,1.0,7.0,2.0,2566.953974077478,1.0,1.0,part_3,go,0.0,0.0,0.0,234.0,6.0,39.0,234.0,117.0,195.0,78.0,156.0,white,circle
0.0,7.0,3.0,1.0,7.0,4.0,3256.197174079716,1.0,1.0,part_3,go,0.0,0.0,0.0,170.0,5.0,102.0,68.0,136.0,170.0,204.0,34.0,magenta,diamond
0.0,5.0,1.0,1.0,7.0,3.0,3065.2984369080514,1.0,1.0,part_3,go,0.0,0.0,0.0,136.0,4.0,34.0,170.0,136.0,102.0,68.0,204.0,white,circle
0.0,7.0,3.0,1.0,7.0,6.0,2636.4544921088964,1.0,1.0,part_3,go,0.0,0.0,0.0,270.0,5.0,216.0,108.0,162.0,324.0,54.0,270.0,magenta,diamond
0.0,6.0,2.0,1.0,7.0,5.0,1823.2065949123353,1.0,1.0,part_3,go,0.0,0.0,0.0,264.0,6.0,44.0,88.0,220.0,176.0,264.0,132.0,gray,square
0.0,1.0,1.0,0.0,7.0,4.0,1304.1409959550947,1.0,1.0,part_3,go,0.0,0.0,0.0,98.0,2.0,147.0,294.0,49.0,98.0,196.0,245.0,yellow,triangle
0.0,1.0,1.0,0.0,7.0,5.0,2497.6532079745084,1.0,1.0,part_3,go,0.0,0.0,0.0,136.0,4.0,68.0,170.0,34.0,204.0,136.0,102.0,yellow,triangle
0.0,8.0,4.0,1.0,7.0,3.0,1849.6185089461503,1.0,1.0,part_3,go,0.0,0.0,0.0,34.0,1.0,136.0,204.0,34.0,102.0,170.0,68.0,cyan,hexagon
0.0,2.0,2.0,0.0,7.0,1.0,2651.4839690644294,1.0,1.0,part_3,go,0.0,0.0,0.0,102.0,3.0,102.0,68.0,136.0,170.0,34.0,204.0,blue,cross
0.0,4.0,4.0,0.0,7.0,5.0,1498.624028172344,1.0,1.0,part_3,go,0.0,0.0,0.0,136.0,4.0,68.0,102.0,204.0,170.0,136.0,34.0,green,I
0.0,3.0,3.0,0.0,7.0,3.0,1027.7770371176302,1.0,1.0,part_3,go,0.0,0.0,0.0,49.0,1.0,196.0,294.0,49.0,147.0,245.0,98.0,orange,flipped triangle
0.0,3.0,3.0,0.0,7.0,2.0,2279.1839661076665,1.0,1.0,part_3,go,0.0,0.0,0.0,108.0,2.0,162.0,108.0,54.0,324.0,270.0,216.0,orange,flipped triangle
0.0,4.0,4.0,0.0,7.0,6.0,1433.3590359892696,1.0,1.0,part_3,go,0.0,0.0,0.0,132.0,3.0,44.0,176.0,264.0,88.0,220.0,132.0,green,I
0.0,7.0,3.0,1.0,7.0,5.0,1748.2164588291198,1.0,1.0,part_3,go,0.0,0.0,0.0,108.0,2.0,216.0,270.0,54.0,162.0,108.0,324.0,magenta,diamond
0.0,3.0,3.0,0.0,7.0,1.0,2001.5900118742138,1.0,1.0,part_3,go,0.0,0.0,0.0,204.0,6.0,204.0,136.0,68.0,170.0,102.0,34.0,orange,flipped triangle
0.0,5.0,1.0,1.0,7.0,3.0,1302.3006129078567,1.0,1.0,part_3,go,0.0,0.0,0.0,54.0,1.0,162.0,270.0,54.0,216.0,324.0,108.0,white,circle
0.0,1.0,1.0,0.0,7.0,4.0,1350.1977489795536,1.0,1.0,part_3,go,0.0,0.0,0.0,170.0,5.0,136.0,102.0,68.0,170.0,34.0,204.0,yellow,triangle
0.0,3.0,3.0,0.0,7.0,3.0,1526.3078280258924,1.0,1.0,part_3,go,0.0,0.0,0.0,176.0,4.0,132.0,44.0,176.0,220.0,264.0,88.0,orange,flipped triangle
0.0,6.0,2.0,1.0,7.0,3.0,966.1833851132542,2.0,1.0,part_3,go,0.0,0.0,0.0,216.0,4.0,162.0,108.0,216.0,324.0,270.0,54.0,gray,square
0.0,2.0,2.0,0.0,7.0,4.0,610.1475341711193,2.0,1.0,part_3,go,0.0,0.0,0.0,264.0,6.0,88.0,220.0,176.0,264.0,44.0,132.0,blue,cross
0.0,6.0,2.0,1.0,7.0,1.0,2329.496153863147,2.0,1.0,part_3,go,0.0,0.0,0.0,98.0,2.0,98.0,294.0,147.0,49.0,245.0,196.0,gray,square
0.0,8.0,4.0,1.0,7.0,2.0,1667.720132973045,2.0,1.0,part_3,go,0.0,0.0,0.0,108.0,2.0,270.0,108.0,54.0,324.0,216.0,162.0,cyan,hexagon
0.0,1.0,1.0,0.0,7.0,4.0,1756.4024499151856,2.0,1.0,part_3,go,0.0,0.0,0.0,49.0,1.0,294.0,98.0,196.0,49.0,147.0,245.0,yellow,triangle
0.0,5.0,1.0,1.0,7.0,3.0,1149.293634109199,2.0,1.0,part_3,go,0.0,0.0,0.0,176.0,4.0,88.0,44.0,176.0,132.0,264.0,220.0,white,circle
0.0,7.0,3.0,1.0,7.0,4.0,1168.7347230035812,2.0,1.0,part_3,go,0.0,0.0,0.0,147.0,3.0,49.0,98.0,294.0,147.0,245.0,196.0,magenta,diamond
0.0,1.0,1.0,0.0,7.0,4.0,1138.1930341012776,2.0,1.0,part_3,go,0.0,0.0,0.0,195.0,5.0,39.0,156.0,78.0,195.0,117.0,234.0,yellow,triangle
0.0,2.0,2.0,0.0,7.0,5.0,1848.6587030347437,2.0,1.0,part_3,go,0.0,0.0,0.0,108.0,2.0,216.0,324.0,54.0,270.0,108.0,162.0,blue,cross
0.0,8.0,4.0,1.0,7.0,5.0,1964.0791919082403,2.0,1.0,part_3,go,0.0,0.0,0.0,176.0,4.0,44.0,264.0,132.0,88.0,176.0,220.0,cyan,hexagon
0.0,6.0,2.0,1.0,7.0,4.0,2055.2229401655495,2.0,1.0,part_3,go,0.0,0.0,0.0,156.0,4.0,117.0,78.0,39.0,156.0,234.0,195.0,gray,square
0.0,1.0,1.0,0.0,7.0,4.0,2742.920019896701,2.0,1.0,part_3,go,0.0,0.0,0.0,264.0,6.0,88.0,44.0,176.0,264.0,132.0,220.0,yellow,triangle
0.0,5.0,1.0,1.0,7.0,3.0,752.5826909113675,2.0,1.0,part_3,go,0.0,0.0,0.0,54.0,1.0,216.0,108.0,54.0,162.0,324.0,270.0,white,circle
0.0,2.0,2.0,0.0,7.0,3.0,2035.7613938394934,2.0,1.0,part_3,go,0.0,0.0,0.0,234.0,6.0,39.0,195.0,234.0,156.0,78.0,117.0,blue,cross
0.0,8.0,4.0,1.0,7.0,2.0,778.0001810751855,2.0,1.0,part_3,go,0.0,0.0,0.0,147.0,3.0,245.0,147.0,294.0,49.0,196.0,98.0,cyan,hexagon
0.0,4.0,4.0,0.0,7.0,4.0,1322.4786028731614,2.0,1.0,part_3,go,0.0,0.0,0.0,196.0,4.0,49.0,245.0,98.0,196.0,294.0,147.0,green,I
0.0,2.0,2.0,0.0,7.0,3.0,878.7698170635849,2.0,1.0,part_3,go,0.0,0.0,0.0,170.0,5.0,102.0,136.0,170.0,68.0,34.0,204.0,blue,cross
0.0,8.0,4.0,1.0,7.0,2.0,2277.855624910444,2.0,1.0,part_3,go,0.0,0.0,0.0,49.0,1.0,147.0,49.0,245.0,294.0,196.0,98.0,cyan,hexagon
0.0,1.0,1.0,0.0,7.0,4.0,905.3741781972348,2.0,1.0,part_3,go,0.0,0.0,0.0,132.0,3.0,176.0,220.0,264.0,132.0,44.0,88.0,yellow,triangle
0.0,8.0,4.0,1.0,7.0,2.0,1776.7510418780148,2.0,1.0,part_3,go,0.0,0.0,0.0,88.0,2.0,132.0,88.0,44.0,264.0,220.0,176.0,cyan,hexagon
0.0,2.0,2.0,0.0,7.0,2.0,2064.251736039296,3.0,1.0,part_3,go,0.0,0.0,0.0,147.0,3.0,196.0,147.0,245.0,98.0,294.0,49.0,blue,cross
0.0,7.0,3.0,1.0,7.0,3.0,1176.619034959003,3.0,1.0,part_3,go,0.0,0.0,0.0,88.0,2.0,44.0,264.0,88.0,176.0,220.0,132.0,magenta,diamond
0.0,8.0,4.0,1.0,7.0,4.0,705.8935740496963,3.0,1.0,part_3,go,0.0,0.0,0.0,156.0,4.0,117.0,78.0,234.0,156.0,195.0,39.0,cyan,hexagon
0.0,4.0,4.0,0.0,7.0,2.0,2171.552763087675,3.0,1.0,part_3,go,0.0,0.0,0.0,136.0,4.0,102.0,136.0,204.0,34.0,68.0,170.0,green,I
0.0,3.0,3.0,0.0,7.0,4.0,1099.8962640296668,3.0,1.0,part_3,go,0.0,0.0,0.0,34.0,1.0,204.0,102.0,136.0,34.0,68.0,170.0,orange,flipped triangle
0.0,6.0,2.0,1.0,7.0,4.0,1557.5973091181368,3.0,1.0,part_3,go,0.0,0.0,0.0,162.0,3.0,108.0,216.0,54.0,162.0,270.0,324.0,gray,square
0.0,6.0,2.0,1.0,7.0,3.0,1814.834391931072,3.0,1.0,part_3,go,0.0,0.0,0.0,49.0,1.0,98.0,294.0,49.0,196.0,245.0,147.0,gray,square
0.0,8.0,4.0,1.0,7.0,3.0,1608.926482964307,3.0,1.0,part_3,go,0.0,0.0,0.0,102.0,3.0,34.0,204.0,102.0,136.0,170.0,68.0,cyan,hexagon
0.0,2.0,2.0,0.0,7.0,3.0,874.7762148268521,3.0,1.0,part_3,go,0.0,0.0,0.0,147.0,3.0,98.0,49.0,147.0,245.0,196.0,294.0,blue,cross
0.0,2.0,2.0,0.0,7.0,4.0,1456.669957144186,3.0,1.0,part_3,go,0.0,0.0,0.0,156.0,4.0,234.0,39.0,78.0,156.0,117.0,195.0,blue,cross
0.0,5.0,1.0,1.0,7.0,3.0,1356.740269809961,3.0,1.0,part_3,go,0.0,0.0,0.0,147.0,3.0,245.0,98.0,147.0,49.0,294.0,196.0,white,circle
0.0,7.0,3.0,1.0,7.0,4.0,1422.5043961778283,3.0,1.0,part_3,go,0.0,0.0,0.0,117.0,3.0,156.0,39.0,234.0,117.0,195.0,78.0,magenta,diamond
0.0,6.0,2.0,1.0,7.0,4.0,1167.142811929807,3.0,1.0,part_3,go,0.0,0.0,0.0,102.0,3.0,204.0,136.0,170.0,102.0,34.0,68.0,gray,square
0.0,3.0,3.0,0.0,7.0,4.0,960.7505169697106,3.0,1.0,part_3,go,0.0,0.0,0.0,117.0,3.0,39.0,195.0,156.0,117.0,234.0,78.0,orange,flipped triangle
0.0,3.0,3.0,0.0,7.0,3.0,1409.1087870765475,3.0,1.0,part_3,go,0.0,0.0,0.0,117.0,3.0,234.0,78.0,117.0,39.0,156.0,195.0,orange,flipped triangle
0.0,1.0,1.0,0.0,7.0,5.0,1874.7672571334988,3.0,1.0,part_3,go,0.0,0.0,0.0,108.0,2.0,54.0,162.0,216.0,324.0,108.0,270.0,yellow,triangle
0.0,7.0,3.0,1.0,7.0,5.0,1261.1900880001483,3.0,1.0,part_3,go,0.0,0.0,0.0,196.0,4.0,294.0,98.0,49.0,245.0,196.0,147.0,magenta,diamond
0.0,2.0,2.0,0.0,7.0,4.0,1118.4929101727905,3.0,1.0,part_3,go,0.0,0.0,0.0,108.0,2.0,324.0,270.0,162.0,108.0,54.0,216.0,blue,cross
0.0,1.0,1.0,0.0,7.0,4.0,776.4107389375567,3.0,1.0,part_3,go,0.0,0.0,0.0,162.0,3.0,108.0,324.0,270.0,162.0,216.0,54.0,yellow,triangle
0.0,4.0,4.0,0.0,7.0,5.0,1078.4394801594317,3.0,1.0,part_3,go,0.0,0.0,0.0,176.0,4.0,132.0,44.0,264.0,220.0,176.0,88.0,green,I
0.0,1.0,1.0,0.0,7.0,4.0,1199.5343489106745,4.0,1.0,part_3,go,0.0,0.0,0.0,156.0,4.0,117.0,234.0,78.0,156.0,195.0,39.0,yellow,triangle
0.0,3.0,3.0,0.0,7.0,3.0,1841.121601872146,4.0,1.0,part_3,go,0.0,0.0,0.0,108.0,2.0,324.0,162.0,108.0,216.0,54.0,270.0,orange,flipped triangle
0.0,7.0,3.0,1.0,7.0,4.0,898.4388029202819,4.0,1.0,part_3,go,0.0,0.0,0.0,136.0,4.0,170.0,102.0,204.0,136.0,34.0,68.0,magenta,diamond
0.0,8.0,4.0,1.0,7.0,5.0,1526.3120958115906,4.0,1.0,part_3,go,0.0,0.0,0.0,78.0,2.0,156.0,195.0,117.0,39.0,78.0,234.0,cyan,hexagon
0.0,7.0,3.0,1.0,7.0,3.0,1278.1582369934767,4.0,1.0,part_3,go,0.0,0.0,0.0,156.0,4.0,39.0,78.0,156.0,117.0,195.0,234.0,magenta,diamond
0.0,8.0,4.0,1.0,7.0,3.0,1297.941240016371,4.0,1.0,part_3,go,0.0,0.0,0.0,162.0,3.0,216.0,108.0,162.0,270.0,54.0,324.0,cyan,hexagon
0.0,5.0,1.0,1.0,7.0,3.0,1403.9751328527927,4.0,1.0,part_3,go,0.0,0.0,0.0,34.0,1.0,170.0,204.0,34.0,68.0,136.0,102.0,white,circle
0.0,3.0,3.0,0.0,7.0,6.0,858.9485778938979,4.0,1.0,part_3,go,0.0,0.0,0.0,49.0,1.0,196.0,98.0,245.0,294.0,147.0,49.0,orange,flipped triangle
0.0,4.0,4.0,0.0,7.0,5.0,1435.3736462071538,4.0,1.0,part_3,go,0.0,0.0,0.0,245.0,5.0,196.0,49.0,147.0,294.0,245.0,98.0,green,I
0.0,4.0,4.0,0.0,7.0,5.0,1062.398956157267,4.0,1.0,part_3,go,0.0,0.0,0.0,195.0,5.0,156.0,117.0,234.0,78.0,195.0,39.0,green,I
0.0,6.0,2.0,1.0,7.0,4.0,1549.3089689407498,4.0,1.0,part_3,go,0.0,0.0,0.0,117.0,3.0,78.0,156.0,39.0,117.0,234.0,195.0,gray,square
0.0,7.0,3.0,1.0,7.0,3.0,1209.3147989362478,4.0,1.0,part_3,go,0.0,0.0,0.0,88.0,2.0,264.0,132.0,88.0,176.0,220.0,44.0,magenta,diamond
0.0,5.0,1.0,1.0,7.0,5.0,1384.3207641039044,4.0,1.0,part_3,go,0.0,0.0,0.0,88.0,2.0,264.0,44.0,220.0,132.0,88.0,176.0,white,circle
0.0,5.0,1.0,1.0,7.0,3.0,1413.4636109229175,4.0,1.0,part_3,go,0.0,0.0,0.0,147.0,3.0,245.0,49.0,147.0,196.0,294.0,98.0,white,circle
0.0,4.0,4.0,0.0,7.0,5.0,2036.4979149308056,4.0,1.0,part_3,go,0.0,0.0,0.0,162.0,3.0,108.0,54.0,216.0,270.0,162.0,324.0,green,I
0.0,6.0,2.0,1.0,7.0,5.0,1789.106450043619,4.0,1.0,part_3,go,0.0,0.0,0.0,204.0,6.0,68.0,136.0,102.0,34.0,204.0,170.0,gray,square
0.0,4.0,4.0,0.0,7.0,4.0,1328.1547301448882,4.0,1.0,part_3,go,0.0,0.0,0.0,216.0,4.0,54.0,324.0,162.0,216.0,108.0,270.0,green,I
0.0,4.0,4.0,0.0,7.0,5.0,794.7064319159836,4.0,1.0,part_3,go,0.0,0.0,0.0,117.0,3.0,78.0,156.0,39.0,234.0,117.0,195.0,green,I
0.0,3.0,3.0,0.0,7.0,5.0,824.9696779530495,4.0,1.0,part_3,go,0.0,0.0,0.0,88.0,2.0,264.0,220.0,132.0,44.0,88.0,176.0,orange,flipped triangle
0.0,2.0,2.0,0.0,7.0,5.0,691.9756191782653,4.0,1.0,part_3,go,0.0,0.0,0.0,176.0,4.0,132.0,220.0,264.0,44.0,176.0,88.0,blue,cross
