raw_reward_magnitude,stim_reward,stepwise_reward_magnitude,paired_with_stopping,quadrant,response,reaction_time,block,num_trial_presentations,which_part,stop_signal_trial_type,left_SSD,right_SSD,accuracy,chosen_bidding_amount,chosen_bidding_level,possible_bid_1,possible_bid_2,possible_bid_3,possible_bid_4,possible_bid_5,possible_bid_6,color_text,shape_text
382.0,4.0,4.0,0.0,4.0,4.0,594.4131769999785,1.0,1.0,part_1,,,,,,,,,,,,,white,cross
0.0,8.0,0.0,1.0,4.0,4.0,605.764229999977,1.0,1.0,part_1,,,,,,,,,,,,,gray,circle
54.0,5.0,1.0,1.0,1.0,1.0,373.1234659999245,1.0,1.0,part_1,,,,,,,,,,,,,yellow,hexagon
394.0,4.0,4.0,0.0,4.0,4.0,406.9259390000752,1.0,1.0,part_1,,,,,,,,,,,,,white,cross
27.0,1.0,1.0,0.0,4.0,4.0,437.8087630000209,1.0,1.0,part_1,,,,,,,,,,,,,magenta,square
194.0,7.0,3.0,1.0,2.0,2.0,303.6867680000341,1.0,1.0,part_1,,,,,,,,,,,,,orange,diamond
0.0,4.0,0.0,0.0,4.0,4.0,340.6537410000965,1.0,1.0,part_1,,,,,,,,,,,,,white,cross
0.0,6.0,0.0,1.0,3.0,3.0,282.5019870001597,1.0,1.0,part_1,,,,,,,,,,,,,cyan,triangle
26.0,5.0,1.0,1.0,3.0,3.0,458.1708270000035,1.0,1.0,part_1,,,,,,,,,,,,,yellow,hexagon
98.0,6.0,2.0,1.0,1.0,1.0,338.5373650000929,1.0,1.0,part_1,,,,,,,,,,,,,cyan,triangle
88.0,2.0,2.0,0.0,1.0,1.0,440.5269000001226,1.0,1.0,part_1,,,,,,,,,,,,,green,I
206.0,7.0,3.0,1.0,4.0,4.0,397.9916779999257,1.0,1.0,part_1,,,,,,,,,,,,,orange,diamond
392.0,8.0,4.0,1.0,1.0,1.0,360.6335160000071,1.0,1.0,part_1,,,,,,,,,,,,,gray,circle
204.0,3.0,3.0,0.0,1.0,1.0,416.4261479998004,1.0,1.0,part_1,,,,,,,,,,,,,blue,flipped triangle
387.0,8.0,4.0,1.0,1.0,1.0,521.7784399999346,1.0,1.0,part_1,,,,,,,,,,,,,gray,circle
401.0,4.0,4.0,0.0,4.0,4.0,343.4499949999008,1.0,1.0,part_1,,,,,,,,,,,,,white,cross
55.0,5.0,1.0,1.0,3.0,3.0,380.3102150000086,1.0,1.0,part_1,,,,,,,,,,,,,yellow,hexagon
46.0,1.0,1.0,0.0,4.0,4.0,497.2588709999854,1.0,1.0,part_1,,,,,,,,,,,,,magenta,square
0.0,6.0,0.0,1.0,1.0,1.0,375.6589229999463,1.0,1.0,part_1,,,,,,,,,,,,,cyan,triangle
387.0,4.0,4.0,0.0,2.0,2.0,420.4155209999953,1.0,1.0,part_1,,,,,,,,,,,,,white,cross
84.0,2.0,2.0,0.0,4.0,4.0,383.9962709998872,1.0,1.0,part_1,,,,,,,,,,,,,green,I
88.0,6.0,2.0,1.0,4.0,4.0,380.5252259999179,1.0,1.0,part_1,,,,,,,,,,,,,cyan,triangle
107.0,2.0,2.0,0.0,2.0,2.0,426.4941740000267,1.0,1.0,part_1,,,,,,,,,,,,,green,I
0.0,6.0,0.0,1.0,3.0,3.0,367.3771610001495,1.0,1.0,part_1,,,,,,,,,,,,,cyan,triangle
42.0,5.0,1.0,1.0,4.0,4.0,322.8055540000696,1.0,1.0,part_1,,,,,,,,,,,,,yellow,hexagon
27.0,1.0,1.0,0.0,4.0,4.0,782.446863999894,1.0,1.0,part_1,,,,,,,,,,,,,magenta,square
79.0,6.0,2.0,1.0,2.0,2.0,378.9280789999338,1.0,1.0,part_1,,,,,,,,,,,,,cyan,triangle
106.0,6.0,2.0,1.0,3.0,3.0,311.6239510000014,1.0,1.0,part_1,,,,,,,,,,,,,cyan,triangle
55.0,1.0,1.0,0.0,3.0,3.0,302.9395460000614,1.0,1.0,part_1,,,,,,,,,,,,,magenta,square
180.0,7.0,3.0,1.0,2.0,2.0,354.9966230000336,1.0,1.0,part_1,,,,,,,,,,,,,orange,diamond
0.0,2.0,0.0,0.0,4.0,4.0,421.4882530000068,1.0,1.0,part_1,,,,,,,,,,,,,green,I
424.0,4.0,4.0,0.0,3.0,3.0,387.5219470000957,1.0,1.0,part_1,,,,,,,,,,,,,white,cross
209.0,3.0,3.0,0.0,3.0,3.0,504.35311499995805,1.0,1.0,part_1,,,,,,,,,,,,,blue,flipped triangle
223.0,7.0,3.0,1.0,1.0,1.0,395.8301959999062,1.0,2.0,part_1,,,,,,,,,,,,,orange,diamond
204.0,7.0,3.0,1.0,1.0,1.0,364.6310829999493,1.0,1.0,part_1,,,,,,,,,,,,,orange,diamond
62.0,5.0,1.0,1.0,1.0,1.0,377.993214000071,1.0,1.0,part_1,,,,,,,,,,,,,yellow,hexagon
113.0,2.0,2.0,0.0,2.0,2.0,405.912348999891,1.0,1.0,part_1,,,,,,,,,,,,,green,I
0.0,4.0,0.0,0.0,4.0,4.0,452.5647269999808,1.0,1.0,part_1,,,,,,,,,,,,,white,cross
0.0,7.0,0.0,1.0,1.0,1.0,433.633521000047,1.0,1.0,part_1,,,,,,,,,,,,,orange,diamond
52.0,5.0,1.0,1.0,4.0,4.0,378.3911569998963,1.0,2.0,part_1,,,,,,,,,,,,,yellow,hexagon
425.0,8.0,4.0,1.0,3.0,3.0,401.4251589999276,1.0,1.0,part_1,,,,,,,,,,,,,gray,circle
388.0,4.0,4.0,0.0,2.0,2.0,388.065109000081,1.0,1.0,part_1,,,,,,,,,,,,,white,cross
397.0,4.0,4.0,0.0,1.0,1.0,490.65343999995997,1.0,1.0,part_1,,,,,,,,,,,,,white,cross
57.0,5.0,1.0,1.0,3.0,3.0,501.22161299987056,1.0,1.0,part_1,,,,,,,,,,,,,yellow,hexagon
416.0,4.0,4.0,0.0,4.0,4.0,608.1519199999548,1.0,1.0,part_1,,,,,,,,,,,,,white,cross
388.0,8.0,4.0,1.0,1.0,1.0,428.7692650000281,1.0,1.0,part_1,,,,,,,,,,,,,gray,circle
388.0,8.0,4.0,1.0,2.0,2.0,420.9827980000682,1.0,1.0,part_1,,,,,,,,,,,,,gray,circle
120.0,6.0,2.0,1.0,4.0,4.0,433.9916850001373,1.0,1.0,part_1,,,,,,,,,,,,,cyan,triangle
417.0,4.0,4.0,0.0,3.0,3.0,426.9352930000423,1.0,1.0,part_1,,,,,,,,,,,,,white,cross
214.0,3.0,3.0,0.0,2.0,2.0,418.2440100000804,1.0,1.0,part_1,,,,,,,,,,,,,blue,flipped triangle
75.0,1.0,1.0,0.0,2.0,2.0,437.3732040000959,1.0,1.0,part_1,,,,,,,,,,,,,magenta,square
178.0,3.0,3.0,0.0,2.0,2.0,490.9221590000925,1.0,1.0,part_1,,,,,,,,,,,,,blue,flipped triangle
218.0,3.0,3.0,0.0,4.0,4.0,457.8355300000112,1.0,1.0,part_1,,,,,,,,,,,,,blue,flipped triangle
56.0,5.0,1.0,1.0,1.0,1.0,453.2413399999768,1.0,1.0,part_1,,,,,,,,,,,,,yellow,hexagon
92.0,2.0,2.0,0.0,2.0,2.0,464.586387999816,1.0,1.0,part_1,,,,,,,,,,,,,green,I
40.0,1.0,1.0,0.0,4.0,4.0,708.2336739999846,1.0,1.0,part_1,,,,,,,,,,,,,magenta,square
120.0,2.0,2.0,0.0,3.0,3.0,448.4480000000985,1.0,1.0,part_1,,,,,,,,,,,,,green,I
403.0,8.0,4.0,1.0,2.0,2.0,446.8468459999712,1.0,1.0,part_1,,,,,,,,,,,,,gray,circle
83.0,2.0,2.0,0.0,4.0,4.0,465.6732629998714,1.0,1.0,part_1,,,,,,,,,,,,,green,I
223.0,3.0,3.0,0.0,1.0,1.0,498.04809200009,1.0,1.0,part_1,,,,,,,,,,,,,blue,flipped triangle
221.0,3.0,3.0,0.0,2.0,2.0,434.8829109999315,1.0,1.0,part_1,,,,,,,,,,,,,blue,flipped triangle
182.0,7.0,3.0,1.0,1.0,1.0,578.7613200000123,1.0,1.0,part_1,,,,,,,,,,,,,orange,diamond
0.0,6.0,0.0,1.0,4.0,4.0,508.56026399992516,1.0,1.0,part_1,,,,,,,,,,,,,cyan,triangle
113.0,6.0,2.0,1.0,2.0,2.0,594.2524709998906,1.0,1.0,part_1,,,,,,,,,,,,,cyan,triangle
0.0,6.0,0.0,1.0,3.0,3.0,750.3314600000976,1.0,1.0,part_1,,,,,,,,,,,,,cyan,triangle
0.0,2.0,0.0,0.0,4.0,4.0,420.195700000022,1.0,1.0,part_1,,,,,,,,,,,,,green,I
27.0,5.0,1.0,1.0,4.0,4.0,482.42756500008,1.0,1.0,part_1,,,,,,,,,,,,,yellow,hexagon
113.0,6.0,2.0,1.0,4.0,4.0,435.9465459999683,1.0,1.0,part_1,,,,,,,,,,,,,cyan,triangle
214.0,7.0,3.0,1.0,3.0,3.0,506.76670799998647,1.0,1.0,part_1,,,,,,,,,,,,,orange,diamond
0.0,5.0,0.0,1.0,3.0,3.0,501.32077200009917,1.0,1.0,part_1,,,,,,,,,,,,,yellow,hexagon
197.0,3.0,3.0,0.0,2.0,2.0,404.0312479999102,1.0,1.0,part_1,,,,,,,,,,,,,blue,flipped triangle
214.0,3.0,3.0,0.0,3.0,3.0,505.64331300006415,1.0,1.0,part_1,,,,,,,,,,,,,blue,flipped triangle
32.0,1.0,1.0,0.0,1.0,1.0,421.4575379999132,1.0,1.0,part_1,,,,,,,,,,,,,magenta,square
68.0,1.0,1.0,0.0,2.0,2.0,383.591411999987,1.0,1.0,part_1,,,,,,,,,,,,,magenta,square
0.0,4.0,0.0,0.0,3.0,3.0,460.8535410000058,1.0,1.0,part_1,,,,,,,,,,,,,white,cross
415.0,4.0,4.0,0.0,2.0,2.0,380.7916249998015,1.0,1.0,part_1,,,,,,,,,,,,,white,cross
211.0,3.0,3.0,0.0,3.0,3.0,408.1685889998425,1.0,1.0,part_1,,,,,,,,,,,,,blue,flipped triangle
72.0,5.0,1.0,1.0,3.0,3.0,428.4747210001569,1.0,1.0,part_1,,,,,,,,,,,,,yellow,hexagon
422.0,4.0,4.0,0.0,3.0,3.0,391.2748350001038,1.0,1.0,part_1,,,,,,,,,,,,,white,cross
0.0,4.0,0.0,0.0,4.0,4.0,463.9763659999971,1.0,1.0,part_1,,,,,,,,,,,,,white,cross
424.0,4.0,4.0,0.0,1.0,1.0,624.4855029999599,1.0,1.0,part_1,,,,,,,,,,,,,white,cross
189.0,3.0,3.0,0.0,3.0,3.0,389.3415089999053,1.0,1.0,part_1,,,,,,,,,,,,,blue,flipped triangle
214.0,7.0,3.0,1.0,3.0,3.0,373.3714279999276,1.0,1.0,part_1,,,,,,,,,,,,,orange,diamond
222.0,3.0,3.0,0.0,2.0,2.0,353.0738659999315,1.0,1.0,part_1,,,,,,,,,,,,,blue,flipped triangle
192.0,3.0,3.0,0.0,1.0,1.0,525.3604419999647,1.0,1.0,part_1,,,,,,,,,,,,,blue,flipped triangle
0.0,5.0,0.0,1.0,3.0,3.0,400.479285999836,1.0,1.0,part_1,,,,,,,,,,,,,yellow,hexagon
222.0,7.0,3.0,1.0,1.0,1.0,381.0462920000645,1.0,1.0,part_1,,,,,,,,,,,,,orange,diamond
0.0,6.0,0.0,1.0,2.0,2.0,361.8328330001077,1.0,1.0,part_1,,,,,,,,,,,,,cyan,triangle
122.0,6.0,2.0,1.0,2.0,2.0,501.8915109999398,1.0,1.0,part_1,,,,,,,,,,,,,cyan,triangle
194.0,3.0,3.0,0.0,2.0,2.0,403.2064040000023,1.0,1.0,part_1,,,,,,,,,,,,,blue,flipped triangle
0.0,2.0,0.0,0.0,1.0,1.0,417.4547759998859,1.0,1.0,part_1,,,,,,,,,,,,,green,I
381.0,4.0,4.0,0.0,4.0,4.0,534.1792310000528,1.0,1.0,part_1,,,,,,,,,,,,,white,cross
84.0,2.0,2.0,0.0,2.0,2.0,435.8290570000918,1.0,1.0,part_1,,,,,,,,,,,,,green,I
412.0,4.0,4.0,0.0,1.0,1.0,480.7039750000967,1.0,1.0,part_1,,,,,,,,,,,,,white,cross
196.0,7.0,3.0,1.0,2.0,2.0,308.756565999829,1.0,1.0,part_1,,,,,,,,,,,,,orange,diamond
182.0,3.0,3.0,0.0,2.0,2.0,360.7708629999706,1.0,1.0,part_1,,,,,,,,,,,,,blue,flipped triangle
84.0,6.0,2.0,1.0,4.0,4.0,611.9300180000664,1.0,1.0,part_1,,,,,,,,,,,,,cyan,triangle
0.0,5.0,0.0,1.0,4.0,4.0,364.3585340000754,1.0,1.0,part_1,,,,,,,,,,,,,yellow,hexagon
412.0,4.0,4.0,0.0,4.0,4.0,385.1777780000702,1.0,1.0,part_1,,,,,,,,,,,,,white,cross
33.0,1.0,1.0,0.0,2.0,2.0,346.1524790000112,1.0,1.0,part_1,,,,,,,,,,,,,magenta,square
115.0,2.0,2.0,0.0,1.0,1.0,557.9571130001568,2.0,1.0,part_1,,,,,,,,,,,,,green,I
208.0,3.0,3.0,0.0,1.0,1.0,465.794120000055,2.0,1.0,part_1,,,,,,,,,,,,,blue,flipped triangle
0.0,3.0,0.0,0.0,4.0,4.0,400.6463369998982,2.0,1.0,part_1,,,,,,,,,,,,,blue,flipped triangle
215.0,7.0,3.0,1.0,1.0,1.0,396.8946689999484,2.0,1.0,part_1,,,,,,,,,,,,,orange,diamond
0.0,1.0,0.0,0.0,4.0,4.0,355.1381119998495,2.0,1.0,part_1,,,,,,,,,,,,,magenta,square
179.0,7.0,3.0,1.0,3.0,3.0,429.5116519999737,2.0,1.0,part_1,,,,,,,,,,,,,orange,diamond
93.0,6.0,2.0,1.0,4.0,4.0,467.8009619999557,2.0,1.0,part_1,,,,,,,,,,,,,cyan,triangle
198.0,7.0,3.0,1.0,1.0,1.0,400.5778460000329,2.0,1.0,part_1,,,,,,,,,,,,,orange,diamond
0.0,3.0,0.0,0.0,1.0,1.0,405.3647559999263,2.0,1.0,part_1,,,,,,,,,,,,,blue,flipped triangle
88.0,6.0,2.0,1.0,1.0,1.0,408.6215140000604,2.0,1.0,part_1,,,,,,,,,,,,,cyan,triangle
84.0,6.0,2.0,1.0,2.0,2.0,438.3625049999864,2.0,1.0,part_1,,,,,,,,,,,,,cyan,triangle
103.0,2.0,2.0,0.0,3.0,3.0,716.333165000151,2.0,1.0,part_1,,,,,,,,,,,,,green,I
48.0,1.0,1.0,0.0,4.0,4.0,583.4770579999713,2.0,1.0,part_1,,,,,,,,,,,,,magenta,square
0.0,5.0,0.0,1.0,3.0,3.0,445.5598879999343,2.0,1.0,part_1,,,,,,,,,,,,,yellow,hexagon
0.0,1.0,0.0,0.0,2.0,2.0,416.0576080000737,2.0,1.0,part_1,,,,,,,,,,,,,magenta,square
417.0,8.0,4.0,1.0,3.0,3.0,549.4825180001044,2.0,1.0,part_1,,,,,,,,,,,,,gray,circle
76.0,2.0,2.0,0.0,2.0,2.0,483.5327110001799,2.0,1.0,part_1,,,,,,,,,,,,,green,I
188.0,7.0,3.0,1.0,2.0,2.0,420.5287090001093,2.0,1.0,part_1,,,,,,,,,,,,,orange,diamond
68.0,5.0,1.0,1.0,2.0,2.0,609.7544520000611,2.0,1.0,part_1,,,,,,,,,,,,,yellow,hexagon
183.0,7.0,3.0,1.0,2.0,2.0,350.47990599991857,2.0,1.0,part_1,,,,,,,,,,,,,orange,diamond
68.0,1.0,1.0,0.0,2.0,2.0,390.1539799999227,2.0,1.0,part_1,,,,,,,,,,,,,magenta,square
208.0,7.0,3.0,1.0,2.0,2.0,352.5018369998633,2.0,1.0,part_1,,,,,,,,,,,,,orange,diamond
105.0,6.0,2.0,1.0,3.0,3.0,597.0916869998746,2.0,1.0,part_1,,,,,,,,,,,,,cyan,triangle
39.0,5.0,1.0,1.0,4.0,4.0,604.3371440000556,2.0,1.0,part_1,,,,,,,,,,,,,yellow,hexagon
192.0,7.0,3.0,1.0,4.0,4.0,417.4238020000302,2.0,1.0,part_1,,,,,,,,,,,,,orange,diamond
0.0,8.0,0.0,1.0,4.0,4.0,602.5142870000764,2.0,1.0,part_1,,,,,,,,,,,,,gray,circle
205.0,7.0,3.0,1.0,3.0,3.0,466.3237429999753,2.0,1.0,part_1,,,,,,,,,,,,,orange,diamond
120.0,6.0,2.0,1.0,4.0,4.0,662.6613739999812,2.0,1.0,part_1,,,,,,,,,,,,,cyan,triangle
119.0,6.0,2.0,1.0,3.0,3.0,512.5326980000864,2.0,1.0,part_1,,,,,,,,,,,,,cyan,triangle
400.0,8.0,4.0,1.0,1.0,1.0,430.0387509999837,2.0,1.0,part_1,,,,,,,,,,,,,gray,circle
192.0,7.0,3.0,1.0,1.0,1.0,481.5453850001177,2.0,1.0,part_1,,,,,,,,,,,,,orange,diamond
95.0,2.0,2.0,0.0,3.0,3.0,503.3284470000581,2.0,1.0,part_1,,,,,,,,,,,,,green,I
0.0,7.0,0.0,1.0,2.0,2.0,427.5305280000339,2.0,1.0,part_1,,,,,,,,,,,,,orange,diamond
86.0,2.0,2.0,0.0,4.0,4.0,475.7752650000384,2.0,1.0,part_1,,,,,,,,,,,,,green,I
93.0,2.0,2.0,0.0,3.0,3.0,382.6519819999703,2.0,1.0,part_1,,,,,,,,,,,,,green,I
67.0,5.0,1.0,1.0,1.0,1.0,588.7367660000109,2.0,1.0,part_1,,,,,,,,,,,,,yellow,hexagon
182.0,7.0,3.0,1.0,3.0,3.0,334.1106939999463,2.0,1.0,part_1,,,,,,,,,,,,,orange,diamond
201.0,7.0,3.0,1.0,3.0,3.0,330.6019169999672,2.0,1.0,part_1,,,,,,,,,,,,,orange,diamond
182.0,3.0,3.0,0.0,3.0,3.0,355.6655159998172,2.0,1.0,part_1,,,,,,,,,,,,,blue,flipped triangle
92.0,2.0,2.0,0.0,2.0,2.0,419.7983119997843,2.0,1.0,part_1,,,,,,,,,,,,,green,I
100.0,2.0,2.0,0.0,2.0,2.0,435.6509120000282,2.0,1.0,part_1,,,,,,,,,,,,,green,I
114.0,6.0,2.0,1.0,4.0,4.0,481.399515999783,2.0,1.0,part_1,,,,,,,,,,,,,cyan,triangle
0.0,1.0,0.0,0.0,3.0,3.0,378.0197749999843,2.0,1.0,part_1,,,,,,,,,,,,,magenta,square
401.0,8.0,4.0,1.0,2.0,2.0,503.30452200000764,2.0,1.0,part_1,,,,,,,,,,,,,gray,circle
206.0,3.0,3.0,0.0,4.0,4.0,662.8142719998777,2.0,1.0,part_1,,,,,,,,,,,,,blue,flipped triangle
188.0,3.0,3.0,0.0,3.0,3.0,427.090415000066,2.0,1.0,part_1,,,,,,,,,,,,,blue,flipped triangle
0.0,7.0,0.0,1.0,3.0,3.0,318.9422549999108,2.0,1.0,part_1,,,,,,,,,,,,,orange,diamond
384.0,4.0,4.0,0.0,2.0,2.0,441.6261549999944,2.0,1.0,part_1,,,,,,,,,,,,,white,cross
225.0,7.0,3.0,1.0,1.0,1.0,470.2038979999088,2.0,1.0,part_1,,,,,,,,,,,,,orange,diamond
196.0,3.0,3.0,0.0,3.0,3.0,403.603166000039,2.0,1.0,part_1,,,,,,,,,,,,,blue,flipped triangle
35.0,5.0,1.0,1.0,4.0,4.0,536.5674370000306,2.0,1.0,part_1,,,,,,,,,,,,,yellow,hexagon
97.0,2.0,2.0,0.0,1.0,1.0,572.2887500000979,2.0,1.0,part_1,,,,,,,,,,,,,green,I
121.0,6.0,2.0,1.0,2.0,2.0,593.847660999927,2.0,1.0,part_1,,,,,,,,,,,,,cyan,triangle
105.0,6.0,2.0,1.0,4.0,4.0,574.5060829999602,2.0,1.0,part_1,,,,,,,,,,,,,cyan,triangle
222.0,3.0,3.0,0.0,3.0,3.0,498.4569060000012,2.0,1.0,part_1,,,,,,,,,,,,,blue,flipped triangle
392.0,4.0,4.0,0.0,1.0,1.0,566.8250549999811,2.0,1.0,part_1,,,,,,,,,,,,,white,cross
0.0,7.0,0.0,1.0,4.0,4.0,548.1633689998944,2.0,1.0,part_1,,,,,,,,,,,,,orange,diamond
0.0,4.0,0.0,0.0,1.0,1.0,458.5875110001325,2.0,1.0,part_1,,,,,,,,,,,,,white,cross
92.0,6.0,2.0,1.0,4.0,4.0,477.2468099999969,2.0,1.0,part_1,,,,,,,,,,,,,cyan,triangle
0.0,2.0,0.0,0.0,4.0,4.0,596.0465799998929,2.0,1.0,part_1,,,,,,,,,,,,,green,I
0.0,2.0,0.0,0.0,4.0,4.0,390.45090899981,2.0,1.0,part_1,,,,,,,,,,,,,green,I
383.0,8.0,4.0,1.0,2.0,2.0,428.0616190001183,2.0,1.0,part_1,,,,,,,,,,,,,gray,circle
0.0,5.0,0.0,1.0,4.0,4.0,464.9241500001153,2.0,1.0,part_1,,,,,,,,,,,,,yellow,hexagon
28.0,5.0,1.0,1.0,2.0,2.0,469.44911699984,2.0,1.0,part_1,,,,,,,,,,,,,yellow,hexagon
0.0,2.0,0.0,0.0,4.0,4.0,331.1821659999623,2.0,1.0,part_1,,,,,,,,,,,,,green,I
0.0,4.0,0.0,0.0,2.0,2.0,358.0311670002629,2.0,1.0,part_1,,,,,,,,,,,,,white,cross
0.0,8.0,0.0,1.0,3.0,3.0,558.6276619997079,2.0,1.0,part_1,,,,,,,,,,,,,gray,circle
179.0,3.0,3.0,0.0,3.0,3.0,409.3687570002657,2.0,1.0,part_1,,,,,,,,,,,,,blue,flipped triangle
0.0,6.0,0.0,1.0,2.0,2.0,399.7081599995908,2.0,1.0,part_1,,,,,,,,,,,,,cyan,triangle
113.0,2.0,2.0,0.0,1.0,1.0,473.2848419998845,2.0,1.0,part_1,,,,,,,,,,,,,green,I
35.0,1.0,1.0,0.0,1.0,1.0,417.0573390001664,2.0,1.0,part_1,,,,,,,,,,,,,magenta,square
0.0,8.0,0.0,1.0,3.0,3.0,466.1838510000962,2.0,1.0,part_1,,,,,,,,,,,,,gray,circle
62.0,1.0,1.0,0.0,3.0,3.0,345.5837589999646,2.0,1.0,part_1,,,,,,,,,,,,,magenta,square
85.0,2.0,2.0,0.0,1.0,1.0,407.2963850003361,2.0,1.0,part_1,,,,,,,,,,,,,green,I
211.0,7.0,3.0,1.0,2.0,2.0,359.9194190001071,2.0,1.0,part_1,,,,,,,,,,,,,orange,diamond
84.0,2.0,2.0,0.0,4.0,4.0,575.7009710000602,2.0,1.0,part_1,,,,,,,,,,,,,green,I
68.0,5.0,1.0,1.0,4.0,4.0,377.499374999843,2.0,1.0,part_1,,,,,,,,,,,,,yellow,hexagon
382.0,8.0,4.0,1.0,2.0,2.0,430.2733270001226,2.0,1.0,part_1,,,,,,,,,,,,,gray,circle
388.0,8.0,4.0,1.0,4.0,4.0,445.9027530001549,2.0,1.0,part_1,,,,,,,,,,,,,gray,circle
382.0,8.0,4.0,1.0,1.0,1.0,419.5376299999225,2.0,1.0,part_1,,,,,,,,,,,,,gray,circle
192.0,3.0,3.0,0.0,4.0,4.0,414.8269660004189,2.0,1.0,part_1,,,,,,,,,,,,,blue,flipped triangle
70.0,1.0,1.0,0.0,3.0,3.0,483.1507149997378,2.0,1.0,part_1,,,,,,,,,,,,,magenta,square
28.0,1.0,1.0,0.0,4.0,4.0,439.6965109999655,2.0,1.0,part_1,,,,,,,,,,,,,magenta,square
57.0,1.0,1.0,0.0,1.0,1.0,428.9200769999297,2.0,1.0,part_1,,,,,,,,,,,,,magenta,square
33.0,5.0,1.0,1.0,2.0,2.0,449.188330999732,2.0,1.0,part_1,,,,,,,,,,,,,yellow,hexagon
411.0,8.0,4.0,1.0,3.0,3.0,355.8451450003304,2.0,1.0,part_1,,,,,,,,,,,,,gray,circle
0.0,1.0,0.0,0.0,1.0,1.0,458.8841810000303,2.0,1.0,part_1,,,,,,,,,,,,,magenta,square
73.0,1.0,1.0,0.0,2.0,2.0,285.8421930000077,2.0,1.0,part_1,,,,,,,,,,,,,magenta,square
112.0,6.0,2.0,1.0,1.0,1.0,372.750859000007,2.0,1.0,part_1,,,,,,,,,,,,,cyan,triangle
397.0,8.0,4.0,1.0,4.0,4.0,462.2786499999165,2.0,1.0,part_1,,,,,,,,,,,,,gray,circle
409.0,4.0,4.0,0.0,4.0,4.0,443.1202989999292,2.0,1.0,part_1,,,,,,,,,,,,,white,cross
416.0,8.0,4.0,1.0,4.0,4.0,415.5852019998747,2.0,1.0,part_1,,,,,,,,,,,,,gray,circle
113.0,2.0,2.0,0.0,1.0,1.0,460.6906409999283,2.0,1.0,part_1,,,,,,,,,,,,,green,I
52.0,1.0,1.0,0.0,3.0,3.0,387.796523000361,2.0,1.0,part_1,,,,,,,,,,,,,magenta,square
389.0,4.0,4.0,0.0,3.0,3.0,528.9853300000686,2.0,1.0,part_1,,,,,,,,,,,,,white,cross
122.0,2.0,2.0,0.0,4.0,4.0,469.7163519999776,2.0,1.0,part_1,,,,,,,,,,,,,green,I
413.0,4.0,4.0,0.0,2.0,2.0,383.2385760001671,2.0,1.0,part_1,,,,,,,,,,,,,white,cross
205.0,7.0,3.0,1.0,1.0,1.0,390.9433359999639,2.0,1.0,part_1,,,,,,,,,,,,,orange,diamond
121.0,2.0,2.0,0.0,2.0,2.0,410.7517990000815,2.0,1.0,part_1,,,,,,,,,,,,,green,I
189.0,7.0,3.0,1.0,4.0,4.0,393.9595189999636,2.0,2.0,part_1,,,,,,,,,,,,,orange,diamond
225.0,3.0,3.0,0.0,2.0,2.0,394.88303799998897,3.0,1.0,part_1,,,,,,,,,,,,,blue,flipped triangle
42.0,1.0,1.0,0.0,3.0,3.0,352.29545600032,3.0,1.0,part_1,,,,,,,,,,,,,magenta,square
394.0,8.0,4.0,1.0,1.0,1.0,607.0452949998071,3.0,1.0,part_1,,,,,,,,,,,,,gray,circle
0.0,5.0,0.0,1.0,2.0,2.0,330.3027930001008,3.0,1.0,part_1,,,,,,,,,,,,,yellow,hexagon
72.0,1.0,1.0,0.0,4.0,4.0,591.386374999729,3.0,1.0,part_1,,,,,,,,,,,,,magenta,square
116.0,6.0,2.0,1.0,2.0,2.0,379.4648170000982,3.0,1.0,part_1,,,,,,,,,,,,,cyan,triangle
392.0,4.0,4.0,0.0,3.0,3.0,503.65172400006486,3.0,1.0,part_1,,,,,,,,,,,,,white,cross
43.0,5.0,1.0,1.0,2.0,2.0,398.9441270000498,3.0,1.0,part_1,,,,,,,,,,,,,yellow,hexagon
218.0,7.0,3.0,1.0,4.0,4.0,498.7522950000311,3.0,1.0,part_1,,,,,,,,,,,,,orange,diamond
0.0,3.0,0.0,0.0,4.0,4.0,389.6659600000021,3.0,1.0,part_1,,,,,,,,,,,,,blue,flipped triangle
43.0,1.0,1.0,0.0,3.0,3.0,476.1385900001187,3.0,1.0,part_1,,,,,,,,,,,,,magenta,square
107.0,6.0,2.0,1.0,1.0,1.0,718.8201760000084,3.0,1.0,part_1,,,,,,,,,,,,,cyan,triangle
222.0,7.0,3.0,1.0,1.0,1.0,422.1690949998447,3.0,1.0,part_1,,,,,,,,,,,,,orange,diamond
188.0,3.0,3.0,0.0,2.0,2.0,513.0044620000263,3.0,1.0,part_1,,,,,,,,,,,,,blue,flipped triangle
0.0,8.0,0.0,1.0,2.0,2.0,460.9129130003566,3.0,1.0,part_1,,,,,,,,,,,,,gray,circle
421.0,4.0,4.0,0.0,1.0,1.0,653.0311259998598,3.0,1.0,part_1,,,,,,,,,,,,,white,cross
216.0,7.0,3.0,1.0,4.0,4.0,650.1953500001036,3.0,1.0,part_1,,,,,,,,,,,,,orange,diamond
60.0,5.0,1.0,1.0,2.0,2.0,469.9856880001789,3.0,1.0,part_1,,,,,,,,,,,,,yellow,hexagon
106.0,2.0,2.0,0.0,4.0,4.0,432.2199409998575,3.0,1.0,part_1,,,,,,,,,,,,,green,I
0.0,5.0,0.0,1.0,3.0,3.0,550.8006629997908,3.0,1.0,part_1,,,,,,,,,,,,,yellow,hexagon
84.0,2.0,2.0,0.0,3.0,3.0,539.0924360003737,3.0,1.0,part_1,,,,,,,,,,,,,green,I
84.0,6.0,2.0,1.0,3.0,3.0,421.5877599999658,3.0,1.0,part_1,,,,,,,,,,,,,cyan,triangle
400.0,4.0,4.0,0.0,2.0,2.0,414.0638929998204,3.0,1.0,part_1,,,,,,,,,,,,,white,cross
33.0,5.0,1.0,1.0,3.0,3.0,416.8684579999535,3.0,1.0,part_1,,,,,,,,,,,,,yellow,hexagon
112.0,2.0,2.0,0.0,4.0,4.0,439.9909189996833,3.0,1.0,part_1,,,,,,,,,,,,,green,I
85.0,6.0,2.0,1.0,1.0,1.0,563.002152000081,3.0,1.0,part_1,,,,,,,,,,,,,cyan,triangle
77.0,6.0,2.0,1.0,1.0,1.0,645.0520509997659,3.0,1.0,part_1,,,,,,,,,,,,,cyan,triangle
26.0,1.0,1.0,0.0,3.0,3.0,412.7884209997319,3.0,1.0,part_1,,,,,,,,,,,,,magenta,square
100.0,6.0,2.0,1.0,3.0,3.0,463.988904999951,3.0,1.0,part_1,,,,,,,,,,,,,cyan,triangle
71.0,1.0,1.0,0.0,1.0,1.0,435.4470849998506,3.0,1.0,part_1,,,,,,,,,,,,,magenta,square
412.0,8.0,4.0,1.0,4.0,4.0,521.7390900002101,3.0,1.0,part_1,,,,,,,,,,,,,gray,circle
415.0,8.0,4.0,1.0,4.0,4.0,519.4230900001457,3.0,1.0,part_1,,,,,,,,,,,,,gray,circle
0.0,6.0,0.0,1.0,3.0,3.0,477.481502000046,3.0,2.0,part_1,,,,,,,,,,,,,cyan,triangle
396.0,8.0,4.0,1.0,2.0,2.0,571.5667280001071,3.0,1.0,part_1,,,,,,,,,,,,,gray,circle
377.0,8.0,4.0,1.0,3.0,3.0,407.5560290002613,3.0,1.0,part_1,,,,,,,,,,,,,gray,circle
401.0,4.0,4.0,0.0,1.0,1.0,917.8657480001676,3.0,1.0,part_1,,,,,,,,,,,,,white,cross
197.0,7.0,3.0,1.0,2.0,2.0,400.2548550001847,3.0,1.0,part_1,,,,,,,,,,,,,orange,diamond
394.0,4.0,4.0,0.0,2.0,2.0,389.7538259998327,3.0,1.0,part_1,,,,,,,,,,,,,white,cross
397.0,4.0,4.0,0.0,2.0,2.0,570.2324349999799,3.0,1.0,part_1,,,,,,,,,,,,,white,cross
397.0,8.0,4.0,1.0,1.0,1.0,368.2661779998852,3.0,1.0,part_1,,,,,,,,,,,,,gray,circle
381.0,8.0,4.0,1.0,4.0,4.0,397.1404079998137,3.0,1.0,part_1,,,,,,,,,,,,,gray,circle
0.0,4.0,0.0,0.0,2.0,2.0,514.0690950001954,3.0,1.0,part_1,,,,,,,,,,,,,white,cross
389.0,8.0,4.0,1.0,3.0,3.0,380.8070119998774,3.0,1.0,part_1,,,,,,,,,,,,,gray,circle
191.0,7.0,3.0,1.0,4.0,4.0,281.5962240001681,3.0,1.0,part_1,,,,,,,,,,,,,orange,diamond
396.0,4.0,4.0,0.0,4.0,4.0,352.8913259997353,3.0,1.0,part_1,,,,,,,,,,,,,white,cross
40.0,5.0,1.0,1.0,2.0,2.0,467.9101730002912,3.0,1.0,part_1,,,,,,,,,,,,,yellow,hexagon
424.0,8.0,4.0,1.0,2.0,2.0,607.6823469998089,3.0,1.0,part_1,,,,,,,,,,,,,gray,circle
0.0,5.0,0.0,1.0,1.0,1.0,525.2874940001675,3.0,1.0,part_1,,,,,,,,,,,,,yellow,hexagon
50.0,5.0,1.0,1.0,1.0,1.0,883.0295309999201,3.0,1.0,part_1,,,,,,,,,,,,,yellow,hexagon
101.0,2.0,2.0,0.0,3.0,3.0,313.2984240000951,3.0,1.0,part_1,,,,,,,,,,,,,green,I
0.0,1.0,0.0,0.0,3.0,3.0,394.0901760001907,3.0,1.0,part_1,,,,,,,,,,,,,magenta,square
388.0,4.0,4.0,0.0,4.0,4.0,886.8050460000632,3.0,1.0,part_1,,,,,,,,,,,,,white,cross
191.0,3.0,3.0,0.0,4.0,4.0,623.511428999791,3.0,1.0,part_1,,,,,,,,,,,,,blue,flipped triangle
28.0,1.0,1.0,0.0,1.0,1.0,506.71178099992176,3.0,1.0,part_1,,,,,,,,,,,,,magenta,square
99.0,6.0,2.0,1.0,2.0,2.0,384.7034539999185,3.0,1.0,part_1,,,,,,,,,,,,,cyan,triangle
384.0,8.0,4.0,1.0,3.0,3.0,458.0397669997182,3.0,1.0,part_1,,,,,,,,,,,,,gray,circle
377.0,4.0,4.0,0.0,1.0,1.0,488.4836639998866,3.0,1.0,part_1,,,,,,,,,,,,,white,cross
0.0,1.0,0.0,0.0,1.0,1.0,388.8344289998713,3.0,1.0,part_1,,,,,,,,,,,,,magenta,square
0.0,1.0,0.0,0.0,1.0,1.0,426.537332999942,3.0,1.0,part_1,,,,,,,,,,,,,magenta,square
0.0,6.0,0.0,1.0,4.0,4.0,372.3807040000793,3.0,1.0,part_1,,,,,,,,,,,,,cyan,triangle
0.0,7.0,0.0,1.0,2.0,2.0,508.11215300018375,3.0,1.0,part_1,,,,,,,,,,,,,orange,diamond
50.0,1.0,1.0,0.0,2.0,2.0,390.8269290000135,3.0,1.0,part_1,,,,,,,,,,,,,magenta,square
74.0,1.0,1.0,0.0,1.0,1.0,556.8467450002572,3.0,1.0,part_1,,,,,,,,,,,,,magenta,square
79.0,2.0,2.0,0.0,1.0,1.0,537.150076999751,3.0,1.0,part_1,,,,,,,,,,,,,green,I
65.0,5.0,1.0,1.0,1.0,1.0,659.5675050002683,3.0,2.0,part_1,,,,,,,,,,,,,yellow,hexagon
0.0,3.0,0.0,0.0,2.0,2.0,367.525138000019,3.0,1.0,part_1,,,,,,,,,,,,,blue,flipped triangle
120.0,2.0,2.0,0.0,2.0,2.0,385.7062809997842,3.0,1.0,part_1,,,,,,,,,,,,,green,I
30.0,1.0,1.0,0.0,1.0,1.0,377.7149809998263,3.0,1.0,part_1,,,,,,,,,,,,,magenta,square
397.0,4.0,4.0,0.0,1.0,1.0,367.0987129999048,3.0,1.0,part_1,,,,,,,,,,,,,white,cross
71.0,5.0,1.0,1.0,3.0,3.0,458.3372689999123,3.0,1.0,part_1,,,,,,,,,,,,,yellow,hexagon
46.0,1.0,1.0,0.0,3.0,3.0,430.6453680001141,3.0,1.0,part_1,,,,,,,,,,,,,magenta,square
396.0,4.0,4.0,0.0,3.0,3.0,381.6792389998227,3.0,1.0,part_1,,,,,,,,,,,,,white,cross
388.0,4.0,4.0,0.0,3.0,3.0,400.2204119997259,3.0,1.0,part_1,,,,,,,,,,,,,white,cross
0.0,3.0,0.0,0.0,1.0,1.0,356.7773839999972,3.0,1.0,part_1,,,,,,,,,,,,,blue,flipped triangle
0.0,2.0,0.0,0.0,4.0,4.0,538.5859410002922,3.0,1.0,part_1,,,,,,,,,,,,,green,I
33.0,1.0,1.0,0.0,1.0,1.0,724.7183720000976,3.0,1.0,part_1,,,,,,,,,,,,,magenta,square
176.0,7.0,3.0,1.0,3.0,3.0,472.6957150000999,3.0,1.0,part_1,,,,,,,,,,,,,orange,diamond
95.0,6.0,2.0,1.0,3.0,3.0,565.8222030001525,3.0,1.0,part_1,,,,,,,,,,,,,cyan,triangle
0.0,3.0,0.0,0.0,2.0,2.0,437.1738499999082,3.0,1.0,part_1,,,,,,,,,,,,,blue,flipped triangle
0.0,2.0,0.0,0.0,3.0,3.0,505.1229669998065,3.0,1.0,part_1,,,,,,,,,,,,,green,I
0.0,1.0,0.0,0.0,1.0,1.0,707.6225169998906,3.0,1.0,part_1,,,,,,,,,,,,,magenta,square
105.0,2.0,2.0,0.0,2.0,2.0,472.4062250002134,3.0,1.0,part_1,,,,,,,,,,,,,green,I
28.0,5.0,1.0,1.0,3.0,3.0,380.8178730000691,3.0,2.0,part_1,,,,,,,,,,,,,yellow,hexagon
198.0,3.0,3.0,0.0,1.0,1.0,430.4402669999945,3.0,1.0,part_1,,,,,,,,,,,,,blue,flipped triangle
211.0,3.0,3.0,0.0,1.0,1.0,581.2624860000142,3.0,1.0,part_1,,,,,,,,,,,,,blue,flipped triangle
420.0,8.0,4.0,1.0,2.0,2.0,424.9719429999459,3.0,1.0,part_1,,,,,,,,,,,,,gray,circle
409.0,8.0,4.0,1.0,3.0,3.0,445.6455620002089,3.0,1.0,part_1,,,,,,,,,,,,,gray,circle
425.0,4.0,4.0,0.0,1.0,1.0,451.0269659999721,3.0,1.0,part_1,,,,,,,,,,,,,white,cross
46.0,5.0,1.0,1.0,3.0,3.0,352.3650199999792,3.0,1.0,part_1,,,,,,,,,,,,,yellow,hexagon
88.0,2.0,2.0,0.0,1.0,1.0,370.6718879998334,3.0,1.0,part_1,,,,,,,,,,,,,green,I
177.0,3.0,3.0,0.0,4.0,4.0,617.6294449996931,3.0,1.0,part_1,,,,,,,,,,,,,blue,flipped triangle
186.0,7.0,3.0,1.0,3.0,3.0,429.6363630000996,3.0,1.0,part_1,,,,,,,,,,,,,orange,diamond
101.0,6.0,2.0,1.0,1.0,1.0,384.6649100000832,3.0,1.0,part_1,,,,,,,,,,,,,cyan,triangle
422.0,8.0,4.0,1.0,4.0,4.0,472.1011149999867,3.0,1.0,part_1,,,,,,,,,,,,,gray,circle
397.0,8.0,4.0,1.0,1.0,1.0,410.0252540001747,3.0,1.0,part_1,,,,,,,,,,,,,gray,circle
61.0,1.0,1.0,0.0,2.0,2.0,465.4921050000666,3.0,1.0,part_1,,,,,,,,,,,,,magenta,square
392.0,8.0,4.0,1.0,3.0,3.0,427.2212910000235,3.0,1.0,part_1,,,,,,,,,,,,,gray,circle
40.0,5.0,1.0,1.0,2.0,2.0,416.5911049999522,3.0,1.0,part_1,,,,,,,,,,,,,yellow,hexagon
0.0,7.0,0.0,1.0,2.0,2.0,519.7172860002865,3.0,1.0,part_1,,,,,,,,,,,,,orange,diamond
0.0,5.0,0.0,1.0,3.0,3.0,594.0251960000751,3.0,1.0,part_1,,,,,,,,,,,,,yellow,hexagon
77.0,2.0,2.0,0.0,4.0,4.0,598.4861990000354,4.0,1.0,part_1,,,,,,,,,,,,,green,I
0.0,1.0,0.0,0.0,1.0,1.0,346.9746019995909,4.0,1.0,part_1,,,,,,,,,,,,,magenta,square
0.0,8.0,0.0,1.0,3.0,3.0,431.873072000144,4.0,1.0,part_1,,,,,,,,,,,,,gray,circle
32.0,5.0,1.0,1.0,4.0,4.0,396.64904100027337,4.0,1.0,part_1,,,,,,,,,,,,,yellow,hexagon
377.0,8.0,4.0,1.0,4.0,4.0,416.3366839998161,4.0,1.0,part_1,,,,,,,,,,,,,gray,circle
177.0,7.0,3.0,1.0,2.0,2.0,480.7921500000702,4.0,1.0,part_1,,,,,,,,,,,,,orange,diamond
0.0,3.0,0.0,0.0,4.0,4.0,508.8569990002725,4.0,1.0,part_1,,,,,,,,,,,,,blue,flipped triangle
0.0,7.0,0.0,1.0,3.0,3.0,473.1924630000321,4.0,1.0,part_1,,,,,,,,,,,,,orange,diamond
0.0,4.0,0.0,0.0,1.0,1.0,411.5625589997762,4.0,1.0,part_1,,,,,,,,,,,,,white,cross
201.0,7.0,3.0,1.0,2.0,2.0,672.6684019999993,4.0,1.0,part_1,,,,,,,,,,,,,orange,diamond
48.0,5.0,1.0,1.0,4.0,4.0,646.583720000308,4.0,1.0,part_1,,,,,,,,,,,,,yellow,hexagon
73.0,5.0,1.0,1.0,2.0,2.0,524.7949499998867,4.0,1.0,part_1,,,,,,,,,,,,,yellow,hexagon
113.0,6.0,2.0,1.0,1.0,1.0,510.8247120001579,4.0,1.0,part_1,,,,,,,,,,,,,cyan,triangle
401.0,8.0,4.0,1.0,4.0,4.0,362.6303159999224,4.0,1.0,part_1,,,,,,,,,,,,,gray,circle
205.0,3.0,3.0,0.0,1.0,1.0,753.0067180000515,4.0,1.0,part_1,,,,,,,,,,,,,blue,flipped triangle
74.0,5.0,1.0,1.0,4.0,4.0,469.0040479999879,4.0,1.0,part_1,,,,,,,,,,,,,yellow,hexagon
97.0,6.0,2.0,1.0,3.0,3.0,441.0747440001614,4.0,1.0,part_1,,,,,,,,,,,,,cyan,triangle
54.0,1.0,1.0,0.0,2.0,2.0,501.65080500028125,4.0,1.0,part_1,,,,,,,,,,,,,magenta,square
115.0,6.0,2.0,1.0,2.0,2.0,540.4794900000525,4.0,1.0,part_1,,,,,,,,,,,,,cyan,triangle
201.0,3.0,3.0,0.0,4.0,4.0,449.6075350002684,4.0,1.0,part_1,,,,,,,,,,,,,blue,flipped triangle
221.0,7.0,3.0,1.0,4.0,4.0,422.7495540003474,4.0,1.0,part_1,,,,,,,,,,,,,orange,diamond
413.0,8.0,4.0,1.0,3.0,3.0,660.4888390002088,4.0,1.0,part_1,,,,,,,,,,,,,gray,circle
186.0,7.0,3.0,1.0,4.0,4.0,533.2243729999391,4.0,1.0,part_1,,,,,,,,,,,,,orange,diamond
0.0,4.0,0.0,0.0,2.0,2.0,409.086679000211,4.0,1.0,part_1,,,,,,,,,,,,,white,cross
64.0,5.0,1.0,1.0,2.0,2.0,457.1164859999044,4.0,1.0,part_1,,,,,,,,,,,,,yellow,hexagon
46.0,5.0,1.0,1.0,2.0,2.0,573.4550429997398,4.0,1.0,part_1,,,,,,,,,,,,,yellow,hexagon
420.0,4.0,4.0,0.0,1.0,1.0,568.1444370002282,4.0,1.0,part_1,,,,,,,,,,,,,white,cross
382.0,4.0,4.0,0.0,2.0,2.0,542.4086609996266,4.0,1.0,part_1,,,,,,,,,,,,,white,cross
0.0,1.0,0.0,0.0,4.0,4.0,620.4297379999844,4.0,1.0,part_1,,,,,,,,,,,,,magenta,square
186.0,3.0,3.0,0.0,3.0,3.0,352.0237600000655,4.0,1.0,part_1,,,,,,,,,,,,,blue,flipped triangle
0.0,3.0,0.0,0.0,1.0,1.0,458.507248999922,4.0,1.0,part_1,,,,,,,,,,,,,blue,flipped triangle
178.0,7.0,3.0,1.0,4.0,4.0,392.2613289996661,4.0,1.0,part_1,,,,,,,,,,,,,orange,diamond
0.0,7.0,0.0,1.0,3.0,3.0,550.6416090001949,4.0,1.0,part_1,,,,,,,,,,,,,orange,diamond
94.0,2.0,2.0,0.0,1.0,1.0,439.1643890003252,4.0,2.0,part_1,,,,,,,,,,,,,green,I
99.0,2.0,2.0,0.0,3.0,3.0,469.2008199999691,4.0,1.0,part_1,,,,,,,,,,,,,green,I
84.0,6.0,2.0,1.0,2.0,2.0,383.3517900002334,4.0,1.0,part_1,,,,,,,,,,,,,cyan,triangle
105.0,2.0,2.0,0.0,3.0,3.0,443.2522850001987,4.0,1.0,part_1,,,,,,,,,,,,,green,I
0.0,8.0,0.0,1.0,1.0,1.0,457.7402849999998,4.0,1.0,part_1,,,,,,,,,,,,,gray,circle
83.0,6.0,2.0,1.0,1.0,1.0,436.7710860001352,4.0,1.0,part_1,,,,,,,,,,,,,cyan,triangle
0.0,8.0,0.0,1.0,3.0,3.0,405.1554210000176,4.0,1.0,part_1,,,,,,,,,,,,,gray,circle
39.0,1.0,1.0,0.0,3.0,3.0,385.0932589998592,4.0,1.0,part_1,,,,,,,,,,,,,magenta,square
118.0,6.0,2.0,1.0,1.0,1.0,450.8055870001044,4.0,1.0,part_1,,,,,,,,,,,,,cyan,triangle
75.0,5.0,1.0,1.0,4.0,4.0,376.3689279999198,4.0,1.0,part_1,,,,,,,,,,,,,yellow,hexagon
411.0,4.0,4.0,0.0,3.0,3.0,447.87082799985,4.0,1.0,part_1,,,,,,,,,,,,,white,cross
98.0,2.0,2.0,0.0,3.0,3.0,451.7362090000461,4.0,1.0,part_1,,,,,,,,,,,,,green,I
0.0,3.0,0.0,0.0,1.0,1.0,784.6490969996012,4.0,1.0,part_1,,,,,,,,,,,,,blue,flipped triangle
118.0,2.0,2.0,0.0,1.0,1.0,500.7941940002638,4.0,1.0,part_1,,,,,,,,,,,,,green,I
201.0,3.0,3.0,0.0,1.0,1.0,466.1238849998881,4.0,1.0,part_1,,,,,,,,,,,,,blue,flipped triangle
27.0,5.0,1.0,1.0,3.0,3.0,396.404007000001,4.0,1.0,part_1,,,,,,,,,,,,,yellow,hexagon
209.0,7.0,3.0,1.0,3.0,3.0,378.8169849999576,4.0,1.0,part_1,,,,,,,,,,,,,orange,diamond
424.0,8.0,4.0,1.0,4.0,4.0,445.0423339999361,4.0,1.0,part_1,,,,,,,,,,,,,gray,circle
40.0,1.0,1.0,0.0,4.0,4.0,522.5136129997736,4.0,1.0,part_1,,,,,,,,,,,,,magenta,square
92.0,6.0,2.0,1.0,2.0,2.0,481.0573079998903,4.0,1.0,part_1,,,,,,,,,,,,,cyan,triangle
395.0,8.0,4.0,1.0,3.0,3.0,586.9527080003536,4.0,1.0,part_1,,,,,,,,,,,,,gray,circle
0.0,8.0,0.0,1.0,3.0,3.0,408.5470780000833,4.0,1.0,part_1,,,,,,,,,,,,,gray,circle
61.0,5.0,1.0,1.0,3.0,3.0,436.9457029997647,4.0,1.0,part_1,,,,,,,,,,,,,yellow,hexagon
383.0,4.0,4.0,0.0,4.0,4.0,585.7770010002241,4.0,1.0,part_1,,,,,,,,,,,,,white,cross
0.0,7.0,0.0,1.0,4.0,4.0,455.5006519999551,4.0,1.0,part_1,,,,,,,,,,,,,orange,diamond
412.0,8.0,4.0,1.0,1.0,1.0,435.4097049999836,4.0,1.0,part_1,,,,,,,,,,,,,gray,circle
60.0,1.0,1.0,0.0,4.0,4.0,449.3775840001035,4.0,1.0,part_1,,,,,,,,,,,,,magenta,square
116.0,2.0,2.0,0.0,4.0,4.0,406.8862220001392,4.0,1.0,part_1,,,,,,,,,,,,,green,I
377.0,4.0,4.0,0.0,3.0,3.0,410.3130009998494,4.0,1.0,part_1,,,,,,,,,,,,,white,cross
76.0,6.0,2.0,1.0,3.0,3.0,496.3552399999571,4.0,1.0,part_1,,,,,,,,,,,,,cyan,triangle
0.0,7.0,0.0,1.0,4.0,4.0,524.1093079998791,4.0,1.0,part_1,,,,,,,,,,,,,orange,diamond
0.0,5.0,0.0,1.0,1.0,1.0,560.958262999975,4.0,1.0,part_1,,,,,,,,,,,,,yellow,hexagon
403.0,4.0,4.0,0.0,3.0,3.0,475.2343170002859,4.0,1.0,part_1,,,,,,,,,,,,,white,cross
396.0,8.0,4.0,1.0,1.0,1.0,561.334848000115,4.0,1.0,part_1,,,,,,,,,,,,,gray,circle
188.0,7.0,3.0,1.0,3.0,3.0,542.4735800002054,4.0,1.0,part_1,,,,,,,,,,,,,orange,diamond
0.0,4.0,0.0,0.0,3.0,3.0,466.190971999822,4.0,1.0,part_1,,,,,,,,,,,,,white,cross
0.0,2.0,0.0,0.0,1.0,1.0,495.692045999931,4.0,1.0,part_1,,,,,,,,,,,,,green,I
30.0,5.0,1.0,1.0,1.0,1.0,411.5437579998797,4.0,1.0,part_1,,,,,,,,,,,,,yellow,hexagon
67.0,1.0,1.0,0.0,1.0,1.0,447.4455889999262,4.0,1.0,part_1,,,,,,,,,,,,,magenta,square
119.0,2.0,2.0,0.0,4.0,4.0,548.1100110000625,4.0,1.0,part_1,,,,,,,,,,,,,green,I
0.0,8.0,0.0,1.0,1.0,1.0,697.0458770001642,4.0,1.0,part_1,,,,,,,,,,,,,gray,circle
395.0,4.0,4.0,0.0,2.0,2.0,541.9416130002901,4.0,1.0,part_1,,,,,,,,,,,,,white,cross
41.0,5.0,1.0,1.0,1.0,1.0,413.6693229997945,4.0,1.0,part_1,,,,,,,,,,,,,yellow,hexagon
0.0,3.0,0.0,0.0,4.0,4.0,430.5183970000144,4.0,1.0,part_1,,,,,,,,,,,,,blue,flipped triangle
30.0,1.0,1.0,0.0,2.0,2.0,459.5524040000782,4.0,1.0,part_1,,,,,,,,,,,,,magenta,square
86.0,6.0,2.0,1.0,4.0,4.0,476.2475120000999,4.0,1.0,part_1,,,,,,,,,,,,,cyan,triangle
64.0,1.0,1.0,0.0,3.0,3.0,440.51212400017897,4.0,1.0,part_1,,,,,,,,,,,,,magenta,square
0.0,6.0,0.0,1.0,4.0,4.0,564.7173639999892,4.0,1.0,part_1,,,,,,,,,,,,,cyan,triangle
0.0,2.0,0.0,0.0,4.0,4.0,447.1320960001321,4.0,1.0,part_1,,,,,,,,,,,,,green,I
30.0,5.0,1.0,1.0,1.0,1.0,478.8498990001244,4.0,1.0,part_1,,,,,,,,,,,,,yellow,hexagon
65.0,1.0,1.0,0.0,1.0,1.0,439.7066459996495,4.0,1.0,part_1,,,,,,,,,,,,,magenta,square
114.0,2.0,2.0,0.0,3.0,3.0,655.2737100000741,4.0,1.0,part_1,,,,,,,,,,,,,green,I
215.0,3.0,3.0,0.0,2.0,2.0,572.0932440003708,4.0,1.0,part_1,,,,,,,,,,,,,blue,flipped triangle
56.0,1.0,1.0,0.0,4.0,4.0,457.7099120001549,4.0,1.0,part_1,,,,,,,,,,,,,magenta,square
70.0,5.0,1.0,1.0,1.0,1.0,422.198551999827,4.0,1.0,part_1,,,,,,,,,,,,,yellow,hexagon
216.0,3.0,3.0,0.0,1.0,1.0,495.5040130002999,4.0,1.0,part_1,,,,,,,,,,,,,blue,flipped triangle
183.0,3.0,3.0,0.0,4.0,4.0,439.7334680002132,4.0,1.0,part_1,,,,,,,,,,,,,blue,flipped triangle
176.0,3.0,3.0,0.0,4.0,4.0,513.3244710000326,4.0,1.0,part_1,,,,,,,,,,,,,blue,flipped triangle
180.0,3.0,3.0,0.0,4.0,4.0,478.9770970000973,4.0,1.0,part_1,,,,,,,,,,,,,blue,flipped triangle
205.0,3.0,3.0,0.0,1.0,1.0,516.1734859998433,4.0,1.0,part_1,,,,,,,,,,,,,blue,flipped triangle
394.0,8.0,4.0,1.0,2.0,2.0,792.4162020003678,4.0,1.0,part_1,,,,,,,,,,,,,gray,circle
186.0,3.0,3.0,0.0,4.0,4.0,483.8047439998263,4.0,1.0,part_1,,,,,,,,,,,,,blue,flipped triangle
211.0,7.0,3.0,1.0,4.0,4.0,348.629259000063,4.0,2.0,part_1,,,,,,,,,,,,,orange,diamond
421.0,8.0,4.0,1.0,2.0,2.0,464.8936899998261,4.0,1.0,part_1,,,,,,,,,,,,,gray,circle
41.0,1.0,1.0,0.0,2.0,2.0,381.6557560003275,4.0,1.0,part_1,,,,,,,,,,,,,magenta,square
103.0,6.0,2.0,1.0,3.0,3.0,397.8611630000159,4.0,1.0,part_1,,,,,,,,,,,,,cyan,triangle
94.0,6.0,2.0,1.0,3.0,3.0,488.0261809998956,4.0,1.0,part_1,,,,,,,,,,,,,cyan,triangle
0.0,6.0,2.0,1.0,5.0,5.0,567.5474129998292,1.0,0.0,part_2,stop,250.0,250.0,3.0,,,,,,,,,cyan,triangle
0.0,3.0,3.0,0.0,6.0,6.0,711.907087000327,1.0,0.0,part_2,go,200.0,250.0,1.0,,,,,,,,,blue,flipped triangle
0.0,8.0,4.0,1.0,6.0,0.0,0.0,1.0,0.0,part_2,stop,200.0,250.0,4.0,,,,,,,,,gray,circle
0.0,8.0,4.0,1.0,5.0,5.0,586.791711999922,1.0,0.0,part_2,go,200.0,300.0,1.0,,,,,,,,,gray,circle
0.0,4.0,4.0,0.0,6.0,6.0,590.1354980001088,1.0,0.0,part_2,go,200.0,300.0,1.0,,,,,,,,,white,cross
0.0,4.0,4.0,0.0,6.0,6.0,641.6330049996759,1.0,0.0,part_2,go,200.0,300.0,1.0,,,,,,,,,white,cross
0.0,5.0,1.0,1.0,5.0,5.0,804.8379489996478,1.0,0.0,part_2,stop,200.0,300.0,3.0,,,,,,,,,yellow,hexagon
0.0,5.0,1.0,1.0,6.0,0.0,0.0,1.0,0.0,part_2,stop,150.0,300.0,4.0,,,,,,,,,yellow,hexagon
0.0,2.0,2.0,0.0,5.0,5.0,834.9377339995954,1.0,0.0,part_2,go,150.0,350.0,1.0,,,,,,,,,green,I
0.0,6.0,2.0,1.0,5.0,5.0,735.383241999898,1.0,0.0,part_2,go,150.0,350.0,1.0,,,,,,,,,cyan,triangle
0.0,4.0,4.0,0.0,6.0,6.0,775.8064380000178,1.0,0.0,part_2,go,150.0,350.0,1.0,,,,,,,,,white,cross
0.0,7.0,3.0,1.0,6.0,0.0,0.0,1.0,0.0,part_2,stop,150.0,350.0,4.0,,,,,,,,,orange,diamond
0.0,4.0,4.0,0.0,6.0,6.0,703.4343309996984,1.0,0.0,part_2,go,150.0,400.0,1.0,,,,,,,,,white,cross
0.0,6.0,2.0,1.0,5.0,5.0,757.6215310000407,1.0,0.0,part_2,go,150.0,400.0,1.0,,,,,,,,,cyan,triangle
0.0,5.0,1.0,1.0,5.0,0.0,0.0,1.0,0.0,part_2,stop,150.0,400.0,4.0,,,,,,,,,yellow,hexagon
0.0,7.0,3.0,1.0,6.0,6.0,596.4492970001629,1.0,0.0,part_2,go,200.0,400.0,1.0,,,,,,,,,orange,diamond
0.0,2.0,2.0,0.0,5.0,5.0,599.3709800000033,1.0,0.0,part_2,go,200.0,400.0,1.0,,,,,,,,,green,I
0.0,5.0,1.0,1.0,6.0,6.0,518.338889000006,1.0,0.0,part_2,go,200.0,400.0,1.0,,,,,,,,,yellow,hexagon
0.0,5.0,1.0,1.0,6.0,0.0,0.0,1.0,0.0,part_2,stop,200.0,400.0,4.0,,,,,,,,,yellow,hexagon
0.0,2.0,2.0,0.0,5.0,5.0,636.3993410000148,1.0,0.0,part_2,go,200.0,450.0,1.0,,,,,,,,,green,I
0.0,2.0,2.0,0.0,6.0,6.0,657.3196730000745,1.0,0.0,part_2,go,200.0,450.0,1.0,,,,,,,,,green,I
0.0,7.0,3.0,1.0,5.0,0.0,0.0,1.0,0.0,part_2,stop,200.0,450.0,4.0,,,,,,,,,orange,diamond
0.0,1.0,1.0,0.0,5.0,5.0,723.6673799998243,1.0,0.0,part_2,go,250.0,450.0,1.0,,,,,,,,,magenta,square
0.0,5.0,1.0,1.0,5.0,0.0,0.0,1.0,0.0,part_2,stop,250.0,450.0,4.0,,,,,,,,,yellow,hexagon
0.0,8.0,4.0,1.0,6.0,0.0,0.0,1.0,0.0,part_2,stop,300.0,450.0,4.0,,,,,,,,,gray,circle
0.0,2.0,2.0,0.0,6.0,6.0,615.4074169999149,1.0,0.0,part_2,go,300.0,500.0,1.0,,,,,,,,,green,I
0.0,5.0,1.0,1.0,6.0,6.0,1047.15369700034,1.0,0.0,part_2,go,300.0,500.0,1.0,,,,,,,,,yellow,hexagon
0.0,4.0,4.0,0.0,5.0,5.0,1113.9934620000531,1.0,0.0,part_2,go,300.0,500.0,1.0,,,,,,,,,white,cross
0.0,8.0,4.0,1.0,5.0,0.0,0.0,1.0,0.0,part_2,stop,300.0,500.0,4.0,,,,,,,,,gray,circle
0.0,7.0,3.0,1.0,5.0,0.0,0.0,1.0,0.0,part_2,stop,350.0,500.0,4.0,,,,,,,,,orange,diamond
0.0,8.0,4.0,1.0,5.0,0.0,0.0,1.0,0.0,part_2,stop,400.0,500.0,4.0,,,,,,,,,gray,circle
0.0,4.0,4.0,0.0,6.0,6.0,395.1996480000161,1.0,0.0,part_2,go,450.0,500.0,1.0,,,,,,,,,white,cross
0.0,7.0,3.0,1.0,6.0,6.0,653.8243379995947,1.0,0.0,part_2,stop,450.0,500.0,3.0,,,,,,,,,orange,diamond
0.0,4.0,4.0,0.0,6.0,6.0,954.8380760002146,1.0,0.0,part_2,go,450.0,450.0,1.0,,,,,,,,,white,cross
0.0,8.0,4.0,1.0,5.0,0.0,0.0,1.0,0.0,part_2,stop,450.0,450.0,4.0,,,,,,,,,gray,circle
0.0,2.0,2.0,0.0,5.0,5.0,561.2790400000449,1.0,0.0,part_2,go,500.0,450.0,1.0,,,,,,,,,green,I
0.0,3.0,3.0,0.0,5.0,0.0,0.0,2.0,0.0,part_2,go,500.0,450.0,5.0,,,,,,,,,blue,flipped triangle
0.0,8.0,4.0,1.0,6.0,0.0,0.0,2.0,0.0,part_2,stop,500.0,450.0,4.0,,,,,,,,,gray,circle
0.0,2.0,2.0,0.0,6.0,6.0,1227.0011479999994,2.0,0.0,part_2,go,500.0,500.0,1.0,,,,,,,,,green,I
0.0,6.0,2.0,1.0,5.0,5.0,579.8140599999897,2.0,0.0,part_2,stop,500.0,500.0,3.0,,,,,,,,,cyan,triangle
0.0,3.0,3.0,0.0,6.0,6.0,425.810900000215,2.0,0.0,part_2,go,450.0,500.0,1.0,,,,,,,,,blue,flipped triangle
0.0,5.0,1.0,1.0,6.0,6.0,573.2447749996936,2.0,0.0,part_2,stop,450.0,500.0,3.0,,,,,,,,,yellow,hexagon
0.0,4.0,4.0,0.0,6.0,6.0,924.0444089996344,2.0,0.0,part_2,go,450.0,450.0,1.0,,,,,,,,,white,cross
0.0,8.0,4.0,1.0,6.0,0.0,0.0,2.0,0.0,part_2,stop,450.0,450.0,4.0,,,,,,,,,gray,circle
0.0,3.0,3.0,0.0,6.0,6.0,736.6636599999765,2.0,0.0,part_2,go,450.0,500.0,1.0,,,,,,,,,blue,flipped triangle
0.0,7.0,3.0,1.0,5.0,5.0,912.233563999962,2.0,0.0,part_2,go,450.0,500.0,1.0,,,,,,,,,orange,diamond
0.0,6.0,2.0,1.0,6.0,6.0,753.8945430001149,2.0,0.0,part_2,stop,450.0,500.0,3.0,,,,,,,,,cyan,triangle
0.0,5.0,1.0,1.0,5.0,5.0,744.0527600001587,2.0,0.0,part_2,stop,450.0,450.0,3.0,,,,,,,,,yellow,hexagon
0.0,2.0,2.0,0.0,5.0,5.0,745.4715680000845,2.0,0.0,part_2,go,400.0,450.0,1.0,,,,,,,,,green,I
0.0,6.0,2.0,1.0,5.0,0.0,0.0,2.0,0.0,part_2,stop,400.0,450.0,4.0,,,,,,,,,cyan,triangle
0.0,2.0,2.0,0.0,6.0,6.0,856.0044019995985,2.0,0.0,part_2,go,450.0,450.0,1.0,,,,,,,,,green,I
0.0,8.0,4.0,1.0,5.0,0.0,0.0,2.0,0.0,part_2,stop,450.0,450.0,4.0,,,,,,,,,gray,circle
0.0,3.0,3.0,0.0,5.0,5.0,709.5725479998691,2.0,0.0,part_2,go,500.0,450.0,1.0,,,,,,,,,blue,flipped triangle
0.0,1.0,1.0,0.0,5.0,0.0,0.0,2.0,0.0,part_2,go,500.0,450.0,5.0,,,,,,,,,magenta,square
0.0,6.0,2.0,1.0,6.0,0.0,0.0,2.0,0.0,part_2,stop,500.0,450.0,4.0,,,,,,,,,cyan,triangle
0.0,6.0,2.0,1.0,5.0,1.0,1202.951769000265,2.0,0.0,part_2,go,500.0,500.0,2.0,,,,,,,,,cyan,triangle
0.0,8.0,4.0,1.0,6.0,6.0,796.1462070002199,2.0,0.0,part_2,stop,500.0,500.0,3.0,,,,,,,,,gray,circle
0.0,1.0,1.0,0.0,6.0,6.0,737.1349989998635,2.0,0.0,part_2,go,500.0,450.0,1.0,,,,,,,,,magenta,square
0.0,4.0,4.0,0.0,6.0,6.0,897.5851640002475,2.0,0.0,part_2,go,500.0,450.0,1.0,,,,,,,,,white,cross
0.0,1.0,1.0,0.0,5.0,5.0,1159.8714860001564,2.0,0.0,part_2,go,500.0,450.0,1.0,,,,,,,,,magenta,square
0.0,3.0,3.0,0.0,6.0,6.0,622.7465570000277,2.0,0.0,part_2,go,500.0,450.0,1.0,,,,,,,,,blue,flipped triangle
0.0,3.0,3.0,0.0,6.0,6.0,944.7157419999712,2.0,0.0,part_2,go,500.0,450.0,1.0,,,,,,,,,blue,flipped triangle
0.0,3.0,3.0,0.0,5.0,5.0,898.1166329999724,2.0,0.0,part_2,go,500.0,450.0,1.0,,,,,,,,,blue,flipped triangle
0.0,7.0,3.0,1.0,5.0,0.0,0.0,2.0,0.0,part_2,stop,500.0,450.0,4.0,,,,,,,,,orange,diamond
0.0,1.0,1.0,0.0,6.0,6.0,657.0882440000787,2.0,0.0,part_2,go,550.0,450.0,1.0,,,,,,,,,magenta,square
0.0,3.0,3.0,0.0,5.0,5.0,830.9128079999937,2.0,0.0,part_2,go,550.0,450.0,1.0,,,,,,,,,blue,flipped triangle
0.0,4.0,4.0,0.0,5.0,5.0,854.8000410000895,2.0,0.0,part_2,go,550.0,450.0,1.0,,,,,,,,,white,cross
0.0,7.0,3.0,1.0,6.0,0.0,0.0,2.0,0.0,part_2,stop,550.0,450.0,4.0,,,,,,,,,orange,diamond
0.0,6.0,2.0,1.0,6.0,6.0,738.4691100000964,2.0,0.0,part_2,go,550.0,500.0,1.0,,,,,,,,,cyan,triangle
0.0,7.0,3.0,1.0,5.0,0.0,0.0,2.0,0.0,part_2,stop,550.0,500.0,4.0,,,,,,,,,orange,diamond
0.0,6.0,2.0,1.0,6.0,6.0,667.5310179998633,2.0,0.0,part_2,go,600.0,500.0,1.0,,,,,,,,,cyan,triangle
0.0,2.0,2.0,0.0,6.0,6.0,881.0714189999089,2.0,0.0,part_2,go,600.0,500.0,1.0,,,,,,,,,green,I
0.0,2.0,2.0,0.0,5.0,5.0,995.9176949996618,3.0,0.0,part_2,go,600.0,500.0,1.0,,,,,,,,,green,I
0.0,2.0,2.0,0.0,6.0,6.0,411.3382309997178,3.0,0.0,part_2,go,600.0,500.0,1.0,,,,,,,,,green,I
0.0,5.0,1.0,1.0,5.0,5.0,348.3439680003357,3.0,0.0,part_2,stop,600.0,500.0,3.0,,,,,,,,,yellow,hexagon
0.0,3.0,3.0,0.0,6.0,6.0,411.2907819999236,3.0,0.0,part_2,go,550.0,500.0,1.0,,,,,,,,,blue,flipped triangle
0.0,5.0,1.0,1.0,6.0,6.0,523.709356999916,3.0,0.0,part_2,stop,550.0,500.0,3.0,,,,,,,,,yellow,hexagon
0.0,8.0,4.0,1.0,6.0,6.0,531.3150080000923,3.0,0.0,part_2,go,550.0,450.0,1.0,,,,,,,,,gray,circle
0.0,5.0,1.0,1.0,5.0,5.0,473.1663049997223,3.0,0.0,part_2,go,550.0,450.0,1.0,,,,,,,,,yellow,hexagon
0.0,6.0,2.0,1.0,5.0,5.0,672.308361999967,3.0,0.0,part_2,stop,550.0,450.0,3.0,,,,,,,,,cyan,triangle
0.0,4.0,4.0,0.0,5.0,5.0,1227.1387809996668,3.0,0.0,part_2,go,500.0,450.0,1.0,,,,,,,,,white,cross
0.0,8.0,4.0,1.0,5.0,5.0,489.5652560003327,3.0,0.0,part_2,go,500.0,450.0,1.0,,,,,,,,,gray,circle
0.0,3.0,3.0,0.0,5.0,5.0,736.5379560001202,3.0,0.0,part_2,go,500.0,450.0,1.0,,,,,,,,,blue,flipped triangle
0.0,5.0,1.0,1.0,5.0,5.0,318.721018999895,3.0,0.0,part_2,go,500.0,450.0,1.0,,,,,,,,,yellow,hexagon
0.0,4.0,4.0,0.0,6.0,6.0,647.8352330000234,3.0,0.0,part_2,go,500.0,450.0,1.0,,,,,,,,,white,cross
0.0,1.0,1.0,0.0,6.0,6.0,719.9928229997568,3.0,0.0,part_2,go,500.0,450.0,1.0,,,,,,,,,magenta,square
0.0,5.0,1.0,1.0,5.0,5.0,693.9174110002568,3.0,0.0,part_2,go,500.0,450.0,1.0,,,,,,,,,yellow,hexagon
0.0,4.0,4.0,0.0,5.0,5.0,812.4847479998607,3.0,0.0,part_2,go,500.0,450.0,1.0,,,,,,,,,white,cross
0.0,5.0,1.0,1.0,5.0,5.0,491.4336980000371,3.0,0.0,part_2,stop,500.0,450.0,3.0,,,,,,,,,yellow,hexagon
0.0,4.0,4.0,0.0,5.0,5.0,558.2826340000793,3.0,0.0,part_2,go,450.0,450.0,1.0,,,,,,,,,white,cross
0.0,8.0,4.0,1.0,6.0,0.0,0.0,3.0,0.0,part_2,stop,450.0,450.0,4.0,,,,,,,,,gray,circle
0.0,5.0,1.0,1.0,5.0,5.0,628.5057439999946,3.0,0.0,part_2,stop,450.0,500.0,3.0,,,,,,,,,yellow,hexagon
0.0,5.0,1.0,1.0,6.0,0.0,0.0,3.0,0.0,part_2,stop,400.0,500.0,4.0,,,,,,,,,yellow,hexagon
0.0,2.0,2.0,0.0,5.0,5.0,619.691469999907,3.0,0.0,part_2,go,400.0,550.0,1.0,,,,,,,,,green,I
0.0,7.0,3.0,1.0,5.0,0.0,0.0,3.0,0.0,part_2,stop,400.0,550.0,4.0,,,,,,,,,orange,diamond
0.0,4.0,4.0,0.0,6.0,6.0,562.6351480000267,3.0,0.0,part_2,go,450.0,550.0,1.0,,,,,,,,,white,cross
0.0,2.0,2.0,0.0,6.0,6.0,736.5078769998945,3.0,0.0,part_2,go,450.0,550.0,1.0,,,,,,,,,green,I
0.0,6.0,2.0,1.0,6.0,6.0,535.0287760002175,3.0,0.0,part_2,stop,450.0,550.0,3.0,,,,,,,,,cyan,triangle
0.0,6.0,2.0,1.0,6.0,0.0,0.0,3.0,0.0,part_2,stop,450.0,500.0,4.0,,,,,,,,,cyan,triangle
0.0,8.0,4.0,1.0,6.0,6.0,606.0685789998388,3.0,0.0,part_2,stop,450.0,550.0,3.0,,,,,,,,,gray,circle
0.0,1.0,1.0,0.0,6.0,6.0,806.8358730001819,3.0,0.0,part_2,go,450.0,500.0,1.0,,,,,,,,,magenta,square
0.0,7.0,3.0,1.0,6.0,6.0,807.9540280000401,3.0,0.0,part_2,go,450.0,500.0,1.0,,,,,,,,,orange,diamond
0.0,7.0,3.0,1.0,6.0,6.0,373.6251760001323,3.0,0.0,part_2,stop,450.0,500.0,3.0,,,,,,,,,orange,diamond
0.0,6.0,2.0,1.0,6.0,0.0,0.0,3.0,0.0,part_2,stop,450.0,450.0,4.0,,,,,,,,,cyan,triangle
0.0,6.0,2.0,1.0,6.0,6.0,732.5896449997344,3.0,0.0,part_2,go,450.0,500.0,1.0,,,,,,,,,cyan,triangle
0.0,1.0,1.0,0.0,5.0,5.0,613.7178510002741,3.0,0.0,part_2,go,450.0,500.0,1.0,,,,,,,,,magenta,square
0.0,1.0,1.0,0.0,6.0,6.0,635.8175309997023,3.0,0.0,part_2,go,450.0,500.0,1.0,,,,,,,,,magenta,square
0.0,1.0,1.0,0.0,6.0,6.0,540.1698949999627,3.0,0.0,part_2,go,450.0,500.0,1.0,,,,,,,,,magenta,square
0.0,6.0,2.0,1.0,5.0,5.0,525.0718970000889,4.0,0.0,part_2,stop,450.0,500.0,3.0,,,,,,,,,cyan,triangle
0.0,4.0,4.0,0.0,5.0,5.0,386.0803040001883,4.0,0.0,part_2,go,400.0,500.0,1.0,,,,,,,,,white,cross
0.0,4.0,4.0,0.0,6.0,6.0,360.9369189998688,4.0,0.0,part_2,go,400.0,500.0,1.0,,,,,,,,,white,cross
0.0,1.0,1.0,0.0,5.0,5.0,560.8831750000718,4.0,0.0,part_2,go,400.0,500.0,1.0,,,,,,,,,magenta,square
0.0,7.0,3.0,1.0,5.0,0.0,0.0,4.0,0.0,part_2,stop,400.0,500.0,4.0,,,,,,,,,orange,diamond
0.0,4.0,4.0,0.0,5.0,5.0,615.1477990001695,4.0,0.0,part_2,go,450.0,500.0,1.0,,,,,,,,,white,cross
0.0,7.0,3.0,1.0,5.0,5.0,528.7565660000837,4.0,0.0,part_2,stop,450.0,500.0,3.0,,,,,,,,,orange,diamond
0.0,8.0,4.0,1.0,5.0,5.0,417.147051000029,4.0,0.0,part_2,stop,400.0,500.0,3.0,,,,,,,,,gray,circle
0.0,3.0,3.0,0.0,5.0,5.0,407.8197670000918,4.0,0.0,part_2,go,350.0,500.0,1.0,,,,,,,,,blue,flipped triangle
0.0,8.0,4.0,1.0,5.0,5.0,541.658820000066,4.0,0.0,part_2,go,350.0,500.0,1.0,,,,,,,,,gray,circle
0.0,2.0,2.0,0.0,5.0,5.0,493.2291989998703,4.0,0.0,part_2,go,350.0,500.0,1.0,,,,,,,,,green,I
0.0,7.0,3.0,1.0,6.0,6.0,532.467147999796,4.0,0.0,part_2,go,350.0,500.0,1.0,,,,,,,,,orange,diamond
0.0,2.0,2.0,0.0,6.0,6.0,534.6469999999499,4.0,0.0,part_2,go,350.0,500.0,1.0,,,,,,,,,green,I
0.0,4.0,4.0,0.0,6.0,6.0,562.7381809999861,4.0,0.0,part_2,go,350.0,500.0,1.0,,,,,,,,,white,cross
0.0,6.0,2.0,1.0,5.0,5.0,395.3393420001703,4.0,0.0,part_2,stop,350.0,500.0,3.0,,,,,,,,,cyan,triangle
0.0,7.0,3.0,1.0,6.0,6.0,314.7370860001501,4.0,0.0,part_2,stop,300.0,500.0,3.0,,,,,,,,,orange,diamond
0.0,3.0,3.0,0.0,5.0,5.0,651.8342290000874,4.0,0.0,part_2,go,300.0,450.0,1.0,,,,,,,,,blue,flipped triangle
0.0,6.0,2.0,1.0,5.0,0.0,0.0,4.0,0.0,part_2,stop,300.0,450.0,4.0,,,,,,,,,cyan,triangle
0.0,7.0,3.0,1.0,5.0,0.0,0.0,4.0,0.0,part_2,stop,350.0,450.0,4.0,,,,,,,,,orange,diamond
0.0,2.0,2.0,0.0,6.0,6.0,472.6144500000373,4.0,0.0,part_2,go,400.0,450.0,1.0,,,,,,,,,green,I
0.0,8.0,4.0,1.0,5.0,0.0,0.0,4.0,0.0,part_2,stop,400.0,450.0,4.0,,,,,,,,,gray,circle
0.0,8.0,4.0,1.0,5.0,5.0,471.6796409998096,4.0,0.0,part_2,stop,450.0,450.0,3.0,,,,,,,,,gray,circle
0.0,1.0,1.0,0.0,6.0,6.0,463.9435389999562,4.0,0.0,part_2,go,400.0,450.0,1.0,,,,,,,,,magenta,square
0.0,3.0,3.0,0.0,5.0,5.0,521.1914529995738,4.0,0.0,part_2,go,400.0,450.0,1.0,,,,,,,,,blue,flipped triangle
0.0,6.0,2.0,1.0,6.0,6.0,356.8380140000045,4.0,0.0,part_2,stop,400.0,450.0,3.0,,,,,,,,,cyan,triangle
0.0,4.0,4.0,0.0,5.0,5.0,468.7550879998525,4.0,0.0,part_2,go,400.0,400.0,1.0,,,,,,,,,white,cross
0.0,2.0,2.0,0.0,5.0,5.0,331.7981460004375,4.0,0.0,part_2,go,400.0,400.0,1.0,,,,,,,,,green,I
0.0,8.0,4.0,1.0,6.0,6.0,323.1617450001067,4.0,0.0,part_2,stop,400.0,400.0,3.0,,,,,,,,,gray,circle
0.0,5.0,1.0,1.0,6.0,6.0,582.2206389998428,4.0,0.0,part_2,stop,400.0,350.0,3.0,,,,,,,,,yellow,hexagon
0.0,1.0,1.0,0.0,6.0,6.0,746.122147999813,4.0,0.0,part_2,go,400.0,300.0,1.0,,,,,,,,,magenta,square
0.0,3.0,3.0,0.0,6.0,6.0,617.1986360000119,4.0,0.0,part_2,go,400.0,300.0,1.0,,,,,,,,,blue,flipped triangle
0.0,5.0,1.0,1.0,6.0,0.0,0.0,4.0,0.0,part_2,stop,400.0,300.0,4.0,,,,,,,,,yellow,hexagon
0.0,5.0,1.0,1.0,6.0,0.0,0.0,4.0,0.0,part_2,stop,400.0,350.0,4.0,,,,,,,,,yellow,hexagon
0.0,1.0,1.0,0.0,5.0,5.0,475.9252769999875,4.0,0.0,part_2,go,400.0,400.0,1.0,,,,,,,,,magenta,square
0.0,2.0,2.0,0.0,5.0,5.0,689.3550969998614,4.0,0.0,part_2,go,400.0,400.0,1.0,,,,,,,,,green,I
0.0,4.0,4.0,0.0,6.0,6.0,537.9151409997576,4.0,0.0,part_2,go,400.0,400.0,1.0,,,,,,,,,white,cross
0.0,5.0,1.0,1.0,6.0,6.0,781.3917219996256,5.0,0.0,part_2,stop,400.0,400.0,3.0,,,,,,,,,yellow,hexagon
0.0,1.0,1.0,0.0,6.0,6.0,550.7422579999002,5.0,0.0,part_2,go,400.0,350.0,1.0,,,,,,,,,magenta,square
0.0,1.0,1.0,0.0,6.0,6.0,419.2101700000421,5.0,0.0,part_2,go,400.0,350.0,1.0,,,,,,,,,magenta,square
0.0,2.0,2.0,0.0,5.0,5.0,366.8694829998458,5.0,0.0,part_2,go,400.0,350.0,1.0,,,,,,,,,green,I
0.0,2.0,2.0,0.0,6.0,6.0,365.2122210000925,5.0,0.0,part_2,go,400.0,350.0,1.0,,,,,,,,,green,I
0.0,7.0,3.0,1.0,6.0,0.0,0.0,5.0,0.0,part_2,stop,400.0,350.0,4.0,,,,,,,,,orange,diamond
0.0,6.0,2.0,1.0,6.0,0.0,0.0,5.0,0.0,part_2,stop,400.0,400.0,4.0,,,,,,,,,cyan,triangle
0.0,7.0,3.0,1.0,5.0,5.0,365.0312740001027,5.0,0.0,part_2,go,400.0,450.0,1.0,,,,,,,,,orange,diamond
0.0,7.0,3.0,1.0,5.0,0.0,0.0,5.0,0.0,part_2,stop,400.0,450.0,4.0,,,,,,,,,orange,diamond
0.0,4.0,4.0,0.0,5.0,5.0,679.700337000213,5.0,0.0,part_2,go,450.0,450.0,1.0,,,,,,,,,white,cross
0.0,5.0,1.0,1.0,5.0,5.0,659.336840999913,5.0,0.0,part_2,go,450.0,450.0,1.0,,,,,,,,,yellow,hexagon
0.0,6.0,2.0,1.0,6.0,0.0,0.0,5.0,0.0,part_2,stop,450.0,450.0,4.0,,,,,,,,,cyan,triangle
0.0,2.0,2.0,0.0,6.0,6.0,703.9067129999239,5.0,0.0,part_2,go,450.0,500.0,1.0,,,,,,,,,green,I
0.0,4.0,4.0,0.0,5.0,5.0,592.9868920002264,5.0,0.0,part_2,go,450.0,500.0,1.0,,,,,,,,,white,cross
0.0,5.0,1.0,1.0,5.0,0.0,0.0,5.0,0.0,part_2,stop,450.0,500.0,4.0,,,,,,,,,yellow,hexagon
0.0,4.0,4.0,0.0,6.0,6.0,854.341432000183,5.0,0.0,part_2,go,500.0,500.0,1.0,,,,,,,,,white,cross
0.0,1.0,1.0,0.0,6.0,6.0,460.4340320001938,5.0,0.0,part_2,go,500.0,500.0,1.0,,,,,,,,,magenta,square
0.0,4.0,4.0,0.0,5.0,5.0,501.7255689999729,5.0,0.0,part_2,go,500.0,500.0,1.0,,,,,,,,,white,cross
0.0,3.0,3.0,0.0,6.0,6.0,316.6380620000382,5.0,0.0,part_2,go,500.0,500.0,1.0,,,,,,,,,blue,flipped triangle
0.0,5.0,1.0,1.0,6.0,6.0,405.4715600000236,5.0,0.0,part_2,stop,500.0,500.0,3.0,,,,,,,,,yellow,hexagon
0.0,5.0,1.0,1.0,6.0,6.0,540.9992499999134,5.0,0.0,part_2,stop,500.0,450.0,3.0,,,,,,,,,yellow,hexagon
0.0,6.0,2.0,1.0,5.0,5.0,371.0148350000963,5.0,0.0,part_2,go,500.0,400.0,1.0,,,,,,,,,cyan,triangle
0.0,3.0,3.0,0.0,5.0,5.0,674.5122950001132,5.0,0.0,part_2,go,500.0,400.0,1.0,,,,,,,,,blue,flipped triangle
0.0,1.0,1.0,0.0,6.0,6.0,416.6012600003341,5.0,0.0,part_2,go,500.0,400.0,1.0,,,,,,,,,magenta,square
0.0,8.0,4.0,1.0,5.0,5.0,307.4689719996968,5.0,0.0,part_2,go,500.0,400.0,1.0,,,,,,,,,gray,circle
0.0,6.0,2.0,1.0,5.0,5.0,328.7461660002009,5.0,0.0,part_2,stop,500.0,400.0,3.0,,,,,,,,,cyan,triangle
0.0,8.0,4.0,1.0,6.0,6.0,456.2004449999222,5.0,0.0,part_2,go,450.0,400.0,1.0,,,,,,,,,gray,circle
0.0,2.0,2.0,0.0,6.0,6.0,552.2074089999478,5.0,0.0,part_2,go,450.0,400.0,1.0,,,,,,,,,green,I
0.0,2.0,2.0,0.0,6.0,6.0,575.832599000023,5.0,0.0,part_2,go,450.0,400.0,1.0,,,,,,,,,green,I
0.0,7.0,3.0,1.0,5.0,5.0,477.6596130000143,5.0,0.0,part_2,stop,450.0,400.0,3.0,,,,,,,,,orange,diamond
0.0,7.0,3.0,1.0,6.0,0.0,0.0,5.0,0.0,part_2,stop,400.0,400.0,4.0,,,,,,,,,orange,diamond
0.0,4.0,4.0,0.0,5.0,5.0,446.9546569998783,5.0,0.0,part_2,go,400.0,450.0,1.0,,,,,,,,,white,cross
0.0,5.0,1.0,1.0,5.0,5.0,395.5187050000859,5.0,0.0,part_2,stop,400.0,450.0,3.0,,,,,,,,,yellow,hexagon
0.0,6.0,2.0,1.0,5.0,0.0,0.0,5.0,0.0,part_2,stop,350.0,450.0,4.0,,,,,,,,,cyan,triangle
0.0,8.0,4.0,1.0,6.0,6.0,621.3621900001272,5.0,0.0,part_2,stop,400.0,450.0,3.0,,,,,,,,,gray,circle
0.0,4.0,4.0,0.0,6.0,6.0,620.7497869995677,5.0,0.0,part_2,go,400.0,400.0,1.0,,,,,,,,,white,cross
0.0,4.0,4.0,0.0,5.0,5.0,870.6951439999102,6.0,0.0,part_2,go,400.0,400.0,1.0,,,,,,,,,white,cross
0.0,4.0,4.0,0.0,6.0,6.0,574.4055010000011,6.0,0.0,part_2,go,400.0,400.0,1.0,,,,,,,,,white,cross
0.0,1.0,1.0,0.0,6.0,6.0,365.353129000141,6.0,0.0,part_2,go,400.0,400.0,1.0,,,,,,,,,magenta,square
0.0,2.0,2.0,0.0,5.0,5.0,403.7453289997756,6.0,0.0,part_2,go,400.0,400.0,1.0,,,,,,,,,green,I
0.0,3.0,3.0,0.0,5.0,5.0,389.6110289997523,6.0,0.0,part_2,go,400.0,400.0,1.0,,,,,,,,,blue,flipped triangle
0.0,1.0,1.0,0.0,6.0,6.0,411.0690850002356,6.0,0.0,part_2,go,400.0,400.0,1.0,,,,,,,,,magenta,square
0.0,1.0,1.0,0.0,6.0,6.0,397.0632979999209,6.0,0.0,part_2,go,400.0,400.0,1.0,,,,,,,,,magenta,square
0.0,8.0,4.0,1.0,6.0,0.0,0.0,6.0,0.0,part_2,stop,400.0,400.0,4.0,,,,,,,,,gray,circle
0.0,1.0,1.0,0.0,5.0,5.0,515.0369429998136,6.0,0.0,part_2,go,400.0,450.0,1.0,,,,,,,,,magenta,square
0.0,8.0,4.0,1.0,6.0,6.0,425.9821969999393,6.0,0.0,part_2,stop,400.0,450.0,3.0,,,,,,,,,gray,circle
0.0,1.0,1.0,0.0,5.0,5.0,633.4340690000317,6.0,0.0,part_2,go,400.0,400.0,1.0,,,,,,,,,magenta,square
0.0,4.0,4.0,0.0,6.0,6.0,457.8962759997012,6.0,0.0,part_2,go,400.0,400.0,1.0,,,,,,,,,white,cross
0.0,8.0,4.0,1.0,5.0,5.0,353.2105680001223,6.0,0.0,part_2,stop,400.0,400.0,3.0,,,,,,,,,gray,circle
0.0,6.0,2.0,1.0,6.0,6.0,313.6812549996648,6.0,0.0,part_2,stop,350.0,400.0,3.0,,,,,,,,,cyan,triangle
0.0,3.0,3.0,0.0,5.0,5.0,543.4089000000313,6.0,0.0,part_2,go,350.0,350.0,1.0,,,,,,,,,blue,flipped triangle
0.0,4.0,4.0,0.0,5.0,5.0,413.1420860003345,6.0,0.0,part_2,go,350.0,350.0,1.0,,,,,,,,,white,cross
0.0,2.0,2.0,0.0,6.0,6.0,534.4383199999356,6.0,0.0,part_2,go,350.0,350.0,1.0,,,,,,,,,green,I
0.0,6.0,2.0,1.0,6.0,6.0,428.4838700000364,6.0,0.0,part_2,stop,350.0,350.0,3.0,,,,,,,,,cyan,triangle
0.0,6.0,2.0,1.0,5.0,5.0,445.0268999999025,6.0,0.0,part_2,stop,350.0,300.0,3.0,,,,,,,,,cyan,triangle
0.0,2.0,2.0,0.0,5.0,5.0,501.77225900006306,6.0,0.0,part_2,go,300.0,300.0,1.0,,,,,,,,,green,I
0.0,7.0,3.0,1.0,5.0,5.0,405.4274449999866,6.0,0.0,part_2,stop,300.0,300.0,3.0,,,,,,,,,orange,diamond
0.0,5.0,1.0,1.0,5.0,0.0,0.0,6.0,0.0,part_2,stop,250.0,300.0,4.0,,,,,,,,,yellow,hexagon
0.0,8.0,4.0,1.0,5.0,0.0,0.0,6.0,0.0,part_2,stop,300.0,300.0,4.0,,,,,,,,,gray,circle
0.0,1.0,1.0,0.0,5.0,5.0,617.0370970003205,6.0,0.0,part_2,go,350.0,300.0,1.0,,,,,,,,,magenta,square
0.0,5.0,1.0,1.0,6.0,6.0,732.1169460001329,6.0,0.0,part_2,go,350.0,300.0,1.0,,,,,,,,,yellow,hexagon
0.0,3.0,3.0,0.0,6.0,6.0,768.0126310001469,6.0,0.0,part_2,go,350.0,300.0,1.0,,,,,,,,,blue,flipped triangle
0.0,4.0,4.0,0.0,5.0,5.0,655.1726940001572,6.0,0.0,part_2,go,350.0,300.0,1.0,,,,,,,,,white,cross
0.0,1.0,1.0,0.0,5.0,5.0,542.4638429999504,6.0,0.0,part_2,go,350.0,300.0,1.0,,,,,,,,,magenta,square
0.0,3.0,3.0,0.0,5.0,5.0,633.1650689999151,6.0,0.0,part_2,go,350.0,300.0,1.0,,,,,,,,,blue,flipped triangle
0.0,3.0,3.0,0.0,5.0,5.0,456.7431799996484,6.0,0.0,part_2,go,350.0,300.0,1.0,,,,,,,,,blue,flipped triangle
0.0,8.0,4.0,1.0,5.0,0.0,0.0,6.0,0.0,part_2,stop,350.0,300.0,4.0,,,,,,,,,gray,circle
0.0,7.0,3.0,1.0,6.0,6.0,839.4755680001253,6.0,0.0,part_2,stop,400.0,300.0,3.0,,,,,,,,,orange,diamond
0.0,1.0,1.0,0.0,5.0,5.0,391.971341000044,6.0,0.0,part_2,go,400.0,250.0,1.0,,,,,,,,,magenta,square
0.0,3.0,3.0,0.0,5.0,5.0,747.8380930001549,6.0,0.0,part_2,go,400.0,250.0,1.0,,,,,,,,,blue,flipped triangle
0.0,1.0,1.0,0.0,5.0,5.0,563.0982580000818,6.0,0.0,part_2,go,400.0,250.0,1.0,,,,,,,,,magenta,square
0.0,6.0,2.0,1.0,5.0,0.0,0.0,6.0,0.0,part_2,stop,400.0,250.0,4.0,,,,,,,,,cyan,triangle
0.0,4.0,4.0,0.0,5.0,5.0,610.879205999936,7.0,0.0,part_2,go,450.0,250.0,1.0,,,,,,,,,white,cross
0.0,6.0,2.0,1.0,6.0,6.0,437.2918899998694,7.0,0.0,part_2,go,450.0,250.0,1.0,,,,,,,,,cyan,triangle
0.0,1.0,1.0,0.0,5.0,1.0,620.0958419999552,7.0,0.0,part_2,go,450.0,250.0,2.0,,,,,,,,,magenta,square
0.0,3.0,3.0,0.0,6.0,6.0,331.3470990001406,7.0,0.0,part_2,go,450.0,250.0,1.0,,,,,,,,,blue,flipped triangle
0.0,3.0,3.0,0.0,6.0,6.0,402.9055159999188,7.0,0.0,part_2,go,450.0,250.0,1.0,,,,,,,,,blue,flipped triangle
0.0,7.0,3.0,1.0,6.0,0.0,0.0,7.0,0.0,part_2,stop,450.0,250.0,4.0,,,,,,,,,orange,diamond
0.0,6.0,2.0,1.0,5.0,5.0,346.6705509999883,7.0,0.0,part_2,stop,450.0,300.0,3.0,,,,,,,,,cyan,triangle
0.0,1.0,1.0,0.0,5.0,5.0,624.8498230002042,7.0,0.0,part_2,go,400.0,300.0,1.0,,,,,,,,,magenta,square
0.0,1.0,1.0,0.0,5.0,5.0,599.3115849996684,7.0,0.0,part_2,go,400.0,300.0,1.0,,,,,,,,,magenta,square
0.0,2.0,2.0,0.0,5.0,5.0,638.1924979996256,7.0,0.0,part_2,go,400.0,300.0,1.0,,,,,,,,,green,I
0.0,3.0,3.0,0.0,6.0,6.0,573.9499249998516,7.0,0.0,part_2,go,400.0,300.0,1.0,,,,,,,,,blue,flipped triangle
0.0,2.0,2.0,0.0,6.0,6.0,533.1156190000002,7.0,0.0,part_2,go,400.0,300.0,1.0,,,,,,,,,green,I
0.0,4.0,4.0,0.0,5.0,5.0,383.7589129998378,7.0,0.0,part_2,go,400.0,300.0,1.0,,,,,,,,,white,cross
0.0,5.0,1.0,1.0,5.0,5.0,430.0162099998488,7.0,0.0,part_2,stop,400.0,300.0,3.0,,,,,,,,,yellow,hexagon
0.0,2.0,2.0,0.0,6.0,6.0,710.6536549999873,7.0,0.0,part_2,go,350.0,300.0,1.0,,,,,,,,,green,I
0.0,3.0,3.0,0.0,6.0,6.0,651.3197499998569,7.0,0.0,part_2,go,350.0,300.0,1.0,,,,,,,,,blue,flipped triangle
0.0,7.0,3.0,1.0,5.0,0.0,0.0,7.0,0.0,part_2,stop,350.0,300.0,4.0,,,,,,,,,orange,diamond
0.0,4.0,4.0,0.0,6.0,6.0,580.7857899999362,7.0,0.0,part_2,go,400.0,300.0,1.0,,,,,,,,,white,cross
0.0,5.0,1.0,1.0,6.0,0.0,0.0,7.0,0.0,part_2,stop,400.0,300.0,4.0,,,,,,,,,yellow,hexagon
0.0,6.0,2.0,1.0,5.0,5.0,555.8502809999482,7.0,0.0,part_2,stop,400.0,350.0,3.0,,,,,,,,,cyan,triangle
0.0,5.0,1.0,1.0,5.0,0.0,0.0,7.0,0.0,part_2,stop,350.0,350.0,4.0,,,,,,,,,yellow,hexagon
0.0,8.0,4.0,1.0,5.0,5.0,591.0537320000913,7.0,0.0,part_2,go,400.0,350.0,1.0,,,,,,,,,gray,circle
0.0,3.0,3.0,0.0,6.0,6.0,423.8487789998544,7.0,0.0,part_2,go,400.0,350.0,1.0,,,,,,,,,blue,flipped triangle
0.0,7.0,3.0,1.0,5.0,5.0,392.767792000086,7.0,0.0,part_2,stop,400.0,350.0,3.0,,,,,,,,,orange,diamond
0.0,7.0,3.0,1.0,5.0,5.0,695.3989660000843,7.0,0.0,part_2,go,350.0,350.0,1.0,,,,,,,,,orange,diamond
0.0,8.0,4.0,1.0,6.0,0.0,0.0,7.0,0.0,part_2,stop,350.0,350.0,4.0,,,,,,,,,gray,circle
0.0,8.0,4.0,1.0,5.0,0.0,0.0,7.0,0.0,part_2,stop,350.0,400.0,4.0,,,,,,,,,gray,circle
0.0,7.0,3.0,1.0,5.0,5.0,638.4464570001,7.0,0.0,part_2,go,400.0,400.0,1.0,,,,,,,,,orange,diamond
0.0,3.0,3.0,0.0,5.0,5.0,706.8721959999493,7.0,0.0,part_2,go,400.0,400.0,1.0,,,,,,,,,blue,flipped triangle
0.0,3.0,3.0,0.0,6.0,6.0,485.4258679997656,7.0,0.0,part_2,go,400.0,400.0,1.0,,,,,,,,,blue,flipped triangle
0.0,6.0,2.0,1.0,5.0,0.0,0.0,7.0,0.0,part_2,stop,400.0,400.0,4.0,,,,,,,,,cyan,triangle
0.0,1.0,1.0,0.0,5.0,5.0,533.5177130000375,7.0,0.0,part_2,go,450.0,400.0,1.0,,,,,,,,,magenta,square
0.0,1.0,1.0,0.0,6.0,6.0,579.7815279997849,7.0,0.0,part_2,go,450.0,400.0,1.0,,,,,,,,,magenta,square
0.0,6.0,2.0,1.0,6.0,6.0,616.9018599998708,7.0,0.0,part_2,go,450.0,400.0,1.0,,,,,,,,,cyan,triangle
0.0,7.0,3.0,1.0,6.0,6.0,650.0598610000452,7.0,0.0,part_2,go,450.0,400.0,1.0,,,,,,,,,orange,diamond
0.0,1.0,1.0,0.0,6.0,6.0,641.5433100000882,7.0,0.0,part_2,go,450.0,400.0,1.0,,,,,,,,,magenta,square
0.0,7.0,3.0,1.0,6.0,6.0,618.956913999682,8.0,0.0,part_2,stop,450.0,400.0,3.0,,,,,,,,,orange,diamond
0.0,8.0,4.0,1.0,6.0,6.0,505.52296799969554,8.0,0.0,part_2,go,450.0,350.0,1.0,,,,,,,,,gray,circle
0.0,8.0,4.0,1.0,5.0,5.0,667.2689619999801,8.0,0.0,part_2,stop,450.0,350.0,3.0,,,,,,,,,gray,circle
0.0,7.0,3.0,1.0,6.0,0.0,0.0,8.0,0.0,part_2,stop,400.0,350.0,4.0,,,,,,,,,orange,diamond
0.0,8.0,4.0,1.0,6.0,6.0,422.8739420000238,8.0,0.0,part_2,go,400.0,400.0,1.0,,,,,,,,,gray,circle
0.0,7.0,3.0,1.0,5.0,5.0,383.6239010001918,8.0,0.0,part_2,stop,400.0,400.0,3.0,,,,,,,,,orange,diamond
0.0,3.0,3.0,0.0,5.0,5.0,382.4120620001849,8.0,0.0,part_2,go,350.0,400.0,1.0,,,,,,,,,blue,flipped triangle
0.0,5.0,1.0,1.0,5.0,5.0,501.388777000102,8.0,0.0,part_2,stop,350.0,400.0,3.0,,,,,,,,,yellow,hexagon
0.0,3.0,3.0,0.0,5.0,5.0,548.7472439999692,8.0,0.0,part_2,go,300.0,400.0,1.0,,,,,,,,,blue,flipped triangle
0.0,2.0,2.0,0.0,5.0,5.0,581.6361970000798,8.0,0.0,part_2,go,300.0,400.0,1.0,,,,,,,,,green,I
0.0,8.0,4.0,1.0,5.0,5.0,403.6432419998164,8.0,0.0,part_2,stop,300.0,400.0,3.0,,,,,,,,,gray,circle
0.0,8.0,4.0,1.0,6.0,6.0,362.8646110000773,8.0,0.0,part_2,stop,250.0,400.0,3.0,,,,,,,,,gray,circle
0.0,6.0,2.0,1.0,6.0,6.0,435.6427030002123,8.0,0.0,part_2,stop,250.0,350.0,3.0,,,,,,,,,cyan,triangle
0.0,2.0,2.0,0.0,5.0,5.0,307.2611739999047,8.0,0.0,part_2,go,250.0,300.0,1.0,,,,,,,,,green,I
0.0,3.0,3.0,0.0,5.0,5.0,288.6901359997864,8.0,0.0,part_2,go,250.0,300.0,1.0,,,,,,,,,blue,flipped triangle
0.0,7.0,3.0,1.0,6.0,6.0,320.8394690000204,8.0,0.0,part_2,go,250.0,300.0,1.0,,,,,,,,,orange,diamond
0.0,1.0,1.0,0.0,5.0,5.0,423.7540290000652,8.0,0.0,part_2,go,250.0,300.0,1.0,,,,,,,,,magenta,square
0.0,5.0,1.0,1.0,6.0,6.0,374.7238939999988,8.0,0.0,part_2,go,250.0,300.0,1.0,,,,,,,,,yellow,hexagon
0.0,4.0,4.0,0.0,5.0,5.0,367.6020560001234,8.0,0.0,part_2,go,250.0,300.0,1.0,,,,,,,,,white,cross
0.0,2.0,2.0,0.0,5.0,5.0,424.1534749999118,8.0,0.0,part_2,go,250.0,300.0,1.0,,,,,,,,,green,I
0.0,7.0,3.0,1.0,6.0,6.0,381.4544169999863,8.0,0.0,part_2,stop,250.0,300.0,3.0,,,,,,,,,orange,diamond
0.0,7.0,3.0,1.0,6.0,0.0,0.0,8.0,0.0,part_2,stop,250.0,250.0,4.0,,,,,,,,,orange,diamond
0.0,3.0,3.0,0.0,6.0,6.0,517.0728039997812,8.0,0.0,part_2,go,250.0,300.0,1.0,,,,,,,,,blue,flipped triangle
0.0,1.0,1.0,0.0,5.0,5.0,421.4437089999592,8.0,0.0,part_2,go,250.0,300.0,1.0,,,,,,,,,magenta,square
0.0,3.0,3.0,0.0,6.0,6.0,468.9771080002174,8.0,0.0,part_2,go,250.0,300.0,1.0,,,,,,,,,blue,flipped triangle
0.0,5.0,1.0,1.0,6.0,6.0,563.4129059999395,8.0,0.0,part_2,go,250.0,300.0,1.0,,,,,,,,,yellow,hexagon
0.0,1.0,1.0,0.0,6.0,6.0,626.492235999649,8.0,0.0,part_2,go,250.0,300.0,1.0,,,,,,,,,magenta,square
0.0,3.0,3.0,0.0,6.0,6.0,645.1819149997391,8.0,0.0,part_2,go,250.0,300.0,1.0,,,,,,,,,blue,flipped triangle
0.0,2.0,2.0,0.0,5.0,5.0,641.7371280003863,8.0,0.0,part_2,go,250.0,300.0,1.0,,,,,,,,,green,I
0.0,5.0,1.0,1.0,5.0,0.0,0.0,8.0,0.0,part_2,stop,250.0,300.0,4.0,,,,,,,,,yellow,hexagon
0.0,2.0,2.0,0.0,6.0,6.0,712.1478019998904,8.0,0.0,part_2,go,300.0,300.0,1.0,,,,,,,,,green,I
0.0,8.0,4.0,1.0,6.0,0.0,0.0,8.0,0.0,part_2,stop,300.0,300.0,4.0,,,,,,,,,gray,circle
0.0,2.0,2.0,0.0,6.0,6.0,441.7931739999403,8.0,0.0,part_2,go,300.0,350.0,1.0,,,,,,,,,green,I
0.0,6.0,2.0,1.0,6.0,0.0,0.0,8.0,0.0,part_2,stop,300.0,350.0,4.0,,,,,,,,,cyan,triangle
0.0,6.0,2.0,1.0,6.0,0.0,0.0,8.0,0.0,part_2,stop,300.0,400.0,4.0,,,,,,,,,cyan,triangle
0.0,5.0,1.0,1.0,6.0,0.0,0.0,8.0,0.0,part_2,stop,300.0,450.0,4.0,,,,,,,,,yellow,hexagon
0.0,7.0,3.0,1.0,7.0,3.0,1041.5964629992231,1.0,2.0,part_3,go,0.0,0.0,0.0,156.0,4.0,234.0,78.0,156.0,39.0,117.0,195.0,orange,diamond
0.0,7.0,3.0,1.0,7.0,4.0,2207.845425999949,1.0,1.0,part_3,go,0.0,0.0,0.0,147.0,3.0,294.0,49.0,196.0,147.0,98.0,245.0,orange,diamond
0.0,2.0,2.0,0.0,7.0,2.0,2170.072607000293,1.0,1.0,part_3,go,0.0,0.0,0.0,220.0,5.0,264.0,220.0,132.0,176.0,44.0,88.0,green,I
0.0,2.0,2.0,0.0,7.0,1.0,2582.840496999779,1.0,1.0,part_3,go,0.0,0.0,0.0,196.0,4.0,196.0,147.0,294.0,245.0,98.0,49.0,green,I
0.0,4.0,4.0,0.0,7.0,1.0,1991.9189689999257,1.0,1.0,part_3,go,0.0,0.0,0.0,132.0,3.0,132.0,44.0,264.0,176.0,220.0,88.0,white,cross
0.0,6.0,2.0,1.0,7.0,4.0,2349.6277129997907,1.0,1.0,part_3,go,0.0,0.0,0.0,234.0,6.0,195.0,78.0,39.0,234.0,156.0,117.0,cyan,triangle
0.0,4.0,4.0,0.0,7.0,2.0,1730.4366719999962,1.0,1.0,part_3,go,0.0,0.0,0.0,162.0,3.0,54.0,162.0,108.0,324.0,216.0,270.0,white,cross
0.0,3.0,3.0,0.0,7.0,2.0,2040.1871980002397,1.0,1.0,part_3,go,0.0,0.0,0.0,245.0,5.0,49.0,245.0,147.0,98.0,294.0,196.0,blue,flipped triangle
0.0,4.0,4.0,0.0,7.0,4.0,2340.6040939999,1.0,1.0,part_3,go,0.0,0.0,0.0,132.0,3.0,88.0,220.0,44.0,132.0,176.0,264.0,white,cross
0.0,3.0,3.0,0.0,7.0,3.0,2330.553589000374,1.0,1.0,part_3,go,0.0,0.0,0.0,176.0,4.0,132.0,44.0,176.0,88.0,220.0,264.0,blue,flipped triangle
0.0,2.0,2.0,0.0,7.0,4.0,2223.849019999762,1.0,1.0,part_3,go,0.0,0.0,0.0,204.0,6.0,34.0,170.0,68.0,204.0,102.0,136.0,green,I
0.0,1.0,1.0,0.0,7.0,5.0,2792.641064000236,1.0,1.0,part_3,go,0.0,0.0,0.0,270.0,5.0,108.0,54.0,216.0,162.0,270.0,324.0,magenta,square
0.0,4.0,4.0,0.0,7.0,3.0,1714.503715000319,1.0,1.0,part_3,go,0.0,0.0,0.0,204.0,6.0,34.0,170.0,204.0,68.0,102.0,136.0,white,cross
0.0,8.0,4.0,1.0,7.0,3.0,2193.0134710000857,1.0,1.0,part_3,go,0.0,0.0,0.0,102.0,3.0,136.0,170.0,102.0,34.0,204.0,68.0,gray,circle
0.0,4.0,4.0,0.0,7.0,5.0,2209.952921999502,1.0,1.0,part_3,go,0.0,0.0,0.0,270.0,5.0,108.0,54.0,162.0,324.0,270.0,216.0,white,cross
0.0,2.0,2.0,0.0,7.0,2.0,2212.2611629993116,1.0,1.0,part_3,go,0.0,0.0,0.0,270.0,5.0,216.0,270.0,54.0,108.0,324.0,162.0,green,I
0.0,6.0,2.0,1.0,7.0,2.0,1775.9096549998503,1.0,1.0,part_3,go,0.0,0.0,0.0,204.0,6.0,34.0,204.0,102.0,68.0,136.0,170.0,cyan,triangle
0.0,1.0,1.0,0.0,7.0,4.0,2193.0100829995354,1.0,1.0,part_3,go,0.0,0.0,0.0,204.0,6.0,34.0,68.0,102.0,204.0,136.0,170.0,magenta,square
0.0,6.0,2.0,1.0,7.0,2.0,1751.32012999984,1.0,1.0,part_3,go,0.0,0.0,0.0,220.0,5.0,44.0,220.0,88.0,176.0,132.0,264.0,cyan,triangle
0.0,1.0,1.0,0.0,7.0,4.0,2272.2597350002616,1.0,1.0,part_3,go,0.0,0.0,0.0,245.0,5.0,49.0,196.0,147.0,245.0,98.0,294.0,magenta,square
0.0,5.0,1.0,1.0,7.0,1.0,2761.741455000447,2.0,1.0,part_3,go,0.0,0.0,0.0,204.0,6.0,204.0,34.0,170.0,68.0,136.0,102.0,yellow,hexagon
0.0,8.0,4.0,1.0,7.0,6.0,1770.128571000896,2.0,1.0,part_3,go,0.0,0.0,0.0,88.0,2.0,264.0,44.0,220.0,132.0,176.0,88.0,gray,circle
0.0,1.0,1.0,0.0,7.0,3.0,2571.1894730002314,2.0,1.0,part_3,go,0.0,0.0,0.0,117.0,3.0,78.0,39.0,117.0,195.0,234.0,156.0,magenta,square
0.0,5.0,1.0,1.0,7.0,1.0,2788.9769209996302,2.0,1.0,part_3,go,0.0,0.0,0.0,270.0,5.0,270.0,162.0,216.0,54.0,324.0,108.0,yellow,hexagon
0.0,8.0,4.0,1.0,7.0,1.0,3373.721392000334,2.0,1.0,part_3,go,0.0,0.0,0.0,132.0,3.0,132.0,220.0,176.0,88.0,44.0,264.0,gray,circle
0.0,2.0,2.0,0.0,7.0,1.0,2329.295425000055,2.0,1.0,part_3,go,0.0,0.0,0.0,196.0,4.0,196.0,49.0,294.0,245.0,147.0,98.0,green,I
0.0,7.0,3.0,1.0,7.0,1.0,2743.935113999214,2.0,1.0,part_3,go,0.0,0.0,0.0,220.0,5.0,220.0,44.0,88.0,132.0,176.0,264.0,orange,diamond
0.0,2.0,2.0,0.0,7.0,3.0,2931.139818999327,2.0,1.0,part_3,go,0.0,0.0,0.0,234.0,6.0,156.0,39.0,234.0,78.0,117.0,195.0,green,I
0.0,1.0,1.0,0.0,7.0,6.0,2019.2567869999039,2.0,1.0,part_3,go,0.0,0.0,0.0,264.0,6.0,132.0,44.0,220.0,88.0,176.0,264.0,magenta,square
0.0,5.0,1.0,1.0,7.0,2.0,2171.751583000514,2.0,1.0,part_3,go,0.0,0.0,0.0,234.0,6.0,195.0,234.0,156.0,39.0,117.0,78.0,yellow,hexagon
0.0,1.0,1.0,0.0,7.0,1.0,3542.858269000135,2.0,1.0,part_3,go,0.0,0.0,0.0,204.0,6.0,204.0,136.0,170.0,34.0,68.0,102.0,magenta,square
0.0,2.0,2.0,0.0,7.0,3.0,2185.5032080002275,2.0,1.0,part_3,go,0.0,0.0,0.0,136.0,4.0,204.0,68.0,136.0,102.0,34.0,170.0,green,I
0.0,8.0,4.0,1.0,7.0,2.0,2642.5808750000215,2.0,1.0,part_3,go,0.0,0.0,0.0,98.0,2.0,294.0,98.0,196.0,49.0,147.0,245.0,gray,circle
0.0,6.0,2.0,1.0,7.0,4.0,1825.3035159996216,2.0,1.0,part_3,go,0.0,0.0,0.0,324.0,6.0,216.0,108.0,54.0,324.0,162.0,270.0,cyan,triangle
0.0,7.0,3.0,1.0,7.0,4.0,3395.5632730003344,2.0,1.0,part_3,go,0.0,0.0,0.0,216.0,4.0,324.0,270.0,108.0,216.0,54.0,162.0,orange,diamond
0.0,4.0,4.0,0.0,7.0,1.0,3347.63352400023,2.0,1.0,part_3,go,0.0,0.0,0.0,195.0,5.0,195.0,117.0,234.0,39.0,156.0,78.0,white,cross
0.0,8.0,4.0,1.0,7.0,6.0,3269.2447210001774,2.0,1.0,part_3,go,0.0,0.0,0.0,108.0,2.0,270.0,54.0,216.0,162.0,324.0,108.0,gray,circle
0.0,5.0,1.0,1.0,7.0,5.0,3801.261884999803,2.0,1.0,part_3,go,0.0,0.0,0.0,156.0,4.0,234.0,117.0,39.0,195.0,156.0,78.0,yellow,hexagon
0.0,1.0,1.0,0.0,7.0,1.0,2258.921804000238,2.0,1.0,part_3,go,0.0,0.0,0.0,147.0,3.0,147.0,245.0,49.0,196.0,294.0,98.0,magenta,square
0.0,7.0,3.0,1.0,7.0,2.0,1675.4017390003355,2.0,1.0,part_3,go,0.0,0.0,0.0,147.0,3.0,294.0,147.0,196.0,98.0,49.0,245.0,orange,diamond
0.0,6.0,2.0,1.0,7.0,4.0,1697.9995960000451,3.0,1.0,part_3,go,0.0,0.0,0.0,245.0,5.0,49.0,294.0,98.0,245.0,196.0,147.0,cyan,triangle
0.0,5.0,1.0,1.0,7.0,3.0,1817.9188799995245,3.0,1.0,part_3,go,0.0,0.0,0.0,204.0,6.0,68.0,170.0,204.0,136.0,102.0,34.0,yellow,hexagon
0.0,5.0,1.0,1.0,7.0,2.0,1979.452777000006,3.0,1.0,part_3,go,0.0,0.0,0.0,220.0,5.0,264.0,220.0,132.0,176.0,44.0,88.0,yellow,hexagon
0.0,5.0,1.0,1.0,7.0,1.0,1148.959778999597,3.0,1.0,part_3,go,0.0,0.0,0.0,270.0,5.0,270.0,108.0,216.0,324.0,162.0,54.0,yellow,hexagon
0.0,3.0,3.0,0.0,7.0,3.0,1480.701596000472,3.0,1.0,part_3,go,0.0,0.0,0.0,216.0,4.0,324.0,162.0,216.0,270.0,108.0,54.0,blue,flipped triangle
0.0,6.0,2.0,1.0,7.0,4.0,1655.1309010001205,3.0,1.0,part_3,go,0.0,0.0,0.0,196.0,4.0,294.0,245.0,49.0,196.0,98.0,147.0,cyan,triangle
0.0,7.0,3.0,1.0,7.0,3.0,2303.896340000392,3.0,1.0,part_3,go,0.0,0.0,0.0,156.0,4.0,195.0,78.0,156.0,234.0,39.0,117.0,orange,diamond
0.0,5.0,1.0,1.0,7.0,3.0,1013.2626819995494,3.0,1.0,part_3,go,0.0,0.0,0.0,176.0,4.0,44.0,264.0,176.0,88.0,220.0,132.0,yellow,hexagon
0.0,3.0,3.0,0.0,7.0,3.0,1325.323287000174,3.0,1.0,part_3,go,0.0,0.0,0.0,195.0,5.0,234.0,156.0,195.0,78.0,117.0,39.0,blue,flipped triangle
0.0,2.0,2.0,0.0,7.0,2.0,2621.9662419998713,3.0,1.0,part_3,go,0.0,0.0,0.0,156.0,4.0,195.0,156.0,117.0,78.0,39.0,234.0,green,I
0.0,7.0,3.0,1.0,7.0,5.0,4256.424995999623,3.0,1.0,part_3,go,0.0,0.0,0.0,216.0,4.0,162.0,270.0,54.0,324.0,216.0,108.0,orange,diamond
0.0,8.0,4.0,1.0,7.0,3.0,2554.2123120003453,3.0,1.0,part_3,go,0.0,0.0,0.0,117.0,3.0,195.0,39.0,117.0,78.0,156.0,234.0,gray,circle
0.0,1.0,1.0,0.0,7.0,3.0,2582.069424999645,3.0,1.0,part_3,go,0.0,0.0,0.0,270.0,5.0,162.0,108.0,270.0,54.0,216.0,324.0,magenta,square
0.0,5.0,1.0,1.0,7.0,3.0,3719.3907479995687,3.0,1.0,part_3,go,0.0,0.0,0.0,196.0,4.0,294.0,98.0,196.0,147.0,245.0,49.0,yellow,hexagon
0.0,3.0,3.0,0.0,7.0,6.0,3541.9650439998804,3.0,1.0,part_3,go,0.0,0.0,0.0,220.0,5.0,264.0,88.0,44.0,132.0,176.0,220.0,blue,flipped triangle
0.0,4.0,4.0,0.0,7.0,1.0,3023.660545999519,3.0,1.0,part_3,go,0.0,0.0,0.0,195.0,5.0,195.0,234.0,78.0,156.0,117.0,39.0,white,cross
0.0,8.0,4.0,1.0,7.0,1.0,3785.640979999698,3.0,1.0,part_3,go,0.0,0.0,0.0,170.0,5.0,170.0,34.0,204.0,102.0,68.0,136.0,gray,circle
0.0,4.0,4.0,0.0,7.0,2.0,2355.8113169992794,3.0,1.0,part_3,go,0.0,0.0,0.0,170.0,5.0,68.0,170.0,34.0,136.0,204.0,102.0,white,cross
0.0,7.0,3.0,1.0,7.0,5.0,1956.4090630001376,3.0,1.0,part_3,go,0.0,0.0,0.0,204.0,6.0,102.0,136.0,34.0,170.0,204.0,68.0,orange,diamond
0.0,8.0,4.0,1.0,7.0,6.0,2135.6794909997916,3.0,1.0,part_3,go,0.0,0.0,0.0,196.0,4.0,245.0,294.0,98.0,49.0,147.0,196.0,gray,circle
0.0,3.0,3.0,0.0,7.0,3.0,1765.367951999906,4.0,1.0,part_3,go,0.0,0.0,0.0,162.0,3.0,324.0,108.0,162.0,54.0,216.0,270.0,blue,flipped triangle
0.0,6.0,2.0,1.0,7.0,5.0,1095.3048290002698,4.0,1.0,part_3,go,0.0,0.0,0.0,39.0,1.0,117.0,195.0,234.0,78.0,39.0,156.0,cyan,triangle
0.0,6.0,2.0,1.0,7.0,4.0,2747.339337000085,4.0,1.0,part_3,go,0.0,0.0,0.0,270.0,5.0,108.0,54.0,324.0,270.0,216.0,162.0,cyan,triangle
0.0,1.0,1.0,0.0,7.0,2.0,3561.495386000388,4.0,1.0,part_3,go,0.0,0.0,0.0,264.0,6.0,176.0,264.0,88.0,44.0,220.0,132.0,magenta,square
0.0,4.0,4.0,0.0,7.0,4.0,4698.894600000131,4.0,1.0,part_3,go,0.0,0.0,0.0,245.0,5.0,147.0,294.0,196.0,245.0,49.0,98.0,white,cross
0.0,7.0,3.0,1.0,7.0,2.0,2054.0155080007025,4.0,1.0,part_3,go,0.0,0.0,0.0,176.0,4.0,132.0,176.0,88.0,220.0,264.0,44.0,orange,diamond
0.0,3.0,3.0,0.0,7.0,4.0,1681.0492650001834,4.0,1.0,part_3,go,0.0,0.0,0.0,234.0,6.0,39.0,78.0,156.0,234.0,117.0,195.0,blue,flipped triangle
0.0,6.0,2.0,1.0,7.0,3.0,2615.594868999324,4.0,1.0,part_3,go,0.0,0.0,0.0,170.0,5.0,102.0,34.0,170.0,136.0,68.0,204.0,cyan,triangle
0.0,2.0,2.0,0.0,7.0,5.0,2297.2278189999997,4.0,1.0,part_3,go,0.0,0.0,0.0,220.0,5.0,44.0,132.0,176.0,88.0,220.0,264.0,green,I
0.0,3.0,3.0,0.0,7.0,3.0,1530.712556999788,4.0,1.0,part_3,go,0.0,0.0,0.0,294.0,6.0,49.0,147.0,294.0,196.0,98.0,245.0,blue,flipped triangle
0.0,8.0,4.0,1.0,7.0,3.0,2276.844221999454,4.0,1.0,part_3,go,0.0,0.0,0.0,162.0,3.0,270.0,108.0,162.0,324.0,216.0,54.0,gray,circle
0.0,4.0,4.0,0.0,7.0,2.0,1784.396437000396,4.0,1.0,part_3,go,0.0,0.0,0.0,294.0,6.0,98.0,294.0,196.0,245.0,49.0,147.0,white,cross
0.0,6.0,2.0,1.0,7.0,3.0,1274.4871639997657,4.0,1.0,part_3,go,0.0,0.0,0.0,220.0,5.0,132.0,44.0,220.0,176.0,88.0,264.0,cyan,triangle
0.0,3.0,3.0,0.0,7.0,3.0,1443.0295969996223,4.0,1.0,part_3,go,0.0,0.0,0.0,204.0,6.0,136.0,102.0,204.0,170.0,68.0,34.0,blue,flipped triangle
0.0,3.0,3.0,0.0,7.0,4.0,1547.7835910005524,4.0,1.0,part_3,go,0.0,0.0,0.0,204.0,6.0,102.0,68.0,136.0,204.0,34.0,170.0,blue,flipped triangle
0.0,1.0,1.0,0.0,7.0,4.0,1989.643206999972,4.0,1.0,part_3,go,0.0,0.0,0.0,234.0,6.0,39.0,195.0,78.0,234.0,117.0,156.0,magenta,square
0.0,7.0,3.0,1.0,7.0,5.0,2676.8989040001543,4.0,1.0,part_3,go,0.0,0.0,0.0,170.0,5.0,68.0,102.0,34.0,204.0,170.0,136.0,orange,diamond
0.0,5.0,1.0,1.0,7.0,2.0,1709.5941240004322,4.0,1.0,part_3,go,0.0,0.0,0.0,196.0,4.0,147.0,196.0,245.0,98.0,294.0,49.0,yellow,hexagon
0.0,8.0,4.0,1.0,7.0,4.0,1303.2548940000197,4.0,1.0,part_3,go,0.0,0.0,0.0,195.0,5.0,156.0,78.0,234.0,195.0,117.0,39.0,gray,circle
0.0,2.0,2.0,0.0,7.0,3.0,1444.3436310002653,4.0,1.0,part_3,go,0.0,0.0,0.0,162.0,3.0,108.0,270.0,162.0,54.0,324.0,216.0,green,I
